init_variables.started,init_variables.stopped,participant,session,date,expName,psychopyVersion,OS,frameRate,instruction_single.started,instruction_single.stopped,key_resp_2.keys,key_resp_2.rt,key_resp_2.duration,interval.started,interval.stopped,cue_single.started,cue_single.stopped,mask.started,mask.stopped,ori_response_single.started,res_ori,res,ori_response_single.stopped,key_resp_single.keys,key_resp_single.rt,key_resp_single.duration,disp_single.started,disp_single.stopped,key_resp.keys,key_resp.rt,key_resp.duration,single.thisRepN,single.thisTrialN,single.thisN,single.thisIndex,single.ran,ori,path,mask_path,instruction_bandit.started,instruction_bandit.stopped,key_resp_6.keys,key_resp_6.rt,key_resp_6.duration,cue_bandit.started,cue_bandit.stopped,bandit_res.keys,bandit_res.rt,bandit_res.duration,outcome_bandit.started,rew,action,outcome_bandit.stopped,bandit.thisRepN,bandit.thisTrialN,bandit.thisN,bandit.thisIndex,bandit.ran,actual_rew1,actual_rew2,rew1,rew2,instruction_task.started,instruction_task.stopped,key_resp_7.keys,key_resp_7.rt,key_resp_7.duration,wait_ready.started,wait_ready.stopped,key_resp_3.keys,key_resp_3.rt,key_resp_3.duration,cue.started,cue.stopped,ori_response.started,ori_response.stopped,key_resp_5.keys,key_resp_5.rt,key_resp_5.duration,outcome.started,diff1,diff2,outcome.stopped,disp_outcome_practice.started,disp_outcome_practice.stopped,key_resp_4.keys,key_resp_4.rt,key_resp_4.duration,trials.thisRepN,trials.thisTrialN,trials.thisN,trials.thisIndex,trials.ran,ori1,ori2,break_blk.started,break_blk.stopped,block.thisRepN,block.thisTrialN,block.thisN,block.thisIndex,block.ran,condition_file
0.0006,0.0007,613a9b39928d81d5ce5a3f7c,001,2023-12-14_24h16.34.785,bars,2023.2.3,Win32,40.00320026,,,,,,,,,,,,,,,,,,,,,,,,,,,,,,,,,,,,,,,,,,,,,,,,,,,,,,,,,,,,,,,,,,,,,,,,,,,,,,,,,,,,,,,,,,,,,,,
,,613a9b39928d81d5ce5a3f7c,001,2023-12-14_24h16.34.785,bars,2023.2.3,Win32,40.00320026,0.001,8.9941,space,8.956,,,,,,,,,,,,,,,,,,,,,,,,,,,,,,,,,,,,,,,,,,,,,,,,,,,,,,,,,,,,,,,,,,,,,,,,,,,,,,,,,,,,,,,,,,,
,,613a9b39928d81d5ce5a3f7c,001,2023-12-14_24h16.34.785,bars,2023.2.3,Win32,40.00320026,,,,,,9.0181,10.017,10.0174,10.5176,10.518,10.7679,10.7683,179,-1,23.9412,space,13.1109,,23.9417,27.7395,space,3.7414,,0,0,0,1,1,20,bars/single001.png,bars/mask006.png,,,,,,,,,,,,,,,,,,,,,,,,,,,,,,,,,,,,,,,,,,,,,,,,,,,,,,,,,,,,,,,,
,,613a9b39928d81d5ce5a3f7c,001,2023-12-14_24h16.34.785,bars,2023.2.3,Win32,40.00320026,,,,,,27.741,28.7371,28.7373,29.2365,29.2367,29.487,29.4871,38,38,38.4119,space,8.8996,,38.412,55.3567,space,16.9045,,0,1,1,6,1,175,bars/single006.png,bars/mask005.png,,,,,,,,,,,,,,,,,,,,,,,,,,,,,,,,,,,,,,,,,,,,,,,,,,,,,,,,,,,,,,,,
,,613a9b39928d81d5ce5a3f7c,001,2023-12-14_24h16.34.785,bars,2023.2.3,Win32,40.00320026,,,,,,55.3805,56.3811,56.3811,56.8734,56.8735,57.1234,57.1234,37,37,63.9808,space,6.8251,,63.9809,71.546,space,7.5129,,0,2,2,8,1,160,bars/single008.png,bars/mask004.png,,,,,,,,,,,,,,,,,,,,,,,,,,,,,,,,,,,,,,,,,,,,,,,,,,,,,,,,,,,,,,,,
,,613a9b39928d81d5ce5a3f7c,001,2023-12-14_24h16.34.785,bars,2023.2.3,Win32,40.00320026,,,,,,71.5695,72.5694,72.5695,73.0732,73.0733,73.2971,73.2972,157,157,79.2917,space,5.9699,,79.2919,81.9962,space,2.6599,,0,3,3,9,1,20,bars/single009.png,bars/mask006.png,,,,,,,,,,,,,,,,,,,,,,,,,,,,,,,,,,,,,,,,,,,,,,,,,,,,,,,,,,,,,,,,
,,613a9b39928d81d5ce5a3f7c,001,2023-12-14_24h16.34.785,bars,2023.2.3,Win32,40.00320026,,,,,,82.0194,83.0196,83.0198,83.5157,83.5157,83.764,83.7643,29,29,90.468,space,6.6803,,90.4681,96.8631,space,6.3483,,0,4,4,7,1,45,bars/single007.png,bars/mask009.png,,,,,,,,,,,,,,,,,,,,,,,,,,,,,,,,,,,,,,,,,,,,,,,,,,,,,,,,,,,,,,,,
,,613a9b39928d81d5ce5a3f7c,001,2023-12-14_24h16.34.785,bars,2023.2.3,Win32,40.00320026,,,,,,96.8875,97.8874,97.8874,98.3862,98.3865,98.6375,98.6376,38,38,103.2697,space,4.6007,,103.2698,107.1888,space,3.8825,,0,5,5,2,1,145,bars/single002.png,bars/mask003.png,,,,,,,,,,,,,,,,,,,,,,,,,,,,,,,,,,,,,,,,,,,,,,,,,,,,,,,,,,,,,,,,
,,613a9b39928d81d5ce5a3f7c,001,2023-12-14_24h16.34.785,bars,2023.2.3,Win32,40.00320026,,,,,,107.2116,108.2162,108.2162,108.7097,108.7098,108.9596,108.9597,37,37,115.2857,space,6.2947,,115.2859,118.7924,space,3.4704,,0,6,6,4,1,95,bars/single004.png,bars/mask004.png,,,,,,,,,,,,,,,,,,,,,,,,,,,,,,,,,,,,,,,,,,,,,,,,,,,,,,,,,,,,,,,,
,,613a9b39928d81d5ce5a3f7c,001,2023-12-14_24h16.34.785,bars,2023.2.3,Win32,40.00320026,,,,,,118.8157,119.8066,119.8068,120.3065,120.3066,120.5565,120.5566,53,53,130.9816,space,10.3935,,130.9817,134.9117,space,3.8843,,0,7,7,0,1,150,bars/single000.png,bars/mask006.png,,,,,,,,,,,,,,,,,,,,,,,,,,,,,,,,,,,,,,,,,,,,,,,,,,,,,,,,,,,,,,,,
,,613a9b39928d81d5ce5a3f7c,001,2023-12-14_24h16.34.785,bars,2023.2.3,Win32,40.00320026,,,,,,134.9127,135.9088,135.9089,136.4023,136.4023,136.6524,136.6525,38,38,138.7606,space,2.0761,,138.7607,141.3337,space,2.5478,,0,8,8,3,1,20,bars/single003.png,bars/mask005.png,,,,,,,,,,,,,,,,,,,,,,,,,,,,,,,,,,,,,,,,,,,,,,,,,,,,,,,,,,,,,,,,
,,613a9b39928d81d5ce5a3f7c,001,2023-12-14_24h16.34.785,bars,2023.2.3,Win32,40.00320026,,,,,,141.3566,142.3506,142.3507,142.8506,142.8508,143.1001,143.1005,49,49,150.91,space,7.7747,,150.9101,152.2733,space,1.3118,,0,9,9,5,1,55,bars/single005.png,bars/mask008.png,,,,,,,,,,,,,,,,,,,,,,,,,,,,,,,,,,,,,,,,,,,,,,,,,,,,,,,,,,,,,,,,
,,613a9b39928d81d5ce5a3f7c,001,2023-12-14_24h16.34.785,bars,2023.2.3,Win32,40.00320026,,,,,,,,,,,,,,,,,,,,,,,,,,,,,,,,152.2753,167.7963,space,15.4798,,,,,,,,,,,,,,,,,,,,,,,,,,,,,,,,,,,,,,,,,,,,,,,,,,,,,,,,,,,,
,,613a9b39928d81d5ce5a3f7c,001,2023-12-14_24h16.34.785,bars,2023.2.3,Win32,40.00320026,,,,,,,,,,,,,,,,,,,,,,,,,,,,,,,,,,,,,167.8248,173.0757,right,5.211,,173.0761,2,2,174.0676,0,0,0,0,1,9,1,9,2,,,,,,,,,,,,,,,,,,,,,,,,,,,,,,,,,,,,,,,,,
,,613a9b39928d81d5ce5a3f7c,001,2023-12-14_24h16.34.785,bars,2023.2.3,Win32,40.00320026,,,,,,,,,,,,,,,,,,,,,,,,,,,,,,,,,,,,,174.0688,177.6489,right,3.5502,,177.649,1,2,178.6432,0,1,1,1,1,10,0,10,1,,,,,,,,,,,,,,,,,,,,,,,,,,,,,,,,,,,,,,,,,
,,613a9b39928d81d5ce5a3f7c,001,2023-12-14_24h16.34.785,bars,2023.2.3,Win32,40.00320026,,,,,,,,,,,,,,,,,,,,,,,,,,,,,,,,,,,,,178.6669,179.8992,left,1.2244,,179.8994,10,1,180.8904,0,2,2,2,1,10,2,10,2,,,,,,,,,,,,,,,,,,,,,,,,,,,,,,,,,,,,,,,,,
,,613a9b39928d81d5ce5a3f7c,001,2023-12-14_24h16.34.785,bars,2023.2.3,Win32,40.00320026,,,,,,,,,,,,,,,,,,,,,,,,,,,,,,,,,,,,,180.8914,183.6658,right,2.7408,,183.666,3,2,184.6644,0,3,3,3,1,8,4,7,3,,,,,,,,,,,,,,,,,,,,,,,,,,,,,,,,,,,,,,,,,
,,613a9b39928d81d5ce5a3f7c,001,2023-12-14_24h16.34.785,bars,2023.2.3,Win32,40.00320026,,,,,,,,,,,,,,,,,,,,,,,,,,,,,,,,,,,,,184.6876,185.6712,left,0.9735,,185.6715,5,1,186.664,0,4,4,4,1,6,2,5,1,,,,,,,,,,,,,,,,,,,,,,,,,,,,,,,,,,,,,,,,,
,,613a9b39928d81d5ce5a3f7c,001,2023-12-14_24h16.34.785,bars,2023.2.3,Win32,40.00320026,,,,,,,,,,,,,,,,,,,,,,,,,,,,,,,,,,,,,186.665,187.6642,left,0.9523,,187.6643,4,1,188.6634,0,5,5,5,1,4,4,4,4,,,,,,,,,,,,,,,,,,,,,,,,,,,,,,,,,,,,,,,,,
,,613a9b39928d81d5ce5a3f7c,001,2023-12-14_24h16.34.785,bars,2023.2.3,Win32,40.00320026,,,,,,,,,,,,,,,,,,,,,,,,,,,,,,,,,,,,,188.6643,189.9138,left,1.2106,,189.914,1,1,190.9186,0,6,6,6,1,2,2,1,2,,,,,,,,,,,,,,,,,,,,,,,,,,,,,,,,,,,,,,,,,
,,613a9b39928d81d5ce5a3f7c,001,2023-12-14_24h16.34.785,bars,2023.2.3,Win32,40.00320026,,,,,,,,,,,,,,,,,,,,,,,,,,,,,,,,,,,,,190.9196,191.6169,right,0.6732,,191.617,1,2,192.614,0,7,7,7,1,0,0,0,1,,,,,,,,,,,,,,,,,,,,,,,,,,,,,,,,,,,,,,,,,
,,613a9b39928d81d5ce5a3f7c,001,2023-12-14_24h16.34.785,bars,2023.2.3,Win32,40.00320026,,,,,,,,,,,,,,,,,,,,,,,,,,,,,,,,,,,,,192.6149,194.2198,right,1.5757,,194.2199,0,2,195.2101,0,8,8,8,1,0,2,1,0,,,,,,,,,,,,,,,,,,,,,,,,,,,,,,,,,,,,,,,,,
,,613a9b39928d81d5ce5a3f7c,001,2023-12-14_24h16.34.785,bars,2023.2.3,Win32,40.00320026,,,,,,,,,,,,,,,,,,,,,,,,,,,,,,,,,,,,,195.212,195.6447,left,0.4013,,195.6449,2,1,196.6377,0,9,9,9,1,2,4,2,3,,,,,,,,,,,,,,,,,,,,,,,,,,,,,,,,,,,,,,,,,
,,613a9b39928d81d5ce5a3f7c,001,2023-12-14_24h16.34.785,bars,2023.2.3,Win32,40.00320026,,,,,,,,,,,,,,,,,,,,,,,,,,,,,,,,,,,,,196.6386,197.4116,left,0.7279,,197.4116,0,1,198.4108,0,10,10,10,1,0,2,0,3,,,,,,,,,,,,,,,,,,,,,,,,,,,,,,,,,,,,,,,,,
,,613a9b39928d81d5ce5a3f7c,001,2023-12-14_24h16.34.785,bars,2023.2.3,Win32,40.00320026,,,,,,,,,,,,,,,,,,,,,,,,,,,,,,,,,,,,,198.4117,199.7609,left,1.3149,,199.7611,0,1,200.7603,0,11,11,11,1,0,4,0,3,,,,,,,,,,,,,,,,,,,,,,,,,,,,,,,,,,,,,,,,,
,,613a9b39928d81d5ce5a3f7c,001,2023-12-14_24h16.34.785,bars,2023.2.3,Win32,40.00320026,,,,,,,,,,,,,,,,,,,,,,,,,,,,,,,,,,,,,200.7611,201.4106,right,0.6127,,201.4108,6,2,202.4163,0,12,12,12,1,2,6,1,6,,,,,,,,,,,,,,,,,,,,,,,,,,,,,,,,,,,,,,,,,
,,613a9b39928d81d5ce5a3f7c,001,2023-12-14_24h16.34.785,bars,2023.2.3,Win32,40.00320026,,,,,,,,,,,,,,,,,,,,,,,,,,,,,,,,,,,,,202.4172,203.4676,right,1.0264,,203.4678,3,2,204.4594,0,13,13,13,1,0,4,1,3,,,,,,,,,,,,,,,,,,,,,,,,,,,,,,,,,,,,,,,,,
,,613a9b39928d81d5ce5a3f7c,001,2023-12-14_24h16.34.785,bars,2023.2.3,Win32,40.00320026,,,,,,,,,,,,,,,,,,,,,,,,,,,,,,,,,,,,,204.4602,205.5846,left,1.0775,,205.5847,2,1,206.5893,0,14,14,14,1,2,6,2,7,,,,,,,,,,,,,,,,,,,,,,,,,,,,,,,,,,,,,,,,,
,,613a9b39928d81d5ce5a3f7c,001,2023-12-14_24h16.34.785,bars,2023.2.3,Win32,40.00320026,,,,,,,,,,,,,,,,,,,,,,,,,,,,,,,,,,,,,206.5902,207.4839,right,0.864,,207.484,9,2,208.4832,0,15,15,15,1,4,8,3,9,,,,,,,,,,,,,,,,,,,,,,,,,,,,,,,,,,,,,,,,,
,,613a9b39928d81d5ce5a3f7c,001,2023-12-14_24h16.34.785,bars,2023.2.3,Win32,40.00320026,,,,,,,,,,,,,,,,,,,,,,,,,,,,,,,,,,,,,208.484,209.5086,right,0.9838,,209.5087,7,2,210.5141,0,16,16,16,1,6,6,7,7,,,,,,,,,,,,,,,,,,,,,,,,,,,,,,,,,,,,,,,,,
,,613a9b39928d81d5ce5a3f7c,001,2023-12-14_24h16.34.785,bars,2023.2.3,Win32,40.00320026,,,,,,,,,,,,,,,,,,,,,,,,,,,,,,,,,,,,,210.515,211.4392,right,0.9,,211.4393,5,2,212.4337,0,17,17,17,1,8,4,9,5,,,,,,,,,,,,,,,,,,,,,,,,,,,,,,,,,,,,,,,,,
,,613a9b39928d81d5ce5a3f7c,001,2023-12-14_24h16.34.785,bars,2023.2.3,Win32,40.00320026,,,,,,,,,,,,,,,,,,,,,,,,,,,,,,,,,,,,,212.4345,212.9652,left,0.5016,,212.9653,5,1,213.9563,0,18,18,18,1,6,2,5,1,,,,,,,,,,,,,,,,,,,,,,,,,,,,,,,,,,,,,,,,,
,,613a9b39928d81d5ce5a3f7c,001,2023-12-14_24h16.34.785,bars,2023.2.3,Win32,40.00320026,,,,,,,,,,,,,,,,,,,,,,,,,,,,,,,,,,,,,213.9575,214.9325,left,0.9425,,214.9325,7,1,215.9312,0,19,19,19,1,8,0,7,0,,,,,,,,,,,,,,,,,,,,,,,,,,,,,,,,,,,,,,,,,
,,613a9b39928d81d5ce5a3f7c,001,2023-12-14_24h16.34.785,bars,2023.2.3,Win32,40.00320026,,,,,,,,,,,,,,,,,,,,,,,,,,,,,,,,,,,,,,,,,,,,,,,,,,,,,,,215.9328,228.9296,space,12.9577,,,,,,,,,,,,,,,,,,,,,,,,,,,,,,,,,,,,,
,,613a9b39928d81d5ce5a3f7c,001,2023-12-14_24h16.34.785,bars,2023.2.3,Win32,40.00320026,,,,,,230.7442,231.7275,,,232.2258,232.4769,,52,52,,,,,,,,,,,,,,,,bars/006.png,bars/mask006.png,,,,,,,,,,,,1,1,,,,,,,4,7,3,7,,,,,,228.9546,230.7282,space,1.7463,,231.728,232.2257,232.4774,236.8055,space,4.2835,,236.8061,17,48,237.8036,237.8042,247.079,space,9.236,,0,0,0,0,1,35,100,,,,,,,,
,,613a9b39928d81d5ce5a3f7c,001,2023-12-14_24h16.34.785,bars,2023.2.3,Win32,40.00320026,,,,,,247.104,248.0978,,,248.5979,248.8456,,48,48,,,,,,,,,,,,,,,,bars/026.png,bars/mask009.png,,,,,,,,,,,,4,1,,,,,,,6,5,7,5,,,,,,,,,,,248.098,248.5978,248.8458,253.9992,space,5.1199,,253.9992,13,37,254.9959,254.9961,264.2189,space,9.1738,,0,1,1,1,1,35,85,,,,,,,,
,,613a9b39928d81d5ce5a3f7c,001,2023-12-14_24h16.34.785,bars,2023.2.3,Win32,40.00320026,,,,,,264.2436,265.2432,,,265.7249,265.9749,,35,35,,,,,,,,,,,,,,,,bars/025.png,bars/mask000.png,,,,,,,,,,,,3,2,,,,,,,4,3,4,4,,,,,,,,,,,265.2434,265.7248,265.9749,269.8708,space,3.8514,,269.871,70,5,270.8667,270.8669,276.8952,space,5.9574,,0,2,2,2,1,105,40,,,,,,,,
,,613a9b39928d81d5ce5a3f7c,001,2023-12-14_24h16.34.785,bars,2023.2.3,Win32,40.00320026,,,,,,276.9183,277.9196,,,278.4157,278.6637,,44,44,,,,,,,,,,,,,,,,bars/022.png,bars/mask001.png,,,,,,,,,,,,1,2,,,,,,,2,5,2,5,,,,,,,,,,,277.9197,278.4156,278.6638,286.7411,space,8.0639,,286.7412,51,24,287.7419,287.7421,290.1931,space,2.413,,0,3,3,3,1,95,20,,,,,,,,
,,613a9b39928d81d5ce5a3f7c,001,2023-12-14_24h16.34.785,bars,2023.2.3,Win32,40.00320026,,,,,,290.1938,291.1914,,,291.6862,291.9356,,14,194,,,,,,,,,,,,,,,,bars/035.png,bars/mask006.png,,,,,,,,,,,,0,1,,,,,,,0,3,1,4,,,,,,,,,,,291.1915,291.6862,291.9358,297.8927,space,5.9249,,297.8929,19,46,298.8846,298.8847,301.8571,space,2.9129,,0,4,4,4,1,175,60,,,,,,,,
,,613a9b39928d81d5ce5a3f7c,001,2023-12-14_24h16.34.785,bars,2023.2.3,Win32,40.00320026,,,,,,301.8585,302.8574,,,303.3611,303.6089,,169,-11,,,,,,,,,,,,,,,,bars/014.png,bars/mask009.png,,,,,,,,,,,,1,2,,,,,,,0,5,0,2,,,,,,,,,,,302.8575,303.361,303.609,308.4808,space,4.848,,308.4809,89,11,309.4858,309.4859,314.0543,space,4.5061,,0,5,5,5,1,80,0,,,,,,,,
,,613a9b39928d81d5ce5a3f7c,001,2023-12-14_24h16.34.785,bars,2023.2.3,Win32,40.00320026,,,,,,314.0782,315.0778,,,315.5574,315.805,,179,-1,,,,,,,,,,,,,,,,bars/037.png,bars/mask002.png,,,,,,,,,,,,0,1,,,,,,,2,7,3,6,,,,,,,,,,,315.0779,315.5573,315.8051,320.2556,space,4.4275,,320.2557,29,74,321.2553,321.2554,325.031,space,3.7124,,0,6,6,6,1,150,105,,,,,,,,
,,613a9b39928d81d5ce5a3f7c,001,2023-12-14_24h16.34.785,bars,2023.2.3,Win32,40.00320026,,,,,,325.0544,326.0313,,,326.5296,326.7776,,100,100,,,,,,,,,,,,,,,,bars/031.png,bars/mask007.png,,,,,,,,,,,,0,1,,,,,,,0,9,0,9,,,,,,,,,,,326.0315,326.5295,326.7776,333.7793,space,6.9813,,333.7795,20,65,334.7786,334.7787,338.3494,space,3.5436,,0,7,7,7,1,120,35,,,,,,,,
,,613a9b39928d81d5ce5a3f7c,001,2023-12-14_24h16.34.785,bars,2023.2.3,Win32,40.00320026,,,,,,338.3729,339.3712,,,339.8511,340.0988,,119,-61,,,,,,,,,,,,,,,,bars/002.png,bars/mask009.png,,,,,,,,,,,,0,1,,,,,,,0,10,0,10,,,,,,,,,,,339.3714,339.851,340.0989,347.0018,space,6.8776,,347.002,11,34,347.9958,347.996,350.4536,space,2.4168,,0,8,8,8,1,130,85,,,,,,,,
,,613a9b39928d81d5ce5a3f7c,001,2023-12-14_24h16.34.785,bars,2023.2.3,Win32,40.00320026,,,,,,350.4784,351.4767,,,351.9692,352.2204,,131,131,,,,,,,,,,,,,,,,bars/017.png,bars/mask007.png,,,,,,,,,,,,1,1,,,,,,,2,10,2,10,,,,,,,,,,,351.4767,351.9691,352.2204,357.1509,space,4.899,,357.1509,14,86,358.1453,358.1453,361.7675,space,3.5706,,0,9,9,9,1,145,45,,,,,,,,
,,613a9b39928d81d5ce5a3f7c,001,2023-12-14_24h16.34.785,bars,2023.2.3,Win32,40.00320026,,,,,,361.792,362.7925,,,363.2927,363.5187,,156,-24,,,,,,,,,,,,,,,,bars/012.png,bars/mask008.png,,,,,,,,,,,,0,2,,,,,,,4,10,4,10,,,,,,,,,,,362.7926,363.2926,363.5188,368.092,space,4.5406,,368.092,66,39,369.0893,369.0894,371.4982,space,2.3668,,0,10,10,10,1,90,15,,,,,,,,
,,613a9b39928d81d5ce5a3f7c,001,2023-12-14_24h16.34.785,bars,2023.2.3,Win32,40.00320026,,,,,,371.499,372.4898,,,372.9964,373.2472,,14,14,,,,,,,,,,,,,,,,bars/001.png,bars/mask004.png,,,,,,,,,,,,0,1,,,,,,,2,10,0,10,,,,,,,,,,,372.4899,372.9963,373.2472,378.3662,space,5.0946,,378.3662,64,71,379.3694,379.3694,385.1595,space,5.7398,,0,11,11,11,1,130,85,,,,,,,,
,,613a9b39928d81d5ce5a3f7c,001,2023-12-14_24h16.34.785,bars,2023.2.3,Win32,40.00320026,,,,,,385.1846,386.1905,,,386.6635,386.9115,,91,91,,,,,,,,,,,,,,,,bars/004.png,bars/mask003.png,,,,,,,,,,,,0,2,,,,,,,4,10,4,10,,,,,,,,,,,386.1905,386.6635,386.9117,394.3858,space,7.4541,,394.3858,66,34,395.3849,395.385,398.0573,space,2.6091,,0,12,12,12,1,25,125,,,,,,,,
,,613a9b39928d81d5ce5a3f7c,001,2023-12-14_24h16.34.785,bars,2023.2.3,Win32,40.00320026,,,,,,398.0582,399.0566,,,399.5562,399.8116,,128,128,,,,,,,,,,,,,,,,bars/004.png,bars/mask002.png,,,,,,,,,,,,6,2,,,,,,,6,8,5,7,,,,,,,,,,,399.0566,399.5561,399.8117,405.9058,space,6.0675,,405.9059,77,3,406.9052,406.9053,407.0103,space,0.0719,,0,13,13,13,1,25,125,,,,,,,,
,,613a9b39928d81d5ce5a3f7c,001,2023-12-14_24h16.34.785,bars,2023.2.3,Win32,40.00320026,,,,,,407.0109,408.0088,,,408.5053,408.7534,,121,121,,,,,,,,,,,,,,,,bars/047.png,bars/mask009.png,,,,,,,,,,,,0,2,,,,,,,4,10,4,10,,,,,,,,,,,408.0089,408.5052,408.7535,417.4772,space,8.7003,,417.4773,74,51,418.4763,418.4764,418.8042,space,0.2801,,0,14,14,14,1,15,70,,,,,,,,
,,613a9b39928d81d5ce5a3f7c,001,2023-12-14_24h16.34.785,bars,2023.2.3,Win32,40.00320026,,,,,,418.8052,419.8058,,,420.302,420.5499,,63,63,,,,,,,,,,,,,,,,bars/005.png,bars/mask003.png,,,,,,,,,,,,0,1,,,,,,,2,10,2,10,,,,,,,,,,,419.8059,420.3018,420.5501,426.1793,space,5.602,,426.1794,53,77,427.1786,427.1787,431.2222,space,3.9897,,0,15,15,15,1,10,140,,,,,,,,
,,613a9b39928d81d5ce5a3f7c,001,2023-12-14_24h16.34.785,bars,2023.2.3,Win32,40.00320026,,,,,,431.2456,432.2533,,,432.7255,432.9733,,10,10,,,,,,,,,,,,,,,,bars/041.png,bars/mask008.png,,,,,,,,,,,,3,1,,,,,,,4,10,5,8,,,,,,,,,,,432.2534,432.7254,432.9734,436.6228,space,3.6221,,436.6231,10,75,437.6221,437.6222,437.7026,space,0.0224,,0,16,16,16,1,20,85,,,,,,,,
,,613a9b39928d81d5ce5a3f7c,001,2023-12-14_24h16.34.785,bars,2023.2.3,Win32,40.00320026,,,,,,437.7036,438.702,,,439.1994,439.4471,,14,14,,,,,,,,,,,,,,,,bars/011.png,bars/mask005.png,,,,,,,,,,,,0,1,,,,,,,6,10,9,9,,,,,,,,,,,438.7021,439.1993,439.4472,445.9473,space,6.4858,,445.9474,34,71,446.9477,446.9478,499.2338,space,52.2462,,0,17,17,17,1,160,85,,,,,,,,
,,613a9b39928d81d5ce5a3f7c,001,2023-12-14_24h16.34.785,bars,2023.2.3,Win32,40.00320026,,,,,,499.2599,500.2571,,,500.7535,500.9854,,81,81,,,,,,,,,,,,,,,,bars/001.png,bars/mask000.png,,,,,,,,,,,,8,2,,,,,,,8,8,7,9,,,,,,,,,,,500.2571,500.7534,500.9855,509.6339,space,8.6173,,509.634,49,4,510.6334,510.6334,515.7018,space,5.0053,,0,18,18,18,1,130,85,,,,,,,,
,,613a9b39928d81d5ce5a3f7c,001,2023-12-14_24h16.34.785,bars,2023.2.3,Win32,40.00320026,,,,,,515.7258,516.7257,,,517.2058,517.4535,,78,78,,,,,,,,,,,,,,,,bars/032.png,bars/mask008.png,,,,,,,,,,,,0,1,,,,,,,6,10,7,9,,,,,,,,,,,516.7258,517.2057,517.4536,521.3497,space,3.872,,521.3499,47,58,522.3497,522.3498,523.8239,space,1.4048,,0,19,19,19,1,125,20,,,,,,,,
,,613a9b39928d81d5ce5a3f7c,001,2023-12-14_24h16.34.785,bars,2023.2.3,Win32,40.00320026,,,,,,523.8246,524.8229,,,525.3265,525.5756,,74,74,,,,,,,,,,,,,,,,bars/010.png,bars/mask008.png,,,,,,,,,,,,3,2,,,,,,,4,8,4,9,,,,,,,,,,,524.8231,525.3264,525.5757,529.222,space,3.628,,529.2222,89,19,530.2214,530.2216,532.9556,space,2.691,,0,20,20,20,1,165,55,,,,,,,,
,,613a9b39928d81d5ce5a3f7c,001,2023-12-14_24h16.34.785,bars,2023.2.3,Win32,40.00320026,,,,,,532.9793,533.9735,,,534.4751,534.7275,,74,74,,,,,,,,,,,,,,,,bars/047.png,bars/mask000.png,,,,,,,,,,,,9,2,,,,,,,2,10,3,10,,,,,,,,,,,533.9737,534.4751,534.7276,538.5539,space,3.8,,538.554,59,4,539.5473,539.5474,542.6703,space,3.0813,,0,21,21,21,1,15,70,,,,,,,,
,,613a9b39928d81d5ce5a3f7c,001,2023-12-14_24h16.34.785,bars,2023.2.3,Win32,40.00320026,,,,,,542.6712,543.6696,,,544.1716,544.4196,,153,153,,,,,,,,,,,,,,,,bars/047.png,bars/mask006.png,,,,,,,,,,,,0,1,,,,,,,4,10,4,9,,,,,,,,,,,543.6697,544.1715,544.4196,544.6198,space,0.1553,,544.6199,42,83,545.6192,545.6193,547.6772,space,2.0235,,0,22,22,22,1,15,70,,,,,,,,
,,613a9b39928d81d5ce5a3f7c,001,2023-12-14_24h16.34.785,bars,2023.2.3,Win32,40.00320026,,,,,,547.6779,548.6682,,,549.1683,549.4248,,148,148,,,,,,,,,,,,,,,,bars/034.png,bars/mask007.png,,,,,,,,,,,,1,1,,,,,,,6,8,5,8,,,,,,,,,,,548.6683,549.1682,549.4249,555.4497,space,5.9998,,555.4498,23,83,556.4415,556.4416,557.8413,space,1.3521,,0,23,23,23,1,125,65,,,,,,,,
,,613a9b39928d81d5ce5a3f7c,001,2023-12-14_24h16.34.785,bars,2023.2.3,Win32,40.00320026,,,,,,557.8421,558.8408,,,559.3408,559.5723,,141,-39,,,,,,,,,,,,,,,,bars/008.png,bars/mask006.png,,,,,,,,,,,,0,1,,,,,,,4,10,2,10,,,,,,,,,,,558.8408,559.3407,559.5724,564.7716,space,5.1746,,564.7716,31,39,565.7629,565.7631,567.4663,space,1.6631,,0,24,24,24,1,110,0,,,,,,,,
,,613a9b39928d81d5ce5a3f7c,001,2023-12-14_24h16.34.785,bars,2023.2.3,Win32,40.00320026,,,,,,567.4671,568.4696,,,568.963,569.213,,140,140,,,,,,,,,,,,,,,,bars/033.png,bars/mask004.png,,,,,,,,,,,,5,2,,,,,,,2,8,2,9,,,,,,,,,,,568.4697,568.963,569.213,574.5196,space,5.2752,,574.5197,65,15,575.5101,575.5103,575.6117,space,0.0453,,0,25,25,25,1,25,155,,,,,,,,
,,613a9b39928d81d5ce5a3f7c,001,2023-12-14_24h16.34.785,bars,2023.2.3,Win32,40.00320026,,,,,,575.6127,576.6109,,,577.111,577.361,,111,111,,,,,,,,,,,,,,,,bars/021.png,bars/mask008.png,,,,,,,,,,,,0,2,,,,,,,4,10,4,10,,,,,,,,,,,576.611,577.111,577.3611,581.6917,space,4.2993,,581.6918,44,41,582.6843,582.6844,585.034,space,2.3049,,0,26,26,26,1,155,70,,,,,,,,
,,613a9b39928d81d5ce5a3f7c,001,2023-12-14_24h16.34.785,bars,2023.2.3,Win32,40.00320026,,,,,,585.035,586.0309,,,586.5149,586.7584,,103,103,,,,,,,,,,,,,,,,bars/043.png,bars/mask008.png,,,,,,,,,,,,1,2,,,,,,,6,8,5,7,,,,,,,,,,,586.0309,586.5148,586.7586,592.1347,space,5.3449,,592.1348,73,27,593.1318,593.132,595.0568,space,1.8713,,0,27,27,27,1,30,130,,,,,,,,
,,613a9b39928d81d5ce5a3f7c,001,2023-12-14_24h16.34.785,bars,2023.2.3,Win32,40.00320026,,,,,,595.0575,596.0559,,,596.5557,596.8057,,92,92,,,,,,,,,,,,,,,,bars/025.png,bars/mask002.png,,,,,,,,,,,,4,1,,,,,,,8,10,7,10,,,,,,,,,,,596.0559,596.5556,596.8058,599.6876,space,2.8502,,599.6877,13,52,600.6798,600.6799,603.9841,space,3.2395,,0,28,28,28,1,105,40,,,,,,,,
,,613a9b39928d81d5ce5a3f7c,001,2023-12-14_24h16.34.785,bars,2023.2.3,Win32,40.00320026,,,,,,603.9851,604.976,,,605.4797,605.7278,,87,87,,,,,,,,,,,,,,,,bars/023.png,bars/mask005.png,,,,,,,,,,,,0,2,,,,,,,10,8,10,7,,,,,,,,,,,604.9761,605.4795,605.7279,612.9313,space,7.1733,,612.9315,67,28,613.9307,613.9308,615.555,space,1.5697,,0,29,29,29,1,20,115,,,,,,,,
,,613a9b39928d81d5ce5a3f7c,001,2023-12-14_24h16.34.785,bars,2023.2.3,Win32,40.00320026,,,,,,615.5562,616.5544,,,617.0505,617.299,,87,87,,,,,,,,,,,,,,,,bars/041.png,bars/mask002.png,,,,,,,,,,,,7,2,,,,,,,8,6,8,7,,,,,,,,,,,616.5545,617.0503,617.299,627.1762,space,9.8598,,627.1763,67,2,628.1757,628.1757,630.7725,space,2.5462,,0,30,30,30,1,20,85,,,,,,,,
,,613a9b39928d81d5ce5a3f7c,001,2023-12-14_24h16.34.785,bars,2023.2.3,Win32,40.00320026,,,,,,630.774,631.7715,,,632.2753,632.5235,,80,80,,,,,,,,,,,,,,,,bars/019.png,bars/mask007.png,,,,,,,,,,,,1,2,,,,,,,10,4,10,5,,,,,,,,,,,631.7715,632.2751,632.5236,638.5684,space,6.0266,,638.5685,35,25,639.568,639.5681,640.5692,space,0.9638,,0,31,31,31,1,45,105,,,,,,,,
,,613a9b39928d81d5ce5a3f7c,001,2023-12-14_24h16.34.785,bars,2023.2.3,Win32,40.00320026,,,,,,640.5702,641.5675,,,642.0715,642.3197,,75,75,,,,,,,,,,,,,,,,bars/009.png,bars/mask003.png,,,,,,,,,,,,0,2,,,,,,,10,2,10,2,,,,,,,,,,,641.5676,642.0714,642.3198,649.9463,space,7.6054,,649.9465,60,30,650.9459,650.9459,652.6739,space,1.6901,,0,32,32,32,1,15,105,,,,,,,,
,,613a9b39928d81d5ce5a3f7c,001,2023-12-14_24h16.34.785,bars,2023.2.3,Win32,40.00320026,,,,,,652.6746,653.6663,,,654.1663,654.4168,,168,168,,,,,,,,,,,,,,,,bars/005.png,bars/mask004.png,,,,,,,,,,,,3,1,,,,,,,10,4,10,6,,,,,,,,,,,653.6664,654.1661,654.417,654.5444,space,0.097,,654.5445,22,28,655.5401,655.5402,656.4652,space,0.8661,,0,33,33,33,1,10,140,,,,,,,,
,,613a9b39928d81d5ce5a3f7c,001,2023-12-14_24h16.34.785,bars,2023.2.3,Win32,40.00320026,,,,,,656.4661,657.4648,,,657.9645,658.2146,,129,129,,,,,,,,,,,,,,,,bars/011.png,bars/mask009.png,,,,,,,,,,,,0,1,,,,,,,8,6,6,7,,,,,,,,,,,657.4648,657.9645,658.2146,658.7976,space,0.5516,,658.7977,31,44,659.7889,659.7891,659.9211,space,0.0978,,0,34,34,34,1,160,85,,,,,,,,
,,613a9b39928d81d5ce5a3f7c,001,2023-12-14_24h16.34.785,bars,2023.2.3,Win32,40.00320026,,,,,,659.9217,660.9204,,,661.4137,661.6702,,134,134,,,,,,,,,,,,,,,,bars/021.png,bars/mask001.png,,,,,,,,,,,,2,1,,,,,,,6,8,7,7,,,,,,,,,,,660.9205,661.4136,661.6704,662.7385,space,1.0276,,662.7386,21,64,663.7379,663.738,666.2968,space,2.5249,,0,35,35,35,1,155,70,,,,,,,,
,,613a9b39928d81d5ce5a3f7c,001,2023-12-14_24h16.34.785,bars,2023.2.3,Win32,40.00320026,,,,,,666.2976,667.2869,,,667.7949,668.0383,,42,42,,,,,,,,,,,,,,,,bars/004.png,bars/mask006.png,,,,,,,,,,,,4,1,,,,,,,8,10,9,10,,,,,,,,,,,667.287,667.7948,668.0384,668.912,space,0.8351,,668.9122,17,83,669.9113,669.9114,671.7405,space,1.7954,,0,36,36,36,1,25,125,,,,,,,,
,,613a9b39928d81d5ce5a3f7c,001,2023-12-14_24h16.34.785,bars,2023.2.3,Win32,40.00320026,,,,,,671.741,672.7356,,,673.2421,673.4854,,57,57,,,,,,,,,,,,,,,,bars/002.png,bars/mask001.png,,,,,,,,,,,,1,2,,,,,,,10,8,10,8,,,,,,,,,,,672.7356,673.2421,673.4855,679.1418,space,5.6249,,679.1418,73,28,680.1338,680.1339,682.6107,space,2.4216,,0,37,37,37,1,130,85,,,,,,,,
,,613a9b39928d81d5ce5a3f7c,001,2023-12-14_24h16.34.785,bars,2023.2.3,Win32,40.00320026,,,,,,682.6117,683.6114,,,684.1094,684.3594,,60,60,,,,,,,,,,,,,,,,bars/005.png,bars/mask003.png,,,,,,,,,,,,0,1,,,,,,,8,10,9,10,,,,,,,,,,,683.6115,684.1093,684.3596,688.9315,space,4.5572,,688.9317,50,80,689.9311,689.9311,691.3637,space,1.3901,,0,38,38,38,1,10,140,,,,,,,,
,,613a9b39928d81d5ce5a3f7c,001,2023-12-14_24h16.34.785,bars,2023.2.3,Win32,40.00320026,,,,,,691.3644,692.3555,,,692.8638,693.1044,,10,10,,,,,,,,,,,,,,,,bars/018.png,bars/mask007.png,,,,,,,,,,,,0,1,,,,,,,6,8,5,9,,,,,,,,,,,692.3557,692.8637,693.1048,694.313,space,1.1761,,694.313,40,80,695.3045,695.3047,695.8376,space,0.4992,,0,39,39,39,1,150,90,,,,,,,,
,,613a9b39928d81d5ce5a3f7c,001,2023-12-14_24h16.34.785,bars,2023.2.3,Win32,40.00320026,,,,,,695.8382,696.8292,,,697.311,697.5603,,103,103,,,,,,,,,,,,,,,,bars/040.png,bars/mask000.png,,,,,,,,,,,,0,1,,,,,,,4,6,4,6,,,,,,,,,,,696.8293,697.3109,697.5604,698.4542,space,0.8625,,698.4543,37,82,699.4534,699.4535,699.6364,space,0.1461,,0,40,40,40,1,140,5,,,,,,,,
,,613a9b39928d81d5ce5a3f7c,001,2023-12-14_24h16.34.785,bars,2023.2.3,Win32,40.00320026,,,,,,699.6375,700.6282,,,701.1296,701.3847,,32,32,,,,,,,,,,,,,,,,bars/026.png,bars/mask005.png,,,,,,,,,,,,2,1,,,,,,,2,8,2,8,,,,,,,,,,,700.6282,701.1295,701.3848,708.4096,space,6.9996,,708.4097,3,53,709.4025,709.4026,711.8087,space,2.3688,,0,41,41,41,1,35,85,,,,,,,,
,,613a9b39928d81d5ce5a3f7c,001,2023-12-14_24h16.34.785,bars,2023.2.3,Win32,40.00320026,,,,,,711.8321,712.8319,,,713.3318,713.5818,,71,71,,,,,,,,,,,,,,,,bars/045.png,bars/mask002.png,,,,,,,,,,,,0,1,,,,,,,4,10,2,10,,,,,,,,,,,712.8319,713.3318,713.5819,725.8548,space,12.2482,,725.8549,29,61,726.8463,726.8464,779.8654,space,52.9809,,0,42,42,42,1,100,10,,,,,,,,
,,613a9b39928d81d5ce5a3f7c,001,2023-12-14_24h16.34.785,bars,2023.2.3,Win32,40.00320026,,,,,,779.8909,780.8794,,,781.382,781.6334,,116,116,,,,,,,,,,,,,,,,bars/025.png,bars/mask006.png,,,,,,,,,,,,4,1,,,,,,,6,8,6,8,,,,,,,,,,,780.8796,781.3818,781.6335,806.1781,space,24.5146,,806.1783,11,76,807.175,807.1752,815.9483,space,8.732,,0,43,43,43,1,105,40,,,,,,,,
,,613a9b39928d81d5ce5a3f7c,001,2023-12-14_24h16.34.785,bars,2023.2.3,Win32,40.00320026,,,,,,815.9742,816.9736,,,817.4788,817.724,,0,180,,,,,,,,,,,,,,,,bars/002.png,bars/mask002.png,,,,,,,,,,,,0,1,,,,,,,4,10,5,10,,,,,,,,,,,816.9736,817.4788,817.7241,830.6767,space,12.9226,,830.6768,50,85,831.6686,831.6686,838.6921,space,6.9784,,0,44,44,44,1,130,85,,,,,,,,
,,613a9b39928d81d5ce5a3f7c,001,2023-12-14_24h16.34.785,bars,2023.2.3,Win32,40.00320026,,,,,,838.7162,839.7165,,,840.1981,840.4471,,113,113,,,,,,,,,,,,,,,,bars/031.png,bars/mask008.png,,,,,,,,,,,,2,1,,,,,,,2,8,2,8,,,,,,,,,,,839.7166,840.198,840.4472,847.1198,space,6.6468,,847.1199,7,78,848.1142,848.1143,852.1135,space,3.9456,,0,45,45,45,1,120,35,,,,,,,,
,,613a9b39928d81d5ce5a3f7c,001,2023-12-14_24h16.34.785,bars,2023.2.3,Win32,40.00320026,,,,,,852.1379,853.1381,,,853.6379,853.8692,,66,246,,,,,,,,,,,,,,,,bars/040.png,bars/mask002.png,,,,,,,,,,,,0,2,,,,,,,0,10,0,10,,,,,,,,,,,853.1382,853.6378,853.8692,861.7938,space,7.8993,,861.7938,74,61,862.7853,862.7854,867.7646,space,4.9108,,0,46,46,46,1,140,5,,,,,,,,
,,613a9b39928d81d5ce5a3f7c,001,2023-12-14_24h16.34.785,bars,2023.2.3,Win32,40.00320026,,,,,,867.7882,868.7876,,,869.2836,869.5321,,6,6,,,,,,,,,,,,,,,,bars/031.png,bars/mask008.png,,,,,,,,,,,,0,2,,,,,,,0,8,0,7,,,,,,,,,,,868.7877,869.2835,869.5321,873.0843,space,3.5371,,873.0845,66,29,874.08,874.0801,877.8582,space,3.7399,,0,47,47,47,1,120,35,,,,,,,,
,,613a9b39928d81d5ce5a3f7c,001,2023-12-14_24h16.34.785,bars,2023.2.3,Win32,40.00320026,,,,,,877.8819,878.8813,,,879.3857,879.6094,,35,35,,,,,,,,,,,,,,,,bars/031.png,bars/mask008.png,,,,,,,,,,,,10,2,,,,,,,0,10,0,10,,,,,,,,,,,878.8814,879.3857,879.6095,883.7588,space,4.1256,,883.759,85,0,884.7581,884.7583,888.879,space,4.079,,0,48,48,48,1,120,35,,,,,,,,
,,613a9b39928d81d5ce5a3f7c,001,2023-12-14_24h16.34.785,bars,2023.2.3,Win32,40.00320026,,,,,,888.9035,889.9098,,,890.4033,890.6295,,40,40,,,,,,,,,,,,,,,,bars/004.png,bars/mask006.png,,,,,,,,,,,,1,1,,,,,,,2,8,2,10,,,,,,,,,,,889.9099,890.4032,890.6296,895.1335,space,4.4742,,895.1336,15,85,896.1264,896.1266,898.3294,space,2.1362,,0,49,49,49,1,25,125,,,,,,,,
,,613a9b39928d81d5ce5a3f7c,001,2023-12-14_24h16.34.785,bars,2023.2.3,Win32,40.00320026,,,,,,,,,,,,,,,,,,,,,,,,,,,,,,,,,,,,,,,,,,,,,,,,,,,,,,,,,,,,,,,,,,,,,,,,,,,,,,,,,,,,,,,,898.3315,958.3151,0,0,0,2,1,sequence_tables/blk037.csv
,,613a9b39928d81d5ce5a3f7c,001,2023-12-14_24h16.34.785,bars,2023.2.3,Win32,40.00320026,,,,,,961.7992,962.785,,,963.2818,963.5372,,2,2,,,,,,,,,,,,,,,,bars/024.png,bars/mask003.png,,,,,,,,,,,,2,2,,,,,,,1,3,2,3,,,,,,958.3388,961.7854,space,3.4366,,962.785,963.2816,963.5373,967.3579,space,3.8031,,967.3582,62,12,968.3574,968.3575,968.384,,,,0,0,0,0,1,120,170,,,,,,,,
,,613a9b39928d81d5ce5a3f7c,001,2023-12-14_24h16.34.785,bars,2023.2.3,Win32,40.00320026,,,,,,968.3846,969.3814,,,969.8854,970.1334,,156,-24,,,,,,,,,,,,,,,,bars/047.png,bars/mask000.png,,,,,,,,,,,,0,1,,,,,,,3,5,4,6,,,,,,,,,,,969.3815,969.8853,970.1335,974.0798,space,3.9268,,974.08,39,86,975.0795,975.0797,975.1062,,,,0,1,1,1,1,15,70,,,,,,,,
,,613a9b39928d81d5ce5a3f7c,001,2023-12-14_24h16.34.785,bars,2023.2.3,Win32,40.00320026,,,,,,975.1067,976.103,,,976.607,976.8549,,35,35,,,,,,,,,,,,,,,,bars/046.png,bars/mask000.png,,,,,,,,,,,,0,2,,,,,,,1,3,2,3,,,,,,,,,,,976.1031,976.6069,976.855,979.1839,space,2.3021,,979.1841,60,50,980.1835,980.1835,980.1922,,,,0,2,2,2,1,155,85,,,,,,,,
,,613a9b39928d81d5ce5a3f7c,001,2023-12-14_24h16.34.785,bars,2023.2.3,Win32,40.00320026,,,,,,980.1926,981.1765,,,981.6805,981.9294,,142,142,,,,,,,,,,,,,,,,bars/032.png,bars/mask001.png,,,,,,,,,,,,0,1,,,,,,,0,1,1,1,,,,,,,,,,,981.1766,981.6805,981.9295,985.1294,space,3.1819,,985.1295,17,58,986.129,986.129,986.1584,,,,0,3,3,3,1,125,20,,,,,,,,
,,613a9b39928d81d5ce5a3f7c,001,2023-12-14_24h16.34.785,bars,2023.2.3,Win32,40.00320026,,,,,,986.1589,987.1528,,,987.6568,987.9048,,175,175,,,,,,,,,,,,,,,,bars/007.png,bars/mask002.png,,,,,,,,,,,,1,1,,,,,,,2,3,1,3,,,,,,,,,,,987.1529,987.6567,987.9048,989.7057,space,1.7864,,989.7057,0,60,990.6997,990.6998,990.7241,,,,0,4,4,4,1,175,55,,,,,,,,
,,613a9b39928d81d5ce5a3f7c,001,2023-12-14_24h16.34.785,bars,2023.2.3,Win32,40.00320026,,,,,,990.7248,991.7313,,,992.2274,992.4753,,154,154,,,,,,,,,,,,,,,,bars/001.png,bars/mask001.png,,,,,,,,,,,,1,1,,,,,,,4,1,3,1,,,,,,,,,,,991.7315,992.2273,992.4754,993.8276,space,1.3289,,993.8278,24,69,994.827,994.8271,994.8512,,,,0,5,5,5,1,130,85,,,,,,,,
,,613a9b39928d81d5ce5a3f7c,001,2023-12-14_24h16.34.785,bars,2023.2.3,Win32,40.00320026,,,,,,994.8518,995.8508,,,996.3553,996.6028,,14,194,,,,,,,,,,,,,,,,bars/038.png,bars/mask004.png,,,,,,,,,,,,0,1,,,,,,,6,3,5,2,,,,,,,,,,,995.8509,996.355,996.6029,998.7742,space,2.1546,,998.7743,29,56,999.7735,999.7736,999.7979,,,,0,6,6,6,1,165,70,,,,,,,,
,,613a9b39928d81d5ce5a3f7c,001,2023-12-14_24h16.34.785,bars,2023.2.3,Win32,40.00320026,,,,,,999.7983,1000.7977,,,1001.3015,1001.5494,,64,64,,,,,,,,,,,,,,,,bars/048.png,bars/mask007.png,,,,,,,,,,,,3,1,,,,,,,4,5,5,4,,,,,,,,,,,1000.7979,1001.3014,1001.5495,1003.6738,space,2.1126,,1003.6738,14,69,1004.6725,1004.6727,1004.6988,,,,0,7,7,7,1,50,175,,,,,,,,
,,613a9b39928d81d5ce5a3f7c,001,2023-12-14_24h16.34.785,bars,2023.2.3,Win32,40.00320026,,,,,,1004.6992,1005.6966,,,1006.2024,1006.45,,26,26,,,,,,,,,,,,,,,,bars/031.png,bars/mask004.png,,,,,,,,,,,,6,2,,,,,,,6,7,7,8,,,,,,,,,,,1005.6967,1006.2023,1006.4501,1008.6472,space,2.1791,,1008.6474,86,9,1009.6479,1009.648,1009.6737,,,,0,8,8,8,1,120,35,,,,,,,,
,,613a9b39928d81d5ce5a3f7c,001,2023-12-14_24h16.34.785,bars,2023.2.3,Win32,40.00320026,,,,,,1009.6742,1010.6719,,,1011.176,1011.4239,,89,89,,,,,,,,,,,,,,,,bars/026.png,bars/mask003.png,,,,,,,,,,,,7,2,,,,,,,4,9,5,8,,,,,,,,,,,1010.672,1011.1759,1011.424,1013.9461,space,2.4997,,1013.9463,54,4,1014.9498,1014.9498,1014.9739,,,,0,9,9,9,1,35,85,,,,,,,,
,,613a9b39928d81d5ce5a3f7c,001,2023-12-14_24h16.34.785,bars,2023.2.3,Win32,40.00320026,,,,,,1014.9744,1015.9676,,,1016.4717,1016.7198,,155,-25,,,,,,,,,,,,,,,,bars/042.png,bars/mask006.png,,,,,,,,,,,,4,1,,,,,,,6,10,6,10,,,,,,,,,,,1015.9677,1016.4715,1016.7199,1021.3676,space,4.6339,,1021.3678,10,80,1022.3667,1022.3668,1022.3803,,,,0,10,10,10,1,145,75,,,,,,,,
,,613a9b39928d81d5ce5a3f7c,001,2023-12-14_24h16.34.785,bars,2023.2.3,Win32,40.00320026,,,,,,1022.3806,1023.3671,,,1023.8708,1024.1187,,128,128,,,,,,,,,,,,,,,,bars/040.png,bars/mask007.png,,,,,,,,,,,,5,1,,,,,,,8,8,9,9,,,,,,,,,,,1023.3672,1023.8708,1024.1188,1025.8151,space,1.6755,,1025.8152,12,57,1026.8144,1026.8145,1026.8384,,,,0,11,11,11,1,140,5,,,,,,,,
,,613a9b39928d81d5ce5a3f7c,001,2023-12-14_24h16.34.785,bars,2023.2.3,Win32,40.00320026,,,,,,1026.839,1027.8393,,,1028.3432,1028.5914,,90,90,,,,,,,,,,,,,,,,bars/029.png,bars/mask004.png,,,,,,,,,,,,5,1,,,,,,,6,6,5,8,,,,,,,,,,,1027.8394,1028.3431,1028.5915,1032.99,space,4.3783,,1032.9901,0,45,1033.9893,1033.9894,1034.0142,,,,0,12,12,12,1,90,45,,,,,,,,
,,613a9b39928d81d5ce5a3f7c,001,2023-12-14_24h16.34.785,bars,2023.2.3,Win32,40.00320026,,,,,,1034.0148,1035.0135,,,1035.517,1035.765,,109,109,,,,,,,,,,,,,,,,bars/045.png,bars/mask001.png,,,,,,,,,,,,3,1,,,,,,,4,4,4,5,,,,,,,,,,,1035.0135,1035.5168,1035.765,1038.0883,space,2.2968,,1038.0884,9,81,1039.0877,1039.0879,1039.1122,,,,0,13,13,13,1,100,10,,,,,,,,
,,613a9b39928d81d5ce5a3f7c,001,2023-12-14_24h16.34.785,bars,2023.2.3,Win32,40.00320026,,,,,,1039.1129,1040.1118,,,1040.6156,1040.8638,,40,40,,,,,,,,,,,,,,,,bars/028.png,bars/mask008.png,,,,,,,,,,,,5,1,,,,,,,6,6,6,7,,,,,,,,,,,1040.112,1040.6155,1040.8638,1043.4665,space,2.58,,1043.4666,5,80,1044.466,1044.466,1044.4676,,,,0,14,14,14,1,45,120,,,,,,,,
,,613a9b39928d81d5ce5a3f7c,001,2023-12-14_24h16.34.785,bars,2023.2.3,Win32,40.00320026,,,,,,1044.4683,1045.4659,,,1045.9619,1046.2105,,39,39,,,,,,,,,,,,,,,,bars/047.png,bars/mask008.png,,,,,,,,,,,,2,1,,,,,,,8,4,8,3,,,,,,,,,,,1045.4659,1045.9619,1046.2106,1047.1623,space,0.9248,,1047.1625,24,31,1048.1615,1048.1615,1048.1632,,,,0,15,15,15,1,15,70,,,,,,,,
,,613a9b39928d81d5ce5a3f7c,001,2023-12-14_24h16.34.785,bars,2023.2.3,Win32,40.00320026,,,,,,1048.1638,1049.1614,,,1049.6653,1049.9134,,71,71,,,,,,,,,,,,,,,,bars/010.png,bars/mask006.png,,,,,,,,,,,,2,2,,,,,,,10,6,10,4,,,,,,,,,,,1049.1615,1049.6653,1049.9135,1050.4655,space,0.5215,,1050.4656,86,16,1051.465,1051.4651,1051.4738,,,,0,16,16,16,1,165,55,,,,,,,,
,,613a9b39928d81d5ce5a3f7c,001,2023-12-14_24h16.34.785,bars,2023.2.3,Win32,40.00320026,,,,,,1051.4742,1052.4649,,,1052.9613,1053.209,,92,92,,,,,,,,,,,,,,,,bars/027.png,bars/mask004.png,,,,,,,,,,,,4,1,,,,,,,10,4,10,5,,,,,,,,,,,1052.465,1052.9612,1053.2091,1054.4889,space,1.2569,,1054.4891,18,42,1055.4885,1055.4886,1055.4947,,,,0,17,17,17,1,110,50,,,,,,,,
,,613a9b39928d81d5ce5a3f7c,001,2023-12-14_24h16.34.785,bars,2023.2.3,Win32,40.00320026,,,,,,1055.4953,1056.4816,,,1056.9856,1057.2334,,91,91,,,,,,,,,,,,,,,,bars/002.png,bars/mask008.png,,,,,,,,,,,,6,2,,,,,,,10,6,9,8,,,,,,,,,,,1056.4817,1056.9855,1057.2334,1059.6096,space,2.354,,1059.6097,39,6,1060.6091,1060.6092,1060.6353,,,,0,18,18,18,1,130,85,,,,,,,,
,,613a9b39928d81d5ce5a3f7c,001,2023-12-14_24h16.34.785,bars,2023.2.3,Win32,40.00320026,,,,,,1060.6357,1061.6329,,,1062.137,1062.3849,,107,107,,,,,,,,,,,,,,,,bars/006.png,bars/mask009.png,,,,,,,,,,,,6,2,,,,,,,10,8,10,8,,,,,,,,,,,1061.633,1062.1369,1062.385,1063.7612,space,1.3516,,1063.7613,72,7,1064.7605,1064.7606,1064.7853,,,,0,19,19,19,1,35,100,,,,,,,,
,,613a9b39928d81d5ce5a3f7c,001,2023-12-14_24h16.34.785,bars,2023.2.3,Win32,40.00320026,,,,,,1064.7858,1065.7854,,,1066.2813,1066.5303,,42,42,,,,,,,,,,,,,,,,bars/022.png,bars/mask004.png,,,,,,,,,,,,2,2,,,,,,,10,6,10,6,,,,,,,,,,,1065.7854,1066.2813,1066.5304,1067.3301,space,0.7766,,1067.3304,53,22,1068.3299,1068.33,1068.3321,,,,0,20,20,20,1,95,20,,,,,,,,
,,613a9b39928d81d5ce5a3f7c,001,2023-12-14_24h16.34.785,bars,2023.2.3,Win32,40.00320026,,,,,,1068.3329,1069.3316,,,1069.8323,1070.0844,,73,73,,,,,,,,,,,,,,,,bars/014.png,bars/mask004.png,,,,,,,,,,,,5,1,,,,,,,8,4,7,7,,,,,,,,,,,1069.3316,1069.8322,1070.0844,1072.3055,space,2.2102,,1072.3056,7,73,1073.3056,1073.3057,1073.3324,,,,0,21,21,21,1,80,0,,,,,,,,
,,613a9b39928d81d5ce5a3f7c,001,2023-12-14_24h16.34.785,bars,2023.2.3,Win32,40.00320026,,,,,,1073.3329,1074.3295,,,1074.8335,1075.0813,,87,87,,,,,,,,,,,,,,,,bars/021.png,bars/mask001.png,,,,,,,,,,,,1,2,,,,,,,10,2,10,2,,,,,,,,,,,1074.3295,1074.8335,1075.0814,1078.1579,space,3.0598,,1078.1579,68,17,1079.1535,1079.1536,1079.1788,,,,0,22,22,22,1,155,70,,,,,,,,
,,613a9b39928d81d5ce5a3f7c,001,2023-12-14_24h16.34.785,bars,2023.2.3,Win32,40.00320026,,,,,,1079.1791,1080.1774,,,1080.676,1080.926,,113,113,,,,,,,,,,,,,,,,bars/039.png,bars/mask000.png,,,,,,,,,,,,0,2,,,,,,,10,0,9,0,,,,,,,,,,,1080.1774,1080.6758,1080.9262,1082.6576,space,1.7159,,1082.6577,62,8,1083.6494,1083.6496,1083.6527,,,,0,23,23,23,1,175,105,,,,,,,,
,,613a9b39928d81d5ce5a3f7c,001,2023-12-14_24h16.34.785,bars,2023.2.3,Win32,40.00320026,,,,,,1083.654,1084.6491,,,1085.1527,1085.4012,,69,69,,,,,,,,,,,,,,,,bars/019.png,bars/mask009.png,,,,,,,,,,,,2,1,,,,,,,8,2,8,2,,,,,,,,,,,1084.6492,1085.1526,1085.4013,1086.6816,space,1.2547,,1086.6817,24,36,1087.6732,1087.6734,1087.6797,,,,0,24,24,24,1,45,105,,,,,,,,
,,613a9b39928d81d5ce5a3f7c,001,2023-12-14_24h16.34.785,bars,2023.2.3,Win32,40.00320026,,,,,,1087.6803,1088.6755,,,1089.1771,1089.4262,,124,124,,,,,,,,,,,,,,,,bars/019.png,bars/mask007.png,,,,,,,,,,,,1,2,,,,,,,10,4,10,3,,,,,,,,,,,1088.6756,1089.1769,1089.4262,1090.0741,space,0.6254,,1090.0743,79,19,1091.0732,1091.0733,1091.0791,,,,0,25,25,25,1,45,105,,,,,,,,
,,613a9b39928d81d5ce5a3f7c,001,2023-12-14_24h16.34.785,bars,2023.2.3,Win32,40.00320026,,,,,,1091.0799,1092.0731,,,1092.5764,1092.8243,,95,95,,,,,,,,,,,,,,,,bars/018.png,bars/mask000.png,,,,,,,,,,,,5,2,,,,,,,8,6,8,6,,,,,,,,,,,1092.0732,1092.5763,1092.8243,1093.7287,space,0.8894,,1093.7288,55,5,1094.7281,1094.7283,1094.7527,,,,0,26,26,26,1,150,90,,,,,,,,
,,613a9b39928d81d5ce5a3f7c,001,2023-12-14_24h16.34.785,bars,2023.2.3,Win32,40.00320026,,,,,,1094.7531,1095.7519,,,1096.2493,1096.4975,,26,26,,,,,,,,,,,,,,,,bars/030.png,bars/mask000.png,,,,,,,,,,,,0,2,,,,,,,6,4,7,4,,,,,,,,,,,1095.752,1096.2493,1096.4976,1097.1771,space,0.6569,,1097.1774,66,39,1098.1768,1098.1769,1098.1786,,,,0,27,27,27,1,140,65,,,,,,,,
,,613a9b39928d81d5ce5a3f7c,001,2023-12-14_24h16.34.785,bars,2023.2.3,Win32,40.00320026,,,,,,1098.1792,1099.1766,,,1099.6727,1099.922,,118,118,,,,,,,,,,,,,,,,bars/015.png,bars/mask000.png,,,,,,,,,,,,5,1,,,,,,,8,6,7,7,,,,,,,,,,,1099.1767,1099.6726,1099.9221,1102.1206,space,2.1729,,1102.1207,8,42,1103.1207,1103.1208,1103.1483,,,,0,28,28,28,1,110,160,,,,,,,,
,,613a9b39928d81d5ce5a3f7c,001,2023-12-14_24h16.34.785,bars,2023.2.3,Win32,40.00320026,,,,,,1103.1488,1104.1442,,,1104.6482,1104.8963,,165,165,,,,,,,,,,,,,,,,bars/017.png,bars/mask008.png,,,,,,,,,,,,3,1,,,,,,,10,4,9,5,,,,,,,,,,,1104.1443,1104.6481,1104.8964,1107.0243,space,2.1048,,1107.0244,20,60,1108.0237,1108.0238,1108.0478,,,,0,29,29,29,1,145,45,,,,,,,,
,,613a9b39928d81d5ce5a3f7c,001,2023-12-14_24h16.34.785,bars,2023.2.3,Win32,40.00320026,,,,,,1108.0482,1109.0474,,,1109.5456,1109.7939,,78,78,,,,,,,,,,,,,,,,bars/005.png,bars/mask001.png,,,,,,,,,,,,0,2,,,,,,,8,2,8,0,,,,,,,,,,,1109.0475,1109.5456,1109.794,1110.7457,space,0.9281,,1110.7459,68,62,1111.7451,1111.7452,1111.75,,,,0,30,30,30,1,10,140,,,,,,,,
,,613a9b39928d81d5ce5a3f7c,001,2023-12-14_24h16.34.785,bars,2023.2.3,Win32,40.00320026,,,,,,1111.751,1112.745,,,1113.2493,1113.4972,,152,152,,,,,,,,,,,,,,,,bars/034.png,bars/mask004.png,,,,,,,,,,,,1,1,,,,,,,10,4,10,4,,,,,,,,,,,1112.7452,1113.2492,1113.4972,1114.2982,space,0.7827,,1114.2984,27,87,1115.2923,1115.2923,1115.2978,,,,0,31,31,31,1,125,65,,,,,,,,
,,613a9b39928d81d5ce5a3f7c,001,2023-12-14_24h16.34.785,bars,2023.2.3,Win32,40.00320026,,,,,,1115.2986,1116.2924,,,1116.7959,1117.0437,,124,124,,,,,,,,,,,,,,,,bars/003.png,bars/mask002.png,,,,,,,,,,,,1,2,,,,,,,8,2,7,2,,,,,,,,,,,1116.2925,1116.7959,1117.0439,1119.4978,space,2.4246,,1119.498,81,16,1120.4916,1120.4918,1120.5024,,,,0,32,32,32,1,25,140,,,,,,,,
,,613a9b39928d81d5ce5a3f7c,001,2023-12-14_24h16.34.785,bars,2023.2.3,Win32,40.00320026,,,,,,1120.5029,1121.4916,,,1121.9954,1122.2432,,70,70,,,,,,,,,,,,,,,,bars/030.png,bars/mask005.png,,,,,,,,,,,,1,2,,,,,,,10,0,10,1,,,,,,,,,,,1121.4916,1121.9954,1122.2433,1124.1406,space,1.8739,,1124.1408,70,5,1125.1398,1125.1398,1125.1638,,,,0,33,33,33,1,140,65,,,,,,,,
,,613a9b39928d81d5ce5a3f7c,001,2023-12-14_24h16.34.785,bars,2023.2.3,Win32,40.00320026,,,,,,1125.1646,1126.166,,,1126.6694,1126.9178,,83,83,,,,,,,,,,,,,,,,bars/016.png,bars/mask002.png,,,,,,,,,,,,0,1,,,,,,,10,0,10,1,,,,,,,,,,,1126.1662,1126.6694,1126.9179,1127.7175,space,0.7729,,1127.7177,43,82,1128.717,1128.7171,1128.7262,,,,0,34,34,34,1,40,165,,,,,,,,
,,613a9b39928d81d5ce5a3f7c,001,2023-12-14_24h16.34.785,bars,2023.2.3,Win32,40.00320026,,,,,,1128.7267,1129.7183,,,1130.2147,1130.4623,,117,117,,,,,,,,,,,,,,,,bars/001.png,bars/mask000.png,,,,,,,,,,,,5,1,,,,,,,8,2,8,2,,,,,,,,,,,1129.7184,1130.2146,1130.4623,1133.0623,space,2.5811,,1133.0625,13,32,1134.0612,1134.0613,1134.0859,,,,0,35,35,35,1,130,85,,,,,,,,
,,613a9b39928d81d5ce5a3f7c,001,2023-12-14_24h16.34.785,bars,2023.2.3,Win32,40.00320026,,,,,,1134.0865,1135.0934,,,1135.5895,1135.8375,,141,141,,,,,,,,,,,,,,,,bars/005.png,bars/mask002.png,,,,,,,,,,,,1,2,,,,,,,6,0,6,1,,,,,,,,,,,1135.0936,1135.5894,1135.8375,1136.6139,space,0.7532,,1136.6139,49,1,1137.6154,1137.6155,1137.6207,,,,0,36,36,36,1,10,140,,,,,,,,
,,613a9b39928d81d5ce5a3f7c,001,2023-12-14_24h16.34.785,bars,2023.2.3,Win32,40.00320026,,,,,,1137.6216,1138.6173,,,1139.1135,1139.3617,,0,180,,,,,,,,,,,,,,,,bars/036.png,bars/mask007.png,,,,,,,,,,,,1,2,,,,,,,8,2,9,2,,,,,,,,,,,1138.6174,1139.1133,1139.3617,1142.5862,space,3.2097,,1142.5863,35,20,1143.5856,1143.5858,1143.6107,,,,0,37,37,37,1,145,20,,,,,,,,
,,613a9b39928d81d5ce5a3f7c,001,2023-12-14_24h16.34.785,bars,2023.2.3,Win32,40.00320026,,,,,,1143.6112,1144.6098,,,1145.1135,1145.3616,,12,12,,,,,,,,,,,,,,,,bars/044.png,bars/mask005.png,,,,,,,,,,,,0,2,,,,,,,10,4,10,6,,,,,,,,,,,1144.6098,1145.1134,1145.3617,1147.0894,space,1.7074,,1147.0895,63,37,1148.0892,1148.0893,1148.091,,,,0,38,38,38,1,75,155,,,,,,,,
,,613a9b39928d81d5ce5a3f7c,001,2023-12-14_24h16.34.785,bars,2023.2.3,Win32,40.00320026,,,,,,1148.0919,1149.0889,,,1149.5851,1149.8338,,35,215,,,,,,,,,,,,,,,,bars/012.png,bars/mask002.png,,,,,,,,,,,,2,2,,,,,,,10,6,9,5,,,,,,,,,,,1149.0889,1149.585,1149.8338,1153.1347,space,3.2885,,1153.1348,55,20,1154.1315,1154.1317,1154.1572,,,,0,39,39,39,1,90,15,,,,,,,,
,,613a9b39928d81d5ce5a3f7c,001,2023-12-14_24h16.34.785,bars,2023.2.3,Win32,40.00320026,,,,,,1154.1577,1155.1631,,,1155.6592,1155.9072,,144,144,,,,,,,,,,,,,,,,bars/018.png,bars/mask005.png,,,,,,,,,,,,8,1,,,,,,,10,4,10,3,,,,,,,,,,,1155.1632,1155.6591,1155.9073,1158.6307,space,2.7,,1158.6309,6,54,1159.63,1159.6302,1159.6579,,,,0,40,40,40,1,150,90,,,,,,,,
,,613a9b39928d81d5ce5a3f7c,001,2023-12-14_24h16.34.785,bars,2023.2.3,Win32,40.00320026,,,,,,1159.6584,1160.6616,,,1161.1575,1161.4058,,108,108,,,,,,,,,,,,,,,,bars/039.png,bars/mask000.png,,,,,,,,,,,,2,2,,,,,,,10,2,10,2,,,,,,,,,,,1160.6616,1161.1574,1161.4058,1162.8326,space,1.4039,,1162.8327,67,3,1163.8331,1163.8332,1163.8386,,,,0,41,41,41,1,175,105,,,,,,,,
,,613a9b39928d81d5ce5a3f7c,001,2023-12-14_24h16.34.785,bars,2023.2.3,Win32,40.00320026,,,,,,1163.8393,1164.8332,,,1165.3298,1165.5854,,38,38,,,,,,,,,,,,,,,,bars/038.png,bars/mask003.png,,,,,,,,,,,,0,2,,,,,,,8,0,7,0,,,,,,,,,,,1164.8333,1165.3297,1165.5854,1167.331,space,1.7248,,1167.3311,53,32,1168.3306,1168.3307,1168.3322,,,,0,42,42,42,1,165,70,,,,,,,,
,,613a9b39928d81d5ce5a3f7c,001,2023-12-14_24h16.34.785,bars,2023.2.3,Win32,40.00320026,,,,,,1168.3329,1169.3304,,,1169.8267,1170.0584,,49,49,,,,,,,,,,,,,,,,bars/037.png,bars/mask005.png,,,,,,,,,,,,0,2,,,,,,,6,0,5,1,,,,,,,,,,,1169.3305,1169.8266,1170.0585,1171.6833,space,1.6063,,1171.6835,79,56,1172.6831,1172.6832,1172.685,,,,0,43,43,43,1,150,105,,,,,,,,
,,613a9b39928d81d5ce5a3f7c,001,2023-12-14_24h16.34.785,bars,2023.2.3,Win32,40.00320026,,,,,,1172.6857,1173.6763,,,1174.1803,1174.429,,168,-12,,,,,,,,,,,,,,,,bars/043.png,bars/mask008.png,,,,,,,,,,,,0,2,,,,,,,8,0,9,0,,,,,,,,,,,1173.6768,1174.1803,1174.429,1176.6068,space,2.155,,1176.6069,42,38,1177.6001,1177.6003,1177.6244,,,,0,44,44,44,1,30,130,,,,,,,,
,,613a9b39928d81d5ce5a3f7c,001,2023-12-14_24h16.34.785,bars,2023.2.3,Win32,40.00320026,,,,,,1177.625,1178.626,,,1179.1299,1179.3777,,78,78,,,,,,,,,,,,,,,,bars/048.png,bars/mask004.png,,,,,,,,,,,,1,1,,,,,,,10,0,10,0,,,,,,,,,,,1178.626,1179.1298,1179.3778,1180.7536,space,1.3562,,1180.7536,28,83,1181.7531,1181.7531,1181.7587,,,,0,45,45,45,1,50,175,,,,,,,,
,,613a9b39928d81d5ce5a3f7c,001,2023-12-14_24h16.34.785,bars,2023.2.3,Win32,40.00320026,,,,,,1181.7594,1182.7529,,,1183.2495,1183.5049,,109,109,,,,,,,,,,,,,,,,bars/011.png,bars/mask007.png,,,,,,,,,,,,1,2,,,,,,,8,2,7,3,,,,,,,,,,,1182.753,1183.2494,1183.5049,1185.0997,space,1.5717,,1185.0998,51,24,1186.0992,1186.0993,1186.1082,,,,0,46,46,46,1,160,85,,,,,,,,
,,613a9b39928d81d5ce5a3f7c,001,2023-12-14_24h16.34.785,bars,2023.2.3,Win32,40.00320026,,,,,,1186.1087,1187.0998,,,1187.6003,1187.8496,,76,76,,,,,,,,,,,,,,,,bars/041.png,bars/mask002.png,,,,,,,,,,,,0,2,,,,,,,10,0,10,0,,,,,,,,,,,1187.0999,1187.6002,1187.8496,1189.9825,space,2.1011,,1189.9825,56,9,1190.9738,1190.9739,1191.0002,,,,0,47,47,47,1,20,85,,,,,,,,
,,613a9b39928d81d5ce5a3f7c,001,2023-12-14_24h16.34.785,bars,2023.2.3,Win32,40.00320026,,,,,,1191.0007,1192.0057,,,1192.4977,1192.7483,,0,0,,,,,,,,,,,,,,,,bars/001.png,bars/mask000.png,,,,,,,,,,,,0,1,,,,,,,8,2,6,2,,,,,,,,,,,1192.0057,1192.4976,1192.7484,1193.7579,space,0.9783,,1193.758,50,85,1194.7541,1194.7541,1194.7627,,,,0,48,48,48,1,130,85,,,,,,,,
,,613a9b39928d81d5ce5a3f7c,001,2023-12-14_24h16.34.785,bars,2023.2.3,Win32,40.00320026,,,,,,1194.7632,1195.7493,,,1196.2467,1196.4969,,143,143,,,,,,,,,,,,,,,,bars/046.png,bars/mask004.png,,,,,,,,,,,,5,1,,,,,,,10,4,9,4,,,,,,,,,,,1195.7494,1196.2465,1196.4971,1198.531,space,2.002,,1198.5311,12,58,1199.5214,1199.5215,1199.5452,,,,0,49,49,49,1,155,85,,,,,,,,
,,613a9b39928d81d5ce5a3f7c,001,2023-12-14_24h16.34.785,bars,2023.2.3,Win32,40.00320026,,,,,,,,,,,,,,,,,,,,,,,,,,,,,,,,,,,,,,,,,,,,,,,,,,,,,,,,,,,,,,,,,,,,,,,,,,,,,,,,,,,,,,,,1199.5458,1259.5307,0,1,1,4,1,sequence_tables/blk036.csv
,,613a9b39928d81d5ce5a3f7c,001,2023-12-14_24h16.34.785,bars,2023.2.3,Win32,40.00320026,,,,,,1268.6957,1269.7026,,,1270.2068,1270.4327,,173,173,,,,,,,,,,,,,,,,bars/028.png,bars/mask003.png,,,,,,,,,,,,0,1,,,,,,,2,7,4,8,,,,,,1259.5557,1268.6773,space,9.1001,,1269.7026,1270.2067,1270.4327,1271.0841,space,0.6279,,1271.0842,52,53,1272.0772,1272.0773,1272.0788,,,,0,0,0,0,1,45,120,,,,,,,,
,,613a9b39928d81d5ce5a3f7c,001,2023-12-14_24h16.34.785,bars,2023.2.3,Win32,40.00320026,,,,,,1272.0795,1273.0771,,,1273.582,1273.8255,,68,68,,,,,,,,,,,,,,,,bars/044.png,bars/mask000.png,,,,,,,,,,,,2,1,,,,,,,4,5,3,5,,,,,,,,,,,1273.0795,1273.5819,1273.8256,1274.3095,space,0.4533,,1274.3096,7,87,1275.3016,1275.3016,1275.3032,,,,0,1,1,1,1,75,155,,,,,,,,
,,613a9b39928d81d5ce5a3f7c,001,2023-12-14_24h16.34.785,bars,2023.2.3,Win32,40.00320026,,,,,,1275.3037,1276.3014,,,1276.7845,1277.0264,,90,90,,,,,,,,,,,,,,,,bars/020.png,bars/mask003.png,,,,,,,,,,,,1,1,,,,,,,6,7,7,8,,,,,,,,,,,1276.3015,1276.7844,1277.0265,1277.4836,space,0.426,,1277.4836,25,80,1278.4759,1278.4759,1278.4777,,,,0,2,2,2,1,115,170,,,,,,,,
,,613a9b39928d81d5ce5a3f7c,001,2023-12-14_24h16.34.785,bars,2023.2.3,Win32,40.00320026,,,,,,1278.4784,1279.4753,,,1279.9793,1280.2267,,113,113,,,,,,,,,,,,,,,,bars/026.png,bars/mask002.png,,,,,,,,,,,,0,2,,,,,,,8,5,7,5,,,,,,,,,,,1279.4754,1279.9792,1280.2268,1282.5074,space,2.2508,,1282.5075,78,28,1283.504,1283.5042,1283.5083,,,,0,3,3,3,1,35,85,,,,,,,,
,,613a9b39928d81d5ce5a3f7c,001,2023-12-14_24h16.34.785,bars,2023.2.3,Win32,40.00320026,,,,,,1283.5089,1284.5055,,,1284.9991,1285.256,,123,123,,,,,,,,,,,,,,,,bars/002.png,bars/mask009.png,,,,,,,,,,,,5,1,,,,,,,6,3,6,2,,,,,,,,,,,1284.5055,1284.9991,1285.2561,1286.1824,space,0.9017,,1286.1824,7,38,1287.1733,1287.1733,1287.1779,,,,0,4,4,4,1,130,85,,,,,,,,
,,613a9b39928d81d5ce5a3f7c,001,2023-12-14_24h16.34.785,bars,2023.2.3,Win32,40.00320026,,,,,,1287.1784,1288.173,,,1288.6734,1288.9296,,177,-3,,,,,,,,,,,,,,,,bars/036.png,bars/mask009.png,,,,,,,,,,,,1,2,,,,,,,4,5,4,6,,,,,,,,,,,1288.1731,1288.6733,1288.9298,1289.5805,space,0.6261,,1289.5805,32,23,1290.5739,1290.574,1290.5791,,,,0,5,5,5,1,145,20,,,,,,,,
,,613a9b39928d81d5ce5a3f7c,001,2023-12-14_24h16.34.785,bars,2023.2.3,Win32,40.00320026,,,,,,1290.5798,1291.5786,,,1292.0722,1292.3221,,107,107,,,,,,,,,,,,,,,,bars/013.png,bars/mask007.png,,,,,,,,,,,,0,1,,,,,,,2,3,3,3,,,,,,,,,,,1291.5787,1292.0721,1292.3222,1292.8724,space,0.5154,,1292.8725,32,83,1293.8716,1293.8716,1293.8762,,,,0,6,6,6,1,75,10,,,,,,,,
,,613a9b39928d81d5ce5a3f7c,001,2023-12-14_24h16.34.785,bars,2023.2.3,Win32,40.00320026,,,,,,1293.8768,1294.8712,,,1295.354,1295.6032,,116,116,,,,,,,,,,,,,,,,bars/014.png,bars/mask002.png,,,,,,,,,,,,0,1,,,,,,,4,1,6,2,,,,,,,,,,,1294.8714,1295.3539,1295.6033,1296.3301,space,0.7024,,1296.3301,36,64,1297.3208,1297.3209,1297.3224,,,,0,7,7,7,1,80,0,,,,,,,,
,,613a9b39928d81d5ce5a3f7c,001,2023-12-14_24h16.34.785,bars,2023.2.3,Win32,40.00320026,,,,,,1297.3229,1298.3204,,,1298.8204,1299.0706,,90,90,,,,,,,,,,,,,,,,bars/022.png,bars/mask005.png,,,,,,,,,,,,4,1,,,,,,,6,3,5,4,,,,,,,,,,,1298.3206,1298.8203,1299.0707,1301.8526,space,2.7509,,1301.8527,5,70,1302.8434,1302.8434,1302.8597,,,,0,8,8,8,1,95,20,,,,,,,,
,,613a9b39928d81d5ce5a3f7c,001,2023-12-14_24h16.34.785,bars,2023.2.3,Win32,40.00320026,,,,,,1302.86,1303.8508,,,1304.3522,1304.5917,,40,40,,,,,,,,,,,,,,,,bars/047.png,bars/mask007.png,,,,,,,,,,,,1,1,,,,,,,8,5,7,5,,,,,,,,,,,1303.8509,1304.3521,1304.5917,1305.2763,space,0.6748,,1305.2763,25,30,1306.2678,1306.2681,1306.2698,,,,0,9,9,9,1,15,70,,,,,,,,
,,613a9b39928d81d5ce5a3f7c,001,2023-12-14_24h16.34.785,bars,2023.2.3,Win32,40.00320026,,,,,,1306.2703,1307.268,,,1307.7656,1308.018,,135,135,,,,,,,,,,,,,,,,bars/014.png,bars/mask001.png,,,,,,,,,,,,0,2,,,,,,,10,3,10,4,,,,,,,,,,,1307.2681,1307.7656,1308.0181,1309.9011,space,1.8525,,1309.9012,55,45,1310.8921,1310.8922,1310.9195,,,,0,10,10,10,1,80,0,,,,,,,,
,,613a9b39928d81d5ce5a3f7c,001,2023-12-14_24h16.34.785,bars,2023.2.3,Win32,40.00320026,,,,,,1310.92,1311.9155,,,1312.4154,1312.6649,,4,4,,,,,,,,,,,,,,,,bars/021.png,bars/mask006.png,,,,,,,,,,,,0,1,,,,,,,10,1,10,4,,,,,,,,,,,1311.9156,1312.4153,1312.6649,1314.8495,space,2.1533,,1314.8496,29,66,1315.8408,1315.8409,1315.8493,,,,0,11,11,11,1,155,70,,,,,,,,
,,613a9b39928d81d5ce5a3f7c,001,2023-12-14_24h16.34.785,bars,2023.2.3,Win32,40.00320026,,,,,,1315.8498,1316.8376,,,1317.3405,1317.5903,,64,64,,,,,,,,,,,,,,,,bars/006.png,bars/mask001.png,,,,,,,,,,,,0,1,,,,,,,10,3,10,3,,,,,,,,,,,1316.8377,1317.3403,1317.5904,1319.4226,space,1.8005,,1319.4228,29,36,1320.4146,1320.4146,1320.4397,,,,0,12,12,12,1,35,100,,,,,,,,
,,613a9b39928d81d5ce5a3f7c,001,2023-12-14_24h16.34.785,bars,2023.2.3,Win32,40.00320026,,,,,,1320.4402,1321.4454,,,1321.9377,1322.1705,,4,184,,,,,,,,,,,,,,,,bars/025.png,bars/mask001.png,,,,,,,,,,,,0,2,,,,,,,8,5,6,3,,,,,,,,,,,1321.4455,1321.9377,1322.1706,1323.8715,space,1.6759,,1323.8716,79,36,1324.8633,1324.8633,1324.8947,,,,0,13,13,13,1,105,40,,,,,,,,
,,613a9b39928d81d5ce5a3f7c,001,2023-12-14_24h16.34.785,bars,2023.2.3,Win32,40.00320026,,,,,,1324.8951,1325.888,,,1326.3898,1326.6379,,104,104,,,,,,,,,,,,,,,,bars/042.png,bars/mask009.png,,,,,,,,,,,,0,2,,,,,,,10,7,10,8,,,,,,,,,,,1325.8881,1326.3896,1326.6379,1328.4203,space,1.7508,,1328.4205,41,29,1329.4123,1329.4124,1329.4371,,,,0,14,14,14,1,145,75,,,,,,,,
,,613a9b39928d81d5ce5a3f7c,001,2023-12-14_24h16.34.785,bars,2023.2.3,Win32,40.00320026,,,,,,1329.4374,1330.4369,,,1330.9411,1331.1867,,22,22,,,,,,,,,,,,,,,,bars/024.png,bars/mask005.png,,,,,,,,,,,,0,2,,,,,,,8,5,7,4,,,,,,,,,,,1330.437,1330.941,1331.1867,1333.6938,space,2.4755,,1333.6939,82,32,1334.6857,1334.6858,1334.7128,,,,0,15,15,15,1,120,170,,,,,,,,
,,613a9b39928d81d5ce5a3f7c,001,2023-12-14_24h16.34.785,bars,2023.2.3,Win32,40.00320026,,,,,,1334.7134,1335.7077,,,1336.212,1336.4604,,12,12,,,,,,,,,,,,,,,,bars/013.png,bars/mask008.png,,,,,,,,,,,,5,2,,,,,,,6,3,5,5,,,,,,,,,,,1335.7078,1336.2118,1336.4604,1337.393,space,0.9014,,1337.3931,63,2,1338.3848,1338.3848,1338.3868,,,,0,16,16,16,1,75,10,,,,,,,,
,,613a9b39928d81d5ce5a3f7c,001,2023-12-14_24h16.34.785,bars,2023.2.3,Win32,40.00320026,,,,,,1338.3874,1339.3919,,,1339.8846,1340.1422,,63,63,,,,,,,,,,,,,,,,bars/015.png,bars/mask001.png,,,,,,,,,,,,0,1,,,,,,,8,5,8,5,,,,,,,,,,,1339.392,1339.8845,1340.1423,1340.7929,space,0.6267,,1340.793,47,83,1341.7905,1341.7907,1341.7949,,,,0,17,17,17,1,110,160,,,,,,,,
,,613a9b39928d81d5ce5a3f7c,001,2023-12-14_24h16.34.785,bars,2023.2.3,Win32,40.00320026,,,,,,1341.7956,1342.7808,,,1343.2853,1343.5352,,170,-10,,,,,,,,,,,,,,,,bars/042.png,bars/mask006.png,,,,,,,,,,,,1,1,,,,,,,6,3,7,3,,,,,,,,,,,1342.7809,1343.2852,1343.5353,1345.1884,space,1.6238,,1345.1885,25,85,1346.1818,1346.1819,1346.1831,,,,0,18,18,18,1,145,75,,,,,,,,
,,613a9b39928d81d5ce5a3f7c,001,2023-12-14_24h16.34.785,bars,2023.2.3,Win32,40.00320026,,,,,,1346.1834,1347.1796,,,1347.6825,1347.9322,,71,71,,,,,,,,,,,,,,,,bars/016.png,bars/mask009.png,,,,,,,,,,,,0,1,,,,,,,8,1,9,1,,,,,,,,,,,1347.1797,1347.6824,1347.9324,1350.6393,space,2.6756,,1350.6394,31,86,1351.6313,1351.6313,1351.6567,,,,0,19,19,19,1,40,165,,,,,,,,
,,613a9b39928d81d5ce5a3f7c,001,2023-12-14_24h16.34.785,bars,2023.2.3,Win32,40.00320026,,,,,,1351.6572,1352.6387,,,1353.1339,1353.3864,,29,29,,,,,,,,,,,,,,,,bars/043.png,bars/mask004.png,,,,,,,,,,,,10,1,,,,,,,10,0,10,0,,,,,,,,,,,1352.6387,1353.1338,1353.3865,1354.7649,space,1.3526,,1354.7651,1,79,1355.7552,1355.7553,1355.7571,,,,0,20,20,20,1,30,130,,,,,,,,
,,613a9b39928d81d5ce5a3f7c,001,2023-12-14_24h16.34.785,bars,2023.2.3,Win32,40.00320026,,,,,,1355.7578,1356.7549,,,1357.2548,1357.5047,,37,37,,,,,,,,,,,,,,,,bars/043.png,bars/mask002.png,,,,,,,,,,,,5,1,,,,,,,8,0,6,0,,,,,,,,,,,1356.755,1357.2548,1357.5048,1359.3121,space,1.7757,,1359.3122,7,87,1360.304,1360.304,1360.3055,,,,0,21,21,21,1,30,130,,,,,,,,
,,613a9b39928d81d5ce5a3f7c,001,2023-12-14_24h16.34.785,bars,2023.2.3,Win32,40.00320026,,,,,,1360.3062,1361.3036,,,1361.8039,1362.0601,,174,-6,,,,,,,,,,,,,,,,bars/045.png,bars/mask004.png,,,,,,,,,,,,0,2,,,,,,,6,0,7,0,,,,,,,,,,,1361.3038,1361.8038,1362.0602,1364.6857,space,2.5995,,1364.6859,74,16,1365.6775,1365.6776,1365.7052,,,,0,22,22,22,1,100,10,,,,,,,,
,,613a9b39928d81d5ce5a3f7c,001,2023-12-14_24h16.34.785,bars,2023.2.3,Win32,40.00320026,,,,,,1365.7059,1366.7026,,,1367.2057,1367.4624,,176,176,,,,,,,,,,,,,,,,bars/021.png,bars/mask001.png,,,,,,,,,,,,1,1,,,,,,,4,2,2,1,,,,,,,,,,,1366.7026,1367.2056,1367.4624,1368.7597,space,1.2783,,1368.7599,21,74,1369.7514,1369.7516,1369.7562,,,,0,23,23,23,1,155,70,,,,,,,,
,,613a9b39928d81d5ce5a3f7c,001,2023-12-14_24h16.34.785,bars,2023.2.3,Win32,40.00320026,,,,,,1369.7569,1370.7515,,,1371.2512,1371.5075,,105,105,,,,,,,,,,,,,,,,bars/018.png,bars/mask008.png,,,,,,,,,,,,2,2,,,,,,,2,4,0,4,,,,,,,,,,,1370.7516,1371.2512,1371.5076,1372.3064,space,0.7743,,1372.3065,45,15,1373.3009,1373.301,1373.3052,,,,0,24,24,24,1,150,90,,,,,,,,
,,613a9b39928d81d5ce5a3f7c,001,2023-12-14_24h16.34.785,bars,2023.2.3,Win32,40.00320026,,,,,,1373.3059,1374.3005,,,1374.8002,1375.0503,,77,77,,,,,,,,,,,,,,,,bars/048.png,bars/mask004.png,,,,,,,,,,,,0,1,,,,,,,0,6,0,6,,,,,,,,,,,1374.3006,1374.8001,1375.0504,1378.8834,space,3.8006,,1378.8835,27,82,1379.8743,1379.8744,1379.901,,,,0,25,25,25,1,50,175,,,,,,,,
,,613a9b39928d81d5ce5a3f7c,001,2023-12-14_24h16.34.785,bars,2023.2.3,Win32,40.00320026,,,,,,1379.9015,1380.8987,,,1381.3985,1381.63,,77,77,,,,,,,,,,,,,,,,bars/000.png,bars/mask006.png,,,,,,,,,,,,0,1,,,,,,,2,8,3,8,,,,,,,,,,,1380.8988,1381.3983,1381.6301,1382.5526,space,0.8976,,1382.5526,37,68,1383.5478,1383.5479,1383.5497,,,,0,26,26,26,1,40,145,,,,,,,,
,,613a9b39928d81d5ce5a3f7c,001,2023-12-14_24h16.34.785,bars,2023.2.3,Win32,40.00320026,,,,,,1383.5504,1384.5552,,,1385.0541,1385.2963,,55,55,,,,,,,,,,,,,,,,bars/011.png,bars/mask001.png,,,,,,,,,,,,0,2,,,,,,,0,6,0,6,,,,,,,,,,,1384.5553,1385.0541,1385.2964,1387.8053,space,2.4774,,1387.8053,75,30,1388.7965,1388.7966,1388.8275,,,,0,27,27,27,1,160,85,,,,,,,,
,,613a9b39928d81d5ce5a3f7c,001,2023-12-14_24h16.34.785,bars,2023.2.3,Win32,40.00320026,,,,,,1388.828,1389.8278,,,1390.3205,1390.5525,,49,49,,,,,,,,,,,,,,,,bars/042.png,bars/mask005.png,,,,,,,,,,,,1,2,,,,,,,0,8,0,8,,,,,,,,,,,1389.8278,1390.3204,1390.5526,1393.1289,space,2.5515,,1393.129,84,26,1394.1232,1394.1232,1394.1467,,,,0,28,28,28,1,145,75,,,,,,,,
,,613a9b39928d81d5ce5a3f7c,001,2023-12-14_24h16.34.785,bars,2023.2.3,Win32,40.00320026,,,,,,1394.1471,1395.1471,,,1395.6437,1395.8922,,106,106,,,,,,,,,,,,,,,,bars/018.png,bars/mask008.png,,,,,,,,,,,,3,2,,,,,,,2,6,2,7,,,,,,,,,,,1395.1473,1395.6436,1395.8923,1397.1184,space,1.2028,,1397.1185,44,16,1398.1211,1398.1211,1398.1227,,,,0,29,29,29,1,150,90,,,,,,,,
,,613a9b39928d81d5ce5a3f7c,001,2023-12-14_24h16.34.785,bars,2023.2.3,Win32,40.00320026,,,,,,1398.1233,1399.1209,,,1399.6172,1399.8727,,155,155,,,,,,,,,,,,,,,,bars/023.png,bars/mask002.png,,,,,,,,,,,,0,2,,,,,,,0,8,0,10,,,,,,,,,,,1399.1209,1399.6172,1399.8728,1400.7425,space,0.852,,1400.7427,45,40,1401.7455,1401.7456,1401.7472,,,,0,30,30,30,1,20,115,,,,,,,,
,,613a9b39928d81d5ce5a3f7c,001,2023-12-14_24h16.34.785,bars,2023.2.3,Win32,40.00320026,,,,,,1401.7478,1402.7474,,,1403.2435,1403.4916,,106,106,,,,,,,,,,,,,,,,bars/045.png,bars/mask005.png,,,,,,,,,,,,0,1,,,,,,,0,6,0,6,,,,,,,,,,,1402.7475,1403.2435,1403.4917,1403.8936,space,0.3934,,1403.8938,6,84,1404.8951,1404.8952,1404.9051,,,,0,31,31,31,1,100,10,,,,,,,,
,,613a9b39928d81d5ce5a3f7c,001,2023-12-14_24h16.34.785,bars,2023.2.3,Win32,40.00320026,,,,,,1404.9056,1405.895,,,1406.3913,1406.6395,,147,147,,,,,,,,,,,,,,,,bars/033.png,bars/mask008.png,,,,,,,,,,,,5,2,,,,,,,2,8,3,7,,,,,,,,,,,1405.895,1406.3912,1406.6396,1406.8396,space,0.1734,,1406.8398,58,8,1407.8388,1407.839,1407.8492,,,,0,32,32,32,1,25,155,,,,,,,,
,,613a9b39928d81d5ce5a3f7c,001,2023-12-14_24h16.34.785,bars,2023.2.3,Win32,40.00320026,,,,,,1407.8497,1408.8388,,,1409.3428,1409.5906,,143,143,,,,,,,,,,,,,,,,bars/017.png,bars/mask003.png,,,,,,,,,,,,2,1,,,,,,,4,10,2,10,,,,,,,,,,,1408.839,1409.3427,1409.5907,1409.6152,space,0.0011,,1409.6152,2,82,1410.6145,1410.6146,1410.6244,,,,0,33,33,33,1,145,45,,,,,,,,
,,613a9b39928d81d5ce5a3f7c,001,2023-12-14_24h16.34.785,bars,2023.2.3,Win32,40.00320026,,,,,,1410.6248,1411.6145,,,1412.1186,1412.3662,,56,56,,,,,,,,,,,,,,,,bars/014.png,bars/mask000.png,,,,,,,,,,,,1,1,,,,,,,6,10,7,8,,,,,,,,,,,1411.6145,1412.1185,1412.3664,1412.4704,space,0.0802,,1412.4705,24,56,1413.47,1413.47,1413.4716,,,,0,34,34,34,1,80,0,,,,,,,,
,,613a9b39928d81d5ce5a3f7c,001,2023-12-14_24h16.34.785,bars,2023.2.3,Win32,40.00320026,,,,,,1413.4723,1414.462,,,1414.9658,1415.2139,,51,51,,,,,,,,,,,,,,,,bars/046.png,bars/mask005.png,,,,,,,,,,,,0,2,,,,,,,8,8,9,9,,,,,,,,,,,1414.4621,1414.9658,1415.2139,1415.2387,space,0.0122,,1415.2388,76,34,1416.238,1416.2381,1416.2479,,,,0,35,35,35,1,155,85,,,,,,,,
,,613a9b39928d81d5ce5a3f7c,001,2023-12-14_24h16.34.785,bars,2023.2.3,Win32,40.00320026,,,,,,1416.2484,1417.2373,,,1417.7419,1417.9897,,67,67,,,,,,,,,,,,,,,,bars/027.png,bars/mask001.png,,,,,,,,,,,,4,2,,,,,,,6,10,7,10,,,,,,,,,,,1417.2374,1417.7418,1417.9899,1418.8161,space,0.8052,,1418.8163,43,17,1419.8178,1419.8178,1419.8196,,,,0,36,36,36,1,110,50,,,,,,,,
,,613a9b39928d81d5ce5a3f7c,001,2023-12-14_24h16.34.785,bars,2023.2.3,Win32,40.00320026,,,,,,1419.8204,1420.8176,,,1421.3136,1421.5617,,9,9,,,,,,,,,,,,,,,,bars/001.png,bars/mask004.png,,,,,,,,,,,,0,1,,,,,,,8,8,9,8,,,,,,,,,,,1420.8176,1421.3136,1421.5618,1421.6658,space,0.0794,,1421.6659,59,76,1422.6653,1422.6653,1422.6749,,,,0,37,37,37,1,130,85,,,,,,,,
,,613a9b39928d81d5ce5a3f7c,001,2023-12-14_24h16.34.785,bars,2023.2.3,Win32,40.00320026,,,,,,1422.6754,1423.6653,,,1424.1613,1424.4173,,29,29,,,,,,,,,,,,,,,,bars/006.png,bars/mask007.png,,,,,,,,,,,,8,1,,,,,,,10,10,10,10,,,,,,,,,,,1423.6653,1424.1613,1424.4174,1424.5133,space,0.0807,,1424.5134,6,71,1425.5129,1425.513,1425.5144,,,,0,38,38,38,1,35,100,,,,,,,,
,,613a9b39928d81d5ce5a3f7c,001,2023-12-14_24h16.34.785,bars,2023.2.3,Win32,40.00320026,,,,,,1425.5152,1426.5128,,,1427.0091,1427.2408,,0,0,,,,,,,,,,,,,,,,bars/002.png,bars/mask005.png,,,,,,,,,,,,0,1,,,,,,,10,10,10,10,,,,,,,,,,,1426.5129,1427.009,1427.2408,1429.234,space,1.9699,,1429.2341,50,85,1430.2338,1430.234,1430.2584,,,,0,39,39,39,1,130,85,,,,,,,,
,,613a9b39928d81d5ce5a3f7c,001,2023-12-14_24h16.34.785,bars,2023.2.3,Win32,40.00320026,,,,,,1430.2592,1431.2577,,,1431.7622,1432.0098,,65,65,,,,,,,,,,,,,,,,bars/020.png,bars/mask000.png,,,,,,,,,,,,0,1,,,,,,,8,8,7,7,,,,,,,,,,,1431.2578,1431.7621,1432.0099,1433.6897,space,1.6661,,1433.6899,50,75,1434.6895,1434.6896,1434.6914,,,,0,40,40,40,1,115,170,,,,,,,,
,,613a9b39928d81d5ce5a3f7c,001,2023-12-14_24h16.34.785,bars,2023.2.3,Win32,40.00320026,,,,,,1434.6922,1435.6813,,,1436.1855,1436.4333,,57,57,,,,,,,,,,,,,,,,bars/037.png,bars/mask007.png,,,,,,,,,,,,0,2,,,,,,,10,6,10,5,,,,,,,,,,,1435.6816,1436.1853,1436.4334,1438.058,space,1.6008,,1438.0581,87,48,1439.0571,1439.0572,1439.0671,,,,0,41,41,41,1,150,105,,,,,,,,
,,613a9b39928d81d5ce5a3f7c,001,2023-12-14_24h16.34.785,bars,2023.2.3,Win32,40.00320026,,,,,,1439.0676,1440.0613,,,1440.5616,1440.8117,,90,90,,,,,,,,,,,,,,,,bars/039.png,bars/mask002.png,,,,,,,,,,,,4,2,,,,,,,8,8,7,7,,,,,,,,,,,1440.0615,1440.5614,1440.8117,1446.6565,space,5.8229,,1446.6567,85,15,1447.6563,1447.6563,1447.6709,,,,0,42,42,42,1,175,105,,,,,,,,
,,613a9b39928d81d5ce5a3f7c,001,2023-12-14_24h16.34.785,bars,2023.2.3,Win32,40.00320026,,,,,,1447.6713,1448.6561,,,1449.1601,1449.408,,100,100,,,,,,,,,,,,,,,,bars/035.png,bars/mask005.png,,,,,,,,,,,,0,2,,,,,,,6,6,4,5,,,,,,,,,,,1448.6562,1449.1601,1449.408,1450.1041,space,0.6731,,1450.1041,75,40,1451.1039,1451.1039,1451.1048,,,,0,43,43,43,1,175,60,,,,,,,,
,,613a9b39928d81d5ce5a3f7c,001,2023-12-14_24h16.34.785,bars,2023.2.3,Win32,40.00320026,,,,,,1451.1053,1452.1037,,,1452.6077,1452.856,,23,23,,,,,,,,,,,,,,,,bars/009.png,bars/mask003.png,,,,,,,,,,,,5,1,,,,,,,8,4,7,4,,,,,,,,,,,1452.1037,1452.6076,1452.8561,1452.9527,space,0.0737,,1452.953,8,82,1453.9519,1453.952,1453.9619,,,,0,44,44,44,1,15,105,,,,,,,,
,,613a9b39928d81d5ce5a3f7c,001,2023-12-14_24h16.34.785,bars,2023.2.3,Win32,40.00320026,,,,,,1453.9625,1454.9538,,,1455.4581,1455.7062,,101,101,,,,,,,,,,,,,,,,bars/016.png,bars/mask002.png,,,,,,,,,,,,0,1,,,,,,,10,6,10,6,,,,,,,,,,,1454.9539,1455.4581,1455.7063,1457.0275,space,1.2941,,1457.0277,61,64,1458.0269,1458.0269,1458.0515,,,,0,45,45,45,1,40,165,,,,,,,,
,,613a9b39928d81d5ce5a3f7c,001,2023-12-14_24h16.34.785,bars,2023.2.3,Win32,40.00320026,,,,,,1458.0523,1459.0506,,,1459.5546,1459.8023,,12,12,,,,,,,,,,,,,,,,bars/014.png,bars/mask001.png,,,,,,,,,,,,3,2,,,,,,,8,4,7,5,,,,,,,,,,,1459.0507,1459.5545,1459.8024,1460.0028,space,0.1886,,1460.0031,68,12,1461.0032,1461.0032,1461.0133,,,,0,46,46,46,1,80,0,,,,,,,,
,,613a9b39928d81d5ce5a3f7c,001,2023-12-14_24h16.34.785,bars,2023.2.3,Win32,40.00320026,,,,,,1461.0137,1462.0031,,,1462.5072,1462.7549,,65,65,,,,,,,,,,,,,,,,bars/015.png,bars/mask008.png,,,,,,,,,,,,0,1,,,,,,,10,6,10,5,,,,,,,,,,,1462.0031,1462.5072,1462.755,1462.8515,space,0.0695,,1462.8516,45,85,1463.8509,1463.851,1463.861,,,,0,47,47,47,1,110,160,,,,,,,,
,,613a9b39928d81d5ce5a3f7c,001,2023-12-14_24h16.34.785,bars,2023.2.3,Win32,40.00320026,,,,,,1463.8614,1464.8508,,,1465.3546,1465.6029,,46,46,,,,,,,,,,,,,,,,bars/037.png,bars/mask009.png,,,,,,,,,,,,0,2,,,,,,,8,8,7,8,,,,,,,,,,,1464.8508,1465.3545,1465.6031,1465.7557,space,0.1408,,1465.7558,76,59,1466.7544,1466.7545,1466.7643,,,,0,48,48,48,1,150,105,,,,,,,,
,,613a9b39928d81d5ce5a3f7c,001,2023-12-14_24h16.34.785,bars,2023.2.3,Win32,40.00320026,,,,,,1466.7648,1467.7547,,,1468.2504,1468.4987,,28,28,,,,,,,,,,,,,,,,bars/044.png,bars/mask009.png,,,,,,,,,,,,0,1,,,,,,,6,10,7,10,,,,,,,,,,,1467.7552,1468.2503,1468.4989,1468.5784,space,0.0529,,1468.5786,47,53,1469.5802,1469.5803,1469.5902,,,,0,49,49,49,1,75,155,,,,,,,,
,,613a9b39928d81d5ce5a3f7c,001,2023-12-14_24h16.34.785,bars,2023.2.3,Win32,40.00320026,,,,,,,,,,,,,,,,,,,,,,,,,,,,,,,,,,,,,,,,,,,,,,,,,,,,,,,,,,,,,,,,,,,,,,,,,,,,,,,,,,,,,,,,1469.5904,1529.5854,0,2,2,3,1,sequence_tables/blk009.csv
,,613a9b39928d81d5ce5a3f7c,001,2023-12-14_24h16.34.785,bars,2023.2.3,Win32,40.00320026,,,,,,1552.8378,1553.8269,,,1554.3081,1554.5528,,41,41,,,,,,,,,,,,,,,,bars/042.png,bars/mask000.png,,,,,,,,,,,,0,2,,,,,,,5,5,5,2,,,,,,1529.6102,1552.8034,space,23.1784,,1553.8271,1554.3081,1554.553,1554.6854,space,0.1011,,1554.6855,76,34,1555.6842,1555.6843,1555.694,,,,0,0,0,0,1,145,75,,,,,,,,
,,613a9b39928d81d5ce5a3f7c,001,2023-12-14_24h16.34.785,bars,2023.2.3,Win32,40.00320026,,,,,,1555.6945,1556.6794,,,1557.1838,1557.4276,,13,13,,,,,,,,,,,,,,,,bars/034.png,bars/mask005.png,,,,,,,,,,,,0,2,,,,,,,7,3,8,4,,,,,,,,,,,1556.6795,1557.1838,1557.4276,1557.7022,space,0.228,,1557.7024,68,52,1558.7019,1558.7019,1558.7038,,,,0,1,1,1,1,125,65,,,,,,,,
,,613a9b39928d81d5ce5a3f7c,001,2023-12-14_24h16.34.785,bars,2023.2.3,Win32,40.00320026,,,,,,1558.7045,1559.7014,,,1560.2016,1560.4525,,72,72,,,,,,,,,,,,,,,,bars/031.png,bars/mask006.png,,,,,,,,,,,,0,2,,,,,,,5,5,4,6,,,,,,,,,,,1559.7015,1560.2015,1560.4527,1560.6333,space,0.1507,,1560.6334,48,37,1561.6258,1561.6259,1561.6274,,,,0,2,2,2,1,120,35,,,,,,,,
,,613a9b39928d81d5ce5a3f7c,001,2023-12-14_24h16.34.785,bars,2023.2.3,Win32,40.00320026,,,,,,1561.6279,1562.6324,,,1563.1323,1563.3769,,74,74,,,,,,,,,,,,,,,,bars/028.png,bars/mask001.png,,,,,,,,,,,,0,1,,,,,,,7,7,7,7,,,,,,,,,,,1562.6324,1563.1323,1563.377,1563.7281,space,0.3213,,1563.7281,29,46,1564.7249,1564.725,1564.7345,,,,0,3,3,3,1,45,120,,,,,,,,
,,613a9b39928d81d5ce5a3f7c,001,2023-12-14_24h16.34.785,bars,2023.2.3,Win32,40.00320026,,,,,,1564.735,1565.7249,,,1566.2249,1566.4802,,95,95,,,,,,,,,,,,,,,,bars/007.png,bars/mask004.png,,,,,,,,,,,,0,2,,,,,,,5,5,6,4,,,,,,,,,,,1565.7251,1566.2247,1566.4803,1566.7747,space,0.2532,,1566.7749,80,40,1567.7742,1567.7743,1567.7836,,,,0,4,4,4,1,175,55,,,,,,,,
,,613a9b39928d81d5ce5a3f7c,001,2023-12-14_24h16.34.785,bars,2023.2.3,Win32,40.00320026,,,,,,1567.784,1568.7739,,,1569.2739,1569.5237,,156,156,,,,,,,,,,,,,,,,bars/012.png,bars/mask009.png,,,,,,,,,,,,0,2,,,,,,,7,7,8,8,,,,,,,,,,,1568.774,1569.2738,1569.5238,1569.7063,space,0.1512,,1569.7064,66,39,1570.6982,1570.6983,1570.7003,,,,0,5,5,5,1,90,15,,,,,,,,
,,613a9b39928d81d5ce5a3f7c,001,2023-12-14_24h16.34.785,bars,2023.2.3,Win32,40.00320026,,,,,,1570.7009,1571.6981,,,1572.1984,1572.448,,145,145,,,,,,,,,,,,,,,,bars/026.png,bars/mask002.png,,,,,,,,,,,,0,2,,,,,,,9,9,7,9,,,,,,,,,,,1571.6983,1572.1982,1572.448,1572.6564,space,0.1771,,1572.6566,70,60,1573.6486,1573.6486,1573.6501,,,,0,6,6,6,1,35,85,,,,,,,,
,,613a9b39928d81d5ce5a3f7c,001,2023-12-14_24h16.34.785,bars,2023.2.3,Win32,40.00320026,,,,,,1573.6507,1574.6476,,,1575.1539,1575.3973,,175,175,,,,,,,,,,,,,,,,bars/038.png,bars/mask004.png,,,,,,,,,,,,7,1,,,,,,,10,10,10,8,,,,,,,,,,,1574.6476,1575.1538,1575.3973,1575.4302,space,0.0015,,1575.4302,10,75,1576.4211,1576.4215,1576.4262,,,,0,7,7,7,1,165,70,,,,,,,,
,,613a9b39928d81d5ce5a3f7c,001,2023-12-14_24h16.34.785,bars,2023.2.3,Win32,40.00320026,,,,,,1576.4269,1577.4216,,,1577.9217,1578.1716,,99,99,,,,,,,,,,,,,,,,bars/032.png,bars/mask007.png,,,,,,,,,,,,1,1,,,,,,,10,10,10,10,,,,,,,,,,,1577.4217,1577.9216,1578.1717,1579.3793,space,1.1761,,1579.3794,26,79,1580.3707,1580.3709,1580.3752,,,,0,8,8,8,1,125,20,,,,,,,,
,,613a9b39928d81d5ce5a3f7c,001,2023-12-14_24h16.34.785,bars,2023.2.3,Win32,40.00320026,,,,,,1580.3757,1581.3771,,,1581.8721,1582.1185,,26,26,,,,,,,,,,,,,,,,bars/035.png,bars/mask005.png,,,,,,,,,,,,0,1,,,,,,,8,10,9,10,,,,,,,,,,,1581.3772,1581.872,1582.1186,1582.2538,space,0.1257,,1582.2538,31,34,1583.2468,1583.2469,1583.2484,,,,0,9,9,9,1,175,60,,,,,,,,
,,613a9b39928d81d5ce5a3f7c,001,2023-12-14_24h16.34.785,bars,2023.2.3,Win32,40.00320026,,,,,,1583.2491,1584.2513,,,1584.7466,1584.9812,,124,124,,,,,,,,,,,,,,,,bars/026.png,bars/mask002.png,,,,,,,,,,,,0,2,,,,,,,6,8,7,7,,,,,,,,,,,1584.2515,1584.7465,1584.9813,1585.2032,space,0.202,,1585.2033,89,39,1586.2009,1586.201,1586.211,,,,0,10,10,10,1,35,85,,,,,,,,
,,613a9b39928d81d5ce5a3f7c,001,2023-12-14_24h16.34.785,bars,2023.2.3,Win32,40.00320026,,,,,,1586.2115,1587.194,,,1587.7013,1587.9457,,164,164,,,,,,,,,,,,,,,,bars/049.png,bars/mask005.png,,,,,,,,,,,,4,1,,,,,,,4,6,5,5,,,,,,,,,,,1587.1942,1587.7013,1587.9458,1588.0517,space,0.0763,,1588.0517,4,49,1589.05,1589.05,1589.0593,,,,0,11,11,11,1,160,115,,,,,,,,
,,613a9b39928d81d5ce5a3f7c,001,2023-12-14_24h16.34.785,bars,2023.2.3,Win32,40.00320026,,,,,,1589.0598,1590.0517,,,1590.5459,1590.801,,50,50,,,,,,,,,,,,,,,,bars/025.png,bars/mask004.png,,,,,,,,,,,,2,2,,,,,,,6,4,6,3,,,,,,,,,,,1590.0518,1590.5459,1590.801,1593.9953,space,3.1708,,1593.9954,55,10,1594.9894,1594.9895,1595.0242,,,,0,12,12,12,1,105,40,,,,,,,,
,,613a9b39928d81d5ce5a3f7c,001,2023-12-14_24h16.34.785,bars,2023.2.3,Win32,40.00320026,,,,,,1595.0247,1596.0167,,,1596.5169,1596.7682,,58,58,,,,,,,,,,,,,,,,bars/004.png,bars/mask003.png,,,,,,,,,,,,0,1,,,,,,,8,6,6,6,,,,,,,,,,,1596.0167,1596.5168,1596.7682,1597.024,space,0.2259,,1597.0241,33,67,1598.0162,1598.0163,1598.0258,,,,0,13,13,13,1,25,125,,,,,,,,
,,613a9b39928d81d5ce5a3f7c,001,2023-12-14_24h16.34.785,bars,2023.2.3,Win32,40.00320026,,,,,,1598.0263,1599.0223,,,1599.5223,1599.766,,49,49,,,,,,,,,,,,,,,,bars/042.png,bars/mask003.png,,,,,,,,,,,,1,2,,,,,,,6,4,5,4,,,,,,,,,,,1599.0224,1599.5222,1599.766,1599.8228,space,0.0252,,1599.823,84,26,1600.8154,1600.8155,1600.828,,,,0,14,14,14,1,145,75,,,,,,,,
,,613a9b39928d81d5ce5a3f7c,001,2023-12-14_24h16.34.785,bars,2023.2.3,Win32,40.00320026,,,,,,1600.8285,1601.8215,,,1602.3153,1602.565,,141,141,,,,,,,,,,,,,,,,bars/039.png,bars/mask005.png,,,,,,,,,,,,0,1,,,,,,,4,2,3,2,,,,,,,,,,,1601.8217,1602.3152,1602.5651,1602.873,space,0.2764,,1602.873,34,36,1603.8647,1603.8648,1603.8748,,,,0,15,15,15,1,175,105,,,,,,,,
,,613a9b39928d81d5ce5a3f7c,001,2023-12-14_24h16.34.785,bars,2023.2.3,Win32,40.00320026,,,,,,1603.8753,1604.8707,,,1605.3643,1605.6145,,175,175,,,,,,,,,,,,,,,,bars/031.png,bars/mask008.png,,,,,,,,,,,,0,2,,,,,,,2,4,3,5,,,,,,,,,,,1604.8708,1605.3642,1605.6146,1606.1144,space,0.4528,,1606.1144,55,40,1607.1137,1607.1138,1607.1235,,,,0,16,16,16,1,120,35,,,,,,,,
,,613a9b39928d81d5ce5a3f7c,001,2023-12-14_24h16.34.785,bars,2023.2.3,Win32,40.00320026,,,,,,1607.124,1608.1135,,,1608.6212,1608.8635,,62,62,,,,,,,,,,,,,,,,bars/019.png,bars/mask009.png,,,,,,,,,,,,0,1,,,,,,,0,2,0,4,,,,,,,,,,,1608.1136,1608.6211,1608.8636,1608.971,space,0.0759,,1608.971,17,43,1609.9633,1609.9633,1609.9728,,,,0,17,17,17,1,45,105,,,,,,,,
,,613a9b39928d81d5ce5a3f7c,001,2023-12-14_24h16.34.785,bars,2023.2.3,Win32,40.00320026,,,,,,1609.9732,1610.9627,,,1611.4686,1611.7184,,58,58,,,,,,,,,,,,,,,,bars/042.png,bars/mask003.png,,,,,,,,,,,,0,2,,,,,,,0,0,2,1,,,,,,,,,,,1610.9629,1611.4685,1611.7185,1611.7455,space,0.0013,,1611.7456,87,17,1612.7375,1612.7376,1612.7471,,,,0,18,18,18,1,145,75,,,,,,,,
,,613a9b39928d81d5ce5a3f7c,001,2023-12-14_24h16.34.785,bars,2023.2.3,Win32,40.00320026,,,,,,1612.7478,1613.737,,,1614.237,1614.4869,,14,14,,,,,,,,,,,,,,,,bars/041.png,bars/mask004.png,,,,,,,,,,,,1,1,,,,,,,0,0,1,0,,,,,,,,,,,1613.7371,1614.2369,1614.4871,1614.6198,space,0.1015,,1614.6198,6,71,1615.6105,1615.6107,1615.6212,,,,0,19,19,19,1,20,85,,,,,,,,
,,613a9b39928d81d5ce5a3f7c,001,2023-12-14_24h16.34.785,bars,2023.2.3,Win32,40.00320026,,,,,,1615.6217,1616.6178,,,1617.1102,1617.3612,,139,139,,,,,,,,,,,,,,,,bars/041.png,bars/mask008.png,,,,,,,,,,,,0,2,,,,,,,2,2,3,2,,,,,,,,,,,1616.6179,1617.11,1617.3612,1617.6953,space,0.3027,,1617.6953,61,54,1618.6859,1618.686,1618.6957,,,,0,20,20,20,1,20,85,,,,,,,,
,,613a9b39928d81d5ce5a3f7c,001,2023-12-14_24h16.34.785,bars,2023.2.3,Win32,40.00320026,,,,,,1618.6961,1619.6876,,,1620.1851,1620.4168,,162,162,,,,,,,,,,,,,,,,bars/021.png,bars/mask006.png,,,,,,,,,,,,0,1,,,,,,,0,0,0,0,,,,,,,,,,,1619.6877,1620.1849,1620.4169,1620.5633,space,0.1216,,1620.5634,7,88,1621.5622,1621.5622,1621.5716,,,,0,21,21,21,1,155,70,,,,,,,,
,,613a9b39928d81d5ce5a3f7c,001,2023-12-14_24h16.34.785,bars,2023.2.3,Win32,40.00320026,,,,,,1621.572,1622.5607,,,1623.0424,1623.2922,,147,147,,,,,,,,,,,,,,,,bars/015.png,bars/mask009.png,,,,,,,,,,,,1,2,,,,,,,0,2,0,2,,,,,,,,,,,1622.5608,1623.0423,1623.2922,1624.8416,space,1.525,,1624.8417,37,13,1625.8342,1625.8342,1625.8662,,,,0,22,22,22,1,110,160,,,,,,,,
,,613a9b39928d81d5ce5a3f7c,001,2023-12-14_24h16.34.785,bars,2023.2.3,Win32,40.00320026,,,,,,1625.8666,1626.8558,,,1627.365,1627.6087,,80,80,,,,,,,,,,,,,,,,bars/005.png,bars/mask007.png,,,,,,,,,,,,0,2,,,,,,,2,4,2,6,,,,,,,,,,,1626.8559,1627.365,1627.6088,1627.8914,space,0.2514,,1627.8914,70,60,1628.8832,1628.8833,1628.8848,,,,0,23,23,23,1,10,140,,,,,,,,
,,613a9b39928d81d5ce5a3f7c,001,2023-12-14_24h16.34.785,bars,2023.2.3,Win32,40.00320026,,,,,,1628.8853,1629.883,,,1630.388,1630.6407,,87,87,,,,,,,,,,,,,,,,bars/026.png,bars/mask000.png,,,,,,,,,,,,3,2,,,,,,,4,2,5,3,,,,,,,,,,,1629.8831,1630.3879,1630.641,1630.9654,space,0.3004,,1630.9655,52,2,1631.9574,1631.9575,1631.9594,,,,0,24,24,24,1,35,85,,,,,,,,
,,613a9b39928d81d5ce5a3f7c,001,2023-12-14_24h16.34.785,bars,2023.2.3,Win32,40.00320026,,,,,,1631.9601,1632.9628,,,1633.4635,1633.706,,47,47,,,,,,,,,,,,,,,,bars/040.png,bars/mask000.png,,,,,,,,,,,,0,2,,,,,,,2,4,2,4,,,,,,,,,,,1632.9629,1633.4634,1633.706,1634.3146,space,0.578,,1634.3146,87,42,1635.3058,1635.306,1635.308,,,,0,25,25,25,1,140,5,,,,,,,,
,,613a9b39928d81d5ce5a3f7c,001,2023-12-14_24h16.34.785,bars,2023.2.3,Win32,40.00320026,,,,,,1635.3086,1636.3061,,,1636.8061,1637.0559,,136,136,,,,,,,,,,,,,,,,bars/034.png,bars/mask004.png,,,,,,,,,,,,0,1,,,,,,,0,6,0,7,,,,,,,,,,,1636.3063,1636.8061,1637.0559,1637.1587,space,0.0716,,1637.1588,11,71,1638.1557,1638.1559,1638.1656,,,,0,26,26,26,1,125,65,,,,,,,,
,,613a9b39928d81d5ce5a3f7c,001,2023-12-14_24h16.34.785,bars,2023.2.3,Win32,40.00320026,,,,,,1638.166,1639.1554,,,1639.657,1639.9053,,138,138,,,,,,,,,,,,,,,,bars/038.png,bars/mask000.png,,,,,,,,,,,,0,1,,,,,,,2,8,2,9,,,,,,,,,,,1639.1554,1639.657,1639.9054,1639.9385,space,0.0015,,1639.9386,27,68,1640.9375,1640.9375,1640.939,,,,0,27,27,27,1,165,70,,,,,,,,
,,613a9b39928d81d5ce5a3f7c,001,2023-12-14_24h16.34.785,bars,2023.2.3,Win32,40.00320026,,,,,,1640.9397,1641.9358,,,1642.4363,1642.6857,,139,139,,,,,,,,,,,,,,,,bars/004.png,bars/mask006.png,,,,,,,,,,,,3,2,,,,,,,0,6,0,5,,,,,,,,,,,1641.9359,1642.4362,1642.6857,1643.0276,space,0.3131,,1643.0278,66,14,1644.0353,1644.0354,1644.0447,,,,0,28,28,28,1,25,125,,,,,,,,
,,613a9b39928d81d5ce5a3f7c,001,2023-12-14_24h16.34.785,bars,2023.2.3,Win32,40.00320026,,,,,,1644.0451,1645.0291,,,1645.5106,1645.7536,,114,114,,,,,,,,,,,,,,,,bars/018.png,bars/mask008.png,,,,,,,,,,,,1,2,,,,,,,0,4,0,4,,,,,,,,,,,1645.0291,1645.5106,1645.7536,1645.8871,space,0.1017,,1645.8872,36,24,1646.8784,1646.8785,1646.88,,,,0,29,29,29,1,150,90,,,,,,,,
,,613a9b39928d81d5ce5a3f7c,001,2023-12-14_24h16.34.785,bars,2023.2.3,Win32,40.00320026,,,,,,1646.8804,1647.8796,,,1648.3782,1648.6265,,166,166,,,,,,,,,,,,,,,,bars/032.png,bars/mask007.png,,,,,,,,,,,,0,2,,,,,,,2,6,2,7,,,,,,,,,,,1647.8796,1648.378,1648.6268,1648.8848,space,0.2247,,1648.8848,41,34,1649.8776,1649.8777,1649.8792,,,,0,30,30,30,1,125,20,,,,,,,,
,,613a9b39928d81d5ce5a3f7c,001,2023-12-14_24h16.34.785,bars,2023.2.3,Win32,40.00320026,,,,,,1649.8798,1650.8762,,,1651.3773,1651.6311,,81,81,,,,,,,,,,,,,,,,bars/031.png,bars/mask002.png,,,,,,,,,,,,0,1,,,,,,,0,4,0,4,,,,,,,,,,,1650.8764,1651.3772,1651.6312,1651.9346,space,0.2758,,1651.9348,39,46,1652.9249,1652.925,1652.9325,,,,0,31,31,31,1,120,35,,,,,,,,
,,613a9b39928d81d5ce5a3f7c,001,2023-12-14_24h16.34.785,bars,2023.2.3,Win32,40.00320026,,,,,,1652.9329,1653.9326,,,1654.4267,1654.6762,,37,37,,,,,,,,,,,,,,,,bars/021.png,bars/mask001.png,,,,,,,,,,,,0,2,,,,,,,2,6,2,5,,,,,,,,,,,1653.9327,1654.4265,1654.6764,1654.7091,space,0.0012,,1654.7092,62,33,1655.7009,1655.701,1655.7106,,,,0,32,32,32,1,155,70,,,,,,,,
,,613a9b39928d81d5ce5a3f7c,001,2023-12-14_24h16.34.785,bars,2023.2.3,Win32,40.00320026,,,,,,1655.711,1656.7072,,,1657.1986,1657.452,,121,121,,,,,,,,,,,,,,,,bars/009.png,bars/mask001.png,,,,,,,,,,,,2,2,,,,,,,4,4,4,5,,,,,,,,,,,1656.7073,1657.1985,1657.4521,1658.2581,space,0.776,,1658.2582,74,16,1659.2565,1659.2566,1659.2583,,,,0,33,33,33,1,15,105,,,,,,,,
,,613a9b39928d81d5ce5a3f7c,001,2023-12-14_24h16.34.785,bars,2023.2.3,Win32,40.00320026,,,,,,1659.259,1660.2499,,,1660.756,1661.0051,,53,53,,,,,,,,,,,,,,,,bars/029.png,bars/mask000.png,,,,,,,,,,,,1,2,,,,,,,2,2,2,2,,,,,,,,,,,1660.2501,1660.7559,1661.0053,1663.1494,space,2.112,,1663.1496,37,8,1664.1487,1664.1488,1664.1733,,,,0,34,34,34,1,90,45,,,,,,,,
,,613a9b39928d81d5ce5a3f7c,001,2023-12-14_24h16.34.785,bars,2023.2.3,Win32,40.00320026,,,,,,1664.1743,1665.1736,,,1665.6801,1665.9233,,177,177,,,,,,,,,,,,,,,,bars/017.png,bars/mask000.png,,,,,,,,,,,,0,1,,,,,,,0,0,0,0,,,,,,,,,,,1665.1737,1665.6799,1665.9233,1665.9567,space,0.0014,,1665.9568,32,48,1666.948,1666.948,1666.9579,,,,0,35,35,35,1,145,45,,,,,,,,
,,613a9b39928d81d5ce5a3f7c,001,2023-12-14_24h16.34.785,bars,2023.2.3,Win32,40.00320026,,,,,,1666.9583,1667.9479,,,1668.4475,1668.6977,,32,32,,,,,,,,,,,,,,,,bars/011.png,bars/mask006.png,,,,,,,,,,,,0,1,,,,,,,2,2,3,2,,,,,,,,,,,1667.948,1668.4475,1668.6978,1671.2999,space,2.5711,,1671.3,52,53,1672.2947,1672.2949,1672.3065,,,,0,36,36,36,1,160,85,,,,,,,,
,,613a9b39928d81d5ce5a3f7c,001,2023-12-14_24h16.34.785,bars,2023.2.3,Win32,40.00320026,,,,,,1672.3068,1673.3027,,,1673.7963,1674.0462,,137,137,,,,,,,,,,,,,,,,bars/018.png,bars/mask000.png,,,,,,,,,,,,2,1,,,,,,,4,0,3,0,,,,,,,,,,,1673.3028,1673.7963,1674.0463,1674.2542,space,0.1765,,1674.2543,13,47,1675.2458,1675.2459,1675.2473,,,,0,37,37,37,1,150,90,,,,,,,,
,,613a9b39928d81d5ce5a3f7c,001,2023-12-14_24h16.34.785,bars,2023.2.3,Win32,40.00320026,,,,,,1675.2479,1676.2454,,,1676.7451,1676.9955,,22,22,,,,,,,,,,,,,,,,bars/015.png,bars/mask008.png,,,,,,,,,,,,0,2,,,,,,,2,2,2,3,,,,,,,,,,,1676.2456,1676.745,1676.9956,1677.2028,space,0.1757,,1677.2029,88,42,1678.2016,1678.2017,1678.2112,,,,0,38,38,38,1,110,160,,,,,,,,
,,613a9b39928d81d5ce5a3f7c,001,2023-12-14_24h16.34.785,bars,2023.2.3,Win32,40.00320026,,,,,,1678.2117,1679.2009,,,1679.6963,1679.9461,,24,24,,,,,,,,,,,,,,,,bars/025.png,bars/mask001.png,,,,,,,,,,,,2,2,,,,,,,4,4,5,5,,,,,,,,,,,1679.201,1679.6962,1679.9462,1680.0524,space,0.0761,,1680.0526,81,16,1681.0443,1681.0444,1681.0458,,,,0,39,39,39,1,105,40,,,,,,,,
,,613a9b39928d81d5ce5a3f7c,001,2023-12-14_24h16.34.785,bars,2023.2.3,Win32,40.00320026,,,,,,1681.0463,1682.0501,,,1682.5497,1682.7955,,145,145,,,,,,,,,,,,,,,,bars/028.png,bars/mask000.png,,,,,,,,,,,,0,2,,,,,,,6,2,6,1,,,,,,,,,,,1682.0502,1682.5497,1682.7956,1683.1267,space,0.3011,,1683.1267,80,25,1684.1173,1684.1174,1684.1188,,,,0,40,40,40,1,45,120,,,,,,,,
,,613a9b39928d81d5ce5a3f7c,001,2023-12-14_24h16.34.785,bars,2023.2.3,Win32,40.00320026,,,,,,1684.1193,1685.1182,,,1685.6165,1685.8681,,26,26,,,,,,,,,,,,,,,,bars/040.png,bars/mask008.png,,,,,,,,,,,,1,2,,,,,,,4,4,3,4,,,,,,,,,,,1685.1182,1685.6162,1685.8681,1685.9008,space,0.0014,,1685.9009,66,21,1686.8927,1686.8928,1686.8946,,,,0,41,41,41,1,140,5,,,,,,,,
,,613a9b39928d81d5ce5a3f7c,001,2023-12-14_24h16.34.785,bars,2023.2.3,Win32,40.00320026,,,,,,1686.8954,1687.899,,,1688.3989,1688.6487,,96,96,,,,,,,,,,,,,,,,bars/047.png,bars/mask009.png,,,,,,,,,,,,0,2,,,,,,,6,2,5,1,,,,,,,,,,,1687.8991,1688.3989,1688.6488,1688.9251,space,0.2515,,1688.9252,81,26,1689.9169,1689.917,1689.9189,,,,0,42,42,42,1,15,70,,,,,,,,
,,613a9b39928d81d5ce5a3f7c,001,2023-12-14_24h16.34.785,bars,2023.2.3,Win32,40.00320026,,,,,,1689.9195,1690.916,,,1691.4167,1691.6666,,54,54,,,,,,,,,,,,,,,,bars/035.png,bars/mask004.png,,,,,,,,,,,,0,2,,,,,,,8,0,8,0,,,,,,,,,,,1690.9164,1691.4166,1691.6667,1691.8993,space,0.2012,,1691.8993,59,6,1692.897,1692.8971,1692.8985,,,,0,43,43,43,1,175,60,,,,,,,,
,,613a9b39928d81d5ce5a3f7c,001,2023-12-14_24h16.34.785,bars,2023.2.3,Win32,40.00320026,,,,,,1692.8992,1693.8908,,,1694.3726,1694.6158,,133,133,,,,,,,,,,,,,,,,bars/011.png,bars/mask005.png,,,,,,,,,,,,1,1,,,,,,,6,2,7,0,,,,,,,,,,,1693.891,1694.3726,1694.6159,1694.7234,space,0.0756,,1694.7235,27,48,1695.7155,1695.7156,1695.7253,,,,0,44,44,44,1,160,85,,,,,,,,
,,613a9b39928d81d5ce5a3f7c,001,2023-12-14_24h16.34.785,bars,2023.2.3,Win32,40.00320026,,,,,,1695.7258,1696.7265,,,1697.2153,1697.4651,,8,8,,,,,,,,,,,,,,,,bars/007.png,bars/mask004.png,,,,,,,,,,,,3,1,,,,,,,4,4,5,5,,,,,,,,,,,1696.7265,1697.2152,1697.4653,1697.6232,space,0.1268,,1697.6233,13,47,1698.6145,1698.6147,1698.6161,,,,0,45,45,45,1,175,55,,,,,,,,
,,613a9b39928d81d5ce5a3f7c,001,2023-12-14_24h16.34.785,bars,2023.2.3,Win32,40.00320026,,,,,,1698.6167,1699.6213,,,1700.1145,1700.3645,,154,154,,,,,,,,,,,,,,,,bars/014.png,bars/mask004.png,,,,,,,,,,,,1,2,,,,,,,6,6,7,4,,,,,,,,,,,1699.6213,1700.1144,1700.3646,1700.597,space,0.201,,1700.597,74,26,1701.5877,1701.5879,1701.5981,,,,0,46,46,46,1,80,0,,,,,,,,
,,613a9b39928d81d5ce5a3f7c,001,2023-12-14_24h16.34.785,bars,2023.2.3,Win32,40.00320026,,,,,,1701.5985,1702.5952,,,1703.0885,1703.3402,,116,116,,,,,,,,,,,,,,,,bars/028.png,bars/mask006.png,,,,,,,,,,,,5,2,,,,,,,4,8,3,6,,,,,,,,,,,1702.5952,1703.0884,1703.3402,1703.5203,space,0.1504,,1703.5203,71,4,1704.52,1704.5201,1704.5215,,,,0,47,47,47,1,45,120,,,,,,,,
,,613a9b39928d81d5ce5a3f7c,001,2023-12-14_24h16.34.785,bars,2023.2.3,Win32,40.00320026,,,,,,1704.5221,1705.513,,,1706.013,1706.2447,,148,148,,,,,,,,,,,,,,,,bars/046.png,bars/mask007.png,,,,,,,,,,,,5,1,,,,,,,6,10,7,10,,,,,,,,,,,1705.5131,1706.0129,1706.2449,1706.6446,space,0.3752,,1706.6448,7,63,1707.6372,1707.6373,1707.6477,,,,0,48,48,48,1,155,85,,,,,,,,
,,613a9b39928d81d5ce5a3f7c,001,2023-12-14_24h16.34.785,bars,2023.2.3,Win32,40.00320026,,,,,,1707.6483,1708.6377,,,1709.1387,1709.3869,,103,103,,,,,,,,,,,,,,,,bars/007.png,bars/mask001.png,,,,,,,,,,,,0,2,,,,,,,8,10,8,10,,,,,,,,,,,1708.6378,1709.1387,1709.3869,1712.8614,space,3.4306,,1712.8615,72,48,1713.861,1713.8611,1713.887,,,,0,49,49,49,1,175,55,,,,,,,,
,,613a9b39928d81d5ce5a3f7c,001,2023-12-14_24h16.34.785,bars,2023.2.3,Win32,40.00320026,,,,,,,,,,,,,,,,,,,,,,,,,,,,,,,,,,,,,,,,,,,,,,,,,,,,,,,,,,,,,,,,,,,,,,,,,,,,,,,,,,,,,,,,1713.8872,1773.8925,0,3,3,0,1,sequence_tables/blk011.csv
,,613a9b39928d81d5ce5a3f7c,001,2023-12-14_24h16.34.785,bars,2023.2.3,Win32,40.00320026,,,,,,1780.4011,1781.3743,,,1781.8679,1782.1156,,101,101,,,,,,,,,,,,,,,,bars/018.png,bars/mask009.png,,,,,,,,,,,,0,2,,,,,,,8,1,8,0,,,,,,1773.9181,1780.3681,space,6.429,,1781.3744,1781.8678,1782.1159,1782.3208,space,0.1723,,1782.321,49,11,1783.3174,1783.3175,1783.3193,,,,0,0,0,0,1,150,90,,,,,,,,
,,613a9b39928d81d5ce5a3f7c,001,2023-12-14_24h16.34.785,bars,2023.2.3,Win32,40.00320026,,,,,,1783.3199,1784.3211,,,1784.817,1785.0669,,134,134,,,,,,,,,,,,,,,,bars/014.png,bars/mask008.png,,,,,,,,,,,,0,2,,,,,,,6,3,5,3,,,,,,,,,,,1784.3211,1784.8168,1785.0669,1785.2493,space,0.1512,,1785.2494,54,46,1786.2414,1786.2415,1786.243,,,,0,1,1,1,1,80,0,,,,,,,,
,,613a9b39928d81d5ce5a3f7c,001,2023-12-14_24h16.34.785,bars,2023.2.3,Win32,40.00320026,,,,,,1786.2435,1787.2478,,,1787.7415,1787.9914,,68,68,,,,,,,,,,,,,,,,bars/007.png,bars/mask003.png,,,,,,,,,,,,3,2,,,,,,,4,5,5,6,,,,,,,,,,,1787.2478,1787.7414,1787.9915,1788.4734,space,0.4509,,1788.4735,73,13,1789.4721,1789.4721,1789.4737,,,,0,2,2,2,1,175,55,,,,,,,,
,,613a9b39928d81d5ce5a3f7c,001,2023-12-14_24h16.34.785,bars,2023.2.3,Win32,40.00320026,,,,,,1789.4743,1790.4654,,,1790.9698,1791.2197,,95,95,,,,,,,,,,,,,,,,bars/007.png,bars/mask008.png,,,,,,,,,,,,0,2,,,,,,,6,3,6,2,,,,,,,,,,,1790.4655,1790.9697,1791.2198,1804.3948,space,13.1499,,1804.3948,80,40,1805.3926,1805.3928,1805.4178,,,,0,3,3,3,1,175,55,,,,,,,,
,,613a9b39928d81d5ce5a3f7c,001,2023-12-14_24h16.34.785,bars,2023.2.3,Win32,40.00320026,,,,,,1805.4184,1806.4111,,,1806.9101,1807.1651,,172,172,,,,,,,,,,,,,,,,bars/014.png,bars/mask003.png,,,,,,,,,,,,0,2,,,,,,,8,1,6,0,,,,,,,,,,,1806.4112,1806.9099,1807.1652,1807.9679,space,0.7778,,1807.968,88,8,1808.9589,1808.959,1808.9601,,,,0,4,4,4,1,80,0,,,,,,,,
,,613a9b39928d81d5ce5a3f7c,001,2023-12-14_24h16.34.785,bars,2023.2.3,Win32,40.00320026,,,,,,1808.9606,1809.9639,,,1810.4618,1810.7102,,12,12,,,,,,,,,,,,,,,,bars/027.png,bars/mask000.png,,,,,,,,,,,,0,2,,,,,,,10,3,10,3,,,,,,,,,,,1809.9639,1810.4617,1810.7103,1812.1175,space,1.3759,,1812.1175,82,38,1813.1095,1813.1096,1813.1114,,,,0,5,5,5,1,110,50,,,,,,,,
,,613a9b39928d81d5ce5a3f7c,001,2023-12-14_24h16.34.785,bars,2023.2.3,Win32,40.00320026,,,,,,1813.1121,1814.1092,,,1814.6089,1814.8646,,156,156,,,,,,,,,,,,,,,,bars/032.png,bars/mask005.png,,,,,,,,,,,,0,1,,,,,,,8,1,8,0,,,,,,,,,,,1814.1092,1814.6086,1814.8647,1816.0925,space,1.2016,,1816.0925,31,44,1817.0835,1817.0835,1817.094,,,,0,6,6,6,1,125,20,,,,,,,,
,,613a9b39928d81d5ce5a3f7c,001,2023-12-14_24h16.34.785,bars,2023.2.3,Win32,40.00320026,,,,,,1817.0945,1818.0833,,,1818.5847,1818.8397,,148,148,,,,,,,,,,,,,,,,bars/015.png,bars/mask005.png,,,,,,,,,,,,0,2,,,,,,,6,0,6,0,,,,,,,,,,,1818.0833,1818.5845,1818.8397,1819.0398,space,0.175,,1819.0398,38,12,1820.0325,1820.0326,1820.0428,,,,0,7,7,7,1,110,160,,,,,,,,
,,613a9b39928d81d5ce5a3f7c,001,2023-12-14_24h16.34.785,bars,2023.2.3,Win32,40.00320026,,,,,,1820.0435,1821.0387,,,1821.5342,1821.7822,,81,81,,,,,,,,,,,,,,,,bars/026.png,bars/mask008.png,,,,,,,,,,,,0,2,,,,,,,4,0,6,0,,,,,,,,,,,1821.0388,1821.5342,1821.7823,1822.0646,space,0.2508,,1822.0647,46,4,1823.0567,1823.0567,1823.0585,,,,0,8,8,8,1,35,85,,,,,,,,
,,613a9b39928d81d5ce5a3f7c,001,2023-12-14_24h16.34.785,bars,2023.2.3,Win32,40.00320026,,,,,,1823.0592,1824.0565,,,1824.557,1824.8058,,33,33,,,,,,,,,,,,,,,,bars/041.png,bars/mask005.png,,,,,,,,,,,,3,1,,,,,,,6,0,6,0,,,,,,,,,,,1824.0566,1824.557,1824.806,1824.8892,space,0.0514,,1824.8893,13,52,1825.8849,1825.8849,1825.8958,,,,0,9,9,9,1,20,85,,,,,,,,
,,613a9b39928d81d5ce5a3f7c,001,2023-12-14_24h16.34.785,bars,2023.2.3,Win32,40.00320026,,,,,,1825.8962,1826.8858,,,1827.3855,1827.6329,,119,119,,,,,,,,,,,,,,,,bars/038.png,bars/mask000.png,,,,,,,,,,,,0,1,,,,,,,8,2,8,3,,,,,,,,,,,1826.886,1827.3854,1827.633,1827.8824,space,0.2374,,1827.8824,46,49,1828.8808,1828.8809,1828.8826,,,,0,10,10,10,1,165,70,,,,,,,,
,,613a9b39928d81d5ce5a3f7c,001,2023-12-14_24h16.34.785,bars,2023.2.3,Win32,40.00320026,,,,,,1828.8836,1829.8807,,,1830.3849,1830.6325,,50,50,,,,,,,,,,,,,,,,bars/024.png,bars/mask008.png,,,,,,,,,,,,0,2,,,,,,,6,0,7,0,,,,,,,,,,,1829.8808,1830.3848,1830.6326,1830.7849,space,0.1221,,1830.785,70,60,1831.7781,1831.7782,1831.7891,,,,0,11,11,11,1,120,170,,,,,,,,
,,613a9b39928d81d5ce5a3f7c,001,2023-12-14_24h16.34.785,bars,2023.2.3,Win32,40.00320026,,,,,,1831.7896,1832.7783,,,1833.2834,1833.5313,,0,0,,,,,,,,,,,,,,,,bars/021.png,bars/mask000.png,,,,,,,,,,,,1,1,,,,,,,4,2,5,2,,,,,,,,,,,1832.7784,1833.2834,1833.5313,1834.028,space,0.47,,1834.028,25,70,1835.0275,1835.0276,1835.0388,,,,0,12,12,12,1,155,70,,,,,,,,
,,613a9b39928d81d5ce5a3f7c,001,2023-12-14_24h16.34.785,bars,2023.2.3,Win32,40.00320026,,,,,,1835.0393,1836.0276,,,1836.5313,1836.7792,,1,1,,,,,,,,,,,,,,,,bars/002.png,bars/mask003.png,,,,,,,,,,,,0,1,,,,,,,6,0,7,0,,,,,,,,,,,1836.0278,1836.5312,1836.7793,1837.1075,space,0.3068,,1837.1077,51,84,1838.1071,1838.1071,1838.1089,,,,0,13,13,13,1,130,85,,,,,,,,
,,613a9b39928d81d5ce5a3f7c,001,2023-12-14_24h16.34.785,bars,2023.2.3,Win32,40.00320026,,,,,,1838.1098,1839.1069,,,1839.603,1839.8512,,26,26,,,,,,,,,,,,,,,,bars/041.png,bars/mask000.png,,,,,,,,,,,,6,1,,,,,,,8,2,7,2,,,,,,,,,,,1839.107,1839.6029,1839.8512,1839.9793,space,0.1064,,1839.9793,6,59,1840.9785,1840.9786,1840.9802,,,,0,14,14,14,1,20,85,,,,,,,,
,,613a9b39928d81d5ce5a3f7c,001,2023-12-14_24h16.34.785,bars,2023.2.3,Win32,40.00320026,,,,,,1840.9809,1841.9786,,,1842.4754,1842.7303,,64,64,,,,,,,,,,,,,,,,bars/002.png,bars/mask007.png,,,,,,,,,,,,2,2,,,,,,,10,4,10,6,,,,,,,,,,,1841.9787,1842.4752,1842.7304,1843.0268,space,0.2697,,1843.0269,66,21,1844.0262,1844.0263,1844.0371,,,,0,15,15,15,1,130,85,,,,,,,,
,,613a9b39928d81d5ce5a3f7c,001,2023-12-14_24h16.34.785,bars,2023.2.3,Win32,40.00320026,,,,,,1844.0375,1845.026,,,1845.5303,1845.7784,,140,140,,,,,,,,,,,,,,,,bars/038.png,bars/mask000.png,,,,,,,,,,,,2,1,,,,,,,10,2,10,2,,,,,,,,,,,1845.026,1845.5303,1845.7787,1846.0749,space,0.2692,,1846.0751,25,70,1847.0744,1847.0745,1847.0854,,,,0,16,16,16,1,165,70,,,,,,,,
,,613a9b39928d81d5ce5a3f7c,001,2023-12-14_24h16.34.785,bars,2023.2.3,Win32,40.00320026,,,,,,1847.0858,1848.0742,,,1848.578,1848.8261,,121,121,,,,,,,,,,,,,,,,bars/026.png,bars/mask009.png,,,,,,,,,,,,0,2,,,,,,,8,0,6,0,,,,,,,,,,,1848.0742,1848.5779,1848.8263,1851.1252,space,2.2757,,1851.1254,86,36,1852.1247,1852.1248,1852.1509,,,,0,17,17,17,1,35,85,,,,,,,,
,,613a9b39928d81d5ce5a3f7c,001,2023-12-14_24h16.34.785,bars,2023.2.3,Win32,40.00320026,,,,,,1852.1514,1853.1498,,,1853.654,1853.8959,,107,107,,,,,,,,,,,,,,,,bars/002.png,bars/mask008.png,,,,,,,,,,,,1,2,,,,,,,10,2,10,3,,,,,,,,,,,1853.15,1853.6539,1853.896,1854.7236,space,0.8067,,1854.7237,23,22,1855.7219,1855.722,1855.7252,,,,0,18,18,18,1,130,85,,,,,,,,
,,613a9b39928d81d5ce5a3f7c,001,2023-12-14_24h16.34.785,bars,2023.2.3,Win32,40.00320026,,,,,,1855.7261,1856.7235,,,1857.2275,1857.4754,,30,30,,,,,,,,,,,,,,,,bars/008.png,bars/mask008.png,,,,,,,,,,,,0,2,,,,,,,10,4,10,7,,,,,,,,,,,1856.7235,1857.2274,1857.4754,1858.3976,space,0.9099,,1858.3977,80,30,1859.397,1859.3972,1859.3988,,,,0,19,19,19,1,110,0,,,,,,,,
,,613a9b39928d81d5ce5a3f7c,001,2023-12-14_24h16.34.785,bars,2023.2.3,Win32,40.00320026,,,,,,1859.3995,1860.3972,,,1860.9016,1861.1494,,126,126,,,,,,,,,,,,,,,,bars/034.png,bars/mask007.png,,,,,,,,,,,,8,1,,,,,,,8,6,8,5,,,,,,,,,,,1860.3973,1860.9015,1861.1494,1863.1497,space,1.9785,,1863.1498,1,61,1864.1492,1864.1493,1864.1814,,,,0,20,20,20,1,125,65,,,,,,,,
,,613a9b39928d81d5ce5a3f7c,001,2023-12-14_24h16.34.785,bars,2023.2.3,Win32,40.00320026,,,,,,1864.1822,1865.1706,,,1865.6705,1865.9205,,110,110,,,,,,,,,,,,,,,,bars/029.png,bars/mask006.png,,,,,,,,,,,,2,1,,,,,,,6,8,6,8,,,,,,,,,,,1865.1707,1865.6703,1865.9205,1866.3283,space,0.3761,,1866.3284,20,65,1867.3201,1867.3203,1867.3219,,,,0,21,21,21,1,90,45,,,,,,,,
,,613a9b39928d81d5ce5a3f7c,001,2023-12-14_24h16.34.785,bars,2023.2.3,Win32,40.00320026,,,,,,1867.3226,1868.3257,,,1868.8198,1869.0679,,121,121,,,,,,,,,,,,,,,,bars/007.png,bars/mask005.png,,,,,,,,,,,,0,1,,,,,,,4,6,4,7,,,,,,,,,,,1868.3257,1868.8197,1869.068,1869.0996,space,0.0008,,1869.0996,54,66,1870.0943,1870.0944,1870.0963,,,,0,22,22,22,1,175,55,,,,,,,,
,,613a9b39928d81d5ce5a3f7c,001,2023-12-14_24h16.34.785,bars,2023.2.3,Win32,40.00320026,,,,,,1870.0971,1871.0954,,,1871.5949,1871.8447,,99,99,,,,,,,,,,,,,,,,bars/025.png,bars/mask002.png,,,,,,,,,,,,6,1,,,,,,,6,4,7,4,,,,,,,,,,,1871.0955,1871.5948,1871.8447,1871.877,space,0.0014,,1871.8771,6,59,1872.8685,1872.8685,1872.8695,,,,0,23,23,23,1,105,40,,,,,,,,
,,613a9b39928d81d5ce5a3f7c,001,2023-12-14_24h16.34.785,bars,2023.2.3,Win32,40.00320026,,,,,,1872.8699,1873.8685,,,1874.3705,1874.6252,,20,20,,,,,,,,,,,,,,,,bars/010.png,bars/mask009.png,,,,,,,,,,,,0,2,,,,,,,4,6,4,5,,,,,,,,,,,1873.8687,1874.3704,1874.6252,1874.6518,space,0.0018,,1874.6519,35,35,1875.6501,1875.6501,1875.6604,,,,0,24,24,24,1,165,55,,,,,,,,
,,613a9b39928d81d5ce5a3f7c,001,2023-12-14_24h16.34.785,bars,2023.2.3,Win32,40.00320026,,,,,,1875.6609,1876.6498,,,1877.1427,1877.3925,,116,116,,,,,,,,,,,,,,,,bars/049.png,bars/mask008.png,,,,,,,,,,,,7,2,,,,,,,6,8,5,7,,,,,,,,,,,1876.6498,1877.1426,1877.3925,1877.7498,space,0.3259,,1877.7499,44,1,1878.7476,1878.7478,1878.7494,,,,0,25,25,25,1,160,115,,,,,,,,
,,613a9b39928d81d5ce5a3f7c,001,2023-12-14_24h16.34.785,bars,2023.2.3,Win32,40.00320026,,,,,,1878.7499,1879.7418,,,1880.2496,1880.4919,,176,176,,,,,,,,,,,,,,,,bars/029.png,bars/mask003.png,,,,,,,,,,,,0,2,,,,,,,4,10,4,9,,,,,,,,,,,1879.7418,1880.2495,1880.492,1880.6499,space,0.1267,,1880.6499,86,49,1881.6479,1881.6481,1881.6497,,,,0,26,26,26,1,90,45,,,,,,,,
,,613a9b39928d81d5ce5a3f7c,001,2023-12-14_24h16.34.785,bars,2023.2.3,Win32,40.00320026,,,,,,1881.6504,1882.6397,,,1883.1411,1883.3925,,108,108,,,,,,,,,,,,,,,,bars/046.png,bars/mask007.png,,,,,,,,,,,,2,2,,,,,,,6,10,6,10,,,,,,,,,,,1882.6397,1883.141,1883.3925,1883.6741,space,0.2513,,1883.6742,47,23,1884.6656,1884.6657,1884.6672,,,,0,27,27,27,1,155,85,,,,,,,,
,,613a9b39928d81d5ce5a3f7c,001,2023-12-14_24h16.34.785,bars,2023.2.3,Win32,40.00320026,,,,,,1884.6677,1885.6657,,,1886.1647,1886.4153,,59,59,,,,,,,,,,,,,,,,bars/030.png,bars/mask001.png,,,,,,,,,,,,7,2,,,,,,,4,8,4,9,,,,,,,,,,,1885.6658,1886.1645,1886.4154,1886.4983,space,0.0519,,1886.4984,81,6,1887.4903,1887.4904,1887.4922,,,,0,28,28,28,1,140,65,,,,,,,,
,,613a9b39928d81d5ce5a3f7c,001,2023-12-14_24h16.34.785,bars,2023.2.3,Win32,40.00320026,,,,,,1887.4928,1888.4894,,,1888.9961,1889.2458,,121,121,,,,,,,,,,,,,,,,bars/018.png,bars/mask003.png,,,,,,,,,,,,0,1,,,,,,,6,10,6,10,,,,,,,,,,,1888.4896,1888.9959,1889.2459,1889.497,space,0.2262,,1889.497,29,31,1890.4893,1890.4893,1890.4999,,,,0,29,29,29,1,150,90,,,,,,,,
,,613a9b39928d81d5ce5a3f7c,001,2023-12-14_24h16.34.785,bars,2023.2.3,Win32,40.00320026,,,,,,1890.5003,1891.4888,,,1891.9903,1892.2385,,43,43,,,,,,,,,,,,,,,,bars/023.png,bars/mask006.png,,,,,,,,,,,,2,1,,,,,,,8,8,7,7,,,,,,,,,,,1891.4889,1891.9902,1892.2386,1892.3214,space,0.0515,,1892.3214,23,72,1893.3187,1893.3188,1893.3201,,,,0,30,30,30,1,20,115,,,,,,,,
,,613a9b39928d81d5ce5a3f7c,001,2023-12-14_24h16.34.785,bars,2023.2.3,Win32,40.00320026,,,,,,1893.3206,1894.3202,,,1894.813,1895.0632,,107,107,,,,,,,,,,,,,,,,bars/023.png,bars/mask006.png,,,,,,,,,,,,6,2,,,,,,,10,6,10,8,,,,,,,,,,,1894.3202,1894.813,1895.0632,1895.4463,space,0.3521,,1895.4465,87,8,1896.4375,1896.4375,1896.4478,,,,0,31,31,31,1,20,115,,,,,,,,
,,613a9b39928d81d5ce5a3f7c,001,2023-12-14_24h16.34.785,bars,2023.2.3,Win32,40.00320026,,,,,,1896.4482,1897.4387,,,1897.9372,1898.1866,,41,41,,,,,,,,,,,,,,,,bars/034.png,bars/mask002.png,,,,,,,,,,,,2,2,,,,,,,8,8,8,8,,,,,,,,,,,1897.4388,1897.9371,1898.1869,1898.5946,space,0.3761,,1898.5947,84,24,1899.5866,1899.5867,1899.5882,,,,0,32,32,32,1,125,65,,,,,,,,
,,613a9b39928d81d5ce5a3f7c,001,2023-12-14_24h16.34.785,bars,2023.2.3,Win32,40.00320026,,,,,,1899.5887,1900.5864,,,1901.088,1901.3362,,169,169,,,,,,,,,,,,,,,,bars/033.png,bars/mask008.png,,,,,,,,,,,,4,2,,,,,,,6,10,6,8,,,,,,,,,,,1900.5865,1901.088,1901.3363,1901.5692,space,0.2016,,1901.5692,36,14,1902.5614,1902.5615,1902.5635,,,,0,33,33,33,1,25,155,,,,,,,,
,,613a9b39928d81d5ce5a3f7c,001,2023-12-14_24h16.34.785,bars,2023.2.3,Win32,40.00320026,,,,,,1902.5641,1903.5607,,,1904.0607,1904.3103,,80,80,,,,,,,,,,,,,,,,bars/041.png,bars/mask007.png,,,,,,,,,,,,7,2,,,,,,,4,10,3,8,,,,,,,,,,,1903.5607,1904.0606,1904.3103,1904.6189,space,0.2767,,1904.619,60,5,1905.6117,1905.6118,1905.6135,,,,0,34,34,34,1,20,85,,,,,,,,
,,613a9b39928d81d5ce5a3f7c,001,2023-12-14_24h16.34.785,bars,2023.2.3,Win32,40.00320026,,,,,,1905.6141,1906.6113,,,1907.11,1907.3597,,159,159,,,,,,,,,,,,,,,,bars/043.png,bars/mask004.png,,,,,,,,,,,,0,2,,,,,,,6,8,5,8,,,,,,,,,,,1906.6114,1907.1099,1907.3598,1907.7147,space,0.3235,,1907.7148,51,29,1908.711,1908.7111,1908.7126,,,,0,35,35,35,1,30,130,,,,,,,,
,,613a9b39928d81d5ce5a3f7c,001,2023-12-14_24h16.34.785,bars,2023.2.3,Win32,40.00320026,,,,,,1908.7133,1909.7089,,,1910.2092,1910.4587,,83,83,,,,,,,,,,,,,,,,bars/031.png,bars/mask006.png,,,,,,,,,,,,0,1,,,,,,,8,10,9,10,,,,,,,,,,,1909.7089,1910.2091,1910.4588,1910.5919,space,0.102,,1910.5921,37,48,1911.5829,1911.5833,1911.5942,,,,0,36,36,36,1,120,35,,,,,,,,
,,613a9b39928d81d5ce5a3f7c,001,2023-12-14_24h16.34.785,bars,2023.2.3,Win32,40.00320026,,,,,,1911.5947,1912.5832,,,1913.0907,1913.3331,,4,4,,,,,,,,,,,,,,,,bars/043.png,bars/mask009.png,,,,,,,,,,,,1,1,,,,,,,10,10,10,10,,,,,,,,,,,1912.5833,1913.0906,1913.3332,1913.4861,space,0.1215,,1913.4861,26,54,1914.4896,1914.4897,1914.4912,,,,0,37,37,37,1,30,130,,,,,,,,
,,613a9b39928d81d5ce5a3f7c,001,2023-12-14_24h16.34.785,bars,2023.2.3,Win32,40.00320026,,,,,,1914.4917,1915.4912,,,1915.9826,1916.2389,,126,126,,,,,,,,,,,,,,,,bars/004.png,bars/mask005.png,,,,,,,,,,,,10,2,,,,,,,8,10,7,10,,,,,,,,,,,1915.4913,1915.9825,1916.2391,1916.5401,space,0.2763,,1916.5401,79,1,1917.5319,1917.5319,1917.5423,,,,0,38,38,38,1,25,125,,,,,,,,
,,613a9b39928d81d5ce5a3f7c,001,2023-12-14_24h16.34.785,bars,2023.2.3,Win32,40.00320026,,,,,,1917.5427,1918.5315,,,1919.0133,1919.2559,,99,99,,,,,,,,,,,,,,,,bars/037.png,bars/mask007.png,,,,,,,,,,,,7,2,,,,,,,10,8,9,9,,,,,,,,,,,1918.5316,1919.0133,1919.2561,1919.4143,space,0.1264,,1919.4145,51,6,1920.4061,1920.4061,1920.4076,,,,0,39,39,39,1,150,105,,,,,,,,
,,613a9b39928d81d5ce5a3f7c,001,2023-12-14_24h16.34.785,bars,2023.2.3,Win32,40.00320026,,,,,,1920.4082,1921.4059,,,1921.9122,1922.1557,,168,168,,,,,,,,,,,,,,,,bars/005.png,bars/mask005.png,,,,,,,,,,,,2,1,,,,,,,8,6,7,6,,,,,,,,,,,1921.4059,1921.9121,1922.1557,1922.5586,space,0.3716,,1922.5587,22,28,1923.5552,1923.5552,1923.5657,,,,0,40,40,40,1,10,140,,,,,,,,
,,613a9b39928d81d5ce5a3f7c,001,2023-12-14_24h16.34.785,bars,2023.2.3,Win32,40.00320026,,,,,,1923.5661,1924.555,,,1925.0553,1925.3115,,55,55,,,,,,,,,,,,,,,,bars/034.png,bars/mask001.png,,,,,,,,,,,,3,2,,,,,,,6,4,6,4,,,,,,,,,,,1924.5551,1925.0552,1925.3116,1925.5552,space,0.2093,,1925.5553,70,10,1926.5544,1926.5545,1926.5653,,,,0,41,41,41,1,125,65,,,,,,,,
,,613a9b39928d81d5ce5a3f7c,001,2023-12-14_24h16.34.785,bars,2023.2.3,Win32,40.00320026,,,,,,1926.5658,1927.5609,,,1928.0543,1928.3041,,19,19,,,,,,,,,,,,,,,,bars/011.png,bars/mask006.png,,,,,,,,,,,,0,1,,,,,,,4,2,3,3,,,,,,,,,,,1927.561,1928.0542,1928.3041,1928.562,space,0.2265,,1928.5621,39,66,1929.5537,1929.5538,1929.5644,,,,0,42,42,42,1,160,85,,,,,,,,
,,613a9b39928d81d5ce5a3f7c,001,2023-12-14_24h16.34.785,bars,2023.2.3,Win32,40.00320026,,,,,,1929.5648,1930.5597,,,1931.0549,1931.2865,,120,120,,,,,,,,,,,,,,,,bars/041.png,bars/mask007.png,,,,,,,,,,,,0,2,,,,,,,6,0,6,0,,,,,,,,,,,1930.5597,1931.0549,1931.2865,1931.586,space,0.2758,,1931.586,80,35,1932.5829,1932.583,1932.5912,,,,0,43,43,43,1,20,85,,,,,,,,
,,613a9b39928d81d5ce5a3f7c,001,2023-12-14_24h16.34.785,bars,2023.2.3,Win32,40.00320026,,,,,,1932.5915,1933.5747,,,1934.0589,1934.3025,,108,108,,,,,,,,,,,,,,,,bars/005.png,bars/mask009.png,,,,,,,,,,,,0,2,,,,,,,4,2,2,2,,,,,,,,,,,1933.5748,1934.0588,1934.3025,1934.6101,space,0.2759,,1934.6102,82,32,1935.6086,1935.6086,1935.6102,,,,0,44,44,44,1,10,140,,,,,,,,
,,613a9b39928d81d5ce5a3f7c,001,2023-12-14_24h16.34.785,bars,2023.2.3,Win32,40.00320026,,,,,,1935.6108,1936.6017,,,1937.1012,1937.3334,,129,129,,,,,,,,,,,,,,,,bars/020.png,bars/mask005.png,,,,,,,,,,,,1,1,,,,,,,2,0,1,1,,,,,,,,,,,1936.6019,1937.101,1937.3335,1937.7342,space,0.3762,,1937.7343,14,41,1938.7325,1938.7326,1938.7431,,,,0,45,45,45,1,115,170,,,,,,,,
,,613a9b39928d81d5ce5a3f7c,001,2023-12-14_24h16.34.785,bars,2023.2.3,Win32,40.00320026,,,,,,1938.7436,1939.7259,,,1940.2076,1940.4498,,92,92,,,,,,,,,,,,,,,,bars/014.png,bars/mask008.png,,,,,,,,,,,,0,1,,,,,,,0,2,0,2,,,,,,,,,,,1939.726,1940.2075,1940.45,1940.6581,space,0.1757,,1940.6582,12,88,1941.6508,1941.6509,1941.6532,,,,0,46,46,46,1,80,0,,,,,,,,
,,613a9b39928d81d5ce5a3f7c,001,2023-12-14_24h16.34.785,bars,2023.2.3,Win32,40.00320026,,,,,,1941.6539,1942.6488,,,1943.1567,1943.4066,,167,167,,,,,,,,,,,,,,,,bars/046.png,bars/mask005.png,,,,,,,,,,,,2,1,,,,,,,2,4,3,4,,,,,,,,,,,1942.6489,1943.1566,1943.4067,1943.8079,space,0.3763,,1943.808,12,82,1944.8061,1944.8062,1944.8076,,,,0,47,47,47,1,155,85,,,,,,,,
