init_variables.started,init_variables.stopped,participant,session,date,expName,psychopyVersion,OS,frameRate,instruction_single.started,instruction_single.stopped,key_resp_2.keys,key_resp_2.rt,key_resp_2.duration,interval.started,interval.stopped,cue_single.started,cue_single.stopped,mask.started,mask.stopped,ori_response_single.started,res_ori,res,ori_response_single.stopped,key_resp_single.keys,key_resp_single.rt,key_resp_single.duration,disp_single.started,disp_single.stopped,key_resp.keys,key_resp.rt,key_resp.duration,single.thisRepN,single.thisTrialN,single.thisN,single.thisIndex,single.ran,ori,path,mask_path,instruction_bandit.started,instruction_bandit.stopped,key_resp_6.keys,key_resp_6.rt,key_resp_6.duration,cue_bandit.started,cue_bandit.stopped,bandit_res.keys,bandit_res.rt,bandit_res.duration,outcome_bandit.started,rew,action,outcome_bandit.stopped,bandit.thisRepN,bandit.thisTrialN,bandit.thisN,bandit.thisIndex,bandit.ran,actual_rew1,actual_rew2,rew1,rew2,instruction_task.started,instruction_task.stopped,key_resp_7.keys,key_resp_7.rt,key_resp_7.duration,wait_ready.started,wait_ready.stopped,key_resp_3.keys,key_resp_3.rt,key_resp_3.duration,cue.started,cue.stopped,ori_response.started,ori_response.stopped,key_resp_5.keys,key_resp_5.rt,key_resp_5.duration,outcome.started,diff1,diff2,outcome.stopped,disp_outcome_practice.started,disp_outcome_practice.stopped,key_resp_4.keys,key_resp_4.rt,key_resp_4.duration,trials.thisRepN,trials.thisTrialN,trials.thisN,trials.thisIndex,trials.ran,ori1,ori2,break_blk.started,break_blk.stopped,block.thisRepN,block.thisTrialN,block.thisN,block.thisIndex,block.ran,condition_file
0.0002,0.0003,64b6bf2ad951a2caf97a534a,001,2023-12-14_15h17.17.933,bars,2023.2.3,Win32,75.18796992,,,,,,,,,,,,,,,,,,,,,,,,,,,,,,,,,,,,,,,,,,,,,,,,,,,,,,,,,,,,,,,,,,,,,,,,,,,,,,,,,,,,,,,,,,,,,,,
,,64b6bf2ad951a2caf97a534a,001,2023-12-14_15h17.17.933,bars,2023.2.3,Win32,75.18796992,0.0005,16.2355,space,16.2197,,,,,,,,,,,,,,,,,,,,,,,,,,,,,,,,,,,,,,,,,,,,,,,,,,,,,,,,,,,,,,,,,,,,,,,,,,,,,,,,,,,,,,,,,,,
,,64b6bf2ad951a2caf97a534a,001,2023-12-14_15h17.17.933,bars,2023.2.3,Win32,75.18796992,,,,,,16.2391,17.2369,17.237,17.7299,17.7299,17.9706,17.9706,176,176,27.6267,space,9.6371,,27.6268,35.7362,space,8.0882,,0,0,0,6,1,175,bars/single006.png,bars/mask005.png,,,,,,,,,,,,,,,,,,,,,,,,,,,,,,,,,,,,,,,,,,,,,,,,,,,,,,,,,,,,,,,,
,,64b6bf2ad951a2caf97a534a,001,2023-12-14_15h17.17.933,bars,2023.2.3,Win32,75.18796992,,,,,,35.7429,36.7372,36.7372,37.2293,37.2293,37.4701,37.4701,152,152,42.4847,space,5.0019,,42.4847,47.9135,space,5.4114,,0,1,1,8,1,160,bars/single008.png,bars/mask004.png,,,,,,,,,,,,,,,,,,,,,,,,,,,,,,,,,,,,,,,,,,,,,,,,,,,,,,,,,,,,,,,,
,,64b6bf2ad951a2caf97a534a,001,2023-12-14_15h17.17.933,bars,2023.2.3,Win32,75.18796992,,,,,,47.9197,48.9156,48.9156,49.4072,49.4072,49.6479,49.6479,32,32,51.9281,space,2.2661,,51.9281,53.5554,space,1.6151,,0,2,2,3,1,20,bars/single003.png,bars/mask005.png,,,,,,,,,,,,,,,,,,,,,,,,,,,,,,,,,,,,,,,,,,,,,,,,,,,,,,,,,,,,,,,,
,,64b6bf2ad951a2caf97a534a,001,2023-12-14_15h17.17.933,bars,2023.2.3,Win32,75.18796992,,,,,,53.5555,54.5556,54.5556,55.05,55.0501,55.3027,55.3028,79,79,58.3705,space,3.0567,,58.3705,61.3316,space,2.9467,,0,3,3,5,1,55,bars/single005.png,bars/mask008.png,,,,,,,,,,,,,,,,,,,,,,,,,,,,,,,,,,,,,,,,,,,,,,,,,,,,,,,,,,,,,,,,
,,64b6bf2ad951a2caf97a534a,001,2023-12-14_15h17.17.933,bars,2023.2.3,Win32,75.18796992,,,,,,61.3378,62.3319,62.3319,62.8252,62.8252,63.0658,63.0658,40,40,68.2412,space,5.1682,,68.2412,71.1893,space,2.9275,,0,4,4,7,1,45,bars/single007.png,bars/mask009.png,,,,,,,,,,,,,,,,,,,,,,,,,,,,,,,,,,,,,,,,,,,,,,,,,,,,,,,,,,,,,,,,
,,64b6bf2ad951a2caf97a534a,001,2023-12-14_15h17.17.933,bars,2023.2.3,Win32,75.18796992,,,,,,71.1954,72.1889,72.1889,72.6824,72.6825,72.9357,72.9358,38,38,75.07,space,2.1227,,75.07,76.3778,space,1.2969,,0,5,5,1,1,20,bars/single001.png,bars/mask006.png,,,,,,,,,,,,,,,,,,,,,,,,,,,,,,,,,,,,,,,,,,,,,,,,,,,,,,,,,,,,,,,,
,,64b6bf2ad951a2caf97a534a,001,2023-12-14_15h17.17.933,bars,2023.2.3,Win32,75.18796992,,,,,,76.3779,77.379,77.3791,77.8709,77.8709,78.1115,78.1115,24,24,80.099,space,1.9766,,80.099,81.8188,space,1.7025,,0,6,6,9,1,20,bars/single009.png,bars/mask006.png,,,,,,,,,,,,,,,,,,,,,,,,,,,,,,,,,,,,,,,,,,,,,,,,,,,,,,,,,,,,,,,,
,,64b6bf2ad951a2caf97a534a,001,2023-12-14_15h17.17.933,bars,2023.2.3,Win32,75.18796992,,,,,,81.819,82.8197,82.8197,83.3131,83.3131,83.5534,83.5535,107,287,87.8349,space,4.2759,,87.8349,88.9824,space,1.1279,,0,7,7,4,1,95,bars/single004.png,bars/mask004.png,,,,,,,,,,,,,,,,,,,,,,,,,,,,,,,,,,,,,,,,,,,,,,,,,,,,,,,,,,,,,,,,
,,64b6bf2ad951a2caf97a534a,001,2023-12-14_15h17.17.933,bars,2023.2.3,Win32,75.18796992,,,,,,88.9825,89.9821,89.9821,90.4762,90.4762,90.729,90.729,139,-41,94.6638,space,3.922,,94.6638,95.7442,space,1.0661,,0,8,8,2,1,145,bars/single002.png,bars/mask003.png,,,,,,,,,,,,,,,,,,,,,,,,,,,,,,,,,,,,,,,,,,,,,,,,,,,,,,,,,,,,,,,,
,,64b6bf2ad951a2caf97a534a,001,2023-12-14_15h17.17.933,bars,2023.2.3,Win32,75.18796992,,,,,,95.7444,96.7445,96.7445,97.2383,97.2383,97.4916,97.4916,154,154,99.5188,space,2.0179,,99.5188,101.0129,space,1.4823,,0,9,9,0,1,150,bars/single000.png,bars/mask006.png,,,,,,,,,,,,,,,,,,,,,,,,,,,,,,,,,,,,,,,,,,,,,,,,,,,,,,,,,,,,,,,,
,,64b6bf2ad951a2caf97a534a,001,2023-12-14_15h17.17.933,bars,2023.2.3,Win32,75.18796992,,,,,,,,,,,,,,,,,,,,,,,,,,,,,,,,101.0133,130.6373,space,29.6147,,,,,,,,,,,,,,,,,,,,,,,,,,,,,,,,,,,,,,,,,,,,,,,,,,,,,,,,,,,,
,,64b6bf2ad951a2caf97a534a,001,2023-12-14_15h17.17.933,bars,2023.2.3,Win32,75.18796992,,,,,,,,,,,,,,,,,,,,,,,,,,,,,,,,,,,,,130.6449,137.306,right,6.6432,,137.3061,2,2,138.3063,0,0,0,0,1,9,1,9,2,,,,,,,,,,,,,,,,,,,,,,,,,,,,,,,,,,,,,,,,,
,,64b6bf2ad951a2caf97a534a,001,2023-12-14_15h17.17.933,bars,2023.2.3,Win32,75.18796992,,,,,,,,,,,,,,,,,,,,,,,,,,,,,,,,,,,,,138.3066,142.6145,right,4.3009,,142.6145,1,2,143.6153,0,1,1,1,1,10,0,10,1,,,,,,,,,,,,,,,,,,,,,,,,,,,,,,,,,,,,,,,,,
,,64b6bf2ad951a2caf97a534a,001,2023-12-14_15h17.17.933,bars,2023.2.3,Win32,75.18796992,,,,,,,,,,,,,,,,,,,,,,,,,,,,,,,,,,,,,143.6214,147.1494,right,3.517,,147.1495,2,2,148.1505,0,2,2,2,1,10,2,10,2,,,,,,,,,,,,,,,,,,,,,,,,,,,,,,,,,,,,,,,,,
,,64b6bf2ad951a2caf97a534a,001,2023-12-14_15h17.17.933,bars,2023.2.3,Win32,75.18796992,,,,,,,,,,,,,,,,,,,,,,,,,,,,,,,,,,,,,148.1637,149.6306,left,1.4538,,149.6306,7,1,150.6315,0,3,3,3,1,8,4,7,3,,,,,,,,,,,,,,,,,,,,,,,,,,,,,,,,,,,,,,,,,
,,64b6bf2ad951a2caf97a534a,001,2023-12-14_15h17.17.933,bars,2023.2.3,Win32,75.18796992,,,,,,,,,,,,,,,,,,,,,,,,,,,,,,,,,,,,,150.6318,151.858,left,1.2098,,151.8581,5,1,152.8593,0,4,4,4,1,6,2,5,1,,,,,,,,,,,,,,,,,,,,,,,,,,,,,,,,,,,,,,,,,
,,64b6bf2ad951a2caf97a534a,001,2023-12-14_15h17.17.933,bars,2023.2.3,Win32,75.18796992,,,,,,,,,,,,,,,,,,,,,,,,,,,,,,,,,,,,,152.8667,154.6989,right,1.8291,,154.6991,4,2,155.6997,0,5,5,5,1,4,4,4,4,,,,,,,,,,,,,,,,,,,,,,,,,,,,,,,,,,,,,,,,,
,,64b6bf2ad951a2caf97a534a,001,2023-12-14_15h17.17.933,bars,2023.2.3,Win32,75.18796992,,,,,,,,,,,,,,,,,,,,,,,,,,,,,,,,,,,,,155.6998,156.5797,left,0.8669,,156.5798,1,1,157.5801,0,6,6,6,1,2,2,1,2,,,,,,,,,,,,,,,,,,,,,,,,,,,,,,,,,,,,,,,,,
,,64b6bf2ad951a2caf97a534a,001,2023-12-14_15h17.17.933,bars,2023.2.3,Win32,75.18796992,,,,,,,,,,,,,,,,,,,,,,,,,,,,,,,,,,,,,157.5804,158.9138,right,1.3298,,158.9138,1,2,159.9144,0,7,7,7,1,0,0,0,1,,,,,,,,,,,,,,,,,,,,,,,,,,,,,,,,,,,,,,,,,
,,64b6bf2ad951a2caf97a534a,001,2023-12-14_15h17.17.933,bars,2023.2.3,Win32,75.18796992,,,,,,,,,,,,,,,,,,,,,,,,,,,,,,,,,,,,,159.9146,160.5678,right,0.6398,,160.5679,0,2,161.5684,0,8,8,8,1,0,2,1,0,,,,,,,,,,,,,,,,,,,,,,,,,,,,,,,,,,,,,,,,,
,,64b6bf2ad951a2caf97a534a,001,2023-12-14_15h17.17.933,bars,2023.2.3,Win32,75.18796992,,,,,,,,,,,,,,,,,,,,,,,,,,,,,,,,,,,,,161.5687,162.4484,right,0.8725,,162.4484,3,2,163.4486,0,9,9,9,1,2,4,2,3,,,,,,,,,,,,,,,,,,,,,,,,,,,,,,,,,,,,,,,,,
,,64b6bf2ad951a2caf97a534a,001,2023-12-14_15h17.17.933,bars,2023.2.3,Win32,75.18796992,,,,,,,,,,,,,,,,,,,,,,,,,,,,,,,,,,,,,163.4488,163.8089,left,0.3495,,163.8089,0,1,164.8096,0,10,10,10,1,0,2,0,3,,,,,,,,,,,,,,,,,,,,,,,,,,,,,,,,,,,,,,,,,
,,64b6bf2ad951a2caf97a534a,001,2023-12-14_15h17.17.933,bars,2023.2.3,Win32,75.18796992,,,,,,,,,,,,,,,,,,,,,,,,,,,,,,,,,,,,,164.8098,165.116,left,0.298,,165.116,0,1,166.1166,0,11,11,11,1,0,4,0,3,,,,,,,,,,,,,,,,,,,,,,,,,,,,,,,,,,,,,,,,,
,,64b6bf2ad951a2caf97a534a,001,2023-12-14_15h17.17.933,bars,2023.2.3,Win32,75.18796992,,,,,,,,,,,,,,,,,,,,,,,,,,,,,,,,,,,,,166.1167,166.8772,left,0.7494,,166.8772,1,1,167.8773,0,12,12,12,1,2,6,1,6,,,,,,,,,,,,,,,,,,,,,,,,,,,,,,,,,,,,,,,,,
,,64b6bf2ad951a2caf97a534a,001,2023-12-14_15h17.17.933,bars,2023.2.3,Win32,75.18796992,,,,,,,,,,,,,,,,,,,,,,,,,,,,,,,,,,,,,167.8775,168.2505,left,0.3591,,168.2505,1,1,169.2511,0,13,13,13,1,0,4,1,3,,,,,,,,,,,,,,,,,,,,,,,,,,,,,,,,,,,,,,,,,
,,64b6bf2ad951a2caf97a534a,001,2023-12-14_15h17.17.933,bars,2023.2.3,Win32,75.18796992,,,,,,,,,,,,,,,,,,,,,,,,,,,,,,,,,,,,,169.2513,169.7712,right,0.5062,,169.7712,7,2,170.7714,0,14,14,14,1,2,6,2,7,,,,,,,,,,,,,,,,,,,,,,,,,,,,,,,,,,,,,,,,,
,,64b6bf2ad951a2caf97a534a,001,2023-12-14_15h17.17.933,bars,2023.2.3,Win32,75.18796992,,,,,,,,,,,,,,,,,,,,,,,,,,,,,,,,,,,,,170.7715,171.305,right,0.519,,171.305,9,2,172.3053,0,15,15,15,1,4,8,3,9,,,,,,,,,,,,,,,,,,,,,,,,,,,,,,,,,,,,,,,,,
,,64b6bf2ad951a2caf97a534a,001,2023-12-14_15h17.17.933,bars,2023.2.3,Win32,75.18796992,,,,,,,,,,,,,,,,,,,,,,,,,,,,,,,,,,,,,172.3055,173.1589,right,0.8448,,173.1589,7,2,174.1592,0,16,16,16,1,6,6,7,7,,,,,,,,,,,,,,,,,,,,,,,,,,,,,,,,,,,,,,,,,
,,64b6bf2ad951a2caf97a534a,001,2023-12-14_15h17.17.933,bars,2023.2.3,Win32,75.18796992,,,,,,,,,,,,,,,,,,,,,,,,,,,,,,,,,,,,,174.1594,175.3466,right,1.1832,,175.3466,5,2,176.347,0,17,17,17,1,8,4,9,5,,,,,,,,,,,,,,,,,,,,,,,,,,,,,,,,,,,,,,,,,
,,64b6bf2ad951a2caf97a534a,001,2023-12-14_15h17.17.933,bars,2023.2.3,Win32,75.18796992,,,,,,,,,,,,,,,,,,,,,,,,,,,,,,,,,,,,,176.3472,177.0535,right,0.6975,,177.0535,1,2,178.0544,0,18,18,18,1,6,2,5,1,,,,,,,,,,,,,,,,,,,,,,,,,,,,,,,,,,,,,,,,,
,,64b6bf2ad951a2caf97a534a,001,2023-12-14_15h17.17.933,bars,2023.2.3,Win32,75.18796992,,,,,,,,,,,,,,,,,,,,,,,,,,,,,,,,,,,,,178.0546,178.7609,right,0.6968,,178.7609,0,2,179.7614,0,19,19,19,1,8,0,7,0,,,,,,,,,,,,,,,,,,,,,,,,,,,,,,,,,,,,,,,,,
,,64b6bf2ad951a2caf97a534a,001,2023-12-14_15h17.17.933,bars,2023.2.3,Win32,75.18796992,,,,,,,,,,,,,,,,,,,,,,,,,,,,,,,,,,,,,,,,,,,,,,,,,,,,,,,179.7618,194.3538,space,14.575,,,,,,,,,,,,,,,,,,,,,,,,,,,,,,,,,,,,,
,,64b6bf2ad951a2caf97a534a,001,2023-12-14_15h17.17.933,bars,2023.2.3,Win32,75.18796992,,,,,,196.0505,197.0495,,,197.5419,197.7944,,87,87,,,,,,,,,,,,,,,,bars/006.png,bars/mask006.png,,,,,,,,,,,,4,2,,,,,,,4,7,3,7,,,,,,194.363,196.0475,space,1.671,,197.0499,197.5418,197.7945,203.917,space,6.1133,,203.9171,52,13,204.9176,204.9178,216.3635,space,11.4276,,0,0,0,0,1,35,100,,,,,,,,
,,64b6bf2ad951a2caf97a534a,001,2023-12-14_15h17.17.933,bars,2023.2.3,Win32,75.18796992,,,,,,216.3785,217.3752,,,217.8689,218.1222,,37,217,,,,,,,,,,,,,,,,bars/026.png,bars/mask009.png,,,,,,,,,,,,7,1,,,,,,,6,5,7,5,,,,,,,,,,,217.3752,217.8688,218.1223,221.7365,space,3.6037,,221.7366,2,48,222.7368,222.7368,228.0056,space,5.2456,,0,1,1,1,1,35,85,,,,,,,,
,,64b6bf2ad951a2caf97a534a,001,2023-12-14_15h17.17.933,bars,2023.2.3,Win32,75.18796992,,,,,,228.012,229.006,,,229.4994,229.7398,,67,67,,,,,,,,,,,,,,,,bars/025.png,bars/mask000.png,,,,,,,,,,,,0,2,,,,,,,4,3,4,4,,,,,,,,,,,229.006,229.4994,229.7398,231.6868,space,1.9423,,231.6868,38,27,232.6872,232.6873,235.2885,space,2.5802,,0,2,2,2,1,105,40,,,,,,,,
,,64b6bf2ad951a2caf97a534a,001,2023-12-14_15h17.17.933,bars,2023.2.3,Win32,75.18796992,,,,,,235.2886,236.2888,,,236.7835,237.0354,,91,91,,,,,,,,,,,,,,,,bars/022.png,bars/mask001.png,,,,,,,,,,,,2,1,,,,,,,2,5,2,5,,,,,,,,,,,236.2888,236.7835,237.0354,239.9565,space,2.9108,,239.9565,4,71,240.9567,240.9568,242.8779,space,1.8987,,0,3,3,3,1,95,20,,,,,,,,
,,64b6bf2ad951a2caf97a534a,001,2023-12-14_15h17.17.933,bars,2023.2.3,Win32,75.18796992,,,,,,242.8781,243.878,,,244.3713,244.6117,,2,182,,,,,,,,,,,,,,,,bars/035.png,bars/mask006.png,,,,,,,,,,,,1,1,,,,,,,0,3,1,4,,,,,,,,,,,243.878,244.3713,244.6117,246.8391,space,2.2155,,246.8391,7,58,247.8394,247.8394,250.5204,space,2.6661,,0,4,4,4,1,175,60,,,,,,,,
,,64b6bf2ad951a2caf97a534a,001,2023-12-14_15h17.17.933,bars,2023.2.3,Win32,75.18796992,,,,,,250.5265,251.522,,,252.0144,252.2544,,27,207,,,,,,,,,,,,,,,,bars/014.png,bars/mask009.png,,,,,,,,,,,,0,2,,,,,,,0,5,0,2,,,,,,,,,,,251.522,252.0144,252.2545,256.069,space,3.8022,,256.0691,53,27,257.0694,257.0694,259.6974,space,2.6136,,0,5,5,5,1,80,0,,,,,,,,
,,64b6bf2ad951a2caf97a534a,001,2023-12-14_15h17.17.933,bars,2023.2.3,Win32,75.18796992,,,,,,259.6975,260.6974,,,261.1908,261.4322,,149,149,,,,,,,,,,,,,,,,bars/037.png,bars/mask002.png,,,,,,,,,,,,3,1,,,,,,,2,7,3,6,,,,,,,,,,,260.6974,261.1908,261.4323,264.272,space,2.834,,264.272,1,44,265.2724,265.2724,268.2474,space,2.9517,,0,6,6,6,1,150,105,,,,,,,,
,,64b6bf2ad951a2caf97a534a,001,2023-12-14_15h17.17.933,bars,2023.2.3,Win32,75.18796992,,,,,,268.2475,269.2475,,,269.7411,269.9811,,44,44,,,,,,,,,,,,,,,,bars/031.png,bars/mask007.png,,,,,,,,,,,,6,2,,,,,,,0,9,0,9,,,,,,,,,,,269.2475,269.7411,269.9811,271.423,space,1.4295,,271.4231,76,9,272.4219,272.422,275.637,space,3.1994,,0,7,7,7,1,120,35,,,,,,,,
,,64b6bf2ad951a2caf97a534a,001,2023-12-14_15h17.17.933,bars,2023.2.3,Win32,75.18796992,,,,,,275.6374,276.6367,,,277.1307,277.3841,,86,86,,,,,,,,,,,,,,,,bars/002.png,bars/mask009.png,,,,,,,,,,,,10,2,,,,,,,0,10,0,10,,,,,,,,,,,276.6367,277.1307,277.3842,278.6646,space,1.2728,,278.6646,44,1,279.6647,279.6647,281.6917,space,2.0198,,0,8,8,8,1,130,85,,,,,,,,
,,64b6bf2ad951a2caf97a534a,001,2023-12-14_15h17.17.933,bars,2023.2.3,Win32,75.18796992,,,,,,281.6918,282.6922,,,283.186,283.4395,,49,49,,,,,,,,,,,,,,,,bars/017.png,bars/mask007.png,,,,,,,,,,,,9,2,,,,,,,2,10,2,10,,,,,,,,,,,282.6922,283.1858,283.4395,284.9201,space,1.4679,,284.9201,84,4,285.9197,285.9197,286.5876,space,0.66,,0,9,9,9,1,145,45,,,,,,,,
,,64b6bf2ad951a2caf97a534a,001,2023-12-14_15h17.17.933,bars,2023.2.3,Win32,75.18796992,,,,,,286.5878,287.5873,,,288.0807,288.3211,,10,190,,,,,,,,,,,,,,,,bars/012.png,bars/mask008.png,,,,,,,,,,,,8,2,,,,,,,4,10,4,10,,,,,,,,,,,287.5873,288.0807,288.3211,290.2947,space,1.9664,,290.2947,80,5,291.2953,291.2953,292.122,space,0.8093,,0,10,10,10,1,90,15,,,,,,,,
,,64b6bf2ad951a2caf97a534a,001,2023-12-14_15h17.17.933,bars,2023.2.3,Win32,75.18796992,,,,,,292.1222,293.1228,,,293.6166,293.8697,,72,72,,,,,,,,,,,,,,,,bars/001.png,bars/mask004.png,,,,,,,,,,,,6,2,,,,,,,2,10,0,10,,,,,,,,,,,293.1228,293.6166,293.8697,295.9649,space,2.0863,,295.9649,58,13,296.9644,296.9644,297.8442,space,0.8674,,0,11,11,11,1,130,85,,,,,,,,
,,64b6bf2ad951a2caf97a534a,001,2023-12-14_15h17.17.933,bars,2023.2.3,Win32,75.18796992,,,,,,297.8444,298.8448,,,299.3383,299.579,,155,-25,,,,,,,,,,,,,,,,bars/004.png,bars/mask003.png,,,,,,,,,,,,0,2,,,,,,,4,10,4,10,,,,,,,,,,,298.8449,299.3383,299.5791,301.9123,space,2.3291,,301.9124,50,30,302.9129,302.9129,304.9409,space,2.0115,,0,12,12,12,1,25,125,,,,,,,,
,,64b6bf2ad951a2caf97a534a,001,2023-12-14_15h17.17.933,bars,2023.2.3,Win32,75.18796992,,,,,,304.9411,305.9411,,,306.4344,306.6877,,145,145,,,,,,,,,,,,,,,,bars/004.png,bars/mask002.png,,,,,,,,,,,,2,2,,,,,,,6,8,5,7,,,,,,,,,,,305.9411,306.4344,306.6878,307.6078,space,0.9089,,307.6079,60,20,308.6083,308.6083,309.2754,space,0.6599,,0,13,13,13,1,25,125,,,,,,,,
,,64b6bf2ad951a2caf97a534a,001,2023-12-14_15h17.17.933,bars,2023.2.3,Win32,75.18796992,,,,,,309.2757,310.2755,,,310.7692,311.0094,,79,79,,,,,,,,,,,,,,,,bars/047.png,bars/mask009.png,,,,,,,,,,,,7,2,,,,,,,4,10,4,10,,,,,,,,,,,310.2756,310.7692,311.0094,311.8228,space,0.8052,,311.8229,64,9,312.824,312.824,313.5567,space,0.715,,0,14,14,14,1,15,70,,,,,,,,
,,64b6bf2ad951a2caf97a534a,001,2023-12-14_15h17.17.933,bars,2023.2.3,Win32,75.18796992,,,,,,313.557,314.5581,,,315.0505,315.2906,,138,138,,,,,,,,,,,,,,,,bars/005.png,bars/mask003.png,,,,,,,,,,,,9,2,,,,,,,2,10,2,10,,,,,,,,,,,314.5581,315.0504,315.2906,317.0379,space,1.7322,,317.0379,52,2,318.0385,318.0385,318.5317,space,0.486,,0,15,15,15,1,10,140,,,,,,,,
,,64b6bf2ad951a2caf97a534a,001,2023-12-14_15h17.17.933,bars,2023.2.3,Win32,75.18796992,,,,,,318.5319,319.5323,,,320.0259,320.2659,,70,70,,,,,,,,,,,,,,,,bars/041.png,bars/mask008.png,,,,,,,,,,,,4,2,,,,,,,4,10,5,8,,,,,,,,,,,319.5323,320.0258,320.2659,322.4532,space,2.1799,,322.4532,50,15,323.4538,323.4538,324.1207,space,0.6508,,0,16,16,16,1,20,85,,,,,,,,
,,64b6bf2ad951a2caf97a534a,001,2023-12-14_15h17.17.933,bars,2023.2.3,Win32,75.18796992,,,,,,324.121,325.1208,,,325.6147,325.8682,,81,81,,,,,,,,,,,,,,,,bars/011.png,bars/mask005.png,,,,,,,,,,,,8,2,,,,,,,6,10,9,9,,,,,,,,,,,325.1209,325.6146,325.8683,329.4699,space,3.5898,,329.47,79,4,330.4693,330.4694,331.283,space,0.798,,0,17,17,17,1,160,85,,,,,,,,
,,64b6bf2ad951a2caf97a534a,001,2023-12-14_15h17.17.933,bars,2023.2.3,Win32,75.18796992,,,,,,331.2833,332.2836,,,332.7767,333.0171,,67,67,,,,,,,,,,,,,,,,bars/001.png,bars/mask000.png,,,,,,,,,,,,4,2,,,,,,,8,8,7,9,,,,,,,,,,,332.2836,332.7767,333.0171,335.738,space,2.7135,,335.7381,63,18,336.7403,336.7403,337.2187,space,0.4518,,0,18,18,18,1,130,85,,,,,,,,
,,64b6bf2ad951a2caf97a534a,001,2023-12-14_15h17.17.933,bars,2023.2.3,Win32,75.18796992,,,,,,337.2189,338.2186,,,338.7129,338.9531,,11,11,,,,,,,,,,,,,,,,bars/032.png,bars/mask008.png,,,,,,,,,,,,6,2,,,,,,,6,10,7,9,,,,,,,,,,,338.2186,338.7129,338.9531,340.6197,space,1.6633,,340.6197,66,9,341.6206,341.6207,342.5007,space,0.8677,,0,19,19,19,1,125,20,,,,,,,,
,,64b6bf2ad951a2caf97a534a,001,2023-12-14_15h17.17.933,bars,2023.2.3,Win32,75.18796992,,,,,,342.501,343.5014,,,343.9944,344.2356,,74,254,,,,,,,,,,,,,,,,bars/010.png,bars/mask008.png,,,,,,,,,,,,3,2,,,,,,,4,8,4,9,,,,,,,,,,,343.5014,343.9944,344.2356,349.1298,space,4.8839,,349.1298,89,19,350.1299,350.1299,351.1836,space,1.036,,0,20,20,20,1,165,55,,,,,,,,
,,64b6bf2ad951a2caf97a534a,001,2023-12-14_15h17.17.933,bars,2023.2.3,Win32,75.18796992,,,,,,351.1837,352.185,,,352.6782,352.9315,,44,224,,,,,,,,,,,,,,,,bars/047.png,bars/mask000.png,,,,,,,,,,,,1,2,,,,,,,2,10,3,10,,,,,,,,,,,352.1851,352.6782,352.9315,356.7588,space,3.8234,,356.7588,29,26,357.7594,357.7594,358.8797,space,1.1029,,0,21,21,21,1,15,70,,,,,,,,
,,64b6bf2ad951a2caf97a534a,001,2023-12-14_15h17.17.933,bars,2023.2.3,Win32,75.18796992,,,,,,358.8799,359.8803,,,360.3737,360.6143,,21,201,,,,,,,,,,,,,,,,bars/047.png,bars/mask006.png,,,,,,,,,,,,3,1,,,,,,,4,10,4,9,,,,,,,,,,,359.8803,360.3737,360.6143,363.3753,space,2.7475,,363.3753,6,49,364.3769,364.3769,365.7115,space,1.2979,,0,22,22,22,1,15,70,,,,,,,,
,,64b6bf2ad951a2caf97a534a,001,2023-12-14_15h17.17.933,bars,2023.2.3,Win32,75.18796992,,,,,,365.7121,366.7094,,,367.204,367.4561,,149,-31,,,,,,,,,,,,,,,,bars/034.png,bars/mask007.png,,,,,,,,,,,,1,1,,,,,,,6,8,5,8,,,,,,,,,,,366.7094,367.204,367.4561,371.0989,space,3.6269,,371.0989,24,84,372.0978,372.0978,373.1515,space,1.0342,,0,23,23,23,1,125,65,,,,,,,,
,,64b6bf2ad951a2caf97a534a,001,2023-12-14_15h17.17.933,bars,2023.2.3,Win32,75.18796992,,,,,,373.1517,374.1523,,,374.646,374.8863,,159,-21,,,,,,,,,,,,,,,,bars/008.png,bars/mask006.png,,,,,,,,,,,,3,2,,,,,,,4,10,2,10,,,,,,,,,,,374.1524,374.646,374.8863,378.1534,space,3.2616,,378.1534,49,21,379.1539,379.1539,379.754,space,0.5788,,0,24,24,24,1,110,0,,,,,,,,
,,64b6bf2ad951a2caf97a534a,001,2023-12-14_15h17.17.933,bars,2023.2.3,Win32,75.18796992,,,,,,379.7543,380.7548,,,381.2482,381.4885,,168,-12,,,,,,,,,,,,,,,,bars/033.png,bars/mask004.png,,,,,,,,,,,,5,2,,,,,,,2,8,2,9,,,,,,,,,,,380.7548,381.2482,381.4885,384.4492,space,2.9476,,384.4492,37,13,385.4503,385.4503,386.1438,space,0.6687,,0,25,25,25,1,25,155,,,,,,,,
,,64b6bf2ad951a2caf97a534a,001,2023-12-14_15h17.17.933,bars,2023.2.3,Win32,75.18796992,,,,,,386.144,387.1433,,,387.6374,387.8776,,72,72,,,,,,,,,,,,,,,,bars/021.png,bars/mask008.png,,,,,,,,,,,,9,2,,,,,,,4,10,4,10,,,,,,,,,,,387.1433,387.6374,387.8777,390.6916,space,2.8081,,390.6916,83,2,391.6915,391.6916,393.2922,space,1.5884,,0,26,26,26,1,155,70,,,,,,,,
,,64b6bf2ad951a2caf97a534a,001,2023-12-14_15h17.17.933,bars,2023.2.3,Win32,75.18796992,,,,,,393.2924,394.2931,,,394.7866,395.0278,,160,160,,,,,,,,,,,,,,,,bars/043.png,bars/mask008.png,,,,,,,,,,,,0,2,,,,,,,6,8,5,7,,,,,,,,,,,394.2932,394.7866,395.0279,397.3607,space,2.3197,,397.3607,50,30,398.3612,398.3612,398.5086,space,0.1412,,0,27,27,27,1,30,130,,,,,,,,
,,64b6bf2ad951a2caf97a534a,001,2023-12-14_15h17.17.933,bars,2023.2.3,Win32,75.18796992,,,,,,398.5089,399.5081,,,400.0015,400.2421,,71,251,,,,,,,,,,,,,,,,bars/025.png,bars/mask002.png,,,,,,,,,,,,0,2,,,,,,,8,10,7,10,,,,,,,,,,,399.5082,400.0015,400.2421,404.6035,space,4.3494,,404.6036,34,31,405.604,405.604,409.3649,space,3.7404,,0,28,28,28,1,105,40,,,,,,,,
,,64b6bf2ad951a2caf97a534a,001,2023-12-14_15h17.17.933,bars,2023.2.3,Win32,75.18796992,,,,,,409.3712,410.3652,,,410.8597,411.1005,,139,139,,,,,,,,,,,,,,,,bars/023.png,bars/mask005.png,,,,,,,,,,,,1,2,,,,,,,10,8,10,7,,,,,,,,,,,410.3652,410.8597,411.1006,413.2196,space,2.1094,,413.2196,61,24,414.22,414.22,415.8605,space,1.6318,,0,29,29,29,1,20,115,,,,,,,,
,,64b6bf2ad951a2caf97a534a,001,2023-12-14_15h17.17.933,bars,2023.2.3,Win32,75.18796992,,,,,,415.8607,416.862,,,417.3545,417.5975,,100,100,,,,,,,,,,,,,,,,bars/041.png,bars/mask002.png,,,,,,,,,,,,4,2,,,,,,,8,6,8,7,,,,,,,,,,,416.862,417.3544,417.5976,419.183,space,1.5728,,419.183,80,15,420.1828,420.1828,420.9961,space,0.8041,,0,30,30,30,1,20,85,,,,,,,,
,,64b6bf2ad951a2caf97a534a,001,2023-12-14_15h17.17.933,bars,2023.2.3,Win32,75.18796992,,,,,,420.9963,421.9961,,,422.4897,422.7433,,70,70,,,,,,,,,,,,,,,,bars/019.png,bars/mask007.png,,,,,,,,,,,,2,1,,,,,,,10,4,10,5,,,,,,,,,,,421.9961,422.4896,422.7433,426.9183,space,4.1695,,426.9183,25,35,427.9183,427.9184,429.6921,space,1.7503,,0,31,31,31,1,45,105,,,,,,,,
,,64b6bf2ad951a2caf97a534a,001,2023-12-14_15h17.17.933,bars,2023.2.3,Win32,75.18796992,,,,,,429.6924,430.6927,,,431.1863,431.4394,,104,104,,,,,,,,,,,,,,,,bars/009.png,bars/mask003.png,,,,,,,,,,,,2,2,,,,,,,10,2,10,2,,,,,,,,,,,430.6927,431.1862,431.4394,435.0407,space,3.5916,,435.0407,89,1,436.0412,436.0412,438.5632,space,2.4993,,0,32,32,32,1,15,105,,,,,,,,
,,64b6bf2ad951a2caf97a534a,001,2023-12-14_15h17.17.933,bars,2023.2.3,Win32,75.18796992,,,,,,438.5826,439.578,,,440.0691,440.3096,,35,35,,,,,,,,,,,,,,,,bars/005.png,bars/mask004.png,,,,,,,,,,,,2,1,,,,,,,10,4,10,6,,,,,,,,,,,439.578,440.0691,440.3096,443.7379,space,3.4167,,443.7379,25,75,444.7379,444.7379,445.9917,space,1.2405,,0,33,33,33,1,10,140,,,,,,,,
,,64b6bf2ad951a2caf97a534a,001,2023-12-14_15h17.17.933,bars,2023.2.3,Win32,75.18796992,,,,,,445.992,446.9929,,,447.4858,447.7391,,79,79,,,,,,,,,,,,,,,,bars/011.png,bars/mask009.png,,,,,,,,,,,,6,2,,,,,,,8,6,6,7,,,,,,,,,,,446.9929,447.4857,447.7391,451.9943,space,4.242,,451.9944,81,6,452.9946,452.9946,453.6346,space,0.6166,,0,34,34,34,1,160,85,,,,,,,,
,,64b6bf2ad951a2caf97a534a,001,2023-12-14_15h17.17.933,bars,2023.2.3,Win32,75.18796992,,,,,,453.6347,454.6346,,,455.1285,455.3818,,77,77,,,,,,,,,,,,,,,,bars/021.png,bars/mask001.png,,,,,,,,,,,,5,2,,,,,,,6,8,7,7,,,,,,,,,,,454.6347,455.1285,455.3818,457.3158,space,1.9248,,457.3158,78,7,458.3165,458.3166,459.3699,space,1.0466,,0,35,35,35,1,155,70,,,,,,,,
,,64b6bf2ad951a2caf97a534a,001,2023-12-14_15h17.17.933,bars,2023.2.3,Win32,75.18796992,,,,,,459.3702,460.3704,,,460.8636,461.1036,,107,107,,,,,,,,,,,,,,,,bars/004.png,bars/mask006.png,,,,,,,,,,,,4,2,,,,,,,8,10,9,10,,,,,,,,,,,460.3704,460.8636,461.1036,465.2523,space,4.1326,,465.2523,82,18,466.2528,466.2528,467.4558,space,1.1865,,0,36,36,36,1,25,125,,,,,,,,
,,64b6bf2ad951a2caf97a534a,001,2023-12-14_15h17.17.933,bars,2023.2.3,Win32,75.18796992,,,,,,467.4562,468.4541,,,468.9464,469.1864,,85,85,,,,,,,,,,,,,,,,bars/002.png,bars/mask001.png,,,,,,,,,,,,8,2,,,,,,,10,8,10,8,,,,,,,,,,,468.4541,468.9464,469.1864,472.1633,space,2.9751,,472.1634,45,0,473.1615,473.1616,477.0296,space,3.8506,,0,37,37,37,1,130,85,,,,,,,,
,,64b6bf2ad951a2caf97a534a,001,2023-12-14_15h17.17.933,bars,2023.2.3,Win32,75.18796992,,,,,,477.0363,478.0297,,,478.5239,478.7769,,130,130,,,,,,,,,,,,,,,,bars/005.png,bars/mask003.png,,,,,,,,,,,,7,2,,,,,,,8,10,9,10,,,,,,,,,,,478.0297,478.5238,478.7769,482.2191,space,3.4295,,482.2191,60,10,483.2186,483.2187,484.0865,space,0.8415,,0,38,38,38,1,10,140,,,,,,,,
,,64b6bf2ad951a2caf97a534a,001,2023-12-14_15h17.17.933,bars,2023.2.3,Win32,75.18796992,,,,,,484.0871,485.0868,,,485.58,485.8325,,110,110,,,,,,,,,,,,,,,,bars/018.png,bars/mask007.png,,,,,,,,,,,,3,2,,,,,,,6,8,5,9,,,,,,,,,,,485.0869,485.58,485.8325,488.4201,space,2.5766,,488.4201,40,20,489.4205,489.4205,490.8479,space,1.4112,,0,39,39,39,1,150,90,,,,,,,,
,,64b6bf2ad951a2caf97a534a,001,2023-12-14_15h17.17.933,bars,2023.2.3,Win32,75.18796992,,,,,,490.8481,491.8485,,,492.3436,492.5951,,5,5,,,,,,,,,,,,,,,,bars/040.png,bars/mask000.png,,,,,,,,,,,,6,2,,,,,,,4,6,4,6,,,,,,,,,,,491.8485,492.3435,492.5951,495.2627,space,2.6622,,495.2627,45,0,496.2633,496.2634,498.237,space,1.953,,0,40,40,40,1,140,5,,,,,,,,
,,64b6bf2ad951a2caf97a534a,001,2023-12-14_15h17.17.933,bars,2023.2.3,Win32,75.18796992,,,,,,498.2373,499.2377,,,499.7327,499.9729,,81,81,,,,,,,,,,,,,,,,bars/026.png,bars/mask005.png,,,,,,,,,,,,7,2,,,,,,,2,8,2,8,,,,,,,,,,,499.2377,499.7326,499.9729,502.0388,space,2.0592,,502.0388,46,4,503.0392,503.0393,504.3994,space,1.3362,,0,41,41,41,1,35,85,,,,,,,,
,,64b6bf2ad951a2caf97a534a,001,2023-12-14_15h17.17.933,bars,2023.2.3,Win32,75.18796992,,,,,,504.3997,505.3997,,,505.8933,506.134,,126,126,,,,,,,,,,,,,,,,bars/045.png,bars/mask002.png,,,,,,,,,,,,0,1,,,,,,,4,10,2,10,,,,,,,,,,,505.3997,505.8933,506.134,508.7344,space,2.5876,,508.7344,26,64,509.7357,509.7358,511.282,space,1.5328,,0,42,42,42,1,100,10,,,,,,,,
,,64b6bf2ad951a2caf97a534a,001,2023-12-14_15h17.17.933,bars,2023.2.3,Win32,75.18796992,,,,,,511.2822,512.2827,,,512.7758,513.0158,,109,109,,,,,,,,,,,,,,,,bars/025.png,bars/mask006.png,,,,,,,,,,,,5,1,,,,,,,6,8,6,8,,,,,,,,,,,512.2828,512.7758,513.0158,515.6034,space,2.5823,,515.6035,4,69,516.6042,516.6043,517.5908,space,0.9638,,0,43,43,43,1,105,40,,,,,,,,
,,64b6bf2ad951a2caf97a534a,001,2023-12-14_15h17.17.933,bars,2023.2.3,Win32,75.18796992,,,,,,517.591,518.5918,,,519.0855,519.3382,,102,102,,,,,,,,,,,,,,,,bars/002.png,bars/mask002.png,,,,,,,,,,,,4,2,,,,,,,4,10,5,10,,,,,,,,,,,518.5918,519.0855,519.3382,521.8594,space,2.5088,,521.8594,28,17,522.8595,522.8595,525.1136,space,2.2418,,0,44,44,44,1,130,85,,,,,,,,
,,64b6bf2ad951a2caf97a534a,001,2023-12-14_15h17.17.933,bars,2023.2.3,Win32,75.18796992,,,,,,525.1139,526.1138,,,526.6078,526.8609,,135,135,,,,,,,,,,,,,,,,bars/031.png,bars/mask008.png,,,,,,,,,,,,1,1,,,,,,,2,8,2,8,,,,,,,,,,,526.1138,526.6078,526.8609,530.849,space,3.9834,,530.849,15,80,531.8494,531.8494,533.0229,space,1.159,,0,45,45,45,1,120,35,,,,,,,,
,,64b6bf2ad951a2caf97a534a,001,2023-12-14_15h17.17.933,bars,2023.2.3,Win32,75.18796992,,,,,,533.0231,534.0234,,,534.5174,534.758,,116,116,,,,,,,,,,,,,,,,bars/040.png,bars/mask002.png,,,,,,,,,,,,0,1,,,,,,,0,10,0,10,,,,,,,,,,,534.0234,534.5174,534.758,536.6379,space,1.869,,536.638,24,69,537.6381,537.6381,538.2118,space,0.5551,,0,46,46,46,1,140,5,,,,,,,,
,,64b6bf2ad951a2caf97a534a,001,2023-12-14_15h17.17.933,bars,2023.2.3,Win32,75.18796992,,,,,,538.212,539.2132,,,539.7061,539.9589,,28,28,,,,,,,,,,,,,,,,bars/031.png,bars/mask008.png,,,,,,,,,,,,5,2,,,,,,,0,8,0,7,,,,,,,,,,,539.2132,539.7061,539.9589,545.2413,space,5.2681,,545.2413,88,7,546.2413,546.2413,546.9884,space,0.7338,,0,47,47,47,1,120,35,,,,,,,,
,,64b6bf2ad951a2caf97a534a,001,2023-12-14_15h17.17.933,bars,2023.2.3,Win32,75.18796992,,,,,,546.9886,547.9889,,,548.4826,548.7355,,34,34,,,,,,,,,,,,,,,,bars/031.png,bars/mask008.png,,,,,,,,,,,,10,2,,,,,,,0,10,0,10,,,,,,,,,,,547.989,548.4825,548.7355,550.5762,space,1.8313,,550.5762,86,1,551.577,551.5771,552.7907,space,1.1994,,0,48,48,48,1,120,35,,,,,,,,
,,64b6bf2ad951a2caf97a534a,001,2023-12-14_15h17.17.933,bars,2023.2.3,Win32,75.18796992,,,,,,552.7909,553.7909,,,554.2841,554.5244,,128,128,,,,,,,,,,,,,,,,bars/004.png,bars/mask006.png,,,,,,,,,,,,9,2,,,,,,,2,8,2,10,,,,,,,,,,,553.7909,554.2841,554.5244,555.7653,space,1.2268,,555.7653,77,3,556.7652,556.7652,557.1519,space,0.3738,,0,49,49,49,1,25,125,,,,,,,,
,,64b6bf2ad951a2caf97a534a,001,2023-12-14_15h17.17.933,bars,2023.2.3,Win32,75.18796992,,,,,,,,,,,,,,,,,,,,,,,,,,,,,,,,,,,,,,,,,,,,,,,,,,,,,,,,,,,,,,,,,,,,,,,,,,,,,,,,,,,,,,,,557.1523,617.1477,0,0,0,1,1,sequence_tables/blk037.csv
,,64b6bf2ad951a2caf97a534a,001,2023-12-14_15h17.17.933,bars,2023.2.3,Win32,75.18796992,,,,,,653.7571,654.7476,,,655.2415,655.4941,,126,126,,,,,,,,,,,,,,,,bars/049.png,bars/mask001.png,,,,,,,,,,,,1,2,,,,,,,4,1,4,1,,,,,,617.1544,653.7474,space,36.585,,654.7477,655.2415,655.4942,657.6294,space,2.1263,,657.6294,34,11,658.629,658.629,658.6356,,,,0,0,0,0,1,160,115,,,,,,,,
,,64b6bf2ad951a2caf97a534a,001,2023-12-14_15h17.17.933,bars,2023.2.3,Win32,75.18796992,,,,,,658.6358,659.6291,,,660.123,660.3761,,106,106,,,,,,,,,,,,,,,,bars/002.png,bars/mask000.png,,,,,,,,,,,,0,2,,,,,,,6,0,8,0,,,,,,,,,,,659.6291,660.123,660.3761,662.4301,space,2.0464,,662.4301,24,21,663.4307,663.4307,663.431,,,,0,1,1,1,1,130,85,,,,,,,,
,,64b6bf2ad951a2caf97a534a,001,2023-12-14_15h17.17.933,bars,2023.2.3,Win32,75.18796992,,,,,,663.4311,664.4315,,,664.9251,665.1778,,37,37,,,,,,,,,,,,,,,,bars/022.png,bars/mask006.png,,,,,,,,,,,,1,2,,,,,,,4,2,2,2,,,,,,,,,,,664.4315,664.9251,665.1778,668.3005,space,3.111,,668.3005,58,17,669.2993,669.2993,669.3063,,,,0,2,2,2,1,95,20,,,,,,,,
,,64b6bf2ad951a2caf97a534a,001,2023-12-14_15h17.17.933,bars,2023.2.3,Win32,75.18796992,,,,,,669.3064,670.2997,,,670.7953,671.047,,23,203,,,,,,,,,,,,,,,,bars/014.png,bars/mask002.png,,,,,,,,,,,,0,2,,,,,,,2,0,2,0,,,,,,,,,,,670.2998,670.7952,671.047,674.5815,space,3.5306,,674.5815,57,23,675.5821,675.5821,675.5887,,,,0,3,3,3,1,80,0,,,,,,,,
,,64b6bf2ad951a2caf97a534a,001,2023-12-14_15h17.17.933,bars,2023.2.3,Win32,75.18796992,,,,,,675.5888,676.582,,,677.076,677.3295,,98,98,,,,,,,,,,,,,,,,bars/018.png,bars/mask007.png,,,,,,,,,,,,0,2,,,,,,,4,0,4,0,,,,,,,,,,,676.582,677.076,677.3296,679.2637,space,1.9231,,679.2637,52,8,680.2644,680.2644,680.28,,,,0,4,4,4,1,150,90,,,,,,,,
,,64b6bf2ad951a2caf97a534a,001,2023-12-14_15h17.17.933,bars,2023.2.3,Win32,75.18796992,,,,,,680.2802,681.2783,,,681.7711,682.0239,,43,43,,,,,,,,,,,,,,,,bars/000.png,bars/mask008.png,,,,,,,,,,,,3,1,,,,,,,2,2,3,1,,,,,,,,,,,681.2784,681.771,682.0239,685.1854,space,3.1564,,685.1855,3,78,686.1863,686.1864,686.1933,,,,0,5,5,5,1,40,145,,,,,,,,
,,64b6bf2ad951a2caf97a534a,001,2023-12-14_15h17.17.933,bars,2023.2.3,Win32,75.18796992,,,,,,686.1934,687.1867,,,687.68,687.9331,,140,-40,,,,,,,,,,,,,,,,bars/018.png,bars/mask009.png,,,,,,,,,,,,1,1,,,,,,,0,4,1,3,,,,,,,,,,,687.1867,687.68,687.9331,690.5878,space,2.6413,,690.5879,10,50,691.5785,691.5785,691.5873,,,,0,6,6,6,1,150,90,,,,,,,,
,,64b6bf2ad951a2caf97a534a,001,2023-12-14_15h17.17.933,bars,2023.2.3,Win32,75.18796992,,,,,,691.5874,692.5885,,,693.0819,693.3348,,15,195,,,,,,,,,,,,,,,,bars/035.png,bars/mask002.png,,,,,,,,,,,,0,1,,,,,,,0,6,0,7,,,,,,,,,,,692.5885,693.0819,693.3348,697.6166,space,4.2782,,697.6166,20,45,698.6171,698.6171,698.6235,,,,0,7,7,7,1,175,60,,,,,,,,
,,64b6bf2ad951a2caf97a534a,001,2023-12-14_15h17.17.933,bars,2023.2.3,Win32,75.18796992,,,,,,698.6236,699.6172,,,700.1106,700.3646,,68,68,,,,,,,,,,,,,,,,bars/025.png,bars/mask005.png,,,,,,,,,,,,1,2,,,,,,,2,8,2,8,,,,,,,,,,,699.6172,700.1106,700.3646,704.846,space,4.4702,,704.846,37,28,705.8467,705.8467,705.8546,,,,0,8,8,8,1,105,40,,,,,,,,
,,64b6bf2ad951a2caf97a534a,001,2023-12-14_15h17.17.933,bars,2023.2.3,Win32,75.18796992,,,,,,705.8547,706.847,,,707.3403,707.5805,,101,-79,,,,,,,,,,,,,,,,bars/045.png,bars/mask007.png,,,,,,,,,,,,4,1,,,,,,,4,6,4,7,,,,,,,,,,,706.847,707.3403,707.5805,711.6616,space,4.0702,,711.6616,1,89,712.6618,712.6618,712.6688,,,,0,9,9,9,1,100,10,,,,,,,,
,,64b6bf2ad951a2caf97a534a,001,2023-12-14_15h17.17.933,bars,2023.2.3,Win32,75.18796992,,,,,,712.6689,713.6625,,,714.1575,714.4094,,152,152,,,,,,,,,,,,,,,,bars/049.png,bars/mask008.png,,,,,,,,,,,,0,1,,,,,,,2,8,0,8,,,,,,,,,,,713.6625,714.1574,714.4095,717.8241,space,3.408,,717.8241,8,37,718.8243,718.8243,718.8358,,,,0,10,10,10,1,160,115,,,,,,,,
,,64b6bf2ad951a2caf97a534a,001,2023-12-14_15h17.17.933,bars,2023.2.3,Win32,75.18796992,,,,,,718.836,719.8384,,,720.3313,720.5847,,55,55,,,,,,,,,,,,,,,,bars/048.png,bars/mask001.png,,,,,,,,,,,,3,1,,,,,,,4,10,4,8,,,,,,,,,,,719.8384,720.3313,720.5847,722.5591,space,1.9656,,722.5591,5,60,723.5594,723.5594,723.5598,,,,0,11,11,11,1,50,175,,,,,,,,
,,64b6bf2ad951a2caf97a534a,001,2023-12-14_15h17.17.933,bars,2023.2.3,Win32,75.18796992,,,,,,723.5599,724.5597,,,725.0534,725.2933,,54,54,,,,,,,,,,,,,,,,bars/006.png,bars/mask009.png,,,,,,,,,,,,1,1,,,,,,,2,8,3,10,,,,,,,,,,,724.5597,725.0534,725.2933,728.6275,space,3.3291,,728.6276,19,46,729.6283,729.6283,729.6352,,,,0,12,12,12,1,35,100,,,,,,,,
,,64b6bf2ad951a2caf97a534a,001,2023-12-14_15h17.17.933,bars,2023.2.3,Win32,75.18796992,,,,,,729.6353,730.6294,,,731.1236,731.3756,,159,-21,,,,,,,,,,,,,,,,bars/035.png,bars/mask008.png,,,,,,,,,,,,0,1,,,,,,,0,10,0,9,,,,,,,,,,,730.6294,731.1236,731.3756,735.6174,space,4.2308,,735.6174,16,81,736.6177,736.6177,736.6241,,,,0,13,13,13,1,175,60,,,,,,,,
,,64b6bf2ad951a2caf97a534a,001,2023-12-14_15h17.17.933,bars,2023.2.3,Win32,75.18796992,,,,,,736.6242,737.6179,,,738.1114,738.353,,176,176,,,,,,,,,,,,,,,,bars/033.png,bars/mask003.png,,,,,,,,,,,,3,2,,,,,,,2,10,1,10,,,,,,,,,,,737.6179,738.1114,738.3531,740.4588,space,2.098,,740.4589,29,21,741.459,741.459,741.4599,,,,0,14,14,14,1,25,155,,,,,,,,
,,64b6bf2ad951a2caf97a534a,001,2023-12-14_15h17.17.933,bars,2023.2.3,Win32,75.18796992,,,,,,741.4601,742.4594,,,742.9533,743.2065,,30,30,,,,,,,,,,,,,,,,bars/028.png,bars/mask002.png,,,,,,,,,,,,0,1,,,,,,,0,8,0,6,,,,,,,,,,,742.4594,742.9533,743.2065,744.6083,space,1.3957,,744.6083,15,90,745.6073,745.6073,745.6084,,,,0,15,15,15,1,45,120,,,,,,,,
,,64b6bf2ad951a2caf97a534a,001,2023-12-14_15h17.17.933,bars,2023.2.3,Win32,75.18796992,,,,,,745.6085,746.6075,,,747.101,747.3411,,40,40,,,,,,,,,,,,,,,,bars/025.png,bars/mask001.png,,,,,,,,,,,,5,2,,,,,,,0,6,1,5,,,,,,,,,,,746.6075,747.101,747.3411,749.7019,space,2.3576,,749.702,65,0,750.7033,750.7033,750.7102,,,,0,16,16,16,1,105,40,,,,,,,,
,,64b6bf2ad951a2caf97a534a,001,2023-12-14_15h17.17.933,bars,2023.2.3,Win32,75.18796992,,,,,,750.7103,751.704,,,752.1966,752.4498,,75,255,,,,,,,,,,,,,,,,bars/039.png,bars/mask005.png,,,,,,,,,,,,0,2,,,,,,,0,8,0,8,,,,,,,,,,,751.704,752.1965,752.4498,756.7845,space,4.3293,,756.7845,80,30,757.7855,757.7855,757.792,,,,0,17,17,17,1,175,105,,,,,,,,
,,64b6bf2ad951a2caf97a534a,001,2023-12-14_15h17.17.933,bars,2023.2.3,Win32,75.18796992,,,,,,757.7921,758.786,,,759.279,759.5321,,107,-73,,,,,,,,,,,,,,,,bars/026.png,bars/mask007.png,,,,,,,,,,,,3,2,,,,,,,0,10,0,10,,,,,,,,,,,758.786,759.2789,759.5321,763.8805,space,4.3453,,763.8805,72,22,764.8815,764.8815,764.8926,,,,0,18,18,18,1,35,85,,,,,,,,
,,64b6bf2ad951a2caf97a534a,001,2023-12-14_15h17.17.933,bars,2023.2.3,Win32,75.18796992,,,,,,764.8929,765.8946,,,766.3883,766.6416,,33,33,,,,,,,,,,,,,,,,bars/033.png,bars/mask007.png,,,,,,,,,,,,1,1,,,,,,,2,8,2,9,,,,,,,,,,,765.8946,766.3883,766.6416,782.3948,space,15.7441,,782.3948,8,58,783.3942,783.3942,783.4019,,,,0,19,19,19,1,25,155,,,,,,,,
,,64b6bf2ad951a2caf97a534a,001,2023-12-14_15h17.17.933,bars,2023.2.3,Win32,75.18796992,,,,,,783.4021,784.3947,,,784.8884,785.1419,,79,79,,,,,,,,,,,,,,,,bars/027.png,bars/mask003.png,,,,,,,,,,,,0,2,,,,,,,4,6,4,7,,,,,,,,,,,784.3948,784.8884,785.142,789.0763,space,3.9286,,789.0763,31,29,790.0768,790.0768,790.0839,,,,0,20,20,20,1,110,50,,,,,,,,
,,64b6bf2ad951a2caf97a534a,001,2023-12-14_15h17.17.933,bars,2023.2.3,Win32,75.18796992,,,,,,790.084,791.0784,,,791.572,791.8242,,111,111,,,,,,,,,,,,,,,,bars/020.png,bars/mask007.png,,,,,,,,,,,,6,1,,,,,,,6,8,7,7,,,,,,,,,,,791.0785,791.572,791.8242,795.3186,space,3.4867,,795.3186,4,59,796.3191,796.3191,796.3267,,,,0,21,21,21,1,115,170,,,,,,,,
,,64b6bf2ad951a2caf97a534a,001,2023-12-14_15h17.17.933,bars,2023.2.3,Win32,75.18796992,,,,,,796.3268,797.3194,,,797.8134,798.0539,,57,237,,,,,,,,,,,,,,,,bars/016.png,bars/mask006.png,,,,,,,,,,,,2,1,,,,,,,4,10,5,10,,,,,,,,,,,797.3194,797.8134,798.0539,808.4839,space,10.4245,,808.4839,17,72,809.4844,809.4844,809.4848,,,,0,22,22,22,1,40,165,,,,,,,,
,,64b6bf2ad951a2caf97a534a,001,2023-12-14_15h17.17.933,bars,2023.2.3,Win32,75.18796992,,,,,,809.4849,810.4842,,,810.9777,811.218,,31,211,,,,,,,,,,,,,,,,bars/004.png,bars/mask006.png,,,,,,,,,,,,6,1,,,,,,,6,8,7,9,,,,,,,,,,,810.4842,810.9777,811.218,813.9256,space,2.6985,,813.9256,6,86,814.9261,814.9261,814.9324,,,,0,23,23,23,1,25,125,,,,,,,,
,,64b6bf2ad951a2caf97a534a,001,2023-12-14_15h17.17.933,bars,2023.2.3,Win32,75.18796992,,,,,,814.9325,815.926,,,816.4197,816.6605,,33,33,,,,,,,,,,,,,,,,bars/033.png,bars/mask008.png,,,,,,,,,,,,7,1,,,,,,,8,10,9,10,,,,,,,,,,,815.926,816.4197,816.6605,818.4203,space,1.7519,,818.4203,8,58,819.4209,819.4209,819.4215,,,,0,24,24,24,1,25,155,,,,,,,,
,,64b6bf2ad951a2caf97a534a,001,2023-12-14_15h17.17.933,bars,2023.2.3,Win32,75.18796992,,,,,,819.4217,820.4211,,,820.9152,821.168,,136,136,,,,,,,,,,,,,,,,bars/034.png,bars/mask004.png,,,,,,,,,,,,6,1,,,,,,,10,8,10,9,,,,,,,,,,,820.4211,820.9152,821.1681,823.3821,space,2.2048,,823.3821,11,71,824.3825,824.3825,824.3894,,,,0,25,25,25,1,125,65,,,,,,,,
,,64b6bf2ad951a2caf97a534a,001,2023-12-14_15h17.17.933,bars,2023.2.3,Win32,75.18796992,,,,,,824.3895,825.3829,,,825.8767,826.13,,153,153,,,,,,,,,,,,,,,,bars/049.png,bars/mask007.png,,,,,,,,,,,,8,1,,,,,,,10,10,10,10,,,,,,,,,,,825.3829,825.8767,826.13,827.8637,space,1.7263,,827.8637,7,38,828.8645,828.8646,828.8649,,,,0,26,26,26,1,160,115,,,,,,,,
,,64b6bf2ad951a2caf97a534a,001,2023-12-14_15h17.17.933,bars,2023.2.3,Win32,75.18796992,,,,,,828.865,829.865,,,830.3581,830.5982,,135,135,,,,,,,,,,,,,,,,bars/030.png,bars/mask002.png,,,,,,,,,,,,6,1,,,,,,,8,10,7,10,,,,,,,,,,,829.865,830.3581,830.5982,832.2793,space,1.6697,,832.2793,5,70,833.2806,833.2807,833.2819,,,,0,27,27,27,1,140,65,,,,,,,,
,,64b6bf2ad951a2caf97a534a,001,2023-12-14_15h17.17.933,bars,2023.2.3,Win32,75.18796992,,,,,,833.2825,834.2796,,,834.7742,835.0268,,126,126,,,,,,,,,,,,,,,,bars/025.png,bars/mask003.png,,,,,,,,,,,,3,1,,,,,,,10,8,10,7,,,,,,,,,,,834.2796,834.7742,835.0268,837.4409,space,2.4095,,837.4409,21,86,838.4412,838.4412,838.4475,,,,0,28,28,28,1,105,40,,,,,,,,
,,64b6bf2ad951a2caf97a534a,001,2023-12-14_15h17.17.933,bars,2023.2.3,Win32,75.18796992,,,,,,838.4476,839.4416,,,839.935,840.1752,,146,146,,,,,,,,,,,,,,,,bars/043.png,bars/mask008.png,,,,,,,,,,,,2,2,,,,,,,10,6,10,5,,,,,,,,,,,839.4416,839.935,840.1752,843.2297,space,3.0444,,843.2297,64,16,844.2297,844.2297,844.2366,,,,0,29,29,29,1,30,130,,,,,,,,
,,64b6bf2ad951a2caf97a534a,001,2023-12-14_15h17.17.933,bars,2023.2.3,Win32,75.18796992,,,,,,844.2367,845.2302,,,845.7239,845.9771,,26,206,,,,,,,,,,,,,,,,bars/043.png,bars/mask009.png,,,,,,,,,,,,6,1,,,,,,,8,8,7,8,,,,,,,,,,,845.2302,845.7238,845.9771,849.1115,space,3.124,,849.1115,4,76,850.1122,850.1122,850.1188,,,,0,30,30,30,1,30,130,,,,,,,,
,,64b6bf2ad951a2caf97a534a,001,2023-12-14_15h17.17.933,bars,2023.2.3,Win32,75.18796992,,,,,,850.1189,851.1124,,,851.6086,851.8599,,141,141,,,,,,,,,,,,,,,,bars/034.png,bars/mask008.png,,,,,,,,,,,,2,1,,,,,,,6,10,5,10,,,,,,,,,,,851.1124,851.6084,851.8599,853.9404,space,2.0679,,853.9405,16,76,854.9409,854.9409,854.9414,,,,0,31,31,31,1,125,65,,,,,,,,
,,64b6bf2ad951a2caf97a534a,001,2023-12-14_15h17.17.933,bars,2023.2.3,Win32,75.18796992,,,,,,854.9416,855.9414,,,856.4343,856.6745,,120,120,,,,,,,,,,,,,,,,bars/025.png,bars/mask006.png,,,,,,,,,,,,2,1,,,,,,,4,10,4,10,,,,,,,,,,,855.9415,856.4342,856.6745,858.9284,space,2.2467,,858.9285,15,80,859.929,859.929,859.9352,,,,0,32,32,32,1,105,40,,,,,,,,
,,64b6bf2ad951a2caf97a534a,001,2023-12-14_15h17.17.933,bars,2023.2.3,Win32,75.18796992,,,,,,859.9353,860.9294,,,861.4233,861.6761,,164,164,,,,,,,,,,,,,,,,bars/042.png,bars/mask009.png,,,,,,,,,,,,2,1,,,,,,,6,10,5,10,,,,,,,,,,,860.9294,861.4233,861.6761,864.1718,space,2.4796,,864.1718,19,89,865.1708,865.1708,865.177,,,,0,33,33,33,1,145,75,,,,,,,,
,,64b6bf2ad951a2caf97a534a,001,2023-12-14_15h17.17.933,bars,2023.2.3,Win32,75.18796992,,,,,,865.1771,866.1712,,,866.6647,866.9185,,34,214,,,,,,,,,,,,,,,,bars/048.png,bars/mask009.png,,,,,,,,,,,,1,1,,,,,,,4,10,3,10,,,,,,,,,,,866.1712,866.6646,866.9186,870.9732,space,4.0483,,870.9733,16,39,871.9738,871.9738,871.9803,,,,0,34,34,34,1,50,175,,,,,,,,
,,64b6bf2ad951a2caf97a534a,001,2023-12-14_15h17.17.933,bars,2023.2.3,Win32,75.18796992,,,,,,871.9805,872.9737,,,873.4671,873.7074,,143,143,,,,,,,,,,,,,,,,bars/017.png,bars/mask004.png,,,,,,,,,,,,6,1,,,,,,,6,8,6,7,,,,,,,,,,,872.9737,873.4671,873.7074,877.8027,space,4.0837,,877.8027,2,82,878.8026,878.8026,878.8091,,,,0,35,35,35,1,145,45,,,,,,,,
,,64b6bf2ad951a2caf97a534a,001,2023-12-14_15h17.17.933,bars,2023.2.3,Win32,75.18796992,,,,,,878.8092,879.8033,,,880.2984,880.5494,,67,67,,,,,,,,,,,,,,,,bars/019.png,bars/mask002.png,,,,,,,,,,,,2,1,,,,,,,8,10,9,10,,,,,,,,,,,879.8033,880.2983,880.5494,882.6039,space,2.0511,,882.6039,22,38,883.6042,883.6042,883.6104,,,,0,36,36,36,1,45,105,,,,,,,,
,,64b6bf2ad951a2caf97a534a,001,2023-12-14_15h17.17.933,bars,2023.2.3,Win32,75.18796992,,,,,,883.6106,884.606,,,885.0986,885.3518,,41,41,,,,,,,,,,,,,,,,bars/044.png,bars/mask001.png,,,,,,,,,,,,0,1,,,,,,,10,8,10,9,,,,,,,,,,,884.606,885.0986,885.3518,887.0991,space,1.7354,,887.0991,34,66,888.0993,888.0993,888.1055,,,,0,37,37,37,1,75,155,,,,,,,,
,,64b6bf2ad951a2caf97a534a,001,2023-12-14_15h17.17.933,bars,2023.2.3,Win32,75.18796992,,,,,,888.1056,889.0998,,,889.5931,889.8331,,96,96,,,,,,,,,,,,,,,,bars/012.png,bars/mask001.png,,,,,,,,,,,,6,1,,,,,,,8,10,7,10,,,,,,,,,,,889.0998,889.5931,889.8331,893.5144,space,3.679,,893.5145,6,81,894.5145,894.5146,894.521,,,,0,38,38,38,1,90,15,,,,,,,,
,,64b6bf2ad951a2caf97a534a,001,2023-12-14_15h17.17.933,bars,2023.2.3,Win32,75.18796992,,,,,,894.5211,895.515,,,896.0089,896.2627,,36,36,,,,,,,,,,,,,,,,bars/041.png,bars/mask000.png,,,,,,,,,,,,2,1,,,,,,,6,10,5,10,,,,,,,,,,,895.515,896.0089,896.2627,900.7705,space,4.5014,,900.7705,16,49,901.7713,901.7713,901.7778,,,,0,39,39,39,1,20,85,,,,,,,,
,,64b6bf2ad951a2caf97a534a,001,2023-12-14_15h17.17.933,bars,2023.2.3,Win32,75.18796992,,,,,,901.7779,902.7714,,,903.2656,903.5181,,153,153,,,,,,,,,,,,,,,,bars/036.png,bars/mask000.png,,,,,,,,,,,,1,1,,,,,,,4,10,2,10,,,,,,,,,,,902.7714,903.2655,903.5181,904.3455,space,0.8234,,904.3455,8,47,905.3459,905.3459,905.3463,,,,0,40,40,40,1,145,20,,,,,,,,
,,64b6bf2ad951a2caf97a534a,001,2023-12-14_15h17.17.933,bars,2023.2.3,Win32,75.18796992,,,,,,905.3464,906.3462,,,906.8392,907.0804,,39,219,,,,,,,,,,,,,,,,bars/016.png,bars/mask006.png,,,,,,,,,,,,5,1,,,,,,,6,10,5,10,,,,,,,,,,,906.3462,906.8392,907.0804,910.415,space,3.3244,,910.415,1,54,911.4144,911.4144,911.4207,,,,0,41,41,41,1,40,165,,,,,,,,
,,64b6bf2ad951a2caf97a534a,001,2023-12-14_15h17.17.933,bars,2023.2.3,Win32,75.18796992,,,,,,911.4208,912.4148,,,912.9083,913.15,,40,40,,,,,,,,,,,,,,,,bars/048.png,bars/mask000.png,,,,,,,,,,,,3,1,,,,,,,4,10,4,10,,,,,,,,,,,912.4148,912.9083,913.15,916.8029,space,3.6445,,916.8029,10,45,917.8037,917.8037,917.8099,,,,0,42,42,42,1,50,175,,,,,,,,
,,64b6bf2ad951a2caf97a534a,001,2023-12-14_15h17.17.933,bars,2023.2.3,Win32,75.18796992,,,,,,917.8099,918.8035,,,919.2976,919.5504,,165,-15,,,,,,,,,,,,,,,,bars/035.png,bars/mask000.png,,,,,,,,,,,,1,1,,,,,,,2,10,1,9,,,,,,,,,,,918.8035,919.2975,919.5504,922.7252,space,3.165,,922.7253,10,75,923.7259,923.7259,923.7328,,,,0,43,43,43,1,175,60,,,,,,,,
,,64b6bf2ad951a2caf97a534a,001,2023-12-14_15h17.17.933,bars,2023.2.3,Win32,75.18796992,,,,,,923.7329,924.7259,,,925.2191,925.4596,,33,213,,,,,,,,,,,,,,,,bars/004.png,bars/mask005.png,,,,,,,,,,,,0,1,,,,,,,0,8,0,6,,,,,,,,,,,924.7259,925.2191,925.4596,928.5271,space,3.0538,,928.5271,8,88,929.5277,929.5277,929.5341,,,,0,44,44,44,1,25,125,,,,,,,,
,,64b6bf2ad951a2caf97a534a,001,2023-12-14_15h17.17.933,bars,2023.2.3,Win32,75.18796992,,,,,,929.5343,930.5279,,,931.0213,931.2617,,144,-36,,,,,,,,,,,,,,,,bars/032.png,bars/mask005.png,,,,,,,,,,,,0,1,,,,,,,0,10,1,10,,,,,,,,,,,930.528,931.0213,931.2618,936.3838,space,5.1086,,936.3839,19,56,937.3843,937.3843,937.3905,,,,0,45,45,45,1,125,20,,,,,,,,
,,64b6bf2ad951a2caf97a534a,001,2023-12-14_15h17.17.933,bars,2023.2.3,Win32,75.18796992,,,,,,937.3907,938.3841,,,938.8779,939.1183,,164,164,,,,,,,,,,,,,,,,bars/004.png,bars/mask005.png,,,,,,,,,,,,0,2,,,,,,,2,10,2,10,,,,,,,,,,,938.3841,938.8779,939.1183,941.0517,space,1.9266,,941.0517,41,39,942.0525,942.0526,942.0596,,,,0,46,46,46,1,25,125,,,,,,,,
,,64b6bf2ad951a2caf97a534a,001,2023-12-14_15h17.17.933,bars,2023.2.3,Win32,75.18796992,,,,,,942.0597,943.0539,,,943.5459,943.7862,,134,134,,,,,,,,,,,,,,,,bars/027.png,bars/mask002.png,,,,,,,,,,,,0,1,,,,,,,0,10,1,10,,,,,,,,,,,943.054,943.5459,943.7862,945.1335,space,1.334,,945.1335,24,84,946.1339,946.134,946.1349,,,,0,47,47,47,1,110,50,,,,,,,,
,,64b6bf2ad951a2caf97a534a,001,2023-12-14_15h17.17.933,bars,2023.2.3,Win32,75.18796992,,,,,,946.1351,947.1341,,,947.6274,947.8807,,13,193,,,,,,,,,,,,,,,,bars/044.png,bars/mask003.png,,,,,,,,,,,,0,2,,,,,,,2,10,2,10,,,,,,,,,,,947.1341,947.6274,947.8807,951.642,space,3.7584,,951.642,62,38,952.6437,952.6437,952.6505,,,,0,48,48,48,1,75,155,,,,,,,,
,,64b6bf2ad951a2caf97a534a,001,2023-12-14_15h17.17.933,bars,2023.2.3,Win32,75.18796992,,,,,,952.6507,953.6428,,,954.1366,954.377,,133,133,,,,,,,,,,,,,,,,bars/045.png,bars/mask008.png,,,,,,,,,,,,0,1,,,,,,,0,10,0,8,,,,,,,,,,,953.6428,954.1366,954.377,955.3903,space,1.0021,,955.3904,33,57,956.3907,956.3907,956.3917,,,,0,49,49,49,1,100,10,,,,,,,,
,,64b6bf2ad951a2caf97a534a,001,2023-12-14_15h17.17.933,bars,2023.2.3,Win32,75.18796992,,,,,,,,,,,,,,,,,,,,,,,,,,,,,,,,,,,,,,,,,,,,,,,,,,,,,,,,,,,,,,,,,,,,,,,,,,,,,,,,,,,,,,,,956.3918,1016.3861,0,1,1,3,1,sequence_tables/blk031.csv
,,64b6bf2ad951a2caf97a534a,001,2023-12-14_15h17.17.933,bars,2023.2.3,Win32,75.18796992,,,,,,1040.4305,1041.4219,,,1041.9153,1042.1689,,157,157,,,,,,,,,,,,,,,,bars/007.png,bars/mask006.png,,,,,,,,,,,,0,1,,,,,,,0,3,0,3,,,,,,1016.3932,1040.4214,space,24.0192,,1041.422,1041.9152,1042.1689,1045.5963,space,3.4228,,1045.5963,18,78,1046.5968,1046.5968,1046.6031,,,,0,0,0,0,1,175,55,,,,,,,,
,,64b6bf2ad951a2caf97a534a,001,2023-12-14_15h17.17.933,bars,2023.2.3,Win32,75.18796992,,,,,,1046.6032,1047.597,,,1048.0915,1048.3444,,93,-87,,,,,,,,,,,,,,,,bars/028.png,bars/mask004.png,,,,,,,,,,,,1,2,,,,,,,2,5,0,6,,,,,,,,,,,1047.597,1048.0915,1048.3444,1054.1461,space,5.7907,,1054.1462,48,27,1055.1464,1055.1464,1055.1534,,,,0,1,1,1,1,45,120,,,,,,,,
,,64b6bf2ad951a2caf97a534a,001,2023-12-14_15h17.17.933,bars,2023.2.3,Win32,75.18796992,,,,,,1055.1536,1056.1467,,,1056.6419,1056.8948,,177,177,,,,,,,,,,,,,,,,bars/024.png,bars/mask003.png,,,,,,,,,,,,5,2,,,,,,,0,7,0,6,,,,,,,,,,,1056.1467,1056.6418,1056.8948,1059.9482,space,3.0392,,1059.9482,57,7,1060.9489,1060.9489,1060.9552,,,,0,2,2,2,1,120,170,,,,,,,,
,,64b6bf2ad951a2caf97a534a,001,2023-12-14_15h17.17.933,bars,2023.2.3,Win32,75.18796992,,,,,,1060.9553,1061.9494,,,1062.4424,1062.6827,,88,88,,,,,,,,,,,,,,,,bars/026.png,bars/mask005.png,,,,,,,,,,,,5,2,,,,,,,2,5,2,5,,,,,,,,,,,1061.9494,1062.4424,1062.6827,1065.3901,space,2.702,,1065.3901,53,3,1066.3908,1066.3909,1066.3913,,,,0,3,3,3,1,35,85,,,,,,,,
,,64b6bf2ad951a2caf97a534a,001,2023-12-14_15h17.17.933,bars,2023.2.3,Win32,75.18796992,,,,,,1066.3915,1067.3909,,,1067.8848,1068.1381,,147,147,,,,,,,,,,,,,,,,bars/005.png,bars/mask006.png,,,,,,,,,,,,5,2,,,,,,,0,7,0,7,,,,,,,,,,,1067.3909,1067.8847,1068.1381,1070.899,space,2.7479,,1070.899,43,7,1071.8996,1071.8996,1071.9058,,,,0,4,4,4,1,10,140,,,,,,,,
,,64b6bf2ad951a2caf97a534a,001,2023-12-14_15h17.17.933,bars,2023.2.3,Win32,75.18796992,,,,,,1071.906,1072.8998,,,1073.394,1073.6464,,59,59,,,,,,,,,,,,,,,,bars/029.png,bars/mask007.png,,,,,,,,,,,,3,2,,,,,,,2,5,3,5,,,,,,,,,,,1072.8998,1073.394,1073.6464,1075.6884,space,2.0363,,1075.6884,31,14,1076.6879,1076.6879,1076.6943,,,,0,5,5,5,1,90,45,,,,,,,,
,,64b6bf2ad951a2caf97a534a,001,2023-12-14_15h17.17.933,bars,2023.2.3,Win32,75.18796992,,,,,,1076.6944,1077.6882,,,1078.1825,1078.4364,,164,164,,,,,,,,,,,,,,,,bars/033.png,bars/mask003.png,,,,,,,,,,,,1,2,,,,,,,0,3,0,2,,,,,,,,,,,1077.6882,1078.1824,1078.4365,1080.4232,space,1.9749,,1080.4232,41,9,1081.423,1081.423,1081.4291,,,,0,6,6,6,1,25,155,,,,,,,,
,,64b6bf2ad951a2caf97a534a,001,2023-12-14_15h17.17.933,bars,2023.2.3,Win32,75.18796992,,,,,,1081.4292,1082.4247,,,1082.9169,1083.1698,,56,56,,,,,,,,,,,,,,,,bars/028.png,bars/mask006.png,,,,,,,,,,,,2,1,,,,,,,2,5,3,5,,,,,,,,,,,1082.4247,1082.9169,1083.1698,1085.011,space,1.8354,,1085.0111,11,64,1086.011,1086.011,1086.0122,,,,0,7,7,7,1,45,120,,,,,,,,
,,64b6bf2ad951a2caf97a534a,001,2023-12-14_15h17.17.933,bars,2023.2.3,Win32,75.18796992,,,,,,1086.0124,1087.0119,,,1087.505,1087.7586,,130,-50,,,,,,,,,,,,,,,,bars/021.png,bars/mask005.png,,,,,,,,,,,,0,1,,,,,,,0,7,0,8,,,,,,,,,,,1087.0119,1087.505,1087.7586,1091.5998,space,3.8282,,1091.5998,25,60,1092.6003,1092.6004,1092.6066,,,,0,8,8,8,1,155,70,,,,,,,,
,,64b6bf2ad951a2caf97a534a,001,2023-12-14_15h17.17.933,bars,2023.2.3,Win32,75.18796992,,,,,,1092.6067,1093.6008,,,1094.095,1094.3355,,162,-18,,,,,,,,,,,,,,,,bars/033.png,bars/mask003.png,,,,,,,,,,,,4,2,,,,,,,2,5,3,5,,,,,,,,,,,1093.6008,1094.095,1094.3356,1096.8026,space,2.4519,,1096.8027,43,7,1097.8022,1097.8022,1097.8089,,,,0,9,9,9,1,25,155,,,,,,,,
,,64b6bf2ad951a2caf97a534a,001,2023-12-14_15h17.17.933,bars,2023.2.3,Win32,75.18796992,,,,,,1097.8091,1098.8026,,,1099.296,1099.5372,,52,232,,,,,,,,,,,,,,,,bars/034.png,bars/mask002.png,,,,,,,,,,,,4,2,,,,,,,0,7,1,7,,,,,,,,,,,1098.8026,1099.296,1099.5372,1102.8708,space,3.3285,,1102.8708,73,13,1103.8709,1103.8709,1103.8774,,,,0,10,10,10,1,125,65,,,,,,,,
,,64b6bf2ad951a2caf97a534a,001,2023-12-14_15h17.17.933,bars,2023.2.3,Win32,75.18796992,,,,,,1103.8775,1104.8714,,,1105.3652,1105.618,,11,11,,,,,,,,,,,,,,,,bars/013.png,bars/mask001.png,,,,,,,,,,,,10,2,,,,,,,0,9,1,10,,,,,,,,,,,1104.8714,1105.3652,1105.618,1108.2993,space,2.6749,,1108.2993,64,1,1109.302,1109.302,1109.322,,,,0,11,11,11,1,75,10,,,,,,,,
,,64b6bf2ad951a2caf97a534a,001,2023-12-14_15h17.17.933,bars,2023.2.3,Win32,75.18796992,,,,,,1109.3223,1110.3136,,,1110.8071,1111.0503,,32,32,,,,,,,,,,,,,,,,bars/029.png,bars/mask007.png,,,,,,,,,,,,4,2,,,,,,,2,7,2,7,,,,,,,,,,,1110.3136,1110.8071,1111.0503,1112.6206,space,1.562,,1112.6206,58,13,1113.6218,1113.6218,1113.6221,,,,0,12,12,12,1,90,45,,,,,,,,
,,64b6bf2ad951a2caf97a534a,001,2023-12-14_15h17.17.933,bars,2023.2.3,Win32,75.18796992,,,,,,1113.6223,1114.6241,,,1115.1156,1115.3693,,21,201,,,,,,,,,,,,,,,,bars/022.png,bars/mask002.png,,,,,,,,,,,,5,2,,,,,,,4,5,3,5,,,,,,,,,,,1114.6242,1115.1156,1115.3694,1118.971,space,3.5875,,1118.971,74,1,1119.9705,1119.9705,1119.977,,,,0,13,13,13,1,95,20,,,,,,,,
,,64b6bf2ad951a2caf97a534a,001,2023-12-14_15h17.17.933,bars,2023.2.3,Win32,75.18796992,,,,,,1119.9771,1120.9721,,,1121.4641,1121.7041,,52,52,,,,,,,,,,,,,,,,bars/046.png,bars/mask003.png,,,,,,,,,,,,0,2,,,,,,,2,3,1,3,,,,,,,,,,,1120.9721,1121.464,1121.7041,1123.359,space,1.6434,,1123.359,77,33,1124.3587,1124.3587,1124.3591,,,,0,14,14,14,1,155,85,,,,,,,,
,,64b6bf2ad951a2caf97a534a,001,2023-12-14_15h17.17.933,bars,2023.2.3,Win32,75.18796992,,,,,,1124.3592,1125.3592,,,1125.8523,1126.0925,,21,21,,,,,,,,,,,,,,,,bars/035.png,bars/mask007.png,,,,,,,,,,,,0,1,,,,,,,4,1,3,3,,,,,,,,,,,1125.3593,1125.8523,1126.0925,1130.5207,space,4.4188,,1130.5207,26,39,1131.5208,1131.5208,1131.5277,,,,0,15,15,15,1,175,60,,,,,,,,
,,64b6bf2ad951a2caf97a534a,001,2023-12-14_15h17.17.933,bars,2023.2.3,Win32,75.18796992,,,,,,1131.5278,1132.5214,,,1133.0193,1133.2696,,172,-8,,,,,,,,,,,,,,,,bars/044.png,bars/mask001.png,,,,,,,,,,,,0,2,,,,,,,6,0,5,0,,,,,,,,,,,1132.5214,1133.0192,1133.2696,1136.6294,space,3.3477,,1136.6294,83,17,1137.6297,1137.6297,1137.6375,,,,0,16,16,16,1,75,155,,,,,,,,
,,64b6bf2ad951a2caf97a534a,001,2023-12-14_15h17.17.933,bars,2023.2.3,Win32,75.18796992,,,,,,1137.6377,1138.6302,,,1139.1238,1139.3639,,41,41,,,,,,,,,,,,,,,,bars/029.png,bars/mask006.png,,,,,,,,,,,,2,2,,,,,,,4,2,5,2,,,,,,,,,,,1138.6303,1139.1238,1139.3639,1142.0314,space,2.6646,,1142.0314,49,4,1143.032,1143.032,1143.0383,,,,0,17,17,17,1,90,45,,,,,,,,
,,64b6bf2ad951a2caf97a534a,001,2023-12-14_15h17.17.933,bars,2023.2.3,Win32,75.18796992,,,,,,1143.0385,1144.0324,,,1144.5257,1144.7658,,9,9,,,,,,,,,,,,,,,,bars/012.png,bars/mask009.png,,,,,,,,,,,,3,2,,,,,,,6,4,7,4,,,,,,,,,,,1144.0325,1144.5257,1144.7658,1147.1677,space,2.3946,,1147.1677,81,6,1148.1677,1148.1677,1148.1681,,,,0,18,18,18,1,90,15,,,,,,,,
,,64b6bf2ad951a2caf97a534a,001,2023-12-14_15h17.17.933,bars,2023.2.3,Win32,75.18796992,,,,,,1148.1682,1149.1684,,,1149.6613,1149.9016,,84,84,,,,,,,,,,,,,,,,bars/001.png,bars/mask008.png,,,,,,,,,,,,3,2,,,,,,,4,2,6,3,,,,,,,,,,,1149.1685,1149.6613,1149.9016,1152.8893,space,2.9794,,1152.8893,46,1,1153.8894,1153.8895,1153.8958,,,,0,19,19,19,1,130,85,,,,,,,,
,,64b6bf2ad951a2caf97a534a,001,2023-12-14_15h17.17.933,bars,2023.2.3,Win32,75.18796992,,,,,,1153.8959,1154.8897,,,1155.3837,1155.6246,,171,171,,,,,,,,,,,,,,,,bars/048.png,bars/mask004.png,,,,,,,,,,,,3,2,,,,,,,6,4,8,4,,,,,,,,,,,1154.8897,1155.3836,1155.6247,1157.3437,space,1.7125,,1157.3437,59,4,1158.3446,1158.3446,1158.3449,,,,0,20,20,20,1,50,175,,,,,,,,
,,64b6bf2ad951a2caf97a534a,001,2023-12-14_15h17.17.933,bars,2023.2.3,Win32,75.18796992,,,,,,1158.345,1159.3444,,,1159.8381,1160.0787,,74,254,,,,,,,,,,,,,,,,bars/021.png,bars/mask009.png,,,,,,,,,,,,5,2,,,,,,,8,6,9,6,,,,,,,,,,,1159.3444,1159.838,1160.0787,1164.9732,space,4.8816,,1164.9733,81,4,1165.9739,1165.9739,1165.98,,,,0,21,21,21,1,155,70,,,,,,,,
,,64b6bf2ad951a2caf97a534a,001,2023-12-14_15h17.17.933,bars,2023.2.3,Win32,75.18796992,,,,,,1165.9801,1166.9739,,,1167.4673,1167.7085,,16,16,,,,,,,,,,,,,,,,bars/040.png,bars/mask006.png,,,,,,,,,,,,5,2,,,,,,,10,8,9,8,,,,,,,,,,,1166.9739,1167.4673,1167.7085,1171.7628,space,4.0412,,1171.7629,56,11,1172.7629,1172.7629,1172.769,,,,0,22,22,22,1,140,5,,,,,,,,
,,64b6bf2ad951a2caf97a534a,001,2023-12-14_15h17.17.933,bars,2023.2.3,Win32,75.18796992,,,,,,1172.7691,1173.7632,,,1174.2568,1174.5103,,128,128,,,,,,,,,,,,,,,,bars/004.png,bars/mask003.png,,,,,,,,,,,,9,2,,,,,,,8,10,7,10,,,,,,,,,,,1173.7632,1174.2568,1174.5103,1177.1244,space,2.6015,,1177.1244,77,3,1178.126,1178.126,1178.1323,,,,0,23,23,23,1,25,125,,,,,,,,
,,64b6bf2ad951a2caf97a534a,001,2023-12-14_15h17.17.933,bars,2023.2.3,Win32,75.18796992,,,,,,1178.1324,1179.1261,,,1179.6183,1179.8587,,132,132,,,,,,,,,,,,,,,,bars/004.png,bars/mask007.png,,,,,,,,,,,,6,2,,,,,,,10,8,10,8,,,,,,,,,,,1179.1261,1179.6183,1179.8587,1181.5396,space,1.6748,,1181.5396,73,7,1182.5409,1182.5409,1182.5471,,,,0,24,24,24,1,25,125,,,,,,,,
,,64b6bf2ad951a2caf97a534a,001,2023-12-14_15h17.17.933,bars,2023.2.3,Win32,75.18796992,,,,,,1182.5471,1183.5411,,,1184.0344,1184.2872,,53,53,,,,,,,,,,,,,,,,bars/029.png,bars/mask001.png,,,,,,,,,,,,4,2,,,,,,,8,6,10,6,,,,,,,,,,,1183.5411,1184.0343,1184.2872,1187.168,space,2.8652,,1187.168,37,8,1188.1686,1188.1686,1188.1755,,,,0,25,25,25,1,90,45,,,,,,,,
,,64b6bf2ad951a2caf97a534a,001,2023-12-14_15h17.17.933,bars,2023.2.3,Win32,75.18796992,,,,,,1188.1756,1189.1689,,,1189.6623,1189.9026,,75,75,,,,,,,,,,,,,,,,bars/038.png,bars/mask005.png,,,,,,,,,,,,3,2,,,,,,,6,4,6,4,,,,,,,,,,,1189.1689,1189.6623,1189.9026,1194.2504,space,4.3439,,1194.2504,90,5,1195.2522,1195.2522,1195.2583,,,,0,26,26,26,1,165,70,,,,,,,,
,,64b6bf2ad951a2caf97a534a,001,2023-12-14_15h17.17.933,bars,2023.2.3,Win32,75.18796992,,,,,,1195.2585,1196.2513,,,1196.7582,1196.9985,,98,98,,,,,,,,,,,,,,,,bars/023.png,bars/mask001.png,,,,,,,,,,,,3,2,,,,,,,8,6,8,7,,,,,,,,,,,1196.2513,1196.7582,1196.9985,1198.8523,space,1.8403,,1198.8523,78,17,1199.8528,1199.8528,1199.8534,,,,0,27,27,27,1,20,115,,,,,,,,
,,64b6bf2ad951a2caf97a534a,001,2023-12-14_15h17.17.933,bars,2023.2.3,Win32,75.18796992,,,,,,1199.8536,1200.8527,,,1201.3484,1201.5996,,13,13,,,,,,,,,,,,,,,,bars/036.png,bars/mask002.png,,,,,,,,,,,,8,2,,,,,,,6,8,8,10,,,,,,,,,,,1200.8527,1201.3484,1201.5996,1202.9752,space,1.3688,,1202.9753,48,7,1203.9741,1203.9741,1203.9744,,,,0,28,28,28,1,145,20,,,,,,,,
,,64b6bf2ad951a2caf97a534a,001,2023-12-14_15h17.17.933,bars,2023.2.3,Win32,75.18796992,,,,,,1203.9746,1204.9747,,,1205.468,1205.7093,,21,21,,,,,,,,,,,,,,,,bars/022.png,bars/mask009.png,,,,,,,,,,,,6,2,,,,,,,8,6,7,6,,,,,,,,,,,1204.9747,1205.4679,1205.7094,1209.3493,space,3.6307,,1209.3493,74,1,1210.35,1210.35,1210.3568,,,,0,29,29,29,1,95,20,,,,,,,,
,,64b6bf2ad951a2caf97a534a,001,2023-12-14_15h17.17.933,bars,2023.2.3,Win32,75.18796992,,,,,,1210.3569,1211.3505,,,1211.8436,1212.0837,,150,-30,,,,,,,,,,,,,,,,bars/005.png,bars/mask008.png,,,,,,,,,,,,5,2,,,,,,,10,8,10,8,,,,,,,,,,,1211.3506,1211.8436,1212.0837,1216.5118,space,4.4243,,1216.5118,40,10,1217.5131,1217.5132,1217.5193,,,,0,30,30,30,1,10,140,,,,,,,,
,,64b6bf2ad951a2caf97a534a,001,2023-12-14_15h17.17.933,bars,2023.2.3,Win32,75.18796992,,,,,,1217.5194,1218.5133,,,1219.0069,1219.2609,,142,-38,,,,,,,,,,,,,,,,bars/004.png,bars/mask009.png,,,,,,,,,,,,4,2,,,,,,,8,10,6,9,,,,,,,,,,,1218.5133,1219.0069,1219.2609,1224.0883,space,4.817,,1224.0883,63,17,1225.0897,1225.0897,1225.1018,,,,0,31,31,31,1,25,125,,,,,,,,
,,64b6bf2ad951a2caf97a534a,001,2023-12-14_15h17.17.933,bars,2023.2.3,Win32,75.18796992,,,,,,1225.102,1226.1024,,,1226.5955,1226.8368,,28,28,,,,,,,,,,,,,,,,bars/025.png,bars/mask006.png,,,,,,,,,,,,5,2,,,,,,,6,8,6,8,,,,,,,,,,,1226.1024,1226.5955,1226.8368,1227.7425,space,0.8969,,1227.7425,77,12,1228.743,1228.743,1228.7435,,,,0,32,32,32,1,105,40,,,,,,,,
,,64b6bf2ad951a2caf97a534a,001,2023-12-14_15h17.17.933,bars,2023.2.3,Win32,75.18796992,,,,,,1228.7437,1229.744,,,1230.2369,1230.4783,,102,-78,,,,,,,,,,,,,,,,bars/006.png,bars/mask006.png,,,,,,,,,,,,9,2,,,,,,,8,10,8,10,,,,,,,,,,,1229.744,1230.2368,1230.4784,1234.5854,space,4.0988,,1234.5854,67,2,1235.5856,1235.5856,1235.5919,,,,0,33,33,33,1,35,100,,,,,,,,
,,64b6bf2ad951a2caf97a534a,001,2023-12-14_15h17.17.933,bars,2023.2.3,Win32,75.18796992,,,,,,1235.592,1236.5859,,,1237.0795,1237.3194,,26,26,,,,,,,,,,,,,,,,bars/036.png,bars/mask000.png,,,,,,,,,,,,8,2,,,,,,,6,8,6,10,,,,,,,,,,,1236.5859,1237.0795,1237.3195,1239.9605,space,2.6296,,1239.9605,61,6,1240.9608,1240.9608,1240.9671,,,,0,34,34,34,1,145,20,,,,,,,,
,,64b6bf2ad951a2caf97a534a,001,2023-12-14_15h17.17.933,bars,2023.2.3,Win32,75.18796992,,,,,,1240.9672,1241.9614,,,1242.4549,1242.6953,,26,26,,,,,,,,,,,,,,,,bars/036.png,bars/mask009.png,,,,,,,,,,,,5,2,,,,,,,4,6,4,6,,,,,,,,,,,1241.9614,1242.4549,1242.6953,1244.2295,space,1.5217,,1244.2295,61,6,1245.2293,1245.2294,1245.2358,,,,0,35,35,35,1,145,20,,,,,,,,
,,64b6bf2ad951a2caf97a534a,001,2023-12-14_15h17.17.933,bars,2023.2.3,Win32,75.18796992,,,,,,1245.2359,1246.2302,,,1246.7229,1246.9766,,84,84,,,,,,,,,,,,,,,,bars/021.png,bars/mask000.png,,,,,,,,,,,,2,2,,,,,,,2,4,2,4,,,,,,,,,,,1246.2302,1246.7229,1246.9766,1250.2174,space,3.2347,,1250.2174,71,14,1251.2177,1251.2177,1251.2239,,,,0,36,36,36,1,155,70,,,,,,,,
,,64b6bf2ad951a2caf97a534a,001,2023-12-14_15h17.17.933,bars,2023.2.3,Win32,75.18796992,,,,,,1251.2241,1252.2183,,,1252.7117,1252.9525,,144,144,,,,,,,,,,,,,,,,bars/000.png,bars/mask002.png,,,,,,,,,,,,4,2,,,,,,,4,6,4,4,,,,,,,,,,,1252.2183,1252.7116,1252.9525,1255.1928,space,2.2332,,1255.1928,76,1,1256.1931,1256.1931,1256.1937,,,,0,37,37,37,1,40,145,,,,,,,,
,,64b6bf2ad951a2caf97a534a,001,2023-12-14_15h17.17.933,bars,2023.2.3,Win32,75.18796992,,,,,,1256.1938,1257.1934,,,1257.6867,1257.927,,77,77,,,,,,,,,,,,,,,,bars/034.png,bars/mask003.png,,,,,,,,,,,,4,2,,,,,,,2,8,1,7,,,,,,,,,,,1257.1934,1257.6867,1257.927,1260.9814,space,3.0436,,1260.9815,48,12,1261.9819,1261.9819,1261.9882,,,,0,38,38,38,1,125,65,,,,,,,,
,,64b6bf2ad951a2caf97a534a,001,2023-12-14_15h17.17.933,bars,2023.2.3,Win32,75.18796992,,,,,,1261.9883,1262.9837,,,1263.4769,1263.7298,,132,132,,,,,,,,,,,,,,,,bars/005.png,bars/mask008.png,,,,,,,,,,,,7,2,,,,,,,4,10,5,10,,,,,,,,,,,1262.9838,1263.4769,1263.7298,1265.3979,space,1.6516,,1265.3981,58,8,1266.3974,1266.3974,1266.3977,,,,0,39,39,39,1,10,140,,,,,,,,
,,64b6bf2ad951a2caf97a534a,001,2023-12-14_15h17.17.933,bars,2023.2.3,Win32,75.18796992,,,,,,1266.3978,1267.3971,,,1267.8919,1268.144,,12,12,,,,,,,,,,,,,,,,bars/040.png,bars/mask006.png,,,,,,,,,,,,5,2,,,,,,,6,8,7,7,,,,,,,,,,,1267.3972,1267.8918,1268.144,1269.8515,space,1.6893,,1269.8516,52,7,1270.8525,1270.8525,1270.8586,,,,0,40,40,40,1,140,5,,,,,,,,
,,64b6bf2ad951a2caf97a534a,001,2023-12-14_15h17.17.933,bars,2023.2.3,Win32,75.18796992,,,,,,1270.8588,1271.852,,,1272.3458,1272.599,,105,105,,,,,,,,,,,,,,,,bars/018.png,bars/mask002.png,,,,,,,,,,,,4,2,,,,,,,4,6,5,7,,,,,,,,,,,1271.8521,1272.3458,1272.599,1275.7199,space,3.1095,,1275.72,45,15,1276.7227,1276.7227,1276.729,,,,0,41,41,41,1,150,90,,,,,,,,
,,64b6bf2ad951a2caf97a534a,001,2023-12-14_15h17.17.933,bars,2023.2.3,Win32,75.18796992,,,,,,1276.7291,1277.7214,,,1278.2147,1278.4697,,92,92,,,,,,,,,,,,,,,,bars/035.png,bars/mask006.png,,,,,,,,,,,,0,2,,,,,,,6,8,6,9,,,,,,,,,,,1277.7214,1278.2146,1278.4698,1280.2018,space,1.7195,,1280.2018,83,32,1281.2023,1281.2023,1281.2087,,,,0,42,42,42,1,175,60,,,,,,,,
,,64b6bf2ad951a2caf97a534a,001,2023-12-14_15h17.17.933,bars,2023.2.3,Win32,75.18796992,,,,,,1281.2088,1282.2029,,,1282.6967,1282.9494,,88,88,,,,,,,,,,,,,,,,bars/028.png,bars/mask004.png,,,,,,,,,,,,0,2,,,,,,,8,6,9,7,,,,,,,,,,,1282.2029,1282.6967,1282.9494,1285.8302,space,2.8765,,1285.8303,43,32,1286.831,1286.831,1286.8373,,,,0,43,43,43,1,45,120,,,,,,,,
,,64b6bf2ad951a2caf97a534a,001,2023-12-14_15h17.17.933,bars,2023.2.3,Win32,75.18796992,,,,,,1286.8375,1287.8312,,,1288.3258,1288.5781,,107,107,,,,,,,,,,,,,,,,bars/023.png,bars/mask004.png,,,,,,,,,,,,7,2,,,,,,,6,8,5,10,,,,,,,,,,,1287.8313,1288.3258,1288.5781,1292.3132,space,3.7197,,1292.3132,87,8,1293.3131,1293.3131,1293.3194,,,,0,44,44,44,1,20,115,,,,,,,,
,,64b6bf2ad951a2caf97a534a,001,2023-12-14_15h17.17.933,bars,2023.2.3,Win32,75.18796992,,,,,,1293.3195,1294.3138,,,1294.8074,1295.0475,,13,13,,,,,,,,,,,,,,,,bars/032.png,bars/mask004.png,,,,,,,,,,,,7,2,,,,,,,4,10,4,9,,,,,,,,,,,1294.3138,1294.8074,1295.0475,1296.9812,space,1.921,,1296.9813,68,7,1297.9818,1297.9818,1297.9822,,,,0,45,45,45,1,125,20,,,,,,,,
,,64b6bf2ad951a2caf97a534a,001,2023-12-14_15h17.17.933,bars,2023.2.3,Win32,75.18796992,,,,,,1297.9824,1298.9821,,,1299.4753,1299.7157,,116,116,,,,,,,,,,,,,,,,bars/043.png,bars/mask004.png,,,,,,,,,,,,5,2,,,,,,,2,8,3,9,,,,,,,,,,,1298.9821,1299.4753,1299.7157,1302.8913,space,3.1592,,1302.8913,86,14,1303.8906,1303.8906,1303.8967,,,,0,46,46,46,1,30,130,,,,,,,,
,,64b6bf2ad951a2caf97a534a,001,2023-12-14_15h17.17.933,bars,2023.2.3,Win32,75.18796992,,,,,,1303.8969,1304.891,,,1305.3842,1305.6252,,141,141,,,,,,,,,,,,,,,,bars/016.png,bars/mask002.png,,,,,,,,,,,,2,2,,,,,,,4,6,4,9,,,,,,,,,,,1304.891,1305.3842,1305.6253,1307.7186,space,2.0809,,1307.7187,79,24,1308.719,1308.719,1308.726,,,,0,47,47,47,1,40,165,,,,,,,,
,,64b6bf2ad951a2caf97a534a,001,2023-12-14_15h17.17.933,bars,2023.2.3,Win32,75.18796992,,,,,,1308.7261,1309.7193,,,1310.2125,1310.4532,,48,228,,,,,,,,,,,,,,,,bars/034.png,bars/mask006.png,,,,,,,,,,,,3,2,,,,,,,2,8,1,7,,,,,,,,,,,1309.7193,1310.2125,1310.4532,1315.0144,space,4.552,,1315.0144,77,17,1316.0152,1316.0153,1316.0214,,,,0,48,48,48,1,125,65,,,,,,,,
,,64b6bf2ad951a2caf97a534a,001,2023-12-14_15h17.17.933,bars,2023.2.3,Win32,75.18796992,,,,,,1316.0215,1317.0151,,,1317.5091,1317.7498,,109,109,,,,,,,,,,,,,,,,bars/047.png,bars/mask009.png,,,,,,,,,,,,0,2,,,,,,,0,6,0,6,,,,,,,,,,,1317.0151,1317.5091,1317.7498,1320.5496,space,2.7854,,1320.5496,86,39,1321.5506,1321.5507,1321.5569,,,,0,49,49,49,1,15,70,,,,,,,,
,,64b6bf2ad951a2caf97a534a,001,2023-12-14_15h17.17.933,bars,2023.2.3,Win32,75.18796992,,,,,,,,,,,,,,,,,,,,,,,,,,,,,,,,,,,,,,,,,,,,,,,,,,,,,,,,,,,,,,,,,,,,,,,,,,,,,,,,,,,,,,,,1321.557,1381.5585,0,2,2,2,1,sequence_tables/blk005.csv
,,64b6bf2ad951a2caf97a534a,001,2023-12-14_15h17.17.933,bars,2023.2.3,Win32,75.18796992,,,,,,1448.0505,1449.0368,,,1449.5314,1449.7839,,100,100,,,,,,,,,,,,,,,,bars/002.png,bars/mask004.png,,,,,,,,,,,,2,2,,,,,,,3,2,6,4,,,,,,1381.565,1448.0367,space,66.458,,1449.0368,1449.5314,1449.784,1453.6652,space,3.8696,,1453.6652,30,15,1454.6657,1454.6658,1454.6724,,,,0,0,0,0,1,130,85,,,,,,,,
,,64b6bf2ad951a2caf97a534a,001,2023-12-14_15h17.17.933,bars,2023.2.3,Win32,75.18796992,,,,,,1454.6726,1455.6659,,,1456.1596,1456.4129,,70,250,,,,,,,,,,,,,,,,bars/042.png,bars/mask004.png,,,,,,,,,,,,3,2,,,,,,,1,4,1,4,,,,,,,,,,,1455.6659,1456.1596,1456.4129,1460.3071,space,3.891,,1460.3072,75,5,1461.3078,1461.3078,1461.3153,,,,0,1,1,1,1,145,75,,,,,,,,
,,64b6bf2ad951a2caf97a534a,001,2023-12-14_15h17.17.933,bars,2023.2.3,Win32,75.18796992,,,,,,1461.3154,1462.3085,,,1462.8016,1463.0419,,140,-40,,,,,,,,,,,,,,,,bars/000.png,bars/mask005.png,,,,,,,,,,,,4,2,,,,,,,3,6,4,5,,,,,,,,,,,1462.3085,1462.8016,1463.0419,1466.7233,space,3.6682,,1466.7233,80,5,1467.7241,1467.7241,1467.7312,,,,0,2,2,2,1,40,145,,,,,,,,
,,64b6bf2ad951a2caf97a534a,001,2023-12-14_15h17.17.933,bars,2023.2.3,Win32,75.18796992,,,,,,1467.7313,1468.7241,,,1469.2177,1469.4707,,104,104,,,,,,,,,,,,,,,,bars/041.png,bars/mask004.png,,,,,,,,,,,,1,2,,,,,,,5,4,5,4,,,,,,,,,,,1468.7242,1469.2177,1469.4708,1471.6448,space,2.1677,,1471.6448,84,19,1472.6465,1472.6465,1472.6616,,,,0,3,3,3,1,20,85,,,,,,,,
,,64b6bf2ad951a2caf97a534a,001,2023-12-14_15h17.17.933,bars,2023.2.3,Win32,75.18796992,,,,,,1472.6618,1473.6594,,,1474.153,1474.3936,,62,242,,,,,,,,,,,,,,,,bars/017.png,bars/mask000.png,,,,,,,,,,,,3,2,,,,,,,3,6,3,6,,,,,,,,,,,1473.6594,1474.153,1474.3937,1478.8076,space,4.407,,1478.8076,83,17,1479.8078,1479.8078,1479.8143,,,,0,4,4,4,1,145,45,,,,,,,,
,,64b6bf2ad951a2caf97a534a,001,2023-12-14_15h17.17.933,bars,2023.2.3,Win32,75.18796992,,,,,,1479.8144,1480.8086,,,1481.302,1481.5563,,31,211,,,,,,,,,,,,,,,,bars/033.png,bars/mask009.png,,,,,,,,,,,,3,1,,,,,,,5,8,4,8,,,,,,,,,,,1480.8086,1481.302,1481.5564,1484.9962,space,3.4325,,1484.9962,6,56,1485.9984,1485.9985,1486.019,,,,0,5,5,5,1,25,155,,,,,,,,
,,64b6bf2ad951a2caf97a534a,001,2023-12-14_15h17.17.933,bars,2023.2.3,Win32,75.18796992,,,,,,1486.0193,1487.0109,,,1487.5043,1487.7584,,120,120,,,,,,,,,,,,,,,,bars/031.png,bars/mask004.png,,,,,,,,,,,,2,1,,,,,,,3,6,2,6,,,,,,,,,,,1487.0109,1487.5043,1487.7584,1489.4511,space,1.6888,,1489.4511,0,85,1490.4522,1490.4522,1490.4592,,,,0,6,6,6,1,120,35,,,,,,,,
,,64b6bf2ad951a2caf97a534a,001,2023-12-14_15h17.17.933,bars,2023.2.3,Win32,75.18796992,,,,,,1490.4593,1491.452,,,1491.9456,1492.1865,,55,55,,,,,,,,,,,,,,,,bars/026.png,bars/mask000.png,,,,,,,,,,,,1,1,,,,,,,1,4,2,4,,,,,,,,,,,1491.452,1491.9456,1492.1865,1494.4931,space,2.2942,,1494.4931,20,30,1495.4938,1495.4939,1495.5,,,,0,7,7,7,1,35,85,,,,,,,,
,,64b6bf2ad951a2caf97a534a,001,2023-12-14_15h17.17.933,bars,2023.2.3,Win32,75.18796992,,,,,,1495.5002,1496.4943,,,1496.9878,1497.2418,,127,127,,,,,,,,,,,,,,,,bars/027.png,bars/mask005.png,,,,,,,,,,,,0,1,,,,,,,0,2,0,2,,,,,,,,,,,1496.4943,1496.9878,1497.2419,1500.522,space,3.2709,,1500.522,17,77,1501.5221,1501.5222,1501.5284,,,,0,8,8,8,1,110,50,,,,,,,,
,,64b6bf2ad951a2caf97a534a,001,2023-12-14_15h17.17.933,bars,2023.2.3,Win32,75.18796992,,,,,,1501.5285,1502.523,,,1503.0163,1503.2575,,111,111,,,,,,,,,,,,,,,,bars/013.png,bars/mask003.png,,,,,,,,,,,,0,1,,,,,,,0,4,0,3,,,,,,,,,,,1502.523,1503.0162,1503.2575,1506.3782,space,3.112,,1506.3782,36,79,1507.3783,1507.3783,1507.3845,,,,0,9,9,9,1,75,10,,,,,,,,
,,64b6bf2ad951a2caf97a534a,001,2023-12-14_15h17.17.933,bars,2023.2.3,Win32,75.18796992,,,,,,1507.3847,1508.3783,,,1508.8717,1509.1251,,91,91,,,,,,,,,,,,,,,,bars/039.png,bars/mask007.png,,,,,,,,,,,,3,2,,,,,,,0,6,0,5,,,,,,,,,,,1508.3783,1508.8717,1509.1252,1513.0597,space,3.9276,,1513.0597,84,14,1514.0606,1514.0606,1514.0671,,,,0,10,10,10,1,175,105,,,,,,,,
,,64b6bf2ad951a2caf97a534a,001,2023-12-14_15h17.17.933,bars,2023.2.3,Win32,75.18796992,,,,,,1514.0673,1515.0623,,,1515.5541,1515.7959,,47,47,,,,,,,,,,,,,,,,bars/035.png,bars/mask005.png,,,,,,,,,,,,5,2,,,,,,,0,8,0,9,,,,,,,,,,,1515.0624,1515.5541,1515.796,1517.0748,space,1.2723,,1517.0749,52,13,1518.0756,1518.0757,1518.0761,,,,0,11,11,11,1,175,60,,,,,,,,
,,64b6bf2ad951a2caf97a534a,001,2023-12-14_15h17.17.933,bars,2023.2.3,Win32,75.18796992,,,,,,1518.0762,1519.0757,,,1519.5693,1519.8225,,60,60,,,,,,,,,,,,,,,,bars/010.png,bars/mask005.png,,,,,,,,,,,,8,2,,,,,,,2,10,2,9,,,,,,,,,,,1519.0757,1519.5693,1519.8225,1524.2638,space,4.4357,,1524.2638,75,5,1525.2665,1525.2665,1525.2727,,,,0,12,12,12,1,165,55,,,,,,,,
,,64b6bf2ad951a2caf97a534a,001,2023-12-14_15h17.17.933,bars,2023.2.3,Win32,75.18796992,,,,,,1525.2728,1526.2658,,,1526.7582,1526.9984,,132,132,,,,,,,,,,,,,,,,bars/043.png,bars/mask005.png,,,,,,,,,,,,9,2,,,,,,,0,10,0,10,,,,,,,,,,,1526.2658,1526.7582,1526.9984,1529.426,space,2.4172,,1529.426,78,2,1530.426,1530.426,1530.4323,,,,0,13,13,13,1,30,130,,,,,,,,
,,64b6bf2ad951a2caf97a534a,001,2023-12-14_15h17.17.933,bars,2023.2.3,Win32,75.18796992,,,,,,1530.4324,1531.427,,,1531.9204,1532.1605,,59,239,,,,,,,,,,,,,,,,bars/010.png,bars/mask002.png,,,,,,,,,,,,9,2,,,,,,,0,10,0,10,,,,,,,,,,,1531.4271,1531.9204,1532.1605,1535.7081,space,3.5337,,1535.7081,74,4,1536.7087,1536.7087,1536.7149,,,,0,14,14,14,1,165,55,,,,,,,,
,,64b6bf2ad951a2caf97a534a,001,2023-12-14_15h17.17.933,bars,2023.2.3,Win32,75.18796992,,,,,,1536.7151,1537.7089,,,1538.2027,1538.4562,,165,165,,,,,,,,,,,,,,,,bars/044.png,bars/mask007.png,,,,,,,,,,,,5,2,,,,,,,2,8,3,8,,,,,,,,,,,1537.7089,1538.2026,1538.4563,1539.6163,space,1.1493,,1539.6163,90,10,1540.6166,1540.6166,1540.6171,,,,0,15,15,15,1,75,155,,,,,,,,
,,64b6bf2ad951a2caf97a534a,001,2023-12-14_15h17.17.933,bars,2023.2.3,Win32,75.18796992,,,,,,1540.6173,1541.6172,,,1542.1104,1542.3513,,39,39,,,,,,,,,,,,,,,,bars/025.png,bars/mask000.png,,,,,,,,,,,,5,2,,,,,,,0,6,0,5,,,,,,,,,,,1541.6172,1542.1104,1542.3514,1545.0448,space,2.6901,,1545.0448,66,1,1546.0452,1546.0452,1546.0456,,,,0,16,16,16,1,105,40,,,,,,,,
,,64b6bf2ad951a2caf97a534a,001,2023-12-14_15h17.17.933,bars,2023.2.3,Win32,75.18796992,,,,,,1546.0458,1547.0455,,,1547.539,1547.7793,,34,34,,,,,,,,,,,,,,,,bars/027.png,bars/mask004.png,,,,,,,,,,,,1,2,,,,,,,2,4,2,3,,,,,,,,,,,1547.0456,1547.539,1547.7793,1549.8071,space,2.0149,,1549.8071,76,16,1550.8069,1550.8069,1550.8131,,,,0,17,17,17,1,110,50,,,,,,,,
,,64b6bf2ad951a2caf97a534a,001,2023-12-14_15h17.17.933,bars,2023.2.3,Win32,75.18796992,,,,,,1550.8133,1551.808,,,1552.3006,1552.5414,,103,103,,,,,,,,,,,,,,,,bars/018.png,bars/mask009.png,,,,,,,,,,,,4,2,,,,,,,0,6,1,7,,,,,,,,,,,1551.808,1552.3006,1552.5415,1554.289,space,1.742,,1554.2891,47,13,1555.2887,1555.2888,1555.2893,,,,0,18,18,18,1,150,90,,,,,,,,
,,64b6bf2ad951a2caf97a534a,001,2023-12-14_15h17.17.933,bars,2023.2.3,Win32,75.18796992,,,,,,1555.2895,1556.29,,,1556.7827,1557.0362,,115,115,,,,,,,,,,,,,,,,bars/011.png,bars/mask000.png,,,,,,,,,,,,0,2,,,,,,,2,8,2,8,,,,,,,,,,,1556.2901,1556.7827,1557.0362,1560.1968,space,3.1566,,1560.1968,45,30,1561.1976,1561.1976,1561.204,,,,0,19,19,19,1,160,85,,,,,,,,
,,64b6bf2ad951a2caf97a534a,001,2023-12-14_15h17.17.933,bars,2023.2.3,Win32,75.18796992,,,,,,1561.2041,1562.199,,,1562.6911,1562.9322,,103,103,,,,,,,,,,,,,,,,bars/023.png,bars/mask003.png,,,,,,,,,,,,5,2,,,,,,,4,6,4,8,,,,,,,,,,,1562.1991,1562.6911,1562.9322,1565.1056,space,2.1644,,1565.1056,83,12,1566.1072,1566.1072,1566.1077,,,,0,20,20,20,1,20,115,,,,,,,,
,,64b6bf2ad951a2caf97a534a,001,2023-12-14_15h17.17.933,bars,2023.2.3,Win32,75.18796992,,,,,,1566.1078,1567.1067,,,1567.5997,1567.8399,,35,215,,,,,,,,,,,,,,,,bars/045.png,bars/mask007.png,,,,,,,,,,,,1,2,,,,,,,6,4,6,4,,,,,,,,,,,1567.1067,1567.5996,1567.84,1572.3747,space,4.5288,,1572.3747,65,25,1573.3754,1573.3754,1573.3819,,,,0,21,21,21,1,100,10,,,,,,,,
,,64b6bf2ad951a2caf97a534a,001,2023-12-14_15h17.17.933,bars,2023.2.3,Win32,75.18796992,,,,,,1573.382,1574.3758,,,1574.8696,1575.1101,,33,33,,,,,,,,,,,,,,,,bars/027.png,bars/mask003.png,,,,,,,,,,,,1,2,,,,,,,8,2,8,2,,,,,,,,,,,1574.3758,1574.8696,1575.1101,1577.1786,space,2.0555,,1577.1787,77,17,1578.1769,1578.1769,1578.1838,,,,0,22,22,22,1,110,50,,,,,,,,
,,64b6bf2ad951a2caf97a534a,001,2023-12-14_15h17.17.933,bars,2023.2.3,Win32,75.18796992,,,,,,1578.184,1579.1775,,,1579.6709,1579.9111,,167,167,,,,,,,,,,,,,,,,bars/044.png,bars/mask004.png,,,,,,,,,,,,4,2,,,,,,,6,4,6,6,,,,,,,,,,,1579.1775,1579.6709,1579.9111,1583.7521,space,3.8244,,1583.7521,88,12,1584.753,1584.753,1584.7592,,,,0,23,23,23,1,75,155,,,,,,,,
,,64b6bf2ad951a2caf97a534a,001,2023-12-14_15h17.17.933,bars,2023.2.3,Win32,75.18796992,,,,,,1584.7594,1585.7533,,,1586.2464,1586.4866,,111,111,,,,,,,,,,,,,,,,bars/009.png,bars/mask006.png,,,,,,,,,,,,1,2,,,,,,,4,2,3,1,,,,,,,,,,,1585.7533,1586.2464,1586.4867,1588.5277,space,2.0296,,1588.5278,84,6,1589.5278,1589.5278,1589.5282,,,,0,24,24,24,1,15,105,,,,,,,,
,,64b6bf2ad951a2caf97a534a,001,2023-12-14_15h17.17.933,bars,2023.2.3,Win32,75.18796992,,,,,,1589.5284,1590.5283,,,1591.0219,1591.2762,,134,-46,,,,,,,,,,,,,,,,bars/033.png,bars/mask004.png,,,,,,,,,,,,1,2,,,,,,,2,4,2,2,,,,,,,,,,,1590.5283,1591.0219,1591.2763,1594.3293,space,3.042,,1594.3294,71,21,1595.3299,1595.3299,1595.3364,,,,0,25,25,25,1,25,155,,,,,,,,
,,64b6bf2ad951a2caf97a534a,001,2023-12-14_15h17.17.933,bars,2023.2.3,Win32,75.18796992,,,,,,1595.3365,1596.33,,,1596.8237,1597.064,,60,240,,,,,,,,,,,,,,,,bars/046.png,bars/mask009.png,,,,,,,,,,,,1,2,,,,,,,4,6,4,6,,,,,,,,,,,1596.33,1596.8237,1597.064,1601.1851,space,4.111,,1601.1852,85,25,1602.1861,1602.1861,1602.1923,,,,0,26,26,26,1,155,85,,,,,,,,
,,64b6bf2ad951a2caf97a534a,001,2023-12-14_15h17.17.933,bars,2023.2.3,Win32,75.18796992,,,,,,1602.1924,1603.1863,,,1603.6797,1603.9198,,37,37,,,,,,,,,,,,,,,,bars/007.png,bars/mask006.png,,,,,,,,,,,,0,2,,,,,,,2,4,1,1,,,,,,,,,,,1603.1863,1603.6797,1603.9198,1607.2543,space,3.3247,,1607.2544,42,18,1608.2542,1608.2542,1608.2607,,,,0,27,27,27,1,175,55,,,,,,,,
,,64b6bf2ad951a2caf97a534a,001,2023-12-14_15h17.17.933,bars,2023.2.3,Win32,75.18796992,,,,,,1608.2608,1609.2562,,,1609.7485,1609.989,,79,79,,,,,,,,,,,,,,,,bars/026.png,bars/mask002.png,,,,,,,,,,,,2,2,,,,,,,4,2,5,3,,,,,,,,,,,1609.2562,1609.7485,1609.989,1612.5097,space,2.5134,,1612.5097,44,6,1613.5098,1613.5098,1613.516,,,,0,28,28,28,1,35,85,,,,,,,,
,,64b6bf2ad951a2caf97a534a,001,2023-12-14_15h17.17.933,bars,2023.2.3,Win32,75.18796992,,,,,,1613.5162,1614.5103,,,1615.0046,1615.2594,,50,50,,,,,,,,,,,,,,,,bars/035.png,bars/mask008.png,,,,,,,,,,,,0,2,,,,,,,2,0,3,0,,,,,,,,,,,1614.5103,1615.0046,1615.2594,1616.4179,space,1.1466,,1616.4179,55,10,1617.4199,1617.42,1617.4213,,,,0,29,29,29,1,175,60,,,,,,,,
,,64b6bf2ad951a2caf97a534a,001,2023-12-14_15h17.17.933,bars,2023.2.3,Win32,75.18796992,,,,,,1617.422,1618.4187,,,1618.912,1619.1521,,57,57,,,,,,,,,,,,,,,,bars/001.png,bars/mask002.png,,,,,,,,,,,,0,2,,,,,,,0,0,2,0,,,,,,,,,,,1618.4187,1618.912,1619.1521,1622.5796,space,3.4175,,1622.5796,73,28,1623.58,1623.58,1623.5862,,,,0,30,30,30,1,130,85,,,,,,,,
,,64b6bf2ad951a2caf97a534a,001,2023-12-14_15h17.17.933,bars,2023.2.3,Win32,75.18796992,,,,,,1623.5863,1624.5802,,,1625.0745,1625.3159,,117,117,,,,,,,,,,,,,,,,bars/023.png,bars/mask007.png,,,,,,,,,,,,0,2,,,,,,,2,0,1,0,,,,,,,,,,,1624.5802,1625.0745,1625.3159,1628.355,space,3.0262,,1628.3551,83,2,1629.3561,1629.3562,1629.3709,,,,0,31,31,31,1,20,115,,,,,,,,
,,64b6bf2ad951a2caf97a534a,001,2023-12-14_15h17.17.933,bars,2023.2.3,Win32,75.18796992,,,,,,1629.3711,1630.3697,,,1630.8627,1631.1032,,30,30,,,,,,,,,,,,,,,,bars/033.png,bars/mask005.png,,,,,,,,,,,,0,1,,,,,,,0,0,0,0,,,,,,,,,,,1630.3697,1630.8627,1631.1033,1632.4115,space,1.298,,1632.4115,5,55,1633.4105,1633.4105,1633.4115,,,,0,32,32,32,1,25,155,,,,,,,,
,,64b6bf2ad951a2caf97a534a,001,2023-12-14_15h17.17.933,bars,2023.2.3,Win32,75.18796992,,,,,,1633.4116,1634.4108,,,1634.905,1635.1576,,107,107,,,,,,,,,,,,,,,,bars/009.png,bars/mask001.png,,,,,,,,,,,,2,2,,,,,,,0,2,0,2,,,,,,,,,,,1634.4108,1634.905,1635.1576,1639.386,space,4.2154,,1639.3861,88,2,1640.3864,1640.3865,1640.3933,,,,0,33,33,33,1,15,105,,,,,,,,
,,64b6bf2ad951a2caf97a534a,001,2023-12-14_15h17.17.933,bars,2023.2.3,Win32,75.18796992,,,,,,1640.3934,1641.3864,,,1641.8802,1642.1336,,117,117,,,,,,,,,,,,,,,,bars/006.png,bars/mask002.png,,,,,,,,,,,,0,2,,,,,,,2,0,2,1,,,,,,,,,,,1641.3864,1641.8801,1642.1336,1646.3374,space,4.1941,,1646.3374,82,17,1647.3361,1647.3361,1647.3424,,,,0,34,34,34,1,35,100,,,,,,,,
,,64b6bf2ad951a2caf97a534a,001,2023-12-14_15h17.17.933,bars,2023.2.3,Win32,75.18796992,,,,,,1647.3426,1648.3357,,,1648.8301,1649.0826,,104,104,,,,,,,,,,,,,,,,bars/049.png,bars/mask004.png,,,,,,,,,,,,1,2,,,,,,,0,2,0,1,,,,,,,,,,,1648.3357,1648.8301,1649.0826,1651.2441,space,2.1564,,1651.2441,56,11,1652.2437,1652.2437,1652.2499,,,,0,35,35,35,1,160,115,,,,,,,,
,,64b6bf2ad951a2caf97a534a,001,2023-12-14_15h17.17.933,bars,2023.2.3,Win32,75.18796992,,,,,,1652.25,1653.2445,,,1653.7381,1653.9786,,92,92,,,,,,,,,,,,,,,,bars/049.png,bars/mask001.png,,,,,,,,,,,,0,2,,,,,,,2,0,3,0,,,,,,,,,,,1653.2446,1653.7381,1653.9786,1655.8725,space,1.8816,,1655.8726,68,23,1656.8726,1656.8726,1656.8788,,,,0,36,36,36,1,160,115,,,,,,,,
,,64b6bf2ad951a2caf97a534a,001,2023-12-14_15h17.17.933,bars,2023.2.3,Win32,75.18796992,,,,,,1656.8789,1657.8724,,,1658.366,1658.6074,,38,38,,,,,,,,,,,,,,,,bars/030.png,bars/mask006.png,,,,,,,,,,,,0,2,,,,,,,4,2,5,1,,,,,,,,,,,1657.8725,1658.366,1658.6074,1660.7938,space,2.1754,,1660.7938,78,27,1661.7939,1661.7939,1661.7942,,,,0,37,37,37,1,140,65,,,,,,,,
,,64b6bf2ad951a2caf97a534a,001,2023-12-14_15h17.17.933,bars,2023.2.3,Win32,75.18796992,,,,,,1661.7943,1662.7944,,,1663.2882,1663.5417,,29,29,,,,,,,,,,,,,,,,bars/022.png,bars/mask000.png,,,,,,,,,,,,4,2,,,,,,,2,4,2,5,,,,,,,,,,,1662.7944,1663.2882,1663.5418,1664.3293,space,0.7793,,1664.3293,66,9,1665.3313,1665.3313,1665.3317,,,,0,38,38,38,1,95,20,,,,,,,,
,,64b6bf2ad951a2caf97a534a,001,2023-12-14_15h17.17.933,bars,2023.2.3,Win32,75.18796992,,,,,,1665.3318,1666.3294,,,1666.824,1667.0761,,104,104,,,,,,,,,,,,,,,,bars/023.png,bars/mask006.png,,,,,,,,,,,,4,2,,,,,,,4,6,3,6,,,,,,,,,,,1666.3295,1666.824,1667.0761,1669.0104,space,1.9286,,1669.0104,84,11,1670.0104,1670.0104,1670.011,,,,0,39,39,39,1,20,115,,,,,,,,
,,64b6bf2ad951a2caf97a534a,001,2023-12-14_15h17.17.933,bars,2023.2.3,Win32,75.18796992,,,,,,1670.0111,1671.011,,,1671.5045,1671.7576,,45,45,,,,,,,,,,,,,,,,bars/047.png,bars/mask002.png,,,,,,,,,,,,0,2,,,,,,,2,4,1,3,,,,,,,,,,,1671.011,1671.5045,1671.7576,1675.8436,space,4.0716,,1675.8436,30,25,1676.8408,1676.8408,1676.8469,,,,0,40,40,40,1,15,70,,,,,,,,
,,64b6bf2ad951a2caf97a534a,001,2023-12-14_15h17.17.933,bars,2023.2.3,Win32,75.18796992,,,,,,1676.847,1677.8419,,,1678.3336,1678.5867,,40,220,,,,,,,,,,,,,,,,bars/007.png,bars/mask008.png,,,,,,,,,,,,1,2,,,,,,,4,2,3,2,,,,,,,,,,,1677.842,1678.3335,1678.5867,1682.4015,space,3.8066,,1682.4016,45,15,1683.4019,1683.4019,1683.4082,,,,0,41,41,41,1,175,55,,,,,,,,
,,64b6bf2ad951a2caf97a534a,001,2023-12-14_15h17.17.933,bars,2023.2.3,Win32,75.18796992,,,,,,1683.4084,1684.4025,,,1684.8963,1685.1371,,35,35,,,,,,,,,,,,,,,,bars/029.png,bars/mask009.png,,,,,,,,,,,,1,2,,,,,,,6,0,7,1,,,,,,,,,,,1684.4025,1684.8963,1685.1371,1688.2173,space,3.0702,,1688.2174,55,10,1689.2211,1689.2211,1689.2279,,,,0,42,42,42,1,90,45,,,,,,,,
,,64b6bf2ad951a2caf97a534a,001,2023-12-14_15h17.17.933,bars,2023.2.3,Win32,75.18796992,,,,,,1689.228,1690.2308,,,1690.7249,1690.9781,,14,194,,,,,,,,,,,,,,,,bars/012.png,bars/mask003.png,,,,,,,,,,,,0,2,,,,,,,4,0,6,0,,,,,,,,,,,1690.2308,1690.7249,1690.9781,1693.9256,space,2.9411,,1693.9256,76,1,1694.9277,1694.9278,1694.9468,,,,0,43,43,43,1,90,15,,,,,,,,
,,64b6bf2ad951a2caf97a534a,001,2023-12-14_15h17.17.933,bars,2023.2.3,Win32,75.18796992,,,,,,1694.947,1695.9398,,,1696.4334,1696.6868,,101,101,,,,,,,,,,,,,,,,bars/018.png,bars/mask003.png,,,,,,,,,,,,0,2,,,,,,,2,0,2,0,,,,,,,,,,,1695.9398,1696.4333,1696.6869,1698.1139,space,1.4152,,1698.114,49,11,1699.1167,1699.1168,1699.1177,,,,0,44,44,44,1,150,90,,,,,,,,
,,64b6bf2ad951a2caf97a534a,001,2023-12-14_15h17.17.933,bars,2023.2.3,Win32,75.18796992,,,,,,1699.118,1700.1154,,,1700.6086,1700.8618,,78,78,,,,,,,,,,,,,,,,bars/013.png,bars/mask001.png,,,,,,,,,,,,0,1,,,,,,,0,0,0,2,,,,,,,,,,,1700.1154,1700.6086,1700.8618,1703.4358,space,2.5618,,1703.4358,3,68,1704.4371,1704.4371,1704.4437,,,,0,45,45,45,1,75,10,,,,,,,,
,,64b6bf2ad951a2caf97a534a,001,2023-12-14_15h17.17.933,bars,2023.2.3,Win32,75.18796992,,,,,,1704.4439,1705.4369,,,1705.9332,1706.184,,164,-16,,,,,,,,,,,,,,,,bars/047.png,bars/mask008.png,,,,,,,,,,,,0,1,,,,,,,2,2,2,1,,,,,,,,,,,1705.4369,1705.9332,1706.184,1711.3854,space,5.1889,,1711.3854,31,86,1712.3859,1712.3859,1712.3925,,,,0,46,46,46,1,15,70,,,,,,,,
,,64b6bf2ad951a2caf97a534a,001,2023-12-14_15h17.17.933,bars,2023.2.3,Win32,75.18796992,,,,,,1712.3926,1713.386,,,1713.8795,1714.122,,28,208,,,,,,,,,,,,,,,,bars/031.png,bars/mask005.png,,,,,,,,,,,,1,2,,,,,,,4,0,5,1,,,,,,,,,,,1713.3861,1713.8795,1714.122,1718.2546,space,4.1233,,1718.2546,88,7,1719.2558,1719.2558,1719.2623,,,,0,47,47,47,1,120,35,,,,,,,,
,,64b6bf2ad951a2caf97a534a,001,2023-12-14_15h17.17.933,bars,2023.2.3,Win32,75.18796992,,,,,,1719.2624,1720.2553,,,1720.7494,1721.0035,,23,23,,,,,,,,,,,,,,,,bars/022.png,bars/mask006.png,,,,,,,,,,,,3,2,,,,,,,6,2,7,3,,,,,,,,,,,1720.2553,1720.7494,1721.0035,1722.0156,space,1.0079,,1722.0158,72,3,1723.0163,1723.0163,1723.0168,,,,0,48,48,48,1,95,20,,,,,,,,
,,64b6bf2ad951a2caf97a534a,001,2023-12-14_15h17.17.933,bars,2023.2.3,Win32,75.18796992,,,,,,1723.0169,1724.0165,,,1724.5104,1724.7508,,36,36,,,,,,,,,,,,,,,,bars/025.png,bars/mask003.png,,,,,,,,,,,,3,2,,,,,,,4,4,3,4,,,,,,,,,,,1724.0166,1724.5104,1724.7508,1726.2313,space,1.4653,,1726.2314,69,4,1727.2319,1727.2319,1727.2323,,,,0,49,49,49,1,105,40,,,,,,,,
,,64b6bf2ad951a2caf97a534a,001,2023-12-14_15h17.17.933,bars,2023.2.3,Win32,75.18796992,,,,,,,,,,,,,,,,,,,,,,,,,,,,,,,,,,,,,,,,,,,,,,,,,,,,,,,,,,,,,,,,,,,,,,,,,,,,,,,,,,,,,,,,1727.2324,1787.2262,0,3,3,0,1,sequence_tables/blk023.csv
,,64b6bf2ad951a2caf97a534a,001,2023-12-14_15h17.17.933,bars,2023.2.3,Win32,75.18796992,,,,,,1807.8707,1808.8609,,,1809.3548,1809.5956,,174,174,,,,,,,,,,,,,,,,bars/012.png,bars/mask001.png,,,,,,,,,,,,2,2,,,,,,,5,8,5,7,,,,,,1787.2326,1807.8613,space,20.6175,,1808.8609,1809.3547,1809.5957,1812.356,space,2.7495,,1812.356,84,21,1813.3564,1813.3564,1813.3624,,,,0,0,0,0,1,90,15,,,,,,,,
,,64b6bf2ad951a2caf97a534a,001,2023-12-14_15h17.17.933,bars,2023.2.3,Win32,75.18796992,,,,,,1813.3625,1814.3568,,,1814.8502,1815.0917,,65,65,,,,,,,,,,,,,,,,bars/034.png,bars/mask001.png,,,,,,,,,,,,8,2,,,,,,,3,6,4,8,,,,,,,,,,,1814.3569,1814.85,1815.0919,1818.238,space,3.1333,,1818.238,60,0,1819.2381,1819.2382,1819.2442,,,,0,1,1,1,1,125,65,,,,,,,,
,,64b6bf2ad951a2caf97a534a,001,2023-12-14_15h17.17.933,bars,2023.2.3,Win32,75.18796992,,,,,,1819.2443,1820.2387,,,1820.7322,1820.9758,,156,156,,,,,,,,,,,,,,,,bars/013.png,bars/mask002.png,,,,,,,,,,,,0,2,,,,,,,5,8,5,9,,,,,,,,,,,1820.2388,1820.7322,1820.9759,1824.8424,space,3.8508,,1824.8425,81,34,1825.8402,1825.8402,1825.8464,,,,0,2,2,2,1,75,10,,,,,,,,
,,64b6bf2ad951a2caf97a534a,001,2023-12-14_15h17.17.933,bars,2023.2.3,Win32,75.18796992,,,,,,1825.8466,1826.8408,,,1827.3347,1827.5876,,132,132,,,,,,,,,,,,,,,,bars/049.png,bars/mask009.png,,,,,,,,,,,,2,2,,,,,,,7,6,7,5,,,,,,,,,,,1826.8409,1827.3347,1827.5876,1829.1748,space,1.5717,,1829.1749,28,17,1830.1759,1830.1759,1830.1822,,,,0,3,3,3,1,160,115,,,,,,,,
,,64b6bf2ad951a2caf97a534a,001,2023-12-14_15h17.17.933,bars,2023.2.3,Win32,75.18796992,,,,,,1830.1824,1831.1755,,,1831.6695,1831.9228,,61,61,,,,,,,,,,,,,,,,bars/046.png,bars/mask000.png,,,,,,,,,,,,0,2,,,,,,,9,4,8,2,,,,,,,,,,,1831.1755,1831.6695,1831.9228,1833.203,space,1.2667,,1833.203,86,24,1834.2049,1834.2049,1834.211,,,,0,4,4,4,1,155,85,,,,,,,,
,,64b6bf2ad951a2caf97a534a,001,2023-12-14_15h17.17.933,bars,2023.2.3,Win32,75.18796992,,,,,,1834.2111,1835.2039,,,1835.6976,1835.9511,,36,216,,,,,,,,,,,,,,,,bars/016.png,bars/mask006.png,,,,,,,,,,,,7,1,,,,,,,7,6,8,4,,,,,,,,,,,1835.204,1835.6975,1835.9512,1840.779,space,4.8204,,1840.779,4,51,1841.7811,1841.7811,1841.8028,,,,0,5,5,5,1,40,165,,,,,,,,
,,64b6bf2ad951a2caf97a534a,001,2023-12-14_15h17.17.933,bars,2023.2.3,Win32,75.18796992,,,,,,1841.8031,1842.7942,,,1843.2867,1843.5272,,130,130,,,,,,,,,,,,,,,,bars/027.png,bars/mask006.png,,,,,,,,,,,,3,1,,,,,,,9,8,9,7,,,,,,,,,,,1842.7942,1843.2867,1843.5272,1845.5276,space,1.9953,,1845.5276,20,80,1846.5281,1846.5281,1846.5343,,,,0,6,6,6,1,110,50,,,,,,,,
,,64b6bf2ad951a2caf97a534a,001,2023-12-14_15h17.17.933,bars,2023.2.3,Win32,75.18796992,,,,,,1846.5344,1847.5284,,,1848.0216,1848.262,,132,-48,,,,,,,,,,,,,,,,bars/015.png,bars/mask006.png,,,,,,,,,,,,2,1,,,,,,,7,10,7,10,,,,,,,,,,,1847.5284,1848.0215,1848.262,1851.0761,space,2.8081,,1851.0762,22,28,1852.0767,1852.0768,1852.083,,,,0,7,7,7,1,110,160,,,,,,,,
,,64b6bf2ad951a2caf97a534a,001,2023-12-14_15h17.17.933,bars,2023.2.3,Win32,75.18796992,,,,,,1852.0831,1853.0769,,,1853.5721,1853.8237,,134,134,,,,,,,,,,,,,,,,bars/046.png,bars/mask006.png,,,,,,,,,,,,1,1,,,,,,,5,10,4,9,,,,,,,,,,,1853.0769,1853.572,1853.8237,1855.5847,space,1.7535,,1855.5847,21,49,1856.5853,1856.5853,1856.5913,,,,0,8,8,8,1,155,85,,,,,,,,
,,64b6bf2ad951a2caf97a534a,001,2023-12-14_15h17.17.933,bars,2023.2.3,Win32,75.18796992,,,,,,1856.5914,1857.5853,,,1858.079,1858.3324,,124,124,,,,,,,,,,,,,,,,bars/022.png,bars/mask007.png,,,,,,,,,,,,0,1,,,,,,,7,8,7,8,,,,,,,,,,,1857.5853,1858.079,1858.3324,1861.0397,space,2.6943,,1861.0397,29,76,1862.0399,1862.04,1862.0462,,,,0,9,9,9,1,95,20,,,,,,,,
,,64b6bf2ad951a2caf97a534a,001,2023-12-14_15h17.17.933,bars,2023.2.3,Win32,75.18796992,,,,,,1862.0463,1863.0404,,,1863.5344,1863.7875,,141,-39,,,,,,,,,,,,,,,,bars/020.png,bars/mask001.png,,,,,,,,,,,,1,1,,,,,,,9,6,10,6,,,,,,,,,,,1863.0405,1863.5344,1863.7875,1867.1753,space,3.3859,,1867.1753,26,29,1868.176,1868.176,1868.1824,,,,0,10,10,10,1,115,170,,,,,,,,
,,64b6bf2ad951a2caf97a534a,001,2023-12-14_15h17.17.933,bars,2023.2.3,Win32,75.18796992,,,,,,1868.1825,1869.1765,,,1869.6703,1869.9235,,30,210,,,,,,,,,,,,,,,,bars/043.png,bars/mask001.png,,,,,,,,,,,,10,1,,,,,,,10,8,10,7,,,,,,,,,,,1869.1765,1869.6703,1869.9235,1874.0979,space,4.1622,,1874.0979,0,80,1875.098,1875.0981,1875.1041,,,,0,11,11,11,1,30,130,,,,,,,,
,,64b6bf2ad951a2caf97a534a,001,2023-12-14_15h17.17.933,bars,2023.2.3,Win32,75.18796992,,,,,,1875.1043,1876.0984,,,1876.5921,1876.8454,,24,204,,,,,,,,,,,,,,,,bars/004.png,bars/mask005.png,,,,,,,,,,,,10,1,,,,,,,8,10,10,10,,,,,,,,,,,1876.0984,1876.5921,1876.8454,1880.6604,space,3.8127,,1880.6604,1,79,1881.661,1881.661,1881.6673,,,,0,12,12,12,1,25,125,,,,,,,,
,,64b6bf2ad951a2caf97a534a,001,2023-12-14_15h17.17.933,bars,2023.2.3,Win32,75.18796992,,,,,,1881.6674,1882.6612,,,1883.1545,1883.408,,137,137,,,,,,,,,,,,,,,,bars/002.png,bars/mask001.png,,,,,,,,,,,,5,1,,,,,,,6,8,7,8,,,,,,,,,,,1882.6612,1883.1545,1883.408,1885.6891,space,2.2751,,1885.6891,7,52,1886.6895,1886.6896,1886.6959,,,,0,13,13,13,1,130,85,,,,,,,,
,,64b6bf2ad951a2caf97a534a,001,2023-12-14_15h17.17.933,bars,2023.2.3,Win32,75.18796992,,,,,,1886.696,1887.6893,,,1888.1833,1888.4364,,159,159,,,,,,,,,,,,,,,,bars/046.png,bars/mask003.png,,,,,,,,,,,,1,1,,,,,,,4,10,1,10,,,,,,,,,,,1887.6893,1888.1833,1888.4364,1891.0774,space,2.6363,,1891.0774,4,74,1892.0779,1892.0779,1892.0842,,,,0,14,14,14,1,155,85,,,,,,,,
,,64b6bf2ad951a2caf97a534a,001,2023-12-14_15h17.17.933,bars,2023.2.3,Win32,75.18796992,,,,,,1892.0843,1893.0793,,,1893.5715,1893.8118,,35,35,,,,,,,,,,,,,,,,bars/048.png,bars/mask000.png,,,,,,,,,,,,4,1,,,,,,,6,8,7,7,,,,,,,,,,,1893.0793,1893.5715,1893.8118,1895.4126,space,1.5877,,1895.4126,15,40,1896.4127,1896.4127,1896.4189,,,,0,15,15,15,1,50,175,,,,,,,,
,,64b6bf2ad951a2caf97a534a,001,2023-12-14_15h17.17.933,bars,2023.2.3,Win32,75.18796992,,,,,,1896.4191,1897.4136,,,1897.908,1898.1598,,29,209,,,,,,,,,,,,,,,,bars/026.png,bars/mask007.png,,,,,,,,,,,,2,1,,,,,,,4,6,3,5,,,,,,,,,,,1897.4136,1897.908,1898.1598,1902.8152,space,4.6476,,1902.8152,6,56,1903.8163,1903.8163,1903.8225,,,,0,16,16,16,1,35,85,,,,,,,,
,,64b6bf2ad951a2caf97a534a,001,2023-12-14_15h17.17.933,bars,2023.2.3,Win32,75.18796992,,,,,,1903.8226,1904.8162,,,1905.3094,1905.55,,158,158,,,,,,,,,,,,,,,,bars/038.png,bars/mask001.png,,,,,,,,,,,,5,1,,,,,,,6,8,6,8,,,,,,,,,,,1904.8162,1905.3094,1905.55,1909.564,space,4.0101,,1909.5641,7,88,1910.5646,1910.5646,1910.5708,,,,0,17,17,17,1,165,70,,,,,,,,
,,64b6bf2ad951a2caf97a534a,001,2023-12-14_15h17.17.933,bars,2023.2.3,Win32,75.18796992,,,,,,1910.5709,1911.565,,,1912.0589,1912.3119,,173,173,,,,,,,,,,,,,,,,bars/009.png,bars/mask008.png,,,,,,,,,,,,2,1,,,,,,,8,10,6,8,,,,,,,,,,,1911.565,1912.0588,1912.3119,1913.2858,space,0.9666,,1913.2858,22,68,1914.2863,1914.2863,1914.2866,,,,0,18,18,18,1,15,105,,,,,,,,
,,64b6bf2ad951a2caf97a534a,001,2023-12-14_15h17.17.933,bars,2023.2.3,Win32,75.18796992,,,,,,1914.2866,1915.2861,,,1915.7802,1916.0335,,24,24,,,,,,,,,,,,,,,,bars/004.png,bars/mask003.png,,,,,,,,,,,,6,1,,,,,,,6,8,6,9,,,,,,,,,,,1915.2862,1915.7801,1916.0335,1919.7812,space,3.7351,,1919.7812,1,79,1920.7816,1920.7817,1920.7879,,,,0,19,19,19,1,25,125,,,,,,,,
,,64b6bf2ad951a2caf97a534a,001,2023-12-14_15h17.17.933,bars,2023.2.3,Win32,75.18796992,,,,,,1920.7879,1921.7825,,,1922.2755,1922.5167,,177,177,,,,,,,,,,,,,,,,bars/033.png,bars/mask006.png,,,,,,,,,,,,3,2,,,,,,,4,10,5,10,,,,,,,,,,,1921.7825,1922.2754,1922.5167,1924.7963,space,2.2678,,1924.7963,28,22,1925.7975,1925.7975,1925.7994,,,,0,20,20,20,1,25,155,,,,,,,,
,,64b6bf2ad951a2caf97a534a,001,2023-12-14_15h17.17.933,bars,2023.2.3,Win32,75.18796992,,,,,,1925.7998,1926.7975,,,1927.2918,1927.5439,,11,191,,,,,,,,,,,,,,,,bars/033.png,bars/mask001.png,,,,,,,,,,,,1,1,,,,,,,2,10,1,9,,,,,,,,,,,1926.7976,1927.2918,1927.5439,1931.1987,space,3.6401,,1931.1988,14,36,1932.1991,1932.1991,1932.2058,,,,0,21,21,21,1,25,155,,,,,,,,
,,64b6bf2ad951a2caf97a534a,001,2023-12-14_15h17.17.933,bars,2023.2.3,Win32,75.18796992,,,,,,1932.206,1933.1996,,,1933.693,1933.9462,,19,19,,,,,,,,,,,,,,,,bars/043.png,bars/mask009.png,,,,,,,,,,,,3,1,,,,,,,4,8,4,8,,,,,,,,,,,1933.1996,1933.693,1933.9463,1935.934,space,1.9774,,1935.934,11,69,1936.934,1936.934,1936.9405,,,,0,22,22,22,1,30,130,,,,,,,,
,,64b6bf2ad951a2caf97a534a,001,2023-12-14_15h17.17.933,bars,2023.2.3,Win32,75.18796992,,,,,,1936.9406,1937.9345,,,1938.4284,1938.6818,,63,63,,,,,,,,,,,,,,,,bars/013.png,bars/mask007.png,,,,,,,,,,,,3,1,,,,,,,6,6,5,6,,,,,,,,,,,1937.9345,1938.4284,1938.6818,1941.4444,space,2.7557,,1941.4445,12,53,1942.443,1942.443,1942.4517,,,,0,23,23,23,1,75,10,,,,,,,,
,,64b6bf2ad951a2caf97a534a,001,2023-12-14_15h17.17.933,bars,2023.2.3,Win32,75.18796992,,,,,,1942.4519,1943.444,,,1943.9369,1944.1903,,157,157,,,,,,,,,,,,,,,,bars/049.png,bars/mask006.png,,,,,,,,,,,,2,1,,,,,,,4,8,2,10,,,,,,,,,,,1943.444,1943.9369,1944.1904,1948.7648,space,4.5646,,1948.7648,3,42,1949.7667,1949.7667,1949.7728,,,,0,24,24,24,1,160,115,,,,,,,,
,,64b6bf2ad951a2caf97a534a,001,2023-12-14_15h17.17.933,bars,2023.2.3,Win32,75.18796992,,,,,,1949.773,1950.7657,,,1951.2592,1951.5129,,158,-22,,,,,,,,,,,,,,,,bars/036.png,bars/mask007.png,,,,,,,,,,,,3,1,,,,,,,6,10,6,10,,,,,,,,,,,1950.7658,1951.2591,1951.5129,1955.2072,space,3.6788,,1955.2072,13,42,1956.2078,1956.2079,1956.2142,,,,0,25,25,25,1,145,20,,,,,,,,
,,64b6bf2ad951a2caf97a534a,001,2023-12-14_15h17.17.933,bars,2023.2.3,Win32,75.18796992,,,,,,1956.2144,1957.208,,,1957.7016,1957.9417,,166,-14,,,,,,,,,,,,,,,,bars/033.png,bars/mask002.png,,,,,,,,,,,,6,2,,,,,,,4,10,4,9,,,,,,,,,,,1957.208,1957.7016,1957.9417,1962.17,space,4.2164,,1962.17,39,11,1963.1704,1963.1704,1963.1774,,,,0,26,26,26,1,25,155,,,,,,,,
,,64b6bf2ad951a2caf97a534a,001,2023-12-14_15h17.17.933,bars,2023.2.3,Win32,75.18796992,,,,,,1963.1775,1964.1709,,,1964.664,1964.905,,160,-20,,,,,,,,,,,,,,,,bars/035.png,bars/mask003.png,,,,,,,,,,,,3,1,,,,,,,6,8,6,8,,,,,,,,,,,1964.1709,1964.664,1964.905,1969.1059,space,4.1916,,1969.1059,15,80,1970.1076,1970.1077,1970.1335,,,,0,27,27,27,1,175,60,,,,,,,,
,,64b6bf2ad951a2caf97a534a,001,2023-12-14_15h17.17.933,bars,2023.2.3,Win32,75.18796992,,,,,,1970.1338,1971.1334,,,1971.6269,1971.8801,,141,141,,,,,,,,,,,,,,,,bars/030.png,bars/mask004.png,,,,,,,,,,,,9,1,,,,,,,8,6,9,7,,,,,,,,,,,1971.1335,1971.6269,1971.8801,1974.8014,space,2.9094,,1974.8014,1,76,1975.8018,1975.8018,1975.8083,,,,0,28,28,28,1,140,65,,,,,,,,
,,64b6bf2ad951a2caf97a534a,001,2023-12-14_15h17.17.933,bars,2023.2.3,Win32,75.18796992,,,,,,1975.8084,1976.8024,,,1977.2955,1977.5489,,141,-39,,,,,,,,,,,,,,,,bars/040.png,bars/mask009.png,,,,,,,,,,,,9,1,,,,,,,10,8,9,8,,,,,,,,,,,1976.8024,1977.2955,1977.5489,1980.2433,space,2.6884,,1980.2433,1,44,1981.2436,1981.2436,1981.2498,,,,0,29,29,29,1,140,5,,,,,,,,
,,64b6bf2ad951a2caf97a534a,001,2023-12-14_15h17.17.933,bars,2023.2.3,Win32,75.18796992,,,,,,1981.25,1982.2444,,,1982.7373,1982.9775,,28,208,,,,,,,,,,,,,,,,bars/043.png,bars/mask004.png,,,,,,,,,,,,7,1,,,,,,,8,10,7,10,,,,,,,,,,,1982.2445,1982.7373,1982.9775,1987.4725,space,4.489,,1987.4725,2,78,1988.4728,1988.4728,1988.4792,,,,0,30,30,30,1,30,130,,,,,,,,
,,64b6bf2ad951a2caf97a534a,001,2023-12-14_15h17.17.933,bars,2023.2.3,Win32,75.18796992,,,,,,1988.4794,1989.4728,,,1989.9669,1990.2206,,125,125,,,,,,,,,,,,,,,,bars/008.png,bars/mask002.png,,,,,,,,,,,,5,1,,,,,,,10,10,9,10,,,,,,,,,,,1989.4729,1989.9668,1990.2206,1992.7679,space,2.5347,,1992.7679,15,55,1993.7681,1993.7681,1993.7758,,,,0,31,31,31,1,110,0,,,,,,,,
,,64b6bf2ad951a2caf97a534a,001,2023-12-14_15h17.17.933,bars,2023.2.3,Win32,75.18796992,,,,,,1993.776,1994.7685,,,1995.2624,1995.5162,,128,-52,,,,,,,,,,,,,,,,bars/020.png,bars/mask003.png,,,,,,,,,,,,6,1,,,,,,,10,10,10,8,,,,,,,,,,,1994.7685,1995.2624,1995.5163,1999.6508,space,4.1244,,1999.6508,13,42,2000.651,2000.651,2000.6572,,,,0,32,32,32,1,115,170,,,,,,,,
,,64b6bf2ad951a2caf97a534a,001,2023-12-14_15h17.17.933,bars,2023.2.3,Win32,75.18796992,,,,,,2000.6574,2001.6511,,,2002.1444,2002.3847,,66,246,,,,,,,,,,,,,,,,bars/044.png,bars/mask000.png,,,,,,,,,,,,5,1,,,,,,,8,8,7,10,,,,,,,,,,,2001.6511,2002.1443,2002.3847,2006.8399,space,4.4438,,2006.8399,9,89,2007.84,2007.84,2007.8463,,,,0,33,33,33,1,75,155,,,,,,,,
,,64b6bf2ad951a2caf97a534a,001,2023-12-14_15h17.17.933,bars,2023.2.3,Win32,75.18796992,,,,,,2007.8464,2008.8405,,,2009.3337,2009.5741,,161,-19,,,,,,,,,,,,,,,,bars/003.png,bars/mask004.png,,,,,,,,,,,,2,2,,,,,,,6,6,8,6,,,,,,,,,,,2008.8405,2009.3337,2009.5742,2013.0419,space,3.4582,,2013.042,44,21,2014.0422,2014.0422,2014.049,,,,0,34,34,34,1,25,140,,,,,,,,
,,64b6bf2ad951a2caf97a534a,001,2023-12-14_15h17.17.933,bars,2023.2.3,Win32,75.18796992,,,,,,2014.0491,2015.0428,,,2015.536,2015.7765,,118,118,,,,,,,,,,,,,,,,bars/015.png,bars/mask000.png,,,,,,,,,,,,2,1,,,,,,,4,8,3,9,,,,,,,,,,,2015.0428,2015.536,2015.7765,2017.3232,space,1.5377,,2017.3232,8,42,2018.3237,2018.3237,2018.3305,,,,0,35,35,35,1,110,160,,,,,,,,
,,64b6bf2ad951a2caf97a534a,001,2023-12-14_15h17.17.933,bars,2023.2.3,Win32,75.18796992,,,,,,2018.3307,2019.3246,,,2019.8174,2020.059,,162,162,,,,,,,,,,,,,,,,bars/049.png,bars/mask006.png,,,,,,,,,,,,7,1,,,,,,,6,6,8,5,,,,,,,,,,,2019.3246,2019.8174,2020.0591,2022.1272,space,2.0544,,2022.1272,2,47,2023.1254,2023.1254,2023.1316,,,,0,36,36,36,1,160,115,,,,,,,,
,,64b6bf2ad951a2caf97a534a,001,2023-12-14_15h17.17.933,bars,2023.2.3,Win32,75.18796992,,,,,,2023.1318,2024.1261,,,2024.6193,2024.8593,,122,-58,,,,,,,,,,,,,,,,bars/025.png,bars/mask004.png,,,,,,,,,,,,2,1,,,,,,,4,8,4,10,,,,,,,,,,,2024.1261,2024.6193,2024.8594,2028.6076,space,3.736,,2028.6076,17,82,2029.6082,2029.6082,2029.6142,,,,0,37,37,37,1,105,40,,,,,,,,
,,64b6bf2ad951a2caf97a534a,001,2023-12-14_15h17.17.933,bars,2023.2.3,Win32,75.18796992,,,,,,2029.6144,2030.6087,,,2031.1019,2031.3556,,30,30,,,,,,,,,,,,,,,,bars/041.png,bars/mask006.png,,,,,,,,,,,,2,1,,,,,,,2,6,3,5,,,,,,,,,,,2030.6087,2031.1018,2031.3556,2032.6887,space,1.3244,,2032.6887,10,55,2033.6892,2033.6892,2033.6896,,,,0,38,38,38,1,20,85,,,,,,,,
,,64b6bf2ad951a2caf97a534a,001,2023-12-14_15h17.17.933,bars,2023.2.3,Win32,75.18796992,,,,,,2033.6898,2034.6903,,,2035.1831,2035.4233,,16,196,,,,,,,,,,,,,,,,bars/004.png,bars/mask005.png,,,,,,,,,,,,0,1,,,,,,,0,4,0,3,,,,,,,,,,,2034.6903,2035.1831,2035.4233,2039.1585,space,3.7229,,2039.1586,9,71,2040.1586,2040.1586,2040.1651,,,,0,39,39,39,1,25,125,,,,,,,,
,,64b6bf2ad951a2caf97a534a,001,2023-12-14_15h17.17.933,bars,2023.2.3,Win32,75.18796992,,,,,,2040.1653,2041.1595,,,2041.6527,2041.9066,,30,30,,,,,,,,,,,,,,,,bars/005.png,bars/mask007.png,,,,,,,,,,,,0,1,,,,,,,2,2,1,2,,,,,,,,,,,2041.1595,2041.6527,2041.9066,2043.2795,space,1.3589,,2043.2795,20,70,2044.2803,2044.2803,2044.2869,,,,0,40,40,40,1,10,140,,,,,,,,
,,64b6bf2ad951a2caf97a534a,001,2023-12-14_15h17.17.933,bars,2023.2.3,Win32,75.18796992,,,,,,2044.287,2045.2805,,,2045.7736,2046.0142,,171,171,,,,,,,,,,,,,,,,bars/039.png,bars/mask004.png,,,,,,,,,,,,3,1,,,,,,,4,4,4,3,,,,,,,,,,,2045.2805,2045.7736,2046.0142,2048.4552,space,2.4286,,2048.4552,4,66,2049.4562,2049.4562,2049.4623,,,,0,41,41,41,1,175,105,,,,,,,,
,,64b6bf2ad951a2caf97a534a,001,2023-12-14_15h17.17.933,bars,2023.2.3,Win32,75.18796992,,,,,,2049.4624,2050.4552,,,2050.9491,2051.1894,,146,146,,,,,,,,,,,,,,,,bars/011.png,bars/mask005.png,,,,,,,,,,,,2,1,,,,,,,2,6,3,5,,,,,,,,,,,2050.4553,2050.9491,2051.1895,2054.564,space,3.3611,,2054.564,14,61,2055.5647,2055.5647,2055.5709,,,,0,42,42,42,1,160,85,,,,,,,,
,,64b6bf2ad951a2caf97a534a,001,2023-12-14_15h17.17.933,bars,2023.2.3,Win32,75.18796992,,,,,,2055.571,2056.5656,,,2057.0583,2057.3113,,139,139,,,,,,,,,,,,,,,,bars/010.png,bars/mask004.png,,,,,,,,,,,,0,1,,,,,,,0,4,0,3,,,,,,,,,,,2056.5656,2057.0583,2057.3113,2059.0984,space,1.7806,,2059.0984,26,84,2060.1,2060.1,2060.1151,,,,0,43,43,43,1,165,55,,,,,,,,
,,64b6bf2ad951a2caf97a534a,001,2023-12-14_15h17.17.933,bars,2023.2.3,Win32,75.18796992,,,,,,2060.1153,2061.1133,,,2061.6068,2061.8605,,18,18,,,,,,,,,,,,,,,,bars/029.png,bars/mask002.png,,,,,,,,,,,,0,2,,,,,,,2,2,0,2,,,,,,,,,,,2061.1134,2061.6067,2061.8605,2063.9002,space,2.028,,2063.9003,72,27,2064.9007,2064.9008,2064.9073,,,,0,44,44,44,1,90,45,,,,,,,,
,,64b6bf2ad951a2caf97a534a,001,2023-12-14_15h17.17.933,bars,2023.2.3,Win32,75.18796992,,,,,,2064.9075,2065.9014,,,2066.3951,2066.648,,161,-19,,,,,,,,,,,,,,,,bars/033.png,bars/mask001.png,,,,,,,,,,,,1,2,,,,,,,4,0,5,1,,,,,,,,,,,2065.9014,2066.3951,2066.648,2069.4488,space,2.7926,,2069.4488,44,6,2070.4496,2070.4496,2070.4558,,,,0,45,45,45,1,25,155,,,,,,,,
,,64b6bf2ad951a2caf97a534a,001,2023-12-14_15h17.17.933,bars,2023.2.3,Win32,75.18796992,,,,,,2070.4559,2071.4501,,,2071.9431,2072.1831,,153,153,,,,,,,,,,,,,,,,bars/039.png,bars/mask002.png,,,,,,,,,,,,1,1,,,,,,,2,0,2,1,,,,,,,,,,,2071.4502,2071.9431,2072.1831,2073.5307,space,1.3356,,2073.5308,22,48,2074.5307,2074.5307,2074.5376,,,,0,46,46,46,1,175,105,,,,,,,,
,,64b6bf2ad951a2caf97a534a,001,2023-12-14_15h17.17.933,bars,2023.2.3,Win32,75.18796992,,,,,,2074.5377,2075.5312,,,2076.0252,2076.2663,,13,193,,,,,,,,,,,,,,,,bars/041.png,bars/mask004.png,,,,,,,,,,,,1,1,,,,,,,0,2,1,2,,,,,,,,,,,2075.5313,2076.0252,2076.2663,2080.0929,space,3.8197,,2080.0929,7,72,2081.0932,2081.0933,2081.0996,,,,0,47,47,47,1,20,85,,,,,,,,
,,64b6bf2ad951a2caf97a534a,001,2023-12-14_15h17.17.933,bars,2023.2.3,Win32,75.18796992,,,,,,2081.0998,2082.0936,,,2082.5874,2082.8405,,157,157,,,,,,,,,,,,,,,,bars/047.png,bars/mask003.png,,,,,,,,,,,,0,1,,,,,,,2,0,2,0,,,,,,,,,,,2082.0936,2082.5874,2082.8406,2084.0941,space,1.2425,,2084.0941,38,87,2085.0948,2085.0949,2085.0953,,,,0,48,48,48,1,15,70,,,,,,,,
,,64b6bf2ad951a2caf97a534a,001,2023-12-14_15h17.17.933,bars,2023.2.3,Win32,75.18796992,,,,,,2085.0956,2086.0964,,,2086.5887,2086.8288,,101,-79,,,,,,,,,,,,,,,,bars/023.png,bars/mask003.png,,,,,,,,,,,,0,2,,,,,,,4,0,4,0,,,,,,,,,,,2086.0964,2086.5887,2086.8288,2090.8704,space,4.0302,,2090.8704,81,14,2091.8717,2091.8717,2091.8868,,,,0,49,49,49,1,20,115,,,,,,,,
