init_variables.started,init_variables.stopped,participant,session,date,expName,psychopyVersion,OS,frameRate,instruction_single.started,instruction_single.stopped,key_resp_2.keys,key_resp_2.rt,key_resp_2.duration,interval.started,interval.stopped,cue_single.started,cue_single.stopped,mask.started,mask.stopped,ori_response_single.started,res_ori,res,ori_response_single.stopped,key_resp_single.keys,key_resp_single.rt,key_resp_single.duration,disp_single.started,disp_single.stopped,key_resp.keys,key_resp.rt,key_resp.duration,single.thisRepN,single.thisTrialN,single.thisN,single.thisIndex,single.ran,ori,path,mask_path,instruction_bandit.started,instruction_bandit.stopped,key_resp_6.keys,key_resp_6.rt,key_resp_6.duration,cue_bandit.started,cue_bandit.stopped,bandit_res.keys,bandit_res.rt,bandit_res.duration,outcome_bandit.started,rew,action,outcome_bandit.stopped,bandit.thisRepN,bandit.thisTrialN,bandit.thisN,bandit.thisIndex,bandit.ran,actual_rew1,actual_rew2,rew1,rew2,instruction_task.started,instruction_task.stopped,key_resp_7.keys,key_resp_7.rt,key_resp_7.duration,wait_ready.started,wait_ready.stopped,key_resp_3.keys,key_resp_3.rt,key_resp_3.duration,cue.started,cue.stopped,ori_response.started,ori_response.stopped,key_resp_5.keys,key_resp_5.rt,key_resp_5.duration,outcome.started,diff1,diff2,outcome.stopped,disp_outcome_practice.started,disp_outcome_practice.stopped,key_resp_4.keys,key_resp_4.rt,key_resp_4.duration,trials.thisRepN,trials.thisTrialN,trials.thisN,trials.thisIndex,trials.ran,ori1,ori2,break_blk.started,break_blk.stopped,block.thisRepN,block.thisTrialN,block.thisN,block.thisIndex,block.ran,condition_file
0.0001,0.0003,,001,2023-12-14_08h17.12.172,bars,2023.2.3,Win32,60.97560976,,,,,,,,,,,,,,,,,,,,,,,,,,,,,,,,,,,,,,,,,,,,,,,,,,,,,,,,,,,,,,,,,,,,,,,,,,,,,,,,,,,,,,,,,,,,,,,
,,,001,2023-12-14_08h17.12.172,bars,2023.2.3,Win32,60.97560976,0.0004,39.6261,space,39.6096,,,,,,,,,,,,,,,,,,,,,,,,,,,,,,,,,,,,,,,,,,,,,,,,,,,,,,,,,,,,,,,,,,,,,,,,,,,,,,,,,,,,,,,,,,,
,,,001,2023-12-14_08h17.12.172,bars,2023.2.3,Win32,60.97560976,,,,,,39.633,40.6289,40.6295,41.1291,41.1297,41.384,41.3842,130,130,51.3955,space,9.9692,,51.3957,62.7629,space,11.3279,,0,0,0,9,1,20,bars/single009.png,bars/mask006.png,,,,,,,,,,,,,,,,,,,,,,,,,,,,,,,,,,,,,,,,,,,,,,,,,,,,,,,,,,,,,,,,
,,,001,2023-12-14_08h17.12.172,bars,2023.2.3,Win32,60.97560976,,,,,,62.7753,63.7782,63.7782,64.2789,64.2791,64.5357,64.5358,1,1,75.3124,space,10.758,,75.3126,79.4949,space,4.1518,,0,1,1,2,1,145,bars/single002.png,bars/mask003.png,,,,,,,,,,,,,,,,,,,,,,,,,,,,,,,,,,,,,,,,,,,,,,,,,,,,,,,,,,,,,,,,
,,,001,2023-12-14_08h17.12.172,bars,2023.2.3,Win32,60.97560976,,,,,,79.505,80.4949,80.4949,80.9949,80.9951,81.2451,81.2452,108,108,86.9796,space,5.7071,,86.9798,91.6128,space,4.595,,0,2,2,4,1,95,bars/single004.png,bars/mask004.png,,,,,,,,,,,,,,,,,,,,,,,,,,,,,,,,,,,,,,,,,,,,,,,,,,,,,,,,,,,,,,,,
,,,001,2023-12-14_08h17.12.172,bars,2023.2.3,Win32,60.97560976,,,,,,91.6248,92.629,92.6294,93.1294,93.1295,93.379,93.3792,100,100,101.7016,space,8.3004,,101.7016,109.0294,space,7.3035,,0,3,3,5,1,55,bars/single005.png,bars/mask008.png,,,,,,,,,,,,,,,,,,,,,,,,,,,,,,,,,,,,,,,,,,,,,,,,,,,,,,,,,,,,,,,,
,,,001,2023-12-14_08h17.12.172,bars,2023.2.3,Win32,60.97560976,,,,,,109.0401,110.0287,110.0287,110.5287,110.5288,110.7788,110.7788,85,85,119.0456,space,8.2528,,119.0457,128.5965,space,9.5212,,0,4,4,8,1,160,bars/single008.png,bars/mask004.png,,,,,,,,,,,,,,,,,,,,,,,,,,,,,,,,,,,,,,,,,,,,,,,,,,,,,,,,,,,,,,,,
,,,001,2023-12-14_08h17.12.172,bars,2023.2.3,Win32,60.97560976,,,,,,128.6161,129.6132,129.6133,130.1134,130.1135,130.3636,130.3637,72,72,136.9803,space,6.5916,,136.9807,140.6966,space,3.6722,,0,5,5,1,1,20,bars/single001.png,bars/mask006.png,,,,,,,,,,,,,,,,,,,,,,,,,,,,,,,,,,,,,,,,,,,,,,,,,,,,,,,,,,,,,,,,
,,,001,2023-12-14_08h17.12.172,bars,2023.2.3,Win32,60.97560976,,,,,,140.6973,141.6969,141.6969,142.1968,142.1969,142.4466,142.4467,76,76,148.3634,space,5.8986,,148.3634,158.7477,space,10.3562,,0,6,6,0,1,150,bars/single000.png,bars/mask006.png,,,,,,,,,,,,,,,,,,,,,,,,,,,,,,,,,,,,,,,,,,,,,,,,,,,,,,,,,,,,,,,,
,,,001,2023-12-14_08h17.12.172,bars,2023.2.3,Win32,60.97560976,,,,,,158.7663,159.7634,159.7635,160.2631,160.2632,160.5136,160.5137,49,49,169.1476,space,8.6067,,169.1478,184.8641,space,15.6737,,0,7,7,3,1,20,bars/single003.png,bars/mask005.png,,,,,,,,,,,,,,,,,,,,,,,,,,,,,,,,,,,,,,,,,,,,,,,,,,,,,,,,,,,,,,,,
,,,001,2023-12-14_08h17.12.172,bars,2023.2.3,Win32,60.97560976,,,,,,184.8823,185.8805,185.8807,186.3641,186.3642,186.6138,186.6138,53,53,208.865,space,22.2409,,208.8651,215.5315,space,6.6306,,0,8,8,7,1,45,bars/single007.png,bars/mask009.png,,,,,,,,,,,,,,,,,,,,,,,,,,,,,,,,,,,,,,,,,,,,,,,,,,,,,,,,,,,,,,,,
,,,001,2023-12-14_08h17.12.172,bars,2023.2.3,Win32,60.97560976,,,,,,215.5492,216.548,216.5481,217.048,217.0481,217.2978,217.2979,42,222,224.6317,space,7.3244,,224.6318,228.0491,space,3.3824,,0,9,9,6,1,175,bars/single006.png,bars/mask005.png,,,,,,,,,,,,,,,,,,,,,,,,,,,,,,,,,,,,,,,,,,,,,,,,,,,,,,,,,,,,,,,,
,,,001,2023-12-14_08h17.12.172,bars,2023.2.3,Win32,60.97560976,,,,,,,,,,,,,,,,,,,,,,,,,,,,,,,,228.0726,250.4,space,22.304,,,,,,,,,,,,,,,,,,,,,,,,,,,,,,,,,,,,,,,,,,,,,,,,,,,,,,,,,,,,
,,,001,2023-12-14_08h17.12.172,bars,2023.2.3,Win32,60.97560976,,,,,,,,,,,,,,,,,,,,,,,,,,,,,,,,,,,,,250.4213,251.4152,left,0.9744,,251.4154,9,1,252.4155,0,0,0,0,1,9,1,9,2,,,,,,,,,,,,,,,,,,,,,,,,,,,,,,,,,,,,,,,,,
,,,001,2023-12-14_08h17.12.172,bars,2023.2.3,Win32,60.97560976,,,,,,,,,,,,,,,,,,,,,,,,,,,,,,,,,,,,,252.4164,253.2323,right,0.8039,,253.2323,1,2,254.2317,0,1,1,1,1,10,0,10,1,,,,,,,,,,,,,,,,,,,,,,,,,,,,,,,,,,,,,,,,,
,,,001,2023-12-14_08h17.12.172,bars,2023.2.3,Win32,60.97560976,,,,,,,,,,,,,,,,,,,,,,,,,,,,,,,,,,,,,254.2322,254.7991,left,0.5513,,254.7994,10,1,255.7987,0,2,2,2,1,10,2,10,2,,,,,,,,,,,,,,,,,,,,,,,,,,,,,,,,,,,,,,,,,
,,,001,2023-12-14_08h17.12.172,bars,2023.2.3,Win32,60.97560976,,,,,,,,,,,,,,,,,,,,,,,,,,,,,,,,,,,,,255.7992,256.3151,left,0.4966,,256.3151,7,1,257.3151,0,3,3,3,1,8,4,7,3,,,,,,,,,,,,,,,,,,,,,,,,,,,,,,,,,,,,,,,,,
,,,001,2023-12-14_08h17.12.172,bars,2023.2.3,Win32,60.97560976,,,,,,,,,,,,,,,,,,,,,,,,,,,,,,,,,,,,,257.3156,258.3151,left,0.9872,,258.3153,5,1,259.3151,0,4,4,4,1,6,2,5,1,,,,,,,,,,,,,,,,,,,,,,,,,,,,,,,,,,,,,,,,,
,,,001,2023-12-14_08h17.12.172,bars,2023.2.3,Win32,60.97560976,,,,,,,,,,,,,,,,,,,,,,,,,,,,,,,,,,,,,259.3155,259.7157,right,0.3874,,259.7158,4,2,260.7154,0,5,5,5,1,4,4,4,4,,,,,,,,,,,,,,,,,,,,,,,,,,,,,,,,,,,,,,,,,
,,,001,2023-12-14_08h17.12.172,bars,2023.2.3,Win32,60.97560976,,,,,,,,,,,,,,,,,,,,,,,,,,,,,,,,,,,,,260.7159,261.2659,right,0.5361,,261.2659,2,2,262.2656,0,6,6,6,1,2,2,1,2,,,,,,,,,,,,,,,,,,,,,,,,,,,,,,,,,,,,,,,,,
,,,001,2023-12-14_08h17.12.172,bars,2023.2.3,Win32,60.97560976,,,,,,,,,,,,,,,,,,,,,,,,,,,,,,,,,,,,,262.2663,262.732,left,0.4558,,262.7322,0,1,263.7325,0,7,7,7,1,0,0,0,1,,,,,,,,,,,,,,,,,,,,,,,,,,,,,,,,,,,,,,,,,
,,,001,2023-12-14_08h17.12.172,bars,2023.2.3,Win32,60.97560976,,,,,,,,,,,,,,,,,,,,,,,,,,,,,,,,,,,,,263.7333,264.2653,left,0.5136,,264.2654,1,1,265.2657,0,8,8,8,1,0,2,1,0,,,,,,,,,,,,,,,,,,,,,,,,,,,,,,,,,,,,,,,,,
,,,001,2023-12-14_08h17.12.172,bars,2023.2.3,Win32,60.97560976,,,,,,,,,,,,,,,,,,,,,,,,,,,,,,,,,,,,,265.2663,265.9484,left,0.6656,,265.9485,2,1,266.949,0,9,9,9,1,2,4,2,3,,,,,,,,,,,,,,,,,,,,,,,,,,,,,,,,,,,,,,,,,
,,,001,2023-12-14_08h17.12.172,bars,2023.2.3,Win32,60.97560976,,,,,,,,,,,,,,,,,,,,,,,,,,,,,,,,,,,,,266.9497,267.4326,right,0.4655,,267.4326,3,2,268.4325,0,10,10,10,1,0,2,0,3,,,,,,,,,,,,,,,,,,,,,,,,,,,,,,,,,,,,,,,,,
,,,001,2023-12-14_08h17.12.172,bars,2023.2.3,Win32,60.97560976,,,,,,,,,,,,,,,,,,,,,,,,,,,,,,,,,,,,,268.4332,268.8827,right,0.4316,,268.8828,3,2,269.8824,0,11,11,11,1,0,4,0,3,,,,,,,,,,,,,,,,,,,,,,,,,,,,,,,,,,,,,,,,,
,,,001,2023-12-14_08h17.12.172,bars,2023.2.3,Win32,60.97560976,,,,,,,,,,,,,,,,,,,,,,,,,,,,,,,,,,,,,269.883,270.2488,left,0.3482,,270.2489,1,1,271.2491,0,12,12,12,1,2,6,1,6,,,,,,,,,,,,,,,,,,,,,,,,,,,,,,,,,,,,,,,,,
,,,001,2023-12-14_08h17.12.172,bars,2023.2.3,Win32,60.97560976,,,,,,,,,,,,,,,,,,,,,,,,,,,,,,,,,,,,,271.2498,271.6485,right,0.3845,,271.6486,3,2,272.6491,0,13,13,13,1,0,4,1,3,,,,,,,,,,,,,,,,,,,,,,,,,,,,,,,,,,,,,,,,,
,,,001,2023-12-14_08h17.12.172,bars,2023.2.3,Win32,60.97560976,,,,,,,,,,,,,,,,,,,,,,,,,,,,,,,,,,,,,272.6497,273.1828,right,0.5138,,273.1829,7,2,274.1824,0,14,14,14,1,2,6,2,7,,,,,,,,,,,,,,,,,,,,,,,,,,,,,,,,,,,,,,,,,
,,,001,2023-12-14_08h17.12.172,bars,2023.2.3,Win32,60.97560976,,,,,,,,,,,,,,,,,,,,,,,,,,,,,,,,,,,,,274.1831,274.6995,right,0.5003,,274.6995,9,2,275.699,0,15,15,15,1,4,8,3,9,,,,,,,,,,,,,,,,,,,,,,,,,,,,,,,,,,,,,,,,,
,,,001,2023-12-14_08h17.12.172,bars,2023.2.3,Win32,60.97560976,,,,,,,,,,,,,,,,,,,,,,,,,,,,,,,,,,,,,275.6997,276.1654,left,0.4502,,276.1655,7,1,277.1657,0,16,16,16,1,6,6,7,7,,,,,,,,,,,,,,,,,,,,,,,,,,,,,,,,,,,,,,,,,
,,,001,2023-12-14_08h17.12.172,bars,2023.2.3,Win32,60.97560976,,,,,,,,,,,,,,,,,,,,,,,,,,,,,,,,,,,,,277.1663,277.766,left,0.5902,,277.7661,9,1,278.7659,0,17,17,17,1,8,4,9,5,,,,,,,,,,,,,,,,,,,,,,,,,,,,,,,,,,,,,,,,,
,,,001,2023-12-14_08h17.12.172,bars,2023.2.3,Win32,60.97560976,,,,,,,,,,,,,,,,,,,,,,,,,,,,,,,,,,,,,278.7665,279.4164,right,0.6396,,279.4165,1,2,280.4159,0,18,18,18,1,6,2,5,1,,,,,,,,,,,,,,,,,,,,,,,,,,,,,,,,,,,,,,,,,
,,,001,2023-12-14_08h17.12.172,bars,2023.2.3,Win32,60.97560976,,,,,,,,,,,,,,,,,,,,,,,,,,,,,,,,,,,,,280.4165,284.3331,left,3.9014,,284.3331,7,1,285.3326,0,19,19,19,1,8,0,7,0,,,,,,,,,,,,,,,,,,,,,,,,,,,,,,,,,,,,,,,,,
,,,001,2023-12-14_08h17.12.172,bars,2023.2.3,Win32,60.97560976,,,,,,,,,,,,,,,,,,,,,,,,,,,,,,,,,,,,,,,,,,,,,,,,,,,,,,,285.3343,314.4003,space,29.038,,,,,,,,,,,,,,,,,,,,,,,,,,,,,,,,,,,,,
,,,001,2023-12-14_08h17.12.172,bars,2023.2.3,Win32,60.97560976,,,,,,315.5939,316.5834,,,317.0835,317.3327,,136,136,,,,,,,,,,,,,,,,bars/010.png,bars/mask007.png,,,,,,,,,,,,0,1,,,,,,,9,9,7,10,,,,,,314.4149,315.5837,space,1.1495,,316.5839,317.0833,317.333,320.4502,space,3.0925,,320.4505,29,81,321.4501,321.4504,330.2518,space,8.7811,,0,0,0,0,1,165,55,,,,,,,,
,,,001,2023-12-14_08h17.12.172,bars,2023.2.3,Win32,60.97560976,,,,,,330.2736,331.2662,,,331.7666,332.0166,,166,166,,,,,,,,,,,,,,,,bars/033.png,bars/mask007.png,,,,,,,,,,,,6,2,,,,,,,7,10,7,10,,,,,,,,,,,331.2663,331.7665,332.0167,335.0171,space,2.9831,,335.0172,39,11,336.017,336.0171,338.7672,space,2.7154,,0,1,1,1,1,25,155,,,,,,,,
,,,001,2023-12-14_08h17.12.172,bars,2023.2.3,Win32,60.97560976,,,,,,338.7893,339.7675,,,340.267,340.5166,,138,138,,,,,,,,,,,,,,,,bars/032.png,bars/mask006.png,,,,,,,,,,,,5,1,,,,,,,9,8,9,8,,,,,,,,,,,339.7676,340.2669,340.5167,344.134,space,3.6069,,344.1341,13,62,345.1338,345.1338,349.4507,space,4.2733,,0,2,2,2,1,125,20,,,,,,,,
,,,001,2023-12-14_08h17.12.172,bars,2023.2.3,Win32,60.97560976,,,,,,349.4709,350.4665,,,350.9673,351.2173,,110,110,,,,,,,,,,,,,,,,bars/035.png,bars/mask000.png,,,,,,,,,,,,0,2,,,,,,,10,6,8,7,,,,,,,,,,,350.4665,350.9672,351.2173,356.4009,space,5.166,,356.4011,65,50,357.4,357.4,359.8347,space,2.4046,,0,3,3,3,1,175,60,,,,,,,,
,,,001,2023-12-14_08h17.12.172,bars,2023.2.3,Win32,60.97560976,,,,,,359.8358,360.834,,,361.3342,361.5841,,61,61,,,,,,,,,,,,,,,,bars/044.png,bars/mask003.png,,,,,,,,,,,,5,1,,,,,,,10,4,9,4,,,,,,,,,,,360.8341,361.3341,361.5842,369.2675,space,7.6669,,369.2676,14,86,370.2676,370.2676,383.5016,space,13.1953,,0,4,4,4,1,75,155,,,,,,,,
,,,001,2023-12-14_08h17.12.172,bars,2023.2.3,Win32,60.97560976,,,,,,383.5261,384.5175,,,385.0178,385.2676,,72,72,,,,,,,,,,,,,,,,bars/041.png,bars/mask004.png,,,,,,,,,,,,2,2,,,,,,,8,2,8,3,,,,,,,,,,,384.5175,385.0178,385.2677,390.2512,space,4.9746,,390.2515,52,13,391.251,391.2511,409.0184,space,17.7349,,0,5,5,5,1,20,85,,,,,,,,
,,,001,2023-12-14_08h17.12.172,bars,2023.2.3,Win32,60.97560976,,,,,,409.0375,410.0349,,,410.5351,410.7849,,84,84,,,,,,,,,,,,,,,,bars/011.png,bars/mask007.png,,,,,,,,,,,,4,2,,,,,,,6,4,6,4,,,,,,,,,,,410.0349,410.535,410.785,412.9183,space,2.121,,412.9184,76,1,413.9185,413.9186,417.1687,space,3.211,,0,6,6,6,1,160,85,,,,,,,,
,,,001,2023-12-14_08h17.12.172,bars,2023.2.3,Win32,60.97560976,,,,,,417.1932,418.1846,,,418.6852,418.935,,84,84,,,,,,,,,,,,,,,,bars/048.png,bars/mask000.png,,,,,,,,,,,,0,1,,,,,,,8,6,9,6,,,,,,,,,,,418.1846,418.6852,418.935,423.6193,space,4.6775,,423.6195,34,89,424.6183,424.6183,426.4854,space,1.8298,,0,7,7,7,1,50,175,,,,,,,,
,,,001,2023-12-14_08h17.12.172,bars,2023.2.3,Win32,60.97560976,,,,,,426.4863,427.4853,,,427.9854,428.2353,,51,51,,,,,,,,,,,,,,,,bars/034.png,bars/mask005.png,,,,,,,,,,,,4,2,,,,,,,10,8,10,8,,,,,,,,,,,427.4853,427.9853,428.2353,435.0523,space,6.8069,,435.0524,74,14,436.0518,436.0518,445.2191,space,9.1287,,0,8,8,8,1,125,65,,,,,,,,
,,,001,2023-12-14_08h17.12.172,bars,2023.2.3,Win32,60.97560976,,,,,,445.2404,446.2356,,,446.7358,446.9857,,64,64,,,,,,,,,,,,,,,,bars/007.png,bars/mask003.png,,,,,,,,,,,,7,2,,,,,,,8,10,6,10,,,,,,,,,,,446.2357,446.7357,446.9858,448.0526,space,1.0552,,448.0527,69,9,449.0521,449.0521,452.2853,space,3.2145,,0,9,9,9,1,175,55,,,,,,,,
,,,001,2023-12-14_08h17.12.172,bars,2023.2.3,Win32,60.97560976,,,,,,452.3043,453.2856,,,453.786,454.0355,,34,214,,,,,,,,,,,,,,,,bars/019.png,bars/mask006.png,,,,,,,,,,,,6,1,,,,,,,10,10,10,10,,,,,,,,,,,453.2857,453.7859,454.0356,459.8691,space,5.823,,459.8693,11,71,460.8691,460.8691,462.8357,space,1.9322,,0,10,10,10,1,45,105,,,,,,,,
,,,001,2023-12-14_08h17.12.172,bars,2023.2.3,Win32,60.97560976,,,,,,462.8363,463.8357,,,464.3357,464.5855,,58,58,,,,,,,,,,,,,,,,bars/014.png,bars/mask002.png,,,,,,,,,,,,2,1,,,,,,,8,10,9,10,,,,,,,,,,,463.8358,464.3356,464.5856,498.3867,space,33.7861,,498.3868,22,58,499.3865,499.3866,503.8027,space,4.38,,0,11,11,11,1,80,0,,,,,,,,
,,,001,2023-12-14_08h17.12.172,bars,2023.2.3,Win32,60.97560976,,,,,,503.8123,504.8026,,,505.3027,505.5526,,108,288,,,,,,,,,,,,,,,,bars/046.png,bars/mask008.png,,,,,,,,,,,,2,2,,,,,,,10,8,8,7,,,,,,,,,,,504.8026,505.3027,505.5527,514.2196,space,8.6487,,514.2196,47,23,515.2202,515.2203,532.5366,space,17.2727,,0,12,12,12,1,155,85,,,,,,,,
,,,001,2023-12-14_08h17.12.172,bars,2023.2.3,Win32,60.97560976,,,,,,532.5485,533.5371,,,534.0374,534.2868,,81,81,,,,,,,,,,,,,,,,bars/044.png,bars/mask000.png,,,,,,,,,,,,8,1,,,,,,,10,6,10,6,,,,,,,,,,,533.5372,534.0373,534.2868,537.4537,space,3.1518,,537.4538,6,74,538.4536,538.4536,547.8211,space,9.3339,,0,13,13,13,1,75,155,,,,,,,,
,,,001,2023-12-14_08h17.12.172,bars,2023.2.3,Win32,60.97560976,,,,,,547.8407,548.8369,,,549.3374,549.5874,,61,61,,,,,,,,,,,,,,,,bars/009.png,bars/mask008.png,,,,,,,,,,,,0,2,,,,,,,8,4,9,4,,,,,,,,,,,548.837,549.3373,549.5875,554.9375,space,5.3331,,554.9376,46,44,555.9369,555.9369,557.971,space,2.0084,,0,14,14,14,1,15,105,,,,,,,,
,,,001,2023-12-14_08h17.12.172,bars,2023.2.3,Win32,60.97560976,,,,,,557.9726,558.9705,,,559.4708,559.7209,,110,110,,,,,,,,,,,,,,,,bars/001.png,bars/mask008.png,,,,,,,,,,,,3,1,,,,,,,10,2,10,2,,,,,,,,,,,558.9705,559.4707,559.7209,563.2884,space,3.5508,,563.2885,20,25,564.2877,564.2878,569.5218,space,5.204,,0,15,15,15,1,130,85,,,,,,,,
,,,001,2023-12-14_08h17.12.172,bars,2023.2.3,Win32,60.97560976,,,,,,569.5439,570.5378,,,571.0376,571.288,,129,129,,,,,,,,,,,,,,,,bars/019.png,bars/mask005.png,,,,,,,,,,,,0,2,,,,,,,8,0,9,1,,,,,,,,,,,570.5379,571.0375,571.2881,576.8383,space,5.5328,,576.8384,84,24,577.8377,577.8378,598.3882,space,20.5145,,0,16,16,16,1,45,105,,,,,,,,
,,,001,2023-12-14_08h17.12.172,bars,2023.2.3,Win32,60.97560976,,,,,,598.4078,599.4051,,,599.8885,600.1385,,123,123,,,,,,,,,,,,,,,,bars/031.png,bars/mask002.png,,,,,,,,,,,,9,1,,,,,,,10,0,10,0,,,,,,,,,,,599.4051,599.8885,600.1386,604.0554,space,3.8977,,604.0554,3,88,605.0547,605.0547,618.6893,space,13.6036,,0,17,17,17,1,120,35,,,,,,,,
,,,001,2023-12-14_08h17.12.172,bars,2023.2.3,Win32,60.97560976,,,,,,618.7103,619.7048,,,620.2056,620.4552,,112,112,,,,,,,,,,,,,,,,bars/048.png,bars/mask007.png,,,,,,,,,,,,0,1,,,,,,,10,2,10,4,,,,,,,,,,,619.7048,620.2055,620.4553,623.955,space,3.4906,,623.955,62,63,624.9556,624.9557,626.7224,space,1.7393,,0,18,18,18,1,50,175,,,,,,,,
,,,001,2023-12-14_08h17.12.172,bars,2023.2.3,Win32,60.97560976,,,,,,626.7233,627.7217,,,628.2217,628.4715,,51,231,,,,,,,,,,,,,,,,bars/021.png,bars/mask007.png,,,,,,,,,,,,1,2,,,,,,,8,4,8,4,,,,,,,,,,,627.7217,628.2216,628.4716,632.4883,space,4.008,,632.4883,76,19,633.4882,633.4883,636.0049,space,2.4936,,0,19,19,19,1,155,70,,,,,,,,
,,,001,2023-12-14_08h17.12.172,bars,2023.2.3,Win32,60.97560976,,,,,,636.0052,637.005,,,637.5051,637.7549,,56,236,,,,,,,,,,,,,,,,bars/036.png,bars/mask008.png,,,,,,,,,,,,0,2,,,,,,,10,6,9,5,,,,,,,,,,,637.0051,637.505,637.7549,654.1727,space,16.4043,,654.1728,89,36,655.1727,655.1728,663.2563,space,8.0513,,0,20,20,20,1,145,20,,,,,,,,
,,,001,2023-12-14_08h17.12.172,bars,2023.2.3,Win32,60.97560976,,,,,,663.2816,664.2728,,,664.7732,665.0064,,28,28,,,,,,,,,,,,,,,,bars/004.png,bars/mask001.png,,,,,,,,,,,,8,1,,,,,,,8,4,9,4,,,,,,,,,,,664.2728,664.773,665.0064,668.1563,space,3.1412,,668.1564,3,83,669.1561,669.1562,718.4239,space,49.2299,,0,21,21,21,1,25,125,,,,,,,,
,,,001,2023-12-14_08h17.12.172,bars,2023.2.3,Win32,60.97560976,,,,,,718.4247,719.4239,,,719.9243,720.1734,,22,22,,,,,,,,,,,,,,,,bars/042.png,bars/mask002.png,,,,,,,,,,,,0,2,,,,,,,6,6,8,5,,,,,,,,,,,719.424,719.9242,720.1735,727.4576,space,7.269,,727.4577,57,53,728.4572,728.4573,730.3908,space,1.9017,,0,22,22,22,1,145,75,,,,,,,,
,,,001,2023-12-14_08h17.12.172,bars,2023.2.3,Win32,60.97560976,,,,,,730.3916,731.3902,,,731.8907,732.1408,,61,241,,,,,,,,,,,,,,,,bars/040.png,bars/mask007.png,,,,,,,,,,,,0,2,,,,,,,8,4,8,2,,,,,,,,,,,731.3902,731.8906,732.1408,735.1579,space,3.0021,,735.1579,79,56,736.1575,736.1576,737.7917,space,1.6035,,0,23,23,23,1,140,5,,,,,,,,
,,,001,2023-12-14_08h17.12.172,bars,2023.2.3,Win32,60.97560976,,,,,,737.7926,738.7911,,,739.2912,739.5409,,5,5,,,,,,,,,,,,,,,,bars/040.png,bars/mask003.png,,,,,,,,,,,,6,2,,,,,,,10,6,10,6,,,,,,,,,,,738.7912,739.2912,739.541,744.6244,space,5.0706,,744.6246,45,0,745.6244,745.6245,767.1077,space,21.4469,,0,24,24,24,1,140,5,,,,,,,,
,,,001,2023-12-14_08h17.12.172,bars,2023.2.3,Win32,60.97560976,,,,,,767.1205,768.108,,,768.6083,768.8577,,19,19,,,,,,,,,,,,,,,,bars/019.png,bars/mask006.png,,,,,,,,,,,,1,1,,,,,,,8,4,7,4,,,,,,,,,,,768.1082,768.6082,768.8578,769.4086,space,0.5364,,769.4086,26,86,770.4081,770.4082,773.4419,space,3.0095,,0,25,25,25,1,45,105,,,,,,,,
,,,001,2023-12-14_08h17.12.172,bars,2023.2.3,Win32,60.97560976,,,,,,773.4642,774.4584,,,774.9582,775.2083,,75,75,,,,,,,,,,,,,,,,bars/003.png,bars/mask003.png,,,,,,,,,,,,0,1,,,,,,,10,6,9,6,,,,,,,,,,,774.4585,774.9581,775.2084,778.5421,space,3.3174,,778.5421,50,65,779.5418,779.5419,781.7913,space,2.21,,0,26,26,26,1,25,140,,,,,,,,
,,,001,2023-12-14_08h17.12.172,bars,2023.2.3,Win32,60.97560976,,,,,,781.7918,782.7917,,,783.2915,783.5419,,36,36,,,,,,,,,,,,,,,,bars/003.png,bars/mask008.png,,,,,,,,,,,,6,1,,,,,,,8,4,9,4,,,,,,,,,,,782.7917,783.2914,783.542,788.6588,space,5.1047,,788.6589,11,76,789.6586,789.6586,801.2086,space,11.5169,,0,27,27,27,1,25,140,,,,,,,,
,,,001,2023-12-14_08h17.12.172,bars,2023.2.3,Win32,60.97560976,,,,,,801.2288,802.2252,,,802.7089,802.9587,,50,50,,,,,,,,,,,,,,,,bars/022.png,bars/mask000.png,,,,,,,,,,,,0,2,,,,,,,6,6,6,6,,,,,,,,,,,802.2253,802.7089,802.9587,807.3928,space,4.4186,,807.3929,45,30,808.3923,808.3924,1004.8796,space,196.4547,,0,28,28,28,1,95,20,,,,,,,,
,,,001,2023-12-14_08h17.12.172,bars,2023.2.3,Win32,60.97560976,,,,,,1004.9012,1005.8958,,,1006.3959,1006.6459,,25,25,,,,,,,,,,,,,,,,bars/028.png,bars/mask003.png,,,,,,,,,,,,1,1,,,,,,,4,4,3,5,,,,,,,,,,,1005.8959,1006.3958,1006.646,1008.046,space,1.3876,,1008.0461,20,85,1009.0456,1009.0457,1199.3489,space,190.2697,,0,29,29,29,1,45,120,,,,,,,,
,,,001,2023-12-14_08h17.12.172,bars,2023.2.3,Win32,60.97560976,,,,,,1199.3647,1200.3494,,,1200.8492,1201.0993,,60,60,,,,,,,,,,,,,,,,bars/037.png,bars/mask004.png,,,,,,,,,,,,0,2,,,,,,,2,2,1,2,,,,,,,,,,,1200.3494,1200.8491,1201.0994,1207.7336,space,6.6168,,1207.7337,90,45,1208.7328,1208.7329,1212.45,space,3.681,,0,30,30,30,1,150,105,,,,,,,,
,,,001,2023-12-14_08h17.12.172,bars,2023.2.3,Win32,60.97560976,,,,,,1212.4508,1213.4493,,,1213.9496,1214.1994,,116,116,,,,,,,,,,,,,,,,bars/033.png,bars/mask001.png,,,,,,,,,,,,0,2,,,,,,,4,4,4,3,,,,,,,,,,,1213.4493,1213.9495,1214.1994,1217.3332,space,3.1187,,1217.3332,89,39,1218.3331,1218.3331,1234.9831,space,16.6178,,0,31,31,31,1,25,155,,,,,,,,
,,,001,2023-12-14_08h17.12.172,bars,2023.2.3,Win32,60.97560976,,,,,,1235.0035,1235.9832,,,1236.4834,1236.7328,,140,-40,,,,,,,,,,,,,,,,bars/048.png,bars/mask003.png,,,,,,,,,,,,0,2,,,,,,,2,2,2,1,,,,,,,,,,,1235.9832,1236.4834,1236.7328,1243.0501,space,6.308,,1243.0503,90,35,1244.0502,1244.0503,1305.4344,space,61.3494,,0,32,32,32,1,50,175,,,,,,,,
,,,001,2023-12-14_08h17.12.172,bars,2023.2.3,Win32,60.97560976,,,,,,1305.451,1306.4346,,,1306.9346,1307.1844,,159,159,,,,,,,,,,,,,,,,bars/013.png,bars/mask009.png,,,,,,,,,,,,0,2,,,,,,,4,4,4,4,,,,,,,,,,,1306.4347,1306.9345,1307.1846,1312.2851,space,5.0857,,1312.2853,84,31,1313.2845,1313.2845,1325.868,space,12.5539,,0,33,33,33,1,75,10,,,,,,,,
,,,001,2023-12-14_08h17.12.172,bars,2023.2.3,Win32,60.97560976,,,,,,1325.8826,1326.8845,,,1327.3685,1327.6185,,45,45,,,,,,,,,,,,,,,,bars/038.png,bars/mask002.png,,,,,,,,,,,,1,2,,,,,,,6,6,5,4,,,,,,,,,,,1326.8846,1327.3684,1327.6185,1333.1684,space,5.5395,,1333.1687,60,25,1334.1685,1334.1686,1342.269,space,8.0639,,0,34,34,34,1,165,70,,,,,,,,
,,,001,2023-12-14_08h17.12.172,bars,2023.2.3,Win32,60.97560976,,,,,,1342.2919,1343.2848,,,1343.7848,1344.0352,,70,-110,,,,,,,,,,,,,,,,bars/047.png,bars/mask001.png,,,,,,,,,,,,3,2,,,,,,,4,4,5,3,,,,,,,,,,,1343.2849,1343.7847,1344.0353,1350.6858,space,6.6336,,1350.6859,55,0,1351.6854,1351.6854,1373.819,space,22.0983,,0,35,35,35,1,15,70,,,,,,,,
,,,001,2023-12-14_08h17.12.172,bars,2023.2.3,Win32,60.97560976,,,,,,1373.8344,1374.8194,,,1375.3192,1375.5696,,9,9,,,,,,,,,,,,,,,,bars/024.png,bars/mask001.png,,,,,,,,,,,,1,2,,,,,,,2,2,3,2,,,,,,,,,,,1374.8194,1375.3192,1375.5696,1377.0195,space,1.432,,1377.0196,69,19,1378.0195,1378.0195,1406.3366,space,28.2773,,0,36,36,36,1,120,170,,,,,,,,
,,,001,2023-12-14_08h17.12.172,bars,2023.2.3,Win32,60.97560976,,,,,,1406.3594,1407.3533,,,1407.8532,1408.1034,,13,193,,,,,,,,,,,,,,,,bars/005.png,bars/mask005.png,,,,,,,,,,,,0,1,,,,,,,0,0,0,0,,,,,,,,,,,1407.3533,1407.8531,1408.1035,1413.2537,space,5.1337,,1413.2539,3,53,1414.2531,1414.2533,1419.4871,space,5.1954,,0,37,37,37,1,10,140,,,,,,,,
,,,001,2023-12-14_08h17.12.172,bars,2023.2.3,Win32,60.97560976,,,,,,1419.5091,1420.5036,,,1421.0033,1421.253,,8,8,,,,,,,,,,,,,,,,bars/015.png,bars/mask003.png,,,,,,,,,,,,0,2,,,,,,,2,2,2,2,,,,,,,,,,,1420.5037,1421.0032,1421.2531,1429.7365,space,8.4646,,1429.7366,78,28,1430.737,1430.737,1465.7545,space,34.9797,,0,38,38,38,1,110,160,,,,,,,,
,,,001,2023-12-14_08h17.12.172,bars,2023.2.3,Win32,60.97560976,,,,,,1465.7805,1466.7708,,,1467.2712,1467.5205,,145,145,,,,,,,,,,,,,,,,bars/013.png,bars/mask001.png,,,,,,,,,,,,0,2,,,,,,,4,4,6,5,,,,,,,,,,,1466.7709,1467.2711,1467.5206,1471.6213,space,4.0853,,1471.6214,70,45,1472.621,1472.6211,1509.155,space,36.4953,,0,39,39,39,1,75,10,,,,,,,,
,,,001,2023-12-14_08h17.12.172,bars,2023.2.3,Win32,60.97560976,,,,,,1509.1721,1510.1552,,,1510.655,1510.9047,,7,7,,,,,,,,,,,,,,,,bars/014.png,bars/mask000.png,,,,,,,,,,,,2,2,,,,,,,2,2,2,2,,,,,,,,,,,1510.1553,1510.6548,1510.9049,1515.6556,space,4.7351,,1515.6558,73,7,1516.6551,1516.6551,1536.4218,space,19.7296,,0,40,40,40,1,80,0,,,,,,,,
,,,001,2023-12-14_08h17.12.172,bars,2023.2.3,Win32,60.97560976,,,,,,1536.4367,1537.4224,,,1537.9226,1538.1726,,8,188,,,,,,,,,,,,,,,,bars/030.png,bars/mask005.png,,,,,,,,,,,,0,1,,,,,,,4,4,2,2,,,,,,,,,,,1537.4224,1537.9226,1538.1727,1545.9555,space,7.7669,,1545.9555,48,57,1546.9559,1546.9559,1549.4893,space,2.4869,,0,41,41,41,1,140,65,,,,,,,,
,,,001,2023-12-14_08h17.12.172,bars,2023.2.3,Win32,60.97560976,,,,,,1549.4902,1550.4892,,,1550.9891,1551.2388,,119,119,,,,,,,,,,,,,,,,bars/013.png,bars/mask000.png,,,,,,,,,,,,0,1,,,,,,,2,6,1,7,,,,,,,,,,,1550.4893,1550.9891,1551.2389,1556.3397,space,5.0925,,1556.3398,44,71,1557.3386,1557.3386,1641.1576,space,83.7917,,0,42,42,42,1,75,10,,,,,,,,
,,,001,2023-12-14_08h17.12.172,bars,2023.2.3,Win32,60.97560976,,,,,,1641.1809,1642.1741,,,1642.6743,1642.9238,,78,258,,,,,,,,,,,,,,,,bars/037.png,bars/mask008.png,,,,,,,,,,,,1,2,,,,,,,0,8,0,8,,,,,,,,,,,1642.1742,1642.6742,1642.9239,1649.3911,space,6.455,,1649.3912,72,27,1650.3908,1650.391,1663.9408,space,13.5041,,0,43,43,43,1,150,105,,,,,,,,
,,,001,2023-12-14_08h17.12.172,bars,2023.2.3,Win32,60.97560976,,,,,,1663.9543,1664.9411,,,1665.4409,1665.6912,,110,-70,,,,,,,,,,,,,,,,bars/032.png,bars/mask000.png,,,,,,,,,,,,1,1,,,,,,,0,6,1,5,,,,,,,,,,,1664.9412,1665.4408,1665.6912,1674.2082,space,8.5018,,1674.2083,15,90,1675.2078,1675.2078,1683.2916,space,8.0459,,0,44,44,44,1,125,20,,,,,,,,
,,,001,2023-12-14_08h17.12.172,bars,2023.2.3,Win32,60.97560976,,,,,,1683.3125,1684.2917,,,1684.7919,1685.0415,,126,126,,,,,,,,,,,,,,,,bars/035.png,bars/mask003.png,,,,,,,,,,,,0,1,,,,,,,2,4,1,5,,,,,,,,,,,1684.2918,1684.7918,1685.0416,1691.2089,space,6.1528,,1691.2091,49,66,1692.2079,1692.2079,1709.3084,space,17.0762,,0,45,45,45,1,175,60,,,,,,,,
,,,001,2023-12-14_08h17.12.172,bars,2023.2.3,Win32,60.97560976,,,,,,1709.3229,1710.309,,,1710.8093,1711.0587,,169,-11,,,,,,,,,,,,,,,,bars/035.png,bars/mask008.png,,,,,,,,,,,,2,1,,,,,,,4,2,3,3,,,,,,,,,,,1710.3091,1710.8092,1711.0587,1716.1084,space,5.0328,,1716.1084,6,71,1717.1093,1717.1094,1719.8591,space,2.7167,,0,46,46,46,1,175,60,,,,,,,,
,,,001,2023-12-14_08h17.12.172,bars,2023.2.3,Win32,60.97560976,,,,,,1719.8806,1720.8758,,,1721.3595,1721.6095,,10,190,,,,,,,,,,,,,,,,bars/028.png,bars/mask006.png,,,,,,,,,,,,0,1,,,,,,,6,4,7,4,,,,,,,,,,,1720.8759,1721.3594,1721.6095,1725.9926,space,4.3702,,1725.9926,35,70,1726.9928,1726.9929,1742.7431,space,15.7153,,0,47,47,47,1,45,120,,,,,,,,
,,,001,2023-12-14_08h17.12.172,bars,2023.2.3,Win32,60.97560976,,,,,,1742.7695,1743.7598,,,1744.2598,1744.5098,,46,46,,,,,,,,,,,,,,,,bars/029.png,bars/mask009.png,,,,,,,,,,,,2,2,,,,,,,4,2,4,2,,,,,,,,,,,1743.7598,1744.2597,1744.5099,1752.0931,space,7.5669,,1752.0931,44,1,1753.0921,1753.0921,1758.5763,space,5.4598,,0,48,48,48,1,90,45,,,,,,,,
,,,001,2023-12-14_08h17.12.172,bars,2023.2.3,Win32,60.97560976,,,,,,1758.5958,1759.5928,,,1760.093,1760.3431,,55,55,,,,,,,,,,,,,,,,bars/015.png,bars/mask008.png,,,,,,,,,,,,0,1,,,,,,,6,4,6,5,,,,,,,,,,,1759.5928,1760.093,1760.3431,1765.0931,space,4.7368,,1765.0932,55,75,1766.0931,1766.0932,1801.8438,space,35.7147,,0,49,49,49,1,110,160,,,,,,,,
,,,001,2023-12-14_08h17.12.172,bars,2023.2.3,Win32,60.97560976,,,,,,,,,,,,,,,,,,,,,,,,,,,,,,,,,,,,,,,,,,,,,,,,,,,,,,,,,,,,,,,,,,,,,,,,,,,,,,,,,,,,,,,,1801.864,1861.8459,0,0,0,2,1,sequence_tables/blk048.csv
,,,001,2023-12-14_08h17.12.172,bars,2023.2.3,Win32,60.97560976,,,,,,1934.6784,1935.6628,,,1936.1632,1936.413,,119,119,,,,,,,,,,,,,,,,bars/007.png,bars/mask006.png,,,,,,,,,,,,0,1,,,,,,,0,3,0,3,,,,,,1861.8647,1934.6464,space,72.7716,,1935.6629,1936.1632,1936.4131,1942.8125,space,6.3836,,1942.8125,56,64,1943.8128,1943.8129,1943.8389,,,,0,0,0,0,1,175,55,,,,,,,,
,,,001,2023-12-14_08h17.12.172,bars,2023.2.3,Win32,60.97560976,,,,,,1943.8392,1944.829,,,1945.3291,1945.5789,,21,201,,,,,,,,,,,,,,,,bars/028.png,bars/mask004.png,,,,,,,,,,,,0,1,,,,,,,2,5,0,6,,,,,,,,,,,1944.829,1945.3291,1945.5789,1957.713,space,12.1197,,1957.7131,24,81,1958.713,1958.713,1958.7389,,,,0,1,1,1,1,45,120,,,,,,,,
,,,001,2023-12-14_08h17.12.172,bars,2023.2.3,Win32,60.97560976,,,,,,1958.7392,1959.7293,,,1960.2297,1960.4796,,3,3,,,,,,,,,,,,,,,,bars/024.png,bars/mask003.png,,,,,,,,,,,,3,2,,,,,,,0,7,0,6,,,,,,,,,,,1959.7294,1960.2297,1960.4796,1964.6628,space,4.1681,,1964.6629,63,13,1965.6631,1965.6632,1965.6933,,,,0,2,2,2,1,120,170,,,,,,,,
,,,001,2023-12-14_08h17.12.172,bars,2023.2.3,Win32,60.97560976,,,,,,1965.6936,1966.6968,,,1967.1965,1967.4469,,121,121,,,,,,,,,,,,,,,,bars/026.png,bars/mask005.png,,,,,,,,,,,,0,2,,,,,,,2,5,2,5,,,,,,,,,,,1966.6968,1967.1965,1967.447,1969.9298,space,2.4676,,1969.9298,86,36,1970.9296,1970.9296,1970.9421,,,,0,3,3,3,1,35,85,,,,,,,,
,,,001,2023-12-14_08h17.12.172,bars,2023.2.3,Win32,60.97560976,,,,,,1970.9423,1971.93,,,1972.4297,1972.6803,,53,53,,,,,,,,,,,,,,,,bars/005.png,bars/mask006.png,,,,,,,,,,,,0,1,,,,,,,0,7,0,7,,,,,,,,,,,1971.9301,1972.4297,1972.6804,2385.938,space,413.2473,,2385.9381,43,87,2386.9373,2386.9373,2386.9597,,,,0,4,4,4,1,10,140,,,,,,,,
,,,001,2023-12-14_08h17.12.172,bars,2023.2.3,Win32,60.97560976,,,,,,2386.9599,2387.9546,,,2388.4547,2388.7048,,110,110,,,,,,,,,,,,,,,,bars/029.png,bars/mask007.png,,,,,,,,,,,,1,1,,,,,,,2,5,3,5,,,,,,,,,,,2387.9546,2388.4546,2388.7049,2400.1546,space,11.4407,,2400.1547,20,65,2401.1546,2401.1546,2401.1839,,,,0,5,5,5,1,90,45,,,,,,,,
,,,001,2023-12-14_08h17.12.172,bars,2023.2.3,Win32,60.97560976,,,,,,2401.1843,2402.1874,,,2402.6883,2402.9381,,45,45,,,,,,,,,,,,,,,,bars/033.png,bars/mask003.png,,,,,,,,,,,,0,1,,,,,,,0,3,0,2,,,,,,,,,,,2402.1875,2402.6881,2402.9382,2494.6563,space,91.7114,,2494.6563,20,70,2495.6557,2495.6558,2495.6666,,,,0,6,6,6,1,25,155,,,,,,,,
,,,001,2023-12-14_08h17.12.172,bars,2023.2.3,Win32,60.97560976,,,,,,2495.6667,2496.6558,,,2497.1558,2497.4058,,157,157,,,,,,,,,,,,,,,,bars/028.png,bars/mask006.png,,,,,,,,,,,,0,2,,,,,,,2,5,3,5,,,,,,,,,,,2496.6558,2497.1558,2497.4058,2498.6892,space,1.271,,2498.6892,68,37,2499.6892,2499.6892,2499.7019,,,,0,7,7,7,1,45,120,,,,,,,,
,,,001,2023-12-14_08h17.12.172,bars,2023.2.3,Win32,60.97560976,,,,,,2499.7021,2500.7058,,,2501.2059,2501.4558,,126,-54,,,,,,,,,,,,,,,,bars/021.png,bars/mask005.png,,,,,,,,,,,,0,1,,,,,,,0,7,0,8,,,,,,,,,,,2500.7058,2501.2059,2501.4558,2507.806,space,6.3369,,2507.806,29,56,2508.8059,2508.806,2508.8162,,,,0,8,8,8,1,155,70,,,,,,,,
,,,001,2023-12-14_08h17.12.172,bars,2023.2.3,Win32,60.97560976,,,,,,2508.8163,2509.8061,,,2510.306,2510.556,,89,89,,,,,,,,,,,,,,,,bars/033.png,bars/mask003.png,,,,,,,,,,,,0,1,,,,,,,2,5,3,5,,,,,,,,,,,2509.8061,2510.3059,2510.556,2515.1237,space,4.5533,,2515.1238,64,66,2516.1236,2516.1236,2516.1473,,,,0,9,9,9,1,25,155,,,,,,,,
,,,001,2023-12-14_08h17.12.172,bars,2023.2.3,Win32,60.97560976,,,,,,2516.1476,2517.1401,,,2517.6404,2517.8903,,123,123,,,,,,,,,,,,,,,,bars/034.png,bars/mask002.png,,,,,,,,,,,,1,1,,,,,,,0,7,1,7,,,,,,,,,,,2517.1401,2517.6403,2517.8903,2527.0904,space,9.1848,,2527.0905,2,58,2528.0905,2528.0906,2528.1122,,,,0,10,10,10,1,125,65,,,,,,,,
,,,001,2023-12-14_08h17.12.172,bars,2023.2.3,Win32,60.97560976,,,,,,2528.1124,2529.1066,,,2529.6068,2529.857,,140,140,,,,,,,,,,,,,,,,bars/013.png,bars/mask001.png,,,,,,,,,,,,0,2,,,,,,,0,9,1,10,,,,,,,,,,,2529.1066,2529.6068,2529.857,2531.0736,space,1.2062,,2531.0737,65,50,2532.0732,2532.0732,2532.0748,,,,0,11,11,11,1,75,10,,,,,,,,
,,,001,2023-12-14_08h17.12.172,bars,2023.2.3,Win32,60.97560976,,,,,,2532.075,2533.0733,,,2533.5735,2533.8232,,50,50,,,,,,,,,,,,,,,,bars/029.png,bars/mask007.png,,,,,,,,,,,,6,2,,,,,,,2,7,2,7,,,,,,,,,,,2533.0734,2533.5734,2533.8232,2541.624,space,7.7864,,2541.6241,40,5,2542.6243,2542.6244,2542.6459,,,,0,12,12,12,1,90,45,,,,,,,,
,,,001,2023-12-14_08h17.12.172,bars,2023.2.3,Win32,60.97560976,,,,,,2542.6462,2543.6405,,,2544.1407,2544.3909,,51,51,,,,,,,,,,,,,,,,bars/022.png,bars/mask002.png,,,,,,,,,,,,0,2,,,,,,,4,5,3,5,,,,,,,,,,,2543.6406,2544.1406,2544.391,2549.1071,space,4.7021,,2549.1072,44,31,2550.1073,2550.1075,2550.1297,,,,0,13,13,13,1,95,20,,,,,,,,
,,,001,2023-12-14_08h17.12.172,bars,2023.2.3,Win32,60.97560976,,,,,,2550.13,2551.1236,,,2551.6243,2551.8744,,7,7,,,,,,,,,,,,,,,,bars/046.png,bars/mask003.png,,,,,,,,,,,,0,1,,,,,,,2,3,1,3,,,,,,,,,,,2551.1236,2551.6242,2551.8744,2553.3077,space,1.4178,,2553.3077,32,78,2554.3074,2554.3074,2554.3125,,,,0,14,14,14,1,155,85,,,,,,,,
,,,001,2023-12-14_08h17.12.172,bars,2023.2.3,Win32,60.97560976,,,,,,2554.3138,2555.3076,,,2555.8076,2556.057,,153,-27,,,,,,,,,,,,,,,,bars/035.png,bars/mask007.png,,,,,,,,,,,,1,1,,,,,,,4,1,3,3,,,,,,,,,,,2555.3076,2555.8075,2556.057,2577.7907,space,21.7212,,2577.7908,22,87,2578.7914,2578.7915,2578.8155,,,,0,15,15,15,1,175,60,,,,,,,,
,,,001,2023-12-14_08h17.12.172,bars,2023.2.3,Win32,60.97560976,,,,,,2578.8157,2579.8079,,,2580.3074,2580.5573,,72,72,,,,,,,,,,,,,,,,bars/044.png,bars/mask001.png,,,,,,,,,,,,5,1,,,,,,,6,0,5,0,,,,,,,,,,,2579.8079,2580.3073,2580.5574,2622.9419,space,42.3688,,2622.942,3,83,2623.9415,2623.9415,2623.9517,,,,0,16,16,16,1,75,155,,,,,,,,
,,,001,2023-12-14_08h17.12.172,bars,2023.2.3,Win32,60.97560976,,,,,,2623.9519,2624.9424,,,2625.4424,2625.6925,,159,-21,,,,,,,,,,,,,,,,bars/029.png,bars/mask006.png,,,,,,,,,,,,0,2,,,,,,,4,2,5,2,,,,,,,,,,,2624.9425,2625.4423,2625.6925,2816.4956,space,190.788,,2816.4957,69,66,2817.4954,2817.4954,2817.5193,,,,0,17,17,17,1,90,45,,,,,,,,
,,,001,2023-12-14_08h17.12.172,bars,2023.2.3,Win32,60.97560976,,,,,,2817.5196,2818.5125,,,2819.0125,2819.2623,,4,4,,,,,,,,,,,,,,,,bars/012.png,bars/mask009.png,,,,,,,,,,,,3,2,,,,,,,6,4,7,4,,,,,,,,,,,2818.5125,2819.0124,2819.2624,2820.4789,space,1.1997,,2820.4789,86,11,2821.4791,2821.4792,2821.4809,,,,0,18,18,18,1,90,15,,,,,,,,
,,,001,2023-12-14_08h17.12.172,bars,2023.2.3,Win32,60.97560976,,,,,,2821.4817,2822.4791,,,2822.9793,2823.2292,,104,104,,,,,,,,,,,,,,,,bars/001.png,bars/mask008.png,,,,,,,,,,,,1,2,,,,,,,4,2,6,3,,,,,,,,,,,2822.4792,2822.9792,2823.2293,2827.1793,space,3.9352,,2827.1794,26,19,2828.179,2828.1791,2828.1991,,,,0,19,19,19,1,130,85,,,,,,,,
,,,001,2023-12-14_08h17.12.172,bars,2023.2.3,Win32,60.97560976,,,,,,2828.1993,2829.1958,,,2829.696,2829.9456,,102,102,,,,,,,,,,,,,,,,bars/048.png,bars/mask004.png,,,,,,,,,,,,0,1,,,,,,,6,4,8,4,,,,,,,,,,,2829.1959,2829.6959,2829.9456,2831.2628,space,1.3034,,2831.2628,52,73,2832.2628,2832.2628,2832.2675,,,,0,20,20,20,1,50,175,,,,,,,,
,,,001,2023-12-14_08h17.12.172,bars,2023.2.3,Win32,60.97560976,,,,,,2832.2681,2833.2626,,,2833.7627,2834.0127,,115,295,,,,,,,,,,,,,,,,bars/021.png,bars/mask009.png,,,,,,,,,,,,0,1,,,,,,,8,6,9,6,,,,,,,,,,,2833.2626,2833.7627,2834.0128,2844.7629,space,10.7327,,2844.7629,40,45,2845.7628,2845.7628,2845.7879,,,,0,21,21,21,1,155,70,,,,,,,,
,,,001,2023-12-14_08h17.12.172,bars,2023.2.3,Win32,60.97560976,,,,,,2845.7881,2846.7797,,,2847.2797,2847.5296,,64,64,,,,,,,,,,,,,,,,bars/040.png,bars/mask006.png,,,,,,,,,,,,0,2,,,,,,,10,8,9,8,,,,,,,,,,,2846.7797,2847.2796,2847.5297,2860.13,space,12.5848,,2860.1301,76,59,2861.1297,2861.1298,2861.1526,,,,0,22,22,22,1,140,5,,,,,,,,
,,,001,2023-12-14_08h17.12.172,bars,2023.2.3,Win32,60.97560976,,,,,,2861.1529,2862.1464,,,2862.6464,2862.8963,,85,85,,,,,,,,,,,,,,,,bars/004.png,bars/mask003.png,,,,,,,,,,,,0,2,,,,,,,8,10,7,10,,,,,,,,,,,2862.1464,2862.6463,2862.8964,2864.7299,space,1.817,,2864.73,60,40,2865.73,2865.73,2865.7531,,,,0,23,23,23,1,25,125,,,,,,,,
,,,001,2023-12-14_08h17.12.172,bars,2023.2.3,Win32,60.97560976,,,,,,2865.7534,2866.7465,,,2867.2467,2867.4967,,93,93,,,,,,,,,,,,,,,,bars/004.png,bars/mask007.png,,,,,,,,,,,,0,2,,,,,,,10,8,10,8,,,,,,,,,,,2866.7465,2867.2467,2867.4967,2869.6467,space,2.1372,,2869.6468,68,32,2870.6467,2870.6468,2870.6477,,,,0,24,24,24,1,25,125,,,,,,,,
,,,001,2023-12-14_08h17.12.172,bars,2023.2.3,Win32,60.97560976,,,,,,2870.6483,2871.6467,,,2872.1468,2872.3962,,94,94,,,,,,,,,,,,,,,,bars/029.png,bars/mask001.png,,,,,,,,,,,,9,1,,,,,,,8,6,10,6,,,,,,,,,,,2871.6467,2872.1468,2872.3963,2876.5969,space,4.1861,,2876.5969,4,49,2877.5966,2877.5967,2877.6179,,,,0,25,25,25,1,90,45,,,,,,,,
,,,001,2023-12-14_08h17.12.172,bars,2023.2.3,Win32,60.97560976,,,,,,2877.6181,2878.6134,,,2879.1135,2879.3634,,89,89,,,,,,,,,,,,,,,,bars/038.png,bars/mask005.png,,,,,,,,,,,,1,2,,,,,,,6,4,6,4,,,,,,,,,,,2878.6135,2879.1134,2879.3635,2886.2803,space,6.9072,,2886.2803,76,19,2887.28,2887.28,2887.29,,,,0,26,26,26,1,165,70,,,,,,,,
,,,001,2023-12-14_08h17.12.172,bars,2023.2.3,Win32,60.97560976,,,,,,2887.2902,2888.2803,,,2888.7803,2889.0302,,87,87,,,,,,,,,,,,,,,,bars/023.png,bars/mask001.png,,,,,,,,,,,,0,2,,,,,,,8,6,8,7,,,,,,,,,,,2888.2804,2888.7803,2889.0303,2901.1298,space,12.0897,,2901.1299,67,28,2902.1299,2902.13,2902.1404,,,,0,27,27,27,1,20,115,,,,,,,,
,,,001,2023-12-14_08h17.12.172,bars,2023.2.3,Win32,60.97560976,,,,,,2902.1406,2903.1303,,,2904.6518,2904.6542,,116,116,,,,,,,,,,,,,,,,bars/036.png,bars/mask002.png,,,,,,,,,,,,0,1,,,,,,,6,8,8,10,,,,,,,,,,,2903.1303,2904.6516,2904.6542,2908.0132,space,3.3317,,2908.0132,29,84,2909.014,2909.0142,2909.0394,,,,0,28,28,28,1,145,20,,,,,,,,
,,,001,2023-12-14_08h17.12.172,bars,2023.2.3,Win32,60.97560976,,,,,,2909.0397,2910.0302,,,2910.5301,2910.7811,,94,94,,,,,,,,,,,,,,,,bars/022.png,bars/mask009.png,,,,,,,,,,,,7,1,,,,,,,8,6,7,6,,,,,,,,,,,2910.0302,2910.53,2910.7811,2912.8968,space,2.0984,,2912.8968,1,74,2913.8968,2913.8968,2913.8974,,,,0,29,29,29,1,95,20,,,,,,,,
,,,001,2023-12-14_08h17.12.172,bars,2023.2.3,Win32,60.97560976,,,,,,2913.8976,2914.8969,,,2915.3969,2915.6469,,81,81,,,,,,,,,,,,,,,,bars/005.png,bars/mask008.png,,,,,,,,,,,,0,2,,,,,,,10,8,10,8,,,,,,,,,,,2914.8969,2915.3969,2915.6469,2917.7308,space,2.0678,,2917.7309,71,59,2918.7311,2918.7312,2918.7558,,,,0,30,30,30,1,10,140,,,,,,,,
,,,001,2023-12-14_08h17.12.172,bars,2023.2.3,Win32,60.97560976,,,,,,2918.756,2919.7479,,,2920.2476,2920.4985,,84,84,,,,,,,,,,,,,,,,bars/004.png,bars/mask009.png,,,,,,,,,,,,0,2,,,,,,,8,10,6,9,,,,,,,,,,,2919.748,2920.2475,2920.4986,2921.6977,space,1.1874,,2921.6977,59,41,2922.6977,2922.6978,2922.6992,,,,0,31,31,31,1,25,125,,,,,,,,
,,,001,2023-12-14_08h17.12.172,bars,2023.2.3,Win32,60.97560976,,,,,,2922.6999,2923.6977,,,2924.1972,2924.4477,,89,89,,,,,,,,,,,,,,,,bars/025.png,bars/mask006.png,,,,,,,,,,,,3,1,,,,,,,6,8,6,8,,,,,,,,,,,2923.6977,2924.1971,2924.4478,2927.3645,space,2.9013,,2927.3646,16,49,2928.3639,2928.3639,2928.3788,,,,0,32,32,32,1,105,40,,,,,,,,
,,,001,2023-12-14_08h17.12.172,bars,2023.2.3,Win32,60.97560976,,,,,,2928.379,2929.381,,,2929.8813,2930.1327,,88,88,,,,,,,,,,,,,,,,bars/006.png,bars/mask006.png,,,,,,,,,,,,6,2,,,,,,,8,10,8,10,,,,,,,,,,,2929.3811,2929.8811,2930.1329,2933.6639,space,3.5252,,2933.6639,53,12,2934.6638,2934.6638,2934.6743,,,,0,33,33,33,1,35,100,,,,,,,,
,,,001,2023-12-14_08h17.12.172,bars,2023.2.3,Win32,60.97560976,,,,,,2934.6746,2935.6639,,,2936.1648,2936.4145,,82,82,,,,,,,,,,,,,,,,bars/036.png,bars/mask000.png,,,,,,,,,,,,0,2,,,,,,,6,8,6,10,,,,,,,,,,,2935.6639,2936.1648,2936.4146,2940.3473,space,3.9167,,2940.3473,63,62,2941.3483,2941.3483,2941.3756,,,,0,34,34,34,1,145,20,,,,,,,,
,,,001,2023-12-14_08h17.12.172,bars,2023.2.3,Win32,60.97560976,,,,,,2941.3758,2942.3647,,,2942.8649,2943.1148,,80,80,,,,,,,,,,,,,,,,bars/036.png,bars/mask009.png,,,,,,,,,,,,0,2,,,,,,,4,6,4,6,,,,,,,,,,,2942.3647,2942.8649,2943.1148,2962.6983,space,19.5716,,2962.6985,65,60,2963.6977,2963.6977,2963.7124,,,,0,35,35,35,1,145,20,,,,,,,,
,,,001,2023-12-14_08h17.12.172,bars,2023.2.3,Win32,60.97560976,,,,,,2963.7126,2964.7149,,,2965.2151,2965.4652,,92,92,,,,,,,,,,,,,,,,bars/021.png,bars/mask000.png,,,,,,,,,,,,1,2,,,,,,,2,4,2,4,,,,,,,,,,,2964.715,2965.215,2965.4652,2971.6481,space,6.168,,2971.6482,63,22,2972.648,2972.6481,2972.6678,,,,0,36,36,36,1,155,70,,,,,,,,
,,,001,2023-12-14_08h17.12.172,bars,2023.2.3,Win32,60.97560976,,,,,,2972.6682,2973.6655,,,2974.1658,2974.4149,,108,108,,,,,,,,,,,,,,,,bars/000.png,bars/mask002.png,,,,,,,,,,,,0,2,,,,,,,4,6,4,4,,,,,,,,,,,2973.6655,2974.1657,2974.415,3250.8872,space,276.4582,,3250.8873,68,37,3251.8871,3251.8871,3251.9222,,,,0,37,37,37,1,40,145,,,,,,,,
,,,001,2023-12-14_08h17.12.172,bars,2023.2.3,Win32,60.97560976,,,,,,3251.9226,3252.92,,,3253.4216,3253.6704,,165,165,,,,,,,,,,,,,,,,bars/034.png,bars/mask003.png,,,,,,,,,,,,0,1,,,,,,,2,8,1,7,,,,,,,,,,,3252.9201,3253.4216,3253.6705,3254.887,space,1.2004,,3254.8871,40,80,3255.8869,3255.8869,3255.8922,,,,0,38,38,38,1,125,65,,,,,,,,
,,,001,2023-12-14_08h17.12.172,bars,2023.2.3,Win32,60.97560976,,,,,,3255.8936,3256.8869,,,3257.3871,3257.6371,,95,95,,,,,,,,,,,,,,,,bars/005.png,bars/mask008.png,,,,,,,,,,,,0,2,,,,,,,4,10,5,10,,,,,,,,,,,3256.8869,3257.387,3257.6372,3260.7369,space,3.0851,,3260.7369,85,45,3261.7373,3261.7373,3261.7687,,,,0,39,39,39,1,10,140,,,,,,,,
,,,001,2023-12-14_08h17.12.172,bars,2023.2.3,Win32,60.97560976,,,,,,3261.7689,3262.7702,,,3263.2705,3263.5206,,93,93,,,,,,,,,,,,,,,,bars/040.png,bars/mask006.png,,,,,,,,,,,,0,1,,,,,,,6,8,7,7,,,,,,,,,,,3262.7703,3263.2705,3263.5206,3366.4554,space,102.9216,,3366.4555,47,88,3367.4558,3367.4558,3367.4898,,,,0,40,40,40,1,140,5,,,,,,,,
,,,001,2023-12-14_08h17.12.172,bars,2023.2.3,Win32,60.97560976,,,,,,3367.4903,3368.4891,,,3368.9892,3369.2388,,85,85,,,,,,,,,,,,,,,,bars/018.png,bars/mask002.png,,,,,,,,,,,,6,2,,,,,,,4,6,5,7,,,,,,,,,,,3368.4892,3368.9891,3369.2388,3662.5218,space,293.268,,3662.522,65,5,3663.5219,3663.522,3663.5583,,,,0,41,41,41,1,150,90,,,,,,,,
,,,001,2023-12-14_08h17.12.172,bars,2023.2.3,Win32,60.97560976,,,,,,3663.5591,3664.5551,,,3665.0552,3665.3053,,83,83,,,,,,,,,,,,,,,,bars/035.png,bars/mask006.png,,,,,,,,,,,,2,2,,,,,,,6,8,6,9,,,,,,,,,,,3664.5551,3665.0551,3665.3053,3668.8554,space,3.5367,,3668.8554,88,23,3669.8551,3669.8551,3669.8843,,,,0,42,42,42,1,175,60,,,,,,,,
,,,001,2023-12-14_08h17.12.172,bars,2023.2.3,Win32,60.97560976,,,,,,3669.8847,3670.8881,,,3671.3888,3671.6387,,90,90,,,,,,,,,,,,,,,,bars/028.png,bars/mask004.png,,,,,,,,,,,,0,2,,,,,,,8,6,9,7,,,,,,,,,,,3670.8881,3671.3887,3671.6387,3676.3221,space,4.6707,,3676.3222,45,30,3677.322,3677.322,3677.3525,,,,0,43,43,43,1,45,120,,,,,,,,
,,,001,2023-12-14_08h17.12.172,bars,2023.2.3,Win32,60.97560976,,,,,,3677.3528,3678.3554,,,3678.8554,3679.1053,,80,80,,,,,,,,,,,,,,,,bars/023.png,bars/mask004.png,,,,,,,,,,,,0,2,,,,,,,6,8,5,10,,,,,,,,,,,3678.3554,3678.8553,3679.1053,3683.4387,space,4.3178,,3683.4387,60,35,3684.4388,3684.4388,3684.4654,,,,0,44,44,44,1,20,115,,,,,,,,
,,,001,2023-12-14_08h17.12.172,bars,2023.2.3,Win32,60.97560976,,,,,,3684.4656,3685.4552,,,3685.9555,3686.2056,,84,84,,,,,,,,,,,,,,,,bars/032.png,bars/mask004.png,,,,,,,,,,,,0,1,,,,,,,4,10,4,9,,,,,,,,,,,3685.4553,3685.9555,3686.2056,3692.2886,space,6.0726,,3692.2887,41,64,3693.2889,3693.2889,3693.3183,,,,0,45,45,45,1,125,20,,,,,,,,
,,,001,2023-12-14_08h17.12.172,bars,2023.2.3,Win32,60.97560976,,,,,,3693.3186,3694.3224,,,3694.8224,3695.0724,,91,91,,,,,,,,,,,,,,,,bars/043.png,bars/mask004.png,,,,,,,,,,,,0,2,,,,,,,2,8,3,9,,,,,,,,,,,3694.3224,3694.8224,3695.0725,3699.1555,space,4.0653,,3699.1556,61,39,3700.1557,3700.1557,3700.1871,,,,0,46,46,46,1,30,130,,,,,,,,
,,,001,2023-12-14_08h17.12.172,bars,2023.2.3,Win32,60.97560976,,,,,,3700.1875,3701.1889,,,3701.6893,3701.9388,,92,92,,,,,,,,,,,,,,,,bars/016.png,bars/mask002.png,,,,,,,,,,,,0,1,,,,,,,4,6,4,9,,,,,,,,,,,3701.189,3701.6892,3701.9388,3735.39,space,33.4385,,3735.39,52,73,3736.3898,3736.3899,3736.4195,,,,0,47,47,47,1,40,165,,,,,,,,
,,,001,2023-12-14_08h17.12.172,bars,2023.2.3,Win32,60.97560976,,,,,,3736.4197,3737.4228,,,3737.9231,3738.1732,,87,87,,,,,,,,,,,,,,,,bars/034.png,bars/mask006.png,,,,,,,,,,,,2,2,,,,,,,2,8,1,7,,,,,,,,,,,3737.4228,3737.923,3738.1733,3743.0062,space,4.8154,,3743.0062,38,22,3744.0066,3744.0066,3744.0364,,,,0,48,48,48,1,125,65,,,,,,,,
,,,001,2023-12-14_08h17.12.172,bars,2023.2.3,Win32,60.97560976,,,,,,3744.0366,3745.04,,,3745.5398,3745.79,,83,83,,,,,,,,,,,,,,,,bars/047.png,bars/mask009.png,,,,,,,,,,,,3,2,,,,,,,0,6,0,6,,,,,,,,,,,3745.0401,3745.5398,3745.79,3761.5735,space,15.7732,,3761.5736,68,13,3762.5735,3762.5735,3762.6033,,,,0,49,49,49,1,15,70,,,,,,,,
,,,001,2023-12-14_08h17.12.172,bars,2023.2.3,Win32,60.97560976,,,,,,,,,,,,,,,,,,,,,,,,,,,,,,,,,,,,,,,,,,,,,,,,,,,,,,,,,,,,,,,,,,,,,,,,,,,,,,,,,,,,,,,,3762.6036,3822.6076,0,1,1,4,1,sequence_tables/blk005.csv
,,,001,2023-12-14_08h17.12.172,bars,2023.2.3,Win32,60.97560976,,,,,,4246.0891,4247.0674,,,4247.5675,4247.8172,,116,-64,,,,,,,,,,,,,,,,bars/025.png,bars/mask008.png,,,,,,,,,,,,4,1,,,,,,,5,7,6,8,,,,,,3822.623,4246.0669,space,423.4283,,4247.0674,4247.5674,4247.8174,4251.801,space,3.967,,4251.801,11,76,4252.8011,4252.8011,4252.8349,,,,0,0,0,0,1,105,40,,,,,,,,
,,,001,2023-12-14_08h17.12.172,bars,2023.2.3,Win32,60.97560976,,,,,,4252.8356,4253.8336,,,4254.3341,4254.5839,,45,225,,,,,,,,,,,,,,,,bars/007.png,bars/mask000.png,,,,,,,,,,,,5,2,,,,,,,7,9,5,8,,,,,,,,,,,4253.8337,4254.334,4254.584,4260.6511,space,6.052,,4260.6513,50,10,4261.6505,4261.6505,4261.6712,,,,0,1,1,1,1,175,55,,,,,,,,
,,,001,2023-12-14_08h17.12.172,bars,2023.2.3,Win32,60.97560976,,,,,,4261.6715,4262.6682,,,4263.1681,4263.4183,,131,131,,,,,,,,,,,,,,,,bars/010.png,bars/mask001.png,,,,,,,,,,,,0,1,,,,,,,5,10,4,10,,,,,,,,,,,4262.6682,4263.168,4263.4183,4446.5054,space,183.0714,,4446.5055,34,76,4447.5063,4447.5064,4447.55,,,,0,2,2,2,1,165,55,,,,,,,,
,,,001,2023-12-14_08h17.12.172,bars,2023.2.3,Win32,60.97560976,,,,,,4447.5508,4448.5545,,,4449.0542,4449.3041,,100,100,,,,,,,,,,,,,,,,bars/019.png,bars/mask006.png,,,,,,,,,,,,8,2,,,,,,,3,10,2,9,,,,,,,,,,,4448.5546,4449.0542,4449.3041,4449.8212,space,0.5097,,4449.8213,55,5,4450.8207,4450.8208,4450.8278,,,,0,3,3,3,1,45,105,,,,,,,,
,,,001,2023-12-14_08h17.12.172,bars,2023.2.3,Win32,60.97560976,,,,,,4450.8282,4451.8208,,,4452.3208,4452.571,,136,136,,,,,,,,,,,,,,,,bars/039.png,bars/mask007.png,,,,,,,,,,,,0,2,,,,,,,1,10,0,10,,,,,,,,,,,4451.8208,4452.3208,4452.5711,4453.4043,space,0.8212,,4453.4043,39,31,4454.4044,4454.4044,4454.4072,,,,0,4,4,4,1,175,105,,,,,,,,
,,,001,2023-12-14_08h17.12.172,bars,2023.2.3,Win32,60.97560976,,,,,,4454.4088,4455.4044,,,4455.9041,4456.1543,,90,90,,,,,,,,,,,,,,,,bars/049.png,bars/mask004.png,,,,,,,,,,,,2,2,,,,,,,0,10,1,10,,,,,,,,,,,4455.4045,4455.904,4456.1544,4466.1882,space,10.0189,,4466.1882,70,25,4467.1882,4467.1883,4467.2274,,,,0,5,5,5,1,160,115,,,,,,,,
,,,001,2023-12-14_08h17.12.172,bars,2023.2.3,Win32,60.97560976,,,,,,4467.228,4468.2216,,,4468.7217,4468.9714,,95,95,,,,,,,,,,,,,,,,bars/032.png,bars/mask009.png,,,,,,,,,,,,0,1,,,,,,,2,8,1,10,,,,,,,,,,,4468.2218,4468.7217,4468.9715,4470.1886,space,1.2015,,4470.1886,30,75,4471.1887,4471.1888,4471.1972,,,,0,6,6,6,1,125,20,,,,,,,,
,,,001,2023-12-14_08h17.12.172,bars,2023.2.3,Win32,60.97560976,,,,,,4471.1981,4472.1881,,,4472.6888,4474.396,,79,79,,,,,,,,,,,,,,,,bars/036.png,bars/mask004.png,,,,,,,,,,,,0,2,,,,,,,0,6,0,5,,,,,,,,,,,4472.1882,4472.6887,4474.396,4478.2398,space,3.8366,,4478.2398,66,59,4479.2387,4479.2389,4479.2787,,,,0,7,7,7,1,145,20,,,,,,,,
,,,001,2023-12-14_08h17.12.172,bars,2023.2.3,Win32,60.97560976,,,,,,4479.2792,4480.2716,,,4480.7719,4481.0216,,88,88,,,,,,,,,,,,,,,,bars/016.png,bars/mask009.png,,,,,,,,,,,,0,1,,,,,,,0,8,1,7,,,,,,,,,,,4480.2717,4480.7718,4481.0217,4481.9717,space,0.937,,4481.9718,48,77,4482.9716,4482.9717,4482.9777,,,,0,8,8,8,1,40,165,,,,,,,,
,,,001,2023-12-14_08h17.12.172,bars,2023.2.3,Win32,60.97560976,,,,,,4482.9792,4483.9716,,,4484.4713,4484.7215,,83,83,,,,,,,,,,,,,,,,bars/045.png,bars/mask003.png,,,,,,,,,,,,0,1,,,,,,,0,6,0,5,,,,,,,,,,,4483.9717,4484.4713,4484.7215,4492.572,space,7.8343,,4492.572,17,73,4493.572,4493.5721,4493.6034,,,,0,9,9,9,1,100,10,,,,,,,,
,,,001,2023-12-14_08h17.12.172,bars,2023.2.3,Win32,60.97560976,,,,,,4493.6038,4494.6054,,,4495.1055,4495.3553,,102,102,,,,,,,,,,,,,,,,bars/003.png,bars/mask009.png,,,,,,,,,,,,0,2,,,,,,,0,8,1,8,,,,,,,,,,,4494.6055,4495.1054,4495.3553,4498.2723,space,2.9009,,4498.2724,77,38,4499.272,4499.2721,4499.2993,,,,0,10,10,10,1,25,140,,,,,,,,
,,,001,2023-12-14_08h17.12.172,bars,2023.2.3,Win32,60.97560976,,,,,,4499.2996,4500.2888,,,4500.7889,4501.0388,,83,83,,,,,,,,,,,,,,,,bars/013.png,bars/mask009.png,,,,,,,,,,,,0,1,,,,,,,0,10,0,10,,,,,,,,,,,4500.2888,4500.7889,4501.0389,4502.7386,space,1.6914,,4502.7387,8,73,4503.7389,4503.7389,4503.7671,,,,0,11,11,11,1,75,10,,,,,,,,
,,,001,2023-12-14_08h17.12.172,bars,2023.2.3,Win32,60.97560976,,,,,,4503.7673,4504.7553,,,4505.2556,4505.5054,,95,-85,,,,,,,,,,,,,,,,bars/023.png,bars/mask005.png,,,,,,,,,,,,3,2,,,,,,,0,8,0,8,,,,,,,,,,,4504.7553,4505.2555,4505.5055,4512.3558,space,6.836,,4512.3559,75,20,4513.3558,4513.3559,4513.3941,,,,0,12,12,12,1,20,115,,,,,,,,
,,,001,2023-12-14_08h17.12.172,bars,2023.2.3,Win32,60.97560976,,,,,,4513.3962,4514.3889,,,4514.8887,4515.1388,,179,179,,,,,,,,,,,,,,,,bars/023.png,bars/mask009.png,,,,,,,,,,,,1,1,,,,,,,2,6,2,5,,,,,,,,,,,4514.389,4514.8887,4515.1388,4516.1723,space,1.0181,,4516.1725,21,64,4517.1725,4517.1725,4517.176,,,,0,13,13,13,1,20,115,,,,,,,,
,,,001,2023-12-14_08h17.12.172,bars,2023.2.3,Win32,60.97560976,,,,,,4517.1768,4518.1725,,,4518.6729,4518.9222,,105,105,,,,,,,,,,,,,,,,bars/036.png,bars/mask009.png,,,,,,,,,,,,0,1,,,,,,,0,8,1,8,,,,,,,,,,,4518.1726,4518.6727,4518.9222,4522.9893,space,4.0562,,4522.9894,40,85,4523.9885,4523.9887,4524.0095,,,,0,14,14,14,1,145,20,,,,,,,,
,,,001,2023-12-14_08h17.12.172,bars,2023.2.3,Win32,60.97560976,,,,,,4524.0107,4533.2897,,,4533.3043,4533.3046,,75,75,,,,,,,,,,,,,,,,bars/013.png,bars/mask002.png,,,,,,,,,,,,0,1,,,,,,,2,10,0,10,,,,,,,,,,,4533.2898,4533.3042,4533.3046,4542.0724,space,8.7513,,4542.0725,0,65,4543.0724,4543.0724,4543.0909,,,,0,15,15,15,1,75,10,,,,,,,,
,,,001,2023-12-14_08h17.12.172,bars,2023.2.3,Win32,60.97560976,,,,,,4543.0913,4544.089,,,4544.5891,4544.839,,109,109,,,,,,,,,,,,,,,,bars/012.png,bars/mask004.png,,,,,,,,,,,,1,1,,,,,,,4,10,2,10,,,,,,,,,,,4544.089,4544.5891,4544.8391,4546.3722,space,1.5243,,4546.3723,19,86,4547.3723,4547.3723,4547.387,,,,0,16,16,16,1,90,15,,,,,,,,
,,,001,2023-12-14_08h17.12.172,bars,2023.2.3,Win32,60.97560976,,,,,,4547.3872,4567.9064,,,4567.9217,4567.9223,,68,68,,,,,,,,,,,,,,,,bars/037.png,bars/mask001.png,,,,,,,,,,,,0,2,,,,,,,2,8,2,9,,,,,,,,,,,4567.9064,4567.9216,4567.9224,4581.7399,space,13.7979,,4581.74,82,37,4582.7397,4582.7398,4582.7569,,,,0,17,17,17,1,150,105,,,,,,,,
,,,001,2023-12-14_08h17.12.172,bars,2023.2.3,Win32,60.97560976,,,,,,4582.7572,4742.696,,,4742.7322,4742.7328,,95,-85,,,,,,,,,,,,,,,,bars/037.png,bars/mask004.png,,,,,,,,,,,,5,2,,,,,,,0,6,0,7,,,,,,,,,,,4742.6961,4742.7321,4742.7328,4748.8435,space,6.0945,,4748.8436,55,10,4749.8432,4749.8432,4749.8747,,,,0,18,18,18,1,150,105,,,,,,,,
,,,001,2023-12-14_08h17.12.172,bars,2023.2.3,Win32,60.97560976,,,,,,4749.8753,4750.8767,,,4751.3768,4751.6268,,70,70,,,,,,,,,,,,,,,,bars/046.png,bars/mask009.png,,,,,,,,,,,,2,2,,,,,,,0,4,2,3,,,,,,,,,,,4750.8767,4751.3767,4751.6268,4754.8773,space,3.2421,,4754.8774,85,15,4755.8767,4755.8767,4755.9088,,,,0,19,19,19,1,155,85,,,,,,,,
,,,001,2023-12-14_08h17.12.172,bars,2023.2.3,Win32,60.97560976,,,,,,4755.9115,4756.9098,,,4757.4103,4757.66,,89,89,,,,,,,,,,,,,,,,bars/019.png,bars/mask005.png,,,,,,,,,,,,0,2,,,,,,,2,2,1,1,,,,,,,,,,,4756.9099,4757.4102,4757.6601,4762.427,space,4.7491,,4762.4271,44,16,4763.4269,4763.427,4763.4588,,,,0,20,20,20,1,45,105,,,,,,,,
,,,001,2023-12-14_08h17.12.172,bars,2023.2.3,Win32,60.97560976,,,,,,4763.4595,4764.4604,,,4764.9607,4765.2104,,17,17,,,,,,,,,,,,,,,,bars/027.png,bars/mask006.png,,,,,,,,,,,,0,2,,,,,,,4,0,4,0,,,,,,,,,,,4764.4606,4764.9606,4765.2105,4765.711,space,0.486,,4765.7111,87,33,4766.7102,4766.7104,4766.712,,,,0,21,21,21,1,110,50,,,,,,,,
,,,001,2023-12-14_08h17.12.172,bars,2023.2.3,Win32,60.97560976,,,,,,4766.7129,4767.7103,,,4768.2104,4768.4605,,65,65,,,,,,,,,,,,,,,,bars/035.png,bars/mask009.png,,,,,,,,,,,,0,2,,,,,,,2,0,3,0,,,,,,,,,,,4767.7104,4768.2103,4768.4605,4769.2605,space,0.7846,,4769.2607,70,5,4770.2603,4770.2603,4770.2617,,,,0,22,22,22,1,175,60,,,,,,,,
,,,001,2023-12-14_08h17.12.172,bars,2023.2.3,Win32,60.97560976,,,,,,4770.2622,4771.2601,,,4771.7601,4772.0105,,98,98,,,,,,,,,,,,,,,,bars/013.png,bars/mask008.png,,,,,,,,,,,,0,1,,,,,,,0,0,1,0,,,,,,,,,,,4771.2601,4771.7601,4772.0106,4772.6939,space,0.6661,,4772.694,23,88,4773.6938,4773.6938,4773.6982,,,,0,23,23,23,1,75,10,,,,,,,,
,,,001,2023-12-14_08h17.12.172,bars,2023.2.3,Win32,60.97560976,,,,,,4773.6994,4774.6937,,,4775.194,4775.4439,,59,239,,,,,,,,,,,,,,,,bars/026.png,bars/mask009.png,,,,,,,,,,,,0,1,,,,,,,2,2,2,1,,,,,,,,,,,4774.6937,4775.1939,4775.4439,4781.9442,space,6.4854,,4781.9443,24,26,4782.9438,4782.9438,4782.9778,,,,0,24,24,24,1,35,85,,,,,,,,
,,,001,2023-12-14_08h17.12.172,bars,2023.2.3,Win32,60.97560976,,,,,,4782.9783,4783.9773,,,4784.4773,4784.7275,,95,95,,,,,,,,,,,,,,,,bars/006.png,bars/mask000.png,,,,,,,,,,,,0,2,,,,,,,0,0,0,0,,,,,,,,,,,4783.9773,4784.4772,4784.7276,4789.311,space,4.5649,,4789.3111,60,5,4790.3108,4790.3109,4790.3421,,,,0,25,25,25,1,35,100,,,,,,,,
,,,001,2023-12-14_08h17.12.172,bars,2023.2.3,Win32,60.97560976,,,,,,4790.3424,4791.3438,,,4791.844,4792.0936,,102,282,,,,,,,,,,,,,,,,bars/018.png,bars/mask002.png,,,,,,,,,,,,0,2,,,,,,,0,0,0,0,,,,,,,,,,,4791.3439,4791.844,4792.0937,4796.8111,space,4.7014,,4796.8112,48,12,4797.8108,4797.8108,4797.8424,,,,0,26,26,26,1,150,90,,,,,,,,
,,,001,2023-12-14_08h17.12.172,bars,2023.2.3,Win32,60.97560976,,,,,,4797.8428,4798.8442,,,4799.3443,4799.5943,,77,77,,,,,,,,,,,,,,,,bars/009.png,bars/mask006.png,,,,,,,,,,,,0,2,,,,,,,2,0,2,1,,,,,,,,,,,4798.8443,4799.3442,4799.5944,4802.4777,space,2.8681,,4802.4778,62,28,4803.4776,4803.4776,4803.5043,,,,0,27,27,27,1,15,105,,,,,,,,
,,,001,2023-12-14_08h17.12.172,bars,2023.2.3,Win32,60.97560976,,,,,,4803.5046,4804.4944,,,4804.9946,4805.2443,,145,145,,,,,,,,,,,,,,,,bars/016.png,bars/mask006.png,,,,,,,,,,,,1,2,,,,,,,0,2,2,2,,,,,,,,,,,4804.4945,4804.9946,4805.2443,4806.1277,space,0.868,,4806.1278,75,20,4807.1276,4807.1277,4807.1548,,,,0,28,28,28,1,40,165,,,,,,,,
,,,001,2023-12-14_08h17.12.172,bars,2023.2.3,Win32,60.97560976,,,,,,4807.1551,4808.1448,,,4808.6447,4830.0231,,108,108,,,,,,,,,,,,,,,,bars/039.png,bars/mask007.png,,,,,,,,,,,,0,2,,,,,,,2,0,1,0,,,,,,,,,,,4808.1448,4808.6446,4830.0232,4835.2452,space,5.1915,,4835.2453,67,3,4836.2449,4836.2449,4836.2802,,,,0,29,29,29,1,175,105,,,,,,,,
,,,001,2023-12-14_08h17.12.172,bars,2023.2.3,Win32,60.97560976,,,,,,4836.2809,4837.2784,,,4837.7787,4838.0285,,141,141,,,,,,,,,,,,,,,,bars/024.png,bars/mask006.png,,,,,,,,,,,,0,1,,,,,,,0,2,1,3,,,,,,,,,,,4837.2784,4837.7786,4838.0285,4839.212,space,1.1665,,4839.212,21,29,4840.2112,4840.2112,4840.2129,,,,0,30,30,30,1,120,170,,,,,,,,
,,,001,2023-12-14_08h17.12.172,bars,2023.2.3,Win32,60.97560976,,,,,,4840.2137,4841.2116,,,4841.7124,4841.9617,,75,75,,,,,,,,,,,,,,,,bars/035.png,bars/mask000.png,,,,,,,,,,,,1,2,,,,,,,0,0,0,1,,,,,,,,,,,4841.2116,4841.7123,4841.9618,4845.1947,space,3.2179,,4845.1947,80,15,4846.1952,4846.1953,4846.2319,,,,0,31,31,31,1,175,60,,,,,,,,
,,,001,2023-12-14_08h17.12.172,bars,2023.2.3,Win32,60.97560976,,,,,,4846.2325,4847.2287,,,4853.155,4853.2094,,95,95,,,,,,,,,,,,,,,,bars/012.png,bars/mask005.png,,,,,,,,,,,,2,1,,,,,,,2,2,2,2,,,,,,,,,,,4847.2288,4853.1549,4853.2094,4858.6623,space,5.4353,,4858.6624,5,80,4859.662,4859.6621,4859.6899,,,,0,32,32,32,1,90,15,,,,,,,,
,,,001,2023-12-14_08h17.12.172,bars,2023.2.3,Win32,60.97560976,,,,,,4859.6902,4860.6786,,,4861.1789,4861.4285,,81,81,,,,,,,,,,,,,,,,bars/004.png,bars/mask003.png,,,,,,,,,,,,0,2,,,,,,,4,4,4,6,,,,,,,,,,,4860.6786,4861.1788,4861.4286,4865.3129,space,3.8749,,4865.313,56,44,4866.3123,4866.3123,4866.3398,,,,0,33,33,33,1,25,125,,,,,,,,
,,,001,2023-12-14_08h17.12.172,bars,2023.2.3,Win32,60.97560976,,,,,,4866.3401,4867.3287,,,4867.8288,4868.0788,,99,99,,,,,,,,,,,,,,,,bars/025.png,bars/mask006.png,,,,,,,,,,,,6,1,,,,,,,6,2,7,2,,,,,,,,,,,4867.3287,4867.8288,4868.0789,4874.9949,space,6.9089,,4874.9949,6,59,4875.9955,4875.9956,4876.0221,,,,0,34,34,34,1,105,40,,,,,,,,
,,,001,2023-12-14_08h17.12.172,bars,2023.2.3,Win32,60.97560976,,,,,,4876.0223,4877.0116,,,4877.5117,4877.7623,,3,183,,,,,,,,,,,,,,,,bars/035.png,bars/mask002.png,,,,,,,,,,,,3,1,,,,,,,4,4,4,4,,,,,,,,,,,4877.0117,4877.5117,4877.7623,4882.8287,space,5.049,,4882.8287,8,57,4883.8286,4883.8286,4883.8469,,,,0,35,35,35,1,175,60,,,,,,,,
,,,001,2023-12-14_08h17.12.172,bars,2023.2.3,Win32,60.97560976,,,,,,4883.8473,4884.8453,,,4885.3452,4885.5953,,83,83,,,,,,,,,,,,,,,,bars/012.png,bars/mask009.png,,,,,,,,,,,,2,1,,,,,,,2,6,3,5,,,,,,,,,,,4884.8453,4885.3452,4885.5953,4888.696,space,3.0887,,4888.6961,7,68,4889.6956,4889.6956,4889.7171,,,,0,36,36,36,1,90,15,,,,,,,,
,,,001,2023-12-14_08h17.12.172,bars,2023.2.3,Win32,60.97560976,,,,,,4889.7173,4890.7125,,,4891.2125,4891.4627,,96,96,,,,,,,,,,,,,,,,bars/026.png,bars/mask000.png,,,,,,,,,,,,4,2,,,,,,,4,8,4,7,,,,,,,,,,,4890.7125,4891.2125,4891.4627,4895.1291,space,3.6581,,4895.1293,61,11,4896.1294,4896.1294,4896.1549,,,,0,37,37,37,1,35,85,,,,,,,,
,,,001,2023-12-14_08h17.12.172,bars,2023.2.3,Win32,60.97560976,,,,,,4896.1551,4897.1463,,,4897.646,4897.8958,,141,141,,,,,,,,,,,,,,,,bars/033.png,bars/mask006.png,,,,,,,,,,,,5,2,,,,,,,6,10,7,10,,,,,,,,,,,4897.1463,4897.6459,4897.8959,4899.5294,space,1.6153,,4899.5295,64,14,4900.5293,4900.5293,4900.559,,,,0,38,38,38,1,25,155,,,,,,,,
,,,001,2023-12-14_08h17.12.172,bars,2023.2.3,Win32,60.97560976,,,,,,4900.5593,4901.5623,,,4902.0622,4902.3122,,43,43,,,,,,,,,,,,,,,,bars/015.png,bars/mask005.png,,,,,,,,,,,,0,2,,,,,,,8,8,8,8,,,,,,,,,,,4901.5623,4902.0622,4902.3123,4905.0961,space,2.7682,,4905.0961,67,63,4906.0971,4906.0972,4906.132,,,,0,39,39,39,1,110,160,,,,,,,,
,,,001,2023-12-14_08h17.12.172,bars,2023.2.3,Win32,60.97560976,,,,,,4906.1327,4907.1302,,,4907.6294,4907.8797,,96,96,,,,,,,,,,,,,,,,bars/023.png,bars/mask006.png,,,,,,,,,,,,2,2,,,,,,,10,6,10,5,,,,,,,,,,,4907.1303,4907.6294,4907.8797,4918.7464,space,10.8505,,4918.7465,76,19,4919.7458,4919.7459,4919.767,,,,0,40,40,40,1,20,115,,,,,,,,
,,,001,2023-12-14_08h17.12.172,bars,2023.2.3,Win32,60.97560976,,,,,,4919.7673,4920.7629,,,4921.2633,4921.5132,,87,87,,,,,,,,,,,,,,,,bars/005.png,bars/mask003.png,,,,,,,,,,,,0,2,,,,,,,8,8,7,7,,,,,,,,,,,4920.763,4921.2632,4921.5133,4927.3131,space,5.7907,,4927.3132,77,53,4928.3134,4928.3135,4928.3473,,,,0,41,41,41,1,10,140,,,,,,,,
,,,001,2023-12-14_08h17.12.172,bars,2023.2.3,Win32,60.97560976,,,,,,4928.3477,4929.3468,,,4929.8465,4930.0964,,94,94,,,,,,,,,,,,,,,,bars/016.png,bars/mask002.png,,,,,,,,,,,,0,1,,,,,,,10,10,10,10,,,,,,,,,,,4929.3468,4929.8465,4930.0965,4932.8968,space,2.7922,,4932.8969,54,71,4933.8968,4933.8969,4933.9261,,,,0,42,42,42,1,40,165,,,,,,,,
,,,001,2023-12-14_08h17.12.172,bars,2023.2.3,Win32,60.97560976,,,,,,4933.9264,4934.9299,,,4935.4297,4935.6803,,114,114,,,,,,,,,,,,,,,,bars/008.png,bars/mask005.png,,,,,,,,,,,,8,1,,,,,,,10,10,9,10,,,,,,,,,,,4934.93,4935.4296,4935.6804,4937.6301,space,1.9405,,4937.6301,4,66,4938.6295,4938.6296,4938.65,,,,0,43,43,43,1,110,0,,,,,,,,
,,,001,2023-12-14_08h17.12.172,bars,2023.2.3,Win32,60.97560976,,,,,,4938.6504,4939.6468,,,4940.1464,4940.3969,,50,50,,,,,,,,,,,,,,,,bars/035.png,bars/mask000.png,,,,,,,,,,,,7,2,,,,,,,10,10,10,10,,,,,,,,,,,4939.6469,4940.1464,4940.397,4943.8804,space,3.468,,4943.8804,55,10,4944.8803,4944.8804,4944.916,,,,0,44,44,44,1,175,60,,,,,,,,
,,,001,2023-12-14_08h17.12.172,bars,2023.2.3,Win32,60.97560976,,,,,,4944.9165,4945.9134,,,4946.4136,4946.6634,,64,64,,,,,,,,,,,,,,,,bars/048.png,bars/mask006.png,,,,,,,,,,,,5,1,,,,,,,10,8,10,6,,,,,,,,,,,4945.9134,4946.4135,4946.6635,4950.3967,space,3.7247,,4950.3967,14,69,4951.3964,4951.3966,4951.4114,,,,0,45,45,45,1,50,175,,,,,,,,
,,,001,2023-12-14_08h17.12.172,bars,2023.2.3,Win32,60.97560976,,,,,,4951.4116,4952.4137,,,4952.9139,4953.1638,,179,179,,,,,,,,,,,,,,,,bars/000.png,bars/mask001.png,,,,,,,,,,,,0,2,,,,,,,8,6,6,6,,,,,,,,,,,4952.4138,4952.9137,4953.1639,4957.914,space,4.7347,,4957.9141,41,34,4958.9136,4958.9136,4958.9405,,,,0,46,46,46,1,40,145,,,,,,,,
,,,001,2023-12-14_08h17.12.172,bars,2023.2.3,Win32,60.97560976,,,,,,4958.9407,4959.9306,,,4960.4304,4960.6805,,20,20,,,,,,,,,,,,,,,,bars/005.png,bars/mask002.png,,,,,,,,,,,,7,1,,,,,,,10,4,10,4,,,,,,,,,,,4959.9306,4960.4304,4960.6806,4964.7807,space,4.0843,,4964.7809,10,60,4965.7805,4965.7806,4965.8148,,,,0,47,47,47,1,10,140,,,,,,,,
,,,001,2023-12-14_08h17.12.172,bars,2023.2.3,Win32,60.97560976,,,,,,4965.8154,4966.8133,,,4967.3144,4967.5645,,168,168,,,,,,,,,,,,,,,,bars/003.png,bars/mask006.png,,,,,,,,,,,,0,2,,,,,,,8,2,7,2,,,,,,,,,,,4966.8134,4967.3144,4967.5645,4973.8477,space,6.2647,,4973.8478,37,28,4974.8476,4974.8476,4974.8749,,,,0,48,48,48,1,25,140,,,,,,,,
,,,001,2023-12-14_08h17.12.172,bars,2023.2.3,Win32,60.97560976,,,,,,4974.875,4975.8642,,,4976.3644,4976.6142,,64,64,,,,,,,,,,,,,,,,bars/024.png,bars/mask002.png,,,,,,,,,,,,0,1,,,,,,,10,0,10,0,,,,,,,,,,,4975.8642,4976.3644,4976.6143,4982.7981,space,6.1682,,4982.7983,56,74,4983.7979,4983.7979,4983.8338,,,,0,49,49,49,1,120,170,,,,,,,,
,,,001,2023-12-14_08h17.12.172,bars,2023.2.3,Win32,60.97560976,,,,,,,,,,,,,,,,,,,,,,,,,,,,,,,,,,,,,,,,,,,,,,,,,,,,,,,,,,,,,,,,,,,,,,,,,,,,,,,,,,,,,,,,4983.8341,5043.8315,0,2,2,1,1,sequence_tables/blk002.csv
,,,001,2023-12-14_08h17.12.172,bars,2023.2.3,Win32,60.97560976,,,,,,5056.6655,5057.6486,,,5058.1491,5058.3991,,143,143,,,,,,,,,,,,,,,,bars/019.png,bars/mask002.png,,,,,,,,,,,,0,2,,,,,,,10,7,10,8,,,,,,5043.8467,5056.6484,space,12.7856,,5057.6487,5058.149,5058.3992,5062.3497,space,3.9405,,5062.3499,82,38,5063.3488,5063.3489,5063.3738,,,,0,0,0,0,1,45,105,,,,,,,,
,,,001,2023-12-14_08h17.12.172,bars,2023.2.3,Win32,60.97560976,,,,,,5063.3741,5064.3657,,,5064.8659,5065.1156,,70,70,,,,,,,,,,,,,,,,bars/039.png,bars/mask008.png,,,,,,,,,,,,0,2,,,,,,,10,5,10,6,,,,,,,,,,,5064.3658,5064.8659,5065.1157,5068.1826,space,3.0515,,5068.1827,75,35,5069.1824,5069.1825,5069.2151,,,,0,1,1,1,1,175,105,,,,,,,,
,,,001,2023-12-14_08h17.12.172,bars,2023.2.3,Win32,60.97560976,,,,,,5069.2159,5070.2158,,,5070.7159,5070.9659,,95,95,,,,,,,,,,,,,,,,bars/009.png,bars/mask009.png,,,,,,,,,,,,2,2,,,,,,,10,3,9,3,,,,,,,,,,,5070.2159,5070.7158,5070.9659,5073.3825,space,2.4016,,5073.3827,80,10,5074.3826,5074.3827,5074.3839,,,,0,2,2,2,1,15,105,,,,,,,,
,,,001,2023-12-14_08h17.12.172,bars,2023.2.3,Win32,60.97560976,,,,,,5074.3845,5075.3822,,,5075.8828,5076.132,,8,188,,,,,,,,,,,,,,,,bars/034.png,bars/mask009.png,,,,,,,,,,,,0,2,,,,,,,8,1,6,0,,,,,,,,,,,5075.3822,5075.8828,5076.132,5079.083,space,2.9339,,5079.0831,63,57,5080.0827,5080.0827,5080.1148,,,,0,3,3,3,1,125,65,,,,,,,,
,,,001,2023-12-14_08h17.12.172,bars,2023.2.3,Win32,60.97560976,,,,,,5080.1154,5081.1158,,,5081.6162,5081.866,,17,197,,,,,,,,,,,,,,,,bars/013.png,bars/mask005.png,,,,,,,,,,,,1,2,,,,,,,10,0,10,1,,,,,,,,,,,5081.1159,5081.6161,5081.8661,5086.3162,space,4.4366,,5086.3163,58,7,5087.3156,5087.3158,5087.3358,,,,0,4,4,4,1,75,10,,,,,,,,
,,,001,2023-12-14_08h17.12.172,bars,2023.2.3,Win32,60.97560976,,,,,,5087.3362,5088.3327,,,5088.8332,5089.0824,,97,97,,,,,,,,,,,,,,,,bars/018.png,bars/mask008.png,,,,,,,,,,,,1,2,,,,,,,8,0,9,1,,,,,,,,,,,5088.3328,5088.8331,5089.0824,5092.4491,space,3.3512,,5092.4491,53,7,5093.4491,5093.4491,5093.4649,,,,0,5,5,5,1,150,90,,,,,,,,
,,,001,2023-12-14_08h17.12.172,bars,2023.2.3,Win32,60.97560976,,,,,,5093.4651,5094.4657,,,5094.9657,5095.2157,,69,69,,,,,,,,,,,,,,,,bars/003.png,bars/mask005.png,,,,,,,,,,,,0,1,,,,,,,6,2,7,2,,,,,,,,,,,5094.4657,5094.9657,5095.2157,5098.5824,space,3.36,,5098.5824,44,71,5099.5828,5099.5828,5099.6102,,,,0,6,6,6,1,25,140,,,,,,,,
,,,001,2023-12-14_08h17.12.172,bars,2023.2.3,Win32,60.97560976,,,,,,5099.6104,5100.6001,,,5101.0997,5101.3498,,74,74,,,,,,,,,,,,,,,,bars/021.png,bars/mask003.png,,,,,,,,,,,,0,2,,,,,,,8,0,9,0,,,,,,,,,,,5100.6004,5101.0996,5101.3499,5102.9992,space,1.6306,,5102.9993,81,4,5103.9992,5103.9993,5104.0016,,,,0,7,7,7,1,155,70,,,,,,,,
,,,001,2023-12-14_08h17.12.172,bars,2023.2.3,Win32,60.97560976,,,,,,5104.0028,5104.9994,,,5105.4994,5105.7493,,15,15,,,,,,,,,,,,,,,,bars/044.png,bars/mask008.png,,,,,,,,,,,,0,2,,,,,,,6,2,6,2,,,,,,,,,,,5104.9994,5105.4993,5105.7493,5106.9827,space,1.2166,,5106.9829,60,40,5107.9826,5107.9827,5107.9836,,,,0,8,8,8,1,75,155,,,,,,,,
,,,001,2023-12-14_08h17.12.172,bars,2023.2.3,Win32,60.97560976,,,,,,5107.9841,5108.9833,,,5109.4832,5109.7332,,67,67,,,,,,,,,,,,,,,,bars/014.png,bars/mask001.png,,,,,,,,,,,,3,1,,,,,,,8,0,6,0,,,,,,,,,,,5108.9833,5109.4832,5109.7332,5113.0665,space,3.3205,,5113.0666,13,67,5114.0668,5114.0669,5114.0979,,,,0,9,9,9,1,80,0,,,,,,,,
,,,001,2023-12-14_08h17.12.172,bars,2023.2.3,Win32,60.97560976,,,,,,5114.0982,5115.1,,,5115.6002,5115.8499,,145,145,,,,,,,,,,,,,,,,bars/001.png,bars/mask006.png,,,,,,,,,,,,5,1,,,,,,,10,2,10,1,,,,,,,,,,,5115.1001,5115.6002,5115.85,5117.5335,space,1.6678,,5117.5335,15,60,5118.5333,5118.5334,5118.5348,,,,0,10,10,10,1,130,85,,,,,,,,
,,,001,2023-12-14_08h17.12.172,bars,2023.2.3,Win32,60.97560976,,,,,,5118.5353,5119.5334,,,5120.0336,5120.2835,,98,98,,,,,,,,,,,,,,,,bars/007.png,bars/mask006.png,,,,,,,,,,,,0,2,,,,,,,10,4,10,4,,,,,,,,,,,5119.5334,5120.0336,5120.2835,5124.7332,space,4.4385,,5124.7332,77,43,5125.7336,5125.7336,5125.761,,,,0,11,11,11,1,175,55,,,,,,,,
,,,001,2023-12-14_08h17.12.172,bars,2023.2.3,Win32,60.97560976,,,,,,5125.7613,5126.7497,,,5127.2498,5127.5006,,73,73,,,,,,,,,,,,,,,,bars/044.png,bars/mask006.png,,,,,,,,,,,,7,1,,,,,,,10,2,8,2,,,,,,,,,,,5126.7497,5127.2498,5127.5007,5130.3675,space,2.8502,,5130.3675,2,82,5131.3669,5131.367,5131.4011,,,,0,12,12,12,1,75,155,,,,,,,,
,,,001,2023-12-14_08h17.12.172,bars,2023.2.3,Win32,60.97560976,,,,,,5131.4016,5132.4,,,5132.8998,5133.1502,,1,1,,,,,,,,,,,,,,,,bars/012.png,bars/mask000.png,,,,,,,,,,,,2,2,,,,,,,8,4,8,4,,,,,,,,,,,5132.4001,5132.8998,5133.1503,5134.2166,space,1.0491,,5134.2166,89,14,5135.2164,5135.2165,5135.2184,,,,0,13,13,13,1,90,15,,,,,,,,
,,,001,2023-12-14_08h17.12.172,bars,2023.2.3,Win32,60.97560976,,,,,,5135.2193,5136.2168,,,5136.717,5136.9671,,81,81,,,,,,,,,,,,,,,,bars/044.png,bars/mask002.png,,,,,,,,,,,,7,1,,,,,,,10,6,9,7,,,,,,,,,,,5136.2169,5136.717,5136.9672,5139.3004,space,2.3186,,5139.3004,6,74,5140.3005,5140.3006,5140.3045,,,,0,14,14,14,1,75,155,,,,,,,,
,,,001,2023-12-14_08h17.12.172,bars,2023.2.3,Win32,60.97560976,,,,,,5140.3052,5141.3008,,,5141.8006,5142.0503,,67,67,,,,,,,,,,,,,,,,bars/005.png,bars/mask008.png,,,,,,,,,,,,0,1,,,,,,,8,8,9,8,,,,,,,,,,,5141.3008,5141.8005,5142.0504,5150.5508,space,8.4852,,5150.5509,57,73,5151.5508,5151.5508,5151.5811,,,,0,15,15,15,1,10,140,,,,,,,,
,,,001,2023-12-14_08h17.12.172,bars,2023.2.3,Win32,60.97560976,,,,,,5151.5813,5152.5837,,,5153.0841,5153.3339,,12,192,,,,,,,,,,,,,,,,bars/033.png,bars/mask009.png,,,,,,,,,,,,5,1,,,,,,,6,10,8,9,,,,,,,,,,,5152.5838,5153.0841,5153.334,5158.0018,space,4.6599,,5158.0019,13,37,5159.001,5159.0011,5159.033,,,,0,16,16,16,1,25,155,,,,,,,,
,,,001,2023-12-14_08h17.12.172,bars,2023.2.3,Win32,60.97560976,,,,,,5159.0335,5160.0342,,,5160.5344,5160.784,,47,47,,,,,,,,,,,,,,,,bars/011.png,bars/mask007.png,,,,,,,,,,,,0,2,,,,,,,4,10,3,10,,,,,,,,,,,5160.0344,5160.5343,5160.7842,5162.3678,space,1.5734,,5162.368,67,38,5163.3674,5163.3674,5163.3711,,,,0,17,17,17,1,160,85,,,,,,,,
,,,001,2023-12-14_08h17.12.172,bars,2023.2.3,Win32,60.97560976,,,,,,5163.3721,5164.3671,,,5164.8678,5165.1177,,97,97,,,,,,,,,,,,,,,,bars/024.png,bars/mask008.png,,,,,,,,,,,,0,1,,,,,,,2,10,1,9,,,,,,,,,,,5164.3671,5164.8677,5165.1178,5321.1034,space,155.9699,,5321.1035,23,73,5322.1035,5322.1037,5322.1289,,,,0,18,18,18,1,120,170,,,,,,,,
,,,001,2023-12-14_08h17.12.172,bars,2023.2.3,Win32,60.97560976,,,,,,5322.1292,5323.1205,,,5323.6209,5323.8706,,79,79,,,,,,,,,,,,,,,,bars/045.png,bars/mask002.png,,,,,,,,,,,,0,1,,,,,,,0,8,0,8,,,,,,,,,,,5323.1206,5323.6208,5323.8706,5327.4872,space,3.603,,5327.4873,21,69,5328.4872,5328.4873,5328.5206,,,,0,19,19,19,1,100,10,,,,,,,,
,,,001,2023-12-14_08h17.12.172,bars,2023.2.3,Win32,60.97560976,,,,,,5328.5211,5329.5207,,,5330.0208,5330.2706,,61,61,,,,,,,,,,,,,,,,bars/003.png,bars/mask001.png,,,,,,,,,,,,0,1,,,,,,,0,10,1,10,,,,,,,,,,,5329.5208,5330.0207,5330.2706,5335.3538,space,5.0736,,5335.3539,36,79,5336.3539,5336.3539,5336.3835,,,,0,20,20,20,1,25,140,,,,,,,,
,,,001,2023-12-14_08h17.12.172,bars,2023.2.3,Win32,60.97560976,,,,,,5336.3856,5337.3874,,,5337.8872,5338.1373,,92,92,,,,,,,,,,,,,,,,bars/003.png,bars/mask006.png,,,,,,,,,,,,0,2,,,,,,,0,10,0,9,,,,,,,,,,,5337.3875,5337.8871,5338.1373,5341.9881,space,3.8424,,5341.9882,67,48,5342.9872,5342.9872,5343.02,,,,0,21,21,21,1,25,140,,,,,,,,
,,,001,2023-12-14_08h17.12.172,bars,2023.2.3,Win32,60.97560976,,,,,,5343.0205,5344.0206,,,5344.5206,5344.771,,21,21,,,,,,,,,,,,,,,,bars/028.png,bars/mask008.png,,,,,,,,,,,,0,1,,,,,,,2,10,2,10,,,,,,,,,,,5344.0206,5344.5205,5344.7711,5416.805,space,72.0234,,5416.8051,24,81,5417.8052,5417.8052,5417.8265,,,,0,22,22,22,1,45,120,,,,,,,,
,,,001,2023-12-14_08h17.12.172,bars,2023.2.3,Win32,60.97560976,,,,,,5417.8268,5418.8224,,,5419.322,5419.5723,,162,162,,,,,,,,,,,,,,,,bars/015.png,bars/mask008.png,,,,,,,,,,,,8,2,,,,,,,4,10,3,9,,,,,,,,,,,5418.8225,5419.322,5419.5724,5420.5557,space,0.9668,,5420.5559,52,2,5421.5557,5421.5557,5421.5609,,,,0,23,23,23,1,110,160,,,,,,,,
,,,001,2023-12-14_08h17.12.172,bars,2023.2.3,Win32,60.97560976,,,,,,5421.5622,5422.5559,,,5423.0557,5423.3057,,91,91,,,,,,,,,,,,,,,,bars/028.png,bars/mask001.png,,,,,,,,,,,,0,2,,,,,,,2,10,2,8,,,,,,,,,,,5422.5559,5423.0557,5423.3057,5435.2728,space,11.9567,,5435.2729,46,29,5436.2726,5436.2727,5436.3031,,,,0,24,24,24,1,45,120,,,,,,,,
,,,001,2023-12-14_08h17.12.172,bars,2023.2.3,Win32,60.97560976,,,,,,5436.3035,5437.306,,,5437.8059,5438.0559,,71,71,,,,,,,,,,,,,,,,bars/012.png,bars/mask004.png,,,,,,,,,,,,0,1,,,,,,,0,10,0,10,,,,,,,,,,,5437.3061,5437.8058,5438.0559,5441.6888,space,3.6178,,5441.6889,19,56,5442.6894,5442.6895,5442.7173,,,,0,25,25,25,1,90,15,,,,,,,,
,,,001,2023-12-14_08h17.12.172,bars,2023.2.3,Win32,60.97560976,,,,,,5442.7176,5443.7059,,,5444.2055,5444.4561,,75,75,,,,,,,,,,,,,,,,bars/034.png,bars/mask005.png,,,,,,,,,,,,7,2,,,,,,,0,10,0,10,,,,,,,,,,,5443.7059,5444.2055,5444.4561,5449.3391,space,4.8638,,5449.3392,50,10,5450.3394,5450.3395,5450.3675,,,,0,26,26,26,1,125,65,,,,,,,,
,,,001,2023-12-14_08h17.12.172,bars,2023.2.3,Win32,60.97560976,,,,,,5450.3677,5451.3562,,,5451.8557,5452.1061,,148,148,,,,,,,,,,,,,,,,bars/020.png,bars/mask002.png,,,,,,,,,,,,2,2,,,,,,,0,8,0,6,,,,,,,,,,,5451.3563,5451.8556,5452.1061,5466.5236,space,14.4089,,5466.5237,33,22,5467.523,5467.5231,5467.5532,,,,0,27,27,27,1,115,170,,,,,,,,
,,,001,2023-12-14_08h17.12.172,bars,2023.2.3,Win32,60.97560976,,,,,,5467.5535,5468.5564,,,5469.0565,5469.3064,,60,60,,,,,,,,,,,,,,,,bars/011.png,bars/mask008.png,,,,,,,,,,,,1,2,,,,,,,2,6,2,5,,,,,,,,,,,5468.5564,5469.0565,5469.3065,5475.7228,space,6.4001,,5475.7229,80,25,5476.7232,5476.7233,5476.7563,,,,0,28,28,28,1,160,85,,,,,,,,
,,,001,2023-12-14_08h17.12.172,bars,2023.2.3,Win32,60.97560976,,,,,,5476.7567,5477.7572,,,5478.2569,5478.5067,,74,74,,,,,,,,,,,,,,,,bars/040.png,bars/mask000.png,,,,,,,,,,,,0,1,,,,,,,0,8,0,8,,,,,,,,,,,5477.7573,5478.2568,5478.5068,5479.5061,space,0.9907,,5479.5061,66,69,5480.5061,5480.5062,5480.5095,,,,0,29,29,29,1,140,5,,,,,,,,
,,,001,2023-12-14_08h17.12.172,bars,2023.2.3,Win32,60.97560976,,,,,,5480.5105,5481.5062,,,5482.0062,5482.2562,,102,102,,,,,,,,,,,,,,,,bars/025.png,bars/mask004.png,,,,,,,,,,,,0,1,,,,,,,0,6,0,7,,,,,,,,,,,5481.5062,5482.0062,5482.2563,5483.2397,space,0.9663,,5483.2397,3,62,5484.2395,5484.2395,5484.2404,,,,0,30,30,30,1,105,40,,,,,,,,
,,,001,2023-12-14_08h17.12.172,bars,2023.2.3,Win32,60.97560976,,,,,,5484.2407,5485.2395,,,5485.7402,5485.9896,,99,99,,,,,,,,,,,,,,,,bars/029.png,bars/mask009.png,,,,,,,,,,,,1,1,,,,,,,0,8,1,10,,,,,,,,,,,5485.2395,5485.7402,5485.9896,5494.4237,space,8.4175,,5494.4238,9,54,5495.4233,5495.4233,5495.4448,,,,0,31,31,31,1,90,45,,,,,,,,
,,,001,2023-12-14_08h17.12.172,bars,2023.2.3,Win32,60.97560976,,,,,,5495.4451,5496.4424,,,5496.9402,5497.1905,,102,102,,,,,,,,,,,,,,,,bars/010.png,bars/mask000.png,,,,,,,,,,,,0,2,,,,,,,0,10,0,10,,,,,,,,,,,5496.4425,5496.9401,5497.1906,5500.3906,space,3.1871,,5500.3907,63,47,5501.3904,5501.3904,5501.4238,,,,0,32,32,32,1,165,55,,,,,,,,
,,,001,2023-12-14_08h17.12.172,bars,2023.2.3,Win32,60.97560976,,,,,,5501.4241,5502.4237,,,5502.9238,5503.1737,,94,94,,,,,,,,,,,,,,,,bars/010.png,bars/mask006.png,,,,,,,,,,,,0,2,,,,,,,0,10,0,9,,,,,,,,,,,5502.4238,5502.9238,5503.1737,5506.9576,space,3.7668,,5506.9576,71,39,5507.957,5507.957,5507.9879,,,,0,33,33,33,1,165,55,,,,,,,,
,,,001,2023-12-14_08h17.12.172,bars,2023.2.3,Win32,60.97560976,,,,,,5507.9884,5508.9902,,,5509.4907,5509.7408,,112,112,,,,,,,,,,,,,,,,bars/046.png,bars/mask001.png,,,,,,,,,,,,1,2,,,,,,,2,8,1,7,,,,,,,,,,,5508.9903,5509.4905,5509.7408,5512.6074,space,2.8543,,5512.6075,43,27,5513.6072,5513.6072,5513.6425,,,,0,34,34,34,1,155,85,,,,,,,,
,,,001,2023-12-14_08h17.12.172,bars,2023.2.3,Win32,60.97560976,,,,,,5513.643,5514.6406,,,5515.1403,5515.3902,,88,88,,,,,,,,,,,,,,,,bars/027.png,bars/mask002.png,,,,,,,,,,,,0,1,,,,,,,0,6,0,7,,,,,,,,,,,5514.6406,5515.1403,5515.3903,5517.407,space,2.0048,,5517.407,22,38,5518.407,5518.4071,5518.4301,,,,0,35,35,35,1,110,50,,,,,,,,
,,,001,2023-12-14_08h17.12.172,bars,2023.2.3,Win32,60.97560976,,,,,,5518.4303,5519.4236,,,5519.9236,5520.1738,,46,46,,,,,,,,,,,,,,,,bars/011.png,bars/mask006.png,,,,,,,,,,,,0,2,,,,,,,0,8,2,8,,,,,,,,,,,5519.4237,5519.9236,5520.1738,5526.9741,space,6.7925,,5526.9743,66,39,5527.9743,5527.9743,5528.0069,,,,0,36,36,36,1,160,85,,,,,,,,
,,,001,2023-12-14_08h17.12.172,bars,2023.2.3,Win32,60.97560976,,,,,,5528.0073,5529.0076,,,5529.5077,5529.7578,,63,63,,,,,,,,,,,,,,,,bars/028.png,bars/mask007.png,,,,,,,,,,,,0,1,,,,,,,0,6,0,7,,,,,,,,,,,5529.0076,5529.5077,5529.7578,5530.2744,space,0.5016,,5530.2744,18,57,5531.2743,5531.2743,5531.2776,,,,0,37,37,37,1,45,120,,,,,,,,
,,,001,2023-12-14_08h17.12.172,bars,2023.2.3,Win32,60.97560976,,,,,,5531.2789,5532.2742,,,5532.7745,5533.0244,,159,159,,,,,,,,,,,,,,,,bars/049.png,bars/mask005.png,,,,,,,,,,,,1,1,,,,,,,0,8,1,9,,,,,,,,,,,5532.2743,5532.7744,5533.0244,5533.6431,space,0.6064,,5533.6431,1,44,5534.6409,5534.6409,5534.6423,,,,0,38,38,38,1,160,115,,,,,,,,
,,,001,2023-12-14_08h17.12.172,bars,2023.2.3,Win32,60.97560976,,,,,,5534.6429,5535.6408,,,5536.1412,5536.3909,,118,118,,,,,,,,,,,,,,,,bars/004.png,bars/mask001.png,,,,,,,,,,,,5,2,,,,,,,2,6,2,7,,,,,,,,,,,5535.6409,5536.1411,5536.391,5537.5744,space,1.1678,,5537.5745,87,7,5538.5745,5538.5745,5538.5785,,,,0,39,39,39,1,25,125,,,,,,,,
,,,001,2023-12-14_08h17.12.172,bars,2023.2.3,Win32,60.97560976,,,,,,5538.5793,5539.5746,,,5540.0747,5540.3244,,144,144,,,,,,,,,,,,,,,,bars/041.png,bars/mask007.png,,,,,,,,,,,,0,1,,,,,,,4,4,5,3,,,,,,,,,,,5539.5746,5540.0745,5540.3245,5541.758,space,1.4205,,5541.7581,56,59,5542.758,5542.758,5542.7623,,,,0,40,40,40,1,20,85,,,,,,,,
,,,001,2023-12-14_08h17.12.172,bars,2023.2.3,Win32,60.97560976,,,,,,5542.763,5543.7573,,,5544.2579,5544.5073,,53,53,,,,,,,,,,,,,,,,bars/045.png,bars/mask002.png,,,,,,,,,,,,0,2,,,,,,,2,6,1,7,,,,,,,,,,,5543.7574,5544.2579,5544.5074,5545.8247,space,1.3011,,5545.8248,47,43,5546.8246,5546.8247,5546.8281,,,,0,41,41,41,1,100,10,,,,,,,,
,,,001,2023-12-14_08h17.12.172,bars,2023.2.3,Win32,60.97560976,,,,,,5546.8292,5547.8244,,,5548.3247,5548.5746,,82,82,,,,,,,,,,,,,,,,bars/017.png,bars/mask005.png,,,,,,,,,,,,0,2,,,,,,,4,4,3,3,,,,,,,,,,,5547.8245,5548.3247,5548.5747,5551.0417,space,2.4494,,5551.0419,63,37,5552.0415,5552.0416,5552.0715,,,,0,42,42,42,1,145,45,,,,,,,,
,,,001,2023-12-14_08h17.12.172,bars,2023.2.3,Win32,60.97560976,,,,,,5552.0719,5553.0749,,,5553.5748,5553.8241,,161,161,,,,,,,,,,,,,,,,bars/019.png,bars/mask009.png,,,,,,,,,,,,0,2,,,,,,,2,6,4,6,,,,,,,,,,,5553.0749,5553.5747,5553.8241,5554.9914,space,1.1555,,5554.9917,64,56,5555.9915,5555.9915,5555.9931,,,,0,43,43,43,1,45,105,,,,,,,,
,,,001,2023-12-14_08h17.12.172,bars,2023.2.3,Win32,60.97560976,,,,,,5555.9936,5556.9915,,,5557.4916,5557.7415,,138,-42,,,,,,,,,,,,,,,,bars/024.png,bars/mask002.png,,,,,,,,,,,,0,1,,,,,,,0,8,0,8,,,,,,,,,,,5556.9915,5557.4916,5557.7416,5561.775,space,4.0181,,5561.7751,18,32,5562.7746,5562.7747,5562.7912,,,,0,44,44,44,1,120,170,,,,,,,,
,,,001,2023-12-14_08h17.12.172,bars,2023.2.3,Win32,60.97560976,,,,,,5562.7916,5563.7916,,,5564.2914,5564.5418,,0,180,,,,,,,,,,,,,,,,bars/049.png,bars/mask008.png,,,,,,,,,,,,0,1,,,,,,,2,6,1,7,,,,,,,,,,,5563.7917,5564.2913,5564.5418,5569.1415,space,4.5852,,5569.1417,20,65,5570.1418,5570.1418,5570.1713,,,,0,45,45,45,1,160,115,,,,,,,,
,,,001,2023-12-14_08h17.12.172,bars,2023.2.3,Win32,60.97560976,,,,,,5570.1716,5571.1753,,,5571.6751,5571.9249,,144,144,,,,,,,,,,,,,,,,bars/009.png,bars/mask003.png,,,,,,,,,,,,0,2,,,,,,,0,4,0,4,,,,,,,,,,,5571.1754,5571.675,5571.9249,5573.2585,space,1.3181,,5573.2586,51,39,5574.2584,5574.2584,5574.2923,,,,0,46,46,46,1,15,105,,,,,,,,
,,,001,2023-12-14_08h17.12.172,bars,2023.2.3,Win32,60.97560976,,,,,,5574.2927,5575.2918,,,5575.7919,5576.0419,,51,51,,,,,,,,,,,,,,,,bars/006.png,bars/mask000.png,,,,,,,,,,,,1,1,,,,,,,2,6,2,6,,,,,,,,,,,5575.2919,5575.7919,5576.042,5579.6083,space,3.5578,,5579.6084,16,49,5580.6084,5580.6084,5580.6408,,,,0,47,47,47,1,35,100,,,,,,,,
,,,001,2023-12-14_08h17.12.172,bars,2023.2.3,Win32,60.97560976,,,,,,5580.6412,5581.642,,,5582.1422,5582.392,,71,71,,,,,,,,,,,,,,,,bars/000.png,bars/mask004.png,,,,,,,,,,,,0,1,,,,,,,0,4,0,3,,,,,,,,,,,5581.6421,5582.1421,5582.3921,5589.2253,space,6.8182,,5589.2253,31,74,5590.2252,5590.2253,5590.2534,,,,0,48,48,48,1,40,145,,,,,,,,
,,,001,2023-12-14_08h17.12.172,bars,2023.2.3,Win32,60.97560976,,,,,,5590.2536,5591.2424,,,5591.7423,5591.9917,,79,79,,,,,,,,,,,,,,,,bars/025.png,bars/mask003.png,,,,,,,,,,,,0,1,,,,,,,2,2,2,3,,,,,,,,,,,5591.2425,5591.7422,5591.9918,5596.6419,space,4.6353,,5596.6419,26,39,5597.6419,5597.642,5597.6622,,,,0,49,49,49,1,105,40,,,,,,,,
,,,001,2023-12-14_08h17.12.172,bars,2023.2.3,Win32,60.97560976,,,,,,,,,,,,,,,,,,,,,,,,,,,,,,,,,,,,,,,,,,,,,,,,,,,,,,,,,,,,,,,,,,,,,,,,,,,,,,,,,,,,,,,,5597.6625,5689.5322,0,3,3,3,1,sequence_tables/blk043.csv
,,,001,2023-12-14_08h17.12.172,bars,2023.2.3,Win32,60.97560976,,,,,,5690.5587,5691.5599,,,5692.0599,5692.31,,94,94,,,,,,,,,,,,,,,,bars/002.png,bars/mask008.png,,,,,,,,,,,,0,2,,,,,,,4,1,3,0,,,,,,5689.5534,5690.5436,space,0.9818,,5691.5599,5692.0599,5692.3101,5699.4609,space,7.1381,,5699.461,36,9,5700.4607,5700.4608,5700.5009,,,,0,0,0,0,1,130,85,,,,,,,,
,,,001,2023-12-14_08h17.12.172,bars,2023.2.3,Win32,60.97560976,,,,,,5700.5016,5701.4936,,,5701.9939,5702.2436,,153,153,,,,,,,,,,,,,,,,bars/034.png,bars/mask002.png,,,,,,,,,,,,0,1,,,,,,,6,0,5,0,,,,,,,,,,,5701.4937,5701.9938,5702.2436,5703.0441,space,0.7903,,5703.0443,28,88,5704.0435,5704.0436,5704.0485,,,,0,1,1,1,1,125,65,,,,,,,,
,,,001,2023-12-14_08h17.12.172,bars,2023.2.3,Win32,60.97560976,,,,,,5704.0498,5705.0438,,,5705.5441,5705.7938,,36,216,,,,,,,,,,,,,,,,bars/007.png,bars/mask004.png,,,,,,,,,,,,1,2,,,,,,,4,0,4,3,,,,,,,,,,,5705.0438,5705.544,5705.7938,5707.8608,space,2.0549,,5707.8609,41,19,5708.8605,5708.8605,5708.8825,,,,0,2,2,2,1,175,55,,,,,,,,
,,,001,2023-12-14_08h17.12.172,bars,2023.2.3,Win32,60.97560976,,,,,,5708.8828,5709.8775,,,5710.3776,5710.6272,,105,105,,,,,,,,,,,,,,,,bars/030.png,bars/mask009.png,,,,,,,,,,,,0,1,,,,,,,2,2,3,1,,,,,,,,,,,5709.8776,5710.3775,5710.6272,5712.0612,space,1.4237,,5712.0613,35,40,5713.0605,5713.0606,5713.083,,,,0,3,3,3,1,140,65,,,,,,,,
,,,001,2023-12-14_08h17.12.172,bars,2023.2.3,Win32,60.97560976,,,,,,5713.0833,5714.0773,,,5714.5775,5714.8275,,117,117,,,,,,,,,,,,,,,,bars/028.png,bars/mask006.png,,,,,,,,,,,,4,2,,,,,,,4,4,4,4,,,,,,,,,,,5714.0773,5714.5775,5714.8276,5774.4134,space,59.5725,,5774.4138,72,3,5775.4116,5775.4117,5775.4361,,,,0,4,4,4,1,45,120,,,,,,,,
,,,001,2023-12-14_08h17.12.172,bars,2023.2.3,Win32,60.97560976,,,,,,5775.4366,5776.4282,,,5776.9282,5777.1782,,1,1,,,,,,,,,,,,,,,,bars/009.png,bars/mask004.png,,,,,,,,,,,,1,1,,,,,,,2,6,2,6,,,,,,,,,,,5776.4282,5776.9282,5777.1783,5778.4283,space,1.2372,,5778.4284,14,76,5779.4283,5779.4283,5779.4305,,,,0,5,5,5,1,15,105,,,,,,,,
,,,001,2023-12-14_08h17.12.172,bars,2023.2.3,Win32,60.97560976,,,,,,5779.4313,5780.4283,,,5780.9284,5781.1783,,132,-48,,,,,,,,,,,,,,,,bars/009.png,bars/mask009.png,,,,,,,,,,,,0,2,,,,,,,4,4,5,4,,,,,,,,,,,5780.4283,5780.9284,5781.1784,5798.8124,space,17.6265,,5798.8124,63,27,5799.8125,5799.8126,5799.8475,,,,0,6,6,6,1,15,105,,,,,,,,
,,,001,2023-12-14_08h17.12.172,bars,2023.2.3,Win32,60.97560976,,,,,,5799.848,5800.8457,,,5801.3454,5801.5952,,85,85,,,,,,,,,,,,,,,,bars/016.png,bars/mask002.png,,,,,,,,,,,,0,1,,,,,,,2,6,1,5,,,,,,,,,,,5800.8458,5801.3453,5801.5952,5812.6457,space,11.0321,,5812.6458,45,80,5813.6455,5813.6455,5813.6614,,,,0,7,7,7,1,40,165,,,,,,,,
,,,001,2023-12-14_08h17.12.172,bars,2023.2.3,Win32,60.97560976,,,,,,5813.6617,5814.6622,,,5815.1622,5815.4123,,169,-11,,,,,,,,,,,,,,,,bars/002.png,bars/mask000.png,,,,,,,,,,,,0,1,,,,,,,0,4,0,5,,,,,,,,,,,5814.6622,5815.1622,5815.4123,5825.0797,space,9.6527,,5825.0798,39,84,5826.0792,5826.0792,5826.0992,,,,0,8,8,8,1,130,85,,,,,,,,
,,,001,2023-12-14_08h17.12.172,bars,2023.2.3,Win32,60.97560976,,,,,,5826.0995,5827.0958,,,5827.5959,5827.8459,,154,154,,,,,,,,,,,,,,,,bars/039.png,bars/mask009.png,,,,,,,,,,,,1,1,,,,,,,2,6,3,5,,,,,,,,,,,5827.0959,5827.5959,5827.846,5829.8461,space,1.9821,,5829.8461,21,49,5830.8457,5830.8458,5830.8587,,,,0,9,9,9,1,175,105,,,,,,,,
,,,001,2023-12-14_08h17.12.172,bars,2023.2.3,Win32,60.97560976,,,,,,5830.8589,5831.8626,,,5832.3626,5832.6126,,103,103,,,,,,,,,,,,,,,,bars/016.png,bars/mask008.png,,,,,,,,,,,,0,2,,,,,,,4,8,7,8,,,,,,,,,,,5831.8626,5832.3626,5832.6127,5834.7701,space,2.1344,,5834.7703,63,62,5835.7626,5835.7627,5835.7657,,,,0,10,10,10,1,40,165,,,,,,,,
,,,001,2023-12-14_08h17.12.172,bars,2023.2.3,Win32,60.97560976,,,,,,5835.7667,5836.7626,,,5837.2627,5837.5127,,93,93,,,,,,,,,,,,,,,,bars/002.png,bars/mask001.png,,,,,,,,,,,,6,2,,,,,,,2,10,3,8,,,,,,,,,,,5836.7626,5837.2627,5837.5127,6136.5023,space,298.9741,,6136.5025,37,8,6137.5021,6137.5022,6137.5378,,,,0,11,11,11,1,130,85,,,,,,,,
,,,001,2023-12-14_08h17.12.172,bars,2023.2.3,Win32,60.97560976,,,,,,6137.5384,6138.5355,,,6139.0355,6139.2857,,63,63,,,,,,,,,,,,,,,,bars/015.png,bars/mask006.png,,,,,,,,,,,,0,1,,,,,,,0,10,2,10,,,,,,,,,,,6138.5355,6139.0355,6139.2857,6142.6025,space,3.3004,,6142.6025,47,83,6143.602,6143.6021,6143.632,,,,0,12,12,12,1,110,160,,,,,,,,
,,,001,2023-12-14_08h17.12.172,bars,2023.2.3,Win32,60.97560976,,,,,,6143.6323,6144.6355,,,6145.1355,6145.3852,,81,81,,,,,,,,,,,,,,,,bars/019.png,bars/mask002.png,,,,,,,,,,,,2,2,,,,,,,2,8,2,8,,,,,,,,,,,6144.6355,6145.1354,6145.3853,6147.2687,space,1.8756,,6147.2688,36,24,6148.2686,6148.2686,6148.2891,,,,0,13,13,13,1,45,105,,,,,,,,
,,,001,2023-12-14_08h17.12.172,bars,2023.2.3,Win32,60.97560976,,,,,,6148.2893,6149.2853,,,6149.7852,6150.0355,,140,140,,,,,,,,,,,,,,,,bars/020.png,bars/mask008.png,,,,,,,,,,,,1,1,,,,,,,4,6,5,5,,,,,,,,,,,6149.2853,6149.7851,6150.0356,6156.7356,space,6.6883,,6156.7357,25,30,6157.7354,6157.7355,6157.7651,,,,0,14,14,14,1,115,170,,,,,,,,
,,,001,2023-12-14_08h17.12.172,bars,2023.2.3,Win32,60.97560976,,,,,,6157.7654,6158.7689,,,6159.2688,6159.5193,,148,-32,,,,,,,,,,,,,,,,bars/001.png,bars/mask008.png,,,,,,,,,,,,2,1,,,,,,,6,8,5,8,,,,,,,,,,,6158.7689,6159.2688,6159.5194,6161.8359,space,2.2997,,6161.836,18,63,6162.8358,6162.836,6162.866,,,,0,15,15,15,1,130,85,,,,,,,,
,,,001,2023-12-14_08h17.12.172,bars,2023.2.3,Win32,60.97560976,,,,,,6162.8663,6163.8693,,,6164.3694,6164.6192,,40,40,,,,,,,,,,,,,,,,bars/049.png,bars/mask001.png,,,,,,,,,,,,0,1,,,,,,,8,6,8,7,,,,,,,,,,,6163.8693,6164.3694,6164.6193,6169.4027,space,4.7669,,6169.4029,60,75,6170.4028,6170.4029,6170.4308,,,,0,16,16,16,1,160,115,,,,,,,,
,,,001,2023-12-14_08h17.12.172,bars,2023.2.3,Win32,60.97560976,,,,,,6170.4309,6171.4195,,,6171.9197,6172.1693,,40,220,,,,,,,,,,,,,,,,bars/023.png,bars/mask002.png,,,,,,,,,,,,3,1,,,,,,,10,4,10,3,,,,,,,,,,,6171.4196,6171.9196,6172.1694,6174.636,space,2.4529,,6174.6361,20,75,6175.636,6175.6361,6175.6374,,,,0,17,17,17,1,20,115,,,,,,,,
,,,001,2023-12-14_08h17.12.172,bars,2023.2.3,Win32,60.97560976,,,,,,6175.6379,6176.6361,,,6177.136,6177.3862,,135,-45,,,,,,,,,,,,,,,,bars/044.png,bars/mask001.png,,,,,,,,,,,,1,2,,,,,,,10,2,10,2,,,,,,,,,,,6176.6362,6177.1359,6177.3862,6181.8531,space,4.4576,,6181.8531,60,20,6182.8528,6182.8528,6182.8829,,,,0,18,18,18,1,75,155,,,,,,,,
,,,001,2023-12-14_08h17.12.172,bars,2023.2.3,Win32,60.97560976,,,,,,6182.8831,6183.8863,,,6184.3865,6184.6363,,176,176,,,,,,,,,,,,,,,,bars/027.png,bars/mask005.png,,,,,,,,,,,,0,2,,,,,,,8,4,9,4,,,,,,,,,,,6183.8864,6184.3864,6184.6363,6185.3362,space,0.6917,,6185.3364,66,54,6186.3363,6186.3364,6186.3377,,,,0,19,19,19,1,110,50,,,,,,,,
,,,001,2023-12-14_08h17.12.172,bars,2023.2.3,Win32,60.97560976,,,,,,6186.3382,6187.3359,,,6187.8364,6188.0864,,57,57,,,,,,,,,,,,,,,,bars/041.png,bars/mask001.png,,,,,,,,,,,,0,2,,,,,,,10,2,10,3,,,,,,,,,,,6187.336,6187.8364,6188.0864,6190.6531,space,2.5509,,6190.6532,37,28,6191.6531,6191.6531,6191.6546,,,,0,20,20,20,1,20,85,,,,,,,,
,,,001,2023-12-14_08h17.12.172,bars,2023.2.3,Win32,60.97560976,,,,,,6191.6553,6192.6531,,,6193.153,6193.4031,,112,112,,,,,,,,,,,,,,,,bars/017.png,bars/mask001.png,,,,,,,,,,,,0,1,,,,,,,10,0,9,0,,,,,,,,,,,6192.6531,6193.1529,6193.4031,6195.0031,space,1.5868,,6195.0032,33,67,6196.003,6196.0031,6196.032,,,,0,21,21,21,1,145,45,,,,,,,,
,,,001,2023-12-14_08h17.12.172,bars,2023.2.3,Win32,60.97560976,,,,,,6196.0322,6197.0199,,,6197.5201,6197.77,,27,207,,,,,,,,,,,,,,,,bars/043.png,bars/mask007.png,,,,,,,,,,,,6,1,,,,,,,8,0,7,0,,,,,,,,,,,6197.0199,6197.5199,6197.7701,6199.7042,space,1.927,,6199.7043,3,77,6200.7034,6200.7035,6200.7358,,,,0,22,22,22,1,30,130,,,,,,,,
,,,001,2023-12-14_08h17.12.172,bars,2023.2.3,Win32,60.97560976,,,,,,6200.7363,6201.7366,,,6202.2365,6202.4866,,161,-19,,,,,,,,,,,,,,,,bars/012.png,bars/mask003.png,,,,,,,,,,,,0,2,,,,,,,6,0,4,0,,,,,,,,,,,6201.7366,6202.2364,6202.4867,6205.5865,space,3.0852,,6205.5865,71,34,6206.5868,6206.5869,6206.6216,,,,0,23,23,23,1,90,15,,,,,,,,
,,,001,2023-12-14_08h17.12.172,bars,2023.2.3,Win32,60.97560976,,,,,,6206.6221,6207.6199,,,6208.12,6208.3703,,82,82,,,,,,,,,,,,,,,,bars/039.png,bars/mask004.png,,,,,,,,,,,,0,2,,,,,,,8,0,8,0,,,,,,,,,,,6207.62,6208.1199,6208.3703,6209.403,space,1.024,,6209.403,87,23,6210.4028,6210.4028,6210.4035,,,,0,24,24,24,1,175,105,,,,,,,,
,,,001,2023-12-14_08h17.12.172,bars,2023.2.3,Win32,60.97560976,,,,,,6210.4038,6211.4033,,,6211.9034,6212.1535,,32,32,,,,,,,,,,,,,,,,bars/032.png,bars/mask007.png,,,,,,,,,,,,0,2,,,,,,,6,0,5,0,,,,,,,,,,,6211.4034,6211.9033,6212.1536,6214.4702,space,2.3025,,6214.4703,87,12,6215.4699,6215.47,6215.4713,,,,0,25,25,25,1,125,20,,,,,,,,
,,,001,2023-12-14_08h17.12.172,bars,2023.2.3,Win32,60.97560976,,,,,,6215.4719,6216.4703,,,6216.97,6217.2202,,87,87,,,,,,,,,,,,,,,,bars/008.png,bars/mask001.png,,,,,,,,,,,,2,1,,,,,,,8,2,7,4,,,,,,,,,,,6216.4703,6216.97,6217.2203,6217.987,space,0.7498,,6217.9871,23,87,6218.9868,6218.9869,6218.9908,,,,0,26,26,26,1,110,0,,,,,,,,
,,,001,2023-12-14_08h17.12.172,bars,2023.2.3,Win32,60.97560976,,,,,,6218.9919,6219.9871,,,6220.487,6220.737,,170,170,,,,,,,,,,,,,,,,bars/036.png,bars/mask002.png,,,,,,,,,,,,1,1,,,,,,,6,0,6,1,,,,,,,,,,,6219.9871,6220.487,6220.7371,6221.487,space,0.7334,,6221.4871,25,30,6222.487,6222.487,6222.4886,,,,0,27,27,27,1,145,20,,,,,,,,
,,,001,2023-12-14_08h17.12.172,bars,2023.2.3,Win32,60.97560976,,,,,,6222.4892,6223.487,,,6223.987,6224.237,,30,30,,,,,,,,,,,,,,,,bars/012.png,bars/mask003.png,,,,,,,,,,,,2,2,,,,,,,4,2,4,3,,,,,,,,,,,6223.487,6223.987,6224.237,6226.1199,space,1.8677,,6226.12,60,15,6227.1206,6227.1208,6227.1266,,,,0,28,28,28,1,90,15,,,,,,,,
,,,001,2023-12-14_08h17.12.172,bars,2023.2.3,Win32,60.97560976,,,,,,6227.1273,6228.1205,,,6228.6202,6228.8708,,12,192,,,,,,,,,,,,,,,,bars/040.png,bars/mask009.png,,,,,,,,,,,,0,2,,,,,,,2,0,2,0,,,,,,,,,,,6228.1206,6228.6202,6228.8708,6230.6371,space,1.7503,,6230.6372,52,7,6231.6371,6231.6371,6231.6386,,,,0,29,29,29,1,140,5,,,,,,,,
,,,001,2023-12-14_08h17.12.172,bars,2023.2.3,Win32,60.97560976,,,,,,6231.6394,6232.6372,,,6233.1373,6233.387,,76,76,,,,,,,,,,,,,,,,bars/047.png,bars/mask007.png,,,,,,,,,,,,0,2,,,,,,,4,0,4,0,,,,,,,,,,,6232.6373,6233.1372,6233.3871,6235.3207,space,1.9181,,6235.3209,61,6,6236.3206,6236.3207,6236.3497,,,,0,30,30,30,1,15,70,,,,,,,,
,,,001,2023-12-14_08h17.12.172,bars,2023.2.3,Win32,60.97560976,,,,,,6236.35,6237.3539,,,6237.8541,6238.1038,,87,87,,,,,,,,,,,,,,,,bars/035.png,bars/mask005.png,,,,,,,,,,,,0,2,,,,,,,2,0,0,0,,,,,,,,,,,6237.3539,6237.854,6238.1039,6253.5537,space,15.4342,,6253.5539,88,27,6254.5539,6254.554,6254.5752,,,,0,31,31,31,1,175,60,,,,,,,,
,,,001,2023-12-14_08h17.12.172,bars,2023.2.3,Win32,60.97560976,,,,,,6254.5755,6255.5709,,,6256.071,6256.321,,61,61,,,,,,,,,,,,,,,,bars/026.png,bars/mask009.png,,,,,,,,,,,,0,2,,,,,,,0,0,0,0,,,,,,,,,,,6255.5709,6256.071,6256.3211,6258.6544,space,2.3173,,6258.6545,26,24,6259.6544,6259.6544,6259.6811,,,,0,32,32,32,1,35,85,,,,,,,,
,,,001,2023-12-14_08h17.12.172,bars,2023.2.3,Win32,60.97560976,,,,,,6259.6813,6260.6711,,,6261.1712,6261.4211,,47,227,,,,,,,,,,,,,,,,bars/000.png,bars/mask004.png,,,,,,,,,,,,0,1,,,,,,,0,2,0,3,,,,,,,,,,,6260.6711,6261.1711,6261.4211,6265.4379,space,4.0034,,6265.438,7,82,6266.4378,6266.4379,6266.4635,,,,0,33,33,33,1,40,145,,,,,,,,
,,,001,2023-12-14_08h17.12.172,bars,2023.2.3,Win32,60.97560976,,,,,,6266.4637,6267.4547,,,6267.954,6268.2045,,138,138,,,,,,,,,,,,,,,,bars/010.png,bars/mask003.png,,,,,,,,,,,,0,1,,,,,,,2,4,0,4,,,,,,,,,,,6267.4548,6267.954,6268.2046,6270.7714,space,2.5513,,6270.7715,27,83,6271.7711,6271.7712,6271.803,,,,0,34,34,34,1,165,55,,,,,,,,
,,,001,2023-12-14_08h17.12.172,bars,2023.2.3,Win32,60.97560976,,,,,,6271.8035,6272.8046,,,6273.3047,6273.5541,,124,124,,,,,,,,,,,,,,,,bars/012.png,bars/mask003.png,,,,,,,,,,,,0,1,,,,,,,4,6,5,5,,,,,,,,,,,6272.8047,6273.3046,6273.5541,6275.6883,space,2.1194,,6275.6884,34,71,6276.6875,6276.6876,6276.7063,,,,0,35,35,35,1,90,15,,,,,,,,
,,,001,2023-12-14_08h17.12.172,bars,2023.2.3,Win32,60.97560976,,,,,,6276.7068,6277.7041,,,6278.2048,6278.4547,,175,-5,,,,,,,,,,,,,,,,bars/032.png,bars/mask003.png,,,,,,,,,,,,0,2,,,,,,,6,4,6,3,,,,,,,,,,,6277.7042,6278.2047,6278.4549,6281.7889,space,3.3246,,6281.789,50,25,6282.788,6282.788,6282.8184,,,,0,36,36,36,1,125,20,,,,,,,,
,,,001,2023-12-14_08h17.12.172,bars,2023.2.3,Win32,60.97560976,,,,,,6282.8187,6283.8215,,,6284.3218,6284.5713,,60,60,,,,,,,,,,,,,,,,bars/023.png,bars/mask005.png,,,,,,,,,,,,0,1,,,,,,,4,6,4,6,,,,,,,,,,,6283.8216,6284.3216,6284.5714,6287.1216,space,2.5334,,6287.1217,40,55,6288.1216,6288.1216,6288.1536,,,,0,37,37,37,1,20,115,,,,,,,,
,,,001,2023-12-14_08h17.12.172,bars,2023.2.3,Win32,60.97560976,,,,,,6288.1541,6289.1549,,,6289.6549,6289.9046,,162,162,,,,,,,,,,,,,,,,bars/025.png,bars/mask002.png,,,,,,,,,,,,0,1,,,,,,,2,8,2,8,,,,,,,,,,,6289.155,6289.6548,6289.9047,6291.6216,space,1.7016,,6291.6218,57,58,6292.6216,6292.6217,6292.6521,,,,0,38,38,38,1,105,40,,,,,,,,
,,,001,2023-12-14_08h17.12.172,bars,2023.2.3,Win32,60.97560976,,,,,,6292.6523,6293.6549,,,6294.1545,6294.4052,,22,202,,,,,,,,,,,,,,,,bars/049.png,bars/mask009.png,,,,,,,,,,,,0,1,,,,,,,4,10,4,10,,,,,,,,,,,6293.655,6294.1544,6294.4052,6297.4383,space,3.0222,,6297.4384,42,87,6298.4384,6298.4385,6298.4672,,,,0,39,39,39,1,160,115,,,,,,,,
,,,001,2023-12-14_08h17.12.172,bars,2023.2.3,Win32,60.97560976,,,,,,6298.4674,6299.4718,,,6299.9719,6300.2217,,66,66,,,,,,,,,,,,,,,,bars/047.png,bars/mask007.png,,,,,,,,,,,,7,2,,,,,,,2,8,3,8,,,,,,,,,,,6299.4718,6299.9719,6300.2217,6320.9387,space,20.7069,,6320.9388,51,4,6321.9389,6321.9389,6321.9695,,,,0,40,40,40,1,15,70,,,,,,,,
,,,001,2023-12-14_08h17.12.172,bars,2023.2.3,Win32,60.97560976,,,,,,6321.9698,6322.9723,,,6323.4723,6323.7222,,150,150,,,,,,,,,,,,,,,,bars/048.png,bars/mask005.png,,,,,,,,,,,,1,2,,,,,,,4,6,4,6,,,,,,,,,,,6322.9723,6323.4722,6323.7222,6333.7222,space,9.9846,,6333.7223,80,25,6334.7224,6334.7225,6334.7535,,,,0,41,41,41,1,50,175,,,,,,,,
,,,001,2023-12-14_08h17.12.172,bars,2023.2.3,Win32,60.97560976,,,,,,6334.7538,6335.7556,,,6336.2556,6336.5055,,128,128,,,,,,,,,,,,,,,,bars/003.png,bars/mask008.png,,,,,,,,,,,,6,2,,,,,,,6,8,4,10,,,,,,,,,,,6335.7557,6336.2555,6336.5055,6338.539,space,2.0188,,6338.5391,77,12,6339.5392,6339.5393,6339.5676,,,,0,42,42,42,1,25,140,,,,,,,,
,,,001,2023-12-14_08h17.12.172,bars,2023.2.3,Win32,60.97560976,,,,,,6339.5679,6340.5559,,,6341.0557,6341.3056,,171,171,,,,,,,,,,,,,,,,bars/037.png,bars/mask004.png,,,,,,,,,,,,2,1,,,,,,,8,10,8,10,,,,,,,,,,,6340.5559,6341.0557,6341.3056,6345.656,space,4.3354,,6345.6561,21,66,6346.6557,6346.6558,6346.6852,,,,0,43,43,43,1,150,105,,,,,,,,
,,,001,2023-12-14_08h17.12.172,bars,2023.2.3,Win32,60.97560976,,,,,,6346.6855,6347.6893,,,6348.1894,6348.4392,,29,209,,,,,,,,,,,,,,,,bars/038.png,bars/mask000.png,,,,,,,,,,,,0,2,,,,,,,6,10,5,10,,,,,,,,,,,6347.6894,6348.1894,6348.4393,6351.9727,space,3.5213,,6351.9728,44,41,6352.9727,6352.9727,6353.0016,,,,0,44,44,44,1,165,70,,,,,,,,
,,,001,2023-12-14_08h17.12.172,bars,2023.2.3,Win32,60.97560976,,,,,,6353.0018,6354.0056,,,6354.506,6354.7562,,141,-39,,,,,,,,,,,,,,,,bars/041.png,bars/mask008.png,,,,,,,,,,,,0,2,,,,,,,4,10,4,10,,,,,,,,,,,6354.0057,6354.5059,6354.7562,6359.4062,space,4.6355,,6359.4063,59,56,6360.4062,6360.4062,6360.4363,,,,0,45,45,45,1,20,85,,,,,,,,
,,,001,2023-12-14_08h17.12.172,bars,2023.2.3,Win32,60.97560976,,,,,,6360.4368,6361.4396,,,6361.9396,6362.1896,,64,64,,,,,,,,,,,,,,,,bars/017.png,bars/mask001.png,,,,,,,,,,,,3,2,,,,,,,6,10,6,9,,,,,,,,,,,6361.4397,6361.9395,6362.1898,6364.7399,space,2.5429,,6364.74,81,19,6365.7393,6365.7394,6365.7692,,,,0,46,46,46,1,145,45,,,,,,,,
,,,001,2023-12-14_08h17.12.172,bars,2023.2.3,Win32,60.97560976,,,,,,6365.7696,6366.773,,,6367.2732,6367.5229,,122,122,,,,,,,,,,,,,,,,bars/004.png,bars/mask006.png,,,,,,,,,,,,7,2,,,,,,,4,8,2,8,,,,,,,,,,,6366.7731,6367.2731,6367.523,6369.49,space,1.9526,,6369.4901,83,3,6370.4898,6370.4899,6370.4918,,,,0,47,47,47,1,25,125,,,,,,,,
,,,001,2023-12-14_08h17.12.172,bars,2023.2.3,Win32,60.97560976,,,,,,6370.493,6371.4895,,,6371.99,6372.2395,,47,47,,,,,,,,,,,,,,,,bars/029.png,bars/mask002.png,,,,,,,,,,,,9,2,,,,,,,6,10,6,10,,,,,,,,,,,6371.4895,6371.9899,6372.2396,6374.4399,space,2.1857,,6374.44,43,2,6375.4395,6375.4397,6375.4666,,,,0,48,48,48,1,90,45,,,,,,,,
,,,001,2023-12-14_08h17.12.172,bars,2023.2.3,Win32,60.97560976,,,,,,6375.4668,6376.4561,,,6376.9562,6377.2064,,37,37,,,,,,,,,,,,,,,,bars/034.png,bars/mask001.png,,,,,,,,,,,,1,2,,,,,,,4,10,6,10,,,,,,,,,,,6376.4561,6376.9562,6377.2065,6379.3407,space,2.1271,,6379.3407,88,28,6380.3399,6380.34,6380.3415,,,,0,49,49,49,1,125,65,,,,,,,,
,,,001,2023-12-14_08h17.12.172,bars,2023.2.3,Win32,60.97560976,,,,,,,,,,,,,,,,,,,,,,,,,,,,,,,,,,,,,,,,,,,,,,,,,,,,,,,,,,,,,,,,,,,,,,,,,,,,,,,,,,,,,,,,6380.342,6380.3422,0,4,4,0,1,sequence_tables/blk008.csv