init_variables.started,init_variables.stopped,participant,session,date,expName,psychopyVersion,OS,frameRate,instruction_single.started,instruction_single.stopped,key_resp_2.keys,key_resp_2.rt,key_resp_2.duration,interval.started,interval.stopped,cue_single.started,cue_single.stopped,mask.started,mask.stopped,ori_response_single.started,res_ori,res,ori_response_single.stopped,key_resp_single.keys,key_resp_single.rt,key_resp_single.duration,disp_single.started,disp_single.stopped,key_resp.keys,key_resp.rt,key_resp.duration,single.thisRepN,single.thisTrialN,single.thisN,single.thisIndex,single.ran,ori,path,mask_path,instruction_bandit.started,instruction_bandit.stopped,key_resp_6.keys,key_resp_6.rt,key_resp_6.duration,cue_bandit.started,cue_bandit.stopped,bandit_res.keys,bandit_res.rt,bandit_res.duration,outcome_bandit.started,rew,action,outcome_bandit.stopped,bandit.thisRepN,bandit.thisTrialN,bandit.thisN,bandit.thisIndex,bandit.ran,actual_rew1,actual_rew2,rew1,rew2,instruction_task.started,instruction_task.stopped,key_resp_7.keys,key_resp_7.rt,key_resp_7.duration,wait_ready.started,wait_ready.stopped,key_resp_3.keys,key_resp_3.rt,key_resp_3.duration,cue.started,cue.stopped,ori_response.started,ori_response.stopped,key_resp_5.keys,key_resp_5.rt,key_resp_5.duration,outcome.started,diff1,diff2,outcome.stopped,disp_outcome_practice.started,disp_outcome_practice.stopped,key_resp_4.keys,key_resp_4.rt,key_resp_4.duration,trials.thisRepN,trials.thisTrialN,trials.thisN,trials.thisIndex,trials.ran,ori1,ori2,break_blk.started,break_blk.stopped,block.thisRepN,block.thisTrialN,block.thisN,block.thisIndex,block.ran,condition_file
0.0002,0.0002,5f56253b816a8722d0af90f5,,2023-12-16_15h22.56.542,bars,2023.2.3,Win32,29.94011976,,,,,,,,,,,,,,,,,,,,,,,,,,,,,,,,,,,,,,,,,,,,,,,,,,,,,,,,,,,,,,,,,,,,,,,,,,,,,,,,,,,,,,,,,,,,,,,
,,5f56253b816a8722d0af90f5,,2023-12-16_15h22.56.542,bars,2023.2.3,Win32,29.94011976,0.0004,9.4096,space,9.3649,,,,,,,,,,,,,,,,,,,,,,,,,,,,,,,,,,,,,,,,,,,,,,,,,,,,,,,,,,,,,,,,,,,,,,,,,,,,,,,,,,,,,,,,,,,
,,5f56253b816a8722d0af90f5,,2023-12-16_15h22.56.542,bars,2023.2.3,Win32,29.94011976,,,,,,9.4175,10.4092,10.4095,10.91,10.9104,11.1427,11.1429,158,158,13.543,space,2.3589,,13.5433,16.1084,space,2.5326,,0,0,0,2,1,145,bars/single002.png,bars/mask003.png,,,,,,,,,,,,,,,,,,,,,,,,,,,,,,,,,,,,,,,,,,,,,,,,,,,,,,,,,,,,,,,,
,,5f56253b816a8722d0af90f5,,2023-12-16_15h22.56.542,bars,2023.2.3,Win32,29.94011976,,,,,,16.1089,17.1082,17.1083,17.6082,17.6082,17.8417,17.8418,20,20,18.5752,space,0.7008,,18.5754,19.8082,space,1.2021,,0,1,1,3,1,20,bars/single003.png,bars/mask005.png,,,,,,,,,,,,,,,,,,,,,,,,,,,,,,,,,,,,,,,,,,,,,,,,,,,,,,,,,,,,,,,,
,,5f56253b816a8722d0af90f5,,2023-12-16_15h22.56.542,bars,2023.2.3,Win32,29.94011976,,,,,,19.8096,20.8074,20.8075,21.3075,21.3076,21.5408,21.541,64,64,22.9747,space,1.3986,,22.9748,24.3741,space,1.3643,,0,2,2,7,1,45,bars/single007.png,bars/mask009.png,,,,,,,,,,,,,,,,,,,,,,,,,,,,,,,,,,,,,,,,,,,,,,,,,,,,,,,,,,,,,,,,
,,5f56253b816a8722d0af90f5,,2023-12-16_15h22.56.542,bars,2023.2.3,Win32,29.94011976,,,,,,24.3747,25.3735,25.3736,25.8737,25.8738,26.1069,26.107,146,146,27.5737,space,1.4377,,27.5738,28.4737,space,0.8783,,0,3,3,8,1,160,bars/single008.png,bars/mask004.png,,,,,,,,,,,,,,,,,,,,,,,,,,,,,,,,,,,,,,,,,,,,,,,,,,,,,,,,,,,,,,,,
,,5f56253b816a8722d0af90f5,,2023-12-16_15h22.56.542,bars,2023.2.3,Win32,29.94011976,,,,,,28.4746,29.4727,29.4727,29.9731,29.9732,30.2063,30.2064,47,47,34.3062,space,4.0681,,34.3063,34.9723,space,0.6331,,0,4,4,5,1,55,bars/single005.png,bars/mask008.png,,,,,,,,,,,,,,,,,,,,,,,,,,,,,,,,,,,,,,,,,,,,,,,,,,,,,,,,,,,,,,,,
,,5f56253b816a8722d0af90f5,,2023-12-16_15h22.56.542,bars,2023.2.3,Win32,29.94011976,,,,,,34.9728,35.9722,35.9724,36.4715,36.4715,36.7057,36.7057,78,78,40.2378,space,3.497,,40.2378,40.8715,space,0.6246,,0,5,5,4,1,95,bars/single004.png,bars/mask004.png,,,,,,,,,,,,,,,,,,,,,,,,,,,,,,,,,,,,,,,,,,,,,,,,,,,,,,,,,,,,,,,,
,,5f56253b816a8722d0af90f5,,2023-12-16_15h22.56.542,bars,2023.2.3,Win32,29.94011976,,,,,,40.8724,41.8712,41.8714,42.3707,42.3708,42.6048,42.605,149,149,44.1052,space,1.4896,,44.1053,44.904,space,0.7603,,0,6,6,0,1,150,bars/single000.png,bars/mask006.png,,,,,,,,,,,,,,,,,,,,,,,,,,,,,,,,,,,,,,,,,,,,,,,,,,,,,,,,,,,,,,,,
,,5f56253b816a8722d0af90f5,,2023-12-16_15h22.56.542,bars,2023.2.3,Win32,29.94011976,,,,,,44.9048,45.9045,45.9046,46.4034,46.4034,46.6372,46.6373,3,183,49.1369,space,2.4715,,49.137,50.0367,space,0.876,,0,7,7,1,1,20,bars/single001.png,bars/mask006.png,,,,,,,,,,,,,,,,,,,,,,,,,,,,,,,,,,,,,,,,,,,,,,,,,,,,,,,,,,,,,,,,
,,5f56253b816a8722d0af90f5,,2023-12-16_15h22.56.542,bars,2023.2.3,Win32,29.94011976,,,,,,50.0375,51.0357,51.0357,51.5354,51.5355,51.7696,51.7697,37,37,53.3693,space,1.5652,,53.3693,54.0031,space,0.5973,,0,8,8,9,1,20,bars/single009.png,bars/mask006.png,,,,,,,,,,,,,,,,,,,,,,,,,,,,,,,,,,,,,,,,,,,,,,,,,,,,,,,,,,,,,,,,
,,5f56253b816a8722d0af90f5,,2023-12-16_15h22.56.542,bars,2023.2.3,Win32,29.94011976,,,,,,54.0044,55.0022,55.0023,55.5024,55.5025,55.7358,55.7358,171,171,56.5689,space,0.8109,,56.5691,57.5361,space,0.9537,,0,9,9,6,1,175,bars/single006.png,bars/mask005.png,,,,,,,,,,,,,,,,,,,,,,,,,,,,,,,,,,,,,,,,,,,,,,,,,,,,,,,,,,,,,,,,
,,5f56253b816a8722d0af90f5,,2023-12-16_15h22.56.542,bars,2023.2.3,Win32,29.94011976,,,,,,,,,,,,,,,,,,,,,,,,,,,,,,,,57.5379,70.1353,space,12.5524,,,,,,,,,,,,,,,,,,,,,,,,,,,,,,,,,,,,,,,,,,,,,,,,,,,,,,,,,,,,
,,5f56253b816a8722d0af90f5,,2023-12-16_15h22.56.542,bars,2023.2.3,Win32,29.94011976,,,,,,,,,,,,,,,,,,,,,,,,,,,,,,,,,,,,,70.1616,71.3999,left,1.1992,,71.4002,9,1,72.3999,0,0,0,0,1,9,1,9,2,,,,,,,,,,,,,,,,,,,,,,,,,,,,,,,,,,,,,,,,,
,,5f56253b816a8722d0af90f5,,2023-12-16_15h22.56.542,bars,2023.2.3,Win32,29.94011976,,,,,,,,,,,,,,,,,,,,,,,,,,,,,,,,,,,,,72.401,73.0999,right,0.6687,,73.0999,1,2,74.0991,0,1,1,1,1,10,0,10,1,,,,,,,,,,,,,,,,,,,,,,,,,,,,,,,,,,,,,,,,,
,,5f56253b816a8722d0af90f5,,2023-12-16_15h22.56.542,bars,2023.2.3,Win32,29.94011976,,,,,,,,,,,,,,,,,,,,,,,,,,,,,,,,,,,,,74.0995,74.4326,left,0.3047,,74.4326,10,1,75.4328,0,2,2,2,1,10,2,10,2,,,,,,,,,,,,,,,,,,,,,,,,,,,,,,,,,,,,,,,,,
,,5f56253b816a8722d0af90f5,,2023-12-16_15h22.56.542,bars,2023.2.3,Win32,29.94011976,,,,,,,,,,,,,,,,,,,,,,,,,,,,,,,,,,,,,75.4338,75.7661,left,0.3192,,75.7663,7,1,76.7656,0,3,3,3,1,8,4,7,3,,,,,,,,,,,,,,,,,,,,,,,,,,,,,,,,,,,,,,,,,
,,5f56253b816a8722d0af90f5,,2023-12-16_15h22.56.542,bars,2023.2.3,Win32,29.94011976,,,,,,,,,,,,,,,,,,,,,,,,,,,,,,,,,,,,,76.7666,77.066,left,0.2811,,77.066,5,1,78.0654,0,4,4,4,1,6,2,5,1,,,,,,,,,,,,,,,,,,,,,,,,,,,,,,,,,,,,,,,,,
,,5f56253b816a8722d0af90f5,,2023-12-16_15h22.56.542,bars,2023.2.3,Win32,29.94011976,,,,,,,,,,,,,,,,,,,,,,,,,,,,,,,,,,,,,78.0662,78.0992,left,0.0057,,78.0993,4,1,79.0989,0,5,5,5,1,4,4,4,4,,,,,,,,,,,,,,,,,,,,,,,,,,,,,,,,,,,,,,,,,
,,5f56253b816a8722d0af90f5,,2023-12-16_15h22.56.542,bars,2023.2.3,Win32,29.94011976,,,,,,,,,,,,,,,,,,,,,,,,,,,,,,,,,,,,,79.0999,79.1991,right,0.0715,,79.1993,2,2,80.1986,0,6,6,6,1,2,2,1,2,,,,,,,,,,,,,,,,,,,,,,,,,,,,,,,,,,,,,,,,,
,,5f56253b816a8722d0af90f5,,2023-12-16_15h22.56.542,bars,2023.2.3,Win32,29.94011976,,,,,,,,,,,,,,,,,,,,,,,,,,,,,,,,,,,,,80.1994,80.2323,left,0.0125,,80.2325,0,1,81.2311,0,7,7,7,1,0,0,0,1,,,,,,,,,,,,,,,,,,,,,,,,,,,,,,,,,,,,,,,,,
,,5f56253b816a8722d0af90f5,,2023-12-16_15h22.56.542,bars,2023.2.3,Win32,29.94011976,,,,,,,,,,,,,,,,,,,,,,,,,,,,,,,,,,,,,81.2315,81.4651,right,0.2006,,81.4652,0,2,82.4646,0,8,8,8,1,0,2,1,0,,,,,,,,,,,,,,,,,,,,,,,,,,,,,,,,,,,,,,,,,
,,5f56253b816a8722d0af90f5,,2023-12-16_15h22.56.542,bars,2023.2.3,Win32,29.94011976,,,,,,,,,,,,,,,,,,,,,,,,,,,,,,,,,,,,,82.4655,82.631,left,0.1359,,82.631,2,1,83.6313,0,9,9,9,1,2,4,2,3,,,,,,,,,,,,,,,,,,,,,,,,,,,,,,,,,,,,,,,,,
,,5f56253b816a8722d0af90f5,,2023-12-16_15h22.56.542,bars,2023.2.3,Win32,29.94011976,,,,,,,,,,,,,,,,,,,,,,,,,,,,,,,,,,,,,83.6321,83.765,right,0.1201,,83.7651,3,2,84.7644,0,10,10,10,1,0,2,0,3,,,,,,,,,,,,,,,,,,,,,,,,,,,,,,,,,,,,,,,,,
,,5f56253b816a8722d0af90f5,,2023-12-16_15h22.56.542,bars,2023.2.3,Win32,29.94011976,,,,,,,,,,,,,,,,,,,,,,,,,,,,,,,,,,,,,84.7652,84.7981,right,0.01,,84.7982,3,2,85.7971,0,11,11,11,1,0,4,0,3,,,,,,,,,,,,,,,,,,,,,,,,,,,,,,,,,,,,,,,,,
,,5f56253b816a8722d0af90f5,,2023-12-16_15h22.56.542,bars,2023.2.3,Win32,29.94011976,,,,,,,,,,,,,,,,,,,,,,,,,,,,,,,,,,,,,85.7977,86.1312,left,0.2981,,86.1313,1,1,87.131,0,12,12,12,1,2,6,1,6,,,,,,,,,,,,,,,,,,,,,,,,,,,,,,,,,,,,,,,,,
,,5f56253b816a8722d0af90f5,,2023-12-16_15h22.56.542,bars,2023.2.3,Win32,29.94011976,,,,,,,,,,,,,,,,,,,,,,,,,,,,,,,,,,,,,87.1317,87.3316,right,0.182,,87.3317,3,2,88.3307,0,13,13,13,1,0,4,1,3,,,,,,,,,,,,,,,,,,,,,,,,,,,,,,,,,,,,,,,,,
,,5f56253b816a8722d0af90f5,,2023-12-16_15h22.56.542,bars,2023.2.3,Win32,29.94011976,,,,,,,,,,,,,,,,,,,,,,,,,,,,,,,,,,,,,88.3315,88.3643,right,0.0013,,88.3644,7,2,89.3635,0,14,14,14,1,2,6,2,7,,,,,,,,,,,,,,,,,,,,,,,,,,,,,,,,,,,,,,,,,
,,5f56253b816a8722d0af90f5,,2023-12-16_15h22.56.542,bars,2023.2.3,Win32,29.94011976,,,,,,,,,,,,,,,,,,,,,,,,,,,,,,,,,,,,,89.3646,89.5972,right,0.212,,89.5975,9,2,90.5968,0,15,15,15,1,4,8,3,9,,,,,,,,,,,,,,,,,,,,,,,,,,,,,,,,,,,,,,,,,
,,5f56253b816a8722d0af90f5,,2023-12-16_15h22.56.542,bars,2023.2.3,Win32,29.94011976,,,,,,,,,,,,,,,,,,,,,,,,,,,,,,,,,,,,,90.5976,90.8974,right,0.2737,,90.8975,7,2,91.8963,0,16,16,16,1,6,6,7,7,,,,,,,,,,,,,,,,,,,,,,,,,,,,,,,,,,,,,,,,,
,,5f56253b816a8722d0af90f5,,2023-12-16_15h22.56.542,bars,2023.2.3,Win32,29.94011976,,,,,,,,,,,,,,,,,,,,,,,,,,,,,,,,,,,,,91.8969,92.1969,right,0.2893,,92.197,5,2,93.1963,0,17,17,17,1,8,4,9,5,,,,,,,,,,,,,,,,,,,,,,,,,,,,,,,,,,,,,,,,,
,,5f56253b816a8722d0af90f5,,2023-12-16_15h22.56.542,bars,2023.2.3,Win32,29.94011976,,,,,,,,,,,,,,,,,,,,,,,,,,,,,,,,,,,,,93.1972,93.2293,left,0.0083,,93.2293,5,1,94.23,0,18,18,18,1,6,2,5,1,,,,,,,,,,,,,,,,,,,,,,,,,,,,,,,,,,,,,,,,,
,,5f56253b816a8722d0af90f5,,2023-12-16_15h22.56.542,bars,2023.2.3,Win32,29.94011976,,,,,,,,,,,,,,,,,,,,,,,,,,,,,,,,,,,,,94.2312,94.4961,left,0.23,,94.4962,7,1,95.4961,0,19,19,19,1,8,0,7,0,,,,,,,,,,,,,,,,,,,,,,,,,,,,,,,,,,,,,,,,,
,,5f56253b816a8722d0af90f5,,2023-12-16_15h22.56.542,bars,2023.2.3,Win32,29.94011976,,,,,,,,,,,,,,,,,,,,,,,,,,,,,,,,,,,,,,,,,,,,,,,,,,,,,,,95.4978,121.3929,space,25.8701,,,,,,,,,,,,,,,,,,,,,,,,,,,,,,,,,,,,,
,,5f56253b816a8722d0af90f5,,2023-12-16_15h22.56.542,bars,2023.2.3,Win32,29.94011976,,,,,,122.0331,123.0247,,,123.5255,123.7588,,41,41,,,,,,,,,,,,,,,,bars/047.png,bars/mask008.png,,,,,,,,,,,,0,1,,,,,,,1,6,1,7,,,,,,121.4131,122.0253,space,0.577,,123.0254,123.5255,123.7595,126.359,space,2.5549,,126.3599,26,29,127.3581,127.3587,133.4583,space,6.0507,,0,0,0,0,1,15,70,,,,,,,,
,,5f56253b816a8722d0af90f5,,2023-12-16_15h22.56.542,bars,2023.2.3,Win32,29.94011976,,,,,,133.4792,134.4566,,,134.9565,135.1901,,75,75,,,,,,,,,,,,,,,,bars/028.png,bars/mask009.png,,,,,,,,,,,,0,1,,,,,,,3,4,2,5,,,,,,,,,,,134.4567,134.9564,135.1903,138.1224,space,2.8983,,138.1224,30,45,139.1227,139.1228,141.8225,space,2.6458,,0,1,1,1,1,45,120,,,,,,,,
,,5f56253b816a8722d0af90f5,,2023-12-16_15h22.56.542,bars,2023.2.3,Win32,29.94011976,,,,,,141.8471,142.855,,,143.3555,143.588,,137,137,,,,,,,,,,,,,,,,bars/031.png,bars/mask001.png,,,,,,,,,,,,1,1,,,,,,,1,6,2,5,,,,,,,,,,,142.8551,143.3554,143.5881,146.1543,space,2.5532,,146.1545,17,78,147.1547,147.1548,149.1876,space,1.9753,,0,2,2,2,1,120,35,,,,,,,,
,,5f56253b816a8722d0af90f5,,2023-12-16_15h22.56.542,bars,2023.2.3,Win32,29.94011976,,,,,,149.1885,150.1871,,,150.6875,150.9208,,159,159,,,,,,,,,,,,,,,,bars/036.png,bars/mask004.png,,,,,,,,,,,,2,1,,,,,,,3,4,3,5,,,,,,,,,,,150.1871,150.6874,150.9209,153.0528,space,2.0991,,153.0529,14,41,154.053,154.0531,154.3871,space,0.3062,,0,3,3,3,1,145,20,,,,,,,,
,,5f56253b816a8722d0af90f5,,2023-12-16_15h22.56.542,bars,2023.2.3,Win32,29.94011976,,,,,,154.3879,155.3863,,,155.8866,156.1203,,75,75,,,,,,,,,,,,,,,,bars/029.png,bars/mask003.png,,,,,,,,,,,,1,1,,,,,,,1,6,1,6,,,,,,,,,,,155.3865,155.8864,156.1204,158.0533,space,1.898,,158.0534,15,30,159.053,159.053,160.2862,space,1.2023,,0,4,4,4,1,90,45,,,,,,,,
,,5f56253b816a8722d0af90f5,,2023-12-16_15h22.56.542,bars,2023.2.3,Win32,29.94011976,,,,,,160.2873,161.2849,,,161.7854,162.0186,,153,153,,,,,,,,,,,,,,,,bars/021.png,bars/mask003.png,,,,,,,,,,,,4,1,,,,,,,3,4,4,4,,,,,,,,,,,161.2849,161.7854,162.0187,163.752,space,1.7213,,163.7521,2,83,164.7519,164.752,165.4853,space,0.6928,,0,5,5,5,1,155,70,,,,,,,,
,,5f56253b816a8722d0af90f5,,2023-12-16_15h22.56.542,bars,2023.2.3,Win32,29.94011976,,,,,,165.4864,166.4847,,,166.9848,167.2181,,103,103,,,,,,,,,,,,,,,,bars/032.png,bars/mask005.png,,,,,,,,,,,,1,1,,,,,,,5,6,4,6,,,,,,,,,,,166.4847,166.9847,167.2182,172.6168,space,5.3811,,172.6169,22,83,173.6169,173.617,174.3835,space,0.7187,,0,6,6,6,1,125,20,,,,,,,,
,,5f56253b816a8722d0af90f5,,2023-12-16_15h22.56.542,bars,2023.2.3,Win32,29.94011976,,,,,,174.3842,175.3832,,,175.8838,176.1168,,144,144,,,,,,,,,,,,,,,,bars/010.png,bars/mask009.png,,,,,,,,,,,,3,1,,,,,,,7,4,9,4,,,,,,,,,,,175.3832,175.8836,176.1168,180.2496,space,4.0983,,180.2497,21,89,181.2492,181.2493,181.7824,space,0.4779,,0,7,7,7,1,165,55,,,,,,,,
,,5f56253b816a8722d0af90f5,,2023-12-16_15h22.56.542,bars,2023.2.3,Win32,29.94011976,,,,,,181.7833,182.7821,,,183.2822,183.5153,,157,157,,,,,,,,,,,,,,,,bars/017.png,bars/mask008.png,,,,,,,,,,,,5,1,,,,,,,9,6,9,7,,,,,,,,,,,182.7823,183.2822,183.5154,185.2155,space,1.6873,,185.2158,12,68,186.2151,186.2151,191.3813,space,5.1435,,0,8,8,8,1,145,45,,,,,,,,
,,5f56253b816a8722d0af90f5,,2023-12-16_15h22.56.542,bars,2023.2.3,Win32,29.94011976,,,,,,191.3903,192.381,,,192.8801,193.1142,,60,60,,,,,,,,,,,,,,,,bars/030.png,bars/mask000.png,,,,,,,,,,,,4,2,,,,,,,10,4,10,5,,,,,,,,,,,192.3811,192.88,193.1143,194.2804,space,1.1473,,194.2804,80,5,195.2804,195.2805,198.5794,space,3.2531,,0,9,9,9,1,140,65,,,,,,,,
,,5f56253b816a8722d0af90f5,,2023-12-16_15h22.56.542,bars,2023.2.3,Win32,29.94011976,,,,,,198.5978,199.5795,,,200.0795,200.3124,,28,208,,,,,,,,,,,,,,,,bars/031.png,bars/mask002.png,,,,,,,,,,,,2,2,,,,,,,8,2,9,3,,,,,,,,,,,199.5796,200.0794,200.3125,205.2788,space,4.9446,,205.2789,88,7,206.2787,206.2788,207.4454,space,1.1252,,0,10,10,10,1,120,35,,,,,,,,
,,5f56253b816a8722d0af90f5,,2023-12-16_15h22.56.542,bars,2023.2.3,Win32,29.94011976,,,,,,207.4466,208.4442,,,208.9449,209.178,,176,-4,,,,,,,,,,,,,,,,bars/012.png,bars/mask007.png,,,,,,,,,,,,2,2,,,,,,,6,4,6,5,,,,,,,,,,,208.4443,208.9448,209.1781,212.9116,space,3.7137,,212.9117,86,19,213.9104,213.9104,217.977,space,4.0329,,0,11,11,11,1,90,15,,,,,,,,
,,5f56253b816a8722d0af90f5,,2023-12-16_15h22.56.542,bars,2023.2.3,Win32,29.94011976,,,,,,217.9998,218.9763,,,219.4765,219.7094,,92,92,,,,,,,,,,,,,,,,bars/011.png,bars/mask000.png,,,,,,,,,,,,4,2,,,,,,,8,6,8,5,,,,,,,,,,,218.9764,219.4764,219.7095,224.1428,space,4.4177,,224.1429,68,7,225.1423,225.1424,227.8752,space,2.6957,,0,12,12,12,1,160,85,,,,,,,,
,,5f56253b816a8722d0af90f5,,2023-12-16_15h22.56.542,bars,2023.2.3,Win32,29.94011976,,,,,,227.8962,228.8747,,,229.3744,229.6085,,89,89,,,,,,,,,,,,,,,,bars/002.png,bars/mask006.png,,,,,,,,,,,,3,2,,,,,,,6,4,5,4,,,,,,,,,,,228.8748,229.3743,229.6085,232.8414,space,3.2072,,232.8415,41,4,233.8405,233.8406,235.1403,space,1.264,,0,13,13,13,1,130,85,,,,,,,,
,,5f56253b816a8722d0af90f5,,2023-12-16_15h22.56.542,bars,2023.2.3,Win32,29.94011976,,,,,,235.1409,236.1398,,,236.6405,236.8739,,0,0,,,,,,,,,,,,,,,,bars/045.png,bars/mask004.png,,,,,,,,,,,,3,2,,,,,,,8,6,7,5,,,,,,,,,,,236.1399,236.6404,236.874,239.4404,space,2.5312,,239.4405,80,10,240.4398,240.4399,243.8726,space,3.3749,,0,14,14,14,1,100,10,,,,,,,,
,,5f56253b816a8722d0af90f5,,2023-12-16_15h22.56.542,bars,2023.2.3,Win32,29.94011976,,,,,,243.8962,244.8722,,,245.3723,245.6049,,94,94,,,,,,,,,,,,,,,,bars/041.png,bars/mask008.png,,,,,,,,,,,,6,2,,,,,,,6,8,6,9,,,,,,,,,,,244.8722,245.3723,245.605,248.905,space,3.2915,,248.9051,74,9,249.9049,249.905,250.7719,space,0.819,,0,15,15,15,1,20,85,,,,,,,,
,,5f56253b816a8722d0af90f5,,2023-12-16_15h22.56.542,bars,2023.2.3,Win32,29.94011976,,,,,,250.7727,251.771,,,252.2715,252.5044,,77,77,,,,,,,,,,,,,,,,bars/038.png,bars/mask006.png,,,,,,,,,,,,8,2,,,,,,,8,10,9,10,,,,,,,,,,,251.7711,252.2714,252.5045,254.5713,space,2.04,,254.5714,88,7,255.5704,255.5704,256.4045,space,0.8145,,0,16,16,16,1,165,70,,,,,,,,
,,5f56253b816a8722d0af90f5,,2023-12-16_15h22.56.542,bars,2023.2.3,Win32,29.94011976,,,,,,256.4054,257.4039,,,257.9039,258.1369,,3,183,,,,,,,,,,,,,,,,bars/012.png,bars/mask001.png,,,,,,,,,,,,5,2,,,,,,,6,10,5,8,,,,,,,,,,,257.404,257.9038,258.137,260.1031,space,1.93,,260.1032,87,12,261.1032,261.1033,262.6694,space,1.5487,,0,17,17,17,1,90,15,,,,,,,,
,,5f56253b816a8722d0af90f5,,2023-12-16_15h22.56.542,bars,2023.2.3,Win32,29.94011976,,,,,,262.6699,263.6693,,,264.1696,264.4028,,3,3,,,,,,,,,,,,,,,,bars/015.png,bars/mask009.png,,,,,,,,,,,,2,2,,,,,,,4,10,4,10,,,,,,,,,,,263.6693,264.1695,264.4028,266.402,space,1.9682,,266.4021,73,23,267.4019,267.4019,268.2022,space,0.7642,,0,18,18,18,1,110,160,,,,,,,,
,,5f56253b816a8722d0af90f5,,2023-12-16_15h22.56.542,bars,2023.2.3,Win32,29.94011976,,,,,,268.2033,269.2021,,,269.7021,269.9351,,125,125,,,,,,,,,,,,,,,,bars/004.png,bars/mask007.png,,,,,,,,,,,,8,2,,,,,,,6,8,6,8,,,,,,,,,,,269.2021,269.702,269.9352,272.1014,space,2.1511,,272.1016,80,0,273.1013,273.1013,273.9015,space,0.7558,,0,19,19,19,1,25,125,,,,,,,,
,,5f56253b816a8722d0af90f5,,2023-12-16_15h22.56.542,bars,2023.2.3,Win32,29.94011976,,,,,,273.9026,274.9007,,,275.4012,275.6342,,17,17,,,,,,,,,,,,,,,,bars/032.png,bars/mask002.png,,,,,,,,,,,,5,2,,,,,,,4,6,4,6,,,,,,,,,,,274.9007,275.4011,275.6342,278.7012,space,3.0395,,278.7014,72,3,279.6998,279.6999,280.4342,space,0.6924,,0,20,20,20,1,125,20,,,,,,,,
,,5f56253b816a8722d0af90f5,,2023-12-16_15h22.56.542,bars,2023.2.3,Win32,29.94011976,,,,,,280.435,281.4335,,,281.9327,282.1662,,30,30,,,,,,,,,,,,,,,,bars/045.png,bars/mask009.png,,,,,,,,,,,,3,2,,,,,,,2,8,3,8,,,,,,,,,,,281.4336,281.9327,282.1663,284.7336,space,2.5388,,284.7337,70,20,285.7327,285.7327,291.1318,space,5.3408,,0,21,21,21,1,100,10,,,,,,,,
,,5f56253b816a8722d0af90f5,,2023-12-16_15h22.56.542,bars,2023.2.3,Win32,29.94011976,,,,,,291.1533,292.1314,,,292.631,292.8647,,37,217,,,,,,,,,,,,,,,,bars/007.png,bars/mask000.png,,,,,,,,,,,,3,2,,,,,,,4,6,5,8,,,,,,,,,,,292.1315,292.631,292.8647,296.3316,space,3.4446,,296.3318,42,18,297.3303,297.3304,300.3306,space,2.9474,,0,22,22,22,1,175,55,,,,,,,,
,,5f56253b816a8722d0af90f5,,2023-12-16_15h22.56.542,bars,2023.2.3,Win32,29.94011976,,,,,,300.35,301.3299,,,301.8301,302.0628,,105,105,,,,,,,,,,,,,,,,bars/023.png,bars/mask001.png,,,,,,,,,,,,6,2,,,,,,,6,8,4,9,,,,,,,,,,,301.3299,301.83,302.0628,303.2963,space,1.2062,,303.2965,85,10,304.2958,304.2958,304.8959,space,0.5815,,0,23,23,23,1,20,115,,,,,,,,
,,5f56253b816a8722d0af90f5,,2023-12-16_15h22.56.542,bars,2023.2.3,Win32,29.94011976,,,,,,304.8964,305.8954,,,306.3955,306.6286,,41,41,,,,,,,,,,,,,,,,bars/025.png,bars/mask001.png,,,,,,,,,,,,8,2,,,,,,,8,6,8,8,,,,,,,,,,,305.8955,306.3955,306.6286,309.3288,space,2.69,,309.3289,64,1,310.3287,310.3288,317.7939,space,7.4094,,0,24,24,24,1,105,40,,,,,,,,
,,5f56253b816a8722d0af90f5,,2023-12-16_15h22.56.542,bars,2023.2.3,Win32,29.94011976,,,,,,317.8129,318.7937,,,319.2938,319.5268,,88,88,,,,,,,,,,,,,,,,bars/035.png,bars/mask000.png,,,,,,,,,,,,1,2,,,,,,,6,8,7,8,,,,,,,,,,,318.7939,319.2937,319.5269,321.493,space,1.9418,,321.493,87,28,322.4932,322.4933,333.925,space,11.3808,,0,25,25,25,1,175,60,,,,,,,,
,,5f56253b816a8722d0af90f5,,2023-12-16_15h22.56.542,bars,2023.2.3,Win32,29.94011976,,,,,,333.9444,334.9245,,,335.4243,335.6578,,1,181,,,,,,,,,,,,,,,,bars/012.png,bars/mask001.png,,,,,,,,,,,,3,2,,,,,,,4,6,5,5,,,,,,,,,,,334.9245,335.4242,335.6578,338.8234,space,3.1324,,338.8236,89,14,339.8234,339.8234,340.0573,space,0.1953,,0,26,26,26,1,90,15,,,,,,,,
,,5f56253b816a8722d0af90f5,,2023-12-16_15h22.56.542,bars,2023.2.3,Win32,29.94011976,,,,,,340.0584,341.0566,,,341.5568,341.7901,,43,43,,,,,,,,,,,,,,,,bars/017.png,bars/mask007.png,,,,,,,,,,,,3,2,,,,,,,6,4,6,3,,,,,,,,,,,341.0567,341.5567,341.7902,343.2565,space,1.4433,,343.2566,78,2,344.2563,344.2563,345.3231,space,1.0355,,0,27,27,27,1,145,45,,,,,,,,
,,5f56253b816a8722d0af90f5,,2023-12-16_15h22.56.542,bars,2023.2.3,Win32,29.94011976,,,,,,345.3241,346.3226,,,346.8228,347.0556,,102,102,,,,,,,,,,,,,,,,bars/001.png,bars/mask005.png,,,,,,,,,,,,1,2,,,,,,,8,2,6,2,,,,,,,,,,,346.3227,346.8227,347.0557,349.0223,space,1.939,,349.0225,28,17,350.0222,350.0223,361.1873,space,11.1138,,0,28,28,28,1,130,85,,,,,,,,
,,5f56253b816a8722d0af90f5,,2023-12-16_15h22.56.542,bars,2023.2.3,Win32,29.94011976,,,,,,361.2024,362.1868,,,362.6866,362.9202,,153,153,,,,,,,,,,,,,,,,bars/015.png,bars/mask004.png,,,,,,,,,,,,0,2,,,,,,,6,0,7,0,,,,,,,,,,,362.1868,362.6866,362.9202,365.6532,space,2.6983,,365.6535,43,7,366.6528,366.6529,368.4525,space,1.7489,,0,29,29,29,1,110,160,,,,,,,,
,,5f56253b816a8722d0af90f5,,2023-12-16_15h22.56.542,bars,2023.2.3,Win32,29.94011976,,,,,,368.4531,369.4528,,,369.9523,370.1854,,117,117,,,,,,,,,,,,,,,,bars/004.png,bars/mask009.png,,,,,,,,,,,,0,2,,,,,,,8,0,9,0,,,,,,,,,,,369.4528,369.9522,370.1854,371.7183,space,1.5171,,371.7184,88,8,372.7184,372.7185,375.9185,space,3.1774,,0,30,30,30,1,25,125,,,,,,,,
,,5f56253b816a8722d0af90f5,,2023-12-16_15h22.56.542,bars,2023.2.3,Win32,29.94011976,,,,,,375.9388,376.918,,,377.418,377.6515,,106,106,,,,,,,,,,,,,,,,bars/043.png,bars/mask003.png,,,,,,,,,,,,0,2,,,,,,,10,0,10,2,,,,,,,,,,,376.918,377.4179,377.6515,380.2509,space,2.568,,380.251,76,24,381.2507,381.2508,384.35,space,3.071,,0,31,31,31,1,30,130,,,,,,,,
,,5f56253b816a8722d0af90f5,,2023-12-16_15h22.56.542,bars,2023.2.3,Win32,29.94011976,,,,,,384.3508,385.3498,,,385.8501,386.083,,143,143,,,,,,,,,,,,,,,,bars/044.png,bars/mask002.png,,,,,,,,,,,,0,2,,,,,,,10,0,9,0,,,,,,,,,,,385.3498,385.8501,386.0831,390.7824,space,4.6723,,390.7825,68,12,391.7824,391.7824,394.7486,space,2.9215,,0,32,32,32,1,75,155,,,,,,,,
,,5f56253b816a8722d0af90f5,,2023-12-16_15h22.56.542,bars,2023.2.3,Win32,29.94011976,,,,,,394.7496,395.7482,,,396.2483,396.4819,,102,102,,,,,,,,,,,,,,,,bars/020.png,bars/mask000.png,,,,,,,,,,,,6,1,,,,,,,10,0,10,1,,,,,,,,,,,395.7482,396.2482,396.4819,398.7145,space,2.2011,,398.7146,13,68,399.7141,399.7142,403.2811,space,3.5204,,0,33,33,33,1,115,170,,,,,,,,
,,5f56253b816a8722d0af90f5,,2023-12-16_15h22.56.542,bars,2023.2.3,Win32,29.94011976,,,,,,403.3049,404.2808,,,404.7807,405.0138,,148,148,,,,,,,,,,,,,,,,bars/000.png,bars/mask005.png,,,,,,,,,,,,2,2,,,,,,,8,2,9,2,,,,,,,,,,,404.2808,404.7805,405.014,406.8802,space,1.8418,,406.8803,72,3,407.8797,407.8799,408.3131,space,0.3994,,0,34,34,34,1,40,145,,,,,,,,
,,5f56253b816a8722d0af90f5,,2023-12-16_15h22.56.542,bars,2023.2.3,Win32,29.94011976,,,,,,408.314,409.3129,,,409.8129,410.0462,,14,14,,,,,,,,,,,,,,,,bars/045.png,bars/mask002.png,,,,,,,,,,,,4,2,,,,,,,10,4,10,5,,,,,,,,,,,409.3131,409.8128,410.0463,414.0456,space,3.9724,,414.0457,86,4,415.0452,415.0452,430.6762,space,15.5938,,0,35,35,35,1,100,10,,,,,,,,
,,5f56253b816a8722d0af90f5,,2023-12-16_15h22.56.542,bars,2023.2.3,Win32,29.94011976,,,,,,430.7002,431.6763,,,432.1759,432.4093,,10,10,,,,,,,,,,,,,,,,bars/011.png,bars/mask004.png,,,,,,,,,,,,0,1,,,,,,,8,6,7,5,,,,,,,,,,,431.6763,432.1759,432.4094,443.7413,space,11.299,,443.7414,30,75,444.7408,444.7409,446.1409,space,1.3493,,0,36,36,36,1,160,85,,,,,,,,
,,5f56253b816a8722d0af90f5,,2023-12-16_15h22.56.542,bars,2023.2.3,Win32,29.94011976,,,,,,446.142,447.1405,,,447.6396,447.8739,,78,78,,,,,,,,,,,,,,,,bars/034.png,bars/mask006.png,,,,,,,,,,,,5,2,,,,,,,6,8,7,9,,,,,,,,,,,447.1409,447.6395,447.874,449.3738,space,1.4855,,449.3739,47,13,450.3726,450.3726,451.1395,space,0.7382,,0,37,37,37,1,125,65,,,,,,,,
,,5f56253b816a8722d0af90f5,,2023-12-16_15h22.56.542,bars,2023.2.3,Win32,29.94011976,,,,,,451.1401,452.1396,,,452.6389,452.8729,,44,44,,,,,,,,,,,,,,,,bars/025.png,bars/mask000.png,,,,,,,,,,,,6,2,,,,,,,8,6,8,7,,,,,,,,,,,452.1398,452.6388,452.873,457.2055,space,4.3062,,457.2056,61,4,458.2053,458.2053,469.2706,space,11.0138,,0,38,38,38,1,105,40,,,,,,,,
,,5f56253b816a8722d0af90f5,,2023-12-16_15h22.56.542,bars,2023.2.3,Win32,29.94011976,,,,,,469.2952,470.3034,,,470.8034,471.0366,,155,155,,,,,,,,,,,,,,,,bars/012.png,bars/mask005.png,,,,,,,,,,,,0,2,,,,,,,10,4,9,3,,,,,,,,,,,470.3036,470.8033,471.0367,485.3676,space,14.3228,,485.3676,65,40,486.3675,486.3676,528.6946,space,42.2719,,0,39,39,39,1,90,15,,,,,,,,
,,5f56253b816a8722d0af90f5,,2023-12-16_15h22.56.542,bars,2023.2.3,Win32,29.94011976,,,,,,528.7201,529.7273,,,530.2272,530.4601,,83,83,,,,,,,,,,,,,,,,bars/038.png,bars/mask002.png,,,,,,,,,,,,2,2,,,,,,,10,2,10,3,,,,,,,,,,,529.7274,530.2271,530.4602,532.793,space,2.3235,,532.793,82,13,533.7931,533.7932,534.759,space,0.9163,,0,40,40,40,1,165,70,,,,,,,,
,,5f56253b816a8722d0af90f5,,2023-12-16_15h22.56.542,bars,2023.2.3,Win32,29.94011976,,,,,,534.7593,535.7597,,,536.26,536.4927,,80,80,,,,,,,,,,,,,,,,bars/028.png,bars/mask003.png,,,,,,,,,,,,0,1,,,,,,,10,0,10,0,,,,,,,,,,,535.7597,536.2598,536.4928,662.4399,space,125.9225,,662.4402,35,40,663.4391,663.4391,666.0727,space,2.5915,,0,41,41,41,1,45,120,,,,,,,,
,,5f56253b816a8722d0af90f5,,2023-12-16_15h22.56.542,bars,2023.2.3,Win32,29.94011976,,,,,,666.0739,667.0722,,,667.5714,667.8049,,13,13,,,,,,,,,,,,,,,,bars/014.png,bars/mask004.png,,,,,,,,,,,,1,2,,,,,,,10,2,10,2,,,,,,,,,,,667.0723,667.5714,667.8049,671.1721,space,3.3385,,671.1722,67,13,672.1715,672.1716,673.3048,space,1.0976,,0,42,42,42,1,80,0,,,,,,,,
,,5f56253b816a8722d0af90f5,,2023-12-16_15h22.56.542,bars,2023.2.3,Win32,29.94011976,,,,,,673.3058,674.3045,,,674.8043,675.0375,,74,74,,,,,,,,,,,,,,,,bars/017.png,bars/mask008.png,,,,,,,,,,,,0,2,,,,,,,8,0,8,0,,,,,,,,,,,674.3045,674.8043,675.0375,678.3701,space,3.3003,,678.3701,71,29,679.3701,679.3701,702.0993,space,22.6779,,0,43,43,43,1,145,45,,,,,,,,
,,5f56253b816a8722d0af90f5,,2023-12-16_15h22.56.542,bars,2023.2.3,Win32,29.94011976,,,,,,702.108,703.0993,,,703.5998,703.8331,,25,205,,,,,,,,,,,,,,,,bars/031.png,bars/mask008.png,,,,,,,,,,,,0,2,,,,,,,6,0,6,0,,,,,,,,,,,703.0993,703.5998,703.8332,706.8661,space,3.0152,,706.8662,85,10,707.8652,707.8653,721.3304,space,13.4168,,0,44,44,44,1,120,35,,,,,,,,
,,5f56253b816a8722d0af90f5,,2023-12-16_15h22.56.542,bars,2023.2.3,Win32,29.94011976,,,,,,721.3465,722.3302,,,722.8304,723.0632,,9,9,,,,,,,,,,,,,,,,bars/032.png,bars/mask001.png,,,,,,,,,,,,0,2,,,,,,,4,0,4,0,,,,,,,,,,,722.3303,722.8303,723.0633,726.1627,space,3.0878,,726.1628,64,11,727.1624,727.1624,728.0955,space,0.8962,,0,45,45,45,1,125,20,,,,,,,,
,,5f56253b816a8722d0af90f5,,2023-12-16_15h22.56.542,bars,2023.2.3,Win32,29.94011976,,,,,,728.0961,729.095,,,729.5959,729.8291,,9,9,,,,,,,,,,,,,,,,bars/040.png,bars/mask000.png,,,,,,,,,,,,2,2,,,,,,,6,2,4,2,,,,,,,,,,,729.095,729.5957,729.8292,733.1613,space,3.311,,733.1613,49,4,734.1605,734.1606,734.7612,space,0.563,,0,46,46,46,1,140,5,,,,,,,,
,,5f56253b816a8722d0af90f5,,2023-12-16_15h22.56.542,bars,2023.2.3,Win32,29.94011976,,,,,,734.7619,735.761,,,736.2613,736.4944,,96,96,,,,,,,,,,,,,,,,bars/027.png,bars/mask008.png,,,,,,,,,,,,2,1,,,,,,,4,4,4,4,,,,,,,,,,,735.7612,736.2612,736.4945,737.8936,space,1.3853,,737.8937,14,46,738.8939,738.894,739.494,space,0.5759,,0,47,47,47,1,110,50,,,,,,,,
,,5f56253b816a8722d0af90f5,,2023-12-16_15h22.56.542,bars,2023.2.3,Win32,29.94011976,,,,,,739.4947,740.4939,,,740.9935,741.2267,,49,49,,,,,,,,,,,,,,,,bars/031.png,bars/mask001.png,,,,,,,,,,,,3,2,,,,,,,6,6,7,5,,,,,,,,,,,740.4939,740.9935,741.2268,741.9937,space,0.755,,741.9938,71,14,742.993,742.9931,743.0264,space,0.0009,,0,48,48,48,1,120,35,,,,,,,,
,,5f56253b816a8722d0af90f5,,2023-12-16_15h22.56.542,bars,2023.2.3,Win32,29.94011976,,,,,,743.0271,744.0259,,,744.5262,744.7596,,107,107,,,,,,,,,,,,,,,,bars/016.png,bars/mask000.png,,,,,,,,,,,,0,2,,,,,,,8,8,9,8,,,,,,,,,,,744.026,744.5261,744.7596,745.1596,space,0.3742,,745.1597,67,58,746.1593,746.1596,746.4261,space,0.2389,,0,49,49,49,1,40,165,,,,,,,,
,,5f56253b816a8722d0af90f5,,2023-12-16_15h22.56.542,bars,2023.2.3,Win32,29.94011976,,,,,,,,,,,,,,,,,,,,,,,,,,,,,,,,,,,,,,,,,,,,,,,,,,,,,,,,,,,,,,,,,,,,,,,,,,,,,,,,,,,,,,,,746.4276,806.4176,0,0,0,4,1,sequence_tables/blk034.csv
,,5f56253b816a8722d0af90f5,,2023-12-16_15h22.56.542,bars,2023.2.3,Win32,29.94011976,,,,,,813.8695,814.8482,,,815.3487,815.5821,,12,12,,,,,,,,,,,,,,,,bars/012.png,bars/mask004.png,,,,,,,,,,,,1,2,,,,,,,8,2,9,1,,,,,,806.4276,813.8485,space,7.4104,,814.8483,815.3486,815.5822,818.881,space,3.2825,,818.8811,78,3,819.8809,819.881,819.9006,,,,0,0,0,0,1,90,15,,,,,,,,
,,5f56253b816a8722d0af90f5,,2023-12-16_15h22.56.542,bars,2023.2.3,Win32,29.94011976,,,,,,819.9009,820.8809,,,821.3807,821.6138,,143,143,,,,,,,,,,,,,,,,bars/026.png,bars/mask000.png,,,,,,,,,,,,0,2,,,,,,,6,4,6,4,,,,,,,,,,,820.8809,821.3806,821.6139,841.9109,space,20.2637,,841.9111,72,58,842.9103,842.9103,842.93,,,,0,1,1,1,1,35,85,,,,,,,,
,,5f56253b816a8722d0af90f5,,2023-12-16_15h22.56.542,bars,2023.2.3,Win32,29.94011976,,,,,,842.9302,843.9102,,,844.4101,844.6441,,95,95,,,,,,,,,,,,,,,,bars/034.png,bars/mask003.png,,,,,,,,,,,,0,2,,,,,,,8,2,8,2,,,,,,,,,,,843.9102,844.4101,844.6441,1061.2761,space,216.6208,,1061.2762,30,30,1062.2759,1062.276,1062.2867,,,,0,2,2,2,1,125,65,,,,,,,,
,,5f56253b816a8722d0af90f5,,2023-12-16_15h22.56.542,bars,2023.2.3,Win32,29.94011976,,,,,,1062.2868,1063.2757,,,1063.7756,1064.009,,98,98,,,,,,,,,,,,,,,,bars/028.png,bars/mask004.png,,,,,,,,,,,,1,2,,,,,,,6,4,5,5,,,,,,,,,,,1063.2758,1063.7755,1064.0092,3338.1493,space,2274.1152,,3338.1495,53,22,3339.1487,3339.1488,3339.1507,,,,0,3,3,3,1,45,120,,,,,,,,
,,5f56253b816a8722d0af90f5,,2023-12-16_15h22.56.542,bars,2023.2.3,Win32,29.94011976,,,,,,3339.1514,3340.1484,,,3340.6487,3340.8818,,113,113,,,,,,,,,,,,,,,,bars/023.png,bars/mask004.png,,,,,,,,,,,,1,2,,,,,,,4,2,5,1,,,,,,,,,,,3340.1484,3340.6485,3340.882,3342.5817,space,1.6748,,3342.5819,87,2,3343.5807,3343.5808,3343.5888,,,,0,4,4,4,1,20,115,,,,,,,,
,,5f56253b816a8722d0af90f5,,2023-12-16_15h22.56.542,bars,2023.2.3,Win32,29.94011976,,,,,,3343.5889,3344.5802,,,3345.0812,3345.3143,,57,57,,,,,,,,,,,,,,,,bars/017.png,bars/mask000.png,,,,,,,,,,,,1,2,,,,,,,2,0,3,2,,,,,,,,,,,3344.5803,3345.0812,3345.3143,3347.2806,space,1.951,,3347.2807,88,12,3348.2802,3348.2803,3348.3,,,,0,5,5,5,1,145,45,,,,,,,,
,,5f56253b816a8722d0af90f5,,2023-12-16_15h22.56.542,bars,2023.2.3,Win32,29.94011976,,,,,,3348.3002,3349.2803,,,3349.7802,3350.0133,,130,130,,,,,,,,,,,,,,,,bars/049.png,bars/mask009.png,,,,,,,,,,,,2,2,,,,,,,0,2,1,3,,,,,,,,,,,3349.2803,3349.7801,3350.0133,3353.8129,space,3.7808,,3353.8131,30,15,3354.8128,3354.8128,3354.8363,,,,0,6,6,6,1,160,115,,,,,,,,
,,5f56253b816a8722d0af90f5,,2023-12-16_15h22.56.542,bars,2023.2.3,Win32,29.94011976,,,,,,3354.8366,3355.8125,,,3356.3126,3356.5455,,12,192,,,,,,,,,,,,,,,,bars/023.png,bars/mask007.png,,,,,,,,,,,,1,1,,,,,,,2,0,2,0,,,,,,,,,,,3355.8125,3356.3126,3356.5456,3358.7788,space,2.2,,3358.779,8,77,3359.7787,3359.7788,3359.803,,,,0,7,7,7,1,20,115,,,,,,,,
,,5f56253b816a8722d0af90f5,,2023-12-16_15h22.56.542,bars,2023.2.3,Win32,29.94011976,,,,,,3359.8032,3360.8116,,,3361.3113,3361.5447,,104,104,,,,,,,,,,,,,,,,bars/037.png,bars/mask007.png,,,,,,,,,,,,2,2,,,,,,,0,2,0,2,,,,,,,,,,,3360.8116,3361.3113,3361.5447,3362.4779,space,0.9033,,3362.4779,46,1,3363.4777,3363.4777,3363.4797,,,,0,8,8,8,1,150,105,,,,,,,,
,,5f56253b816a8722d0af90f5,,2023-12-16_15h22.56.542,bars,2023.2.3,Win32,29.94011976,,,,,,3363.4803,3364.478,,,3364.9778,3365.2107,,142,142,,,,,,,,,,,,,,,,bars/007.png,bars/mask002.png,,,,,,,,,,,,0,1,,,,,,,0,4,0,4,,,,,,,,,,,3364.4782,3364.9777,3365.2107,3368.8774,space,3.6438,,3368.8775,33,87,3369.877,3369.877,3369.8997,,,,0,9,9,9,1,175,55,,,,,,,,
,,5f56253b816a8722d0af90f5,,2023-12-16_15h22.56.542,bars,2023.2.3,Win32,29.94011976,,,,,,3369.8999,3370.8768,,,3371.3765,3371.6099,,151,151,,,,,,,,,,,,,,,,bars/040.png,bars/mask005.png,,,,,,,,,,,,2,1,,,,,,,0,6,3,5,,,,,,,,,,,3370.8768,3371.3764,3371.6099,3373.6096,space,1.9652,,3373.6097,11,34,3374.6092,3374.6092,3374.6106,,,,0,10,10,10,1,140,5,,,,,,,,
,,5f56253b816a8722d0af90f5,,2023-12-16_15h22.56.542,bars,2023.2.3,Win32,29.94011976,,,,,,3374.611,3375.6092,,,3376.1091,3376.3424,,51,51,,,,,,,,,,,,,,,,bars/010.png,bars/mask004.png,,,,,,,,,,,,4,2,,,,,,,2,4,3,5,,,,,,,,,,,3375.6092,3376.1091,3376.3424,3377.8089,space,1.4308,,3377.809,66,4,3378.8086,3378.8086,3378.8119,,,,0,11,11,11,1,165,55,,,,,,,,
,,5f56253b816a8722d0af90f5,,2023-12-16_15h22.56.542,bars,2023.2.3,Win32,29.94011976,,,,,,3378.8125,3379.8086,,,3380.3082,3380.5422,,74,74,,,,,,,,,,,,,,,,bars/010.png,bars/mask004.png,,,,,,,,,,,,2,2,,,,,,,0,6,0,5,,,,,,,,,,,3379.8086,3380.3082,3380.5423,3384.9411,space,4.3879,,3384.9412,89,19,3385.9408,3385.9409,3385.9617,,,,0,12,12,12,1,165,55,,,,,,,,
,,5f56253b816a8722d0af90f5,,2023-12-16_15h22.56.542,bars,2023.2.3,Win32,29.94011976,,,,,,3385.9621,3386.9407,,,3387.4408,3387.6739,,137,137,,,,,,,,,,,,,,,,bars/006.png,bars/mask006.png,,,,,,,,,,,,0,2,,,,,,,2,4,2,4,,,,,,,,,,,3386.9407,3387.4407,3387.6739,3390.3067,space,2.6017,,3390.3068,78,37,3391.3067,3391.3068,3391.3299,,,,0,13,13,13,1,35,100,,,,,,,,
,,5f56253b816a8722d0af90f5,,2023-12-16_15h22.56.542,bars,2023.2.3,Win32,29.94011976,,,,,,3391.33,3392.3069,,,3392.8067,3393.0405,,47,47,,,,,,,,,,,,,,,,bars/036.png,bars/mask003.png,,,,,,,,,,,,1,2,,,,,,,0,6,0,6,,,,,,,,,,,3392.307,3392.8067,3393.0405,3396.6063,space,3.5387,,3396.6064,82,27,3397.6061,3397.6062,3397.6302,,,,0,14,14,14,1,145,20,,,,,,,,
,,5f56253b816a8722d0af90f5,,2023-12-16_15h22.56.542,bars,2023.2.3,Win32,29.94011976,,,,,,3397.6304,3398.6389,,,3399.1395,3399.3715,,46,46,,,,,,,,,,,,,,,,bars/044.png,bars/mask006.png,,,,,,,,,,,,0,1,,,,,,,2,8,1,8,,,,,,,,,,,3398.6389,3399.1394,3399.3716,3401.1724,space,1.7753,,3401.1726,29,71,3402.1719,3402.172,3402.1926,,,,0,15,15,15,1,75,155,,,,,,,,
,,5f56253b816a8722d0af90f5,,2023-12-16_15h22.56.542,bars,2023.2.3,Win32,29.94011976,,,,,,3402.1928,3403.1721,,,3403.6721,3403.905,,77,77,,,,,,,,,,,,,,,,bars/041.png,bars/mask004.png,,,,,,,,,,,,7,2,,,,,,,0,10,0,9,,,,,,,,,,,3403.1721,3403.6721,3403.905,3407.6381,space,3.7121,,3407.6382,57,8,3408.6373,3408.6374,3408.6505,,,,0,16,16,16,1,20,85,,,,,,,,
,,5f56253b816a8722d0af90f5,,2023-12-16_15h22.56.542,bars,2023.2.3,Win32,29.94011976,,,,,,3408.6507,3409.6376,,,3410.1377,3410.3702,,62,62,,,,,,,,,,,,,,,,bars/040.png,bars/mask000.png,,,,,,,,,,,,0,2,,,,,,,0,10,0,10,,,,,,,,,,,3409.6376,3410.1376,3410.3702,3414.0705,space,3.6845,,3414.0706,78,57,3415.07,3415.07,3415.0935,,,,0,17,17,17,1,140,5,,,,,,,,
,,5f56253b816a8722d0af90f5,,2023-12-16_15h22.56.542,bars,2023.2.3,Win32,29.94011976,,,,,,3415.0937,3416.0701,,,3416.5698,3416.8031,,107,107,,,,,,,,,,,,,,,,bars/018.png,bars/mask000.png,,,,,,,,,,,,4,2,,,,,,,0,10,0,9,,,,,,,,,,,3416.0703,3416.5697,3416.8033,3420.6022,space,3.7764,,3420.6022,43,17,3421.6018,3421.6018,3421.6114,,,,0,18,18,18,1,150,90,,,,,,,,
,,5f56253b816a8722d0af90f5,,2023-12-16_15h22.56.542,bars,2023.2.3,Win32,29.94011976,,,,,,3421.6115,3422.6022,,,3423.1018,3423.3349,,159,-21,,,,,,,,,,,,,,,,bars/020.png,bars/mask005.png,,,,,,,,,,,,5,2,,,,,,,2,8,2,8,,,,,,,,,,,3422.6023,3423.1018,3423.335,3427.801,space,4.4363,,3427.8011,44,11,3428.8012,3428.8013,3428.8269,,,,0,19,19,19,1,115,170,,,,,,,,
,,5f56253b816a8722d0af90f5,,2023-12-16_15h22.56.542,bars,2023.2.3,Win32,29.94011976,,,,,,3428.8271,3429.8346,,,3430.334,3430.5676,,22,202,,,,,,,,,,,,,,,,bars/019.png,bars/mask006.png,,,,,,,,,,,,0,1,,,,,,,0,6,1,6,,,,,,,,,,,3429.8348,3430.3339,3430.5676,3433.4336,space,2.8347,,3433.4337,23,83,3434.433,3434.4331,3434.4499,,,,0,20,20,20,1,45,105,,,,,,,,
,,5f56253b816a8722d0af90f5,,2023-12-16_15h22.56.542,bars,2023.2.3,Win32,29.94011976,,,,,,3434.4502,3435.4332,,,3435.9332,3436.1662,,178,178,,,,,,,,,,,,,,,,bars/044.png,bars/mask000.png,,,,,,,,,,,,1,2,,,,,,,2,8,2,5,,,,,,,,,,,3435.4333,3435.9331,3436.1663,3437.7991,space,1.6055,,3437.7991,77,23,3438.7996,3438.7996,3438.8042,,,,0,21,21,21,1,75,155,,,,,,,,
,,5f56253b816a8722d0af90f5,,2023-12-16_15h22.56.542,bars,2023.2.3,Win32,29.94011976,,,,,,3438.8052,3439.7996,,,3440.2995,3440.5321,,101,101,,,,,,,,,,,,,,,,bars/048.png,bars/mask008.png,,,,,,,,,,,,0,1,,,,,,,4,6,4,7,,,,,,,,,,,3439.7996,3440.2995,3440.5322,3458.0633,space,17.5147,,3458.0635,51,74,3459.0633,3459.0634,3459.0888,,,,0,22,22,22,1,50,175,,,,,,,,
,,5f56253b816a8722d0af90f5,,2023-12-16_15h22.56.542,bars,2023.2.3,Win32,29.94011976,,,,,,3459.089,3460.0957,,,3460.5963,3460.8294,,120,120,,,,,,,,,,,,,,,,bars/042.png,bars/mask000.png,,,,,,,,,,,,0,1,,,,,,,2,4,3,4,,,,,,,,,,,3460.0957,3460.5962,3460.8295,3463.4623,space,2.6168,,3463.4623,25,45,3464.4623,3464.4624,3464.4863,,,,0,23,23,23,1,145,75,,,,,,,,
,,5f56253b816a8722d0af90f5,,2023-12-16_15h22.56.542,bars,2023.2.3,Win32,29.94011976,,,,,,3464.4866,3465.4621,,,3465.9616,3466.1956,,162,-18,,,,,,,,,,,,,,,,bars/020.png,bars/mask002.png,,,,,,,,,,,,2,2,,,,,,,0,2,1,3,,,,,,,,,,,3465.4621,3465.9616,3466.1956,3473.7272,space,7.5179,,3473.7274,47,8,3474.7273,3474.7274,3474.74,,,,0,24,24,24,1,115,170,,,,,,,,
,,5f56253b816a8722d0af90f5,,2023-12-16_15h22.56.542,bars,2023.2.3,Win32,29.94011976,,,,,,3474.7402,3475.7269,,,3476.2271,3476.4601,,33,33,,,,,,,,,,,,,,,,bars/032.png,bars/mask008.png,,,,,,,,,,,,0,2,,,,,,,0,0,2,0,,,,,,,,,,,3475.727,3476.227,3476.4602,3482.6258,space,6.1475,,3482.626,88,13,3483.6252,3483.6253,3483.6333,,,,0,25,25,25,1,125,20,,,,,,,,
,,5f56253b816a8722d0af90f5,,2023-12-16_15h22.56.542,bars,2023.2.3,Win32,29.94011976,,,,,,3483.6335,3484.6256,,,3485.1257,3485.359,,43,43,,,,,,,,,,,,,,,,bars/022.png,bars/mask001.png,,,,,,,,,,,,0,2,,,,,,,2,0,1,0,,,,,,,,,,,3484.6256,3485.1256,3485.3591,3488.2587,space,2.8668,,3488.2588,52,23,3489.2585,3489.2585,3489.2835,,,,0,26,26,26,1,95,20,,,,,,,,
,,5f56253b816a8722d0af90f5,,2023-12-16_15h22.56.542,bars,2023.2.3,Win32,29.94011976,,,,,,3489.2837,3490.2908,,,3490.7909,3491.0247,,132,132,,,,,,,,,,,,,,,,bars/000.png,bars/mask000.png,,,,,,,,,,,,1,2,,,,,,,0,2,0,2,,,,,,,,,,,3490.2908,3490.7909,3491.0247,3494.4232,space,3.3773,,3494.4232,88,13,3495.4235,3495.4235,3495.443,,,,0,27,27,27,1,40,145,,,,,,,,
,,5f56253b816a8722d0af90f5,,2023-12-16_15h22.56.542,bars,2023.2.3,Win32,29.94011976,,,,,,3495.4432,3496.424,,,3496.9238,3497.157,,121,121,,,,,,,,,,,,,,,,bars/049.png,bars/mask003.png,,,,,,,,,,,,1,2,,,,,,,0,0,0,1,,,,,,,,,,,3496.4241,3496.9237,3497.1571,3500.4904,space,3.3159,,3500.4905,39,6,3501.4897,3501.4898,3501.515,,,,0,28,28,28,1,160,115,,,,,,,,
,,5f56253b816a8722d0af90f5,,2023-12-16_15h22.56.542,bars,2023.2.3,Win32,29.94011976,,,,,,3501.5152,3502.5223,,,3503.0229,3503.256,,82,82,,,,,,,,,,,,,,,,bars/038.png,bars/mask009.png,,,,,,,,,,,,0,2,,,,,,,2,0,2,0,,,,,,,,,,,3502.5224,3503.0229,3503.2561,3505.5551,space,2.2786,,3505.5551,83,12,3506.5553,3506.5553,3506.5794,,,,0,29,29,29,1,165,70,,,,,,,,
,,5f56253b816a8722d0af90f5,,2023-12-16_15h22.56.542,bars,2023.2.3,Win32,29.94011976,,,,,,3506.5796,3507.5551,,,3508.0547,3508.2885,,84,84,,,,,,,,,,,,,,,,bars/022.png,bars/mask000.png,,,,,,,,,,,,0,1,,,,,,,0,2,0,2,,,,,,,,,,,3507.5551,3508.0546,3508.2886,3514.288,space,5.9816,,3514.2881,11,64,3515.2871,3515.2871,3515.3144,,,,0,30,30,30,1,95,20,,,,,,,,
,,5f56253b816a8722d0af90f5,,2023-12-16_15h22.56.542,bars,2023.2.3,Win32,29.94011976,,,,,,3515.3147,3516.3208,,,3516.8208,3517.0538,,71,71,,,,,,,,,,,,,,,,bars/000.png,bars/mask005.png,,,,,,,,,,,,0,1,,,,,,,2,0,1,0,,,,,,,,,,,3516.3209,3516.8207,3517.0539,3522.3543,space,5.2926,,3522.3543,31,74,3523.3526,3523.3526,3523.3733,,,,0,31,31,31,1,40,145,,,,,,,,
,,5f56253b816a8722d0af90f5,,2023-12-16_15h22.56.542,bars,2023.2.3,Win32,29.94011976,,,,,,3523.3735,3524.3526,,,3524.8523,3525.0852,,64,64,,,,,,,,,,,,,,,,bars/007.png,bars/mask000.png,,,,,,,,,,,,1,2,,,,,,,4,2,5,2,,,,,,,,,,,3524.3527,3524.8523,3525.0852,3529.9183,space,4.7985,,3529.9184,69,9,3530.9183,3530.9184,3530.9434,,,,0,32,32,32,1,175,55,,,,,,,,
,,5f56253b816a8722d0af90f5,,2023-12-16_15h22.56.542,bars,2023.2.3,Win32,29.94011976,,,,,,3530.9437,3531.9513,,,3532.4513,3532.6846,,9,9,,,,,,,,,,,,,,,,bars/023.png,bars/mask001.png,,,,,,,,,,,,2,1,,,,,,,2,0,3,1,,,,,,,,,,,3531.9513,3532.4513,3532.6847,3533.8183,space,1.1141,,3533.8184,11,74,3534.8172,3534.8172,3534.8197,,,,0,33,33,33,1,20,115,,,,,,,,
,,5f56253b816a8722d0af90f5,,2023-12-16_15h22.56.542,bars,2023.2.3,Win32,29.94011976,,,,,,3534.8203,3535.8176,,,3536.3178,3536.5502,,77,77,,,,,,,,,,,,,,,,bars/042.png,bars/mask002.png,,,,,,,,,,,,0,2,,,,,,,0,0,0,0,,,,,,,,,,,3535.8176,3536.3176,3536.5503,3537.4844,space,0.9021,,3537.4844,68,2,3538.4838,3538.484,3538.4887,,,,0,34,34,34,1,145,75,,,,,,,,
,,5f56253b816a8722d0af90f5,,2023-12-16_15h22.56.542,bars,2023.2.3,Win32,29.94011976,,,,,,3538.4897,3539.4835,,,3539.9835,3540.2169,,151,151,,,,,,,,,,,,,,,,bars/031.png,bars/mask002.png,,,,,,,,,,,,0,1,,,,,,,0,2,1,1,,,,,,,,,,,3539.4835,3539.9834,3540.217,3592.0755,space,51.8343,,3592.0756,31,64,3593.0747,3593.0748,3593.0965,,,,0,35,35,35,1,120,35,,,,,,,,
,,5f56253b816a8722d0af90f5,,2023-12-16_15h22.56.542,bars,2023.2.3,Win32,29.94011976,,,,,,3593.0967,3594.0748,,,3594.5744,3594.8082,,178,-2,,,,,,,,,,,,,,,,bars/039.png,bars/mask006.png,,,,,,,,,,,,0,1,,,,,,,0,0,0,0,,,,,,,,,,,3594.0748,3594.5743,3594.8083,3601.6074,space,6.79,,3601.6075,3,73,3602.6066,3602.6066,3602.6327,,,,0,36,36,36,1,175,105,,,,,,,,
,,5f56253b816a8722d0af90f5,,2023-12-16_15h22.56.542,bars,2023.2.3,Win32,29.94011976,,,,,,3602.633,3603.6401,,,3604.1401,3604.3727,,32,32,,,,,,,,,,,,,,,,bars/009.png,bars/mask006.png,,,,,,,,,,,,0,1,,,,,,,0,0,0,0,,,,,,,,,,,3603.6402,3604.14,3604.3727,3606.8065,space,2.4132,,3606.8067,17,73,3607.8057,3607.8058,3607.8317,,,,0,37,37,37,1,15,105,,,,,,,,
,,5f56253b816a8722d0af90f5,,2023-12-16_15h22.56.542,bars,2023.2.3,Win32,29.94011976,,,,,,3607.832,3608.8396,,,3609.339,3609.5726,,98,278,,,,,,,,,,,,,,,,bars/025.png,bars/mask001.png,,,,,,,,,,,,0,1,,,,,,,0,0,0,1,,,,,,,,,,,3608.8396,3609.3389,3609.5727,3615.4718,space,5.8668,,3615.4718,7,58,3616.4714,3616.4714,3616.494,,,,0,38,38,38,1,105,40,,,,,,,,
,,5f56253b816a8722d0af90f5,,2023-12-16_15h22.56.542,bars,2023.2.3,Win32,29.94011976,,,,,,3616.4942,3617.4713,,,3617.9715,3618.2047,,117,117,,,,,,,,,,,,,,,,bars/046.png,bars/mask002.png,,,,,,,,,,,,0,2,,,,,,,2,0,3,0,,,,,,,,,,,3617.4714,3617.9715,3618.2048,3620.3712,space,2.139,,3620.3713,38,32,3621.3702,3621.3703,3621.3905,,,,0,39,39,39,1,155,85,,,,,,,,
,,5f56253b816a8722d0af90f5,,2023-12-16_15h22.56.542,bars,2023.2.3,Win32,29.94011976,,,,,,3621.3907,3622.3704,,,3622.8706,3623.1039,,123,123,,,,,,,,,,,,,,,,bars/037.png,bars/mask001.png,,,,,,,,,,,,0,2,,,,,,,4,0,4,1,,,,,,,,,,,3622.3704,3622.8705,3623.1039,3626.7365,space,3.5971,,3626.7366,27,18,3627.7355,3627.7356,3627.751,,,,0,40,40,40,1,150,105,,,,,,,,
,,5f56253b816a8722d0af90f5,,2023-12-16_15h22.56.542,bars,2023.2.3,Win32,29.94011976,,,,,,3627.7512,3628.7361,,,3629.2363,3629.4693,,12,12,,,,,,,,,,,,,,,,bars/033.png,bars/mask005.png,,,,,,,,,,,,2,1,,,,,,,6,0,4,0,,,,,,,,,,,3628.7362,3629.2362,3629.4694,3631.2027,space,1.7051,,3631.2028,13,37,3632.2021,3632.2021,3632.2069,,,,0,41,41,41,1,25,155,,,,,,,,
,,5f56253b816a8722d0af90f5,,2023-12-16_15h22.56.542,bars,2023.2.3,Win32,29.94011976,,,,,,3632.208,3633.2016,,,3633.7022,3633.9345,,116,116,,,,,,,,,,,,,,,,bars/023.png,bars/mask004.png,,,,,,,,,,,,2,2,,,,,,,4,2,5,2,,,,,,,,,,,3633.2017,3633.7021,3633.9345,3636.6351,space,2.6701,,3636.6352,84,1,3637.6346,3637.6347,3637.6574,,,,0,42,42,42,1,20,115,,,,,,,,
,,5f56253b816a8722d0af90f5,,2023-12-16_15h22.56.542,bars,2023.2.3,Win32,29.94011976,,,,,,3637.6576,3638.6344,,,3639.1344,3639.3673,,43,43,,,,,,,,,,,,,,,,bars/036.png,bars/mask002.png,,,,,,,,,,,,0,2,,,,,,,6,0,7,1,,,,,,,,,,,3638.6346,3639.1343,3639.3674,3642.9009,space,3.5031,,3642.901,78,23,3643.9004,3643.9005,3643.9249,,,,0,43,43,43,1,145,20,,,,,,,,
,,5f56253b816a8722d0af90f5,,2023-12-16_15h22.56.542,bars,2023.2.3,Win32,29.94011976,,,,,,3643.925,3644.9331,,,3645.434,3645.667,,138,138,,,,,,,,,,,,,,,,bars/000.png,bars/mask006.png,,,,,,,,,,,,2,2,,,,,,,4,2,6,2,,,,,,,,,,,3644.9331,3645.434,3645.6671,3646.8337,space,1.132,,3646.8338,82,7,3647.8332,3647.8334,3647.835,,,,0,44,44,44,1,40,145,,,,,,,,
,,5f56253b816a8722d0af90f5,,2023-12-16_15h22.56.542,bars,2023.2.3,Win32,29.94011976,,,,,,3647.8356,3648.833,,,3649.3329,3649.5662,,156,-24,,,,,,,,,,,,,,,,bars/020.png,bars/mask002.png,,,,,,,,,,,,2,2,,,,,,,2,4,3,4,,,,,,,,,,,3648.833,3649.3328,3649.5662,3654.432,space,4.8411,,3654.4322,41,14,3655.4314,3655.4314,3655.4486,,,,0,45,45,45,1,115,170,,,,,,,,
,,5f56253b816a8722d0af90f5,,2023-12-16_15h22.56.542,bars,2023.2.3,Win32,29.94011976,,,,,,3655.4488,3656.4319,,,3656.9315,3657.1648,,170,170,,,,,,,,,,,,,,,,bars/035.png,bars/mask001.png,,,,,,,,,,,,3,1,,,,,,,4,2,4,1,,,,,,,,,,,3656.432,3656.9315,3657.1649,3658.5312,space,1.3571,,3658.5312,5,70,3659.531,3659.531,3659.5337,,,,0,46,46,46,1,175,60,,,,,,,,
,,5f56253b816a8722d0af90f5,,2023-12-16_15h22.56.542,bars,2023.2.3,Win32,29.94011976,,,,,,3659.5343,3660.5311,,,3661.0312,3661.2641,,15,15,,,,,,,,,,,,,,,,bars/048.png,bars/mask002.png,,,,,,,,,,,,0,2,,,,,,,6,0,6,0,,,,,,,,,,,3660.5312,3661.0311,3661.2642,3663.8643,space,2.57,,3663.8645,35,20,3664.8638,3664.864,3664.8892,,,,0,47,47,47,1,50,175,,,,,,,,
,,5f56253b816a8722d0af90f5,,2023-12-16_15h22.56.542,bars,2023.2.3,Win32,29.94011976,,,,,,3664.8894,3665.8969,,,3666.3962,3666.6303,,55,55,,,,,,,,,,,,,,,,bars/017.png,bars/mask007.png,,,,,,,,,,,,1,2,,,,,,,4,2,5,2,,,,,,,,,,,3665.897,3666.3962,3666.6303,5373.0591,space,1706.4052,,5373.0592,90,10,5374.0596,5374.0596,5374.0849,,,,0,48,48,48,1,145,45,,,,,,,,
,,5f56253b816a8722d0af90f5,,2023-12-16_15h22.56.542,bars,2023.2.3,Win32,29.94011976,,,,,,5374.0851,5375.092,,,5375.5923,5375.826,,139,139,,,,,,,,,,,,,,,,bars/003.png,bars/mask001.png,,,,,,,,,,,,3,2,,,,,,,2,4,4,3,,,,,,,,,,,5375.092,5375.5923,5375.8261,5379.6921,space,3.8318,,5379.6922,66,1,5380.6916,5380.6916,5380.7172,,,,0,49,49,49,1,25,140,,,,,,,,
,,5f56253b816a8722d0af90f5,,2023-12-16_15h22.56.542,bars,2023.2.3,Win32,29.94011976,,,,,,,,,,,,,,,,,,,,,,,,,,,,,,,,,,,,,,,,,,,,,,,,,,,,,,,,,,,,,,,,,,,,,,,,,,,,,,,,,,,,,,,,5380.7175,5440.7159,0,1,1,0,1,sequence_tables/blk015.csv
,,5f56253b816a8722d0af90f5,,2023-12-16_15h22.56.542,bars,2023.2.3,Win32,29.94011976,,,,,,5448.2106,5449.2143,,,5449.7143,5449.9468,,146,146,,,,,,,,,,,,,,,,bars/000.png,bars/mask009.png,,,,,,,,,,,,5,2,,,,,,,5,5,4,5,,,,,,5440.7431,5448.1813,space,7.4256,,5449.2143,5449.7142,5449.9468,5450.8477,space,0.8868,,5450.8478,74,1,5451.8472,5451.8473,5451.8491,,,,0,0,0,0,1,40,145,,,,,,,,
,,5f56253b816a8722d0af90f5,,2023-12-16_15h22.56.542,bars,2023.2.3,Win32,29.94011976,,,,,,5451.8498,5452.8471,,,5453.3471,5453.5805,,117,117,,,,,,,,,,,,,,,,bars/043.png,bars/mask007.png,,,,,,,,,,,,1,2,,,,,,,3,3,2,2,,,,,,,,,,,5452.8471,5453.347,5453.5805,5456.8466,space,3.2351,,5456.8468,87,13,5457.8461,5457.8462,5457.8689,,,,0,1,1,1,1,30,130,,,,,,,,
,,5f56253b816a8722d0af90f5,,2023-12-16_15h22.56.542,bars,2023.2.3,Win32,29.94011976,,,,,,5457.8691,5458.8455,,,5459.3461,5459.5795,,156,-24,,,,,,,,,,,,,,,,bars/003.png,bars/mask008.png,,,,,,,,,,,,0,2,,,,,,,5,1,6,1,,,,,,,,,,,5458.8455,5459.3459,5459.5796,5462.0122,space,2.4075,,5462.0122,49,16,5463.0123,5463.0124,5463.0367,,,,0,2,2,2,1,25,140,,,,,,,,
,,5f56253b816a8722d0af90f5,,2023-12-16_15h22.56.542,bars,2023.2.3,Win32,29.94011976,,,,,,5463.0369,5464.0121,,,5464.512,5464.7453,,115,115,,,,,,,,,,,,,,,,bars/023.png,bars/mask004.png,,,,,,,,,,,,4,2,,,,,,,3,3,5,4,,,,,,,,,,,5464.0121,5464.512,5464.7455,5466.7787,space,2.0123,,5466.7787,85,0,5467.7772,5467.7773,5467.7965,,,,0,3,3,3,1,20,115,,,,,,,,
,,5f56253b816a8722d0af90f5,,2023-12-16_15h22.56.542,bars,2023.2.3,Win32,29.94011976,,,,,,5467.7967,5468.778,,,5469.2781,5469.5114,,5,185,,,,,,,,,,,,,,,,bars/040.png,bars/mask008.png,,,,,,,,,,,,5,2,,,,,,,1,5,1,5,,,,,,,,,,,5468.778,5469.278,5469.5114,5474.2776,space,4.7323,,5474.2776,45,0,5475.2766,5475.2766,5475.302,,,,0,4,4,4,1,140,5,,,,,,,,
,,5f56253b816a8722d0af90f5,,2023-12-16_15h22.56.542,bars,2023.2.3,Win32,29.94011976,,,,,,5475.3022,5476.3097,,,5476.8101,5477.0429,,111,111,,,,,,,,,,,,,,,,bars/007.png,bars/mask001.png,,,,,,,,,,,,0,2,,,,,,,0,3,0,2,,,,,,,,,,,5476.3098,5476.81,5477.043,5479.7765,space,2.7108,,5479.7767,64,56,5480.776,5480.776,5480.7777,,,,0,5,5,5,1,175,55,,,,,,,,
,,5f56253b816a8722d0af90f5,,2023-12-16_15h22.56.542,bars,2023.2.3,Win32,29.94011976,,,,,,5480.7783,5481.7758,,,5482.276,5482.5093,,173,173,,,,,,,,,,,,,,,,bars/013.png,bars/mask003.png,,,,,,,,,,,,0,2,,,,,,,2,1,3,1,,,,,,,,,,,5481.7758,5482.276,5482.5093,5486.3754,space,3.8419,,5486.3755,82,17,5487.3743,5487.3743,5487.3844,,,,0,6,6,6,1,75,10,,,,,,,,
,,5f56253b816a8722d0af90f5,,2023-12-16_15h22.56.542,bars,2023.2.3,Win32,29.94011976,,,,,,5487.3846,5488.374,,,5488.8746,5489.1079,,1,1,,,,,,,,,,,,,,,,bars/008.png,bars/mask001.png,,,,,,,,,,,,3,2,,,,,,,4,3,5,3,,,,,,,,,,,5488.374,5488.8746,5489.1081,5493.5401,space,4.4125,,5493.5401,71,1,5494.5402,5494.5403,5494.5658,,,,0,7,7,7,1,110,0,,,,,,,,
,,5f56253b816a8722d0af90f5,,2023-12-16_15h22.56.542,bars,2023.2.3,Win32,29.94011976,,,,,,5494.566,5495.5735,,,5496.0735,5496.3063,,179,179,,,,,,,,,,,,,,,,bars/012.png,bars/mask003.png,,,,,,,,,,,,3,2,,,,,,,2,5,1,6,,,,,,,,,,,5495.5736,5496.0735,5496.3063,5499.3401,space,3.0032,,5499.3402,89,16,5500.3402,5500.3403,5500.3658,,,,0,8,8,8,1,90,15,,,,,,,,
,,5f56253b816a8722d0af90f5,,2023-12-16_15h22.56.542,bars,2023.2.3,Win32,29.94011976,,,,,,5500.366,5501.3722,,,5501.8729,5502.1054,,87,87,,,,,,,,,,,,,,,,bars/001.png,bars/mask008.png,,,,,,,,,,,,4,2,,,,,,,4,3,4,4,,,,,,,,,,,5501.3722,5501.8728,5502.1054,5507.2049,space,5.065,,5507.205,43,2,5508.2048,5508.2049,5508.2278,,,,0,9,9,9,1,130,85,,,,,,,,
,,5f56253b816a8722d0af90f5,,2023-12-16_15h22.56.542,bars,2023.2.3,Win32,29.94011976,,,,,,5508.228,5509.2048,,,5509.7045,5509.9383,,88,-92,,,,,,,,,,,,,,,,bars/039.png,bars/mask000.png,,,,,,,,,,,,2,2,,,,,,,2,5,3,5,,,,,,,,,,,5509.2049,5509.7044,5509.9384,5514.371,space,4.4152,,5514.3711,87,17,5515.3706,5515.3708,5515.3947,,,,0,10,10,10,1,175,105,,,,,,,,
,,5f56253b816a8722d0af90f5,,2023-12-16_15h22.56.542,bars,2023.2.3,Win32,29.94011976,,,,,,5515.3949,5516.3703,,,5516.8702,5517.1036,,77,-103,,,,,,,,,,,,,,,,bars/025.png,bars/mask002.png,,,,,,,,,,,,0,1,,,,,,,0,7,0,6,,,,,,,,,,,5516.3704,5516.8702,5517.1036,5521.7692,space,4.6539,,5521.7694,28,37,5522.7687,5522.7688,5522.7844,,,,0,11,11,11,1,105,40,,,,,,,,
,,5f56253b816a8722d0af90f5,,2023-12-16_15h22.56.542,bars,2023.2.3,Win32,29.94011976,,,,,,5522.7847,5523.7691,,,5524.2693,5524.5027,,75,75,,,,,,,,,,,,,,,,bars/035.png,bars/mask008.png,,,,,,,,,,,,4,2,,,,,,,0,9,0,8,,,,,,,,,,,5523.7692,5524.2693,5524.5027,5527.6689,space,3.1378,,5527.6689,80,15,5528.6684,5528.6685,5528.6936,,,,0,12,12,12,1,175,60,,,,,,,,
,,5f56253b816a8722d0af90f5,,2023-12-16_15h22.56.542,bars,2023.2.3,Win32,29.94011976,,,,,,5528.6938,5529.7016,,,5530.2018,5530.434,,87,87,,,,,,,,,,,,,,,,bars/019.png,bars/mask000.png,,,,,,,,,,,,3,2,,,,,,,2,7,3,7,,,,,,,,,,,5529.7017,5530.2018,5530.434,5532.3018,space,1.8341,,5532.302,42,18,5533.301,5533.301,5533.3275,,,,0,13,13,13,1,45,105,,,,,,,,
,,5f56253b816a8722d0af90f5,,2023-12-16_15h22.56.542,bars,2023.2.3,Win32,29.94011976,,,,,,5533.3277,5534.3342,,,5534.8337,5535.067,,72,72,,,,,,,,,,,,,,,,bars/035.png,bars/mask006.png,,,,,,,,,,,,6,2,,,,,,,0,9,0,10,,,,,,,,,,,5534.3343,5534.8336,5535.067,5535.8341,space,0.7356,,5535.8343,77,12,5536.8338,5536.8339,5536.8355,,,,0,14,14,14,1,175,60,,,,,,,,
,,5f56253b816a8722d0af90f5,,2023-12-16_15h22.56.542,bars,2023.2.3,Win32,29.94011976,,,,,,5536.836,5537.8334,,,5538.3338,5538.567,,82,82,,,,,,,,,,,,,,,,bars/026.png,bars/mask008.png,,,,,,,,,,,,6,2,,,,,,,0,7,1,7,,,,,,,,,,,5537.8336,5538.3337,5538.5671,5540.2666,space,1.6694,,5540.2667,47,3,5541.2664,5541.2665,5541.2905,,,,0,15,15,15,1,35,85,,,,,,,,
,,5f56253b816a8722d0af90f5,,2023-12-16_15h22.56.542,bars,2023.2.3,Win32,29.94011976,,,,,,5541.2907,5542.2663,,,5542.7659,5542.9996,,85,85,,,,,,,,,,,,,,,,bars/035.png,bars/mask006.png,,,,,,,,,,,,1,2,,,,,,,0,9,2,6,,,,,,,,,,,5542.2664,5542.7659,5542.9996,5545.6658,space,2.6427,,5545.6658,90,25,5546.6654,5546.6654,5546.69,,,,0,16,16,16,1,175,60,,,,,,,,
,,5f56253b816a8722d0af90f5,,2023-12-16_15h22.56.542,bars,2023.2.3,Win32,29.94011976,,,,,,5546.6903,5547.6987,,,5548.1988,5548.432,,6,186,,,,,,,,,,,,,,,,bars/024.png,bars/mask006.png,,,,,,,,,,,,3,2,,,,,,,2,7,2,7,,,,,,,,,,,5547.6988,5548.1988,5548.4321,5549.4988,space,1.049,,5549.499,66,16,5550.4977,5550.4978,5550.4986,,,,0,17,17,17,1,120,170,,,,,,,,
,,5f56253b816a8722d0af90f5,,2023-12-16_15h22.56.542,bars,2023.2.3,Win32,29.94011976,,,,,,5550.4989,5551.4981,,,5551.9981,5552.2309,,83,83,,,,,,,,,,,,,,,,bars/026.png,bars/mask004.png,,,,,,,,,,,,4,2,,,,,,,0,5,0,4,,,,,,,,,,,5551.4982,5551.9979,5552.2309,5554.9639,space,2.7245,,5554.964,48,2,5555.964,5555.964,5555.9887,,,,0,18,18,18,1,35,85,,,,,,,,
,,5f56253b816a8722d0af90f5,,2023-12-16_15h22.56.542,bars,2023.2.3,Win32,29.94011976,,,,,,5555.9889,5556.9972,,,5557.4972,5557.7307,,71,251,,,,,,,,,,,,,,,,bars/047.png,bars/mask002.png,,,,,,,,,,,,8,2,,,,,,,2,7,1,8,,,,,,,,,,,5556.9973,5557.4972,5557.7307,5564.4963,space,6.7582,,5564.4964,56,1,5565.4957,5565.4958,5565.5206,,,,0,19,19,19,1,15,70,,,,,,,,
,,5f56253b816a8722d0af90f5,,2023-12-16_15h22.56.542,bars,2023.2.3,Win32,29.94011976,,,,,,5565.5208,5566.529,,,5567.0288,5567.2619,,84,264,,,,,,,,,,,,,,,,bars/038.png,bars/mask004.png,,,,,,,,,,,,3,2,,,,,,,0,5,0,5,,,,,,,,,,,5566.5291,5567.0288,5567.2619,5571.5282,space,4.2585,,5571.5282,81,14,5572.5283,5572.5283,5572.552,,,,0,20,20,20,1,165,70,,,,,,,,
,,5f56253b816a8722d0af90f5,,2023-12-16_15h22.56.542,bars,2023.2.3,Win32,29.94011976,,,,,,5572.5522,5573.5607,,,5574.0607,5574.2944,,83,83,,,,,,,,,,,,,,,,bars/002.png,bars/mask009.png,,,,,,,,,,,,4,2,,,,,,,2,3,2,4,,,,,,,,,,,5573.5607,5574.0607,5574.2944,5577.3945,space,3.085,,5577.3947,47,2,5578.3938,5578.3939,5578.4161,,,,0,21,21,21,1,130,85,,,,,,,,
,,5f56253b816a8722d0af90f5,,2023-12-16_15h22.56.542,bars,2023.2.3,Win32,29.94011976,,,,,,5578.4164,5579.3939,,,5579.8939,5580.1266,,72,252,,,,,,,,,,,,,,,,bars/026.png,bars/mask009.png,,,,,,,,,,,,2,2,,,,,,,4,5,3,4,,,,,,,,,,,5579.394,5579.8939,5580.1266,5584.127,space,3.9677,,5584.1273,37,13,5585.1262,5585.1262,5585.1523,,,,0,22,22,22,1,35,85,,,,,,,,
,,5f56253b816a8722d0af90f5,,2023-12-16_15h22.56.542,bars,2023.2.3,Win32,29.94011976,,,,,,5585.1525,5586.1588,,,5586.6592,5586.8926,,79,79,,,,,,,,,,,,,,,,bars/024.png,bars/mask001.png,,,,,,,,,,,,0,1,,,,,,,6,3,5,2,,,,,,,,,,,5586.1588,5586.6592,5586.8927,5589.7918,space,2.8662,,5589.7918,41,89,5590.7916,5590.7917,5590.8086,,,,0,23,23,23,1,120,170,,,,,,,,
,,5f56253b816a8722d0af90f5,,2023-12-16_15h22.56.542,bars,2023.2.3,Win32,29.94011976,,,,,,5590.8089,5591.7913,,,5592.2913,5592.5249,,86,266,,,,,,,,,,,,,,,,bars/037.png,bars/mask009.png,,,,,,,,,,,,1,2,,,,,,,4,1,4,3,,,,,,,,,,,5591.7913,5592.2913,5592.525,5596.5912,space,4.0344,,5596.5912,64,19,5597.5908,5597.5909,5597.6153,,,,0,24,24,24,1,150,105,,,,,,,,
,,5f56253b816a8722d0af90f5,,2023-12-16_15h22.56.542,bars,2023.2.3,Win32,29.94011976,,,,,,5597.6156,5598.624,,,5599.1242,5599.3571,,41,41,,,,,,,,,,,,,,,,bars/036.png,bars/mask000.png,,,,,,,,,,,,0,2,,,,,,,2,0,1,0,,,,,,,,,,,5598.624,5599.1241,5599.3571,5600.2907,space,0.917,,5600.2907,76,21,5601.2903,5601.2905,5601.2921,,,,0,25,25,25,1,145,20,,,,,,,,
,,5f56253b816a8722d0af90f5,,2023-12-16_15h22.56.542,bars,2023.2.3,Win32,29.94011976,,,,,,5601.2928,5602.2902,,,5602.7895,5603.0232,,102,102,,,,,,,,,,,,,,,,bars/028.png,bars/mask004.png,,,,,,,,,,,,0,2,,,,,,,0,0,1,1,,,,,,,,,,,5602.2902,5602.7895,5603.0232,5606.4896,space,3.4337,,5606.4897,57,18,5607.4896,5607.4896,5607.5144,,,,0,26,26,26,1,45,120,,,,,,,,
,,5f56253b816a8722d0af90f5,,2023-12-16_15h22.56.542,bars,2023.2.3,Win32,29.94011976,,,,,,5607.5145,5608.5226,,,5609.0222,5609.2555,,108,108,,,,,,,,,,,,,,,,bars/028.png,bars/mask009.png,,,,,,,,,,,,0,2,,,,,,,0,0,1,0,,,,,,,,,,,5608.5226,5609.022,5609.2556,5610.1891,space,0.9185,,5610.1891,63,12,5611.1888,5611.189,5611.1903,,,,0,27,27,27,1,45,120,,,,,,,,
,,5f56253b816a8722d0af90f5,,2023-12-16_15h22.56.542,bars,2023.2.3,Win32,29.94011976,,,,,,5611.191,5612.1888,,,5612.6887,5612.9216,,166,-14,,,,,,,,,,,,,,,,bars/016.png,bars/mask001.png,,,,,,,,,,,,0,2,,,,,,,0,0,0,0,,,,,,,,,,,5612.1888,5612.6887,5612.9217,5615.7546,space,2.8054,,5615.7547,54,1,5616.7543,5616.7543,5616.7781,,,,0,28,28,28,1,40,165,,,,,,,,
,,5f56253b816a8722d0af90f5,,2023-12-16_15h22.56.542,bars,2023.2.3,Win32,29.94011976,,,,,,5616.7784,5617.7869,,,5618.2877,5618.521,,178,178,,,,,,,,,,,,,,,,bars/032.png,bars/mask001.png,,,,,,,,,,,,1,2,,,,,,,0,2,0,2,,,,,,,,,,,5617.787,5618.2877,5618.5211,5619.2544,space,0.7139,,5619.2544,53,22,5620.2539,5620.254,5620.2556,,,,0,29,29,29,1,125,20,,,,,,,,
,,5f56253b816a8722d0af90f5,,2023-12-16_15h22.56.542,bars,2023.2.3,Win32,29.94011976,,,,,,5620.2563,5621.2539,,,5621.7536,5621.986,,88,88,,,,,,,,,,,,,,,,bars/043.png,bars/mask005.png,,,,,,,,,,,,0,2,,,,,,,2,4,3,3,,,,,,,,,,,5621.254,5621.7535,5621.9862,5625.419,space,3.4012,,5625.419,58,42,5626.4194,5626.4194,5626.442,,,,0,30,30,30,1,30,130,,,,,,,,
,,5f56253b816a8722d0af90f5,,2023-12-16_15h22.56.542,bars,2023.2.3,Win32,29.94011976,,,,,,5626.4423,5627.4196,,,5627.9187,5628.1525,,173,-7,,,,,,,,,,,,,,,,bars/012.png,bars/mask002.png,,,,,,,,,,,,1,2,,,,,,,4,2,4,2,,,,,,,,,,,5627.4197,5627.9187,5628.1526,5631.3521,space,3.1907,,5631.3523,83,22,5632.3516,5632.3516,5632.3722,,,,0,31,31,31,1,90,15,,,,,,,,
,,5f56253b816a8722d0af90f5,,2023-12-16_15h22.56.542,bars,2023.2.3,Win32,29.94011976,,,,,,5632.3724,5633.3517,,,5633.852,5634.0853,,19,199,,,,,,,,,,,,,,,,bars/031.png,bars/mask001.png,,,,,,,,,,,,2,2,,,,,,,6,4,6,4,,,,,,,,,,,5633.3518,5633.8519,5634.0853,5636.3176,space,2.1977,,5636.3177,79,16,5637.3174,5637.3174,5637.3375,,,,0,32,32,32,1,120,35,,,,,,,,
,,5f56253b816a8722d0af90f5,,2023-12-16_15h22.56.542,bars,2023.2.3,Win32,29.94011976,,,,,,5637.3376,5638.3174,,,5638.8172,5639.0509,,95,95,,,,,,,,,,,,,,,,bars/002.png,bars/mask004.png,,,,,,,,,,,,3,2,,,,,,,8,6,7,5,,,,,,,,,,,5638.3175,5638.8172,5639.0509,5642.0504,space,2.9668,,5642.0504,35,10,5643.0501,5643.0502,5643.075,,,,0,33,33,33,1,130,85,,,,,,,,
,,5f56253b816a8722d0af90f5,,2023-12-16_15h22.56.542,bars,2023.2.3,Win32,29.94011976,,,,,,5643.0752,5644.0502,,,5644.5502,5644.7829,,61,61,,,,,,,,,,,,,,,,bars/029.png,bars/mask002.png,,,,,,,,,,,,2,2,,,,,,,6,4,6,5,,,,,,,,,,,5644.0503,5644.5502,5644.7829,5646.9494,space,2.1471,,5646.9494,29,16,5647.9495,5647.9496,5647.9743,,,,0,34,34,34,1,90,45,,,,,,,,
,,5f56253b816a8722d0af90f5,,2023-12-16_15h22.56.542,bars,2023.2.3,Win32,29.94011976,,,,,,5647.9745,5648.9827,,,5649.4828,5649.7158,,50,230,,,,,,,,,,,,,,,,bars/007.png,bars/mask006.png,,,,,,,,,,,,3,2,,,,,,,8,2,7,3,,,,,,,,,,,5648.9827,5649.4827,5649.7159,5654.1155,space,4.3765,,5654.1156,55,5,5655.1148,5655.1149,5655.1394,,,,0,35,35,35,1,175,55,,,,,,,,
,,5f56253b816a8722d0af90f5,,2023-12-16_15h22.56.542,bars,2023.2.3,Win32,29.94011976,,,,,,5655.1397,5656.1148,,,5656.6147,5656.8473,,119,119,,,,,,,,,,,,,,,,bars/005.png,bars/mask007.png,,,,,,,,,,,,0,2,,,,,,,6,0,7,0,,,,,,,,,,,5656.1149,5656.6146,5656.8473,5659.3807,space,2.5019,,5659.3808,71,21,5660.3803,5660.3803,5660.3992,,,,0,36,36,36,1,10,140,,,,,,,,
,,5f56253b816a8722d0af90f5,,2023-12-16_15h22.56.542,bars,2023.2.3,Win32,29.94011976,,,,,,5660.3994,5661.3808,,,5661.8808,5662.114,,67,67,,,,,,,,,,,,,,,,bars/029.png,bars/mask009.png,,,,,,,,,,,,0,2,,,,,,,4,2,3,1,,,,,,,,,,,5661.3808,5661.8807,5662.1142,5662.98,space,0.8318,,5662.98,23,22,5663.98,5663.9801,5663.9818,,,,0,37,37,37,1,90,45,,,,,,,,
,,5f56253b816a8722d0af90f5,,2023-12-16_15h22.56.542,bars,2023.2.3,Win32,29.94011976,,,,,,5663.9825,5664.9803,,,5665.4795,5665.7132,,17,17,,,,,,,,,,,,,,,,bars/024.png,bars/mask008.png,,,,,,,,,,,,0,2,,,,,,,2,4,1,4,,,,,,,,,,,5664.9804,5665.4795,5665.7134,5666.4127,space,0.6745,,5666.4127,77,27,5667.4125,5667.4125,5667.4132,,,,0,38,38,38,1,120,170,,,,,,,,
,,5f56253b816a8722d0af90f5,,2023-12-16_15h22.56.542,bars,2023.2.3,Win32,29.94011976,,,,,,5667.4135,5668.4128,,,5668.9128,5669.1463,,169,169,,,,,,,,,,,,,,,,bars/020.png,bars/mask003.png,,,,,,,,,,,,6,2,,,,,,,4,6,4,6,,,,,,,,,,,5668.413,5668.9127,5669.1463,5670.1461,space,0.9659,,5670.1461,54,1,5671.1458,5671.1458,5671.1473,,,,0,39,39,39,1,115,170,,,,,,,,
,,5f56253b816a8722d0af90f5,,2023-12-16_15h22.56.542,bars,2023.2.3,Win32,29.94011976,,,,,,5671.1479,5672.1454,,,5672.6454,5672.8788,,139,139,,,,,,,,,,,,,,,,bars/043.png,bars/mask003.png,,,,,,,,,,,,1,2,,,,,,,2,4,2,2,,,,,,,,,,,5672.1454,5672.6453,5672.8788,5674.6784,space,1.7678,,5674.6785,71,9,5675.6786,5675.6786,5675.7032,,,,0,40,40,40,1,30,130,,,,,,,,
,,5f56253b816a8722d0af90f5,,2023-12-16_15h22.56.542,bars,2023.2.3,Win32,29.94011976,,,,,,5675.7035,5676.7119,,,5677.2116,5677.444,,173,-7,,,,,,,,,,,,,,,,bars/016.png,bars/mask003.png,,,,,,,,,,,,1,2,,,,,,,4,2,7,2,,,,,,,,,,,5676.7119,5677.2116,5677.444,5679.6112,space,2.1365,,5679.6113,47,8,5680.6111,5680.6112,5680.6128,,,,0,41,41,41,1,40,165,,,,,,,,
,,5f56253b816a8722d0af90f5,,2023-12-16_15h22.56.542,bars,2023.2.3,Win32,29.94011976,,,,,,5680.6133,5681.611,,,5682.1109,5682.344,,42,42,,,,,,,,,,,,,,,,bars/028.png,bars/mask000.png,,,,,,,,,,,,6,1,,,,,,,6,4,7,5,,,,,,,,,,,5681.611,5682.1108,5682.3441,5713.5055,space,31.1545,,5713.5056,3,78,5714.5053,5714.5054,5714.5297,,,,0,42,42,42,1,45,120,,,,,,,,
,,5f56253b816a8722d0af90f5,,2023-12-16_15h22.56.542,bars,2023.2.3,Win32,29.94011976,,,,,,5714.5299,5715.5054,,,5716.0055,5716.2388,,121,121,,,,,,,,,,,,,,,,bars/022.png,bars/mask008.png,,,,,,,,,,,,1,1,,,,,,,4,2,4,3,,,,,,,,,,,5715.5055,5716.0054,5716.2388,5718.1385,space,1.8695,,5718.1387,26,79,5719.1383,5719.1383,5719.1625,,,,0,43,43,43,1,95,20,,,,,,,,
,,5f56253b816a8722d0af90f5,,2023-12-16_15h22.56.542,bars,2023.2.3,Win32,29.94011976,,,,,,5719.1628,5720.1381,,,5720.6375,5720.8706,,132,-48,,,,,,,,,,,,,,,,bars/023.png,bars/mask003.png,,,,,,,,,,,,0,2,,,,,,,6,0,5,1,,,,,,,,,,,5720.1382,5720.6374,5720.8708,5723.9709,space,3.0796,,5723.971,68,17,5724.9708,5724.9708,5724.9955,,,,0,44,44,44,1,20,115,,,,,,,,
,,5f56253b816a8722d0af90f5,,2023-12-16_15h22.56.542,bars,2023.2.3,Win32,29.94011976,,,,,,5724.9956,5726.0033,,,5726.5034,5726.7362,,102,102,,,,,,,,,,,,,,,,bars/037.png,bars/mask000.png,,,,,,,,,,,,0,2,,,,,,,4,0,3,0,,,,,,,,,,,5726.0034,5726.5034,5726.7363,5730.0363,space,3.294,,5730.0363,48,3,5731.0361,5731.0362,5731.0574,,,,0,45,45,45,1,150,105,,,,,,,,
,,5f56253b816a8722d0af90f5,,2023-12-16_15h22.56.542,bars,2023.2.3,Win32,29.94011976,,,,,,5731.0577,5732.0362,,,5732.5355,5732.7689,,129,129,,,,,,,,,,,,,,,,bars/005.png,bars/mask003.png,,,,,,,,,,,,1,2,,,,,,,6,2,6,1,,,,,,,,,,,5732.0362,5732.5355,5732.7689,5734.3021,space,1.5117,,5734.3022,61,11,5735.3023,5735.3024,5735.3269,,,,0,46,46,46,1,10,140,,,,,,,,
,,5f56253b816a8722d0af90f5,,2023-12-16_15h22.56.542,bars,2023.2.3,Win32,29.94011976,,,,,,5735.3271,5736.3022,,,5736.8025,5737.0353,,127,127,,,,,,,,,,,,,,,,bars/004.png,bars/mask006.png,,,,,,,,,,,,5,2,,,,,,,4,4,3,5,,,,,,,,,,,5736.3023,5736.8024,5737.0353,5739.1682,space,2.1195,,5739.1683,78,2,5740.1684,5740.1685,5740.1702,,,,0,47,47,47,1,25,125,,,,,,,,
,,5f56253b816a8722d0af90f5,,2023-12-16_15h22.56.542,bars,2023.2.3,Win32,29.94011976,,,,,,5740.1709,5741.168,,,5741.6683,5741.9014,,31,31,,,,,,,,,,,,,,,,bars/022.png,bars/mask009.png,,,,,,,,,,,,2,2,,,,,,,2,2,2,3,,,,,,,,,,,5741.168,5741.6682,5741.9014,5743.934,space,2.0009,,5743.9341,64,11,5744.9334,5744.9335,5744.9492,,,,0,48,48,48,1,95,20,,,,,,,,
,,5f56253b816a8722d0af90f5,,2023-12-16_15h22.56.542,bars,2023.2.3,Win32,29.94011976,,,,,,5744.9494,5745.9338,,,5746.4338,5746.6669,,80,80,,,,,,,,,,,,,,,,bars/019.png,bars/mask007.png,,,,,,,,,,,,0,2,,,,,,,0,0,0,0,,,,,,,,,,,5745.934,5746.4337,5746.6669,5749.0005,space,2.3018,,5749.0006,35,25,5750,5750.0002,5750.0252,,,,0,49,49,49,1,45,105,,,,,,,,
,,5f56253b816a8722d0af90f5,,2023-12-16_15h22.56.542,bars,2023.2.3,Win32,29.94011976,,,,,,,,,,,,,,,,,,,,,,,,,,,,,,,,,,,,,,,,,,,,,,,,,,,,,,,,,,,,,,,,,,,,,,,,,,,,,,,,,,,,,,,,5750.0253,5810.0241,0,2,2,3,1,sequence_tables/blk014.csv
,,5f56253b816a8722d0af90f5,,2023-12-16_15h22.56.542,bars,2023.2.3,Win32,29.94011976,,,,,,8432.9504,8433.9418,,,8434.4409,8434.6749,,107,107,,,,,,,,,,,,,,,,bars/006.png,bars/mask003.png,,,,,,,,,,,,7,2,,,,,,,0,10,1,9,,,,,,5810.0481,8432.9417,space,2622.8772,,8433.9419,8434.4409,8434.6751,8438.7415,space,4.0353,,8438.7416,72,7,8439.741,8439.7411,8439.7617,,,,0,0,0,0,1,35,100,,,,,,,,
,,5f56253b816a8722d0af90f5,,2023-12-16_15h22.56.542,bars,2023.2.3,Win32,29.94011976,,,,,,8439.762,8440.7407,,,8441.2408,8441.4743,,41,221,,,,,,,,,,,,,,,,bars/035.png,bars/mask006.png,,,,,,,,,,,,4,2,,,,,,,0,10,0,10,,,,,,,,,,,8440.7408,8441.2408,8441.4743,8444.7728,space,3.2843,,8444.7728,46,19,8445.7734,8445.7735,8445.7978,,,,0,1,1,1,1,175,60,,,,,,,,
,,5f56253b816a8722d0af90f5,,2023-12-16_15h22.56.542,bars,2023.2.3,Win32,29.94011976,,,,,,8445.798,8446.7731,,,8447.2733,8447.5058,,176,-4,,,,,,,,,,,,,,,,bars/008.png,bars/mask003.png,,,,,,,,,,,,9,2,,,,,,,0,10,0,10,,,,,,,,,,,8446.7733,8447.2733,8447.5058,8451.5726,space,4.0351,,8451.5726,66,4,8452.5716,8452.5716,8452.5794,,,,0,2,2,2,1,110,0,,,,,,,,
,,5f56253b816a8722d0af90f5,,2023-12-16_15h22.56.542,bars,2023.2.3,Win32,29.94011976,,,,,,8452.5796,8453.5721,,,8454.072,8454.3052,,136,136,,,,,,,,,,,,,,,,bars/000.png,bars/mask003.png,,,,,,,,,,,,6,2,,,,,,,0,8,0,9,,,,,,,,,,,8453.5722,8454.0719,8454.3053,8455.6721,space,1.3512,,8455.6722,84,9,8456.6715,8456.6716,8456.6731,,,,0,3,3,3,1,40,145,,,,,,,,
,,5f56253b816a8722d0af90f5,,2023-12-16_15h22.56.542,bars,2023.2.3,Win32,29.94011976,,,,,,8456.6737,8457.6716,,,8458.1706,8458.404,,149,-31,,,,,,,,,,,,,,,,bars/043.png,bars/mask009.png,,,,,,,,,,,,4,2,,,,,,,2,10,3,10,,,,,,,,,,,8457.6718,8458.1706,8458.4041,8460.238,space,1.8046,,8460.238,61,19,8461.2373,8461.2374,8461.2622,,,,0,4,4,4,1,30,130,,,,,,,,
,,5f56253b816a8722d0af90f5,,2023-12-16_15h22.56.542,bars,2023.2.3,Win32,29.94011976,,,,,,8461.2624,8462.2709,,,8462.7701,8463.004,,142,142,,,,,,,,,,,,,,,,bars/004.png,bars/mask002.png,,,,,,,,,,,,4,2,,,,,,,0,10,0,10,,,,,,,,,,,8462.2709,8462.7701,8463.004,8466.67,space,3.6534,,8466.6701,63,17,8467.6691,8467.6691,8467.6768,,,,0,5,5,5,1,25,125,,,,,,,,
,,5f56253b816a8722d0af90f5,,2023-12-16_15h22.56.542,bars,2023.2.3,Win32,29.94011976,,,,,,8467.6769,8468.67,,,8469.1694,8469.4021,,137,137,,,,,,,,,,,,,,,,bars/049.png,bars/mask006.png,,,,,,,,,,,,3,2,,,,,,,2,10,1,10,,,,,,,,,,,8468.6701,8469.1693,8469.4021,8471.6361,space,2.2027,,8471.6361,23,22,8472.6358,8472.6359,8472.6591,,,,0,6,6,6,1,160,115,,,,,,,,
,,5f56253b816a8722d0af90f5,,2023-12-16_15h22.56.542,bars,2023.2.3,Win32,29.94011976,,,,,,8472.6593,8473.6353,,,8474.1352,8474.3693,,43,43,,,,,,,,,,,,,,,,bars/007.png,bars/mask003.png,,,,,,,,,,,,5,2,,,,,,,0,10,0,9,,,,,,,,,,,8473.6355,8474.1352,8474.3693,8475.3346,space,0.9356,,8475.3347,48,12,8476.335,8476.3352,8476.3371,,,,0,7,7,7,1,175,55,,,,,,,,
,,5f56253b816a8722d0af90f5,,2023-12-16_15h22.56.542,bars,2023.2.3,Win32,29.94011976,,,,,,8476.3377,8477.3348,,,8477.8346,8478.0677,,43,43,,,,,,,,,,,,,,,,bars/010.png,bars/mask007.png,,,,,,,,,,,,4,2,,,,,,,2,8,2,7,,,,,,,,,,,8477.3349,8477.8345,8478.0678,8480.335,space,2.2417,,8480.335,58,12,8481.3342,8481.3343,8481.3586,,,,0,8,8,8,1,165,55,,,,,,,,
,,5f56253b816a8722d0af90f5,,2023-12-16_15h22.56.542,bars,2023.2.3,Win32,29.94011976,,,,,,8481.3588,8482.3342,,,8482.8334,8483.0673,,44,44,,,,,,,,,,,,,,,,bars/029.png,bars/mask006.png,,,,,,,,,,,,6,2,,,,,,,0,6,1,6,,,,,,,,,,,8482.3342,8482.8334,8483.0674,8487.1003,space,4.0217,,8487.1004,46,1,8488.0995,8488.0996,8488.1183,,,,0,9,9,9,1,90,45,,,,,,,,
,,5f56253b816a8722d0af90f5,,2023-12-16_15h22.56.542,bars,2023.2.3,Win32,29.94011976,,,,,,8488.1185,8489.1002,,,8489.5998,8489.8324,,54,54,,,,,,,,,,,,,,,,bars/025.png,bars/mask006.png,,,,,,,,,,,,4,2,,,,,,,2,8,2,7,,,,,,,,,,,8489.1003,8489.5998,8489.8324,8492.7656,space,2.9201,,8492.7656,51,14,8493.7658,8493.7659,8493.7897,,,,0,10,10,10,1,105,40,,,,,,,,
,,5f56253b816a8722d0af90f5,,2023-12-16_15h22.56.542,bars,2023.2.3,Win32,29.94011976,,,,,,8493.7898,8494.7657,,,8495.2656,8495.4991,,156,-24,,,,,,,,,,,,,,,,bars/044.png,bars/mask008.png,,,,,,,,,,,,6,2,,,,,,,0,6,0,6,,,,,,,,,,,8494.7659,8495.2655,8495.4992,8497.5987,space,2.0664,,8497.5987,81,1,8498.5983,8498.5984,8498.6002,,,,0,11,11,11,1,75,155,,,,,,,,
,,5f56253b816a8722d0af90f5,,2023-12-16_15h22.56.542,bars,2023.2.3,Win32,29.94011976,,,,,,8498.6008,8499.5982,,,8500.0983,8500.3314,,73,73,,,,,,,,,,,,,,,,bars/021.png,bars/mask006.png,,,,,,,,,,,,5,2,,,,,,,0,4,0,5,,,,,,,,,,,8499.5982,8500.0982,8500.3315,8502.7971,space,2.4466,,8502.7972,82,3,8503.7971,8503.7972,8503.8232,,,,0,12,12,12,1,155,70,,,,,,,,
,,5f56253b816a8722d0af90f5,,2023-12-16_15h22.56.542,bars,2023.2.3,Win32,29.94011976,,,,,,8503.8234,8504.83,,,8505.3307,8505.5639,,104,104,,,,,,,,,,,,,,,,bars/006.png,bars/mask009.png,,,,,,,,,,,,3,2,,,,,,,2,2,2,3,,,,,,,,,,,8504.83,8505.3306,8505.564,8508.0635,space,2.4691,,8508.0635,69,4,8509.0633,8509.0634,8509.0653,,,,0,13,13,13,1,35,100,,,,,,,,
,,5f56253b816a8722d0af90f5,,2023-12-16_15h22.56.542,bars,2023.2.3,Win32,29.94011976,,,,,,8509.066,8510.0632,,,8510.5631,8510.7961,,4,184,,,,,,,,,,,,,,,,bars/015.png,bars/mask000.png,,,,,,,,,,,,1,2,,,,,,,4,4,5,4,,,,,,,,,,,8510.0632,8510.563,8510.7963,8514.7286,space,3.9213,,8514.7286,74,24,8515.729,8515.729,8515.7534,,,,0,14,14,14,1,110,160,,,,,,,,
,,5f56253b816a8722d0af90f5,,2023-12-16_15h22.56.542,bars,2023.2.3,Win32,29.94011976,,,,,,8515.7536,8516.7288,,,8517.2292,8517.462,,94,94,,,,,,,,,,,,,,,,bars/006.png,bars/mask006.png,,,,,,,,,,,,2,2,,,,,,,2,6,0,3,,,,,,,,,,,8516.7288,8517.2292,8517.4621,8519.3618,space,1.8786,,8519.3619,59,6,8520.3608,8520.3608,8520.3615,,,,0,15,15,15,1,35,100,,,,,,,,
,,5f56253b816a8722d0af90f5,,2023-12-16_15h22.56.542,bars,2023.2.3,Win32,29.94011976,,,,,,8520.3618,8521.3607,,,8521.8618,8522.0947,,160,-20,,,,,,,,,,,,,,,,bars/044.png,bars/mask000.png,,,,,,,,,,,,3,2,,,,,,,4,4,3,4,,,,,,,,,,,8521.3608,8521.8617,8522.0948,8525.8608,space,3.7538,,8525.861,85,5,8526.8606,8526.8607,8526.886,,,,0,16,16,16,1,75,155,,,,,,,,
,,5f56253b816a8722d0af90f5,,2023-12-16_15h22.56.542,bars,2023.2.3,Win32,29.94011976,,,,,,8526.8863,8527.8935,,,8528.3937,8528.627,,175,-5,,,,,,,,,,,,,,,,bars/013.png,bars/mask001.png,,,,,,,,,,,,3,2,,,,,,,2,6,3,5,,,,,,,,,,,8527.8937,8528.3936,8528.627,8531.3932,space,2.7469,,8531.3932,80,15,8532.393,8532.3931,8532.404,,,,0,17,17,17,1,75,10,,,,,,,,
,,5f56253b816a8722d0af90f5,,2023-12-16_15h22.56.542,bars,2023.2.3,Win32,29.94011976,,,,,,8532.4041,8533.3919,,,8533.8926,8534.1258,,173,-7,,,,,,,,,,,,,,,,bars/008.png,bars/mask004.png,,,,,,,,,,,,6,2,,,,,,,4,8,5,8,,,,,,,,,,,8533.3919,8533.8926,8534.1259,8537.2589,space,3.1112,,8537.259,63,7,8538.2589,8538.259,8538.2825,,,,0,18,18,18,1,110,0,,,,,,,,
,,5f56253b816a8722d0af90f5,,2023-12-16_15h22.56.542,bars,2023.2.3,Win32,29.94011976,,,,,,8538.2828,8539.2588,,,8539.7583,8539.9919,,176,-4,,,,,,,,,,,,,,,,bars/045.png,bars/mask006.png,,,,,,,,,,,,5,2,,,,,,,6,10,7,10,,,,,,,,,,,8539.2588,8539.7582,8539.9919,8543.2909,space,3.2666,,8543.291,76,14,8544.291,8544.291,8544.3148,,,,0,19,19,19,1,100,10,,,,,,,,
,,5f56253b816a8722d0af90f5,,2023-12-16_15h22.56.542,bars,2023.2.3,Win32,29.94011976,,,,,,8544.315,8545.2901,,,8545.7908,8546.0243,,92,92,,,,,,,,,,,,,,,,bars/006.png,bars/mask007.png,,,,,,,,,,,,7,2,,,,,,,8,10,8,10,,,,,,,,,,,8545.2901,8545.7908,8546.0244,8548.6239,space,2.5646,,8548.624,57,8,8549.6236,8549.6237,8549.6479,,,,0,20,20,20,1,35,100,,,,,,,,
,,5f56253b816a8722d0af90f5,,2023-12-16_15h22.56.542,bars,2023.2.3,Win32,29.94011976,,,,,,8549.6481,8550.6234,,,8551.1235,8551.3564,,144,144,,,,,,,,,,,,,,,,bars/004.png,bars/mask002.png,,,,,,,,,,,,3,2,,,,,,,10,8,10,8,,,,,,,,,,,8550.6236,8551.1234,8551.3564,8552.9899,space,1.6215,,8552.9899,61,19,8553.9898,8553.9899,8554.0141,,,,0,21,21,21,1,25,125,,,,,,,,
,,5f56253b816a8722d0af90f5,,2023-12-16_15h22.56.542,bars,2023.2.3,Win32,29.94011976,,,,,,8554.0143,8555.0225,,,8555.5225,8555.7552,,169,169,,,,,,,,,,,,,,,,bars/048.png,bars/mask006.png,,,,,,,,,,,,8,2,,,,,,,10,10,10,10,,,,,,,,,,,8555.0226,8555.5224,8555.7552,8558.9555,space,3.1762,,8558.9555,61,6,8559.955,8559.9551,8559.9654,,,,0,22,22,22,1,50,175,,,,,,,,
,,5f56253b816a8722d0af90f5,,2023-12-16_15h22.56.542,bars,2023.2.3,Win32,29.94011976,,,,,,8559.9655,8560.955,,,8561.455,8561.6885,,4,184,,,,,,,,,,,,,,,,bars/014.png,bars/mask000.png,,,,,,,,,,,,7,2,,,,,,,8,8,8,8,,,,,,,,,,,8560.955,8561.4549,8561.6885,8563.1546,space,1.4399,,8563.1546,76,4,8564.1545,8564.1545,8564.1565,,,,0,23,23,23,1,80,0,,,,,,,,
,,5f56253b816a8722d0af90f5,,2023-12-16_15h22.56.542,bars,2023.2.3,Win32,29.94011976,,,,,,8564.1573,8565.1542,,,8565.6545,8565.887,,174,-6,,,,,,,,,,,,,,,,bars/016.png,bars/mask009.png,,,,,,,,,,,,7,2,,,,,,,6,10,5,10,,,,,,,,,,,8565.1543,8565.6544,8565.887,8569.1205,space,3.2151,,8569.1206,46,9,8570.12,8570.1202,8570.1455,,,,0,24,24,24,1,40,165,,,,,,,,
,,5f56253b816a8722d0af90f5,,2023-12-16_15h22.56.542,bars,2023.2.3,Win32,29.94011976,,,,,,8570.1458,8571.1535,,,8571.6533,8571.8865,,168,-12,,,,,,,,,,,,,,,,bars/008.png,bars/mask003.png,,,,,,,,,,,,6,2,,,,,,,4,10,6,10,,,,,,,,,,,8571.1535,8571.6532,8571.8865,8574.4198,space,2.5145,,8574.42,58,12,8575.4195,8575.4196,8575.4439,,,,0,25,25,25,1,110,0,,,,,,,,
,,5f56253b816a8722d0af90f5,,2023-12-16_15h22.56.542,bars,2023.2.3,Win32,29.94011976,,,,,,8575.4441,8576.4195,,,8576.9185,8577.152,,167,-13,,,,,,,,,,,,,,,,bars/044.png,bars/mask005.png,,,,,,,,,,,,5,2,,,,,,,2,8,1,8,,,,,,,,,,,8576.4196,8576.9185,8577.152,8580.518,space,3.3353,,8580.5181,88,12,8581.5185,8581.5186,8581.5426,,,,0,26,26,26,1,75,155,,,,,,,,
,,5f56253b816a8722d0af90f5,,2023-12-16_15h22.56.542,bars,2023.2.3,Win32,29.94011976,,,,,,8581.5428,8582.5513,,,8583.0515,8583.285,,72,72,,,,,,,,,,,,,,,,bars/047.png,bars/mask003.png,,,,,,,,,,,,7,2,,,,,,,4,10,4,8,,,,,,,,,,,8582.5513,8583.0513,8583.285,8586.9502,space,3.6375,,8586.9502,57,2,8587.9505,8587.9506,8587.9736,,,,0,27,27,27,1,15,70,,,,,,,,
,,5f56253b816a8722d0af90f5,,2023-12-16_15h22.56.542,bars,2023.2.3,Win32,29.94011976,,,,,,8587.9738,8588.9506,,,8589.4511,8589.6843,,107,107,,,,,,,,,,,,,,,,bars/028.png,bars/mask004.png,,,,,,,,,,,,6,2,,,,,,,6,8,7,10,,,,,,,,,,,8588.9507,8589.4509,8589.6844,8592.5169,space,2.7986,,8592.5171,62,13,8593.5165,8593.5166,8593.5418,,,,0,28,28,28,1,45,120,,,,,,,,
,,5f56253b816a8722d0af90f5,,2023-12-16_15h22.56.542,bars,2023.2.3,Win32,29.94011976,,,,,,8593.542,8594.5499,,,8595.0497,8595.2823,,105,105,,,,,,,,,,,,,,,,bars/039.png,bars/mask000.png,,,,,,,,,,,,6,2,,,,,,,4,6,3,6,,,,,,,,,,,8594.5499,8595.0496,8595.2823,8597.1825,space,1.8698,,8597.1826,70,0,8598.1826,8598.1827,8598.1938,,,,0,29,29,29,1,175,105,,,,,,,,
,,5f56253b816a8722d0af90f5,,2023-12-16_15h22.56.542,bars,2023.2.3,Win32,29.94011976,,,,,,8598.1939,8599.1824,,,8599.6824,8599.9153,,92,92,,,,,,,,,,,,,,,,bars/019.png,bars/mask005.png,,,,,,,,,,,,4,2,,,,,,,6,8,6,7,,,,,,,,,,,8599.1825,8599.6823,8599.9153,8602.282,space,2.3433,,8602.2821,47,13,8603.2816,8603.2817,8603.2835,,,,0,30,30,30,1,45,105,,,,,,,,
,,5f56253b816a8722d0af90f5,,2023-12-16_15h22.56.542,bars,2023.2.3,Win32,29.94011976,,,,,,8603.2843,8604.2814,,,8604.7805,8605.0148,,110,110,,,,,,,,,,,,,,,,bars/049.png,bars/mask002.png,,,,,,,,,,,,8,2,,,,,,,8,10,8,10,,,,,,,,,,,8604.2816,8604.7805,8605.0148,8606.3482,space,1.3015,,8606.3483,50,5,8607.3478,8607.3479,8607.3738,,,,0,31,31,31,1,160,115,,,,,,,,
,,5f56253b816a8722d0af90f5,,2023-12-16_15h22.56.542,bars,2023.2.3,Win32,29.94011976,,,,,,8607.374,8608.381,,,8608.8808,8609.1141,,15,15,,,,,,,,,,,,,,,,bars/032.png,bars/mask006.png,,,,,,,,,,,,6,2,,,,,,,6,8,5,7,,,,,,,,,,,8608.381,8608.8807,8609.1142,8610.0474,space,0.9146,,8610.0475,70,5,8611.0471,8611.0471,8611.0488,,,,0,32,32,32,1,125,20,,,,,,,,
,,5f56253b816a8722d0af90f5,,2023-12-16_15h22.56.542,bars,2023.2.3,Win32,29.94011976,,,,,,8611.0494,8612.0467,,,8612.5467,8612.78,,103,103,,,,,,,,,,,,,,,,bars/043.png,bars/mask005.png,,,,,,,,,,,,1,2,,,,,,,4,6,2,6,,,,,,,,,,,8612.0468,8612.5466,8612.7801,8613.5467,space,0.7408,,8613.5469,73,27,8614.5464,8614.5464,8614.5481,,,,0,33,33,33,1,30,130,,,,,,,,
,,5f56253b816a8722d0af90f5,,2023-12-16_15h22.56.542,bars,2023.2.3,Win32,29.94011976,,,,,,8614.5489,8615.5463,,,8616.0463,8616.2795,,33,33,,,,,,,,,,,,,,,,bars/022.png,bars/mask001.png,,,,,,,,,,,,5,2,,,,,,,6,8,7,8,,,,,,,,,,,8615.5465,8616.0462,8616.2795,8619.2785,space,2.9645,,8619.2786,62,13,8620.279,8620.2791,8620.3038,,,,0,34,34,34,1,95,20,,,,,,,,
,,5f56253b816a8722d0af90f5,,2023-12-16_15h22.56.542,bars,2023.2.3,Win32,29.94011976,,,,,,8620.304,8621.3121,,,8621.8118,8622.0454,,89,89,,,,,,,,,,,,,,,,bars/006.png,bars/mask009.png,,,,,,,,,,,,3,2,,,,,,,4,6,3,5,,,,,,,,,,,8621.3121,8621.8117,8622.0455,8623.6782,space,1.6011,,8623.6782,54,11,8624.678,8624.678,8624.6798,,,,0,35,35,35,1,35,100,,,,,,,,
,,5f56253b816a8722d0af90f5,,2023-12-16_15h22.56.542,bars,2023.2.3,Win32,29.94011976,,,,,,8624.6804,8625.6781,,,8626.1782,8626.4112,,16,16,,,,,,,,,,,,,,,,bars/045.png,bars/mask003.png,,,,,,,,,,,,7,2,,,,,,,2,8,0,9,,,,,,,,,,,8625.6782,8626.1781,8626.4112,8630.0112,space,3.5671,,8630.0112,84,6,8631.0108,8631.0108,8631.0349,,,,0,36,36,36,1,100,10,,,,,,,,
,,5f56253b816a8722d0af90f5,,2023-12-16_15h22.56.542,bars,2023.2.3,Win32,29.94011976,,,,,,8631.0351,8632.0104,,,8632.5104,8632.7437,,100,100,,,,,,,,,,,,,,,,bars/009.png,bars/mask007.png,,,,,,,,,,,,4,2,,,,,,,0,6,0,5,,,,,,,,,,,8632.0105,8632.5103,8632.7439,8633.5104,space,0.734,,8633.5106,85,5,8634.5103,8634.5103,8634.5121,,,,0,37,37,37,1,15,105,,,,,,,,
,,5f56253b816a8722d0af90f5,,2023-12-16_15h22.56.542,bars,2023.2.3,Win32,29.94011976,,,,,,8634.5128,8635.5099,,,8636.0102,8636.2433,,105,105,,,,,,,,,,,,,,,,bars/009.png,bars/mask009.png,,,,,,,,,,,,5,2,,,,,,,0,4,1,5,,,,,,,,,,,8635.51,8636.01,8636.2434,8637.7765,space,1.5104,,8637.7766,90,0,8638.776,8638.7761,8638.7777,,,,0,38,38,38,1,15,105,,,,,,,,
,,5f56253b816a8722d0af90f5,,2023-12-16_15h22.56.542,bars,2023.2.3,Win32,29.94011976,,,,,,8638.7784,8639.7756,,,8640.2749,8640.5082,,96,96,,,,,,,,,,,,,,,,bars/026.png,bars/mask002.png,,,,,,,,,,,,2,2,,,,,,,0,2,2,3,,,,,,,,,,,8639.7757,8640.2748,8640.5082,8643.142,space,2.6024,,8643.1421,61,11,8644.1417,8644.1418,8644.1637,,,,0,39,39,39,1,35,85,,,,,,,,
,,5f56253b816a8722d0af90f5,,2023-12-16_15h22.56.542,bars,2023.2.3,Win32,29.94011976,,,,,,8644.1639,8645.1418,,,8645.6417,8645.875,,86,86,,,,,,,,,,,,,,,,bars/042.png,bars/mask000.png,,,,,,,,,,,,3,2,,,,,,,0,4,0,5,,,,,,,,,,,8645.1418,8645.6416,8645.8751,8647.7746,space,1.8908,,8647.7748,59,11,8648.7745,8648.7746,8648.7764,,,,0,40,40,40,1,145,75,,,,,,,,
,,5f56253b816a8722d0af90f5,,2023-12-16_15h22.56.542,bars,2023.2.3,Win32,29.94011976,,,,,,8648.7771,8649.7734,,,8650.2745,8650.5074,,68,68,,,,,,,,,,,,,,,,bars/026.png,bars/mask005.png,,,,,,,,,,,,1,2,,,,,,,0,2,1,2,,,,,,,,,,,8649.7735,8650.2744,8650.5075,8653.5066,space,2.9734,,8653.5066,33,17,8654.5068,8654.5069,8654.5326,,,,0,41,41,41,1,35,85,,,,,,,,
,,5f56253b816a8722d0af90f5,,2023-12-16_15h22.56.542,bars,2023.2.3,Win32,29.94011976,,,,,,8654.5328,8655.54,,,8656.0401,8656.2734,,163,163,,,,,,,,,,,,,,,,bars/033.png,bars/mask001.png,,,,,,,,,,,,1,2,,,,,,,0,0,0,1,,,,,,,,,,,8655.5401,8656.04,8656.2735,8660.3058,space,3.9977,,8660.3058,42,8,8661.3056,8661.3056,8661.3292,,,,0,42,42,42,1,25,155,,,,,,,,
,,5f56253b816a8722d0af90f5,,2023-12-16_15h22.56.542,bars,2023.2.3,Win32,29.94011976,,,,,,8661.3294,8662.3055,,,8662.8054,8663.0383,,105,105,,,,,,,,,,,,,,,,bars/001.png,bars/mask008.png,,,,,,,,,,,,0,2,,,,,,,0,0,2,0,,,,,,,,,,,8662.3056,8662.8053,8663.0383,8668.6048,space,5.5358,,8668.6048,25,20,8669.6047,8669.6048,8669.6291,,,,0,43,43,43,1,130,85,,,,,,,,
,,5f56253b816a8722d0af90f5,,2023-12-16_15h22.56.542,bars,2023.2.3,Win32,29.94011976,,,,,,8669.6292,8670.6375,,,8671.1378,8671.3711,,46,46,,,,,,,,,,,,,,,,bars/035.png,bars/mask006.png,,,,,,,,,,,,1,2,,,,,,,0,0,0,1,,,,,,,,,,,8670.6377,8671.1377,8671.3713,8673.1374,space,1.7322,,8673.1376,51,14,8674.1371,8674.1371,8674.1637,,,,0,44,44,44,1,175,60,,,,,,,,
,,5f56253b816a8722d0af90f5,,2023-12-16_15h22.56.542,bars,2023.2.3,Win32,29.94011976,,,,,,8674.164,8675.1703,,,8675.6702,8675.9034,,107,107,,,,,,,,,,,,,,,,bars/001.png,bars/mask000.png,,,,,,,,,,,,1,2,,,,,,,2,2,1,4,,,,,,,,,,,8675.1704,8675.6701,8675.9034,8678.3703,space,2.4351,,8678.3705,23,22,8679.3694,8679.3695,8679.3713,,,,0,45,45,45,1,130,85,,,,,,,,
,,5f56253b816a8722d0af90f5,,2023-12-16_15h22.56.542,bars,2023.2.3,Win32,29.94011976,,,,,,8679.3719,8680.3689,,,8680.8692,8681.102,,160,-20,,,,,,,,,,,,,,,,bars/005.png,bars/mask000.png,,,,,,,,,,,,1,2,,,,,,,4,4,5,4,,,,,,,,,,,8680.3689,8680.8691,8681.102,8685.5683,space,4.451,,8685.5683,30,20,8686.5686,8686.5686,8686.5935,,,,0,46,46,46,1,10,140,,,,,,,,
,,5f56253b816a8722d0af90f5,,2023-12-16_15h22.56.542,bars,2023.2.3,Win32,29.94011976,,,,,,8686.5938,8687.6017,,,8688.1012,8688.3347,,102,-78,,,,,,,,,,,,,,,,bars/008.png,bars/mask004.png,,,,,,,,,,,,1,1,,,,,,,2,2,1,2,,,,,,,,,,,8687.6017,8688.1011,8688.3347,8692.8675,space,4.522,,8692.8676,8,78,8693.8675,8693.8675,8693.8931,,,,0,47,47,47,1,110,0,,,,,,,,
,,5f56253b816a8722d0af90f5,,2023-12-16_15h22.56.542,bars,2023.2.3,Win32,29.94011976,,,,,,8693.8933,8694.9,,,8695.4005,8695.6329,,30,210,,,,,,,,,,,,,,,,bars/006.png,bars/mask006.png,,,,,,,,,,,,3,1,,,,,,,4,0,4,1,,,,,,,,,,,8694.9,8695.4004,8695.633,8699.5002,space,3.8461,,8699.5003,5,70,8700.4997,8700.4998,8700.5253,,,,0,48,48,48,1,35,100,,,,,,,,
,,5f56253b816a8722d0af90f5,,2023-12-16_15h22.56.542,bars,2023.2.3,Win32,29.94011976,,,,,,8700.5255,8701.5321,,,8702.0326,8702.2661,,31,211,,,,,,,,,,,,,,,,bars/033.png,bars/mask008.png,,,,,,,,,,,,1,1,,,,,,,2,0,1,0,,,,,,,,,,,8701.5322,8702.0326,8702.2662,8707.3984,space,5.0965,,8707.3985,6,56,8708.3983,8708.3983,8708.4209,,,,0,49,49,49,1,25,155,,,,,,,,
,,5f56253b816a8722d0af90f5,,2023-12-16_15h22.56.542,bars,2023.2.3,Win32,29.94011976,,,,,,,,,,,,,,,,,,,,,,,,,,,,,,,,,,,,,,,,,,,,,,,,,,,,,,,,,,,,,,,,,,,,,,,,,,,,,,,,,,,,,,,,8708.4212,8768.4225,0,3,3,1,1,sequence_tables/blk017.csv
,,5f56253b816a8722d0af90f5,,2023-12-16_15h22.56.542,bars,2023.2.3,Win32,29.94011976,,,,,,8770.1911,8771.1886,,,8771.6878,8771.9209,,85,265,,,,,,,,,,,,,,,,bars/018.png,bars/mask005.png,,,,,,,,,,,,6,2,,,,,,,9,7,10,7,,,,,,8768.4442,8770.188,space,1.7106,,8771.1888,8771.6878,8771.9209,8776.0212,space,4.0699,,8776.0212,65,5,8777.0207,8777.0208,8777.0454,,,,0,0,0,0,1,150,90,,,,,,,,
,,5f56253b816a8722d0af90f5,,2023-12-16_15h22.56.542,bars,2023.2.3,Win32,29.94011976,,,,,,8777.0457,8778.0533,,,8778.5531,8778.7871,,79,259,,,,,,,,,,,,,,,,bars/038.png,bars/mask001.png,,,,,,,,,,,,3,2,,,,,,,7,5,7,4,,,,,,,,,,,8778.0533,8778.5531,8778.7872,8783.4198,space,4.5982,,8783.4198,86,9,8784.4193,8784.4193,8784.4393,,,,0,1,1,1,1,165,70,,,,,,,,
,,5f56253b816a8722d0af90f5,,2023-12-16_15h22.56.542,bars,2023.2.3,Win32,29.94011976,,,,,,8784.4395,8785.4194,,,8785.9196,8786.1529,,73,73,,,,,,,,,,,,,,,,bars/002.png,bars/mask001.png,,,,,,,,,,,,4,2,,,,,,,5,7,3,7,,,,,,,,,,,8785.4195,8785.9196,8786.1529,8790.7853,space,4.6033,,8790.7853,57,12,8791.785,8791.7852,8791.8095,,,,0,2,2,2,1,130,85,,,,,,,,
,,5f56253b816a8722d0af90f5,,2023-12-16_15h22.56.542,bars,2023.2.3,Win32,29.94011976,,,,,,8791.8098,8792.8184,,,8793.3183,8793.5516,,79,259,,,,,,,,,,,,,,,,bars/046.png,bars/mask004.png,,,,,,,,,,,,5,2,,,,,,,7,5,6,6,,,,,,,,,,,8792.8185,8793.3183,8793.5517,8798.0842,space,4.5018,,8798.0843,76,6,8799.084,8799.0841,8799.107,,,,0,3,3,3,1,155,85,,,,,,,,
,,5f56253b816a8722d0af90f5,,2023-12-16_15h22.56.542,bars,2023.2.3,Win32,29.94011976,,,,,,8799.1073,8800.0839,,,8800.584,8800.8169,,166,-14,,,,,,,,,,,,,,,,bars/033.png,bars/mask009.png,,,,,,,,,,,,4,2,,,,,,,9,7,9,7,,,,,,,,,,,8800.084,8800.5839,8800.8171,8804.7497,space,3.9238,,8804.7498,39,11,8805.7489,8805.749,8805.7605,,,,0,4,4,4,1,25,155,,,,,,,,
,,5f56253b816a8722d0af90f5,,2023-12-16_15h22.56.542,bars,2023.2.3,Win32,29.94011976,,,,,,8805.7606,8806.7493,,,8807.2497,8807.4827,,58,58,,,,,,,,,,,,,,,,bars/007.png,bars/mask002.png,,,,,,,,,,,,5,2,,,,,,,7,5,6,5,,,,,,,,,,,8806.7494,8807.2496,8807.4827,8810.515,space,3.0093,,8810.5151,63,3,8811.5153,8811.5153,8811.5412,,,,0,5,5,5,1,175,55,,,,,,,,
,,5f56253b816a8722d0af90f5,,2023-12-16_15h22.56.542,bars,2023.2.3,Win32,29.94011976,,,,,,8811.5415,8812.5512,,,8813.0489,8813.282,,86,86,,,,,,,,,,,,,,,,bars/018.png,bars/mask008.png,,,,,,,,,,,,3,2,,,,,,,5,3,5,3,,,,,,,,,,,8812.5513,8813.0488,8813.2821,8816.5481,space,3.2348,,8816.5481,64,4,8817.5477,8817.5478,8817.5732,,,,0,6,6,6,1,150,90,,,,,,,,
,,5f56253b816a8722d0af90f5,,2023-12-16_15h22.56.542,bars,2023.2.3,Win32,29.94011976,,,,,,8817.5735,8818.581,,,8819.0807,8819.3143,,71,71,,,,,,,,,,,,,,,,bars/042.png,bars/mask006.png,,,,,,,,,,,,2,2,,,,,,,7,1,7,2,,,,,,,,,,,8818.581,8819.0807,8819.3145,8821.9474,space,2.6106,,8821.9474,74,4,8822.9466,8822.9467,8822.9696,,,,0,7,7,7,1,145,75,,,,,,,,
,,5f56253b816a8722d0af90f5,,2023-12-16_15h22.56.542,bars,2023.2.3,Win32,29.94011976,,,,,,8822.9697,8823.9469,,,8824.4465,8824.6795,,27,207,,,,,,,,,,,,,,,,bars/013.png,bars/mask000.png,,,,,,,,,,,,1,2,,,,,,,9,3,9,3,,,,,,,,,,,8823.947,8824.4464,8824.6795,8828.6793,space,3.9925,,8828.6793,48,17,8829.6795,8829.6796,8829.7019,,,,0,8,8,8,1,75,10,,,,,,,,
,,5f56253b816a8722d0af90f5,,2023-12-16_15h22.56.542,bars,2023.2.3,Win32,29.94011976,,,,,,8829.702,8830.6788,,,8831.1791,8831.4116,,5,5,,,,,,,,,,,,,,,,bars/040.png,bars/mask007.png,,,,,,,,,,,,8,2,,,,,,,10,5,10,8,,,,,,,,,,,8830.6789,8831.179,8831.4116,8832.979,space,1.5587,,8832.9791,45,0,8833.9782,8833.9783,8833.9797,,,,0,9,9,9,1,140,5,,,,,,,,
,,5f56253b816a8722d0af90f5,,2023-12-16_15h22.56.542,bars,2023.2.3,Win32,29.94011976,,,,,,8833.9802,8834.9782,,,8835.4781,8835.7108,,27,207,,,,,,,,,,,,,,,,bars/035.png,bars/mask000.png,,,,,,,,,,,,0,1,,,,,,,8,7,7,5,,,,,,,,,,,8834.9782,8835.4781,8835.7109,8838.4446,space,2.7096,,8838.4448,32,33,8839.4446,8839.4448,8839.4695,,,,0,10,10,10,1,175,60,,,,,,,,
,,5f56253b816a8722d0af90f5,,2023-12-16_15h22.56.542,bars,2023.2.3,Win32,29.94011976,,,,,,8839.4698,8840.477,,,8840.9772,8841.2109,,106,106,,,,,,,,,,,,,,,,bars/039.png,bars/mask002.png,,,,,,,,,,,,5,2,,,,,,,10,5,10,5,,,,,,,,,,,8840.477,8840.9771,8841.211,8844.0439,space,2.8034,,8844.044,69,1,8845.0436,8845.0437,8845.0696,,,,0,11,11,11,1,175,105,,,,,,,,
,,5f56253b816a8722d0af90f5,,2023-12-16_15h22.56.542,bars,2023.2.3,Win32,29.94011976,,,,,,8845.0697,8846.0764,,,8846.5758,8846.8087,,6,6,,,,,,,,,,,,,,,,bars/016.png,bars/mask006.png,,,,,,,,,,,,1,2,,,,,,,10,3,8,2,,,,,,,,,,,8846.0765,8846.5758,8846.8087,8849.776,space,2.9361,,8849.7762,34,21,8850.7748,8850.7749,8850.7825,,,,0,12,12,12,1,40,165,,,,,,,,
,,5f56253b816a8722d0af90f5,,2023-12-16_15h22.56.542,bars,2023.2.3,Win32,29.94011976,,,,,,8850.7826,8851.7756,,,8852.2755,8852.5088,,169,169,,,,,,,,,,,,,,,,bars/043.png,bars/mask000.png,,,,,,,,,,,,0,2,,,,,,,8,5,7,5,,,,,,,,,,,8851.7756,8852.2754,8852.5089,8853.5418,space,0.9968,,8853.5419,41,39,8854.5409,8854.5409,8854.5504,,,,0,13,13,13,1,30,130,,,,,,,,
,,5f56253b816a8722d0af90f5,,2023-12-16_15h22.56.542,bars,2023.2.3,Win32,29.94011976,,,,,,8854.5506,8855.5415,,,8856.0418,8856.2749,,44,44,,,,,,,,,,,,,,,,bars/035.png,bars/mask006.png,,,,,,,,,,,,3,2,,,,,,,10,7,9,6,,,,,,,,,,,8855.5416,8856.0417,8856.2749,8858.441,space,2.1493,,8858.4411,49,16,8859.4409,8859.441,8859.4658,,,,0,14,14,14,1,175,60,,,,,,,,
,,5f56253b816a8722d0af90f5,,2023-12-16_15h22.56.542,bars,2023.2.3,Win32,29.94011976,,,,,,8859.466,8860.4743,,,8860.9736,8861.2076,,171,-9,,,,,,,,,,,,,,,,bars/016.png,bars/mask000.png,,,,,,,,,,,,8,2,,,,,,,8,9,9,10,,,,,,,,,,,8860.4743,8860.9736,8861.2076,8864.9733,space,3.7567,,8864.9735,49,6,8865.9735,8865.9736,8865.9975,,,,0,15,15,15,1,40,165,,,,,,,,
,,5f56253b816a8722d0af90f5,,2023-12-16_15h22.56.542,bars,2023.2.3,Win32,29.94011976,,,,,,8865.9977,8866.973,,,8867.4731,8867.7064,,13,13,,,,,,,,,,,,,,,,bars/002.png,bars/mask004.png,,,,,,,,,,,,0,1,,,,,,,6,10,6,10,,,,,,,,,,,8866.9732,8867.473,8867.7065,8871.1726,space,3.4483,,8871.1726,63,72,8872.1716,8872.1716,8872.1807,,,,0,16,16,16,1,130,85,,,,,,,,
,,5f56253b816a8722d0af90f5,,2023-12-16_15h22.56.542,bars,2023.2.3,Win32,29.94011976,,,,,,8872.1808,8873.1717,,,8873.6724,8873.9055,,33,33,,,,,,,,,,,,,,,,bars/022.png,bars/mask000.png,,,,,,,,,,,,5,2,,,,,,,8,10,8,8,,,,,,,,,,,8873.1718,8873.6723,8873.9056,8877.9381,space,4.0014,,8877.9382,62,13,8878.9381,8878.9382,8878.9644,,,,0,17,17,17,1,95,20,,,,,,,,
,,5f56253b816a8722d0af90f5,,2023-12-16_15h22.56.542,bars,2023.2.3,Win32,29.94011976,,,,,,8878.9646,8879.9712,,,8880.4712,8880.7041,,152,152,,,,,,,,,,,,,,,,bars/044.png,bars/mask006.png,,,,,,,,,,,,9,2,,,,,,,10,10,10,10,,,,,,,,,,,8879.9712,8880.4712,8880.7041,8882.6379,space,1.9175,,8882.638,77,3,8883.6374,8883.6374,8883.6611,,,,0,18,18,18,1,75,155,,,,,,,,
,,5f56253b816a8722d0af90f5,,2023-12-16_15h22.56.542,bars,2023.2.3,Win32,29.94011976,,,,,,8883.6612,8884.637,,,8885.1372,8885.3706,,76,76,,,,,,,,,,,,,,,,bars/042.png,bars/mask002.png,,,,,,,,,,,,10,2,,,,,,,8,10,8,10,,,,,,,,,,,8884.637,8885.1372,8885.3706,8889.6035,space,4.2154,,8889.6036,69,1,8890.6029,8890.603,8890.6277,,,,0,19,19,19,1,145,75,,,,,,,,
,,5f56253b816a8722d0af90f5,,2023-12-16_15h22.56.542,bars,2023.2.3,Win32,29.94011976,,,,,,8890.6279,8891.636,,,8892.1352,8892.3697,,2,182,,,,,,,,,,,,,,,,bars/008.png,bars/mask008.png,,,,,,,,,,,,9,2,,,,,,,6,10,6,10,,,,,,,,,,,8891.6361,8892.1351,8892.3697,8894.8354,space,2.4466,,8894.8355,72,2,8895.835,8895.8351,8895.8594,,,,0,20,20,20,1,110,0,,,,,,,,
,,5f56253b816a8722d0af90f5,,2023-12-16_15h22.56.542,bars,2023.2.3,Win32,29.94011976,,,,,,8895.8596,8896.8352,,,8897.3349,8897.5683,,91,-89,,,,,,,,,,,,,,,,bars/023.png,bars/mask003.png,,,,,,,,,,,,2,2,,,,,,,8,10,10,10,,,,,,,,,,,8896.8353,8897.3349,8897.5683,8903.1346,space,5.5338,,8903.1347,71,24,8904.134,8904.1341,8904.1577,,,,0,21,21,21,1,20,115,,,,,,,,
,,5f56253b816a8722d0af90f5,,2023-12-16_15h22.56.542,bars,2023.2.3,Win32,29.94011976,,,,,,8904.158,8905.1661,,,8905.6665,8905.9003,,10,190,,,,,,,,,,,,,,,,bars/036.png,bars/mask000.png,,,,,,,,,,,,5,2,,,,,,,6,8,8,8,,,,,,,,,,,8905.1662,8905.6665,8905.9003,8908.267,space,2.3345,,8908.2672,45,10,8909.2665,8909.2666,8909.2909,,,,0,22,22,22,1,145,20,,,,,,,,
,,5f56253b816a8722d0af90f5,,2023-12-16_15h22.56.542,bars,2023.2.3,Win32,29.94011976,,,,,,8909.2911,8910.2999,,,8910.7997,8911.0322,,166,-14,,,,,,,,,,,,,,,,bars/044.png,bars/mask002.png,,,,,,,,,,,,6,2,,,,,,,8,10,7,9,,,,,,,,,,,8910.3,8910.7996,8911.0323,8914.2994,space,3.25,,8914.2995,89,11,8915.2988,8915.2988,8915.325,,,,0,23,23,23,1,75,155,,,,,,,,
,,5f56253b816a8722d0af90f5,,2023-12-16_15h22.56.542,bars,2023.2.3,Win32,29.94011976,,,,,,8915.3253,8916.3322,,,8916.8322,8917.0652,,45,45,,,,,,,,,,,,,,,,bars/017.png,bars/mask008.png,,,,,,,,,,,,10,2,,,,,,,6,10,7,10,,,,,,,,,,,8916.3322,8916.8321,8917.0652,8917.6325,space,0.5398,,8917.6325,80,0,8918.6311,8918.6311,8918.6321,,,,0,24,24,24,1,145,45,,,,,,,,
,,5f56253b816a8722d0af90f5,,2023-12-16_15h22.56.542,bars,2023.2.3,Win32,29.94011976,,,,,,8918.6326,8919.6315,,,8920.1314,8920.3645,,178,-2,,,,,,,,,,,,,,,,bars/032.png,bars/mask009.png,,,,,,,,,,,,2,2,,,,,,,4,8,4,8,,,,,,,,,,,8919.6316,8920.1313,8920.3645,8921.9985,space,1.6057,,8921.9987,53,22,8922.9977,8922.9978,8923.0234,,,,0,25,25,25,1,125,20,,,,,,,,
,,5f56253b816a8722d0af90f5,,2023-12-16_15h22.56.542,bars,2023.2.3,Win32,29.94011976,,,,,,8923.0236,8924.0309,,,8924.5308,8924.7641,,1,181,,,,,,,,,,,,,,,,bars/040.png,bars/mask004.png,,,,,,,,,,,,9,2,,,,,,,2,10,3,10,,,,,,,,,,,8924.0309,8924.5307,8924.7641,8927.0309,space,2.234,,8927.031,41,4,8928.0303,8928.0305,8928.0422,,,,0,26,26,26,1,140,5,,,,,,,,
,,5f56253b816a8722d0af90f5,,2023-12-16_15h22.56.542,bars,2023.2.3,Win32,29.94011976,,,,,,8928.0423,8929.03,,,8929.5299,8929.7632,,88,88,,,,,,,,,,,,,,,,bars/018.png,bars/mask007.png,,,,,,,,,,,,8,2,,,,,,,0,8,0,9,,,,,,,,,,,8929.0301,8929.5299,8929.7633,8931.3297,space,1.5429,,8931.3298,62,2,8932.3295,8932.3296,8932.3314,,,,0,27,27,27,1,150,90,,,,,,,,
,,5f56253b816a8722d0af90f5,,2023-12-16_15h22.56.542,bars,2023.2.3,Win32,29.94011976,,,,,,8932.332,8933.3294,,,8933.8294,8934.0627,,54,54,,,,,,,,,,,,,,,,bars/007.png,bars/mask008.png,,,,,,,,,,,,10,2,,,,,,,0,10,0,10,,,,,,,,,,,8933.3294,8933.8294,8934.0628,8936.0957,space,2.0006,,8936.0958,59,1,8937.0953,8937.0953,8937.1207,,,,0,28,28,28,1,175,55,,,,,,,,
,,5f56253b816a8722d0af90f5,,2023-12-16_15h22.56.542,bars,2023.2.3,Win32,29.94011976,,,,,,8937.1209,8938.1286,,,8938.6281,8938.8618,,86,86,,,,,,,,,,,,,,,,bars/049.png,bars/mask009.png,,,,,,,,,,,,0,2,,,,,,,2,10,2,9,,,,,,,,,,,8938.1287,8938.628,8938.8619,8939.6289,space,0.7338,,8939.629,74,29,8940.6285,8940.6285,8940.6305,,,,0,29,29,29,1,160,115,,,,,,,,
,,5f56253b816a8722d0af90f5,,2023-12-16_15h22.56.542,bars,2023.2.3,Win32,29.94011976,,,,,,8940.6313,8941.6275,,,8942.1279,8942.3607,,174,174,,,,,,,,,,,,,,,,bars/033.png,bars/mask005.png,,,,,,,,,,,,3,2,,,,,,,0,8,0,8,,,,,,,,,,,8941.6275,8942.1277,8942.3607,8943.9945,space,1.6045,,8943.9946,31,19,8944.9942,8944.9942,8945.0174,,,,0,30,30,30,1,25,155,,,,,,,,
,,5f56253b816a8722d0af90f5,,2023-12-16_15h22.56.542,bars,2023.2.3,Win32,29.94011976,,,,,,8945.0176,8945.9941,,,8946.4934,8946.7269,,32,32,,,,,,,,,,,,,,,,bars/025.png,bars/mask004.png,,,,,,,,,,,,7,2,,,,,,,2,10,3,9,,,,,,,,,,,8945.9941,8946.4933,8946.727,8947.6941,space,0.9384,,8947.6944,73,8,8948.6931,8948.6932,8948.7104,,,,0,31,31,31,1,105,40,,,,,,,,
,,5f56253b816a8722d0af90f5,,2023-12-16_15h22.56.542,bars,2023.2.3,Win32,29.94011976,,,,,,8948.7106,8949.6936,,,8950.1925,8950.4262,,71,71,,,,,,,,,,,,,,,,bars/019.png,bars/mask005.png,,,,,,,,,,,,0,1,,,,,,,4,10,3,10,,,,,,,,,,,8949.6937,8950.1925,8950.4263,8953.926,space,3.4753,,8953.9261,26,34,8954.9258,8954.9258,8954.9507,,,,0,32,32,32,1,45,105,,,,,,,,
,,5f56253b816a8722d0af90f5,,2023-12-16_15h22.56.542,bars,2023.2.3,Win32,29.94011976,,,,,,8954.9509,8955.9596,,,8956.4593,8956.6922,,171,171,,,,,,,,,,,,,,,,bars/044.png,bars/mask001.png,,,,,,,,,,,,5,2,,,,,,,2,10,4,10,,,,,,,,,,,8955.9596,8956.4592,8956.6923,8958.3919,space,1.6659,,8958.3921,84,16,8959.392,8959.3921,8959.4189,,,,0,33,33,33,1,75,155,,,,,,,,
,,5f56253b816a8722d0af90f5,,2023-12-16_15h22.56.542,bars,2023.2.3,Win32,29.94011976,,,,,,8959.4192,8960.4249,,,8960.9249,8961.1581,,85,85,,,,,,,,,,,,,,,,bars/001.png,bars/mask008.png,,,,,,,,,,,,8,2,,,,,,,0,8,0,8,,,,,,,,,,,8960.425,8960.9249,8961.1582,8964.258,space,3.0808,,8964.2581,45,0,8965.257,8965.257,8965.2648,,,,0,34,34,34,1,130,85,,,,,,,,
,,5f56253b816a8722d0af90f5,,2023-12-16_15h22.56.542,bars,2023.2.3,Win32,29.94011976,,,,,,8965.265,8966.2573,,,8966.7577,8966.9908,,49,49,,,,,,,,,,,,,,,,bars/025.png,bars/mask009.png,,,,,,,,,,,,4,2,,,,,,,2,6,2,6,,,,,,,,,,,8966.2574,8966.7575,8966.9909,8970.89,space,3.8722,,8970.8901,56,9,8971.8899,8971.8899,8971.9108,,,,0,35,35,35,1,105,40,,,,,,,,
,,5f56253b816a8722d0af90f5,,2023-12-16_15h22.56.542,bars,2023.2.3,Win32,29.94011976,,,,,,8971.911,8972.8898,,,8973.3899,8973.623,,14,194,,,,,,,,,,,,,,,,bars/036.png,bars/mask006.png,,,,,,,,,,,,3,2,,,,,,,4,4,4,4,,,,,,,,,,,8972.8898,8973.3899,8973.623,8977.122,space,3.4738,,8977.122,49,6,8978.1223,8978.1224,8978.1465,,,,0,36,36,36,1,145,20,,,,,,,,
,,5f56253b816a8722d0af90f5,,2023-12-16_15h22.56.542,bars,2023.2.3,Win32,29.94011976,,,,,,8978.1467,8979.1222,,,8979.6221,8979.8553,,127,127,,,,,,,,,,,,,,,,bars/004.png,bars/mask001.png,,,,,,,,,,,,7,2,,,,,,,2,6,3,8,,,,,,,,,,,8979.1222,8979.622,8979.8553,8982.7548,space,2.8663,,8982.7549,78,2,8983.7545,8983.7546,8983.7786,,,,0,37,37,37,1,25,125,,,,,,,,
,,5f56253b816a8722d0af90f5,,2023-12-16_15h22.56.542,bars,2023.2.3,Win32,29.94011976,,,,,,8983.7788,8984.7542,,,8985.254,8985.4877,,28,208,,,,,,,,,,,,,,,,bars/017.png,bars/mask008.png,,,,,,,,,,,,3,2,,,,,,,4,8,4,7,,,,,,,,,,,8984.7544,8985.254,8985.4878,8988.7535,space,3.2505,,8988.7535,63,17,8989.7538,8989.7539,8989.7784,,,,0,38,38,38,1,145,45,,,,,,,,
,,5f56253b816a8722d0af90f5,,2023-12-16_15h22.56.542,bars,2023.2.3,Win32,29.94011976,,,,,,8989.7787,8990.7538,,,8991.2539,8991.4868,,82,82,,,,,,,,,,,,,,,,bars/002.png,bars/mask002.png,,,,,,,,,,,,9,2,,,,,,,6,10,5,10,,,,,,,,,,,8990.7539,8991.2538,8991.4868,8993.5207,space,2.0001,,8993.5209,48,3,8994.5198,8994.5198,8994.5215,,,,0,39,39,39,1,130,85,,,,,,,,
,,5f56253b816a8722d0af90f5,,2023-12-16_15h22.56.542,bars,2023.2.3,Win32,29.94011976,,,,,,8994.5222,8995.5195,,,8996.02,8996.2528,,89,89,,,,,,,,,,,,,,,,bars/026.png,bars/mask004.png,,,,,,,,,,,,7,2,,,,,,,8,8,6,8,,,,,,,,,,,8995.5195,8996.0199,8996.2529,8997.0861,space,0.8158,,8997.0862,54,4,8998.0856,8998.0857,8998.0873,,,,0,40,40,40,1,35,85,,,,,,,,
,,5f56253b816a8722d0af90f5,,2023-12-16_15h22.56.542,bars,2023.2.3,Win32,29.94011976,,,,,,8998.0879,8999.0856,,,8999.5854,8999.8189,,105,105,,,,,,,,,,,,,,,,bars/049.png,bars/mask008.png,,,,,,,,,,,,4,2,,,,,,,6,6,5,6,,,,,,,,,,,8999.0857,8999.5854,8999.8189,9000.9523,space,1.1007,,9000.9523,55,10,9001.952,9001.9521,9001.9538,,,,0,41,41,41,1,160,115,,,,,,,,
,,5f56253b816a8722d0af90f5,,2023-12-16_15h22.56.542,bars,2023.2.3,Win32,29.94011976,,,,,,9001.9544,9002.9516,,,9003.4511,9003.685,,56,56,,,,,,,,,,,,,,,,bars/017.png,bars/mask008.png,,,,,,,,,,,,4,2,,,,,,,4,8,6,7,,,,,,,,,,,9002.9517,9003.451,9003.685,9007.5837,space,3.8895,,9007.5838,89,11,9008.5839,9008.584,9008.611,,,,0,42,42,42,1,145,45,,,,,,,,
,,5f56253b816a8722d0af90f5,,2023-12-16_15h22.56.542,bars,2023.2.3,Win32,29.94011976,,,,,,9008.6113,9009.6172,,,9010.1175,9010.3509,,113,113,,,,,,,,,,,,,,,,bars/023.png,bars/mask001.png,,,,,,,,,,,,8,2,,,,,,,6,10,5,9,,,,,,,,,,,9009.6173,9010.1175,9010.3509,9010.5172,space,0.1437,,9010.5174,87,2,9011.5164,9011.5164,9011.5172,,,,0,43,43,43,1,20,115,,,,,,,,
,,5f56253b816a8722d0af90f5,,2023-12-16_15h22.56.542,bars,2023.2.3,Win32,29.94011976,,,,,,9011.5174,9012.5171,,,9013.0166,9013.25,,176,176,,,,,,,,,,,,,,,,bars/016.png,bars/mask007.png,,,,,,,,,,,,4,2,,,,,,,4,8,4,6,,,,,,,,,,,9012.5171,9013.0165,9013.2501,9015.4836,space,2.2137,,9015.4837,44,11,9016.4829,9016.4829,9016.4847,,,,0,44,44,44,1,40,165,,,,,,,,
,,5f56253b816a8722d0af90f5,,2023-12-16_15h22.56.542,bars,2023.2.3,Win32,29.94011976,,,,,,9016.4853,9017.4823,,,9017.9827,9018.216,,86,86,,,,,,,,,,,,,,,,bars/018.png,bars/mask006.png,,,,,,,,,,,,7,2,,,,,,,6,10,6,8,,,,,,,,,,,9017.4823,9017.9827,9018.216,9021.7157,space,3.4805,,9021.7159,64,4,9022.7148,9022.7149,9022.7322,,,,0,45,45,45,1,150,90,,,,,,,,
,,5f56253b816a8722d0af90f5,,2023-12-16_15h22.56.542,bars,2023.2.3,Win32,29.94011976,,,,,,9022.7323,9023.715,,,9024.215,9024.4486,,173,173,,,,,,,,,,,,,,,,bars/040.png,bars/mask008.png,,,,,,,,,,,,6,2,,,,,,,8,10,9,10,,,,,,,,,,,9023.715,9024.2149,9024.4488,9025.8814,space,1.4054,,9025.8815,33,12,9026.8813,9026.8815,9026.9061,,,,0,46,46,46,1,140,5,,,,,,,,
,,5f56253b816a8722d0af90f5,,2023-12-16_15h22.56.542,bars,2023.2.3,Win32,29.94011976,,,,,,9026.9062,9027.9144,,,9028.4136,9028.6476,,108,108,,,,,,,,,,,,,,,,bars/009.png,bars/mask008.png,,,,,,,,,,,,7,2,,,,,,,10,8,10,8,,,,,,,,,,,9027.9145,9028.4136,9028.6477,9030.3808,space,1.7003,,9030.3809,87,3,9031.3799,9031.3799,9031.3911,,,,0,47,47,47,1,15,105,,,,,,,,
,,5f56253b816a8722d0af90f5,,2023-12-16_15h22.56.542,bars,2023.2.3,Win32,29.94011976,,,,,,9031.3912,9032.3802,,,9032.8798,9033.1134,,75,75,,,,,,,,,,,,,,,,bars/038.png,bars/mask006.png,,,,,,,,,,,,6,2,,,,,,,10,6,10,7,,,,,,,,,,,9032.3804,9032.8798,9033.1135,9035.7468,space,2.6165,,9035.7468,90,5,9036.7463,9036.7463,9036.7701,,,,0,48,48,48,1,165,70,,,,,,,,
,,5f56253b816a8722d0af90f5,,2023-12-16_15h22.56.542,bars,2023.2.3,Win32,29.94011976,,,,,,9036.7703,9037.7461,,,9038.246,9038.4796,,94,274,,,,,,,,,,,,,,,,bars/041.png,bars/mask004.png,,,,,,,,,,,,5,2,,,,,,,8,8,8,7,,,,,,,,,,,9037.7461,9038.2459,9038.4796,9042.5454,space,4.0431,,9042.5455,74,9,9043.5444,9043.5444,9043.5537,,,,0,49,49,49,1,20,85,,,,,,,,
,,5f56253b816a8722d0af90f5,,2023-12-16_15h22.56.542,bars,2023.2.3,Win32,29.94011976,,,,,,,,,,,,,,,,,,,,,,,,,,,,,,,,,,,,,,,,,,,,,,,,,,,,,,,,,,,,,,,,,,,,,,,,,,,,,,,,,,,,,,,,9043.5537,9043.5538,0,4,4,2,1,sequence_tables/blk032.csv