init_variables.started,init_variables.stopped,participant,session,date,expName,psychopyVersion,OS,frameRate,instruction_single.started,instruction_single.stopped,key_resp_2.keys,key_resp_2.rt,key_resp_2.duration,interval.started,interval.stopped,cue_single.started,cue_single.stopped,mask.started,mask.stopped,ori_response_single.started,res_ori,res,ori_response_single.stopped,key_resp_single.keys,key_resp_single.rt,key_resp_single.duration,disp_single.started,disp_single.stopped,key_resp.keys,key_resp.rt,key_resp.duration,single.thisRepN,single.thisTrialN,single.thisN,single.thisIndex,single.ran,ori,path,mask_path,instruction_bandit.started,instruction_bandit.stopped,key_resp_6.keys,key_resp_6.rt,key_resp_6.duration,cue_bandit.started,cue_bandit.stopped,bandit_res.keys,bandit_res.rt,bandit_res.duration,outcome_bandit.started,rew,action,outcome_bandit.stopped,bandit.thisRepN,bandit.thisTrialN,bandit.thisN,bandit.thisIndex,bandit.ran,actual_rew1,actual_rew2,rew1,rew2,instruction_task.started,instruction_task.stopped,key_resp_7.keys,key_resp_7.rt,key_resp_7.duration,wait_ready.started,wait_ready.stopped,key_resp_3.keys,key_resp_3.rt,key_resp_3.duration,cue.started,cue.stopped,ori_response.started,ori_response.stopped,key_resp_5.keys,key_resp_5.rt,key_resp_5.duration,outcome.started,diff1,diff2,outcome.stopped,disp_outcome_practice.started,disp_outcome_practice.stopped,key_resp_4.keys,key_resp_4.rt,key_resp_4.duration,trials.thisRepN,trials.thisTrialN,trials.thisN,trials.thisIndex,trials.ran,ori1,ori2,break_blk.started,break_blk.stopped,block.thisRepN,block.thisTrialN,block.thisN,block.thisIndex,block.ran,condition_file
0.0004,0.0015,5a520774eedc3200014206b4,001,2023-12-16_14h45.41.845,bars,2023.2.3,Win32,60.24096386,,,,,,,,,,,,,,,,,,,,,,,,,,,,,,,,,,,,,,,,,,,,,,,,,,,,,,,,,,,,,,,,,,,,,,,,,,,,,,,,,,,,,,,,,,,,,,,
,,5a520774eedc3200014206b4,001,2023-12-16_14h45.41.845,bars,2023.2.3,Win32,60.24096386,0.0016,61.5013,space,61.4835,,,,,,,,,,,,,,,,,,,,,,,,,,,,,,,,,,,,,,,,,,,,,,,,,,,,,,,,,,,,,,,,,,,,,,,,,,,,,,,,,,,,,,,,,,,
,,5a520774eedc3200014206b4,001,2023-12-16_14h45.41.845,bars,2023.2.3,Win32,60.24096386,,,,,,61.5079,62.4969,62.4971,62.9926,62.9928,63.2427,63.2429,56,56,67.9762,space,4.7014,,67.9763,112.2939,space,44.3003,,0,0,0,7,1,45,bars/single007.png,bars/mask009.png,,,,,,,,,,,,,,,,,,,,,,,,,,,,,,,,,,,,,,,,,,,,,,,,,,,,,,,,,,,,,,,,
,,5a520774eedc3200014206b4,001,2023-12-16_14h45.41.845,bars,2023.2.3,Win32,60.24096386,,,,,,112.2991,113.2923,113.2924,113.7913,113.7914,114.0413,114.0413,132,132,119.0245,space,4.9739,,119.0246,121.9578,space,2.9123,,0,1,1,2,1,145,bars/single002.png,bars/mask003.png,,,,,,,,,,,,,,,,,,,,,,,,,,,,,,,,,,,,,,,,,,,,,,,,,,,,,,,,,,,,,,,,
,,5a520774eedc3200014206b4,001,2023-12-16_14h45.41.845,bars,2023.2.3,Win32,60.24096386,,,,,,121.958,122.9576,122.9577,123.4578,123.4578,123.7077,123.7077,168,168,129.2757,space,5.5664,,129.2757,133.5318,space,4.2338,,0,2,2,6,1,175,bars/single006.png,bars/mask005.png,,,,,,,,,,,,,,,,,,,,,,,,,,,,,,,,,,,,,,,,,,,,,,,,,,,,,,,,,,,,,,,,
,,5a520774eedc3200014206b4,001,2023-12-16_14h45.41.845,bars,2023.2.3,Win32,60.24096386,,,,,,133.5369,134.5408,134.5408,135.0408,135.0408,135.2909,135.2909,65,65,137.7485,space,2.455,,137.7485,141.5074,space,3.739,,0,3,3,5,1,55,bars/single005.png,bars/mask008.png,,,,,,,,,,,,,,,,,,,,,,,,,,,,,,,,,,,,,,,,,,,,,,,,,,,,,,,,,,,,,,,,
,,5a520774eedc3200014206b4,001,2023-12-16_14h45.41.845,bars,2023.2.3,Win32,60.24096386,,,,,,141.5126,142.5074,142.5074,143.0073,143.0074,143.2466,143.2467,144,144,150.4904,space,7.2402,,150.4904,155.4902,space,4.9817,,0,4,4,0,1,150,bars/single000.png,bars/mask006.png,,,,,,,,,,,,,,,,,,,,,,,,,,,,,,,,,,,,,,,,,,,,,,,,,,,,,,,,,,,,,,,,
,,5a520774eedc3200014206b4,001,2023-12-16_14h45.41.845,bars,2023.2.3,Win32,60.24096386,,,,,,155.4951,156.4903,156.4903,156.9976,156.9977,157.2414,157.2415,43,43,163.2235,space,5.9454,,163.2236,166.5401,space,3.3043,,0,5,5,1,1,20,bars/single001.png,bars/mask006.png,,,,,,,,,,,,,,,,,,,,,,,,,,,,,,,,,,,,,,,,,,,,,,,,,,,,,,,,,,,,,,,,
,,5a520774eedc3200014206b4,001,2023-12-16_14h45.41.845,bars,2023.2.3,Win32,60.24096386,,,,,,166.5403,167.5304,167.5305,168.0305,168.0306,168.2744,168.2744,148,148,174.5071,space,6.2015,,174.5073,181.9562,space,7.4358,,0,6,6,8,1,160,bars/single008.png,bars/mask004.png,,,,,,,,,,,,,,,,,,,,,,,,,,,,,,,,,,,,,,,,,,,,,,,,,,,,,,,,,,,,,,,,
,,5a520774eedc3200014206b4,001,2023-12-16_14h45.41.845,bars,2023.2.3,Win32,60.24096386,,,,,,181.9612,182.9561,182.9562,183.4561,183.4562,183.6972,183.6972,93,93,187.8078,space,4.1002,,187.8078,190.7228,space,2.887,,0,7,7,4,1,95,bars/single004.png,bars/mask004.png,,,,,,,,,,,,,,,,,,,,,,,,,,,,,,,,,,,,,,,,,,,,,,,,,,,,,,,,,,,,,,,,
,,5a520774eedc3200014206b4,001,2023-12-16_14h45.41.845,bars,2023.2.3,Win32,60.24096386,,,,,,190.7231,191.7227,191.7227,192.2227,192.2227,192.4728,192.4728,37,37,194.9893,space,2.51,,194.9893,213.4556,space,18.4495,,0,8,8,9,1,20,bars/single009.png,bars/mask006.png,,,,,,,,,,,,,,,,,,,,,,,,,,,,,,,,,,,,,,,,,,,,,,,,,,,,,,,,,,,,,,,,
,,5a520774eedc3200014206b4,001,2023-12-16_14h45.41.845,bars,2023.2.3,Win32,60.24096386,,,,,,213.4612,214.4632,214.4632,214.9629,214.9629,215.2054,215.2054,45,45,221.74,space,6.5106,,221.74,243.2756,space,21.519,,0,9,9,3,1,20,bars/single003.png,bars/mask005.png,,,,,,,,,,,,,,,,,,,,,,,,,,,,,,,,,,,,,,,,,,,,,,,,,,,,,,,,,,,,,,,,
,,5a520774eedc3200014206b4,001,2023-12-16_14h45.41.845,bars,2023.2.3,Win32,60.24096386,,,,,,,,,,,,,,,,,,,,,,,,,,,,,,,,243.2824,253.7221,space,10.4185,,,,,,,,,,,,,,,,,,,,,,,,,,,,,,,,,,,,,,,,,,,,,,,,,,,,,,,,,,,,
,,5a520774eedc3200014206b4,001,2023-12-16_14h45.41.845,bars,2023.2.3,Win32,60.24096386,,,,,,,,,,,,,,,,,,,,,,,,,,,,,,,,,,,,,253.7298,257.9573,left,4.2109,,257.9575,9,1,258.9545,0,0,0,0,1,9,1,9,2,,,,,,,,,,,,,,,,,,,,,,,,,,,,,,,,,,,,,,,,,
,,5a520774eedc3200014206b4,001,2023-12-16_14h45.41.845,bars,2023.2.3,Win32,60.24096386,,,,,,,,,,,,,,,,,,,,,,,,,,,,,,,,,,,,,258.9551,260.4045,left,1.4142,,260.4045,10,1,261.406,0,1,1,1,1,10,0,10,1,,,,,,,,,,,,,,,,,,,,,,,,,,,,,,,,,,,,,,,,,
,,5a520774eedc3200014206b4,001,2023-12-16_14h45.41.845,bars,2023.2.3,Win32,60.24096386,,,,,,,,,,,,,,,,,,,,,,,,,,,,,,,,,,,,,261.4063,262.4725,right,1.0501,,262.4725,2,2,263.4711,0,2,2,2,1,10,2,10,2,,,,,,,,,,,,,,,,,,,,,,,,,,,,,,,,,,,,,,,,,
,,5a520774eedc3200014206b4,001,2023-12-16_14h45.41.845,bars,2023.2.3,Win32,60.24096386,,,,,,,,,,,,,,,,,,,,,,,,,,,,,,,,,,,,,263.4717,264.1378,left,0.6635,,264.1378,7,1,265.1377,0,3,3,3,1,8,4,7,3,,,,,,,,,,,,,,,,,,,,,,,,,,,,,,,,,,,,,,,,,
,,5a520774eedc3200014206b4,001,2023-12-16_14h45.41.845,bars,2023.2.3,Win32,60.24096386,,,,,,,,,,,,,,,,,,,,,,,,,,,,,,,,,,,,,265.1379,266.271,right,1.1255,,266.271,1,2,267.2709,0,4,4,4,1,6,2,5,1,,,,,,,,,,,,,,,,,,,,,,,,,,,,,,,,,,,,,,,,,
,,5a520774eedc3200014206b4,001,2023-12-16_14h45.41.845,bars,2023.2.3,Win32,60.24096386,,,,,,,,,,,,,,,,,,,,,,,,,,,,,,,,,,,,,267.2712,267.821,left,0.534,,267.8211,4,1,268.8208,0,5,5,5,1,4,4,4,4,,,,,,,,,,,,,,,,,,,,,,,,,,,,,,,,,,,,,,,,,
,,5a520774eedc3200014206b4,001,2023-12-16_14h45.41.845,bars,2023.2.3,Win32,60.24096386,,,,,,,,,,,,,,,,,,,,,,,,,,,,,,,,,,,,,268.821,269.2876,left,0.4448,,269.2876,1,1,270.2874,0,6,6,6,1,2,2,1,2,,,,,,,,,,,,,,,,,,,,,,,,,,,,,,,,,,,,,,,,,
,,5a520774eedc3200014206b4,001,2023-12-16_14h45.41.845,bars,2023.2.3,Win32,60.24096386,,,,,,,,,,,,,,,,,,,,,,,,,,,,,,,,,,,,,270.2877,270.9448,left,0.6398,,270.9449,0,1,271.9443,0,7,7,7,1,0,0,0,1,,,,,,,,,,,,,,,,,,,,,,,,,,,,,,,,,,,,,,,,,
,,5a520774eedc3200014206b4,001,2023-12-16_14h45.41.845,bars,2023.2.3,Win32,60.24096386,,,,,,,,,,,,,,,,,,,,,,,,,,,,,,,,,,,,,271.9446,272.3211,right,0.363,,272.3211,0,2,273.3054,0,8,8,8,1,0,2,1,0,,,,,,,,,,,,,,,,,,,,,,,,,,,,,,,,,,,,,,,,,
,,5a520774eedc3200014206b4,001,2023-12-16_14h45.41.845,bars,2023.2.3,Win32,60.24096386,,,,,,,,,,,,,,,,,,,,,,,,,,,,,,,,,,,,,273.3055,273.8542,right,0.5335,,273.8542,3,2,274.8541,0,9,9,9,1,2,4,2,3,,,,,,,,,,,,,,,,,,,,,,,,,,,,,,,,,,,,,,,,,
,,5a520774eedc3200014206b4,001,2023-12-16_14h45.41.845,bars,2023.2.3,Win32,60.24096386,,,,,,,,,,,,,,,,,,,,,,,,,,,,,,,,,,,,,274.8544,275.804,left,0.939,,275.804,0,1,276.8039,0,10,10,10,1,0,2,0,3,,,,,,,,,,,,,,,,,,,,,,,,,,,,,,,,,,,,,,,,,
,,5a520774eedc3200014206b4,001,2023-12-16_14h45.41.845,bars,2023.2.3,Win32,60.24096386,,,,,,,,,,,,,,,,,,,,,,,,,,,,,,,,,,,,,276.8042,278.2708,left,1.4458,,278.2708,0,1,279.2613,0,11,11,11,1,0,4,0,3,,,,,,,,,,,,,,,,,,,,,,,,,,,,,,,,,,,,,,,,,
,,5a520774eedc3200014206b4,001,2023-12-16_14h45.41.845,bars,2023.2.3,Win32,60.24096386,,,,,,,,,,,,,,,,,,,,,,,,,,,,,,,,,,,,,279.2615,279.7617,right,0.4898,,279.7618,6,2,280.7539,0,12,12,12,1,2,6,1,6,,,,,,,,,,,,,,,,,,,,,,,,,,,,,,,,,,,,,,,,,
,,5a520774eedc3200014206b4,001,2023-12-16_14h45.41.845,bars,2023.2.3,Win32,60.24096386,,,,,,,,,,,,,,,,,,,,,,,,,,,,,,,,,,,,,280.7541,281.2784,right,0.5065,,281.2784,3,2,282.2705,0,13,13,13,1,0,4,1,3,,,,,,,,,,,,,,,,,,,,,,,,,,,,,,,,,,,,,,,,,
,,5a520774eedc3200014206b4,001,2023-12-16_14h45.41.845,bars,2023.2.3,Win32,60.24096386,,,,,,,,,,,,,,,,,,,,,,,,,,,,,,,,,,,,,282.2707,282.6373,left,0.3345,,282.6373,2,1,283.6371,0,14,14,14,1,2,6,2,7,,,,,,,,,,,,,,,,,,,,,,,,,,,,,,,,,,,,,,,,,
,,5a520774eedc3200014206b4,001,2023-12-16_14h45.41.845,bars,2023.2.3,Win32,60.24096386,,,,,,,,,,,,,,,,,,,,,,,,,,,,,,,,,,,,,283.6374,284.0372,left,0.3796,,284.0373,3,1,285.0371,0,15,15,15,1,4,8,3,9,,,,,,,,,,,,,,,,,,,,,,,,,,,,,,,,,,,,,,,,,
,,5a520774eedc3200014206b4,001,2023-12-16_14h45.41.845,bars,2023.2.3,Win32,60.24096386,,,,,,,,,,,,,,,,,,,,,,,,,,,,,,,,,,,,,285.0374,285.3373,right,0.2787,,285.3373,7,2,286.3397,0,16,16,16,1,6,6,7,7,,,,,,,,,,,,,,,,,,,,,,,,,,,,,,,,,,,,,,,,,
,,5a520774eedc3200014206b4,001,2023-12-16_14h45.41.845,bars,2023.2.3,Win32,60.24096386,,,,,,,,,,,,,,,,,,,,,,,,,,,,,,,,,,,,,286.34,286.6539,right,0.2944,,286.6539,5,2,287.6537,0,17,17,17,1,8,4,9,5,,,,,,,,,,,,,,,,,,,,,,,,,,,,,,,,,,,,,,,,,
,,5a520774eedc3200014206b4,001,2023-12-16_14h45.41.845,bars,2023.2.3,Win32,60.24096386,,,,,,,,,,,,,,,,,,,,,,,,,,,,,,,,,,,,,287.6538,287.9537,left,0.2968,,287.9537,5,1,288.9537,0,18,18,18,1,6,2,5,1,,,,,,,,,,,,,,,,,,,,,,,,,,,,,,,,,,,,,,,,,
,,5a520774eedc3200014206b4,001,2023-12-16_14h45.41.845,bars,2023.2.3,Win32,60.24096386,,,,,,,,,,,,,,,,,,,,,,,,,,,,,,,,,,,,,288.9539,289.2204,left,0.2553,,289.2204,7,1,290.2203,0,19,19,19,1,8,0,7,0,,,,,,,,,,,,,,,,,,,,,,,,,,,,,,,,,,,,,,,,,
,,5a520774eedc3200014206b4,001,2023-12-16_14h45.41.845,bars,2023.2.3,Win32,60.24096386,,,,,,,,,,,,,,,,,,,,,,,,,,,,,,,,,,,,,,,,,,,,,,,,,,,,,,,290.2212,325.2791,space,35.0495,,,,,,,,,,,,,,,,,,,,,,,,,,,,,,,,,,,,,
,,5a520774eedc3200014206b4,001,2023-12-16_14h45.41.845,bars,2023.2.3,Win32,60.24096386,,,,,,327.3304,328.3195,,,328.8264,329.0679,,114,114,,,,,,,,,,,,,,,,bars/015.png,bars/mask001.png,,,,,,,,,,,,6,1,,,,,,,7,5,7,6,,,,,,325.2874,327.3275,space,2.0173,,328.3197,328.8264,329.0681,333.771,space,4.6958,,333.7711,4,46,334.7693,334.7694,338.0152,space,3.2266,,0,0,0,0,1,110,160,,,,,,,,
,,5a520774eedc3200014206b4,001,2023-12-16_14h45.41.845,bars,2023.2.3,Win32,60.24096386,,,,,,338.021,339.0193,,,339.5192,339.7756,,59,59,,,,,,,,,,,,,,,,bars/000.png,bars/mask009.png,,,,,,,,,,,,4,1,,,,,,,9,3,10,2,,,,,,,,,,,339.0193,339.5192,339.7756,345.9191,space,6.1061,,345.9192,19,86,346.9191,346.9191,353.02,space,6.0809,,0,1,1,1,1,40,145,,,,,,,,
,,5a520774eedc3200014206b4,001,2023-12-16_14h45.41.845,bars,2023.2.3,Win32,60.24096386,,,,,,353.0254,354.0214,,,354.5188,354.769,,41,41,,,,,,,,,,,,,,,,bars/043.png,bars/mask003.png,,,,,,,,,,,,4,1,,,,,,,7,1,6,2,,,,,,,,,,,354.0215,354.5188,354.7691,358.4855,space,3.7085,,358.4856,11,89,359.4859,359.4859,361.7359,space,2.2244,,0,2,2,2,1,30,130,,,,,,,,
,,5a520774eedc3200014206b4,001,2023-12-16_14h45.41.845,bars,2023.2.3,Win32,60.24096386,,,,,,361.7361,362.7357,,,363.2357,363.4856,,71,71,,,,,,,,,,,,,,,,bars/042.png,bars/mask001.png,,,,,,,,,,,,2,2,,,,,,,5,3,5,2,,,,,,,,,,,362.7357,363.2357,363.4856,367.4187,space,3.9172,,367.4187,74,4,368.4186,368.4186,370.9852,space,2.5519,,0,3,3,3,1,145,75,,,,,,,,
,,5a520774eedc3200014206b4,001,2023-12-16_14h45.41.845,bars,2023.2.3,Win32,60.24096386,,,,,,370.9854,371.9852,,,372.483,372.7419,,76,76,,,,,,,,,,,,,,,,bars/042.png,bars/mask002.png,,,,,,,,,,,,2,2,,,,,,,7,1,6,2,,,,,,,,,,,371.9852,372.483,372.7419,376.6066,space,3.8538,,376.6067,69,1,377.6017,377.6017,381.5091,space,3.9005,,0,4,4,4,1,145,75,,,,,,,,
,,5a520774eedc3200014206b4,001,2023-12-16_14h45.41.845,bars,2023.2.3,Win32,60.24096386,,,,,,381.5093,382.5051,,,383.0015,383.2515,,106,106,,,,,,,,,,,,,,,,bars/029.png,bars/mask004.png,,,,,,,,,,,,2,1,,,,,,,5,0,5,0,,,,,,,,,,,382.5051,383.0015,383.2516,386.935,space,3.667,,386.935,16,61,387.9349,387.935,391.2182,space,3.263,,0,5,5,5,1,90,45,,,,,,,,
,,5a520774eedc3200014206b4,001,2023-12-16_14h45.41.845,bars,2023.2.3,Win32,60.24096386,,,,,,391.2183,392.2083,,,392.7013,392.9514,,100,100,,,,,,,,,,,,,,,,bars/045.png,bars/mask004.png,,,,,,,,,,,,8,1,,,,,,,7,2,8,3,,,,,,,,,,,392.2083,392.7012,392.9514,397.068,space,4.1077,,397.068,0,90,398.0679,398.0679,401.0846,space,3.0052,,0,6,6,6,1,100,10,,,,,,,,
,,5a520774eedc3200014206b4,001,2023-12-16_14h45.41.845,bars,2023.2.3,Win32,60.24096386,,,,,,401.0849,402.0845,,,402.5845,402.8344,,66,66,,,,,,,,,,,,,,,,bars/044.png,bars/mask000.png,,,,,,,,,,,,7,1,,,,,,,9,0,10,1,,,,,,,,,,,402.0845,402.5844,402.8345,406.0343,space,3.1964,,406.0343,9,89,407.0342,407.0343,410.6197,space,3.5764,,0,7,7,7,1,75,155,,,,,,,,
,,5a520774eedc3200014206b4,001,2023-12-16_14h45.41.845,bars,2023.2.3,Win32,60.24096386,,,,,,410.6247,411.6234,,,412.1176,412.3675,,36,36,,,,,,,,,,,,,,,,bars/012.png,bars/mask009.png,,,,,,,,,,,,0,2,,,,,,,7,0,6,0,,,,,,,,,,,411.6235,412.1175,412.3675,415.2413,space,2.8501,,415.2414,54,21,416.2341,416.2342,419.8677,space,3.6069,,0,8,8,8,1,90,15,,,,,,,,
,,5a520774eedc3200014206b4,001,2023-12-16_14h45.41.845,bars,2023.2.3,Win32,60.24096386,,,,,,419.8732,420.8675,,,421.3673,421.6174,,66,66,,,,,,,,,,,,,,,,bars/029.png,bars/mask004.png,,,,,,,,,,,,0,2,,,,,,,5,2,4,1,,,,,,,,,,,420.8675,421.3672,421.6174,426.8672,space,5.2236,,426.8673,24,21,427.8671,427.8671,431.502,space,3.6256,,0,9,9,9,1,90,45,,,,,,,,
,,5a520774eedc3200014206b4,001,2023-12-16_14h45.41.845,bars,2023.2.3,Win32,60.24096386,,,,,,431.5022,432.5073,,,433.0092,433.2516,,121,121,,,,,,,,,,,,,,,,bars/037.png,bars/mask001.png,,,,,,,,,,,,0,2,,,,,,,3,0,4,0,,,,,,,,,,,432.5074,433.0092,433.2516,435.3778,space,2.1045,,435.3779,29,16,436.3668,436.3669,440.4157,space,4.0349,,0,10,10,10,1,150,105,,,,,,,,
,,5a520774eedc3200014206b4,001,2023-12-16_14h45.41.845,bars,2023.2.3,Win32,60.24096386,,,,,,440.4219,441.4238,,,441.9169,442.1668,,8,8,,,,,,,,,,,,,,,,bars/041.png,bars/mask003.png,,,,,,,,,,,,1,1,,,,,,,1,0,1,0,,,,,,,,,,,441.4238,441.9169,442.1669,447.9169,space,5.7217,,447.9169,12,77,448.9172,448.9172,451.0839,space,2.1539,,0,11,11,11,1,20,85,,,,,,,,
,,5a520774eedc3200014206b4,001,2023-12-16_14h45.41.845,bars,2023.2.3,Win32,60.24096386,,,,,,451.0841,452.0833,,,452.5898,452.8332,,128,128,,,,,,,,,,,,,,,,bars/027.png,bars/mask001.png,,,,,,,,,,,,1,1,,,,,,,3,0,3,0,,,,,,,,,,,452.0833,452.5897,452.8333,457.3234,space,4.4879,,457.3235,18,78,458.3165,458.3166,460.6831,space,2.3455,,0,12,12,12,1,110,50,,,,,,,,
,,5a520774eedc3200014206b4,001,2023-12-16_14h45.41.845,bars,2023.2.3,Win32,60.24096386,,,,,,460.6833,461.683,,,462.183,462.433,,122,122,,,,,,,,,,,,,,,,bars/008.png,bars/mask007.png,,,,,,,,,,,,2,1,,,,,,,5,0,4,0,,,,,,,,,,,461.683,462.183,462.433,465.033,space,2.5915,,465.033,12,58,466.0231,466.0232,487.3325,space,21.2938,,0,13,13,13,1,110,0,,,,,,,,
,,5a520774eedc3200014206b4,001,2023-12-16_14h45.41.845,bars,2023.2.3,Win32,60.24096386,,,,,,487.3379,488.3324,,,488.8324,489.0824,,140,-40,,,,,,,,,,,,,,,,bars/003.png,bars/mask001.png,,,,,,,,,,,,2,2,,,,,,,3,0,3,2,,,,,,,,,,,488.3325,488.8324,489.0824,492.4897,space,3.3863,,492.4898,65,0,493.4822,493.4823,494.9539,space,1.4474,,0,14,14,14,1,25,140,,,,,,,,
,,5a520774eedc3200014206b4,001,2023-12-16_14h45.41.845,bars,2023.2.3,Win32,60.24096386,,,,,,494.9542,495.9489,,,496.4489,496.6989,,161,161,,,,,,,,,,,,,,,,bars/007.png,bars/mask004.png,,,,,,,,,,,,2,1,,,,,,,5,2,4,3,,,,,,,,,,,495.9489,496.4489,496.6989,501.1866,space,4.4697,,501.1866,14,74,502.1821,502.1821,503.5487,space,1.3411,,0,15,15,15,1,175,55,,,,,,,,
,,5a520774eedc3200014206b4,001,2023-12-16_14h45.41.845,bars,2023.2.3,Win32,60.24096386,,,,,,503.549,504.5448,,,505.0487,505.2987,,157,157,,,,,,,,,,,,,,,,bars/049.png,bars/mask008.png,,,,,,,,,,,,7,1,,,,,,,7,4,8,3,,,,,,,,,,,504.5448,505.0487,505.2987,507.5531,space,2.2335,,507.5531,3,42,508.5486,508.5486,512.0485,space,3.4789,,0,16,16,16,1,160,115,,,,,,,,
,,5a520774eedc3200014206b4,001,2023-12-16_14h45.41.845,bars,2023.2.3,Win32,60.24096386,,,,,,512.0538,513.0484,,,513.557,513.7985,,168,168,,,,,,,,,,,,,,,,bars/021.png,bars/mask002.png,,,,,,,,,,,,5,1,,,,,,,9,2,9,3,,,,,,,,,,,513.0484,513.557,513.7985,520.0816,space,6.2569,,520.0817,13,82,521.0816,521.0816,522.2333,space,1.1279,,0,17,17,17,1,155,70,,,,,,,,
,,5a520774eedc3200014206b4,001,2023-12-16_14h45.41.845,bars,2023.2.3,Win32,60.24096386,,,,,,522.2336,523.2481,,,523.7482,523.9983,,163,163,,,,,,,,,,,,,,,,bars/021.png,bars/mask009.png,,,,,,,,,,,,7,1,,,,,,,10,0,10,1,,,,,,,,,,,523.2482,523.7481,523.9983,531.2537,space,7.2532,,531.2537,8,87,532.248,532.248,534.048,space,1.7698,,0,18,18,18,1,155,70,,,,,,,,
,,5a520774eedc3200014206b4,001,2023-12-16_14h45.41.845,bars,2023.2.3,Win32,60.24096386,,,,,,534.0482,535.0479,,,535.5505,535.798,,132,132,,,,,,,,,,,,,,,,bars/023.png,bars/mask006.png,,,,,,,,,,,,0,2,,,,,,,10,0,7,0,,,,,,,,,,,535.0479,535.5505,535.798,540.5035,space,4.6846,,540.5035,68,17,541.4977,541.4977,543.2478,space,1.7201,,0,19,19,19,1,20,115,,,,,,,,
,,5a520774eedc3200014206b4,001,2023-12-16_14h45.41.845,bars,2023.2.3,Win32,60.24096386,,,,,,543.248,544.2477,,,544.7478,544.9977,,109,109,,,,,,,,,,,,,,,,bars/030.png,bars/mask000.png,,,,,,,,,,,,0,1,,,,,,,8,2,7,3,,,,,,,,,,,544.2478,544.7477,544.9977,547.0189,space,2.0003,,547.0189,31,44,548.0142,548.0143,550.2477,space,2.1994,,0,20,20,20,1,140,65,,,,,,,,
,,5a520774eedc3200014206b4,001,2023-12-16_14h45.41.845,bars,2023.2.3,Win32,60.24096386,,,,,,550.2479,551.2476,,,551.748,551.9976,,78,78,,,,,,,,,,,,,,,,bars/026.png,bars/mask004.png,,,,,,,,,,,,3,2,,,,,,,10,4,10,4,,,,,,,,,,,551.2476,551.748,551.9976,554.3809,space,2.3581,,554.3809,43,7,555.385,555.385,557.4142,space,1.9992,,0,21,21,21,1,35,85,,,,,,,,
,,5a520774eedc3200014206b4,001,2023-12-16_14h45.41.845,bars,2023.2.3,Win32,60.24096386,,,,,,557.4145,558.4141,,,558.9141,559.164,,97,97,,,,,,,,,,,,,,,,bars/012.png,bars/mask009.png,,,,,,,,,,,,5,1,,,,,,,8,2,7,2,,,,,,,,,,,558.4141,558.914,559.164,561.4643,space,2.2793,,561.4643,7,82,562.4639,562.464,566.4639,space,3.9692,,0,22,22,22,1,90,15,,,,,,,,
,,5a520774eedc3200014206b4,001,2023-12-16_14h45.41.845,bars,2023.2.3,Win32,60.24096386,,,,,,566.4689,567.464,,,567.964,568.2181,,91,91,,,,,,,,,,,,,,,,bars/011.png,bars/mask008.png,,,,,,,,,,,,0,2,,,,,,,10,0,9,0,,,,,,,,,,,567.4641,567.9639,568.2182,571.9138,space,3.6773,,571.9138,69,6,572.9138,572.9138,576.0637,space,3.1158,,0,23,23,23,1,160,85,,,,,,,,
,,5a520774eedc3200014206b4,001,2023-12-16_14h45.41.845,bars,2023.2.3,Win32,60.24096386,,,,,,576.0695,577.0637,,,577.5721,577.8137,,17,17,,,,,,,,,,,,,,,,bars/010.png,bars/mask002.png,,,,,,,,,,,,0,1,,,,,,,10,0,10,0,,,,,,,,,,,577.0637,577.5721,577.8138,582.1998,space,4.3652,,582.1998,32,38,583.1968,583.1968,587.3467,space,4.1197,,0,24,24,24,1,165,55,,,,,,,,
,,5a520774eedc3200014206b4,001,2023-12-16_14h45.41.845,bars,2023.2.3,Win32,60.24096386,,,,,,587.3514,588.3468,,,588.847,589.0973,,77,77,,,,,,,,,,,,,,,,bars/008.png,bars/mask006.png,,,,,,,,,,,,0,1,,,,,,,8,0,8,2,,,,,,,,,,,588.3468,588.847,589.0973,592.9344,space,3.8337,,592.9344,33,77,593.9298,593.9299,596.7966,space,2.8366,,0,25,25,25,1,110,0,,,,,,,,
,,5a520774eedc3200014206b4,001,2023-12-16_14h45.41.845,bars,2023.2.3,Win32,60.24096386,,,,,,596.8016,597.7965,,,598.2965,598.5465,,63,63,,,,,,,,,,,,,,,,bars/006.png,bars/mask008.png,,,,,,,,,,,,1,1,,,,,,,10,0,10,2,,,,,,,,,,,597.7966,598.2965,598.5465,600.5632,space,1.9851,,600.5632,28,37,601.5576,601.5576,603.163,space,1.5722,,0,26,26,26,1,35,100,,,,,,,,
,,5a520774eedc3200014206b4,001,2023-12-16_14h45.41.845,bars,2023.2.3,Win32,60.24096386,,,,,,603.1632,604.1629,,,604.663,604.913,,113,113,,,,,,,,,,,,,,,,bars/003.png,bars/mask000.png,,,,,,,,,,,,0,2,,,,,,,8,2,6,2,,,,,,,,,,,604.163,604.6629,604.9131,607.2341,space,2.3003,,607.2341,88,27,608.2296,608.2296,609.7795,space,1.5129,,0,27,27,27,1,25,140,,,,,,,,
,,5a520774eedc3200014206b4,001,2023-12-16_14h45.41.845,bars,2023.2.3,Win32,60.24096386,,,,,,609.7798,610.7794,,,611.2849,611.5296,,103,103,,,,,,,,,,,,,,,,bars/001.png,bars/mask003.png,,,,,,,,,,,,2,2,,,,,,,6,4,6,4,,,,,,,,,,,610.7794,611.2849,611.5296,615.1627,space,3.6015,,615.1627,27,18,616.1626,616.1626,619.4628,space,3.2728,,0,28,28,28,1,130,85,,,,,,,,
,,5a520774eedc3200014206b4,001,2023-12-16_14h45.41.845,bars,2023.2.3,Win32,60.24096386,,,,,,619.463,620.453,,,620.9461,621.1959,,66,66,,,,,,,,,,,,,,,,bars/025.png,bars/mask007.png,,,,,,,,,,,,1,2,,,,,,,4,6,5,7,,,,,,,,,,,620.453,620.946,621.1959,623.4459,space,2.2237,,623.446,39,26,624.4364,624.4365,626.7125,space,2.2407,,0,29,29,29,1,105,40,,,,,,,,
,,5a520774eedc3200014206b4,001,2023-12-16_14h45.41.845,bars,2023.2.3,Win32,60.24096386,,,,,,626.7127,627.7124,,,628.2124,628.4624,,60,60,,,,,,,,,,,,,,,,bars/028.png,bars/mask002.png,,,,,,,,,,,,4,1,,,,,,,6,8,7,8,,,,,,,,,,,627.7124,628.2124,628.4624,631.8624,space,3.3659,,631.8624,15,60,632.8624,632.8624,634.8632,space,1.9658,,0,30,30,30,1,45,120,,,,,,,,
,,5a520774eedc3200014206b4,001,2023-12-16_14h45.41.845,bars,2023.2.3,Win32,60.24096386,,,,,,634.8635,635.8622,,,636.3622,636.6026,,57,57,,,,,,,,,,,,,,,,bars/019.png,bars/mask009.png,,,,,,,,,,,,4,1,,,,,,,8,6,7,6,,,,,,,,,,,635.8622,636.3622,636.6026,639.6124,space,2.9669,,639.6125,12,48,640.6121,640.6121,656.612,space,15.9713,,0,31,31,31,1,45,105,,,,,,,,
,,5a520774eedc3200014206b4,001,2023-12-16_14h45.41.845,bars,2023.2.3,Win32,60.24096386,,,,,,656.6177,657.612,,,658.1119,658.3617,,172,172,,,,,,,,,,,,,,,,bars/014.png,bars/mask005.png,,,,,,,,,,,,2,2,,,,,,,6,4,7,3,,,,,,,,,,,657.6121,658.1118,658.3618,662.6454,space,4.268,,662.6455,88,8,663.645,663.645,665.4949,space,1.8313,,0,32,32,32,1,80,0,,,,,,,,
,,5a520774eedc3200014206b4,001,2023-12-16_14h45.41.845,bars,2023.2.3,Win32,60.24096386,,,,,,665.4952,666.4949,,,666.9949,667.2453,,54,54,,,,,,,,,,,,,,,,bars/029.png,bars/mask005.png,,,,,,,,,,,,3,2,,,,,,,8,6,8,4,,,,,,,,,,,666.495,666.9948,667.2453,671.0616,space,3.8094,,671.0617,36,9,672.0614,672.0615,674.5634,space,2.4923,,0,33,33,33,1,90,45,,,,,,,,
,,5a520774eedc3200014206b4,001,2023-12-16_14h45.41.845,bars,2023.2.3,Win32,60.24096386,,,,,,674.5636,675.5632,,,676.063,676.3136,,165,165,,,,,,,,,,,,,,,,bars/040.png,bars/mask003.png,,,,,,,,,,,,2,2,,,,,,,10,8,10,7,,,,,,,,,,,675.5632,676.063,676.3136,683.2114,space,6.879,,683.2114,25,20,684.2181,684.2182,687.8444,space,3.6063,,0,34,34,34,1,140,5,,,,,,,,
,,5a520774eedc3200014206b4,001,2023-12-16_14h45.41.845,bars,2023.2.3,Win32,60.24096386,,,,,,687.8495,688.8444,,,689.3443,689.5842,,145,145,,,,,,,,,,,,,,,,bars/042.png,bars/mask003.png,,,,,,,,,,,,6,1,,,,,,,8,10,6,10,,,,,,,,,,,688.8444,689.3443,689.5842,692.0964,space,2.5003,,692.0964,0,70,693.0888,693.0888,699.8941,space,6.788,,0,35,35,35,1,145,75,,,,,,,,
,,5a520774eedc3200014206b4,001,2023-12-16_14h45.41.845,bars,2023.2.3,Win32,60.24096386,,,,,,699.899,700.8943,,,701.3961,701.6441,,164,164,,,,,,,,,,,,,,,,bars/036.png,bars/mask009.png,,,,,,,,,,,,3,1,,,,,,,6,8,7,8,,,,,,,,,,,700.8944,701.3961,701.6441,708.8794,space,7.2165,,708.8795,19,36,709.8848,709.8848,711.1518,space,1.256,,0,36,36,36,1,145,20,,,,,,,,
,,5a520774eedc3200014206b4,001,2023-12-16_14h45.41.845,bars,2023.2.3,Win32,60.24096386,,,,,,711.1522,712.1438,,,712.6439,712.894,,59,59,,,,,,,,,,,,,,,,bars/044.png,bars/mask001.png,,,,,,,,,,,,2,1,,,,,,,4,6,4,6,,,,,,,,,,,712.1438,712.6439,712.894,716.0771,space,3.1564,,716.0772,16,84,717.0769,717.077,718.9605,space,1.8754,,0,37,37,37,1,75,155,,,,,,,,
,,5a520774eedc3200014206b4,001,2023-12-16_14h45.41.845,bars,2023.2.3,Win32,60.24096386,,,,,,718.9607,719.9603,,,720.4603,720.7102,,70,70,,,,,,,,,,,,,,,,bars/014.png,bars/mask002.png,,,,,,,,,,,,4,1,,,,,,,6,4,6,4,,,,,,,,,,,719.9604,720.4602,720.7103,724.7104,space,3.973,,724.7105,10,70,725.7119,725.7119,729.2939,space,3.5571,,0,38,38,38,1,80,0,,,,,,,,
,,5a520774eedc3200014206b4,001,2023-12-16_14h45.41.845,bars,2023.2.3,Win32,60.24096386,,,,,,729.299,730.2947,,,730.8003,731.0446,,67,67,,,,,,,,,,,,,,,,bars/048.png,bars/mask002.png,,,,,,,,,,,,3,1,,,,,,,8,6,7,6,,,,,,,,,,,730.2947,730.8003,731.0448,733.3947,space,2.3336,,733.3948,17,72,734.384,734.384,740.8173,space,6.4227,,0,39,39,39,1,50,175,,,,,,,,
,,5a520774eedc3200014206b4,001,2023-12-16_14h45.41.845,bars,2023.2.3,Win32,60.24096386,,,,,,740.8222,741.8172,,,742.3172,742.5598,,129,129,,,,,,,,,,,,,,,,bars/040.png,bars/mask008.png,,,,,,,,,,,,6,1,,,,,,,10,4,9,3,,,,,,,,,,,741.8172,742.3172,742.5598,745.3843,space,2.8007,,745.3844,11,56,746.3765,746.3766,752.9267,space,6.5185,,0,40,40,40,1,140,5,,,,,,,,
,,5a520774eedc3200014206b4,001,2023-12-16_14h45.41.845,bars,2023.2.3,Win32,60.24096386,,,,,,752.9319,753.9262,,,754.4261,754.6763,,113,113,,,,,,,,,,,,,,,,bars/027.png,bars/mask006.png,,,,,,,,,,,,8,1,,,,,,,8,2,9,0,,,,,,,,,,,753.9262,754.4261,754.6763,756.7929,space,2.1011,,756.7929,3,63,757.7929,757.793,761.7762,space,3.9566,,0,41,41,41,1,110,50,,,,,,,,
,,5a520774eedc3200014206b4,001,2023-12-16_14h45.41.845,bars,2023.2.3,Win32,60.24096386,,,,,,761.7818,762.776,,,763.276,763.5263,,106,106,,,,,,,,,,,,,,,,bars/025.png,bars/mask009.png,,,,,,,,,,,,10,1,,,,,,,10,0,10,0,,,,,,,,,,,762.776,763.276,763.5263,766.8927,space,3.3598,,766.8927,1,66,767.8929,767.8929,770.3595,space,2.4513,,0,42,42,42,1,105,40,,,,,,,,
,,5a520774eedc3200014206b4,001,2023-12-16_14h45.41.845,bars,2023.2.3,Win32,60.24096386,,,,,,770.3597,771.3591,,,771.8592,772.1092,,151,151,,,,,,,,,,,,,,,,bars/017.png,bars/mask006.png,,,,,,,,,,,,6,1,,,,,,,8,2,8,2,,,,,,,,,,,771.3591,771.8592,772.1092,774.4425,space,2.3215,,774.4426,6,74,775.4424,775.4424,778.0591,space,2.5975,,0,43,43,43,1,145,45,,,,,,,,
,,5a520774eedc3200014206b4,001,2023-12-16_14h45.41.845,bars,2023.2.3,Win32,60.24096386,,,,,,778.0592,779.0589,,,779.5589,779.809,,128,128,,,,,,,,,,,,,,,,bars/029.png,bars/mask000.png,,,,,,,,,,,,0,1,,,,,,,10,0,10,1,,,,,,,,,,,779.0589,779.5589,779.809,786.2846,space,6.4522,,786.2847,38,83,787.2913,787.2913,790.2602,space,2.9353,,0,44,44,44,1,90,45,,,,,,,,
,,5a520774eedc3200014206b4,001,2023-12-16_14h45.41.845,bars,2023.2.3,Win32,60.24096386,,,,,,790.2658,791.2749,,,791.7756,792.0253,,97,-83,,,,,,,,,,,,,,,,bars/034.png,bars/mask000.png,,,,,,,,,,,,1,1,,,,,,,8,0,8,0,,,,,,,,,,,791.2749,791.7755,792.0253,796.1254,space,4.0835,,796.1254,28,32,797.1252,797.1252,799.1419,space,2.0023,,0,45,45,45,1,125,65,,,,,,,,
,,5a520774eedc3200014206b4,001,2023-12-16_14h45.41.845,bars,2023.2.3,Win32,60.24096386,,,,,,799.1421,800.1418,,,800.6417,800.8918,,60,60,,,,,,,,,,,,,,,,bars/012.png,bars/mask001.png,,,,,,,,,,,,0,1,,,,,,,10,2,10,3,,,,,,,,,,,800.1418,800.6417,800.8918,804.075,space,3.1485,,804.075,30,45,805.0751,805.0751,808.5086,space,3.4226,,0,46,46,46,1,90,15,,,,,,,,
,,5a520774eedc3200014206b4,001,2023-12-16_14h45.41.845,bars,2023.2.3,Win32,60.24096386,,,,,,808.5141,809.5083,,,810.0081,810.2583,,114,114,,,,,,,,,,,,,,,,bars/049.png,bars/mask006.png,,,,,,,,,,,,0,2,,,,,,,8,0,8,0,,,,,,,,,,,809.5083,810.0081,810.2583,814.0583,space,3.7889,,814.0583,46,1,815.0581,815.0581,819.3752,space,4.2893,,0,47,47,47,1,160,115,,,,,,,,
,,5a520774eedc3200014206b4,001,2023-12-16_14h45.41.845,bars,2023.2.3,Win32,60.24096386,,,,,,819.3809,820.3747,,,820.8658,821.1091,,109,109,,,,,,,,,,,,,,,,bars/045.png,bars/mask001.png,,,,,,,,,,,,4,1,,,,,,,6,2,5,5,,,,,,,,,,,820.3747,820.8657,821.1092,823.3259,space,2.1942,,823.3259,9,81,824.3246,824.3246,825.6913,space,1.3375,,0,48,48,48,1,100,10,,,,,,,,
,,5a520774eedc3200014206b4,001,2023-12-16_14h45.41.845,bars,2023.2.3,Win32,60.24096386,,,,,,825.6916,826.6912,,,827.1912,827.4415,,18,18,,,,,,,,,,,,,,,,bars/047.png,bars/mask006.png,,,,,,,,,,,,7,1,,,,,,,8,4,8,4,,,,,,,,,,,826.6912,827.1912,827.4415,829.1245,space,1.6618,,829.1245,3,52,830.1244,830.1244,832.7092,space,2.5668,,0,49,49,49,1,15,70,,,,,,,,
,,5a520774eedc3200014206b4,001,2023-12-16_14h45.41.845,bars,2023.2.3,Win32,60.24096386,,,,,,,,,,,,,,,,,,,,,,,,,,,,,,,,,,,,,,,,,,,,,,,,,,,,,,,,,,,,,,,,,,,,,,,,,,,,,,,,,,,,,,,,832.7097,892.7145,0,0,0,2,1,sequence_tables/blk004.csv
,,5a520774eedc3200014206b4,001,2023-12-16_14h45.41.845,bars,2023.2.3,Win32,60.24096386,,,,,,894.8842,895.8741,,,896.3636,896.6073,,104,104,,,,,,,,,,,,,,,,bars/025.png,bars/mask008.png,,,,,,,,,,,,6,1,,,,,,,5,7,6,8,,,,,,892.7208,894.8807,space,2.1564,,895.8742,896.3636,896.6074,900.6562,space,4.019,,900.6562,1,64,901.656,901.6561,901.662,,,,0,0,0,0,1,105,40,,,,,,,,
,,5a520774eedc3200014206b4,001,2023-12-16_14h45.41.845,bars,2023.2.3,Win32,60.24096386,,,,,,901.6621,902.6612,,,903.1559,903.4071,,150,150,,,,,,,,,,,,,,,,bars/007.png,bars/mask000.png,,,,,,,,,,,,1,1,,,,,,,7,9,5,8,,,,,,,,,,,902.6612,903.1559,903.4071,905.5561,space,2.1228,,905.5563,25,85,906.556,906.556,906.5568,,,,0,1,1,1,1,175,55,,,,,,,,
,,5a520774eedc3200014206b4,001,2023-12-16_14h45.41.845,bars,2023.2.3,Win32,60.24096386,,,,,,906.557,907.5552,,,908.0559,908.2965,,29,209,,,,,,,,,,,,,,,,bars/010.png,bars/mask001.png,,,,,,,,,,,,1,2,,,,,,,5,10,4,10,,,,,,,,,,,907.5553,908.0559,908.2965,911.3559,space,3.0369,,911.356,44,26,912.3558,912.3559,912.3626,,,,0,2,2,2,1,165,55,,,,,,,,
,,5a520774eedc3200014206b4,001,2023-12-16_14h45.41.845,bars,2023.2.3,Win32,60.24096386,,,,,,912.3629,913.3558,,,913.8559,914.1059,,69,69,,,,,,,,,,,,,,,,bars/019.png,bars/mask006.png,,,,,,,,,,,,0,1,,,,,,,3,10,2,9,,,,,,,,,,,913.3559,913.8559,914.1059,918.1561,space,4.0338,,918.1561,24,36,919.1556,919.1557,919.1614,,,,0,3,3,3,1,45,105,,,,,,,,
,,5a520774eedc3200014206b4,001,2023-12-16_14h45.41.845,bars,2023.2.3,Win32,60.24096386,,,,,,919.1617,920.1567,,,920.6462,920.8903,,114,114,,,,,,,,,,,,,,,,bars/039.png,bars/mask007.png,,,,,,,,,,,,7,2,,,,,,,1,10,0,10,,,,,,,,,,,920.1567,920.6462,920.8903,925.0389,space,4.1177,,925.0389,61,9,926.0389,926.039,926.0455,,,,0,4,4,4,1,175,105,,,,,,,,
,,5a520774eedc3200014206b4,001,2023-12-16_14h45.41.845,bars,2023.2.3,Win32,60.24096386,,,,,,926.0459,927.0388,,,927.5389,927.7888,,133,133,,,,,,,,,,,,,,,,bars/049.png,bars/mask004.png,,,,,,,,,,,,4,2,,,,,,,0,10,1,10,,,,,,,,,,,927.0388,927.5389,927.7888,933.9219,space,6.1243,,933.922,27,18,934.922,934.922,934.9275,,,,0,5,5,5,1,160,115,,,,,,,,
,,5a520774eedc3200014206b4,001,2023-12-16_14h45.41.845,bars,2023.2.3,Win32,60.24096386,,,,,,934.9277,935.9136,,,936.4053,936.6552,,111,111,,,,,,,,,,,,,,,,bars/032.png,bars/mask009.png,,,,,,,,,,,,1,1,,,,,,,2,8,1,10,,,,,,,,,,,935.9137,936.4053,936.6553,938.8078,space,2.1502,,938.8079,14,89,939.8052,939.8052,939.8123,,,,0,6,6,6,1,125,20,,,,,,,,
,,5a520774eedc3200014206b4,001,2023-12-16_14h45.41.845,bars,2023.2.3,Win32,60.24096386,,,,,,939.8127,940.8051,,,941.3051,941.5551,,30,30,,,,,,,,,,,,,,,,bars/036.png,bars/mask004.png,,,,,,,,,,,,3,2,,,,,,,0,6,0,5,,,,,,,,,,,940.8051,941.3051,941.5551,946.9217,space,5.3239,,946.9217,65,10,947.9216,947.9216,947.9273,,,,0,7,7,7,1,145,20,,,,,,,,
,,5a520774eedc3200014206b4,001,2023-12-16_14h45.41.845,bars,2023.2.3,Win32,60.24096386,,,,,,947.9275,948.9219,,,949.4216,949.6718,,32,32,,,,,,,,,,,,,,,,bars/016.png,bars/mask009.png,,,,,,,,,,,,1,1,,,,,,,0,8,1,7,,,,,,,,,,,948.9219,949.4216,949.6718,952.1049,space,2.4283,,952.1049,8,47,953.1061,953.1061,953.1166,,,,0,8,8,8,1,40,165,,,,,,,,
,,5a520774eedc3200014206b4,001,2023-12-16_14h45.41.845,bars,2023.2.3,Win32,60.24096386,,,,,,953.1176,954.1218,,,954.6215,954.8715,,114,114,,,,,,,,,,,,,,,,bars/045.png,bars/mask003.png,,,,,,,,,,,,0,1,,,,,,,0,6,0,5,,,,,,,,,,,954.1218,954.6214,954.8715,960.9547,space,6.0663,,960.9547,14,76,961.9547,961.9547,961.9602,,,,0,9,9,9,1,100,10,,,,,,,,
,,5a520774eedc3200014206b4,001,2023-12-16_14h45.41.845,bars,2023.2.3,Win32,60.24096386,,,,,,961.9603,962.9546,,,963.4545,963.7046,,41,41,,,,,,,,,,,,,,,,bars/003.png,bars/mask009.png,,,,,,,,,,,,0,1,,,,,,,0,8,1,8,,,,,,,,,,,962.9546,963.4545,963.7047,967.7877,space,4.0511,,967.7878,16,81,968.7878,968.7878,968.7931,,,,0,10,10,10,1,25,140,,,,,,,,
,,5a520774eedc3200014206b4,001,2023-12-16_14h45.41.845,bars,2023.2.3,Win32,60.24096386,,,,,,968.7931,969.7906,,,970.2954,970.5392,,61,61,,,,,,,,,,,,,,,,bars/013.png,bars/mask009.png,,,,,,,,,,,,0,1,,,,,,,0,10,0,10,,,,,,,,,,,969.7908,970.2953,970.5393,973.3392,space,2.7835,,973.3392,14,51,974.339,974.339,974.3444,,,,0,11,11,11,1,75,10,,,,,,,,
,,5a520774eedc3200014206b4,001,2023-12-16_14h45.41.845,bars,2023.2.3,Win32,60.24096386,,,,,,974.3446,975.3449,,,975.845,976.095,,121,121,,,,,,,,,,,,,,,,bars/023.png,bars/mask005.png,,,,,,,,,,,,6,2,,,,,,,0,8,0,8,,,,,,,,,,,975.3449,975.845,976.095,981.2727,space,5.1612,,981.2728,79,6,982.2709,982.271,982.28,,,,0,12,12,12,1,20,115,,,,,,,,
,,5a520774eedc3200014206b4,001,2023-12-16_14h45.41.845,bars,2023.2.3,Win32,60.24096386,,,,,,982.2806,983.2709,,,983.7708,984.0106,,101,-79,,,,,,,,,,,,,,,,bars/023.png,bars/mask009.png,,,,,,,,,,,,3,2,,,,,,,2,6,2,5,,,,,,,,,,,983.2709,983.7707,984.0107,987.8206,space,3.7984,,987.8207,81,14,988.8207,988.8207,988.8256,,,,0,13,13,13,1,20,115,,,,,,,,
,,5a520774eedc3200014206b4,001,2023-12-16_14h45.41.845,bars,2023.2.3,Win32,60.24096386,,,,,,988.8257,989.8192,,,990.3207,990.5706,,161,161,,,,,,,,,,,,,,,,bars/036.png,bars/mask009.png,,,,,,,,,,,,0,1,,,,,,,0,8,1,8,,,,,,,,,,,989.8193,990.3206,990.5706,1001.5872,space,10.9881,,1001.5873,16,39,1002.5871,1002.5871,1002.5934,,,,0,14,14,14,1,145,20,,,,,,,,
,,5a520774eedc3200014206b4,001,2023-12-16_14h45.41.845,bars,2023.2.3,Win32,60.24096386,,,,,,1002.5936,1003.5871,,,1004.087,1004.337,,85,85,,,,,,,,,,,,,,,,bars/013.png,bars/mask002.png,,,,,,,,,,,,0,1,,,,,,,2,10,0,10,,,,,,,,,,,1003.5871,1004.0869,1004.337,1007.5869,space,3.222,,1007.587,10,75,1008.5878,1008.5878,1008.5927,,,,0,15,15,15,1,75,10,,,,,,,,
,,5a520774eedc3200014206b4,001,2023-12-16_14h45.41.845,bars,2023.2.3,Win32,60.24096386,,,,,,1008.5928,1009.5868,,,1010.0868,1010.3439,,8,8,,,,,,,,,,,,,,,,bars/012.png,bars/mask004.png,,,,,,,,,,,,8,2,,,,,,,4,10,2,10,,,,,,,,,,,1009.5868,1010.0868,1010.3439,1014.2751,space,3.9072,,1014.2752,82,7,1015.27,1015.2701,1015.276,,,,0,16,16,16,1,90,15,,,,,,,,
,,5a520774eedc3200014206b4,001,2023-12-16_14h45.41.845,bars,2023.2.3,Win32,60.24096386,,,,,,1015.2763,1016.2701,,,1016.7703,1017.02,,107,107,,,,,,,,,,,,,,,,bars/037.png,bars/mask001.png,,,,,,,,,,,,8,2,,,,,,,2,8,2,9,,,,,,,,,,,1016.2701,1016.7703,1017.0201,1020.2867,space,3.2528,,1020.2867,43,2,1021.2865,1021.2865,1021.2919,,,,0,17,17,17,1,150,105,,,,,,,,
,,5a520774eedc3200014206b4,001,2023-12-16_14h45.41.845,bars,2023.2.3,Win32,60.24096386,,,,,,1021.292,1022.2866,,,1022.7866,1023.0366,,99,99,,,,,,,,,,,,,,,,bars/037.png,bars/mask004.png,,,,,,,,,,,,6,2,,,,,,,0,6,0,7,,,,,,,,,,,1022.2866,1022.7865,1023.0366,1027.0032,space,3.9562,,1027.0032,51,6,1028.0031,1028.0031,1028.0085,,,,0,18,18,18,1,150,105,,,,,,,,
,,5a520774eedc3200014206b4,001,2023-12-16_14h45.41.845,bars,2023.2.3,Win32,60.24096386,,,,,,1028.0086,1029.0032,,,1029.5036,1029.7526,,65,65,,,,,,,,,,,,,,,,bars/046.png,bars/mask009.png,,,,,,,,,,,,1,2,,,,,,,0,4,2,3,,,,,,,,,,,1029.0032,1029.5036,1029.7526,1031.1198,space,1.3477,,1031.1199,90,20,1032.1196,1032.1196,1032.1202,,,,0,19,19,19,1,155,85,,,,,,,,
,,5a520774eedc3200014206b4,001,2023-12-16_14h45.41.845,bars,2023.2.3,Win32,60.24096386,,,,,,1032.1204,1033.1198,,,1033.6199,1033.8748,,72,72,,,,,,,,,,,,,,,,bars/019.png,bars/mask005.png,,,,,,,,,,,,0,1,,,,,,,2,2,1,1,,,,,,,,,,,1033.1199,1033.6198,1033.8748,1036.2548,space,2.3599,,1036.2548,27,33,1037.2528,1037.2528,1037.259,,,,0,20,20,20,1,45,105,,,,,,,,
,,5a520774eedc3200014206b4,001,2023-12-16_14h45.41.845,bars,2023.2.3,Win32,60.24096386,,,,,,1037.2593,1038.2531,,,1038.753,1039.0031,,94,94,,,,,,,,,,,,,,,,bars/027.png,bars/mask006.png,,,,,,,,,,,,2,1,,,,,,,4,0,4,0,,,,,,,,,,,1038.2531,1038.7529,1039.0031,1041.0435,space,2.0386,,1041.0435,16,44,1042.0373,1042.0373,1042.0376,,,,0,21,21,21,1,110,50,,,,,,,,
,,5a520774eedc3200014206b4,001,2023-12-16_14h45.41.845,bars,2023.2.3,Win32,60.24096386,,,,,,1042.0377,1043.0266,,,1043.5193,1043.7847,,43,43,,,,,,,,,,,,,,,,bars/035.png,bars/mask009.png,,,,,,,,,,,,0,2,,,,,,,2,0,3,0,,,,,,,,,,,1043.0266,1043.5193,1043.7847,1046.1859,space,2.3954,,1046.186,48,17,1047.1862,1047.1863,1047.1942,,,,0,22,22,22,1,175,60,,,,,,,,
,,5a520774eedc3200014206b4,001,2023-12-16_14h45.41.845,bars,2023.2.3,Win32,60.24096386,,,,,,1047.1949,1048.186,,,1048.6859,1048.9358,,95,95,,,,,,,,,,,,,,,,bars/013.png,bars/mask008.png,,,,,,,,,,,,0,1,,,,,,,0,0,1,0,,,,,,,,,,,1048.1861,1048.6859,1048.9358,1052.2192,space,3.2732,,1052.2192,20,85,1053.219,1053.2192,1053.2249,,,,0,23,23,23,1,75,10,,,,,,,,
,,5a520774eedc3200014206b4,001,2023-12-16_14h45.41.845,bars,2023.2.3,Win32,60.24096386,,,,,,1053.2252,1054.2192,,,1054.7191,1054.9691,,60,60,,,,,,,,,,,,,,,,bars/026.png,bars/mask009.png,,,,,,,,,,,,0,2,,,,,,,2,2,2,1,,,,,,,,,,,1054.2192,1054.7191,1054.9692,1057.2523,space,2.2727,,1057.2523,25,25,1058.2526,1058.2527,1058.26,,,,0,24,24,24,1,35,85,,,,,,,,
,,5a520774eedc3200014206b4,001,2023-12-16_14h45.41.845,bars,2023.2.3,Win32,60.24096386,,,,,,1058.2607,1059.2523,,,1059.7522,1060.0023,,27,27,,,,,,,,,,,,,,,,bars/006.png,bars/mask000.png,,,,,,,,,,,,0,1,,,,,,,0,0,0,0,,,,,,,,,,,1059.2523,1059.7522,1060.0024,1061.9689,space,1.9592,,1061.9689,8,73,1062.9689,1062.969,1062.9761,,,,0,25,25,25,1,35,100,,,,,,,,
,,5a520774eedc3200014206b4,001,2023-12-16_14h45.41.845,bars,2023.2.3,Win32,60.24096386,,,,,,1062.9766,1063.9689,,,1064.4691,1064.7189,,72,72,,,,,,,,,,,,,,,,bars/018.png,bars/mask002.png,,,,,,,,,,,,0,2,,,,,,,0,0,0,0,,,,,,,,,,,1063.9689,1064.4691,1064.7189,1066.8022,space,2.0655,,1066.8023,78,18,1067.7903,1067.7904,1067.7978,,,,0,26,26,26,1,150,90,,,,,,,,
,,5a520774eedc3200014206b4,001,2023-12-16_14h45.41.845,bars,2023.2.3,Win32,60.24096386,,,,,,1067.7983,1068.8022,,,1069.3025,1069.5522,,37,37,,,,,,,,,,,,,,,,bars/009.png,bars/mask006.png,,,,,,,,,,,,1,1,,,,,,,2,0,2,1,,,,,,,,,,,1068.8022,1069.3025,1069.5522,1073.9686,space,4.3941,,1073.9687,22,68,1074.9686,1074.9686,1074.9745,,,,0,27,27,27,1,15,105,,,,,,,,
,,5a520774eedc3200014206b4,001,2023-12-16_14h45.41.845,bars,2023.2.3,Win32,60.24096386,,,,,,1074.9748,1075.9687,,,1076.4687,1076.7186,,145,145,,,,,,,,,,,,,,,,bars/016.png,bars/mask006.png,,,,,,,,,,,,1,2,,,,,,,0,2,2,2,,,,,,,,,,,1075.9687,1076.4687,1076.7187,1078.4034,space,1.6773,,1078.4034,75,20,1079.4091,1079.4092,1079.4157,,,,0,28,28,28,1,40,165,,,,,,,,
,,5a520774eedc3200014206b4,001,2023-12-16_14h45.41.845,bars,2023.2.3,Win32,60.24096386,,,,,,1079.416,1080.4185,,,1080.9093,1081.153,,164,164,,,,,,,,,,,,,,,,bars/039.png,bars/mask007.png,,,,,,,,,,,,1,1,,,,,,,2,0,1,0,,,,,,,,,,,1080.4185,1080.9092,1081.153,1086.735,space,5.5561,,1086.7351,11,59,1087.735,1087.735,1087.7413,,,,0,29,29,29,1,175,105,,,,,,,,
,,5a520774eedc3200014206b4,001,2023-12-16_14h45.41.845,bars,2023.2.3,Win32,60.24096386,,,,,,1087.7416,1088.735,,,1089.2349,1089.4849,,169,169,,,,,,,,,,,,,,,,bars/024.png,bars/mask006.png,,,,,,,,,,,,3,2,,,,,,,0,2,1,3,,,,,,,,,,,1088.735,1089.2349,1089.485,1093.2926,space,3.8052,,1093.2928,49,1,1094.286,1094.2861,1094.2917,,,,0,30,30,30,1,120,170,,,,,,,,
,,5a520774eedc3200014206b4,001,2023-12-16_14h45.41.845,bars,2023.2.3,Win32,60.24096386,,,,,,1094.292,1095.2924,,,1095.8009,1096.0514,,22,22,,,,,,,,,,,,,,,,bars/035.png,bars/mask000.png,,,,,,,,,,,,0,1,,,,,,,0,0,0,1,,,,,,,,,,,1095.2924,1095.8009,1096.0514,1098.1848,space,2.1175,,1098.1849,27,38,1099.1897,1099.1897,1099.1969,,,,0,31,31,31,1,175,60,,,,,,,,
,,5a520774eedc3200014206b4,001,2023-12-16_14h45.41.845,bars,2023.2.3,Win32,60.24096386,,,,,,1099.1975,1100.2015,,,1100.7015,1100.9562,,99,99,,,,,,,,,,,,,,,,bars/012.png,bars/mask005.png,,,,,,,,,,,,1,1,,,,,,,2,2,2,2,,,,,,,,,,,1100.2016,1100.7015,1100.9563,1105.1012,space,4.1189,,1105.1013,9,84,1106.1012,1106.1012,1106.1078,,,,0,32,32,32,1,90,15,,,,,,,,
,,5a520774eedc3200014206b4,001,2023-12-16_14h45.41.845,bars,2023.2.3,Win32,60.24096386,,,,,,1106.1079,1107.1011,,,1107.6012,1107.8513,,106,106,,,,,,,,,,,,,,,,bars/004.png,bars/mask003.png,,,,,,,,,,,,2,2,,,,,,,4,4,4,6,,,,,,,,,,,1107.1011,1107.6012,1107.8513,1112.7843,space,4.8949,,1112.7843,81,19,1113.7844,1113.7844,1113.7903,,,,0,33,33,33,1,25,125,,,,,,,,
,,5a520774eedc3200014206b4,001,2023-12-16_14h45.41.845,bars,2023.2.3,Win32,60.24096386,,,,,,1113.7906,1114.7843,,,1115.2843,1115.5344,,101,101,,,,,,,,,,,,,,,,bars/025.png,bars/mask006.png,,,,,,,,,,,,6,1,,,,,,,6,2,7,2,,,,,,,,,,,1114.7844,1115.2843,1115.5344,1117.519,space,1.9828,,1117.5191,4,61,1118.5176,1118.5176,1118.5187,,,,0,34,34,34,1,105,40,,,,,,,,
,,5a520774eedc3200014206b4,001,2023-12-16_14h45.41.845,bars,2023.2.3,Win32,60.24096386,,,,,,1118.5189,1119.5176,,,1120.0176,1120.2676,,30,30,,,,,,,,,,,,,,,,bars/035.png,bars/mask002.png,,,,,,,,,,,,0,2,,,,,,,4,4,4,4,,,,,,,,,,,1119.5176,1120.0176,1120.2676,1122.4583,space,2.1833,,1122.4584,35,30,1123.4582,1123.4582,1123.4645,,,,0,35,35,35,1,175,60,,,,,,,,
,,5a520774eedc3200014206b4,001,2023-12-16_14h45.41.845,bars,2023.2.3,Win32,60.24096386,,,,,,1123.4648,1124.4748,,,1124.9748,1125.2249,,8,8,,,,,,,,,,,,,,,,bars/012.png,bars/mask009.png,,,,,,,,,,,,4,2,,,,,,,2,6,3,5,,,,,,,,,,,1124.4748,1124.9748,1125.225,1130.1748,space,4.9397,,1130.1749,82,7,1131.1672,1131.1673,1131.1725,,,,0,36,36,36,1,90,15,,,,,,,,
,,5a520774eedc3200014206b4,001,2023-12-16_14h45.41.845,bars,2023.2.3,Win32,60.24096386,,,,,,1131.1727,1132.1669,,,1132.6675,1132.9173,,97,97,,,,,,,,,,,,,,,,bars/026.png,bars/mask000.png,,,,,,,,,,,,4,2,,,,,,,4,8,4,7,,,,,,,,,,,1132.1669,1132.6675,1132.9173,1135.4362,space,2.5137,,1135.4362,62,12,1136.4338,1136.4338,1136.4397,,,,0,37,37,37,1,35,85,,,,,,,,
,,5a520774eedc3200014206b4,001,2023-12-16_14h45.41.845,bars,2023.2.3,Win32,60.24096386,,,,,,1136.4398,1137.4337,,,1137.9337,1138.1838,,12,12,,,,,,,,,,,,,,,,bars/033.png,bars/mask006.png,,,,,,,,,,,,4,1,,,,,,,6,10,7,10,,,,,,,,,,,1137.4337,1137.9337,1138.1839,1139.6336,space,1.4431,,1139.6337,13,37,1140.6336,1140.6337,1140.6347,,,,0,38,38,38,1,25,155,,,,,,,,
,,5a520774eedc3200014206b4,001,2023-12-16_14h45.41.845,bars,2023.2.3,Win32,60.24096386,,,,,,1140.635,1141.6337,,,1142.1337,1142.3837,,117,117,,,,,,,,,,,,,,,,bars/015.png,bars/mask005.png,,,,,,,,,,,,6,1,,,,,,,8,8,8,8,,,,,,,,,,,1141.6338,1142.1337,1142.3837,1147.7337,space,5.3271,,1147.7338,7,43,1148.7336,1148.7336,1148.7398,,,,0,39,39,39,1,110,160,,,,,,,,
,,5a520774eedc3200014206b4,001,2023-12-16_14h45.41.845,bars,2023.2.3,Win32,60.24096386,,,,,,1148.74,1149.7336,,,1150.243,1150.4838,,28,28,,,,,,,,,,,,,,,,bars/023.png,bars/mask006.png,,,,,,,,,,,,7,1,,,,,,,10,6,10,5,,,,,,,,,,,1149.7337,1150.243,1150.4838,1152.4669,space,1.9709,,1152.4669,8,87,1153.4668,1153.4668,1153.4722,,,,0,40,40,40,1,20,115,,,,,,,,
,,5a520774eedc3200014206b4,001,2023-12-16_14h45.41.845,bars,2023.2.3,Win32,60.24096386,,,,,,1153.4723,1154.4667,,,1154.9668,1155.2169,,138,138,,,,,,,,,,,,,,,,bars/005.png,bars/mask003.png,,,,,,,,,,,,7,2,,,,,,,8,8,7,7,,,,,,,,,,,1154.4667,1154.9668,1155.2169,1157.0001,space,1.773,,1157.0001,52,2,1158.0073,1158.0073,1158.014,,,,0,41,41,41,1,10,140,,,,,,,,
,,5a520774eedc3200014206b4,001,2023-12-16_14h45.41.845,bars,2023.2.3,Win32,60.24096386,,,,,,1158.0145,1159.0165,,,1159.5166,1159.7518,,29,29,,,,,,,,,,,,,,,,bars/016.png,bars/mask002.png,,,,,,,,,,,,6,1,,,,,,,10,10,10,10,,,,,,,,,,,1159.0165,1159.5166,1159.7518,1164.5665,space,4.7929,,1164.5665,11,44,1165.5664,1165.5664,1165.5732,,,,0,42,42,42,1,40,165,,,,,,,,
,,5a520774eedc3200014206b4,001,2023-12-16_14h45.41.845,bars,2023.2.3,Win32,60.24096386,,,,,,1165.5737,1166.5666,,,1167.0665,1167.3164,,104,104,,,,,,,,,,,,,,,,bars/008.png,bars/mask005.png,,,,,,,,,,,,7,1,,,,,,,10,10,9,10,,,,,,,,,,,1166.5666,1167.0665,1167.3164,1171.5676,space,4.2437,,1171.5676,6,76,1172.5664,1172.5664,1172.5716,,,,0,43,43,43,1,110,0,,,,,,,,
,,5a520774eedc3200014206b4,001,2023-12-16_14h45.41.845,bars,2023.2.3,Win32,60.24096386,,,,,,1172.5717,1173.5663,,,1174.0663,1174.3164,,14,14,,,,,,,,,,,,,,,,bars/035.png,bars/mask000.png,,,,,,,,,,,,4,1,,,,,,,10,10,10,10,,,,,,,,,,,1173.5663,1174.0663,1174.3164,1177.2996,space,2.9791,,1177.2996,19,46,1178.2995,1178.2995,1178.3046,,,,0,44,44,44,1,175,60,,,,,,,,
,,5a520774eedc3200014206b4,001,2023-12-16_14h45.41.845,bars,2023.2.3,Win32,60.24096386,,,,,,1178.3046,1179.2997,,,1179.7995,1180.0494,,43,43,,,,,,,,,,,,,,,,bars/048.png,bars/mask006.png,,,,,,,,,,,,8,1,,,,,,,10,8,10,6,,,,,,,,,,,1179.2997,1179.7995,1180.0495,1183.2163,space,3.158,,1183.2163,7,48,1184.216,1184.216,1184.2212,,,,0,45,45,45,1,50,175,,,,,,,,
,,5a520774eedc3200014206b4,001,2023-12-16_14h45.41.845,bars,2023.2.3,Win32,60.24096386,,,,,,1184.2213,1185.2159,,,1185.7161,1185.966,,37,37,,,,,,,,,,,,,,,,bars/000.png,bars/mask001.png,,,,,,,,,,,,5,1,,,,,,,8,6,6,6,,,,,,,,,,,1185.216,1185.716,1185.966,1187.7493,space,1.7673,,1187.7493,3,72,1188.7564,1188.7564,1188.7569,,,,0,46,46,46,1,40,145,,,,,,,,
,,5a520774eedc3200014206b4,001,2023-12-16_14h45.41.845,bars,2023.2.3,Win32,60.24096386,,,,,,1188.757,1189.7491,,,1190.2493,1190.4991,,40,40,,,,,,,,,,,,,,,,bars/005.png,bars/mask002.png,,,,,,,,,,,,0,1,,,,,,,10,4,10,4,,,,,,,,,,,1189.7492,1190.2492,1190.4992,1192.9339,space,2.4168,,1192.934,30,80,1193.923,1193.923,1193.9299,,,,0,47,47,47,1,10,140,,,,,,,,
,,5a520774eedc3200014206b4,001,2023-12-16_14h45.41.845,bars,2023.2.3,Win32,60.24096386,,,,,,1193.9301,1194.923,,,1195.417,1195.6671,,155,155,,,,,,,,,,,,,,,,bars/003.png,bars/mask006.png,,,,,,,,,,,,1,2,,,,,,,8,2,7,2,,,,,,,,,,,1194.923,1195.417,1195.6672,1197.3837,space,1.7003,,1197.3837,50,15,1198.3807,1198.3807,1198.3873,,,,0,48,48,48,1,25,140,,,,,,,,
,,5a520774eedc3200014206b4,001,2023-12-16_14h45.41.845,bars,2023.2.3,Win32,60.24096386,,,,,,1198.3875,1199.3823,,,1199.8823,1200.1324,,101,101,,,,,,,,,,,,,,,,bars/024.png,bars/mask002.png,,,,,,,,,,,,4,1,,,,,,,10,0,10,0,,,,,,,,,,,1199.3824,1199.8823,1200.1324,1201.4989,space,1.3463,,1201.4989,19,69,1202.5034,1202.5035,1202.5083,,,,0,49,49,49,1,120,170,,,,,,,,
,,5a520774eedc3200014206b4,001,2023-12-16_14h45.41.845,bars,2023.2.3,Win32,60.24096386,,,,,,,,,,,,,,,,,,,,,,,,,,,,,,,,,,,,,,,,,,,,,,,,,,,,,,,,,,,,,,,,,,,,,,,,,,,,,,,,,,,,,,,,1202.5089,1262.4989,0,1,1,0,1,sequence_tables/blk002.csv
,,5a520774eedc3200014206b4,001,2023-12-16_14h45.41.845,bars,2023.2.3,Win32,60.24096386,,,,,,1275.951,1276.9472,,,1277.4472,1277.6971,,126,126,,,,,,,,,,,,,,,,bars/021.png,bars/mask007.png,,,,,,,,,,,,0,1,,,,,,,6,1,6,0,,,,,,1262.5054,1275.9473,space,13.4221,,1276.9472,1277.4472,1277.6971,1279.6217,space,1.9007,,1279.6218,29,56,1280.6139,1280.614,1280.6152,,,,0,0,0,0,1,155,70,,,,,,,,
,,5a520774eedc3200014206b4,001,2023-12-16_14h45.41.845,bars,2023.2.3,Win32,60.24096386,,,,,,1280.6154,1281.6138,,,1282.1043,1282.3474,,20,20,,,,,,,,,,,,,,,,bars/010.png,bars/mask006.png,,,,,,,,,,,,0,2,,,,,,,8,3,8,3,,,,,,,,,,,1281.6138,1282.1043,1282.3474,1285.2804,space,2.9011,,1285.2804,35,35,1286.2802,1286.2803,1286.2869,,,,0,1,1,1,1,165,55,,,,,,,,
,,5a520774eedc3200014206b4,001,2023-12-16_14h45.41.845,bars,2023.2.3,Win32,60.24096386,,,,,,1286.2876,1287.2802,,,1287.7803,1288.0306,,114,114,,,,,,,,,,,,,,,,bars/018.png,bars/mask005.png,,,,,,,,,,,,1,2,,,,,,,10,5,10,6,,,,,,,,,,,1287.2802,1287.7802,1288.0306,1291.9803,space,3.9394,,1291.9803,36,24,1292.9801,1292.9801,1292.9852,,,,0,2,2,2,1,150,90,,,,,,,,
,,5a520774eedc3200014206b4,001,2023-12-16_14h45.41.845,bars,2023.2.3,Win32,60.24096386,,,,,,1292.9853,1293.9801,,,1294.4802,1294.7301,,106,106,,,,,,,,,,,,,,,,bars/006.png,bars/mask006.png,,,,,,,,,,,,2,2,,,,,,,10,3,9,2,,,,,,,,,,,1293.9801,1294.4801,1294.7302,1299.5647,space,4.831,,1299.5647,71,6,1300.5632,1300.5632,1300.5692,,,,0,3,3,3,1,35,100,,,,,,,,
,,5a520774eedc3200014206b4,001,2023-12-16_14h45.41.845,bars,2023.2.3,Win32,60.24096386,,,,,,1300.5693,1301.5633,,,1302.0631,1302.3132,,72,72,,,,,,,,,,,,,,,,bars/029.png,bars/mask002.png,,,,,,,,,,,,3,1,,,,,,,8,1,7,1,,,,,,,,,,,1301.5633,1302.0631,1302.3132,1304.3635,space,2.0405,,1304.3636,18,27,1305.3637,1305.3637,1305.3698,,,,0,4,4,4,1,90,45,,,,,,,,
,,5a520774eedc3200014206b4,001,2023-12-16_14h45.41.845,bars,2023.2.3,Win32,60.24096386,,,,,,1305.3701,1306.3634,,,1306.8633,1307.113,,117,117,,,,,,,,,,,,,,,,bars/024.png,bars/mask006.png,,,,,,,,,,,,5,1,,,,,,,6,0,6,0,,,,,,,,,,,1306.3634,1306.8633,1307.113,1311.1487,space,4.0055,,1311.1487,3,53,1312.1464,1312.1464,1312.1516,,,,0,5,5,5,1,120,170,,,,,,,,
,,5a520774eedc3200014206b4,001,2023-12-16_14h45.41.845,bars,2023.2.3,Win32,60.24096386,,,,,,1312.1517,1313.1464,,,1313.6462,1313.8962,,166,166,,,,,,,,,,,,,,,,bars/009.png,bars/mask007.png,,,,,,,,,,,,0,1,,,,,,,8,0,7,1,,,,,,,,,,,1313.1464,1313.6462,1313.8963,1320.8963,space,6.9842,,1320.8964,29,61,1321.896,1321.896,1321.9019,,,,0,6,6,6,1,15,105,,,,,,,,
,,5a520774eedc3200014206b4,001,2023-12-16_14h45.41.845,bars,2023.2.3,Win32,60.24096386,,,,,,1321.902,1322.8961,,,1323.396,1323.6461,,142,142,,,,,,,,,,,,,,,,bars/021.png,bars/mask000.png,,,,,,,,,,,,6,1,,,,,,,10,2,10,3,,,,,,,,,,,1322.8962,1323.396,1323.6461,1330.796,space,7.1228,,1330.796,13,72,1331.7959,1331.7959,1331.8019,,,,0,7,7,7,1,155,70,,,,,,,,
,,5a520774eedc3200014206b4,001,2023-12-16_14h45.41.845,bars,2023.2.3,Win32,60.24096386,,,,,,1331.8022,1332.7958,,,1333.2958,1333.5458,,159,159,,,,,,,,,,,,,,,,bars/049.png,bars/mask000.png,,,,,,,,,,,,9,1,,,,,,,8,0,9,0,,,,,,,,,,,1332.7958,1333.2958,1333.5458,1338.2131,space,4.6554,,1338.2132,1,44,1339.2123,1339.2123,1339.2176,,,,0,8,8,8,1,160,115,,,,,,,,
,,5a520774eedc3200014206b4,001,2023-12-16_14h45.41.845,bars,2023.2.3,Win32,60.24096386,,,,,,1339.2176,1340.2196,,,1340.7196,1340.9635,,125,125,,,,,,,,,,,,,,,,bars/020.png,bars/mask004.png,,,,,,,,,,,,5,1,,,,,,,6,0,8,0,,,,,,,,,,,1340.2196,1340.7196,1340.9635,1343.4957,space,2.5022,,1343.4957,10,45,1344.4955,1344.4956,1344.5013,,,,0,9,9,9,1,115,170,,,,,,,,
,,5a520774eedc3200014206b4,001,2023-12-16_14h45.41.845,bars,2023.2.3,Win32,60.24096386,,,,,,1344.5014,1345.4957,,,1345.9955,1346.2455,,38,38,,,,,,,,,,,,,,,,bars/035.png,bars/mask006.png,,,,,,,,,,,,0,2,,,,,,,4,2,3,0,,,,,,,,,,,1345.4957,1345.9955,1346.2455,1349.7287,space,3.4575,,1349.7288,43,22,1350.7286,1350.7287,1350.7342,,,,0,10,10,10,1,175,60,,,,,,,,
,,5a520774eedc3200014206b4,001,2023-12-16_14h45.41.845,bars,2023.2.3,Win32,60.24096386,,,,,,1350.7344,1351.7287,,,1352.2302,1352.4861,,106,106,,,,,,,,,,,,,,,,bars/014.png,bars/mask003.png,,,,,,,,,,,,0,1,,,,,,,2,0,2,1,,,,,,,,,,,1351.7287,1352.2302,1352.4862,1356.0787,space,3.5819,,1356.0787,26,74,1357.0785,1357.0785,1357.0842,,,,0,11,11,11,1,80,0,,,,,,,,
,,5a520774eedc3200014206b4,001,2023-12-16_14h45.41.845,bars,2023.2.3,Win32,60.24096386,,,,,,1357.0844,1358.0785,,,1358.5786,1358.8287,,161,161,,,,,,,,,,,,,,,,bars/015.png,bars/mask001.png,,,,,,,,,,,,2,2,,,,,,,4,2,6,2,,,,,,,,,,,1358.0786,1358.5786,1358.8287,1360.8121,space,1.9729,,1360.8121,51,1,1361.8193,1361.8193,1361.8259,,,,0,12,12,12,1,110,160,,,,,,,,
,,5a520774eedc3200014206b4,001,2023-12-16_14h45.41.845,bars,2023.2.3,Win32,60.24096386,,,,,,1361.8262,1362.8294,,,1363.3285,1363.5785,,108,108,,,,,,,,,,,,,,,,bars/037.png,bars/mask002.png,,,,,,,,,,,,2,2,,,,,,,2,0,2,2,,,,,,,,,,,1362.8294,1363.3285,1363.5786,1365.3357,space,1.7395,,1365.3357,42,3,1366.3283,1366.3284,1366.3287,,,,0,13,13,13,1,150,105,,,,,,,,
,,5a520774eedc3200014206b4,001,2023-12-16_14h45.41.845,bars,2023.2.3,Win32,60.24096386,,,,,,1366.3288,1367.3283,,,1367.8284,1368.0616,,109,109,,,,,,,,,,,,,,,,bars/030.png,bars/mask006.png,,,,,,,,,,,,0,1,,,,,,,4,0,6,0,,,,,,,,,,,1367.3283,1367.8283,1368.0617,1371.5856,space,3.5002,,1371.5858,31,44,1372.5782,1372.5782,1372.5849,,,,0,14,14,14,1,140,65,,,,,,,,
,,5a520774eedc3200014206b4,001,2023-12-16_14h45.41.845,bars,2023.2.3,Win32,60.24096386,,,,,,1372.5853,1373.5781,,,1374.0804,1374.3281,,16,16,,,,,,,,,,,,,,,,bars/048.png,bars/mask009.png,,,,,,,,,,,,1,2,,,,,,,6,2,6,3,,,,,,,,,,,1373.5782,1374.0803,1374.3281,1376.4783,space,2.137,,1376.4783,34,21,1377.478,1377.4781,1377.4837,,,,0,15,15,15,1,50,175,,,,,,,,
,,5a520774eedc3200014206b4,001,2023-12-16_14h45.41.845,bars,2023.2.3,Win32,60.24096386,,,,,,1377.4839,1378.4783,,,1378.9781,1379.228,,7,7,,,,,,,,,,,,,,,,bars/007.png,bars/mask006.png,,,,,,,,,,,,5,1,,,,,,,8,4,9,2,,,,,,,,,,,1378.4783,1378.9781,1379.228,1382.6947,space,3.4592,,1382.6949,12,48,1383.6946,1383.6947,1383.702,,,,0,16,16,16,1,175,55,,,,,,,,
,,5a520774eedc3200014206b4,001,2023-12-16_14h45.41.845,bars,2023.2.3,Win32,60.24096386,,,,,,1383.7027,1384.6946,,,1385.1947,1385.4446,,173,173,,,,,,,,,,,,,,,,bars/009.png,bars/mask004.png,,,,,,,,,,,,1,1,,,,,,,6,2,5,1,,,,,,,,,,,1384.6946,1385.1947,1385.4446,1387.6113,space,2.1562,,1387.6113,22,68,1388.6111,1388.6112,1388.617,,,,0,17,17,17,1,15,105,,,,,,,,
,,5a520774eedc3200014206b4,001,2023-12-16_14h45.41.845,bars,2023.2.3,Win32,60.24096386,,,,,,1388.617,1389.611,,,1390.12,1390.3624,,13,193,,,,,,,,,,,,,,,,bars/007.png,bars/mask004.png,,,,,,,,,,,,2,1,,,,,,,4,0,4,0,,,,,,,,,,,1389.6111,1390.12,1390.3624,1394.1779,space,3.7838,,1394.1779,18,42,1395.1791,1395.1791,1395.1841,,,,0,18,18,18,1,175,55,,,,,,,,
,,5a520774eedc3200014206b4,001,2023-12-16_14h45.41.845,bars,2023.2.3,Win32,60.24096386,,,,,,1395.1843,1396.1776,,,1396.6673,1396.9109,,9,9,,,,,,,,,,,,,,,,bars/026.png,bars/mask005.png,,,,,,,,,,,,1,1,,,,,,,6,2,6,2,,,,,,,,,,,1396.1776,1396.6672,1396.911,1402.3611,space,5.4234,,1402.3611,26,76,1403.3609,1403.361,1403.3664,,,,0,19,19,19,1,35,85,,,,,,,,
,,5a520774eedc3200014206b4,001,2023-12-16_14h45.41.845,bars,2023.2.3,Win32,60.24096386,,,,,,1403.3665,1404.3738,,,1404.8774,1405.1274,,163,-17,,,,,,,,,,,,,,,,bars/018.png,bars/mask007.png,,,,,,,,,,,,4,1,,,,,,,8,4,7,6,,,,,,,,,,,1404.3738,1404.8774,1405.1274,1407.9477,space,2.8125,,1407.9478,13,73,1408.9441,1408.9441,1408.9492,,,,0,20,20,20,1,150,90,,,,,,,,
,,5a520774eedc3200014206b4,001,2023-12-16_14h45.41.845,bars,2023.2.3,Win32,60.24096386,,,,,,1408.9493,1409.944,,,1410.4441,1410.6939,,170,170,,,,,,,,,,,,,,,,bars/018.png,bars/mask003.png,,,,,,,,,,,,3,1,,,,,,,10,6,9,8,,,,,,,,,,,1409.944,1410.4441,1410.6939,1420.1353,space,9.4395,,1420.1354,20,80,1421.127,1421.127,1421.1334,,,,0,21,21,21,1,150,90,,,,,,,,
,,5a520774eedc3200014206b4,001,2023-12-16_14h45.41.845,bars,2023.2.3,Win32,60.24096386,,,,,,1421.1335,1422.127,,,1422.6271,1422.877,,8,8,,,,,,,,,,,,,,,,bars/041.png,bars/mask006.png,,,,,,,,,,,,5,1,,,,,,,8,4,8,4,,,,,,,,,,,1422.127,1422.6271,1422.877,1431.3182,space,8.4232,,1431.3183,12,77,1432.318,1432.318,1432.3242,,,,0,22,22,22,1,20,85,,,,,,,,
,,5a520774eedc3200014206b4,001,2023-12-16_14h45.41.845,bars,2023.2.3,Win32,60.24096386,,,,,,1432.3242,1433.3267,,,1433.8267,1434.0766,,14,194,,,,,,,,,,,,,,,,bars/016.png,bars/mask006.png,,,,,,,,,,,,1,1,,,,,,,10,2,10,1,,,,,,,,,,,1433.3267,1433.8267,1434.0766,1438.0119,space,3.9116,,1438.0119,26,29,1439.0099,1439.0099,1439.0158,,,,0,23,23,23,1,40,165,,,,,,,,
,,5a520774eedc3200014206b4,001,2023-12-16_14h45.41.845,bars,2023.2.3,Win32,60.24096386,,,,,,1439.0159,1440.0101,,,1440.51,1440.7599,,156,156,,,,,,,,,,,,,,,,bars/011.png,bars/mask002.png,,,,,,,,,,,,9,1,,,,,,,10,4,10,4,,,,,,,,,,,1440.0102,1440.5099,1440.7599,1442.7933,space,2.0004,,1442.7934,4,71,1443.7931,1443.7932,1443.7939,,,,0,24,24,24,1,160,85,,,,,,,,
,,5a520774eedc3200014206b4,001,2023-12-16_14h45.41.845,bars,2023.2.3,Win32,60.24096386,,,,,,1443.7941,1444.8004,,,1445.2931,1445.5432,,174,174,,,,,,,,,,,,,,,,bars/007.png,bars/mask009.png,,,,,,,,,,,,9,1,,,,,,,10,6,9,5,,,,,,,,,,,1444.8004,1445.293,1445.5432,1450.7766,space,5.2318,,1450.7766,1,61,1451.7783,1451.7784,1451.7839,,,,0,25,25,25,1,175,55,,,,,,,,
,,5a520774eedc3200014206b4,001,2023-12-16_14h45.41.845,bars,2023.2.3,Win32,60.24096386,,,,,,1451.784,1452.7779,,,1453.2762,1453.5263,,117,-63,,,,,,,,,,,,,,,,bars/002.png,bars/mask008.png,,,,,,,,,,,,6,1,,,,,,,10,8,10,9,,,,,,,,,,,1452.7779,1453.2762,1453.5263,1457.5762,space,4.0396,,1457.5762,13,32,1458.5762,1458.5762,1458.5817,,,,0,26,26,26,1,130,85,,,,,,,,
,,5a520774eedc3200014206b4,001,2023-12-16_14h45.41.845,bars,2023.2.3,Win32,60.24096386,,,,,,1458.5818,1459.5855,,,1460.0761,1460.3261,,132,132,,,,,,,,,,,,,,,,bars/008.png,bars/mask002.png,,,,,,,,,,,,3,1,,,,,,,10,10,10,10,,,,,,,,,,,1459.5855,1460.0761,1460.3261,1465.0927,space,4.7341,,1465.0927,22,48,1466.0927,1466.0927,1466.0975,,,,0,27,27,27,1,110,0,,,,,,,,
,,5a520774eedc3200014206b4,001,2023-12-16_14h45.41.845,bars,2023.2.3,Win32,60.24096386,,,,,,1466.0977,1467.0926,,,1467.5927,1467.8425,,121,121,,,,,,,,,,,,,,,,bars/024.png,bars/mask000.png,,,,,,,,,,,,8,1,,,,,,,8,10,8,9,,,,,,,,,,,1467.0926,1467.5926,1467.8426,1470.0101,space,2.1568,,1470.0101,1,49,1471.0096,1471.0097,1471.0145,,,,0,28,28,28,1,120,170,,,,,,,,
,,5a520774eedc3200014206b4,001,2023-12-16_14h45.41.845,bars,2023.2.3,Win32,60.24096386,,,,,,1471.0146,1472.0094,,,1472.5093,1472.7591,,48,48,,,,,,,,,,,,,,,,bars/033.png,bars/mask009.png,,,,,,,,,,,,1,1,,,,,,,6,8,5,8,,,,,,,,,,,1472.0094,1472.5092,1472.7591,1474.6092,space,1.8337,,1474.6092,23,73,1475.6113,1475.6113,1475.6171,,,,0,29,29,29,1,25,155,,,,,,,,
,,5a520774eedc3200014206b4,001,2023-12-16_14h45.41.845,bars,2023.2.3,Win32,60.24096386,,,,,,1475.6177,1476.609,,,1477.1093,1477.359,,128,128,,,,,,,,,,,,,,,,bars/004.png,bars/mask004.png,,,,,,,,,,,,9,2,,,,,,,4,10,5,10,,,,,,,,,,,1476.6091,1477.1093,1477.359,1482.8757,space,5.4877,,1482.8758,77,3,1483.8756,1483.8756,1483.8812,,,,0,30,30,30,1,25,125,,,,,,,,
,,5a520774eedc3200014206b4,001,2023-12-16_14h45.41.845,bars,2023.2.3,Win32,60.24096386,,,,,,1483.8816,1484.8755,,,1485.3755,1485.6254,,158,158,,,,,,,,,,,,,,,,bars/012.png,bars/mask004.png,,,,,,,,,,,,0,2,,,,,,,2,8,1,9,,,,,,,,,,,1484.8755,1485.3755,1485.6254,1487.6093,space,1.968,,1487.6094,68,37,1488.6088,1488.6088,1488.614,,,,0,31,31,31,1,90,15,,,,,,,,
,,5a520774eedc3200014206b4,001,2023-12-16_14h45.41.845,bars,2023.2.3,Win32,60.24096386,,,,,,1488.6142,1489.6161,,,1490.1161,1490.36,,9,9,,,,,,,,,,,,,,,,bars/033.png,bars/mask008.png,,,,,,,,,,,,0,1,,,,,,,0,10,0,7,,,,,,,,,,,1489.6162,1490.116,1490.36,1495.1086,space,4.7234,,1495.1086,16,34,1496.1087,1496.1087,1496.1146,,,,0,32,32,32,1,25,155,,,,,,,,
,,5a520774eedc3200014206b4,001,2023-12-16_14h45.41.845,bars,2023.2.3,Win32,60.24096386,,,,,,1496.115,1497.1085,,,1497.6089,1497.8585,,23,23,,,,,,,,,,,,,,,,bars/026.png,bars/mask003.png,,,,,,,,,,,,1,1,,,,,,,2,8,2,7,,,,,,,,,,,1497.1086,1497.6088,1497.8586,1499.6752,space,1.8066,,1499.6752,12,62,1500.6751,1500.6751,1500.6804,,,,0,33,33,33,1,35,85,,,,,,,,
,,5a520774eedc3200014206b4,001,2023-12-16_14h45.41.845,bars,2023.2.3,Win32,60.24096386,,,,,,1500.6804,1501.675,,,1502.1751,1502.425,,162,-18,,,,,,,,,,,,,,,,bars/009.png,bars/mask007.png,,,,,,,,,,,,0,1,,,,,,,0,10,1,10,,,,,,,,,,,1501.6751,1502.1751,1502.4251,1506.2417,space,3.8138,,1506.2417,33,57,1507.2417,1507.2417,1507.2473,,,,0,34,34,34,1,15,105,,,,,,,,
,,5a520774eedc3200014206b4,001,2023-12-16_14h45.41.845,bars,2023.2.3,Win32,60.24096386,,,,,,1507.2475,1508.2416,,,1508.7416,1508.9916,,39,219,,,,,,,,,,,,,,,,bars/005.png,bars/mask006.png,,,,,,,,,,,,0,1,,,,,,,2,10,1,10,,,,,,,,,,,1508.2417,1508.7416,1508.9916,1512.9825,space,3.9671,,1512.9826,29,79,1513.9748,1513.9748,1513.9805,,,,0,35,35,35,1,10,140,,,,,,,,
,,5a520774eedc3200014206b4,001,2023-12-16_14h45.41.845,bars,2023.2.3,Win32,60.24096386,,,,,,1513.9806,1514.9748,,,1515.4758,1515.7259,,21,21,,,,,,,,,,,,,,,,bars/013.png,bars/mask005.png,,,,,,,,,,,,6,2,,,,,,,4,10,4,9,,,,,,,,,,,1514.9748,1515.4758,1515.7259,1517.6575,space,1.9151,,1517.6576,54,11,1518.6582,1518.6582,1518.6639,,,,0,36,36,36,1,75,10,,,,,,,,
,,5a520774eedc3200014206b4,001,2023-12-16_14h45.41.845,bars,2023.2.3,Win32,60.24096386,,,,,,1518.6641,1519.6581,,,1520.1582,1520.408,,135,135,,,,,,,,,,,,,,,,bars/028.png,bars/mask007.png,,,,,,,,,,,,5,2,,,,,,,6,10,6,9,,,,,,,,,,,1519.6581,1520.1582,1520.4081,1523.0079,space,2.5791,,1523.008,90,15,1524.0079,1524.008,1524.013,,,,0,37,37,37,1,45,120,,,,,,,,
,,5a520774eedc3200014206b4,001,2023-12-16_14h45.41.845,bars,2023.2.3,Win32,60.24096386,,,,,,1524.0131,1525.0079,,,1525.508,1525.7579,,107,107,,,,,,,,,,,,,,,,bars/024.png,bars/mask004.png,,,,,,,,,,,,5,1,,,,,,,8,10,9,8,,,,,,,,,,,1525.008,1525.508,1525.7579,1528.0246,space,2.2558,,1528.0247,13,63,1529.0244,1529.0244,1529.0304,,,,0,38,38,38,1,120,170,,,,,,,,
,,5a520774eedc3200014206b4,001,2023-12-16_14h45.41.845,bars,2023.2.3,Win32,60.24096386,,,,,,1529.0307,1530.0256,,,1530.5257,1530.765,,104,104,,,,,,,,,,,,,,,,bars/001.png,bars/mask006.png,,,,,,,,,,,,3,2,,,,,,,6,8,7,9,,,,,,,,,,,1530.0256,1530.5257,1530.7651,1533.1911,space,2.4007,,1533.1911,26,19,1534.1911,1534.1911,1534.1969,,,,0,39,39,39,1,130,85,,,,,,,,
,,5a520774eedc3200014206b4,001,2023-12-16_14h45.41.845,bars,2023.2.3,Win32,60.24096386,,,,,,1534.1971,1535.1909,,,1535.6909,1535.941,,143,143,,,,,,,,,,,,,,,,bars/039.png,bars/mask009.png,,,,,,,,,,,,0,1,,,,,,,4,6,4,6,,,,,,,,,,,1535.1909,1535.6909,1535.941,1541.3576,space,5.3959,,1541.3576,32,38,1542.3574,1542.3575,1542.3639,,,,0,40,40,40,1,175,105,,,,,,,,
,,5a520774eedc3200014206b4,001,2023-12-16_14h45.41.845,bars,2023.2.3,Win32,60.24096386,,,,,,1542.3643,1543.3577,,,1543.8579,1544.1075,,162,162,,,,,,,,,,,,,,,,bars/036.png,bars/mask008.png,,,,,,,,,,,,3,1,,,,,,,6,8,6,9,,,,,,,,,,,1543.3578,1543.8578,1544.1075,1548.3574,space,4.2371,,1548.3574,17,38,1549.3574,1549.3574,1549.363,,,,0,41,41,41,1,145,20,,,,,,,,
,,5a520774eedc3200014206b4,001,2023-12-16_14h45.41.845,bars,2023.2.3,Win32,60.24096386,,,,,,1549.3631,1550.3573,,,1550.8573,1551.1074,,130,130,,,,,,,,,,,,,,,,bars/020.png,bars/mask003.png,,,,,,,,,,,,2,1,,,,,,,4,10,3,10,,,,,,,,,,,1550.3573,1550.8573,1551.1074,1561.857,space,10.7392,,1561.8571,15,40,1562.857,1562.857,1562.8622,,,,0,42,42,42,1,115,170,,,,,,,,
,,5a520774eedc3200014206b4,001,2023-12-16_14h45.41.845,bars,2023.2.3,Win32,60.24096386,,,,,,1562.8624,1563.8571,,,1564.3569,1564.6069,,145,145,,,,,,,,,,,,,,,,bars/007.png,bars/mask003.png,,,,,,,,,,,,0,1,,,,,,,2,10,2,10,,,,,,,,,,,1563.8571,1564.3569,1564.607,1567.6236,space,2.9963,,1567.6236,30,90,1568.6235,1568.6236,1568.6289,,,,0,43,43,43,1,175,55,,,,,,,,
,,5a520774eedc3200014206b4,001,2023-12-16_14h45.41.845,bars,2023.2.3,Win32,60.24096386,,,,,,1568.6289,1569.6235,,,1570.1235,1570.3736,,82,82,,,,,,,,,,,,,,,,bars/044.png,bars/mask002.png,,,,,,,,,,,,1,1,,,,,,,0,10,1,10,,,,,,,,,,,1569.6236,1570.1235,1570.3736,1574.3237,space,3.9315,,1574.3239,7,73,1575.3233,1575.3233,1575.3288,,,,0,44,44,44,1,75,155,,,,,,,,
,,5a520774eedc3200014206b4,001,2023-12-16_14h45.41.845,bars,2023.2.3,Win32,60.24096386,,,,,,1575.329,1576.3234,,,1576.8235,1577.0738,,136,136,,,,,,,,,,,,,,,,bars/000.png,bars/mask009.png,,,,,,,,,,,,6,2,,,,,,,2,10,1,9,,,,,,,,,,,1576.3234,1576.8235,1577.074,1581.2475,space,4.1709,,1581.2476,84,9,1582.2398,1582.2398,1582.2462,,,,0,45,45,45,1,40,145,,,,,,,,
,,5a520774eedc3200014206b4,001,2023-12-16_14h45.41.845,bars,2023.2.3,Win32,60.24096386,,,,,,1582.2467,1583.2398,,,1583.7399,1583.9899,,146,146,,,,,,,,,,,,,,,,bars/024.png,bars/mask009.png,,,,,,,,,,,,2,2,,,,,,,0,10,0,10,,,,,,,,,,,1583.2399,1583.7399,1583.9899,1586.4305,space,2.4169,,1586.4306,26,24,1587.423,1587.4231,1587.4282,,,,0,46,46,46,1,120,170,,,,,,,,
,,5a520774eedc3200014206b4,001,2023-12-16_14h45.41.845,bars,2023.2.3,Win32,60.24096386,,,,,,1587.4283,1588.4231,,,1588.923,1589.1729,,53,233,,,,,,,,,,,,,,,,bars/016.png,bars/mask002.png,,,,,,,,,,,,2,1,,,,,,,2,8,3,7,,,,,,,,,,,1588.4232,1588.923,1589.1729,1594.1231,space,4.9233,,1594.1231,13,68,1595.1232,1595.1232,1595.1291,,,,0,47,47,47,1,40,165,,,,,,,,
,,5a520774eedc3200014206b4,001,2023-12-16_14h45.41.845,bars,2023.2.3,Win32,60.24096386,,,,,,1595.1295,1596.1229,,,1596.623,1596.8802,,137,137,,,,,,,,,,,,,,,,bars/032.png,bars/mask007.png,,,,,,,,,,,,3,1,,,,,,,4,10,5,8,,,,,,,,,,,1596.1229,1596.623,1596.8803,1599.041,space,2.1496,,1599.041,12,63,1600.0394,1600.0394,1600.0448,,,,0,48,48,48,1,125,20,,,,,,,,
,,5a520774eedc3200014206b4,001,2023-12-16_14h45.41.845,bars,2023.2.3,Win32,60.24096386,,,,,,1600.0449,1601.0394,,,1601.5398,1601.7894,,107,107,,,,,,,,,,,,,,,,bars/024.png,bars/mask007.png,,,,,,,,,,,,3,1,,,,,,,6,8,6,10,,,,,,,,,,,1601.0394,1601.5398,1601.7895,1605.0408,space,3.2335,,1605.0408,13,63,1606.0298,1606.0298,1606.0353,,,,0,49,49,49,1,120,170,,,,,,,,
,,5a520774eedc3200014206b4,001,2023-12-16_14h45.41.845,bars,2023.2.3,Win32,60.24096386,,,,,,,,,,,,,,,,,,,,,,,,,,,,,,,,,,,,,,,,,,,,,,,,,,,,,,,,,,,,,,,,,,,,,,,,,,,,,,,,,,,,,,,,1606.0357,1666.0287,0,2,2,4,1,sequence_tables/blk045.csv
,,5a520774eedc3200014206b4,001,2023-12-16_14h45.41.845,bars,2023.2.3,Win32,60.24096386,,,,,,1691.3005,1692.3039,,,1692.8039,1693.055,,126,126,,,,,,,,,,,,,,,,bars/049.png,bars/mask001.png,,,,,,,,,,,,1,2,,,,,,,4,1,4,1,,,,,,1666.035,1691.2882,space,25.2443,,1692.3041,1692.8039,1693.0551,1694.8706,space,1.793,,1694.8707,34,11,1695.8705,1695.8705,1695.8767,,,,0,0,0,0,1,160,115,,,,,,,,
,,5a520774eedc3200014206b4,001,2023-12-16_14h45.41.845,bars,2023.2.3,Win32,60.24096386,,,,,,1695.8771,1696.8705,,,1697.3707,1697.6205,,149,149,,,,,,,,,,,,,,,,bars/002.png,bars/mask000.png,,,,,,,,,,,,3,1,,,,,,,6,0,8,0,,,,,,,,,,,1696.8705,1697.3706,1697.6205,1700.154,space,2.5248,,1700.154,19,64,1701.1537,1701.1537,1701.1599,,,,0,1,1,1,1,130,85,,,,,,,,
,,5a520774eedc3200014206b4,001,2023-12-16_14h45.41.845,bars,2023.2.3,Win32,60.24096386,,,,,,1701.1602,1702.1537,,,1702.6537,1702.9036,,121,121,,,,,,,,,,,,,,,,bars/022.png,bars/mask006.png,,,,,,,,,,,,0,1,,,,,,,4,2,2,2,,,,,,,,,,,1702.1537,1702.6536,1702.9036,1708.0114,space,5.1001,,1708.0114,26,79,1709.0037,1709.0039,1709.0107,,,,0,2,2,2,1,95,20,,,,,,,,
,,5a520774eedc3200014206b4,001,2023-12-16_14h45.41.845,bars,2023.2.3,Win32,60.24096386,,,,,,1709.0111,1710.0036,,,1710.5035,1710.7603,,13,13,,,,,,,,,,,,,,,,bars/014.png,bars/mask002.png,,,,,,,,,,,,0,2,,,,,,,2,0,2,0,,,,,,,,,,,1710.0036,1710.5034,1710.7603,1713.4203,space,2.64,,1713.4203,67,13,1714.4202,1714.4202,1714.4271,,,,0,3,3,3,1,80,0,,,,,,,,
,,5a520774eedc3200014206b4,001,2023-12-16_14h45.41.845,bars,2023.2.3,Win32,60.24096386,,,,,,1714.4277,1715.4202,,,1715.92,1716.1702,,104,104,,,,,,,,,,,,,,,,bars/018.png,bars/mask007.png,,,,,,,,,,,,0,2,,,,,,,4,0,4,0,,,,,,,,,,,1715.4203,1715.92,1716.1702,1721.4226,space,5.245,,1721.4226,46,14,1722.4199,1722.42,1722.4257,,,,0,4,4,4,1,150,90,,,,,,,,
,,5a520774eedc3200014206b4,001,2023-12-16_14h45.41.845,bars,2023.2.3,Win32,60.24096386,,,,,,1722.4259,1723.4199,,,1723.9198,1724.1698,,31,31,,,,,,,,,,,,,,,,bars/000.png,bars/mask008.png,,,,,,,,,,,,2,1,,,,,,,2,2,3,1,,,,,,,,,,,1723.42,1723.9198,1724.1699,1726.7895,space,2.6176,,1726.7895,9,66,1727.7863,1727.7863,1727.7929,,,,0,5,5,5,1,40,145,,,,,,,,
,,5a520774eedc3200014206b4,001,2023-12-16_14h45.41.845,bars,2023.2.3,Win32,60.24096386,,,,,,1727.7932,1728.7876,,,1729.277,1729.521,,167,167,,,,,,,,,,,,,,,,bars/018.png,bars/mask009.png,,,,,,,,,,,,0,1,,,,,,,0,4,1,3,,,,,,,,,,,1728.7876,1729.277,1729.521,1731.3439,space,1.8006,,1731.3439,17,77,1732.3363,1732.3363,1732.337,,,,0,6,6,6,1,150,90,,,,,,,,
,,5a520774eedc3200014206b4,001,2023-12-16_14h45.41.845,bars,2023.2.3,Win32,60.24096386,,,,,,1732.3372,1733.3363,,,1733.8362,1734.0862,,63,63,,,,,,,,,,,,,,,,bars/035.png,bars/mask002.png,,,,,,,,,,,,6,2,,,,,,,0,6,0,7,,,,,,,,,,,1733.3364,1733.8362,1734.0863,1736.8861,space,2.7786,,1736.8862,68,3,1737.8861,1737.8862,1737.8918,,,,0,7,7,7,1,175,60,,,,,,,,
,,5a520774eedc3200014206b4,001,2023-12-16_14h45.41.845,bars,2023.2.3,Win32,60.24096386,,,,,,1737.892,1738.8861,,,1739.3862,1739.636,,103,103,,,,,,,,,,,,,,,,bars/025.png,bars/mask005.png,,,,,,,,,,,,2,1,,,,,,,2,8,2,8,,,,,,,,,,,1738.8861,1739.3862,1739.636,1742.0361,space,2.3641,,1742.0361,2,63,1743.0359,1743.0359,1743.0369,,,,0,8,8,8,1,105,40,,,,,,,,
,,5a520774eedc3200014206b4,001,2023-12-16_14h45.41.845,bars,2023.2.3,Win32,60.24096386,,,,,,1743.0371,1744.0361,,,1744.536,1744.7859,,120,120,,,,,,,,,,,,,,,,bars/045.png,bars/mask007.png,,,,,,,,,,,,1,1,,,,,,,4,6,4,7,,,,,,,,,,,1744.0361,1744.5359,1744.7859,1746.5199,space,1.7228,,1746.5199,20,70,1747.5196,1747.5196,1747.5246,,,,0,9,9,9,1,100,10,,,,,,,,
,,5a520774eedc3200014206b4,001,2023-12-16_14h45.41.845,bars,2023.2.3,Win32,60.24096386,,,,,,1747.5247,1748.5192,,,1749.0193,1749.2692,,176,176,,,,,,,,,,,,,,,,bars/049.png,bars/mask008.png,,,,,,,,,,,,0,1,,,,,,,2,8,0,8,,,,,,,,,,,1748.5192,1749.0193,1749.2692,1752.6359,space,3.3532,,1752.6359,16,61,1753.6357,1753.6357,1753.6413,,,,0,10,10,10,1,160,115,,,,,,,,
,,5a520774eedc3200014206b4,001,2023-12-16_14h45.41.845,bars,2023.2.3,Win32,60.24096386,,,,,,1753.6414,1754.6357,,,1755.1357,1755.3858,,9,9,,,,,,,,,,,,,,,,bars/048.png,bars/mask001.png,,,,,,,,,,,,4,2,,,,,,,4,10,4,8,,,,,,,,,,,1754.6357,1755.1357,1755.3858,1761.1858,space,5.7837,,1761.1859,41,14,1762.1855,1762.1856,1762.1917,,,,0,11,11,11,1,50,175,,,,,,,,
,,5a520774eedc3200014206b4,001,2023-12-16_14h45.41.845,bars,2023.2.3,Win32,60.24096386,,,,,,1762.192,1763.1856,,,1763.686,1763.9355,,36,36,,,,,,,,,,,,,,,,bars/006.png,bars/mask009.png,,,,,,,,,,,,3,1,,,,,,,2,8,3,10,,,,,,,,,,,1763.1856,1763.686,1763.9355,1768.1202,space,4.1773,,1768.1202,1,64,1769.1201,1769.1201,1769.1255,,,,0,12,12,12,1,35,100,,,,,,,,
,,5a520774eedc3200014206b4,001,2023-12-16_14h45.41.845,bars,2023.2.3,Win32,60.24096386,,,,,,1769.1258,1770.1281,,,1770.6199,1770.8759,,13,13,,,,,,,,,,,,,,,,bars/035.png,bars/mask008.png,,,,,,,,,,,,0,1,,,,,,,0,10,0,9,,,,,,,,,,,1770.1281,1770.6199,1770.8759,1772.3021,space,1.402,,1772.3021,18,47,1773.302,1773.302,1773.3024,,,,0,13,13,13,1,175,60,,,,,,,,
,,5a520774eedc3200014206b4,001,2023-12-16_14h45.41.845,bars,2023.2.3,Win32,60.24096386,,,,,,1773.3026,1774.2874,,,1774.7853,1775.0352,,24,24,,,,,,,,,,,,,,,,bars/033.png,bars/mask003.png,,,,,,,,,,,,1,1,,,,,,,2,10,1,10,,,,,,,,,,,1774.2874,1774.7853,1775.0352,1779.2595,space,4.2063,,1779.2595,1,49,1780.2529,1780.2529,1780.2585,,,,0,14,14,14,1,25,155,,,,,,,,
,,5a520774eedc3200014206b4,001,2023-12-16_14h45.41.845,bars,2023.2.3,Win32,60.24096386,,,,,,1780.2587,1781.253,,,1781.7596,1782.0059,,122,122,,,,,,,,,,,,,,,,bars/028.png,bars/mask002.png,,,,,,,,,,,,6,2,,,,,,,0,8,0,6,,,,,,,,,,,1781.253,1781.7596,1782.0059,1787.2696,space,5.2438,,1787.2696,77,2,1788.2683,1788.2683,1788.2737,,,,0,15,15,15,1,45,120,,,,,,,,
,,5a520774eedc3200014206b4,001,2023-12-16_14h45.41.845,bars,2023.2.3,Win32,60.24096386,,,,,,1788.274,1789.2682,,,1789.7682,1790.0182,,79,79,,,,,,,,,,,,,,,,bars/025.png,bars/mask001.png,,,,,,,,,,,,0,1,,,,,,,0,6,1,5,,,,,,,,,,,1789.2682,1789.7682,1790.0182,1792.0183,space,1.9837,,1792.0184,26,39,1793.0181,1793.0182,1793.0193,,,,0,16,16,16,1,105,40,,,,,,,,
,,5a520774eedc3200014206b4,001,2023-12-16_14h45.41.845,bars,2023.2.3,Win32,60.24096386,,,,,,1793.0195,1794.0187,,,1794.5181,1794.7681,,159,159,,,,,,,,,,,,,,,,bars/039.png,bars/mask005.png,,,,,,,,,,,,0,1,,,,,,,0,8,0,8,,,,,,,,,,,1794.0187,1794.5181,1794.7681,1799.468,space,4.6889,,1799.468,16,54,1800.4679,1800.4679,1800.4731,,,,0,17,17,17,1,175,105,,,,,,,,
,,5a520774eedc3200014206b4,001,2023-12-16_14h45.41.845,bars,2023.2.3,Win32,60.24096386,,,,,,1800.4732,1801.4679,,,1801.9681,1802.2179,,75,75,,,,,,,,,,,,,,,,bars/026.png,bars/mask007.png,,,,,,,,,,,,7,2,,,,,,,0,10,0,10,,,,,,,,,,,1801.4679,1801.9681,1802.2179,1805.0846,space,2.8588,,1805.0846,40,10,1806.0846,1806.0847,1806.091,,,,0,18,18,18,1,35,85,,,,,,,,
,,5a520774eedc3200014206b4,001,2023-12-16_14h45.41.845,bars,2023.2.3,Win32,60.24096386,,,,,,1806.0911,1807.0845,,,1807.5846,1807.8345,,148,148,,,,,,,,,,,,,,,,bars/033.png,bars/mask007.png,,,,,,,,,,,,7,2,,,,,,,2,8,2,9,,,,,,,,,,,1807.0845,1807.5846,1807.8345,1809.1844,space,1.3348,,1809.1844,57,7,1810.1845,1810.1845,1810.1851,,,,0,19,19,19,1,25,155,,,,,,,,
,,5a520774eedc3200014206b4,001,2023-12-16_14h45.41.845,bars,2023.2.3,Win32,60.24096386,,,,,,1810.1852,1811.2019,,,1811.7012,1811.951,,105,105,,,,,,,,,,,,,,,,bars/027.png,bars/mask003.png,,,,,,,,,,,,3,1,,,,,,,4,6,4,7,,,,,,,,,,,1811.2019,1811.7012,1811.951,1813.6177,space,1.658,,1813.6178,5,55,1814.6177,1814.6177,1814.6188,,,,0,20,20,20,1,110,50,,,,,,,,
,,5a520774eedc3200014206b4,001,2023-12-16_14h45.41.845,bars,2023.2.3,Win32,60.24096386,,,,,,1814.619,1815.6177,,,1816.1177,1816.3675,,148,148,,,,,,,,,,,,,,,,bars/020.png,bars/mask007.png,,,,,,,,,,,,2,2,,,,,,,6,8,7,7,,,,,,,,,,,1815.6177,1816.1177,1816.3676,1819.5343,space,3.1556,,1819.5343,33,22,1820.5341,1820.5342,1820.5396,,,,0,21,21,21,1,115,170,,,,,,,,
,,5a520774eedc3200014206b4,001,2023-12-16_14h45.41.845,bars,2023.2.3,Win32,60.24096386,,,,,,1820.5399,1821.534,,,1822.0342,1822.2842,,150,150,,,,,,,,,,,,,,,,bars/016.png,bars/mask006.png,,,,,,,,,,,,5,2,,,,,,,4,10,5,10,,,,,,,,,,,1821.5341,1822.0342,1822.2842,1824.4341,space,2.1327,,1824.4341,70,15,1825.4341,1825.4341,1825.4345,,,,0,22,22,22,1,40,165,,,,,,,,
,,5a520774eedc3200014206b4,001,2023-12-16_14h45.41.845,bars,2023.2.3,Win32,60.24096386,,,,,,1825.4347,1826.4343,,,1826.9342,1827.184,,103,-77,,,,,,,,,,,,,,,,bars/004.png,bars/mask006.png,,,,,,,,,,,,2,2,,,,,,,6,8,7,9,,,,,,,,,,,1826.4343,1826.9342,1827.184,1831.7019,space,4.5027,,1831.7019,78,22,1832.7006,1832.7006,1832.706,,,,0,23,23,23,1,25,125,,,,,,,,
,,5a520774eedc3200014206b4,001,2023-12-16_14h45.41.845,bars,2023.2.3,Win32,60.24096386,,,,,,1832.706,1833.7004,,,1834.2005,1834.4506,,6,6,,,,,,,,,,,,,,,,bars/033.png,bars/mask008.png,,,,,,,,,,,,3,1,,,,,,,8,10,9,10,,,,,,,,,,,1833.7005,1834.2005,1834.4506,1838.5171,space,4.0617,,1838.5173,19,31,1839.5171,1839.5171,1839.5231,,,,0,24,24,24,1,25,155,,,,,,,,
,,5a520774eedc3200014206b4,001,2023-12-16_14h45.41.845,bars,2023.2.3,Win32,60.24096386,,,,,,1839.5234,1840.5171,,,1841.017,1841.267,,105,105,,,,,,,,,,,,,,,,bars/034.png,bars/mask004.png,,,,,,,,,,,,3,1,,,,,,,10,8,10,9,,,,,,,,,,,1840.5171,1841.0169,1841.267,1843.1337,space,1.8333,,1843.1337,20,40,1844.1241,1844.1242,1844.1296,,,,0,25,25,25,1,125,65,,,,,,,,
,,5a520774eedc3200014206b4,001,2023-12-16_14h45.41.845,bars,2023.2.3,Win32,60.24096386,,,,,,1844.1298,1845.1232,,,1845.6181,1845.8741,,112,112,,,,,,,,,,,,,,,,bars/049.png,bars/mask007.png,,,,,,,,,,,,9,2,,,,,,,10,10,10,10,,,,,,,,,,,1845.1233,1845.6181,1845.8741,1847.7014,space,1.8168,,1847.7015,48,3,1848.6907,1848.6907,1848.6968,,,,0,26,26,26,1,160,115,,,,,,,,
,,5a520774eedc3200014206b4,001,2023-12-16_14h45.41.845,bars,2023.2.3,Win32,60.24096386,,,,,,1848.6972,1849.685,,,1850.1834,1850.4334,,75,75,,,,,,,,,,,,,,,,bars/030.png,bars/mask002.png,,,,,,,,,,,,7,2,,,,,,,8,10,7,10,,,,,,,,,,,1849.6851,1850.1834,1850.4335,1855.7335,space,5.2877,,1855.7335,65,10,1856.7334,1856.7334,1856.7386,,,,0,27,27,27,1,140,65,,,,,,,,
,,5a520774eedc3200014206b4,001,2023-12-16_14h45.41.845,bars,2023.2.3,Win32,60.24096386,,,,,,1856.7387,1857.7332,,,1858.2333,1858.4833,,35,35,,,,,,,,,,,,,,,,bars/025.png,bars/mask003.png,,,,,,,,,,,,6,2,,,,,,,10,8,10,7,,,,,,,,,,,1857.7333,1858.2333,1858.4833,1867.4407,space,8.9498,,1867.4408,70,5,1868.4343,1868.4343,1868.4399,,,,0,28,28,28,1,105,40,,,,,,,,
,,5a520774eedc3200014206b4,001,2023-12-16_14h45.41.845,bars,2023.2.3,Win32,60.24096386,,,,,,1868.4401,1869.4402,,,1869.9421,1870.1845,,136,136,,,,,,,,,,,,,,,,bars/043.png,bars/mask008.png,,,,,,,,,,,,4,2,,,,,,,10,6,10,5,,,,,,,,,,,1869.4402,1869.9421,1870.1846,1874.2996,space,4.0959,,1874.2997,74,6,1875.2995,1875.2995,1875.3056,,,,0,29,29,29,1,30,130,,,,,,,,
,,5a520774eedc3200014206b4,001,2023-12-16_14h45.41.845,bars,2023.2.3,Win32,60.24096386,,,,,,1875.3058,1876.2994,,,1876.7996,1877.0495,,132,132,,,,,,,,,,,,,,,,bars/043.png,bars/mask009.png,,,,,,,,,,,,7,2,,,,,,,8,8,7,8,,,,,,,,,,,1876.2995,1876.7995,1877.0495,1891.9512,space,14.8977,,1891.9513,78,2,1892.9503,1892.9503,1892.9567,,,,0,30,30,30,1,30,130,,,,,,,,
,,5a520774eedc3200014206b4,001,2023-12-16_14h45.41.845,bars,2023.2.3,Win32,60.24096386,,,,,,1892.9569,1893.9504,,,1894.449,1894.699,,60,-120,,,,,,,,,,,,,,,,bars/034.png,bars/mask008.png,,,,,,,,,,,,8,2,,,,,,,6,10,5,10,,,,,,,,,,,1893.9504,1894.449,1894.699,1900.4326,space,5.6919,,1900.4327,65,5,1901.4323,1901.4323,1901.4389,,,,0,31,31,31,1,125,65,,,,,,,,
,,5a520774eedc3200014206b4,001,2023-12-16_14h45.41.845,bars,2023.2.3,Win32,60.24096386,,,,,,1901.4389,1902.4325,,,1902.9322,1903.1822,,22,22,,,,,,,,,,,,,,,,bars/025.png,bars/mask006.png,,,,,,,,,,,,4,2,,,,,,,4,10,4,10,,,,,,,,,,,1902.4325,1902.9321,1903.1822,1911.7321,space,8.5305,,1911.7321,83,18,1912.732,1912.7321,1912.7373,,,,0,32,32,32,1,105,40,,,,,,,,
,,5a520774eedc3200014206b4,001,2023-12-16_14h45.41.845,bars,2023.2.3,Win32,60.24096386,,,,,,1912.7374,1913.732,,,1914.2321,1914.4819,,109,109,,,,,,,,,,,,,,,,bars/042.png,bars/mask009.png,,,,,,,,,,,,0,2,,,,,,,6,10,5,10,,,,,,,,,,,1913.7321,1914.2321,1914.4819,1917.982,space,3.4888,,1917.982,36,34,1918.9818,1918.9819,1918.9873,,,,0,33,33,33,1,145,75,,,,,,,,
,,5a520774eedc3200014206b4,001,2023-12-16_14h45.41.845,bars,2023.2.3,Win32,60.24096386,,,,,,1918.9874,1919.9812,,,1920.4818,1920.7318,,50,50,,,,,,,,,,,,,,,,bars/048.png,bars/mask009.png,,,,,,,,,,,,3,1,,,,,,,4,10,3,10,,,,,,,,,,,1919.9813,1920.4818,1920.7319,1922.4817,space,1.7308,,1922.4817,0,55,1923.4817,1923.4817,1923.4875,,,,0,34,34,34,1,50,175,,,,,,,,
,,5a520774eedc3200014206b4,001,2023-12-16_14h45.41.845,bars,2023.2.3,Win32,60.24096386,,,,,,1923.4878,1924.4846,,,1924.9725,1925.2163,,62,62,,,,,,,,,,,,,,,,bars/017.png,bars/mask004.png,,,,,,,,,,,,3,2,,,,,,,6,8,6,7,,,,,,,,,,,1924.4846,1924.9725,1925.2163,1927.4984,space,2.2556,,1927.4984,83,17,1928.4984,1928.4984,1928.4995,,,,0,35,35,35,1,145,45,,,,,,,,
,,5a520774eedc3200014206b4,001,2023-12-16_14h45.41.845,bars,2023.2.3,Win32,60.24096386,,,,,,1928.4997,1929.4982,,,1929.9983,1930.2482,,98,98,,,,,,,,,,,,,,,,bars/019.png,bars/mask002.png,,,,,,,,,,,,8,2,,,,,,,8,10,9,10,,,,,,,,,,,1929.4982,1929.9983,1930.2482,1932.9482,space,2.6887,,1932.9482,53,7,1933.948,1933.948,1933.9534,,,,0,36,36,36,1,45,105,,,,,,,,
,,5a520774eedc3200014206b4,001,2023-12-16_14h45.41.845,bars,2023.2.3,Win32,60.24096386,,,,,,1933.9536,1934.9481,,,1935.4482,1935.6981,,163,163,,,,,,,,,,,,,,,,bars/044.png,bars/mask001.png,,,,,,,,,,,,7,2,,,,,,,10,8,10,9,,,,,,,,,,,1934.9481,1935.4481,1935.6981,1937.406,space,1.7,,1937.4061,88,8,1938.398,1938.3981,1938.3989,,,,0,37,37,37,1,75,155,,,,,,,,
,,5a520774eedc3200014206b4,001,2023-12-16_14h45.41.845,bars,2023.2.3,Win32,60.24096386,,,,,,1938.399,1939.398,,,1939.898,1940.148,,161,161,,,,,,,,,,,,,,,,bars/012.png,bars/mask001.png,,,,,,,,,,,,0,2,,,,,,,8,10,7,10,,,,,,,,,,,1939.398,1939.8979,1940.148,1947.0827,space,6.9162,,1947.0827,71,34,1948.0718,1948.0718,1948.0775,,,,0,38,38,38,1,90,15,,,,,,,,
,,5a520774eedc3200014206b4,001,2023-12-16_14h45.41.845,bars,2023.2.3,Win32,60.24096386,,,,,,1948.0776,1949.0718,,,1949.5719,1949.814,,101,-79,,,,,,,,,,,,,,,,bars/041.png,bars/mask000.png,,,,,,,,,,,,5,2,,,,,,,6,10,5,10,,,,,,,,,,,1949.0718,1949.5719,1949.814,1954.9657,space,5.1458,,1954.9657,81,16,1955.9674,1955.9674,1955.9752,,,,0,39,39,39,1,20,85,,,,,,,,
,,5a520774eedc3200014206b4,001,2023-12-16_14h45.41.845,bars,2023.2.3,Win32,60.24096386,,,,,,1955.9754,1956.9643,,,1957.4649,1957.7145,,142,142,,,,,,,,,,,,,,,,bars/036.png,bars/mask000.png,,,,,,,,,,,,2,1,,,,,,,4,10,2,10,,,,,,,,,,,1956.9643,1957.4649,1957.7145,1963.3141,space,5.5687,,1963.3142,3,58,1964.314,1964.314,1964.3201,,,,0,40,40,40,1,145,20,,,,,,,,
,,5a520774eedc3200014206b4,001,2023-12-16_14h45.41.845,bars,2023.2.3,Win32,60.24096386,,,,,,1964.3205,1965.3141,,,1965.8225,1966.0676,,148,148,,,,,,,,,,,,,,,,bars/016.png,bars/mask006.png,,,,,,,,,,,,4,2,,,,,,,6,10,5,10,,,,,,,,,,,1965.3141,1965.8224,1966.0676,1972.2473,space,6.1555,,1972.2474,72,17,1973.247,1973.2471,1973.2539,,,,0,41,41,41,1,40,165,,,,,,,,
,,5a520774eedc3200014206b4,001,2023-12-16_14h45.41.845,bars,2023.2.3,Win32,60.24096386,,,,,,1973.2543,1974.2471,,,1974.7472,1974.9888,,157,157,,,,,,,,,,,,,,,,bars/048.png,bars/mask000.png,,,,,,,,,,,,4,2,,,,,,,4,10,4,10,,,,,,,,,,,1974.2472,1974.7471,1974.9888,1976.4639,space,1.4485,,1976.4639,73,18,1977.4637,1977.4638,1977.4697,,,,0,42,42,42,1,50,175,,,,,,,,
,,5a520774eedc3200014206b4,001,2023-12-16_14h45.41.845,bars,2023.2.3,Win32,60.24096386,,,,,,1977.4699,1978.4637,,,1978.9794,1979.2303,,147,147,,,,,,,,,,,,,,,,bars/035.png,bars/mask000.png,,,,,,,,,,,,0,1,,,,,,,2,10,1,9,,,,,,,,,,,1978.4637,1978.9793,1979.2303,1988.0348,space,8.773,,1988.0349,28,87,1989.0012,1989.0012,1989.0071,,,,0,43,43,43,1,175,60,,,,,,,,
,,5a520774eedc3200014206b4,001,2023-12-16_14h45.41.845,bars,2023.2.3,Win32,60.24096386,,,,,,1989.0075,1989.9967,,,1990.4968,1990.7467,,133,133,,,,,,,,,,,,,,,,bars/004.png,bars/mask005.png,,,,,,,,,,,,4,2,,,,,,,0,8,0,6,,,,,,,,,,,1989.9968,1990.4968,1990.7467,1992.28,space,1.5006,,1992.28,72,8,1993.28,1993.28,1993.2853,,,,0,44,44,44,1,25,125,,,,,,,,
,,5a520774eedc3200014206b4,001,2023-12-16_14h45.41.845,bars,2023.2.3,Win32,60.24096386,,,,,,1993.2856,1994.2799,,,1994.7799,1995.0299,,141,141,,,,,,,,,,,,,,,,bars/032.png,bars/mask005.png,,,,,,,,,,,,0,1,,,,,,,0,10,1,10,,,,,,,,,,,1994.2799,1994.7799,1995.03,2000.7466,space,5.6857,,2000.7466,16,59,2001.749,2001.749,2001.7546,,,,0,45,45,45,1,125,20,,,,,,,,
,,5a520774eedc3200014206b4,001,2023-12-16_14h45.41.845,bars,2023.2.3,Win32,60.24096386,,,,,,2001.7549,2002.7465,,,2003.2464,2003.4991,,120,120,,,,,,,,,,,,,,,,bars/004.png,bars/mask005.png,,,,,,,,,,,,8,2,,,,,,,2,10,2,10,,,,,,,,,,,2002.7465,2003.2464,2003.4991,2005.3682,space,1.8499,,2005.3682,85,5,2006.363,2006.363,2006.3642,,,,0,46,46,46,1,25,125,,,,,,,,
,,5a520774eedc3200014206b4,001,2023-12-16_14h45.41.845,bars,2023.2.3,Win32,60.24096386,,,,,,2006.3644,2007.363,,,2007.8629,2008.113,,6,186,,,,,,,,,,,,,,,,bars/027.png,bars/mask002.png,,,,,,,,,,,,0,2,,,,,,,0,10,1,10,,,,,,,,,,,2007.363,2007.8629,2008.113,2010.2841,space,2.1638,,2010.2842,76,44,2011.2796,2011.2797,2011.2847,,,,0,47,47,47,1,110,50,,,,,,,,
,,5a520774eedc3200014206b4,001,2023-12-16_14h45.41.845,bars,2023.2.3,Win32,60.24096386,,,,,,2011.2849,2012.2795,,,2012.7795,2013.0295,,160,160,,,,,,,,,,,,,,,,bars/044.png,bars/mask003.png,,,,,,,,,,,,8,2,,,,,,,2,10,2,10,,,,,,,,,,,2012.2796,2012.7795,2013.0295,2015.3129,space,2.2539,,2015.3129,85,5,2016.3128,2016.3128,2016.3179,,,,0,48,48,48,1,75,155,,,,,,,,
,,5a520774eedc3200014206b4,001,2023-12-16_14h45.41.845,bars,2023.2.3,Win32,60.24096386,,,,,,2016.318,2017.3128,,,2017.8128,2018.0628,,93,93,,,,,,,,,,,,,,,,bars/045.png,bars/mask008.png,,,,,,,,,,,,0,1,,,,,,,0,10,0,8,,,,,,,,,,,2017.313,2017.8128,2018.0628,2021.0214,space,2.9377,,2021.0214,7,83,2022.0125,2022.0125,2022.0192,,,,0,49,49,49,1,100,10,,,,,,,,
,,5a520774eedc3200014206b4,001,2023-12-16_14h45.41.845,bars,2023.2.3,Win32,60.24096386,,,,,,,,,,,,,,,,,,,,,,,,,,,,,,,,,,,,,,,,,,,,,,,,,,,,,,,,,,,,,,,,,,,,,,,,,,,,,,,,,,,,,,,,2022.0202,2082.0116,0,3,3,1,1,sequence_tables/blk031.csv
,,5a520774eedc3200014206b4,001,2023-12-16_14h45.41.845,bars,2023.2.3,Win32,60.24096386,,,,,,2092.5036,2093.4943,,,2093.9945,2094.2443,,140,140,,,,,,,,,,,,,,,,bars/010.png,bars/mask007.png,,,,,,,,,,,,1,1,,,,,,,9,9,7,10,,,,,,2082.0193,2092.4946,space,10.4681,,2093.4943,2093.9944,2094.2443,2096.8109,space,2.5374,,2096.811,25,85,2097.8109,2097.8109,2097.8167,,,,0,0,0,0,1,165,55,,,,,,,,
,,5a520774eedc3200014206b4,001,2023-12-16_14h45.41.845,bars,2023.2.3,Win32,60.24096386,,,,,,2097.8168,2098.8109,,,2099.3108,2099.5609,,109,109,,,,,,,,,,,,,,,,bars/033.png,bars/mask007.png,,,,,,,,,,,,0,2,,,,,,,7,10,7,10,,,,,,,,,,,2098.8109,2099.3108,2099.5609,2101.4941,space,1.9202,,2101.4942,84,46,2102.4941,2102.4942,2102.4953,,,,0,1,1,1,1,25,155,,,,,,,,
,,5a520774eedc3200014206b4,001,2023-12-16_14h45.41.845,bars,2023.2.3,Win32,60.24096386,,,,,,2102.4955,2103.484,,,2103.9783,2104.2284,,135,135,,,,,,,,,,,,,,,,bars/032.png,bars/mask006.png,,,,,,,,,,,,6,1,,,,,,,9,8,9,8,,,,,,,,,,,2103.4841,2103.9783,2104.2284,2109.7606,space,5.5155,,2109.7607,10,65,2110.7606,2110.7607,2110.7675,,,,0,2,2,2,1,125,20,,,,,,,,
,,5a520774eedc3200014206b4,001,2023-12-16_14h45.41.845,bars,2023.2.3,Win32,60.24096386,,,,,,2110.768,2111.7606,,,2112.2608,2112.5106,,25,25,,,,,,,,,,,,,,,,bars/035.png,bars/mask000.png,,,,,,,,,,,,0,1,,,,,,,10,6,8,7,,,,,,,,,,,2111.7606,2112.2608,2112.5106,2114.6107,space,2.0899,,2114.6108,30,35,2115.6105,2115.6106,2115.6161,,,,0,3,3,3,1,175,60,,,,,,,,
,,5a520774eedc3200014206b4,001,2023-12-16_14h45.41.845,bars,2023.2.3,Win32,60.24096386,,,,,,2115.6162,2116.6104,,,2117.1105,2117.3604,,111,111,,,,,,,,,,,,,,,,bars/044.png,bars/mask003.png,,,,,,,,,,,,0,1,,,,,,,10,4,9,4,,,,,,,,,,,2116.6104,2117.1105,2117.3604,2119.0782,space,1.7149,,2119.0784,36,44,2120.084,2120.084,2120.0853,,,,0,4,4,4,1,75,155,,,,,,,,
,,5a520774eedc3200014206b4,001,2023-12-16_14h45.41.845,bars,2023.2.3,Win32,60.24096386,,,,,,2120.0855,2121.0782,,,2121.568,2121.8115,,99,99,,,,,,,,,,,,,,,,bars/041.png,bars/mask004.png,,,,,,,,,,,,2,2,,,,,,,8,2,8,3,,,,,,,,,,,2121.0782,2121.5679,2121.8115,2124.9269,space,3.0868,,2124.927,79,14,2125.9268,2125.9269,2125.9325,,,,0,5,5,5,1,20,85,,,,,,,,
,,5a520774eedc3200014206b4,001,2023-12-16_14h45.41.845,bars,2023.2.3,Win32,60.24096386,,,,,,2125.9327,2126.9267,,,2127.4269,2127.6769,,152,152,,,,,,,,,,,,,,,,bars/011.png,bars/mask007.png,,,,,,,,,,,,4,1,,,,,,,6,4,6,4,,,,,,,,,,,2126.9268,2127.4269,2127.6769,2131.5936,space,3.9133,,2131.5936,8,67,2132.5839,2132.584,2132.5915,,,,0,6,6,6,1,160,85,,,,,,,,
,,5a520774eedc3200014206b4,001,2023-12-16_14h45.41.845,bars,2023.2.3,Win32,60.24096386,,,,,,2132.592,2133.5805,,,2134.0799,2134.3266,,62,62,,,,,,,,,,,,,,,,bars/048.png,bars/mask000.png,,,,,,,,,,,,5,1,,,,,,,8,6,9,6,,,,,,,,,,,2133.5805,2134.0799,2134.3266,2136.3768,space,2.0334,,2136.3768,12,67,2137.3766,2137.3766,2137.3824,,,,0,7,7,7,1,50,175,,,,,,,,
,,5a520774eedc3200014206b4,001,2023-12-16_14h45.41.845,bars,2023.2.3,Win32,60.24096386,,,,,,2137.3825,2138.3767,,,2138.8781,2139.1335,,136,136,,,,,,,,,,,,,,,,bars/034.png,bars/mask005.png,,,,,,,,,,,,6,1,,,,,,,10,8,10,8,,,,,,,,,,,2138.3767,2138.878,2139.1335,2142.4601,space,3.304,,2142.4602,11,71,2143.4598,2143.4598,2143.4649,,,,0,8,8,8,1,125,65,,,,,,,,
,,5a520774eedc3200014206b4,001,2023-12-16_14h45.41.845,bars,2023.2.3,Win32,60.24096386,,,,,,2143.4649,2144.4598,,,2144.9598,2145.2098,,157,157,,,,,,,,,,,,,,,,bars/007.png,bars/mask003.png,,,,,,,,,,,,2,1,,,,,,,8,10,6,10,,,,,,,,,,,2144.4598,2144.9598,2145.2098,2148.7493,space,3.532,,2148.7493,18,78,2149.7429,2149.743,2149.748,,,,0,9,9,9,1,175,55,,,,,,,,
,,5a520774eedc3200014206b4,001,2023-12-16_14h45.41.845,bars,2023.2.3,Win32,60.24096386,,,,,,2149.748,2150.743,,,2151.2429,2151.4929,,94,94,,,,,,,,,,,,,,,,bars/019.png,bars/mask006.png,,,,,,,,,,,,6,2,,,,,,,10,10,10,10,,,,,,,,,,,2150.743,2151.2429,2151.4929,2153.993,space,2.4688,,2153.993,49,11,2154.9928,2154.9929,2154.9983,,,,0,10,10,10,1,45,105,,,,,,,,
,,5a520774eedc3200014206b4,001,2023-12-16_14h45.41.845,bars,2023.2.3,Win32,60.24096386,,,,,,2154.9985,2155.9929,,,2156.4931,2156.7429,,6,6,,,,,,,,,,,,,,,,bars/014.png,bars/mask002.png,,,,,,,,,,,,8,2,,,,,,,8,10,9,10,,,,,,,,,,,2155.9929,2156.4931,2156.7429,2159.5928,space,2.8345,,2159.5928,74,6,2160.5834,2160.5835,2160.5892,,,,0,11,11,11,1,80,0,,,,,,,,
,,5a520774eedc3200014206b4,001,2023-12-16_14h45.41.845,bars,2023.2.3,Win32,60.24096386,,,,,,2160.5894,2161.5941,,,2162.0926,2162.3427,,66,66,,,,,,,,,,,,,,,,bars/046.png,bars/mask008.png,,,,,,,,,,,,3,2,,,,,,,10,8,8,7,,,,,,,,,,,2161.5942,2162.0926,2162.3427,2166.2426,space,3.8719,,2166.2427,89,19,2167.2426,2167.2426,2167.2486,,,,0,12,12,12,1,155,85,,,,,,,,
,,5a520774eedc3200014206b4,001,2023-12-16_14h45.41.845,bars,2023.2.3,Win32,60.24096386,,,,,,2167.2487,2168.2425,,,2168.7428,2168.9925,,110,110,,,,,,,,,,,,,,,,bars/044.png,bars/mask000.png,,,,,,,,,,,,0,1,,,,,,,10,6,10,6,,,,,,,,,,,2168.2426,2168.7428,2168.9926,2173.1424,space,4.1374,,2173.1425,35,45,2174.1497,2174.1497,2174.1567,,,,0,13,13,13,1,75,155,,,,,,,,
,,5a520774eedc3200014206b4,001,2023-12-16_14h45.41.845,bars,2023.2.3,Win32,60.24096386,,,,,,2174.1571,2175.1498,,,2175.6586,2175.9091,,67,67,,,,,,,,,,,,,,,,bars/009.png,bars/mask008.png,,,,,,,,,,,,0,2,,,,,,,8,4,9,4,,,,,,,,,,,2175.1498,2175.6586,2175.9091,2177.1589,space,1.2365,,2177.159,52,38,2178.1591,2178.1592,2178.1602,,,,0,14,14,14,1,15,105,,,,,,,,
,,5a520774eedc3200014206b4,001,2023-12-16_14h45.41.845,bars,2023.2.3,Win32,60.24096386,,,,,,2178.1605,2179.1591,,,2179.659,2179.9092,,128,128,,,,,,,,,,,,,,,,bars/001.png,bars/mask008.png,,,,,,,,,,,,9,1,,,,,,,10,2,10,2,,,,,,,,,,,2179.1592,2179.659,2179.9093,2184.8605,space,4.9282,,2184.8605,2,43,2185.8588,2185.8589,2185.865,,,,0,15,15,15,1,130,85,,,,,,,,
,,5a520774eedc3200014206b4,001,2023-12-16_14h45.41.845,bars,2023.2.3,Win32,60.24096386,,,,,,2185.8655,2186.8588,,,2187.3587,2187.5965,,56,56,,,,,,,,,,,,,,,,bars/019.png,bars/mask005.png,,,,,,,,,,,,6,1,,,,,,,8,0,9,1,,,,,,,,,,,2186.8588,2187.3587,2187.5965,2190.4254,space,2.7991,,2190.4255,11,49,2191.4254,2191.4254,2191.4307,,,,0,16,16,16,1,45,105,,,,,,,,
,,5a520774eedc3200014206b4,001,2023-12-16_14h45.41.845,bars,2023.2.3,Win32,60.24096386,,,,,,2191.4307,2192.4254,,,2192.9261,2193.1754,,112,112,,,,,,,,,,,,,,,,bars/031.png,bars/mask002.png,,,,,,,,,,,,7,1,,,,,,,10,0,10,0,,,,,,,,,,,2192.4254,2192.9261,2193.1754,2196.2435,space,3.0666,,2196.2435,8,77,2197.2422,2197.2423,2197.2474,,,,0,17,17,17,1,120,35,,,,,,,,
,,5a520774eedc3200014206b4,001,2023-12-16_14h45.41.845,bars,2023.2.3,Win32,60.24096386,,,,,,2197.2475,2198.2418,,,2198.7421,2198.9919,,128,-52,,,,,,,,,,,,,,,,bars/048.png,bars/mask007.png,,,,,,,,,,,,0,2,,,,,,,10,2,10,4,,,,,,,,,,,2198.2419,2198.742,2198.9919,2204.2751,space,5.2572,,2204.2752,78,47,2205.275,2205.2751,2205.2815,,,,0,18,18,18,1,50,175,,,,,,,,
,,5a520774eedc3200014206b4,001,2023-12-16_14h45.41.845,bars,2023.2.3,Win32,60.24096386,,,,,,2205.282,2206.2819,,,2206.7753,2207.0249,,136,136,,,,,,,,,,,,,,,,bars/021.png,bars/mask007.png,,,,,,,,,,,,3,1,,,,,,,8,4,8,4,,,,,,,,,,,2206.2819,2206.7752,2207.0251,2211.0597,space,4.0169,,2211.0597,19,66,2212.0657,2212.0657,2212.0718,,,,0,19,19,19,1,155,70,,,,,,,,
,,5a520774eedc3200014206b4,001,2023-12-16_14h45.41.845,bars,2023.2.3,Win32,60.24096386,,,,,,2212.0722,2213.0819,,,2213.5819,2213.8226,,27,27,,,,,,,,,,,,,,,,bars/036.png,bars/mask008.png,,,,,,,,,,,,4,2,,,,,,,10,6,9,5,,,,,,,,,,,2213.082,2213.5819,2213.8226,2215.4479,space,1.6174,,2215.448,62,7,2216.4484,2216.4484,2216.4498,,,,0,20,20,20,1,145,20,,,,,,,,
,,5a520774eedc3200014206b4,001,2023-12-16_14h45.41.845,bars,2023.2.3,Win32,60.24096386,,,,,,2216.4502,2217.4414,,,2217.931,2218.1747,,131,131,,,,,,,,,,,,,,,,bars/004.png,bars/mask001.png,,,,,,,,,,,,3,2,,,,,,,8,4,9,4,,,,,,,,,,,2217.4414,2217.931,2218.1747,2224.2746,space,6.0731,,2224.2746,74,6,2225.2746,2225.2746,2225.2797,,,,0,21,21,21,1,25,125,,,,,,,,
,,5a520774eedc3200014206b4,001,2023-12-16_14h45.41.845,bars,2023.2.3,Win32,60.24096386,,,,,,2225.2798,2226.2745,,,2226.7745,2227.0245,,150,-30,,,,,,,,,,,,,,,,bars/042.png,bars/mask002.png,,,,,,,,,,,,7,1,,,,,,,6,6,8,5,,,,,,,,,,,2226.2745,2226.7745,2227.0245,2229.5912,space,2.5509,,2229.5912,5,75,2230.5911,2230.5913,2230.5968,,,,0,22,22,22,1,145,75,,,,,,,,
,,5a520774eedc3200014206b4,001,2023-12-16_14h45.41.845,bars,2023.2.3,Win32,60.24096386,,,,,,2230.5971,2231.5913,,,2232.0914,2232.341,,122,122,,,,,,,,,,,,,,,,bars/040.png,bars/mask007.png,,,,,,,,,,,,3,1,,,,,,,8,4,8,2,,,,,,,,,,,2231.5914,2232.0914,2232.341,2234.1744,space,1.8037,,2234.1746,18,63,2235.1743,2235.1743,2235.1748,,,,0,23,23,23,1,140,5,,,,,,,,
,,5a520774eedc3200014206b4,001,2023-12-16_14h45.41.845,bars,2023.2.3,Win32,60.24096386,,,,,,2235.1749,2236.1743,,,2236.6623,2236.9076,,144,144,,,,,,,,,,,,,,,,bars/040.png,bars/mask003.png,,,,,,,,,,,,9,1,,,,,,,10,6,10,6,,,,,,,,,,,2236.1743,2236.6622,2236.9076,2240.8576,space,3.934,,2240.8577,4,41,2241.8583,2241.8583,2241.8638,,,,0,24,24,24,1,140,5,,,,,,,,
,,5a520774eedc3200014206b4,001,2023-12-16_14h45.41.845,bars,2023.2.3,Win32,60.24096386,,,,,,2241.864,2242.8581,,,2243.3579,2243.6074,,54,54,,,,,,,,,,,,,,,,bars/019.png,bars/mask006.png,,,,,,,,,,,,5,1,,,,,,,8,4,7,4,,,,,,,,,,,2242.8581,2243.3578,2243.6074,2246.4409,space,2.7953,,2246.4409,9,51,2247.4406,2247.4406,2247.4458,,,,0,25,25,25,1,45,105,,,,,,,,
,,5a520774eedc3200014206b4,001,2023-12-16_14h45.41.845,bars,2023.2.3,Win32,60.24096386,,,,,,2247.4458,2248.4407,,,2248.9407,2249.1907,,128,128,,,,,,,,,,,,,,,,bars/003.png,bars/mask003.png,,,,,,,,,,,,4,2,,,,,,,10,6,9,6,,,,,,,,,,,2248.4407,2248.9407,2249.1907,2250.924,space,1.7229,,2250.924,77,12,2251.9283,2251.9283,2251.9342,,,,0,26,26,26,1,25,140,,,,,,,,
,,5a520774eedc3200014206b4,001,2023-12-16_14h45.41.845,bars,2023.2.3,Win32,60.24096386,,,,,,2251.9347,2252.9399,,,2253.4413,2253.6906,,146,146,,,,,,,,,,,,,,,,bars/003.png,bars/mask008.png,,,,,,,,,,,,3,2,,,,,,,8,4,9,4,,,,,,,,,,,2252.94,2253.4412,2253.6906,2258.5405,space,4.839,,2258.5405,59,6,2259.5407,2259.5407,2259.5457,,,,0,27,27,27,1,25,140,,,,,,,,
,,5a520774eedc3200014206b4,001,2023-12-16_14h45.41.845,bars,2023.2.3,Win32,60.24096386,,,,,,2259.5458,2260.5587,,,2261.0644,2261.307,,18,18,,,,,,,,,,,,,,,,bars/022.png,bars/mask000.png,,,,,,,,,,,,6,2,,,,,,,6,6,6,6,,,,,,,,,,,2260.5588,2261.0644,2261.307,2267.5403,space,6.2032,,2267.5404,77,2,2268.5402,2268.5403,2268.5457,,,,0,28,28,28,1,95,20,,,,,,,,
,,5a520774eedc3200014206b4,001,2023-12-16_14h45.41.845,bars,2023.2.3,Win32,60.24096386,,,,,,2268.5458,2269.5404,,,2270.0402,2270.2901,,51,51,,,,,,,,,,,,,,,,bars/028.png,bars/mask003.png,,,,,,,,,,,,2,1,,,,,,,4,4,3,5,,,,,,,,,,,2269.5404,2270.0401,2270.2901,2273.2737,space,2.9526,,2273.2737,6,69,2274.2734,2274.2734,2274.2788,,,,0,29,29,29,1,45,120,,,,,,,,
,,5a520774eedc3200014206b4,001,2023-12-16_14h45.41.845,bars,2023.2.3,Win32,60.24096386,,,,,,2274.2791,2275.2734,,,2275.7804,2276.0308,,151,151,,,,,,,,,,,,,,,,bars/037.png,bars/mask004.png,,,,,,,,,,,,1,1,,,,,,,2,2,1,2,,,,,,,,,,,2275.2735,2275.7803,2276.0309,2283.4065,space,7.3591,,2283.4065,1,46,2284.4065,2284.4065,2284.4133,,,,0,30,30,30,1,150,105,,,,,,,,
,,5a520774eedc3200014206b4,001,2023-12-16_14h45.41.845,bars,2023.2.3,Win32,60.24096386,,,,,,2284.4134,2285.4065,,,2285.9064,2286.1565,,141,141,,,,,,,,,,,,,,,,bars/033.png,bars/mask001.png,,,,,,,,,,,,2,2,,,,,,,4,4,4,3,,,,,,,,,,,2285.4065,2285.9064,2286.1565,2288.1898,space,2.0106,,2288.1898,64,14,2289.1897,2289.1898,2289.1907,,,,0,31,31,31,1,25,155,,,,,,,,
,,5a520774eedc3200014206b4,001,2023-12-16_14h45.41.845,bars,2023.2.3,Win32,60.24096386,,,,,,2289.191,2290.1897,,,2290.6896,2290.9397,,22,22,,,,,,,,,,,,,,,,bars/048.png,bars/mask003.png,,,,,,,,,,,,0,2,,,,,,,2,2,2,1,,,,,,,,,,,2290.1898,2290.6896,2290.9397,2292.373,space,1.421,,2292.373,28,27,2293.373,2293.3731,2293.3735,,,,0,32,32,32,1,50,175,,,,,,,,
,,5a520774eedc3200014206b4,001,2023-12-16_14h45.41.845,bars,2023.2.3,Win32,60.24096386,,,,,,2293.3737,2294.3802,,,2294.8741,2295.1302,,113,113,,,,,,,,,,,,,,,,bars/013.png,bars/mask009.png,,,,,,,,,,,,0,1,,,,,,,4,4,4,4,,,,,,,,,,,2294.3802,2294.8741,2295.1302,2297.5228,space,2.3802,,2297.5229,38,77,2298.5228,2298.5228,2298.5281,,,,0,33,33,33,1,75,10,,,,,,,,
,,5a520774eedc3200014206b4,001,2023-12-16_14h45.41.845,bars,2023.2.3,Win32,60.24096386,,,,,,2298.5284,2299.5227,,,2300.0227,2300.2728,,66,66,,,,,,,,,,,,,,,,bars/038.png,bars/mask002.png,,,,,,,,,,,,3,2,,,,,,,6,6,5,4,,,,,,,,,,,2299.5227,2300.0227,2300.2728,2304.3969,space,4.1227,,2304.3969,81,4,2305.3966,2305.3966,2305.404,,,,0,34,34,34,1,165,70,,,,,,,,
,,5a520774eedc3200014206b4,001,2023-12-16_14h45.41.845,bars,2023.2.3,Win32,60.24096386,,,,,,2305.4045,2306.406,,,2306.906,2307.1559,,162,162,,,,,,,,,,,,,,,,bars/047.png,bars/mask001.png,,,,,,,,,,,,0,1,,,,,,,4,4,5,3,,,,,,,,,,,2306.406,2306.906,2307.1559,2309.2566,space,2.0828,,2309.2567,33,88,2310.2559,2310.2559,2310.2616,,,,0,35,35,35,1,15,70,,,,,,,,
,,5a520774eedc3200014206b4,001,2023-12-16_14h45.41.845,bars,2023.2.3,Win32,60.24096386,,,,,,2310.2619,2311.2558,,,2311.7561,2312.006,,146,146,,,,,,,,,,,,,,,,bars/024.png,bars/mask001.png,,,,,,,,,,,,0,2,,,,,,,2,2,3,2,,,,,,,,,,,2311.2558,2311.756,2312.006,2317.0057,space,4.9819,,2317.0058,26,24,2318.0057,2318.0057,2318.0125,,,,0,36,36,36,1,120,170,,,,,,,,
,,5a520774eedc3200014206b4,001,2023-12-16_14h45.41.845,bars,2023.2.3,Win32,60.24096386,,,,,,2318.0128,2319.0056,,,2319.5057,2319.7556,,126,-54,,,,,,,,,,,,,,,,bars/005.png,bars/mask005.png,,,,,,,,,,,,0,2,,,,,,,0,0,0,0,,,,,,,,,,,2319.0057,2319.5056,2319.7556,2322.7222,space,2.9584,,2322.7222,64,14,2323.7221,2323.7221,2323.7277,,,,0,37,37,37,1,10,140,,,,,,,,
,,5a520774eedc3200014206b4,001,2023-12-16_14h45.41.845,bars,2023.2.3,Win32,60.24096386,,,,,,2323.7279,2324.7234,,,2325.2222,2325.4721,,138,138,,,,,,,,,,,,,,,,bars/015.png,bars/mask003.png,,,,,,,,,,,,1,2,,,,,,,2,2,2,2,,,,,,,,,,,2324.7234,2325.2222,2325.4721,2331.4887,space,5.9907,,2331.4888,28,22,2332.4901,2332.4901,2332.496,,,,0,38,38,38,1,110,160,,,,,,,,
,,5a520774eedc3200014206b4,001,2023-12-16_14h45.41.845,bars,2023.2.3,Win32,60.24096386,,,,,,2332.4961,2333.4888,,,2333.9887,2334.2386,,109,109,,,,,,,,,,,,,,,,bars/013.png,bars/mask001.png,,,,,,,,,,,,0,1,,,,,,,4,4,6,5,,,,,,,,,,,2333.4889,2333.9887,2334.2386,2335.6886,space,1.4331,,2335.6886,34,81,2336.689,2336.6891,2336.6902,,,,0,39,39,39,1,75,10,,,,,,,,
,,5a520774eedc3200014206b4,001,2023-12-16_14h45.41.845,bars,2023.2.3,Win32,60.24096386,,,,,,2336.6905,2337.6886,,,2338.1889,2338.4387,,26,26,,,,,,,,,,,,,,,,bars/014.png,bars/mask000.png,,,,,,,,,,,,0,2,,,,,,,2,2,2,2,,,,,,,,,,,2337.6886,2338.1888,2338.4387,2344.0051,space,5.5487,,2344.0051,54,26,2345.005,2345.005,2345.0109,,,,0,40,40,40,1,80,0,,,,,,,,
,,5a520774eedc3200014206b4,001,2023-12-16_14h45.41.845,bars,2023.2.3,Win32,60.24096386,,,,,,2345.0112,2346.005,,,2346.5051,2346.7553,,74,254,,,,,,,,,,,,,,,,bars/030.png,bars/mask005.png,,,,,,,,,,,,1,2,,,,,,,4,4,2,2,,,,,,,,,,,2346.0051,2346.5051,2346.7553,2352.2224,space,5.4605,,2352.2224,66,9,2353.2222,2353.2222,2353.2271,,,,0,41,41,41,1,140,65,,,,,,,,
,,5a520774eedc3200014206b4,001,2023-12-16_14h45.41.845,bars,2023.2.3,Win32,60.24096386,,,,,,2353.2273,2354.2219,,,2354.7216,2354.9599,,62,62,,,,,,,,,,,,,,,,bars/013.png,bars/mask000.png,,,,,,,,,,,,1,1,,,,,,,2,6,1,7,,,,,,,,,,,2354.2219,2354.7216,2354.9599,2358.455,space,3.4763,,2358.455,13,52,2359.4546,2359.4546,2359.4603,,,,0,42,42,42,1,75,10,,,,,,,,
,,5a520774eedc3200014206b4,001,2023-12-16_14h45.41.845,bars,2023.2.3,Win32,60.24096386,,,,,,2359.4606,2360.4547,,,2360.955,2361.2047,,123,123,,,,,,,,,,,,,,,,bars/037.png,bars/mask008.png,,,,,,,,,,,,3,2,,,,,,,0,8,0,8,,,,,,,,,,,2360.4547,2360.955,2361.2047,2364.0046,space,2.7805,,2364.0046,27,18,2365.0045,2365.0046,2365.011,,,,0,43,43,43,1,150,105,,,,,,,,
,,5a520774eedc3200014206b4,001,2023-12-16_14h45.41.845,bars,2023.2.3,Win32,60.24096386,,,,,,2365.0114,2366.0118,,,2366.5119,2366.7557,,116,-64,,,,,,,,,,,,,,,,bars/032.png,bars/mask000.png,,,,,,,,,,,,1,1,,,,,,,0,6,1,5,,,,,,,,,,,2366.0118,2366.5119,2366.7558,2370.6213,space,3.8347,,2370.6213,9,84,2371.6211,2371.6211,2371.6269,,,,0,44,44,44,1,125,20,,,,,,,,
,,5a520774eedc3200014206b4,001,2023-12-16_14h45.41.845,bars,2023.2.3,Win32,60.24096386,,,,,,2371.6271,2372.6209,,,2373.1223,2373.3723,,39,39,,,,,,,,,,,,,,,,bars/035.png,bars/mask003.png,,,,,,,,,,,,2,2,,,,,,,2,4,1,5,,,,,,,,,,,2372.621,2373.1222,2373.3724,2376.2543,space,2.8654,,2376.2543,44,21,2377.2542,2377.2542,2377.2599,,,,0,45,45,45,1,175,60,,,,,,,,
,,5a520774eedc3200014206b4,001,2023-12-16_14h45.41.845,bars,2023.2.3,Win32,60.24096386,,,,,,2377.26,2378.2542,,,2378.7542,2379.0043,,24,24,,,,,,,,,,,,,,,,bars/035.png,bars/mask008.png,,,,,,,,,,,,0,1,,,,,,,4,2,3,3,,,,,,,,,,,2378.2542,2378.7542,2379.0043,2381.5542,space,2.5458,,2381.5543,29,36,2382.5544,2382.5544,2382.56,,,,0,46,46,46,1,175,60,,,,,,,,
,,5a520774eedc3200014206b4,001,2023-12-16_14h45.41.845,bars,2023.2.3,Win32,60.24096386,,,,,,2382.5603,2383.5541,,,2384.0566,2384.3041,,57,57,,,,,,,,,,,,,,,,bars/028.png,bars/mask006.png,,,,,,,,,,,,4,1,,,,,,,6,4,7,4,,,,,,,,,,,2383.5541,2384.0566,2384.3041,2386.2041,space,1.8765,,2386.2043,12,63,2387.2113,2387.2114,2387.2123,,,,0,47,47,47,1,45,120,,,,,,,,
