init_variables.started,init_variables.stopped,participant,session,date,expName,psychopyVersion,OS,frameRate,instruction_single.started,instruction_single.stopped,key_resp_2.keys,key_resp_2.rt,key_resp_2.duration,interval.started,interval.stopped,cue_single.started,cue_single.stopped,mask.started,mask.stopped,ori_response_single.started,res_ori,res,ori_response_single.stopped,key_resp_single.keys,key_resp_single.rt,key_resp_single.duration,disp_single.started,disp_single.stopped,key_resp.keys,key_resp.rt,key_resp.duration,single.thisRepN,single.thisTrialN,single.thisN,single.thisIndex,single.ran,ori,path,mask_path,instruction_bandit.started,instruction_bandit.stopped,key_resp_6.keys,key_resp_6.rt,key_resp_6.duration,cue_bandit.started,cue_bandit.stopped,bandit_res.keys,bandit_res.rt,bandit_res.duration,outcome_bandit.started,rew,action,outcome_bandit.stopped,bandit.thisRepN,bandit.thisTrialN,bandit.thisN,bandit.thisIndex,bandit.ran,actual_rew1,actual_rew2,rew1,rew2,instruction_task.started,instruction_task.stopped,key_resp_7.keys,key_resp_7.rt,key_resp_7.duration,wait_ready.started,wait_ready.stopped,key_resp_3.keys,key_resp_3.rt,key_resp_3.duration,cue.started,cue.stopped,ori_response.started,ori_response.stopped,key_resp_5.keys,key_resp_5.rt,key_resp_5.duration,outcome.started,diff1,diff2,outcome.stopped,disp_outcome_practice.started,disp_outcome_practice.stopped,key_resp_4.keys,key_resp_4.rt,key_resp_4.duration,trials.thisRepN,trials.thisTrialN,trials.thisN,trials.thisIndex,trials.ran,ori1,ori2,break_blk.started,break_blk.stopped,block.thisRepN,block.thisTrialN,block.thisN,block.thisIndex,block.ran,condition_file
0,0,60e686b927391d9ac83103f2,001,2023-12-14_07h21.44.739,bars,2023.2.3,Win32,125,,,,,,,,,,,,,,,,,,,,,,,,,,,,,,,,,,,,,,,,,,,,,,,,,,,,,,,,,,,,,,,,,,,,,,,,,,,,,,,,,,,,,,,,,,,,,,,
,,60e686b927391d9ac83103f2,001,2023-12-14_07h21.44.739,bars,2023.2.3,Win32,125,0,12.934,space,12.924,,,,,,,,,,,,,,,,,,,,,,,,,,,,,,,,,,,,,,,,,,,,,,,,,,,,,,,,,,,,,,,,,,,,,,,,,,,,,,,,,,,,,,,,,,,
,,60e686b927391d9ac83103f2,001,2023-12-14_07h21.44.739,bars,2023.2.3,Win32,125,,,,,,12.936,13.934,13.934,14.433,14.433,14.684,14.684,35,215,21.58,space,6.876,,21.58,26.691,space,5.103,,0,0,0,6,1,175,bars/single006.png,bars/mask005.png,,,,,,,,,,,,,,,,,,,,,,,,,,,,,,,,,,,,,,,,,,,,,,,,,,,,,,,,,,,,,,,,
,,60e686b927391d9ac83103f2,001,2023-12-14_07h21.44.739,bars,2023.2.3,Win32,125,,,,,,26.691,27.69,27.69,28.19,28.19,28.441,28.441,147,147,35.101,space,6.653,,35.101,37.135,space,2.028,,0,1,1,0,1,150,bars/single000.png,bars/mask006.png,,,,,,,,,,,,,,,,,,,,,,,,,,,,,,,,,,,,,,,,,,,,,,,,,,,,,,,,,,,,,,,,
,,60e686b927391d9ac83103f2,001,2023-12-14_07h21.44.739,bars,2023.2.3,Win32,125,,,,,,37.136,38.136,38.136,38.635,38.635,38.885,38.885,151,-29,42.754,space,3.864,,42.754,45.954,space,3.195,,0,2,2,5,1,55,bars/single005.png,bars/mask008.png,,,,,,,,,,,,,,,,,,,,,,,,,,,,,,,,,,,,,,,,,,,,,,,,,,,,,,,,,,,,,,,,
,,60e686b927391d9ac83103f2,001,2023-12-14_07h21.44.739,bars,2023.2.3,Win32,125,,,,,,45.954,46.954,46.954,47.455,47.455,47.705,47.705,58,58,50.372,space,2.662,,50.372,51.761,space,1.381,,0,3,3,3,1,20,bars/single003.png,bars/mask005.png,,,,,,,,,,,,,,,,,,,,,,,,,,,,,,,,,,,,,,,,,,,,,,,,,,,,,,,,,,,,,,,,
,,60e686b927391d9ac83103f2,001,2023-12-14_07h21.44.739,bars,2023.2.3,Win32,125,,,,,,51.761,52.761,52.761,53.26,53.26,53.51,53.51,8,8,60.191,space,6.674,,60.191,62.942,space,2.739,,0,4,4,1,1,20,bars/single001.png,bars/mask006.png,,,,,,,,,,,,,,,,,,,,,,,,,,,,,,,,,,,,,,,,,,,,,,,,,,,,,,,,,,,,,,,,
,,60e686b927391d9ac83103f2,001,2023-12-14_07h21.44.739,bars,2023.2.3,Win32,125,,,,,,62.942,63.942,63.942,64.442,64.442,64.692,64.692,139,139,68.045,space,3.347,,68.045,69.393,space,1.337,,0,5,5,2,1,145,bars/single002.png,bars/mask003.png,,,,,,,,,,,,,,,,,,,,,,,,,,,,,,,,,,,,,,,,,,,,,,,,,,,,,,,,,,,,,,,,
,,60e686b927391d9ac83103f2,001,2023-12-14_07h21.44.739,bars,2023.2.3,Win32,125,,,,,,69.393,70.393,70.393,70.893,70.893,71.143,71.143,26,26,77.442,space,6.297,,77.442,78.56,space,1.107,,0,6,6,7,1,45,bars/single007.png,bars/mask009.png,,,,,,,,,,,,,,,,,,,,,,,,,,,,,,,,,,,,,,,,,,,,,,,,,,,,,,,,,,,,,,,,
,,60e686b927391d9ac83103f2,001,2023-12-14_07h21.44.739,bars,2023.2.3,Win32,125,,,,,,78.56,79.56,79.56,80.061,80.061,80.31,80.31,51,51,83.796,space,3.484,,83.796,84.79,space,0.986,,0,7,7,9,1,20,bars/single009.png,bars/mask006.png,,,,,,,,,,,,,,,,,,,,,,,,,,,,,,,,,,,,,,,,,,,,,,,,,,,,,,,,,,,,,,,,
,,60e686b927391d9ac83103f2,001,2023-12-14_07h21.44.739,bars,2023.2.3,Win32,125,,,,,,84.79,85.789,85.789,86.29,86.29,86.539,86.539,173,173,88.928,space,2.389,,88.928,89.804,space,0.873,,0,8,8,8,1,160,bars/single008.png,bars/mask004.png,,,,,,,,,,,,,,,,,,,,,,,,,,,,,,,,,,,,,,,,,,,,,,,,,,,,,,,,,,,,,,,,
,,60e686b927391d9ac83103f2,001,2023-12-14_07h21.44.739,bars,2023.2.3,Win32,125,,,,,,89.804,90.803,90.803,91.303,91.303,91.553,91.553,82,82,95.443,space,3.888,,95.443,96.387,space,0.934,,0,9,9,4,1,95,bars/single004.png,bars/mask004.png,,,,,,,,,,,,,,,,,,,,,,,,,,,,,,,,,,,,,,,,,,,,,,,,,,,,,,,,,,,,,,,,
,,60e686b927391d9ac83103f2,001,2023-12-14_07h21.44.739,bars,2023.2.3,Win32,125,,,,,,,,,,,,,,,,,,,,,,,,,,,,,,,,96.388,98.499,space,2.104,,,,,,,,,,,,,,,,,,,,,,,,,,,,,,,,,,,,,,,,,,,,,,,,,,,,,,,,,,,,
,,60e686b927391d9ac83103f2,001,2023-12-14_07h21.44.739,bars,2023.2.3,Win32,125,,,,,,,,,,,,,,,,,,,,,,,,,,,,,,,,,,,,,98.5,105.241,left,6.735,,105.241,9,1,106.241,0,0,0,0,1,9,1,9,2,,,,,,,,,,,,,,,,,,,,,,,,,,,,,,,,,,,,,,,,,
,,60e686b927391d9ac83103f2,001,2023-12-14_07h21.44.739,bars,2023.2.3,Win32,125,,,,,,,,,,,,,,,,,,,,,,,,,,,,,,,,,,,,,106.242,109.963,left,3.718,,109.963,10,1,110.963,0,1,1,1,1,10,0,10,1,,,,,,,,,,,,,,,,,,,,,,,,,,,,,,,,,,,,,,,,,
,,60e686b927391d9ac83103f2,001,2023-12-14_07h21.44.739,bars,2023.2.3,Win32,125,,,,,,,,,,,,,,,,,,,,,,,,,,,,,,,,,,,,,110.963,113.117,left,2.146,,113.117,10,1,114.116,0,2,2,2,1,10,2,10,2,,,,,,,,,,,,,,,,,,,,,,,,,,,,,,,,,,,,,,,,,
,,60e686b927391d9ac83103f2,001,2023-12-14_07h21.44.739,bars,2023.2.3,Win32,125,,,,,,,,,,,,,,,,,,,,,,,,,,,,,,,,,,,,,114.121,116.012,left,1.885,,116.012,7,1,117.012,0,3,3,3,1,8,4,7,3,,,,,,,,,,,,,,,,,,,,,,,,,,,,,,,,,,,,,,,,,
,,60e686b927391d9ac83103f2,001,2023-12-14_07h21.44.739,bars,2023.2.3,Win32,125,,,,,,,,,,,,,,,,,,,,,,,,,,,,,,,,,,,,,117.012,118.867,left,1.849,,118.867,5,1,119.867,0,4,4,4,1,6,2,5,1,,,,,,,,,,,,,,,,,,,,,,,,,,,,,,,,,,,,,,,,,
,,60e686b927391d9ac83103f2,001,2023-12-14_07h21.44.739,bars,2023.2.3,Win32,125,,,,,,,,,,,,,,,,,,,,,,,,,,,,,,,,,,,,,119.871,121.221,right,1.344,,121.221,4,2,122.221,0,5,5,5,1,4,4,4,4,,,,,,,,,,,,,,,,,,,,,,,,,,,,,,,,,,,,,,,,,
,,60e686b927391d9ac83103f2,001,2023-12-14_07h21.44.739,bars,2023.2.3,Win32,125,,,,,,,,,,,,,,,,,,,,,,,,,,,,,,,,,,,,,122.221,123.506,right,1.278,,123.506,2,2,124.506,0,6,6,6,1,2,2,1,2,,,,,,,,,,,,,,,,,,,,,,,,,,,,,,,,,,,,,,,,,
,,60e686b927391d9ac83103f2,001,2023-12-14_07h21.44.739,bars,2023.2.3,Win32,125,,,,,,,,,,,,,,,,,,,,,,,,,,,,,,,,,,,,,124.506,125.13,left,0.623,,125.131,0,1,126.131,0,7,7,7,1,0,0,0,1,,,,,,,,,,,,,,,,,,,,,,,,,,,,,,,,,,,,,,,,,
,,60e686b927391d9ac83103f2,001,2023-12-14_07h21.44.739,bars,2023.2.3,Win32,125,,,,,,,,,,,,,,,,,,,,,,,,,,,,,,,,,,,,,126.131,127.249,left,1.112,,127.249,1,1,128.249,0,8,8,8,1,0,2,1,0,,,,,,,,,,,,,,,,,,,,,,,,,,,,,,,,,,,,,,,,,
,,60e686b927391d9ac83103f2,001,2023-12-14_07h21.44.739,bars,2023.2.3,Win32,125,,,,,,,,,,,,,,,,,,,,,,,,,,,,,,,,,,,,,128.249,129.089,right,0.838,,129.089,3,2,130.089,0,9,9,9,1,2,4,2,3,,,,,,,,,,,,,,,,,,,,,,,,,,,,,,,,,,,,,,,,,
,,60e686b927391d9ac83103f2,001,2023-12-14_07h21.44.739,bars,2023.2.3,Win32,125,,,,,,,,,,,,,,,,,,,,,,,,,,,,,,,,,,,,,130.089,131.013,right,0.918,,131.013,3,2,132.013,0,10,10,10,1,0,2,0,3,,,,,,,,,,,,,,,,,,,,,,,,,,,,,,,,,,,,,,,,,
,,60e686b927391d9ac83103f2,001,2023-12-14_07h21.44.739,bars,2023.2.3,Win32,125,,,,,,,,,,,,,,,,,,,,,,,,,,,,,,,,,,,,,132.013,132.687,left,0.673,,132.687,0,1,133.686,0,11,11,11,1,0,4,0,3,,,,,,,,,,,,,,,,,,,,,,,,,,,,,,,,,,,,,,,,,
,,60e686b927391d9ac83103f2,001,2023-12-14_07h21.44.739,bars,2023.2.3,Win32,125,,,,,,,,,,,,,,,,,,,,,,,,,,,,,,,,,,,,,133.686,134.277,right,0.586,,134.277,6,2,135.276,0,12,12,12,1,2,6,1,6,,,,,,,,,,,,,,,,,,,,,,,,,,,,,,,,,,,,,,,,,
,,60e686b927391d9ac83103f2,001,2023-12-14_07h21.44.739,bars,2023.2.3,Win32,125,,,,,,,,,,,,,,,,,,,,,,,,,,,,,,,,,,,,,135.276,136.027,right,0.744,,136.027,3,2,137.026,0,13,13,13,1,0,4,1,3,,,,,,,,,,,,,,,,,,,,,,,,,,,,,,,,,,,,,,,,,
,,60e686b927391d9ac83103f2,001,2023-12-14_07h21.44.739,bars,2023.2.3,Win32,125,,,,,,,,,,,,,,,,,,,,,,,,,,,,,,,,,,,,,137.027,138.562,left,1.531,,138.562,2,1,139.562,0,14,14,14,1,2,6,2,7,,,,,,,,,,,,,,,,,,,,,,,,,,,,,,,,,,,,,,,,,
,,60e686b927391d9ac83103f2,001,2023-12-14_07h21.44.739,bars,2023.2.3,Win32,125,,,,,,,,,,,,,,,,,,,,,,,,,,,,,,,,,,,,,139.562,140.214,right,0.652,,140.214,9,2,141.214,0,15,15,15,1,4,8,3,9,,,,,,,,,,,,,,,,,,,,,,,,,,,,,,,,,,,,,,,,,
,,60e686b927391d9ac83103f2,001,2023-12-14_07h21.44.739,bars,2023.2.3,Win32,125,,,,,,,,,,,,,,,,,,,,,,,,,,,,,,,,,,,,,141.214,142.715,right,1.495,,142.715,7,2,143.714,0,16,16,16,1,6,6,7,7,,,,,,,,,,,,,,,,,,,,,,,,,,,,,,,,,,,,,,,,,
,,60e686b927391d9ac83103f2,001,2023-12-14_07h21.44.739,bars,2023.2.3,Win32,125,,,,,,,,,,,,,,,,,,,,,,,,,,,,,,,,,,,,,143.719,144.603,right,0.882,,144.603,5,2,145.604,0,17,17,17,1,8,4,9,5,,,,,,,,,,,,,,,,,,,,,,,,,,,,,,,,,,,,,,,,,
,,60e686b927391d9ac83103f2,001,2023-12-14_07h21.44.739,bars,2023.2.3,Win32,125,,,,,,,,,,,,,,,,,,,,,,,,,,,,,,,,,,,,,145.604,146.631,left,1.02,,146.631,5,1,147.631,0,18,18,18,1,6,2,5,1,,,,,,,,,,,,,,,,,,,,,,,,,,,,,,,,,,,,,,,,,
,,60e686b927391d9ac83103f2,001,2023-12-14_07h21.44.739,bars,2023.2.3,Win32,125,,,,,,,,,,,,,,,,,,,,,,,,,,,,,,,,,,,,,147.636,148.416,left,0.777,,148.416,7,1,149.416,0,19,19,19,1,8,0,7,0,,,,,,,,,,,,,,,,,,,,,,,,,,,,,,,,,,,,,,,,,
,,60e686b927391d9ac83103f2,001,2023-12-14_07h21.44.739,bars,2023.2.3,Win32,125,,,,,,,,,,,,,,,,,,,,,,,,,,,,,,,,,,,,,,,,,,,,,,,,,,,,,,,149.416,152.653,space,3.227,,,,,,,,,,,,,,,,,,,,,,,,,,,,,,,,,,,,,
,,60e686b927391d9ac83103f2,001,2023-12-14_07h21.44.739,bars,2023.2.3,Win32,125,,,,,,153.571,154.569,,,155.069,155.319,,149,149,,,,,,,,,,,,,,,,bars/037.png,bars/mask003.png,,,,,,,,,,,,9,1,,,,,,,8,8,9,9,,,,,,152.658,153.57,space,0.907,,154.569,155.069,155.319,161.18,space,5.854,,161.18,1,44,162.18,162.18,166.57,space,4.385,,0,0,0,0,1,150,105,,,,,,,,
,,60e686b927391d9ac83103f2,001,2023-12-14_07h21.44.739,bars,2023.2.3,Win32,125,,,,,,166.574,167.57,,,168.07,168.319,,0,180,,,,,,,,,,,,,,,,bars/011.png,bars/mask007.png,,,,,,,,,,,,3,1,,,,,,,10,6,8,6,,,,,,,,,,,167.57,168.07,168.319,174.271,space,5.949,,174.271,20,85,175.271,175.271,180.966,space,5.686,,0,1,1,1,1,160,85,,,,,,,,
,,60e686b927391d9ac83103f2,001,2023-12-14_07h21.44.739,bars,2023.2.3,Win32,125,,,,,,180.97,181.966,,,182.466,182.715,,166,166,,,,,,,,,,,,,,,,bars/039.png,bars/mask006.png,,,,,,,,,,,,7,1,,,,,,,8,8,10,8,,,,,,,,,,,181.966,182.466,182.715,187.695,space,4.976,,187.695,9,61,188.695,188.695,189.827,space,1.12,,0,2,2,2,1,175,105,,,,,,,,
,,60e686b927391d9ac83103f2,001,2023-12-14_07h21.44.739,bars,2023.2.3,Win32,125,,,,,,189.827,190.827,,,191.327,191.577,,9,9,,,,,,,,,,,,,,,,bars/041.png,bars/mask001.png,,,,,,,,,,,,3,1,,,,,,,6,6,4,7,,,,,,,,,,,190.827,191.327,191.577,196.229,space,4.651,,196.229,11,76,197.224,197.224,198.202,space,0.966,,0,3,3,3,1,20,85,,,,,,,,
,,60e686b927391d9ac83103f2,001,2023-12-14_07h21.44.739,bars,2023.2.3,Win32,125,,,,,,198.202,199.202,,,199.703,199.952,,43,43,,,,,,,,,,,,,,,,bars/001.png,bars/mask006.png,,,,,,,,,,,,0,2,,,,,,,4,8,5,7,,,,,,,,,,,199.202,199.703,199.952,203.119,space,3.16,,203.119,87,42,204.119,204.119,205.168,space,1.036,,0,4,4,4,1,130,85,,,,,,,,
,,60e686b927391d9ac83103f2,001,2023-12-14_07h21.44.739,bars,2023.2.3,Win32,125,,,,,,205.168,206.168,,,206.668,206.918,,113,113,,,,,,,,,,,,,,,,bars/046.png,bars/mask003.png,,,,,,,,,,,,0,2,,,,,,,2,6,1,6,,,,,,,,,,,206.168,206.668,206.918,210.126,space,3.207,,210.126,42,28,211.127,211.127,212.793,space,1.658,,0,5,5,5,1,155,85,,,,,,,,
,,60e686b927391d9ac83103f2,001,2023-12-14_07h21.44.739,bars,2023.2.3,Win32,125,,,,,,212.793,213.793,,,214.294,214.543,,75,75,,,,,,,,,,,,,,,,bars/022.png,bars/mask000.png,,,,,,,,,,,,1,1,,,,,,,4,4,3,6,,,,,,,,,,,213.793,214.294,214.543,217.036,space,2.486,,217.036,20,55,218.036,218.036,219.467,space,1.423,,0,6,6,6,1,95,20,,,,,,,,
,,60e686b927391d9ac83103f2,001,2023-12-14_07h21.44.739,bars,2023.2.3,Win32,125,,,,,,219.467,220.466,,,220.967,221.217,,97,97,,,,,,,,,,,,,,,,bars/045.png,bars/mask004.png,,,,,,,,,,,,1,1,,,,,,,2,2,1,1,,,,,,,,,,,220.467,220.967,221.217,226.585,space,5.363,,226.585,3,87,227.585,227.585,228.745,space,1.149,,0,7,7,7,1,100,10,,,,,,,,
,,60e686b927391d9ac83103f2,001,2023-12-14_07h21.44.739,bars,2023.2.3,Win32,125,,,,,,228.745,229.745,,,230.245,230.495,,8,8,,,,,,,,,,,,,,,,bars/041.png,bars/mask006.png,,,,,,,,,,,,2,1,,,,,,,4,4,3,3,,,,,,,,,,,229.745,230.245,230.495,233.725,space,3.228,,233.725,12,77,234.724,234.724,235.835,space,1.101,,0,8,8,8,1,20,85,,,,,,,,
,,60e686b927391d9ac83103f2,001,2023-12-14_07h21.44.739,bars,2023.2.3,Win32,125,,,,,,235.836,236.835,,,237.335,237.586,,42,222,,,,,,,,,,,,,,,,bars/031.png,bars/mask005.png,,,,,,,,,,,,5,2,,,,,,,2,6,3,7,,,,,,,,,,,236.835,237.335,237.586,241.787,space,4.195,,241.787,78,7,242.787,242.787,244.495,space,1.697,,0,9,9,9,1,120,35,,,,,,,,
,,60e686b927391d9ac83103f2,001,2023-12-14_07h21.44.739,bars,2023.2.3,Win32,125,,,,,,244.495,245.496,,,245.995,246.245,,170,170,,,,,,,,,,,,,,,,bars/036.png,bars/mask009.png,,,,,,,,,,,,1,1,,,,,,,4,8,4,8,,,,,,,,,,,245.496,245.995,246.245,250.76,space,4.511,,250.76,25,30,251.759,251.759,253.086,space,1.316,,0,10,10,10,1,145,20,,,,,,,,
,,60e686b927391d9ac83103f2,001,2023-12-14_07h21.44.739,bars,2023.2.3,Win32,125,,,,,,253.086,254.086,,,254.586,254.836,,137,137,,,,,,,,,,,,,,,,bars/034.png,bars/mask007.png,,,,,,,,,,,,4,1,,,,,,,6,6,6,6,,,,,,,,,,,254.086,254.586,254.836,256.795,space,1.955,,256.795,12,72,257.794,257.794,258.552,space,0.75,,0,11,11,11,1,125,65,,,,,,,,
,,60e686b927391d9ac83103f2,001,2023-12-14_07h21.44.739,bars,2023.2.3,Win32,125,,,,,,258.552,259.551,,,260.051,260.302,,44,44,,,,,,,,,,,,,,,,bars/031.png,bars/mask004.png,,,,,,,,,,,,2,2,,,,,,,4,4,3,3,,,,,,,,,,,259.551,260.051,260.302,263.051,space,2.746,,263.051,76,9,264.052,264.052,264.836,space,0.772,,0,12,12,12,1,120,35,,,,,,,,
,,60e686b927391d9ac83103f2,001,2023-12-14_07h21.44.739,bars,2023.2.3,Win32,125,,,,,,264.836,265.836,,,266.336,266.586,,51,51,,,,,,,,,,,,,,,,bars/034.png,bars/mask002.png,,,,,,,,,,,,3,2,,,,,,,2,6,1,6,,,,,,,,,,,265.836,266.336,266.586,268.829,space,2.242,,268.829,74,14,269.829,269.829,270.697,space,0.858,,0,13,13,13,1,125,65,,,,,,,,
,,60e686b927391d9ac83103f2,001,2023-12-14_07h21.44.739,bars,2023.2.3,Win32,125,,,,,,270.697,271.697,,,272.198,272.447,,15,195,,,,,,,,,,,,,,,,bars/032.png,bars/mask002.png,,,,,,,,,,,,7,2,,,,,,,0,8,0,8,,,,,,,,,,,271.697,272.198,272.447,275.044,space,2.595,,275.044,70,5,276.044,276.044,276.837,space,0.784,,0,14,14,14,1,125,20,,,,,,,,
,,60e686b927391d9ac83103f2,001,2023-12-14_07h21.44.739,bars,2023.2.3,Win32,125,,,,,,276.837,277.837,,,278.336,278.587,,11,11,,,,,,,,,,,,,,,,bars/020.png,bars/mask008.png,,,,,,,,,,,,2,2,,,,,,,0,6,0,6,,,,,,,,,,,277.837,278.336,278.587,281.837,space,3.246,,281.837,76,21,282.836,282.836,284.024,space,1.179,,0,15,15,15,1,115,170,,,,,,,,
,,60e686b927391d9ac83103f2,001,2023-12-14_07h21.44.739,bars,2023.2.3,Win32,125,,,,,,284.024,285.024,,,285.524,285.774,,70,70,,,,,,,,,,,,,,,,bars/010.png,bars/mask007.png,,,,,,,,,,,,5,2,,,,,,,2,8,3,9,,,,,,,,,,,285.024,285.524,285.774,287.385,space,1.609,,287.386,85,15,288.385,288.385,289.225,space,0.83,,0,16,16,16,1,165,55,,,,,,,,
,,60e686b927391d9ac83103f2,001,2023-12-14_07h21.44.739,bars,2023.2.3,Win32,125,,,,,,289.225,290.226,,,290.726,290.975,,32,212,,,,,,,,,,,,,,,,bars/034.png,bars/mask007.png,,,,,,,,,,,,0,2,,,,,,,0,10,1,10,,,,,,,,,,,290.226,290.726,290.975,294.406,space,3.427,,294.406,87,33,295.406,295.406,296.121,space,0.706,,0,17,17,17,1,125,65,,,,,,,,
,,60e686b927391d9ac83103f2,001,2023-12-14_07h21.44.739,bars,2023.2.3,Win32,125,,,,,,296.122,297.122,,,297.622,297.871,,175,175,,,,,,,,,,,,,,,,bars/018.png,bars/mask006.png,,,,,,,,,,,,0,1,,,,,,,2,8,1,7,,,,,,,,,,,297.122,297.622,297.871,301.053,space,3.178,,301.053,25,85,302.053,302.053,302.858,space,0.797,,0,18,18,18,1,150,90,,,,,,,,
,,60e686b927391d9ac83103f2,001,2023-12-14_07h21.44.739,bars,2023.2.3,Win32,125,,,,,,302.858,303.858,,,304.358,304.608,,27,207,,,,,,,,,,,,,,,,bars/003.png,bars/mask004.png,,,,,,,,,,,,0,1,,,,,,,0,6,0,5,,,,,,,,,,,303.858,304.358,304.608,307.955,space,3.346,,307.955,2,67,308.955,308.955,309.588,space,0.624,,0,19,19,19,1,25,140,,,,,,,,
,,60e686b927391d9ac83103f2,001,2023-12-14_07h21.44.739,bars,2023.2.3,Win32,125,,,,,,309.588,310.587,,,311.087,311.338,,172,172,,,,,,,,,,,,,,,,bars/016.png,bars/mask006.png,,,,,,,,,,,,6,2,,,,,,,2,8,2,8,,,,,,,,,,,310.587,311.087,311.338,312.49,space,1.149,,312.49,48,7,313.491,313.491,314.081,space,0.583,,0,20,20,20,1,40,165,,,,,,,,
,,60e686b927391d9ac83103f2,001,2023-12-14_07h21.44.739,bars,2023.2.3,Win32,125,,,,,,314.081,315.08,,,315.581,315.831,,45,45,,,,,,,,,,,,,,,,bars/022.png,bars/mask001.png,,,,,,,,,,,,2,2,,,,,,,4,10,5,10,,,,,,,,,,,315.08,315.581,315.831,317.873,space,2.036,,317.873,50,25,318.873,318.873,319.449,space,0.569,,0,21,21,21,1,95,20,,,,,,,,
,,60e686b927391d9ac83103f2,001,2023-12-14_07h21.44.739,bars,2023.2.3,Win32,125,,,,,,319.45,320.448,,,320.949,321.199,,163,163,,,,,,,,,,,,,,,,bars/044.png,bars/mask002.png,,,,,,,,,,,,6,2,,,,,,,6,8,6,8,,,,,,,,,,,320.448,320.949,321.199,322.227,space,1.026,,322.227,88,8,323.227,323.227,323.719,space,0.49,,0,22,22,22,1,75,155,,,,,,,,
,,60e686b927391d9ac83103f2,001,2023-12-14_07h21.44.739,bars,2023.2.3,Win32,125,,,,,,323.72,324.72,,,325.22,325.469,,117,117,,,,,,,,,,,,,,,,bars/001.png,bars/mask002.png,,,,,,,,,,,,4,1,,,,,,,8,10,7,10,,,,,,,,,,,324.72,325.22,325.469,327.213,space,1.736,,327.213,13,32,328.213,328.213,328.776,space,0.549,,0,23,23,23,1,130,85,,,,,,,,
,,60e686b927391d9ac83103f2,001,2023-12-14_07h21.44.739,bars,2023.2.3,Win32,125,,,,,,328.776,329.775,,,330.276,330.526,,32,32,,,,,,,,,,,,,,,,bars/041.png,bars/mask004.png,,,,,,,,,,,,6,1,,,,,,,10,10,10,9,,,,,,,,,,,329.775,330.276,330.526,333.998,space,3.466,,333.998,12,53,334.997,334.998,335.866,space,0.861,,0,24,24,24,1,20,85,,,,,,,,
,,60e686b927391d9ac83103f2,001,2023-12-14_07h21.44.739,bars,2023.2.3,Win32,125,,,,,,335.866,336.866,,,337.366,337.616,,38,218,,,,,,,,,,,,,,,,bars/048.png,bars/mask006.png,,,,,,,,,,,,5,1,,,,,,,10,10,9,9,,,,,,,,,,,336.866,337.366,337.616,341.158,space,3.538,,341.158,12,43,342.157,342.157,342.714,space,0.545,,0,25,25,25,1,50,175,,,,,,,,
,,60e686b927391d9ac83103f2,001,2023-12-14_07h21.44.739,bars,2023.2.3,Win32,125,,,,,,342.714,343.714,,,344.214,344.463,,113,113,,,,,,,,,,,,,,,,bars/037.png,bars/mask004.png,,,,,,,,,,,,7,2,,,,,,,8,10,8,10,,,,,,,,,,,343.714,344.214,344.463,347.158,space,2.693,,347.158,37,8,348.158,348.158,348.714,space,0.549,,0,26,26,26,1,150,105,,,,,,,,
,,60e686b927391d9ac83103f2,001,2023-12-14_07h21.44.739,bars,2023.2.3,Win32,125,,,,,,348.714,349.714,,,350.213,350.464,,132,132,,,,,,,,,,,,,,,,bars/037.png,bars/mask002.png,,,,,,,,,,,,3,1,,,,,,,6,8,7,8,,,,,,,,,,,349.714,350.213,350.464,351.596,space,1.129,,351.596,18,27,352.596,352.596,353.117,space,0.514,,0,27,27,27,1,150,105,,,,,,,,
,,60e686b927391d9ac83103f2,001,2023-12-14_07h21.44.739,bars,2023.2.3,Win32,125,,,,,,353.117,354.117,,,354.616,354.866,,42,42,,,,,,,,,,,,,,,,bars/025.png,bars/mask004.png,,,,,,,,,,,,6,2,,,,,,,4,6,4,6,,,,,,,,,,,354.117,354.616,354.866,359.596,space,4.728,,359.596,63,2,360.596,360.596,361.679,space,1.07,,0,28,28,28,1,105,40,,,,,,,,
,,60e686b927391d9ac83103f2,001,2023-12-14_07h21.44.739,bars,2023.2.3,Win32,125,,,,,,361.679,362.679,,,363.18,363.429,,158,158,,,,,,,,,,,,,,,,bars/039.png,bars/mask004.png,,,,,,,,,,,,3,1,,,,,,,6,4,6,4,,,,,,,,,,,362.679,363.18,363.429,365.673,space,2.237,,365.673,17,53,366.672,366.672,367.256,space,0.574,,0,29,29,29,1,175,105,,,,,,,,
,,60e686b927391d9ac83103f2,001,2023-12-14_07h21.44.739,bars,2023.2.3,Win32,125,,,,,,367.256,368.256,,,368.756,369.006,,41,221,,,,,,,,,,,,,,,,bars/035.png,bars/mask004.png,,,,,,,,,,,,3,2,,,,,,,8,6,10,7,,,,,,,,,,,368.256,368.756,369.006,371.943,space,2.935,,371.943,46,19,372.944,372.944,374.068,space,1.117,,0,30,30,30,1,175,60,,,,,,,,
,,60e686b927391d9ac83103f2,001,2023-12-14_07h21.44.739,bars,2023.2.3,Win32,125,,,,,,374.068,375.068,,,375.569,375.818,,157,157,,,,,,,,,,,,,,,,bars/016.png,bars/mask006.png,,,,,,,,,,,,3,2,,,,,,,6,4,6,4,,,,,,,,,,,375.068,375.568,375.818,378.104,space,2.279,,378.104,63,8,379.104,379.104,379.798,space,0.684,,0,31,31,31,1,40,165,,,,,,,,
,,60e686b927391d9ac83103f2,001,2023-12-14_07h21.44.739,bars,2023.2.3,Win32,125,,,,,,379.798,380.797,,,381.298,381.548,,131,-49,,,,,,,,,,,,,,,,bars/037.png,bars/mask008.png,,,,,,,,,,,,3,1,,,,,,,8,2,7,3,,,,,,,,,,,380.797,381.298,381.548,384.499,space,2.945,,384.499,19,26,385.499,385.499,386.291,space,0.785,,0,32,32,32,1,150,105,,,,,,,,
,,60e686b927391d9ac83103f2,001,2023-12-14_07h21.44.739,bars,2023.2.3,Win32,125,,,,,,386.291,387.291,,,387.791,388.041,,93,-87,,,,,,,,,,,,,,,,bars/023.png,bars/mask003.png,,,,,,,,,,,,1,2,,,,,,,10,4,9,5,,,,,,,,,,,387.291,387.791,388.041,391.992,space,3.944,,391.992,73,22,392.993,392.993,393.882,space,0.879,,0,33,33,33,1,20,115,,,,,,,,
,,60e686b927391d9ac83103f2,001,2023-12-14_07h21.44.739,bars,2023.2.3,Win32,125,,,,,,393.882,394.881,,,395.381,395.632,,100,100,,,,,,,,,,,,,,,,bars/009.png,bars/mask002.png,,,,,,,,,,,,6,2,,,,,,,10,6,10,7,,,,,,,,,,,394.881,395.381,395.632,397.812,space,2.174,,397.812,85,5,398.812,398.812,399.437,space,0.615,,0,34,34,34,1,15,105,,,,,,,,
,,60e686b927391d9ac83103f2,001,2023-12-14_07h21.44.739,bars,2023.2.3,Win32,125,,,,,,399.437,400.437,,,400.937,401.187,,17,197,,,,,,,,,,,,,,,,bars/003.png,bars/mask008.png,,,,,,,,,,,,7,1,,,,,,,8,8,9,9,,,,,,,,,,,400.437,400.937,401.187,404.167,space,2.973,,404.167,8,57,405.167,405.167,405.771,space,0.594,,0,35,35,35,1,25,140,,,,,,,,
,,60e686b927391d9ac83103f2,001,2023-12-14_07h21.44.739,bars,2023.2.3,Win32,125,,,,,,405.771,406.771,,,407.271,407.521,,94,94,,,,,,,,,,,,,,,,bars/006.png,bars/mask006.png,,,,,,,,,,,,5,2,,,,,,,10,6,10,6,,,,,,,,,,,406.771,407.271,407.521,410.028,space,2.504,,410.028,59,6,411.028,411.028,411.563,space,0.527,,0,36,36,36,1,35,100,,,,,,,,
,,60e686b927391d9ac83103f2,001,2023-12-14_07h21.44.739,bars,2023.2.3,Win32,125,,,,,,411.563,412.562,,,413.062,413.312,,161,161,,,,,,,,,,,,,,,,bars/039.png,bars/mask003.png,,,,,,,,,,,,5,1,,,,,,,10,8,10,8,,,,,,,,,,,412.562,413.062,413.312,414.75,space,1.436,,414.75,14,56,415.75,415.75,416.333,space,0.571,,0,37,37,37,1,175,105,,,,,,,,
,,60e686b927391d9ac83103f2,001,2023-12-14_07h21.44.739,bars,2023.2.3,Win32,125,,,,,,416.333,417.334,,,417.834,418.084,,30,210,,,,,,,,,,,,,,,,bars/003.png,bars/mask006.png,,,,,,,,,,,,7,1,,,,,,,8,10,8,10,,,,,,,,,,,417.334,417.834,418.084,422.07,space,3.981,,422.07,5,70,423.07,423.07,423.681,space,0.599,,0,38,38,38,1,25,140,,,,,,,,
,,60e686b927391d9ac83103f2,001,2023-12-14_07h21.44.739,bars,2023.2.3,Win32,125,,,,,,423.681,424.681,,,425.181,425.431,,122,122,,,,,,,,,,,,,,,,bars/021.png,bars/mask000.png,,,,,,,,,,,,0,1,,,,,,,10,8,10,9,,,,,,,,,,,424.681,425.181,425.431,427.744,space,2.307,,427.744,33,52,428.743,428.743,429.521,space,0.768,,0,39,39,39,1,155,70,,,,,,,,
,,60e686b927391d9ac83103f2,001,2023-12-14_07h21.44.739,bars,2023.2.3,Win32,125,,,,,,429.521,430.521,,,431.022,431.271,,153,153,,,,,,,,,,,,,,,,bars/011.png,bars/mask003.png,,,,,,,,,,,,7,1,,,,,,,10,6,9,6,,,,,,,,,,,430.522,431.022,431.271,433.334,space,2.06,,433.334,7,68,434.334,434.334,436.168,space,1.823,,0,40,40,40,1,160,85,,,,,,,,
,,60e686b927391d9ac83103f2,001,2023-12-14_07h21.44.739,bars,2023.2.3,Win32,125,,,,,,436.168,437.168,,,437.668,437.918,,143,143,,,,,,,,,,,,,,,,bars/049.png,bars/mask009.png,,,,,,,,,,,,4,1,,,,,,,10,8,10,7,,,,,,,,,,,437.168,437.668,437.918,442.786,space,4.864,,442.786,17,28,443.786,443.786,444.417,space,0.62,,0,41,41,41,1,160,115,,,,,,,,
,,60e686b927391d9ac83103f2,001,2023-12-14_07h21.44.739,bars,2023.2.3,Win32,125,,,,,,444.418,445.418,,,445.917,446.168,,126,126,,,,,,,,,,,,,,,,bars/037.png,bars/mask009.png,,,,,,,,,,,,3,2,,,,,,,8,10,8,10,,,,,,,,,,,445.418,445.917,446.168,447.994,space,1.826,,447.994,24,21,448.994,448.994,449.758,space,0.756,,0,42,42,42,1,150,105,,,,,,,,
,,60e686b927391d9ac83103f2,001,2023-12-14_07h21.44.739,bars,2023.2.3,Win32,125,,,,,,449.758,450.758,,,451.258,451.508,,29,29,,,,,,,,,,,,,,,,bars/013.png,bars/mask002.png,,,,,,,,,,,,3,2,,,,,,,6,8,5,8,,,,,,,,,,,450.758,451.258,451.508,456.578,space,5.068,,456.578,46,19,457.578,457.578,458.383,space,0.795,,0,43,43,43,1,75,10,,,,,,,,
,,60e686b927391d9ac83103f2,001,2023-12-14_07h21.44.739,bars,2023.2.3,Win32,125,,,,,,458.384,459.384,,,459.884,460.134,,5,5,,,,,,,,,,,,,,,,bars/032.png,bars/mask003.png,,,,,,,,,,,,5,2,,,,,,,4,10,3,10,,,,,,,,,,,459.384,459.884,460.134,464.398,space,4.258,,464.398,60,15,465.397,465.397,466.46,space,1.05,,0,44,44,44,1,125,20,,,,,,,,
,,60e686b927391d9ac83103f2,001,2023-12-14_07h21.44.739,bars,2023.2.3,Win32,125,,,,,,466.46,467.46,,,467.961,468.21,,37,217,,,,,,,,,,,,,,,,bars/043.png,bars/mask001.png,,,,,,,,,,,,5,1,,,,,,,6,8,7,8,,,,,,,,,,,467.46,467.961,468.21,472.787,space,4.57,,472.787,7,87,473.787,473.787,474.877,space,1.081,,0,45,45,45,1,30,130,,,,,,,,
,,60e686b927391d9ac83103f2,001,2023-12-14_07h21.44.739,bars,2023.2.3,Win32,125,,,,,,474.877,475.877,,,476.377,476.627,,165,165,,,,,,,,,,,,,,,,bars/008.png,bars/mask002.png,,,,,,,,,,,,3,2,,,,,,,4,6,4,5,,,,,,,,,,,475.877,476.377,476.627,480.426,space,3.798,,480.426,55,15,481.426,481.426,482.065,space,0.631,,0,46,46,46,1,110,0,,,,,,,,
,,60e686b927391d9ac83103f2,001,2023-12-14_07h21.44.739,bars,2023.2.3,Win32,125,,,,,,482.065,483.065,,,483.565,483.815,,148,-32,,,,,,,,,,,,,,,,bars/036.png,bars/mask008.png,,,,,,,,,,,,3,1,,,,,,,2,4,3,4,,,,,,,,,,,483.065,483.565,483.815,487.315,space,3.497,,487.315,3,52,488.315,488.315,488.891,space,0.567,,0,47,47,47,1,145,20,,,,,,,,
,,60e686b927391d9ac83103f2,001,2023-12-14_07h21.44.739,bars,2023.2.3,Win32,125,,,,,,488.891,489.892,,,490.392,490.641,,104,104,,,,,,,,,,,,,,,,bars/029.png,bars/mask003.png,,,,,,,,,,,,0,1,,,,,,,0,2,0,1,,,,,,,,,,,489.892,490.392,490.641,493.884,space,3.241,,493.884,14,59,494.885,494.885,495.288,space,0.395,,0,48,48,48,1,90,45,,,,,,,,
,,60e686b927391d9ac83103f2,001,2023-12-14_07h21.44.739,bars,2023.2.3,Win32,125,,,,,,495.288,496.287,,,496.787,497.038,,153,153,,,,,,,,,,,,,,,,bars/016.png,bars/mask006.png,,,,,,,,,,,,3,2,,,,,,,0,4,0,5,,,,,,,,,,,496.287,496.787,497.038,500.891,space,3.852,,500.891,67,12,501.892,501.892,502.502,space,0.6,,0,49,49,49,1,40,165,,,,,,,,
,,60e686b927391d9ac83103f2,001,2023-12-14_07h21.44.739,bars,2023.2.3,Win32,125,,,,,,,,,,,,,,,,,,,,,,,,,,,,,,,,,,,,,,,,,,,,,,,,,,,,,,,,,,,,,,,,,,,,,,,,,,,,,,,,,,,,,,,,502.504,562.505,0,0,0,2,1,sequence_tables/blk047.csv
,,60e686b927391d9ac83103f2,001,2023-12-14_07h21.44.739,bars,2023.2.3,Win32,125,,,,,,564.097,565.095,,,565.595,565.845,,142,142,,,,,,,,,,,,,,,,bars/018.png,bars/mask003.png,,,,,,,,,,,,5,1,,,,,,,8,3,7,2,,,,,,562.509,564.094,space,1.579,,565.095,565.595,565.845,571.234,space,5.383,,571.234,8,52,572.234,572.234,572.239,,,,0,0,0,0,1,150,90,,,,,,,,
,,60e686b927391d9ac83103f2,001,2023-12-14_07h21.44.739,bars,2023.2.3,Win32,125,,,,,,572.239,573.241,,,573.741,573.991,,90,90,,,,,,,,,,,,,,,,bars/006.png,bars/mask001.png,,,,,,,,,,,,3,2,,,,,,,6,5,6,4,,,,,,,,,,,573.241,573.741,573.991,575.859,space,1.862,,575.859,55,10,576.859,576.859,576.864,,,,0,1,1,1,1,35,100,,,,,,,,
,,60e686b927391d9ac83103f2,001,2023-12-14_07h21.44.739,bars,2023.2.3,Win32,125,,,,,,576.864,577.86,,,578.359,578.61,,57,57,,,,,,,,,,,,,,,,bars/010.png,bars/mask007.png,,,,,,,,,,,,3,2,,,,,,,8,3,8,3,,,,,,,,,,,577.86,578.359,578.61,581.568,space,2.955,,581.568,72,2,582.567,582.567,582.572,,,,0,2,2,2,1,165,55,,,,,,,,
,,60e686b927391d9ac83103f2,001,2023-12-14_07h21.44.739,bars,2023.2.3,Win32,125,,,,,,582.572,583.567,,,584.068,584.318,,136,136,,,,,,,,,,,,,,,,bars/004.png,bars/mask009.png,,,,,,,,,,,,3,2,,,,,,,6,5,5,5,,,,,,,,,,,583.567,584.068,584.318,586.186,space,1.867,,586.186,69,11,587.186,587.186,587.19,,,,0,3,3,3,1,25,125,,,,,,,,
,,60e686b927391d9ac83103f2,001,2023-12-14_07h21.44.739,bars,2023.2.3,Win32,125,,,,,,587.191,588.186,,,588.686,588.936,,47,47,,,,,,,,,,,,,,,,bars/031.png,bars/mask006.png,,,,,,,,,,,,2,2,,,,,,,8,3,9,3,,,,,,,,,,,588.186,588.686,588.936,590.519,space,1.582,,590.519,73,12,591.519,591.519,591.52,,,,0,4,4,4,1,120,35,,,,,,,,
,,60e686b927391d9ac83103f2,001,2023-12-14_07h21.44.739,bars,2023.2.3,Win32,125,,,,,,591.52,592.519,,,593.019,593.27,,145,145,,,,,,,,,,,,,,,,bars/003.png,bars/mask003.png,,,,,,,,,,,,2,2,,,,,,,6,1,6,2,,,,,,,,,,,592.519,593.019,593.27,595.339,space,2.063,,595.339,60,5,596.339,596.339,596.339,,,,0,5,5,5,1,25,140,,,,,,,,
,,60e686b927391d9ac83103f2,001,2023-12-14_07h21.44.739,bars,2023.2.3,Win32,125,,,,,,596.339,597.339,,,597.839,598.089,,39,219,,,,,,,,,,,,,,,,bars/044.png,bars/mask000.png,,,,,,,,,,,,0,1,,,,,,,4,3,3,3,,,,,,,,,,,597.339,597.839,598.089,600.936,space,2.843,,600.936,36,64,601.93,601.93,601.934,,,,0,6,6,6,1,75,155,,,,,,,,
,,60e686b927391d9ac83103f2,001,2023-12-14_07h21.44.739,bars,2023.2.3,Win32,125,,,,,,601.934,602.936,,,603.436,603.686,,41,41,,,,,,,,,,,,,,,,bars/027.png,bars/mask008.png,,,,,,,,,,,,1,2,,,,,,,6,1,7,1,,,,,,,,,,,602.936,603.436,603.686,605.624,space,1.932,,605.624,69,9,606.624,606.624,606.629,,,,0,7,7,7,1,110,50,,,,,,,,
,,60e686b927391d9ac83103f2,001,2023-12-14_07h21.44.739,bars,2023.2.3,Win32,125,,,,,,606.629,607.624,,,608.124,608.374,,15,15,,,,,,,,,,,,,,,,bars/032.png,bars/mask003.png,,,,,,,,,,,,3,2,,,,,,,8,3,9,4,,,,,,,,,,,607.624,608.124,608.374,611.77,space,3.389,,611.77,70,5,612.77,612.77,612.775,,,,0,8,8,8,1,125,20,,,,,,,,
,,60e686b927391d9ac83103f2,001,2023-12-14_07h21.44.739,bars,2023.2.3,Win32,125,,,,,,612.775,613.776,,,614.27,614.52,,102,102,,,,,,,,,,,,,,,,bars/009.png,bars/mask005.png,,,,,,,,,,,,1,2,,,,,,,10,1,8,1,,,,,,,,,,,613.776,614.27,614.52,615.59,space,1.065,,615.59,87,3,616.589,616.589,616.595,,,,0,9,9,9,1,15,105,,,,,,,,
,,60e686b927391d9ac83103f2,001,2023-12-14_07h21.44.739,bars,2023.2.3,Win32,125,,,,,,616.595,617.59,,,618.09,618.34,,172,172,,,,,,,,,,,,,,,,bars/044.png,bars/mask007.png,,,,,,,,,,,,0,2,,,,,,,8,3,7,1,,,,,,,,,,,617.59,618.09,618.34,622.361,space,4.02,,622.361,83,17,623.36,623.36,623.365,,,,0,10,10,10,1,75,155,,,,,,,,
,,60e686b927391d9ac83103f2,001,2023-12-14_07h21.44.739,bars,2023.2.3,Win32,125,,,,,,623.365,624.36,,,624.86,625.111,,106,-74,,,,,,,,,,,,,,,,bars/041.png,bars/mask000.png,,,,,,,,,,,,1,2,,,,,,,10,1,8,2,,,,,,,,,,,624.36,624.86,625.111,628.507,space,3.391,,628.507,86,21,629.507,629.507,629.511,,,,0,11,11,11,1,20,85,,,,,,,,
,,60e686b927391d9ac83103f2,001,2023-12-14_07h21.44.739,bars,2023.2.3,Win32,125,,,,,,629.511,630.506,,,631.006,631.257,,117,117,,,,,,,,,,,,,,,,bars/015.png,bars/mask002.png,,,,,,,,,,,,8,1,,,,,,,10,0,10,0,,,,,,,,,,,630.506,631.006,631.257,634.263,space,3,,634.263,7,43,635.263,635.263,635.269,,,,0,12,12,12,1,110,160,,,,,,,,
,,60e686b927391d9ac83103f2,001,2023-12-14_07h21.44.739,bars,2023.2.3,Win32,125,,,,,,635.269,636.264,,,636.764,637.013,,177,177,,,,,,,,,,,,,,,,bars/018.png,bars/mask000.png,,,,,,,,,,,,1,1,,,,,,,8,2,9,2,,,,,,,,,,,636.264,636.764,637.013,641.896,space,4.881,,641.896,27,87,642.896,642.896,642.9,,,,0,13,13,13,1,150,90,,,,,,,,
,,60e686b927391d9ac83103f2,001,2023-12-14_07h21.44.739,bars,2023.2.3,Win32,125,,,,,,642.9,643.896,,,644.396,644.646,,115,115,,,,,,,,,,,,,,,,bars/029.png,bars/mask005.png,,,,,,,,,,,,1,1,,,,,,,10,4,8,6,,,,,,,,,,,643.896,644.396,644.646,647.278,space,2.631,,647.278,25,70,648.278,648.278,648.282,,,,0,14,14,14,1,90,45,,,,,,,,
,,60e686b927391d9ac83103f2,001,2023-12-14_07h21.44.739,bars,2023.2.3,Win32,125,,,,,,648.282,649.278,,,649.778,650.028,,107,107,,,,,,,,,,,,,,,,bars/032.png,bars/mask003.png,,,,,,,,,,,,3,1,,,,,,,8,6,8,6,,,,,,,,,,,649.278,649.778,650.028,652.097,space,2.063,,652.097,18,87,653.097,653.097,653.102,,,,0,15,15,15,1,125,20,,,,,,,,
,,60e686b927391d9ac83103f2,001,2023-12-14_07h21.44.739,bars,2023.2.3,Win32,125,,,,,,653.102,654.098,,,654.598,654.848,,91,91,,,,,,,,,,,,,,,,bars/022.png,bars/mask004.png,,,,,,,,,,,,9,1,,,,,,,10,8,10,9,,,,,,,,,,,654.098,654.598,654.848,656.653,space,1.801,,656.653,4,71,657.653,657.653,657.653,,,,0,16,16,16,1,95,20,,,,,,,,
,,60e686b927391d9ac83103f2,001,2023-12-14_07h21.44.739,bars,2023.2.3,Win32,125,,,,,,657.654,658.653,,,659.154,659.403,,59,59,,,,,,,,,,,,,,,,bars/033.png,bars/mask002.png,,,,,,,,,,,,0,1,,,,,,,10,10,10,10,,,,,,,,,,,658.653,659.154,659.403,661.931,space,2.523,,661.931,34,84,662.931,662.931,662.936,,,,0,17,17,17,1,25,155,,,,,,,,
,,60e686b927391d9ac83103f2,001,2023-12-14_07h21.44.739,bars,2023.2.3,Win32,125,,,,,,662.936,663.932,,,664.431,664.681,,60,60,,,,,,,,,,,,,,,,bars/044.png,bars/mask007.png,,,,,,,,,,,,5,1,,,,,,,8,8,9,9,,,,,,,,,,,663.932,664.431,664.681,665.827,space,1.145,,665.827,15,85,666.827,666.827,666.832,,,,0,18,18,18,1,75,155,,,,,,,,
,,60e686b927391d9ac83103f2,001,2023-12-14_07h21.44.739,bars,2023.2.3,Win32,125,,,,,,666.832,667.827,,,668.321,668.57,,108,108,,,,,,,,,,,,,,,,bars/044.png,bars/mask004.png,,,,,,,,,,,,0,1,,,,,,,6,10,5,10,,,,,,,,,,,667.827,668.321,668.57,671.376,space,2.799,,671.376,33,47,672.376,672.376,672.381,,,,0,19,19,19,1,75,155,,,,,,,,
,,60e686b927391d9ac83103f2,001,2023-12-14_07h21.44.739,bars,2023.2.3,Win32,125,,,,,,672.381,673.377,,,673.876,674.126,,157,-23,,,,,,,,,,,,,,,,bars/042.png,bars/mask008.png,,,,,,,,,,,,4,1,,,,,,,8,10,7,8,,,,,,,,,,,673.377,673.876,674.126,676.363,space,2.23,,676.363,12,82,677.362,677.362,677.367,,,,0,20,20,20,1,145,75,,,,,,,,
,,60e686b927391d9ac83103f2,001,2023-12-14_07h21.44.739,bars,2023.2.3,Win32,125,,,,,,677.367,678.362,,,678.862,679.112,,52,232,,,,,,,,,,,,,,,,bars/031.png,bars/mask005.png,,,,,,,,,,,,3,2,,,,,,,6,8,5,8,,,,,,,,,,,678.362,678.862,679.112,682.529,space,3.417,,682.529,68,17,683.529,683.529,683.534,,,,0,21,21,21,1,120,35,,,,,,,,
,,60e686b927391d9ac83103f2,001,2023-12-14_07h21.44.739,bars,2023.2.3,Win32,125,,,,,,683.534,684.535,,,685.036,685.286,,11,11,,,,,,,,,,,,,,,,bars/009.png,bars/mask005.png,,,,,,,,,,,,3,1,,,,,,,4,10,3,10,,,,,,,,,,,684.535,685.036,685.286,688.259,space,2.971,,688.259,4,86,689.259,689.259,689.263,,,,0,22,22,22,1,15,105,,,,,,,,
,,60e686b927391d9ac83103f2,001,2023-12-14_07h21.44.739,bars,2023.2.3,Win32,125,,,,,,689.264,690.265,,,690.765,691.015,,156,156,,,,,,,,,,,,,,,,bars/007.png,bars/mask008.png,,,,,,,,,,,,1,1,,,,,,,2,10,2,10,,,,,,,,,,,690.265,690.765,691.015,692.571,space,1.549,,692.571,19,79,693.571,693.571,693.571,,,,0,23,23,23,1,175,55,,,,,,,,
,,60e686b927391d9ac83103f2,001,2023-12-14_07h21.44.739,bars,2023.2.3,Win32,125,,,,,,693.571,694.571,,,695.071,695.321,,59,59,,,,,,,,,,,,,,,,bars/010.png,bars/mask001.png,,,,,,,,,,,,7,2,,,,,,,0,8,0,8,,,,,,,,,,,694.571,695.071,695.321,698.342,space,3.016,,698.342,74,4,699.342,699.342,699.347,,,,0,24,24,24,1,165,55,,,,,,,,
,,60e686b927391d9ac83103f2,001,2023-12-14_07h21.44.739,bars,2023.2.3,Win32,125,,,,,,699.347,700.342,,,700.842,701.092,,154,154,,,,,,,,,,,,,,,,bars/001.png,bars/mask000.png,,,,,,,,,,,,1,1,,,,,,,2,6,3,4,,,,,,,,,,,700.342,700.842,701.092,708.12,space,7.024,,708.12,24,69,709.12,709.12,709.126,,,,0,25,25,25,1,130,85,,,,,,,,
,,60e686b927391d9ac83103f2,001,2023-12-14_07h21.44.739,bars,2023.2.3,Win32,125,,,,,,709.126,710.127,,,710.627,710.877,,78,78,,,,,,,,,,,,,,,,bars/012.png,bars/mask008.png,,,,,,,,,,,,0,1,,,,,,,0,8,0,6,,,,,,,,,,,710.127,710.627,710.877,714.322,space,3.438,,714.322,12,63,715.322,715.322,715.326,,,,0,26,26,26,1,90,15,,,,,,,,
,,60e686b927391d9ac83103f2,001,2023-12-14_07h21.44.739,bars,2023.2.3,Win32,125,,,,,,715.326,716.321,,,716.822,717.072,,163,163,,,,,,,,,,,,,,,,bars/013.png,bars/mask000.png,,,,,,,,,,,,1,2,,,,,,,2,10,4,9,,,,,,,,,,,716.321,716.822,717.072,720.585,space,3.51,,720.585,88,27,721.586,721.586,721.591,,,,0,27,27,27,1,75,10,,,,,,,,
,,60e686b927391d9ac83103f2,001,2023-12-14_07h21.44.739,bars,2023.2.3,Win32,125,,,,,,721.591,722.593,,,723.093,723.342,,65,65,,,,,,,,,,,,,,,,bars/044.png,bars/mask005.png,,,,,,,,,,,,0,1,,,,,,,0,8,0,9,,,,,,,,,,,722.593,723.093,723.343,725.231,space,1.888,,725.231,10,90,726.232,726.232,726.237,,,,0,28,28,28,1,75,155,,,,,,,,
,,60e686b927391d9ac83103f2,001,2023-12-14_07h21.44.739,bars,2023.2.3,Win32,125,,,,,,726.237,727.232,,,727.732,727.981,,141,-39,,,,,,,,,,,,,,,,bars/005.png,bars/mask008.png,,,,,,,,,,,,10,2,,,,,,,0,10,0,10,,,,,,,,,,,727.232,727.732,727.981,730.746,space,2.759,,730.746,49,1,731.746,731.746,731.751,,,,0,29,29,29,1,10,140,,,,,,,,
,,60e686b927391d9ac83103f2,001,2023-12-14_07h21.44.739,bars,2023.2.3,Win32,125,,,,,,731.751,732.753,,,733.252,733.502,,148,-32,,,,,,,,,,,,,,,,bars/046.png,bars/mask007.png,,,,,,,,,,,,0,1,,,,,,,2,8,0,9,,,,,,,,,,,732.753,733.252,733.502,736.183,space,2.677,,736.183,7,63,737.183,737.183,737.188,,,,0,30,30,30,1,155,85,,,,,,,,
,,60e686b927391d9ac83103f2,001,2023-12-14_07h21.44.739,bars,2023.2.3,Win32,125,,,,,,737.188,738.184,,,738.683,738.933,,28,208,,,,,,,,,,,,,,,,bars/036.png,bars/mask002.png,,,,,,,,,,,,4,2,,,,,,,0,6,1,5,,,,,,,,,,,738.184,738.683,738.933,742.267,space,3.327,,742.267,63,8,743.267,743.267,743.272,,,,0,31,31,31,1,145,20,,,,,,,,
,,60e686b927391d9ac83103f2,001,2023-12-14_07h21.44.739,bars,2023.2.3,Win32,125,,,,,,743.272,744.267,,,744.767,745.017,,161,-19,,,,,,,,,,,,,,,,bars/005.png,bars/mask008.png,,,,,,,,,,,,1,2,,,,,,,2,4,2,3,,,,,,,,,,,744.267,744.767,745.017,747.871,space,2.852,,747.871,29,21,748.871,748.871,748.876,,,,0,32,32,32,1,10,140,,,,,,,,
,,60e686b927391d9ac83103f2,001,2023-12-14_07h21.44.739,bars,2023.2.3,Win32,125,,,,,,748.876,749.872,,,750.371,750.622,,38,218,,,,,,,,,,,,,,,,bars/025.png,bars/mask005.png,,,,,,,,,,,,2,2,,,,,,,4,2,4,2,,,,,,,,,,,749.872,750.371,750.622,754.774,space,4.147,,754.774,67,2,755.774,755.774,755.778,,,,0,33,33,33,1,105,40,,,,,,,,
,,60e686b927391d9ac83103f2,001,2023-12-14_07h21.44.739,bars,2023.2.3,Win32,125,,,,,,755.779,756.774,,,757.275,757.524,,173,173,,,,,,,,,,,,,,,,bars/039.png,bars/mask003.png,,,,,,,,,,,,5,1,,,,,,,6,0,5,1,,,,,,,,,,,756.774,757.275,757.524,761.066,space,3.541,,761.066,2,68,762.066,762.066,762.071,,,,0,34,34,34,1,175,105,,,,,,,,
,,60e686b927391d9ac83103f2,001,2023-12-14_07h21.44.739,bars,2023.2.3,Win32,125,,,,,,762.071,763.066,,,763.566,763.817,,52,232,,,,,,,,,,,,,,,,bars/016.png,bars/mask009.png,,,,,,,,,,,,1,1,,,,,,,4,2,2,4,,,,,,,,,,,763.066,763.566,763.817,767.483,space,3.661,,767.483,12,67,768.483,768.483,768.488,,,,0,35,35,35,1,40,165,,,,,,,,
,,60e686b927391d9ac83103f2,001,2023-12-14_07h21.44.739,bars,2023.2.3,Win32,125,,,,,,768.488,769.483,,,769.983,770.233,,45,225,,,,,,,,,,,,,,,,bars/000.png,bars/mask003.png,,,,,,,,,,,,2,1,,,,,,,2,4,2,4,,,,,,,,,,,769.483,769.983,770.233,772.844,space,2.606,,772.844,5,80,773.844,773.844,773.848,,,,0,36,36,36,1,40,145,,,,,,,,
,,60e686b927391d9ac83103f2,001,2023-12-14_07h21.44.739,bars,2023.2.3,Win32,125,,,,,,773.848,774.844,,,775.344,775.594,,30,30,,,,,,,,,,,,,,,,bars/008.png,bars/mask009.png,,,,,,,,,,,,0,2,,,,,,,4,2,4,3,,,,,,,,,,,774.844,775.344,775.594,778.025,space,2.423,,778.025,80,30,779.024,779.024,779.026,,,,0,37,37,37,1,110,0,,,,,,,,
,,60e686b927391d9ac83103f2,001,2023-12-14_07h21.44.739,bars,2023.2.3,Win32,125,,,,,,779.026,780.025,,,780.525,780.775,,175,-5,,,,,,,,,,,,,,,,bars/018.png,bars/mask007.png,,,,,,,,,,,,1,1,,,,,,,6,4,6,5,,,,,,,,,,,780.025,780.525,780.775,783.754,space,2.975,,783.754,25,85,784.754,784.754,784.76,,,,0,38,38,38,1,150,90,,,,,,,,
,,60e686b927391d9ac83103f2,001,2023-12-14_07h21.44.739,bars,2023.2.3,Win32,125,,,,,,784.76,785.755,,,786.254,786.504,,110,-70,,,,,,,,,,,,,,,,bars/009.png,bars/mask001.png,,,,,,,,,,,,6,2,,,,,,,4,6,6,7,,,,,,,,,,,785.755,786.254,786.504,790.414,space,3.908,,790.414,85,5,791.414,791.414,791.419,,,,0,39,39,39,1,15,105,,,,,,,,
,,60e686b927391d9ac83103f2,001,2023-12-14_07h21.44.739,bars,2023.2.3,Win32,125,,,,,,791.419,792.414,,,792.914,793.164,,26,206,,,,,,,,,,,,,,,,bars/014.png,bars/mask005.png,,,,,,,,,,,,1,2,,,,,,,6,4,7,4,,,,,,,,,,,792.414,792.914,793.164,796.713,space,3.549,,796.713,54,26,797.713,797.713,797.717,,,,0,40,40,40,1,80,0,,,,,,,,
,,60e686b927391d9ac83103f2,001,2023-12-14_07h21.44.739,bars,2023.2.3,Win32,125,,,,,,797.717,798.713,,,799.213,799.463,,126,126,,,,,,,,,,,,,,,,bars/003.png,bars/mask003.png,,,,,,,,,,,,1,2,,,,,,,4,2,5,1,,,,,,,,,,,798.713,799.213,799.463,801.755,space,2.289,,801.755,79,14,802.755,802.755,802.755,,,,0,41,41,41,1,25,140,,,,,,,,
,,60e686b927391d9ac83103f2,001,2023-12-14_07h21.44.739,bars,2023.2.3,Win32,125,,,,,,802.755,803.755,,,804.255,804.505,,66,66,,,,,,,,,,,,,,,,bars/025.png,bars/mask006.png,,,,,,,,,,,,1,2,,,,,,,2,4,3,4,,,,,,,,,,,803.755,804.255,804.505,806.47,space,1.961,,806.47,39,26,807.47,807.47,807.474,,,,0,42,42,42,1,105,40,,,,,,,,
,,60e686b927391d9ac83103f2,001,2023-12-14_07h21.44.739,bars,2023.2.3,Win32,125,,,,,,807.474,808.47,,,808.971,809.221,,26,206,,,,,,,,,,,,,,,,bars/047.png,bars/mask007.png,,,,,,,,,,,,3,1,,,,,,,4,2,5,1,,,,,,,,,,,808.47,808.971,809.221,812.873,space,3.646,,812.873,11,44,813.873,813.873,813.878,,,,0,43,43,43,1,15,70,,,,,,,,
,,60e686b927391d9ac83103f2,001,2023-12-14_07h21.44.739,bars,2023.2.3,Win32,125,,,,,,813.878,814.873,,,815.374,815.623,,167,-13,,,,,,,,,,,,,,,,bars/007.png,bars/mask004.png,,,,,,,,,,,,4,1,,,,,,,6,0,5,0,,,,,,,,,,,814.873,815.374,815.623,818.88,space,3.256,,818.88,8,68,819.881,819.881,819.884,,,,0,44,44,44,1,175,55,,,,,,,,
,,60e686b927391d9ac83103f2,001,2023-12-14_07h21.44.739,bars,2023.2.3,Win32,125,,,,,,819.885,820.88,,,821.381,821.63,,138,-42,,,,,,,,,,,,,,,,bars/002.png,bars/mask007.png,,,,,,,,,,,,7,1,,,,,,,8,0,9,0,,,,,,,,,,,820.88,821.381,821.63,823.88,space,2.244,,823.88,8,53,824.881,824.881,824.881,,,,0,45,45,45,1,130,85,,,,,,,,
,,60e686b927391d9ac83103f2,001,2023-12-14_07h21.44.739,bars,2023.2.3,Win32,125,,,,,,824.881,825.88,,,826.38,826.631,,103,103,,,,,,,,,,,,,,,,bars/045.png,bars/mask009.png,,,,,,,,,,,,7,1,,,,,,,6,0,8,0,,,,,,,,,,,825.88,826.38,826.631,829.103,space,2.471,,829.103,3,87,830.103,830.103,830.107,,,,0,46,46,46,1,100,10,,,,,,,,
,,60e686b927391d9ac83103f2,001,2023-12-14_07h21.44.739,bars,2023.2.3,Win32,125,,,,,,830.107,831.103,,,831.603,831.852,,122,122,,,,,,,,,,,,,,,,bars/015.png,bars/mask005.png,,,,,,,,,,,,5,1,,,,,,,8,2,8,3,,,,,,,,,,,831.103,831.603,831.852,834.715,space,2.854,,834.715,12,38,835.714,835.715,835.718,,,,0,47,47,47,1,110,160,,,,,,,,
,,60e686b927391d9ac83103f2,001,2023-12-14_07h21.44.739,bars,2023.2.3,Win32,125,,,,,,835.718,836.714,,,837.214,837.464,,53,53,,,,,,,,,,,,,,,,bars/033.png,bars/mask003.png,,,,,,,,,,,,1,1,,,,,,,10,4,10,3,,,,,,,,,,,836.714,837.214,837.464,840.569,space,3.102,,840.569,28,78,841.568,841.568,841.573,,,,0,48,48,48,1,25,155,,,,,,,,
,,60e686b927391d9ac83103f2,001,2023-12-14_07h21.44.739,bars,2023.2.3,Win32,125,,,,,,841.573,842.575,,,843.075,843.325,,111,111,,,,,,,,,,,,,,,,bars/029.png,bars/mask002.png,,,,,,,,,,,,3,1,,,,,,,10,2,10,2,,,,,,,,,,,842.575,843.075,843.325,846.471,space,3.141,,846.471,21,66,847.471,847.471,847.476,,,,0,49,49,49,1,90,45,,,,,,,,
,,60e686b927391d9ac83103f2,001,2023-12-14_07h21.44.739,bars,2023.2.3,Win32,125,,,,,,,,,,,,,,,,,,,,,,,,,,,,,,,,,,,,,,,,,,,,,,,,,,,,,,,,,,,,,,,,,,,,,,,,,,,,,,,,,,,,,,,,847.476,907.473,0,1,1,0,1,sequence_tables/blk046.csv
,,60e686b927391d9ac83103f2,001,2023-12-14_07h21.44.739,bars,2023.2.3,Win32,125,,,,,,917.369,918.362,,,918.862,919.113,,60,60,,,,,,,,,,,,,,,,bars/028.png,bars/mask003.png,,,,,,,,,,,,2,1,,,,,,,2,7,4,8,,,,,,907.478,917.362,space,9.882,,918.362,918.862,919.113,921.245,space,2.129,,921.245,15,60,922.245,922.245,922.249,,,,0,0,0,0,1,45,120,,,,,,,,
,,60e686b927391d9ac83103f2,001,2023-12-14_07h21.44.739,bars,2023.2.3,Win32,125,,,,,,922.249,923.245,,,923.745,923.995,,171,-9,,,,,,,,,,,,,,,,bars/044.png,bars/mask000.png,,,,,,,,,,,,2,2,,,,,,,4,5,3,5,,,,,,,,,,,923.245,923.745,923.995,926.495,space,2.494,,926.495,84,16,927.495,927.495,927.499,,,,0,1,1,1,1,75,155,,,,,,,,
,,60e686b927391d9ac83103f2,001,2023-12-14_07h21.44.739,bars,2023.2.3,Win32,125,,,,,,927.5,928.501,,,929.001,929.252,,109,109,,,,,,,,,,,,,,,,bars/020.png,bars/mask003.png,,,,,,,,,,,,6,1,,,,,,,6,7,7,8,,,,,,,,,,,928.501,929.001,929.252,931.696,space,2.439,,931.696,6,61,932.696,932.696,932.701,,,,0,2,2,2,1,115,170,,,,,,,,
,,60e686b927391d9ac83103f2,001,2023-12-14_07h21.44.739,bars,2023.2.3,Win32,125,,,,,,932.701,933.696,,,934.196,934.446,,56,56,,,,,,,,,,,,,,,,bars/026.png,bars/mask002.png,,,,,,,,,,,,2,1,,,,,,,8,5,7,5,,,,,,,,,,,933.696,934.196,934.446,937.523,space,3.075,,937.523,21,29,938.523,938.523,938.527,,,,0,3,3,3,1,35,85,,,,,,,,
,,60e686b927391d9ac83103f2,001,2023-12-14_07h21.44.739,bars,2023.2.3,Win32,125,,,,,,938.527,939.523,,,940.023,940.272,,73,253,,,,,,,,,,,,,,,,bars/002.png,bars/mask009.png,,,,,,,,,,,,1,2,,,,,,,6,3,6,2,,,,,,,,,,,939.523,940.023,940.272,944.266,space,3.99,,944.266,57,12,945.266,945.266,945.271,,,,0,4,4,4,1,130,85,,,,,,,,
,,60e686b927391d9ac83103f2,001,2023-12-14_07h21.44.739,bars,2023.2.3,Win32,125,,,,,,945.271,946.273,,,946.773,947.023,,150,-30,,,,,,,,,,,,,,,,bars/036.png,bars/mask009.png,,,,,,,,,,,,3,1,,,,,,,4,5,4,6,,,,,,,,,,,946.273,946.773,947.023,949.46,space,2.43,,949.46,5,50,950.46,950.46,950.465,,,,0,5,5,5,1,145,20,,,,,,,,
,,60e686b927391d9ac83103f2,001,2023-12-14_07h21.44.739,bars,2023.2.3,Win32,125,,,,,,950.465,951.46,,,951.961,952.211,,113,113,,,,,,,,,,,,,,,,bars/013.png,bars/mask007.png,,,,,,,,,,,,0,1,,,,,,,2,3,3,3,,,,,,,,,,,951.46,951.961,952.211,953.488,space,1.271,,953.488,38,77,954.489,954.489,954.489,,,,0,6,6,6,1,75,10,,,,,,,,
,,60e686b927391d9ac83103f2,001,2023-12-14_07h21.44.739,bars,2023.2.3,Win32,125,,,,,,954.489,955.489,,,955.988,956.238,,166,-14,,,,,,,,,,,,,,,,bars/014.png,bars/mask002.png,,,,,,,,,,,,1,2,,,,,,,4,1,6,2,,,,,,,,,,,955.489,955.988,956.238,958.648,space,2.402,,958.648,86,14,959.648,959.648,959.654,,,,0,7,7,7,1,80,0,,,,,,,,
,,60e686b927391d9ac83103f2,001,2023-12-14_07h21.44.739,bars,2023.2.3,Win32,125,,,,,,959.654,960.655,,,961.156,961.405,,23,23,,,,,,,,,,,,,,,,bars/022.png,bars/mask005.png,,,,,,,,,,,,4,2,,,,,,,6,3,5,4,,,,,,,,,,,960.655,961.156,961.405,966.183,space,4.773,,966.183,72,3,967.183,967.183,967.188,,,,0,8,8,8,1,95,20,,,,,,,,
,,60e686b927391d9ac83103f2,001,2023-12-14_07h21.44.739,bars,2023.2.3,Win32,125,,,,,,967.188,968.183,,,968.683,968.933,,55,55,,,,,,,,,,,,,,,,bars/047.png,bars/mask007.png,,,,,,,,,,,,3,2,,,,,,,8,5,7,5,,,,,,,,,,,968.183,968.683,968.933,970.225,space,1.286,,970.225,40,15,971.225,971.225,971.226,,,,0,9,9,9,1,15,70,,,,,,,,
,,60e686b927391d9ac83103f2,001,2023-12-14_07h21.44.739,bars,2023.2.3,Win32,125,,,,,,971.226,972.225,,,972.725,972.975,,67,67,,,,,,,,,,,,,,,,bars/014.png,bars/mask001.png,,,,,,,,,,,,6,1,,,,,,,10,3,10,4,,,,,,,,,,,972.225,972.725,972.975,975.218,space,2.241,,975.218,13,67,976.218,976.218,976.223,,,,0,10,10,10,1,80,0,,,,,,,,
,,60e686b927391d9ac83103f2,001,2023-12-14_07h21.44.739,bars,2023.2.3,Win32,125,,,,,,976.223,977.225,,,977.719,977.968,,165,165,,,,,,,,,,,,,,,,bars/021.png,bars/mask006.png,,,,,,,,,,,,7,1,,,,,,,10,1,10,4,,,,,,,,,,,977.225,977.719,977.968,979.864,space,1.893,,979.864,10,85,980.864,980.864,980.864,,,,0,11,11,11,1,155,70,,,,,,,,
,,60e686b927391d9ac83103f2,001,2023-12-14_07h21.44.739,bars,2023.2.3,Win32,125,,,,,,980.864,981.864,,,982.364,982.614,,47,47,,,,,,,,,,,,,,,,bars/006.png,bars/mask001.png,,,,,,,,,,,,6,1,,,,,,,10,3,10,3,,,,,,,,,,,981.865,982.364,982.614,985.344,space,2.729,,985.344,12,53,986.344,986.344,986.348,,,,0,12,12,12,1,35,100,,,,,,,,
,,60e686b927391d9ac83103f2,001,2023-12-14_07h21.44.739,bars,2023.2.3,Win32,125,,,,,,986.348,987.343,,,987.843,988.094,,128,128,,,,,,,,,,,,,,,,bars/025.png,bars/mask001.png,,,,,,,,,,,,1,1,,,,,,,8,5,6,3,,,,,,,,,,,987.343,987.843,988.094,991.094,space,2.997,,991.094,23,88,992.093,992.093,992.099,,,,0,13,13,13,1,105,40,,,,,,,,
,,60e686b927391d9ac83103f2,001,2023-12-14_07h21.44.739,bars,2023.2.3,Win32,125,,,,,,992.099,993.101,,,993.601,993.85,,151,151,,,,,,,,,,,,,,,,bars/042.png,bars/mask009.png,,,,,,,,,,,,8,1,,,,,,,10,7,10,8,,,,,,,,,,,993.101,993.601,993.85,995.76,space,1.908,,995.76,6,76,996.754,996.754,996.754,,,,0,14,14,14,1,145,75,,,,,,,,
,,60e686b927391d9ac83103f2,001,2023-12-14_07h21.44.739,bars,2023.2.3,Win32,125,,,,,,996.754,997.754,,,998.253,998.504,,115,115,,,,,,,,,,,,,,,,bars/024.png,bars/mask005.png,,,,,,,,,,,,6,1,,,,,,,8,5,7,4,,,,,,,,,,,997.754,998.253,998.504,1001.649,space,3.144,,1001.649,5,55,1002.649,1002.649,1002.654,,,,0,15,15,15,1,120,170,,,,,,,,
,,60e686b927391d9ac83103f2,001,2023-12-14_07h21.44.739,bars,2023.2.3,Win32,125,,,,,,1002.654,1003.65,,,1004.15,1004.399,,108,108,,,,,,,,,,,,,,,,bars/013.png,bars/mask008.png,,,,,,,,,,,,0,1,,,,,,,6,3,5,5,,,,,,,,,,,1003.65,1004.15,1004.399,1006.962,space,2.56,,1006.962,33,82,1007.962,1007.962,1007.967,,,,0,16,16,16,1,75,10,,,,,,,,
,,60e686b927391d9ac83103f2,001,2023-12-14_07h21.44.739,bars,2023.2.3,Win32,125,,,,,,1007.967,1008.962,,,1009.462,1009.712,,107,107,,,,,,,,,,,,,,,,bars/015.png,bars/mask001.png,,,,,,,,,,,,7,1,,,,,,,8,5,8,5,,,,,,,,,,,1008.962,1009.462,1009.712,1012.567,space,2.852,,1012.567,3,53,1013.566,1013.566,1013.571,,,,0,17,17,17,1,110,160,,,,,,,,
,,60e686b927391d9ac83103f2,001,2023-12-14_07h21.44.739,bars,2023.2.3,Win32,125,,,,,,1013.571,1014.566,,,1015.067,1015.316,,154,154,,,,,,,,,,,,,,,,bars/042.png,bars/mask006.png,,,,,,,,,,,,5,1,,,,,,,6,3,7,3,,,,,,,,,,,1014.566,1015.067,1015.316,1017.032,space,1.709,,1017.032,9,79,1018.032,1018.032,1018.037,,,,0,18,18,18,1,145,75,,,,,,,,
,,60e686b927391d9ac83103f2,001,2023-12-14_07h21.44.739,bars,2023.2.3,Win32,125,,,,,,1018.037,1019.032,,,1019.532,1019.782,,55,55,,,,,,,,,,,,,,,,bars/016.png,bars/mask009.png,,,,,,,,,,,,5,1,,,,,,,8,1,9,1,,,,,,,,,,,1019.032,1019.532,1019.782,1022.053,space,2.268,,1022.053,15,70,1023.053,1023.053,1023.053,,,,0,19,19,19,1,40,165,,,,,,,,
,,60e686b927391d9ac83103f2,001,2023-12-14_07h21.44.739,bars,2023.2.3,Win32,125,,,,,,1023.053,1024.053,,,1024.553,1024.803,,39,39,,,,,,,,,,,,,,,,bars/043.png,bars/mask004.png,,,,,,,,,,,,7,1,,,,,,,10,0,10,0,,,,,,,,,,,1024.053,1024.553,1024.803,1026.087,space,1.278,,1026.087,9,89,1027.088,1027.088,1027.088,,,,0,20,20,20,1,30,130,,,,,,,,
,,60e686b927391d9ac83103f2,001,2023-12-14_07h21.44.739,bars,2023.2.3,Win32,125,,,,,,1027.088,1028.087,,,1028.587,1028.838,,38,38,,,,,,,,,,,,,,,,bars/043.png,bars/mask002.png,,,,,,,,,,,,4,1,,,,,,,8,0,6,0,,,,,,,,,,,1028.087,1028.587,1028.838,1030.352,space,1.511,,1030.352,8,88,1031.351,1031.351,1031.351,,,,0,21,21,21,1,30,130,,,,,,,,
,,60e686b927391d9ac83103f2,001,2023-12-14_07h21.44.739,bars,2023.2.3,Win32,125,,,,,,1031.352,1032.352,,,1032.851,1033.102,,118,118,,,,,,,,,,,,,,,,bars/045.png,bars/mask004.png,,,,,,,,,,,,3,1,,,,,,,6,0,7,0,,,,,,,,,,,1032.352,1032.851,1033.102,1036.581,space,3.478,,1036.581,18,72,1037.581,1037.581,1037.585,,,,0,22,22,22,1,100,10,,,,,,,,
,,60e686b927391d9ac83103f2,001,2023-12-14_07h21.44.739,bars,2023.2.3,Win32,125,,,,,,1037.585,1038.581,,,1039.081,1039.331,,120,120,,,,,,,,,,,,,,,,bars/021.png,bars/mask001.png,,,,,,,,,,,,0,1,,,,,,,4,2,2,1,,,,,,,,,,,1038.581,1039.081,1039.331,1042.567,space,3.235,,1042.567,35,50,1043.567,1043.567,1043.572,,,,0,23,23,23,1,155,70,,,,,,,,
,,60e686b927391d9ac83103f2,001,2023-12-14_07h21.44.739,bars,2023.2.3,Win32,125,,,,,,1043.572,1044.567,,,1045.067,1045.317,,176,176,,,,,,,,,,,,,,,,bars/018.png,bars/mask008.png,,,,,,,,,,,,0,1,,,,,,,2,4,0,4,,,,,,,,,,,1044.567,1045.067,1045.317,1050.005,space,4.685,,1050.005,26,86,1051.005,1051.005,1051.01,,,,0,24,24,24,1,150,90,,,,,,,,
,,60e686b927391d9ac83103f2,001,2023-12-14_07h21.44.739,bars,2023.2.3,Win32,125,,,,,,1051.01,1052.005,,,1052.506,1052.755,,148,148,,,,,,,,,,,,,,,,bars/048.png,bars/mask004.png,,,,,,,,,,,,1,2,,,,,,,0,6,0,6,,,,,,,,,,,1052.005,1052.506,1052.755,1054.297,space,1.539,,1054.297,82,27,1055.297,1055.297,1055.298,,,,0,25,25,25,1,50,175,,,,,,,,
,,60e686b927391d9ac83103f2,001,2023-12-14_07h21.44.739,bars,2023.2.3,Win32,125,,,,,,1055.298,1056.297,,,1056.797,1057.047,,163,163,,,,,,,,,,,,,,,,bars/000.png,bars/mask006.png,,,,,,,,,,,,3,2,,,,,,,2,8,3,8,,,,,,,,,,,1056.297,1056.797,1057.047,1062.429,space,5.378,,1062.429,57,18,1063.429,1063.429,1063.434,,,,0,26,26,26,1,40,145,,,,,,,,
,,60e686b927391d9ac83103f2,001,2023-12-14_07h21.44.739,bars,2023.2.3,Win32,125,,,,,,1063.434,1064.429,,,1064.929,1065.179,,69,69,,,,,,,,,,,,,,,,bars/011.png,bars/mask001.png,,,,,,,,,,,,3,2,,,,,,,0,6,0,6,,,,,,,,,,,1064.429,1064.929,1065.179,1068.318,space,3.135,,1068.318,89,16,1069.318,1069.318,1069.322,,,,0,27,27,27,1,160,85,,,,,,,,
,,60e686b927391d9ac83103f2,001,2023-12-14_07h21.44.739,bars,2023.2.3,Win32,125,,,,,,1069.322,1070.318,,,1070.818,1071.068,,71,71,,,,,,,,,,,,,,,,bars/042.png,bars/mask005.png,,,,,,,,,,,,7,2,,,,,,,0,8,0,8,,,,,,,,,,,1070.318,1070.818,1071.068,1073.797,space,2.723,,1073.797,74,4,1074.797,1074.797,1074.802,,,,0,28,28,28,1,145,75,,,,,,,,
,,60e686b927391d9ac83103f2,001,2023-12-14_07h21.44.739,bars,2023.2.3,Win32,125,,,,,,1074.802,1075.798,,,1076.297,1076.548,,101,101,,,,,,,,,,,,,,,,bars/018.png,bars/mask008.png,,,,,,,,,,,,4,2,,,,,,,2,6,2,7,,,,,,,,,,,1075.798,1076.297,1076.548,1078.826,space,2.273,,1078.826,49,11,1079.825,1079.825,1079.83,,,,0,29,29,29,1,150,90,,,,,,,,
,,60e686b927391d9ac83103f2,001,2023-12-14_07h21.44.739,bars,2023.2.3,Win32,125,,,,,,1079.83,1080.825,,,1081.326,1081.576,,46,46,,,,,,,,,,,,,,,,bars/023.png,bars/mask002.png,,,,,,,,,,,,0,1,,,,,,,0,8,0,10,,,,,,,,,,,1080.825,1081.325,1081.576,1084.59,space,3.008,,1084.59,26,69,1085.589,1085.589,1085.595,,,,0,30,30,30,1,20,115,,,,,,,,
,,60e686b927391d9ac83103f2,001,2023-12-14_07h21.44.739,bars,2023.2.3,Win32,125,,,,,,1085.595,1086.59,,,1087.09,1087.339,,124,124,,,,,,,,,,,,,,,,bars/045.png,bars/mask005.png,,,,,,,,,,,,0,1,,,,,,,0,6,0,6,,,,,,,,,,,1086.59,1087.09,1087.339,1088.763,space,1.421,,1088.763,24,66,1089.763,1089.763,1089.768,,,,0,31,31,31,1,100,10,,,,,,,,
,,60e686b927391d9ac83103f2,001,2023-12-14_07h21.44.739,bars,2023.2.3,Win32,125,,,,,,1089.769,1090.771,,,1091.27,1091.52,,171,-9,,,,,,,,,,,,,,,,bars/033.png,bars/mask008.png,,,,,,,,,,,,3,2,,,,,,,2,8,3,7,,,,,,,,,,,1090.771,1091.27,1091.52,1094.909,space,3.387,,1094.909,34,16,1095.91,1095.91,1095.914,,,,0,32,32,32,1,25,155,,,,,,,,
,,60e686b927391d9ac83103f2,001,2023-12-14_07h21.44.739,bars,2023.2.3,Win32,125,,,,,,1095.914,1096.909,,,1097.409,1097.659,,66,66,,,,,,,,,,,,,,,,bars/017.png,bars/mask003.png,,,,,,,,,,,,3,2,,,,,,,4,10,2,10,,,,,,,,,,,1096.909,1097.409,1097.659,1098.77,space,1.109,,1098.77,79,21,1099.771,1099.771,1099.775,,,,0,33,33,33,1,145,45,,,,,,,,
,,60e686b927391d9ac83103f2,001,2023-12-14_07h21.44.739,bars,2023.2.3,Win32,125,,,,,,1099.775,1100.771,,,1101.27,1101.521,,69,69,,,,,,,,,,,,,,,,bars/014.png,bars/mask000.png,,,,,,,,,,,,4,1,,,,,,,6,10,7,8,,,,,,,,,,,1100.771,1101.27,1101.521,1105.423,space,3.901,,1105.423,11,69,1106.423,1106.423,1106.428,,,,0,34,34,34,1,80,0,,,,,,,,
,,60e686b927391d9ac83103f2,001,2023-12-14_07h21.44.739,bars,2023.2.3,Win32,125,,,,,,1106.428,1107.423,,,1107.923,1108.174,,74,74,,,,,,,,,,,,,,,,bars/046.png,bars/mask005.png,,,,,,,,,,,,6,2,,,,,,,8,8,9,9,,,,,,,,,,,1107.423,1107.923,1108.174,1111.972,space,3.792,,1111.972,81,11,1112.973,1112.973,1112.977,,,,0,35,35,35,1,155,85,,,,,,,,
,,60e686b927391d9ac83103f2,001,2023-12-14_07h21.44.739,bars,2023.2.3,Win32,125,,,,,,1112.977,1113.972,,,1114.472,1114.722,,98,98,,,,,,,,,,,,,,,,bars/027.png,bars/mask001.png,,,,,,,,,,,,4,1,,,,,,,6,10,7,10,,,,,,,,,,,1113.972,1114.472,1114.722,1117.257,space,2.531,,1117.257,12,48,1118.258,1118.258,1118.262,,,,0,36,36,36,1,110,50,,,,,,,,
,,60e686b927391d9ac83103f2,001,2023-12-14_07h21.44.739,bars,2023.2.3,Win32,125,,,,,,1118.262,1119.257,,,1119.757,1120.008,,156,156,,,,,,,,,,,,,,,,bars/001.png,bars/mask004.png,,,,,,,,,,,,1,1,,,,,,,8,8,9,8,,,,,,,,,,,1119.257,1119.757,1120.008,1124.098,space,4.085,,1124.098,26,71,1125.097,1125.097,1125.102,,,,0,37,37,37,1,130,85,,,,,,,,
,,60e686b927391d9ac83103f2,001,2023-12-14_07h21.44.739,bars,2023.2.3,Win32,125,,,,,,1125.103,1126.098,,,1126.598,1126.847,,48,48,,,,,,,,,,,,,,,,bars/006.png,bars/mask007.png,,,,,,,,,,,,6,1,,,,,,,10,10,10,10,,,,,,,,,,,1126.098,1126.598,1126.847,1128.355,space,1.504,,1128.355,13,52,1129.355,1129.355,1129.355,,,,0,38,38,38,1,35,100,,,,,,,,
,,60e686b927391d9ac83103f2,001,2023-12-14_07h21.44.739,bars,2023.2.3,Win32,125,,,,,,1129.355,1130.355,,,1130.855,1131.105,,73,73,,,,,,,,,,,,,,,,bars/002.png,bars/mask005.png,,,,,,,,,,,,6,2,,,,,,,10,10,10,10,,,,,,,,,,,1130.355,1130.855,1131.105,1133.396,space,2.285,,1133.396,57,12,1134.397,1134.397,1134.401,,,,0,39,39,39,1,130,85,,,,,,,,
,,60e686b927391d9ac83103f2,001,2023-12-14_07h21.44.739,bars,2023.2.3,Win32,125,,,,,,1134.402,1135.404,,,1135.903,1136.153,,131,131,,,,,,,,,,,,,,,,bars/020.png,bars/mask000.png,,,,,,,,,,,,3,1,,,,,,,8,8,7,7,,,,,,,,,,,1135.404,1135.903,1136.153,1138.327,space,2.173,,1138.327,16,39,1139.328,1139.328,1139.328,,,,0,40,40,40,1,115,170,,,,,,,,
,,60e686b927391d9ac83103f2,001,2023-12-14_07h21.44.739,bars,2023.2.3,Win32,125,,,,,,1139.328,1140.327,,,1140.827,1141.077,,102,102,,,,,,,,,,,,,,,,bars/037.png,bars/mask007.png,,,,,,,,,,,,5,2,,,,,,,10,6,10,5,,,,,,,,,,,1140.327,1140.827,1141.077,1142.57,space,1.488,,1142.57,48,3,1143.571,1143.571,1143.576,,,,0,41,41,41,1,150,105,,,,,,,,
,,60e686b927391d9ac83103f2,001,2023-12-14_07h21.44.739,bars,2023.2.3,Win32,125,,,,,,1143.576,1144.577,,,1145.077,1145.327,,132,132,,,,,,,,,,,,,,,,bars/039.png,bars/mask002.png,,,,,,,,,,,,1,2,,,,,,,8,8,7,7,,,,,,,,,,,1144.577,1145.077,1145.327,1146.994,space,1.666,,1146.994,43,27,1147.995,1147.995,1147.999,,,,0,42,42,42,1,175,105,,,,,,,,
,,60e686b927391d9ac83103f2,001,2023-12-14_07h21.44.739,bars,2023.2.3,Win32,125,,,,,,1147.999,1148.994,,,1149.495,1149.744,,22,22,,,,,,,,,,,,,,,,bars/035.png,bars/mask005.png,,,,,,,,,,,,0,1,,,,,,,6,6,4,5,,,,,,,,,,,1148.994,1149.495,1149.744,1154.098,space,4.349,,1154.098,27,38,1155.098,1155.098,1155.103,,,,0,43,43,43,1,175,60,,,,,,,,
,,60e686b927391d9ac83103f2,001,2023-12-14_07h21.44.739,bars,2023.2.3,Win32,125,,,,,,1155.103,1156.099,,,1156.599,1156.849,,107,107,,,,,,,,,,,,,,,,bars/009.png,bars/mask003.png,,,,,,,,,,,,4,2,,,,,,,8,4,7,4,,,,,,,,,,,1156.099,1156.599,1156.849,1161.077,space,4.226,,1161.077,88,2,1162.078,1162.078,1162.083,,,,0,44,44,44,1,15,105,,,,,,,,
,,60e686b927391d9ac83103f2,001,2023-12-14_07h21.44.739,bars,2023.2.3,Win32,125,,,,,,1162.083,1163.078,,,1163.577,1163.827,,50,50,,,,,,,,,,,,,,,,bars/016.png,bars/mask002.png,,,,,,,,,,,,7,1,,,,,,,10,6,10,6,,,,,,,,,,,1163.078,1163.577,1163.827,1166.043,space,2.208,,1166.043,10,65,1167.043,1167.043,1167.044,,,,0,45,45,45,1,40,165,,,,,,,,
,,60e686b927391d9ac83103f2,001,2023-12-14_07h21.44.739,bars,2023.2.3,Win32,125,,,,,,1167.044,1168.043,,,1168.544,1168.793,,69,249,,,,,,,,,,,,,,,,bars/014.png,bars/mask001.png,,,,,,,,,,,,4,1,,,,,,,8,4,7,5,,,,,,,,,,,1168.043,1168.544,1168.793,1172.05,space,3.252,,1172.051,11,69,1173.051,1173.051,1173.054,,,,0,46,46,46,1,80,0,,,,,,,,
,,60e686b927391d9ac83103f2,001,2023-12-14_07h21.44.739,bars,2023.2.3,Win32,125,,,,,,1173.054,1174.051,,,1174.55,1174.8,,115,115,,,,,,,,,,,,,,,,bars/015.png,bars/mask008.png,,,,,,,,,,,,8,1,,,,,,,10,6,10,5,,,,,,,,,,,1174.051,1174.55,1174.8,1176.349,space,1.546,,1176.349,5,45,1177.349,1177.349,1177.349,,,,0,47,47,47,1,110,160,,,,,,,,
,,60e686b927391d9ac83103f2,001,2023-12-14_07h21.44.739,bars,2023.2.3,Win32,125,,,,,,1177.349,1178.35,,,1178.849,1179.099,,98,98,,,,,,,,,,,,,,,,bars/037.png,bars/mask009.png,,,,,,,,,,,,6,2,,,,,,,8,8,7,8,,,,,,,,,,,1178.35,1178.849,1179.099,1180.857,space,1.752,,1180.857,52,7,1181.856,1181.856,1181.861,,,,0,48,48,48,1,150,105,,,,,,,,
,,60e686b927391d9ac83103f2,001,2023-12-14_07h21.44.739,bars,2023.2.3,Win32,125,,,,,,1181.861,1182.863,,,1183.363,1183.607,,112,112,,,,,,,,,,,,,,,,bars/044.png,bars/mask009.png,,,,,,,,,,,,0,1,,,,,,,6,10,7,10,,,,,,,,,,,1182.863,1183.363,1183.607,1185.543,space,1.934,,1185.543,37,43,1186.544,1186.544,1186.549,,,,0,49,49,49,1,75,155,,,,,,,,
,,60e686b927391d9ac83103f2,001,2023-12-14_07h21.44.739,bars,2023.2.3,Win32,125,,,,,,,,,,,,,,,,,,,,,,,,,,,,,,,,,,,,,,,,,,,,,,,,,,,,,,,,,,,,,,,,,,,,,,,,,,,,,,,,,,,,,,,,1186.549,1246.545,0,2,2,3,1,sequence_tables/blk009.csv
,,60e686b927391d9ac83103f2,001,2023-12-14_07h21.44.739,bars,2023.2.3,Win32,125,,,,,,1275.351,1276.345,,,1276.845,1277.095,,25,25,,,,,,,,,,,,,,,,bars/012.png,bars/mask001.png,,,,,,,,,,,,5,2,,,,,,,5,8,5,7,,,,,,1246.551,1275.345,space,28.789,,1276.345,1276.845,1277.095,1278.65,space,1.551,,1278.65,65,10,1279.651,1279.651,1279.656,,,,0,0,0,0,1,90,15,,,,,,,,
,,60e686b927391d9ac83103f2,001,2023-12-14_07h21.44.739,bars,2023.2.3,Win32,125,,,,,,1279.656,1280.657,,,1281.158,1281.408,,67,67,,,,,,,,,,,,,,,,bars/034.png,bars/mask001.png,,,,,,,,,,,,7,2,,,,,,,3,6,4,8,,,,,,,,,,,1280.657,1281.158,1281.408,1283.394,space,1.98,,1283.394,58,2,1284.394,1284.394,1284.399,,,,0,1,1,1,1,125,65,,,,,,,,
,,60e686b927391d9ac83103f2,001,2023-12-14_07h21.44.739,bars,2023.2.3,Win32,125,,,,,,1284.399,1285.394,,,1285.894,1286.143,,17,17,,,,,,,,,,,,,,,,bars/013.png,bars/mask002.png,,,,,,,,,,,,7,2,,,,,,,5,8,5,9,,,,,,,,,,,1285.394,1285.894,1286.143,1290.547,space,4.399,,1290.547,58,7,1291.547,1291.547,1291.551,,,,0,2,2,2,1,75,10,,,,,,,,
,,60e686b927391d9ac83103f2,001,2023-12-14_07h21.44.739,bars,2023.2.3,Win32,125,,,,,,1291.551,1292.547,,,1293.047,1293.297,,143,143,,,,,,,,,,,,,,,,bars/049.png,bars/mask009.png,,,,,,,,,,,,3,1,,,,,,,7,6,7,5,,,,,,,,,,,1292.547,1293.047,1293.297,1295.491,space,2.193,,1295.491,17,28,1296.491,1296.491,1296.497,,,,0,3,3,3,1,160,115,,,,,,,,
,,60e686b927391d9ac83103f2,001,2023-12-14_07h21.44.739,bars,2023.2.3,Win32,125,,,,,,1296.497,1297.491,,,1297.992,1298.241,,145,145,,,,,,,,,,,,,,,,bars/046.png,bars/mask000.png,,,,,,,,,,,,5,1,,,,,,,9,4,8,2,,,,,,,,,,,1297.492,1297.992,1298.241,1302.7,space,4.457,,1302.7,10,60,1303.7,1303.7,1303.705,,,,0,4,4,4,1,155,85,,,,,,,,
,,60e686b927391d9ac83103f2,001,2023-12-14_07h21.44.739,bars,2023.2.3,Win32,125,,,,,,1303.705,1304.7,,,1305.2,1305.45,,38,38,,,,,,,,,,,,,,,,bars/016.png,bars/mask006.png,,,,,,,,,,,,7,1,,,,,,,7,6,8,4,,,,,,,,,,,1304.7,1305.2,1305.45,1307.054,space,1.602,,1307.054,2,53,1308.054,1308.054,1308.059,,,,0,5,5,5,1,40,165,,,,,,,,
,,60e686b927391d9ac83103f2,001,2023-12-14_07h21.44.739,bars,2023.2.3,Win32,125,,,,,,1308.059,1309.054,,,1309.555,1309.804,,141,141,,,,,,,,,,,,,,,,bars/027.png,bars/mask006.png,,,,,,,,,,,,0,1,,,,,,,9,8,9,7,,,,,,,,,,,1309.054,1309.555,1309.804,1313.929,space,4.124,,1313.929,31,89,1314.93,1314.93,1314.934,,,,0,6,6,6,1,110,50,,,,,,,,
,,60e686b927391d9ac83103f2,001,2023-12-14_07h21.44.739,bars,2023.2.3,Win32,125,,,,,,1314.934,1315.929,,,1316.43,1316.68,,149,149,,,,,,,,,,,,,,,,bars/015.png,bars/mask006.png,,,,,,,,,,,,6,2,,,,,,,7,10,7,10,,,,,,,,,,,1315.929,1316.43,1316.68,1320.458,space,3.771,,1320.458,39,11,1321.458,1321.458,1321.462,,,,0,7,7,7,1,110,160,,,,,,,,
,,60e686b927391d9ac83103f2,001,2023-12-14_07h21.44.739,bars,2023.2.3,Win32,125,,,,,,1321.462,1322.457,,,1322.957,1323.207,,69,69,,,,,,,,,,,,,,,,bars/046.png,bars/mask006.png,,,,,,,,,,,,4,2,,,,,,,5,10,4,9,,,,,,,,,,,1322.457,1322.957,1323.207,1325.881,space,2.667,,1325.881,86,16,1326.881,1326.881,1326.886,,,,0,8,8,8,1,155,85,,,,,,,,
,,60e686b927391d9ac83103f2,001,2023-12-14_07h21.44.739,bars,2023.2.3,Win32,125,,,,,,1326.886,1327.889,,,1328.388,1328.638,,31,31,,,,,,,,,,,,,,,,bars/022.png,bars/mask007.png,,,,,,,,,,,,5,2,,,,,,,7,8,7,8,,,,,,,,,,,1327.889,1328.388,1328.638,1330.256,space,1.617,,1330.256,64,11,1331.256,1331.256,1331.257,,,,0,9,9,9,1,95,20,,,,,,,,
,,60e686b927391d9ac83103f2,001,2023-12-14_07h21.44.739,bars,2023.2.3,Win32,125,,,,,,1331.257,1332.256,,,1332.756,1333.007,,29,29,,,,,,,,,,,,,,,,bars/020.png,bars/mask001.png,,,,,,,,,,,,0,2,,,,,,,9,6,10,6,,,,,,,,,,,1332.256,1332.756,1333.007,1336.736,space,3.724,,1336.736,86,39,1337.735,1337.735,1337.74,,,,0,10,10,10,1,115,170,,,,,,,,
,,60e686b927391d9ac83103f2,001,2023-12-14_07h21.44.739,bars,2023.2.3,Win32,125,,,,,,1337.74,1338.735,,,1339.236,1339.486,,28,28,,,,,,,,,,,,,,,,bars/043.png,bars/mask001.png,,,,,,,,,,,,9,1,,,,,,,10,8,10,7,,,,,,,,,,,1338.735,1339.236,1339.486,1341.028,space,1.539,,1341.028,2,78,1342.028,1342.028,1342.032,,,,0,11,11,11,1,30,130,,,,,,,,
,,60e686b927391d9ac83103f2,001,2023-12-14_07h21.44.739,bars,2023.2.3,Win32,125,,,,,,1342.032,1343.028,,,1343.527,1343.777,,18,18,,,,,,,,,,,,,,,,bars/004.png,bars/mask005.png,,,,,,,,,,,,8,1,,,,,,,8,10,10,10,,,,,,,,,,,1343.028,1343.527,1343.777,1345.215,space,1.434,,1345.215,7,73,1346.215,1346.215,1346.215,,,,0,12,12,12,1,25,125,,,,,,,,
,,60e686b927391d9ac83103f2,001,2023-12-14_07h21.44.739,bars,2023.2.3,Win32,125,,,,,,1346.215,1347.216,,,1347.715,1347.966,,107,107,,,,,,,,,,,,,,,,bars/002.png,bars/mask001.png,,,,,,,,,,,,2,2,,,,,,,6,8,7,8,,,,,,,,,,,1347.216,1347.715,1347.966,1350.153,space,2.181,,1350.153,23,22,1351.153,1351.153,1351.153,,,,0,13,13,13,1,130,85,,,,,,,,
,,60e686b927391d9ac83103f2,001,2023-12-14_07h21.44.739,bars,2023.2.3,Win32,125,,,,,,1351.153,1352.153,,,1352.653,1352.903,,160,160,,,,,,,,,,,,,,,,bars/046.png,bars/mask003.png,,,,,,,,,,,,1,1,,,,,,,4,10,1,10,,,,,,,,,,,1352.153,1352.653,1352.903,1356.438,space,3.529,,1356.438,5,75,1357.437,1357.437,1357.442,,,,0,14,14,14,1,155,85,,,,,,,,
,,60e686b927391d9ac83103f2,001,2023-12-14_07h21.44.739,bars,2023.2.3,Win32,125,,,,,,1357.442,1358.438,,,1358.938,1359.187,,69,69,,,,,,,,,,,,,,,,bars/048.png,bars/mask000.png,,,,,,,,,,,,3,1,,,,,,,6,8,7,7,,,,,,,,,,,1358.438,1358.938,1359.187,1361.674,space,2.482,,1361.674,19,74,1362.674,1362.674,1362.679,,,,0,15,15,15,1,50,175,,,,,,,,
,,60e686b927391d9ac83103f2,001,2023-12-14_07h21.44.739,bars,2023.2.3,Win32,125,,,,,,1362.679,1363.674,,,1364.174,1364.424,,58,58,,,,,,,,,,,,,,,,bars/026.png,bars/mask007.png,,,,,,,,,,,,1,1,,,,,,,4,6,3,5,,,,,,,,,,,1363.674,1364.174,1364.424,1366.383,space,1.953,,1366.383,23,27,1367.382,1367.382,1367.387,,,,0,16,16,16,1,35,85,,,,,,,,
,,60e686b927391d9ac83103f2,001,2023-12-14_07h21.44.739,bars,2023.2.3,Win32,125,,,,,,1367.387,1368.382,,,1368.883,1369.133,,154,154,,,,,,,,,,,,,,,,bars/038.png,bars/mask001.png,,,,,,,,,,,,4,1,,,,,,,6,8,6,8,,,,,,,,,,,1368.382,1368.883,1369.133,1371.168,space,2.035,,1371.168,11,84,1372.167,1372.167,1372.172,,,,0,17,17,17,1,165,70,,,,,,,,
,,60e686b927391d9ac83103f2,001,2023-12-14_07h21.44.739,bars,2023.2.3,Win32,125,,,,,,1372.172,1373.168,,,1373.667,1373.918,,39,39,,,,,,,,,,,,,,,,bars/009.png,bars/mask008.png,,,,,,,,,,,,1,1,,,,,,,8,10,6,8,,,,,,,,,,,1373.168,1373.667,1373.918,1376.98,space,3.056,,1376.98,24,66,1377.98,1377.98,1377.984,,,,0,18,18,18,1,15,105,,,,,,,,
,,60e686b927391d9ac83103f2,001,2023-12-14_07h21.44.739,bars,2023.2.3,Win32,125,,,,,,1377.984,1378.98,,,1379.48,1379.73,,149,149,,,,,,,,,,,,,,,,bars/004.png,bars/mask003.png,,,,,,,,,,,,2,2,,,,,,,6,8,6,9,,,,,,,,,,,1378.98,1379.48,1379.73,1384.216,space,4.484,,1384.216,56,24,1385.216,1385.216,1385.221,,,,0,19,19,19,1,25,125,,,,,,,,
,,60e686b927391d9ac83103f2,001,2023-12-14_07h21.44.739,bars,2023.2.3,Win32,125,,,,,,1385.221,1386.217,,,1386.716,1386.96,,0,180,,,,,,,,,,,,,,,,bars/033.png,bars/mask006.png,,,,,,,,,,,,2,2,,,,,,,4,10,5,10,,,,,,,,,,,1386.217,1386.716,1386.96,1388.209,space,1.247,,1388.209,25,25,1389.209,1389.209,1389.209,,,,0,20,20,20,1,25,155,,,,,,,,
,,60e686b927391d9ac83103f2,001,2023-12-14_07h21.44.739,bars,2023.2.3,Win32,125,,,,,,1389.21,1390.21,,,1390.709,1390.96,,168,-12,,,,,,,,,,,,,,,,bars/033.png,bars/mask001.png,,,,,,,,,,,,5,2,,,,,,,2,10,1,9,,,,,,,,,,,1390.21,1390.709,1390.96,1393.787,space,2.82,,1393.787,37,13,1394.786,1394.786,1394.791,,,,0,21,21,21,1,25,155,,,,,,,,
,,60e686b927391d9ac83103f2,001,2023-12-14_07h21.44.739,bars,2023.2.3,Win32,125,,,,,,1394.791,1395.786,,,1396.28,1396.53,,48,48,,,,,,,,,,,,,,,,bars/043.png,bars/mask009.png,,,,,,,,,,,,2,1,,,,,,,4,8,4,8,,,,,,,,,,,1395.786,1396.28,1396.53,1398.98,space,2.445,,1398.98,18,82,1399.981,1399.981,1399.986,,,,0,22,22,22,1,30,130,,,,,,,,
,,60e686b927391d9ac83103f2,001,2023-12-14_07h21.44.739,bars,2023.2.3,Win32,125,,,,,,1399.986,1400.988,,,1401.488,1401.738,,71,71,,,,,,,,,,,,,,,,bars/013.png,bars/mask007.png,,,,,,,,,,,,4,1,,,,,,,6,6,5,6,,,,,,,,,,,1400.988,1401.488,1401.738,1402.911,space,1.168,,1402.911,4,61,1403.912,1403.912,1403.912,,,,0,23,23,23,1,75,10,,,,,,,,
,,60e686b927391d9ac83103f2,001,2023-12-14_07h21.44.739,bars,2023.2.3,Win32,125,,,,,,1403.912,1404.911,,,1405.411,1405.662,,145,145,,,,,,,,,,,,,,,,bars/049.png,bars/mask006.png,,,,,,,,,,,,1,1,,,,,,,4,8,2,10,,,,,,,,,,,1404.912,1405.411,1405.662,1412.717,space,7.05,,1412.717,15,30,1413.717,1413.717,1413.722,,,,0,24,24,24,1,160,115,,,,,,,,
,,60e686b927391d9ac83103f2,001,2023-12-14_07h21.44.739,bars,2023.2.3,Win32,125,,,,,,1413.723,1414.725,,,1415.224,1415.474,,161,161,,,,,,,,,,,,,,,,bars/036.png,bars/mask007.png,,,,,,,,,,,,3,1,,,,,,,6,10,6,10,,,,,,,,,,,1414.725,1415.224,1415.474,1420.988,space,5.512,,1420.988,16,39,1421.988,1421.988,1421.993,,,,0,25,25,25,1,145,20,,,,,,,,
,,60e686b927391d9ac83103f2,001,2023-12-14_07h21.44.739,bars,2023.2.3,Win32,125,,,,,,1421.993,1422.988,,,1423.489,1423.739,,175,-5,,,,,,,,,,,,,,,,bars/033.png,bars/mask002.png,,,,,,,,,,,,3,2,,,,,,,4,10,4,9,,,,,,,,,,,1422.988,1423.489,1423.739,1427.114,space,3.373,,1427.114,30,20,1428.114,1428.114,1428.118,,,,0,26,26,26,1,25,155,,,,,,,,
,,60e686b927391d9ac83103f2,001,2023-12-14_07h21.44.739,bars,2023.2.3,Win32,125,,,,,,1428.118,1429.114,,,1429.613,1429.863,,26,206,,,,,,,,,,,,,,,,bars/035.png,bars/mask003.png,,,,,,,,,,,,0,1,,,,,,,6,8,6,8,,,,,,,,,,,1429.114,1429.613,1429.863,1433.6,space,3.729,,1433.6,31,34,1434.6,1434.6,1434.606,,,,0,27,27,27,1,175,60,,,,,,,,
,,60e686b927391d9ac83103f2,001,2023-12-14_07h21.44.739,bars,2023.2.3,Win32,125,,,,,,1434.606,1435.606,,,1436.107,1436.357,,151,151,,,,,,,,,,,,,,,,bars/030.png,bars/mask004.png,,,,,,,,,,,,6,1,,,,,,,8,6,9,7,,,,,,,,,,,1435.606,1436.107,1436.357,1437.635,space,1.271,,1437.635,11,86,1438.634,1438.634,1438.635,,,,0,28,28,28,1,140,65,,,,,,,,
,,60e686b927391d9ac83103f2,001,2023-12-14_07h21.44.739,bars,2023.2.3,Win32,125,,,,,,1438.635,1439.635,,,1440.135,1440.384,,101,101,,,,,,,,,,,,,,,,bars/040.png,bars/mask009.png,,,,,,,,,,,,0,1,,,,,,,10,8,9,8,,,,,,,,,,,1439.635,1440.135,1440.384,1441.295,space,0.904,,1441.295,39,84,1442.295,1442.295,1442.295,,,,0,29,29,29,1,140,5,,,,,,,,
,,60e686b927391d9ac83103f2,001,2023-12-14_07h21.44.739,bars,2023.2.3,Win32,125,,,,,,1442.295,1443.294,,,1443.794,1444.044,,147,147,,,,,,,,,,,,,,,,bars/043.png,bars/mask004.png,,,,,,,,,,,,4,2,,,,,,,8,10,7,10,,,,,,,,,,,1443.294,1443.794,1444.044,1449.309,space,5.26,,1449.309,63,17,1450.309,1450.309,1450.314,,,,0,30,30,30,1,30,130,,,,,,,,
,,60e686b927391d9ac83103f2,001,2023-12-14_07h21.44.739,bars,2023.2.3,Win32,125,,,,,,1450.314,1451.315,,,1451.816,1452.065,,121,121,,,,,,,,,,,,,,,,bars/008.png,bars/mask002.png,,,,,,,,,,,,6,1,,,,,,,10,10,9,10,,,,,,,,,,,1451.315,1451.816,1452.065,1455.531,space,3.461,,1455.531,11,59,1456.531,1456.531,1456.536,,,,0,31,31,31,1,110,0,,,,,,,,
,,60e686b927391d9ac83103f2,001,2023-12-14_07h21.44.739,bars,2023.2.3,Win32,125,,,,,,1456.536,1457.531,,,1458.031,1458.281,,159,159,,,,,,,,,,,,,,,,bars/020.png,bars/mask003.png,,,,,,,,,,,,5,2,,,,,,,10,10,10,8,,,,,,,,,,,1457.531,1458.031,1458.281,1461.705,space,3.421,,1461.705,44,11,1462.704,1462.704,1462.71,,,,0,32,32,32,1,115,170,,,,,,,,
,,60e686b927391d9ac83103f2,001,2023-12-14_07h21.44.739,bars,2023.2.3,Win32,125,,,,,,1462.71,1463.712,,,1464.212,1464.462,,149,149,,,,,,,,,,,,,,,,bars/044.png,bars/mask000.png,,,,,,,,,,,,8,2,,,,,,,8,8,7,10,,,,,,,,,,,1463.712,1464.212,1464.462,1466.684,space,2.216,,1466.684,74,6,1467.684,1467.684,1467.689,,,,0,33,33,33,1,75,155,,,,,,,,
,,60e686b927391d9ac83103f2,001,2023-12-14_07h21.44.739,bars,2023.2.3,Win32,125,,,,,,1467.689,1468.691,,,1469.191,1469.441,,151,151,,,,,,,,,,,,,,,,bars/003.png,bars/mask004.png,,,,,,,,,,,,4,2,,,,,,,6,6,8,6,,,,,,,,,,,1468.691,1469.191,1469.441,1471.045,space,1.597,,1471.045,54,11,1472.045,1472.045,1472.045,,,,0,34,34,34,1,25,140,,,,,,,,
,,60e686b927391d9ac83103f2,001,2023-12-14_07h21.44.739,bars,2023.2.3,Win32,125,,,,,,1472.045,1473.046,,,1473.546,1473.795,,146,146,,,,,,,,,,,,,,,,bars/015.png,bars/mask000.png,,,,,,,,,,,,5,2,,,,,,,4,8,3,9,,,,,,,,,,,1473.046,1473.546,1473.795,1477.934,space,4.134,,1477.934,36,14,1478.934,1478.934,1478.939,,,,0,35,35,35,1,110,160,,,,,,,,
,,60e686b927391d9ac83103f2,001,2023-12-14_07h21.44.739,bars,2023.2.3,Win32,125,,,,,,1478.939,1479.935,,,1480.434,1480.684,,168,168,,,,,,,,,,,,,,,,bars/049.png,bars/mask006.png,,,,,,,,,,,,6,1,,,,,,,6,6,8,5,,,,,,,,,,,1479.935,1480.434,1480.684,1482.851,space,2.161,,1482.851,8,53,1483.851,1483.851,1483.852,,,,0,36,36,36,1,160,115,,,,,,,,
,,60e686b927391d9ac83103f2,001,2023-12-14_07h21.44.739,bars,2023.2.3,Win32,125,,,,,,1483.852,1484.851,,,1485.351,1485.601,,105,-75,,,,,,,,,,,,,,,,bars/025.png,bars/mask004.png,,,,,,,,,,,,4,1,,,,,,,4,8,4,10,,,,,,,,,,,1484.851,1485.351,1485.601,1488.97,space,3.362,,1488.97,0,65,1489.97,1489.97,1489.974,,,,0,37,37,37,1,105,40,,,,,,,,
,,60e686b927391d9ac83103f2,001,2023-12-14_07h21.44.739,bars,2023.2.3,Win32,125,,,,,,1489.974,1490.969,,,1491.469,1491.719,,24,24,,,,,,,,,,,,,,,,bars/041.png,bars/mask006.png,,,,,,,,,,,,3,1,,,,,,,2,6,3,5,,,,,,,,,,,1490.969,1491.469,1491.719,1492.893,space,1.171,,1492.893,4,61,1493.893,1493.893,1493.893,,,,0,38,38,38,1,20,85,,,,,,,,
,,60e686b927391d9ac83103f2,001,2023-12-14_07h21.44.739,bars,2023.2.3,Win32,125,,,,,,1493.893,1494.893,,,1495.393,1495.643,,117,117,,,,,,,,,,,,,,,,bars/004.png,bars/mask005.png,,,,,,,,,,,,2,2,,,,,,,0,4,0,3,,,,,,,,,,,1494.893,1495.393,1495.643,1497.817,space,2.166,,1497.817,88,8,1498.817,1498.817,1498.821,,,,0,39,39,39,1,25,125,,,,,,,,
,,60e686b927391d9ac83103f2,001,2023-12-14_07h21.44.739,bars,2023.2.3,Win32,125,,,,,,1498.821,1499.817,,,1500.317,1500.567,,111,111,,,,,,,,,,,,,,,,bars/005.png,bars/mask007.png,,,,,,,,,,,,0,2,,,,,,,2,2,1,2,,,,,,,,,,,1499.817,1500.317,1500.567,1503.025,space,2.452,,1503.025,79,29,1504.026,1504.026,1504.03,,,,0,40,40,40,1,10,140,,,,,,,,
,,60e686b927391d9ac83103f2,001,2023-12-14_07h21.44.739,bars,2023.2.3,Win32,125,,,,,,1504.03,1505.025,,,1505.525,1505.776,,156,156,,,,,,,,,,,,,,,,bars/039.png,bars/mask004.png,,,,,,,,,,,,1,1,,,,,,,4,4,4,3,,,,,,,,,,,1505.025,1505.525,1505.776,1509.332,space,3.554,,1509.332,19,51,1510.331,1510.331,1510.336,,,,0,41,41,41,1,175,105,,,,,,,,
,,60e686b927391d9ac83103f2,001,2023-12-14_07h21.44.739,bars,2023.2.3,Win32,125,,,,,,1510.336,1511.338,,,1511.838,1512.088,,78,78,,,,,,,,,,,,,,,,bars/011.png,bars/mask005.png,,,,,,,,,,,,4,2,,,,,,,2,6,3,5,,,,,,,,,,,1511.339,1511.838,1512.088,1514.929,space,2.841,,1514.929,82,7,1515.929,1515.929,1515.934,,,,0,42,42,42,1,160,85,,,,,,,,
,,60e686b927391d9ac83103f2,001,2023-12-14_07h21.44.739,bars,2023.2.3,Win32,125,,,,,,1515.934,1516.935,,,1517.436,1517.685,,46,226,,,,,,,,,,,,,,,,bars/010.png,bars/mask004.png,,,,,,,,,,,,2,2,,,,,,,0,4,0,3,,,,,,,,,,,1516.935,1517.436,1517.685,1520.609,space,2.917,,1520.609,61,9,1521.609,1521.609,1521.614,,,,0,43,43,43,1,165,55,,,,,,,,
,,60e686b927391d9ac83103f2,001,2023-12-14_07h21.44.739,bars,2023.2.3,Win32,125,,,,,,1521.614,1522.609,,,1523.11,1523.36,,46,226,,,,,,,,,,,,,,,,bars/029.png,bars/mask002.png,,,,,,,,,,,,2,2,,,,,,,2,2,0,2,,,,,,,,,,,1522.609,1523.11,1523.36,1526.762,space,3.399,,1526.762,44,1,1527.762,1527.762,1527.767,,,,0,44,44,44,1,90,45,,,,,,,,
,,60e686b927391d9ac83103f2,001,2023-12-14_07h21.44.739,bars,2023.2.3,Win32,125,,,,,,1527.767,1528.762,,,1529.262,1529.512,,56,236,,,,,,,,,,,,,,,,bars/033.png,bars/mask001.png,,,,,,,,,,,,0,1,,,,,,,4,0,5,1,,,,,,,,,,,1528.762,1529.262,1529.512,1534.221,space,4.703,,1534.221,31,81,1535.22,1535.22,1535.226,,,,0,45,45,45,1,25,155,,,,,,,,
,,60e686b927391d9ac83103f2,001,2023-12-14_07h21.44.739,bars,2023.2.3,Win32,125,,,,,,1535.226,1536.221,,,1536.721,1536.97,,121,121,,,,,,,,,,,,,,,,bars/039.png,bars/mask002.png,,,,,,,,,,,,0,2,,,,,,,2,0,2,1,,,,,,,,,,,1536.221,1536.721,1536.97,1539.7,space,2.723,,1539.7,54,16,1540.7,1540.7,1540.705,,,,0,46,46,46,1,175,105,,,,,,,,
,,60e686b927391d9ac83103f2,001,2023-12-14_07h21.44.739,bars,2023.2.3,Win32,125,,,,,,1540.705,1541.7,,,1542.2,1542.45,,26,26,,,,,,,,,,,,,,,,bars/041.png,bars/mask004.png,,,,,,,,,,,,1,1,,,,,,,0,2,1,2,,,,,,,,,,,1541.7,1542.2,1542.45,1544.728,space,2.274,,1544.728,6,59,1545.728,1545.728,1545.733,,,,0,47,47,47,1,20,85,,,,,,,,
,,60e686b927391d9ac83103f2,001,2023-12-14_07h21.44.739,bars,2023.2.3,Win32,125,,,,,,1545.733,1546.735,,,1547.235,1547.485,,171,-9,,,,,,,,,,,,,,,,bars/047.png,bars/mask003.png,,,,,,,,,,,,0,1,,,,,,,2,0,2,0,,,,,,,,,,,1546.735,1547.235,1547.485,1550.819,space,3.329,,1550.819,24,79,1551.818,1551.818,1551.823,,,,0,48,48,48,1,15,70,,,,,,,,
,,60e686b927391d9ac83103f2,001,2023-12-14_07h21.44.739,bars,2023.2.3,Win32,125,,,,,,1551.823,1552.819,,,1553.319,1553.568,,12,192,,,,,,,,,,,,,,,,bars/023.png,bars/mask003.png,,,,,,,,,,,,3,1,,,,,,,4,0,4,0,,,,,,,,,,,1552.819,1553.319,1553.568,1555.93,space,2.358,,1555.93,8,77,1556.93,1556.93,1556.934,,,,0,49,49,49,1,20,115,,,,,,,,
,,60e686b927391d9ac83103f2,001,2023-12-14_07h21.44.739,bars,2023.2.3,Win32,125,,,,,,,,,,,,,,,,,,,,,,,,,,,,,,,,,,,,,,,,,,,,,,,,,,,,,,,,,,,,,,,,,,,,,,,,,,,,,,,,,,,,,,,,1556.934,1616.932,0,3,3,1,1,sequence_tables/blk001.csv
,,60e686b927391d9ac83103f2,001,2023-12-14_07h21.44.739,bars,2023.2.3,Win32,125,,,,,,1619.482,1620.48,,,1620.98,1621.23,,67,67,,,,,,,,,,,,,,,,bars/021.png,bars/mask007.png,,,,,,,,,,,,5,2,,,,,,,2,4,2,5,,,,,,1616.937,1619.48,space,2.537,,1620.48,1620.98,1621.23,1623.515,space,2.279,,1623.515,88,3,1624.509,1624.509,1624.509,,,,0,0,0,0,1,155,70,,,,,,,,
,,60e686b927391d9ac83103f2,001,2023-12-14_07h21.44.739,bars,2023.2.3,Win32,125,,,,,,1624.509,1625.508,,,1626.008,1626.258,,158,158,,,,,,,,,,,,,,,,bars/024.png,bars/mask006.png,,,,,,,,,,,,4,2,,,,,,,4,6,4,7,,,,,,,,,,,1625.508,1626.008,1626.258,1627.869,space,1.606,,1627.87,38,12,1628.87,1628.87,1628.87,,,,0,1,1,1,1,120,170,,,,,,,,
,,60e686b927391d9ac83103f2,001,2023-12-14_07h21.44.739,bars,2023.2.3,Win32,125,,,,,,1628.87,1629.87,,,1630.369,1630.619,,28,28,,,,,,,,,,,,,,,,bars/003.png,bars/mask000.png,,,,,,,,,,,,5,1,,,,,,,6,8,5,8,,,,,,,,,,,1629.87,1630.369,1630.619,1632.307,space,1.686,,1632.307,3,68,1633.307,1633.307,1633.312,,,,0,2,2,2,1,25,140,,,,,,,,
,,60e686b927391d9ac83103f2,001,2023-12-14_07h21.44.739,bars,2023.2.3,Win32,125,,,,,,1633.312,1634.307,,,1634.807,1635.057,,146,-34,,,,,,,,,,,,,,,,bars/032.png,bars/mask003.png,,,,,,,,,,,,1,1,,,,,,,4,6,2,7,,,,,,,,,,,1634.307,1634.807,1635.057,1637.273,space,2.211,,1637.273,21,54,1638.272,1638.272,1638.277,,,,0,3,3,3,1,125,20,,,,,,,,
,,60e686b927391d9ac83103f2,001,2023-12-14_07h21.44.739,bars,2023.2.3,Win32,125,,,,,,1638.277,1639.272,,,1639.772,1640.023,,153,153,,,,,,,,,,,,,,,,bars/031.png,bars/mask008.png,,,,,,,,,,,,0,1,,,,,,,6,4,6,4,,,,,,,,,,,1639.272,1639.772,1640.023,1644.362,space,4.336,,1644.362,33,62,1645.363,1645.363,1645.367,,,,0,4,4,4,1,120,35,,,,,,,,
,,60e686b927391d9ac83103f2,001,2023-12-14_07h21.44.739,bars,2023.2.3,Win32,125,,,,,,1645.367,1646.362,,,1646.863,1647.113,,104,104,,,,,,,,,,,,,,,,bars/009.png,bars/mask003.png,,,,,,,,,,,,3,2,,,,,,,8,2,9,3,,,,,,,,,,,1646.362,1646.863,1647.113,1650.426,space,3.312,,1650.426,89,1,1651.426,1651.426,1651.431,,,,0,5,5,5,1,15,105,,,,,,,,
,,60e686b927391d9ac83103f2,001,2023-12-14_07h21.44.739,bars,2023.2.3,Win32,125,,,,,,1651.431,1652.432,,,1652.932,1653.182,,138,138,,,,,,,,,,,,,,,,bars/049.png,bars/mask006.png,,,,,,,,,,,,2,1,,,,,,,6,0,7,0,,,,,,,,,,,1652.432,1652.932,1653.182,1655.773,space,2.584,,1655.773,22,23,1656.773,1656.773,1656.778,,,,0,6,6,6,1,160,115,,,,,,,,
,,60e686b927391d9ac83103f2,001,2023-12-14_07h21.44.739,bars,2023.2.3,Win32,125,,,,,,1656.778,1657.773,,,1658.273,1658.523,,102,102,,,,,,,,,,,,,,,,bars/047.png,bars/mask005.png,,,,,,,,,,,,0,2,,,,,,,4,2,4,2,,,,,,,,,,,1657.773,1658.273,1658.523,1660.134,space,1.609,,1660.134,87,32,1661.135,1661.135,1661.139,,,,0,7,7,7,1,15,70,,,,,,,,
,,60e686b927391d9ac83103f2,001,2023-12-14_07h21.44.739,bars,2023.2.3,Win32,125,,,,,,1661.139,1662.135,,,1662.635,1662.884,,62,62,,,,,,,,,,,,,,,,bars/016.png,bars/mask003.png,,,,,,,,,,,,1,1,,,,,,,2,4,2,5,,,,,,,,,,,1662.135,1662.635,1662.884,1664.072,space,1.183,,1664.072,22,77,1665.072,1665.072,1665.077,,,,0,8,8,8,1,40,165,,,,,,,,
,,60e686b927391d9ac83103f2,001,2023-12-14_07h21.44.739,bars,2023.2.3,Win32,125,,,,,,1665.077,1666.072,,,1666.572,1666.822,,54,54,,,,,,,,,,,,,,,,bars/019.png,bars/mask005.png,,,,,,,,,,,,4,1,,,,,,,4,2,5,2,,,,,,,,,,,1666.072,1666.572,1666.822,1669.1,space,2.278,,1669.1,9,51,1670.1,1670.1,1670.104,,,,0,9,9,9,1,45,105,,,,,,,,
,,60e686b927391d9ac83103f2,001,2023-12-14_07h21.44.739,bars,2023.2.3,Win32,125,,,,,,1670.105,1671.1,,,1671.6,1671.849,,112,112,,,,,,,,,,,,,,,,bars/025.png,bars/mask001.png,,,,,,,,,,,,7,1,,,,,,,6,4,9,4,,,,,,,,,,,1671.1,1671.6,1671.849,1673.724,space,1.87,,1673.724,7,72,1674.725,1674.725,1674.725,,,,0,10,10,10,1,105,40,,,,,,,,
,,60e686b927391d9ac83103f2,001,2023-12-14_07h21.44.739,bars,2023.2.3,Win32,125,,,,,,1674.725,1675.724,,,1676.225,1676.475,,60,60,,,,,,,,,,,,,,,,bars/014.png,bars/mask004.png,,,,,,,,,,,,3,1,,,,,,,8,2,8,0,,,,,,,,,,,1675.724,1676.225,1676.475,1680.711,space,4.231,,1680.711,20,60,1681.711,1681.711,1681.715,,,,0,11,11,11,1,80,0,,,,,,,,
,,60e686b927391d9ac83103f2,001,2023-12-14_07h21.44.739,bars,2023.2.3,Win32,125,,,,,,1681.715,1682.711,,,1683.211,1683.462,,140,140,,,,,,,,,,,,,,,,bars/031.png,bars/mask003.png,,,,,,,,,,,,3,1,,,,,,,10,4,10,4,,,,,,,,,,,1682.711,1683.211,1683.462,1685.51,space,2.042,,1685.51,20,75,1686.51,1686.51,1686.51,,,,0,12,12,12,1,120,35,,,,,,,,
,,60e686b927391d9ac83103f2,001,2023-12-14_07h21.44.739,bars,2023.2.3,Win32,125,,,,,,1686.51,1687.51,,,1688.01,1688.261,,146,146,,,,,,,,,,,,,,,,bars/001.png,bars/mask002.png,,,,,,,,,,,,4,1,,,,,,,8,2,8,1,,,,,,,,,,,1687.51,1688.01,1688.261,1692.483,space,4.219,,1692.483,16,61,1693.482,1693.482,1693.487,,,,0,13,13,13,1,130,85,,,,,,,,
,,60e686b927391d9ac83103f2,001,2023-12-14_07h21.44.739,bars,2023.2.3,Win32,125,,,,,,1693.487,1694.482,,,1694.983,1695.232,,156,156,,,,,,,,,,,,,,,,bars/030.png,bars/mask003.png,,,,,,,,,,,,5,1,,,,,,,10,4,10,4,,,,,,,,,,,1694.482,1694.983,1695.232,1699.01,space,3.776,,1699.01,16,89,1700.01,1700.01,1700.015,,,,0,14,14,14,1,140,65,,,,,,,,
,,60e686b927391d9ac83103f2,001,2023-12-14_07h21.44.739,bars,2023.2.3,Win32,125,,,,,,1700.015,1701.017,,,1701.517,1701.768,,60,60,,,,,,,,,,,,,,,,bars/028.png,bars/mask007.png,,,,,,,,,,,,3,1,,,,,,,8,6,6,5,,,,,,,,,,,1701.017,1701.517,1701.768,1703.455,space,1.684,,1703.455,15,60,1704.455,1704.455,1704.455,,,,0,15,15,15,1,45,120,,,,,,,,
,,60e686b927391d9ac83103f2,001,2023-12-14_07h21.44.739,bars,2023.2.3,Win32,125,,,,,,1704.455,1705.455,,,1705.954,1706.205,,75,75,,,,,,,,,,,,,,,,bars/022.png,bars/mask009.png,,,,,,,,,,,,2,1,,,,,,,6,8,6,6,,,,,,,,,,,1705.455,1705.954,1706.205,1707.942,space,1.73,,1707.942,20,55,1708.941,1708.941,1708.942,,,,0,16,16,16,1,95,20,,,,,,,,
,,60e686b927391d9ac83103f2,001,2023-12-14_07h21.44.739,bars,2023.2.3,Win32,125,,,,,,1708.942,1709.941,,,1710.441,1710.691,,64,64,,,,,,,,,,,,,,,,bars/016.png,bars/mask002.png,,,,,,,,,,,,1,1,,,,,,,4,6,4,6,,,,,,,,,,,1709.941,1710.441,1710.691,1712.15,space,1.458,,1712.15,24,79,1713.149,1713.149,1713.154,,,,0,17,17,17,1,40,165,,,,,,,,
,,60e686b927391d9ac83103f2,001,2023-12-14_07h21.44.739,bars,2023.2.3,Win32,125,,,,,,1713.154,1714.157,,,1714.656,1714.907,,71,71,,,,,,,,,,,,,,,,bars/002.png,bars/mask000.png,,,,,,,,,,,,3,2,,,,,,,2,4,2,5,,,,,,,,,,,1714.157,1714.656,1714.907,1717.629,space,2.72,,1717.629,59,14,1718.629,1718.629,1718.634,,,,0,18,18,18,1,130,85,,,,,,,,
,,60e686b927391d9ac83103f2,001,2023-12-14_07h21.44.739,bars,2023.2.3,Win32,125,,,,,,1718.634,1719.629,,,1720.129,1720.379,,0,180,,,,,,,,,,,,,,,,bars/018.png,bars/mask005.png,,,,,,,,,,,,0,1,,,,,,,0,2,0,3,,,,,,,,,,,1719.629,1720.129,1720.379,1721.58,space,1.198,,1721.58,30,90,1722.58,1722.58,1722.581,,,,0,19,19,19,1,150,90,,,,,,,,
,,60e686b927391d9ac83103f2,001,2023-12-14_07h21.44.739,bars,2023.2.3,Win32,125,,,,,,1722.581,1723.581,,,1724.081,1724.331,,25,205,,,,,,,,,,,,,,,,bars/016.png,bars/mask008.png,,,,,,,,,,,,0,1,,,,,,,2,0,0,1,,,,,,,,,,,1723.581,1724.081,1724.331,1728.296,space,3.96,,1728.296,15,40,1729.295,1729.295,1729.3,,,,0,20,20,20,1,40,165,,,,,,,,
,,60e686b927391d9ac83103f2,001,2023-12-14_07h21.44.739,bars,2023.2.3,Win32,125,,,,,,1729.301,1730.303,,,1730.803,1731.053,,53,53,,,,,,,,,,,,,,,,bars/027.png,bars/mask006.png,,,,,,,,,,,,2,2,,,,,,,4,2,7,2,,,,,,,,,,,1730.303,1730.803,1731.053,1734.268,space,3.213,,1734.268,57,3,1735.268,1735.268,1735.274,,,,0,21,21,21,1,110,50,,,,,,,,
,,60e686b927391d9ac83103f2,001,2023-12-14_07h21.44.739,bars,2023.2.3,Win32,125,,,,,,1735.274,1736.268,,,1736.768,1737.018,,70,250,,,,,,,,,,,,,,,,bars/046.png,bars/mask008.png,,,,,,,,,,,,0,2,,,,,,,2,0,1,0,,,,,,,,,,,1736.268,1736.768,1737.018,1740.428,space,3.403,,1740.428,85,15,1741.428,1741.428,1741.433,,,,0,22,22,22,1,155,85,,,,,,,,
,,60e686b927391d9ac83103f2,001,2023-12-14_07h21.44.739,bars,2023.2.3,Win32,125,,,,,,1741.433,1742.435,,,1742.935,1743.185,,141,141,,,,,,,,,,,,,,,,bars/036.png,bars/mask006.png,,,,,,,,,,,,0,1,,,,,,,0,0,0,3,,,,,,,,,,,1742.435,1742.935,1743.185,1746.408,space,3.22,,1746.408,4,59,1747.408,1747.408,1747.412,,,,0,23,23,23,1,145,20,,,,,,,,
,,60e686b927391d9ac83103f2,001,2023-12-14_07h21.44.739,bars,2023.2.3,Win32,125,,,,,,1747.412,1748.407,,,1748.907,1749.157,,108,108,,,,,,,,,,,,,,,,bars/014.png,bars/mask008.png,,,,,,,,,,,,0,1,,,,,,,2,2,2,2,,,,,,,,,,,1748.407,1748.907,1749.157,1752.165,space,3.006,,1752.165,28,72,1753.165,1753.165,1753.169,,,,0,24,24,24,1,80,0,,,,,,,,
,,60e686b927391d9ac83103f2,001,2023-12-14_07h21.44.739,bars,2023.2.3,Win32,125,,,,,,1753.169,1754.164,,,1754.664,1754.914,,31,31,,,,,,,,,,,,,,,,bars/013.png,bars/mask001.png,,,,,,,,,,,,0,2,,,,,,,4,0,2,0,,,,,,,,,,,1754.164,1754.664,1754.914,1758.658,space,3.737,,1758.658,44,21,1759.658,1759.658,1759.663,,,,0,25,25,25,1,75,10,,,,,,,,
,,60e686b927391d9ac83103f2,001,2023-12-14_07h21.44.739,bars,2023.2.3,Win32,125,,,,,,1759.663,1760.665,,,1761.165,1761.415,,36,36,,,,,,,,,,,,,,,,bars/029.png,bars/mask008.png,,,,,,,,,,,,1,2,,,,,,,2,2,2,2,,,,,,,,,,,1760.665,1761.165,1761.415,1765.901,space,4.484,,1765.901,54,9,1766.901,1766.901,1766.906,,,,0,26,26,26,1,90,45,,,,,,,,
,,60e686b927391d9ac83103f2,001,2023-12-14_07h21.44.739,bars,2023.2.3,Win32,125,,,,,,1766.906,1767.908,,,1768.408,1768.658,,38,38,,,,,,,,,,,,,,,,bars/025.png,bars/mask003.png,,,,,,,,,,,,6,2,,,,,,,0,4,0,6,,,,,,,,,,,1767.908,1768.408,1768.658,1771.658,space,2.996,,1771.658,67,2,1772.658,1772.658,1772.663,,,,0,27,27,27,1,105,40,,,,,,,,
,,60e686b927391d9ac83103f2,001,2023-12-14_07h21.44.739,bars,2023.2.3,Win32,125,,,,,,1772.663,1773.659,,,1774.158,1774.408,,108,108,,,,,,,,,,,,,,,,bars/009.png,bars/mask006.png,,,,,,,,,,,,3,2,,,,,,,2,2,1,3,,,,,,,,,,,1773.659,1774.158,1774.408,1776.929,space,2.516,,1776.929,87,3,1777.929,1777.929,1777.934,,,,0,28,28,28,1,15,105,,,,,,,,
,,60e686b927391d9ac83103f2,001,2023-12-14_07h21.44.739,bars,2023.2.3,Win32,125,,,,,,1777.934,1778.936,,,1779.436,1779.686,,46,226,,,,,,,,,,,,,,,,bars/007.png,bars/mask001.png,,,,,,,,,,,,1,2,,,,,,,0,0,0,1,,,,,,,,,,,1778.936,1779.436,1779.686,1783.492,space,3.803,,1783.492,51,9,1784.492,1784.492,1784.496,,,,0,29,29,29,1,175,55,,,,,,,,
,,60e686b927391d9ac83103f2,001,2023-12-14_07h21.44.739,bars,2023.2.3,Win32,125,,,,,,1784.497,1785.492,,,1785.992,1786.242,,168,168,,,,,,,,,,,,,,,,bars/033.png,bars/mask002.png,,,,,,,,,,,,1,2,,,,,,,2,2,3,1,,,,,,,,,,,1785.492,1785.992,1786.242,1789.721,space,3.473,,1789.721,37,13,1790.722,1790.722,1790.726,,,,0,30,30,30,1,25,155,,,,,,,,
,,60e686b927391d9ac83103f2,001,2023-12-14_07h21.44.739,bars,2023.2.3,Win32,125,,,,,,1790.726,1791.721,,,1792.222,1792.471,,139,139,,,,,,,,,,,,,,,,bars/000.png,bars/mask004.png,,,,,,,,,,,,0,2,,,,,,,0,0,0,0,,,,,,,,,,,1791.721,1792.221,1792.471,1793.617,space,1.145,,1793.617,81,6,1794.617,1794.617,1794.617,,,,0,31,31,31,1,40,145,,,,,,,,
,,60e686b927391d9ac83103f2,001,2023-12-14_07h21.44.739,bars,2023.2.3,Win32,125,,,,,,1794.617,1795.617,,,1796.117,1796.367,,154,154,,,,,,,,,,,,,,,,bars/003.png,bars/mask008.png,,,,,,,,,,,,0,2,,,,,,,0,0,1,0,,,,,,,,,,,1795.617,1796.117,1796.367,1797.923,space,1.549,,1797.923,51,14,1798.923,1798.923,1798.924,,,,0,32,32,32,1,25,140,,,,,,,,
,,60e686b927391d9ac83103f2,001,2023-12-14_07h21.44.739,bars,2023.2.3,Win32,125,,,,,,1798.924,1799.923,,,1800.423,1800.673,,91,91,,,,,,,,,,,,,,,,bars/012.png,bars/mask005.png,,,,,,,,,,,,1,1,,,,,,,2,0,1,2,,,,,,,,,,,1799.923,1800.423,1800.673,1802.153,space,1.474,,1802.153,1,76,1803.152,1803.152,1803.157,,,,0,33,33,33,1,90,15,,,,,,,,
,,60e686b927391d9ac83103f2,001,2023-12-14_07h21.44.739,bars,2023.2.3,Win32,125,,,,,,1803.157,1804.152,,,1804.652,1804.903,,50,50,,,,,,,,,,,,,,,,bars/044.png,bars/mask007.png,,,,,,,,,,,,0,1,,,,,,,0,0,0,0,,,,,,,,,,,1804.152,1804.652,1804.903,1806.368,space,1.461,,1806.368,25,75,1807.368,1807.368,1807.372,,,,0,34,34,34,1,75,155,,,,,,,,
,,60e686b927391d9ac83103f2,001,2023-12-14_07h21.44.739,bars,2023.2.3,Win32,125,,,,,,1807.372,1808.368,,,1808.868,1809.118,,82,82,,,,,,,,,,,,,,,,bars/002.png,bars/mask000.png,,,,,,,,,,,,2,2,,,,,,,2,2,2,2,,,,,,,,,,,1808.368,1808.868,1809.118,1810.305,space,1.181,,1810.305,48,3,1811.305,1811.306,1811.31,,,,0,35,35,35,1,130,85,,,,,,,,
,,60e686b927391d9ac83103f2,001,2023-12-14_07h21.44.739,bars,2023.2.3,Win32,125,,,,,,1811.31,1812.312,,,1812.812,1813.062,,148,-32,,,,,,,,,,,,,,,,bars/037.png,bars/mask006.png,,,,,,,,,,,,0,1,,,,,,,0,0,0,0,,,,,,,,,,,1812.312,1812.812,1813.062,1815.416,space,2.352,,1815.416,2,43,1816.417,1816.417,1816.422,,,,0,36,36,36,1,150,105,,,,,,,,
,,60e686b927391d9ac83103f2,001,2023-12-14_07h21.44.739,bars,2023.2.3,Win32,125,,,,,,1816.422,1817.424,,,1817.923,1818.173,,26,206,,,,,,,,,,,,,,,,bars/032.png,bars/mask007.png,,,,,,,,,,,,0,2,,,,,,,0,0,0,0,,,,,,,,,,,1817.424,1817.923,1818.173,1820.75,space,2.572,,1820.75,81,6,1821.75,1821.75,1821.755,,,,0,37,37,37,1,125,20,,,,,,,,
,,60e686b927391d9ac83103f2,001,2023-12-14_07h21.44.739,bars,2023.2.3,Win32,125,,,,,,1821.755,1822.75,,,1823.25,1823.5,,50,230,,,,,,,,,,,,,,,,bars/023.png,bars/mask007.png,,,,,,,,,,,,0,1,,,,,,,0,0,0,0,,,,,,,,,,,1822.75,1823.25,1823.5,1826.737,space,3.234,,1826.737,30,65,1827.737,1827.737,1827.741,,,,0,38,38,38,1,20,115,,,,,,,,
,,60e686b927391d9ac83103f2,001,2023-12-14_07h21.44.739,bars,2023.2.3,Win32,125,,,,,,1827.741,1828.736,,,1829.236,1829.486,,168,168,,,,,,,,,,,,,,,,bars/008.png,bars/mask004.png,,,,,,,,,,,,2,2,,,,,,,0,2,0,3,,,,,,,,,,,1828.736,1829.236,1829.486,1830.785,space,1.298,,1830.785,58,12,1831.785,1831.785,1831.786,,,,0,39,39,39,1,110,0,,,,,,,,
,,60e686b927391d9ac83103f2,001,2023-12-14_07h21.44.739,bars,2023.2.3,Win32,125,,,,,,1831.786,1832.785,,,1833.285,1833.535,,77,77,,,,,,,,,,,,,,,,bars/042.png,bars/mask009.png,,,,,,,,,,,,1,2,,,,,,,2,0,1,1,,,,,,,,,,,1832.785,1833.285,1833.535,1836.515,space,2.977,,1836.515,68,2,1837.514,1837.514,1837.519,,,,0,40,40,40,1,145,75,,,,,,,,
,,60e686b927391d9ac83103f2,001,2023-12-14_07h21.44.739,bars,2023.2.3,Win32,125,,,,,,1837.519,1838.514,,,1839.014,1839.264,,78,78,,,,,,,,,,,,,,,,bars/034.png,bars/mask007.png,,,,,,,,,,,,2,2,,,,,,,4,2,5,3,,,,,,,,,,,1838.514,1839.014,1839.264,1841.251,space,1.98,,1841.251,47,13,1842.251,1842.251,1842.251,,,,0,41,41,41,1,125,65,,,,,,,,
,,60e686b927391d9ac83103f2,001,2023-12-14_07h21.44.739,bars,2023.2.3,Win32,125,,,,,,1842.251,1843.25,,,1843.751,1844,,128,128,,,,,,,,,,,,,,,,bars/040.png,bars/mask005.png,,,,,,,,,,,,1,1,,,,,,,2,4,2,5,,,,,,,,,,,1843.25,1843.751,1844,1845.146,space,1.141,,1845.146,12,57,1846.147,1846.147,1846.147,,,,0,42,42,42,1,140,5,,,,,,,,
,,60e686b927391d9ac83103f2,001,2023-12-14_07h21.44.739,bars,2023.2.3,Win32,125,,,,,,1846.147,1847.147,,,1847.647,1847.897,,8,188,,,,,,,,,,,,,,,,bars/014.png,bars/mask006.png,,,,,,,,,,,,1,2,,,,,,,4,2,3,2,,,,,,,,,,,1847.147,1847.647,1847.897,1850.362,space,2.464,,1850.362,72,8,1851.362,1851.362,1851.367,,,,0,43,43,43,1,80,0,,,,,,,,
,,60e686b927391d9ac83103f2,001,2023-12-14_07h21.44.739,bars,2023.2.3,Win32,125,,,,,,1851.367,1852.362,,,1852.862,1853.112,,137,137,,,,,,,,,,,,,,,,bars/043.png,bars/mask007.png,,,,,,,,,,,,0,2,,,,,,,2,0,1,0,,,,,,,,,,,1852.362,1852.862,1853.112,1856.376,space,3.257,,1856.376,73,7,1857.376,1857.376,1857.381,,,,0,44,44,44,1,30,130,,,,,,,,
,,60e686b927391d9ac83103f2,001,2023-12-14_07h21.44.739,bars,2023.2.3,Win32,125,,,,,,1857.381,1858.376,,,1858.876,1859.126,,113,113,,,,,,,,,,,,,,,,bars/020.png,bars/mask006.png,,,,,,,,,,,,0,1,,,,,,,0,2,0,2,,,,,,,,,,,1858.376,1858.876,1859.126,1860.599,space,1.465,,1860.599,2,57,1861.599,1861.599,1861.603,,,,0,45,45,45,1,115,170,,,,,,,,
,,60e686b927391d9ac83103f2,001,2023-12-14_07h21.44.739,bars,2023.2.3,Win32,125,,,,,,1861.604,1862.605,,,1863.106,1863.356,,165,165,,,,,,,,,,,,,,,,bars/011.png,bars/mask009.png,,,,,,,,,,,,2,1,,,,,,,2,0,2,0,,,,,,,,,,,1862.605,1863.106,1863.356,1866.501,space,3.142,,1866.501,5,80,1867.502,1867.502,1867.506,,,,0,46,46,46,1,160,85,,,,,,,,
,,60e686b927391d9ac83103f2,001,2023-12-14_07h21.44.739,bars,2023.2.3,Win32,125,,,,,,1867.506,1868.501,,,1869.002,1869.251,,165,165,,,,,,,,,,,,,,,,bars/001.png,bars/mask008.png,,,,,,,,,,,,0,1,,,,,,,4,2,3,2,,,,,,,,,,,1868.501,1869.002,1869.251,1870.307,space,1.051,,1870.307,35,80,1871.307,1871.307,1871.312,,,,0,47,47,47,1,130,85,,,,,,,,
,,60e686b927391d9ac83103f2,001,2023-12-14_07h21.44.739,bars,2023.2.3,Win32,125,,,,,,1871.312,1872.308,,,1872.807,1873.057,,52,52,,,,,,,,,,,,,,,,bars/028.png,bars/mask004.png,,,,,,,,,,,,4,1,,,,,,,6,0,5,2,,,,,,,,,,,1872.308,1872.807,1873.057,1875.183,space,2.123,,1875.183,7,68,1876.182,1876.182,1876.187,,,,0,48,48,48,1,45,120,,,,,,,,
,,60e686b927391d9ac83103f2,001,2023-12-14_07h21.44.739,bars,2023.2.3,Win32,125,,,,,,1876.187,1877.189,,,1877.689,1877.939,,42,222,,,,,,,,,,,,,,,,bars/043.png,bars/mask006.png,,,,,,,,,,,,2,1,,,,,,,4,0,4,1,,,,,,,,,,,1877.189,1877.689,1877.939,1880.224,space,2.284,,1880.224,12,88,1881.224,1881.224,1881.229,,,,0,49,49,49,1,30,130,,,,,,,,
,,60e686b927391d9ac83103f2,001,2023-12-14_07h21.44.739,bars,2023.2.3,Win32,125,,,,,,,,,,,,,,,,,,,,,,,,,,,,,,,,,,,,,,,,,,,,,,,,,,,,,,,,,,,,,,,,,,,,,,,,,,,,,,,,,,,,,,,,1881.229,1881.229,0,4,4,4,1,sequence_tables/blk040.csv