init_variables.started,init_variables.stopped,participant,session,date,expName,psychopyVersion,OS,frameRate,instruction_single.started,instruction_single.stopped,key_resp_2.keys,key_resp_2.rt,key_resp_2.duration,interval.started,interval.stopped,cue_single.started,cue_single.stopped,mask.started,mask.stopped,ori_response_single.started,res_ori,res,ori_response_single.stopped,key_resp_single.keys,key_resp_single.rt,key_resp_single.duration,disp_single.started,disp_single.stopped,key_resp.keys,key_resp.rt,key_resp.duration,single.thisRepN,single.thisTrialN,single.thisN,single.thisIndex,single.ran,ori,path,mask_path,instruction_bandit.started,instruction_bandit.stopped,key_resp_6.keys,key_resp_6.rt,key_resp_6.duration,cue_bandit.started,cue_bandit.stopped,bandit_res.keys,bandit_res.rt,bandit_res.duration,outcome_bandit.started,rew,action,outcome_bandit.stopped,bandit.thisRepN,bandit.thisTrialN,bandit.thisN,bandit.thisIndex,bandit.ran,actual_rew1,actual_rew2,rew1,rew2,instruction_task.started,instruction_task.stopped,key_resp_7.keys,key_resp_7.rt,key_resp_7.duration,wait_ready.started,wait_ready.stopped,key_resp_3.keys,key_resp_3.rt,key_resp_3.duration,cue.started,cue.stopped,ori_response.started,ori_response.stopped,key_resp_5.keys,key_resp_5.rt,key_resp_5.duration,outcome.started,diff1,diff2,outcome.stopped,disp_outcome_practice.started,disp_outcome_practice.stopped,key_resp_4.keys,key_resp_4.rt,key_resp_4.duration,trials.thisRepN,trials.thisTrialN,trials.thisN,trials.thisIndex,trials.ran,ori1,ori2,break_blk.started,break_blk.stopped,block.thisRepN,block.thisTrialN,block.thisN,block.thisIndex,block.ran,condition_file
0.0006,0.0007,611d03b822d4c8e041ea0c32,001,2023-12-14_08h40.41.214,bars,2023.2.3,Win32,60.60606061,,,,,,,,,,,,,,,,,,,,,,,,,,,,,,,,,,,,,,,,,,,,,,,,,,,,,,,,,,,,,,,,,,,,,,,,,,,,,,,,,,,,,,,,,,,,,,,
,,611d03b822d4c8e041ea0c32,001,2023-12-14_08h40.41.214,bars,2023.2.3,Win32,60.60606061,0.0008,906.3889,space,906.3806,,,,,,,,,,,,,,,,,,,,,,,,,,,,,,,,,,,,,,,,,,,,,,,,,,,,,,,,,,,,,,,,,,,,,,,,,,,,,,,,,,,,,,,,,,,
,,611d03b822d4c8e041ea0c32,001,2023-12-14_08h40.41.214,bars,2023.2.3,Win32,60.60606061,,,,,,906.3923,907.3869,907.3872,907.8887,907.8888,908.1386,908.1388,19,19,916.6872,space,8.5226,,916.6875,937.6361,space,20.9219,,0,0,0,0,1,150,bars/single000.png,bars/mask006.png,,,,,,,,,,,,,,,,,,,,,,,,,,,,,,,,,,,,,,,,,,,,,,,,,,,,,,,,,,,,,,,,
,,611d03b822d4c8e041ea0c32,001,2023-12-14_08h40.41.214,bars,2023.2.3,Win32,60.60606061,,,,,,937.65,938.6363,938.6365,939.1361,939.1361,939.3866,939.3867,34,214,950.1361,space,10.7334,,950.1362,961.869,space,11.7148,,0,1,1,6,1,175,bars/single006.png,bars/mask005.png,,,,,,,,,,,,,,,,,,,,,,,,,,,,,,,,,,,,,,,,,,,,,,,,,,,,,,,,,,,,,,,,
,,611d03b822d4c8e041ea0c32,001,2023-12-14_08h40.41.214,bars,2023.2.3,Win32,60.60606061,,,,,,961.8836,962.8834,962.8835,963.3854,963.3854,963.635,963.6351,174,-6,970.1995,space,6.5397,,970.1996,1114.0075,space,143.7782,,0,2,2,8,1,160,bars/single008.png,bars/mask004.png,,,,,,,,,,,,,,,,,,,,,,,,,,,,,,,,,,,,,,,,,,,,,,,,,,,,,,,,,,,,,,,,
,,611d03b822d4c8e041ea0c32,001,2023-12-14_08h40.41.214,bars,2023.2.3,Win32,60.60606061,,,,,,1114.0188,1115.0069,1115.0069,1115.507,1115.5071,1115.7567,1115.7568,159,159,1127.023,space,11.2473,,1127.023,2022.7688,space,895.7125,,0,3,3,2,1,145,bars/single002.png,bars/mask003.png,,,,,,,,,,,,,,,,,,,,,,,,,,,,,,,,,,,,,,,,,,,,,,,,,,,,,,,,,,,,,,,,
,,611d03b822d4c8e041ea0c32,001,2023-12-14_08h40.41.214,bars,2023.2.3,Win32,60.60606061,,,,,,2022.7695,2023.7697,2023.7697,2024.2692,2024.2693,2024.5212,2024.5212,168,168,2029.5058,space,4.9667,,2029.5059,2039.8708,space,10.3464,,0,4,4,7,1,45,bars/single007.png,bars/mask009.png,,,,,,,,,,,,,,,,,,,,,,,,,,,,,,,,,,,,,,,,,,,,,,,,,,,,,,,,,,,,,,,,
,,611d03b822d4c8e041ea0c32,001,2023-12-14_08h40.41.214,bars,2023.2.3,Win32,60.60606061,,,,,,2039.8798,2040.8696,2040.8696,2041.3709,2041.371,2041.6203,2041.6204,51,51,2046.7719,space,5.1342,,2046.772,2049.2038,space,2.4158,,0,5,5,4,1,95,bars/single004.png,bars/mask004.png,,,,,,,,,,,,,,,,,,,,,,,,,,,,,,,,,,,,,,,,,,,,,,,,,,,,,,,,,,,,,,,,
,,611d03b822d4c8e041ea0c32,001,2023-12-14_08h40.41.214,bars,2023.2.3,Win32,60.60606061,,,,,,2049.2042,2050.2008,2050.2009,2050.7014,2050.7015,2050.9513,2050.9513,88,88,2061.5188,space,10.5497,,2061.5189,2075.1998,space,13.6535,,0,6,6,5,1,55,bars/single005.png,bars/mask008.png,,,,,,,,,,,,,,,,,,,,,,,,,,,,,,,,,,,,,,,,,,,,,,,,,,,,,,,,,,,,,,,,
,,611d03b822d4c8e041ea0c32,001,2023-12-14_08h40.41.214,bars,2023.2.3,Win32,60.60606061,,,,,,2075.2144,2076.201,2076.2011,2076.6996,2076.6997,2076.9498,2076.9499,51,51,2080.8852,space,3.9172,,2080.8854,2138.4153,space,57.5121,,0,7,7,9,1,20,bars/single009.png,bars/mask006.png,,,,,,,,,,,,,,,,,,,,,,,,,,,,,,,,,,,,,,,,,,,,,,,,,,,,,,,,,,,,,,,,
,,611d03b822d4c8e041ea0c32,001,2023-12-14_08h40.41.214,bars,2023.2.3,Win32,60.60606061,,,,,,2138.4299,2139.4291,2139.4291,2139.9291,2139.9292,2140.1804,2140.1804,43,43,2144.6481,space,4.4511,,2144.6482,2165.5439,space,20.8662,,0,8,8,1,1,20,bars/single001.png,bars/mask006.png,,,,,,,,,,,,,,,,,,,,,,,,,,,,,,,,,,,,,,,,,,,,,,,,,,,,,,,,,,,,,,,,
,,611d03b822d4c8e041ea0c32,001,2023-12-14_08h40.41.214,bars,2023.2.3,Win32,60.60606061,,,,,,2165.5574,2166.544,2166.544,2167.044,2167.0441,2167.2941,2167.2941,10,10,2171.4938,space,4.1911,,2171.4939,2200.1417,space,28.6159,,0,9,9,3,1,20,bars/single003.png,bars/mask005.png,,,,,,,,,,,,,,,,,,,,,,,,,,,,,,,,,,,,,,,,,,,,,,,,,,,,,,,,,,,,,,,,
,,611d03b822d4c8e041ea0c32,001,2023-12-14_08h40.41.214,bars,2023.2.3,Win32,60.60606061,,,,,,,,,,,,,,,,,,,,,,,,,,,,,,,,2200.1577,2211.159,space,10.989,,,,,,,,,,,,,,,,,,,,,,,,,,,,,,,,,,,,,,,,,,,,,,,,,,,,,,,,,,,,
,,611d03b822d4c8e041ea0c32,001,2023-12-14_08h40.41.214,bars,2023.2.3,Win32,60.60606061,,,,,,,,,,,,,,,,,,,,,,,,,,,,,,,,,,,,,2211.1758,2216.2582,left,5.0745,,2216.2585,9,1,2217.2573,0,0,0,0,1,9,1,9,2,,,,,,,,,,,,,,,,,,,,,,,,,,,,,,,,,,,,,,,,,
,,611d03b822d4c8e041ea0c32,001,2023-12-14_08h40.41.214,bars,2023.2.3,Win32,60.60606061,,,,,,,,,,,,,,,,,,,,,,,,,,,,,,,,,,,,,2217.2577,2224.6075,right,7.3369,,2224.6076,1,2,2225.607,0,1,1,1,1,10,0,10,1,,,,,,,,,,,,,,,,,,,,,,,,,,,,,,,,,,,,,,,,,
,,611d03b822d4c8e041ea0c32,001,2023-12-14_08h40.41.214,bars,2023.2.3,Win32,60.60606061,,,,,,,,,,,,,,,,,,,,,,,,,,,,,,,,,,,,,2225.6076,2226.2906,left,0.6746,,2226.2908,10,1,2227.2904,0,2,2,2,1,10,2,10,2,,,,,,,,,,,,,,,,,,,,,,,,,,,,,,,,,,,,,,,,,
,,611d03b822d4c8e041ea0c32,001,2023-12-14_08h40.41.214,bars,2023.2.3,Win32,60.60606061,,,,,,,,,,,,,,,,,,,,,,,,,,,,,,,,,,,,,2227.2909,2227.9904,left,0.6835,,2227.9904,7,1,2228.9902,0,3,3,3,1,8,4,7,3,,,,,,,,,,,,,,,,,,,,,,,,,,,,,,,,,,,,,,,,,
,,611d03b822d4c8e041ea0c32,001,2023-12-14_08h40.41.214,bars,2023.2.3,Win32,60.60606061,,,,,,,,,,,,,,,,,,,,,,,,,,,,,,,,,,,,,2228.9907,2229.3075,right,0.2997,,2229.3077,1,2,2230.3067,0,4,4,4,1,6,2,5,1,,,,,,,,,,,,,,,,,,,,,,,,,,,,,,,,,,,,,,,,,
,,611d03b822d4c8e041ea0c32,001,2023-12-14_08h40.41.214,bars,2023.2.3,Win32,60.60606061,,,,,,,,,,,,,,,,,,,,,,,,,,,,,,,,,,,,,2230.3073,2230.5405,left,0.2215,,2230.5405,4,1,2231.54,0,5,5,5,1,4,4,4,4,,,,,,,,,,,,,,,,,,,,,,,,,,,,,,,,,,,,,,,,,
,,611d03b822d4c8e041ea0c32,001,2023-12-14_08h40.41.214,bars,2023.2.3,Win32,60.60606061,,,,,,,,,,,,,,,,,,,,,,,,,,,,,,,,,,,,,2231.5406,2231.8069,left,0.2552,,2231.8071,1,1,2232.8066,0,6,6,6,1,2,2,1,2,,,,,,,,,,,,,,,,,,,,,,,,,,,,,,,,,,,,,,,,,
,,611d03b822d4c8e041ea0c32,001,2023-12-14_08h40.41.214,bars,2023.2.3,Win32,60.60606061,,,,,,,,,,,,,,,,,,,,,,,,,,,,,,,,,,,,,2232.8072,2233.2902,right,0.4699,,2233.2903,1,2,2234.2905,0,7,7,7,1,0,0,0,1,,,,,,,,,,,,,,,,,,,,,,,,,,,,,,,,,,,,,,,,,
,,611d03b822d4c8e041ea0c32,001,2023-12-14_08h40.41.214,bars,2023.2.3,Win32,60.60606061,,,,,,,,,,,,,,,,,,,,,,,,,,,,,,,,,,,,,2234.291,2234.507,left,0.2002,,2234.5071,1,1,2235.5063,0,8,8,8,1,0,2,1,0,,,,,,,,,,,,,,,,,,,,,,,,,,,,,,,,,,,,,,,,,
,,611d03b822d4c8e041ea0c32,001,2023-12-14_08h40.41.214,bars,2023.2.3,Win32,60.60606061,,,,,,,,,,,,,,,,,,,,,,,,,,,,,,,,,,,,,2235.5069,2235.7733,right,0.2588,,2235.7734,3,2,2236.7733,0,9,9,9,1,2,4,2,3,,,,,,,,,,,,,,,,,,,,,,,,,,,,,,,,,,,,,,,,,
,,611d03b822d4c8e041ea0c32,001,2023-12-14_08h40.41.214,bars,2023.2.3,Win32,60.60606061,,,,,,,,,,,,,,,,,,,,,,,,,,,,,,,,,,,,,2236.7739,2241.9061,left,5.1177,,2241.9061,0,1,2242.906,0,10,10,10,1,0,2,0,3,,,,,,,,,,,,,,,,,,,,,,,,,,,,,,,,,,,,,,,,,
,,611d03b822d4c8e041ea0c32,001,2023-12-14_08h40.41.214,bars,2023.2.3,Win32,60.60606061,,,,,,,,,,,,,,,,,,,,,,,,,,,,,,,,,,,,,2242.9207,2243.206,right,0.2827,,2243.2061,3,2,2244.2056,0,11,11,11,1,0,4,0,3,,,,,,,,,,,,,,,,,,,,,,,,,,,,,,,,,,,,,,,,,
,,611d03b822d4c8e041ea0c32,001,2023-12-14_08h40.41.214,bars,2023.2.3,Win32,60.60606061,,,,,,,,,,,,,,,,,,,,,,,,,,,,,,,,,,,,,2244.2063,2244.9894,right,0.7746,,2244.9895,6,2,2245.989,0,12,12,12,1,2,6,1,6,,,,,,,,,,,,,,,,,,,,,,,,,,,,,,,,,,,,,,,,,
,,611d03b822d4c8e041ea0c32,001,2023-12-14_08h40.41.214,bars,2023.2.3,Win32,60.60606061,,,,,,,,,,,,,,,,,,,,,,,,,,,,,,,,,,,,,2245.9895,2246.6726,right,0.6736,,2246.6726,3,2,2247.6723,0,13,13,13,1,0,4,1,3,,,,,,,,,,,,,,,,,,,,,,,,,,,,,,,,,,,,,,,,,
,,611d03b822d4c8e041ea0c32,001,2023-12-14_08h40.41.214,bars,2023.2.3,Win32,60.60606061,,,,,,,,,,,,,,,,,,,,,,,,,,,,,,,,,,,,,2247.6729,2247.9559,left,0.277,,2247.956,2,1,2248.9555,0,14,14,14,1,2,6,2,7,,,,,,,,,,,,,,,,,,,,,,,,,,,,,,,,,,,,,,,,,
,,611d03b822d4c8e041ea0c32,001,2023-12-14_08h40.41.214,bars,2023.2.3,Win32,60.60606061,,,,,,,,,,,,,,,,,,,,,,,,,,,,,,,,,,,,,2248.9561,2249.2726,right,0.3059,,2249.2727,9,2,2250.2722,0,15,15,15,1,4,8,3,9,,,,,,,,,,,,,,,,,,,,,,,,,,,,,,,,,,,,,,,,,
,,611d03b822d4c8e041ea0c32,001,2023-12-14_08h40.41.214,bars,2023.2.3,Win32,60.60606061,,,,,,,,,,,,,,,,,,,,,,,,,,,,,,,,,,,,,2250.2729,2255.6888,right,5.4077,,2255.6888,7,2,2256.6885,0,16,16,16,1,6,6,7,7,,,,,,,,,,,,,,,,,,,,,,,,,,,,,,,,,,,,,,,,,
,,611d03b822d4c8e041ea0c32,001,2023-12-14_08h40.41.214,bars,2023.2.3,Win32,60.60606061,,,,,,,,,,,,,,,,,,,,,,,,,,,,,,,,,,,,,2256.7035,2289.5371,left,32.8171,,2289.5372,9,1,2290.5371,0,17,17,17,1,8,4,9,5,,,,,,,,,,,,,,,,,,,,,,,,,,,,,,,,,,,,,,,,,
,,611d03b822d4c8e041ea0c32,001,2023-12-14_08h40.41.214,bars,2023.2.3,Win32,60.60606061,,,,,,,,,,,,,,,,,,,,,,,,,,,,,,,,,,,,,2290.5501,2291.4201,left,0.8623,,2291.4203,5,1,2292.4193,0,18,18,18,1,6,2,5,1,,,,,,,,,,,,,,,,,,,,,,,,,,,,,,,,,,,,,,,,,
,,611d03b822d4c8e041ea0c32,001,2023-12-14_08h40.41.214,bars,2023.2.3,Win32,60.60606061,,,,,,,,,,,,,,,,,,,,,,,,,,,,,,,,,,,,,2292.4199,2292.6695,right,0.2332,,2292.6695,0,2,2293.6692,0,19,19,19,1,8,0,7,0,,,,,,,,,,,,,,,,,,,,,,,,,,,,,,,,,,,,,,,,,
,,611d03b822d4c8e041ea0c32,001,2023-12-14_08h40.41.214,bars,2023.2.3,Win32,60.60606061,,,,,,,,,,,,,,,,,,,,,,,,,,,,,,,,,,,,,,,,,,,,,,,,,,,,,,,2293.6703,2303.7532,space,10.0632,,,,,,,,,,,,,,,,,,,,,,,,,,,,,,,,,,,,,
,,611d03b822d4c8e041ea0c32,001,2023-12-14_08h40.41.214,bars,2023.2.3,Win32,60.60606061,,,,,,2304.9751,2305.9688,,,2306.4692,2306.7188,,93,93,,,,,,,,,,,,,,,,bars/041.png,bars/mask001.png,,,,,,,,,,,,1,2,,,,,,,4,2,4,1,,,,,,2303.7688,2304.9691,space,1.1883,,2305.9692,2306.4691,2306.7192,2311.8051,space,5.0765,,2311.8054,73,8,2312.804,2312.8043,2317.019,space,4.1895,,0,0,0,0,1,20,85,,,,,,,,
,,611d03b822d4c8e041ea0c32,001,2023-12-14_08h40.41.214,bars,2023.2.3,Win32,60.60606061,,,,,,2317.0324,2318.0369,,,2318.52,2318.7684,,176,176,,,,,,,,,,,,,,,,bars/029.png,bars/mask005.png,,,,,,,,,,,,0,2,,,,,,,2,4,3,3,,,,,,,,,,,2318.0369,2318.52,2318.7684,2324.0013,space,5.2036,,2324.0015,86,49,2325.0016,2325.0019,2330.3508,space,5.3197,,0,1,1,1,1,90,45,,,,,,,,
,,611d03b822d4c8e041ea0c32,001,2023-12-14_08h40.41.214,bars,2023.2.3,Win32,60.60606061,,,,,,2330.3654,2331.3673,,,2331.8674,2332.1171,,169,169,,,,,,,,,,,,,,,,bars/031.png,bars/mask005.png,,,,,,,,,,,,0,2,,,,,,,0,6,0,6,,,,,,,,,,,2331.3675,2331.8674,2332.1171,2334.7172,space,2.5938,,2334.7174,49,46,2335.717,2335.7171,2340.4499,space,4.7141,,0,2,2,2,1,120,35,,,,,,,,
,,611d03b822d4c8e041ea0c32,001,2023-12-14_08h40.41.214,bars,2023.2.3,Win32,60.60606061,,,,,,2340.4657,2341.4665,,,2341.9501,2342.2,,115,115,,,,,,,,,,,,,,,,bars/035.png,bars/mask006.png,,,,,,,,,,,,0,2,,,,,,,2,4,0,5,,,,,,,,,,,2341.4665,2341.9501,2342.2001,2344.317,space,2.0997,,2344.3171,60,55,2345.3165,2345.3166,2378.5319,space,33.2089,,0,3,3,3,1,175,60,,,,,,,,
,,611d03b822d4c8e041ea0c32,001,2023-12-14_08h40.41.214,bars,2023.2.3,Win32,60.60606061,,,,,,2378.5466,2379.5479,,,2380.0477,2380.2977,,47,47,,,,,,,,,,,,,,,,bars/036.png,bars/mask005.png,,,,,,,,,,,,0,2,,,,,,,0,2,0,3,,,,,,,,,,,2379.5479,2380.0477,2380.2978,2382.8477,space,2.5435,,2382.8477,82,27,2383.8474,2383.8476,2387.464,space,3.5873,,0,4,4,4,1,145,20,,,,,,,,
,,611d03b822d4c8e041ea0c32,001,2023-12-14_08h40.41.214,bars,2023.2.3,Win32,60.60606061,,,,,,2387.4783,2388.4804,,,2388.9806,2389.2305,,160,160,,,,,,,,,,,,,,,,bars/005.png,bars/mask008.png,,,,,,,,,,,,2,2,,,,,,,0,4,0,5,,,,,,,,,,,2388.4804,2388.9805,2389.2305,2393.4647,space,4.2298,,2393.4648,30,20,2394.4635,2394.4635,2712.6446,space,318.1504,,0,5,5,5,1,10,140,,,,,,,,
,,611d03b822d4c8e041ea0c32,001,2023-12-14_08h40.41.214,bars,2023.2.3,Win32,60.60606061,,,,,,2712.6582,2713.6612,,,2714.1612,2714.4108,,34,34,,,,,,,,,,,,,,,,bars/039.png,bars/mask008.png,,,,,,,,,,,,0,1,,,,,,,0,2,0,1,,,,,,,,,,,2713.6612,2714.161,2714.4109,2716.0122,space,1.585,,2716.0122,39,71,2717.0106,2717.0106,2747.5301,space,30.5084,,0,6,6,6,1,175,105,,,,,,,,
,,611d03b822d4c8e041ea0c32,001,2023-12-14_08h40.41.214,bars,2023.2.3,Win32,60.60606061,,,,,,2747.5425,2748.5441,,,2749.0443,2749.2925,,118,118,,,,,,,,,,,,,,,,bars/037.png,bars/mask009.png,,,,,,,,,,,,1,2,,,,,,,0,0,1,1,,,,,,,,,,,2748.5443,2749.0443,2749.2925,2751.0422,space,1.7239,,2751.0423,32,13,2752.0424,2752.0424,2754.4589,space,2.3941,,0,7,7,7,1,150,105,,,,,,,,
,,611d03b822d4c8e041ea0c32,001,2023-12-14_08h40.41.214,bars,2023.2.3,Win32,60.60606061,,,,,,2754.4595,2755.4582,,,2755.959,2756.2099,,113,113,,,,,,,,,,,,,,,,bars/049.png,bars/mask001.png,,,,,,,,,,,,2,2,,,,,,,0,2,0,2,,,,,,,,,,,2755.4584,2755.9587,2756.21,2760.3935,space,4.1669,,2760.3936,47,2,2761.3935,2761.3936,2767.925,space,6.5014,,0,8,8,8,1,160,115,,,,,,,,
,,611d03b822d4c8e041ea0c32,001,2023-12-14_08h40.41.214,bars,2023.2.3,Win32,60.60606061,,,,,,2767.9367,2768.9429,,,2769.4411,2769.6761,,112,112,,,,,,,,,,,,,,,,bars/011.png,bars/mask003.png,,,,,,,,,,,,0,2,,,,,,,2,0,1,1,,,,,,,,,,,2768.9429,2769.441,2769.6761,2774.06,space,4.367,,2774.06,48,27,2775.0577,2775.0578,2870.4353,space,95.3472,,0,9,9,9,1,160,85,,,,,,,,
,,611d03b822d4c8e041ea0c32,001,2023-12-14_08h40.41.214,bars,2023.2.3,Win32,60.60606061,,,,,,2870.4472,2871.4365,,,2871.9353,2872.1854,,100,100,,,,,,,,,,,,,,,,bars/040.png,bars/mask003.png,,,,,,,,,,,,0,1,,,,,,,0,0,0,0,,,,,,,,,,,2871.4365,2871.9351,2872.1854,2875.221,space,3.0174,,2875.221,40,85,2876.2183,2876.2184,2877.1349,space,0.8903,,0,10,10,10,1,140,5,,,,,,,,
,,611d03b822d4c8e041ea0c32,001,2023-12-14_08h40.41.214,bars,2023.2.3,Win32,60.60606061,,,,,,2877.1354,2878.1349,,,2878.6346,2878.8848,,83,83,,,,,,,,,,,,,,,,bars/033.png,bars/mask004.png,,,,,,,,,,,,0,1,,,,,,,2,2,3,3,,,,,,,,,,,2878.135,2878.6344,2878.8849,2883.1535,space,4.2504,,2883.1536,58,72,2884.1511,2884.1513,2885.5677,space,1.3912,,0,11,11,11,1,25,155,,,,,,,,
,,611d03b822d4c8e041ea0c32,001,2023-12-14_08h40.41.214,bars,2023.2.3,Win32,60.60606061,,,,,,2885.5683,2886.5692,,,2887.068,2887.3176,,59,59,,,,,,,,,,,,,,,,bars/019.png,bars/mask001.png,,,,,,,,,,,,0,1,,,,,,,0,0,0,0,,,,,,,,,,,2886.5693,2887.0679,2887.3176,2889.6341,space,2.2942,,2889.6342,14,46,2890.6359,2890.636,2898.486,space,7.8322,,0,12,12,12,1,45,105,,,,,,,,
,,611d03b822d4c8e041ea0c32,001,2023-12-14_08h40.41.214,bars,2023.2.3,Win32,60.60606061,,,,,,2898.4983,2899.5019,,,2900.002,2900.2506,,70,70,,,,,,,,,,,,,,,,bars/019.png,bars/mask003.png,,,,,,,,,,,,0,1,,,,,,,0,2,0,0,,,,,,,,,,,2899.5019,2900.0019,2900.2506,2902.9859,space,2.7173,,2902.9859,25,35,2903.9848,2903.9848,2905.5361,space,1.5336,,0,13,13,13,1,45,105,,,,,,,,
,,611d03b822d4c8e041ea0c32,001,2023-12-14_08h40.41.214,bars,2023.2.3,Win32,60.60606061,,,,,,2905.5366,2906.5348,,,2907.0337,2907.2848,,67,67,,,,,,,,,,,,,,,,bars/019.png,bars/mask005.png,,,,,,,,,,,,0,1,,,,,,,0,4,0,4,,,,,,,,,,,2906.5348,2907.0336,2907.2848,2910.7518,space,3.4505,,2910.7518,22,38,2911.7508,2911.7509,2916.7163,space,4.9423,,0,14,14,14,1,45,105,,,,,,,,
,,611d03b822d4c8e041ea0c32,001,2023-12-14_08h40.41.214,bars,2023.2.3,Win32,60.60606061,,,,,,2916.7297,2917.734,,,2918.2175,2918.4657,,142,142,,,,,,,,,,,,,,,,bars/005.png,bars/mask002.png,,,,,,,,,,,,2,2,,,,,,,2,2,3,2,,,,,,,,,,,2917.7341,2918.2174,2918.4658,2921.1905,space,2.7069,,2921.1906,48,2,2922.1821,2922.1822,3061.644,space,139.4391,,0,15,15,15,1,10,140,,,,,,,,
,,611d03b822d4c8e041ea0c32,001,2023-12-14_08h40.41.214,bars,2023.2.3,Win32,60.60606061,,,,,,3061.6577,3062.6583,,,3063.1589,3063.4069,,141,141,,,,,,,,,,,,,,,,bars/022.png,bars/mask007.png,,,,,,,,,,,,0,1,,,,,,,0,0,0,0,,,,,,,,,,,3062.6584,3063.1589,3063.407,3065.7263,space,2.3008,,3065.7263,46,59,3066.7234,3066.7236,3174.2531,space,107.5093,,0,16,16,16,1,95,20,,,,,,,,
,,611d03b822d4c8e041ea0c32,001,2023-12-14_08h40.41.214,bars,2023.2.3,Win32,60.60606061,,,,,,3174.2676,3175.2686,,,3175.7687,3176.0169,,95,95,,,,,,,,,,,,,,,,bars/042.png,bars/mask003.png,,,,,,,,,,,,1,2,,,,,,,0,2,0,2,,,,,,,,,,,3175.2687,3175.7687,3176.0171,3177.6524,space,1.617,,3177.6525,50,20,3178.6513,3178.6514,3182.069,space,3.3969,,0,17,17,17,1,145,75,,,,,,,,
,,611d03b822d4c8e041ea0c32,001,2023-12-14_08h40.41.214,bars,2023.2.3,Win32,60.60606061,,,,,,3182.0695,3183.0664,,,3183.5677,3183.8176,,124,124,,,,,,,,,,,,,,,,bars/008.png,bars/mask007.png,,,,,,,,,,,,0,1,,,,,,,0,4,0,2,,,,,,,,,,,3183.0665,3183.5677,3183.8176,3187.3357,space,3.501,,3187.3357,14,56,3188.3344,3188.3345,3190.6178,space,2.2644,,0,18,18,18,1,110,0,,,,,,,,
,,611d03b822d4c8e041ea0c32,001,2023-12-14_08h40.41.214,bars,2023.2.3,Win32,60.60606061,,,,,,3190.6182,3191.6159,,,3192.1156,3192.3669,,179,-1,,,,,,,,,,,,,,,,bars/021.png,bars/mask005.png,,,,,,,,,,,,1,1,,,,,,,2,6,4,8,,,,,,,,,,,3191.6162,3192.1156,3192.367,3198.4846,space,6.1151,,3198.4846,24,71,3199.4835,3199.4835,3213.8147,space,14.3042,,0,19,19,19,1,155,70,,,,,,,,
,,611d03b822d4c8e041ea0c32,001,2023-12-14_08h40.41.214,bars,2023.2.3,Win32,60.60606061,,,,,,3213.8298,3214.8325,,,3215.3161,3215.5663,,56,56,,,,,,,,,,,,,,,,bars/048.png,bars/mask009.png,,,,,,,,,,,,0,1,,,,,,,0,4,0,3,,,,,,,,,,,3214.8325,3215.3161,3215.5664,3221.5497,space,5.9669,,3221.5497,6,61,3222.5474,3222.5476,3256.0144,space,33.448,,0,20,20,20,1,50,175,,,,,,,,
,,611d03b822d4c8e041ea0c32,001,2023-12-14_08h40.41.214,bars,2023.2.3,Win32,60.60606061,,,,,,3256.0301,3257.0299,,,3257.5304,3257.7787,,61,61,,,,,,,,,,,,,,,,bars/040.png,bars/mask006.png,,,,,,,,,,,,0,2,,,,,,,2,6,3,7,,,,,,,,,,,3257.0299,3257.5304,3257.7789,3260.8457,space,3.0485,,3260.8458,79,56,3261.8451,3261.8452,3267.2141,space,5.3474,,0,21,21,21,1,140,5,,,,,,,,
,,611d03b822d4c8e041ea0c32,001,2023-12-14_08h40.41.214,bars,2023.2.3,Win32,60.60606061,,,,,,3267.2282,3268.2298,,,3268.728,3268.9779,,68,68,,,,,,,,,,,,,,,,bars/007.png,bars/mask006.png,,,,,,,,,,,,5,2,,,,,,,0,8,0,9,,,,,,,,,,,3268.2298,3268.728,3268.9779,3272.7636,space,3.7674,,3272.7637,73,13,3273.7623,3273.7623,3283.7629,space,9.9809,,0,22,22,22,1,175,55,,,,,,,,
,,611d03b822d4c8e041ea0c32,001,2023-12-14_08h40.41.214,bars,2023.2.3,Win32,60.60606061,,,,,,3283.7774,3284.7773,,,3285.279,3285.527,,55,55,,,,,,,,,,,,,,,,bars/019.png,bars/mask008.png,,,,,,,,,,,,1,1,,,,,,,0,6,1,5,,,,,,,,,,,3284.7773,3285.279,3285.527,3300.9618,space,15.4316,,3300.9619,10,50,3301.9594,3301.9595,3315.7253,space,13.7393,,0,23,23,23,1,45,105,,,,,,,,
,,611d03b822d4c8e041ea0c32,001,2023-12-14_08h40.41.214,bars,2023.2.3,Win32,60.60606061,,,,,,3315.739,3316.7417,,,3317.2268,3317.4769,,43,43,,,,,,,,,,,,,,,,bars/008.png,bars/mask006.png,,,,,,,,,,,,0,2,,,,,,,2,8,2,9,,,,,,,,,,,3316.7418,3317.2268,3317.477,3329.7769,space,12.2834,,3329.7769,67,43,3330.7758,3330.776,3333.7101,space,2.9152,,0,24,24,24,1,110,0,,,,,,,,
,,611d03b822d4c8e041ea0c32,001,2023-12-14_08h40.41.214,bars,2023.2.3,Win32,60.60606061,,,,,,3333.7105,3334.7086,,,3335.2094,3335.4573,,110,110,,,,,,,,,,,,,,,,bars/040.png,bars/mask003.png,,,,,,,,,,,,0,1,,,,,,,0,10,1,10,,,,,,,,,,,3334.7086,3335.2092,3335.4573,3343.9569,space,8.4741,,3343.9569,30,75,3344.9581,3344.9582,3356.4915,space,11.5116,,0,25,25,25,1,140,5,,,,,,,,
,,611d03b822d4c8e041ea0c32,001,2023-12-14_08h40.41.214,bars,2023.2.3,Win32,60.60606061,,,,,,3356.5054,3357.506,,,3358.0074,3358.2575,,120,120,,,,,,,,,,,,,,,,bars/035.png,bars/mask000.png,,,,,,,,,,,,0,1,,,,,,,2,8,3,9,,,,,,,,,,,3357.5061,3358.0073,3358.2575,3364.0414,space,5.7671,,3364.0415,55,60,3365.0388,3365.0389,3421.8189,space,56.7553,,0,26,26,26,1,175,60,,,,,,,,
,,611d03b822d4c8e041ea0c32,001,2023-12-14_08h40.41.214,bars,2023.2.3,Win32,60.60606061,,,,,,3421.8328,3422.821,,,3423.3215,3423.5705,,71,71,,,,,,,,,,,,,,,,bars/044.png,bars/mask000.png,,,,,,,,,,,,0,1,,,,,,,0,10,0,10,,,,,,,,,,,3422.821,3423.3214,3423.5706,3428.9381,space,5.3498,,3428.9382,4,84,3429.9347,3429.9348,3432.9211,space,2.9655,,0,27,27,27,1,75,155,,,,,,,,
,,611d03b822d4c8e041ea0c32,001,2023-12-14_08h40.41.214,bars,2023.2.3,Win32,60.60606061,,,,,,3432.9216,3433.9199,,,3434.4201,3434.6704,,71,71,,,,,,,,,,,,,,,,bars/041.png,bars/mask000.png,,,,,,,,,,,,5,2,,,,,,,0,10,0,10,,,,,,,,,,,3433.9199,3434.4199,3434.6704,3442.1036,space,7.4176,,3442.1036,51,14,3443.102,3443.1021,3450.2334,space,7.1104,,0,28,28,28,1,20,85,,,,,,,,
,,611d03b822d4c8e041ea0c32,001,2023-12-14_08h40.41.214,bars,2023.2.3,Win32,60.60606061,,,,,,3450.2416,3451.2334,,,3451.7366,3451.9862,,81,81,,,,,,,,,,,,,,,,bars/033.png,bars/mask007.png,,,,,,,,,,,,0,1,,,,,,,0,10,1,10,,,,,,,,,,,3451.2334,3451.7366,3451.9863,3466.3022,space,14.2993,,3466.3022,56,74,3467.3012,3467.3012,3470.5349,space,3.2125,,0,29,29,29,1,25,155,,,,,,,,
,,611d03b822d4c8e041ea0c32,001,2023-12-14_08h40.41.214,bars,2023.2.3,Win32,60.60606061,,,,,,3470.5353,3471.5344,,,3472.0326,3472.2838,,172,172,,,,,,,,,,,,,,,,bars/049.png,bars/mask008.png,,,,,,,,,,,,1,1,,,,,,,2,8,2,6,,,,,,,,,,,3471.5345,3472.0325,3472.2838,3474.2013,space,1.9006,,3474.2013,12,57,3475.1991,3475.1993,3482.7687,space,7.5505,,0,30,30,30,1,160,115,,,,,,,,
,,611d03b822d4c8e041ea0c32,001,2023-12-14_08h40.41.214,bars,2023.2.3,Win32,60.60606061,,,,,,3482.779,3483.7668,,,3484.2653,3484.5167,,24,204,,,,,,,,,,,,,,,,bars/038.png,bars/mask001.png,,,,,,,,,,,,0,1,,,,,,,4,6,4,7,,,,,,,,,,,3483.7669,3484.2651,3484.5167,3489.8649,space,5.3188,,3489.8651,39,46,3490.8644,3490.8645,3493.8503,space,2.9661,,0,31,31,31,1,165,70,,,,,,,,
,,611d03b822d4c8e041ea0c32,001,2023-12-14_08h40.41.214,bars,2023.2.3,Win32,60.60606061,,,,,,3493.8648,3494.8643,,,3495.3661,3495.6161,,76,76,,,,,,,,,,,,,,,,bars/015.png,bars/mask008.png,,,,,,,,,,,,0,1,,,,,,,2,8,1,10,,,,,,,,,,,3494.8644,3495.366,3495.6162,3502.1972,space,6.5528,,3502.1974,34,84,3503.1973,3503.1974,3507.7995,space,4.5817,,0,32,32,32,1,110,160,,,,,,,,
,,611d03b822d4c8e041ea0c32,001,2023-12-14_08h40.41.214,bars,2023.2.3,Win32,60.60606061,,,,,,3507.8139,3508.815,,,3509.3136,3509.5647,,76,76,,,,,,,,,,,,,,,,bars/021.png,bars/mask001.png,,,,,,,,,,,,6,2,,,,,,,0,10,1,8,,,,,,,,,,,3508.8151,3509.3135,3509.5648,3521.2131,space,11.6223,,3521.2132,79,6,3522.214,3522.2141,3614.7435,space,92.5047,,0,33,33,33,1,155,70,,,,,,,,
,,611d03b822d4c8e041ea0c32,001,2023-12-14_08h40.41.214,bars,2023.2.3,Win32,60.60606061,,,,,,3614.7572,3615.7571,,,3616.2589,3616.5099,,71,71,,,,,,,,,,,,,,,,bars/017.png,bars/mask006.png,,,,,,,,,,,,1,2,,,,,,,2,8,2,9,,,,,,,,,,,3615.7572,3616.2588,3616.5099,3622.2259,space,5.7003,,3622.226,74,26,3623.223,3623.2232,3688.303,space,65.0486,,0,34,34,34,1,145,45,,,,,,,,
,,611d03b822d4c8e041ea0c32,001,2023-12-14_08h40.41.214,bars,2023.2.3,Win32,60.60606061,,,,,,3688.3158,3689.3194,,,3689.8045,3690.0519,,74,74,,,,,,,,,,,,,,,,bars/036.png,bars/mask005.png,,,,,,,,,,,,0,2,,,,,,,4,6,4,7,,,,,,,,,,,3689.3194,3689.8045,3690.052,3694.0549,space,3.9841,,3694.055,71,54,3695.0524,3695.0524,3695.756,space,0.6838,,0,35,35,35,1,145,20,,,,,,,,
,,611d03b822d4c8e041ea0c32,001,2023-12-14_08h40.41.214,bars,2023.2.3,Win32,60.60606061,,,,,,3695.7566,3696.7542,,,3697.2552,3697.5042,,73,73,,,,,,,,,,,,,,,,bars/007.png,bars/mask000.png,,,,,,,,,,,,1,2,,,,,,,6,4,7,2,,,,,,,,,,,3696.7542,3697.2551,3697.5043,3702.171,space,4.6493,,3702.1712,78,18,3703.1726,3703.1727,3745.8852,space,42.6985,,0,36,36,36,1,175,55,,,,,,,,
,,611d03b822d4c8e041ea0c32,001,2023-12-14_08h40.41.214,bars,2023.2.3,Win32,60.60606061,,,,,,3745.8998,3746.8989,,,3747.3993,3747.6492,,61,61,,,,,,,,,,,,,,,,bars/037.png,bars/mask006.png,,,,,,,,,,,,0,2,,,,,,,4,6,5,6,,,,,,,,,,,3746.899,3747.3992,3747.6492,3758.5011,space,10.8335,,3758.5011,89,44,3759.4988,3759.4989,3780.8802,space,21.3617,,0,37,37,37,1,150,105,,,,,,,,
,,611d03b822d4c8e041ea0c32,001,2023-12-14_08h40.41.214,bars,2023.2.3,Win32,60.60606061,,,,,,3780.8878,3781.8817,,,3782.3824,3782.6306,,67,67,,,,,,,,,,,,,,,,bars/023.png,bars/mask007.png,,,,,,,,,,,,0,1,,,,,,,2,8,3,9,,,,,,,,,,,3781.8817,3782.3824,3782.6306,3794.7481,space,12.0996,,3794.7481,47,48,3795.7463,3795.7464,3817.4783,space,21.7027,,0,38,38,38,1,20,115,,,,,,,,
,,611d03b822d4c8e041ea0c32,001,2023-12-14_08h40.41.214,bars,2023.2.3,Win32,60.60606061,,,,,,3817.4912,3818.4966,,,3818.9798,3819.2302,,72,72,,,,,,,,,,,,,,,,bars/049.png,bars/mask006.png,,,,,,,,,,,,0,2,,,,,,,0,10,1,10,,,,,,,,,,,3818.4967,3818.9797,3819.2302,3823.8968,space,4.6501,,3823.8968,88,43,3824.8946,3824.8946,3864.1784,space,39.2622,,0,39,39,39,1,160,115,,,,,,,,
,,611d03b822d4c8e041ea0c32,001,2023-12-14_08h40.41.214,bars,2023.2.3,Win32,60.60606061,,,,,,3864.1932,3865.1936,,,3865.6939,3865.9442,,80,80,,,,,,,,,,,,,,,,bars/046.png,bars/mask008.png,,,,,,,,,,,,8,2,,,,,,,2,10,2,10,,,,,,,,,,,3865.1936,3865.6939,3865.9442,3871.8443,space,5.8839,,3871.8443,75,5,3872.8441,3872.8442,3878.0951,space,5.2174,,0,40,40,40,1,155,85,,,,,,,,
,,611d03b822d4c8e041ea0c32,001,2023-12-14_08h40.41.214,bars,2023.2.3,Win32,60.60606061,,,,,,3878.1087,3879.1096,,,3879.6079,3879.8585,,85,85,,,,,,,,,,,,,,,,bars/041.png,bars/mask008.png,,,,,,,,,,,,6,2,,,,,,,4,8,3,6,,,,,,,,,,,3879.1097,3879.6079,3879.8585,3885.5431,space,5.6668,,3885.5431,65,0,3886.5409,3886.5411,3889.2768,space,2.7159,,0,41,41,41,1,20,85,,,,,,,,
,,611d03b822d4c8e041ea0c32,001,2023-12-14_08h40.41.214,bars,2023.2.3,Win32,60.60606061,,,,,,3889.2775,3890.2744,,,3890.7753,3891.0259,,87,-93,,,,,,,,,,,,,,,,bars/038.png,bars/mask006.png,,,,,,,,,,,,4,2,,,,,,,6,10,5,9,,,,,,,,,,,3890.2745,3890.7752,3891.026,3900.9738,space,9.9238,,3900.9739,78,17,3901.976,3901.976,3907.1396,space,5.1395,,0,42,42,42,1,165,70,,,,,,,,
,,611d03b822d4c8e041ea0c32,001,2023-12-14_08h40.41.214,bars,2023.2.3,Win32,60.60606061,,,,,,3907.1529,3908.158,,,3908.6401,3908.8895,,88,88,,,,,,,,,,,,,,,,bars/023.png,bars/mask005.png,,,,,,,,,,,,1,2,,,,,,,4,10,5,9,,,,,,,,,,,3908.1581,3908.64,3908.8895,3913.3245,space,4.4166,,3913.3245,68,27,3914.3247,3914.3247,3920.4416,space,6.0991,,0,43,43,43,1,20,115,,,,,,,,
,,611d03b822d4c8e041ea0c32,001,2023-12-14_08h40.41.214,bars,2023.2.3,Win32,60.60606061,,,,,,3920.4559,3921.4555,,,3921.9563,3922.2068,,83,83,,,,,,,,,,,,,,,,bars/044.png,bars/mask001.png,,,,,,,,,,,,2,1,,,,,,,2,10,3,10,,,,,,,,,,,3921.4556,3921.9562,3922.2069,3991.4349,space,69.1984,,3991.435,8,72,3992.4343,3992.4343,4031.3322,space,38.8741,,0,44,44,44,1,75,155,,,,,,,,
,,611d03b822d4c8e041ea0c32,001,2023-12-14_08h40.41.214,bars,2023.2.3,Win32,60.60606061,,,,,,4031.3468,4032.3334,,,4032.8341,4033.0823,,88,-92,,,,,,,,,,,,,,,,bars/047.png,bars/mask008.png,,,,,,,,,,,,4,2,,,,,,,0,10,0,10,,,,,,,,,,,4032.3335,4032.8341,4033.0823,4039.8839,space,6.7832,,4039.884,73,18,4040.8833,4040.8834,4045.001,space,4.0963,,0,45,45,45,1,15,70,,,,,,,,
,,611d03b822d4c8e041ea0c32,001,2023-12-14_08h40.41.214,bars,2023.2.3,Win32,60.60606061,,,,,,4045.013,4046.0145,,,4046.515,4046.7664,,95,95,,,,,,,,,,,,,,,,bars/041.png,bars/mask009.png,,,,,,,,,,,,7,2,,,,,,,0,10,1,10,,,,,,,,,,,4046.0145,4046.515,4046.7665,4050.9672,space,4.1839,,4050.9673,75,10,4051.9643,4051.9645,4057.0992,space,5.1154,,0,46,46,46,1,20,85,,,,,,,,
,,611d03b822d4c8e041ea0c32,001,2023-12-14_08h40.41.214,bars,2023.2.3,Win32,60.60606061,,,,,,4057.1084,4058.0977,,,4058.5975,4058.847,,99,99,,,,,,,,,,,,,,,,bars/019.png,bars/mask002.png,,,,,,,,,,,,8,2,,,,,,,0,10,3,10,,,,,,,,,,,4058.0978,4058.5974,4058.8471,4067.6324,space,8.7664,,4067.6324,54,6,4068.6315,4068.6316,4201.7743,space,133.1235,,0,47,47,47,1,45,105,,,,,,,,
,,611d03b822d4c8e041ea0c32,001,2023-12-14_08h40.41.214,bars,2023.2.3,Win32,60.60606061,,,,,,4201.7893,4202.7886,,,4203.2888,4203.5404,,55,55,,,,,,,,,,,,,,,,bars/007.png,bars/mask007.png,,,,,,,,,,,,10,2,,,,,,,0,10,0,10,,,,,,,,,,,4202.7887,4203.2887,4203.5405,4207.0553,space,3.4935,,4207.0554,60,0,4208.0552,4208.0553,4211.8219,space,3.7403,,0,48,48,48,1,175,55,,,,,,,,
,,611d03b822d4c8e041ea0c32,001,2023-12-14_08h40.41.214,bars,2023.2.3,Win32,60.60606061,,,,,,4211.8351,4212.8398,,,4213.323,4213.5724,,66,66,,,,,,,,,,,,,,,,bars/030.png,bars/mask005.png,,,,,,,,,,,,8,2,,,,,,,2,8,1,8,,,,,,,,,,,4212.8398,4213.323,4213.5724,4221.5045,space,7.91,,4221.5046,74,1,4222.5037,4222.5037,4237.8866,space,15.3615,,0,49,49,49,1,140,65,,,,,,,,
,,611d03b822d4c8e041ea0c32,001,2023-12-14_08h40.41.214,bars,2023.2.3,Win32,60.60606061,,,,,,,,,,,,,,,,,,,,,,,,,,,,,,,,,,,,,,,,,,,,,,,,,,,,,,,,,,,,,,,,,,,,,,,,,,,,,,,,,,,,,,,,4237.9013,4297.9006,0,0,0,2,1,sequence_tables/blk012.csv
,,611d03b822d4c8e041ea0c32,001,2023-12-14_08h40.41.214,bars,2023.2.3,Win32,60.60606061,,,,,,4310.7137,4311.6985,,,4312.1991,4312.4483,,97,97,,,,,,,,,,,,,,,,bars/028.png,bars/mask008.png,,,,,,,,,,,,1,2,,,,,,,9,4,9,4,,,,,,4297.9154,4310.6981,space,12.7722,,4311.6986,4312.1991,4312.4484,4315.5818,space,3.1289,,4315.5819,52,23,4316.5814,4316.5814,4316.5964,,,,0,0,0,0,1,45,120,,,,,,,,
,,611d03b822d4c8e041ea0c32,001,2023-12-14_08h40.41.214,bars,2023.2.3,Win32,60.60606061,,,,,,4316.5966,4317.5984,,,4318.098,4318.348,,21,21,,,,,,,,,,,,,,,,bars/034.png,bars/mask000.png,,,,,,,,,,,,0,2,,,,,,,7,2,7,0,,,,,,,,,,,4317.5984,4318.0979,4318.348,4322.2813,space,3.9187,,4322.2814,76,44,4323.2809,4323.2809,4323.2958,,,,0,1,1,1,1,125,65,,,,,,,,
,,611d03b822d4c8e041ea0c32,001,2023-12-14_08h40.41.214,bars,2023.2.3,Win32,60.60606061,,,,,,4323.296,4324.2975,,,4324.7976,4325.0475,,155,155,,,,,,,,,,,,,,,,bars/012.png,bars/mask005.png,,,,,,,,,,,,0,2,,,,,,,9,0,8,1,,,,,,,,,,,4324.2976,4324.7975,4325.0475,4326.2976,space,1.2342,,4326.2978,65,40,4327.2979,4327.2979,4327.2989,,,,0,2,2,2,1,90,15,,,,,,,,
,,611d03b822d4c8e041ea0c32,001,2023-12-14_08h40.41.214,bars,2023.2.3,Win32,60.60606061,,,,,,4327.2993,4328.2972,,,4328.7974,4329.0472,,171,171,,,,,,,,,,,,,,,,bars/018.png,bars/mask003.png,,,,,,,,,,,,2,1,,,,,,,7,2,8,2,,,,,,,,,,,4328.2972,4328.7973,4329.0473,4331.0141,space,1.9563,,4331.0143,21,81,4332.0137,4332.0138,4332.0168,,,,0,3,3,3,1,150,90,,,,,,,,
,,611d03b822d4c8e041ea0c32,001,2023-12-14_08h40.41.214,bars,2023.2.3,Win32,60.60606061,,,,,,4332.0171,4333.0137,,,4333.5137,4333.7637,,135,135,,,,,,,,,,,,,,,,bars/003.png,bars/mask005.png,,,,,,,,,,,,3,2,,,,,,,9,4,9,4,,,,,,,,,,,4333.0137,4333.5137,4333.7637,4341.3465,space,7.5741,,4341.3467,70,5,4342.3466,4342.3466,4342.3615,,,,0,4,4,4,1,25,140,,,,,,,,
,,611d03b822d4c8e041ea0c32,001,2023-12-14_08h40.41.214,bars,2023.2.3,Win32,60.60606061,,,,,,4342.3617,4343.3635,,,4343.8631,4344.113,,17,17,,,,,,,,,,,,,,,,bars/037.png,bars/mask007.png,,,,,,,,,,,,0,1,,,,,,,10,6,10,6,,,,,,,,,,,4343.3636,4343.863,4344.1131,4348.3469,space,4.2217,,4348.3469,47,88,4349.3471,4349.3471,4349.3605,,,,0,5,5,5,1,150,105,,,,,,,,
,,611d03b822d4c8e041ea0c32,001,2023-12-14_08h40.41.214,bars,2023.2.3,Win32,60.60606061,,,,,,4349.3606,4350.3635,,,4350.8622,4351.1123,,47,47,,,,,,,,,,,,,,,,bars/022.png,bars/mask005.png,,,,,,,,,,,,1,2,,,,,,,8,4,9,6,,,,,,,,,,,4350.3636,4350.8622,4351.1123,4364.0281,space,12.8989,,4364.0282,48,27,4365.0284,4365.0284,4365.0454,,,,0,6,6,6,1,95,20,,,,,,,,
,,611d03b822d4c8e041ea0c32,001,2023-12-14_08h40.41.214,bars,2023.2.3,Win32,60.60606061,,,,,,4365.0456,4366.0451,,,4366.5451,4366.795,,127,127,,,,,,,,,,,,,,,,bars/020.png,bars/mask002.png,,,,,,,,,,,,6,1,,,,,,,10,2,10,2,,,,,,,,,,,4366.0452,4366.5451,4366.795,4368.9283,space,2.117,,4368.9285,12,43,4369.9281,4369.9282,4369.9452,,,,0,7,7,7,1,115,170,,,,,,,,
,,611d03b822d4c8e041ea0c32,001,2023-12-14_08h40.41.214,bars,2023.2.3,Win32,60.60606061,,,,,,4369.9454,4370.9448,,,4371.4448,4371.6946,,95,95,,,,,,,,,,,,,,,,bars/043.png,bars/mask006.png,,,,,,,,,,,,0,2,,,,,,,10,4,10,4,,,,,,,,,,,4370.9448,4371.4448,4371.6946,4372.8449,space,1.1424,,4372.8452,65,35,4373.8445,4373.8446,4373.8477,,,,0,8,8,8,1,30,130,,,,,,,,
,,611d03b822d4c8e041ea0c32,001,2023-12-14_08h40.41.214,bars,2023.2.3,Win32,60.60606061,,,,,,4373.848,4374.8445,,,4375.345,4375.5951,,49,49,,,,,,,,,,,,,,,,bars/039.png,bars/mask001.png,,,,,,,,,,,,0,1,,,,,,,8,6,6,5,,,,,,,,,,,4374.8445,4375.3448,4375.5951,4379.0772,space,3.4766,,4379.0773,54,56,4380.0781,4380.0784,4380.0925,,,,0,9,9,9,1,175,105,,,,,,,,
,,611d03b822d4c8e041ea0c32,001,2023-12-14_08h40.41.214,bars,2023.2.3,Win32,60.60606061,,,,,,4380.0926,4381.0942,,,4381.5943,4381.8461,,118,118,,,,,,,,,,,,,,,,bars/022.png,bars/mask004.png,,,,,,,,,,,,1,1,,,,,,,6,4,6,5,,,,,,,,,,,4381.0943,4381.5942,4381.8461,4403.012,space,21.1493,,4403.0121,23,82,4404.0097,4404.0097,4404.0252,,,,0,10,10,10,1,95,20,,,,,,,,
,,611d03b822d4c8e041ea0c32,001,2023-12-14_08h40.41.214,bars,2023.2.3,Win32,60.60606061,,,,,,4404.0257,4405.0264,,,4405.5263,4405.7775,,168,168,,,,,,,,,,,,,,,,bars/007.png,bars/mask006.png,,,,,,,,,,,,2,1,,,,,,,4,2,3,2,,,,,,,,,,,4405.0265,4405.5263,4405.7776,4414.7444,space,8.9498,,4414.7444,7,67,4415.7439,4415.7439,4415.7595,,,,0,11,11,11,1,175,55,,,,,,,,
,,611d03b822d4c8e041ea0c32,001,2023-12-14_08h40.41.214,bars,2023.2.3,Win32,60.60606061,,,,,,4415.7597,4416.7602,,,4417.2591,4417.509,,42,42,,,,,,,,,,,,,,,,bars/043.png,bars/mask005.png,,,,,,,,,,,,2,1,,,,,,,2,0,3,2,,,,,,,,,,,4416.7603,4417.2589,4417.509,4436.4607,space,18.9334,,4436.4607,12,88,4437.4572,4437.4573,4437.4751,,,,0,12,12,12,1,30,130,,,,,,,,
,,611d03b822d4c8e041ea0c32,001,2023-12-14_08h40.41.214,bars,2023.2.3,Win32,60.60606061,,,,,,4437.4753,4438.4762,,,4438.9757,4439.2253,,120,120,,,,,,,,,,,,,,,,bars/039.png,bars/mask007.png,,,,,,,,,,,,0,2,,,,,,,4,0,4,0,,,,,,,,,,,4438.4762,4438.9757,4439.2253,4440.6742,space,1.421,,4440.6742,55,15,4441.676,4441.6761,4441.6928,,,,0,13,13,13,1,175,105,,,,,,,,
,,611d03b822d4c8e041ea0c32,001,2023-12-14_08h40.41.214,bars,2023.2.3,Win32,60.60606061,,,,,,4441.693,4442.6924,,,4443.1908,4443.4406,,149,149,,,,,,,,,,,,,,,,bars/004.png,bars/mask009.png,,,,,,,,,,,,0,2,,,,,,,6,2,5,2,,,,,,,,,,,4442.6924,4443.1908,4443.4406,4445.0095,space,1.5502,,4445.0095,56,24,4446.0085,4446.0086,4446.0219,,,,0,14,14,14,1,25,125,,,,,,,,
,,611d03b822d4c8e041ea0c32,001,2023-12-14_08h40.41.214,bars,2023.2.3,Win32,60.60606061,,,,,,4446.022,4447.0237,,,4447.5239,4447.7752,,10,10,,,,,,,,,,,,,,,,bars/049.png,bars/mask004.png,,,,,,,,,,,,0,1,,,,,,,8,4,10,6,,,,,,,,,,,4447.0238,4447.5237,4447.7753,4451.507,space,3.7075,,4451.5071,30,75,4452.5068,4452.5069,4452.5239,,,,0,15,15,15,1,160,115,,,,,,,,
,,611d03b822d4c8e041ea0c32,001,2023-12-14_08h40.41.214,bars,2023.2.3,Win32,60.60606061,,,,,,4452.524,4453.5254,,,4454.0233,4454.2732,,172,172,,,,,,,,,,,,,,,,bars/034.png,bars/mask002.png,,,,,,,,,,,,0,1,,,,,,,10,6,10,7,,,,,,,,,,,4453.5255,4454.0233,4454.2735,4455.6904,space,1.393,,4455.6904,47,73,4456.6896,4456.6897,4456.6907,,,,0,16,16,16,1,125,65,,,,,,,,
,,611d03b822d4c8e041ea0c32,001,2023-12-14_08h40.41.214,bars,2023.2.3,Win32,60.60606061,,,,,,4456.691,4457.6896,,,4458.1916,4458.4415,,99,99,,,,,,,,,,,,,,,,bars/011.png,bars/mask000.png,,,,,,,,,,,,3,2,,,,,,,8,4,8,5,,,,,,,,,,,4457.6898,4458.1915,4458.4415,4459.8261,space,1.3678,,4459.8261,61,14,4460.8248,4460.8248,4460.8271,,,,0,17,17,17,1,160,85,,,,,,,,
,,611d03b822d4c8e041ea0c32,001,2023-12-14_08h40.41.214,bars,2023.2.3,Win32,60.60606061,,,,,,4460.8274,4461.8248,,,4462.342,4462.5912,,118,118,,,,,,,,,,,,,,,,bars/012.png,bars/mask004.png,,,,,,,,,,,,0,1,,,,,,,6,6,5,6,,,,,,,,,,,4461.8248,4462.3419,4462.5912,4478.8912,space,16.2833,,4478.8912,28,77,4479.8882,4479.8883,4479.9052,,,,0,18,18,18,1,90,15,,,,,,,,
,,611d03b822d4c8e041ea0c32,001,2023-12-14_08h40.41.214,bars,2023.2.3,Win32,60.60606061,,,,,,4479.9054,4480.9068,,,4481.4055,4481.657,,104,104,,,,,,,,,,,,,,,,bars/007.png,bars/mask005.png,,,,,,,,,,,,0,2,,,,,,,8,8,8,8,,,,,,,,,,,4480.9068,4481.4054,4481.657,4483.6241,space,1.9504,,4483.6241,71,49,4484.6215,4484.6216,4484.6375,,,,0,19,19,19,1,175,55,,,,,,,,
,,611d03b822d4c8e041ea0c32,001,2023-12-14_08h40.41.214,bars,2023.2.3,Win32,60.60606061,,,,,,4484.6379,4485.6381,,,4486.1382,4486.3881,,111,111,,,,,,,,,,,,,,,,bars/037.png,bars/mask004.png,,,,,,,,,,,,4,2,,,,,,,10,6,10,5,,,,,,,,,,,4485.6384,4486.1381,4486.3884,4489.9403,space,3.5338,,4489.9404,39,6,4490.9379,4490.9379,4490.953,,,,0,20,20,20,1,150,105,,,,,,,,
,,611d03b822d4c8e041ea0c32,001,2023-12-14_08h40.41.214,bars,2023.2.3,Win32,60.60606061,,,,,,4490.9532,4491.9557,,,4492.4543,4492.7044,,126,126,,,,,,,,,,,,,,,,bars/030.png,bars/mask003.png,,,,,,,,,,,,4,1,,,,,,,8,8,8,8,,,,,,,,,,,4491.9558,4492.4541,4492.7044,4498.2066,space,5.4989,,4498.2066,14,61,4499.2036,4499.2038,4499.2192,,,,0,21,21,21,1,140,65,,,,,,,,
,,611d03b822d4c8e041ea0c32,001,2023-12-14_08h40.41.214,bars,2023.2.3,Win32,60.60606061,,,,,,4499.2194,4500.2225,,,4500.7227,4500.9705,,52,52,,,,,,,,,,,,,,,,bars/010.png,bars/mask000.png,,,,,,,,,,,,9,2,,,,,,,6,10,4,10,,,,,,,,,,,4500.2225,4500.7226,4500.9705,4516.7697,space,15.7745,,4516.7698,67,3,4517.7713,4517.7713,4517.7879,,,,0,22,22,22,1,165,55,,,,,,,,
,,611d03b822d4c8e041ea0c32,001,2023-12-14_08h40.41.214,bars,2023.2.3,Win32,60.60606061,,,,,,4517.7881,4518.7873,,,4519.2875,4519.5362,,69,69,,,,,,,,,,,,,,,,bars/033.png,bars/mask008.png,,,,,,,,,,,,0,1,,,,,,,4,10,4,9,,,,,,,,,,,4518.7875,4519.2875,4519.5362,4539.4869,space,19.9323,,4539.4869,44,86,4540.4848,4540.4849,4540.5034,,,,0,23,23,23,1,25,155,,,,,,,,
,,611d03b822d4c8e041ea0c32,001,2023-12-14_08h40.41.214,bars,2023.2.3,Win32,60.60606061,,,,,,4540.5037,4541.5015,,,4542.0016,4542.253,,25,205,,,,,,,,,,,,,,,,bars/046.png,bars/mask002.png,,,,,,,,,,,,0,1,,,,,,,6,8,7,8,,,,,,,,,,,4541.5016,4542.0015,4542.2531,4563.8195,space,21.5496,,4563.8195,50,60,4564.8168,4564.8168,4564.833,,,,0,24,24,24,1,155,85,,,,,,,,
,,611d03b822d4c8e041ea0c32,001,2023-12-14_08h40.41.214,bars,2023.2.3,Win32,60.60606061,,,,,,4564.8333,4565.8351,,,4566.3333,4566.5834,,146,146,,,,,,,,,,,,,,,,bars/045.png,bars/mask000.png,,,,,,,,,,,,0,2,,,,,,,8,6,9,4,,,,,,,,,,,4565.8351,4566.3332,4566.5834,4574.7663,space,8.1627,,4574.7665,46,44,4575.766,4575.7661,4575.7832,,,,0,25,25,25,1,100,10,,,,,,,,
,,611d03b822d4c8e041ea0c32,001,2023-12-14_08h40.41.214,bars,2023.2.3,Win32,60.60606061,,,,,,4575.7834,4576.7826,,,4577.2825,4577.5326,,63,63,,,,,,,,,,,,,,,,bars/022.png,bars/mask008.png,,,,,,,,,,,,0,1,,,,,,,10,4,10,5,,,,,,,,,,,4576.7827,4577.2825,4577.5327,4585.0516,space,7.5003,,4585.0516,32,43,4586.0505,4586.0506,4586.0669,,,,0,26,26,26,1,95,20,,,,,,,,
,,611d03b822d4c8e041ea0c32,001,2023-12-14_08h40.41.214,bars,2023.2.3,Win32,60.60606061,,,,,,4586.0672,4587.0666,,,4587.5657,4587.8168,,63,63,,,,,,,,,,,,,,,,bars/031.png,bars/mask006.png,,,,,,,,,,,,0,2,,,,,,,8,6,9,5,,,,,,,,,,,4587.0666,4587.5656,4587.8169,4591.8655,space,4.0286,,4591.8656,57,28,4592.8649,4592.865,4592.8832,,,,0,27,27,27,1,120,35,,,,,,,,
,,611d03b822d4c8e041ea0c32,001,2023-12-14_08h40.41.214,bars,2023.2.3,Win32,60.60606061,,,,,,4592.8835,4593.8815,,,4594.3817,4594.6332,,14,14,,,,,,,,,,,,,,,,bars/038.png,bars/mask009.png,,,,,,,,,,,,0,1,,,,,,,10,8,10,10,,,,,,,,,,,4593.8816,4594.3817,4594.6332,4613.0834,space,18.433,,4613.0835,29,56,4614.0827,4614.0828,4614.0977,,,,0,28,28,28,1,165,70,,,,,,,,
,,611d03b822d4c8e041ea0c32,001,2023-12-14_08h40.41.214,bars,2023.2.3,Win32,60.60606061,,,,,,4614.098,4615.0972,,,4615.5987,4615.8486,,81,81,,,,,,,,,,,,,,,,bars/036.png,bars/mask003.png,,,,,,,,,,,,0,2,,,,,,,8,6,10,6,,,,,,,,,,,4615.0973,4615.5987,4615.8487,4663.1467,space,47.2812,,4663.1468,64,61,4664.1455,4664.1456,4664.1631,,,,0,29,29,29,1,145,20,,,,,,,,
,,611d03b822d4c8e041ea0c32,001,2023-12-14_08h40.41.214,bars,2023.2.3,Win32,60.60606061,,,,,,4664.1633,4665.1607,,,4665.6608,4665.9107,,162,-18,,,,,,,,,,,,,,,,bars/008.png,bars/mask001.png,,,,,,,,,,,,4,2,,,,,,,6,8,7,9,,,,,,,,,,,4665.1607,4665.6607,4665.9108,4733.9396,space,68.0055,,4733.9397,52,18,4734.9403,4734.9403,4734.9534,,,,0,30,30,30,1,110,0,,,,,,,,
,,611d03b822d4c8e041ea0c32,001,2023-12-14_08h40.41.214,bars,2023.2.3,Win32,60.60606061,,,,,,4734.9536,4735.9565,,,4736.4556,4736.7057,,21,21,,,,,,,,,,,,,,,,bars/012.png,bars/mask001.png,,,,,,,,,,,,5,2,,,,,,,4,6,3,6,,,,,,,,,,,4735.9567,4736.4556,4736.7057,4740.9389,space,4.2265,,4740.9389,69,6,4741.9392,4741.9392,4741.9548,,,,0,31,31,31,1,90,15,,,,,,,,
,,611d03b822d4c8e041ea0c32,001,2023-12-14_08h40.41.214,bars,2023.2.3,Win32,60.60606061,,,,,,4741.9552,4742.9558,,,4743.4558,4743.7057,,19,19,,,,,,,,,,,,,,,,bars/043.png,bars/mask001.png,,,,,,,,,,,,3,1,,,,,,,6,4,5,3,,,,,,,,,,,4742.9558,4743.4557,4743.7057,4745.7223,space,2.0097,,4745.7224,11,69,4746.7222,4746.7222,4746.7252,,,,0,32,32,32,1,30,130,,,,,,,,
,,611d03b822d4c8e041ea0c32,001,2023-12-14_08h40.41.214,bars,2023.2.3,Win32,60.60606061,,,,,,4746.7256,4747.7214,,,4748.2222,4748.4715,,169,-11,,,,,,,,,,,,,,,,bars/016.png,bars/mask003.png,,,,,,,,,,,,2,2,,,,,,,8,2,10,2,,,,,,,,,,,4747.7216,4748.2221,4748.4715,4750.7385,space,2.2633,,4750.7385,51,4,4751.7408,4751.7409,4751.7564,,,,0,33,33,33,1,40,165,,,,,,,,
,,611d03b822d4c8e041ea0c32,001,2023-12-14_08h40.41.214,bars,2023.2.3,Win32,60.60606061,,,,,,4751.7566,4752.7549,,,4753.2585,4753.5069,,122,122,,,,,,,,,,,,,,,,bars/004.png,bars/mask004.png,,,,,,,,,,,,0,2,,,,,,,6,0,6,0,,,,,,,,,,,4752.7551,4753.2583,4753.507,4762.5553,space,9.0304,,4762.5555,83,3,4763.5561,4763.5562,4763.572,,,,0,34,34,34,1,25,125,,,,,,,,
,,611d03b822d4c8e041ea0c32,001,2023-12-14_08h40.41.214,bars,2023.2.3,Win32,60.60606061,,,,,,4763.5723,4764.5734,,,4765.0731,4765.3232,,127,127,,,,,,,,,,,,,,,,bars/006.png,bars/mask000.png,,,,,,,,,,,,0,2,,,,,,,4,0,1,0,,,,,,,,,,,4764.5734,4765.073,4765.3233,4771.8546,space,6.5032,,4771.8547,88,27,4772.8542,4772.8545,4772.8698,,,,0,35,35,35,1,35,100,,,,,,,,
,,611d03b822d4c8e041ea0c32,001,2023-12-14_08h40.41.214,bars,2023.2.3,Win32,60.60606061,,,,,,4772.8701,4773.8727,,,4774.3729,4774.6223,,76,76,,,,,,,,,,,,,,,,bars/031.png,bars/mask001.png,,,,,,,,,,,,0,2,,,,,,,6,2,6,3,,,,,,,,,,,4773.8727,4774.3729,4774.6224,4813.2186,space,38.5767,,4813.2188,44,41,4814.2182,4814.2182,4814.2193,,,,0,36,36,36,1,120,35,,,,,,,,
,,611d03b822d4c8e041ea0c32,001,2023-12-14_08h40.41.214,bars,2023.2.3,Win32,60.60606061,,,,,,4814.2197,4815.2184,,,4815.7186,4815.9683,,40,40,,,,,,,,,,,,,,,,bars/045.png,bars/mask001.png,,,,,,,,,,,,0,2,,,,,,,4,0,5,1,,,,,,,,,,,4815.2184,4815.7184,4815.9683,4816.8518,space,0.8642,,4816.8519,60,30,4817.8514,4817.8515,4817.8659,,,,0,37,37,37,1,100,10,,,,,,,,
,,611d03b822d4c8e041ea0c32,001,2023-12-14_08h40.41.214,bars,2023.2.3,Win32,60.60606061,,,,,,4817.8661,4818.8678,,,4819.3699,4819.6183,,44,44,,,,,,,,,,,,,,,,bars/048.png,bars/mask001.png,,,,,,,,,,,,1,1,,,,,,,2,0,1,0,,,,,,,,,,,4818.868,4819.3699,4819.6185,4821.6374,space,2.0007,,4821.6374,6,49,4822.6362,4822.6363,4822.6528,,,,0,38,38,38,1,50,175,,,,,,,,
,,611d03b822d4c8e041ea0c32,001,2023-12-14_08h40.41.214,bars,2023.2.3,Win32,60.60606061,,,,,,4822.653,4823.6531,,,4824.1511,4824.4013,,89,89,,,,,,,,,,,,,,,,bars/017.png,bars/mask004.png,,,,,,,,,,,,0,2,,,,,,,0,2,0,2,,,,,,,,,,,4823.6532,4824.1511,4824.4013,4843.7001,space,19.2756,,4843.7003,56,44,4844.6996,4844.6999,4844.7141,,,,0,39,39,39,1,145,45,,,,,,,,
,,611d03b822d4c8e041ea0c32,001,2023-12-14_08h40.41.214,bars,2023.2.3,Win32,60.60606061,,,,,,4844.7143,4845.716,,,4846.2177,4846.4665,,59,59,,,,,,,,,,,,,,,,bars/045.png,bars/mask002.png,,,,,,,,,,,,0,1,,,,,,,0,0,1,2,,,,,,,,,,,4845.716,4846.2177,4846.4666,4847.6998,space,1.2039,,4847.6999,41,49,4848.6996,4848.6996,4848.7022,,,,0,40,40,40,1,100,10,,,,,,,,
,,611d03b822d4c8e041ea0c32,001,2023-12-14_08h40.41.214,bars,2023.2.3,Win32,60.60606061,,,,,,4848.7027,4849.7009,,,4850.1994,4850.4512,,46,46,,,,,,,,,,,,,,,,bars/023.png,bars/mask009.png,,,,,,,,,,,,0,1,,,,,,,0,0,0,0,,,,,,,,,,,4849.701,4850.1994,4850.4512,4852.8329,space,2.3522,,4852.8329,26,69,4853.8344,4853.8344,4853.845,,,,0,41,41,41,1,20,115,,,,,,,,
,,611d03b822d4c8e041ea0c32,001,2023-12-14_08h40.41.214,bars,2023.2.3,Win32,60.60606061,,,,,,4853.8451,4854.8526,,,4855.3511,4855.5993,,138,138,,,,,,,,,,,,,,,,bars/014.png,bars/mask005.png,,,,,,,,,,,,0,2,,,,,,,2,0,1,1,,,,,,,,,,,4854.8526,4855.3509,4855.5995,4856.6017,space,0.9838,,4856.6017,58,42,4857.5991,4857.5992,4857.6017,,,,0,42,42,42,1,80,0,,,,,,,,
,,611d03b822d4c8e041ea0c32,001,2023-12-14_08h40.41.214,bars,2023.2.3,Win32,60.60606061,,,,,,4857.602,4858.6006,,,4859.0992,4859.351,,172,-8,,,,,,,,,,,,,,,,bars/014.png,bars/mask003.png,,,,,,,,,,,,0,2,,,,,,,0,0,0,0,,,,,,,,,,,4858.6007,4859.0992,4859.3511,4864.2514,space,4.884,,4864.2515,88,8,4865.2487,4865.2487,4865.2632,,,,0,43,43,43,1,80,0,,,,,,,,
,,611d03b822d4c8e041ea0c32,001,2023-12-14_08h40.41.214,bars,2023.2.3,Win32,60.60606061,,,,,,4865.2633,4866.267,,,4866.7671,4867.0171,,168,-12,,,,,,,,,,,,,,,,bars/023.png,bars/mask006.png,,,,,,,,,,,,0,1,,,,,,,2,0,2,1,,,,,,,,,,,4866.267,4866.767,4867.0171,4868.7346,space,1.701,,4868.7346,32,53,4869.7316,4869.7318,4869.7431,,,,0,44,44,44,1,20,115,,,,,,,,
,,611d03b822d4c8e041ea0c32,001,2023-12-14_08h40.41.214,bars,2023.2.3,Win32,60.60606061,,,,,,4869.7432,4870.732,,,4871.2318,4871.4835,,20,20,,,,,,,,,,,,,,,,bars/007.png,bars/mask008.png,,,,,,,,,,,,1,1,,,,,,,4,2,4,2,,,,,,,,,,,4870.7321,4871.2317,4871.4836,4874.1482,space,2.6385,,4874.1484,25,35,4875.1498,4875.1498,4875.1646,,,,0,45,45,45,1,175,55,,,,,,,,
,,611d03b822d4c8e041ea0c32,001,2023-12-14_08h40.41.214,bars,2023.2.3,Win32,60.60606061,,,,,,4875.1648,4876.1647,,,4876.6649,4876.9146,,62,62,,,,,,,,,,,,,,,,bars/021.png,bars/mask002.png,,,,,,,,,,,,3,2,,,,,,,2,4,2,4,,,,,,,,,,,4876.1649,4876.6649,4876.9148,4877.8995,space,0.9667,,4877.8996,87,8,4878.8971,4878.8973,4878.904,,,,0,46,46,46,1,155,70,,,,,,,,
,,611d03b822d4c8e041ea0c32,001,2023-12-14_08h40.41.214,bars,2023.2.3,Win32,60.60606061,,,,,,4878.9041,4879.8978,,,4880.3998,4880.6494,,47,47,,,,,,,,,,,,,,,,bars/044.png,bars/mask008.png,,,,,,,,,,,,0,1,,,,,,,4,2,4,2,,,,,,,,,,,4879.8981,4880.3997,4880.6495,4882.267,space,1.6008,,4882.2671,28,72,4883.2642,4883.2644,4883.2812,,,,0,47,47,47,1,75,155,,,,,,,,
,,611d03b822d4c8e041ea0c32,001,2023-12-14_08h40.41.214,bars,2023.2.3,Win32,60.60606061,,,,,,4883.2814,4884.2814,,,4884.7809,4885.0313,,145,145,,,,,,,,,,,,,,,,bars/023.png,bars/mask008.png,,,,,,,,,,,,0,2,,,,,,,6,0,5,0,,,,,,,,,,,4884.2814,4884.7808,4885.0314,4886.2,space,1.151,,4886.2001,55,30,4887.1974,4887.1975,4887.2136,,,,0,48,48,48,1,20,115,,,,,,,,
,,611d03b822d4c8e041ea0c32,001,2023-12-14_08h40.41.214,bars,2023.2.3,Win32,60.60606061,,,,,,4887.2139,4888.214,,,4888.7155,4888.9656,,136,136,,,,,,,,,,,,,,,,bars/046.png,bars/mask007.png,,,,,,,,,,,,2,1,,,,,,,4,0,6,0,,,,,,,,,,,4888.2141,4888.7155,4888.9656,4890.2,space,1.2173,,4890.2,19,51,4891.1972,4891.1972,4891.2138,,,,0,49,49,49,1,155,85,,,,,,,,
,,611d03b822d4c8e041ea0c32,001,2023-12-14_08h40.41.214,bars,2023.2.3,Win32,60.60606061,,,,,,,,,,,,,,,,,,,,,,,,,,,,,,,,,,,,,,,,,,,,,,,,,,,,,,,,,,,,,,,,,,,,,,,,,,,,,,,,,,,,,,,,4891.214,4951.2099,0,1,1,4,1,sequence_tables/blk027.csv
,,611d03b822d4c8e041ea0c32,001,2023-12-14_08h40.41.214,bars,2023.2.3,Win32,60.60606061,,,,,,4985.3118,4986.3081,,,4986.8083,4987.0592,,98,98,,,,,,,,,,,,,,,,bars/006.png,bars/mask003.png,,,,,,,,,,,,8,2,,,,,,,0,10,1,9,,,,,,4951.2255,4985.2943,space,34.0654,,4986.3083,4986.8082,4987.0592,4989.094,space,2.0175,,4989.094,63,2,4990.0912,4990.0914,4990.1079,,,,0,0,0,0,1,35,100,,,,,,,,
,,611d03b822d4c8e041ea0c32,001,2023-12-14_08h40.41.214,bars,2023.2.3,Win32,60.60606061,,,,,,4990.1082,4991.1097,,,4991.6096,4991.8578,,158,158,,,,,,,,,,,,,,,,bars/035.png,bars/mask006.png,,,,,,,,,,,,0,1,,,,,,,0,10,0,10,,,,,,,,,,,4991.1097,4991.6096,4991.8579,5030.6558,space,38.7715,,5030.6559,17,82,5031.6585,5031.6586,5031.6653,,,,0,1,1,1,1,175,60,,,,,,,,
,,611d03b822d4c8e041ea0c32,001,2023-12-14_08h40.41.214,bars,2023.2.3,Win32,60.60606061,,,,,,5031.6655,5032.6566,,,5033.1553,5033.405,,3,3,,,,,,,,,,,,,,,,bars/008.png,bars/mask003.png,,,,,,,,,,,,9,2,,,,,,,0,10,0,10,,,,,,,,,,,5032.6567,5033.1552,5033.405,5045.0378,space,11.6178,,5045.0379,73,3,5046.0377,5046.0377,5046.0548,,,,0,2,2,2,1,110,0,,,,,,,,
,,611d03b822d4c8e041ea0c32,001,2023-12-14_08h40.41.214,bars,2023.2.3,Win32,60.60606061,,,,,,5046.055,5047.0541,,,5047.5547,5047.8041,,151,-29,,,,,,,,,,,,,,,,bars/000.png,bars/mask003.png,,,,,,,,,,,,7,2,,,,,,,0,8,0,9,,,,,,,,,,,5047.0541,5047.5547,5047.8041,5051.2871,space,3.4673,,5051.2872,69,6,5052.2877,5052.2877,5052.3027,,,,0,3,3,3,1,40,145,,,,,,,,
,,611d03b822d4c8e041ea0c32,001,2023-12-14_08h40.41.214,bars,2023.2.3,Win32,60.60606061,,,,,,5052.3029,5053.3045,,,5053.8047,5054.054,,46,46,,,,,,,,,,,,,,,,bars/043.png,bars/mask009.png,,,,,,,,,,,,1,1,,,,,,,2,10,3,10,,,,,,,,,,,5053.3045,5053.8046,5054.054,5073.5031,space,19.4389,,5073.5033,16,84,5074.5032,5074.5032,5074.5197,,,,0,4,4,4,1,30,130,,,,,,,,
,,611d03b822d4c8e041ea0c32,001,2023-12-14_08h40.41.214,bars,2023.2.3,Win32,60.60606061,,,,,,5074.5198,5075.519,,,5076.0193,5076.2695,,9,9,,,,,,,,,,,,,,,,bars/004.png,bars/mask002.png,,,,,,,,,,,,0,1,,,,,,,0,10,0,10,,,,,,,,,,,5075.519,5076.0192,5076.2695,5083.3853,space,7.1084,,5083.3855,16,64,5084.3853,5084.3854,5084.3945,,,,0,5,5,5,1,25,125,,,,,,,,
,,611d03b822d4c8e041ea0c32,001,2023-12-14_08h40.41.214,bars,2023.2.3,Win32,60.60606061,,,,,,5084.3946,5085.3853,,,5085.8851,5086.1352,,161,161,,,,,,,,,,,,,,,,bars/049.png,bars/mask006.png,,,,,,,,,,,,1,1,,,,,,,2,10,1,10,,,,,,,,,,,5085.3853,5085.885,5086.1353,5088.6525,space,2.5098,,5088.6525,1,46,5089.6524,5089.6524,5089.6667,,,,0,6,6,6,1,160,115,,,,,,,,
,,611d03b822d4c8e041ea0c32,001,2023-12-14_08h40.41.214,bars,2023.2.3,Win32,60.60606061,,,,,,5089.6669,5090.6686,,,5091.1683,5091.3875,,1,1,,,,,,,,,,,,,,,,bars/007.png,bars/mask003.png,,,,,,,,,,,,0,1,,,,,,,0,10,0,9,,,,,,,,,,,5090.6686,5091.1683,5091.3876,5111.5509,space,20.1214,,5111.5511,6,54,5112.551,5112.5511,5112.5671,,,,0,7,7,7,1,175,55,,,,,,,,
,,611d03b822d4c8e041ea0c32,001,2023-12-14_08h40.41.214,bars,2023.2.3,Win32,60.60606061,,,,,,5112.5674,5113.5676,,,5114.067,5114.3174,,54,54,,,,,,,,,,,,,,,,bars/010.png,bars/mask007.png,,,,,,,,,,,,7,2,,,,,,,2,8,2,7,,,,,,,,,,,5113.5677,5114.0669,5114.3174,5122.0007,space,7.659,,5122.0007,69,1,5123.0005,5123.0005,5123.0167,,,,0,8,8,8,1,165,55,,,,,,,,
,,611d03b822d4c8e041ea0c32,001,2023-12-14_08h40.41.214,bars,2023.2.3,Win32,60.60606061,,,,,,5123.0169,5124.0179,,,5124.5185,5124.7665,,49,49,,,,,,,,,,,,,,,,bars/029.png,bars/mask006.png,,,,,,,,,,,,5,2,,,,,,,0,6,1,6,,,,,,,,,,,5124.0179,5124.5184,5124.7666,5131.685,space,6.8999,,5131.6851,41,4,5132.6831,5132.6832,5132.6991,,,,0,9,9,9,1,90,45,,,,,,,,
,,611d03b822d4c8e041ea0c32,001,2023-12-14_08h40.41.214,bars,2023.2.3,Win32,60.60606061,,,,,,5132.6994,5133.6994,,,5134.2007,5134.4504,,85,85,,,,,,,,,,,,,,,,bars/025.png,bars/mask006.png,,,,,,,,,,,,1,1,,,,,,,2,8,2,7,,,,,,,,,,,5133.6996,5134.2007,5134.4504,5136.1323,space,1.654,,5136.1323,20,45,5137.1325,5137.1325,5137.1487,,,,0,10,10,10,1,105,40,,,,,,,,
,,611d03b822d4c8e041ea0c32,001,2023-12-14_08h40.41.214,bars,2023.2.3,Win32,60.60606061,,,,,,5137.1489,5138.1508,,,5138.6496,5138.8992,,140,140,,,,,,,,,,,,,,,,bars/044.png,bars/mask008.png,,,,,,,,,,,,3,2,,,,,,,0,6,0,6,,,,,,,,,,,5138.1508,5138.6495,5138.8993,5141.1682,space,2.2511,,5141.1683,65,15,5142.1651,5142.1653,5142.1807,,,,0,11,11,11,1,75,155,,,,,,,,
,,611d03b822d4c8e041ea0c32,001,2023-12-14_08h40.41.214,bars,2023.2.3,Win32,60.60606061,,,,,,5142.1808,5143.1837,,,5143.6836,5143.9339,,47,47,,,,,,,,,,,,,,,,bars/021.png,bars/mask006.png,,,,,,,,,,,,1,2,,,,,,,0,4,0,5,,,,,,,,,,,5143.1837,5143.6836,5143.9339,5146.1982,space,2.247,,5146.1983,72,23,5147.1999,5147.2001,5147.215,,,,0,12,12,12,1,155,70,,,,,,,,
,,611d03b822d4c8e041ea0c32,001,2023-12-14_08h40.41.214,bars,2023.2.3,Win32,60.60606061,,,,,,5147.2152,5148.2168,,,5148.7154,5148.965,,67,67,,,,,,,,,,,,,,,,bars/006.png,bars/mask009.png,,,,,,,,,,,,0,1,,,,,,,2,2,2,3,,,,,,,,,,,5148.2168,5148.7154,5148.9651,5151.0848,space,2.1012,,5151.0848,32,33,5152.0814,5152.0815,5152.0974,,,,0,13,13,13,1,35,100,,,,,,,,
,,611d03b822d4c8e041ea0c32,001,2023-12-14_08h40.41.214,bars,2023.2.3,Win32,60.60606061,,,,,,5152.0978,5153.0984,,,5153.5999,5153.85,,19,19,,,,,,,,,,,,,,,,bars/015.png,bars/mask000.png,,,,,,,,,,,,0,2,,,,,,,4,4,5,4,,,,,,,,,,,5153.0984,5153.5997,5153.85,5155.1669,space,1.3002,,5155.1669,89,39,5156.1659,5156.166,5156.1682,,,,0,14,14,14,1,110,160,,,,,,,,
,,611d03b822d4c8e041ea0c32,001,2023-12-14_08h40.41.214,bars,2023.2.3,Win32,60.60606061,,,,,,5156.1686,5157.165,,,5157.6662,5157.9163,,13,13,,,,,,,,,,,,,,,,bars/006.png,bars/mask006.png,,,,,,,,,,,,0,1,,,,,,,2,6,0,3,,,,,,,,,,,5157.165,5157.6662,5157.9164,5160.2166,space,2.2838,,5160.2167,22,87,5161.2146,5161.2146,5161.2171,,,,0,15,15,15,1,35,100,,,,,,,,
,,611d03b822d4c8e041ea0c32,001,2023-12-14_08h40.41.214,bars,2023.2.3,Win32,60.60606061,,,,,,5161.2175,5162.215,,,5162.7158,5162.9659,,38,38,,,,,,,,,,,,,,,,bars/044.png,bars/mask000.png,,,,,,,,,,,,0,1,,,,,,,4,4,3,4,,,,,,,,,,,5162.215,5162.7158,5162.9659,5165.0002,space,2.0176,,5165.0002,37,63,5165.9972,5165.9974,5166.0114,,,,0,16,16,16,1,75,155,,,,,,,,
,,611d03b822d4c8e041ea0c32,001,2023-12-14_08h40.41.214,bars,2023.2.3,Win32,60.60606061,,,,,,5166.0116,5167.0144,,,5167.5156,5167.7658,,126,126,,,,,,,,,,,,,,,,bars/013.png,bars/mask001.png,,,,,,,,,,,,0,1,,,,,,,2,6,3,5,,,,,,,,,,,5167.0145,5167.5156,5167.7658,5169.9474,space,2.1552,,5169.9475,51,64,5170.9474,5170.9475,5170.9486,,,,0,17,17,17,1,75,10,,,,,,,,
,,611d03b822d4c8e041ea0c32,001,2023-12-14_08h40.41.214,bars,2023.2.3,Win32,60.60606061,,,,,,5170.949,5171.9486,,,5172.447,5172.6986,,121,121,,,,,,,,,,,,,,,,bars/008.png,bars/mask004.png,,,,,,,,,,,,3,1,,,,,,,4,8,5,8,,,,,,,,,,,5171.9486,5172.447,5172.6987,5175.3309,space,2.6038,,5175.3309,11,59,5176.3309,5176.331,5176.3453,,,,0,18,18,18,1,110,0,,,,,,,,
,,611d03b822d4c8e041ea0c32,001,2023-12-14_08h40.41.214,bars,2023.2.3,Win32,60.60606061,,,,,,5176.3464,5177.3486,,,5177.8468,5178.0966,,142,142,,,,,,,,,,,,,,,,bars/045.png,bars/mask006.png,,,,,,,,,,,,0,1,,,,,,,6,10,7,10,,,,,,,,,,,5177.3486,5177.8468,5178.0967,5188.0313,space,9.9162,,5188.0313,42,48,5189.0292,5189.0293,5189.0444,,,,0,19,19,19,1,100,10,,,,,,,,
,,611d03b822d4c8e041ea0c32,001,2023-12-14_08h40.41.214,bars,2023.2.3,Win32,60.60606061,,,,,,5189.0446,5190.0457,,,5190.5474,5190.7976,,168,168,,,,,,,,,,,,,,,,bars/006.png,bars/mask007.png,,,,,,,,,,,,0,1,,,,,,,8,10,8,10,,,,,,,,,,,5190.0457,5190.5473,5190.7977,5192.1792,space,1.3536,,5192.1792,47,68,5193.1794,5193.1795,5193.1936,,,,0,20,20,20,1,35,100,,,,,,,,
,,611d03b822d4c8e041ea0c32,001,2023-12-14_08h40.41.214,bars,2023.2.3,Win32,60.60606061,,,,,,5193.1938,5194.1977,,,5194.6974,5194.946,,21,21,,,,,,,,,,,,,,,,bars/004.png,bars/mask002.png,,,,,,,,,,,,9,1,,,,,,,10,8,10,8,,,,,,,,,,,5194.1977,5194.6974,5194.946,5197.7478,space,2.7837,,5197.7479,4,76,5198.7458,5198.7458,5198.7545,,,,0,21,21,21,1,25,125,,,,,,,,
,,611d03b822d4c8e041ea0c32,001,2023-12-14_08h40.41.214,bars,2023.2.3,Win32,60.60606061,,,,,,5198.7546,5199.7455,,,5200.2458,5200.4953,,75,75,,,,,,,,,,,,,,,,bars/048.png,bars/mask006.png,,,,,,,,,,,,2,1,,,,,,,10,10,10,10,,,,,,,,,,,5199.7455,5200.2456,5200.4953,5202.5957,space,2.0702,,5202.5957,25,80,5203.597,5203.597,5203.6119,,,,0,22,22,22,1,50,175,,,,,,,,
,,611d03b822d4c8e041ea0c32,001,2023-12-14_08h40.41.214,bars,2023.2.3,Win32,60.60606061,,,,,,5203.6123,5204.6135,,,5205.1136,5205.362,,44,44,,,,,,,,,,,,,,,,bars/014.png,bars/mask000.png,,,,,,,,,,,,0,1,,,,,,,8,8,8,8,,,,,,,,,,,5204.6136,5205.1135,5205.362,5208.2473,space,2.8673,,5208.2473,36,44,5209.2454,5209.2454,5209.2596,,,,0,23,23,23,1,80,0,,,,,,,,
,,611d03b822d4c8e041ea0c32,001,2023-12-14_08h40.41.214,bars,2023.2.3,Win32,60.60606061,,,,,,5209.2597,5210.2622,,,5210.762,5211.0109,,130,130,,,,,,,,,,,,,,,,bars/016.png,bars/mask009.png,,,,,,,,,,,,0,2,,,,,,,6,10,5,10,,,,,,,,,,,5210.2623,5210.762,5211.011,5212.1949,space,1.1597,,5212.1951,90,35,5213.1959,5213.1959,5213.1986,,,,0,24,24,24,1,40,165,,,,,,,,
,,611d03b822d4c8e041ea0c32,001,2023-12-14_08h40.41.214,bars,2023.2.3,Win32,60.60606061,,,,,,5213.1989,5214.195,,,5214.6943,5214.9443,,125,125,,,,,,,,,,,,,,,,bars/008.png,bars/mask003.png,,,,,,,,,,,,3,1,,,,,,,4,10,6,10,,,,,,,,,,,5214.195,5214.6942,5214.9443,5217.894,space,2.9237,,5217.8941,15,55,5218.8958,5218.8959,5218.9131,,,,0,25,25,25,1,110,0,,,,,,,,
,,611d03b822d4c8e041ea0c32,001,2023-12-14_08h40.41.214,bars,2023.2.3,Win32,60.60606061,,,,,,5218.9135,5219.9124,,,5220.4107,5220.6626,,140,140,,,,,,,,,,,,,,,,bars/044.png,bars/mask005.png,,,,,,,,,,,,4,2,,,,,,,2,8,1,8,,,,,,,,,,,5219.9124,5220.4106,5220.6627,5223.4798,space,2.8007,,5223.4799,65,15,5224.477,5224.4771,5224.4933,,,,0,26,26,26,1,75,155,,,,,,,,
,,611d03b822d4c8e041ea0c32,001,2023-12-14_08h40.41.214,bars,2023.2.3,Win32,60.60606061,,,,,,5224.4936,5225.495,,,5225.9937,5226.245,,128,128,,,,,,,,,,,,,,,,bars/047.png,bars/mask003.png,,,,,,,,,,,,0,2,,,,,,,4,10,4,8,,,,,,,,,,,5225.495,5225.9935,5226.2451,5230.1292,space,3.8674,,5230.1292,67,58,5231.1283,5231.1283,5231.1436,,,,0,27,27,27,1,15,70,,,,,,,,
,,611d03b822d4c8e041ea0c32,001,2023-12-14_08h40.41.214,bars,2023.2.3,Win32,60.60606061,,,,,,5231.1438,5232.1452,,,5232.6436,5232.8944,,61,61,,,,,,,,,,,,,,,,bars/028.png,bars/mask004.png,,,,,,,,,,,,3,1,,,,,,,6,8,7,10,,,,,,,,,,,5232.1453,5232.6436,5232.8944,5242.6259,space,9.7108,,5242.6261,16,59,5243.6264,5243.6264,5243.6429,,,,0,28,28,28,1,45,120,,,,,,,,
,,611d03b822d4c8e041ea0c32,001,2023-12-14_08h40.41.214,bars,2023.2.3,Win32,60.60606061,,,,,,5243.6431,5244.6442,,,5245.144,5245.3929,,43,43,,,,,,,,,,,,,,,,bars/039.png,bars/mask000.png,,,,,,,,,,,,0,1,,,,,,,4,6,3,6,,,,,,,,,,,5244.6443,5245.144,5245.393,5246.8947,space,1.4839,,5246.8948,48,62,5247.8943,5247.8944,5247.9104,,,,0,29,29,29,1,175,105,,,,,,,,
,,611d03b822d4c8e041ea0c32,001,2023-12-14_08h40.41.214,bars,2023.2.3,Win32,60.60606061,,,,,,5247.9107,5248.9096,,,5249.4114,5249.661,,130,130,,,,,,,,,,,,,,,,bars/019.png,bars/mask005.png,,,,,,,,,,,,1,2,,,,,,,6,8,6,7,,,,,,,,,,,5248.9097,5249.4114,5249.661,5251.1278,space,1.4505,,5251.1278,85,25,5252.1267,5252.1267,5252.1342,,,,0,30,30,30,1,45,105,,,,,,,,
,,611d03b822d4c8e041ea0c32,001,2023-12-14_08h40.41.214,bars,2023.2.3,Win32,60.60606061,,,,,,5252.1343,5253.1273,,,5253.6259,5253.8771,,7,187,,,,,,,,,,,,,,,,bars/049.png,bars/mask002.png,,,,,,,,,,,,1,1,,,,,,,8,10,8,10,,,,,,,,,,,5253.1273,5253.6259,5253.8773,5255.6942,space,1.8005,,5255.6942,27,72,5256.6917,5256.6918,5256.7079,,,,0,31,31,31,1,160,115,,,,,,,,
,,611d03b822d4c8e041ea0c32,001,2023-12-14_08h40.41.214,bars,2023.2.3,Win32,60.60606061,,,,,,5256.7082,5257.7103,,,5258.2091,5258.4603,,92,92,,,,,,,,,,,,,,,,bars/032.png,bars/mask006.png,,,,,,,,,,,,0,1,,,,,,,6,8,5,7,,,,,,,,,,,5257.7103,5258.2091,5258.4603,5270.9582,space,12.4734,,5270.9583,33,72,5271.9577,5271.9577,5271.9726,,,,0,32,32,32,1,125,20,,,,,,,,
,,611d03b822d4c8e041ea0c32,001,2023-12-14_08h40.41.214,bars,2023.2.3,Win32,60.60606061,,,,,,5271.9729,5272.9759,,,5273.4747,5273.7246,,32,32,,,,,,,,,,,,,,,,bars/043.png,bars/mask005.png,,,,,,,,,,,,2,1,,,,,,,4,6,2,6,,,,,,,,,,,5272.9759,5273.4747,5273.7247,5288.4746,space,14.7323,,5288.4746,2,82,5289.4739,5289.4739,5289.4872,,,,0,33,33,33,1,30,130,,,,,,,,
,,611d03b822d4c8e041ea0c32,001,2023-12-14_08h40.41.214,bars,2023.2.3,Win32,60.60606061,,,,,,5289.4874,5290.4911,,,5290.9897,5291.2396,,33,33,,,,,,,,,,,,,,,,bars/022.png,bars/mask001.png,,,,,,,,,,,,5,2,,,,,,,6,8,7,8,,,,,,,,,,,5290.4912,5290.9896,5291.2397,5298.5252,space,7.2828,,5298.5254,62,13,5299.5225,5299.5227,5299.5413,,,,0,34,34,34,1,95,20,,,,,,,,
,,611d03b822d4c8e041ea0c32,001,2023-12-14_08h40.41.214,bars,2023.2.3,Win32,60.60606061,,,,,,5299.5416,5300.539,,,5301.0391,5301.29,,18,18,,,,,,,,,,,,,,,,bars/006.png,bars/mask009.png,,,,,,,,,,,,1,1,,,,,,,4,6,3,5,,,,,,,,,,,5300.5391,5301.039,5301.29,5310.955,space,9.6463,,5310.955,17,82,5311.9548,5311.9549,5311.9713,,,,0,35,35,35,1,35,100,,,,,,,,
,,611d03b822d4c8e041ea0c32,001,2023-12-14_08h40.41.214,bars,2023.2.3,Win32,60.60606061,,,,,,5311.9715,5312.9712,,,5313.4717,5313.7214,,30,30,,,,,,,,,,,,,,,,bars/045.png,bars/mask003.png,,,,,,,,,,,,3,2,,,,,,,2,8,0,9,,,,,,,,,,,5312.9714,5313.4717,5313.7214,5316.1712,space,2.4342,,5316.1713,70,20,5317.171,5317.1711,5317.1852,,,,0,36,36,36,1,100,10,,,,,,,,
,,611d03b822d4c8e041ea0c32,001,2023-12-14_08h40.41.214,bars,2023.2.3,Win32,60.60606061,,,,,,5317.1854,5318.1883,,,5318.6879,5318.9378,,76,76,,,,,,,,,,,,,,,,bars/009.png,bars/mask007.png,,,,,,,,,,,,0,2,,,,,,,0,6,0,5,,,,,,,,,,,5318.1883,5318.6878,5318.9379,5401.4524,space,82.5108,,5401.4524,61,29,5402.4516,5402.4516,5402.4627,,,,0,37,37,37,1,15,105,,,,,,,,
,,611d03b822d4c8e041ea0c32,001,2023-12-14_08h40.41.214,bars,2023.2.3,Win32,60.60606061,,,,,,5402.4629,5403.4515,,,5403.9516,5404.2015,,70,70,,,,,,,,,,,,,,,,bars/009.png,bars/mask009.png,,,,,,,,,,,,0,2,,,,,,,0,4,1,5,,,,,,,,,,,5403.4517,5403.9515,5404.2017,5405.9519,space,1.7338,,5405.9519,55,35,5406.9513,5406.9513,5406.9622,,,,0,38,38,38,1,15,105,,,,,,,,
,,611d03b822d4c8e041ea0c32,001,2023-12-14_08h40.41.214,bars,2023.2.3,Win32,60.60606061,,,,,,5406.9624,5407.9513,,,5408.4511,5408.7011,,127,127,,,,,,,,,,,,,,,,bars/026.png,bars/mask002.png,,,,,,,,,,,,0,2,,,,,,,0,2,2,3,,,,,,,,,,,5407.9513,5408.4511,5408.7011,5411.3518,space,2.6338,,5411.3518,88,42,5412.3511,5412.3511,5412.3624,,,,0,39,39,39,1,35,85,,,,,,,,
,,611d03b822d4c8e041ea0c32,001,2023-12-14_08h40.41.214,bars,2023.2.3,Win32,60.60606061,,,,,,5412.3625,5413.3509,,,5413.8509,5414.1009,,29,29,,,,,,,,,,,,,,,,bars/042.png,bars/mask000.png,,,,,,,,,,,,0,2,,,,,,,0,4,0,5,,,,,,,,,,,5413.351,5413.8509,5414.101,5415.7849,space,1.6676,,5415.7849,64,46,5416.7843,5416.7843,5416.7949,,,,0,40,40,40,1,145,75,,,,,,,,
,,611d03b822d4c8e041ea0c32,001,2023-12-14_08h40.41.214,bars,2023.2.3,Win32,60.60606061,,,,,,5416.795,5417.7842,,,5418.2841,5418.5342,,144,144,,,,,,,,,,,,,,,,bars/026.png,bars/mask005.png,,,,,,,,,,,,0,2,,,,,,,0,2,1,2,,,,,,,,,,,5417.7843,5418.2841,5418.5343,5420.3846,space,1.8343,,5420.3846,71,59,5421.384,5421.384,5421.3951,,,,0,41,41,41,1,35,85,,,,,,,,
,,611d03b822d4c8e041ea0c32,001,2023-12-14_08h40.41.214,bars,2023.2.3,Win32,60.60606061,,,,,,5421.3953,5422.3837,,,5422.884,5423.1339,,129,129,,,,,,,,,,,,,,,,bars/033.png,bars/mask001.png,,,,,,,,,,,,0,2,,,,,,,0,0,0,1,,,,,,,,,,,5422.3838,5422.884,5423.1339,5433.6838,space,10.5333,,5433.6839,76,26,5434.6831,5434.6831,5434.6939,,,,0,42,42,42,1,25,155,,,,,,,,
,,611d03b822d4c8e041ea0c32,001,2023-12-14_08h40.41.214,bars,2023.2.3,Win32,60.60606061,,,,,,5434.694,5435.683,,,5436.1831,5436.4328,,159,159,,,,,,,,,,,,,,,,bars/001.png,bars/mask008.png,,,,,,,,,,,,0,1,,,,,,,0,0,2,0,,,,,,,,,,,5435.683,5436.1831,5436.4328,5447.3327,space,10.8832,,5447.3327,29,74,5448.3321,5448.3321,5448.3438,,,,0,43,43,43,1,130,85,,,,,,,,
,,611d03b822d4c8e041ea0c32,001,2023-12-14_08h40.41.214,bars,2023.2.3,Win32,60.60606061,,,,,,5448.3439,5449.3321,,,5449.8323,5450.0819,,74,74,,,,,,,,,,,,,,,,bars/035.png,bars/mask006.png,,,,,,,,,,,,1,2,,,,,,,0,0,0,1,,,,,,,,,,,5449.3321,5449.8322,5450.0821,5517.8951,space,67.7966,,5517.8952,79,14,5518.8947,5518.8948,5518.9071,,,,0,44,44,44,1,175,60,,,,,,,,
,,611d03b822d4c8e041ea0c32,001,2023-12-14_08h40.41.214,bars,2023.2.3,Win32,60.60606061,,,,,,5518.9071,5519.9113,,,5520.4111,5520.6612,,8,188,,,,,,,,,,,,,,,,bars/001.png,bars/mask000.png,,,,,,,,,,,,0,1,,,,,,,2,2,1,4,,,,,,,,,,,5519.9113,5520.4111,5520.6612,5524.6115,space,3.9339,,5524.6115,58,77,5525.6109,5525.6109,5525.6221,,,,0,45,45,45,1,130,85,,,,,,,,
,,611d03b822d4c8e041ea0c32,001,2023-12-14_08h40.41.214,bars,2023.2.3,Win32,60.60606061,,,,,,5525.6223,5526.6108,,,5527.1109,5527.3608,,177,177,,,,,,,,,,,,,,,,bars/005.png,bars/mask000.png,,,,,,,,,,,,3,1,,,,,,,4,4,5,4,,,,,,,,,,,5526.6108,5527.1109,5527.3608,5530.9778,space,3.6006,,5530.9778,13,37,5531.977,5531.9771,5531.9873,,,,0,46,46,46,1,10,140,,,,,,,,
,,611d03b822d4c8e041ea0c32,001,2023-12-14_08h40.41.214,bars,2023.2.3,Win32,60.60606061,,,,,,5531.9875,5532.9773,,,5533.4774,5533.7274,,66,66,,,,,,,,,,,,,,,,bars/008.png,bars/mask004.png,,,,,,,,,,,,0,1,,,,,,,2,2,1,2,,,,,,,,,,,5532.9774,5533.4774,5533.7274,5536.2774,space,2.534,,5536.2775,44,66,5537.277,5537.277,5537.2865,,,,0,47,47,47,1,110,0,,,,,,,,
,,611d03b822d4c8e041ea0c32,001,2023-12-14_08h40.41.214,bars,2023.2.3,Win32,60.60606061,,,,,,5537.2866,5538.277,,,5538.7764,5539.0269,,177,-3,,,,,,,,,,,,,,,,bars/006.png,bars/mask006.png,,,,,,,,,,,,0,1,,,,,,,4,0,4,1,,,,,,,,,,,5538.277,5538.7764,5539.0269,5599.421,space,60.3735,,5599.4211,38,77,5600.4232,5600.4232,5600.4324,,,,0,48,48,48,1,35,100,,,,,,,,
,,611d03b822d4c8e041ea0c32,001,2023-12-14_08h40.41.214,bars,2023.2.3,Win32,60.60606061,,,,,,5600.4326,5601.4208,,,5601.9228,5602.1724,,19,19,,,,,,,,,,,,,,,,bars/033.png,bars/mask008.png,,,,,,,,,,,,1,1,,,,,,,2,0,1,0,,,,,,,,,,,5601.4209,5601.9228,5602.1724,5605.8373,space,3.635,,5605.8374,6,44,5606.8376,5606.8376,5606.85,,,,0,49,49,49,1,25,155,,,,,,,,
,,611d03b822d4c8e041ea0c32,001,2023-12-14_08h40.41.214,bars,2023.2.3,Win32,60.60606061,,,,,,,,,,,,,,,,,,,,,,,,,,,,,,,,,,,,,,,,,,,,,,,,,,,,,,,,,,,,,,,,,,,,,,,,,,,,,,,,,,,,,,,,5606.8501,5666.8504,0,2,2,1,1,sequence_tables/blk017.csv
,,611d03b822d4c8e041ea0c32,001,2023-12-14_08h40.41.214,bars,2023.2.3,Win32,60.60606061,,,,,,5679.2308,5680.2164,,,5680.7165,5680.9664,,102,102,,,,,,,,,,,,,,,,bars/019.png,bars/mask001.png,,,,,,,,,,,,6,2,,,,,,,7,6,8,7,,,,,,5666.8581,5679.2163,space,12.3395,,5680.2165,5680.7164,5680.9665,5683.3328,space,2.3508,,5683.3328,57,3,5684.3329,5684.3329,5684.3446,,,,0,0,0,0,1,45,105,,,,,,,,
,,611d03b822d4c8e041ea0c32,001,2023-12-14_08h40.41.214,bars,2023.2.3,Win32,60.60606061,,,,,,5684.3448,5685.3328,,,5685.8329,5686.0828,,142,142,,,,,,,,,,,,,,,,bars/023.png,bars/mask009.png,,,,,,,,,,,,0,2,,,,,,,5,4,7,3,,,,,,,,,,,5685.3328,5685.8329,5686.0828,5686.9991,space,0.9005,,5686.9992,58,27,5687.9992,5687.9992,5688.0001,,,,0,1,1,1,1,20,115,,,,,,,,
,,611d03b822d4c8e041ea0c32,001,2023-12-14_08h40.41.214,bars,2023.2.3,Win32,60.60606061,,,,,,5688.0004,5688.9992,,,5689.4991,5689.7489,,64,64,,,,,,,,,,,,,,,,bars/021.png,bars/mask000.png,,,,,,,,,,,,2,2,,,,,,,3,2,2,2,,,,,,,,,,,5688.9993,5689.4991,5689.7489,5690.6514,space,0.884,,5690.6515,89,6,5691.6489,5691.6489,5691.6496,,,,0,2,2,2,1,155,70,,,,,,,,
,,611d03b822d4c8e041ea0c32,001,2023-12-14_08h40.41.214,bars,2023.2.3,Win32,60.60606061,,,,,,5691.6499,5692.6506,,,5693.1488,5693.3989,,77,77,,,,,,,,,,,,,,,,bars/044.png,bars/mask009.png,,,,,,,,,,,,0,1,,,,,,,1,0,0,0,,,,,,,,,,,5692.6507,5693.1488,5693.399,5694.7824,space,1.3672,,5694.7824,2,78,5695.7817,5695.7818,5695.79,,,,0,3,3,3,1,75,155,,,,,,,,
,,611d03b822d4c8e041ea0c32,001,2023-12-14_08h40.41.214,bars,2023.2.3,Win32,60.60606061,,,,,,5695.7902,5696.7834,,,5697.2821,5697.5336,,46,46,,,,,,,,,,,,,,,,bars/046.png,bars/mask000.png,,,,,,,,,,,,0,2,,,,,,,3,0,4,0,,,,,,,,,,,5696.7834,5697.282,5697.5337,5699.0819,space,1.5335,,5699.082,71,39,5700.0819,5700.082,5700.084,,,,0,4,4,4,1,155,85,,,,,,,,
,,611d03b822d4c8e041ea0c32,001,2023-12-14_08h40.41.214,bars,2023.2.3,Win32,60.60606061,,,,,,5700.0844,5701.0834,,,5701.5815,5701.8316,,165,165,,,,,,,,,,,,,,,,bars/036.png,bars/mask006.png,,,,,,,,,,,,1,1,,,,,,,1,2,2,1,,,,,,,,,,,5701.0835,5701.5813,5701.8317,5703.0483,space,1.1861,,5703.0483,20,35,5704.0482,5704.0482,5704.0501,,,,0,5,5,5,1,145,20,,,,,,,,
,,611d03b822d4c8e041ea0c32,001,2023-12-14_08h40.41.214,bars,2023.2.3,Win32,60.60606061,,,,,,5704.0505,5705.0483,,,5705.5484,5705.7977,,18,18,,,,,,,,,,,,,,,,bars/038.png,bars/mask008.png,,,,,,,,,,,,0,1,,,,,,,0,4,0,5,,,,,,,,,,,5705.0483,5705.5483,5705.7977,5709.2148,space,3.3854,,5709.2148,33,52,5710.2146,5710.2146,5710.2255,,,,0,6,6,6,1,165,70,,,,,,,,
,,611d03b822d4c8e041ea0c32,001,2023-12-14_08h40.41.214,bars,2023.2.3,Win32,60.60606061,,,,,,5710.2256,5711.2168,,,5711.7147,5711.9646,,42,42,,,,,,,,,,,,,,,,bars/041.png,bars/mask006.png,,,,,,,,,,,,0,1,,,,,,,2,6,1,5,,,,,,,,,,,5711.2169,5711.7146,5711.9646,5713.7311,space,1.7524,,5713.7311,22,43,5714.7311,5714.7311,5714.732,,,,0,7,7,7,1,20,85,,,,,,,,
,,611d03b822d4c8e041ea0c32,001,2023-12-14_08h40.41.214,bars,2023.2.3,Win32,60.60606061,,,,,,5714.7323,5715.7308,,,5716.2311,5716.4808,,75,75,,,,,,,,,,,,,,,,bars/041.png,bars/mask006.png,,,,,,,,,,,,1,2,,,,,,,4,4,3,2,,,,,,,,,,,5715.7309,5716.231,5716.4808,5717.4309,space,0.9396,,5717.4309,55,10,5718.4306,5718.4307,5718.4324,,,,0,8,8,8,1,20,85,,,,,,,,
,,611d03b822d4c8e041ea0c32,001,2023-12-14_08h40.41.214,bars,2023.2.3,Win32,60.60606061,,,,,,5718.4327,5719.4307,,,5719.9308,5720.1805,,128,128,,,,,,,,,,,,,,,,bars/043.png,bars/mask006.png,,,,,,,,,,,,1,2,,,,,,,2,2,2,1,,,,,,,,,,,5719.4307,5719.9308,5720.1805,5721.6641,space,1.4701,,5721.6641,82,2,5722.6639,5722.664,5722.6649,,,,0,9,9,9,1,30,130,,,,,,,,
,,611d03b822d4c8e041ea0c32,001,2023-12-14_08h40.41.214,bars,2023.2.3,Win32,60.60606061,,,,,,5722.6653,5723.6638,,,5724.1638,5724.4139,,71,71,,,,,,,,,,,,,,,,bars/006.png,bars/mask006.png,,,,,,,,,,,,0,2,,,,,,,0,4,0,3,,,,,,,,,,,5723.6639,5724.1638,5724.4139,5726.8634,space,2.4455,,5726.8634,36,29,5727.8635,5727.8635,5727.8735,,,,0,10,10,10,1,35,100,,,,,,,,
,,611d03b822d4c8e041ea0c32,001,2023-12-14_08h40.41.214,bars,2023.2.3,Win32,60.60606061,,,,,,5727.8736,5728.8635,,,5729.3632,5729.6134,,66,66,,,,,,,,,,,,,,,,bars/049.png,bars/mask004.png,,,,,,,,,,,,0,2,,,,,,,0,6,1,6,,,,,,,,,,,5728.8635,5729.3631,5729.6134,5731.9968,space,2.3669,,5731.9968,86,49,5732.9965,5732.9966,5732.9973,,,,0,11,11,11,1,160,115,,,,,,,,
,,611d03b822d4c8e041ea0c32,001,2023-12-14_08h40.41.214,bars,2023.2.3,Win32,60.60606061,,,,,,5732.9976,5733.9965,,,5734.4964,5734.7466,,44,44,,,,,,,,,,,,,,,,bars/016.png,bars/mask009.png,,,,,,,,,,,,2,1,,,,,,,0,4,2,3,,,,,,,,,,,5733.9966,5734.4964,5734.7466,5781.0771,space,46.3169,,5781.0772,4,59,5782.0767,5782.0768,5782.0883,,,,0,12,12,12,1,40,165,,,,,,,,
,,611d03b822d4c8e041ea0c32,001,2023-12-14_08h40.41.214,bars,2023.2.3,Win32,60.60606061,,,,,,5782.0885,5783.0769,,,5783.577,5783.827,,107,107,,,,,,,,,,,,,,,,bars/018.png,bars/mask009.png,,,,,,,,,,,,2,2,,,,,,,0,6,0,5,,,,,,,,,,,5783.077,5783.577,5783.827,5785.4599,space,1.6214,,5785.46,43,17,5786.4595,5786.4596,5786.4718,,,,0,13,13,13,1,150,90,,,,,,,,
,,611d03b822d4c8e041ea0c32,001,2023-12-14_08h40.41.214,bars,2023.2.3,Win32,60.60606061,,,,,,5786.472,5787.46,,,5787.9599,5788.2098,,176,176,,,,,,,,,,,,,,,,bars/048.png,bars/mask007.png,,,,,,,,,,,,8,2,,,,,,,2,8,1,8,,,,,,,,,,,5787.46,5787.9598,5788.2098,5790.0934,space,1.8519,,5790.0935,54,1,5791.093,5791.0931,5791.1023,,,,0,14,14,14,1,50,175,,,,,,,,
,,611d03b822d4c8e041ea0c32,001,2023-12-14_08h40.41.214,bars,2023.2.3,Win32,60.60606061,,,,,,5791.1024,5792.0931,,,5792.5931,5792.8432,,161,161,,,,,,,,,,,,,,,,bars/003.png,bars/mask000.png,,,,,,,,,,,,2,2,,,,,,,0,6,1,5,,,,,,,,,,,5792.0931,5792.593,5792.8432,5797.5591,space,4.7,,5797.5592,44,21,5798.5589,5798.559,5798.5703,,,,0,15,15,15,1,25,140,,,,,,,,
,,611d03b822d4c8e041ea0c32,001,2023-12-14_08h40.41.214,bars,2023.2.3,Win32,60.60606061,,,,,,5798.5704,5799.5592,,,5800.0591,5800.309,,59,59,,,,,,,,,,,,,,,,bars/028.png,bars/mask003.png,,,,,,,,,,,,1,1,,,,,,,0,8,1,9,,,,,,,,,,,5799.5592,5800.0591,5800.309,5802.3754,space,2.0627,,5802.3755,14,61,5803.3757,5803.3759,5803.3889,,,,0,16,16,16,1,45,120,,,,,,,,
,,611d03b822d4c8e041ea0c32,001,2023-12-14_08h40.41.214,bars,2023.2.3,Win32,60.60606061,,,,,,5803.389,5804.3924,,,5804.8922,5805.1423,,125,125,,,,,,,,,,,,,,,,bars/028.png,bars/mask006.png,,,,,,,,,,,,8,2,,,,,,,2,10,1,10,,,,,,,,,,,5804.3924,5804.8922,5805.1424,5807.3926,space,2.2313,,5807.3926,80,5,5808.392,5808.392,5808.404,,,,0,17,17,17,1,45,120,,,,,,,,
,,611d03b822d4c8e041ea0c32,001,2023-12-14_08h40.41.214,bars,2023.2.3,Win32,60.60606061,,,,,,5808.4041,5809.392,,,5809.8921,5810.1418,,136,136,,,,,,,,,,,,,,,,bars/014.png,bars/mask006.png,,,,,,,,,,,,0,2,,,,,,,4,10,2,9,,,,,,,,,,,5809.3922,5809.892,5810.1418,5812.8585,space,2.6855,,5812.8585,56,44,5813.8603,5813.8603,5813.872,,,,0,18,18,18,1,80,0,,,,,,,,
,,611d03b822d4c8e041ea0c32,001,2023-12-14_08h40.41.214,bars,2023.2.3,Win32,60.60606061,,,,,,5813.8722,5814.8751,,,5815.3751,5815.6249,,97,97,,,,,,,,,,,,,,,,bars/038.png,bars/mask007.png,,,,,,,,,,,,1,2,,,,,,,2,10,3,10,,,,,,,,,,,5814.8751,5815.3751,5815.6249,5816.1751,space,0.5338,,5816.1751,68,27,5817.1748,5817.1749,5817.1756,,,,0,19,19,19,1,165,70,,,,,,,,
,,611d03b822d4c8e041ea0c32,001,2023-12-14_08h40.41.214,bars,2023.2.3,Win32,60.60606061,,,,,,5817.1759,5818.1748,,,5818.6746,5818.9247,,160,160,,,,,,,,,,,,,,,,bars/025.png,bars/mask008.png,,,,,,,,,,,,0,1,,,,,,,0,8,0,8,,,,,,,,,,,5818.1748,5818.6746,5818.9247,5820.2078,space,1.2711,,5820.2078,55,60,5821.2101,5821.2101,5821.212,,,,0,20,20,20,1,105,40,,,,,,,,
,,611d03b822d4c8e041ea0c32,001,2023-12-14_08h40.41.214,bars,2023.2.3,Win32,60.60606061,,,,,,5821.2123,5822.2079,,,5822.708,5822.9599,,160,160,,,,,,,,,,,,,,,,bars/034.png,bars/mask004.png,,,,,,,,,,,,0,1,,,,,,,0,10,3,10,,,,,,,,,,,5822.2079,5822.708,5822.9599,5824.1747,space,1.1957,,5824.1747,35,85,5825.1744,5825.1744,5825.1751,,,,0,21,21,21,1,125,65,,,,,,,,
,,611d03b822d4c8e041ea0c32,001,2023-12-14_08h40.41.214,bars,2023.2.3,Win32,60.60606061,,,,,,5825.1754,5826.1741,,,5826.6759,5826.9242,,126,126,,,,,,,,,,,,,,,,bars/001.png,bars/mask003.png,,,,,,,,,,,,3,1,,,,,,,2,10,3,9,,,,,,,,,,,5826.1741,5826.6759,5826.9242,5829.7598,space,2.8171,,5829.7598,4,41,5830.7575,5830.7575,5830.7684,,,,0,22,22,22,1,130,85,,,,,,,,
,,611d03b822d4c8e041ea0c32,001,2023-12-14_08h40.41.214,bars,2023.2.3,Win32,60.60606061,,,,,,5830.7686,5831.7568,,,5832.2574,5832.5072,,173,173,,,,,,,,,,,,,,,,bars/011.png,bars/mask009.png,,,,,,,,,,,,0,1,,,,,,,0,8,0,8,,,,,,,,,,,5831.7569,5832.2573,5832.5072,5834.224,space,1.7083,,5834.224,13,88,5835.2236,5835.2237,5835.2246,,,,0,23,23,23,1,160,85,,,,,,,,
,,611d03b822d4c8e041ea0c32,001,2023-12-14_08h40.41.214,bars,2023.2.3,Win32,60.60606061,,,,,,5835.2251,5836.2238,,,5836.7238,5836.9738,,51,51,,,,,,,,,,,,,,,,bars/022.png,bars/mask007.png,,,,,,,,,,,,0,2,,,,,,,2,10,1,10,,,,,,,,,,,5836.2239,5836.7237,5836.9738,5838.3571,space,1.3738,,5838.3571,44,31,5839.3568,5839.3568,5839.3581,,,,0,24,24,24,1,95,20,,,,,,,,
,,611d03b822d4c8e041ea0c32,001,2023-12-14_08h40.41.214,bars,2023.2.3,Win32,60.60606061,,,,,,5839.3584,5840.3567,,,5840.8568,5841.1068,,45,45,,,,,,,,,,,,,,,,bars/017.png,bars/mask004.png,,,,,,,,,,,,8,2,,,,,,,4,8,3,8,,,,,,,,,,,5840.3568,5840.8568,5841.1068,5903.4696,space,62.3472,,5903.4697,80,0,5904.4694,5904.4695,5904.4782,,,,0,25,25,25,1,145,45,,,,,,,,
,,611d03b822d4c8e041ea0c32,001,2023-12-14_08h40.41.214,bars,2023.2.3,Win32,60.60606061,,,,,,5904.4783,5905.4694,,,5905.9696,5906.2193,,165,165,,,,,,,,,,,,,,,,bars/037.png,bars/mask000.png,,,,,,,,,,,,3,1,,,,,,,6,10,6,9,,,,,,,,,,,5905.4694,5905.9696,5906.2193,5946.5667,space,40.344,,5946.5668,15,60,5947.5668,5947.5668,5947.5788,,,,0,26,26,26,1,150,105,,,,,,,,
,,611d03b822d4c8e041ea0c32,001,2023-12-14_08h40.41.214,bars,2023.2.3,Win32,60.60606061,,,,,,5947.5789,5948.5667,,,5949.0667,5949.3167,,140,140,,,,,,,,,,,,,,,,bars/021.png,bars/mask008.png,,,,,,,,,,,,3,1,,,,,,,4,10,5,10,,,,,,,,,,,5948.5667,5949.0667,5949.3168,5955.4994,space,6.1668,,5955.4996,15,70,5956.4995,5956.4995,5956.5095,,,,0,27,27,27,1,155,70,,,,,,,,
,,611d03b822d4c8e041ea0c32,001,2023-12-14_08h40.41.214,bars,2023.2.3,Win32,60.60606061,,,,,,5956.5097,5957.4993,,,5957.9992,5958.2493,,35,35,,,,,,,,,,,,,,,,bars/044.png,bars/mask003.png,,,,,,,,,,,,0,1,,,,,,,6,10,7,10,,,,,,,,,,,5957.4994,5957.9992,5958.2494,5959.9327,space,1.6787,,5959.9329,40,60,5960.9326,5960.9326,5960.9335,,,,0,28,28,28,1,75,155,,,,,,,,
,,611d03b822d4c8e041ea0c32,001,2023-12-14_08h40.41.214,bars,2023.2.3,Win32,60.60606061,,,,,,5960.9338,5961.9321,,,5962.4325,5962.6826,,3,183,,,,,,,,,,,,,,,,bars/036.png,bars/mask007.png,,,,,,,,,,,,4,2,,,,,,,4,10,4,9,,,,,,,,,,,5961.9321,5962.4324,5962.6826,5967.3986,space,4.7126,,5967.3986,38,17,5968.3987,5968.3987,5968.4101,,,,0,29,29,29,1,145,20,,,,,,,,
,,611d03b822d4c8e041ea0c32,001,2023-12-14_08h40.41.214,bars,2023.2.3,Win32,60.60606061,,,,,,5968.4102,5969.3986,,,5969.8987,5970.1486,,146,146,,,,,,,,,,,,,,,,bars/034.png,bars/mask008.png,,,,,,,,,,,,2,1,,,,,,,6,8,6,8,,,,,,,,,,,5969.3986,5969.8987,5970.1486,5972.4487,space,2.2948,,5972.4488,21,81,5973.4486,5973.4486,5973.4506,,,,0,30,30,30,1,125,65,,,,,,,,
,,611d03b822d4c8e041ea0c32,001,2023-12-14_08h40.41.214,bars,2023.2.3,Win32,60.60606061,,,,,,5973.451,5974.4484,,,5974.9486,5975.1983,,116,116,,,,,,,,,,,,,,,,bars/049.png,bars/mask003.png,,,,,,,,,,,,6,2,,,,,,,4,6,5,6,,,,,,,,,,,5974.4484,5974.9485,5975.1983,5978.9982,space,3.7953,,5978.9983,44,1,5979.9981,5979.9982,5980.0095,,,,0,31,31,31,1,160,115,,,,,,,,
,,611d03b822d4c8e041ea0c32,001,2023-12-14_08h40.41.214,bars,2023.2.3,Win32,60.60606061,,,,,,5980.0096,5980.9978,,,5981.4981,5981.7479,,90,90,,,,,,,,,,,,,,,,bars/031.png,bars/mask008.png,,,,,,,,,,,,0,1,,,,,,,2,8,1,6,,,,,,,,,,,5980.9978,5981.498,5981.7479,5986.8646,space,5.1005,,5986.8646,30,55,5987.8644,5987.8644,5987.8763,,,,0,32,32,32,1,120,35,,,,,,,,
,,611d03b822d4c8e041ea0c32,001,2023-12-14_08h40.41.214,bars,2023.2.3,Win32,60.60606061,,,,,,5987.8764,5988.8644,,,5989.364,5989.6143,,177,177,,,,,,,,,,,,,,,,bars/023.png,bars/mask005.png,,,,,,,,,,,,0,1,,,,,,,0,6,0,6,,,,,,,,,,,5988.8644,5989.364,5989.6143,5992.7142,space,3.0837,,5992.7142,23,62,5993.714,5993.7142,5993.7272,,,,0,33,33,33,1,20,115,,,,,,,,
,,611d03b822d4c8e041ea0c32,001,2023-12-14_08h40.41.214,bars,2023.2.3,Win32,60.60606061,,,,,,5993.7274,5994.7305,,,5995.2305,5995.4803,,49,49,,,,,,,,,,,,,,,,bars/029.png,bars/mask001.png,,,,,,,,,,,,8,2,,,,,,,2,8,3,9,,,,,,,,,,,5994.7305,5995.2305,5995.4803,5999.5971,space,4.1054,,5999.5971,41,4,6000.5967,6000.5968,6000.6084,,,,0,34,34,34,1,90,45,,,,,,,,
,,611d03b822d4c8e041ea0c32,001,2023-12-14_08h40.41.214,bars,2023.2.3,Win32,60.60606061,,,,,,6000.6086,6001.5969,,,6002.0969,6002.3469,,78,78,,,,,,,,,,,,,,,,bars/010.png,bars/mask008.png,,,,,,,,,,,,2,2,,,,,,,0,10,0,9,,,,,,,,,,,6001.597,6002.0968,6002.3469,6003.2799,space,0.9171,,6003.28,87,23,6004.2797,6004.2798,6004.2805,,,,0,35,35,35,1,165,55,,,,,,,,
,,611d03b822d4c8e041ea0c32,001,2023-12-14_08h40.41.214,bars,2023.2.3,Win32,60.60606061,,,,,,6004.2808,6005.2797,,,6005.7797,6006.0297,,130,130,,,,,,,,,,,,,,,,bars/000.png,bars/mask006.png,,,,,,,,,,,,5,2,,,,,,,0,8,0,9,,,,,,,,,,,6005.2798,6005.7797,6006.0297,6007.9132,space,1.8704,,6007.9134,90,15,6008.913,6008.9131,6008.9141,,,,0,36,36,36,1,40,145,,,,,,,,
,,611d03b822d4c8e041ea0c32,001,2023-12-14_08h40.41.214,bars,2023.2.3,Win32,60.60606061,,,,,,6008.9144,6009.913,,,6010.4132,6010.6631,,64,64,,,,,,,,,,,,,,,,bars/011.png,bars/mask005.png,,,,,,,,,,,,2,2,,,,,,,2,6,3,6,,,,,,,,,,,6009.913,6010.413,6010.6631,6014.5963,space,3.9188,,6014.5963,84,21,6015.5962,6015.5962,6015.6072,,,,0,37,37,37,1,160,85,,,,,,,,
,,611d03b822d4c8e041ea0c32,001,2023-12-14_08h40.41.214,bars,2023.2.3,Win32,60.60606061,,,,,,6015.6073,6016.5959,,,6017.096,6017.3459,,22,22,,,,,,,,,,,,,,,,bars/040.png,bars/mask004.png,,,,,,,,,,,,3,2,,,,,,,4,8,4,7,,,,,,,,,,,6016.5959,6017.0959,6017.346,6019.196,space,1.8408,,6019.1961,62,17,6020.1956,6020.1956,6020.2065,,,,0,38,38,38,1,140,5,,,,,,,,
,,611d03b822d4c8e041ea0c32,001,2023-12-14_08h40.41.214,bars,2023.2.3,Win32,60.60606061,,,,,,6020.2067,6021.1958,,,6021.6958,6021.9456,,156,156,,,,,,,,,,,,,,,,bars/004.png,bars/mask005.png,,,,,,,,,,,,0,2,,,,,,,2,6,1,6,,,,,,,,,,,6021.1959,6021.6957,6021.9456,6027.9622,space,6.0076,,6027.9622,49,31,6028.9619,6028.9619,6028.973,,,,0,39,39,39,1,25,125,,,,,,,,
,,611d03b822d4c8e041ea0c32,001,2023-12-14_08h40.41.214,bars,2023.2.3,Win32,60.60606061,,,,,,6028.9732,6029.9619,,,6030.4619,6030.7114,,133,133,,,,,,,,,,,,,,,,bars/023.png,bars/mask006.png,,,,,,,,,,,,1,2,,,,,,,0,4,0,3,,,,,,,,,,,6029.9619,6030.4619,6030.7114,6059.51,space,28.783,,6059.5101,67,18,6060.5097,6060.5098,6060.5219,,,,0,40,40,40,1,20,115,,,,,,,,
,,611d03b822d4c8e041ea0c32,001,2023-12-14_08h40.41.214,bars,2023.2.3,Win32,60.60606061,,,,,,6060.5222,6061.5265,,,6062.0266,6062.2766,,8,188,,,,,,,,,,,,,,,,bars/011.png,bars/mask000.png,,,,,,,,,,,,0,1,,,,,,,2,6,1,5,,,,,,,,,,,6061.5265,6062.0266,6062.2766,6065.3432,space,3.0498,,6065.3434,28,77,6066.3431,6066.3431,6066.3546,,,,0,41,41,41,1,160,85,,,,,,,,
,,611d03b822d4c8e041ea0c32,001,2023-12-14_08h40.41.214,bars,2023.2.3,Win32,60.60606061,,,,,,6066.3547,6067.343,,,6067.8429,6068.093,,179,179,,,,,,,,,,,,,,,,bars/003.png,bars/mask008.png,,,,,,,,,,,,1,1,,,,,,,4,8,4,7,,,,,,,,,,,6067.343,6067.8429,6068.093,6070.3429,space,2.2438,,6070.3429,26,39,6071.3426,6071.3426,6071.3526,,,,0,42,42,42,1,25,140,,,,,,,,
,,611d03b822d4c8e041ea0c32,001,2023-12-14_08h40.41.214,bars,2023.2.3,Win32,60.60606061,,,,,,6071.3529,6072.3423,,,6072.8423,6073.0925,,170,170,,,,,,,,,,,,,,,,bars/006.png,bars/mask001.png,,,,,,,,,,,,0,1,,,,,,,2,6,3,5,,,,,,,,,,,6072.3424,6072.8423,6073.0925,6074.6756,space,1.5707,,6074.6756,45,70,6075.6755,6075.6756,6075.676,,,,0,43,43,43,1,35,100,,,,,,,,
,,611d03b822d4c8e041ea0c32,001,2023-12-14_08h40.41.214,bars,2023.2.3,Win32,60.60606061,,,,,,6075.6762,6076.6758,,,6077.1755,6077.4256,,61,61,,,,,,,,,,,,,,,,bars/044.png,bars/mask000.png,,,,,,,,,,,,3,1,,,,,,,4,8,6,9,,,,,,,,,,,6076.6759,6077.1755,6077.4256,6078.4589,space,1.0285,,6078.4589,14,86,6079.4587,6079.4587,6079.4595,,,,0,44,44,44,1,75,155,,,,,,,,
,,611d03b822d4c8e041ea0c32,001,2023-12-14_08h40.41.214,bars,2023.2.3,Win32,60.60606061,,,,,,6079.4597,6080.4587,,,6080.9587,6081.2087,,104,104,,,,,,,,,,,,,,,,bars/021.png,bars/mask006.png,,,,,,,,,,,,0,2,,,,,,,2,6,1,6,,,,,,,,,,,6080.4587,6080.9587,6081.2087,6082.6086,space,1.3833,,6082.6086,51,34,6083.6085,6083.6086,6083.6107,,,,0,45,45,45,1,155,70,,,,,,,,
,,611d03b822d4c8e041ea0c32,001,2023-12-14_08h40.41.214,bars,2023.2.3,Win32,60.60606061,,,,,,6083.611,6084.6083,,,6085.1084,6085.3584,,164,164,,,,,,,,,,,,,,,,bars/026.png,bars/mask002.png,,,,,,,,,,,,0,1,,,,,,,4,8,4,7,,,,,,,,,,,6084.6084,6085.1084,6085.3584,6089.8084,space,4.4448,,6089.8084,51,79,6090.8076,6090.8077,6090.8155,,,,0,46,46,46,1,35,85,,,,,,,,
,,611d03b822d4c8e041ea0c32,001,2023-12-14_08h40.41.214,bars,2023.2.3,Win32,60.60606061,,,,,,6090.8157,6091.8078,,,6092.308,6092.5579,,140,140,,,,,,,,,,,,,,,,bars/011.png,bars/mask006.png,,,,,,,,,,,,2,1,,,,,,,6,6,7,5,,,,,,,,,,,6091.8078,6092.3079,6092.5579,6097.7911,space,5.2221,,6097.7911,20,55,6098.7909,6098.7909,6098.8019,,,,0,47,47,47,1,160,85,,,,,,,,
,,611d03b822d4c8e041ea0c32,001,2023-12-14_08h40.41.214,bars,2023.2.3,Win32,60.60606061,,,,,,6098.802,6099.7908,,,6100.2909,6100.5408,,110,110,,,,,,,,,,,,,,,,bars/009.png,bars/mask006.png,,,,,,,,,,,,8,2,,,,,,,8,8,7,10,,,,,,,,,,,6099.7908,6100.2909,6100.5409,6110.6402,space,10.0829,,6110.6403,85,5,6111.64,6111.64,6111.6518,,,,0,48,48,48,1,15,105,,,,,,,,
,,611d03b822d4c8e041ea0c32,001,2023-12-14_08h40.41.214,bars,2023.2.3,Win32,60.60606061,,,,,,6111.6519,6112.64,,,6113.14,6113.3899,,41,41,,,,,,,,,,,,,,,,bars/022.png,bars/mask006.png,,,,,,,,,,,,2,2,,,,,,,10,6,10,6,,,,,,,,,,,6112.6401,6113.14,6113.3899,6120.1228,space,6.729,,6120.1229,54,21,6121.123,6121.123,6121.1332,,,,0,49,49,49,1,95,20,,,,,,,,
,,611d03b822d4c8e041ea0c32,001,2023-12-14_08h40.41.214,bars,2023.2.3,Win32,60.60606061,,,,,,,,,,,,,,,,,,,,,,,,,,,,,,,,,,,,,,,,,,,,,,,,,,,,,,,,,,,,,,,,,,,,,,,,,,,,,,,,,,,,,,,,6121.1333,6181.1364,0,3,3,3,1,sequence_tables/blk049.csv
,,611d03b822d4c8e041ea0c32,001,2023-12-14_08h40.41.214,bars,2023.2.3,Win32,60.60606061,,,,,,6189.1976,6190.1859,,,6190.6858,6190.9358,,2,2,,,,,,,,,,,,,,,,bars/018.png,bars/mask001.png,,,,,,,,,,,,0,1,,,,,,,7,5,7,6,,,,,,6181.1473,6189.1858,space,8.0248,,6190.1859,6190.6857,6190.9358,6191.8858,space,0.9288,,6191.8858,32,88,6192.8855,6192.8856,6192.8875,,,,0,0,0,0,1,150,90,,,,,,,,
,,611d03b822d4c8e041ea0c32,001,2023-12-14_08h40.41.214,bars,2023.2.3,Win32,60.60606061,,,,,,6192.8878,6193.8856,,,6194.3873,6194.6357,,153,153,,,,,,,,,,,,,,,,bars/010.png,bars/mask009.png,,,,,,,,,,,,3,1,,,,,,,5,7,5,7,,,,,,,,,,,6193.8856,6194.3872,6194.6357,6208.5871,space,13.9483,,6208.5872,12,82,6209.5848,6209.5848,6209.5946,,,,0,1,1,1,1,165,55,,,,,,,,
,,611d03b822d4c8e041ea0c32,001,2023-12-14_08h40.41.214,bars,2023.2.3,Win32,60.60606061,,,,,,6209.5947,6210.5846,,,6211.0843,6211.3344,,133,133,,,,,,,,,,,,,,,,bars/034.png,bars/mask002.png,,,,,,,,,,,,3,1,,,,,,,3,5,4,4,,,,,,,,,,,6210.5846,6211.0843,6211.3344,6213.1506,space,1.81,,6213.1507,8,68,6214.1509,6214.1509,6214.1618,,,,0,2,2,2,1,125,65,,,,,,,,
,,611d03b822d4c8e041ea0c32,001,2023-12-14_08h40.41.214,bars,2023.2.3,Win32,60.60606061,,,,,,6214.1619,6215.1528,,,6215.6503,6215.9025,,73,73,,,,,,,,,,,,,,,,bars/040.png,bars/mask003.png,,,,,,,,,,,,0,1,,,,,,,1,3,2,3,,,,,,,,,,,6215.1529,6215.6502,6215.9025,6217.0011,space,1.0705,,6217.0011,67,68,6218.0006,6218.0007,6218.0014,,,,0,3,3,3,1,140,5,,,,,,,,
,,611d03b822d4c8e041ea0c32,001,2023-12-14_08h40.41.214,bars,2023.2.3,Win32,60.60606061,,,,,,6218.0016,6219.0006,,,6219.5007,6219.7504,,152,152,,,,,,,,,,,,,,,,bars/029.png,bars/mask002.png,,,,,,,,,,,,0,1,,,,,,,3,5,2,6,,,,,,,,,,,6219.0006,6219.5006,6219.7505,6259.4982,space,39.724,,6259.4983,62,73,6260.4983,6260.4984,6260.5101,,,,0,4,4,4,1,90,45,,,,,,,,
,,611d03b822d4c8e041ea0c32,001,2023-12-14_08h40.41.214,bars,2023.2.3,Win32,60.60606061,,,,,,6260.5101,6261.4981,,,6261.9982,6262.2483,,76,76,,,,,,,,,,,,,,,,bars/030.png,bars/mask005.png,,,,,,,,,,,,1,2,,,,,,,1,3,3,2,,,,,,,,,,,6261.4981,6261.9981,6262.2484,6264.5814,space,2.3188,,6264.5815,64,11,6265.5812,6265.5813,6265.5928,,,,0,5,5,5,1,140,65,,,,,,,,
,,611d03b822d4c8e041ea0c32,001,2023-12-14_08h40.41.214,bars,2023.2.3,Win32,60.60606061,,,,,,6265.5929,6266.581,,,6267.0814,6267.3331,,104,104,,,,,,,,,,,,,,,,bars/010.png,bars/mask008.png,,,,,,,,,,,,0,2,,,,,,,3,1,2,1,,,,,,,,,,,6266.581,6267.0814,6267.3331,6269.1811,space,1.8187,,6269.1811,61,49,6270.1808,6270.1808,6270.1815,,,,0,6,6,6,1,165,55,,,,,,,,
,,611d03b822d4c8e041ea0c32,001,2023-12-14_08h40.41.214,bars,2023.2.3,Win32,60.60606061,,,,,,6270.1817,6271.1809,,,6271.6809,6271.9328,,51,51,,,,,,,,,,,,,,,,bars/022.png,bars/mask007.png,,,,,,,,,,,,0,2,,,,,,,5,0,6,0,,,,,,,,,,,6271.181,6271.6809,6271.9329,6280.8829,space,8.9335,,6280.8829,44,31,6281.88,6281.8802,6281.8911,,,,0,7,7,7,1,95,20,,,,,,,,
,,611d03b822d4c8e041ea0c32,001,2023-12-14_08h40.41.214,bars,2023.2.3,Win32,60.60606061,,,,,,6281.8913,6282.8798,,,6283.3802,6283.63,,73,73,,,,,,,,,,,,,,,,bars/035.png,bars/mask001.png,,,,,,,,,,,,0,2,,,,,,,7,0,7,0,,,,,,,,,,,6282.8799,6283.3801,6283.6301,6284.6636,space,1.0078,,6284.6637,78,13,6285.6632,6285.6633,6285.6642,,,,0,8,8,8,1,175,60,,,,,,,,
,,611d03b822d4c8e041ea0c32,001,2023-12-14_08h40.41.214,bars,2023.2.3,Win32,60.60606061,,,,,,6285.6644,6286.6633,,,6287.1634,6287.4134,,129,129,,,,,,,,,,,,,,,,bars/005.png,bars/mask004.png,,,,,,,,,,,,1,2,,,,,,,9,0,9,1,,,,,,,,,,,6286.6633,6287.1633,6287.4134,6290.9795,space,3.5536,,6290.9795,61,11,6291.9795,6291.9795,6291.9904,,,,0,9,9,9,1,10,140,,,,,,,,
,,611d03b822d4c8e041ea0c32,001,2023-12-14_08h40.41.214,bars,2023.2.3,Win32,60.60606061,,,,,,6291.9905,6292.9795,,,6293.4814,6293.7295,,177,177,,,,,,,,,,,,,,,,bars/002.png,bars/mask001.png,,,,,,,,,,,,0,1,,,,,,,10,2,9,1,,,,,,,,,,,6292.9796,6293.4814,6293.7296,6296.4628,space,2.702,,6296.4628,47,88,6297.4626,6297.4627,6297.4748,,,,0,10,10,10,1,130,85,,,,,,,,
,,611d03b822d4c8e041ea0c32,001,2023-12-14_08h40.41.214,bars,2023.2.3,Win32,60.60606061,,,,,,6297.475,6298.4792,,,6298.9792,6299.2292,,138,138,,,,,,,,,,,,,,,,bars/047.png,bars/mask002.png,,,,,,,,,,,,0,1,,,,,,,8,4,8,4,,,,,,,,,,,6298.4793,6298.9792,6299.2293,6302.3789,space,3.1243,,6302.379,57,68,6303.3789,6303.3789,6303.3915,,,,0,11,11,11,1,15,70,,,,,,,,
,,611d03b822d4c8e041ea0c32,001,2023-12-14_08h40.41.214,bars,2023.2.3,Win32,60.60606061,,,,,,6303.3916,6304.3956,,,6304.8956,6305.1456,,18,18,,,,,,,,,,,,,,,,bars/003.png,bars/mask006.png,,,,,,,,,,,,5,1,,,,,,,6,6,6,7,,,,,,,,,,,6304.3957,6304.8955,6305.1456,6306.898,space,1.7494,,6306.898,7,58,6307.8955,6307.8955,6307.8962,,,,0,12,12,12,1,25,140,,,,,,,,
,,611d03b822d4c8e041ea0c32,001,2023-12-14_08h40.41.214,bars,2023.2.3,Win32,60.60606061,,,,,,6307.8965,6308.8953,,,6309.3954,6309.6454,,36,36,,,,,,,,,,,,,,,,bars/007.png,bars/mask005.png,,,,,,,,,,,,3,2,,,,,,,8,8,8,9,,,,,,,,,,,6308.8953,6309.3954,6309.6454,6312.6974,space,3.0338,,6312.6974,41,19,6313.697,6313.697,6313.7094,,,,0,13,13,13,1,175,55,,,,,,,,
,,611d03b822d4c8e041ea0c32,001,2023-12-14_08h40.41.214,bars,2023.2.3,Win32,60.60606061,,,,,,6313.7095,6314.7116,,,6315.2118,6315.4636,,35,35,,,,,,,,,,,,,,,,bars/045.png,bars/mask005.png,,,,,,,,,,,,1,2,,,,,,,10,6,9,6,,,,,,,,,,,6314.7116,6315.2118,6315.4636,6316.9284,space,1.4514,,6316.9284,65,25,6317.9279,6317.928,6317.9288,,,,0,14,14,14,1,100,10,,,,,,,,
,,611d03b822d4c8e041ea0c32,001,2023-12-14_08h40.41.214,bars,2023.2.3,Win32,60.60606061,,,,,,6317.929,6318.9299,,,6319.4281,6319.6779,,60,60,,,,,,,,,,,,,,,,bars/027.png,bars/mask002.png,,,,,,,,,,,,2,2,,,,,,,10,4,10,3,,,,,,,,,,,6318.93,6319.4281,6319.678,6321.2443,space,1.547,,6321.2444,50,10,6322.2446,6322.2446,6322.2559,,,,0,15,15,15,1,110,50,,,,,,,,
,,611d03b822d4c8e041ea0c32,001,2023-12-14_08h40.41.214,bars,2023.2.3,Win32,60.60606061,,,,,,6322.2559,6323.2442,,,6323.7445,6323.9964,,119,119,,,,,,,,,,,,,,,,bars/047.png,bars/mask000.png,,,,,,,,,,,,0,2,,,,,,,10,6,10,5,,,,,,,,,,,6323.2443,6323.7445,6323.9964,6325.461,space,1.4547,,6325.4611,76,49,6326.4608,6326.4608,6326.4722,,,,0,16,16,16,1,15,70,,,,,,,,
,,611d03b822d4c8e041ea0c32,001,2023-12-14_08h40.41.214,bars,2023.2.3,Win32,60.60606061,,,,,,6326.4723,6327.4609,,,6327.9606,6328.2109,,136,136,,,,,,,,,,,,,,,,bars/010.png,bars/mask002.png,,,,,,,,,,,,0,1,,,,,,,10,4,10,5,,,,,,,,,,,6327.4609,6327.9606,6328.2109,6330.0109,space,1.7705,,6330.0109,29,81,6331.0105,6331.0105,6331.0189,,,,0,17,17,17,1,165,55,,,,,,,,
,,611d03b822d4c8e041ea0c32,001,2023-12-14_08h40.41.214,bars,2023.2.3,Win32,60.60606061,,,,,,6331.019,6332.0123,,,6332.5104,6332.7622,,49,49,,,,,,,,,,,,,,,,bars/013.png,bars/mask004.png,,,,,,,,,,,,1,1,,,,,,,10,6,10,7,,,,,,,,,,,6332.0123,6332.5104,6332.7623,6336.0938,space,3.3176,,6336.094,26,39,6337.0937,6337.0937,6337.1054,,,,0,18,18,18,1,75,10,,,,,,,,
,,611d03b822d4c8e041ea0c32,001,2023-12-14_08h40.41.214,bars,2023.2.3,Win32,60.60606061,,,,,,6337.1054,6338.0936,,,6338.5956,6338.8434,,141,141,,,,,,,,,,,,,,,,bars/005.png,bars/mask000.png,,,,,,,,,,,,9,2,,,,,,,10,8,10,9,,,,,,,,,,,6338.0936,6338.5956,6338.8436,6340.0623,space,1.2005,,6340.0624,49,1,6341.0599,6341.06,6341.0616,,,,0,19,19,19,1,10,140,,,,,,,,
,,611d03b822d4c8e041ea0c32,001,2023-12-14_08h40.41.214,bars,2023.2.3,Win32,60.60606061,,,,,,6341.0618,6342.0597,,,6347.08,6347.0877,,146,146,,,,,,,,,,,,,,,,bars/006.png,bars/mask004.png,,,,,,,,,,,,0,2,,,,,,,8,10,6,9,,,,,,,,,,,6342.0597,6347.08,6347.0877,6348.4118,space,1.3213,,6348.4118,69,46,6349.4114,6349.4114,6349.4123,,,,0,20,20,20,1,35,100,,,,,,,,
,,611d03b822d4c8e041ea0c32,001,2023-12-14_08h40.41.214,bars,2023.2.3,Win32,60.60606061,,,,,,6349.4126,6350.4113,,,6350.9113,6351.1612,,164,164,,,,,,,,,,,,,,,,bars/006.png,bars/mask003.png,,,,,,,,,,,,0,1,,,,,,,6,10,6,9,,,,,,,,,,,6350.4113,6350.9113,6351.1612,6352.0117,space,0.8339,,6352.0118,51,64,6353.0112,6353.0113,6353.0133,,,,0,21,21,21,1,35,100,,,,,,,,
,,611d03b822d4c8e041ea0c32,001,2023-12-14_08h40.41.214,bars,2023.2.3,Win32,60.60606061,,,,,,6353.0135,6354.0115,,,6354.5111,6354.7611,,83,83,,,,,,,,,,,,,,,,bars/038.png,bars/mask005.png,,,,,,,,,,,,5,2,,,,,,,4,8,3,9,,,,,,,,,,,6354.0115,6354.5111,6354.7611,6355.7614,space,0.9839,,6355.7614,82,13,6356.761,6356.761,6356.7628,,,,0,22,22,22,1,165,70,,,,,,,,
,,611d03b822d4c8e041ea0c32,001,2023-12-14_08h40.41.214,bars,2023.2.3,Win32,60.60606061,,,,,,6356.7631,6357.7608,,,6358.2606,6358.5109,,121,121,,,,,,,,,,,,,,,,bars/029.png,bars/mask000.png,,,,,,,,,,,,0,1,,,,,,,6,10,5,10,,,,,,,,,,,6357.7608,6358.2606,6358.5109,6359.5948,space,1.0676,,6359.5948,31,76,6360.5942,6360.5942,6360.5961,,,,0,23,23,23,1,90,45,,,,,,,,
,,611d03b822d4c8e041ea0c32,001,2023-12-14_08h40.41.214,bars,2023.2.3,Win32,60.60606061,,,,,,6360.5964,6361.5942,,,6362.0943,6362.3441,,68,68,,,,,,,,,,,,,,,,bars/012.png,bars/mask009.png,,,,,,,,,,,,2,1,,,,,,,8,10,8,10,,,,,,,,,,,6361.5942,6362.0943,6362.3442,6363.7109,space,1.3506,,6363.711,22,53,6364.7107,6364.7107,6364.7227,,,,0,24,24,24,1,90,15,,,,,,,,
,,611d03b822d4c8e041ea0c32,001,2023-12-14_08h40.41.214,bars,2023.2.3,Win32,60.60606061,,,,,,6364.723,6365.7275,,,6366.2272,6366.4773,,101,101,,,,,,,,,,,,,,,,bars/018.png,bars/mask009.png,,,,,,,,,,,,4,2,,,,,,,6,8,7,7,,,,,,,,,,,6365.7275,6366.2272,6366.4773,6367.4442,space,0.9505,,6367.4443,49,11,6368.4438,6368.4438,6368.4546,,,,0,25,25,25,1,150,90,,,,,,,,
,,611d03b822d4c8e041ea0c32,001,2023-12-14_08h40.41.214,bars,2023.2.3,Win32,60.60606061,,,,,,6368.4546,6369.4436,,,6369.9435,6370.1934,,57,57,,,,,,,,,,,,,,,,bars/013.png,bars/mask007.png,,,,,,,,,,,,2,1,,,,,,,4,6,4,6,,,,,,,,,,,6369.4437,6369.9435,6370.1934,6372.0106,space,1.8006,,6372.0107,18,47,6373.0101,6373.0101,6373.0215,,,,0,26,26,26,1,75,10,,,,,,,,
,,611d03b822d4c8e041ea0c32,001,2023-12-14_08h40.41.214,bars,2023.2.3,Win32,60.60606061,,,,,,6373.0216,6374.01,,,6374.5101,6374.7599,,56,56,,,,,,,,,,,,,,,,bars/008.png,bars/mask000.png,,,,,,,,,,,,0,1,,,,,,,2,8,3,7,,,,,,,,,,,6374.0101,6374.5101,6374.76,6376.027,space,1.2506,,6376.027,54,56,6377.0265,6377.0265,6377.0271,,,,0,27,27,27,1,110,0,,,,,,,,
,,611d03b822d4c8e041ea0c32,001,2023-12-14_08h40.41.214,bars,2023.2.3,Win32,60.60606061,,,,,,6377.0274,6378.0262,,,6378.5265,6378.7758,,67,67,,,,,,,,,,,,,,,,bars/034.png,bars/mask002.png,,,,,,,,,,,,9,2,,,,,,,0,10,0,10,,,,,,,,,,,6378.0262,6378.5265,6378.7758,6380.2101,space,1.4176,,6380.2101,58,2,6381.2096,6381.2096,6381.2214,,,,0,28,28,28,1,125,65,,,,,,,,
,,611d03b822d4c8e041ea0c32,001,2023-12-14_08h40.41.214,bars,2023.2.3,Win32,60.60606061,,,,,,6381.2215,6382.2092,,,6382.7095,6382.9593,,42,42,,,,,,,,,,,,,,,,bars/036.png,bars/mask009.png,,,,,,,,,,,,2,2,,,,,,,0,8,1,9,,,,,,,,,,,6382.2092,6382.7094,6382.9594,6384.1931,space,1.2171,,6384.1931,77,22,6385.1926,6385.1927,6385.1933,,,,0,29,29,29,1,145,20,,,,,,,,
,,611d03b822d4c8e041ea0c32,001,2023-12-14_08h40.41.214,bars,2023.2.3,Win32,60.60606061,,,,,,6385.1936,6386.1926,,,6386.6927,6386.9428,,175,-5,,,,,,,,,,,,,,,,bars/017.png,bars/mask001.png,,,,,,,,,,,,0,1,,,,,,,0,6,0,5,,,,,,,,,,,6386.1926,6386.6926,6386.9428,6387.743,space,0.7841,,6387.743,30,50,6388.7436,6388.7436,6388.7454,,,,0,30,30,30,1,145,45,,,,,,,,
,,611d03b822d4c8e041ea0c32,001,2023-12-14_08h40.41.214,bars,2023.2.3,Win32,60.60606061,,,,,,6388.7457,6389.7424,,,6390.2423,6390.4923,,166,166,,,,,,,,,,,,,,,,bars/049.png,bars/mask006.png,,,,,,,,,,,,2,1,,,,,,,2,8,3,9,,,,,,,,,,,6389.7424,6390.2423,6390.4923,6392.5094,space,2.0009,,6392.5094,6,51,6393.5086,6393.5087,6393.5175,,,,0,31,31,31,1,160,115,,,,,,,,
,,611d03b822d4c8e041ea0c32,001,2023-12-14_08h40.41.214,bars,2023.2.3,Win32,60.60606061,,,,,,6393.5176,6394.5089,,,6395.0089,6395.2588,,140,140,,,,,,,,,,,,,,,,bars/045.png,bars/mask009.png,,,,,,,,,,,,0,1,,,,,,,0,10,0,9,,,,,,,,,,,6394.5089,6395.0089,6395.2588,6399.6922,space,4.4169,,6399.6922,40,50,6400.6916,6400.6916,6400.7004,,,,0,32,32,32,1,100,10,,,,,,,,
,,611d03b822d4c8e041ea0c32,001,2023-12-14_08h40.41.214,bars,2023.2.3,Win32,60.60606061,,,,,,6400.7005,6401.6917,,,6402.1919,6402.4418,,137,137,,,,,,,,,,,,,,,,bars/014.png,bars/mask007.png,,,,,,,,,,,,0,2,,,,,,,2,10,3,10,,,,,,,,,,,6401.6917,6402.1919,6402.4418,6403.1255,space,0.6673,,6403.1255,57,43,6404.1248,6404.1248,6404.1262,,,,0,33,33,33,1,80,0,,,,,,,,
,,611d03b822d4c8e041ea0c32,001,2023-12-14_08h40.41.214,bars,2023.2.3,Win32,60.60606061,,,,,,6404.1264,6405.1252,,,6405.625,6405.8749,,6,6,,,,,,,,,,,,,,,,bars/047.png,bars/mask009.png,,,,,,,,,,,,0,1,,,,,,,0,10,0,10,,,,,,,,,,,6405.1252,6405.625,6405.875,6406.6921,space,0.8009,,6406.6921,9,64,6407.6911,6407.6911,6407.693,,,,0,34,34,34,1,15,70,,,,,,,,
,,611d03b822d4c8e041ea0c32,001,2023-12-14_08h40.41.214,bars,2023.2.3,Win32,60.60606061,,,,,,6407.6933,6408.6911,,,6409.1912,6409.4413,,97,97,,,,,,,,,,,,,,,,bars/000.png,bars/mask004.png,,,,,,,,,,,,0,2,,,,,,,2,10,2,10,,,,,,,,,,,6408.6911,6409.1911,6409.4413,6423.2908,space,13.8331,,6423.2909,57,48,6424.2904,6424.2904,6424.3016,,,,0,35,35,35,1,40,145,,,,,,,,
,,611d03b822d4c8e041ea0c32,001,2023-12-14_08h40.41.214,bars,2023.2.3,Win32,60.60606061,,,,,,6424.3017,6425.2903,,,6425.7904,6426.0402,,51,51,,,,,,,,,,,,,,,,bars/022.png,bars/mask008.png,,,,,,,,,,,,0,2,,,,,,,0,10,0,10,,,,,,,,,,,6425.2903,6425.7904,6426.0402,6428.8571,space,2.8005,,6428.8571,44,31,6429.8566,6429.8567,6429.8683,,,,0,36,36,36,1,95,20,,,,,,,,
,,611d03b822d4c8e041ea0c32,001,2023-12-14_08h40.41.214,bars,2023.2.3,Win32,60.60606061,,,,,,6429.8685,6430.8566,,,6431.3567,6431.6068,,170,170,,,,,,,,,,,,,,,,bars/036.png,bars/mask001.png,,,,,,,,,,,,0,1,,,,,,,0,10,1,10,,,,,,,,,,,6430.8566,6431.3566,6431.6068,6432.4067,space,0.7841,,6432.4069,25,30,6433.4065,6433.4065,6433.4085,,,,0,37,37,37,1,145,20,,,,,,,,
,,611d03b822d4c8e041ea0c32,001,2023-12-14_08h40.41.214,bars,2023.2.3,Win32,60.60606061,,,,,,6433.4089,6434.4065,,,6434.9066,6435.1566,,157,157,,,,,,,,,,,,,,,,bars/003.png,bars/mask000.png,,,,,,,,,,,,4,2,,,,,,,2,8,1,9,,,,,,,,,,,6434.4066,6434.9065,6435.1566,6436.3233,space,1.1506,,6436.3233,48,17,6437.3227,6437.3227,6437.3245,,,,0,38,38,38,1,25,140,,,,,,,,
,,611d03b822d4c8e041ea0c32,001,2023-12-14_08h40.41.214,bars,2023.2.3,Win32,60.60606061,,,,,,6437.3249,6438.3227,,,6438.8223,6439.0727,,95,95,,,,,,,,,,,,,,,,bars/030.png,bars/mask006.png,,,,,,,,,,,,0,2,,,,,,,4,10,4,10,,,,,,,,,,,6438.3227,6438.8223,6439.0727,6440.873,space,1.7839,,6440.873,45,30,6441.8725,6441.8725,6441.8732,,,,0,39,39,39,1,140,65,,,,,,,,
,,611d03b822d4c8e041ea0c32,001,2023-12-14_08h40.41.214,bars,2023.2.3,Win32,60.60606061,,,,,,6441.8734,6442.8725,,,6443.3728,6443.6225,,62,62,,,,,,,,,,,,,,,,bars/042.png,bars/mask008.png,,,,,,,,,,,,6,2,,,,,,,6,10,6,10,,,,,,,,,,,6442.8726,6443.3727,6443.6225,6445.2895,space,1.6508,,6445.2895,83,13,6446.2891,6446.2892,6446.2898,,,,0,40,40,40,1,145,75,,,,,,,,
,,611d03b822d4c8e041ea0c32,001,2023-12-14_08h40.41.214,bars,2023.2.3,Win32,60.60606061,,,,,,6446.2901,6447.289,,,6447.7889,6448.039,,113,113,,,,,,,,,,,,,,,,bars/019.png,bars/mask004.png,,,,,,,,,,,,7,2,,,,,,,8,10,9,10,,,,,,,,,,,6447.289,6447.7889,6448.0391,6450.5559,space,2.5006,,6450.556,68,8,6451.5554,6451.5554,6451.5668,,,,0,41,41,41,1,45,105,,,,,,,,
,,611d03b822d4c8e041ea0c32,001,2023-12-14_08h40.41.214,bars,2023.2.3,Win32,60.60606061,,,,,,6451.5669,6452.5555,,,6453.0554,6453.3054,,175,175,,,,,,,,,,,,,,,,bars/031.png,bars/mask008.png,,,,,,,,,,,,0,2,,,,,,,6,10,4,10,,,,,,,,,,,6452.5555,6453.0554,6453.3054,6467.9879,space,14.6663,,6467.9879,55,40,6468.9877,6468.9877,6468.9982,,,,0,42,42,42,1,120,35,,,,,,,,
,,611d03b822d4c8e041ea0c32,001,2023-12-14_08h40.41.214,bars,2023.2.3,Win32,60.60606061,,,,,,6468.9983,6469.9876,,,6470.4878,6470.7374,,178,-2,,,,,,,,,,,,,,,,bars/028.png,bars/mask004.png,,,,,,,,,,,,0,1,,,,,,,8,8,6,8,,,,,,,,,,,6469.9876,6470.4878,6470.7374,6472.5377,space,1.7838,,6472.5377,47,58,6473.5375,6473.5375,6473.5482,,,,0,43,43,43,1,45,120,,,,,,,,
,,611d03b822d4c8e041ea0c32,001,2023-12-14_08h40.41.214,bars,2023.2.3,Win32,60.60606061,,,,,,6473.5483,6474.5374,,,6475.0374,6475.2874,,110,110,,,,,,,,,,,,,,,,bars/044.png,bars/mask006.png,,,,,,,,,,,,0,1,,,,,,,6,10,5,9,,,,,,,,,,,6474.5374,6475.0374,6475.2874,6476.0877,space,0.7838,,6476.0877,35,45,6477.0873,6477.0873,6477.0879,,,,0,44,44,44,1,75,155,,,,,,,,
,,611d03b822d4c8e041ea0c32,001,2023-12-14_08h40.41.214,bars,2023.2.3,Win32,60.60606061,,,,,,6477.0883,6478.0872,,,6478.587,6478.837,,99,99,,,,,,,,,,,,,,,,bars/014.png,bars/mask007.png,,,,,,,,,,,,1,1,,,,,,,4,8,3,8,,,,,,,,,,,6478.0872,6478.587,6478.837,6481.154,space,2.3008,,6481.154,19,81,6482.1536,6482.1536,6482.1643,,,,0,45,45,45,1,80,0,,,,,,,,
