init_variables.started,init_variables.stopped,participant,session,date,expName,psychopyVersion,OS,frameRate,instruction_single.started,instruction_single.stopped,key_resp_2.keys,key_resp_2.rt,key_resp_2.duration,interval.started,interval.stopped,cue_single.started,cue_single.stopped,mask.started,mask.stopped,ori_response_single.started,res_ori,res,ori_response_single.stopped,key_resp_single.keys,key_resp_single.rt,key_resp_single.duration,disp_single.started,disp_single.stopped,key_resp.keys,key_resp.rt,key_resp.duration,single.thisRepN,single.thisTrialN,single.thisN,single.thisIndex,single.ran,ori,path,mask_path,instruction_bandit.started,instruction_bandit.stopped,key_resp_6.keys,key_resp_6.rt,key_resp_6.duration,cue_bandit.started,cue_bandit.stopped,bandit_res.keys,bandit_res.rt,bandit_res.duration,outcome_bandit.started,rew,action,outcome_bandit.stopped,bandit.thisRepN,bandit.thisTrialN,bandit.thisN,bandit.thisIndex,bandit.ran,actual_rew1,actual_rew2,rew1,rew2,instruction_task.started,instruction_task.stopped,key_resp_7.keys,key_resp_7.rt,key_resp_7.duration,wait_ready.started,wait_ready.stopped,key_resp_3.keys,key_resp_3.rt,key_resp_3.duration,cue.started,cue.stopped,ori_response.started,ori_response.stopped,key_resp_5.keys,key_resp_5.rt,key_resp_5.duration,outcome.started,diff1,diff2,outcome.stopped,disp_outcome_practice.started,disp_outcome_practice.stopped,key_resp_4.keys,key_resp_4.rt,key_resp_4.duration,trials.thisRepN,trials.thisTrialN,trials.thisN,trials.thisIndex,trials.ran,ori1,ori2,break_blk.started,break_blk.stopped,block.thisRepN,block.thisTrialN,block.thisN,block.thisIndex,block.ran,condition_file
0.0004,0.0005,6169c75c94f8d8dacf4fe265,001,2023-12-14_08h18.01.908,bars,2023.2.3,Win32,60.24096386,,,,,,,,,,,,,,,,,,,,,,,,,,,,,,,,,,,,,,,,,,,,,,,,,,,,,,,,,,,,,,,,,,,,,,,,,,,,,,,,,,,,,,,,,,,,,,,
,,6169c75c94f8d8dacf4fe265,001,2023-12-14_08h18.01.908,bars,2023.2.3,Win32,60.24096386,0.0008,19.3524,space,19.3119,,,,,,,,,,,,,,,,,,,,,,,,,,,,,,,,,,,,,,,,,,,,,,,,,,,,,,,,,,,,,,,,,,,,,,,,,,,,,,,,,,,,,,,,,,,
,,6169c75c94f8d8dacf4fe265,001,2023-12-14_08h18.01.908,bars,2023.2.3,Win32,60.24096386,,,,,,19.3577,20.3461,20.3462,20.8538,20.8541,21.0963,21.0968,90,90,42.4,space,21.2553,,42.4002,50.4964,space,8.0609,,0,0,0,4,1,95,bars/single004.png,bars/mask004.png,,,,,,,,,,,,,,,,,,,,,,,,,,,,,,,,,,,,,,,,,,,,,,,,,,,,,,,,,,,,,,,,
,,6169c75c94f8d8dacf4fe265,001,2023-12-14_08h18.01.908,bars,2023.2.3,Win32,60.24096386,,,,,,50.5111,51.5019,51.502,52.0016,52.0016,52.2515,52.2516,122,122,58.0003,space,5.7315,,58.0004,61.0493,space,3.021,,0,1,1,6,1,175,bars/single006.png,bars/mask005.png,,,,,,,,,,,,,,,,,,,,,,,,,,,,,,,,,,,,,,,,,,,,,,,,,,,,,,,,,,,,,,,,
,,6169c75c94f8d8dacf4fe265,001,2023-12-14_08h18.01.908,bars,2023.2.3,Win32,60.24096386,,,,,,61.0638,62.072,62.072,62.5721,62.5722,62.8074,62.8074,4,184,77.0514,space,14.2277,,77.0515,82.0088,space,4.9263,,0,2,2,3,1,20,bars/single003.png,bars/mask005.png,,,,,,,,,,,,,,,,,,,,,,,,,,,,,,,,,,,,,,,,,,,,,,,,,,,,,,,,,,,,,,,,
,,6169c75c94f8d8dacf4fe265,001,2023-12-14_08h18.01.908,bars,2023.2.3,Win32,60.24096386,,,,,,82.0217,83.0242,83.0243,83.5244,83.5245,83.774,83.7741,150,150,86.0236,space,2.2333,,86.0236,87.8066,space,1.7644,,0,3,3,1,1,20,bars/single001.png,bars/mask006.png,,,,,,,,,,,,,,,,,,,,,,,,,,,,,,,,,,,,,,,,,,,,,,,,,,,,,,,,,,,,,,,,
,,6169c75c94f8d8dacf4fe265,001,2023-12-14_08h18.01.908,bars,2023.2.3,Win32,60.24096386,,,,,,87.8075,88.8059,88.806,89.3063,89.3063,89.5556,89.5557,51,51,95.7704,space,6.1989,,95.7705,99.5022,space,3.7069,,0,4,4,7,1,45,bars/single007.png,bars/mask009.png,,,,,,,,,,,,,,,,,,,,,,,,,,,,,,,,,,,,,,,,,,,,,,,,,,,,,,,,,,,,,,,,
,,6169c75c94f8d8dacf4fe265,001,2023-12-14_08h18.01.908,bars,2023.2.3,Win32,60.24096386,,,,,,99.5155,100.5189,100.5189,101.0191,101.0192,101.2683,101.2683,22,22,111.0486,space,9.7645,,111.0489,115.9633,space,4.8913,,0,5,5,5,1,55,bars/single005.png,bars/mask008.png,,,,,,,,,,,,,,,,,,,,,,,,,,,,,,,,,,,,,,,,,,,,,,,,,,,,,,,,,,,,,,,,
,,6169c75c94f8d8dacf4fe265,001,2023-12-14_08h18.01.908,bars,2023.2.3,Win32,60.24096386,,,,,,115.979,116.9796,116.9796,117.4795,117.4795,117.7294,117.7295,104,104,121.0449,space,3.2987,,121.0449,129.0428,space,7.9784,,0,6,6,9,1,20,bars/single009.png,bars/mask006.png,,,,,,,,,,,,,,,,,,,,,,,,,,,,,,,,,,,,,,,,,,,,,,,,,,,,,,,,,,,,,,,,
,,6169c75c94f8d8dacf4fe265,001,2023-12-14_08h18.01.908,bars,2023.2.3,Win32,60.24096386,,,,,,129.091,130.046,130.046,130.5418,130.5419,130.7918,130.7919,12,192,138.0152,space,7.1981,,138.0152,142.5381,space,4.4932,,0,7,7,0,1,150,bars/single000.png,bars/mask006.png,,,,,,,,,,,,,,,,,,,,,,,,,,,,,,,,,,,,,,,,,,,,,,,,,,,,,,,,,,,,,,,,
,,6169c75c94f8d8dacf4fe265,001,2023-12-14_08h18.01.908,bars,2023.2.3,Win32,60.24096386,,,,,,142.5516,143.5539,143.554,144.0537,144.0537,144.3038,144.3038,154,154,154.0783,space,9.7634,,154.0783,157.3735,space,3.2589,,0,8,8,2,1,145,bars/single002.png,bars/mask003.png,,,,,,,,,,,,,,,,,,,,,,,,,,,,,,,,,,,,,,,,,,,,,,,,,,,,,,,,,,,,,,,,
,,6169c75c94f8d8dacf4fe265,001,2023-12-14_08h18.01.908,bars,2023.2.3,Win32,60.24096386,,,,,,157.3738,158.3708,158.3709,158.8662,158.8662,159.1083,159.1084,144,-36,165.3853,space,6.2615,,165.3854,169.3792,space,3.9633,,0,9,9,8,1,160,bars/single008.png,bars/mask004.png,,,,,,,,,,,,,,,,,,,,,,,,,,,,,,,,,,,,,,,,,,,,,,,,,,,,,,,,,,,,,,,,
,,6169c75c94f8d8dacf4fe265,001,2023-12-14_08h18.01.908,bars,2023.2.3,Win32,60.24096386,,,,,,,,,,,,,,,,,,,,,,,,,,,,,,,,169.3975,365.2842,space,195.8672,,,,,,,,,,,,,,,,,,,,,,,,,,,,,,,,,,,,,,,,,,,,,,,,,,,,,,,,,,,,
,,6169c75c94f8d8dacf4fe265,001,2023-12-14_08h18.01.908,bars,2023.2.3,Win32,60.24096386,,,,,,,,,,,,,,,,,,,,,,,,,,,,,,,,,,,,,365.3006,368.2645,left,2.9392,,368.2648,9,1,369.2599,0,0,0,0,1,9,1,9,2,,,,,,,,,,,,,,,,,,,,,,,,,,,,,,,,,,,,,,,,,
,,6169c75c94f8d8dacf4fe265,001,2023-12-14_08h18.01.908,bars,2023.2.3,Win32,60.24096386,,,,,,,,,,,,,,,,,,,,,,,,,,,,,,,,,,,,,369.2603,372.0471,right,2.7669,,372.0473,1,2,373.0468,0,1,1,1,1,10,0,10,1,,,,,,,,,,,,,,,,,,,,,,,,,,,,,,,,,,,,,,,,,
,,6169c75c94f8d8dacf4fe265,001,2023-12-14_08h18.01.908,bars,2023.2.3,Win32,60.24096386,,,,,,,,,,,,,,,,,,,,,,,,,,,,,,,,,,,,,373.0475,373.6629,left,0.5863,,373.663,10,1,374.6692,0,2,2,2,1,10,2,10,2,,,,,,,,,,,,,,,,,,,,,,,,,,,,,,,,,,,,,,,,,
,,6169c75c94f8d8dacf4fe265,001,2023-12-14_08h18.01.908,bars,2023.2.3,Win32,60.24096386,,,,,,,,,,,,,,,,,,,,,,,,,,,,,,,,,,,,,374.6702,375.7032,left,1.016,,375.7033,7,1,376.6952,0,3,3,3,1,8,4,7,3,,,,,,,,,,,,,,,,,,,,,,,,,,,,,,,,,,,,,,,,,
,,6169c75c94f8d8dacf4fe265,001,2023-12-14_08h18.01.908,bars,2023.2.3,Win32,60.24096386,,,,,,,,,,,,,,,,,,,,,,,,,,,,,,,,,,,,,376.696,380.2782,left,3.5521,,380.2784,5,1,381.2767,0,4,4,4,1,6,2,5,1,,,,,,,,,,,,,,,,,,,,,,,,,,,,,,,,,,,,,,,,,
,,6169c75c94f8d8dacf4fe265,001,2023-12-14_08h18.01.908,bars,2023.2.3,Win32,60.24096386,,,,,,,,,,,,,,,,,,,,,,,,,,,,,,,,,,,,,381.2897,382.9433,left,1.6336,,382.9435,4,1,383.9335,0,5,5,5,1,4,4,4,4,,,,,,,,,,,,,,,,,,,,,,,,,,,,,,,,,,,,,,,,,
,,6169c75c94f8d8dacf4fe265,001,2023-12-14_08h18.01.908,bars,2023.2.3,Win32,60.24096386,,,,,,,,,,,,,,,,,,,,,,,,,,,,,,,,,,,,,383.945,385.684,left,1.7295,,385.6841,1,1,386.6773,0,6,6,6,1,2,2,1,2,,,,,,,,,,,,,,,,,,,,,,,,,,,,,,,,,,,,,,,,,
,,6169c75c94f8d8dacf4fe265,001,2023-12-14_08h18.01.908,bars,2023.2.3,Win32,60.24096386,,,,,,,,,,,,,,,,,,,,,,,,,,,,,,,,,,,,,386.6779,387.592,left,0.8864,,387.5921,0,1,388.5913,0,7,7,7,1,0,0,0,1,,,,,,,,,,,,,,,,,,,,,,,,,,,,,,,,,,,,,,,,,
,,6169c75c94f8d8dacf4fe265,001,2023-12-14_08h18.01.908,bars,2023.2.3,Win32,60.24096386,,,,,,,,,,,,,,,,,,,,,,,,,,,,,,,,,,,,,388.5924,389.1576,left,0.5416,,389.1578,1,1,390.1575,0,8,8,8,1,0,2,1,0,,,,,,,,,,,,,,,,,,,,,,,,,,,,,,,,,,,,,,,,,
,,6169c75c94f8d8dacf4fe265,001,2023-12-14_08h18.01.908,bars,2023.2.3,Win32,60.24096386,,,,,,,,,,,,,,,,,,,,,,,,,,,,,,,,,,,,,390.1582,390.4913,right,0.305,,390.4914,3,2,391.4907,0,9,9,9,1,2,4,2,3,,,,,,,,,,,,,,,,,,,,,,,,,,,,,,,,,,,,,,,,,
,,6169c75c94f8d8dacf4fe265,001,2023-12-14_08h18.01.908,bars,2023.2.3,Win32,60.24096386,,,,,,,,,,,,,,,,,,,,,,,,,,,,,,,,,,,,,391.4925,392.4706,left,0.9559,,392.4707,0,1,393.4728,0,10,10,10,1,0,2,0,3,,,,,,,,,,,,,,,,,,,,,,,,,,,,,,,,,,,,,,,,,
,,6169c75c94f8d8dacf4fe265,001,2023-12-14_08h18.01.908,bars,2023.2.3,Win32,60.24096386,,,,,,,,,,,,,,,,,,,,,,,,,,,,,,,,,,,,,393.4739,393.9146,right,0.4172,,393.9147,3,2,394.9059,0,11,11,11,1,0,4,0,3,,,,,,,,,,,,,,,,,,,,,,,,,,,,,,,,,,,,,,,,,
,,6169c75c94f8d8dacf4fe265,001,2023-12-14_08h18.01.908,bars,2023.2.3,Win32,60.24096386,,,,,,,,,,,,,,,,,,,,,,,,,,,,,,,,,,,,,394.9065,395.5455,right,0.6154,,395.5455,6,2,396.5459,0,12,12,12,1,2,6,1,6,,,,,,,,,,,,,,,,,,,,,,,,,,,,,,,,,,,,,,,,,
,,6169c75c94f8d8dacf4fe265,001,2023-12-14_08h18.01.908,bars,2023.2.3,Win32,60.24096386,,,,,,,,,,,,,,,,,,,,,,,,,,,,,,,,,,,,,396.547,397.73,left,1.1672,,397.7301,1,1,398.7208,0,13,13,13,1,0,4,1,3,,,,,,,,,,,,,,,,,,,,,,,,,,,,,,,,,,,,,,,,,
,,6169c75c94f8d8dacf4fe265,001,2023-12-14_08h18.01.908,bars,2023.2.3,Win32,60.24096386,,,,,,,,,,,,,,,,,,,,,,,,,,,,,,,,,,,,,398.7225,398.9884,right,0.237,,398.9885,7,2,399.9951,0,14,14,14,1,2,6,2,7,,,,,,,,,,,,,,,,,,,,,,,,,,,,,,,,,,,,,,,,,
,,6169c75c94f8d8dacf4fe265,001,2023-12-14_08h18.01.908,bars,2023.2.3,Win32,60.24096386,,,,,,,,,,,,,,,,,,,,,,,,,,,,,,,,,,,,,399.9956,400.4223,right,0.4042,,400.4224,9,2,401.4207,0,15,15,15,1,4,8,3,9,,,,,,,,,,,,,,,,,,,,,,,,,,,,,,,,,,,,,,,,,
,,6169c75c94f8d8dacf4fe265,001,2023-12-14_08h18.01.908,bars,2023.2.3,Win32,60.24096386,,,,,,,,,,,,,,,,,,,,,,,,,,,,,,,,,,,,,401.422,401.8867,right,0.4354,,401.8868,7,2,402.8935,0,16,16,16,1,6,6,7,7,,,,,,,,,,,,,,,,,,,,,,,,,,,,,,,,,,,,,,,,,
,,6169c75c94f8d8dacf4fe265,001,2023-12-14_08h18.01.908,bars,2023.2.3,Win32,60.24096386,,,,,,,,,,,,,,,,,,,,,,,,,,,,,,,,,,,,,402.894,403.2199,right,0.302,,403.2201,5,2,404.2234,0,17,17,17,1,8,4,9,5,,,,,,,,,,,,,,,,,,,,,,,,,,,,,,,,,,,,,,,,,
,,6169c75c94f8d8dacf4fe265,001,2023-12-14_08h18.01.908,bars,2023.2.3,Win32,60.24096386,,,,,,,,,,,,,,,,,,,,,,,,,,,,,,,,,,,,,404.2241,404.569,left,0.3179,,404.5691,5,1,405.5689,0,18,18,18,1,6,2,5,1,,,,,,,,,,,,,,,,,,,,,,,,,,,,,,,,,,,,,,,,,
,,6169c75c94f8d8dacf4fe265,001,2023-12-14_08h18.01.908,bars,2023.2.3,Win32,60.24096386,,,,,,,,,,,,,,,,,,,,,,,,,,,,,,,,,,,,,405.5695,405.9858,left,0.3815,,405.9859,7,1,406.9846,0,19,19,19,1,8,0,7,0,,,,,,,,,,,,,,,,,,,,,,,,,,,,,,,,,,,,,,,,,
,,6169c75c94f8d8dacf4fe265,001,2023-12-14_08h18.01.908,bars,2023.2.3,Win32,60.24096386,,,,,,,,,,,,,,,,,,,,,,,,,,,,,,,,,,,,,,,,,,,,,,,,,,,,,,,406.9865,498.756,space,91.7422,,,,,,,,,,,,,,,,,,,,,,,,,,,,,,,,,,,,,
,,6169c75c94f8d8dacf4fe265,001,2023-12-14_08h18.01.908,bars,2023.2.3,Win32,60.24096386,,,,,,501.3298,502.3198,,,502.8206,503.0692,,173,173,,,,,,,,,,,,,,,,bars/028.png,bars/mask008.png,,,,,,,,,,,,0,1,,,,,,,9,4,9,4,,,,,,498.7714,501.3205,space,2.5275,,502.321,502.8202,503.0701,507.7781,space,4.6831,,507.7783,52,53,508.7678,508.7686,514.2402,space,5.4454,,0,0,0,0,1,45,120,,,,,,,,
,,6169c75c94f8d8dacf4fe265,001,2023-12-14_08h18.01.908,bars,2023.2.3,Win32,60.24096386,,,,,,514.2537,515.2487,,,515.7528,516.0064,,35,215,,,,,,,,,,,,,,,,bars/034.png,bars/mask000.png,,,,,,,,,,,,0,2,,,,,,,7,2,7,0,,,,,,,,,,,515.2489,515.7527,516.0065,522.92,space,6.8977,,522.9202,90,30,523.9124,523.9125,527.1359,space,3.1931,,0,1,1,1,1,125,65,,,,,,,,
,,6169c75c94f8d8dacf4fe265,001,2023-12-14_08h18.01.908,bars,2023.2.3,Win32,60.24096386,,,,,,527.1364,528.1279,,,528.6271,528.8843,,115,115,,,,,,,,,,,,,,,,bars/012.png,bars/mask005.png,,,,,,,,,,,,1,1,,,,,,,9,0,8,1,,,,,,,,,,,528.128,528.627,528.8844,531.1772,space,2.2681,,531.1773,25,80,532.1762,532.1763,534.8674,space,2.664,,0,2,2,2,1,90,15,,,,,,,,
,,6169c75c94f8d8dacf4fe265,001,2023-12-14_08h18.01.908,bars,2023.2.3,Win32,60.24096386,,,,,,534.8679,535.8587,,,536.3584,536.6166,,21,21,,,,,,,,,,,,,,,,bars/018.png,bars/mask003.png,,,,,,,,,,,,0,1,,,,,,,7,2,8,2,,,,,,,,,,,535.8587,536.3583,536.6166,538.3333,space,1.7084,,538.3334,51,69,539.324,539.324,540.4234,space,1.0685,,0,3,3,3,1,150,90,,,,,,,,
,,6169c75c94f8d8dacf4fe265,001,2023-12-14_08h18.01.908,bars,2023.2.3,Win32,60.24096386,,,,,,540.4238,541.4226,,,541.9236,542.1725,,165,165,,,,,,,,,,,,,,,,bars/003.png,bars/mask005.png,,,,,,,,,,,,1,2,,,,,,,9,4,9,4,,,,,,,,,,,541.4227,541.9234,542.1725,547.2214,space,5.0329,,547.2214,40,25,548.2211,548.2213,553.0191,space,4.7618,,0,4,4,4,1,25,140,,,,,,,,
,,6169c75c94f8d8dacf4fe265,001,2023-12-14_08h18.01.908,bars,2023.2.3,Win32,60.24096386,,,,,,553.0317,554.0349,,,554.5347,554.7849,,3,3,,,,,,,,,,,,,,,,bars/037.png,bars/mask007.png,,,,,,,,,,,,0,1,,,,,,,10,6,10,6,,,,,,,,,,,554.035,554.5347,554.785,562.2326,space,7.4323,,562.2327,33,78,563.2317,563.2317,566.0314,space,2.7697,,0,5,5,5,1,150,105,,,,,,,,
,,6169c75c94f8d8dacf4fe265,001,2023-12-14_08h18.01.908,bars,2023.2.3,Win32,60.24096386,,,,,,566.0325,567.0307,,,567.5309,567.7804,,71,71,,,,,,,,,,,,,,,,bars/022.png,bars/mask005.png,,,,,,,,,,,,2,1,,,,,,,8,4,9,6,,,,,,,,,,,567.0307,567.5308,567.7805,570.9293,space,3.1331,,570.9293,24,51,571.9289,571.929,572.5964,space,0.6367,,0,6,6,6,1,95,20,,,,,,,,
,,6169c75c94f8d8dacf4fe265,001,2023-12-14_08h18.01.908,bars,2023.2.3,Win32,60.24096386,,,,,,572.5971,573.5951,,,574.0946,574.3449,,151,151,,,,,,,,,,,,,,,,bars/020.png,bars/mask002.png,,,,,,,,,,,,1,2,,,,,,,10,2,10,2,,,,,,,,,,,573.5953,574.0946,574.3449,576.6612,space,2.3,,576.6613,36,19,577.661,577.6611,578.6933,space,1.0038,,0,7,7,7,1,115,170,,,,,,,,
,,6169c75c94f8d8dacf4fe265,001,2023-12-14_08h18.01.908,bars,2023.2.3,Win32,60.24096386,,,,,,578.6937,579.6927,,,580.1928,580.4427,,142,142,,,,,,,,,,,,,,,,bars/043.png,bars/mask006.png,,,,,,,,,,,,2,2,,,,,,,10,4,10,4,,,,,,,,,,,579.6927,580.1928,580.443,589.9564,space,9.4996,,589.9565,68,12,590.956,590.9561,594.1048,space,3.122,,0,8,8,8,1,30,130,,,,,,,,
,,6169c75c94f8d8dacf4fe265,001,2023-12-14_08h18.01.908,bars,2023.2.3,Win32,60.24096386,,,,,,594.1052,595.1042,,,595.6048,595.854,,105,105,,,,,,,,,,,,,,,,bars/039.png,bars/mask001.png,,,,,,,,,,,,5,2,,,,,,,8,6,6,5,,,,,,,,,,,595.1043,595.6047,595.854,597.6038,space,1.7301,,597.6038,70,0,598.603,598.603,602.3208,space,3.7037,,0,9,9,9,1,175,105,,,,,,,,
,,6169c75c94f8d8dacf4fe265,001,2023-12-14_08h18.01.908,bars,2023.2.3,Win32,60.24096386,,,,,,602.3323,603.3348,,,603.8353,604.0848,,143,143,,,,,,,,,,,,,,,,bars/022.png,bars/mask004.png,,,,,,,,,,,,0,1,,,,,,,6,4,6,5,,,,,,,,,,,603.3349,603.8353,604.0849,608.6503,space,4.5495,,608.6504,48,57,609.6493,609.6493,643.4053,space,33.7103,,0,10,10,10,1,95,20,,,,,,,,
,,6169c75c94f8d8dacf4fe265,001,2023-12-14_08h18.01.908,bars,2023.2.3,Win32,60.24096386,,,,,,643.4232,644.4218,,,644.9114,645.1623,,23,23,,,,,,,,,,,,,,,,bars/007.png,bars/mask006.png,,,,,,,,,,,,0,1,,,,,,,4,2,3,2,,,,,,,,,,,644.4218,644.9114,645.1625,652.212,space,7.033,,652.2121,28,32,653.2034,653.2035,655.6434,space,2.4141,,0,11,11,11,1,175,55,,,,,,,,
,,6169c75c94f8d8dacf4fe265,001,2023-12-14_08h18.01.908,bars,2023.2.3,Win32,60.24096386,,,,,,655.6437,656.6341,,,657.1341,657.3753,,11,11,,,,,,,,,,,,,,,,bars/043.png,bars/mask005.png,,,,,,,,,,,,1,1,,,,,,,2,0,3,2,,,,,,,,,,,656.6342,657.134,657.3753,659.4593,space,2.0676,,659.4594,19,61,660.4491,660.4493,663.7979,space,3.3173,,0,12,12,12,1,30,130,,,,,,,,
,,6169c75c94f8d8dacf4fe265,001,2023-12-14_08h18.01.908,bars,2023.2.3,Win32,60.24096386,,,,,,663.81,664.814,,,665.3142,665.5639,,89,89,,,,,,,,,,,,,,,,bars/039.png,bars/mask007.png,,,,,,,,,,,,0,2,,,,,,,4,0,4,0,,,,,,,,,,,664.814,665.3142,665.5639,668.7462,space,3.1678,,668.7464,86,16,669.7357,669.7358,671.3031,space,1.5308,,0,13,13,13,1,175,105,,,,,,,,
,,6169c75c94f8d8dacf4fe265,001,2023-12-14_08h18.01.908,bars,2023.2.3,Win32,60.24096386,,,,,,671.3035,672.2988,,,672.7965,673.0368,,168,168,,,,,,,,,,,,,,,,bars/004.png,bars/mask009.png,,,,,,,,,,,,0,1,,,,,,,6,2,5,2,,,,,,,,,,,672.299,672.7964,673.0368,674.8715,space,1.8178,,674.8716,37,43,675.8613,675.8613,676.6686,space,0.7792,,0,14,14,14,1,25,125,,,,,,,,
,,6169c75c94f8d8dacf4fe265,001,2023-12-14_08h18.01.908,bars,2023.2.3,Win32,60.24096386,,,,,,676.6692,677.6599,,,678.1596,678.4098,,144,144,,,,,,,,,,,,,,,,bars/049.png,bars/mask004.png,,,,,,,,,,,,5,1,,,,,,,8,4,10,6,,,,,,,,,,,677.6601,678.1595,678.4099,686.3068,space,7.8867,,686.3068,16,29,687.3072,687.3072,735.2573,space,47.9228,,0,15,15,15,1,160,115,,,,,,,,
,,6169c75c94f8d8dacf4fe265,001,2023-12-14_08h18.01.908,bars,2023.2.3,Win32,60.24096386,,,,,,735.2742,736.2735,,,736.7734,737.0231,,56,56,,,,,,,,,,,,,,,,bars/034.png,bars/mask002.png,,,,,,,,,,,,5,2,,,,,,,10,6,10,7,,,,,,,,,,,736.2736,736.7733,737.0231,739.5394,space,2.5003,,739.5395,69,9,740.5384,740.5385,761.8647,space,21.2934,,0,16,16,16,1,125,65,,,,,,,,
,,6169c75c94f8d8dacf4fe265,001,2023-12-14_08h18.01.908,bars,2023.2.3,Win32,60.24096386,,,,,,761.8773,762.8813,,,763.3813,763.6308,,86,266,,,,,,,,,,,,,,,,bars/011.png,bars/mask000.png,,,,,,,,,,,,5,2,,,,,,,8,4,8,5,,,,,,,,,,,762.8814,763.3811,763.6308,773.2009,space,9.5605,,773.2009,74,1,774.1939,774.194,779.6259,space,5.402,,0,17,17,17,1,160,85,,,,,,,,
,,6169c75c94f8d8dacf4fe265,001,2023-12-14_08h18.01.908,bars,2023.2.3,Win32,60.24096386,,,,,,779.6381,780.6415,,,781.1432,781.3924,,132,-48,,,,,,,,,,,,,,,,bars/012.png,bars/mask004.png,,,,,,,,,,,,0,1,,,,,,,6,6,5,6,,,,,,,,,,,780.6417,781.1431,781.3926,789.9224,space,8.5142,,789.9225,42,63,790.9216,790.9216,800.2424,space,9.2854,,0,18,18,18,1,90,15,,,,,,,,
,,6169c75c94f8d8dacf4fe265,001,2023-12-14_08h18.01.908,bars,2023.2.3,Win32,60.24096386,,,,,,800.2593,801.251,,,801.7512,802.0012,,1,1,,,,,,,,,,,,,,,,bars/007.png,bars/mask005.png,,,,,,,,,,,,6,1,,,,,,,8,8,8,8,,,,,,,,,,,801.2511,801.7512,802.0013,804.1843,space,2.1714,,804.1844,6,54,805.1837,805.1838,813.3144,space,8.098,,0,19,19,19,1,175,55,,,,,,,,
,,6169c75c94f8d8dacf4fe265,001,2023-12-14_08h18.01.908,bars,2023.2.3,Win32,60.24096386,,,,,,813.3283,814.3219,,,814.8228,815.0639,,120,120,,,,,,,,,,,,,,,,bars/037.png,bars/mask004.png,,,,,,,,,,,,3,2,,,,,,,10,6,10,5,,,,,,,,,,,814.3222,814.8226,815.064,818.263,space,3.1659,,818.2632,30,15,819.2622,819.2623,833.7985,space,14.5093,,0,20,20,20,1,150,105,,,,,,,,
,,6169c75c94f8d8dacf4fe265,001,2023-12-14_08h18.01.908,bars,2023.2.3,Win32,60.24096386,,,,,,833.8131,834.8068,,,835.307,835.5565,,113,113,,,,,,,,,,,,,,,,bars/030.png,bars/mask003.png,,,,,,,,,,,,1,1,,,,,,,8,8,8,8,,,,,,,,,,,834.8069,835.3069,835.5565,846.186,space,10.6215,,846.186,27,48,847.186,847.186,902.9508,space,55.726,,0,21,21,21,1,140,65,,,,,,,,
,,6169c75c94f8d8dacf4fe265,001,2023-12-14_08h18.01.908,bars,2023.2.3,Win32,60.24096386,,,,,,902.9645,903.967,,,904.467,904.7162,,172,-8,,,,,,,,,,,,,,,,bars/010.png,bars/mask000.png,,,,,,,,,,,,3,1,,,,,,,6,10,4,10,,,,,,,,,,,903.967,904.4667,904.7164,912.6141,space,7.8805,,912.6142,7,63,913.6137,913.6138,918.029,space,4.3851,,0,22,22,22,1,165,55,,,,,,,,
,,6169c75c94f8d8dacf4fe265,001,2023-12-14_08h18.01.908,bars,2023.2.3,Win32,60.24096386,,,,,,918.0422,919.0452,,,919.5448,919.7951,,126,126,,,,,,,,,,,,,,,,bars/033.png,bars/mask008.png,,,,,,,,,,,,0,2,,,,,,,4,10,4,9,,,,,,,,,,,919.0453,919.5447,919.7951,921.5944,space,1.7887,,921.5945,79,29,922.5936,922.5937,923.5935,space,0.9613,,0,23,23,23,1,25,155,,,,,,,,
,,6169c75c94f8d8dacf4fe265,001,2023-12-14_08h18.01.908,bars,2023.2.3,Win32,60.24096386,,,,,,923.5941,924.5932,,,925.0931,925.3428,,138,138,,,,,,,,,,,,,,,,bars/046.png,bars/mask002.png,,,,,,,,,,,,3,1,,,,,,,6,8,7,8,,,,,,,,,,,924.5932,925.0931,925.3429,930.4085,space,5.0492,,930.4088,17,53,931.4077,931.4079,934.207,space,2.7609,,0,24,24,24,1,155,85,,,,,,,,
,,6169c75c94f8d8dacf4fe265,001,2023-12-14_08h18.01.908,bars,2023.2.3,Win32,60.24096386,,,,,,934.2181,935.2061,,,935.7059,935.956,,134,134,,,,,,,,,,,,,,,,bars/045.png,bars/mask000.png,,,,,,,,,,,,0,1,,,,,,,8,6,9,4,,,,,,,,,,,935.2062,935.7059,935.956,937.8387,space,1.8667,,937.8388,34,56,938.8384,938.8385,939.9218,space,1.0629,,0,25,25,25,1,100,10,,,,,,,,
,,6169c75c94f8d8dacf4fe265,001,2023-12-14_08h18.01.908,bars,2023.2.3,Win32,60.24096386,,,,,,939.9224,940.9208,,,941.4204,941.6708,,57,57,,,,,,,,,,,,,,,,bars/022.png,bars/mask008.png,,,,,,,,,,,,0,2,,,,,,,10,4,10,5,,,,,,,,,,,940.9209,941.4204,941.6709,942.6207,space,0.9341,,942.6207,38,37,943.62,943.62,944.2875,space,0.6466,,0,26,26,26,1,95,20,,,,,,,,
,,6169c75c94f8d8dacf4fe265,001,2023-12-14_08h18.01.908,bars,2023.2.3,Win32,60.24096386,,,,,,944.2886,945.2778,,,945.7694,946.0196,,0,180,,,,,,,,,,,,,,,,bars/031.png,bars/mask006.png,,,,,,,,,,,,0,2,,,,,,,8,6,9,5,,,,,,,,,,,945.2779,945.7692,946.0197,955.0101,space,8.9809,,955.0102,60,35,955.9993,955.9993,1004.9167,space,48.8851,,0,27,27,27,1,120,35,,,,,,,,
,,6169c75c94f8d8dacf4fe265,001,2023-12-14_08h18.01.908,bars,2023.2.3,Win32,60.24096386,,,,,,1004.9283,1005.9323,,,1006.4198,1006.6657,,37,37,,,,,,,,,,,,,,,,bars/038.png,bars/mask009.png,,,,,,,,,,,,0,2,,,,,,,10,8,10,10,,,,,,,,,,,1005.9325,1006.4197,1006.6658,1015.188,space,8.4985,,1015.188,52,33,1016.1791,1016.1792,1018.2948,space,2.0821,,0,28,28,28,1,165,70,,,,,,,,
,,6169c75c94f8d8dacf4fe265,001,2023-12-14_08h18.01.908,bars,2023.2.3,Win32,60.24096386,,,,,,1018.2958,1019.2856,,,1019.7845,1020.0273,,80,80,,,,,,,,,,,,,,,,bars/036.png,bars/mask003.png,,,,,,,,,,,,0,2,,,,,,,8,6,10,6,,,,,,,,,,,1019.2857,1019.7845,1020.0274,1023.6926,space,3.64,,1023.6928,65,60,1024.6924,1024.6925,1027.1418,space,2.4244,,0,29,29,29,1,145,20,,,,,,,,
,,6169c75c94f8d8dacf4fe265,001,2023-12-14_08h18.01.908,bars,2023.2.3,Win32,60.24096386,,,,,,1027.1424,1028.1416,,,1028.6417,1028.8915,,14,14,,,,,,,,,,,,,,,,bars/008.png,bars/mask001.png,,,,,,,,,,,,5,2,,,,,,,6,8,7,9,,,,,,,,,,,1028.1417,1028.6416,1028.8916,1030.2501,space,1.335,,1030.2504,84,14,1031.2413,1031.2414,1033.2491,space,1.9834,,0,30,30,30,1,110,0,,,,,,,,
,,6169c75c94f8d8dacf4fe265,001,2023-12-14_08h18.01.908,bars,2023.2.3,Win32,60.24096386,,,,,,1033.2499,1034.2396,,,1034.7475,1034.9971,,6,6,,,,,,,,,,,,,,,,bars/012.png,bars/mask001.png,,,,,,,,,,,,4,2,,,,,,,4,6,3,6,,,,,,,,,,,1034.2397,1034.7475,1034.9973,1053.6666,space,18.6524,,1053.6667,84,9,1054.6603,1054.6604,1085.3815,space,30.6831,,0,31,31,31,1,90,15,,,,,,,,
,,6169c75c94f8d8dacf4fe265,001,2023-12-14_08h18.01.908,bars,2023.2.3,Win32,60.24096386,,,,,,1085.3949,1086.3973,,,1086.8884,1087.1454,,50,50,,,,,,,,,,,,,,,,bars/043.png,bars/mask001.png,,,,,,,,,,,,2,1,,,,,,,6,4,5,3,,,,,,,,,,,1086.3975,1086.8883,1087.1454,1094.9955,space,7.8331,,1094.9957,20,80,1095.994,1095.994,1099.943,space,3.9108,,0,32,32,32,1,30,130,,,,,,,,
,,6169c75c94f8d8dacf4fe265,001,2023-12-14_08h18.01.908,bars,2023.2.3,Win32,60.24096386,,,,,,1099.9436,1100.9331,,,1101.4337,1101.6836,,11,11,,,,,,,,,,,,,,,,bars/016.png,bars/mask003.png,,,,,,,,,,,,0,2,,,,,,,8,2,10,2,,,,,,,,,,,1100.9332,1101.4336,1101.6837,1103.5002,space,1.789,,1103.5003,29,26,1104.4998,1104.4998,1105.282,space,0.754,,0,33,33,33,1,40,165,,,,,,,,
,,6169c75c94f8d8dacf4fe265,001,2023-12-14_08h18.01.908,bars,2023.2.3,Win32,60.24096386,,,,,,1105.2832,1106.2818,,,1106.782,1107.0213,,91,91,,,,,,,,,,,,,,,,bars/004.png,bars/mask004.png,,,,,,,,,,,,0,2,,,,,,,6,0,6,0,,,,,,,,,,,1106.2818,1106.7819,1107.0213,1114.1555,space,7.127,,1114.1556,66,34,1115.1453,1115.1454,1120.085,space,4.9082,,0,34,34,34,1,25,125,,,,,,,,
,,6169c75c94f8d8dacf4fe265,001,2023-12-14_08h18.01.908,bars,2023.2.3,Win32,60.24096386,,,,,,1120.0981,1121.1007,,,1121.6003,1121.8432,,91,91,,,,,,,,,,,,,,,,bars/006.png,bars/mask000.png,,,,,,,,,,,,0,2,,,,,,,4,0,1,0,,,,,,,,,,,1121.1009,1121.6003,1121.8433,1126.1685,space,4.301,,1126.1686,56,9,1127.1578,1127.1578,1156.0154,space,28.8217,,0,35,35,35,1,35,100,,,,,,,,
,,6169c75c94f8d8dacf4fe265,001,2023-12-14_08h18.01.908,bars,2023.2.3,Win32,60.24096386,,,,,,1156.0277,1157.0316,,,1157.5317,1157.7809,,92,92,,,,,,,,,,,,,,,,bars/031.png,bars/mask001.png,,,,,,,,,,,,0,1,,,,,,,6,2,6,3,,,,,,,,,,,1157.0316,1157.5315,1157.781,1158.7811,space,0.9878,,1158.7814,28,57,1159.7813,1159.7814,1159.9199,space,0.1141,,0,36,36,36,1,120,35,,,,,,,,
,,6169c75c94f8d8dacf4fe265,001,2023-12-14_08h18.01.908,bars,2023.2.3,Win32,60.24096386,,,,,,1159.9203,1160.9136,,,1161.4033,1161.6464,,179,-1,,,,,,,,,,,,,,,,bars/045.png,bars/mask001.png,,,,,,,,,,,,1,2,,,,,,,4,0,5,1,,,,,,,,,,,1160.9137,1161.4033,1161.6465,1165.3699,space,3.7003,,1165.3699,79,11,1166.3688,1166.3689,1167.3614,space,0.9559,,0,37,37,37,1,100,10,,,,,,,,
,,6169c75c94f8d8dacf4fe265,001,2023-12-14_08h18.01.908,bars,2023.2.3,Win32,60.24096386,,,,,,1167.362,1168.3609,,,1168.8606,1169.1104,,69,69,,,,,,,,,,,,,,,,bars/048.png,bars/mask001.png,,,,,,,,,,,,0,1,,,,,,,2,0,1,0,,,,,,,,,,,1168.3609,1168.8605,1169.1105,1173.0588,space,3.9332,,1173.0589,19,74,1174.0587,1174.0588,1183.622,space,9.5318,,0,38,38,38,1,50,175,,,,,,,,
,,6169c75c94f8d8dacf4fe265,001,2023-12-14_08h18.01.908,bars,2023.2.3,Win32,60.24096386,,,,,,1183.6335,1184.6217,,,1185.1215,1185.3715,,54,54,,,,,,,,,,,,,,,,bars/017.png,bars/mask004.png,,,,,,,,,,,,1,2,,,,,,,0,2,0,2,,,,,,,,,,,1184.6218,1185.1215,1185.3715,1192.9689,space,7.5846,,1192.969,89,9,1193.9686,1193.9686,1194.8279,space,0.8319,,0,39,39,39,1,145,45,,,,,,,,
,,6169c75c94f8d8dacf4fe265,001,2023-12-14_08h18.01.908,bars,2023.2.3,Win32,60.24096386,,,,,,1194.8284,1195.8223,,,1196.3184,1196.5679,,111,111,,,,,,,,,,,,,,,,bars/045.png,bars/mask002.png,,,,,,,,,,,,1,1,,,,,,,0,0,1,2,,,,,,,,,,,1195.8223,1196.3183,1196.568,1202.8661,space,6.282,,1202.8662,11,79,1203.8659,1203.8661,1235.1218,space,31.219,,0,40,40,40,1,100,10,,,,,,,,
,,6169c75c94f8d8dacf4fe265,001,2023-12-14_08h18.01.908,bars,2023.2.3,Win32,60.24096386,,,,,,1235.1337,1236.1216,,,1236.633,1236.8711,,7,187,,,,,,,,,,,,,,,,bars/023.png,bars/mask009.png,,,,,,,,,,,,0,1,,,,,,,0,0,0,0,,,,,,,,,,,1236.1217,1236.6329,1236.8712,1239.7868,space,2.9007,,1239.7869,13,72,1240.7863,1240.7864,1252.6404,space,11.8279,,0,41,41,41,1,20,115,,,,,,,,
,,6169c75c94f8d8dacf4fe265,001,2023-12-14_08h18.01.908,bars,2023.2.3,Win32,60.24096386,,,,,,1252.6581,1253.6565,,,1254.1489,1254.4074,,26,26,,,,,,,,,,,,,,,,bars/014.png,bars/mask005.png,,,,,,,,,,,,0,2,,,,,,,2,0,1,1,,,,,,,,,,,1253.6566,1254.1488,1254.4075,1255.139,space,0.7156,,1255.139,54,26,1256.1311,1256.1312,1256.8644,space,0.7038,,0,42,42,42,1,80,0,,,,,,,,
,,6169c75c94f8d8dacf4fe265,001,2023-12-14_08h18.01.908,bars,2023.2.3,Win32,60.24096386,,,,,,1256.8656,1257.864,,,1258.3721,1258.6138,,117,117,,,,,,,,,,,,,,,,bars/014.png,bars/mask003.png,,,,,,,,,,,,0,1,,,,,,,0,0,0,0,,,,,,,,,,,1257.864,1258.3721,1258.6139,1262.3961,space,3.7495,,1262.3961,37,63,1263.4023,1263.4023,1359.3309,space,95.8962,,0,43,43,43,1,80,0,,,,,,,,
,,6169c75c94f8d8dacf4fe265,001,2023-12-14_08h18.01.908,bars,2023.2.3,Win32,60.24096386,,,,,,1359.3422,1360.3461,,,1360.8463,1361.0958,,64,64,,,,,,,,,,,,,,,,bars/023.png,bars/mask006.png,,,,,,,,,,,,0,1,,,,,,,2,0,2,1,,,,,,,,,,,1360.3462,1360.8461,1361.0962,1367.177,space,6.0522,,1367.1771,44,51,1368.1761,1368.1761,1379.5566,space,11.3636,,0,44,44,44,1,20,115,,,,,,,,
,,6169c75c94f8d8dacf4fe265,001,2023-12-14_08h18.01.908,bars,2023.2.3,Win32,60.24096386,,,,,,1379.5689,1380.5774,,,1381.0726,1381.3099,,84,84,,,,,,,,,,,,,,,,bars/007.png,bars/mask008.png,,,,,,,,,,,,0,2,,,,,,,4,2,4,2,,,,,,,,,,,1380.5774,1381.0725,1381.3099,1418.0599,space,36.7274,,1418.0599,89,29,1419.0591,1419.0591,1424.4575,space,5.3689,,0,45,45,45,1,175,55,,,,,,,,
,,6169c75c94f8d8dacf4fe265,001,2023-12-14_08h18.01.908,bars,2023.2.3,Win32,60.24096386,,,,,,1424.4771,1425.4738,,,1425.9736,1426.2243,,109,109,,,,,,,,,,,,,,,,bars/021.png,bars/mask002.png,,,,,,,,,,,,0,2,,,,,,,2,4,2,4,,,,,,,,,,,1425.4739,1425.9736,1426.2243,1475.6024,space,49.3694,,1475.6025,46,39,1476.5902,1476.5904,1617.9427,space,141.3217,,0,46,46,46,1,155,70,,,,,,,,
,,6169c75c94f8d8dacf4fe265,001,2023-12-14_08h18.01.908,bars,2023.2.3,Win32,60.24096386,,,,,,1617.9559,1618.9584,,,1619.4586,1619.7082,,18,18,,,,,,,,,,,,,,,,bars/044.png,bars/mask008.png,,,,,,,,,,,,0,2,,,,,,,4,2,4,2,,,,,,,,,,,1618.9585,1619.4586,1619.7082,1620.7913,space,1.0729,,1620.7914,57,43,1621.7908,1621.7908,1672.8907,space,51.0817,,0,47,47,47,1,75,155,,,,,,,,
,,6169c75c94f8d8dacf4fe265,001,2023-12-14_08h18.01.908,bars,2023.2.3,Win32,60.24096386,,,,,,1672.9037,1673.9061,,,1674.4062,1674.6563,,95,95,,,,,,,,,,,,,,,,bars/023.png,bars/mask008.png,,,,,,,,,,,,0,2,,,,,,,6,0,5,0,,,,,,,,,,,1673.9062,1674.4061,1674.6564,1678.3885,space,3.7153,,1678.3886,75,20,1679.3876,1679.3877,1772.743,space,93.3306,,0,48,48,48,1,20,115,,,,,,,,
,,6169c75c94f8d8dacf4fe265,001,2023-12-14_08h18.01.908,bars,2023.2.3,Win32,60.24096386,,,,,,1772.7532,1773.764,,,1774.2475,1774.4895,,170,170,,,,,,,,,,,,,,,,bars/046.png,bars/mask007.png,,,,,,,,,,,,3,1,,,,,,,4,0,6,0,,,,,,,,,,,1773.7641,1774.2475,1774.4896,1780.213,space,5.699,,1780.213,15,85,1781.208,1781.208,1793.6504,space,12.4049,,0,49,49,49,1,155,85,,,,,,,,
,,6169c75c94f8d8dacf4fe265,001,2023-12-14_08h18.01.908,bars,2023.2.3,Win32,60.24096386,,,,,,,,,,,,,,,,,,,,,,,,,,,,,,,,,,,,,,,,,,,,,,,,,,,,,,,,,,,,,,,,,,,,,,,,,,,,,,,,,,,,,,,,1793.6769,1853.6631,0,0,0,3,1,sequence_tables/blk027.csv
,,6169c75c94f8d8dacf4fe265,001,2023-12-14_08h18.01.908,bars,2023.2.3,Win32,60.24096386,,,,,,1855.5948,1856.5989,,,1857.0867,1857.3363,,179,-1,,,,,,,,,,,,,,,,bars/010.png,bars/mask007.png,,,,,,,,,,,,4,1,,,,,,,9,9,7,10,,,,,,1853.6779,1855.5875,space,1.8999,,1856.5989,1857.0866,1857.3364,1860.9521,space,3.5996,,1860.9523,14,56,1861.9472,1861.9472,1861.9623,,,,0,0,0,0,1,165,55,,,,,,,,
,,6169c75c94f8d8dacf4fe265,001,2023-12-14_08h18.01.908,bars,2023.2.3,Win32,60.24096386,,,,,,1861.9628,1862.9595,,,1863.4594,1863.699,,84,264,,,,,,,,,,,,,,,,bars/033.png,bars/mask007.png,,,,,,,,,,,,0,1,,,,,,,7,10,7,10,,,,,,,,,,,1862.9595,1863.4593,1863.6991,1868.6985,space,4.98,,1868.6985,59,71,1869.6946,1869.6947,1869.7053,,,,0,1,1,1,1,25,155,,,,,,,,
,,6169c75c94f8d8dacf4fe265,001,2023-12-14_08h18.01.908,bars,2023.2.3,Win32,60.24096386,,,,,,1869.7055,1870.7134,,,1871.2065,1871.4568,,103,103,,,,,,,,,,,,,,,,bars/032.png,bars/mask006.png,,,,,,,,,,,,2,1,,,,,,,9,8,9,8,,,,,,,,,,,1870.7135,1871.2064,1871.4568,1874.3886,space,2.9181,,1874.3887,22,83,1875.388,1875.388,1875.4005,,,,0,2,2,2,1,125,20,,,,,,,,
,,6169c75c94f8d8dacf4fe265,001,2023-12-14_08h18.01.908,bars,2023.2.3,Win32,60.24096386,,,,,,1875.4007,1876.4047,,,1876.9047,1877.162,,137,137,,,,,,,,,,,,,,,,bars/035.png,bars/mask000.png,,,,,,,,,,,,0,1,,,,,,,10,6,8,7,,,,,,,,,,,1876.4047,1876.9047,1877.1621,1883.4354,space,6.2496,,1883.4356,38,77,1884.4351,1884.4352,1884.4534,,,,0,3,3,3,1,175,60,,,,,,,,
,,6169c75c94f8d8dacf4fe265,001,2023-12-14_08h18.01.908,bars,2023.2.3,Win32,60.24096386,,,,,,1884.4538,1885.4514,,,1885.9516,1886.2086,,6,6,,,,,,,,,,,,,,,,bars/044.png,bars/mask003.png,,,,,,,,,,,,0,2,,,,,,,10,4,9,4,,,,,,,,,,,1885.4514,1885.9516,1886.2086,1889.1769,space,2.9515,,1889.1769,69,31,1890.1673,1890.1673,1890.1806,,,,0,4,4,4,1,75,155,,,,,,,,
,,6169c75c94f8d8dacf4fe265,001,2023-12-14_08h18.01.908,bars,2023.2.3,Win32,60.24096386,,,,,,1890.1809,1891.1755,,,1891.6664,1891.9162,,175,-5,,,,,,,,,,,,,,,,bars/041.png,bars/mask004.png,,,,,,,,,,,,1,1,,,,,,,8,2,8,3,,,,,,,,,,,1891.1755,1891.6663,1891.9162,1895.9976,space,4.0702,,1895.9978,25,90,1896.9976,1896.9977,1897.0155,,,,0,5,5,5,1,20,85,,,,,,,,
,,6169c75c94f8d8dacf4fe265,001,2023-12-14_08h18.01.908,bars,2023.2.3,Win32,60.24096386,,,,,,1897.0157,1898.0142,,,1898.5059,1898.7473,,69,69,,,,,,,,,,,,,,,,bars/011.png,bars/mask007.png,,,,,,,,,,,,2,2,,,,,,,6,4,6,4,,,,,,,,,,,1898.0143,1898.5058,1898.7474,1902.5393,space,3.7824,,1902.5396,89,16,1903.5286,1903.5287,1903.5434,,,,0,6,6,6,1,160,85,,,,,,,,
,,6169c75c94f8d8dacf4fe265,001,2023-12-14_08h18.01.908,bars,2023.2.3,Win32,60.24096386,,,,,,1903.5436,1904.5459,,,1905.053,1905.303,,178,178,,,,,,,,,,,,,,,,bars/048.png,bars/mask000.png,,,,,,,,,,,,5,2,,,,,,,8,6,9,6,,,,,,,,,,,1904.546,1905.053,1905.303,1918.2909,space,12.9653,,1918.2911,52,3,1919.2908,1919.2908,1919.3034,,,,0,7,7,7,1,50,175,,,,,,,,
,,6169c75c94f8d8dacf4fe265,001,2023-12-14_08h18.01.908,bars,2023.2.3,Win32,60.24096386,,,,,,1919.3036,1920.3064,,,1920.8071,1921.0569,,35,35,,,,,,,,,,,,,,,,bars/034.png,bars/mask005.png,,,,,,,,,,,,0,2,,,,,,,10,8,10,8,,,,,,,,,,,1920.3065,1920.8071,1921.0569,1922.3061,space,1.2384,,1922.3063,90,30,1923.3055,1923.3055,1923.3079,,,,0,8,8,8,1,125,65,,,,,,,,
,,6169c75c94f8d8dacf4fe265,001,2023-12-14_08h18.01.908,bars,2023.2.3,Win32,60.24096386,,,,,,1923.3085,1924.2973,,,1924.7887,1925.0469,,159,159,,,,,,,,,,,,,,,,bars/007.png,bars/mask003.png,,,,,,,,,,,,3,1,,,,,,,8,10,6,10,,,,,,,,,,,1924.2973,1924.7886,1925.047,1925.8101,space,0.7472,,1925.8102,16,76,1926.8045,1926.8046,1926.8086,,,,0,9,9,9,1,175,55,,,,,,,,
,,6169c75c94f8d8dacf4fe265,001,2023-12-14_08h18.01.908,bars,2023.2.3,Win32,60.24096386,,,,,,1926.809,1927.8047,,,1928.304,1928.5538,,81,81,,,,,,,,,,,,,,,,bars/019.png,bars/mask006.png,,,,,,,,,,,,2,2,,,,,,,10,10,10,10,,,,,,,,,,,1927.8048,1928.304,1928.5538,1930.9297,space,2.3668,,1930.9297,36,24,1931.9194,1931.9197,1931.9316,,,,0,10,10,10,1,45,105,,,,,,,,
,,6169c75c94f8d8dacf4fe265,001,2023-12-14_08h18.01.908,bars,2023.2.3,Win32,60.24096386,,,,,,1931.9318,1932.9358,,,1933.4269,1933.6689,,48,48,,,,,,,,,,,,,,,,bars/014.png,bars/mask002.png,,,,,,,,,,,,0,1,,,,,,,8,10,9,10,,,,,,,,,,,1932.9359,1933.4269,1933.669,1936.5676,space,2.883,,1936.5677,32,48,1937.5676,1937.5676,1937.5837,,,,0,11,11,11,1,80,0,,,,,,,,
,,6169c75c94f8d8dacf4fe265,001,2023-12-14_08h18.01.908,bars,2023.2.3,Win32,60.24096386,,,,,,1937.5839,1938.5834,,,1939.0836,1939.3338,,70,70,,,,,,,,,,,,,,,,bars/046.png,bars/mask008.png,,,,,,,,,,,,4,2,,,,,,,10,8,8,7,,,,,,,,,,,1938.5834,1939.0835,1939.3338,1940.1332,space,0.7841,,1940.1333,85,15,1941.1326,1941.1326,1941.1358,,,,0,12,12,12,1,155,85,,,,,,,,
,,6169c75c94f8d8dacf4fe265,001,2023-12-14_08h18.01.908,bars,2023.2.3,Win32,60.24096386,,,,,,1941.1364,1942.1324,,,1942.632,1942.882,,94,94,,,,,,,,,,,,,,,,bars/044.png,bars/mask000.png,,,,,,,,,,,,4,1,,,,,,,10,6,10,6,,,,,,,,,,,1942.1324,1942.632,1942.8821,1943.3658,space,0.4684,,1943.366,19,61,1944.3652,1944.3652,1944.3686,,,,0,13,13,13,1,75,155,,,,,,,,
,,6169c75c94f8d8dacf4fe265,001,2023-12-14_08h18.01.908,bars,2023.2.3,Win32,60.24096386,,,,,,1944.3692,1945.3646,,,1945.8647,1946.1148,,108,108,,,,,,,,,,,,,,,,bars/009.png,bars/mask008.png,,,,,,,,,,,,4,2,,,,,,,8,4,9,4,,,,,,,,,,,1945.3646,1945.8645,1946.1148,1949.4519,space,3.3131,,1949.4519,87,3,1950.4396,1950.4396,1950.4533,,,,0,14,14,14,1,15,105,,,,,,,,
,,6169c75c94f8d8dacf4fe265,001,2023-12-14_08h18.01.908,bars,2023.2.3,Win32,60.24096386,,,,,,1950.4535,1951.446,,,1951.9537,1952.2031,,47,47,,,,,,,,,,,,,,,,bars/001.png,bars/mask008.png,,,,,,,,,,,,0,2,,,,,,,10,2,10,2,,,,,,,,,,,1951.446,1951.9536,1952.2032,1978.995,space,26.775,,1978.9951,83,38,1979.9958,1979.9959,1980.009,,,,0,15,15,15,1,130,85,,,,,,,,
,,6169c75c94f8d8dacf4fe265,001,2023-12-14_08h18.01.908,bars,2023.2.3,Win32,60.24096386,,,,,,1980.0091,1981.0029,,,1981.4937,1981.7357,,128,128,,,,,,,,,,,,,,,,bars/019.png,bars/mask005.png,,,,,,,,,,,,0,2,,,,,,,8,0,9,1,,,,,,,,,,,1981.003,1981.4937,1981.7358,1983.0027,space,1.2407,,1983.0029,83,23,1984.0018,1984.0018,1984.0042,,,,0,16,16,16,1,45,105,,,,,,,,
,,6169c75c94f8d8dacf4fe265,001,2023-12-14_08h18.01.908,bars,2023.2.3,Win32,60.24096386,,,,,,1984.005,1985.0014,,,1985.5058,1985.7513,,96,96,,,,,,,,,,,,,,,,bars/031.png,bars/mask002.png,,,,,,,,,,,,2,1,,,,,,,10,0,10,0,,,,,,,,,,,1985.0015,1985.5057,1985.7514,1986.6515,space,0.8719,,1986.6517,24,61,1987.6571,1987.6572,1987.6595,,,,0,17,17,17,1,120,35,,,,,,,,
,,6169c75c94f8d8dacf4fe265,001,2023-12-14_08h18.01.908,bars,2023.2.3,Win32,60.24096386,,,,,,1987.6597,1988.6499,,,1989.1502,1989.4001,,108,108,,,,,,,,,,,,,,,,bars/048.png,bars/mask007.png,,,,,,,,,,,,0,1,,,,,,,10,2,10,4,,,,,,,,,,,1988.65,1989.1502,1989.4002,1991.5404,space,2.1154,,1991.5405,58,67,1992.5407,1992.5407,1992.5591,,,,0,18,18,18,1,50,175,,,,,,,,
,,6169c75c94f8d8dacf4fe265,001,2023-12-14_08h18.01.908,bars,2023.2.3,Win32,60.24096386,,,,,,1992.5593,1993.5484,,,1994.048,1994.2982,,55,55,,,,,,,,,,,,,,,,bars/021.png,bars/mask007.png,,,,,,,,,,,,2,2,,,,,,,8,4,8,4,,,,,,,,,,,1993.5484,1994.048,1994.2982,1995.4936,space,1.1682,,1995.4936,80,15,1996.4983,1996.4983,1996.5154,,,,0,19,19,19,1,155,70,,,,,,,,
,,6169c75c94f8d8dacf4fe265,001,2023-12-14_08h18.01.908,bars,2023.2.3,Win32,60.24096386,,,,,,1996.5158,1997.5065,,,1997.997,1998.2481,,176,176,,,,,,,,,,,,,,,,bars/036.png,bars/mask008.png,,,,,,,,,,,,1,2,,,,,,,10,6,9,5,,,,,,,,,,,1997.5065,1997.997,1998.2482,2003.771,space,5.5014,,2003.7711,31,24,2004.7617,2004.7618,2004.7757,,,,0,20,20,20,1,145,20,,,,,,,,
,,6169c75c94f8d8dacf4fe265,001,2023-12-14_08h18.01.908,bars,2023.2.3,Win32,60.24096386,,,,,,2004.7759,2005.7859,,,2006.2816,2006.5276,,167,167,,,,,,,,,,,,,,,,bars/004.png,bars/mask001.png,,,,,,,,,,,,0,1,,,,,,,8,4,9,4,,,,,,,,,,,2005.786,2006.2815,2006.5277,2009.0844,space,2.5339,,2009.0845,38,42,2010.0767,2010.0767,2010.0906,,,,0,21,21,21,1,25,125,,,,,,,,
,,6169c75c94f8d8dacf4fe265,001,2023-12-14_08h18.01.908,bars,2023.2.3,Win32,60.24096386,,,,,,2010.0909,2011.0929,,,2011.5931,2011.8496,,158,158,,,,,,,,,,,,,,,,bars/042.png,bars/mask002.png,,,,,,,,,,,,5,1,,,,,,,6,6,8,5,,,,,,,,,,,2011.0929,2011.5931,2011.8496,2014.2156,space,2.3588,,2014.2157,13,83,2015.2077,2015.2077,2015.2277,,,,0,22,22,22,1,145,75,,,,,,,,
,,6169c75c94f8d8dacf4fe265,001,2023-12-14_08h18.01.908,bars,2023.2.3,Win32,60.24096386,,,,,,2015.2282,2016.2243,,,2016.7309,2016.978,,5,5,,,,,,,,,,,,,,,,bars/040.png,bars/mask007.png,,,,,,,,,,,,2,2,,,,,,,8,4,8,2,,,,,,,,,,,2016.2244,2016.7309,2016.978,2018.848,space,1.8495,,2018.848,45,0,2019.8394,2019.8395,2019.8539,,,,0,23,23,23,1,140,5,,,,,,,,
,,6169c75c94f8d8dacf4fe265,001,2023-12-14_08h18.01.908,bars,2023.2.3,Win32,60.24096386,,,,,,2019.8541,2020.8561,,,2021.3561,2021.6058,,5,5,,,,,,,,,,,,,,,,bars/040.png,bars/mask003.png,,,,,,,,,,,,6,2,,,,,,,10,6,10,6,,,,,,,,,,,2020.8561,2021.356,2021.6058,2025.7041,space,4.082,,2025.7041,45,0,2026.7036,2026.7037,2026.7205,,,,0,24,24,24,1,140,5,,,,,,,,
,,6169c75c94f8d8dacf4fe265,001,2023-12-14_08h18.01.908,bars,2023.2.3,Win32,60.24096386,,,,,,2026.7209,2027.7201,,,2028.22,2028.4701,,31,31,,,,,,,,,,,,,,,,bars/019.png,bars/mask006.png,,,,,,,,,,,,4,1,,,,,,,8,4,7,4,,,,,,,,,,,2027.7202,2028.2199,2028.4702,2033.6852,space,5.2002,,2033.6852,14,74,2034.6844,2034.6846,2034.6981,,,,0,25,25,25,1,45,105,,,,,,,,
,,6169c75c94f8d8dacf4fe265,001,2023-12-14_08h18.01.908,bars,2023.2.3,Win32,60.24096386,,,,,,2034.6983,2035.701,,,2036.2008,2036.4509,,95,95,,,,,,,,,,,,,,,,bars/003.png,bars/mask003.png,,,,,,,,,,,,0,2,,,,,,,10,6,9,6,,,,,,,,,,,2035.7011,2036.2007,2036.451,2069.7245,space,33.2632,,2069.7246,70,45,2070.731,2070.7311,2070.7338,,,,0,26,26,26,1,25,140,,,,,,,,
,,6169c75c94f8d8dacf4fe265,001,2023-12-14_08h18.01.908,bars,2023.2.3,Win32,60.24096386,,,,,,2070.7342,2071.7279,,,2072.2223,2072.4716,,58,58,,,,,,,,,,,,,,,,bars/003.png,bars/mask008.png,,,,,,,,,,,,0,1,,,,,,,8,4,9,4,,,,,,,,,,,2071.7279,2072.2223,2072.4716,2074.9467,space,2.4663,,2074.9467,33,82,2075.947,2075.9472,2075.9625,,,,0,27,27,27,1,25,140,,,,,,,,
,,6169c75c94f8d8dacf4fe265,001,2023-12-14_08h18.01.908,bars,2023.2.3,Win32,60.24096386,,,,,,2075.9626,2076.9534,,,2077.4534,2077.7034,,41,221,,,,,,,,,,,,,,,,bars/022.png,bars/mask000.png,,,,,,,,,,,,2,2,,,,,,,6,6,6,6,,,,,,,,,,,2076.9534,2077.4534,2077.7035,2081.2525,space,3.5338,,2081.2526,54,21,2082.2518,2082.2518,2082.273,,,,0,28,28,28,1,95,20,,,,,,,,
,,6169c75c94f8d8dacf4fe265,001,2023-12-14_08h18.01.908,bars,2023.2.3,Win32,60.24096386,,,,,,2082.2736,2083.2685,,,2083.7681,2084.0247,,93,93,,,,,,,,,,,,,,,,bars/028.png,bars/mask003.png,,,,,,,,,,,,0,2,,,,,,,4,4,3,5,,,,,,,,,,,2083.2686,2083.7681,2084.0247,2086.4678,space,2.4182,,2086.4679,48,27,2087.4743,2087.4743,2087.4752,,,,0,29,29,29,1,45,120,,,,,,,,
,,6169c75c94f8d8dacf4fe265,001,2023-12-14_08h18.01.908,bars,2023.2.3,Win32,60.24096386,,,,,,2087.4756,2088.4669,,,2088.9567,2089.1995,,155,155,,,,,,,,,,,,,,,,bars/037.png,bars/mask004.png,,,,,,,,,,,,1,1,,,,,,,2,2,1,2,,,,,,,,,,,2088.4669,2088.9566,2089.1995,2090.8157,space,1.6011,,2090.8158,5,50,2091.8151,2091.8152,2091.8299,,,,0,30,30,30,1,150,105,,,,,,,,
,,6169c75c94f8d8dacf4fe265,001,2023-12-14_08h18.01.908,bars,2023.2.3,Win32,60.24096386,,,,,,2091.8301,2092.8313,,,2093.3313,2093.5815,,154,154,,,,,,,,,,,,,,,,bars/033.png,bars/mask001.png,,,,,,,,,,,,3,2,,,,,,,4,4,4,3,,,,,,,,,,,2092.8313,2093.3312,2093.5815,2096.3969,space,2.8023,,2096.3969,51,1,2097.3967,2097.3967,2097.4106,,,,0,31,31,31,1,25,155,,,,,,,,
,,6169c75c94f8d8dacf4fe265,001,2023-12-14_08h18.01.908,bars,2023.2.3,Win32,60.24096386,,,,,,2097.4108,2098.4126,,,2098.913,2099.1627,,101,101,,,,,,,,,,,,,,,,bars/048.png,bars/mask003.png,,,,,,,,,,,,0,1,,,,,,,2,2,2,1,,,,,,,,,,,2098.4127,2098.9129,2099.1628,2102.0786,space,2.9,,2102.0787,51,74,2103.0779,2103.078,2103.0953,,,,0,32,32,32,1,50,175,,,,,,,,
,,6169c75c94f8d8dacf4fe265,001,2023-12-14_08h18.01.908,bars,2023.2.3,Win32,60.24096386,,,,,,2103.0958,2104.0943,,,2104.5944,2104.8439,,108,108,,,,,,,,,,,,,,,,bars/013.png,bars/mask009.png,,,,,,,,,,,,0,1,,,,,,,4,4,4,4,,,,,,,,,,,2104.0943,2104.5943,2104.8441,2105.9778,space,1.1179,,2105.9779,33,82,2106.9769,2106.977,2106.9789,,,,0,33,33,33,1,75,10,,,,,,,,
,,6169c75c94f8d8dacf4fe265,001,2023-12-14_08h18.01.908,bars,2023.2.3,Win32,60.24096386,,,,,,2106.9805,2107.9809,,,2108.4811,2108.7264,,144,144,,,,,,,,,,,,,,,,bars/038.png,bars/mask002.png,,,,,,,,,,,,2,1,,,,,,,6,6,5,4,,,,,,,,,,,2107.981,2108.481,2108.7264,2123.4719,space,14.7174,,2123.4721,21,74,2124.4711,2124.4711,2124.4848,,,,0,34,34,34,1,165,70,,,,,,,,
,,6169c75c94f8d8dacf4fe265,001,2023-12-14_08h18.01.908,bars,2023.2.3,Win32,60.24096386,,,,,,2124.485,2125.4788,,,2125.9704,2126.2131,,77,77,,,,,,,,,,,,,,,,bars/047.png,bars/mask001.png,,,,,,,,,,,,2,2,,,,,,,4,4,5,3,,,,,,,,,,,2125.4789,2125.9704,2126.2131,2127.313,space,1.0838,,2127.3131,62,7,2128.303,2128.303,2128.3077,,,,0,35,35,35,1,15,70,,,,,,,,
,,6169c75c94f8d8dacf4fe265,001,2023-12-14_08h18.01.908,bars,2023.2.3,Win32,60.24096386,,,,,,2128.3082,2129.3035,,,2129.8041,2130.0432,,57,57,,,,,,,,,,,,,,,,bars/024.png,bars/mask001.png,,,,,,,,,,,,0,1,,,,,,,2,2,3,2,,,,,,,,,,,2129.3037,2129.804,2130.0433,2142.9813,space,12.9199,,2142.9813,63,67,2143.9808,2143.9809,2143.9967,,,,0,36,36,36,1,120,170,,,,,,,,
,,6169c75c94f8d8dacf4fe265,001,2023-12-14_08h18.01.908,bars,2023.2.3,Win32,60.24096386,,,,,,2143.9969,2144.9971,,,2145.4972,2145.7468,,117,117,,,,,,,,,,,,,,,,bars/005.png,bars/mask005.png,,,,,,,,,,,,0,2,,,,,,,0,0,0,0,,,,,,,,,,,2144.9972,2145.4972,2145.7468,2151.3036,space,5.5483,,2151.3036,73,23,2152.3029,2152.3029,2152.3196,,,,0,37,37,37,1,10,140,,,,,,,,
,,6169c75c94f8d8dacf4fe265,001,2023-12-14_08h18.01.908,bars,2023.2.3,Win32,60.24096386,,,,,,2152.3198,2153.3111,,,2153.8107,2154.061,,43,43,,,,,,,,,,,,,,,,bars/015.png,bars/mask003.png,,,,,,,,,,,,0,2,,,,,,,2,2,2,2,,,,,,,,,,,2153.3112,2153.8106,2154.061,2157.0101,space,2.934,,2157.0105,67,63,2158.009,2158.009,2158.0222,,,,0,38,38,38,1,110,160,,,,,,,,
,,6169c75c94f8d8dacf4fe265,001,2023-12-14_08h18.01.908,bars,2023.2.3,Win32,60.24096386,,,,,,2158.0224,2159.0255,,,2159.5256,2159.7754,,127,127,,,,,,,,,,,,,,,,bars/013.png,bars/mask001.png,,,,,,,,,,,,0,1,,,,,,,4,4,6,5,,,,,,,,,,,2159.0255,2159.5256,2159.7754,2217.0729,space,57.2843,,2217.073,52,63,2218.0724,2218.0725,2218.0871,,,,0,39,39,39,1,75,10,,,,,,,,
,,6169c75c94f8d8dacf4fe265,001,2023-12-14_08h18.01.908,bars,2023.2.3,Win32,60.24096386,,,,,,2218.0873,2219.0887,,,2219.5886,2219.8388,,42,42,,,,,,,,,,,,,,,,bars/014.png,bars/mask000.png,,,,,,,,,,,,0,1,,,,,,,2,2,2,2,,,,,,,,,,,2219.0888,2219.5885,2219.8388,2224.7955,space,4.9465,,2224.7955,38,42,2225.7868,2225.7869,2225.8001,,,,0,40,40,40,1,80,0,,,,,,,,
,,6169c75c94f8d8dacf4fe265,001,2023-12-14_08h18.01.908,bars,2023.2.3,Win32,60.24096386,,,,,,2225.8003,2226.7928,,,2227.293,2227.5362,,111,111,,,,,,,,,,,,,,,,bars/030.png,bars/mask005.png,,,,,,,,,,,,0,1,,,,,,,4,4,2,2,,,,,,,,,,,2226.7928,2227.2929,2227.5362,2266.0733,space,38.5071,,2266.0735,29,46,2267.0728,2267.0729,2267.0859,,,,0,41,41,41,1,140,65,,,,,,,,
,,6169c75c94f8d8dacf4fe265,001,2023-12-14_08h18.01.908,bars,2023.2.3,Win32,60.24096386,,,,,,2267.0861,2268.0958,,,2268.59,2268.8302,,21,21,,,,,,,,,,,,,,,,bars/013.png,bars/mask000.png,,,,,,,,,,,,4,2,,,,,,,2,6,1,7,,,,,,,,,,,2268.0958,2268.5899,2268.8302,2273.6966,space,4.8565,,2273.6967,54,11,2274.6869,2274.687,2274.7023,,,,0,42,42,42,1,75,10,,,,,,,,
,,6169c75c94f8d8dacf4fe265,001,2023-12-14_08h18.01.908,bars,2023.2.3,Win32,60.24096386,,,,,,2274.7032,2275.7031,,,2276.1927,2276.4364,,50,50,,,,,,,,,,,,,,,,bars/037.png,bars/mask008.png,,,,,,,,,,,,0,2,,,,,,,0,8,0,8,,,,,,,,,,,2275.7032,2276.1927,2276.4364,2358.6328,space,82.1885,,2358.6329,80,55,2359.6248,2359.625,2359.6397,,,,0,43,43,43,1,150,105,,,,,,,,
,,6169c75c94f8d8dacf4fe265,001,2023-12-14_08h18.01.908,bars,2023.2.3,Win32,60.24096386,,,,,,2359.64,2360.6413,,,2361.1415,2361.3908,,4,4,,,,,,,,,,,,,,,,bars/032.png,bars/mask000.png,,,,,,,,,,,,2,2,,,,,,,0,6,1,5,,,,,,,,,,,2360.6414,2361.1414,2361.3908,2367.2624,space,5.8478,,2367.2625,59,16,2368.2555,2368.2556,2368.2702,,,,0,44,44,44,1,125,20,,,,,,,,
,,6169c75c94f8d8dacf4fe265,001,2023-12-14_08h18.01.908,bars,2023.2.3,Win32,60.24096386,,,,,,2368.2704,2369.2714,,,2369.7677,2370.0133,,42,42,,,,,,,,,,,,,,,,bars/035.png,bars/mask003.png,,,,,,,,,,,,2,2,,,,,,,2,4,1,5,,,,,,,,,,,2369.2715,2369.7677,2370.0133,2372.454,space,2.4228,,2372.4543,47,18,2373.4534,2373.4535,2373.4678,,,,0,45,45,45,1,175,60,,,,,,,,
,,6169c75c94f8d8dacf4fe265,001,2023-12-14_08h18.01.908,bars,2023.2.3,Win32,60.24096386,,,,,,2373.4679,2374.4698,,,2374.9742,2375.22,,39,39,,,,,,,,,,,,,,,,bars/035.png,bars/mask008.png,,,,,,,,,,,,1,2,,,,,,,4,2,3,3,,,,,,,,,,,2374.4698,2374.9742,2375.22,2378.1691,space,2.9225,,2378.1693,44,21,2379.176,2379.1761,2379.1769,,,,0,46,46,46,1,175,60,,,,,,,,
,,6169c75c94f8d8dacf4fe265,001,2023-12-14_08h18.01.908,bars,2023.2.3,Win32,60.24096386,,,,,,2379.1773,2380.1679,,,2380.6676,2380.9223,,63,63,,,,,,,,,,,,,,,,bars/028.png,bars/mask006.png,,,,,,,,,,,,3,1,,,,,,,6,4,7,4,,,,,,,,,,,2380.1681,2380.6675,2380.9223,2384.259,space,3.3171,,2384.2591,18,57,2385.2494,2385.2495,2385.2668,,,,0,47,47,47,1,45,120,,,,,,,,
,,6169c75c94f8d8dacf4fe265,001,2023-12-14_08h18.01.908,bars,2023.2.3,Win32,60.24096386,,,,,,2385.2673,2386.2575,,,2386.7487,2386.9989,,40,40,,,,,,,,,,,,,,,,bars/029.png,bars/mask009.png,,,,,,,,,,,,2,2,,,,,,,4,2,4,2,,,,,,,,,,,2386.2575,2386.7487,2386.9989,2439.8652,space,52.8552,,2439.8655,50,5,2440.8558,2440.8558,2440.8725,,,,0,48,48,48,1,90,45,,,,,,,,
,,6169c75c94f8d8dacf4fe265,001,2023-12-14_08h18.01.908,bars,2023.2.3,Win32,60.24096386,,,,,,2440.8728,2441.8634,,,2442.3634,2442.6131,,66,246,,,,,,,,,,,,,,,,bars/015.png,bars/mask008.png,,,,,,,,,,,,0,1,,,,,,,6,4,6,5,,,,,,,,,,,2441.8635,2442.3634,2442.6131,2446.6449,space,4.0185,,2446.6449,44,86,2447.6448,2447.6449,2447.6608,,,,0,49,49,49,1,110,160,,,,,,,,
,,6169c75c94f8d8dacf4fe265,001,2023-12-14_08h18.01.908,bars,2023.2.3,Win32,60.24096386,,,,,,,,,,,,,,,,,,,,,,,,,,,,,,,,,,,,,,,,,,,,,,,,,,,,,,,,,,,,,,,,,,,,,,,,,,,,,,,,,,,,,,,,2447.661,2507.658,0,1,1,2,1,sequence_tables/blk048.csv
,,6169c75c94f8d8dacf4fe265,001,2023-12-14_08h18.01.908,bars,2023.2.3,Win32,60.24096386,,,,,,2528.6083,2529.6003,,,2530.1002,2530.3501,,132,132,,,,,,,,,,,,,,,,bars/007.png,bars/mask002.png,,,,,,,,,,,,0,1,,,,,,,2,9,1,9,,,,,,2507.6701,2528.5844,space,20.8976,,2529.6003,2530.1002,2530.3501,2532.8328,space,2.4664,,2532.8329,43,77,2533.832,2533.832,2533.8463,,,,0,0,0,0,1,175,55,,,,,,,,
,,6169c75c94f8d8dacf4fe265,001,2023-12-14_08h18.01.908,bars,2023.2.3,Win32,60.24096386,,,,,,2533.8465,2534.8485,,,2535.3484,2535.5982,,125,125,,,,,,,,,,,,,,,,bars/043.png,bars/mask004.png,,,,,,,,,,,,5,2,,,,,,,4,7,7,6,,,,,,,,,,,2534.8485,2535.3484,2535.5983,2538.2808,space,2.6657,,2538.281,85,5,2539.2802,2539.2803,2539.3036,,,,0,1,1,1,1,30,130,,,,,,,,
,,6169c75c94f8d8dacf4fe265,001,2023-12-14_08h18.01.908,bars,2023.2.3,Win32,60.24096386,,,,,,2539.304,2540.2965,,,2540.7968,2541.0464,,53,53,,,,,,,,,,,,,,,,bars/032.png,bars/mask002.png,,,,,,,,,,,,0,2,,,,,,,6,9,6,8,,,,,,,,,,,2540.2965,2540.7968,2541.0465,2545.1283,space,4.0681,,2545.1284,72,33,2546.1278,2546.1278,2546.1399,,,,0,2,2,2,1,125,20,,,,,,,,
,,6169c75c94f8d8dacf4fe265,001,2023-12-14_08h18.01.908,bars,2023.2.3,Win32,60.24096386,,,,,,2546.1403,2547.1442,,,2547.644,2547.8942,,88,88,,,,,,,,,,,,,,,,bars/039.png,bars/mask004.png,,,,,,,,,,,,3,2,,,,,,,8,7,6,8,,,,,,,,,,,2547.1442,2547.644,2547.8942,2568.3212,space,20.4101,,2568.3212,87,17,2569.32,2569.32,2569.3354,,,,0,3,3,3,1,175,105,,,,,,,,
,,6169c75c94f8d8dacf4fe265,001,2023-12-14_08h18.01.908,bars,2023.2.3,Win32,60.24096386,,,,,,2569.3356,2570.3365,,,2570.8363,2571.0861,,69,69,,,,,,,,,,,,,,,,bars/004.png,bars/mask000.png,,,,,,,,,,,,0,1,,,,,,,6,9,5,9,,,,,,,,,,,2570.3365,2570.8363,2571.0862,2622.8363,space,51.7331,,2622.8366,44,56,2623.8351,2623.8353,2623.8561,,,,0,4,4,4,1,25,125,,,,,,,,
,,6169c75c94f8d8dacf4fe265,001,2023-12-14_08h18.01.908,bars,2023.2.3,Win32,60.24096386,,,,,,2623.8568,2624.8517,,,2625.3513,2625.6013,,104,104,,,,,,,,,,,,,,,,bars/025.png,bars/mask004.png,,,,,,,,,,,,8,1,,,,,,,8,7,8,8,,,,,,,,,,,2624.8517,2625.3512,2625.6014,2630.8997,space,5.287,,2630.8998,1,64,2631.899,2631.899,2631.9137,,,,0,5,5,5,1,105,40,,,,,,,,
,,6169c75c94f8d8dacf4fe265,001,2023-12-14_08h18.01.908,bars,2023.2.3,Win32,60.24096386,,,,,,2631.9139,2632.9155,,,2633.4155,2633.665,,18,18,,,,,,,,,,,,,,,,bars/019.png,bars/mask000.png,,,,,,,,,,,,1,1,,,,,,,6,5,6,7,,,,,,,,,,,2632.9156,2633.4155,2633.6651,2638.981,space,5.2982,,2638.9811,27,87,2639.9803,2639.9804,2640.0037,,,,0,6,6,6,1,45,105,,,,,,,,
,,6169c75c94f8d8dacf4fe265,001,2023-12-14_08h18.01.908,bars,2023.2.3,Win32,60.24096386,,,,,,2640.0044,2641.0022,,,2641.4963,2641.746,,89,89,,,,,,,,,,,,,,,,bars/043.png,bars/mask007.png,,,,,,,,,,,,0,2,,,,,,,4,7,2,6,,,,,,,,,,,2641.0022,2641.4963,2641.7461,2737.0899,space,95.3178,,2737.09,59,41,2738.0869,2738.087,2738.1052,,,,0,7,7,7,1,30,130,,,,,,,,
,,6169c75c94f8d8dacf4fe265,001,2023-12-14_08h18.01.908,bars,2023.2.3,Win32,60.24096386,,,,,,2738.1055,2739.0962,,,2739.5961,2739.8457,,41,41,,,,,,,,,,,,,,,,bars/038.png,bars/mask008.png,,,,,,,,,,,,0,2,,,,,,,2,9,2,8,,,,,,,,,,,2739.0962,2739.5961,2739.8457,2743.0969,space,3.2403,,2743.097,56,29,2744.0953,2744.0954,2744.1166,,,,0,8,8,8,1,165,70,,,,,,,,
,,6169c75c94f8d8dacf4fe265,001,2023-12-14_08h18.01.908,bars,2023.2.3,Win32,60.24096386,,,,,,2744.1169,2745.1116,,,2745.6114,2745.8613,,58,58,,,,,,,,,,,,,,,,bars/028.png,bars/mask009.png,,,,,,,,,,,,1,1,,,,,,,0,10,1,10,,,,,,,,,,,2745.1116,2745.6112,2745.8613,2748.2445,space,2.3521,,2748.2446,13,62,2749.2433,2749.2433,2749.2582,,,,0,9,9,9,1,45,120,,,,,,,,
,,6169c75c94f8d8dacf4fe265,001,2023-12-14_08h18.01.908,bars,2023.2.3,Win32,60.24096386,,,,,,2749.2584,2750.2596,,,2750.759,2751.0149,,84,84,,,,,,,,,,,,,,,,bars/009.png,bars/mask001.png,,,,,,,,,,,,2,2,,,,,,,2,8,3,7,,,,,,,,,,,2750.2597,2750.7589,2751.015,2755.2322,space,4.198,,2755.2322,69,21,2756.2321,2756.2322,2756.2491,,,,0,10,10,10,1,15,105,,,,,,,,
,,6169c75c94f8d8dacf4fe265,001,2023-12-14_08h18.01.908,bars,2023.2.3,Win32,60.24096386,,,,,,2756.2493,2757.24,,,2757.7405,2757.9901,,65,65,,,,,,,,,,,,,,,,bars/004.png,bars/mask006.png,,,,,,,,,,,,0,1,,,,,,,0,10,0,10,,,,,,,,,,,2757.24,2757.7405,2757.9901,2761.1723,space,3.1669,,2761.1723,40,60,2762.1715,2762.1715,2762.187,,,,0,11,11,11,1,25,125,,,,,,,,
,,6169c75c94f8d8dacf4fe265,001,2023-12-14_08h18.01.908,bars,2023.2.3,Win32,60.24096386,,,,,,2762.1872,2763.1881,,,2763.688,2763.9382,,125,305,,,,,,,,,,,,,,,,bars/003.png,bars/mask004.png,,,,,,,,,,,,3,2,,,,,,,2,8,2,6,,,,,,,,,,,2763.1881,2763.688,2763.9382,2770.4859,space,6.5339,,2770.486,80,15,2771.4853,2771.4854,2771.5017,,,,0,12,12,12,1,25,140,,,,,,,,
,,6169c75c94f8d8dacf4fe265,001,2023-12-14_08h18.01.908,bars,2023.2.3,Win32,60.24096386,,,,,,2771.5019,2772.5012,,,2773.0019,2773.2453,,94,94,,,,,,,,,,,,,,,,bars/016.png,bars/mask000.png,,,,,,,,,,,,0,1,,,,,,,4,10,5,9,,,,,,,,,,,2772.5013,2773.0017,2773.2454,2808.8562,space,35.5977,,2808.8563,54,71,2809.864,2809.864,2809.8808,,,,0,13,13,13,1,40,165,,,,,,,,
,,6169c75c94f8d8dacf4fe265,001,2023-12-14_08h18.01.908,bars,2023.2.3,Win32,60.24096386,,,,,,2809.8812,2810.8718,,,2811.3717,2811.6218,,54,54,,,,,,,,,,,,,,,,bars/041.png,bars/mask001.png,,,,,,,,,,,,0,2,,,,,,,2,10,2,10,,,,,,,,,,,2810.8719,2811.3716,2811.6218,2839.3459,space,27.7096,,2839.3459,34,31,2840.3387,2840.3387,2840.358,,,,0,14,14,14,1,20,85,,,,,,,,
,,6169c75c94f8d8dacf4fe265,001,2023-12-14_08h18.01.908,bars,2023.2.3,Win32,60.24096386,,,,,,2840.3584,2841.3675,,,2841.8622,2842.1116,,121,121,,,,,,,,,,,,,,,,bars/030.png,bars/mask007.png,,,,,,,,,,,,0,1,,,,,,,0,10,0,10,,,,,,,,,,,2841.3675,2841.8621,2842.1116,2846.2861,space,4.1485,,2846.2862,19,56,2847.2764,2847.2765,2847.2902,,,,0,15,15,15,1,140,65,,,,,,,,
,,6169c75c94f8d8dacf4fe265,001,2023-12-14_08h18.01.908,bars,2023.2.3,Win32,60.24096386,,,,,,2847.2904,2848.2782,,,2848.7758,2849.0258,,112,112,,,,,,,,,,,,,,,,bars/004.png,bars/mask006.png,,,,,,,,,,,,6,2,,,,,,,2,10,2,10,,,,,,,,,,,2848.2782,2848.7758,2849.0259,2852.9419,space,3.9058,,2852.9419,87,13,2853.941,2853.9411,2853.9537,,,,0,16,16,16,1,25,125,,,,,,,,
,,6169c75c94f8d8dacf4fe265,001,2023-12-14_08h18.01.908,bars,2023.2.3,Win32,60.24096386,,,,,,2853.9539,2854.9572,,,2855.457,2855.7068,,69,69,,,,,,,,,,,,,,,,bars/030.png,bars/mask004.png,,,,,,,,,,,,7,2,,,,,,,0,10,0,8,,,,,,,,,,,2854.9572,2855.457,2855.7068,2861.2549,space,5.5308,,2861.255,71,4,2862.2546,2862.2546,2862.268,,,,0,17,17,17,1,140,65,,,,,,,,
,,6169c75c94f8d8dacf4fe265,001,2023-12-14_08h18.01.908,bars,2023.2.3,Win32,60.24096386,,,,,,2862.2682,2863.2622,,,2863.7544,2864.0127,,69,69,,,,,,,,,,,,,,,,bars/013.png,bars/mask008.png,,,,,,,,,,,,2,1,,,,,,,2,10,2,10,,,,,,,,,,,2863.2622,2863.7543,2864.0127,2883.6646,space,19.606,,2883.665,6,59,2884.6641,2884.6641,2884.6843,,,,0,18,18,18,1,75,10,,,,,,,,
,,6169c75c94f8d8dacf4fe265,001,2023-12-14_08h18.01.908,bars,2023.2.3,Win32,60.24096386,,,,,,2884.6846,2885.6811,,,2886.189,2886.4303,,70,70,,,,,,,,,,,,,,,,bars/018.png,bars/mask001.png,,,,,,,,,,,,3,2,,,,,,,0,10,1,10,,,,,,,,,,,2885.6811,2886.1889,2886.4304,2887.7535,space,1.2983,,2887.7535,80,20,2888.7459,2888.746,2888.7595,,,,0,19,19,19,1,150,90,,,,,,,,
,,6169c75c94f8d8dacf4fe265,001,2023-12-14_08h18.01.908,bars,2023.2.3,Win32,60.24096386,,,,,,2888.7597,2889.7624,,,2890.269,2890.5118,,107,107,,,,,,,,,,,,,,,,bars/045.png,bars/mask009.png,,,,,,,,,,,,1,1,,,,,,,2,10,1,8,,,,,,,,,,,2889.7625,2890.269,2890.5119,2892.5952,space,2.0671,,2892.5954,7,83,2893.5946,2893.5946,2893.6157,,,,0,20,20,20,1,100,10,,,,,,,,
,,6169c75c94f8d8dacf4fe265,001,2023-12-14_08h18.01.908,bars,2023.2.3,Win32,60.24096386,,,,,,2893.6159,2894.6107,,,2895.1104,2895.3604,,58,58,,,,,,,,,,,,,,,,bars/043.png,bars/mask005.png,,,,,,,,,,,,0,1,,,,,,,4,8,3,8,,,,,,,,,,,2894.6107,2895.1104,2895.3604,2898.6893,space,3.3045,,2898.6893,28,72,2899.6918,2899.6919,2899.7079,,,,0,21,21,21,1,30,130,,,,,,,,
,,6169c75c94f8d8dacf4fe265,001,2023-12-14_08h18.01.908,bars,2023.2.3,Win32,60.24096386,,,,,,2899.709,2900.7091,,,2901.2082,2901.4582,,166,-14,,,,,,,,,,,,,,,,bars/024.png,bars/mask003.png,,,,,,,,,,,,9,2,,,,,,,6,10,7,10,,,,,,,,,,,2900.7092,2901.2081,2901.4583,2903.9167,space,2.4482,,2903.9169,46,4,2904.9069,2904.9069,2904.9204,,,,0,22,22,22,1,120,170,,,,,,,,
,,6169c75c94f8d8dacf4fe265,001,2023-12-14_08h18.01.908,bars,2023.2.3,Win32,60.24096386,,,,,,2904.9206,2905.924,,,2906.4237,2906.6654,,114,114,,,,,,,,,,,,,,,,bars/049.png,bars/mask003.png,,,,,,,,,,,,10,2,,,,,,,4,10,4,10,,,,,,,,,,,2905.924,2906.4236,2906.6654,2908.8724,space,2.19,,2908.8726,46,1,2909.8813,2909.8814,2909.8989,,,,0,23,23,23,1,160,115,,,,,,,,
,,6169c75c94f8d8dacf4fe265,001,2023-12-14_08h18.01.908,bars,2023.2.3,Win32,60.24096386,,,,,,2909.8992,2910.8883,,,2911.3883,2911.6377,,48,48,,,,,,,,,,,,,,,,bars/046.png,bars/mask008.png,,,,,,,,,,,,0,2,,,,,,,6,8,5,9,,,,,,,,,,,2910.8884,2911.3883,2911.6377,2914.4294,space,2.7814,,2914.4296,73,37,2915.4202,2915.4203,2915.433,,,,0,24,24,24,1,155,85,,,,,,,,
,,6169c75c94f8d8dacf4fe265,001,2023-12-14_08h18.01.908,bars,2023.2.3,Win32,60.24096386,,,,,,2915.4332,2916.4424,,,2916.9367,2917.1866,,118,118,,,,,,,,,,,,,,,,bars/021.png,bars/mask009.png,,,,,,,,,,,,0,1,,,,,,,4,6,4,7,,,,,,,,,,,2916.4425,2916.9365,2917.1867,2918.9696,space,1.7681,,2918.9696,37,48,2919.9743,2919.9744,2919.9762,,,,0,25,25,25,1,155,70,,,,,,,,
,,6169c75c94f8d8dacf4fe265,001,2023-12-14_08h18.01.908,bars,2023.2.3,Win32,60.24096386,,,,,,2919.9764,2920.9685,,,2921.4683,2921.7183,,144,144,,,,,,,,,,,,,,,,bars/034.png,bars/mask005.png,,,,,,,,,,,,0,1,,,,,,,2,8,1,8,,,,,,,,,,,2920.9686,2921.4683,2921.7183,2926.5668,space,4.8313,,2926.5668,19,79,2927.5658,2927.5658,2927.5783,,,,0,26,26,26,1,125,65,,,,,,,,
,,6169c75c94f8d8dacf4fe265,001,2023-12-14_08h18.01.908,bars,2023.2.3,Win32,60.24096386,,,,,,2927.5785,2928.567,,,2929.0559,2929.2988,,142,142,,,,,,,,,,,,,,,,bars/012.png,bars/mask008.png,,,,,,,,,,,,0,1,,,,,,,4,10,5,9,,,,,,,,,,,2928.5671,2929.0559,2929.2994,2932.0647,space,2.7349,,2932.065,52,53,2933.0641,2933.0642,2933.0805,,,,0,27,27,27,1,90,15,,,,,,,,
,,6169c75c94f8d8dacf4fe265,001,2023-12-14_08h18.01.908,bars,2023.2.3,Win32,60.24096386,,,,,,2933.0812,2934.0807,,,2934.5802,2934.8303,,90,90,,,,,,,,,,,,,,,,bars/015.png,bars/mask009.png,,,,,,,,,,,,1,1,,,,,,,2,10,2,9,,,,,,,,,,,2934.0808,2934.5802,2934.8304,2938.2037,space,3.3481,,2938.2037,20,70,2939.2043,2939.2044,2939.2206,,,,0,28,28,28,1,110,160,,,,,,,,
,,6169c75c94f8d8dacf4fe265,001,2023-12-14_08h18.01.908,bars,2023.2.3,Win32,60.24096386,,,,,,2939.2209,2940.2113,,,2940.7114,2940.9613,,54,234,,,,,,,,,,,,,,,,bars/015.png,bars/mask000.png,,,,,,,,,,,,0,1,,,,,,,0,8,0,8,,,,,,,,,,,2940.2114,2940.7114,2940.9614,2946.1272,space,5.1469,,2946.1273,56,74,2947.1309,2947.1309,2947.1429,,,,0,29,29,29,1,110,160,,,,,,,,
,,6169c75c94f8d8dacf4fe265,001,2023-12-14_08h18.01.908,bars,2023.2.3,Win32,60.24096386,,,,,,2947.1434,2948.1426,,,2948.6314,2948.8756,,73,73,,,,,,,,,,,,,,,,bars/035.png,bars/mask000.png,,,,,,,,,,,,5,2,,,,,,,2,10,2,9,,,,,,,,,,,2948.1427,2948.6314,2948.8757,2950.2422,space,1.3409,,2950.2422,78,13,2951.2411,2951.2412,2951.2565,,,,0,30,30,30,1,175,60,,,,,,,,
,,6169c75c94f8d8dacf4fe265,001,2023-12-14_08h18.01.908,bars,2023.2.3,Win32,60.24096386,,,,,,2951.2567,2952.2577,,,2952.7571,2953.0073,,86,86,,,,,,,,,,,,,,,,bars/019.png,bars/mask008.png,,,,,,,,,,,,3,2,,,,,,,0,8,0,8,,,,,,,,,,,2952.2577,2952.7571,2953.0073,2954.5742,space,1.5526,,2954.5743,41,19,2955.5731,2955.5731,2955.5859,,,,0,31,31,31,1,45,105,,,,,,,,
,,6169c75c94f8d8dacf4fe265,001,2023-12-14_08h18.01.908,bars,2023.2.3,Win32,60.24096386,,,,,,2955.5861,2956.5896,,,2957.0891,2957.3391,,137,137,,,,,,,,,,,,,,,,bars/048.png,bars/mask007.png,,,,,,,,,,,,0,2,,,,,,,0,6,0,5,,,,,,,,,,,2956.5897,2957.0891,2957.3391,2958.9383,space,1.5886,,2958.9384,87,38,2959.9387,2959.9388,2959.9523,,,,0,32,32,32,1,50,175,,,,,,,,
,,6169c75c94f8d8dacf4fe265,001,2023-12-14_08h18.01.908,bars,2023.2.3,Win32,60.24096386,,,,,,2959.9525,2960.9545,,,2961.462,2961.7097,,79,79,,,,,,,,,,,,,,,,bars/016.png,bars/mask003.png,,,,,,,,,,,,0,1,,,,,,,0,4,1,4,,,,,,,,,,,2960.9545,2961.4619,2961.7097,2962.8611,space,1.1289,,2962.8611,39,86,2963.8539,2963.854,2963.8579,,,,0,33,33,33,1,40,165,,,,,,,,
,,6169c75c94f8d8dacf4fe265,001,2023-12-14_08h18.01.908,bars,2023.2.3,Win32,60.24096386,,,,,,2963.8585,2964.8497,,,2965.353,2965.6032,,96,96,,,,,,,,,,,,,,,,bars/027.png,bars/mask000.png,,,,,,,,,,,,1,1,,,,,,,0,6,1,6,,,,,,,,,,,2964.8497,2965.353,2965.6032,2968.675,space,3.0604,,2968.6751,14,46,2969.675,2969.675,2969.6866,,,,0,34,34,34,1,110,50,,,,,,,,
,,6169c75c94f8d8dacf4fe265,001,2023-12-14_08h18.01.908,bars,2023.2.3,Win32,60.24096386,,,,,,2969.6872,2970.692,,,2971.1848,2971.4347,,151,151,,,,,,,,,,,,,,,,bars/022.png,bars/mask003.png,,,,,,,,,,,,0,2,,,,,,,2,8,2,7,,,,,,,,,,,2970.6921,2971.1847,2971.4347,2975.111,space,3.6672,,2975.111,56,49,2976.0997,2976.0998,2976.1179,,,,0,35,35,35,1,95,20,,,,,,,,
,,6169c75c94f8d8dacf4fe265,001,2023-12-14_08h18.01.908,bars,2023.2.3,Win32,60.24096386,,,,,,2976.1187,2977.1158,,,2977.6161,2977.8661,,92,92,,,,,,,,,,,,,,,,bars/012.png,bars/mask000.png,,,,,,,,,,,,4,1,,,,,,,4,6,4,6,,,,,,,,,,,2977.1159,2977.616,2977.8661,2980.3815,space,2.4869,,2980.3816,2,77,2981.3777,2981.3777,2981.3924,,,,0,36,36,36,1,90,15,,,,,,,,
,,6169c75c94f8d8dacf4fe265,001,2023-12-14_08h18.01.908,bars,2023.2.3,Win32,60.24096386,,,,,,2981.3926,2982.3811,,,2982.8808,2983.13,,57,57,,,,,,,,,,,,,,,,bars/035.png,bars/mask000.png,,,,,,,,,,,,7,2,,,,,,,6,8,6,8,,,,,,,,,,,2982.3811,2982.8807,2983.13,2986.447,space,3.3081,,2986.4471,62,3,2987.4459,2987.446,2987.4614,,,,0,37,37,37,1,175,60,,,,,,,,
,,6169c75c94f8d8dacf4fe265,001,2023-12-14_08h18.01.908,bars,2023.2.3,Win32,60.24096386,,,,,,2987.4618,2988.4617,,,2988.962,2989.218,,38,38,,,,,,,,,,,,,,,,bars/026.png,bars/mask007.png,,,,,,,,,,,,7,1,,,,,,,8,6,8,6,,,,,,,,,,,2988.4617,2988.962,2989.2182,2995.1601,space,5.9177,,2995.1602,3,47,2996.1678,2996.1678,2996.1845,,,,0,38,38,38,1,35,85,,,,,,,,
,,6169c75c94f8d8dacf4fe265,001,2023-12-14_08h18.01.908,bars,2023.2.3,Win32,60.24096386,,,,,,2996.1847,2997.1755,,,2997.6754,2997.925,,119,119,,,,,,,,,,,,,,,,bars/018.png,bars/mask004.png,,,,,,,,,,,,0,2,,,,,,,6,4,4,4,,,,,,,,,,,2997.1755,2997.6754,2997.925,3003.4904,space,5.5533,,3003.4905,31,29,3004.4898,3004.4898,3004.5074,,,,0,39,39,39,1,150,90,,,,,,,,
,,6169c75c94f8d8dacf4fe265,001,2023-12-14_08h18.01.908,bars,2023.2.3,Win32,60.24096386,,,,,,3004.5075,3005.5061,,,3006.006,3006.2607,,143,143,,,,,,,,,,,,,,,,bars/008.png,bars/mask007.png,,,,,,,,,,,,0,1,,,,,,,4,6,5,5,,,,,,,,,,,3005.5062,3006.0059,3006.2607,3007.2655,space,0.9841,,3007.2656,33,37,3008.2562,3008.2563,3008.2602,,,,0,40,40,40,1,110,0,,,,,,,,
,,6169c75c94f8d8dacf4fe265,001,2023-12-14_08h18.01.908,bars,2023.2.3,Win32,60.24096386,,,,,,3008.2606,3009.2558,,,3009.7619,3010.0049,,150,-30,,,,,,,,,,,,,,,,bars/019.png,bars/mask008.png,,,,,,,,,,,,0,2,,,,,,,6,8,8,8,,,,,,,,,,,3009.2559,3009.7619,3010.005,3015.2035,space,5.1866,,3015.2037,75,45,3016.2031,3016.2031,3016.2171,,,,0,41,41,41,1,45,105,,,,,,,,
,,6169c75c94f8d8dacf4fe265,001,2023-12-14_08h18.01.908,bars,2023.2.3,Win32,60.24096386,,,,,,3016.2173,3017.2198,,,3017.7096,3017.9566,,53,53,,,,,,,,,,,,,,,,bars/002.png,bars/mask003.png,,,,,,,,,,,,0,2,,,,,,,8,6,7,7,,,,,,,,,,,3017.2198,3017.7095,3017.9567,3022.0102,space,4.0335,,3022.0103,77,32,3023.0009,3023.0009,3023.0128,,,,0,42,42,42,1,130,85,,,,,,,,
,,6169c75c94f8d8dacf4fe265,001,2023-12-14_08h18.01.908,bars,2023.2.3,Win32,60.24096386,,,,,,3023.013,3024.023,,,3024.5238,3024.7663,,142,142,,,,,,,,,,,,,,,,bars/023.png,bars/mask008.png,,,,,,,,,,,,0,2,,,,,,,6,4,6,5,,,,,,,,,,,3024.023,3024.5237,3024.7664,3027.8657,space,3.074,,3027.8657,58,27,3028.8569,3028.8569,3028.8711,,,,0,43,43,43,1,20,115,,,,,,,,
,,6169c75c94f8d8dacf4fe265,001,2023-12-14_08h18.01.908,bars,2023.2.3,Win32,60.24096386,,,,,,3028.8713,3029.8645,,,3030.3648,3030.6065,,127,127,,,,,,,,,,,,,,,,bars/037.png,bars/mask009.png,,,,,,,,,,,,1,2,,,,,,,4,2,5,2,,,,,,,,,,,3029.8646,3030.3647,3030.6066,3031.9318,space,1.3035,,3031.9319,23,22,3032.9306,3032.9307,3032.9449,,,,0,44,44,44,1,150,105,,,,,,,,
,,6169c75c94f8d8dacf4fe265,001,2023-12-14_08h18.01.908,bars,2023.2.3,Win32,60.24096386,,,,,,3032.9451,3033.9548,,,3034.4546,3034.7011,,128,128,,,,,,,,,,,,,,,,bars/032.png,bars/mask001.png,,,,,,,,,,,,4,1,,,,,,,2,0,4,0,,,,,,,,,,,3033.9548,3034.4546,3034.7011,3056.4066,space,21.6832,,3056.4067,3,72,3057.4052,3057.4053,3057.4197,,,,0,45,45,45,1,125,20,,,,,,,,
,,6169c75c94f8d8dacf4fe265,001,2023-12-14_08h18.01.908,bars,2023.2.3,Win32,60.24096386,,,,,,3057.4198,3058.4217,,,3058.9215,3059.1717,,150,150,,,,,,,,,,,,,,,,bars/002.png,bars/mask002.png,,,,,,,,,,,,1,1,,,,,,,4,0,2,0,,,,,,,,,,,3058.4218,3058.9215,3059.1718,3063.6626,space,4.4666,,3063.6626,20,65,3064.6535,3064.6535,3064.6686,,,,0,46,46,46,1,130,85,,,,,,,,
,,6169c75c94f8d8dacf4fe265,001,2023-12-14_08h18.01.908,bars,2023.2.3,Win32,60.24096386,,,,,,3064.6688,3065.6693,,,3066.1695,3066.4191,,29,29,,,,,,,,,,,,,,,,bars/019.png,bars/mask000.png,,,,,,,,,,,,0,1,,,,,,,2,2,1,1,,,,,,,,,,,3065.6693,3066.1694,3066.4192,3067.7018,space,1.2691,,3067.7019,16,76,3068.7013,3068.7013,3068.7026,,,,0,47,47,47,1,45,105,,,,,,,,
,,6169c75c94f8d8dacf4fe265,001,2023-12-14_08h18.01.908,bars,2023.2.3,Win32,60.24096386,,,,,,3068.7032,3069.7009,,,3070.2009,3070.451,,32,32,,,,,,,,,,,,,,,,bars/009.png,bars/mask004.png,,,,,,,,,,,,2,1,,,,,,,4,0,4,0,,,,,,,,,,,3069.7009,3070.2009,3070.451,3077.6815,space,7.2184,,3077.6815,17,73,3078.6811,3078.6812,3078.6954,,,,0,48,48,48,1,15,105,,,,,,,,
,,6169c75c94f8d8dacf4fe265,001,2023-12-14_08h18.01.908,bars,2023.2.3,Win32,60.24096386,,,,,,3078.6958,3079.6982,,,3080.1986,3080.4479,,82,82,,,,,,,,,,,,,,,,bars/000.png,bars/mask008.png,,,,,,,,,,,,0,1,,,,,,,6,0,6,1,,,,,,,,,,,3079.6982,3080.1986,3080.448,3091.6278,space,11.1694,,3091.628,42,63,3092.6271,3092.6271,3092.6421,,,,0,49,49,49,1,40,145,,,,,,,,
,,6169c75c94f8d8dacf4fe265,001,2023-12-14_08h18.01.908,bars,2023.2.3,Win32,60.24096386,,,,,,,,,,,,,,,,,,,,,,,,,,,,,,,,,,,,,,,,,,,,,,,,,,,,,,,,,,,,,,,,,,,,,,,,,,,,,,,,,,,,,,,,3092.6425,3152.6318,0,2,2,1,1,sequence_tables/blk030.csv
,,6169c75c94f8d8dacf4fe265,001,2023-12-14_08h18.01.908,bars,2023.2.3,Win32,60.24096386,,,,,,3168.3463,3169.3347,,,3169.8342,3170.084,,99,99,,,,,,,,,,,,,,,,bars/018.png,bars/mask001.png,,,,,,,,,,,,4,2,,,,,,,7,5,7,6,,,,,,3152.6464,3168.3267,space,15.6718,,3169.3348,3169.8341,3170.0841,3173.7581,space,3.6647,,3173.7582,51,9,3174.7538,3174.7538,3174.7662,,,,0,0,0,0,1,150,90,,,,,,,,
,,6169c75c94f8d8dacf4fe265,001,2023-12-14_08h18.01.908,bars,2023.2.3,Win32,60.24096386,,,,,,3174.7666,3175.766,,,3176.2556,3176.4986,,95,95,,,,,,,,,,,,,,,,bars/010.png,bars/mask009.png,,,,,,,,,,,,0,2,,,,,,,5,7,5,7,,,,,,,,,,,3175.7661,3176.2555,3176.4987,3179.4731,space,2.9509,,3179.4732,70,40,3180.4641,3180.4641,3180.4814,,,,0,1,1,1,1,165,55,,,,,,,,
,,6169c75c94f8d8dacf4fe265,001,2023-12-14_08h18.01.908,bars,2023.2.3,Win32,60.24096386,,,,,,3180.4824,3181.4851,,,3181.9811,3182.2302,,27,27,,,,,,,,,,,,,,,,bars/034.png,bars/mask002.png,,,,,,,,,,,,0,2,,,,,,,3,5,4,4,,,,,,,,,,,3181.4851,3181.981,3182.2304,3189.2427,space,7.0019,,3189.2427,82,38,3190.238,3190.238,3190.2537,,,,0,2,2,2,1,125,65,,,,,,,,
,,6169c75c94f8d8dacf4fe265,001,2023-12-14_08h18.01.908,bars,2023.2.3,Win32,60.24096386,,,,,,3190.2539,3191.2443,,,3191.744,3191.9944,,133,133,,,,,,,,,,,,,,,,bars/040.png,bars/mask003.png,,,,,,,,,,,,2,1,,,,,,,1,3,2,3,,,,,,,,,,,3191.2444,3191.7439,3191.9944,3194.1685,space,2.1502,,3194.1686,7,52,3195.1592,3195.1592,3195.1742,,,,0,3,3,3,1,140,5,,,,,,,,
,,6169c75c94f8d8dacf4fe265,001,2023-12-14_08h18.01.908,bars,2023.2.3,Win32,60.24096386,,,,,,3195.1744,3196.1752,,,3196.6649,3196.9082,,131,131,,,,,,,,,,,,,,,,bars/029.png,bars/mask002.png,,,,,,,,,,,,0,1,,,,,,,3,5,2,6,,,,,,,,,,,3196.1753,3196.6649,3196.9082,3201.0653,space,4.1363,,3201.0654,41,86,3202.0563,3202.0564,3202.0704,,,,0,4,4,4,1,90,45,,,,,,,,
,,6169c75c94f8d8dacf4fe265,001,2023-12-14_08h18.01.908,bars,2023.2.3,Win32,60.24096386,,,,,,3202.0706,3203.0731,,,3203.5725,3203.8144,,38,38,,,,,,,,,,,,,,,,bars/030.png,bars/mask005.png,,,,,,,,,,,,0,2,,,,,,,1,3,3,2,,,,,,,,,,,3203.0731,3203.5724,3203.8144,3342.1927,space,138.3567,,3342.1929,78,27,3343.1924,3343.1925,3343.2061,,,,0,5,5,5,1,140,65,,,,,,,,
,,6169c75c94f8d8dacf4fe265,001,2023-12-14_08h18.01.908,bars,2023.2.3,Win32,60.24096386,,,,,,3343.2063,3344.2172,,,3344.717,3344.9587,,20,20,,,,,,,,,,,,,,,,bars/010.png,bars/mask008.png,,,,,,,,,,,,0,2,,,,,,,3,1,2,1,,,,,,,,,,,3344.2172,3344.7169,3344.9588,3350.0075,space,5.0171,,3350.0076,35,35,3350.9976,3350.9976,3351.0131,,,,0,6,6,6,1,165,55,,,,,,,,
,,6169c75c94f8d8dacf4fe265,001,2023-12-14_08h18.01.908,bars,2023.2.3,Win32,60.24096386,,,,,,3351.0132,3352.0061,,,3352.5063,3352.7469,,22,22,,,,,,,,,,,,,,,,bars/022.png,bars/mask007.png,,,,,,,,,,,,0,2,,,,,,,5,0,6,0,,,,,,,,,,,3352.0061,3352.5062,3352.747,3358.2204,space,5.4545,,3358.2205,73,2,3359.2197,3359.2198,3359.2324,,,,0,7,7,7,1,95,20,,,,,,,,
,,6169c75c94f8d8dacf4fe265,001,2023-12-14_08h18.01.908,bars,2023.2.3,Win32,60.24096386,,,,,,3359.2326,3360.2281,,,3360.7214,3360.9696,,33,33,,,,,,,,,,,,,,,,bars/035.png,bars/mask001.png,,,,,,,,,,,,0,2,,,,,,,7,0,7,0,,,,,,,,,,,3360.2281,3360.7213,3360.9697,3365.0279,space,4.0336,,3365.028,38,27,3366.0222,3366.0223,3366.0345,,,,0,8,8,8,1,175,60,,,,,,,,
,,6169c75c94f8d8dacf4fe265,001,2023-12-14_08h18.01.908,bars,2023.2.3,Win32,60.24096386,,,,,,3366.0348,3367.025,,,3367.5173,3367.7674,,79,79,,,,,,,,,,,,,,,,bars/005.png,bars/mask004.png,,,,,,,,,,,,0,2,,,,,,,9,0,9,1,,,,,,,,,,,3367.025,3367.5173,3367.7674,3371.4181,space,3.6382,,3371.4182,69,61,3372.4157,3372.4157,3372.4282,,,,0,9,9,9,1,10,140,,,,,,,,
,,6169c75c94f8d8dacf4fe265,001,2023-12-14_08h18.01.908,bars,2023.2.3,Win32,60.24096386,,,,,,3372.4284,3373.4322,,,3373.9244,3374.1648,,171,171,,,,,,,,,,,,,,,,bars/002.png,bars/mask001.png,,,,,,,,,,,,0,1,,,,,,,10,2,9,1,,,,,,,,,,,3373.4322,3373.9244,3374.1649,3377.1812,space,3.0003,,3377.1813,41,86,3378.1808,3378.1809,3378.1957,,,,0,10,10,10,1,130,85,,,,,,,,
,,6169c75c94f8d8dacf4fe265,001,2023-12-14_08h18.01.908,bars,2023.2.3,Win32,60.24096386,,,,,,3378.196,3379.1971,,,3379.6874,3379.9299,,90,90,,,,,,,,,,,,,,,,bars/047.png,bars/mask002.png,,,,,,,,,,,,1,2,,,,,,,8,4,8,4,,,,,,,,,,,3379.1971,3379.6873,3379.93,3383.9043,space,3.95,,3383.9044,75,20,3384.8953,3384.8953,3384.9083,,,,0,11,11,11,1,15,70,,,,,,,,
,,6169c75c94f8d8dacf4fe265,001,2023-12-14_08h18.01.908,bars,2023.2.3,Win32,60.24096386,,,,,,3384.9085,3385.9013,,,3386.4024,3386.6449,,1,181,,,,,,,,,,,,,,,,bars/003.png,bars/mask006.png,,,,,,,,,,,,1,1,,,,,,,6,6,6,7,,,,,,,,,,,3385.9014,3386.4023,3386.645,3398.9505,space,12.2817,,3398.9506,24,41,3399.9402,3399.9405,3399.9516,,,,0,12,12,12,1,25,140,,,,,,,,
,,6169c75c94f8d8dacf4fe265,001,2023-12-14_08h18.01.908,bars,2023.2.3,Win32,60.24096386,,,,,,3399.9517,3400.956,,,3401.4637,3401.7138,,129,129,,,,,,,,,,,,,,,,bars/007.png,bars/mask005.png,,,,,,,,,,,,0,1,,,,,,,8,8,8,9,,,,,,,,,,,3400.9561,3401.4636,3401.7138,3406.4808,space,4.7495,,3406.4808,46,74,3407.4712,3407.4713,3407.4837,,,,0,13,13,13,1,175,55,,,,,,,,
,,6169c75c94f8d8dacf4fe265,001,2023-12-14_08h18.01.908,bars,2023.2.3,Win32,60.24096386,,,,,,3407.4839,3408.4875,,,3408.987,3409.2283,,179,179,,,,,,,,,,,,,,,,bars/045.png,bars/mask005.png,,,,,,,,,,,,4,2,,,,,,,10,6,9,6,,,,,,,,,,,3408.4876,3408.9869,3409.2283,3414.0118,space,4.7667,,3414.0119,79,11,3415.0015,3415.0016,3415.0252,,,,0,14,14,14,1,100,10,,,,,,,,
,,6169c75c94f8d8dacf4fe265,001,2023-12-14_08h18.01.908,bars,2023.2.3,Win32,60.24096386,,,,,,3415.0256,3416.0174,,,3416.5176,3416.7674,,7,187,,,,,,,,,,,,,,,,bars/027.png,bars/mask002.png,,,,,,,,,,,,0,2,,,,,,,10,4,10,3,,,,,,,,,,,3416.0175,3416.5173,3416.7675,3420.1664,space,3.3838,,3420.1664,77,43,3421.1658,3421.1659,3421.1811,,,,0,15,15,15,1,110,50,,,,,,,,
,,6169c75c94f8d8dacf4fe265,001,2023-12-14_08h18.01.908,bars,2023.2.3,Win32,60.24096386,,,,,,3421.1814,3422.1818,,,3422.6818,3422.9319,,5,185,,,,,,,,,,,,,,,,bars/047.png,bars/mask000.png,,,,,,,,,,,,7,1,,,,,,,10,6,10,5,,,,,,,,,,,3422.1818,3422.6818,3422.9319,3429.7462,space,6.799,,3429.7464,10,65,3430.746,3430.7461,3430.7643,,,,0,16,16,16,1,15,70,,,,,,,,
,,6169c75c94f8d8dacf4fe265,001,2023-12-14_08h18.01.908,bars,2023.2.3,Win32,60.24096386,,,,,,3430.7649,3431.762,,,3432.2618,3432.5118,,57,57,,,,,,,,,,,,,,,,bars/010.png,bars/mask002.png,,,,,,,,,,,,5,2,,,,,,,10,4,10,5,,,,,,,,,,,3431.762,3432.2618,3432.5118,3434.2784,space,1.7499,,3434.2784,72,2,3435.2778,3435.2779,3435.2927,,,,0,17,17,17,1,165,55,,,,,,,,
,,6169c75c94f8d8dacf4fe265,001,2023-12-14_08h18.01.908,bars,2023.2.3,Win32,60.24096386,,,,,,3435.293,3436.294,,,3436.7939,3437.0437,,72,72,,,,,,,,,,,,,,,,bars/013.png,bars/mask004.png,,,,,,,,,,,,9,1,,,,,,,10,6,10,7,,,,,,,,,,,3436.294,3436.7937,3437.0437,3440.576,space,3.5157,,3440.5761,3,62,3441.5755,3441.5757,3441.5888,,,,0,18,18,18,1,75,10,,,,,,,,
,,6169c75c94f8d8dacf4fe265,001,2023-12-14_08h18.01.908,bars,2023.2.3,Win32,60.24096386,,,,,,3441.5889,3442.5916,,,3443.0915,3443.3414,,70,70,,,,,,,,,,,,,,,,bars/005.png,bars/mask000.png,,,,,,,,,,,,0,1,,,,,,,10,8,10,9,,,,,,,,,,,3442.5917,3443.0915,3443.3414,3449.8401,space,6.4836,,3449.8402,60,70,3450.8389,3450.8389,3450.8542,,,,0,19,19,19,1,10,140,,,,,,,,
,,6169c75c94f8d8dacf4fe265,001,2023-12-14_08h18.01.908,bars,2023.2.3,Win32,60.24096386,,,,,,3450.8545,3451.8549,,,3452.3553,3452.6057,,123,123,,,,,,,,,,,,,,,,bars/006.png,bars/mask004.png,,,,,,,,,,,,2,2,,,,,,,8,10,6,9,,,,,,,,,,,3451.8549,3452.3553,3452.6057,3460.0362,space,7.4147,,3460.0363,88,23,3461.0353,3461.0353,3461.0501,,,,0,20,20,20,1,35,100,,,,,,,,
,,6169c75c94f8d8dacf4fe265,001,2023-12-14_08h18.01.908,bars,2023.2.3,Win32,60.24096386,,,,,,3461.0504,3462.0514,,,3462.5516,3462.8014,,25,25,,,,,,,,,,,,,,,,bars/006.png,bars/mask003.png,,,,,,,,,,,,4,1,,,,,,,6,10,6,9,,,,,,,,,,,3462.0515,3462.5516,3462.8014,3467.1014,space,4.2889,,3467.1014,10,75,3468.0995,3468.0995,3468.1132,,,,0,21,21,21,1,35,100,,,,,,,,
,,6169c75c94f8d8dacf4fe265,001,2023-12-14_08h18.01.908,bars,2023.2.3,Win32,60.24096386,,,,,,3468.1133,3469.1162,,,3469.6161,3469.8581,,157,157,,,,,,,,,,,,,,,,bars/038.png,bars/mask005.png,,,,,,,,,,,,2,1,,,,,,,4,8,3,9,,,,,,,,,,,3469.1162,3469.6161,3469.8581,3474.1654,space,4.2872,,3474.1655,8,87,3475.1544,3475.1544,3475.17,,,,0,22,22,22,1,165,70,,,,,,,,
,,6169c75c94f8d8dacf4fe265,001,2023-12-14_08h18.01.908,bars,2023.2.3,Win32,60.24096386,,,,,,3475.1703,3476.1644,,,3476.6641,3476.9039,,91,91,,,,,,,,,,,,,,,,bars/029.png,bars/mask000.png,,,,,,,,,,,,5,1,,,,,,,6,10,5,10,,,,,,,,,,,3476.1644,3476.6641,3476.904,3482.1378,space,5.2158,,3482.1378,1,46,3483.1287,3483.1289,3483.1426,,,,0,23,23,23,1,90,45,,,,,,,,
,,6169c75c94f8d8dacf4fe265,001,2023-12-14_08h18.01.908,bars,2023.2.3,Win32,60.24096386,,,,,,3483.1428,3484.1505,,,3484.6499,3484.8952,,121,121,,,,,,,,,,,,,,,,bars/012.png,bars/mask009.png,,,,,,,,,,,,0,1,,,,,,,8,10,8,10,,,,,,,,,,,3484.1505,3484.6499,3484.8953,3486.2776,space,1.3544,,3486.2776,31,74,3487.2768,3487.2769,3487.2903,,,,0,24,24,24,1,90,15,,,,,,,,
,,6169c75c94f8d8dacf4fe265,001,2023-12-14_08h18.01.908,bars,2023.2.3,Win32,60.24096386,,,,,,3487.2906,3488.2845,,,3488.7834,3489.0264,,96,96,,,,,,,,,,,,,,,,bars/018.png,bars/mask009.png,,,,,,,,,,,,6,2,,,,,,,6,8,7,7,,,,,,,,,,,3488.2845,3488.7833,3489.0264,3492.7265,space,3.6763,,3492.7266,54,6,3493.7251,3493.7252,3493.741,,,,0,25,25,25,1,150,90,,,,,,,,
,,6169c75c94f8d8dacf4fe265,001,2023-12-14_08h18.01.908,bars,2023.2.3,Win32,60.24096386,,,,,,3493.7415,3494.7478,,,3495.2411,3495.4909,,30,30,,,,,,,,,,,,,,,,bars/013.png,bars/mask007.png,,,,,,,,,,,,2,2,,,,,,,4,6,4,6,,,,,,,,,,,3494.7478,3495.241,3495.491,3496.6074,space,1.1037,,3496.6075,45,20,3497.6152,3497.6153,3497.6285,,,,0,26,26,26,1,75,10,,,,,,,,
,,6169c75c94f8d8dacf4fe265,001,2023-12-14_08h18.01.908,bars,2023.2.3,Win32,60.24096386,,,,,,3497.6287,3498.6225,,,3499.1225,3499.3725,,85,85,,,,,,,,,,,,,,,,bars/008.png,bars/mask000.png,,,,,,,,,,,,0,1,,,,,,,2,8,3,7,,,,,,,,,,,3498.6226,3499.1224,3499.3726,3527.3804,space,27.9971,,3527.3808,25,85,3528.3901,3528.3902,3528.4111,,,,0,27,27,27,1,110,0,,,,,,,,
,,6169c75c94f8d8dacf4fe265,001,2023-12-14_08h18.01.908,bars,2023.2.3,Win32,60.24096386,,,,,,3528.4116,3529.4124,,,3529.902,3530.1461,,59,59,,,,,,,,,,,,,,,,bars/034.png,bars/mask002.png,,,,,,,,,,,,8,2,,,,,,,0,10,0,10,,,,,,,,,,,3529.4124,3529.9018,3530.1462,3533.0783,space,2.8972,,3533.0784,66,6,3534.0778,3534.078,3534.0926,,,,0,28,28,28,1,125,65,,,,,,,,
,,6169c75c94f8d8dacf4fe265,001,2023-12-14_08h18.01.908,bars,2023.2.3,Win32,60.24096386,,,,,,3534.0929,3535.0937,,,3535.5941,3535.844,,104,104,,,,,,,,,,,,,,,,bars/036.png,bars/mask009.png,,,,,,,,,,,,0,1,,,,,,,0,8,1,9,,,,,,,,,,,3535.0937,3535.5941,3535.8441,3537.9934,space,2.1223,,3537.9937,41,84,3538.9924,3538.9925,3539.009,,,,0,29,29,29,1,145,20,,,,,,,,
,,6169c75c94f8d8dacf4fe265,001,2023-12-14_08h18.01.908,bars,2023.2.3,Win32,60.24096386,,,,,,3539.0096,3540.0091,,,3540.5095,3540.7587,,110,110,,,,,,,,,,,,,,,,bars/017.png,bars/mask001.png,,,,,,,,,,,,0,1,,,,,,,0,6,0,5,,,,,,,,,,,3540.0091,3540.5094,3540.7587,3544.0745,space,3.3005,,3544.0746,35,65,3545.0741,3545.0741,3545.0849,,,,0,30,30,30,1,145,45,,,,,,,,
,,6169c75c94f8d8dacf4fe265,001,2023-12-14_08h18.01.908,bars,2023.2.3,Win32,60.24096386,,,,,,3545.0852,3546.0778,,,3546.5737,3546.8233,,137,137,,,,,,,,,,,,,,,,bars/049.png,bars/mask006.png,,,,,,,,,,,,2,2,,,,,,,2,8,3,9,,,,,,,,,,,3546.0779,3546.5736,3546.8234,3554.3255,space,7.4931,,3554.3255,23,22,3555.3203,3555.3204,3555.3348,,,,0,31,31,31,1,160,115,,,,,,,,
,,6169c75c94f8d8dacf4fe265,001,2023-12-14_08h18.01.908,bars,2023.2.3,Win32,60.24096386,,,,,,3555.335,3556.337,,,3556.8366,3557.0867,,48,48,,,,,,,,,,,,,,,,bars/045.png,bars/mask009.png,,,,,,,,,,,,0,2,,,,,,,0,10,0,9,,,,,,,,,,,3556.337,3556.8365,3557.0868,3562.3843,space,5.2712,,3562.3844,52,38,3563.3842,3563.3842,3563.3965,,,,0,32,32,32,1,100,10,,,,,,,,
,,6169c75c94f8d8dacf4fe265,001,2023-12-14_08h18.01.908,bars,2023.2.3,Win32,60.24096386,,,,,,3563.3969,3564.4009,,,3564.9006,3565.14,,129,129,,,,,,,,,,,,,,,,bars/014.png,bars/mask007.png,,,,,,,,,,,,0,1,,,,,,,2,10,3,10,,,,,,,,,,,3564.401,3564.9005,3565.14,3575.964,space,10.803,,3575.9641,49,51,3576.9636,3576.9637,3576.9786,,,,0,33,33,33,1,80,0,,,,,,,,
,,6169c75c94f8d8dacf4fe265,001,2023-12-14_08h18.01.908,bars,2023.2.3,Win32,60.24096386,,,,,,3576.9788,3577.971,,,3578.4713,3578.7127,,50,50,,,,,,,,,,,,,,,,bars/047.png,bars/mask009.png,,,,,,,,,,,,3,2,,,,,,,0,10,0,10,,,,,,,,,,,3577.971,3578.4713,3578.7128,3589.1689,space,10.4292,,3589.169,35,20,3590.1633,3590.1634,3590.1767,,,,0,34,34,34,1,15,70,,,,,,,,
,,6169c75c94f8d8dacf4fe265,001,2023-12-14_08h18.01.908,bars,2023.2.3,Win32,60.24096386,,,,,,3590.1771,3591.1659,,,3591.6587,3591.9086,,141,141,,,,,,,,,,,,,,,,bars/000.png,bars/mask004.png,,,,,,,,,,,,9,2,,,,,,,2,10,2,10,,,,,,,,,,,3591.1659,3591.6586,3591.9087,3597.5235,space,5.5864,,3597.5237,79,4,3598.5142,3598.5143,3598.5304,,,,0,35,35,35,1,40,145,,,,,,,,
,,6169c75c94f8d8dacf4fe265,001,2023-12-14_08h18.01.908,bars,2023.2.3,Win32,60.24096386,,,,,,3598.5307,3599.5221,,,3600.0223,3600.2721,,97,97,,,,,,,,,,,,,,,,bars/022.png,bars/mask008.png,,,,,,,,,,,,0,1,,,,,,,0,10,0,10,,,,,,,,,,,3599.5221,3600.0222,3600.2721,3601.9135,space,1.6175,,3601.9135,2,77,3602.9132,3602.9132,3602.9296,,,,0,36,36,36,1,95,20,,,,,,,,
,,6169c75c94f8d8dacf4fe265,001,2023-12-14_08h18.01.908,bars,2023.2.3,Win32,60.24096386,,,,,,3602.93,3603.9259,,,3604.4211,3604.6623,,82,82,,,,,,,,,,,,,,,,bars/036.png,bars/mask001.png,,,,,,,,,,,,0,2,,,,,,,0,10,1,10,,,,,,,,,,,3603.9259,3604.4211,3604.6624,3639.4337,space,34.7549,,3639.4337,63,62,3640.4251,3640.4252,3640.4447,,,,0,37,37,37,1,145,20,,,,,,,,
,,6169c75c94f8d8dacf4fe265,001,2023-12-14_08h18.01.908,bars,2023.2.3,Win32,60.24096386,,,,,,3640.4454,3641.4339,,,3641.9322,3642.1749,,76,76,,,,,,,,,,,,,,,,bars/003.png,bars/mask000.png,,,,,,,,,,,,0,1,,,,,,,2,8,1,9,,,,,,,,,,,3641.4339,3641.9321,3642.1749,3657.7864,space,15.5996,,3657.7865,51,64,3658.7855,3658.7855,3658.8041,,,,0,38,38,38,1,25,140,,,,,,,,
,,6169c75c94f8d8dacf4fe265,001,2023-12-14_08h18.01.908,bars,2023.2.3,Win32,60.24096386,,,,,,3658.8047,3659.8014,,,3660.3017,3660.5518,,125,125,,,,,,,,,,,,,,,,bars/030.png,bars/mask006.png,,,,,,,,,,,,2,1,,,,,,,4,10,4,10,,,,,,,,,,,3659.8015,3660.3016,3660.5518,3666.009,space,5.4328,,3666.009,15,60,3666.9999,3667,3667.0142,,,,0,39,39,39,1,140,65,,,,,,,,
,,6169c75c94f8d8dacf4fe265,001,2023-12-14_08h18.01.908,bars,2023.2.3,Win32,60.24096386,,,,,,3667.0144,3668.0164,,,3668.5074,3668.7489,,95,95,,,,,,,,,,,,,,,,bars/042.png,bars/mask008.png,,,,,,,,,,,,3,2,,,,,,,6,10,6,10,,,,,,,,,,,3668.0164,3668.5073,3668.749,3694.6237,space,25.849,,3694.6238,50,20,3695.6226,3695.6226,3695.6384,,,,0,40,40,40,1,145,75,,,,,,,,
,,6169c75c94f8d8dacf4fe265,001,2023-12-14_08h18.01.908,bars,2023.2.3,Win32,60.24096386,,,,,,3695.6386,3696.6394,,,3697.1393,3697.3891,,149,-31,,,,,,,,,,,,,,,,bars/019.png,bars/mask004.png,,,,,,,,,,,,0,2,,,,,,,8,10,9,10,,,,,,,,,,,3696.6394,3697.1393,3697.3892,3706.0458,space,8.6461,,3706.0458,76,44,3707.0358,3707.0359,3707.0601,,,,0,41,41,41,1,45,105,,,,,,,,
,,6169c75c94f8d8dacf4fe265,001,2023-12-14_08h18.01.908,bars,2023.2.3,Win32,60.24096386,,,,,,3707.0603,3708.061,,,3708.552,3708.7933,,110,110,,,,,,,,,,,,,,,,bars/031.png,bars/mask008.png,,,,,,,,,,,,3,1,,,,,,,6,10,4,10,,,,,,,,,,,3708.061,3708.5519,3708.7933,3715.2932,space,6.482,,3715.2932,10,75,3716.2918,3716.2918,3716.3118,,,,0,42,42,42,1,120,35,,,,,,,,
,,6169c75c94f8d8dacf4fe265,001,2023-12-14_08h18.01.908,bars,2023.2.3,Win32,60.24096386,,,,,,3716.3121,3717.3157,,,3717.8159,3718.0654,,23,23,,,,,,,,,,,,,,,,bars/028.png,bars/mask004.png,,,,,,,,,,,,2,1,,,,,,,8,8,6,8,,,,,,,,,,,3717.3158,3717.8159,3718.0655,3728.0964,space,10.0108,,3728.0965,22,83,3729.0954,3729.0956,3729.1157,,,,0,43,43,43,1,45,120,,,,,,,,
,,6169c75c94f8d8dacf4fe265,001,2023-12-14_08h18.01.908,bars,2023.2.3,Win32,60.24096386,,,,,,3729.1162,3730.119,,,3730.6114,3730.8511,,66,66,,,,,,,,,,,,,,,,bars/044.png,bars/mask006.png,,,,,,,,,,,,4,1,,,,,,,6,10,5,9,,,,,,,,,,,3730.1191,3730.6113,3730.8511,3734.6003,space,3.742,,3734.6004,9,89,3735.5931,3735.5932,3735.6059,,,,0,44,44,44,1,75,155,,,,,,,,
,,6169c75c94f8d8dacf4fe265,001,2023-12-14_08h18.01.908,bars,2023.2.3,Win32,60.24096386,,,,,,3735.606,3736.6135,,,3737.1162,3737.359,,147,147,,,,,,,,,,,,,,,,bars/014.png,bars/mask007.png,,,,,,,,,,,,0,2,,,,,,,4,8,3,8,,,,,,,,,,,3736.6135,3737.1162,3737.3591,3741.1014,space,3.7331,,3741.1015,67,33,3742.0908,3742.0908,3742.1028,,,,0,45,45,45,1,80,0,,,,,,,,
,,6169c75c94f8d8dacf4fe265,001,2023-12-14_08h18.01.908,bars,2023.2.3,Win32,60.24096386,,,,,,3742.103,3743.0986,,,3743.5907,3743.8406,,92,92,,,,,,,,,,,,,,,,bars/048.png,bars/mask005.png,,,,,,,,,,,,0,1,,,,,,,2,6,3,7,,,,,,,,,,,3743.0987,3743.5906,3743.8406,3745.5418,space,1.6674,,3745.5419,42,83,3746.5307,3746.5308,3746.5331,,,,0,46,46,46,1,50,175,,,,,,,,
,,6169c75c94f8d8dacf4fe265,001,2023-12-14_08h18.01.908,bars,2023.2.3,Win32,60.24096386,,,,,,3746.5334,3747.5224,,,3748.0221,3748.2596,,9,9,,,,,,,,,,,,,,,,bars/039.png,bars/mask003.png,,,,,,,,,,,,2,1,,,,,,,4,4,4,4,,,,,,,,,,,3747.5225,3748.0219,3748.2597,3814.4834,space,66.2148,,3814.4836,14,84,3815.4825,3815.4827,3815.4967,,,,0,47,47,47,1,175,105,,,,,,,,
,,6169c75c94f8d8dacf4fe265,001,2023-12-14_08h18.01.908,bars,2023.2.3,Win32,60.24096386,,,,,,3815.4969,3816.4902,,,3816.9861,3817.2408,,9,9,,,,,,,,,,,,,,,,bars/023.png,bars/mask005.png,,,,,,,,,,,,2,1,,,,,,,2,2,3,3,,,,,,,,,,,3816.4903,3816.986,3817.2408,3821.0304,space,3.7656,,3821.0304,11,74,3822.0302,3822.0303,3822.0452,,,,0,48,48,48,1,20,115,,,,,,,,
,,6169c75c94f8d8dacf4fe265,001,2023-12-14_08h18.01.908,bars,2023.2.3,Win32,60.24096386,,,,,,3822.0454,3823.046,,,3823.5462,3823.7962,,122,122,,,,,,,,,,,,,,,,bars/012.png,bars/mask003.png,,,,,,,,,,,,0,1,,,,,,,4,0,3,0,,,,,,,,,,,3823.0461,3823.5462,3823.7962,3827.4454,space,3.6405,,3827.4455,32,73,3828.4452,3828.4453,3828.4469,,,,0,49,49,49,1,90,15,,,,,,,,
,,6169c75c94f8d8dacf4fe265,001,2023-12-14_08h18.01.908,bars,2023.2.3,Win32,60.24096386,,,,,,,,,,,,,,,,,,,,,,,,,,,,,,,,,,,,,,,,,,,,,,,,,,,,,,,,,,,,,,,,,,,,,,,,,,,,,,,,,,,,,,,,3828.4473,3888.4409,0,3,3,0,1,sequence_tables/blk007.csv
,,6169c75c94f8d8dacf4fe265,001,2023-12-14_08h18.01.908,bars,2023.2.3,Win32,60.24096386,,,,,,3889.7175,3890.7071,,,3891.207,3891.4401,,74,74,,,,,,,,,,,,,,,,bars/032.png,bars/mask004.png,,,,,,,,,,,,0,1,,,,,,,9,8,9,9,,,,,,3888.4574,3889.7076,space,1.2235,,3890.7071,3891.2069,3891.4402,3892.5732,space,1.1013,,3892.5733,51,54,3893.5723,3893.5723,3893.5736,,,,0,0,0,0,1,125,20,,,,,,,,
,,6169c75c94f8d8dacf4fe265,001,2023-12-14_08h18.01.908,bars,2023.2.3,Win32,60.24096386,,,,,,3893.5741,3894.5722,,,3895.0722,3895.3056,,54,54,,,,,,,,,,,,,,,,bars/049.png,bars/mask000.png,,,,,,,,,,,,0,2,,,,,,,7,10,7,10,,,,,,,,,,,3894.5723,3895.0721,3895.3057,3898.2382,space,2.9031,,3898.2383,74,61,3899.2373,3899.2375,3899.2567,,,,0,1,1,1,1,160,115,,,,,,,,
,,6169c75c94f8d8dacf4fe265,001,2023-12-14_08h18.01.908,bars,2023.2.3,Win32,60.24096386,,,,,,3899.257,3900.2371,,,3900.7372,3900.9701,,137,137,,,,,,,,,,,,,,,,bars/020.png,bars/mask006.png,,,,,,,,,,,,2,1,,,,,,,9,10,9,10,,,,,,,,,,,3900.2371,3900.7372,3900.9701,3903.3365,space,2.3443,,3903.3366,22,33,3904.3356,3904.3356,3904.3385,,,,0,2,2,2,1,115,170,,,,,,,,
,,6169c75c94f8d8dacf4fe265,001,2023-12-14_08h18.01.908,bars,2023.2.3,Win32,60.24096386,,,,,,3904.3391,3905.3355,,,3905.8353,3906.0685,,76,76,,,,,,,,,,,,,,,,bars/009.png,bars/mask006.png,,,,,,,,,,,,0,2,,,,,,,7,8,8,6,,,,,,,,,,,3905.3356,3905.8352,3906.0686,3909.4342,space,3.3481,,3909.4343,61,29,3910.4337,3910.4338,3910.4524,,,,0,3,3,3,1,15,105,,,,,,,,
,,6169c75c94f8d8dacf4fe265,001,2023-12-14_08h18.01.908,bars,2023.2.3,Win32,60.24096386,,,,,,3910.4526,3911.4334,,,3911.9332,3912.1664,,160,160,,,,,,,,,,,,,,,,bars/047.png,bars/mask003.png,,,,,,,,,,,,0,1,,,,,,,5,10,6,10,,,,,,,,,,,3911.4334,3911.9331,3912.1664,3937.7581,space,25.5744,,3937.7581,35,90,3938.7572,3938.7573,3938.7763,,,,0,4,4,4,1,15,70,,,,,,,,
,,6169c75c94f8d8dacf4fe265,001,2023-12-14_08h18.01.908,bars,2023.2.3,Win32,60.24096386,,,,,,3938.7767,3939.7573,,,3940.2571,3940.4901,,155,155,,,,,,,,,,,,,,,,bars/020.png,bars/mask006.png,,,,,,,,,,,,4,2,,,,,,,7,8,7,8,,,,,,,,,,,3939.7573,3940.2571,3940.4901,3941.7565,space,1.2308,,3941.7566,40,15,3942.7557,3942.7558,3942.7585,,,,0,5,5,5,1,115,170,,,,,,,,
,,6169c75c94f8d8dacf4fe265,001,2023-12-14_08h18.01.908,bars,2023.2.3,Win32,60.24096386,,,,,,3942.7591,3943.7558,,,3944.2557,3944.4889,,96,96,,,,,,,,,,,,,,,,bars/006.png,bars/mask007.png,,,,,,,,,,,,4,2,,,,,,,9,6,9,5,,,,,,,,,,,3943.7559,3944.2557,3944.489,3949.6868,space,5.1714,,3949.6868,61,4,3950.6866,3950.6867,3950.7038,,,,0,6,6,6,1,35,100,,,,,,,,
,,6169c75c94f8d8dacf4fe265,001,2023-12-14_08h18.01.908,bars,2023.2.3,Win32,60.24096386,,,,,,3950.7041,3951.6864,,,3952.1862,3952.4196,,84,84,,,,,,,,,,,,,,,,bars/031.png,bars/mask007.png,,,,,,,,,,,,0,1,,,,,,,7,4,7,2,,,,,,,,,,,3951.6865,3952.1861,3952.4196,3956.8184,space,4.3634,,3956.8185,36,49,3957.8196,3957.8198,3957.8391,,,,0,7,7,7,1,120,35,,,,,,,,
,,6169c75c94f8d8dacf4fe265,001,2023-12-14_08h18.01.908,bars,2023.2.3,Win32,60.24096386,,,,,,3957.8394,3958.8173,,,3959.3173,3959.5503,,14,14,,,,,,,,,,,,,,,,bars/047.png,bars/mask000.png,,,,,,,,,,,,6,1,,,,,,,5,2,6,3,,,,,,,,,,,3958.8174,3959.3172,3959.5504,3960.7174,space,1.1329,,3960.7177,1,56,3961.7164,3961.7165,3961.7178,,,,0,8,8,8,1,15,70,,,,,,,,
,,6169c75c94f8d8dacf4fe265,001,2023-12-14_08h18.01.908,bars,2023.2.3,Win32,60.24096386,,,,,,3961.7183,3962.716,,,3963.2159,3963.449,,66,66,,,,,,,,,,,,,,,,bars/039.png,bars/mask002.png,,,,,,,,,,,,0,2,,,,,,,7,4,8,4,,,,,,,,,,,3962.7161,3963.2158,3963.4491,3964.3822,space,0.8994,,3964.3822,71,39,3965.3819,3965.3819,3965.3856,,,,0,9,9,9,1,175,105,,,,,,,,
,,6169c75c94f8d8dacf4fe265,001,2023-12-14_08h18.01.908,bars,2023.2.3,Win32,60.24096386,,,,,,3965.3863,3966.3814,,,3966.8811,3967.1146,,80,80,,,,,,,,,,,,,,,,bars/046.png,bars/mask004.png,,,,,,,,,,,,2,2,,,,,,,9,2,10,2,,,,,,,,,,,3966.3814,3966.881,3967.1147,3991.173,space,24.0274,,3991.1732,75,5,3992.1725,3992.1725,3992.191,,,,0,10,10,10,1,155,85,,,,,,,,
,,6169c75c94f8d8dacf4fe265,001,2023-12-14_08h18.01.908,bars,2023.2.3,Win32,60.24096386,,,,,,3992.1913,3993.1721,,,3993.6724,3993.9055,,74,74,,,,,,,,,,,,,,,,bars/003.png,bars/mask009.png,,,,,,,,,,,,0,1,,,,,,,7,0,7,0,,,,,,,,,,,3993.1721,3993.6724,3993.9055,3999.1703,space,5.2541,,3999.1704,49,66,4000.1697,4000.1698,4000.1887,,,,0,11,11,11,1,25,140,,,,,,,,
,,6169c75c94f8d8dacf4fe265,001,2023-12-14_08h18.01.908,bars,2023.2.3,Win32,60.24096386,,,,,,4000.1891,4001.1695,,,4001.6697,4001.9025,,11,11,,,,,,,,,,,,,,,,bars/022.png,bars/mask008.png,,,,,,,,,,,,0,2,,,,,,,9,0,9,0,,,,,,,,,,,4001.1695,4001.6696,4001.9026,4023.5622,space,21.627,,4023.5623,84,9,4024.5615,4024.5616,4024.5814,,,,0,12,12,12,1,95,20,,,,,,,,
,,6169c75c94f8d8dacf4fe265,001,2023-12-14_08h18.01.908,bars,2023.2.3,Win32,60.24096386,,,,,,4024.5816,4025.5611,,,4026.0612,4026.2944,,90,90,,,,,,,,,,,,,,,,bars/037.png,bars/mask002.png,,,,,,,,,,,,1,2,,,,,,,10,0,10,2,,,,,,,,,,,4025.5611,4026.0611,4026.2945,4052.719,space,26.411,,4052.7192,60,15,4053.7187,4053.7187,4053.7386,,,,0,13,13,13,1,150,105,,,,,,,,
,,6169c75c94f8d8dacf4fe265,001,2023-12-14_08h18.01.908,bars,2023.2.3,Win32,60.24096386,,,,,,4053.739,4054.7185,,,4055.2179,4055.4514,,60,60,,,,,,,,,,,,,,,,bars/028.png,bars/mask005.png,,,,,,,,,,,,4,1,,,,,,,10,2,8,0,,,,,,,,,,,4054.7186,4055.2179,4055.4515,4059.9501,space,4.4792,,4059.9502,15,60,4060.9497,4060.9497,4060.9686,,,,0,14,14,14,1,45,120,,,,,,,,
,,6169c75c94f8d8dacf4fe265,001,2023-12-14_08h18.01.908,bars,2023.2.3,Win32,60.24096386,,,,,,4060.9691,4061.95,,,4062.4488,4062.682,,176,176,,,,,,,,,,,,,,,,bars/018.png,bars/mask004.png,,,,,,,,,,,,1,1,,,,,,,8,4,8,4,,,,,,,,,,,4061.95,4062.4487,4062.682,4070.1467,space,7.4302,,4070.1469,26,86,4071.1456,4071.1456,4071.1619,,,,0,15,15,15,1,150,90,,,,,,,,
,,6169c75c94f8d8dacf4fe265,001,2023-12-14_08h18.01.908,bars,2023.2.3,Win32,60.24096386,,,,,,4071.1623,4072.1451,,,4072.6457,4072.8787,,170,170,,,,,,,,,,,,,,,,bars/039.png,bars/mask002.png,,,,,,,,,,,,8,1,,,,,,,10,2,10,2,,,,,,,,,,,4072.1451,4072.6456,4072.8787,4077.1113,space,4.1969,,4077.1114,5,65,4078.1101,4078.1103,4078.1284,,,,0,16,16,16,1,175,105,,,,,,,,
,,6169c75c94f8d8dacf4fe265,001,2023-12-14_08h18.01.908,bars,2023.2.3,Win32,60.24096386,,,,,,4078.1287,4079.11,,,4079.6097,4079.843,,87,87,,,,,,,,,,,,,,,,bars/021.png,bars/mask003.png,,,,,,,,,,,,0,2,,,,,,,8,0,8,1,,,,,,,,,,,4079.1101,4079.6097,4079.8431,4080.5099,space,0.6339,,4080.51,68,17,4081.5092,4081.5093,4081.5121,,,,0,17,17,17,1,155,70,,,,,,,,
,,6169c75c94f8d8dacf4fe265,001,2023-12-14_08h18.01.908,bars,2023.2.3,Win32,60.24096386,,,,,,4081.5128,4082.509,,,4083.0088,4083.2417,,170,-10,,,,,,,,,,,,,,,,bars/002.png,bars/mask002.png,,,,,,,,,,,,0,1,,,,,,,6,0,5,0,,,,,,,,,,,4082.509,4083.0088,4083.2417,4089.207,space,5.9499,,4089.207,40,85,4090.2063,4090.2065,4090.2277,,,,0,18,18,18,1,130,85,,,,,,,,
,,6169c75c94f8d8dacf4fe265,001,2023-12-14_08h18.01.908,bars,2023.2.3,Win32,60.24096386,,,,,,4090.2281,4091.206,,,4091.7057,4091.9391,,165,165,,,,,,,,,,,,,,,,bars/000.png,bars/mask000.png,,,,,,,,,,,,0,2,,,,,,,8,0,9,0,,,,,,,,,,,4091.206,4091.7057,4091.9391,4103.5016,space,11.5288,,4103.5017,55,20,4104.5011,4104.5011,4104.5209,,,,0,19,19,19,1,40,145,,,,,,,,
,,6169c75c94f8d8dacf4fe265,001,2023-12-14_08h18.01.908,bars,2023.2.3,Win32,60.24096386,,,,,,4104.5213,4105.501,,,4106.0007,4106.2342,,1,1,,,,,,,,,,,,,,,,bars/008.png,bars/mask002.png,,,,,,,,,,,,1,2,,,,,,,6,2,5,1,,,,,,,,,,,4105.501,4106.0007,4106.2343,4110.4327,space,4.1676,,4110.4328,71,1,4111.4324,4111.4324,4111.4499,,,,0,20,20,20,1,110,0,,,,,,,,
,,6169c75c94f8d8dacf4fe265,001,2023-12-14_08h18.01.908,bars,2023.2.3,Win32,60.24096386,,,,,,4111.4506,4112.4321,,,4112.9318,4113.165,,16,16,,,,,,,,,,,,,,,,bars/028.png,bars/mask001.png,,,,,,,,,,,,0,1,,,,,,,4,0,4,0,,,,,,,,,,,4112.4322,4112.9317,4113.165,4116.231,space,3.0331,,4116.231,29,76,4117.2302,4117.2303,4117.2481,,,,0,21,21,21,1,45,120,,,,,,,,
,,6169c75c94f8d8dacf4fe265,001,2023-12-14_08h18.01.908,bars,2023.2.3,Win32,60.24096386,,,,,,4117.2484,4118.2298,,,4118.7301,4118.9632,,99,99,,,,,,,,,,,,,,,,bars/029.png,bars/mask000.png,,,,,,,,,,,,4,1,,,,,,,6,0,5,0,,,,,,,,,,,4118.2298,4118.73,4118.9633,4125.9276,space,6.9297,,4125.9276,9,54,4126.9269,4126.9269,4126.9444,,,,0,22,22,22,1,90,45,,,,,,,,
,,6169c75c94f8d8dacf4fe265,001,2023-12-14_08h18.01.908,bars,2023.2.3,Win32,60.24096386,,,,,,4126.9447,4127.9264,,,4128.4268,4128.6595,,166,166,,,,,,,,,,,,,,,,bars/040.png,bars/mask009.png,,,,,,,,,,,,0,2,,,,,,,4,0,4,0,,,,,,,,,,,4127.9265,4128.4268,4128.6595,4130.992,space,2.3,,4130.9921,26,19,4131.9917,4131.9917,4132.0084,,,,0,23,23,23,1,140,5,,,,,,,,
,,6169c75c94f8d8dacf4fe265,001,2023-12-14_08h18.01.908,bars,2023.2.3,Win32,60.24096386,,,,,,4132.0086,4132.9913,,,4133.491,4133.7244,,94,94,,,,,,,,,,,,,,,,bars/038.png,bars/mask008.png,,,,,,,,,,,,0,2,,,,,,,6,0,5,0,,,,,,,,,,,4132.9914,4133.491,4133.7244,4150.1189,space,16.3711,,4150.1189,71,24,4151.1187,4151.1187,4151.1346,,,,0,24,24,24,1,165,70,,,,,,,,
,,6169c75c94f8d8dacf4fe265,001,2023-12-14_08h18.01.908,bars,2023.2.3,Win32,60.24096386,,,,,,4151.1349,4152.1183,,,4152.6182,4152.8512,,98,98,,,,,,,,,,,,,,,,bars/038.png,bars/mask000.png,,,,,,,,,,,,0,2,,,,,,,8,2,7,2,,,,,,,,,,,4152.1183,4152.6182,4152.8513,4166.0852,space,13.2259,,4166.0853,67,28,4167.0805,4167.0805,4167.0994,,,,0,25,25,25,1,165,70,,,,,,,,
,,6169c75c94f8d8dacf4fe265,001,2023-12-14_08h18.01.908,bars,2023.2.3,Win32,60.24096386,,,,,,4167.0999,4168.0804,,,4168.5803,4168.813,,77,77,,,,,,,,,,,,,,,,bars/028.png,bars/mask008.png,,,,,,,,,,,,0,1,,,,,,,10,4,10,4,,,,,,,,,,,4168.0804,4168.5801,4168.8131,4175.3773,space,6.5449,,4175.3774,32,43,4176.377,4176.3771,4176.3976,,,,0,26,26,26,1,45,120,,,,,,,,
,,6169c75c94f8d8dacf4fe265,001,2023-12-14_08h18.01.908,bars,2023.2.3,Win32,60.24096386,,,,,,4176.3979,4177.3769,,,4177.8765,4178.1101,,82,82,,,,,,,,,,,,,,,,bars/021.png,bars/mask003.png,,,,,,,,,,,,5,2,,,,,,,10,6,9,8,,,,,,,,,,,4177.3769,4177.8765,4178.1101,4178.8104,space,0.6712,,4178.8104,73,12,4179.8089,4179.809,4179.8127,,,,0,27,27,27,1,155,70,,,,,,,,
,,6169c75c94f8d8dacf4fe265,001,2023-12-14_08h18.01.908,bars,2023.2.3,Win32,60.24096386,,,,,,4179.8138,4180.8088,,,4181.3088,4181.5418,,178,178,,,,,,,,,,,,,,,,bars/041.png,bars/mask009.png,,,,,,,,,,,,2,1,,,,,,,8,4,6,5,,,,,,,,,,,4180.8089,4181.3087,4181.5418,4182.3416,space,0.7762,,4182.3417,22,87,4183.3411,4183.3411,4183.3437,,,,0,28,28,28,1,20,85,,,,,,,,
,,6169c75c94f8d8dacf4fe265,001,2023-12-14_08h18.01.908,bars,2023.2.3,Win32,60.24096386,,,,,,4183.3445,4184.3408,,,4184.8408,4185.0741,,141,141,,,,,,,,,,,,,,,,bars/045.png,bars/mask005.png,,,,,,,,,,,,0,1,,,,,,,10,2,10,2,,,,,,,,,,,4184.3408,4184.8408,4185.0741,4187.1071,space,1.9997,,4187.1071,41,49,4188.1066,4188.1067,4188.1075,,,,0,29,29,29,1,100,10,,,,,,,,
,,6169c75c94f8d8dacf4fe265,001,2023-12-14_08h18.01.908,bars,2023.2.3,Win32,60.24096386,,,,,,4188.1081,4189.106,,,4189.6059,4189.8394,,155,155,,,,,,,,,,,,,,,,bars/031.png,bars/mask008.png,,,,,,,,,,,,0,1,,,,,,,10,0,10,0,,,,,,,,,,,4189.1061,4189.6058,4189.8394,4194.9709,space,5.0995,,4194.9709,35,60,4195.9705,4195.9705,4195.9896,,,,0,30,30,30,1,120,35,,,,,,,,
,,6169c75c94f8d8dacf4fe265,001,2023-12-14_08h18.01.908,bars,2023.2.3,Win32,60.24096386,,,,,,4195.99,4196.97,,,4197.4704,4197.703,,19,19,,,,,,,,,,,,,,,,bars/029.png,bars/mask009.png,,,,,,,,,,,,0,2,,,,,,,8,0,7,0,,,,,,,,,,,4196.9701,4197.4703,4197.7031,4198.2366,space,0.5119,,4198.2367,71,26,4199.2355,4199.2355,4199.2387,,,,0,31,31,31,1,90,45,,,,,,,,
,,6169c75c94f8d8dacf4fe265,001,2023-12-14_08h18.01.908,bars,2023.2.3,Win32,60.24096386,,,,,,4199.2395,4200.2355,,,4200.7353,4200.9688,,83,83,,,,,,,,,,,,,,,,bars/039.png,bars/mask007.png,,,,,,,,,,,,1,2,,,,,,,6,2,6,4,,,,,,,,,,,4200.2355,4200.7352,4200.9689,4205.8339,space,4.8502,,4205.834,88,22,4206.8335,4206.8335,4206.8509,,,,0,32,32,32,1,175,105,,,,,,,,
,,6169c75c94f8d8dacf4fe265,001,2023-12-14_08h18.01.908,bars,2023.2.3,Win32,60.24096386,,,,,,4206.8512,4207.8332,,,4208.3328,4208.566,,140,140,,,,,,,,,,,,,,,,bars/040.png,bars/mask005.png,,,,,,,,,,,,5,1,,,,,,,4,4,5,5,,,,,,,,,,,4207.8332,4208.3328,4208.566,4212.5653,space,3.9637,,4212.5653,0,45,4213.5643,4213.5643,4213.5807,,,,0,33,33,33,1,140,5,,,,,,,,
,,6169c75c94f8d8dacf4fe265,001,2023-12-14_08h18.01.908,bars,2023.2.3,Win32,60.24096386,,,,,,4213.581,4214.5639,,,4215.0636,4215.2971,,34,34,,,,,,,,,,,,,,,,bars/006.png,bars/mask005.png,,,,,,,,,,,,7,1,,,,,,,6,2,7,3,,,,,,,,,,,4214.5639,4215.0636,4215.2971,4226.827,space,11.5114,,4226.8271,1,66,4227.826,4227.826,4227.8454,,,,0,34,34,34,1,35,100,,,,,,,,
,,6169c75c94f8d8dacf4fe265,001,2023-12-14_08h18.01.908,bars,2023.2.3,Win32,60.24096386,,,,,,4227.8457,4228.826,,,4229.3258,4229.5591,,149,149,,,,,,,,,,,,,,,,bars/028.png,bars/mask008.png,,,,,,,,,,,,0,2,,,,,,,4,0,3,0,,,,,,,,,,,4228.8261,4229.3257,4229.5591,4235.6569,space,6.0626,,4235.657,76,29,4236.6567,4236.6567,4236.6763,,,,0,35,35,35,1,45,120,,,,,,,,
,,6169c75c94f8d8dacf4fe265,001,2023-12-14_08h18.01.908,bars,2023.2.3,Win32,60.24096386,,,,,,4236.6768,4237.6566,,,4238.1562,4238.3895,,25,25,,,,,,,,,,,,,,,,bars/004.png,bars/mask000.png,,,,,,,,,,,,6,1,,,,,,,6,0,6,1,,,,,,,,,,,4237.6566,4238.1562,4238.3895,4245.8207,space,7.3987,,4245.8208,0,80,4246.8201,4246.8201,4246.8397,,,,0,36,36,36,1,25,125,,,,,,,,
,,6169c75c94f8d8dacf4fe265,001,2023-12-14_08h18.01.908,bars,2023.2.3,Win32,60.24096386,,,,,,4246.8401,4247.8197,,,4248.3195,4248.5525,,74,74,,,,,,,,,,,,,,,,bars/015.png,bars/mask001.png,,,,,,,,,,,,0,1,,,,,,,4,2,3,4,,,,,,,,,,,4247.8197,4248.3194,4248.5525,4251.3521,space,2.7672,,4251.3522,36,86,4252.3509,4252.351,4252.366,,,,0,37,37,37,1,110,160,,,,,,,,
,,6169c75c94f8d8dacf4fe265,001,2023-12-14_08h18.01.908,bars,2023.2.3,Win32,60.24096386,,,,,,4252.3662,4253.3513,,,4253.8513,4254.0837,,49,49,,,,,,,,,,,,,,,,bars/030.png,bars/mask008.png,,,,,,,,,,,,2,2,,,,,,,2,4,2,4,,,,,,,,,,,4253.3514,4253.8513,4254.0837,4256.184,space,2.0773,,4256.184,89,16,4257.1832,4257.1832,4257.2016,,,,0,38,38,38,1,140,65,,,,,,,,
,,6169c75c94f8d8dacf4fe265,001,2023-12-14_08h18.01.908,bars,2023.2.3,Win32,60.24096386,,,,,,4257.2019,4258.1825,,,4258.682,4258.9154,,117,117,,,,,,,,,,,,,,,,bars/023.png,bars/mask004.png,,,,,,,,,,,,2,2,,,,,,,0,2,0,2,,,,,,,,,,,4258.1826,4258.682,4258.9154,4273.478,space,14.5332,,4273.4781,83,2,4274.4771,4274.4771,4274.4956,,,,0,39,39,39,1,20,115,,,,,,,,
,,6169c75c94f8d8dacf4fe265,001,2023-12-14_08h18.01.908,bars,2023.2.3,Win32,60.24096386,,,,,,4274.4958,4275.4767,,,4275.9764,4276.21,,89,89,,,,,,,,,,,,,,,,bars/024.png,bars/mask002.png,,,,,,,,,,,,0,1,,,,,,,2,4,3,5,,,,,,,,,,,4275.4767,4275.9764,4276.2101,4292.6379,space,16.3954,,4292.638,31,81,4293.6375,4293.6376,4293.6565,,,,0,40,40,40,1,120,170,,,,,,,,
,,6169c75c94f8d8dacf4fe265,001,2023-12-14_08h18.01.908,bars,2023.2.3,Win32,60.24096386,,,,,,4293.6568,4294.6372,,,4295.1373,4295.3701,,22,22,,,,,,,,,,,,,,,,bars/047.png,bars/mask008.png,,,,,,,,,,,,2,1,,,,,,,4,2,2,2,,,,,,,,,,,4294.6373,4295.1372,4295.3701,4296.6368,space,1.2466,,4296.6369,7,48,4297.636,4297.636,4297.6372,,,,0,41,41,41,1,15,70,,,,,,,,
,,6169c75c94f8d8dacf4fe265,001,2023-12-14_08h18.01.908,bars,2023.2.3,Win32,60.24096386,,,,,,4297.6377,4298.6358,,,4299.1353,4299.3691,,159,159,,,,,,,,,,,,,,,,bars/020.png,bars/mask006.png,,,,,,,,,,,,0,2,,,,,,,6,0,5,0,,,,,,,,,,,4298.6359,4299.1352,4299.3692,4307.7664,space,8.3814,,4307.7665,44,11,4308.7657,4308.7657,4308.7873,,,,0,42,42,42,1,115,170,,,,,,,,
,,6169c75c94f8d8dacf4fe265,001,2023-12-14_08h18.01.908,bars,2023.2.3,Win32,60.24096386,,,,,,4308.7875,4309.7655,,,4310.2655,4310.4987,,144,144,,,,,,,,,,,,,,,,bars/045.png,bars/mask009.png,,,,,,,,,,,,0,1,,,,,,,8,0,8,0,,,,,,,,,,,4309.7656,4310.2653,4310.4987,4315.5311,space,5.0108,,4315.5312,44,46,4316.5296,4316.5296,4316.5443,,,,0,43,43,43,1,100,10,,,,,,,,
,,6169c75c94f8d8dacf4fe265,001,2023-12-14_08h18.01.908,bars,2023.2.3,Win32,60.24096386,,,,,,4316.5445,4317.5292,,,4318.0295,4318.2625,,177,-3,,,,,,,,,,,,,,,,bars/043.png,bars/mask007.png,,,,,,,,,,,,0,1,,,,,,,6,0,7,0,,,,,,,,,,,4317.5292,4318.0294,4318.2626,4320.9951,space,2.7024,,4320.9952,33,47,4321.9946,4321.9947,4322.0123,,,,0,44,44,44,1,30,130,,,,,,,,
,,6169c75c94f8d8dacf4fe265,001,2023-12-14_08h18.01.908,bars,2023.2.3,Win32,60.24096386,,,,,,4322.0126,4322.9941,,,4323.4941,4323.7272,,16,16,,,,,,,,,,,,,,,,bars/041.png,bars/mask001.png,,,,,,,,,,,,8,1,,,,,,,8,0,9,0,,,,,,,,,,,4322.9941,4323.494,4323.7273,4326.8598,space,3.1218,,4326.8598,4,69,4327.8592,4327.8592,4327.8799,,,,0,45,45,45,1,20,85,,,,,,,,
,,6169c75c94f8d8dacf4fe265,001,2023-12-14_08h18.01.908,bars,2023.2.3,Win32,60.24096386,,,,,,4327.8803,4328.8584,,,4329.3587,4329.5918,,86,86,,,,,,,,,,,,,,,,bars/039.png,bars/mask001.png,,,,,,,,,,,,1,2,,,,,,,10,2,8,2,,,,,,,,,,,4328.8585,4329.3586,4329.5918,4333.1906,space,3.5761,,4333.1906,89,19,4334.1902,4334.1902,4334.203,,,,0,46,46,46,1,175,105,,,,,,,,
