init_variables.started,init_variables.stopped,participant,session,date,expName,psychopyVersion,OS,frameRate,instruction_single.started,instruction_single.stopped,key_resp_2.keys,key_resp_2.rt,key_resp_2.duration,interval.started,interval.stopped,cue_single.started,cue_single.stopped,mask.started,mask.stopped,ori_response_single.started,res_ori,res,ori_response_single.stopped,key_resp_single.keys,key_resp_single.rt,key_resp_single.duration,disp_single.started,disp_single.stopped,key_resp.keys,key_resp.rt,key_resp.duration,single.thisRepN,single.thisTrialN,single.thisN,single.thisIndex,single.ran,ori,path,mask_path,instruction_bandit.started,instruction_bandit.stopped,key_resp_6.keys,key_resp_6.rt,key_resp_6.duration,cue_bandit.started,cue_bandit.stopped,bandit_res.keys,bandit_res.rt,bandit_res.duration,outcome_bandit.started,rew,action,outcome_bandit.stopped,bandit.thisRepN,bandit.thisTrialN,bandit.thisN,bandit.thisIndex,bandit.ran,actual_rew1,actual_rew2,rew1,rew2,instruction_task.started,instruction_task.stopped,key_resp_7.keys,key_resp_7.rt,key_resp_7.duration,wait_ready.started,wait_ready.stopped,key_resp_3.keys,key_resp_3.rt,key_resp_3.duration,cue.started,cue.stopped,ori_response.started,ori_response.stopped,key_resp_5.keys,key_resp_5.rt,key_resp_5.duration,outcome.started,diff1,diff2,outcome.stopped,disp_outcome_practice.started,disp_outcome_practice.stopped,key_resp_4.keys,key_resp_4.rt,key_resp_4.duration,trials.thisRepN,trials.thisTrialN,trials.thisN,trials.thisIndex,trials.ran,ori1,ori2,break_blk.started,break_blk.stopped,block.thisRepN,block.thisTrialN,block.thisN,block.thisIndex,block.ran,condition_file
0.0003,0.0003,,001,2023-12-14_08h15.28.439,bars,2023.2.3,Win32,59.88023952,,,,,,,,,,,,,,,,,,,,,,,,,,,,,,,,,,,,,,,,,,,,,,,,,,,,,,,,,,,,,,,,,,,,,,,,,,,,,,,,,,,,,,,,,,,,,,,
,,,001,2023-12-14_08h15.28.439,bars,2023.2.3,Win32,59.88023952,0.0005,97.1735,space,97.148,,,,,,,,,,,,,,,,,,,,,,,,,,,,,,,,,,,,,,,,,,,,,,,,,,,,,,,,,,,,,,,,,,,,,,,,,,,,,,,,,,,,,,,,,,,
,,,001,2023-12-14_08h15.28.439,bars,2023.2.3,Win32,59.88023952,,,,,,97.1768,98.1805,98.1808,98.6804,98.6806,98.9306,98.9309,90,90,111.548,space,12.5748,,111.5484,130.7481,space,19.1577,,0,0,0,7,1,45,bars/single007.png,bars/mask009.png,,,,,,,,,,,,,,,,,,,,,,,,,,,,,,,,,,,,,,,,,,,,,,,,,,,,,,,,,,,,,,,,
,,,001,2023-12-14_08h15.28.439,bars,2023.2.3,Win32,59.88023952,,,,,,130.7694,131.7631,131.7632,132.2633,132.2633,132.5133,132.5133,36,36,143.1136,space,10.583,,143.1138,147.3635,space,4.2143,,0,1,1,4,1,95,bars/single004.png,bars/mask004.png,,,,,,,,,,,,,,,,,,,,,,,,,,,,,,,,,,,,,,,,,,,,,,,,,,,,,,,,,,,,,,,,
,,,001,2023-12-14_08h15.28.439,bars,2023.2.3,Win32,59.88023952,,,,,,147.3838,148.38,148.38,148.88,148.8802,149.1301,149.1301,104,104,155.9134,space,6.764,,155.9135,161.6966,space,5.7487,,0,2,2,6,1,175,bars/single006.png,bars/mask005.png,,,,,,,,,,,,,,,,,,,,,,,,,,,,,,,,,,,,,,,,,,,,,,,,,,,,,,,,,,,,,,,,
,,,001,2023-12-14_08h15.28.439,bars,2023.2.3,Win32,59.88023952,,,,,,161.7089,162.6965,162.6966,163.196,163.196,163.4468,163.4468,15,195,171.9635,space,8.4977,,171.9636,175.3136,space,3.3294,,0,3,3,5,1,55,bars/single005.png,bars/mask008.png,,,,,,,,,,,,,,,,,,,,,,,,,,,,,,,,,,,,,,,,,,,,,,,,,,,,,,,,,,,,,,,,
,,,001,2023-12-14_08h15.28.439,bars,2023.2.3,Win32,59.88023952,,,,,,175.3337,176.33,176.3301,176.8299,176.8299,177.0801,177.0801,48,48,183.8798,space,6.78,,183.8798,188.5635,space,4.6613,,0,4,4,1,1,20,bars/single001.png,bars/mask006.png,,,,,,,,,,,,,,,,,,,,,,,,,,,,,,,,,,,,,,,,,,,,,,,,,,,,,,,,,,,,,,,,
,,,001,2023-12-14_08h15.28.439,bars,2023.2.3,Win32,59.88023952,,,,,,188.5858,189.58,189.58,190.0797,190.0798,190.33,190.33,20,200,197.2969,space,6.9517,,197.2971,203.0968,space,5.7669,,0,5,5,9,1,20,bars/single009.png,bars/mask006.png,,,,,,,,,,,,,,,,,,,,,,,,,,,,,,,,,,,,,,,,,,,,,,,,,,,,,,,,,,,,,,,,
,,,001,2023-12-14_08h15.28.439,bars,2023.2.3,Win32,59.88023952,,,,,,203.1061,204.0966,204.0967,204.5967,204.5967,204.8467,204.8468,21,201,211.5299,space,6.6644,,211.53,215.4801,space,3.9203,,0,6,6,3,1,20,bars/single003.png,bars/mask005.png,,,,,,,,,,,,,,,,,,,,,,,,,,,,,,,,,,,,,,,,,,,,,,,,,,,,,,,,,,,,,,,,
,,,001,2023-12-14_08h15.28.439,bars,2023.2.3,Win32,59.88023952,,,,,,215.4896,216.4801,216.4801,216.9802,216.9802,217.23,217.2301,23,203,221.097,space,3.8498,,221.097,226.7635,space,5.6303,,0,7,7,0,1,150,bars/single000.png,bars/mask006.png,,,,,,,,,,,,,,,,,,,,,,,,,,,,,,,,,,,,,,,,,,,,,,,,,,,,,,,,,,,,,,,,
,,,001,2023-12-14_08h15.28.439,bars,2023.2.3,Win32,59.88023952,,,,,,226.7728,227.7633,227.7634,228.2633,228.2634,228.513,228.5131,144,144,235.28,space,6.7532,,235.28,238.9468,space,3.6334,,0,8,8,8,1,160,bars/single008.png,bars/mask004.png,,,,,,,,,,,,,,,,,,,,,,,,,,,,,,,,,,,,,,,,,,,,,,,,,,,,,,,,,,,,,,,,
,,,001,2023-12-14_08h15.28.439,bars,2023.2.3,Win32,59.88023952,,,,,,238.9474,239.9461,239.9462,240.4466,240.4467,240.6966,240.6967,153,-27,246.5467,space,5.8333,,246.5468,249.8301,space,3.2668,,0,9,9,2,1,145,bars/single002.png,bars/mask003.png,,,,,,,,,,,,,,,,,,,,,,,,,,,,,,,,,,,,,,,,,,,,,,,,,,,,,,,,,,,,,,,,
,,,001,2023-12-14_08h15.28.439,bars,2023.2.3,Win32,59.88023952,,,,,,,,,,,,,,,,,,,,,,,,,,,,,,,,249.8522,266.8632,space,16.9926,,,,,,,,,,,,,,,,,,,,,,,,,,,,,,,,,,,,,,,,,,,,,,,,,,,,,,,,,,,,
,,,001,2023-12-14_08h15.28.439,bars,2023.2.3,Win32,59.88023952,,,,,,,,,,,,,,,,,,,,,,,,,,,,,,,,,,,,,266.8729,270.9972,right,4.1111,,270.9975,2,2,271.9969,0,0,0,0,1,9,1,9,2,,,,,,,,,,,,,,,,,,,,,,,,,,,,,,,,,,,,,,,,,
,,,001,2023-12-14_08h15.28.439,bars,2023.2.3,Win32,59.88023952,,,,,,,,,,,,,,,,,,,,,,,,,,,,,,,,,,,,,271.9977,277.9302,left,5.9146,,277.9302,10,1,278.9301,0,1,1,1,1,10,0,10,1,,,,,,,,,,,,,,,,,,,,,,,,,,,,,,,,,,,,,,,,,
,,,001,2023-12-14_08h15.28.439,bars,2023.2.3,Win32,59.88023952,,,,,,,,,,,,,,,,,,,,,,,,,,,,,,,,,,,,,278.9403,281.0802,left,2.1276,,281.0803,10,1,282.0799,0,2,2,2,1,10,2,10,2,,,,,,,,,,,,,,,,,,,,,,,,,,,,,,,,,,,,,,,,,
,,,001,2023-12-14_08h15.28.439,bars,2023.2.3,Win32,59.88023952,,,,,,,,,,,,,,,,,,,,,,,,,,,,,,,,,,,,,282.0806,284.1302,left,2.0317,,284.1302,7,1,285.13,0,3,3,3,1,8,4,7,3,,,,,,,,,,,,,,,,,,,,,,,,,,,,,,,,,,,,,,,,,
,,,001,2023-12-14_08h15.28.439,bars,2023.2.3,Win32,59.88023952,,,,,,,,,,,,,,,,,,,,,,,,,,,,,,,,,,,,,285.1401,287.0802,left,1.9303,,287.0803,5,1,288.08,0,4,4,4,1,6,2,5,1,,,,,,,,,,,,,,,,,,,,,,,,,,,,,,,,,,,,,,,,,
,,,001,2023-12-14_08h15.28.439,bars,2023.2.3,Win32,59.88023952,,,,,,,,,,,,,,,,,,,,,,,,,,,,,,,,,,,,,288.0806,289.697,left,1.5986,,289.6971,4,1,290.6967,0,5,5,5,1,4,4,4,4,,,,,,,,,,,,,,,,,,,,,,,,,,,,,,,,,,,,,,,,,
,,,001,2023-12-14_08h15.28.439,bars,2023.2.3,Win32,59.88023952,,,,,,,,,,,,,,,,,,,,,,,,,,,,,,,,,,,,,290.6972,291.8803,right,1.1651,,291.8804,2,2,292.88,0,6,6,6,1,2,2,1,2,,,,,,,,,,,,,,,,,,,,,,,,,,,,,,,,,,,,,,,,,
,,,001,2023-12-14_08h15.28.439,bars,2023.2.3,Win32,59.88023952,,,,,,,,,,,,,,,,,,,,,,,,,,,,,,,,,,,,,292.8805,293.6964,left,0.8022,,293.6965,0,1,294.6966,0,7,7,7,1,0,0,0,1,,,,,,,,,,,,,,,,,,,,,,,,,,,,,,,,,,,,,,,,,
,,,001,2023-12-14_08h15.28.439,bars,2023.2.3,Win32,59.88023952,,,,,,,,,,,,,,,,,,,,,,,,,,,,,,,,,,,,,294.6972,295.7965,left,1.088,,295.7965,1,1,296.7968,0,8,8,8,1,0,2,1,0,,,,,,,,,,,,,,,,,,,,,,,,,,,,,,,,,,,,,,,,,
,,,001,2023-12-14_08h15.28.439,bars,2023.2.3,Win32,59.88023952,,,,,,,,,,,,,,,,,,,,,,,,,,,,,,,,,,,,,296.7972,297.5303,left,0.7171,,297.5303,2,1,298.53,0,9,9,9,1,2,4,2,3,,,,,,,,,,,,,,,,,,,,,,,,,,,,,,,,,,,,,,,,,
,,,001,2023-12-14_08h15.28.439,bars,2023.2.3,Win32,59.88023952,,,,,,,,,,,,,,,,,,,,,,,,,,,,,,,,,,,,,298.5306,299.3468,right,0.7985,,299.3468,3,2,300.3463,0,10,10,10,1,0,2,0,3,,,,,,,,,,,,,,,,,,,,,,,,,,,,,,,,,,,,,,,,,
,,,001,2023-12-14_08h15.28.439,bars,2023.2.3,Win32,59.88023952,,,,,,,,,,,,,,,,,,,,,,,,,,,,,,,,,,,,,300.3469,301.4634,right,1.0991,,301.4635,3,2,302.4632,0,11,11,11,1,0,4,0,3,,,,,,,,,,,,,,,,,,,,,,,,,,,,,,,,,,,,,,,,,
,,,001,2023-12-14_08h15.28.439,bars,2023.2.3,Win32,59.88023952,,,,,,,,,,,,,,,,,,,,,,,,,,,,,,,,,,,,,302.4637,303.5469,left,1.0674,,303.5469,1,1,304.5466,0,12,12,12,1,2,6,1,6,,,,,,,,,,,,,,,,,,,,,,,,,,,,,,,,,,,,,,,,,
,,,001,2023-12-14_08h15.28.439,bars,2023.2.3,Win32,59.88023952,,,,,,,,,,,,,,,,,,,,,,,,,,,,,,,,,,,,,304.5472,305.3635,left,0.7984,,305.3635,1,1,306.3632,0,13,13,13,1,0,4,1,3,,,,,,,,,,,,,,,,,,,,,,,,,,,,,,,,,,,,,,,,,
,,,001,2023-12-14_08h15.28.439,bars,2023.2.3,Win32,59.88023952,,,,,,,,,,,,,,,,,,,,,,,,,,,,,,,,,,,,,306.3638,309.1635,left,2.7813,,309.1635,2,1,310.163,0,14,14,14,1,2,6,2,7,,,,,,,,,,,,,,,,,,,,,,,,,,,,,,,,,,,,,,,,,
,,,001,2023-12-14_08h15.28.439,bars,2023.2.3,Win32,59.88023952,,,,,,,,,,,,,,,,,,,,,,,,,,,,,,,,,,,,,310.1729,310.6802,left,0.4952,,310.6803,3,1,311.6797,0,15,15,15,1,4,8,3,9,,,,,,,,,,,,,,,,,,,,,,,,,,,,,,,,,,,,,,,,,
,,,001,2023-12-14_08h15.28.439,bars,2023.2.3,Win32,59.88023952,,,,,,,,,,,,,,,,,,,,,,,,,,,,,,,,,,,,,311.6801,312.7136,left,1.0201,,312.7137,7,1,313.7131,0,16,16,16,1,6,6,7,7,,,,,,,,,,,,,,,,,,,,,,,,,,,,,,,,,,,,,,,,,
,,,001,2023-12-14_08h15.28.439,bars,2023.2.3,Win32,59.88023952,,,,,,,,,,,,,,,,,,,,,,,,,,,,,,,,,,,,,313.7137,315.0467,left,1.3159,,315.0468,9,1,316.0466,0,17,17,17,1,8,4,9,5,,,,,,,,,,,,,,,,,,,,,,,,,,,,,,,,,,,,,,,,,
,,,001,2023-12-14_08h15.28.439,bars,2023.2.3,Win32,59.88023952,,,,,,,,,,,,,,,,,,,,,,,,,,,,,,,,,,,,,316.0472,316.6969,left,0.6354,,316.697,5,1,317.6966,0,18,18,18,1,6,2,5,1,,,,,,,,,,,,,,,,,,,,,,,,,,,,,,,,,,,,,,,,,
,,,001,2023-12-14_08h15.28.439,bars,2023.2.3,Win32,59.88023952,,,,,,,,,,,,,,,,,,,,,,,,,,,,,,,,,,,,,317.6971,318.3796,left,0.6717,,318.3797,7,1,319.3799,0,19,19,19,1,8,0,7,0,,,,,,,,,,,,,,,,,,,,,,,,,,,,,,,,,,,,,,,,,
,,,001,2023-12-14_08h15.28.439,bars,2023.2.3,Win32,59.88023952,,,,,,,,,,,,,,,,,,,,,,,,,,,,,,,,,,,,,,,,,,,,,,,,,,,,,,,319.3811,343.5645,space,24.1638,,,,,,,,,,,,,,,,,,,,,,,,,,,,,,,,,,,,,
,,,001,2023-12-14_08h15.28.439,bars,2023.2.3,Win32,59.88023952,,,,,,345.0559,346.0466,,,346.547,346.7967,,23,23,,,,,,,,,,,,,,,,bars/048.png,bars/mask008.png,,,,,,,,,,,,0,1,,,,,,,5,9,5,7,,,,,,343.5873,345.0471,space,1.4492,,346.047,346.5469,346.7971,353.7143,space,6.9005,,353.7149,27,28,354.7135,354.7139,363.8646,space,9.1186,,0,0,0,0,1,50,175,,,,,,,,
,,,001,2023-12-14_08h15.28.439,bars,2023.2.3,Win32,59.88023952,,,,,,363.8738,364.8633,,,365.3634,365.613,,158,-22,,,,,,,,,,,,,,,,bars/035.png,bars/mask003.png,,,,,,,,,,,,4,1,,,,,,,7,7,10,5,,,,,,,,,,,364.8634,365.3633,365.6131,370.5135,space,4.885,,370.5136,17,82,371.5132,371.5133,375.2801,space,3.7476,,0,1,1,1,1,175,60,,,,,,,,
,,,001,2023-12-14_08h15.28.439,bars,2023.2.3,Win32,59.88023952,,,,,,375.3014,376.2967,,,376.7964,377.0462,,172,172,,,,,,,,,,,,,,,,bars/018.png,bars/mask001.png,,,,,,,,,,,,2,1,,,,,,,5,5,6,3,,,,,,,,,,,376.2967,376.7963,377.0463,379.8969,space,2.8375,,379.8971,22,82,380.8965,380.8965,387.4969,space,6.564,,0,2,2,2,1,150,90,,,,,,,,
,,,001,2023-12-14_08h15.28.439,bars,2023.2.3,Win32,59.88023952,,,,,,387.5069,388.4967,,,388.9967,389.2466,,152,152,,,,,,,,,,,,,,,,bars/031.png,bars/mask008.png,,,,,,,,,,,,0,1,,,,,,,7,3,6,6,,,,,,,,,,,388.4967,388.9966,389.2467,393.1301,space,3.8686,,393.1302,32,63,394.1301,394.1302,396.4136,space,2.2656,,0,3,3,3,1,120,35,,,,,,,,
,,,001,2023-12-14_08h15.28.439,bars,2023.2.3,Win32,59.88023952,,,,,,396.4143,397.4132,,,397.9134,398.1633,,29,29,,,,,,,,,,,,,,,,bars/040.png,bars/mask007.png,,,,,,,,,,,,1,2,,,,,,,9,5,9,6,,,,,,,,,,,397.4133,397.9133,398.1634,404.1635,space,5.981,,404.1635,69,24,405.1632,405.1633,408.1636,space,2.9752,,0,4,4,4,1,140,5,,,,,,,,
,,,001,2023-12-14_08h15.28.439,bars,2023.2.3,Win32,59.88023952,,,,,,408.1733,409.1633,,,409.6632,409.9129,,133,133,,,,,,,,,,,,,,,,bars/005.png,bars/mask005.png,,,,,,,,,,,,5,2,,,,,,,10,7,9,6,,,,,,,,,,,409.1633,409.6631,409.9129,413.3302,space,3.4012,,413.3303,57,7,414.33,414.33,417.7303,space,3.3768,,0,5,5,5,1,10,140,,,,,,,,
,,,001,2023-12-14_08h15.28.439,bars,2023.2.3,Win32,59.88023952,,,,,,417.7308,418.73,,,419.2302,419.4799,,13,193,,,,,,,,,,,,,,,,bars/019.png,bars/mask004.png,,,,,,,,,,,,0,1,,,,,,,8,5,7,4,,,,,,,,,,,418.7301,419.2301,419.48,422.5633,space,3.0733,,422.5634,32,88,423.5632,423.5633,426.9471,space,3.3591,,0,6,6,6,1,45,105,,,,,,,,
,,,001,2023-12-14_08h15.28.439,bars,2023.2.3,Win32,59.88023952,,,,,,426.9568,427.9465,,,428.4467,428.6968,,110,110,,,,,,,,,,,,,,,,bars/040.png,bars/mask007.png,,,,,,,,,,,,0,1,,,,,,,6,7,6,8,,,,,,,,,,,427.9466,428.4467,428.6968,430.6968,space,1.9843,,430.6969,30,75,431.6959,431.6959,433.447,space,1.7385,,0,7,7,7,1,140,5,,,,,,,,
,,,001,2023-12-14_08h15.28.439,bars,2023.2.3,Win32,59.88023952,,,,,,433.4475,434.4465,,,434.9467,435.1967,,139,139,,,,,,,,,,,,,,,,bars/007.png,bars/mask009.png,,,,,,,,,,,,0,1,,,,,,,8,5,9,6,,,,,,,,,,,434.4466,434.9466,435.1967,440.1802,space,4.9648,,440.1803,36,84,441.18,441.18,444.3635,space,3.1601,,0,8,8,8,1,175,55,,,,,,,,
,,,001,2023-12-14_08h15.28.439,bars,2023.2.3,Win32,59.88023952,,,,,,444.3833,445.38,,,445.88,446.13,,164,-16,,,,,,,,,,,,,,,,bars/035.png,bars/mask002.png,,,,,,,,,,,,6,1,,,,,,,10,7,10,8,,,,,,,,,,,445.3801,445.8799,446.13,450.4301,space,4.2869,,450.4301,11,76,451.4299,451.43,452.8468,space,1.3935,,0,9,9,9,1,175,60,,,,,,,,
,,,001,2023-12-14_08h15.28.439,bars,2023.2.3,Win32,59.88023952,,,,,,452.8474,453.8467,,,454.3467,454.5966,,165,-15,,,,,,,,,,,,,,,,bars/016.png,bars/mask000.png,,,,,,,,,,,,9,2,,,,,,,8,9,8,9,,,,,,,,,,,453.8467,454.3467,454.5967,459.8301,space,5.2215,,459.8302,55,0,460.83,460.83,466.3133,space,5.449,,0,10,10,10,1,40,165,,,,,,,,
,,,001,2023-12-14_08h15.28.439,bars,2023.2.3,Win32,59.88023952,,,,,,466.3361,467.3296,,,467.8301,468.0796,,63,63,,,,,,,,,,,,,,,,bars/038.png,bars/mask008.png,,,,,,,,,,,,8,2,,,,,,,6,10,5,10,,,,,,,,,,,467.3296,467.83,468.0796,472.0469,space,3.9507,,472.0471,78,7,473.0463,473.0464,476.2463,space,3.1673,,0,11,11,11,1,165,70,,,,,,,,
,,,001,2023-12-14_08h15.28.439,bars,2023.2.3,Win32,59.88023952,,,,,,476.2537,477.2466,,,477.7465,477.9966,,71,71,,,,,,,,,,,,,,,,bars/040.png,bars/mask004.png,,,,,,,,,,,,0,2,,,,,,,8,10,10,8,,,,,,,,,,,477.2467,477.7465,477.9966,481.7626,space,3.7563,,481.7626,69,66,482.7632,482.7633,484.2134,space,1.4322,,0,12,12,12,1,140,5,,,,,,,,
,,,001,2023-12-14_08h15.28.439,bars,2023.2.3,Win32,59.88023952,,,,,,484.2139,485.2132,,,485.7133,485.9628,,147,147,,,,,,,,,,,,,,,,bars/046.png,bars/mask008.png,,,,,,,,,,,,7,1,,,,,,,10,10,10,8,,,,,,,,,,,485.2132,485.7132,485.9628,489.4135,space,3.4361,,489.4135,8,62,490.413,490.413,492.6301,space,2.1848,,0,13,13,13,1,155,85,,,,,,,,
,,,001,2023-12-14_08h15.28.439,bars,2023.2.3,Win32,59.88023952,,,,,,492.6307,493.63,,,494.1302,494.3801,,70,-110,,,,,,,,,,,,,,,,bars/041.png,bars/mask000.png,,,,,,,,,,,,4,2,,,,,,,8,8,7,8,,,,,,,,,,,493.6301,494.1301,494.3801,500.1801,space,5.7822,,500.1802,50,15,501.1799,501.18,502.9797,space,1.7829,,0,14,14,14,1,20,85,,,,,,,,
,,,001,2023-12-14_08h15.28.439,bars,2023.2.3,Win32,59.88023952,,,,,,502.9802,503.9799,,,504.4801,504.7295,,26,26,,,,,,,,,,,,,,,,bars/000.png,bars/mask009.png,,,,,,,,,,,,4,1,,,,,,,6,6,7,6,,,,,,,,,,,503.9799,504.4799,504.7295,508.5631,space,3.8179,,508.5632,14,61,509.5628,509.5628,516.3301,space,6.7432,,0,15,15,15,1,40,145,,,,,,,,
,,,001,2023-12-14_08h15.28.439,bars,2023.2.3,Win32,59.88023952,,,,,,516.3526,517.3466,,,517.8465,518.0966,,137,137,,,,,,,,,,,,,,,,bars/034.png,bars/mask007.png,,,,,,,,,,,,4,1,,,,,,,8,4,7,2,,,,,,,,,,,517.3467,517.8465,518.0966,521.3633,space,3.2559,,521.3634,12,72,522.3632,522.3632,525.9627,space,3.5841,,0,16,16,16,1,125,65,,,,,,,,
,,,001,2023-12-14_08h15.28.439,bars,2023.2.3,Win32,59.88023952,,,,,,525.9631,526.9633,,,527.4632,527.7129,,136,136,,,,,,,,,,,,,,,,bars/007.png,bars/mask004.png,,,,,,,,,,,,0,1,,,,,,,10,2,9,2,,,,,,,,,,,526.9634,527.4632,527.713,533.08,space,5.3514,,533.0801,39,81,534.0799,534.0799,536.4635,space,2.3469,,0,17,17,17,1,175,55,,,,,,,,
,,,001,2023-12-14_08h15.28.439,bars,2023.2.3,Win32,59.88023952,,,,,,536.4642,537.4633,,,537.9632,538.2132,,50,50,,,,,,,,,,,,,,,,bars/035.png,bars/mask009.png,,,,,,,,,,,,0,2,,,,,,,8,0,6,0,,,,,,,,,,,537.4633,537.9632,538.2133,541.2467,space,3.0202,,541.2468,55,10,542.2466,542.2467,543.1965,space,0.9224,,0,18,18,18,1,175,60,,,,,,,,
,,,001,2023-12-14_08h15.28.439,bars,2023.2.3,Win32,59.88023952,,,,,,543.197,544.1966,,,544.6966,544.9464,,73,253,,,,,,,,,,,,,,,,bars/006.png,bars/mask005.png,,,,,,,,,,,,0,2,,,,,,,10,0,10,2,,,,,,,,,,,544.1967,544.6966,544.9465,548.9792,space,4.0211,,548.9793,38,27,549.9792,549.9792,552.6297,space,2.6278,,0,19,19,19,1,35,100,,,,,,,,
,,,001,2023-12-14_08h15.28.439,bars,2023.2.3,Win32,59.88023952,,,,,,552.6401,553.6295,,,554.13,554.3799,,30,30,,,,,,,,,,,,,,,,bars/048.png,bars/mask001.png,,,,,,,,,,,,3,1,,,,,,,10,0,10,0,,,,,,,,,,,553.6295,554.1298,554.3799,561.1129,space,6.7172,,561.1129,20,35,562.1132,562.1133,566.2793,space,4.1283,,0,20,20,20,1,50,175,,,,,,,,
,,,001,2023-12-14_08h15.28.439,bars,2023.2.3,Win32,59.88023952,,,,,,566.2877,567.2792,,,567.7795,568.0292,,59,59,,,,,,,,,,,,,,,,bars/006.png,bars/mask003.png,,,,,,,,,,,,1,1,,,,,,,8,0,5,0,,,,,,,,,,,567.2792,567.7795,568.0292,571.3459,space,3.3025,,571.3459,24,41,572.3466,572.3466,573.896,space,1.5126,,0,21,21,21,1,35,100,,,,,,,,
,,,001,2023-12-14_08h15.28.439,bars,2023.2.3,Win32,59.88023952,,,,,,573.8964,574.8965,,,575.3968,575.6459,,104,104,,,,,,,,,,,,,,,,bars/034.png,bars/mask001.png,,,,,,,,,,,,3,1,,,,,,,10,0,9,0,,,,,,,,,,,574.8966,575.3968,575.6459,578.7968,space,3.1363,,578.7969,21,39,579.7964,579.7966,582.28,space,2.4609,,0,22,22,22,1,125,65,,,,,,,,
,,,001,2023-12-14_08h15.28.439,bars,2023.2.3,Win32,59.88023952,,,,,,582.302,583.2966,,,583.7965,584.0466,,128,128,,,,,,,,,,,,,,,,bars/030.png,bars/mask007.png,,,,,,,,,,,,5,1,,,,,,,10,2,9,1,,,,,,,,,,,583.2966,583.7965,584.0467,588.7966,space,4.733,,588.7967,12,63,589.7965,589.7965,591.1467,space,1.3265,,0,23,23,23,1,140,65,,,,,,,,
,,,001,2023-12-14_08h15.28.439,bars,2023.2.3,Win32,59.88023952,,,,,,591.1472,592.1463,,,592.6467,592.8966,,150,150,,,,,,,,,,,,,,,,bars/001.png,bars/mask001.png,,,,,,,,,,,,3,1,,,,,,,8,0,8,0,,,,,,,,,,,592.1463,592.6467,592.8967,595.363,space,2.4558,,595.363,20,65,596.3631,596.3632,597.8634,space,1.4646,,0,24,24,24,1,130,85,,,,,,,,
,,,001,2023-12-14_08h15.28.439,bars,2023.2.3,Win32,59.88023952,,,,,,597.8639,598.8631,,,599.3632,599.6132,,66,66,,,,,,,,,,,,,,,,bars/034.png,bars/mask009.png,,,,,,,,,,,,0,2,,,,,,,6,0,4,0,,,,,,,,,,,598.8631,599.3632,599.6132,602.1462,space,2.5173,,602.1463,59,1,603.1465,603.1466,604.93,space,1.7588,,0,25,25,25,1,125,65,,,,,,,,
,,,001,2023-12-14_08h15.28.439,bars,2023.2.3,Win32,59.88023952,,,,,,604.9306,605.93,,,606.4299,606.68,,63,63,,,,,,,,,,,,,,,,bars/004.png,bars/mask003.png,,,,,,,,,,,,0,1,,,,,,,4,2,3,1,,,,,,,,,,,605.93,606.4299,606.68,608.3134,space,1.6174,,608.3134,38,62,609.3129,609.313,610.8469,space,1.5195,,0,26,26,26,1,25,125,,,,,,,,
,,,001,2023-12-14_08h15.28.439,bars,2023.2.3,Win32,59.88023952,,,,,,610.8475,611.8465,,,612.3467,612.5966,,125,-55,,,,,,,,,,,,,,,,bars/039.png,bars/mask006.png,,,,,,,,,,,,0,2,,,,,,,2,0,2,0,,,,,,,,,,,611.8466,612.3466,612.5967,616.3468,space,3.7339,,616.3469,50,20,617.3464,617.3465,618.7135,space,1.3293,,0,27,27,27,1,175,105,,,,,,,,
,,,001,2023-12-14_08h15.28.439,bars,2023.2.3,Win32,59.88023952,,,,,,618.7142,619.7131,,,620.2132,620.4633,,117,117,,,,,,,,,,,,,,,,bars/023.png,bars/mask000.png,,,,,,,,,,,,1,2,,,,,,,0,2,1,1,,,,,,,,,,,619.7132,620.2132,620.4633,624.9966,space,4.5196,,624.9967,83,2,625.9961,625.9961,627.0133,space,1.0017,,0,28,28,28,1,20,115,,,,,,,,
,,,001,2023-12-14_08h15.28.439,bars,2023.2.3,Win32,59.88023952,,,,,,627.014,628.0132,,,628.5133,628.7632,,124,124,,,,,,,,,,,,,,,,bars/004.png,bars/mask008.png,,,,,,,,,,,,0,2,,,,,,,2,0,3,0,,,,,,,,,,,628.0132,628.5132,628.7632,632.4802,space,3.7003,,632.4802,81,1,633.4797,633.4798,635.0468,space,1.536,,0,29,29,29,1,25,125,,,,,,,,
,,,001,2023-12-14_08h15.28.439,bars,2023.2.3,Win32,59.88023952,,,,,,635.0474,636.0464,,,636.5466,636.7966,,24,24,,,,,,,,,,,,,,,,bars/045.png,bars/mask008.png,,,,,,,,,,,,1,2,,,,,,,4,2,3,1,,,,,,,,,,,636.0466,636.5466,636.7967,639.4968,space,2.6831,,639.4968,76,14,640.4965,640.4966,642.78,space,2.2603,,0,30,30,30,1,100,10,,,,,,,,
,,,001,2023-12-14_08h15.28.439,bars,2023.2.3,Win32,59.88023952,,,,,,642.7807,643.7796,,,644.2801,644.5299,,121,-59,,,,,,,,,,,,,,,,bars/045.png,bars/mask004.png,,,,,,,,,,,,1,1,,,,,,,2,4,4,5,,,,,,,,,,,643.7796,644.2799,644.53,649.9795,space,5.4392,,649.9796,21,69,650.9799,650.98,653.9966,space,2.9986,,0,31,31,31,1,100,10,,,,,,,,
,,,001,2023-12-14_08h15.28.439,bars,2023.2.3,Win32,59.88023952,,,,,,653.9972,654.9963,,,655.4967,655.7467,,22,202,,,,,,,,,,,,,,,,bars/025.png,bars/mask008.png,,,,,,,,,,,,2,2,,,,,,,0,6,1,5,,,,,,,,,,,654.9963,655.4967,655.7467,659.4802,space,3.7178,,659.4802,83,18,660.4798,660.4798,662.4302,space,1.9115,,0,32,32,32,1,105,40,,,,,,,,
,,,001,2023-12-14_08h15.28.439,bars,2023.2.3,Win32,59.88023952,,,,,,662.4308,663.4295,,,663.9301,664.1799,,35,35,,,,,,,,,,,,,,,,bars/037.png,bars/mask000.png,,,,,,,,,,,,0,1,,,,,,,0,8,0,8,,,,,,,,,,,663.4296,663.93,664.18,668.9134,space,4.7182,,668.9135,65,70,669.9132,669.9133,677.7963,space,7.8505,,0,33,33,33,1,150,105,,,,,,,,
,,,001,2023-12-14_08h15.28.439,bars,2023.2.3,Win32,59.88023952,,,,,,677.8038,678.7965,,,679.2966,679.5467,,140,-40,,,,,,,,,,,,,,,,bars/040.png,bars/mask006.png,,,,,,,,,,,,0,1,,,,,,,0,6,0,6,,,,,,,,,,,678.7966,679.2965,679.5467,683.58,space,4.0158,,683.5801,0,45,684.5798,684.5798,695.7798,space,11.1663,,0,34,34,34,1,140,5,,,,,,,,
,,,001,2023-12-14_08h15.28.439,bars,2023.2.3,Win32,59.88023952,,,,,,695.8024,696.7958,,,697.2799,697.5298,,149,149,,,,,,,,,,,,,,,,bars/025.png,bars/mask007.png,,,,,,,,,,,,0,1,,,,,,,0,8,0,7,,,,,,,,,,,696.7958,697.2799,697.5299,701.3134,space,3.7654,,701.3135,44,71,702.3127,702.3128,703.4633,space,1.132,,0,35,35,35,1,105,40,,,,,,,,
,,,001,2023-12-14_08h15.28.439,bars,2023.2.3,Win32,59.88023952,,,,,,703.464,704.4632,,,704.9628,705.2132,,122,122,,,,,,,,,,,,,,,,bars/029.png,bars/mask000.png,,,,,,,,,,,,0,1,,,,,,,2,6,2,6,,,,,,,,,,,704.4632,704.9628,705.2133,709.0794,space,3.8489,,709.0794,32,77,710.0799,710.0799,711.1459,space,1.0501,,0,36,36,36,1,90,45,,,,,,,,
,,,001,2023-12-14_08h15.28.439,bars,2023.2.3,Win32,59.88023952,,,,,,711.1462,712.146,,,712.6463,712.8966,,46,46,,,,,,,,,,,,,,,,bars/029.png,bars/mask007.png,,,,,,,,,,,,7,2,,,,,,,0,8,1,7,,,,,,,,,,,712.1461,712.6462,712.8967,716.4968,space,3.5854,,716.4969,44,1,717.4966,717.4966,720.7468,space,3.235,,0,37,37,37,1,90,45,,,,,,,,
,,,001,2023-12-14_08h15.28.439,bars,2023.2.3,Win32,59.88023952,,,,,,720.7682,721.7625,,,722.2626,722.5131,,35,35,,,,,,,,,,,,,,,,bars/005.png,bars/mask001.png,,,,,,,,,,,,1,1,,,,,,,2,10,5,9,,,,,,,,,,,721.7625,722.2626,722.5132,725.9301,space,3.4004,,725.9303,25,75,726.93,726.9301,730.0301,space,3.0685,,0,38,38,38,1,10,140,,,,,,,,
,,,001,2023-12-14_08h15.28.439,bars,2023.2.3,Win32,59.88023952,,,,,,730.0518,731.0466,,,731.5467,731.7964,,166,-14,,,,,,,,,,,,,,,,bars/016.png,bars/mask001.png,,,,,,,,,,,,10,2,,,,,,,0,10,0,10,,,,,,,,,,,731.0467,731.5467,731.7965,737.2468,space,5.4387,,737.2468,54,1,738.2465,738.2465,741.6467,space,3.3618,,0,39,39,39,1,40,165,,,,,,,,
,,,001,2023-12-14_08h15.28.439,bars,2023.2.3,Win32,59.88023952,,,,,,741.6473,742.6465,,,743.1467,743.3965,,165,165,,,,,,,,,,,,,,,,bars/025.png,bars/mask003.png,,,,,,,,,,,,0,2,,,,,,,2,10,3,10,,,,,,,,,,,742.6466,743.1466,743.3965,752.513,space,9.102,,752.513,60,55,753.513,753.513,754.7969,space,1.2474,,0,40,40,40,1,105,40,,,,,,,,
,,,001,2023-12-14_08h15.28.439,bars,2023.2.3,Win32,59.88023952,,,,,,754.7975,755.7958,,,756.2958,756.5458,,34,34,,,,,,,,,,,,,,,,bars/007.png,bars/mask000.png,,,,,,,,,,,,3,2,,,,,,,4,10,6,10,,,,,,,,,,,755.7958,756.2958,756.5459,761.5466,space,4.9869,,761.5467,39,21,762.5464,762.5464,764.3133,space,1.7461,,0,41,41,41,1,175,55,,,,,,,,
,,,001,2023-12-14_08h15.28.439,bars,2023.2.3,Win32,59.88023952,,,,,,764.3139,765.3132,,,765.8132,766.0632,,25,25,,,,,,,,,,,,,,,,bars/040.png,bars/mask006.png,,,,,,,,,,,,3,2,,,,,,,2,10,2,10,,,,,,,,,,,765.3132,765.8131,766.0632,768.9964,space,2.9222,,768.9964,65,20,769.9966,769.9966,771.4298,space,1.415,,0,42,42,42,1,140,5,,,,,,,,
,,,001,2023-12-14_08h15.28.439,bars,2023.2.3,Win32,59.88023952,,,,,,771.4302,772.4299,,,772.93,773.1801,,89,89,,,,,,,,,,,,,,,,bars/011.png,bars/mask004.png,,,,,,,,,,,,8,2,,,,,,,4,10,4,9,,,,,,,,,,,772.4299,772.9299,773.1801,777.7801,space,4.5825,,777.7801,71,4,778.78,778.78,780.2301,space,1.431,,0,43,43,43,1,160,85,,,,,,,,
,,,001,2023-12-14_08h15.28.439,bars,2023.2.3,Win32,59.88023952,,,,,,780.2307,781.2295,,,781.7296,781.98,,95,275,,,,,,,,,,,,,,,,bars/037.png,bars/mask003.png,,,,,,,,,,,,5,2,,,,,,,6,8,7,8,,,,,,,,,,,781.2295,781.7296,781.98,785.5466,space,3.5491,,785.5466,55,10,786.5462,786.5462,787.7629,space,1.2032,,0,44,44,44,1,150,105,,,,,,,,
,,,001,2023-12-14_08h15.28.439,bars,2023.2.3,Win32,59.88023952,,,,,,787.7634,788.763,,,789.2625,789.5131,,78,78,,,,,,,,,,,,,,,,bars/031.png,bars/mask005.png,,,,,,,,,,,,0,1,,,,,,,4,10,2,10,,,,,,,,,,,788.763,789.2625,789.5131,791.4964,space,1.9681,,791.4964,42,43,792.4965,792.4966,793.1797,space,0.6524,,0,45,45,45,1,120,35,,,,,,,,
,,,001,2023-12-14_08h15.28.439,bars,2023.2.3,Win32,59.88023952,,,,,,793.1802,794.18,,,794.6799,794.9299,,90,90,,,,,,,,,,,,,,,,bars/013.png,bars/mask009.png,,,,,,,,,,,,1,1,,,,,,,2,8,2,6,,,,,,,,,,,794.18,794.6799,794.9299,797.9796,space,3.0315,,797.9796,15,80,798.9799,798.98,799.4633,space,0.4474,,0,46,46,46,1,75,10,,,,,,,,
,,,001,2023-12-14_08h15.28.439,bars,2023.2.3,Win32,59.88023952,,,,,,799.4639,800.4631,,,800.9625,801.2125,,0,0,,,,,,,,,,,,,,,,bars/028.png,bars/mask009.png,,,,,,,,,,,,0,1,,,,,,,4,6,4,7,,,,,,,,,,,800.4632,800.9625,801.2125,805.6467,space,4.4177,,805.6468,45,60,806.6465,806.6466,807.713,space,1.046,,0,47,47,47,1,45,120,,,,,,,,
,,,001,2023-12-14_08h15.28.439,bars,2023.2.3,Win32,59.88023952,,,,,,807.7135,808.7132,,,809.2132,809.4632,,91,271,,,,,,,,,,,,,,,,bars/013.png,bars/mask000.png,,,,,,,,,,,,1,1,,,,,,,2,8,2,7,,,,,,,,,,,808.7132,809.2132,809.4633,813.6299,space,4.148,,813.63,16,81,814.6299,814.6299,815.9969,space,1.3453,,0,48,48,48,1,75,10,,,,,,,,
,,,001,2023-12-14_08h15.28.439,bars,2023.2.3,Win32,59.88023952,,,,,,815.9974,816.9966,,,817.4967,817.7466,,142,142,,,,,,,,,,,,,,,,bars/023.png,bars/mask005.png,,,,,,,,,,,,1,2,,,,,,,0,10,0,10,,,,,,,,,,,816.9967,817.4966,817.7466,821.5133,space,3.7518,,821.5134,58,27,822.5132,822.5132,823.5134,space,0.9768,,0,49,49,49,1,20,115,,,,,,,,
,,,001,2023-12-14_08h15.28.439,bars,2023.2.3,Win32,59.88023952,,,,,,,,,,,,,,,,,,,,,,,,,,,,,,,,,,,,,,,,,,,,,,,,,,,,,,,,,,,,,,,,,,,,,,,,,,,,,,,,,,,,,,,,823.5149,883.5141,0,0,0,0,1,sequence_tables/blk026.csv
,,,001,2023-12-14_08h15.28.439,bars,2023.2.3,Win32,59.88023952,,,,,,926.8262,927.83,,,928.3301,928.58,,51,51,,,,,,,,,,,,,,,,bars/018.png,bars/mask003.png,,,,,,,,,,,,0,2,,,,,,,8,3,7,2,,,,,,883.5236,926.8134,space,43.2778,,927.83,928.33,928.5801,933.7133,space,5.1183,,933.7135,81,39,934.7131,934.7132,934.7226,,,,0,0,0,0,1,150,90,,,,,,,,
,,,001,2023-12-14_08h15.28.439,bars,2023.2.3,Win32,59.88023952,,,,,,934.7228,935.7132,,,936.2132,936.4631,,91,91,,,,,,,,,,,,,,,,bars/006.png,bars/mask001.png,,,,,,,,,,,,3,2,,,,,,,6,5,6,4,,,,,,,,,,,935.7133,936.2132,936.4632,941.2798,space,4.8023,,941.2798,56,9,942.2798,942.2799,942.2894,,,,0,1,1,1,1,35,100,,,,,,,,
,,,001,2023-12-14_08h15.28.439,bars,2023.2.3,Win32,59.88023952,,,,,,942.2895,943.2796,,,943.7798,944.0299,,110,110,,,,,,,,,,,,,,,,bars/010.png,bars/mask007.png,,,,,,,,,,,,0,2,,,,,,,8,3,8,3,,,,,,,,,,,943.2796,943.7798,944.03,948.4967,space,4.45,,948.4968,55,55,949.4966,949.4966,949.518,,,,0,2,2,2,1,165,55,,,,,,,,
,,,001,2023-12-14_08h15.28.439,bars,2023.2.3,Win32,59.88023952,,,,,,949.5182,950.5132,,,951.0132,951.2631,,123,123,,,,,,,,,,,,,,,,bars/004.png,bars/mask009.png,,,,,,,,,,,,5,2,,,,,,,6,5,5,5,,,,,,,,,,,950.5134,951.0132,951.2633,976.5801,space,25.3008,,976.5801,82,2,977.5798,977.5798,977.6012,,,,0,3,3,3,1,25,125,,,,,,,,
,,,001,2023-12-14_08h15.28.439,bars,2023.2.3,Win32,59.88023952,,,,,,977.6014,978.5966,,,979.0963,979.3466,,46,46,,,,,,,,,,,,,,,,bars/031.png,bars/mask006.png,,,,,,,,,,,,2,2,,,,,,,8,3,9,3,,,,,,,,,,,978.5966,979.0962,979.3466,983.1632,space,3.8006,,983.1633,74,11,984.1632,984.1632,984.1733,,,,0,4,4,4,1,120,35,,,,,,,,
,,,001,2023-12-14_08h15.28.439,bars,2023.2.3,Win32,59.88023952,,,,,,984.1735,985.1632,,,985.6632,985.9132,,137,137,,,,,,,,,,,,,,,,bars/003.png,bars/mask003.png,,,,,,,,,,,,2,2,,,,,,,6,1,6,2,,,,,,,,,,,985.1632,985.6631,985.9132,992.8966,space,6.9673,,992.8966,68,3,993.8966,993.8966,993.9184,,,,0,5,5,5,1,25,140,,,,,,,,
,,,001,2023-12-14_08h15.28.439,bars,2023.2.3,Win32,59.88023952,,,,,,993.9187,994.9132,,,995.4132,995.6631,,131,131,,,,,,,,,,,,,,,,bars/044.png,bars/mask000.png,,,,,,,,,,,,1,2,,,,,,,4,3,3,3,,,,,,,,,,,994.9132,995.4131,995.6632,998.913,space,3.2321,,998.913,56,24,999.9131,999.9132,999.9235,,,,0,6,6,6,1,75,155,,,,,,,,
,,,001,2023-12-14_08h15.28.439,bars,2023.2.3,Win32,59.88023952,,,,,,999.9237,1000.9129,,,1001.4133,1001.6632,,72,72,,,,,,,,,,,,,,,,bars/027.png,bars/mask008.png,,,,,,,,,,,,0,2,,,,,,,6,1,7,1,,,,,,,,,,,1000.913,1001.4132,1001.6632,1006.0633,space,4.3834,,1006.0634,38,22,1007.0631,1007.0631,1007.0732,,,,0,7,7,7,1,110,50,,,,,,,,
,,,001,2023-12-14_08h15.28.439,bars,2023.2.3,Win32,59.88023952,,,,,,1007.0734,1008.0631,,,1008.5632,1008.8131,,140,140,,,,,,,,,,,,,,,,bars/032.png,bars/mask003.png,,,,,,,,,,,,5,1,,,,,,,8,3,9,4,,,,,,,,,,,1008.0631,1008.5632,1008.8132,1012.7301,space,3.9012,,1012.7303,15,60,1013.7297,1013.7298,1013.7536,,,,0,8,8,8,1,125,20,,,,,,,,
,,,001,2023-12-14_08h15.28.439,bars,2023.2.3,Win32,59.88023952,,,,,,1013.7539,1014.7465,,,1015.2462,1015.4965,,122,122,,,,,,,,,,,,,,,,bars/009.png,bars/mask005.png,,,,,,,,,,,,0,2,,,,,,,10,1,8,1,,,,,,,,,,,1014.7465,1015.2461,1015.4965,1018.0634,space,2.5481,,1018.0634,73,17,1019.0632,1019.0632,1019.0737,,,,0,9,9,9,1,15,105,,,,,,,,
,,,001,2023-12-14_08h15.28.439,bars,2023.2.3,Win32,59.88023952,,,,,,1019.0738,1020.0631,,,1020.5632,1020.8132,,79,79,,,,,,,,,,,,,,,,bars/044.png,bars/mask007.png,,,,,,,,,,,,6,1,,,,,,,8,3,7,1,,,,,,,,,,,1020.0632,1020.5631,1020.8132,1025.6133,space,4.7889,,1025.6134,4,76,1026.6126,1026.6126,1026.621,,,,0,10,10,10,1,75,155,,,,,,,,
,,,001,2023-12-14_08h15.28.439,bars,2023.2.3,Win32,59.88023952,,,,,,1026.6212,1027.6132,,,1028.1132,1028.3632,,165,-15,,,,,,,,,,,,,,,,bars/041.png,bars/mask000.png,,,,,,,,,,,,0,1,,,,,,,10,1,8,2,,,,,,,,,,,1027.6132,1028.1132,1028.3632,1033.2292,space,4.8531,,1033.2292,35,80,1034.2296,1034.2296,1034.2386,,,,0,11,11,11,1,20,85,,,,,,,,
,,,001,2023-12-14_08h15.28.439,bars,2023.2.3,Win32,59.88023952,,,,,,1034.2387,1035.2299,,,1035.73,1035.9799,,75,75,,,,,,,,,,,,,,,,bars/015.png,bars/mask002.png,,,,,,,,,,,,0,1,,,,,,,10,0,10,0,,,,,,,,,,,1035.23,1035.7299,1035.98,1040.4968,space,4.5004,,1040.4968,35,85,1041.4966,1041.4966,1041.5069,,,,0,12,12,12,1,110,160,,,,,,,,
,,,001,2023-12-14_08h15.28.439,bars,2023.2.3,Win32,59.88023952,,,,,,1041.507,1042.4966,,,1042.9966,1043.2467,,65,65,,,,,,,,,,,,,,,,bars/018.png,bars/mask000.png,,,,,,,,,,,,0,2,,,,,,,8,2,9,2,,,,,,,,,,,1042.4966,1042.9966,1043.2467,1046.5628,space,3.3055,,1046.5629,85,25,1047.5632,1047.5632,1047.5739,,,,0,13,13,13,1,150,90,,,,,,,,
,,,001,2023-12-14_08h15.28.439,bars,2023.2.3,Win32,59.88023952,,,,,,1047.574,1048.5632,,,1049.063,1049.3132,,29,29,,,,,,,,,,,,,,,,bars/029.png,bars/mask005.png,,,,,,,,,,,,3,2,,,,,,,10,4,8,6,,,,,,,,,,,1048.5633,1049.0629,1049.3132,1050.563,space,1.2342,,1050.5631,61,16,1051.5629,1051.5629,1051.5636,,,,0,14,14,14,1,90,45,,,,,,,,
,,,001,2023-12-14_08h15.28.439,bars,2023.2.3,Win32,59.88023952,,,,,,1051.5638,1052.5633,,,1053.0632,1053.3132,,144,144,,,,,,,,,,,,,,,,bars/032.png,bars/mask003.png,,,,,,,,,,,,3,1,,,,,,,8,6,8,6,,,,,,,,,,,1052.5633,1053.0632,1053.3132,1059.1796,space,5.857,,1059.1796,19,56,1060.1798,1060.1799,1060.2022,,,,0,15,15,15,1,125,20,,,,,,,,
,,,001,2023-12-14_08h15.28.439,bars,2023.2.3,Win32,59.88023952,,,,,,1060.2024,1061.1966,,,1061.6966,1061.9465,,105,105,,,,,,,,,,,,,,,,bars/022.png,bars/mask004.png,,,,,,,,,,,,7,1,,,,,,,10,8,10,9,,,,,,,,,,,1061.1966,1061.6966,1061.9465,1075.9133,space,13.9518,,1075.9134,10,85,1076.9131,1076.9132,1076.9345,,,,0,16,16,16,1,95,20,,,,,,,,
,,,001,2023-12-14_08h15.28.439,bars,2023.2.3,Win32,59.88023952,,,,,,1076.9347,1077.9298,,,1078.43,1078.6799,,165,-15,,,,,,,,,,,,,,,,bars/033.png,bars/mask002.png,,,,,,,,,,,,7,2,,,,,,,10,10,10,10,,,,,,,,,,,1077.9298,1078.43,1078.6799,1083.3467,space,4.6506,,1083.3468,40,10,1084.3466,1084.3466,1084.3574,,,,0,17,17,17,1,25,155,,,,,,,,
,,,001,2023-12-14_08h15.28.439,bars,2023.2.3,Win32,59.88023952,,,,,,1084.3575,1085.3466,,,1085.8467,1086.0966,,155,155,,,,,,,,,,,,,,,,bars/044.png,bars/mask007.png,,,,,,,,,,,,9,2,,,,,,,8,8,9,9,,,,,,,,,,,1085.3466,1085.8467,1086.0967,1091.0634,space,4.9482,,1091.0634,80,0,1092.0632,1092.0633,1092.0733,,,,0,18,18,18,1,75,155,,,,,,,,
,,,001,2023-12-14_08h15.28.439,bars,2023.2.3,Win32,59.88023952,,,,,,1092.0735,1093.0631,,,1093.5633,1093.8131,,156,-24,,,,,,,,,,,,,,,,bars/044.png,bars/mask004.png,,,,,,,,,,,,10,2,,,,,,,6,10,5,10,,,,,,,,,,,1093.0632,1093.5633,1093.8131,1097.6796,space,3.8544,,1097.6798,81,1,1098.6799,1098.6799,1098.7012,,,,0,19,19,19,1,75,155,,,,,,,,
,,,001,2023-12-14_08h15.28.439,bars,2023.2.3,Win32,59.88023952,,,,,,1098.7014,1099.6966,,,1100.1966,1100.4466,,73,73,,,,,,,,,,,,,,,,bars/042.png,bars/mask008.png,,,,,,,,,,,,7,2,,,,,,,8,10,7,8,,,,,,,,,,,1099.6966,1100.1965,1100.4466,1105.2467,space,4.7884,,1105.2467,72,2,1106.2465,1106.2466,1106.2694,,,,0,20,20,20,1,145,75,,,,,,,,
,,,001,2023-12-14_08h15.28.439,bars,2023.2.3,Win32,59.88023952,,,,,,1106.2697,1107.2632,,,1107.7632,1108.0131,,46,46,,,,,,,,,,,,,,,,bars/031.png,bars/mask005.png,,,,,,,,,,,,5,2,,,,,,,6,8,5,8,,,,,,,,,,,1107.2632,1107.7631,1108.0131,1110.7134,space,2.6853,,1110.7135,74,11,1111.7132,1111.7132,1111.736,,,,0,21,21,21,1,120,35,,,,,,,,
,,,001,2023-12-14_08h15.28.439,bars,2023.2.3,Win32,59.88023952,,,,,,1111.7362,1112.73,,,1113.2299,1113.4799,,96,96,,,,,,,,,,,,,,,,bars/009.png,bars/mask005.png,,,,,,,,,,,,7,2,,,,,,,4,10,3,10,,,,,,,,,,,1112.73,1113.2299,1113.48,1116.9642,space,3.4668,,1116.9643,81,9,1117.9624,1117.9624,1117.9702,,,,0,22,22,22,1,15,105,,,,,,,,
,,,001,2023-12-14_08h15.28.439,bars,2023.2.3,Win32,59.88023952,,,,,,1117.9703,1118.963,,,1119.4633,1119.7131,,76,76,,,,,,,,,,,,,,,,bars/007.png,bars/mask008.png,,,,,,,,,,,,3,2,,,,,,,2,10,2,10,,,,,,,,,,,1118.963,1119.4632,1119.7131,1122.6132,space,2.885,,1122.6133,81,21,1123.6131,1123.6131,1123.6341,,,,0,23,23,23,1,175,55,,,,,,,,
,,,001,2023-12-14_08h15.28.439,bars,2023.2.3,Win32,59.88023952,,,,,,1123.6344,1124.6299,,,1125.1298,1125.3795,,64,64,,,,,,,,,,,,,,,,bars/010.png,bars/mask001.png,,,,,,,,,,,,6,2,,,,,,,0,8,0,8,,,,,,,,,,,1124.63,1125.1297,1125.3795,1130.28,space,4.889,,1130.2802,79,9,1131.2799,1131.2799,1131.3013,,,,0,24,24,24,1,165,55,,,,,,,,
,,,001,2023-12-14_08h15.28.439,bars,2023.2.3,Win32,59.88023952,,,,,,1131.3016,1132.2965,,,1132.7966,1133.0462,,84,84,,,,,,,,,,,,,,,,bars/001.png,bars/mask000.png,,,,,,,,,,,,4,2,,,,,,,2,6,3,4,,,,,,,,,,,1132.2965,1132.7965,1133.0463,1140.3633,space,7.3011,,1140.3633,46,1,1141.3632,1141.3632,1141.3735,,,,0,25,25,25,1,130,85,,,,,,,,
,,,001,2023-12-14_08h15.28.439,bars,2023.2.3,Win32,59.88023952,,,,,,1141.3736,1142.3631,,,1142.8632,1143.1133,,121,121,,,,,,,,,,,,,,,,bars/012.png,bars/mask008.png,,,,,,,,,,,,0,1,,,,,,,0,8,0,6,,,,,,,,,,,1142.3631,1142.8631,1143.1133,1145.73,space,2.6004,,1145.7301,31,74,1146.7299,1146.73,1146.7537,,,,0,26,26,26,1,90,15,,,,,,,,
,,,001,2023-12-14_08h15.28.439,bars,2023.2.3,Win32,59.88023952,,,,,,1146.754,1147.7465,,,1148.2465,1148.4966,,69,69,,,,,,,,,,,,,,,,bars/013.png,bars/mask000.png,,,,,,,,,,,,3,1,,,,,,,2,10,4,9,,,,,,,,,,,1147.7466,1148.2465,1148.4966,1151.9302,space,3.4167,,1151.9302,6,59,1152.9299,1152.9299,1152.94,,,,0,27,27,27,1,75,10,,,,,,,,
,,,001,2023-12-14_08h15.28.439,bars,2023.2.3,Win32,59.88023952,,,,,,1152.9401,1153.9299,,,1154.4299,1154.6799,,57,57,,,,,,,,,,,,,,,,bars/044.png,bars/mask005.png,,,,,,,,,,,,0,1,,,,,,,0,8,0,9,,,,,,,,,,,1153.9299,1154.4299,1154.6799,1158.6792,space,3.9852,,1158.6792,18,82,1159.6792,1159.6792,1159.6868,,,,0,28,28,28,1,75,155,,,,,,,,
,,,001,2023-12-14_08h15.28.439,bars,2023.2.3,Win32,59.88023952,,,,,,1159.6869,1160.6799,,,1161.18,1161.4299,,152,152,,,,,,,,,,,,,,,,bars/005.png,bars/mask008.png,,,,,,,,,,,,6,2,,,,,,,0,10,0,10,,,,,,,,,,,1160.68,1161.18,1161.4299,1163.7966,space,2.3557,,1163.7968,38,12,1164.7965,1164.7966,1164.8191,,,,0,29,29,29,1,10,140,,,,,,,,
,,,001,2023-12-14_08h15.28.439,bars,2023.2.3,Win32,59.88023952,,,,,,1164.8194,1165.8131,,,1166.3132,1166.563,,81,81,,,,,,,,,,,,,,,,bars/046.png,bars/mask007.png,,,,,,,,,,,,8,2,,,,,,,2,8,0,9,,,,,,,,,,,1165.8132,1166.3131,1166.5631,1169.6633,space,3.0813,,1169.6633,74,4,1170.6631,1170.6631,1170.6864,,,,0,30,30,30,1,155,85,,,,,,,,
,,,001,2023-12-14_08h15.28.439,bars,2023.2.3,Win32,59.88023952,,,,,,1170.6866,1171.6799,,,1172.18,1172.4298,,21,21,,,,,,,,,,,,,,,,bars/036.png,bars/mask002.png,,,,,,,,,,,,5,2,,,,,,,0,6,1,5,,,,,,,,,,,1171.6799,1172.18,1172.4298,1175.18,space,2.7396,,1175.1801,56,1,1176.1792,1176.1792,1176.188,,,,0,31,31,31,1,145,20,,,,,,,,
,,,001,2023-12-14_08h15.28.439,bars,2023.2.3,Win32,59.88023952,,,,,,1176.1881,1177.1792,,,1177.6791,1177.9293,,168,168,,,,,,,,,,,,,,,,bars/005.png,bars/mask008.png,,,,,,,,,,,,1,1,,,,,,,2,4,2,3,,,,,,,,,,,1177.1792,1177.6791,1177.9293,1180.78,space,2.8401,,1180.78,22,28,1181.7797,1181.7798,1181.8027,,,,0,32,32,32,1,10,140,,,,,,,,
,,,001,2023-12-14_08h15.28.439,bars,2023.2.3,Win32,59.88023952,,,,,,1181.8029,1182.7962,,,1183.2966,1183.5465,,17,17,,,,,,,,,,,,,,,,bars/025.png,bars/mask005.png,,,,,,,,,,,,0,2,,,,,,,4,2,4,2,,,,,,,,,,,1182.7962,1183.2966,1183.5466,1186.4968,space,2.9365,,1186.4969,88,23,1187.4966,1187.4966,1187.5189,,,,0,33,33,33,1,105,40,,,,,,,,
,,,001,2023-12-14_08h15.28.439,bars,2023.2.3,Win32,59.88023952,,,,,,1187.5192,1188.5131,,,1189.0129,1189.2631,,29,29,,,,,,,,,,,,,,,,bars/039.png,bars/mask003.png,,,,,,,,,,,,0,1,,,,,,,6,0,5,1,,,,,,,,,,,1188.5132,1189.0129,1189.2633,1193.8967,space,4.6168,,1193.8967,34,76,1194.8958,1194.8958,1194.9044,,,,0,34,34,34,1,175,105,,,,,,,,
,,,001,2023-12-14_08h15.28.439,bars,2023.2.3,Win32,59.88023952,,,,,,1194.9045,1195.8963,,,1196.3964,1196.6465,,150,-30,,,,,,,,,,,,,,,,bars/016.png,bars/mask009.png,,,,,,,,,,,,2,2,,,,,,,4,2,2,4,,,,,,,,,,,1195.8963,1196.3963,1196.6465,1201.6968,space,5.0344,,1201.6968,70,15,1202.6965,1202.6965,1202.707,,,,0,35,35,35,1,40,165,,,,,,,,
,,,001,2023-12-14_08h15.28.439,bars,2023.2.3,Win32,59.88023952,,,,,,1202.7071,1203.6966,,,1204.1966,1204.4466,,103,103,,,,,,,,,,,,,,,,bars/000.png,bars/mask003.png,,,,,,,,,,,,0,2,,,,,,,2,4,2,4,,,,,,,,,,,1203.6966,1204.1966,1204.4466,1207.8133,space,3.3557,,1207.8134,63,42,1208.8131,1208.8132,1208.834,,,,0,36,36,36,1,40,145,,,,,,,,
,,,001,2023-12-14_08h15.28.439,bars,2023.2.3,Win32,59.88023952,,,,,,1208.8342,1209.8299,,,1210.3298,1210.5799,,36,36,,,,,,,,,,,,,,,,bars/008.png,bars/mask009.png,,,,,,,,,,,,0,2,,,,,,,4,2,4,3,,,,,,,,,,,1209.8299,1210.3298,1210.5799,1214.7626,space,4.1653,,1214.7626,74,36,1215.7629,1215.7629,1215.7721,,,,0,37,37,37,1,110,0,,,,,,,,
,,,001,2023-12-14_08h15.28.439,bars,2023.2.3,Win32,59.88023952,,,,,,1215.7722,1216.7632,,,1217.2632,1217.5129,,70,70,,,,,,,,,,,,,,,,bars/018.png,bars/mask007.png,,,,,,,,,,,,2,2,,,,,,,6,4,6,5,,,,,,,,,,,1216.7632,1217.2631,1217.5129,1220.28,space,2.754,,1220.2801,80,20,1221.2796,1221.2796,1221.2888,,,,0,38,38,38,1,150,90,,,,,,,,
,,,001,2023-12-14_08h15.28.439,bars,2023.2.3,Win32,59.88023952,,,,,,1221.2889,1222.2798,,,1222.78,1223.0298,,3,3,,,,,,,,,,,,,,,,bars/009.png,bars/mask001.png,,,,,,,,,,,,4,1,,,,,,,4,6,6,7,,,,,,,,,,,1222.2799,1222.7799,1223.0299,1228.9968,space,5.9502,,1228.9969,12,78,1229.9965,1229.9966,1230.0078,,,,0,39,39,39,1,15,105,,,,,,,,
,,,001,2023-12-14_08h15.28.439,bars,2023.2.3,Win32,59.88023952,,,,,,1230.0079,1230.9965,,,1231.4959,1231.7465,,36,216,,,,,,,,,,,,,,,,bars/014.png,bars/mask005.png,,,,,,,,,,,,0,2,,,,,,,6,4,7,4,,,,,,,,,,,1230.9966,1231.4959,1231.7466,1254.5967,space,22.8377,,1254.5968,44,36,1255.5966,1255.5967,1255.6195,,,,0,40,40,40,1,80,0,,,,,,,,
,,,001,2023-12-14_08h15.28.439,bars,2023.2.3,Win32,59.88023952,,,,,,1255.6198,1256.6131,,,1257.1131,1257.3632,,106,106,,,,,,,,,,,,,,,,bars/003.png,bars/mask003.png,,,,,,,,,,,,0,2,,,,,,,4,2,5,1,,,,,,,,,,,1256.6131,1257.1131,1257.3632,1263.4133,space,6.0341,,1263.4134,81,34,1264.4129,1264.4129,1264.4388,,,,0,41,41,41,1,25,140,,,,,,,,
,,,001,2023-12-14_08h15.28.439,bars,2023.2.3,Win32,59.88023952,,,,,,1264.439,1265.43,,,1265.93,1266.1799,,0,0,,,,,,,,,,,,,,,,bars/025.png,bars/mask006.png,,,,,,,,,,,,0,2,,,,,,,2,4,3,4,,,,,,,,,,,1265.43,1265.9299,1266.1799,1274.4633,space,8.2673,,1274.4633,75,40,1275.4631,1275.4632,1275.4839,,,,0,42,42,42,1,105,40,,,,,,,,
,,,001,2023-12-14_08h15.28.439,bars,2023.2.3,Win32,59.88023952,,,,,,1275.4841,1276.4801,,,1276.98,1277.2297,,50,50,,,,,,,,,,,,,,,,bars/047.png,bars/mask007.png,,,,,,,,,,,,0,2,,,,,,,4,2,5,1,,,,,,,,,,,1276.4801,1276.98,1277.2297,1281.6466,space,4.4043,,1281.6466,35,20,1282.6465,1282.6466,1282.6569,,,,0,43,43,43,1,15,70,,,,,,,,
,,,001,2023-12-14_08h15.28.439,bars,2023.2.3,Win32,59.88023952,,,,,,1282.657,1283.6466,,,1284.1466,1284.3966,,131,-49,,,,,,,,,,,,,,,,bars/007.png,bars/mask004.png,,,,,,,,,,,,0,1,,,,,,,6,0,5,0,,,,,,,,,,,1283.6466,1284.1466,1284.3966,1288.363,space,3.9568,,1288.363,44,76,1289.3631,1289.3632,1289.3736,,,,0,44,44,44,1,175,55,,,,,,,,
,,,001,2023-12-14_08h15.28.439,bars,2023.2.3,Win32,59.88023952,,,,,,1289.3736,1290.3633,,,1290.8627,1291.1132,,86,86,,,,,,,,,,,,,,,,bars/002.png,bars/mask007.png,,,,,,,,,,,,0,2,,,,,,,8,0,9,0,,,,,,,,,,,1290.3633,1290.8627,1291.1132,1294.8468,space,3.7217,,1294.8469,44,1,1295.8465,1295.8465,1295.8572,,,,0,45,45,45,1,130,85,,,,,,,,
,,,001,2023-12-14_08h15.28.439,bars,2023.2.3,Win32,59.88023952,,,,,,1295.8572,1296.8466,,,1297.3467,1297.5965,,107,107,,,,,,,,,,,,,,,,bars/045.png,bars/mask009.png,,,,,,,,,,,,6,1,,,,,,,6,0,8,0,,,,,,,,,,,1296.8466,1297.3466,1297.5965,1302.9633,space,5.35,,1302.9633,7,83,1303.9631,1303.9632,1303.9741,,,,0,46,46,46,1,100,10,,,,,,,,
,,,001,2023-12-14_08h15.28.439,bars,2023.2.3,Win32,59.88023952,,,,,,1303.9743,1304.9631,,,1305.4631,1305.7132,,139,-41,,,,,,,,,,,,,,,,bars/015.png,bars/mask005.png,,,,,,,,,,,,1,2,,,,,,,8,2,8,3,,,,,,,,,,,1304.9632,1305.4631,1305.7132,1315.0967,space,9.3699,,1315.0969,29,21,1316.0965,1316.0965,1316.1071,,,,0,47,47,47,1,110,160,,,,,,,,
,,,001,2023-12-14_08h15.28.439,bars,2023.2.3,Win32,59.88023952,,,,,,1316.1072,1317.0966,,,1317.5965,1317.8463,,178,178,,,,,,,,,,,,,,,,bars/033.png,bars/mask003.png,,,,,,,,,,,,1,2,,,,,,,10,4,10,3,,,,,,,,,,,1317.0966,1317.5965,1317.8463,1322.9966,space,5.1397,,1322.9967,27,23,1323.9959,1323.9959,1324.0031,,,,0,48,48,48,1,25,155,,,,,,,,
,,,001,2023-12-14_08h15.28.439,bars,2023.2.3,Win32,59.88023952,,,,,,1324.0032,1324.9965,,,1325.4966,1325.7465,,3,183,,,,,,,,,,,,,,,,bars/029.png,bars/mask002.png,,,,,,,,,,,,0,2,,,,,,,10,2,10,2,,,,,,,,,,,1324.9966,1325.4965,1325.7465,1344.5796,space,18.8234,,1344.5797,87,42,1345.5798,1345.58,1345.6017,,,,0,49,49,49,1,90,45,,,,,,,,
,,,001,2023-12-14_08h15.28.439,bars,2023.2.3,Win32,59.88023952,,,,,,,,,,,,,,,,,,,,,,,,,,,,,,,,,,,,,,,,,,,,,,,,,,,,,,,,,,,,,,,,,,,,,,,,,,,,,,,,,,,,,,,,1345.6019,1405.5966,0,1,1,4,1,sequence_tables/blk046.csv
,,,001,2023-12-14_08h15.28.439,bars,2023.2.3,Win32,59.88023952,,,,,,1416.5554,1417.5465,,,1418.0465,1418.2965,,3,3,,,,,,,,,,,,,,,,bars/010.png,bars/mask007.png,,,,,,,,,,,,3,1,,,,,,,9,9,7,10,,,,,,1405.6064,1416.5301,space,10.9106,,1417.5466,1418.0464,1418.2965,1423.5793,space,5.263,,1423.5795,18,52,1424.5791,1424.5791,1424.5877,,,,0,0,0,0,1,165,55,,,,,,,,
,,,001,2023-12-14_08h15.28.439,bars,2023.2.3,Win32,59.88023952,,,,,,1424.5879,1425.5797,,,1426.0799,1426.3298,,119,119,,,,,,,,,,,,,,,,bars/033.png,bars/mask007.png,,,,,,,,,,,,0,2,,,,,,,7,10,7,10,,,,,,,,,,,1425.5797,1426.0799,1426.3299,1434.0632,space,7.7169,,1434.0634,86,36,1435.063,1435.0631,1435.0738,,,,0,1,1,1,1,25,155,,,,,,,,
,,,001,2023-12-14_08h15.28.439,bars,2023.2.3,Win32,59.88023952,,,,,,1435.0739,1436.0631,,,1436.5635,1436.8131,,52,52,,,,,,,,,,,,,,,,bars/032.png,bars/mask006.png,,,,,,,,,,,,0,2,,,,,,,9,8,9,8,,,,,,,,,,,1436.0631,1436.5635,1436.8131,1448.2633,space,11.4342,,1448.2634,73,32,1449.263,1449.2631,1449.2724,,,,0,2,2,2,1,125,20,,,,,,,,
,,,001,2023-12-14_08h15.28.439,bars,2023.2.3,Win32,59.88023952,,,,,,1449.2725,1450.2631,,,1450.7631,1451.0132,,98,98,,,,,,,,,,,,,,,,bars/035.png,bars/mask000.png,,,,,,,,,,,,0,2,,,,,,,10,6,8,7,,,,,,,,,,,1450.2631,1450.7631,1451.0132,1463.3134,space,12.2844,,1463.3135,77,38,1464.3132,1464.3132,1464.3254,,,,0,3,3,3,1,175,60,,,,,,,,
,,,001,2023-12-14_08h15.28.439,bars,2023.2.3,Win32,59.88023952,,,,,,1464.3255,1465.3132,,,1465.8132,1466.0631,,126,-54,,,,,,,,,,,,,,,,bars/044.png,bars/mask003.png,,,,,,,,,,,,0,2,,,,,,,10,4,9,4,,,,,,,,,,,1465.3132,1465.8132,1466.0632,1472.1126,space,6.0411,,1472.1126,51,29,1473.1129,1473.1129,1473.1362,,,,0,4,4,4,1,75,155,,,,,,,,
,,,001,2023-12-14_08h15.28.439,bars,2023.2.3,Win32,59.88023952,,,,,,1473.1365,1474.1298,,,1474.6298,1474.8799,,75,75,,,,,,,,,,,,,,,,bars/041.png,bars/mask004.png,,,,,,,,,,,,2,2,,,,,,,8,2,8,3,,,,,,,,,,,1474.1298,1474.6297,1474.88,1479.5458,space,4.6488,,1479.5459,55,10,1480.5462,1480.5463,1480.5563,,,,0,5,5,5,1,20,85,,,,,,,,
,,,001,2023-12-14_08h15.28.439,bars,2023.2.3,Win32,59.88023952,,,,,,1480.5565,1481.5466,,,1482.0462,1482.2966,,71,71,,,,,,,,,,,,,,,,bars/011.png,bars/mask007.png,,,,,,,,,,,,2,2,,,,,,,6,4,6,4,,,,,,,,,,,1481.5466,1482.0462,1482.2967,1486.3133,space,4.0081,,1486.3133,89,14,1487.3131,1487.3132,1487.3228,,,,0,6,6,6,1,160,85,,,,,,,,
,,,001,2023-12-14_08h15.28.439,bars,2023.2.3,Win32,59.88023952,,,,,,1487.323,1488.313,,,1488.8132,1489.063,,130,130,,,,,,,,,,,,,,,,bars/048.png,bars/mask000.png,,,,,,,,,,,,0,2,,,,,,,8,6,9,6,,,,,,,,,,,1488.3131,1488.8132,1489.063,1492.9133,space,3.8341,,1492.9134,80,45,1493.9128,1493.9128,1493.921,,,,0,7,7,7,1,50,175,,,,,,,,
,,,001,2023-12-14_08h15.28.439,bars,2023.2.3,Win32,59.88023952,,,,,,1493.9211,1494.913,,,1495.413,1495.6631,,52,52,,,,,,,,,,,,,,,,bars/034.png,bars/mask005.png,,,,,,,,,,,,5,2,,,,,,,10,8,10,8,,,,,,,,,,,1494.913,1495.413,1495.6632,1501.2133,space,5.538,,1501.2133,73,13,1502.2131,1502.2132,1502.2232,,,,0,8,8,8,1,125,65,,,,,,,,
,,,001,2023-12-14_08h15.28.439,bars,2023.2.3,Win32,59.88023952,,,,,,1502.2233,1503.2131,,,1503.7132,1503.9632,,116,-64,,,,,,,,,,,,,,,,bars/007.png,bars/mask003.png,,,,,,,,,,,,0,1,,,,,,,8,10,6,10,,,,,,,,,,,1503.2131,1503.7131,1503.9632,1511.6633,space,7.687,,1511.6634,59,61,1512.6627,1512.6627,1512.6734,,,,0,9,9,9,1,175,55,,,,,,,,
,,,001,2023-12-14_08h15.28.439,bars,2023.2.3,Win32,59.88023952,,,,,,1512.6735,1513.663,,,1514.1631,1514.4132,,137,137,,,,,,,,,,,,,,,,bars/019.png,bars/mask006.png,,,,,,,,,,,,0,2,,,,,,,10,10,10,10,,,,,,,,,,,1513.6632,1514.1631,1514.4132,1517.7133,space,3.2844,,1517.7134,88,32,1518.7132,1518.7132,1518.7353,,,,0,10,10,10,1,45,105,,,,,,,,
,,,001,2023-12-14_08h15.28.439,bars,2023.2.3,Win32,59.88023952,,,,,,1518.7355,1519.7298,,,1520.23,1520.4799,,0,0,,,,,,,,,,,,,,,,bars/014.png,bars/mask002.png,,,,,,,,,,,,10,2,,,,,,,8,10,9,10,,,,,,,,,,,1519.7298,1520.2299,1520.4799,1528.23,space,7.7337,,1528.23,80,0,1529.2299,1529.2299,1529.2405,,,,0,11,11,11,1,80,0,,,,,,,,
,,,001,2023-12-14_08h15.28.439,bars,2023.2.3,Win32,59.88023952,,,,,,1529.2406,1530.2298,,,1530.73,1530.9797,,0,0,,,,,,,,,,,,,,,,bars/046.png,bars/mask008.png,,,,,,,,,,,,1,1,,,,,,,10,8,8,7,,,,,,,,,,,1530.2299,1530.73,1530.9798,1534.5968,space,3.6006,,1534.5968,25,85,1535.5964,1535.5965,1535.6068,,,,0,12,12,12,1,155,85,,,,,,,,
,,,001,2023-12-14_08h15.28.439,bars,2023.2.3,Win32,59.88023952,,,,,,1535.6069,1536.5964,,,1537.0966,1537.3465,,0,180,,,,,,,,,,,,,,,,bars/044.png,bars/mask000.png,,,,,,,,,,,,1,2,,,,,,,10,6,10,6,,,,,,,,,,,1536.5964,1537.0966,1537.3466,1541.9629,space,4.6062,,1541.9629,75,25,1542.9631,1542.9631,1542.9736,,,,0,13,13,13,1,75,155,,,,,,,,
,,,001,2023-12-14_08h15.28.439,bars,2023.2.3,Win32,59.88023952,,,,,,1542.9737,1543.9631,,,1544.4633,1544.7131,,0,180,,,,,,,,,,,,,,,,bars/009.png,bars/mask008.png,,,,,,,,,,,,5,1,,,,,,,8,4,9,4,,,,,,,,,,,1543.9631,1544.4632,1544.7131,1552.8301,space,8.1051,,1552.8301,15,75,1553.8297,1553.8297,1553.8404,,,,0,14,14,14,1,15,105,,,,,,,,
,,,001,2023-12-14_08h15.28.439,bars,2023.2.3,Win32,59.88023952,,,,,,1553.8405,1554.8299,,,1555.33,1555.5799,,143,143,,,,,,,,,,,,,,,,bars/001.png,bars/mask008.png,,,,,,,,,,,,6,1,,,,,,,10,2,10,2,,,,,,,,,,,1554.83,1555.33,1555.58,1562.7134,space,7.1154,,1562.7136,13,58,1563.7132,1563.7132,1563.7363,,,,0,15,15,15,1,130,85,,,,,,,,
,,,001,2023-12-14_08h15.28.439,bars,2023.2.3,Win32,59.88023952,,,,,,1563.7366,1564.7298,,,1565.2292,1565.4799,,0,0,,,,,,,,,,,,,,,,bars/019.png,bars/mask005.png,,,,,,,,,,,,0,1,,,,,,,8,0,9,1,,,,,,,,,,,1564.7299,1565.2292,1565.4799,1605.18,space,39.6895,,1605.18,45,75,1606.1799,1606.18,1606.2017,,,,0,16,16,16,1,45,105,,,,,,,,
,,,001,2023-12-14_08h15.28.439,bars,2023.2.3,Win32,59.88023952,,,,,,1606.2019,1607.1965,,,1607.6966,1607.9466,,45,45,,,,,,,,,,,,,,,,bars/031.png,bars/mask002.png,,,,,,,,,,,,0,2,,,,,,,10,0,10,0,,,,,,,,,,,1607.1965,1607.6965,1607.9467,1614.4799,space,6.52,,1614.48,75,10,1615.4794,1615.4794,1615.4874,,,,0,17,17,17,1,120,35,,,,,,,,
,,,001,2023-12-14_08h15.28.439,bars,2023.2.3,Win32,59.88023952,,,,,,1615.4876,1616.4799,,,1616.9795,1617.2299,,45,45,,,,,,,,,,,,,,,,bars/048.png,bars/mask007.png,,,,,,,,,,,,8,1,,,,,,,10,2,10,4,,,,,,,,,,,1616.4799,1616.9795,1617.2299,1624.8468,space,7.6003,,1624.8469,5,50,1625.8464,1625.8465,1625.8709,,,,0,18,18,18,1,50,175,,,,,,,,
,,,001,2023-12-14_08h15.28.439,bars,2023.2.3,Win32,59.88023952,,,,,,1625.8711,1626.8631,,,1627.3632,1627.6131,,90,90,,,,,,,,,,,,,,,,bars/021.png,bars/mask007.png,,,,,,,,,,,,1,2,,,,,,,8,4,8,4,,,,,,,,,,,1626.8632,1627.3631,1627.6131,1632.7629,space,5.1391,,1632.7629,65,20,1633.7631,1633.7631,1633.7737,,,,0,19,19,19,1,155,70,,,,,,,,
,,,001,2023-12-14_08h15.28.439,bars,2023.2.3,Win32,59.88023952,,,,,,1633.7738,1634.763,,,1635.263,1635.5132,,90,90,,,,,,,,,,,,,,,,bars/036.png,bars/mask008.png,,,,,,,,,,,,0,1,,,,,,,10,6,9,5,,,,,,,,,,,1634.7631,1635.2629,1635.5132,1645.2468,space,9.7214,,1645.2469,55,70,1646.2462,1646.2463,1646.2704,,,,0,20,20,20,1,145,20,,,,,,,,
,,,001,2023-12-14_08h15.28.439,bars,2023.2.3,Win32,59.88023952,,,,,,1646.2706,1647.2629,,,1647.7632,1648.0131,,163,-17,,,,,,,,,,,,,,,,bars/004.png,bars/mask001.png,,,,,,,,,,,,0,2,,,,,,,8,4,9,4,,,,,,,,,,,1647.2629,1647.7632,1648.0132,1652.4133,space,4.3846,,1652.4134,42,38,1653.413,1653.4131,1653.4242,,,,0,21,21,21,1,25,125,,,,,,,,
,,,001,2023-12-14_08h15.28.439,bars,2023.2.3,Win32,59.88023952,,,,,,1653.4243,1654.4131,,,1654.9131,1655.1632,,29,29,,,,,,,,,,,,,,,,bars/042.png,bars/mask002.png,,,,,,,,,,,,0,2,,,,,,,6,6,8,5,,,,,,,,,,,1654.4131,1654.913,1655.1632,1662.1801,space,7.0011,,1662.1803,64,46,1663.1797,1663.1798,1663.1896,,,,0,22,22,22,1,145,75,,,,,,,,
,,,001,2023-12-14_08h15.28.439,bars,2023.2.3,Win32,59.88023952,,,,,,1663.1897,1664.1797,,,1664.6799,1664.9298,,45,45,,,,,,,,,,,,,,,,bars/040.png,bars/mask007.png,,,,,,,,,,,,0,2,,,,,,,8,4,8,2,,,,,,,,,,,1664.1797,1664.6799,1664.9299,1671.5299,space,6.5893,,1671.5299,85,40,1672.5295,1672.5296,1672.54,,,,0,23,23,23,1,140,5,,,,,,,,
,,,001,2023-12-14_08h15.28.439,bars,2023.2.3,Win32,59.88023952,,,,,,1672.5402,1673.5295,,,1674.03,1674.28,,12,192,,,,,,,,,,,,,,,,bars/040.png,bars/mask003.png,,,,,,,,,,,,5,2,,,,,,,10,6,10,6,,,,,,,,,,,1673.5295,1674.03,1674.28,1677.1801,space,2.8825,,1677.1802,52,7,1678.1795,1678.1795,1678.1801,,,,0,24,24,24,1,140,5,,,,,,,,
,,,001,2023-12-14_08h15.28.439,bars,2023.2.3,Win32,59.88023952,,,,,,1678.1805,1679.1799,,,1679.6799,1679.9299,,93,93,,,,,,,,,,,,,,,,bars/019.png,bars/mask006.png,,,,,,,,,,,,2,2,,,,,,,8,4,7,4,,,,,,,,,,,1679.1799,1679.6799,1679.9299,1738.93,space,58.9828,,1738.9302,48,12,1739.9299,1739.93,1739.9404,,,,0,25,25,25,1,45,105,,,,,,,,
,,,001,2023-12-14_08h15.28.439,bars,2023.2.3,Win32,59.88023952,,,,,,1739.9405,1740.9299,,,1741.4301,1741.6799,,104,104,,,,,,,,,,,,,,,,bars/003.png,bars/mask003.png,,,,,,,,,,,,0,2,,,,,,,10,6,9,6,,,,,,,,,,,1740.9299,1741.43,1741.6799,1744.1632,space,2.4733,,1744.1633,79,36,1745.1631,1745.1631,1745.1729,,,,0,26,26,26,1,25,140,,,,,,,,
,,,001,2023-12-14_08h15.28.439,bars,2023.2.3,Win32,59.88023952,,,,,,1745.1731,1746.163,,,1746.6632,1746.9132,,52,52,,,,,,,,,,,,,,,,bars/003.png,bars/mask008.png,,,,,,,,,,,,1,1,,,,,,,8,4,9,4,,,,,,,,,,,1746.163,1746.6632,1746.9132,1748.88,space,1.9493,,1748.8801,27,88,1749.8799,1749.8799,1749.8824,,,,0,27,27,27,1,25,140,,,,,,,,
,,,001,2023-12-14_08h15.28.439,bars,2023.2.3,Win32,59.88023952,,,,,,1749.8831,1750.8799,,,1751.38,1751.6298,,30,30,,,,,,,,,,,,,,,,bars/022.png,bars/mask000.png,,,,,,,,,,,,4,2,,,,,,,6,6,6,6,,,,,,,,,,,1750.88,1751.3799,1751.6299,1752.5464,space,0.9073,,1752.5464,65,10,1753.5465,1753.5465,1753.5493,,,,0,28,28,28,1,95,20,,,,,,,,
,,,001,2023-12-14_08h15.28.439,bars,2023.2.3,Win32,59.88023952,,,,,,1753.5499,1754.5465,,,1755.0465,1755.2965,,155,155,,,,,,,,,,,,,,,,bars/028.png,bars/mask003.png,,,,,,,,,,,,0,2,,,,,,,4,4,3,5,,,,,,,,,,,1754.5466,1755.0464,1755.2965,1756.2632,space,0.9532,,1756.2633,70,35,1757.2631,1757.2631,1757.2643,,,,0,29,29,29,1,45,120,,,,,,,,
,,,001,2023-12-14_08h15.28.439,bars,2023.2.3,Win32,59.88023952,,,,,,1757.2646,1758.2629,,,1758.7633,1759.0129,,53,53,,,,,,,,,,,,,,,,bars/037.png,bars/mask004.png,,,,,,,,,,,,0,2,,,,,,,2,2,1,2,,,,,,,,,,,1758.2629,1758.7633,1759.0129,1760.1792,space,1.1464,,1760.1792,83,52,1761.1798,1761.1799,1761.181,,,,0,30,30,30,1,150,105,,,,,,,,
,,,001,2023-12-14_08h15.28.439,bars,2023.2.3,Win32,59.88023952,,,,,,1761.1814,1762.1798,,,1762.6799,1762.9298,,34,34,,,,,,,,,,,,,,,,bars/033.png,bars/mask001.png,,,,,,,,,,,,3,1,,,,,,,4,4,4,3,,,,,,,,,,,1762.1799,1762.6799,1762.9298,1765.2302,space,2.2833,,1765.2302,9,59,1766.2295,1766.2296,1766.2423,,,,0,31,31,31,1,25,155,,,,,,,,
,,,001,2023-12-14_08h15.28.439,bars,2023.2.3,Win32,59.88023952,,,,,,1766.2425,1767.2465,,,1767.7466,1767.9966,,164,164,,,,,,,,,,,,,,,,bars/048.png,bars/mask003.png,,,,,,,,,,,,1,2,,,,,,,2,2,2,1,,,,,,,,,,,1767.2465,1767.7466,1767.9966,1770.2801,space,2.2688,,1770.2802,66,11,1771.2798,1771.2799,1771.2905,,,,0,32,32,32,1,50,175,,,,,,,,
,,,001,2023-12-14_08h15.28.439,bars,2023.2.3,Win32,59.88023952,,,,,,1771.2907,1772.2799,,,1772.7792,1773.0291,,77,77,,,,,,,,,,,,,,,,bars/013.png,bars/mask009.png,,,,,,,,,,,,4,1,,,,,,,4,4,4,4,,,,,,,,,,,1772.2799,1772.7792,1773.0291,1775.1799,space,2.1334,,1775.18,2,67,1776.1798,1776.1798,1776.1911,,,,0,33,33,33,1,75,10,,,,,,,,
,,,001,2023-12-14_08h15.28.439,bars,2023.2.3,Win32,59.88023952,,,,,,1776.1911,1777.1797,,,1777.6798,1777.9298,,73,73,,,,,,,,,,,,,,,,bars/038.png,bars/mask002.png,,,,,,,,,,,,4,2,,,,,,,6,6,5,4,,,,,,,,,,,1777.1797,1777.6798,1777.9298,1782.4633,space,4.515,,1782.4634,88,3,1783.4631,1783.4631,1783.4735,,,,0,34,34,34,1,165,70,,,,,,,,
,,,001,2023-12-14_08h15.28.439,bars,2023.2.3,Win32,59.88023952,,,,,,1783.4735,1784.4631,,,1784.9637,1785.2131,,35,215,,,,,,,,,,,,,,,,bars/047.png,bars/mask001.png,,,,,,,,,,,,2,1,,,,,,,4,4,5,3,,,,,,,,,,,1784.4631,1784.9637,1785.2132,1789.0962,space,3.8655,,1789.0963,20,35,1790.0963,1790.0964,1790.1139,,,,0,35,35,35,1,15,70,,,,,,,,
,,,001,2023-12-14_08h15.28.439,bars,2023.2.3,Win32,59.88023952,,,,,,1790.1141,1791.1133,,,1791.6132,1791.8632,,38,38,,,,,,,,,,,,,,,,bars/024.png,bars/mask001.png,,,,,,,,,,,,0,2,,,,,,,2,2,3,2,,,,,,,,,,,1791.1133,1791.6131,1791.8632,1793.3466,space,1.4649,,1793.3466,82,48,1794.3465,1794.3466,1794.3693,,,,0,36,36,36,1,120,170,,,,,,,,
,,,001,2023-12-14_08h15.28.439,bars,2023.2.3,Win32,59.88023952,,,,,,1794.3696,1795.3631,,,1795.8629,1796.1132,,145,-35,,,,,,,,,,,,,,,,bars/005.png,bars/mask005.png,,,,,,,,,,,,0,2,,,,,,,0,0,0,0,,,,,,,,,,,1795.3631,1795.8628,1796.1133,1800.0467,space,3.9209,,1800.0468,45,5,1801.0466,1801.0466,1801.0564,,,,0,37,37,37,1,10,140,,,,,,,,
,,,001,2023-12-14_08h15.28.439,bars,2023.2.3,Win32,59.88023952,,,,,,1801.0565,1802.0467,,,1802.5466,1802.7966,,2,182,,,,,,,,,,,,,,,,bars/015.png,bars/mask003.png,,,,,,,,,,,,1,2,,,,,,,2,2,2,2,,,,,,,,,,,1802.0467,1802.5465,1802.7967,1803.7131,space,0.9059,,1803.7132,72,22,1804.7131,1804.7131,1804.7142,,,,0,38,38,38,1,110,160,,,,,,,,
,,,001,2023-12-14_08h15.28.439,bars,2023.2.3,Win32,59.88023952,,,,,,1804.7146,1805.7132,,,1806.2128,1806.4631,,61,61,,,,,,,,,,,,,,,,bars/013.png,bars/mask001.png,,,,,,,,,,,,3,1,,,,,,,4,4,6,5,,,,,,,,,,,1805.7133,1806.2128,1806.4631,1807.5134,space,1.0418,,1807.5135,14,51,1808.513,1808.5131,1808.5159,,,,0,39,39,39,1,75,10,,,,,,,,
,,,001,2023-12-14_08h15.28.439,bars,2023.2.3,Win32,59.88023952,,,,,,1808.5165,1809.5131,,,1810.0132,1810.2631,,112,112,,,,,,,,,,,,,,,,bars/014.png,bars/mask000.png,,,,,,,,,,,,0,1,,,,,,,2,2,2,2,,,,,,,,,,,1809.5131,1810.0131,1810.2631,1812.3463,space,2.0738,,1812.3464,32,68,1813.3466,1813.3467,1813.3477,,,,0,40,40,40,1,80,0,,,,,,,,
,,,001,2023-12-14_08h15.28.439,bars,2023.2.3,Win32,59.88023952,,,,,,1813.3481,1814.3466,,,1814.8467,1815.0963,,94,94,,,,,,,,,,,,,,,,bars/030.png,bars/mask005.png,,,,,,,,,,,,0,2,,,,,,,4,4,2,2,,,,,,,,,,,1814.3466,1814.8466,1815.0963,1816.0631,space,0.9532,,1816.0632,46,29,1817.0631,1817.0631,1817.0656,,,,0,41,41,41,1,140,65,,,,,,,,
,,,001,2023-12-14_08h15.28.439,bars,2023.2.3,Win32,59.88023952,,,,,,1817.066,1818.0631,,,1818.5632,1818.813,,151,151,,,,,,,,,,,,,,,,bars/013.png,bars/mask000.png,,,,,,,,,,,,0,2,,,,,,,2,6,1,7,,,,,,,,,,,1818.0632,1818.5631,1818.8131,1821.58,space,2.7513,,1821.58,76,39,1822.5795,1822.5796,1822.5869,,,,0,42,42,42,1,75,10,,,,,,,,
,,,001,2023-12-14_08h15.28.439,bars,2023.2.3,Win32,59.88023952,,,,,,1822.587,1823.5791,,,1824.08,1824.3292,,135,135,,,,,,,,,,,,,,,,bars/037.png,bars/mask008.png,,,,,,,,,,,,0,1,,,,,,,0,8,0,8,,,,,,,,,,,1823.5792,1824.0799,1824.3292,1829.4633,space,5.1194,,1829.4633,15,30,1830.463,1830.4631,1830.4734,,,,0,43,43,43,1,150,105,,,,,,,,
,,,001,2023-12-14_08h15.28.439,bars,2023.2.3,Win32,59.88023952,,,,,,1830.4735,1831.463,,,1831.9628,1832.2131,,119,119,,,,,,,,,,,,,,,,bars/032.png,bars/mask000.png,,,,,,,,,,,,1,1,,,,,,,0,6,1,5,,,,,,,,,,,1831.4631,1831.9628,1832.2132,1834.4793,space,2.2524,,1834.4794,6,81,1835.4798,1835.4799,1835.4902,,,,0,44,44,44,1,125,20,,,,,,,,
,,,001,2023-12-14_08h15.28.439,bars,2023.2.3,Win32,59.88023952,,,,,,1835.4903,1836.4799,,,1836.9795,1837.2298,,164,-16,,,,,,,,,,,,,,,,bars/035.png,bars/mask003.png,,,,,,,,,,,,1,1,,,,,,,2,4,1,5,,,,,,,,,,,1836.48,1836.9795,1837.2298,1838.3631,space,1.1213,,1838.3632,11,76,1839.3631,1839.3631,1839.3641,,,,0,45,45,45,1,175,60,,,,,,,,
,,,001,2023-12-14_08h15.28.439,bars,2023.2.3,Win32,59.88023952,,,,,,1839.3645,1840.363,,,1840.8633,1841.1124,,0,180,,,,,,,,,,,,,,,,bars/035.png,bars/mask008.png,,,,,,,,,,,,3,1,,,,,,,4,2,3,3,,,,,,,,,,,1840.363,1840.8632,1841.1124,1844.7133,space,3.5849,,1844.7134,5,60,1845.7131,1845.7132,1845.7232,,,,0,46,46,46,1,175,60,,,,,,,,
,,,001,2023-12-14_08h15.28.439,bars,2023.2.3,Win32,59.88023952,,,,,,1845.7233,1846.7132,,,1847.2132,1847.4631,,90,90,,,,,,,,,,,,,,,,bars/028.png,bars/mask006.png,,,,,,,,,,,,0,2,,,,,,,6,4,7,4,,,,,,,,,,,1846.7132,1847.2132,1847.4632,1851.4963,space,4.0181,,1851.4963,45,30,1852.4964,1852.4964,1852.518,,,,0,47,47,47,1,45,120,,,,,,,,
,,,001,2023-12-14_08h15.28.439,bars,2023.2.3,Win32,59.88023952,,,,,,1852.5183,1853.5128,,,1854.0131,1854.2631,,174,174,,,,,,,,,,,,,,,,bars/029.png,bars/mask009.png,,,,,,,,,,,,0,2,,,,,,,4,2,4,2,,,,,,,,,,,1853.5129,1854.0131,1854.2632,1856.2795,space,2.0015,,1856.2795,84,51,1857.2799,1857.2799,1857.3006,,,,0,48,48,48,1,90,45,,,,,,,,
,,,001,2023-12-14_08h15.28.439,bars,2023.2.3,Win32,59.88023952,,,,,,1857.3008,1858.2964,,,1858.7966,1859.0466,,114,114,,,,,,,,,,,,,,,,bars/015.png,bars/mask008.png,,,,,,,,,,,,5,1,,,,,,,6,4,6,5,,,,,,,,,,,1858.2965,1858.7965,1859.0466,1861.2131,space,2.149,,1861.2131,4,46,1862.2131,1862.2132,1862.2348,,,,0,49,49,49,1,110,160,,,,,,,,
,,,001,2023-12-14_08h15.28.439,bars,2023.2.3,Win32,59.88023952,,,,,,,,,,,,,,,,,,,,,,,,,,,,,,,,,,,,,,,,,,,,,,,,,,,,,,,,,,,,,,,,,,,,,,,,,,,,,,,,,,,,,,,,1862.2349,1922.2299,0,2,2,1,1,sequence_tables/blk048.csv
,,,001,2023-12-14_08h15.28.439,bars,2023.2.3,Win32,59.88023952,,,,,,1923.2706,1924.2631,,,1924.7632,1925.0131,,117,117,,,,,,,,,,,,,,,,bars/004.png,bars/mask007.png,,,,,,,,,,,,5,2,,,,,,,1,9,1,7,,,,,,1922.2519,1923.2633,space,1.0012,,1924.2631,1924.7632,1925.0132,1927.0967,space,2.066,,1927.0968,88,8,1928.0965,1928.0965,1928.0998,,,,0,0,0,0,1,25,125,,,,,,,,
,,,001,2023-12-14_08h15.28.439,bars,2023.2.3,Win32,59.88023952,,,,,,1928.1005,1929.0966,,,1929.5963,1929.8463,,78,78,,,,,,,,,,,,,,,,bars/008.png,bars/mask004.png,,,,,,,,,,,,0,1,,,,,,,3,7,5,6,,,,,,,,,,,1929.0966,1929.5962,1929.8464,1932.8132,space,2.9491,,1932.8133,32,78,1933.813,1933.813,1933.8364,,,,0,1,1,1,1,110,0,,,,,,,,
,,,001,2023-12-14_08h15.28.439,bars,2023.2.3,Win32,59.88023952,,,,,,1933.8366,1934.8297,,,1935.33,1935.5797,,137,137,,,,,,,,,,,,,,,,bars/032.png,bars/mask001.png,,,,,,,,,,,,2,1,,,,,,,5,9,4,9,,,,,,,,,,,1934.8298,1935.33,1935.5798,1938.5466,space,2.9572,,1938.5466,12,63,1939.5465,1939.5466,1939.5563,,,,0,2,2,2,1,125,20,,,,,,,,
,,,001,2023-12-14_08h15.28.439,bars,2023.2.3,Win32,59.88023952,,,,,,1939.5564,1940.5465,,,1941.0467,1941.2967,,58,58,,,,,,,,,,,,,,,,bars/036.png,bars/mask007.png,,,,,,,,,,,,0,2,,,,,,,3,7,5,10,,,,,,,,,,,1940.5465,1941.0466,1941.2967,1944.9632,space,3.6538,,1944.9632,87,38,1945.9631,1945.9631,1945.9735,,,,0,3,3,3,1,145,20,,,,,,,,
,,,001,2023-12-14_08h15.28.439,bars,2023.2.3,Win32,59.88023952,,,,,,1945.9737,1946.9631,,,1947.4632,1947.7132,,30,30,,,,,,,,,,,,,,,,bars/034.png,bars/mask007.png,,,,,,,,,,,,0,2,,,,,,,1,5,1,4,,,,,,,,,,,1946.9631,1947.4631,1947.7132,1950.1799,space,2.4557,,1950.18,85,35,1951.1796,1951.1796,1951.2005,,,,0,4,4,4,1,125,65,,,,,,,,
,,,001,2023-12-14_08h15.28.439,bars,2023.2.3,Win32,59.88023952,,,,,,1951.2008,1952.1965,,,1952.6966,1952.9462,,108,108,,,,,,,,,,,,,,,,bars/023.png,bars/mask000.png,,,,,,,,,,,,1,2,,,,,,,3,3,5,1,,,,,,,,,,,1952.1966,1952.6965,1952.9462,1954.1467,space,1.192,,1954.1467,88,7,1955.1464,1955.1464,1955.1476,,,,0,5,5,5,1,20,115,,,,,,,,
,,,001,2023-12-14_08h15.28.439,bars,2023.2.3,Win32,59.88023952,,,,,,1955.148,1956.1465,,,1956.6465,1956.8966,,158,158,,,,,,,,,,,,,,,,bars/001.png,bars/mask002.png,,,,,,,,,,,,0,1,,,,,,,5,1,7,2,,,,,,,,,,,1956.1465,1956.6465,1956.8966,1959.7466,space,2.8342,,1959.7467,28,73,1960.7464,1960.7464,1960.7688,,,,0,6,6,6,1,130,85,,,,,,,,
,,,001,2023-12-14_08h15.28.439,bars,2023.2.3,Win32,59.88023952,,,,,,1960.769,1961.7627,,,1962.2631,1962.5127,,45,45,,,,,,,,,,,,,,,,bars/003.png,bars/mask004.png,,,,,,,,,,,,1,1,,,,,,,3,3,3,3,,,,,,,,,,,1961.7627,1962.2631,1962.5128,1964.2633,space,1.7344,,1964.2633,20,85,1965.263,1965.2631,1965.273,,,,0,7,7,7,1,25,140,,,,,,,,
,,,001,2023-12-14_08h15.28.439,bars,2023.2.3,Win32,59.88023952,,,,,,1965.2731,1966.2631,,,1966.7631,1967.0127,,70,70,,,,,,,,,,,,,,,,bars/007.png,bars/mask008.png,,,,,,,,,,,,1,2,,,,,,,5,1,3,1,,,,,,,,,,,1966.2632,1966.7631,1967.0127,1968.1133,space,1.0863,,1968.1133,75,15,1969.1123,1969.1124,1969.1136,,,,0,8,8,8,1,175,55,,,,,,,,
,,,001,2023-12-14_08h15.28.439,bars,2023.2.3,Win32,59.88023952,,,,,,1969.114,1970.1131,,,1970.6128,1970.8632,,41,221,,,,,,,,,,,,,,,,bars/020.png,bars/mask001.png,,,,,,,,,,,,0,2,,,,,,,3,3,2,5,,,,,,,,,,,1970.1131,1970.6128,1970.8632,1973.7633,space,2.8812,,1973.7633,74,51,1974.7631,1974.7631,1974.7732,,,,0,9,9,9,1,115,170,,,,,,,,
,,,001,2023-12-14_08h15.28.439,bars,2023.2.3,Win32,59.88023952,,,,,,1974.7732,1975.7631,,,1976.2631,1976.5132,,107,107,,,,,,,,,,,,,,,,bars/005.png,bars/mask004.png,,,,,,,,,,,,0,2,,,,,,,1,1,0,0,,,,,,,,,,,1975.7631,1976.2631,1976.5132,1984.5795,space,8.0544,,1984.5795,83,33,1985.5795,1985.5795,1985.5872,,,,0,10,10,10,1,10,140,,,,,,,,
,,,001,2023-12-14_08h15.28.439,bars,2023.2.3,Win32,59.88023952,,,,,,1985.5872,1986.5798,,,1987.08,1987.3299,,44,44,,,,,,,,,,,,,,,,bars/000.png,bars/mask003.png,,,,,,,,,,,,3,1,,,,,,,3,0,3,0,,,,,,,,,,,1986.5798,1987.0799,1987.3299,1989.6299,space,2.2851,,1989.63,4,79,1990.6299,1990.6299,1990.6403,,,,0,11,11,11,1,40,145,,,,,,,,
,,,001,2023-12-14_08h15.28.439,bars,2023.2.3,Win32,59.88023952,,,,,,1990.6404,1991.6298,,,1992.1297,1992.3799,,91,91,,,,,,,,,,,,,,,,bars/007.png,bars/mask009.png,,,,,,,,,,,,0,2,,,,,,,5,0,6,0,,,,,,,,,,,1991.6299,1992.1297,1992.3799,1996.03,space,3.6359,,1996.03,84,36,1997.0299,1997.03,1997.0405,,,,0,12,12,12,1,175,55,,,,,,,,
,,,001,2023-12-14_08h15.28.439,bars,2023.2.3,Win32,59.88023952,,,,,,1997.0406,1998.0292,,,1998.5293,1998.7821,,166,166,,,,,,,,,,,,,,,,bars/048.png,bars/mask009.png,,,,,,,,,,,,1,2,,,,,,,7,2,7,2,,,,,,,,,,,1998.0292,1998.5293,1998.7821,2020.8967,space,22.0974,,2020.8968,64,9,2021.8959,2021.8959,2021.9042,,,,0,13,13,13,1,50,175,,,,,,,,
,,,001,2023-12-14_08h15.28.439,bars,2023.2.3,Win32,59.88023952,,,,,,2021.9043,2022.8965,,,2023.3966,2023.6463,,89,89,,,,,,,,,,,,,,,,bars/001.png,bars/mask004.png,,,,,,,,,,,,4,2,,,,,,,5,4,6,5,,,,,,,,,,,2022.8965,2023.3965,2023.6464,2025.1967,space,1.5378,,2025.1968,41,4,2026.1964,2026.1965,2026.2066,,,,0,14,14,14,1,130,85,,,,,,,,
,,,001,2023-12-14_08h15.28.439,bars,2023.2.3,Win32,59.88023952,,,,,,2026.2067,2027.1965,,,2027.6963,2027.9466,,32,32,,,,,,,,,,,,,,,,bars/014.png,bars/mask002.png,,,,,,,,,,,,0,2,,,,,,,3,2,3,1,,,,,,,,,,,2027.1966,2027.6962,2027.9466,2030.53,space,2.5673,,2030.5301,48,32,2031.5299,2031.5299,2031.5311,,,,0,15,15,15,1,80,0,,,,,,,,
,,,001,2023-12-14_08h15.28.439,bars,2023.2.3,Win32,59.88023952,,,,,,2031.5315,2032.5299,,,2033.03,2033.2799,,94,94,,,,,,,,,,,,,,,,bars/027.png,bars/mask000.png,,,,,,,,,,,,1,1,,,,,,,1,0,3,0,,,,,,,,,,,2032.5299,2033.03,2033.2799,2034.6135,space,1.3214,,2034.6136,16,44,2035.6131,2035.6131,2035.6159,,,,0,16,16,16,1,110,50,,,,,,,,
,,,001,2023-12-14_08h15.28.439,bars,2023.2.3,Win32,59.88023952,,,,,,2035.6166,2036.613,,,2037.1131,2037.3631,,159,-21,,,,,,,,,,,,,,,,bars/006.png,bars/mask006.png,,,,,,,,,,,,0,1,,,,,,,0,2,0,1,,,,,,,,,,,2036.6131,2037.1131,2037.3632,2038.6966,space,1.318,,2038.6966,56,59,2039.6966,2039.6967,2039.7068,,,,0,17,17,17,1,35,100,,,,,,,,
,,,001,2023-12-14_08h15.28.439,bars,2023.2.3,Win32,59.88023952,,,,,,2039.7069,2040.6965,,,2041.1965,2041.4465,,156,156,,,,,,,,,,,,,,,,bars/011.png,bars/mask006.png,,,,,,,,,,,,2,1,,,,,,,2,4,2,5,,,,,,,,,,,2040.6965,2041.1965,2041.4466,2042.7296,space,1.2751,,2042.7297,4,71,2043.7299,2043.7299,2043.7396,,,,0,18,18,18,1,160,85,,,,,,,,
,,,001,2023-12-14_08h15.28.439,bars,2023.2.3,Win32,59.88023952,,,,,,2043.7397,2046.9029,,,2046.9034,2046.9036,,78,78,,,,,,,,,,,,,,,,bars/026.png,bars/mask001.png,,,,,,,,,,,,2,2,,,,,,,0,2,0,2,,,,,,,,,,,2046.903,2046.9034,2046.9036,2051.9132,space,4.9953,,2051.9132,43,7,2052.9129,2052.913,2052.9225,,,,0,19,19,19,1,35,85,,,,,,,,
,,,001,2023-12-14_08h15.28.439,bars,2023.2.3,Win32,59.88023952,,,,,,2052.9226,2053.9131,,,2054.4132,2054.6632,,69,69,,,,,,,,,,,,,,,,bars/029.png,bars/mask004.png,,,,,,,,,,,,0,1,,,,,,,0,4,0,4,,,,,,,,,,,2053.9131,2054.4131,2054.6632,2055.9634,space,1.2899,,2055.9634,21,24,2056.9631,2056.9631,2056.9658,,,,0,20,20,20,1,90,45,,,,,,,,
,,,001,2023-12-14_08h15.28.439,bars,2023.2.3,Win32,59.88023952,,,,,,2056.9665,2057.963,,,2058.463,2058.7132,,169,169,,,,,,,,,,,,,,,,bars/012.png,bars/mask003.png,,,,,,,,,,,,1,2,,,,,,,0,6,1,7,,,,,,,,,,,2057.963,2058.463,2058.7132,2060.3134,space,1.5924,,2060.3134,79,26,2061.3125,2061.3126,2061.3142,,,,0,21,21,21,1,90,15,,,,,,,,
,,,001,2023-12-14_08h15.28.439,bars,2023.2.3,Win32,59.88023952,,,,,,2061.3144,2065.8061,,,2065.8139,2065.8142,,149,149,,,,,,,,,,,,,,,,bars/019.png,bars/mask004.png,,,,,,,,,,,,0,2,,,,,,,0,4,0,5,,,,,,,,,,,2065.8061,2065.8139,2065.8142,2067.7967,space,1.9725,,2067.7968,76,44,2068.7965,2068.7966,2068.7978,,,,0,22,22,22,1,45,105,,,,,,,,
,,,001,2023-12-14_08h15.28.439,bars,2023.2.3,Win32,59.88023952,,,,,,2068.7982,2069.7966,,,2070.2964,2070.5463,,139,-41,,,,,,,,,,,,,,,,bars/000.png,bars/mask002.png,,,,,,,,,,,,5,2,,,,,,,0,6,1,6,,,,,,,,,,,2069.7966,2070.2964,2070.5463,2073.0796,space,2.5181,,2073.0796,81,6,2074.0799,2074.08,2074.1019,,,,0,23,23,23,1,40,145,,,,,,,,
,,,001,2023-12-14_08h15.28.439,bars,2023.2.3,Win32,59.88023952,,,,,,2074.1022,2075.0964,,,2075.5961,2075.8465,,33,33,,,,,,,,,,,,,,,,bars/005.png,bars/mask008.png,,,,,,,,,,,,0,1,,,,,,,0,4,1,6,,,,,,,,,,,2075.0965,2075.596,2075.8466,2077.3634,space,1.5008,,2077.3634,23,73,2078.3632,2078.3632,2078.3877,,,,0,24,24,24,1,10,140,,,,,,,,
,,,001,2023-12-14_08h15.28.439,bars,2023.2.3,Win32,59.88023952,,,,,,2078.388,2079.3799,,,2079.8796,2080.1296,,131,131,,,,,,,,,,,,,,,,bars/020.png,bars/mask002.png,,,,,,,,,,,,0,1,,,,,,,0,2,0,1,,,,,,,,,,,2079.38,2079.8795,2080.1297,2081.9133,space,1.7747,,2081.9134,16,39,2082.9128,2082.9128,2082.9133,,,,0,25,25,25,1,115,170,,,,,,,,
,,,001,2023-12-14_08h15.28.439,bars,2023.2.3,Win32,59.88023952,,,,,,2082.9134,2083.9131,,,2084.4131,2084.6628,,89,89,,,,,,,,,,,,,,,,bars/001.png,bars/mask009.png,,,,,,,,,,,,3,2,,,,,,,2,4,4,4,,,,,,,,,,,2083.9132,2084.4131,2084.6628,2087.4468,space,2.7693,,2087.4469,41,4,2088.4463,2088.4464,2088.4696,,,,0,26,26,26,1,130,85,,,,,,,,
,,,001,2023-12-14_08h15.28.439,bars,2023.2.3,Win32,59.88023952,,,,,,2088.4698,2089.4629,,,2089.9633,2090.2132,,50,50,,,,,,,,,,,,,,,,bars/000.png,bars/mask009.png,,,,,,,,,,,,0,1,,,,,,,0,2,0,5,,,,,,,,,,,2089.4629,2089.9633,2090.2133,2092.3467,space,2.118,,2092.3469,10,85,2093.3465,2093.3466,2093.3502,,,,0,27,27,27,1,40,145,,,,,,,,
,,,001,2023-12-14_08h15.28.439,bars,2023.2.3,Win32,59.88023952,,,,,,2093.3511,2094.3467,,,2094.8461,2095.0963,,145,-35,,,,,,,,,,,,,,,,bars/004.png,bars/mask008.png,,,,,,,,,,,,1,2,,,,,,,2,4,1,4,,,,,,,,,,,2094.3468,2094.8461,2095.0963,2097.9134,space,2.8016,,2097.9135,60,20,2098.9128,2098.9128,2098.9214,,,,0,28,28,28,1,25,125,,,,,,,,
,,,001,2023-12-14_08h15.28.439,bars,2023.2.3,Win32,59.88023952,,,,,,2098.9215,2099.9127,,,2100.4134,2100.6631,,2,2,,,,,,,,,,,,,,,,bars/024.png,bars/mask000.png,,,,,,,,,,,,2,2,,,,,,,0,2,0,3,,,,,,,,,,,2099.9128,2100.4133,2100.6631,2102.8633,space,2.1837,,2102.8634,62,12,2103.8631,2103.8631,2103.8726,,,,0,29,29,29,1,120,170,,,,,,,,
,,,001,2023-12-14_08h15.28.439,bars,2023.2.3,Win32,59.88023952,,,,,,2103.8727,2104.863,,,2105.3633,2105.6125,,85,-95,,,,,,,,,,,,,,,,bars/040.png,bars/mask001.png,,,,,,,,,,,,0,1,,,,,,,0,4,0,6,,,,,,,,,,,2104.8631,2105.3632,2105.6125,2109.2301,space,3.6025,,2109.2302,55,80,2110.23,2110.23,2110.2529,,,,0,30,30,30,1,140,5,,,,,,,,
,,,001,2023-12-14_08h15.28.439,bars,2023.2.3,Win32,59.88023952,,,,,,2110.2531,2111.2465,,,2111.7466,2111.9965,,170,170,,,,,,,,,,,,,,,,bars/046.png,bars/mask003.png,,,,,,,,,,,,1,1,,,,,,,0,2,1,1,,,,,,,,,,,2111.2467,2111.7465,2111.9966,2113.5293,space,1.5171,,2113.5293,15,85,2114.5299,2114.5299,2114.5311,,,,0,31,31,31,1,155,85,,,,,,,,
,,,001,2023-12-14_08h15.28.439,bars,2023.2.3,Win32,59.88023952,,,,,,2114.5315,2115.5299,,,2116.0299,2116.2799,,119,119,,,,,,,,,,,,,,,,bars/045.png,bars/mask003.png,,,,,,,,,,,,0,1,,,,,,,2,4,1,5,,,,,,,,,,,2115.5299,2116.0298,2116.2799,2117.0968,space,0.8007,,2117.0969,19,71,2118.0965,2118.0966,2118.0977,,,,0,32,32,32,1,100,10,,,,,,,,
,,,001,2023-12-14_08h15.28.439,bars,2023.2.3,Win32,59.88023952,,,,,,2118.0982,2119.0965,,,2119.5963,2119.8463,,71,71,,,,,,,,,,,,,,,,bars/047.png,bars/mask009.png,,,,,,,,,,,,4,2,,,,,,,4,2,2,4,,,,,,,,,,,2119.0966,2119.5962,2119.8464,2120.5458,space,0.6892,,2120.5458,56,1,2121.5464,2121.5465,2121.5495,,,,0,33,33,33,1,15,70,,,,,,,,
,,,001,2023-12-14_08h15.28.439,bars,2023.2.3,Win32,59.88023952,,,,,,2121.5503,2122.5464,,,2123.0465,2123.2965,,67,67,,,,,,,,,,,,,,,,bars/012.png,bars/mask002.png,,,,,,,,,,,,0,1,,,,,,,2,4,0,3,,,,,,,,,,,2122.5465,2123.0465,2123.2965,2124.03,space,0.7173,,2124.0301,23,52,2125.0295,2125.0296,2125.0328,,,,0,34,34,34,1,90,15,,,,,,,,
,,,001,2023-12-14_08h15.28.439,bars,2023.2.3,Win32,59.88023952,,,,,,2125.0338,2126.0298,,,2126.5297,2126.7798,,50,50,,,,,,,,,,,,,,,,bars/014.png,bars/mask004.png,,,,,,,,,,,,0,1,,,,,,,0,6,0,6,,,,,,,,,,,2126.0299,2126.5296,2126.7798,2129.563,space,2.7729,,2129.563,30,50,2130.5631,2130.5632,2130.5858,,,,0,35,35,35,1,80,0,,,,,,,,
,,,001,2023-12-14_08h15.28.439,bars,2023.2.3,Win32,59.88023952,,,,,,2130.586,2131.5796,,,2132.08,2132.3296,,163,163,,,,,,,,,,,,,,,,bars/000.png,bars/mask001.png,,,,,,,,,,,,1,2,,,,,,,0,4,0,3,,,,,,,,,,,2131.5797,2132.0799,2132.3296,2134.3802,space,2.0398,,2134.3802,57,18,2135.3799,2135.3799,2135.3834,,,,0,36,36,36,1,40,145,,,,,,,,
,,,001,2023-12-14_08h15.28.439,bars,2023.2.3,Win32,59.88023952,,,,,,2135.3844,2136.3799,,,2136.88,2137.1296,,43,223,,,,,,,,,,,,,,,,bars/037.png,bars/mask001.png,,,,,,,,,,,,0,2,,,,,,,0,6,0,5,,,,,,,,,,,2136.3799,2136.8799,2137.1297,2143.1465,space,6.0078,,2143.1465,73,62,2144.1465,2144.1466,2144.1705,,,,0,37,37,37,1,150,105,,,,,,,,
,,,001,2023-12-14_08h15.28.439,bars,2023.2.3,Win32,59.88023952,,,,,,2144.1705,2145.1632,,,2145.6632,2145.9133,,144,-36,,,,,,,,,,,,,,,,bars/036.png,bars/mask008.png,,,,,,,,,,,,0,1,,,,,,,0,4,0,6,,,,,,,,,,,2145.1632,2145.6631,2145.9134,2147.4633,space,1.5351,,2147.4633,1,56,2148.463,2148.4631,2148.4865,,,,0,38,38,38,1,145,20,,,,,,,,
,,,001,2023-12-14_08h15.28.439,bars,2023.2.3,Win32,59.88023952,,,,,,2148.4867,2149.4796,,,2149.9799,2150.2298,,116,116,,,,,,,,,,,,,,,,bars/030.png,bars/mask005.png,,,,,,,,,,,,0,1,,,,,,,2,2,1,2,,,,,,,,,,,2149.4797,2149.9798,2150.2299,2152.4793,space,2.2329,,2152.4794,24,51,2153.4799,2153.4799,2153.4811,,,,0,39,39,39,1,140,65,,,,,,,,
,,,001,2023-12-14_08h15.28.439,bars,2023.2.3,Win32,59.88023952,,,,,,2153.4816,2154.4799,,,2154.9801,2155.2299,,91,91,,,,,,,,,,,,,,,,bars/014.png,bars/mask009.png,,,,,,,,,,,,3,1,,,,,,,4,4,4,3,,,,,,,,,,,2154.48,2154.9801,2155.2299,2156.3964,space,1.1554,,2156.3964,11,89,2157.3965,2157.3965,2157.3977,,,,0,40,40,40,1,80,0,,,,,,,,
,,,001,2023-12-14_08h15.28.439,bars,2023.2.3,Win32,59.88023952,,,,,,2157.3981,2158.3965,,,2158.8966,2159.1466,,119,-61,,,,,,,,,,,,,,,,bars/035.png,bars/mask001.png,,,,,,,,,,,,0,1,,,,,,,6,2,5,3,,,,,,,,,,,2158.3966,2158.8965,2159.1467,2162.1965,space,3.0339,,2162.1966,56,59,2163.1966,2163.1967,2163.2186,,,,0,41,41,41,1,175,60,,,,,,,,
,,,001,2023-12-14_08h15.28.439,bars,2023.2.3,Win32,59.88023952,,,,,,2163.2189,2164.2131,,,2164.7132,2164.9631,,116,116,,,,,,,,,,,,,,,,bars/024.png,bars/mask005.png,,,,,,,,,,,,3,1,,,,,,,4,4,4,3,,,,,,,,,,,2164.2132,2164.7131,2164.9631,2168.3801,space,3.4009,,2168.3802,4,54,2169.38,2169.38,2169.39,,,,0,42,42,42,1,120,170,,,,,,,,
,,,001,2023-12-14_08h15.28.439,bars,2023.2.3,Win32,59.88023952,,,,,,2169.3902,2170.3799,,,2170.8798,2171.1295,,155,155,,,,,,,,,,,,,,,,bars/015.png,bars/mask008.png,,,,,,,,,,,,5,2,,,,,,,2,6,4,6,,,,,,,,,,,2170.38,2170.8798,2171.1295,2174.663,space,3.5177,,2174.663,45,5,2175.6631,2175.6632,2175.6876,,,,0,43,43,43,1,110,160,,,,,,,,
,,,001,2023-12-14_08h15.28.439,bars,2023.2.3,Win32,59.88023952,,,,,,2175.6878,2176.6798,,,2177.18,2177.43,,163,-17,,,,,,,,,,,,,,,,bars/007.png,bars/mask000.png,,,,,,,,,,,,3,1,,,,,,,4,4,5,3,,,,,,,,,,,2176.6799,2177.1799,2177.43,2180.2134,space,2.7678,,2180.2134,12,72,2181.2131,2181.2132,2181.2363,,,,0,44,44,44,1,175,55,,,,,,,,
,,,001,2023-12-14_08h15.28.439,bars,2023.2.3,Win32,59.88023952,,,,,,2181.2364,2182.2299,,,2182.73,2182.9799,,137,-43,,,,,,,,,,,,,,,,bars/047.png,bars/mask008.png,,,,,,,,,,,,0,1,,,,,,,6,6,5,6,,,,,,,,,,,2182.23,2182.73,2182.9799,2186.7631,space,3.7725,,2186.7633,58,67,2187.7631,2187.7631,2187.7853,,,,0,45,45,45,1,15,70,,,,,,,,
,,,001,2023-12-14_08h15.28.439,bars,2023.2.3,Win32,59.88023952,,,,,,2187.7856,2188.78,,,2189.2799,2189.5296,,127,-53,,,,,,,,,,,,,,,,bars/048.png,bars/mask007.png,,,,,,,,,,,,0,2,,,,,,,4,4,3,5,,,,,,,,,,,2188.78,2189.2798,2189.5296,2192.8801,space,3.3343,,2192.8802,77,48,2193.8798,2193.8799,2193.9031,,,,0,46,46,46,1,50,175,,,,,,,,
,,,001,2023-12-14_08h15.28.439,bars,2023.2.3,Win32,59.88023952,,,,,,2193.9033,2194.8964,,,2195.3966,2195.6465,,85,265,,,,,,,,,,,,,,,,bars/024.png,bars/mask006.png,,,,,,,,,,,,0,1,,,,,,,6,6,6,5,,,,,,,,,,,2194.8965,2195.3966,2195.6466,2203.2296,space,7.5657,,2203.2296,35,85,2204.2298,2204.2299,2204.2534,,,,0,47,47,47,1,120,170,,,,,,,,
,,,001,2023-12-14_08h15.28.439,bars,2023.2.3,Win32,59.88023952,,,,,,2204.2537,2205.2465,,,2205.7466,2205.9967,,155,-25,,,,,,,,,,,,,,,,bars/042.png,bars/mask006.png,,,,,,,,,,,,3,1,,,,,,,4,8,5,9,,,,,,,,,,,2205.2466,2205.7465,2205.9967,2208.1296,space,2.1234,,2208.1297,10,80,2209.1299,2209.13,2209.152,,,,0,48,48,48,1,145,75,,,,,,,,
,,,001,2023-12-14_08h15.28.439,bars,2023.2.3,Win32,59.88023952,,,,,,2209.1522,2210.1465,,,2210.6465,2210.896,,34,34,,,,,,,,,,,,,,,,bars/040.png,bars/mask007.png,,,,,,,,,,,,0,2,,,,,,,2,10,2,10,,,,,,,,,,,2210.1465,2210.6464,2210.896,2216.4467,space,5.5362,,2216.4468,74,29,2217.4463,2217.4464,2217.4698,,,,0,49,49,49,1,140,5,,,,,,,,
,,,001,2023-12-14_08h15.28.439,bars,2023.2.3,Win32,59.88023952,,,,,,,,,,,,,,,,,,,,,,,,,,,,,,,,,,,,,,,,,,,,,,,,,,,,,,,,,,,,,,,,,,,,,,,,,,,,,,,,,,,,,,,,2217.4699,2277.4633,0,3,3,3,1,sequence_tables/blk022.csv
,,,001,2023-12-14_08h15.28.439,bars,2023.2.3,Win32,59.88023952,,,,,,2282.1412,2283.1297,,,2283.63,2283.8799,,146,146,,,,,,,,,,,,,,,,bars/018.png,bars/mask001.png,,,,,,,,,,,,6,1,,,,,,,7,5,7,6,,,,,,2277.4728,2282.1133,space,4.628,,2283.1297,2283.6299,2283.8799,2307.6134,space,23.7183,,2307.6134,4,56,2308.6128,2308.6128,2308.6221,,,,0,0,0,0,1,150,90,,,,,,,,
,,,001,2023-12-14_08h15.28.439,bars,2023.2.3,Win32,59.88023952,,,,,,2308.6223,2309.6132,,,2310.1134,2310.3629,,133,133,,,,,,,,,,,,,,,,bars/010.png,bars/mask009.png,,,,,,,,,,,,0,1,,,,,,,5,7,5,7,,,,,,,,,,,2309.6133,2310.1132,2310.3629,2311.5126,space,1.141,,2311.5126,32,78,2312.5131,2312.5132,2312.5143,,,,0,1,1,1,1,165,55,,,,,,,,
,,,001,2023-12-14_08h15.28.439,bars,2023.2.3,Win32,59.88023952,,,,,,2312.5147,2313.5127,,,2314.0133,2314.263,,72,72,,,,,,,,,,,,,,,,bars/034.png,bars/mask002.png,,,,,,,,,,,,3,2,,,,,,,3,5,4,4,,,,,,,,,,,2313.5127,2314.0133,2314.2631,2315.2463,space,0.9653,,2315.2464,53,7,2316.2466,2316.2466,2316.25,,,,0,2,2,2,1,125,65,,,,,,,,
,,,001,2023-12-14_08h15.28.439,bars,2023.2.3,Win32,59.88023952,,,,,,2316.2511,2317.2465,,,2317.7463,2317.9965,,158,158,,,,,,,,,,,,,,,,bars/040.png,bars/mask003.png,,,,,,,,,,,,1,1,,,,,,,1,3,2,3,,,,,,,,,,,2317.2465,2317.7463,2317.9966,2319.3467,space,1.3343,,2319.3467,18,27,2320.3465,2320.3465,2320.3496,,,,0,3,3,3,1,140,5,,,,,,,,
,,,001,2023-12-14_08h15.28.439,bars,2023.2.3,Win32,59.88023952,,,,,,2320.3504,2321.3465,,,2321.8466,2322.0965,,101,101,,,,,,,,,,,,,,,,bars/029.png,bars/mask002.png,,,,,,,,,,,,1,1,,,,,,,3,5,2,6,,,,,,,,,,,2321.3466,2321.8465,2322.0966,2324.2971,space,2.1918,,2324.2972,11,56,2325.2963,2325.2963,2325.3059,,,,0,4,4,4,1,90,45,,,,,,,,
,,,001,2023-12-14_08h15.28.439,bars,2023.2.3,Win32,59.88023952,,,,,,2325.306,2326.2963,,,2326.7966,2327.0466,,59,239,,,,,,,,,,,,,,,,bars/030.png,bars/mask005.png,,,,,,,,,,,,2,2,,,,,,,1,3,3,2,,,,,,,,,,,2326.2963,2326.7966,2327.0467,2329.4808,space,2.4255,,2329.4809,81,6,2330.4798,2330.4799,2330.4834,,,,0,5,5,5,1,140,65,,,,,,,,
,,,001,2023-12-14_08h15.28.439,bars,2023.2.3,Win32,59.88023952,,,,,,2330.4844,2331.4799,,,2331.98,2332.2298,,146,146,,,,,,,,,,,,,,,,bars/010.png,bars/mask008.png,,,,,,,,,,,,1,1,,,,,,,3,1,2,1,,,,,,,,,,,2331.4799,2331.9799,2332.2299,2333.78,space,1.5381,,2333.7801,19,89,2334.7797,2334.7798,2334.8029,,,,0,6,6,6,1,165,55,,,,,,,,
,,,001,2023-12-14_08h15.28.439,bars,2023.2.3,Win32,59.88023952,,,,,,2334.8031,2335.7964,,,2336.2967,2336.5466,,108,108,,,,,,,,,,,,,,,,bars/022.png,bars/mask007.png,,,,,,,,,,,,3,1,,,,,,,5,0,6,0,,,,,,,,,,,2335.7964,2336.2966,2336.5466,2338.1634,space,1.6058,,2338.1634,13,88,2339.1632,2339.1632,2339.1734,,,,0,7,7,7,1,95,20,,,,,,,,
,,,001,2023-12-14_08h15.28.439,bars,2023.2.3,Win32,59.88023952,,,,,,2339.1735,2340.163,,,2340.6629,2340.9128,,126,126,,,,,,,,,,,,,,,,bars/035.png,bars/mask001.png,,,,,,,,,,,,0,1,,,,,,,7,0,7,0,,,,,,,,,,,2340.163,2340.6629,2340.9128,2342.3799,space,1.4565,,2342.38,49,66,2343.3799,2343.3799,2343.3811,,,,0,8,8,8,1,175,60,,,,,,,,
,,,001,2023-12-14_08h15.28.439,bars,2023.2.3,Win32,59.88023952,,,,,,2343.3815,2344.3799,,,2344.88,2345.13,,140,140,,,,,,,,,,,,,,,,bars/005.png,bars/mask004.png,,,,,,,,,,,,1,2,,,,,,,9,0,9,1,,,,,,,,,,,2344.38,2344.88,2345.13,2345.8468,space,0.702,,2345.8468,50,0,2346.8465,2346.8465,2346.8503,,,,0,9,9,9,1,10,140,,,,,,,,
,,,001,2023-12-14_08h15.28.439,bars,2023.2.3,Win32,59.88023952,,,,,,2346.8514,2347.8465,,,2348.3466,2348.5966,,65,65,,,,,,,,,,,,,,,,bars/002.png,bars/mask001.png,,,,,,,,,,,,0,2,,,,,,,10,2,9,1,,,,,,,,,,,2347.8466,2348.3465,2348.5967,2349.3634,space,0.7552,,2349.3635,65,20,2350.3629,2350.3629,2350.364,,,,0,10,10,10,1,130,85,,,,,,,,
,,,001,2023-12-14_08h15.28.439,bars,2023.2.3,Win32,59.88023952,,,,,,2350.3645,2351.3632,,,2351.8633,2352.1127,,136,-44,,,,,,,,,,,,,,,,bars/047.png,bars/mask002.png,,,,,,,,,,,,0,1,,,,,,,8,4,8,4,,,,,,,,,,,2351.3632,2351.8633,2352.1127,2353.9629,space,1.8349,,2353.963,59,66,2354.963,2354.963,2354.9797,,,,0,11,11,11,1,15,70,,,,,,,,
,,,001,2023-12-14_08h15.28.439,bars,2023.2.3,Win32,59.88023952,,,,,,2354.98,2355.98,,,2356.4799,2356.7298,,72,72,,,,,,,,,,,,,,,,bars/003.png,bars/mask006.png,,,,,,,,,,,,0,1,,,,,,,6,6,6,7,,,,,,,,,,,2355.98,2356.4799,2356.73,2358.18,space,1.4373,,2358.18,47,68,2359.1793,2359.1794,2359.187,,,,0,12,12,12,1,25,140,,,,,,,,
,,,001,2023-12-14_08h15.28.439,bars,2023.2.3,Win32,59.88023952,,,,,,2359.1871,2360.1791,,,2360.6798,2360.9299,,8,188,,,,,,,,,,,,,,,,bars/007.png,bars/mask005.png,,,,,,,,,,,,5,1,,,,,,,8,8,8,9,,,,,,,,,,,2360.1792,2360.6798,2360.9299,2361.7466,space,0.806,,2361.7467,13,47,2362.7464,2362.7464,2362.7477,,,,0,13,13,13,1,175,55,,,,,,,,
,,,001,2023-12-14_08h15.28.439,bars,2023.2.3,Win32,59.88023952,,,,,,2362.7481,2363.7465,,,2364.2465,2364.4966,,59,59,,,,,,,,,,,,,,,,bars/045.png,bars/mask005.png,,,,,,,,,,,,0,1,,,,,,,10,6,9,6,,,,,,,,,,,2363.7466,2364.2465,2364.4966,2365.9467,space,1.4341,,2365.9468,41,49,2366.9466,2366.9466,2366.9695,,,,0,14,14,14,1,100,10,,,,,,,,
,,,001,2023-12-14_08h15.28.439,bars,2023.2.3,Win32,59.88023952,,,,,,2366.9698,2367.9632,,,2368.4632,2368.7128,,117,117,,,,,,,,,,,,,,,,bars/027.png,bars/mask002.png,,,,,,,,,,,,8,1,,,,,,,10,4,10,3,,,,,,,,,,,2367.9632,2368.4632,2368.7128,2370.4292,space,1.7,,2370.4293,7,67,2371.4299,2371.4299,2371.4524,,,,0,15,15,15,1,110,50,,,,,,,,
,,,001,2023-12-14_08h15.28.439,bars,2023.2.3,Win32,59.88023952,,,,,,2371.4526,2372.4465,,,2372.9466,2373.1965,,14,194,,,,,,,,,,,,,,,,bars/047.png,bars/mask000.png,,,,,,,,,,,,10,1,,,,,,,10,6,10,5,,,,,,,,,,,2372.4465,2372.9466,2373.1966,2374.0968,space,0.883,,2374.0968,1,56,2375.0962,2375.0962,2375.0974,,,,0,16,16,16,1,15,70,,,,,,,,
,,,001,2023-12-14_08h15.28.439,bars,2023.2.3,Win32,59.88023952,,,,,,2375.0978,2376.0959,,,2376.5966,2376.8465,,105,105,,,,,,,,,,,,,,,,bars/010.png,bars/mask002.png,,,,,,,,,,,,0,2,,,,,,,10,4,10,5,,,,,,,,,,,2376.096,2376.5965,2376.8465,2377.6793,space,0.8167,,2377.6793,60,50,2378.6807,2378.6808,2378.7028,,,,0,17,17,17,1,165,55,,,,,,,,
,,,001,2023-12-14_08h15.28.439,bars,2023.2.3,Win32,59.88023952,,,,,,2378.703,2379.6961,,,2380.1966,2380.4462,,124,124,,,,,,,,,,,,,,,,bars/013.png,bars/mask004.png,,,,,,,,,,,,0,1,,,,,,,10,6,10,7,,,,,,,,,,,2379.6961,2380.1966,2380.4462,2382.7799,space,2.3231,,2382.78,49,66,2383.7798,2383.78,2383.8028,,,,0,18,18,18,1,75,10,,,,,,,,
,,,001,2023-12-14_08h15.28.439,bars,2023.2.3,Win32,59.88023952,,,,,,2383.803,2384.7966,,,2385.2966,2385.5466,,63,63,,,,,,,,,,,,,,,,bars/005.png,bars/mask000.png,,,,,,,,,,,,0,1,,,,,,,10,8,10,9,,,,,,,,,,,2384.7966,2385.2965,2385.5466,2388.3967,space,2.8344,,2388.3968,53,77,2389.3964,2389.3965,2389.4206,,,,0,19,19,19,1,10,140,,,,,,,,
,,,001,2023-12-14_08h15.28.439,bars,2023.2.3,Win32,59.88023952,,,,,,2389.4208,2390.413,,,2390.9127,2391.1632,,49,49,,,,,,,,,,,,,,,,bars/006.png,bars/mask004.png,,,,,,,,,,,,3,1,,,,,,,8,10,6,9,,,,,,,,,,,2390.4132,2390.9127,2391.1632,2393.696,space,2.5167,,2393.696,14,51,2394.6964,2394.6965,2394.6977,,,,0,20,20,20,1,35,100,,,,,,,,
,,,001,2023-12-14_08h15.28.439,bars,2023.2.3,Win32,59.88023952,,,,,,2394.6982,2395.6965,,,2396.1963,2396.4463,,107,107,,,,,,,,,,,,,,,,bars/006.png,bars/mask003.png,,,,,,,,,,,,7,2,,,,,,,6,10,6,9,,,,,,,,,,,2395.6966,2396.1963,2396.4463,2398.5302,space,2.0681,,2398.5303,72,7,2399.5299,2399.53,2399.5535,,,,0,21,21,21,1,35,100,,,,,,,,
,,,001,2023-12-14_08h15.28.439,bars,2023.2.3,Win32,59.88023952,,,,,,2399.5537,2400.5465,,,2401.0466,2401.2964,,94,94,,,,,,,,,,,,,,,,bars/038.png,bars/mask005.png,,,,,,,,,,,,2,2,,,,,,,4,8,3,9,,,,,,,,,,,2400.5466,2401.0465,2401.2964,2404.2966,space,2.9913,,2404.2968,71,24,2405.2965,2405.2966,2405.3192,,,,0,22,22,22,1,165,70,,,,,,,,
,,,001,2023-12-14_08h15.28.439,bars,2023.2.3,Win32,59.88023952,,,,,,2405.3194,2406.3131,,,2406.8132,2407.0631,,63,63,,,,,,,,,,,,,,,,bars/029.png,bars/mask000.png,,,,,,,,,,,,4,2,,,,,,,6,10,5,10,,,,,,,,,,,2406.3132,2406.8131,2407.0632,2410.18,space,3.1047,,2410.1801,27,18,2411.1797,2411.1797,2411.2018,,,,0,23,23,23,1,90,45,,,,,,,,
,,,001,2023-12-14_08h15.28.439,bars,2023.2.3,Win32,59.88023952,,,,,,2411.202,2412.1965,,,2412.6966,2412.9465,,80,80,,,,,,,,,,,,,,,,bars/012.png,bars/mask009.png,,,,,,,,,,,,5,1,,,,,,,8,10,8,10,,,,,,,,,,,2412.1965,2412.6966,2412.9466,2416.0633,space,3.1015,,2416.0635,10,65,2417.0632,2417.0632,2417.0859,,,,0,24,24,24,1,90,15,,,,,,,,
,,,001,2023-12-14_08h15.28.439,bars,2023.2.3,Win32,59.88023952,,,,,,2417.0861,2418.08,,,2418.5798,2418.8298,,139,139,,,,,,,,,,,,,,,,bars/018.png,bars/mask009.png,,,,,,,,,,,,4,1,,,,,,,6,8,7,7,,,,,,,,,,,2418.08,2418.5797,2418.8298,2422.9129,space,4.0675,,2422.913,11,49,2423.9131,2423.9132,2423.9224,,,,0,25,25,25,1,150,90,,,,,,,,
,,,001,2023-12-14_08h15.28.439,bars,2023.2.3,Win32,59.88023952,,,,,,2423.9225,2424.913,,,2425.413,2425.6631,,158,158,,,,,,,,,,,,,,,,bars/013.png,bars/mask007.png,,,,,,,,,,,,0,2,,,,,,,4,6,4,6,,,,,,,,,,,2424.9131,2425.4129,2425.6631,2431.1133,space,5.4342,,2431.1133,83,32,2432.1129,2432.1129,2432.1232,,,,0,26,26,26,1,75,10,,,,,,,,
,,,001,2023-12-14_08h15.28.439,bars,2023.2.3,Win32,59.88023952,,,,,,2432.1233,2433.1131,,,2433.6132,2433.8629,,129,-51,,,,,,,,,,,,,,,,bars/008.png,bars/mask000.png,,,,,,,,,,,,1,1,,,,,,,2,8,3,7,,,,,,,,,,,2433.1132,2433.6131,2433.863,2437.6633,space,3.7847,,2437.6633,19,51,2438.6631,2438.6631,2438.6866,,,,0,27,27,27,1,110,0,,,,,,,,
,,,001,2023-12-14_08h15.28.439,bars,2023.2.3,Win32,59.88023952,,,,,,2438.6869,2439.6799,,,2440.18,2440.43,,119,119,,,,,,,,,,,,,,,,bars/034.png,bars/mask002.png,,,,,,,,,,,,0,1,,,,,,,0,10,0,10,,,,,,,,,,,2439.6799,2440.18,2440.43,2441.4467,space,1.001,,2441.4468,6,54,2442.4465,2442.4467,2442.4477,,,,0,28,28,28,1,125,65,,,,,,,,
,,,001,2023-12-14_08h15.28.439,bars,2023.2.3,Win32,59.88023952,,,,,,2442.4482,2443.4464,,,2443.9468,2444.1965,,120,120,,,,,,,,,,,,,,,,bars/036.png,bars/mask009.png,,,,,,,,,,,,0,1,,,,,,,0,8,1,9,,,,,,,,,,,2443.4465,2443.9467,2444.1966,2445.6133,space,1.4014,,2445.6133,25,80,2446.6131,2446.6132,2446.6143,,,,0,29,29,29,1,145,20,,,,,,,,
,,,001,2023-12-14_08h15.28.439,bars,2023.2.3,Win32,59.88023952,,,,,,2446.6147,2447.6131,,,2448.1132,2448.3628,,178,-2,,,,,,,,,,,,,,,,bars/017.png,bars/mask001.png,,,,,,,,,,,,0,1,,,,,,,0,6,0,5,,,,,,,,,,,2447.6131,2448.1131,2448.3628,2449.4134,space,1.0354,,2449.4135,33,47,2450.4128,2450.4129,2450.4135,,,,0,30,30,30,1,145,45,,,,,,,,
,,,001,2023-12-14_08h15.28.439,bars,2023.2.3,Win32,59.88023952,,,,,,2450.4138,2451.4131,,,2451.9133,2452.1633,,20,20,,,,,,,,,,,,,,,,bars/049.png,bars/mask006.png,,,,,,,,,,,,0,1,,,,,,,2,8,3,9,,,,,,,,,,,2451.4132,2451.9132,2452.1634,2453.93,space,1.7491,,2453.9301,40,85,2454.9296,2454.9297,2454.9521,,,,0,31,31,31,1,160,115,,,,,,,,
,,,001,2023-12-14_08h15.28.439,bars,2023.2.3,Win32,59.88023952,,,,,,2454.9524,2455.9465,,,2456.4468,2456.6965,,139,139,,,,,,,,,,,,,,,,bars/045.png,bars/mask009.png,,,,,,,,,,,,0,1,,,,,,,0,10,0,9,,,,,,,,,,,2455.9466,2456.4467,2456.6966,2458.1464,space,1.4344,,2458.1464,39,51,2459.1465,2459.1465,2459.1688,,,,0,32,32,32,1,100,10,,,,,,,,
,,,001,2023-12-14_08h15.28.439,bars,2023.2.3,Win32,59.88023952,,,,,,2459.169,2460.1631,,,2460.6633,2460.9133,,149,149,,,,,,,,,,,,,,,,bars/014.png,bars/mask007.png,,,,,,,,,,,,0,2,,,,,,,2,10,3,10,,,,,,,,,,,2460.1632,2460.6632,2460.9134,2462.4465,space,1.5177,,2462.4465,69,31,2463.4463,2463.4463,2463.4537,,,,0,33,33,33,1,80,0,,,,,,,,
,,,001,2023-12-14_08h15.28.439,bars,2023.2.3,Win32,59.88023952,,,,,,2463.4538,2464.4466,,,2464.9466,2465.1962,,163,-17,,,,,,,,,,,,,,,,bars/047.png,bars/mask009.png,,,,,,,,,,,,0,1,,,,,,,0,10,0,10,,,,,,,,,,,2464.4466,2464.9466,2465.1963,2466.8302,space,1.6202,,2466.8303,32,87,2467.8299,2467.83,2467.8338,,,,0,34,34,34,1,15,70,,,,,,,,
,,,001,2023-12-14_08h15.28.439,bars,2023.2.3,Win32,59.88023952,,,,,,2467.8347,2468.8299,,,2469.3296,2469.5796,,53,53,,,,,,,,,,,,,,,,bars/000.png,bars/mask004.png,,,,,,,,,,,,1,1,,,,,,,2,10,2,10,,,,,,,,,,,2468.83,2469.3295,2469.5797,2471.3798,space,1.7833,,2471.3798,13,88,2472.38,2472.3801,2472.3813,,,,0,35,35,35,1,40,145,,,,,,,,
,,,001,2023-12-14_08h15.28.439,bars,2023.2.3,Win32,59.88023952,,,,,,2472.3816,2473.3799,,,2473.8795,2474.1294,,120,-60,,,,,,,,,,,,,,,,bars/022.png,bars/mask008.png,,,,,,,,,,,,0,1,,,,,,,0,10,0,10,,,,,,,,,,,2473.38,2473.8794,2474.1294,2476.8128,space,2.6672,,2476.8128,25,80,2477.8131,2477.8131,2477.8363,,,,0,36,36,36,1,95,20,,,,,,,,
,,,001,2023-12-14_08h15.28.439,bars,2023.2.3,Win32,59.88023952,,,,,,2477.8366,2478.8299,,,2479.3299,2479.5798,,164,-16,,,,,,,,,,,,,,,,bars/036.png,bars/mask001.png,,,,,,,,,,,,0,1,,,,,,,0,10,1,10,,,,,,,,,,,2478.83,2479.3299,2479.5798,2481.3966,space,1.8006,,2481.3967,19,36,2482.3965,2482.3966,2482.3976,,,,0,37,37,37,1,145,20,,,,,,,,
,,,001,2023-12-14_08h15.28.439,bars,2023.2.3,Win32,59.88023952,,,,,,2482.3981,2483.3965,,,2483.8966,2484.1465,,131,-49,,,,,,,,,,,,,,,,bars/003.png,bars/mask000.png,,,,,,,,,,,,6,2,,,,,,,2,8,1,9,,,,,,,,,,,2483.3966,2483.8965,2484.1466,2485.8798,space,1.7161,,2485.8798,74,9,2486.8792,2486.8793,2486.8873,,,,0,38,38,38,1,25,140,,,,,,,,
,,,001,2023-12-14_08h15.28.439,bars,2023.2.3,Win32,59.88023952,,,,,,2486.8873,2487.8798,,,2488.3802,2488.6301,,6,6,,,,,,,,,,,,,,,,bars/030.png,bars/mask006.png,,,,,,,,,,,,0,1,,,,,,,4,10,4,10,,,,,,,,,,,2487.8799,2488.3801,2488.6301,2489.9796,space,1.3317,,2489.9797,46,59,2490.9795,2490.9796,2490.9901,,,,0,39,39,39,1,140,65,,,,,,,,
,,,001,2023-12-14_08h15.28.439,bars,2023.2.3,Win32,59.88023952,,,,,,2490.9902,2491.9794,,,2492.4796,2492.7297,,112,112,,,,,,,,,,,,,,,,bars/042.png,bars/mask008.png,,,,,,,,,,,,0,1,,,,,,,6,10,6,10,,,,,,,,,,,2491.9795,2492.4796,2492.7298,2493.513,space,0.7741,,2493.5131,33,37,2494.5131,2494.5131,2494.5142,,,,0,40,40,40,1,145,75,,,,,,,,
,,,001,2023-12-14_08h15.28.439,bars,2023.2.3,Win32,59.88023952,,,,,,2494.5147,2495.5133,,,2496.0132,2496.2631,,120,120,,,,,,,,,,,,,,,,bars/019.png,bars/mask004.png,,,,,,,,,,,,5,2,,,,,,,8,10,9,10,,,,,,,,,,,2495.5133,2496.0132,2496.2631,2498.2799,space,2.0005,,2498.2801,75,15,2499.2798,2499.2798,2499.289,,,,0,41,41,41,1,45,105,,,,,,,,
,,,001,2023-12-14_08h15.28.439,bars,2023.2.3,Win32,59.88023952,,,,,,2499.2891,2500.2799,,,2500.7799,2501.0296,,73,73,,,,,,,,,,,,,,,,bars/031.png,bars/mask008.png,,,,,,,,,,,,0,2,,,,,,,6,10,4,10,,,,,,,,,,,2500.2799,2500.7799,2501.0297,2503.6466,space,2.6016,,2503.6467,47,38,2504.6464,2504.6465,2504.6568,,,,0,42,42,42,1,120,35,,,,,,,,
,,,001,2023-12-14_08h15.28.439,bars,2023.2.3,Win32,59.88023952,,,,,,2504.657,2505.6473,,,2506.1464,2506.3964,,135,135,,,,,,,,,,,,,,,,bars/028.png,bars/mask004.png,,,,,,,,,,,,4,2,,,,,,,8,8,6,8,,,,,,,,,,,2505.6473,2506.1463,2506.3965,2507.4964,space,1.0841,,2507.4965,90,15,2508.4964,2508.4965,2508.4975,,,,0,43,43,43,1,45,120,,,,,,,,
,,,001,2023-12-14_08h15.28.439,bars,2023.2.3,Win32,59.88023952,,,,,,2508.498,2509.4965,,,2509.9966,2510.2465,,139,139,,,,,,,,,,,,,,,,bars/044.png,bars/mask006.png,,,,,,,,,,,,4,2,,,,,,,6,10,5,9,,,,,,,,,,,2509.4966,2509.9965,2510.2466,2511.1631,space,0.9046,,2511.1632,64,16,2512.1629,2512.163,2512.1642,,,,0,44,44,44,1,75,155,,,,,,,,
,,,001,2023-12-14_08h15.28.439,bars,2023.2.3,Win32,59.88023952,,,,,,2512.1646,2513.163,,,2513.6632,2513.9131,,179,-1,,,,,,,,,,,,,,,,bars/014.png,bars/mask007.png,,,,,,,,,,,,8,2,,,,,,,4,8,3,8,,,,,,,,,,,2513.163,2513.6632,2513.9132,2514.6633,space,0.7341,,2514.6634,81,1,2515.6631,2515.6632,2515.6643,,,,0,45,45,45,1,80,0,,,,,,,,
,,,001,2023-12-14_08h15.28.439,bars,2023.2.3,Win32,59.88023952,,,,,,2515.6647,2516.6631,,,2517.1631,2517.4131,,13,13,,,,,,,,,,,,,,,,bars/048.png,bars/mask005.png,,,,,,,,,,,,3,2,,,,,,,2,6,3,7,,,,,,,,,,,2516.6632,2517.1631,2517.4131,2517.9965,space,0.5672,,2517.9966,37,18,2518.9965,2518.9966,2518.9977,,,,0,46,46,46,1,50,175,,,,,,,,
,,,001,2023-12-14_08h15.28.439,bars,2023.2.3,Win32,59.88023952,,,,,,2518.9982,2519.9962,,,2520.4966,2520.7465,,8,8,,,,,,,,,,,,,,,,bars/039.png,bars/mask003.png,,,,,,,,,,,,2,1,,,,,,,4,4,4,4,,,,,,,,,,,2519.9963,2520.4965,2520.7465,2521.68,space,0.9176,,2521.6801,13,83,2522.6797,2522.6798,2522.683,,,,0,47,47,47,1,175,105,,,,,,,,
,,,001,2023-12-14_08h15.28.439,bars,2023.2.3,Win32,59.88023952,,,,,,2522.6836,2523.6798,,,2524.18,2524.4298,,146,146,,,,,,,,,,,,,,,,bars/023.png,bars/mask005.png,,,,,,,,,,,,0,2,,,,,,,2,2,3,3,,,,,,,,,,,2523.6798,2524.1799,2524.4298,2525.0631,space,0.6174,,2525.0631,54,31,2526.0629,2526.063,2526.0667,,,,0,48,48,48,1,20,115,,,,,,,,
,,,001,2023-12-14_08h15.28.439,bars,2023.2.3,Win32,59.88023952,,,,,,2526.0677,2527.0632,,,2527.5632,2527.8128,,6,186,,,,,,,,,,,,,,,,bars/012.png,bars/mask003.png,,,,,,,,,,,,0,2,,,,,,,4,0,3,0,,,,,,,,,,,2527.0633,2527.5632,2527.8128,2528.4465,space,0.6182,,2528.4465,84,9,2529.4459,2529.4459,2529.4464,,,,0,49,49,49,1,90,15,,,,,,,,
,,,001,2023-12-14_08h15.28.439,bars,2023.2.3,Win32,59.88023952,,,,,,,,,,,,,,,,,,,,,,,,,,,,,,,,,,,,,,,,,,,,,,,,,,,,,,,,,,,,,,,,,,,,,,,,,,,,,,,,,,,,,,,,2529.4464,2529.4465,0,4,4,2,1,sequence_tables/blk007.csv