init_variables.started,init_variables.stopped,participant,session,date,expName,psychopyVersion,OS,frameRate,instruction_single.started,instruction_single.stopped,key_resp_2.keys,key_resp_2.rt,key_resp_2.duration,interval.started,interval.stopped,cue_single.started,cue_single.stopped,mask.started,mask.stopped,ori_response_single.started,res_ori,res,ori_response_single.stopped,key_resp_single.keys,key_resp_single.rt,key_resp_single.duration,disp_single.started,disp_single.stopped,key_resp.keys,key_resp.rt,key_resp.duration,single.thisRepN,single.thisTrialN,single.thisN,single.thisIndex,single.ran,ori,path,mask_path,instruction_bandit.started,instruction_bandit.stopped,key_resp_6.keys,key_resp_6.rt,key_resp_6.duration,cue_bandit.started,cue_bandit.stopped,bandit_res.keys,bandit_res.rt,bandit_res.duration,outcome_bandit.started,rew,action,outcome_bandit.stopped,bandit.thisRepN,bandit.thisTrialN,bandit.thisN,bandit.thisIndex,bandit.ran,actual_rew1,actual_rew2,rew1,rew2,instruction_task.started,instruction_task.stopped,key_resp_7.keys,key_resp_7.rt,key_resp_7.duration,wait_ready.started,wait_ready.stopped,key_resp_3.keys,key_resp_3.rt,key_resp_3.duration,cue.started,cue.stopped,ori_response.started,ori_response.stopped,key_resp_5.keys,key_resp_5.rt,key_resp_5.duration,outcome.started,diff1,diff2,outcome.stopped,disp_outcome_practice.started,disp_outcome_practice.stopped,key_resp_4.keys,key_resp_4.rt,key_resp_4.duration,trials.thisRepN,trials.thisTrialN,trials.thisN,trials.thisIndex,trials.ran,ori1,ori2,break_blk.started,break_blk.stopped,block.thisRepN,block.thisTrialN,block.thisN,block.thisIndex,block.ran,condition_file
0.0006,0.0008,,001,2023-12-14_08h17.31.732,bars,2023.2.3,Win32,60.07088364,,,,,,,,,,,,,,,,,,,,,,,,,,,,,,,,,,,,,,,,,,,,,,,,,,,,,,,,,,,,,,,,,,,,,,,,,,,,,,,,,,,,,,,,,,,,,,,
,,,001,2023-12-14_08h17.31.732,bars,2023.2.3,Win32,60.07088364,0.0009,89.7895,space,89.7791,,,,,,,,,,,,,,,,,,,,,,,,,,,,,,,,,,,,,,,,,,,,,,,,,,,,,,,,,,,,,,,,,,,,,,,,,,,,,,,,,,,,,,,,,,,
,,,001,2023-12-14_08h17.31.732,bars,2023.2.3,Win32,60.07088364,,,,,,89.7942,90.7978,90.798,91.2985,91.2986,91.5479,91.548,136,136,101.8485,space,10.2669,,101.8487,116.0497,space,14.17,,0,0,0,8,1,160,bars/single008.png,bars/mask004.png,,,,,,,,,,,,,,,,,,,,,,,,,,,,,,,,,,,,,,,,,,,,,,,,,,,,,,,,,,,,,,,,
,,,001,2023-12-14_08h17.31.732,bars,2023.2.3,Win32,60.07088364,,,,,,116.0659,117.0654,117.0656,117.5645,117.5645,117.8147,117.8147,7,187,122.1318,space,4.3049,,122.1319,127.5655,space,5.4049,,0,1,1,2,1,145,bars/single002.png,bars/mask003.png,,,,,,,,,,,,,,,,,,,,,,,,,,,,,,,,,,,,,,,,,,,,,,,,,,,,,,,,,,,,,,,,
,,,001,2023-12-14_08h17.31.732,bars,2023.2.3,Win32,60.07088364,,,,,,127.5902,128.5812,128.5813,129.081,129.081,129.331,129.331,146,146,134.0484,space,4.701,,134.0485,152.399,space,18.3325,,0,2,2,0,1,150,bars/single000.png,bars/mask006.png,,,,,,,,,,,,,,,,,,,,,,,,,,,,,,,,,,,,,,,,,,,,,,,,,,,,,,,,,,,,,,,,
,,,001,2023-12-14_08h17.31.732,bars,2023.2.3,Win32,60.07088364,,,,,,152.4183,153.4144,153.4144,153.9145,153.9146,154.1646,154.1646,116,116,164.1644,space,9.9825,,164.1644,166.2487,space,2.0603,,0,3,3,1,1,20,bars/single001.png,bars/mask006.png,,,,,,,,,,,,,,,,,,,,,,,,,,,,,,,,,,,,,,,,,,,,,,,,,,,,,,,,,,,,,,,,
,,,001,2023-12-14_08h17.31.732,bars,2023.2.3,Win32,60.07088364,,,,,,166.2515,167.2482,167.2482,167.7485,167.7485,167.9985,167.9986,21,21,175.8153,space,7.8014,,175.8154,179.9819,space,4.1414,,0,4,4,9,1,20,bars/single009.png,bars/mask006.png,,,,,,,,,,,,,,,,,,,,,,,,,,,,,,,,,,,,,,,,,,,,,,,,,,,,,,,,,,,,,,,,
,,,001,2023-12-14_08h17.31.732,bars,2023.2.3,Win32,60.07088364,,,,,,179.9972,180.9819,180.982,181.481,181.481,181.7312,181.7312,14,194,187.6483,space,5.9009,,187.6484,189.0989,space,1.4235,,0,5,5,6,1,175,bars/single006.png,bars/mask005.png,,,,,,,,,,,,,,,,,,,,,,,,,,,,,,,,,,,,,,,,,,,,,,,,,,,,,,,,,,,,,,,,
,,,001,2023-12-14_08h17.31.732,bars,2023.2.3,Win32,60.07088364,,,,,,189.0994,190.0982,190.0983,190.5986,190.5986,190.8479,190.848,32,32,195.4812,space,4.6172,,195.4812,197.4989,space,2.0036,,0,6,6,7,1,45,bars/single007.png,bars/mask009.png,,,,,,,,,,,,,,,,,,,,,,,,,,,,,,,,,,,,,,,,,,,,,,,,,,,,,,,,,,,,,,,,
,,,001,2023-12-14_08h17.31.732,bars,2023.2.3,Win32,60.07088364,,,,,,197.4996,198.4981,198.4982,198.998,198.998,199.2485,199.2485,42,42,199.6815,space,0.4169,,199.6815,202.5814,space,2.8835,,0,7,7,5,1,55,bars/single005.png,bars/mask008.png,,,,,,,,,,,,,,,,,,,,,,,,,,,,,,,,,,,,,,,,,,,,,,,,,,,,,,,,,,,,,,,,
,,,001,2023-12-14_08h17.31.732,bars,2023.2.3,Win32,60.07088364,,,,,,202.5963,203.5815,203.5815,204.0825,204.0826,204.3318,204.3319,93,93,209.2651,space,4.9181,,209.2652,210.8823,space,1.5849,,0,8,8,4,1,95,bars/single004.png,bars/mask004.png,,,,,,,,,,,,,,,,,,,,,,,,,,,,,,,,,,,,,,,,,,,,,,,,,,,,,,,,,,,,,,,,
,,,001,2023-12-14_08h17.31.732,bars,2023.2.3,Win32,60.07088364,,,,,,210.883,211.8815,211.8816,212.3814,212.3814,212.6313,212.6313,5,5,220.1657,space,7.5184,,220.1658,221.9987,space,1.7989,,0,9,9,3,1,20,bars/single003.png,bars/mask005.png,,,,,,,,,,,,,,,,,,,,,,,,,,,,,,,,,,,,,,,,,,,,,,,,,,,,,,,,,,,,,,,,
,,,001,2023-12-14_08h17.31.732,bars,2023.2.3,Win32,60.07088364,,,,,,,,,,,,,,,,,,,,,,,,,,,,,,,,221.9999,494.5574,space,272.5451,,,,,,,,,,,,,,,,,,,,,,,,,,,,,,,,,,,,,,,,,,,,,,,,,,,,,,,,,,,,
,,,001,2023-12-14_08h17.31.732,bars,2023.2.3,Win32,60.07088364,,,,,,,,,,,,,,,,,,,,,,,,,,,,,,,,,,,,,494.5725,501.0667,right,6.4657,,501.0669,2,2,502.0667,0,0,0,0,1,9,1,9,2,,,,,,,,,,,,,,,,,,,,,,,,,,,,,,,,,,,,,,,,,
,,,001,2023-12-14_08h17.31.732,bars,2023.2.3,Win32,60.07088364,,,,,,,,,,,,,,,,,,,,,,,,,,,,,,,,,,,,,502.0673,502.7653,right,0.6674,,502.7653,1,2,503.7657,0,1,1,1,1,10,0,10,1,,,,,,,,,,,,,,,,,,,,,,,,,,,,,,,,,,,,,,,,,
,,,001,2023-12-14_08h17.31.732,bars,2023.2.3,Win32,60.07088364,,,,,,,,,,,,,,,,,,,,,,,,,,,,,,,,,,,,,503.7661,504.0989,left,0.3165,,504.0989,10,1,505.1,0,2,2,2,1,10,2,10,2,,,,,,,,,,,,,,,,,,,,,,,,,,,,,,,,,,,,,,,,,
,,,001,2023-12-14_08h17.31.732,bars,2023.2.3,Win32,60.07088364,,,,,,,,,,,,,,,,,,,,,,,,,,,,,,,,,,,,,505.1006,505.6987,left,0.5679,,505.6988,7,1,506.6987,0,3,3,3,1,8,4,7,3,,,,,,,,,,,,,,,,,,,,,,,,,,,,,,,,,,,,,,,,,
,,,001,2023-12-14_08h17.31.732,bars,2023.2.3,Win32,60.07088364,,,,,,,,,,,,,,,,,,,,,,,,,,,,,,,,,,,,,506.6993,507.3824,left,0.6669,,507.3824,5,1,508.3817,0,4,4,4,1,6,2,5,1,,,,,,,,,,,,,,,,,,,,,,,,,,,,,,,,,,,,,,,,,
,,,001,2023-12-14_08h17.31.732,bars,2023.2.3,Win32,60.07088364,,,,,,,,,,,,,,,,,,,,,,,,,,,,,,,,,,,,,508.382,508.766,right,0.3735,,508.7662,4,2,509.7653,0,5,5,5,1,4,4,4,4,,,,,,,,,,,,,,,,,,,,,,,,,,,,,,,,,,,,,,,,,
,,,001,2023-12-14_08h17.31.732,bars,2023.2.3,Win32,60.07088364,,,,,,,,,,,,,,,,,,,,,,,,,,,,,,,,,,,,,509.7658,510.2161,left,0.4368,,510.2161,1,1,511.2156,0,6,6,6,1,2,2,1,2,,,,,,,,,,,,,,,,,,,,,,,,,,,,,,,,,,,,,,,,,
,,,001,2023-12-14_08h17.31.732,bars,2023.2.3,Win32,60.07088364,,,,,,,,,,,,,,,,,,,,,,,,,,,,,,,,,,,,,511.216,512.2483,right,1.0188,,512.2483,1,2,513.2502,0,7,7,7,1,0,0,0,1,,,,,,,,,,,,,,,,,,,,,,,,,,,,,,,,,,,,,,,,,
,,,001,2023-12-14_08h17.31.732,bars,2023.2.3,Win32,60.07088364,,,,,,,,,,,,,,,,,,,,,,,,,,,,,,,,,,,,,513.2509,514.1323,left,0.8508,,514.1323,1,1,515.1319,0,8,8,8,1,0,2,1,0,,,,,,,,,,,,,,,,,,,,,,,,,,,,,,,,,,,,,,,,,
,,,001,2023-12-14_08h17.31.732,bars,2023.2.3,Win32,60.07088364,,,,,,,,,,,,,,,,,,,,,,,,,,,,,,,,,,,,,515.1323,515.7317,left,0.5836,,515.7318,2,1,516.7326,0,9,9,9,1,2,4,2,3,,,,,,,,,,,,,,,,,,,,,,,,,,,,,,,,,,,,,,,,,
,,,001,2023-12-14_08h17.31.732,bars,2023.2.3,Win32,60.07088364,,,,,,,,,,,,,,,,,,,,,,,,,,,,,,,,,,,,,516.733,517.3325,left,0.5846,,517.3326,0,1,518.3319,0,10,10,10,1,0,2,0,3,,,,,,,,,,,,,,,,,,,,,,,,,,,,,,,,,,,,,,,,,
,,,001,2023-12-14_08h17.31.732,bars,2023.2.3,Win32,60.07088364,,,,,,,,,,,,,,,,,,,,,,,,,,,,,,,,,,,,,518.3323,518.7659,right,0.4166,,518.7659,3,2,519.7653,0,11,11,11,1,0,4,0,3,,,,,,,,,,,,,,,,,,,,,,,,,,,,,,,,,,,,,,,,,
,,,001,2023-12-14_08h17.31.732,bars,2023.2.3,Win32,60.07088364,,,,,,,,,,,,,,,,,,,,,,,,,,,,,,,,,,,,,519.7656,520.4482,right,0.6685,,520.4483,6,2,521.4498,0,12,12,12,1,2,6,1,6,,,,,,,,,,,,,,,,,,,,,,,,,,,,,,,,,,,,,,,,,
,,,001,2023-12-14_08h17.31.732,bars,2023.2.3,Win32,60.07088364,,,,,,,,,,,,,,,,,,,,,,,,,,,,,,,,,,,,,521.4501,521.8821,right,0.4012,,521.8821,3,2,522.882,0,13,13,13,1,0,4,1,3,,,,,,,,,,,,,,,,,,,,,,,,,,,,,,,,,,,,,,,,,
,,,001,2023-12-14_08h17.31.732,bars,2023.2.3,Win32,60.07088364,,,,,,,,,,,,,,,,,,,,,,,,,,,,,,,,,,,,,522.8825,523.3483,left,0.4501,,523.3485,2,1,524.3484,0,14,14,14,1,2,6,2,7,,,,,,,,,,,,,,,,,,,,,,,,,,,,,,,,,,,,,,,,,
,,,001,2023-12-14_08h17.31.732,bars,2023.2.3,Win32,60.07088364,,,,,,,,,,,,,,,,,,,,,,,,,,,,,,,,,,,,,524.3489,524.7999,right,0.4335,,524.8,9,2,525.7987,0,15,15,15,1,4,8,3,9,,,,,,,,,,,,,,,,,,,,,,,,,,,,,,,,,,,,,,,,,
,,,001,2023-12-14_08h17.31.732,bars,2023.2.3,Win32,60.07088364,,,,,,,,,,,,,,,,,,,,,,,,,,,,,,,,,,,,,525.7992,526.8325,right,1.02,,526.8326,7,2,527.8323,0,16,16,16,1,6,6,7,7,,,,,,,,,,,,,,,,,,,,,,,,,,,,,,,,,,,,,,,,,
,,,001,2023-12-14_08h17.31.732,bars,2023.2.3,Win32,60.07088364,,,,,,,,,,,,,,,,,,,,,,,,,,,,,,,,,,,,,527.8326,528.2655,right,0.4187,,528.2655,5,2,529.2654,0,17,17,17,1,8,4,9,5,,,,,,,,,,,,,,,,,,,,,,,,,,,,,,,,,,,,,,,,,
,,,001,2023-12-14_08h17.31.732,bars,2023.2.3,Win32,60.07088364,,,,,,,,,,,,,,,,,,,,,,,,,,,,,,,,,,,,,529.2657,529.8063,right,0.533,,529.8064,1,2,530.7989,0,18,18,18,1,6,2,5,1,,,,,,,,,,,,,,,,,,,,,,,,,,,,,,,,,,,,,,,,,
,,,001,2023-12-14_08h17.31.732,bars,2023.2.3,Win32,60.07088364,,,,,,,,,,,,,,,,,,,,,,,,,,,,,,,,,,,,,530.7992,531.3159,left,0.5005,,531.3159,7,1,532.3154,0,19,19,19,1,8,0,7,0,,,,,,,,,,,,,,,,,,,,,,,,,,,,,,,,,,,,,,,,,
,,,001,2023-12-14_08h17.31.732,bars,2023.2.3,Win32,60.07088364,,,,,,,,,,,,,,,,,,,,,,,,,,,,,,,,,,,,,,,,,,,,,,,,,,,,,,,532.3162,592.201,space,59.8505,,,,,,,,,,,,,,,,,,,,,,,,,,,,,,,,,,,,,
,,,001,2023-12-14_08h17.31.732,bars,2023.2.3,Win32,60.07088364,,,,,,593.7519,594.7494,,,595.2497,595.4985,,178,178,,,,,,,,,,,,,,,,bars/018.png,bars/mask005.png,,,,,,,,,,,,1,1,,,,,,,9,7,10,7,,,,,,592.2161,593.7486,space,1.5229,,594.7497,595.2497,595.4987,599.1411,space,3.6159,,599.1413,28,88,600.1322,600.1325,602.8165,space,2.6494,,0,0,0,0,1,150,90,,,,,,,,
,,,001,2023-12-14_08h17.31.732,bars,2023.2.3,Win32,60.07088364,,,,,,602.8243,603.8153,,,604.3154,604.5657,,76,76,,,,,,,,,,,,,,,,bars/038.png,bars/mask001.png,,,,,,,,,,,,3,2,,,,,,,7,5,7,4,,,,,,,,,,,603.8154,604.3154,604.5657,610.1993,space,5.621,,610.1993,89,6,611.1985,611.1985,618.3996,space,7.1712,,0,1,1,1,1,165,70,,,,,,,,
,,,001,2023-12-14_08h17.31.732,bars,2023.2.3,Win32,60.07088364,,,,,,618.4085,619.3986,,,619.8989,620.1484,,160,160,,,,,,,,,,,,,,,,bars/002.png,bars/mask001.png,,,,,,,,,,,,0,1,,,,,,,5,7,3,7,,,,,,,,,,,619.3986,619.8989,620.1484,623.9988,space,3.8379,,623.9988,30,75,624.9987,624.9987,625.9661,space,0.9323,,0,2,2,2,1,130,85,,,,,,,,
,,,001,2023-12-14_08h17.31.732,bars,2023.2.3,Win32,60.07088364,,,,,,625.9667,626.9656,,,627.4656,627.7156,,149,149,,,,,,,,,,,,,,,,bars/046.png,bars/mask004.png,,,,,,,,,,,,5,1,,,,,,,7,5,6,6,,,,,,,,,,,626.9656,627.4655,627.7156,632.6489,space,4.919,,632.6489,6,64,633.6486,633.6486,636.3322,space,2.6571,,0,3,3,3,1,155,85,,,,,,,,
,,,001,2023-12-14_08h17.31.732,bars,2023.2.3,Win32,60.07088364,,,,,,636.344,637.3327,,,637.8326,638.0821,,40,220,,,,,,,,,,,,,,,,bars/033.png,bars/mask009.png,,,,,,,,,,,,5,1,,,,,,,9,7,9,7,,,,,,,,,,,637.3328,637.8325,638.0821,642.567,space,4.4717,,642.5671,15,65,643.5661,643.5662,646.1996,space,2.6018,,0,4,4,4,1,25,155,,,,,,,,
,,,001,2023-12-14_08h17.31.732,bars,2023.2.3,Win32,60.07088364,,,,,,646.2,647.1986,,,647.6989,647.9491,,24,204,,,,,,,,,,,,,,,,bars/007.png,bars/mask002.png,,,,,,,,,,,,0,1,,,,,,,7,5,6,5,,,,,,,,,,,647.1986,647.6988,647.9491,654.1823,space,6.2175,,654.1824,29,31,655.182,655.1821,655.9162,space,0.7009,,0,5,5,5,1,175,55,,,,,,,,
,,,001,2023-12-14_08h17.31.732,bars,2023.2.3,Win32,60.07088364,,,,,,655.9164,656.9154,,,657.4153,657.6663,,156,156,,,,,,,,,,,,,,,,bars/018.png,bars/mask008.png,,,,,,,,,,,,4,1,,,,,,,5,3,5,3,,,,,,,,,,,656.9154,657.4153,657.6663,661.6503,space,3.9689,,661.6506,6,66,662.649,662.649,665.2734,space,2.6001,,0,6,6,6,1,150,90,,,,,,,,
,,,001,2023-12-14_08h17.31.732,bars,2023.2.3,Win32,60.07088364,,,,,,665.2738,666.2657,,,666.7666,667.0154,,86,-94,,,,,,,,,,,,,,,,bars/042.png,bars/mask006.png,,,,,,,,,,,,1,2,,,,,,,7,1,7,2,,,,,,,,,,,666.2659,666.7666,667.0155,674.1996,space,7.1705,,674.1997,59,11,675.1991,675.1991,679.1324,space,3.9061,,0,7,7,7,1,145,75,,,,,,,,
,,,001,2023-12-14_08h17.31.732,bars,2023.2.3,Win32,60.07088364,,,,,,679.1469,680.1328,,,680.633,680.8828,,33,33,,,,,,,,,,,,,,,,bars/013.png,bars/mask000.png,,,,,,,,,,,,1,2,,,,,,,9,3,9,3,,,,,,,,,,,680.1328,680.6329,680.8828,685.0822,space,4.185,,685.0823,42,23,686.082,686.0821,688.0826,space,1.9747,,0,8,8,8,1,75,10,,,,,,,,
,,,001,2023-12-14_08h17.31.732,bars,2023.2.3,Win32,60.07088364,,,,,,688.083,689.082,,,689.5826,689.8336,,171,-9,,,,,,,,,,,,,,,,bars/040.png,bars/mask007.png,,,,,,,,,,,,4,2,,,,,,,10,5,10,8,,,,,,,,,,,689.082,689.5825,689.8336,694.7505,space,4.9067,,694.7506,31,14,695.7498,695.7499,697.3179,space,1.5341,,0,9,9,9,1,140,5,,,,,,,,
,,,001,2023-12-14_08h17.31.732,bars,2023.2.3,Win32,60.07088364,,,,,,697.3186,698.3165,,,698.8154,699.0655,,12,12,,,,,,,,,,,,,,,,bars/035.png,bars/mask000.png,,,,,,,,,,,,3,1,,,,,,,8,7,7,5,,,,,,,,,,,698.3165,698.8153,699.0656,704.9163,space,5.8329,,704.9164,17,48,705.9156,705.9156,708.1996,space,2.2501,,0,10,10,10,1,175,60,,,,,,,,
,,,001,2023-12-14_08h17.31.732,bars,2023.2.3,Win32,60.07088364,,,,,,708.1998,709.1993,,,709.6988,709.9487,,133,-47,,,,,,,,,,,,,,,,bars/039.png,bars/mask002.png,,,,,,,,,,,,0,2,,,,,,,10,5,10,5,,,,,,,,,,,709.1993,709.6987,709.9487,715.7822,space,5.8219,,715.7822,42,28,716.7838,716.7838,717.9656,space,1.1546,,0,11,11,11,1,175,105,,,,,,,,
,,,001,2023-12-14_08h17.31.732,bars,2023.2.3,Win32,60.07088364,,,,,,717.9658,718.9655,,,719.4658,719.716,,22,202,,,,,,,,,,,,,,,,bars/016.png,bars/mask006.png,,,,,,,,,,,,3,1,,,,,,,10,3,8,2,,,,,,,,,,,718.9655,719.4658,719.716,723.9492,space,4.2164,,723.9493,18,37,724.9495,724.9495,725.8322,space,0.8529,,0,12,12,12,1,40,165,,,,,,,,
,,,001,2023-12-14_08h17.31.732,bars,2023.2.3,Win32,60.07088364,,,,,,725.8326,726.8326,,,727.3327,727.582,,153,153,,,,,,,,,,,,,,,,bars/043.png,bars/mask000.png,,,,,,,,,,,,1,2,,,,,,,8,5,7,5,,,,,,,,,,,726.8326,727.3327,727.582,734.6501,space,7.0521,,734.6501,57,23,735.6492,735.6493,736.3002,space,0.6241,,0,13,13,13,1,30,130,,,,,,,,
,,,001,2023-12-14_08h17.31.732,bars,2023.2.3,Win32,60.07088364,,,,,,736.3008,737.2993,,,737.7999,738.0497,,0,0,,,,,,,,,,,,,,,,bars/035.png,bars/mask006.png,,,,,,,,,,,,8,1,,,,,,,10,7,9,6,,,,,,,,,,,737.2994,737.7998,738.0498,741.4999,space,3.4331,,741.4999,5,60,742.4991,742.4991,743.5673,space,1.0336,,0,14,14,14,1,175,60,,,,,,,,
,,,001,2023-12-14_08h17.31.732,bars,2023.2.3,Win32,60.07088364,,,,,,743.568,744.5657,,,745.0656,745.316,,163,-17,,,,,,,,,,,,,,,,bars/016.png,bars/mask000.png,,,,,,,,,,,,9,2,,,,,,,8,9,9,10,,,,,,,,,,,744.5657,745.0655,745.316,750.8662,space,5.5345,,750.8662,57,2,751.8661,751.8661,752.8831,space,0.9916,,0,15,15,15,1,40,165,,,,,,,,
,,,001,2023-12-14_08h17.31.732,bars,2023.2.3,Win32,60.07088364,,,,,,752.8836,753.8828,,,754.383,754.6325,,103,-77,,,,,,,,,,,,,,,,bars/002.png,bars/mask004.png,,,,,,,,,,,,4,2,,,,,,,6,10,6,10,,,,,,,,,,,753.8828,754.3829,754.6325,762.0827,space,7.4334,,762.0828,27,18,763.0822,763.0822,763.7825,space,0.6711,,0,16,16,16,1,130,85,,,,,,,,
,,,001,2023-12-14_08h17.31.732,bars,2023.2.3,Win32,60.07088364,,,,,,763.7828,764.7826,,,765.2822,765.5324,,4,4,,,,,,,,,,,,,,,,bars/022.png,bars/mask000.png,,,,,,,,,,,,4,2,,,,,,,8,10,8,8,,,,,,,,,,,764.7827,765.2822,765.5324,771.0674,space,5.517,,771.0675,89,16,772.067,772.0671,772.849,space,0.7518,,0,17,17,17,1,95,20,,,,,,,,
,,,001,2023-12-14_08h17.31.732,bars,2023.2.3,Win32,60.07088364,,,,,,772.8493,773.849,,,774.3498,774.5992,,71,71,,,,,,,,,,,,,,,,bars/044.png,bars/mask006.png,,,,,,,,,,,,9,1,,,,,,,10,10,10,10,,,,,,,,,,,773.849,774.3498,774.5993,779.4156,space,4.8027,,779.4156,4,84,780.4159,780.4159,781.1997,space,0.7502,,0,18,18,18,1,75,155,,,,,,,,
,,,001,2023-12-14_08h17.31.732,bars,2023.2.3,Win32,60.07088364,,,,,,781.2001,782.1995,,,782.6994,782.9489,,72,72,,,,,,,,,,,,,,,,bars/042.png,bars/mask002.png,,,,,,,,,,,,9,2,,,,,,,8,10,8,10,,,,,,,,,,,782.1996,782.6994,782.949,794.1661,space,11.2052,,794.1662,73,3,795.166,795.166,796.7332,space,1.533,,0,19,19,19,1,145,75,,,,,,,,
,,,001,2023-12-14_08h17.31.732,bars,2023.2.3,Win32,60.07088364,,,,,,796.7335,797.7322,,,798.2326,798.4829,,134,-46,,,,,,,,,,,,,,,,bars/008.png,bars/mask008.png,,,,,,,,,,,,1,1,,,,,,,6,10,6,10,,,,,,,,,,,797.7322,798.2326,798.483,805.3992,space,6.9008,,805.3992,24,46,806.3993,806.3993,807.0676,space,0.6342,,0,20,20,20,1,110,0,,,,,,,,
,,,001,2023-12-14_08h17.31.732,bars,2023.2.3,Win32,60.07088364,,,,,,807.0682,808.0661,,,808.5655,808.8157,,93,93,,,,,,,,,,,,,,,,bars/023.png,bars/mask003.png,,,,,,,,,,,,3,2,,,,,,,8,10,10,10,,,,,,,,,,,808.0661,808.5655,808.8157,813.0492,space,4.216,,813.0492,73,22,814.049,814.049,814.7991,space,0.72,,0,21,21,21,1,20,115,,,,,,,,
,,,001,2023-12-14_08h17.31.732,bars,2023.2.3,Win32,60.07088364,,,,,,814.7994,815.7993,,,816.2993,816.5492,,9,9,,,,,,,,,,,,,,,,bars/036.png,bars/mask000.png,,,,,,,,,,,,5,2,,,,,,,6,8,8,8,,,,,,,,,,,815.7994,816.2992,816.5492,820.8833,space,4.3172,,820.8833,44,11,821.8828,821.8828,823.1013,space,1.1857,,0,22,22,22,1,145,20,,,,,,,,
,,,001,2023-12-14_08h17.31.732,bars,2023.2.3,Win32,60.07088364,,,,,,823.1022,824.0995,,,824.5993,824.8488,,44,44,,,,,,,,,,,,,,,,bars/044.png,bars/mask002.png,,,,,,,,,,,,0,1,,,,,,,8,10,7,9,,,,,,,,,,,824.0995,824.5992,824.8489,831.733,space,6.8731,,831.733,31,69,832.7342,832.7342,833.6662,space,0.8998,,0,23,23,23,1,75,155,,,,,,,,
,,,001,2023-12-14_08h17.31.732,bars,2023.2.3,Win32,60.07088364,,,,,,833.6665,834.6659,,,835.1669,835.4172,,138,138,,,,,,,,,,,,,,,,bars/017.png,bars/mask008.png,,,,,,,,,,,,5,1,,,,,,,6,10,7,10,,,,,,,,,,,834.666,835.1669,835.4172,839.7503,space,4.3059,,839.7503,7,87,840.7508,840.7509,841.4992,space,0.7243,,0,24,24,24,1,145,45,,,,,,,,
,,,001,2023-12-14_08h17.31.732,bars,2023.2.3,Win32,60.07088364,,,,,,841.4996,842.4989,,,842.999,843.249,,17,17,,,,,,,,,,,,,,,,bars/032.png,bars/mask009.png,,,,,,,,,,,,7,2,,,,,,,4,8,4,8,,,,,,,,,,,842.4989,842.9989,843.249,847.9991,space,4.737,,847.9991,72,3,848.9996,848.9996,849.6667,space,0.6334,,0,25,25,25,1,125,20,,,,,,,,
,,,001,2023-12-14_08h17.31.732,bars,2023.2.3,Win32,60.07088364,,,,,,849.667,850.6661,,,851.1661,851.4161,,116,116,,,,,,,,,,,,,,,,bars/040.png,bars/mask004.png,,,,,,,,,,,,1,1,,,,,,,2,10,3,10,,,,,,,,,,,850.6661,851.1661,851.4162,865.9328,space,14.5068,,865.9328,24,69,866.9322,866.9323,868.9494,space,1.9836,,0,26,26,26,1,140,5,,,,,,,,
,,,001,2023-12-14_08h17.31.732,bars,2023.2.3,Win32,60.07088364,,,,,,868.9497,869.9407,,,870.4336,870.6832,,142,142,,,,,,,,,,,,,,,,bars/018.png,bars/mask007.png,,,,,,,,,,,,0,1,,,,,,,0,8,0,9,,,,,,,,,,,869.9407,870.4335,870.6832,875.1002,space,4.3851,,875.1002,8,52,876.101,876.101,876.5663,space,0.4394,,0,27,27,27,1,150,90,,,,,,,,
,,,001,2023-12-14_08h17.31.732,bars,2023.2.3,Win32,60.07088364,,,,,,876.5667,877.5675,,,878.066,878.3162,,20,20,,,,,,,,,,,,,,,,bars/007.png,bars/mask008.png,,,,,,,,,,,,0,1,,,,,,,0,10,0,10,,,,,,,,,,,877.5676,878.066,878.3162,886.0993,space,7.7748,,886.0994,25,35,887.0994,887.0994,890.1746,space,3.0509,,0,28,28,28,1,175,55,,,,,,,,
,,,001,2023-12-14_08h17.31.732,bars,2023.2.3,Win32,60.07088364,,,,,,890.1751,891.1661,,,891.6669,891.9163,,165,165,,,,,,,,,,,,,,,,bars/049.png,bars/mask009.png,,,,,,,,,,,,2,1,,,,,,,2,10,2,9,,,,,,,,,,,891.1661,891.6668,891.9164,904.7346,space,12.8054,,904.7347,5,50,905.7325,905.7326,908.6501,space,2.8932,,0,29,29,29,1,160,115,,,,,,,,
,,,001,2023-12-14_08h17.31.732,bars,2023.2.3,Win32,60.07088364,,,,,,908.6506,909.65,,,910.1497,910.3999,,165,-15,,,,,,,,,,,,,,,,bars/033.png,bars/mask005.png,,,,,,,,,,,,5,2,,,,,,,0,8,0,8,,,,,,,,,,,909.65,910.1497,910.4,914.5498,space,4.1388,,914.5498,40,10,915.5498,915.5498,919.9161,space,4.3413,,0,30,30,30,1,25,155,,,,,,,,
,,,001,2023-12-14_08h17.31.732,bars,2023.2.3,Win32,60.07088364,,,,,,919.9329,920.9174,,,921.4164,921.6664,,76,76,,,,,,,,,,,,,,,,bars/025.png,bars/mask004.png,,,,,,,,,,,,0,1,,,,,,,2,10,3,9,,,,,,,,,,,920.9175,921.4164,921.6665,925.5993,space,3.9204,,925.5994,29,36,926.6007,926.6008,927.3659,space,0.7335,,0,31,31,31,1,105,40,,,,,,,,
,,,001,2023-12-14_08h17.31.732,bars,2023.2.3,Win32,60.07088364,,,,,,927.3662,928.3661,,,928.8668,929.1173,,47,47,,,,,,,,,,,,,,,,bars/019.png,bars/mask005.png,,,,,,,,,,,,3,1,,,,,,,4,10,3,10,,,,,,,,,,,928.3661,928.8668,929.1174,933.3828,space,4.2538,,933.3828,2,58,934.3825,934.3825,939.3002,space,4.8845,,0,32,32,32,1,45,105,,,,,,,,
,,,001,2023-12-14_08h17.31.732,bars,2023.2.3,Win32,60.07088364,,,,,,939.3147,940.3163,,,940.816,941.0668,,34,34,,,,,,,,,,,,,,,,bars/044.png,bars/mask001.png,,,,,,,,,,,,0,1,,,,,,,2,10,4,10,,,,,,,,,,,940.3163,940.816,941.0668,947.95,space,6.8726,,947.9501,41,59,948.9506,948.9507,952.2994,space,3.3247,,0,33,33,33,1,75,155,,,,,,,,
,,,001,2023-12-14_08h17.31.732,bars,2023.2.3,Win32,60.07088364,,,,,,952.3148,953.3003,,,953.8005,954.0511,,99,99,,,,,,,,,,,,,,,,bars/001.png,bars/mask008.png,,,,,,,,,,,,4,2,,,,,,,0,8,0,8,,,,,,,,,,,953.3003,953.8005,954.0511,959.1508,space,5.0674,,959.1508,31,14,960.15,960.1501,970.7162,space,10.5389,,0,34,34,34,1,130,85,,,,,,,,
,,,001,2023-12-14_08h17.31.732,bars,2023.2.3,Win32,60.07088364,,,,,,970.7316,971.7326,,,972.2165,972.4661,,58,58,,,,,,,,,,,,,,,,bars/025.png,bars/mask009.png,,,,,,,,,,,,2,2,,,,,,,2,6,2,6,,,,,,,,,,,971.7327,972.2165,972.4663,988.9679,space,16.4871,,988.968,47,18,989.966,989.966,993.0828,space,3.0919,,0,35,35,35,1,105,40,,,,,,,,
,,,001,2023-12-14_08h17.31.732,bars,2023.2.3,Win32,60.07088364,,,,,,993.0832,994.0829,,,994.5829,994.8341,,30,210,,,,,,,,,,,,,,,,bars/036.png,bars/mask006.png,,,,,,,,,,,,3,2,,,,,,,4,4,4,4,,,,,,,,,,,994.0829,994.5829,994.8341,1037.0835,space,42.2346,,1037.0835,65,10,1038.083,1038.0831,1040.3994,space,2.2862,,0,36,36,36,1,145,20,,,,,,,,
,,,001,2023-12-14_08h17.31.732,bars,2023.2.3,Win32,60.07088364,,,,,,1040.3996,1041.4,,,1041.9016,1042.1512,,61,61,,,,,,,,,,,,,,,,bars/004.png,bars/mask001.png,,,,,,,,,,,,0,1,,,,,,,2,6,3,8,,,,,,,,,,,1041.4,1041.9016,1042.1513,1080.0246,space,37.85,,1080.0246,36,64,1081.0172,1081.0173,1082.8164,space,1.7677,,0,37,37,37,1,25,125,,,,,,,,
,,,001,2023-12-14_08h17.31.732,bars,2023.2.3,Win32,60.07088364,,,,,,1082.8168,1083.8176,,,1084.3171,1084.5666,,51,51,,,,,,,,,,,,,,,,bars/017.png,bars/mask008.png,,,,,,,,,,,,6,2,,,,,,,4,8,4,7,,,,,,,,,,,1083.8177,1084.317,1084.5666,1088.8835,space,4.3046,,1088.8835,86,6,1089.8835,1089.8835,1091.3669,space,1.4507,,0,38,38,38,1,145,45,,,,,,,,
,,,001,2023-12-14_08h17.31.732,bars,2023.2.3,Win32,60.07088364,,,,,,1091.3672,1092.3677,,,1092.8663,1093.1184,,91,91,,,,,,,,,,,,,,,,bars/002.png,bars/mask002.png,,,,,,,,,,,,8,2,,,,,,,6,10,5,10,,,,,,,,,,,1092.3678,1092.8662,1093.1184,1099.717,space,6.5831,,1099.7171,39,6,1100.7171,1100.7171,1104.0006,space,3.2538,,0,39,39,39,1,130,85,,,,,,,,
,,,001,2023-12-14_08h17.31.732,bars,2023.2.3,Win32,60.07088364,,,,,,1104.0141,1105.0171,,,1105.5163,1105.7663,,77,77,,,,,,,,,,,,,,,,bars/026.png,bars/mask004.png,,,,,,,,,,,,6,2,,,,,,,8,8,6,8,,,,,,,,,,,1105.0171,1105.5163,1105.7663,1108.8831,space,3.1,,1108.8832,42,8,1109.8829,1109.883,1111.1165,space,1.2066,,0,40,40,40,1,35,85,,,,,,,,
,,,001,2023-12-14_08h17.31.732,bars,2023.2.3,Win32,60.07088364,,,,,,1111.117,1112.1171,,,1112.6178,1112.8666,,164,164,,,,,,,,,,,,,,,,bars/049.png,bars/mask008.png,,,,,,,,,,,,4,1,,,,,,,6,6,5,6,,,,,,,,,,,1112.1171,1112.6177,1112.8666,1114.9999,space,2.1203,,1114.9999,4,49,1116.0015,1116.0016,1116.9,space,0.866,,0,41,41,41,1,160,115,,,,,,,,
,,,001,2023-12-14_08h17.31.732,bars,2023.2.3,Win32,60.07088364,,,,,,1116.9005,1117.9001,,,1118.3999,1118.65,,145,145,,,,,,,,,,,,,,,,bars/017.png,bars/mask008.png,,,,,,,,,,,,6,1,,,,,,,4,8,6,7,,,,,,,,,,,1117.9002,1118.3998,1118.65,1123.2839,space,4.6176,,1123.2839,0,80,1124.2828,1124.2829,1127.45,space,3.1343,,0,42,42,42,1,145,45,,,,,,,,
,,,001,2023-12-14_08h17.31.732,bars,2023.2.3,Win32,60.07088364,,,,,,1127.4652,1128.4668,,,1128.9505,1129.1998,,20,20,,,,,,,,,,,,,,,,bars/023.png,bars/mask001.png,,,,,,,,,,,,5,1,,,,,,,6,10,5,9,,,,,,,,,,,1128.4668,1128.9505,1129.1999,1132.1173,space,2.8999,,1132.1173,0,85,1133.1168,1133.1168,1135.5496,space,2.4005,,0,43,43,43,1,20,115,,,,,,,,
,,,001,2023-12-14_08h17.31.732,bars,2023.2.3,Win32,60.07088364,,,,,,1135.5498,1136.5495,,,1137.0507,1137.3002,,28,208,,,,,,,,,,,,,,,,bars/016.png,bars/mask007.png,,,,,,,,,,,,2,1,,,,,,,4,8,4,6,,,,,,,,,,,1136.5496,1137.0506,1137.3002,1153.5835,space,16.2712,,1153.5836,12,43,1154.5839,1154.5839,1156.9331,space,2.3123,,0,44,44,44,1,40,165,,,,,,,,
,,,001,2023-12-14_08h17.31.732,bars,2023.2.3,Win32,60.07088364,,,,,,1156.9334,1157.9332,,,1158.434,1158.6833,,141,141,,,,,,,,,,,,,,,,bars/018.png,bars/mask006.png,,,,,,,,,,,,4,1,,,,,,,6,10,6,8,,,,,,,,,,,1157.9333,1158.434,1158.6833,1164.752,space,6.0508,,1164.7521,9,51,1165.7501,1165.7501,1167.1665,space,1.3891,,0,45,45,45,1,150,90,,,,,,,,
,,,001,2023-12-14_08h17.31.732,bars,2023.2.3,Win32,60.07088364,,,,,,1167.1672,1168.1677,,,1168.667,1168.9164,,147,147,,,,,,,,,,,,,,,,bars/040.png,bars/mask008.png,,,,,,,,,,,,7,1,,,,,,,8,10,9,10,,,,,,,,,,,1168.1678,1168.667,1168.9165,1177.4498,space,8.5172,,1177.4498,7,38,1178.4497,1178.4497,1193.2499,space,14.7684,,0,46,46,46,1,140,5,,,,,,,,
,,,001,2023-12-14_08h17.31.732,bars,2023.2.3,Win32,60.07088364,,,,,,1193.2578,1194.2503,,,1194.751,1195.0006,,44,224,,,,,,,,,,,,,,,,bars/009.png,bars/mask008.png,,,,,,,,,,,,0,1,,,,,,,10,8,10,8,,,,,,,,,,,1194.2503,1194.7509,1195.0006,1200.634,space,5.6177,,1200.634,29,61,1201.6341,1201.6341,1202.1677,space,0.4988,,0,47,47,47,1,15,105,,,,,,,,
,,,001,2023-12-14_08h17.31.732,bars,2023.2.3,Win32,60.07088364,,,,,,1202.1684,1203.1679,,,1203.6673,1203.9167,,76,76,,,,,,,,,,,,,,,,bars/038.png,bars/mask006.png,,,,,,,,,,,,6,2,,,,,,,10,6,10,7,,,,,,,,,,,1203.1679,1203.6673,1203.9167,1206.6506,space,2.7188,,1206.6507,89,6,1207.6515,1207.6518,1208.5672,space,0.8844,,0,48,48,48,1,165,70,,,,,,,,
,,,001,2023-12-14_08h17.31.732,bars,2023.2.3,Win32,60.07088364,,,,,,1208.5675,1209.5666,,,1210.0671,1210.3171,,58,58,,,,,,,,,,,,,,,,bars/041.png,bars/mask004.png,,,,,,,,,,,,1,2,,,,,,,8,8,8,7,,,,,,,,,,,1209.5667,1210.0671,1210.3171,1213.9331,space,3.5989,,1213.9331,38,27,1214.9339,1214.934,1215.8499,space,0.8849,,0,49,49,49,1,20,85,,,,,,,,
,,,001,2023-12-14_08h17.31.732,bars,2023.2.3,Win32,60.07088364,,,,,,,,,,,,,,,,,,,,,,,,,,,,,,,,,,,,,,,,,,,,,,,,,,,,,,,,,,,,,,,,,,,,,,,,,,,,,,,,,,,,,,,,1215.8509,1275.8518,0,0,0,4,1,sequence_tables/blk032.csv
,,,001,2023-12-14_08h17.31.732,bars,2023.2.3,Win32,60.07088364,,,,,,1321.2287,1322.2172,,,1322.7168,1322.9671,,45,225,,,,,,,,,,,,,,,,bars/048.png,bars/mask003.png,,,,,,,,,,,,8,1,,,,,,,8,7,10,8,,,,,,1275.8668,1321.2168,space,45.3391,,1322.2172,1322.7168,1322.9671,1331.9334,space,8.9579,,1331.9335,5,50,1332.9334,1332.9334,1332.9503,,,,0,0,0,0,1,50,175,,,,,,,,
,,,001,2023-12-14_08h17.31.732,bars,2023.2.3,Win32,60.07088364,,,,,,1332.9505,1333.95,,,1334.4502,1334.7005,,150,150,,,,,,,,,,,,,,,,bars/038.png,bars/mask006.png,,,,,,,,,,,,3,1,,,,,,,6,5,6,4,,,,,,,,,,,1333.9501,1334.4502,1334.7006,1337.4175,space,2.6991,,1337.4176,15,80,1338.4174,1338.4175,1338.4262,,,,0,1,1,1,1,165,70,,,,,,,,
,,,001,2023-12-14_08h17.31.732,bars,2023.2.3,Win32,60.07088364,,,,,,1338.4264,1339.4251,,,1339.9176,1340.1684,,126,126,,,,,,,,,,,,,,,,bars/000.png,bars/mask008.png,,,,,,,,,,,,3,2,,,,,,,8,7,8,9,,,,,,,,,,,1339.4251,1339.9175,1340.1684,1345.4174,space,5.2176,,1345.4174,86,19,1346.4169,1346.4169,1346.4269,,,,0,2,2,2,1,40,145,,,,,,,,
,,,001,2023-12-14_08h17.31.732,bars,2023.2.3,Win32,60.07088364,,,,,,1346.4271,1347.4171,,,1347.9173,1348.1585,,122,122,,,,,,,,,,,,,,,,bars/004.png,bars/mask005.png,,,,,,,,,,,,4,2,,,,,,,10,5,9,4,,,,,,,,,,,1347.4171,1347.9173,1348.1585,1352.2187,space,4.0391,,1352.2188,83,3,1353.2175,1353.2175,1353.2258,,,,0,3,3,3,1,25,125,,,,,,,,
,,,001,2023-12-14_08h17.31.732,bars,2023.2.3,Win32,60.07088364,,,,,,1353.226,1354.2169,,,1354.717,1354.9676,,121,121,,,,,,,,,,,,,,,,bars/020.png,bars/mask008.png,,,,,,,,,,,,8,1,,,,,,,10,7,10,8,,,,,,,,,,,1354.217,1354.717,1354.9676,1359.2513,space,4.2761,,1359.2513,6,49,1360.2508,1360.2508,1360.2611,,,,0,4,4,4,1,115,170,,,,,,,,
,,,001,2023-12-14_08h17.31.732,bars,2023.2.3,Win32,60.07088364,,,,,,1360.2613,1361.2504,,,1361.7502,1362.0005,,31,211,,,,,,,,,,,,,,,,bars/016.png,bars/mask005.png,,,,,,,,,,,,7,1,,,,,,,10,5,10,6,,,,,,,,,,,1361.2504,1361.7501,1362.0005,1367.0342,space,5.017,,1367.0343,9,46,1368.0341,1368.0341,1368.0419,,,,0,5,5,5,1,40,165,,,,,,,,
,,,001,2023-12-14_08h17.31.732,bars,2023.2.3,Win32,60.07088364,,,,,,1368.042,1369.034,,,1369.5342,1369.7841,,23,203,,,,,,,,,,,,,,,,bars/003.png,bars/mask002.png,,,,,,,,,,,,9,1,,,,,,,10,7,10,7,,,,,,,,,,,1369.034,1369.5342,1369.7841,1375.1835,space,5.3839,,1375.1836,2,63,1376.1841,1376.1841,1376.1988,,,,0,6,6,6,1,25,140,,,,,,,,
,,,001,2023-12-14_08h17.31.732,bars,2023.2.3,Win32,60.07088364,,,,,,1376.199,1377.2003,,,1377.7004,1377.9503,,142,-38,,,,,,,,,,,,,,,,bars/011.png,bars/mask005.png,,,,,,,,,,,,4,1,,,,,,,10,5,9,7,,,,,,,,,,,1377.2003,1377.7004,1377.9504,1382.5671,space,4.6006,,1382.5672,18,57,1383.5666,1383.5667,1383.5789,,,,0,7,7,7,1,160,85,,,,,,,,
,,,001,2023-12-14_08h17.31.732,bars,2023.2.3,Win32,60.07088364,,,,,,1383.5791,1384.567,,,1385.0669,1385.3171,,152,-28,,,,,,,,,,,,,,,,bars/023.png,bars/mask009.png,,,,,,,,,,,,0,2,,,,,,,8,3,9,3,,,,,,,,,,,1384.567,1385.0669,1385.3171,1388.7336,space,3.4006,,1388.7336,48,37,1389.7349,1389.735,1389.7437,,,,0,8,8,8,1,20,115,,,,,,,,
,,,001,2023-12-14_08h17.31.732,bars,2023.2.3,Win32,60.07088364,,,,,,1389.7438,1390.7341,,,1391.2335,1391.484,,42,222,,,,,,,,,,,,,,,,bars/022.png,bars/mask000.png,,,,,,,,,,,,0,2,,,,,,,6,1,7,0,,,,,,,,,,,1390.7341,1391.2335,1391.484,1397.5341,space,6.0392,,1397.5341,53,22,1398.5335,1398.5336,1398.5512,,,,0,9,9,9,1,95,20,,,,,,,,
,,,001,2023-12-14_08h17.31.732,bars,2023.2.3,Win32,60.07088364,,,,,,1398.5516,1399.5502,,,1400.0506,1400.3006,,98,98,,,,,,,,,,,,,,,,bars/006.png,bars/mask002.png,,,,,,,,,,,,4,2,,,,,,,4,3,5,4,,,,,,,,,,,1399.5502,1400.0506,1400.3007,1403.3188,space,3.0074,,1403.3188,63,2,1404.3172,1404.3172,1404.333,,,,0,10,10,10,1,35,100,,,,,,,,
,,,001,2023-12-14_08h17.31.732,bars,2023.2.3,Win32,60.07088364,,,,,,1404.3331,1405.3337,,,1405.8345,1406.0836,,39,219,,,,,,,,,,,,,,,,bars/031.png,bars/mask001.png,,,,,,,,,,,,0,2,,,,,,,6,1,5,0,,,,,,,,,,,1405.3337,1405.8345,1406.0837,1410.967,space,4.868,,1410.9671,81,4,1411.9669,1411.9669,1411.9776,,,,0,11,11,11,1,120,35,,,,,,,,
,,,001,2023-12-14_08h17.31.732,bars,2023.2.3,Win32,60.07088364,,,,,,1411.9777,1412.9671,,,1413.4667,1413.7197,,102,102,,,,,,,,,,,,,,,,bars/006.png,bars/mask000.png,,,,,,,,,,,,1,2,,,,,,,8,0,9,1,,,,,,,,,,,1412.9672,1413.4667,1413.7197,1417.8339,space,4.0839,,1417.834,67,2,1418.835,1418.8351,1418.8464,,,,0,12,12,12,1,35,100,,,,,,,,
,,,001,2023-12-14_08h17.31.732,bars,2023.2.3,Win32,60.07088364,,,,,,1418.8466,1419.8344,,,1420.3336,1420.585,,102,102,,,,,,,,,,,,,,,,bars/002.png,bars/mask002.png,,,,,,,,,,,,0,2,,,,,,,10,0,8,0,,,,,,,,,,,1419.8344,1420.3335,1420.5851,1423.6342,space,3.0192,,1423.6342,28,17,1424.6341,1424.6341,1424.6439,,,,0,13,13,13,1,130,85,,,,,,,,
,,,001,2023-12-14_08h17.31.732,bars,2023.2.3,Win32,60.07088364,,,,,,1424.6442,1425.6336,,,1426.1335,1426.3837,,55,55,,,,,,,,,,,,,,,,bars/006.png,bars/mask000.png,,,,,,,,,,,,3,1,,,,,,,8,0,9,0,,,,,,,,,,,1425.6336,1426.1335,1426.3837,1430.2177,space,3.8181,,1430.2178,20,45,1431.217,1431.217,1431.2271,,,,0,14,14,14,1,35,100,,,,,,,,
,,,001,2023-12-14_08h17.31.732,bars,2023.2.3,Win32,60.07088364,,,,,,1431.2273,1432.217,,,1432.7185,1432.9687,,1,1,,,,,,,,,,,,,,,,bars/032.png,bars/mask006.png,,,,,,,,,,,,0,2,,,,,,,6,0,5,1,,,,,,,,,,,1432.217,1432.7184,1432.9687,1435.2682,space,2.2687,,1435.2683,56,19,1436.2669,1436.267,1436.2762,,,,0,15,15,15,1,125,20,,,,,,,,
,,,001,2023-12-14_08h17.31.732,bars,2023.2.3,Win32,60.07088364,,,,,,1436.2763,1437.2682,,,1437.7669,1438.0178,,62,62,,,,,,,,,,,,,,,,bars/026.png,bars/mask005.png,,,,,,,,,,,,0,2,,,,,,,4,2,3,2,,,,,,,,,,,1437.2682,1437.7669,1438.0178,1440.1178,space,2.0905,,1440.1178,27,23,1441.1174,1441.1175,1441.1181,,,,0,16,16,16,1,35,85,,,,,,,,
,,,001,2023-12-14_08h17.31.732,bars,2023.2.3,Win32,60.07088364,,,,,,1441.1184,1442.1176,,,1442.6179,1442.8675,,131,131,,,,,,,,,,,,,,,,bars/037.png,bars/mask005.png,,,,,,,,,,,,1,1,,,,,,,2,0,4,1,,,,,,,,,,,1442.1176,1442.6178,1442.8676,1445.2845,space,2.4084,,1445.2846,19,26,1446.2835,1446.2835,1446.2948,,,,0,17,17,17,1,150,105,,,,,,,,
,,,001,2023-12-14_08h17.31.732,bars,2023.2.3,Win32,60.07088364,,,,,,1446.295,1447.2842,,,1447.7855,1448.0345,,57,57,,,,,,,,,,,,,,,,bars/004.png,bars/mask004.png,,,,,,,,,,,,0,1,,,,,,,0,0,1,1,,,,,,,,,,,1447.2842,1447.7855,1448.0345,1450.4336,space,2.3834,,1450.4336,32,68,1451.4349,1451.435,1451.443,,,,0,18,18,18,1,25,125,,,,,,,,
,,,001,2023-12-14_08h17.31.732,bars,2023.2.3,Win32,60.07088364,,,,,,1451.4432,1452.434,,,1452.9336,1453.1843,,168,168,,,,,,,,,,,,,,,,bars/017.png,bars/mask008.png,,,,,,,,,,,,1,1,,,,,,,2,0,3,0,,,,,,,,,,,1452.4341,1452.9336,1453.1843,1455.4342,space,2.2357,,1455.4343,23,57,1456.4343,1456.4344,1456.4508,,,,0,19,19,19,1,145,45,,,,,,,,
,,,001,2023-12-14_08h17.31.732,bars,2023.2.3,Win32,60.07088364,,,,,,1456.451,1457.4505,,,1457.9509,1458.2012,,34,214,,,,,,,,,,,,,,,,bars/000.png,bars/mask003.png,,,,,,,,,,,,2,1,,,,,,,4,2,2,1,,,,,,,,,,,1457.4505,1457.9509,1458.2012,1487.1848,space,28.9713,,1487.1849,6,69,1488.1844,1488.1844,1488.2054,,,,0,20,20,20,1,40,145,,,,,,,,
,,,001,2023-12-14_08h17.31.732,bars,2023.2.3,Win32,60.07088364,,,,,,1488.2056,1489.201,,,1489.702,1489.951,,148,148,,,,,,,,,,,,,,,,bars/049.png,bars/mask004.png,,,,,,,,,,,,2,1,,,,,,,2,4,4,4,,,,,,,,,,,1489.2011,1489.702,1489.951,1497.218,space,7.2514,,1497.2181,12,33,1498.2171,1498.2172,1498.2313,,,,0,21,21,21,1,160,115,,,,,,,,
,,,001,2023-12-14_08h17.31.732,bars,2023.2.3,Win32,60.07088364,,,,,,1498.2315,1499.2338,,,1499.7345,1499.9847,,171,171,,,,,,,,,,,,,,,,bars/008.png,bars/mask008.png,,,,,,,,,,,,1,2,,,,,,,0,2,0,2,,,,,,,,,,,1499.2338,1499.7345,1499.9847,1504.2348,space,4.234,,1504.2349,61,9,1505.2347,1505.2348,1505.2599,,,,0,22,22,22,1,110,0,,,,,,,,
,,,001,2023-12-14_08h17.31.732,bars,2023.2.3,Win32,60.07088364,,,,,,1505.2602,1506.2505,,,1506.7509,1507.0008,,98,98,,,,,,,,,,,,,,,,bars/045.png,bars/mask009.png,,,,,,,,,,,,3,1,,,,,,,2,0,3,0,,,,,,,,,,,1506.2505,1506.7509,1507.0009,1512.1185,space,5.0909,,1512.1185,2,88,1513.1176,1513.1176,1513.1332,,,,0,23,23,23,1,100,10,,,,,,,,
,,,001,2023-12-14_08h17.31.732,bars,2023.2.3,Win32,60.07088364,,,,,,1513.1335,1514.1337,,,1514.6336,1514.8837,,71,251,,,,,,,,,,,,,,,,bars/028.png,bars/mask007.png,,,,,,,,,,,,0,1,,,,,,,0,2,0,3,,,,,,,,,,,1514.1338,1514.6336,1514.8837,1522.2257,space,7.3337,,1522.2257,26,49,1523.2183,1523.2183,1523.2376,,,,0,24,24,24,1,45,120,,,,,,,,
,,,001,2023-12-14_08h17.31.732,bars,2023.2.3,Win32,60.07088364,,,,,,1523.2381,1524.2347,,,1524.7351,1524.9836,,160,160,,,,,,,,,,,,,,,,bars/034.png,bars/mask008.png,,,,,,,,,,,,0,1,,,,,,,0,4,0,4,,,,,,,,,,,1524.2348,1524.7349,1524.9837,1528.6361,space,3.6355,,1528.6363,35,85,1529.6343,1529.6343,1529.6482,,,,0,25,25,25,1,125,65,,,,,,,,
,,,001,2023-12-14_08h17.31.732,bars,2023.2.3,Win32,60.07088364,,,,,,1529.6484,1530.651,,,1531.151,1531.4014,,112,112,,,,,,,,,,,,,,,,bars/027.png,bars/mask002.png,,,,,,,,,,,,4,1,,,,,,,2,2,4,1,,,,,,,,,,,1530.651,1531.151,1531.4014,1541.0851,space,9.6676,,1541.0852,2,62,1542.0839,1542.0839,1542.0997,,,,0,26,26,26,1,110,50,,,,,,,,
,,,001,2023-12-14_08h17.31.732,bars,2023.2.3,Win32,60.07088364,,,,,,1542.0999,1543.1008,,,1543.601,1543.851,,108,108,,,,,,,,,,,,,,,,bars/032.png,bars/mask008.png,,,,,,,,,,,,0,1,,,,,,,0,4,0,4,,,,,,,,,,,1543.1008,1543.601,1543.851,1547.0183,space,3.1509,,1547.0184,17,88,1548.0179,1548.018,1548.0386,,,,0,27,27,27,1,125,20,,,,,,,,
,,,001,2023-12-14_08h17.31.732,bars,2023.2.3,Win32,60.07088364,,,,,,1548.0387,1549.0346,,,1549.5339,1549.7837,,52,52,,,,,,,,,,,,,,,,bars/034.png,bars/mask001.png,,,,,,,,,,,,2,2,,,,,,,0,6,0,4,,,,,,,,,,,1549.0346,1549.5339,1549.7837,1572.5512,space,22.7507,,1572.5512,73,13,1573.5505,1573.5505,1573.5592,,,,0,28,28,28,1,125,65,,,,,,,,
,,,001,2023-12-14_08h17.31.732,bars,2023.2.3,Win32,60.07088364,,,,,,1573.5593,1574.5522,,,1575.0506,1575.3007,,138,138,,,,,,,,,,,,,,,,bars/032.png,bars/mask001.png,,,,,,,,,,,,1,1,,,,,,,2,8,2,8,,,,,,,,,,,1574.5522,1575.0506,1575.3007,1580.418,space,5.1002,,1580.418,13,62,1581.4172,1581.4173,1581.4332,,,,0,29,29,29,1,125,20,,,,,,,,
,,,001,2023-12-14_08h17.31.732,bars,2023.2.3,Win32,60.07088364,,,,,,1581.4333,1582.4348,,,1582.9344,1583.1842,,143,-37,,,,,,,,,,,,,,,,bars/011.png,bars/mask004.png,,,,,,,,,,,,2,1,,,,,,,4,10,5,9,,,,,,,,,,,1582.4348,1582.9344,1583.1843,1588.1511,space,4.9547,,1588.1512,17,58,1589.1511,1589.1512,1589.1592,,,,0,30,30,30,1,160,85,,,,,,,,
,,,001,2023-12-14_08h17.31.732,bars,2023.2.3,Win32,60.07088364,,,,,,1589.1593,1590.1511,,,1590.6506,1590.9016,,148,148,,,,,,,,,,,,,,,,bars/038.png,bars/mask000.png,,,,,,,,,,,,1,1,,,,,,,2,10,3,10,,,,,,,,,,,1590.1511,1590.6506,1590.9017,1596.1695,space,5.2343,,1596.1696,17,78,1597.169,1597.1691,1597.1848,,,,0,31,31,31,1,165,70,,,,,,,,
,,,001,2023-12-14_08h17.31.732,bars,2023.2.3,Win32,60.07088364,,,,,,1597.185,1598.1848,,,1598.6845,1598.9347,,128,128,,,,,,,,,,,,,,,,bars/020.png,bars/mask000.png,,,,,,,,,,,,2,1,,,,,,,4,8,4,7,,,,,,,,,,,1598.1849,1598.6845,1598.9347,1642.5689,space,43.6233,,1642.5691,13,42,1643.5694,1643.5695,1643.5817,,,,0,32,32,32,1,115,170,,,,,,,,
,,,001,2023-12-14_08h17.31.732,bars,2023.2.3,Win32,60.07088364,,,,,,1643.5819,1644.5839,,,1645.0842,1645.3345,,60,60,,,,,,,,,,,,,,,,bars/019.png,bars/mask005.png,,,,,,,,,,,,1,1,,,,,,,2,6,2,6,,,,,,,,,,,1644.5839,1645.0841,1645.3345,1648.2511,space,2.9024,,1648.2511,15,45,1649.242,1649.242,1649.2491,,,,0,33,33,33,1,45,105,,,,,,,,
,,,001,2023-12-14_08h17.31.732,bars,2023.2.3,Win32,60.07088364,,,,,,1649.2492,1650.2509,,,1650.7509,1651.0027,,133,133,,,,,,,,,,,,,,,,bars/037.png,bars/mask005.png,,,,,,,,,,,,0,1,,,,,,,0,4,0,1,,,,,,,,,,,1650.2509,1650.7509,1651.0028,1657.5021,space,6.4678,,1657.5022,17,28,1658.5016,1658.5016,1658.5175,,,,0,34,34,34,1,150,105,,,,,,,,
,,,001,2023-12-14_08h17.31.732,bars,2023.2.3,Win32,60.07088364,,,,,,1658.5177,1659.5182,,,1660.0178,1660.2682,,133,133,,,,,,,,,,,,,,,,bars/028.png,bars/mask004.png,,,,,,,,,,,,1,2,,,,,,,2,2,2,2,,,,,,,,,,,1659.5182,1660.0178,1660.2682,1667.4507,space,7.1678,,1667.4507,88,13,1668.4509,1668.4509,1668.4607,,,,0,35,35,35,1,45,120,,,,,,,,
,,,001,2023-12-14_08h17.31.732,bars,2023.2.3,Win32,60.07088364,,,,,,1668.4609,1669.4509,,,1669.9525,1670.2014,,139,139,,,,,,,,,,,,,,,,bars/046.png,bars/mask002.png,,,,,,,,,,,,0,1,,,,,,,0,0,0,1,,,,,,,,,,,1669.451,1669.9524,1670.2014,1675.6841,space,5.4678,,1675.6841,16,54,1676.684,1676.684,1676.6975,,,,0,36,36,36,1,155,85,,,,,,,,
,,,001,2023-12-14_08h17.31.732,bars,2023.2.3,Win32,60.07088364,,,,,,1676.6976,1677.701,,,1678.201,1678.4508,,6,186,,,,,,,,,,,,,,,,bars/035.png,bars/mask006.png,,,,,,,,,,,,1,1,,,,,,,2,2,2,1,,,,,,,,,,,1677.701,1678.2009,1678.4508,1681.3009,space,2.8338,,1681.3009,11,54,1682.301,1682.301,1682.3102,,,,0,37,37,37,1,175,60,,,,,,,,
,,,001,2023-12-14_08h17.31.732,bars,2023.2.3,Win32,60.07088364,,,,,,1682.3103,1683.3012,,,1683.8012,1684.0515,,36,216,,,,,,,,,,,,,,,,bars/036.png,bars/mask000.png,,,,,,,,,,,,0,2,,,,,,,4,0,3,0,,,,,,,,,,,1683.3012,1683.8012,1684.0515,1688.2695,space,4.2086,,1688.2697,71,16,1689.268,1689.268,1689.2846,,,,0,38,38,38,1,145,20,,,,,,,,
,,,001,2023-12-14_08h17.31.732,bars,2023.2.3,Win32,60.07088364,,,,,,1689.2849,1690.2849,,,1690.7843,1691.0348,,5,5,,,,,,,,,,,,,,,,bars/031.png,bars/mask008.png,,,,,,,,,,,,0,2,,,,,,,2,2,3,1,,,,,,,,,,,1690.285,1690.7843,1691.0348,1700.5675,space,9.5218,,1700.5676,65,30,1701.5682,1701.5682,1701.5828,,,,0,39,39,39,1,120,35,,,,,,,,
,,,001,2023-12-14_08h17.31.732,bars,2023.2.3,Win32,60.07088364,,,,,,1701.583,1702.5851,,,1703.084,1703.3343,,1,1,,,,,,,,,,,,,,,,bars/006.png,bars/mask007.png,,,,,,,,,,,,0,1,,,,,,,0,0,0,0,,,,,,,,,,,1702.5851,1703.0839,1703.3344,1709.651,space,6.2996,,1709.6511,34,81,1710.6515,1710.6515,1710.6674,,,,0,40,40,40,1,35,100,,,,,,,,
,,,001,2023-12-14_08h17.31.732,bars,2023.2.3,Win32,60.07088364,,,,,,1710.6677,1711.6678,,,1712.1678,1712.4179,,143,-37,,,,,,,,,,,,,,,,bars/008.png,bars/mask000.png,,,,,,,,,,,,0,1,,,,,,,2,0,2,0,,,,,,,,,,,1711.6678,1712.1678,1712.418,1718.5343,space,6.1057,,1718.5343,33,37,1719.5355,1719.5355,1719.5438,,,,0,41,41,41,1,110,0,,,,,,,,
,,,001,2023-12-14_08h17.31.732,bars,2023.2.3,Win32,60.07088364,,,,,,1719.5439,1720.5344,,,1721.0353,1721.2841,,34,214,,,,,,,,,,,,,,,,bars/005.png,bars/mask003.png,,,,,,,,,,,,0,1,,,,,,,0,2,1,0,,,,,,,,,,,1720.5344,1721.0353,1721.2841,1731.418,space,10.1169,,1731.418,24,74,1732.4182,1732.4182,1732.4322,,,,0,42,42,42,1,10,140,,,,,,,,
,,,001,2023-12-14_08h17.31.732,bars,2023.2.3,Win32,60.07088364,,,,,,1732.4323,1733.4344,,,1733.9346,1734.1851,,10,190,,,,,,,,,,,,,,,,bars/018.png,bars/mask008.png,,,,,,,,,,,,0,1,,,,,,,0,0,0,0,,,,,,,,,,,1733.4344,1733.9345,1734.1851,1742.9346,space,8.7173,,1742.9347,40,80,1743.9347,1743.9348,1743.9485,,,,0,43,43,43,1,150,90,,,,,,,,
,,,001,2023-12-14_08h17.31.732,bars,2023.2.3,Win32,60.07088364,,,,,,1743.9486,1744.9517,,,1745.4515,1745.7027,,38,38,,,,,,,,,,,,,,,,bars/026.png,bars/mask006.png,,,,,,,,,,,,0,1,,,,,,,2,0,0,1,,,,,,,,,,,1744.9517,1745.4515,1745.7027,1751.435,space,5.7168,,1751.4351,3,47,1752.4344,1752.4344,1752.4491,,,,0,44,44,44,1,35,85,,,,,,,,
,,,001,2023-12-14_08h17.31.732,bars,2023.2.3,Win32,60.07088364,,,,,,1752.4493,1753.4515,,,1753.9514,1754.2031,,55,55,,,,,,,,,,,,,,,,bars/025.png,bars/mask003.png,,,,,,,,,,,,1,2,,,,,,,0,2,1,2,,,,,,,,,,,1753.4515,1753.9513,1754.2031,1814.9096,space,60.6835,,1814.9097,50,15,1815.9096,1815.9096,1815.9274,,,,0,45,45,45,1,105,40,,,,,,,,
,,,001,2023-12-14_08h17.31.732,bars,2023.2.3,Win32,60.07088364,,,,,,1815.9277,1816.9183,,,1817.4181,1817.6677,,24,24,,,,,,,,,,,,,,,,bars/022.png,bars/mask003.png,,,,,,,,,,,,4,2,,,,,,,0,4,1,5,,,,,,,,,,,1816.9183,1817.418,1817.6677,1820.6512,space,2.9754,,1820.6513,71,4,1821.6513,1821.6513,1821.6617,,,,0,46,46,46,1,95,20,,,,,,,,
,,,001,2023-12-14_08h17.31.732,bars,2023.2.3,Win32,60.07088364,,,,,,1821.6619,1822.6515,,,1823.1514,1823.4017,,24,204,,,,,,,,,,,,,,,,bars/017.png,bars/mask001.png,,,,,,,,,,,,1,2,,,,,,,0,2,0,2,,,,,,,,,,,1822.6515,1823.1513,1823.4018,1830.8178,space,7.4006,,1830.8178,59,21,1831.818,1831.8181,1831.8325,,,,0,47,47,47,1,145,45,,,,,,,,
,,,001,2023-12-14_08h17.31.732,bars,2023.2.3,Win32,60.07088364,,,,,,1831.8327,1832.8344,,,1833.3343,1833.5846,,156,156,,,,,,,,,,,,,,,,bars/044.png,bars/mask009.png,,,,,,,,,,,,0,2,,,,,,,0,0,1,0,,,,,,,,,,,1832.8344,1833.3343,1833.5846,1838.4349,space,4.8421,,1838.4349,81,1,1839.4349,1839.4349,1839.4427,,,,0,48,48,48,1,75,155,,,,,,,,
,,,001,2023-12-14_08h17.31.732,bars,2023.2.3,Win32,60.07088364,,,,,,1839.4428,1840.4346,,,1840.9354,1841.1841,,13,13,,,,,,,,,,,,,,,,bars/032.png,bars/mask001.png,,,,,,,,,,,,1,2,,,,,,,2,2,4,1,,,,,,,,,,,1840.4346,1840.9353,1841.1841,1844.1853,space,2.9846,,1844.1853,68,7,1845.1852,1845.1852,1845.2073,,,,0,49,49,49,1,125,20,,,,,,,,
,,,001,2023-12-14_08h17.31.732,bars,2023.2.3,Win32,60.07088364,,,,,,,,,,,,,,,,,,,,,,,,,,,,,,,,,,,,,,,,,,,,,,,,,,,,,,,,,,,,,,,,,,,,,,,,,,,,,,,,,,,,,,,,1845.2076,1905.2017,0,1,1,1,1,sequence_tables/blk044.csv
,,,001,2023-12-14_08h17.31.732,bars,2023.2.3,Win32,60.07088364,,,,,,1935.5075,1936.5018,,,1937.0015,1937.2516,,7,7,,,,,,,,,,,,,,,,bars/032.png,bars/mask004.png,,,,,,,,,,,,5,2,,,,,,,9,8,9,9,,,,,,1905.2105,1935.4868,space,30.2574,,1936.5019,1937.0015,1937.2516,1943.1192,space,5.856,,1943.1193,62,13,1944.1189,1944.1189,1944.1353,,,,0,0,0,0,1,125,20,,,,,,,,
,,,001,2023-12-14_08h17.31.732,bars,2023.2.3,Win32,60.07088364,,,,,,1944.1355,1945.1348,,,1945.6356,1945.886,,154,154,,,,,,,,,,,,,,,,bars/049.png,bars/mask000.png,,,,,,,,,,,,6,1,,,,,,,7,10,7,10,,,,,,,,,,,1945.1348,1945.6356,1945.886,1953.0846,space,7.1744,,1953.0847,6,39,1954.0853,1954.0854,1954.1036,,,,0,1,1,1,1,160,115,,,,,,,,
,,,001,2023-12-14_08h17.31.732,bars,2023.2.3,Win32,60.07088364,,,,,,1954.1043,1955.102,,,1955.6022,1955.8514,,151,151,,,,,,,,,,,,,,,,bars/020.png,bars/mask006.png,,,,,,,,,,,,4,2,,,,,,,9,10,9,10,,,,,,,,,,,1955.102,1955.6021,1955.8514,1958.5025,space,2.6393,,1958.5025,36,19,1959.5013,1959.5013,1959.5028,,,,0,2,2,2,1,115,170,,,,,,,,
,,,001,2023-12-14_08h17.31.732,bars,2023.2.3,Win32,60.07088364,,,,,,1959.5032,1960.502,,,1961.003,1961.2529,,126,126,,,,,,,,,,,,,,,,bars/009.png,bars/mask006.png,,,,,,,,,,,,2,2,,,,,,,7,8,8,6,,,,,,,,,,,1960.5021,1961.003,1961.2529,1965.9189,space,4.6507,,1965.9189,69,21,1966.9184,1966.9184,1966.9359,,,,0,3,3,3,1,15,105,,,,,,,,
,,,001,2023-12-14_08h17.31.732,bars,2023.2.3,Win32,60.07088364,,,,,,1966.936,1967.9349,,,1968.4359,1968.6855,,46,46,,,,,,,,,,,,,,,,bars/047.png,bars/mask003.png,,,,,,,,,,,,2,2,,,,,,,5,10,6,10,,,,,,,,,,,1967.935,1968.4358,1968.6855,1974.8849,space,6.1735,,1974.8851,31,24,1975.8848,1975.8849,1975.9047,,,,0,4,4,4,1,15,70,,,,,,,,
,,,001,2023-12-14_08h17.31.732,bars,2023.2.3,Win32,60.07088364,,,,,,1975.9051,1976.9015,,,1977.4022,1977.652,,173,173,,,,,,,,,,,,,,,,bars/020.png,bars/mask006.png,,,,,,,,,,,,7,2,,,,,,,7,8,7,8,,,,,,,,,,,1976.9015,1977.4022,1977.6521,1985.6523,space,7.9844,,1985.6523,58,3,1986.6514,1986.6515,1986.6677,,,,0,5,5,5,1,115,170,,,,,,,,
,,,001,2023-12-14_08h17.31.732,bars,2023.2.3,Win32,60.07088364,,,,,,1986.6678,1987.668,,,1988.1682,1988.4186,,158,158,,,,,,,,,,,,,,,,bars/006.png,bars/mask007.png,,,,,,,,,,,,0,1,,,,,,,9,6,9,5,,,,,,,,,,,1987.668,1988.1682,1988.4187,2016.7516,space,28.3215,,2016.7516,57,58,2017.7513,2017.7513,2017.7688,,,,0,6,6,6,1,35,100,,,,,,,,
,,,001,2023-12-14_08h17.31.732,bars,2023.2.3,Win32,60.07088364,,,,,,2017.769,2018.7688,,,2019.2687,2019.5182,,54,54,,,,,,,,,,,,,,,,bars/031.png,bars/mask007.png,,,,,,,,,,,,1,2,,,,,,,7,4,7,2,,,,,,,,,,,2018.7688,2019.2687,2019.5183,2027.8184,space,8.2843,,2027.8184,66,19,2028.8189,2028.8189,2028.8388,,,,0,7,7,7,1,120,35,,,,,,,,
,,,001,2023-12-14_08h17.31.732,bars,2023.2.3,Win32,60.07088364,,,,,,2028.8395,2029.835,,,2030.3356,2030.5857,,23,23,,,,,,,,,,,,,,,,bars/047.png,bars/mask000.png,,,,,,,,,,,,4,1,,,,,,,5,2,6,3,,,,,,,,,,,2029.8351,2030.3356,2030.5857,2067.585,space,36.9832,,2067.5851,8,47,2068.5855,2068.5856,2068.5963,,,,0,8,8,8,1,15,70,,,,,,,,
,,,001,2023-12-14_08h17.31.732,bars,2023.2.3,Win32,60.07088364,,,,,,2068.5965,2069.585,,,2070.0868,2070.3352,,141,141,,,,,,,,,,,,,,,,bars/039.png,bars/mask002.png,,,,,,,,,,,,0,1,,,,,,,7,4,8,4,,,,,,,,,,,2069.585,2070.0868,2070.3353,2075.4855,space,5.1402,,2075.4856,34,36,2076.4849,2076.4849,2076.4998,,,,0,9,9,9,1,175,105,,,,,,,,
,,,001,2023-12-14_08h17.31.732,bars,2023.2.3,Win32,60.07088364,,,,,,2076.5,2077.5022,,,2078.0018,2078.2522,,141,141,,,,,,,,,,,,,,,,bars/046.png,bars/mask004.png,,,,,,,,,,,,5,1,,,,,,,9,2,10,2,,,,,,,,,,,2077.5022,2078.0018,2078.2523,2080.4519,space,2.1835,,2080.4519,14,56,2081.4519,2081.4519,2081.4602,,,,0,10,10,10,1,155,85,,,,,,,,
,,,001,2023-12-14_08h17.31.732,bars,2023.2.3,Win32,60.07088364,,,,,,2081.4603,2082.4518,,,2082.9522,2083.2015,,26,26,,,,,,,,,,,,,,,,bars/003.png,bars/mask009.png,,,,,,,,,,,,7,1,,,,,,,7,0,7,0,,,,,,,,,,,2082.4518,2082.9522,2083.2015,2086.1761,space,2.9664,,2086.1761,1,66,2087.17,2087.1701,2087.1845,,,,0,11,11,11,1,25,140,,,,,,,,
,,,001,2023-12-14_08h17.31.732,bars,2023.2.3,Win32,60.07088364,,,,,,2087.1848,2088.1857,,,2088.6859,2088.9352,,36,36,,,,,,,,,,,,,,,,bars/022.png,bars/mask008.png,,,,,,,,,,,,0,2,,,,,,,9,0,9,0,,,,,,,,,,,2088.1857,2088.6858,2088.9352,2092.3531,space,3.4044,,2092.3531,59,16,2093.3519,2093.3519,2093.361,,,,0,12,12,12,1,95,20,,,,,,,,
,,,001,2023-12-14_08h17.31.732,bars,2023.2.3,Win32,60.07088364,,,,,,2093.3611,2094.3514,,,2094.8516,2095.1021,,136,136,,,,,,,,,,,,,,,,bars/037.png,bars/mask002.png,,,,,,,,,,,,5,1,,,,,,,10,0,10,2,,,,,,,,,,,2094.3515,2094.8516,2095.1022,2098.569,space,3.4538,,2098.569,14,31,2099.5681,2099.5681,2099.5761,,,,0,13,13,13,1,150,105,,,,,,,,
,,,001,2023-12-14_08h17.31.732,bars,2023.2.3,Win32,60.07088364,,,,,,2099.5762,2100.5682,,,2101.0692,2101.3187,,56,56,,,,,,,,,,,,,,,,bars/028.png,bars/mask005.png,,,,,,,,,,,,5,1,,,,,,,10,2,8,0,,,,,,,,,,,2100.5682,2101.0691,2101.3187,2104.602,space,3.2672,,2104.6021,11,64,2105.6023,2105.6024,2105.6121,,,,0,14,14,14,1,45,120,,,,,,,,
,,,001,2023-12-14_08h17.31.732,bars,2023.2.3,Win32,60.07088364,,,,,,2105.6122,2106.6014,,,2107.1019,2107.3514,,138,138,,,,,,,,,,,,,,,,bars/018.png,bars/mask004.png,,,,,,,,,,,,5,1,,,,,,,8,4,8,4,,,,,,,,,,,2106.6014,2107.1019,2107.3515,2115.0851,space,7.7177,,2115.0851,12,48,2116.0862,2116.0862,2116.1068,,,,0,15,15,15,1,150,90,,,,,,,,
,,,001,2023-12-14_08h17.31.732,bars,2023.2.3,Win32,60.07088364,,,,,,2116.1069,2117.1025,,,2117.602,2117.8515,,159,159,,,,,,,,,,,,,,,,bars/039.png,bars/mask002.png,,,,,,,,,,,,5,1,,,,,,,10,2,10,2,,,,,,,,,,,2117.1025,2117.6019,2117.8515,2124.8853,space,7.0177,,2124.8853,16,54,2125.886,2125.886,2125.9051,,,,0,16,16,16,1,175,105,,,,,,,,
,,,001,2023-12-14_08h17.31.732,bars,2023.2.3,Win32,60.07088364,,,,,,2125.9055,2126.902,,,2127.4029,2127.652,,143,-37,,,,,,,,,,,,,,,,bars/021.png,bars/mask003.png,,,,,,,,,,,,5,1,,,,,,,8,0,8,1,,,,,,,,,,,2126.902,2127.4028,2127.652,2132.1361,space,4.4675,,2132.1361,12,73,2133.1356,2133.1357,2133.153,,,,0,17,17,17,1,155,70,,,,,,,,
,,,001,2023-12-14_08h17.31.732,bars,2023.2.3,Win32,60.07088364,,,,,,2133.1533,2134.1524,,,2134.6517,2134.9019,,135,135,,,,,,,,,,,,,,,,bars/002.png,bars/mask002.png,,,,,,,,,,,,4,1,,,,,,,6,0,5,0,,,,,,,,,,,2134.1525,2134.6517,2134.9019,2137.6354,space,2.7177,,2137.6354,5,50,2138.6355,2138.6355,2138.651,,,,0,18,18,18,1,130,85,,,,,,,,
,,,001,2023-12-14_08h17.31.732,bars,2023.2.3,Win32,60.07088364,,,,,,2138.6512,2139.6533,,,2140.1531,2140.4021,,154,154,,,,,,,,,,,,,,,,bars/000.png,bars/mask000.png,,,,,,,,,,,,0,2,,,,,,,8,0,9,0,,,,,,,,,,,2139.6533,2140.1531,2140.4021,2148.9022,space,8.4899,,2148.9022,66,9,2149.9018,2149.9018,2149.9116,,,,0,19,19,19,1,40,145,,,,,,,,
,,,001,2023-12-14_08h17.31.732,bars,2023.2.3,Win32,60.07088364,,,,,,2149.9116,2150.9016,,,2151.4021,2151.6534,,156,-24,,,,,,,,,,,,,,,,bars/008.png,bars/mask002.png,,,,,,,,,,,,0,2,,,,,,,6,2,5,1,,,,,,,,,,,2150.9016,2151.4021,2151.6535,2162.5853,space,10.9174,,2162.5853,46,24,2163.5853,2163.5853,2163.6007,,,,0,20,20,20,1,110,0,,,,,,,,
,,,001,2023-12-14_08h17.31.732,bars,2023.2.3,Win32,60.07088364,,,,,,2163.6009,2164.6023,,,2165.1022,2165.3524,,44,44,,,,,,,,,,,,,,,,bars/028.png,bars/mask001.png,,,,,,,,,,,,4,1,,,,,,,4,0,4,0,,,,,,,,,,,2164.6024,2165.1021,2165.3524,2169.2527,space,3.889,,2169.2528,1,76,2170.2518,2170.2519,2170.2715,,,,0,21,21,21,1,45,120,,,,,,,,
,,,001,2023-12-14_08h17.31.732,bars,2023.2.3,Win32,60.07088364,,,,,,2170.2721,2171.2693,,,2171.7683,2172.0187,,35,215,,,,,,,,,,,,,,,,bars/029.png,bars/mask000.png,,,,,,,,,,,,0,2,,,,,,,6,0,5,0,,,,,,,,,,,2171.2693,2171.7683,2172.0187,2176.5024,space,4.4729,,2176.5025,55,10,2177.5031,2177.5032,2177.5209,,,,0,22,22,22,1,90,45,,,,,,,,
,,,001,2023-12-14_08h17.31.732,bars,2023.2.3,Win32,60.07088364,,,,,,2177.5213,2178.5191,,,2179.0189,2179.2686,,138,-42,,,,,,,,,,,,,,,,bars/040.png,bars/mask009.png,,,,,,,,,,,,4,1,,,,,,,4,0,4,0,,,,,,,,,,,2178.5192,2179.0188,2179.2686,2188.1026,space,8.8168,,2188.1026,2,47,2189.1033,2189.1033,2189.1135,,,,0,23,23,23,1,140,5,,,,,,,,
,,,001,2023-12-14_08h17.31.732,bars,2023.2.3,Win32,60.07088364,,,,,,2189.1136,2190.1024,,,2190.6017,2190.8527,,175,175,,,,,,,,,,,,,,,,bars/038.png,bars/mask008.png,,,,,,,,,,,,3,1,,,,,,,6,0,5,0,,,,,,,,,,,2190.1024,2190.6017,2190.8527,2196.2852,space,5.4237,,2196.2852,10,75,2197.2856,2197.2856,2197.2937,,,,0,24,24,24,1,165,70,,,,,,,,
,,,001,2023-12-14_08h17.31.732,bars,2023.2.3,Win32,60.07088364,,,,,,2197.2938,2198.2853,,,2198.7856,2199.035,,3,183,,,,,,,,,,,,,,,,bars/038.png,bars/mask000.png,,,,,,,,,,,,3,1,,,,,,,8,2,7,2,,,,,,,,,,,2198.2854,2198.7855,2199.0351,2201.7355,space,2.6851,,2201.7356,18,67,2202.735,2202.7351,2202.7453,,,,0,25,25,25,1,165,70,,,,,,,,
,,,001,2023-12-14_08h17.31.732,bars,2023.2.3,Win32,60.07088364,,,,,,2202.7456,2203.736,,,2204.2353,2204.4869,,5,5,,,,,,,,,,,,,,,,bars/028.png,bars/mask008.png,,,,,,,,,,,,0,1,,,,,,,10,4,10,4,,,,,,,,,,,2203.736,2204.2353,2204.4869,2215.752,space,11.2381,,2215.752,40,65,2216.7525,2216.7525,2216.7706,,,,0,26,26,26,1,45,120,,,,,,,,
,,,001,2023-12-14_08h17.31.732,bars,2023.2.3,Win32,60.07088364,,,,,,2216.7709,2217.7687,,,2218.2693,2218.5189,,166,-14,,,,,,,,,,,,,,,,bars/021.png,bars/mask003.png,,,,,,,,,,,,6,1,,,,,,,10,6,9,8,,,,,,,,,,,2217.7687,2218.2692,2218.5189,2244.3019,space,25.774,,2244.3021,11,84,2245.3017,2245.3018,2245.3102,,,,0,27,27,27,1,155,70,,,,,,,,
,,,001,2023-12-14_08h17.31.732,bars,2023.2.3,Win32,60.07088364,,,,,,2245.3104,2246.3019,,,2246.8027,2247.0527,,32,32,,,,,,,,,,,,,,,,bars/041.png,bars/mask009.png,,,,,,,,,,,,4,1,,,,,,,8,4,6,5,,,,,,,,,,,2246.3019,2246.8027,2247.0528,2250.7029,space,3.6337,,2250.7029,12,53,2251.7022,2251.7023,2251.715,,,,0,28,28,28,1,20,85,,,,,,,,
,,,001,2023-12-14_08h17.31.732,bars,2023.2.3,Win32,60.07088364,,,,,,2251.7151,2252.7198,,,2253.2184,2253.4693,,103,103,,,,,,,,,,,,,,,,bars/045.png,bars/mask005.png,,,,,,,,,,,,9,1,,,,,,,10,2,10,2,,,,,,,,,,,2252.7199,2253.2184,2253.4693,2260.3523,space,6.8718,,2260.3523,3,87,2261.3524,2261.3524,2261.3666,,,,0,29,29,29,1,100,10,,,,,,,,
,,,001,2023-12-14_08h17.31.732,bars,2023.2.3,Win32,60.07088364,,,,,,2261.3668,2262.3694,,,2262.8685,2263.1191,,36,216,,,,,,,,,,,,,,,,bars/031.png,bars/mask008.png,,,,,,,,,,,,0,2,,,,,,,10,0,10,0,,,,,,,,,,,2262.3694,2262.8684,2263.1191,2299.1854,space,36.0535,,2299.1854,84,1,2300.1855,2300.1855,2300.1998,,,,0,30,30,30,1,120,35,,,,,,,,
,,,001,2023-12-14_08h17.31.732,bars,2023.2.3,Win32,60.07088364,,,,,,2300.2001,2301.2019,,,2301.7026,2301.952,,38,218,,,,,,,,,,,,,,,,bars/029.png,bars/mask009.png,,,,,,,,,,,,0,2,,,,,,,8,0,7,0,,,,,,,,,,,2301.202,2301.7025,2301.952,2305.7187,space,3.7547,,2305.7187,52,7,2306.7192,2306.7192,2306.7335,,,,0,31,31,31,1,90,45,,,,,,,,
,,,001,2023-12-14_08h17.31.732,bars,2023.2.3,Win32,60.07088364,,,,,,2306.7337,2307.7354,,,2308.2356,2308.4855,,110,110,,,,,,,,,,,,,,,,bars/039.png,bars/mask007.png,,,,,,,,,,,,3,2,,,,,,,6,2,6,4,,,,,,,,,,,2307.7355,2308.2356,2308.4855,2311.2855,space,2.7906,,2311.2855,65,5,2312.2861,2312.2862,2312.2964,,,,0,32,32,32,1,175,105,,,,,,,,
,,,001,2023-12-14_08h17.31.732,bars,2023.2.3,Win32,60.07088364,,,,,,2312.2966,2313.2865,,,2313.7856,2314.0355,,0,0,,,,,,,,,,,,,,,,bars/040.png,bars/mask005.png,,,,,,,,,,,,4,2,,,,,,,4,4,5,5,,,,,,,,,,,2313.2866,2313.7856,2314.0355,2317.32,space,3.2686,,2317.3201,40,5,2318.3189,2318.3189,2318.3272,,,,0,33,33,33,1,140,5,,,,,,,,
,,,001,2023-12-14_08h17.31.732,bars,2023.2.3,Win32,60.07088364,,,,,,2318.3273,2319.3189,,,2319.8189,2320.0687,,14,194,,,,,,,,,,,,,,,,bars/006.png,bars/mask005.png,,,,,,,,,,,,2,1,,,,,,,6,2,7,3,,,,,,,,,,,2319.319,2319.8189,2320.0687,2322.5856,space,2.5028,,2322.5856,21,86,2323.5859,2323.5859,2323.611,,,,0,34,34,34,1,35,100,,,,,,,,
,,,001,2023-12-14_08h17.31.732,bars,2023.2.3,Win32,60.07088364,,,,,,2323.6112,2324.6022,,,2325.102,2325.3523,,50,230,,,,,,,,,,,,,,,,bars/028.png,bars/mask008.png,,,,,,,,,,,,3,1,,,,,,,4,0,3,0,,,,,,,,,,,2324.6022,2325.102,2325.3523,2335.3857,space,10.0197,,2335.3858,5,70,2336.3862,2336.3863,2336.4011,,,,0,35,35,35,1,45,120,,,,,,,,
,,,001,2023-12-14_08h17.31.732,bars,2023.2.3,Win32,60.07088364,,,,,,2336.4013,2337.4021,,,2337.9024,2338.1529,,54,54,,,,,,,,,,,,,,,,bars/004.png,bars/mask000.png,,,,,,,,,,,,0,1,,,,,,,6,0,6,1,,,,,,,,,,,2337.4022,2337.9023,2338.1529,2344.303,space,6.1376,,2344.303,29,71,2345.3026,2345.3027,2345.3188,,,,0,36,36,36,1,25,125,,,,,,,,
,,,001,2023-12-14_08h17.31.732,bars,2023.2.3,Win32,60.07088364,,,,,,2345.3189,2346.3188,,,2346.819,2347.0689,,156,-24,,,,,,,,,,,,,,,,bars/015.png,bars/mask001.png,,,,,,,,,,,,3,2,,,,,,,4,2,3,4,,,,,,,,,,,2346.3188,2346.819,2347.069,2356.2708,space,9.1909,,2356.2708,46,4,2357.2691,2357.2692,2357.2858,,,,0,37,37,37,1,110,160,,,,,,,,
,,,001,2023-12-14_08h17.31.732,bars,2023.2.3,Win32,60.07088364,,,,,,2357.286,2358.2861,,,2358.7858,2359.0373,,178,178,,,,,,,,,,,,,,,,bars/030.png,bars/mask008.png,,,,,,,,,,,,0,1,,,,,,,2,4,2,4,,,,,,,,,,,2358.2861,2358.7858,2359.0373,2363.753,space,4.6877,,2363.7531,38,67,2364.7535,2364.7535,2364.7714,,,,0,38,38,38,1,140,65,,,,,,,,
,,,001,2023-12-14_08h17.31.732,bars,2023.2.3,Win32,60.07088364,,,,,,2364.7717,2365.7697,,,2366.2691,2366.5189,,50,50,,,,,,,,,,,,,,,,bars/023.png,bars/mask004.png,,,,,,,,,,,,0,1,,,,,,,0,2,0,2,,,,,,,,,,,2365.7698,2366.2691,2366.5189,2370.6855,space,4.1567,,2370.6855,30,65,2371.6855,2371.6855,2371.6993,,,,0,39,39,39,1,20,115,,,,,,,,
,,,001,2023-12-14_08h17.31.732,bars,2023.2.3,Win32,60.07088364,,,,,,2371.6996,2372.7024,,,2373.2028,2373.4527,,158,158,,,,,,,,,,,,,,,,bars/024.png,bars/mask002.png,,,,,,,,,,,,3,2,,,,,,,2,4,3,5,,,,,,,,,,,2372.7024,2373.2028,2373.4527,2375.8696,space,2.4008,,2375.8696,38,12,2376.8694,2376.8694,2376.8802,,,,0,40,40,40,1,120,170,,,,,,,,
,,,001,2023-12-14_08h17.31.732,bars,2023.2.3,Win32,60.07088364,,,,,,2376.8803,2377.8697,,,2378.3692,2378.619,,25,25,,,,,,,,,,,,,,,,bars/047.png,bars/mask008.png,,,,,,,,,,,,1,1,,,,,,,4,2,2,2,,,,,,,,,,,2377.8698,2378.3692,2378.619,2383.4522,space,4.8156,,2383.4523,10,45,2384.453,2384.4531,2384.4635,,,,0,41,41,41,1,15,70,,,,,,,,
,,,001,2023-12-14_08h17.31.732,bars,2023.2.3,Win32,60.07088364,,,,,,2384.4637,2385.4536,,,2385.9525,2386.2023,,131,131,,,,,,,,,,,,,,,,bars/020.png,bars/mask006.png,,,,,,,,,,,,2,1,,,,,,,6,0,5,0,,,,,,,,,,,2385.4537,2385.9525,2386.2023,2392.6021,space,6.3831,,2392.6021,16,39,2393.6032,2393.6032,2393.6129,,,,0,42,42,42,1,115,170,,,,,,,,
,,,001,2023-12-14_08h17.31.732,bars,2023.2.3,Win32,60.07088364,,,,,,2393.613,2394.603,,,2395.1025,2395.3581,,132,132,,,,,,,,,,,,,,,,bars/045.png,bars/mask009.png,,,,,,,,,,,,0,1,,,,,,,8,0,8,0,,,,,,,,,,,2394.6031,2395.1025,2395.3581,2397.6191,space,2.2375,,2397.6192,32,58,2398.6196,2398.6196,2398.6336,,,,0,43,43,43,1,100,10,,,,,,,,
,,,001,2023-12-14_08h17.31.732,bars,2023.2.3,Win32,60.07088364,,,,,,2398.6338,2399.6359,,,2400.1361,2400.3855,,133,133,,,,,,,,,,,,,,,,bars/043.png,bars/mask007.png,,,,,,,,,,,,0,2,,,,,,,6,0,7,0,,,,,,,,,,,2399.6359,2400.1361,2400.3855,2415.336,space,14.9336,,2415.3361,77,3,2416.3356,2416.3356,2416.3533,,,,0,44,44,44,1,30,130,,,,,,,,
,,,001,2023-12-14_08h17.31.732,bars,2023.2.3,Win32,60.07088364,,,,,,2416.3535,2417.3528,,,2417.8525,2418.1039,,13,13,,,,,,,,,,,,,,,,bars/041.png,bars/mask001.png,,,,,,,,,,,,7,1,,,,,,,8,0,9,0,,,,,,,,,,,2417.3528,2417.8525,2418.104,2420.7693,space,2.6345,,2420.7693,7,72,2421.7692,2421.7692,2421.7776,,,,0,45,45,45,1,20,85,,,,,,,,
,,,001,2023-12-14_08h17.31.732,bars,2023.2.3,Win32,60.07088364,,,,,,2421.7778,2422.7692,,,2423.2707,2423.5191,,152,-28,,,,,,,,,,,,,,,,bars/039.png,bars/mask001.png,,,,,,,,,,,,2,1,,,,,,,10,2,8,2,,,,,,,,,,,2422.7692,2423.2707,2423.5192,2428.154,space,4.616,,2428.1541,23,47,2429.1527,2429.1527,2429.161,,,,0,46,46,46,1,175,105,,,,,,,,
,,,001,2023-12-14_08h17.31.732,bars,2023.2.3,Win32,60.07088364,,,,,,2429.1611,2430.1526,,,2430.6527,2430.9031,,15,15,,,,,,,,,,,,,,,,bars/005.png,bars/mask008.png,,,,,,,,,,,,6,1,,,,,,,8,4,7,4,,,,,,,,,,,2430.1526,2430.6526,2430.9031,2433.4361,space,2.517,,2433.4361,5,55,2434.4357,2434.4357,2434.449,,,,0,47,47,47,1,10,140,,,,,,,,
,,,001,2023-12-14_08h17.31.732,bars,2023.2.3,Win32,60.07088364,,,,,,2434.4492,2435.4527,,,2435.9538,2436.2028,,178,178,,,,,,,,,,,,,,,,bars/023.png,bars/mask002.png,,,,,,,,,,,,1,1,,,,,,,6,6,5,5,,,,,,,,,,,2435.4527,2435.9538,2436.2028,2440.6191,space,4.401,,2440.6191,22,63,2441.6191,2441.6191,2441.6322,,,,0,48,48,48,1,20,115,,,,,,,,
,,,001,2023-12-14_08h17.31.732,bars,2023.2.3,Win32,60.07088364,,,,,,2441.6323,2442.6198,,,2443.1189,2443.3708,,167,-13,,,,,,,,,,,,,,,,bars/021.png,bars/mask005.png,,,,,,,,,,,,2,1,,,,,,,4,4,4,5,,,,,,,,,,,2442.6198,2443.1189,2443.371,2447.6526,space,4.258,,2447.6526,12,83,2448.6524,2448.6524,2448.6667,,,,0,49,49,49,1,155,70,,,,,,,,
,,,001,2023-12-14_08h17.31.732,bars,2023.2.3,Win32,60.07088364,,,,,,,,,,,,,,,,,,,,,,,,,,,,,,,,,,,,,,,,,,,,,,,,,,,,,,,,,,,,,,,,,,,,,,,,,,,,,,,,,,,,,,,,2448.6669,2508.6615,0,2,2,3,1,sequence_tables/blk000.csv
,,,001,2023-12-14_08h17.31.732,bars,2023.2.3,Win32,60.07088364,,,,,,2526.6552,2527.6533,,,2528.1533,2528.4025,,153,153,,,,,,,,,,,,,,,,bars/048.png,bars/mask008.png,,,,,,,,,,,,2,2,,,,,,,5,9,5,7,,,,,,2508.6799,2526.6372,space,17.9404,,2527.6533,2528.1533,2528.4026,2530.8861,space,2.4706,,2530.8861,77,22,2531.8861,2531.8862,2531.9094,,,,0,0,0,0,1,50,175,,,,,,,,
,,,001,2023-12-14_08h17.31.732,bars,2023.2.3,Win32,60.07088364,,,,,,2531.9095,2532.9031,,,2533.4026,2533.6539,,23,23,,,,,,,,,,,,,,,,bars/035.png,bars/mask003.png,,,,,,,,,,,,1,1,,,,,,,7,7,10,5,,,,,,,,,,,2532.9031,2533.4025,2533.654,2536.8032,space,3.1193,,2536.8032,28,37,2537.8027,2537.8027,2537.8135,,,,0,1,1,1,1,175,60,,,,,,,,
,,,001,2023-12-14_08h17.31.732,bars,2023.2.3,Win32,60.07088364,,,,,,2537.8137,2538.8024,,,2539.3025,2539.5528,,86,86,,,,,,,,,,,,,,,,bars/018.png,bars/mask001.png,,,,,,,,,,,,3,2,,,,,,,5,5,6,3,,,,,,,,,,,2538.8024,2539.3025,2539.5529,2543.1044,space,3.5336,,2543.1045,64,4,2544.1024,2544.1024,2544.1193,,,,0,2,2,2,1,150,90,,,,,,,,
,,,001,2023-12-14_08h17.31.732,bars,2023.2.3,Win32,60.07088364,,,,,,2544.1195,2545.1198,,,2545.6204,2545.8698,,125,125,,,,,,,,,,,,,,,,bars/031.png,bars/mask008.png,,,,,,,,,,,,5,1,,,,,,,7,3,6,6,,,,,,,,,,,2545.1199,2545.6204,2545.8699,2548.0198,space,2.1348,,2548.0199,5,90,2549.0198,2549.0198,2549.0289,,,,0,3,3,3,1,120,35,,,,,,,,
,,,001,2023-12-14_08h17.31.732,bars,2023.2.3,Win32,60.07088364,,,,,,2549.029,2550.0199,,,2550.5201,2550.7709,,128,128,,,,,,,,,,,,,,,,bars/040.png,bars/mask007.png,,,,,,,,,,,,5,1,,,,,,,9,5,9,6,,,,,,,,,,,2550.02,2550.5201,2550.771,2552.6532,space,1.8507,,2552.6532,12,57,2553.6525,2553.6526,2553.6671,,,,0,4,4,4,1,140,5,,,,,,,,
,,,001,2023-12-14_08h17.31.732,bars,2023.2.3,Win32,60.07088364,,,,,,2553.6674,2554.6699,,,2555.1701,2555.4192,,139,-41,,,,,,,,,,,,,,,,bars/005.png,bars/mask005.png,,,,,,,,,,,,6,2,,,,,,,10,7,9,6,,,,,,,,,,,2554.6699,2555.1701,2555.4193,2559.0361,space,3.6078,,2559.0361,51,1,2560.0378,2560.0378,2560.0477,,,,0,5,5,5,1,10,140,,,,,,,,
,,,001,2023-12-14_08h17.31.732,bars,2023.2.3,Win32,60.07088364,,,,,,2560.0478,2561.0376,,,2561.5359,2561.7868,,49,229,,,,,,,,,,,,,,,,bars/019.png,bars/mask004.png,,,,,,,,,,,,6,1,,,,,,,8,5,7,4,,,,,,,,,,,2561.0378,2561.5359,2561.7868,2566.1906,space,4.3967,,2566.1907,4,56,2567.1867,2567.1867,2567.2011,,,,0,6,6,6,1,45,105,,,,,,,,
,,,001,2023-12-14_08h17.31.732,bars,2023.2.3,Win32,60.07088364,,,,,,2567.2012,2568.2031,,,2568.7043,2568.9532,,166,-14,,,,,,,,,,,,,,,,bars/040.png,bars/mask007.png,,,,,,,,,,,,3,2,,,,,,,6,7,6,8,,,,,,,,,,,2568.2032,2568.7043,2568.9532,2574.8544,space,5.8829,,2574.8545,26,19,2575.8534,2575.8534,2575.8678,,,,0,7,7,7,1,140,5,,,,,,,,
,,,001,2023-12-14_08h17.31.732,bars,2023.2.3,Win32,60.07088364,,,,,,2575.868,2576.8701,,,2577.3694,2577.6191,,173,-7,,,,,,,,,,,,,,,,bars/007.png,bars/mask009.png,,,,,,,,,,,,8,1,,,,,,,8,5,9,6,,,,,,,,,,,2576.8701,2577.3694,2577.6191,2583.7363,space,6.1013,,2583.7364,2,62,2584.7379,2584.7379,2584.7544,,,,0,8,8,8,1,175,55,,,,,,,,
,,,001,2023-12-14_08h17.31.732,bars,2023.2.3,Win32,60.07088364,,,,,,2584.7547,2585.753,,,2586.2534,2586.5036,,169,169,,,,,,,,,,,,,,,,bars/035.png,bars/mask002.png,,,,,,,,,,,,8,1,,,,,,,10,7,10,8,,,,,,,,,,,2585.753,2586.2534,2586.5037,2593.5532,space,7.0358,,2593.5532,6,71,2594.5533,2594.5534,2594.571,,,,0,9,9,9,1,175,60,,,,,,,,
,,,001,2023-12-14_08h17.31.732,bars,2023.2.3,Win32,60.07088364,,,,,,2594.5715,2595.5692,,,2596.0696,2596.3199,,16,16,,,,,,,,,,,,,,,,bars/016.png,bars/mask000.png,,,,,,,,,,,,2,1,,,,,,,8,9,8,9,,,,,,,,,,,2595.5692,2596.0695,2596.3199,2603.6373,space,7.3083,,2603.6373,24,31,2604.6375,2604.6375,2604.6507,,,,0,10,10,10,1,40,165,,,,,,,,
,,,001,2023-12-14_08h17.31.732,bars,2023.2.3,Win32,60.07088364,,,,,,2604.6509,2605.6531,,,2606.1533,2606.4028,,158,-22,,,,,,,,,,,,,,,,bars/038.png,bars/mask008.png,,,,,,,,,,,,4,1,,,,,,,6,10,5,10,,,,,,,,,,,2605.6531,2606.1533,2606.4028,2610.9198,space,4.5046,,2610.9198,7,88,2611.9199,2611.9199,2611.9369,,,,0,11,11,11,1,165,70,,,,,,,,
,,,001,2023-12-14_08h17.31.732,bars,2023.2.3,Win32,60.07088364,,,,,,2611.9371,2612.9361,,,2613.4364,2613.6867,,0,180,,,,,,,,,,,,,,,,bars/040.png,bars/mask004.png,,,,,,,,,,,,7,2,,,,,,,8,10,10,8,,,,,,,,,,,2612.9361,2613.4363,2613.6867,2617.8031,space,4.1003,,2617.8031,40,5,2618.8048,2618.8048,2618.8242,,,,0,12,12,12,1,140,5,,,,,,,,
,,,001,2023-12-14_08h17.31.732,bars,2023.2.3,Win32,60.07088364,,,,,,2618.8244,2619.8197,,,2620.3197,2620.5692,,158,-22,,,,,,,,,,,,,,,,bars/046.png,bars/mask008.png,,,,,,,,,,,,9,1,,,,,,,10,10,10,8,,,,,,,,,,,2619.8197,2620.3197,2620.5692,2623.12,space,2.5389,,2623.12,3,73,2624.1209,2624.121,2624.1299,,,,0,13,13,13,1,155,85,,,,,,,,
,,,001,2023-12-14_08h17.31.732,bars,2023.2.3,Win32,60.07088364,,,,,,2624.13,2625.1195,,,2625.6199,2625.8698,,36,216,,,,,,,,,,,,,,,,bars/041.png,bars/mask000.png,,,,,,,,,,,,3,1,,,,,,,8,8,7,8,,,,,,,,,,,2625.1195,2625.6199,2625.8699,2633.9201,space,8.0341,,2633.9202,16,49,2634.9196,2634.9196,2634.9312,,,,0,14,14,14,1,20,85,,,,,,,,
,,,001,2023-12-14_08h17.31.732,bars,2023.2.3,Win32,60.07088364,,,,,,2634.9313,2635.92,,,2636.4197,2636.6701,,140,140,,,,,,,,,,,,,,,,bars/000.png,bars/mask009.png,,,,,,,,,,,,5,2,,,,,,,6,6,7,6,,,,,,,,,,,2635.92,2636.4196,2636.6701,2639.903,space,3.2225,,2639.9031,80,5,2640.9032,2640.9033,2640.9247,,,,0,15,15,15,1,40,145,,,,,,,,
,,,001,2023-12-14_08h17.31.732,bars,2023.2.3,Win32,60.07088364,,,,,,2640.925,2641.9199,,,2642.4078,2642.6533,,116,116,,,,,,,,,,,,,,,,bars/034.png,bars/mask007.png,,,,,,,,,,,,5,1,,,,,,,8,4,7,2,,,,,,,,,,,2641.9199,2642.4078,2642.6533,2645.4193,space,2.751,,2645.4194,9,51,2646.4197,2646.4197,2646.436,,,,0,16,16,16,1,125,65,,,,,,,,
,,,001,2023-12-14_08h17.31.732,bars,2023.2.3,Win32,60.07088364,,,,,,2646.4362,2647.4362,,,2647.9305,2648.1699,,1,181,,,,,,,,,,,,,,,,bars/007.png,bars/mask004.png,,,,,,,,,,,,7,1,,,,,,,10,2,9,2,,,,,,,,,,,2647.4362,2647.9305,2648.1699,2651.7873,space,3.5999,,2651.7874,6,54,2652.7863,2652.7863,2652.7939,,,,0,17,17,17,1,175,55,,,,,,,,
,,,001,2023-12-14_08h17.31.732,bars,2023.2.3,Win32,60.07088364,,,,,,2652.7941,2653.7864,,,2654.2861,2654.5366,,3,3,,,,,,,,,,,,,,,,bars/035.png,bars/mask009.png,,,,,,,,,,,,4,1,,,,,,,8,0,6,0,,,,,,,,,,,2653.7865,2654.2861,2654.5366,2656.7702,space,2.2203,,2656.7703,8,57,2657.7695,2657.7695,2657.7829,,,,0,18,18,18,1,175,60,,,,,,,,
,,,001,2023-12-14_08h17.31.732,bars,2023.2.3,Win32,60.07088364,,,,,,2657.7831,2658.7863,,,2659.2868,2659.5366,,109,109,,,,,,,,,,,,,,,,bars/006.png,bars/mask005.png,,,,,,,,,,,,1,2,,,,,,,10,0,10,2,,,,,,,,,,,2658.7864,2659.2867,2659.5367,2664.1702,space,4.6188,,2664.1702,74,9,2665.1703,2665.1703,2665.1781,,,,0,19,19,19,1,35,100,,,,,,,,
,,,001,2023-12-14_08h17.31.732,bars,2023.2.3,Win32,60.07088364,,,,,,2665.1782,2666.1693,,,2666.6694,2666.9193,,18,198,,,,,,,,,,,,,,,,bars/048.png,bars/mask001.png,,,,,,,,,,,,0,2,,,,,,,10,0,10,0,,,,,,,,,,,2666.1693,2666.6694,2666.9193,2670.0251,space,3.0976,,2670.0251,32,23,2671.0199,2671.0199,2671.0279,,,,0,20,20,20,1,50,175,,,,,,,,
,,,001,2023-12-14_08h17.31.732,bars,2023.2.3,Win32,60.07088364,,,,,,2671.028,2672.0197,,,2672.5204,2672.7699,,105,105,,,,,,,,,,,,,,,,bars/006.png,bars/mask003.png,,,,,,,,,,,,0,2,,,,,,,8,0,5,0,,,,,,,,,,,2672.0197,2672.5203,2672.7699,2674.8697,space,2.0846,,2674.8697,70,5,2675.8711,2675.8712,2675.8806,,,,0,21,21,21,1,35,100,,,,,,,,
,,,001,2023-12-14_08h17.31.732,bars,2023.2.3,Win32,60.07088364,,,,,,2675.8807,2676.8704,,,2677.3712,2677.621,,163,163,,,,,,,,,,,,,,,,bars/034.png,bars/mask001.png,,,,,,,,,,,,0,1,,,,,,,10,0,9,0,,,,,,,,,,,2676.8705,2677.3711,2677.6211,2678.8032,space,1.1692,,2678.8032,38,82,2679.8037,2679.8037,2679.811,,,,0,22,22,22,1,125,65,,,,,,,,
,,,001,2023-12-14_08h17.31.732,bars,2023.2.3,Win32,60.07088364,,,,,,2679.811,2680.8037,,,2681.3034,2681.5539,,108,108,,,,,,,,,,,,,,,,bars/030.png,bars/mask007.png,,,,,,,,,,,,0,1,,,,,,,10,2,9,1,,,,,,,,,,,2680.8037,2681.3034,2681.554,2683.4526,space,1.883,,2683.4526,32,43,2684.4533,2684.4534,2684.454,,,,0,23,23,23,1,140,65,,,,,,,,
,,,001,2023-12-14_08h17.31.732,bars,2023.2.3,Win32,60.07088364,,,,,,2684.4543,2685.4535,,,2685.9534,2686.2033,,117,117,,,,,,,,,,,,,,,,bars/001.png,bars/mask001.png,,,,,,,,,,,,5,1,,,,,,,8,0,8,0,,,,,,,,,,,2685.4535,2685.9534,2686.2034,2692.2046,space,5.9846,,2692.2047,13,32,2693.2038,2693.2038,2693.2139,,,,0,24,24,24,1,130,85,,,,,,,,
,,,001,2023-12-14_08h17.31.732,bars,2023.2.3,Win32,60.07088364,,,,,,2693.2141,2694.2034,,,2694.703,2694.9529,,126,126,,,,,,,,,,,,,,,,bars/034.png,bars/mask009.png,,,,,,,,,,,,4,1,,,,,,,6,0,4,0,,,,,,,,,,,2694.2034,2694.7029,2694.9529,2697.4368,space,2.4752,,2697.4369,1,61,2698.4366,2698.4367,2698.454,,,,0,25,25,25,1,125,65,,,,,,,,
,,,001,2023-12-14_08h17.31.732,bars,2023.2.3,Win32,60.07088364,,,,,,2698.4542,2699.453,,,2699.9533,2700.2034,,24,24,,,,,,,,,,,,,,,,bars/004.png,bars/mask003.png,,,,,,,,,,,,3,1,,,,,,,4,2,3,1,,,,,,,,,,,2699.453,2699.9533,2700.2034,2704.9438,space,4.7328,,2704.9438,1,79,2705.9373,2705.9374,2705.9464,,,,0,26,26,26,1,25,125,,,,,,,,
,,,001,2023-12-14_08h17.31.732,bars,2023.2.3,Win32,60.07088364,,,,,,2705.9466,2706.937,,,2707.4362,2707.6871,,160,-20,,,,,,,,,,,,,,,,bars/039.png,bars/mask006.png,,,,,,,,,,,,1,1,,,,,,,2,0,2,0,,,,,,,,,,,2706.937,2707.4362,2707.6871,2711.5698,space,3.8535,,2711.5698,15,55,2712.5698,2712.5698,2712.5779,,,,0,27,27,27,1,175,105,,,,,,,,
,,,001,2023-12-14_08h17.31.732,bars,2023.2.3,Win32,60.07088364,,,,,,2712.578,2713.5696,,,2714.0696,2714.3199,,165,-15,,,,,,,,,,,,,,,,bars/023.png,bars/mask000.png,,,,,,,,,,,,0,1,,,,,,,0,2,1,1,,,,,,,,,,,2713.5696,2714.0696,2714.32,2718.2032,space,3.868,,2718.2032,35,50,2719.203,2719.203,2719.2152,,,,0,28,28,28,1,20,115,,,,,,,,
,,,001,2023-12-14_08h17.31.732,bars,2023.2.3,Win32,60.07088364,,,,,,2719.2153,2720.2039,,,2720.7031,2720.9528,,19,19,,,,,,,,,,,,,,,,bars/004.png,bars/mask008.png,,,,,,,,,,,,2,1,,,,,,,2,0,3,0,,,,,,,,,,,2720.204,2720.7031,2720.9529,2724.32,space,3.3507,,2724.32,6,74,2725.321,2725.3211,2725.3305,,,,0,29,29,29,1,25,125,,,,,,,,
,,,001,2023-12-14_08h17.31.732,bars,2023.2.3,Win32,60.07088364,,,,,,2725.3307,2726.3202,,,2726.8197,2727.0698,,101,101,,,,,,,,,,,,,,,,bars/045.png,bars/mask008.png,,,,,,,,,,,,3,1,,,,,,,4,2,3,1,,,,,,,,,,,2726.3202,2726.8197,2727.0698,2733.0695,space,5.991,,2733.0695,1,89,2734.07,2734.07,2734.0818,,,,0,30,30,30,1,100,10,,,,,,,,
,,,001,2023-12-14_08h17.31.732,bars,2023.2.3,Win32,60.07088364,,,,,,2734.0819,2735.087,,,2735.5861,2735.8375,,109,109,,,,,,,,,,,,,,,,bars/045.png,bars/mask004.png,,,,,,,,,,,,3,1,,,,,,,2,4,4,5,,,,,,,,,,,2735.087,2735.5861,2735.8375,2742.9205,space,7.072,,2742.9205,9,81,2743.9196,2743.9196,2743.9273,,,,0,31,31,31,1,100,10,,,,,,,,
,,,001,2023-12-14_08h17.31.732,bars,2023.2.3,Win32,60.07088364,,,,,,2743.9274,2744.9194,,,2745.42,2745.6699,,96,96,,,,,,,,,,,,,,,,bars/025.png,bars/mask008.png,,,,,,,,,,,,1,1,,,,,,,0,6,1,5,,,,,,,,,,,2744.9194,2745.42,2745.67,2749.5063,space,3.8217,,2749.5063,9,56,2750.5044,2750.5044,2750.5127,,,,0,32,32,32,1,105,40,,,,,,,,
,,,001,2023-12-14_08h17.31.732,bars,2023.2.3,Win32,60.07088364,,,,,,2750.5128,2751.5028,,,2752.0032,2752.253,,101,101,,,,,,,,,,,,,,,,bars/037.png,bars/mask000.png,,,,,,,,,,,,7,2,,,,,,,0,8,0,8,,,,,,,,,,,2751.5029,2752.0032,2752.253,2757.4041,space,5.1425,,2757.4042,49,4,2758.4034,2758.4034,2758.4196,,,,0,33,33,33,1,150,105,,,,,,,,
,,,001,2023-12-14_08h17.31.732,bars,2023.2.3,Win32,60.07088364,,,,,,2758.4198,2759.42,,,2759.9207,2760.1701,,105,105,,,,,,,,,,,,,,,,bars/040.png,bars/mask006.png,,,,,,,,,,,,0,1,,,,,,,0,6,0,6,,,,,,,,,,,2759.42,2759.9207,2760.1701,2763.5717,space,3.3866,,2763.5717,35,80,2764.5702,2764.5703,2764.5866,,,,0,34,34,34,1,140,5,,,,,,,,
,,,001,2023-12-14_08h17.31.732,bars,2023.2.3,Win32,60.07088364,,,,,,2764.5868,2765.5869,,,2766.0864,2766.337,,110,110,,,,,,,,,,,,,,,,bars/025.png,bars/mask007.png,,,,,,,,,,,,0,1,,,,,,,0,8,0,7,,,,,,,,,,,2765.5869,2766.0864,2766.3371,2771.6534,space,5.3077,,2771.6534,5,70,2772.6529,2772.6529,2772.6604,,,,0,35,35,35,1,105,40,,,,,,,,
,,,001,2023-12-14_08h17.31.732,bars,2023.2.3,Win32,60.07088364,,,,,,2772.6605,2773.6536,,,2774.1544,2774.4035,,47,47,,,,,,,,,,,,,,,,bars/029.png,bars/mask000.png,,,,,,,,,,,,6,2,,,,,,,2,6,2,6,,,,,,,,,,,2773.6536,2774.1543,2774.4035,2778.837,space,4.4253,,2778.837,43,2,2779.8372,2779.8372,2779.8511,,,,0,36,36,36,1,90,45,,,,,,,,
,,,001,2023-12-14_08h17.31.732,bars,2023.2.3,Win32,60.07088364,,,,,,2779.8514,2780.8534,,,2781.3537,2781.6032,,73,73,,,,,,,,,,,,,,,,bars/029.png,bars/mask007.png,,,,,,,,,,,,0,1,,,,,,,0,8,1,7,,,,,,,,,,,2780.8534,2781.3536,2781.6033,2785.9698,space,4.3521,,2785.9698,17,28,2786.9704,2786.9704,2786.9872,,,,0,37,37,37,1,90,45,,,,,,,,
,,,001,2023-12-14_08h17.31.732,bars,2023.2.3,Win32,60.07088364,,,,,,2786.9874,2787.9871,,,2788.4862,2788.7368,,9,9,,,,,,,,,,,,,,,,bars/005.png,bars/mask001.png,,,,,,,,,,,,5,1,,,,,,,2,10,5,9,,,,,,,,,,,2787.9872,2788.4862,2788.7368,2793.4042,space,4.6602,,2793.4042,1,49,2794.4031,2794.4032,2794.421,,,,0,38,38,38,1,10,140,,,,,,,,
,,,001,2023-12-14_08h17.31.732,bars,2023.2.3,Win32,60.07088364,,,,,,2794.4214,2795.4199,,,2795.92,2796.1707,,20,200,,,,,,,,,,,,,,,,bars/016.png,bars/mask001.png,,,,,,,,,,,,0,1,,,,,,,0,10,0,10,,,,,,,,,,,2795.42,2795.9199,2796.1708,2800.3382,space,4.1337,,2800.3382,20,35,2801.3367,2801.3368,2801.3536,,,,0,39,39,39,1,40,165,,,,,,,,
,,,001,2023-12-14_08h17.31.732,bars,2023.2.3,Win32,60.07088364,,,,,,2801.3539,2802.3532,,,2802.8531,2803.1035,,39,219,,,,,,,,,,,,,,,,bars/025.png,bars/mask003.png,,,,,,,,,,,,10,2,,,,,,,2,10,3,10,,,,,,,,,,,2802.3532,2802.853,2803.1035,2811.1201,space,8.0049,,2811.1202,66,1,2812.1212,2812.1212,2812.13,,,,0,40,40,40,1,105,40,,,,,,,,
,,,001,2023-12-14_08h17.31.732,bars,2023.2.3,Win32,60.07088364,,,,,,2812.1301,2813.1197,,,2813.6204,2813.8697,,30,30,,,,,,,,,,,,,,,,bars/007.png,bars/mask000.png,,,,,,,,,,,,2,2,,,,,,,4,10,6,10,,,,,,,,,,,2813.1197,2813.6204,2813.8697,2816.4699,space,2.5902,,2816.47,35,25,2817.4698,2817.4699,2817.4814,,,,0,41,41,41,1,175,55,,,,,,,,
,,,001,2023-12-14_08h17.31.732,bars,2023.2.3,Win32,60.07088364,,,,,,2817.4816,2818.4706,,,2818.9702,2819.2217,,15,195,,,,,,,,,,,,,,,,bars/040.png,bars/mask006.png,,,,,,,,,,,,7,2,,,,,,,2,10,2,10,,,,,,,,,,,2818.4707,2818.9702,2819.2218,2823.3126,space,4.0679,,2823.3126,55,10,2824.3033,2824.3034,2824.3186,,,,0,42,42,42,1,140,5,,,,,,,,
,,,001,2023-12-14_08h17.31.732,bars,2023.2.3,Win32,60.07088364,,,,,,2824.3188,2825.3214,,,2825.8203,2826.0701,,159,159,,,,,,,,,,,,,,,,bars/011.png,bars/mask004.png,,,,,,,,,,,,4,1,,,,,,,4,10,4,9,,,,,,,,,,,2825.3215,2825.8203,2826.0701,2830.353,space,4.2668,,2830.3531,1,74,2831.3539,2831.354,2831.3628,,,,0,43,43,43,1,160,85,,,,,,,,
,,,001,2023-12-14_08h17.31.732,bars,2023.2.3,Win32,60.07088364,,,,,,2831.363,2832.3537,,,2832.853,2833.1035,,122,-58,,,,,,,,,,,,,,,,bars/037.png,bars/mask003.png,,,,,,,,,,,,3,2,,,,,,,6,8,7,8,,,,,,,,,,,2832.3537,2832.853,2833.1036,2840.3873,space,7.269,,2840.3873,28,17,2841.3872,2841.3872,2841.3959,,,,0,44,44,44,1,150,105,,,,,,,,
,,,001,2023-12-14_08h17.31.732,bars,2023.2.3,Win32,60.07088364,,,,,,2841.396,2842.3867,,,2842.887,2843.1371,,170,-10,,,,,,,,,,,,,,,,bars/031.png,bars/mask005.png,,,,,,,,,,,,0,2,,,,,,,4,10,2,10,,,,,,,,,,,2842.3867,2842.8869,2843.1371,2859.4205,space,16.276,,2859.4205,50,45,2860.4208,2860.4208,2860.4356,,,,0,45,45,45,1,120,35,,,,,,,,
,,,001,2023-12-14_08h17.31.732,bars,2023.2.3,Win32,60.07088364,,,,,,2860.4359,2861.4365,,,2861.937,2862.1871,,32,212,,,,,,,,,,,,,,,,bars/013.png,bars/mask009.png,,,,,,,,,,,,2,2,,,,,,,2,8,2,6,,,,,,,,,,,2861.4366,2861.937,2862.1871,2866.0367,space,3.8338,,2866.0367,43,22,2867.0363,2867.0363,2867.0442,,,,0,46,46,46,1,75,10,,,,,,,,
,,,001,2023-12-14_08h17.31.732,bars,2023.2.3,Win32,60.07088364,,,,,,2867.0444,2868.0364,,,2868.5373,2868.7865,,50,50,,,,,,,,,,,,,,,,bars/028.png,bars/mask009.png,,,,,,,,,,,,3,1,,,,,,,4,6,4,7,,,,,,,,,,,2868.0365,2868.5372,2868.7865,2874.1199,space,5.317,,2874.1199,5,70,2875.1201,2875.1201,2875.1346,,,,0,47,47,47,1,45,120,,,,,,,,
,,,001,2023-12-14_08h17.31.732,bars,2023.2.3,Win32,60.07088364,,,,,,2875.1347,2876.1367,,,2876.6374,2876.8873,,50,50,,,,,,,,,,,,,,,,bars/013.png,bars/mask000.png,,,,,,,,,,,,0,1,,,,,,,2,8,2,7,,,,,,,,,,,2876.1368,2876.6373,2876.8874,2881.3882,space,4.4842,,2881.3883,25,40,2882.3868,2882.3868,2882.4025,,,,0,48,48,48,1,75,10,,,,,,,,
,,,001,2023-12-14_08h17.31.732,bars,2023.2.3,Win32,60.07088364,,,,,,2882.4027,2883.4047,,,2883.9041,2884.154,,15,195,,,,,,,,,,,,,,,,bars/023.png,bars/mask005.png,,,,,,,,,,,,0,1,,,,,,,0,10,0,10,,,,,,,,,,,2883.4048,2883.9041,2884.1541,2887.1705,space,3.0001,,2887.1706,5,80,2888.1699,2888.1699,2888.183,,,,0,49,49,49,1,20,115,,,,,,,,
,,,001,2023-12-14_08h17.31.732,bars,2023.2.3,Win32,60.07088364,,,,,,,,,,,,,,,,,,,,,,,,,,,,,,,,,,,,,,,,,,,,,,,,,,,,,,,,,,,,,,,,,,,,,,,,,,,,,,,,,,,,,,,,2888.1832,2948.1876,0,3,3,2,1,sequence_tables/blk026.csv
,,,001,2023-12-14_08h17.31.732,bars,2023.2.3,Win32,60.07088364,,,,,,2951.7447,2952.7374,,,2953.2376,2953.4871,,136,136,,,,,,,,,,,,,,,,bars/034.png,bars/mask002.png,,,,,,,,,,,,5,1,,,,,,,7,2,8,3,,,,,,2948.1972,2951.7372,space,3.5207,,2952.7375,2953.2375,2953.4872,2959.4706,space,5.9684,,2959.4706,11,71,2960.4704,2960.4704,2960.4829,,,,0,0,0,0,1,125,65,,,,,,,,
,,,001,2023-12-14_08h17.31.732,bars,2023.2.3,Win32,60.07088364,,,,,,2960.4832,2961.4884,,,2961.9869,2962.2368,,173,173,,,,,,,,,,,,,,,,bars/033.png,bars/mask008.png,,,,,,,,,,,,2,2,,,,,,,9,4,8,5,,,,,,,,,,,2961.4885,2961.9868,2962.2368,2967.1591,space,4.9142,,2967.1591,32,18,2968.1537,2968.1537,2968.162,,,,0,1,1,1,1,25,155,,,,,,,,
,,,001,2023-12-14_08h17.31.732,bars,2023.2.3,Win32,60.07088364,,,,,,2968.1622,2969.1535,,,2969.6537,2969.9051,,13,13,,,,,,,,,,,,,,,,bars/032.png,bars/mask009.png,,,,,,,,,,,,5,2,,,,,,,7,6,6,6,,,,,,,,,,,2969.1535,2969.6537,2969.9051,2974.5053,space,4.5687,,2974.5054,68,7,2975.5052,2975.5053,2975.5141,,,,0,2,2,2,1,125,20,,,,,,,,
,,,001,2023-12-14_08h17.31.732,bars,2023.2.3,Win32,60.07088364,,,,,,2975.5143,2976.5037,,,2977.0052,2977.2541,,73,73,,,,,,,,,,,,,,,,bars/030.png,bars/mask004.png,,,,,,,,,,,,7,2,,,,,,,5,8,6,9,,,,,,,,,,,2976.5038,2977.0052,2977.2542,2983.9588,space,6.681,,2983.9588,67,8,2984.9542,2984.9542,2984.9624,,,,0,3,3,3,1,140,65,,,,,,,,
,,,001,2023-12-14_08h17.31.732,bars,2023.2.3,Win32,60.07088364,,,,,,2984.9624,2985.9538,,,2986.4551,2986.7083,,25,25,,,,,,,,,,,,,,,,bars/012.png,bars/mask003.png,,,,,,,,,,,,4,2,,,,,,,3,6,2,6,,,,,,,,,,,2985.9539,2986.455,2986.7083,2991.6376,space,4.9009,,2991.6376,65,10,2992.6381,2992.6381,2992.6468,,,,0,4,4,4,1,90,15,,,,,,,,
,,,001,2023-12-14_08h17.31.732,bars,2023.2.3,Win32,60.07088364,,,,,,2992.6469,2993.6385,,,2994.1379,2994.3876,,149,149,,,,,,,,,,,,,,,,bars/015.png,bars/mask007.png,,,,,,,,,,,,3,2,,,,,,,5,4,4,5,,,,,,,,,,,2993.6386,2994.1378,2994.3876,2996.9538,space,2.5533,,2996.9538,39,11,2997.9541,2997.9542,2997.9625,,,,0,5,5,5,1,110,160,,,,,,,,
,,,001,2023-12-14_08h17.31.732,bars,2023.2.3,Win32,60.07088364,,,,,,2997.9626,2998.9549,,,2999.4544,2999.7034,,9,189,,,,,,,,,,,,,,,,bars/012.png,bars/mask003.png,,,,,,,,,,,,2,2,,,,,,,3,2,3,3,,,,,,,,,,,2998.955,2999.4544,2999.7035,3005.4119,space,5.7,,3005.4119,81,6,3006.4035,3006.4036,3006.4128,,,,0,6,6,6,1,90,15,,,,,,,,
,,,001,2023-12-14_08h17.31.732,bars,2023.2.3,Win32,60.07088364,,,,,,3006.4129,3007.4051,,,3007.9035,3008.1536,,15,195,,,,,,,,,,,,,,,,bars/014.png,bars/mask006.png,,,,,,,,,,,,2,2,,,,,,,1,4,2,3,,,,,,,,,,,3007.4052,3007.9035,3008.1536,3011.8957,space,3.7342,,3011.8957,65,15,3012.8876,3012.8876,3012.8957,,,,0,7,7,7,1,80,0,,,,,,,,
,,,001,2023-12-14_08h17.31.732,bars,2023.2.3,Win32,60.07088364,,,,,,3012.8959,3013.887,,,3014.3871,3014.6383,,11,191,,,,,,,,,,,,,,,,bars/035.png,bars/mask000.png,,,,,,,,,,,,0,1,,,,,,,0,2,0,3,,,,,,,,,,,3013.887,3014.3871,3014.6384,3018.3384,space,3.6675,,3018.3385,16,49,3019.3376,3019.3376,3019.3588,,,,0,8,8,8,1,175,60,,,,,,,,
,,,001,2023-12-14_08h17.31.732,bars,2023.2.3,Win32,60.07088364,,,,,,3019.359,3020.3551,,,3020.8537,3021.1037,,174,174,,,,,,,,,,,,,,,,bars/021.png,bars/mask000.png,,,,,,,,,,,,0,1,,,,,,,0,4,0,5,,,,,,,,,,,3020.3552,3020.8536,3021.1037,3027.1373,space,6.0212,,3027.1374,19,76,3028.137,3028.137,3028.1492,,,,0,9,9,9,1,155,70,,,,,,,,
,,,001,2023-12-14_08h17.31.732,bars,2023.2.3,Win32,60.07088364,,,,,,3028.1495,3029.154,,,3029.6545,3029.9047,,145,-35,,,,,,,,,,,,,,,,bars/001.png,bars/mask001.png,,,,,,,,,,,,0,1,,,,,,,0,6,0,6,,,,,,,,,,,3029.1541,3029.6545,3029.9048,3036.5386,space,6.6203,,3036.5386,15,60,3037.5388,3037.5389,3037.5558,,,,0,10,10,10,1,130,85,,,,,,,,
,,,001,2023-12-14_08h17.31.732,bars,2023.2.3,Win32,60.07088364,,,,,,3037.556,3038.5544,,,3039.0541,3039.3035,,140,140,,,,,,,,,,,,,,,,bars/018.png,bars/mask006.png,,,,,,,,,,,,1,1,,,,,,,2,8,2,8,,,,,,,,,,,3038.5544,3039.0541,3039.3035,3047.9537,space,8.6335,,3047.9538,10,50,3048.9538,3048.9539,3048.9685,,,,0,11,11,11,1,150,90,,,,,,,,
,,,001,2023-12-14_08h17.31.732,bars,2023.2.3,Win32,60.07088364,,,,,,3048.9687,3049.9707,,,3050.4705,3050.7204,,165,-15,,,,,,,,,,,,,,,,bars/033.png,bars/mask003.png,,,,,,,,,,,,4,2,,,,,,,4,6,5,6,,,,,,,,,,,3049.9708,3050.4704,3050.7204,3055.1382,space,4.4038,,3055.1382,40,10,3056.1377,3056.1378,3056.1531,,,,0,12,12,12,1,25,155,,,,,,,,
,,,001,2023-12-14_08h17.31.732,bars,2023.2.3,Win32,60.07088364,,,,,,3056.1533,3057.1535,,,3057.6538,3057.9035,,157,157,,,,,,,,,,,,,,,,bars/015.png,bars/mask009.png,,,,,,,,,,,,7,2,,,,,,,2,8,1,8,,,,,,,,,,,3057.1535,3057.6538,3057.9035,3064.1536,space,6.2363,,3064.1536,47,3,3065.1542,3065.1542,3065.1666,,,,0,13,13,13,1,110,160,,,,,,,,
,,,001,2023-12-14_08h17.31.732,bars,2023.2.3,Win32,60.07088364,,,,,,3065.1667,3066.1711,,,3066.671,3066.9207,,147,147,,,,,,,,,,,,,,,,bars/006.png,bars/mask005.png,,,,,,,,,,,,0,2,,,,,,,4,10,3,10,,,,,,,,,,,3066.1711,3066.6709,3066.9207,3076.5037,space,9.5719,,3076.5037,68,47,3077.5039,3077.5039,3077.5184,,,,0,14,14,14,1,35,100,,,,,,,,
,,,001,2023-12-14_08h17.31.732,bars,2023.2.3,Win32,60.07088364,,,,,,3077.5186,3078.5209,,,3079.0207,3079.2719,,143,-37,,,,,,,,,,,,,,,,bars/024.png,bars/mask009.png,,,,,,,,,,,,1,1,,,,,,,2,10,3,9,,,,,,,,,,,3078.521,3079.0206,3079.272,3083.7611,space,4.4657,,3083.7611,23,27,3084.7539,3084.7539,3084.7714,,,,0,15,15,15,1,120,170,,,,,,,,
,,,001,2023-12-14_08h17.31.732,bars,2023.2.3,Win32,60.07088364,,,,,,3084.7716,3085.7705,,,3086.2703,3086.5204,,26,26,,,,,,,,,,,,,,,,bars/026.png,bars/mask002.png,,,,,,,,,,,,0,1,,,,,,,0,10,0,8,,,,,,,,,,,3085.7705,3086.2703,3086.5204,3091.2536,space,4.7238,,3091.2537,9,59,3092.2542,3092.2542,3092.2615,,,,0,16,16,16,1,35,85,,,,,,,,
,,,001,2023-12-14_08h17.31.732,bars,2023.2.3,Win32,60.07088364,,,,,,3092.2617,3093.2554,,,3093.7545,3094.0116,,140,140,,,,,,,,,,,,,,,,bars/040.png,bars/mask004.png,,,,,,,,,,,,2,1,,,,,,,2,8,2,10,,,,,,,,,,,3093.2554,3093.7545,3094.0116,3108.8043,space,14.7788,,3108.8043,0,45,3109.805,3109.805,3109.8249,,,,0,17,17,17,1,140,5,,,,,,,,
,,,001,2023-12-14_08h17.31.732,bars,2023.2.3,Win32,60.07088364,,,,,,3109.8252,3110.8208,,,3111.3204,3111.5712,,174,174,,,,,,,,,,,,,,,,bars/016.png,bars/mask004.png,,,,,,,,,,,,7,2,,,,,,,4,10,5,10,,,,,,,,,,,3110.8208,3111.3204,3111.5712,3117.3038,space,5.7175,,3117.3038,46,9,3118.3042,3118.3042,3118.3265,,,,0,18,18,18,1,40,165,,,,,,,,
,,,001,2023-12-14_08h17.31.732,bars,2023.2.3,Win32,60.07088364,,,,,,3118.3267,3119.3206,,,3119.8209,3120.0711,,146,-34,,,,,,,,,,,,,,,,bars/011.png,bars/mask009.png,,,,,,,,,,,,3,1,,,,,,,6,10,5,10,,,,,,,,,,,3119.3206,3119.8209,3120.0712,3124.3542,space,4.2704,,3124.3544,14,61,3125.355,3125.355,3125.3677,,,,0,19,19,19,1,160,85,,,,,,,,
,,,001,2023-12-14_08h17.31.732,bars,2023.2.3,Win32,60.07088364,,,,,,3125.3678,3126.3709,,,3126.8706,3127.121,,118,-62,,,,,,,,,,,,,,,,bars/009.png,bars/mask002.png,,,,,,,,,,,,6,2,,,,,,,8,10,9,10,,,,,,,,,,,3126.3709,3126.8706,3127.121,3132.1725,space,5.0358,,3132.1725,77,13,3133.1705,3133.1705,3133.1796,,,,0,20,20,20,1,15,105,,,,,,,,
,,,001,2023-12-14_08h17.31.732,bars,2023.2.3,Win32,60.07088364,,,,,,3133.1798,3134.1705,,,3134.6709,3134.9211,,146,146,,,,,,,,,,,,,,,,bars/040.png,bars/mask002.png,,,,,,,,,,,,5,1,,,,,,,6,8,6,10,,,,,,,,,,,3134.1705,3134.6708,3134.9211,3137.8536,space,2.9242,,3137.8536,6,39,3138.8539,3138.854,3138.8699,,,,0,21,21,21,1,140,5,,,,,,,,
,,,001,2023-12-14_08h17.31.732,bars,2023.2.3,Win32,60.07088364,,,,,,3138.87,3139.8711,,,3140.3709,3140.6206,,136,136,,,,,,,,,,,,,,,,bars/011.png,bars/mask001.png,,,,,,,,,,,,1,1,,,,,,,4,6,6,5,,,,,,,,,,,3139.8711,3140.3708,3140.6207,3144.8389,space,4.1999,,3144.8389,24,51,3145.8374,3145.8374,3145.8457,,,,0,22,22,22,1,160,85,,,,,,,,
,,,001,2023-12-14_08h17.31.732,bars,2023.2.3,Win32,60.07088364,,,,,,3145.8459,3146.838,,,3147.338,3147.5783,,154,154,,,,,,,,,,,,,,,,bars/040.png,bars/mask008.png,,,,,,,,,,,,1,1,,,,,,,2,8,2,8,,,,,,,,,,,3146.838,3147.338,3147.5783,3152.7382,space,5.1506,,3152.7382,14,31,3153.7374,3153.7374,3153.7473,,,,0,23,23,23,1,140,5,,,,,,,,
,,,001,2023-12-14_08h17.31.732,bars,2023.2.3,Win32,60.07088364,,,,,,3153.7475,3154.7371,,,3155.2371,3155.4876,,165,165,,,,,,,,,,,,,,,,bars/039.png,bars/mask008.png,,,,,,,,,,,,3,1,,,,,,,4,10,4,10,,,,,,,,,,,3154.7371,3155.237,3155.4876,3162.4542,space,6.9506,,3162.4543,10,60,3163.4543,3163.4544,3163.467,,,,0,24,24,24,1,175,105,,,,,,,,
,,,001,2023-12-14_08h17.31.732,bars,2023.2.3,Win32,60.07088364,,,,,,3163.4673,3164.4713,,,3164.9709,3165.2211,,7,187,,,,,,,,,,,,,,,,bars/035.png,bars/mask003.png,,,,,,,,,,,,2,1,,,,,,,2,8,3,7,,,,,,,,,,,3164.4713,3164.9709,3165.2211,3169.6382,space,4.408,,3169.6382,12,53,3170.6391,3170.6391,3170.6474,,,,0,25,25,25,1,175,60,,,,,,,,
,,,001,2023-12-14_08h17.31.732,bars,2023.2.3,Win32,60.07088364,,,,,,3170.6476,3171.6376,,,3172.1377,3172.3886,,59,59,,,,,,,,,,,,,,,,bars/026.png,bars/mask000.png,,,,,,,,,,,,0,1,,,,,,,0,10,0,10,,,,,,,,,,,3171.6376,3172.1377,3172.3886,3175.2046,space,2.8013,,3175.2046,24,26,3176.2046,3176.2046,3176.2197,,,,0,26,26,26,1,35,85,,,,,,,,
,,,001,2023-12-14_08h17.31.732,bars,2023.2.3,Win32,60.07088364,,,,,,3176.2199,3177.2207,,,3177.7204,3177.9704,,146,146,,,,,,,,,,,,,,,,bars/020.png,bars/mask007.png,,,,,,,,,,,,2,2,,,,,,,2,10,2,10,,,,,,,,,,,3177.2208,3177.7203,3177.9704,3181.054,space,3.0671,,3181.0541,31,24,3182.0536,3182.0537,3182.0644,,,,0,27,27,27,1,115,170,,,,,,,,
,,,001,2023-12-14_08h17.31.732,bars,2023.2.3,Win32,60.07088364,,,,,,3182.0644,3183.0541,,,3183.5545,3183.8038,,123,123,,,,,,,,,,,,,,,,bars/009.png,bars/mask009.png,,,,,,,,,,,,4,2,,,,,,,0,10,1,10,,,,,,,,,,,3183.0541,3183.5545,3183.8038,3188.4544,space,4.6343,,3188.4544,72,18,3189.4541,3189.4541,3189.4627,,,,0,28,28,28,1,15,105,,,,,,,,
,,,001,2023-12-14_08h17.31.732,bars,2023.2.3,Win32,60.07088364,,,,,,3189.4627,3190.4541,,,3190.9542,3191.2043,,54,234,,,,,,,,,,,,,,,,bars/026.png,bars/mask002.png,,,,,,,,,,,,1,1,,,,,,,0,8,2,8,,,,,,,,,,,3190.4541,3190.9542,3191.2043,3199.4548,space,8.2412,,3199.4548,19,31,3200.454,3200.454,3200.4745,,,,0,29,29,29,1,35,85,,,,,,,,
,,,001,2023-12-14_08h17.31.732,bars,2023.2.3,Win32,60.07088364,,,,,,3200.475,3201.4708,,,3201.9713,3202.2209,,45,45,,,,,,,,,,,,,,,,bars/042.png,bars/mask000.png,,,,,,,,,,,,0,2,,,,,,,0,10,0,10,,,,,,,,,,,3201.4708,3201.9711,3202.2209,3211.9553,space,9.7167,,3211.9553,80,30,3212.9539,3212.9539,3212.9649,,,,0,30,30,30,1,145,75,,,,,,,,
,,,001,2023-12-14_08h17.31.732,bars,2023.2.3,Win32,60.07088364,,,,,,3212.965,3213.9544,,,3214.4545,3214.7046,,31,211,,,,,,,,,,,,,,,,bars/029.png,bars/mask006.png,,,,,,,,,,,,5,2,,,,,,,0,10,0,9,,,,,,,,,,,3213.9544,3214.4545,3214.7046,3225.3889,space,10.6685,,3225.3891,59,14,3226.3881,3226.3881,3226.4089,,,,0,31,31,31,1,90,45,,,,,,,,
,,,001,2023-12-14_08h17.31.732,bars,2023.2.3,Win32,60.07088364,,,,,,3226.409,3227.4039,,,3227.9041,3228.1546,,128,128,,,,,,,,,,,,,,,,bars/031.png,bars/mask001.png,,,,,,,,,,,,0,1,,,,,,,0,8,0,8,,,,,,,,,,,3227.4039,3227.9041,3228.1546,3231.805,space,3.6341,,3231.805,8,87,3232.8046,3232.8046,3232.8206,,,,0,32,32,32,1,120,35,,,,,,,,
,,,001,2023-12-14_08h17.31.732,bars,2023.2.3,Win32,60.07088364,,,,,,3232.8208,3233.8214,,,3234.3214,3234.5716,,122,122,,,,,,,,,,,,,,,,bars/030.png,bars/mask004.png,,,,,,,,,,,,0,1,,,,,,,0,6,0,6,,,,,,,,,,,3233.8214,3234.3214,3234.5716,3241.7542,space,7.1663,,3241.7543,18,57,3242.7538,3242.7538,3242.7628,,,,0,33,33,33,1,140,65,,,,,,,,
,,,001,2023-12-14_08h17.31.732,bars,2023.2.3,Win32,60.07088364,,,,,,3242.7629,3243.7543,,,3244.2548,3244.5048,,56,236,,,,,,,,,,,,,,,,bars/047.png,bars/mask002.png,,,,,,,,,,,,2,2,,,,,,,0,4,0,3,,,,,,,,,,,3243.7543,3244.2548,3244.5048,3249.9712,space,5.4509,,3249.9712,41,14,3250.9709,3250.9709,3250.9842,,,,0,34,34,34,1,15,70,,,,,,,,
,,,001,2023-12-14_08h17.31.732,bars,2023.2.3,Win32,60.07088364,,,,,,3250.9844,3251.9724,,,3252.471,3252.7212,,3,3,,,,,,,,,,,,,,,,bars/007.png,bars/mask002.png,,,,,,,,,,,,3,1,,,,,,,2,2,4,1,,,,,,,,,,,3251.9724,3252.471,3252.7212,3254.989,space,2.2505,,3254.9891,8,52,3255.9874,3255.9876,3256.0022,,,,0,35,35,35,1,175,55,,,,,,,,
,,,001,2023-12-14_08h17.31.732,bars,2023.2.3,Win32,60.07088364,,,,,,3256.0024,3257.0041,,,3257.5045,3257.7539,,58,58,,,,,,,,,,,,,,,,bars/025.png,bars/mask001.png,,,,,,,,,,,,0,2,,,,,,,0,0,2,0,,,,,,,,,,,3257.0041,3257.5045,3257.7539,3266.2375,space,8.4672,,3266.2375,47,18,3267.2388,3267.2389,3267.2483,,,,0,36,36,36,1,105,40,,,,,,,,
,,,001,2023-12-14_08h17.31.732,bars,2023.2.3,Win32,60.07088364,,,,,,3267.2483,3268.2373,,,3268.7376,3268.9894,,40,40,,,,,,,,,,,,,,,,bars/026.png,bars/mask000.png,,,,,,,,,,,,0,1,,,,,,,0,2,0,1,,,,,,,,,,,3268.2373,3268.7376,3268.9895,3272.1041,space,3.0844,,3272.1041,5,45,3273.1042,3273.1043,3273.1302,,,,0,37,37,37,1,35,85,,,,,,,,
,,,001,2023-12-14_08h17.31.732,bars,2023.2.3,Win32,60.07088364,,,,,,3273.1305,3274.1213,,,3274.6215,3274.8723,,31,31,,,,,,,,,,,,,,,,bars/041.png,bars/mask009.png,,,,,,,,,,,,2,1,,,,,,,2,4,3,2,,,,,,,,,,,3274.1213,3274.6215,3274.8723,3276.5551,space,1.6537,,3276.5552,11,54,3277.5543,3277.5543,3277.5685,,,,0,38,38,38,1,20,85,,,,,,,,
,,,001,2023-12-14_08h17.31.732,bars,2023.2.3,Win32,60.07088364,,,,,,3277.5687,3278.5724,,,3279.0707,3279.3213,,124,124,,,,,,,,,,,,,,,,bars/037.png,bars/mask000.png,,,,,,,,,,,,0,2,,,,,,,4,2,3,1,,,,,,,,,,,3278.5724,3279.0707,3279.3214,3283.8221,space,4.4835,,3283.8222,26,19,3284.8215,3284.8216,3284.8383,,,,0,39,39,39,1,150,105,,,,,,,,
,,,001,2023-12-14_08h17.31.732,bars,2023.2.3,Win32,60.07088364,,,,,,3284.8385,3285.8381,,,3286.3375,3286.5876,,44,44,,,,,,,,,,,,,,,,bars/005.png,bars/mask004.png,,,,,,,,,,,,0,1,,,,,,,6,0,5,0,,,,,,,,,,,3285.8381,3286.3375,3286.5876,3291.3713,space,4.7695,,3291.3714,34,84,3292.3707,3292.3707,3292.3955,,,,0,40,40,40,1,10,140,,,,,,,,
,,,001,2023-12-14_08h17.31.732,bars,2023.2.3,Win32,60.07088364,,,,,,3292.3956,3293.3872,,,3293.8882,3294.1375,,17,197,,,,,,,,,,,,,,,,bars/040.png,bars/mask009.png,,,,,,,,,,,,2,2,,,,,,,8,2,10,3,,,,,,,,,,,3293.3872,3293.8882,3294.1375,3298.6207,space,4.4745,,3298.6207,57,12,3299.6205,3299.6206,3299.6318,,,,0,41,41,41,1,140,5,,,,,,,,
,,,001,2023-12-14_08h17.31.732,bars,2023.2.3,Win32,60.07088364,,,,,,3299.632,3300.6219,,,3301.1215,3301.371,,101,101,,,,,,,,,,,,,,,,bars/045.png,bars/mask005.png,,,,,,,,,,,,7,1,,,,,,,6,4,7,4,,,,,,,,,,,3300.6219,3301.1215,3301.371,3303.8377,space,2.4574,,3303.8378,1,89,3304.8384,3304.8385,3304.8495,,,,0,42,42,42,1,100,10,,,,,,,,
,,,001,2023-12-14_08h17.31.732,bars,2023.2.3,Win32,60.07088364,,,,,,3304.8497,3305.8383,,,3306.3386,3306.5888,,39,39,,,,,,,,,,,,,,,,bars/028.png,bars/mask008.png,,,,,,,,,,,,3,1,,,,,,,4,6,4,6,,,,,,,,,,,3305.8383,3306.3385,3306.5888,3309.3342,space,2.7384,,3309.3342,6,81,3310.3241,3310.3241,3310.3356,,,,0,43,43,43,1,45,120,,,,,,,,
,,,001,2023-12-14_08h17.31.732,bars,2023.2.3,Win32,60.07088364,,,,,,3310.3358,3311.3382,,,3311.8393,3312.0879,,22,202,,,,,,,,,,,,,,,,bars/023.png,bars/mask002.png,,,,,,,,,,,,5,1,,,,,,,6,8,5,9,,,,,,,,,,,3311.3382,3311.8392,3312.0879,3315.9544,space,3.8517,,3315.9545,2,87,3316.9554,3316.9554,3316.9699,,,,0,44,44,44,1,20,115,,,,,,,,
,,,001,2023-12-14_08h17.31.732,bars,2023.2.3,Win32,60.07088364,,,,,,3316.9701,3317.9706,,,3318.4711,3318.7214,,176,-4,,,,,,,,,,,,,,,,bars/032.png,bars/mask006.png,,,,,,,,,,,,2,2,,,,,,,8,10,7,10,,,,,,,,,,,3317.9707,3318.4711,3318.7214,3324.3714,space,5.6361,,3324.3715,51,24,3325.3708,3325.3709,3325.3869,,,,0,45,45,45,1,125,20,,,,,,,,
,,,001,2023-12-14_08h17.31.732,bars,2023.2.3,Win32,60.07088364,,,,,,3325.3871,3326.3876,,,3326.8886,3327.1375,,166,166,,,,,,,,,,,,,,,,bars/015.png,bars/mask009.png,,,,,,,,,,,,7,2,,,,,,,6,8,5,9,,,,,,,,,,,3326.3876,3326.8885,3327.1376,3337.9046,space,10.7503,,3337.9047,56,6,3338.9047,3338.9047,3338.9216,,,,0,46,46,46,1,110,160,,,,,,,,
,,,001,2023-12-14_08h17.31.732,bars,2023.2.3,Win32,60.07088364,,,,,,3338.9217,3339.9217,,,3340.4213,3340.6709,,167,167,,,,,,,,,,,,,,,,bars/029.png,bars/mask008.png,,,,,,,,,,,,0,2,,,,,,,4,6,3,7,,,,,,,,,,,3339.9217,3340.4212,3340.6709,3344.2044,space,3.5182,,3344.2045,77,58,3345.2047,3345.2048,3345.2129,,,,0,47,47,47,1,90,45,,,,,,,,
,,,001,2023-12-14_08h17.31.732,bars,2023.2.3,Win32,60.07088364,,,,,,3345.213,3346.2051,,,3346.7049,3346.9545,,126,126,,,,,,,,,,,,,,,,bars/027.png,bars/mask001.png,,,,,,,,,,,,1,1,,,,,,,6,8,3,8,,,,,,,,,,,3346.2052,3346.7049,3346.9546,3348.9043,space,1.9334,,3348.9044,16,76,3349.9054,3349.9054,3349.9139,,,,0,48,48,48,1,110,50,,,,,,,,
,,,001,2023-12-14_08h17.31.732,bars,2023.2.3,Win32,60.07088364,,,,,,3349.914,3350.9042,,,3351.4048,3351.6549,,54,54,,,,,,,,,,,,,,,,bars/029.png,bars/mask006.png,,,,,,,,,,,,7,2,,,,,,,4,10,4,10,,,,,,,,,,,3350.9042,3351.4048,3351.6549,3354.2376,space,2.5675,,3354.2377,36,9,3355.2379,3355.2379,3355.2536,,,,0,49,49,49,1,90,45,,,,,,,,
,,,001,2023-12-14_08h17.31.732,bars,2023.2.3,Win32,60.07088364,,,,,,,,,,,,,,,,,,,,,,,,,,,,,,,,,,,,,,,,,,,,,,,,,,,,,,,,,,,,,,,,,,,,,,,,,,,,,,,,,,,,,,,,3355.2538,3355.2539,0,4,4,0,1,sequence_tables/blk010.csv