init_variables.started,init_variables.stopped,participant,session,date,expName,psychopyVersion,OS,frameRate,instruction_single.started,instruction_single.stopped,key_resp_2.keys,key_resp_2.rt,key_resp_2.duration,interval.started,interval.stopped,cue_single.started,cue_single.stopped,mask.started,mask.stopped,ori_response_single.started,res_ori,res,ori_response_single.stopped,key_resp_single.keys,key_resp_single.rt,key_resp_single.duration,disp_single.started,disp_single.stopped,key_resp.keys,key_resp.rt,key_resp.duration,single.thisRepN,single.thisTrialN,single.thisN,single.thisIndex,single.ran,ori,path,mask_path,instruction_bandit.started,instruction_bandit.stopped,key_resp_6.keys,key_resp_6.rt,key_resp_6.duration,cue_bandit.started,cue_bandit.stopped,bandit_res.keys,bandit_res.rt,bandit_res.duration,outcome_bandit.started,rew,action,outcome_bandit.stopped,bandit.thisRepN,bandit.thisTrialN,bandit.thisN,bandit.thisIndex,bandit.ran,actual_rew1,actual_rew2,rew1,rew2,instruction_task.started,instruction_task.stopped,key_resp_7.keys,key_resp_7.rt,key_resp_7.duration,wait_ready.started,wait_ready.stopped,key_resp_3.keys,key_resp_3.rt,key_resp_3.duration,cue.started,cue.stopped,ori_response.started,ori_response.stopped,key_resp_5.keys,key_resp_5.rt,key_resp_5.duration,outcome.started,diff1,diff2,outcome.stopped,disp_outcome_practice.started,disp_outcome_practice.stopped,key_resp_4.keys,key_resp_4.rt,key_resp_4.duration,trials.thisRepN,trials.thisTrialN,trials.thisN,trials.thisIndex,trials.ran,ori1,ori2,break_blk.started,break_blk.stopped,block.thisRepN,block.thisTrialN,block.thisN,block.thisIndex,block.ran,condition_file
0.0002,0.0003,6511fd9e06231927b6398700,001,2023-12-14_20h55.16.655,bars,2023.2.3,Win32,166.6666667,,,,,,,,,,,,,,,,,,,,,,,,,,,,,,,,,,,,,,,,,,,,,,,,,,,,,,,,,,,,,,,,,,,,,,,,,,,,,,,,,,,,,,,,,,,,,,,
,,6511fd9e06231927b6398700,001,2023-12-14_20h55.16.655,bars,2023.2.3,Win32,166.6666667,0.0004,1.8286,space,1.8198,,,,,,,,,,,,,,,,,,,,,,,,,,,,,,,,,,,,,,,,,,,,,,,,,,,,,,,,,,,,,,,,,,,,,,,,,,,,,,,,,,,,,,,,,,,
,,6511fd9e06231927b6398700,001,2023-12-14_20h55.16.655,bars,2023.2.3,Win32,166.6666667,,,,,,1.8314,2.8296,2.8297,3.3273,3.3274,3.576,3.5761,97,97,7.4354,space,3.8459,,7.4354,13.1149,space,5.6661,,0,0,0,6,1,175,bars/single006.png,bars/mask005.png,,,,,,,,,,,,,,,,,,,,,,,,,,,,,,,,,,,,,,,,,,,,,,,,,,,,,,,,,,,,,,,,
,,6511fd9e06231927b6398700,001,2023-12-14_20h55.16.655,bars,2023.2.3,Win32,166.6666667,,,,,,13.1199,14.1183,14.1183,14.6156,14.6156,14.8622,14.8622,7,187,18.4814,space,3.6104,,18.4814,20.5721,space,2.0799,,0,1,1,1,1,20,bars/single001.png,bars/mask006.png,,,,,,,,,,,,,,,,,,,,,,,,,,,,,,,,,,,,,,,,,,,,,,,,,,,,,,,,,,,,,,,,
,,6511fd9e06231927b6398700,001,2023-12-14_20h55.16.655,bars,2023.2.3,Win32,166.6666667,,,,,,20.5724,21.5733,21.5733,22.0734,22.0734,22.3197,22.3197,102,102,23.5576,space,1.2268,,23.5577,24.7832,space,1.2182,,0,2,2,4,1,95,bars/single004.png,bars/mask004.png,,,,,,,,,,,,,,,,,,,,,,,,,,,,,,,,,,,,,,,,,,,,,,,,,,,,,,,,,,,,,,,,
,,6511fd9e06231927b6398700,001,2023-12-14_20h55.16.655,bars,2023.2.3,Win32,166.6666667,,,,,,24.7835,25.7843,25.7843,26.2819,26.282,26.5307,26.5307,138,138,28.339,space,1.8041,,28.339,29.7164,space,1.372,,0,3,3,2,1,145,bars/single002.png,bars/mask003.png,,,,,,,,,,,,,,,,,,,,,,,,,,,,,,,,,,,,,,,,,,,,,,,,,,,,,,,,,,,,,,,,
,,6511fd9e06231927b6398700,001,2023-12-14_20h55.16.655,bars,2023.2.3,Win32,166.6666667,,,,,,29.7167,30.7177,30.7177,31.2153,31.2153,31.4639,31.4639,135,135,33.4056,space,1.9369,,33.4057,34.8012,space,1.3915,,0,4,4,8,1,160,bars/single008.png,bars/mask004.png,,,,,,,,,,,,,,,,,,,,,,,,,,,,,,,,,,,,,,,,,,,,,,,,,,,,,,,,,,,,,,,,
,,6511fd9e06231927b6398700,001,2023-12-14_20h55.16.655,bars,2023.2.3,Win32,166.6666667,,,,,,34.8014,35.8024,35.8024,36.3,36.3,36.5487,36.5488,42,42,38.345,space,1.7938,,38.345,38.8364,space,0.4847,,0,5,5,3,1,20,bars/single003.png,bars/mask005.png,,,,,,,,,,,,,,,,,,,,,,,,,,,,,,,,,,,,,,,,,,,,,,,,,,,,,,,,,,,,,,,,
,,6511fd9e06231927b6398700,001,2023-12-14_20h55.16.655,bars,2023.2.3,Win32,166.6666667,,,,,,38.8366,39.8375,39.8376,40.3352,40.3352,40.5839,40.5839,47,47,42.2222,space,1.6331,,42.2223,42.9138,space,0.6879,,0,6,6,5,1,55,bars/single005.png,bars/mask008.png,,,,,,,,,,,,,,,,,,,,,,,,,,,,,,,,,,,,,,,,,,,,,,,,,,,,,,,,,,,,,,,,
,,6511fd9e06231927b6398700,001,2023-12-14_20h55.16.655,bars,2023.2.3,Win32,166.6666667,,,,,,42.9141,43.9152,43.9152,44.4128,44.4128,44.6615,44.6615,169,169,44.7586,space,0.0911,,44.7586,45.6446,space,0.8809,,0,7,7,0,1,150,bars/single000.png,bars/mask006.png,,,,,,,,,,,,,,,,,,,,,,,,,,,,,,,,,,,,,,,,,,,,,,,,,,,,,,,,,,,,,,,,
,,6511fd9e06231927b6398700,001,2023-12-14_20h55.16.655,bars,2023.2.3,Win32,166.6666667,,,,,,45.6447,46.6456,46.6458,47.1432,47.1432,47.3921,47.3921,41,41,49.2064,space,1.8087,,49.2064,49.8496,space,0.6341,,0,8,8,9,1,20,bars/single009.png,bars/mask006.png,,,,,,,,,,,,,,,,,,,,,,,,,,,,,,,,,,,,,,,,,,,,,,,,,,,,,,,,,,,,,,,,
,,6511fd9e06231927b6398700,001,2023-12-14_20h55.16.655,bars,2023.2.3,Win32,166.6666667,,,,,,49.8497,50.8507,50.8507,51.3482,51.3483,51.5971,51.5971,14,14,53.187,space,1.585,,53.1871,53.751,space,0.5583,,0,9,9,7,1,45,bars/single007.png,bars/mask009.png,,,,,,,,,,,,,,,,,,,,,,,,,,,,,,,,,,,,,,,,,,,,,,,,,,,,,,,,,,,,,,,,
,,6511fd9e06231927b6398700,001,2023-12-14_20h55.16.655,bars,2023.2.3,Win32,166.6666667,,,,,,,,,,,,,,,,,,,,,,,,,,,,,,,,53.7514,54.1274,space,0.3675,,,,,,,,,,,,,,,,,,,,,,,,,,,,,,,,,,,,,,,,,,,,,,,,,,,,,,,,,,,,
,,6511fd9e06231927b6398700,001,2023-12-14_20h55.16.655,bars,2023.2.3,Win32,166.6666667,,,,,,,,,,,,,,,,,,,,,,,,,,,,,,,,,,,,,54.1285,56.3908,left,2.2513,,56.3909,9,1,57.3919,0,0,0,0,1,9,1,9,2,,,,,,,,,,,,,,,,,,,,,,,,,,,,,,,,,,,,,,,,,
,,6511fd9e06231927b6398700,001,2023-12-14_20h55.16.655,bars,2023.2.3,Win32,166.6666667,,,,,,,,,,,,,,,,,,,,,,,,,,,,,,,,,,,,,57.3922,58.3142,right,0.9196,,58.3142,1,2,59.3154,0,1,1,1,1,10,0,10,1,,,,,,,,,,,,,,,,,,,,,,,,,,,,,,,,,,,,,,,,,
,,6511fd9e06231927b6398700,001,2023-12-14_20h55.16.655,bars,2023.2.3,Win32,166.6666667,,,,,,,,,,,,,,,,,,,,,,,,,,,,,,,,,,,,,59.3156,67.0217,left,7.7013,,67.0217,10,1,68.0228,0,2,2,2,1,10,2,10,2,,,,,,,,,,,,,,,,,,,,,,,,,,,,,,,,,,,,,,,,,
,,6511fd9e06231927b6398700,001,2023-12-14_20h55.16.655,bars,2023.2.3,Win32,166.6666667,,,,,,,,,,,,,,,,,,,,,,,,,,,,,,,,,,,,,68.0231,69.9568,left,1.9308,,69.9568,7,1,70.9536,0,3,3,3,1,8,4,7,3,,,,,,,,,,,,,,,,,,,,,,,,,,,,,,,,,,,,,,,,,
,,6511fd9e06231927b6398700,001,2023-12-14_20h55.16.655,bars,2023.2.3,Win32,166.6666667,,,,,,,,,,,,,,,,,,,,,,,,,,,,,,,,,,,,,70.9539,72.238,left,1.2771,,72.238,5,1,73.2351,0,4,4,4,1,6,2,5,1,,,,,,,,,,,,,,,,,,,,,,,,,,,,,,,,,,,,,,,,,
,,6511fd9e06231927b6398700,001,2023-12-14_20h55.16.655,bars,2023.2.3,Win32,166.6666667,,,,,,,,,,,,,,,,,,,,,,,,,,,,,,,,,,,,,73.2355,74.1453,left,0.9027,,74.1454,4,1,75.1465,0,5,5,5,1,4,4,4,4,,,,,,,,,,,,,,,,,,,,,,,,,,,,,,,,,,,,,,,,,
,,6511fd9e06231927b6398700,001,2023-12-14_20h55.16.655,bars,2023.2.3,Win32,166.6666667,,,,,,,,,,,,,,,,,,,,,,,,,,,,,,,,,,,,,75.1468,75.6197,right,0.4638,,75.6197,2,2,76.6209,0,6,6,6,1,2,2,1,2,,,,,,,,,,,,,,,,,,,,,,,,,,,,,,,,,,,,,,,,,
,,6511fd9e06231927b6398700,001,2023-12-14_20h55.16.655,bars,2023.2.3,Win32,166.6666667,,,,,,,,,,,,,,,,,,,,,,,,,,,,,,,,,,,,,76.6211,77.1208,right,0.4895,,77.1208,1,2,78.1197,0,7,7,7,1,0,0,0,1,,,,,,,,,,,,,,,,,,,,,,,,,,,,,,,,,,,,,,,,,
,,6511fd9e06231927b6398700,001,2023-12-14_20h55.16.655,bars,2023.2.3,Win32,166.6666667,,,,,,,,,,,,,,,,,,,,,,,,,,,,,,,,,,,,,78.12,78.9267,left,0.7961,,78.9267,1,1,79.9279,0,8,8,8,1,0,2,1,0,,,,,,,,,,,,,,,,,,,,,,,,,,,,,,,,,,,,,,,,,
,,6511fd9e06231927b6398700,001,2023-12-14_20h55.16.655,bars,2023.2.3,Win32,166.6666667,,,,,,,,,,,,,,,,,,,,,,,,,,,,,,,,,,,,,79.9281,80.6682,right,0.7301,,80.6682,3,2,81.6692,0,9,9,9,1,2,4,2,3,,,,,,,,,,,,,,,,,,,,,,,,,,,,,,,,,,,,,,,,,
,,6511fd9e06231927b6398700,001,2023-12-14_20h55.16.655,bars,2023.2.3,Win32,166.6666667,,,,,,,,,,,,,,,,,,,,,,,,,,,,,,,,,,,,,81.6695,82.1548,right,0.4756,,82.1548,3,2,83.156,0,10,10,10,1,0,2,0,3,,,,,,,,,,,,,,,,,,,,,,,,,,,,,,,,,,,,,,,,,
,,6511fd9e06231927b6398700,001,2023-12-14_20h55.16.655,bars,2023.2.3,Win32,166.6666667,,,,,,,,,,,,,,,,,,,,,,,,,,,,,,,,,,,,,83.1563,83.6171,right,0.4514,,83.6172,3,2,84.6205,0,11,11,11,1,0,4,0,3,,,,,,,,,,,,,,,,,,,,,,,,,,,,,,,,,,,,,,,,,
,,6511fd9e06231927b6398700,001,2023-12-14_20h55.16.655,bars,2023.2.3,Win32,166.6666667,,,,,,,,,,,,,,,,,,,,,,,,,,,,,,,,,,,,,84.6208,85.1444,right,0.5177,,85.1444,6,2,86.1414,0,12,12,12,1,2,6,1,6,,,,,,,,,,,,,,,,,,,,,,,,,,,,,,,,,,,,,,,,,
,,6511fd9e06231927b6398700,001,2023-12-14_20h55.16.655,bars,2023.2.3,Win32,166.6666667,,,,,,,,,,,,,,,,,,,,,,,,,,,,,,,,,,,,,86.1416,86.8209,right,0.6688,,86.8209,3,2,87.8222,0,13,13,13,1,0,4,1,3,,,,,,,,,,,,,,,,,,,,,,,,,,,,,,,,,,,,,,,,,
,,6511fd9e06231927b6398700,001,2023-12-14_20h55.16.655,bars,2023.2.3,Win32,166.6666667,,,,,,,,,,,,,,,,,,,,,,,,,,,,,,,,,,,,,87.8225,88.3137,right,0.4827,,88.3138,7,2,89.3149,0,14,14,14,1,2,6,2,7,,,,,,,,,,,,,,,,,,,,,,,,,,,,,,,,,,,,,,,,,
,,6511fd9e06231927b6398700,001,2023-12-14_20h55.16.655,bars,2023.2.3,Win32,166.6666667,,,,,,,,,,,,,,,,,,,,,,,,,,,,,,,,,,,,,89.315,89.9244,right,0.602,,89.9244,9,2,90.9228,0,15,15,15,1,4,8,3,9,,,,,,,,,,,,,,,,,,,,,,,,,,,,,,,,,,,,,,,,,
,,6511fd9e06231927b6398700,001,2023-12-14_20h55.16.655,bars,2023.2.3,Win32,166.6666667,,,,,,,,,,,,,,,,,,,,,,,,,,,,,,,,,,,,,90.9233,92.1728,right,1.2402,,92.1728,7,2,93.1701,0,16,16,16,1,6,6,7,7,,,,,,,,,,,,,,,,,,,,,,,,,,,,,,,,,,,,,,,,,
,,6511fd9e06231927b6398700,001,2023-12-14_20h55.16.655,bars,2023.2.3,Win32,166.6666667,,,,,,,,,,,,,,,,,,,,,,,,,,,,,,,,,,,,,93.1703,93.805,left,0.6264,,93.805,9,1,94.8062,0,17,17,17,1,8,4,9,5,,,,,,,,,,,,,,,,,,,,,,,,,,,,,,,,,,,,,,,,,
,,6511fd9e06231927b6398700,001,2023-12-14_20h55.16.655,bars,2023.2.3,Win32,166.6666667,,,,,,,,,,,,,,,,,,,,,,,,,,,,,,,,,,,,,94.8065,95.5102,left,0.6916,,95.5102,5,1,96.5134,0,18,18,18,1,6,2,5,1,,,,,,,,,,,,,,,,,,,,,,,,,,,,,,,,,,,,,,,,,
,,6511fd9e06231927b6398700,001,2023-12-14_20h55.16.655,bars,2023.2.3,Win32,166.6666667,,,,,,,,,,,,,,,,,,,,,,,,,,,,,,,,,,,,,96.5137,98.182,left,1.6625,,98.1821,7,1,99.1811,0,19,19,19,1,8,0,7,0,,,,,,,,,,,,,,,,,,,,,,,,,,,,,,,,,,,,,,,,,
,,6511fd9e06231927b6398700,001,2023-12-14_20h55.16.655,bars,2023.2.3,Win32,166.6666667,,,,,,,,,,,,,,,,,,,,,,,,,,,,,,,,,,,,,,,,,,,,,,,,,,,,,,,99.1813,106.9179,space,7.7245,,,,,,,,,,,,,,,,,,,,,,,,,,,,,,,,,,,,,
,,6511fd9e06231927b6398700,001,2023-12-14_20h55.16.655,bars,2023.2.3,Win32,166.6666667,,,,,,108.4006,109.3994,,,109.8972,110.1457,,43,43,,,,,,,,,,,,,,,,bars/019.png,bars/mask002.png,,,,,,,,,,,,9,1,,,,,,,10,7,10,8,,,,,,106.9192,108.3984,space,1.4698,,109.3995,109.8972,110.1459,112.3466,space,2.1925,,112.3467,2,62,113.3436,113.3438,117.6156,space,4.2617,,0,0,0,0,1,45,105,,,,,,,,
,,6511fd9e06231927b6398700,001,2023-12-14_20h55.16.655,bars,2023.2.3,Win32,166.6666667,,,,,,117.616,118.6165,,,119.1141,119.3627,,30,30,,,,,,,,,,,,,,,,bars/039.png,bars/mask008.png,,,,,,,,,,,,0,1,,,,,,,10,5,10,6,,,,,,,,,,,118.6166,119.114,119.3628,121.2197,space,1.847,,121.2197,35,75,122.2168,122.2169,123.0278,space,0.8024,,0,1,1,1,1,175,105,,,,,,,,
,,6511fd9e06231927b6398700,001,2023-12-14_20h55.16.655,bars,2023.2.3,Win32,166.6666667,,,,,,123.0281,124.0289,,,124.5267,124.7754,,17,197,,,,,,,,,,,,,,,,bars/009.png,bars/mask009.png,,,,,,,,,,,,8,1,,,,,,,10,3,9,3,,,,,,,,,,,124.0289,124.5266,124.7754,127.9003,space,3.1146,,127.9003,2,88,128.8973,128.8974,129.7741,space,0.8704,,0,2,2,2,1,15,105,,,,,,,,
,,6511fd9e06231927b6398700,001,2023-12-14_20h55.16.655,bars,2023.2.3,Win32,166.6666667,,,,,,129.7743,130.7706,,,131.2679,131.5169,,55,55,,,,,,,,,,,,,,,,bars/034.png,bars/mask009.png,,,,,,,,,,,,0,2,,,,,,,8,1,6,0,,,,,,,,,,,130.7707,131.2679,131.5169,132.5969,space,1.0687,,132.597,70,10,133.598,133.5981,133.677,space,0.0674,,0,3,3,3,1,125,65,,,,,,,,
,,6511fd9e06231927b6398700,001,2023-12-14_20h55.16.655,bars,2023.2.3,Win32,166.6666667,,,,,,133.6773,134.6781,,,135.1757,135.4246,,131,131,,,,,,,,,,,,,,,,bars/013.png,bars/mask005.png,,,,,,,,,,,,0,1,,,,,,,10,0,10,1,,,,,,,,,,,134.6781,135.1757,135.4246,137.5785,space,2.1448,,137.5785,56,59,138.5758,138.5758,139.3019,space,0.7155,,0,4,4,4,1,75,10,,,,,,,,
,,6511fd9e06231927b6398700,001,2023-12-14_20h55.16.655,bars,2023.2.3,Win32,166.6666667,,,,,,139.3022,140.303,,,140.8005,141.0494,,166,166,,,,,,,,,,,,,,,,bars/018.png,bars/mask008.png,,,,,,,,,,,,4,1,,,,,,,8,0,9,1,,,,,,,,,,,140.303,140.8005,141.0494,144.7871,space,3.728,,144.7872,16,76,145.7883,145.7883,146.5409,space,0.741,,0,5,5,5,1,150,90,,,,,,,,
,,6511fd9e06231927b6398700,001,2023-12-14_20h55.16.655,bars,2023.2.3,Win32,166.6666667,,,,,,146.5411,147.542,,,148.0396,148.2884,,149,-31,,,,,,,,,,,,,,,,bars/003.png,bars/mask005.png,,,,,,,,,,,,1,2,,,,,,,6,2,7,2,,,,,,,,,,,147.542,148.0395,148.2884,151.1101,space,2.8157,,151.1102,56,9,152.1112,152.1112,152.815,space,0.6913,,0,6,6,6,1,25,140,,,,,,,,
,,6511fd9e06231927b6398700,001,2023-12-14_20h55.16.655,bars,2023.2.3,Win32,166.6666667,,,,,,152.8152,153.8162,,,154.3136,154.5626,,53,53,,,,,,,,,,,,,,,,bars/021.png,bars/mask003.png,,,,,,,,,,,,0,2,,,,,,,8,0,9,0,,,,,,,,,,,153.8163,154.3136,154.5626,156.7146,space,2.1487,,156.7146,78,17,157.7116,157.7116,165.4057,space,7.6815,,0,7,7,7,1,155,70,,,,,,,,
,,6511fd9e06231927b6398700,001,2023-12-14_20h55.16.655,bars,2023.2.3,Win32,166.6666667,,,,,,165.4061,166.4069,,,166.9046,167.1575,,156,156,,,,,,,,,,,,,,,,bars/044.png,bars/mask008.png,,,,,,,,,,,,2,2,,,,,,,6,2,6,2,,,,,,,,,,,166.4069,166.9045,167.1575,168.7877,space,1.6241,,168.7877,81,1,169.7868,169.7868,169.9322,space,0.1346,,0,8,8,8,1,75,155,,,,,,,,
,,6511fd9e06231927b6398700,001,2023-12-14_20h55.16.655,bars,2023.2.3,Win32,166.6666667,,,,,,169.9325,170.9336,,,171.4351,171.686,,171,171,,,,,,,,,,,,,,,,bars/014.png,bars/mask001.png,,,,,,,,,,,,0,2,,,,,,,8,0,6,0,,,,,,,,,,,170.9336,171.4351,171.686,173.0938,space,1.3953,,173.0938,89,9,174.0949,174.0949,174.8351,space,0.7307,,0,9,9,9,1,80,0,,,,,,,,
,,6511fd9e06231927b6398700,001,2023-12-14_20h55.16.655,bars,2023.2.3,Win32,166.6666667,,,,,,174.8355,175.8364,,,176.3341,176.5826,,116,116,,,,,,,,,,,,,,,,bars/001.png,bars/mask006.png,,,,,,,,,,,,5,1,,,,,,,10,2,10,1,,,,,,,,,,,175.8364,176.3341,176.5826,178.1301,space,1.5393,,178.1301,14,31,179.1311,179.1311,180.005,space,0.8619,,0,10,10,10,1,130,85,,,,,,,,
,,6511fd9e06231927b6398700,001,2023-12-14_20h55.16.655,bars,2023.2.3,Win32,166.6666667,,,,,,180.0052,181.0049,,,181.5039,181.7572,,38,38,,,,,,,,,,,,,,,,bars/007.png,bars/mask006.png,,,,,,,,,,,,2,2,,,,,,,10,4,10,4,,,,,,,,,,,181.0049,181.5038,181.7572,183.403,space,1.6387,,183.403,43,17,184.4042,184.4043,185.0737,space,0.663,,0,11,11,11,1,175,55,,,,,,,,
,,6511fd9e06231927b6398700,001,2023-12-14_20h55.16.655,bars,2023.2.3,Win32,166.6666667,,,,,,185.074,186.0745,,,186.5745,186.8252,,40,220,,,,,,,,,,,,,,,,bars/044.png,bars/mask006.png,,,,,,,,,,,,0,1,,,,,,,10,2,8,2,,,,,,,,,,,186.0745,186.5744,186.8253,190.1467,space,3.3109,,190.1468,35,65,191.1455,191.1456,192.5957,space,1.4398,,0,12,12,12,1,75,155,,,,,,,,
,,6511fd9e06231927b6398700,001,2023-12-14_20h55.16.655,bars,2023.2.3,Win32,166.6666667,,,,,,192.596,193.5969,,,194.0945,194.3434,,26,26,,,,,,,,,,,,,,,,bars/012.png,bars/mask000.png,,,,,,,,,,,,3,2,,,,,,,8,4,8,4,,,,,,,,,,,193.5969,194.0945,194.3435,197.2476,space,2.8967,,197.2476,64,11,198.245,198.245,199.7618,space,1.5082,,0,13,13,13,1,90,15,,,,,,,,
,,6511fd9e06231927b6398700,001,2023-12-14_20h55.16.655,bars,2023.2.3,Win32,166.6666667,,,,,,199.7621,200.763,,,201.2606,201.5111,,166,-14,,,,,,,,,,,,,,,,bars/044.png,bars/mask002.png,,,,,,,,,,,,4,2,,,,,,,10,6,9,7,,,,,,,,,,,200.7631,201.2606,201.5111,203.5706,space,2.0535,,203.5707,89,11,204.5694,204.5695,205.3645,space,0.7891,,0,14,14,14,1,75,155,,,,,,,,
,,6511fd9e06231927b6398700,001,2023-12-14_20h55.16.655,bars,2023.2.3,Win32,166.6666667,,,,,,205.3647,206.3654,,,206.8631,207.1101,,149,149,,,,,,,,,,,,,,,,bars/005.png,bars/mask008.png,,,,,,,,,,,,6,2,,,,,,,8,8,9,8,,,,,,,,,,,206.3654,206.8631,207.1101,208.7909,space,1.6751,,208.791,41,9,209.7881,209.7881,211.3394,space,1.5438,,0,15,15,15,1,10,140,,,,,,,,
,,6511fd9e06231927b6398700,001,2023-12-14_20h55.16.655,bars,2023.2.3,Win32,166.6666667,,,,,,211.3397,212.3406,,,212.838,213.0869,,166,-14,,,,,,,,,,,,,,,,bars/033.png,bars/mask009.png,,,,,,,,,,,,6,2,,,,,,,6,10,8,9,,,,,,,,,,,212.3406,212.838,213.0869,215.2655,space,2.1771,,215.2655,39,11,216.2664,216.2665,216.8308,space,0.5517,,0,16,16,16,1,25,155,,,,,,,,
,,6511fd9e06231927b6398700,001,2023-12-14_20h55.16.655,bars,2023.2.3,Win32,166.6666667,,,,,,216.8311,217.832,,,218.3296,218.5783,,157,-23,,,,,,,,,,,,,,,,bars/011.png,bars/mask007.png,,,,,,,,,,,,3,1,,,,,,,4,10,3,10,,,,,,,,,,,217.832,218.3296,218.5784,220.684,space,2.0991,,220.684,3,72,221.6851,221.6851,222.1644,space,0.468,,0,17,17,17,1,160,85,,,,,,,,
,,6511fd9e06231927b6398700,001,2023-12-14_20h55.16.655,bars,2023.2.3,Win32,166.6666667,,,,,,222.1647,223.1657,,,223.6632,223.9119,,165,165,,,,,,,,,,,,,,,,bars/024.png,bars/mask008.png,,,,,,,,,,,,8,2,,,,,,,2,10,1,9,,,,,,,,,,,223.1657,223.6632,223.912,225.4308,space,1.5167,,225.4308,45,5,226.4301,226.4301,226.8974,space,0.459,,0,18,18,18,1,120,170,,,,,,,,
,,6511fd9e06231927b6398700,001,2023-12-14_20h55.16.655,bars,2023.2.3,Win32,166.6666667,,,,,,226.8977,227.8984,,,228.3961,228.6448,,32,32,,,,,,,,,,,,,,,,bars/045.png,bars/mask002.png,,,,,,,,,,,,2,2,,,,,,,0,8,0,8,,,,,,,,,,,227.8985,228.3961,228.6449,230.981,space,2.3263,,230.981,68,22,231.9822,231.9822,232.3966,space,0.4107,,0,19,19,19,1,100,10,,,,,,,,
,,6511fd9e06231927b6398700,001,2023-12-14_20h55.16.655,bars,2023.2.3,Win32,166.6666667,,,,,,232.3969,233.3975,,,233.8937,234.1401,,158,158,,,,,,,,,,,,,,,,bars/003.png,bars/mask001.png,,,,,,,,,,,,4,2,,,,,,,0,10,1,10,,,,,,,,,,,233.3976,233.8936,234.1401,235.9644,space,1.8188,,235.9644,47,18,236.9656,236.9656,237.6982,space,0.7257,,0,20,20,20,1,25,140,,,,,,,,
,,6511fd9e06231927b6398700,001,2023-12-14_20h55.16.655,bars,2023.2.3,Win32,166.6666667,,,,,,237.6985,238.6993,,,239.197,239.4456,,152,-28,,,,,,,,,,,,,,,,bars/003.png,bars/mask006.png,,,,,,,,,,,,5,2,,,,,,,0,10,0,9,,,,,,,,,,,238.6993,239.1969,239.4457,242.1823,space,2.7244,,242.1823,53,12,243.1856,243.1856,244.9615,space,1.7699,,0,21,21,21,1,25,140,,,,,,,,
,,6511fd9e06231927b6398700,001,2023-12-14_20h55.16.655,bars,2023.2.3,Win32,166.6666667,,,,,,244.9618,245.9626,,,246.4602,246.7089,,139,139,,,,,,,,,,,,,,,,bars/028.png,bars/mask008.png,,,,,,,,,,,,4,2,,,,,,,2,10,2,10,,,,,,,,,,,245.9626,246.4602,246.7089,248.6689,space,1.9554,,248.669,86,19,249.67,249.67,250.0099,space,0.3311,,0,22,22,22,1,45,120,,,,,,,,
,,6511fd9e06231927b6398700,001,2023-12-14_20h55.16.655,bars,2023.2.3,Win32,166.6666667,,,,,,250.0102,251.011,,,251.5086,251.7574,,148,-32,,,,,,,,,,,,,,,,bars/015.png,bars/mask008.png,,,,,,,,,,,,5,2,,,,,,,4,10,3,9,,,,,,,,,,,251.011,251.5086,251.7575,255.4935,space,3.7284,,255.4936,38,12,256.4904,256.4904,257.2124,space,0.7118,,0,23,23,23,1,110,160,,,,,,,,
,,6511fd9e06231927b6398700,001,2023-12-14_20h55.16.655,bars,2023.2.3,Win32,166.6666667,,,,,,257.2127,258.2135,,,258.7112,258.96,,68,68,,,,,,,,,,,,,,,,bars/028.png,bars/mask001.png,,,,,,,,,,,,0,1,,,,,,,2,10,2,8,,,,,,,,,,,258.2136,258.7111,258.96,260.6832,space,1.7134,,260.6832,23,52,261.6843,261.6843,262.3155,space,0.6186,,0,24,24,24,1,45,120,,,,,,,,
,,6511fd9e06231927b6398700,001,2023-12-14_20h55.16.655,bars,2023.2.3,Win32,166.6666667,,,,,,262.3157,263.3166,,,263.8142,264.0629,,21,201,,,,,,,,,,,,,,,,bars/012.png,bars/mask004.png,,,,,,,,,,,,8,2,,,,,,,0,10,0,10,,,,,,,,,,,263.3166,263.8142,264.063,266.9939,space,2.9206,,266.994,69,6,267.995,267.995,268.4139,space,0.4095,,0,25,25,25,1,90,15,,,,,,,,
,,6511fd9e06231927b6398700,001,2023-12-14_20h55.16.655,bars,2023.2.3,Win32,166.6666667,,,,,,268.4141,269.4102,,,269.908,270.1568,,50,50,,,,,,,,,,,,,,,,bars/034.png,bars/mask005.png,,,,,,,,,,,,5,2,,,,,,,0,10,0,10,,,,,,,,,,,269.4102,269.908,270.1568,271.522,space,1.3593,,271.522,75,15,272.5232,272.5232,273.268,space,0.7366,,0,26,26,26,1,125,65,,,,,,,,
,,6511fd9e06231927b6398700,001,2023-12-14_20h55.16.655,bars,2023.2.3,Win32,166.6666667,,,,,,273.2682,274.2691,,,274.7666,275.0154,,157,-23,,,,,,,,,,,,,,,,bars/020.png,bars/mask002.png,,,,,,,,,,,,3,2,,,,,,,0,8,0,6,,,,,,,,,,,274.2691,274.7666,275.0154,279.3964,space,4.3701,,279.3964,42,13,280.3976,280.3976,280.8103,space,0.4037,,0,27,27,27,1,115,170,,,,,,,,
,,6511fd9e06231927b6398700,001,2023-12-14_20h55.16.655,bars,2023.2.3,Win32,166.6666667,,,,,,280.8106,281.8117,,,282.3096,282.5581,,134,134,,,,,,,,,,,,,,,,bars/011.png,bars/mask008.png,,,,,,,,,,,,0,1,,,,,,,2,6,2,5,,,,,,,,,,,281.8117,282.3096,282.5581,284.628,space,2.0639,,284.628,26,49,285.6283,285.6283,286.3223,space,0.6862,,0,28,28,28,1,160,85,,,,,,,,
,,6511fd9e06231927b6398700,001,2023-12-14_20h55.16.655,bars,2023.2.3,Win32,166.6666667,,,,,,286.3225,287.321,,,287.8186,288.0652,,19,199,,,,,,,,,,,,,,,,bars/040.png,bars/mask000.png,,,,,,,,,,,,4,2,,,,,,,0,8,0,8,,,,,,,,,,,287.321,287.8186,288.0652,290.8175,space,2.7464,,290.8175,59,14,291.8176,291.8176,293.4132,space,1.5846,,0,29,29,29,1,140,5,,,,,,,,
,,6511fd9e06231927b6398700,001,2023-12-14_20h55.16.655,bars,2023.2.3,Win32,166.6666667,,,,,,293.4134,294.4143,,,294.9121,295.1608,,35,35,,,,,,,,,,,,,,,,bars/025.png,bars/mask004.png,,,,,,,,,,,,6,2,,,,,,,0,6,0,7,,,,,,,,,,,294.4144,294.9121,295.1608,298.4192,space,3.2492,,298.4192,70,5,299.4202,299.4203,299.9968,space,0.5651,,0,30,30,30,1,105,40,,,,,,,,
,,6511fd9e06231927b6398700,001,2023-12-14_20h55.16.655,bars,2023.2.3,Win32,166.6666667,,,,,,299.9971,300.9979,,,301.4957,301.7443,,35,215,,,,,,,,,,,,,,,,bars/029.png,bars/mask009.png,,,,,,,,,,,,7,2,,,,,,,0,8,1,10,,,,,,,,,,,300.998,301.4956,301.7444,304.032,space,2.2753,,304.032,55,10,305.0332,305.0332,305.6461,space,0.604,,0,31,31,31,1,90,45,,,,,,,,
,,6511fd9e06231927b6398700,001,2023-12-14_20h55.16.655,bars,2023.2.3,Win32,166.6666667,,,,,,305.6464,306.6471,,,307.1448,307.3953,,41,41,,,,,,,,,,,,,,,,bars/010.png,bars/mask000.png,,,,,,,,,,,,5,2,,,,,,,0,10,0,10,,,,,,,,,,,306.6472,307.1447,307.3953,309.236,space,1.8348,,309.236,56,14,310.235,310.235,310.8099,space,0.5684,,0,32,32,32,1,165,55,,,,,,,,
,,6511fd9e06231927b6398700,001,2023-12-14_20h55.16.655,bars,2023.2.3,Win32,166.6666667,,,,,,310.8101,311.8109,,,312.3107,312.5594,,41,41,,,,,,,,,,,,,,,,bars/010.png,bars/mask006.png,,,,,,,,,,,,5,2,,,,,,,0,10,0,9,,,,,,,,,,,311.8109,312.3107,312.5594,314.0196,space,1.4524,,314.0196,56,14,315.0208,315.0208,316.3515,space,1.3271,,0,33,33,33,1,165,55,,,,,,,,
,,6511fd9e06231927b6398700,001,2023-12-14_20h55.16.655,bars,2023.2.3,Win32,166.6666667,,,,,,316.3517,317.3509,,,317.8485,318.0973,,45,225,,,,,,,,,,,,,,,,bars/046.png,bars/mask001.png,,,,,,,,,,,,0,2,,,,,,,2,8,1,7,,,,,,,,,,,317.3509,317.8484,318.0973,321.5765,space,3.4777,,321.5765,70,40,322.5753,322.5753,324.7233,space,2.1379,,0,34,34,34,1,155,85,,,,,,,,
,,6511fd9e06231927b6398700,001,2023-12-14_20h55.16.655,bars,2023.2.3,Win32,166.6666667,,,,,,324.7237,325.7205,,,326.2221,326.4708,,41,221,,,,,,,,,,,,,,,,bars/027.png,bars/mask002.png,,,,,,,,,,,,5,2,,,,,,,0,6,0,7,,,,,,,,,,,325.7206,326.2221,326.4708,330.4271,space,3.9464,,330.4271,69,9,331.4283,331.4283,332.2535,space,0.8132,,0,35,35,35,1,110,50,,,,,,,,
,,6511fd9e06231927b6398700,001,2023-12-14_20h55.16.655,bars,2023.2.3,Win32,166.6666667,,,,,,332.2538,333.2548,,,333.7522,333.998,,49,49,,,,,,,,,,,,,,,,bars/011.png,bars/mask006.png,,,,,,,,,,,,0,2,,,,,,,0,8,2,8,,,,,,,,,,,333.2548,333.7522,333.9981,336.1222,space,2.1171,,336.1222,69,36,337.1215,337.1215,338.9122,space,1.7845,,0,36,36,36,1,160,85,,,,,,,,
,,6511fd9e06231927b6398700,001,2023-12-14_20h55.16.655,bars,2023.2.3,Win32,166.6666667,,,,,,338.9124,339.913,,,340.4121,340.659,,57,237,,,,,,,,,,,,,,,,bars/028.png,bars/mask007.png,,,,,,,,,,,,0,1,,,,,,,0,6,0,7,,,,,,,,,,,339.9131,340.4121,340.659,343.9705,space,3.3042,,343.9705,12,63,344.9718,344.9719,348.1513,space,3.1641,,0,37,37,37,1,45,120,,,,,,,,
,,6511fd9e06231927b6398700,001,2023-12-14_20h55.16.655,bars,2023.2.3,Win32,166.6666667,,,,,,348.1517,349.1525,,,349.6516,349.9004,,151,151,,,,,,,,,,,,,,,,bars/049.png,bars/mask005.png,,,,,,,,,,,,1,1,,,,,,,0,8,1,9,,,,,,,,,,,349.1526,349.6516,349.9004,352.8905,space,2.9824,,352.8906,9,36,353.8916,353.8916,355.9136,space,2.0181,,0,38,38,38,1,160,115,,,,,,,,
,,6511fd9e06231927b6398700,001,2023-12-14_20h55.16.655,bars,2023.2.3,Win32,166.6666667,,,,,,355.9138,356.9133,,,357.4109,357.6596,,54,54,,,,,,,,,,,,,,,,bars/004.png,bars/mask001.png,,,,,,,,,,,,0,1,,,,,,,2,6,2,7,,,,,,,,,,,356.9133,357.4109,357.6597,360.269,space,2.5983,,360.269,29,71,361.27,361.2701,361.994,space,0.72,,0,39,39,39,1,25,125,,,,,,,,
,,6511fd9e06231927b6398700,001,2023-12-14_20h55.16.655,bars,2023.2.3,Win32,166.6666667,,,,,,361.9943,362.9951,,,363.4909,363.7396,,37,217,,,,,,,,,,,,,,,,bars/041.png,bars/mask007.png,,,,,,,,,,,,2,1,,,,,,,4,4,5,3,,,,,,,,,,,362.9951,363.4908,363.7396,367.5139,space,3.7662,,367.5139,17,48,368.5151,368.5151,368.9338,space,0.4071,,0,40,40,40,1,20,85,,,,,,,,
,,6511fd9e06231927b6398700,001,2023-12-14_20h55.16.655,bars,2023.2.3,Win32,166.6666667,,,,,,368.9341,369.9371,,,370.4386,370.6873,,167,167,,,,,,,,,,,,,,,,bars/045.png,bars/mask002.png,,,,,,,,,,,,2,2,,,,,,,2,6,1,7,,,,,,,,,,,369.9371,370.4386,370.6873,373.788,space,3.0974,,373.788,67,23,374.7893,374.7894,375.572,space,0.7727,,0,41,41,41,1,100,10,,,,,,,,
,,6511fd9e06231927b6398700,001,2023-12-14_20h55.16.655,bars,2023.2.3,Win32,166.6666667,,,,,,375.5724,376.5732,,,377.0707,377.3194,,29,29,,,,,,,,,,,,,,,,bars/017.png,bars/mask005.png,,,,,,,,,,,,1,2,,,,,,,4,4,3,3,,,,,,,,,,,376.5732,377.0707,377.3195,378.7334,space,1.4085,,378.7334,64,16,379.7346,379.7346,380.4142,space,0.6672,,0,42,42,42,1,145,45,,,,,,,,
,,6511fd9e06231927b6398700,001,2023-12-14_20h55.16.655,bars,2023.2.3,Win32,166.6666667,,,,,,380.4145,381.4153,,,381.9127,382.1617,,44,224,,,,,,,,,,,,,,,,bars/019.png,bars/mask009.png,,,,,,,,,,,,4,1,,,,,,,2,6,4,6,,,,,,,,,,,381.4153,381.9127,382.1617,385.3411,space,3.1657,,385.3411,1,61,386.3424,386.3424,387.9405,space,1.5924,,0,43,43,43,1,45,105,,,,,,,,
,,6511fd9e06231927b6398700,001,2023-12-14_20h55.16.655,bars,2023.2.3,Win32,166.6666667,,,,,,387.9407,388.9393,,,389.4371,389.6858,,147,147,,,,,,,,,,,,,,,,bars/024.png,bars/mask002.png,,,,,,,,,,,,2,2,,,,,,,0,8,0,8,,,,,,,,,,,388.9393,389.437,389.6858,392.2243,space,2.5313,,392.2243,27,23,393.2233,393.2233,393.893,space,0.6616,,0,44,44,44,1,120,170,,,,,,,,
,,6511fd9e06231927b6398700,001,2023-12-14_20h55.16.655,bars,2023.2.3,Win32,166.6666667,,,,,,393.8933,394.892,,,395.3895,395.6383,,132,132,,,,,,,,,,,,,,,,bars/049.png,bars/mask008.png,,,,,,,,,,,,3,2,,,,,,,2,6,1,7,,,,,,,,,,,394.8921,395.3895,395.6383,399.3542,space,3.7143,,399.3542,28,17,400.353,400.353,401.2573,space,0.8961,,0,45,45,45,1,160,115,,,,,,,,
,,6511fd9e06231927b6398700,001,2023-12-14_20h55.16.655,bars,2023.2.3,Win32,166.6666667,,,,,,401.2575,402.2588,,,402.7559,403.0047,,159,159,,,,,,,,,,,,,,,,bars/009.png,bars/mask003.png,,,,,,,,,,,,0,1,,,,,,,0,4,0,4,,,,,,,,,,,402.2588,402.7559,403.0047,404.6916,space,1.6783,,404.6916,36,54,405.6928,405.6928,407.7619,space,2.0608,,0,46,46,46,1,15,105,,,,,,,,
,,6511fd9e06231927b6398700,001,2023-12-14_20h55.16.655,bars,2023.2.3,Win32,166.6666667,,,,,,407.7623,408.763,,,409.2608,409.5095,,129,129,,,,,,,,,,,,,,,,bars/006.png,bars/mask000.png,,,,,,,,,,,,0,2,,,,,,,2,6,2,6,,,,,,,,,,,408.763,409.2608,409.5095,413.5144,space,4.0028,,413.5144,86,29,414.5155,414.5155,417.7701,space,3.2484,,0,47,47,47,1,35,100,,,,,,,,
,,6511fd9e06231927b6398700,001,2023-12-14_20h55.16.655,bars,2023.2.3,Win32,166.6666667,,,,,,417.7705,418.773,,,419.2727,419.5214,,153,-27,,,,,,,,,,,,,,,,bars/000.png,bars/mask004.png,,,,,,,,,,,,2,2,,,,,,,0,4,0,3,,,,,,,,,,,418.773,419.2726,419.5214,423.8296,space,4.2971,,423.8297,67,8,424.8307,424.8308,425.6985,space,0.8564,,0,48,48,48,1,40,145,,,,,,,,
,,6511fd9e06231927b6398700,001,2023-12-14_20h55.16.655,bars,2023.2.3,Win32,166.6666667,,,,,,425.6989,426.6996,,,427.1974,427.4461,,49,49,,,,,,,,,,,,,,,,bars/025.png,bars/mask003.png,,,,,,,,,,,,2,2,,,,,,,2,2,2,3,,,,,,,,,,,426.6996,427.1974,427.4461,430.4639,space,3.0164,,430.4639,56,9,431.4629,431.4629,432.8184,space,1.3471,,0,49,49,49,1,105,40,,,,,,,,
,,6511fd9e06231927b6398700,001,2023-12-14_20h55.16.655,bars,2023.2.3,Win32,166.6666667,,,,,,,,,,,,,,,,,,,,,,,,,,,,,,,,,,,,,,,,,,,,,,,,,,,,,,,,,,,,,,,,,,,,,,,,,,,,,,,,,,,,,,,,432.8186,492.8153,0,0,0,3,1,sequence_tables/blk043.csv
,,6511fd9e06231927b6398700,001,2023-12-14_20h55.16.655,bars,2023.2.3,Win32,166.6666667,,,,,,504.2564,505.2558,,,505.755,506.0008,,145,145,,,,,,,,,,,,,,,,bars/004.png,bars/mask007.png,,,,,,,,,,,,2,2,,,,,,,1,9,1,7,,,,,,492.8157,504.253,space,11.4322,,505.2559,505.755,506.0008,509.1216,space,3.1132,,509.1217,60,20,510.1206,510.1206,510.1211,,,,0,0,0,0,1,25,125,,,,,,,,
,,6511fd9e06231927b6398700,001,2023-12-14_20h55.16.655,bars,2023.2.3,Win32,166.6666667,,,,,,510.1213,511.1218,,,511.6193,511.8703,,25,25,,,,,,,,,,,,,,,,bars/008.png,bars/mask004.png,,,,,,,,,,,,1,2,,,,,,,3,7,5,6,,,,,,,,,,,511.1218,511.6193,511.8703,513.4944,space,1.6182,,513.4944,85,25,514.4956,514.4956,514.496,,,,0,1,1,1,1,110,0,,,,,,,,
,,6511fd9e06231927b6398700,001,2023-12-14_20h55.16.655,bars,2023.2.3,Win32,166.6666667,,,,,,514.4963,515.4967,,,515.9963,516.2456,,174,174,,,,,,,,,,,,,,,,bars/032.png,bars/mask001.png,,,,,,,,,,,,1,2,,,,,,,5,9,4,9,,,,,,,,,,,515.4967,515.9963,516.2456,518.1809,space,1.9285,,518.1809,49,26,519.1799,519.1799,519.1803,,,,0,2,2,2,1,125,20,,,,,,,,
,,6511fd9e06231927b6398700,001,2023-12-14_20h55.16.655,bars,2023.2.3,Win32,166.6666667,,,,,,519.1805,520.181,,,520.6787,520.929,,48,48,,,,,,,,,,,,,,,,bars/036.png,bars/mask007.png,,,,,,,,,,,,1,2,,,,,,,3,7,5,10,,,,,,,,,,,520.1811,520.6787,520.929,524.303,space,3.368,,524.303,83,28,525.3041,525.3041,525.3047,,,,0,3,3,3,1,145,20,,,,,,,,
,,6511fd9e06231927b6398700,001,2023-12-14_20h55.16.655,bars,2023.2.3,Win32,166.6666667,,,,,,525.3049,526.3036,,,526.8012,527.0499,,159,159,,,,,,,,,,,,,,,,bars/034.png,bars/mask007.png,,,,,,,,,,,,0,1,,,,,,,1,5,1,4,,,,,,,,,,,526.3036,526.8012,527.0499,528.2636,space,1.2065,,528.2636,34,86,529.2647,529.2647,529.2657,,,,0,4,4,4,1,125,65,,,,,,,,
,,6511fd9e06231927b6398700,001,2023-12-14_20h55.16.655,bars,2023.2.3,Win32,166.6666667,,,,,,529.2659,530.2659,,,530.7637,531.0122,,135,-45,,,,,,,,,,,,,,,,bars/023.png,bars/mask000.png,,,,,,,,,,,,0,2,,,,,,,3,3,5,1,,,,,,,,,,,530.2659,530.7636,531.0122,535.187,space,4.166,,535.1871,65,20,536.1881,536.1881,536.1892,,,,0,5,5,5,1,20,115,,,,,,,,
,,6511fd9e06231927b6398700,001,2023-12-14_20h55.16.655,bars,2023.2.3,Win32,166.6666667,,,,,,536.1894,537.1861,,,537.6868,537.9355,,122,122,,,,,,,,,,,,,,,,bars/001.png,bars/mask002.png,,,,,,,,,,,,5,1,,,,,,,5,1,7,2,,,,,,,,,,,537.1863,537.6868,537.9355,540.0533,space,2.1057,,540.0533,8,37,541.0545,541.0545,541.0603,,,,0,6,6,6,1,130,85,,,,,,,,
,,6511fd9e06231927b6398700,001,2023-12-14_20h55.16.655,bars,2023.2.3,Win32,166.6666667,,,,,,541.0605,542.0617,,,542.5593,542.8082,,118,118,,,,,,,,,,,,,,,,bars/003.png,bars/mask004.png,,,,,,,,,,,,1,2,,,,,,,3,3,3,3,,,,,,,,,,,542.0618,542.5593,542.8082,545.9817,space,3.1688,,545.9817,87,22,546.9829,546.9829,546.9886,,,,0,7,7,7,1,25,140,,,,,,,,
,,6511fd9e06231927b6398700,001,2023-12-14_20h55.16.655,bars,2023.2.3,Win32,166.6666667,,,,,,546.9886,547.9841,,,548.4816,548.7303,,33,213,,,,,,,,,,,,,,,,bars/007.png,bars/mask008.png,,,,,,,,,,,,0,2,,,,,,,5,1,3,1,,,,,,,,,,,547.9841,548.4816,548.7303,551.3031,space,2.5685,,551.3032,38,22,552.3043,552.3044,552.3097,,,,0,8,8,8,1,175,55,,,,,,,,
,,6511fd9e06231927b6398700,001,2023-12-14_20h55.16.655,bars,2023.2.3,Win32,166.6666667,,,,,,552.3098,553.3056,,,553.8032,554.0519,,155,-25,,,,,,,,,,,,,,,,bars/020.png,bars/mask001.png,,,,,,,,,,,,3,2,,,,,,,3,3,2,5,,,,,,,,,,,553.3056,553.8032,554.0519,557.8625,space,3.8046,,557.8626,40,15,558.8638,558.8638,558.8687,,,,0,9,9,9,1,115,170,,,,,,,,
,,6511fd9e06231927b6398700,001,2023-12-14_20h55.16.655,bars,2023.2.3,Win32,166.6666667,,,,,,558.8688,559.8649,,,560.3625,560.6113,,22,22,,,,,,,,,,,,,,,,bars/005.png,bars/mask004.png,,,,,,,,,,,,0,1,,,,,,,1,1,0,0,,,,,,,,,,,559.865,560.3625,560.6113,561.5519,space,0.9359,,561.5519,12,62,562.5529,562.553,562.5539,,,,0,10,10,10,1,10,140,,,,,,,,
,,6511fd9e06231927b6398700,001,2023-12-14_20h55.16.655,bars,2023.2.3,Win32,166.6666667,,,,,,562.554,563.5542,,,564.0518,564.3005,,155,-25,,,,,,,,,,,,,,,,bars/000.png,bars/mask003.png,,,,,,,,,,,,0,2,,,,,,,3,0,3,0,,,,,,,,,,,563.5542,564.0517,564.3006,567.4134,space,3.1089,,567.4134,65,10,568.4145,568.4145,568.42,,,,0,11,11,11,1,40,145,,,,,,,,
,,6511fd9e06231927b6398700,001,2023-12-14_20h55.16.655,bars,2023.2.3,Win32,166.6666667,,,,,,568.4201,569.4158,,,569.9134,570.1621,,37,37,,,,,,,,,,,,,,,,bars/007.png,bars/mask009.png,,,,,,,,,,,,0,2,,,,,,,5,0,6,0,,,,,,,,,,,569.4158,569.9134,570.1622,571.7518,space,1.5842,,571.7519,42,18,572.753,572.7531,572.7535,,,,0,12,12,12,1,175,55,,,,,,,,
,,6511fd9e06231927b6398700,001,2023-12-14_20h55.16.655,bars,2023.2.3,Win32,166.6666667,,,,,,572.7538,573.7542,,,574.2517,574.5006,,159,-21,,,,,,,,,,,,,,,,bars/048.png,bars/mask009.png,,,,,,,,,,,,1,2,,,,,,,7,2,7,2,,,,,,,,,,,573.7543,574.2517,574.5006,577.8198,space,3.315,,577.8198,71,16,578.821,578.821,578.8259,,,,0,13,13,13,1,50,175,,,,,,,,
,,6511fd9e06231927b6398700,001,2023-12-14_20h55.16.655,bars,2023.2.3,Win32,166.6666667,,,,,,578.8261,579.8221,,,580.3196,580.5684,,46,226,,,,,,,,,,,,,,,,bars/001.png,bars/mask004.png,,,,,,,,,,,,0,2,,,,,,,5,4,6,5,,,,,,,,,,,579.8221,580.3196,580.5684,583.6934,space,3.1193,,583.6934,84,39,584.6946,584.6947,584.6998,,,,0,14,14,14,1,130,85,,,,,,,,
,,6511fd9e06231927b6398700,001,2023-12-14_20h55.16.655,bars,2023.2.3,Win32,166.6666667,,,,,,584.6999,585.6957,,,586.1934,586.4423,,165,165,,,,,,,,,,,,,,,,bars/014.png,bars/mask002.png,,,,,,,,,,,,1,2,,,,,,,3,2,3,1,,,,,,,,,,,585.6957,586.1932,586.4423,588.3476,space,1.9009,,588.3477,85,15,589.3486,589.3487,589.3491,,,,0,15,15,15,1,80,0,,,,,,,,
,,6511fd9e06231927b6398700,001,2023-12-14_20h55.16.655,bars,2023.2.3,Win32,166.6666667,,,,,,589.3492,590.3498,,,590.8475,591.0961,,66,66,,,,,,,,,,,,,,,,bars/027.png,bars/mask000.png,,,,,,,,,,,,0,2,,,,,,,1,0,3,0,,,,,,,,,,,590.3499,590.8475,591.0961,592.8559,space,1.754,,592.8559,44,16,593.8571,593.8571,593.8574,,,,0,16,16,16,1,110,50,,,,,,,,
,,6511fd9e06231927b6398700,001,2023-12-14_20h55.16.655,bars,2023.2.3,Win32,166.6666667,,,,,,593.8576,594.8582,,,595.3559,595.6046,,113,113,,,,,,,,,,,,,,,,bars/006.png,bars/mask006.png,,,,,,,,,,,,1,2,,,,,,,0,2,0,1,,,,,,,,,,,594.8582,595.3559,595.6046,597.2853,space,1.6755,,597.2853,78,13,598.2866,598.2866,598.2916,,,,0,17,17,17,1,35,100,,,,,,,,
,,6511fd9e06231927b6398700,001,2023-12-14_20h55.16.655,bars,2023.2.3,Win32,166.6666667,,,,,,598.2918,599.2877,,,599.7854,600.0343,,60,60,,,,,,,,,,,,,,,,bars/011.png,bars/mask006.png,,,,,,,,,,,,1,2,,,,,,,2,4,2,5,,,,,,,,,,,599.2877,599.7854,600.0343,602.2063,space,2.1669,,602.2063,80,25,603.2078,603.2078,603.2128,,,,0,18,18,18,1,160,85,,,,,,,,
,,6511fd9e06231927b6398700,001,2023-12-14_20h55.16.655,bars,2023.2.3,Win32,166.6666667,,,,,,603.213,604.2088,,,604.7064,604.9552,,55,55,,,,,,,,,,,,,,,,bars/026.png,bars/mask001.png,,,,,,,,,,,,0,1,,,,,,,0,2,0,2,,,,,,,,,,,604.2088,604.7064,604.9552,606.3023,space,1.3411,,606.3024,20,30,607.3034,607.3034,607.3043,,,,0,19,19,19,1,35,85,,,,,,,,
,,6511fd9e06231927b6398700,001,2023-12-14_20h55.16.655,bars,2023.2.3,Win32,166.6666667,,,,,,607.3045,608.3046,,,608.8022,609.051,,42,42,,,,,,,,,,,,,,,,bars/029.png,bars/mask004.png,,,,,,,,,,,,4,2,,,,,,,0,4,0,4,,,,,,,,,,,608.3046,608.8022,609.051,613.8021,space,4.7487,,613.8021,48,3,614.8033,614.8034,614.8093,,,,0,20,20,20,1,90,45,,,,,,,,
,,6511fd9e06231927b6398700,001,2023-12-14_20h55.16.655,bars,2023.2.3,Win32,166.6666667,,,,,,614.8095,615.8106,,,616.3081,616.5569,,161,-19,,,,,,,,,,,,,,,,bars/012.png,bars/mask003.png,,,,,,,,,,,,0,2,,,,,,,0,6,1,7,,,,,,,,,,,615.8106,616.3081,616.557,621.5993,space,5.0364,,621.5993,71,34,622.6004,622.6005,622.6054,,,,0,21,21,21,1,90,15,,,,,,,,
,,6511fd9e06231927b6398700,001,2023-12-14_20h55.16.655,bars,2023.2.3,Win32,166.6666667,,,,,,622.6056,623.6018,,,624.0992,624.348,,62,62,,,,,,,,,,,,,,,,bars/019.png,bars/mask004.png,,,,,,,,,,,,0,1,,,,,,,0,4,0,5,,,,,,,,,,,623.6018,624.0992,624.3481,627.8067,space,3.4522,,627.8068,17,43,628.8079,628.8079,628.8135,,,,0,22,22,22,1,45,105,,,,,,,,
,,6511fd9e06231927b6398700,001,2023-12-14_20h55.16.655,bars,2023.2.3,Win32,166.6666667,,,,,,628.8136,629.8152,,,630.3128,630.5616,,158,-22,,,,,,,,,,,,,,,,bars/000.png,bars/mask002.png,,,,,,,,,,,,3,2,,,,,,,0,6,1,6,,,,,,,,,,,629.8152,630.3128,630.5616,633.7351,space,3.1682,,633.7351,62,13,634.7362,634.7362,634.7419,,,,0,23,23,23,1,40,145,,,,,,,,
,,6511fd9e06231927b6398700,001,2023-12-14_20h55.16.655,bars,2023.2.3,Win32,166.6666667,,,,,,634.7419,635.7434,,,636.241,636.4899,,145,145,,,,,,,,,,,,,,,,bars/005.png,bars/mask008.png,,,,,,,,,,,,5,2,,,,,,,0,4,1,6,,,,,,,,,,,635.7434,636.241,636.4899,640.4703,space,3.9748,,640.4703,45,5,641.4705,641.4705,641.4757,,,,0,24,24,24,1,10,140,,,,,,,,
,,6511fd9e06231927b6398700,001,2023-12-14_20h55.16.655,bars,2023.2.3,Win32,166.6666667,,,,,,641.4758,642.4727,,,642.9702,643.219,,154,154,,,,,,,,,,,,,,,,bars/020.png,bars/mask002.png,,,,,,,,,,,,0,2,,,,,,,0,2,0,1,,,,,,,,,,,642.4727,642.9702,643.219,644.6659,space,1.4382,,644.6659,39,16,645.6644,645.6644,645.6648,,,,0,25,25,25,1,115,170,,,,,,,,
,,6511fd9e06231927b6398700,001,2023-12-14_20h55.16.655,bars,2023.2.3,Win32,166.6666667,,,,,,645.6649,646.668,,,647.1691,647.418,,69,69,,,,,,,,,,,,,,,,bars/001.png,bars/mask009.png,,,,,,,,,,,,2,2,,,,,,,2,4,4,4,,,,,,,,,,,646.668,647.1691,647.418,649.4143,space,1.9899,,649.4143,61,16,650.4155,650.4155,650.4207,,,,0,26,26,26,1,130,85,,,,,,,,
,,6511fd9e06231927b6398700,001,2023-12-14_20h55.16.655,bars,2023.2.3,Win32,166.6666667,,,,,,650.4208,651.4167,,,651.9143,652.1656,,132,132,,,,,,,,,,,,,,,,bars/000.png,bars/mask009.png,,,,,,,,,,,,3,2,,,,,,,0,2,0,5,,,,,,,,,,,651.4167,651.9143,652.1656,654.3476,space,2.1788,,654.3476,88,13,655.3487,655.3487,655.3539,,,,0,27,27,27,1,40,145,,,,,,,,
,,6511fd9e06231927b6398700,001,2023-12-14_20h55.16.655,bars,2023.2.3,Win32,166.6666667,,,,,,655.3541,656.3498,,,656.8474,657.0962,,144,144,,,,,,,,,,,,,,,,bars/004.png,bars/mask008.png,,,,,,,,,,,,1,2,,,,,,,2,4,1,4,,,,,,,,,,,656.3499,656.8473,657.0962,659.8267,space,2.7285,,659.8267,61,19,660.8279,660.8279,660.8329,,,,0,28,28,28,1,25,125,,,,,,,,
,,6511fd9e06231927b6398700,001,2023-12-14_20h55.16.655,bars,2023.2.3,Win32,166.6666667,,,,,,660.833,661.8291,,,662.3268,662.5755,,160,-20,,,,,,,,,,,,,,,,bars/024.png,bars/mask000.png,,,,,,,,,,,,2,2,,,,,,,0,2,0,3,,,,,,,,,,,661.8291,662.3268,662.5755,665.749,space,3.168,,665.7491,40,10,666.7502,666.7503,666.7554,,,,0,29,29,29,1,120,170,,,,,,,,
,,6511fd9e06231927b6398700,001,2023-12-14_20h55.16.655,bars,2023.2.3,Win32,166.6666667,,,,,,666.7556,667.7515,,,668.249,668.4977,,138,138,,,,,,,,,,,,,,,,bars/040.png,bars/mask001.png,,,,,,,,,,,,0,1,,,,,,,0,4,0,6,,,,,,,,,,,667.7515,668.249,668.4977,672.5329,space,4.0323,,672.5329,2,47,673.534,673.534,673.5398,,,,0,30,30,30,1,140,5,,,,,,,,
,,6511fd9e06231927b6398700,001,2023-12-14_20h55.16.655,bars,2023.2.3,Win32,166.6666667,,,,,,673.5399,674.5356,,,675.0329,675.2816,,76,76,,,,,,,,,,,,,,,,bars/046.png,bars/mask003.png,,,,,,,,,,,,1,2,,,,,,,0,2,1,1,,,,,,,,,,,674.5356,675.0328,675.2816,677.8484,space,2.5609,,677.8484,79,9,678.8495,678.8495,678.8554,,,,0,31,31,31,1,155,85,,,,,,,,
,,6511fd9e06231927b6398700,001,2023-12-14_20h55.16.655,bars,2023.2.3,Win32,166.6666667,,,,,,678.8556,679.8568,,,680.3544,680.6032,,56,56,,,,,,,,,,,,,,,,bars/045.png,bars/mask003.png,,,,,,,,,,,,0,1,,,,,,,2,4,1,5,,,,,,,,,,,679.8568,680.3544,680.6032,746.1143,space,65.5096,,746.1143,44,46,747.116,747.116,747.1169,,,,0,32,32,32,1,100,10,,,,,,,,
,,6511fd9e06231927b6398700,001,2023-12-14_20h55.16.655,bars,2023.2.3,Win32,166.6666667,,,,,,747.117,759.3071,,,759.3076,759.3078,,158,158,,,,,,,,,,,,,,,,bars/047.png,bars/mask009.png,,,,,,,,,,,,0,1,,,,,,,4,2,2,4,,,,,,,,,,,759.3071,759.3076,759.3078,760.2924,space,0.9677,,760.2924,37,88,761.2936,761.2936,761.294,,,,0,33,33,33,1,15,70,,,,,,,,
,,6511fd9e06231927b6398700,001,2023-12-14_20h55.16.655,bars,2023.2.3,Win32,166.6666667,,,,,,761.2941,762.2948,,,762.7923,763.0411,,18,18,,,,,,,,,,,,,,,,bars/012.png,bars/mask002.png,,,,,,,,,,,,3,2,,,,,,,2,4,0,3,,,,,,,,,,,762.2948,762.7923,763.0412,764.8372,space,1.7907,,764.8372,72,3,765.8384,765.8384,765.8439,,,,0,34,34,34,1,90,15,,,,,,,,
,,6511fd9e06231927b6398700,001,2023-12-14_20h55.16.655,bars,2023.2.3,Win32,166.6666667,,,,,,765.8441,766.8457,,,767.3431,767.5919,,154,154,,,,,,,,,,,,,,,,bars/014.png,bars/mask004.png,,,,,,,,,,,,1,2,,,,,,,0,6,0,6,,,,,,,,,,,766.8457,767.3431,767.5919,770.1587,space,2.5611,,770.1587,74,26,771.1599,771.1599,771.1603,,,,0,35,35,35,1,80,0,,,,,,,,
,,6511fd9e06231927b6398700,001,2023-12-14_20h55.16.655,bars,2023.2.3,Win32,166.6666667,,,,,,771.1603,772.1611,,,772.6587,772.9074,,150,150,,,,,,,,,,,,,,,,bars/000.png,bars/mask001.png,,,,,,,,,,,,3,2,,,,,,,0,4,0,3,,,,,,,,,,,772.1611,772.6587,772.9074,777.0518,space,4.1407,,777.0518,70,5,778.053,778.053,778.058,,,,0,36,36,36,1,40,145,,,,,,,,
,,6511fd9e06231927b6398700,001,2023-12-14_20h55.16.655,bars,2023.2.3,Win32,166.6666667,,,,,,778.0581,779.0542,,,779.5517,779.8006,,125,125,,,,,,,,,,,,,,,,bars/037.png,bars/mask001.png,,,,,,,,,,,,2,2,,,,,,,0,6,0,5,,,,,,,,,,,779.0543,779.5517,779.8006,781.5177,space,1.7126,,781.5177,25,20,782.5189,782.5189,782.5193,,,,0,37,37,37,1,150,105,,,,,,,,
,,6511fd9e06231927b6398700,001,2023-12-14_20h55.16.655,bars,2023.2.3,Win32,166.6666667,,,,,,782.5194,783.5201,,,784.0177,784.2665,,125,-55,,,,,,,,,,,,,,,,bars/036.png,bars/mask008.png,,,,,,,,,,,,0,1,,,,,,,0,4,0,6,,,,,,,,,,,783.5201,784.0177,784.2666,787.8162,space,3.545,,787.8162,20,75,788.8174,788.8174,788.8227,,,,0,38,38,38,1,145,20,,,,,,,,
,,6511fd9e06231927b6398700,001,2023-12-14_20h55.16.655,bars,2023.2.3,Win32,166.6666667,,,,,,788.8228,789.8186,,,790.3162,790.5649,,50,50,,,,,,,,,,,,,,,,bars/030.png,bars/mask005.png,,,,,,,,,,,,1,2,,,,,,,2,2,1,2,,,,,,,,,,,789.8186,790.3162,790.5649,792.3912,space,1.82,,792.3912,90,15,793.3925,793.3925,793.398,,,,0,39,39,39,1,140,65,,,,,,,,
,,6511fd9e06231927b6398700,001,2023-12-14_20h55.16.655,bars,2023.2.3,Win32,166.6666667,,,,,,793.3981,794.3996,,,794.8973,795.1441,,25,205,,,,,,,,,,,,,,,,bars/014.png,bars/mask009.png,,,,,,,,,,,,0,2,,,,,,,4,4,4,3,,,,,,,,,,,794.3997,794.8973,795.1441,798.7833,space,3.6348,,798.7833,55,25,799.7819,799.7819,799.7935,,,,0,40,40,40,1,80,0,,,,,,,,
,,6511fd9e06231927b6398700,001,2023-12-14_20h55.16.655,bars,2023.2.3,Win32,166.6666667,,,,,,799.7937,800.7952,,,801.2931,801.5416,,47,47,,,,,,,,,,,,,,,,bars/035.png,bars/mask001.png,,,,,,,,,,,,2,2,,,,,,,6,2,5,3,,,,,,,,,,,800.7953,801.2931,801.5416,803.2952,space,1.749,,803.2952,52,13,804.2964,804.2964,804.3017,,,,0,41,41,41,1,175,60,,,,,,,,
,,6511fd9e06231927b6398700,001,2023-12-14_20h55.16.655,bars,2023.2.3,Win32,166.6666667,,,,,,804.3018,805.2976,,,805.7951,806.0439,,158,158,,,,,,,,,,,,,,,,bars/024.png,bars/mask005.png,,,,,,,,,,,,2,2,,,,,,,4,4,4,3,,,,,,,,,,,805.2976,805.7951,806.0439,809.9273,space,3.8775,,809.9274,38,12,810.9285,810.9286,810.9339,,,,0,42,42,42,1,120,170,,,,,,,,
,,6511fd9e06231927b6398700,001,2023-12-14_20h55.16.655,bars,2023.2.3,Win32,166.6666667,,,,,,810.9341,811.9297,,,812.4273,812.6762,,134,134,,,,,,,,,,,,,,,,bars/015.png,bars/mask008.png,,,,,,,,,,,,1,1,,,,,,,2,6,4,6,,,,,,,,,,,811.9297,812.4273,812.6762,816.9543,space,4.2765,,816.9543,24,26,817.9551,817.9551,817.9606,,,,0,43,43,43,1,110,160,,,,,,,,
,,6511fd9e06231927b6398700,001,2023-12-14_20h55.16.655,bars,2023.2.3,Win32,166.6666667,,,,,,817.9607,818.9565,,,819.4539,819.7027,,49,49,,,,,,,,,,,,,,,,bars/007.png,bars/mask000.png,,,,,,,,,,,,2,2,,,,,,,4,4,5,3,,,,,,,,,,,818.9565,819.4539,819.7028,822.8217,space,3.1143,,822.8217,54,6,823.8228,823.8228,823.8283,,,,0,44,44,44,1,175,55,,,,,,,,
,,6511fd9e06231927b6398700,001,2023-12-14_20h55.16.655,bars,2023.2.3,Win32,166.6666667,,,,,,823.8284,824.824,,,825.3216,825.5704,,34,214,,,,,,,,,,,,,,,,bars/047.png,bars/mask008.png,,,,,,,,,,,,2,1,,,,,,,6,6,5,6,,,,,,,,,,,824.824,825.3216,825.5704,830.0121,space,4.4375,,830.0121,19,36,831.0134,831.0134,831.0189,,,,0,45,45,45,1,15,70,,,,,,,,
,,6511fd9e06231927b6398700,001,2023-12-14_20h55.16.655,bars,2023.2.3,Win32,166.6666667,,,,,,831.0191,832.0204,,,832.5182,832.7669,,162,-18,,,,,,,,,,,,,,,,bars/048.png,bars/mask007.png,,,,,,,,,,,,3,2,,,,,,,4,4,3,5,,,,,,,,,,,832.0205,832.5182,832.7669,836.5229,space,3.7537,,836.5229,68,13,837.5241,837.5242,837.53,,,,0,46,46,46,1,50,175,,,,,,,,
,,6511fd9e06231927b6398700,001,2023-12-14_20h55.16.655,bars,2023.2.3,Win32,166.6666667,,,,,,837.5301,838.5313,,,839.0288,839.2776,,163,163,,,,,,,,,,,,,,,,bars/024.png,bars/mask006.png,,,,,,,,,,,,4,2,,,,,,,6,6,6,5,,,,,,,,,,,838.5314,839.0288,839.2776,841.9475,space,2.6656,,841.9475,43,7,842.9491,842.9491,842.9541,,,,0,47,47,47,1,120,170,,,,,,,,
,,6511fd9e06231927b6398700,001,2023-12-14_20h55.16.655,bars,2023.2.3,Win32,166.6666667,,,,,,842.9542,843.9499,,,844.4476,844.6962,,44,224,,,,,,,,,,,,,,,,bars/042.png,bars/mask006.png,,,,,,,,,,,,0,2,,,,,,,4,8,5,9,,,,,,,,,,,843.9499,844.4476,844.6962,847.5422,space,2.8402,,847.5422,79,31,848.5433,848.5434,848.5482,,,,0,48,48,48,1,145,75,,,,,,,,
,,6511fd9e06231927b6398700,001,2023-12-14_20h55.16.655,bars,2023.2.3,Win32,166.6666667,,,,,,848.5483,849.5445,,,850.0421,850.291,,163,-17,,,,,,,,,,,,,,,,bars/040.png,bars/mask007.png,,,,,,,,,,,,3,2,,,,,,,2,10,2,10,,,,,,,,,,,849.5445,850.042,850.291,854.2046,space,3.9097,,854.2046,23,22,855.2058,855.2058,855.2112,,,,0,49,49,49,1,140,5,,,,,,,,
,,6511fd9e06231927b6398700,001,2023-12-14_20h55.16.655,bars,2023.2.3,Win32,166.6666667,,,,,,,,,,,,,,,,,,,,,,,,,,,,,,,,,,,,,,,,,,,,,,,,,,,,,,,,,,,,,,,,,,,,,,,,,,,,,,,,,,,,,,,,855.2113,915.2108,0,1,1,4,1,sequence_tables/blk022.csv
,,6511fd9e06231927b6398700,001,2023-12-14_20h55.16.655,bars,2023.2.3,Win32,166.6666667,,,,,,1475.5862,1476.5875,,,1477.0886,1477.3374,,150,-30,,,,,,,,,,,,,,,,bars/037.png,bars/mask003.png,,,,,,,,,,,,9,1,,,,,,,8,8,9,9,,,,,,915.2163,1475.5837,space,560.3605,,1476.5875,1477.0886,1477.3374,1480.5674,space,3.2281,,1480.5674,0,45,1481.5686,1481.5686,1481.5742,,,,0,0,0,0,1,150,105,,,,,,,,
,,6511fd9e06231927b6398700,001,2023-12-14_20h55.16.655,bars,2023.2.3,Win32,166.6666667,,,,,,1481.5743,1482.574,,,1483.0716,1483.3202,,63,63,,,,,,,,,,,,,,,,bars/011.png,bars/mask007.png,,,,,,,,,,,,2,2,,,,,,,10,6,8,6,,,,,,,,,,,1482.574,1483.0715,1483.3202,1496.8637,space,13.5309,,1496.8638,83,22,1497.8649,1497.865,1497.8663,,,,0,1,1,1,1,160,85,,,,,,,,
,,6511fd9e06231927b6398700,001,2023-12-14_20h55.16.655,bars,2023.2.3,Win32,166.6666667,,,,,,1497.8665,1498.8662,,,1499.3636,1499.6126,,136,136,,,,,,,,,,,,,,,,bars/039.png,bars/mask006.png,,,,,,,,,,,,0,2,,,,,,,8,8,10,8,,,,,,,,,,,1498.8662,1499.3636,1499.6126,1503.1501,space,3.5263,,1503.1501,39,31,1504.1512,1504.1512,1504.1516,,,,0,2,2,2,1,175,105,,,,,,,,
,,6511fd9e06231927b6398700,001,2023-12-14_20h55.16.655,bars,2023.2.3,Win32,166.6666667,,,,,,1504.1516,1505.1524,,,1505.65,1505.8987,,159,-21,,,,,,,,,,,,,,,,bars/041.png,bars/mask001.png,,,,,,,,,,,,0,1,,,,,,,6,6,4,7,,,,,,,,,,,1505.1524,1505.65,1505.8987,1509.3757,space,3.4718,,1509.3757,41,74,1510.3768,1510.3768,1510.3829,,,,0,3,3,3,1,20,85,,,,,,,,
,,6511fd9e06231927b6398700,001,2023-12-14_20h55.16.655,bars,2023.2.3,Win32,166.6666667,,,,,,1510.3831,1511.384,,,1511.8817,1512.1304,,114,114,,,,,,,,,,,,,,,,bars/001.png,bars/mask006.png,,,,,,,,,,,,2,1,,,,,,,4,8,5,7,,,,,,,,,,,1511.384,1511.8815,1512.1304,1514.8308,space,2.6891,,1514.8308,16,29,1515.8318,1515.8319,1515.8369,,,,0,4,4,4,1,130,85,,,,,,,,
,,6511fd9e06231927b6398700,001,2023-12-14_20h55.16.655,bars,2023.2.3,Win32,166.6666667,,,,,,1515.8371,1516.833,,,1517.3306,1517.5794,,41,41,,,,,,,,,,,,,,,,bars/046.png,bars/mask003.png,,,,,,,,,,,,0,2,,,,,,,2,6,1,6,,,,,,,,,,,1516.833,1517.3306,1517.5794,1522.0454,space,4.4623,,1522.0455,66,44,1523.0466,1523.0466,1523.0522,,,,0,5,5,5,1,155,85,,,,,,,,
,,6511fd9e06231927b6398700,001,2023-12-14_20h55.16.655,bars,2023.2.3,Win32,166.6666667,,,,,,1523.0523,1524.0477,,,1524.5453,1524.7941,,24,204,,,,,,,,,,,,,,,,bars/022.png,bars/mask000.png,,,,,,,,,,,,5,2,,,,,,,4,4,3,6,,,,,,,,,,,1524.0477,1524.5453,1524.7942,1528.3742,space,3.5739,,1528.3742,71,4,1529.3753,1529.3753,1529.3802,,,,0,6,6,6,1,95,20,,,,,,,,
,,6511fd9e06231927b6398700,001,2023-12-14_20h55.16.655,bars,2023.2.3,Win32,166.6666667,,,,,,1529.3802,1530.3765,,,1530.8741,1531.1227,,168,-12,,,,,,,,,,,,,,,,bars/045.png,bars/mask004.png,,,,,,,,,,,,0,2,,,,,,,2,2,1,1,,,,,,,,,,,1530.3765,1530.8741,1531.1227,1534.8122,space,3.6851,,1534.8122,68,22,1535.8133,1535.8133,1535.8183,,,,0,7,7,7,1,100,10,,,,,,,,
,,6511fd9e06231927b6398700,001,2023-12-14_20h55.16.655,bars,2023.2.3,Win32,166.6666667,,,,,,1535.8184,1536.8145,,,1537.3122,1537.5609,,63,63,,,,,,,,,,,,,,,,bars/041.png,bars/mask006.png,,,,,,,,,,,,1,2,,,,,,,4,4,3,3,,,,,,,,,,,1536.8146,1537.3122,1537.5609,1540.2125,space,2.6482,,1540.2125,43,22,1541.2137,1541.2137,1541.2189,,,,0,8,8,8,1,20,85,,,,,,,,
,,6511fd9e06231927b6398700,001,2023-12-14_20h55.16.655,bars,2023.2.3,Win32,166.6666667,,,,,,1541.219,1542.2149,,,1542.7125,1542.9612,,36,216,,,,,,,,,,,,,,,,bars/031.png,bars/mask005.png,,,,,,,,,,,,7,2,,,,,,,2,6,3,7,,,,,,,,,,,1542.2149,1542.7125,1542.9612,1547.136,space,4.1707,,1547.136,84,1,1548.1372,1548.1372,1548.1423,,,,0,9,9,9,1,120,35,,,,,,,,
,,6511fd9e06231927b6398700,001,2023-12-14_20h55.16.655,bars,2023.2.3,Win32,166.6666667,,,,,,1548.1424,1549.1383,,,1549.6359,1549.8846,,18,18,,,,,,,,,,,,,,,,bars/036.png,bars/mask009.png,,,,,,,,,,,,7,2,,,,,,,4,8,4,8,,,,,,,,,,,1549.1383,1549.6358,1549.8847,1552.4514,space,2.5646,,1552.4515,53,2,1553.4525,1553.4525,1553.4576,,,,0,10,10,10,1,145,20,,,,,,,,
,,6511fd9e06231927b6398700,001,2023-12-14_20h55.16.655,bars,2023.2.3,Win32,166.6666667,,,,,,1553.4576,1554.4537,,,1554.9514,1555.2002,,37,37,,,,,,,,,,,,,,,,bars/034.png,bars/mask007.png,,,,,,,,,,,,0,2,,,,,,,6,6,6,6,,,,,,,,,,,1554.4537,1554.9514,1555.2002,1559.4598,space,4.2551,,1559.4598,88,28,1560.4609,1560.461,1560.4662,,,,0,11,11,11,1,125,65,,,,,,,,
,,6511fd9e06231927b6398700,001,2023-12-14_20h55.16.655,bars,2023.2.3,Win32,166.6666667,,,,,,1560.4663,1561.4623,,,1561.9597,1562.2086,,43,43,,,,,,,,,,,,,,,,bars/031.png,bars/mask004.png,,,,,,,,,,,,2,2,,,,,,,4,4,3,3,,,,,,,,,,,1561.4623,1561.9597,1562.2086,1563.8953,space,1.6813,,1563.8954,77,8,1564.8965,1564.8965,1564.9015,,,,0,12,12,12,1,120,35,,,,,,,,
,,6511fd9e06231927b6398700,001,2023-12-14_20h55.16.655,bars,2023.2.3,Win32,166.6666667,,,,,,1564.9017,1565.8978,,,1566.3952,1566.6441,,43,43,,,,,,,,,,,,,,,,bars/034.png,bars/mask002.png,,,,,,,,,,,,2,2,,,,,,,2,6,1,6,,,,,,,,,,,1565.8978,1566.3952,1566.6441,1569.3018,space,2.6527,,1569.3019,82,22,1570.3031,1570.3031,1570.3084,,,,0,13,13,13,1,125,65,,,,,,,,
,,6511fd9e06231927b6398700,001,2023-12-14_20h55.16.655,bars,2023.2.3,Win32,166.6666667,,,,,,1570.3085,1571.3043,,,1571.8018,1572.0506,,10,10,,,,,,,,,,,,,,,,bars/032.png,bars/mask002.png,,,,,,,,,,,,5,2,,,,,,,0,8,0,8,,,,,,,,,,,1571.3043,1571.8017,1572.0506,1575.6792,space,3.6214,,1575.6792,65,10,1576.6802,1576.6802,1576.6853,,,,0,14,14,14,1,125,20,,,,,,,,
,,6511fd9e06231927b6398700,001,2023-12-14_20h55.16.655,bars,2023.2.3,Win32,166.6666667,,,,,,1576.6854,1577.6815,,,1578.1791,1578.4279,,140,140,,,,,,,,,,,,,,,,bars/020.png,bars/mask008.png,,,,,,,,,,,,0,1,,,,,,,0,6,0,6,,,,,,,,,,,1577.6815,1578.1791,1578.4279,1580.7098,space,2.2796,,1580.7098,25,30,1581.7106,1581.7106,1581.7115,,,,0,15,15,15,1,115,170,,,,,,,,
,,6511fd9e06231927b6398700,001,2023-12-14_20h55.16.655,bars,2023.2.3,Win32,166.6666667,,,,,,1581.7117,1582.7118,,,1583.2094,1583.4581,,58,58,,,,,,,,,,,,,,,,bars/010.png,bars/mask007.png,,,,,,,,,,,,8,2,,,,,,,2,8,3,9,,,,,,,,,,,1582.7118,1583.2094,1583.4581,1585.2302,space,1.7674,,1585.2302,73,3,1586.2311,1586.2312,1586.2366,,,,0,16,16,16,1,165,55,,,,,,,,
,,6511fd9e06231927b6398700,001,2023-12-14_20h55.16.655,bars,2023.2.3,Win32,166.6666667,,,,,,1586.2367,1587.2324,,,1587.7299,1587.9786,,51,51,,,,,,,,,,,,,,,,bars/034.png,bars/mask007.png,,,,,,,,,,,,5,2,,,,,,,0,10,1,10,,,,,,,,,,,1587.2324,1587.7299,1587.9786,1590.8307,space,2.8465,,1590.8307,74,14,1591.8318,1591.8318,1591.8369,,,,0,17,17,17,1,125,65,,,,,,,,
,,6511fd9e06231927b6398700,001,2023-12-14_20h55.16.655,bars,2023.2.3,Win32,166.6666667,,,,,,1591.837,1592.833,,,1593.3306,1593.5793,,134,134,,,,,,,,,,,,,,,,bars/018.png,bars/mask006.png,,,,,,,,,,,,0,1,,,,,,,2,8,1,7,,,,,,,,,,,1592.833,1593.3305,1593.5793,1595.3269,space,1.7419,,1595.3269,16,44,1596.3281,1596.3281,1596.3337,,,,0,18,18,18,1,150,90,,,,,,,,
,,6511fd9e06231927b6398700,001,2023-12-14_20h55.16.655,bars,2023.2.3,Win32,166.6666667,,,,,,1596.3339,1597.3353,,,1597.833,1598.0816,,140,140,,,,,,,,,,,,,,,,bars/003.png,bars/mask004.png,,,,,,,,,,,,5,2,,,,,,,0,6,0,5,,,,,,,,,,,1597.3353,1597.833,1598.0816,1599.981,space,1.8939,,1599.981,65,0,1600.9821,1600.9822,1600.9876,,,,0,19,19,19,1,25,140,,,,,,,,
,,6511fd9e06231927b6398700,001,2023-12-14_20h55.16.655,bars,2023.2.3,Win32,166.6666667,,,,,,1600.9878,1601.9834,,,1602.4809,1602.7298,,146,146,,,,,,,,,,,,,,,,bars/016.png,bars/mask006.png,,,,,,,,,,,,3,2,,,,,,,2,8,2,8,,,,,,,,,,,1601.9835,1602.4809,1602.7298,1604.2223,space,1.488,,1604.2223,74,19,1605.2236,1605.2236,1605.224,,,,0,20,20,20,1,40,165,,,,,,,,
,,6511fd9e06231927b6398700,001,2023-12-14_20h55.16.655,bars,2023.2.3,Win32,166.6666667,,,,,,1605.224,1606.225,,,1606.7224,1606.9711,,37,217,,,,,,,,,,,,,,,,bars/022.png,bars/mask001.png,,,,,,,,,,,,4,2,,,,,,,4,10,5,10,,,,,,,,,,,1606.225,1606.7223,1606.9711,1609.9564,space,2.9819,,1609.9565,58,17,1610.9576,1610.9577,1610.9625,,,,0,21,21,21,1,95,20,,,,,,,,
,,6511fd9e06231927b6398700,001,2023-12-14_20h55.16.655,bars,2023.2.3,Win32,166.6666667,,,,,,1610.9627,1611.9589,,,1612.4564,1612.7052,,143,143,,,,,,,,,,,,,,,,bars/044.png,bars/mask002.png,,,,,,,,,,,,5,2,,,,,,,6,8,6,8,,,,,,,,,,,1611.9589,1612.4563,1612.7052,1615.3874,space,2.6798,,1615.3875,68,12,1616.3885,1616.3885,1616.3936,,,,0,22,22,22,1,75,155,,,,,,,,
,,6511fd9e06231927b6398700,001,2023-12-14_20h55.16.655,bars,2023.2.3,Win32,166.6666667,,,,,,1616.3937,1617.3896,,,1617.8871,1618.1361,,123,123,,,,,,,,,,,,,,,,bars/001.png,bars/mask002.png,,,,,,,,,,,,5,1,,,,,,,8,10,7,10,,,,,,,,,,,1617.3896,1617.8871,1618.1361,1622.1954,space,4.0557,,1622.1954,7,38,1623.1965,1623.1965,1623.202,,,,0,23,23,23,1,130,85,,,,,,,,
,,6511fd9e06231927b6398700,001,2023-12-14_20h55.16.655,bars,2023.2.3,Win32,166.6666667,,,,,,1623.202,1624.1976,,,1624.6953,1624.9442,,122,122,,,,,,,,,,,,,,,,bars/041.png,bars/mask004.png,,,,,,,,,,,,0,2,,,,,,,10,10,10,9,,,,,,,,,,,1624.1977,1624.6952,1624.9442,1628.1964,space,3.2488,,1628.1965,78,37,1629.1976,1629.1977,1629.2032,,,,0,24,24,24,1,20,85,,,,,,,,
,,6511fd9e06231927b6398700,001,2023-12-14_20h55.16.655,bars,2023.2.3,Win32,166.6666667,,,,,,1629.2034,1630.2048,,,1630.7025,1630.9514,,167,167,,,,,,,,,,,,,,,,bars/048.png,bars/mask006.png,,,,,,,,,,,,7,2,,,,,,,10,10,9,9,,,,,,,,,,,1630.2048,1630.7025,1630.9514,1633.4694,space,2.5134,,1633.4694,63,8,1634.4705,1634.4705,1634.4756,,,,0,25,25,25,1,50,175,,,,,,,,
,,6511fd9e06231927b6398700,001,2023-12-14_20h55.16.655,bars,2023.2.3,Win32,166.6666667,,,,,,1634.4757,1635.4718,,,1635.9695,1636.2181,,128,128,,,,,,,,,,,,,,,,bars/037.png,bars/mask004.png,,,,,,,,,,,,2,1,,,,,,,8,10,8,10,,,,,,,,,,,1635.4718,1635.9695,1636.2182,1637.814,space,1.5893,,1637.814,22,23,1638.8151,1638.8151,1638.8206,,,,0,26,26,26,1,150,105,,,,,,,,
,,6511fd9e06231927b6398700,001,2023-12-14_20h55.16.655,bars,2023.2.3,Win32,166.6666667,,,,,,1638.8207,1639.8164,,,1640.314,1640.5627,,126,126,,,,,,,,,,,,,,,,bars/037.png,bars/mask002.png,,,,,,,,,,,,2,2,,,,,,,6,8,7,8,,,,,,,,,,,1639.8164,1640.314,1640.5628,1643.967,space,3.3993,,1643.967,24,21,1644.9679,1644.9679,1644.9734,,,,0,27,27,27,1,150,105,,,,,,,,
,,6511fd9e06231927b6398700,001,2023-12-14_20h55.16.655,bars,2023.2.3,Win32,166.6666667,,,,,,1644.9735,1645.9691,,,1646.4669,1646.7156,,33,213,,,,,,,,,,,,,,,,bars/025.png,bars/mask004.png,,,,,,,,,,,,5,2,,,,,,,4,6,4,6,,,,,,,,,,,1645.9691,1646.4669,1646.7156,1650.2168,space,3.497,,1650.2169,72,7,1651.218,1651.218,1651.223,,,,0,28,28,28,1,105,40,,,,,,,,
,,6511fd9e06231927b6398700,001,2023-12-14_20h55.16.655,bars,2023.2.3,Win32,166.6666667,,,,,,1651.2231,1652.2192,,,1652.7167,1652.9656,,130,-50,,,,,,,,,,,,,,,,bars/039.png,bars/mask004.png,,,,,,,,,,,,1,2,,,,,,,6,4,6,4,,,,,,,,,,,1652.2192,1652.7167,1652.9656,1656.2968,space,3.3253,,1656.2969,45,25,1657.2979,1657.2979,1657.303,,,,0,29,29,29,1,175,105,,,,,,,,
,,6511fd9e06231927b6398700,001,2023-12-14_20h55.16.655,bars,2023.2.3,Win32,166.6666667,,,,,,1657.303,1658.2991,,,1658.7967,1659.0455,,149,149,,,,,,,,,,,,,,,,bars/035.png,bars/mask004.png,,,,,,,,,,,,1,1,,,,,,,8,6,10,7,,,,,,,,,,,1658.2991,1658.7967,1659.0455,1670.3803,space,11.333,,1670.3803,26,89,1671.3813,1671.3813,1671.3823,,,,0,30,30,30,1,175,60,,,,,,,,
,,6511fd9e06231927b6398700,001,2023-12-14_20h55.16.655,bars,2023.2.3,Win32,166.6666667,,,,,,1671.3824,1672.3825,,,1672.8801,1673.1288,,166,166,,,,,,,,,,,,,,,,bars/016.png,bars/mask006.png,,,,,,,,,,,,4,2,,,,,,,6,4,6,4,,,,,,,,,,,1672.3825,1672.8801,1673.1288,1676.4785,space,3.3381,,1676.4785,54,1,1677.4796,1677.4796,1677.485,,,,0,31,31,31,1,40,165,,,,,,,,
,,6511fd9e06231927b6398700,001,2023-12-14_20h55.16.655,bars,2023.2.3,Win32,166.6666667,,,,,,1677.4851,1678.4808,,,1678.9784,1679.2271,,137,-43,,,,,,,,,,,,,,,,bars/037.png,bars/mask008.png,,,,,,,,,,,,4,1,,,,,,,8,2,7,3,,,,,,,,,,,1678.4808,1678.9784,1679.2271,1682.8072,space,3.5689,,1682.8072,13,32,1683.8084,1683.8084,1683.814,,,,0,32,32,32,1,150,105,,,,,,,,
,,6511fd9e06231927b6398700,001,2023-12-14_20h55.16.655,bars,2023.2.3,Win32,166.6666667,,,,,,1683.8142,1684.8155,,,1685.3132,1685.5678,,148,-32,,,,,,,,,,,,,,,,bars/023.png,bars/mask003.png,,,,,,,,,,,,0,2,,,,,,,10,4,9,5,,,,,,,,,,,1684.8156,1685.3132,1685.5678,1688.6567,space,3.0796,,1688.6567,52,33,1689.6578,1689.6578,1689.6634,,,,0,33,33,33,1,20,115,,,,,,,,
,,6511fd9e06231927b6398700,001,2023-12-14_20h55.16.655,bars,2023.2.3,Win32,166.6666667,,,,,,1689.6636,1690.6651,,,1691.1627,1691.4113,,136,-44,,,,,,,,,,,,,,,,bars/009.png,bars/mask002.png,,,,,,,,,,,,0,2,,,,,,,10,6,10,7,,,,,,,,,,,1690.6651,1691.1627,1691.4113,1694.7609,space,3.3438,,1694.7609,59,31,1695.7621,1695.7621,1695.7669,,,,0,34,34,34,1,15,105,,,,,,,,
,,6511fd9e06231927b6398700,001,2023-12-14_20h55.16.655,bars,2023.2.3,Win32,166.6666667,,,,,,1695.767,1696.7633,,,1697.2608,1697.5096,,152,-28,,,,,,,,,,,,,,,,bars/003.png,bars/mask008.png,,,,,,,,,,,,5,2,,,,,,,8,8,9,9,,,,,,,,,,,1696.7634,1697.2608,1697.5096,1701.4233,space,3.9033,,1701.4233,53,12,1702.4246,1702.4246,1702.4297,,,,0,35,35,35,1,25,140,,,,,,,,
,,6511fd9e06231927b6398700,001,2023-12-14_20h55.16.655,bars,2023.2.3,Win32,166.6666667,,,,,,1702.4299,1703.4257,,,1703.9248,1704.172,,128,-52,,,,,,,,,,,,,,,,bars/006.png,bars/mask006.png,,,,,,,,,,,,0,2,,,,,,,10,6,10,6,,,,,,,,,,,1703.4257,1703.9248,1704.1721,1707.7643,space,3.5829,,1707.7643,87,28,1708.7655,1708.7656,1708.7706,,,,0,36,36,36,1,35,100,,,,,,,,
,,6511fd9e06231927b6398700,001,2023-12-14_20h55.16.655,bars,2023.2.3,Win32,166.6666667,,,,,,1708.7707,1709.7699,,,1710.2703,1710.5158,,151,151,,,,,,,,,,,,,,,,bars/039.png,bars/mask003.png,,,,,,,,,,,,2,1,,,,,,,10,8,10,8,,,,,,,,,,,1709.7699,1710.2703,1710.5158,1716.2921,space,5.7747,,1716.2921,24,46,1717.2908,1717.2908,1717.2965,,,,0,37,37,37,1,175,105,,,,,,,,
,,6511fd9e06231927b6398700,001,2023-12-14_20h55.16.655,bars,2023.2.3,Win32,166.6666667,,,,,,1717.2965,1718.2944,,,1718.7956,1719.0414,,154,154,,,,,,,,,,,,,,,,bars/003.png,bars/mask006.png,,,,,,,,,,,,5,2,,,,,,,8,10,8,10,,,,,,,,,,,1718.2944,1718.7956,1719.0414,1721.1561,space,2.1123,,1721.1561,51,14,1722.1572,1722.1572,1722.1632,,,,0,38,38,38,1,25,140,,,,,,,,
,,6511fd9e06231927b6398700,001,2023-12-14_20h55.16.655,bars,2023.2.3,Win32,166.6666667,,,,,,1722.1632,1723.1644,,,1723.662,1723.9107,,144,-36,,,,,,,,,,,,,,,,bars/021.png,bars/mask000.png,,,,,,,,,,,,6,1,,,,,,,10,8,10,9,,,,,,,,,,,1723.1644,1723.662,1723.9107,1726.717,space,2.7971,,1726.7171,11,74,1727.7154,1727.7155,1727.7209,,,,0,39,39,39,1,155,70,,,,,,,,
,,6511fd9e06231927b6398700,001,2023-12-14_20h55.16.655,bars,2023.2.3,Win32,166.6666667,,,,,,1727.7211,1728.7166,,,1729.2142,1729.4629,,68,68,,,,,,,,,,,,,,,,bars/011.png,bars/mask003.png,,,,,,,,,,,,3,2,,,,,,,10,6,9,6,,,,,,,,,,,1728.7167,1729.2142,1729.4629,1731.702,space,2.2282,,1731.702,88,17,1732.6984,1732.6985,1732.7042,,,,0,40,40,40,1,160,85,,,,,,,,
,,6511fd9e06231927b6398700,001,2023-12-14_20h55.16.655,bars,2023.2.3,Win32,166.6666667,,,,,,1732.7043,1733.7043,,,1734.2044,1734.4508,,157,-23,,,,,,,,,,,,,,,,bars/049.png,bars/mask009.png,,,,,,,,,,,,9,1,,,,,,,10,8,10,7,,,,,,,,,,,1733.7043,1734.2044,1734.4508,1736.9536,space,2.4946,,1736.9537,3,42,1737.952,1737.952,1737.9528,,,,0,41,41,41,1,160,115,,,,,,,,
,,6511fd9e06231927b6398700,001,2023-12-14_20h55.16.655,bars,2023.2.3,Win32,166.6666667,,,,,,1737.9529,1738.953,,,1739.4506,1739.6994,,135,135,,,,,,,,,,,,,,,,bars/037.png,bars/mask009.png,,,,,,,,,,,,4,1,,,,,,,8,10,8,10,,,,,,,,,,,1738.953,1739.4506,1739.6994,1743.1642,space,3.4619,,1743.1642,15,30,1744.1653,1744.1653,1744.1704,,,,0,42,42,42,1,150,105,,,,,,,,
,,6511fd9e06231927b6398700,001,2023-12-14_20h55.16.655,bars,2023.2.3,Win32,166.6666667,,,,,,1744.1704,1745.1666,,,1745.6641,1745.9128,,46,46,,,,,,,,,,,,,,,,bars/013.png,bars/mask002.png,,,,,,,,,,,,0,1,,,,,,,6,8,5,8,,,,,,,,,,,1745.1666,1745.6641,1745.9128,1749.3413,space,3.418,,1749.3413,29,36,1750.3424,1750.3424,1750.3474,,,,0,43,43,43,1,75,10,,,,,,,,
,,6511fd9e06231927b6398700,001,2023-12-14_20h55.16.655,bars,2023.2.3,Win32,166.6666667,,,,,,1750.3475,1751.3436,,,1751.8412,1752.09,,30,30,,,,,,,,,,,,,,,,bars/032.png,bars/mask003.png,,,,,,,,,,,,7,2,,,,,,,4,10,3,10,,,,,,,,,,,1751.3436,1751.8412,1752.09,1756.2404,space,4.1386,,1756.2405,85,10,1757.2415,1757.2415,1757.2471,,,,0,44,44,44,1,125,20,,,,,,,,
,,6511fd9e06231927b6398700,001,2023-12-14_20h55.16.655,bars,2023.2.3,Win32,166.6666667,,,,,,1757.2473,1758.2489,,,1758.7464,1758.9976,,146,-34,,,,,,,,,,,,,,,,bars/043.png,bars/mask001.png,,,,,,,,,,,,4,2,,,,,,,6,8,7,8,,,,,,,,,,,1758.2489,1758.7464,1758.9976,1762.8484,space,3.8452,,1762.8484,64,16,1763.8496,1763.8496,1763.8547,,,,0,45,45,45,1,30,130,,,,,,,,
,,6511fd9e06231927b6398700,001,2023-12-14_20h55.16.655,bars,2023.2.3,Win32,166.6666667,,,,,,1763.8548,1764.8506,,,1765.3482,1765.5971,,143,143,,,,,,,,,,,,,,,,bars/008.png,bars/mask002.png,,,,,,,,,,,,0,1,,,,,,,4,6,4,5,,,,,,,,,,,1764.8507,1765.3482,1765.5971,1785.3964,space,19.7974,,1785.3964,33,37,1786.3977,1786.3977,1786.3986,,,,0,46,46,46,1,110,0,,,,,,,,
,,6511fd9e06231927b6398700,001,2023-12-14_20h55.16.655,bars,2023.2.3,Win32,166.6666667,,,,,,1786.3988,1787.3987,,,1787.8989,1788.1451,,38,38,,,,,,,,,,,,,,,,bars/036.png,bars/mask008.png,,,,,,,,,,,,2,2,,,,,,,2,4,3,4,,,,,,,,,,,1787.3988,1787.8989,1788.1451,1790.7241,space,2.5707,,1790.7241,73,18,1791.7251,1791.7252,1791.7307,,,,0,47,47,47,1,145,20,,,,,,,,
,,6511fd9e06231927b6398700,001,2023-12-14_20h55.16.655,bars,2023.2.3,Win32,166.6666667,,,,,,1791.7308,1792.7264,,,1793.224,1793.4727,,53,53,,,,,,,,,,,,,,,,bars/029.png,bars/mask003.png,,,,,,,,,,,,1,2,,,,,,,0,2,0,1,,,,,,,,,,,1792.7264,1793.224,1793.4728,1795.1235,space,1.6422,,1795.1235,37,8,1796.1245,1796.1246,1796.1294,,,,0,48,48,48,1,90,45,,,,,,,,
,,6511fd9e06231927b6398700,001,2023-12-14_20h55.16.655,bars,2023.2.3,Win32,166.6666667,,,,,,1796.1296,1797.1256,,,1797.6232,1797.872,,151,-29,,,,,,,,,,,,,,,,bars/016.png,bars/mask006.png,,,,,,,,,,,,3,2,,,,,,,0,4,0,5,,,,,,,,,,,1797.1256,1797.6232,1797.872,1801.7252,space,3.8437,,1801.7252,69,14,1802.7263,1802.7263,1802.7313,,,,0,49,49,49,1,40,165,,,,,,,,
,,6511fd9e06231927b6398700,001,2023-12-14_20h55.16.655,bars,2023.2.3,Win32,166.6666667,,,,,,,,,,,,,,,,,,,,,,,,,,,,,,,,,,,,,,,,,,,,,,,,,,,,,,,,,,,,,,,,,,,,,,,,,,,,,,,,,,,,,,,,1802.7313,1863.9582,0,2,2,1,1,sequence_tables/blk047.csv
,,6511fd9e06231927b6398700,001,2023-12-14_20h55.16.655,bars,2023.2.3,Win32,166.6666667,,,,,,1922.5448,1923.5456,,,1924.0471,1924.2959,,154,154,,,,,,,,,,,,,,,,bars/021.png,bars/mask007.png,,,,,,,,,,,,6,1,,,,,,,6,1,6,0,,,,,,1863.9584,1922.5423,space,58.563,,1923.5456,1924.0471,1924.296,1926.104,space,1.8014,,1926.1041,1,84,1927.1018,1927.1018,1927.1026,,,,0,0,0,0,1,155,70,,,,,,,,
,,6511fd9e06231927b6398700,001,2023-12-14_20h55.16.655,bars,2023.2.3,Win32,166.6666667,,,,,,1927.1028,1928.0985,,,1928.5979,1928.8467,,38,218,,,,,,,,,,,,,,,,bars/010.png,bars/mask006.png,,,,,,,,,,,,1,2,,,,,,,8,3,8,3,,,,,,,,,,,1928.0985,1928.5979,1928.8467,1932.5908,space,3.7325,,1932.5908,53,17,1933.5918,1933.5918,1933.5973,,,,0,1,1,1,1,165,55,,,,,,,,
,,6511fd9e06231927b6398700,001,2023-12-14_20h55.16.655,bars,2023.2.3,Win32,166.6666667,,,,,,1933.5975,1934.593,,,1935.0906,1935.3394,,152,152,,,,,,,,,,,,,,,,bars/018.png,bars/mask005.png,,,,,,,,,,,,9,1,,,,,,,10,5,10,6,,,,,,,,,,,1934.593,1935.0905,1935.3394,1936.9776,space,1.6263,,1936.9776,2,62,1937.979,1937.979,1937.985,,,,0,2,2,2,1,150,90,,,,,,,,
,,6511fd9e06231927b6398700,001,2023-12-14_20h55.16.655,bars,2023.2.3,Win32,166.6666667,,,,,,1937.9852,1938.9861,,,1939.4839,1939.7325,,116,116,,,,,,,,,,,,,,,,bars/006.png,bars/mask006.png,,,,,,,,,,,,1,2,,,,,,,10,3,9,2,,,,,,,,,,,1938.9861,1939.4839,1939.7325,1943.5006,space,3.765,,1943.5006,81,16,1944.5019,1944.5019,1944.5073,,,,0,3,3,3,1,35,100,,,,,,,,
,,6511fd9e06231927b6398700,001,2023-12-14_20h55.16.655,bars,2023.2.3,Win32,166.6666667,,,,,,1944.5074,1945.503,,,1946.0006,1946.2495,,49,49,,,,,,,,,,,,,,,,bars/029.png,bars/mask002.png,,,,,,,,,,,,1,2,,,,,,,8,1,7,1,,,,,,,,,,,1945.503,1946.0006,1946.2496,1947.6814,space,1.426,,1947.6815,41,4,1948.6826,1948.6826,1948.683,,,,0,4,4,4,1,90,45,,,,,,,,
,,6511fd9e06231927b6398700,001,2023-12-14_20h55.16.655,bars,2023.2.3,Win32,166.6666667,,,,,,1948.6831,1949.6838,,,1950.1815,1950.4302,,164,-16,,,,,,,,,,,,,,,,bars/024.png,bars/mask006.png,,,,,,,,,,,,0,2,,,,,,,6,0,6,0,,,,,,,,,,,1949.6839,1950.1814,1950.4302,1952.9246,space,2.4917,,1952.9246,44,6,1953.9254,1953.9254,1953.9305,,,,0,5,5,5,1,120,170,,,,,,,,
,,6511fd9e06231927b6398700,001,2023-12-14_20h55.16.655,bars,2023.2.3,Win32,166.6666667,,,,,,1953.9307,1954.9264,,,1955.424,1955.6728,,29,209,,,,,,,,,,,,,,,,bars/009.png,bars/mask007.png,,,,,,,,,,,,4,1,,,,,,,8,0,7,1,,,,,,,,,,,1954.9264,1955.424,1955.6728,1958.0697,space,2.3929,,1958.0697,14,76,1959.0707,1959.0707,1959.0762,,,,0,6,6,6,1,15,105,,,,,,,,
,,6511fd9e06231927b6398700,001,2023-12-14_20h55.16.655,bars,2023.2.3,Win32,166.6666667,,,,,,1959.0763,1960.072,,,1960.5695,1960.8183,,152,152,,,,,,,,,,,,,,,,bars/021.png,bars/mask000.png,,,,,,,,,,,,9,1,,,,,,,10,2,10,3,,,,,,,,,,,1960.072,1960.5695,1960.8183,1962.7236,space,1.9032,,1962.7237,3,82,1963.7249,1963.725,1963.7303,,,,0,7,7,7,1,155,70,,,,,,,,
,,6511fd9e06231927b6398700,001,2023-12-14_20h55.16.655,bars,2023.2.3,Win32,166.6666667,,,,,,1963.7304,1964.7321,,,1965.2297,1965.4786,,153,-27,,,,,,,,,,,,,,,,bars/049.png,bars/mask000.png,,,,,,,,,,,,7,1,,,,,,,8,0,9,0,,,,,,,,,,,1964.7321,1965.2297,1965.4786,1968.7854,space,3.3009,,1968.7855,7,38,1969.7866,1969.7866,1969.787,,,,0,8,8,8,1,160,115,,,,,,,,
,,6511fd9e06231927b6398700,001,2023-12-14_20h55.16.655,bars,2023.2.3,Win32,166.6666667,,,,,,1969.787,1970.5212,,,1971.0184,1971.2672,,160,-20,,,,,,,,,,,,,,,,bars/020.png,bars/mask004.png,,,,,,,,,,,,0,2,,,,,,,6,0,8,0,,,,,,,,,,,1970.5212,1971.0184,1971.2672,1978.852,space,7.5837,,1978.852,45,10,1979.8531,1979.8532,1979.8587,,,,0,9,9,9,1,115,170,,,,,,,,
,,6511fd9e06231927b6398700,001,2023-12-14_20h55.16.655,bars,2023.2.3,Win32,166.6666667,,,,,,1979.8589,1980.8544,,,1981.352,1981.6008,,162,162,,,,,,,,,,,,,,,,bars/035.png,bars/mask006.png,,,,,,,,,,,,2,1,,,,,,,4,2,3,0,,,,,,,,,,,1980.8544,1981.352,1981.6008,1984.5013,space,2.8919,,1984.5013,13,78,1985.5022,1985.5023,1985.5076,,,,0,10,10,10,1,175,60,,,,,,,,
,,6511fd9e06231927b6398700,001,2023-12-14_20h55.16.655,bars,2023.2.3,Win32,166.6666667,,,,,,1985.5077,1986.5035,,,1987.001,1987.2498,,157,-23,,,,,,,,,,,,,,,,bars/014.png,bars/mask003.png,,,,,,,,,,,,0,2,,,,,,,2,0,2,1,,,,,,,,,,,1986.5036,1987.001,1987.2499,1989.9771,space,2.719,,1989.9772,77,23,1990.9755,1990.9755,1990.981,,,,0,11,11,11,1,80,0,,,,,,,,
,,6511fd9e06231927b6398700,001,2023-12-14_20h55.16.655,bars,2023.2.3,Win32,166.6666667,,,,,,1990.9812,1991.9769,,,1992.4744,1992.7232,,148,148,,,,,,,,,,,,,,,,bars/015.png,bars/mask001.png,,,,,,,,,,,,1,2,,,,,,,4,2,6,2,,,,,,,,,,,1991.977,1992.4744,1992.7232,1996.3849,space,3.6532,,1996.3849,38,12,1997.3832,1997.3833,1997.3883,,,,0,12,12,12,1,110,160,,,,,,,,
,,6511fd9e06231927b6398700,001,2023-12-14_20h55.16.655,bars,2023.2.3,Win32,166.6666667,,,,,,1997.3883,1998.3845,,,1998.8819,1999.1307,,129,129,,,,,,,,,,,,,,,,bars/037.png,bars/mask002.png,,,,,,,,,,,,1,1,,,,,,,2,0,2,2,,,,,,,,,,,1998.3845,1998.8819,1999.1308,2002.8444,space,3.7113,,2002.8444,21,24,2003.8454,2003.8455,2003.851,,,,0,13,13,13,1,150,105,,,,,,,,
,,6511fd9e06231927b6398700,001,2023-12-14_20h55.16.655,bars,2023.2.3,Win32,166.6666667,,,,,,2003.8511,2004.8527,,,2005.3503,2005.5991,,59,59,,,,,,,,,,,,,,,,bars/030.png,bars/mask006.png,,,,,,,,,,,,0,2,,,,,,,4,0,6,0,,,,,,,,,,,2004.8527,2005.3503,2005.5991,2009.5189,space,3.9086,,2009.519,81,6,2010.5202,2010.5202,2010.5261,,,,0,14,14,14,1,140,65,,,,,,,,
,,6511fd9e06231927b6398700,001,2023-12-14_20h55.16.655,bars,2023.2.3,Win32,166.6666667,,,,,,2010.5262,2011.5274,,,2012.0275,2012.2737,,172,172,,,,,,,,,,,,,,,,bars/048.png,bars/mask009.png,,,,,,,,,,,,3,2,,,,,,,6,2,6,3,,,,,,,,,,,2011.5274,2012.0275,2012.2737,2015.6475,space,3.3686,,2015.6475,58,3,2016.6487,2016.6487,2016.6539,,,,0,15,15,15,1,50,175,,,,,,,,
,,6511fd9e06231927b6398700,001,2023-12-14_20h55.16.655,bars,2023.2.3,Win32,166.6666667,,,,,,2016.6539,2017.6499,,,2018.1474,2018.3961,,44,44,,,,,,,,,,,,,,,,bars/007.png,bars/mask006.png,,,,,,,,,,,,1,2,,,,,,,8,4,9,2,,,,,,,,,,,2017.6499,2018.1474,2018.3962,2022.2797,space,3.8705,,2022.2797,49,11,2023.2811,2023.2811,2023.2861,,,,0,16,16,16,1,175,55,,,,,,,,
,,6511fd9e06231927b6398700,001,2023-12-14_20h55.16.655,bars,2023.2.3,Win32,166.6666667,,,,,,2023.2863,2024.2821,,,2024.7797,2025.0284,,126,126,,,,,,,,,,,,,,,,bars/009.png,bars/mask004.png,,,,,,,,,,,,0,2,,,,,,,6,2,5,1,,,,,,,,,,,2024.2821,2024.7796,2025.0285,2027.316,space,2.2857,,2027.316,69,21,2028.3171,2028.3171,2028.3221,,,,0,17,17,17,1,15,105,,,,,,,,
,,6511fd9e06231927b6398700,001,2023-12-14_20h55.16.655,bars,2023.2.3,Win32,166.6666667,,,,,,2028.3223,2029.3184,,,2029.816,2030.0647,,47,47,,,,,,,,,,,,,,,,bars/007.png,bars/mask004.png,,,,,,,,,,,,0,2,,,,,,,4,0,4,0,,,,,,,,,,,2029.3184,2029.816,2030.0647,2033.247,space,3.1805,,2033.247,52,8,2034.2455,2034.2455,2034.2506,,,,0,18,18,18,1,175,55,,,,,,,,
,,6511fd9e06231927b6398700,001,2023-12-14_20h55.16.655,bars,2023.2.3,Win32,166.6666667,,,,,,2034.2507,2035.2467,,,2035.7442,2035.9929,,55,55,,,,,,,,,,,,,,,,bars/026.png,bars/mask005.png,,,,,,,,,,,,2,1,,,,,,,6,2,6,2,,,,,,,,,,,2035.2467,2035.7442,2035.9929,2038.5327,space,2.5309,,2038.5327,20,30,2039.5307,2039.5307,2039.5369,,,,0,19,19,19,1,35,85,,,,,,,,
,,6511fd9e06231927b6398700,001,2023-12-14_20h55.16.655,bars,2023.2.3,Win32,166.6666667,,,,,,2039.537,2040.5349,,,2041.0354,2041.2842,,99,99,,,,,,,,,,,,,,,,bars/018.png,bars/mask007.png,,,,,,,,,,,,4,2,,,,,,,8,4,7,6,,,,,,,,,,,2040.5349,2041.0354,2041.2842,2043.863,space,2.5668,,2043.863,51,9,2044.8643,2044.8644,2044.8705,,,,0,20,20,20,1,150,90,,,,,,,,
,,6511fd9e06231927b6398700,001,2023-12-14_20h55.16.655,bars,2023.2.3,Win32,166.6666667,,,,,,2044.8707,2045.8715,,,2046.369,2046.6179,,106,106,,,,,,,,,,,,,,,,bars/018.png,bars/mask003.png,,,,,,,,,,,,4,2,,,,,,,10,6,9,8,,,,,,,,,,,2045.8716,2046.369,2046.6179,2049.4152,space,2.7853,,2049.4152,44,16,2050.4164,2050.4164,2050.4213,,,,0,21,21,21,1,150,90,,,,,,,,
,,6511fd9e06231927b6398700,001,2023-12-14_20h55.16.655,bars,2023.2.3,Win32,166.6666667,,,,,,2050.4215,2051.4177,,,2051.9151,2052.1639,,68,68,,,,,,,,,,,,,,,,bars/041.png,bars/mask006.png,,,,,,,,,,,,2,2,,,,,,,8,4,8,4,,,,,,,,,,,2051.4177,2051.9151,2052.1639,2054.5001,space,2.3341,,2054.5001,48,17,2055.5013,2055.5013,2055.5062,,,,0,22,22,22,1,20,85,,,,,,,,
,,6511fd9e06231927b6398700,001,2023-12-14_20h55.16.655,bars,2023.2.3,Win32,166.6666667,,,,,,2055.5062,2056.5024,,,2057,2057.2488,,159,-21,,,,,,,,,,,,,,,,bars/016.png,bars/mask006.png,,,,,,,,,,,,1,2,,,,,,,10,2,10,1,,,,,,,,,,,2056.5024,2057,2057.2488,2059.5849,space,2.3317,,2059.5849,61,6,2060.586,2060.5861,2060.591,,,,0,23,23,23,1,40,165,,,,,,,,
,,6511fd9e06231927b6398700,001,2023-12-14_20h55.16.655,bars,2023.2.3,Win32,166.6666667,,,,,,2060.5912,2061.5873,,,2062.0848,2062.3336,,102,102,,,,,,,,,,,,,,,,bars/011.png,bars/mask002.png,,,,,,,,,,,,2,2,,,,,,,10,4,10,4,,,,,,,,,,,2061.5873,2062.0848,2062.3337,2064.0387,space,1.7003,,2064.0387,58,17,2065.0348,2065.0348,2065.0352,,,,0,24,24,24,1,160,85,,,,,,,,
,,6511fd9e06231927b6398700,001,2023-12-14_20h55.16.655,bars,2023.2.3,Win32,166.6666667,,,,,,2065.0353,2066.035,,,2066.5325,2066.7814,,54,54,,,,,,,,,,,,,,,,bars/007.png,bars/mask009.png,,,,,,,,,,,,5,2,,,,,,,10,6,9,5,,,,,,,,,,,2066.035,2066.5325,2066.7814,2068.9901,space,2.2045,,2068.9902,59,1,2069.9913,2069.9913,2069.9965,,,,0,25,25,25,1,175,55,,,,,,,,
,,6511fd9e06231927b6398700,001,2023-12-14_20h55.16.655,bars,2023.2.3,Win32,166.6666667,,,,,,2069.9967,2070.9924,,,2071.49,2071.7389,,112,112,,,,,,,,,,,,,,,,bars/002.png,bars/mask008.png,,,,,,,,,,,,4,1,,,,,,,10,8,10,9,,,,,,,,,,,2070.9924,2071.49,2071.7389,2075.4219,space,3.6791,,2075.4219,18,27,2076.4232,2076.4232,2076.429,,,,0,26,26,26,1,130,85,,,,,,,,
,,6511fd9e06231927b6398700,001,2023-12-14_20h55.16.655,bars,2023.2.3,Win32,166.6666667,,,,,,2076.4292,2077.4305,,,2077.9281,2078.1768,,167,167,,,,,,,,,,,,,,,,bars/008.png,bars/mask002.png,,,,,,,,,,,,6,2,,,,,,,10,10,10,10,,,,,,,,,,,2077.4305,2077.928,2078.1768,2081.6294,space,3.4489,,2081.6294,57,13,2082.6305,2082.6306,2082.6361,,,,0,27,27,27,1,110,0,,,,,,,,
,,6511fd9e06231927b6398700,001,2023-12-14_20h55.16.655,bars,2023.2.3,Win32,166.6666667,,,,,,2082.6363,2083.6378,,,2084.1355,2084.3842,,172,172,,,,,,,,,,,,,,,,bars/024.png,bars/mask000.png,,,,,,,,,,,,8,2,,,,,,,8,10,8,9,,,,,,,,,,,2083.6379,2084.1355,2084.3842,2088.5832,space,4.1935,,2088.5834,52,2,2089.5844,2089.5844,2089.5894,,,,0,28,28,28,1,120,170,,,,,,,,
,,6511fd9e06231927b6398700,001,2023-12-14_20h55.16.655,bars,2023.2.3,Win32,166.6666667,,,,,,2089.5895,2090.5855,,,2091.0832,2091.3318,,38,38,,,,,,,,,,,,,,,,bars/033.png,bars/mask009.png,,,,,,,,,,,,3,1,,,,,,,6,8,5,8,,,,,,,,,,,2090.5855,2091.0831,2091.3318,2144.3166,space,52.9825,,2144.3167,13,63,2145.3177,2145.3177,2145.3188,,,,0,29,29,29,1,25,155,,,,,,,,
,,6511fd9e06231927b6398700,001,2023-12-14_20h55.16.655,bars,2023.2.3,Win32,166.6666667,,,,,,2145.3189,2146.3189,,,2146.8164,2147.0652,,157,157,,,,,,,,,,,,,,,,bars/004.png,bars/mask004.png,,,,,,,,,,,,0,2,,,,,,,4,10,5,10,,,,,,,,,,,2146.3189,2146.8164,2147.0652,2148.5789,space,1.5118,,2148.5789,48,32,2149.5773,2149.5773,2149.5782,,,,0,30,30,30,1,25,125,,,,,,,,
,,6511fd9e06231927b6398700,001,2023-12-14_20h55.16.655,bars,2023.2.3,Win32,166.6666667,,,,,,2149.5783,2150.5785,,,2151.0762,2151.3247,,165,-15,,,,,,,,,,,,,,,,bars/012.png,bars/mask004.png,,,,,,,,,,,,0,2,,,,,,,2,8,1,9,,,,,,,,,,,2150.5785,2151.0762,2151.3247,2153.297,space,1.9663,,2153.297,75,30,2154.2946,2154.2946,2154.2996,,,,0,31,31,31,1,90,15,,,,,,,,
,,6511fd9e06231927b6398700,001,2023-12-14_20h55.16.655,bars,2023.2.3,Win32,166.6666667,,,,,,2154.2997,2155.2992,,,2155.7969,2156.0457,,166,-14,,,,,,,,,,,,,,,,bars/033.png,bars/mask008.png,,,,,,,,,,,,4,2,,,,,,,0,10,0,7,,,,,,,,,,,2155.2992,2155.7969,2156.0457,2158.5642,space,2.5155,,2158.5642,39,11,2159.5651,2159.5651,2159.5654,,,,0,32,32,32,1,25,155,,,,,,,,
,,6511fd9e06231927b6398700,001,2023-12-14_20h55.16.655,bars,2023.2.3,Win32,166.6666667,,,,,,2159.5655,2160.5662,,,2161.064,2161.3127,,54,54,,,,,,,,,,,,,,,,bars/026.png,bars/mask003.png,,,,,,,,,,,,1,1,,,,,,,2,8,2,7,,,,,,,,,,,2160.5663,2161.064,2161.3127,2165.7139,space,4.399,,2165.7139,19,31,2166.7153,2166.7154,2166.7209,,,,0,33,33,33,1,35,85,,,,,,,,
,,6511fd9e06231927b6398700,001,2023-12-14_20h55.16.655,bars,2023.2.3,Win32,166.6666667,,,,,,2166.721,2167.7202,,,2168.2178,2168.4665,,108,108,,,,,,,,,,,,,,,,bars/009.png,bars/mask007.png,,,,,,,,,,,,9,2,,,,,,,0,10,1,10,,,,,,,,,,,2167.7202,2168.2178,2168.4665,2170.8634,space,2.3917,,2170.8634,87,3,2171.8645,2171.8645,2171.8699,,,,0,34,34,34,1,15,105,,,,,,,,
,,6511fd9e06231927b6398700,001,2023-12-14_20h55.16.655,bars,2023.2.3,Win32,166.6666667,,,,,,2171.8701,2172.8658,,,2173.3651,2173.6121,,161,161,,,,,,,,,,,,,,,,bars/005.png,bars/mask006.png,,,,,,,,,,,,3,2,,,,,,,2,10,1,10,,,,,,,,,,,2172.8659,2173.3651,2173.6121,2175.4688,space,1.8549,,2175.4689,29,21,2176.4701,2176.4701,2176.4752,,,,0,35,35,35,1,10,140,,,,,,,,
,,6511fd9e06231927b6398700,001,2023-12-14_20h55.16.655,bars,2023.2.3,Win32,166.6666667,,,,,,2176.4752,2177.4713,,,2177.9689,2178.2202,,52,52,,,,,,,,,,,,,,,,bars/013.png,bars/mask005.png,,,,,,,,,,,,1,1,,,,,,,4,10,4,9,,,,,,,,,,,2177.4713,2177.9689,2178.2202,2181.3425,space,3.1144,,2181.3426,23,42,2182.3437,2182.3438,2182.3491,,,,0,36,36,36,1,75,10,,,,,,,,
,,6511fd9e06231927b6398700,001,2023-12-14_20h55.16.655,bars,2023.2.3,Win32,166.6666667,,,,,,2182.3493,2183.3449,,,2186.7447,2186.7449,,46,46,,,,,,,,,,,,,,,,bars/028.png,bars/mask007.png,,,,,,,,,,,,6,1,,,,,,,6,10,6,9,,,,,,,,,,,2183.345,2186.7447,2186.7449,2188.9819,space,2.2281,,2188.9819,1,74,2189.9832,2189.9833,2189.9883,,,,0,37,37,37,1,45,120,,,,,,,,
,,6511fd9e06231927b6398700,001,2023-12-14_20h55.16.655,bars,2023.2.3,Win32,166.6666667,,,,,,2189.9885,2190.9843,,,2191.482,2191.7332,,153,153,,,,,,,,,,,,,,,,bars/024.png,bars/mask004.png,,,,,,,,,,,,3,2,,,,,,,8,10,9,8,,,,,,,,,,,2190.9843,2191.4819,2191.7332,2194.391,space,2.6564,,2194.391,33,17,2196.2855,2196.2855,2196.2861,,,,0,38,38,38,1,120,170,,,,,,,,
,,6511fd9e06231927b6398700,001,2023-12-14_20h55.16.655,bars,2023.2.3,Win32,166.6666667,,,,,,2196.2863,2197.283,,,2197.7806,2198.0305,,62,62,,,,,,,,,,,,,,,,bars/001.png,bars/mask006.png,,,,,,,,,,,,2,2,,,,,,,6,8,7,9,,,,,,,,,,,2197.283,2197.7806,2198.0305,2201.0873,space,3.0527,,2201.0873,68,23,2202.0886,2202.0886,2202.0938,,,,0,39,39,39,1,130,85,,,,,,,,
,,6511fd9e06231927b6398700,001,2023-12-14_20h55.16.655,bars,2023.2.3,Win32,166.6666667,,,,,,2202.094,2203.0899,,,2203.5872,2203.8362,,109,109,,,,,,,,,,,,,,,,bars/039.png,bars/mask009.png,,,,,,,,,,,,5,2,,,,,,,4,6,4,6,,,,,,,,,,,2203.0899,2203.5872,2203.8363,2207.4707,space,3.6309,,2207.4707,66,4,2209.2213,2209.2213,2209.2215,,,,0,40,40,40,1,175,105,,,,,,,,
,,6511fd9e06231927b6398700,001,2023-12-14_20h55.16.655,bars,2023.2.3,Win32,166.6666667,,,,,,2209.2216,2210.2196,,,2210.7171,2210.9659,,36,36,,,,,,,,,,,,,,,,bars/036.png,bars/mask008.png,,,,,,,,,,,,4,2,,,,,,,6,8,6,9,,,,,,,,,,,2210.2196,2210.7171,2210.9659,2215.5532,space,4.5815,,2215.5532,71,16,2216.5496,2216.5496,2216.55,,,,0,41,41,41,1,145,20,,,,,,,,
,,6511fd9e06231927b6398700,001,2023-12-14_20h55.16.655,bars,2023.2.3,Win32,166.6666667,,,,,,2216.55,2217.6618,,,2217.673,2217.6734,,168,-12,,,,,,,,,,,,,,,,bars/020.png,bars/mask003.png,,,,,,,,,,,,9,2,,,,,,,4,10,3,10,,,,,,,,,,,2217.6618,2217.673,2217.6734,2221.5178,space,3.8363,,2221.5178,53,2,2222.5158,2222.5158,2222.5211,,,,0,42,42,42,1,115,170,,,,,,,,
,,6511fd9e06231927b6398700,001,2023-12-14_20h55.16.655,bars,2023.2.3,Win32,166.6666667,,,,,,2222.5213,2223.5227,,,2224.0239,2224.2726,,34,34,,,,,,,,,,,,,,,,bars/007.png,bars/mask003.png,,,,,,,,,,,,3,2,,,,,,,2,10,2,10,,,,,,,,,,,2223.5227,2224.0238,2224.2726,2228.5019,space,4.2191,,2228.5019,39,21,2229.5032,2229.5032,2229.5083,,,,0,43,43,43,1,175,55,,,,,,,,
,,6511fd9e06231927b6398700,001,2023-12-14_20h55.16.655,bars,2023.2.3,Win32,166.6666667,,,,,,2229.5084,2230.5044,,,2231.0019,2231.2515,,149,149,,,,,,,,,,,,,,,,bars/044.png,bars/mask002.png,,,,,,,,,,,,8,2,,,,,,,0,10,1,10,,,,,,,,,,,2230.5044,2231.0019,2231.2515,2238.1135,space,6.8505,,2238.1135,74,6,2239.6643,2239.6644,2239.6647,,,,0,44,44,44,1,75,155,,,,,,,,
,,6511fd9e06231927b6398700,001,2023-12-14_20h55.16.655,bars,2023.2.3,Win32,166.6666667,,,,,,2239.6648,2240.662,,,2241.1595,2241.4114,,144,144,,,,,,,,,,,,,,,,bars/000.png,bars/mask009.png,,,,,,,,,,,,9,2,,,,,,,2,10,1,9,,,,,,,,,,,2240.6621,2241.1595,2241.4114,2242.6174,space,1.2042,,2242.6174,76,1,2243.6202,2243.6202,2243.6205,,,,0,45,45,45,1,40,145,,,,,,,,
,,6511fd9e06231927b6398700,001,2023-12-14_20h55.16.655,bars,2023.2.3,Win32,166.6666667,,,,,,2243.6207,2244.6206,,,2245.1219,2245.3706,,163,163,,,,,,,,,,,,,,,,bars/024.png,bars/mask009.png,,,,,,,,,,,,8,2,,,,,,,0,10,0,10,,,,,,,,,,,2244.6206,2245.1219,2245.3706,2249.7577,space,4.3841,,2249.7577,43,7,2250.9591,2250.9592,2250.9596,,,,0,46,46,46,1,120,170,,,,,,,,
,,6511fd9e06231927b6398700,001,2023-12-14_20h55.16.655,bars,2023.2.3,Win32,166.6666667,,,,,,2250.9598,2251.9618,,,2252.4579,2252.7082,,138,138,,,,,,,,,,,,,,,,bars/016.png,bars/mask002.png,,,,,,,,,,,,1,2,,,,,,,2,8,3,7,,,,,,,,,,,2251.9618,2252.4579,2252.7082,2264.9214,space,12.2108,,2264.9214,82,27,2270.428,2270.428,2270.4283,,,,0,47,47,47,1,40,165,,,,,,,,
,,6511fd9e06231927b6398700,001,2023-12-14_20h55.16.655,bars,2023.2.3,Win32,166.6666667,,,,,,2270.4284,2270.4449,,,2270.4452,2270.4453,,140,140,,,,,,,,,,,,,,,,bars/032.png,bars/mask007.png,,,,,,,,,,,,3,1,,,,,,,4,10,5,8,,,,,,,,,,,2270.4449,2270.4452,2270.4453,2273.034,space,2.5736,,2273.034,15,60,2294.0704,2294.0704,2294.0716,,,,0,48,48,48,1,125,20,,,,,,,,
,,6511fd9e06231927b6398700,001,2023-12-14_20h55.16.655,bars,2023.2.3,Win32,166.6666667,,,,,,2294.0718,2294.0933,,,2294.0937,2294.0939,,162,162,,,,,,,,,,,,,,,,bars/024.png,bars/mask007.png,,,,,,,,,,,,7,2,,,,,,,6,8,6,10,,,,,,,,,,,2294.0933,2294.0937,2294.0939,2297.53,space,3.4182,,2297.53,42,8,2298.5311,2298.5312,2298.5365,,,,0,49,49,49,1,120,170,,,,,,,,
,,6511fd9e06231927b6398700,001,2023-12-14_20h55.16.655,bars,2023.2.3,Win32,166.6666667,,,,,,,,,,,,,,,,,,,,,,,,,,,,,,,,,,,,,,,,,,,,,,,,,,,,,,,,,,,,,,,,,,,,,,,,,,,,,,,,,,,,,,,,2298.5366,2357.3276,0,3,3,2,1,sequence_tables/blk045.csv
,,6511fd9e06231927b6398700,001,2023-12-14_20h55.16.655,bars,2023.2.3,Win32,166.6666667,,,,,,2358.8964,2359.8954,,,2360.3943,2360.6417,,109,109,,,,,,,,,,,,,,,,bars/002.png,bars/mask008.png,,,,,,,,,,,,1,1,,,,,,,4,1,3,0,,,,,,2357.3279,2358.8943,space,1.5628,,2359.8954,2360.3943,2360.6418,2362.7655,space,2.1212,,2362.7656,21,24,2363.7668,2363.7668,2363.7727,,,,0,0,0,0,1,130,85,,,,,,,,
,,6511fd9e06231927b6398700,001,2023-12-14_20h55.16.655,bars,2023.2.3,Win32,166.6666667,,,,,,2363.7729,2364.774,,,2365.2716,2365.5203,,61,61,,,,,,,,,,,,,,,,bars/034.png,bars/mask002.png,,,,,,,,,,,,0,2,,,,,,,6,0,5,0,,,,,,,,,,,2364.7741,2365.2716,2365.5203,2367.2523,space,1.7235,,2367.2524,64,4,2368.2509,2368.2509,2368.2562,,,,0,1,1,1,1,125,65,,,,,,,,
,,6511fd9e06231927b6398700,001,2023-12-14_20h55.16.655,bars,2023.2.3,Win32,166.6666667,,,,,,2368.2563,2369.2521,,,2369.7497,2369.9986,,43,43,,,,,,,,,,,,,,,,bars/007.png,bars/mask004.png,,,,,,,,,,,,2,2,,,,,,,4,0,4,3,,,,,,,,,,,2369.2521,2369.7496,2369.9986,2373.081,space,3.0749,,2373.081,48,12,2374.0821,2374.0821,2374.0871,,,,0,2,2,2,1,175,55,,,,,,,,
,,6511fd9e06231927b6398700,001,2023-12-14_20h55.16.655,bars,2023.2.3,Win32,166.6666667,,,,,,2374.0872,2375.0832,,,2375.5809,2375.8297,,49,49,,,,,,,,,,,,,,,,bars/030.png,bars/mask009.png,,,,,,,,,,,,0,2,,,,,,,2,2,3,1,,,,,,,,,,,2375.0832,2375.5809,2375.8297,2379.3492,space,3.5175,,2379.3493,89,16,2380.3503,2380.3503,2380.3552,,,,0,3,3,3,1,140,65,,,,,,,,
,,6511fd9e06231927b6398700,001,2023-12-14_20h55.16.655,bars,2023.2.3,Win32,166.6666667,,,,,,2380.3554,2381.3514,,,2381.8491,2382.0976,,122,-58,,,,,,,,,,,,,,,,bars/028.png,bars/mask006.png,,,,,,,,,,,,4,2,,,,,,,4,4,4,4,,,,,,,,,,,2381.3514,2381.8491,2382.0976,2385.417,space,3.3111,,2385.417,77,2,2386.418,2386.418,2386.4229,,,,0,4,4,4,1,45,120,,,,,,,,
,,6511fd9e06231927b6398700,001,2023-12-14_20h55.16.655,bars,2023.2.3,Win32,166.6666667,,,,,,2386.423,2387.4193,,,2387.9168,2388.1656,,113,113,,,,,,,,,,,,,,,,bars/009.png,bars/mask004.png,,,,,,,,,,,,4,2,,,,,,,2,6,2,6,,,,,,,,,,,2387.4193,2387.9168,2388.1656,2391.5029,space,3.3309,,2391.5029,82,8,2392.504,2392.5041,2392.5091,,,,0,5,5,5,1,15,105,,,,,,,,
,,6511fd9e06231927b6398700,001,2023-12-14_20h55.16.655,bars,2023.2.3,Win32,166.6666667,,,,,,2392.5091,2393.5053,,,2394.0031,2394.2516,,109,109,,,,,,,,,,,,,,,,bars/009.png,bars/mask009.png,,,,,,,,,,,,3,2,,,,,,,4,4,5,4,,,,,,,,,,,2393.5053,2394.003,2394.2516,2395.6254,space,1.372,,2395.6254,86,4,2396.6273,2396.6273,2396.6276,,,,0,6,6,6,1,15,105,,,,,,,,
,,6511fd9e06231927b6398700,001,2023-12-14_20h55.16.655,bars,2023.2.3,Win32,166.6666667,,,,,,2396.6277,2397.6278,,,2398.1291,2398.3803,,13,13,,,,,,,,,,,,,,,,bars/016.png,bars/mask002.png,,,,,,,,,,,,0,1,,,,,,,2,6,1,5,,,,,,,,,,,2397.6278,2398.1291,2398.3804,2401.8243,space,3.4345,,2401.8243,27,28,2402.8284,2402.8284,2402.834,,,,0,7,7,7,1,40,165,,,,,,,,
,,6511fd9e06231927b6398700,001,2023-12-14_20h55.16.655,bars,2023.2.3,Win32,166.6666667,,,,,,2402.8342,2403.8327,,,2404.333,2404.5791,,103,103,,,,,,,,,,,,,,,,bars/002.png,bars/mask000.png,,,,,,,,,,,,2,2,,,,,,,0,4,0,5,,,,,,,,,,,2403.8327,2404.333,2404.5791,2406.7569,space,2.1762,,2406.7569,27,18,2407.7526,2407.7526,2407.758,,,,0,8,8,8,1,130,85,,,,,,,,
,,6511fd9e06231927b6398700,001,2023-12-14_20h55.16.655,bars,2023.2.3,Win32,166.6666667,,,,,,2407.7581,2408.7537,,,2409.2514,2409.5002,,116,116,,,,,,,,,,,,,,,,bars/039.png,bars/mask009.png,,,,,,,,,,,,3,2,,,,,,,2,6,3,5,,,,,,,,,,,2408.7537,2409.2514,2409.5002,2411.2294,space,1.7264,,2411.2295,59,11,2412.2307,2412.2307,2412.2356,,,,0,9,9,9,1,175,105,,,,,,,,
,,6511fd9e06231927b6398700,001,2023-12-14_20h55.16.655,bars,2023.2.3,Win32,166.6666667,,,,,,2412.2358,2413.2345,,,2413.732,2413.9783,,160,-20,,,,,,,,,,,,,,,,bars/016.png,bars/mask008.png,,,,,,,,,,,,7,2,,,,,,,4,8,7,8,,,,,,,,,,,2413.2345,2413.732,2413.9783,2416.193,space,2.2087,,2416.193,60,5,2417.1965,2417.1965,2417.1969,,,,0,10,10,10,1,40,165,,,,,,,,
,,6511fd9e06231927b6398700,001,2023-12-14_20h55.16.655,bars,2023.2.3,Win32,166.6666667,,,,,,2417.197,2418.1981,,,2418.699,2418.9453,,144,144,,,,,,,,,,,,,,,,bars/002.png,bars/mask001.png,,,,,,,,,,,,2,1,,,,,,,2,10,3,8,,,,,,,,,,,2418.1981,2418.699,2418.9453,2430.5132,space,11.556,,2430.5132,14,59,2431.5143,2431.5143,2431.5201,,,,0,11,11,11,1,130,85,,,,,,,,
,,6511fd9e06231927b6398700,001,2023-12-14_20h55.16.655,bars,2023.2.3,Win32,166.6666667,,,,,,2431.5202,2432.5217,,,2433.0191,2433.2645,,142,142,,,,,,,,,,,,,,,,bars/015.png,bars/mask006.png,,,,,,,,,,,,4,2,,,,,,,0,10,2,10,,,,,,,,,,,2432.5217,2433.0191,2433.2646,2435.8528,space,2.5819,,2435.8528,32,18,2436.8541,2436.8541,2436.8595,,,,0,12,12,12,1,110,160,,,,,,,,
,,6511fd9e06231927b6398700,001,2023-12-14_20h55.16.655,bars,2023.2.3,Win32,166.6666667,,,,,,2436.8596,2437.8554,,,2438.3529,2438.6016,,141,141,,,,,,,,,,,,,,,,bars/019.png,bars/mask002.png,,,,,,,,,,,,0,2,,,,,,,2,8,2,8,,,,,,,,,,,2437.8554,2438.3529,2438.6016,2440.7132,space,2.107,,2440.7132,84,36,2441.7144,2441.7144,2441.7199,,,,0,13,13,13,1,45,105,,,,,,,,
,,6511fd9e06231927b6398700,001,2023-12-14_20h55.16.655,bars,2023.2.3,Win32,166.6666667,,,,,,2441.72,2442.7157,,,2443.2134,2443.4647,,148,148,,,,,,,,,,,,,,,,bars/020.png,bars/mask008.png,,,,,,,,,,,,1,2,,,,,,,4,6,5,5,,,,,,,,,,,2442.7157,2443.2133,2443.4647,2447.5032,space,4.0303,,2447.5032,33,22,2448.5044,2448.5044,2448.5094,,,,0,14,14,14,1,115,170,,,,,,,,
,,6511fd9e06231927b6398700,001,2023-12-14_20h55.16.655,bars,2023.2.3,Win32,166.6666667,,,,,,2448.5096,2449.5057,,,2450.0032,2450.2519,,149,149,,,,,,,,,,,,,,,,bars/001.png,bars/mask008.png,,,,,,,,,,,,2,1,,,,,,,6,8,5,8,,,,,,,,,,,2449.5057,2450.0032,2450.252,2467.4968,space,17.2397,,2467.4969,19,64,2468.9787,2468.9788,2468.9794,,,,0,15,15,15,1,130,85,,,,,,,,
,,6511fd9e06231927b6398700,001,2023-12-14_20h55.16.655,bars,2023.2.3,Win32,166.6666667,,,,,,2468.9795,2469.9786,,,2470.4761,2470.7249,,162,-18,,,,,,,,,,,,,,,,bars/049.png,bars/mask001.png,,,,,,,,,,,,7,1,,,,,,,8,6,8,7,,,,,,,,,,,2469.9786,2470.4761,2470.725,2474.0259,space,3.2955,,2474.0259,2,47,2475.027,2475.027,2475.0274,,,,0,16,16,16,1,160,115,,,,,,,,
,,6511fd9e06231927b6398700,001,2023-12-14_20h55.16.655,bars,2023.2.3,Win32,166.6666667,,,,,,2475.0275,2476.0281,,,2476.5258,2476.7745,,114,114,,,,,,,,,,,,,,,,bars/023.png,bars/mask002.png,,,,,,,,,,,,3,2,,,,,,,10,4,10,3,,,,,,,,,,,2476.0281,2476.5258,2476.7745,2478.8041,space,2.0282,,2478.8041,86,1,2479.8025,2479.8025,2479.8034,,,,0,17,17,17,1,20,115,,,,,,,,
,,6511fd9e06231927b6398700,001,2023-12-14_20h55.16.655,bars,2023.2.3,Win32,166.6666667,,,,,,2479.8036,2480.8022,,,2480.8025,2480.8027,,136,136,,,,,,,,,,,,,,,,bars/044.png,bars/mask001.png,,,,,,,,,,,,1,2,,,,,,,10,2,10,2,,,,,,,,,,,2480.8022,2480.8025,2480.8027,2482.5937,space,1.7849,,2482.5937,61,19,2483.5949,2483.5949,2483.5999,,,,0,18,18,18,1,75,155,,,,,,,,
,,6511fd9e06231927b6398700,001,2023-12-14_20h55.16.655,bars,2023.2.3,Win32,166.6666667,,,,,,2483.6001,2484.5988,,,2485.0997,2485.3484,,52,52,,,,,,,,,,,,,,,,bars/027.png,bars/mask005.png,,,,,,,,,,,,4,2,,,,,,,8,4,9,4,,,,,,,,,,,2484.5988,2485.0996,2485.3485,2488.8799,space,3.5269,,2488.8799,58,2,2489.8812,2489.8812,2489.8861,,,,0,19,19,19,1,110,50,,,,,,,,
,,6511fd9e06231927b6398700,001,2023-12-14_20h55.16.655,bars,2023.2.3,Win32,166.6666667,,,,,,2489.8862,2490.8841,,,2491.3828,2491.6305,,110,110,,,,,,,,,,,,,,,,bars/041.png,bars/mask001.png,,,,,,,,,,,,0,2,,,,,,,10,2,10,3,,,,,,,,,,,2490.8841,2491.3828,2491.6305,2493.421,space,1.7845,,2493.4211,90,25,2520.8547,2520.8548,2520.8625,,,,0,20,20,20,1,20,85,,,,,,,,
,,6511fd9e06231927b6398700,001,2023-12-14_20h55.16.655,bars,2023.2.3,Win32,166.6666667,,,,,,2520.8627,2568.1273,,,2568.1277,2568.1278,,163,163,,,,,,,,,,,,,,,,bars/017.png,bars/mask001.png,,,,,,,,,,,,4,1,,,,,,,10,0,9,0,,,,,,,,,,,2568.1273,2568.1277,2568.1278,2569.9467,space,1.79,,2569.9468,18,62,2570.9477,2570.9478,2570.9487,,,,0,21,21,21,1,145,45,,,,,,,,
,,6511fd9e06231927b6398700,001,2023-12-14_20h55.16.655,bars,2023.2.3,Win32,166.6666667,,,,,,2570.9488,2571.9489,,,2572.4465,2572.6979,,17,197,,,,,,,,,,,,,,,,bars/043.png,bars/mask007.png,,,,,,,,,,,,4,1,,,,,,,8,0,7,0,,,,,,,,,,,2571.949,2572.4465,2572.6979,2581.9488,space,9.2449,,2581.9489,13,67,2582.9499,2582.95,2582.9552,,,,0,22,22,22,1,30,130,,,,,,,,
,,6511fd9e06231927b6398700,001,2023-12-14_20h55.16.655,bars,2023.2.3,Win32,166.6666667,,,,,,2582.9554,2583.9512,,,2584.4512,2584.6975,,15,15,,,,,,,,,,,,,,,,bars/012.png,bars/mask003.png,,,,,,,,,,,,0,2,,,,,,,6,0,4,0,,,,,,,,,,,2583.9512,2584.4512,2584.6976,2587.2338,space,2.5305,,2587.2339,75,0,2590.083,2590.083,2590.0843,,,,0,23,23,23,1,90,15,,,,,,,,
,,6511fd9e06231927b6398700,001,2023-12-14_20h55.16.655,bars,2023.2.3,Win32,166.6666667,,,,,,2590.0845,2590.0951,,,2590.0954,2590.0957,,153,-27,,,,,,,,,,,,,,,,bars/039.png,bars/mask004.png,,,,,,,,,,,,2,1,,,,,,,8,0,8,0,,,,,,,,,,,2590.0951,2590.0954,2590.0957,2592.6585,space,2.553,,2592.6585,22,48,2593.6597,2593.6597,2593.6652,,,,0,24,24,24,1,175,105,,,,,,,,
,,6511fd9e06231927b6398700,001,2023-12-14_20h55.16.655,bars,2023.2.3,Win32,166.6666667,,,,,,2593.6653,2596.6109,,,2596.6112,2596.6114,,51,51,,,,,,,,,,,,,,,,bars/032.png,bars/mask007.png,,,,,,,,,,,,0,2,,,,,,,6,0,5,0,,,,,,,,,,,2596.6109,2596.6112,2596.6114,2598.9173,space,2.3014,,2598.9174,74,31,2599.9156,2599.9156,2599.9213,,,,0,25,25,25,1,125,20,,,,,,,,
,,6511fd9e06231927b6398700,001,2023-12-14_20h55.16.655,bars,2023.2.3,Win32,166.6666667,,,,,,2599.9214,2600.9168,,,2601.4146,2601.6632,,149,149,,,,,,,,,,,,,,,,bars/008.png,bars/mask001.png,,,,,,,,,,,,0,2,,,,,,,8,2,7,4,,,,,,,,,,,2600.9168,2601.4146,2601.6632,2619.0901,space,17.4202,,2619.0901,39,31,2620.0914,2620.0914,2620.0918,,,,0,26,26,26,1,110,0,,,,,,,,
,,6511fd9e06231927b6398700,001,2023-12-14_20h55.16.655,bars,2023.2.3,Win32,166.6666667,,,,,,2620.0919,2620.9125,,,2621.4091,2621.6569,,22,202,,,,,,,,,,,,,,,,bars/036.png,bars/mask002.png,,,,,,,,,,,,1,2,,,,,,,6,0,6,1,,,,,,,,,,,2620.9125,2621.409,2621.6569,2624.0924,space,2.4345,,2624.0924,57,2,2625.0913,2625.0913,2625.0962,,,,0,27,27,27,1,145,20,,,,,,,,
,,6511fd9e06231927b6398700,001,2023-12-14_20h55.16.655,bars,2023.2.3,Win32,166.6666667,,,,,,2625.0963,2626.0924,,,2626.5901,2626.8389,,23,203,,,,,,,,,,,,,,,,bars/012.png,bars/mask003.png,,,,,,,,,,,,2,2,,,,,,,4,2,4,3,,,,,,,,,,,2626.0924,2626.5901,2626.8389,2629.1748,space,2.3322,,2629.1749,67,8,2630.181,2630.181,2630.186,,,,0,28,28,28,1,90,15,,,,,,,,
,,6511fd9e06231927b6398700,001,2023-12-14_20h55.16.655,bars,2023.2.3,Win32,166.6666667,,,,,,2630.1861,2631.1836,,,2631.6811,2631.9298,,26,26,,,,,,,,,,,,,,,,bars/040.png,bars/mask009.png,,,,,,,,,,,,0,2,,,,,,,2,0,2,0,,,,,,,,,,,2631.1836,2631.6811,2631.9298,2634.0231,space,2.0896,,2634.0231,66,21,2635.0244,2635.0244,2635.0296,,,,0,29,29,29,1,140,5,,,,,,,,
,,6511fd9e06231927b6398700,001,2023-12-14_20h55.16.655,bars,2023.2.3,Win32,166.6666667,,,,,,2635.0297,2636.0256,,,2636.5232,2636.772,,46,46,,,,,,,,,,,,,,,,bars/047.png,bars/mask007.png,,,,,,,,,,,,0,2,,,,,,,4,0,4,0,,,,,,,,,,,2636.0256,2636.5231,2636.772,2638.4346,space,1.6584,,2638.4346,31,24,2639.4358,2639.4358,2639.4409,,,,0,30,30,30,1,15,70,,,,,,,,
,,6511fd9e06231927b6398700,001,2023-12-14_20h55.16.655,bars,2023.2.3,Win32,166.6666667,,,,,,2639.441,2640.4369,,,2640.9347,2641.1832,,40,220,,,,,,,,,,,,,,,,bars/035.png,bars/mask005.png,,,,,,,,,,,,0,2,,,,,,,2,0,0,0,,,,,,,,,,,2640.4369,2640.9346,2641.1832,2644.3992,space,3.2121,,2644.3992,45,20,2645.4004,2645.4005,2645.4054,,,,0,31,31,31,1,175,60,,,,,,,,
,,6511fd9e06231927b6398700,001,2023-12-14_20h55.16.655,bars,2023.2.3,Win32,166.6666667,,,,,,2645.4055,2646.4016,,,2646.8992,2647.1479,,31,31,,,,,,,,,,,,,,,,bars/026.png,bars/mask009.png,,,,,,,,,,,,0,1,,,,,,,0,0,0,0,,,,,,,,,,,2646.4017,2646.8992,2647.1479,2649.0776,space,1.9271,,2649.0776,4,54,2650.0788,2650.0788,2650.0845,,,,0,32,32,32,1,35,85,,,,,,,,
,,6511fd9e06231927b6398700,001,2023-12-14_20h55.16.655,bars,2023.2.3,Win32,166.6666667,,,,,,2650.0846,2651.086,,,2651.5836,2651.8323,,157,-23,,,,,,,,,,,,,,,,bars/000.png,bars/mask004.png,,,,,,,,,,,,2,2,,,,,,,0,2,0,3,,,,,,,,,,,2651.086,2651.5836,2651.8323,2656.4561,space,4.6187,,2656.4562,63,12,2657.4573,2657.4573,2657.4631,,,,0,33,33,33,1,40,145,,,,,,,,
,,6511fd9e06231927b6398700,001,2023-12-14_20h55.16.655,bars,2023.2.3,Win32,166.6666667,,,,,,2657.4632,2658.4644,,,2658.9621,2659.2109,,54,54,,,,,,,,,,,,,,,,bars/010.png,bars/mask003.png,,,,,,,,,,,,4,2,,,,,,,2,4,0,4,,,,,,,,,,,2658.4645,2658.962,2659.2109,2660.6064,space,1.392,,2660.6064,69,1,2661.6078,2661.6078,2661.6132,,,,0,34,34,34,1,165,55,,,,,,,,
,,6511fd9e06231927b6398700,001,2023-12-14_20h55.16.655,bars,2023.2.3,Win32,166.6666667,,,,,,2661.6134,2662.6151,,,2663.1125,2663.3613,,28,208,,,,,,,,,,,,,,,,bars/012.png,bars/mask003.png,,,,,,,,,,,,3,2,,,,,,,4,6,5,5,,,,,,,,,,,2662.6151,2663.1125,2663.3613,2668.61,space,5.2442,,2668.6101,62,13,2669.6113,2669.6113,2669.6162,,,,0,35,35,35,1,90,15,,,,,,,,
,,6511fd9e06231927b6398700,001,2023-12-14_20h55.16.655,bars,2023.2.3,Win32,166.6666667,,,,,,2669.6164,2670.6124,,,2671.1099,2671.3588,,27,27,,,,,,,,,,,,,,,,bars/032.png,bars/mask003.png,,,,,,,,,,,,2,2,,,,,,,6,4,6,3,,,,,,,,,,,2670.6124,2671.1099,2671.3588,2675.1026,space,3.7401,,2675.1026,82,7,2676.1038,2676.1038,2676.1087,,,,0,36,36,36,1,125,20,,,,,,,,
,,6511fd9e06231927b6398700,001,2023-12-14_20h55.16.655,bars,2023.2.3,Win32,166.6666667,,,,,,2676.1088,2677.1051,,,2677.6025,2677.8515,,111,111,,,,,,,,,,,,,,,,bars/023.png,bars/mask005.png,,,,,,,,,,,,5,2,,,,,,,4,6,4,6,,,,,,,,,,,2677.1051,2677.6025,2677.8515,2683.3568,space,5.5032,,2683.3568,89,4,2684.3581,2684.3582,2684.3634,,,,0,37,37,37,1,20,115,,,,,,,,
,,6511fd9e06231927b6398700,001,2023-12-14_20h55.16.655,bars,2023.2.3,Win32,166.6666667,,,,,,2684.3634,2685.3632,,,2685.861,2686.1097,,51,51,,,,,,,,,,,,,,,,bars/025.png,bars/mask002.png,,,,,,,,,,,,5,2,,,,,,,2,8,2,8,,,,,,,,,,,2685.3632,2685.8609,2686.1097,2691.2491,space,5.1345,,2691.2492,54,11,2692.2503,2692.2503,2692.2552,,,,0,38,38,38,1,105,40,,,,,,,,
,,6511fd9e06231927b6398700,001,2023-12-14_20h55.16.655,bars,2023.2.3,Win32,166.6666667,,,,,,2692.2554,2693.2516,,,2693.7492,2693.998,,150,-30,,,,,,,,,,,,,,,,bars/049.png,bars/mask009.png,,,,,,,,,,,,3,1,,,,,,,4,10,4,10,,,,,,,,,,,2693.2516,2693.7492,2693.998,2699.5863,space,5.5827,,2699.5864,10,35,2700.5876,2700.5876,2700.593,,,,0,39,39,39,1,160,115,,,,,,,,
,,6511fd9e06231927b6398700,001,2023-12-14_20h55.16.655,bars,2023.2.3,Win32,166.6666667,,,,,,2700.5931,2701.5889,,,2702.0865,2702.3352,,40,220,,,,,,,,,,,,,,,,bars/047.png,bars/mask007.png,,,,,,,,,,,,0,1,,,,,,,2,8,3,8,,,,,,,,,,,2701.5889,2702.0865,2702.3352,2709.1615,space,6.8209,,2709.1615,25,30,2710.1626,2710.1627,2710.1678,,,,0,40,40,40,1,15,70,,,,,,,,
,,6511fd9e06231927b6398700,001,2023-12-14_20h55.16.655,bars,2023.2.3,Win32,166.6666667,,,,,,2710.1679,2711.1639,,,2711.6615,2711.9103,,165,165,,,,,,,,,,,,,,,,bars/048.png,bars/mask005.png,,,,,,,,,,,,4,2,,,,,,,4,6,4,6,,,,,,,,,,,2711.1639,2711.6615,2711.9103,2713.5788,space,1.664,,2713.5789,65,10,2714.5802,2714.5803,2714.581,,,,0,41,41,41,1,50,175,,,,,,,,
,,6511fd9e06231927b6398700,001,2023-12-14_20h55.16.655,bars,2023.2.3,Win32,166.6666667,,,,,,2714.5811,2715.5814,,,2716.0788,2716.3276,,146,146,,,,,,,,,,,,,,,,bars/003.png,bars/mask008.png,,,,,,,,,,,,8,2,,,,,,,6,8,4,10,,,,,,,,,,,2715.5814,2716.0788,2716.3276,2718.3422,space,2.0112,,2718.3422,59,6,2719.3435,2719.3435,2719.3438,,,,0,42,42,42,1,25,140,,,,,,,,
,,6511fd9e06231927b6398700,001,2023-12-14_20h55.16.655,bars,2023.2.3,Win32,166.6666667,,,,,,2719.3439,2720.3608,,,2720.3695,2720.3699,,153,153,,,,,,,,,,,,,,,,bars/037.png,bars/mask004.png,,,,,,,,,,,,7,1,,,,,,,8,10,8,10,,,,,,,,,,,2720.3608,2720.3694,2720.3699,2722.5593,space,2.1843,,2722.5593,3,48,2723.5604,2723.5604,2723.566,,,,0,43,43,43,1,150,105,,,,,,,,
,,6511fd9e06231927b6398700,001,2023-12-14_20h55.16.655,bars,2023.2.3,Win32,166.6666667,,,,,,2723.5662,2724.5678,,,2725.0653,2725.3141,,153,153,,,,,,,,,,,,,,,,bars/038.png,bars/mask000.png,,,,,,,,,,,,3,1,,,,,,,6,10,5,10,,,,,,,,,,,2724.5678,2725.0653,2725.3142,2730.2109,space,4.8891,,2730.211,12,83,2731.212,2731.212,2731.2172,,,,0,44,44,44,1,165,70,,,,,,,,
,,6511fd9e06231927b6398700,001,2023-12-14_20h55.16.655,bars,2023.2.3,Win32,166.6666667,,,,,,2731.2173,2732.2134,,,2732.7111,2732.9598,,119,119,,,,,,,,,,,,,,,,bars/041.png,bars/mask008.png,,,,,,,,,,,,0,2,,,,,,,4,10,4,10,,,,,,,,,,,2732.2134,2732.711,2732.9599,2735.9026,space,2.9393,,2735.9026,81,34,2736.9038,2736.9038,2736.9092,,,,0,45,45,45,1,20,85,,,,,,,,
,,6511fd9e06231927b6398700,001,2023-12-14_20h55.16.655,bars,2023.2.3,Win32,166.6666667,,,,,,2736.9094,2737.9049,,,2738.4026,2738.6513,,48,228,,,,,,,,,,,,,,,,bars/017.png,bars/mask001.png,,,,,,,,,,,,8,2,,,,,,,6,10,6,9,,,,,,,,,,,2737.9049,2738.4026,2738.6513,2742.9837,space,4.3277,,2742.9837,83,3,2743.9849,2743.985,2743.9899,,,,0,46,46,46,1,145,45,,,,,,,,
,,6511fd9e06231927b6398700,001,2023-12-14_20h55.16.655,bars,2023.2.3,Win32,166.6666667,,,,,,2743.99,2744.9861,,,2745.4838,2745.7325,,144,-36,,,,,,,,,,,,,,,,bars/004.png,bars/mask006.png,,,,,,,,,,,,3,2,,,,,,,4,8,2,8,,,,,,,,,,,2744.9861,2745.4837,2745.7325,2750.7628,space,5.0247,,2750.7628,61,19,2751.7639,2751.7639,2751.7688,,,,0,47,47,47,1,25,125,,,,,,,,
,,6511fd9e06231927b6398700,001,2023-12-14_20h55.16.655,bars,2023.2.3,Win32,166.6666667,,,,,,2751.769,2752.7651,,,2753.2628,2753.5114,,42,42,,,,,,,,,,,,,,,,bars/029.png,bars/mask002.png,,,,,,,,,,,,9,2,,,,,,,6,10,6,10,,,,,,,,,,,2752.7651,2753.2628,2753.5115,2756.9034,space,3.3878,,2756.9034,48,3,2757.9046,2757.9046,2757.9095,,,,0,48,48,48,1,90,45,,,,,,,,
,,6511fd9e06231927b6398700,001,2023-12-14_20h55.16.655,bars,2023.2.3,Win32,166.6666667,,,,,,2757.9097,2758.9059,,,2759.4034,2759.6522,,40,220,,,,,,,,,,,,,,,,bars/034.png,bars/mask001.png,,,,,,,,,,,,2,2,,,,,,,4,10,6,10,,,,,,,,,,,2758.906,2759.4034,2759.6522,2763.5356,space,3.8789,,2763.5357,85,25,2764.5369,2764.5369,2764.5419,,,,0,49,49,49,1,125,65,,,,,,,,
