init_variables.started,init_variables.stopped,participant,session,date,expName,psychopyVersion,OS,frameRate,instruction_single.started,instruction_single.stopped,key_resp_2.keys,key_resp_2.rt,key_resp_2.duration,interval.started,interval.stopped,cue_single.started,cue_single.stopped,mask.started,mask.stopped,ori_response_single.started,res_ori,res,ori_response_single.stopped,key_resp_single.keys,key_resp_single.rt,key_resp_single.duration,disp_single.started,disp_single.stopped,key_resp.keys,key_resp.rt,key_resp.duration,single.thisRepN,single.thisTrialN,single.thisN,single.thisIndex,single.ran,ori,path,mask_path,instruction_bandit.started,instruction_bandit.stopped,key_resp_6.keys,key_resp_6.rt,key_resp_6.duration,cue_bandit.started,cue_bandit.stopped,bandit_res.keys,bandit_res.rt,bandit_res.duration,outcome_bandit.started,rew,action,outcome_bandit.stopped,bandit.thisRepN,bandit.thisTrialN,bandit.thisN,bandit.thisIndex,bandit.ran,actual_rew1,actual_rew2,rew1,rew2,instruction_task.started,instruction_task.stopped,key_resp_7.keys,key_resp_7.rt,key_resp_7.duration,wait_ready.started,wait_ready.stopped,key_resp_3.keys,key_resp_3.rt,key_resp_3.duration,cue.started,cue.stopped,ori_response.started,ori_response.stopped,key_resp_5.keys,key_resp_5.rt,key_resp_5.duration,outcome.started,diff1,diff2,outcome.stopped,disp_outcome_practice.started,disp_outcome_practice.stopped,key_resp_4.keys,key_resp_4.rt,key_resp_4.duration,trials.thisRepN,trials.thisTrialN,trials.thisN,trials.thisIndex,trials.ran,ori1,ori2,break_blk.started,break_blk.stopped,block.thisRepN,block.thisTrialN,block.thisN,block.thisIndex,block.ran,condition_file
0.0003,0.0004,,001,2023-12-14_24h19.37.880,bars,2023.2.3,Win32,144.9275362,,,,,,,,,,,,,,,,,,,,,,,,,,,,,,,,,,,,,,,,,,,,,,,,,,,,,,,,,,,,,,,,,,,,,,,,,,,,,,,,,,,,,,,,,,,,,,,
,,,001,2023-12-14_24h19.37.880,bars,2023.2.3,Win32,144.9275362,0.0004,14.7646,space,14.7555,,,,,,,,,,,,,,,,,,,,,,,,,,,,,,,,,,,,,,,,,,,,,,,,,,,,,,,,,,,,,,,,,,,,,,,,,,,,,,,,,,,,,,,,,,,
,,,001,2023-12-14_24h19.37.880,bars,2023.2.3,Win32,144.9275362,,,,,,14.7675,15.7647,15.7648,16.2646,16.2647,16.5179,16.5181,0,180,24.0221,space,7.4858,,24.0221,31.8349,space,7.802,,0,0,0,5,1,55,bars/single005.png,bars/mask008.png,,,,,,,,,,,,,,,,,,,,,,,,,,,,,,,,,,,,,,,,,,,,,,,,,,,,,,,,,,,,,,,,
,,,001,2023-12-14_24h19.37.880,bars,2023.2.3,Win32,144.9275362,,,,,,31.8351,32.8348,32.8348,33.3347,33.3348,33.5848,33.5848,57,57,37.6059,space,4.0179,,37.6059,42.6339,space,5.0159,,0,1,1,8,1,160,bars/single008.png,bars/mask004.png,,,,,,,,,,,,,,,,,,,,,,,,,,,,,,,,,,,,,,,,,,,,,,,,,,,,,,,,,,,,,,,,
,,,001,2023-12-14_24h19.37.880,bars,2023.2.3,Win32,144.9275362,,,,,,42.6386,43.6339,43.634,44.1339,44.1339,44.3839,44.3839,161,-19,49.2385,space,4.8513,,49.2385,54.7179,space,5.4662,,0,2,2,3,1,20,bars/single003.png,bars/mask005.png,,,,,,,,,,,,,,,,,,,,,,,,,,,,,,,,,,,,,,,,,,,,,,,,,,,,,,,,,,,,,,,,
,,,001,2023-12-14_24h19.37.880,bars,2023.2.3,Win32,144.9275362,,,,,,54.7227,55.7178,55.7178,56.2179,56.2179,56.4679,56.4679,21,201,66.6907,space,10.2148,,66.6907,72.5381,space,5.8336,,0,3,3,1,1,20,bars/single001.png,bars/mask006.png,,,,,,,,,,,,,,,,,,,,,,,,,,,,,,,,,,,,,,,,,,,,,,,,,,,,,,,,,,,,,,,,
,,,001,2023-12-14_24h19.37.880,bars,2023.2.3,Win32,144.9275362,,,,,,72.5429,73.5381,73.5382,74.0382,74.0382,74.2881,74.2882,25,205,78.4551,space,4.1603,,78.4552,86.0388,space,7.5704,,0,4,4,7,1,45,bars/single007.png,bars/mask009.png,,,,,,,,,,,,,,,,,,,,,,,,,,,,,,,,,,,,,,,,,,,,,,,,,,,,,,,,,,,,,,,,
,,,001,2023-12-14_24h19.37.880,bars,2023.2.3,Win32,144.9275362,,,,,,86.044,87.0389,87.0389,87.5389,87.5389,87.7889,87.7889,48,48,91.6016,space,3.8081,,91.6016,96.4908,space,4.8794,,0,5,5,6,1,175,bars/single006.png,bars/mask005.png,,,,,,,,,,,,,,,,,,,,,,,,,,,,,,,,,,,,,,,,,,,,,,,,,,,,,,,,,,,,,,,,
,,,001,2023-12-14_24h19.37.880,bars,2023.2.3,Win32,144.9275362,,,,,,96.4955,97.4907,97.4908,97.9908,97.9908,98.2408,98.2408,172,-8,102.0674,space,3.8199,,102.0674,106.7899,space,4.7095,,0,6,6,9,1,20,bars/single009.png,bars/mask006.png,,,,,,,,,,,,,,,,,,,,,,,,,,,,,,,,,,,,,,,,,,,,,,,,,,,,,,,,,,,,,,,,
,,,001,2023-12-14_24h19.37.880,bars,2023.2.3,Win32,144.9275362,,,,,,106.795,107.7899,107.7899,108.2864,108.2865,108.533,108.533,23,203,112.3874,space,3.8401,,112.3874,129.2494,space,16.8473,,0,7,7,2,1,145,bars/single002.png,bars/mask003.png,,,,,,,,,,,,,,,,,,,,,,,,,,,,,,,,,,,,,,,,,,,,,,,,,,,,,,,,,,,,,,,,
,,,001,2023-12-14_24h19.37.880,bars,2023.2.3,Win32,144.9275362,,,,,,129.2544,130.2493,130.2493,130.7493,130.7494,130.9994,130.9994,143,143,135.7584,space,4.7504,,135.7584,139.2382,space,3.4721,,0,8,8,0,1,150,bars/single000.png,bars/mask006.png,,,,,,,,,,,,,,,,,,,,,,,,,,,,,,,,,,,,,,,,,,,,,,,,,,,,,,,,,,,,,,,,
,,,001,2023-12-14_24h19.37.880,bars,2023.2.3,Win32,144.9275362,,,,,,139.2385,140.2359,140.2359,140.7359,140.7359,140.986,140.986,161,161,143.7223,space,2.7243,,143.7223,145.7848,space,2.0481,,0,9,9,4,1,95,bars/single004.png,bars/mask004.png,,,,,,,,,,,,,,,,,,,,,,,,,,,,,,,,,,,,,,,,,,,,,,,,,,,,,,,,,,,,,,,,
,,,001,2023-12-14_24h19.37.880,bars,2023.2.3,Win32,144.9275362,,,,,,,,,,,,,,,,,,,,,,,,,,,,,,,,145.7852,155.473,space,9.6777,,,,,,,,,,,,,,,,,,,,,,,,,,,,,,,,,,,,,,,,,,,,,,,,,,,,,,,,,,,,
,,,001,2023-12-14_24h19.37.880,bars,2023.2.3,Win32,144.9275362,,,,,,,,,,,,,,,,,,,,,,,,,,,,,,,,,,,,,155.479,158.0286,left,2.5434,,158.0286,9,1,159.0236,0,0,0,0,1,9,1,9,2,,,,,,,,,,,,,,,,,,,,,,,,,,,,,,,,,,,,,,,,,
,,,001,2023-12-14_24h19.37.880,bars,2023.2.3,Win32,144.9275362,,,,,,,,,,,,,,,,,,,,,,,,,,,,,,,,,,,,,159.0238,160.244,right,1.2095,,160.244,1,2,161.2439,0,1,1,1,1,10,0,10,1,,,,,,,,,,,,,,,,,,,,,,,,,,,,,,,,,,,,,,,,,
,,,001,2023-12-14_24h19.37.880,bars,2023.2.3,Win32,144.9275362,,,,,,,,,,,,,,,,,,,,,,,,,,,,,,,,,,,,,161.2441,163.5185,left,2.2645,,163.5186,10,1,164.5149,0,2,2,2,1,10,2,10,2,,,,,,,,,,,,,,,,,,,,,,,,,,,,,,,,,,,,,,,,,
,,,001,2023-12-14_24h19.37.880,bars,2023.2.3,Win32,144.9275362,,,,,,,,,,,,,,,,,,,,,,,,,,,,,,,,,,,,,164.5197,165.5602,left,1.0352,,165.5603,7,1,166.5566,0,3,3,3,1,8,4,7,3,,,,,,,,,,,,,,,,,,,,,,,,,,,,,,,,,,,,,,,,,
,,,001,2023-12-14_24h19.37.880,bars,2023.2.3,Win32,144.9275362,,,,,,,,,,,,,,,,,,,,,,,,,,,,,,,,,,,,,166.5568,167.4595,right,0.8893,,167.4595,1,2,168.4595,0,4,4,4,1,6,2,5,1,,,,,,,,,,,,,,,,,,,,,,,,,,,,,,,,,,,,,,,,,
,,,001,2023-12-14_24h19.37.880,bars,2023.2.3,Win32,144.9275362,,,,,,,,,,,,,,,,,,,,,,,,,,,,,,,,,,,,,168.4597,168.9596,left,0.4875,,168.9596,4,1,169.9595,0,5,5,5,1,4,4,4,4,,,,,,,,,,,,,,,,,,,,,,,,,,,,,,,,,,,,,,,,,
,,,001,2023-12-14_24h19.37.880,bars,2023.2.3,Win32,144.9275362,,,,,,,,,,,,,,,,,,,,,,,,,,,,,,,,,,,,,169.9597,170.2999,left,0.3306,,170.3,1,1,171.2999,0,6,6,6,1,2,2,1,2,,,,,,,,,,,,,,,,,,,,,,,,,,,,,,,,,,,,,,,,,
,,,001,2023-12-14_24h19.37.880,bars,2023.2.3,Win32,144.9275362,,,,,,,,,,,,,,,,,,,,,,,,,,,,,,,,,,,,,171.3001,171.63,left,0.3197,,171.63,0,1,172.6264,0,7,7,7,1,0,0,0,1,,,,,,,,,,,,,,,,,,,,,,,,,,,,,,,,,,,,,,,,,
,,,001,2023-12-14_24h19.37.880,bars,2023.2.3,Win32,144.9275362,,,,,,,,,,,,,,,,,,,,,,,,,,,,,,,,,,,,,172.6266,173.0292,right,0.3916,,173.0292,0,2,174.0292,0,8,8,8,1,0,2,1,0,,,,,,,,,,,,,,,,,,,,,,,,,,,,,,,,,,,,,,,,,
,,,001,2023-12-14_24h19.37.880,bars,2023.2.3,Win32,144.9275362,,,,,,,,,,,,,,,,,,,,,,,,,,,,,,,,,,,,,174.0295,175.0988,left,1.0589,,175.0988,2,1,176.0987,0,9,9,9,1,2,4,2,3,,,,,,,,,,,,,,,,,,,,,,,,,,,,,,,,,,,,,,,,,
,,,001,2023-12-14_24h19.37.880,bars,2023.2.3,Win32,144.9275362,,,,,,,,,,,,,,,,,,,,,,,,,,,,,,,,,,,,,176.0989,176.4808,left,0.3698,,176.4808,0,1,177.4808,0,10,10,10,1,0,2,0,3,,,,,,,,,,,,,,,,,,,,,,,,,,,,,,,,,,,,,,,,,
,,,001,2023-12-14_24h19.37.880,bars,2023.2.3,Win32,144.9275362,,,,,,,,,,,,,,,,,,,,,,,,,,,,,,,,,,,,,177.481,178.3212,right,0.8269,,178.3212,3,2,179.3212,0,11,11,11,1,0,4,0,3,,,,,,,,,,,,,,,,,,,,,,,,,,,,,,,,,,,,,,,,,
,,,001,2023-12-14_24h19.37.880,bars,2023.2.3,Win32,144.9275362,,,,,,,,,,,,,,,,,,,,,,,,,,,,,,,,,,,,,179.3214,179.7449,right,0.4103,,179.7449,6,2,180.7449,0,12,12,12,1,2,6,1,6,,,,,,,,,,,,,,,,,,,,,,,,,,,,,,,,,,,,,,,,,
,,,001,2023-12-14_24h19.37.880,bars,2023.2.3,Win32,144.9275362,,,,,,,,,,,,,,,,,,,,,,,,,,,,,,,,,,,,,180.745,181.2416,right,0.4866,,181.2416,3,2,182.2379,0,13,13,13,1,0,4,1,3,,,,,,,,,,,,,,,,,,,,,,,,,,,,,,,,,,,,,,,,,
,,,001,2023-12-14_24h19.37.880,bars,2023.2.3,Win32,144.9275362,,,,,,,,,,,,,,,,,,,,,,,,,,,,,,,,,,,,,182.2381,182.6686,right,0.4178,,182.6686,7,2,183.6686,0,14,14,14,1,2,6,2,7,,,,,,,,,,,,,,,,,,,,,,,,,,,,,,,,,,,,,,,,,
,,,001,2023-12-14_24h19.37.880,bars,2023.2.3,Win32,144.9275362,,,,,,,,,,,,,,,,,,,,,,,,,,,,,,,,,,,,,183.6687,184.0923,right,0.4126,,184.0923,9,2,185.0923,0,15,15,15,1,4,8,3,9,,,,,,,,,,,,,,,,,,,,,,,,,,,,,,,,,,,,,,,,,
,,,001,2023-12-14_24h19.37.880,bars,2023.2.3,Win32,144.9275362,,,,,,,,,,,,,,,,,,,,,,,,,,,,,,,,,,,,,185.0925,185.5229,right,0.4235,,185.5229,7,2,186.5229,0,16,16,16,1,6,6,7,7,,,,,,,,,,,,,,,,,,,,,,,,,,,,,,,,,,,,,,,,,
,,,001,2023-12-14_24h19.37.880,bars,2023.2.3,Win32,144.9275362,,,,,,,,,,,,,,,,,,,,,,,,,,,,,,,,,,,,,186.523,186.884,right,0.3555,,186.884,5,2,187.884,0,17,17,17,1,8,4,9,5,,,,,,,,,,,,,,,,,,,,,,,,,,,,,,,,,,,,,,,,,
,,,001,2023-12-14_24h19.37.880,bars,2023.2.3,Win32,144.9275362,,,,,,,,,,,,,,,,,,,,,,,,,,,,,,,,,,,,,187.8842,188.28,right,0.3843,,188.28,1,2,189.275,0,18,18,18,1,6,2,5,1,,,,,,,,,,,,,,,,,,,,,,,,,,,,,,,,,,,,,,,,,
,,,001,2023-12-14_24h19.37.880,bars,2023.2.3,Win32,144.9275362,,,,,,,,,,,,,,,,,,,,,,,,,,,,,,,,,,,,,189.2751,189.6065,right,0.3219,,189.6065,0,2,190.6064,0,19,19,19,1,8,0,7,0,,,,,,,,,,,,,,,,,,,,,,,,,,,,,,,,,,,,,,,,,
,,,001,2023-12-14_24h19.37.880,bars,2023.2.3,Win32,144.9275362,,,,,,,,,,,,,,,,,,,,,,,,,,,,,,,,,,,,,,,,,,,,,,,,,,,,,,,190.6068,217.7192,space,27.0985,,,,,,,,,,,,,,,,,,,,,,,,,,,,,,,,,,,,,
,,,001,2023-12-14_24h19.37.880,bars,2023.2.3,Win32,144.9275362,,,,,,218.9988,220.0002,,,220.5005,220.7468,,176,-4,,,,,,,,,,,,,,,,bars/007.png,bars/mask002.png,,,,,,,,,,,,1,1,,,,,,,2,9,1,9,,,,,,217.7253,218.9968,space,1.2626,,220.0004,220.5004,220.7469,226.8098,space,6.0495,,226.8099,1,59,227.8097,227.8098,233.3519,space,5.527,,0,0,0,0,1,175,55,,,,,,,,
,,,001,2023-12-14_24h19.37.880,bars,2023.2.3,Win32,144.9275362,,,,,,233.3569,234.3586,,,234.8607,235.1086,,62,242,,,,,,,,,,,,,,,,bars/043.png,bars/mask004.png,,,,,,,,,,,,0,1,,,,,,,4,7,7,6,,,,,,,,,,,234.3587,234.8607,235.1086,239.9353,space,4.8128,,239.9354,32,68,240.9353,240.9353,250.6719,space,9.7256,,0,1,1,1,1,30,130,,,,,,,,
,,,001,2023-12-14_24h19.37.880,bars,2023.2.3,Win32,144.9275362,,,,,,250.677,251.672,,,252.1719,252.422,,37,37,,,,,,,,,,,,,,,,bars/032.png,bars/mask002.png,,,,,,,,,,,,3,2,,,,,,,6,9,6,8,,,,,,,,,,,251.672,252.1719,252.422,255.4291,space,2.9959,,255.4291,88,17,256.4291,256.4291,258.2626,space,1.8232,,0,2,2,2,1,125,20,,,,,,,,
,,,001,2023-12-14_24h19.37.880,bars,2023.2.3,Win32,144.9275362,,,,,,258.2628,259.2625,,,259.7626,260.0126,,19,199,,,,,,,,,,,,,,,,bars/039.png,bars/mask004.png,,,,,,,,,,,,1,1,,,,,,,8,7,6,8,,,,,,,,,,,259.2625,259.7626,260.0126,262.7072,space,2.6801,,262.7073,24,86,263.7072,263.7072,268.2979,space,4.5783,,0,3,3,3,1,175,105,,,,,,,,
,,,001,2023-12-14_24h19.37.880,bars,2023.2.3,Win32,144.9275362,,,,,,268.303,269.3047,,,269.8048,270.0548,,109,109,,,,,,,,,,,,,,,,bars/004.png,bars/mask000.png,,,,,,,,,,,,4,2,,,,,,,6,9,5,9,,,,,,,,,,,269.3047,269.8048,270.0548,271.798,space,1.728,,271.798,84,16,272.798,272.798,275.8954,space,3.0872,,0,4,4,4,1,25,125,,,,,,,,
,,,001,2023-12-14_24h19.37.880,bars,2023.2.3,Win32,144.9275362,,,,,,275.8956,276.8954,,,277.3955,277.6454,,123,123,,,,,,,,,,,,,,,,bars/025.png,bars/mask004.png,,,,,,,,,,,,3,1,,,,,,,8,7,8,8,,,,,,,,,,,276.8954,277.3954,277.6454,280.1839,space,2.5299,,280.1839,18,83,281.1803,281.1803,282.5555,space,1.3624,,0,5,5,5,1,105,40,,,,,,,,
,,,001,2023-12-14_24h19.37.880,bars,2023.2.3,Win32,144.9275362,,,,,,282.5556,283.5554,,,284.059,284.3054,,42,42,,,,,,,,,,,,,,,,bars/019.png,bars/mask000.png,,,,,,,,,,,,5,1,,,,,,,6,5,6,7,,,,,,,,,,,283.5554,284.059,284.3055,285.5209,space,1.2004,,285.5209,3,63,286.5208,286.5208,288.0637,space,1.5298,,0,6,6,6,1,45,105,,,,,,,,
,,,001,2023-12-14_24h19.37.880,bars,2023.2.3,Win32,144.9275362,,,,,,288.0639,289.0626,,,289.5654,289.8127,,114,114,,,,,,,,,,,,,,,,bars/043.png,bars/mask007.png,,,,,,,,,,,,3,2,,,,,,,4,7,2,6,,,,,,,,,,,289.0627,289.5654,289.8127,293.0143,space,3.1871,,293.0143,84,16,294.0143,294.0143,295.0423,space,1.0169,,0,7,7,7,1,30,130,,,,,,,,
,,,001,2023-12-14_24h19.37.880,bars,2023.2.3,Win32,144.9275362,,,,,,295.0424,296.0421,,,296.5422,296.7937,,39,39,,,,,,,,,,,,,,,,bars/038.png,bars/mask008.png,,,,,,,,,,,,0,2,,,,,,,2,9,2,8,,,,,,,,,,,296.0421,296.5422,296.7938,301.737,space,4.9322,,301.737,54,31,302.7369,302.7369,307.4733,space,4.7217,,0,8,8,8,1,165,70,,,,,,,,
,,,001,2023-12-14_24h19.37.880,bars,2023.2.3,Win32,144.9275362,,,,,,307.4782,308.4733,,,308.9734,309.22,,167,167,,,,,,,,,,,,,,,,bars/028.png,bars/mask009.png,,,,,,,,,,,,0,2,,,,,,,0,10,1,10,,,,,,,,,,,308.4733,308.9733,309.2201,311.4683,space,2.2413,,311.4683,58,47,312.4665,312.4665,313.3139,space,0.8359,,0,9,9,9,1,45,120,,,,,,,,
,,,001,2023-12-14_24h19.37.880,bars,2023.2.3,Win32,144.9275362,,,,,,313.3142,314.3138,,,314.8139,315.064,,41,41,,,,,,,,,,,,,,,,bars/009.png,bars/mask001.png,,,,,,,,,,,,0,1,,,,,,,2,8,3,7,,,,,,,,,,,314.3138,314.8139,315.064,317.5659,space,2.4915,,317.5659,26,64,318.5641,318.5641,320.1337,space,1.5568,,0,10,10,10,1,15,105,,,,,,,,
,,,001,2023-12-14_24h19.37.880,bars,2023.2.3,Win32,144.9275362,,,,,,320.1339,321.1336,,,321.6374,321.8837,,14,14,,,,,,,,,,,,,,,,bars/004.png,bars/mask006.png,,,,,,,,,,,,0,1,,,,,,,0,10,0,10,,,,,,,,,,,321.1337,321.6374,321.8837,326.4325,space,4.5355,,326.4326,11,69,327.4325,327.4325,328.1895,space,0.7445,,0,11,11,11,1,25,125,,,,,,,,
,,,001,2023-12-14_24h19.37.880,bars,2023.2.3,Win32,144.9275362,,,,,,328.1898,329.1896,,,329.6863,329.9327,,129,129,,,,,,,,,,,,,,,,bars/003.png,bars/mask004.png,,,,,,,,,,,,4,2,,,,,,,2,8,2,6,,,,,,,,,,,329.1897,329.6862,329.9327,330.7107,space,0.7642,,330.7108,76,11,331.7106,331.7106,333.0163,space,1.293,,0,12,12,12,1,25,140,,,,,,,,
,,,001,2023-12-14_24h19.37.880,bars,2023.2.3,Win32,144.9275362,,,,,,333.0165,334.0162,,,334.5163,334.7662,,152,-28,,,,,,,,,,,,,,,,bars/016.png,bars/mask000.png,,,,,,,,,,,,5,2,,,,,,,4,10,5,9,,,,,,,,,,,334.0163,334.5163,334.7662,336.8238,space,2.0469,,336.8239,68,13,337.822,337.822,343.2946,space,5.4592,,0,13,13,13,1,40,165,,,,,,,,
,,,001,2023-12-14_24h19.37.880,bars,2023.2.3,Win32,144.9275362,,,,,,343.2993,344.2945,,,344.7946,345.0445,,166,-14,,,,,,,,,,,,,,,,bars/041.png,bars/mask001.png,,,,,,,,,,,,0,1,,,,,,,2,10,2,10,,,,,,,,,,,344.2945,344.7946,345.0445,347.1558,space,2.0971,,347.1558,34,81,348.1559,348.1559,356.0104,space,7.8455,,0,14,14,14,1,20,85,,,,,,,,
,,,001,2023-12-14_24h19.37.880,bars,2023.2.3,Win32,144.9275362,,,,,,356.0154,357.0105,,,357.5106,357.7569,,23,23,,,,,,,,,,,,,,,,bars/030.png,bars/mask007.png,,,,,,,,,,,,0,2,,,,,,,0,10,0,10,,,,,,,,,,,357.0105,357.5106,357.757,359.1166,space,1.358,,359.1167,63,42,360.1147,360.1148,366.2818,space,6.1527,,0,15,15,15,1,140,65,,,,,,,,
,,,001,2023-12-14_24h19.37.880,bars,2023.2.3,Win32,144.9275362,,,,,,366.2865,367.2818,,,367.7819,368.0317,,41,221,,,,,,,,,,,,,,,,bars/004.png,bars/mask006.png,,,,,,,,,,,,1,1,,,,,,,2,10,2,10,,,,,,,,,,,367.2818,367.7817,368.0318,372.4417,space,4.3955,,372.4418,16,84,373.4418,373.4418,375.3238,space,1.8707,,0,16,16,16,1,25,125,,,,,,,,
,,,001,2023-12-14_24h19.37.880,bars,2023.2.3,Win32,144.9275362,,,,,,375.324,376.3238,,,376.8239,377.0739,,34,34,,,,,,,,,,,,,,,,bars/030.png,bars/mask004.png,,,,,,,,,,,,0,2,,,,,,,0,10,0,8,,,,,,,,,,,376.3238,376.8239,377.0739,377.6193,space,0.5351,,377.6193,74,31,378.6157,378.6157,380.0047,space,1.3773,,0,17,17,17,1,140,65,,,,,,,,
,,,001,2023-12-14_24h19.37.880,bars,2023.2.3,Win32,144.9275362,,,,,,380.0049,381.0047,,,381.5047,381.7546,,175,175,,,,,,,,,,,,,,,,bars/013.png,bars/mask008.png,,,,,,,,,,,,5,2,,,,,,,2,10,2,10,,,,,,,,,,,381.0047,381.5047,381.7546,382.2409,space,0.4758,,382.2409,80,15,383.2409,383.2409,383.9809,space,0.7293,,0,18,18,18,1,75,10,,,,,,,,
,,,001,2023-12-14_24h19.37.880,bars,2023.2.3,Win32,144.9275362,,,,,,383.9811,384.977,,,385.4807,385.7293,,175,175,,,,,,,,,,,,,,,,bars/018.png,bars/mask001.png,,,,,,,,,,,,0,1,,,,,,,0,10,1,10,,,,,,,,,,,384.977,385.4807,385.7293,386.2481,space,0.5074,,386.2481,25,85,387.2481,387.2481,387.5189,space,0.2598,,0,19,19,19,1,150,90,,,,,,,,
,,,001,2023-12-14_24h19.37.880,bars,2023.2.3,Win32,144.9275362,,,,,,387.5191,388.5189,,,389.019,389.2654,,70,70,,,,,,,,,,,,,,,,bars/045.png,bars/mask009.png,,,,,,,,,,,,0,1,,,,,,,2,10,1,8,,,,,,,,,,,388.5189,389.019,389.2654,390.151,space,0.8786,,390.151,30,60,391.151,391.151,396.0215,space,4.8598,,0,20,20,20,1,100,10,,,,,,,,
,,,001,2023-12-14_24h19.37.880,bars,2023.2.3,Win32,144.9275362,,,,,,396.0263,397.0262,,,397.5263,397.7764,,115,115,,,,,,,,,,,,,,,,bars/043.png,bars/mask005.png,,,,,,,,,,,,4,2,,,,,,,4,8,3,8,,,,,,,,,,,397.0262,397.5263,397.7764,402.485,space,4.6946,,402.485,85,15,403.485,403.485,420.2358,space,16.7386,,0,21,21,21,1,30,130,,,,,,,,
,,,001,2023-12-14_24h19.37.880,bars,2023.2.3,Win32,144.9275362,,,,,,420.2407,421.2358,,,421.7358,421.9858,,157,157,,,,,,,,,,,,,,,,bars/024.png,bars/mask003.png,,,,,,,,,,,,6,2,,,,,,,6,10,7,10,,,,,,,,,,,421.2358,421.7358,421.9858,424.6595,space,2.6626,,424.6596,37,13,425.6631,425.6631,446.008,space,20.3343,,0,22,22,22,1,120,170,,,,,,,,
,,,001,2023-12-14_24h19.37.880,bars,2023.2.3,Win32,144.9275362,,,,,,446.0131,447.0148,,,447.5149,447.7649,,48,48,,,,,,,,,,,,,,,,bars/049.png,bars/mask003.png,,,,,,,,,,,,0,2,,,,,,,4,10,4,10,,,,,,,,,,,447.0149,447.5149,447.7649,449.484,space,1.7106,,449.484,68,67,450.4803,450.4803,470.2073,space,19.7164,,0,23,23,23,1,160,115,,,,,,,,
,,,001,2023-12-14_24h19.37.880,bars,2023.2.3,Win32,144.9275362,,,,,,470.2122,471.2105,,,471.7105,471.9605,,124,124,,,,,,,,,,,,,,,,bars/046.png,bars/mask008.png,,,,,,,,,,,,0,1,,,,,,,6,8,5,9,,,,,,,,,,,471.2105,471.7105,471.9605,478.0303,space,6.0593,,478.0304,31,39,479.0302,479.0303,485.3224,space,6.2806,,0,24,24,24,1,155,85,,,,,,,,
,,,001,2023-12-14_24h19.37.880,bars,2023.2.3,Win32,144.9275362,,,,,,485.3271,486.3224,,,486.8224,487.0724,,162,162,,,,,,,,,,,,,,,,bars/021.png,bars/mask009.png,,,,,,,,,,,,3,1,,,,,,,4,6,4,7,,,,,,,,,,,486.3224,486.8223,487.0724,490.1212,space,3.0377,,490.1212,7,88,491.1212,491.1212,493.8436,space,2.7079,,0,25,25,25,1,155,70,,,,,,,,
,,,001,2023-12-14_24h19.37.880,bars,2023.2.3,Win32,144.9275362,,,,,,493.8438,494.8436,,,495.3436,495.5937,,159,-21,,,,,,,,,,,,,,,,bars/034.png,bars/mask005.png,,,,,,,,,,,,0,1,,,,,,,2,8,1,8,,,,,,,,,,,494.8436,495.3436,495.5937,500.0414,space,4.4374,,500.0414,34,86,501.0417,501.0417,520.9352,space,19.882,,0,26,26,26,1,125,65,,,,,,,,
,,,001,2023-12-14_24h19.37.880,bars,2023.2.3,Win32,144.9275362,,,,,,520.9403,521.9352,,,522.4353,522.6852,,129,129,,,,,,,,,,,,,,,,bars/012.png,bars/mask008.png,,,,,,,,,,,,0,1,,,,,,,4,10,5,9,,,,,,,,,,,521.9352,522.4352,522.6853,527.1576,space,4.4607,,527.1577,39,66,528.1545,528.1545,533.0369,space,4.8743,,0,27,27,27,1,90,15,,,,,,,,
,,,001,2023-12-14_24h19.37.880,bars,2023.2.3,Win32,144.9275362,,,,,,533.0416,534.0399,,,534.54,534.7917,,92,92,,,,,,,,,,,,,,,,bars/015.png,bars/mask009.png,,,,,,,,,,,,1,1,,,,,,,2,10,2,9,,,,,,,,,,,534.0399,534.5399,534.7918,536.9985,space,2.1969,,536.9985,18,68,537.9985,537.9985,539.3181,space,1.305,,0,28,28,28,1,110,160,,,,,,,,
,,,001,2023-12-14_24h19.37.880,bars,2023.2.3,Win32,144.9275362,,,,,,539.3183,540.318,,,540.8181,541.0681,,126,126,,,,,,,,,,,,,,,,bars/015.png,bars/mask000.png,,,,,,,,,,,,0,1,,,,,,,0,8,0,8,,,,,,,,,,,540.318,540.8181,541.0681,542.3529,space,1.2745,,542.3529,16,34,543.3529,543.3529,546.4177,space,3.0545,,0,29,29,29,1,110,160,,,,,,,,
,,,001,2023-12-14_24h19.37.880,bars,2023.2.3,Win32,144.9275362,,,,,,546.4179,547.4157,,,547.9157,548.1622,,160,160,,,,,,,,,,,,,,,,bars/035.png,bars/mask000.png,,,,,,,,,,,,1,1,,,,,,,2,10,2,9,,,,,,,,,,,547.4157,547.9156,548.1622,549.5547,space,1.382,,549.5547,15,80,550.5511,550.5512,552.1798,space,1.6183,,0,30,30,30,1,175,60,,,,,,,,
,,,001,2023-12-14_24h19.37.880,bars,2023.2.3,Win32,144.9275362,,,,,,552.18,553.1797,,,553.6798,553.9298,,169,-11,,,,,,,,,,,,,,,,bars/019.png,bars/mask008.png,,,,,,,,,,,,0,1,,,,,,,0,8,0,8,,,,,,,,,,,553.1798,553.6798,553.9299,556.5426,space,2.6023,,556.5426,56,64,557.5411,557.5411,558.8714,space,1.3217,,0,31,31,31,1,45,105,,,,,,,,
,,,001,2023-12-14_24h19.37.880,bars,2023.2.3,Win32,144.9275362,,,,,,558.8716,559.8676,,,560.3677,560.6177,,49,49,,,,,,,,,,,,,,,,bars/048.png,bars/mask007.png,,,,,,,,,,,,0,1,,,,,,,0,6,0,5,,,,,,,,,,,559.8677,560.3677,560.6177,564.229,space,3.6026,,564.229,1,54,565.2308,565.2308,566.7847,space,1.5431,,0,32,32,32,1,50,175,,,,,,,,
,,,001,2023-12-14_24h19.37.880,bars,2023.2.3,Win32,144.9275362,,,,,,566.7849,567.7847,,,568.2847,568.5346,,169,-11,,,,,,,,,,,,,,,,bars/016.png,bars/mask003.png,,,,,,,,,,,,3,2,,,,,,,0,4,1,4,,,,,,,,,,,567.7847,568.2847,568.5347,571.1219,space,2.5785,,571.1219,51,4,572.1182,572.1183,573.5002,space,1.3702,,0,33,33,33,1,40,165,,,,,,,,
,,,001,2023-12-14_24h19.37.880,bars,2023.2.3,Win32,144.9275362,,,,,,573.5005,574.5037,,,575.0003,575.2538,,166,-14,,,,,,,,,,,,,,,,bars/027.png,bars/mask000.png,,,,,,,,,,,,0,1,,,,,,,0,6,1,6,,,,,,,,,,,574.5037,575.0002,575.2538,577.6015,space,2.3411,,577.6015,56,64,578.5978,578.5978,579.9349,space,1.3263,,0,34,34,34,1,110,50,,,,,,,,
,,,001,2023-12-14_24h19.37.880,bars,2023.2.3,Win32,144.9275362,,,,,,579.9351,580.9311,,,581.4312,581.6812,,117,117,,,,,,,,,,,,,,,,bars/022.png,bars/mask003.png,,,,,,,,,,,,1,1,,,,,,,2,8,2,7,,,,,,,,,,,580.9311,581.4312,581.6812,584.7509,space,3.0577,,584.7509,22,83,585.7509,585.7509,587.112,space,1.3502,,0,35,35,35,1,95,20,,,,,,,,
,,,001,2023-12-14_24h19.37.880,bars,2023.2.3,Win32,144.9275362,,,,,,587.1122,588.1121,,,588.6121,588.862,,97,97,,,,,,,,,,,,,,,,bars/012.png,bars/mask000.png,,,,,,,,,,,,3,1,,,,,,,4,6,4,6,,,,,,,,,,,588.1121,588.6121,588.8621,592.2757,space,3.4027,,592.2757,7,82,593.272,593.272,594.6926,space,1.4101,,0,36,36,36,1,90,15,,,,,,,,
,,,001,2023-12-14_24h19.37.880,bars,2023.2.3,Win32,144.9275362,,,,,,594.6928,595.6923,,,596.1889,596.4388,,90,90,,,,,,,,,,,,,,,,bars/035.png,bars/mask000.png,,,,,,,,,,,,0,2,,,,,,,6,8,6,8,,,,,,,,,,,595.6923,596.1889,596.4388,601.3627,space,4.9148,,601.3628,85,30,602.3628,602.3628,603.1931,space,0.8213,,0,37,37,37,1,175,60,,,,,,,,
,,,001,2023-12-14_24h19.37.880,bars,2023.2.3,Win32,144.9275362,,,,,,603.1933,604.1892,,,604.6851,604.9323,,49,49,,,,,,,,,,,,,,,,bars/026.png,bars/mask007.png,,,,,,,,,,,,4,1,,,,,,,8,6,8,6,,,,,,,,,,,604.1893,604.6851,604.9324,606.4603,space,1.5141,,606.4603,14,36,607.4603,607.4603,608.245,space,0.7703,,0,38,38,38,1,35,85,,,,,,,,
,,,001,2023-12-14_24h19.37.880,bars,2023.2.3,Win32,144.9275362,,,,,,608.2453,609.245,,,609.7463,609.995,,89,89,,,,,,,,,,,,,,,,bars/018.png,bars/mask004.png,,,,,,,,,,,,4,2,,,,,,,6,4,4,4,,,,,,,,,,,609.2451,609.7463,609.9951,613.5805,space,3.5766,,613.5805,61,1,614.5786,614.5787,616.3219,space,1.7271,,0,39,39,39,1,150,90,,,,,,,,
,,,001,2023-12-14_24h19.37.880,bars,2023.2.3,Win32,144.9275362,,,,,,616.322,617.3218,,,617.8219,618.0718,,161,161,,,,,,,,,,,,,,,,bars/008.png,bars/mask007.png,,,,,,,,,,,,2,2,,,,,,,4,6,5,5,,,,,,,,,,,617.3218,617.8219,618.0719,620.3515,space,2.2691,,620.3515,51,19,621.3499,621.3499,622.7388,space,1.3791,,0,40,40,40,1,110,0,,,,,,,,
,,,001,2023-12-14_24h19.37.880,bars,2023.2.3,Win32,144.9275362,,,,,,622.739,623.7352,,,624.2319,624.477,,122,122,,,,,,,,,,,,,,,,bars/019.png,bars/mask008.png,,,,,,,,,,,,3,2,,,,,,,6,8,8,8,,,,,,,,,,,623.7353,624.2319,624.477,626.1625,space,1.6742,,626.1626,77,17,627.1626,627.1626,628.1905,space,1.0169,,0,41,41,41,1,45,105,,,,,,,,
,,,001,2023-12-14_24h19.37.880,bars,2023.2.3,Win32,144.9275362,,,,,,628.1907,629.1904,,,629.6915,629.9364,,47,47,,,,,,,,,,,,,,,,bars/002.png,bars/mask003.png,,,,,,,,,,,,0,2,,,,,,,8,6,7,7,,,,,,,,,,,629.1905,629.6915,629.9365,631.9337,space,1.9885,,631.9337,83,38,632.9337,632.9337,634.5381,space,1.5911,,0,42,42,42,1,130,85,,,,,,,,
,,,001,2023-12-14_24h19.37.880,bars,2023.2.3,Win32,144.9275362,,,,,,634.5383,635.538,,,636.038,636.288,,139,139,,,,,,,,,,,,,,,,bars/023.png,bars/mask008.png,,,,,,,,,,,,1,2,,,,,,,6,4,6,5,,,,,,,,,,,635.538,636.038,636.288,640.2883,space,3.9891,,640.2883,61,24,641.2883,641.2883,642.0523,space,0.751,,0,43,43,43,1,20,115,,,,,,,,
,,,001,2023-12-14_24h19.37.880,bars,2023.2.3,Win32,144.9275362,,,,,,642.0525,643.0523,,,643.5523,643.8023,,31,31,,,,,,,,,,,,,,,,bars/037.png,bars/mask009.png,,,,,,,,,,,,0,1,,,,,,,4,2,5,2,,,,,,,,,,,643.0523,643.5523,643.8023,646.0195,space,2.2068,,646.0195,61,74,647.0177,647.0177,647.8827,space,0.8561,,0,44,44,44,1,150,105,,,,,,,,
,,,001,2023-12-14_24h19.37.880,bars,2023.2.3,Win32,144.9275362,,,,,,647.8829,648.8789,,,649.3756,649.622,,97,97,,,,,,,,,,,,,,,,bars/032.png,bars/mask001.png,,,,,,,,,,,,0,1,,,,,,,2,0,4,0,,,,,,,,,,,648.8789,649.3756,649.622,653.249,space,3.6166,,653.249,28,77,654.2473,654.2473,655.3585,space,1.0993,,0,45,45,45,1,125,20,,,,,,,,
,,,001,2023-12-14_24h19.37.880,bars,2023.2.3,Win32,144.9275362,,,,,,655.3587,656.3584,,,656.8585,657.1085,,148,-32,,,,,,,,,,,,,,,,bars/002.png,bars/mask002.png,,,,,,,,,,,,1,1,,,,,,,4,0,2,0,,,,,,,,,,,656.3585,656.8585,657.1086,659.6434,space,2.5194,,659.6435,18,63,660.6434,660.6434,661.713,space,1.0552,,0,46,46,46,1,130,85,,,,,,,,
,,,001,2023-12-14_24h19.37.880,bars,2023.2.3,Win32,144.9275362,,,,,,661.7132,662.7149,,,663.213,663.463,,134,134,,,,,,,,,,,,,,,,bars/019.png,bars/mask000.png,,,,,,,,,,,,0,2,,,,,,,2,2,1,1,,,,,,,,,,,662.715,663.213,663.463,665.3557,space,1.884,,665.3557,89,29,666.3555,666.3555,667.0048,space,0.6399,,0,47,47,47,1,45,105,,,,,,,,
,,,001,2023-12-14_24h19.37.880,bars,2023.2.3,Win32,144.9275362,,,,,,667.0051,668.0048,,,668.5016,668.7479,,113,-67,,,,,,,,,,,,,,,,bars/009.png,bars/mask004.png,,,,,,,,,,,,0,2,,,,,,,4,0,4,0,,,,,,,,,,,668.0048,668.5015,668.7479,672.0468,space,3.2867,,672.0468,82,8,673.0468,673.0468,674.4498,space,1.3869,,0,48,48,48,1,15,105,,,,,,,,
,,,001,2023-12-14_24h19.37.880,bars,2023.2.3,Win32,144.9275362,,,,,,674.4499,675.4497,,,675.9497,676.1997,,111,111,,,,,,,,,,,,,,,,bars/000.png,bars/mask008.png,,,,,,,,,,,,0,2,,,,,,,6,0,6,1,,,,,,,,,,,675.4497,675.9497,676.1997,678.8216,space,2.6132,,678.8216,71,34,679.8179,679.818,680.8113,space,0.9824,,0,49,49,49,1,40,145,,,,,,,,
,,,001,2023-12-14_24h19.37.880,bars,2023.2.3,Win32,144.9275362,,,,,,,,,,,,,,,,,,,,,,,,,,,,,,,,,,,,,,,,,,,,,,,,,,,,,,,,,,,,,,,,,,,,,,,,,,,,,,,,,,,,,,,,680.8117,740.8074,0,0,0,1,1,sequence_tables/blk030.csv
,,,001,2023-12-14_24h19.37.880,bars,2023.2.3,Win32,144.9275362,,,,,,804.3246,805.3242,,,805.8172,806.0623,,122,122,,,,,,,,,,,,,,,,bars/049.png,bars/mask001.png,,,,,,,,,,,,1,2,,,,,,,4,1,4,1,,,,,,740.8126,804.3171,space,63.499,,805.3242,805.8172,806.0623,808.5258,space,2.4538,,808.5258,38,7,809.5257,809.5257,809.5311,,,,0,0,0,0,1,160,115,,,,,,,,
,,,001,2023-12-14_24h19.37.880,bars,2023.2.3,Win32,144.9275362,,,,,,809.5312,810.5327,,,811.0328,811.2843,,101,101,,,,,,,,,,,,,,,,bars/002.png,bars/mask000.png,,,,,,,,,,,,0,2,,,,,,,6,0,8,0,,,,,,,,,,,810.5327,811.0327,811.2844,813.394,space,2.1004,,813.394,29,16,814.3903,814.3903,814.3954,,,,0,1,1,1,1,130,85,,,,,,,,
,,,001,2023-12-14_24h19.37.880,bars,2023.2.3,Win32,144.9275362,,,,,,814.3955,815.3961,,,815.8942,816.1441,,170,170,,,,,,,,,,,,,,,,bars/022.png,bars/mask006.png,,,,,,,,,,,,0,2,,,,,,,4,2,2,2,,,,,,,,,,,815.3961,815.8942,816.1441,818.5836,space,2.4291,,818.5836,75,30,819.5817,819.5817,819.5867,,,,0,2,2,2,1,95,20,,,,,,,,
,,,001,2023-12-14_24h19.37.880,bars,2023.2.3,Win32,144.9275362,,,,,,819.5868,820.5818,,,821.0818,821.3318,,89,89,,,,,,,,,,,,,,,,bars/014.png,bars/mask002.png,,,,,,,,,,,,1,1,,,,,,,2,0,2,0,,,,,,,,,,,820.5819,821.0818,821.3318,823.8598,space,2.5137,,823.8598,9,89,824.8598,824.8598,824.8652,,,,0,3,3,3,1,80,0,,,,,,,,
,,,001,2023-12-14_24h19.37.880,bars,2023.2.3,Win32,144.9275362,,,,,,824.8654,825.8668,,,826.3669,826.6205,,136,136,,,,,,,,,,,,,,,,bars/018.png,bars/mask007.png,,,,,,,,,,,,2,1,,,,,,,4,0,4,0,,,,,,,,,,,825.8668,826.3669,826.6205,829.5407,space,2.912,,829.5407,14,46,830.5406,830.5407,830.5457,,,,0,4,4,4,1,150,90,,,,,,,,
,,,001,2023-12-14_24h19.37.880,bars,2023.2.3,Win32,144.9275362,,,,,,830.5459,831.5499,,,832.0498,832.2977,,45,45,,,,,,,,,,,,,,,,bars/000.png,bars/mask008.png,,,,,,,,,,,,3,1,,,,,,,2,2,3,1,,,,,,,,,,,831.5499,832.0498,832.2977,835.9466,space,3.6401,,835.9466,5,80,836.9438,836.9438,836.9488,,,,0,5,5,5,1,40,145,,,,,,,,
,,,001,2023-12-14_24h19.37.880,bars,2023.2.3,Win32,144.9275362,,,,,,836.949,837.9464,,,838.4438,838.6939,,90,90,,,,,,,,,,,,,,,,bars/018.png,bars/mask009.png,,,,,,,,,,,,3,2,,,,,,,0,4,1,3,,,,,,,,,,,837.9465,838.4438,838.6939,842.2109,space,3.5066,,842.2109,60,0,843.208,843.208,843.2135,,,,0,6,6,6,1,150,90,,,,,,,,
,,,001,2023-12-14_24h19.37.880,bars,2023.2.3,Win32,144.9275362,,,,,,843.2136,844.2149,,,844.715,844.967,,63,63,,,,,,,,,,,,,,,,bars/035.png,bars/mask002.png,,,,,,,,,,,,6,2,,,,,,,0,6,0,7,,,,,,,,,,,844.2149,844.715,844.967,848.8263,space,3.8539,,848.8263,68,3,849.8234,849.8234,849.8285,,,,0,7,7,7,1,175,60,,,,,,,,
,,,001,2023-12-14_24h19.37.880,bars,2023.2.3,Win32,144.9275362,,,,,,849.8286,850.8264,,,851.3231,851.5694,,75,75,,,,,,,,,,,,,,,,bars/025.png,bars/mask005.png,,,,,,,,,,,,0,1,,,,,,,2,8,2,8,,,,,,,,,,,850.8264,851.3231,851.5694,853.9863,space,2.4101,,853.9863,30,35,854.9862,854.9863,854.9919,,,,0,8,8,8,1,105,40,,,,,,,,
,,,001,2023-12-14_24h19.37.880,bars,2023.2.3,Win32,144.9275362,,,,,,854.992,855.9933,,,856.4933,856.7433,,167,167,,,,,,,,,,,,,,,,bars/045.png,bars/mask007.png,,,,,,,,,,,,2,2,,,,,,,4,6,4,7,,,,,,,,,,,855.9933,856.4933,856.7433,860.0352,space,3.2809,,860.0352,67,23,861.0352,861.0352,861.0407,,,,0,9,9,9,1,100,10,,,,,,,,
,,,001,2023-12-14_24h19.37.880,bars,2023.2.3,Win32,144.9275362,,,,,,861.0408,862.0421,,,862.5422,862.7922,,173,173,,,,,,,,,,,,,,,,bars/049.png,bars/mask008.png,,,,,,,,,,,,0,1,,,,,,,2,8,0,8,,,,,,,,,,,862.0422,862.5422,862.7922,863.5562,space,0.7571,,863.5562,13,58,864.5561,864.5561,864.557,,,,0,10,10,10,1,160,115,,,,,,,,
,,,001,2023-12-14_24h19.37.880,bars,2023.2.3,Win32,144.9275362,,,,,,864.557,865.5594,,,866.0595,866.3064,,14,14,,,,,,,,,,,,,,,,bars/048.png,bars/mask001.png,,,,,,,,,,,,3,2,,,,,,,4,10,4,8,,,,,,,,,,,865.5594,866.0595,866.3064,866.8341,space,0.5139,,866.8341,36,19,867.8341,867.8341,867.8349,,,,0,11,11,11,1,50,175,,,,,,,,
,,,001,2023-12-14_24h19.37.880,bars,2023.2.3,Win32,144.9275362,,,,,,867.835,868.8363,,,869.3343,869.5842,,140,140,,,,,,,,,,,,,,,,bars/006.png,bars/mask009.png,,,,,,,,,,,,0,2,,,,,,,2,8,3,10,,,,,,,,,,,868.8363,869.3343,869.5842,870.994,space,1.3985,,870.994,75,40,871.9941,871.9941,871.9944,,,,0,12,12,12,1,35,100,,,,,,,,
,,,001,2023-12-14_24h19.37.880,bars,2023.2.3,Win32,144.9275362,,,,,,871.9945,872.9907,,,873.4872,873.7341,,90,90,,,,,,,,,,,,,,,,bars/035.png,bars/mask008.png,,,,,,,,,,,,0,2,,,,,,,0,10,0,9,,,,,,,,,,,872.9907,873.4872,873.7341,880.2953,space,6.5545,,880.2953,85,30,881.2931,881.2931,881.2984,,,,0,13,13,13,1,175,60,,,,,,,,
,,,001,2023-12-14_24h19.37.880,bars,2023.2.3,Win32,144.9275362,,,,,,881.2985,882.3031,,,882.8037,883.0501,,71,71,,,,,,,,,,,,,,,,bars/033.png,bars/mask003.png,,,,,,,,,,,,0,1,,,,,,,2,10,1,10,,,,,,,,,,,882.3031,882.8037,883.0501,883.571,space,0.5101,,883.571,46,84,884.571,884.5711,884.5719,,,,0,14,14,14,1,25,155,,,,,,,,
,,,001,2023-12-14_24h19.37.880,bars,2023.2.3,Win32,144.9275362,,,,,,884.572,885.5711,,,886.0711,886.3211,,92,92,,,,,,,,,,,,,,,,bars/028.png,bars/mask002.png,,,,,,,,,,,,0,2,,,,,,,0,8,0,6,,,,,,,,,,,885.5711,886.0711,886.3211,887.3074,space,0.9743,,887.3074,47,28,888.3074,888.3074,888.3083,,,,0,15,15,15,1,45,120,,,,,,,,
,,,001,2023-12-14_24h19.37.880,bars,2023.2.3,Win32,144.9275362,,,,,,888.3083,889.304,,,889.8005,890.0505,,168,168,,,,,,,,,,,,,,,,bars/025.png,bars/mask001.png,,,,,,,,,,,,0,2,,,,,,,0,6,1,5,,,,,,,,,,,889.304,889.8005,890.0505,890.9256,space,0.8612,,890.9256,63,52,891.9256,891.9256,891.9259,,,,0,16,16,16,1,105,40,,,,,,,,
,,,001,2023-12-14_24h19.37.880,bars,2023.2.3,Win32,144.9275362,,,,,,891.9261,892.9256,,,893.4276,893.6756,,50,50,,,,,,,,,,,,,,,,bars/039.png,bars/mask005.png,,,,,,,,,,,,0,2,,,,,,,0,8,0,8,,,,,,,,,,,892.9256,893.4276,893.6757,895.853,space,2.167,,895.853,55,55,896.8494,896.8495,896.8545,,,,0,17,17,17,1,175,105,,,,,,,,
,,,001,2023-12-14_24h19.37.880,bars,2023.2.3,Win32,144.9275362,,,,,,896.8546,897.8495,,,898.3495,898.6008,,129,129,,,,,,,,,,,,,,,,bars/026.png,bars/mask007.png,,,,,,,,,,,,0,2,,,,,,,0,10,0,10,,,,,,,,,,,897.8495,898.3495,898.6008,901.0857,space,2.4753,,901.0858,86,44,902.0858,902.0859,902.0908,,,,0,18,18,18,1,35,85,,,,,,,,
,,,001,2023-12-14_24h19.37.880,bars,2023.2.3,Win32,144.9275362,,,,,,902.091,903.0894,,,903.586,903.8359,,176,176,,,,,,,,,,,,,,,,bars/033.png,bars/mask007.png,,,,,,,,,,,,3,2,,,,,,,2,8,2,9,,,,,,,,,,,903.0894,903.5859,903.8359,907.0237,space,3.1769,,907.0237,29,21,908.0236,908.0236,908.0286,,,,0,19,19,19,1,25,155,,,,,,,,
,,,001,2023-12-14_24h19.37.880,bars,2023.2.3,Win32,144.9275362,,,,,,908.0286,909.0236,,,909.5237,909.7737,,71,71,,,,,,,,,,,,,,,,bars/027.png,bars/mask003.png,,,,,,,,,,,,2,2,,,,,,,4,6,4,7,,,,,,,,,,,909.0237,909.5237,909.7737,912.9024,space,3.1185,,912.9025,39,21,913.9024,913.9024,913.9074,,,,0,20,20,20,1,110,50,,,,,,,,
,,,001,2023-12-14_24h19.37.880,bars,2023.2.3,Win32,144.9275362,,,,,,913.9074,914.9059,,,915.4059,915.6559,,136,136,,,,,,,,,,,,,,,,bars/020.png,bars/mask007.png,,,,,,,,,,,,2,1,,,,,,,6,8,7,7,,,,,,,,,,,914.9059,915.4059,915.6559,919.0241,space,3.3573,,919.0242,21,34,920.0242,920.0242,920.0297,,,,0,21,21,21,1,115,170,,,,,,,,
,,,001,2023-12-14_24h19.37.880,bars,2023.2.3,Win32,144.9275362,,,,,,920.0298,921.0311,,,921.5313,921.7812,,33,213,,,,,,,,,,,,,,,,bars/016.png,bars/mask006.png,,,,,,,,,,,,4,1,,,,,,,4,10,5,10,,,,,,,,,,,921.0312,921.5313,921.7812,927.2121,space,5.4167,,927.2121,7,48,928.2121,928.2121,928.2171,,,,0,22,22,22,1,40,165,,,,,,,,
,,,001,2023-12-14_24h19.37.880,bars,2023.2.3,Win32,144.9275362,,,,,,928.2171,929.2121,,,929.7122,929.9658,,10,190,,,,,,,,,,,,,,,,bars/004.png,bars/mask006.png,,,,,,,,,,,,4,1,,,,,,,6,8,7,9,,,,,,,,,,,929.2122,929.7121,929.9658,932.5804,space,2.6045,,932.5804,15,65,933.5806,933.5806,933.5863,,,,0,23,23,23,1,25,125,,,,,,,,
,,,001,2023-12-14_24h19.37.880,bars,2023.2.3,Win32,144.9275362,,,,,,933.5865,934.5874,,,935.0874,935.3326,,23,23,,,,,,,,,,,,,,,,bars/033.png,bars/mask008.png,,,,,,,,,,,,8,1,,,,,,,8,10,9,10,,,,,,,,,,,934.5874,935.0874,935.3326,937.2681,space,1.9244,,937.2681,2,48,938.2716,938.2716,938.2719,,,,0,24,24,24,1,25,155,,,,,,,,
,,,001,2023-12-14_24h19.37.880,bars,2023.2.3,Win32,144.9275362,,,,,,938.272,939.2681,,,939.7682,940.0218,,62,62,,,,,,,,,,,,,,,,bars/034.png,bars/mask004.png,,,,,,,,,,,,8,2,,,,,,,10,8,10,9,,,,,,,,,,,939.2682,939.7682,940.0218,942.2683,space,2.2387,,942.2683,63,3,943.2687,943.2687,943.276,,,,0,25,25,25,1,125,65,,,,,,,,
,,,001,2023-12-14_24h19.37.880,bars,2023.2.3,Win32,144.9275362,,,,,,943.2761,944.2753,,,944.7755,945.0254,,145,145,,,,,,,,,,,,,,,,bars/049.png,bars/mask007.png,,,,,,,,,,,,5,1,,,,,,,10,10,10,10,,,,,,,,,,,944.2754,944.7754,945.0254,946.6575,space,1.6258,,946.6575,15,30,947.6575,947.6575,947.6583,,,,0,26,26,26,1,160,115,,,,,,,,
,,,001,2023-12-14_24h19.37.880,bars,2023.2.3,Win32,144.9275362,,,,,,947.6584,948.6576,,,949.1576,949.4076,,167,-13,,,,,,,,,,,,,,,,bars/030.png,bars/mask002.png,,,,,,,,,,,,1,1,,,,,,,8,10,7,10,,,,,,,,,,,948.6576,949.1576,949.4076,951.4355,space,2.0143,,951.4355,27,78,952.4355,952.4355,952.4406,,,,0,27,27,27,1,140,65,,,,,,,,
,,,001,2023-12-14_24h19.37.880,bars,2023.2.3,Win32,144.9275362,,,,,,952.4407,953.4356,,,953.9356,954.1856,,80,80,,,,,,,,,,,,,,,,bars/025.png,bars/mask003.png,,,,,,,,,,,,2,1,,,,,,,10,8,10,7,,,,,,,,,,,953.4356,953.9356,954.1856,957.8128,space,3.6169,,957.8128,25,40,958.8108,958.8108,958.8157,,,,0,28,28,28,1,105,40,,,,,,,,
,,,001,2023-12-14_24h19.37.880,bars,2023.2.3,Win32,144.9275362,,,,,,958.8159,959.8108,,,960.3109,960.561,,8,8,,,,,,,,,,,,,,,,bars/043.png,bars/mask008.png,,,,,,,,,,,,3,1,,,,,,,10,6,10,5,,,,,,,,,,,959.8108,960.3109,960.561,966.2834,space,5.7106,,966.2835,22,58,967.2834,967.2834,967.2887,,,,0,29,29,29,1,30,130,,,,,,,,
,,,001,2023-12-14_24h19.37.880,bars,2023.2.3,Win32,144.9275362,,,,,,967.2889,968.2904,,,968.7905,969.0441,,31,211,,,,,,,,,,,,,,,,bars/043.png,bars/mask009.png,,,,,,,,,,,,7,1,,,,,,,8,8,7,8,,,,,,,,,,,968.2904,968.7905,969.0441,971.5337,space,2.4817,,971.5337,1,81,972.5338,972.5338,972.5386,,,,0,30,30,30,1,30,130,,,,,,,,
,,,001,2023-12-14_24h19.37.880,bars,2023.2.3,Win32,144.9275362,,,,,,972.5387,973.5337,,,974.0338,974.2838,,125,125,,,,,,,,,,,,,,,,bars/034.png,bars/mask008.png,,,,,,,,,,,,5,1,,,,,,,6,10,5,10,,,,,,,,,,,973.5338,974.0338,974.2838,976.8623,space,2.568,,976.8623,0,60,977.8604,977.8604,977.8652,,,,0,31,31,31,1,125,65,,,,,,,,
,,,001,2023-12-14_24h19.37.880,bars,2023.2.3,Win32,144.9275362,,,,,,977.8653,978.8604,,,979.3605,979.6104,,75,75,,,,,,,,,,,,,,,,bars/025.png,bars/mask006.png,,,,,,,,,,,,0,1,,,,,,,4,10,4,10,,,,,,,,,,,978.8604,979.3605,979.6105,982.8676,space,3.244,,982.8676,30,35,983.8676,983.8676,983.8726,,,,0,32,32,32,1,105,40,,,,,,,,
,,,001,2023-12-14_24h19.37.880,bars,2023.2.3,Win32,144.9275362,,,,,,983.8727,984.8676,,,985.3677,985.6177,,166,-14,,,,,,,,,,,,,,,,bars/042.png,bars/mask009.png,,,,,,,,,,,,2,1,,,,,,,6,10,5,10,,,,,,,,,,,984.8677,985.3677,985.6178,989.6474,space,4.0193,,989.6476,21,89,990.6457,990.6457,990.6507,,,,0,33,33,33,1,145,75,,,,,,,,
,,,001,2023-12-14_24h19.37.880,bars,2023.2.3,Win32,144.9275362,,,,,,990.6507,991.6457,,,992.1458,992.3958,,71,71,,,,,,,,,,,,,,,,bars/048.png,bars/mask009.png,,,,,,,,,,,,1,1,,,,,,,4,10,3,10,,,,,,,,,,,991.6458,992.1457,992.3958,995.4932,space,3.0822,,995.4933,21,76,996.4932,996.4932,996.4983,,,,0,34,34,34,1,50,175,,,,,,,,
,,,001,2023-12-14_24h19.37.880,bars,2023.2.3,Win32,144.9275362,,,,,,996.4984,997.4933,,,997.9933,998.2432,,49,49,,,,,,,,,,,,,,,,bars/017.png,bars/mask004.png,,,,,,,,,,,,6,2,,,,,,,6,8,6,7,,,,,,,,,,,997.4933,997.9933,998.2433,1001.549,space,3.2941,,1001.549,84,4,1002.5491,1002.5491,1002.5548,,,,0,35,35,35,1,145,45,,,,,,,,
,,,001,2023-12-14_24h19.37.880,bars,2023.2.3,Win32,144.9275362,,,,,,1002.555,1003.5579,,,1004.0527,1004.2992,,100,100,,,,,,,,,,,,,,,,bars/019.png,bars/mask002.png,,,,,,,,,,,,8,2,,,,,,,8,10,9,10,,,,,,,,,,,1003.5579,1004.0527,1004.2992,1006.8826,space,2.5709,,1006.8827,55,5,1007.8827,1007.8827,1007.8877,,,,0,36,36,36,1,45,105,,,,,,,,
,,,001,2023-12-14_24h19.37.880,bars,2023.2.3,Win32,144.9275362,,,,,,1007.8879,1008.8897,,,1009.3897,1009.6397,,159,159,,,,,,,,,,,,,,,,bars/044.png,bars/mask001.png,,,,,,,,,,,,8,2,,,,,,,10,8,10,9,,,,,,,,,,,1008.8897,1009.3897,1009.6397,1011.6157,space,1.9658,,1011.6157,84,4,1012.6121,1012.6121,1012.617,,,,0,37,37,37,1,75,155,,,,,,,,
,,,001,2023-12-14_24h19.37.880,bars,2023.2.3,Win32,144.9275362,,,,,,1012.617,1013.6121,,,1014.1121,1014.3622,,23,203,,,,,,,,,,,,,,,,bars/012.png,bars/mask001.png,,,,,,,,,,,,7,2,,,,,,,8,10,7,10,,,,,,,,,,,1013.6121,1014.1121,1014.3622,1018.0012,space,3.6237,,1018.0012,67,8,1019.0013,1019.0013,1019.0061,,,,0,38,38,38,1,90,15,,,,,,,,
,,,001,2023-12-14_24h19.37.880,bars,2023.2.3,Win32,144.9275362,,,,,,1019.0062,1020.0013,,,1020.5014,1020.7514,,17,197,,,,,,,,,,,,,,,,bars/041.png,bars/mask000.png,,,,,,,,,,,,5,1,,,,,,,6,10,5,10,,,,,,,,,,,1020.0013,1020.5014,1020.7514,1023.0674,space,2.3055,,1023.0674,3,68,1024.064,1024.064,1024.0695,,,,0,39,39,39,1,20,85,,,,,,,,
,,,001,2023-12-14_24h19.37.880,bars,2023.2.3,Win32,144.9275362,,,,,,1024.0697,1025.073,,,1025.5711,1025.821,,36,216,,,,,,,,,,,,,,,,bars/036.png,bars/mask000.png,,,,,,,,,,,,5,2,,,,,,,4,10,2,10,,,,,,,,,,,1025.0731,1025.571,1025.821,1029.863,space,4.0373,,1029.863,71,16,1030.8653,1030.8653,1030.871,,,,0,40,40,40,1,145,20,,,,,,,,
,,,001,2023-12-14_24h19.37.880,bars,2023.2.3,Win32,144.9275362,,,,,,1030.8711,1031.87,,,1032.3728,1032.62,,49,49,,,,,,,,,,,,,,,,bars/016.png,bars/mask006.png,,,,,,,,,,,,4,1,,,,,,,6,10,5,10,,,,,,,,,,,1031.87,1032.3728,1032.62,1048.2668,space,15.6361,,1048.2668,9,64,1049.2668,1049.2669,1049.2679,,,,0,41,41,41,1,40,165,,,,,,,,
,,,001,2023-12-14_24h19.37.880,bars,2023.2.3,Win32,144.9275362,,,,,,1049.268,1050.2668,,,1050.767,1051.0169,,54,54,,,,,,,,,,,,,,,,bars/048.png,bars/mask000.png,,,,,,,,,,,,3,1,,,,,,,4,10,4,10,,,,,,,,,,,1050.2668,1050.767,1051.0169,1054.6987,space,3.6808,,1054.6987,4,59,1055.6976,1055.6976,1055.7027,,,,0,42,42,42,1,50,175,,,,,,,,
,,,001,2023-12-14_24h19.37.880,bars,2023.2.3,Win32,144.9275362,,,,,,1055.7028,1056.7046,,,1057.2046,1057.4546,,150,-30,,,,,,,,,,,,,,,,bars/035.png,bars/mask000.png,,,,,,,,,,,,0,1,,,,,,,2,10,1,9,,,,,,,,,,,1056.7046,1057.2046,1057.4546,1062.2882,space,4.8218,,1062.2883,25,90,1063.2886,1063.2886,1063.2937,,,,0,43,43,43,1,175,60,,,,,,,,
,,,001,2023-12-14_24h19.37.880,bars,2023.2.3,Win32,144.9275362,,,,,,1063.2938,1064.2952,,,1064.7953,1065.0453,,115,115,,,,,,,,,,,,,,,,bars/004.png,bars/mask005.png,,,,,,,,,,,,4,2,,,,,,,0,8,0,6,,,,,,,,,,,1064.2952,1064.7953,1065.0453,1066.5455,space,1.4908,,1066.5455,90,10,1067.5453,1067.5454,1067.5468,,,,0,44,44,44,1,25,125,,,,,,,,
,,,001,2023-12-14_24h19.37.880,bars,2023.2.3,Win32,144.9275362,,,,,,1067.5469,1068.5456,,,1069.0456,1069.2955,,52,52,,,,,,,,,,,,,,,,bars/032.png,bars/mask005.png,,,,,,,,,,,,0,2,,,,,,,0,10,1,10,,,,,,,,,,,1068.5457,1069.0455,1069.2955,1071.1429,space,1.8382,,1071.1429,73,32,1072.1429,1072.143,1072.1486,,,,0,45,45,45,1,125,20,,,,,,,,
,,,001,2023-12-14_24h19.37.880,bars,2023.2.3,Win32,144.9275362,,,,,,1072.1487,1073.1501,,,1073.6526,1073.9,,34,34,,,,,,,,,,,,,,,,bars/004.png,bars/mask005.png,,,,,,,,,,,,1,1,,,,,,,2,10,2,10,,,,,,,,,,,1073.1501,1073.6525,1073.9,1082.7685,space,8.859,,1082.7685,9,89,1083.771,1083.7711,1083.7769,,,,0,46,46,46,1,25,125,,,,,,,,
,,,001,2023-12-14_24h19.37.880,bars,2023.2.3,Win32,144.9275362,,,,,,1083.7771,1084.7754,,,1085.2756,1085.5254,,70,70,,,,,,,,,,,,,,,,bars/027.png,bars/mask002.png,,,,,,,,,,,,3,2,,,,,,,0,10,1,10,,,,,,,,,,,1084.7755,1085.2755,1085.5254,1088.0686,space,2.5328,,1088.0686,40,20,1089.0673,1089.0673,1089.0733,,,,0,47,47,47,1,110,50,,,,,,,,
,,,001,2023-12-14_24h19.37.880,bars,2023.2.3,Win32,144.9275362,,,,,,1089.0736,1090.0743,,,1090.5744,1090.8243,,110,110,,,,,,,,,,,,,,,,bars/044.png,bars/mask003.png,,,,,,,,,,,,0,1,,,,,,,2,10,2,10,,,,,,,,,,,1090.0744,1090.5744,1090.8243,1093.4217,space,2.5914,,1093.4217,35,45,1094.4217,1094.4217,1094.4271,,,,0,48,48,48,1,75,155,,,,,,,,
,,,001,2023-12-14_24h19.37.880,bars,2023.2.3,Win32,144.9275362,,,,,,1094.4273,1095.4287,,,1095.9288,1096.1788,,170,170,,,,,,,,,,,,,,,,bars/045.png,bars/mask008.png,,,,,,,,,,,,3,2,,,,,,,0,10,0,8,,,,,,,,,,,1095.4288,1095.9287,1096.1788,1101.5548,space,5.3674,,1101.5548,70,20,1102.5543,1102.5543,1102.5602,,,,0,49,49,49,1,100,10,,,,,,,,
,,,001,2023-12-14_24h19.37.880,bars,2023.2.3,Win32,144.9275362,,,,,,,,,,,,,,,,,,,,,,,,,,,,,,,,,,,,,,,,,,,,,,,,,,,,,,,,,,,,,,,,,,,,,,,,,,,,,,,,,,,,,,,,1102.5603,1162.5573,0,1,1,0,1,sequence_tables/blk031.csv
,,,001,2023-12-14_24h19.37.880,bars,2023.2.3,Win32,144.9275362,,,,,,1168.7799,1169.7726,,,1170.2728,1170.5227,,73,73,,,,,,,,,,,,,,,,bars/025.png,bars/mask008.png,,,,,,,,,,,,0,1,,,,,,,5,7,6,8,,,,,,1162.5632,1168.7726,space,6.2072,,1169.7726,1170.2728,1170.5227,1173.5939,space,3.0683,,1173.594,32,33,1174.5924,1174.5924,1174.598,,,,0,0,0,0,1,105,40,,,,,,,,
,,,001,2023-12-14_24h19.37.880,bars,2023.2.3,Win32,144.9275362,,,,,,1174.5982,1175.6009,,,1176.1047,1176.3493,,58,58,,,,,,,,,,,,,,,,bars/007.png,bars/mask000.png,,,,,,,,,,,,7,2,,,,,,,7,9,5,8,,,,,,,,,,,1175.6009,1176.1047,1176.3493,1179.2593,space,2.8995,,1179.2593,63,3,1180.2593,1180.2594,1180.2649,,,,0,1,1,1,1,175,55,,,,,,,,
,,,001,2023-12-14_24h19.37.880,bars,2023.2.3,Win32,144.9275362,,,,,,1180.265,1181.2663,,,1181.7665,1182.0163,,69,69,,,,,,,,,,,,,,,,bars/010.png,bars/mask001.png,,,,,,,,,,,,5,2,,,,,,,5,10,4,10,,,,,,,,,,,1181.2663,1181.7665,1182.0163,1184.2053,space,2.1817,,1184.2053,84,14,1185.204,1185.204,1185.2089,,,,0,2,2,2,1,165,55,,,,,,,,
,,,001,2023-12-14_24h19.37.880,bars,2023.2.3,Win32,144.9275362,,,,,,1185.2091,1186.211,,,1186.711,1186.9627,,67,67,,,,,,,,,,,,,,,,bars/019.png,bars/mask006.png,,,,,,,,,,,,1,1,,,,,,,3,10,2,9,,,,,,,,,,,1186.211,1186.711,1186.9627,1190.712,space,3.7415,,1190.712,22,38,1191.7116,1191.7116,1191.7174,,,,0,3,3,3,1,45,105,,,,,,,,
,,,001,2023-12-14_24h19.37.880,bars,2023.2.3,Win32,144.9275362,,,,,,1191.7176,1192.719,,,1193.2183,1193.4687,,164,164,,,,,,,,,,,,,,,,bars/039.png,bars/mask007.png,,,,,,,,,,,,0,1,,,,,,,1,10,0,10,,,,,,,,,,,1192.719,1193.2183,1193.4687,1194.9823,space,1.5028,,1194.9823,11,59,1195.9822,1195.9823,1195.9827,,,,0,4,4,4,1,175,105,,,,,,,,
,,,001,2023-12-14_24h19.37.880,bars,2023.2.3,Win32,144.9275362,,,,,,1195.9827,1196.9849,,,1197.4824,1197.7323,,169,169,,,,,,,,,,,,,,,,bars/049.png,bars/mask004.png,,,,,,,,,,,,1,1,,,,,,,0,10,1,10,,,,,,,,,,,1196.9849,1197.4823,1197.7324,1200.1005,space,2.3587,,1200.1006,9,54,1201.101,1201.101,1201.1061,,,,0,5,5,5,1,160,115,,,,,,,,
,,,001,2023-12-14_24h19.37.880,bars,2023.2.3,Win32,144.9275362,,,,,,1201.1062,1202.1076,,,1202.6085,1202.8576,,16,16,,,,,,,,,,,,,,,,bars/032.png,bars/mask009.png,,,,,,,,,,,,9,2,,,,,,,2,8,1,10,,,,,,,,,,,1202.1076,1202.6084,1202.8576,1205.7119,space,2.8505,,1205.712,71,4,1206.7119,1206.7119,1206.7174,,,,0,6,6,6,1,125,20,,,,,,,,
,,,001,2023-12-14_24h19.37.880,bars,2023.2.3,Win32,144.9275362,,,,,,1206.7176,1207.7189,,,1208.219,1208.469,,157,-23,,,,,,,,,,,,,,,,bars/036.png,bars/mask004.png,,,,,,,,,,,,0,1,,,,,,,0,6,0,5,,,,,,,,,,,1207.7189,1208.219,1208.469,1212.8589,space,4.387,,1212.859,12,43,1213.8581,1213.8582,1213.8638,,,,0,7,7,7,1,145,20,,,,,,,,
,,,001,2023-12-14_24h19.37.880,bars,2023.2.3,Win32,144.9275362,,,,,,1213.864,1214.8651,,,1215.3653,1215.6152,,26,26,,,,,,,,,,,,,,,,bars/016.png,bars/mask009.png,,,,,,,,,,,,1,1,,,,,,,0,8,1,7,,,,,,,,,,,1214.8652,1215.3653,1215.6152,1233.9218,space,18.2941,,1233.9219,14,41,1234.9217,1234.9217,1234.928,,,,0,8,8,8,1,40,165,,,,,,,,
,,,001,2023-12-14_24h19.37.880,bars,2023.2.3,Win32,144.9275362,,,,,,1234.9281,1235.9287,,,1236.4286,1236.6787,,9,9,,,,,,,,,,,,,,,,bars/045.png,bars/mask003.png,,,,,,,,,,,,5,2,,,,,,,0,6,0,5,,,,,,,,,,,1235.9287,1236.4286,1236.6787,1239.0714,space,2.392,,1239.0714,89,1,1240.0678,1240.0678,1240.0731,,,,0,9,9,9,1,100,10,,,,,,,,
,,,001,2023-12-14_24h19.37.880,bars,2023.2.3,Win32,144.9275362,,,,,,1240.0732,1241.0747,,,1241.5754,1241.8248,,161,-19,,,,,,,,,,,,,,,,bars/003.png,bars/mask009.png,,,,,,,,,,,,2,2,,,,,,,0,8,1,8,,,,,,,,,,,1241.0747,1241.5754,1241.8248,1243.8458,space,2.0087,,1243.846,44,21,1244.8458,1244.8458,1244.8465,,,,0,10,10,10,1,25,140,,,,,,,,
,,,001,2023-12-14_24h19.37.880,bars,2023.2.3,Win32,144.9275362,,,,,,1244.8466,1245.8473,,,1246.3458,1246.5958,,32,32,,,,,,,,,,,,,,,,bars/013.png,bars/mask009.png,,,,,,,,,,,,3,2,,,,,,,0,10,0,10,,,,,,,,,,,1245.8473,1246.3458,1246.5958,1248.8151,space,2.2177,,1248.8151,43,22,1249.8114,1249.8114,1249.8164,,,,0,11,11,11,1,75,10,,,,,,,,
,,,001,2023-12-14_24h19.37.880,bars,2023.2.3,Win32,144.9275362,,,,,,1249.8165,1250.8126,,,1251.3126,1251.5619,,107,107,,,,,,,,,,,,,,,,bars/023.png,bars/mask005.png,,,,,,,,,,,,6,2,,,,,,,0,8,0,8,,,,,,,,,,,1250.8126,1251.3126,1251.562,1254.1727,space,2.599,,1254.1727,87,8,1255.1727,1255.1727,1255.1778,,,,0,12,12,12,1,20,115,,,,,,,,
,,,001,2023-12-14_24h19.37.880,bars,2023.2.3,Win32,144.9275362,,,,,,1255.1779,1256.1797,,,1256.6797,1256.9313,,81,81,,,,,,,,,,,,,,,,bars/023.png,bars/mask009.png,,,,,,,,,,,,0,2,,,,,,,2,6,2,5,,,,,,,,,,,1256.1797,1256.6797,1256.9313,1260.1799,space,3.2381,,1260.18,61,34,1261.1812,1261.1812,1261.1862,,,,0,13,13,13,1,20,115,,,,,,,,
,,,001,2023-12-14_24h19.37.880,bars,2023.2.3,Win32,144.9275362,,,,,,1261.1864,1262.1868,,,1262.6871,1262.937,,172,172,,,,,,,,,,,,,,,,bars/036.png,bars/mask009.png,,,,,,,,,,,,0,1,,,,,,,0,8,1,8,,,,,,,,,,,1262.1869,1262.6871,1262.937,1264.6253,space,1.6809,,1264.6253,27,28,1265.6245,1265.6245,1265.6302,,,,0,14,14,14,1,145,20,,,,,,,,
,,,001,2023-12-14_24h19.37.880,bars,2023.2.3,Win32,144.9275362,,,,,,1265.6304,1266.6342,,,1267.1318,1267.3816,,99,99,,,,,,,,,,,,,,,,bars/013.png,bars/mask002.png,,,,,,,,,,,,0,1,,,,,,,2,10,0,10,,,,,,,,,,,1266.6342,1267.1318,1267.3816,1270.6611,space,3.2708,,1270.6612,24,89,1271.6597,1271.6597,1271.6647,,,,0,15,15,15,1,75,10,,,,,,,,
,,,001,2023-12-14_24h19.37.880,bars,2023.2.3,Win32,144.9275362,,,,,,1271.6648,1272.6596,,,1273.1597,1273.4099,,169,169,,,,,,,,,,,,,,,,bars/012.png,bars/mask004.png,,,,,,,,,,,,1,2,,,,,,,4,10,2,10,,,,,,,,,,,1272.6597,1273.1596,1273.4099,1275.7015,space,2.2843,,1275.7015,79,26,1276.7015,1276.7015,1276.7023,,,,0,16,16,16,1,90,15,,,,,,,,
,,,001,2023-12-14_24h19.37.880,bars,2023.2.3,Win32,144.9275362,,,,,,1276.7024,1277.7015,,,1278.2016,1278.4515,,5,185,,,,,,,,,,,,,,,,bars/037.png,bars/mask001.png,,,,,,,,,,,,0,1,,,,,,,2,8,2,9,,,,,,,,,,,1277.7015,1278.2016,1278.4515,1280.2887,space,1.8285,,1280.2887,35,80,1281.2851,1281.2851,1281.2916,,,,0,17,17,17,1,150,105,,,,,,,,
,,,001,2023-12-14_24h19.37.880,bars,2023.2.3,Win32,144.9275362,,,,,,1281.2917,1282.293,,,1282.7926,1283.0421,,115,115,,,,,,,,,,,,,,,,bars/037.png,bars/mask004.png,,,,,,,,,,,,5,2,,,,,,,0,6,0,7,,,,,,,,,,,1282.293,1282.7925,1283.0421,1286.0092,space,2.959,,1286.0092,35,10,1287.0075,1287.0075,1287.0136,,,,0,18,18,18,1,150,105,,,,,,,,
,,,001,2023-12-14_24h19.37.880,bars,2023.2.3,Win32,144.9275362,,,,,,1287.0137,1288.0147,,,1288.5162,1288.7646,,81,81,,,,,,,,,,,,,,,,bars/046.png,bars/mask009.png,,,,,,,,,,,,3,2,,,,,,,0,4,2,3,,,,,,,,,,,1288.0147,1288.5161,1288.7646,1293.5706,space,4.7924,,1293.5706,74,4,1294.5704,1294.5704,1294.5762,,,,0,19,19,19,1,155,85,,,,,,,,
,,,001,2023-12-14_24h19.37.880,bars,2023.2.3,Win32,144.9275362,,,,,,1294.5763,1295.5775,,,1296.0774,1296.3275,,96,96,,,,,,,,,,,,,,,,bars/019.png,bars/mask005.png,,,,,,,,,,,,1,2,,,,,,,2,2,1,1,,,,,,,,,,,1295.5775,1296.0774,1296.3276,1297.8554,space,1.5143,,1297.8554,51,9,1298.8553,1298.8554,1298.8558,,,,0,20,20,20,1,45,105,,,,,,,,
,,,001,2023-12-14_24h19.37.880,bars,2023.2.3,Win32,144.9275362,,,,,,1298.8558,1299.8555,,,1300.3555,1300.6084,,82,82,,,,,,,,,,,,,,,,bars/027.png,bars/mask006.png,,,,,,,,,,,,0,1,,,,,,,4,0,4,0,,,,,,,,,,,1299.8555,1300.3555,1300.6085,1302.9181,space,2.2989,,1302.9182,28,32,1303.9181,1303.9181,1303.9238,,,,0,21,21,21,1,110,50,,,,,,,,
,,,001,2023-12-14_24h19.37.880,bars,2023.2.3,Win32,144.9275362,,,,,,1303.9239,1304.9269,,,1305.4262,1305.6751,,178,178,,,,,,,,,,,,,,,,bars/035.png,bars/mask009.png,,,,,,,,,,,,3,1,,,,,,,2,0,3,0,,,,,,,,,,,1304.9269,1305.4261,1305.6751,1307.0103,space,1.3265,,1307.0103,3,62,1308.0085,1308.0086,1308.0091,,,,0,22,22,22,1,175,60,,,,,,,,
,,,001,2023-12-14_24h19.37.880,bars,2023.2.3,Win32,144.9275362,,,,,,1308.0092,1309.0086,,,1309.5086,1309.7602,,30,210,,,,,,,,,,,,,,,,bars/013.png,bars/mask008.png,,,,,,,,,,,,0,2,,,,,,,0,0,1,0,,,,,,,,,,,1309.0086,1309.5086,1309.7602,1312.0782,space,2.3104,,1312.0783,45,20,1313.0783,1313.0783,1313.0843,,,,0,23,23,23,1,75,10,,,,,,,,
,,,001,2023-12-14_24h19.37.880,bars,2023.2.3,Win32,144.9275362,,,,,,1313.0845,1314.0795,,,1314.5798,1314.8284,,11,191,,,,,,,,,,,,,,,,bars/026.png,bars/mask009.png,,,,,,,,,,,,0,1,,,,,,,2,2,2,1,,,,,,,,,,,1314.0795,1314.5798,1314.8284,1317.9466,space,3.1042,,1317.9466,24,74,1318.9466,1318.9466,1318.952,,,,0,24,24,24,1,35,85,,,,,,,,
,,,001,2023-12-14_24h19.37.880,bars,2023.2.3,Win32,144.9275362,,,,,,1318.9522,1319.9535,,,1320.4536,1320.7062,,95,95,,,,,,,,,,,,,,,,bars/006.png,bars/mask000.png,,,,,,,,,,,,0,2,,,,,,,0,0,0,0,,,,,,,,,,,1319.9535,1320.4536,1320.7062,1323.0788,space,2.3622,,1323.0788,60,5,1324.0788,1324.0788,1324.0845,,,,0,25,25,25,1,35,100,,,,,,,,
,,,001,2023-12-14_24h19.37.880,bars,2023.2.3,Win32,144.9275362,,,,,,1324.0845,1325.0884,,,1325.5859,1325.8358,,106,-74,,,,,,,,,,,,,,,,bars/018.png,bars/mask002.png,,,,,,,,,,,,0,2,,,,,,,0,0,0,0,,,,,,,,,,,1325.0885,1325.5859,1325.8359,1329.343,space,3.498,,1329.343,44,16,1330.343,1330.343,1330.3479,,,,0,26,26,26,1,150,90,,,,,,,,
,,,001,2023-12-14_24h19.37.880,bars,2023.2.3,Win32,144.9275362,,,,,,1330.3481,1331.3437,,,1331.8431,1332.0937,,14,14,,,,,,,,,,,,,,,,bars/009.png,bars/mask006.png,,,,,,,,,,,,2,1,,,,,,,2,0,2,1,,,,,,,,,,,1331.3437,1331.8431,1332.0937,1340.92,space,8.816,,1340.92,1,89,1341.9199,1341.92,1341.9257,,,,0,27,27,27,1,15,105,,,,,,,,
,,,001,2023-12-14_24h19.37.880,bars,2023.2.3,Win32,144.9275362,,,,,,1341.9258,1342.9269,,,1343.4271,1343.677,,39,39,,,,,,,,,,,,,,,,bars/016.png,bars/mask006.png,,,,,,,,,,,,2,1,,,,,,,0,2,2,2,,,,,,,,,,,1342.927,1343.4271,1343.6771,1350.8234,space,7.1387,,1350.8234,1,54,1351.8233,1351.8233,1351.829,,,,0,28,28,28,1,40,165,,,,,,,,
,,,001,2023-12-14_24h19.37.880,bars,2023.2.3,Win32,144.9275362,,,,,,1351.8291,1352.8306,,,1353.3307,1353.5805,,179,179,,,,,,,,,,,,,,,,bars/039.png,bars/mask007.png,,,,,,,,,,,,1,1,,,,,,,2,0,1,0,,,,,,,,,,,1352.8306,1353.3307,1353.5805,1355.6395,space,2.0518,,1355.6396,4,74,1356.6375,1356.6375,1356.6425,,,,0,29,29,29,1,175,105,,,,,,,,
,,,001,2023-12-14_24h19.37.880,bars,2023.2.3,Win32,144.9275362,,,,,,1356.6426,1357.6445,,,1358.1431,1358.3929,,140,-40,,,,,,,,,,,,,,,,bars/024.png,bars/mask006.png,,,,,,,,,,,,0,1,,,,,,,0,2,1,3,,,,,,,,,,,1357.6446,1358.143,1358.393,1361.5738,space,3.1677,,1361.5738,20,30,1362.5743,1362.5743,1362.5796,,,,0,30,30,30,1,120,170,,,,,,,,
,,,001,2023-12-14_24h19.37.880,bars,2023.2.3,Win32,144.9275362,,,,,,1362.5797,1363.5807,,,1364.0812,1364.3307,,160,-20,,,,,,,,,,,,,,,,bars/035.png,bars/mask000.png,,,,,,,,,,,,0,1,,,,,,,0,0,0,1,,,,,,,,,,,1363.5808,1364.0812,1364.3307,1366.6573,space,2.3174,,1366.6574,15,80,1367.6574,1367.6574,1367.6578,,,,0,31,31,31,1,175,60,,,,,,,,
,,,001,2023-12-14_24h19.37.880,bars,2023.2.3,Win32,144.9275362,,,,,,1367.658,1368.6574,,,1369.1574,1369.4074,,99,99,,,,,,,,,,,,,,,,bars/012.png,bars/mask005.png,,,,,,,,,,,,1,1,,,,,,,2,2,2,2,,,,,,,,,,,1368.6574,1369.1574,1369.4074,1369.8681,space,0.4521,,1369.8681,9,84,1370.8676,1370.8676,1370.868,,,,0,32,32,32,1,90,15,,,,,,,,
,,,001,2023-12-14_24h19.37.880,bars,2023.2.3,Win32,144.9275362,,,,,,1370.8681,1371.8659,,,1372.366,1372.6159,,106,106,,,,,,,,,,,,,,,,bars/004.png,bars/mask003.png,,,,,,,,,,,,2,2,,,,,,,4,4,4,6,,,,,,,,,,,1371.8659,1372.366,1372.6159,1373.5889,space,0.9646,,1373.589,81,19,1374.5882,1374.5883,1374.5892,,,,0,33,33,33,1,25,125,,,,,,,,
,,,001,2023-12-14_24h19.37.880,bars,2023.2.3,Win32,144.9275362,,,,,,1374.5894,1375.5883,,,1376.0883,1376.3394,,177,177,,,,,,,,,,,,,,,,bars/025.png,bars/mask006.png,,,,,,,,,,,,0,2,,,,,,,6,2,7,2,,,,,,,,,,,1375.5883,1376.0883,1376.3394,1377.5693,space,1.2237,,1377.5693,72,43,1378.5676,1378.5676,1378.568,,,,0,34,34,34,1,105,40,,,,,,,,
,,,001,2023-12-14_24h19.37.880,bars,2023.2.3,Win32,144.9275362,,,,,,1378.568,1379.5676,,,1380.0679,1380.3177,,160,160,,,,,,,,,,,,,,,,bars/035.png,bars/mask002.png,,,,,,,,,,,,2,1,,,,,,,4,4,4,4,,,,,,,,,,,1379.5676,1380.0678,1380.3177,1381.172,space,0.8413,,1381.172,15,80,1382.1725,1382.1725,1382.1733,,,,0,35,35,35,1,175,60,,,,,,,,
,,,001,2023-12-14_24h19.37.880,bars,2023.2.3,Win32,144.9275362,,,,,,1382.1734,1383.1751,,,1383.6769,1383.9252,,4,4,,,,,,,,,,,,,,,,bars/012.png,bars/mask009.png,,,,,,,,,,,,3,2,,,,,,,2,6,3,5,,,,,,,,,,,1383.1751,1383.6769,1383.9252,1384.6614,space,0.7311,,1384.6614,86,11,1385.6614,1385.6614,1385.6624,,,,0,36,36,36,1,90,15,,,,,,,,
,,,001,2023-12-14_24h19.37.880,bars,2023.2.3,Win32,144.9275362,,,,,,1385.6625,1386.6598,,,1387.1607,1387.4097,,40,40,,,,,,,,,,,,,,,,bars/026.png,bars/mask000.png,,,,,,,,,,,,3,1,,,,,,,4,8,4,7,,,,,,,,,,,1386.6598,1387.1607,1387.4097,1388.8684,space,1.4517,,1388.8684,5,45,1389.8697,1389.8698,1389.8709,,,,0,37,37,37,1,35,85,,,,,,,,
,,,001,2023-12-14_24h19.37.880,bars,2023.2.3,Win32,144.9275362,,,,,,1389.871,1390.8682,,,1391.3684,1391.6185,,167,167,,,,,,,,,,,,,,,,bars/033.png,bars/mask006.png,,,,,,,,,,,,6,2,,,,,,,6,10,7,10,,,,,,,,,,,1390.8682,1391.3684,1391.6186,1393.4261,space,1.7995,,1393.4261,38,12,1394.4243,1394.4243,1394.4301,,,,0,38,38,38,1,25,155,,,,,,,,
,,,001,2023-12-14_24h19.37.880,bars,2023.2.3,Win32,144.9275362,,,,,,1394.4304,1395.4301,,,1395.9295,1396.1811,,44,44,,,,,,,,,,,,,,,,bars/015.png,bars/mask005.png,,,,,,,,,,,,0,2,,,,,,,8,8,8,8,,,,,,,,,,,1395.4301,1395.9295,1396.1812,1397.3053,space,1.1183,,1397.3054,66,64,1398.3048,1398.3048,1398.3099,,,,0,39,39,39,1,110,160,,,,,,,,
,,,001,2023-12-14_24h19.37.880,bars,2023.2.3,Win32,144.9275362,,,,,,1398.31,1399.3116,,,1399.8117,1400.0618,,30,30,,,,,,,,,,,,,,,,bars/023.png,bars/mask006.png,,,,,,,,,,,,7,1,,,,,,,10,6,10,5,,,,,,,,,,,1399.3116,1399.8117,1400.0619,1400.9436,space,0.8687,,1400.9438,10,85,1401.9437,1401.9438,1401.9452,,,,0,40,40,40,1,20,115,,,,,,,,
,,,001,2023-12-14_24h19.37.880,bars,2023.2.3,Win32,144.9275362,,,,,,1401.9454,1402.9438,,,1403.4438,1403.6938,,94,94,,,,,,,,,,,,,,,,bars/005.png,bars/mask003.png,,,,,,,,,,,,0,2,,,,,,,8,8,7,7,,,,,,,,,,,1402.9439,1403.4438,1403.6939,1404.5703,space,0.869,,1404.5703,84,46,1405.5689,1405.5689,1405.5697,,,,0,41,41,41,1,10,140,,,,,,,,
,,,001,2023-12-14_24h19.37.880,bars,2023.2.3,Win32,144.9275362,,,,,,1405.5698,1406.5689,,,1407.069,1407.319,,71,71,,,,,,,,,,,,,,,,bars/016.png,bars/mask002.png,,,,,,,,,,,,0,1,,,,,,,10,10,10,10,,,,,,,,,,,1406.569,1407.069,1407.319,1408.2289,space,0.9022,,1408.2289,31,86,1409.229,1409.229,1409.2301,,,,0,42,42,42,1,40,165,,,,,,,,
,,,001,2023-12-14_24h19.37.880,bars,2023.2.3,Win32,144.9275362,,,,,,1409.2303,1410.2289,,,1410.7289,1410.9788,,169,169,,,,,,,,,,,,,,,,bars/008.png,bars/mask005.png,,,,,,,,,,,,6,2,,,,,,,10,10,9,10,,,,,,,,,,,1410.229,1410.7289,1410.9789,1411.8623,space,0.8749,,1411.8624,59,11,1412.8609,1412.8609,1412.8619,,,,0,43,43,43,1,110,0,,,,,,,,
,,,001,2023-12-14_24h19.37.880,bars,2023.2.3,Win32,144.9275362,,,,,,1412.8621,1413.8616,,,1414.3616,1414.6113,,27,27,,,,,,,,,,,,,,,,bars/035.png,bars/mask000.png,,,,,,,,,,,,0,1,,,,,,,10,10,10,10,,,,,,,,,,,1413.8616,1414.3616,1414.6113,1415.7859,space,1.1674,,1415.7859,32,33,1416.7847,1416.7847,1416.7861,,,,0,44,44,44,1,175,60,,,,,,,,
,,,001,2023-12-14_24h19.37.880,bars,2023.2.3,Win32,144.9275362,,,,,,1416.7862,1417.7848,,,1418.2848,1418.5348,,35,35,,,,,,,,,,,,,,,,bars/048.png,bars/mask006.png,,,,,,,,,,,,5,1,,,,,,,10,8,10,6,,,,,,,,,,,1417.7848,1418.2848,1418.5348,1420.3335,space,1.7896,,1420.3336,15,40,1421.3336,1421.3336,1421.3341,,,,0,45,45,45,1,50,175,,,,,,,,
,,,001,2023-12-14_24h19.37.880,bars,2023.2.3,Win32,144.9275362,,,,,,1421.3341,1422.335,,,1422.8337,1423.0841,,73,73,,,,,,,,,,,,,,,,bars/000.png,bars/mask001.png,,,,,,,,,,,,0,1,,,,,,,8,6,6,6,,,,,,,,,,,1422.335,1422.8337,1423.0842,1425.1262,space,2.0351,,1425.1263,33,72,1426.1254,1426.1254,1426.1258,,,,0,46,46,46,1,40,145,,,,,,,,
,,,001,2023-12-14_24h19.37.880,bars,2023.2.3,Win32,144.9275362,,,,,,1426.1259,1427.1254,,,1427.6255,1427.8756,,68,68,,,,,,,,,,,,,,,,bars/005.png,bars/mask002.png,,,,,,,,,,,,0,1,,,,,,,10,4,10,4,,,,,,,,,,,1427.1254,1427.6255,1427.8756,1428.702,space,0.8116,,1428.7021,58,72,1429.7034,1429.7034,1429.7038,,,,0,47,47,47,1,10,140,,,,,,,,
,,,001,2023-12-14_24h19.37.880,bars,2023.2.3,Win32,144.9275362,,,,,,1429.7039,1430.7048,,,1431.2022,1431.4521,,70,70,,,,,,,,,,,,,,,,bars/003.png,bars/mask006.png,,,,,,,,,,,,0,1,,,,,,,8,2,7,2,,,,,,,,,,,1430.7048,1431.2022,1431.4521,1432.31,space,0.8494,,1432.31,45,70,1433.3063,1433.3064,1433.3074,,,,0,48,48,48,1,25,140,,,,,,,,
,,,001,2023-12-14_24h19.37.880,bars,2023.2.3,Win32,144.9275362,,,,,,1433.3075,1434.307,,,1434.8069,1435.0568,,43,43,,,,,,,,,,,,,,,,bars/024.png,bars/mask002.png,,,,,,,,,,,,0,2,,,,,,,10,0,10,0,,,,,,,,,,,1434.307,1434.8069,1435.0568,1436.0428,space,0.9752,,1436.0428,77,53,1437.0426,1437.0427,1437.0435,,,,0,49,49,49,1,120,170,,,,,,,,
,,,001,2023-12-14_24h19.37.880,bars,2023.2.3,Win32,144.9275362,,,,,,,,,,,,,,,,,,,,,,,,,,,,,,,,,,,,,,,,,,,,,,,,,,,,,,,,,,,,,,,,,,,,,,,,,,,,,,,,,,,,,,,,1437.0436,1497.0387,0,2,2,2,1,sequence_tables/blk002.csv
,,,001,2023-12-14_24h19.37.880,bars,2023.2.3,Win32,144.9275362,,,,,,1563.3991,1564.3964,,,1564.8966,1565.1462,,156,156,,,,,,,,,,,,,,,,bars/019.png,bars/mask002.png,,,,,,,,,,,,0,2,,,,,,,10,7,10,8,,,,,,1497.044,1563.3961,space,66.3408,,1564.3964,1564.8965,1565.1462,1566.1186,space,0.96,,1566.1188,69,51,1567.1185,1567.1185,1567.1236,,,,0,0,0,0,1,45,105,,,,,,,,
,,,001,2023-12-14_24h19.37.880,bars,2023.2.3,Win32,144.9275362,,,,,,1567.1237,1568.1254,,,1568.6255,1568.8754,,87,87,,,,,,,,,,,,,,,,bars/039.png,bars/mask008.png,,,,,,,,,,,,2,2,,,,,,,10,5,10,6,,,,,,,,,,,1568.1254,1568.6255,1568.8754,1569.5978,space,0.7088,,1569.5978,88,18,1570.5978,1570.5979,1570.5985,,,,0,1,1,1,1,175,105,,,,,,,,
,,,001,2023-12-14_24h19.37.880,bars,2023.2.3,Win32,144.9275362,,,,,,1570.5986,1571.5978,,,1572.0978,1572.3495,,130,130,,,,,,,,,,,,,,,,bars/009.png,bars/mask009.png,,,,,,,,,,,,0,2,,,,,,,10,3,9,3,,,,,,,,,,,1571.5978,1572.0978,1572.3495,1573.0166,space,0.6603,,1573.0166,65,25,1574.0179,1574.018,1574.0184,,,,0,2,2,2,1,15,105,,,,,,,,
,,,001,2023-12-14_24h19.37.880,bars,2023.2.3,Win32,144.9275362,,,,,,1574.0185,1575.0152,,,1575.5151,1575.7647,,179,-1,,,,,,,,,,,,,,,,bars/034.png,bars/mask009.png,,,,,,,,,,,,0,1,,,,,,,8,1,6,0,,,,,,,,,,,1575.0152,1575.5151,1575.7648,1576.4948,space,0.7224,,1576.4948,54,66,1577.4944,1577.4944,1577.4954,,,,0,3,3,3,1,125,65,,,,,,,,
,,,001,2023-12-14_24h19.37.880,bars,2023.2.3,Win32,144.9275362,,,,,,1577.4955,1578.4941,,,1578.994,1579.2441,,28,28,,,,,,,,,,,,,,,,bars/013.png,bars/mask005.png,,,,,,,,,,,,0,2,,,,,,,10,0,10,1,,,,,,,,,,,1578.4941,1578.994,1579.2441,1579.869,space,0.6152,,1579.8691,47,18,1580.8691,1580.8691,1580.8699,,,,0,4,4,4,1,75,10,,,,,,,,
,,,001,2023-12-14_24h19.37.880,bars,2023.2.3,Win32,144.9275362,,,,,,1580.87,1581.8691,,,1582.3709,1582.6192,,130,130,,,,,,,,,,,,,,,,bars/018.png,bars/mask008.png,,,,,,,,,,,,3,1,,,,,,,8,0,9,1,,,,,,,,,,,1581.8691,1582.3708,1582.6192,1584.1338,space,1.505,,1584.1338,20,40,1585.1333,1585.1333,1585.139,,,,0,5,5,5,1,150,90,,,,,,,,
,,,001,2023-12-14_24h19.37.880,bars,2023.2.3,Win32,144.9275362,,,,,,1585.1391,1586.1402,,,1586.6403,1586.8903,,126,126,,,,,,,,,,,,,,,,bars/003.png,bars/mask005.png,,,,,,,,,,,,1,2,,,,,,,6,2,7,2,,,,,,,,,,,1586.1403,1586.6402,1586.8903,1589.696,space,2.8017,,1589.6961,79,14,1590.696,1590.696,1590.7016,,,,0,6,6,6,1,25,140,,,,,,,,
,,,001,2023-12-14_24h19.37.880,bars,2023.2.3,Win32,144.9275362,,,,,,1590.7017,1591.7059,,,1592.2031,1592.4532,,45,225,,,,,,,,,,,,,,,,bars/021.png,bars/mask003.png,,,,,,,,,,,,0,2,,,,,,,8,0,9,0,,,,,,,,,,,1591.7059,1592.203,1592.4532,1596.6276,space,4.1642,,1596.6276,70,25,1597.6269,1597.6269,1597.6322,,,,0,7,7,7,1,155,70,,,,,,,,
,,,001,2023-12-14_24h19.37.880,bars,2023.2.3,Win32,144.9275362,,,,,,1597.6324,1598.6288,,,1599.1288,1599.377,,101,101,,,,,,,,,,,,,,,,bars/044.png,bars/mask008.png,,,,,,,,,,,,1,1,,,,,,,6,2,6,2,,,,,,,,,,,1598.6288,1599.1287,1599.377,1601.3286,space,1.9409,,1601.3287,26,54,1602.3285,1602.3285,1602.3298,,,,0,8,8,8,1,75,155,,,,,,,,
,,,001,2023-12-14_24h19.37.880,bars,2023.2.3,Win32,144.9275362,,,,,,1602.3299,1603.3299,,,1603.8286,1604.0786,,5,5,,,,,,,,,,,,,,,,bars/014.png,bars/mask001.png,,,,,,,,,,,,0,2,,,,,,,8,0,6,0,,,,,,,,,,,1603.3299,1603.8286,1604.0786,1604.857,space,0.771,,1604.857,75,5,1605.8564,1605.8565,1605.8575,,,,0,9,9,9,1,80,0,,,,,,,,
,,,001,2023-12-14_24h19.37.880,bars,2023.2.3,Win32,144.9275362,,,,,,1605.8575,1606.8565,,,1607.3565,1607.6068,,12,192,,,,,,,,,,,,,,,,bars/001.png,bars/mask006.png,,,,,,,,,,,,0,1,,,,,,,10,2,10,1,,,,,,,,,,,1606.8565,1607.3565,1607.6069,1614.455,space,6.8409,,1614.455,62,73,1615.4543,1615.4544,1615.4609,,,,0,10,10,10,1,130,85,,,,,,,,
,,,001,2023-12-14_24h19.37.880,bars,2023.2.3,Win32,144.9275362,,,,,,1615.461,1616.4617,,,1616.9612,1617.212,,154,-26,,,,,,,,,,,,,,,,bars/007.png,bars/mask006.png,,,,,,,,,,,,3,1,,,,,,,10,4,10,4,,,,,,,,,,,1616.4617,1616.9611,1617.2121,1619.8641,space,2.6411,,1619.8641,21,81,1620.8641,1620.8641,1620.8692,,,,0,11,11,11,1,175,55,,,,,,,,
,,,001,2023-12-14_24h19.37.880,bars,2023.2.3,Win32,144.9275362,,,,,,1620.8692,1621.8642,,,1622.3644,1622.6143,,41,41,,,,,,,,,,,,,,,,bars/044.png,bars/mask006.png,,,,,,,,,,,,0,1,,,,,,,10,2,8,2,,,,,,,,,,,1621.8642,1622.3644,1622.6144,1624.3507,space,1.7203,,1624.3507,34,66,1625.3505,1625.3505,1625.3557,,,,0,12,12,12,1,75,155,,,,,,,,
,,,001,2023-12-14_24h19.37.880,bars,2023.2.3,Win32,144.9275362,,,,,,1625.3558,1626.3574,,,1626.8575,1627.1038,,108,108,,,,,,,,,,,,,,,,bars/012.png,bars/mask000.png,,,,,,,,,,,,3,1,,,,,,,8,4,8,4,,,,,,,,,,,1626.3574,1626.8575,1627.1038,1629.7119,space,2.6018,,1629.7119,18,87,1630.7118,1630.7119,1630.7167,,,,0,13,13,13,1,90,15,,,,,,,,
,,,001,2023-12-14_24h19.37.880,bars,2023.2.3,Win32,144.9275362,,,,,,1630.7168,1631.7118,,,1632.212,1632.4619,,153,153,,,,,,,,,,,,,,,,bars/044.png,bars/mask002.png,,,,,,,,,,,,7,2,,,,,,,10,6,9,7,,,,,,,,,,,1631.7118,1632.212,1632.4619,1634.0109,space,1.5364,,1634.0109,78,2,1635.0108,1635.0109,1635.0134,,,,0,14,14,14,1,75,155,,,,,,,,
,,,001,2023-12-14_24h19.37.880,bars,2023.2.3,Win32,144.9275362,,,,,,1635.0134,1636.0121,,,1636.5108,1636.7607,,9,189,,,,,,,,,,,,,,,,bars/005.png,bars/mask008.png,,,,,,,,,,,,9,1,,,,,,,8,8,9,8,,,,,,,,,,,1636.0121,1636.5108,1636.7608,1638.2678,space,1.5032,,1638.2678,1,49,1639.2678,1639.2678,1639.2736,,,,0,15,15,15,1,10,140,,,,,,,,
,,,001,2023-12-14_24h19.37.880,bars,2023.2.3,Win32,144.9275362,,,,,,1639.2738,1640.2775,,,1640.7751,1641.0249,,165,165,,,,,,,,,,,,,,,,bars/033.png,bars/mask009.png,,,,,,,,,,,,6,2,,,,,,,6,10,8,9,,,,,,,,,,,1640.2775,1640.775,1641.0249,1642.2472,space,1.2135,,1642.2472,40,10,1643.2489,1643.249,1643.2545,,,,0,16,16,16,1,25,155,,,,,,,,
,,,001,2023-12-14_24h19.37.880,bars,2023.2.3,Win32,144.9275362,,,,,,1643.2546,1644.2543,,,1644.7547,1645.0042,,142,142,,,,,,,,,,,,,,,,bars/011.png,bars/mask007.png,,,,,,,,,,,,1,1,,,,,,,4,10,3,10,,,,,,,,,,,1644.2543,1644.7546,1645.0042,1645.6927,space,0.6808,,1645.6928,18,57,1646.6919,1646.692,1646.6933,,,,0,17,17,17,1,160,85,,,,,,,,
,,,001,2023-12-14_24h19.37.880,bars,2023.2.3,Win32,144.9275362,,,,,,1646.6935,1647.6919,,,1648.1919,1648.4419,,10,10,,,,,,,,,,,,,,,,bars/024.png,bars/mask008.png,,,,,,,,,,,,3,2,,,,,,,2,10,1,9,,,,,,,,,,,1647.6919,1648.1919,1648.442,1648.8726,space,0.4199,,1648.8726,70,20,1649.8726,1649.8726,1649.8734,,,,0,18,18,18,1,120,170,,,,,,,,
,,,001,2023-12-14_24h19.37.880,bars,2023.2.3,Win32,144.9275362,,,,,,1649.8734,1650.8725,,,1651.3727,1651.6227,,24,24,,,,,,,,,,,,,,,,bars/045.png,bars/mask002.png,,,,,,,,,,,,4,2,,,,,,,0,8,0,8,,,,,,,,,,,1650.8725,1651.3727,1651.6227,1652.1383,space,0.5056,,1652.1384,76,14,1653.1365,1653.1365,1653.137,,,,0,19,19,19,1,100,10,,,,,,,,
,,,001,2023-12-14_24h19.37.880,bars,2023.2.3,Win32,144.9275362,,,,,,1653.1371,1654.1367,,,1654.6367,1654.8866,,167,167,,,,,,,,,,,,,,,,bars/003.png,bars/mask001.png,,,,,,,,,,,,1,2,,,,,,,0,10,1,10,,,,,,,,,,,1654.1367,1654.6366,1654.8867,1655.4215,space,0.5236,,1655.4215,38,27,1656.4214,1656.4214,1656.422,,,,0,20,20,20,1,25,140,,,,,,,,
,,,001,2023-12-14_24h19.37.880,bars,2023.2.3,Win32,144.9275362,,,,,,1656.4222,1657.4216,,,1657.9216,1658.1724,,120,120,,,,,,,,,,,,,,,,bars/003.png,bars/mask006.png,,,,,,,,,,,,3,2,,,,,,,0,10,0,9,,,,,,,,,,,1657.4216,1657.9215,1658.1724,1658.7483,space,0.569,,1658.7483,85,20,1659.748,1659.748,1659.7483,,,,0,21,21,21,1,25,140,,,,,,,,
,,,001,2023-12-14_24h19.37.880,bars,2023.2.3,Win32,144.9275362,,,,,,1659.7483,1660.748,,,1661.2482,1661.4982,,57,57,,,,,,,,,,,,,,,,bars/028.png,bars/mask008.png,,,,,,,,,,,,1,1,,,,,,,2,10,2,10,,,,,,,,,,,1660.748,1661.2481,1661.4982,1662.4654,space,0.9588,,1662.4654,12,63,1663.4634,1663.4635,1663.4645,,,,0,22,22,22,1,45,120,,,,,,,,
,,,001,2023-12-14_24h19.37.880,bars,2023.2.3,Win32,144.9275362,,,,,,1663.4645,1664.4636,,,1664.964,1665.2136,,120,120,,,,,,,,,,,,,,,,bars/015.png,bars/mask008.png,,,,,,,,,,,,2,1,,,,,,,4,10,3,9,,,,,,,,,,,1664.4636,1664.964,1665.2137,1666.165,space,0.9438,,1666.1651,10,40,1667.1651,1667.1651,1667.1699,,,,0,23,23,23,1,110,160,,,,,,,,
,,,001,2023-12-14_24h19.37.880,bars,2023.2.3,Win32,144.9275362,,,,,,1667.1701,1668.1651,,,1668.6651,1668.915,,96,96,,,,,,,,,,,,,,,,bars/028.png,bars/mask001.png,,,,,,,,,,,,2,2,,,,,,,2,10,2,8,,,,,,,,,,,1668.1651,1668.6651,1668.915,1671.0003,space,2.0769,,1671.0003,51,24,1671.9987,1671.9987,1672.0041,,,,0,24,24,24,1,45,120,,,,,,,,
,,,001,2023-12-14_24h19.37.880,bars,2023.2.3,Win32,144.9275362,,,,,,1672.0042,1673.0056,,,1673.5066,1673.7591,,77,77,,,,,,,,,,,,,,,,bars/012.png,bars/mask004.png,,,,,,,,,,,,0,1,,,,,,,0,10,0,10,,,,,,,,,,,1673.0056,1673.5066,1673.7591,1678.5267,space,4.7612,,1678.5268,13,62,1679.5267,1679.5267,1679.5323,,,,0,25,25,25,1,90,15,,,,,,,,
,,,001,2023-12-14_24h19.37.880,bars,2023.2.3,Win32,144.9275362,,,,,,1679.5324,1680.5357,,,1681.0338,1681.2837,,109,109,,,,,,,,,,,,,,,,bars/034.png,bars/mask005.png,,,,,,,,,,,,0,1,,,,,,,0,10,0,10,,,,,,,,,,,1680.5357,1681.0338,1681.2838,1691.8779,space,10.5926,,1691.8779,16,44,1692.8745,1692.8746,1692.8799,,,,0,26,26,26,1,125,65,,,,,,,,
,,,001,2023-12-14_24h19.37.880,bars,2023.2.3,Win32,144.9275362,,,,,,1692.8801,1693.8763,,,1694.3749,1694.6248,,64,64,,,,,,,,,,,,,,,,bars/020.png,bars/mask002.png,,,,,,,,,,,,0,1,,,,,,,0,8,0,6,,,,,,,,,,,1693.8763,1694.3748,1694.6248,1698.0138,space,3.3785,,1698.0138,51,74,1699.0096,1699.0096,1699.0157,,,,0,27,27,27,1,115,170,,,,,,,,
,,,001,2023-12-14_24h19.37.880,bars,2023.2.3,Win32,144.9275362,,,,,,1699.0158,1700.0137,,,1700.5139,1700.7638,,15,15,,,,,,,,,,,,,,,,bars/011.png,bars/mask008.png,,,,,,,,,,,,0,1,,,,,,,2,6,2,5,,,,,,,,,,,1700.0138,1700.5139,1700.7638,1701.0465,space,0.2741,,1701.0465,35,70,1702.0417,1702.0418,1702.0422,,,,0,28,28,28,1,160,85,,,,,,,,
,,,001,2023-12-14_24h19.37.880,bars,2023.2.3,Win32,144.9275362,,,,,,1702.0423,1703.0417,,,1703.5418,1703.7918,,173,173,,,,,,,,,,,,,,,,bars/040.png,bars/mask000.png,,,,,,,,,,,,5,2,,,,,,,0,8,0,8,,,,,,,,,,,1703.0417,1703.5418,1703.7918,1715.5428,space,11.7368,,1715.5428,33,12,1716.5425,1716.5425,1716.5484,,,,0,29,29,29,1,140,5,,,,,,,,
,,,001,2023-12-14_24h19.37.880,bars,2023.2.3,Win32,144.9275362,,,,,,1716.5485,1717.55,,,1718.0495,1718.2995,,92,92,,,,,,,,,,,,,,,,bars/025.png,bars/mask004.png,,,,,,,,,,,,0,1,,,,,,,0,6,0,7,,,,,,,,,,,1717.5501,1718.0495,1718.2996,1718.4177,space,0.1055,,1718.4178,13,52,1719.4175,1719.4175,1719.4189,,,,0,30,30,30,1,105,40,,,,,,,,
,,,001,2023-12-14_24h19.37.880,bars,2023.2.3,Win32,144.9275362,,,,,,1719.4191,1720.4175,,,1720.9177,1721.1676,,79,79,,,,,,,,,,,,,,,,bars/029.png,bars/mask009.png,,,,,,,,,,,,1,1,,,,,,,0,8,1,10,,,,,,,,,,,1720.4175,1720.9176,1721.1676,1722.0167,space,0.8405,,1722.0167,11,34,1723.0149,1723.015,1723.0155,,,,0,31,31,31,1,90,45,,,,,,,,
,,,001,2023-12-14_24h19.37.880,bars,2023.2.3,Win32,144.9275362,,,,,,1723.0157,1724.0166,,,1724.5151,1724.7664,,46,46,,,,,,,,,,,,,,,,bars/010.png,bars/mask000.png,,,,,,,,,,,,7,2,,,,,,,0,10,0,10,,,,,,,,,,,1724.0166,1724.5151,1724.7664,1725.418,space,0.6434,,1725.4181,61,9,1726.4181,1726.4182,1726.4192,,,,0,32,32,32,1,165,55,,,,,,,,
,,,001,2023-12-14_24h19.37.880,bars,2023.2.3,Win32,144.9275362,,,,,,1726.4193,1727.418,,,1727.9181,1728.168,,174,174,,,,,,,,,,,,,,,,bars/010.png,bars/mask006.png,,,,,,,,,,,,0,1,,,,,,,0,10,0,9,,,,,,,,,,,1727.418,1727.918,1728.1681,1728.9606,space,0.7854,,1728.9606,9,61,1729.9598,1729.9598,1729.9606,,,,0,33,33,33,1,165,55,,,,,,,,
,,,001,2023-12-14_24h19.37.880,bars,2023.2.3,Win32,144.9275362,,,,,,1729.9608,1730.9599,,,1731.46,1731.7098,,121,121,,,,,,,,,,,,,,,,bars/046.png,bars/mask001.png,,,,,,,,,,,,0,1,,,,,,,2,8,1,7,,,,,,,,,,,1730.96,1731.4599,1731.7098,1732.422,space,0.7041,,1732.422,34,36,1733.4183,1733.4184,1733.4187,,,,0,34,34,34,1,155,85,,,,,,,,
,,,001,2023-12-14_24h19.37.880,bars,2023.2.3,Win32,144.9275362,,,,,,1733.4188,1734.4184,,,1734.9183,1735.1684,,29,29,,,,,,,,,,,,,,,,bars/027.png,bars/mask002.png,,,,,,,,,,,,2,2,,,,,,,0,6,0,7,,,,,,,,,,,1734.4185,1734.9183,1735.1684,1736.4603,space,1.2811,,1736.4604,81,21,1737.4601,1737.4602,1737.4614,,,,0,35,35,35,1,110,50,,,,,,,,
,,,001,2023-12-14_24h19.37.880,bars,2023.2.3,Win32,144.9275362,,,,,,1737.4616,1738.4602,,,1738.9602,1739.2102,,82,82,,,,,,,,,,,,,,,,bars/011.png,bars/mask006.png,,,,,,,,,,,,7,2,,,,,,,0,8,2,8,,,,,,,,,,,1738.4603,1738.9602,1739.2102,1739.9551,space,0.7367,,1739.9552,78,3,1740.9533,1740.9534,1740.9538,,,,0,36,36,36,1,160,85,,,,,,,,
,,,001,2023-12-14_24h19.37.880,bars,2023.2.3,Win32,144.9275362,,,,,,1740.9538,1741.9534,,,1742.4534,1742.7034,,53,53,,,,,,,,,,,,,,,,bars/028.png,bars/mask007.png,,,,,,,,,,,,0,1,,,,,,,0,6,0,7,,,,,,,,,,,1741.9534,1742.4534,1742.7034,1751.6346,space,8.9184,,1751.6346,8,67,1752.6345,1752.6345,1752.6403,,,,0,37,37,37,1,45,120,,,,,,,,
,,,001,2023-12-14_24h19.37.880,bars,2023.2.3,Win32,144.9275362,,,,,,1752.6404,1753.6474,,,1754.1415,1754.3916,,6,6,,,,,,,,,,,,,,,,bars/049.png,bars/mask005.png,,,,,,,,,,,,0,1,,,,,,,0,8,1,9,,,,,,,,,,,1753.6474,1754.1414,1754.3916,1755.2388,space,0.837,,1755.2389,26,71,1756.2388,1756.2388,1756.2392,,,,0,38,38,38,1,160,115,,,,,,,,
,,,001,2023-12-14_24h19.37.880,bars,2023.2.3,Win32,144.9275362,,,,,,1756.2393,1757.2392,,,1757.739,1757.989,,30,30,,,,,,,,,,,,,,,,bars/004.png,bars/mask001.png,,,,,,,,,,,,2,1,,,,,,,2,6,2,7,,,,,,,,,,,1757.2392,1757.739,1757.989,1760.1563,space,2.16,,1760.1564,5,85,1761.1557,1761.1557,1761.1607,,,,0,39,39,39,1,25,125,,,,,,,,
,,,001,2023-12-14_24h19.37.880,bars,2023.2.3,Win32,144.9275362,,,,,,1761.1607,1762.1558,,,1762.6558,1762.9057,,103,103,,,,,,,,,,,,,,,,bars/041.png,bars/mask007.png,,,,,,,,,,,,1,2,,,,,,,4,4,5,3,,,,,,,,,,,1762.1559,1762.6557,1762.9057,1767.0172,space,4.099,,1767.0173,83,18,1768.0171,1768.0172,1768.0226,,,,0,40,40,40,1,20,85,,,,,,,,
,,,001,2023-12-14_24h19.37.880,bars,2023.2.3,Win32,144.9275362,,,,,,1768.0227,1769.0242,,,1769.5243,1769.7742,,49,49,,,,,,,,,,,,,,,,bars/045.png,bars/mask002.png,,,,,,,,,,,,0,2,,,,,,,2,6,1,7,,,,,,,,,,,1769.0242,1769.5242,1769.7743,1778.4557,space,8.6718,,1778.4557,51,39,1779.4552,1779.4552,1779.4606,,,,0,41,41,41,1,100,10,,,,,,,,
,,,001,2023-12-14_24h19.37.880,bars,2023.2.3,Win32,144.9275362,,,,,,1779.4608,1780.4621,,,1780.9623,1781.2122,,160,160,,,,,,,,,,,,,,,,bars/017.png,bars/mask005.png,,,,,,,,,,,,2,1,,,,,,,4,4,3,3,,,,,,,,,,,1780.4622,1780.9623,1781.2123,1782.5804,space,1.3614,,1782.5804,15,65,1783.5804,1783.5804,1783.5858,,,,0,42,42,42,1,145,45,,,,,,,,
,,,001,2023-12-14_24h19.37.880,bars,2023.2.3,Win32,144.9275362,,,,,,1783.5859,1784.5873,,,1785.0837,1785.3344,,42,42,,,,,,,,,,,,,,,,bars/019.png,bars/mask009.png,,,,,,,,,,,,4,1,,,,,,,2,6,4,6,,,,,,,,,,,1784.5873,1785.0836,1785.3344,1787.6435,space,2.2992,,1787.6436,3,63,1788.6432,1788.6432,1788.6483,,,,0,43,43,43,1,45,105,,,,,,,,
,,,001,2023-12-14_24h19.37.880,bars,2023.2.3,Win32,144.9275362,,,,,,1788.6484,1789.6433,,,1790.1435,1790.3933,,131,131,,,,,,,,,,,,,,,,bars/024.png,bars/mask002.png,,,,,,,,,,,,0,1,,,,,,,0,8,0,8,,,,,,,,,,,1789.6433,1790.1433,1790.3933,1792.5064,space,2.1046,,1792.5064,11,39,1793.5044,1793.5045,1793.5102,,,,0,44,44,44,1,120,170,,,,,,,,
,,,001,2023-12-14_24h19.37.880,bars,2023.2.3,Win32,144.9275362,,,,,,1793.5103,1794.5115,,,1795.014,1795.2616,,162,162,,,,,,,,,,,,,,,,bars/049.png,bars/mask008.png,,,,,,,,,,,,1,1,,,,,,,2,6,1,7,,,,,,,,,,,1794.5116,1795.014,1795.2616,1795.7912,space,0.5211,,1795.7912,2,47,1796.79,1796.79,1796.7904,,,,0,45,45,45,1,160,115,,,,,,,,
,,,001,2023-12-14_24h19.37.880,bars,2023.2.3,Win32,144.9275362,,,,,,1796.7906,1797.79,,,1798.29,1798.5395,,44,224,,,,,,,,,,,,,,,,bars/009.png,bars/mask003.png,,,,,,,,,,,,0,1,,,,,,,0,4,0,4,,,,,,,,,,,1797.79,1798.29,1798.5395,1802.6161,space,4.0681,,1802.6161,29,61,1803.6161,1803.6161,1803.6209,,,,0,46,46,46,1,15,105,,,,,,,,
,,,001,2023-12-14_24h19.37.880,bars,2023.2.3,Win32,144.9275362,,,,,,1803.6211,1804.6162,,,1805.1163,1805.3662,,99,99,,,,,,,,,,,,,,,,bars/006.png,bars/mask000.png,,,,,,,,,,,,6,2,,,,,,,2,6,2,6,,,,,,,,,,,1804.6162,1805.1163,1805.3663,1807.36,space,1.9864,,1807.36,64,1,1808.3599,1808.3599,1808.3656,,,,0,47,47,47,1,35,100,,,,,,,,
,,,001,2023-12-14_24h19.37.880,bars,2023.2.3,Win32,144.9275362,,,,,,1808.3658,1809.3663,,,1809.8692,1810.1164,,87,87,,,,,,,,,,,,,,,,bars/000.png,bars/mask004.png,,,,,,,,,,,,0,1,,,,,,,0,4,0,3,,,,,,,,,,,1809.3664,1809.8692,1810.1164,1811.6929,space,1.5658,,1811.6929,47,58,1812.6929,1812.6929,1812.6939,,,,0,48,48,48,1,40,145,,,,,,,,
,,,001,2023-12-14_24h19.37.880,bars,2023.2.3,Win32,144.9275362,,,,,,1812.6941,1813.6929,,,1814.195,1814.443,,140,140,,,,,,,,,,,,,,,,bars/025.png,bars/mask003.png,,,,,,,,,,,,0,1,,,,,,,2,2,2,3,,,,,,,,,,,1813.693,1814.1949,1814.443,1815.2629,space,0.8082,,1815.2629,35,80,1816.2625,1816.2625,1816.263,,,,0,49,49,49,1,105,40,,,,,,,,
,,,001,2023-12-14_24h19.37.880,bars,2023.2.3,Win32,144.9275362,,,,,,,,,,,,,,,,,,,,,,,,,,,,,,,,,,,,,,,,,,,,,,,,,,,,,,,,,,,,,,,,,,,,,,,,,,,,,,,,,,,,,,,,1816.2631,1876.2586,0,3,3,4,1,sequence_tables/blk043.csv
,,,001,2023-12-14_24h19.37.880,bars,2023.2.3,Win32,144.9275362,,,,,,1924.1671,1925.1638,,,1925.6638,1925.9137,,5,5,,,,,,,,,,,,,,,,bars/001.png,bars/mask001.png,,,,,,,,,,,,0,1,,,,,,,1,9,1,9,,,,,,1876.2638,1924.1587,space,47.8922,,1925.1638,1925.6638,1925.9138,1926.5253,space,0.6022,,1926.5253,55,80,1927.5255,1927.5255,1927.526,,,,0,0,0,0,1,130,85,,,,,,,,
,,,001,2023-12-14_24h19.37.880,bars,2023.2.3,Win32,144.9275362,,,,,,1927.5262,1928.5253,,,1929.025,1929.2754,,178,178,,,,,,,,,,,,,,,,bars/004.png,bars/mask006.png,,,,,,,,,,,,0,1,,,,,,,0,10,1,10,,,,,,,,,,,1928.5253,1929.025,1929.2755,1929.9904,space,0.7075,,1929.9905,27,53,1930.9904,1930.9904,1930.9907,,,,0,1,1,1,1,25,125,,,,,,,,
,,,001,2023-12-14_24h19.37.880,bars,2023.2.3,Win32,144.9275362,,,,,,1930.9908,1931.9862,,,1932.4847,1932.7335,,131,131,,,,,,,,,,,,,,,,bars/030.png,bars/mask002.png,,,,,,,,,,,,0,1,,,,,,,0,8,0,8,,,,,,,,,,,1931.9862,1932.4847,1932.7336,1979.8754,space,47.1322,,1979.8754,9,66,1980.8752,1980.8752,1980.8804,,,,0,2,2,2,1,140,65,,,,,,,,
,,,001,2023-12-14_24h19.37.880,bars,2023.2.3,Win32,144.9275362,,,,,,1980.8805,1981.8817,,,1982.3818,1982.6317,,66,66,,,,,,,,,,,,,,,,bars/011.png,bars/mask006.png,,,,,,,,,,,,3,2,,,,,,,2,10,1,9,,,,,,,,,,,1981.8817,1982.3818,1982.6317,1985.4653,space,2.8209,,1985.4653,86,19,1986.4653,1986.4653,1986.4709,,,,0,3,3,3,1,160,85,,,,,,,,
,,,001,2023-12-14_24h19.37.880,bars,2023.2.3,Win32,144.9275362,,,,,,1986.471,1987.4666,,,1987.9655,1988.2158,,157,157,,,,,,,,,,,,,,,,bars/044.png,bars/mask007.png,,,,,,,,,,,,9,2,,,,,,,0,10,0,10,,,,,,,,,,,1987.4666,1987.9655,1988.2158,1992.3839,space,4.1611,,1992.3839,82,2,1993.3823,1993.3824,1993.3871,,,,0,4,4,4,1,75,155,,,,,,,,
,,,001,2023-12-14_24h19.37.880,bars,2023.2.3,Win32,144.9275362,,,,,,1993.3872,1994.3824,,,1994.8824,1995.1324,,75,255,,,,,,,,,,,,,,,,bars/041.png,bars/mask007.png,,,,,,,,,,,,6,2,,,,,,,0,10,1,9,,,,,,,,,,,1994.3825,1994.8824,1995.1324,1998.696,space,3.5623,,1998.696,55,10,1999.6951,1999.6951,1999.7003,,,,0,5,5,5,1,20,85,,,,,,,,
,,,001,2023-12-14_24h19.37.880,bars,2023.2.3,Win32,144.9275362,,,,,,1999.7005,2000.7021,,,2001.2022,2001.4523,,12,192,,,,,,,,,,,,,,,,bars/015.png,bars/mask009.png,,,,,,,,,,,,0,2,,,,,,,2,10,2,9,,,,,,,,,,,2000.7021,2001.2022,2001.4524,2004.808,space,3.3541,,2004.8081,82,32,2005.8065,2005.8065,2005.8117,,,,0,6,6,6,1,110,160,,,,,,,,
,,,001,2023-12-14_24h19.37.880,bars,2023.2.3,Win32,144.9275362,,,,,,2005.8118,2006.8137,,,2007.3135,2007.5635,,3,3,,,,,,,,,,,,,,,,bars/015.png,bars/mask004.png,,,,,,,,,,,,2,2,,,,,,,0,8,0,8,,,,,,,,,,,2006.8137,2007.3135,2007.5636,2010.1818,space,2.609,,2010.1818,73,23,2011.1818,2011.1818,2011.187,,,,0,7,7,7,1,110,160,,,,,,,,
,,,001,2023-12-14_24h19.37.880,bars,2023.2.3,Win32,144.9275362,,,,,,2011.1873,2012.1887,,,2012.6892,2012.9389,,47,227,,,,,,,,,,,,,,,,bars/031.png,bars/mask006.png,,,,,,,,,,,,5,2,,,,,,,0,10,0,9,,,,,,,,,,,2012.1887,2012.6892,2012.9389,2017.6197,space,4.6686,,2017.6197,73,12,2018.6197,2018.6197,2018.6248,,,,0,8,8,8,1,120,35,,,,,,,,
,,,001,2023-12-14_24h19.37.880,bars,2023.2.3,Win32,144.9275362,,,,,,2018.6248,2019.62,,,2020.1198,2020.3701,,87,87,,,,,,,,,,,,,,,,bars/037.png,bars/mask008.png,,,,,,,,,,,,4,2,,,,,,,2,10,3,10,,,,,,,,,,,2019.62,2020.1198,2020.3702,2022.7865,space,2.4053,,2022.7865,63,18,2023.7865,2023.7865,2023.7915,,,,0,9,9,9,1,150,105,,,,,,,,
,,,001,2023-12-14_24h19.37.880,bars,2023.2.3,Win32,144.9275362,,,,,,2023.7916,2024.7866,,,2025.2866,2025.5367,,162,-18,,,,,,,,,,,,,,,,bars/011.png,bars/mask009.png,,,,,,,,,,,,4,1,,,,,,,4,10,4,10,,,,,,,,,,,2024.7866,2025.2866,2025.5367,2029.7591,space,4.2121,,2029.7591,2,77,2030.7591,2030.7592,2030.765,,,,0,10,10,10,1,160,85,,,,,,,,
,,,001,2023-12-14_24h19.37.880,bars,2023.2.3,Win32,144.9275362,,,,,,2030.7652,2031.7661,,,2032.2662,2032.5161,,125,125,,,,,,,,,,,,,,,,bars/018.png,bars/mask001.png,,,,,,,,,,,,0,1,,,,,,,2,10,3,10,,,,,,,,,,,2031.7661,2032.2662,2032.5162,2049.4616,space,16.9348,,2049.4616,25,35,2050.4614,2050.4614,2050.4619,,,,0,11,11,11,1,150,90,,,,,,,,
,,,001,2023-12-14_24h19.37.880,bars,2023.2.3,Win32,144.9275362,,,,,,2050.462,2051.4615,,,2051.9616,2052.2116,,161,161,,,,,,,,,,,,,,,,bars/047.png,bars/mask004.png,,,,,,,,,,,,0,1,,,,,,,4,8,4,8,,,,,,,,,,,2051.4615,2051.9616,2052.2117,2065.9777,space,13.7581,,2065.9777,34,89,2066.9776,2066.9776,2066.9829,,,,0,12,12,12,1,15,70,,,,,,,,
,,,001,2023-12-14_24h19.37.880,bars,2023.2.3,Win32,144.9275362,,,,,,2066.983,2067.9832,,,2068.4832,2068.7332,,88,88,,,,,,,,,,,,,,,,bars/004.png,bars/mask008.png,,,,,,,,,,,,0,2,,,,,,,2,10,2,9,,,,,,,,,,,2067.9833,2068.4832,2068.7332,2072.7058,space,3.9617,,2072.7059,63,37,2073.7058,2073.7058,2073.7116,,,,0,13,13,13,1,25,125,,,,,,,,
,,,001,2023-12-14_24h19.37.880,bars,2023.2.3,Win32,144.9275362,,,,,,2073.7118,2074.7092,,,2075.2058,2075.4558,,56,56,,,,,,,,,,,,,,,,bars/009.png,bars/mask007.png,,,,,,,,,,,,0,1,,,,,,,4,10,5,10,,,,,,,,,,,2074.7092,2075.2057,2075.4558,2077.0688,space,1.6047,,2077.0688,41,49,2078.0672,2078.0672,2078.0682,,,,0,14,14,14,1,15,105,,,,,,,,
,,,001,2023-12-14_24h19.37.880,bars,2023.2.3,Win32,144.9275362,,,,,,2078.0683,2079.0676,,,2079.5672,2079.8176,,151,-29,,,,,,,,,,,,,,,,bars/021.png,bars/mask002.png,,,,,,,,,,,,5,1,,,,,,,6,8,6,9,,,,,,,,,,,2079.0676,2079.5672,2079.8176,2083.0533,space,3.2276,,2083.0534,4,81,2084.0534,2084.0534,2084.0582,,,,0,15,15,15,1,155,70,,,,,,,,
,,,001,2023-12-14_24h19.37.880,bars,2023.2.3,Win32,144.9275362,,,,,,2084.0583,2085.0533,,,2085.5527,2085.8086,,159,-21,,,,,,,,,,,,,,,,bars/028.png,bars/mask000.png,,,,,,,,,,,,0,2,,,,,,,4,6,3,7,,,,,,,,,,,2085.0533,2085.5527,2085.8086,2088.0814,space,2.2635,,2088.0814,66,39,2089.0814,2089.0815,2089.087,,,,0,16,16,16,1,45,120,,,,,,,,
,,,001,2023-12-14_24h19.37.880,bars,2023.2.3,Win32,144.9275362,,,,,,2089.0872,2090.0884,,,2090.5885,2090.8386,,149,-31,,,,,,,,,,,,,,,,bars/040.png,bars/mask003.png,,,,,,,,,,,,5,1,,,,,,,6,4,7,6,,,,,,,,,,,2090.0884,2090.5885,2090.8386,2093.3959,space,2.5501,,2093.3959,9,36,2094.3941,2094.3941,2094.3997,,,,0,17,17,17,1,140,5,,,,,,,,
,,,001,2023-12-14_24h19.37.880,bars,2023.2.3,Win32,144.9275362,,,,,,2094.3999,2095.4011,,,2095.9014,2096.1513,,162,162,,,,,,,,,,,,,,,,bars/018.png,bars/mask005.png,,,,,,,,,,,,5,1,,,,,,,8,2,8,2,,,,,,,,,,,2095.4012,2095.9012,2096.1513,2099.3743,space,3.2146,,2099.3743,12,72,2100.3741,2100.3741,2100.3791,,,,0,18,18,18,1,150,90,,,,,,,,
,,,001,2023-12-14_24h19.37.880,bars,2023.2.3,Win32,144.9275362,,,,,,2100.3792,2101.3812,,,2101.8812,2102.1306,,164,164,,,,,,,,,,,,,,,,bars/048.png,bars/mask004.png,,,,,,,,,,,,2,2,,,,,,,10,4,10,3,,,,,,,,,,,2101.3812,2101.8812,2102.1306,2105.0528,space,2.914,,2105.0529,66,11,2106.0544,2106.0544,2106.0601,,,,0,19,19,19,1,50,175,,,,,,,,
,,,001,2023-12-14_24h19.37.880,bars,2023.2.3,Win32,144.9275362,,,,,,2106.0602,2107.0616,,,2107.5641,2107.8117,,46,46,,,,,,,,,,,,,,,,bars/015.png,bars/mask008.png,,,,,,,,,,,,0,1,,,,,,,10,6,10,6,,,,,,,,,,,2107.0616,2107.5641,2107.8117,2110.0618,space,2.2405,,2110.0619,64,66,2111.0617,2111.0617,2111.0677,,,,0,20,20,20,1,110,160,,,,,,,,
,,,001,2023-12-14_24h19.37.880,bars,2023.2.3,Win32,144.9275362,,,,,,2111.0679,2112.0687,,,2112.5649,2112.8117,,3,3,,,,,,,,,,,,,,,,bars/001.png,bars/mask007.png,,,,,,,,,,,,0,1,,,,,,,10,4,9,4,,,,,,,,,,,2112.0687,2112.5649,2112.8117,2117.6454,space,4.8232,,2117.6454,53,82,2118.6454,2118.6454,2118.6503,,,,0,21,21,21,1,130,85,,,,,,,,
,,,001,2023-12-14_24h19.37.880,bars,2023.2.3,Win32,144.9275362,,,,,,2118.6504,2119.6454,,,2120.1456,2120.3956,,44,44,,,,,,,,,,,,,,,,bars/023.png,bars/mask008.png,,,,,,,,,,,,2,1,,,,,,,10,6,10,7,,,,,,,,,,,2119.6454,2120.1455,2120.3956,2124.9863,space,4.5872,,2124.9863,24,71,2125.986,2125.9862,2125.9911,,,,0,22,22,22,1,20,115,,,,,,,,
,,,001,2023-12-14_24h19.37.880,bars,2023.2.3,Win32,144.9275362,,,,,,2125.9913,2126.9929,,,2127.493,2127.7434,,157,157,,,,,,,,,,,,,,,,bars/048.png,bars/mask006.png,,,,,,,,,,,,2,2,,,,,,,8,4,7,4,,,,,,,,,,,2126.993,2127.493,2127.7434,2128.9169,space,1.1678,,2128.9169,73,18,2129.9167,2129.9167,2129.9178,,,,0,23,23,23,1,50,175,,,,,,,,
,,,001,2023-12-14_24h19.37.880,bars,2023.2.3,Win32,144.9275362,,,,,,2129.9179,2130.9168,,,2131.4169,2131.667,,56,56,,,,,,,,,,,,,,,,bars/010.png,bars/mask000.png,,,,,,,,,,,,6,2,,,,,,,6,6,6,6,,,,,,,,,,,2130.9169,2131.4167,2131.6671,2133.4039,space,1.7295,,2133.4039,71,1,2134.4031,2134.4031,2134.4036,,,,0,24,24,24,1,165,55,,,,,,,,
,,,001,2023-12-14_24h19.37.880,bars,2023.2.3,Win32,144.9275362,,,,,,2134.4037,2135.4031,,,2135.9041,2136.1542,,165,165,,,,,,,,,,,,,,,,bars/006.png,bars/mask007.png,,,,,,,,,,,,0,1,,,,,,,4,8,4,8,,,,,,,,,,,2135.4031,2135.9041,2136.1542,2138.4588,space,2.2928,,2138.4588,50,65,2139.459,2139.459,2139.4645,,,,0,25,25,25,1,35,100,,,,,,,,
,,,001,2023-12-14_24h19.37.880,bars,2023.2.3,Win32,144.9275362,,,,,,2139.4646,2140.4659,,,2140.966,2141.216,,14,14,,,,,,,,,,,,,,,,bars/042.png,bars/mask002.png,,,,,,,,,,,,0,1,,,,,,,6,6,4,6,,,,,,,,,,,2140.4659,2140.966,2141.216,2160.4531,space,19.2237,,2160.4531,49,61,2161.4531,2161.4532,2161.4586,,,,0,26,26,26,1,145,75,,,,,,,,
,,,001,2023-12-14_24h19.37.880,bars,2023.2.3,Win32,144.9275362,,,,,,2161.4587,2162.46,,,2162.9607,2163.2101,,150,150,,,,,,,,,,,,,,,,bars/028.png,bars/mask002.png,,,,,,,,,,,,0,2,,,,,,,4,8,3,8,,,,,,,,,,,2162.46,2162.9607,2163.2101,2164.8975,space,1.6835,,2164.8976,75,30,2165.8976,2165.8976,2165.9035,,,,0,27,27,27,1,45,120,,,,,,,,
,,,001,2023-12-14_24h19.37.880,bars,2023.2.3,Win32,144.9275362,,,,,,2165.9036,2166.9046,,,2167.4048,2167.6563,,121,121,,,,,,,,,,,,,,,,bars/015.png,bars/mask008.png,,,,,,,,,,,,4,1,,,,,,,6,6,7,5,,,,,,,,,,,2166.9046,2167.4048,2167.6563,2169.9136,space,2.2503,,2169.9136,11,39,2170.9119,2170.9119,2170.9191,,,,0,28,28,28,1,110,160,,,,,,,,
,,,001,2023-12-14_24h19.37.880,bars,2023.2.3,Win32,144.9275362,,,,,,2170.9192,2171.9188,,,2172.4189,2172.6688,,106,106,,,,,,,,,,,,,,,,bars/024.png,bars/mask001.png,,,,,,,,,,,,3,1,,,,,,,4,8,5,9,,,,,,,,,,,2171.9188,2172.4189,2172.6688,2175.2947,space,2.6184,,2175.2947,14,64,2176.294,2176.2941,2176.2991,,,,0,29,29,29,1,120,170,,,,,,,,
,,,001,2023-12-14_24h19.37.880,bars,2023.2.3,Win32,144.9275362,,,,,,2176.2992,2177.2957,,,2177.7958,2178.044,,53,53,,,,,,,,,,,,,,,,bars/025.png,bars/mask007.png,,,,,,,,,,,,3,2,,,,,,,6,6,5,5,,,,,,,,,,,2177.2957,2177.7958,2178.044,2179.656,space,1.5998,,2179.656,52,13,2180.6553,2180.6553,2180.6562,,,,0,30,30,30,1,105,40,,,,,,,,
,,,001,2023-12-14_24h19.37.880,bars,2023.2.3,Win32,144.9275362,,,,,,2180.6563,2181.6554,,,2182.1556,2182.4054,,66,66,,,,,,,,,,,,,,,,bars/027.png,bars/mask003.png,,,,,,,,,,,,5,2,,,,,,,4,8,3,10,,,,,,,,,,,2181.6554,2182.1555,2182.4055,2184.6,space,2.1841,,2184.6002,44,16,2185.6001,2185.6002,2185.6051,,,,0,31,31,31,1,110,50,,,,,,,,
,,,001,2023-12-14_24h19.37.880,bars,2023.2.3,Win32,144.9275362,,,,,,2185.6053,2186.6001,,,2187.1,2187.3503,,124,124,,,,,,,,,,,,,,,,bars/028.png,bars/mask008.png,,,,,,,,,,,,6,2,,,,,,,2,6,4,7,,,,,,,,,,,2186.6001,2187.1,2187.3503,2189.3991,space,2.0378,,2189.3991,79,4,2190.399,2190.3991,2190.4043,,,,0,32,32,32,1,45,120,,,,,,,,
,,,001,2023-12-14_24h19.37.880,bars,2023.2.3,Win32,144.9275362,,,,,,2190.4044,2191.406,,,2191.9059,2192.1564,,126,126,,,,,,,,,,,,,,,,bars/046.png,bars/mask002.png,,,,,,,,,,,,0,1,,,,,,,0,8,0,8,,,,,,,,,,,2191.406,2191.9059,2192.1564,2194.7064,space,2.5488,,2194.7064,29,41,2195.7047,2195.7047,2195.7101,,,,0,33,33,33,1,155,85,,,,,,,,
,,,001,2023-12-14_24h19.37.880,bars,2023.2.3,Win32,144.9275362,,,,,,2195.7102,2196.7116,,,2197.2117,2197.4574,,21,201,,,,,,,,,,,,,,,,bars/014.png,bars/mask009.png,,,,,,,,,,,,2,2,,,,,,,2,6,2,7,,,,,,,,,,,2196.7116,2197.2117,2197.4574,2198.8785,space,1.4132,,2198.8785,59,21,2199.8744,2199.8744,2199.8801,,,,0,34,34,34,1,80,0,,,,,,,,
,,,001,2023-12-14_24h19.37.880,bars,2023.2.3,Win32,144.9275362,,,,,,2199.8803,2200.8786,,,2201.3786,2201.6286,,15,15,,,,,,,,,,,,,,,,bars/002.png,bars/mask004.png,,,,,,,,,,,,0,1,,,,,,,0,4,1,4,,,,,,,,,,,2200.8786,2201.3785,2201.6286,2207.5178,space,5.8875,,2207.5178,65,70,2208.5177,2208.5178,2208.5238,,,,0,35,35,35,1,130,85,,,,,,,,
,,,001,2023-12-14_24h19.37.880,bars,2023.2.3,Win32,144.9275362,,,,,,2208.524,2209.5195,,,2210.0178,2210.2679,,133,133,,,,,,,,,,,,,,,,bars/046.png,bars/mask008.png,,,,,,,,,,,,0,1,,,,,,,0,6,0,4,,,,,,,,,,,2209.5195,2210.0178,2210.2679,2210.5559,space,0.2798,,2210.5559,22,48,2211.5528,2211.5528,2211.5534,,,,0,36,36,36,1,155,85,,,,,,,,
,,,001,2023-12-14_24h19.37.880,bars,2023.2.3,Win32,144.9275362,,,,,,2211.5536,2212.5533,,,2213.0528,2213.3027,,111,111,,,,,,,,,,,,,,,,bars/044.png,bars/mask001.png,,,,,,,,,,,,0,1,,,,,,,2,4,2,5,,,,,,,,,,,2212.5533,2213.0528,2213.3028,2214.0112,space,0.6953,,2214.0112,36,44,2215.0112,2215.0112,2215.0115,,,,0,37,37,37,1,75,155,,,,,,,,
,,,001,2023-12-14_24h19.37.880,bars,2023.2.3,Win32,144.9275362,,,,,,2215.0116,2216.0112,,,2216.5113,2216.7613,,156,156,,,,,,,,,,,,,,,,bars/038.png,bars/mask007.png,,,,,,,,,,,,4,1,,,,,,,4,6,5,6,,,,,,,,,,,2216.0112,2216.5113,2216.7614,2218.053,space,1.2788,,2218.053,9,86,2219.0532,2219.0532,2219.0536,,,,0,38,38,38,1,165,70,,,,,,,,
,,,001,2023-12-14_24h19.37.880,bars,2023.2.3,Win32,144.9275362,,,,,,2219.0537,2220.053,,,2220.5532,2220.8032,,137,137,,,,,,,,,,,,,,,,bars/006.png,bars/mask003.png,,,,,,,,,,,,0,2,,,,,,,2,8,1,8,,,,,,,,,,,2220.053,2220.5532,2220.8032,2222.8589,space,2.0506,,2222.8589,78,37,2223.8588,2223.8588,2223.8647,,,,0,39,39,39,1,35,100,,,,,,,,
,,,001,2023-12-14_24h19.37.880,bars,2023.2.3,Win32,144.9275362,,,,,,2223.8648,2224.8657,,,2225.3659,2225.6159,,36,36,,,,,,,,,,,,,,,,bars/004.png,bars/mask003.png,,,,,,,,,,,,0,1,,,,,,,0,10,0,10,,,,,,,,,,,2224.8657,2225.3658,2225.6159,2228.2271,space,2.6004,,2228.2271,11,89,2229.2288,2229.2288,2229.2346,,,,0,40,40,40,1,25,125,,,,,,,,
,,,001,2023-12-14_24h19.37.880,bars,2023.2.3,Win32,144.9275362,,,,,,2229.235,2230.2341,,,2230.7346,2230.9842,,129,129,,,,,,,,,,,,,,,,bars/028.png,bars/mask009.png,,,,,,,,,,,,7,2,,,,,,,0,8,1,10,,,,,,,,,,,2230.2342,2230.7345,2230.9842,2240.277,space,9.2854,,2240.2771,84,9,2241.2765,2241.2766,2241.2823,,,,0,41,41,41,1,45,120,,,,,,,,
,,,001,2023-12-14_24h19.37.880,bars,2023.2.3,Win32,144.9275362,,,,,,2241.2824,2242.2834,,,2242.7834,2243.0338,,82,82,,,,,,,,,,,,,,,,bars/012.png,bars/mask008.png,,,,,,,,,,,,0,1,,,,,,,0,10,0,10,,,,,,,,,,,2242.2834,2242.7834,2243.0338,2245.4849,space,2.4429,,2245.485,8,67,2246.485,2246.4851,2246.4905,,,,0,42,42,42,1,90,15,,,,,,,,
,,,001,2023-12-14_24h19.37.880,bars,2023.2.3,Win32,144.9275362,,,,,,2246.4906,2247.492,,,2247.992,2248.2419,,61,61,,,,,,,,,,,,,,,,bars/019.png,bars/mask002.png,,,,,,,,,,,,1,1,,,,,,,2,10,2,10,,,,,,,,,,,2247.492,2247.992,2248.2419,2250.1942,space,1.9436,,2250.1942,16,44,2251.1936,2251.1936,2251.194,,,,0,43,43,43,1,45,105,,,,,,,,
,,,001,2023-12-14_24h19.37.880,bars,2023.2.3,Win32,144.9275362,,,,,,2251.1941,2252.194,,,2252.6941,2252.9435,,176,176,,,,,,,,,,,,,,,,bars/009.png,bars/mask008.png,,,,,,,,,,,,0,1,,,,,,,0,8,1,9,,,,,,,,,,,2252.194,2252.6941,2252.9436,2254.4506,space,1.496,,2254.4506,19,71,2255.4506,2255.4506,2255.4556,,,,0,44,44,44,1,15,105,,,,,,,,
,,,001,2023-12-14_24h19.37.880,bars,2023.2.3,Win32,144.9275362,,,,,,2255.4557,2256.4521,,,2256.9507,2257.2008,,23,203,,,,,,,,,,,,,,,,bars/045.png,bars/mask006.png,,,,,,,,,,,,6,2,,,,,,,0,10,0,10,,,,,,,,,,,2256.4522,2256.9507,2257.2008,2261.5899,space,4.3774,,2261.5899,77,13,2262.5902,2262.5902,2262.5959,,,,0,45,45,45,1,100,10,,,,,,,,
,,,001,2023-12-14_24h19.37.880,bars,2023.2.3,Win32,144.9275362,,,,,,2262.596,2263.5969,,,2264.0928,2264.3399,,124,124,,,,,,,,,,,,,,,,bars/025.png,bars/mask005.png,,,,,,,,,,,,0,1,,,,,,,0,10,0,10,,,,,,,,,,,2263.5969,2264.0928,2264.34,2266.9887,space,2.6458,,2266.9887,19,84,2267.986,2267.986,2267.9915,,,,0,46,46,46,1,105,40,,,,,,,,
,,,001,2023-12-14_24h19.37.880,bars,2023.2.3,Win32,144.9275362,,,,,,2267.9917,2268.9929,,,2269.493,2269.7429,,69,69,,,,,,,,,,,,,,,,bars/011.png,bars/mask004.png,,,,,,,,,,,,4,2,,,,,,,0,8,0,8,,,,,,,,,,,2268.9929,2269.493,2269.743,2270.389,space,0.6322,,2270.389,89,16,2271.3894,2271.3894,2271.3902,,,,0,47,47,47,1,160,85,,,,,,,,
,,,001,2023-12-14_24h19.37.880,bars,2023.2.3,Win32,144.9275362,,,,,,2271.3904,2272.389,,,2272.889,2273.1391,,55,55,,,,,,,,,,,,,,,,bars/028.png,bars/mask004.png,,,,,,,,,,,,0,1,,,,,,,0,6,0,7,,,,,,,,,,,2272.389,2272.889,2273.1391,2275.8336,space,2.6876,,2275.8337,10,65,2276.8353,2276.8353,2276.8411,,,,0,48,48,48,1,45,120,,,,,,,,
,,,001,2023-12-14_24h19.37.880,bars,2023.2.3,Win32,144.9275362,,,,,,2276.8412,2277.8408,,,2278.3407,2278.5864,,43,43,,,,,,,,,,,,,,,,bars/046.png,bars/mask006.png,,,,,,,,,,,,0,2,,,,,,,2,4,3,5,,,,,,,,,,,2277.8408,2278.3406,2278.5864,2283.2517,space,4.6594,,2283.2517,68,42,2284.251,2284.251,2284.2573,,,,0,49,49,49,1,155,85,,,,,,,,
,,,001,2023-12-14_24h19.37.880,bars,2023.2.3,Win32,144.9275362,,,,,,,,,,,,,,,,,,,,,,,,,,,,,,,,,,,,,,,,,,,,,,,,,,,,,,,,,,,,,,,,,,,,,,,,,,,,,,,,,,,,,,,,2284.2574,2284.2574,0,4,4,3,1,sequence_tables/blk003.csv