init_variables.started,init_variables.stopped,participant,session,date,expName,psychopyVersion,OS,frameRate,study_id,instruction_exp.started,instruction_exp.stopped,key_resp_8.keys,key_resp_8.rt,key_resp_8.duration,instruction_single.started,instruction_single.stopped,key_resp_2.keys,key_resp_2.rt,key_resp_2.duration,interval.started,interval.stopped,cue_single.started,cue_single.stopped,mask.started,mask.stopped,ori_response_single.started,res_ori,res,ori_response_single.stopped,key_resp_single.keys,key_resp_single.rt,key_resp_single.duration,disp_single.started,disp_single.stopped,key_resp.keys,key_resp.rt,key_resp.duration,single.thisRepN,single.thisTrialN,single.thisN,single.thisIndex,single.ran,ori,path,mask_path,instruction_bandit.started,instruction_bandit.stopped,key_resp_6.keys,key_resp_6.rt,key_resp_6.duration,cue_bandit.started,cue_bandit.stopped,bandit_res.keys,bandit_res.rt,bandit_res.duration,outcome_bandit.started,rew,action,outcome_bandit.stopped,bandit.thisRepN,bandit.thisTrialN,bandit.thisN,bandit.thisIndex,bandit.ran,actual_rew1,actual_rew2,rew1,rew2,instruction_task.started,instruction_task.stopped,key_resp_7.keys,key_resp_7.rt,key_resp_7.duration,wait_ready.started,wait_ready.stopped,key_resp_3.keys,key_resp_3.rt,key_resp_3.duration,cue.started,cue.stopped,ori_response.started,ori_response.stopped,key_resp_5.keys,key_resp_5.rt,key_resp_5.duration,outcome.started,diff1,diff2,outcome.stopped,disp_outcome_practice.started,disp_outcome_practice.stopped,key_resp_4.keys,key_resp_4.rt,key_resp_4.duration,trials.thisRepN,trials.thisTrialN,trials.thisN,trials.thisIndex,trials.ran,ori1,ori2,break_blk.started,break_blk.stopped,block.thisRepN,block.thisTrialN,block.thisN,block.thisIndex,block.ran,condition_file
0.0004,0.0004,65ae79daf843065b21a30f6a,65af5706cbfd19b26dc0c441,2024-01-23_19h06.01.351,bars,2023.2.3,Win32,144.9275362,657b66ea316d21385b68909f,,,,,,,,,,,,,,,,,,,,,,,,,,,,,,,,,,,,,,,,,,,,,,,,,,,,,,,,,,,,,,,,,,,,,,,,,,,,,,,,,,,,,,,,,,,,,,,,,,,,
,,65ae79daf843065b21a30f6a,65af5706cbfd19b26dc0c441,2024-01-23_19h06.01.351,bars,2023.2.3,Win32,144.9275362,657b66ea316d21385b68909f,0.0006,8.7501,y,8.7395,,,,,,,,,,,,,,,,,,,,,,,,,,,,,,,,,,,,,,,,,,,,,,,,,,,,,,,,,,,,,,,,,,,,,,,,,,,,,,,,,,,,,,,,,,,,,,,,
,,65ae79daf843065b21a30f6a,65af5706cbfd19b26dc0c441,2024-01-23_19h06.01.351,bars,2023.2.3,Win32,144.9275362,657b66ea316d21385b68909f,,,,,,8.7501,22.4608,space,13.7037,,,,,,,,,,,,,,,,,,,,,,,,,,,,,,,,,,,,,,,,,,,,,,,,,,,,,,,,,,,,,,,,,,,,,,,,,,,,,,,,,,,,,,,,,,,
,,65ae79daf843065b21a30f6a,65af5706cbfd19b26dc0c441,2024-01-23_19h06.01.351,bars,2023.2.3,Win32,144.9275362,657b66ea316d21385b68909f,,,,,,,,,,,22.4639,23.4598,23.4599,23.9597,23.9599,24.2113,24.2114,90,90,29.6126,space,5.3824,,29.6128,41.5082,space,11.8816,,0,0,0,7,1,45,bars/single007.png,bars/mask009.png,,,,,,,,,,,,,,,,,,,,,,,,,,,,,,,,,,,,,,,,,,,,,,,,,,,,,,,,,,,,,,,,
,,65ae79daf843065b21a30f6a,65af5706cbfd19b26dc0c441,2024-01-23_19h06.01.351,bars,2023.2.3,Win32,144.9275362,657b66ea316d21385b68909f,,,,,,,,,,,41.5143,42.5148,42.5148,43.0147,43.0147,43.2647,43.2648,41,41,53.3201,space,10.042,,53.3202,56.0979,space,2.7639,,0,1,1,8,1,160,bars/single008.png,bars/mask004.png,,,,,,,,,,,,,,,,,,,,,,,,,,,,,,,,,,,,,,,,,,,,,,,,,,,,,,,,,,,,,,,,
,,65ae79daf843065b21a30f6a,65af5706cbfd19b26dc0c441,2024-01-23_19h06.01.351,bars,2023.2.3,Win32,144.9275362,657b66ea316d21385b68909f,,,,,,,,,,,56.0981,57.0977,57.0977,57.5978,57.5978,57.8477,57.8477,154,154,64.1742,space,6.3129,,64.1742,66.7225,space,2.5379,,0,2,2,1,1,20,bars/single001.png,bars/mask006.png,,,,,,,,,,,,,,,,,,,,,,,,,,,,,,,,,,,,,,,,,,,,,,,,,,,,,,,,,,,,,,,,
,,65ae79daf843065b21a30f6a,65af5706cbfd19b26dc0c441,2024-01-23_19h06.01.351,bars,2023.2.3,Win32,144.9275362,657b66ea316d21385b68909f,,,,,,,,,,,66.7228,67.7224,67.7224,68.2225,68.2225,68.4725,68.4725,24,204,73.278,space,4.7915,,73.278,78.0417,space,4.7498,,0,3,3,3,1,20,bars/single003.png,bars/mask005.png,,,,,,,,,,,,,,,,,,,,,,,,,,,,,,,,,,,,,,,,,,,,,,,,,,,,,,,,,,,,,,,,
,,65ae79daf843065b21a30f6a,65af5706cbfd19b26dc0c441,2024-01-23_19h06.01.351,bars,2023.2.3,Win32,144.9275362,657b66ea316d21385b68909f,,,,,,,,,,,78.0474,79.0485,79.0486,79.5486,79.5487,79.7986,79.7986,28,28,83.6042,space,3.7931,,83.6042,85.5902,space,1.9742,,0,4,4,9,1,20,bars/single009.png,bars/mask006.png,,,,,,,,,,,,,,,,,,,,,,,,,,,,,,,,,,,,,,,,,,,,,,,,,,,,,,,,,,,,,,,,
,,65ae79daf843065b21a30f6a,65af5706cbfd19b26dc0c441,2024-01-23_19h06.01.351,bars,2023.2.3,Win32,144.9275362,657b66ea316d21385b68909f,,,,,,,,,,,85.5904,86.5901,86.5901,87.0901,87.0901,87.3402,87.3402,16,16,88.9859,space,1.6355,,88.9859,90.8887,space,1.8901,,0,5,5,5,1,55,bars/single005.png,bars/mask008.png,,,,,,,,,,,,,,,,,,,,,,,,,,,,,,,,,,,,,,,,,,,,,,,,,,,,,,,,,,,,,,,,
,,65ae79daf843065b21a30f6a,65af5706cbfd19b26dc0c441,2024-01-23_19h06.01.351,bars,2023.2.3,Win32,144.9275362,657b66ea316d21385b68909f,,,,,,,,,,,90.8889,91.8886,91.8886,92.3886,92.3886,92.6386,92.6386,53,53,96.2497,space,3.5977,,96.2498,99.9927,space,3.7317,,0,6,6,6,1,175,bars/single006.png,bars/mask005.png,,,,,,,,,,,,,,,,,,,,,,,,,,,,,,,,,,,,,,,,,,,,,,,,,,,,,,,,,,,,,,,,
,,65ae79daf843065b21a30f6a,65af5706cbfd19b26dc0c441,2024-01-23_19h06.01.351,bars,2023.2.3,Win32,144.9275362,657b66ea316d21385b68909f,,,,,,,,,,,99.9984,100.9995,100.9995,101.4995,101.4995,101.7494,101.7494,156,156,103.5064,space,1.7455,,103.5064,104.9994,space,1.4836,,0,7,7,2,1,145,bars/single002.png,bars/mask003.png,,,,,,,,,,,,,,,,,,,,,,,,,,,,,,,,,,,,,,,,,,,,,,,,,,,,,,,,,,,,,,,,
,,65ae79daf843065b21a30f6a,65af5706cbfd19b26dc0c441,2024-01-23_19h06.01.351,bars,2023.2.3,Win32,144.9275362,657b66ea316d21385b68909f,,,,,,,,,,,104.9995,105.9994,105.9994,106.4993,106.4993,106.7493,106.7493,138,138,109.3605,space,2.5992,,109.3605,110.5201,space,1.146,,0,8,8,4,1,95,bars/single004.png,bars/mask004.png,,,,,,,,,,,,,,,,,,,,,,,,,,,,,,,,,,,,,,,,,,,,,,,,,,,,,,,,,,,,,,,,
,,65ae79daf843065b21a30f6a,65af5706cbfd19b26dc0c441,2024-01-23_19h06.01.351,bars,2023.2.3,Win32,144.9275362,657b66ea316d21385b68909f,,,,,,,,,,,110.5204,111.52,111.5201,112.0201,112.0201,112.27,112.2701,98,98,114.7283,space,2.4459,,114.7284,115.645,space,0.9039,,0,9,9,0,1,150,bars/single000.png,bars/mask006.png,,,,,,,,,,,,,,,,,,,,,,,,,,,,,,,,,,,,,,,,,,,,,,,,,,,,,,,,,,,,,,,,
,,65ae79daf843065b21a30f6a,65af5706cbfd19b26dc0c441,2024-01-23_19h06.01.351,bars,2023.2.3,Win32,144.9275362,657b66ea316d21385b68909f,,,,,,,,,,,,,,,,,,,,,,,,,,,,,,,,,,,,,115.6455,130.6312,space,14.9748,,,,,,,,,,,,,,,,,,,,,,,,,,,,,,,,,,,,,,,,,,,,,,,,,,,,,,,,,,,,
,,65ae79daf843065b21a30f6a,65af5706cbfd19b26dc0c441,2024-01-23_19h06.01.351,bars,2023.2.3,Win32,144.9275362,657b66ea316d21385b68909f,,,,,,,,,,,,,,,,,,,,,,,,,,,,,,,,,,,,,,,,,,130.6382,134.6309,right,3.9797,,134.6309,2,2,135.6307,0,0,0,0,1,9,1,9,2,,,,,,,,,,,,,,,,,,,,,,,,,,,,,,,,,,,,,,,,,
,,65ae79daf843065b21a30f6a,65af5706cbfd19b26dc0c441,2024-01-23_19h06.01.351,bars,2023.2.3,Win32,144.9275362,657b66ea316d21385b68909f,,,,,,,,,,,,,,,,,,,,,,,,,,,,,,,,,,,,,,,,,,135.6311,136.5751,left,0.9376,,136.5751,10,1,137.575,0,1,1,1,1,10,0,10,1,,,,,,,,,,,,,,,,,,,,,,,,,,,,,,,,,,,,,,,,,
,,65ae79daf843065b21a30f6a,65af5706cbfd19b26dc0c441,2024-01-23_19h06.01.351,bars,2023.2.3,Win32,144.9275362,657b66ea316d21385b68909f,,,,,,,,,,,,,,,,,,,,,,,,,,,,,,,,,,,,,,,,,,137.5753,138.3251,left,0.7424,,138.3252,10,1,139.325,0,2,2,2,1,10,2,10,2,,,,,,,,,,,,,,,,,,,,,,,,,,,,,,,,,,,,,,,,,
,,65ae79daf843065b21a30f6a,65af5706cbfd19b26dc0c441,2024-01-23_19h06.01.351,bars,2023.2.3,Win32,144.9275362,657b66ea316d21385b68909f,,,,,,,,,,,,,,,,,,,,,,,,,,,,,,,,,,,,,,,,,,139.3252,139.7278,left,0.3956,,139.7278,7,1,140.7277,0,3,3,3,1,8,4,7,3,,,,,,,,,,,,,,,,,,,,,,,,,,,,,,,,,,,,,,,,,
,,65ae79daf843065b21a30f6a,65af5706cbfd19b26dc0c441,2024-01-23_19h06.01.351,bars,2023.2.3,Win32,144.9275362,657b66ea316d21385b68909f,,,,,,,,,,,,,,,,,,,,,,,,,,,,,,,,,,,,,,,,,,140.728,140.9985,right,0.2641,,140.9987,1,2,141.9984,0,4,4,4,1,6,2,5,1,,,,,,,,,,,,,,,,,,,,,,,,,,,,,,,,,,,,,,,,,
,,65ae79daf843065b21a30f6a,65af5706cbfd19b26dc0c441,2024-01-23_19h06.01.351,bars,2023.2.3,Win32,144.9275362,657b66ea316d21385b68909f,,,,,,,,,,,,,,,,,,,,,,,,,,,,,,,,,,,,,,,,,,141.9986,142.3041,left,0.2988,,142.3041,4,1,143.304,0,5,5,5,1,4,4,4,4,,,,,,,,,,,,,,,,,,,,,,,,,,,,,,,,,,,,,,,,,
,,65ae79daf843065b21a30f6a,65af5706cbfd19b26dc0c441,2024-01-23_19h06.01.351,bars,2023.2.3,Win32,144.9275362,657b66ea316d21385b68909f,,,,,,,,,,,,,,,,,,,,,,,,,,,,,,,,,,,,,,,,,,143.3043,143.7485,left,0.44,,143.7485,1,1,144.7485,0,6,6,6,1,2,2,1,2,,,,,,,,,,,,,,,,,,,,,,,,,,,,,,,,,,,,,,,,,
,,65ae79daf843065b21a30f6a,65af5706cbfd19b26dc0c441,2024-01-23_19h06.01.351,bars,2023.2.3,Win32,144.9275362,657b66ea316d21385b68909f,,,,,,,,,,,,,,,,,,,,,,,,,,,,,,,,,,,,,,,,,,144.7487,145.2901,right,0.538,,145.2901,1,2,146.29,0,7,7,7,1,0,0,0,1,,,,,,,,,,,,,,,,,,,,,,,,,,,,,,,,,,,,,,,,,
,,65ae79daf843065b21a30f6a,65af5706cbfd19b26dc0c441,2024-01-23_19h06.01.351,bars,2023.2.3,Win32,144.9275362,657b66ea316d21385b68909f,,,,,,,,,,,,,,,,,,,,,,,,,,,,,,,,,,,,,,,,,,146.2902,147.1513,right,0.8542,,147.1513,0,2,148.1511,0,8,8,8,1,0,2,1,0,,,,,,,,,,,,,,,,,,,,,,,,,,,,,,,,,,,,,,,,,
,,65ae79daf843065b21a30f6a,65af5706cbfd19b26dc0c441,2024-01-23_19h06.01.351,bars,2023.2.3,Win32,144.9275362,657b66ea316d21385b68909f,,,,,,,,,,,,,,,,,,,,,,,,,,,,,,,,,,,,,,,,,,148.1513,148.4706,left,0.3135,,148.4706,2,1,149.4706,0,9,9,9,1,2,4,2,3,,,,,,,,,,,,,,,,,,,,,,,,,,,,,,,,,,,,,,,,,
,,65ae79daf843065b21a30f6a,65af5706cbfd19b26dc0c441,2024-01-23_19h06.01.351,bars,2023.2.3,Win32,144.9275362,657b66ea316d21385b68909f,,,,,,,,,,,,,,,,,,,,,,,,,,,,,,,,,,,,,,,,,,149.4708,149.9151,right,0.4393,,149.9152,3,2,150.9149,0,10,10,10,1,0,2,0,3,,,,,,,,,,,,,,,,,,,,,,,,,,,,,,,,,,,,,,,,,
,,65ae79daf843065b21a30f6a,65af5706cbfd19b26dc0c441,2024-01-23_19h06.01.351,bars,2023.2.3,Win32,144.9275362,657b66ea316d21385b68909f,,,,,,,,,,,,,,,,,,,,,,,,,,,,,,,,,,,,,,,,,,150.9152,151.2553,right,0.3353,,151.2553,3,2,152.2552,0,11,11,11,1,0,4,0,3,,,,,,,,,,,,,,,,,,,,,,,,,,,,,,,,,,,,,,,,,
,,65ae79daf843065b21a30f6a,65af5706cbfd19b26dc0c441,2024-01-23_19h06.01.351,bars,2023.2.3,Win32,144.9275362,657b66ea316d21385b68909f,,,,,,,,,,,,,,,,,,,,,,,,,,,,,,,,,,,,,,,,,,152.2554,152.5608,left,0.3003,,152.5608,1,1,153.5607,0,12,12,12,1,2,6,1,6,,,,,,,,,,,,,,,,,,,,,,,,,,,,,,,,,,,,,,,,,
,,65ae79daf843065b21a30f6a,65af5706cbfd19b26dc0c441,2024-01-23_19h06.01.351,bars,2023.2.3,Win32,144.9275362,657b66ea316d21385b68909f,,,,,,,,,,,,,,,,,,,,,,,,,,,,,,,,,,,,,,,,,,153.5608,153.7552,left,0.191,,153.7552,1,1,154.7551,0,13,13,13,1,0,4,1,3,,,,,,,,,,,,,,,,,,,,,,,,,,,,,,,,,,,,,,,,,
,,65ae79daf843065b21a30f6a,65af5706cbfd19b26dc0c441,2024-01-23_19h06.01.351,bars,2023.2.3,Win32,144.9275362,657b66ea316d21385b68909f,,,,,,,,,,,,,,,,,,,,,,,,,,,,,,,,,,,,,,,,,,154.7553,155.4288,left,0.667,,155.4288,2,1,156.4288,0,14,14,14,1,2,6,2,7,,,,,,,,,,,,,,,,,,,,,,,,,,,,,,,,,,,,,,,,,
,,65ae79daf843065b21a30f6a,65af5706cbfd19b26dc0c441,2024-01-23_19h06.01.351,bars,2023.2.3,Win32,144.9275362,657b66ea316d21385b68909f,,,,,,,,,,,,,,,,,,,,,,,,,,,,,,,,,,,,,,,,,,156.4289,156.9912,left,0.5505,,156.9913,3,1,157.9911,0,15,15,15,1,4,8,3,9,,,,,,,,,,,,,,,,,,,,,,,,,,,,,,,,,,,,,,,,,
,,65ae79daf843065b21a30f6a,65af5706cbfd19b26dc0c441,2024-01-23_19h06.01.351,bars,2023.2.3,Win32,144.9275362,657b66ea316d21385b68909f,,,,,,,,,,,,,,,,,,,,,,,,,,,,,,,,,,,,,,,,,,157.9914,158.2344,right,0.2304,,158.2344,7,2,159.2342,0,16,16,16,1,6,6,7,7,,,,,,,,,,,,,,,,,,,,,,,,,,,,,,,,,,,,,,,,,
,,65ae79daf843065b21a30f6a,65af5706cbfd19b26dc0c441,2024-01-23_19h06.01.351,bars,2023.2.3,Win32,144.9275362,657b66ea316d21385b68909f,,,,,,,,,,,,,,,,,,,,,,,,,,,,,,,,,,,,,,,,,,159.2344,159.5537,left,0.3072,,159.5537,9,1,160.5536,0,17,17,17,1,8,4,9,5,,,,,,,,,,,,,,,,,,,,,,,,,,,,,,,,,,,,,,,,,
,,65ae79daf843065b21a30f6a,65af5706cbfd19b26dc0c441,2024-01-23_19h06.01.351,bars,2023.2.3,Win32,144.9275362,657b66ea316d21385b68909f,,,,,,,,,,,,,,,,,,,,,,,,,,,,,,,,,,,,,,,,,,160.5538,160.8175,left,0.2501,,160.8175,5,1,161.8174,0,18,18,18,1,6,2,5,1,,,,,,,,,,,,,,,,,,,,,,,,,,,,,,,,,,,,,,,,,
,,65ae79daf843065b21a30f6a,65af5706cbfd19b26dc0c441,2024-01-23_19h06.01.351,bars,2023.2.3,Win32,144.9275362,657b66ea316d21385b68909f,,,,,,,,,,,,,,,,,,,,,,,,,,,,,,,,,,,,,,,,,,161.8177,162.1092,right,0.2789,,162.1092,0,2,163.1091,0,19,19,19,1,8,0,7,0,,,,,,,,,,,,,,,,,,,,,,,,,,,,,,,,,,,,,,,,,
,,65ae79daf843065b21a30f6a,65af5706cbfd19b26dc0c441,2024-01-23_19h06.01.351,bars,2023.2.3,Win32,144.9275362,657b66ea316d21385b68909f,,,,,,,,,,,,,,,,,,,,,,,,,,,,,,,,,,,,,,,,,,,,,,,,,,,,,,,,,,,,163.1095,182.9979,space,19.8798,,,,,,,,,,,,,,,,,,,,,,,,,,,,,,,,,,,,,
,,65ae79daf843065b21a30f6a,65af5706cbfd19b26dc0c441,2024-01-23_19h06.01.351,bars,2023.2.3,Win32,144.9275362,657b66ea316d21385b68909f,,,,,,,,,,,184.2013,185.1989,,,185.699,185.9488,,90,90,,,,,,,,,,,,,,,,bars/037.png,bars/mask003.png,,,,,,,,,,,,5,2,,,,,,,8,8,9,9,,,,,,183.0047,184.1991,space,1.1847,,185.199,185.699,185.9491,191.2338,space,5.2718,,191.234,60,15,192.2336,192.2337,202.0947,space,9.8505,,0,0,0,0,1,150,105,,,,,,,,
,,65ae79daf843065b21a30f6a,65af5706cbfd19b26dc0c441,2024-01-23_19h06.01.351,bars,2023.2.3,Win32,144.9275362,657b66ea316d21385b68909f,,,,,,,,,,,202.1006,203.1012,,,203.6013,203.8512,,101,101,,,,,,,,,,,,,,,,bars/011.png,bars/mask007.png,,,,,,,,,,,,3,2,,,,,,,10,6,8,6,,,,,,,,,,,203.1013,203.6012,203.8512,206.3096,space,2.4454,,206.3096,59,16,207.3095,207.3096,214.8511,space,7.5309,,0,1,1,1,1,160,85,,,,,,,,
,,65ae79daf843065b21a30f6a,65af5706cbfd19b26dc0c441,2024-01-23_19h06.01.351,bars,2023.2.3,Win32,144.9275362,657b66ea316d21385b68909f,,,,,,,,,,,214.8569,215.8578,,,216.3578,216.6079,,84,84,,,,,,,,,,,,,,,,bars/039.png,bars/mask006.png,,,,,,,,,,,,2,2,,,,,,,8,8,10,8,,,,,,,,,,,215.8578,216.3578,216.6079,221.4551,space,4.8363,,221.4551,89,21,222.455,222.455,224.3995,space,1.9332,,0,2,2,2,1,175,105,,,,,,,,
,,65ae79daf843065b21a30f6a,65af5706cbfd19b26dc0c441,2024-01-23_19h06.01.351,bars,2023.2.3,Win32,144.9275362,657b66ea316d21385b68909f,,,,,,,,,,,224.3997,225.3993,,,225.8993,226.1493,,169,169,,,,,,,,,,,,,,,,bars/041.png,bars/mask001.png,,,,,,,,,,,,0,1,,,,,,,6,6,4,7,,,,,,,,,,,225.3993,225.8992,226.1493,228.6493,space,2.4874,,228.6493,31,84,229.6492,229.6492,232.9339,space,3.2745,,0,3,3,3,1,20,85,,,,,,,,
,,65ae79daf843065b21a30f6a,65af5706cbfd19b26dc0c441,2024-01-23_19h06.01.351,bars,2023.2.3,Win32,144.9275362,657b66ea316d21385b68909f,,,,,,,,,,,232.9395,233.9407,,,234.4408,234.6907,,21,21,,,,,,,,,,,,,,,,bars/001.png,bars/mask006.png,,,,,,,,,,,,0,2,,,,,,,4,8,5,7,,,,,,,,,,,233.9408,234.4408,234.6907,236.8018,space,2.1007,,236.8018,71,64,237.8018,237.8018,247.7878,space,9.9708,,0,4,4,4,1,130,85,,,,,,,,
,,65ae79daf843065b21a30f6a,65af5706cbfd19b26dc0c441,2024-01-23_19h06.01.351,bars,2023.2.3,Win32,144.9275362,657b66ea316d21385b68909f,,,,,,,,,,,247.7936,248.7946,,,249.2946,249.5446,,85,85,,,,,,,,,,,,,,,,bars/046.png,bars/mask003.png,,,,,,,,,,,,6,2,,,,,,,2,6,1,6,,,,,,,,,,,248.7946,249.2946,249.5447,255.3084,space,5.7534,,255.3084,70,0,256.3083,256.3083,265.4401,space,9.1201,,0,5,5,5,1,155,85,,,,,,,,
,,65ae79daf843065b21a30f6a,65af5706cbfd19b26dc0c441,2024-01-23_19h06.01.351,bars,2023.2.3,Win32,144.9275362,657b66ea316d21385b68909f,,,,,,,,,,,265.4461,266.447,,,266.9471,267.197,,83,83,,,,,,,,,,,,,,,,bars/022.png,bars/mask000.png,,,,,,,,,,,,2,1,,,,,,,4,4,3,6,,,,,,,,,,,266.447,266.947,267.197,270.9539,space,3.7453,,270.9539,12,63,271.9537,271.9538,273.9607,space,1.9942,,0,6,6,6,1,95,20,,,,,,,,
,,65ae79daf843065b21a30f6a,65af5706cbfd19b26dc0c441,2024-01-23_19h06.01.351,bars,2023.2.3,Win32,144.9275362,657b66ea316d21385b68909f,,,,,,,,,,,273.961,274.9606,,,275.4607,275.7107,,95,95,,,,,,,,,,,,,,,,bars/045.png,bars/mask004.png,,,,,,,,,,,,1,1,,,,,,,2,2,1,1,,,,,,,,,,,274.9606,275.4606,275.7107,278.2384,space,2.514,,278.2384,5,85,279.2383,279.2384,282.8842,space,3.633,,0,7,7,7,1,100,10,,,,,,,,
,,65ae79daf843065b21a30f6a,65af5706cbfd19b26dc0c441,2024-01-23_19h06.01.351,bars,2023.2.3,Win32,144.9275362,657b66ea316d21385b68909f,,,,,,,,,,,282.8897,283.891,,,284.3911,284.6409,,100,100,,,,,,,,,,,,,,,,bars/041.png,bars/mask006.png,,,,,,,,,,,,2,2,,,,,,,4,4,3,3,,,,,,,,,,,283.8911,284.3909,284.6409,289.1618,space,4.5068,,289.1618,80,15,290.1617,290.1617,303.0364,space,12.8605,,0,8,8,8,1,20,85,,,,,,,,
,,65ae79daf843065b21a30f6a,65af5706cbfd19b26dc0c441,2024-01-23_19h06.01.351,bars,2023.2.3,Win32,144.9275362,657b66ea316d21385b68909f,,,,,,,,,,,303.0415,304.0432,,,304.5433,304.7933,,85,85,,,,,,,,,,,,,,,,bars/031.png,bars/mask005.png,,,,,,,,,,,,0,1,,,,,,,2,6,3,7,,,,,,,,,,,304.0432,304.5432,304.7933,309.821,space,5.0163,,309.821,35,50,310.8209,310.8209,315.5919,space,4.7614,,0,9,9,9,1,120,35,,,,,,,,
,,65ae79daf843065b21a30f6a,65af5706cbfd19b26dc0c441,2024-01-23_19h06.01.351,bars,2023.2.3,Win32,144.9275362,657b66ea316d21385b68909f,,,,,,,,,,,315.5974,316.5985,,,317.0986,317.3485,,121,121,,,,,,,,,,,,,,,,bars/036.png,bars/mask009.png,,,,,,,,,,,,1,1,,,,,,,4,8,4,8,,,,,,,,,,,316.5985,317.0986,317.3486,321.8346,space,4.4739,,321.8346,24,79,322.8345,322.8345,325.8137,space,2.9665,,0,10,10,10,1,145,20,,,,,,,,
,,65ae79daf843065b21a30f6a,65af5706cbfd19b26dc0c441,2024-01-23_19h06.01.351,bars,2023.2.3,Win32,144.9275362,657b66ea316d21385b68909f,,,,,,,,,,,325.8193,326.8205,,,327.3206,327.5705,,145,145,,,,,,,,,,,,,,,,bars/034.png,bars/mask007.png,,,,,,,,,,,,2,1,,,,,,,6,6,6,6,,,,,,,,,,,326.8206,327.3206,327.5705,329.7997,space,2.2185,,329.7997,20,80,330.7996,330.7996,332.7302,space,1.9182,,0,11,11,11,1,125,65,,,,,,,,
,,65ae79daf843065b21a30f6a,65af5706cbfd19b26dc0c441,2024-01-23_19h06.01.351,bars,2023.2.3,Win32,144.9275362,657b66ea316d21385b68909f,,,,,,,,,,,332.7304,333.73,,,334.2302,334.4801,,126,126,,,,,,,,,,,,,,,,bars/031.png,bars/mask004.png,,,,,,,,,,,,2,1,,,,,,,4,4,3,3,,,,,,,,,,,333.73,334.2302,334.4801,336.6258,space,2.1365,,336.6259,6,89,337.6258,337.6258,339.6068,space,1.9725,,0,12,12,12,1,120,35,,,,,,,,
,,65ae79daf843065b21a30f6a,65af5706cbfd19b26dc0c441,2024-01-23_19h06.01.351,bars,2023.2.3,Win32,144.9275362,657b66ea316d21385b68909f,,,,,,,,,,,339.607,340.6049,,,341.1049,341.355,,119,119,,,,,,,,,,,,,,,,bars/034.png,bars/mask002.png,,,,,,,,,,,,1,1,,,,,,,2,6,1,6,,,,,,,,,,,340.605,341.1048,341.355,344.7785,space,3.4125,,344.7785,6,54,345.7783,345.7784,346.9799,space,1.1894,,0,13,13,13,1,125,65,,,,,,,,
,,65ae79daf843065b21a30f6a,65af5706cbfd19b26dc0c441,2024-01-23_19h06.01.351,bars,2023.2.3,Win32,144.9275362,657b66ea316d21385b68909f,,,,,,,,,,,346.98,347.9798,,,348.4797,348.7297,,134,134,,,,,,,,,,,,,,,,bars/032.png,bars/mask002.png,,,,,,,,,,,,0,1,,,,,,,0,8,0,8,,,,,,,,,,,347.9798,348.4797,348.7298,350.5214,space,1.7788,,350.5214,9,66,351.5213,351.5213,355.0213,space,3.4873,,0,14,14,14,1,125,20,,,,,,,,
,,65ae79daf843065b21a30f6a,65af5706cbfd19b26dc0c441,2024-01-23_19h06.01.351,bars,2023.2.3,Win32,144.9275362,657b66ea316d21385b68909f,,,,,,,,,,,355.0215,356.0212,,,356.5213,356.7712,,121,121,,,,,,,,,,,,,,,,bars/020.png,bars/mask008.png,,,,,,,,,,,,0,1,,,,,,,0,6,0,6,,,,,,,,,,,356.0213,356.5212,356.7712,359.7782,space,2.9931,,359.7782,6,49,360.7781,360.7782,362.9309,space,2.1399,,0,15,15,15,1,115,170,,,,,,,,
,,65ae79daf843065b21a30f6a,65af5706cbfd19b26dc0c441,2024-01-23_19h06.01.351,bars,2023.2.3,Win32,144.9275362,657b66ea316d21385b68909f,,,,,,,,,,,362.9312,363.9307,,,364.4307,364.6808,,119,119,,,,,,,,,,,,,,,,bars/010.png,bars/mask007.png,,,,,,,,,,,,0,1,,,,,,,2,8,3,9,,,,,,,,,,,363.9307,364.4307,364.6809,369.1322,space,4.4377,,369.1322,46,64,370.1319,370.132,374.0764,space,3.9353,,0,16,16,16,1,165,55,,,,,,,,
,,65ae79daf843065b21a30f6a,65af5706cbfd19b26dc0c441,2024-01-23_19h06.01.351,bars,2023.2.3,Win32,144.9275362,657b66ea316d21385b68909f,,,,,,,,,,,374.0819,375.0833,,,375.5833,375.8332,,165,165,,,,,,,,,,,,,,,,bars/034.png,bars/mask007.png,,,,,,,,,,,,0,1,,,,,,,0,10,1,10,,,,,,,,,,,375.0833,375.5832,375.8333,380.4929,space,4.6514,,380.4929,40,80,381.4928,381.4929,386.4859,space,4.982,,0,17,17,17,1,125,65,,,,,,,,
,,65ae79daf843065b21a30f6a,65af5706cbfd19b26dc0c441,2024-01-23_19h06.01.351,bars,2023.2.3,Win32,144.9275362,657b66ea316d21385b68909f,,,,,,,,,,,386.4916,387.4927,,,387.9928,388.2427,,128,128,,,,,,,,,,,,,,,,bars/018.png,bars/mask006.png,,,,,,,,,,,,0,1,,,,,,,2,8,1,7,,,,,,,,,,,387.4927,387.9927,388.2427,390.6107,space,2.355,,390.6107,22,38,391.6107,391.6107,393.0065,space,1.385,,0,18,18,18,1,150,90,,,,,,,,
,,65ae79daf843065b21a30f6a,65af5706cbfd19b26dc0c441,2024-01-23_19h06.01.351,bars,2023.2.3,Win32,144.9275362,657b66ea316d21385b68909f,,,,,,,,,,,393.0068,394.0064,,,394.5064,394.7564,,158,158,,,,,,,,,,,,,,,,bars/003.png,bars/mask004.png,,,,,,,,,,,,2,2,,,,,,,0,6,0,5,,,,,,,,,,,394.0064,394.5064,394.7564,397.437,space,2.6672,,397.437,47,18,398.4368,398.4368,403.159,space,4.7114,,0,19,19,19,1,25,140,,,,,,,,
,,65ae79daf843065b21a30f6a,65af5706cbfd19b26dc0c441,2024-01-23_19h06.01.351,bars,2023.2.3,Win32,144.9275362,657b66ea316d21385b68909f,,,,,,,,,,,403.1649,404.1658,,,404.6659,404.9159,,139,139,,,,,,,,,,,,,,,,bars/016.png,bars/mask006.png,,,,,,,,,,,,1,2,,,,,,,2,8,2,8,,,,,,,,,,,404.1659,404.6659,404.9159,409.0755,space,4.1462,,409.0756,81,26,410.0755,410.0755,413.9643,space,3.8753,,0,20,20,20,1,40,165,,,,,,,,
,,65ae79daf843065b21a30f6a,65af5706cbfd19b26dc0c441,2024-01-23_19h06.01.351,bars,2023.2.3,Win32,144.9275362,657b66ea316d21385b68909f,,,,,,,,,,,413.9702,414.9712,,,415.4712,415.7212,,168,-12,,,,,,,,,,,,,,,,bars/022.png,bars/mask001.png,,,,,,,,,,,,0,2,,,,,,,4,10,5,10,,,,,,,,,,,414.9712,415.4712,415.7212,419.9573,space,4.2256,,419.9573,73,32,420.9572,420.9572,423.8669,space,2.8969,,0,21,21,21,1,95,20,,,,,,,,
,,65ae79daf843065b21a30f6a,65af5706cbfd19b26dc0c441,2024-01-23_19h06.01.351,bars,2023.2.3,Win32,144.9275362,657b66ea316d21385b68909f,,,,,,,,,,,423.8726,424.8737,,,425.3737,425.6238,,21,201,,,,,,,,,,,,,,,,bars/044.png,bars/mask002.png,,,,,,,,,,,,0,2,,,,,,,6,8,6,8,,,,,,,,,,,424.8738,425.3737,425.6238,428.4778,space,2.8442,,428.4779,54,46,429.4778,429.4778,430.8529,space,1.3615,,0,22,22,22,1,75,155,,,,,,,,
,,65ae79daf843065b21a30f6a,65af5706cbfd19b26dc0c441,2024-01-23_19h06.01.351,bars,2023.2.3,Win32,144.9275362,657b66ea316d21385b68909f,,,,,,,,,,,430.8531,431.8527,,,432.3527,432.6027,,154,-26,,,,,,,,,,,,,,,,bars/001.png,bars/mask002.png,,,,,,,,,,,,1,1,,,,,,,8,10,7,10,,,,,,,,,,,431.8527,432.3527,432.6027,434.6235,space,2.0118,,434.6235,24,69,435.6235,435.6235,437.7902,space,2.1519,,0,23,23,23,1,130,85,,,,,,,,
,,65ae79daf843065b21a30f6a,65af5706cbfd19b26dc0c441,2024-01-23_19h06.01.351,bars,2023.2.3,Win32,144.9275362,657b66ea316d21385b68909f,,,,,,,,,,,437.7904,438.7901,,,439.2901,439.5401,,137,-43,,,,,,,,,,,,,,,,bars/041.png,bars/mask004.png,,,,,,,,,,,,0,2,,,,,,,10,10,10,9,,,,,,,,,,,438.7901,439.2901,439.5401,444.922,space,5.3685,,444.922,63,52,445.9218,445.9218,447.4011,space,1.4653,,0,24,24,24,1,20,85,,,,,,,,
,,65ae79daf843065b21a30f6a,65af5706cbfd19b26dc0c441,2024-01-23_19h06.01.351,bars,2023.2.3,Win32,144.9275362,657b66ea316d21385b68909f,,,,,,,,,,,447.4013,448.401,,,448.901,449.151,,79,79,,,,,,,,,,,,,,,,bars/048.png,bars/mask006.png,,,,,,,,,,,,0,1,,,,,,,10,10,9,9,,,,,,,,,,,448.401,448.901,449.151,453.3662,space,4.2054,,453.3662,29,84,454.3661,454.3661,458.3106,space,3.9317,,0,25,25,25,1,50,175,,,,,,,,
,,65ae79daf843065b21a30f6a,65af5706cbfd19b26dc0c441,2024-01-23_19h06.01.351,bars,2023.2.3,Win32,144.9275362,657b66ea316d21385b68909f,,,,,,,,,,,458.3161,459.3173,,,459.8174,460.0674,,50,50,,,,,,,,,,,,,,,,bars/037.png,bars/mask004.png,,,,,,,,,,,,0,2,,,,,,,8,10,8,10,,,,,,,,,,,459.3173,459.8174,460.0675,463.6229,space,3.542,,463.6229,80,55,464.6228,464.6228,468.2825,space,3.6495,,0,26,26,26,1,150,105,,,,,,,,
,,65ae79daf843065b21a30f6a,65af5706cbfd19b26dc0c441,2024-01-23_19h06.01.351,bars,2023.2.3,Win32,144.9275362,657b66ea316d21385b68909f,,,,,,,,,,,468.2882,469.2894,,,469.7894,470.0394,,127,127,,,,,,,,,,,,,,,,bars/037.png,bars/mask002.png,,,,,,,,,,,,2,2,,,,,,,6,8,7,8,,,,,,,,,,,469.2895,469.7894,470.0394,473.6157,space,3.5643,,473.6157,23,22,474.6156,474.6156,479.5462,space,4.9167,,0,27,27,27,1,150,105,,,,,,,,
,,65ae79daf843065b21a30f6a,65af5706cbfd19b26dc0c441,2024-01-23_19h06.01.351,bars,2023.2.3,Win32,144.9275362,657b66ea316d21385b68909f,,,,,,,,,,,479.5517,480.553,,,481.053,481.303,,132,132,,,,,,,,,,,,,,,,bars/025.png,bars/mask004.png,,,,,,,,,,,,0,1,,,,,,,4,6,4,6,,,,,,,,,,,480.553,481.053,481.303,484.8516,space,3.5351,,484.8516,27,88,485.8515,485.8515,491.9348,space,6.0727,,0,28,28,28,1,105,40,,,,,,,,
,,65ae79daf843065b21a30f6a,65af5706cbfd19b26dc0c441,2024-01-23_19h06.01.351,bars,2023.2.3,Win32,144.9275362,657b66ea316d21385b68909f,,,,,,,,,,,491.9403,492.9416,,,493.4416,493.6916,,73,73,,,,,,,,,,,,,,,,bars/039.png,bars/mask004.png,,,,,,,,,,,,0,2,,,,,,,6,4,6,4,,,,,,,,,,,492.9416,493.4416,493.6916,498.1221,space,4.4172,,498.1222,78,32,499.122,499.122,501.5805,space,2.4436,,0,29,29,29,1,175,105,,,,,,,,
,,65ae79daf843065b21a30f6a,65af5706cbfd19b26dc0c441,2024-01-23_19h06.01.351,bars,2023.2.3,Win32,144.9275362,657b66ea316d21385b68909f,,,,,,,,,,,501.5862,502.5872,,,503.0872,503.3371,,72,72,,,,,,,,,,,,,,,,bars/035.png,bars/mask004.png,,,,,,,,,,,,4,2,,,,,,,8,6,10,7,,,,,,,,,,,502.5872,503.0871,503.3372,505.0178,space,1.6705,,505.0178,77,12,506.0176,506.0177,509.2191,space,3.1898,,0,30,30,30,1,175,60,,,,,,,,
,,65ae79daf843065b21a30f6a,65af5706cbfd19b26dc0c441,2024-01-23_19h06.01.351,bars,2023.2.3,Win32,144.9275362,657b66ea316d21385b68909f,,,,,,,,,,,509.2246,510.2259,,,510.7259,510.9758,,71,71,,,,,,,,,,,,,,,,bars/016.png,bars/mask006.png,,,,,,,,,,,,0,1,,,,,,,6,4,6,4,,,,,,,,,,,510.2259,510.7259,510.9758,514.2606,space,3.2707,,514.2606,31,86,515.2604,515.2605,519.8299,space,4.5548,,0,31,31,31,1,40,165,,,,,,,,
,,65ae79daf843065b21a30f6a,65af5706cbfd19b26dc0c441,2024-01-23_19h06.01.351,bars,2023.2.3,Win32,144.9275362,657b66ea316d21385b68909f,,,,,,,,,,,519.8356,520.8368,,,521.33,521.5798,,50,50,,,,,,,,,,,,,,,,bars/037.png,bars/mask008.png,,,,,,,,,,,,0,2,,,,,,,8,2,7,3,,,,,,,,,,,520.8368,521.33,521.5798,525.6492,space,4.058,,525.6492,80,55,526.6491,526.6491,529.2325,space,2.5725,,0,32,32,32,1,150,105,,,,,,,,
,,65ae79daf843065b21a30f6a,65af5706cbfd19b26dc0c441,2024-01-23_19h06.01.351,bars,2023.2.3,Win32,144.9275362,657b66ea316d21385b68909f,,,,,,,,,,,529.238,530.2394,,,530.7393,530.9893,,113,113,,,,,,,,,,,,,,,,bars/023.png,bars/mask003.png,,,,,,,,,,,,5,2,,,,,,,10,4,9,5,,,,,,,,,,,530.2394,530.7393,530.9893,533.5032,space,2.5027,,533.5032,87,2,534.5032,534.5032,538.1073,space,3.5902,,0,33,33,33,1,20,115,,,,,,,,
,,65ae79daf843065b21a30f6a,65af5706cbfd19b26dc0c441,2024-01-23_19h06.01.351,bars,2023.2.3,Win32,144.9275362,657b66ea316d21385b68909f,,,,,,,,,,,538.1129,539.114,,,539.6141,539.8641,,109,109,,,,,,,,,,,,,,,,bars/009.png,bars/mask002.png,,,,,,,,,,,,6,2,,,,,,,10,6,10,7,,,,,,,,,,,539.1142,539.6141,539.8641,543.2668,space,3.3936,,543.2669,86,4,544.2668,544.2668,547.2112,space,2.9321,,0,34,34,34,1,15,105,,,,,,,,
,,65ae79daf843065b21a30f6a,65af5706cbfd19b26dc0c441,2024-01-23_19h06.01.351,bars,2023.2.3,Win32,144.9275362,657b66ea316d21385b68909f,,,,,,,,,,,547.217,548.218,,,548.7181,548.968,,115,-65,,,,,,,,,,,,,,,,bars/003.png,bars/mask008.png,,,,,,,,,,,,1,2,,,,,,,8,8,9,9,,,,,,,,,,,548.218,548.718,548.9681,552.9125,space,3.9358,,552.9125,90,25,553.9123,553.9124,555.1415,space,1.219,,0,35,35,35,1,25,140,,,,,,,,
,,65ae79daf843065b21a30f6a,65af5706cbfd19b26dc0c441,2024-01-23_19h06.01.351,bars,2023.2.3,Win32,144.9275362,657b66ea316d21385b68909f,,,,,,,,,,,555.1418,556.1414,,,556.6415,556.8915,,144,144,,,,,,,,,,,,,,,,bars/006.png,bars/mask006.png,,,,,,,,,,,,0,2,,,,,,,10,6,10,6,,,,,,,,,,,556.1415,556.6415,556.8915,560.6969,space,3.7937,,560.697,71,44,561.6969,561.6969,562.9054,space,1.1955,,0,36,36,36,1,35,100,,,,,,,,
,,65ae79daf843065b21a30f6a,65af5706cbfd19b26dc0c441,2024-01-23_19h06.01.351,bars,2023.2.3,Win32,144.9275362,657b66ea316d21385b68909f,,,,,,,,,,,562.9056,563.9052,,,564.4051,564.6552,,112,112,,,,,,,,,,,,,,,,bars/039.png,bars/mask003.png,,,,,,,,,,,,6,2,,,,,,,10,8,10,8,,,,,,,,,,,563.9052,564.4051,564.6553,566.8496,space,2.1816,,566.8496,63,7,567.8496,567.8496,568.8218,space,0.9585,,0,37,37,37,1,175,105,,,,,,,,
,,65ae79daf843065b21a30f6a,65af5706cbfd19b26dc0c441,2024-01-23_19h06.01.351,bars,2023.2.3,Win32,144.9275362,657b66ea316d21385b68909f,,,,,,,,,,,568.822,569.8218,,,570.3217,570.5717,,103,103,,,,,,,,,,,,,,,,bars/003.png,bars/mask006.png,,,,,,,,,,,,0,2,,,,,,,8,10,8,10,,,,,,,,,,,569.8218,570.3217,570.5717,572.3981,space,1.8152,,572.3981,78,37,573.398,573.398,574.4277,space,1.0211,,0,38,38,38,1,25,140,,,,,,,,
,,65ae79daf843065b21a30f6a,65af5706cbfd19b26dc0c441,2024-01-23_19h06.01.351,bars,2023.2.3,Win32,144.9275362,657b66ea316d21385b68909f,,,,,,,,,,,574.4278,575.4272,,,575.9273,576.1775,,155,-25,,,,,,,,,,,,,,,,bars/021.png,bars/mask000.png,,,,,,,,,,,,10,1,,,,,,,10,8,10,9,,,,,,,,,,,575.4273,575.9273,576.1776,578.9342,space,2.7496,,578.9342,0,85,579.9339,579.934,584.5507,space,4.5977,,0,39,39,39,1,155,70,,,,,,,,
,,65ae79daf843065b21a30f6a,65af5706cbfd19b26dc0c441,2024-01-23_19h06.01.351,bars,2023.2.3,Win32,144.9275362,657b66ea316d21385b68909f,,,,,,,,,,,584.5562,585.5574,,,586.0575,586.3074,,160,-20,,,,,,,,,,,,,,,,bars/011.png,bars/mask003.png,,,,,,,,,,,,9,1,,,,,,,10,6,9,6,,,,,,,,,,,585.5574,586.0575,586.3075,589.9254,space,3.6041,,589.9255,0,75,590.9254,590.9254,591.856,space,0.917,,0,40,40,40,1,160,85,,,,,,,,
,,65ae79daf843065b21a30f6a,65af5706cbfd19b26dc0c441,2024-01-23_19h06.01.351,bars,2023.2.3,Win32,144.9275362,657b66ea316d21385b68909f,,,,,,,,,,,591.8563,592.8558,,,593.3559,593.6059,,166,166,,,,,,,,,,,,,,,,bars/049.png,bars/mask009.png,,,,,,,,,,,,8,1,,,,,,,10,8,10,7,,,,,,,,,,,592.8559,593.3558,593.6059,596.3697,space,2.7517,,596.3697,6,51,597.3696,597.3697,599.0017,space,1.6181,,0,41,41,41,1,160,115,,,,,,,,
,,65ae79daf843065b21a30f6a,65af5706cbfd19b26dc0c441,2024-01-23_19h06.01.351,bars,2023.2.3,Win32,144.9275362,657b66ea316d21385b68909f,,,,,,,,,,,599.0019,600.0015,,,600.5015,600.7516,,163,-17,,,,,,,,,,,,,,,,bars/037.png,bars/mask009.png,,,,,,,,,,,,5,1,,,,,,,8,10,8,10,,,,,,,,,,,600.0015,600.5015,600.7516,603.8349,space,3.0703,,603.8349,13,58,604.8347,604.8347,606.0918,space,1.2447,,0,42,42,42,1,150,105,,,,,,,,
,,65ae79daf843065b21a30f6a,65af5706cbfd19b26dc0c441,2024-01-23_19h06.01.351,bars,2023.2.3,Win32,144.9275362,657b66ea316d21385b68909f,,,,,,,,,,,606.0921,607.0917,,,607.5917,607.8417,,155,-25,,,,,,,,,,,,,,,,bars/013.png,bars/mask002.png,,,,,,,,,,,,0,2,,,,,,,6,8,5,8,,,,,,,,,,,607.0917,607.5917,607.8417,611.0292,space,3.1752,,611.0292,80,35,612.0291,612.0291,613.3554,space,1.3114,,0,43,43,43,1,75,10,,,,,,,,
,,65ae79daf843065b21a30f6a,65af5706cbfd19b26dc0c441,2024-01-23_19h06.01.351,bars,2023.2.3,Win32,144.9275362,657b66ea316d21385b68909f,,,,,,,,,,,613.3557,614.3554,,,614.8554,615.1054,,15,195,,,,,,,,,,,,,,,,bars/032.png,bars/mask003.png,,,,,,,,,,,,8,2,,,,,,,4,10,3,10,,,,,,,,,,,614.3554,614.8554,615.1054,617.6956,space,2.5798,,617.6956,70,5,618.6955,618.6956,620.5567,space,1.8484,,0,44,44,44,1,125,20,,,,,,,,
,,65ae79daf843065b21a30f6a,65af5706cbfd19b26dc0c441,2024-01-23_19h06.01.351,bars,2023.2.3,Win32,144.9275362,657b66ea316d21385b68909f,,,,,,,,,,,620.5569,621.5566,,,622.0566,622.3066,,18,18,,,,,,,,,,,,,,,,bars/043.png,bars/mask001.png,,,,,,,,,,,,4,1,,,,,,,6,8,7,8,,,,,,,,,,,621.5567,622.0566,622.3067,625.0011,space,2.6861,,625.0011,12,68,626.0009,626.001,626.994,space,0.9822,,0,45,45,45,1,30,130,,,,,,,,
,,65ae79daf843065b21a30f6a,65af5706cbfd19b26dc0c441,2024-01-23_19h06.01.351,bars,2023.2.3,Win32,144.9275362,657b66ea316d21385b68909f,,,,,,,,,,,626.9942,627.994,,,628.4939,628.7439,,28,28,,,,,,,,,,,,,,,,bars/008.png,bars/mask002.png,,,,,,,,,,,,0,2,,,,,,,4,6,4,5,,,,,,,,,,,627.994,628.4939,628.7439,630.6259,space,1.8687,,630.626,82,28,631.6258,631.6258,632.7995,space,1.1586,,0,46,46,46,1,110,0,,,,,,,,
,,65ae79daf843065b21a30f6a,65af5706cbfd19b26dc0c441,2024-01-23_19h06.01.351,bars,2023.2.3,Win32,144.9275362,657b66ea316d21385b68909f,,,,,,,,,,,632.7998,633.7994,,,634.2994,634.5495,,0,0,,,,,,,,,,,,,,,,bars/036.png,bars/mask008.png,,,,,,,,,,,,1,2,,,,,,,2,4,3,4,,,,,,,,,,,633.7994,634.2993,634.5495,638.1951,space,3.6358,,638.1951,35,20,639.195,639.195,640.4937,space,1.2897,,0,47,47,47,1,145,20,,,,,,,,
,,65ae79daf843065b21a30f6a,65af5706cbfd19b26dc0c441,2024-01-23_19h06.01.351,bars,2023.2.3,Win32,144.9275362,657b66ea316d21385b68909f,,,,,,,,,,,640.4938,641.4936,,,641.9936,642.2437,,17,197,,,,,,,,,,,,,,,,bars/029.png,bars/mask003.png,,,,,,,,,,,,0,2,,,,,,,0,2,0,1,,,,,,,,,,,641.4936,641.9936,642.2437,645.8269,space,3.5742,,645.8269,73,28,646.8268,646.8268,649.556,space,2.7177,,0,48,48,48,1,90,45,,,,,,,,
,,65ae79daf843065b21a30f6a,65af5706cbfd19b26dc0c441,2024-01-23_19h06.01.351,bars,2023.2.3,Win32,144.9275362,657b66ea316d21385b68909f,,,,,,,,,,,649.5619,650.5629,,,651.0628,651.3128,,47,47,,,,,,,,,,,,,,,,bars/016.png,bars/mask006.png,,,,,,,,,,,,0,1,,,,,,,0,4,0,5,,,,,,,,,,,650.5629,651.0628,651.3128,654.3475,space,3.021,,654.3475,7,62,655.3474,655.3474,656.7642,space,1.4026,,0,49,49,49,1,40,165,,,,,,,,
,,65ae79daf843065b21a30f6a,65af5706cbfd19b26dc0c441,2024-01-23_19h06.01.351,bars,2023.2.3,Win32,144.9275362,657b66ea316d21385b68909f,,,,,,,,,,,,,,,,,,,,,,,,,,,,,,,,,,,,,,,,,,,,,,,,,,,,,,,,,,,,,,,,,,,,,,,,,,,,,,,,,,,,,,,,,,,,,656.7647,716.763,0,0,0,2,1,sequence_tables/blk047.csv
,,65ae79daf843065b21a30f6a,65af5706cbfd19b26dc0c441,2024-01-23_19h06.01.351,bars,2023.2.3,Win32,144.9275362,657b66ea316d21385b68909f,,,,,,,,,,,719.2586,720.2556,,,720.7557,721.0056,,90,90,,,,,,,,,,,,,,,,bars/032.png,bars/mask004.png,,,,,,,,,,,,0,1,,,,,,,9,8,9,9,,,,,,716.769,719.2558,space,2.4837,,720.2556,720.7557,721.0057,726.4917,space,5.4726,,726.4918,35,70,727.4916,727.4916,727.4977,,,,0,0,0,0,1,125,20,,,,,,,,
,,65ae79daf843065b21a30f6a,65af5706cbfd19b26dc0c441,2024-01-23_19h06.01.351,bars,2023.2.3,Win32,144.9275362,657b66ea316d21385b68909f,,,,,,,,,,,727.4978,728.4985,,,728.9986,729.2485,,158,-22,,,,,,,,,,,,,,,,bars/049.png,bars/mask000.png,,,,,,,,,,,,7,1,,,,,,,7,10,7,10,,,,,,,,,,,728.4985,728.9985,729.2485,733.672,space,4.4096,,733.672,2,43,734.6719,734.672,734.6778,,,,0,1,1,1,1,160,115,,,,,,,,
,,65ae79daf843065b21a30f6a,65af5706cbfd19b26dc0c441,2024-01-23_19h06.01.351,bars,2023.2.3,Win32,144.9275362,657b66ea316d21385b68909f,,,,,,,,,,,734.6779,735.679,,,736.1789,736.4289,,52,52,,,,,,,,,,,,,,,,bars/020.png,bars/mask006.png,,,,,,,,,,,,0,2,,,,,,,9,10,9,10,,,,,,,,,,,735.679,736.1789,736.429,741.1859,space,4.7432,,741.1859,63,62,742.1857,742.1857,742.1921,,,,0,2,2,2,1,115,170,,,,,,,,
,,65ae79daf843065b21a30f6a,65af5706cbfd19b26dc0c441,2024-01-23_19h06.01.351,bars,2023.2.3,Win32,144.9275362,657b66ea316d21385b68909f,,,,,,,,,,,742.1922,743.1926,,,743.6926,743.9426,,160,160,,,,,,,,,,,,,,,,bars/009.png,bars/mask006.png,,,,,,,,,,,,0,1,,,,,,,7,8,8,6,,,,,,,,,,,743.1926,743.6926,743.9426,747.9912,space,4.0348,,747.9912,35,55,748.9911,748.9911,748.9975,,,,0,3,3,3,1,15,105,,,,,,,,
,,65ae79daf843065b21a30f6a,65af5706cbfd19b26dc0c441,2024-01-23_19h06.01.351,bars,2023.2.3,Win32,144.9275362,657b66ea316d21385b68909f,,,,,,,,,,,748.9976,749.998,,,750.498,750.7482,,160,-20,,,,,,,,,,,,,,,,bars/047.png,bars/mask003.png,,,,,,,,,,,,0,1,,,,,,,5,10,6,10,,,,,,,,,,,749.998,750.498,750.7482,752.7688,space,2.0111,,752.7688,35,90,753.7688,753.7688,753.774,,,,0,4,4,4,1,15,70,,,,,,,,
,,65ae79daf843065b21a30f6a,65af5706cbfd19b26dc0c441,2024-01-23_19h06.01.351,bars,2023.2.3,Win32,144.9275362,657b66ea316d21385b68909f,,,,,,,,,,,753.7741,754.7705,,,755.2704,755.5187,,112,112,,,,,,,,,,,,,,,,bars/020.png,bars/mask006.png,,,,,,,,,,,,6,1,,,,,,,7,8,7,8,,,,,,,,,,,754.7705,755.2704,755.5187,758.5742,space,3.042,,758.5743,3,58,759.5742,759.5742,759.5801,,,,0,5,5,5,1,115,170,,,,,,,,
,,65ae79daf843065b21a30f6a,65af5706cbfd19b26dc0c441,2024-01-23_19h06.01.351,bars,2023.2.3,Win32,144.9275362,657b66ea316d21385b68909f,,,,,,,,,,,759.5802,760.5811,,,761.0811,761.3311,,26,26,,,,,,,,,,,,,,,,bars/006.png,bars/mask007.png,,,,,,,,,,,,6,1,,,,,,,9,6,9,5,,,,,,,,,,,760.5811,761.0811,761.3311,764.0185,space,2.6779,,764.0185,9,74,765.0185,765.0185,765.0243,,,,0,6,6,6,1,35,100,,,,,,,,
,,65ae79daf843065b21a30f6a,65af5706cbfd19b26dc0c441,2024-01-23_19h06.01.351,bars,2023.2.3,Win32,144.9275362,657b66ea316d21385b68909f,,,,,,,,,,,765.0244,766.0255,,,766.5254,766.7754,,80,80,,,,,,,,,,,,,,,,bars/031.png,bars/mask007.png,,,,,,,,,,,,0,1,,,,,,,7,4,7,2,,,,,,,,,,,766.0255,766.5254,766.7754,768.5184,space,1.7329,,768.5185,40,45,769.5184,769.5184,769.5189,,,,0,7,7,7,1,120,35,,,,,,,,
,,65ae79daf843065b21a30f6a,65af5706cbfd19b26dc0c441,2024-01-23_19h06.01.351,bars,2023.2.3,Win32,144.9275362,657b66ea316d21385b68909f,,,,,,,,,,,769.5192,770.5184,,,771.0184,771.2683,,109,109,,,,,,,,,,,,,,,,bars/047.png,bars/mask000.png,,,,,,,,,,,,0,2,,,,,,,5,2,6,3,,,,,,,,,,,770.5184,771.0184,771.2683,773.2198,space,1.9393,,773.2198,86,39,774.2197,774.2197,774.2256,,,,0,8,8,8,1,15,70,,,,,,,,
,,65ae79daf843065b21a30f6a,65af5706cbfd19b26dc0c441,2024-01-23_19h06.01.351,bars,2023.2.3,Win32,144.9275362,657b66ea316d21385b68909f,,,,,,,,,,,774.2257,775.2266,,,775.7266,775.9765,,116,116,,,,,,,,,,,,,,,,bars/039.png,bars/mask002.png,,,,,,,,,,,,3,2,,,,,,,7,4,8,4,,,,,,,,,,,775.2266,775.7265,775.9765,778.4348,space,2.4475,,778.4349,59,11,779.4348,779.4348,779.4353,,,,0,9,9,9,1,175,105,,,,,,,,
,,65ae79daf843065b21a30f6a,65af5706cbfd19b26dc0c441,2024-01-23_19h06.01.351,bars,2023.2.3,Win32,144.9275362,657b66ea316d21385b68909f,,,,,,,,,,,779.4355,780.4348,,,780.9348,781.1847,,166,166,,,,,,,,,,,,,,,,bars/046.png,bars/mask004.png,,,,,,,,,,,,6,1,,,,,,,9,2,10,2,,,,,,,,,,,780.4348,780.9348,781.1847,783.8167,space,2.6209,,783.8167,11,81,784.8166,784.8166,784.823,,,,0,10,10,10,1,155,85,,,,,,,,
,,65ae79daf843065b21a30f6a,65af5706cbfd19b26dc0c441,2024-01-23_19h06.01.351,bars,2023.2.3,Win32,144.9275362,657b66ea316d21385b68909f,,,,,,,,,,,784.8232,785.8235,,,786.3236,786.5735,,61,61,,,,,,,,,,,,,,,,bars/003.png,bars/mask009.png,,,,,,,,,,,,0,1,,,,,,,7,0,7,0,,,,,,,,,,,785.8235,786.3236,786.5735,789.4415,space,2.8587,,789.4415,36,79,790.4414,790.4415,790.4478,,,,0,11,11,11,1,25,140,,,,,,,,
,,65ae79daf843065b21a30f6a,65af5706cbfd19b26dc0c441,2024-01-23_19h06.01.351,bars,2023.2.3,Win32,144.9275362,657b66ea316d21385b68909f,,,,,,,,,,,790.4479,791.4484,,,791.9484,792.1984,,137,137,,,,,,,,,,,,,,,,bars/022.png,bars/mask008.png,,,,,,,,,,,,0,1,,,,,,,9,0,9,0,,,,,,,,,,,791.4485,791.9484,792.1984,794.3303,space,2.1218,,794.3303,42,63,795.3303,795.3303,795.331,,,,0,12,12,12,1,95,20,,,,,,,,
,,65ae79daf843065b21a30f6a,65af5706cbfd19b26dc0c441,2024-01-23_19h06.01.351,bars,2023.2.3,Win32,144.9275362,657b66ea316d21385b68909f,,,,,,,,,,,795.3313,796.3303,,,796.8303,797.0803,,140,-40,,,,,,,,,,,,,,,,bars/037.png,bars/mask002.png,,,,,,,,,,,,7,1,,,,,,,10,0,10,2,,,,,,,,,,,796.3303,796.8302,797.0803,800.1636,space,3.0701,,800.1636,10,35,801.1635,801.1635,801.1693,,,,0,13,13,13,1,150,105,,,,,,,,
,,65ae79daf843065b21a30f6a,65af5706cbfd19b26dc0c441,2024-01-23_19h06.01.351,bars,2023.2.3,Win32,144.9275362,657b66ea316d21385b68909f,,,,,,,,,,,801.1694,802.1704,,,802.6704,802.9204,,62,62,,,,,,,,,,,,,,,,bars/028.png,bars/mask005.png,,,,,,,,,,,,3,1,,,,,,,10,2,8,0,,,,,,,,,,,802.1704,802.6704,802.9204,805.5731,space,2.6396,,805.5732,17,58,806.573,806.573,806.5786,,,,0,14,14,14,1,45,120,,,,,,,,
,,65ae79daf843065b21a30f6a,65af5706cbfd19b26dc0c441,2024-01-23_19h06.01.351,bars,2023.2.3,Win32,144.9275362,657b66ea316d21385b68909f,,,,,,,,,,,806.5787,807.58,,,808.08,808.33,,170,-10,,,,,,,,,,,,,,,,bars/018.png,bars/mask004.png,,,,,,,,,,,,3,1,,,,,,,8,4,8,4,,,,,,,,,,,807.58,808.08,808.33,812.6007,space,4.2573,,812.6008,20,80,813.6007,813.6007,813.6065,,,,0,15,15,15,1,150,90,,,,,,,,
,,65ae79daf843065b21a30f6a,65af5706cbfd19b26dc0c441,2024-01-23_19h06.01.351,bars,2023.2.3,Win32,144.9275362,657b66ea316d21385b68909f,,,,,,,,,,,813.6066,814.6076,,,815.1076,815.3576,,66,66,,,,,,,,,,,,,,,,bars/039.png,bars/mask002.png,,,,,,,,,,,,0,2,,,,,,,10,2,10,2,,,,,,,,,,,814.6076,815.1076,815.3577,816.7535,space,1.3852,,816.7535,71,39,817.7534,817.7534,817.76,,,,0,16,16,16,1,175,105,,,,,,,,
,,65ae79daf843065b21a30f6a,65af5706cbfd19b26dc0c441,2024-01-23_19h06.01.351,bars,2023.2.3,Win32,144.9275362,657b66ea316d21385b68909f,,,,,,,,,,,817.7602,818.7603,,,819.2603,819.5102,,47,47,,,,,,,,,,,,,,,,bars/021.png,bars/mask003.png,,,,,,,,,,,,0,2,,,,,,,8,0,8,1,,,,,,,,,,,818.7603,819.2603,819.5102,820.6353,space,1.1112,,820.6353,72,23,821.6352,821.6352,821.641,,,,0,17,17,17,1,155,70,,,,,,,,
,,65ae79daf843065b21a30f6a,65af5706cbfd19b26dc0c441,2024-01-23_19h06.01.351,bars,2023.2.3,Win32,144.9275362,657b66ea316d21385b68909f,,,,,,,,,,,821.6412,822.6421,,,823.1421,823.3921,,100,100,,,,,,,,,,,,,,,,bars/002.png,bars/mask002.png,,,,,,,,,,,,0,2,,,,,,,6,0,5,0,,,,,,,,,,,822.6421,823.1421,823.3921,826.3574,space,2.9518,,826.3574,30,15,827.3573,827.3573,827.3631,,,,0,18,18,18,1,130,85,,,,,,,,
,,65ae79daf843065b21a30f6a,65af5706cbfd19b26dc0c441,2024-01-23_19h06.01.351,bars,2023.2.3,Win32,144.9275362,657b66ea316d21385b68909f,,,,,,,,,,,827.3633,828.3642,,,828.8642,829.1142,,102,102,,,,,,,,,,,,,,,,bars/000.png,bars/mask000.png,,,,,,,,,,,,0,2,,,,,,,8,0,9,0,,,,,,,,,,,828.3643,828.8642,829.1142,830.4685,space,1.3407,,830.4685,62,43,831.4683,831.4683,831.4687,,,,0,19,19,19,1,40,145,,,,,,,,
,,65ae79daf843065b21a30f6a,65af5706cbfd19b26dc0c441,2024-01-23_19h06.01.351,bars,2023.2.3,Win32,144.9275362,657b66ea316d21385b68909f,,,,,,,,,,,831.4689,832.4683,,,832.9683,833.2182,,46,46,,,,,,,,,,,,,,,,bars/008.png,bars/mask002.png,,,,,,,,,,,,0,2,,,,,,,6,2,5,1,,,,,,,,,,,832.4683,832.9683,833.2183,834.8502,space,1.6208,,834.8502,64,46,835.8502,835.8502,835.8558,,,,0,20,20,20,1,110,0,,,,,,,,
,,65ae79daf843065b21a30f6a,65af5706cbfd19b26dc0c441,2024-01-23_19h06.01.351,bars,2023.2.3,Win32,144.9275362,657b66ea316d21385b68909f,,,,,,,,,,,835.856,836.857,,,837.3571,837.6071,,56,56,,,,,,,,,,,,,,,,bars/028.png,bars/mask001.png,,,,,,,,,,,,3,1,,,,,,,4,0,4,0,,,,,,,,,,,836.8571,837.3571,837.6071,839.3016,space,1.6837,,839.3016,11,64,840.3014,840.3014,840.3079,,,,0,21,21,21,1,45,120,,,,,,,,
,,65ae79daf843065b21a30f6a,65af5706cbfd19b26dc0c441,2024-01-23_19h06.01.351,bars,2023.2.3,Win32,144.9275362,657b66ea316d21385b68909f,,,,,,,,,,,840.308,841.3084,,,841.8084,842.0583,,98,98,,,,,,,,,,,,,,,,bars/029.png,bars/mask000.png,,,,,,,,,,,,4,1,,,,,,,6,0,5,0,,,,,,,,,,,841.3085,841.8084,842.0583,844.1695,space,2.0972,,844.1696,8,53,845.1693,845.1694,845.1698,,,,0,22,22,22,1,90,45,,,,,,,,
,,65ae79daf843065b21a30f6a,65af5706cbfd19b26dc0c441,2024-01-23_19h06.01.351,bars,2023.2.3,Win32,144.9275362,657b66ea316d21385b68909f,,,,,,,,,,,845.1699,846.1693,,,846.6693,846.9195,,164,164,,,,,,,,,,,,,,,,bars/040.png,bars/mask009.png,,,,,,,,,,,,0,2,,,,,,,4,0,4,0,,,,,,,,,,,846.1693,846.6693,846.9195,848.7874,space,1.8595,,848.7874,24,21,849.7873,849.7874,849.7931,,,,0,23,23,23,1,140,5,,,,,,,,
,,65ae79daf843065b21a30f6a,65af5706cbfd19b26dc0c441,2024-01-23_19h06.01.351,bars,2023.2.3,Win32,144.9275362,657b66ea316d21385b68909f,,,,,,,,,,,849.7932,850.7943,,,851.2943,851.5442,,62,62,,,,,,,,,,,,,,,,bars/038.png,bars/mask008.png,,,,,,,,,,,,0,2,,,,,,,6,0,5,0,,,,,,,,,,,850.7943,851.2943,851.5442,853.1415,space,1.5856,,853.1415,77,8,854.1414,854.1414,854.1472,,,,0,24,24,24,1,165,70,,,,,,,,
,,65ae79daf843065b21a30f6a,65af5706cbfd19b26dc0c441,2024-01-23_19h06.01.351,bars,2023.2.3,Win32,144.9275362,657b66ea316d21385b68909f,,,,,,,,,,,854.1474,855.1483,,,855.6483,855.8982,,21,201,,,,,,,,,,,,,,,,bars/038.png,bars/mask000.png,,,,,,,,,,,,0,1,,,,,,,8,2,7,2,,,,,,,,,,,855.1483,855.6483,855.8982,858.0163,space,2.1064,,858.0164,36,49,859.0163,859.0164,859.0175,,,,0,25,25,25,1,165,70,,,,,,,,
,,65ae79daf843065b21a30f6a,65af5706cbfd19b26dc0c441,2024-01-23_19h06.01.351,bars,2023.2.3,Win32,144.9275362,657b66ea316d21385b68909f,,,,,,,,,,,859.0176,860.0164,,,860.5163,860.7663,,165,-15,,,,,,,,,,,,,,,,bars/028.png,bars/mask008.png,,,,,,,,,,,,0,2,,,,,,,10,4,10,4,,,,,,,,,,,860.0164,860.5163,860.7663,862.5926,space,1.8126,,862.5926,60,45,863.5925,863.5926,863.599,,,,0,26,26,26,1,45,120,,,,,,,,
,,65ae79daf843065b21a30f6a,65af5706cbfd19b26dc0c441,2024-01-23_19h06.01.351,bars,2023.2.3,Win32,144.9275362,657b66ea316d21385b68909f,,,,,,,,,,,863.5992,864.5995,,,865.0995,865.3494,,166,-14,,,,,,,,,,,,,,,,bars/021.png,bars/mask003.png,,,,,,,,,,,,6,1,,,,,,,10,6,9,8,,,,,,,,,,,864.5995,865.0994,865.3495,869.2523,space,3.8929,,869.2523,11,84,870.2521,870.2521,870.2585,,,,0,27,27,27,1,155,70,,,,,,,,
,,65ae79daf843065b21a30f6a,65af5706cbfd19b26dc0c441,2024-01-23_19h06.01.351,bars,2023.2.3,Win32,144.9275362,657b66ea316d21385b68909f,,,,,,,,,,,870.2586,871.259,,,871.7591,872.0091,,74,74,,,,,,,,,,,,,,,,bars/041.png,bars/mask009.png,,,,,,,,,,,,3,2,,,,,,,8,4,6,5,,,,,,,,,,,871.259,871.7591,872.0091,874.7659,space,2.7434,,874.766,54,11,875.7659,875.7659,875.7722,,,,0,28,28,28,1,20,85,,,,,,,,
,,65ae79daf843065b21a30f6a,65af5706cbfd19b26dc0c441,2024-01-23_19h06.01.351,bars,2023.2.3,Win32,144.9275362,657b66ea316d21385b68909f,,,,,,,,,,,875.7724,876.7728,,,877.2728,877.5228,,125,125,,,,,,,,,,,,,,,,bars/045.png,bars/mask005.png,,,,,,,,,,,,2,1,,,,,,,10,2,10,2,,,,,,,,,,,876.7728,877.2727,877.5228,882.0922,space,4.5579,,882.0922,25,65,883.092,883.092,883.0984,,,,0,29,29,29,1,100,10,,,,,,,,
,,65ae79daf843065b21a30f6a,65af5706cbfd19b26dc0c441,2024-01-23_19h06.01.351,bars,2023.2.3,Win32,144.9275362,657b66ea316d21385b68909f,,,,,,,,,,,883.0985,884.0991,,,884.599,884.849,,106,106,,,,,,,,,,,,,,,,bars/031.png,bars/mask008.png,,,,,,,,,,,,5,1,,,,,,,10,0,10,0,,,,,,,,,,,884.0991,884.599,884.849,888.5364,space,3.6757,,888.5364,14,71,889.5364,889.5364,889.5422,,,,0,30,30,30,1,120,35,,,,,,,,
,,65ae79daf843065b21a30f6a,65af5706cbfd19b26dc0c441,2024-01-23_19h06.01.351,bars,2023.2.3,Win32,144.9275362,657b66ea316d21385b68909f,,,,,,,,,,,889.5422,890.5434,,,891.0434,891.2933,,145,145,,,,,,,,,,,,,,,,bars/029.png,bars/mask009.png,,,,,,,,,,,,0,1,,,,,,,8,0,7,0,,,,,,,,,,,890.5434,891.0434,891.2933,894.1614,space,2.8546,,894.1614,55,80,895.1612,895.1613,895.1673,,,,0,31,31,31,1,90,45,,,,,,,,
,,65ae79daf843065b21a30f6a,65af5706cbfd19b26dc0c441,2024-01-23_19h06.01.351,bars,2023.2.3,Win32,144.9275362,657b66ea316d21385b68909f,,,,,,,,,,,895.1675,896.1682,,,896.6682,896.9181,,26,26,,,,,,,,,,,,,,,,bars/039.png,bars/mask007.png,,,,,,,,,,,,0,1,,,,,,,6,2,6,4,,,,,,,,,,,896.1682,896.6682,896.9182,899.6056,space,2.6782,,899.6056,31,79,900.6056,900.6057,900.6109,,,,0,32,32,32,1,175,105,,,,,,,,
,,65ae79daf843065b21a30f6a,65af5706cbfd19b26dc0c441,2024-01-23_19h06.01.351,bars,2023.2.3,Win32,144.9275362,657b66ea316d21385b68909f,,,,,,,,,,,900.611,901.6125,,,902.1125,902.3624,,13,193,,,,,,,,,,,,,,,,bars/040.png,bars/mask005.png,,,,,,,,,,,,4,2,,,,,,,4,4,5,5,,,,,,,,,,,901.6125,902.1125,902.3624,907.5014,space,5.1264,,907.5014,53,8,908.5012,908.5012,908.5074,,,,0,33,33,33,1,140,5,,,,,,,,
,,65ae79daf843065b21a30f6a,65af5706cbfd19b26dc0c441,2024-01-23_19h06.01.351,bars,2023.2.3,Win32,144.9275362,657b66ea316d21385b68909f,,,,,,,,,,,908.5075,909.5082,,,910.0082,910.2581,,74,74,,,,,,,,,,,,,,,,bars/006.png,bars/mask005.png,,,,,,,,,,,,0,2,,,,,,,6,2,7,3,,,,,,,,,,,909.5082,910.0082,910.2581,913.4039,space,3.1321,,913.404,39,26,914.4038,914.4038,914.4097,,,,0,34,34,34,1,35,100,,,,,,,,
,,65ae79daf843065b21a30f6a,65af5706cbfd19b26dc0c441,2024-01-23_19h06.01.351,bars,2023.2.3,Win32,144.9275362,657b66ea316d21385b68909f,,,,,,,,,,,914.4099,915.4108,,,915.9108,916.1607,,105,105,,,,,,,,,,,,,,,,bars/028.png,bars/mask008.png,,,,,,,,,,,,0,2,,,,,,,4,0,3,0,,,,,,,,,,,915.4108,915.9108,916.1607,918.5983,space,2.4236,,918.5983,60,15,919.5982,919.5982,919.5986,,,,0,35,35,35,1,45,120,,,,,,,,
,,65ae79daf843065b21a30f6a,65af5706cbfd19b26dc0c441,2024-01-23_19h06.01.351,bars,2023.2.3,Win32,144.9275362,657b66ea316d21385b68909f,,,,,,,,,,,919.5988,920.5981,,,921.0982,921.3481,,72,72,,,,,,,,,,,,,,,,bars/004.png,bars/mask000.png,,,,,,,,,,,,0,1,,,,,,,6,0,6,1,,,,,,,,,,,920.5982,921.0981,921.3482,927.5931,space,6.2362,,927.5931,47,53,928.591,928.591,928.5976,,,,0,36,36,36,1,25,125,,,,,,,,
,,65ae79daf843065b21a30f6a,65af5706cbfd19b26dc0c441,2024-01-23_19h06.01.351,bars,2023.2.3,Win32,144.9275362,657b66ea316d21385b68909f,,,,,,,,,,,928.5977,929.5979,,,930.0979,930.3479,,143,143,,,,,,,,,,,,,,,,bars/015.png,bars/mask001.png,,,,,,,,,,,,2,2,,,,,,,4,2,3,4,,,,,,,,,,,929.5979,930.0979,930.3479,932.2507,space,1.8888,,932.2507,33,17,933.2506,933.2506,933.257,,,,0,37,37,37,1,110,160,,,,,,,,
,,65ae79daf843065b21a30f6a,65af5706cbfd19b26dc0c441,2024-01-23_19h06.01.351,bars,2023.2.3,Win32,144.9275362,657b66ea316d21385b68909f,,,,,,,,,,,933.2571,934.2575,,,934.7575,935.0075,,115,115,,,,,,,,,,,,,,,,bars/030.png,bars/mask008.png,,,,,,,,,,,,0,1,,,,,,,2,4,2,4,,,,,,,,,,,934.2575,934.7575,935.0075,936.0423,space,1.0211,,936.0423,25,50,937.0422,937.0422,937.0434,,,,0,38,38,38,1,140,65,,,,,,,,
,,65ae79daf843065b21a30f6a,65af5706cbfd19b26dc0c441,2024-01-23_19h06.01.351,bars,2023.2.3,Win32,144.9275362,657b66ea316d21385b68909f,,,,,,,,,,,937.0435,938.0422,,,938.5422,938.7922,,166,-14,,,,,,,,,,,,,,,,bars/023.png,bars/mask004.png,,,,,,,,,,,,0,1,,,,,,,0,2,0,2,,,,,,,,,,,938.0422,938.5421,938.7922,941.202,space,2.3959,,941.202,34,51,942.2018,942.2018,942.2077,,,,0,39,39,39,1,20,115,,,,,,,,
,,65ae79daf843065b21a30f6a,65af5706cbfd19b26dc0c441,2024-01-23_19h06.01.351,bars,2023.2.3,Win32,144.9275362,657b66ea316d21385b68909f,,,,,,,,,,,942.2078,943.2087,,,943.7087,943.9587,,162,-18,,,,,,,,,,,,,,,,bars/024.png,bars/mask002.png,,,,,,,,,,,,4,2,,,,,,,2,4,3,5,,,,,,,,,,,943.2088,943.7087,943.9587,947.0976,space,3.1251,,947.0977,42,8,948.0975,948.0975,948.1038,,,,0,40,40,40,1,120,170,,,,,,,,
,,65ae79daf843065b21a30f6a,65af5706cbfd19b26dc0c441,2024-01-23_19h06.01.351,bars,2023.2.3,Win32,144.9275362,657b66ea316d21385b68909f,,,,,,,,,,,948.104,949.1044,,,949.6044,949.8544,,69,69,,,,,,,,,,,,,,,,bars/047.png,bars/mask008.png,,,,,,,,,,,,2,2,,,,,,,4,2,2,2,,,,,,,,,,,949.1044,949.6044,949.8544,953.389,space,3.5223,,953.3891,54,1,954.389,954.389,954.3949,,,,0,41,41,41,1,15,70,,,,,,,,
,,65ae79daf843065b21a30f6a,65af5706cbfd19b26dc0c441,2024-01-23_19h06.01.351,bars,2023.2.3,Win32,144.9275362,657b66ea316d21385b68909f,,,,,,,,,,,954.395,955.3959,,,955.896,956.1459,,117,117,,,,,,,,,,,,,,,,bars/020.png,bars/mask006.png,,,,,,,,,,,,5,1,,,,,,,6,0,5,0,,,,,,,,,,,955.3959,955.896,956.1459,957.0418,space,0.8838,,957.0418,2,53,958.0417,958.0417,958.0428,,,,0,42,42,42,1,115,170,,,,,,,,
,,65ae79daf843065b21a30f6a,65af5706cbfd19b26dc0c441,2024-01-23_19h06.01.351,bars,2023.2.3,Win32,144.9275362,657b66ea316d21385b68909f,,,,,,,,,,,958.0429,959.0417,,,959.5417,959.7917,,6,186,,,,,,,,,,,,,,,,bars/045.png,bars/mask009.png,,,,,,,,,,,,0,2,,,,,,,8,0,8,0,,,,,,,,,,,959.0417,959.5417,959.7917,963.2778,space,3.4741,,963.2778,86,4,964.2776,964.2776,964.2838,,,,0,43,43,43,1,100,10,,,,,,,,
,,65ae79daf843065b21a30f6a,65af5706cbfd19b26dc0c441,2024-01-23_19h06.01.351,bars,2023.2.3,Win32,144.9275362,657b66ea316d21385b68909f,,,,,,,,,,,964.284,965.2846,,,965.7846,966.0346,,119,119,,,,,,,,,,,,,,,,bars/043.png,bars/mask007.png,,,,,,,,,,,,0,2,,,,,,,6,0,7,0,,,,,,,,,,,965.2846,965.7846,966.0346,968.8818,space,2.8329,,968.8819,89,11,969.8817,969.8817,969.8872,,,,0,44,44,44,1,30,130,,,,,,,,
,,65ae79daf843065b21a30f6a,65af5706cbfd19b26dc0c441,2024-01-23_19h06.01.351,bars,2023.2.3,Win32,144.9275362,657b66ea316d21385b68909f,,,,,,,,,,,969.8872,970.8886,,,971.3886,971.6386,,118,118,,,,,,,,,,,,,,,,bars/041.png,bars/mask001.png,,,,,,,,,,,,0,2,,,,,,,8,0,9,0,,,,,,,,,,,970.8886,971.3886,971.6386,974.1108,space,2.4634,,974.1108,82,33,975.1107,975.1107,975.1166,,,,0,45,45,45,1,20,85,,,,,,,,
,,65ae79daf843065b21a30f6a,65af5706cbfd19b26dc0c441,2024-01-23_19h06.01.351,bars,2023.2.3,Win32,144.9275362,657b66ea316d21385b68909f,,,,,,,,,,,975.1168,976.1176,,,976.6177,976.8677,,117,117,,,,,,,,,,,,,,,,bars/039.png,bars/mask001.png,,,,,,,,,,,,1,2,,,,,,,10,2,8,2,,,,,,,,,,,976.1177,976.6177,976.8677,979.0899,space,2.2122,,979.0899,58,12,980.0898,980.0898,980.0902,,,,0,46,46,46,1,175,105,,,,,,,,
,,65ae79daf843065b21a30f6a,65af5706cbfd19b26dc0c441,2024-01-23_19h06.01.351,bars,2023.2.3,Win32,144.9275362,657b66ea316d21385b68909f,,,,,,,,,,,980.0903,981.0898,,,981.5898,981.8397,,29,209,,,,,,,,,,,,,,,,bars/005.png,bars/mask008.png,,,,,,,,,,,,3,1,,,,,,,8,4,7,4,,,,,,,,,,,981.0898,981.5898,981.8398,984.6523,space,2.8013,,984.6523,19,69,985.6473,985.6473,985.6482,,,,0,47,47,47,1,10,140,,,,,,,,
,,65ae79daf843065b21a30f6a,65af5706cbfd19b26dc0c441,2024-01-23_19h06.01.351,bars,2023.2.3,Win32,144.9275362,657b66ea316d21385b68909f,,,,,,,,,,,985.6485,986.647,,,987.1452,987.3951,,19,199,,,,,,,,,,,,,,,,bars/023.png,bars/mask002.png,,,,,,,,,,,,5,1,,,,,,,6,6,5,5,,,,,,,,,,,986.647,987.1452,987.3952,990.1938,space,2.7859,,990.1938,1,84,991.1937,991.1937,991.1996,,,,0,48,48,48,1,20,115,,,,,,,,
,,65ae79daf843065b21a30f6a,65af5706cbfd19b26dc0c441,2024-01-23_19h06.01.351,bars,2023.2.3,Win32,144.9275362,657b66ea316d21385b68909f,,,,,,,,,,,991.1996,992.2006,,,992.7007,992.9506,,76,76,,,,,,,,,,,,,,,,bars/021.png,bars/mask005.png,,,,,,,,,,,,4,2,,,,,,,4,4,4,5,,,,,,,,,,,992.2006,992.7007,992.9506,997.1103,space,4.1494,,997.1103,79,6,998.1102,998.1102,998.1165,,,,0,49,49,49,1,155,70,,,,,,,,
,,65ae79daf843065b21a30f6a,65af5706cbfd19b26dc0c441,2024-01-23_19h06.01.351,bars,2023.2.3,Win32,144.9275362,657b66ea316d21385b68909f,,,,,,,,,,,,,,,,,,,,,,,,,,,,,,,,,,,,,,,,,,,,,,,,,,,,,,,,,,,,,,,,,,,,,,,,,,,,,,,,,,,,,,,,,,,,,998.1165,1058.1176,0,1,1,3,1,sequence_tables/blk000.csv
,,65ae79daf843065b21a30f6a,65af5706cbfd19b26dc0c441,2024-01-23_19h06.01.351,bars,2023.2.3,Win32,144.9275362,657b66ea316d21385b68909f,,,,,,,,,,,1062.0837,1063.0809,,,1063.5809,1063.8308,,18,18,,,,,,,,,,,,,,,,bars/018.png,bars/mask005.png,,,,,,,,,,,,0,1,,,,,,,9,7,10,7,,,,,,1058.1179,1062.0809,space,3.9605,,1063.081,1063.5808,1063.8308,1065.6712,space,1.8282,,1065.6712,48,72,1066.671,1066.6711,1066.6775,,,,0,0,0,0,1,150,90,,,,,,,,
,,65ae79daf843065b21a30f6a,65af5706cbfd19b26dc0c441,2024-01-23_19h06.01.351,bars,2023.2.3,Win32,144.9275362,657b66ea316d21385b68909f,,,,,,,,,,,1066.6777,1067.678,,,1068.178,1068.428,,17,17,,,,,,,,,,,,,,,,bars/038.png,bars/mask001.png,,,,,,,,,,,,0,1,,,,,,,7,5,7,4,,,,,,,,,,,1067.678,1068.178,1068.428,1071.2892,space,2.8484,,1071.2892,32,53,1072.289,1072.289,1072.2948,,,,0,1,1,1,1,165,70,,,,,,,,
,,65ae79daf843065b21a30f6a,65af5706cbfd19b26dc0c441,2024-01-23_19h06.01.351,bars,2023.2.3,Win32,144.9275362,657b66ea316d21385b68909f,,,,,,,,,,,1072.295,1073.2959,,,1073.796,1074.0459,,32,212,,,,,,,,,,,,,,,,bars/002.png,bars/mask001.png,,,,,,,,,,,,0,2,,,,,,,5,7,3,7,,,,,,,,,,,1073.296,1073.796,1074.046,1076.5806,space,2.5248,,1076.5807,82,53,1077.5806,1077.5806,1077.5868,,,,0,2,2,2,1,130,85,,,,,,,,
,,65ae79daf843065b21a30f6a,65af5706cbfd19b26dc0c441,2024-01-23_19h06.01.351,bars,2023.2.3,Win32,144.9275362,657b66ea316d21385b68909f,,,,,,,,,,,1077.5869,1078.5874,,,1079.0875,1079.3375,,25,25,,,,,,,,,,,,,,,,bars/046.png,bars/mask004.png,,,,,,,,,,,,0,1,,,,,,,7,5,6,6,,,,,,,,,,,1078.5874,1079.0875,1079.3375,1082.9207,space,3.5735,,1082.9208,50,60,1083.9206,1083.9206,1083.927,,,,0,3,3,3,1,155,85,,,,,,,,
,,65ae79daf843065b21a30f6a,65af5706cbfd19b26dc0c441,2024-01-23_19h06.01.351,bars,2023.2.3,Win32,144.9275362,657b66ea316d21385b68909f,,,,,,,,,,,1083.9271,1084.9276,,,1085.4276,1085.6776,,96,96,,,,,,,,,,,,,,,,bars/033.png,bars/mask009.png,,,,,,,,,,,,0,2,,,,,,,9,7,9,7,,,,,,,,,,,1084.9276,1085.4276,1085.6776,1088.122,space,2.4307,,1088.122,71,59,1089.122,1089.122,1089.1283,,,,0,4,4,4,1,25,155,,,,,,,,
,,65ae79daf843065b21a30f6a,65af5706cbfd19b26dc0c441,2024-01-23_19h06.01.351,bars,2023.2.3,Win32,144.9275362,657b66ea316d21385b68909f,,,,,,,,,,,1089.1285,1090.1288,,,1090.6288,1090.8788,,17,17,,,,,,,,,,,,,,,,bars/007.png,bars/mask002.png,,,,,,,,,,,,2,1,,,,,,,7,5,6,5,,,,,,,,,,,1090.1289,1090.6288,1090.8788,1094.4413,space,3.5511,,1094.4414,22,38,1095.4413,1095.4413,1095.4476,,,,0,5,5,5,1,175,55,,,,,,,,
,,65ae79daf843065b21a30f6a,65af5706cbfd19b26dc0c441,2024-01-23_19h06.01.351,bars,2023.2.3,Win32,144.9275362,657b66ea316d21385b68909f,,,,,,,,,,,1095.4477,1096.4482,,,1096.9483,1097.1981,,73,73,,,,,,,,,,,,,,,,bars/018.png,bars/mask008.png,,,,,,,,,,,,1,2,,,,,,,5,3,5,3,,,,,,,,,,,1096.4482,1096.9482,1097.1982,1099.3579,space,2.147,,1099.3579,77,17,1100.3578,1100.3578,1100.3641,,,,0,6,6,6,1,150,90,,,,,,,,
,,65ae79daf843065b21a30f6a,65af5706cbfd19b26dc0c441,2024-01-23_19h06.01.351,bars,2023.2.3,Win32,144.9275362,657b66ea316d21385b68909f,,,,,,,,,,,1100.3642,1101.3647,,,1101.8647,1102.1146,,34,214,,,,,,,,,,,,,,,,bars/042.png,bars/mask006.png,,,,,,,,,,,,0,2,,,,,,,7,1,7,2,,,,,,,,,,,1101.3648,1101.8647,1102.1147,1104.8161,space,2.6885,,1104.8161,69,41,1105.816,1105.8161,1105.8219,,,,0,7,7,7,1,145,75,,,,,,,,
,,65ae79daf843065b21a30f6a,65af5706cbfd19b26dc0c441,2024-01-23_19h06.01.351,bars,2023.2.3,Win32,144.9275362,657b66ea316d21385b68909f,,,,,,,,,,,1105.822,1106.8229,,,1107.3229,1107.5729,,99,99,,,,,,,,,,,,,,,,bars/013.png,bars/mask000.png,,,,,,,,,,,,2,1,,,,,,,9,3,9,3,,,,,,,,,,,1106.8229,1107.3229,1107.5729,1109.8437,space,2.2573,,1109.8437,24,89,1110.8437,1110.8437,1110.8502,,,,0,8,8,8,1,75,10,,,,,,,,
,,65ae79daf843065b21a30f6a,65af5706cbfd19b26dc0c441,2024-01-23_19h06.01.351,bars,2023.2.3,Win32,144.9275362,657b66ea316d21385b68909f,,,,,,,,,,,1110.8503,1111.8506,,,1112.3506,1112.6006,,147,147,,,,,,,,,,,,,,,,bars/040.png,bars/mask007.png,,,,,,,,,,,,8,1,,,,,,,10,5,10,8,,,,,,,,,,,1111.8506,1112.3506,1112.6006,1114.4686,space,1.8569,,1114.4686,7,38,1115.4685,1115.4686,1115.469,,,,0,9,9,9,1,140,5,,,,,,,,
,,65ae79daf843065b21a30f6a,65af5706cbfd19b26dc0c441,2024-01-23_19h06.01.351,bars,2023.2.3,Win32,144.9275362,657b66ea316d21385b68909f,,,,,,,,,,,1115.4692,1116.4685,,,1116.9659,1117.2115,,49,229,,,,,,,,,,,,,,,,bars/035.png,bars/mask000.png,,,,,,,,,,,,3,2,,,,,,,8,7,7,5,,,,,,,,,,,1116.4685,1116.9659,1117.2115,1120.649,space,3.4262,,1120.649,54,11,1121.6489,1121.6489,1121.6552,,,,0,10,10,10,1,175,60,,,,,,,,
,,65ae79daf843065b21a30f6a,65af5706cbfd19b26dc0c441,2024-01-23_19h06.01.351,bars,2023.2.3,Win32,144.9275362,657b66ea316d21385b68909f,,,,,,,,,,,1121.6554,1122.656,,,1123.1559,1123.4058,,13,193,,,,,,,,,,,,,,,,bars/039.png,bars/mask002.png,,,,,,,,,,,,4,1,,,,,,,10,5,10,5,,,,,,,,,,,1122.656,1123.1559,1123.4059,1127.1354,space,3.7155,,1127.1355,18,88,1128.1349,1128.1349,1128.1412,,,,0,11,11,11,1,175,105,,,,,,,,
,,65ae79daf843065b21a30f6a,65af5706cbfd19b26dc0c441,2024-01-23_19h06.01.351,bars,2023.2.3,Win32,144.9275362,657b66ea316d21385b68909f,,,,,,,,,,,1128.1413,1129.1418,,,1129.6419,1129.8919,,139,139,,,,,,,,,,,,,,,,bars/016.png,bars/mask006.png,,,,,,,,,,,,0,2,,,,,,,10,3,8,2,,,,,,,,,,,1129.1418,1129.6418,1129.8919,1132.753,space,2.8483,,1132.7531,81,26,1133.7528,1133.7528,1133.7598,,,,0,12,12,12,1,40,165,,,,,,,,
,,65ae79daf843065b21a30f6a,65af5706cbfd19b26dc0c441,2024-01-23_19h06.01.351,bars,2023.2.3,Win32,144.9275362,657b66ea316d21385b68909f,,,,,,,,,,,1133.76,1134.7598,,,1135.2598,1135.5097,,71,71,,,,,,,,,,,,,,,,bars/043.png,bars/mask000.png,,,,,,,,,,,,0,1,,,,,,,8,5,7,5,,,,,,,,,,,1134.7598,1135.2597,1135.5097,1137.2042,space,1.6836,,1137.2043,41,59,1138.2041,1138.2041,1138.2099,,,,0,13,13,13,1,30,130,,,,,,,,
,,65ae79daf843065b21a30f6a,65af5706cbfd19b26dc0c441,2024-01-23_19h06.01.351,bars,2023.2.3,Win32,144.9275362,657b66ea316d21385b68909f,,,,,,,,,,,1138.21,1139.2111,,,1139.7111,1139.9611,,68,68,,,,,,,,,,,,,,,,bars/035.png,bars/mask006.png,,,,,,,,,,,,4,2,,,,,,,10,7,9,6,,,,,,,,,,,1139.2111,1139.711,1139.9611,1143.8152,space,3.8405,,1143.8152,73,8,1144.8151,1144.8151,1144.8216,,,,0,14,14,14,1,175,60,,,,,,,,
,,65ae79daf843065b21a30f6a,65af5706cbfd19b26dc0c441,2024-01-23_19h06.01.351,bars,2023.2.3,Win32,144.9275362,657b66ea316d21385b68909f,,,,,,,,,,,1144.8217,1145.822,,,1146.3221,1146.5719,,16,196,,,,,,,,,,,,,,,,bars/016.png,bars/mask000.png,,,,,,,,,,,,2,1,,,,,,,8,9,9,10,,,,,,,,,,,1145.822,1146.3221,1146.572,1150.2247,space,3.6385,,1150.2248,24,31,1151.2247,1151.2247,1151.2311,,,,0,15,15,15,1,40,165,,,,,,,,
,,65ae79daf843065b21a30f6a,65af5706cbfd19b26dc0c441,2024-01-23_19h06.01.351,bars,2023.2.3,Win32,144.9275362,657b66ea316d21385b68909f,,,,,,,,,,,1151.2313,1152.2315,,,1152.7315,1152.9816,,118,118,,,,,,,,,,,,,,,,bars/002.png,bars/mask004.png,,,,,,,,,,,,4,1,,,,,,,6,10,6,10,,,,,,,,,,,1152.2315,1152.7315,1152.9816,1154.919,space,1.9237,,1154.9191,12,33,1155.9189,1155.9189,1155.9195,,,,0,16,16,16,1,130,85,,,,,,,,
,,65ae79daf843065b21a30f6a,65af5706cbfd19b26dc0c441,2024-01-23_19h06.01.351,bars,2023.2.3,Win32,144.9275362,657b66ea316d21385b68909f,,,,,,,,,,,1155.9196,1156.9189,,,1157.419,1157.6689,,161,161,,,,,,,,,,,,,,,,bars/022.png,bars/mask000.png,,,,,,,,,,,,0,2,,,,,,,8,10,8,8,,,,,,,,,,,1156.9189,1157.419,1157.6689,1160.3841,space,2.7058,,1160.3841,66,39,1161.3841,1161.3842,1161.3907,,,,0,17,17,17,1,95,20,,,,,,,,
,,65ae79daf843065b21a30f6a,65af5706cbfd19b26dc0c441,2024-01-23_19h06.01.351,bars,2023.2.3,Win32,144.9275362,657b66ea316d21385b68909f,,,,,,,,,,,1161.3908,1162.391,,,1162.8911,1163.141,,65,65,,,,,,,,,,,,,,,,bars/044.png,bars/mask006.png,,,,,,,,,,,,7,1,,,,,,,10,10,10,10,,,,,,,,,,,1162.391,1162.8911,1163.141,1165.4882,space,2.3376,,1165.4882,10,90,1166.4881,1166.4882,1166.4946,,,,0,18,18,18,1,75,155,,,,,,,,
,,65ae79daf843065b21a30f6a,65af5706cbfd19b26dc0c441,2024-01-23_19h06.01.351,bars,2023.2.3,Win32,144.9275362,657b66ea316d21385b68909f,,,,,,,,,,,1166.4948,1167.4951,,,1167.995,1168.2451,,124,124,,,,,,,,,,,,,,,,bars/042.png,bars/mask002.png,,,,,,,,,,,,2,1,,,,,,,8,10,8,10,,,,,,,,,,,1167.4951,1167.995,1168.2451,1169.4813,space,1.2239,,1169.4813,21,49,1170.4812,1170.4812,1170.487,,,,0,19,19,19,1,145,75,,,,,,,,
,,65ae79daf843065b21a30f6a,65af5706cbfd19b26dc0c441,2024-01-23_19h06.01.351,bars,2023.2.3,Win32,144.9275362,657b66ea316d21385b68909f,,,,,,,,,,,1170.4871,1171.4881,,,1171.9881,1172.2381,,21,201,,,,,,,,,,,,,,,,bars/008.png,bars/mask008.png,,,,,,,,,,,,3,2,,,,,,,6,10,6,10,,,,,,,,,,,1171.4881,1171.9881,1172.2381,1174.1825,space,1.9303,,1174.1825,89,21,1175.1824,1175.1825,1175.1886,,,,0,20,20,20,1,110,0,,,,,,,,
,,65ae79daf843065b21a30f6a,65af5706cbfd19b26dc0c441,2024-01-23_19h06.01.351,bars,2023.2.3,Win32,144.9275362,657b66ea316d21385b68909f,,,,,,,,,,,1175.1887,1176.1893,,,1176.6894,1176.9393,,149,149,,,,,,,,,,,,,,,,bars/023.png,bars/mask003.png,,,,,,,,,,,,0,2,,,,,,,8,10,10,10,,,,,,,,,,,1176.1893,1176.6893,1176.9394,1178.731,space,1.7776,,1178.731,51,34,1179.7309,1179.7309,1179.7313,,,,0,21,21,21,1,20,115,,,,,,,,
,,65ae79daf843065b21a30f6a,65af5706cbfd19b26dc0c441,2024-01-23_19h06.01.351,bars,2023.2.3,Win32,144.9275362,657b66ea316d21385b68909f,,,,,,,,,,,1179.7315,1180.7309,,,1181.2309,1181.4808,,120,120,,,,,,,,,,,,,,,,bars/036.png,bars/mask000.png,,,,,,,,,,,,1,1,,,,,,,6,8,8,8,,,,,,,,,,,1180.7309,1181.2308,1181.4808,1182.9947,space,1.5001,,1182.9948,25,80,1183.9947,1183.9947,1183.9957,,,,0,22,22,22,1,145,20,,,,,,,,
,,65ae79daf843065b21a30f6a,65af5706cbfd19b26dc0c441,2024-01-23_19h06.01.351,bars,2023.2.3,Win32,144.9275362,657b66ea316d21385b68909f,,,,,,,,,,,1183.9958,1184.9946,,,1185.4947,1185.7447,,34,214,,,,,,,,,,,,,,,,bars/044.png,bars/mask002.png,,,,,,,,,,,,0,1,,,,,,,8,10,7,9,,,,,,,,,,,1184.9946,1185.4947,1185.7447,1188.7447,space,2.987,,1188.7448,41,59,1189.7445,1189.7445,1189.7504,,,,0,23,23,23,1,75,155,,,,,,,,
,,65ae79daf843065b21a30f6a,65af5706cbfd19b26dc0c441,2024-01-23_19h06.01.351,bars,2023.2.3,Win32,144.9275362,657b66ea316d21385b68909f,,,,,,,,,,,1189.7505,1190.7515,,,1191.2515,1191.5015,,116,116,,,,,,,,,,,,,,,,bars/017.png,bars/mask008.png,,,,,,,,,,,,0,1,,,,,,,6,10,7,10,,,,,,,,,,,1190.7515,1191.2515,1191.5015,1193.6126,space,2.1018,,1193.6126,29,71,1194.6125,1194.6126,1194.6184,,,,0,24,24,24,1,145,45,,,,,,,,
,,65ae79daf843065b21a30f6a,65af5706cbfd19b26dc0c441,2024-01-23_19h06.01.351,bars,2023.2.3,Win32,144.9275362,657b66ea316d21385b68909f,,,,,,,,,,,1194.6185,1195.6195,,,1196.1194,1196.3694,,116,116,,,,,,,,,,,,,,,,bars/032.png,bars/mask009.png,,,,,,,,,,,,3,1,,,,,,,4,8,4,8,,,,,,,,,,,1195.6195,1196.1194,1196.3694,1199.4249,space,3.0432,,1199.425,9,84,1200.4249,1200.4249,1200.4307,,,,0,25,25,25,1,125,20,,,,,,,,
,,65ae79daf843065b21a30f6a,65af5706cbfd19b26dc0c441,2024-01-23_19h06.01.351,bars,2023.2.3,Win32,144.9275362,657b66ea316d21385b68909f,,,,,,,,,,,1200.4309,1201.4318,,,1201.9319,1202.1817,,14,14,,,,,,,,,,,,,,,,bars/040.png,bars/mask004.png,,,,,,,,,,,,7,2,,,,,,,2,10,3,10,,,,,,,,,,,1201.4318,1201.9318,1202.1817,1203.7652,space,1.5727,,1203.7653,54,9,1204.7651,1204.7651,1204.7717,,,,0,26,26,26,1,140,5,,,,,,,,
,,65ae79daf843065b21a30f6a,65af5706cbfd19b26dc0c441,2024-01-23_19h06.01.351,bars,2023.2.3,Win32,144.9275362,657b66ea316d21385b68909f,,,,,,,,,,,1204.7718,1205.772,,,1206.272,1206.5219,,75,75,,,,,,,,,,,,,,,,bars/018.png,bars/mask007.png,,,,,,,,,,,,5,2,,,,,,,0,8,0,9,,,,,,,,,,,1205.772,1206.272,1206.522,1209.6816,space,3.1461,,1209.6816,75,15,1210.6816,1210.6816,1210.6867,,,,0,27,27,27,1,150,90,,,,,,,,
,,65ae79daf843065b21a30f6a,65af5706cbfd19b26dc0c441,2024-01-23_19h06.01.351,bars,2023.2.3,Win32,144.9275362,657b66ea316d21385b68909f,,,,,,,,,,,1210.6869,1211.6885,,,1212.1885,1212.4385,,103,103,,,,,,,,,,,,,,,,bars/007.png,bars/mask008.png,,,,,,,,,,,,0,2,,,,,,,0,10,0,10,,,,,,,,,,,1211.6885,1212.1885,1212.4385,1214.3413,space,1.889,,1214.3413,72,48,1215.3411,1215.3412,1215.3469,,,,0,28,28,28,1,175,55,,,,,,,,
,,65ae79daf843065b21a30f6a,65af5706cbfd19b26dc0c441,2024-01-23_19h06.01.351,bars,2023.2.3,Win32,144.9275362,657b66ea316d21385b68909f,,,,,,,,,,,1215.347,1216.3481,,,1216.8482,1217.0982,,15,195,,,,,,,,,,,,,,,,bars/049.png,bars/mask009.png,,,,,,,,,,,,0,1,,,,,,,2,10,2,9,,,,,,,,,,,1216.3481,1216.8481,1217.0982,1220.6815,space,3.5693,,1220.6816,35,80,1221.6813,1221.6813,1221.6876,,,,0,29,29,29,1,160,115,,,,,,,,
,,65ae79daf843065b21a30f6a,65af5706cbfd19b26dc0c441,2024-01-23_19h06.01.351,bars,2023.2.3,Win32,144.9275362,657b66ea316d21385b68909f,,,,,,,,,,,1221.6877,1222.6883,,,1223.1883,1223.4382,,20,20,,,,,,,,,,,,,,,,bars/033.png,bars/mask005.png,,,,,,,,,,,,0,1,,,,,,,0,8,0,8,,,,,,,,,,,1222.6883,1223.1882,1223.4382,1225.5632,space,2.1123,,1225.5632,5,45,1226.5631,1226.5632,1226.569,,,,0,30,30,30,1,25,155,,,,,,,,
,,65ae79daf843065b21a30f6a,65af5706cbfd19b26dc0c441,2024-01-23_19h06.01.351,bars,2023.2.3,Win32,144.9275362,657b66ea316d21385b68909f,,,,,,,,,,,1226.5692,1227.5701,,,1228.0701,1228.3201,,22,22,,,,,,,,,,,,,,,,bars/025.png,bars/mask004.png,,,,,,,,,,,,4,2,,,,,,,2,10,3,9,,,,,,,,,,,1227.5701,1228.0701,1228.3201,1231.1324,space,2.8032,,1231.1325,83,18,1232.1324,1232.1324,1232.1387,,,,0,31,31,31,1,105,40,,,,,,,,
,,65ae79daf843065b21a30f6a,65af5706cbfd19b26dc0c441,2024-01-23_19h06.01.351,bars,2023.2.3,Win32,144.9275362,657b66ea316d21385b68909f,,,,,,,,,,,1232.1388,1233.1394,,,1233.6393,1233.8893,,111,111,,,,,,,,,,,,,,,,bars/019.png,bars/mask005.png,,,,,,,,,,,,8,2,,,,,,,4,10,3,10,,,,,,,,,,,1233.1394,1233.6393,1233.8893,1238.6463,space,4.7432,,1238.6463,66,6,1239.6462,1239.6463,1239.6521,,,,0,32,32,32,1,45,105,,,,,,,,
,,65ae79daf843065b21a30f6a,65af5706cbfd19b26dc0c441,2024-01-23_19h06.01.351,bars,2023.2.3,Win32,144.9275362,657b66ea316d21385b68909f,,,,,,,,,,,1239.6522,1240.6531,,,1241.1531,1241.4031,,158,158,,,,,,,,,,,,,,,,bars/044.png,bars/mask001.png,,,,,,,,,,,,9,2,,,,,,,2,10,4,10,,,,,,,,,,,1240.6531,1241.1531,1241.4031,1243.667,space,2.2504,,1243.667,83,3,1244.6668,1244.6668,1244.6727,,,,0,33,33,33,1,75,155,,,,,,,,
,,65ae79daf843065b21a30f6a,65af5706cbfd19b26dc0c441,2024-01-23_19h06.01.351,bars,2023.2.3,Win32,144.9275362,657b66ea316d21385b68909f,,,,,,,,,,,1244.6727,1245.6739,,,1246.1739,1246.4238,,60,60,,,,,,,,,,,,,,,,bars/001.png,bars/mask008.png,,,,,,,,,,,,1,2,,,,,,,0,8,0,8,,,,,,,,,,,1245.6739,1246.1738,1246.4239,1248.3474,space,1.9111,,1248.3474,70,25,1249.3476,1249.3476,1249.353,,,,0,34,34,34,1,130,85,,,,,,,,
,,65ae79daf843065b21a30f6a,65af5706cbfd19b26dc0c441,2024-01-23_19h06.01.351,bars,2023.2.3,Win32,144.9275362,657b66ea316d21385b68909f,,,,,,,,,,,1249.3531,1250.3543,,,1250.8542,1251.1042,,54,54,,,,,,,,,,,,,,,,bars/025.png,bars/mask009.png,,,,,,,,,,,,3,2,,,,,,,2,6,2,6,,,,,,,,,,,1250.3543,1250.8542,1251.1042,1257.7569,space,6.6438,,1257.7569,51,14,1258.7568,1258.7569,1258.763,,,,0,35,35,35,1,105,40,,,,,,,,
,,65ae79daf843065b21a30f6a,65af5706cbfd19b26dc0c441,2024-01-23_19h06.01.351,bars,2023.2.3,Win32,144.9275362,657b66ea316d21385b68909f,,,,,,,,,,,1258.7631,1259.7637,,,1260.2638,1260.5137,,112,112,,,,,,,,,,,,,,,,bars/036.png,bars/mask006.png,,,,,,,,,,,,0,1,,,,,,,4,4,4,4,,,,,,,,,,,1259.7637,1260.2638,1260.5137,1262.1665,space,1.6413,,1262.1665,33,88,1263.1665,1263.1665,1263.1727,,,,0,36,36,36,1,145,20,,,,,,,,
,,65ae79daf843065b21a30f6a,65af5706cbfd19b26dc0c441,2024-01-23_19h06.01.351,bars,2023.2.3,Win32,144.9275362,657b66ea316d21385b68909f,,,,,,,,,,,1263.1728,1264.1733,,,1264.6734,1264.9234,,120,120,,,,,,,,,,,,,,,,bars/004.png,bars/mask001.png,,,,,,,,,,,,7,2,,,,,,,2,6,3,8,,,,,,,,,,,1264.1734,1264.6734,1264.9234,1269.1802,space,4.2432,,1269.1803,85,5,1270.1802,1270.1802,1270.1865,,,,0,37,37,37,1,25,125,,,,,,,,
,,65ae79daf843065b21a30f6a,65af5706cbfd19b26dc0c441,2024-01-23_19h06.01.351,bars,2023.2.3,Win32,144.9275362,657b66ea316d21385b68909f,,,,,,,,,,,1270.1866,1271.1871,,,1271.6871,1271.937,,160,-20,,,,,,,,,,,,,,,,bars/017.png,bars/mask008.png,,,,,,,,,,,,2,1,,,,,,,4,8,4,7,,,,,,,,,,,1271.1872,1271.6871,1271.937,1274.5273,space,2.5799,,1274.5273,15,65,1275.5272,1275.5272,1275.5334,,,,0,38,38,38,1,145,45,,,,,,,,
,,65ae79daf843065b21a30f6a,65af5706cbfd19b26dc0c441,2024-01-23_19h06.01.351,bars,2023.2.3,Win32,144.9275362,657b66ea316d21385b68909f,,,,,,,,,,,1275.5335,1276.5342,,,1277.0342,1277.2841,,55,55,,,,,,,,,,,,,,,,bars/002.png,bars/mask002.png,,,,,,,,,,,,0,2,,,,,,,6,10,5,10,,,,,,,,,,,1276.5342,1277.0342,1277.2842,1279.2217,space,1.9239,,1279.2218,75,30,1280.2216,1280.2216,1280.2227,,,,0,39,39,39,1,130,85,,,,,,,,
,,65ae79daf843065b21a30f6a,65af5706cbfd19b26dc0c441,2024-01-23_19h06.01.351,bars,2023.2.3,Win32,144.9275362,657b66ea316d21385b68909f,,,,,,,,,,,1280.223,1281.2215,,,1281.7216,1281.9715,,48,48,,,,,,,,,,,,,,,,bars/026.png,bars/mask004.png,,,,,,,,,,,,3,1,,,,,,,8,8,6,8,,,,,,,,,,,1281.2215,1281.7216,1281.9715,1285.8256,space,3.8454,,1285.8256,13,37,1286.8256,1286.8256,1286.8318,,,,0,40,40,40,1,35,85,,,,,,,,
,,65ae79daf843065b21a30f6a,65af5706cbfd19b26dc0c441,2024-01-23_19h06.01.351,bars,2023.2.3,Win32,144.9275362,657b66ea316d21385b68909f,,,,,,,,,,,1286.8319,1287.8325,,,1288.3325,1288.5825,,124,124,,,,,,,,,,,,,,,,bars/049.png,bars/mask008.png,,,,,,,,,,,,4,2,,,,,,,6,6,5,6,,,,,,,,,,,1287.8325,1288.3325,1288.5825,1291.5964,space,3.0032,,1291.5964,36,9,1292.5963,1292.5964,1292.6027,,,,0,41,41,41,1,160,115,,,,,,,,
,,65ae79daf843065b21a30f6a,65af5706cbfd19b26dc0c441,2024-01-23_19h06.01.351,bars,2023.2.3,Win32,144.9275362,657b66ea316d21385b68909f,,,,,,,,,,,1292.6028,1293.6033,,,1294.1032,1294.3532,,18,198,,,,,,,,,,,,,,,,bars/017.png,bars/mask008.png,,,,,,,,,,,,1,2,,,,,,,4,8,6,7,,,,,,,,,,,1293.6033,1294.1032,1294.3533,1300.2351,space,5.8704,,1300.2351,53,27,1301.235,1301.235,1301.2415,,,,0,42,42,42,1,145,45,,,,,,,,
,,65ae79daf843065b21a30f6a,65af5706cbfd19b26dc0c441,2024-01-23_19h06.01.351,bars,2023.2.3,Win32,144.9275362,657b66ea316d21385b68909f,,,,,,,,,,,1301.2416,1302.2419,,,1302.7419,1302.9918,,35,35,,,,,,,,,,,,,,,,bars/023.png,bars/mask001.png,,,,,,,,,,,,3,1,,,,,,,6,10,5,9,,,,,,,,,,,1302.242,1302.7418,1302.9919,1319.1791,space,16.1743,,1319.1791,15,80,1320.179,1320.179,1320.1865,,,,0,43,43,43,1,20,115,,,,,,,,
,,65ae79daf843065b21a30f6a,65af5706cbfd19b26dc0c441,2024-01-23_19h06.01.351,bars,2023.2.3,Win32,144.9275362,657b66ea316d21385b68909f,,,,,,,,,,,1320.1866,1321.1859,,,1321.6859,1321.9359,,62,62,,,,,,,,,,,,,,,,bars/016.png,bars/mask007.png,,,,,,,,,,,,1,1,,,,,,,4,8,4,6,,,,,,,,,,,1321.1859,1321.6859,1321.9359,1324.5054,space,2.5559,,1324.5054,22,77,1325.5053,1325.5053,1325.5112,,,,0,44,44,44,1,40,165,,,,,,,,
,,65ae79daf843065b21a30f6a,65af5706cbfd19b26dc0c441,2024-01-23_19h06.01.351,bars,2023.2.3,Win32,144.9275362,657b66ea316d21385b68909f,,,,,,,,,,,1325.5114,1326.5121,,,1327.0122,1327.2622,,114,114,,,,,,,,,,,,,,,,bars/018.png,bars/mask006.png,,,,,,,,,,,,2,2,,,,,,,6,10,6,8,,,,,,,,,,,1326.5121,1327.0122,1327.2622,1331.0676,space,3.7949,,1331.0677,36,24,1332.0675,1332.0676,1332.0738,,,,0,45,45,45,1,150,90,,,,,,,,
,,65ae79daf843065b21a30f6a,65af5706cbfd19b26dc0c441,2024-01-23_19h06.01.351,bars,2023.2.3,Win32,144.9275362,657b66ea316d21385b68909f,,,,,,,,,,,1332.0739,1333.0746,,,1333.5745,1333.8245,,21,201,,,,,,,,,,,,,,,,bars/040.png,bars/mask008.png,,,,,,,,,,,,5,2,,,,,,,8,10,9,10,,,,,,,,,,,1333.0746,1333.5745,1333.8245,1337.3384,space,3.5003,,1337.3384,61,16,1338.3383,1338.3383,1338.3442,,,,0,46,46,46,1,140,5,,,,,,,,
,,65ae79daf843065b21a30f6a,65af5706cbfd19b26dc0c441,2024-01-23_19h06.01.351,bars,2023.2.3,Win32,144.9275362,657b66ea316d21385b68909f,,,,,,,,,,,1338.3443,1339.3452,,,1339.8452,1340.0952,,167,-13,,,,,,,,,,,,,,,,bars/009.png,bars/mask008.png,,,,,,,,,,,,1,1,,,,,,,10,8,10,8,,,,,,,,,,,1339.3452,1339.8452,1340.0952,1342.7272,space,2.622,,1342.7272,28,62,1343.727,1343.7271,1343.7335,,,,0,47,47,47,1,15,105,,,,,,,,
,,65ae79daf843065b21a30f6a,65af5706cbfd19b26dc0c441,2024-01-23_19h06.01.351,bars,2023.2.3,Win32,144.9275362,657b66ea316d21385b68909f,,,,,,,,,,,1343.7336,1344.7339,,,1345.2339,1345.4839,,111,111,,,,,,,,,,,,,,,,bars/038.png,bars/mask006.png,,,,,,,,,,,,0,2,,,,,,,10,6,10,7,,,,,,,,,,,1344.7339,1345.2339,1345.4839,1346.9562,space,1.4596,,1346.9562,54,41,1347.9561,1347.9561,1347.9573,,,,0,48,48,48,1,165,70,,,,,,,,
,,65ae79daf843065b21a30f6a,65af5706cbfd19b26dc0c441,2024-01-23_19h06.01.351,bars,2023.2.3,Win32,144.9275362,657b66ea316d21385b68909f,,,,,,,,,,,1347.9574,1348.9561,,,1349.4562,1349.706,,146,146,,,,,,,,,,,,,,,,bars/041.png,bars/mask004.png,,,,,,,,,,,,0,1,,,,,,,8,8,8,7,,,,,,,,,,,1348.9561,1349.4561,1349.706,1351.1575,space,1.4385,,1351.1575,54,61,1352.1574,1352.1575,1352.1585,,,,0,49,49,49,1,20,85,,,,,,,,
,,65ae79daf843065b21a30f6a,65af5706cbfd19b26dc0c441,2024-01-23_19h06.01.351,bars,2023.2.3,Win32,144.9275362,657b66ea316d21385b68909f,,,,,,,,,,,,,,,,,,,,,,,,,,,,,,,,,,,,,,,,,,,,,,,,,,,,,,,,,,,,,,,,,,,,,,,,,,,,,,,,,,,,,,,,,,,,,1352.1586,1412.156,0,2,2,4,1,sequence_tables/blk032.csv
,,65ae79daf843065b21a30f6a,65af5706cbfd19b26dc0c441,2024-01-23_19h06.01.351,bars,2023.2.3,Win32,144.9275362,657b66ea316d21385b68909f,,,,,,,,,,,1422.5612,1423.5585,,,1424.0585,1424.3085,,6,6,,,,,,,,,,,,,,,,bars/018.png,bars/mask001.png,,,,,,,,,,,,0,1,,,,,,,7,5,7,6,,,,,,1412.1563,1422.5585,space,10.3969,,1423.5585,1424.0585,1424.3085,1428.232,space,3.911,,1428.232,36,84,1429.2319,1429.232,1429.2377,,,,0,0,0,0,1,150,90,,,,,,,,
,,65ae79daf843065b21a30f6a,65af5706cbfd19b26dc0c441,2024-01-23_19h06.01.351,bars,2023.2.3,Win32,144.9275362,657b66ea316d21385b68909f,,,,,,,,,,,1429.2379,1430.239,,,1430.7389,1430.9889,,162,-18,,,,,,,,,,,,,,,,bars/010.png,bars/mask009.png,,,,,,,,,,,,5,1,,,,,,,5,7,5,7,,,,,,,,,,,1430.239,1430.7389,1430.9889,1439.1693,space,8.1699,,1439.1693,3,73,1440.1692,1440.1692,1440.1754,,,,0,1,1,1,1,165,55,,,,,,,,
,,65ae79daf843065b21a30f6a,65af5706cbfd19b26dc0c441,2024-01-23_19h06.01.351,bars,2023.2.3,Win32,144.9275362,657b66ea316d21385b68909f,,,,,,,,,,,1440.1755,1441.1761,,,1441.6761,1441.9261,,70,70,,,,,,,,,,,,,,,,bars/034.png,bars/mask002.png,,,,,,,,,,,,3,2,,,,,,,3,5,4,4,,,,,,,,,,,1441.1761,1441.6761,1441.9261,1445.2524,space,3.3162,,1445.2524,55,5,1446.2524,1446.2524,1446.2587,,,,0,2,2,2,1,125,65,,,,,,,,
,,65ae79daf843065b21a30f6a,65af5706cbfd19b26dc0c441,2024-01-23_19h06.01.351,bars,2023.2.3,Win32,144.9275362,657b66ea316d21385b68909f,,,,,,,,,,,1446.2589,1447.2593,,,1447.7593,1448.0093,,110,110,,,,,,,,,,,,,,,,bars/040.png,bars/mask003.png,,,,,,,,,,,,0,1,,,,,,,1,3,2,3,,,,,,,,,,,1447.2594,1447.7593,1448.0094,1451.5995,space,3.5789,,1451.5996,30,75,1452.5995,1452.5995,1452.6058,,,,0,3,3,3,1,140,5,,,,,,,,
,,65ae79daf843065b21a30f6a,65af5706cbfd19b26dc0c441,2024-01-23_19h06.01.351,bars,2023.2.3,Win32,144.9275362,657b66ea316d21385b68909f,,,,,,,,,,,1452.606,1453.6064,,,1454.1065,1454.3564,,76,76,,,,,,,,,,,,,,,,bars/029.png,bars/mask002.png,,,,,,,,,,,,1,1,,,,,,,3,5,2,6,,,,,,,,,,,1453.6064,1454.1065,1454.3564,1456.0925,space,1.726,,1456.0926,14,31,1457.0924,1457.0924,1457.0984,,,,0,4,4,4,1,90,45,,,,,,,,
,,65ae79daf843065b21a30f6a,65af5706cbfd19b26dc0c441,2024-01-23_19h06.01.351,bars,2023.2.3,Win32,144.9275362,657b66ea316d21385b68909f,,,,,,,,,,,1457.0985,1458.0993,,,1458.5993,1458.8493,,163,-17,,,,,,,,,,,,,,,,bars/030.png,bars/mask005.png,,,,,,,,,,,,1,1,,,,,,,1,3,3,2,,,,,,,,,,,1458.0993,1458.5993,1458.8494,1460.5021,space,1.6404,,1460.5021,23,82,1461.5021,1461.5022,1461.5031,,,,0,5,5,5,1,140,65,,,,,,,,
,,65ae79daf843065b21a30f6a,65af5706cbfd19b26dc0c441,2024-01-23_19h06.01.351,bars,2023.2.3,Win32,144.9275362,657b66ea316d21385b68909f,,,,,,,,,,,1461.5032,1462.502,,,1463.002,1463.2521,,78,78,,,,,,,,,,,,,,,,bars/010.png,bars/mask008.png,,,,,,,,,,,,0,2,,,,,,,3,1,2,1,,,,,,,,,,,1462.502,1463.002,1463.2521,1466.1686,space,2.9074,,1466.1686,87,23,1467.1686,1467.1686,1467.1749,,,,0,6,6,6,1,165,55,,,,,,,,
,,65ae79daf843065b21a30f6a,65af5706cbfd19b26dc0c441,2024-01-23_19h06.01.351,bars,2023.2.3,Win32,144.9275362,657b66ea316d21385b68909f,,,,,,,,,,,1467.175,1468.1755,,,1468.6755,1468.9254,,27,27,,,,,,,,,,,,,,,,bars/022.png,bars/mask007.png,,,,,,,,,,,,0,2,,,,,,,5,0,6,0,,,,,,,,,,,1468.1755,1468.6755,1468.9254,1472.7866,space,3.8475,,1472.7866,68,7,1473.7865,1473.7865,1473.7922,,,,0,7,7,7,1,95,20,,,,,,,,
,,65ae79daf843065b21a30f6a,65af5706cbfd19b26dc0c441,2024-01-23_19h06.01.351,bars,2023.2.3,Win32,144.9275362,657b66ea316d21385b68909f,,,,,,,,,,,1473.7924,1474.7934,,,1475.2934,1475.5433,,108,108,,,,,,,,,,,,,,,,bars/035.png,bars/mask001.png,,,,,,,,,,,,0,2,,,,,,,7,0,7,0,,,,,,,,,,,1474.7934,1475.2934,1475.5433,1478.4461,space,2.8888,,1478.4461,67,48,1479.446,1479.4461,1479.4518,,,,0,8,8,8,1,175,60,,,,,,,,
,,65ae79daf843065b21a30f6a,65af5706cbfd19b26dc0c441,2024-01-23_19h06.01.351,bars,2023.2.3,Win32,144.9275362,657b66ea316d21385b68909f,,,,,,,,,,,1479.452,1480.453,,,1480.953,1481.203,,110,110,,,,,,,,,,,,,,,,bars/005.png,bars/mask004.png,,,,,,,,,,,,0,2,,,,,,,9,0,9,1,,,,,,,,,,,1480.453,1480.953,1481.203,1483.2654,space,2.0491,,1483.2654,80,30,1484.2654,1484.2654,1484.2711,,,,0,9,9,9,1,10,140,,,,,,,,
,,65ae79daf843065b21a30f6a,65af5706cbfd19b26dc0c441,2024-01-23_19h06.01.351,bars,2023.2.3,Win32,144.9275362,657b66ea316d21385b68909f,,,,,,,,,,,1484.2712,1485.2723,,,1485.7723,1486.0223,,107,107,,,,,,,,,,,,,,,,bars/002.png,bars/mask001.png,,,,,,,,,,,,0,2,,,,,,,10,2,9,1,,,,,,,,,,,1485.2723,1485.7723,1486.0223,1488.2584,space,2.2224,,1488.2584,23,22,1489.2583,1489.2583,1489.2639,,,,0,10,10,10,1,130,85,,,,,,,,
,,65ae79daf843065b21a30f6a,65af5706cbfd19b26dc0c441,2024-01-23_19h06.01.351,bars,2023.2.3,Win32,144.9275362,657b66ea316d21385b68909f,,,,,,,,,,,1489.2641,1490.2653,,,1490.7652,1491.0152,,23,203,,,,,,,,,,,,,,,,bars/047.png,bars/mask002.png,,,,,,,,,,,,6,1,,,,,,,8,4,8,4,,,,,,,,,,,1490.2653,1490.7652,1491.0152,1493.4874,space,2.463,,1493.4874,8,47,1494.4874,1494.4874,1494.4938,,,,0,11,11,11,1,15,70,,,,,,,,
,,65ae79daf843065b21a30f6a,65af5706cbfd19b26dc0c441,2024-01-23_19h06.01.351,bars,2023.2.3,Win32,144.9275362,657b66ea316d21385b68909f,,,,,,,,,,,1494.4939,1495.4943,,,1495.9943,1496.2443,,146,146,,,,,,,,,,,,,,,,bars/003.png,bars/mask006.png,,,,,,,,,,,,6,2,,,,,,,6,6,6,7,,,,,,,,,,,1495.4943,1495.9943,1496.2443,1497.2791,space,1.0213,,1497.2792,59,6,1498.2789,1498.279,1498.2854,,,,0,12,12,12,1,25,140,,,,,,,,
,,65ae79daf843065b21a30f6a,65af5706cbfd19b26dc0c441,2024-01-23_19h06.01.351,bars,2023.2.3,Win32,144.9275362,657b66ea316d21385b68909f,,,,,,,,,,,1498.2855,1499.2858,,,1499.7859,1500.0358,,87,87,,,,,,,,,,,,,,,,bars/007.png,bars/mask005.png,,,,,,,,,,,,0,2,,,,,,,8,8,8,9,,,,,,,,,,,1499.2858,1499.7859,1500.0358,1502.0914,space,2.0458,,1502.0914,88,32,1503.0913,1503.0913,1503.0971,,,,0,13,13,13,1,175,55,,,,,,,,
,,65ae79daf843065b21a30f6a,65af5706cbfd19b26dc0c441,2024-01-23_19h06.01.351,bars,2023.2.3,Win32,144.9275362,657b66ea316d21385b68909f,,,,,,,,,,,1503.0973,1504.0983,,,1504.5983,1504.8482,,75,75,,,,,,,,,,,,,,,,bars/045.png,bars/mask005.png,,,,,,,,,,,,1,1,,,,,,,10,6,9,6,,,,,,,,,,,1504.0983,1504.5983,1504.8483,1512.5911,space,7.7297,,1512.5912,25,65,1513.591,1513.5912,1513.5979,,,,0,14,14,14,1,100,10,,,,,,,,
,,65ae79daf843065b21a30f6a,65af5706cbfd19b26dc0c441,2024-01-23_19h06.01.351,bars,2023.2.3,Win32,144.9275362,657b66ea316d21385b68909f,,,,,,,,,,,1513.5981,1514.598,,,1515.098,1515.348,,106,106,,,,,,,,,,,,,,,,bars/027.png,bars/mask002.png,,,,,,,,,,,,9,1,,,,,,,10,4,10,3,,,,,,,,,,,1514.598,1515.098,1515.348,1519.0076,space,3.6491,,1519.0077,4,56,1520.0076,1520.0076,1520.0136,,,,0,15,15,15,1,110,50,,,,,,,,
,,65ae79daf843065b21a30f6a,65af5706cbfd19b26dc0c441,2024-01-23_19h06.01.351,bars,2023.2.3,Win32,144.9275362,657b66ea316d21385b68909f,,,,,,,,,,,1520.0137,1521.0145,,,1521.5145,1521.7645,,173,-7,,,,,,,,,,,,,,,,bars/047.png,bars/mask000.png,,,,,,,,,,,,3,1,,,,,,,10,6,10,5,,,,,,,,,,,1521.0145,1521.5145,1521.7645,1523.6534,space,1.8756,,1523.6534,22,77,1524.6533,1524.6533,1524.6592,,,,0,16,16,16,1,15,70,,,,,,,,
,,65ae79daf843065b21a30f6a,65af5706cbfd19b26dc0c441,2024-01-23_19h06.01.351,bars,2023.2.3,Win32,144.9275362,657b66ea316d21385b68909f,,,,,,,,,,,1524.6593,1525.6602,,,1526.1602,1526.4102,,102,102,,,,,,,,,,,,,,,,bars/010.png,bars/mask002.png,,,,,,,,,,,,0,2,,,,,,,10,4,10,5,,,,,,,,,,,1525.6602,1526.1602,1526.4102,1527.7297,space,1.31,,1527.7297,63,47,1528.7296,1528.7296,1528.7307,,,,0,17,17,17,1,165,55,,,,,,,,
,,65ae79daf843065b21a30f6a,65af5706cbfd19b26dc0c441,2024-01-23_19h06.01.351,bars,2023.2.3,Win32,144.9275362,657b66ea316d21385b68909f,,,,,,,,,,,1528.7308,1529.7296,,,1530.2295,1530.4795,,47,47,,,,,,,,,,,,,,,,bars/013.png,bars/mask004.png,,,,,,,,,,,,1,1,,,,,,,10,6,10,7,,,,,,,,,,,1529.7296,1530.2295,1530.4795,1532.7852,space,2.294,,1532.7852,28,37,1533.785,1533.785,1533.7914,,,,0,18,18,18,1,75,10,,,,,,,,
,,65ae79daf843065b21a30f6a,65af5706cbfd19b26dc0c441,2024-01-23_19h06.01.351,bars,2023.2.3,Win32,144.9275362,657b66ea316d21385b68909f,,,,,,,,,,,1533.7916,1534.792,,,1535.292,1535.542,,74,74,,,,,,,,,,,,,,,,bars/005.png,bars/mask000.png,,,,,,,,,,,,0,1,,,,,,,10,8,10,9,,,,,,,,,,,1534.792,1535.292,1535.542,1537.4169,space,1.8655,,1537.4169,64,66,1538.4168,1538.4168,1538.4226,,,,0,19,19,19,1,10,140,,,,,,,,
,,65ae79daf843065b21a30f6a,65af5706cbfd19b26dc0c441,2024-01-23_19h06.01.351,bars,2023.2.3,Win32,144.9275362,657b66ea316d21385b68909f,,,,,,,,,,,1538.4227,1539.4238,,,1539.9238,1540.1738,,170,-10,,,,,,,,,,,,,,,,bars/006.png,bars/mask004.png,,,,,,,,,,,,0,1,,,,,,,8,10,6,9,,,,,,,,,,,1539.4238,1539.9238,1540.1739,1545.3057,space,5.1212,,1545.3057,45,70,1546.3055,1546.3056,1546.3114,,,,0,20,20,20,1,35,100,,,,,,,,
,,65ae79daf843065b21a30f6a,65af5706cbfd19b26dc0c441,2024-01-23_19h06.01.351,bars,2023.2.3,Win32,144.9275362,657b66ea316d21385b68909f,,,,,,,,,,,1546.3117,1547.3125,,,1547.8125,1548.0625,,87,87,,,,,,,,,,,,,,,,bars/006.png,bars/mask003.png,,,,,,,,,,,,5,2,,,,,,,6,10,6,9,,,,,,,,,,,1547.3125,1547.8125,1548.0625,1549.9792,space,1.9029,,1549.9792,52,13,1550.9791,1550.9791,1550.9802,,,,0,21,21,21,1,35,100,,,,,,,,
,,65ae79daf843065b21a30f6a,65af5706cbfd19b26dc0c441,2024-01-23_19h06.01.351,bars,2023.2.3,Win32,144.9275362,657b66ea316d21385b68909f,,,,,,,,,,,1550.9802,1551.9791,,,1552.4791,1552.7291,,53,53,,,,,,,,,,,,,,,,bars/038.png,bars/mask005.png,,,,,,,,,,,,4,2,,,,,,,4,8,3,9,,,,,,,,,,,1551.9791,1552.4791,1552.7291,1555.1318,space,2.3888,,1555.1318,68,17,1556.1317,1556.1317,1556.1375,,,,0,22,22,22,1,165,70,,,,,,,,
,,65ae79daf843065b21a30f6a,65af5706cbfd19b26dc0c441,2024-01-23_19h06.01.351,bars,2023.2.3,Win32,144.9275362,657b66ea316d21385b68909f,,,,,,,,,,,1556.1376,1557.1387,,,1557.6387,1557.8886,,163,-17,,,,,,,,,,,,,,,,bars/029.png,bars/mask000.png,,,,,,,,,,,,0,2,,,,,,,6,10,5,10,,,,,,,,,,,1557.1387,1557.6386,1557.8886,1561.3886,space,3.4875,,1561.3886,73,62,1562.3885,1562.3886,1562.3945,,,,0,23,23,23,1,90,45,,,,,,,,
,,65ae79daf843065b21a30f6a,65af5706cbfd19b26dc0c441,2024-01-23_19h06.01.351,bars,2023.2.3,Win32,144.9275362,657b66ea316d21385b68909f,,,,,,,,,,,1562.3947,1563.3955,,,1563.8955,1564.1454,,167,-13,,,,,,,,,,,,,,,,bars/012.png,bars/mask009.png,,,,,,,,,,,,1,2,,,,,,,8,10,8,10,,,,,,,,,,,1563.3955,1563.8954,1564.1454,1565.1802,space,1.0238,,1565.1802,77,28,1566.1801,1566.1801,1566.1805,,,,0,24,24,24,1,90,15,,,,,,,,
,,65ae79daf843065b21a30f6a,65af5706cbfd19b26dc0c441,2024-01-23_19h06.01.351,bars,2023.2.3,Win32,144.9275362,657b66ea316d21385b68909f,,,,,,,,,,,1566.1807,1567.1801,,,1567.6802,1567.9301,,18,18,,,,,,,,,,,,,,,,bars/018.png,bars/mask009.png,,,,,,,,,,,,0,1,,,,,,,6,8,7,7,,,,,,,,,,,1567.1801,1567.6802,1567.9301,1568.812,space,0.873,,1568.812,48,72,1569.8119,1569.812,1569.8131,,,,0,25,25,25,1,150,90,,,,,,,,
,,65ae79daf843065b21a30f6a,65af5706cbfd19b26dc0c441,2024-01-23_19h06.01.351,bars,2023.2.3,Win32,144.9275362,657b66ea316d21385b68909f,,,,,,,,,,,1569.8132,1570.8119,,,1571.312,1571.5619,,67,67,,,,,,,,,,,,,,,,bars/013.png,bars/mask007.png,,,,,,,,,,,,3,1,,,,,,,4,6,4,6,,,,,,,,,,,1570.812,1571.3119,1571.5619,1574.4855,space,2.9123,,1574.4856,8,57,1575.4854,1575.4855,1575.4912,,,,0,26,26,26,1,75,10,,,,,,,,
,,65ae79daf843065b21a30f6a,65af5706cbfd19b26dc0c441,2024-01-23_19h06.01.351,bars,2023.2.3,Win32,144.9275362,657b66ea316d21385b68909f,,,,,,,,,,,1575.4914,1576.4924,,,1576.9924,1577.2423,,117,117,,,,,,,,,,,,,,,,bars/008.png,bars/mask000.png,,,,,,,,,,,,2,1,,,,,,,2,8,3,7,,,,,,,,,,,1576.4924,1576.9924,1577.2423,1580.0617,space,2.8057,,1580.0618,7,63,1581.0617,1581.0617,1581.0674,,,,0,27,27,27,1,110,0,,,,,,,,
,,65ae79daf843065b21a30f6a,65af5706cbfd19b26dc0c441,2024-01-23_19h06.01.351,bars,2023.2.3,Win32,144.9275362,657b66ea316d21385b68909f,,,,,,,,,,,1581.0675,1582.0686,,,1582.5687,1582.8186,,78,78,,,,,,,,,,,,,,,,bars/034.png,bars/mask002.png,,,,,,,,,,,,6,2,,,,,,,0,10,0,10,,,,,,,,,,,1582.0686,1582.5686,1582.8186,1584.4506,space,1.6198,,1584.4506,47,13,1585.4505,1585.4505,1585.4516,,,,0,28,28,28,1,125,65,,,,,,,,
,,65ae79daf843065b21a30f6a,65af5706cbfd19b26dc0c441,2024-01-23_19h06.01.351,bars,2023.2.3,Win32,144.9275362,657b66ea316d21385b68909f,,,,,,,,,,,1585.4518,1586.4505,,,1586.9505,1587.2004,,37,37,,,,,,,,,,,,,,,,bars/036.png,bars/mask009.png,,,,,,,,,,,,4,2,,,,,,,0,8,1,9,,,,,,,,,,,1586.4505,1586.9505,1587.2005,1589.7074,space,2.493,,1589.7074,72,17,1590.7074,1590.7074,1590.7133,,,,0,29,29,29,1,145,20,,,,,,,,
,,65ae79daf843065b21a30f6a,65af5706cbfd19b26dc0c441,2024-01-23_19h06.01.351,bars,2023.2.3,Win32,144.9275362,657b66ea316d21385b68909f,,,,,,,,,,,1590.7133,1591.7143,,,1592.2142,1592.4642,,111,111,,,,,,,,,,,,,,,,bars/017.png,bars/mask001.png,,,,,,,,,,,,0,1,,,,,,,0,6,0,5,,,,,,,,,,,1591.7143,1592.2142,1592.4642,1596.1448,space,3.6715,,1596.1448,34,66,1597.1447,1597.1447,1597.151,,,,0,30,30,30,1,145,45,,,,,,,,
,,65ae79daf843065b21a30f6a,65af5706cbfd19b26dc0c441,2024-01-23_19h06.01.351,bars,2023.2.3,Win32,144.9275362,657b66ea316d21385b68909f,,,,,,,,,,,1597.151,1598.1516,,,1598.6516,1598.9015,,37,37,,,,,,,,,,,,,,,,bars/049.png,bars/mask006.png,,,,,,,,,,,,0,1,,,,,,,2,8,3,9,,,,,,,,,,,1598.1516,1598.6516,1598.9015,1600.5613,space,1.6463,,1600.5613,57,78,1601.5612,1601.5612,1601.5616,,,,0,31,31,31,1,160,115,,,,,,,,
,,65ae79daf843065b21a30f6a,65af5706cbfd19b26dc0c441,2024-01-23_19h06.01.351,bars,2023.2.3,Win32,144.9275362,657b66ea316d21385b68909f,,,,,,,,,,,1601.5617,1602.5612,,,1603.0612,1603.3112,,139,139,,,,,,,,,,,,,,,,bars/045.png,bars/mask009.png,,,,,,,,,,,,0,1,,,,,,,0,10,0,9,,,,,,,,,,,1602.5612,1603.0612,1603.3112,1606.2696,space,2.9463,,1606.2696,39,51,1607.2694,1607.2695,1607.2752,,,,0,32,32,32,1,100,10,,,,,,,,
,,65ae79daf843065b21a30f6a,65af5706cbfd19b26dc0c441,2024-01-23_19h06.01.351,bars,2023.2.3,Win32,144.9275362,657b66ea316d21385b68909f,,,,,,,,,,,1607.2753,1608.2764,,,1608.7763,1609.0263,,114,114,,,,,,,,,,,,,,,,bars/014.png,bars/mask007.png,,,,,,,,,,,,0,1,,,,,,,2,10,3,10,,,,,,,,,,,1608.2764,1608.7763,1609.0263,1611.0749,space,2.035,,1611.0749,34,66,1612.0749,1612.0749,1612.0807,,,,0,33,33,33,1,80,0,,,,,,,,
,,65ae79daf843065b21a30f6a,65af5706cbfd19b26dc0c441,2024-01-23_19h06.01.351,bars,2023.2.3,Win32,144.9275362,657b66ea316d21385b68909f,,,,,,,,,,,1612.0808,1613.0818,,,1613.5818,1613.8317,,103,103,,,,,,,,,,,,,,,,bars/047.png,bars/mask009.png,,,,,,,,,,,,0,2,,,,,,,0,10,0,10,,,,,,,,,,,1613.0818,1613.5818,1613.8317,1616.3318,space,2.4915,,1616.3318,88,33,1617.3316,1617.3316,1617.338,,,,0,34,34,34,1,15,70,,,,,,,,
,,65ae79daf843065b21a30f6a,65af5706cbfd19b26dc0c441,2024-01-23_19h06.01.351,bars,2023.2.3,Win32,144.9275362,657b66ea316d21385b68909f,,,,,,,,,,,1617.3381,1618.3386,,,1618.8386,1619.0886,,111,111,,,,,,,,,,,,,,,,bars/000.png,bars/mask004.png,,,,,,,,,,,,0,2,,,,,,,2,10,2,10,,,,,,,,,,,1618.3386,1618.8386,1619.0886,1622.9843,space,3.8855,,1622.9844,71,34,1623.9842,1623.9843,1623.9901,,,,0,35,35,35,1,40,145,,,,,,,,
,,65ae79daf843065b21a30f6a,65af5706cbfd19b26dc0c441,2024-01-23_19h06.01.351,bars,2023.2.3,Win32,144.9275362,657b66ea316d21385b68909f,,,,,,,,,,,1623.9903,1624.9912,,,1625.4913,1625.7412,,108,108,,,,,,,,,,,,,,,,bars/022.png,bars/mask008.png,,,,,,,,,,,,0,1,,,,,,,0,10,0,10,,,,,,,,,,,1624.9912,1625.4912,1625.7412,1627.9793,space,2.2295,,1627.9793,13,88,1628.9789,1628.9789,1628.9855,,,,0,36,36,36,1,95,20,,,,,,,,
,,65ae79daf843065b21a30f6a,65af5706cbfd19b26dc0c441,2024-01-23_19h06.01.351,bars,2023.2.3,Win32,144.9275362,657b66ea316d21385b68909f,,,,,,,,,,,1628.9857,1629.9841,,,1630.4842,1630.7342,,112,112,,,,,,,,,,,,,,,,bars/036.png,bars/mask001.png,,,,,,,,,,,,0,1,,,,,,,0,10,1,10,,,,,,,,,,,1629.9842,1630.4842,1630.7342,1649.8171,space,19.0743,,1649.8171,33,88,1650.817,1650.817,1650.8231,,,,0,37,37,37,1,145,20,,,,,,,,
,,65ae79daf843065b21a30f6a,65af5706cbfd19b26dc0c441,2024-01-23_19h06.01.351,bars,2023.2.3,Win32,144.9275362,657b66ea316d21385b68909f,,,,,,,,,,,1650.8232,1651.824,,,1652.324,1652.5739,,33,213,,,,,,,,,,,,,,,,bars/003.png,bars/mask000.png,,,,,,,,,,,,1,1,,,,,,,2,8,1,9,,,,,,,,,,,1651.824,1652.3239,1652.5739,1654.9489,space,2.3615,,1654.9489,8,73,1655.9489,1655.9489,1655.9547,,,,0,38,38,38,1,25,140,,,,,,,,
,,65ae79daf843065b21a30f6a,65af5706cbfd19b26dc0c441,2024-01-23_19h06.01.351,bars,2023.2.3,Win32,144.9275362,657b66ea316d21385b68909f,,,,,,,,,,,1655.9547,1656.9558,,,1657.4558,1657.7057,,123,123,,,,,,,,,,,,,,,,bars/030.png,bars/mask006.png,,,,,,,,,,,,2,1,,,,,,,4,10,4,10,,,,,,,,,,,1656.9558,1657.4557,1657.7057,1660.8516,space,3.1324,,1660.8516,17,58,1661.8514,1661.8515,1661.8572,,,,0,39,39,39,1,140,65,,,,,,,,
,,65ae79daf843065b21a30f6a,65af5706cbfd19b26dc0c441,2024-01-23_19h06.01.351,bars,2023.2.3,Win32,144.9275362,657b66ea316d21385b68909f,,,,,,,,,,,1661.8573,1662.8584,,,1663.3584,1663.6084,,111,111,,,,,,,,,,,,,,,,bars/042.png,bars/mask008.png,,,,,,,,,,,,0,1,,,,,,,6,10,6,10,,,,,,,,,,,1662.8584,1663.3584,1663.6084,1665.3861,space,1.7684,,1665.3861,34,36,1666.3861,1666.3861,1666.3865,,,,0,40,40,40,1,145,75,,,,,,,,
,,65ae79daf843065b21a30f6a,65af5706cbfd19b26dc0c441,2024-01-23_19h06.01.351,bars,2023.2.3,Win32,144.9275362,657b66ea316d21385b68909f,,,,,,,,,,,1666.3866,1667.3861,,,1667.8861,1668.136,,57,237,,,,,,,,,,,,,,,,bars/019.png,bars/mask004.png,,,,,,,,,,,,5,1,,,,,,,8,10,9,10,,,,,,,,,,,1667.3861,1667.8861,1668.136,1672.3097,space,4.1599,,1672.3097,12,48,1673.3096,1673.3096,1673.3154,,,,0,41,41,41,1,45,105,,,,,,,,
,,65ae79daf843065b21a30f6a,65af5706cbfd19b26dc0c441,2024-01-23_19h06.01.351,bars,2023.2.3,Win32,144.9275362,657b66ea316d21385b68909f,,,,,,,,,,,1673.3156,1674.3164,,,1674.8164,1675.0665,,109,109,,,,,,,,,,,,,,,,bars/031.png,bars/mask008.png,,,,,,,,,,,,3,1,,,,,,,6,10,4,10,,,,,,,,,,,1674.3164,1674.8164,1675.0665,1678.511,space,3.4311,,1678.511,11,74,1679.5107,1679.5108,1679.5166,,,,0,42,42,42,1,120,35,,,,,,,,
,,65ae79daf843065b21a30f6a,65af5706cbfd19b26dc0c441,2024-01-23_19h06.01.351,bars,2023.2.3,Win32,144.9275362,657b66ea316d21385b68909f,,,,,,,,,,,1679.5167,1680.5177,,,1681.0177,1681.2677,,114,-66,,,,,,,,,,,,,,,,bars/028.png,bars/mask004.png,,,,,,,,,,,,6,2,,,,,,,8,8,6,8,,,,,,,,,,,1680.5177,1681.0177,1681.2677,1686.3718,space,5.0928,,1686.3718,69,6,1687.3716,1687.3717,1687.378,,,,0,43,43,43,1,45,120,,,,,,,,
,,65ae79daf843065b21a30f6a,65af5706cbfd19b26dc0c441,2024-01-23_19h06.01.351,bars,2023.2.3,Win32,144.9275362,657b66ea316d21385b68909f,,,,,,,,,,,1687.3781,1688.3786,,,1688.8787,1689.1287,,104,104,,,,,,,,,,,,,,,,bars/044.png,bars/mask006.png,,,,,,,,,,,,0,1,,,,,,,6,10,5,9,,,,,,,,,,,1688.3786,1688.8787,1689.1287,1691.1563,space,2.0186,,1691.1563,29,51,1692.1563,1692.1563,1692.1576,,,,0,44,44,44,1,75,155,,,,,,,,
,,65ae79daf843065b21a30f6a,65af5706cbfd19b26dc0c441,2024-01-23_19h06.01.351,bars,2023.2.3,Win32,144.9275362,657b66ea316d21385b68909f,,,,,,,,,,,1692.1577,1693.1562,,,1693.6563,1693.9063,,164,164,,,,,,,,,,,,,,,,bars/014.png,bars/mask007.png,,,,,,,,,,,,4,2,,,,,,,4,8,3,8,,,,,,,,,,,1693.1563,1693.6563,1693.9063,1695.9618,space,2.0431,,1695.9619,84,16,1696.9618,1696.9618,1696.9682,,,,0,45,45,45,1,80,0,,,,,,,,
,,65ae79daf843065b21a30f6a,65af5706cbfd19b26dc0c441,2024-01-23_19h06.01.351,bars,2023.2.3,Win32,144.9275362,657b66ea316d21385b68909f,,,,,,,,,,,1696.9684,1697.9687,,,1698.4687,1698.7187,,11,191,,,,,,,,,,,,,,,,bars/048.png,bars/mask005.png,,,,,,,,,,,,3,2,,,,,,,2,6,3,7,,,,,,,,,,,1697.9687,1698.4687,1698.7187,1707.3991,space,8.6666,,1707.3992,39,16,1708.399,1708.3991,1708.4052,,,,0,46,46,46,1,50,175,,,,,,,,
,,65ae79daf843065b21a30f6a,65af5706cbfd19b26dc0c441,2024-01-23_19h06.01.351,bars,2023.2.3,Win32,144.9275362,657b66ea316d21385b68909f,,,,,,,,,,,1708.4053,1709.4059,,,1709.906,1710.1559,,13,193,,,,,,,,,,,,,,,,bars/039.png,bars/mask003.png,,,,,,,,,,,,2,1,,,,,,,4,4,4,4,,,,,,,,,,,1709.4059,1709.906,1710.1559,1712.9753,space,2.8056,,1712.9753,18,88,1713.9752,1713.9752,1713.9816,,,,0,47,47,47,1,175,105,,,,,,,,
,,65ae79daf843065b21a30f6a,65af5706cbfd19b26dc0c441,2024-01-23_19h06.01.351,bars,2023.2.3,Win32,144.9275362,657b66ea316d21385b68909f,,,,,,,,,,,1713.9817,1714.9821,,,1715.4821,1715.7322,,68,68,,,,,,,,,,,,,,,,bars/023.png,bars/mask005.png,,,,,,,,,,,,0,2,,,,,,,2,2,3,3,,,,,,,,,,,1714.9821,1715.4821,1715.7322,1719.0185,space,3.2777,,1719.0186,48,47,1720.0182,1720.0182,1720.0248,,,,0,48,48,48,1,20,115,,,,,,,,
,,65ae79daf843065b21a30f6a,65af5706cbfd19b26dc0c441,2024-01-23_19h06.01.351,bars,2023.2.3,Win32,144.9275362,657b66ea316d21385b68909f,,,,,,,,,,,1720.025,1721.0237,,,1721.5238,1721.7737,,18,198,,,,,,,,,,,,,,,,bars/012.png,bars/mask003.png,,,,,,,,,,,,0,2,,,,,,,4,0,3,0,,,,,,,,,,,1721.0238,1721.5236,1721.7737,1724.0792,space,2.2962,,1724.0792,72,3,1725.0791,1725.0792,1725.085,,,,0,49,49,49,1,90,15,,,,,,,,
,,65ae79daf843065b21a30f6a,65af5706cbfd19b26dc0c441,2024-01-23_19h06.01.351,bars,2023.2.3,Win32,144.9275362,657b66ea316d21385b68909f,,,,,,,,,,,,,,,,,,,,,,,,,,,,,,,,,,,,,,,,,,,,,,,,,,,,,,,,,,,,,,,,,,,,,,,,,,,,,,,,,,,,,,,,,,,,,1725.0851,1785.0847,0,3,3,0,1,sequence_tables/blk007.csv
,,65ae79daf843065b21a30f6a,65af5706cbfd19b26dc0c441,2024-01-23_19h06.01.351,bars,2023.2.3,Win32,144.9275362,657b66ea316d21385b68909f,,,,,,,,,,,1788.2265,1789.2235,,,1789.7235,1789.9734,,104,104,,,,,,,,,,,,,,,,bars/008.png,bars/mask004.png,,,,,,,,,,,,2,1,,,,,,,2,8,2,9,,,,,,1785.085,1788.2236,space,3.1337,,1789.2235,1789.7235,1789.9735,1793.0568,space,3.0709,,1793.0568,6,76,1794.0567,1794.0567,1794.0623,,,,0,0,0,0,1,110,0,,,,,,,,
,,65ae79daf843065b21a30f6a,65af5706cbfd19b26dc0c441,2024-01-23_19h06.01.351,bars,2023.2.3,Win32,144.9275362,657b66ea316d21385b68909f,,,,,,,,,,,1794.0625,1795.0636,,,1795.5636,1795.8136,,86,86,,,,,,,,,,,,,,,,bars/031.png,bars/mask006.png,,,,,,,,,,,,0,1,,,,,,,4,10,5,10,,,,,,,,,,,1795.0636,1795.5636,1795.8136,1797.0289,space,1.2031,,1797.0289,34,51,1798.0288,1798.0289,1798.0295,,,,0,1,1,1,1,120,35,,,,,,,,
,,65ae79daf843065b21a30f6a,65af5706cbfd19b26dc0c441,2024-01-23_19h06.01.351,bars,2023.2.3,Win32,144.9275362,657b66ea316d21385b68909f,,,,,,,,,,,1798.0298,1799.0288,,,1799.5288,1799.7788,,14,194,,,,,,,,,,,,,,,,bars/011.png,bars/mask003.png,,,,,,,,,,,,0,1,,,,,,,6,8,7,7,,,,,,,,,,,1799.0288,1799.5287,1799.7788,1804.3204,space,4.529,,1804.3204,34,71,1805.3203,1805.3204,1805.3262,,,,0,2,2,2,1,160,85,,,,,,,,
,,65ae79daf843065b21a30f6a,65af5706cbfd19b26dc0c441,2024-01-23_19h06.01.351,bars,2023.2.3,Win32,144.9275362,657b66ea316d21385b68909f,,,,,,,,,,,1805.3263,1806.3272,,,1806.8272,1807.0772,,144,144,,,,,,,,,,,,,,,,bars/006.png,bars/mask001.png,,,,,,,,,,,,0,2,,,,,,,8,10,7,9,,,,,,,,,,,1806.3272,1806.8272,1807.0772,1808.9661,space,1.875,,1808.9661,71,44,1809.9661,1809.9661,1809.9674,,,,0,3,3,3,1,35,100,,,,,,,,
,,65ae79daf843065b21a30f6a,65af5706cbfd19b26dc0c441,2024-01-23_19h06.01.351,bars,2023.2.3,Win32,144.9275362,657b66ea316d21385b68909f,,,,,,,,,,,1809.9675,1810.966,,,1811.466,1811.7159,,151,151,,,,,,,,,,,,,,,,bars/043.png,bars/mask005.png,,,,,,,,,,,,2,2,,,,,,,10,8,10,7,,,,,,,,,,,1810.966,1811.466,1811.7159,1813.8687,space,2.1431,,1813.8687,59,21,1814.8686,1814.8687,1814.8745,,,,0,4,4,4,1,30,130,,,,,,,,
,,65ae79daf843065b21a30f6a,65af5706cbfd19b26dc0c441,2024-01-23_19h06.01.351,bars,2023.2.3,Win32,144.9275362,657b66ea316d21385b68909f,,,,,,,,,,,1814.8747,1815.8757,,,1816.3757,1816.6256,,69,69,,,,,,,,,,,,,,,,bars/019.png,bars/mask006.png,,,,,,,,,,,,2,1,,,,,,,8,6,9,5,,,,,,,,,,,1815.8757,1816.3757,1816.6257,1819.1534,space,2.5143,,1819.1534,24,36,1820.1533,1820.1533,1820.1543,,,,0,5,5,5,1,45,105,,,,,,,,
,,65ae79daf843065b21a30f6a,65af5706cbfd19b26dc0c441,2024-01-23_19h06.01.351,bars,2023.2.3,Win32,144.9275362,657b66ea316d21385b68909f,,,,,,,,,,,1820.1545,1821.1533,,,1821.6532,1821.9032,,151,151,,,,,,,,,,,,,,,,bars/007.png,bars/mask009.png,,,,,,,,,,,,1,1,,,,,,,6,4,5,5,,,,,,,,,,,1821.1533,1821.6532,1821.9033,1824.0838,space,2.1665,,1824.0838,24,84,1825.0837,1825.0837,1825.0895,,,,0,6,6,6,1,175,55,,,,,,,,
,,65ae79daf843065b21a30f6a,65af5706cbfd19b26dc0c441,2024-01-23_19h06.01.351,bars,2023.2.3,Win32,144.9275362,657b66ea316d21385b68909f,,,,,,,,,,,1825.0896,1826.0907,,,1826.5907,1826.8406,,68,68,,,,,,,,,,,,,,,,bars/006.png,bars/mask006.png,,,,,,,,,,,,0,2,,,,,,,8,2,7,1,,,,,,,,,,,1826.0907,1826.5906,1826.8406,1828.8476,space,1.9976,,1828.8476,33,32,1829.8475,1829.8475,1829.8485,,,,0,7,7,7,1,35,100,,,,,,,,
,,65ae79daf843065b21a30f6a,65af5706cbfd19b26dc0c441,2024-01-23_19h06.01.351,bars,2023.2.3,Win32,144.9275362,657b66ea316d21385b68909f,,,,,,,,,,,1829.8487,1830.8474,,,1831.3475,1831.5975,,157,-23,,,,,,,,,,,,,,,,bars/007.png,bars/mask007.png,,,,,,,,,,,,2,1,,,,,,,6,0,6,0,,,,,,,,,,,1830.8475,1831.3475,1831.5975,1834.6392,space,3.0279,,1834.6392,18,78,1835.6391,1835.6391,1835.6453,,,,0,8,8,8,1,175,55,,,,,,,,
,,65ae79daf843065b21a30f6a,65af5706cbfd19b26dc0c441,2024-01-23_19h06.01.351,bars,2023.2.3,Win32,144.9275362,657b66ea316d21385b68909f,,,,,,,,,,,1835.6454,1836.6459,,,1837.146,1837.3959,,165,-15,,,,,,,,,,,,,,,,bars/047.png,bars/mask000.png,,,,,,,,,,,,0,1,,,,,,,4,2,4,0,,,,,,,,,,,1836.6459,1837.146,1837.3959,1846.0694,space,8.6598,,1846.0694,30,85,1847.0693,1847.0693,1847.0758,,,,0,9,9,9,1,15,70,,,,,,,,
,,65ae79daf843065b21a30f6a,65af5706cbfd19b26dc0c441,2024-01-23_19h06.01.351,bars,2023.2.3,Win32,144.9275362,657b66ea316d21385b68909f,,,,,,,,,,,1847.0758,1848.0762,,,1848.5763,1848.8262,,166,166,,,,,,,,,,,,,,,,bars/032.png,bars/mask009.png,,,,,,,,,,,,0,2,,,,,,,2,4,3,4,,,,,,,,,,,1848.0762,1848.5763,1848.8262,1850.9165,space,2.0804,,1850.9166,41,34,1851.9164,1851.9165,1851.9228,,,,0,10,10,10,1,125,20,,,,,,,,
,,65ae79daf843065b21a30f6a,65af5706cbfd19b26dc0c441,2024-01-23_19h06.01.351,bars,2023.2.3,Win32,144.9275362,657b66ea316d21385b68909f,,,,,,,,,,,1851.9229,1852.9233,,,1853.4233,1853.6734,,160,160,,,,,,,,,,,,,,,,bars/036.png,bars/mask005.png,,,,,,,,,,,,3,1,,,,,,,4,6,5,6,,,,,,,,,,,1852.9233,1853.4233,1853.6734,1857.7289,space,4.0419,,1857.7289,15,40,1858.7288,1858.7288,1858.7352,,,,0,11,11,11,1,145,20,,,,,,,,
,,65ae79daf843065b21a30f6a,65af5706cbfd19b26dc0c441,2024-01-23_19h06.01.351,bars,2023.2.3,Win32,144.9275362,657b66ea316d21385b68909f,,,,,,,,,,,1858.7355,1859.7357,,,1860.2357,1860.4857,,36,36,,,,,,,,,,,,,,,,bars/045.png,bars/mask006.png,,,,,,,,,,,,0,2,,,,,,,2,4,3,3,,,,,,,,,,,1859.7357,1860.2356,1860.4857,1863.2634,space,2.7643,,1863.2634,64,26,1864.2634,1864.2634,1864.2696,,,,0,12,12,12,1,100,10,,,,,,,,
