init_variables.started,init_variables.stopped,participant,session,date,expName,psychopyVersion,OS,frameRate,study_id,instruction_exp.started,instruction_exp.stopped,key_resp_8.keys,key_resp_8.rt,key_resp_8.duration,instruction_single.started,instruction_single.stopped,key_resp_2.keys,key_resp_2.rt,key_resp_2.duration,interval.started,interval.stopped,cue_single.started,cue_single.stopped,mask.started,mask.stopped,ori_response_single.started,res_ori,res,ori_response_single.stopped,key_resp_single.keys,key_resp_single.rt,key_resp_single.duration,disp_single.started,disp_single.stopped,key_resp.keys,key_resp.rt,key_resp.duration,single.thisRepN,single.thisTrialN,single.thisN,single.thisIndex,single.ran,ori,path,mask_path,instruction_bandit.started,instruction_bandit.stopped,key_resp_6.keys,key_resp_6.rt,key_resp_6.duration,cue_bandit.started,cue_bandit.stopped,bandit_res.keys,bandit_res.rt,bandit_res.duration,outcome_bandit.started,rew,action,outcome_bandit.stopped,bandit.thisRepN,bandit.thisTrialN,bandit.thisN,bandit.thisIndex,bandit.ran,actual_rew1,actual_rew2,rew1,rew2,instruction_task.started,instruction_task.stopped,key_resp_7.keys,key_resp_7.rt,key_resp_7.duration,wait_ready.started,wait_ready.stopped,key_resp_3.keys,key_resp_3.rt,key_resp_3.duration,cue.started,cue.stopped,ori_response.started,ori_response.stopped,key_resp_5.keys,key_resp_5.rt,key_resp_5.duration,outcome.started,diff1,diff2,outcome.stopped,disp_outcome_practice.started,disp_outcome_practice.stopped,key_resp_4.keys,key_resp_4.rt,key_resp_4.duration,trials.thisRepN,trials.thisTrialN,trials.thisN,trials.thisIndex,trials.ran,ori1,ori2,break_blk.started,break_blk.stopped,block.thisRepN,block.thisTrialN,block.thisN,block.thisIndex,block.ran,condition_file
0.0004,0.0006,5f3ccceaac7ac7b57eb048c8,65af5608ca620457d06d58c2,2024-01-23_08h25.35.571,bars,2023.2.3,Win32,59.88023952,657b66ea316d21385b68909f,,,,,,,,,,,,,,,,,,,,,,,,,,,,,,,,,,,,,,,,,,,,,,,,,,,,,,,,,,,,,,,,,,,,,,,,,,,,,,,,,,,,,,,,,,,,,,,,,,,,
,,5f3ccceaac7ac7b57eb048c8,65af5608ca620457d06d58c2,2024-01-23_08h25.35.571,bars,2023.2.3,Win32,59.88023952,657b66ea316d21385b68909f,0.0009,1.8165,y,1.7977,,,,,,,,,,,,,,,,,,,,,,,,,,,,,,,,,,,,,,,,,,,,,,,,,,,,,,,,,,,,,,,,,,,,,,,,,,,,,,,,,,,,,,,,,,,,,,,,
,,5f3ccceaac7ac7b57eb048c8,65af5608ca620457d06d58c2,2024-01-23_08h25.35.571,bars,2023.2.3,Win32,59.88023952,657b66ea316d21385b68909f,,,,,,1.8167,11.3776,space,9.5452,,,,,,,,,,,,,,,,,,,,,,,,,,,,,,,,,,,,,,,,,,,,,,,,,,,,,,,,,,,,,,,,,,,,,,,,,,,,,,,,,,,,,,,,,,,
,,5f3ccceaac7ac7b57eb048c8,65af5608ca620457d06d58c2,2024-01-23_08h25.35.571,bars,2023.2.3,Win32,59.88023952,657b66ea316d21385b68909f,,,,,,,,,,,11.3857,12.3737,12.374,12.874,12.8742,13.1255,13.1258,43,43,19.6081,space,6.4481,,19.6083,32.28,space,12.6496,,0,0,0,3,1,20,bars/single003.png,bars/mask005.png,,,,,,,,,,,,,,,,,,,,,,,,,,,,,,,,,,,,,,,,,,,,,,,,,,,,,,,,,,,,,,,,
,,5f3ccceaac7ac7b57eb048c8,65af5608ca620457d06d58c2,2024-01-23_08h25.35.571,bars,2023.2.3,Win32,59.88023952,657b66ea316d21385b68909f,,,,,,,,,,,32.2812,33.2786,33.2787,33.7791,33.7793,34.0288,34.0288,38,38,38.3122,space,4.2669,,38.3122,43.9965,space,5.6677,,0,1,1,7,1,45,bars/single007.png,bars/mask009.png,,,,,,,,,,,,,,,,,,,,,,,,,,,,,,,,,,,,,,,,,,,,,,,,,,,,,,,,,,,,,,,,
,,5f3ccceaac7ac7b57eb048c8,65af5608ca620457d06d58c2,2024-01-23_08h25.35.571,bars,2023.2.3,Win32,59.88023952,657b66ea316d21385b68909f,,,,,,,,,,,43.9971,44.9946,44.9946,45.4941,45.4942,45.7411,45.7411,42,222,51.3379,space,5.5688,,51.338,57.504,space,6.1425,,0,2,2,9,1,20,bars/single009.png,bars/mask006.png,,,,,,,,,,,,,,,,,,,,,,,,,,,,,,,,,,,,,,,,,,,,,,,,,,,,,,,,,,,,,,,,
,,5f3ccceaac7ac7b57eb048c8,65af5608ca620457d06d58c2,2024-01-23_08h25.35.571,bars,2023.2.3,Win32,59.88023952,657b66ea316d21385b68909f,,,,,,,,,,,57.5147,58.5042,58.5043,59.0039,59.0039,59.2539,59.254,150,-30,68.6369,space,9.3714,,68.637,73.8533,space,5.1813,,0,3,3,8,1,160,bars/single008.png,bars/mask004.png,,,,,,,,,,,,,,,,,,,,,,,,,,,,,,,,,,,,,,,,,,,,,,,,,,,,,,,,,,,,,,,,
,,5f3ccceaac7ac7b57eb048c8,65af5608ca620457d06d58c2,2024-01-23_08h25.35.571,bars,2023.2.3,Win32,59.88023952,657b66ea316d21385b68909f,,,,,,,,,,,73.8646,74.8532,74.8532,75.353,75.3531,75.6037,75.6038,47,47,79.8204,space,4.2093,,79.8205,82.7362,space,2.8825,,0,4,4,5,1,55,bars/single005.png,bars/mask008.png,,,,,,,,,,,,,,,,,,,,,,,,,,,,,,,,,,,,,,,,,,,,,,,,,,,,,,,,,,,,,,,,
,,5f3ccceaac7ac7b57eb048c8,65af5608ca620457d06d58c2,2024-01-23_08h25.35.571,bars,2023.2.3,Win32,59.88023952,657b66ea316d21385b68909f,,,,,,,,,,,82.7478,83.7359,83.736,84.2365,84.2366,84.4863,84.4863,141,141,88.2204,space,3.7265,,88.2206,91.5364,space,3.2833,,0,5,5,2,1,145,bars/single002.png,bars/mask003.png,,,,,,,,,,,,,,,,,,,,,,,,,,,,,,,,,,,,,,,,,,,,,,,,,,,,,,,,,,,,,,,,
,,5f3ccceaac7ac7b57eb048c8,65af5608ca620457d06d58c2,2024-01-23_08h25.35.571,bars,2023.2.3,Win32,59.88023952,657b66ea316d21385b68909f,,,,,,,,,,,91.547,92.5366,92.5366,93.0367,93.0368,93.2864,93.2865,46,226,101.9527,space,8.6504,,101.9529,120.8174,space,18.827,,0,6,6,1,1,20,bars/single001.png,bars/mask006.png,,,,,,,,,,,,,,,,,,,,,,,,,,,,,,,,,,,,,,,,,,,,,,,,,,,,,,,,,,,,,,,,
,,5f3ccceaac7ac7b57eb048c8,65af5608ca620457d06d58c2,2024-01-23_08h25.35.571,bars,2023.2.3,Win32,59.88023952,657b66ea316d21385b68909f,,,,,,,,,,,120.8287,121.8171,121.8171,122.3174,122.3175,122.5669,122.567,168,168,126.3504,space,3.7714,,126.3504,132.4251,space,6.0505,,0,7,7,6,1,175,bars/single006.png,bars/mask005.png,,,,,,,,,,,,,,,,,,,,,,,,,,,,,,,,,,,,,,,,,,,,,,,,,,,,,,,,,,,,,,,,
,,5f3ccceaac7ac7b57eb048c8,65af5608ca620457d06d58c2,2024-01-23_08h25.35.571,bars,2023.2.3,Win32,59.88023952,657b66ea316d21385b68909f,,,,,,,,,,,132.4376,133.4407,133.4407,133.941,133.941,134.1832,134.1833,154,154,139.9674,space,5.7503,,139.9675,143.7005,space,3.7017,,0,8,8,0,1,150,bars/single000.png,bars/mask006.png,,,,,,,,,,,,,,,,,,,,,,,,,,,,,,,,,,,,,,,,,,,,,,,,,,,,,,,,,,,,,,,,
,,5f3ccceaac7ac7b57eb048c8,65af5608ca620457d06d58c2,2024-01-23_08h25.35.571,bars,2023.2.3,Win32,59.88023952,657b66ea316d21385b68909f,,,,,,,,,,,143.711,144.7003,144.7004,145.2,145.2001,145.4498,145.4499,117,-63,151.5853,space,6.1184,,151.5853,154.8167,space,3.1982,,0,9,9,4,1,95,bars/single004.png,bars/mask004.png,,,,,,,,,,,,,,,,,,,,,,,,,,,,,,,,,,,,,,,,,,,,,,,,,,,,,,,,,,,,,,,,
,,5f3ccceaac7ac7b57eb048c8,65af5608ca620457d06d58c2,2024-01-23_08h25.35.571,bars,2023.2.3,Win32,59.88023952,657b66ea316d21385b68909f,,,,,,,,,,,,,,,,,,,,,,,,,,,,,,,,,,,,,154.8179,182.3409,space,27.5056,,,,,,,,,,,,,,,,,,,,,,,,,,,,,,,,,,,,,,,,,,,,,,,,,,,,,,,,,,,,
,,5f3ccceaac7ac7b57eb048c8,65af5608ca620457d06d58c2,2024-01-23_08h25.35.571,bars,2023.2.3,Win32,59.88023952,657b66ea316d21385b68909f,,,,,,,,,,,,,,,,,,,,,,,,,,,,,,,,,,,,,,,,,,182.3576,185.2985,right,2.9155,,185.2988,2,2,186.2984,0,0,0,0,1,9,1,9,2,,,,,,,,,,,,,,,,,,,,,,,,,,,,,,,,,,,,,,,,,
,,5f3ccceaac7ac7b57eb048c8,65af5608ca620457d06d58c2,2024-01-23_08h25.35.571,bars,2023.2.3,Win32,59.88023952,657b66ea316d21385b68909f,,,,,,,,,,,,,,,,,,,,,,,,,,,,,,,,,,,,,,,,,,186.299,187.0655,right,0.7532,,187.0656,1,2,188.065,0,1,1,1,1,10,0,10,1,,,,,,,,,,,,,,,,,,,,,,,,,,,,,,,,,,,,,,,,,
,,5f3ccceaac7ac7b57eb048c8,65af5608ca620457d06d58c2,2024-01-23_08h25.35.571,bars,2023.2.3,Win32,59.88023952,657b66ea316d21385b68909f,,,,,,,,,,,,,,,,,,,,,,,,,,,,,,,,,,,,,,,,,,188.0657,188.382,right,0.308,,188.3821,2,2,189.3819,0,2,2,2,1,10,2,10,2,,,,,,,,,,,,,,,,,,,,,,,,,,,,,,,,,,,,,,,,,
,,5f3ccceaac7ac7b57eb048c8,65af5608ca620457d06d58c2,2024-01-23_08h25.35.571,bars,2023.2.3,Win32,59.88023952,657b66ea316d21385b68909f,,,,,,,,,,,,,,,,,,,,,,,,,,,,,,,,,,,,,,,,,,189.3822,189.7316,right,0.3345,,189.7316,3,2,190.7312,0,3,3,3,1,8,4,7,3,,,,,,,,,,,,,,,,,,,,,,,,,,,,,,,,,,,,,,,,,
,,5f3ccceaac7ac7b57eb048c8,65af5608ca620457d06d58c2,2024-01-23_08h25.35.571,bars,2023.2.3,Win32,59.88023952,657b66ea316d21385b68909f,,,,,,,,,,,,,,,,,,,,,,,,,,,,,,,,,,,,,,,,,,190.7316,191.0491,right,0.3093,,191.0491,1,2,192.0483,0,4,4,4,1,6,2,5,1,,,,,,,,,,,,,,,,,,,,,,,,,,,,,,,,,,,,,,,,,
,,5f3ccceaac7ac7b57eb048c8,65af5608ca620457d06d58c2,2024-01-23_08h25.35.571,bars,2023.2.3,Win32,59.88023952,657b66ea316d21385b68909f,,,,,,,,,,,,,,,,,,,,,,,,,,,,,,,,,,,,,,,,,,192.0489,192.3654,right,0.3005,,192.3655,4,2,193.3647,0,5,5,5,1,4,4,4,4,,,,,,,,,,,,,,,,,,,,,,,,,,,,,,,,,,,,,,,,,
,,5f3ccceaac7ac7b57eb048c8,65af5608ca620457d06d58c2,2024-01-23_08h25.35.571,bars,2023.2.3,Win32,59.88023952,657b66ea316d21385b68909f,,,,,,,,,,,,,,,,,,,,,,,,,,,,,,,,,,,,,,,,,,193.3651,193.9979,right,0.6166,,193.9979,2,2,194.998,0,6,6,6,1,2,2,1,2,,,,,,,,,,,,,,,,,,,,,,,,,,,,,,,,,,,,,,,,,
,,5f3ccceaac7ac7b57eb048c8,65af5608ca620457d06d58c2,2024-01-23_08h25.35.571,bars,2023.2.3,Win32,59.88023952,657b66ea316d21385b68909f,,,,,,,,,,,,,,,,,,,,,,,,,,,,,,,,,,,,,,,,,,194.9985,195.3645,right,0.3508,,195.3645,1,2,196.3642,0,7,7,7,1,0,0,0,1,,,,,,,,,,,,,,,,,,,,,,,,,,,,,,,,,,,,,,,,,
,,5f3ccceaac7ac7b57eb048c8,65af5608ca620457d06d58c2,2024-01-23_08h25.35.571,bars,2023.2.3,Win32,59.88023952,657b66ea316d21385b68909f,,,,,,,,,,,,,,,,,,,,,,,,,,,,,,,,,,,,,,,,,,196.3646,196.6644,right,0.2843,,196.6645,0,2,197.6641,0,8,8,8,1,0,2,1,0,,,,,,,,,,,,,,,,,,,,,,,,,,,,,,,,,,,,,,,,,
,,5f3ccceaac7ac7b57eb048c8,65af5608ca620457d06d58c2,2024-01-23_08h25.35.571,bars,2023.2.3,Win32,59.88023952,657b66ea316d21385b68909f,,,,,,,,,,,,,,,,,,,,,,,,,,,,,,,,,,,,,,,,,,197.6646,197.9309,right,0.2504,,197.931,3,2,198.9306,0,9,9,9,1,2,4,2,3,,,,,,,,,,,,,,,,,,,,,,,,,,,,,,,,,,,,,,,,,
,,5f3ccceaac7ac7b57eb048c8,65af5608ca620457d06d58c2,2024-01-23_08h25.35.571,bars,2023.2.3,Win32,59.88023952,657b66ea316d21385b68909f,,,,,,,,,,,,,,,,,,,,,,,,,,,,,,,,,,,,,,,,,,198.931,199.331,right,0.3844,,199.3311,3,2,200.3309,0,10,10,10,1,0,2,0,3,,,,,,,,,,,,,,,,,,,,,,,,,,,,,,,,,,,,,,,,,
,,5f3ccceaac7ac7b57eb048c8,65af5608ca620457d06d58c2,2024-01-23_08h25.35.571,bars,2023.2.3,Win32,59.88023952,657b66ea316d21385b68909f,,,,,,,,,,,,,,,,,,,,,,,,,,,,,,,,,,,,,,,,,,200.3313,200.5651,right,0.2255,,200.5651,3,2,201.5642,0,11,11,11,1,0,4,0,3,,,,,,,,,,,,,,,,,,,,,,,,,,,,,,,,,,,,,,,,,
,,5f3ccceaac7ac7b57eb048c8,65af5608ca620457d06d58c2,2024-01-23_08h25.35.571,bars,2023.2.3,Win32,59.88023952,657b66ea316d21385b68909f,,,,,,,,,,,,,,,,,,,,,,,,,,,,,,,,,,,,,,,,,,201.5647,201.9644,left,0.3839,,201.9645,1,1,202.9638,0,12,12,12,1,2,6,1,6,,,,,,,,,,,,,,,,,,,,,,,,,,,,,,,,,,,,,,,,,
,,5f3ccceaac7ac7b57eb048c8,65af5608ca620457d06d58c2,2024-01-23_08h25.35.571,bars,2023.2.3,Win32,59.88023952,657b66ea316d21385b68909f,,,,,,,,,,,,,,,,,,,,,,,,,,,,,,,,,,,,,,,,,,202.9641,203.2643,left,0.285,,203.2643,1,1,204.2641,0,13,13,13,1,0,4,1,3,,,,,,,,,,,,,,,,,,,,,,,,,,,,,,,,,,,,,,,,,
,,5f3ccceaac7ac7b57eb048c8,65af5608ca620457d06d58c2,2024-01-23_08h25.35.571,bars,2023.2.3,Win32,59.88023952,657b66ea316d21385b68909f,,,,,,,,,,,,,,,,,,,,,,,,,,,,,,,,,,,,,,,,,,204.2648,204.3979,right,0.1217,,204.3981,7,2,205.3971,0,14,14,14,1,2,6,2,7,,,,,,,,,,,,,,,,,,,,,,,,,,,,,,,,,,,,,,,,,
,,5f3ccceaac7ac7b57eb048c8,65af5608ca620457d06d58c2,2024-01-23_08h25.35.571,bars,2023.2.3,Win32,59.88023952,657b66ea316d21385b68909f,,,,,,,,,,,,,,,,,,,,,,,,,,,,,,,,,,,,,,,,,,205.3976,205.6805,right,0.2682,,205.6805,9,2,206.6809,0,15,15,15,1,4,8,3,9,,,,,,,,,,,,,,,,,,,,,,,,,,,,,,,,,,,,,,,,,
,,5f3ccceaac7ac7b57eb048c8,65af5608ca620457d06d58c2,2024-01-23_08h25.35.571,bars,2023.2.3,Win32,59.88023952,657b66ea316d21385b68909f,,,,,,,,,,,,,,,,,,,,,,,,,,,,,,,,,,,,,,,,,,206.6814,206.9647,right,0.273,,206.9648,7,2,207.9637,0,16,16,16,1,6,6,7,7,,,,,,,,,,,,,,,,,,,,,,,,,,,,,,,,,,,,,,,,,
,,5f3ccceaac7ac7b57eb048c8,65af5608ca620457d06d58c2,2024-01-23_08h25.35.571,bars,2023.2.3,Win32,59.88023952,657b66ea316d21385b68909f,,,,,,,,,,,,,,,,,,,,,,,,,,,,,,,,,,,,,,,,,,207.9641,208.2151,right,0.2427,,208.2153,5,2,209.2136,0,17,17,17,1,8,4,9,5,,,,,,,,,,,,,,,,,,,,,,,,,,,,,,,,,,,,,,,,,
,,5f3ccceaac7ac7b57eb048c8,65af5608ca620457d06d58c2,2024-01-23_08h25.35.571,bars,2023.2.3,Win32,59.88023952,657b66ea316d21385b68909f,,,,,,,,,,,,,,,,,,,,,,,,,,,,,,,,,,,,,,,,,,209.2141,209.4483,right,0.2246,,209.4484,1,2,210.4467,0,18,18,18,1,6,2,5,1,,,,,,,,,,,,,,,,,,,,,,,,,,,,,,,,,,,,,,,,,
,,5f3ccceaac7ac7b57eb048c8,65af5608ca620457d06d58c2,2024-01-23_08h25.35.571,bars,2023.2.3,Win32,59.88023952,657b66ea316d21385b68909f,,,,,,,,,,,,,,,,,,,,,,,,,,,,,,,,,,,,,,,,,,210.4471,210.7475,left,0.2888,,210.7476,7,1,211.7469,0,19,19,19,1,8,0,7,0,,,,,,,,,,,,,,,,,,,,,,,,,,,,,,,,,,,,,,,,,
,,5f3ccceaac7ac7b57eb048c8,65af5608ca620457d06d58c2,2024-01-23_08h25.35.571,bars,2023.2.3,Win32,59.88023952,657b66ea316d21385b68909f,,,,,,,,,,,,,,,,,,,,,,,,,,,,,,,,,,,,,,,,,,,,,,,,,,,,,,,,,,,,211.7476,228.7481,space,16.9869,,,,,,,,,,,,,,,,,,,,,,,,,,,,,,,,,,,,,
,,5f3ccceaac7ac7b57eb048c8,65af5608ca620457d06d58c2,2024-01-23_08h25.35.571,bars,2023.2.3,Win32,59.88023952,657b66ea316d21385b68909f,,,,,,,,,,,229.9869,230.9796,,,231.4799,231.7295,,99,99,,,,,,,,,,,,,,,,bars/002.png,bars/mask004.png,,,,,,,,,,,,2,2,,,,,,,3,2,6,4,,,,,,228.764,229.9808,space,1.1948,,230.98,231.4798,231.7298,235.6629,space,3.9164,,235.6632,31,14,236.6628,236.6631,248.9961,space,12.3083,,0,0,0,0,1,130,85,,,,,,,,
,,5f3ccceaac7ac7b57eb048c8,65af5608ca620457d06d58c2,2024-01-23_08h25.35.571,bars,2023.2.3,Win32,59.88023952,657b66ea316d21385b68909f,,,,,,,,,,,249.0073,249.9957,,,250.4955,250.7449,,83,83,,,,,,,,,,,,,,,,bars/042.png,bars/mask004.png,,,,,,,,,,,,3,2,,,,,,,1,4,1,4,,,,,,,,,,,249.9958,250.4954,250.7451,256.2789,space,5.5168,,256.2791,62,8,257.2783,257.2784,263.2454,space,5.9319,,0,1,1,1,1,145,75,,,,,,,,
,,5f3ccceaac7ac7b57eb048c8,65af5608ca620457d06d58c2,2024-01-23_08h25.35.571,bars,2023.2.3,Win32,59.88023952,657b66ea316d21385b68909f,,,,,,,,,,,263.2559,264.2444,,,264.7449,264.9945,,141,141,,,,,,,,,,,,,,,,bars/000.png,bars/mask005.png,,,,,,,,,,,,4,2,,,,,,,3,6,4,5,,,,,,,,,,,264.2445,264.7448,264.9949,267.8775,space,2.8714,,267.8776,79,4,268.878,268.878,272.6943,space,3.7824,,0,2,2,2,1,40,145,,,,,,,,
,,5f3ccceaac7ac7b57eb048c8,65af5608ca620457d06d58c2,2024-01-23_08h25.35.571,bars,2023.2.3,Win32,59.88023952,657b66ea316d21385b68909f,,,,,,,,,,,272.7052,273.6939,,,274.1943,274.4463,,125,125,,,,,,,,,,,,,,,,bars/041.png,bars/mask004.png,,,,,,,,,,,,0,2,,,,,,,5,4,5,4,,,,,,,,,,,273.694,274.1942,274.4464,279.2612,space,4.8001,,279.2613,75,40,280.2604,280.2604,283.5625,space,3.2748,,0,3,3,3,1,20,85,,,,,,,,
,,5f3ccceaac7ac7b57eb048c8,65af5608ca620457d06d58c2,2024-01-23_08h25.35.571,bars,2023.2.3,Win32,59.88023952,657b66ea316d21385b68909f,,,,,,,,,,,283.5734,284.5771,,,285.0774,285.3273,,53,53,,,,,,,,,,,,,,,,bars/017.png,bars/mask000.png,,,,,,,,,,,,4,2,,,,,,,3,6,3,6,,,,,,,,,,,284.5771,285.0773,285.3274,290.0768,space,4.7329,,290.0769,88,8,291.0767,291.0767,471.7184,space,180.6094,,0,4,4,4,1,145,45,,,,,,,,
,,5f3ccceaac7ac7b57eb048c8,65af5608ca620457d06d58c2,2024-01-23_08h25.35.571,bars,2023.2.3,Win32,59.88023952,657b66ea316d21385b68909f,,,,,,,,,,,471.7307,472.7353,,,473.2187,473.4682,,151,-29,,,,,,,,,,,,,,,,bars/033.png,bars/mask009.png,,,,,,,,,,,,7,2,,,,,,,5,8,4,8,,,,,,,,,,,472.7354,473.2185,473.4682,477.5182,space,4.0342,,477.5184,54,4,478.5179,478.5179,1136.4873,space,657.9409,,0,5,5,5,1,25,155,,,,,,,,
,,5f3ccceaac7ac7b57eb048c8,65af5608ca620457d06d58c2,2024-01-23_08h25.35.571,bars,2023.2.3,Win32,59.88023952,657b66ea316d21385b68909f,,,,,,,,,,,1136.4995,1137.4877,,,1137.9873,1138.2369,,46,46,,,,,,,,,,,,,,,,bars/031.png,bars/mask004.png,,,,,,,,,,,,4,2,,,,,,,3,6,2,6,,,,,,,,,,,1137.4878,1137.9873,1138.2369,1140.3869,space,2.1307,,1140.387,74,11,1141.387,1141.387,1143.4564,space,2.0565,,0,6,6,6,1,120,35,,,,,,,,
,,5f3ccceaac7ac7b57eb048c8,65af5608ca620457d06d58c2,2024-01-23_08h25.35.571,bars,2023.2.3,Win32,59.88023952,657b66ea316d21385b68909f,,,,,,,,,,,1143.4569,1144.4535,,,1144.9534,1145.2034,,79,79,,,,,,,,,,,,,,,,bars/026.png,bars/mask000.png,,,,,,,,,,,,3,2,,,,,,,1,4,2,4,,,,,,,,,,,1144.4536,1144.9533,1145.2034,1149.0033,space,3.7836,,1149.0033,44,6,1150.0033,1150.0033,1151.853,space,1.8241,,0,7,7,7,1,35,85,,,,,,,,
,,5f3ccceaac7ac7b57eb048c8,65af5608ca620457d06d58c2,2024-01-23_08h25.35.571,bars,2023.2.3,Win32,59.88023952,657b66ea316d21385b68909f,,,,,,,,,,,1151.8542,1152.8538,,,1153.3532,1153.6036,,103,103,,,,,,,,,,,,,,,,bars/027.png,bars/mask005.png,,,,,,,,,,,,0,1,,,,,,,0,2,0,2,,,,,,,,,,,1152.8539,1153.3531,1153.6036,1156.3204,space,2.7008,,1156.3205,7,53,1157.3196,1157.3196,1161.3041,space,3.9427,,0,8,8,8,1,110,50,,,,,,,,
,,5f3ccceaac7ac7b57eb048c8,65af5608ca620457d06d58c2,2024-01-23_08h25.35.571,bars,2023.2.3,Win32,59.88023952,657b66ea316d21385b68909f,,,,,,,,,,,1161.3146,1162.3023,,,1162.8025,1163.0523,,158,158,,,,,,,,,,,,,,,,bars/013.png,bars/mask003.png,,,,,,,,,,,,0,2,,,,,,,0,4,0,3,,,,,,,,,,,1162.3024,1162.8024,1163.0523,1165.2357,space,2.1665,,1165.2358,83,32,1166.2376,1166.2377,1168.2955,space,2.0314,,0,9,9,9,1,75,10,,,,,,,,
,,5f3ccceaac7ac7b57eb048c8,65af5608ca620457d06d58c2,2024-01-23_08h25.35.571,bars,2023.2.3,Win32,59.88023952,657b66ea316d21385b68909f,,,,,,,,,,,1168.2962,1169.2941,,,1169.7943,1170.0441,,103,103,,,,,,,,,,,,,,,,bars/039.png,bars/mask007.png,,,,,,,,,,,,5,2,,,,,,,0,6,0,5,,,,,,,,,,,1169.2941,1169.7943,1170.0443,1173.7082,space,3.6478,,1173.7083,72,2,1174.7109,1174.711,1177.4783,space,2.7444,,0,10,10,10,1,175,105,,,,,,,,
,,5f3ccceaac7ac7b57eb048c8,65af5608ca620457d06d58c2,2024-01-23_08h25.35.571,bars,2023.2.3,Win32,59.88023952,657b66ea316d21385b68909f,,,,,,,,,,,1177.4793,1178.477,,,1178.976,1179.2272,,45,45,,,,,,,,,,,,,,,,bars/035.png,bars/mask005.png,,,,,,,,,,,,5,2,,,,,,,0,8,0,9,,,,,,,,,,,1178.4771,1178.9759,1179.2273,1181.7107,space,2.4675,,1181.7108,50,15,1182.7104,1182.7105,1184.7281,space,2.0003,,0,11,11,11,1,175,60,,,,,,,,
,,5f3ccceaac7ac7b57eb048c8,65af5608ca620457d06d58c2,2024-01-23_08h25.35.571,bars,2023.2.3,Win32,59.88023952,657b66ea316d21385b68909f,,,,,,,,,,,1184.7288,1185.7221,,,1186.2098,1186.4608,,33,33,,,,,,,,,,,,,,,,bars/010.png,bars/mask005.png,,,,,,,,,,,,2,2,,,,,,,2,10,2,9,,,,,,,,,,,1185.7221,1186.2098,1186.4608,1193.4101,space,6.9332,,1193.4102,48,22,1194.4099,1194.41,1195.5441,space,1.1127,,0,12,12,12,1,165,55,,,,,,,,
,,5f3ccceaac7ac7b57eb048c8,65af5608ca620457d06d58c2,2024-01-23_08h25.35.571,bars,2023.2.3,Win32,59.88023952,657b66ea316d21385b68909f,,,,,,,,,,,1195.5449,1196.5429,,,1197.0428,1197.2937,,133,133,,,,,,,,,,,,,,,,bars/043.png,bars/mask005.png,,,,,,,,,,,,9,2,,,,,,,0,10,0,10,,,,,,,,,,,1196.543,1197.0428,1197.2938,1200.2935,space,2.9838,,1200.2935,77,3,1201.2914,1201.2915,1203.3768,space,2.064,,0,13,13,13,1,30,130,,,,,,,,
,,5f3ccceaac7ac7b57eb048c8,65af5608ca620457d06d58c2,2024-01-23_08h25.35.571,bars,2023.2.3,Win32,59.88023952,657b66ea316d21385b68909f,,,,,,,,,,,1203.3775,1204.3763,,,1204.8763,1205.1264,,43,43,,,,,,,,,,,,,,,,bars/010.png,bars/mask002.png,,,,,,,,,,,,6,2,,,,,,,0,10,0,10,,,,,,,,,,,1204.3763,1204.8762,1205.1265,1207.8935,space,2.751,,1207.8935,58,12,1208.8923,1208.8923,1209.3932,space,0.4783,,0,14,14,14,1,165,55,,,,,,,,
,,5f3ccceaac7ac7b57eb048c8,65af5608ca620457d06d58c2,2024-01-23_08h25.35.571,bars,2023.2.3,Win32,59.88023952,657b66ea316d21385b68909f,,,,,,,,,,,1209.3936,1210.3926,,,1210.8931,1211.1423,,133,133,,,,,,,,,,,,,,,,bars/044.png,bars/mask007.png,,,,,,,,,,,,2,2,,,,,,,2,8,3,8,,,,,,,,,,,1210.3927,1210.893,1211.1424,1215.9935,space,4.8347,,1215.9937,58,22,1216.9905,1216.9906,1217.4932,space,0.4805,,0,15,15,15,1,75,155,,,,,,,,
,,5f3ccceaac7ac7b57eb048c8,65af5608ca620457d06d58c2,2024-01-23_08h25.35.571,bars,2023.2.3,Win32,59.88023952,657b66ea316d21385b68909f,,,,,,,,,,,1217.4938,1218.4893,,,1218.9912,1219.2423,,43,43,,,,,,,,,,,,,,,,bars/025.png,bars/mask000.png,,,,,,,,,,,,5,2,,,,,,,0,6,0,5,,,,,,,,,,,1218.4894,1218.9912,1219.2424,1222.601,space,3.3422,,1222.6011,62,3,1223.608,1223.6082,1228.0331,space,4.4041,,0,16,16,16,1,105,40,,,,,,,,
,,5f3ccceaac7ac7b57eb048c8,65af5608ca620457d06d58c2,2024-01-23_08h25.35.571,bars,2023.2.3,Win32,59.88023952,657b66ea316d21385b68909f,,,,,,,,,,,1228.044,1229.0404,,,1229.542,1229.7915,,42,42,,,,,,,,,,,,,,,,bars/027.png,bars/mask004.png,,,,,,,,,,,,2,2,,,,,,,2,4,2,3,,,,,,,,,,,1229.0406,1229.5418,1229.7915,1231.8587,space,2.051,,1231.8589,68,8,1232.8578,1232.8578,1233.9259,space,1.0501,,0,17,17,17,1,110,50,,,,,,,,
,,5f3ccceaac7ac7b57eb048c8,65af5608ca620457d06d58c2,2024-01-23_08h25.35.571,bars,2023.2.3,Win32,59.88023952,657b66ea316d21385b68909f,,,,,,,,,,,1233.9266,1234.9246,,,1235.4247,1235.6753,,60,60,,,,,,,,,,,,,,,,bars/018.png,bars/mask009.png,,,,,,,,,,,,0,2,,,,,,,0,6,1,7,,,,,,,,,,,1234.9246,1235.4246,1235.6754,1238.6088,space,2.9173,,1238.609,90,30,1239.6074,1239.6075,1240.3759,space,0.7472,,0,18,18,18,1,150,90,,,,,,,,
,,5f3ccceaac7ac7b57eb048c8,65af5608ca620457d06d58c2,2024-01-23_08h25.35.571,bars,2023.2.3,Win32,59.88023952,657b66ea316d21385b68909f,,,,,,,,,,,1240.3762,1241.3665,,,1241.8574,1242.1082,,80,80,,,,,,,,,,,,,,,,bars/011.png,bars/mask000.png,,,,,,,,,,,,7,2,,,,,,,2,8,2,8,,,,,,,,,,,1241.3666,1241.8574,1242.1082,1247.0247,space,4.9004,,1247.0247,80,5,1248.0222,1248.0223,1250.6916,space,2.6481,,0,19,19,19,1,160,85,,,,,,,,
,,5f3ccceaac7ac7b57eb048c8,65af5608ca620457d06d58c2,2024-01-23_08h25.35.571,bars,2023.2.3,Win32,59.88023952,657b66ea316d21385b68909f,,,,,,,,,,,1250.6924,1251.6892,,,1252.1918,1252.4399,,83,83,,,,,,,,,,,,,,,,bars/023.png,bars/mask003.png,,,,,,,,,,,,0,2,,,,,,,4,6,4,8,,,,,,,,,,,1251.6892,1252.1917,1252.4401,1256.9657,space,4.5003,,1256.9658,63,32,1257.9653,1257.9654,1259.0996,space,1.107,,0,20,20,20,1,20,115,,,,,,,,
,,5f3ccceaac7ac7b57eb048c8,65af5608ca620457d06d58c2,2024-01-23_08h25.35.571,bars,2023.2.3,Win32,59.88023952,657b66ea316d21385b68909f,,,,,,,,,,,1259.1001,1260.0982,,,1260.5989,1260.849,,12,12,,,,,,,,,,,,,,,,bars/045.png,bars/mask007.png,,,,,,,,,,,,4,2,,,,,,,6,4,6,4,,,,,,,,,,,1260.0983,1260.5988,1260.849,1265.9154,space,5.051,,1265.9155,88,2,1266.9154,1266.9154,1268.2322,space,1.2929,,0,21,21,21,1,100,10,,,,,,,,
,,5f3ccceaac7ac7b57eb048c8,65af5608ca620457d06d58c2,2024-01-23_08h25.35.571,bars,2023.2.3,Win32,59.88023952,657b66ea316d21385b68909f,,,,,,,,,,,1268.2326,1269.2317,,,1269.7317,1269.9815,,86,86,,,,,,,,,,,,,,,,bars/027.png,bars/mask003.png,,,,,,,,,,,,2,1,,,,,,,8,2,8,2,,,,,,,,,,,1269.2317,1269.7317,1269.9815,1272.9154,space,2.9173,,1272.9154,24,36,1273.9149,1273.9149,1275.4151,space,1.4695,,0,22,22,22,1,110,50,,,,,,,,
,,5f3ccceaac7ac7b57eb048c8,65af5608ca620457d06d58c2,2024-01-23_08h25.35.571,bars,2023.2.3,Win32,59.88023952,657b66ea316d21385b68909f,,,,,,,,,,,1275.4156,1276.4148,,,1276.915,1277.1656,,42,42,,,,,,,,,,,,,,,,bars/044.png,bars/mask004.png,,,,,,,,,,,,0,1,,,,,,,6,4,6,6,,,,,,,,,,,1276.415,1276.915,1277.1657,1280.665,space,3.4837,,1280.665,33,67,1281.6648,1281.6648,1283.616,space,1.9293,,0,23,23,23,1,75,155,,,,,,,,
,,5f3ccceaac7ac7b57eb048c8,65af5608ca620457d06d58c2,2024-01-23_08h25.35.571,bars,2023.2.3,Win32,59.88023952,657b66ea316d21385b68909f,,,,,,,,,,,1283.6164,1284.6142,,,1285.1149,1285.3645,,13,193,,,,,,,,,,,,,,,,bars/009.png,bars/mask006.png,,,,,,,,,,,,3,1,,,,,,,4,2,3,1,,,,,,,,,,,1284.6143,1285.1148,1285.3645,1287.7478,space,2.3722,,1287.7478,2,88,1288.7474,1288.7474,1290.431,space,1.6559,,0,24,24,24,1,15,105,,,,,,,,
,,5f3ccceaac7ac7b57eb048c8,65af5608ca620457d06d58c2,2024-01-23_08h25.35.571,bars,2023.2.3,Win32,59.88023952,657b66ea316d21385b68909f,,,,,,,,,,,1290.4315,1291.4309,,,1291.9308,1292.1804,,165,-15,,,,,,,,,,,,,,,,bars/033.png,bars/mask004.png,,,,,,,,,,,,1,2,,,,,,,2,4,2,2,,,,,,,,,,,1291.4309,1291.9308,1292.1805,1295.7474,space,3.5538,,1295.7475,40,10,1296.7472,1296.7473,1297.9657,space,1.1927,,0,25,25,25,1,25,155,,,,,,,,
,,5f3ccceaac7ac7b57eb048c8,65af5608ca620457d06d58c2,2024-01-23_08h25.35.571,bars,2023.2.3,Win32,59.88023952,657b66ea316d21385b68909f,,,,,,,,,,,1297.9662,1298.9638,,,1299.4639,1299.7138,,64,64,,,,,,,,,,,,,,,,bars/046.png,bars/mask009.png,,,,,,,,,,,,2,2,,,,,,,4,6,4,6,,,,,,,,,,,1298.964,1299.4639,1299.7138,1302.297,space,2.5692,,1302.2971,89,21,1303.2968,1303.2968,1304.4139,space,1.09,,0,26,26,26,1,155,85,,,,,,,,
,,5f3ccceaac7ac7b57eb048c8,65af5608ca620457d06d58c2,2024-01-23_08h25.35.571,bars,2023.2.3,Win32,59.88023952,657b66ea316d21385b68909f,,,,,,,,,,,1304.4144,1305.4136,,,1305.9136,1306.1634,,61,61,,,,,,,,,,,,,,,,bars/007.png,bars/mask006.png,,,,,,,,,,,,1,2,,,,,,,2,4,1,1,,,,,,,,,,,1305.4137,1305.9135,1306.1635,1308.7967,space,2.6167,,1308.7968,66,6,1309.7969,1309.7969,1310.9638,space,1.1384,,0,27,27,27,1,175,55,,,,,,,,
,,5f3ccceaac7ac7b57eb048c8,65af5608ca620457d06d58c2,2024-01-23_08h25.35.571,bars,2023.2.3,Win32,59.88023952,657b66ea316d21385b68909f,,,,,,,,,,,1310.9643,1311.9632,,,1312.4633,1312.7132,,98,98,,,,,,,,,,,,,,,,bars/026.png,bars/mask002.png,,,,,,,,,,,,2,2,,,,,,,4,2,5,3,,,,,,,,,,,1311.9633,1312.4633,1312.7132,1316.0318,space,3.3097,,1316.0319,63,13,1317.0295,1317.0296,1318.0797,space,1.019,,0,28,28,28,1,35,85,,,,,,,,
,,5f3ccceaac7ac7b57eb048c8,65af5608ca620457d06d58c2,2024-01-23_08h25.35.571,bars,2023.2.3,Win32,59.88023952,657b66ea316d21385b68909f,,,,,,,,,,,1318.0801,1319.0802,,,1319.5797,1319.8293,,40,40,,,,,,,,,,,,,,,,bars/035.png,bars/mask008.png,,,,,,,,,,,,0,2,,,,,,,2,0,3,0,,,,,,,,,,,1319.0802,1319.5796,1319.8293,1322.3462,space,2.5071,,1322.3462,45,20,1323.3463,1323.3463,1324.0798,space,0.7129,,0,29,29,29,1,175,60,,,,,,,,
,,5f3ccceaac7ac7b57eb048c8,65af5608ca620457d06d58c2,2024-01-23_08h25.35.571,bars,2023.2.3,Win32,59.88023952,657b66ea316d21385b68909f,,,,,,,,,,,1324.0802,1325.079,,,1325.5791,1325.8297,,163,163,,,,,,,,,,,,,,,,bars/001.png,bars/mask002.png,,,,,,,,,,,,0,1,,,,,,,0,0,2,0,,,,,,,,,,,1325.079,1325.5791,1325.8298,1327.5137,space,1.6752,,1327.5137,33,78,1328.5128,1328.5128,1329.9123,space,1.3645,,0,30,30,30,1,130,85,,,,,,,,
,,5f3ccceaac7ac7b57eb048c8,65af5608ca620457d06d58c2,2024-01-23_08h25.35.571,bars,2023.2.3,Win32,59.88023952,657b66ea316d21385b68909f,,,,,,,,,,,1329.9128,1330.9121,,,1331.4123,1331.6623,,110,110,,,,,,,,,,,,,,,,bars/023.png,bars/mask007.png,,,,,,,,,,,,0,2,,,,,,,2,0,1,0,,,,,,,,,,,1330.9121,1331.4122,1331.6623,1334.3288,space,2.6508,,1334.3289,90,5,1335.3288,1335.3289,1336.8459,space,1.4852,,0,31,31,31,1,20,115,,,,,,,,
,,5f3ccceaac7ac7b57eb048c8,65af5608ca620457d06d58c2,2024-01-23_08h25.35.571,bars,2023.2.3,Win32,59.88023952,657b66ea316d21385b68909f,,,,,,,,,,,1336.8464,1337.845,,,1338.3455,1338.5953,,169,-11,,,,,,,,,,,,,,,,bars/033.png,bars/mask005.png,,,,,,,,,,,,0,2,,,,,,,0,0,0,0,,,,,,,,,,,1337.8451,1338.3454,1338.5954,1341.4454,space,2.8335,,1341.4454,36,14,1342.4451,1342.4452,1343.2119,space,0.7418,,0,32,32,32,1,25,155,,,,,,,,
,,5f3ccceaac7ac7b57eb048c8,65af5608ca620457d06d58c2,2024-01-23_08h25.35.571,bars,2023.2.3,Win32,59.88023952,657b66ea316d21385b68909f,,,,,,,,,,,1343.2126,1344.2115,,,1344.7114,1344.9615,,109,109,,,,,,,,,,,,,,,,bars/009.png,bars/mask001.png,,,,,,,,,,,,2,2,,,,,,,0,2,0,2,,,,,,,,,,,1344.2115,1344.7114,1344.9615,1350.4287,space,5.4498,,1350.4288,86,4,1351.4288,1351.4288,1352.2449,space,0.7875,,0,33,33,33,1,15,105,,,,,,,,
,,5f3ccceaac7ac7b57eb048c8,65af5608ca620457d06d58c2,2024-01-23_08h25.35.571,bars,2023.2.3,Win32,59.88023952,657b66ea316d21385b68909f,,,,,,,,,,,1352.2454,1353.2447,,,1353.7445,1353.995,,105,105,,,,,,,,,,,,,,,,bars/006.png,bars/mask002.png,,,,,,,,,,,,1,2,,,,,,,2,0,2,1,,,,,,,,,,,1353.2447,1353.7445,1353.9951,1358.1277,space,4.1168,,1358.1278,70,5,1359.1277,1359.128,1360.0449,space,0.8885,,0,34,34,34,1,35,100,,,,,,,,
,,5f3ccceaac7ac7b57eb048c8,65af5608ca620457d06d58c2,2024-01-23_08h25.35.571,bars,2023.2.3,Win32,59.88023952,657b66ea316d21385b68909f,,,,,,,,,,,1360.0453,1361.0441,,,1361.5444,1361.7954,,99,99,,,,,,,,,,,,,,,,bars/049.png,bars/mask004.png,,,,,,,,,,,,0,2,,,,,,,0,2,0,1,,,,,,,,,,,1361.0442,1361.5443,1361.7954,1364.0107,space,2.2035,,1364.0108,61,16,1365.0105,1365.0105,1365.3609,space,0.3208,,0,35,35,35,1,160,115,,,,,,,,
,,5f3ccceaac7ac7b57eb048c8,65af5608ca620457d06d58c2,2024-01-23_08h25.35.571,bars,2023.2.3,Win32,59.88023952,657b66ea316d21385b68909f,,,,,,,,,,,1365.362,1366.3609,,,1366.8618,1367.1103,,96,96,,,,,,,,,,,,,,,,bars/049.png,bars/mask001.png,,,,,,,,,,,,0,2,,,,,,,2,0,3,0,,,,,,,,,,,1366.361,1366.8617,1367.1103,1370.7609,space,3.6366,,1370.7609,64,19,1371.761,1371.7612,1372.694,space,0.9075,,0,36,36,36,1,160,115,,,,,,,,
,,5f3ccceaac7ac7b57eb048c8,65af5608ca620457d06d58c2,2024-01-23_08h25.35.571,bars,2023.2.3,Win32,59.88023952,657b66ea316d21385b68909f,,,,,,,,,,,1372.6946,1373.6937,,,1374.1944,1374.4441,,69,69,,,,,,,,,,,,,,,,bars/030.png,bars/mask006.png,,,,,,,,,,,,1,2,,,,,,,4,2,5,1,,,,,,,,,,,1373.6937,1374.1943,1374.4441,1380.36,space,5.9,,1380.3601,71,4,1381.3601,1381.3602,1383.2105,space,1.8219,,0,37,37,37,1,140,65,,,,,,,,
,,5f3ccceaac7ac7b57eb048c8,65af5608ca620457d06d58c2,2024-01-23_08h25.35.571,bars,2023.2.3,Win32,59.88023952,657b66ea316d21385b68909f,,,,,,,,,,,1383.2112,1384.2098,,,1384.7097,1384.9599,,67,247,,,,,,,,,,,,,,,,bars/022.png,bars/mask000.png,,,,,,,,,,,,0,1,,,,,,,2,4,2,5,,,,,,,,,,,1384.2098,1384.7097,1384.9599,1391.0933,space,6.1167,,1391.0933,28,47,1392.093,1392.0931,1393.1933,space,1.0651,,0,38,38,38,1,95,20,,,,,,,,
,,5f3ccceaac7ac7b57eb048c8,65af5608ca620457d06d58c2,2024-01-23_08h25.35.571,bars,2023.2.3,Win32,59.88023952,657b66ea316d21385b68909f,,,,,,,,,,,1393.1937,1394.1939,,,1394.693,1394.9425,,95,95,,,,,,,,,,,,,,,,bars/023.png,bars/mask006.png,,,,,,,,,,,,2,2,,,,,,,4,6,3,6,,,,,,,,,,,1394.1939,1394.6929,1394.9425,1398.6448,space,3.6832,,1398.6449,75,20,1399.6424,1399.6425,1400.7782,space,1.1096,,0,39,39,39,1,20,115,,,,,,,,
,,5f3ccceaac7ac7b57eb048c8,65af5608ca620457d06d58c2,2024-01-23_08h25.35.571,bars,2023.2.3,Win32,59.88023952,657b66ea316d21385b68909f,,,,,,,,,,,1400.7786,1401.7759,,,1402.2759,1402.5257,,53,53,,,,,,,,,,,,,,,,bars/047.png,bars/mask002.png,,,,,,,,,,,,1,2,,,,,,,2,4,1,3,,,,,,,,,,,1401.7759,1402.2759,1402.5257,1407.1926,space,4.6552,,1407.1926,38,17,1408.1921,1408.1922,1409.7092,space,1.4888,,0,40,40,40,1,15,70,,,,,,,,
,,5f3ccceaac7ac7b57eb048c8,65af5608ca620457d06d58c2,2024-01-23_08h25.35.571,bars,2023.2.3,Win32,59.88023952,657b66ea316d21385b68909f,,,,,,,,,,,1409.7097,1410.7084,,,1411.2085,1411.4584,,52,52,,,,,,,,,,,,,,,,bars/007.png,bars/mask008.png,,,,,,,,,,,,2,2,,,,,,,4,2,3,2,,,,,,,,,,,1410.7084,1411.2085,1411.4584,1413.4918,space,2.0184,,1413.4919,57,3,1414.4922,1414.4923,1416.075,space,1.5521,,0,41,41,41,1,175,55,,,,,,,,
,,5f3ccceaac7ac7b57eb048c8,65af5608ca620457d06d58c2,2024-01-23_08h25.35.571,bars,2023.2.3,Win32,59.88023952,657b66ea316d21385b68909f,,,,,,,,,,,1416.0762,1417.0741,,,1417.5742,1417.8242,,57,57,,,,,,,,,,,,,,,,bars/029.png,bars/mask009.png,,,,,,,,,,,,1,2,,,,,,,6,0,7,1,,,,,,,,,,,1417.0741,1417.5742,1417.8242,1422.6432,space,4.8089,,1422.6432,33,12,1423.6404,1423.6404,1425.4242,space,1.7565,,0,42,42,42,1,90,45,,,,,,,,
,,5f3ccceaac7ac7b57eb048c8,65af5608ca620457d06d58c2,2024-01-23_08h25.35.571,bars,2023.2.3,Win32,59.88023952,657b66ea316d21385b68909f,,,,,,,,,,,1425.4245,1426.424,,,1426.9243,1427.1739,,71,71,,,,,,,,,,,,,,,,bars/012.png,bars/mask003.png,,,,,,,,,,,,2,1,,,,,,,4,0,6,0,,,,,,,,,,,1426.424,1426.9243,1427.1739,1431.89,space,4.7008,,1431.8901,19,56,1432.8906,1432.8908,1433.8777,space,0.9621,,0,43,43,43,1,90,15,,,,,,,,
,,5f3ccceaac7ac7b57eb048c8,65af5608ca620457d06d58c2,2024-01-23_08h25.35.571,bars,2023.2.3,Win32,59.88023952,657b66ea316d21385b68909f,,,,,,,,,,,1433.8784,1434.8735,,,1435.3735,1435.6234,,138,138,,,,,,,,,,,,,,,,bars/018.png,bars/mask003.png,,,,,,,,,,,,1,1,,,,,,,2,0,2,0,,,,,,,,,,,1434.8736,1435.3734,1435.6234,1436.9737,space,1.3341,,1436.9738,12,48,1437.9733,1437.9734,1438.7573,space,0.7586,,0,44,44,44,1,150,90,,,,,,,,
,,5f3ccceaac7ac7b57eb048c8,65af5608ca620457d06d58c2,2024-01-23_08h25.35.571,bars,2023.2.3,Win32,59.88023952,657b66ea316d21385b68909f,,,,,,,,,,,1438.7579,1439.7567,,,1440.2567,1440.5066,,49,49,,,,,,,,,,,,,,,,bars/013.png,bars/mask001.png,,,,,,,,,,,,0,1,,,,,,,0,0,0,2,,,,,,,,,,,1439.7567,1440.2567,1440.5066,1443.273,space,2.7507,,1443.273,26,39,1444.2732,1444.2733,1445.3733,space,1.0748,,0,45,45,45,1,75,10,,,,,,,,
,,5f3ccceaac7ac7b57eb048c8,65af5608ca620457d06d58c2,2024-01-23_08h25.35.571,bars,2023.2.3,Win32,59.88023952,657b66ea316d21385b68909f,,,,,,,,,,,1445.3743,1446.3726,,,1446.8732,1447.1232,,43,43,,,,,,,,,,,,,,,,bars/047.png,bars/mask008.png,,,,,,,,,,,,0,2,,,,,,,2,2,2,1,,,,,,,,,,,1446.3727,1446.8732,1447.1232,1450.023,space,2.8868,,1450.023,28,27,1451.0229,1451.023,1452.6728,space,1.6201,,0,46,46,46,1,15,70,,,,,,,,
,,5f3ccceaac7ac7b57eb048c8,65af5608ca620457d06d58c2,2024-01-23_08h25.35.571,bars,2023.2.3,Win32,59.88023952,657b66ea316d21385b68909f,,,,,,,,,,,1452.6736,1453.6728,,,1454.1727,1454.4225,,76,76,,,,,,,,,,,,,,,,bars/031.png,bars/mask005.png,,,,,,,,,,,,0,2,,,,,,,4,0,5,1,,,,,,,,,,,1453.6729,1454.1725,1454.4227,1457.9904,space,3.5493,,1457.9905,44,41,1458.989,1458.9891,1461.3057,space,2.2927,,0,47,47,47,1,120,35,,,,,,,,
,,5f3ccceaac7ac7b57eb048c8,65af5608ca620457d06d58c2,2024-01-23_08h25.35.571,bars,2023.2.3,Win32,59.88023952,657b66ea316d21385b68909f,,,,,,,,,,,1461.3066,1462.3054,,,1462.8056,1463.0554,,127,127,,,,,,,,,,,,,,,,bars/022.png,bars/mask006.png,,,,,,,,,,,,0,1,,,,,,,6,2,7,3,,,,,,,,,,,1462.3054,1462.8055,1463.0554,1465.1391,space,2.0721,,1465.1391,32,73,1466.1391,1466.1391,1467.7647,space,1.5981,,0,48,48,48,1,95,20,,,,,,,,
,,5f3ccceaac7ac7b57eb048c8,65af5608ca620457d06d58c2,2024-01-23_08h25.35.571,bars,2023.2.3,Win32,59.88023952,657b66ea316d21385b68909f,,,,,,,,,,,1467.7652,1468.7635,,,1469.2643,1469.5141,,52,52,,,,,,,,,,,,,,,,bars/025.png,bars/mask003.png,,,,,,,,,,,,2,2,,,,,,,4,4,3,4,,,,,,,,,,,1468.7635,1469.2642,1469.5142,1473.3487,space,3.8185,,1473.3488,53,12,1474.3389,1474.3389,1475.3722,space,1.0007,,0,49,49,49,1,105,40,,,,,,,,
,,5f3ccceaac7ac7b57eb048c8,65af5608ca620457d06d58c2,2024-01-23_08h25.35.571,bars,2023.2.3,Win32,59.88023952,657b66ea316d21385b68909f,,,,,,,,,,,,,,,,,,,,,,,,,,,,,,,,,,,,,,,,,,,,,,,,,,,,,,,,,,,,,,,,,,,,,,,,,,,,,,,,,,,,,,,,,,,,,1475.3731,1535.3702,0,0,0,1,1,sequence_tables/blk023.csv
,,5f3ccceaac7ac7b57eb048c8,65af5608ca620457d06d58c2,2024-01-23_08h25.35.571,bars,2023.2.3,Win32,59.88023952,657b66ea316d21385b68909f,,,,,,,,,,,1538.2276,1539.2195,,,1539.7191,1539.9695,,58,58,,,,,,,,,,,,,,,,bars/048.png,bars/mask003.png,,,,,,,,,,,,7,1,,,,,,,8,7,10,8,,,,,,1535.3825,1538.2193,space,2.818,,1539.2195,1539.7191,1539.9695,1544.986,space,5.0039,,1544.9861,8,63,1545.9858,1545.9858,1545.9976,,,,0,0,0,0,1,50,175,,,,,,,,
,,5f3ccceaac7ac7b57eb048c8,65af5608ca620457d06d58c2,2024-01-23_08h25.35.571,bars,2023.2.3,Win32,59.88023952,657b66ea316d21385b68909f,,,,,,,,,,,1545.9979,1546.9862,,,1547.4858,1547.7355,,99,99,,,,,,,,,,,,,,,,bars/038.png,bars/mask006.png,,,,,,,,,,,,0,2,,,,,,,6,5,6,4,,,,,,,,,,,1546.9863,1547.4858,1547.7355,1550.7032,space,2.9591,,1550.7033,66,29,1551.7022,1551.7022,1551.7146,,,,0,1,1,1,1,165,70,,,,,,,,
,,5f3ccceaac7ac7b57eb048c8,65af5608ca620457d06d58c2,2024-01-23_08h25.35.571,bars,2023.2.3,Win32,59.88023952,657b66ea316d21385b68909f,,,,,,,,,,,1551.7149,1552.7188,,,1553.2188,1553.469,,153,-27,,,,,,,,,,,,,,,,bars/000.png,bars/mask008.png,,,,,,,,,,,,7,2,,,,,,,8,7,8,9,,,,,,,,,,,1552.7189,1553.2187,1553.4691,1558.9021,space,5.4186,,1558.9022,67,8,1559.9018,1559.9018,1559.9132,,,,0,2,2,2,1,40,145,,,,,,,,
,,5f3ccceaac7ac7b57eb048c8,65af5608ca620457d06d58c2,2024-01-23_08h25.35.571,bars,2023.2.3,Win32,59.88023952,657b66ea316d21385b68909f,,,,,,,,,,,1559.9135,1560.9014,,,1561.4042,1561.6522,,138,138,,,,,,,,,,,,,,,,bars/004.png,bars/mask005.png,,,,,,,,,,,,2,2,,,,,,,10,5,9,4,,,,,,,,,,,1560.9015,1561.4041,1561.6523,1564.1186,space,2.4553,,1564.1186,67,13,1565.1182,1565.1183,1565.1191,,,,0,3,3,3,1,25,125,,,,,,,,
,,5f3ccceaac7ac7b57eb048c8,65af5608ca620457d06d58c2,2024-01-23_08h25.35.571,bars,2023.2.3,Win32,59.88023952,657b66ea316d21385b68909f,,,,,,,,,,,1565.1193,1566.1178,,,1566.6181,1566.8687,,150,150,,,,,,,,,,,,,,,,bars/020.png,bars/mask008.png,,,,,,,,,,,,3,2,,,,,,,10,7,10,8,,,,,,,,,,,1566.1179,1566.6181,1566.8687,1570.5355,space,3.6586,,1570.5355,35,20,1571.535,1571.535,1571.5456,,,,0,4,4,4,1,115,170,,,,,,,,
,,5f3ccceaac7ac7b57eb048c8,65af5608ca620457d06d58c2,2024-01-23_08h25.35.571,bars,2023.2.3,Win32,59.88023952,657b66ea316d21385b68909f,,,,,,,,,,,1571.5459,1572.5343,,,1573.0345,1573.2845,,166,166,,,,,,,,,,,,,,,,bars/016.png,bars/mask005.png,,,,,,,,,,,,6,2,,,,,,,10,5,10,6,,,,,,,,,,,1572.5343,1573.0345,1573.2846,1575.9847,space,2.684,,1575.9847,54,1,1576.9842,1576.9842,1576.995,,,,0,5,5,5,1,40,165,,,,,,,,
,,5f3ccceaac7ac7b57eb048c8,65af5608ca620457d06d58c2,2024-01-23_08h25.35.571,bars,2023.2.3,Win32,59.88023952,657b66ea316d21385b68909f,,,,,,,,,,,1576.9953,1577.9842,,,1578.4842,1578.7341,,151,151,,,,,,,,,,,,,,,,bars/003.png,bars/mask002.png,,,,,,,,,,,,4,2,,,,,,,10,7,10,7,,,,,,,,,,,1577.9843,1578.4842,1578.7341,1580.8343,space,2.0838,,1580.8344,54,11,1581.8339,1581.834,1581.845,,,,0,6,6,6,1,25,140,,,,,,,,
,,5f3ccceaac7ac7b57eb048c8,65af5608ca620457d06d58c2,2024-01-23_08h25.35.571,bars,2023.2.3,Win32,59.88023952,657b66ea316d21385b68909f,,,,,,,,,,,1581.8453,1582.834,,,1583.334,1583.5839,,49,49,,,,,,,,,,,,,,,,bars/011.png,bars/mask005.png,,,,,,,,,,,,0,2,,,,,,,10,5,9,7,,,,,,,,,,,1582.834,1583.3339,1583.584,1586.2688,space,2.6765,,1586.2688,69,36,1587.2676,1587.2677,1587.2786,,,,0,7,7,7,1,160,85,,,,,,,,
,,5f3ccceaac7ac7b57eb048c8,65af5608ca620457d06d58c2,2024-01-23_08h25.35.571,bars,2023.2.3,Win32,59.88023952,657b66ea316d21385b68909f,,,,,,,,,,,1587.279,1588.267,,,1588.7676,1589.0173,,103,103,,,,,,,,,,,,,,,,bars/023.png,bars/mask009.png,,,,,,,,,,,,2,2,,,,,,,8,3,9,3,,,,,,,,,,,1588.267,1588.7676,1589.0175,1592.9838,space,3.9504,,1592.9839,83,12,1593.9836,1593.9837,1593.9946,,,,0,8,8,8,1,20,115,,,,,,,,
,,5f3ccceaac7ac7b57eb048c8,65af5608ca620457d06d58c2,2024-01-23_08h25.35.571,bars,2023.2.3,Win32,59.88023952,657b66ea316d21385b68909f,,,,,,,,,,,1593.9948,1594.9833,,,1595.4835,1595.7335,,63,63,,,,,,,,,,,,,,,,bars/022.png,bars/mask000.png,,,,,,,,,,,,0,1,,,,,,,6,1,7,0,,,,,,,,,,,1594.9833,1595.4834,1595.7336,1600.1688,space,4.4265,,1600.1688,32,43,1601.1666,1601.1666,1601.1787,,,,0,9,9,9,1,95,20,,,,,,,,
,,5f3ccceaac7ac7b57eb048c8,65af5608ca620457d06d58c2,2024-01-23_08h25.35.571,bars,2023.2.3,Win32,59.88023952,657b66ea316d21385b68909f,,,,,,,,,,,1601.1791,1602.1835,,,1602.6832,1602.933,,106,106,,,,,,,,,,,,,,,,bars/006.png,bars/mask002.png,,,,,,,,,,,,3,2,,,,,,,4,3,5,4,,,,,,,,,,,1602.1836,1602.6832,1602.9331,1606.0672,space,3.122,,1606.0673,71,6,1607.0671,1607.0671,1607.0798,,,,0,10,10,10,1,35,100,,,,,,,,
,,5f3ccceaac7ac7b57eb048c8,65af5608ca620457d06d58c2,2024-01-23_08h25.35.571,bars,2023.2.3,Win32,59.88023952,657b66ea316d21385b68909f,,,,,,,,,,,1607.0801,1608.0826,,,1608.583,1608.8337,,45,45,,,,,,,,,,,,,,,,bars/031.png,bars/mask001.png,,,,,,,,,,,,0,2,,,,,,,6,1,5,0,,,,,,,,,,,1608.0826,1608.583,1608.8338,1614.0161,space,5.1687,,1614.0161,75,10,1615.0158,1615.0158,1615.0263,,,,0,11,11,11,1,120,35,,,,,,,,
,,5f3ccceaac7ac7b57eb048c8,65af5608ca620457d06d58c2,2024-01-23_08h25.35.571,bars,2023.2.3,Win32,59.88023952,657b66ea316d21385b68909f,,,,,,,,,,,1615.0266,1616.0158,,,1616.5158,1616.766,,73,73,,,,,,,,,,,,,,,,bars/006.png,bars/mask000.png,,,,,,,,,,,,0,2,,,,,,,8,0,9,1,,,,,,,,,,,1616.0158,1616.5158,1616.766,1622.7988,space,6.0164,,1622.7989,38,27,1623.7989,1623.7989,1623.8102,,,,0,12,12,12,1,35,100,,,,,,,,
,,5f3ccceaac7ac7b57eb048c8,65af5608ca620457d06d58c2,2024-01-23_08h25.35.571,bars,2023.2.3,Win32,59.88023952,657b66ea316d21385b68909f,,,,,,,,,,,1623.8106,1624.7985,,,1625.2987,1625.5487,,79,79,,,,,,,,,,,,,,,,bars/002.png,bars/mask002.png,,,,,,,,,,,,0,2,,,,,,,10,0,8,0,,,,,,,,,,,1624.7986,1625.2987,1625.5487,1628.8485,space,3.2834,,1628.8485,51,6,1629.8503,1629.8504,1629.8617,,,,0,13,13,13,1,130,85,,,,,,,,
,,5f3ccceaac7ac7b57eb048c8,65af5608ca620457d06d58c2,2024-01-23_08h25.35.571,bars,2023.2.3,Win32,59.88023952,657b66ea316d21385b68909f,,,,,,,,,,,1629.862,1630.865,,,1631.3652,1631.6158,,74,74,,,,,,,,,,,,,,,,bars/006.png,bars/mask000.png,,,,,,,,,,,,0,2,,,,,,,8,0,9,0,,,,,,,,,,,1630.8651,1631.3651,1631.6158,1637.1985,space,5.5672,,1637.1986,39,26,1638.1983,1638.1983,1638.2096,,,,0,14,14,14,1,35,100,,,,,,,,
,,5f3ccceaac7ac7b57eb048c8,65af5608ca620457d06d58c2,2024-01-23_08h25.35.571,bars,2023.2.3,Win32,59.88023952,657b66ea316d21385b68909f,,,,,,,,,,,1638.2099,1639.1981,,,1639.6985,1639.9481,,157,-23,,,,,,,,,,,,,,,,bars/032.png,bars/mask006.png,,,,,,,,,,,,0,1,,,,,,,6,0,5,1,,,,,,,,,,,1639.1982,1639.6984,1639.9482,1644.0483,space,4.0839,,1644.0484,32,43,1645.048,1645.048,1645.0608,,,,0,15,15,15,1,125,20,,,,,,,,
,,5f3ccceaac7ac7b57eb048c8,65af5608ca620457d06d58c2,2024-01-23_08h25.35.571,bars,2023.2.3,Win32,59.88023952,657b66ea316d21385b68909f,,,,,,,,,,,1645.0611,1646.0645,,,1646.565,1646.8156,,107,107,,,,,,,,,,,,,,,,bars/026.png,bars/mask005.png,,,,,,,,,,,,1,2,,,,,,,4,2,3,2,,,,,,,,,,,1646.0646,1646.565,1646.8156,1648.5312,space,1.7002,,1648.5313,72,22,1649.531,1649.531,1649.5433,,,,0,16,16,16,1,35,85,,,,,,,,
,,5f3ccceaac7ac7b57eb048c8,65af5608ca620457d06d58c2,2024-01-23_08h25.35.571,bars,2023.2.3,Win32,59.88023952,657b66ea316d21385b68909f,,,,,,,,,,,1649.5436,1650.5312,,,1651.0308,1651.2806,,100,100,,,,,,,,,,,,,,,,bars/037.png,bars/mask005.png,,,,,,,,,,,,1,2,,,,,,,2,0,4,1,,,,,,,,,,,1650.5312,1651.0308,1651.2806,1655.1308,space,3.8392,,1655.1308,50,5,1656.1305,1656.1306,1656.1415,,,,0,17,17,17,1,150,105,,,,,,,,
,,5f3ccceaac7ac7b57eb048c8,65af5608ca620457d06d58c2,2024-01-23_08h25.35.571,bars,2023.2.3,Win32,59.88023952,657b66ea316d21385b68909f,,,,,,,,,,,1656.1418,1657.131,,,1657.6304,1657.8804,,45,45,,,,,,,,,,,,,,,,bars/004.png,bars/mask004.png,,,,,,,,,,,,0,1,,,,,,,0,0,1,1,,,,,,,,,,,1657.131,1657.6303,1657.8805,1660.4475,space,2.551,,1660.4475,20,80,1661.4472,1661.4473,1661.4503,,,,0,18,18,18,1,25,125,,,,,,,,
,,5f3ccceaac7ac7b57eb048c8,65af5608ca620457d06d58c2,2024-01-23_08h25.35.571,bars,2023.2.3,Win32,59.88023952,657b66ea316d21385b68909f,,,,,,,,,,,1661.4507,1662.4471,,,1662.9472,1663.1968,,143,-37,,,,,,,,,,,,,,,,bars/017.png,bars/mask008.png,,,,,,,,,,,,3,1,,,,,,,2,0,3,0,,,,,,,,,,,1662.4472,1662.9472,1663.1968,1669.614,space,6.4055,,1669.614,2,82,1670.6142,1670.6142,1670.6259,,,,0,19,19,19,1,145,45,,,,,,,,
,,5f3ccceaac7ac7b57eb048c8,65af5608ca620457d06d58c2,2024-01-23_08h25.35.571,bars,2023.2.3,Win32,59.88023952,657b66ea316d21385b68909f,,,,,,,,,,,1670.6261,1671.6141,,,1672.1143,1672.3639,,36,216,,,,,,,,,,,,,,,,bars/000.png,bars/mask003.png,,,,,,,,,,,,2,1,,,,,,,4,2,2,1,,,,,,,,,,,1671.6142,1672.1142,1672.364,1675.9464,space,3.5729,,1675.9464,4,71,1676.9463,1676.9464,1676.957,,,,0,20,20,20,1,40,145,,,,,,,,
,,5f3ccceaac7ac7b57eb048c8,65af5608ca620457d06d58c2,2024-01-23_08h25.35.571,bars,2023.2.3,Win32,59.88023952,657b66ea316d21385b68909f,,,,,,,,,,,1676.9573,1677.9464,,,1678.4462,1678.6969,,108,108,,,,,,,,,,,,,,,,bars/049.png,bars/mask004.png,,,,,,,,,,,,3,2,,,,,,,2,4,4,4,,,,,,,,,,,1677.9465,1678.4462,1678.6969,1682.597,space,3.8917,,1682.5971,52,7,1683.5961,1683.5962,1683.6088,,,,0,21,21,21,1,160,115,,,,,,,,
,,5f3ccceaac7ac7b57eb048c8,65af5608ca620457d06d58c2,2024-01-23_08h25.35.571,bars,2023.2.3,Win32,59.88023952,657b66ea316d21385b68909f,,,,,,,,,,,1683.6092,1684.6127,,,1685.1127,1685.3627,,25,205,,,,,,,,,,,,,,,,bars/008.png,bars/mask008.png,,,,,,,,,,,,0,2,,,,,,,0,2,0,2,,,,,,,,,,,1684.6128,1685.1125,1685.3628,1688.513,space,3.1379,,1688.513,85,25,1689.5126,1689.5126,1689.5234,,,,0,22,22,22,1,110,0,,,,,,,,
,,5f3ccceaac7ac7b57eb048c8,65af5608ca620457d06d58c2,2024-01-23_08h25.35.571,bars,2023.2.3,Win32,59.88023952,657b66ea316d21385b68909f,,,,,,,,,,,1689.5237,1690.5123,,,1691.0128,1691.2625,,129,129,,,,,,,,,,,,,,,,bars/045.png,bars/mask009.png,,,,,,,,,,,,0,1,,,,,,,2,0,3,0,,,,,,,,,,,1690.5123,1691.0127,1691.2625,1693.7795,space,2.503,,1693.7795,29,61,1694.779,1694.7791,1694.7915,,,,0,23,23,23,1,100,10,,,,,,,,
,,5f3ccceaac7ac7b57eb048c8,65af5608ca620457d06d58c2,2024-01-23_08h25.35.571,bars,2023.2.3,Win32,59.88023952,657b66ea316d21385b68909f,,,,,,,,,,,1694.7919,1695.7952,,,1696.2958,1696.5456,,49,49,,,,,,,,,,,,,,,,bars/028.png,bars/mask007.png,,,,,,,,,,,,0,1,,,,,,,0,2,0,3,,,,,,,,,,,1695.7953,1696.2957,1696.5456,1702.212,space,5.6514,,1702.2121,4,71,1703.2115,1703.2116,1703.2222,,,,0,24,24,24,1,45,120,,,,,,,,
,,5f3ccceaac7ac7b57eb048c8,65af5608ca620457d06d58c2,2024-01-23_08h25.35.571,bars,2023.2.3,Win32,59.88023952,657b66ea316d21385b68909f,,,,,,,,,,,1703.2225,1704.2118,,,1704.7119,1704.9618,,130,130,,,,,,,,,,,,,,,,bars/034.png,bars/mask008.png,,,,,,,,,,,,0,1,,,,,,,0,4,0,4,,,,,,,,,,,1704.2118,1704.7118,1704.9618,1708.8957,space,3.9175,,1708.8958,5,65,1709.895,1709.895,1709.9068,,,,0,25,25,25,1,125,65,,,,,,,,
,,5f3ccceaac7ac7b57eb048c8,65af5608ca620457d06d58c2,2024-01-23_08h25.35.571,bars,2023.2.3,Win32,59.88023952,657b66ea316d21385b68909f,,,,,,,,,,,1709.9071,1710.8957,,,1711.396,1711.6448,,101,101,,,,,,,,,,,,,,,,bars/027.png,bars/mask002.png,,,,,,,,,,,,3,1,,,,,,,2,2,4,1,,,,,,,,,,,1710.8957,1711.3959,1711.6448,1716.5121,space,4.8522,,1716.5122,9,51,1717.5109,1717.511,1717.5225,,,,0,26,26,26,1,110,50,,,,,,,,
,,5f3ccceaac7ac7b57eb048c8,65af5608ca620457d06d58c2,2024-01-23_08h25.35.571,bars,2023.2.3,Win32,59.88023952,657b66ea316d21385b68909f,,,,,,,,,,,1717.5227,1718.5109,,,1719.0115,1719.2615,,118,118,,,,,,,,,,,,,,,,bars/032.png,bars/mask008.png,,,,,,,,,,,,0,1,,,,,,,0,4,0,4,,,,,,,,,,,1718.511,1719.0114,1719.2616,1721.3112,space,2.0343,,1721.3112,7,82,1722.3111,1722.3111,1722.3227,,,,0,27,27,27,1,125,20,,,,,,,,
,,5f3ccceaac7ac7b57eb048c8,65af5608ca620457d06d58c2,2024-01-23_08h25.35.571,bars,2023.2.3,Win32,59.88023952,657b66ea316d21385b68909f,,,,,,,,,,,1722.323,1723.3274,,,1723.8273,1724.0776,,124,124,,,,,,,,,,,,,,,,bars/034.png,bars/mask001.png,,,,,,,,,,,,0,1,,,,,,,0,6,0,4,,,,,,,,,,,1723.3274,1723.8272,1724.0777,1727.7942,space,3.7018,,1727.7943,1,59,1728.794,1728.7941,1728.8047,,,,0,28,28,28,1,125,65,,,,,,,,
,,5f3ccceaac7ac7b57eb048c8,65af5608ca620457d06d58c2,2024-01-23_08h25.35.571,bars,2023.2.3,Win32,59.88023952,657b66ea316d21385b68909f,,,,,,,,,,,1728.8049,1729.7943,,,1730.2939,1730.544,,14,14,,,,,,,,,,,,,,,,bars/032.png,bars/mask001.png,,,,,,,,,,,,6,2,,,,,,,2,8,2,8,,,,,,,,,,,1729.7943,1730.2938,1730.5441,1733.4273,space,2.867,,1733.4273,69,6,1734.4271,1734.4271,1734.4393,,,,0,29,29,29,1,125,20,,,,,,,,
,,5f3ccceaac7ac7b57eb048c8,65af5608ca620457d06d58c2,2024-01-23_08h25.35.571,bars,2023.2.3,Win32,59.88023952,657b66ea316d21385b68909f,,,,,,,,,,,1734.4397,1735.4439,,,1735.9436,1736.1935,,101,281,,,,,,,,,,,,,,,,bars/011.png,bars/mask004.png,,,,,,,,,,,,4,2,,,,,,,4,10,5,9,,,,,,,,,,,1735.4439,1735.9435,1736.1935,1741.8941,space,5.6872,,1741.8942,59,16,1742.8934,1742.8935,1742.9052,,,,0,30,30,30,1,160,85,,,,,,,,
,,5f3ccceaac7ac7b57eb048c8,65af5608ca620457d06d58c2,2024-01-23_08h25.35.571,bars,2023.2.3,Win32,59.88023952,657b66ea316d21385b68909f,,,,,,,,,,,1742.9055,1743.9097,,,1744.4102,1744.6605,,55,55,,,,,,,,,,,,,,,,bars/038.png,bars/mask000.png,,,,,,,,,,,,5,2,,,,,,,2,10,3,10,,,,,,,,,,,1743.9098,1744.4101,1744.6606,1747.0605,space,2.3841,,1747.0605,70,15,1748.06,1748.0601,1748.072,,,,0,31,31,31,1,165,70,,,,,,,,
,,5f3ccceaac7ac7b57eb048c8,65af5608ca620457d06d58c2,2024-01-23_08h25.35.571,bars,2023.2.3,Win32,59.88023952,657b66ea316d21385b68909f,,,,,,,,,,,1748.0723,1749.0603,,,1749.5599,1749.8098,,154,154,,,,,,,,,,,,,,,,bars/020.png,bars/mask000.png,,,,,,,,,,,,3,2,,,,,,,4,8,4,7,,,,,,,,,,,1749.0603,1749.5598,1749.8098,1753.2437,space,3.418,,1753.2439,39,16,1754.2431,1754.2433,1754.2548,,,,0,32,32,32,1,115,170,,,,,,,,
,,5f3ccceaac7ac7b57eb048c8,65af5608ca620457d06d58c2,2024-01-23_08h25.35.571,bars,2023.2.3,Win32,59.88023952,657b66ea316d21385b68909f,,,,,,,,,,,1754.2552,1755.2429,,,1755.7428,1755.993,,113,113,,,,,,,,,,,,,,,,bars/019.png,bars/mask005.png,,,,,,,,,,,,4,2,,,,,,,2,6,2,6,,,,,,,,,,,1755.2429,1755.7428,1755.993,1757.8597,space,1.8511,,1757.8597,68,8,1758.8591,1758.8592,1758.8601,,,,0,33,33,33,1,45,105,,,,,,,,
,,5f3ccceaac7ac7b57eb048c8,65af5608ca620457d06d58c2,2024-01-23_08h25.35.571,bars,2023.2.3,Win32,59.88023952,657b66ea316d21385b68909f,,,,,,,,,,,1758.8603,1759.8591,,,1760.3595,1760.6092,,100,100,,,,,,,,,,,,,,,,bars/037.png,bars/mask005.png,,,,,,,,,,,,1,2,,,,,,,0,4,0,1,,,,,,,,,,,1759.8592,1760.3593,1760.6093,1763.5594,space,2.9354,,1763.5594,50,5,1764.559,1764.5591,1764.5705,,,,0,34,34,34,1,150,105,,,,,,,,
,,5f3ccceaac7ac7b57eb048c8,65af5608ca620457d06d58c2,2024-01-23_08h25.35.571,bars,2023.2.3,Win32,59.88023952,657b66ea316d21385b68909f,,,,,,,,,,,1764.5709,1765.5591,,,1766.0589,1766.3092,,109,109,,,,,,,,,,,,,,,,bars/028.png,bars/mask004.png,,,,,,,,,,,,1,2,,,,,,,2,2,2,2,,,,,,,,,,,1765.5591,1766.0589,1766.3092,1770.8755,space,4.5504,,1770.8757,64,11,1771.8757,1771.8757,1771.8875,,,,0,35,35,35,1,45,120,,,,,,,,
,,5f3ccceaac7ac7b57eb048c8,65af5608ca620457d06d58c2,2024-01-23_08h25.35.571,bars,2023.2.3,Win32,59.88023952,657b66ea316d21385b68909f,,,,,,,,,,,1771.8877,1772.8922,,,1773.3917,1773.6421,,54,54,,,,,,,,,,,,,,,,bars/046.png,bars/mask002.png,,,,,,,,,,,,0,2,,,,,,,0,0,0,1,,,,,,,,,,,1772.8922,1773.3917,1773.6421,1778.2586,space,4.5999,,1778.2587,79,31,1779.2582,1779.2582,1779.2698,,,,0,36,36,36,1,155,85,,,,,,,,
,,5f3ccceaac7ac7b57eb048c8,65af5608ca620457d06d58c2,2024-01-23_08h25.35.571,bars,2023.2.3,Win32,59.88023952,657b66ea316d21385b68909f,,,,,,,,,,,1779.2701,1780.2583,,,1780.7584,1781.0086,,35,35,,,,,,,,,,,,,,,,bars/035.png,bars/mask006.png,,,,,,,,,,,,0,2,,,,,,,2,2,2,1,,,,,,,,,,,1780.2583,1780.7583,1781.0086,1783.0082,space,1.9838,,1783.0083,40,25,1784.0082,1784.0083,1784.0195,,,,0,37,37,37,1,175,60,,,,,,,,
,,5f3ccceaac7ac7b57eb048c8,65af5608ca620457d06d58c2,2024-01-23_08h25.35.571,bars,2023.2.3,Win32,59.88023952,657b66ea316d21385b68909f,,,,,,,,,,,1784.0198,1785.0247,,,1785.5246,1785.7742,,49,49,,,,,,,,,,,,,,,,bars/036.png,bars/mask000.png,,,,,,,,,,,,0,2,,,,,,,4,0,3,0,,,,,,,,,,,1785.0247,1785.5246,1785.7742,1791.5081,space,5.7191,,1791.5081,84,29,1792.5077,1792.5078,1792.52,,,,0,38,38,38,1,145,20,,,,,,,,
,,5f3ccceaac7ac7b57eb048c8,65af5608ca620457d06d58c2,2024-01-23_08h25.35.571,bars,2023.2.3,Win32,59.88023952,657b66ea316d21385b68909f,,,,,,,,,,,1792.5203,1793.5241,,,1794.0245,1794.2632,,33,33,,,,,,,,,,,,,,,,bars/031.png,bars/mask008.png,,,,,,,,,,,,1,2,,,,,,,2,2,3,1,,,,,,,,,,,1793.5241,1794.0244,1794.2632,1796.2246,space,1.9477,,1796.2246,87,2,1797.2245,1797.2245,1797.2257,,,,0,39,39,39,1,120,35,,,,,,,,
,,5f3ccceaac7ac7b57eb048c8,65af5608ca620457d06d58c2,2024-01-23_08h25.35.571,bars,2023.2.3,Win32,59.88023952,657b66ea316d21385b68909f,,,,,,,,,,,1797.2261,1798.2239,,,1798.7242,1798.9741,,66,66,,,,,,,,,,,,,,,,bars/006.png,bars/mask007.png,,,,,,,,,,,,0,1,,,,,,,0,0,0,0,,,,,,,,,,,1798.2239,1798.7242,1798.9741,1805.3406,space,6.35,,1805.3407,31,34,1806.3404,1806.3405,1806.3534,,,,0,40,40,40,1,35,100,,,,,,,,
,,5f3ccceaac7ac7b57eb048c8,65af5608ca620457d06d58c2,2024-01-23_08h25.35.571,bars,2023.2.3,Win32,59.88023952,657b66ea316d21385b68909f,,,,,,,,,,,1806.3538,1807.3577,,,1807.8572,1808.107,,164,-16,,,,,,,,,,,,,,,,bars/008.png,bars/mask000.png,,,,,,,,,,,,0,2,,,,,,,2,0,2,0,,,,,,,,,,,1807.3577,1807.8571,1808.107,1811.0569,space,2.9361,,1811.0569,54,16,1812.0576,1812.0576,1812.0708,,,,0,41,41,41,1,110,0,,,,,,,,
,,5f3ccceaac7ac7b57eb048c8,65af5608ca620457d06d58c2,2024-01-23_08h25.35.571,bars,2023.2.3,Win32,59.88023952,657b66ea316d21385b68909f,,,,,,,,,,,1812.0711,1813.0736,,,1813.5735,1813.8239,,41,221,,,,,,,,,,,,,,,,bars/005.png,bars/mask003.png,,,,,,,,,,,,0,1,,,,,,,0,2,1,0,,,,,,,,,,,1813.0736,1813.5734,1813.8239,1817.7571,space,3.9191,,1817.7572,31,81,1818.757,1818.7571,1818.7693,,,,0,42,42,42,1,10,140,,,,,,,,
,,5f3ccceaac7ac7b57eb048c8,65af5608ca620457d06d58c2,2024-01-23_08h25.35.571,bars,2023.2.3,Win32,59.88023952,657b66ea316d21385b68909f,,,,,,,,,,,1818.7697,1819.7728,,,1820.2732,1820.5229,,68,68,,,,,,,,,,,,,,,,bars/018.png,bars/mask008.png,,,,,,,,,,,,0,2,,,,,,,0,0,0,0,,,,,,,,,,,1819.7728,1820.2732,1820.523,1824.3396,space,3.8022,,1824.3397,82,22,1825.3386,1825.3386,1825.3514,,,,0,43,43,43,1,150,90,,,,,,,,
,,5f3ccceaac7ac7b57eb048c8,65af5608ca620457d06d58c2,2024-01-23_08h25.35.571,bars,2023.2.3,Win32,59.88023952,657b66ea316d21385b68909f,,,,,,,,,,,1825.3516,1826.3553,,,1826.8558,1827.1056,,77,77,,,,,,,,,,,,,,,,bars/026.png,bars/mask006.png,,,,,,,,,,,,1,2,,,,,,,2,0,0,1,,,,,,,,,,,1826.3554,1826.8557,1827.1057,1834.3217,space,7.2008,,1834.3218,42,8,1835.3217,1835.3217,1835.3346,,,,0,44,44,44,1,35,85,,,,,,,,
,,5f3ccceaac7ac7b57eb048c8,65af5608ca620457d06d58c2,2024-01-23_08h25.35.571,bars,2023.2.3,Win32,59.88023952,657b66ea316d21385b68909f,,,,,,,,,,,1835.3348,1836.339,,,1836.8385,1837.0885,,41,41,,,,,,,,,,,,,,,,bars/025.png,bars/mask003.png,,,,,,,,,,,,2,2,,,,,,,0,2,1,2,,,,,,,,,,,1836.3392,1836.8384,1837.0885,1838.7217,space,1.6189,,1838.7218,64,1,1839.7215,1839.7215,1839.7337,,,,0,45,45,45,1,105,40,,,,,,,,
,,5f3ccceaac7ac7b57eb048c8,65af5608ca620457d06d58c2,2024-01-23_08h25.35.571,bars,2023.2.3,Win32,59.88023952,657b66ea316d21385b68909f,,,,,,,,,,,1839.734,1840.7216,,,1841.2215,1841.4712,,35,35,,,,,,,,,,,,,,,,bars/022.png,bars/mask003.png,,,,,,,,,,,,3,2,,,,,,,0,4,1,5,,,,,,,,,,,1840.7217,1841.2215,1841.4712,1846.688,space,5.2069,,1846.6881,60,15,1847.6879,1847.6879,1847.7,,,,0,46,46,46,1,95,20,,,,,,,,
,,5f3ccceaac7ac7b57eb048c8,65af5608ca620457d06d58c2,2024-01-23_08h25.35.571,bars,2023.2.3,Win32,59.88023952,657b66ea316d21385b68909f,,,,,,,,,,,1847.7004,1848.7045,,,1849.2043,1849.4549,,39,39,,,,,,,,,,,,,,,,bars/017.png,bars/mask001.png,,,,,,,,,,,,2,2,,,,,,,0,2,0,2,,,,,,,,,,,1848.7045,1849.2043,1849.4549,1852.7045,space,3.2342,,1852.7046,74,6,1853.704,1853.7041,1853.715,,,,0,47,47,47,1,145,45,,,,,,,,
,,5f3ccceaac7ac7b57eb048c8,65af5608ca620457d06d58c2,2024-01-23_08h25.35.571,bars,2023.2.3,Win32,59.88023952,657b66ea316d21385b68909f,,,,,,,,,,,1853.7153,1854.7039,,,1855.2043,1855.4539,,22,22,,,,,,,,,,,,,,,,bars/044.png,bars/mask009.png,,,,,,,,,,,,0,2,,,,,,,0,0,1,0,,,,,,,,,,,1854.7041,1855.2042,1855.4539,1858.9206,space,3.4542,,1858.9206,53,47,1859.9201,1859.9203,1859.9327,,,,0,48,48,48,1,75,155,,,,,,,,
,,5f3ccceaac7ac7b57eb048c8,65af5608ca620457d06d58c2,2024-01-23_08h25.35.571,bars,2023.2.3,Win32,59.88023952,657b66ea316d21385b68909f,,,,,,,,,,,1859.9331,1860.9368,,,1861.4374,1861.6869,,30,210,,,,,,,,,,,,,,,,bars/032.png,bars/mask001.png,,,,,,,,,,,,1,2,,,,,,,2,2,4,1,,,,,,,,,,,1860.9368,1861.4373,1861.687,1865.1535,space,3.4558,,1865.1535,85,10,1866.1533,1866.1534,1866.1646,,,,0,49,49,49,1,125,20,,,,,,,,
,,5f3ccceaac7ac7b57eb048c8,65af5608ca620457d06d58c2,2024-01-23_08h25.35.571,bars,2023.2.3,Win32,59.88023952,657b66ea316d21385b68909f,,,,,,,,,,,,,,,,,,,,,,,,,,,,,,,,,,,,,,,,,,,,,,,,,,,,,,,,,,,,,,,,,,,,,,,,,,,,,,,,,,,,,,,,,,,,,1866.1647,1926.1678,0,1,1,4,1,sequence_tables/blk044.csv
,,5f3ccceaac7ac7b57eb048c8,65af5608ca620457d06d58c2,2024-01-23_08h25.35.571,bars,2023.2.3,Win32,59.88023952,657b66ea316d21385b68909f,,,,,,,,,,,2260.3064,2261.3025,,,2261.7864,2262.0361,,125,125,,,,,,,,,,,,,,,,bars/028.png,bars/mask003.png,,,,,,,,,,,,2,2,,,,,,,10,2,9,2,,,,,,1926.1798,2260.2863,space,334.0908,,2261.3025,2261.7863,2262.0361,2264.0702,space,2.0172,,2264.0702,80,5,2265.0697,2265.0698,2265.0804,,,,0,0,0,0,1,45,120,,,,,,,,
,,5f3ccceaac7ac7b57eb048c8,65af5608ca620457d06d58c2,2024-01-23_08h25.35.571,bars,2023.2.3,Win32,59.88023952,657b66ea316d21385b68909f,,,,,,,,,,,2265.0808,2266.0695,,,2266.569,2266.8194,,116,116,,,,,,,,,,,,,,,,bars/002.png,bars/mask000.png,,,,,,,,,,,,4,1,,,,,,,8,0,8,0,,,,,,,,,,,2266.0695,2266.569,2266.8194,2268.5691,space,1.7346,,2268.5693,14,31,2269.5693,2269.5694,2269.5715,,,,0,1,1,1,1,130,85,,,,,,,,
,,5f3ccceaac7ac7b57eb048c8,65af5608ca620457d06d58c2,2024-01-23_08h25.35.571,bars,2023.2.3,Win32,59.88023952,657b66ea316d21385b68909f,,,,,,,,,,,2269.5718,2270.5696,,,2271.0695,2271.3192,,33,33,,,,,,,,,,,,,,,,bars/027.png,bars/mask003.png,,,,,,,,,,,,1,2,,,,,,,6,2,4,2,,,,,,,,,,,2270.5696,2271.0694,2271.3192,2274.2521,space,2.9161,,2274.2522,77,17,2275.2522,2275.2522,2275.2647,,,,0,2,2,2,1,110,50,,,,,,,,
,,5f3ccceaac7ac7b57eb048c8,65af5608ca620457d06d58c2,2024-01-23_08h25.35.571,bars,2023.2.3,Win32,59.88023952,657b66ea316d21385b68909f,,,,,,,,,,,2275.265,2276.2688,,,2276.7696,2277.0191,,46,46,,,,,,,,,,,,,,,,bars/031.png,bars/mask001.png,,,,,,,,,,,,1,2,,,,,,,8,0,6,1,,,,,,,,,,,2276.2688,2276.7695,2277.0192,2281.7357,space,4.7002,,2281.7357,74,11,2282.7357,2282.7359,2282.7468,,,,0,3,3,3,1,120,35,,,,,,,,
,,5f3ccceaac7ac7b57eb048c8,65af5608ca620457d06d58c2,2024-01-23_08h25.35.571,bars,2023.2.3,Win32,59.88023952,657b66ea316d21385b68909f,,,,,,,,,,,2282.747,2283.7353,,,2284.2357,2284.4851,,162,162,,,,,,,,,,,,,,,,bars/003.png,bars/mask001.png,,,,,,,,,,,,0,2,,,,,,,6,2,8,1,,,,,,,,,,,2283.7353,2284.2356,2284.4852,2286.7187,space,2.2168,,2286.7187,43,22,2287.7183,2287.7183,2287.7291,,,,0,4,4,4,1,25,140,,,,,,,,
,,5f3ccceaac7ac7b57eb048c8,65af5608ca620457d06d58c2,2024-01-23_08h25.35.571,bars,2023.2.3,Win32,59.88023952,657b66ea316d21385b68909f,,,,,,,,,,,2287.7293,2288.7179,,,2289.218,2289.4689,,21,21,,,,,,,,,,,,,,,,bars/008.png,bars/mask008.png,,,,,,,,,,,,0,2,,,,,,,4,0,6,0,,,,,,,,,,,2288.7179,2289.218,2289.4689,2291.6029,space,2.1257,,2291.6029,89,21,2292.6013,2292.6013,2292.6117,,,,0,5,5,5,1,110,0,,,,,,,,
,,5f3ccceaac7ac7b57eb048c8,65af5608ca620457d06d58c2,2024-01-23_08h25.35.571,bars,2023.2.3,Win32,59.88023952,657b66ea316d21385b68909f,,,,,,,,,,,2292.612,2293.6016,,,2294.1013,2294.3522,,93,93,,,,,,,,,,,,,,,,bars/035.png,bars/mask003.png,,,,,,,,,,,,0,2,,,,,,,2,0,2,1,,,,,,,,,,,2293.6016,2294.1013,2294.3522,2297.2183,space,2.85,,2297.2183,82,33,2298.218,2298.2181,2298.2287,,,,0,6,6,6,1,175,60,,,,,,,,
,,5f3ccceaac7ac7b57eb048c8,65af5608ca620457d06d58c2,2024-01-23_08h25.35.571,bars,2023.2.3,Win32,59.88023952,657b66ea316d21385b68909f,,,,,,,,,,,2298.229,2299.2181,,,2299.7177,2299.9681,,132,132,,,,,,,,,,,,,,,,bars/028.png,bars/mask006.png,,,,,,,,,,,,1,2,,,,,,,4,2,4,1,,,,,,,,,,,2299.2181,2299.7176,2299.9681,2303.1682,space,3.1846,,2303.1682,87,12,2304.1686,2304.1686,2304.1793,,,,0,7,7,7,1,45,120,,,,,,,,
,,5f3ccceaac7ac7b57eb048c8,65af5608ca620457d06d58c2,2024-01-23_08h25.35.571,bars,2023.2.3,Win32,59.88023952,657b66ea316d21385b68909f,,,,,,,,,,,2304.1803,2305.1841,,,2305.6847,2305.9343,,81,81,,,,,,,,,,,,,,,,bars/025.png,bars/mask000.png,,,,,,,,,,,,1,1,,,,,,,6,0,6,1,,,,,,,,,,,2305.1841,2305.6847,2305.9344,2309.1505,space,3.2073,,2309.1506,24,41,2310.1509,2310.1509,2310.1631,,,,0,8,8,8,1,105,40,,,,,,,,
,,5f3ccceaac7ac7b57eb048c8,65af5608ca620457d06d58c2,2024-01-23_08h25.35.571,bars,2023.2.3,Win32,59.88023952,657b66ea316d21385b68909f,,,,,,,,,,,2310.1635,2311.1669,,,2311.6675,2311.9174,,53,53,,,,,,,,,,,,,,,,bars/044.png,bars/mask001.png,,,,,,,,,,,,1,1,,,,,,,4,2,5,2,,,,,,,,,,,2311.1669,2311.6674,2311.9174,2314.8673,space,2.9328,,2314.8674,22,78,2315.8671,2315.8672,2315.8777,,,,0,9,9,9,1,75,155,,,,,,,,
,,5f3ccceaac7ac7b57eb048c8,65af5608ca620457d06d58c2,2024-01-23_08h25.35.571,bars,2023.2.3,Win32,59.88023952,657b66ea316d21385b68909f,,,,,,,,,,,2315.8779,2316.8671,,,2317.367,2317.617,,138,138,,,,,,,,,,,,,,,,bars/010.png,bars/mask008.png,,,,,,,,,,,,0,1,,,,,,,2,0,2,0,,,,,,,,,,,2316.8671,2317.367,2317.6171,2319.9336,space,2.2997,,2319.9336,27,83,2320.9336,2320.9336,2320.9459,,,,0,10,10,10,1,165,55,,,,,,,,
,,5f3ccceaac7ac7b57eb048c8,65af5608ca620457d06d58c2,2024-01-23_08h25.35.571,bars,2023.2.3,Win32,59.88023952,657b66ea316d21385b68909f,,,,,,,,,,,2320.9462,2321.9501,,,2322.4501,2322.7001,,44,44,,,,,,,,,,,,,,,,bars/004.png,bars/mask002.png,,,,,,,,,,,,0,1,,,,,,,0,2,1,4,,,,,,,,,,,2321.9501,2322.4501,2322.7002,2324.5852,space,1.8762,,2324.5852,19,81,2325.583,2325.5831,2325.584,,,,0,11,11,11,1,25,125,,,,,,,,
,,5f3ccceaac7ac7b57eb048c8,65af5608ca620457d06d58c2,2024-01-23_08h25.35.571,bars,2023.2.3,Win32,59.88023952,657b66ea316d21385b68909f,,,,,,,,,,,2325.5843,2326.5829,,,2327.0833,2327.3341,,85,85,,,,,,,,,,,,,,,,bars/001.png,bars/mask002.png,,,,,,,,,,,,0,2,,,,,,,2,0,2,0,,,,,,,,,,,2326.5829,2327.0832,2327.3342,2331.5167,space,4.1674,,2331.5167,45,0,2332.5168,2332.5169,2332.529,,,,0,12,12,12,1,130,85,,,,,,,,
,,5f3ccceaac7ac7b57eb048c8,65af5608ca620457d06d58c2,2024-01-23_08h25.35.571,bars,2023.2.3,Win32,59.88023952,657b66ea316d21385b68909f,,,,,,,,,,,2332.5293,2333.5328,,,2334.0326,2334.2826,,75,75,,,,,,,,,,,,,,,,bars/023.png,bars/mask001.png,,,,,,,,,,,,0,2,,,,,,,0,2,1,1,,,,,,,,,,,2333.5328,2334.0325,2334.2826,2337.3495,space,3.0509,,2337.3497,55,40,2338.3496,2338.3497,2338.3605,,,,0,13,13,13,1,20,115,,,,,,,,
,,5f3ccceaac7ac7b57eb048c8,65af5608ca620457d06d58c2,2024-01-23_08h25.35.571,bars,2023.2.3,Win32,59.88023952,657b66ea316d21385b68909f,,,,,,,,,,,2338.3608,2339.3492,,,2339.8501,2340.0998,,83,83,,,,,,,,,,,,,,,,bars/019.png,bars/mask003.png,,,,,,,,,,,,0,2,,,,,,,2,0,1,0,,,,,,,,,,,2339.3494,2339.8499,2340.0999,2344.1839,space,4.0764,,2344.184,38,22,2345.1823,2345.1823,2345.193,,,,0,14,14,14,1,45,105,,,,,,,,
,,5f3ccceaac7ac7b57eb048c8,65af5608ca620457d06d58c2,2024-01-23_08h25.35.571,bars,2023.2.3,Win32,59.88023952,657b66ea316d21385b68909f,,,,,,,,,,,2345.1936,2346.1826,,,2346.6822,2346.9321,,174,-6,,,,,,,,,,,,,,,,bars/036.png,bars/mask004.png,,,,,,,,,,,,0,2,,,,,,,4,2,4,3,,,,,,,,,,,2346.1826,2346.6821,2346.9321,2351.8658,space,4.9201,,2351.8658,29,26,2352.8658,2352.8658,2352.8769,,,,0,15,15,15,1,145,20,,,,,,,,
,,5f3ccceaac7ac7b57eb048c8,65af5608ca620457d06d58c2,2024-01-23_08h25.35.571,bars,2023.2.3,Win32,59.88023952,657b66ea316d21385b68909f,,,,,,,,,,,2352.8772,2353.8654,,,2354.3654,2354.6151,,81,81,,,,,,,,,,,,,,,,bars/037.png,bars/mask004.png,,,,,,,,,,,,1,2,,,,,,,2,4,2,3,,,,,,,,,,,2353.8655,2354.3654,2354.6152,2356.1152,space,1.4836,,2356.1153,69,24,2357.1149,2357.1149,2357.1265,,,,0,16,16,16,1,150,105,,,,,,,,
,,5f3ccceaac7ac7b57eb048c8,65af5608ca620457d06d58c2,2024-01-23_08h25.35.571,bars,2023.2.3,Win32,59.88023952,657b66ea316d21385b68909f,,,,,,,,,,,2357.1269,2358.1155,,,2358.6153,2358.8652,,20,20,,,,,,,,,,,,,,,,bars/031.png,bars/mask006.png,,,,,,,,,,,,2,2,,,,,,,4,2,7,4,,,,,,,,,,,2358.1156,2358.6152,2358.8652,2361.565,space,2.6844,,2361.565,80,15,2362.5652,2362.5654,2362.5765,,,,0,17,17,17,1,120,35,,,,,,,,
,,5f3ccceaac7ac7b57eb048c8,65af5608ca620457d06d58c2,2024-01-23_08h25.35.571,bars,2023.2.3,Win32,59.88023952,657b66ea316d21385b68909f,,,,,,,,,,,2362.5768,2363.565,,,2364.0648,2364.3145,,177,-3,,,,,,,,,,,,,,,,bars/036.png,bars/mask006.png,,,,,,,,,,,,1,2,,,,,,,6,4,6,4,,,,,,,,,,,2363.565,2364.0647,2364.3146,2367.6316,space,3.3043,,2367.6318,32,23,2368.631,2368.6312,2368.6418,,,,0,18,18,18,1,145,20,,,,,,,,
,,5f3ccceaac7ac7b57eb048c8,65af5608ca620457d06d58c2,2024-01-23_08h25.35.571,bars,2023.2.3,Win32,59.88023952,657b66ea316d21385b68909f,,,,,,,,,,,2368.6421,2369.6311,,,2370.1312,2370.3814,,10,10,,,,,,,,,,,,,,,,bars/008.png,bars/mask000.png,,,,,,,,,,,,4,2,,,,,,,4,6,1,6,,,,,,,,,,,2369.6312,2370.1312,2370.3814,2373.3648,space,2.9726,,2373.3648,80,10,2374.366,2374.3661,2374.3772,,,,0,19,19,19,1,110,0,,,,,,,,
,,5f3ccceaac7ac7b57eb048c8,65af5608ca620457d06d58c2,2024-01-23_08h25.35.571,bars,2023.2.3,Win32,59.88023952,657b66ea316d21385b68909f,,,,,,,,,,,2374.3781,2375.3811,,,2375.8812,2376.131,,53,53,,,,,,,,,,,,,,,,bars/042.png,bars/mask008.png,,,,,,,,,,,,1,2,,,,,,,6,4,5,5,,,,,,,,,,,2375.3811,2375.8812,2376.131,2379.6981,space,3.5505,,2379.6982,88,22,2380.6971,2380.6972,2380.7089,,,,0,20,20,20,1,145,75,,,,,,,,
,,5f3ccceaac7ac7b57eb048c8,65af5608ca620457d06d58c2,2024-01-23_08h25.35.571,bars,2023.2.3,Win32,59.88023952,657b66ea316d21385b68909f,,,,,,,,,,,2380.7092,2381.6973,,,2382.1975,2382.4477,,48,48,,,,,,,,,,,,,,,,bars/046.png,bars/mask007.png,,,,,,,,,,,,0,2,,,,,,,8,2,8,3,,,,,,,,,,,2381.6973,2382.1974,2382.4479,2386.5143,space,4.0513,,2386.5144,73,37,2387.5136,2387.5136,2387.5255,,,,0,21,21,21,1,155,85,,,,,,,,
,,5f3ccceaac7ac7b57eb048c8,65af5608ca620457d06d58c2,2024-01-23_08h25.35.571,bars,2023.2.3,Win32,59.88023952,657b66ea316d21385b68909f,,,,,,,,,,,2387.5259,2388.5139,,,2389.0139,2389.2635,,122,122,,,,,,,,,,,,,,,,bars/049.png,bars/mask008.png,,,,,,,,,,,,4,2,,,,,,,6,4,6,5,,,,,,,,,,,2388.5139,2389.0138,2389.2636,2391.9305,space,2.651,,2391.9305,38,7,2392.9306,2392.9306,2392.9426,,,,0,22,22,22,1,160,115,,,,,,,,
,,5f3ccceaac7ac7b57eb048c8,65af5608ca620457d06d58c2,2024-01-23_08h25.35.571,bars,2023.2.3,Win32,59.88023952,657b66ea316d21385b68909f,,,,,,,,,,,2392.9429,2393.9467,,,2394.4473,2394.6969,,70,70,,,,,,,,,,,,,,,,bars/042.png,bars/mask003.png,,,,,,,,,,,,0,2,,,,,,,8,2,7,0,,,,,,,,,,,2393.9467,2394.4473,2394.6969,2396.0304,space,1.317,,2396.0304,75,5,2397.03,2397.0301,2397.0313,,,,0,23,23,23,1,145,75,,,,,,,,
,,5f3ccceaac7ac7b57eb048c8,65af5608ca620457d06d58c2,2024-01-23_08h25.35.571,bars,2023.2.3,Win32,59.88023952,657b66ea316d21385b68909f,,,,,,,,,,,2397.0317,2398.0299,,,2398.5301,2398.78,,160,-20,,,,,,,,,,,,,,,,bars/040.png,bars/mask009.png,,,,,,,,,,,,2,1,,,,,,,6,0,7,0,,,,,,,,,,,2398.0299,2398.5301,2398.78,2403.3467,space,4.5534,,2403.3468,20,25,2404.3465,2404.3465,2404.3589,,,,0,24,24,24,1,140,5,,,,,,,,
,,5f3ccceaac7ac7b57eb048c8,65af5608ca620457d06d58c2,2024-01-23_08h25.35.571,bars,2023.2.3,Win32,59.88023952,657b66ea316d21385b68909f,,,,,,,,,,,2404.3592,2405.3471,,,2405.8465,2406.0964,,156,-24,,,,,,,,,,,,,,,,bars/008.png,bars/mask002.png,,,,,,,,,,,,0,2,,,,,,,4,0,5,1,,,,,,,,,,,2405.3471,2405.8464,2406.0964,2408.8299,space,2.7171,,2408.8299,46,24,2409.8295,2409.8296,2409.8424,,,,0,25,25,25,1,110,0,,,,,,,,
,,5f3ccceaac7ac7b57eb048c8,65af5608ca620457d06d58c2,2024-01-23_08h25.35.571,bars,2023.2.3,Win32,59.88023952,657b66ea316d21385b68909f,,,,,,,,,,,2409.8427,2410.8467,,,2411.3458,2411.5959,,40,220,,,,,,,,,,,,,,,,bars/025.png,bars/mask005.png,,,,,,,,,,,,2,2,,,,,,,6,2,7,2,,,,,,,,,,,2410.8468,2411.3457,2411.5959,2415.3294,space,3.7168,,2415.3294,65,0,2416.3291,2416.3291,2416.341,,,,0,26,26,26,1,105,40,,,,,,,,
,,5f3ccceaac7ac7b57eb048c8,65af5608ca620457d06d58c2,2024-01-23_08h25.35.571,bars,2023.2.3,Win32,59.88023952,657b66ea316d21385b68909f,,,,,,,,,,,2416.3413,2417.3294,,,2417.8293,2418.0791,,156,-24,,,,,,,,,,,,,,,,bars/012.png,bars/mask000.png,,,,,,,,,,,,0,2,,,,,,,8,0,8,0,,,,,,,,,,,2417.3294,2417.8292,2418.0791,2419.8811,space,1.7841,,2419.8812,66,39,2420.8793,2420.8794,2420.8909,,,,0,27,27,27,1,90,15,,,,,,,,
,,5f3ccceaac7ac7b57eb048c8,65af5608ca620457d06d58c2,2024-01-23_08h25.35.571,bars,2023.2.3,Win32,59.88023952,657b66ea316d21385b68909f,,,,,,,,,,,2420.8912,2421.8792,,,2422.379,2422.6293,,151,-29,,,,,,,,,,,,,,,,bars/003.png,bars/mask006.png,,,,,,,,,,,,0,2,,,,,,,6,2,7,0,,,,,,,,,,,2421.8792,2422.3789,2422.6293,2427.2286,space,4.5831,,2427.2287,54,11,2428.229,2428.229,2428.2416,,,,0,28,28,28,1,25,140,,,,,,,,
,,5f3ccceaac7ac7b57eb048c8,65af5608ca620457d06d58c2,2024-01-23_08h25.35.571,bars,2023.2.3,Win32,59.88023952,657b66ea316d21385b68909f,,,,,,,,,,,2428.2419,2429.2459,,,2429.7452,2429.995,,113,113,,,,,,,,,,,,,,,,bars/023.png,bars/mask002.png,,,,,,,,,,,,4,2,,,,,,,8,4,7,4,,,,,,,,,,,2429.2459,2429.7452,2429.9951,2435.029,space,5.0195,,2435.029,87,2,2436.0281,2436.0281,2436.0388,,,,0,29,29,29,1,20,115,,,,,,,,
,,5f3ccceaac7ac7b57eb048c8,65af5608ca620457d06d58c2,2024-01-23_08h25.35.571,bars,2023.2.3,Win32,59.88023952,657b66ea316d21385b68909f,,,,,,,,,,,2436.0391,2437.0284,,,2437.5283,2437.7784,,153,-27,,,,,,,,,,,,,,,,bars/044.png,bars/mask003.png,,,,,,,,,,,,6,2,,,,,,,10,6,10,6,,,,,,,,,,,2437.0284,2437.5283,2437.7784,2442.9442,space,5.1509,,2442.9443,78,2,2443.9436,2443.9437,2443.9554,,,,0,30,30,30,1,75,155,,,,,,,,
,,5f3ccceaac7ac7b57eb048c8,65af5608ca620457d06d58c2,2024-01-23_08h25.35.571,bars,2023.2.3,Win32,59.88023952,657b66ea316d21385b68909f,,,,,,,,,,,2443.9556,2444.9436,,,2445.4443,2445.6938,,22,22,,,,,,,,,,,,,,,,bars/008.png,bars/mask002.png,,,,,,,,,,,,2,2,,,,,,,10,8,10,9,,,,,,,,,,,2444.9438,2445.4443,2445.6939,2450.4599,space,4.75,,2450.46,88,22,2451.4599,2451.4599,2451.471,,,,0,31,31,31,1,110,0,,,,,,,,
,,5f3ccceaac7ac7b57eb048c8,65af5608ca620457d06d58c2,2024-01-23_08h25.35.571,bars,2023.2.3,Win32,59.88023952,657b66ea316d21385b68909f,,,,,,,,,,,2451.4721,2452.4604,,,2452.9601,2453.2101,,68,68,,,,,,,,,,,,,,,,bars/027.png,bars/mask006.png,,,,,,,,,,,,4,2,,,,,,,10,10,9,9,,,,,,,,,,,2452.4604,2452.9601,2453.2101,2454.7933,space,1.5726,,2454.7934,42,18,2455.7932,2455.7933,2455.7949,,,,0,32,32,32,1,110,50,,,,,,,,
,,5f3ccceaac7ac7b57eb048c8,65af5608ca620457d06d58c2,2024-01-23_08h25.35.571,bars,2023.2.3,Win32,59.88023952,657b66ea316d21385b68909f,,,,,,,,,,,2455.7953,2456.7929,,,2457.2934,2457.5431,,52,52,,,,,,,,,,,,,,,,bars/035.png,bars/mask001.png,,,,,,,,,,,,7,2,,,,,,,8,10,9,10,,,,,,,,,,,2456.7929,2457.2933,2457.5433,2460.5099,space,2.9528,,2460.51,57,8,2461.5095,2461.5095,2461.5205,,,,0,33,33,33,1,175,60,,,,,,,,
,,5f3ccceaac7ac7b57eb048c8,65af5608ca620457d06d58c2,2024-01-23_08h25.35.571,bars,2023.2.3,Win32,59.88023952,657b66ea316d21385b68909f,,,,,,,,,,,2461.5208,2462.5093,,,2463.0098,2463.2596,,37,37,,,,,,,,,,,,,,,,bars/007.png,bars/mask007.png,,,,,,,,,,,,3,2,,,,,,,10,8,10,8,,,,,,,,,,,2462.5094,2463.0097,2463.2596,2466.3764,space,3.1013,,2466.3764,42,18,2467.376,2467.3761,2467.387,,,,0,34,34,34,1,175,55,,,,,,,,
,,5f3ccceaac7ac7b57eb048c8,65af5608ca620457d06d58c2,2024-01-23_08h25.35.571,bars,2023.2.3,Win32,59.88023952,657b66ea316d21385b68909f,,,,,,,,,,,2467.3873,2468.3759,,,2468.876,2469.1258,,33,33,,,,,,,,,,,,,,,,bars/022.png,bars/mask007.png,,,,,,,,,,,,4,2,,,,,,,10,6,10,7,,,,,,,,,,,2468.376,2468.8759,2469.1258,2472.3925,space,3.25,,2472.3925,62,13,2473.3925,2473.3927,2473.4043,,,,0,35,35,35,1,95,20,,,,,,,,
,,5f3ccceaac7ac7b57eb048c8,65af5608ca620457d06d58c2,2024-01-23_08h25.35.571,bars,2023.2.3,Win32,59.88023952,657b66ea316d21385b68909f,,,,,,,,,,,2473.4045,2474.3923,,,2474.8922,2475.1426,,130,130,,,,,,,,,,,,,,,,bars/009.png,bars/mask006.png,,,,,,,,,,,,1,2,,,,,,,8,8,8,6,,,,,,,,,,,2474.3923,2474.8921,2475.1426,2477.96,space,2.8004,,2477.9601,65,25,2478.9602,2478.9602,2478.9706,,,,0,36,36,36,1,15,105,,,,,,,,
,,5f3ccceaac7ac7b57eb048c8,65af5608ca620457d06d58c2,2024-01-23_08h25.35.571,bars,2023.2.3,Win32,59.88023952,657b66ea316d21385b68909f,,,,,,,,,,,2478.9709,2479.9585,,,2480.4593,2480.7091,,45,45,,,,,,,,,,,,,,,,bars/025.png,bars/mask003.png,,,,,,,,,,,,8,2,,,,,,,10,10,9,10,,,,,,,,,,,2479.9585,2480.4592,2480.7091,2485.0593,space,4.3346,,2485.0593,60,5,2486.0585,2486.0585,2486.0695,,,,0,37,37,37,1,105,40,,,,,,,,
,,5f3ccceaac7ac7b57eb048c8,65af5608ca620457d06d58c2,2024-01-23_08h25.35.571,bars,2023.2.3,Win32,59.88023952,657b66ea316d21385b68909f,,,,,,,,,,,2486.0699,2487.0587,,,2487.5592,2487.8088,,49,49,,,,,,,,,,,,,,,,bars/035.png,bars/mask005.png,,,,,,,,,,,,6,2,,,,,,,10,10,8,10,,,,,,,,,,,2487.0588,2487.5591,2487.8088,2492.4749,space,4.6542,,2492.475,54,11,2493.475,2493.475,2493.486,,,,0,38,38,38,1,175,60,,,,,,,,
,,5f3ccceaac7ac7b57eb048c8,65af5608ca620457d06d58c2,2024-01-23_08h25.35.571,bars,2023.2.3,Win32,59.88023952,657b66ea316d21385b68909f,,,,,,,,,,,2493.4863,2494.4749,,,2494.9749,2495.2248,,36,36,,,,,,,,,,,,,,,,bars/017.png,bars/mask007.png,,,,,,,,,,,,6,2,,,,,,,10,10,8,9,,,,,,,,,,,2494.4749,2494.9748,2495.2249,2499.4577,space,4.2182,,2499.4577,71,9,2500.4577,2500.4578,2500.4689,,,,0,39,39,39,1,145,45,,,,,,,,
,,5f3ccceaac7ac7b57eb048c8,65af5608ca620457d06d58c2,2024-01-23_08h25.35.571,bars,2023.2.3,Win32,59.88023952,657b66ea316d21385b68909f,,,,,,,,,,,2500.4691,2501.4579,,,2501.9577,2502.2086,,70,70,,,,,,,,,,,,,,,,bars/002.png,bars/mask001.png,,,,,,,,,,,,5,2,,,,,,,8,10,10,10,,,,,,,,,,,2501.4579,2501.9576,2502.2086,2506.0741,space,3.854,,2506.0743,60,15,2507.0743,2507.0744,2507.0854,,,,0,40,40,40,1,130,85,,,,,,,,
,,5f3ccceaac7ac7b57eb048c8,65af5608ca620457d06d58c2,2024-01-23_08h25.35.571,bars,2023.2.3,Win32,59.88023952,657b66ea316d21385b68909f,,,,,,,,,,,2507.0857,2508.0743,,,2508.574,2508.824,,135,-45,,,,,,,,,,,,,,,,bars/043.png,bars/mask003.png,,,,,,,,,,,,8,2,,,,,,,10,10,10,10,,,,,,,,,,,2508.0743,2508.5739,2508.824,2513.7577,space,4.9173,,2513.7579,75,5,2514.757,2514.7571,2514.7683,,,,0,41,41,41,1,30,130,,,,,,,,
,,5f3ccceaac7ac7b57eb048c8,65af5608ca620457d06d58c2,2024-01-23_08h25.35.571,bars,2023.2.3,Win32,59.88023952,657b66ea316d21385b68909f,,,,,,,,,,,2514.7689,2515.7578,,,2516.2573,2516.5073,,50,230,,,,,,,,,,,,,,,,bars/031.png,bars/mask003.png,,,,,,,,,,,,5,2,,,,,,,10,10,9,10,,,,,,,,,,,2515.7578,2516.2573,2516.5074,2520.9571,space,4.4354,,2520.9572,70,15,2521.9656,2521.9658,2521.9776,,,,0,42,42,42,1,120,35,,,,,,,,
,,5f3ccceaac7ac7b57eb048c8,65af5608ca620457d06d58c2,2024-01-23_08h25.35.571,bars,2023.2.3,Win32,59.88023952,657b66ea316d21385b68909f,,,,,,,,,,,2521.9779,2522.9822,,,2523.4819,2523.7317,,73,73,,,,,,,,,,,,,,,,bars/046.png,bars/mask002.png,,,,,,,,,,,,6,2,,,,,,,8,10,8,10,,,,,,,,,,,2522.9822,2523.4818,2523.7317,2527.0167,space,3.2679,,2527.0168,82,12,2528.0154,2528.0154,2528.0273,,,,0,43,43,43,1,155,85,,,,,,,,
,,5f3ccceaac7ac7b57eb048c8,65af5608ca620457d06d58c2,2024-01-23_08h25.35.571,bars,2023.2.3,Win32,59.88023952,657b66ea316d21385b68909f,,,,,,,,,,,2528.0276,2529.016,,,2529.5142,2529.7653,,121,121,,,,,,,,,,,,,,,,bars/044.png,bars/mask001.png,,,,,,,,,,,,0,2,,,,,,,6,8,6,9,,,,,,,,,,,2529.0161,2529.5142,2529.7653,2532.281,space,2.5005,,2532.281,46,34,2533.2776,2533.2776,2533.2907,,,,0,44,44,44,1,75,155,,,,,,,,
,,5f3ccceaac7ac7b57eb048c8,65af5608ca620457d06d58c2,2024-01-23_08h25.35.571,bars,2023.2.3,Win32,59.88023952,657b66ea316d21385b68909f,,,,,,,,,,,2533.291,2534.2821,,,2534.782,2535.0279,,64,64,,,,,,,,,,,,,,,,bars/007.png,bars/mask004.png,,,,,,,,,,,,5,2,,,,,,,4,6,3,7,,,,,,,,,,,2534.2821,2534.782,2535.0279,2539.2327,space,4.1845,,2539.2328,69,9,2540.2311,2540.2312,2540.2431,,,,0,45,45,45,1,175,55,,,,,,,,
,,5f3ccceaac7ac7b57eb048c8,65af5608ca620457d06d58c2,2024-01-23_08h25.35.571,bars,2023.2.3,Win32,59.88023952,657b66ea316d21385b68909f,,,,,,,,,,,2540.2434,2541.2314,,,2541.7314,2541.9814,,119,119,,,,,,,,,,,,,,,,bars/028.png,bars/mask000.png,,,,,,,,,,,,4,2,,,,,,,6,4,5,4,,,,,,,,,,,2541.2315,2541.7314,2541.9814,2544.9813,space,2.9834,,2544.9813,74,1,2545.9808,2545.9809,2545.993,,,,0,46,46,46,1,45,120,,,,,,,,
,,5f3ccceaac7ac7b57eb048c8,65af5608ca620457d06d58c2,2024-01-23_08h25.35.571,bars,2023.2.3,Win32,59.88023952,657b66ea316d21385b68909f,,,,,,,,,,,2545.9934,2546.9941,,,2547.4978,2547.7477,,115,115,,,,,,,,,,,,,,,,bars/019.png,bars/mask005.png,,,,,,,,,,,,1,2,,,,,,,8,2,7,1,,,,,,,,,,,2546.9941,2547.4978,2547.7477,2554.5666,space,6.8017,,2554.5668,70,10,2555.564,2555.564,2555.5773,,,,0,47,47,47,1,45,105,,,,,,,,
,,5f3ccceaac7ac7b57eb048c8,65af5608ca620457d06d58c2,2024-01-23_08h25.35.571,bars,2023.2.3,Win32,59.88023952,657b66ea316d21385b68909f,,,,,,,,,,,2555.5775,2556.581,,,2557.0809,2557.3304,,154,-26,,,,,,,,,,,,,,,,bars/024.png,bars/mask002.png,,,,,,,,,,,,2,2,,,,,,,6,4,6,4,,,,,,,,,,,2556.581,2557.0807,2557.3305,2559.8147,space,2.4677,,2559.8147,34,16,2560.8132,2560.8133,2560.8148,,,,0,48,48,48,1,120,170,,,,,,,,
,,5f3ccceaac7ac7b57eb048c8,65af5608ca620457d06d58c2,2024-01-23_08h25.35.571,bars,2023.2.3,Win32,59.88023952,657b66ea316d21385b68909f,,,,,,,,,,,2560.8151,2561.8137,,,2562.3134,2562.5644,,152,-28,,,,,,,,,,,,,,,,bars/049.png,bars/mask005.png,,,,,,,,,,,,3,1,,,,,,,4,6,4,5,,,,,,,,,,,2561.8139,2562.3134,2562.5644,2565.9503,space,3.3702,,2565.9503,8,37,2566.9459,2566.9459,2566.9597,,,,0,49,49,49,1,160,115,,,,,,,,
,,5f3ccceaac7ac7b57eb048c8,65af5608ca620457d06d58c2,2024-01-23_08h25.35.571,bars,2023.2.3,Win32,59.88023952,657b66ea316d21385b68909f,,,,,,,,,,,,,,,,,,,,,,,,,,,,,,,,,,,,,,,,,,,,,,,,,,,,,,,,,,,,,,,,,,,,,,,,,,,,,,,,,,,,,,,,,,,,,2566.9599,2626.9574,0,2,2,0,1,sequence_tables/blk033.csv
,,5f3ccceaac7ac7b57eb048c8,65af5608ca620457d06d58c2,2024-01-23_08h25.35.571,bars,2023.2.3,Win32,59.88023952,657b66ea316d21385b68909f,,,,,,,,,,,2823.3501,2824.3339,,,2824.8351,2825.085,,59,59,,,,,,,,,,,,,,,,bars/013.png,bars/mask001.png,,,,,,,,,,,,5,1,,,,,,,10,2,10,0,,,,,,2626.9706,2823.3276,space,196.3485,,2824.3339,2824.8351,2825.085,2830.1693,space,5.0676,,2830.1695,16,49,2831.168,2831.168,2831.1801,,,,0,0,0,0,1,75,10,,,,,,,,
,,5f3ccceaac7ac7b57eb048c8,65af5608ca620457d06d58c2,2024-01-23_08h25.35.571,bars,2023.2.3,Win32,59.88023952,657b66ea316d21385b68909f,,,,,,,,,,,2831.1805,2832.1848,,,2832.6853,2832.9349,,109,109,,,,,,,,,,,,,,,,bars/028.png,bars/mask002.png,,,,,,,,,,,,1,2,,,,,,,10,0,10,1,,,,,,,,,,,2832.185,2832.6852,2832.9357,2836.6871,space,3.7363,,2836.6871,64,11,2837.6835,2837.6835,2837.6967,,,,0,1,1,1,1,45,120,,,,,,,,
,,5f3ccceaac7ac7b57eb048c8,65af5608ca620457d06d58c2,2024-01-23_08h25.35.571,bars,2023.2.3,Win32,59.88023952,657b66ea316d21385b68909f,,,,,,,,,,,2837.697,2838.7009,,,2839.2008,2839.4509,,36,36,,,,,,,,,,,,,,,,bars/010.png,bars/mask006.png,,,,,,,,,,,,0,2,,,,,,,8,2,8,0,,,,,,,,,,,2838.7009,2839.2007,2839.451,2841.6185,space,2.1514,,2841.6185,51,19,2842.6171,2842.6171,2842.6289,,,,0,2,2,2,1,165,55,,,,,,,,
,,5f3ccceaac7ac7b57eb048c8,65af5608ca620457d06d58c2,2024-01-23_08h25.35.571,bars,2023.2.3,Win32,59.88023952,657b66ea316d21385b68909f,,,,,,,,,,,2842.6292,2843.6176,,,2844.1139,2844.3662,,157,-23,,,,,,,,,,,,,,,,bars/003.png,bars/mask003.png,,,,,,,,,,,,0,2,,,,,,,6,0,6,0,,,,,,,,,,,2843.6176,2844.1138,2844.3662,2846.6176,space,2.2337,,2846.6176,48,17,2847.6174,2847.6175,2847.6188,,,,0,3,3,3,1,25,140,,,,,,,,
,,5f3ccceaac7ac7b57eb048c8,65af5608ca620457d06d58c2,2024-01-23_08h25.35.571,bars,2023.2.3,Win32,59.88023952,657b66ea316d21385b68909f,,,,,,,,,,,2847.6192,2848.613,,,2849.1171,2849.3581,,160,-20,,,,,,,,,,,,,,,,bars/040.png,bars/mask006.png,,,,,,,,,,,,3,1,,,,,,,8,0,8,0,,,,,,,,,,,2848.613,2849.1171,2849.3582,2853.634,space,4.2513,,2853.634,20,25,2854.6326,2854.6326,2854.6469,,,,0,4,4,4,1,140,5,,,,,,,,
,,5f3ccceaac7ac7b57eb048c8,65af5608ca620457d06d58c2,2024-01-23_08h25.35.571,bars,2023.2.3,Win32,59.88023952,657b66ea316d21385b68909f,,,,,,,,,,,2854.6472,2855.652,,,2856.1503,2856.3964,,107,107,,,,,,,,,,,,,,,,bars/049.png,bars/mask006.png,,,,,,,,,,,,2,2,,,,,,,6,2,7,3,,,,,,,,,,,2855.652,2856.1501,2856.3965,2859.9508,space,3.5337,,2859.9508,53,8,2860.9493,2860.9494,2860.9642,,,,0,5,5,5,1,160,115,,,,,,,,
,,5f3ccceaac7ac7b57eb048c8,65af5608ca620457d06d58c2,2024-01-23_08h25.35.571,bars,2023.2.3,Win32,59.88023952,657b66ea316d21385b68909f,,,,,,,,,,,2860.9658,2861.9592,,,2862.4587,2862.7085,,18,18,,,,,,,,,,,,,,,,bars/008.png,bars/mask002.png,,,,,,,,,,,,1,2,,,,,,,8,4,6,3,,,,,,,,,,,2861.9592,2862.4586,2862.7085,2868.1587,space,5.435,,2868.1588,88,18,2869.1584,2869.1584,2869.1696,,,,0,6,6,6,1,110,0,,,,,,,,
,,5f3ccceaac7ac7b57eb048c8,65af5608ca620457d06d58c2,2024-01-23_08h25.35.571,bars,2023.2.3,Win32,59.88023952,657b66ea316d21385b68909f,,,,,,,,,,,2869.1698,2870.1583,,,2870.6583,2870.9084,,60,60,,,,,,,,,,,,,,,,bars/007.png,bars/mask008.png,,,,,,,,,,,,3,2,,,,,,,6,2,6,3,,,,,,,,,,,2870.1584,2870.6583,2870.9084,2875.3421,space,4.417,,2875.3422,65,5,2876.341,2876.341,2876.3516,,,,0,7,7,7,1,175,55,,,,,,,,
,,5f3ccceaac7ac7b57eb048c8,65af5608ca620457d06d58c2,2024-01-23_08h25.35.571,bars,2023.2.3,Win32,59.88023952,657b66ea316d21385b68909f,,,,,,,,,,,2876.352,2877.3414,,,2877.8413,2878.0916,,104,104,,,,,,,,,,,,,,,,bars/023.png,bars/mask004.png,,,,,,,,,,,,0,2,,,,,,,8,0,8,0,,,,,,,,,,,2877.3414,2877.8412,2878.0917,2880.6248,space,2.5191,,2880.6249,84,11,2881.6243,2881.6244,2881.6351,,,,0,8,8,8,1,20,115,,,,,,,,
,,5f3ccceaac7ac7b57eb048c8,65af5608ca620457d06d58c2,2024-01-23_08h25.35.571,bars,2023.2.3,Win32,59.88023952,657b66ea316d21385b68909f,,,,,,,,,,,2881.6354,2882.6244,,,2883.1243,2883.3746,,34,34,,,,,,,,,,,,,,,,bars/022.png,bars/mask003.png,,,,,,,,,,,,0,2,,,,,,,6,0,7,0,,,,,,,,,,,2882.6244,2883.1243,2883.3747,2886.391,space,3,,2886.3911,61,14,2887.3905,2887.3906,2887.4012,,,,0,9,9,9,1,95,20,,,,,,,,
,,5f3ccceaac7ac7b57eb048c8,65af5608ca620457d06d58c2,2024-01-23_08h25.35.571,bars,2023.2.3,Win32,59.88023952,657b66ea316d21385b68909f,,,,,,,,,,,2887.4015,2888.3908,,,2888.8907,2889.1406,,145,-35,,,,,,,,,,,,,,,,bars/015.png,bars/mask004.png,,,,,,,,,,,,1,2,,,,,,,8,2,7,2,,,,,,,,,,,2888.3908,2888.8907,2889.1408,2893.2742,space,4.1178,,2893.2743,35,15,2894.274,2894.2741,2894.2848,,,,0,10,10,10,1,110,160,,,,,,,,
,,5f3ccceaac7ac7b57eb048c8,65af5608ca620457d06d58c2,2024-01-23_08h25.35.571,bars,2023.2.3,Win32,59.88023952,657b66ea316d21385b68909f,,,,,,,,,,,2894.2852,2895.2739,,,2895.7746,2896.0236,,37,37,,,,,,,,,,,,,,,,bars/036.png,bars/mask008.png,,,,,,,,,,,,1,2,,,,,,,6,4,6,3,,,,,,,,,,,2895.2739,2895.7745,2896.0236,2902.0745,space,6.042,,2902.0745,72,17,2903.0734,2903.0735,2903.0849,,,,0,11,11,11,1,145,20,,,,,,,,
,,5f3ccceaac7ac7b57eb048c8,65af5608ca620457d06d58c2,2024-01-23_08h25.35.571,bars,2023.2.3,Win32,59.88023952,657b66ea316d21385b68909f,,,,,,,,,,,2903.0852,2904.0735,,,2904.5755,2904.8235,,76,76,,,,,,,,,,,,,,,,bars/021.png,bars/mask000.png,,,,,,,,,,,,0,2,,,,,,,4,2,4,0,,,,,,,,,,,2904.0735,2904.5754,2904.8235,2908.6234,space,3.7858,,2908.6234,79,6,2909.6232,2909.6232,2909.6344,,,,0,12,12,12,1,155,70,,,,,,,,
,,5f3ccceaac7ac7b57eb048c8,65af5608ca620457d06d58c2,2024-01-23_08h25.35.571,bars,2023.2.3,Win32,59.88023952,657b66ea316d21385b68909f,,,,,,,,,,,2909.6347,2910.6242,,,2911.1232,2911.3731,,27,207,,,,,,,,,,,,,,,,bars/012.png,bars/mask000.png,,,,,,,,,,,,2,2,,,,,,,2,4,2,4,,,,,,,,,,,2910.6243,2911.1232,2911.3731,2914.1732,space,2.7868,,2914.1733,63,12,2915.1721,2915.1722,2915.183,,,,0,13,13,13,1,90,15,,,,,,,,
,,5f3ccceaac7ac7b57eb048c8,65af5608ca620457d06d58c2,2024-01-23_08h25.35.571,bars,2023.2.3,Win32,59.88023952,657b66ea316d21385b68909f,,,,,,,,,,,2915.1833,2916.1728,,,2916.673,2916.9228,,131,131,,,,,,,,,,,,,,,,bars/049.png,bars/mask004.png,,,,,,,,,,,,0,2,,,,,,,0,2,0,0,,,,,,,,,,,2916.1728,2916.673,2916.9228,2918.99,space,2.0547,,2918.99,29,16,2919.9893,2919.9894,2920,,,,0,14,14,14,1,160,115,,,,,,,,
,,5f3ccceaac7ac7b57eb048c8,65af5608ca620457d06d58c2,2024-01-23_08h25.35.571,bars,2023.2.3,Win32,59.88023952,657b66ea316d21385b68909f,,,,,,,,,,,2920.0002,2920.9893,,,2921.4892,2921.7394,,128,128,,,,,,,,,,,,,,,,bars/031.png,bars/mask004.png,,,,,,,,,,,,0,1,,,,,,,0,4,0,3,,,,,,,,,,,2920.9893,2921.4892,2921.7394,2923.559,space,1.8105,,2923.5591,8,87,2924.5559,2924.556,2924.5682,,,,0,15,15,15,1,120,35,,,,,,,,
,,5f3ccceaac7ac7b57eb048c8,65af5608ca620457d06d58c2,2024-01-23_08h25.35.571,bars,2023.2.3,Win32,59.88023952,657b66ea316d21385b68909f,,,,,,,,,,,2924.5684,2925.5563,,,2926.0558,2926.306,,24,24,,,,,,,,,,,,,,,,bars/005.png,bars/mask002.png,,,,,,,,,,,,2,1,,,,,,,2,2,3,3,,,,,,,,,,,2925.5563,2926.0558,2926.306,2929.2899,space,2.9674,,2929.29,14,64,2930.2886,2930.2886,2930.2994,,,,0,16,16,16,1,10,140,,,,,,,,
,,5f3ccceaac7ac7b57eb048c8,65af5608ca620457d06d58c2,2024-01-23_08h25.35.571,bars,2023.2.3,Win32,59.88023952,657b66ea316d21385b68909f,,,,,,,,,,,2930.2998,2931.2886,,,2931.7889,2932.039,,110,110,,,,,,,,,,,,,,,,bars/049.png,bars/mask006.png,,,,,,,,,,,,3,2,,,,,,,4,4,2,4,,,,,,,,,,,2931.2886,2931.7888,2932.039,2935.2554,space,3.2036,,2935.2554,50,5,2936.2558,2936.2559,2936.2678,,,,0,17,17,17,1,160,115,,,,,,,,
,,5f3ccceaac7ac7b57eb048c8,65af5608ca620457d06d58c2,2024-01-23_08h25.35.571,bars,2023.2.3,Win32,59.88023952,657b66ea316d21385b68909f,,,,,,,,,,,2936.2681,2937.2716,,,2937.7719,2938.0216,,56,56,,,,,,,,,,,,,,,,bars/038.png,bars/mask000.png,,,,,,,,,,,,2,2,,,,,,,6,2,7,3,,,,,,,,,,,2937.2716,2937.7718,2938.0217,2940.9569,space,2.9272,,2940.9569,71,14,2941.9552,2941.9553,2941.9662,,,,0,18,18,18,1,165,70,,,,,,,,
,,5f3ccceaac7ac7b57eb048c8,65af5608ca620457d06d58c2,2024-01-23_08h25.35.571,bars,2023.2.3,Win32,59.88023952,657b66ea316d21385b68909f,,,,,,,,,,,2941.9664,2942.955,,,2943.455,2943.7049,,141,141,,,,,,,,,,,,,,,,bars/020.png,bars/mask002.png,,,,,,,,,,,,0,1,,,,,,,4,4,3,6,,,,,,,,,,,2942.955,2943.455,2943.7049,2949.906,space,6.1925,,2949.9061,26,29,2950.9046,2950.9046,2950.9174,,,,0,19,19,19,1,115,170,,,,,,,,
,,5f3ccceaac7ac7b57eb048c8,65af5608ca620457d06d58c2,2024-01-23_08h25.35.571,bars,2023.2.3,Win32,59.88023952,657b66ea316d21385b68909f,,,,,,,,,,,2950.9178,2951.921,,,2952.4209,2952.6712,,28,28,,,,,,,,,,,,,,,,bars/025.png,bars/mask004.png,,,,,,,,,,,,1,2,,,,,,,6,2,6,2,,,,,,,,,,,2951.921,2952.4208,2952.6712,2956.3549,space,3.6675,,2956.355,77,12,2957.3541,2957.3541,2957.3659,,,,0,20,20,20,1,105,40,,,,,,,,
,,5f3ccceaac7ac7b57eb048c8,65af5608ca620457d06d58c2,2024-01-23_08h25.35.571,bars,2023.2.3,Win32,59.88023952,657b66ea316d21385b68909f,,,,,,,,,,,2957.3661,2958.3543,,,2958.8547,2959.1044,,124,124,,,,,,,,,,,,,,,,bars/019.png,bars/mask009.png,,,,,,,,,,,,3,2,,,,,,,8,4,10,7,,,,,,,,,,,2958.3543,2958.8546,2959.1044,2964.6705,space,5.5494,,2964.6705,79,19,2965.6705,2965.6706,2965.6823,,,,0,21,21,21,1,45,105,,,,,,,,
,,5f3ccceaac7ac7b57eb048c8,65af5608ca620457d06d58c2,2024-01-23_08h25.35.571,bars,2023.2.3,Win32,59.88023952,657b66ea316d21385b68909f,,,,,,,,,,,2965.6826,2966.6701,,,2967.1703,2967.4205,,11,11,,,,,,,,,,,,,,,,bars/040.png,bars/mask007.png,,,,,,,,,,,,5,2,,,,,,,10,6,10,6,,,,,,,,,,,2966.6701,2967.1703,2967.4205,2969.7875,space,2.351,,2969.7876,51,6,2970.7871,2970.7871,2970.8018,,,,0,22,22,22,1,140,5,,,,,,,,
,,5f3ccceaac7ac7b57eb048c8,65af5608ca620457d06d58c2,2024-01-23_08h25.35.571,bars,2023.2.3,Win32,59.88023952,657b66ea316d21385b68909f,,,,,,,,,,,2970.8044,2971.8037,,,2972.3038,2972.5534,,128,128,,,,,,,,,,,,,,,,bars/000.png,bars/mask009.png,,,,,,,,,,,,1,2,,,,,,,8,4,8,3,,,,,,,,,,,2971.8038,2972.3038,2972.5534,2975.8862,space,3.3182,,2975.8863,88,17,2976.8858,2976.8859,2976.8984,,,,0,23,23,23,1,40,145,,,,,,,,
,,5f3ccceaac7ac7b57eb048c8,65af5608ca620457d06d58c2,2024-01-23_08h25.35.571,bars,2023.2.3,Win32,59.88023952,657b66ea316d21385b68909f,,,,,,,,,,,2976.8987,2977.9025,,,2978.4027,2978.6527,,125,125,,,,,,,,,,,,,,,,bars/043.png,bars/mask001.png,,,,,,,,,,,,7,2,,,,,,,6,6,6,8,,,,,,,,,,,2977.9026,2978.4026,2978.6527,2982.6193,space,3.951,,2982.6194,85,5,2983.6189,2983.619,2983.6312,,,,0,24,24,24,1,30,130,,,,,,,,
,,5f3ccceaac7ac7b57eb048c8,65af5608ca620457d06d58c2,2024-01-23_08h25.35.571,bars,2023.2.3,Win32,59.88023952,657b66ea316d21385b68909f,,,,,,,,,,,2983.6315,2984.6358,,,2985.1354,2985.3853,,110,110,,,,,,,,,,,,,,,,bars/011.png,bars/mask005.png,,,,,,,,,,,,1,2,,,,,,,4,8,5,8,,,,,,,,,,,2984.6358,2985.1353,2985.3853,2988.4364,space,3.0352,,2988.4364,50,25,2989.4354,2989.4355,2989.4472,,,,0,25,25,25,1,160,85,,,,,,,,
,,5f3ccceaac7ac7b57eb048c8,65af5608ca620457d06d58c2,2024-01-23_08h25.35.571,bars,2023.2.3,Win32,59.88023952,657b66ea316d21385b68909f,,,,,,,,,,,2989.4475,2990.4352,,,2990.9354,2991.1854,,153,-27,,,,,,,,,,,,,,,,bars/048.png,bars/mask004.png,,,,,,,,,,,,3,2,,,,,,,6,10,6,10,,,,,,,,,,,2990.4352,2990.9354,2991.1854,2995.2518,space,4.0545,,2995.2519,77,22,2996.2517,2996.2517,2996.2628,,,,0,26,26,26,1,50,175,,,,,,,,
,,5f3ccceaac7ac7b57eb048c8,65af5608ca620457d06d58c2,2024-01-23_08h25.35.571,bars,2023.2.3,Win32,59.88023952,657b66ea316d21385b68909f,,,,,,,,,,,2996.2631,2997.2515,,,2997.7515,2998.0025,,143,-37,,,,,,,,,,,,,,,,bars/043.png,bars/mask002.png,,,,,,,,,,,,4,2,,,,,,,4,8,2,7,,,,,,,,,,,2997.2515,2997.7515,2998.0025,3000.4852,space,2.4672,,3000.4853,67,13,3001.4851,3001.4851,3001.4962,,,,0,27,27,27,1,30,130,,,,,,,,
,,5f3ccceaac7ac7b57eb048c8,65af5608ca620457d06d58c2,2024-01-23_08h25.35.571,bars,2023.2.3,Win32,59.88023952,657b66ea316d21385b68909f,,,,,,,,,,,3001.4964,3002.4848,,,3002.9852,3003.2352,,24,204,,,,,,,,,,,,,,,,bars/008.png,bars/mask008.png,,,,,,,,,,,,2,2,,,,,,,6,10,8,10,,,,,,,,,,,3002.4848,3002.9852,3003.2352,3007.5017,space,4.2507,,3007.5018,86,24,3008.5015,3008.5015,3008.515,,,,0,28,28,28,1,110,0,,,,,,,,
,,5f3ccceaac7ac7b57eb048c8,65af5608ca620457d06d58c2,2024-01-23_08h25.35.571,bars,2023.2.3,Win32,59.88023952,657b66ea316d21385b68909f,,,,,,,,,,,3008.5152,3009.5176,,,3010.0182,3010.2679,,28,28,,,,,,,,,,,,,,,,bars/014.png,bars/mask002.png,,,,,,,,,,,,1,2,,,,,,,8,10,7,10,,,,,,,,,,,3009.5177,3010.0182,3010.268,3013.5676,space,3.2885,,3013.5677,52,28,3014.5676,3014.5677,3014.5789,,,,0,29,29,29,1,80,0,,,,,,,,
,,5f3ccceaac7ac7b57eb048c8,65af5608ca620457d06d58c2,2024-01-23_08h25.35.571,bars,2023.2.3,Win32,59.88023952,657b66ea316d21385b68909f,,,,,,,,,,,3014.5792,3015.5676,,,3016.0681,3016.3176,,122,122,,,,,,,,,,,,,,,,bars/049.png,bars/mask007.png,,,,,,,,,,,,8,2,,,,,,,6,10,6,10,,,,,,,,,,,3015.5679,3016.068,3016.3176,3021.1866,space,4.8586,,3021.1867,38,7,3022.1839,3022.184,3022.195,,,,0,30,30,30,1,160,115,,,,,,,,
,,5f3ccceaac7ac7b57eb048c8,65af5608ca620457d06d58c2,2024-01-23_08h25.35.571,bars,2023.2.3,Win32,59.88023952,657b66ea316d21385b68909f,,,,,,,,,,,3022.1953,3023.1839,,,3023.684,3023.9337,,168,168,,,,,,,,,,,,,,,,bars/033.png,bars/mask009.png,,,,,,,,,,,,5,2,,,,,,,8,8,10,9,,,,,,,,,,,3023.1839,3023.6838,3023.9338,3026.6171,space,2.6721,,3026.6171,37,13,3027.6173,3027.6173,3027.6286,,,,0,31,31,31,1,25,155,,,,,,,,
,,5f3ccceaac7ac7b57eb048c8,65af5608ca620457d06d58c2,2024-01-23_08h25.35.571,bars,2023.2.3,Win32,59.88023952,657b66ea316d21385b68909f,,,,,,,,,,,3027.6309,3028.6337,,,3029.1337,3029.3833,,20,20,,,,,,,,,,,,,,,,bars/048.png,bars/mask000.png,,,,,,,,,,,,1,2,,,,,,,10,6,10,6,,,,,,,,,,,3028.6337,3029.1337,3029.3834,3031.4335,space,2.0345,,3031.4336,30,25,3032.4335,3032.4335,3032.4446,,,,0,32,32,32,1,50,175,,,,,,,,
,,5f3ccceaac7ac7b57eb048c8,65af5608ca620457d06d58c2,2024-01-23_08h25.35.571,bars,2023.2.3,Win32,59.88023952,657b66ea316d21385b68909f,,,,,,,,,,,3032.4449,3033.4337,,,3033.9334,3034.1835,,108,108,,,,,,,,,,,,,,,,bars/009.png,bars/mask000.png,,,,,,,,,,,,6,2,,,,,,,10,8,10,7,,,,,,,,,,,3033.4338,3033.9334,3034.1835,3036.95,space,2.7509,,3036.95,87,3,3037.9495,3037.9496,3037.9611,,,,0,33,33,33,1,15,105,,,,,,,,
,,5f3ccceaac7ac7b57eb048c8,65af5608ca620457d06d58c2,2024-01-23_08h25.35.571,bars,2023.2.3,Win32,59.88023952,657b66ea316d21385b68909f,,,,,,,,,,,3037.9615,3038.9499,,,3039.4495,3039.6999,,53,53,,,,,,,,,,,,,,,,bars/007.png,bars/mask001.png,,,,,,,,,,,,6,2,,,,,,,8,6,7,6,,,,,,,,,,,3038.9499,3039.4495,3039.6999,3043.233,space,3.5175,,3043.233,58,2,3044.2328,3044.2328,3044.2436,,,,0,34,34,34,1,175,55,,,,,,,,
,,5f3ccceaac7ac7b57eb048c8,65af5608ca620457d06d58c2,2024-01-23_08h25.35.571,bars,2023.2.3,Win32,59.88023952,657b66ea316d21385b68909f,,,,,,,,,,,3044.2439,3045.2329,,,3045.733,3045.9824,,38,38,,,,,,,,,,,,,,,,bars/017.png,bars/mask004.png,,,,,,,,,,,,4,2,,,,,,,10,4,10,5,,,,,,,,,,,3045.2329,3045.7329,3045.9824,3050.9162,space,4.9155,,3050.9163,73,7,3051.9159,3051.916,3051.927,,,,0,35,35,35,1,145,45,,,,,,,,
,,5f3ccceaac7ac7b57eb048c8,65af5608ca620457d06d58c2,2024-01-23_08h25.35.571,bars,2023.2.3,Win32,59.88023952,657b66ea316d21385b68909f,,,,,,,,,,,3051.9273,3052.9156,,,3053.4172,3053.6662,,109,109,,,,,,,,,,,,,,,,bars/001.png,bars/mask004.png,,,,,,,,,,,,3,1,,,,,,,10,6,10,8,,,,,,,,,,,3052.9157,3053.416,3053.6663,3058.833,space,5.1509,,3058.8331,21,24,3059.8321,3059.8321,3059.8442,,,,0,36,36,36,1,130,85,,,,,,,,
,,5f3ccceaac7ac7b57eb048c8,65af5608ca620457d06d58c2,2024-01-23_08h25.35.571,bars,2023.2.3,Win32,59.88023952,657b66ea316d21385b68909f,,,,,,,,,,,3059.8446,3060.8324,,,3061.3325,3061.5824,,101,101,,,,,,,,,,,,,,,,bars/002.png,bars/mask002.png,,,,,,,,,,,,1,2,,,,,,,10,4,10,3,,,,,,,,,,,3060.8325,3061.3325,3061.5825,3066.4324,space,4.8388,,3066.4326,29,16,3067.4313,3067.4314,3067.4447,,,,0,37,37,37,1,130,85,,,,,,,,
,,5f3ccceaac7ac7b57eb048c8,65af5608ca620457d06d58c2,2024-01-23_08h25.35.571,bars,2023.2.3,Win32,59.88023952,657b66ea316d21385b68909f,,,,,,,,,,,3067.4451,3068.4499,,,3068.9485,3069.1982,,45,45,,,,,,,,,,,,,,,,bars/038.png,bars/mask005.png,,,,,,,,,,,,0,2,,,,,,,8,2,7,3,,,,,,,,,,,3068.4499,3068.9485,3069.1982,3076.3653,space,7.1504,,3076.3654,60,25,3077.3647,3077.3648,3077.3764,,,,0,38,38,38,1,165,70,,,,,,,,
,,5f3ccceaac7ac7b57eb048c8,65af5608ca620457d06d58c2,2024-01-23_08h25.35.571,bars,2023.2.3,Win32,59.88023952,657b66ea316d21385b68909f,,,,,,,,,,,3077.3767,3078.3644,,,3078.865,3079.1148,,107,107,,,,,,,,,,,,,,,,bars/019.png,bars/mask006.png,,,,,,,,,,,,4,2,,,,,,,10,4,8,4,,,,,,,,,,,3078.3645,3078.865,3079.1148,3083.2646,space,4.1345,,3083.2647,62,2,3084.2638,3084.2639,3084.2748,,,,0,39,39,39,1,45,105,,,,,,,,
,,5f3ccceaac7ac7b57eb048c8,65af5608ca620457d06d58c2,2024-01-23_08h25.35.571,bars,2023.2.3,Win32,59.88023952,657b66ea316d21385b68909f,,,,,,,,,,,3084.2751,3085.2644,,,3085.765,3086.0147,,172,172,,,,,,,,,,,,,,,,bars/014.png,bars/mask007.png,,,,,,,,,,,,2,2,,,,,,,8,2,7,3,,,,,,,,,,,3085.2645,3085.7649,3086.0147,3088.981,space,2.9495,,3088.9811,88,8,3089.9807,3089.9807,3089.992,,,,0,40,40,40,1,80,0,,,,,,,,
,,5f3ccceaac7ac7b57eb048c8,65af5608ca620457d06d58c2,2024-01-23_08h25.35.571,bars,2023.2.3,Win32,59.88023952,657b66ea316d21385b68909f,,,,,,,,,,,3089.9923,3090.9812,,,3091.4805,3091.7308,,38,218,,,,,,,,,,,,,,,,bars/029.png,bars/mask009.png,,,,,,,,,,,,3,2,,,,,,,6,4,6,4,,,,,,,,,,,3090.9813,3091.4805,3091.7308,3093.7977,space,2.0514,,3093.7977,52,7,3094.7972,3094.7973,3094.8092,,,,0,41,41,41,1,90,45,,,,,,,,
,,5f3ccceaac7ac7b57eb048c8,65af5608ca620457d06d58c2,2024-01-23_08h25.35.571,bars,2023.2.3,Win32,59.88023952,657b66ea316d21385b68909f,,,,,,,,,,,3094.8096,3095.7972,,,3096.2978,3096.5475,,162,-18,,,,,,,,,,,,,,,,bars/045.png,bars/mask007.png,,,,,,,,,,,,0,2,,,,,,,4,6,5,5,,,,,,,,,,,3095.7972,3096.2978,3096.5476,3101.2304,space,4.6674,,3101.2305,62,28,3102.2299,3102.23,3102.2409,,,,0,42,42,42,1,100,10,,,,,,,,
,,5f3ccceaac7ac7b57eb048c8,65af5608ca620457d06d58c2,2024-01-23_08h25.35.571,bars,2023.2.3,Win32,59.88023952,657b66ea316d21385b68909f,,,,,,,,,,,3102.2413,3103.2307,,,3103.7301,3103.98,,21,21,,,,,,,,,,,,,,,,bars/007.png,bars/mask004.png,,,,,,,,,,,,0,1,,,,,,,2,4,1,3,,,,,,,,,,,3103.2308,3103.7301,3103.98,3105.3636,space,1.3681,,3105.3637,26,34,3106.3632,3106.3632,3106.3781,,,,0,43,43,43,1,175,55,,,,,,,,
,,5f3ccceaac7ac7b57eb048c8,65af5608ca620457d06d58c2,2024-01-23_08h25.35.571,bars,2023.2.3,Win32,59.88023952,657b66ea316d21385b68909f,,,,,,,,,,,3106.3785,3107.3798,,,3107.8802,3108.1297,,165,-15,,,,,,,,,,,,,,,,bars/048.png,bars/mask005.png,,,,,,,,,,,,5,2,,,,,,,0,6,0,7,,,,,,,,,,,3107.3799,3107.8801,3108.1298,3109.7134,space,1.5705,,3109.7135,65,10,3110.7133,3110.7134,3110.7282,,,,0,44,44,44,1,50,175,,,,,,,,
,,5f3ccceaac7ac7b57eb048c8,65af5608ca620457d06d58c2,2024-01-23_08h25.35.571,bars,2023.2.3,Win32,59.88023952,657b66ea316d21385b68909f,,,,,,,,,,,3110.7286,3111.7296,,,3112.2296,3112.4795,,15,15,,,,,,,,,,,,,,,,bars/032.png,bars/mask000.png,,,,,,,,,,,,8,2,,,,,,,0,8,0,9,,,,,,,,,,,3111.7296,3112.2295,3112.4796,3115.4132,space,2.9179,,3115.4132,70,5,3116.4135,3116.4136,3116.4257,,,,0,45,45,45,1,125,20,,,,,,,,
,,5f3ccceaac7ac7b57eb048c8,65af5608ca620457d06d58c2,2024-01-23_08h25.35.571,bars,2023.2.3,Win32,59.88023952,657b66ea316d21385b68909f,,,,,,,,,,,3116.4259,3117.4294,,,3117.9299,3118.1796,,64,64,,,,,,,,,,,,,,,,bars/038.png,bars/mask001.png,,,,,,,,,,,,6,2,,,,,,,0,6,0,7,,,,,,,,,,,3117.4295,3117.9298,3118.1796,3120.1152,space,1.9252,,3120.1153,79,6,3121.1131,3121.1132,3121.1241,,,,0,46,46,46,1,165,70,,,,,,,,
,,5f3ccceaac7ac7b57eb048c8,65af5608ca620457d06d58c2,2024-01-23_08h25.35.571,bars,2023.2.3,Win32,59.88023952,657b66ea316d21385b68909f,,,,,,,,,,,3121.1246,3122.1126,,,3122.6124,3122.8626,,63,63,,,,,,,,,,,,,,,,bars/035.png,bars/mask008.png,,,,,,,,,,,,6,2,,,,,,,2,8,3,7,,,,,,,,,,,3122.1127,3122.6124,3122.8626,3125.5817,space,2.709,,3125.5818,68,3,3126.5789,3126.5789,3126.5913,,,,0,47,47,47,1,175,60,,,,,,,,
,,5f3ccceaac7ac7b57eb048c8,65af5608ca620457d06d58c2,2024-01-23_08h25.35.571,bars,2023.2.3,Win32,59.88023952,657b66ea316d21385b68909f,,,,,,,,,,,3126.5915,3127.5956,,,3128.096,3128.3458,,11,11,,,,,,,,,,,,,,,,bars/024.png,bars/mask003.png,,,,,,,,,,,,2,2,,,,,,,0,6,0,5,,,,,,,,,,,3127.5956,3128.0958,3128.3458,3130.879,space,2.5175,,3130.8791,71,21,3131.8788,3131.8789,3131.8908,,,,0,48,48,48,1,120,170,,,,,,,,
,,5f3ccceaac7ac7b57eb048c8,65af5608ca620457d06d58c2,2024-01-23_08h25.35.571,bars,2023.2.3,Win32,59.88023952,657b66ea316d21385b68909f,,,,,,,,,,,3131.891,3132.8952,,,3133.3955,3133.645,,120,120,,,,,,,,,,,,,,,,bars/023.png,bars/mask006.png,,,,,,,,,,,,6,2,,,,,,,0,8,1,7,,,,,,,,,,,3132.8952,3133.3955,3133.645,3136.064,space,2.4089,,3136.064,80,5,3137.062,3137.062,3137.0735,,,,0,49,49,49,1,20,115,,,,,,,,
,,5f3ccceaac7ac7b57eb048c8,65af5608ca620457d06d58c2,2024-01-23_08h25.35.571,bars,2023.2.3,Win32,59.88023952,657b66ea316d21385b68909f,,,,,,,,,,,,,,,,,,,,,,,,,,,,,,,,,,,,,,,,,,,,,,,,,,,,,,,,,,,,,,,,,,,,,,,,,,,,,,,,,,,,,,,,,,,,,3137.0737,3197.076,0,3,3,3,1,sequence_tables/blk013.csv
,,5f3ccceaac7ac7b57eb048c8,65af5608ca620457d06d58c2,2024-01-23_08h25.35.571,bars,2023.2.3,Win32,59.88023952,657b66ea316d21385b68909f,,,,,,,,,,,3466.1002,3467.0965,,,3467.5964,3467.8464,,100,100,,,,,,,,,,,,,,,,bars/001.png,bars/mask001.png,,,,,,,,,,,,5,2,,,,,,,1,9,1,9,,,,,,3197.0883,3466.0801,space,268.9824,,3467.0966,3467.5963,3467.8464,3471.1635,space,3.301,,3471.1636,30,15,3472.1629,3472.1629,3472.1743,,,,0,0,0,0,1,130,85,,,,,,,,
,,5f3ccceaac7ac7b57eb048c8,65af5608ca620457d06d58c2,2024-01-23_08h25.35.571,bars,2023.2.3,Win32,59.88023952,657b66ea316d21385b68909f,,,,,,,,,,,3472.1746,3473.163,,,3473.6636,3473.9136,,141,-39,,,,,,,,,,,,,,,,bars/004.png,bars/mask006.png,,,,,,,,,,,,5,2,,,,,,,0,10,1,10,,,,,,,,,,,3473.1631,3473.6636,3473.9136,3476.9797,space,3.0551,,3476.9798,64,16,3477.9792,3477.9793,3477.9915,,,,0,1,1,1,1,25,125,,,,,,,,
,,5f3ccceaac7ac7b57eb048c8,65af5608ca620457d06d58c2,2024-01-23_08h25.35.571,bars,2023.2.3,Win32,59.88023952,657b66ea316d21385b68909f,,,,,,,,,,,3477.9918,3478.9796,,,3479.4792,3479.7293,,47,47,,,,,,,,,,,,,,,,bars/030.png,bars/mask002.png,,,,,,,,,,,,3,2,,,,,,,0,8,0,8,,,,,,,,,,,3478.9796,3479.4791,3479.7293,3482.2635,space,2.5218,,3482.2636,87,18,3483.2627,3483.2628,3483.2737,,,,0,2,2,2,1,140,65,,,,,,,,
,,5f3ccceaac7ac7b57eb048c8,65af5608ca620457d06d58c2,2024-01-23_08h25.35.571,bars,2023.2.3,Win32,59.88023952,657b66ea316d21385b68909f,,,,,,,,,,,3483.2739,3484.2632,,,3484.7628,3485.0129,,68,68,,,,,,,,,,,,,,,,bars/011.png,bars/mask006.png,,,,,,,,,,,,4,2,,,,,,,2,10,1,9,,,,,,,,,,,3484.2633,3484.7628,3485.0129,3487.5789,space,2.5493,,3487.5789,88,17,3488.5793,3488.5794,3488.5904,,,,0,3,3,3,1,160,85,,,,,,,,
,,5f3ccceaac7ac7b57eb048c8,65af5608ca620457d06d58c2,2024-01-23_08h25.35.571,bars,2023.2.3,Win32,59.88023952,657b66ea316d21385b68909f,,,,,,,,,,,3488.5906,3489.579,,,3490.0791,3490.3287,,125,125,,,,,,,,,,,,,,,,bars/044.png,bars/mask007.png,,,,,,,,,,,,0,2,,,,,,,0,10,0,10,,,,,,,,,,,3489.579,3490.0791,3490.3288,3493.7968,space,3.4581,,3493.7969,50,30,3494.7954,3494.7954,3494.8067,,,,0,4,4,4,1,75,155,,,,,,,,
,,5f3ccceaac7ac7b57eb048c8,65af5608ca620457d06d58c2,2024-01-23_08h25.35.571,bars,2023.2.3,Win32,59.88023952,657b66ea316d21385b68909f,,,,,,,,,,,3494.807,3495.7956,,,3496.2958,3496.5463,,108,108,,,,,,,,,,,,,,,,bars/041.png,bars/mask007.png,,,,,,,,,,,,2,2,,,,,,,0,10,1,9,,,,,,,,,,,3495.7957,3496.2957,3496.5463,3499.4125,space,2.8542,,3499.4125,88,23,3500.412,3500.412,3500.4232,,,,0,5,5,5,1,20,85,,,,,,,,
,,5f3ccceaac7ac7b57eb048c8,65af5608ca620457d06d58c2,2024-01-23_08h25.35.571,bars,2023.2.3,Win32,59.88023952,657b66ea316d21385b68909f,,,,,,,,,,,3500.4235,3501.4126,,,3501.9124,3502.162,,151,151,,,,,,,,,,,,,,,,bars/015.png,bars/mask009.png,,,,,,,,,,,,6,2,,,,,,,2,10,2,9,,,,,,,,,,,3501.4127,3501.9123,3502.1621,3504.3119,space,2.1348,,3504.312,41,9,3505.3114,3505.3115,3505.3227,,,,0,6,6,6,1,110,160,,,,,,,,
,,5f3ccceaac7ac7b57eb048c8,65af5608ca620457d06d58c2,2024-01-23_08h25.35.571,bars,2023.2.3,Win32,59.88023952,657b66ea316d21385b68909f,,,,,,,,,,,3505.323,3506.3118,,,3506.8118,3507.0618,,150,-30,,,,,,,,,,,,,,,,bars/015.png,bars/mask004.png,,,,,,,,,,,,5,2,,,,,,,0,8,0,8,,,,,,,,,,,3506.3118,3506.8117,3507.0618,3509.6121,space,2.534,,3509.6122,40,10,3510.6112,3510.6113,3510.6217,,,,0,7,7,7,1,110,160,,,,,,,,
,,5f3ccceaac7ac7b57eb048c8,65af5608ca620457d06d58c2,2024-01-23_08h25.35.571,bars,2023.2.3,Win32,59.88023952,657b66ea316d21385b68909f,,,,,,,,,,,3510.622,3511.6118,,,3512.1112,3512.3612,,39,39,,,,,,,,,,,,,,,,bars/031.png,bars/mask006.png,,,,,,,,,,,,8,2,,,,,,,0,10,0,9,,,,,,,,,,,3511.6118,3512.1112,3512.3613,3515.2614,space,2.8848,,3515.2616,81,4,3516.2611,3516.2612,3516.2729,,,,0,8,8,8,1,120,35,,,,,,,,
,,5f3ccceaac7ac7b57eb048c8,65af5608ca620457d06d58c2,2024-01-23_08h25.35.571,bars,2023.2.3,Win32,59.88023952,657b66ea316d21385b68909f,,,,,,,,,,,3516.2731,3517.2608,,,3517.7615,3518.0108,,55,55,,,,,,,,,,,,,,,,bars/037.png,bars/mask008.png,,,,,,,,,,,,0,2,,,,,,,2,10,3,10,,,,,,,,,,,3517.2608,3517.7615,3518.0108,3520.9944,space,2.9676,,3520.9944,85,50,3521.9947,3521.9948,3522.0059,,,,0,9,9,9,1,150,105,,,,,,,,
