init_variables.started,init_variables.stopped,participant,session,date,expName,psychopyVersion,OS,frameRate,study_id,instruction_exp.started,instruction_exp.stopped,key_resp_8.keys,key_resp_8.rt,key_resp_8.duration,instruction_single.started,instruction_single.stopped,key_resp_2.keys,key_resp_2.rt,key_resp_2.duration,interval.started,interval.stopped,cue_single.started,cue_single.stopped,mask.started,mask.stopped,ori_response_single.started,res_ori,res,ori_response_single.stopped,key_resp_single.keys,key_resp_single.rt,key_resp_single.duration,disp_single.started,disp_single.stopped,key_resp.keys,key_resp.rt,key_resp.duration,single.thisRepN,single.thisTrialN,single.thisN,single.thisIndex,single.ran,ori,path,mask_path,instruction_bandit.started,instruction_bandit.stopped,key_resp_6.keys,key_resp_6.rt,key_resp_6.duration,cue_bandit.started,cue_bandit.stopped,bandit_res.keys,bandit_res.rt,bandit_res.duration,outcome_bandit.started,rew,action,outcome_bandit.stopped,bandit.thisRepN,bandit.thisTrialN,bandit.thisN,bandit.thisIndex,bandit.ran,actual_rew1,actual_rew2,rew1,rew2,instruction_task.started,instruction_task.stopped,key_resp_7.keys,key_resp_7.rt,key_resp_7.duration,wait_ready.started,wait_ready.stopped,key_resp_3.keys,key_resp_3.rt,key_resp_3.duration,cue.started,cue.stopped,ori_response.started,ori_response.stopped,key_resp_5.keys,key_resp_5.rt,key_resp_5.duration,outcome.started,diff1,diff2,outcome.stopped,disp_outcome_practice.started,disp_outcome_practice.stopped,key_resp_4.keys,key_resp_4.rt,key_resp_4.duration,trials.thisRepN,trials.thisTrialN,trials.thisN,trials.thisIndex,trials.ran,ori1,ori2,break_blk.started,break_blk.stopped,block.thisRepN,block.thisTrialN,block.thisN,block.thisIndex,block.ran,condition_file
0.0003,0.0006,5fc1bc2bf8b6b92c35064e2d,65af5485ebaa6ae4e2c7562a,2024-01-22_23h56.21.390,bars,2023.2.3,Win32,59.75143403,657b66ea316d21385b68909f,,,,,,,,,,,,,,,,,,,,,,,,,,,,,,,,,,,,,,,,,,,,,,,,,,,,,,,,,,,,,,,,,,,,,,,,,,,,,,,,,,,,,,,,,,,,,,,,,,,,
,,5fc1bc2bf8b6b92c35064e2d,65af5485ebaa6ae4e2c7562a,2024-01-22_23h56.21.390,bars,2023.2.3,Win32,59.75143403,657b66ea316d21385b68909f,0.0009,20.5883,y,20.5486,,,,,,,,,,,,,,,,,,,,,,,,,,,,,,,,,,,,,,,,,,,,,,,,,,,,,,,,,,,,,,,,,,,,,,,,,,,,,,,,,,,,,,,,,,,,,,,,
,,5fc1bc2bf8b6b92c35064e2d,65af5485ebaa6ae4e2c7562a,2024-01-22_23h56.21.390,bars,2023.2.3,Win32,59.75143403,657b66ea316d21385b68909f,,,,,,20.5885,57.8016,space,37.1939,,,,,,,,,,,,,,,,,,,,,,,,,,,,,,,,,,,,,,,,,,,,,,,,,,,,,,,,,,,,,,,,,,,,,,,,,,,,,,,,,,,,,,,,,,,
,,5fc1bc2bf8b6b92c35064e2d,65af5485ebaa6ae4e2c7562a,2024-01-22_23h56.21.390,bars,2023.2.3,Win32,59.75143403,657b66ea316d21385b68909f,,,,,,,,,,,57.8236,58.8026,58.8028,59.2924,59.2927,59.5434,59.5436,35,35,68.5889,space,9.0086,,68.5892,82.7941,space,14.1571,,0,0,0,5,1,55,bars/single005.png,bars/mask008.png,,,,,,,,,,,,,,,,,,,,,,,,,,,,,,,,,,,,,,,,,,,,,,,,,,,,,,,,,,,,,,,,
,,5fc1bc2bf8b6b92c35064e2d,65af5485ebaa6ae4e2c7562a,2024-01-22_23h56.21.390,bars,2023.2.3,Win32,59.75143403,657b66ea316d21385b68909f,,,,,,,,,,,82.8074,83.7997,83.7998,84.3018,84.3019,84.5517,84.5519,145,145,89.3844,space,4.8157,,89.3845,93.9326,space,4.5181,,0,1,1,7,1,45,bars/single007.png,bars/mask009.png,,,,,,,,,,,,,,,,,,,,,,,,,,,,,,,,,,,,,,,,,,,,,,,,,,,,,,,,,,,,,,,,
,,5fc1bc2bf8b6b92c35064e2d,65af5485ebaa6ae4e2c7562a,2024-01-22_23h56.21.390,bars,2023.2.3,Win32,59.75143403,657b66ea316d21385b68909f,,,,,,,,,,,93.9455,94.9454,94.9455,95.4473,95.4474,95.6862,95.6864,131,131,97.9267,space,2.2237,,97.9268,100.3008,space,2.3549,,0,2,2,2,1,145,bars/single002.png,bars/mask003.png,,,,,,,,,,,,,,,,,,,,,,,,,,,,,,,,,,,,,,,,,,,,,,,,,,,,,,,,,,,,,,,,
,,5fc1bc2bf8b6b92c35064e2d,65af5485ebaa6ae4e2c7562a,2024-01-22_23h56.21.390,bars,2023.2.3,Win32,59.75143403,657b66ea316d21385b68909f,,,,,,,,,,,100.3016,101.3034,101.3036,101.8045,101.8047,102.0554,102.0556,131,131,105.583,space,3.5115,,105.5831,109.8064,space,4.1951,,0,3,3,0,1,150,bars/single000.png,bars/mask006.png,,,,,,,,,,,,,,,,,,,,,,,,,,,,,,,,,,,,,,,,,,,,,,,,,,,,,,,,,,,,,,,,
,,5fc1bc2bf8b6b92c35064e2d,65af5485ebaa6ae4e2c7562a,2024-01-22_23h56.21.390,bars,2023.2.3,Win32,59.75143403,657b66ea316d21385b68909f,,,,,,,,,,,109.8203,110.8157,110.8158,111.3169,111.3169,111.5683,111.5683,12,12,113.9753,space,2.3909,,113.9754,121.0805,space,7.0873,,0,4,4,1,1,20,bars/single001.png,bars/mask006.png,,,,,,,,,,,,,,,,,,,,,,,,,,,,,,,,,,,,,,,,,,,,,,,,,,,,,,,,,,,,,,,,
,,5fc1bc2bf8b6b92c35064e2d,65af5485ebaa6ae4e2c7562a,2024-01-22_23h56.21.390,bars,2023.2.3,Win32,59.75143403,657b66ea316d21385b68909f,,,,,,,,,,,121.0933,122.0831,122.0833,122.5843,122.5844,122.8352,122.8354,46,226,129.0548,space,6.2028,,129.0549,135.6581,space,6.5744,,0,5,5,9,1,20,bars/single009.png,bars/mask006.png,,,,,,,,,,,,,,,,,,,,,,,,,,,,,,,,,,,,,,,,,,,,,,,,,,,,,,,,,,,,,,,,
,,5fc1bc2bf8b6b92c35064e2d,65af5485ebaa6ae4e2c7562a,2024-01-22_23h56.21.390,bars,2023.2.3,Win32,59.75143403,657b66ea316d21385b68909f,,,,,,,,,,,135.6711,136.6607,136.6608,137.162,137.162,137.4126,137.4131,104,104,141.1243,space,3.6955,,141.1244,144.6521,space,3.4984,,0,6,6,4,1,95,bars/single004.png,bars/mask004.png,,,,,,,,,,,,,,,,,,,,,,,,,,,,,,,,,,,,,,,,,,,,,,,,,,,,,,,,,,,,,,,,
,,5fc1bc2bf8b6b92c35064e2d,65af5485ebaa6ae4e2c7562a,2024-01-22_23h56.21.390,bars,2023.2.3,Win32,59.75143403,657b66ea316d21385b68909f,,,,,,,,,,,144.6649,145.655,145.6552,146.1561,146.1561,146.4022,146.4022,10,190,151.3512,space,4.9325,,151.3512,153.0227,space,1.6436,,0,7,7,6,1,175,bars/single006.png,bars/mask005.png,,,,,,,,,,,,,,,,,,,,,,,,,,,,,,,,,,,,,,,,,,,,,,,,,,,,,,,,,,,,,,,,
,,5fc1bc2bf8b6b92c35064e2d,65af5485ebaa6ae4e2c7562a,2024-01-22_23h56.21.390,bars,2023.2.3,Win32,59.75143403,657b66ea316d21385b68909f,,,,,,,,,,,153.0238,154.025,154.0252,154.5267,154.5268,154.7776,154.7776,143,143,157.7209,space,2.9265,,157.7212,158.8403,space,1.1031,,0,8,8,8,1,160,bars/single008.png,bars/mask004.png,,,,,,,,,,,,,,,,,,,,,,,,,,,,,,,,,,,,,,,,,,,,,,,,,,,,,,,,,,,,,,,,
,,5fc1bc2bf8b6b92c35064e2d,65af5485ebaa6ae4e2c7562a,2024-01-22_23h56.21.390,bars,2023.2.3,Win32,59.75143403,657b66ea316d21385b68909f,,,,,,,,,,,158.8415,159.8428,159.843,160.3446,160.3446,160.5951,160.5952,23,23,162.4845,space,1.873,,162.4845,163.9395,space,1.4377,,0,9,9,3,1,20,bars/single003.png,bars/mask005.png,,,,,,,,,,,,,,,,,,,,,,,,,,,,,,,,,,,,,,,,,,,,,,,,,,,,,,,,,,,,,,,,
,,5fc1bc2bf8b6b92c35064e2d,65af5485ebaa6ae4e2c7562a,2024-01-22_23h56.21.390,bars,2023.2.3,Win32,59.75143403,657b66ea316d21385b68909f,,,,,,,,,,,,,,,,,,,,,,,,,,,,,,,,,,,,,163.9408,184.0729,space,20.111,,,,,,,,,,,,,,,,,,,,,,,,,,,,,,,,,,,,,,,,,,,,,,,,,,,,,,,,,,,,
,,5fc1bc2bf8b6b92c35064e2d,65af5485ebaa6ae4e2c7562a,2024-01-22_23h56.21.390,bars,2023.2.3,Win32,59.75143403,657b66ea316d21385b68909f,,,,,,,,,,,,,,,,,,,,,,,,,,,,,,,,,,,,,,,,,,184.0889,188.954,left,4.8421,,188.9544,9,1,189.9561,0,0,0,0,1,9,1,9,2,,,,,,,,,,,,,,,,,,,,,,,,,,,,,,,,,,,,,,,,,
,,5fc1bc2bf8b6b92c35064e2d,65af5485ebaa6ae4e2c7562a,2024-01-22_23h56.21.390,bars,2023.2.3,Win32,59.75143403,657b66ea316d21385b68909f,,,,,,,,,,,,,,,,,,,,,,,,,,,,,,,,,,,,,,,,,,189.9573,192.2302,left,2.2598,,192.2303,10,1,193.2327,0,1,1,1,1,10,0,10,1,,,,,,,,,,,,,,,,,,,,,,,,,,,,,,,,,,,,,,,,,
,,5fc1bc2bf8b6b92c35064e2d,65af5485ebaa6ae4e2c7562a,2024-01-22_23h56.21.390,bars,2023.2.3,Win32,59.75143403,657b66ea316d21385b68909f,,,,,,,,,,,,,,,,,,,,,,,,,,,,,,,,,,,,,,,,,,193.2465,195.2223,left,1.9588,,195.2224,10,1,196.2248,0,2,2,2,1,10,2,10,2,,,,,,,,,,,,,,,,,,,,,,,,,,,,,,,,,,,,,,,,,
,,5fc1bc2bf8b6b92c35064e2d,65af5485ebaa6ae4e2c7562a,2024-01-22_23h56.21.390,bars,2023.2.3,Win32,59.75143403,657b66ea316d21385b68909f,,,,,,,,,,,,,,,,,,,,,,,,,,,,,,,,,,,,,,,,,,196.2377,197.9974,left,1.7443,,197.9975,7,1,199.0001,0,3,3,3,1,8,4,7,3,,,,,,,,,,,,,,,,,,,,,,,,,,,,,,,,,,,,,,,,,
,,5fc1bc2bf8b6b92c35064e2d,65af5485ebaa6ae4e2c7562a,2024-01-22_23h56.21.390,bars,2023.2.3,Win32,59.75143403,657b66ea316d21385b68909f,,,,,,,,,,,,,,,,,,,,,,,,,,,,,,,,,,,,,,,,,,199.0008,200.2374,left,1.2205,,200.2375,5,1,201.2402,0,4,4,4,1,6,2,5,1,,,,,,,,,,,,,,,,,,,,,,,,,,,,,,,,,,,,,,,,,
,,5fc1bc2bf8b6b92c35064e2d,65af5485ebaa6ae4e2c7562a,2024-01-22_23h56.21.390,bars,2023.2.3,Win32,59.75143403,657b66ea316d21385b68909f,,,,,,,,,,,,,,,,,,,,,,,,,,,,,,,,,,,,,,,,,,201.2415,201.8082,right,0.5524,,201.8086,4,2,202.8117,0,5,5,5,1,4,4,4,4,,,,,,,,,,,,,,,,,,,,,,,,,,,,,,,,,,,,,,,,,
,,5fc1bc2bf8b6b92c35064e2d,65af5485ebaa6ae4e2c7562a,2024-01-22_23h56.21.390,bars,2023.2.3,Win32,59.75143403,657b66ea316d21385b68909f,,,,,,,,,,,,,,,,,,,,,,,,,,,,,,,,,,,,,,,,,,202.8128,203.6476,left,0.8201,,203.6477,1,1,204.6507,0,6,6,6,1,2,2,1,2,,,,,,,,,,,,,,,,,,,,,,,,,,,,,,,,,,,,,,,,,
,,5fc1bc2bf8b6b92c35064e2d,65af5485ebaa6ae4e2c7562a,2024-01-22_23h56.21.390,bars,2023.2.3,Win32,59.75143403,657b66ea316d21385b68909f,,,,,,,,,,,,,,,,,,,,,,,,,,,,,,,,,,,,,,,,,,204.6518,205.2357,left,0.5696,,205.2357,0,1,206.238,0,7,7,7,1,0,0,0,1,,,,,,,,,,,,,,,,,,,,,,,,,,,,,,,,,,,,,,,,,
,,5fc1bc2bf8b6b92c35064e2d,65af5485ebaa6ae4e2c7562a,2024-01-22_23h56.21.390,bars,2023.2.3,Win32,59.75143403,657b66ea316d21385b68909f,,,,,,,,,,,,,,,,,,,,,,,,,,,,,,,,,,,,,,,,,,206.239,206.8903,left,0.6361,,206.8907,1,1,207.8931,0,8,8,8,1,0,2,1,0,,,,,,,,,,,,,,,,,,,,,,,,,,,,,,,,,,,,,,,,,
,,5fc1bc2bf8b6b92c35064e2d,65af5485ebaa6ae4e2c7562a,2024-01-22_23h56.21.390,bars,2023.2.3,Win32,59.75143403,657b66ea316d21385b68909f,,,,,,,,,,,,,,,,,,,,,,,,,,,,,,,,,,,,,,,,,,207.894,208.1617,right,0.2516,,208.1618,3,2,209.1643,0,9,9,9,1,2,4,2,3,,,,,,,,,,,,,,,,,,,,,,,,,,,,,,,,,,,,,,,,,
,,5fc1bc2bf8b6b92c35064e2d,65af5485ebaa6ae4e2c7562a,2024-01-22_23h56.21.390,bars,2023.2.3,Win32,59.75143403,657b66ea316d21385b68909f,,,,,,,,,,,,,,,,,,,,,,,,,,,,,,,,,,,,,,,,,,209.165,209.5158,right,0.335,,209.5159,3,2,210.5187,0,10,10,10,1,0,2,0,3,,,,,,,,,,,,,,,,,,,,,,,,,,,,,,,,,,,,,,,,,
,,5fc1bc2bf8b6b92c35064e2d,65af5485ebaa6ae4e2c7562a,2024-01-22_23h56.21.390,bars,2023.2.3,Win32,59.75143403,657b66ea316d21385b68909f,,,,,,,,,,,,,,,,,,,,,,,,,,,,,,,,,,,,,,,,,,210.52,210.8868,right,0.3519,,210.8868,3,2,211.8894,0,11,11,11,1,0,4,0,3,,,,,,,,,,,,,,,,,,,,,,,,,,,,,,,,,,,,,,,,,
,,5fc1bc2bf8b6b92c35064e2d,65af5485ebaa6ae4e2c7562a,2024-01-22_23h56.21.390,bars,2023.2.3,Win32,59.75143403,657b66ea316d21385b68909f,,,,,,,,,,,,,,,,,,,,,,,,,,,,,,,,,,,,,,,,,,211.8901,212.2565,right,0.3519,,212.2566,6,2,213.2593,0,12,12,12,1,2,6,1,6,,,,,,,,,,,,,,,,,,,,,,,,,,,,,,,,,,,,,,,,,
,,5fc1bc2bf8b6b92c35064e2d,65af5485ebaa6ae4e2c7562a,2024-01-22_23h56.21.390,bars,2023.2.3,Win32,59.75143403,657b66ea316d21385b68909f,,,,,,,,,,,,,,,,,,,,,,,,,,,,,,,,,,,,,,,,,,213.2603,213.561,right,0.2855,,213.561,3,2,214.5634,0,13,13,13,1,0,4,1,3,,,,,,,,,,,,,,,,,,,,,,,,,,,,,,,,,,,,,,,,,
,,5fc1bc2bf8b6b92c35064e2d,65af5485ebaa6ae4e2c7562a,2024-01-22_23h56.21.390,bars,2023.2.3,Win32,59.75143403,657b66ea316d21385b68909f,,,,,,,,,,,,,,,,,,,,,,,,,,,,,,,,,,,,,,,,,,214.5642,214.8819,left,0.3019,,214.882,2,1,215.8799,0,14,14,14,1,2,6,2,7,,,,,,,,,,,,,,,,,,,,,,,,,,,,,,,,,,,,,,,,,
,,5fc1bc2bf8b6b92c35064e2d,65af5485ebaa6ae4e2c7562a,2024-01-22_23h56.21.390,bars,2023.2.3,Win32,59.75143403,657b66ea316d21385b68909f,,,,,,,,,,,,,,,,,,,,,,,,,,,,,,,,,,,,,,,,,,215.8807,215.9804,right,0.0842,,215.9804,9,2,216.9829,0,15,15,15,1,4,8,3,9,,,,,,,,,,,,,,,,,,,,,,,,,,,,,,,,,,,,,,,,,
,,5fc1bc2bf8b6b92c35064e2d,65af5485ebaa6ae4e2c7562a,2024-01-22_23h56.21.390,bars,2023.2.3,Win32,59.75143403,657b66ea316d21385b68909f,,,,,,,,,,,,,,,,,,,,,,,,,,,,,,,,,,,,,,,,,,216.9833,217.2847,right,0.285,,217.2847,7,2,218.287,0,16,16,16,1,6,6,7,7,,,,,,,,,,,,,,,,,,,,,,,,,,,,,,,,,,,,,,,,,
,,5fc1bc2bf8b6b92c35064e2d,65af5485ebaa6ae4e2c7562a,2024-01-22_23h56.21.390,bars,2023.2.3,Win32,59.75143403,657b66ea316d21385b68909f,,,,,,,,,,,,,,,,,,,,,,,,,,,,,,,,,,,,,,,,,,218.2876,218.5722,right,0.2683,,218.5723,5,2,219.5741,0,17,17,17,1,8,4,9,5,,,,,,,,,,,,,,,,,,,,,,,,,,,,,,,,,,,,,,,,,
,,5fc1bc2bf8b6b92c35064e2d,65af5485ebaa6ae4e2c7562a,2024-01-22_23h56.21.390,bars,2023.2.3,Win32,59.75143403,657b66ea316d21385b68909f,,,,,,,,,,,,,,,,,,,,,,,,,,,,,,,,,,,,,,,,,,219.5752,220.1598,right,0.5688,,220.1599,1,2,221.1622,0,18,18,18,1,6,2,5,1,,,,,,,,,,,,,,,,,,,,,,,,,,,,,,,,,,,,,,,,,
,,5fc1bc2bf8b6b92c35064e2d,65af5485ebaa6ae4e2c7562a,2024-01-22_23h56.21.390,bars,2023.2.3,Win32,59.75143403,657b66ea316d21385b68909f,,,,,,,,,,,,,,,,,,,,,,,,,,,,,,,,,,,,,,,,,,221.1631,221.5975,right,0.4186,,221.5976,0,2,222.6001,0,19,19,19,1,8,0,7,0,,,,,,,,,,,,,,,,,,,,,,,,,,,,,,,,,,,,,,,,,
,,5fc1bc2bf8b6b92c35064e2d,65af5485ebaa6ae4e2c7562a,2024-01-22_23h56.21.390,bars,2023.2.3,Win32,59.75143403,657b66ea316d21385b68909f,,,,,,,,,,,,,,,,,,,,,,,,,,,,,,,,,,,,,,,,,,,,,,,,,,,,,,,,,,,,222.6013,251.9066,space,29.2852,,,,,,,,,,,,,,,,,,,,,,,,,,,,,,,,,,,,,
,,5fc1bc2bf8b6b92c35064e2d,65af5485ebaa6ae4e2c7562a,2024-01-22_23h56.21.390,bars,2023.2.3,Win32,59.75143403,657b66ea316d21385b68909f,,,,,,,,,,,253.7411,254.7359,,,255.2377,255.4882,,56,236,,,,,,,,,,,,,,,,bars/034.png,bars/mask002.png,,,,,,,,,,,,2,2,,,,,,,7,2,8,3,,,,,,251.9227,253.7335,space,1.7945,,254.7365,255.2376,255.4885,263.1469,space,7.6382,,263.1473,69,9,264.1487,264.149,326.2335,space,62.0605,,0,0,0,0,1,125,65,,,,,,,,
,,5fc1bc2bf8b6b92c35064e2d,65af5485ebaa6ae4e2c7562a,2024-01-22_23h56.21.390,bars,2023.2.3,Win32,59.75143403,657b66ea316d21385b68909f,,,,,,,,,,,326.2475,327.2397,,,327.7407,327.9919,,15,15,,,,,,,,,,,,,,,,bars/033.png,bars/mask008.png,,,,,,,,,,,,5,1,,,,,,,9,4,8,5,,,,,,,,,,,327.2399,327.7406,327.992,331.0012,space,2.9927,,331.0013,10,40,332.0037,332.0039,335.4437,space,3.4103,,0,1,1,1,1,25,155,,,,,,,,
,,5fc1bc2bf8b6b92c35064e2d,65af5485ebaa6ae4e2c7562a,2024-01-22_23h56.21.390,bars,2023.2.3,Win32,59.75143403,657b66ea316d21385b68909f,,,,,,,,,,,335.4566,336.4509,,,336.9531,337.2029,,121,121,,,,,,,,,,,,,,,,bars/032.png,bars/mask009.png,,,,,,,,,,,,5,1,,,,,,,7,6,6,6,,,,,,,,,,,336.451,336.953,337.2034,341.7176,space,4.4974,,341.7177,4,79,342.7207,342.7207,346.3648,space,3.6149,,0,2,2,2,1,125,20,,,,,,,,
,,5fc1bc2bf8b6b92c35064e2d,65af5485ebaa6ae4e2c7562a,2024-01-22_23h56.21.390,bars,2023.2.3,Win32,59.75143403,657b66ea316d21385b68909f,,,,,,,,,,,346.3773,347.3673,,,347.8695,348.1195,,162,162,,,,,,,,,,,,,,,,bars/030.png,bars/mask004.png,,,,,,,,,,,,2,1,,,,,,,5,8,6,9,,,,,,,,,,,347.3674,347.8695,348.1196,349.8588,space,1.7225,,349.8589,22,83,350.8614,350.8617,353.6834,space,2.7932,,0,3,3,3,1,140,65,,,,,,,,
,,5fc1bc2bf8b6b92c35064e2d,65af5485ebaa6ae4e2c7562a,2024-01-22_23h56.21.390,bars,2023.2.3,Win32,59.75143403,657b66ea316d21385b68909f,,,,,,,,,,,353.684,354.6845,,,355.186,355.4373,,22,202,,,,,,,,,,,,,,,,bars/012.png,bars/mask003.png,,,,,,,,,,,,5,2,,,,,,,3,6,2,6,,,,,,,,,,,354.6845,355.186,355.4373,360.2523,space,4.7985,,360.2523,68,7,361.2546,361.2548,364.0352,space,2.7501,,0,4,4,4,1,90,15,,,,,,,,
,,5fc1bc2bf8b6b92c35064e2d,65af5485ebaa6ae4e2c7562a,2024-01-22_23h56.21.390,bars,2023.2.3,Win32,59.75143403,657b66ea316d21385b68909f,,,,,,,,,,,364.0356,365.0325,,,365.5345,365.7852,,16,16,,,,,,,,,,,,,,,,bars/015.png,bars/mask007.png,,,,,,,,,,,,0,2,,,,,,,5,4,4,5,,,,,,,,,,,365.0326,365.5345,365.7852,369.4967,space,3.6949,,369.4968,86,36,370.4993,370.4993,377.9396,space,7.4102,,0,5,5,5,1,110,160,,,,,,,,
,,5fc1bc2bf8b6b92c35064e2d,65af5485ebaa6ae4e2c7562a,2024-01-22_23h56.21.390,bars,2023.2.3,Win32,59.75143403,657b66ea316d21385b68909f,,,,,,,,,,,377.9535,378.9464,,,379.4487,379.6986,,127,127,,,,,,,,,,,,,,,,bars/012.png,bars/mask003.png,,,,,,,,,,,,0,1,,,,,,,3,2,3,3,,,,,,,,,,,378.9466,379.4486,379.6988,380.5349,space,0.8202,,380.5351,37,68,381.5375,381.5377,387.1892,space,5.6308,,0,6,6,6,1,90,15,,,,,,,,
,,5fc1bc2bf8b6b92c35064e2d,65af5485ebaa6ae4e2c7562a,2024-01-22_23h56.21.390,bars,2023.2.3,Win32,59.75143403,657b66ea316d21385b68909f,,,,,,,,,,,387.2016,388.1917,,,388.6933,388.9438,,62,62,,,,,,,,,,,,,,,,bars/014.png,bars/mask006.png,,,,,,,,,,,,1,1,,,,,,,1,4,2,3,,,,,,,,,,,388.1918,388.6929,388.9442,391.6024,space,2.6417,,391.6025,18,62,392.6049,392.6049,395.1465,space,2.5123,,0,7,7,7,1,80,0,,,,,,,,
,,5fc1bc2bf8b6b92c35064e2d,65af5485ebaa6ae4e2c7562a,2024-01-22_23h56.21.390,bars,2023.2.3,Win32,59.75143403,657b66ea316d21385b68909f,,,,,,,,,,,395.1471,396.1436,,,396.6456,396.8966,,15,15,,,,,,,,,,,,,,,,bars/035.png,bars/mask000.png,,,,,,,,,,,,0,1,,,,,,,0,2,0,3,,,,,,,,,,,396.1438,396.6456,396.8966,397.7494,space,0.8364,,397.7494,20,45,398.7517,398.7517,405.674,space,6.9046,,0,8,8,8,1,175,60,,,,,,,,
,,5fc1bc2bf8b6b92c35064e2d,65af5485ebaa6ae4e2c7562a,2024-01-22_23h56.21.390,bars,2023.2.3,Win32,59.75143403,657b66ea316d21385b68909f,,,,,,,,,,,405.6869,406.6777,,,407.1667,407.4177,,156,-24,,,,,,,,,,,,,,,,bars/021.png,bars/mask000.png,,,,,,,,,,,,0,1,,,,,,,0,4,0,5,,,,,,,,,,,406.6778,407.1666,407.4178,409.9259,space,2.4923,,409.9262,1,86,410.9172,410.9173,414.4235,space,3.4759,,0,9,9,9,1,155,70,,,,,,,,
,,5fc1bc2bf8b6b92c35064e2d,65af5485ebaa6ae4e2c7562a,2024-01-22_23h56.21.390,bars,2023.2.3,Win32,59.75143403,657b66ea316d21385b68909f,,,,,,,,,,,414.436,415.4276,,,415.9156,416.1598,,77,77,,,,,,,,,,,,,,,,bars/001.png,bars/mask001.png,,,,,,,,,,,,4,2,,,,,,,0,6,0,6,,,,,,,,,,,415.4276,415.9155,416.1599,419.0028,space,2.817,,419.003,53,8,420.0124,420.0125,424.5142,space,4.4691,,0,10,10,10,1,130,85,,,,,,,,
,,5fc1bc2bf8b6b92c35064e2d,65af5485ebaa6ae4e2c7562a,2024-01-22_23h56.21.390,bars,2023.2.3,Win32,59.75143403,657b66ea316d21385b68909f,,,,,,,,,,,424.527,425.5211,,,426.0234,426.2742,,75,75,,,,,,,,,,,,,,,,bars/018.png,bars/mask006.png,,,,,,,,,,,,4,2,,,,,,,2,8,2,8,,,,,,,,,,,425.5213,426.0233,426.2742,428.6263,space,2.3379,,428.6263,75,15,429.6284,429.6284,433.7469,space,4.0894,,0,11,11,11,1,150,90,,,,,,,,
,,5fc1bc2bf8b6b92c35064e2d,65af5485ebaa6ae4e2c7562a,2024-01-22_23h56.21.390,bars,2023.2.3,Win32,59.75143403,657b66ea316d21385b68909f,,,,,,,,,,,433.7594,434.7494,,,435.2504,435.5015,,149,149,,,,,,,,,,,,,,,,bars/033.png,bars/mask003.png,,,,,,,,,,,,5,2,,,,,,,4,6,5,6,,,,,,,,,,,434.7496,435.2503,435.5015,438.127,space,2.6088,,438.1271,56,6,439.1296,439.1297,441.3817,space,2.2251,,0,12,12,12,1,25,155,,,,,,,,
,,5fc1bc2bf8b6b92c35064e2d,65af5485ebaa6ae4e2c7562a,2024-01-22_23h56.21.390,bars,2023.2.3,Win32,59.75143403,657b66ea316d21385b68909f,,,,,,,,,,,441.3827,442.3832,,,442.8858,443.1367,,162,162,,,,,,,,,,,,,,,,bars/015.png,bars/mask009.png,,,,,,,,,,,,7,2,,,,,,,2,8,1,8,,,,,,,,,,,442.3833,442.8856,443.1367,446.5976,space,3.4445,,446.5977,52,2,447.6008,447.6009,451.0279,space,3.3931,,0,13,13,13,1,110,160,,,,,,,,
,,5fc1bc2bf8b6b92c35064e2d,65af5485ebaa6ae4e2c7562a,2024-01-22_23h56.21.390,bars,2023.2.3,Win32,59.75143403,657b66ea316d21385b68909f,,,,,,,,,,,451.0408,452.035,,,452.5374,452.7893,,129,129,,,,,,,,,,,,,,,,bars/006.png,bars/mask005.png,,,,,,,,,,,,0,2,,,,,,,4,10,3,10,,,,,,,,,,,452.0351,452.5371,452.7894,458.1548,space,5.35,,458.1548,86,29,459.1573,459.1576,461.682,space,2.4946,,0,14,14,14,1,35,100,,,,,,,,
,,5fc1bc2bf8b6b92c35064e2d,65af5485ebaa6ae4e2c7562a,2024-01-22_23h56.21.390,bars,2023.2.3,Win32,59.75143403,657b66ea316d21385b68909f,,,,,,,,,,,461.6827,462.6845,,,463.1858,463.4366,,126,126,,,,,,,,,,,,,,,,bars/024.png,bars/mask009.png,,,,,,,,,,,,2,1,,,,,,,2,10,3,9,,,,,,,,,,,462.6847,463.1857,463.4368,465.7767,space,2.3245,,465.7771,6,44,466.7796,466.7796,469.1509,space,2.3425,,0,15,15,15,1,120,170,,,,,,,,
,,5fc1bc2bf8b6b92c35064e2d,65af5485ebaa6ae4e2c7562a,2024-01-22_23h56.21.390,bars,2023.2.3,Win32,59.75143403,657b66ea316d21385b68909f,,,,,,,,,,,469.1517,470.152,,,470.6538,470.9043,,37,37,,,,,,,,,,,,,,,,bars/026.png,bars/mask002.png,,,,,,,,,,,,0,1,,,,,,,0,10,0,8,,,,,,,,,,,470.1521,470.6537,470.9043,472.3092,space,1.3886,,472.3094,2,48,473.3118,473.312,474.6501,space,1.3213,,0,16,16,16,1,35,85,,,,,,,,
,,5fc1bc2bf8b6b92c35064e2d,65af5485ebaa6ae4e2c7562a,2024-01-22_23h56.21.390,bars,2023.2.3,Win32,59.75143403,657b66ea316d21385b68909f,,,,,,,,,,,474.6513,475.652,,,476.1539,476.4044,,8,8,,,,,,,,,,,,,,,,bars/040.png,bars/mask004.png,,,,,,,,,,,,9,2,,,,,,,2,8,2,10,,,,,,,,,,,475.6521,476.1539,476.4044,477.6589,space,1.2379,,477.659,48,3,478.6611,478.6612,480.1844,space,1.5038,,0,17,17,17,1,140,5,,,,,,,,
,,5fc1bc2bf8b6b92c35064e2d,65af5485ebaa6ae4e2c7562a,2024-01-22_23h56.21.390,bars,2023.2.3,Win32,59.75143403,657b66ea316d21385b68909f,,,,,,,,,,,480.1849,481.1854,,,481.6873,481.938,,11,11,,,,,,,,,,,,,,,,bars/016.png,bars/mask004.png,,,,,,,,,,,,1,2,,,,,,,4,10,5,10,,,,,,,,,,,481.1855,481.6873,481.938,483.7439,space,1.7895,,483.7439,29,26,484.7344,484.7347,486.557,space,1.8049,,0,18,18,18,1,40,165,,,,,,,,
,,5fc1bc2bf8b6b92c35064e2d,65af5485ebaa6ae4e2c7562a,2024-01-22_23h56.21.390,bars,2023.2.3,Win32,59.75143403,657b66ea316d21385b68909f,,,,,,,,,,,486.558,487.5593,,,488.0614,488.3124,,101,281,,,,,,,,,,,,,,,,bars/011.png,bars/mask009.png,,,,,,,,,,,,5,2,,,,,,,6,10,5,10,,,,,,,,,,,487.5594,488.0614,488.3125,493.1771,space,4.8488,,493.1771,59,16,494.1796,494.1796,499.5464,space,5.3379,,0,19,19,19,1,160,85,,,,,,,,
,,5fc1bc2bf8b6b92c35064e2d,65af5485ebaa6ae4e2c7562a,2024-01-22_23h56.21.390,bars,2023.2.3,Win32,59.75143403,657b66ea316d21385b68909f,,,,,,,,,,,499.5594,500.5488,,,501.051,501.3019,,100,100,,,,,,,,,,,,,,,,bars/009.png,bars/mask002.png,,,,,,,,,,,,8,2,,,,,,,8,10,9,10,,,,,,,,,,,500.5489,501.0509,501.3019,504.1445,space,2.8261,,504.1445,85,5,505.1473,505.1474,507.1285,space,1.9536,,0,20,20,20,1,15,105,,,,,,,,
,,5fc1bc2bf8b6b92c35064e2d,65af5485ebaa6ae4e2c7562a,2024-01-22_23h56.21.390,bars,2023.2.3,Win32,59.75143403,657b66ea316d21385b68909f,,,,,,,,,,,507.1294,508.1173,,,508.6192,508.8699,,144,-36,,,,,,,,,,,,,,,,bars/040.png,bars/mask002.png,,,,,,,,,,,,5,1,,,,,,,6,8,6,10,,,,,,,,,,,508.1175,508.619,508.8699,512.7335,space,3.8472,,512.734,4,41,513.7343,513.7344,516.2826,space,2.5187,,0,21,21,21,1,140,5,,,,,,,,
,,5fc1bc2bf8b6b92c35064e2d,65af5485ebaa6ae4e2c7562a,2024-01-22_23h56.21.390,bars,2023.2.3,Win32,59.75143403,657b66ea316d21385b68909f,,,,,,,,,,,516.2833,517.2777,,,517.7696,518.0199,,153,153,,,,,,,,,,,,,,,,bars/011.png,bars/mask001.png,,,,,,,,,,,,5,1,,,,,,,4,6,6,5,,,,,,,,,,,517.2778,517.7696,518.0199,521.2142,space,3.1782,,521.2143,7,68,522.2163,522.2163,523.854,space,1.6088,,0,22,22,22,1,160,85,,,,,,,,
,,5fc1bc2bf8b6b92c35064e2d,65af5485ebaa6ae4e2c7562a,2024-01-22_23h56.21.390,bars,2023.2.3,Win32,59.75143403,657b66ea316d21385b68909f,,,,,,,,,,,523.8544,524.8568,,,525.3579,525.6088,,128,128,,,,,,,,,,,,,,,,bars/040.png,bars/mask008.png,,,,,,,,,,,,1,1,,,,,,,2,8,2,8,,,,,,,,,,,524.8568,525.3578,525.609,530.3234,space,4.6977,,530.3235,12,57,531.3259,531.3261,532.7811,space,1.4273,,0,23,23,23,1,140,5,,,,,,,,
,,5fc1bc2bf8b6b92c35064e2d,65af5485ebaa6ae4e2c7562a,2024-01-22_23h56.21.390,bars,2023.2.3,Win32,59.75143403,657b66ea316d21385b68909f,,,,,,,,,,,532.7818,533.784,,,534.2851,534.5361,,131,131,,,,,,,,,,,,,,,,bars/039.png,bars/mask008.png,,,,,,,,,,,,1,2,,,,,,,4,10,4,10,,,,,,,,,,,533.7842,534.285,534.5362,537.5112,space,2.9596,,537.5113,44,26,538.5141,538.5142,540.7006,space,2.1573,,0,24,24,24,1,175,105,,,,,,,,
,,5fc1bc2bf8b6b92c35064e2d,65af5485ebaa6ae4e2c7562a,2024-01-22_23h56.21.390,bars,2023.2.3,Win32,59.75143403,657b66ea316d21385b68909f,,,,,,,,,,,540.7013,541.7026,,,542.2045,542.4546,,37,37,,,,,,,,,,,,,,,,bars/035.png,bars/mask003.png,,,,,,,,,,,,2,2,,,,,,,2,8,3,7,,,,,,,,,,,541.7026,542.2045,542.4549,544.9464,space,2.4747,,544.9464,42,23,545.9499,545.95,548.4121,space,2.4327,,0,25,25,25,1,175,60,,,,,,,,
,,5fc1bc2bf8b6b92c35064e2d,65af5485ebaa6ae4e2c7562a,2024-01-22_23h56.21.390,bars,2023.2.3,Win32,59.75143403,657b66ea316d21385b68909f,,,,,,,,,,,548.4128,549.4146,,,549.9164,550.1665,,81,261,,,,,,,,,,,,,,,,bars/026.png,bars/mask000.png,,,,,,,,,,,,9,2,,,,,,,0,10,0,10,,,,,,,,,,,549.4147,549.9164,550.1667,555.9513,space,5.7676,,555.9514,46,4,556.9542,556.9543,559.9465,space,2.9614,,0,26,26,26,1,35,85,,,,,,,,
,,5fc1bc2bf8b6b92c35064e2d,65af5485ebaa6ae4e2c7562a,2024-01-22_23h56.21.390,bars,2023.2.3,Win32,59.75143403,657b66ea316d21385b68909f,,,,,,,,,,,559.9598,560.9491,,,561.4512,561.702,,152,152,,,,,,,,,,,,,,,,bars/020.png,bars/mask007.png,,,,,,,,,,,,4,2,,,,,,,2,10,2,10,,,,,,,,,,,560.9491,561.4511,561.7022,565.5307,space,3.8118,,565.5307,37,18,566.5332,566.5333,569.1418,space,2.5785,,0,27,27,27,1,115,170,,,,,,,,
,,5fc1bc2bf8b6b92c35064e2d,65af5485ebaa6ae4e2c7562a,2024-01-22_23h56.21.390,bars,2023.2.3,Win32,59.75143403,657b66ea316d21385b68909f,,,,,,,,,,,569.1424,570.1443,,,570.6454,570.8964,,112,112,,,,,,,,,,,,,,,,bars/009.png,bars/mask009.png,,,,,,,,,,,,8,2,,,,,,,0,10,1,10,,,,,,,,,,,570.1444,570.6454,570.8964,572.5349,space,1.6219,,572.535,83,7,573.5375,573.5375,576.0553,space,2.4902,,0,28,28,28,1,15,105,,,,,,,,
,,5fc1bc2bf8b6b92c35064e2d,65af5485ebaa6ae4e2c7562a,2024-01-22_23h56.21.390,bars,2023.2.3,Win32,59.75143403,657b66ea316d21385b68909f,,,,,,,,,,,576.0558,577.0435,,,577.5451,577.7958,,104,104,,,,,,,,,,,,,,,,bars/026.png,bars/mask002.png,,,,,,,,,,,,3,2,,,,,,,0,8,2,8,,,,,,,,,,,577.0435,577.5451,577.7958,580.0868,space,2.2743,,580.0869,69,19,581.0892,581.0892,582.6615,space,1.5545,,0,29,29,29,1,35,85,,,,,,,,
,,5fc1bc2bf8b6b92c35064e2d,65af5485ebaa6ae4e2c7562a,2024-01-22_23h56.21.390,bars,2023.2.3,Win32,59.75143403,657b66ea316d21385b68909f,,,,,,,,,,,582.6625,583.6635,,,584.1652,584.416,,72,72,,,,,,,,,,,,,,,,bars/042.png,bars/mask000.png,,,,,,,,,,,,9,2,,,,,,,0,10,0,10,,,,,,,,,,,583.6635,584.1651,584.4161,588.3836,space,3.9489,,588.3836,73,3,589.3861,589.3863,591.0617,space,1.6437,,0,30,30,30,1,145,75,,,,,,,,
,,5fc1bc2bf8b6b92c35064e2d,65af5485ebaa6ae4e2c7562a,2024-01-22_23h56.21.390,bars,2023.2.3,Win32,59.75143403,657b66ea316d21385b68909f,,,,,,,,,,,591.0626,592.0612,,,592.5624,592.8131,,72,72,,,,,,,,,,,,,,,,bars/029.png,bars/mask006.png,,,,,,,,,,,,0,1,,,,,,,0,10,0,9,,,,,,,,,,,592.0612,592.5623,592.8133,596.9596,space,4.1317,,596.9597,18,27,597.9641,597.9641,601.6692,space,3.6757,,0,31,31,31,1,90,45,,,,,,,,
,,5fc1bc2bf8b6b92c35064e2d,65af5485ebaa6ae4e2c7562a,2024-01-22_23h56.21.390,bars,2023.2.3,Win32,59.75143403,657b66ea316d21385b68909f,,,,,,,,,,,601.6819,602.6766,,,603.1776,603.4291,,18,18,,,,,,,,,,,,,,,,bars/031.png,bars/mask001.png,,,,,,,,,,,,3,2,,,,,,,0,8,0,8,,,,,,,,,,,602.6766,603.1775,603.4291,607.0057,space,3.5616,,607.0059,78,17,608.0086,608.0087,609.5261,space,1.4886,,0,32,32,32,1,120,35,,,,,,,,
,,5fc1bc2bf8b6b92c35064e2d,65af5485ebaa6ae4e2c7562a,2024-01-22_23h56.21.390,bars,2023.2.3,Win32,59.75143403,657b66ea316d21385b68909f,,,,,,,,,,,609.5269,610.5284,,,611.0301,611.2807,,31,31,,,,,,,,,,,,,,,,bars/030.png,bars/mask004.png,,,,,,,,,,,,0,2,,,,,,,0,6,0,6,,,,,,,,,,,610.5286,611.0301,611.2809,613.2374,space,1.9401,,613.2376,71,34,614.2398,614.2398,615.4826,space,1.2133,,0,33,33,33,1,140,65,,,,,,,,
,,5fc1bc2bf8b6b92c35064e2d,65af5485ebaa6ae4e2c7562a,2024-01-22_23h56.21.390,bars,2023.2.3,Win32,59.75143403,657b66ea316d21385b68909f,,,,,,,,,,,615.4834,616.4852,,,616.9864,617.2372,,70,70,,,,,,,,,,,,,,,,bars/047.png,bars/mask002.png,,,,,,,,,,,,3,2,,,,,,,0,4,0,3,,,,,,,,,,,616.4853,616.9863,617.2379,618.2123,space,0.9601,,618.2123,55,0,619.2047,619.2049,623.7197,space,4.4975,,0,34,34,34,1,15,70,,,,,,,,
,,5fc1bc2bf8b6b92c35064e2d,65af5485ebaa6ae4e2c7562a,2024-01-22_23h56.21.390,bars,2023.2.3,Win32,59.75143403,657b66ea316d21385b68909f,,,,,,,,,,,623.7327,624.7263,,,625.2284,625.4794,,12,12,,,,,,,,,,,,,,,,bars/007.png,bars/mask002.png,,,,,,,,,,,,2,1,,,,,,,2,2,4,1,,,,,,,,,,,624.7264,625.2283,625.4794,628.0322,space,2.5382,,628.0322,17,43,629.0347,629.0347,631.9491,space,2.8827,,0,35,35,35,1,175,55,,,,,,,,
,,5fc1bc2bf8b6b92c35064e2d,65af5485ebaa6ae4e2c7562a,2024-01-22_23h56.21.390,bars,2023.2.3,Win32,59.75143403,657b66ea316d21385b68909f,,,,,,,,,,,631.9623,632.9516,,,633.448,633.6993,,131,131,,,,,,,,,,,,,,,,bars/025.png,bars/mask001.png,,,,,,,,,,,,0,1,,,,,,,0,0,2,0,,,,,,,,,,,632.9517,633.448,633.6993,635.4047,space,1.6892,,635.4048,26,89,636.4073,636.4074,637.4492,space,1.0125,,0,36,36,36,1,105,40,,,,,,,,
,,5fc1bc2bf8b6b92c35064e2d,65af5485ebaa6ae4e2c7562a,2024-01-22_23h56.21.390,bars,2023.2.3,Win32,59.75143403,657b66ea316d21385b68909f,,,,,,,,,,,637.4499,638.4517,,,638.9683,639.2157,,38,38,,,,,,,,,,,,,,,,bars/026.png,bars/mask000.png,,,,,,,,,,,,0,1,,,,,,,0,2,0,1,,,,,,,,,,,638.4519,638.9683,639.2158,641.7741,space,2.5417,,641.7742,3,47,642.7763,642.7764,645.323,space,2.5179,,0,37,37,37,1,35,85,,,,,,,,
,,5fc1bc2bf8b6b92c35064e2d,65af5485ebaa6ae4e2c7562a,2024-01-22_23h56.21.390,bars,2023.2.3,Win32,59.75143403,657b66ea316d21385b68909f,,,,,,,,,,,645.3238,646.325,,,646.8274,647.0785,,101,101,,,,,,,,,,,,,,,,bars/041.png,bars/mask009.png,,,,,,,,,,,,1,2,,,,,,,2,4,3,2,,,,,,,,,,,646.3251,646.8271,647.0786,649.8368,space,2.7419,,649.8368,81,16,650.8393,650.8394,652.0098,space,1.1418,,0,38,38,38,1,20,85,,,,,,,,
,,5fc1bc2bf8b6b92c35064e2d,65af5485ebaa6ae4e2c7562a,2024-01-22_23h56.21.390,bars,2023.2.3,Win32,59.75143403,657b66ea316d21385b68909f,,,,,,,,,,,652.0105,653.0123,,,653.5147,653.7644,,113,113,,,,,,,,,,,,,,,,bars/037.png,bars/mask000.png,,,,,,,,,,,,1,2,,,,,,,4,2,3,1,,,,,,,,,,,653.0124,653.5147,653.7645,655.6539,space,1.8735,,655.6539,37,8,656.6564,656.6565,657.9107,space,1.2251,,0,39,39,39,1,150,105,,,,,,,,
,,5fc1bc2bf8b6b92c35064e2d,65af5485ebaa6ae4e2c7562a,2024-01-22_23h56.21.390,bars,2023.2.3,Win32,59.75143403,657b66ea316d21385b68909f,,,,,,,,,,,657.9115,658.9142,,,659.4157,659.6658,,148,148,,,,,,,,,,,,,,,,bars/005.png,bars/mask004.png,,,,,,,,,,,,0,2,,,,,,,6,0,5,0,,,,,,,,,,,658.9142,659.4155,659.6659,662.9432,space,3.2609,,662.9432,42,8,663.9458,663.9461,665.8853,space,1.9096,,0,40,40,40,1,10,140,,,,,,,,
,,5fc1bc2bf8b6b92c35064e2d,65af5485ebaa6ae4e2c7562a,2024-01-22_23h56.21.390,bars,2023.2.3,Win32,59.75143403,657b66ea316d21385b68909f,,,,,,,,,,,665.8857,666.8878,,,667.39,667.6399,,129,129,,,,,,,,,,,,,,,,bars/040.png,bars/mask009.png,,,,,,,,,,,,6,1,,,,,,,8,2,10,3,,,,,,,,,,,666.8883,667.3899,667.64,670.3485,space,2.6925,,670.3486,11,56,671.3521,671.3521,672.6522,space,1.2707,,0,41,41,41,1,140,5,,,,,,,,
,,5fc1bc2bf8b6b92c35064e2d,65af5485ebaa6ae4e2c7562a,2024-01-22_23h56.21.390,bars,2023.2.3,Win32,59.75143403,657b66ea316d21385b68909f,,,,,,,,,,,672.6528,673.6535,,,674.1552,674.4063,,124,124,,,,,,,,,,,,,,,,bars/045.png,bars/mask005.png,,,,,,,,,,,,1,1,,,,,,,6,4,7,4,,,,,,,,,,,673.6537,674.1551,674.4063,676.1451,space,1.7225,,676.1451,24,66,677.1474,677.1474,678.0514,space,0.8863,,0,42,42,42,1,100,10,,,,,,,,
,,5fc1bc2bf8b6b92c35064e2d,65af5485ebaa6ae4e2c7562a,2024-01-22_23h56.21.390,bars,2023.2.3,Win32,59.75143403,657b66ea316d21385b68909f,,,,,,,,,,,678.0524,679.0532,,,679.5549,679.8059,,58,58,,,,,,,,,,,,,,,,bars/028.png,bars/mask008.png,,,,,,,,,,,,2,1,,,,,,,4,6,4,6,,,,,,,,,,,679.0532,679.5547,679.8059,681.9126,space,2.0902,,681.9126,13,62,682.9147,682.915,685.4952,space,2.5505,,0,43,43,43,1,45,120,,,,,,,,
,,5fc1bc2bf8b6b92c35064e2d,65af5485ebaa6ae4e2c7562a,2024-01-22_23h56.21.390,bars,2023.2.3,Win32,59.75143403,657b66ea316d21385b68909f,,,,,,,,,,,685.4961,686.4975,,,686.9861,687.2194,,147,147,,,,,,,,,,,,,,,,bars/023.png,bars/mask002.png,,,,,,,,,,,,0,2,,,,,,,6,8,5,9,,,,,,,,,,,686.4976,686.9859,687.2195,689.4741,space,2.2346,,689.4742,53,32,690.4767,690.4768,691.7929,space,1.2875,,0,44,44,44,1,20,115,,,,,,,,
,,5fc1bc2bf8b6b92c35064e2d,65af5485ebaa6ae4e2c7562a,2024-01-22_23h56.21.390,bars,2023.2.3,Win32,59.75143403,657b66ea316d21385b68909f,,,,,,,,,,,691.7941,692.795,,,693.297,693.5474,,128,-52,,,,,,,,,,,,,,,,bars/032.png,bars/mask006.png,,,,,,,,,,,,6,1,,,,,,,8,10,7,10,,,,,,,,,,,692.7951,693.297,693.5476,697.1089,space,3.5449,,697.1089,3,72,698.099,698.099,699.4666,space,1.338,,0,45,45,45,1,125,20,,,,,,,,
,,5fc1bc2bf8b6b92c35064e2d,65af5485ebaa6ae4e2c7562a,2024-01-22_23h56.21.390,bars,2023.2.3,Win32,59.75143403,657b66ea316d21385b68909f,,,,,,,,,,,699.4675,700.4682,,,700.9699,701.221,,113,113,,,,,,,,,,,,,,,,bars/015.png,bars/mask009.png,,,,,,,,,,,,5,1,,,,,,,6,8,5,9,,,,,,,,,,,700.4685,700.9699,701.2211,702.9444,space,1.7065,,702.9445,3,47,703.9456,703.9457,706.1048,space,2.1413,,0,46,46,46,1,110,160,,,,,,,,
,,5fc1bc2bf8b6b92c35064e2d,65af5485ebaa6ae4e2c7562a,2024-01-22_23h56.21.390,bars,2023.2.3,Win32,59.75143403,657b66ea316d21385b68909f,,,,,,,,,,,706.1054,707.1053,,,707.6069,707.8579,,45,225,,,,,,,,,,,,,,,,bars/029.png,bars/mask008.png,,,,,,,,,,,,7,2,,,,,,,4,6,3,7,,,,,,,,,,,707.1053,707.6068,707.8579,713.2917,space,5.4174,,713.2919,45,0,714.2936,714.2936,717.0411,space,2.716,,0,47,47,47,1,90,45,,,,,,,,
,,5fc1bc2bf8b6b92c35064e2d,65af5485ebaa6ae4e2c7562a,2024-01-22_23h56.21.390,bars,2023.2.3,Win32,59.75143403,657b66ea316d21385b68909f,,,,,,,,,,,717.0536,718.0437,,,718.5449,718.7962,,43,223,,,,,,,,,,,,,,,,bars/027.png,bars/mask001.png,,,,,,,,,,,,6,2,,,,,,,6,8,3,8,,,,,,,,,,,718.0438,718.5449,718.7962,722.0083,space,3.197,,722.0084,67,7,723.009,723.0092,725.1486,space,2.111,,0,48,48,48,1,110,50,,,,,,,,
,,5fc1bc2bf8b6b92c35064e2d,65af5485ebaa6ae4e2c7562a,2024-01-22_23h56.21.390,bars,2023.2.3,Win32,59.75143403,657b66ea316d21385b68909f,,,,,,,,,,,725.1494,726.1529,,,726.6481,726.8933,,52,232,,,,,,,,,,,,,,,,bars/029.png,bars/mask006.png,,,,,,,,,,,,8,2,,,,,,,4,10,4,10,,,,,,,,,,,726.1531,726.6479,726.8933,729.9298,space,3.02,,729.9299,38,7,730.9322,730.9324,736.8849,space,5.9229,,0,49,49,49,1,90,45,,,,,,,,
,,5fc1bc2bf8b6b92c35064e2d,65af5485ebaa6ae4e2c7562a,2024-01-22_23h56.21.390,bars,2023.2.3,Win32,59.75143403,657b66ea316d21385b68909f,,,,,,,,,,,,,,,,,,,,,,,,,,,,,,,,,,,,,,,,,,,,,,,,,,,,,,,,,,,,,,,,,,,,,,,,,,,,,,,,,,,,,,,,,,,,,736.8861,796.8837,0,0,0,0,1,sequence_tables/blk010.csv
,,5fc1bc2bf8b6b92c35064e2d,65af5485ebaa6ae4e2c7562a,2024-01-22_23h56.21.390,bars,2023.2.3,Win32,59.75143403,657b66ea316d21385b68909f,,,,,,,,,,,815.4868,816.4751,,,816.9775,817.2287,,150,-30,,,,,,,,,,,,,,,,bars/013.png,bars/mask001.png,,,,,,,,,,,,0,2,,,,,,,10,2,10,0,,,,,,796.8972,815.4684,space,18.5582,,816.4753,816.9773,817.2288,821.7716,space,4.5299,,821.7717,75,40,822.7734,822.7734,822.7867,,,,0,0,0,0,1,75,10,,,,,,,,
,,5fc1bc2bf8b6b92c35064e2d,65af5485ebaa6ae4e2c7562a,2024-01-22_23h56.21.390,bars,2023.2.3,Win32,59.75143403,657b66ea316d21385b68909f,,,,,,,,,,,822.7869,823.7817,,,824.2828,824.5336,,123,123,,,,,,,,,,,,,,,,bars/028.png,bars/mask002.png,,,,,,,,,,,,1,2,,,,,,,10,0,10,1,,,,,,,,,,,823.7817,824.2826,824.5336,828.6459,space,4.0966,,828.6463,78,3,829.6487,829.6487,829.6619,,,,0,1,1,1,1,45,120,,,,,,,,
,,5fc1bc2bf8b6b92c35064e2d,65af5485ebaa6ae4e2c7562a,2024-01-22_23h56.21.390,bars,2023.2.3,Win32,59.75143403,657b66ea316d21385b68909f,,,,,,,,,,,829.6621,830.6639,,,831.1657,831.4157,,37,217,,,,,,,,,,,,,,,,bars/010.png,bars/mask006.png,,,,,,,,,,,,0,2,,,,,,,8,2,8,0,,,,,,,,,,,830.664,831.1656,831.4157,835.6297,space,4.1971,,835.6299,52,18,836.632,836.632,836.6452,,,,0,2,2,2,1,165,55,,,,,,,,
,,5fc1bc2bf8b6b92c35064e2d,65af5485ebaa6ae4e2c7562a,2024-01-22_23h56.21.390,bars,2023.2.3,Win32,59.75143403,657b66ea316d21385b68909f,,,,,,,,,,,836.6454,837.64,,,838.1412,838.3921,,157,-23,,,,,,,,,,,,,,,,bars/003.png,bars/mask003.png,,,,,,,,,,,,0,2,,,,,,,6,0,6,0,,,,,,,,,,,837.6401,838.141,838.3922,841.2017,space,2.7926,,841.2018,48,17,842.2043,842.2045,842.2174,,,,0,3,3,3,1,25,140,,,,,,,,
,,5fc1bc2bf8b6b92c35064e2d,65af5485ebaa6ae4e2c7562a,2024-01-22_23h56.21.390,bars,2023.2.3,Win32,59.75143403,657b66ea316d21385b68909f,,,,,,,,,,,842.2177,843.2074,,,843.7084,843.9596,,126,126,,,,,,,,,,,,,,,,bars/040.png,bars/mask006.png,,,,,,,,,,,,4,1,,,,,,,8,0,8,0,,,,,,,,,,,843.2075,843.7083,843.9599,845.7148,space,1.7394,,845.7149,14,59,846.7174,846.7175,846.7216,,,,0,4,4,4,1,140,5,,,,,,,,
,,5fc1bc2bf8b6b92c35064e2d,65af5485ebaa6ae4e2c7562a,2024-01-22_23h56.21.390,bars,2023.2.3,Win32,59.75143403,657b66ea316d21385b68909f,,,,,,,,,,,846.722,847.7204,,,848.2227,848.4735,,139,-41,,,,,,,,,,,,,,,,bars/049.png,bars/mask006.png,,,,,,,,,,,,2,1,,,,,,,6,2,7,3,,,,,,,,,,,847.7204,848.2226,848.4737,852.8037,space,4.3155,,852.8038,21,24,853.8057,853.8058,853.8192,,,,0,5,5,5,1,160,115,,,,,,,,
,,5fc1bc2bf8b6b92c35064e2d,65af5485ebaa6ae4e2c7562a,2024-01-22_23h56.21.390,bars,2023.2.3,Win32,59.75143403,657b66ea316d21385b68909f,,,,,,,,,,,853.8194,854.8205,,,855.3224,855.5737,,71,71,,,,,,,,,,,,,,,,bars/008.png,bars/mask002.png,,,,,,,,,,,,0,1,,,,,,,8,4,6,3,,,,,,,,,,,854.8205,855.3224,855.5737,858.1316,space,2.542,,858.1316,39,71,859.1337,859.1338,859.1469,,,,0,6,6,6,1,110,0,,,,,,,,
,,5fc1bc2bf8b6b92c35064e2d,65af5485ebaa6ae4e2c7562a,2024-01-22_23h56.21.390,bars,2023.2.3,Win32,59.75143403,657b66ea316d21385b68909f,,,,,,,,,,,859.1472,860.1431,,,860.6431,860.8939,,148,148,,,,,,,,,,,,,,,,bars/007.png,bars/mask008.png,,,,,,,,,,,,1,1,,,,,,,6,2,6,3,,,,,,,,,,,860.1433,860.6431,860.8939,862.8505,space,1.9393,,862.8505,27,87,863.853,863.8531,863.8661,,,,0,7,7,7,1,175,55,,,,,,,,
,,5fc1bc2bf8b6b92c35064e2d,65af5485ebaa6ae4e2c7562a,2024-01-22_23h56.21.390,bars,2023.2.3,Win32,59.75143403,657b66ea316d21385b68909f,,,,,,,,,,,863.8664,864.856,,,865.3581,865.6086,,6,6,,,,,,,,,,,,,,,,bars/023.png,bars/mask004.png,,,,,,,,,,,,4,1,,,,,,,8,0,8,0,,,,,,,,,,,864.8561,865.3581,865.6087,868.8686,space,3.2435,,868.8688,14,71,869.8713,869.8714,869.8846,,,,0,8,8,8,1,20,115,,,,,,,,
,,5fc1bc2bf8b6b92c35064e2d,65af5485ebaa6ae4e2c7562a,2024-01-22_23h56.21.390,bars,2023.2.3,Win32,59.75143403,657b66ea316d21385b68909f,,,,,,,,,,,869.8848,870.8765,,,871.3712,871.6219,,64,64,,,,,,,,,,,,,,,,bars/022.png,bars/mask003.png,,,,,,,,,,,,0,1,,,,,,,6,0,7,0,,,,,,,,,,,870.8766,871.3711,871.6219,874.5644,space,2.9262,,874.5645,31,44,875.5668,875.5669,875.5802,,,,0,9,9,9,1,95,20,,,,,,,,
,,5fc1bc2bf8b6b92c35064e2d,65af5485ebaa6ae4e2c7562a,2024-01-22_23h56.21.390,bars,2023.2.3,Win32,59.75143403,657b66ea316d21385b68909f,,,,,,,,,,,875.5805,876.5754,,,877.0767,877.3276,,116,116,,,,,,,,,,,,,,,,bars/015.png,bars/mask004.png,,,,,,,,,,,,6,1,,,,,,,8,2,7,2,,,,,,,,,,,876.5756,877.0767,877.3277,878.615,space,1.2709,,878.6151,6,44,879.6175,879.6177,879.6194,,,,0,10,10,10,1,110,160,,,,,,,,
,,5fc1bc2bf8b6b92c35064e2d,65af5485ebaa6ae4e2c7562a,2024-01-22_23h56.21.390,bars,2023.2.3,Win32,59.75143403,657b66ea316d21385b68909f,,,,,,,,,,,879.62,880.6206,,,881.1218,881.3726,,119,119,,,,,,,,,,,,,,,,bars/036.png,bars/mask008.png,,,,,,,,,,,,1,1,,,,,,,6,4,6,3,,,,,,,,,,,880.6207,881.1217,881.373,884.6333,space,3.2439,,884.6333,26,81,885.6358,885.6358,885.6489,,,,0,11,11,11,1,145,20,,,,,,,,
,,5fc1bc2bf8b6b92c35064e2d,65af5485ebaa6ae4e2c7562a,2024-01-22_23h56.21.390,bars,2023.2.3,Win32,59.75143403,657b66ea316d21385b68909f,,,,,,,,,,,885.6491,886.6389,,,887.1412,887.3908,,138,138,,,,,,,,,,,,,,,,bars/021.png,bars/mask000.png,,,,,,,,,,,,2,1,,,,,,,4,2,4,0,,,,,,,,,,,886.6389,887.141,887.3909,888.9634,space,1.5567,,888.9634,17,68,889.9659,889.966,889.979,,,,0,12,12,12,1,155,70,,,,,,,,
,,5fc1bc2bf8b6b92c35064e2d,65af5485ebaa6ae4e2c7562a,2024-01-22_23h56.21.390,bars,2023.2.3,Win32,59.75143403,657b66ea316d21385b68909f,,,,,,,,,,,889.9792,890.969,,,891.4701,891.7211,,117,117,,,,,,,,,,,,,,,,bars/012.png,bars/mask000.png,,,,,,,,,,,,0,1,,,,,,,2,4,2,4,,,,,,,,,,,890.9691,891.47,891.7212,893.7272,space,1.99,,893.7273,27,78,894.7301,894.7302,894.7432,,,,0,13,13,13,1,90,15,,,,,,,,
,,5fc1bc2bf8b6b92c35064e2d,65af5485ebaa6ae4e2c7562a,2024-01-22_23h56.21.390,bars,2023.2.3,Win32,59.75143403,657b66ea316d21385b68909f,,,,,,,,,,,894.7436,895.7333,,,896.2352,896.4853,,152,152,,,,,,,,,,,,,,,,bars/049.png,bars/mask004.png,,,,,,,,,,,,0,1,,,,,,,0,2,0,0,,,,,,,,,,,895.7333,896.2352,896.4856,897.5897,space,1.0871,,897.5897,8,37,898.5923,898.5924,898.5941,,,,0,14,14,14,1,160,115,,,,,,,,
,,5fc1bc2bf8b6b92c35064e2d,65af5485ebaa6ae4e2c7562a,2024-01-22_23h56.21.390,bars,2023.2.3,Win32,59.75143403,657b66ea316d21385b68909f,,,,,,,,,,,898.5947,899.5953,,,900.0966,900.3473,,95,95,,,,,,,,,,,,,,,,bars/031.png,bars/mask004.png,,,,,,,,,,,,0,1,,,,,,,0,4,0,3,,,,,,,,,,,899.5954,900.0963,900.3474,902.1368,space,1.7727,,902.1369,25,60,903.1395,903.1395,903.1412,,,,0,15,15,15,1,120,35,,,,,,,,
,,5fc1bc2bf8b6b92c35064e2d,65af5485ebaa6ae4e2c7562a,2024-01-22_23h56.21.390,bars,2023.2.3,Win32,59.75143403,657b66ea316d21385b68909f,,,,,,,,,,,903.1417,904.1424,,,904.6437,904.8946,,34,214,,,,,,,,,,,,,,,,bars/005.png,bars/mask002.png,,,,,,,,,,,,1,1,,,,,,,2,2,3,3,,,,,,,,,,,904.1426,904.6436,904.895,907.4023,space,2.4916,,907.4023,24,74,908.4046,908.4047,908.4178,,,,0,16,16,16,1,10,140,,,,,,,,
,,5fc1bc2bf8b6b92c35064e2d,65af5485ebaa6ae4e2c7562a,2024-01-22_23h56.21.390,bars,2023.2.3,Win32,59.75143403,657b66ea316d21385b68909f,,,,,,,,,,,908.418,909.4077,,,909.9099,910.1607,,11,191,,,,,,,,,,,,,,,,bars/049.png,bars/mask006.png,,,,,,,,,,,,0,1,,,,,,,4,4,2,4,,,,,,,,,,,909.4077,909.9099,910.1608,914.4229,space,4.247,,914.423,31,76,915.4214,915.4215,915.4351,,,,0,17,17,17,1,160,115,,,,,,,,
,,5fc1bc2bf8b6b92c35064e2d,65af5485ebaa6ae4e2c7562a,2024-01-22_23h56.21.390,bars,2023.2.3,Win32,59.75143403,657b66ea316d21385b68909f,,,,,,,,,,,915.4354,916.4288,,,916.9312,917.1821,,128,128,,,,,,,,,,,,,,,,bars/038.png,bars/mask000.png,,,,,,,,,,,,0,1,,,,,,,6,2,7,3,,,,,,,,,,,916.4289,916.931,917.1822,919.2386,space,2.0396,,919.2386,37,58,920.2411,920.2412,920.2541,,,,0,18,18,18,1,165,70,,,,,,,,
,,5fc1bc2bf8b6b92c35064e2d,65af5485ebaa6ae4e2c7562a,2024-01-22_23h56.21.390,bars,2023.2.3,Win32,59.75143403,657b66ea316d21385b68909f,,,,,,,,,,,920.2544,921.2441,,,921.745,921.9961,,155,155,,,,,,,,,,,,,,,,bars/020.png,bars/mask002.png,,,,,,,,,,,,3,2,,,,,,,4,4,3,6,,,,,,,,,,,921.2442,921.7449,921.9964,923.3177,space,1.3046,,923.3178,40,15,924.3201,924.3202,924.3345,,,,0,19,19,19,1,115,170,,,,,,,,
,,5fc1bc2bf8b6b92c35064e2d,65af5485ebaa6ae4e2c7562a,2024-01-22_23h56.21.390,bars,2023.2.3,Win32,59.75143403,657b66ea316d21385b68909f,,,,,,,,,,,924.3348,925.3232,,,925.8243,926.0752,,89,89,,,,,,,,,,,,,,,,bars/025.png,bars/mask004.png,,,,,,,,,,,,3,1,,,,,,,6,2,6,2,,,,,,,,,,,925.3233,925.8242,926.0753,926.7277,space,0.6356,,926.7278,16,49,927.7303,927.7304,927.7342,,,,0,20,20,20,1,105,40,,,,,,,,
,,5fc1bc2bf8b6b92c35064e2d,65af5485ebaa6ae4e2c7562a,2024-01-22_23h56.21.390,bars,2023.2.3,Win32,59.75143403,657b66ea316d21385b68909f,,,,,,,,,,,927.7347,928.7333,,,929.2356,929.4854,,144,144,,,,,,,,,,,,,,,,bars/019.png,bars/mask009.png,,,,,,,,,,,,0,2,,,,,,,8,4,10,7,,,,,,,,,,,928.7334,929.2354,929.4855,930.0209,space,0.519,,930.021,81,39,931.0235,931.0237,931.0279,,,,0,21,21,21,1,45,105,,,,,,,,
,,5fc1bc2bf8b6b92c35064e2d,65af5485ebaa6ae4e2c7562a,2024-01-22_23h56.21.390,bars,2023.2.3,Win32,59.75143403,657b66ea316d21385b68909f,,,,,,,,,,,931.0283,932.0265,,,932.5285,932.7796,,145,145,,,,,,,,,,,,,,,,bars/040.png,bars/mask007.png,,,,,,,,,,,,8,1,,,,,,,10,6,10,6,,,,,,,,,,,932.0266,932.5285,932.7797,936.9748,space,4.1797,,936.975,5,40,937.9778,937.9779,937.9924,,,,0,22,22,22,1,140,5,,,,,,,,
,,5fc1bc2bf8b6b92c35064e2d,65af5485ebaa6ae4e2c7562a,2024-01-22_23h56.21.390,bars,2023.2.3,Win32,59.75143403,657b66ea316d21385b68909f,,,,,,,,,,,937.9927,938.9929,,,939.4836,939.7263,,38,38,,,,,,,,,,,,,,,,bars/000.png,bars/mask009.png,,,,,,,,,,,,7,1,,,,,,,8,4,8,3,,,,,,,,,,,938.9931,939.4834,939.7264,941.2234,space,1.4799,,941.2237,2,73,942.2248,942.2252,942.238,,,,0,23,23,23,1,40,145,,,,,,,,
,,5fc1bc2bf8b6b92c35064e2d,65af5485ebaa6ae4e2c7562a,2024-01-22_23h56.21.390,bars,2023.2.3,Win32,59.75143403,657b66ea316d21385b68909f,,,,,,,,,,,942.2383,943.2281,,,943.731,943.9809,,82,82,,,,,,,,,,,,,,,,bars/043.png,bars/mask001.png,,,,,,,,,,,,0,2,,,,,,,6,6,6,8,,,,,,,,,,,943.2281,943.7309,943.9811,946.1206,space,2.1212,,946.1206,52,48,947.1237,947.1238,947.1381,,,,0,24,24,24,1,30,130,,,,,,,,
,,5fc1bc2bf8b6b92c35064e2d,65af5485ebaa6ae4e2c7562a,2024-01-22_23h56.21.390,bars,2023.2.3,Win32,59.75143403,657b66ea316d21385b68909f,,,,,,,,,,,947.1387,948.143,,,948.6445,948.897,,129,129,,,,,,,,,,,,,,,,bars/011.png,bars/mask005.png,,,,,,,,,,,,0,1,,,,,,,4,8,5,8,,,,,,,,,,,948.1431,948.6444,948.897,950.2663,space,1.3554,,950.2663,31,44,951.2683,951.2684,951.2722,,,,0,25,25,25,1,160,85,,,,,,,,
,,5fc1bc2bf8b6b92c35064e2d,65af5485ebaa6ae4e2c7562a,2024-01-22_23h56.21.390,bars,2023.2.3,Win32,59.75143403,657b66ea316d21385b68909f,,,,,,,,,,,951.2727,952.2733,,,952.7739,953.0255,,155,155,,,,,,,,,,,,,,,,bars/048.png,bars/mask004.png,,,,,,,,,,,,3,2,,,,,,,6,10,6,10,,,,,,,,,,,952.2735,952.7739,953.0255,955.065,space,2.0235,,955.0651,75,20,956.0668,956.067,956.0706,,,,0,26,26,26,1,50,175,,,,,,,,
,,5fc1bc2bf8b6b92c35064e2d,65af5485ebaa6ae4e2c7562a,2024-01-22_23h56.21.390,bars,2023.2.3,Win32,59.75143403,657b66ea316d21385b68909f,,,,,,,,,,,956.0712,957.0702,,,957.572,957.8216,,128,128,,,,,,,,,,,,,,,,bars/043.png,bars/mask002.png,,,,,,,,,,,,7,2,,,,,,,4,8,2,7,,,,,,,,,,,957.0706,957.5718,957.8217,959.2126,space,1.3745,,959.2127,82,2,960.213,960.213,960.2148,,,,0,27,27,27,1,30,130,,,,,,,,
,,5fc1bc2bf8b6b92c35064e2d,65af5485ebaa6ae4e2c7562a,2024-01-22_23h56.21.390,bars,2023.2.3,Win32,59.75143403,657b66ea316d21385b68909f,,,,,,,,,,,960.2153,961.2156,,,961.7178,961.9695,,106,106,,,,,,,,,,,,,,,,bars/008.png,bars/mask008.png,,,,,,,,,,,,7,1,,,,,,,6,10,8,10,,,,,,,,,,,961.2156,961.7176,961.9697,962.6543,space,0.6703,,962.6544,4,74,963.6568,963.6569,963.6607,,,,0,28,28,28,1,110,0,,,,,,,,
,,5fc1bc2bf8b6b92c35064e2d,65af5485ebaa6ae4e2c7562a,2024-01-22_23h56.21.390,bars,2023.2.3,Win32,59.75143403,657b66ea316d21385b68909f,,,,,,,,,,,963.6611,964.6597,,,965.1622,965.413,,153,153,,,,,,,,,,,,,,,,bars/014.png,bars/mask002.png,,,,,,,,,,,,1,2,,,,,,,8,10,7,10,,,,,,,,,,,964.66,965.1621,965.413,965.9305,space,0.5011,,965.9306,73,27,966.9327,966.9328,966.9366,,,,0,29,29,29,1,80,0,,,,,,,,
,,5fc1bc2bf8b6b92c35064e2d,65af5485ebaa6ae4e2c7562a,2024-01-22_23h56.21.390,bars,2023.2.3,Win32,59.75143403,657b66ea316d21385b68909f,,,,,,,,,,,966.9372,967.9365,,,968.4385,968.6897,,166,166,,,,,,,,,,,,,,,,bars/049.png,bars/mask007.png,,,,,,,,,,,,5,1,,,,,,,6,10,6,10,,,,,,,,,,,967.9367,968.4384,968.6897,969.3908,space,0.6842,,969.3908,6,51,970.3936,970.3937,970.3975,,,,0,30,30,30,1,160,115,,,,,,,,
,,5fc1bc2bf8b6b92c35064e2d,65af5485ebaa6ae4e2c7562a,2024-01-22_23h56.21.390,bars,2023.2.3,Win32,59.75143403,657b66ea316d21385b68909f,,,,,,,,,,,970.3978,971.3968,,,971.8986,972.151,,116,116,,,,,,,,,,,,,,,,bars/033.png,bars/mask009.png,,,,,,,,,,,,0,2,,,,,,,8,8,10,9,,,,,,,,,,,971.3968,971.8986,972.151,973.2858,space,1.1208,,973.2859,89,39,974.2888,974.2889,974.2924,,,,0,31,31,31,1,25,155,,,,,,,,
,,5fc1bc2bf8b6b92c35064e2d,65af5485ebaa6ae4e2c7562a,2024-01-22_23h56.21.390,bars,2023.2.3,Win32,59.75143403,657b66ea316d21385b68909f,,,,,,,,,,,974.2929,975.2923,,,975.7947,976.0444,,152,152,,,,,,,,,,,,,,,,bars/048.png,bars/mask000.png,,,,,,,,,,,,1,2,,,,,,,10,6,10,6,,,,,,,,,,,975.2923,975.7946,976.0447,981.7056,space,5.6432,,981.7059,78,23,982.6978,982.6979,982.7249,,,,0,32,32,32,1,50,175,,,,,,,,
,,5fc1bc2bf8b6b92c35064e2d,65af5485ebaa6ae4e2c7562a,2024-01-22_23h56.21.390,bars,2023.2.3,Win32,59.75143403,657b66ea316d21385b68909f,,,,,,,,,,,982.7258,983.7173,,,984.2184,984.4694,,176,-4,,,,,,,,,,,,,,,,bars/009.png,bars/mask000.png,,,,,,,,,,,,4,1,,,,,,,10,8,10,7,,,,,,,,,,,983.7174,984.2183,984.4695,988.482,space,3.9961,,988.482,19,71,989.4846,989.4847,989.4989,,,,0,33,33,33,1,15,105,,,,,,,,
,,5fc1bc2bf8b6b92c35064e2d,65af5485ebaa6ae4e2c7562a,2024-01-22_23h56.21.390,bars,2023.2.3,Win32,59.75143403,657b66ea316d21385b68909f,,,,,,,,,,,989.4991,990.4876,,,990.9898,991.2396,,155,155,,,,,,,,,,,,,,,,bars/007.png,bars/mask001.png,,,,,,,,,,,,2,1,,,,,,,8,6,7,6,,,,,,,,,,,990.4877,990.9897,991.2396,992.1101,space,0.8538,,992.1102,20,80,993.1127,993.1128,993.1145,,,,0,34,34,34,1,175,55,,,,,,,,
,,5fc1bc2bf8b6b92c35064e2d,65af5485ebaa6ae4e2c7562a,2024-01-22_23h56.21.390,bars,2023.2.3,Win32,59.75143403,657b66ea316d21385b68909f,,,,,,,,,,,993.1151,994.1157,,,994.6169,994.8683,,65,65,,,,,,,,,,,,,,,,bars/017.png,bars/mask004.png,,,,,,,,,,,,2,2,,,,,,,10,4,10,5,,,,,,,,,,,994.1158,994.6168,994.8683,998.0614,space,3.1769,,998.0614,80,20,999.0597,999.0598,999.0793,,,,0,35,35,35,1,145,45,,,,,,,,
,,5fc1bc2bf8b6b92c35064e2d,65af5485ebaa6ae4e2c7562a,2024-01-22_23h56.21.390,bars,2023.2.3,Win32,59.75143403,657b66ea316d21385b68909f,,,,,,,,,,,999.0798,1000.0723,,,1000.5728,1000.8204,,151,151,,,,,,,,,,,,,,,,bars/001.png,bars/mask004.png,,,,,,,,,,,,3,1,,,,,,,10,6,10,8,,,,,,,,,,,1000.0724,1000.5727,1000.8205,1028.1161,space,27.2814,,1028.1162,21,66,1029.1156,1029.1157,1029.1408,,,,0,36,36,36,1,130,85,,,,,,,,
,,5fc1bc2bf8b6b92c35064e2d,65af5485ebaa6ae4e2c7562a,2024-01-22_23h56.21.390,bars,2023.2.3,Win32,59.75143403,657b66ea316d21385b68909f,,,,,,,,,,,1029.1412,1030.1421,,,1030.6444,1030.8948,,113,293,,,,,,,,,,,,,,,,bars/002.png,bars/mask002.png,,,,,,,,,,,,4,1,,,,,,,10,4,10,3,,,,,,,,,,,1030.1422,1030.6444,1030.8949,1035.5416,space,4.63,,1035.5417,17,28,1036.5445,1036.5445,1036.5574,,,,0,37,37,37,1,130,85,,,,,,,,
,,5fc1bc2bf8b6b92c35064e2d,65af5485ebaa6ae4e2c7562a,2024-01-22_23h56.21.390,bars,2023.2.3,Win32,59.75143403,657b66ea316d21385b68909f,,,,,,,,,,,1036.5576,1037.5476,,,1038.0493,1038.2897,,141,141,,,,,,,,,,,,,,,,bars/038.png,bars/mask005.png,,,,,,,,,,,,1,1,,,,,,,8,2,7,3,,,,,,,,,,,1037.5476,1038.0493,1038.2898,1039.1544,space,0.8494,,1039.1546,24,71,1040.1553,1040.1554,1040.1567,,,,0,38,38,38,1,165,70,,,,,,,,
,,5fc1bc2bf8b6b92c35064e2d,65af5485ebaa6ae4e2c7562a,2024-01-22_23h56.21.390,bars,2023.2.3,Win32,59.75143403,657b66ea316d21385b68909f,,,,,,,,,,,1040.1573,1041.1592,,,1041.6604,1041.9026,,157,157,,,,,,,,,,,,,,,,bars/019.png,bars/mask006.png,,,,,,,,,,,,0,2,,,,,,,10,4,8,4,,,,,,,,,,,1041.1593,1041.6602,1041.9026,1043.1934,space,1.2776,,1043.1934,68,52,1044.1961,1044.1961,1044.1994,,,,0,39,39,39,1,45,105,,,,,,,,
,,5fc1bc2bf8b6b92c35064e2d,65af5485ebaa6ae4e2c7562a,2024-01-22_23h56.21.390,bars,2023.2.3,Win32,59.75143403,657b66ea316d21385b68909f,,,,,,,,,,,1044.1997,1045.1986,,,1045.7002,1045.9509,,179,-1,,,,,,,,,,,,,,,,bars/014.png,bars/mask007.png,,,,,,,,,,,,3,2,,,,,,,8,2,7,3,,,,,,,,,,,1045.1988,1045.7002,1045.951,1047.1047,space,1.1373,,1047.1047,81,1,1048.1076,1048.1076,1048.1093,,,,0,40,40,40,1,80,0,,,,,,,,
,,5fc1bc2bf8b6b92c35064e2d,65af5485ebaa6ae4e2c7562a,2024-01-22_23h56.21.390,bars,2023.2.3,Win32,59.75143403,657b66ea316d21385b68909f,,,,,,,,,,,1048.1097,1049.1105,,,1049.6121,1049.8628,,94,94,,,,,,,,,,,,,,,,bars/029.png,bars/mask009.png,,,,,,,,,,,,5,1,,,,,,,6,4,6,4,,,,,,,,,,,1049.1105,1049.612,1049.8628,1050.5152,space,0.6354,,1050.5152,4,49,1051.5178,1051.5178,1051.5215,,,,0,41,41,41,1,90,45,,,,,,,,
,,5fc1bc2bf8b6b92c35064e2d,65af5485ebaa6ae4e2c7562a,2024-01-22_23h56.21.390,bars,2023.2.3,Win32,59.75143403,657b66ea316d21385b68909f,,,,,,,,,,,1051.5218,1052.5208,,,1053.0225,1053.2732,,93,93,,,,,,,,,,,,,,,,bars/045.png,bars/mask007.png,,,,,,,,,,,,4,1,,,,,,,4,6,5,5,,,,,,,,,,,1052.5208,1053.0224,1053.2735,1053.8922,space,0.6022,,1053.8922,7,83,1054.8951,1054.8951,1054.8967,,,,0,42,42,42,1,100,10,,,,,,,,
,,5fc1bc2bf8b6b92c35064e2d,65af5485ebaa6ae4e2c7562a,2024-01-22_23h56.21.390,bars,2023.2.3,Win32,59.75143403,657b66ea316d21385b68909f,,,,,,,,,,,1054.8971,1055.8981,,,1056.3984,1056.6503,,11,191,,,,,,,,,,,,,,,,bars/007.png,bars/mask004.png,,,,,,,,,,,,0,1,,,,,,,2,4,1,3,,,,,,,,,,,1055.8981,1056.3983,1056.6503,1060.7461,space,4.0793,,1060.7462,16,44,1061.7488,1061.7489,1061.7621,,,,0,43,43,43,1,175,55,,,,,,,,
,,5fc1bc2bf8b6b92c35064e2d,65af5485ebaa6ae4e2c7562a,2024-01-22_23h56.21.390,bars,2023.2.3,Win32,59.75143403,657b66ea316d21385b68909f,,,,,,,,,,,1061.7622,1062.7573,,,1063.2451,1063.488,,177,177,,,,,,,,,,,,,,,,bars/048.png,bars/mask005.png,,,,,,,,,,,,7,2,,,,,,,0,6,0,7,,,,,,,,,,,1062.7573,1063.2451,1063.488,1064.2741,space,0.7696,,1064.2741,53,2,1065.2762,1065.2763,1065.2798,,,,0,44,44,44,1,50,175,,,,,,,,
,,5fc1bc2bf8b6b92c35064e2d,65af5485ebaa6ae4e2c7562a,2024-01-22_23h56.21.390,bars,2023.2.3,Win32,59.75143403,657b66ea316d21385b68909f,,,,,,,,,,,1065.2801,1066.2796,,,1066.7813,1067.0318,,156,156,,,,,,,,,,,,,,,,bars/032.png,bars/mask000.png,,,,,,,,,,,,0,1,,,,,,,0,8,0,9,,,,,,,,,,,1066.2797,1066.7813,1067.0321,1067.2,space,0.1511,,1067.2,31,44,1068.202,1068.2021,1068.2058,,,,0,45,45,45,1,125,20,,,,,,,,
,,5fc1bc2bf8b6b92c35064e2d,65af5485ebaa6ae4e2c7562a,2024-01-22_23h56.21.390,bars,2023.2.3,Win32,59.75143403,657b66ea316d21385b68909f,,,,,,,,,,,1068.2063,1069.2052,,,1069.7078,1069.958,,104,104,,,,,,,,,,,,,,,,bars/038.png,bars/mask001.png,,,,,,,,,,,,0,2,,,,,,,0,6,0,7,,,,,,,,,,,1069.2054,1069.7077,1069.958,1071.3484,space,1.3734,,1071.3485,61,34,1072.3478,1072.3479,1072.3514,,,,0,46,46,46,1,165,70,,,,,,,,
,,5fc1bc2bf8b6b92c35064e2d,65af5485ebaa6ae4e2c7562a,2024-01-22_23h56.21.390,bars,2023.2.3,Win32,59.75143403,657b66ea316d21385b68909f,,,,,,,,,,,1072.3517,1073.3523,,,1073.8407,1074.0916,,65,65,,,,,,,,,,,,,,,,bars/035.png,bars/mask008.png,,,,,,,,,,,,6,2,,,,,,,2,8,3,7,,,,,,,,,,,1073.3523,1073.8406,1074.0917,1074.6938,space,0.5857,,1074.6938,70,5,1075.6968,1075.6969,1075.6985,,,,0,47,47,47,1,175,60,,,,,,,,
,,5fc1bc2bf8b6b92c35064e2d,65af5485ebaa6ae4e2c7562a,2024-01-22_23h56.21.390,bars,2023.2.3,Win32,59.75143403,657b66ea316d21385b68909f,,,,,,,,,,,1075.699,1076.6997,,,1077.2009,1077.4517,,50,50,,,,,,,,,,,,,,,,bars/024.png,bars/mask003.png,,,,,,,,,,,,0,2,,,,,,,0,6,0,5,,,,,,,,,,,1076.6998,1077.2008,1077.4518,1077.9702,space,0.5026,,1077.9703,70,60,1078.9728,1078.9729,1078.9742,,,,0,48,48,48,1,120,170,,,,,,,,
,,5fc1bc2bf8b6b92c35064e2d,65af5485ebaa6ae4e2c7562a,2024-01-22_23h56.21.390,bars,2023.2.3,Win32,59.75143403,657b66ea316d21385b68909f,,,,,,,,,,,1078.9753,1079.9757,,,1080.478,1080.7289,,30,30,,,,,,,,,,,,,,,,bars/023.png,bars/mask006.png,,,,,,,,,,,,1,1,,,,,,,0,8,1,7,,,,,,,,,,,1079.9757,1080.4778,1080.729,1082.216,space,1.4714,,1082.2161,10,85,1083.2188,1083.219,1083.2234,,,,0,49,49,49,1,20,115,,,,,,,,
,,5fc1bc2bf8b6b92c35064e2d,65af5485ebaa6ae4e2c7562a,2024-01-22_23h56.21.390,bars,2023.2.3,Win32,59.75143403,657b66ea316d21385b68909f,,,,,,,,,,,,,,,,,,,,,,,,,,,,,,,,,,,,,,,,,,,,,,,,,,,,,,,,,,,,,,,,,,,,,,,,,,,,,,,,,,,,,,,,,,,,,1083.2236,1143.2137,0,1,1,3,1,sequence_tables/blk013.csv
,,5fc1bc2bf8b6b92c35064e2d,65af5485ebaa6ae4e2c7562a,2024-01-22_23h56.21.390,bars,2023.2.3,Win32,59.75143403,657b66ea316d21385b68909f,,,,,,,,,,,1157.6235,1158.6146,,,1159.117,1159.3677,,64,64,,,,,,,,,,,,,,,,bars/030.png,bars/mask007.png,,,,,,,,,,,,4,2,,,,,,,3,6,4,4,,,,,,1143.2274,1157.6049,space,14.364,,1158.6147,1159.1168,1159.3678,1160.321,space,0.9367,,1160.3213,76,1,1161.3237,1161.3239,1161.3279,,,,0,0,0,0,1,140,65,,,,,,,,
,,5fc1bc2bf8b6b92c35064e2d,65af5485ebaa6ae4e2c7562a,2024-01-22_23h56.21.390,bars,2023.2.3,Win32,59.75143403,657b66ea316d21385b68909f,,,,,,,,,,,1161.3284,1162.3269,,,1162.8279,1163.0789,,126,-54,,,,,,,,,,,,,,,,bars/034.png,bars/mask005.png,,,,,,,,,,,,1,1,,,,,,,1,4,1,2,,,,,,,,,,,1162.3269,1162.8279,1163.0793,1167.2588,space,4.1654,,1167.259,1,61,1168.261,1168.2611,1168.2768,,,,0,1,1,1,1,125,65,,,,,,,,
,,5fc1bc2bf8b6b92c35064e2d,65af5485ebaa6ae4e2c7562a,2024-01-22_23h56.21.390,bars,2023.2.3,Win32,59.75143403,657b66ea316d21385b68909f,,,,,,,,,,,1168.2772,1169.2811,,,1169.7823,1170.0333,,155,155,,,,,,,,,,,,,,,,bars/039.png,bars/mask003.png,,,,,,,,,,,,0,1,,,,,,,0,2,0,3,,,,,,,,,,,1169.2812,1169.7822,1170.0333,1172.7588,space,2.7086,,1172.7588,20,50,1173.7612,1173.7613,1173.7744,,,,0,2,2,2,1,175,105,,,,,,,,
,,5fc1bc2bf8b6b92c35064e2d,65af5485ebaa6ae4e2c7562a,2024-01-22_23h56.21.390,bars,2023.2.3,Win32,59.75143403,657b66ea316d21385b68909f,,,,,,,,,,,1173.7746,1174.7642,,,1175.2654,1175.5167,,13,13,,,,,,,,,,,,,,,,bars/012.png,bars/mask001.png,,,,,,,,,,,,1,2,,,,,,,2,0,1,1,,,,,,,,,,,1174.7644,1175.2652,1175.5168,1176.2528,space,0.7201,,1176.2528,77,2,1177.2554,1177.2555,1177.2598,,,,0,3,3,3,1,90,15,,,,,,,,
,,5fc1bc2bf8b6b92c35064e2d,65af5485ebaa6ae4e2c7562a,2024-01-22_23h56.21.390,bars,2023.2.3,Win32,59.75143403,657b66ea316d21385b68909f,,,,,,,,,,,1177.2601,1178.2584,,,1178.7532,1179.005,,144,144,,,,,,,,,,,,,,,,bars/048.png,bars/mask001.png,,,,,,,,,,,,0,2,,,,,,,0,0,0,1,,,,,,,,,,,1178.2585,1178.753,1179.0053,1181.2792,space,2.2573,,1181.2792,86,31,1182.2816,1182.2817,1182.295,,,,0,4,4,4,1,50,175,,,,,,,,
,,5fc1bc2bf8b6b92c35064e2d,65af5485ebaa6ae4e2c7562a,2024-01-22_23h56.21.390,bars,2023.2.3,Win32,59.75143403,657b66ea316d21385b68909f,,,,,,,,,,,1182.2953,1183.2897,,,1183.7919,1184.0428,,81,81,,,,,,,,,,,,,,,,bars/037.png,bars/mask005.png,,,,,,,,,,,,0,2,,,,,,,0,0,0,0,,,,,,,,,,,1183.2898,1183.7917,1184.0429,1186.7342,space,2.6749,,1186.7343,69,24,1187.7367,1187.7368,1187.7385,,,,0,5,5,5,1,150,105,,,,,,,,
,,5fc1bc2bf8b6b92c35064e2d,65af5485ebaa6ae4e2c7562a,2024-01-22_23h56.21.390,bars,2023.2.3,Win32,59.75143403,657b66ea316d21385b68909f,,,,,,,,,,,1187.7391,1188.7398,,,1189.2419,1189.4918,,35,35,,,,,,,,,,,,,,,,bars/020.png,bars/mask007.png,,,,,,,,,,,,0,2,,,,,,,0,2,2,3,,,,,,,,,,,1188.7398,1189.2419,1189.4918,1191.5154,space,2.0066,,1191.5155,80,45,1192.5179,1192.518,1192.5311,,,,0,6,6,6,1,115,170,,,,,,,,
,,5fc1bc2bf8b6b92c35064e2d,65af5485ebaa6ae4e2c7562a,2024-01-22_23h56.21.390,bars,2023.2.3,Win32,59.75143403,657b66ea316d21385b68909f,,,,,,,,,,,1192.5315,1193.521,,,1194.023,1194.268,,59,239,,,,,,,,,,,,,,,,bars/010.png,bars/mask006.png,,,,,,,,,,,,0,2,,,,,,,2,0,1,0,,,,,,,,,,,1193.5211,1194.0229,1194.268,1197.3956,space,3.1102,,1197.3957,74,4,1198.3971,1198.3972,1198.4103,,,,0,7,7,7,1,165,55,,,,,,,,
,,5fc1bc2bf8b6b92c35064e2d,65af5485ebaa6ae4e2c7562a,2024-01-22_23h56.21.390,bars,2023.2.3,Win32,59.75143403,657b66ea316d21385b68909f,,,,,,,,,,,1198.4106,1199.4062,,,1199.9072,1200.1583,,109,109,,,,,,,,,,,,,,,,bars/037.png,bars/mask000.png,,,,,,,,,,,,1,2,,,,,,,4,2,4,1,,,,,,,,,,,1199.4063,1199.9072,1200.1583,1201.2618,space,1.0868,,1201.2618,41,4,1202.2643,1202.2646,1202.2661,,,,0,8,8,8,1,150,105,,,,,,,,
,,5fc1bc2bf8b6b92c35064e2d,65af5485ebaa6ae4e2c7562a,2024-01-22_23h56.21.390,bars,2023.2.3,Win32,59.75143403,657b66ea316d21385b68909f,,,,,,,,,,,1202.2666,1203.2675,,,1203.7698,1204.0193,,157,157,,,,,,,,,,,,,,,,bars/034.png,bars/mask003.png,,,,,,,,,,,,0,1,,,,,,,2,0,2,0,,,,,,,,,,,1203.2676,1203.7696,1204.0194,1204.8559,space,0.8201,,1204.856,32,88,1205.8584,1205.8584,1205.8721,,,,0,9,9,9,1,125,65,,,,,,,,
,,5fc1bc2bf8b6b92c35064e2d,65af5485ebaa6ae4e2c7562a,2024-01-22_23h56.21.390,bars,2023.2.3,Win32,59.75143403,657b66ea316d21385b68909f,,,,,,,,,,,1205.8724,1206.8696,,,1207.3582,1207.6092,,44,44,,,,,,,,,,,,,,,,bars/017.png,bars/mask008.png,,,,,,,,,,,,0,2,,,,,,,4,0,4,0,,,,,,,,,,,1206.8696,1207.3582,1207.6093,1209.5327,space,1.9066,,1209.5329,79,1,1210.5348,1210.5348,1210.5491,,,,0,10,10,10,1,145,45,,,,,,,,
,,5fc1bc2bf8b6b92c35064e2d,65af5485ebaa6ae4e2c7562a,2024-01-22_23h56.21.390,bars,2023.2.3,Win32,59.75143403,657b66ea316d21385b68909f,,,,,,,,,,,1210.5493,1211.5426,,,1212.0369,1212.2843,,121,-59,,,,,,,,,,,,,,,,bars/027.png,bars/mask008.png,,,,,,,,,,,,4,1,,,,,,,6,0,6,0,,,,,,,,,,,1211.5426,1212.0368,1212.2844,1217.4112,space,5.106,,1217.4113,11,71,1218.4139,1218.4139,1218.4281,,,,0,11,11,11,1,110,50,,,,,,,,
,,5fc1bc2bf8b6b92c35064e2d,65af5485ebaa6ae4e2c7562a,2024-01-22_23h56.21.390,bars,2023.2.3,Win32,59.75143403,657b66ea316d21385b68909f,,,,,,,,,,,1218.4284,1219.4169,,,1219.9179,1220.169,,153,-27,,,,,,,,,,,,,,,,bars/017.png,bars/mask007.png,,,,,,,,,,,,4,1,,,,,,,4,0,5,1,,,,,,,,,,,1219.417,1219.9179,1220.169,1224.0646,space,3.8787,,1224.0646,8,72,1225.0672,1225.0673,1225.0804,,,,0,12,12,12,1,145,45,,,,,,,,
,,5fc1bc2bf8b6b92c35064e2d,65af5485ebaa6ae4e2c7562a,2024-01-22_23h56.21.390,bars,2023.2.3,Win32,59.75143403,657b66ea316d21385b68909f,,,,,,,,,,,1225.0806,1226.0781,,,1226.566,1226.8195,,45,225,,,,,,,,,,,,,,,,bars/048.png,bars/mask004.png,,,,,,,,,,,,5,1,,,,,,,6,0,6,0,,,,,,,,,,,1226.0782,1226.5659,1226.8195,1229.4924,space,2.6584,,1229.4925,5,50,1230.4952,1230.4953,1230.5083,,,,0,13,13,13,1,50,175,,,,,,,,
,,5fc1bc2bf8b6b92c35064e2d,65af5485ebaa6ae4e2c7562a,2024-01-22_23h56.21.390,bars,2023.2.3,Win32,59.75143403,657b66ea316d21385b68909f,,,,,,,,,,,1230.5086,1231.5034,,,1232.0047,1232.2542,,57,57,,,,,,,,,,,,,,,,bars/014.png,bars/mask004.png,,,,,,,,,,,,1,1,,,,,,,4,0,4,0,,,,,,,,,,,1231.5036,1232.0047,1232.2542,1234.2905,space,2.017,,1234.2905,23,57,1235.2932,1235.2934,1235.2947,,,,0,14,14,14,1,80,0,,,,,,,,
,,5fc1bc2bf8b6b92c35064e2d,65af5485ebaa6ae4e2c7562a,2024-01-22_23h56.21.390,bars,2023.2.3,Win32,59.75143403,657b66ea316d21385b68909f,,,,,,,,,,,1235.2953,1236.2963,,,1236.798,1237.0486,,53,233,,,,,,,,,,,,,,,,bars/014.png,bars/mask007.png,,,,,,,,,,,,0,1,,,,,,,2,2,1,3,,,,,,,,,,,1236.2963,1236.798,1237.0486,1240.4107,space,3.3449,,1240.4108,27,53,1241.4116,1241.4116,1241.4245,,,,0,15,15,15,1,80,0,,,,,,,,
,,5fc1bc2bf8b6b92c35064e2d,65af5485ebaa6ae4e2c7562a,2024-01-22_23h56.21.390,bars,2023.2.3,Win32,59.75143403,657b66ea316d21385b68909f,,,,,,,,,,,1241.4247,1242.4197,,,1242.9221,1243.1718,,70,70,,,,,,,,,,,,,,,,bars/042.png,bars/mask005.png,,,,,,,,,,,,4,2,,,,,,,4,4,5,5,,,,,,,,,,,1242.4198,1242.9218,1243.1722,1244.5604,space,1.3716,,1244.5604,75,5,1245.5629,1245.5631,1245.5669,,,,0,16,16,16,1,145,75,,,,,,,,
,,5fc1bc2bf8b6b92c35064e2d,65af5485ebaa6ae4e2c7562a,2024-01-22_23h56.21.390,bars,2023.2.3,Win32,59.75143403,657b66ea316d21385b68909f,,,,,,,,,,,1245.5674,1246.5661,,,1247.0674,1247.3179,,117,117,,,,,,,,,,,,,,,,bars/046.png,bars/mask006.png,,,,,,,,,,,,0,2,,,,,,,6,6,4,6,,,,,,,,,,,1246.5662,1247.0674,1247.318,1249.3532,space,2.0204,,1249.3534,38,32,1250.3554,1250.3555,1250.3689,,,,0,17,17,17,1,155,85,,,,,,,,
,,5fc1bc2bf8b6b92c35064e2d,65af5485ebaa6ae4e2c7562a,2024-01-22_23h56.21.390,bars,2023.2.3,Win32,59.75143403,657b66ea316d21385b68909f,,,,,,,,,,,1250.3691,1251.3587,,,1251.8605,1252.1106,,92,92,,,,,,,,,,,,,,,,bars/046.png,bars/mask009.png,,,,,,,,,,,,3,2,,,,,,,8,4,9,4,,,,,,,,,,,1251.3587,1251.8603,1252.1107,1252.7133,space,0.5858,,1252.7134,63,7,1253.7157,1253.7157,1253.7168,,,,0,18,18,18,1,155,85,,,,,,,,
,,5fc1bc2bf8b6b92c35064e2d,65af5485ebaa6ae4e2c7562a,2024-01-22_23h56.21.390,bars,2023.2.3,Win32,59.75143403,657b66ea316d21385b68909f,,,,,,,,,,,1253.7173,1254.719,,,1255.2217,1255.4712,,56,56,,,,,,,,,,,,,,,,bars/019.png,bars/mask008.png,,,,,,,,,,,,4,1,,,,,,,6,6,6,7,,,,,,,,,,,1254.719,1255.2216,1255.4712,1257.2943,space,1.8064,,1257.2945,11,49,1258.2963,1258.2963,1258.3107,,,,0,19,19,19,1,45,105,,,,,,,,
,,5fc1bc2bf8b6b92c35064e2d,65af5485ebaa6ae4e2c7562a,2024-01-22_23h56.21.390,bars,2023.2.3,Win32,59.75143403,657b66ea316d21385b68909f,,,,,,,,,,,1258.3111,1259.3048,,,1259.8068,1260.0566,,4,4,,,,,,,,,,,,,,,,bars/007.png,bars/mask003.png,,,,,,,,,,,,3,1,,,,,,,4,8,4,6,,,,,,,,,,,1259.3049,1259.8068,1260.0569,1260.776,space,0.703,,1260.776,9,51,1261.7785,1261.7787,1261.7803,,,,0,20,20,20,1,175,55,,,,,,,,
,,5fc1bc2bf8b6b92c35064e2d,65af5485ebaa6ae4e2c7562a,2024-01-22_23h56.21.390,bars,2023.2.3,Win32,59.75143403,657b66ea316d21385b68909f,,,,,,,,,,,1261.7808,1262.7765,,,1263.2784,1263.5288,,126,126,,,,,,,,,,,,,,,,bars/020.png,bars/mask008.png,,,,,,,,,,,,1,1,,,,,,,2,10,2,10,,,,,,,,,,,1262.7765,1263.2782,1263.5288,1264.6829,space,1.1372,,1264.6829,11,44,1265.6854,1265.6855,1265.6869,,,,0,21,21,21,1,115,170,,,,,,,,
,,5fc1bc2bf8b6b92c35064e2d,65af5485ebaa6ae4e2c7562a,2024-01-22_23h56.21.390,bars,2023.2.3,Win32,59.75143403,657b66ea316d21385b68909f,,,,,,,,,,,1265.6874,1266.6886,,,1267.1902,1267.4413,,144,144,,,,,,,,,,,,,,,,bars/024.png,bars/mask007.png,,,,,,,,,,,,0,1,,,,,,,0,8,0,8,,,,,,,,,,,1266.6886,1267.1901,1267.4413,1268.8964,space,1.4383,,1268.8965,24,26,1269.8984,1269.8985,1269.8999,,,,0,22,22,22,1,120,170,,,,,,,,
,,5fc1bc2bf8b6b92c35064e2d,65af5485ebaa6ae4e2c7562a,2024-01-22_23h56.21.390,bars,2023.2.3,Win32,59.75143403,657b66ea316d21385b68909f,,,,,,,,,,,1269.9004,1270.9015,,,1271.4029,1271.6538,,36,36,,,,,,,,,,,,,,,,bars/037.png,bars/mask005.png,,,,,,,,,,,,0,1,,,,,,,0,10,0,10,,,,,,,,,,,1270.9015,1271.4028,1271.6539,1273.3094,space,1.6394,,1273.3095,66,69,1274.3026,1274.3027,1274.3045,,,,0,23,23,23,1,150,105,,,,,,,,
,,5fc1bc2bf8b6b92c35064e2d,65af5485ebaa6ae4e2c7562a,2024-01-22_23h56.21.390,bars,2023.2.3,Win32,59.75143403,657b66ea316d21385b68909f,,,,,,,,,,,1274.3052,1275.3033,,,1275.8058,1276.0567,,82,82,,,,,,,,,,,,,,,,bars/023.png,bars/mask001.png,,,,,,,,,,,,0,2,,,,,,,0,10,0,10,,,,,,,,,,,1275.3033,1275.8058,1276.0567,1277.4288,space,1.3559,,1277.4291,62,33,1278.4304,1278.4308,1278.4348,,,,0,24,24,24,1,20,115,,,,,,,,
,,5fc1bc2bf8b6b92c35064e2d,65af5485ebaa6ae4e2c7562a,2024-01-22_23h56.21.390,bars,2023.2.3,Win32,59.75143403,657b66ea316d21385b68909f,,,,,,,,,,,1278.4353,1279.4329,,,1279.9346,1280.1864,,52,52,,,,,,,,,,,,,,,,bars/030.png,bars/mask002.png,,,,,,,,,,,,4,2,,,,,,,2,8,3,7,,,,,,,,,,,1279.4329,1279.9345,1280.1864,1280.8716,space,0.6692,,1280.8716,88,13,1281.8734,1281.8736,1281.8757,,,,0,25,25,25,1,140,65,,,,,,,,
,,5fc1bc2bf8b6b92c35064e2d,65af5485ebaa6ae4e2c7562a,2024-01-22_23h56.21.390,bars,2023.2.3,Win32,59.75143403,657b66ea316d21385b68909f,,,,,,,,,,,1281.8761,1282.8673,,,1283.369,1283.6144,,86,86,,,,,,,,,,,,,,,,bars/025.png,bars/mask006.png,,,,,,,,,,,,0,1,,,,,,,0,6,0,6,,,,,,,,,,,1282.8673,1283.3689,1283.6145,1285.0331,space,1.4041,,1285.0332,19,46,1286.0254,1286.0254,1286.0286,,,,0,26,26,26,1,105,40,,,,,,,,
,,5fc1bc2bf8b6b92c35064e2d,65af5485ebaa6ae4e2c7562a,2024-01-22_23h56.21.390,bars,2023.2.3,Win32,59.75143403,657b66ea316d21385b68909f,,,,,,,,,,,1286.029,1287.0304,,,1287.5183,1287.7695,,124,124,,,,,,,,,,,,,,,,bars/012.png,bars/mask003.png,,,,,,,,,,,,0,1,,,,,,,2,8,1,6,,,,,,,,,,,1287.0305,1287.5183,1287.7696,1290.1436,space,2.3577,,1290.1437,34,71,1291.1457,1291.1458,1291.1588,,,,0,27,27,27,1,90,15,,,,,,,,
,,5fc1bc2bf8b6b92c35064e2d,65af5485ebaa6ae4e2c7562a,2024-01-22_23h56.21.390,bars,2023.2.3,Win32,59.75143403,657b66ea316d21385b68909f,,,,,,,,,,,1291.1591,1292.1545,,,1292.656,1292.9067,,107,-73,,,,,,,,,,,,,,,,bars/001.png,bars/mask000.png,,,,,,,,,,,,1,2,,,,,,,4,6,3,5,,,,,,,,,,,1292.1546,1292.6557,1292.907,1296.5852,space,3.6622,,1296.5853,23,22,1297.5878,1297.5878,1297.6021,,,,0,28,28,28,1,130,85,,,,,,,,
,,5fc1bc2bf8b6b92c35064e2d,65af5485ebaa6ae4e2c7562a,2024-01-22_23h56.21.390,bars,2023.2.3,Win32,59.75143403,657b66ea316d21385b68909f,,,,,,,,,,,1297.6024,1298.5909,,,1299.0922,1299.3428,,64,64,,,,,,,,,,,,,,,,bars/029.png,bars/mask004.png,,,,,,,,,,,,3,2,,,,,,,2,8,2,7,,,,,,,,,,,1298.5912,1299.0921,1299.3429,1302.1685,space,2.8086,,1302.1686,26,19,1303.1709,1303.171,1303.1841,,,,0,29,29,29,1,90,45,,,,,,,,
,,5fc1bc2bf8b6b92c35064e2d,65af5485ebaa6ae4e2c7562a,2024-01-22_23h56.21.390,bars,2023.2.3,Win32,59.75143403,657b66ea316d21385b68909f,,,,,,,,,,,1303.1842,1304.174,,,1304.6761,1304.9264,,170,170,,,,,,,,,,,,,,,,bars/007.png,bars/mask009.png,,,,,,,,,,,,1,1,,,,,,,0,10,1,10,,,,,,,,,,,1304.174,1304.676,1304.9264,1307.3008,space,2.3566,,1307.3008,5,65,1308.3031,1308.3032,1308.3075,,,,0,30,30,30,1,175,55,,,,,,,,
,,5fc1bc2bf8b6b92c35064e2d,65af5485ebaa6ae4e2c7562a,2024-01-22_23h56.21.390,bars,2023.2.3,Win32,59.75143403,657b66ea316d21385b68909f,,,,,,,,,,,1308.3078,1309.3061,,,1309.8083,1310.0582,,139,139,,,,,,,,,,,,,,,,bars/010.png,bars/mask005.png,,,,,,,,,,,,0,1,,,,,,,2,8,1,7,,,,,,,,,,,1309.3062,1309.8082,1310.0583,1311.9473,space,1.8736,,1311.9474,26,84,1312.9502,1312.9503,1312.9633,,,,0,31,31,31,1,165,55,,,,,,,,
,,5fc1bc2bf8b6b92c35064e2d,65af5485ebaa6ae4e2c7562a,2024-01-22_23h56.21.390,bars,2023.2.3,Win32,59.75143403,657b66ea316d21385b68909f,,,,,,,,,,,1312.9636,1313.9533,,,1314.4554,1314.7064,,120,120,,,,,,,,,,,,,,,,bars/027.png,bars/mask000.png,,,,,,,,,,,,0,1,,,,,,,0,6,0,6,,,,,,,,,,,1313.9534,1314.4554,1314.7065,1323.2159,space,8.4935,,1323.2163,10,70,1324.2187,1324.2187,1324.2326,,,,0,32,32,32,1,110,50,,,,,,,,
,,5fc1bc2bf8b6b92c35064e2d,65af5485ebaa6ae4e2c7562a,2024-01-22_23h56.21.390,bars,2023.2.3,Win32,59.75143403,657b66ea316d21385b68909f,,,,,,,,,,,1324.2329,1325.2218,,,1325.7227,1325.9738,,177,177,,,,,,,,,,,,,,,,bars/032.png,bars/mask000.png,,,,,,,,,,,,2,2,,,,,,,2,8,4,8,,,,,,,,,,,1325.2218,1325.7227,1325.9739,1329.2843,space,3.294,,1329.2844,52,23,1330.2872,1330.2875,1330.3017,,,,0,33,33,33,1,125,20,,,,,,,,
,,5fc1bc2bf8b6b92c35064e2d,65af5485ebaa6ae4e2c7562a,2024-01-22_23h56.21.390,bars,2023.2.3,Win32,59.75143403,657b66ea316d21385b68909f,,,,,,,,,,,1330.3019,1331.29,,,1331.7912,1332.0421,,27,27,,,,,,,,,,,,,,,,bars/035.png,bars/mask004.png,,,,,,,,,,,,0,1,,,,,,,0,10,0,10,,,,,,,,,,,1331.2901,1331.791,1332.0421,1333.6806,space,1.6226,,1333.6807,32,33,1334.6831,1334.6831,1334.6974,,,,0,34,34,34,1,175,60,,,,,,,,
,,5fc1bc2bf8b6b92c35064e2d,65af5485ebaa6ae4e2c7562a,2024-01-22_23h56.21.390,bars,2023.2.3,Win32,59.75143403,657b66ea316d21385b68909f,,,,,,,,,,,1334.6977,1335.6862,,,1336.1885,1336.4392,,36,36,,,,,,,,,,,,,,,,bars/013.png,bars/mask009.png,,,,,,,,,,,,1,2,,,,,,,0,10,0,8,,,,,,,,,,,1335.6862,1336.1883,1336.4393,1339.9498,space,3.4939,,1339.9498,39,26,1340.9542,1340.9543,1340.972,,,,0,35,35,35,1,75,10,,,,,,,,
,,5fc1bc2bf8b6b92c35064e2d,65af5485ebaa6ae4e2c7562a,2024-01-22_23h56.21.390,bars,2023.2.3,Win32,59.75143403,657b66ea316d21385b68909f,,,,,,,,,,,1340.9723,1341.9667,,,1342.4684,1342.7196,,139,139,,,,,,,,,,,,,,,,bars/048.png,bars/mask000.png,,,,,,,,,,,,0,2,,,,,,,0,10,0,9,,,,,,,,,,,1341.9669,1342.4684,1342.7196,1344.1908,space,1.4551,,1344.1908,89,36,1345.1934,1345.1935,1345.1949,,,,0,36,36,36,1,50,175,,,,,,,,
,,5fc1bc2bf8b6b92c35064e2d,65af5485ebaa6ae4e2c7562a,2024-01-22_23h56.21.390,bars,2023.2.3,Win32,59.75143403,657b66ea316d21385b68909f,,,,,,,,,,,1345.1955,1346.1962,,,1346.698,1346.9509,,10,190,,,,,,,,,,,,,,,,bars/032.png,bars/mask006.png,,,,,,,,,,,,5,2,,,,,,,2,8,2,8,,,,,,,,,,,1346.1962,1346.6979,1346.9509,1348.438,space,1.4694,,1348.4382,65,10,1349.4399,1349.4399,1349.4414,,,,0,37,37,37,1,125,20,,,,,,,,
,,5fc1bc2bf8b6b92c35064e2d,65af5485ebaa6ae4e2c7562a,2024-01-22_23h56.21.390,bars,2023.2.3,Win32,59.75143403,657b66ea316d21385b68909f,,,,,,,,,,,1349.4419,1350.443,,,1350.9446,1351.1955,,154,-26,,,,,,,,,,,,,,,,bars/048.png,bars/mask000.png,,,,,,,,,,,,2,2,,,,,,,0,6,0,7,,,,,,,,,,,1350.443,1350.9446,1351.1955,1354.022,space,2.8096,,1354.0222,76,21,1355.0235,1355.0235,1355.0367,,,,0,38,38,38,1,50,175,,,,,,,,
,,5fc1bc2bf8b6b92c35064e2d,65af5485ebaa6ae4e2c7562a,2024-01-22_23h56.21.390,bars,2023.2.3,Win32,59.75143403,657b66ea316d21385b68909f,,,,,,,,,,,1355.0369,1356.0318,,,1356.5329,1356.7607,,40,40,,,,,,,,,,,,,,,,bars/046.png,bars/mask006.png,,,,,,,,,,,,0,2,,,,,,,0,4,1,3,,,,,,,,,,,1356.032,1356.5329,1356.7607,1358.3537,space,1.5742,,1358.3538,65,45,1359.3604,1359.3605,1359.3618,,,,0,39,39,39,1,155,85,,,,,,,,
,,5fc1bc2bf8b6b92c35064e2d,65af5485ebaa6ae4e2c7562a,2024-01-22_23h56.21.390,bars,2023.2.3,Win32,59.75143403,657b66ea316d21385b68909f,,,,,,,,,,,1359.3623,1360.3667,,,1360.8673,1361.1156,,119,119,,,,,,,,,,,,,,,,bars/009.png,bars/mask009.png,,,,,,,,,,,,3,2,,,,,,,0,6,1,6,,,,,,,,,,,1360.3668,1360.8673,1361.1156,1364.5982,space,3.4545,,1364.5982,76,14,1365.5941,1365.5942,1365.6077,,,,0,40,40,40,1,15,105,,,,,,,,
,,5fc1bc2bf8b6b92c35064e2d,65af5485ebaa6ae4e2c7562a,2024-01-22_23h56.21.390,bars,2023.2.3,Win32,59.75143403,657b66ea316d21385b68909f,,,,,,,,,,,1365.608,1366.6032,,,1367.0918,1367.3407,,27,207,,,,,,,,,,,,,,,,bars/040.png,bars/mask001.png,,,,,,,,,,,,1,2,,,,,,,2,4,2,3,,,,,,,,,,,1366.6033,1367.0917,1367.3407,1370.1747,space,2.8175,,1370.1747,67,22,1371.1688,1371.1688,1371.186,,,,0,41,41,41,1,140,5,,,,,,,,
,,5fc1bc2bf8b6b92c35064e2d,65af5485ebaa6ae4e2c7562a,2024-01-22_23h56.21.390,bars,2023.2.3,Win32,59.75143403,657b66ea316d21385b68909f,,,,,,,,,,,1371.1862,1372.176,,,1372.6776,1372.9281,,18,198,,,,,,,,,,,,,,,,bars/014.png,bars/mask006.png,,,,,,,,,,,,3,2,,,,,,,4,6,3,7,,,,,,,,,,,1372.176,1372.6776,1372.9281,1377.3252,space,4.3802,,1377.3252,62,18,1378.3276,1378.3277,1378.3409,,,,0,42,42,42,1,80,0,,,,,,,,
,,5fc1bc2bf8b6b92c35064e2d,65af5485ebaa6ae4e2c7562a,2024-01-22_23h56.21.390,bars,2023.2.3,Win32,59.75143403,657b66ea316d21385b68909f,,,,,,,,,,,1378.3412,1379.3357,,,1379.8368,1380.0878,,45,45,,,,,,,,,,,,,,,,bars/010.png,bars/mask007.png,,,,,,,,,,,,3,2,,,,,,,2,4,3,4,,,,,,,,,,,1379.3358,1379.8368,1380.0879,1385.9847,space,5.8822,,1385.9848,60,10,1386.9873,1386.9873,1387.0006,,,,0,43,43,43,1,165,55,,,,,,,,
,,5fc1bc2bf8b6b92c35064e2d,65af5485ebaa6ae4e2c7562a,2024-01-22_23h56.21.390,bars,2023.2.3,Win32,59.75143403,657b66ea316d21385b68909f,,,,,,,,,,,1387.0009,1387.995,,,1388.4971,1388.7483,,37,37,,,,,,,,,,,,,,,,bars/028.png,bars/mask001.png,,,,,,,,,,,,0,1,,,,,,,0,2,0,0,,,,,,,,,,,1387.9951,1388.4971,1388.7484,1396.3048,space,7.5402,,1396.3048,8,83,1397.3074,1397.3074,1397.322,,,,0,44,44,44,1,45,120,,,,,,,,
,,5fc1bc2bf8b6b92c35064e2d,65af5485ebaa6ae4e2c7562a,2024-01-22_23h56.21.390,bars,2023.2.3,Win32,59.75143403,657b66ea316d21385b68909f,,,,,,,,,,,1397.3222,1398.3104,,,1398.8123,1399.0624,,118,118,,,,,,,,,,,,,,,,bars/018.png,bars/mask004.png,,,,,,,,,,,,0,2,,,,,,,2,4,2,3,,,,,,,,,,,1398.3105,1398.8123,1399.0625,1402.523,space,3.4448,,1402.523,32,28,1403.5256,1403.5258,1403.5398,,,,0,45,45,45,1,150,90,,,,,,,,
,,5fc1bc2bf8b6b92c35064e2d,65af5485ebaa6ae4e2c7562a,2024-01-22_23h56.21.390,bars,2023.2.3,Win32,59.75143403,657b66ea316d21385b68909f,,,,,,,,,,,1403.54,1404.5286,,,1405.0308,1405.2817,,16,16,,,,,,,,,,,,,,,,bars/045.png,bars/mask009.png,,,,,,,,,,,,5,2,,,,,,,4,6,4,6,,,,,,,,,,,1404.5287,1405.0307,1405.282,1406.1513,space,0.8525,,1406.1513,84,6,1407.1537,1407.1538,1407.1551,,,,0,46,46,46,1,100,10,,,,,,,,
,,5fc1bc2bf8b6b92c35064e2d,65af5485ebaa6ae4e2c7562a,2024-01-22_23h56.21.390,bars,2023.2.3,Win32,59.75143403,657b66ea316d21385b68909f,,,,,,,,,,,1407.1558,1408.1567,,,1408.658,1408.9088,,112,112,,,,,,,,,,,,,,,,bars/001.png,bars/mask005.png,,,,,,,,,,,,1,1,,,,,,,2,8,2,7,,,,,,,,,,,1408.1568,1408.6579,1408.9088,1410.7986,space,1.8727,,1410.7988,18,27,1411.8009,1411.8009,1411.8154,,,,0,47,47,47,1,130,85,,,,,,,,
,,5fc1bc2bf8b6b92c35064e2d,65af5485ebaa6ae4e2c7562a,2024-01-22_23h56.21.390,bars,2023.2.3,Win32,59.75143403,657b66ea316d21385b68909f,,,,,,,,,,,1411.8157,1412.8039,,,1413.3062,1413.5559,,3,3,,,,,,,,,,,,,,,,bars/012.png,bars/mask002.png,,,,,,,,,,,,3,2,,,,,,,4,6,2,5,,,,,,,,,,,1412.8039,1413.306,1413.5559,1414.3594,space,0.7864,,1414.3595,87,12,1415.362,1415.362,1415.3659,,,,0,48,48,48,1,90,15,,,,,,,,
,,5fc1bc2bf8b6b92c35064e2d,65af5485ebaa6ae4e2c7562a,2024-01-22_23h56.21.390,bars,2023.2.3,Win32,59.75143403,657b66ea316d21385b68909f,,,,,,,,,,,1415.3664,1416.365,,,1416.8663,1417.1171,,46,46,,,,,,,,,,,,,,,,bars/007.png,bars/mask004.png,,,,,,,,,,,,6,2,,,,,,,2,8,1,8,,,,,,,,,,,1416.3651,1416.8661,1417.1172,1417.636,space,0.504,,1417.6361,51,9,1418.6381,1418.6381,1418.6397,,,,0,49,49,49,1,175,55,,,,,,,,
,,5fc1bc2bf8b6b92c35064e2d,65af5485ebaa6ae4e2c7562a,2024-01-22_23h56.21.390,bars,2023.2.3,Win32,59.75143403,657b66ea316d21385b68909f,,,,,,,,,,,,,,,,,,,,,,,,,,,,,,,,,,,,,,,,,,,,,,,,,,,,,,,,,,,,,,,,,,,,,,,,,,,,,,,,,,,,,,,,,,,,,1418.6399,1478.6473,0,2,2,1,1,sequence_tables/blk042.csv
,,5fc1bc2bf8b6b92c35064e2d,65af5485ebaa6ae4e2c7562a,2024-01-22_23h56.21.390,bars,2023.2.3,Win32,59.75143403,657b66ea316d21385b68909f,,,,,,,,,,,1481.3859,1482.3825,,,1482.8838,1483.1345,,116,116,,,,,,,,,,,,,,,,bars/041.png,bars/mask001.png,,,,,,,,,,,,0,2,,,,,,,4,2,4,1,,,,,,1478.6621,1481.3799,space,2.7033,,1482.3826,1482.8837,1483.1346,1488.2998,space,5.1498,,1488.3002,84,31,1489.3028,1489.303,1489.3159,,,,0,0,0,0,1,20,85,,,,,,,,
,,5fc1bc2bf8b6b92c35064e2d,65af5485ebaa6ae4e2c7562a,2024-01-22_23h56.21.390,bars,2023.2.3,Win32,59.75143403,657b66ea316d21385b68909f,,,,,,,,,,,1489.3162,1490.3059,,,1490.8078,1491.0588,,56,56,,,,,,,,,,,,,,,,bars/029.png,bars/mask005.png,,,,,,,,,,,,2,2,,,,,,,2,4,3,3,,,,,,,,,,,1490.3059,1490.8078,1491.0592,1491.7444,space,0.6686,,1491.7444,34,11,1492.7469,1492.747,1492.7486,,,,0,1,1,1,1,90,45,,,,,,,,
,,5fc1bc2bf8b6b92c35064e2d,65af5485ebaa6ae4e2c7562a,2024-01-22_23h56.21.390,bars,2023.2.3,Win32,59.75143403,657b66ea316d21385b68909f,,,,,,,,,,,1492.7492,1493.75,,,1494.2522,1494.5019,,116,116,,,,,,,,,,,,,,,,bars/031.png,bars/mask005.png,,,,,,,,,,,,0,1,,,,,,,0,6,0,6,,,,,,,,,,,1493.75,1494.2521,1494.502,1494.97,space,0.4525,,1494.9702,4,81,1495.9728,1495.973,1495.9772,,,,0,2,2,2,1,120,35,,,,,,,,
,,5fc1bc2bf8b6b92c35064e2d,65af5485ebaa6ae4e2c7562a,2024-01-22_23h56.21.390,bars,2023.2.3,Win32,59.75143403,657b66ea316d21385b68909f,,,,,,,,,,,1495.9777,1496.9759,,,1497.4781,1497.729,,42,222,,,,,,,,,,,,,,,,bars/035.png,bars/mask006.png,,,,,,,,,,,,2,2,,,,,,,2,4,0,5,,,,,,,,,,,1496.976,1497.4781,1497.7291,1501.7247,space,3.9786,,1501.7248,47,18,1502.7272,1502.7273,1502.7419,,,,0,3,3,3,1,175,60,,,,,,,,
,,5fc1bc2bf8b6b92c35064e2d,65af5485ebaa6ae4e2c7562a,2024-01-22_23h56.21.390,bars,2023.2.3,Win32,59.75143403,657b66ea316d21385b68909f,,,,,,,,,,,1502.7422,1503.7419,,,1504.2323,1504.4824,,144,144,,,,,,,,,,,,,,,,bars/036.png,bars/mask005.png,,,,,,,,,,,,0,1,,,,,,,0,2,0,3,,,,,,,,,,,1503.742,1504.2322,1504.4825,1505.3686,space,0.8703,,1505.3686,1,56,1506.3713,1506.3714,1506.3754,,,,0,4,4,4,1,145,20,,,,,,,,
,,5fc1bc2bf8b6b92c35064e2d,65af5485ebaa6ae4e2c7562a,2024-01-22_23h56.21.390,bars,2023.2.3,Win32,59.75143403,657b66ea316d21385b68909f,,,,,,,,,,,1506.3759,1507.3743,,,1507.8765,1508.1275,,168,-12,,,,,,,,,,,,,,,,bars/005.png,bars/mask008.png,,,,,,,,,,,,0,1,,,,,,,0,4,0,5,,,,,,,,,,,1507.3744,1507.8764,1508.1278,1512.2229,space,4.0792,,1512.2229,22,28,1513.2255,1513.2256,1513.2386,,,,0,5,5,5,1,10,140,,,,,,,,
,,5fc1bc2bf8b6b92c35064e2d,65af5485ebaa6ae4e2c7562a,2024-01-22_23h56.21.390,bars,2023.2.3,Win32,59.75143403,657b66ea316d21385b68909f,,,,,,,,,,,1513.2389,1514.2285,,,1514.7307,1514.9807,,99,99,,,,,,,,,,,,,,,,bars/039.png,bars/mask008.png,,,,,,,,,,,,1,2,,,,,,,0,2,0,1,,,,,,,,,,,1514.2286,1514.7307,1514.9808,1515.9851,space,0.9887,,1515.9851,76,6,1516.9869,1516.9869,1517.0012,,,,0,6,6,6,1,175,105,,,,,,,,
,,5fc1bc2bf8b6b92c35064e2d,65af5485ebaa6ae4e2c7562a,2024-01-22_23h56.21.390,bars,2023.2.3,Win32,59.75143403,657b66ea316d21385b68909f,,,,,,,,,,,1517.0016,1517.991,,,1518.4922,1518.7428,,90,90,,,,,,,,,,,,,,,,bars/037.png,bars/mask009.png,,,,,,,,,,,,1,2,,,,,,,0,0,1,1,,,,,,,,,,,1517.9911,1518.4919,1518.7428,1519.3452,space,0.5873,,1519.3453,60,15,1520.3478,1520.3479,1520.3496,,,,0,7,7,7,1,150,105,,,,,,,,
,,5fc1bc2bf8b6b92c35064e2d,65af5485ebaa6ae4e2c7562a,2024-01-22_23h56.21.390,bars,2023.2.3,Win32,59.75143403,657b66ea316d21385b68909f,,,,,,,,,,,1520.3502,1521.3458,,,1521.8474,1522.0981,,117,117,,,,,,,,,,,,,,,,bars/049.png,bars/mask001.png,,,,,,,,,,,,2,2,,,,,,,0,2,0,2,,,,,,,,,,,1521.3459,1521.8473,1522.0982,1525.1411,space,3.0264,,1525.1411,43,2,1526.1434,1526.1435,1526.1566,,,,0,8,8,8,1,160,115,,,,,,,,
,,5fc1bc2bf8b6b92c35064e2d,65af5485ebaa6ae4e2c7562a,2024-01-22_23h56.21.390,bars,2023.2.3,Win32,59.75143403,657b66ea316d21385b68909f,,,,,,,,,,,1526.1569,1527.1466,,,1527.6362,1527.8874,,72,72,,,,,,,,,,,,,,,,bars/011.png,bars/mask003.png,,,,,,,,,,,,1,2,,,,,,,2,0,1,1,,,,,,,,,,,1527.1467,1527.6361,1527.8875,1529.4755,space,1.5716,,1529.4755,88,13,1530.4782,1530.4784,1530.48,,,,0,9,9,9,1,160,85,,,,,,,,
,,5fc1bc2bf8b6b92c35064e2d,65af5485ebaa6ae4e2c7562a,2024-01-22_23h56.21.390,bars,2023.2.3,Win32,59.75143403,657b66ea316d21385b68909f,,,,,,,,,,,1530.4805,1531.4812,,,1531.9834,1532.2335,,160,160,,,,,,,,,,,,,,,,bars/040.png,bars/mask003.png,,,,,,,,,,,,0,1,,,,,,,0,0,0,0,,,,,,,,,,,1531.4813,1531.9833,1532.2335,1534.5749,space,2.3247,,1534.5749,20,25,1535.578,1535.578,1535.5958,,,,0,10,10,10,1,140,5,,,,,,,,
,,5fc1bc2bf8b6b92c35064e2d,65af5485ebaa6ae4e2c7562a,2024-01-22_23h56.21.390,bars,2023.2.3,Win32,59.75143403,657b66ea316d21385b68909f,,,,,,,,,,,1535.596,1536.5921,,,1537.0936,1537.3444,,174,-6,,,,,,,,,,,,,,,,bars/033.png,bars/mask004.png,,,,,,,,,,,,1,2,,,,,,,2,2,3,3,,,,,,,,,,,1536.5921,1537.0936,1537.3444,1541.1058,space,3.745,,1541.1059,31,19,1542.1085,1542.1085,1542.1228,,,,0,11,11,11,1,25,155,,,,,,,,
,,5fc1bc2bf8b6b92c35064e2d,65af5485ebaa6ae4e2c7562a,2024-01-22_23h56.21.390,bars,2023.2.3,Win32,59.75143403,657b66ea316d21385b68909f,,,,,,,,,,,1542.1232,1543.1167,,,1543.6179,1543.8687,,87,87,,,,,,,,,,,,,,,,bars/019.png,bars/mask001.png,,,,,,,,,,,,0,2,,,,,,,0,0,0,0,,,,,,,,,,,1543.1168,1543.6178,1543.8687,1544.6211,space,0.7362,,1544.6211,42,18,1545.6237,1545.6238,1545.6255,,,,0,12,12,12,1,45,105,,,,,,,,
,,5fc1bc2bf8b6b92c35064e2d,65af5485ebaa6ae4e2c7562a,2024-01-22_23h56.21.390,bars,2023.2.3,Win32,59.75143403,657b66ea316d21385b68909f,,,,,,,,,,,1545.6263,1546.6267,,,1547.1289,1547.3799,,35,35,,,,,,,,,,,,,,,,bars/019.png,bars/mask003.png,,,,,,,,,,,,0,1,,,,,,,0,2,0,0,,,,,,,,,,,1546.6267,1547.1288,1547.3799,1548.0824,space,0.6854,,1548.0824,10,70,1549.0849,1549.0849,1549.0886,,,,0,13,13,13,1,45,105,,,,,,,,
,,5fc1bc2bf8b6b92c35064e2d,65af5485ebaa6ae4e2c7562a,2024-01-22_23h56.21.390,bars,2023.2.3,Win32,59.75143403,657b66ea316d21385b68909f,,,,,,,,,,,1549.0891,1550.088,,,1550.5893,1550.84,,80,80,,,,,,,,,,,,,,,,bars/019.png,bars/mask005.png,,,,,,,,,,,,1,2,,,,,,,0,4,0,4,,,,,,,,,,,1550.088,1550.5891,1550.84,1553.5655,space,2.7085,,1553.5656,35,25,1554.5681,1554.5682,1554.5823,,,,0,14,14,14,1,45,105,,,,,,,,
,,5fc1bc2bf8b6b92c35064e2d,65af5485ebaa6ae4e2c7562a,2024-01-22_23h56.21.390,bars,2023.2.3,Win32,59.75143403,657b66ea316d21385b68909f,,,,,,,,,,,1554.5826,1555.5713,,,1556.0721,1556.3231,,118,118,,,,,,,,,,,,,,,,bars/005.png,bars/mask002.png,,,,,,,,,,,,1,2,,,,,,,2,2,3,2,,,,,,,,,,,1555.5714,1556.0721,1556.3231,1558.2298,space,1.8893,,1558.2298,72,22,1559.2322,1559.2323,1559.2454,,,,0,15,15,15,1,10,140,,,,,,,,
,,5fc1bc2bf8b6b92c35064e2d,65af5485ebaa6ae4e2c7562a,2024-01-22_23h56.21.390,bars,2023.2.3,Win32,59.75143403,657b66ea316d21385b68909f,,,,,,,,,,,1559.2457,1560.2352,,,1560.7363,1560.9877,,89,89,,,,,,,,,,,,,,,,bars/022.png,bars/mask007.png,,,,,,,,,,,,0,1,,,,,,,0,0,0,0,,,,,,,,,,,1560.2354,1560.7363,1560.9878,1563.8296,space,2.8265,,1563.8297,6,69,1564.8327,1564.8327,1564.8468,,,,0,16,16,16,1,95,20,,,,,,,,
,,5fc1bc2bf8b6b92c35064e2d,65af5485ebaa6ae4e2c7562a,2024-01-22_23h56.21.390,bars,2023.2.3,Win32,59.75143403,657b66ea316d21385b68909f,,,,,,,,,,,1564.847,1565.8356,,,1566.3378,1566.5874,,12,12,,,,,,,,,,,,,,,,bars/042.png,bars/mask003.png,,,,,,,,,,,,0,1,,,,,,,0,2,0,2,,,,,,,,,,,1565.8357,1566.3378,1566.5875,1567.476,space,0.87,,1567.476,47,63,1568.4765,1568.4766,1568.4884,,,,0,17,17,17,1,145,75,,,,,,,,
,,5fc1bc2bf8b6b92c35064e2d,65af5485ebaa6ae4e2c7562a,2024-01-22_23h56.21.390,bars,2023.2.3,Win32,59.75143403,657b66ea316d21385b68909f,,,,,,,,,,,1568.4887,1569.4795,,,1569.9818,1570.2327,,149,149,,,,,,,,,,,,,,,,bars/008.png,bars/mask007.png,,,,,,,,,,,,0,2,,,,,,,0,4,0,2,,,,,,,,,,,1569.4797,1569.9817,1570.2327,1570.9853,space,0.7358,,1570.9853,39,31,1571.9877,1571.9877,1571.9922,,,,0,18,18,18,1,110,0,,,,,,,,
,,5fc1bc2bf8b6b92c35064e2d,65af5485ebaa6ae4e2c7562a,2024-01-22_23h56.21.390,bars,2023.2.3,Win32,59.75143403,657b66ea316d21385b68909f,,,,,,,,,,,1571.9926,1572.9907,,,1573.4928,1573.7379,,82,82,,,,,,,,,,,,,,,,bars/021.png,bars/mask005.png,,,,,,,,,,,,5,2,,,,,,,2,6,4,8,,,,,,,,,,,1572.9909,1573.4928,1573.7379,1574.4572,space,0.7027,,1574.4573,73,12,1575.4605,1575.4606,1575.4621,,,,0,19,19,19,1,155,70,,,,,,,,
,,5fc1bc2bf8b6b92c35064e2d,65af5485ebaa6ae4e2c7562a,2024-01-22_23h56.21.390,bars,2023.2.3,Win32,59.75143403,657b66ea316d21385b68909f,,,,,,,,,,,1575.463,1576.4422,,,1576.9376,1577.1871,,75,75,,,,,,,,,,,,,,,,bars/048.png,bars/mask009.png,,,,,,,,,,,,0,1,,,,,,,0,4,0,3,,,,,,,,,,,1576.4422,1576.9374,1577.1872,1580.2138,space,3.008,,1580.214,25,80,1581.2036,1581.2036,1581.2215,,,,0,20,20,20,1,50,175,,,,,,,,
,,5fc1bc2bf8b6b92c35064e2d,65af5485ebaa6ae4e2c7562a,2024-01-22_23h56.21.390,bars,2023.2.3,Win32,59.75143403,657b66ea316d21385b68909f,,,,,,,,,,,1581.2218,1582.2191,,,1582.7204,1582.9712,,43,43,,,,,,,,,,,,,,,,bars/040.png,bars/mask006.png,,,,,,,,,,,,0,2,,,,,,,2,6,3,7,,,,,,,,,,,1582.2192,1582.7203,1582.9717,1583.6737,space,0.6854,,1583.6737,83,38,1584.6762,1584.6763,1584.6802,,,,0,21,21,21,1,140,5,,,,,,,,
,,5fc1bc2bf8b6b92c35064e2d,65af5485ebaa6ae4e2c7562a,2024-01-22_23h56.21.390,bars,2023.2.3,Win32,59.75143403,657b66ea316d21385b68909f,,,,,,,,,,,1584.6806,1585.6792,,,1586.1803,1586.4313,,37,37,,,,,,,,,,,,,,,,bars/007.png,bars/mask006.png,,,,,,,,,,,,4,2,,,,,,,0,8,0,9,,,,,,,,,,,1585.6793,1586.1802,1586.4314,1587.1504,space,0.7002,,1587.1505,42,18,1588.1533,1588.1533,1588.1552,,,,0,22,22,22,1,175,55,,,,,,,,
,,5fc1bc2bf8b6b92c35064e2d,65af5485ebaa6ae4e2c7562a,2024-01-22_23h56.21.390,bars,2023.2.3,Win32,59.75143403,657b66ea316d21385b68909f,,,,,,,,,,,1588.1556,1589.1563,,,1589.6585,1589.9083,,24,204,,,,,,,,,,,,,,,,bars/019.png,bars/mask008.png,,,,,,,,,,,,0,1,,,,,,,0,6,1,5,,,,,,,,,,,1589.1564,1589.6584,1589.9083,1593.3042,space,3.3814,,1593.3043,21,81,1594.3058,1594.3059,1594.3202,,,,0,23,23,23,1,45,105,,,,,,,,
,,5fc1bc2bf8b6b92c35064e2d,65af5485ebaa6ae4e2c7562a,2024-01-22_23h56.21.390,bars,2023.2.3,Win32,59.75143403,657b66ea316d21385b68909f,,,,,,,,,,,1594.3204,1595.3086,,,1595.8096,1596.0606,,160,160,,,,,,,,,,,,,,,,bars/008.png,bars/mask006.png,,,,,,,,,,,,3,2,,,,,,,2,8,2,9,,,,,,,,,,,1595.3086,1595.8095,1596.0606,1596.747,space,0.6687,,1596.7472,50,20,1597.7496,1597.7498,1597.7537,,,,0,24,24,24,1,110,0,,,,,,,,
,,5fc1bc2bf8b6b92c35064e2d,65af5485ebaa6ae4e2c7562a,2024-01-22_23h56.21.390,bars,2023.2.3,Win32,59.75143403,657b66ea316d21385b68909f,,,,,,,,,,,1597.7541,1598.7527,,,1599.2537,1599.5047,,168,168,,,,,,,,,,,,,,,,bars/040.png,bars/mask003.png,,,,,,,,,,,,4,2,,,,,,,0,10,1,10,,,,,,,,,,,1598.7528,1599.2536,1599.5048,1600.4416,space,0.9194,,1600.4417,28,17,1601.4438,1601.4438,1601.4456,,,,0,25,25,25,1,140,5,,,,,,,,
,,5fc1bc2bf8b6b92c35064e2d,65af5485ebaa6ae4e2c7562a,2024-01-22_23h56.21.390,bars,2023.2.3,Win32,59.75143403,657b66ea316d21385b68909f,,,,,,,,,,,1601.4461,1602.4469,,,1602.9489,1603.1992,,82,82,,,,,,,,,,,,,,,,bars/035.png,bars/mask000.png,,,,,,,,,,,,2,2,,,,,,,2,8,3,9,,,,,,,,,,,1602.4469,1602.9489,1603.1992,1603.7339,space,0.5195,,1603.7341,87,22,1604.7368,1604.7369,1604.7386,,,,0,26,26,26,1,175,60,,,,,,,,
,,5fc1bc2bf8b6b92c35064e2d,65af5485ebaa6ae4e2c7562a,2024-01-22_23h56.21.390,bars,2023.2.3,Win32,59.75143403,657b66ea316d21385b68909f,,,,,,,,,,,1604.7393,1605.7402,,,1606.242,1606.493,,126,126,,,,,,,,,,,,,,,,bars/044.png,bars/mask000.png,,,,,,,,,,,,0,2,,,,,,,0,10,0,10,,,,,,,,,,,1605.7402,1606.242,1606.493,1606.8953,space,0.3846,,1606.8954,51,29,1607.897,1607.8971,1607.8989,,,,0,27,27,27,1,75,155,,,,,,,,
,,5fc1bc2bf8b6b92c35064e2d,65af5485ebaa6ae4e2c7562a,2024-01-22_23h56.21.390,bars,2023.2.3,Win32,59.75143403,657b66ea316d21385b68909f,,,,,,,,,,,1607.8999,1608.9,,,1609.4012,1609.6523,,51,51,,,,,,,,,,,,,,,,bars/041.png,bars/mask000.png,,,,,,,,,,,,0,1,,,,,,,0,10,0,10,,,,,,,,,,,1608.9,1609.4011,1609.6524,1611.9766,space,2.3077,,1611.9766,31,34,1612.9792,1612.9793,1612.9833,,,,0,28,28,28,1,20,85,,,,,,,,
,,5fc1bc2bf8b6b92c35064e2d,65af5485ebaa6ae4e2c7562a,2024-01-22_23h56.21.390,bars,2023.2.3,Win32,59.75143403,657b66ea316d21385b68909f,,,,,,,,,,,1612.9836,1613.9822,,,1614.4833,1614.7342,,8,8,,,,,,,,,,,,,,,,bars/033.png,bars/mask007.png,,,,,,,,,,,,0,1,,,,,,,0,10,1,10,,,,,,,,,,,1613.9823,1614.4833,1614.7343,1615.1699,space,0.4184,,1615.1699,17,33,1616.1724,1616.1727,1616.1742,,,,0,29,29,29,1,25,155,,,,,,,,
,,5fc1bc2bf8b6b92c35064e2d,65af5485ebaa6ae4e2c7562a,2024-01-22_23h56.21.390,bars,2023.2.3,Win32,59.75143403,657b66ea316d21385b68909f,,,,,,,,,,,1616.1747,1617.1755,,,1617.6767,1617.9274,,146,146,,,,,,,,,,,,,,,,bars/049.png,bars/mask008.png,,,,,,,,,,,,1,1,,,,,,,2,8,2,6,,,,,,,,,,,1617.1757,1617.6764,1617.9274,1622.776,space,4.832,,1622.7761,14,31,1623.7786,1623.7786,1623.7917,,,,0,30,30,30,1,160,115,,,,,,,,
,,5fc1bc2bf8b6b92c35064e2d,65af5485ebaa6ae4e2c7562a,2024-01-22_23h56.21.390,bars,2023.2.3,Win32,59.75143403,657b66ea316d21385b68909f,,,,,,,,,,,1623.792,1624.7816,,,1625.2827,1625.5342,,42,42,,,,,,,,,,,,,,,,bars/038.png,bars/mask001.png,,,,,,,,,,,,0,2,,,,,,,4,6,4,7,,,,,,,,,,,1624.7817,1625.2826,1625.5342,1626.5876,space,1.0372,,1626.5877,57,28,1627.5897,1627.5898,1627.5939,,,,0,31,31,31,1,165,70,,,,,,,,
,,5fc1bc2bf8b6b92c35064e2d,65af5485ebaa6ae4e2c7562a,2024-01-22_23h56.21.390,bars,2023.2.3,Win32,59.75143403,657b66ea316d21385b68909f,,,,,,,,,,,1627.5944,1628.5928,,,1629.0948,1629.3449,,110,110,,,,,,,,,,,,,,,,bars/015.png,bars/mask008.png,,,,,,,,,,,,1,1,,,,,,,2,8,1,10,,,,,,,,,,,1628.5928,1629.0948,1629.3449,1630.0814,space,0.7201,,1630.0815,0,50,1631.0839,1631.0839,1631.0881,,,,0,32,32,32,1,110,160,,,,,,,,
,,5fc1bc2bf8b6b92c35064e2d,65af5485ebaa6ae4e2c7562a,2024-01-22_23h56.21.390,bars,2023.2.3,Win32,59.75143403,657b66ea316d21385b68909f,,,,,,,,,,,1631.0885,1632.0868,,,1632.589,1632.839,,131,131,,,,,,,,,,,,,,,,bars/021.png,bars/mask001.png,,,,,,,,,,,,0,1,,,,,,,0,10,1,8,,,,,,,,,,,1632.0869,1632.5889,1632.8391,1637.9668,space,5.1133,,1637.9669,24,61,1638.9687,1638.9688,1638.9819,,,,0,33,33,33,1,155,70,,,,,,,,
,,5fc1bc2bf8b6b92c35064e2d,65af5485ebaa6ae4e2c7562a,2024-01-22_23h56.21.390,bars,2023.2.3,Win32,59.75143403,657b66ea316d21385b68909f,,,,,,,,,,,1638.9822,1639.9771,,,1640.4793,1640.7302,,81,81,,,,,,,,,,,,,,,,bars/017.png,bars/mask006.png,,,,,,,,,,,,0,2,,,,,,,2,8,2,9,,,,,,,,,,,1639.9772,1640.4793,1640.7303,1641.3656,space,0.6187,,1641.3658,64,36,1642.3684,1642.3685,1642.3723,,,,0,34,34,34,1,145,45,,,,,,,,
,,5fc1bc2bf8b6b92c35064e2d,65af5485ebaa6ae4e2c7562a,2024-01-22_23h56.21.390,bars,2023.2.3,Win32,59.75143403,657b66ea316d21385b68909f,,,,,,,,,,,1642.3728,1643.3713,,,1643.8723,1644.1233,,175,175,,,,,,,,,,,,,,,,bars/036.png,bars/mask005.png,,,,,,,,,,,,1,2,,,,,,,4,6,4,7,,,,,,,,,,,1643.3714,1643.8723,1644.1234,1644.7089,space,0.5667,,1644.7089,30,25,1645.7113,1645.7114,1645.7132,,,,0,35,35,35,1,145,20,,,,,,,,
,,5fc1bc2bf8b6b92c35064e2d,65af5485ebaa6ae4e2c7562a,2024-01-22_23h56.21.390,bars,2023.2.3,Win32,59.75143403,657b66ea316d21385b68909f,,,,,,,,,,,1645.7138,1646.7144,,,1647.2165,1647.4665,,24,24,,,,,,,,,,,,,,,,bars/007.png,bars/mask000.png,,,,,,,,,,,,0,1,,,,,,,6,4,7,2,,,,,,,,,,,1646.7145,1647.2165,1647.4665,1649.3229,space,1.8398,,1649.323,29,31,1650.3255,1650.3255,1650.3398,,,,0,36,36,36,1,175,55,,,,,,,,
,,5fc1bc2bf8b6b92c35064e2d,65af5485ebaa6ae4e2c7562a,2024-01-22_23h56.21.390,bars,2023.2.3,Win32,59.75143403,657b66ea316d21385b68909f,,,,,,,,,,,1650.3401,1651.3286,,,1651.8314,1652.0806,,113,113,,,,,,,,,,,,,,,,bars/037.png,bars/mask006.png,,,,,,,,,,,,4,2,,,,,,,4,6,5,6,,,,,,,,,,,1651.3287,1651.8314,1652.0806,1654.1379,space,2.0405,,1654.138,37,8,1655.1408,1655.1411,1655.1449,,,,0,37,37,37,1,150,105,,,,,,,,
,,5fc1bc2bf8b6b92c35064e2d,65af5485ebaa6ae4e2c7562a,2024-01-22_23h56.21.390,bars,2023.2.3,Win32,59.75143403,657b66ea316d21385b68909f,,,,,,,,,,,1655.1455,1656.1438,,,1656.6452,1656.8957,,148,148,,,,,,,,,,,,,,,,bars/023.png,bars/mask007.png,,,,,,,,,,,,0,2,,,,,,,2,8,3,9,,,,,,,,,,,1656.1441,1656.645,1656.8958,1659.1534,space,2.2428,,1659.1534,52,33,1660.156,1660.1563,1660.1691,,,,0,38,38,38,1,20,115,,,,,,,,
,,5fc1bc2bf8b6b92c35064e2d,65af5485ebaa6ae4e2c7562a,2024-01-22_23h56.21.390,bars,2023.2.3,Win32,59.75143403,657b66ea316d21385b68909f,,,,,,,,,,,1660.1694,1661.1581,,,1661.6602,1661.911,,170,170,,,,,,,,,,,,,,,,bars/049.png,bars/mask006.png,,,,,,,,,,,,1,1,,,,,,,0,10,1,10,,,,,,,,,,,1661.1582,1661.6601,1661.9111,1662.6305,space,0.7026,,1662.6305,10,55,1663.633,1663.6331,1663.6371,,,,0,39,39,39,1,160,115,,,,,,,,
,,5fc1bc2bf8b6b92c35064e2d,65af5485ebaa6ae4e2c7562a,2024-01-22_23h56.21.390,bars,2023.2.3,Win32,59.75143403,657b66ea316d21385b68909f,,,,,,,,,,,1663.6374,1664.6361,,,1665.1372,1665.3882,,10,10,,,,,,,,,,,,,,,,bars/046.png,bars/mask008.png,,,,,,,,,,,,0,1,,,,,,,2,10,2,10,,,,,,,,,,,1664.6361,1665.1371,1665.3883,1665.8237,space,0.4184,,1665.8238,35,75,1666.8262,1666.8262,1666.828,,,,0,40,40,40,1,155,85,,,,,,,,
,,5fc1bc2bf8b6b92c35064e2d,65af5485ebaa6ae4e2c7562a,2024-01-22_23h56.21.390,bars,2023.2.3,Win32,59.75143403,657b66ea316d21385b68909f,,,,,,,,,,,1666.8285,1667.8294,,,1668.3303,1668.5813,,117,-63,,,,,,,,,,,,,,,,bars/041.png,bars/mask008.png,,,,,,,,,,,,0,2,,,,,,,4,8,3,6,,,,,,,,,,,1667.8294,1668.3303,1668.5815,1672.1428,space,3.5444,,1672.1428,83,32,1673.1454,1673.1456,1673.1597,,,,0,41,41,41,1,20,85,,,,,,,,
,,5fc1bc2bf8b6b92c35064e2d,65af5485ebaa6ae4e2c7562a,2024-01-22_23h56.21.390,bars,2023.2.3,Win32,59.75143403,657b66ea316d21385b68909f,,,,,,,,,,,1673.1599,1674.1484,,,1674.6495,1674.9005,,44,224,,,,,,,,,,,,,,,,bars/038.png,bars/mask006.png,,,,,,,,,,,,1,2,,,,,,,6,10,5,9,,,,,,,,,,,1674.1484,1674.6494,1674.9005,1678.5617,space,3.6439,,1678.5618,59,26,1679.5535,1679.5536,1679.5718,,,,0,42,42,42,1,165,70,,,,,,,,
,,5fc1bc2bf8b6b92c35064e2d,65af5485ebaa6ae4e2c7562a,2024-01-22_23h56.21.390,bars,2023.2.3,Win32,59.75143403,657b66ea316d21385b68909f,,,,,,,,,,,1679.5721,1680.5622,,,1681.0641,1681.3147,,117,117,,,,,,,,,,,,,,,,bars/023.png,bars/mask005.png,,,,,,,,,,,,8,2,,,,,,,4,10,5,9,,,,,,,,,,,1680.5623,1681.0641,1681.3148,1683.3429,space,2.007,,1683.343,83,2,1684.3458,1684.3458,1684.359,,,,0,43,43,43,1,20,115,,,,,,,,
,,5fc1bc2bf8b6b92c35064e2d,65af5485ebaa6ae4e2c7562a,2024-01-22_23h56.21.390,bars,2023.2.3,Win32,59.75143403,657b66ea316d21385b68909f,,,,,,,,,,,1684.3593,1685.3488,,,1685.8498,1686.1009,,10,10,,,,,,,,,,,,,,,,bars/044.png,bars/mask001.png,,,,,,,,,,,,0,2,,,,,,,2,10,3,10,,,,,,,,,,,1685.3489,1685.8498,1686.1009,1686.8704,space,0.7527,,1686.8704,65,35,1687.873,1687.8731,1687.8748,,,,0,44,44,44,1,75,155,,,,,,,,
,,5fc1bc2bf8b6b92c35064e2d,65af5485ebaa6ae4e2c7562a,2024-01-22_23h56.21.390,bars,2023.2.3,Win32,59.75143403,657b66ea316d21385b68909f,,,,,,,,,,,1687.8753,1688.8759,,,1689.378,1689.6279,,71,71,,,,,,,,,,,,,,,,bars/047.png,bars/mask008.png,,,,,,,,,,,,10,2,,,,,,,0,10,0,10,,,,,,,,,,,1688.876,1689.378,1689.628,1691.8525,space,2.2075,,1691.8526,56,1,1692.8551,1692.8552,1692.8683,,,,0,45,45,45,1,15,70,,,,,,,,
,,5fc1bc2bf8b6b92c35064e2d,65af5485ebaa6ae4e2c7562a,2024-01-22_23h56.21.390,bars,2023.2.3,Win32,59.75143403,657b66ea316d21385b68909f,,,,,,,,,,,1692.8685,1693.8583,,,1694.3593,1694.6102,,55,55,,,,,,,,,,,,,,,,bars/041.png,bars/mask009.png,,,,,,,,,,,,0,2,,,,,,,0,10,1,10,,,,,,,,,,,1693.8584,1694.3592,1694.6103,1695.1957,space,0.5665,,1695.1958,35,30,1696.1982,1696.1982,1696.2001,,,,0,46,46,46,1,20,85,,,,,,,,
,,5fc1bc2bf8b6b92c35064e2d,65af5485ebaa6ae4e2c7562a,2024-01-22_23h56.21.390,bars,2023.2.3,Win32,59.75143403,657b66ea316d21385b68909f,,,,,,,,,,,1696.2005,1697.2013,,,1697.7033,1697.9536,,56,56,,,,,,,,,,,,,,,,bars/019.png,bars/mask002.png,,,,,,,,,,,,2,1,,,,,,,0,10,3,10,,,,,,,,,,,1697.2015,1697.7033,1697.9536,1701.5989,space,3.6282,,1701.5989,11,49,1702.6015,1702.6015,1702.6157,,,,0,47,47,47,1,45,105,,,,,,,,
,,5fc1bc2bf8b6b92c35064e2d,65af5485ebaa6ae4e2c7562a,2024-01-22_23h56.21.390,bars,2023.2.3,Win32,59.75143403,657b66ea316d21385b68909f,,,,,,,,,,,1702.616,1703.6047,,,1704.1058,1704.3567,,164,164,,,,,,,,,,,,,,,,bars/007.png,bars/mask007.png,,,,,,,,,,,,0,1,,,,,,,0,10,0,10,,,,,,,,,,,1703.6048,1704.1056,1704.3568,1704.9421,space,0.5686,,1704.9421,11,71,1705.9447,1705.9448,1705.9465,,,,0,48,48,48,1,175,55,,,,,,,,
,,5fc1bc2bf8b6b92c35064e2d,65af5485ebaa6ae4e2c7562a,2024-01-22_23h56.21.390,bars,2023.2.3,Win32,59.75143403,657b66ea316d21385b68909f,,,,,,,,,,,1705.9471,1706.9476,,,1707.4498,1707.6996,,136,136,,,,,,,,,,,,,,,,bars/030.png,bars/mask005.png,,,,,,,,,,,,1,1,,,,,,,2,8,1,8,,,,,,,,,,,1706.9478,1707.4497,1707.6997,1709.3562,space,1.6423,,1709.3562,4,71,1710.3578,1710.3578,1710.3708,,,,0,49,49,49,1,140,65,,,,,,,,
,,5fc1bc2bf8b6b92c35064e2d,65af5485ebaa6ae4e2c7562a,2024-01-22_23h56.21.390,bars,2023.2.3,Win32,59.75143403,657b66ea316d21385b68909f,,,,,,,,,,,,,,,,,,,,,,,,,,,,,,,,,,,,,,,,,,,,,,,,,,,,,,,,,,,,,,,,,,,,,,,,,,,,,,,,,,,,,,,,,,,,,1710.371,1770.3739,0,3,3,4,1,sequence_tables/blk012.csv
,,5fc1bc2bf8b6b92c35064e2d,65af5485ebaa6ae4e2c7562a,2024-01-22_23h56.21.390,bars,2023.2.3,Win32,59.75143403,657b66ea316d21385b68909f,,,,,,,,,,,1793.8972,1794.893,,,1795.3951,1795.6459,,54,54,,,,,,,,,,,,,,,,bars/038.png,bars/mask000.png,,,,,,,,,,,,3,2,,,,,,,2,7,0,6,,,,,,1770.3871,1793.8792,space,23.477,,1794.8931,1795.395,1795.646,1799.5082,space,3.8462,,1799.5084,69,16,1800.5103,1800.5103,1800.5246,,,,0,0,0,0,1,165,70,,,,,,,,
,,5fc1bc2bf8b6b92c35064e2d,65af5485ebaa6ae4e2c7562a,2024-01-22_23h56.21.390,bars,2023.2.3,Win32,59.75143403,657b66ea316d21385b68909f,,,,,,,,,,,1800.5248,1801.5181,,,1802.0204,1802.2714,,133,133,,,,,,,,,,,,,,,,bars/049.png,bars/mask005.png,,,,,,,,,,,,4,2,,,,,,,0,9,1,10,,,,,,,,,,,1801.5182,1802.0203,1802.2715,1804.2106,space,1.923,,1804.2106,27,18,1805.2196,1805.2197,1805.2213,,,,0,1,1,1,1,160,115,,,,,,,,
,,5fc1bc2bf8b6b92c35064e2d,65af5485ebaa6ae4e2c7562a,2024-01-22_23h56.21.390,bars,2023.2.3,Win32,59.75143403,657b66ea316d21385b68909f,,,,,,,,,,,1805.2219,1806.211,,,1806.7127,1806.9637,,72,72,,,,,,,,,,,,,,,,bars/026.png,bars/mask009.png,,,,,,,,,,,,4,2,,,,,,,0,7,1,7,,,,,,,,,,,1806.211,1806.7126,1806.9637,1809.8399,space,2.8593,,1809.84,37,13,1810.8419,1810.8419,1810.8551,,,,0,2,2,2,1,35,85,,,,,,,,
,,5fc1bc2bf8b6b92c35064e2d,65af5485ebaa6ae4e2c7562a,2024-01-22_23h56.21.390,bars,2023.2.3,Win32,59.75143403,657b66ea316d21385b68909f,,,,,,,,,,,1810.8554,1811.8493,,,1812.3516,1812.6025,,73,73,,,,,,,,,,,,,,,,bars/041.png,bars/mask009.png,,,,,,,,,,,,5,2,,,,,,,2,9,1,9,,,,,,,,,,,1811.8494,1812.3515,1812.6028,1815.8959,space,3.2769,,1815.896,53,12,1816.8995,1816.8996,1816.9126,,,,0,3,3,3,1,20,85,,,,,,,,
,,5fc1bc2bf8b6b92c35064e2d,65af5485ebaa6ae4e2c7562a,2024-01-22_23h56.21.390,bars,2023.2.3,Win32,59.75143403,657b66ea316d21385b68909f,,,,,,,,,,,1816.9128,1817.9017,,,1818.4028,1818.6537,,159,-21,,,,,,,,,,,,,,,,bars/024.png,bars/mask000.png,,,,,,,,,,,,6,2,,,,,,,4,10,4,10,,,,,,,,,,,1817.9018,1818.4027,1818.6541,1821.4461,space,2.7758,,1821.4461,39,11,1822.4488,1822.4489,1822.4619,,,,0,4,4,4,1,120,170,,,,,,,,
,,5fc1bc2bf8b6b92c35064e2d,65af5485ebaa6ae4e2c7562a,2024-01-22_23h56.21.390,bars,2023.2.3,Win32,59.75143403,657b66ea316d21385b68909f,,,,,,,,,,,1822.4622,1823.4518,,,1823.9529,1824.2039,,139,139,,,,,,,,,,,,,,,,bars/028.png,bars/mask003.png,,,,,,,,,,,,4,2,,,,,,,2,10,0,10,,,,,,,,,,,1823.4519,1823.9529,1824.2044,1826.4271,space,2.2075,,1826.4274,86,19,1827.4301,1827.4301,1827.4431,,,,0,5,5,5,1,45,120,,,,,,,,
,,5fc1bc2bf8b6b92c35064e2d,65af5485ebaa6ae4e2c7562a,2024-01-22_23h56.21.390,bars,2023.2.3,Win32,59.75143403,657b66ea316d21385b68909f,,,,,,,,,,,1827.4435,1828.4331,,,1828.9351,1829.1865,,50,50,,,,,,,,,,,,,,,,bars/035.png,bars/mask007.png,,,,,,,,,,,,6,2,,,,,,,4,10,5,9,,,,,,,,,,,1828.4332,1828.9351,1829.1865,1830.8578,space,1.6559,,1830.8578,55,10,1831.8603,1831.8604,1831.8618,,,,0,6,6,6,1,175,60,,,,,,,,
,,5fc1bc2bf8b6b92c35064e2d,65af5485ebaa6ae4e2c7562a,2024-01-22_23h56.21.390,bars,2023.2.3,Win32,59.75143403,657b66ea316d21385b68909f,,,,,,,,,,,1831.8625,1832.8634,,,1833.3655,1833.6163,,44,44,,,,,,,,,,,,,,,,bars/038.png,bars/mask006.png,,,,,,,,,,,,1,2,,,,,,,2,8,2,8,,,,,,,,,,,1832.8635,1833.3654,1833.6164,1834.2517,space,0.6185,,1834.2518,59,26,1835.2543,1835.2543,1835.256,,,,0,7,7,7,1,165,70,,,,,,,,
,,5fc1bc2bf8b6b92c35064e2d,65af5485ebaa6ae4e2c7562a,2024-01-22_23h56.21.390,bars,2023.2.3,Win32,59.75143403,657b66ea316d21385b68909f,,,,,,,,,,,1835.2566,1836.2573,,,1836.7583,1837.0093,,39,39,,,,,,,,,,,,,,,,bars/029.png,bars/mask009.png,,,,,,,,,,,,8,2,,,,,,,0,10,0,10,,,,,,,,,,,1836.2574,1836.7583,1837.0094,1841.3056,space,4.2806,,1841.3061,51,6,1842.3085,1842.3086,1842.3216,,,,0,8,8,8,1,90,45,,,,,,,,
,,5fc1bc2bf8b6b92c35064e2d,65af5485ebaa6ae4e2c7562a,2024-01-22_23h56.21.390,bars,2023.2.3,Win32,59.75143403,657b66ea316d21385b68909f,,,,,,,,,,,1842.3219,1843.3115,,,1843.8137,1844.0649,,157,-23,,,,,,,,,,,,,,,,bars/016.png,bars/mask005.png,,,,,,,,,,,,6,2,,,,,,,2,8,2,8,,,,,,,,,,,1843.3115,1843.8136,1844.0649,1848.9914,space,4.9122,,1848.9915,63,8,1849.9939,1849.994,1850.0074,,,,0,9,9,9,1,40,165,,,,,,,,
,,5fc1bc2bf8b6b92c35064e2d,65af5485ebaa6ae4e2c7562a,2024-01-22_23h56.21.390,bars,2023.2.3,Win32,59.75143403,657b66ea316d21385b68909f,,,,,,,,,,,1850.0077,1851.0018,,,1851.504,1851.7547,,46,46,,,,,,,,,,,,,,,,bars/035.png,bars/mask003.png,,,,,,,,,,,,5,2,,,,,,,0,10,0,10,,,,,,,,,,,1851.0019,1851.5039,1851.7547,1856.0514,space,4.2803,,1856.0514,51,14,1857.0541,1857.0541,1857.0672,,,,0,10,10,10,1,175,60,,,,,,,,
,,5fc1bc2bf8b6b92c35064e2d,65af5485ebaa6ae4e2c7562a,2024-01-22_23h56.21.390,bars,2023.2.3,Win32,59.75143403,657b66ea316d21385b68909f,,,,,,,,,,,1857.0674,1858.0571,,,1858.5581,1858.8092,,132,-48,,,,,,,,,,,,,,,,bars/006.png,bars/mask002.png,,,,,,,,,,,,0,2,,,,,,,0,8,1,8,,,,,,,,,,,1858.0571,1858.5581,1858.8092,1880.6691,space,21.8449,,1880.6692,83,32,1881.6671,1881.6673,1881.6851,,,,0,11,11,11,1,35,100,,,,,,,,
