init_variables.started,init_variables.stopped,participant,session,date,expName,psychopyVersion,OS,frameRate,study_id,instruction_exp.started,instruction_exp.stopped,key_resp_8.keys,key_resp_8.rt,key_resp_8.duration,instruction_single.started,instruction_single.stopped,key_resp_2.keys,key_resp_2.rt,key_resp_2.duration,interval.started,interval.stopped,cue_single.started,cue_single.stopped,mask.started,mask.stopped,ori_response_single.started,res_ori,res,ori_response_single.stopped,key_resp_single.keys,key_resp_single.rt,key_resp_single.duration,disp_single.started,disp_single.stopped,key_resp.keys,key_resp.rt,key_resp.duration,single.thisRepN,single.thisTrialN,single.thisN,single.thisIndex,single.ran,ori,path,mask_path,instruction_bandit.started,instruction_bandit.stopped,key_resp_6.keys,key_resp_6.rt,key_resp_6.duration,cue_bandit.started,cue_bandit.stopped,bandit_res.keys,bandit_res.rt,bandit_res.duration,outcome_bandit.started,rew,action,outcome_bandit.stopped,bandit.thisRepN,bandit.thisTrialN,bandit.thisN,bandit.thisIndex,bandit.ran,actual_rew1,actual_rew2,rew1,rew2,instruction_task.started,instruction_task.stopped,key_resp_7.keys,key_resp_7.rt,key_resp_7.duration,wait_ready.started,wait_ready.stopped,key_resp_3.keys,key_resp_3.rt,key_resp_3.duration,cue.started,cue.stopped,ori_response.started,ori_response.stopped,key_resp_5.keys,key_resp_5.rt,key_resp_5.duration,outcome.started,diff1,diff2,outcome.stopped,disp_outcome_practice.started,disp_outcome_practice.stopped,key_resp_4.keys,key_resp_4.rt,key_resp_4.duration,trials.thisRepN,trials.thisTrialN,trials.thisN,trials.thisIndex,trials.ran,ori1,ori2,break_blk.started,break_blk.stopped,block.thisRepN,block.thisTrialN,block.thisN,block.thisIndex,block.ran,condition_file
0.0002,0.0004,578e215abaec1b0001697778,65af555c304b05200d920850,2024-01-23_06h58.01.027,bars,2023.2.3,Win32,59.88023952,657b66ea316d21385b68909f,,,,,,,,,,,,,,,,,,,,,,,,,,,,,,,,,,,,,,,,,,,,,,,,,,,,,,,,,,,,,,,,,,,,,,,,,,,,,,,,,,,,,,,,,,,,,,,,,,,,
,,578e215abaec1b0001697778,65af555c304b05200d920850,2024-01-23_06h58.01.027,bars,2023.2.3,Win32,59.88023952,657b66ea316d21385b68909f,0.0005,7.6704,y,7.6539,,,,,,,,,,,,,,,,,,,,,,,,,,,,,,,,,,,,,,,,,,,,,,,,,,,,,,,,,,,,,,,,,,,,,,,,,,,,,,,,,,,,,,,,,,,,,,,,
,,578e215abaec1b0001697778,65af555c304b05200d920850,2024-01-23_06h58.01.027,bars,2023.2.3,Win32,59.88023952,657b66ea316d21385b68909f,,,,,,7.6709,40.3525,space,32.6575,,,,,,,,,,,,,,,,,,,,,,,,,,,,,,,,,,,,,,,,,,,,,,,,,,,,,,,,,,,,,,,,,,,,,,,,,,,,,,,,,,,,,,,,,,,
,,578e215abaec1b0001697778,65af555c304b05200d920850,2024-01-23_06h58.01.027,bars,2023.2.3,Win32,59.88023952,657b66ea316d21385b68909f,,,,,,,,,,,40.3673,41.3533,41.3536,41.8539,41.8542,42.1042,42.1045,16,196,59.6897,space,17.5411,,59.6901,80.7273,space,20.9916,,0,0,0,8,1,160,bars/single008.png,bars/mask004.png,,,,,,,,,,,,,,,,,,,,,,,,,,,,,,,,,,,,,,,,,,,,,,,,,,,,,,,,,,,,,,,,
,,578e215abaec1b0001697778,65af555c304b05200d920850,2024-01-23_06h58.01.027,bars,2023.2.3,Win32,59.88023952,657b66ea316d21385b68909f,,,,,,,,,,,80.7498,81.7431,81.7433,82.2437,82.2437,82.494,82.4941,18,198,89.0506,space,6.5269,,89.0506,97.5926,space,8.513,,0,1,1,1,1,20,bars/single001.png,bars/mask006.png,,,,,,,,,,,,,,,,,,,,,,,,,,,,,,,,,,,,,,,,,,,,,,,,,,,,,,,,,,,,,,,,
,,578e215abaec1b0001697778,65af555c304b05200d920850,2024-01-23_06h58.01.027,bars,2023.2.3,Win32,59.88023952,657b66ea316d21385b68909f,,,,,,,,,,,97.6154,98.5934,98.5934,99.0939,99.0941,99.3443,99.3443,43,223,104.6662,space,5.2927,,104.6663,108.5365,space,3.8365,,0,2,2,5,1,55,bars/single005.png,bars/mask008.png,,,,,,,,,,,,,,,,,,,,,,,,,,,,,,,,,,,,,,,,,,,,,,,,,,,,,,,,,,,,,,,,
,,578e215abaec1b0001697778,65af555c304b05200d920850,2024-01-23_06h58.01.027,bars,2023.2.3,Win32,59.88023952,657b66ea316d21385b68909f,,,,,,,,,,,108.5496,109.5372,109.5372,110.0381,110.0382,110.2884,110.2885,53,53,114.8315,space,4.5366,,114.8315,120.4655,space,5.6139,,0,3,3,7,1,45,bars/single007.png,bars/mask009.png,,,,,,,,,,,,,,,,,,,,,,,,,,,,,,,,,,,,,,,,,,,,,,,,,,,,,,,,,,,,,,,,
,,578e215abaec1b0001697778,65af555c304b05200d920850,2024-01-23_06h58.01.027,bars,2023.2.3,Win32,59.88023952,657b66ea316d21385b68909f,,,,,,,,,,,120.4889,121.4659,121.4659,121.9667,121.9667,122.217,122.217,92,92,128.5068,space,6.2741,,128.5068,138.2497,space,9.7141,,0,4,4,4,1,95,bars/single004.png,bars/mask004.png,,,,,,,,,,,,,,,,,,,,,,,,,,,,,,,,,,,,,,,,,,,,,,,,,,,,,,,,,,,,,,,,
,,578e215abaec1b0001697778,65af555c304b05200d920850,2024-01-23_06h58.01.027,bars,2023.2.3,Win32,59.88023952,657b66ea316d21385b68909f,,,,,,,,,,,138.2749,139.2507,139.2508,139.7511,139.7511,140.0013,140.0015,35,35,146.0577,space,6.0274,,146.0579,151.2626,space,5.1657,,0,5,5,9,1,20,bars/single009.png,bars/mask006.png,,,,,,,,,,,,,,,,,,,,,,,,,,,,,,,,,,,,,,,,,,,,,,,,,,,,,,,,,,,,,,,,
,,578e215abaec1b0001697778,65af555c304b05200d920850,2024-01-23_06h58.01.027,bars,2023.2.3,Win32,59.88023952,657b66ea316d21385b68909f,,,,,,,,,,,151.2863,152.2637,152.2638,152.7641,152.7642,153.0144,153.0145,5,5,160.539,space,7.5107,,160.5391,165.0265,space,4.4488,,0,6,6,6,1,175,bars/single006.png,bars/mask005.png,,,,,,,,,,,,,,,,,,,,,,,,,,,,,,,,,,,,,,,,,,,,,,,,,,,,,,,,,,,,,,,,
,,578e215abaec1b0001697778,65af555c304b05200d920850,2024-01-23_06h58.01.027,bars,2023.2.3,Win32,59.88023952,657b66ea316d21385b68909f,,,,,,,,,,,165.0496,166.0273,166.0274,166.5277,166.5278,166.7778,166.7779,128,128,171.2656,space,4.4745,,171.2656,176.5711,space,5.2742,,0,7,7,2,1,145,bars/single002.png,bars/mask003.png,,,,,,,,,,,,,,,,,,,,,,,,,,,,,,,,,,,,,,,,,,,,,,,,,,,,,,,,,,,,,,,,
,,578e215abaec1b0001697778,65af555c304b05200d920850,2024-01-23_06h58.01.027,bars,2023.2.3,Win32,59.88023952,657b66ea316d21385b68909f,,,,,,,,,,,176.5938,177.572,177.572,178.0724,178.0725,178.3228,178.3228,29,29,182.9943,space,4.6424,,182.9943,185.0127,space,1.9861,,0,8,8,3,1,20,bars/single003.png,bars/mask005.png,,,,,,,,,,,,,,,,,,,,,,,,,,,,,,,,,,,,,,,,,,,,,,,,,,,,,,,,,,,,,,,,
,,578e215abaec1b0001697778,65af555c304b05200d920850,2024-01-23_06h58.01.027,bars,2023.2.3,Win32,59.88023952,657b66ea316d21385b68909f,,,,,,,,,,,185.0134,186.0136,186.0137,186.5142,186.5142,186.7644,186.7644,143,143,190.1177,space,3.3368,,190.1178,192.8041,space,2.6551,,0,9,9,0,1,150,bars/single000.png,bars/mask006.png,,,,,,,,,,,,,,,,,,,,,,,,,,,,,,,,,,,,,,,,,,,,,,,,,,,,,,,,,,,,,,,,
,,578e215abaec1b0001697778,65af555c304b05200d920850,2024-01-23_06h58.01.027,bars,2023.2.3,Win32,59.88023952,657b66ea316d21385b68909f,,,,,,,,,,,,,,,,,,,,,,,,,,,,,,,,,,,,,192.8278,255.2342,space,62.3873,,,,,,,,,,,,,,,,,,,,,,,,,,,,,,,,,,,,,,,,,,,,,,,,,,,,,,,,,,,,
,,578e215abaec1b0001697778,65af555c304b05200d920850,2024-01-23_06h58.01.027,bars,2023.2.3,Win32,59.88023952,657b66ea316d21385b68909f,,,,,,,,,,,,,,,,,,,,,,,,,,,,,,,,,,,,,,,,,,255.2597,266.1616,left,10.8797,,266.162,9,1,267.1615,0,0,0,0,1,9,1,9,2,,,,,,,,,,,,,,,,,,,,,,,,,,,,,,,,,,,,,,,,,
,,578e215abaec1b0001697778,65af555c304b05200d920850,2024-01-23_06h58.01.027,bars,2023.2.3,Win32,59.88023952,657b66ea316d21385b68909f,,,,,,,,,,,,,,,,,,,,,,,,,,,,,,,,,,,,,,,,,,267.1624,270.7649,right,3.5796,,270.765,1,2,271.7657,0,1,1,1,1,10,0,10,1,,,,,,,,,,,,,,,,,,,,,,,,,,,,,,,,,,,,,,,,,
,,578e215abaec1b0001697778,65af555c304b05200d920850,2024-01-23_06h58.01.027,bars,2023.2.3,Win32,59.88023952,657b66ea316d21385b68909f,,,,,,,,,,,,,,,,,,,,,,,,,,,,,,,,,,,,,,,,,,271.7664,274.1681,left,2.371,,274.1682,10,1,275.1692,0,2,2,2,1,10,2,10,2,,,,,,,,,,,,,,,,,,,,,,,,,,,,,,,,,,,,,,,,,
,,578e215abaec1b0001697778,65af555c304b05200d920850,2024-01-23_06h58.01.027,bars,2023.2.3,Win32,59.88023952,657b66ea316d21385b68909f,,,,,,,,,,,,,,,,,,,,,,,,,,,,,,,,,,,,,,,,,,275.1947,276.5255,left,1.3256,,276.5256,7,1,277.5208,0,3,3,3,1,8,4,7,3,,,,,,,,,,,,,,,,,,,,,,,,,,,,,,,,,,,,,,,,,
,,578e215abaec1b0001697778,65af555c304b05200d920850,2024-01-23_06h58.01.027,bars,2023.2.3,Win32,59.88023952,657b66ea316d21385b68909f,,,,,,,,,,,,,,,,,,,,,,,,,,,,,,,,,,,,,,,,,,277.5211,278.9731,left,1.4271,,278.9732,5,1,279.974,0,4,4,4,1,6,2,5,1,,,,,,,,,,,,,,,,,,,,,,,,,,,,,,,,,,,,,,,,,
,,578e215abaec1b0001697778,65af555c304b05200d920850,2024-01-23_06h58.01.027,bars,2023.2.3,Win32,59.88023952,657b66ea316d21385b68909f,,,,,,,,,,,,,,,,,,,,,,,,,,,,,,,,,,,,,,,,,,279.9747,281.2752,left,1.2785,,281.2753,4,1,282.2761,0,5,5,5,1,4,4,4,4,,,,,,,,,,,,,,,,,,,,,,,,,,,,,,,,,,,,,,,,,
,,578e215abaec1b0001697778,65af555c304b05200d920850,2024-01-23_06h58.01.027,bars,2023.2.3,Win32,59.88023952,657b66ea316d21385b68909f,,,,,,,,,,,,,,,,,,,,,,,,,,,,,,,,,,,,,,,,,,282.2966,283.6106,right,1.3083,,283.6107,2,2,284.6117,0,6,6,6,1,2,2,1,2,,,,,,,,,,,,,,,,,,,,,,,,,,,,,,,,,,,,,,,,,
,,578e215abaec1b0001697778,65af555c304b05200d920850,2024-01-23_06h58.01.027,bars,2023.2.3,Win32,59.88023952,657b66ea316d21385b68909f,,,,,,,,,,,,,,,,,,,,,,,,,,,,,,,,,,,,,,,,,,284.6124,286.3639,left,1.7207,,286.364,0,1,287.3647,0,7,7,7,1,0,0,0,1,,,,,,,,,,,,,,,,,,,,,,,,,,,,,,,,,,,,,,,,,
,,578e215abaec1b0001697778,65af555c304b05200d920850,2024-01-23_06h58.01.027,bars,2023.2.3,Win32,59.88023952,657b66ea316d21385b68909f,,,,,,,,,,,,,,,,,,,,,,,,,,,,,,,,,,,,,,,,,,287.3654,289.6672,left,2.2738,,289.6673,1,1,290.6678,0,8,8,8,1,0,2,1,0,,,,,,,,,,,,,,,,,,,,,,,,,,,,,,,,,,,,,,,,,
,,578e215abaec1b0001697778,65af555c304b05200d920850,2024-01-23_06h58.01.027,bars,2023.2.3,Win32,59.88023952,657b66ea316d21385b68909f,,,,,,,,,,,,,,,,,,,,,,,,,,,,,,,,,,,,,,,,,,290.697,291.8191,right,1.1065,,291.8192,3,2,292.8202,0,9,9,9,1,2,4,2,3,,,,,,,,,,,,,,,,,,,,,,,,,,,,,,,,,,,,,,,,,
,,578e215abaec1b0001697778,65af555c304b05200d920850,2024-01-23_06h58.01.027,bars,2023.2.3,Win32,59.88023952,657b66ea316d21385b68909f,,,,,,,,,,,,,,,,,,,,,,,,,,,,,,,,,,,,,,,,,,292.8207,295.9898,right,3.1524,,295.9898,3,2,296.9908,0,10,10,10,1,0,2,0,3,,,,,,,,,,,,,,,,,,,,,,,,,,,,,,,,,,,,,,,,,
,,578e215abaec1b0001697778,65af555c304b05200d920850,2024-01-23_06h58.01.027,bars,2023.2.3,Win32,59.88023952,657b66ea316d21385b68909f,,,,,,,,,,,,,,,,,,,,,,,,,,,,,,,,,,,,,,,,,,297.0145,298.526,left,1.5028,,298.5261,0,1,299.5269,0,11,11,11,1,0,4,0,3,,,,,,,,,,,,,,,,,,,,,,,,,,,,,,,,,,,,,,,,,
,,578e215abaec1b0001697778,65af555c304b05200d920850,2024-01-23_06h58.01.027,bars,2023.2.3,Win32,59.88023952,657b66ea316d21385b68909f,,,,,,,,,,,,,,,,,,,,,,,,,,,,,,,,,,,,,,,,,,299.5275,300.1776,right,0.6245,,300.1776,6,2,301.1784,0,12,12,12,1,2,6,1,6,,,,,,,,,,,,,,,,,,,,,,,,,,,,,,,,,,,,,,,,,
,,578e215abaec1b0001697778,65af555c304b05200d920850,2024-01-23_06h58.01.027,bars,2023.2.3,Win32,59.88023952,657b66ea316d21385b68909f,,,,,,,,,,,,,,,,,,,,,,,,,,,,,,,,,,,,,,,,,,301.1789,301.8123,right,0.6104,,301.8125,3,2,302.8131,0,13,13,13,1,0,4,1,3,,,,,,,,,,,,,,,,,,,,,,,,,,,,,,,,,,,,,,,,,
,,578e215abaec1b0001697778,65af555c304b05200d920850,2024-01-23_06h58.01.027,bars,2023.2.3,Win32,59.88023952,657b66ea316d21385b68909f,,,,,,,,,,,,,,,,,,,,,,,,,,,,,,,,,,,,,,,,,,302.8138,303.7477,right,0.9032,,303.7477,7,2,304.7487,0,14,14,14,1,2,6,2,7,,,,,,,,,,,,,,,,,,,,,,,,,,,,,,,,,,,,,,,,,
,,578e215abaec1b0001697778,65af555c304b05200d920850,2024-01-23_06h58.01.027,bars,2023.2.3,Win32,59.88023952,657b66ea316d21385b68909f,,,,,,,,,,,,,,,,,,,,,,,,,,,,,,,,,,,,,,,,,,304.7493,305.5496,right,0.7756,,305.5497,9,2,306.5505,0,15,15,15,1,4,8,3,9,,,,,,,,,,,,,,,,,,,,,,,,,,,,,,,,,,,,,,,,,
,,578e215abaec1b0001697778,65af555c304b05200d920850,2024-01-23_06h58.01.027,bars,2023.2.3,Win32,59.88023952,657b66ea316d21385b68909f,,,,,,,,,,,,,,,,,,,,,,,,,,,,,,,,,,,,,,,,,,306.5511,307.3014,right,0.7194,,307.3014,7,2,308.3019,0,16,16,16,1,6,6,7,7,,,,,,,,,,,,,,,,,,,,,,,,,,,,,,,,,,,,,,,,,
,,578e215abaec1b0001697778,65af555c304b05200d920850,2024-01-23_06h58.01.027,bars,2023.2.3,Win32,59.88023952,657b66ea316d21385b68909f,,,,,,,,,,,,,,,,,,,,,,,,,,,,,,,,,,,,,,,,,,308.3025,308.8865,right,0.5585,,308.8865,5,2,309.887,0,17,17,17,1,8,4,9,5,,,,,,,,,,,,,,,,,,,,,,,,,,,,,,,,,,,,,,,,,
,,578e215abaec1b0001697778,65af555c304b05200d920850,2024-01-23_06h58.01.027,bars,2023.2.3,Win32,59.88023952,657b66ea316d21385b68909f,,,,,,,,,,,,,,,,,,,,,,,,,,,,,,,,,,,,,,,,,,309.8876,311.2382,right,1.3276,,311.2383,1,2,312.2396,0,18,18,18,1,6,2,5,1,,,,,,,,,,,,,,,,,,,,,,,,,,,,,,,,,,,,,,,,,
,,578e215abaec1b0001697778,65af555c304b05200d920850,2024-01-23_06h58.01.027,bars,2023.2.3,Win32,59.88023952,657b66ea316d21385b68909f,,,,,,,,,,,,,,,,,,,,,,,,,,,,,,,,,,,,,,,,,,312.2633,312.6892,left,0.4203,,312.6892,7,1,313.6908,0,19,19,19,1,8,0,7,0,,,,,,,,,,,,,,,,,,,,,,,,,,,,,,,,,,,,,,,,,
,,578e215abaec1b0001697778,65af555c304b05200d920850,2024-01-23_06h58.01.027,bars,2023.2.3,Win32,59.88023952,657b66ea316d21385b68909f,,,,,,,,,,,,,,,,,,,,,,,,,,,,,,,,,,,,,,,,,,,,,,,,,,,,,,,,,,,,313.6923,336.1812,space,22.4598,,,,,,,,,,,,,,,,,,,,,,,,,,,,,,,,,,,,,
,,578e215abaec1b0001697778,65af555c304b05200d920850,2024-01-23_06h58.01.027,bars,2023.2.3,Win32,59.88023952,657b66ea316d21385b68909f,,,,,,,,,,,338.0758,339.0659,,,339.5669,339.8168,,80,80,,,,,,,,,,,,,,,,bars/006.png,bars/mask003.png,,,,,,,,,,,,3,2,,,,,,,0,10,1,9,,,,,,336.2039,338.0657,space,1.8466,,339.0663,339.5669,339.8172,345.5741,space,5.7238,,345.5746,45,20,346.5737,346.5742,370.6325,space,24.0265,,0,0,0,0,1,35,100,,,,,,,,
,,578e215abaec1b0001697778,65af555c304b05200d920850,2024-01-23_06h58.01.027,bars,2023.2.3,Win32,59.88023952,657b66ea316d21385b68909f,,,,,,,,,,,370.6536,371.6486,,,372.1491,372.3993,,60,60,,,,,,,,,,,,,,,,bars/035.png,bars/mask006.png,,,,,,,,,,,,10,2,,,,,,,0,10,0,10,,,,,,,,,,,371.6488,372.1489,372.3994,375.9196,space,3.5045,,375.9201,65,0,376.9197,376.9197,392.6694,space,15.7267,,0,1,1,1,1,175,60,,,,,,,,
,,578e215abaec1b0001697778,65af555c304b05200d920850,2024-01-23_06h58.01.027,bars,2023.2.3,Win32,59.88023952,657b66ea316d21385b68909f,,,,,,,,,,,392.6926,393.6704,,,394.1713,394.4213,,179,-1,,,,,,,,,,,,,,,,bars/008.png,bars/mask003.png,,,,,,,,,,,,10,2,,,,,,,0,10,0,10,,,,,,,,,,,393.6704,394.1712,394.4213,397.6747,space,3.2368,,397.6748,69,1,398.6753,398.6753,404.9651,space,6.2542,,0,2,2,2,1,110,0,,,,,,,,
,,578e215abaec1b0001697778,65af555c304b05200d920850,2024-01-23_06h58.01.027,bars,2023.2.3,Win32,59.88023952,657b66ea316d21385b68909f,,,,,,,,,,,404.9904,405.966,,,406.4668,406.7168,,149,-31,,,,,,,,,,,,,,,,bars/000.png,bars/mask003.png,,,,,,,,,,,,8,2,,,,,,,0,8,0,9,,,,,,,,,,,405.9661,406.4668,406.717,411.1382,space,4.407,,411.1383,71,4,412.1386,412.1387,416.1432,space,3.9725,,0,3,3,3,1,40,145,,,,,,,,
,,578e215abaec1b0001697778,65af555c304b05200d920850,2024-01-23_06h58.01.027,bars,2023.2.3,Win32,59.88023952,657b66ea316d21385b68909f,,,,,,,,,,,416.1676,417.144,,,417.6447,417.8944,,143,143,,,,,,,,,,,,,,,,bars/043.png,bars/mask009.png,,,,,,,,,,,,6,2,,,,,,,2,10,3,10,,,,,,,,,,,417.1441,417.6446,417.8945,420.3808,space,2.4618,,420.3809,67,13,421.3815,421.3817,425.0021,space,3.5792,,0,4,4,4,1,30,130,,,,,,,,
,,578e215abaec1b0001697778,65af555c304b05200d920850,2024-01-23_06h58.01.027,bars,2023.2.3,Win32,59.88023952,657b66ea316d21385b68909f,,,,,,,,,,,425.0277,426.0025,,,426.5034,426.7527,,150,150,,,,,,,,,,,,,,,,bars/004.png,bars/mask002.png,,,,,,,,,,,,2,2,,,,,,,0,10,0,10,,,,,,,,,,,426.0026,426.5034,426.7527,428.4891,space,1.7242,,428.4892,55,25,429.4895,429.4896,435.1288,space,5.6148,,0,5,5,5,1,25,125,,,,,,,,
,,578e215abaec1b0001697778,65af555c304b05200d920850,2024-01-23_06h58.01.027,bars,2023.2.3,Win32,59.88023952,657b66ea316d21385b68909f,,,,,,,,,,,435.1543,436.1294,,,436.6301,436.88,,143,-37,,,,,,,,,,,,,,,,bars/049.png,bars/mask006.png,,,,,,,,,,,,0,1,,,,,,,2,10,1,10,,,,,,,,,,,436.1294,436.63,436.8801,441.7855,space,4.8893,,441.7856,17,28,442.7861,442.7862,445.0051,space,2.1813,,0,6,6,6,1,160,115,,,,,,,,
,,578e215abaec1b0001697778,65af555c304b05200d920850,2024-01-23_06h58.01.027,bars,2023.2.3,Win32,59.88023952,657b66ea316d21385b68909f,,,,,,,,,,,445.0058,446.0058,,,446.5065,446.7566,,32,32,,,,,,,,,,,,,,,,bars/007.png,bars/mask003.png,,,,,,,,,,,,2,2,,,,,,,0,10,0,9,,,,,,,,,,,446.0059,446.5064,446.7567,448.9083,space,2.1342,,448.9083,37,23,449.9096,449.9097,452.5295,space,2.5791,,0,7,7,7,1,175,55,,,,,,,,
,,578e215abaec1b0001697778,65af555c304b05200d920850,2024-01-23_06h58.01.027,bars,2023.2.3,Win32,59.88023952,657b66ea316d21385b68909f,,,,,,,,,,,452.53,453.5297,,,454.0307,454.2807,,37,37,,,,,,,,,,,,,,,,bars/010.png,bars/mask007.png,,,,,,,,,,,,3,2,,,,,,,2,8,2,7,,,,,,,,,,,453.5297,454.0306,454.2807,457.6007,space,3.3059,,457.6008,52,18,458.6019,458.602,463.8237,space,5.1825,,0,8,8,8,1,165,55,,,,,,,,
,,578e215abaec1b0001697778,65af555c304b05200d920850,2024-01-23_06h58.01.027,bars,2023.2.3,Win32,59.88023952,657b66ea316d21385b68909f,,,,,,,,,,,463.8467,464.8247,,,465.325,465.5752,,48,228,,,,,,,,,,,,,,,,bars/029.png,bars/mask006.png,,,,,,,,,,,,5,2,,,,,,,0,6,1,6,,,,,,,,,,,464.8247,465.325,465.5753,470.1969,space,4.5908,,470.1969,42,3,471.1978,471.198,473.867,space,2.6377,,0,9,9,9,1,90,45,,,,,,,,
,,578e215abaec1b0001697778,65af555c304b05200d920850,2024-01-23_06h58.01.027,bars,2023.2.3,Win32,59.88023952,657b66ea316d21385b68909f,,,,,,,,,,,473.8677,474.8679,,,475.3686,475.6181,,47,47,,,,,,,,,,,,,,,,bars/025.png,bars/mask006.png,,,,,,,,,,,,5,2,,,,,,,2,8,2,7,,,,,,,,,,,474.868,475.3686,475.6182,479.7064,space,4.073,,479.7066,58,7,480.707,480.7071,482.6923,space,1.953,,0,10,10,10,1,105,40,,,,,,,,
,,578e215abaec1b0001697778,65af555c304b05200d920850,2024-01-23_06h58.01.027,bars,2023.2.3,Win32,59.88023952,657b66ea316d21385b68909f,,,,,,,,,,,482.6931,483.6935,,,484.1938,484.4442,,158,158,,,,,,,,,,,,,,,,bars/044.png,bars/mask008.png,,,,,,,,,,,,5,2,,,,,,,0,6,0,6,,,,,,,,,,,483.6936,484.1938,484.4442,488.8822,space,4.4227,,488.8822,83,3,489.8825,489.8825,491.7017,space,1.7931,,0,11,11,11,1,75,155,,,,,,,,
,,578e215abaec1b0001697778,65af555c304b05200d920850,2024-01-23_06h58.01.027,bars,2023.2.3,Win32,59.88023952,657b66ea316d21385b68909f,,,,,,,,,,,491.7024,492.7021,,,493.2029,493.4534,,82,82,,,,,,,,,,,,,,,,bars/021.png,bars/mask006.png,,,,,,,,,,,,3,2,,,,,,,0,4,0,5,,,,,,,,,,,492.7022,493.2028,493.4536,496.7566,space,3.2947,,496.7567,73,12,497.7575,497.7576,500.1433,space,2.3522,,0,12,12,12,1,155,70,,,,,,,,
,,578e215abaec1b0001697778,65af555c304b05200d920850,2024-01-23_06h58.01.027,bars,2023.2.3,Win32,59.88023952,657b66ea316d21385b68909f,,,,,,,,,,,500.1439,501.1443,,,501.65,501.8943,,91,91,,,,,,,,,,,,,,,,bars/006.png,bars/mask009.png,,,,,,,,,,,,2,2,,,,,,,2,2,2,3,,,,,,,,,,,501.1444,501.65,501.8943,506.2494,space,4.3234,,506.2495,56,9,507.2503,507.2504,508.8516,space,1.5688,,0,13,13,13,1,35,100,,,,,,,,
,,578e215abaec1b0001697778,65af555c304b05200d920850,2024-01-23_06h58.01.027,bars,2023.2.3,Win32,59.88023952,657b66ea316d21385b68909f,,,,,,,,,,,508.8521,509.8524,,,510.3536,510.6032,,147,-33,,,,,,,,,,,,,,,,bars/015.png,bars/mask000.png,,,,,,,,,,,,2,2,,,,,,,4,4,5,4,,,,,,,,,,,509.8525,510.3535,510.6033,514.2572,space,3.6389,,514.2573,37,13,515.2583,515.2584,516.8426,space,1.5516,,0,14,14,14,1,110,160,,,,,,,,
,,578e215abaec1b0001697778,65af555c304b05200d920850,2024-01-23_06h58.01.027,bars,2023.2.3,Win32,59.88023952,657b66ea316d21385b68909f,,,,,,,,,,,516.843,517.8441,,,518.3447,518.6004,,97,97,,,,,,,,,,,,,,,,bars/006.png,bars/mask006.png,,,,,,,,,,,,3,2,,,,,,,2,6,0,3,,,,,,,,,,,517.8442,518.3446,518.6004,520.6472,space,2.0312,,520.6473,62,3,521.6476,521.6477,522.8988,space,1.2219,,0,15,15,15,1,35,100,,,,,,,,
,,578e215abaec1b0001697778,65af555c304b05200d920850,2024-01-23_06h58.01.027,bars,2023.2.3,Win32,59.88023952,657b66ea316d21385b68909f,,,,,,,,,,,522.8991,523.9003,,,524.4006,524.6507,,154,154,,,,,,,,,,,,,,,,bars/044.png,bars/mask000.png,,,,,,,,,,,,4,2,,,,,,,4,4,3,4,,,,,,,,,,,523.9004,524.4005,524.6507,528.6383,space,3.9771,,528.6383,79,1,529.6392,529.6393,530.9126,space,1.2434,,0,16,16,16,1,75,155,,,,,,,,
,,578e215abaec1b0001697778,65af555c304b05200d920850,2024-01-23_06h58.01.027,bars,2023.2.3,Win32,59.88023952,657b66ea316d21385b68909f,,,,,,,,,,,530.9128,531.9081,,,532.4088,532.659,,10,10,,,,,,,,,,,,,,,,bars/013.png,bars/mask001.png,,,,,,,,,,,,5,2,,,,,,,2,6,3,5,,,,,,,,,,,531.9082,532.4087,532.659,534.6776,space,2.0086,,534.6777,65,0,535.6779,535.678,537.3139,space,1.6056,,0,17,17,17,1,75,10,,,,,,,,
,,578e215abaec1b0001697778,65af555c304b05200d920850,2024-01-23_06h58.01.027,bars,2023.2.3,Win32,59.88023952,657b66ea316d21385b68909f,,,,,,,,,,,537.3152,538.3145,,,538.815,539.0654,,1,181,,,,,,,,,,,,,,,,bars/008.png,bars/mask004.png,,,,,,,,,,,,8,2,,,,,,,4,8,5,8,,,,,,,,,,,538.3146,538.8149,539.0654,542.1853,space,3.1032,,542.1853,71,1,543.1859,543.186,544.304,space,1.0769,,0,18,18,18,1,110,0,,,,,,,,
,,578e215abaec1b0001697778,65af555c304b05200d920850,2024-01-23_06h58.01.027,bars,2023.2.3,Win32,59.88023952,657b66ea316d21385b68909f,,,,,,,,,,,544.3048,545.3047,,,545.8052,546.0555,,15,15,,,,,,,,,,,,,,,,bars/045.png,bars/mask006.png,,,,,,,,,,,,8,2,,,,,,,6,10,7,10,,,,,,,,,,,545.3049,545.8052,546.0556,551.6779,space,5.6126,,551.678,85,5,552.6789,552.6789,554.0133,space,1.2925,,0,19,19,19,1,100,10,,,,,,,,
,,578e215abaec1b0001697778,65af555c304b05200d920850,2024-01-23_06h58.01.027,bars,2023.2.3,Win32,59.88023952,657b66ea316d21385b68909f,,,,,,,,,,,554.0137,555.0146,,,555.5148,555.765,,99,99,,,,,,,,,,,,,,,,bars/006.png,bars/mask007.png,,,,,,,,,,,,10,2,,,,,,,8,10,8,10,,,,,,,,,,,555.0147,555.5147,555.765,559.6024,space,3.8231,,559.6025,64,1,560.6034,560.6034,562.4716,space,1.8275,,0,20,20,20,1,35,100,,,,,,,,
,,578e215abaec1b0001697778,65af555c304b05200d920850,2024-01-23_06h58.01.027,bars,2023.2.3,Win32,59.88023952,657b66ea316d21385b68909f,,,,,,,,,,,562.4721,563.4726,,,563.973,564.2233,,144,-36,,,,,,,,,,,,,,,,bars/004.png,bars/mask002.png,,,,,,,,,,,,3,2,,,,,,,10,8,10,8,,,,,,,,,,,563.4727,563.973,564.2233,567.0099,space,2.7814,,567.01,61,19,568.0107,568.0107,569.6624,space,1.6255,,0,21,21,21,1,25,125,,,,,,,,
,,578e215abaec1b0001697778,65af555c304b05200d920850,2024-01-23_06h58.01.027,bars,2023.2.3,Win32,59.88023952,657b66ea316d21385b68909f,,,,,,,,,,,569.663,570.6631,,,571.1643,571.4141,,176,176,,,,,,,,,,,,,,,,bars/048.png,bars/mask006.png,,,,,,,,,,,,10,2,,,,,,,10,10,10,10,,,,,,,,,,,570.6631,571.1642,571.4142,574.334,space,2.9095,,574.334,54,1,575.3344,575.3344,577.053,space,1.6874,,0,22,22,22,1,50,175,,,,,,,,
,,578e215abaec1b0001697778,65af555c304b05200d920850,2024-01-23_06h58.01.027,bars,2023.2.3,Win32,59.88023952,657b66ea316d21385b68909f,,,,,,,,,,,577.0538,578.054,,,578.5541,578.811,,178,-2,,,,,,,,,,,,,,,,bars/014.png,bars/mask000.png,,,,,,,,,,,,7,2,,,,,,,8,8,8,8,,,,,,,,,,,578.0541,578.554,578.8111,582.3247,space,3.4967,,582.3248,82,2,583.3258,583.326,584.4941,space,1.1334,,0,23,23,23,1,80,0,,,,,,,,
,,578e215abaec1b0001697778,65af555c304b05200d920850,2024-01-23_06h58.01.027,bars,2023.2.3,Win32,59.88023952,657b66ea316d21385b68909f,,,,,,,,,,,584.4948,585.4948,,,585.9954,586.2456,,6,186,,,,,,,,,,,,,,,,bars/016.png,bars/mask009.png,,,,,,,,,,,,3,2,,,,,,,6,10,5,10,,,,,,,,,,,585.495,585.9953,586.2456,588.8317,space,2.5736,,588.8317,34,21,589.8317,589.8317,591.0337,space,1.1702,,0,24,24,24,1,40,165,,,,,,,,
,,578e215abaec1b0001697778,65af555c304b05200d920850,2024-01-23_06h58.01.027,bars,2023.2.3,Win32,59.88023952,657b66ea316d21385b68909f,,,,,,,,,,,591.0344,592.0345,,,592.5244,592.7685,,178,-2,,,,,,,,,,,,,,,,bars/008.png,bars/mask003.png,,,,,,,,,,,,9,2,,,,,,,4,10,6,10,,,,,,,,,,,592.0345,592.5243,592.7686,596.5052,space,3.729,,596.5054,68,2,597.5068,597.507,598.4412,space,0.8948,,0,25,25,25,1,110,0,,,,,,,,
,,578e215abaec1b0001697778,65af555c304b05200d920850,2024-01-23_06h58.01.027,bars,2023.2.3,Win32,59.88023952,657b66ea316d21385b68909f,,,,,,,,,,,598.4419,599.4317,,,599.9252,600.1762,,154,-26,,,,,,,,,,,,,,,,bars/044.png,bars/mask005.png,,,,,,,,,,,,8,2,,,,,,,2,8,1,8,,,,,,,,,,,599.4317,599.9252,600.1762,603.4356,space,3.2527,,603.4356,79,1,604.4305,604.4305,605.448,space,0.9801,,0,26,26,26,1,75,155,,,,,,,,
,,578e215abaec1b0001697778,65af555c304b05200d920850,2024-01-23_06h58.01.027,bars,2023.2.3,Win32,59.88023952,657b66ea316d21385b68909f,,,,,,,,,,,605.4486,606.4492,,,606.9498,607.1998,,58,58,,,,,,,,,,,,,,,,bars/047.png,bars/mask003.png,,,,,,,,,,,,5,2,,,,,,,4,10,4,8,,,,,,,,,,,606.4493,606.9497,607.1999,611.0871,space,3.8752,,611.0872,43,12,612.0881,612.0881,613.89,space,1.7552,,0,27,27,27,1,15,70,,,,,,,,
,,578e215abaec1b0001697778,65af555c304b05200d920850,2024-01-23_06h58.01.027,bars,2023.2.3,Win32,59.88023952,657b66ea316d21385b68909f,,,,,,,,,,,613.8905,614.8909,,,615.3914,615.6414,,148,148,,,,,,,,,,,,,,,,bars/028.png,bars/mask004.png,,,,,,,,,,,,1,2,,,,,,,6,8,7,10,,,,,,,,,,,614.8909,615.3913,615.6415,617.9941,space,2.3361,,617.9942,77,28,618.9949,618.995,620.463,space,1.447,,0,28,28,28,1,45,120,,,,,,,,
,,578e215abaec1b0001697778,65af555c304b05200d920850,2024-01-23_06h58.01.027,bars,2023.2.3,Win32,59.88023952,657b66ea316d21385b68909f,,,,,,,,,,,620.4637,621.4641,,,621.9644,622.2147,,94,94,,,,,,,,,,,,,,,,bars/039.png,bars/mask000.png,,,,,,,,,,,,4,2,,,,,,,4,6,3,6,,,,,,,,,,,621.4641,621.9644,622.2148,623.4827,space,1.2613,,623.4828,81,11,624.4836,624.4836,625.6183,space,1.1158,,0,29,29,29,1,175,105,,,,,,,,
,,578e215abaec1b0001697778,65af555c304b05200d920850,2024-01-23_06h58.01.027,bars,2023.2.3,Win32,59.88023952,657b66ea316d21385b68909f,,,,,,,,,,,625.619,626.619,,,627.1195,627.3697,,94,94,,,,,,,,,,,,,,,,bars/019.png,bars/mask005.png,,,,,,,,,,,,4,2,,,,,,,6,8,6,7,,,,,,,,,,,626.6191,627.1195,627.3697,629.3383,space,1.9537,,629.3384,49,11,630.3395,630.3395,631.3245,space,0.9525,,0,30,30,30,1,45,105,,,,,,,,
,,578e215abaec1b0001697778,65af555c304b05200d920850,2024-01-23_06h58.01.027,bars,2023.2.3,Win32,59.88023952,657b66ea316d21385b68909f,,,,,,,,,,,631.3252,632.3248,,,632.8256,633.0754,,117,117,,,,,,,,,,,,,,,,bars/049.png,bars/mask002.png,,,,,,,,,,,,9,2,,,,,,,8,10,8,10,,,,,,,,,,,632.3249,632.8255,633.0754,635.2114,space,2.1276,,635.2115,43,2,636.212,636.212,637.4297,space,1.1915,,0,31,31,31,1,160,115,,,,,,,,
,,578e215abaec1b0001697778,65af555c304b05200d920850,2024-01-23_06h58.01.027,bars,2023.2.3,Win32,59.88023952,657b66ea316d21385b68909f,,,,,,,,,,,637.4304,638.431,,,638.9315,639.1812,,22,22,,,,,,,,,,,,,,,,bars/032.png,bars/mask006.png,,,,,,,,,,,,7,2,,,,,,,6,8,5,7,,,,,,,,,,,638.431,638.9314,639.1812,643.1693,space,3.9717,,643.1693,77,2,644.1697,644.1697,645.3047,space,1.0996,,0,32,32,32,1,125,20,,,,,,,,
,,578e215abaec1b0001697778,65af555c304b05200d920850,2024-01-23_06h58.01.027,bars,2023.2.3,Win32,59.88023952,657b66ea316d21385b68909f,,,,,,,,,,,645.3056,646.3056,,,646.806,647.0558,,141,-39,,,,,,,,,,,,,,,,bars/043.png,bars/mask005.png,,,,,,,,,,,,4,2,,,,,,,4,6,2,6,,,,,,,,,,,646.3056,646.8059,647.0559,650.693,space,3.6269,,650.6931,69,11,651.6941,651.6942,652.9622,space,1.2268,,0,33,33,33,1,30,130,,,,,,,,
,,578e215abaec1b0001697778,65af555c304b05200d920850,2024-01-23_06h58.01.027,bars,2023.2.3,Win32,59.88023952,657b66ea316d21385b68909f,,,,,,,,,,,652.963,653.9627,,,654.4635,654.7138,,26,26,,,,,,,,,,,,,,,,bars/022.png,bars/mask001.png,,,,,,,,,,,,6,2,,,,,,,6,8,7,8,,,,,,,,,,,653.9628,654.4635,654.7138,656.8495,space,2.1194,,656.8495,69,6,657.8503,657.8503,659.0843,space,1.1981,,0,34,34,34,1,95,20,,,,,,,,
,,578e215abaec1b0001697778,65af555c304b05200d920850,2024-01-23_06h58.01.027,bars,2023.2.3,Win32,59.88023952,657b66ea316d21385b68909f,,,,,,,,,,,659.0847,660.0858,,,660.5864,660.8365,,101,101,,,,,,,,,,,,,,,,bars/006.png,bars/mask009.png,,,,,,,,,,,,5,2,,,,,,,4,6,3,5,,,,,,,,,,,660.0859,660.5864,660.8366,664.0901,space,3.2379,,664.0901,66,1,665.0905,665.0905,668.4774,space,3.3567,,0,35,35,35,1,35,100,,,,,,,,
,,578e215abaec1b0001697778,65af555c304b05200d920850,2024-01-23_06h58.01.027,bars,2023.2.3,Win32,59.88023952,657b66ea316d21385b68909f,,,,,,,,,,,668.4892,669.4783,,,669.979,670.2292,,128,128,,,,,,,,,,,,,,,,bars/045.png,bars/mask003.png,,,,,,,,,,,,0,1,,,,,,,2,8,0,9,,,,,,,,,,,669.4783,669.979,670.2293,674.6668,space,4.4297,,674.667,28,62,675.6678,675.6679,677.2529,space,1.5526,,0,36,36,36,1,100,10,,,,,,,,
,,578e215abaec1b0001697778,65af555c304b05200d920850,2024-01-23_06h58.01.027,bars,2023.2.3,Win32,59.88023952,657b66ea316d21385b68909f,,,,,,,,,,,677.2535,678.2538,,,678.7605,679.0047,,110,110,,,,,,,,,,,,,,,,bars/009.png,bars/mask007.png,,,,,,,,,,,,4,2,,,,,,,0,6,0,5,,,,,,,,,,,678.2539,678.7604,679.0048,682.591,space,3.5729,,682.591,85,5,683.5922,683.5923,684.4604,space,0.8375,,0,37,37,37,1,15,105,,,,,,,,
,,578e215abaec1b0001697778,65af555c304b05200d920850,2024-01-23_06h58.01.027,bars,2023.2.3,Win32,59.88023952,657b66ea316d21385b68909f,,,,,,,,,,,684.4611,685.4611,,,685.9676,686.2116,,104,104,,,,,,,,,,,,,,,,bars/009.png,bars/mask009.png,,,,,,,,,,,,5,2,,,,,,,0,4,1,5,,,,,,,,,,,685.4611,685.9675,686.2117,690.2325,space,4.0076,,690.2325,89,1,691.2332,691.2333,692.3345,space,1.0693,,0,38,38,38,1,15,105,,,,,,,,
,,578e215abaec1b0001697778,65af555c304b05200d920850,2024-01-23_06h58.01.027,bars,2023.2.3,Win32,59.88023952,657b66ea316d21385b68909f,,,,,,,,,,,692.3352,693.3357,,,693.8362,694.086,,80,80,,,,,,,,,,,,,,,,bars/026.png,bars/mask002.png,,,,,,,,,,,,3,2,,,,,,,0,2,2,3,,,,,,,,,,,693.3357,693.8361,694.0861,698.5743,space,4.4723,,698.5744,45,5,699.5632,699.5632,700.5094,space,0.9202,,0,39,39,39,1,35,85,,,,,,,,
,,578e215abaec1b0001697778,65af555c304b05200d920850,2024-01-23_06h58.01.027,bars,2023.2.3,Win32,59.88023952,657b66ea316d21385b68909f,,,,,,,,,,,700.5101,701.5098,,,702.0109,702.2611,,84,84,,,,,,,,,,,,,,,,bars/042.png,bars/mask000.png,,,,,,,,,,,,4,2,,,,,,,0,4,0,5,,,,,,,,,,,701.5098,702.0109,702.2612,705.598,space,3.3102,,705.598,61,9,706.5988,706.5988,707.6835,space,1.0535,,0,40,40,40,1,145,75,,,,,,,,
,,578e215abaec1b0001697778,65af555c304b05200d920850,2024-01-23_06h58.01.027,bars,2023.2.3,Win32,59.88023952,657b66ea316d21385b68909f,,,,,,,,,,,707.6845,708.6843,,,709.1848,709.4349,,74,74,,,,,,,,,,,,,,,,bars/026.png,bars/mask005.png,,,,,,,,,,,,1,2,,,,,,,0,2,1,2,,,,,,,,,,,708.6843,709.1848,709.435,713.7061,space,4.2558,,713.7061,39,11,714.7067,714.7068,715.8077,space,1.0623,,0,41,41,41,1,35,85,,,,,,,,
,,578e215abaec1b0001697778,65af555c304b05200d920850,2024-01-23_06h58.01.027,bars,2023.2.3,Win32,59.88023952,657b66ea316d21385b68909f,,,,,,,,,,,715.8083,716.8087,,,717.3093,717.5597,,167,167,,,,,,,,,,,,,,,,bars/033.png,bars/mask001.png,,,,,,,,,,,,1,2,,,,,,,0,0,0,1,,,,,,,,,,,716.8087,717.3093,717.5598,721.8976,space,4.3224,,721.8976,38,12,722.8978,722.8978,723.7887,space,0.8685,,0,42,42,42,1,25,155,,,,,,,,
,,578e215abaec1b0001697778,65af555c304b05200d920850,2024-01-23_06h58.01.027,bars,2023.2.3,Win32,59.88023952,657b66ea316d21385b68909f,,,,,,,,,,,723.7893,724.7834,,,725.2837,725.5343,,88,88,,,,,,,,,,,,,,,,bars/001.png,bars/mask008.png,,,,,,,,,,,,0,2,,,,,,,0,0,2,0,,,,,,,,,,,724.7835,725.2837,725.5343,728.5875,space,3.0444,,728.5875,42,3,729.5879,729.588,730.3894,space,0.7695,,0,43,43,43,1,130,85,,,,,,,,
,,578e215abaec1b0001697778,65af555c304b05200d920850,2024-01-23_06h58.01.027,bars,2023.2.3,Win32,59.88023952,657b66ea316d21385b68909f,,,,,,,,,,,730.3901,731.3901,,,731.8905,732.1409,,52,52,,,,,,,,,,,,,,,,bars/035.png,bars/mask006.png,,,,,,,,,,,,1,2,,,,,,,0,0,0,1,,,,,,,,,,,731.3902,731.8904,732.1409,734.4934,space,2.3415,,734.4934,57,8,735.4942,735.4943,737.6625,space,2.126,,0,44,44,44,1,175,60,,,,,,,,
,,578e215abaec1b0001697778,65af555c304b05200d920850,2024-01-23_06h58.01.027,bars,2023.2.3,Win32,59.88023952,657b66ea316d21385b68909f,,,,,,,,,,,737.6629,738.6641,,,739.1646,739.4148,,96,96,,,,,,,,,,,,,,,,bars/001.png,bars/mask000.png,,,,,,,,,,,,3,2,,,,,,,2,2,1,4,,,,,,,,,,,738.6642,739.1645,739.4148,742.2679,space,2.8434,,742.268,34,11,743.2684,743.2684,744.3863,space,1.0988,,0,45,45,45,1,130,85,,,,,,,,
,,578e215abaec1b0001697778,65af555c304b05200d920850,2024-01-23_06h58.01.027,bars,2023.2.3,Win32,59.88023952,657b66ea316d21385b68909f,,,,,,,,,,,744.3871,745.3875,,,745.8881,746.1382,,105,105,,,,,,,,,,,,,,,,bars/005.png,bars/mask000.png,,,,,,,,,,,,0,2,,,,,,,4,4,5,4,,,,,,,,,,,745.3875,745.8881,746.1383,750.2423,space,4.0881,,750.2424,85,35,751.2432,751.2433,754.0629,space,2.7828,,0,46,46,46,1,10,140,,,,,,,,
,,578e215abaec1b0001697778,65af555c304b05200d920850,2024-01-23_06h58.01.027,bars,2023.2.3,Win32,59.88023952,657b66ea316d21385b68909f,,,,,,,,,,,754.0852,755.0634,,,755.5643,755.8141,,175,175,,,,,,,,,,,,,,,,bars/008.png,bars/mask004.png,,,,,,,,,,,,2,2,,,,,,,2,2,1,2,,,,,,,,,,,755.0636,755.5643,755.8141,759.7685,space,3.9408,,759.7685,65,5,760.7695,760.7696,762.0542,space,1.262,,0,47,47,47,1,110,0,,,,,,,,
,,578e215abaec1b0001697778,65af555c304b05200d920850,2024-01-23_06h58.01.027,bars,2023.2.3,Win32,59.88023952,657b66ea316d21385b68909f,,,,,,,,,,,762.0549,763.0548,,,763.5551,763.8058,,90,90,,,,,,,,,,,,,,,,bars/006.png,bars/mask006.png,,,,,,,,,,,,1,2,,,,,,,4,0,4,1,,,,,,,,,,,763.0549,763.5551,763.806,766.7085,space,2.8948,,766.7085,55,10,767.7095,767.7095,768.8442,space,1.09,,0,48,48,48,1,35,100,,,,,,,,
,,578e215abaec1b0001697778,65af555c304b05200d920850,2024-01-23_06h58.01.027,bars,2023.2.3,Win32,59.88023952,657b66ea316d21385b68909f,,,,,,,,,,,768.8449,769.8451,,,770.3457,770.5957,,178,178,,,,,,,,,,,,,,,,bars/033.png,bars/mask008.png,,,,,,,,,,,,0,2,,,,,,,2,0,1,0,,,,,,,,,,,769.8451,770.3456,770.5958,772.8816,space,2.2709,,772.8817,27,23,773.8824,773.8824,775.134,space,1.2115,,0,49,49,49,1,25,155,,,,,,,,
,,578e215abaec1b0001697778,65af555c304b05200d920850,2024-01-23_06h58.01.027,bars,2023.2.3,Win32,59.88023952,657b66ea316d21385b68909f,,,,,,,,,,,,,,,,,,,,,,,,,,,,,,,,,,,,,,,,,,,,,,,,,,,,,,,,,,,,,,,,,,,,,,,,,,,,,,,,,,,,,,,,,,,,,775.1359,835.1282,0,0,0,1,1,sequence_tables/blk017.csv
,,578e215abaec1b0001697778,65af555c304b05200d920850,2024-01-23_06h58.01.027,bars,2023.2.3,Win32,59.88023952,657b66ea316d21385b68909f,,,,,,,,,,,837.8415,838.8304,,,839.3311,839.5812,,94,94,,,,,,,,,,,,,,,,bars/037.png,bars/mask003.png,,,,,,,,,,,,6,2,,,,,,,8,8,9,9,,,,,,835.1522,837.8294,space,2.6634,,838.8304,839.331,839.5812,843.869,space,4.2714,,843.8691,56,11,844.8697,844.8698,844.8909,,,,0,0,0,0,1,150,105,,,,,,,,
,,578e215abaec1b0001697778,65af555c304b05200d920850,2024-01-23_06h58.01.027,bars,2023.2.3,Win32,59.88023952,657b66ea316d21385b68909f,,,,,,,,,,,844.8911,845.8873,,,846.3879,846.6379,,83,83,,,,,,,,,,,,,,,,bars/011.png,bars/mask007.png,,,,,,,,,,,,6,2,,,,,,,10,6,8,6,,,,,,,,,,,845.8874,846.3879,846.6379,851.3599,space,4.69,,851.3599,77,2,852.3665,852.3665,852.3818,,,,0,1,1,1,1,160,85,,,,,,,,
,,578e215abaec1b0001697778,65af555c304b05200d920850,2024-01-23_06h58.01.027,bars,2023.2.3,Win32,59.88023952,657b66ea316d21385b68909f,,,,,,,,,,,852.382,853.3779,,,853.8789,854.1289,,100,100,,,,,,,,,,,,,,,,bars/039.png,bars/mask006.png,,,,,,,,,,,,7,2,,,,,,,8,8,10,8,,,,,,,,,,,853.3779,853.8788,854.1289,857.1989,space,3.0542,,857.199,75,5,858.1997,858.1997,858.2233,,,,0,2,2,2,1,175,105,,,,,,,,
,,578e215abaec1b0001697778,65af555c304b05200d920850,2024-01-23_06h58.01.027,bars,2023.2.3,Win32,59.88023952,657b66ea316d21385b68909f,,,,,,,,,,,858.2236,859.2173,,,859.7179,859.968,,99,99,,,,,,,,,,,,,,,,bars/041.png,bars/mask001.png,,,,,,,,,,,,4,2,,,,,,,6,6,4,7,,,,,,,,,,,859.2174,859.7179,859.968,862.2374,space,2.2586,,862.2374,79,14,863.238,863.2381,863.2629,,,,0,3,3,3,1,20,85,,,,,,,,
,,578e215abaec1b0001697778,65af555c304b05200d920850,2024-01-23_06h58.01.027,bars,2023.2.3,Win32,59.88023952,657b66ea316d21385b68909f,,,,,,,,,,,863.2631,864.2557,,,864.7565,865.0066,,91,91,,,,,,,,,,,,,,,,bars/001.png,bars/mask006.png,,,,,,,,,,,,6,2,,,,,,,4,8,5,7,,,,,,,,,,,864.2558,864.7564,865.0067,868.51,space,3.491,,868.5101,39,6,869.511,869.5111,869.5344,,,,0,4,4,4,1,130,85,,,,,,,,
,,578e215abaec1b0001697778,65af555c304b05200d920850,2024-01-23_06h58.01.027,bars,2023.2.3,Win32,59.88023952,657b66ea316d21385b68909f,,,,,,,,,,,869.5347,870.528,,,871.0293,871.2791,,76,76,,,,,,,,,,,,,,,,bars/046.png,bars/mask003.png,,,,,,,,,,,,4,2,,,,,,,2,6,1,6,,,,,,,,,,,870.5281,871.0292,871.2791,874.366,space,3.0713,,874.3661,79,9,875.3669,875.367,875.3959,,,,0,5,5,5,1,155,85,,,,,,,,
,,578e215abaec1b0001697778,65af555c304b05200d920850,2024-01-23_06h58.01.027,bars,2023.2.3,Win32,59.88023952,657b66ea316d21385b68909f,,,,,,,,,,,875.3962,876.4004,,,876.9015,877.152,,35,35,,,,,,,,,,,,,,,,bars/022.png,bars/mask000.png,,,,,,,,,,,,3,2,,,,,,,4,4,3,6,,,,,,,,,,,876.4004,876.9015,877.152,878.7698,space,1.6092,,878.7698,60,15,879.7714,879.7714,879.7949,,,,0,6,6,6,1,95,20,,,,,,,,
,,578e215abaec1b0001697778,65af555c304b05200d920850,2024-01-23_06h58.01.027,bars,2023.2.3,Win32,59.88023952,657b66ea316d21385b68909f,,,,,,,,,,,879.7951,880.7887,,,881.2889,881.5388,,15,15,,,,,,,,,,,,,,,,bars/045.png,bars/mask004.png,,,,,,,,,,,,1,2,,,,,,,2,2,1,1,,,,,,,,,,,880.7888,881.2888,881.5388,886.1111,space,4.5552,,886.1111,85,5,887.1118,887.1118,887.1349,,,,0,7,7,7,1,100,10,,,,,,,,
,,578e215abaec1b0001697778,65af555c304b05200d920850,2024-01-23_06h58.01.027,bars,2023.2.3,Win32,59.88023952,657b66ea316d21385b68909f,,,,,,,,,,,887.1351,888.1294,,,888.6301,888.8802,,90,90,,,,,,,,,,,,,,,,bars/041.png,bars/mask006.png,,,,,,,,,,,,3,2,,,,,,,4,4,3,3,,,,,,,,,,,888.1294,888.6301,888.8803,891.6666,space,2.7703,,891.6667,70,5,892.6673,892.6674,892.6915,,,,0,8,8,8,1,20,85,,,,,,,,
,,578e215abaec1b0001697778,65af555c304b05200d920850,2024-01-23_06h58.01.027,bars,2023.2.3,Win32,59.88023952,657b66ea316d21385b68909f,,,,,,,,,,,892.6918,893.6848,,,894.1857,894.4358,,37,37,,,,,,,,,,,,,,,,bars/031.png,bars/mask005.png,,,,,,,,,,,,7,2,,,,,,,2,6,3,7,,,,,,,,,,,893.6849,894.1856,894.4359,899.1408,space,4.6891,,899.1408,83,2,900.1414,900.1415,900.1651,,,,0,9,9,9,1,120,35,,,,,,,,
,,578e215abaec1b0001697778,65af555c304b05200d920850,2024-01-23_06h58.01.027,bars,2023.2.3,Win32,59.88023952,657b66ea316d21385b68909f,,,,,,,,,,,900.1654,901.1592,,,901.6598,901.9096,,29,29,,,,,,,,,,,,,,,,bars/036.png,bars/mask009.png,,,,,,,,,,,,6,2,,,,,,,4,8,4,8,,,,,,,,,,,901.1594,901.6597,901.9097,904.6024,space,2.6861,,904.6025,64,9,905.5967,905.5968,905.6207,,,,0,10,10,10,1,145,20,,,,,,,,
,,578e215abaec1b0001697778,65af555c304b05200d920850,2024-01-23_06h58.01.027,bars,2023.2.3,Win32,59.88023952,657b66ea316d21385b68909f,,,,,,,,,,,905.621,906.6144,,,907.115,907.3653,,62,62,,,,,,,,,,,,,,,,bars/034.png,bars/mask007.png,,,,,,,,,,,,5,2,,,,,,,6,6,6,6,,,,,,,,,,,906.6145,907.1149,907.3654,910.2747,space,2.9029,,910.2748,63,3,911.2693,911.2694,911.2928,,,,0,11,11,11,1,125,65,,,,,,,,
,,578e215abaec1b0001697778,65af555c304b05200d920850,2024-01-23_06h58.01.027,bars,2023.2.3,Win32,59.88023952,657b66ea316d21385b68909f,,,,,,,,,,,911.2931,912.2868,,,912.7875,913.0376,,45,45,,,,,,,,,,,,,,,,bars/031.png,bars/mask004.png,,,,,,,,,,,,2,2,,,,,,,4,4,3,3,,,,,,,,,,,912.2869,912.7874,913.0377,918.2765,space,5.213,,918.2766,75,10,919.2772,919.2773,919.2996,,,,0,12,12,12,1,120,35,,,,,,,,
,,578e215abaec1b0001697778,65af555c304b05200d920850,2024-01-23_06h58.01.027,bars,2023.2.3,Win32,59.88023952,657b66ea316d21385b68909f,,,,,,,,,,,919.2998,920.2947,,,920.7954,921.0452,,56,56,,,,,,,,,,,,,,,,bars/034.png,bars/mask002.png,,,,,,,,,,,,4,2,,,,,,,2,6,1,6,,,,,,,,,,,920.2948,920.7954,921.0452,924.8498,space,3.7899,,924.8498,69,9,925.8504,925.8504,925.8693,,,,0,13,13,13,1,125,65,,,,,,,,
,,578e215abaec1b0001697778,65af555c304b05200d920850,2024-01-23_06h58.01.027,bars,2023.2.3,Win32,59.88023952,657b66ea316d21385b68909f,,,,,,,,,,,925.8696,926.8681,,,927.3687,927.6186,,11,11,,,,,,,,,,,,,,,,bars/032.png,bars/mask002.png,,,,,,,,,,,,6,2,,,,,,,0,8,0,8,,,,,,,,,,,926.8681,927.3687,927.6187,929.8036,space,2.158,,929.8037,66,9,930.8054,930.8054,930.8067,,,,0,14,14,14,1,125,20,,,,,,,,
,,578e215abaec1b0001697778,65af555c304b05200d920850,2024-01-23_06h58.01.027,bars,2023.2.3,Win32,59.88023952,657b66ea316d21385b68909f,,,,,,,,,,,930.8072,931.8064,,,932.3066,932.5572,,165,-15,,,,,,,,,,,,,,,,bars/020.png,bars/mask008.png,,,,,,,,,,,,5,2,,,,,,,0,6,0,6,,,,,,,,,,,931.8064,932.3065,932.5573,937.2454,space,4.6718,,937.2454,50,5,938.2461,938.2462,938.2698,,,,0,15,15,15,1,115,170,,,,,,,,
,,578e215abaec1b0001697778,65af555c304b05200d920850,2024-01-23_06h58.01.027,bars,2023.2.3,Win32,59.88023952,657b66ea316d21385b68909f,,,,,,,,,,,938.27,939.2634,,,939.7644,940.0146,,48,228,,,,,,,,,,,,,,,,bars/010.png,bars/mask007.png,,,,,,,,,,,,7,2,,,,,,,2,8,3,9,,,,,,,,,,,939.2635,939.7644,940.0147,943.4678,space,3.4435,,943.4678,63,7,944.4685,944.4685,944.4838,,,,0,16,16,16,1,165,55,,,,,,,,
,,578e215abaec1b0001697778,65af555c304b05200d920850,2024-01-23_06h58.01.027,bars,2023.2.3,Win32,59.88023952,657b66ea316d21385b68909f,,,,,,,,,,,944.4841,945.4865,,,945.9763,946.2205,,63,63,,,,,,,,,,,,,,,,bars/034.png,bars/mask007.png,,,,,,,,,,,,9,2,,,,,,,0,10,1,10,,,,,,,,,,,945.4866,945.9763,946.2205,950.1082,space,3.8776,,950.1082,62,2,951.0978,951.0978,951.1213,,,,0,17,17,17,1,125,65,,,,,,,,
,,578e215abaec1b0001697778,65af555c304b05200d920850,2024-01-23_06h58.01.027,bars,2023.2.3,Win32,59.88023952,657b66ea316d21385b68909f,,,,,,,,,,,951.1215,952.1098,,,952.6102,952.8603,,89,89,,,,,,,,,,,,,,,,bars/018.png,bars/mask006.png,,,,,,,,,,,,7,2,,,,,,,2,8,1,7,,,,,,,,,,,952.1098,952.6102,952.8604,957.6481,space,4.78,,957.6482,61,1,958.6495,958.6496,958.6676,,,,0,18,18,18,1,150,90,,,,,,,,
,,578e215abaec1b0001697778,65af555c304b05200d920850,2024-01-23_06h58.01.027,bars,2023.2.3,Win32,59.88023952,657b66ea316d21385b68909f,,,,,,,,,,,958.6678,959.6675,,,960.1679,960.4182,,148,148,,,,,,,,,,,,,,,,bars/003.png,bars/mask004.png,,,,,,,,,,,,4,2,,,,,,,0,6,0,5,,,,,,,,,,,959.6675,960.1679,960.4183,966.6746,space,6.2479,,966.6747,57,8,967.6754,967.6754,967.7016,,,,0,19,19,19,1,25,140,,,,,,,,
,,578e215abaec1b0001697778,65af555c304b05200d920850,2024-01-23_06h58.01.027,bars,2023.2.3,Win32,59.88023952,657b66ea316d21385b68909f,,,,,,,,,,,967.7019,968.693,,,969.1937,969.443,,2,182,,,,,,,,,,,,,,,,bars/016.png,bars/mask006.png,,,,,,,,,,,,3,2,,,,,,,2,8,2,8,,,,,,,,,,,968.693,969.1937,969.443,975.35,space,5.8917,,975.35,38,17,976.3503,976.3503,976.3711,,,,0,20,20,20,1,40,165,,,,,,,,
,,578e215abaec1b0001697778,65af555c304b05200d920850,2024-01-23_06h58.01.027,bars,2023.2.3,Win32,59.88023952,657b66ea316d21385b68909f,,,,,,,,,,,976.3715,977.3685,,,977.8684,978.119,,23,23,,,,,,,,,,,,,,,,bars/022.png,bars/mask001.png,,,,,,,,,,,,9,2,,,,,,,4,10,5,10,,,,,,,,,,,977.3685,977.8683,978.119,980.3216,space,2.1865,,980.3216,72,3,981.3224,981.3225,981.3239,,,,0,21,21,21,1,95,20,,,,,,,,
,,578e215abaec1b0001697778,65af555c304b05200d920850,2024-01-23_06h58.01.027,bars,2023.2.3,Win32,59.88023952,657b66ea316d21385b68909f,,,,,,,,,,,981.3245,982.3232,,,982.8239,983.074,,155,-25,,,,,,,,,,,,,,,,bars/044.png,bars/mask002.png,,,,,,,,,,,,8,2,,,,,,,6,8,6,8,,,,,,,,,,,982.3232,982.8238,983.0741,987.9958,space,4.9121,,987.9959,80,0,988.9966,988.9967,989.0083,,,,0,22,22,22,1,75,155,,,,,,,,
,,578e215abaec1b0001697778,65af555c304b05200d920850,2024-01-23_06h58.01.027,bars,2023.2.3,Win32,59.88023952,657b66ea316d21385b68909f,,,,,,,,,,,989.0084,989.9974,,,990.4982,990.7484,,83,83,,,,,,,,,,,,,,,,bars/001.png,bars/mask002.png,,,,,,,,,,,,9,2,,,,,,,8,10,7,10,,,,,,,,,,,989.9975,990.4981,990.7484,993.735,space,2.9731,,993.735,47,2,994.7357,994.7358,994.762,,,,0,23,23,23,1,130,85,,,,,,,,
,,578e215abaec1b0001697778,65af555c304b05200d920850,2024-01-23_06h58.01.027,bars,2023.2.3,Win32,59.88023952,657b66ea316d21385b68909f,,,,,,,,,,,994.7623,995.7535,,,996.254,996.5041,,78,78,,,,,,,,,,,,,,,,bars/041.png,bars/mask004.png,,,,,,,,,,,,7,2,,,,,,,10,10,10,9,,,,,,,,,,,995.7535,996.2539,996.5042,1000.425,space,3.9053,,1000.425,58,7,1001.4257,1001.4257,1001.4365,,,,0,24,24,24,1,20,85,,,,,,,,
,,578e215abaec1b0001697778,65af555c304b05200d920850,2024-01-23_06h58.01.027,bars,2023.2.3,Win32,59.88023952,657b66ea316d21385b68909f,,,,,,,,,,,1001.4366,1002.4266,,,1002.9272,1003.1776,,174,-6,,,,,,,,,,,,,,,,bars/048.png,bars/mask006.png,,,,,,,,,,,,9,2,,,,,,,10,10,9,9,,,,,,,,,,,1002.4267,1002.9271,1003.1776,1007.1149,space,3.928,,1007.1149,56,1,1008.1156,1008.1156,1008.1431,,,,0,25,25,25,1,50,175,,,,,,,,
,,578e215abaec1b0001697778,65af555c304b05200d920850,2024-01-23_06h58.01.027,bars,2023.2.3,Win32,59.88023952,657b66ea316d21385b68909f,,,,,,,,,,,1008.1434,1009.1333,,,1009.6338,1009.8839,,127,127,,,,,,,,,,,,,,,,bars/037.png,bars/mask004.png,,,,,,,,,,,,3,2,,,,,,,8,10,8,10,,,,,,,,,,,1009.1333,1009.6338,1009.884,1014.1719,space,4.2779,,1014.1719,23,22,1015.1724,1015.1725,1015.1945,,,,0,26,26,26,1,150,105,,,,,,,,
,,578e215abaec1b0001697778,65af555c304b05200d920850,2024-01-23_06h58.01.027,bars,2023.2.3,Win32,59.88023952,657b66ea316d21385b68909f,,,,,,,,,,,1015.1946,1016.1903,,,1016.6909,1016.9412,,131,-49,,,,,,,,,,,,,,,,bars/037.png,bars/mask002.png,,,,,,,,,,,,3,1,,,,,,,6,8,7,8,,,,,,,,,,,1016.1903,1016.6909,1016.9412,1020.8118,space,3.854,,1020.8118,19,26,1021.8123,1021.8124,1021.8358,,,,0,27,27,27,1,150,105,,,,,,,,
,,578e215abaec1b0001697778,65af555c304b05200d920850,2024-01-23_06h58.01.027,bars,2023.2.3,Win32,59.88023952,657b66ea316d21385b68909f,,,,,,,,,,,1021.836,1022.8303,,,1023.3307,1023.5812,,53,53,,,,,,,,,,,,,,,,bars/025.png,bars/mask004.png,,,,,,,,,,,,3,2,,,,,,,4,6,4,6,,,,,,,,,,,1022.8304,1023.3306,1023.5812,1026.4505,space,2.8605,,1026.4506,52,13,1027.4516,1027.4517,1027.4812,,,,0,28,28,28,1,105,40,,,,,,,,
,,578e215abaec1b0001697778,65af555c304b05200d920850,2024-01-23_06h58.01.027,bars,2023.2.3,Win32,59.88023952,657b66ea316d21385b68909f,,,,,,,,,,,1027.4817,1028.4859,,,1028.9862,1029.2369,,118,118,,,,,,,,,,,,,,,,bars/039.png,bars/mask004.png,,,,,,,,,,,,2,2,,,,,,,6,4,6,4,,,,,,,,,,,1028.4859,1028.9862,1029.2369,1034.9927,space,5.7495,,1034.9927,57,13,1035.9933,1035.9935,1036.0202,,,,0,29,29,29,1,175,105,,,,,,,,
,,578e215abaec1b0001697778,65af555c304b05200d920850,2024-01-23_06h58.01.027,bars,2023.2.3,Win32,59.88023952,657b66ea316d21385b68909f,,,,,,,,,,,1036.0206,1037.0112,,,1037.5117,1037.7617,,44,44,,,,,,,,,,,,,,,,bars/035.png,bars/mask004.png,,,,,,,,,,,,3,2,,,,,,,8,6,10,7,,,,,,,,,,,1037.0112,1037.5116,1037.7617,1041.1317,space,3.3543,,1041.1318,49,16,1042.1326,1042.1326,1042.1562,,,,0,30,30,30,1,175,60,,,,,,,,
,,578e215abaec1b0001697778,65af555c304b05200d920850,2024-01-23_06h58.01.027,bars,2023.2.3,Win32,59.88023952,657b66ea316d21385b68909f,,,,,,,,,,,1042.1564,1043.1505,,,1043.6512,1043.9014,,175,-5,,,,,,,,,,,,,,,,bars/016.png,bars/mask006.png,,,,,,,,,,,,3,2,,,,,,,6,4,6,4,,,,,,,,,,,1043.1506,1043.6512,1043.9015,1046.3199,space,2.411,,1046.3199,45,10,1047.3211,1047.3211,1047.3226,,,,0,31,31,31,1,40,165,,,,,,,,
,,578e215abaec1b0001697778,65af555c304b05200d920850,2024-01-23_06h58.01.027,bars,2023.2.3,Win32,59.88023952,657b66ea316d21385b68909f,,,,,,,,,,,1047.3232,1048.3215,,,1048.8224,1049.0731,,115,-65,,,,,,,,,,,,,,,,bars/037.png,bars/mask008.png,,,,,,,,,,,,2,2,,,,,,,8,2,7,3,,,,,,,,,,,1048.3215,1048.8224,1049.0732,1053.1608,space,4.0726,,1053.1608,35,10,1054.1611,1054.1611,1054.1758,,,,0,32,32,32,1,150,105,,,,,,,,
,,578e215abaec1b0001697778,65af555c304b05200d920850,2024-01-23_06h58.01.027,bars,2023.2.3,Win32,59.88023952,657b66ea316d21385b68909f,,,,,,,,,,,1054.1761,1055.1792,,,1055.6798,1055.93,,123,123,,,,,,,,,,,,,,,,bars/023.png,bars/mask003.png,,,,,,,,,,,,4,2,,,,,,,10,4,9,5,,,,,,,,,,,1055.1793,1055.6798,1055.9301,1058.9328,space,2.9869,,1058.9329,77,8,1059.9338,1059.9339,1059.9577,,,,0,33,33,33,1,20,115,,,,,,,,
,,578e215abaec1b0001697778,65af555c304b05200d920850,2024-01-23_06h58.01.027,bars,2023.2.3,Win32,59.88023952,657b66ea316d21385b68909f,,,,,,,,,,,1059.9579,1060.9514,,,1061.4522,1061.7024,,121,121,,,,,,,,,,,,,,,,bars/009.png,bars/mask002.png,,,,,,,,,,,,3,2,,,,,,,10,6,10,7,,,,,,,,,,,1060.9515,1061.4522,1061.7025,1064.9726,space,3.2541,,1064.9726,74,16,1065.9732,1065.9734,1065.9977,,,,0,34,34,34,1,15,105,,,,,,,,
,,578e215abaec1b0001697778,65af555c304b05200d920850,2024-01-23_06h58.01.027,bars,2023.2.3,Win32,59.88023952,657b66ea316d21385b68909f,,,,,,,,,,,1065.9979,1066.991,,,1067.4915,1067.7311,,158,-22,,,,,,,,,,,,,,,,bars/003.png,bars/mask008.png,,,,,,,,,,,,4,2,,,,,,,8,8,9,9,,,,,,,,,,,1066.9911,1067.4915,1067.7311,1071.1455,space,3.3979,,1071.1456,47,18,1072.146,1072.1461,1072.1705,,,,0,35,35,35,1,25,140,,,,,,,,
,,578e215abaec1b0001697778,65af555c304b05200d920850,2024-01-23_06h58.01.027,bars,2023.2.3,Win32,59.88023952,657b66ea316d21385b68909f,,,,,,,,,,,1072.1707,1073.1635,,,1073.664,1073.9144,,110,110,,,,,,,,,,,,,,,,bars/006.png,bars/mask006.png,,,,,,,,,,,,4,2,,,,,,,10,6,10,6,,,,,,,,,,,1073.1635,1073.6639,1073.9144,1076.7173,space,2.7864,,1076.7174,75,10,1077.718,1077.718,1077.7293,,,,0,36,36,36,1,35,100,,,,,,,,
,,578e215abaec1b0001697778,65af555c304b05200d920850,2024-01-23_06h58.01.027,bars,2023.2.3,Win32,59.88023952,657b66ea316d21385b68909f,,,,,,,,,,,1077.7294,1078.7193,,,1079.2197,1079.4701,,106,106,,,,,,,,,,,,,,,,bars/039.png,bars/mask003.png,,,,,,,,,,,,8,2,,,,,,,10,8,10,8,,,,,,,,,,,1078.7194,1079.2197,1079.4701,1080.9717,space,1.4914,,1080.9717,69,1,1081.9785,1081.9785,1082.0013,,,,0,37,37,37,1,175,105,,,,,,,,
,,578e215abaec1b0001697778,65af555c304b05200d920850,2024-01-23_06h58.01.027,bars,2023.2.3,Win32,59.88023952,657b66ea316d21385b68909f,,,,,,,,,,,1082.0014,1082.9903,,,1083.4906,1083.7408,,153,153,,,,,,,,,,,,,,,,bars/003.png,bars/mask006.png,,,,,,,,,,,,6,2,,,,,,,8,10,8,10,,,,,,,,,,,1082.9903,1083.4905,1083.7408,1087.4779,space,3.7221,,1087.4779,52,13,1088.479,1088.479,1088.5016,,,,0,38,38,38,1,25,140,,,,,,,,
,,578e215abaec1b0001697778,65af555c304b05200d920850,2024-01-23_06h58.01.027,bars,2023.2.3,Win32,59.88023952,657b66ea316d21385b68909f,,,,,,,,,,,1088.5019,1089.4966,,,1089.9971,1090.2472,,76,76,,,,,,,,,,,,,,,,bars/021.png,bars/mask000.png,,,,,,,,,,,,7,2,,,,,,,10,8,10,9,,,,,,,,,,,1089.4966,1089.9971,1090.2472,1092.9834,space,2.7224,,1092.9834,79,6,1093.9846,1093.9846,1094.0085,,,,0,39,39,39,1,155,70,,,,,,,,
,,578e215abaec1b0001697778,65af555c304b05200d920850,2024-01-23_06h58.01.027,bars,2023.2.3,Win32,59.88023952,657b66ea316d21385b68909f,,,,,,,,,,,1094.0088,1095.0023,,,1095.5027,1095.753,,92,92,,,,,,,,,,,,,,,,bars/011.png,bars/mask003.png,,,,,,,,,,,,5,2,,,,,,,10,6,9,6,,,,,,,,,,,1095.0023,1095.5027,1095.7531,1098.4892,space,2.7194,,1098.4892,68,7,1099.4899,1099.4899,1099.5146,,,,0,40,40,40,1,160,85,,,,,,,,
,,578e215abaec1b0001697778,65af555c304b05200d920850,2024-01-23_06h58.01.027,bars,2023.2.3,Win32,59.88023952,657b66ea316d21385b68909f,,,,,,,,,,,1099.5149,1100.5073,,,1101.0083,1101.2584,,133,133,,,,,,,,,,,,,,,,bars/049.png,bars/mask009.png,,,,,,,,,,,,3,2,,,,,,,10,8,10,7,,,,,,,,,,,1100.5073,1101.0083,1101.2585,1105.029,space,3.7548,,1105.029,27,18,1106.0353,1106.0355,1106.0597,,,,0,41,41,41,1,160,115,,,,,,,,
,,578e215abaec1b0001697778,65af555c304b05200d920850,2024-01-23_06h58.01.027,bars,2023.2.3,Win32,59.88023952,657b66ea316d21385b68909f,,,,,,,,,,,1106.0599,1107.0641,,,1107.5647,1107.8148,,130,-50,,,,,,,,,,,,,,,,bars/037.png,bars/mask009.png,,,,,,,,,,,,3,1,,,,,,,8,10,8,10,,,,,,,,,,,1107.0642,1107.5645,1107.8148,1112.9203,space,5.099,,1112.9204,20,25,1113.9208,1113.9208,1113.9471,,,,0,42,42,42,1,150,105,,,,,,,,
,,578e215abaec1b0001697778,65af555c304b05200d920850,2024-01-23_06h58.01.027,bars,2023.2.3,Win32,59.88023952,657b66ea316d21385b68909f,,,,,,,,,,,1113.9474,1114.9387,,,1115.4392,1115.6893,,29,209,,,,,,,,,,,,,,,,bars/013.png,bars/mask002.png,,,,,,,,,,,,3,2,,,,,,,6,8,5,8,,,,,,,,,,,1114.9387,1115.4392,1115.6893,1119.1429,space,3.4384,,1119.143,46,19,1120.144,1120.144,1120.1668,,,,0,43,43,43,1,75,10,,,,,,,,
,,578e215abaec1b0001697778,65af555c304b05200d920850,2024-01-23_06h58.01.027,bars,2023.2.3,Win32,59.88023952,657b66ea316d21385b68909f,,,,,,,,,,,1120.167,1121.1615,,,1121.6619,1121.9119,,12,12,,,,,,,,,,,,,,,,bars/032.png,bars/mask003.png,,,,,,,,,,,,7,2,,,,,,,4,10,3,10,,,,,,,,,,,1121.1615,1121.6618,1121.912,1123.831,space,1.9051,,1123.8311,67,8,1124.8319,1124.832,1124.8334,,,,0,44,44,44,1,125,20,,,,,,,,
,,578e215abaec1b0001697778,65af555c304b05200d920850,2024-01-23_06h58.01.027,bars,2023.2.3,Win32,59.88023952,657b66ea316d21385b68909f,,,,,,,,,,,1124.8339,1125.8326,,,1126.3335,1126.5837,,151,151,,,,,,,,,,,,,,,,bars/043.png,bars/mask001.png,,,,,,,,,,,,2,2,,,,,,,6,8,7,8,,,,,,,,,,,1125.8326,1126.3334,1126.5837,1129.2699,space,2.674,,1129.27,59,21,1130.2704,1130.2704,1130.2947,,,,0,45,45,45,1,30,130,,,,,,,,
,,578e215abaec1b0001697778,65af555c304b05200d920850,2024-01-23_06h58.01.027,bars,2023.2.3,Win32,59.88023952,657b66ea316d21385b68909f,,,,,,,,,,,1130.295,1131.2882,,,1131.7889,1132.0391,,177,-3,,,,,,,,,,,,,,,,bars/008.png,bars/mask002.png,,,,,,,,,,,,5,2,,,,,,,4,6,4,5,,,,,,,,,,,1131.2882,1131.7888,1132.0391,1133.7411,space,1.6862,,1133.7411,67,3,1134.7417,1134.7417,1134.7432,,,,0,46,46,46,1,110,0,,,,,,,,
,,578e215abaec1b0001697778,65af555c304b05200d920850,2024-01-23_06h58.01.027,bars,2023.2.3,Win32,59.88023952,657b66ea316d21385b68909f,,,,,,,,,,,1134.7438,1135.7424,,,1136.2427,1136.4992,,14,14,,,,,,,,,,,,,,,,bars/036.png,bars/mask008.png,,,,,,,,,,,,3,2,,,,,,,2,4,3,4,,,,,,,,,,,1135.7424,1136.2427,1136.4992,1138.9677,space,2.462,,1138.9677,49,6,1139.9633,1139.9634,1139.9865,,,,0,47,47,47,1,145,20,,,,,,,,
,,578e215abaec1b0001697778,65af555c304b05200d920850,2024-01-23_06h58.01.027,bars,2023.2.3,Win32,59.88023952,657b66ea316d21385b68909f,,,,,,,,,,,1139.9867,1140.9813,,,1141.482,1141.732,,53,53,,,,,,,,,,,,,,,,bars/029.png,bars/mask003.png,,,,,,,,,,,,1,2,,,,,,,0,2,0,1,,,,,,,,,,,1140.9814,1141.482,1141.732,1144.7853,space,3.0375,,1144.7853,37,8,1145.7862,1145.7863,1145.8101,,,,0,48,48,48,1,90,45,,,,,,,,
,,578e215abaec1b0001697778,65af555c304b05200d920850,2024-01-23_06h58.01.027,bars,2023.2.3,Win32,59.88023952,657b66ea316d21385b68909f,,,,,,,,,,,1145.8103,1146.8036,,,1147.3041,1147.5544,,179,179,,,,,,,,,,,,,,,,bars/016.png,bars/mask006.png,,,,,,,,,,,,3,2,,,,,,,0,4,0,5,,,,,,,,,,,1146.8036,1147.3041,1147.5544,1151.6421,space,4.079,,1151.6421,41,14,1152.6429,1152.643,1152.6662,,,,0,49,49,49,1,40,165,,,,,,,,
,,578e215abaec1b0001697778,65af555c304b05200d920850,2024-01-23_06h58.01.027,bars,2023.2.3,Win32,59.88023952,657b66ea316d21385b68909f,,,,,,,,,,,,,,,,,,,,,,,,,,,,,,,,,,,,,,,,,,,,,,,,,,,,,,,,,,,,,,,,,,,,,,,,,,,,,,,,,,,,,,,,,,,,,1152.6664,1212.6696,0,1,1,2,1,sequence_tables/blk047.csv
,,578e215abaec1b0001697778,65af555c304b05200d920850,2024-01-23_06h58.01.027,bars,2023.2.3,Win32,59.88023952,657b66ea316d21385b68909f,,,,,,,,,,,1221.022,1221.9952,,,1222.4957,1222.7456,,90,90,,,,,,,,,,,,,,,,bars/018.png,bars/mask003.png,,,,,,,,,,,,2,2,,,,,,,8,3,7,2,,,,,,1212.6938,1220.9942,space,8.2853,,1221.9952,1222.4956,1222.7456,1226.0324,space,3.2815,,1226.0325,60,0,1227.0336,1227.0337,1227.0581,,,,0,0,0,0,1,150,90,,,,,,,,
,,578e215abaec1b0001697778,65af555c304b05200d920850,2024-01-23_06h58.01.027,bars,2023.2.3,Win32,59.88023952,657b66ea316d21385b68909f,,,,,,,,,,,1227.0584,1228.0513,,,1228.552,1228.8018,,118,118,,,,,,,,,,,,,,,,bars/006.png,bars/mask001.png,,,,,,,,,,,,2,2,,,,,,,6,5,6,4,,,,,,,,,,,1228.0514,1228.5519,1228.802,1232.689,space,3.8793,,1232.6891,83,18,1233.6903,1233.6904,1233.7141,,,,0,1,1,1,1,35,100,,,,,,,,
,,578e215abaec1b0001697778,65af555c304b05200d920850,2024-01-23_06h58.01.027,bars,2023.2.3,Win32,59.88023952,657b66ea316d21385b68909f,,,,,,,,,,,1233.7143,1234.7079,,,1235.2086,1235.4586,,40,40,,,,,,,,,,,,,,,,bars/010.png,bars/mask007.png,,,,,,,,,,,,2,2,,,,,,,8,3,8,3,,,,,,,,,,,1234.7079,1235.2086,1235.4587,1238.1165,space,2.6516,,1238.1165,55,15,1239.1123,1239.1123,1239.1354,,,,0,2,2,2,1,165,55,,,,,,,,
,,578e215abaec1b0001697778,65af555c304b05200d920850,2024-01-23_06h58.01.027,bars,2023.2.3,Win32,59.88023952,657b66ea316d21385b68909f,,,,,,,,,,,1239.1357,1240.1297,,,1240.6306,1240.8807,,142,142,,,,,,,,,,,,,,,,bars/004.png,bars/mask009.png,,,,,,,,,,,,2,2,,,,,,,6,5,5,5,,,,,,,,,,,1240.1297,1240.6305,1240.8807,1242.8828,space,1.9862,,1242.8828,63,17,1243.8837,1243.8838,1243.8955,,,,0,3,3,3,1,25,125,,,,,,,,
,,578e215abaec1b0001697778,65af555c304b05200d920850,2024-01-23_06h58.01.027,bars,2023.2.3,Win32,59.88023952,657b66ea316d21385b68909f,,,,,,,,,,,1243.8956,1244.8845,,,1245.3851,1245.6353,,40,40,,,,,,,,,,,,,,,,bars/031.png,bars/mask006.png,,,,,,,,,,,,3,2,,,,,,,8,3,9,3,,,,,,,,,,,1244.8845,1245.3851,1245.6354,1248.3385,space,2.6866,,1248.3385,80,5,1249.3391,1249.3392,1249.3619,,,,0,4,4,4,1,120,35,,,,,,,,
,,578e215abaec1b0001697778,65af555c304b05200d920850,2024-01-23_06h58.01.027,bars,2023.2.3,Win32,59.88023952,657b66ea316d21385b68909f,,,,,,,,,,,1249.3622,1250.3569,,,1250.8575,1251.1069,,150,150,,,,,,,,,,,,,,,,bars/003.png,bars/mask003.png,,,,,,,,,,,,1,2,,,,,,,6,1,6,2,,,,,,,,,,,1250.357,1250.8573,1251.1069,1254.1942,space,3.0723,,1254.1943,55,10,1255.1948,1255.1949,1255.2125,,,,0,5,5,5,1,25,140,,,,,,,,
,,578e215abaec1b0001697778,65af555c304b05200d920850,2024-01-23_06h58.01.027,bars,2023.2.3,Win32,59.88023952,657b66ea316d21385b68909f,,,,,,,,,,,1255.2127,1256.2125,,,1256.7126,1256.9634,,147,-33,,,,,,,,,,,,,,,,bars/044.png,bars/mask000.png,,,,,,,,,,,,2,2,,,,,,,4,3,3,3,,,,,,,,,,,1256.2126,1256.7126,1256.9634,1261.1008,space,4.1257,,1261.1008,72,8,1262.1016,1262.1017,1262.1248,,,,0,6,6,6,1,75,155,,,,,,,,
,,578e215abaec1b0001697778,65af555c304b05200d920850,2024-01-23_06h58.01.027,bars,2023.2.3,Win32,59.88023952,657b66ea316d21385b68909f,,,,,,,,,,,1262.125,1263.1195,,,1263.62,1263.8699,,59,59,,,,,,,,,,,,,,,,bars/027.png,bars/mask008.png,,,,,,,,,,,,1,2,,,,,,,6,1,7,1,,,,,,,,,,,1263.1195,1263.6199,1263.8699,1266.9733,space,3.0924,,1266.9734,51,9,1267.9738,1267.9738,1267.988,,,,0,7,7,7,1,110,50,,,,,,,,
,,578e215abaec1b0001697778,65af555c304b05200d920850,2024-01-23_06h58.01.027,bars,2023.2.3,Win32,59.88023952,657b66ea316d21385b68909f,,,,,,,,,,,1267.9882,1268.9918,,,1269.4924,1269.7425,,17,17,,,,,,,,,,,,,,,,bars/032.png,bars/mask003.png,,,,,,,,,,,,4,2,,,,,,,8,3,9,4,,,,,,,,,,,1268.9919,1269.4923,1269.7425,1272.3121,space,2.563,,1272.3122,72,3,1273.313,1273.313,1273.3355,,,,0,8,8,8,1,125,20,,,,,,,,
,,578e215abaec1b0001697778,65af555c304b05200d920850,2024-01-23_06h58.01.027,bars,2023.2.3,Win32,59.88023952,657b66ea316d21385b68909f,,,,,,,,,,,1273.3358,1274.3306,,,1274.8313,1275.0814,,123,123,,,,,,,,,,,,,,,,bars/009.png,bars/mask005.png,,,,,,,,,,,,0,2,,,,,,,10,1,8,1,,,,,,,,,,,1274.3306,1274.8312,1275.0815,1277.2338,space,2.1434,,1277.2339,72,18,1278.2346,1278.2347,1278.2362,,,,0,9,9,9,1,15,105,,,,,,,,
,,578e215abaec1b0001697778,65af555c304b05200d920850,2024-01-23_06h58.01.027,bars,2023.2.3,Win32,59.88023952,657b66ea316d21385b68909f,,,,,,,,,,,1278.2368,1279.2357,,,1279.7359,1279.9864,,159,159,,,,,,,,,,,,,,,,bars/044.png,bars/mask007.png,,,,,,,,,,,,1,2,,,,,,,8,3,7,1,,,,,,,,,,,1279.2358,1279.7358,1279.9865,1285.9256,space,5.9299,,1285.9258,84,4,1286.9266,1286.9267,1286.9523,,,,0,10,10,10,1,75,155,,,,,,,,
,,578e215abaec1b0001697778,65af555c304b05200d920850,2024-01-23_06h58.01.027,bars,2023.2.3,Win32,59.88023952,657b66ea316d21385b68909f,,,,,,,,,,,1286.9526,1287.9441,,,1288.4448,1288.6948,,85,85,,,,,,,,,,,,,,,,bars/041.png,bars/mask000.png,,,,,,,,,,,,2,2,,,,,,,10,1,8,2,,,,,,,,,,,1287.9441,1288.4448,1288.6949,1292.8827,space,4.163,,1292.8828,65,0,1293.8885,1293.8885,1293.9014,,,,0,11,11,11,1,20,85,,,,,,,,
,,578e215abaec1b0001697778,65af555c304b05200d920850,2024-01-23_06h58.01.027,bars,2023.2.3,Win32,59.88023952,657b66ea316d21385b68909f,,,,,,,,,,,1293.9016,1294.901,,,1295.4016,1295.6519,,163,163,,,,,,,,,,,,,,,,bars/015.png,bars/mask002.png,,,,,,,,,,,,0,2,,,,,,,10,0,10,0,,,,,,,,,,,1294.9011,1295.4016,1295.652,1299.6727,space,4.0045,,1299.6728,53,3,1300.6735,1300.6735,1300.6966,,,,0,12,12,12,1,110,160,,,,,,,,
,,578e215abaec1b0001697778,65af555c304b05200d920850,2024-01-23_06h58.01.027,bars,2023.2.3,Win32,59.88023952,657b66ea316d21385b68909f,,,,,,,,,,,1300.6967,1301.6914,,,1302.1811,1302.4252,,89,89,,,,,,,,,,,,,,,,bars/018.png,bars/mask000.png,,,,,,,,,,,,2,2,,,,,,,8,2,9,2,,,,,,,,,,,1301.6915,1302.1811,1302.4253,1304.2934,space,1.8548,,1304.2934,61,1,1305.2949,1305.295,1305.3189,,,,0,13,13,13,1,150,90,,,,,,,,
,,578e215abaec1b0001697778,65af555c304b05200d920850,2024-01-23_06h58.01.027,bars,2023.2.3,Win32,59.88023952,657b66ea316d21385b68909f,,,,,,,,,,,1305.3192,1306.3126,,,1306.8024,1307.0466,,63,63,,,,,,,,,,,,,,,,bars/029.png,bars/mask005.png,,,,,,,,,,,,2,2,,,,,,,10,4,8,6,,,,,,,,,,,1306.3127,1306.8022,1307.0466,1310.6902,space,3.6366,,1310.6902,27,18,1311.6846,1311.6846,1311.7097,,,,0,14,14,14,1,90,45,,,,,,,,
,,578e215abaec1b0001697778,65af555c304b05200d920850,2024-01-23_06h58.01.027,bars,2023.2.3,Win32,59.88023952,657b66ea316d21385b68909f,,,,,,,,,,,1311.71,1312.7023,,,1313.2025,1313.4531,,27,207,,,,,,,,,,,,,,,,bars/032.png,bars/mask003.png,,,,,,,,,,,,5,2,,,,,,,8,6,8,6,,,,,,,,,,,1312.7024,1313.2025,1313.4531,1316.7731,space,3.3077,,1316.7732,82,7,1317.7796,1317.7797,1317.8031,,,,0,15,15,15,1,125,20,,,,,,,,
,,578e215abaec1b0001697778,65af555c304b05200d920850,2024-01-23_06h58.01.027,bars,2023.2.3,Win32,59.88023952,657b66ea316d21385b68909f,,,,,,,,,,,1317.8035,1318.7913,,,1319.2925,1319.5424,,33,33,,,,,,,,,,,,,,,,bars/022.png,bars/mask004.png,,,,,,,,,,,,5,2,,,,,,,10,8,10,9,,,,,,,,,,,1318.7914,1319.2924,1319.5424,1322.2786,space,2.72,,1322.2787,62,13,1323.2794,1323.2794,1323.3033,,,,0,16,16,16,1,95,20,,,,,,,,
,,578e215abaec1b0001697778,65af555c304b05200d920850,2024-01-23_06h58.01.027,bars,2023.2.3,Win32,59.88023952,657b66ea316d21385b68909f,,,,,,,,,,,1323.3036,1324.2973,,,1324.7974,1325.0479,,166,-14,,,,,,,,,,,,,,,,bars/033.png,bars/mask002.png,,,,,,,,,,,,6,2,,,,,,,10,10,10,10,,,,,,,,,,,1324.2973,1324.7973,1325.0479,1328.6013,space,3.5453,,1328.6013,39,11,1329.6074,1329.6074,1329.6163,,,,0,17,17,17,1,25,155,,,,,,,,
,,578e215abaec1b0001697778,65af555c304b05200d920850,2024-01-23_06h58.01.027,bars,2023.2.3,Win32,59.88023952,657b66ea316d21385b68909f,,,,,,,,,,,1329.6165,1330.6201,,,1331.1207,1331.371,,157,157,,,,,,,,,,,,,,,,bars/044.png,bars/mask007.png,,,,,,,,,,,,8,2,,,,,,,8,8,9,9,,,,,,,,,,,1330.6201,1331.1206,1331.3711,1335.782,space,4.4042,,1335.782,82,2,1336.7763,1336.7764,1336.8005,,,,0,18,18,18,1,75,155,,,,,,,,
,,578e215abaec1b0001697778,65af555c304b05200d920850,2024-01-23_06h58.01.027,bars,2023.2.3,Win32,59.88023952,657b66ea316d21385b68909f,,,,,,,,,,,1336.8007,1337.794,,,1338.2946,1338.5506,,155,155,,,,,,,,,,,,,,,,bars/044.png,bars/mask004.png,,,,,,,,,,,,10,2,,,,,,,6,10,5,10,,,,,,,,,,,1337.794,1338.2945,1338.5506,1343.8998,space,5.3236,,1343.8999,80,0,1344.9069,1344.9069,1344.9318,,,,0,19,19,19,1,75,155,,,,,,,,
,,578e215abaec1b0001697778,65af555c304b05200d920850,2024-01-23_06h58.01.027,bars,2023.2.3,Win32,59.88023952,657b66ea316d21385b68909f,,,,,,,,,,,1344.932,1345.9351,,,1346.4357,1346.686,,82,82,,,,,,,,,,,,,,,,bars/042.png,bars/mask008.png,,,,,,,,,,,,6,2,,,,,,,8,10,7,8,,,,,,,,,,,1345.9351,1346.4356,1346.6861,1350.6734,space,3.9771,,1350.6735,63,7,1351.6744,1351.6745,1351.6988,,,,0,20,20,20,1,145,75,,,,,,,,
,,578e215abaec1b0001697778,65af555c304b05200d920850,2024-01-23_06h58.01.027,bars,2023.2.3,Win32,59.88023952,657b66ea316d21385b68909f,,,,,,,,,,,1351.6992,1352.6921,,,1353.1923,1353.4427,,51,51,,,,,,,,,,,,,,,,bars/031.png,bars/mask005.png,,,,,,,,,,,,4,2,,,,,,,6,8,5,8,,,,,,,,,,,1352.6921,1353.1923,1353.4427,1356.5793,space,3.1261,,1356.5794,69,16,1357.58,1357.58,1357.5884,,,,0,21,21,21,1,120,35,,,,,,,,
,,578e215abaec1b0001697778,65af555c304b05200d920850,2024-01-23_06h58.01.027,bars,2023.2.3,Win32,59.88023952,657b66ea316d21385b68909f,,,,,,,,,,,1357.5886,1358.5811,,,1359.0818,1359.3319,,97,97,,,,,,,,,,,,,,,,bars/009.png,bars/mask005.png,,,,,,,,,,,,7,2,,,,,,,4,10,3,10,,,,,,,,,,,1358.5812,1359.0817,1359.3319,1362.2685,space,2.9248,,1362.2685,82,8,1363.2691,1363.2692,1363.2928,,,,0,22,22,22,1,15,105,,,,,,,,
,,578e215abaec1b0001697778,65af555c304b05200d920850,2024-01-23_06h58.01.027,bars,2023.2.3,Win32,59.88023952,657b66ea316d21385b68909f,,,,,,,,,,,1363.293,1364.2871,,,1364.7873,1365.037,,63,63,,,,,,,,,,,,,,,,bars/007.png,bars/mask008.png,,,,,,,,,,,,7,2,,,,,,,2,10,2,10,,,,,,,,,,,1364.2872,1364.7872,1365.0371,1367.3737,space,2.3243,,1367.3738,68,8,1368.3741,1368.3742,1368.3977,,,,0,23,23,23,1,175,55,,,,,,,,
,,578e215abaec1b0001697778,65af555c304b05200d920850,2024-01-23_06h58.01.027,bars,2023.2.3,Win32,59.88023952,657b66ea316d21385b68909f,,,,,,,,,,,1368.398,1369.3919,,,1369.8983,1370.1428,,54,54,,,,,,,,,,,,,,,,bars/010.png,bars/mask001.png,,,,,,,,,,,,8,2,,,,,,,0,8,0,8,,,,,,,,,,,1369.3919,1369.8983,1370.1429,1373.3529,space,3.2029,,1373.3529,69,1,1374.3464,1374.3464,1374.3588,,,,0,24,24,24,1,165,55,,,,,,,,
,,578e215abaec1b0001697778,65af555c304b05200d920850,2024-01-23_06h58.01.027,bars,2023.2.3,Win32,59.88023952,657b66ea316d21385b68909f,,,,,,,,,,,1374.3591,1375.3481,,,1375.8483,1376.0987,,87,87,,,,,,,,,,,,,,,,bars/001.png,bars/mask000.png,,,,,,,,,,,,4,2,,,,,,,2,6,3,4,,,,,,,,,,,1375.3481,1375.8483,1376.0987,1379.0237,space,2.9032,,1379.0238,43,2,1380.0192,1380.0193,1380.0435,,,,0,25,25,25,1,130,85,,,,,,,,
,,578e215abaec1b0001697778,65af555c304b05200d920850,2024-01-23_06h58.01.027,bars,2023.2.3,Win32,59.88023952,657b66ea316d21385b68909f,,,,,,,,,,,1380.0437,1381.0371,,,1381.5376,1381.7877,,5,5,,,,,,,,,,,,,,,,bars/012.png,bars/mask008.png,,,,,,,,,,,,4,2,,,,,,,0,8,0,6,,,,,,,,,,,1381.0371,1381.5376,1381.7877,1384.891,space,3.0932,,1384.891,85,10,1385.8919,1385.892,1385.9199,,,,0,26,26,26,1,90,15,,,,,,,,
,,578e215abaec1b0001697778,65af555c304b05200d920850,2024-01-23_06h58.01.027,bars,2023.2.3,Win32,59.88023952,657b66ea316d21385b68909f,,,,,,,,,,,1385.9203,1386.9094,,,1387.4101,1387.6601,,34,214,,,,,,,,,,,,,,,,bars/013.png,bars/mask000.png,,,,,,,,,,,,2,2,,,,,,,2,10,4,9,,,,,,,,,,,1386.9094,1387.41,1387.6602,1391.5478,space,3.8766,,1391.5478,41,24,1392.5484,1392.5485,1392.5718,,,,0,27,27,27,1,75,10,,,,,,,,
,,578e215abaec1b0001697778,65af555c304b05200d920850,2024-01-23_06h58.01.027,bars,2023.2.3,Win32,59.88023952,657b66ea316d21385b68909f,,,,,,,,,,,1392.572,1393.5657,,,1394.0559,1394.3001,,147,-33,,,,,,,,,,,,,,,,bars/044.png,bars/mask005.png,,,,,,,,,,,,7,2,,,,,,,0,8,0,9,,,,,,,,,,,1393.5657,1394.0558,1394.3002,1397.954,space,3.6445,,1397.9541,72,8,1398.9548,1398.9548,1398.9775,,,,0,28,28,28,1,75,155,,,,,,,,
,,578e215abaec1b0001697778,65af555c304b05200d920850,2024-01-23_06h58.01.027,bars,2023.2.3,Win32,59.88023952,657b66ea316d21385b68909f,,,,,,,,,,,1398.9778,1399.9785,,,1400.473,1400.7232,,161,161,,,,,,,,,,,,,,,,bars/005.png,bars/mask008.png,,,,,,,,,,,,3,2,,,,,,,0,10,0,10,,,,,,,,,,,1399.9786,1400.473,1400.7233,1403.8764,space,3.1369,,1403.8765,29,21,1404.8773,1404.8774,1404.9007,,,,0,29,29,29,1,10,140,,,,,,,,
,,578e215abaec1b0001697778,65af555c304b05200d920850,2024-01-23_06h58.01.027,bars,2023.2.3,Win32,59.88023952,657b66ea316d21385b68909f,,,,,,,,,,,1404.9009,1405.8949,,,1406.3956,1406.6456,,80,80,,,,,,,,,,,,,,,,bars/046.png,bars/mask007.png,,,,,,,,,,,,8,2,,,,,,,2,8,0,9,,,,,,,,,,,1405.8949,1406.3956,1406.6456,1411.3068,space,4.6545,,1411.3068,75,5,1412.3014,1412.3014,1412.3206,,,,0,30,30,30,1,155,85,,,,,,,,
,,578e215abaec1b0001697778,65af555c304b05200d920850,2024-01-23_06h58.01.027,bars,2023.2.3,Win32,59.88023952,657b66ea316d21385b68909f,,,,,,,,,,,1412.3208,1413.3251,,,1413.8196,1414.0699,,35,35,,,,,,,,,,,,,,,,bars/036.png,bars/mask002.png,,,,,,,,,,,,3,2,,,,,,,0,6,1,5,,,,,,,,,,,1413.3252,1413.8195,1414.07,1416.6554,space,2.5785,,1416.6555,70,15,1417.6569,1417.6569,1417.6814,,,,0,31,31,31,1,145,20,,,,,,,,
,,578e215abaec1b0001697778,65af555c304b05200d920850,2024-01-23_06h58.01.027,bars,2023.2.3,Win32,59.88023952,657b66ea316d21385b68909f,,,,,,,,,,,1417.6816,1418.6742,,,1419.175,1419.4249,,156,-24,,,,,,,,,,,,,,,,bars/005.png,bars/mask008.png,,,,,,,,,,,,1,2,,,,,,,2,4,2,3,,,,,,,,,,,1418.6742,1419.1749,1419.4249,1422.4619,space,3.0213,,1422.4622,34,16,1423.4683,1423.4683,1423.4929,,,,0,32,32,32,1,10,140,,,,,,,,
,,578e215abaec1b0001697778,65af555c304b05200d920850,2024-01-23_06h58.01.027,bars,2023.2.3,Win32,59.88023952,657b66ea316d21385b68909f,,,,,,,,,,,1423.4932,1424.4964,,,1424.9975,1425.2477,,49,229,,,,,,,,,,,,,,,,bars/025.png,bars/mask005.png,,,,,,,,,,,,1,2,,,,,,,4,2,4,2,,,,,,,,,,,1424.4964,1424.9974,1425.2477,1428.718,space,3.457,,1428.7181,56,9,1429.7189,1429.719,1429.7434,,,,0,33,33,33,1,105,40,,,,,,,,
,,578e215abaec1b0001697778,65af555c304b05200d920850,2024-01-23_06h58.01.027,bars,2023.2.3,Win32,59.88023952,657b66ea316d21385b68909f,,,,,,,,,,,1429.7437,1430.7363,,,1431.2262,1431.4707,,105,105,,,,,,,,,,,,,,,,bars/039.png,bars/mask003.png,,,,,,,,,,,,1,2,,,,,,,6,0,5,1,,,,,,,,,,,1430.7364,1431.2262,1431.4707,1435.5906,space,4.1037,,1435.5906,70,0,1436.5917,1436.5917,1436.6074,,,,0,34,34,34,1,175,105,,,,,,,,
,,578e215abaec1b0001697778,65af555c304b05200d920850,2024-01-23_06h58.01.027,bars,2023.2.3,Win32,59.88023952,657b66ea316d21385b68909f,,,,,,,,,,,1436.6077,1437.6103,,,1438.1106,1438.3609,,173,-7,,,,,,,,,,,,,,,,bars/016.png,bars/mask009.png,,,,,,,,,,,,3,2,,,,,,,4,2,2,4,,,,,,,,,,,1437.6104,1438.1105,1438.3609,1440.9965,space,2.6232,,1440.9965,47,8,1441.9975,1441.9975,1442.0209,,,,0,35,35,35,1,40,165,,,,,,,,
,,578e215abaec1b0001697778,65af555c304b05200d920850,2024-01-23_06h58.01.027,bars,2023.2.3,Win32,59.88023952,657b66ea316d21385b68909f,,,,,,,,,,,1442.0211,1443.0149,,,1443.516,1443.766,,150,-30,,,,,,,,,,,,,,,,bars/000.png,bars/mask003.png,,,,,,,,,,,,3,2,,,,,,,2,4,2,4,,,,,,,,,,,1443.0149,1443.5159,1443.7661,1446.2185,space,2.4365,,1446.2186,70,5,1447.2196,1447.2197,1447.2464,,,,0,36,36,36,1,40,145,,,,,,,,
,,578e215abaec1b0001697778,65af555c304b05200d920850,2024-01-23_06h58.01.027,bars,2023.2.3,Win32,59.88023952,657b66ea316d21385b68909f,,,,,,,,,,,1447.2467,1448.2373,,,1448.738,1448.988,,4,184,,,,,,,,,,,,,,,,bars/008.png,bars/mask009.png,,,,,,,,,,,,3,2,,,,,,,4,2,4,3,,,,,,,,,,,1448.2373,1448.738,1448.988,1453.0914,space,4.0872,,1453.0915,74,4,1454.0923,1454.0923,1454.1028,,,,0,37,37,37,1,110,0,,,,,,,,
,,578e215abaec1b0001697778,65af555c304b05200d920850,2024-01-23_06h58.01.027,bars,2023.2.3,Win32,59.88023952,657b66ea316d21385b68909f,,,,,,,,,,,1454.103,1455.094,,,1455.5943,1455.8446,,84,84,,,,,,,,,,,,,,,,bars/018.png,bars/mask007.png,,,,,,,,,,,,4,2,,,,,,,6,4,6,5,,,,,,,,,,,1455.0941,1455.5943,1455.8448,1459.3819,space,3.5231,,1459.382,66,6,1460.3824,1460.3825,1460.4051,,,,0,38,38,38,1,150,90,,,,,,,,
,,578e215abaec1b0001697778,65af555c304b05200d920850,2024-01-23_06h58.01.027,bars,2023.2.3,Win32,59.88023952,657b66ea316d21385b68909f,,,,,,,,,,,1460.4052,1461.4002,,,1461.9006,1462.1511,,100,100,,,,,,,,,,,,,,,,bars/009.png,bars/mask001.png,,,,,,,,,,,,6,2,,,,,,,4,6,6,7,,,,,,,,,,,1461.4002,1461.9006,1462.1512,1466.4556,space,4.2885,,1466.4556,85,5,1467.4559,1467.4559,1467.4671,,,,0,39,39,39,1,15,105,,,,,,,,
,,578e215abaec1b0001697778,65af555c304b05200d920850,2024-01-23_06h58.01.027,bars,2023.2.3,Win32,59.88023952,657b66ea316d21385b68909f,,,,,,,,,,,1467.4673,1468.4571,,,1468.9577,1469.2084,,1,181,,,,,,,,,,,,,,,,bars/014.png,bars/mask005.png,,,,,,,,,,,,4,2,,,,,,,6,4,7,4,,,,,,,,,,,1468.4572,1468.9576,1469.2084,1472.9286,space,3.7062,,1472.9286,79,1,1473.9296,1473.9297,1473.9416,,,,0,40,40,40,1,80,0,,,,,,,,
,,578e215abaec1b0001697778,65af555c304b05200d920850,2024-01-23_06h58.01.027,bars,2023.2.3,Win32,59.88023952,657b66ea316d21385b68909f,,,,,,,,,,,1473.9417,1474.9302,,,1475.431,1475.6808,,144,144,,,,,,,,,,,,,,,,bars/003.png,bars/mask003.png,,,,,,,,,,,,1,2,,,,,,,4,2,5,1,,,,,,,,,,,1474.9302,1475.431,1475.6809,1477.9335,space,2.2394,,1477.9335,61,4,1478.9345,1478.9345,1478.9359,,,,0,41,41,41,1,25,140,,,,,,,,
,,578e215abaec1b0001697778,65af555c304b05200d920850,2024-01-23_06h58.01.027,bars,2023.2.3,Win32,59.88023952,657b66ea316d21385b68909f,,,,,,,,,,,1478.9365,1479.9355,,,1480.4359,1480.6862,,35,215,,,,,,,,,,,,,,,,bars/025.png,bars/mask006.png,,,,,,,,,,,,3,2,,,,,,,2,4,3,4,,,,,,,,,,,1479.9355,1480.4359,1480.6863,1483.0555,space,2.3533,,1483.0556,70,5,1484.0554,1484.0555,1484.0634,,,,0,42,42,42,1,105,40,,,,,,,,
,,578e215abaec1b0001697778,65af555c304b05200d920850,2024-01-23_06h58.01.027,bars,2023.2.3,Win32,59.88023952,657b66ea316d21385b68909f,,,,,,,,,,,1484.0635,1485.0573,,,1485.5575,1485.8081,,57,57,,,,,,,,,,,,,,,,bars/047.png,bars/mask007.png,,,,,,,,,,,,1,2,,,,,,,4,2,5,1,,,,,,,,,,,1485.0574,1485.5575,1485.8081,1487.61,space,1.7857,,1487.61,42,13,1488.6107,1488.6108,1488.6122,,,,0,43,43,43,1,15,70,,,,,,,,
,,578e215abaec1b0001697778,65af555c304b05200d920850,2024-01-23_06h58.01.027,bars,2023.2.3,Win32,59.88023952,657b66ea316d21385b68909f,,,,,,,,,,,1488.6127,1489.6118,,,1490.1122,1490.3625,,51,51,,,,,,,,,,,,,,,,bars/007.png,bars/mask004.png,,,,,,,,,,,,0,2,,,,,,,6,0,5,0,,,,,,,,,,,1489.6119,1490.1121,1490.3625,1494.2835,space,3.9047,,1494.2835,56,4,1495.284,1495.2841,1495.3061,,,,0,44,44,44,1,175,55,,,,,,,,
,,578e215abaec1b0001697778,65af555c304b05200d920850,2024-01-23_06h58.01.027,bars,2023.2.3,Win32,59.88023952,657b66ea316d21385b68909f,,,,,,,,,,,1495.3063,1496.3018,,,1496.8017,1497.0523,,84,84,,,,,,,,,,,,,,,,bars/002.png,bars/mask007.png,,,,,,,,,,,,0,2,,,,,,,8,0,9,0,,,,,,,,,,,1496.3019,1496.8017,1497.0523,1499.2884,space,2.2243,,1499.2885,46,1,1500.2889,1500.2889,1500.3183,,,,0,45,45,45,1,130,85,,,,,,,,
,,578e215abaec1b0001697778,65af555c304b05200d920850,2024-01-23_06h58.01.027,bars,2023.2.3,Win32,59.88023952,657b66ea316d21385b68909f,,,,,,,,,,,1500.3187,1501.3064,,,1501.8073,1502.0576,,29,29,,,,,,,,,,,,,,,,bars/045.png,bars/mask009.png,,,,,,,,,,,,0,2,,,,,,,6,0,8,0,,,,,,,,,,,1501.3066,1501.8072,1502.0576,1503.9593,space,1.8952,,1503.9594,71,19,1504.9604,1504.9605,1504.962,,,,0,46,46,46,1,100,10,,,,,,,,
,,578e215abaec1b0001697778,65af555c304b05200d920850,2024-01-23_06h58.01.027,bars,2023.2.3,Win32,59.88023952,657b66ea316d21385b68909f,,,,,,,,,,,1504.9625,1505.961,,,1506.4618,1506.712,,152,152,,,,,,,,,,,,,,,,bars/015.png,bars/mask005.png,,,,,,,,,,,,2,2,,,,,,,8,2,8,3,,,,,,,,,,,1505.961,1506.4618,1506.712,1509.7654,space,3.0399,,1509.7654,42,8,1510.766,1510.766,1510.7909,,,,0,47,47,47,1,110,160,,,,,,,,
,,578e215abaec1b0001697778,65af555c304b05200d920850,2024-01-23_06h58.01.027,bars,2023.2.3,Win32,59.88023952,657b66ea316d21385b68909f,,,,,,,,,,,1510.7911,1511.7837,,,1512.2844,1512.5345,,161,-19,,,,,,,,,,,,,,,,bars/033.png,bars/mask003.png,,,,,,,,,,,,2,2,,,,,,,10,4,10,3,,,,,,,,,,,1511.7838,1512.2844,1512.5346,1515.8551,space,3.3136,,1515.8551,44,6,1516.8555,1516.8556,1516.8797,,,,0,48,48,48,1,25,155,,,,,,,,
,,578e215abaec1b0001697778,65af555c304b05200d920850,2024-01-23_06h58.01.027,bars,2023.2.3,Win32,59.88023952,657b66ea316d21385b68909f,,,,,,,,,,,1516.88,1517.873,,,1518.3736,1518.6238,,55,55,,,,,,,,,,,,,,,,bars/029.png,bars/mask002.png,,,,,,,,,,,,1,2,,,,,,,10,2,10,2,,,,,,,,,,,1517.873,1518.3736,1518.6238,1520.0921,space,1.4561,,1520.0921,35,10,1521.0928,1521.0929,1521.0941,,,,0,49,49,49,1,90,45,,,,,,,,
,,578e215abaec1b0001697778,65af555c304b05200d920850,2024-01-23_06h58.01.027,bars,2023.2.3,Win32,59.88023952,657b66ea316d21385b68909f,,,,,,,,,,,,,,,,,,,,,,,,,,,,,,,,,,,,,,,,,,,,,,,,,,,,,,,,,,,,,,,,,,,,,,,,,,,,,,,,,,,,,,,,,,,,,1521.0946,1581.0862,0,2,2,0,1,sequence_tables/blk046.csv
,,578e215abaec1b0001697778,65af555c304b05200d920850,2024-01-23_06h58.01.027,bars,2023.2.3,Win32,59.88023952,657b66ea316d21385b68909f,,,,,,,,,,,1584.9525,1585.9408,,,1586.4415,1586.6918,,52,52,,,,,,,,,,,,,,,,bars/025.png,bars/mask008.png,,,,,,,,,,,,5,2,,,,,,,5,7,6,8,,,,,,1581.1133,1584.9398,space,3.8177,,1585.9408,1586.4415,1586.6918,1590.6284,space,3.9306,,1590.6284,53,12,1591.6298,1591.6299,1591.6529,,,,0,0,0,0,1,105,40,,,,,,,,
,,578e215abaec1b0001697778,65af555c304b05200d920850,2024-01-23_06h58.01.027,bars,2023.2.3,Win32,59.88023952,657b66ea316d21385b68909f,,,,,,,,,,,1591.6532,1592.6478,,,1593.1481,1593.388,,47,47,,,,,,,,,,,,,,,,bars/007.png,bars/mask000.png,,,,,,,,,,,,6,2,,,,,,,7,9,5,8,,,,,,,,,,,1592.6479,1593.1481,1593.3882,1596.0512,space,2.6426,,1596.0513,52,8,1597.0518,1597.0518,1597.0531,,,,0,1,1,1,1,175,55,,,,,,,,
,,578e215abaec1b0001697778,65af555c304b05200d920850,2024-01-23_06h58.01.027,bars,2023.2.3,Win32,59.88023952,657b66ea316d21385b68909f,,,,,,,,,,,1597.0536,1598.053,,,1598.5534,1598.8034,,47,47,,,,,,,,,,,,,,,,bars/010.png,bars/mask001.png,,,,,,,,,,,,7,2,,,,,,,5,10,4,10,,,,,,,,,,,1598.053,1598.5534,1598.8034,1603.2918,space,4.4726,,1603.2919,62,8,1604.2918,1604.2919,1604.3003,,,,0,2,2,2,1,165,55,,,,,,,,
,,578e215abaec1b0001697778,65af555c304b05200d920850,2024-01-23_06h58.01.027,bars,2023.2.3,Win32,59.88023952,657b66ea316d21385b68909f,,,,,,,,,,,1604.3005,1605.2937,,,1605.7939,1606.0443,,80,80,,,,,,,,,,,,,,,,bars/019.png,bars/mask006.png,,,,,,,,,,,,1,2,,,,,,,3,10,2,9,,,,,,,,,,,1605.2937,1605.7939,1606.0444,1609.9985,space,3.9476,,1609.9985,35,25,1610.9992,1610.9992,1611.0215,,,,0,3,3,3,1,45,105,,,,,,,,
,,578e215abaec1b0001697778,65af555c304b05200d920850,2024-01-23_06h58.01.027,bars,2023.2.3,Win32,59.88023952,657b66ea316d21385b68909f,,,,,,,,,,,1611.0218,1612.017,,,1612.5176,1612.7676,,108,108,,,,,,,,,,,,,,,,bars/039.png,bars/mask007.png,,,,,,,,,,,,9,2,,,,,,,1,10,0,10,,,,,,,,,,,1612.0171,1612.5176,1612.7677,1616.9386,space,4.1401,,1616.9386,67,3,1617.9394,1617.9394,1617.9628,,,,0,4,4,4,1,175,105,,,,,,,,
,,578e215abaec1b0001697778,65af555c304b05200d920850,2024-01-23_06h58.01.027,bars,2023.2.3,Win32,59.88023952,657b66ea316d21385b68909f,,,,,,,,,,,1617.963,1618.9568,,,1619.4577,1619.708,,122,122,,,,,,,,,,,,,,,,bars/049.png,bars/mask004.png,,,,,,,,,,,,8,2,,,,,,,0,10,1,10,,,,,,,,,,,1618.9568,1619.4576,1619.7081,1623.545,space,3.8298,,1623.545,38,7,1624.5355,1624.5355,1624.562,,,,0,5,5,5,1,160,115,,,,,,,,
,,578e215abaec1b0001697778,65af555c304b05200d920850,2024-01-23_06h58.01.027,bars,2023.2.3,Win32,59.88023952,657b66ea316d21385b68909f,,,,,,,,,,,1624.5623,1625.5638,,,1626.0644,1626.3146,,23,23,,,,,,,,,,,,,,,,bars/032.png,bars/mask009.png,,,,,,,,,,,,9,2,,,,,,,2,8,1,10,,,,,,,,,,,1625.5639,1626.0644,1626.3146,1631.1696,space,4.8401,,1631.1697,78,3,1632.17,1632.1701,1632.1935,,,,0,6,6,6,1,125,20,,,,,,,,
,,578e215abaec1b0001697778,65af555c304b05200d920850,2024-01-23_06h58.01.027,bars,2023.2.3,Win32,59.88023952,657b66ea316d21385b68909f,,,,,,,,,,,1632.1937,1633.1879,,,1633.6886,1633.9388,,33,213,,,,,,,,,,,,,,,,bars/036.png,bars/mask004.png,,,,,,,,,,,,3,2,,,,,,,0,6,0,5,,,,,,,,,,,1633.1881,1633.6885,1633.9389,1637.6425,space,3.6872,,1637.6426,68,13,1638.6435,1638.6436,1638.6674,,,,0,7,7,7,1,145,20,,,,,,,,
,,578e215abaec1b0001697778,65af555c304b05200d920850,2024-01-23_06h58.01.027,bars,2023.2.3,Win32,59.88023952,657b66ea316d21385b68909f,,,,,,,,,,,1638.6677,1639.6612,,,1640.1618,1640.412,,156,156,,,,,,,,,,,,,,,,bars/016.png,bars/mask009.png,,,,,,,,,,,,5,2,,,,,,,0,8,1,7,,,,,,,,,,,1639.6613,1640.1617,1640.4121,1641.9853,space,1.5669,,1641.9853,64,9,1642.9871,1642.9871,1642.9881,,,,0,8,8,8,1,40,165,,,,,,,,
,,578e215abaec1b0001697778,65af555c304b05200d920850,2024-01-23_06h58.01.027,bars,2023.2.3,Win32,59.88023952,657b66ea316d21385b68909f,,,,,,,,,,,1642.9886,1643.9819,,,1644.4821,1644.7326,,14,194,,,,,,,,,,,,,,,,bars/045.png,bars/mask003.png,,,,,,,,,,,,4,2,,,,,,,0,6,0,5,,,,,,,,,,,1643.982,1644.4821,1644.7326,1648.637,space,3.8884,,1648.6371,86,4,1649.6271,1649.6271,1649.6511,,,,0,9,9,9,1,100,10,,,,,,,,
,,578e215abaec1b0001697778,65af555c304b05200d920850,2024-01-23_06h58.01.027,bars,2023.2.3,Win32,59.88023952,657b66ea316d21385b68909f,,,,,,,,,,,1649.6513,1650.6556,,,1651.1556,1651.4062,,136,136,,,,,,,,,,,,,,,,bars/003.png,bars/mask009.png,,,,,,,,,,,,7,2,,,,,,,0,8,1,8,,,,,,,,,,,1650.6557,1651.1555,1651.4062,1653.7587,space,2.336,,1653.7587,69,4,1654.7593,1654.7594,1654.784,,,,0,10,10,10,1,25,140,,,,,,,,
,,578e215abaec1b0001697778,65af555c304b05200d920850,2024-01-23_06h58.01.027,bars,2023.2.3,Win32,59.88023952,657b66ea316d21385b68909f,,,,,,,,,,,1654.7843,1655.7771,,,1656.2777,1656.5338,,15,195,,,,,,,,,,,,,,,,bars/013.png,bars/mask009.png,,,,,,,,,,,,8,2,,,,,,,0,10,0,10,,,,,,,,,,,1655.7772,1656.2776,1656.5338,1660.4822,space,3.9285,,1660.4823,60,5,1661.4826,1661.4827,1661.5061,,,,0,11,11,11,1,75,10,,,,,,,,
,,578e215abaec1b0001697778,65af555c304b05200d920850,2024-01-23_06h58.01.027,bars,2023.2.3,Win32,59.88023952,657b66ea316d21385b68909f,,,,,,,,,,,1661.5063,1662.5003,,,1663.0012,1663.2509,,129,129,,,,,,,,,,,,,,,,bars/023.png,bars/mask005.png,,,,,,,,,,,,4,2,,,,,,,0,8,0,8,,,,,,,,,,,1662.5003,1663.0011,1663.2509,1665.2264,space,1.97,,1665.2265,71,14,1666.221,1666.2211,1666.2437,,,,0,12,12,12,1,20,115,,,,,,,,
,,578e215abaec1b0001697778,65af555c304b05200d920850,2024-01-23_06h58.01.027,bars,2023.2.3,Win32,59.88023952,657b66ea316d21385b68909f,,,,,,,,,,,1666.2439,1667.2381,,,1667.7392,1667.9895,,120,120,,,,,,,,,,,,,,,,bars/023.png,bars/mask009.png,,,,,,,,,,,,4,2,,,,,,,2,6,2,5,,,,,,,,,,,1667.2381,1667.7391,1667.9895,1671.9095,space,3.9133,,1671.9095,80,5,1672.9109,1672.911,1672.9351,,,,0,13,13,13,1,20,115,,,,,,,,
,,578e215abaec1b0001697778,65af555c304b05200d920850,2024-01-23_06h58.01.027,bars,2023.2.3,Win32,59.88023952,657b66ea316d21385b68909f,,,,,,,,,,,1672.9353,1673.9283,,,1674.429,1674.6792,,22,22,,,,,,,,,,,,,,,,bars/036.png,bars/mask009.png,,,,,,,,,,,,7,2,,,,,,,0,8,1,8,,,,,,,,,,,1673.9284,1674.429,1674.6792,1676.7985,space,2.1126,,1676.7985,57,2,1677.7991,1677.7991,1677.8217,,,,0,14,14,14,1,145,20,,,,,,,,
,,578e215abaec1b0001697778,65af555c304b05200d920850,2024-01-23_06h58.01.027,bars,2023.2.3,Win32,59.88023952,657b66ea316d21385b68909f,,,,,,,,,,,1677.822,1678.8167,,,1679.3227,1679.5677,,9,9,,,,,,,,,,,,,,,,bars/013.png,bars/mask002.png,,,,,,,,,,,,10,2,,,,,,,2,10,0,10,,,,,,,,,,,1678.8167,1679.3227,1679.5677,1682.4206,space,2.837,,1682.4207,66,1,1683.4212,1683.4212,1683.4455,,,,0,15,15,15,1,75,10,,,,,,,,
,,578e215abaec1b0001697778,65af555c304b05200d920850,2024-01-23_06h58.01.027,bars,2023.2.3,Win32,59.88023952,657b66ea316d21385b68909f,,,,,,,,,,,1683.4458,1684.4387,,,1684.9396,1685.1895,,29,209,,,,,,,,,,,,,,,,bars/012.png,bars/mask004.png,,,,,,,,,,,,5,2,,,,,,,4,10,2,10,,,,,,,,,,,1684.4388,1684.9395,1685.1895,1688.7,space,3.5038,,1688.7002,61,14,1689.6936,1689.6937,1689.7123,,,,0,16,16,16,1,90,15,,,,,,,,
,,578e215abaec1b0001697778,65af555c304b05200d920850,2024-01-23_06h58.01.027,bars,2023.2.3,Win32,59.88023952,657b66ea316d21385b68909f,,,,,,,,,,,1689.7125,1690.7118,,,1691.2118,1691.4621,,125,125,,,,,,,,,,,,,,,,bars/037.png,bars/mask001.png,,,,,,,,,,,,3,2,,,,,,,2,8,2,9,,,,,,,,,,,1690.7118,1691.2117,1691.4621,1693.3978,space,1.9205,,1693.3978,25,20,1694.3985,1694.3985,1694.4123,,,,0,17,17,17,1,150,105,,,,,,,,
,,578e215abaec1b0001697778,65af555c304b05200d920850,2024-01-23_06h58.01.027,bars,2023.2.3,Win32,59.88023952,657b66ea316d21385b68909f,,,,,,,,,,,1694.4124,1695.4002,,,1695.9005,1696.1509,,137,137,,,,,,,,,,,,,,,,bars/037.png,bars/mask004.png,,,,,,,,,,,,0,1,,,,,,,0,6,0,7,,,,,,,,,,,1695.4002,1695.9005,1696.1509,1701.6227,space,5.4648,,1701.6227,13,32,1702.6238,1702.6238,1702.6517,,,,0,18,18,18,1,150,105,,,,,,,,
,,578e215abaec1b0001697778,65af555c304b05200d920850,2024-01-23_06h58.01.027,bars,2023.2.3,Win32,59.88023952,657b66ea316d21385b68909f,,,,,,,,,,,1702.652,1703.6415,,,1704.1421,1704.3923,,82,82,,,,,,,,,,,,,,,,bars/046.png,bars/mask009.png,,,,,,,,,,,,3,2,,,,,,,0,4,2,3,,,,,,,,,,,1703.6416,1704.142,1704.3924,1706.3943,space,1.9917,,1706.3944,73,3,1707.3953,1707.3954,1707.4198,,,,0,19,19,19,1,155,85,,,,,,,,
,,578e215abaec1b0001697778,65af555c304b05200d920850,2024-01-23_06h58.01.027,bars,2023.2.3,Win32,59.88023952,657b66ea316d21385b68909f,,,,,,,,,,,1707.4199,1708.4128,,,1708.9133,1709.1635,,88,268,,,,,,,,,,,,,,,,bars/019.png,bars/mask005.png,,,,,,,,,,,,0,2,,,,,,,2,2,1,1,,,,,,,,,,,1708.4129,1708.9132,1709.1635,1713.351,space,4.1802,,1713.351,43,17,1714.352,1714.3521,1714.3756,,,,0,20,20,20,1,45,105,,,,,,,,
,,578e215abaec1b0001697778,65af555c304b05200d920850,2024-01-23_06h58.01.027,bars,2023.2.3,Win32,59.88023952,657b66ea316d21385b68909f,,,,,,,,,,,1714.3758,1715.3699,,,1715.8702,1716.1207,,67,67,,,,,,,,,,,,,,,,bars/027.png,bars/mask006.png,,,,,,,,,,,,0,2,,,,,,,4,0,4,0,,,,,,,,,,,1715.37,1715.8701,1716.1207,1718.9734,space,2.8352,,1718.9734,43,17,1719.9743,1719.9743,1719.9976,,,,0,21,21,21,1,110,50,,,,,,,,
,,578e215abaec1b0001697778,65af555c304b05200d920850,2024-01-23_06h58.01.027,bars,2023.2.3,Win32,59.88023952,657b66ea316d21385b68909f,,,,,,,,,,,1719.9977,1720.9918,,,1721.4925,1721.7429,,61,61,,,,,,,,,,,,,,,,bars/035.png,bars/mask009.png,,,,,,,,,,,,0,2,,,,,,,2,0,3,0,,,,,,,,,,,1720.9918,1721.4924,1721.7429,1724.6961,space,2.9445,,1724.6962,66,1,1725.6969,1725.697,1725.7208,,,,0,22,22,22,1,175,60,,,,,,,,
,,578e215abaec1b0001697778,65af555c304b05200d920850,2024-01-23_06h58.01.027,bars,2023.2.3,Win32,59.88023952,657b66ea316d21385b68909f,,,,,,,,,,,1725.7211,1726.7144,,,1727.2149,1727.4653,,22,22,,,,,,,,,,,,,,,,bars/013.png,bars/mask008.png,,,,,,,,,,,,0,2,,,,,,,0,0,1,0,,,,,,,,,,,1726.7145,1727.2149,1727.4654,1731.0689,space,3.5902,,1731.069,53,12,1732.0692,1732.0693,1732.0775,,,,0,23,23,23,1,75,10,,,,,,,,
,,578e215abaec1b0001697778,65af555c304b05200d920850,2024-01-23_06h58.01.027,bars,2023.2.3,Win32,59.88023952,657b66ea316d21385b68909f,,,,,,,,,,,1732.0777,1733.0709,,,1733.5715,1733.8217,,70,70,,,,,,,,,,,,,,,,bars/026.png,bars/mask009.png,,,,,,,,,,,,1,2,,,,,,,2,2,2,1,,,,,,,,,,,1733.0709,1733.5714,1733.8218,1736.5907,space,2.7613,,1736.5908,35,15,1737.5919,1737.5921,1737.6148,,,,0,24,24,24,1,35,85,,,,,,,,
,,578e215abaec1b0001697778,65af555c304b05200d920850,2024-01-23_06h58.01.027,bars,2023.2.3,Win32,59.88023952,657b66ea316d21385b68909f,,,,,,,,,,,1737.6151,1738.6097,,,1739.1102,1739.3605,,102,102,,,,,,,,,,,,,,,,bars/006.png,bars/mask000.png,,,,,,,,,,,,0,2,,,,,,,0,0,0,0,,,,,,,,,,,1738.6097,1739.1102,1739.3606,1742.7306,space,3.3547,,1742.7307,67,2,1743.7315,1743.7316,1743.7558,,,,0,25,25,25,1,35,100,,,,,,,,
,,578e215abaec1b0001697778,65af555c304b05200d920850,2024-01-23_06h58.01.027,bars,2023.2.3,Win32,59.88023952,657b66ea316d21385b68909f,,,,,,,,,,,1743.7561,1744.7491,,,1745.2498,1745.5059,,90,90,,,,,,,,,,,,,,,,bars/018.png,bars/mask002.png,,,,,,,,,,,,0,2,,,,,,,0,0,0,0,,,,,,,,,,,1744.7491,1745.2497,1745.506,1747.9857,space,2.4643,,1747.9857,60,0,1748.9868,1748.9869,1749.009,,,,0,26,26,26,1,150,90,,,,,,,,
,,578e215abaec1b0001697778,65af555c304b05200d920850,2024-01-23_06h58.01.027,bars,2023.2.3,Win32,59.88023952,657b66ea316d21385b68909f,,,,,,,,,,,1749.0093,1750.0044,,,1750.5049,1750.755,,108,108,,,,,,,,,,,,,,,,bars/009.png,bars/mask006.png,,,,,,,,,,,,1,2,,,,,,,2,0,2,1,,,,,,,,,,,1750.0045,1750.5048,1750.755,1752.1733,space,1.4029,,1752.1734,87,3,1753.1742,1753.1742,1753.1756,,,,0,27,27,27,1,15,105,,,,,,,,
,,578e215abaec1b0001697778,65af555c304b05200d920850,2024-01-23_06h58.01.027,bars,2023.2.3,Win32,59.88023952,657b66ea316d21385b68909f,,,,,,,,,,,1753.1761,1754.1752,,,1754.6759,1754.9259,,162,-18,,,,,,,,,,,,,,,,bars/016.png,bars/mask006.png,,,,,,,,,,,,2,2,,,,,,,0,2,2,2,,,,,,,,,,,1754.1752,1754.6757,1754.9261,1757.6787,space,2.737,,1757.6788,58,3,1758.6797,1758.6798,1758.7035,,,,0,28,28,28,1,40,165,,,,,,,,
,,578e215abaec1b0001697778,65af555c304b05200d920850,2024-01-23_06h58.01.027,bars,2023.2.3,Win32,59.88023952,657b66ea316d21385b68909f,,,,,,,,,,,1758.7037,1759.6973,,,1760.198,1760.4482,,101,101,,,,,,,,,,,,,,,,bars/039.png,bars/mask007.png,,,,,,,,,,,,0,2,,,,,,,2,0,1,0,,,,,,,,,,,1759.6974,1760.1979,1760.4482,1763.4343,space,2.9685,,1763.4343,74,4,1764.4355,1764.4355,1764.4605,,,,0,29,29,29,1,175,105,,,,,,,,
,,578e215abaec1b0001697778,65af555c304b05200d920850,2024-01-23_06h58.01.027,bars,2023.2.3,Win32,59.88023952,657b66ea316d21385b68909f,,,,,,,,,,,1764.4607,1765.4523,,,1765.9535,1766.2036,,168,168,,,,,,,,,,,,,,,,bars/024.png,bars/mask006.png,,,,,,,,,,,,3,2,,,,,,,0,2,1,3,,,,,,,,,,,1765.4523,1765.9535,1766.2036,1769.941,space,3.7239,,1769.9411,48,2,1770.9419,1770.9419,1770.9663,,,,0,30,30,30,1,120,170,,,,,,,,
,,578e215abaec1b0001697778,65af555c304b05200d920850,2024-01-23_06h58.01.027,bars,2023.2.3,Win32,59.88023952,657b66ea316d21385b68909f,,,,,,,,,,,1770.9665,1771.9597,,,1772.4604,1772.7099,,52,52,,,,,,,,,,,,,,,,bars/035.png,bars/mask000.png,,,,,,,,,,,,1,2,,,,,,,0,0,0,1,,,,,,,,,,,1771.9598,1772.4603,1772.71,1775.8136,space,3.0903,,1775.8136,57,8,1776.8141,1776.8142,1776.8375,,,,0,31,31,31,1,175,60,,,,,,,,
,,578e215abaec1b0001697778,65af555c304b05200d920850,2024-01-23_06h58.01.027,bars,2023.2.3,Win32,59.88023952,657b66ea316d21385b68909f,,,,,,,,,,,1776.8377,1777.8317,,,1778.3325,1778.5824,,15,15,,,,,,,,,,,,,,,,bars/012.png,bars/mask005.png,,,,,,,,,,,,2,2,,,,,,,2,2,2,2,,,,,,,,,,,1777.8318,1778.3325,1778.5825,1780.4679,space,1.8732,,1780.468,75,0,1781.4689,1781.4689,1781.4884,,,,0,32,32,32,1,90,15,,,,,,,,
,,578e215abaec1b0001697778,65af555c304b05200d920850,2024-01-23_06h58.01.027,bars,2023.2.3,Win32,59.88023952,657b66ea316d21385b68909f,,,,,,,,,,,1781.4887,1782.4869,,,1782.9873,1783.2432,,139,139,,,,,,,,,,,,,,,,bars/004.png,bars/mask003.png,,,,,,,,,,,,3,2,,,,,,,4,4,4,6,,,,,,,,,,,1782.4869,1782.9872,1783.2433,1785.6296,space,2.37,,1785.6297,66,14,1786.6239,1786.624,1786.6474,,,,0,33,33,33,1,25,125,,,,,,,,
,,578e215abaec1b0001697778,65af555c304b05200d920850,2024-01-23_06h58.01.027,bars,2023.2.3,Win32,59.88023952,657b66ea316d21385b68909f,,,,,,,,,,,1786.6477,1787.6419,,,1788.1424,1788.3923,,53,53,,,,,,,,,,,,,,,,bars/025.png,bars/mask006.png,,,,,,,,,,,,1,2,,,,,,,6,2,7,2,,,,,,,,,,,1787.6419,1788.1423,1788.3924,1792.3801,space,3.972,,1792.3801,52,13,1793.3805,1793.3805,1793.403,,,,0,34,34,34,1,105,40,,,,,,,,
,,578e215abaec1b0001697778,65af555c304b05200d920850,2024-01-23_06h58.01.027,bars,2023.2.3,Win32,59.88023952,657b66ea316d21385b68909f,,,,,,,,,,,1793.4031,1794.3985,,,1794.8991,1795.1494,,53,53,,,,,,,,,,,,,,,,bars/035.png,bars/mask002.png,,,,,,,,,,,,3,2,,,,,,,4,4,4,4,,,,,,,,,,,1794.3985,1794.899,1795.1494,1797.118,space,1.9528,,1797.118,58,7,1798.1189,1798.1189,1798.1427,,,,0,35,35,35,1,175,60,,,,,,,,
,,578e215abaec1b0001697778,65af555c304b05200d920850,2024-01-23_06h58.01.027,bars,2023.2.3,Win32,59.88023952,657b66ea316d21385b68909f,,,,,,,,,,,1798.143,1799.1366,,,1799.6373,1799.8869,,17,17,,,,,,,,,,,,,,,,bars/012.png,bars/mask009.png,,,,,,,,,,,,5,2,,,,,,,2,6,3,5,,,,,,,,,,,1799.1367,1799.6372,1799.8869,1802.3401,space,2.4411,,1802.3401,73,2,1803.3409,1803.341,1803.3423,,,,0,36,36,36,1,90,15,,,,,,,,
,,578e215abaec1b0001697778,65af555c304b05200d920850,2024-01-23_06h58.01.027,bars,2023.2.3,Win32,59.88023952,657b66ea316d21385b68909f,,,,,,,,,,,1803.3428,1804.3416,,,1804.8423,1805.0924,,71,71,,,,,,,,,,,,,,,,bars/026.png,bars/mask000.png,,,,,,,,,,,,4,2,,,,,,,4,8,4,7,,,,,,,,,,,1804.3417,1804.8423,1805.0925,1807.5284,space,2.4202,,1807.5285,36,14,1808.5293,1808.5294,1808.553,,,,0,37,37,37,1,35,85,,,,,,,,
,,578e215abaec1b0001697778,65af555c304b05200d920850,2024-01-23_06h58.01.027,bars,2023.2.3,Win32,59.88023952,657b66ea316d21385b68909f,,,,,,,,,,,1808.5532,1809.5462,,,1810.0474,1810.2978,,170,170,,,,,,,,,,,,,,,,bars/033.png,bars/mask006.png,,,,,,,,,,,,5,2,,,,,,,6,10,7,10,,,,,,,,,,,1809.5462,1810.0473,1810.2979,1812.5494,space,2.2437,,1812.5495,35,15,1813.5503,1813.5504,1813.5592,,,,0,38,38,38,1,25,155,,,,,,,,
,,578e215abaec1b0001697778,65af555c304b05200d920850,2024-01-23_06h58.01.027,bars,2023.2.3,Win32,59.88023952,657b66ea316d21385b68909f,,,,,,,,,,,1813.5594,1814.5517,,,1815.0525,1815.3025,,160,-20,,,,,,,,,,,,,,,,bars/015.png,bars/mask005.png,,,,,,,,,,,,8,2,,,,,,,8,8,8,8,,,,,,,,,,,1814.5519,1815.0525,1815.3025,1818.8731,space,3.5612,,1818.8732,50,0,1819.8738,1819.8738,1819.8984,,,,0,39,39,39,1,110,160,,,,,,,,
,,578e215abaec1b0001697778,65af555c304b05200d920850,2024-01-23_06h58.01.027,bars,2023.2.3,Win32,59.88023952,657b66ea316d21385b68909f,,,,,,,,,,,1819.8986,1820.8917,,,1821.3917,1821.6421,,143,143,,,,,,,,,,,,,,,,bars/023.png,bars/mask006.png,,,,,,,,,,,,0,2,,,,,,,10,6,10,5,,,,,,,,,,,1820.8917,1821.3917,1821.6422,1826.7533,space,5.1043,,1826.7534,57,28,1827.7483,1827.7483,1827.7729,,,,0,40,40,40,1,20,115,,,,,,,,
,,578e215abaec1b0001697778,65af555c304b05200d920850,2024-01-23_06h58.01.027,bars,2023.2.3,Win32,59.88023952,657b66ea316d21385b68909f,,,,,,,,,,,1827.7732,1828.7654,,,1829.2664,1829.5169,,148,148,,,,,,,,,,,,,,,,bars/005.png,bars/mask003.png,,,,,,,,,,,,5,2,,,,,,,8,8,7,7,,,,,,,,,,,1828.7654,1829.2663,1829.517,1831.6858,space,2.1544,,1831.6859,42,8,1832.6865,1832.6865,1832.7102,,,,0,41,41,41,1,10,140,,,,,,,,
,,578e215abaec1b0001697778,65af555c304b05200d920850,2024-01-23_06h58.01.027,bars,2023.2.3,Win32,59.88023952,657b66ea316d21385b68909f,,,,,,,,,,,1832.7103,1833.7044,,,1834.2048,1834.4549,,162,-18,,,,,,,,,,,,,,,,bars/016.png,bars/mask002.png,,,,,,,,,,,,9,2,,,,,,,10,10,10,10,,,,,,,,,,,1833.7045,1834.2048,1834.4549,1837.5242,space,3.0571,,1837.5242,58,3,1838.5259,1838.526,1838.5497,,,,0,42,42,42,1,40,165,,,,,,,,
,,578e215abaec1b0001697778,65af555c304b05200d920850,2024-01-23_06h58.01.027,bars,2023.2.3,Win32,59.88023952,657b66ea316d21385b68909f,,,,,,,,,,,1838.55,1839.5494,,,1840.0439,1840.2942,,1,181,,,,,,,,,,,,,,,,bars/008.png,bars/mask005.png,,,,,,,,,,,,10,2,,,,,,,10,10,9,10,,,,,,,,,,,1839.5494,1840.0439,1840.2942,1843.3306,space,3.0249,,1843.3306,71,1,1844.3316,1844.3316,1844.3556,,,,0,43,43,43,1,110,0,,,,,,,,
,,578e215abaec1b0001697778,65af555c304b05200d920850,2024-01-23_06h58.01.027,bars,2023.2.3,Win32,59.88023952,657b66ea316d21385b68909f,,,,,,,,,,,1844.3558,1845.3491,,,1845.8497,1846.1017,,63,243,,,,,,,,,,,,,,,,bars/035.png,bars/mask000.png,,,,,,,,,,,,9,2,,,,,,,10,10,10,10,,,,,,,,,,,1845.3492,1845.8496,1846.1017,1850.0374,space,3.9124,,1850.0374,68,3,1851.0383,1851.0383,1851.0628,,,,0,44,44,44,1,175,60,,,,,,,,
,,578e215abaec1b0001697778,65af555c304b05200d920850,2024-01-23_06h58.01.027,bars,2023.2.3,Win32,59.88023952,657b66ea316d21385b68909f,,,,,,,,,,,1851.063,1852.0559,,,1852.5564,1852.8065,,168,-12,,,,,,,,,,,,,,,,bars/048.png,bars/mask006.png,,,,,,,,,,,,5,2,,,,,,,10,8,10,6,,,,,,,,,,,1852.0559,1852.5564,1852.8065,1856.6935,space,3.8787,,1856.6936,62,7,1857.6949,1857.6949,1857.7183,,,,0,45,45,45,1,50,175,,,,,,,,
,,578e215abaec1b0001697778,65af555c304b05200d920850,2024-01-23_06h58.01.027,bars,2023.2.3,Win32,59.88023952,657b66ea316d21385b68909f,,,,,,,,,,,1857.7185,1858.7124,,,1859.2128,1859.4627,,152,152,,,,,,,,,,,,,,,,bars/000.png,bars/mask001.png,,,,,,,,,,,,5,2,,,,,,,8,6,6,6,,,,,,,,,,,1858.7124,1859.2128,1859.4628,1862.9003,space,3.4252,,1862.9003,68,7,1863.901,1863.9011,1863.9239,,,,0,46,46,46,1,40,145,,,,,,,,
,,578e215abaec1b0001697778,65af555c304b05200d920850,2024-01-23_06h58.01.027,bars,2023.2.3,Win32,59.88023952,657b66ea316d21385b68909f,,,,,,,,,,,1863.9241,1864.9187,,,1865.4191,1865.6695,,149,149,,,,,,,,,,,,,,,,bars/005.png,bars/mask002.png,,,,,,,,,,,,3,2,,,,,,,10,4,10,4,,,,,,,,,,,1864.9188,1865.4191,1865.6696,1869.2399,space,3.5616,,1869.24,41,9,1870.2406,1870.2407,1870.2686,,,,0,47,47,47,1,10,140,,,,,,,,
,,578e215abaec1b0001697778,65af555c304b05200d920850,2024-01-23_06h58.01.027,bars,2023.2.3,Win32,59.88023952,657b66ea316d21385b68909f,,,,,,,,,,,1870.269,1871.2584,,,1871.7589,1872.0092,,146,146,,,,,,,,,,,,,,,,bars/003.png,bars/mask006.png,,,,,,,,,,,,2,2,,,,,,,8,2,7,2,,,,,,,,,,,1871.2585,1871.7588,1872.0092,1873.6107,space,1.5902,,1873.6108,59,6,1874.6118,1874.6119,1874.6132,,,,0,48,48,48,1,25,140,,,,,,,,
,,578e215abaec1b0001697778,65af555c304b05200d920850,2024-01-23_06h58.01.027,bars,2023.2.3,Win32,59.88023952,657b66ea316d21385b68909f,,,,,,,,,,,1874.6137,1875.6126,,,1876.1129,1876.3633,,163,-17,,,,,,,,,,,,,,,,bars/024.png,bars/mask002.png,,,,,,,,,,,,0,2,,,,,,,10,0,10,0,,,,,,,,,,,1875.6126,1876.1129,1876.3633,1878.9164,space,2.5373,,1878.9165,43,7,1879.9168,1879.9169,1879.9398,,,,0,49,49,49,1,120,170,,,,,,,,
,,578e215abaec1b0001697778,65af555c304b05200d920850,2024-01-23_06h58.01.027,bars,2023.2.3,Win32,59.88023952,657b66ea316d21385b68909f,,,,,,,,,,,,,,,,,,,,,,,,,,,,,,,,,,,,,,,,,,,,,,,,,,,,,,,,,,,,,,,,,,,,,,,,,,,,,,,,,,,,,,,,,,,,,1879.94,1939.9435,0,3,3,4,1,sequence_tables/blk002.csv
,,578e215abaec1b0001697778,65af555c304b05200d920850,2024-01-23_06h58.01.027,bars,2023.2.3,Win32,59.88023952,657b66ea316d21385b68909f,,,,,,,,,,,1941.9228,1942.9131,,,1943.4138,1943.6633,,69,69,,,,,,,,,,,,,,,,bars/034.png,bars/mask002.png,,,,,,,,,,,,3,2,,,,,,,7,2,8,3,,,,,,1939.9691,1941.9121,space,1.9288,,1942.9131,1943.4136,1943.6634,1946.15,space,2.4587,,1946.1502,56,4,1947.1508,1947.1508,1947.1742,,,,0,0,0,0,1,125,65,,,,,,,,
,,578e215abaec1b0001697778,65af555c304b05200d920850,2024-01-23_06h58.01.027,bars,2023.2.3,Win32,59.88023952,657b66ea316d21385b68909f,,,,,,,,,,,1947.1744,1948.1683,,,1948.669,1948.9192,,159,-21,,,,,,,,,,,,,,,,bars/033.png,bars/mask008.png,,,,,,,,,,,,4,2,,,,,,,9,4,8,5,,,,,,,,,,,1948.1684,1948.6689,1948.9192,1951.9721,space,3.0422,,1951.9721,46,4,1952.9731,1952.9731,1952.9989,,,,0,1,1,1,1,25,155,,,,,,,,
,,578e215abaec1b0001697778,65af555c304b05200d920850,2024-01-23_06h58.01.027,bars,2023.2.3,Win32,59.88023952,657b66ea316d21385b68909f,,,,,,,,,,,1952.9993,1953.991,,,1954.4914,1954.7415,,24,24,,,,,,,,,,,,,,,,bars/032.png,bars/mask009.png,,,,,,,,,,,,5,2,,,,,,,7,6,6,6,,,,,,,,,,,1953.991,1954.4912,1954.7415,1957.6281,space,2.8722,,1957.6281,79,4,1958.6286,1958.6286,1958.652,,,,0,2,2,2,1,125,20,,,,,,,,
,,578e215abaec1b0001697778,65af555c304b05200d920850,2024-01-23_06h58.01.027,bars,2023.2.3,Win32,59.88023952,657b66ea316d21385b68909f,,,,,,,,,,,1958.6524,1959.6464,,,1960.1466,1960.3972,,60,60,,,,,,,,,,,,,,,,bars/030.png,bars/mask004.png,,,,,,,,,,,,8,2,,,,,,,5,8,6,9,,,,,,,,,,,1959.6464,1960.1466,1960.3973,1962.6165,space,2.2094,,1962.6165,80,5,1963.617,1963.6171,1963.6184,,,,0,3,3,3,1,140,65,,,,,,,,
,,578e215abaec1b0001697778,65af555c304b05200d920850,2024-01-23_06h58.01.027,bars,2023.2.3,Win32,59.88023952,657b66ea316d21385b68909f,,,,,,,,,,,1963.6189,1964.6179,,,1965.1186,1965.3687,,9,9,,,,,,,,,,,,,,,,bars/012.png,bars/mask003.png,,,,,,,,,,,,5,2,,,,,,,3,6,2,6,,,,,,,,,,,1964.618,1965.1186,1965.3688,1968.3718,space,2.9871,,1968.3719,81,6,1969.3728,1969.3729,1969.3981,,,,0,4,4,4,1,90,15,,,,,,,,
,,578e215abaec1b0001697778,65af555c304b05200d920850,2024-01-23_06h58.01.027,bars,2023.2.3,Win32,59.88023952,657b66ea316d21385b68909f,,,,,,,,,,,1969.3984,1970.3904,,,1970.8911,1971.1412,,155,-25,,,,,,,,,,,,,,,,bars/015.png,bars/mask007.png,,,,,,,,,,,,4,2,,,,,,,5,4,4,5,,,,,,,,,,,1970.3904,1970.8911,1971.1414,1975.4469,space,4.2886,,1975.447,45,5,1976.4463,1976.4464,1976.4579,,,,0,5,5,5,1,110,160,,,,,,,,
,,578e215abaec1b0001697778,65af555c304b05200d920850,2024-01-23_06h58.01.027,bars,2023.2.3,Win32,59.88023952,657b66ea316d21385b68909f,,,,,,,,,,,1976.4581,1977.4474,,,1977.948,1978.1986,,17,17,,,,,,,,,,,,,,,,bars/012.png,bars/mask003.png,,,,,,,,,,,,3,2,,,,,,,3,2,3,3,,,,,,,,,,,1977.4474,1977.9479,1978.1987,1983.2532,space,5.0397,,1983.2532,73,2,1984.2542,1984.2544,1984.2665,,,,0,6,6,6,1,90,15,,,,,,,,
,,578e215abaec1b0001697778,65af555c304b05200d920850,2024-01-23_06h58.01.027,bars,2023.2.3,Win32,59.88023952,657b66ea316d21385b68909f,,,,,,,,,,,1984.2667,1985.2554,,,1985.7551,1986.006,,15,195,,,,,,,,,,,,,,,,bars/014.png,bars/mask006.png,,,,,,,,,,,,2,2,,,,,,,1,4,2,3,,,,,,,,,,,1985.2554,1985.755,1986.006,1988.7422,space,2.7206,,1988.7423,65,15,1989.7431,1989.7431,1989.7547,,,,0,7,7,7,1,80,0,,,,,,,,
,,578e215abaec1b0001697778,65af555c304b05200d920850,2024-01-23_06h58.01.027,bars,2023.2.3,Win32,59.88023952,657b66ea316d21385b68909f,,,,,,,,,,,1989.7549,1990.7441,,,1991.2447,1991.4948,,47,47,,,,,,,,,,,,,,,,bars/035.png,bars/mask000.png,,,,,,,,,,,,2,2,,,,,,,0,2,0,3,,,,,,,,,,,1990.7441,1991.2446,1991.4948,1993.6307,space,2.1201,,1993.6309,52,13,1994.6318,1994.6318,1994.6566,,,,0,8,8,8,1,175,60,,,,,,,,
,,578e215abaec1b0001697778,65af555c304b05200d920850,2024-01-23_06h58.01.027,bars,2023.2.3,Win32,59.88023952,657b66ea316d21385b68909f,,,,,,,,,,,1994.6569,1995.6488,,,1996.1496,1996.3997,,82,82,,,,,,,,,,,,,,,,bars/021.png,bars/mask000.png,,,,,,,,,,,,3,2,,,,,,,0,4,0,5,,,,,,,,,,,1995.6489,1996.1495,1996.3997,1999.1187,space,2.7086,,1999.1187,73,12,2000.1201,2000.1203,2000.1321,,,,0,9,9,9,1,155,70,,,,,,,,
,,578e215abaec1b0001697778,65af555c304b05200d920850,2024-01-23_06h58.01.027,bars,2023.2.3,Win32,59.88023952,657b66ea316d21385b68909f,,,,,,,,,,,2000.1322,2001.121,,,2001.6219,2001.8713,,96,96,,,,,,,,,,,,,,,,bars/001.png,bars/mask001.png,,,,,,,,,,,,4,2,,,,,,,0,6,0,6,,,,,,,,,,,2001.121,2001.6218,2001.8714,2003.8237,space,1.9434,,2003.8238,34,11,2004.8241,2004.8242,2004.8402,,,,0,10,10,10,1,130,85,,,,,,,,
,,578e215abaec1b0001697778,65af555c304b05200d920850,2024-01-23_06h58.01.027,bars,2023.2.3,Win32,59.88023952,657b66ea316d21385b68909f,,,,,,,,,,,2004.8405,2005.8422,,,2006.3431,2006.5934,,96,96,,,,,,,,,,,,,,,,bars/018.png,bars/mask006.png,,,,,,,,,,,,6,2,,,,,,,2,8,2,8,,,,,,,,,,,2005.8423,2006.343,2006.5934,2008.6619,space,2.0614,,2008.662,54,6,2009.6628,2009.6628,2009.6642,,,,0,11,11,11,1,150,90,,,,,,,,
