init_variables.started,init_variables.stopped,participant,session,date,expName,psychopyVersion,OS,frameRate,study_id,instruction_exp.started,instruction_exp.stopped,key_resp_8.keys,key_resp_8.rt,key_resp_8.duration,instruction_single.started,instruction_single.stopped,key_resp_2.keys,key_resp_2.rt,key_resp_2.duration,interval.started,interval.stopped,cue_single.started,cue_single.stopped,mask.started,mask.stopped,ori_response_single.started,res_ori,res,ori_response_single.stopped,key_resp_single.keys,key_resp_single.rt,key_resp_single.duration,disp_single.started,disp_single.stopped,key_resp.keys,key_resp.rt,key_resp.duration,single.thisRepN,single.thisTrialN,single.thisN,single.thisIndex,single.ran,ori,path,mask_path,instruction_bandit.started,instruction_bandit.stopped,key_resp_6.keys,key_resp_6.rt,key_resp_6.duration,cue_bandit.started,cue_bandit.stopped,bandit_res.keys,bandit_res.rt,bandit_res.duration,outcome_bandit.started,rew,action,outcome_bandit.stopped,bandit.thisRepN,bandit.thisTrialN,bandit.thisN,bandit.thisIndex,bandit.ran,actual_rew1,actual_rew2,rew1,rew2,instruction_task.started,instruction_task.stopped,key_resp_7.keys,key_resp_7.rt,key_resp_7.duration,wait_ready.started,wait_ready.stopped,key_resp_3.keys,key_resp_3.rt,key_resp_3.duration,cue.started,cue.stopped,ori_response.started,ori_response.stopped,key_resp_5.keys,key_resp_5.rt,key_resp_5.duration,outcome.started,diff1,diff2,outcome.stopped,disp_outcome_practice.started,disp_outcome_practice.stopped,key_resp_4.keys,key_resp_4.rt,key_resp_4.duration,trials.thisRepN,trials.thisTrialN,trials.thisN,trials.thisIndex,trials.ran,ori1,ori2,break_blk.started,break_blk.stopped,block.thisRepN,block.thisTrialN,block.thisN,block.thisIndex,block.ran,condition_file
0,0,5f627ac87d0e5f2efb944c9e,65af55cc1410b53e6cb37416,2024-01-23_24h01.41.466,bars,2023.2.3,Win32,58.82352941,657b66ea316d21385b68909f,,,,,,,,,,,,,,,,,,,,,,,,,,,,,,,,,,,,,,,,,,,,,,,,,,,,,,,,,,,,,,,,,,,,,,,,,,,,,,,,,,,,,,,,,,,,,,,,,,,,
,,5f627ac87d0e5f2efb944c9e,65af55cc1410b53e6cb37416,2024-01-23_24h01.41.466,bars,2023.2.3,Win32,58.82352941,657b66ea316d21385b68909f,0,9.464,y,9.455,,,,,,,,,,,,,,,,,,,,,,,,,,,,,,,,,,,,,,,,,,,,,,,,,,,,,,,,,,,,,,,,,,,,,,,,,,,,,,,,,,,,,,,,,,,,,,,,
,,5f627ac87d0e5f2efb944c9e,65af55cc1410b53e6cb37416,2024-01-23_24h01.41.466,bars,2023.2.3,Win32,58.82352941,657b66ea316d21385b68909f,,,,,,9.464,16.317,space,6.834,,,,,,,,,,,,,,,,,,,,,,,,,,,,,,,,,,,,,,,,,,,,,,,,,,,,,,,,,,,,,,,,,,,,,,,,,,,,,,,,,,,,,,,,,,,
,,5f627ac87d0e5f2efb944c9e,65af55cc1410b53e6cb37416,2024-01-23_24h01.41.466,bars,2023.2.3,Win32,58.82352941,657b66ea316d21385b68909f,,,,,,,,,,,16.322,17.314,17.315,17.814,17.815,18.066,18.066,85,85,24.55,space,6.454,,24.551,28.049,space,3.468,,0,0,0,9,1,20,bars/single009.png,bars/mask006.png,,,,,,,,,,,,,,,,,,,,,,,,,,,,,,,,,,,,,,,,,,,,,,,,,,,,,,,,,,,,,,,,
,,5f627ac87d0e5f2efb944c9e,65af55cc1410b53e6cb37416,2024-01-23_24h01.41.466,bars,2023.2.3,Win32,58.82352941,657b66ea316d21385b68909f,,,,,,,,,,,28.064,29.064,29.064,29.564,29.564,29.814,29.814,157,157,37.466,space,7.635,,37.466,41.444,space,3.939,,0,1,1,4,1,95,bars/single004.png,bars/mask004.png,,,,,,,,,,,,,,,,,,,,,,,,,,,,,,,,,,,,,,,,,,,,,,,,,,,,,,,,,,,,,,,,
,,5f627ac87d0e5f2efb944c9e,65af55cc1410b53e6cb37416,2024-01-23_24h01.41.466,bars,2023.2.3,Win32,58.82352941,657b66ea316d21385b68909f,,,,,,,,,,,41.464,42.46,42.461,42.96,42.96,43.21,43.21,29,29,49.993,space,6.77,,49.994,54.894,space,4.864,,0,2,2,8,1,160,bars/single008.png,bars/mask004.png,,,,,,,,,,,,,,,,,,,,,,,,,,,,,,,,,,,,,,,,,,,,,,,,,,,,,,,,,,,,,,,,
,,5f627ac87d0e5f2efb944c9e,65af55cc1410b53e6cb37416,2024-01-23_24h01.41.466,bars,2023.2.3,Win32,58.82352941,657b66ea316d21385b68909f,,,,,,,,,,,54.919,55.911,55.911,56.412,56.412,56.662,56.662,154,154,64.283,space,7.615,,64.283,67.114,space,2.801,,0,3,3,5,1,55,bars/single005.png,bars/mask008.png,,,,,,,,,,,,,,,,,,,,,,,,,,,,,,,,,,,,,,,,,,,,,,,,,,,,,,,,,,,,,,,,
,,5f627ac87d0e5f2efb944c9e,65af55cc1410b53e6cb37416,2024-01-23_24h01.41.466,bars,2023.2.3,Win32,58.82352941,657b66ea316d21385b68909f,,,,,,,,,,,67.146,68.131,68.131,68.63,68.63,68.88,68.88,135,-45,78.731,space,9.835,,78.731,82.581,space,3.815,,0,4,4,6,1,175,bars/single006.png,bars/mask005.png,,,,,,,,,,,,,,,,,,,,,,,,,,,,,,,,,,,,,,,,,,,,,,,,,,,,,,,,,,,,,,,,
,,5f627ac87d0e5f2efb944c9e,65af55cc1410b53e6cb37416,2024-01-23_24h01.41.466,bars,2023.2.3,Win32,58.82352941,657b66ea316d21385b68909f,,,,,,,,,,,82.582,83.579,83.579,84.078,84.078,84.329,84.329,83,83,95.631,space,11.285,,95.632,99.425,space,3.757,,0,5,5,2,1,145,bars/single002.png,bars/mask003.png,,,,,,,,,,,,,,,,,,,,,,,,,,,,,,,,,,,,,,,,,,,,,,,,,,,,,,,,,,,,,,,,
,,5f627ac87d0e5f2efb944c9e,65af55cc1410b53e6cb37416,2024-01-23_24h01.41.466,bars,2023.2.3,Win32,58.82352941,657b66ea316d21385b68909f,,,,,,,,,,,99.426,100.424,100.424,100.924,100.924,101.174,101.174,49,49,109.707,space,8.524,,109.708,113.696,space,3.957,,0,6,6,0,1,150,bars/single000.png,bars/mask006.png,,,,,,,,,,,,,,,,,,,,,,,,,,,,,,,,,,,,,,,,,,,,,,,,,,,,,,,,,,,,,,,,
,,5f627ac87d0e5f2efb944c9e,65af55cc1410b53e6cb37416,2024-01-23_24h01.41.466,bars,2023.2.3,Win32,58.82352941,657b66ea316d21385b68909f,,,,,,,,,,,113.697,114.694,114.694,115.19,115.19,115.444,115.444,46,226,121.045,space,5.585,,121.045,125.656,space,4.571,,0,7,7,7,1,45,bars/single007.png,bars/mask009.png,,,,,,,,,,,,,,,,,,,,,,,,,,,,,,,,,,,,,,,,,,,,,,,,,,,,,,,,,,,,,,,,
,,5f627ac87d0e5f2efb944c9e,65af55cc1410b53e6cb37416,2024-01-23_24h01.41.466,bars,2023.2.3,Win32,58.82352941,657b66ea316d21385b68909f,,,,,,,,,,,125.682,126.676,126.676,127.16,127.161,127.406,127.406,10,10,131.395,space,3.969,,131.395,133.155,space,1.717,,0,8,8,3,1,20,bars/single003.png,bars/mask005.png,,,,,,,,,,,,,,,,,,,,,,,,,,,,,,,,,,,,,,,,,,,,,,,,,,,,,,,,,,,,,,,,
,,5f627ac87d0e5f2efb944c9e,65af55cc1410b53e6cb37416,2024-01-23_24h01.41.466,bars,2023.2.3,Win32,58.82352941,657b66ea316d21385b68909f,,,,,,,,,,,133.157,134.155,134.155,134.655,134.655,134.905,134.905,1,181,140.44,space,5.519,,140.44,141.573,space,1.089,,0,9,9,1,1,20,bars/single001.png,bars/mask006.png,,,,,,,,,,,,,,,,,,,,,,,,,,,,,,,,,,,,,,,,,,,,,,,,,,,,,,,,,,,,,,,,
,,5f627ac87d0e5f2efb944c9e,65af55cc1410b53e6cb37416,2024-01-23_24h01.41.466,bars,2023.2.3,Win32,58.82352941,657b66ea316d21385b68909f,,,,,,,,,,,,,,,,,,,,,,,,,,,,,,,,,,,,,141.576,150.007,space,8.401,,,,,,,,,,,,,,,,,,,,,,,,,,,,,,,,,,,,,,,,,,,,,,,,,,,,,,,,,,,,
,,5f627ac87d0e5f2efb944c9e,65af55cc1410b53e6cb37416,2024-01-23_24h01.41.466,bars,2023.2.3,Win32,58.82352941,657b66ea316d21385b68909f,,,,,,,,,,,,,,,,,,,,,,,,,,,,,,,,,,,,,,,,,,150.03,153.206,left,3.154,,153.207,9,1,154.206,0,0,0,0,1,9,1,9,2,,,,,,,,,,,,,,,,,,,,,,,,,,,,,,,,,,,,,,,,,
,,5f627ac87d0e5f2efb944c9e,65af55cc1410b53e6cb37416,2024-01-23_24h01.41.466,bars,2023.2.3,Win32,58.82352941,657b66ea316d21385b68909f,,,,,,,,,,,,,,,,,,,,,,,,,,,,,,,,,,,,,,,,,,154.207,155.704,left,1.49,,155.704,10,1,156.705,0,1,1,1,1,10,0,10,1,,,,,,,,,,,,,,,,,,,,,,,,,,,,,,,,,,,,,,,,,
,,5f627ac87d0e5f2efb944c9e,65af55cc1410b53e6cb37416,2024-01-23_24h01.41.466,bars,2023.2.3,Win32,58.82352941,657b66ea316d21385b68909f,,,,,,,,,,,,,,,,,,,,,,,,,,,,,,,,,,,,,,,,,,156.706,159.955,left,3.238,,159.956,10,1,160.954,0,2,2,2,1,10,2,10,2,,,,,,,,,,,,,,,,,,,,,,,,,,,,,,,,,,,,,,,,,
,,5f627ac87d0e5f2efb944c9e,65af55cc1410b53e6cb37416,2024-01-23_24h01.41.466,bars,2023.2.3,Win32,58.82352941,657b66ea316d21385b68909f,,,,,,,,,,,,,,,,,,,,,,,,,,,,,,,,,,,,,,,,,,160.983,161.422,right,0.429,,161.422,3,2,162.421,0,3,3,3,1,8,4,7,3,,,,,,,,,,,,,,,,,,,,,,,,,,,,,,,,,,,,,,,,,
,,5f627ac87d0e5f2efb944c9e,65af55cc1410b53e6cb37416,2024-01-23_24h01.41.466,bars,2023.2.3,Win32,58.82352941,657b66ea316d21385b68909f,,,,,,,,,,,,,,,,,,,,,,,,,,,,,,,,,,,,,,,,,,162.423,163.454,left,1.019,,163.454,5,1,164.454,0,4,4,4,1,6,2,5,1,,,,,,,,,,,,,,,,,,,,,,,,,,,,,,,,,,,,,,,,,
,,5f627ac87d0e5f2efb944c9e,65af55cc1410b53e6cb37416,2024-01-23_24h01.41.466,bars,2023.2.3,Win32,58.82352941,657b66ea316d21385b68909f,,,,,,,,,,,,,,,,,,,,,,,,,,,,,,,,,,,,,,,,,,164.455,166.971,right,2.504,,166.972,4,2,167.97,0,5,5,5,1,4,4,4,4,,,,,,,,,,,,,,,,,,,,,,,,,,,,,,,,,,,,,,,,,
,,5f627ac87d0e5f2efb944c9e,65af55cc1410b53e6cb37416,2024-01-23_24h01.41.466,bars,2023.2.3,Win32,58.82352941,657b66ea316d21385b68909f,,,,,,,,,,,,,,,,,,,,,,,,,,,,,,,,,,,,,,,,,,167.971,170.022,left,2.036,,170.022,1,1,171.022,0,6,6,6,1,2,2,1,2,,,,,,,,,,,,,,,,,,,,,,,,,,,,,,,,,,,,,,,,,
,,5f627ac87d0e5f2efb944c9e,65af55cc1410b53e6cb37416,2024-01-23_24h01.41.466,bars,2023.2.3,Win32,58.82352941,657b66ea316d21385b68909f,,,,,,,,,,,,,,,,,,,,,,,,,,,,,,,,,,,,,,,,,,171.044,172.572,right,1.513,,172.572,1,2,173.572,0,7,7,7,1,0,0,0,1,,,,,,,,,,,,,,,,,,,,,,,,,,,,,,,,,,,,,,,,,
,,5f627ac87d0e5f2efb944c9e,65af55cc1410b53e6cb37416,2024-01-23_24h01.41.466,bars,2023.2.3,Win32,58.82352941,657b66ea316d21385b68909f,,,,,,,,,,,,,,,,,,,,,,,,,,,,,,,,,,,,,,,,,,173.573,174.223,left,0.639,,174.223,1,1,175.222,0,8,8,8,1,0,2,1,0,,,,,,,,,,,,,,,,,,,,,,,,,,,,,,,,,,,,,,,,,
,,5f627ac87d0e5f2efb944c9e,65af55cc1410b53e6cb37416,2024-01-23_24h01.41.466,bars,2023.2.3,Win32,58.82352941,657b66ea316d21385b68909f,,,,,,,,,,,,,,,,,,,,,,,,,,,,,,,,,,,,,,,,,,175.223,175.705,left,0.466,,175.705,2,1,176.705,0,9,9,9,1,2,4,2,3,,,,,,,,,,,,,,,,,,,,,,,,,,,,,,,,,,,,,,,,,
,,5f627ac87d0e5f2efb944c9e,65af55cc1410b53e6cb37416,2024-01-23_24h01.41.466,bars,2023.2.3,Win32,58.82352941,657b66ea316d21385b68909f,,,,,,,,,,,,,,,,,,,,,,,,,,,,,,,,,,,,,,,,,,176.705,176.987,right,0.272,,176.988,3,2,177.988,0,10,10,10,1,0,2,0,3,,,,,,,,,,,,,,,,,,,,,,,,,,,,,,,,,,,,,,,,,
,,5f627ac87d0e5f2efb944c9e,65af55cc1410b53e6cb37416,2024-01-23_24h01.41.466,bars,2023.2.3,Win32,58.82352941,657b66ea316d21385b68909f,,,,,,,,,,,,,,,,,,,,,,,,,,,,,,,,,,,,,,,,,,177.989,178.422,left,0.416,,178.422,0,1,179.422,0,11,11,11,1,0,4,0,3,,,,,,,,,,,,,,,,,,,,,,,,,,,,,,,,,,,,,,,,,
,,5f627ac87d0e5f2efb944c9e,65af55cc1410b53e6cb37416,2024-01-23_24h01.41.466,bars,2023.2.3,Win32,58.82352941,657b66ea316d21385b68909f,,,,,,,,,,,,,,,,,,,,,,,,,,,,,,,,,,,,,,,,,,179.424,179.938,right,0.5,,179.938,6,2,180.937,0,12,12,12,1,2,6,1,6,,,,,,,,,,,,,,,,,,,,,,,,,,,,,,,,,,,,,,,,,
,,5f627ac87d0e5f2efb944c9e,65af55cc1410b53e6cb37416,2024-01-23_24h01.41.466,bars,2023.2.3,Win32,58.82352941,657b66ea316d21385b68909f,,,,,,,,,,,,,,,,,,,,,,,,,,,,,,,,,,,,,,,,,,180.939,181.355,right,0.407,,181.355,3,2,182.354,0,13,13,13,1,0,4,1,3,,,,,,,,,,,,,,,,,,,,,,,,,,,,,,,,,,,,,,,,,
,,5f627ac87d0e5f2efb944c9e,65af55cc1410b53e6cb37416,2024-01-23_24h01.41.466,bars,2023.2.3,Win32,58.82352941,657b66ea316d21385b68909f,,,,,,,,,,,,,,,,,,,,,,,,,,,,,,,,,,,,,,,,,,182.355,183.854,right,1.484,,183.854,7,2,184.854,0,14,14,14,1,2,6,2,7,,,,,,,,,,,,,,,,,,,,,,,,,,,,,,,,,,,,,,,,,
,,5f627ac87d0e5f2efb944c9e,65af55cc1410b53e6cb37416,2024-01-23_24h01.41.466,bars,2023.2.3,Win32,58.82352941,657b66ea316d21385b68909f,,,,,,,,,,,,,,,,,,,,,,,,,,,,,,,,,,,,,,,,,,184.855,184.904,left,0.035,,184.904,3,1,185.903,0,15,15,15,1,4,8,3,9,,,,,,,,,,,,,,,,,,,,,,,,,,,,,,,,,,,,,,,,,
,,5f627ac87d0e5f2efb944c9e,65af55cc1410b53e6cb37416,2024-01-23_24h01.41.466,bars,2023.2.3,Win32,58.82352941,657b66ea316d21385b68909f,,,,,,,,,,,,,,,,,,,,,,,,,,,,,,,,,,,,,,,,,,185.904,186.938,right,1.02,,186.938,7,2,187.938,0,16,16,16,1,6,6,7,7,,,,,,,,,,,,,,,,,,,,,,,,,,,,,,,,,,,,,,,,,
,,5f627ac87d0e5f2efb944c9e,65af55cc1410b53e6cb37416,2024-01-23_24h01.41.466,bars,2023.2.3,Win32,58.82352941,657b66ea316d21385b68909f,,,,,,,,,,,,,,,,,,,,,,,,,,,,,,,,,,,,,,,,,,187.938,188.321,left,0.368,,188.321,9,1,189.321,0,17,17,17,1,8,4,9,5,,,,,,,,,,,,,,,,,,,,,,,,,,,,,,,,,,,,,,,,,
,,5f627ac87d0e5f2efb944c9e,65af55cc1410b53e6cb37416,2024-01-23_24h01.41.466,bars,2023.2.3,Win32,58.82352941,657b66ea316d21385b68909f,,,,,,,,,,,,,,,,,,,,,,,,,,,,,,,,,,,,,,,,,,189.321,189.638,left,0.301,,189.638,5,1,190.637,0,18,18,18,1,6,2,5,1,,,,,,,,,,,,,,,,,,,,,,,,,,,,,,,,,,,,,,,,,
,,5f627ac87d0e5f2efb944c9e,65af55cc1410b53e6cb37416,2024-01-23_24h01.41.466,bars,2023.2.3,Win32,58.82352941,657b66ea316d21385b68909f,,,,,,,,,,,,,,,,,,,,,,,,,,,,,,,,,,,,,,,,,,190.638,190.973,right,0.328,,190.973,0,2,191.971,0,19,19,19,1,8,0,7,0,,,,,,,,,,,,,,,,,,,,,,,,,,,,,,,,,,,,,,,,,
,,5f627ac87d0e5f2efb944c9e,65af55cc1410b53e6cb37416,2024-01-23_24h01.41.466,bars,2023.2.3,Win32,58.82352941,657b66ea316d21385b68909f,,,,,,,,,,,,,,,,,,,,,,,,,,,,,,,,,,,,,,,,,,,,,,,,,,,,,,,,,,,,191.972,198.771,space,6.776,,,,,,,,,,,,,,,,,,,,,,,,,,,,,,,,,,,,,
,,5f627ac87d0e5f2efb944c9e,65af55cc1410b53e6cb37416,2024-01-23_24h01.41.466,bars,2023.2.3,Win32,58.82352941,657b66ea316d21385b68909f,,,,,,,,,,,201.166,202.17,,,202.671,202.92,,144,-36,,,,,,,,,,,,,,,,bars/012.png,bars/mask001.png,,,,,,,,,,,,0,2,,,,,,,5,8,5,7,,,,,,198.792,201.154,space,2.344,,202.171,202.671,202.92,208.005,space,5.061,,208.006,54,51,209.003,209.003,216.871,space,7.836,,0,0,0,0,1,90,15,,,,,,,,
,,5f627ac87d0e5f2efb944c9e,65af55cc1410b53e6cb37416,2024-01-23_24h01.41.466,bars,2023.2.3,Win32,58.82352941,657b66ea316d21385b68909f,,,,,,,,,,,216.897,217.873,,,218.373,218.623,,101,101,,,,,,,,,,,,,,,,bars/034.png,bars/mask001.png,,,,,,,,,,,,1,1,,,,,,,3,6,4,8,,,,,,,,,,,217.873,218.372,218.623,223.621,space,4.98,,223.621,24,36,224.622,224.622,227.919,space,3.239,,0,1,1,1,1,125,65,,,,,,,,
,,5f627ac87d0e5f2efb944c9e,65af55cc1410b53e6cb37416,2024-01-23_24h01.41.466,bars,2023.2.3,Win32,58.82352941,657b66ea316d21385b68909f,,,,,,,,,,,227.92,228.918,,,229.418,229.668,,24,24,,,,,,,,,,,,,,,,bars/013.png,bars/mask002.png,,,,,,,,,,,,5,2,,,,,,,5,8,5,9,,,,,,,,,,,228.918,229.418,229.668,232.535,space,2.858,,232.535,51,14,233.534,233.534,236.835,space,3.256,,0,2,2,2,1,75,10,,,,,,,,
,,5f627ac87d0e5f2efb944c9e,65af55cc1410b53e6cb37416,2024-01-23_24h01.41.466,bars,2023.2.3,Win32,58.82352941,657b66ea316d21385b68909f,,,,,,,,,,,236.859,237.851,,,238.351,238.6,,164,-16,,,,,,,,,,,,,,,,bars/049.png,bars/mask009.png,,,,,,,,,,,,6,1,,,,,,,7,6,7,5,,,,,,,,,,,237.851,238.351,238.601,243.685,space,5.071,,243.685,4,49,244.684,244.684,248.75,space,4.043,,0,3,3,3,1,160,115,,,,,,,,
,,5f627ac87d0e5f2efb944c9e,65af55cc1410b53e6cb37416,2024-01-23_24h01.41.466,bars,2023.2.3,Win32,58.82352941,657b66ea316d21385b68909f,,,,,,,,,,,248.76,249.751,,,250.25,250.501,,153,153,,,,,,,,,,,,,,,,bars/046.png,bars/mask000.png,,,,,,,,,,,,7,1,,,,,,,9,4,8,2,,,,,,,,,,,249.751,250.25,250.501,255.201,space,4.69,,255.201,2,68,256.2,256.201,263,space,6.754,,0,4,4,4,1,155,85,,,,,,,,
,,5f627ac87d0e5f2efb944c9e,65af55cc1410b53e6cb37416,2024-01-23_24h01.41.466,bars,2023.2.3,Win32,58.82352941,657b66ea316d21385b68909f,,,,,,,,,,,263.026,264,,,264.499,264.738,,37,37,,,,,,,,,,,,,,,,bars/016.png,bars/mask006.png,,,,,,,,,,,,7,1,,,,,,,7,6,8,4,,,,,,,,,,,264,264.499,264.738,267.489,space,2.735,,267.489,3,52,268.487,268.487,269.967,space,1.441,,0,5,5,5,1,40,165,,,,,,,,
,,5f627ac87d0e5f2efb944c9e,65af55cc1410b53e6cb37416,2024-01-23_24h01.41.466,bars,2023.2.3,Win32,58.82352941,657b66ea316d21385b68909f,,,,,,,,,,,269.968,270.966,,,271.467,271.716,,125,125,,,,,,,,,,,,,,,,bars/027.png,bars/mask006.png,,,,,,,,,,,,5,1,,,,,,,9,8,9,7,,,,,,,,,,,270.966,271.467,271.716,274.217,space,2.487,,274.217,15,75,275.216,275.216,277.082,space,1.818,,0,6,6,6,1,110,50,,,,,,,,
,,5f627ac87d0e5f2efb944c9e,65af55cc1410b53e6cb37416,2024-01-23_24h01.41.466,bars,2023.2.3,Win32,58.82352941,657b66ea316d21385b68909f,,,,,,,,,,,277.083,278.082,,,278.583,278.833,,101,101,,,,,,,,,,,,,,,,bars/015.png,bars/mask006.png,,,,,,,,,,,,5,1,,,,,,,7,10,7,10,,,,,,,,,,,278.082,278.583,278.833,282.149,space,3.305,,282.15,9,59,283.148,283.149,286.934,space,3.755,,0,7,7,7,1,110,160,,,,,,,,
,,5f627ac87d0e5f2efb944c9e,65af55cc1410b53e6cb37416,2024-01-23_24h01.41.466,bars,2023.2.3,Win32,58.82352941,657b66ea316d21385b68909f,,,,,,,,,,,286.961,287.948,,,288.449,288.699,,152,-28,,,,,,,,,,,,,,,,bars/046.png,bars/mask006.png,,,,,,,,,,,,4,1,,,,,,,5,10,4,9,,,,,,,,,,,287.949,288.449,288.7,291.915,space,3.205,,291.915,3,67,292.915,292.915,316.298,space,23.351,,0,8,8,8,1,155,85,,,,,,,,
,,5f627ac87d0e5f2efb944c9e,65af55cc1410b53e6cb37416,2024-01-23_24h01.41.466,bars,2023.2.3,Win32,58.82352941,657b66ea316d21385b68909f,,,,,,,,,,,316.315,317.318,,,317.819,318.052,,81,81,,,,,,,,,,,,,,,,bars/022.png,bars/mask007.png,,,,,,,,,,,,4,1,,,,,,,7,8,7,8,,,,,,,,,,,317.318,317.819,318.052,322.355,space,4.286,,322.355,14,61,323.347,323.347,326.131,space,2.743,,0,9,9,9,1,95,20,,,,,,,,
,,5f627ac87d0e5f2efb944c9e,65af55cc1410b53e6cb37416,2024-01-23_24h01.41.466,bars,2023.2.3,Win32,58.82352941,657b66ea316d21385b68909f,,,,,,,,,,,326.132,327.13,,,327.631,327.88,,128,128,,,,,,,,,,,,,,,,bars/020.png,bars/mask001.png,,,,,,,,,,,,6,1,,,,,,,9,6,10,6,,,,,,,,,,,327.13,327.631,327.88,330.213,space,2.319,,330.214,13,42,331.214,331.214,332.564,space,1.303,,0,10,10,10,1,115,170,,,,,,,,
,,5f627ac87d0e5f2efb944c9e,65af55cc1410b53e6cb37416,2024-01-23_24h01.41.466,bars,2023.2.3,Win32,58.82352941,657b66ea316d21385b68909f,,,,,,,,,,,332.565,333.563,,,334.063,334.313,,13,13,,,,,,,,,,,,,,,,bars/043.png,bars/mask001.png,,,,,,,,,,,,4,1,,,,,,,10,8,10,7,,,,,,,,,,,333.563,334.063,334.313,336.496,space,2.175,,336.496,17,63,337.496,337.496,340.113,space,2.585,,0,11,11,11,1,30,130,,,,,,,,
,,5f627ac87d0e5f2efb944c9e,65af55cc1410b53e6cb37416,2024-01-23_24h01.41.466,bars,2023.2.3,Win32,58.82352941,657b66ea316d21385b68909f,,,,,,,,,,,340.115,341.113,,,341.613,341.863,,3,3,,,,,,,,,,,,,,,,bars/004.png,bars/mask005.png,,,,,,,,,,,,3,1,,,,,,,8,10,10,10,,,,,,,,,,,341.113,341.613,341.863,347.73,space,5.853,,347.73,22,58,348.73,348.73,352.696,space,3.924,,0,12,12,12,1,25,125,,,,,,,,
,,5f627ac87d0e5f2efb944c9e,65af55cc1410b53e6cb37416,2024-01-23_24h01.41.466,bars,2023.2.3,Win32,58.82352941,657b66ea316d21385b68909f,,,,,,,,,,,352.723,353.712,,,354.213,354.463,,112,112,,,,,,,,,,,,,,,,bars/002.png,bars/mask001.png,,,,,,,,,,,,3,1,,,,,,,6,8,7,8,,,,,,,,,,,353.712,354.213,354.463,356.829,space,2.358,,356.83,18,27,357.83,357.83,361.279,space,3.401,,0,13,13,13,1,130,85,,,,,,,,
,,5f627ac87d0e5f2efb944c9e,65af55cc1410b53e6cb37416,2024-01-23_24h01.41.466,bars,2023.2.3,Win32,58.82352941,657b66ea316d21385b68909f,,,,,,,,,,,361.307,362.295,,,362.796,363.045,,155,-25,,,,,,,,,,,,,,,,bars/046.png,bars/mask003.png,,,,,,,,,,,,1,1,,,,,,,4,10,1,10,,,,,,,,,,,362.295,362.795,363.045,367.945,space,4.888,,367.945,0,70,368.945,368.945,377.451,space,8.472,,0,14,14,14,1,155,85,,,,,,,,
,,5f627ac87d0e5f2efb944c9e,65af55cc1410b53e6cb37416,2024-01-23_24h01.41.466,bars,2023.2.3,Win32,58.82352941,657b66ea316d21385b68909f,,,,,,,,,,,377.477,378.461,,,378.961,379.211,,51,51,,,,,,,,,,,,,,,,bars/048.png,bars/mask000.png,,,,,,,,,,,,7,1,,,,,,,6,8,7,7,,,,,,,,,,,378.461,378.961,379.211,382.18,space,2.96,,382.18,1,56,383.177,383.177,387.045,space,3.814,,0,15,15,15,1,50,175,,,,,,,,
,,5f627ac87d0e5f2efb944c9e,65af55cc1410b53e6cb37416,2024-01-23_24h01.41.466,bars,2023.2.3,Win32,58.82352941,657b66ea316d21385b68909f,,,,,,,,,,,387.068,388.06,,,388.564,388.814,,38,38,,,,,,,,,,,,,,,,bars/026.png,bars/mask007.png,,,,,,,,,,,,3,1,,,,,,,4,6,3,5,,,,,,,,,,,388.06,388.564,388.814,394.416,space,5.585,,394.416,3,47,395.415,395.415,398.251,space,2.807,,0,16,16,16,1,35,85,,,,,,,,
,,5f627ac87d0e5f2efb944c9e,65af55cc1410b53e6cb37416,2024-01-23_24h01.41.466,bars,2023.2.3,Win32,58.82352941,657b66ea316d21385b68909f,,,,,,,,,,,398.252,399.248,,,399.743,399.998,,23,23,,,,,,,,,,,,,,,,bars/038.png,bars/mask001.png,,,,,,,,,,,,0,1,,,,,,,6,8,6,8,,,,,,,,,,,399.248,399.743,399.998,405.333,space,5.32,,405.334,38,47,406.327,406.327,409.51,space,3.143,,0,17,17,17,1,165,70,,,,,,,,
,,5f627ac87d0e5f2efb944c9e,65af55cc1410b53e6cb37416,2024-01-23_24h01.41.466,bars,2023.2.3,Win32,58.82352941,657b66ea316d21385b68909f,,,,,,,,,,,409.532,410.51,,,411.011,411.26,,26,206,,,,,,,,,,,,,,,,bars/009.png,bars/mask008.png,,,,,,,,,,,,4,1,,,,,,,8,10,6,8,,,,,,,,,,,410.51,411.011,411.261,416.411,space,5.133,,416.411,11,79,417.409,417.409,423.059,space,5.612,,0,18,18,18,1,15,105,,,,,,,,
,,5f627ac87d0e5f2efb944c9e,65af55cc1410b53e6cb37416,2024-01-23_24h01.41.466,bars,2023.2.3,Win32,58.82352941,657b66ea316d21385b68909f,,,,,,,,,,,423.073,424.059,,,424.558,424.813,,84,84,,,,,,,,,,,,,,,,bars/004.png,bars/mask003.png,,,,,,,,,,,,0,2,,,,,,,6,8,6,9,,,,,,,,,,,424.059,424.558,424.813,429.882,space,5.051,,429.882,59,41,430.875,430.875,435.243,space,4.315,,0,19,19,19,1,25,125,,,,,,,,
,,5f627ac87d0e5f2efb944c9e,65af55cc1410b53e6cb37416,2024-01-23_24h01.41.466,bars,2023.2.3,Win32,58.82352941,657b66ea316d21385b68909f,,,,,,,,,,,435.269,436.258,,,436.759,437.008,,158,-22,,,,,,,,,,,,,,,,bars/033.png,bars/mask006.png,,,,,,,,,,,,9,2,,,,,,,4,10,5,10,,,,,,,,,,,436.259,436.759,437.008,440.625,space,3.608,,440.625,47,3,441.626,441.626,443.992,space,2.319,,0,20,20,20,1,25,155,,,,,,,,
,,5f627ac87d0e5f2efb944c9e,65af55cc1410b53e6cb37416,2024-01-23_24h01.41.466,bars,2023.2.3,Win32,58.82352941,657b66ea316d21385b68909f,,,,,,,,,,,443.994,444.991,,,445.491,445.742,,170,170,,,,,,,,,,,,,,,,bars/033.png,bars/mask001.png,,,,,,,,,,,,5,2,,,,,,,2,10,1,9,,,,,,,,,,,444.991,445.491,445.742,448.358,space,2.599,,448.358,35,15,449.358,449.358,452.341,space,2.955,,0,21,21,21,1,25,155,,,,,,,,
,,5f627ac87d0e5f2efb944c9e,65af55cc1410b53e6cb37416,2024-01-23_24h01.41.466,bars,2023.2.3,Win32,58.82352941,657b66ea316d21385b68909f,,,,,,,,,,,452.342,453.341,,,453.841,454.091,,126,126,,,,,,,,,,,,,,,,bars/043.png,bars/mask009.png,,,,,,,,,,,,7,2,,,,,,,4,8,4,8,,,,,,,,,,,453.341,453.841,454.091,458.141,space,4.035,,458.141,84,4,459.141,459.141,479.862,space,20.679,,0,22,22,22,1,30,130,,,,,,,,
,,5f627ac87d0e5f2efb944c9e,65af55cc1410b53e6cb37416,2024-01-23_24h01.41.466,bars,2023.2.3,Win32,58.82352941,657b66ea316d21385b68909f,,,,,,,,,,,479.89,480.873,,,481.373,481.623,,150,-30,,,,,,,,,,,,,,,,bars/013.png,bars/mask007.png,,,,,,,,,,,,0,2,,,,,,,6,6,5,6,,,,,,,,,,,480.873,481.373,481.623,486.323,space,4.685,,486.324,75,40,487.323,487.323,489.297,space,1.941,,0,23,23,23,1,75,10,,,,,,,,
,,5f627ac87d0e5f2efb944c9e,65af55cc1410b53e6cb37416,2024-01-23_24h01.41.466,bars,2023.2.3,Win32,58.82352941,657b66ea316d21385b68909f,,,,,,,,,,,489.298,490.29,,,490.792,491.043,,102,102,,,,,,,,,,,,,,,,bars/049.png,bars/mask006.png,,,,,,,,,,,,6,2,,,,,,,4,8,2,10,,,,,,,,,,,490.29,490.792,491.043,494.994,space,3.933,,494.994,58,13,495.993,495.993,497.956,space,1.92,,0,24,24,24,1,160,115,,,,,,,,
,,5f627ac87d0e5f2efb944c9e,65af55cc1410b53e6cb37416,2024-01-23_24h01.41.466,bars,2023.2.3,Win32,58.82352941,657b66ea316d21385b68909f,,,,,,,,,,,497.958,498.955,,,499.455,499.705,,25,205,,,,,,,,,,,,,,,,bars/036.png,bars/mask007.png,,,,,,,,,,,,8,2,,,,,,,6,10,6,10,,,,,,,,,,,498.955,499.455,499.705,504.756,space,5.034,,504.756,60,5,505.755,505.755,507.838,space,2.046,,0,25,25,25,1,145,20,,,,,,,,
,,5f627ac87d0e5f2efb944c9e,65af55cc1410b53e6cb37416,2024-01-23_24h01.41.466,bars,2023.2.3,Win32,58.82352941,657b66ea316d21385b68909f,,,,,,,,,,,507.84,508.838,,,509.339,509.588,,162,-18,,,,,,,,,,,,,,,,bars/033.png,bars/mask002.png,,,,,,,,,,,,7,2,,,,,,,4,10,4,9,,,,,,,,,,,508.838,509.339,509.588,513.088,space,3.491,,513.088,43,7,514.088,514.089,550.338,space,36.211,,0,26,26,26,1,25,155,,,,,,,,
,,5f627ac87d0e5f2efb944c9e,65af55cc1410b53e6cb37416,2024-01-23_24h01.41.466,bars,2023.2.3,Win32,58.82352941,657b66ea316d21385b68909f,,,,,,,,,,,550.365,551.354,,,551.855,552.103,,116,116,,,,,,,,,,,,,,,,bars/035.png,bars/mask003.png,,,,,,,,,,,,0,2,,,,,,,6,8,6,8,,,,,,,,,,,551.354,551.855,552.103,558.52,space,6.402,,558.521,59,56,559.521,559.521,561.07,space,1.5,,0,27,27,27,1,175,60,,,,,,,,
,,5f627ac87d0e5f2efb944c9e,65af55cc1410b53e6cb37416,2024-01-23_24h01.41.466,bars,2023.2.3,Win32,58.82352941,657b66ea316d21385b68909f,,,,,,,,,,,561.072,562.07,,,562.57,562.82,,69,69,,,,,,,,,,,,,,,,bars/030.png,bars/mask004.png,,,,,,,,,,,,6,2,,,,,,,8,6,9,7,,,,,,,,,,,562.07,562.569,562.82,565.987,space,3.159,,565.987,71,4,566.986,566.986,568.52,space,1.492,,0,28,28,28,1,140,65,,,,,,,,
,,5f627ac87d0e5f2efb944c9e,65af55cc1410b53e6cb37416,2024-01-23_24h01.41.466,bars,2023.2.3,Win32,58.82352941,657b66ea316d21385b68909f,,,,,,,,,,,568.521,569.519,,,570.02,570.27,,29,29,,,,,,,,,,,,,,,,bars/040.png,bars/mask009.png,,,,,,,,,,,,2,2,,,,,,,10,8,9,8,,,,,,,,,,,569.519,570.02,570.27,572.552,space,2.271,,572.552,69,24,573.552,573.552,574.702,space,1.109,,0,29,29,29,1,140,5,,,,,,,,
,,5f627ac87d0e5f2efb944c9e,65af55cc1410b53e6cb37416,2024-01-23_24h01.41.466,bars,2023.2.3,Win32,58.82352941,657b66ea316d21385b68909f,,,,,,,,,,,574.703,575.702,,,576.202,576.451,,110,110,,,,,,,,,,,,,,,,bars/043.png,bars/mask004.png,,,,,,,,,,,,3,2,,,,,,,8,10,7,10,,,,,,,,,,,575.702,576.202,576.451,579.469,space,3.005,,579.469,80,20,580.469,580.469,582.053,space,1.539,,0,30,30,30,1,30,130,,,,,,,,
,,5f627ac87d0e5f2efb944c9e,65af55cc1410b53e6cb37416,2024-01-23_24h01.41.466,bars,2023.2.3,Win32,58.82352941,657b66ea316d21385b68909f,,,,,,,,,,,582.054,583.052,,,583.552,583.801,,5,5,,,,,,,,,,,,,,,,bars/008.png,bars/mask002.png,,,,,,,,,,,,8,2,,,,,,,10,10,9,10,,,,,,,,,,,583.052,583.552,583.801,588.385,space,4.571,,588.385,75,5,589.384,589.384,593.751,space,4.325,,0,31,31,31,1,110,0,,,,,,,,
,,5f627ac87d0e5f2efb944c9e,65af55cc1410b53e6cb37416,2024-01-23_24h01.41.466,bars,2023.2.3,Win32,58.82352941,657b66ea316d21385b68909f,,,,,,,,,,,593.765,594.751,,,595.251,595.501,,156,156,,,,,,,,,,,,,,,,bars/020.png,bars/mask003.png,,,,,,,,,,,,4,2,,,,,,,10,10,10,8,,,,,,,,,,,594.751,595.251,595.501,599.668,space,4.157,,599.669,41,14,600.667,600.667,602.002,space,1.298,,0,32,32,32,1,115,170,,,,,,,,
,,5f627ac87d0e5f2efb944c9e,65af55cc1410b53e6cb37416,2024-01-23_24h01.41.466,bars,2023.2.3,Win32,58.82352941,657b66ea316d21385b68909f,,,,,,,,,,,602.002,603.002,,,603.501,603.751,,161,-19,,,,,,,,,,,,,,,,bars/044.png,bars/mask000.png,,,,,,,,,,,,8,2,,,,,,,8,8,7,10,,,,,,,,,,,603.002,603.501,603.751,608.018,space,4.255,,608.018,86,6,609.017,609.017,618.352,space,9.296,,0,33,33,33,1,75,155,,,,,,,,
,,5f627ac87d0e5f2efb944c9e,65af55cc1410b53e6cb37416,2024-01-23_24h01.41.466,bars,2023.2.3,Win32,58.82352941,657b66ea316d21385b68909f,,,,,,,,,,,618.375,619.367,,,619.867,620.116,,135,135,,,,,,,,,,,,,,,,bars/003.png,bars/mask004.png,,,,,,,,,,,,5,2,,,,,,,6,6,8,6,,,,,,,,,,,619.367,619.867,620.117,625.3,space,5.168,,625.301,70,5,626.3,626.3,631.239,space,4.908,,0,34,34,34,1,25,140,,,,,,,,
,,5f627ac87d0e5f2efb944c9e,65af55cc1410b53e6cb37416,2024-01-23_24h01.41.466,bars,2023.2.3,Win32,58.82352941,657b66ea316d21385b68909f,,,,,,,,,,,631.265,632.25,,,632.749,633,,9,9,,,,,,,,,,,,,,,,bars/015.png,bars/mask000.png,,,,,,,,,,,,0,2,,,,,,,4,8,3,9,,,,,,,,,,,632.25,632.749,633.001,635.5,space,2.484,,635.501,79,29,636.5,636.5,644.766,space,8.239,,0,35,35,35,1,110,160,,,,,,,,
,,5f627ac87d0e5f2efb944c9e,65af55cc1410b53e6cb37416,2024-01-23_24h01.41.466,bars,2023.2.3,Win32,58.82352941,657b66ea316d21385b68909f,,,,,,,,,,,644.791,645.77,,,646.265,646.515,,118,118,,,,,,,,,,,,,,,,bars/049.png,bars/mask006.png,,,,,,,,,,,,5,2,,,,,,,6,6,8,5,,,,,,,,,,,645.77,646.265,646.515,648.439,space,1.902,,648.439,42,3,649.436,649.436,653.253,space,3.778,,0,36,36,36,1,160,115,,,,,,,,
,,5f627ac87d0e5f2efb944c9e,65af55cc1410b53e6cb37416,2024-01-23_24h01.41.466,bars,2023.2.3,Win32,58.82352941,657b66ea316d21385b68909f,,,,,,,,,,,653.276,654.265,,,654.766,655.015,,37,37,,,,,,,,,,,,,,,,bars/025.png,bars/mask004.png,,,,,,,,,,,,9,2,,,,,,,4,8,4,10,,,,,,,,,,,654.265,654.766,655.016,658.416,space,3.385,,658.416,68,3,659.416,659.416,662.198,space,2.741,,0,37,37,37,1,105,40,,,,,,,,
,,5f627ac87d0e5f2efb944c9e,65af55cc1410b53e6cb37416,2024-01-23_24h01.41.466,bars,2023.2.3,Win32,58.82352941,657b66ea316d21385b68909f,,,,,,,,,,,662.198,663.198,,,663.698,663.948,,101,101,,,,,,,,,,,,,,,,bars/041.png,bars/mask006.png,,,,,,,,,,,,2,2,,,,,,,2,6,3,5,,,,,,,,,,,663.198,663.698,663.948,669.115,space,5.151,,669.115,81,16,670.114,670.114,672.465,space,2.3,,0,38,38,38,1,20,85,,,,,,,,
,,5f627ac87d0e5f2efb944c9e,65af55cc1410b53e6cb37416,2024-01-23_24h01.41.466,bars,2023.2.3,Win32,58.82352941,657b66ea316d21385b68909f,,,,,,,,,,,672.465,673.464,,,673.964,674.214,,129,129,,,,,,,,,,,,,,,,bars/004.png,bars/mask005.png,,,,,,,,,,,,3,2,,,,,,,0,4,0,3,,,,,,,,,,,673.464,673.964,674.214,676.981,space,2.752,,676.981,76,4,677.981,677.981,682.247,space,4.217,,0,39,39,39,1,25,125,,,,,,,,
,,5f627ac87d0e5f2efb944c9e,65af55cc1410b53e6cb37416,2024-01-23_24h01.41.466,bars,2023.2.3,Win32,58.82352941,657b66ea316d21385b68909f,,,,,,,,,,,682.261,683.247,,,683.748,683.997,,115,115,,,,,,,,,,,,,,,,bars/005.png,bars/mask007.png,,,,,,,,,,,,0,2,,,,,,,2,2,1,2,,,,,,,,,,,683.247,683.747,683.997,691.78,space,7.77,,691.781,75,25,692.78,692.781,701.214,space,8.399,,0,40,40,40,1,10,140,,,,,,,,
,,5f627ac87d0e5f2efb944c9e,65af55cc1410b53e6cb37416,2024-01-23_24h01.41.466,bars,2023.2.3,Win32,58.82352941,657b66ea316d21385b68909f,,,,,,,,,,,701.239,702.23,,,702.718,702.962,,97,97,,,,,,,,,,,,,,,,bars/039.png,bars/mask004.png,,,,,,,,,,,,2,2,,,,,,,4,4,4,3,,,,,,,,,,,702.231,702.717,702.962,706.936,space,3.953,,706.936,78,8,707.93,707.93,712.996,space,5.026,,0,41,41,41,1,175,105,,,,,,,,
,,5f627ac87d0e5f2efb944c9e,65af55cc1410b53e6cb37416,2024-01-23_24h01.41.466,bars,2023.2.3,Win32,58.82352941,657b66ea316d21385b68909f,,,,,,,,,,,713.019,714.012,,,714.496,714.746,,75,75,,,,,,,,,,,,,,,,bars/011.png,bars/mask005.png,,,,,,,,,,,,3,2,,,,,,,2,6,3,5,,,,,,,,,,,714.012,714.496,714.746,719.396,space,4.635,,719.396,85,10,720.395,720.395,721.48,space,1.043,,0,42,42,42,1,160,85,,,,,,,,
,,5f627ac87d0e5f2efb944c9e,65af55cc1410b53e6cb37416,2024-01-23_24h01.41.466,bars,2023.2.3,Win32,58.82352941,657b66ea316d21385b68909f,,,,,,,,,,,721.48,722.478,,,722.979,723.228,,59,59,,,,,,,,,,,,,,,,bars/010.png,bars/mask004.png,,,,,,,,,,,,3,2,,,,,,,0,4,0,3,,,,,,,,,,,722.478,722.979,723.228,725.595,space,2.352,,725.595,74,4,726.594,726.594,727.496,space,0.88,,0,43,43,43,1,165,55,,,,,,,,
,,5f627ac87d0e5f2efb944c9e,65af55cc1410b53e6cb37416,2024-01-23_24h01.41.466,bars,2023.2.3,Win32,58.82352941,657b66ea316d21385b68909f,,,,,,,,,,,727.497,728.495,,,728.994,729.245,,61,61,,,,,,,,,,,,,,,,bars/029.png,bars/mask002.png,,,,,,,,,,,,1,2,,,,,,,2,2,0,2,,,,,,,,,,,728.495,728.994,729.245,733.279,space,4.024,,733.279,29,16,734.278,734.278,735.702,space,1.394,,0,44,44,44,1,90,45,,,,,,,,
,,5f627ac87d0e5f2efb944c9e,65af55cc1410b53e6cb37416,2024-01-23_24h01.41.466,bars,2023.2.3,Win32,58.82352941,657b66ea316d21385b68909f,,,,,,,,,,,735.703,736.695,,,737.199,737.449,,170,-10,,,,,,,,,,,,,,,,bars/033.png,bars/mask001.png,,,,,,,,,,,,1,2,,,,,,,4,0,5,1,,,,,,,,,,,736.695,737.199,737.449,742.867,space,5.402,,742.868,35,15,743.864,743.864,747.783,space,3.903,,0,45,45,45,1,25,155,,,,,,,,
,,5f627ac87d0e5f2efb944c9e,65af55cc1410b53e6cb37416,2024-01-23_24h01.41.466,bars,2023.2.3,Win32,58.82352941,657b66ea316d21385b68909f,,,,,,,,,,,747.8,748.798,,,749.294,749.544,,108,108,,,,,,,,,,,,,,,,bars/039.png,bars/mask002.png,,,,,,,,,,,,1,2,,,,,,,2,0,2,1,,,,,,,,,,,748.798,749.293,749.544,754.817,space,5.252,,754.817,67,3,755.815,755.815,757.41,space,1.562,,0,46,46,46,1,175,105,,,,,,,,
,,5f627ac87d0e5f2efb944c9e,65af55cc1410b53e6cb37416,2024-01-23_24h01.41.466,bars,2023.2.3,Win32,58.82352941,657b66ea316d21385b68909f,,,,,,,,,,,757.412,758.41,,,758.91,759.16,,64,64,,,,,,,,,,,,,,,,bars/041.png,bars/mask004.png,,,,,,,,,,,,1,2,,,,,,,0,2,1,2,,,,,,,,,,,758.411,758.91,759.16,762.778,space,3.6,,762.778,44,21,763.777,763.777,765.314,space,1.495,,0,47,47,47,1,20,85,,,,,,,,
,,5f627ac87d0e5f2efb944c9e,65af55cc1410b53e6cb37416,2024-01-23_24h01.41.466,bars,2023.2.3,Win32,58.82352941,657b66ea316d21385b68909f,,,,,,,,,,,765.316,766.31,,,766.81,767.06,,72,72,,,,,,,,,,,,,,,,bars/047.png,bars/mask003.png,,,,,,,,,,,,0,2,,,,,,,2,0,2,0,,,,,,,,,,,766.31,766.81,767.06,772.827,space,5.75,,772.827,57,2,773.826,773.826,777.265,space,3.406,,0,48,48,48,1,15,70,,,,,,,,
,,5f627ac87d0e5f2efb944c9e,65af55cc1410b53e6cb37416,2024-01-23_24h01.41.466,bars,2023.2.3,Win32,58.82352941,657b66ea316d21385b68909f,,,,,,,,,,,777.286,778.281,,,778.781,779.031,,86,86,,,,,,,,,,,,,,,,bars/023.png,bars/mask003.png,,,,,,,,,,,,0,2,,,,,,,4,0,4,0,,,,,,,,,,,778.281,778.781,779.031,781.999,space,2.952,,781.999,66,29,782.997,782.997,784.745,space,1.711,,0,49,49,49,1,20,115,,,,,,,,
,,5f627ac87d0e5f2efb944c9e,65af55cc1410b53e6cb37416,2024-01-23_24h01.41.466,bars,2023.2.3,Win32,58.82352941,657b66ea316d21385b68909f,,,,,,,,,,,,,,,,,,,,,,,,,,,,,,,,,,,,,,,,,,,,,,,,,,,,,,,,,,,,,,,,,,,,,,,,,,,,,,,,,,,,,,,,,,,,,784.752,844.742,0,0,0,2,1,sequence_tables/blk001.csv
,,5f627ac87d0e5f2efb944c9e,65af55cc1410b53e6cb37416,2024-01-23_24h01.41.466,bars,2023.2.3,Win32,58.82352941,657b66ea316d21385b68909f,,,,,,,,,,,855.886,856.872,,,857.372,857.622,,83,83,,,,,,,,,,,,,,,,bars/018.png,bars/mask005.png,,,,,,,,,,,,5,2,,,,,,,9,7,10,7,,,,,,844.771,855.855,space,11.079,,856.872,857.372,857.622,861.74,space,4.109,,861.741,67,7,862.74,862.74,862.773,,,,0,0,0,0,1,150,90,,,,,,,,
,,5f627ac87d0e5f2efb944c9e,65af55cc1410b53e6cb37416,2024-01-23_24h01.41.466,bars,2023.2.3,Win32,58.82352941,657b66ea316d21385b68909f,,,,,,,,,,,862.773,863.772,,,864.273,864.522,,59,59,,,,,,,,,,,,,,,,bars/038.png,bars/mask001.png,,,,,,,,,,,,3,2,,,,,,,7,5,7,4,,,,,,,,,,,863.772,864.273,864.522,872.755,space,8.218,,872.755,74,11,873.755,873.755,873.785,,,,0,1,1,1,1,165,70,,,,,,,,
,,5f627ac87d0e5f2efb944c9e,65af55cc1410b53e6cb37416,2024-01-23_24h01.41.466,bars,2023.2.3,Win32,58.82352941,657b66ea316d21385b68909f,,,,,,,,,,,873.785,874.788,,,875.288,875.538,,80,80,,,,,,,,,,,,,,,,bars/002.png,bars/mask001.png,,,,,,,,,,,,6,2,,,,,,,5,7,3,7,,,,,,,,,,,874.788,875.288,875.538,879.505,space,3.956,,879.505,50,5,880.505,880.505,880.539,,,,0,2,2,2,1,130,85,,,,,,,,
,,5f627ac87d0e5f2efb944c9e,65af55cc1410b53e6cb37416,2024-01-23_24h01.41.466,bars,2023.2.3,Win32,58.82352941,657b66ea316d21385b68909f,,,,,,,,,,,880.539,881.538,,,882.038,882.287,,72,72,,,,,,,,,,,,,,,,bars/046.png,bars/mask004.png,,,,,,,,,,,,3,2,,,,,,,7,5,6,6,,,,,,,,,,,881.538,882.038,882.287,888.304,space,6.003,,888.304,83,13,889.304,889.305,889.331,,,,0,3,3,3,1,155,85,,,,,,,,
,,5f627ac87d0e5f2efb944c9e,65af55cc1410b53e6cb37416,2024-01-23_24h01.41.466,bars,2023.2.3,Win32,58.82352941,657b66ea316d21385b68909f,,,,,,,,,,,889.331,890.321,,,890.825,891.075,,170,170,,,,,,,,,,,,,,,,bars/033.png,bars/mask009.png,,,,,,,,,,,,4,2,,,,,,,9,7,9,7,,,,,,,,,,,890.321,890.825,891.075,894.288,space,3.193,,894.288,35,15,895.29,895.29,895.308,,,,0,4,4,4,1,25,155,,,,,,,,
,,5f627ac87d0e5f2efb944c9e,65af55cc1410b53e6cb37416,2024-01-23_24h01.41.466,bars,2023.2.3,Win32,58.82352941,657b66ea316d21385b68909f,,,,,,,,,,,895.308,896.308,,,896.808,897.057,,47,47,,,,,,,,,,,,,,,,bars/007.png,bars/mask002.png,,,,,,,,,,,,4,2,,,,,,,7,5,6,5,,,,,,,,,,,896.308,896.808,897.057,901.711,space,4.635,,901.711,52,8,902.703,902.703,902.726,,,,0,5,5,5,1,175,55,,,,,,,,
,,5f627ac87d0e5f2efb944c9e,65af55cc1410b53e6cb37416,2024-01-23_24h01.41.466,bars,2023.2.3,Win32,58.82352941,657b66ea316d21385b68909f,,,,,,,,,,,902.726,903.72,,,904.221,904.475,,103,103,,,,,,,,,,,,,,,,bars/018.png,bars/mask008.png,,,,,,,,,,,,2,2,,,,,,,5,3,5,3,,,,,,,,,,,903.721,904.22,904.475,909.242,space,4.751,,909.242,47,13,910.239,910.239,910.259,,,,0,6,6,6,1,150,90,,,,,,,,
,,5f627ac87d0e5f2efb944c9e,65af55cc1410b53e6cb37416,2024-01-23_24h01.41.466,bars,2023.2.3,Win32,58.82352941,657b66ea316d21385b68909f,,,,,,,,,,,910.26,911.252,,,911.757,912.003,,57,57,,,,,,,,,,,,,,,,bars/042.png,bars/mask006.png,,,,,,,,,,,,1,2,,,,,,,7,1,7,2,,,,,,,,,,,911.252,911.757,912.003,915.543,space,3.518,,915.544,88,18,916.541,916.541,916.564,,,,0,7,7,7,1,145,75,,,,,,,,
,,5f627ac87d0e5f2efb944c9e,65af55cc1410b53e6cb37416,2024-01-23_24h01.41.466,bars,2023.2.3,Win32,58.82352941,657b66ea316d21385b68909f,,,,,,,,,,,916.564,917.553,,,918.057,918.308,,26,26,,,,,,,,,,,,,,,,bars/013.png,bars/mask000.png,,,,,,,,,,,,1,2,,,,,,,9,3,9,3,,,,,,,,,,,917.553,918.057,918.308,924.475,space,6.151,,924.475,49,16,925.469,925.469,925.496,,,,0,8,8,8,1,75,10,,,,,,,,
,,5f627ac87d0e5f2efb944c9e,65af55cc1410b53e6cb37416,2024-01-23_24h01.41.466,bars,2023.2.3,Win32,58.82352941,657b66ea316d21385b68909f,,,,,,,,,,,925.496,926.491,,,926.99,927.235,,167,167,,,,,,,,,,,,,,,,bars/040.png,bars/mask007.png,,,,,,,,,,,,3,2,,,,,,,10,5,10,8,,,,,,,,,,,926.491,926.99,927.235,933.108,space,5.851,,933.108,27,18,934.107,934.107,934.129,,,,0,9,9,9,1,140,5,,,,,,,,
,,5f627ac87d0e5f2efb944c9e,65af55cc1410b53e6cb37416,2024-01-23_24h01.41.466,bars,2023.2.3,Win32,58.82352941,657b66ea316d21385b68909f,,,,,,,,,,,934.13,935.119,,,935.624,935.869,,24,24,,,,,,,,,,,,,,,,bars/035.png,bars/mask000.png,,,,,,,,,,,,0,1,,,,,,,8,7,7,5,,,,,,,,,,,935.12,935.624,935.869,940.941,space,5.051,,940.941,29,36,941.94,941.94,941.962,,,,0,10,10,10,1,175,60,,,,,,,,
,,5f627ac87d0e5f2efb944c9e,65af55cc1410b53e6cb37416,2024-01-23_24h01.41.466,bars,2023.2.3,Win32,58.82352941,657b66ea316d21385b68909f,,,,,,,,,,,941.963,942.956,,,943.456,943.706,,102,-78,,,,,,,,,,,,,,,,bars/039.png,bars/mask002.png,,,,,,,,,,,,5,2,,,,,,,10,5,10,5,,,,,,,,,,,942.956,943.456,943.706,950.991,space,7.27,,950.991,73,3,951.984,951.984,952.016,,,,0,11,11,11,1,175,105,,,,,,,,
,,5f627ac87d0e5f2efb944c9e,65af55cc1410b53e6cb37416,2024-01-23_24h01.41.466,bars,2023.2.3,Win32,58.82352941,657b66ea316d21385b68909f,,,,,,,,,,,952.016,953.006,,,953.5,953.752,,173,-7,,,,,,,,,,,,,,,,bars/016.png,bars/mask006.png,,,,,,,,,,,,1,2,,,,,,,10,3,8,2,,,,,,,,,,,953.006,953.5,953.752,960.387,space,6.627,,960.387,47,8,961.384,961.384,961.412,,,,0,12,12,12,1,40,165,,,,,,,,
,,5f627ac87d0e5f2efb944c9e,65af55cc1410b53e6cb37416,2024-01-23_24h01.41.466,bars,2023.2.3,Win32,58.82352941,657b66ea316d21385b68909f,,,,,,,,,,,961.413,962.402,,,962.901,963.151,,12,12,,,,,,,,,,,,,,,,bars/043.png,bars/mask000.png,,,,,,,,,,,,3,1,,,,,,,8,5,7,5,,,,,,,,,,,962.402,962.901,963.151,965.767,space,2.599,,965.767,18,62,966.767,966.767,966.788,,,,0,13,13,13,1,30,130,,,,,,,,
,,5f627ac87d0e5f2efb944c9e,65af55cc1410b53e6cb37416,2024-01-23_24h01.41.466,bars,2023.2.3,Win32,58.82352941,657b66ea316d21385b68909f,,,,,,,,,,,966.788,967.784,,,968.284,968.533,,14,194,,,,,,,,,,,,,,,,bars/035.png,bars/mask006.png,,,,,,,,,,,,3,1,,,,,,,10,7,9,6,,,,,,,,,,,967.784,968.284,968.533,974.317,space,5.77,,974.318,19,46,975.316,975.316,975.339,,,,0,14,14,14,1,175,60,,,,,,,,
,,5f627ac87d0e5f2efb944c9e,65af55cc1410b53e6cb37416,2024-01-23_24h01.41.466,bars,2023.2.3,Win32,58.82352941,657b66ea316d21385b68909f,,,,,,,,,,,975.339,976.334,,,976.833,977.084,,164,-16,,,,,,,,,,,,,,,,bars/016.png,bars/mask000.png,,,,,,,,,,,,10,2,,,,,,,8,9,9,10,,,,,,,,,,,976.334,976.833,977.084,984.084,space,6.986,,984.084,56,1,985.083,985.083,985.108,,,,0,15,15,15,1,40,165,,,,,,,,
,,5f627ac87d0e5f2efb944c9e,65af55cc1410b53e6cb37416,2024-01-23_24h01.41.466,bars,2023.2.3,Win32,58.82352941,657b66ea316d21385b68909f,,,,,,,,,,,985.109,986.104,,,986.604,986.85,,106,106,,,,,,,,,,,,,,,,bars/002.png,bars/mask004.png,,,,,,,,,,,,3,2,,,,,,,6,10,6,10,,,,,,,,,,,986.104,986.604,986.85,989.834,space,2.954,,989.834,24,21,990.833,990.833,990.861,,,,0,16,16,16,1,130,85,,,,,,,,
,,5f627ac87d0e5f2efb944c9e,65af55cc1410b53e6cb37416,2024-01-23_24h01.41.466,bars,2023.2.3,Win32,58.82352941,657b66ea316d21385b68909f,,,,,,,,,,,990.861,991.851,,,992.35,992.599,,163,163,,,,,,,,,,,,,,,,bars/022.png,bars/mask000.png,,,,,,,,,,,,0,2,,,,,,,8,10,8,8,,,,,,,,,,,991.851,992.35,992.6,997.333,space,4.724,,997.333,68,37,998.333,998.333,998.369,,,,0,17,17,17,1,95,20,,,,,,,,
,,5f627ac87d0e5f2efb944c9e,65af55cc1410b53e6cb37416,2024-01-23_24h01.41.466,bars,2023.2.3,Win32,58.82352941,657b66ea316d21385b68909f,,,,,,,,,,,998.369,999.371,,,999.866,1000.121,,11,191,,,,,,,,,,,,,,,,bars/044.png,bars/mask006.png,,,,,,,,,,,,0,2,,,,,,,10,10,10,10,,,,,,,,,,,999.371,999.866,1000.121,1005.634,space,5.496,,1005.634,64,36,1006.637,1006.637,1006.66,,,,0,18,18,18,1,75,155,,,,,,,,
,,5f627ac87d0e5f2efb944c9e,65af55cc1410b53e6cb37416,2024-01-23_24h01.41.466,bars,2023.2.3,Win32,58.82352941,657b66ea316d21385b68909f,,,,,,,,,,,1006.66,1007.653,,,1008.153,1008.398,,154,-26,,,,,,,,,,,,,,,,bars/042.png,bars/mask002.png,,,,,,,,,,,,6,1,,,,,,,8,10,8,10,,,,,,,,,,,1007.653,1008.153,1008.398,1013.665,space,5.243,,1013.665,9,79,1014.664,1014.664,1014.673,,,,0,19,19,19,1,145,75,,,,,,,,
,,5f627ac87d0e5f2efb944c9e,65af55cc1410b53e6cb37416,2024-01-23_24h01.41.466,bars,2023.2.3,Win32,58.82352941,657b66ea316d21385b68909f,,,,,,,,,,,1014.674,1015.664,,,1016.164,1016.415,,141,141,,,,,,,,,,,,,,,,bars/008.png,bars/mask008.png,,,,,,,,,,,,0,1,,,,,,,6,10,6,10,,,,,,,,,,,1015.664,1016.164,1016.415,1021.797,space,5.368,,1021.797,31,39,1022.797,1022.797,1022.805,,,,0,20,20,20,1,110,0,,,,,,,,
,,5f627ac87d0e5f2efb944c9e,65af55cc1410b53e6cb37416,2024-01-23_24h01.41.466,bars,2023.2.3,Win32,58.82352941,657b66ea316d21385b68909f,,,,,,,,,,,1022.805,1023.798,,,1024.297,1024.548,,77,77,,,,,,,,,,,,,,,,bars/023.png,bars/mask003.png,,,,,,,,,,,,0,2,,,,,,,8,10,10,10,,,,,,,,,,,1023.799,1024.297,1024.548,1032.797,space,8.235,,1032.797,57,38,1033.797,1033.797,1033.834,,,,0,21,21,21,1,20,115,,,,,,,,
,,5f627ac87d0e5f2efb944c9e,65af55cc1410b53e6cb37416,2024-01-23_24h01.41.466,bars,2023.2.3,Win32,58.82352941,657b66ea316d21385b68909f,,,,,,,,,,,1033.834,1034.83,,,1035.331,1035.58,,158,158,,,,,,,,,,,,,,,,bars/036.png,bars/mask000.png,,,,,,,,,,,,5,1,,,,,,,6,8,8,8,,,,,,,,,,,1034.831,1035.331,1035.58,1041.347,space,5.751,,1041.347,13,42,1042.347,1042.347,1042.384,,,,0,22,22,22,1,145,20,,,,,,,,
,,5f627ac87d0e5f2efb944c9e,65af55cc1410b53e6cb37416,2024-01-23_24h01.41.466,bars,2023.2.3,Win32,58.82352941,657b66ea316d21385b68909f,,,,,,,,,,,1042.384,1043.38,,,1043.88,1044.131,,162,162,,,,,,,,,,,,,,,,bars/044.png,bars/mask002.png,,,,,,,,,,,,7,2,,,,,,,8,10,7,9,,,,,,,,,,,1043.38,1043.88,1044.131,1052.714,space,8.568,,1052.714,87,7,1053.713,1053.713,1053.741,,,,0,23,23,23,1,75,155,,,,,,,,
,,5f627ac87d0e5f2efb944c9e,65af55cc1410b53e6cb37416,2024-01-23_24h01.41.466,bars,2023.2.3,Win32,58.82352941,657b66ea316d21385b68909f,,,,,,,,,,,1053.741,1054.731,,,1055.23,1055.48,,45,45,,,,,,,,,,,,,,,,bars/017.png,bars/mask008.png,,,,,,,,,,,,10,2,,,,,,,6,10,7,10,,,,,,,,,,,1054.731,1055.23,1055.481,1060.746,space,5.254,,1060.746,80,0,1061.747,1061.747,1061.777,,,,0,24,24,24,1,145,45,,,,,,,,
,,5f627ac87d0e5f2efb944c9e,65af55cc1410b53e6cb37416,2024-01-23_24h01.41.466,bars,2023.2.3,Win32,58.82352941,657b66ea316d21385b68909f,,,,,,,,,,,1061.777,1062.78,,,1063.283,1063.531,,22,202,,,,,,,,,,,,,,,,bars/032.png,bars/mask009.png,,,,,,,,,,,,7,2,,,,,,,4,8,4,8,,,,,,,,,,,1062.78,1063.283,1063.531,1071.952,space,8.402,,1071.952,77,2,1072.951,1072.951,1072.974,,,,0,25,25,25,1,125,20,,,,,,,,
,,5f627ac87d0e5f2efb944c9e,65af55cc1410b53e6cb37416,2024-01-23_24h01.41.466,bars,2023.2.3,Win32,58.82352941,657b66ea316d21385b68909f,,,,,,,,,,,1072.974,1073.962,,,1074.463,1074.712,,25,205,,,,,,,,,,,,,,,,bars/040.png,bars/mask004.png,,,,,,,,,,,,3,2,,,,,,,2,10,3,10,,,,,,,,,,,1073.962,1074.462,1074.712,1080.096,space,5.374,,1080.096,65,20,1081.096,1081.096,1081.118,,,,0,26,26,26,1,140,5,,,,,,,,
,,5f627ac87d0e5f2efb944c9e,65af55cc1410b53e6cb37416,2024-01-23_24h01.41.466,bars,2023.2.3,Win32,58.82352941,657b66ea316d21385b68909f,,,,,,,,,,,1081.118,1082.112,,,1082.612,1082.862,,95,95,,,,,,,,,,,,,,,,bars/018.png,bars/mask007.png,,,,,,,,,,,,8,2,,,,,,,0,8,0,9,,,,,,,,,,,1082.112,1082.612,1082.862,1086.962,space,4.085,,1086.963,55,5,1087.962,1087.962,1087.991,,,,0,27,27,27,1,150,90,,,,,,,,
,,5f627ac87d0e5f2efb944c9e,65af55cc1410b53e6cb37416,2024-01-23_24h01.41.466,bars,2023.2.3,Win32,58.82352941,657b66ea316d21385b68909f,,,,,,,,,,,1087.991,1088.995,,,1089.495,1089.744,,46,226,,,,,,,,,,,,,,,,bars/007.png,bars/mask008.png,,,,,,,,,,,,7,2,,,,,,,0,10,0,10,,,,,,,,,,,1088.995,1089.495,1089.744,1096.577,space,6.816,,1096.577,51,9,1097.577,1097.577,1097.586,,,,0,28,28,28,1,175,55,,,,,,,,
,,5f627ac87d0e5f2efb944c9e,65af55cc1410b53e6cb37416,2024-01-23_24h01.41.466,bars,2023.2.3,Win32,58.82352941,657b66ea316d21385b68909f,,,,,,,,,,,1097.587,1098.577,,,1099.077,1099.327,,114,114,,,,,,,,,,,,,,,,bars/049.png,bars/mask009.png,,,,,,,,,,,,9,2,,,,,,,2,10,2,9,,,,,,,,,,,1098.577,1099.077,1099.327,1103.911,space,4.569,,1103.911,46,1,1104.911,1104.911,1104.937,,,,0,29,29,29,1,160,115,,,,,,,,
,,5f627ac87d0e5f2efb944c9e,65af55cc1410b53e6cb37416,2024-01-23_24h01.41.466,bars,2023.2.3,Win32,58.82352941,657b66ea316d21385b68909f,,,,,,,,,,,1104.937,1105.932,,,1106.433,1106.682,,175,175,,,,,,,,,,,,,,,,bars/033.png,bars/mask005.png,,,,,,,,,,,,3,2,,,,,,,0,8,0,8,,,,,,,,,,,1105.932,1106.433,1106.682,1109.894,space,3.196,,1109.894,30,20,1110.898,1110.898,1110.925,,,,0,30,30,30,1,25,155,,,,,,,,
,,5f627ac87d0e5f2efb944c9e,65af55cc1410b53e6cb37416,2024-01-23_24h01.41.466,bars,2023.2.3,Win32,58.82352941,657b66ea316d21385b68909f,,,,,,,,,,,1110.925,1111.928,,,1112.428,1112.678,,162,-18,,,,,,,,,,,,,,,,bars/025.png,bars/mask004.png,,,,,,,,,,,,0,1,,,,,,,2,10,3,9,,,,,,,,,,,1111.928,1112.428,1112.678,1123.426,space,10.737,,1123.427,57,58,1124.426,1124.426,1124.461,,,,0,31,31,31,1,105,40,,,,,,,,
,,5f627ac87d0e5f2efb944c9e,65af55cc1410b53e6cb37416,2024-01-23_24h01.41.466,bars,2023.2.3,Win32,58.82352941,657b66ea316d21385b68909f,,,,,,,,,,,1124.461,1125.461,,,1125.961,1126.211,,32,212,,,,,,,,,,,,,,,,bars/019.png,bars/mask005.png,,,,,,,,,,,,2,1,,,,,,,4,10,3,10,,,,,,,,,,,1125.461,1125.96,1126.211,1130.827,space,4.602,,1130.827,13,73,1131.827,1131.827,1131.852,,,,0,32,32,32,1,45,105,,,,,,,,
,,5f627ac87d0e5f2efb944c9e,65af55cc1410b53e6cb37416,2024-01-23_24h01.41.466,bars,2023.2.3,Win32,58.82352941,657b66ea316d21385b68909f,,,,,,,,,,,1131.853,1132.842,,,1133.331,1133.58,,52,52,,,,,,,,,,,,,,,,bars/044.png,bars/mask001.png,,,,,,,,,,,,1,1,,,,,,,2,10,4,10,,,,,,,,,,,1132.843,1133.331,1133.58,1136.665,space,3.07,,1136.665,23,77,1137.66,1137.66,1137.687,,,,0,33,33,33,1,75,155,,,,,,,,
,,5f627ac87d0e5f2efb944c9e,65af55cc1410b53e6cb37416,2024-01-23_24h01.41.466,bars,2023.2.3,Win32,58.82352941,657b66ea316d21385b68909f,,,,,,,,,,,1137.687,1138.681,,,1139.177,1139.414,,147,-33,,,,,,,,,,,,,,,,bars/001.png,bars/mask008.png,,,,,,,,,,,,0,1,,,,,,,0,8,0,8,,,,,,,,,,,1138.681,1139.176,1139.414,1143.449,space,4.018,,1143.449,17,62,1144.446,1144.446,1144.462,,,,0,34,34,34,1,130,85,,,,,,,,
,,5f627ac87d0e5f2efb944c9e,65af55cc1410b53e6cb37416,2024-01-23_24h01.41.466,bars,2023.2.3,Win32,58.82352941,657b66ea316d21385b68909f,,,,,,,,,,,1144.463,1145.458,,,1145.946,1146.197,,73,73,,,,,,,,,,,,,,,,bars/025.png,bars/mask009.png,,,,,,,,,,,,0,1,,,,,,,2,6,2,6,,,,,,,,,,,1145.458,1145.946,1146.197,1155.747,space,9.534,,1155.747,32,33,1156.741,1156.741,1156.756,,,,0,35,35,35,1,105,40,,,,,,,,
,,5f627ac87d0e5f2efb944c9e,65af55cc1410b53e6cb37416,2024-01-23_24h01.41.466,bars,2023.2.3,Win32,58.82352941,657b66ea316d21385b68909f,,,,,,,,,,,1156.757,1157.746,,,1158.247,1158.496,,103,103,,,,,,,,,,,,,,,,bars/036.png,bars/mask006.png,,,,,,,,,,,,0,1,,,,,,,4,4,4,4,,,,,,,,,,,1157.746,1158.247,1158.496,1165.297,space,6.784,,1165.297,42,83,1166.291,1166.291,1166.321,,,,0,36,36,36,1,145,20,,,,,,,,
,,5f627ac87d0e5f2efb944c9e,65af55cc1410b53e6cb37416,2024-01-23_24h01.41.466,bars,2023.2.3,Win32,58.82352941,657b66ea316d21385b68909f,,,,,,,,,,,1166.321,1167.324,,,1167.825,1168.076,,3,183,,,,,,,,,,,,,,,,bars/004.png,bars/mask001.png,,,,,,,,,,,,1,1,,,,,,,2,6,3,8,,,,,,,,,,,1167.324,1167.825,1168.076,1171.224,space,3.133,,1171.224,22,58,1172.224,1172.224,1172.247,,,,0,37,37,37,1,25,125,,,,,,,,
,,5f627ac87d0e5f2efb944c9e,65af55cc1410b53e6cb37416,2024-01-23_24h01.41.466,bars,2023.2.3,Win32,58.82352941,657b66ea316d21385b68909f,,,,,,,,,,,1172.248,1173.241,,,1173.742,1173.991,,41,41,,,,,,,,,,,,,,,,bars/017.png,bars/mask008.png,,,,,,,,,,,,6,2,,,,,,,4,8,4,7,,,,,,,,,,,1173.241,1173.742,1173.991,1179.308,space,5.303,,1179.308,76,4,1180.308,1180.308,1180.332,,,,0,38,38,38,1,145,45,,,,,,,,
,,5f627ac87d0e5f2efb944c9e,65af55cc1410b53e6cb37416,2024-01-23_24h01.41.466,bars,2023.2.3,Win32,58.82352941,657b66ea316d21385b68909f,,,,,,,,,,,1180.333,1181.325,,,1181.825,1182.073,,102,102,,,,,,,,,,,,,,,,bars/002.png,bars/mask002.png,,,,,,,,,,,,4,2,,,,,,,6,10,5,10,,,,,,,,,,,1181.325,1181.825,1182.074,1184.908,space,2.82,,1184.908,28,17,1185.907,1185.907,1185.935,,,,0,39,39,39,1,130,85,,,,,,,,
,,5f627ac87d0e5f2efb944c9e,65af55cc1410b53e6cb37416,2024-01-23_24h01.41.466,bars,2023.2.3,Win32,58.82352941,657b66ea316d21385b68909f,,,,,,,,,,,1185.935,1186.925,,,1187.424,1187.662,,83,83,,,,,,,,,,,,,,,,bars/026.png,bars/mask004.png,,,,,,,,,,,,7,2,,,,,,,8,8,6,8,,,,,,,,,,,1186.925,1187.424,1187.662,1189.98,space,2.301,,1189.98,48,2,1190.978,1190.978,1191.005,,,,0,40,40,40,1,35,85,,,,,,,,
,,5f627ac87d0e5f2efb944c9e,65af55cc1410b53e6cb37416,2024-01-23_24h01.41.466,bars,2023.2.3,Win32,58.82352941,657b66ea316d21385b68909f,,,,,,,,,,,1191.005,1192.007,,,1192.507,1192.757,,155,155,,,,,,,,,,,,,,,,bars/049.png,bars/mask008.png,,,,,,,,,,,,4,1,,,,,,,6,6,5,6,,,,,,,,,,,1192.007,1192.507,1192.757,1196.408,space,3.637,,1196.408,5,40,1197.406,1197.406,1197.423,,,,0,41,41,41,1,160,115,,,,,,,,
,,5f627ac87d0e5f2efb944c9e,65af55cc1410b53e6cb37416,2024-01-23_24h01.41.466,bars,2023.2.3,Win32,58.82352941,657b66ea316d21385b68909f,,,,,,,,,,,1197.423,1198.423,,,1198.923,1199.173,,167,167,,,,,,,,,,,,,,,,bars/017.png,bars/mask008.png,,,,,,,,,,,,2,1,,,,,,,4,8,6,7,,,,,,,,,,,1198.423,1198.923,1199.173,1208.857,space,9.678,,1208.858,22,58,1209.856,1209.856,1209.883,,,,0,42,42,42,1,145,45,,,,,,,,
,,5f627ac87d0e5f2efb944c9e,65af55cc1410b53e6cb37416,2024-01-23_24h01.41.466,bars,2023.2.3,Win32,58.82352941,657b66ea316d21385b68909f,,,,,,,,,,,1209.883,1210.873,,,1211.373,1211.623,,68,68,,,,,,,,,,,,,,,,bars/023.png,bars/mask001.png,,,,,,,,,,,,0,2,,,,,,,6,10,5,9,,,,,,,,,,,1210.873,1211.373,1211.623,1218.156,space,6.52,,1218.157,48,47,1219.156,1219.156,1219.191,,,,0,43,43,43,1,20,115,,,,,,,,
,,5f627ac87d0e5f2efb944c9e,65af55cc1410b53e6cb37416,2024-01-23_24h01.41.466,bars,2023.2.3,Win32,58.82352941,657b66ea316d21385b68909f,,,,,,,,,,,1219.192,1220.189,,,1220.689,1220.939,,165,-15,,,,,,,,,,,,,,,,bars/016.png,bars/mask007.png,,,,,,,,,,,,6,2,,,,,,,4,8,4,6,,,,,,,,,,,1220.189,1220.689,1220.939,1236.038,space,15.083,,1236.038,55,0,1237.038,1237.038,1237.066,,,,0,44,44,44,1,40,165,,,,,,,,
,,5f627ac87d0e5f2efb944c9e,65af55cc1410b53e6cb37416,2024-01-23_24h01.41.466,bars,2023.2.3,Win32,58.82352941,657b66ea316d21385b68909f,,,,,,,,,,,1237.066,1238.054,,,1238.542,1238.788,,97,-83,,,,,,,,,,,,,,,,bars/018.png,bars/mask006.png,,,,,,,,,,,,6,2,,,,,,,6,10,6,8,,,,,,,,,,,1238.056,1238.542,1238.789,1244.577,space,5.768,,1244.578,53,7,1245.572,1245.572,1245.599,,,,0,45,45,45,1,150,90,,,,,,,,
,,5f627ac87d0e5f2efb944c9e,65af55cc1410b53e6cb37416,2024-01-23_24h01.41.466,bars,2023.2.3,Win32,58.82352941,657b66ea316d21385b68909f,,,,,,,,,,,1245.6,1246.604,,,1247.104,1247.354,,175,175,,,,,,,,,,,,,,,,bars/040.png,bars/mask008.png,,,,,,,,,,,,7,2,,,,,,,8,10,9,10,,,,,,,,,,,1246.604,1247.104,1247.354,1257.171,space,9.809,,1257.171,35,10,1258.171,1258.171,1258.193,,,,0,46,46,46,1,140,5,,,,,,,,
,,5f627ac87d0e5f2efb944c9e,65af55cc1410b53e6cb37416,2024-01-23_24h01.41.466,bars,2023.2.3,Win32,58.82352941,657b66ea316d21385b68909f,,,,,,,,,,,1258.193,1259.188,,,1259.687,1259.937,,42,42,,,,,,,,,,,,,,,,bars/009.png,bars/mask008.png,,,,,,,,,,,,1,1,,,,,,,10,8,10,8,,,,,,,,,,,1259.188,1259.687,1259.937,1267.654,space,7.707,,1267.654,27,63,1268.654,1268.654,1268.683,,,,0,47,47,47,1,15,105,,,,,,,,
,,5f627ac87d0e5f2efb944c9e,65af55cc1410b53e6cb37416,2024-01-23_24h01.41.466,bars,2023.2.3,Win32,58.82352941,657b66ea316d21385b68909f,,,,,,,,,,,1268.683,1269.687,,,1270.186,1270.436,,48,48,,,,,,,,,,,,,,,,bars/038.png,bars/mask006.png,,,,,,,,,,,,2,2,,,,,,,10,6,10,7,,,,,,,,,,,1269.687,1270.186,1270.436,1274.687,space,4.241,,1274.687,63,22,1275.686,1275.686,1275.717,,,,0,48,48,48,1,165,70,,,,,,,,
,,5f627ac87d0e5f2efb944c9e,65af55cc1410b53e6cb37416,2024-01-23_24h01.41.466,bars,2023.2.3,Win32,58.82352941,657b66ea316d21385b68909f,,,,,,,,,,,1275.717,1276.719,,,1277.22,1277.47,,52,52,,,,,,,,,,,,,,,,bars/041.png,bars/mask004.png,,,,,,,,,,,,0,1,,,,,,,8,8,8,7,,,,,,,,,,,1276.72,1277.22,1277.47,1280.37,space,2.884,,1280.37,32,33,1281.369,1281.37,1281.404,,,,0,49,49,49,1,20,85,,,,,,,,
,,5f627ac87d0e5f2efb944c9e,65af55cc1410b53e6cb37416,2024-01-23_24h01.41.466,bars,2023.2.3,Win32,58.82352941,657b66ea316d21385b68909f,,,,,,,,,,,,,,,,,,,,,,,,,,,,,,,,,,,,,,,,,,,,,,,,,,,,,,,,,,,,,,,,,,,,,,,,,,,,,,,,,,,,,,,,,,,,,1281.405,1341.401,0,1,1,3,1,sequence_tables/blk032.csv
,,5f627ac87d0e5f2efb944c9e,65af55cc1410b53e6cb37416,2024-01-23_24h01.41.466,bars,2023.2.3,Win32,58.82352941,657b66ea316d21385b68909f,,,,,,,,,,,1350.099,1351.083,,,1351.583,1351.832,,104,104,,,,,,,,,,,,,,,,bars/002.png,bars/mask004.png,,,,,,,,,,,,1,2,,,,,,,3,2,6,4,,,,,,1341.43,1350.068,space,8.625,,1351.083,1351.583,1351.833,1356.283,space,4.438,,1356.283,26,19,1357.283,1357.283,1357.311,,,,0,0,0,0,1,130,85,,,,,,,,
,,5f627ac87d0e5f2efb944c9e,65af55cc1410b53e6cb37416,2024-01-23_24h01.41.466,bars,2023.2.3,Win32,58.82352941,657b66ea316d21385b68909f,,,,,,,,,,,1357.312,1358.316,,,1358.804,1359.05,,61,61,,,,,,,,,,,,,,,,bars/042.png,bars/mask004.png,,,,,,,,,,,,2,2,,,,,,,1,4,1,4,,,,,,,,,,,1358.316,1358.804,1359.05,1361.338,space,2.267,,1361.338,84,14,1362.332,1362.332,1362.364,,,,0,1,1,1,1,145,75,,,,,,,,
,,5f627ac87d0e5f2efb944c9e,65af55cc1410b53e6cb37416,2024-01-23_24h01.41.466,bars,2023.2.3,Win32,58.82352941,657b66ea316d21385b68909f,,,,,,,,,,,1362.364,1363.366,,,1363.866,1364.115,,126,126,,,,,,,,,,,,,,,,bars/000.png,bars/mask005.png,,,,,,,,,,,,2,2,,,,,,,3,6,4,5,,,,,,,,,,,1363.366,1363.866,1364.116,1367.132,space,3.002,,1367.133,86,19,1368.132,1368.132,1368.165,,,,0,2,2,2,1,40,145,,,,,,,,
,,5f627ac87d0e5f2efb944c9e,65af55cc1410b53e6cb37416,2024-01-23_24h01.41.466,bars,2023.2.3,Win32,58.82352941,657b66ea316d21385b68909f,,,,,,,,,,,1368.166,1369.165,,,1369.666,1369.916,,24,24,,,,,,,,,,,,,,,,bars/041.png,bars/mask004.png,,,,,,,,,,,,4,1,,,,,,,5,4,5,4,,,,,,,,,,,1369.166,1369.666,1369.916,1373.25,space,3.323,,1373.25,4,61,1374.248,1374.248,1374.28,,,,0,3,3,3,1,20,85,,,,,,,,
,,5f627ac87d0e5f2efb944c9e,65af55cc1410b53e6cb37416,2024-01-23_24h01.41.466,bars,2023.2.3,Win32,58.82352941,657b66ea316d21385b68909f,,,,,,,,,,,1374.28,1375.282,,,1375.782,1376.031,,20,20,,,,,,,,,,,,,,,,bars/017.png,bars/mask000.png,,,,,,,,,,,,1,2,,,,,,,3,6,3,6,,,,,,,,,,,1375.282,1375.782,1376.031,1380.849,space,4.809,,1380.849,55,25,1381.848,1381.848,1381.872,,,,0,4,4,4,1,145,45,,,,,,,,
,,5f627ac87d0e5f2efb944c9e,65af55cc1410b53e6cb37416,2024-01-23_24h01.41.466,bars,2023.2.3,Win32,58.82352941,657b66ea316d21385b68909f,,,,,,,,,,,1381.872,1382.865,,,1383.37,1383.615,,168,-12,,,,,,,,,,,,,,,,bars/033.png,bars/mask009.png,,,,,,,,,,,,5,2,,,,,,,5,8,4,8,,,,,,,,,,,1382.865,1383.37,1383.615,1396.436,space,12.801,,1396.436,37,13,1397.434,1397.434,1397.465,,,,0,5,5,5,1,25,155,,,,,,,,
,,5f627ac87d0e5f2efb944c9e,65af55cc1410b53e6cb37416,2024-01-23_24h01.41.466,bars,2023.2.3,Win32,58.82352941,657b66ea316d21385b68909f,,,,,,,,,,,1397.466,1398.464,,,1398.964,1399.213,,42,222,,,,,,,,,,,,,,,,bars/031.png,bars/mask004.png,,,,,,,,,,,,5,2,,,,,,,3,6,2,6,,,,,,,,,,,1398.464,1398.964,1399.213,1408.48,space,9.253,,1408.48,78,7,1409.48,1409.48,1409.504,,,,0,6,6,6,1,120,35,,,,,,,,
,,5f627ac87d0e5f2efb944c9e,65af55cc1410b53e6cb37416,2024-01-23_24h01.41.466,bars,2023.2.3,Win32,58.82352941,657b66ea316d21385b68909f,,,,,,,,,,,1409.504,1410.501,,,1410.997,1411.247,,64,64,,,,,,,,,,,,,,,,bars/026.png,bars/mask000.png,,,,,,,,,,,,1,2,,,,,,,1,4,2,4,,,,,,,,,,,1410.501,1410.997,1411.247,1417.685,space,6.419,,1417.686,29,21,1418.681,1418.681,1418.705,,,,0,7,7,7,1,35,85,,,,,,,,
,,5f627ac87d0e5f2efb944c9e,65af55cc1410b53e6cb37416,2024-01-23_24h01.41.466,bars,2023.2.3,Win32,58.82352941,657b66ea316d21385b68909f,,,,,,,,,,,1418.706,1419.697,,,1420.197,1420.449,,71,71,,,,,,,,,,,,,,,,bars/027.png,bars/mask005.png,,,,,,,,,,,,1,2,,,,,,,0,2,0,2,,,,,,,,,,,1419.697,1420.197,1420.449,1428.435,space,7.969,,1428.435,39,21,1429.43,1429.43,1429.458,,,,0,8,8,8,1,110,50,,,,,,,,
,,5f627ac87d0e5f2efb944c9e,65af55cc1410b53e6cb37416,2024-01-23_24h01.41.466,bars,2023.2.3,Win32,58.82352941,657b66ea316d21385b68909f,,,,,,,,,,,1429.458,1430.462,,,1430.963,1431.213,,26,206,,,,,,,,,,,,,,,,bars/013.png,bars/mask003.png,,,,,,,,,,,,1,2,,,,,,,0,4,0,3,,,,,,,,,,,1430.462,1430.963,1431.213,1435.812,space,4.587,,1435.812,49,16,1436.812,1436.812,1436.839,,,,0,9,9,9,1,75,10,,,,,,,,
,,5f627ac87d0e5f2efb944c9e,65af55cc1410b53e6cb37416,2024-01-23_24h01.41.466,bars,2023.2.3,Win32,58.82352941,657b66ea316d21385b68909f,,,,,,,,,,,1436.839,1437.829,,,1438.329,1438.579,,97,97,,,,,,,,,,,,,,,,bars/039.png,bars/mask007.png,,,,,,,,,,,,4,2,,,,,,,0,6,0,5,,,,,,,,,,,1437.83,1438.328,1438.579,1449.05,space,10.451,,1449.05,78,8,1450.048,1450.049,1450.059,,,,0,10,10,10,1,175,105,,,,,,,,
,,5f627ac87d0e5f2efb944c9e,65af55cc1410b53e6cb37416,2024-01-23_24h01.41.466,bars,2023.2.3,Win32,58.82352941,657b66ea316d21385b68909f,,,,,,,,,,,1450.06,1451.05,,,1451.55,1451.795,,18,198,,,,,,,,,,,,,,,,bars/035.png,bars/mask005.png,,,,,,,,,,,,0,1,,,,,,,0,8,0,9,,,,,,,,,,,1451.05,1451.55,1451.795,1454.634,space,2.819,,1454.634,23,42,1455.632,1455.632,1455.661,,,,0,11,11,11,1,175,60,,,,,,,,
,,5f627ac87d0e5f2efb944c9e,65af55cc1410b53e6cb37416,2024-01-23_24h01.41.466,bars,2023.2.3,Win32,58.82352941,657b66ea316d21385b68909f,,,,,,,,,,,1455.661,1456.662,,,1457.162,1457.412,,63,63,,,,,,,,,,,,,,,,bars/010.png,bars/mask005.png,,,,,,,,,,,,7,2,,,,,,,2,10,2,9,,,,,,,,,,,1456.663,1457.161,1457.412,1461.863,space,4.443,,1461.863,78,8,1462.861,1462.861,1462.89,,,,0,12,12,12,1,165,55,,,,,,,,
,,5f627ac87d0e5f2efb944c9e,65af55cc1410b53e6cb37416,2024-01-23_24h01.41.466,bars,2023.2.3,Win32,58.82352941,657b66ea316d21385b68909f,,,,,,,,,,,1462.891,1463.894,,,1464.394,1464.644,,35,35,,,,,,,,,,,,,,,,bars/043.png,bars/mask005.png,,,,,,,,,,,,0,1,,,,,,,0,10,0,10,,,,,,,,,,,1463.894,1464.394,1464.644,1466.744,space,2.091,,1466.744,5,85,1467.744,1467.745,1467.75,,,,0,13,13,13,1,30,130,,,,,,,,
,,5f627ac87d0e5f2efb944c9e,65af55cc1410b53e6cb37416,2024-01-23_24h01.41.466,bars,2023.2.3,Win32,58.82352941,657b66ea316d21385b68909f,,,,,,,,,,,1467.751,1468.744,,,1469.244,1469.494,,42,222,,,,,,,,,,,,,,,,bars/010.png,bars/mask002.png,,,,,,,,,,,,6,2,,,,,,,0,10,0,10,,,,,,,,,,,1468.744,1469.244,1469.494,1474.711,space,5.208,,1474.711,57,13,1475.71,1475.71,1475.742,,,,0,14,14,14,1,165,55,,,,,,,,
,,5f627ac87d0e5f2efb944c9e,65af55cc1410b53e6cb37416,2024-01-23_24h01.41.466,bars,2023.2.3,Win32,58.82352941,657b66ea316d21385b68909f,,,,,,,,,,,1475.742,1476.743,,,1477.248,1477.498,,42,42,,,,,,,,,,,,,,,,bars/044.png,bars/mask007.png,,,,,,,,,,,,0,1,,,,,,,2,8,3,8,,,,,,,,,,,1476.744,1477.248,1477.498,1482.866,space,5.352,,1482.866,33,67,1483.86,1483.861,1483.889,,,,0,15,15,15,1,75,155,,,,,,,,
,,5f627ac87d0e5f2efb944c9e,65af55cc1410b53e6cb37416,2024-01-23_24h01.41.466,bars,2023.2.3,Win32,58.82352941,657b66ea316d21385b68909f,,,,,,,,,,,1483.89,1484.893,,,1485.393,1485.643,,7,187,,,,,,,,,,,,,,,,bars/025.png,bars/mask000.png,,,,,,,,,,,,0,2,,,,,,,0,6,0,5,,,,,,,,,,,1484.893,1485.393,1485.643,1487.877,space,2.222,,1487.877,82,33,1488.877,1488.877,1488.906,,,,0,16,16,16,1,105,40,,,,,,,,
,,5f627ac87d0e5f2efb944c9e,65af55cc1410b53e6cb37416,2024-01-23_24h01.41.466,bars,2023.2.3,Win32,58.82352941,657b66ea316d21385b68909f,,,,,,,,,,,1488.906,1489.91,,,1490.41,1490.66,,64,64,,,,,,,,,,,,,,,,bars/027.png,bars/mask004.png,,,,,,,,,,,,2,2,,,,,,,2,4,2,3,,,,,,,,,,,1489.91,1490.41,1490.66,1496.494,space,5.82,,1496.494,46,14,1497.492,1497.493,1497.511,,,,0,17,17,17,1,110,50,,,,,,,,
,,5f627ac87d0e5f2efb944c9e,65af55cc1410b53e6cb37416,2024-01-23_24h01.41.466,bars,2023.2.3,Win32,58.82352941,657b66ea316d21385b68909f,,,,,,,,,,,1497.511,1498.511,,,1499.011,1499.26,,105,105,,,,,,,,,,,,,,,,bars/018.png,bars/mask009.png,,,,,,,,,,,,4,2,,,,,,,0,6,1,7,,,,,,,,,,,1498.511,1499.011,1499.26,1504.459,space,5.186,,1504.459,45,15,1505.458,1505.459,1505.474,,,,0,18,18,18,1,150,90,,,,,,,,
,,5f627ac87d0e5f2efb944c9e,65af55cc1410b53e6cb37416,2024-01-23_24h01.41.466,bars,2023.2.3,Win32,58.82352941,657b66ea316d21385b68909f,,,,,,,,,,,1505.474,1506.476,,,1506.976,1507.226,,83,83,,,,,,,,,,,,,,,,bars/011.png,bars/mask000.png,,,,,,,,,,,,7,2,,,,,,,2,8,2,8,,,,,,,,,,,1506.476,1506.976,1507.226,1510.209,space,2.972,,1510.209,77,2,1511.208,1511.208,1511.223,,,,0,19,19,19,1,160,85,,,,,,,,
,,5f627ac87d0e5f2efb944c9e,65af55cc1410b53e6cb37416,2024-01-23_24h01.41.466,bars,2023.2.3,Win32,58.82352941,657b66ea316d21385b68909f,,,,,,,,,,,1511.223,1512.225,,,1512.726,1512.975,,104,104,,,,,,,,,,,,,,,,bars/023.png,bars/mask003.png,,,,,,,,,,,,5,2,,,,,,,4,6,4,8,,,,,,,,,,,1512.225,1512.726,1512.975,1517.293,space,4.301,,1517.293,84,11,1518.292,1518.292,1518.316,,,,0,20,20,20,1,20,115,,,,,,,,
,,5f627ac87d0e5f2efb944c9e,65af55cc1410b53e6cb37416,2024-01-23_24h01.41.466,bars,2023.2.3,Win32,58.82352941,657b66ea316d21385b68909f,,,,,,,,,,,1518.316,1519.31,,,1519.809,1520.058,,38,38,,,,,,,,,,,,,,,,bars/045.png,bars/mask007.png,,,,,,,,,,,,0,2,,,,,,,6,4,6,4,,,,,,,,,,,1519.31,1519.809,1520.058,1528.475,space,8.405,,1528.475,62,28,1529.475,1529.475,1529.507,,,,0,21,21,21,1,100,10,,,,,,,,
,,5f627ac87d0e5f2efb944c9e,65af55cc1410b53e6cb37416,2024-01-23_24h01.41.466,bars,2023.2.3,Win32,58.82352941,657b66ea316d21385b68909f,,,,,,,,,,,1529.508,1530.508,,,1531.008,1531.258,,72,72,,,,,,,,,,,,,,,,bars/027.png,bars/mask003.png,,,,,,,,,,,,1,2,,,,,,,8,2,8,2,,,,,,,,,,,1530.508,1531.008,1531.258,1534.925,space,3.652,,1534.925,38,22,1535.924,1535.924,1535.952,,,,0,22,22,22,1,110,50,,,,,,,,
,,5f627ac87d0e5f2efb944c9e,65af55cc1410b53e6cb37416,2024-01-23_24h01.41.466,bars,2023.2.3,Win32,58.82352941,657b66ea316d21385b68909f,,,,,,,,,,,1535.952,1536.943,,,1537.446,1537.695,,54,54,,,,,,,,,,,,,,,,bars/044.png,bars/mask004.png,,,,,,,,,,,,2,1,,,,,,,6,4,6,6,,,,,,,,,,,1536.943,1537.446,1537.695,1541.197,space,3.485,,1541.197,21,79,1542.195,1542.196,1542.227,,,,0,23,23,23,1,75,155,,,,,,,,
,,5f627ac87d0e5f2efb944c9e,65af55cc1410b53e6cb37416,2024-01-23_24h01.41.466,bars,2023.2.3,Win32,58.82352941,657b66ea316d21385b68909f,,,,,,,,,,,1542.227,1543.224,,,1543.729,1543.974,,162,162,,,,,,,,,,,,,,,,bars/009.png,bars/mask006.png,,,,,,,,,,,,0,1,,,,,,,4,2,3,1,,,,,,,,,,,1543.224,1543.729,1543.975,1546.613,space,2.617,,1546.613,33,57,1547.607,1547.607,1547.61,,,,0,24,24,24,1,15,105,,,,,,,,
,,5f627ac87d0e5f2efb944c9e,65af55cc1410b53e6cb37416,2024-01-23_24h01.41.466,bars,2023.2.3,Win32,58.82352941,657b66ea316d21385b68909f,,,,,,,,,,,1547.611,1548.612,,,1549.112,1549.357,,131,131,,,,,,,,,,,,,,,,bars/033.png,bars/mask004.png,,,,,,,,,,,,0,2,,,,,,,2,4,2,2,,,,,,,,,,,1548.612,1549.112,1549.357,1555.263,space,5.885,,1555.263,74,24,1556.257,1556.257,1556.284,,,,0,25,25,25,1,25,155,,,,,,,,
,,5f627ac87d0e5f2efb944c9e,65af55cc1410b53e6cb37416,2024-01-23_24h01.41.466,bars,2023.2.3,Win32,58.82352941,657b66ea316d21385b68909f,,,,,,,,,,,1556.285,1557.273,,,1557.774,1558.023,,71,71,,,,,,,,,,,,,,,,bars/046.png,bars/mask009.png,,,,,,,,,,,,3,2,,,,,,,4,6,4,6,,,,,,,,,,,1557.273,1557.773,1558.023,1560.473,space,2.436,,1560.473,84,14,1561.473,1561.473,1561.502,,,,0,26,26,26,1,155,85,,,,,,,,
,,5f627ac87d0e5f2efb944c9e,65af55cc1410b53e6cb37416,2024-01-23_24h01.41.466,bars,2023.2.3,Win32,58.82352941,657b66ea316d21385b68909f,,,,,,,,,,,1561.502,1562.506,,,1563.006,1563.256,,22,202,,,,,,,,,,,,,,,,bars/007.png,bars/mask006.png,,,,,,,,,,,,0,1,,,,,,,2,4,1,1,,,,,,,,,,,1562.506,1563.006,1563.256,1566.49,space,3.22,,1566.49,27,33,1567.49,1567.49,1567.522,,,,0,27,27,27,1,175,55,,,,,,,,
,,5f627ac87d0e5f2efb944c9e,65af55cc1410b53e6cb37416,2024-01-23_24h01.41.466,bars,2023.2.3,Win32,58.82352941,657b66ea316d21385b68909f,,,,,,,,,,,1567.522,1568.523,,,1569.023,1569.273,,80,80,,,,,,,,,,,,,,,,bars/026.png,bars/mask002.png,,,,,,,,,,,,3,2,,,,,,,4,2,5,3,,,,,,,,,,,1568.523,1569.023,1569.273,1572.623,space,3.337,,1572.623,45,5,1573.622,1573.622,1573.65,,,,0,28,28,28,1,35,85,,,,,,,,
,,5f627ac87d0e5f2efb944c9e,65af55cc1410b53e6cb37416,2024-01-23_24h01.41.466,bars,2023.2.3,Win32,58.82352941,657b66ea316d21385b68909f,,,,,,,,,,,1573.65,1574.64,,,1575.14,1575.393,,51,51,,,,,,,,,,,,,,,,bars/035.png,bars/mask008.png,,,,,,,,,,,,0,2,,,,,,,2,0,3,0,,,,,,,,,,,1574.64,1575.14,1575.393,1577.895,space,2.484,,1577.895,56,9,1578.889,1578.889,1578.91,,,,0,29,29,29,1,175,60,,,,,,,,
,,5f627ac87d0e5f2efb944c9e,65af55cc1410b53e6cb37416,2024-01-23_24h01.41.466,bars,2023.2.3,Win32,58.82352941,657b66ea316d21385b68909f,,,,,,,,,,,1578.911,1579.906,,,1580.411,1580.66,,57,57,,,,,,,,,,,,,,,,bars/001.png,bars/mask002.png,,,,,,,,,,,,0,2,,,,,,,0,0,2,0,,,,,,,,,,,1579.906,1580.411,1580.66,1584.36,space,3.683,,1584.36,73,28,1585.36,1585.36,1585.394,,,,0,30,30,30,1,130,85,,,,,,,,
,,5f627ac87d0e5f2efb944c9e,65af55cc1410b53e6cb37416,2024-01-23_24h01.41.466,bars,2023.2.3,Win32,58.82352941,657b66ea316d21385b68909f,,,,,,,,,,,1585.395,1586.389,,,1586.888,1587.143,,159,159,,,,,,,,,,,,,,,,bars/023.png,bars/mask007.png,,,,,,,,,,,,0,1,,,,,,,2,0,1,0,,,,,,,,,,,1586.389,1586.888,1587.143,1589.628,space,2.468,,1589.628,41,44,1590.626,1590.626,1590.661,,,,0,31,31,31,1,20,115,,,,,,,,
,,5f627ac87d0e5f2efb944c9e,65af55cc1410b53e6cb37416,2024-01-23_24h01.41.466,bars,2023.2.3,Win32,58.82352941,657b66ea316d21385b68909f,,,,,,,,,,,1590.662,1591.655,,,1592.155,1592.404,,169,169,,,,,,,,,,,,,,,,bars/033.png,bars/mask005.png,,,,,,,,,,,,0,2,,,,,,,0,0,0,0,,,,,,,,,,,1591.655,1592.155,1592.405,1596.121,space,3.701,,1596.121,36,14,1597.122,1597.122,1597.151,,,,0,32,32,32,1,25,155,,,,,,,,
,,5f627ac87d0e5f2efb944c9e,65af55cc1410b53e6cb37416,2024-01-23_24h01.41.466,bars,2023.2.3,Win32,58.82352941,657b66ea316d21385b68909f,,,,,,,,,,,1597.151,1598.154,,,1598.655,1598.893,,35,215,,,,,,,,,,,,,,,,bars/009.png,bars/mask001.png,,,,,,,,,,,,0,1,,,,,,,0,2,0,2,,,,,,,,,,,1598.154,1598.654,1598.893,1604.361,space,5.451,,1604.361,20,70,1605.355,1605.355,1605.386,,,,0,33,33,33,1,15,105,,,,,,,,
,,5f627ac87d0e5f2efb944c9e,65af55cc1410b53e6cb37416,2024-01-23_24h01.41.466,bars,2023.2.3,Win32,58.82352941,657b66ea316d21385b68909f,,,,,,,,,,,1605.386,1606.388,,,1606.888,1607.137,,109,-71,,,,,,,,,,,,,,,,bars/006.png,bars/mask002.png,,,,,,,,,,,,1,2,,,,,,,2,0,2,1,,,,,,,,,,,1606.388,1606.888,1607.137,1613.194,space,6.049,,1613.194,74,9,1614.191,1614.191,1614.21,,,,0,34,34,34,1,35,100,,,,,,,,
,,5f627ac87d0e5f2efb944c9e,65af55cc1410b53e6cb37416,2024-01-23_24h01.41.466,bars,2023.2.3,Win32,58.82352941,657b66ea316d21385b68909f,,,,,,,,,,,1614.21,1615.205,,,1615.706,1615.954,,128,128,,,,,,,,,,,,,,,,bars/049.png,bars/mask004.png,,,,,,,,,,,,1,2,,,,,,,0,2,0,1,,,,,,,,,,,1615.205,1615.706,1615.954,1618.959,space,2.984,,1618.959,32,13,1619.959,1619.959,1619.987,,,,0,35,35,35,1,160,115,,,,,,,,
,,5f627ac87d0e5f2efb944c9e,65af55cc1410b53e6cb37416,2024-01-23_24h01.41.466,bars,2023.2.3,Win32,58.82352941,657b66ea316d21385b68909f,,,,,,,,,,,1619.987,1620.986,,,1621.487,1621.737,,139,139,,,,,,,,,,,,,,,,bars/049.png,bars/mask001.png,,,,,,,,,,,,1,1,,,,,,,2,0,3,0,,,,,,,,,,,1620.986,1621.487,1621.737,1627.222,space,5.469,,1627.222,21,24,1628.22,1628.22,1628.246,,,,0,36,36,36,1,160,115,,,,,,,,
,,5f627ac87d0e5f2efb944c9e,65af55cc1410b53e6cb37416,2024-01-23_24h01.41.466,bars,2023.2.3,Win32,58.82352941,657b66ea316d21385b68909f,,,,,,,,,,,1628.246,1629.237,,,1629.738,1629.987,,41,41,,,,,,,,,,,,,,,,bars/030.png,bars/mask006.png,,,,,,,,,,,,0,2,,,,,,,4,2,5,1,,,,,,,,,,,1629.237,1629.738,1629.987,1634.071,space,4.073,,1634.071,81,24,1635.072,1635.072,1635.101,,,,0,37,37,37,1,140,65,,,,,,,,
,,5f627ac87d0e5f2efb944c9e,65af55cc1410b53e6cb37416,2024-01-23_24h01.41.466,bars,2023.2.3,Win32,58.82352941,657b66ea316d21385b68909f,,,,,,,,,,,1635.101,1636.103,,,1636.603,1636.853,,35,35,,,,,,,,,,,,,,,,bars/022.png,bars/mask000.png,,,,,,,,,,,,3,2,,,,,,,2,4,2,5,,,,,,,,,,,1636.104,1636.603,1636.853,1640.905,space,4.045,,1640.905,60,15,1641.903,1641.903,1641.917,,,,0,38,38,38,1,95,20,,,,,,,,
,,5f627ac87d0e5f2efb944c9e,65af55cc1410b53e6cb37416,2024-01-23_24h01.41.466,bars,2023.2.3,Win32,58.82352941,657b66ea316d21385b68909f,,,,,,,,,,,1641.918,1642.922,,,1643.419,1643.67,,119,119,,,,,,,,,,,,,,,,bars/023.png,bars/mask006.png,,,,,,,,,,,,5,2,,,,,,,4,6,3,6,,,,,,,,,,,1642.922,1643.419,1643.67,1646.786,space,3.109,,1646.786,81,4,1647.785,1647.785,1647.8,,,,0,39,39,39,1,20,115,,,,,,,,
,,5f627ac87d0e5f2efb944c9e,65af55cc1410b53e6cb37416,2024-01-23_24h01.41.466,bars,2023.2.3,Win32,58.82352941,657b66ea316d21385b68909f,,,,,,,,,,,1647.8,1648.802,,,1649.302,1649.553,,65,65,,,,,,,,,,,,,,,,bars/047.png,bars/mask002.png,,,,,,,,,,,,3,2,,,,,,,2,4,1,3,,,,,,,,,,,1648.802,1649.302,1649.553,1652.519,space,2.955,,1652.519,50,5,1653.519,1653.519,1653.546,,,,0,40,40,40,1,15,70,,,,,,,,
,,5f627ac87d0e5f2efb944c9e,65af55cc1410b53e6cb37416,2024-01-23_24h01.41.466,bars,2023.2.3,Win32,58.82352941,657b66ea316d21385b68909f,,,,,,,,,,,1653.546,1654.541,,,1655.04,1655.285,,27,207,,,,,,,,,,,,,,,,bars/007.png,bars/mask008.png,,,,,,,,,,,,0,2,,,,,,,4,2,3,2,,,,,,,,,,,1654.541,1655.04,1655.285,1658.29,space,2.982,,1658.29,32,28,1659.285,1659.285,1659.313,,,,0,41,41,41,1,175,55,,,,,,,,
,,5f627ac87d0e5f2efb944c9e,65af55cc1410b53e6cb37416,2024-01-23_24h01.41.466,bars,2023.2.3,Win32,58.82352941,657b66ea316d21385b68909f,,,,,,,,,,,1659.313,1660.303,,,1660.802,1661.051,,119,119,,,,,,,,,,,,,,,,bars/029.png,bars/mask009.png,,,,,,,,,,,,0,1,,,,,,,6,0,7,1,,,,,,,,,,,1660.303,1660.802,1661.052,1663.419,space,2.354,,1663.419,29,74,1664.419,1664.419,1664.454,,,,0,42,42,42,1,90,45,,,,,,,,
,,5f627ac87d0e5f2efb944c9e,65af55cc1410b53e6cb37416,2024-01-23_24h01.41.466,bars,2023.2.3,Win32,58.82352941,657b66ea316d21385b68909f,,,,,,,,,,,1664.454,1665.451,,,1665.952,1666.202,,83,83,,,,,,,,,,,,,,,,bars/012.png,bars/mask003.png,,,,,,,,,,,,5,1,,,,,,,4,0,6,0,,,,,,,,,,,1665.451,1665.952,1666.202,1669.236,space,3.018,,1669.236,7,68,1670.235,1670.235,1670.257,,,,0,43,43,43,1,90,15,,,,,,,,
,,5f627ac87d0e5f2efb944c9e,65af55cc1410b53e6cb37416,2024-01-23_24h01.41.466,bars,2023.2.3,Win32,58.82352941,657b66ea316d21385b68909f,,,,,,,,,,,1670.257,1671.252,,,1671.752,1672.002,,113,113,,,,,,,,,,,,,,,,bars/018.png,bars/mask003.png,,,,,,,,,,,,0,2,,,,,,,2,0,2,0,,,,,,,,,,,1671.252,1671.752,1672.002,1674.568,space,2.555,,1674.568,37,23,1675.568,1675.568,1675.593,,,,0,44,44,44,1,150,90,,,,,,,,
,,5f627ac87d0e5f2efb944c9e,65af55cc1410b53e6cb37416,2024-01-23_24h01.41.466,bars,2023.2.3,Win32,58.82352941,657b66ea316d21385b68909f,,,,,,,,,,,1675.594,1676.587,,,1677.084,1677.322,,30,210,,,,,,,,,,,,,,,,bars/013.png,bars/mask001.png,,,,,,,,,,,,1,2,,,,,,,0,0,0,2,,,,,,,,,,,1676.587,1677.084,1677.323,1685.868,space,8.527,,1685.868,45,20,1686.87,1686.87,1686.88,,,,0,45,45,45,1,75,10,,,,,,,,
,,5f627ac87d0e5f2efb944c9e,65af55cc1410b53e6cb37416,2024-01-23_24h01.41.466,bars,2023.2.3,Win32,58.82352941,657b66ea316d21385b68909f,,,,,,,,,,,1686.88,1687.888,,,1688.383,1688.639,,41,221,,,,,,,,,,,,,,,,bars/047.png,bars/mask008.png,,,,,,,,,,,,0,1,,,,,,,2,2,2,1,,,,,,,,,,,1687.888,1688.383,1688.639,1693.089,space,4.434,,1693.09,26,29,1694.088,1694.089,1694.123,,,,0,46,46,46,1,15,70,,,,,,,,
,,5f627ac87d0e5f2efb944c9e,65af55cc1410b53e6cb37416,2024-01-23_24h01.41.466,bars,2023.2.3,Win32,58.82352941,657b66ea316d21385b68909f,,,,,,,,,,,1694.123,1695.117,,,1695.616,1695.867,,123,123,,,,,,,,,,,,,,,,bars/031.png,bars/mask005.png,,,,,,,,,,,,5,1,,,,,,,4,0,5,1,,,,,,,,,,,1695.117,1695.616,1695.867,1701.367,space,5.489,,1701.367,3,88,1702.366,1702.366,1702.381,,,,0,47,47,47,1,120,35,,,,,,,,
,,5f627ac87d0e5f2efb944c9e,65af55cc1410b53e6cb37416,2024-01-23_24h01.41.466,bars,2023.2.3,Win32,58.82352941,657b66ea316d21385b68909f,,,,,,,,,,,1702.382,1703.384,,,1703.883,1704.133,,72,72,,,,,,,,,,,,,,,,bars/022.png,bars/mask006.png,,,,,,,,,,,,2,1,,,,,,,6,2,7,3,,,,,,,,,,,1703.384,1703.883,1704.133,1710.367,space,6.222,,1710.367,23,52,1711.366,1711.366,1711.398,,,,0,48,48,48,1,95,20,,,,,,,,
,,5f627ac87d0e5f2efb944c9e,65af55cc1410b53e6cb37416,2024-01-23_24h01.41.466,bars,2023.2.3,Win32,58.82352941,657b66ea316d21385b68909f,,,,,,,,,,,1711.4,1712.4,,,1712.9,1713.15,,32,32,,,,,,,,,,,,,,,,bars/025.png,bars/mask003.png,,,,,,,,,,,,3,2,,,,,,,4,4,3,4,,,,,,,,,,,1712.4,1712.9,1713.151,1717.366,space,4.208,,1717.366,73,8,1718.366,1718.366,1718.398,,,,0,49,49,49,1,105,40,,,,,,,,
,,5f627ac87d0e5f2efb944c9e,65af55cc1410b53e6cb37416,2024-01-23_24h01.41.466,bars,2023.2.3,Win32,58.82352941,657b66ea316d21385b68909f,,,,,,,,,,,,,,,,,,,,,,,,,,,,,,,,,,,,,,,,,,,,,,,,,,,,,,,,,,,,,,,,,,,,,,,,,,,,,,,,,,,,,,,,,,,,,1718.398,1778.401,0,2,2,0,1,sequence_tables/blk023.csv
,,5f627ac87d0e5f2efb944c9e,65af55cc1410b53e6cb37416,2024-01-23_24h01.41.466,bars,2023.2.3,Win32,58.82352941,657b66ea316d21385b68909f,,,,,,,,,,,1789.943,1790.93,,,1791.428,1791.679,,29,209,,,,,,,,,,,,,,,,bars/047.png,bars/mask000.png,,,,,,,,,,,,3,1,,,,,,,5,5,5,6,,,,,,1778.429,1789.914,space,11.472,,1790.93,1791.428,1791.679,1794.763,space,3.071,,1794.763,14,41,1795.762,1795.762,1795.793,,,,0,0,0,0,1,15,70,,,,,,,,
,,5f627ac87d0e5f2efb944c9e,65af55cc1410b53e6cb37416,2024-01-23_24h01.41.466,bars,2023.2.3,Win32,58.82352941,657b66ea316d21385b68909f,,,,,,,,,,,1795.793,1796.795,,,1797.296,1797.545,,103,103,,,,,,,,,,,,,,,,bars/008.png,bars/mask006.png,,,,,,,,,,,,1,1,,,,,,,3,3,1,3,,,,,,,,,,,1796.796,1797.296,1797.545,1800.495,space,2.935,,1800.496,7,77,1801.496,1801.496,1801.519,,,,0,1,1,1,1,110,0,,,,,,,,
,,5f627ac87d0e5f2efb944c9e,65af55cc1410b53e6cb37416,2024-01-23_24h01.41.466,bars,2023.2.3,Win32,58.82352941,657b66ea316d21385b68909f,,,,,,,,,,,1801.519,1802.512,,,1803.012,1803.261,,43,43,,,,,,,,,,,,,,,,bars/034.png,bars/mask007.png,,,,,,,,,,,,2,2,,,,,,,1,5,2,7,,,,,,,,,,,1802.512,1803.012,1803.261,1808.496,space,5.22,,1808.496,82,22,1809.495,1809.495,1809.505,,,,0,2,2,2,1,125,65,,,,,,,,
,,5f627ac87d0e5f2efb944c9e,65af55cc1410b53e6cb37416,2024-01-23_24h01.41.466,bars,2023.2.3,Win32,58.82352941,657b66ea316d21385b68909f,,,,,,,,,,,1809.505,1810.494,,,1810.994,1811.244,,150,150,,,,,,,,,,,,,,,,bars/000.png,bars/mask008.png,,,,,,,,,,,,8,2,,,,,,,0,7,0,9,,,,,,,,,,,1810.494,1810.994,1811.244,1815.745,space,4.485,,1815.746,70,5,1816.745,1816.745,1816.769,,,,0,3,3,3,1,40,145,,,,,,,,
,,5f627ac87d0e5f2efb944c9e,65af55cc1410b53e6cb37416,2024-01-23_24h01.41.466,bars,2023.2.3,Win32,58.82352941,657b66ea316d21385b68909f,,,,,,,,,,,1816.769,1817.762,,,1818.264,1818.515,,109,109,,,,,,,,,,,,,,,,bars/041.png,bars/mask005.png,,,,,,,,,,,,1,2,,,,,,,0,5,2,4,,,,,,,,,,,1817.762,1818.264,1818.515,1822.884,space,4.351,,1822.884,89,24,1823.878,1823.878,1823.907,,,,0,4,4,4,1,20,85,,,,,,,,
,,5f627ac87d0e5f2efb944c9e,65af55cc1410b53e6cb37416,2024-01-23_24h01.41.466,bars,2023.2.3,Win32,58.82352941,657b66ea316d21385b68909f,,,,,,,,,,,1823.907,1824.895,,,1825.394,1825.645,,38,38,,,,,,,,,,,,,,,,bars/022.png,bars/mask006.png,,,,,,,,,,,,3,2,,,,,,,2,7,3,8,,,,,,,,,,,1824.896,1825.394,1825.645,1828.312,space,2.656,,1828.312,57,18,1829.311,1829.311,1829.331,,,,0,5,5,5,1,95,20,,,,,,,,
,,5f627ac87d0e5f2efb944c9e,65af55cc1410b53e6cb37416,2024-01-23_24h01.41.466,bars,2023.2.3,Win32,58.82352941,657b66ea316d21385b68909f,,,,,,,,,,,1829.332,1830.327,,,1830.827,1831.077,,116,116,,,,,,,,,,,,,,,,bars/041.png,bars/mask005.png,,,,,,,,,,,,0,2,,,,,,,4,9,4,10,,,,,,,,,,,1830.327,1830.827,1831.077,1836.928,space,5.841,,1836.928,84,31,1837.927,1837.927,1837.954,,,,0,6,6,6,1,20,85,,,,,,,,
,,5f627ac87d0e5f2efb944c9e,65af55cc1410b53e6cb37416,2024-01-23_24h01.41.466,bars,2023.2.3,Win32,58.82352941,657b66ea316d21385b68909f,,,,,,,,,,,1837.954,1838.943,,,1839.448,1839.698,,141,141,,,,,,,,,,,,,,,,bars/043.png,bars/mask003.png,,,,,,,,,,,,6,2,,,,,,,2,10,1,9,,,,,,,,,,,1838.943,1839.448,1839.698,1842.966,space,3.252,,1842.966,69,11,1843.964,1843.964,1843.995,,,,0,7,7,7,1,30,130,,,,,,,,
,,5f627ac87d0e5f2efb944c9e,65af55cc1410b53e6cb37416,2024-01-23_24h01.41.466,bars,2023.2.3,Win32,58.82352941,657b66ea316d21385b68909f,,,,,,,,,,,1843.996,1844.994,,,1845.493,1845.744,,175,175,,,,,,,,,,,,,,,,bars/013.png,bars/mask002.png,,,,,,,,,,,,4,2,,,,,,,4,8,2,8,,,,,,,,,,,1844.994,1845.493,1845.744,1852.26,space,6.508,,1852.261,80,15,1853.26,1853.26,1853.29,,,,0,8,8,8,1,75,10,,,,,,,,
,,5f627ac87d0e5f2efb944c9e,65af55cc1410b53e6cb37416,2024-01-23_24h01.41.466,bars,2023.2.3,Win32,58.82352941,657b66ea316d21385b68909f,,,,,,,,,,,1853.29,1854.292,,,1854.793,1855.043,,111,111,,,,,,,,,,,,,,,,bars/045.png,bars/mask005.png,,,,,,,,,,,,4,1,,,,,,,6,6,7,7,,,,,,,,,,,1854.292,1854.792,1855.043,1860.376,space,5.325,,1860.377,11,79,1861.376,1861.376,1861.392,,,,0,9,9,9,1,100,10,,,,,,,,
,,5f627ac87d0e5f2efb944c9e,65af55cc1410b53e6cb37416,2024-01-23_24h01.41.466,bars,2023.2.3,Win32,58.82352941,657b66ea316d21385b68909f,,,,,,,,,,,1861.392,1862.392,,,1862.892,1863.143,,35,35,,,,,,,,,,,,,,,,bars/005.png,bars/mask000.png,,,,,,,,,,,,0,1,,,,,,,4,4,3,6,,,,,,,,,,,1862.392,1862.892,1863.143,1866.244,space,3.084,,1866.244,25,75,1867.242,1867.242,1867.272,,,,0,10,10,10,1,10,140,,,,,,,,
,,5f627ac87d0e5f2efb944c9e,65af55cc1410b53e6cb37416,2024-01-23_24h01.41.466,bars,2023.2.3,Win32,58.82352941,657b66ea316d21385b68909f,,,,,,,,,,,1867.272,1868.276,,,1868.776,1869.026,,51,231,,,,,,,,,,,,,,,,bars/019.png,bars/mask004.png,,,,,,,,,,,,5,1,,,,,,,6,6,6,8,,,,,,,,,,,1868.276,1868.776,1869.026,1872.292,space,3.258,,1872.292,6,54,1873.292,1873.292,1873.318,,,,0,11,11,11,1,45,105,,,,,,,,
,,5f627ac87d0e5f2efb944c9e,65af55cc1410b53e6cb37416,2024-01-23_24h01.41.466,bars,2023.2.3,Win32,58.82352941,657b66ea316d21385b68909f,,,,,,,,,,,1873.319,1874.313,,,1874.811,1875.058,,58,238,,,,,,,,,,,,,,,,bars/022.png,bars/mask006.png,,,,,,,,,,,,0,1,,,,,,,8,8,8,7,,,,,,,,,,,1874.314,1874.811,1875.059,1879.482,space,4.403,,1879.482,37,38,1880.48,1880.48,1880.498,,,,0,12,12,12,1,95,20,,,,,,,,
,,5f627ac87d0e5f2efb944c9e,65af55cc1410b53e6cb37416,2024-01-23_24h01.41.466,bars,2023.2.3,Win32,58.82352941,657b66ea316d21385b68909f,,,,,,,,,,,1880.498,1881.496,,,1881.996,1882.246,,65,65,,,,,,,,,,,,,,,,bars/020.png,bars/mask000.png,,,,,,,,,,,,0,1,,,,,,,10,6,10,3,,,,,,,,,,,1881.496,1881.996,1882.246,1884.98,space,2.719,,1884.981,50,75,1885.979,1885.979,1886.007,,,,0,13,13,13,1,115,170,,,,,,,,
,,5f627ac87d0e5f2efb944c9e,65af55cc1410b53e6cb37416,2024-01-23_24h01.41.466,bars,2023.2.3,Win32,58.82352941,657b66ea316d21385b68909f,,,,,,,,,,,1886.007,1887.008,,,1887.508,1887.758,,158,-22,,,,,,,,,,,,,,,,bars/045.png,bars/mask003.png,,,,,,,,,,,,0,2,,,,,,,10,4,8,5,,,,,,,,,,,1887.008,1887.508,1887.759,1891.675,space,3.908,,1891.675,58,32,1892.675,1892.675,1892.698,,,,0,14,14,14,1,100,10,,,,,,,,
,,5f627ac87d0e5f2efb944c9e,65af55cc1410b53e6cb37416,2024-01-23_24h01.41.466,bars,2023.2.3,Win32,58.82352941,657b66ea316d21385b68909f,,,,,,,,,,,1892.699,1893.691,,,1894.191,1894.442,,161,161,,,,,,,,,,,,,,,,bars/048.png,bars/mask002.png,,,,,,,,,,,,3,2,,,,,,,10,6,10,5,,,,,,,,,,,1893.691,1894.191,1894.442,1896.924,space,2.474,,1896.924,69,14,1897.924,1897.925,1897.926,,,,0,15,15,15,1,50,175,,,,,,,,
,,5f627ac87d0e5f2efb944c9e,65af55cc1410b53e6cb37416,2024-01-23_24h01.41.466,bars,2023.2.3,Win32,58.82352941,657b66ea316d21385b68909f,,,,,,,,,,,1897.927,1898.924,,,1899.425,1899.674,,48,48,,,,,,,,,,,,,,,,bars/025.png,bars/mask005.png,,,,,,,,,,,,7,2,,,,,,,10,8,10,9,,,,,,,,,,,1898.925,1899.425,1899.674,1907.875,space,8.185,,1907.875,57,8,1908.873,1908.873,1908.889,,,,0,16,16,16,1,105,40,,,,,,,,
,,5f627ac87d0e5f2efb944c9e,65af55cc1410b53e6cb37416,2024-01-23_24h01.41.466,bars,2023.2.3,Win32,58.82352941,657b66ea316d21385b68909f,,,,,,,,,,,1908.889,1909.891,,,1910.39,1910.64,,156,156,,,,,,,,,,,,,,,,bars/020.png,bars/mask000.png,,,,,,,,,,,,4,2,,,,,,,8,10,8,8,,,,,,,,,,,1909.891,1910.39,1910.64,1915.846,space,5.201,,1915.847,41,14,1916.845,1916.845,1916.867,,,,0,17,17,17,1,115,170,,,,,,,,
,,5f627ac87d0e5f2efb944c9e,65af55cc1410b53e6cb37416,2024-01-23_24h01.41.466,bars,2023.2.3,Win32,58.82352941,657b66ea316d21385b68909f,,,,,,,,,,,1916.867,1917.86,,,1918.361,1918.611,,61,61,,,,,,,,,,,,,,,,bars/025.png,bars/mask000.png,,,,,,,,,,,,3,2,,,,,,,6,8,4,9,,,,,,,,,,,1917.86,1918.361,1918.611,1921.076,space,2.448,,1921.076,44,21,1922.073,1922.073,1922.098,,,,0,18,18,18,1,105,40,,,,,,,,
,,5f627ac87d0e5f2efb944c9e,65af55cc1410b53e6cb37416,2024-01-23_24h01.41.466,bars,2023.2.3,Win32,58.82352941,657b66ea316d21385b68909f,,,,,,,,,,,1922.098,1923.091,,,1923.595,1923.845,,26,26,,,,,,,,,,,,,,,,bars/014.png,bars/mask008.png,,,,,,,,,,,,1,2,,,,,,,4,6,5,5,,,,,,,,,,,1923.091,1923.595,1923.845,1927.912,space,4.053,,1927.912,54,26,1928.91,1928.91,1928.935,,,,0,19,19,19,1,80,0,,,,,,,,
,,5f627ac87d0e5f2efb944c9e,65af55cc1410b53e6cb37416,2024-01-23_24h01.41.466,bars,2023.2.3,Win32,58.82352941,657b66ea316d21385b68909f,,,,,,,,,,,1928.935,1929.94,,,1930.439,1930.69,,72,72,,,,,,,,,,,,,,,,bars/046.png,bars/mask004.png,,,,,,,,,,,,5,2,,,,,,,6,8,7,9,,,,,,,,,,,1929.94,1930.439,1930.69,1934.705,space,4.002,,1934.705,83,13,1935.706,1935.706,1935.731,,,,0,20,20,20,1,155,85,,,,,,,,
,,5f627ac87d0e5f2efb944c9e,65af55cc1410b53e6cb37416,2024-01-23_24h01.41.466,bars,2023.2.3,Win32,58.82352941,657b66ea316d21385b68909f,,,,,,,,,,,1935.731,1936.727,,,1937.227,1937.477,,74,254,,,,,,,,,,,,,,,,bars/039.png,bars/mask006.png,,,,,,,,,,,,0,2,,,,,,,4,10,5,10,,,,,,,,,,,1936.727,1937.227,1937.477,1942.729,space,5.235,,1942.729,79,31,1943.726,1943.726,1943.752,,,,0,21,21,21,1,175,105,,,,,,,,
,,5f627ac87d0e5f2efb944c9e,65af55cc1410b53e6cb37416,2024-01-23_24h01.41.466,bars,2023.2.3,Win32,58.82352941,657b66ea316d21385b68909f,,,,,,,,,,,1943.753,1944.755,,,1945.256,1945.506,,76,76,,,,,,,,,,,,,,,,bars/006.png,bars/mask000.png,,,,,,,,,,,,2,2,,,,,,,2,8,2,10,,,,,,,,,,,1944.755,1945.256,1945.506,1946.521,space,1.004,,1946.521,41,24,1947.522,1947.522,1947.523,,,,0,22,22,22,1,35,100,,,,,,,,
,,5f627ac87d0e5f2efb944c9e,65af55cc1410b53e6cb37416,2024-01-23_24h01.41.466,bars,2023.2.3,Win32,58.82352941,657b66ea316d21385b68909f,,,,,,,,,,,1947.525,1948.522,,,1949.022,1949.272,,98,98,,,,,,,,,,,,,,,,bars/037.png,bars/mask002.png,,,,,,,,,,,,5,2,,,,,,,0,6,0,6,,,,,,,,,,,1948.522,1949.022,1949.272,1956.274,space,6.994,,1956.274,52,7,1957.271,1957.271,1957.3,,,,0,23,23,23,1,150,105,,,,,,,,
,,5f627ac87d0e5f2efb944c9e,65af55cc1410b53e6cb37416,2024-01-23_24h01.41.466,bars,2023.2.3,Win32,58.82352941,657b66ea316d21385b68909f,,,,,,,,,,,1957.301,1958.29,,,1958.789,1959.038,,171,-9,,,,,,,,,,,,,,,,bars/032.png,bars/mask003.png,,,,,,,,,,,,0,2,,,,,,,2,8,2,9,,,,,,,,,,,1958.29,1958.789,1959.038,1966.255,space,7.203,,1966.255,46,29,1967.255,1967.255,1967.286,,,,0,24,24,24,1,125,20,,,,,,,,
,,5f627ac87d0e5f2efb944c9e,65af55cc1410b53e6cb37416,2024-01-23_24h01.41.466,bars,2023.2.3,Win32,58.82352941,657b66ea316d21385b68909f,,,,,,,,,,,1967.286,1968.288,,,1968.788,1969.037,,159,159,,,,,,,,,,,,,,,,bars/035.png,bars/mask003.png,,,,,,,,,,,,0,1,,,,,,,0,10,0,10,,,,,,,,,,,1968.288,1968.788,1969.038,1973.272,space,4.218,,1973.272,16,81,1974.272,1974.272,1974.297,,,,0,25,25,25,1,175,60,,,,,,,,
,,5f627ac87d0e5f2efb944c9e,65af55cc1410b53e6cb37416,2024-01-23_24h01.41.466,bars,2023.2.3,Win32,58.82352941,657b66ea316d21385b68909f,,,,,,,,,,,1974.298,1975.286,,,1975.775,1976.02,,149,149,,,,,,,,,,,,,,,,bars/033.png,bars/mask008.png,,,,,,,,,,,,7,2,,,,,,,0,8,0,9,,,,,,,,,,,1975.287,1975.775,1976.02,1980.976,space,4.934,,1980.976,56,6,1981.975,1981.975,1982,,,,0,26,26,26,1,25,155,,,,,,,,
,,5f627ac87d0e5f2efb944c9e,65af55cc1410b53e6cb37416,2024-01-23_24h01.41.466,bars,2023.2.3,Win32,58.82352941,657b66ea316d21385b68909f,,,,,,,,,,,1982.001,1983.003,,,1983.504,1983.754,,15,15,,,,,,,,,,,,,,,,bars/005.png,bars/mask003.png,,,,,,,,,,,,3,1,,,,,,,0,6,3,5,,,,,,,,,,,1983.003,1983.504,1983.754,1988.521,space,4.75,,1988.522,5,55,1989.52,1989.52,1989.552,,,,0,27,27,27,1,10,140,,,,,,,,
,,5f627ac87d0e5f2efb944c9e,65af55cc1410b53e6cb37416,2024-01-23_24h01.41.466,bars,2023.2.3,Win32,58.82352941,657b66ea316d21385b68909f,,,,,,,,,,,1989.552,1990.553,,,1991.052,1991.303,,50,230,,,,,,,,,,,,,,,,bars/030.png,bars/mask001.png,,,,,,,,,,,,4,2,,,,,,,0,8,1,8,,,,,,,,,,,1990.553,1991.052,1991.303,1994.936,space,3.621,,1994.936,90,15,1995.936,1995.936,1995.944,,,,0,28,28,28,1,140,65,,,,,,,,
,,5f627ac87d0e5f2efb944c9e,65af55cc1410b53e6cb37416,2024-01-23_24h01.41.466,bars,2023.2.3,Win32,58.82352941,657b66ea316d21385b68909f,,,,,,,,,,,1995.944,1996.935,,,1997.436,1997.686,,111,111,,,,,,,,,,,,,,,,bars/023.png,bars/mask005.png,,,,,,,,,,,,7,2,,,,,,,0,6,2,8,,,,,,,,,,,1996.935,1997.436,1997.686,2002.136,space,4.44,,2002.136,89,4,2003.136,2003.136,2003.163,,,,0,29,29,29,1,20,115,,,,,,,,
,,5f627ac87d0e5f2efb944c9e,65af55cc1410b53e6cb37416,2024-01-23_24h01.41.466,bars,2023.2.3,Win32,58.82352941,657b66ea316d21385b68909f,,,,,,,,,,,2003.163,2004.153,,,2004.652,2004.907,,68,68,,,,,,,,,,,,,,,,bars/025.png,bars/mask007.png,,,,,,,,,,,,0,2,,,,,,,0,8,0,7,,,,,,,,,,,2004.153,2004.652,2004.907,2008.174,space,3.251,,2008.174,37,28,2009.173,2009.173,2009.189,,,,0,30,30,30,1,105,40,,,,,,,,
,,5f627ac87d0e5f2efb944c9e,65af55cc1410b53e6cb37416,2024-01-23_24h01.41.466,bars,2023.2.3,Win32,58.82352941,657b66ea316d21385b68909f,,,,,,,,,,,2009.19,2010.185,,,2010.685,2010.936,,124,124,,,,,,,,,,,,,,,,bars/038.png,bars/mask002.png,,,,,,,,,,,,0,1,,,,,,,2,10,0,10,,,,,,,,,,,2010.185,2010.685,2010.936,2013.841,space,2.885,,2013.841,41,54,2014.835,2014.836,2014.864,,,,0,31,31,31,1,165,70,,,,,,,,
,,5f627ac87d0e5f2efb944c9e,65af55cc1410b53e6cb37416,2024-01-23_24h01.41.466,bars,2023.2.3,Win32,58.82352941,657b66ea316d21385b68909f,,,,,,,,,,,2014.864,2015.852,,,2016.352,2016.601,,67,67,,,,,,,,,,,,,,,,bars/002.png,bars/mask009.png,,,,,,,,,,,,4,2,,,,,,,4,10,5,9,,,,,,,,,,,2015.853,2016.352,2016.601,2021.053,space,4.436,,2021.053,63,18,2022.051,2022.051,2022.082,,,,0,32,32,32,1,130,85,,,,,,,,
,,5f627ac87d0e5f2efb944c9e,65af55cc1410b53e6cb37416,2024-01-23_24h01.41.466,bars,2023.2.3,Win32,58.82352941,657b66ea316d21385b68909f,,,,,,,,,,,2022.082,2023.085,,,2023.586,2023.835,,65,65,,,,,,,,,,,,,,,,bars/047.png,bars/mask001.png,,,,,,,,,,,,7,2,,,,,,,6,8,7,8,,,,,,,,,,,2023.085,2023.586,2023.835,2026.835,space,2.986,,2026.836,50,5,2027.835,2027.835,2027.862,,,,0,33,33,33,1,15,70,,,,,,,,
,,5f627ac87d0e5f2efb944c9e,65af55cc1410b53e6cb37416,2024-01-23_24h01.41.466,bars,2023.2.3,Win32,58.82352941,657b66ea316d21385b68909f,,,,,,,,,,,2027.862,2028.851,,,2029.339,2029.59,,102,102,,,,,,,,,,,,,,,,bars/023.png,bars/mask002.png,,,,,,,,,,,,4,2,,,,,,,4,6,4,7,,,,,,,,,,,2028.851,2029.339,2029.59,2033.757,space,4.152,,2033.757,82,13,2034.755,2034.755,2034.772,,,,0,34,34,34,1,20,115,,,,,,,,
,,5f627ac87d0e5f2efb944c9e,65af55cc1410b53e6cb37416,2024-01-23_24h01.41.466,bars,2023.2.3,Win32,58.82352941,657b66ea316d21385b68909f,,,,,,,,,,,2034.773,2035.768,,,2036.256,2036.505,,17,197,,,,,,,,,,,,,,,,bars/039.png,bars/mask000.png,,,,,,,,,,,,2,1,,,,,,,6,8,6,7,,,,,,,,,,,2035.768,2036.256,2036.505,2039.457,space,2.935,,2039.457,22,88,2040.454,2040.454,2040.479,,,,0,35,35,35,1,175,105,,,,,,,,
,,5f627ac87d0e5f2efb944c9e,65af55cc1410b53e6cb37416,2024-01-23_24h01.41.466,bars,2023.2.3,Win32,58.82352941,657b66ea316d21385b68909f,,,,,,,,,,,2040.48,2041.485,,,2041.984,2042.234,,65,65,,,,,,,,,,,,,,,,bars/006.png,bars/mask008.png,,,,,,,,,,,,0,1,,,,,,,8,10,7,9,,,,,,,,,,,2041.485,2041.984,2042.234,2045.468,space,3.219,,2045.468,30,35,2046.467,2046.467,2046.496,,,,0,36,36,36,1,35,100,,,,,,,,
,,5f627ac87d0e5f2efb944c9e,65af55cc1410b53e6cb37416,2024-01-23_24h01.41.466,bars,2023.2.3,Win32,58.82352941,657b66ea316d21385b68909f,,,,,,,,,,,2046.496,2047.488,,,2047.987,2048.234,,1,1,,,,,,,,,,,,,,,,bars/033.png,bars/mask006.png,,,,,,,,,,,,2,1,,,,,,,10,10,9,10,,,,,,,,,,,2047.488,2047.987,2048.235,2052.24,space,3.985,,2052.241,24,26,2053.234,2053.234,2053.258,,,,0,37,37,37,1,25,155,,,,,,,,
,,5f627ac87d0e5f2efb944c9e,65af55cc1410b53e6cb37416,2024-01-23_24h01.41.466,bars,2023.2.3,Win32,58.82352941,657b66ea316d21385b68909f,,,,,,,,,,,2053.258,2054.25,,,2054.738,2054.983,,159,-21,,,,,,,,,,,,,,,,bars/000.png,bars/mask005.png,,,,,,,,,,,,4,2,,,,,,,10,8,10,8,,,,,,,,,,,2054.25,2054.738,2054.983,2060.267,space,5.259,,2060.267,61,14,2061.271,2061.271,2061.303,,,,0,38,38,38,1,40,145,,,,,,,,
,,5f627ac87d0e5f2efb944c9e,65af55cc1410b53e6cb37416,2024-01-23_24h01.41.466,bars,2023.2.3,Win32,58.82352941,657b66ea316d21385b68909f,,,,,,,,,,,2061.303,2062.301,,,2062.8,2063.049,,6,6,,,,,,,,,,,,,,,,bars/014.png,bars/mask005.png,,,,,,,,,,,,7,2,,,,,,,10,10,10,9,,,,,,,,,,,2062.301,2062.8,2063.049,2067.367,space,4.302,,2067.368,74,6,2068.367,2068.367,2068.389,,,,0,39,39,39,1,80,0,,,,,,,,
,,5f627ac87d0e5f2efb944c9e,65af55cc1410b53e6cb37416,2024-01-23_24h01.41.466,bars,2023.2.3,Win32,58.82352941,657b66ea316d21385b68909f,,,,,,,,,,,2068.389,2069.384,,,2069.884,2070.133,,13,193,,,,,,,,,,,,,,,,bars/046.png,bars/mask002.png,,,,,,,,,,,,0,1,,,,,,,10,8,9,8,,,,,,,,,,,2069.384,2069.883,2070.133,2076.899,space,6.75,,2076.899,38,72,2077.899,2077.899,2077.928,,,,0,40,40,40,1,155,85,,,,,,,,
,,5f627ac87d0e5f2efb944c9e,65af55cc1410b53e6cb37416,2024-01-23_24h01.41.466,bars,2023.2.3,Win32,58.82352941,657b66ea316d21385b68909f,,,,,,,,,,,2077.929,2078.932,,,2079.433,2079.683,,14,194,,,,,,,,,,,,,,,,bars/048.png,bars/mask000.png,,,,,,,,,,,,3,2,,,,,,,8,6,7,7,,,,,,,,,,,2078.932,2079.433,2079.683,2082.401,space,2.704,,2082.401,36,19,2083.399,2083.4,2083.425,,,,0,41,41,41,1,50,175,,,,,,,,
,,5f627ac87d0e5f2efb944c9e,65af55cc1410b53e6cb37416,2024-01-23_24h01.41.466,bars,2023.2.3,Win32,58.82352941,657b66ea316d21385b68909f,,,,,,,,,,,2083.426,2084.42,,,2084.921,2085.166,,137,-43,,,,,,,,,,,,,,,,bars/018.png,bars/mask007.png,,,,,,,,,,,,6,1,,,,,,,10,4,10,3,,,,,,,,,,,2084.42,2084.921,2085.166,2090.42,space,5.233,,2090.42,13,47,2091.415,2091.415,2091.441,,,,0,42,42,42,1,150,90,,,,,,,,
,,5f627ac87d0e5f2efb944c9e,65af55cc1410b53e6cb37416,2024-01-23_24h01.41.466,bars,2023.2.3,Win32,58.82352941,657b66ea316d21385b68909f,,,,,,,,,,,2091.441,2092.436,,,2092.936,2093.187,,58,58,,,,,,,,,,,,,,,,bars/025.png,bars/mask004.png,,,,,,,,,,,,2,2,,,,,,,10,6,10,6,,,,,,,,,,,2092.436,2092.936,2093.187,2098.566,space,5.355,,2098.566,47,18,2099.57,2099.57,2099.594,,,,0,43,43,43,1,105,40,,,,,,,,
,,5f627ac87d0e5f2efb944c9e,65af55cc1410b53e6cb37416,2024-01-23_24h01.41.466,bars,2023.2.3,Win32,58.82352941,657b66ea316d21385b68909f,,,,,,,,,,,2099.594,2100.598,,,2101.086,2101.336,,9,9,,,,,,,,,,,,,,,,bars/016.png,bars/mask003.png,,,,,,,,,,,,1,2,,,,,,,10,4,9,5,,,,,,,,,,,2100.598,2101.086,2101.336,2106.831,space,5.475,,2106.832,31,24,2107.836,2107.836,2107.862,,,,0,44,44,44,1,40,165,,,,,,,,
,,5f627ac87d0e5f2efb944c9e,65af55cc1410b53e6cb37416,2024-01-23_24h01.41.466,bars,2023.2.3,Win32,58.82352941,657b66ea316d21385b68909f,,,,,,,,,,,2107.862,2108.865,,,2109.364,2109.614,,78,78,,,,,,,,,,,,,,,,bars/007.png,bars/mask005.png,,,,,,,,,,,,0,2,,,,,,,8,2,7,0,,,,,,,,,,,2108.865,2109.364,2109.614,2113.214,space,3.589,,2113.214,83,23,2114.214,2114.214,2114.246,,,,0,45,45,45,1,175,55,,,,,,,,
,,5f627ac87d0e5f2efb944c9e,65af55cc1410b53e6cb37416,2024-01-23_24h01.41.466,bars,2023.2.3,Win32,58.82352941,657b66ea316d21385b68909f,,,,,,,,,,,2114.248,2115.247,,,2115.748,2115.998,,107,107,,,,,,,,,,,,,,,,bars/037.png,bars/mask006.png,,,,,,,,,,,,4,2,,,,,,,6,4,4,4,,,,,,,,,,,2115.247,2115.747,2115.998,2122.131,space,6.119,,2122.131,43,2,2123.13,2123.131,2123.155,,,,0,46,46,46,1,150,105,,,,,,,,
,,5f627ac87d0e5f2efb944c9e,65af55cc1410b53e6cb37416,2024-01-23_24h01.41.466,bars,2023.2.3,Win32,58.82352941,657b66ea316d21385b68909f,,,,,,,,,,,2123.155,2124.151,,,2124.647,2124.897,,91,91,,,,,,,,,,,,,,,,bars/030.png,bars/mask006.png,,,,,,,,,,,,0,2,,,,,,,8,2,9,1,,,,,,,,,,,2124.151,2124.647,2124.897,2129.703,space,4.786,,2129.703,49,26,2130.702,2130.702,2130.726,,,,0,47,47,47,1,140,65,,,,,,,,
,,5f627ac87d0e5f2efb944c9e,65af55cc1410b53e6cb37416,2024-01-23_24h01.41.466,bars,2023.2.3,Win32,58.82352941,657b66ea316d21385b68909f,,,,,,,,,,,2130.727,2131.731,,,2132.231,2132.481,,133,-47,,,,,,,,,,,,,,,,bars/049.png,bars/mask007.png,,,,,,,,,,,,0,2,,,,,,,10,0,10,0,,,,,,,,,,,2131.731,2132.231,2132.481,2141.847,space,9.35,,2141.847,27,18,2142.846,2142.846,2142.872,,,,0,48,48,48,1,160,115,,,,,,,,
,,5f627ac87d0e5f2efb944c9e,65af55cc1410b53e6cb37416,2024-01-23_24h01.41.466,bars,2023.2.3,Win32,58.82352941,657b66ea316d21385b68909f,,,,,,,,,,,2142.872,2143.863,,,2144.363,2144.618,,160,-20,,,,,,,,,,,,,,,,bars/031.png,bars/mask005.png,,,,,,,,,,,,0,1,,,,,,,10,2,10,3,,,,,,,,,,,2143.863,2144.363,2144.618,2148.085,space,3.451,,2148.085,40,55,2149.079,2149.079,2149.11,,,,0,49,49,49,1,120,35,,,,,,,,
,,5f627ac87d0e5f2efb944c9e,65af55cc1410b53e6cb37416,2024-01-23_24h01.41.466,bars,2023.2.3,Win32,58.82352941,657b66ea316d21385b68909f,,,,,,,,,,,,,,,,,,,,,,,,,,,,,,,,,,,,,,,,,,,,,,,,,,,,,,,,,,,,,,,,,,,,,,,,,,,,,,,,,,,,,,,,,,,,,2149.11,2209.111,0,3,3,4,1,sequence_tables/blk024.csv
,,5f627ac87d0e5f2efb944c9e,65af55cc1410b53e6cb37416,2024-01-23_24h01.41.466,bars,2023.2.3,Win32,58.82352941,657b66ea316d21385b68909f,,,,,,,,,,,2218.552,2219.526,,,2220.03,2220.28,,80,80,,,,,,,,,,,,,,,,bars/001.png,bars/mask001.png,,,,,,,,,,,,8,2,,,,,,,1,9,1,9,,,,,,2209.141,2218.526,space,9.378,,2219.526,2220.03,2220.28,2224.133,space,3.836,,2224.133,50,5,2225.131,2225.131,2225.157,,,,0,0,0,0,1,130,85,,,,,,,,
,,5f627ac87d0e5f2efb944c9e,65af55cc1410b53e6cb37416,2024-01-23_24h01.41.466,bars,2023.2.3,Win32,58.82352941,657b66ea316d21385b68909f,,,,,,,,,,,2225.158,2226.159,,,2226.659,2226.908,,121,121,,,,,,,,,,,,,,,,bars/004.png,bars/mask006.png,,,,,,,,,,,,9,2,,,,,,,0,10,1,10,,,,,,,,,,,2226.159,2226.658,2226.908,2231.292,space,4.37,,2231.292,84,4,2232.292,2232.292,2232.323,,,,0,1,1,1,1,25,125,,,,,,,,
,,5f627ac87d0e5f2efb944c9e,65af55cc1410b53e6cb37416,2024-01-23_24h01.41.466,bars,2023.2.3,Win32,58.82352941,657b66ea316d21385b68909f,,,,,,,,,,,2232.324,2233.325,,,2233.826,2234.076,,52,52,,,,,,,,,,,,,,,,bars/030.png,bars/mask002.png,,,,,,,,,,,,5,2,,,,,,,0,8,0,8,,,,,,,,,,,2233.325,2233.825,2234.076,2236.959,space,2.87,,2236.959,88,13,2237.958,2237.958,2237.99,,,,0,2,2,2,1,140,65,,,,,,,,
,,5f627ac87d0e5f2efb944c9e,65af55cc1410b53e6cb37416,2024-01-23_24h01.41.466,bars,2023.2.3,Win32,58.82352941,657b66ea316d21385b68909f,,,,,,,,,,,2237.99,2238.991,,,2239.492,2239.742,,94,-86,,,,,,,,,,,,,,,,bars/011.png,bars/mask006.png,,,,,,,,,,,,6,2,,,,,,,2,10,1,9,,,,,,,,,,,2238.992,2239.492,2239.743,2250.742,space,10.991,,2250.742,66,9,2251.741,2251.742,2251.774,,,,0,3,3,3,1,160,85,,,,,,,,
,,5f627ac87d0e5f2efb944c9e,65af55cc1410b53e6cb37416,2024-01-23_24h01.41.466,bars,2023.2.3,Win32,58.82352941,657b66ea316d21385b68909f,,,,,,,,,,,2251.775,2252.774,,,2253.275,2253.524,,175,175,,,,,,,,,,,,,,,,bars/044.png,bars/mask007.png,,,,,,,,,,,,3,2,,,,,,,0,10,0,10,,,,,,,,,,,2252.774,2253.275,2253.524,2256.758,space,3.219,,2256.758,80,20,2257.759,2257.759,2257.786,,,,0,4,4,4,1,75,155,,,,,,,,
,,5f627ac87d0e5f2efb944c9e,65af55cc1410b53e6cb37416,2024-01-23_24h01.41.466,bars,2023.2.3,Win32,58.82352941,657b66ea316d21385b68909f,,,,,,,,,,,2257.786,2258.775,,,2259.275,2259.524,,88,88,,,,,,,,,,,,,,,,bars/041.png,bars/mask007.png,,,,,,,,,,,,8,2,,,,,,,0,10,1,9,,,,,,,,,,,2258.775,2259.274,2259.524,2263.091,space,3.55,,2263.091,68,3,2264.091,2264.091,2264.12,,,,0,5,5,5,1,20,85,,,,,,,,
,,5f627ac87d0e5f2efb944c9e,65af55cc1410b53e6cb37416,2024-01-23_24h01.41.466,bars,2023.2.3,Win32,58.82352941,657b66ea316d21385b68909f,,,,,,,,,,,2264.12,2265.107,,,2265.612,2265.861,,157,157,,,,,,,,,,,,,,,,bars/015.png,bars/mask009.png,,,,,,,,,,,,8,2,,,,,,,2,10,2,9,,,,,,,,,,,2265.108,2265.612,2265.861,2269.379,space,3.501,,2269.379,47,3,2270.374,2270.374,2270.395,,,,0,6,6,6,1,110,160,,,,,,,,
,,5f627ac87d0e5f2efb944c9e,65af55cc1410b53e6cb37416,2024-01-23_24h01.41.466,bars,2023.2.3,Win32,58.82352941,657b66ea316d21385b68909f,,,,,,,,,,,2270.396,2271.39,,,2271.895,2272.143,,170,-10,,,,,,,,,,,,,,,,bars/015.png,bars/mask004.png,,,,,,,,,,,,5,2,,,,,,,0,8,0,8,,,,,,,,,,,2271.39,2271.895,2272.143,2277.127,space,4.967,,2277.127,60,10,2278.128,2278.128,2278.153,,,,0,7,7,7,1,110,160,,,,,,,,
,,5f627ac87d0e5f2efb944c9e,65af55cc1410b53e6cb37416,2024-01-23_24h01.41.466,bars,2023.2.3,Win32,58.82352941,657b66ea316d21385b68909f,,,,,,,,,,,2278.153,2279.157,,,2279.657,2279.906,,15,195,,,,,,,,,,,,,,,,bars/031.png,bars/mask006.png,,,,,,,,,,,,3,2,,,,,,,0,10,0,9,,,,,,,,,,,2279.157,2279.657,2279.907,2288.572,space,8.659,,2288.572,75,20,2289.573,2289.573,2289.599,,,,0,8,8,8,1,120,35,,,,,,,,
,,5f627ac87d0e5f2efb944c9e,65af55cc1410b53e6cb37416,2024-01-23_24h01.41.466,bars,2023.2.3,Win32,58.82352941,657b66ea316d21385b68909f,,,,,,,,,,,2289.6,2290.591,,,2291.094,2291.34,,113,113,,,,,,,,,,,,,,,,bars/037.png,bars/mask008.png,,,,,,,,,,,,7,2,,,,,,,2,10,3,10,,,,,,,,,,,2290.591,2291.094,2291.34,2294.794,space,3.433,,2294.794,37,8,2295.79,2295.79,2295.819,,,,0,9,9,9,1,150,105,,,,,,,,
,,5f627ac87d0e5f2efb944c9e,65af55cc1410b53e6cb37416,2024-01-23_24h01.41.466,bars,2023.2.3,Win32,58.82352941,657b66ea316d21385b68909f,,,,,,,,,,,2295.819,2296.822,,,2297.323,2297.572,,73,73,,,,,,,,,,,,,,,,bars/011.png,bars/mask009.png,,,,,,,,,,,,6,2,,,,,,,4,10,4,10,,,,,,,,,,,2296.822,2297.323,2297.572,2298.522,space,0.933,,2298.522,87,12,2299.522,2299.522,2299.523,,,,0,10,10,10,1,160,85,,,,,,,,
,,5f627ac87d0e5f2efb944c9e,65af55cc1410b53e6cb37416,2024-01-23_24h01.41.466,bars,2023.2.3,Win32,58.82352941,657b66ea316d21385b68909f,,,,,,,,,,,2299.524,2300.522,,,2301.022,2301.272,,82,82,,,,,,,,,,,,,,,,bars/018.png,bars/mask001.png,,,,,,,,,,,,7,2,,,,,,,2,10,3,10,,,,,,,,,,,2300.523,2301.022,2301.273,2303.106,space,1.82,,2303.106,68,8,2304.106,2304.106,2304.138,,,,0,11,11,11,1,150,90,,,,,,,,
,,5f627ac87d0e5f2efb944c9e,65af55cc1410b53e6cb37416,2024-01-23_24h01.41.466,bars,2023.2.3,Win32,58.82352941,657b66ea316d21385b68909f,,,,,,,,,,,2304.138,2305.139,,,2305.639,2305.889,,139,139,,,,,,,,,,,,,,,,bars/047.png,bars/mask004.png,,,,,,,,,,,,0,1,,,,,,,4,8,4,8,,,,,,,,,,,2305.139,2305.639,2305.889,2311.039,space,5.134,,2311.039,56,69,2312.038,2312.038,2312.069,,,,0,12,12,12,1,15,70,,,,,,,,
,,5f627ac87d0e5f2efb944c9e,65af55cc1410b53e6cb37416,2024-01-23_24h01.41.466,bars,2023.2.3,Win32,58.82352941,657b66ea316d21385b68909f,,,,,,,,,,,2312.069,2313.071,,,2313.572,2313.822,,130,130,,,,,,,,,,,,,,,,bars/004.png,bars/mask008.png,,,,,,,,,,,,8,2,,,,,,,2,10,2,9,,,,,,,,,,,2313.071,2313.571,2313.822,2317.022,space,3.184,,2317.022,75,5,2318.022,2318.022,2318.056,,,,0,13,13,13,1,25,125,,,,,,,,
,,5f627ac87d0e5f2efb944c9e,65af55cc1410b53e6cb37416,2024-01-23_24h01.41.466,bars,2023.2.3,Win32,58.82352941,657b66ea316d21385b68909f,,,,,,,,,,,2318.056,2319.055,,,2319.555,2319.805,,99,99,,,,,,,,,,,,,,,,bars/009.png,bars/mask007.png,,,,,,,,,,,,8,2,,,,,,,4,10,5,10,,,,,,,,,,,2319.055,2319.555,2319.805,2323.338,space,3.518,,2323.338,84,6,2324.338,2324.338,2324.365,,,,0,14,14,14,1,15,105,,,,,,,,
,,5f627ac87d0e5f2efb944c9e,65af55cc1410b53e6cb37416,2024-01-23_24h01.41.466,bars,2023.2.3,Win32,58.82352941,657b66ea316d21385b68909f,,,,,,,,,,,2324.366,2325.359,,,2325.859,2326.109,,82,82,,,,,,,,,,,,,,,,bars/021.png,bars/mask002.png,,,,,,,,,,,,5,2,,,,,,,6,8,6,9,,,,,,,,,,,2325.359,2325.859,2326.109,2330.304,space,4.175,,2330.304,73,12,2331.304,2331.304,2331.315,,,,0,15,15,15,1,155,70,,,,,,,,
,,5f627ac87d0e5f2efb944c9e,65af55cc1410b53e6cb37416,2024-01-23_24h01.41.466,bars,2023.2.3,Win32,58.82352941,657b66ea316d21385b68909f,,,,,,,,,,,2331.315,2332.309,,,2332.804,2333.054,,136,136,,,,,,,,,,,,,,,,bars/028.png,bars/mask000.png,,,,,,,,,,,,3,2,,,,,,,4,6,3,7,,,,,,,,,,,2332.309,2332.804,2333.054,2336.861,space,3.785,,2336.861,89,16,2337.858,2337.858,2337.885,,,,0,16,16,16,1,45,120,,,,,,,,
,,5f627ac87d0e5f2efb944c9e,65af55cc1410b53e6cb37416,2024-01-23_24h01.41.466,bars,2023.2.3,Win32,58.82352941,657b66ea316d21385b68909f,,,,,,,,,,,2337.886,2338.888,,,2339.388,2339.637,,25,25,,,,,,,,,,,,,,,,bars/040.png,bars/mask003.png,,,,,,,,,,,,2,2,,,,,,,6,4,7,6,,,,,,,,,,,2338.888,2339.387,2339.637,2343.121,space,3.471,,2343.122,65,20,2344.12,2344.12,2344.149,,,,0,17,17,17,1,140,5,,,,,,,,
,,5f627ac87d0e5f2efb944c9e,65af55cc1410b53e6cb37416,2024-01-23_24h01.41.466,bars,2023.2.3,Win32,58.82352941,657b66ea316d21385b68909f,,,,,,,,,,,2344.149,2345.154,,,2345.654,2345.904,,140,140,,,,,,,,,,,,,,,,bars/018.png,bars/mask005.png,,,,,,,,,,,,5,1,,,,,,,8,2,8,2,,,,,,,,,,,2345.154,2345.654,2345.904,2348.22,space,2.3,,2348.22,10,50,2349.22,2349.22,2349.229,,,,0,18,18,18,1,150,90,,,,,,,,
,,5f627ac87d0e5f2efb944c9e,65af55cc1410b53e6cb37416,2024-01-23_24h01.41.466,bars,2023.2.3,Win32,58.82352941,657b66ea316d21385b68909f,,,,,,,,,,,2349.229,2350.22,,,2350.72,2350.97,,50,50,,,,,,,,,,,,,,,,bars/048.png,bars/mask004.png,,,,,,,,,,,,10,1,,,,,,,10,4,10,3,,,,,,,,,,,2350.22,2350.72,2350.971,2356.254,space,5.27,,2356.254,0,55,2357.253,2357.253,2357.272,,,,0,19,19,19,1,50,175,,,,,,,,
