init_variables.started,init_variables.stopped,participant,session,date,expName,psychopyVersion,OS,frameRate,study_id,instruction_exp.started,instruction_exp.stopped,key_resp_8.keys,key_resp_8.rt,key_resp_8.duration,instruction_single.started,instruction_single.stopped,key_resp_2.keys,key_resp_2.rt,key_resp_2.duration,interval.started,interval.stopped,cue_single.started,cue_single.stopped,mask.started,mask.stopped,ori_response_single.started,res_ori,res,ori_response_single.stopped,key_resp_single.keys,key_resp_single.rt,key_resp_single.duration,disp_single.started,disp_single.stopped,key_resp.keys,key_resp.rt,key_resp.duration,single.thisRepN,single.thisTrialN,single.thisN,single.thisIndex,single.ran,ori,path,mask_path,instruction_bandit.started,instruction_bandit.stopped,key_resp_6.keys,key_resp_6.rt,key_resp_6.duration,cue_bandit.started,cue_bandit.stopped,bandit_res.keys,bandit_res.rt,bandit_res.duration,outcome_bandit.started,rew,action,outcome_bandit.stopped,bandit.thisRepN,bandit.thisTrialN,bandit.thisN,bandit.thisIndex,bandit.ran,actual_rew1,actual_rew2,rew1,rew2,instruction_task.started,instruction_task.stopped,key_resp_7.keys,key_resp_7.rt,key_resp_7.duration,wait_ready.started,wait_ready.stopped,key_resp_3.keys,key_resp_3.rt,key_resp_3.duration,cue.started,cue.stopped,ori_response.started,ori_response.stopped,key_resp_5.keys,key_resp_5.rt,key_resp_5.duration,outcome.started,diff1,diff2,outcome.stopped,disp_outcome_practice.started,disp_outcome_practice.stopped,key_resp_4.keys,key_resp_4.rt,key_resp_4.duration,trials.thisRepN,trials.thisTrialN,trials.thisN,trials.thisIndex,trials.ran,ori1,ori2,break_blk.started,break_blk.stopped,block.thisRepN,block.thisTrialN,block.thisN,block.thisIndex,block.ran,condition_file
0.0004,0.0006,611cf8583b09a943818421ca,65af5501ebaa6ae4e2c7563f,2024-01-23_09h01.57.974,bars,2023.2.3,Win32,59.88023952,657b66ea316d21385b68909f,,,,,,,,,,,,,,,,,,,,,,,,,,,,,,,,,,,,,,,,,,,,,,,,,,,,,,,,,,,,,,,,,,,,,,,,,,,,,,,,,,,,,,,,,,,,,,,,,,,,
,,611cf8583b09a943818421ca,65af5501ebaa6ae4e2c7563f,2024-01-23_09h01.57.974,bars,2023.2.3,Win32,59.88023952,657b66ea316d21385b68909f,0.0008,2.4101,y,2.3967,,,,,,,,,,,,,,,,,,,,,,,,,,,,,,,,,,,,,,,,,,,,,,,,,,,,,,,,,,,,,,,,,,,,,,,,,,,,,,,,,,,,,,,,,,,,,,,,
,,611cf8583b09a943818421ca,65af5501ebaa6ae4e2c7563f,2024-01-23_09h01.57.974,bars,2023.2.3,Win32,59.88023952,657b66ea316d21385b68909f,,,,,,2.4106,15.0295,space,12.6091,,,,,,,,,,,,,,,,,,,,,,,,,,,,,,,,,,,,,,,,,,,,,,,,,,,,,,,,,,,,,,,,,,,,,,,,,,,,,,,,,,,,,,,,,,,
,,611cf8583b09a943818421ca,65af5501ebaa6ae4e2c7563f,2024-01-23_09h01.57.974,bars,2023.2.3,Win32,59.88023952,657b66ea316d21385b68909f,,,,,,,,,,,15.034,16.0261,16.0263,16.5278,16.528,16.7782,16.7783,45,45,26.4783,space,9.6752,,26.4783,34.9445,space,8.4468,,0,0,0,1,1,20,bars/single001.png,bars/mask006.png,,,,,,,,,,,,,,,,,,,,,,,,,,,,,,,,,,,,,,,,,,,,,,,,,,,,,,,,,,,,,,,,
,,611cf8583b09a943818421ca,65af5501ebaa6ae4e2c7563f,2024-01-23_09h01.57.974,bars,2023.2.3,Win32,59.88023952,657b66ea316d21385b68909f,,,,,,,,,,,34.9533,35.9429,35.943,36.4404,36.4405,36.6932,36.6932,170,-10,39.3101,space,2.6008,,39.3101,41.4274,space,2.101,,0,1,1,0,1,150,bars/single000.png,bars/mask006.png,,,,,,,,,,,,,,,,,,,,,,,,,,,,,,,,,,,,,,,,,,,,,,,,,,,,,,,,,,,,,,,,
,,611cf8583b09a943818421ca,65af5501ebaa6ae4e2c7563f,2024-01-23_09h01.57.974,bars,2023.2.3,Win32,59.88023952,657b66ea316d21385b68909f,,,,,,,,,,,41.4279,42.4254,42.4254,42.9261,42.9262,43.1736,43.1738,140,140,45.8262,space,2.6337,,45.8263,48.126,space,2.2837,,0,2,2,8,1,160,bars/single008.png,bars/mask004.png,,,,,,,,,,,,,,,,,,,,,,,,,,,,,,,,,,,,,,,,,,,,,,,,,,,,,,,,,,,,,,,,
,,611cf8583b09a943818421ca,65af5501ebaa6ae4e2c7563f,2024-01-23_09h01.57.974,bars,2023.2.3,Win32,59.88023952,657b66ea316d21385b68909f,,,,,,,,,,,48.1264,49.1228,49.1229,49.6257,49.6257,49.8749,49.875,134,-46,53.359,space,3.4669,,53.359,54.4585,space,1.0825,,0,3,3,2,1,145,bars/single002.png,bars/mask003.png,,,,,,,,,,,,,,,,,,,,,,,,,,,,,,,,,,,,,,,,,,,,,,,,,,,,,,,,,,,,,,,,
,,611cf8583b09a943818421ca,65af5501ebaa6ae4e2c7563f,2024-01-23_09h01.57.974,bars,2023.2.3,Win32,59.88023952,657b66ea316d21385b68909f,,,,,,,,,,,54.4588,55.4557,55.4559,55.9579,55.9579,56.2056,56.2057,56,56,61.0582,space,4.8339,,61.0582,61.8945,space,0.8177,,0,4,4,7,1,45,bars/single007.png,bars/mask009.png,,,,,,,,,,,,,,,,,,,,,,,,,,,,,,,,,,,,,,,,,,,,,,,,,,,,,,,,,,,,,,,,
,,611cf8583b09a943818421ca,65af5501ebaa6ae4e2c7563f,2024-01-23_09h01.57.974,bars,2023.2.3,Win32,59.88023952,657b66ea316d21385b68909f,,,,,,,,,,,61.895,62.8893,62.8893,63.3915,63.3915,63.6412,63.6413,14,14,67.5249,space,3.8678,,67.525,69.4077,space,1.8669,,0,5,5,9,1,20,bars/single009.png,bars/mask006.png,,,,,,,,,,,,,,,,,,,,,,,,,,,,,,,,,,,,,,,,,,,,,,,,,,,,,,,,,,,,,,,,
,,611cf8583b09a943818421ca,65af5501ebaa6ae4e2c7563f,2024-01-23_09h01.57.974,bars,2023.2.3,Win32,59.88023952,657b66ea316d21385b68909f,,,,,,,,,,,69.408,70.4044,70.4045,70.9045,70.9046,71.1547,71.1548,30,210,73.8573,space,2.6836,,73.8573,74.6241,space,0.7505,,0,6,6,3,1,20,bars/single003.png,bars/mask005.png,,,,,,,,,,,,,,,,,,,,,,,,,,,,,,,,,,,,,,,,,,,,,,,,,,,,,,,,,,,,,,,,
,,611cf8583b09a943818421ca,65af5501ebaa6ae4e2c7563f,2024-01-23_09h01.57.974,bars,2023.2.3,Win32,59.88023952,657b66ea316d21385b68909f,,,,,,,,,,,74.6243,75.6235,75.6235,76.121,76.1211,76.3707,76.3709,89,89,80.374,space,3.9996,,80.374,82.1374,space,1.7444,,0,7,7,4,1,95,bars/single004.png,bars/mask004.png,,,,,,,,,,,,,,,,,,,,,,,,,,,,,,,,,,,,,,,,,,,,,,,,,,,,,,,,,,,,,,,,
,,611cf8583b09a943818421ca,65af5501ebaa6ae4e2c7563f,2024-01-23_09h01.57.974,bars,2023.2.3,Win32,59.88023952,657b66ea316d21385b68909f,,,,,,,,,,,82.1382,83.1385,83.1385,83.6367,83.6368,83.8866,83.8867,0,0,86.2231,space,2.3172,,86.2231,87.4535,space,1.2016,,0,8,8,6,1,175,bars/single006.png,bars/mask005.png,,,,,,,,,,,,,,,,,,,,,,,,,,,,,,,,,,,,,,,,,,,,,,,,,,,,,,,,,,,,,,,,
,,611cf8583b09a943818421ca,65af5501ebaa6ae4e2c7563f,2024-01-23_09h01.57.974,bars,2023.2.3,Win32,59.88023952,657b66ea316d21385b68909f,,,,,,,,,,,87.4544,88.4533,88.4534,88.9555,88.9555,89.2035,89.2037,73,73,90.7199,space,1.4926,,90.7201,91.5536,space,0.8099,,0,9,9,5,1,55,bars/single005.png,bars/mask008.png,,,,,,,,,,,,,,,,,,,,,,,,,,,,,,,,,,,,,,,,,,,,,,,,,,,,,,,,,,,,,,,,
,,611cf8583b09a943818421ca,65af5501ebaa6ae4e2c7563f,2024-01-23_09h01.57.974,bars,2023.2.3,Win32,59.88023952,657b66ea316d21385b68909f,,,,,,,,,,,,,,,,,,,,,,,,,,,,,,,,,,,,,91.5545,100.4204,space,8.842,,,,,,,,,,,,,,,,,,,,,,,,,,,,,,,,,,,,,,,,,,,,,,,,,,,,,,,,,,,,
,,611cf8583b09a943818421ca,65af5501ebaa6ae4e2c7563f,2024-01-23_09h01.57.974,bars,2023.2.3,Win32,59.88023952,657b66ea316d21385b68909f,,,,,,,,,,,,,,,,,,,,,,,,,,,,,,,,,,,,,,,,,,100.4304,103.1545,left,2.7144,,103.1546,9,1,104.1524,0,0,0,0,1,9,1,9,2,,,,,,,,,,,,,,,,,,,,,,,,,,,,,,,,,,,,,,,,,
,,611cf8583b09a943818421ca,65af5501ebaa6ae4e2c7563f,2024-01-23_09h01.57.974,bars,2023.2.3,Win32,59.88023952,657b66ea316d21385b68909f,,,,,,,,,,,,,,,,,,,,,,,,,,,,,,,,,,,,,,,,,,104.1532,104.7027,left,0.5301,,104.7028,10,1,105.7043,0,1,1,1,1,10,0,10,1,,,,,,,,,,,,,,,,,,,,,,,,,,,,,,,,,,,,,,,,,
,,611cf8583b09a943818421ca,65af5501ebaa6ae4e2c7563f,2024-01-23_09h01.57.974,bars,2023.2.3,Win32,59.88023952,657b66ea316d21385b68909f,,,,,,,,,,,,,,,,,,,,,,,,,,,,,,,,,,,,,,,,,,105.7046,106.5194,left,0.785,,106.5194,10,1,107.5185,0,2,2,2,1,10,2,10,2,,,,,,,,,,,,,,,,,,,,,,,,,,,,,,,,,,,,,,,,,
,,611cf8583b09a943818421ca,65af5501ebaa6ae4e2c7563f,2024-01-23_09h01.57.974,bars,2023.2.3,Win32,59.88023952,657b66ea316d21385b68909f,,,,,,,,,,,,,,,,,,,,,,,,,,,,,,,,,,,,,,,,,,107.5195,108.5529,left,1.0153,,108.553,7,1,109.5514,0,3,3,3,1,8,4,7,3,,,,,,,,,,,,,,,,,,,,,,,,,,,,,,,,,,,,,,,,,
,,611cf8583b09a943818421ca,65af5501ebaa6ae4e2c7563f,2024-01-23_09h01.57.974,bars,2023.2.3,Win32,59.88023952,657b66ea316d21385b68909f,,,,,,,,,,,,,,,,,,,,,,,,,,,,,,,,,,,,,,,,,,109.5526,110.3858,left,0.8037,,110.386,5,1,111.3875,0,4,4,4,1,6,2,5,1,,,,,,,,,,,,,,,,,,,,,,,,,,,,,,,,,,,,,,,,,
,,611cf8583b09a943818421ca,65af5501ebaa6ae4e2c7563f,2024-01-23_09h01.57.974,bars,2023.2.3,Win32,59.88023952,657b66ea316d21385b68909f,,,,,,,,,,,,,,,,,,,,,,,,,,,,,,,,,,,,,,,,,,111.3879,112.4525,left,1.0352,,112.4526,4,1,113.4516,0,5,5,5,1,4,4,4,4,,,,,,,,,,,,,,,,,,,,,,,,,,,,,,,,,,,,,,,,,
,,611cf8583b09a943818421ca,65af5501ebaa6ae4e2c7563f,2024-01-23_09h01.57.974,bars,2023.2.3,Win32,59.88023952,657b66ea316d21385b68909f,,,,,,,,,,,,,,,,,,,,,,,,,,,,,,,,,,,,,,,,,,113.4524,113.9523,left,0.4776,,113.9524,1,1,114.9514,0,6,6,6,1,2,2,1,2,,,,,,,,,,,,,,,,,,,,,,,,,,,,,,,,,,,,,,,,,
,,611cf8583b09a943818421ca,65af5501ebaa6ae4e2c7563f,2024-01-23_09h01.57.974,bars,2023.2.3,Win32,59.88023952,657b66ea316d21385b68909f,,,,,,,,,,,,,,,,,,,,,,,,,,,,,,,,,,,,,,,,,,114.9521,115.3851,left,0.4193,,115.3852,0,1,116.3847,0,7,7,7,1,0,0,0,1,,,,,,,,,,,,,,,,,,,,,,,,,,,,,,,,,,,,,,,,,
,,611cf8583b09a943818421ca,65af5501ebaa6ae4e2c7563f,2024-01-23_09h01.57.974,bars,2023.2.3,Win32,59.88023952,657b66ea316d21385b68909f,,,,,,,,,,,,,,,,,,,,,,,,,,,,,,,,,,,,,,,,,,116.3857,117.0209,left,0.6172,,117.0209,1,1,118.0178,0,8,8,8,1,0,2,1,0,,,,,,,,,,,,,,,,,,,,,,,,,,,,,,,,,,,,,,,,,
,,611cf8583b09a943818421ca,65af5501ebaa6ae4e2c7563f,2024-01-23_09h01.57.974,bars,2023.2.3,Win32,59.88023952,657b66ea316d21385b68909f,,,,,,,,,,,,,,,,,,,,,,,,,,,,,,,,,,,,,,,,,,118.0186,118.2541,left,0.2171,,118.2541,2,1,119.2509,0,9,9,9,1,2,4,2,3,,,,,,,,,,,,,,,,,,,,,,,,,,,,,,,,,,,,,,,,,
,,611cf8583b09a943818421ca,65af5501ebaa6ae4e2c7563f,2024-01-23_09h01.57.974,bars,2023.2.3,Win32,59.88023952,657b66ea316d21385b68909f,,,,,,,,,,,,,,,,,,,,,,,,,,,,,,,,,,,,,,,,,,119.2519,119.5207,left,0.2505,,119.5207,0,1,120.5199,0,10,10,10,1,0,2,0,3,,,,,,,,,,,,,,,,,,,,,,,,,,,,,,,,,,,,,,,,,
,,611cf8583b09a943818421ca,65af5501ebaa6ae4e2c7563f,2024-01-23_09h01.57.974,bars,2023.2.3,Win32,59.88023952,657b66ea316d21385b68909f,,,,,,,,,,,,,,,,,,,,,,,,,,,,,,,,,,,,,,,,,,120.5206,121.1373,left,0.6008,,121.1374,0,1,122.1341,0,11,11,11,1,0,4,0,3,,,,,,,,,,,,,,,,,,,,,,,,,,,,,,,,,,,,,,,,,
,,611cf8583b09a943818421ca,65af5501ebaa6ae4e2c7563f,2024-01-23_09h01.57.974,bars,2023.2.3,Win32,59.88023952,657b66ea316d21385b68909f,,,,,,,,,,,,,,,,,,,,,,,,,,,,,,,,,,,,,,,,,,122.135,122.4705,left,0.3173,,122.4705,1,1,123.4671,0,12,12,12,1,2,6,1,6,,,,,,,,,,,,,,,,,,,,,,,,,,,,,,,,,,,,,,,,,
,,611cf8583b09a943818421ca,65af5501ebaa6ae4e2c7563f,2024-01-23_09h01.57.974,bars,2023.2.3,Win32,59.88023952,657b66ea316d21385b68909f,,,,,,,,,,,,,,,,,,,,,,,,,,,,,,,,,,,,,,,,,,123.4684,123.6029,right,0.1165,,123.6029,3,2,124.6034,0,13,13,13,1,0,4,1,3,,,,,,,,,,,,,,,,,,,,,,,,,,,,,,,,,,,,,,,,,
,,611cf8583b09a943818421ca,65af5501ebaa6ae4e2c7563f,2024-01-23_09h01.57.974,bars,2023.2.3,Win32,59.88023952,657b66ea316d21385b68909f,,,,,,,,,,,,,,,,,,,,,,,,,,,,,,,,,,,,,,,,,,124.6036,125.037,left,0.4173,,125.037,2,1,126.0338,0,14,14,14,1,2,6,2,7,,,,,,,,,,,,,,,,,,,,,,,,,,,,,,,,,,,,,,,,,
,,611cf8583b09a943818421ca,65af5501ebaa6ae4e2c7563f,2024-01-23_09h01.57.974,bars,2023.2.3,Win32,59.88023952,657b66ea316d21385b68909f,,,,,,,,,,,,,,,,,,,,,,,,,,,,,,,,,,,,,,,,,,126.0348,126.1841,right,0.1199,,126.1844,9,2,127.185,0,15,15,15,1,4,8,3,9,,,,,,,,,,,,,,,,,,,,,,,,,,,,,,,,,,,,,,,,,
,,611cf8583b09a943818421ca,65af5501ebaa6ae4e2c7563f,2024-01-23_09h01.57.974,bars,2023.2.3,Win32,59.88023952,657b66ea316d21385b68909f,,,,,,,,,,,,,,,,,,,,,,,,,,,,,,,,,,,,,,,,,,127.1855,127.3511,right,0.1457,,127.3512,7,2,128.353,0,16,16,16,1,6,6,7,7,,,,,,,,,,,,,,,,,,,,,,,,,,,,,,,,,,,,,,,,,
,,611cf8583b09a943818421ca,65af5501ebaa6ae4e2c7563f,2024-01-23_09h01.57.974,bars,2023.2.3,Win32,59.88023952,657b66ea316d21385b68909f,,,,,,,,,,,,,,,,,,,,,,,,,,,,,,,,,,,,,,,,,,128.3533,128.5704,left,0.2009,,128.5704,9,1,129.5701,0,17,17,17,1,8,4,9,5,,,,,,,,,,,,,,,,,,,,,,,,,,,,,,,,,,,,,,,,,
,,611cf8583b09a943818421ca,65af5501ebaa6ae4e2c7563f,2024-01-23_09h01.57.974,bars,2023.2.3,Win32,59.88023952,657b66ea316d21385b68909f,,,,,,,,,,,,,,,,,,,,,,,,,,,,,,,,,,,,,,,,,,129.5705,130.0009,left,0.4084,,130.0012,5,1,131.0003,0,18,18,18,1,6,2,5,1,,,,,,,,,,,,,,,,,,,,,,,,,,,,,,,,,,,,,,,,,
,,611cf8583b09a943818421ca,65af5501ebaa6ae4e2c7563f,2024-01-23_09h01.57.974,bars,2023.2.3,Win32,59.88023952,657b66ea316d21385b68909f,,,,,,,,,,,,,,,,,,,,,,,,,,,,,,,,,,,,,,,,,,131.001,131.2172,left,0.1889,,131.2174,7,1,132.219,0,19,19,19,1,8,0,7,0,,,,,,,,,,,,,,,,,,,,,,,,,,,,,,,,,,,,,,,,,
,,611cf8583b09a943818421ca,65af5501ebaa6ae4e2c7563f,2024-01-23_09h01.57.974,bars,2023.2.3,Win32,59.88023952,657b66ea316d21385b68909f,,,,,,,,,,,,,,,,,,,,,,,,,,,,,,,,,,,,,,,,,,,,,,,,,,,,,,,,,,,,132.2195,135.1842,space,2.9344,,,,,,,,,,,,,,,,,,,,,,,,,,,,,,,,,,,,,
,,611cf8583b09a943818421ca,65af5501ebaa6ae4e2c7563f,2024-01-23_09h01.57.974,bars,2023.2.3,Win32,59.88023952,657b66ea316d21385b68909f,,,,,,,,,,,136.2049,137.1995,,,137.7003,137.9494,,158,158,,,,,,,,,,,,,,,,bars/000.png,bars/mask001.png,,,,,,,,,,,,4,2,,,,,,,10,7,10,7,,,,,,135.1937,136.2007,space,0.9854,,137.2003,137.7002,137.9502,140.9029,space,2.9338,,140.9029,62,13,141.8997,141.9002,148.0501,space,6.1206,,0,0,0,0,1,40,145,,,,,,,,
,,611cf8583b09a943818421ca,65af5501ebaa6ae4e2c7563f,2024-01-23_09h01.57.974,bars,2023.2.3,Win32,59.88023952,657b66ea316d21385b68909f,,,,,,,,,,,148.0585,149.0486,,,149.5514,149.7988,,84,84,,,,,,,,,,,,,,,,bars/047.png,bars/mask004.png,,,,,,,,,,,,4,2,,,,,,,8,9,8,8,,,,,,,,,,,149.0487,149.5513,149.7989,152.2183,space,2.4007,,152.2185,69,14,153.2176,153.2178,159.2484,space,6.0031,,0,1,1,1,1,15,70,,,,,,,,
,,611cf8583b09a943818421ca,65af5501ebaa6ae4e2c7563f,2024-01-23_09h01.57.974,bars,2023.2.3,Win32,59.88023952,657b66ea316d21385b68909f,,,,,,,,,,,159.2572,160.2478,,,160.7482,161.0002,,65,65,,,,,,,,,,,,,,,,bars/026.png,bars/mask008.png,,,,,,,,,,,,2,2,,,,,,,6,7,4,7,,,,,,,,,,,160.2478,160.7481,161.0002,163.0509,space,2.034,,163.051,30,20,164.0474,164.0475,165.6005,space,1.5339,,0,2,2,2,1,35,85,,,,,,,,
,,611cf8583b09a943818421ca,65af5501ebaa6ae4e2c7563f,2024-01-23_09h01.57.974,bars,2023.2.3,Win32,59.88023952,657b66ea316d21385b68909f,,,,,,,,,,,165.6008,166.5989,,,167.0997,167.3471,,51,231,,,,,,,,,,,,,,,,bars/036.png,bars/mask001.png,,,,,,,,,,,,0,2,,,,,,,8,9,8,10,,,,,,,,,,,166.599,167.0997,167.3473,171.5967,space,4.2184,,171.5968,86,31,172.5965,172.5966,173.9799,space,1.3579,,0,3,3,3,1,145,20,,,,,,,,
,,611cf8583b09a943818421ca,65af5501ebaa6ae4e2c7563f,2024-01-23_09h01.57.974,bars,2023.2.3,Win32,59.88023952,657b66ea316d21385b68909f,,,,,,,,,,,173.9803,174.9798,,,175.4797,175.7297,,132,132,,,,,,,,,,,,,,,,bars/043.png,bars/mask006.png,,,,,,,,,,,,7,2,,,,,,,10,7,9,7,,,,,,,,,,,174.9798,175.4797,175.7298,179.4656,space,3.7309,,179.4656,78,2,180.4658,180.4659,181.6496,space,1.1668,,0,4,4,4,1,30,130,,,,,,,,
,,611cf8583b09a943818421ca,65af5501ebaa6ae4e2c7563f,2024-01-23_09h01.57.974,bars,2023.2.3,Win32,59.88023952,657b66ea316d21385b68909f,,,,,,,,,,,181.6499,182.648,,,183.1489,183.3962,,87,87,,,,,,,,,,,,,,,,bars/001.png,bars/mask000.png,,,,,,,,,,,,7,2,,,,,,,8,5,8,7,,,,,,,,,,,182.648,183.1489,183.3963,186.1492,space,2.7337,,186.1492,43,2,187.1473,187.1474,188.2464,space,1.0775,,0,5,5,5,1,130,85,,,,,,,,
,,611cf8583b09a943818421ca,65af5501ebaa6ae4e2c7563f,2024-01-23_09h01.57.974,bars,2023.2.3,Win32,59.88023952,657b66ea316d21385b68909f,,,,,,,,,,,188.247,189.2455,,,189.7459,189.9962,,176,176,,,,,,,,,,,,,,,,bars/033.png,bars/mask007.png,,,,,,,,,,,,1,2,,,,,,,10,3,10,3,,,,,,,,,,,189.2455,189.7456,189.9965,193.7985,space,3.7838,,193.7986,29,21,194.7953,194.7954,195.632,space,0.8176,,0,6,6,6,1,25,155,,,,,,,,
,,611cf8583b09a943818421ca,65af5501ebaa6ae4e2c7563f,2024-01-23_09h01.57.974,bars,2023.2.3,Win32,59.88023952,657b66ea316d21385b68909f,,,,,,,,,,,195.6322,196.6286,,,197.1283,197.3784,,0,0,,,,,,,,,,,,,,,,bars/012.png,bars/mask001.png,,,,,,,,,,,,1,2,,,,,,,8,5,6,2,,,,,,,,,,,196.629,197.1282,197.3784,201.0146,space,3.6172,,201.0146,90,15,202.0112,202.0114,202.7619,space,0.7241,,0,7,7,7,1,90,15,,,,,,,,
,,611cf8583b09a943818421ca,65af5501ebaa6ae4e2c7563f,2024-01-23_09h01.57.974,bars,2023.2.3,Win32,59.88023952,657b66ea316d21385b68909f,,,,,,,,,,,202.7626,203.761,,,204.2613,204.5113,,162,-18,,,,,,,,,,,,,,,,bars/024.png,bars/mask003.png,,,,,,,,,,,,1,2,,,,,,,10,3,10,2,,,,,,,,,,,203.761,204.2612,204.5114,206.5465,space,2.0163,,206.5466,42,8,207.5443,207.5444,208.3974,space,0.8338,,0,8,8,8,1,120,170,,,,,,,,
,,611cf8583b09a943818421ca,65af5501ebaa6ae4e2c7563f,2024-01-23_09h01.57.974,bars,2023.2.3,Win32,59.88023952,657b66ea316d21385b68909f,,,,,,,,,,,208.3977,209.3941,,,209.8942,210.1439,,83,83,,,,,,,,,,,,,,,,bars/018.png,bars/mask008.png,,,,,,,,,,,,2,2,,,,,,,10,1,10,3,,,,,,,,,,,209.3942,209.8941,210.144,212.5612,space,2.3925,,212.5614,67,7,213.5606,213.5607,214.1447,space,0.5562,,0,9,9,9,1,150,90,,,,,,,,
,,611cf8583b09a943818421ca,65af5501ebaa6ae4e2c7563f,2024-01-23_09h01.57.974,bars,2023.2.3,Win32,59.88023952,657b66ea316d21385b68909f,,,,,,,,,,,214.1451,215.144,,,215.6461,215.8937,,131,131,,,,,,,,,,,,,,,,bars/000.png,bars/mask005.png,,,,,,,,,,,,0,2,,,,,,,8,0,9,0,,,,,,,,,,,215.144,215.646,215.8938,218.3467,space,2.4337,,218.3467,89,14,219.3434,219.3434,220.5299,space,1.1672,,0,10,10,10,1,40,145,,,,,,,,
,,611cf8583b09a943818421ca,65af5501ebaa6ae4e2c7563f,2024-01-23_09h01.57.974,bars,2023.2.3,Win32,59.88023952,657b66ea316d21385b68909f,,,,,,,,,,,220.5302,221.529,,,222.0271,222.2766,,131,131,,,,,,,,,,,,,,,,bars/017.png,bars/mask008.png,,,,,,,,,,,,4,1,,,,,,,6,2,7,2,,,,,,,,,,,221.5291,222.027,222.2768,223.5937,space,1.2869,,223.594,14,86,224.593,224.5931,228.2296,space,3.6172,,0,11,11,11,1,145,45,,,,,,,,
,,611cf8583b09a943818421ca,65af5501ebaa6ae4e2c7563f,2024-01-23_09h01.57.974,bars,2023.2.3,Win32,59.88023952,657b66ea316d21385b68909f,,,,,,,,,,,228.2377,229.2258,,,229.7261,229.9773,,60,60,,,,,,,,,,,,,,,,bars/036.png,bars/mask007.png,,,,,,,,,,,,0,2,,,,,,,8,0,9,0,,,,,,,,,,,229.2259,229.726,229.9774,230.979,space,0.9838,,230.979,85,40,231.9757,231.9757,232.9099,space,0.9085,,0,12,12,12,1,145,20,,,,,,,,
,,611cf8583b09a943818421ca,65af5501ebaa6ae4e2c7563f,2024-01-23_09h01.57.974,bars,2023.2.3,Win32,59.88023952,657b66ea316d21385b68909f,,,,,,,,,,,232.9105,233.9115,,,234.4089,234.6595,,79,79,,,,,,,,,,,,,,,,bars/021.png,bars/mask009.png,,,,,,,,,,,,0,2,,,,,,,10,2,9,0,,,,,,,,,,,233.9116,234.4089,234.6597,238.0429,space,3.3595,,238.043,76,9,239.0418,239.0419,239.7952,space,0.734,,0,13,13,13,1,155,70,,,,,,,,
,,611cf8583b09a943818421ca,65af5501ebaa6ae4e2c7563f,2024-01-23_09h01.57.974,bars,2023.2.3,Win32,59.88023952,657b66ea316d21385b68909f,,,,,,,,,,,239.7955,240.7918,,,241.2928,241.5417,,169,-11,,,,,,,,,,,,,,,,bars/046.png,bars/mask002.png,,,,,,,,,,,,5,1,,,,,,,8,4,10,6,,,,,,,,,,,240.7919,241.2925,241.5417,245.9749,space,4.4121,,245.9751,14,84,246.9747,246.9749,247.4582,space,0.4513,,0,14,14,14,1,155,85,,,,,,,,
,,611cf8583b09a943818421ca,65af5501ebaa6ae4e2c7563f,2024-01-23_09h01.57.974,bars,2023.2.3,Win32,59.88023952,657b66ea316d21385b68909f,,,,,,,,,,,247.4593,248.4579,,,248.9578,249.2079,,174,174,,,,,,,,,,,,,,,,bars/023.png,bars/mask000.png,,,,,,,,,,,,1,1,,,,,,,10,2,10,3,,,,,,,,,,,248.458,248.9577,249.208,252.6943,space,3.4673,,252.6944,26,59,253.6908,253.691,253.9944,space,0.2843,,0,15,15,15,1,20,115,,,,,,,,
,,611cf8583b09a943818421ca,65af5501ebaa6ae4e2c7563f,2024-01-23_09h01.57.974,bars,2023.2.3,Win32,59.88023952,657b66ea316d21385b68909f,,,,,,,,,,,253.9947,254.9935,,,255.491,255.7408,,87,87,,,,,,,,,,,,,,,,bars/022.png,bars/mask002.png,,,,,,,,,,,,5,1,,,,,,,8,0,7,0,,,,,,,,,,,254.9935,255.4909,255.741,258.5437,space,2.7839,,258.5437,8,67,259.5431,259.5432,261.7936,space,2.234,,0,16,16,16,1,95,20,,,,,,,,
,,611cf8583b09a943818421ca,65af5501ebaa6ae4e2c7563f,2024-01-23_09h01.57.974,bars,2023.2.3,Win32,59.88023952,657b66ea316d21385b68909f,,,,,,,,,,,261.8016,262.7927,,,263.2902,263.5428,,33,213,,,,,,,,,,,,,,,,bars/043.png,bars/mask000.png,,,,,,,,,,,,9,1,,,,,,,10,0,10,0,,,,,,,,,,,262.7927,263.2901,263.5429,266.3933,space,2.834,,266.3933,3,83,267.3897,267.3898,268.1106,space,0.7014,,0,17,17,17,1,30,130,,,,,,,,
,,611cf8583b09a943818421ca,65af5501ebaa6ae4e2c7563f,2024-01-23_09h01.57.974,bars,2023.2.3,Win32,59.88023952,657b66ea316d21385b68909f,,,,,,,,,,,268.1109,269.1063,,,269.6065,269.8562,,155,-25,,,,,,,,,,,,,,,,bars/010.png,bars/mask005.png,,,,,,,,,,,,6,1,,,,,,,10,2,9,4,,,,,,,,,,,269.1064,269.6063,269.8563,271.3067,space,1.4398,,271.3069,10,80,272.306,272.3061,272.7093,space,0.384,,0,18,18,18,1,165,55,,,,,,,,
,,611cf8583b09a943818421ca,65af5501ebaa6ae4e2c7563f,2024-01-23_09h01.57.974,bars,2023.2.3,Win32,59.88023952,657b66ea316d21385b68909f,,,,,,,,,,,272.7096,273.7061,,,274.2063,274.4585,,171,171,,,,,,,,,,,,,,,,bars/005.png,bars/mask006.png,,,,,,,,,,,,4,1,,,,,,,10,4,10,4,,,,,,,,,,,273.7061,274.2062,274.4585,277.3731,space,2.8933,,277.3733,19,31,278.3747,278.3748,278.6426,space,0.2507,,0,19,19,19,1,10,140,,,,,,,,
,,611cf8583b09a943818421ca,65af5501ebaa6ae4e2c7563f,2024-01-23_09h01.57.974,bars,2023.2.3,Win32,59.88023952,657b66ea316d21385b68909f,,,,,,,,,,,278.6429,279.6389,,,280.1415,280.3904,,142,142,,,,,,,,,,,,,,,,bars/040.png,bars/mask003.png,,,,,,,,,,,,8,1,,,,,,,10,6,9,6,,,,,,,,,,,279.6389,280.1415,280.3904,282.1586,space,1.7505,,282.1587,2,43,283.1554,283.1555,283.6418,space,0.4672,,0,20,20,20,1,140,5,,,,,,,,
,,611cf8583b09a943818421ca,65af5501ebaa6ae4e2c7563f,2024-01-23_09h01.57.974,bars,2023.2.3,Win32,59.88023952,657b66ea316d21385b68909f,,,,,,,,,,,283.6422,284.6386,,,285.1387,285.389,,87,87,,,,,,,,,,,,,,,,bars/013.png,bars/mask005.png,,,,,,,,,,,,4,1,,,,,,,8,4,7,2,,,,,,,,,,,284.6387,285.1386,285.3891,287.4221,space,2.0046,,287.4222,12,77,288.4242,288.4242,288.6249,space,0.1842,,0,21,21,21,1,75,10,,,,,,,,
,,611cf8583b09a943818421ca,65af5501ebaa6ae4e2c7563f,2024-01-23_09h01.57.974,bars,2023.2.3,Win32,59.88023952,657b66ea316d21385b68909f,,,,,,,,,,,288.6252,289.6214,,,290.1216,290.3739,,105,105,,,,,,,,,,,,,,,,bars/045.png,bars/mask008.png,,,,,,,,,,,,8,1,,,,,,,10,6,9,8,,,,,,,,,,,289.6216,290.1214,290.3739,292.2911,space,1.9005,,292.2911,5,85,293.2879,293.2879,293.6219,space,0.3118,,0,22,22,22,1,100,10,,,,,,,,
,,611cf8583b09a943818421ca,65af5501ebaa6ae4e2c7563f,2024-01-23_09h01.57.974,bars,2023.2.3,Win32,59.88023952,657b66ea316d21385b68909f,,,,,,,,,,,293.6225,294.6211,,,295.1212,295.3715,,158,-22,,,,,,,,,,,,,,,,bars/049.png,bars/mask007.png,,,,,,,,,,,,9,1,,,,,,,10,4,10,2,,,,,,,,,,,294.6212,295.1211,295.3716,298.7243,space,3.3497,,298.7243,2,43,299.7206,299.7207,300.2379,space,0.4848,,0,23,23,23,1,160,115,,,,,,,,
,,611cf8583b09a943818421ca,65af5501ebaa6ae4e2c7563f,2024-01-23_09h01.57.974,bars,2023.2.3,Win32,59.88023952,657b66ea316d21385b68909f,,,,,,,,,,,300.2387,301.2374,,,301.7374,301.9873,,140,140,,,,,,,,,,,,,,,,bars/017.png,bars/mask005.png,,,,,,,,,,,,8,1,,,,,,,10,2,10,2,,,,,,,,,,,301.2374,301.7373,301.9874,303.7728,space,1.7663,,303.7729,5,85,304.7708,304.7709,305.2708,space,0.4716,,0,24,24,24,1,145,45,,,,,,,,
,,611cf8583b09a943818421ca,65af5501ebaa6ae4e2c7563f,2024-01-23_09h01.57.974,bars,2023.2.3,Win32,59.88023952,657b66ea316d21385b68909f,,,,,,,,,,,305.2716,306.2704,,,306.7705,307.0208,,40,40,,,,,,,,,,,,,,,,bars/003.png,bars/mask006.png,,,,,,,,,,,,4,1,,,,,,,8,4,7,4,,,,,,,,,,,306.2706,306.7703,307.021,309.2709,space,2.226,,309.271,15,80,310.27,310.27,313.8232,space,3.5339,,0,25,25,25,1,25,140,,,,,,,,
,,611cf8583b09a943818421ca,65af5501ebaa6ae4e2c7563f,2024-01-23_09h01.57.974,bars,2023.2.3,Win32,59.88023952,657b66ea316d21385b68909f,,,,,,,,,,,313.8235,314.8223,,,315.3198,315.5699,,154,-26,,,,,,,,,,,,,,,,bars/036.png,bars/mask000.png,,,,,,,,,,,,7,1,,,,,,,10,6,10,6,,,,,,,,,,,314.8223,315.3197,315.57,319.3396,space,3.7508,,319.3396,9,46,320.3366,320.3367,321.2534,space,0.8957,,0,26,26,26,1,145,20,,,,,,,,
,,611cf8583b09a943818421ca,65af5501ebaa6ae4e2c7563f,2024-01-23_09h01.57.974,bars,2023.2.3,Win32,59.88023952,657b66ea316d21385b68909f,,,,,,,,,,,321.254,322.2527,,,322.7526,323.004,,90,90,,,,,,,,,,,,,,,,bars/029.png,bars/mask000.png,,,,,,,,,,,,10,1,,,,,,,10,8,10,8,,,,,,,,,,,322.2528,322.7524,323.0041,323.8389,space,0.8171,,323.8389,0,45,324.8356,324.8357,326.0056,space,1.1507,,0,27,27,27,1,90,45,,,,,,,,
,,611cf8583b09a943818421ca,65af5501ebaa6ae4e2c7563f,2024-01-23_09h01.57.974,bars,2023.2.3,Win32,59.88023952,657b66ea316d21385b68909f,,,,,,,,,,,326.0058,327.0047,,,327.5023,327.7549,,156,-24,,,,,,,,,,,,,,,,bars/037.png,bars/mask009.png,,,,,,,,,,,,8,1,,,,,,,8,10,10,9,,,,,,,,,,,327.0047,327.5021,327.7549,329.6218,space,1.8501,,329.6218,6,51,330.6185,330.6187,331.0192,space,0.3762,,0,28,28,28,1,150,105,,,,,,,,
,,611cf8583b09a943818421ca,65af5501ebaa6ae4e2c7563f,2024-01-23_09h01.57.974,bars,2023.2.3,Win32,59.88023952,657b66ea316d21385b68909f,,,,,,,,,,,331.0199,332.0184,,,332.5187,332.7683,,92,92,,,,,,,,,,,,,,,,bars/045.png,bars/mask003.png,,,,,,,,,,,,7,1,,,,,,,10,10,10,10,,,,,,,,,,,332.0185,332.5186,332.7684,333.7384,space,0.9507,,333.7384,8,82,334.7347,334.7349,335.0355,space,0.2687,,0,29,29,29,1,100,10,,,,,,,,
,,611cf8583b09a943818421ca,65af5501ebaa6ae4e2c7563f,2024-01-23_09h01.57.974,bars,2023.2.3,Win32,59.88023952,657b66ea316d21385b68909f,,,,,,,,,,,335.0363,336.0373,,,336.5353,336.7846,,141,141,,,,,,,,,,,,,,,,bars/018.png,bars/mask008.png,,,,,,,,,,,,4,1,,,,,,,8,10,6,10,,,,,,,,,,,336.0373,336.5351,336.7847,339.1047,space,2.3009,,339.1047,9,51,340.1011,340.1012,340.5715,space,0.4511,,0,30,30,30,1,150,90,,,,,,,,
,,611cf8583b09a943818421ca,65af5501ebaa6ae4e2c7563f,2024-01-23_09h01.57.974,bars,2023.2.3,Win32,59.88023952,657b66ea316d21385b68909f,,,,,,,,,,,340.5716,341.5677,,,342.0677,342.3176,,80,80,,,,,,,,,,,,,,,,bars/044.png,bars/mask009.png,,,,,,,,,,,,7,1,,,,,,,6,8,8,9,,,,,,,,,,,341.5677,342.0676,342.3177,344.2373,space,1.9005,,344.2374,5,75,345.2341,345.2343,345.6859,space,0.4218,,0,31,31,31,1,75,155,,,,,,,,
,,611cf8583b09a943818421ca,65af5501ebaa6ae4e2c7563f,2024-01-23_09h01.57.974,bars,2023.2.3,Win32,59.88023952,657b66ea316d21385b68909f,,,,,,,,,,,345.6861,346.684,,,347.184,347.434,,96,96,,,,,,,,,,,,,,,,bars/015.png,bars/mask006.png,,,,,,,,,,,,2,1,,,,,,,4,10,4,10,,,,,,,,,,,346.6841,347.1839,347.4342,350.6868,space,3.2493,,350.6869,14,64,351.6835,351.6836,351.9841,space,0.2727,,0,32,32,32,1,110,160,,,,,,,,
,,611cf8583b09a943818421ca,65af5501ebaa6ae4e2c7563f,2024-01-23_09h01.57.974,bars,2023.2.3,Win32,59.88023952,657b66ea316d21385b68909f,,,,,,,,,,,351.9849,352.9835,,,353.4838,353.7333,,106,106,,,,,,,,,,,,,,,,bars/025.png,bars/mask003.png,,,,,,,,,,,,2,1,,,,,,,2,8,2,8,,,,,,,,,,,352.9836,353.4837,353.7334,356.32,space,2.5672,,356.32,1,66,357.3165,357.3165,357.917,space,0.5727,,0,33,33,33,1,105,40,,,,,,,,
,,611cf8583b09a943818421ca,65af5501ebaa6ae4e2c7563f,2024-01-23_09h01.57.974,bars,2023.2.3,Win32,59.88023952,657b66ea316d21385b68909f,,,,,,,,,,,357.9177,358.9165,,,359.4168,359.6689,,98,98,,,,,,,,,,,,,,,,bars/046.png,bars/mask006.png,,,,,,,,,,,,3,2,,,,,,,4,6,5,6,,,,,,,,,,,358.9167,359.4167,359.6689,361.7861,space,2.1005,,361.7862,57,13,362.7828,362.7829,363.8028,space,1.0004,,0,34,34,34,1,155,85,,,,,,,,
,,611cf8583b09a943818421ca,65af5501ebaa6ae4e2c7563f,2024-01-23_09h01.57.974,bars,2023.2.3,Win32,59.88023952,657b66ea316d21385b68909f,,,,,,,,,,,363.8031,364.8023,,,365.2993,365.552,,2,2,,,,,,,,,,,,,,,,bars/033.png,bars/mask000.png,,,,,,,,,,,,0,1,,,,,,,2,4,2,4,,,,,,,,,,,364.8023,365.2991,365.552,368.1161,space,2.5379,,368.1163,23,27,369.1157,369.1157,370.2522,space,1.1172,,0,35,35,35,1,25,155,,,,,,,,
,,611cf8583b09a943818421ca,65af5501ebaa6ae4e2c7563f,2024-01-23_09h01.57.974,bars,2023.2.3,Win32,59.88023952,657b66ea316d21385b68909f,,,,,,,,,,,370.2524,371.2513,,,371.7492,371.9987,,129,129,,,,,,,,,,,,,,,,bars/000.png,bars/mask001.png,,,,,,,,,,,,0,2,,,,,,,4,2,4,1,,,,,,,,,,,371.2513,371.7491,371.9988,375.0517,space,3.0338,,375.0517,89,16,376.0485,376.0486,377.1987,space,1.1277,,0,36,36,36,1,40,145,,,,,,,,
,,611cf8583b09a943818421ca,65af5501ebaa6ae4e2c7563f,2024-01-23_09h01.57.974,bars,2023.2.3,Win32,59.88023952,657b66ea316d21385b68909f,,,,,,,,,,,377.1997,378.1983,,,378.6983,378.9481,,88,88,,,,,,,,,,,,,,,,bars/042.png,bars/mask002.png,,,,,,,,,,,,0,2,,,,,,,2,0,0,0,,,,,,,,,,,378.1984,378.6982,378.9482,382.3014,space,3.3338,,382.3014,57,13,383.2979,383.298,385.1345,space,1.817,,0,37,37,37,1,145,75,,,,,,,,
,,611cf8583b09a943818421ca,65af5501ebaa6ae4e2c7563f,2024-01-23_09h01.57.974,bars,2023.2.3,Win32,59.88023952,657b66ea316d21385b68909f,,,,,,,,,,,385.1347,386.1311,,,386.6318,386.8809,,1,1,,,,,,,,,,,,,,,,bars/004.png,bars/mask008.png,,,,,,,,,,,,0,1,,,,,,,0,0,0,2,,,,,,,,,,,386.1313,386.6314,386.881,389.6841,space,2.7841,,389.6842,24,56,390.6808,390.6809,392.483,space,1.7827,,0,38,38,38,1,25,125,,,,,,,,
,,611cf8583b09a943818421ca,65af5501ebaa6ae4e2c7563f,2024-01-23_09h01.57.974,bars,2023.2.3,Win32,59.88023952,657b66ea316d21385b68909f,,,,,,,,,,,392.4832,393.4806,,,393.9806,394.2322,,112,112,,,,,,,,,,,,,,,,bars/028.png,bars/mask001.png,,,,,,,,,,,,0,2,,,,,,,2,0,2,0,,,,,,,,,,,393.4807,393.9805,394.2323,396.4336,space,2.184,,396.4336,67,8,397.4307,397.431,400.4309,space,2.9765,,0,39,39,39,1,45,120,,,,,,,,
,,611cf8583b09a943818421ca,65af5501ebaa6ae4e2c7563f,2024-01-23_09h01.57.974,bars,2023.2.3,Win32,59.88023952,657b66ea316d21385b68909f,,,,,,,,,,,400.4313,401.4296,,,401.9305,402.1828,,4,184,,,,,,,,,,,,,,,,bars/010.png,bars/mask007.png,,,,,,,,,,,,1,1,,,,,,,4,0,3,0,,,,,,,,,,,401.4296,401.9303,402.1829,406.1817,space,3.9827,,406.1817,19,51,407.1795,407.1797,408.4796,space,1.2799,,0,40,40,40,1,165,55,,,,,,,,
,,611cf8583b09a943818421ca,65af5501ebaa6ae4e2c7563f,2024-01-23_09h01.57.974,bars,2023.2.3,Win32,59.88023952,657b66ea316d21385b68909f,,,,,,,,,,,408.4807,409.4819,,,409.9794,410.2293,,173,-7,,,,,,,,,,,,,,,,bars/038.png,bars/mask006.png,,,,,,,,,,,,2,1,,,,,,,2,0,3,0,,,,,,,,,,,409.4819,409.9793,410.2294,413.1327,space,2.8842,,413.1327,8,77,414.129,414.1291,414.596,space,0.4457,,0,41,41,41,1,165,70,,,,,,,,
,,611cf8583b09a943818421ca,65af5501ebaa6ae4e2c7563f,2024-01-23_09h01.57.974,bars,2023.2.3,Win32,59.88023952,657b66ea316d21385b68909f,,,,,,,,,,,414.597,415.5955,,,416.097,416.3455,,107,107,,,,,,,,,,,,,,,,bars/034.png,bars/mask000.png,,,,,,,,,,,,0,1,,,,,,,0,0,1,0,,,,,,,,,,,415.5955,416.097,416.3456,418.6154,space,2.2509,,418.6154,18,42,419.6119,419.612,420.2789,space,0.6461,,0,42,42,42,1,125,65,,,,,,,,
,,611cf8583b09a943818421ca,65af5501ebaa6ae4e2c7563f,2024-01-23_09h01.57.974,bars,2023.2.3,Win32,59.88023952,657b66ea316d21385b68909f,,,,,,,,,,,420.2798,421.2785,,,421.7785,422.0287,,146,146,,,,,,,,,,,,,,,,bars/046.png,bars/mask004.png,,,,,,,,,,,,1,1,,,,,,,2,2,1,2,,,,,,,,,,,421.2786,421.7784,422.0289,425.3619,space,3.309,,425.362,9,61,426.3637,426.3637,426.9623,space,0.576,,0,43,43,43,1,155,85,,,,,,,,
,,611cf8583b09a943818421ca,65af5501ebaa6ae4e2c7563f,2024-01-23_09h01.57.974,bars,2023.2.3,Win32,59.88023952,657b66ea316d21385b68909f,,,,,,,,,,,426.9628,427.9627,,,428.4613,428.7115,,19,199,,,,,,,,,,,,,,,,bars/033.png,bars/mask001.png,,,,,,,,,,,,3,1,,,,,,,4,4,4,3,,,,,,,,,,,427.9627,428.4612,428.7115,432.3641,space,3.6337,,432.3641,6,44,433.3609,433.361,433.7474,space,0.3672,,0,44,44,44,1,25,155,,,,,,,,
,,611cf8583b09a943818421ca,65af5501ebaa6ae4e2c7563f,2024-01-23_09h01.57.974,bars,2023.2.3,Win32,59.88023952,657b66ea316d21385b68909f,,,,,,,,,,,433.7477,434.7441,,,435.2443,435.4941,,82,82,,,,,,,,,,,,,,,,bars/022.png,bars/mask001.png,,,,,,,,,,,,3,1,,,,,,,6,2,6,2,,,,,,,,,,,434.7441,435.2441,435.4942,441.1137,space,5.6001,,441.1137,13,62,442.1104,442.1104,446.2439,space,4.1016,,0,45,45,45,1,95,20,,,,,,,,
,,611cf8583b09a943818421ca,65af5501ebaa6ae4e2c7563f,2024-01-23_09h01.57.974,bars,2023.2.3,Win32,59.88023952,657b66ea316d21385b68909f,,,,,,,,,,,446.2523,447.243,,,447.7438,447.9932,,103,103,,,,,,,,,,,,,,,,bars/028.png,bars/mask007.png,,,,,,,,,,,,0,2,,,,,,,8,0,8,0,,,,,,,,,,,447.2431,447.7436,447.9933,450.4132,space,2.4018,,450.4132,58,17,451.4096,451.4096,451.7794,space,0.3506,,0,46,46,46,1,45,120,,,,,,,,
,,611cf8583b09a943818421ca,65af5501ebaa6ae4e2c7563f,2024-01-23_09h01.57.974,bars,2023.2.3,Win32,59.88023952,657b66ea316d21385b68909f,,,,,,,,,,,451.7797,452.7761,,,453.2788,453.5261,,179,179,,,,,,,,,,,,,,,,bars/011.png,bars/mask003.png,,,,,,,,,,,,3,1,,,,,,,10,2,9,2,,,,,,,,,,,452.7762,453.2788,453.5261,454.2432,space,0.6887,,454.2434,19,86,455.2426,455.2427,455.8957,space,0.6335,,0,47,47,47,1,160,85,,,,,,,,
,,611cf8583b09a943818421ca,65af5501ebaa6ae4e2c7563f,2024-01-23_09h01.57.974,bars,2023.2.3,Win32,59.88023952,657b66ea316d21385b68909f,,,,,,,,,,,455.8959,456.8949,,,457.3924,457.645,,108,108,,,,,,,,,,,,,,,,bars/008.png,bars/mask009.png,,,,,,,,,,,,8,1,,,,,,,8,0,9,0,,,,,,,,,,,456.8949,457.3923,457.6451,460.8124,space,3.1507,,460.8124,2,72,461.8087,461.8089,462.2927,space,0.4567,,0,48,48,48,1,110,0,,,,,,,,
,,611cf8583b09a943818421ca,65af5501ebaa6ae4e2c7563f,2024-01-23_09h01.57.974,bars,2023.2.3,Win32,59.88023952,657b66ea316d21385b68909f,,,,,,,,,,,462.2935,463.2945,,,463.7945,464.0419,,163,163,,,,,,,,,,,,,,,,bars/001.png,bars/mask008.png,,,,,,,,,,,,0,1,,,,,,,10,2,9,1,,,,,,,,,,,463.2946,463.7944,464.042,466.0951,space,2.0342,,466.0952,33,78,467.092,467.0921,467.7584,space,0.6464,,0,49,49,49,1,130,85,,,,,,,,
,,611cf8583b09a943818421ca,65af5501ebaa6ae4e2c7563f,2024-01-23_09h01.57.974,bars,2023.2.3,Win32,59.88023952,657b66ea316d21385b68909f,,,,,,,,,,,,,,,,,,,,,,,,,,,,,,,,,,,,,,,,,,,,,,,,,,,,,,,,,,,,,,,,,,,,,,,,,,,,,,,,,,,,,,,,,,,,,467.7598,527.7571,0,0,0,3,1,sequence_tables/blk006.csv
,,611cf8583b09a943818421ca,65af5501ebaa6ae4e2c7563f,2024-01-23_09h01.57.974,bars,2023.2.3,Win32,59.88023952,657b66ea316d21385b68909f,,,,,,,,,,,528.9758,529.9704,,,530.4705,530.7232,,176,-4,,,,,,,,,,,,,,,,bars/012.png,bars/mask009.png,,,,,,,,,,,,1,2,,,,,,,3,3,2,3,,,,,,527.7659,528.9709,space,1.1943,,529.9707,530.4704,530.7233,533.0571,space,2.3178,,533.0572,86,19,534.0535,534.0536,534.0633,,,,0,0,0,0,1,90,15,,,,,,,,
,,611cf8583b09a943818421ca,65af5501ebaa6ae4e2c7563f,2024-01-23_09h01.57.974,bars,2023.2.3,Win32,59.88023952,657b66ea316d21385b68909f,,,,,,,,,,,534.0636,535.0534,,,535.556,535.8034,,81,81,,,,,,,,,,,,,,,,bars/018.png,bars/mask005.png,,,,,,,,,,,,1,2,,,,,,,1,1,1,2,,,,,,,,,,,535.0535,535.556,535.8035,538.1231,space,2.3004,,538.1232,69,9,539.1198,539.12,539.1291,,,,0,1,1,1,1,150,90,,,,,,,,
,,611cf8583b09a943818421ca,65af5501ebaa6ae4e2c7563f,2024-01-23_09h01.57.974,bars,2023.2.3,Win32,59.88023952,657b66ea316d21385b68909f,,,,,,,,,,,539.1293,540.1197,,,540.6198,540.8695,,61,61,,,,,,,,,,,,,,,,bars/048.png,bars/mask004.png,,,,,,,,,,,,3,1,,,,,,,3,0,4,0,,,,,,,,,,,540.1199,540.6197,540.8696,543.9395,space,3.0506,,543.9396,11,66,544.936,544.9361,544.946,,,,0,2,2,2,1,50,175,,,,,,,,
,,611cf8583b09a943818421ca,65af5501ebaa6ae4e2c7563f,2024-01-23_09h01.57.974,bars,2023.2.3,Win32,59.88023952,657b66ea316d21385b68909f,,,,,,,,,,,544.9462,545.9359,,,546.4384,546.686,,61,61,,,,,,,,,,,,,,,,bars/014.png,bars/mask009.png,,,,,,,,,,,,0,1,,,,,,,1,2,0,4,,,,,,,,,,,545.9359,546.4384,546.6861,549.0054,space,2.3002,,549.0054,19,61,550.0022,550.0023,550.0112,,,,0,3,3,3,1,80,0,,,,,,,,
,,611cf8583b09a943818421ca,65af5501ebaa6ae4e2c7563f,2024-01-23_09h01.57.974,bars,2023.2.3,Win32,59.88023952,657b66ea316d21385b68909f,,,,,,,,,,,550.0115,551.0023,,,551.5023,551.7546,,145,145,,,,,,,,,,,,,,,,bars/015.png,bars/mask002.png,,,,,,,,,,,,2,2,,,,,,,3,4,4,4,,,,,,,,,,,551.0023,551.5022,551.7547,553.3886,space,1.6172,,553.3886,35,15,554.3878,554.3878,554.3973,,,,0,4,4,4,1,110,160,,,,,,,,
,,611cf8583b09a943818421ca,65af5501ebaa6ae4e2c7563f,2024-01-23_09h01.57.974,bars,2023.2.3,Win32,59.88023952,657b66ea316d21385b68909f,,,,,,,,,,,554.3975,555.4017,,,555.9046,556.1546,,68,68,,,,,,,,,,,,,,,,bars/025.png,bars/mask006.png,,,,,,,,,,,,0,2,,,,,,,1,6,2,6,,,,,,,,,,,555.4018,555.9045,556.1546,559.3883,space,3.2174,,559.3883,37,28,560.3864,560.3864,560.395,,,,0,5,5,5,1,105,40,,,,,,,,
,,611cf8583b09a943818421ca,65af5501ebaa6ae4e2c7563f,2024-01-23_09h01.57.974,bars,2023.2.3,Win32,59.88023952,657b66ea316d21385b68909f,,,,,,,,,,,560.3953,561.3873,,,561.8874,562.1347,,115,115,,,,,,,,,,,,,,,,bars/039.png,bars/mask007.png,,,,,,,,,,,,4,2,,,,,,,0,8,0,6,,,,,,,,,,,561.3873,561.8874,562.1347,562.8878,space,0.7339,,562.8878,60,10,563.8845,563.8846,563.886,,,,0,6,6,6,1,175,105,,,,,,,,
,,611cf8583b09a943818421ca,65af5501ebaa6ae4e2c7563f,2024-01-23_09h01.57.974,bars,2023.2.3,Win32,59.88023952,657b66ea316d21385b68909f,,,,,,,,,,,563.8863,564.8844,,,565.3845,565.6348,,165,-15,,,,,,,,,,,,,,,,bars/000.png,bars/mask001.png,,,,,,,,,,,,2,2,,,,,,,0,6,0,6,,,,,,,,,,,564.8844,565.3844,565.6349,568.4349,space,2.7742,,568.4351,55,20,569.4339,569.434,569.4433,,,,0,7,7,7,1,40,145,,,,,,,,
,,611cf8583b09a943818421ca,65af5501ebaa6ae4e2c7563f,2024-01-23_09h01.57.974,bars,2023.2.3,Win32,59.88023952,657b66ea316d21385b68909f,,,,,,,,,,,569.4435,570.4341,,,570.9345,571.1841,,26,26,,,,,,,,,,,,,,,,bars/040.png,bars/mask003.png,,,,,,,,,,,,1,2,,,,,,,2,4,1,4,,,,,,,,,,,570.4341,570.9344,571.1842,573.7539,space,2.5507,,573.7539,66,21,574.7508,574.751,574.7597,,,,0,8,8,8,1,140,5,,,,,,,,
,,611cf8583b09a943818421ca,65af5501ebaa6ae4e2c7563f,2024-01-23_09h01.57.974,bars,2023.2.3,Win32,59.88023952,657b66ea316d21385b68909f,,,,,,,,,,,574.7598,575.7506,,,576.2508,576.5005,,70,70,,,,,,,,,,,,,,,,bars/030.png,bars/mask005.png,,,,,,,,,,,,5,2,,,,,,,4,6,3,6,,,,,,,,,,,575.7508,576.2506,576.5007,580.3366,space,3.8181,,580.3366,70,5,581.3334,581.3334,581.3423,,,,0,9,9,9,1,140,65,,,,,,,,
,,611cf8583b09a943818421ca,65af5501ebaa6ae4e2c7563f,2024-01-23_09h01.57.974,bars,2023.2.3,Win32,59.88023952,657b66ea316d21385b68909f,,,,,,,,,,,581.3424,582.3335,,,582.8332,583.0831,,14,14,,,,,,,,,,,,,,,,bars/022.png,bars/mask000.png,,,,,,,,,,,,7,2,,,,,,,6,8,7,9,,,,,,,,,,,582.3335,582.8332,583.0831,585.5032,space,2.4006,,585.5032,81,6,586.4996,586.4996,586.5087,,,,0,10,10,10,1,95,20,,,,,,,,
,,611cf8583b09a943818421ca,65af5501ebaa6ae4e2c7563f,2024-01-23_09h01.57.974,bars,2023.2.3,Win32,59.88023952,657b66ea316d21385b68909f,,,,,,,,,,,586.5089,587.4993,,,588.0024,588.2496,,99,99,,,,,,,,,,,,,,,,bars/011.png,bars/mask005.png,,,,,,,,,,,,3,2,,,,,,,4,6,4,5,,,,,,,,,,,587.4994,588.0024,588.2497,590.3359,space,2.0674,,590.3359,61,14,591.3353,591.3353,591.3441,,,,0,11,11,11,1,160,85,,,,,,,,
,,611cf8583b09a943818421ca,65af5501ebaa6ae4e2c7563f,2024-01-23_09h01.57.974,bars,2023.2.3,Win32,59.88023952,657b66ea316d21385b68909f,,,,,,,,,,,591.3442,592.3326,,,592.8324,593.0852,,53,53,,,,,,,,,,,,,,,,bars/029.png,bars/mask001.png,,,,,,,,,,,,7,2,,,,,,,2,8,2,9,,,,,,,,,,,592.3326,592.8323,593.0852,595.0852,space,1.9836,,595.0853,37,8,596.0823,596.0824,596.0838,,,,0,12,12,12,1,90,45,,,,,,,,
,,611cf8583b09a943818421ca,65af5501ebaa6ae4e2c7563f,2024-01-23_09h01.57.974,bars,2023.2.3,Win32,59.88023952,657b66ea316d21385b68909f,,,,,,,,,,,596.0841,597.0835,,,597.5821,597.8336,,54,54,,,,,,,,,,,,,,,,bars/007.png,bars/mask000.png,,,,,,,,,,,,9,2,,,,,,,0,10,1,9,,,,,,,,,,,597.0835,597.582,597.8336,600.0691,space,2.218,,600.0692,59,1,601.065,601.0651,601.0742,,,,0,13,13,13,1,175,55,,,,,,,,
,,611cf8583b09a943818421ca,65af5501ebaa6ae4e2c7563f,2024-01-23_09h01.57.974,bars,2023.2.3,Win32,59.88023952,657b66ea316d21385b68909f,,,,,,,,,,,601.0743,602.065,,,602.5678,602.8151,,149,149,,,,,,,,,,,,,,,,bars/005.png,bars/mask001.png,,,,,,,,,,,,7,2,,,,,,,2,10,1,10,,,,,,,,,,,602.065,602.5678,602.8152,604.3848,space,1.5508,,604.3849,41,9,605.3814,605.3815,605.3833,,,,0,14,14,14,1,10,140,,,,,,,,
,,611cf8583b09a943818421ca,65af5501ebaa6ae4e2c7563f,2024-01-23_09h01.57.974,bars,2023.2.3,Win32,59.88023952,657b66ea316d21385b68909f,,,,,,,,,,,605.3835,606.384,,,606.8814,607.1313,,41,221,,,,,,,,,,,,,,,,bars/025.png,bars/mask009.png,,,,,,,,,,,,8,2,,,,,,,0,8,0,8,,,,,,,,,,,606.384,606.8813,607.1313,610.1178,space,2.9672,,610.1179,64,1,611.1142,611.1143,611.1239,,,,0,15,15,15,1,105,40,,,,,,,,
,,611cf8583b09a943818421ca,65af5501ebaa6ae4e2c7563f,2024-01-23_09h01.57.974,bars,2023.2.3,Win32,59.88023952,657b66ea316d21385b68909f,,,,,,,,,,,611.124,612.1142,,,612.6168,612.8642,,163,-17,,,,,,,,,,,,,,,,bars/024.png,bars/mask005.png,,,,,,,,,,,,6,2,,,,,,,0,10,1,8,,,,,,,,,,,612.1143,612.6168,612.8643,614.6673,space,1.7836,,614.6673,43,7,615.6639,615.664,615.6655,,,,0,16,16,16,1,120,170,,,,,,,,
,,611cf8583b09a943818421ca,65af5501ebaa6ae4e2c7563f,2024-01-23_09h01.57.974,bars,2023.2.3,Win32,59.88023952,657b66ea316d21385b68909f,,,,,,,,,,,615.6658,616.6664,,,617.1641,617.4171,,170,170,,,,,,,,,,,,,,,,bars/040.png,bars/mask000.png,,,,,,,,,,,,5,2,,,,,,,0,10,0,9,,,,,,,,,,,616.6664,617.1641,617.4172,618.0004,space,0.5671,,618.0005,30,15,618.9998,618.9998,619.0005,,,,0,17,17,17,1,140,5,,,,,,,,
,,611cf8583b09a943818421ca,65af5501ebaa6ae4e2c7563f,2024-01-23_09h01.57.974,bars,2023.2.3,Win32,59.88023952,657b66ea316d21385b68909f,,,,,,,,,,,619.0008,619.9973,,,620.4987,620.7502,,84,-96,,,,,,,,,,,,,,,,bars/018.png,bars/mask003.png,,,,,,,,,,,,8,2,,,,,,,2,10,2,10,,,,,,,,,,,619.9974,620.4987,620.7502,624.6166,space,3.8504,,624.6166,66,6,625.6158,625.6158,625.6245,,,,0,18,18,18,1,150,90,,,,,,,,
,,611cf8583b09a943818421ca,65af5501ebaa6ae4e2c7563f,2024-01-23_09h01.57.974,bars,2023.2.3,Win32,59.88023952,657b66ea316d21385b68909f,,,,,,,,,,,625.6247,626.6134,,,627.1133,627.3631,,54,54,,,,,,,,,,,,,,,,bars/027.png,bars/mask001.png,,,,,,,,,,,,7,2,,,,,,,4,8,5,8,,,,,,,,,,,626.6134,627.1132,627.3632,629.2164,space,1.8339,,629.2165,56,4,630.2129,630.2131,630.2145,,,,0,19,19,19,1,110,50,,,,,,,,
,,611cf8583b09a943818421ca,65af5501ebaa6ae4e2c7563f,2024-01-23_09h01.57.974,bars,2023.2.3,Win32,59.88023952,657b66ea316d21385b68909f,,,,,,,,,,,630.2148,631.2154,,,631.713,631.9629,,81,81,,,,,,,,,,,,,,,,bars/042.png,bars/mask007.png,,,,,,,,,,,,8,2,,,,,,,6,10,7,10,,,,,,,,,,,631.2156,631.7129,631.963,633.0828,space,1.1007,,633.0828,64,6,634.0794,634.0795,634.0812,,,,0,20,20,20,1,145,75,,,,,,,,
,,611cf8583b09a943818421ca,65af5501ebaa6ae4e2c7563f,2024-01-23_09h01.57.974,bars,2023.2.3,Win32,59.88023952,657b66ea316d21385b68909f,,,,,,,,,,,634.0814,635.0819,,,635.5793,635.8319,,85,85,,,,,,,,,,,,,,,,bars/041.png,bars/mask000.png,,,,,,,,,,,,7,2,,,,,,,8,8,7,7,,,,,,,,,,,635.0819,635.5792,635.8319,637.533,space,1.6845,,637.533,65,0,638.5306,638.5307,638.5313,,,,0,21,21,21,1,20,85,,,,,,,,
,,611cf8583b09a943818421ca,65af5501ebaa6ae4e2c7563f,2024-01-23_09h01.57.974,bars,2023.2.3,Win32,59.88023952,657b66ea316d21385b68909f,,,,,,,,,,,638.5315,639.529,,,640.0314,640.279,,2,182,,,,,,,,,,,,,,,,bars/012.png,bars/mask003.png,,,,,,,,,,,,6,2,,,,,,,6,10,6,10,,,,,,,,,,,639.5291,640.0314,640.2791,643.4796,space,3.194,,643.4797,88,13,644.4786,644.4786,644.4879,,,,0,22,22,22,1,90,15,,,,,,,,
,,611cf8583b09a943818421ca,65af5501ebaa6ae4e2c7563f,2024-01-23_09h01.57.974,bars,2023.2.3,Win32,59.88023952,657b66ea316d21385b68909f,,,,,,,,,,,644.4881,645.4784,,,645.9786,646.2286,,94,94,,,,,,,,,,,,,,,,bars/019.png,bars/mask006.png,,,,,,,,,,,,4,2,,,,,,,4,8,3,7,,,,,,,,,,,645.4786,645.9784,646.2286,646.9818,space,0.7341,,646.9818,49,11,647.9783,647.9784,647.9799,,,,0,23,23,23,1,45,105,,,,,,,,
,,611cf8583b09a943818421ca,65af5501ebaa6ae4e2c7563f,2024-01-23_09h01.57.974,bars,2023.2.3,Win32,59.88023952,657b66ea316d21385b68909f,,,,,,,,,,,647.9801,648.9808,,,649.4784,649.7282,,41,41,,,,,,,,,,,,,,,,bars/035.png,bars/mask001.png,,,,,,,,,,,,4,2,,,,,,,6,10,6,10,,,,,,,,,,,648.9808,649.4783,649.7283,653.5646,space,3.8173,,653.5646,46,19,654.5613,654.5613,654.5705,,,,0,24,24,24,1,175,60,,,,,,,,
,,611cf8583b09a943818421ca,65af5501ebaa6ae4e2c7563f,2024-01-23_09h01.57.974,bars,2023.2.3,Win32,59.88023952,657b66ea316d21385b68909f,,,,,,,,,,,654.5706,655.561,,,656.0611,656.3139,,157,157,,,,,,,,,,,,,,,,bars/044.png,bars/mask009.png,,,,,,,,,,,,8,2,,,,,,,8,10,8,9,,,,,,,,,,,655.5611,656.061,656.314,659.5143,space,3.1838,,659.5143,82,2,660.5107,660.5108,660.5201,,,,0,25,25,25,1,75,155,,,,,,,,
,,611cf8583b09a943818421ca,65af5501ebaa6ae4e2c7563f,2024-01-23_09h01.57.974,bars,2023.2.3,Win32,59.88023952,657b66ea316d21385b68909f,,,,,,,,,,,660.5203,661.5135,,,662.0136,662.2639,,174,174,,,,,,,,,,,,,,,,bars/024.png,bars/mask003.png,,,,,,,,,,,,7,2,,,,,,,10,8,10,8,,,,,,,,,,,661.5135,662.0135,662.2639,665.4638,space,3.1838,,665.4638,54,4,666.4606,666.4607,666.47,,,,0,26,26,26,1,120,170,,,,,,,,
,,611cf8583b09a943818421ca,65af5501ebaa6ae4e2c7563f,2024-01-23_09h01.57.974,bars,2023.2.3,Win32,59.88023952,657b66ea316d21385b68909f,,,,,,,,,,,666.4702,667.463,,,667.9634,668.2135,,54,54,,,,,,,,,,,,,,,,bars/031.png,bars/mask004.png,,,,,,,,,,,,4,2,,,,,,,10,10,10,10,,,,,,,,,,,667.463,667.9633,668.2135,668.9798,space,0.7506,,668.9799,66,19,669.9767,669.9768,669.9783,,,,0,27,27,27,1,120,35,,,,,,,,
,,611cf8583b09a943818421ca,65af5501ebaa6ae4e2c7563f,2024-01-23_09h01.57.974,bars,2023.2.3,Win32,59.88023952,657b66ea316d21385b68909f,,,,,,,,,,,669.9784,670.9767,,,671.4782,671.7292,,102,102,,,,,,,,,,,,,,,,bars/042.png,bars/mask007.png,,,,,,,,,,,,1,2,,,,,,,8,10,8,10,,,,,,,,,,,670.9767,671.4782,671.7293,672.4799,space,0.7341,,672.48,43,27,673.479,673.479,673.4798,,,,0,28,28,28,1,145,75,,,,,,,,
,,611cf8583b09a943818421ca,65af5501ebaa6ae4e2c7563f,2024-01-23_09h01.57.974,bars,2023.2.3,Win32,59.88023952,657b66ea316d21385b68909f,,,,,,,,,,,673.48,674.4763,,,674.9797,675.228,,78,78,,,,,,,,,,,,,,,,bars/001.png,bars/mask005.png,,,,,,,,,,,,7,2,,,,,,,10,8,9,9,,,,,,,,,,,674.4763,674.9797,675.228,678.396,space,3.1505,,678.396,52,7,679.3926,679.3926,679.4019,,,,0,29,29,29,1,130,85,,,,,,,,
,,611cf8583b09a943818421ca,65af5501ebaa6ae4e2c7563f,2024-01-23_09h01.57.974,bars,2023.2.3,Win32,59.88023952,657b66ea316d21385b68909f,,,,,,,,,,,679.4021,680.3952,,,680.8929,681.1459,,118,118,,,,,,,,,,,,,,,,bars/023.png,bars/mask005.png,,,,,,,,,,,,9,2,,,,,,,8,10,7,10,,,,,,,,,,,680.3952,680.8928,681.1459,683.1297,space,1.968,,683.1297,82,3,684.1281,684.1282,684.1367,,,,0,30,30,30,1,20,115,,,,,,,,
,,611cf8583b09a943818421ca,65af5501ebaa6ae4e2c7563f,2024-01-23_09h01.57.974,bars,2023.2.3,Win32,59.88023952,657b66ea316d21385b68909f,,,,,,,,,,,684.1369,685.1257,,,685.6256,685.8782,,13,13,,,,,,,,,,,,,,,,bars/022.png,bars/mask000.png,,,,,,,,,,,,8,2,,,,,,,6,10,5,10,,,,,,,,,,,685.1257,685.6256,685.8782,686.4622,space,0.5673,,686.4622,82,7,687.4589,687.4589,687.4603,,,,0,31,31,31,1,95,20,,,,,,,,
,,611cf8583b09a943818421ca,65af5501ebaa6ae4e2c7563f,2024-01-23_09h01.57.974,bars,2023.2.3,Win32,59.88023952,657b66ea316d21385b68909f,,,,,,,,,,,687.4606,688.4588,,,688.9587,689.2088,,116,116,,,,,,,,,,,,,,,,bars/049.png,bars/mask003.png,,,,,,,,,,,,9,2,,,,,,,4,10,1,9,,,,,,,,,,,688.4588,688.9586,689.209,692.6117,space,3.3837,,692.6117,44,1,693.6083,693.6083,693.6173,,,,0,32,32,32,1,160,115,,,,,,,,
,,611cf8583b09a943818421ca,65af5501ebaa6ae4e2c7563f,2024-01-23_09h01.57.974,bars,2023.2.3,Win32,59.88023952,657b66ea316d21385b68909f,,,,,,,,,,,693.6175,694.6083,,,695.1086,695.3582,,16,196,,,,,,,,,,,,,,,,bars/012.png,bars/mask008.png,,,,,,,,,,,,8,2,,,,,,,2,8,2,8,,,,,,,,,,,694.6083,695.1085,695.3583,697.0946,space,1.7327,,697.0946,74,1,698.0913,698.0913,698.1004,,,,0,33,33,33,1,90,15,,,,,,,,
,,611cf8583b09a943818421ca,65af5501ebaa6ae4e2c7563f,2024-01-23_09h01.57.974,bars,2023.2.3,Win32,59.88023952,657b66ea316d21385b68909f,,,,,,,,,,,698.1006,699.0911,,,699.5913,699.8412,,84,84,,,,,,,,,,,,,,,,bars/026.png,bars/mask009.png,,,,,,,,,,,,8,2,,,,,,,4,6,5,8,,,,,,,,,,,699.0912,699.5912,699.8413,702.4443,space,2.5835,,702.4443,49,1,703.4412,703.4413,703.4504,,,,0,34,34,34,1,35,85,,,,,,,,
,,611cf8583b09a943818421ca,65af5501ebaa6ae4e2c7563f,2024-01-23_09h01.57.974,bars,2023.2.3,Win32,59.88023952,657b66ea316d21385b68909f,,,,,,,,,,,703.4506,704.4434,,,704.9435,705.1908,,157,157,,,,,,,,,,,,,,,,bars/043.png,bars/mask007.png,,,,,,,,,,,,1,2,,,,,,,6,8,5,9,,,,,,,,,,,704.4435,704.9435,705.1909,706.494,space,1.284,,706.494,53,27,707.4906,707.4907,707.5001,,,,0,35,35,35,1,30,130,,,,,,,,
,,611cf8583b09a943818421ca,65af5501ebaa6ae4e2c7563f,2024-01-23_09h01.57.974,bars,2023.2.3,Win32,59.88023952,657b66ea316d21385b68909f,,,,,,,,,,,707.5002,708.4905,,,708.9934,709.2432,,85,85,,,,,,,,,,,,,,,,bars/042.png,bars/mask006.png,,,,,,,,,,,,6,2,,,,,,,8,10,9,9,,,,,,,,,,,708.4906,708.9934,709.2433,712.9438,space,3.684,,712.9438,60,10,713.94,713.9401,713.9496,,,,0,36,36,36,1,145,75,,,,,,,,
,,611cf8583b09a943818421ca,65af5501ebaa6ae4e2c7563f,2024-01-23_09h01.57.974,bars,2023.2.3,Win32,59.88023952,657b66ea316d21385b68909f,,,,,,,,,,,713.9498,714.94,,,715.4405,715.6899,,129,129,,,,,,,,,,,,,,,,bars/003.png,bars/mask007.png,,,,,,,,,,,,6,2,,,,,,,10,8,9,9,,,,,,,,,,,714.9401,715.4403,715.69,716.593,space,0.8838,,716.593,76,11,717.5899,717.5899,717.5992,,,,0,37,37,37,1,25,140,,,,,,,,
,,611cf8583b09a943818421ca,65af5501ebaa6ae4e2c7563f,2024-01-23_09h01.57.974,bars,2023.2.3,Win32,59.88023952,657b66ea316d21385b68909f,,,,,,,,,,,717.5993,718.5899,,,719.0915,719.3426,,78,78,,,,,,,,,,,,,,,,bars/026.png,bars/mask005.png,,,,,,,,,,,,8,2,,,,,,,10,10,10,10,,,,,,,,,,,718.59,719.0914,719.3427,722.5099,space,3.151,,722.5099,43,7,723.506,723.5061,723.5152,,,,0,38,38,38,1,35,85,,,,,,,,
,,611cf8583b09a943818421ca,65af5501ebaa6ae4e2c7563f,2024-01-23_09h01.57.974,bars,2023.2.3,Win32,59.88023952,657b66ea316d21385b68909f,,,,,,,,,,,723.5154,724.5061,,,725.0062,725.2585,,76,76,,,,,,,,,,,,,,,,bars/047.png,bars/mask009.png,,,,,,,,,,,,8,2,,,,,,,10,10,10,10,,,,,,,,,,,724.5061,725.0061,725.2586,727.5589,space,2.2838,,727.5589,61,6,728.5584,728.5584,728.5671,,,,0,39,39,39,1,15,70,,,,,,,,
,,611cf8583b09a943818421ca,65af5501ebaa6ae4e2c7563f,2024-01-23_09h01.57.974,bars,2023.2.3,Win32,59.88023952,657b66ea316d21385b68909f,,,,,,,,,,,728.5673,729.5572,,,730.058,730.3082,,167,-13,,,,,,,,,,,,,,,,bars/048.png,bars/mask001.png,,,,,,,,,,,,5,2,,,,,,,8,8,7,7,,,,,,,,,,,729.5572,730.0579,730.3082,733.2921,space,2.9675,,733.2921,63,8,734.2887,734.2889,734.2981,,,,0,40,40,40,1,50,175,,,,,,,,
,,611cf8583b09a943818421ca,65af5501ebaa6ae4e2c7563f,2024-01-23_09h01.57.974,bars,2023.2.3,Win32,59.88023952,657b66ea316d21385b68909f,,,,,,,,,,,734.2984,735.2891,,,735.7885,736.0385,,140,140,,,,,,,,,,,,,,,,bars/000.png,bars/mask007.png,,,,,,,,,,,,6,2,,,,,,,10,6,10,7,,,,,,,,,,,735.2893,735.7884,736.0387,739.2248,space,3.1671,,739.2248,80,5,740.2214,740.2214,740.2304,,,,0,41,41,41,1,40,145,,,,,,,,
,,611cf8583b09a943818421ca,65af5501ebaa6ae4e2c7563f,2024-01-23_09h01.57.974,bars,2023.2.3,Win32,59.88023952,657b66ea316d21385b68909f,,,,,,,,,,,740.2305,741.2213,,,741.7215,741.973,,151,151,,,,,,,,,,,,,,,,bars/049.png,bars/mask006.png,,,,,,,,,,,,7,1,,,,,,,10,4,10,4,,,,,,,,,,,741.2214,741.7214,741.973,747.2575,space,5.267,,747.2576,9,36,748.2545,748.2546,748.2653,,,,0,42,42,42,1,160,115,,,,,,,,
,,611cf8583b09a943818421ca,65af5501ebaa6ae4e2c7563f,2024-01-23_09h01.57.974,bars,2023.2.3,Win32,59.88023952,657b66ea316d21385b68909f,,,,,,,,,,,748.2654,749.2568,,,749.7541,750.0045,,59,59,,,,,,,,,,,,,,,,bars/010.png,bars/mask008.png,,,,,,,,,,,,6,2,,,,,,,8,6,7,7,,,,,,,,,,,749.2568,749.754,750.0046,753.1544,space,3.1365,,753.1545,74,4,754.1537,754.1538,754.1635,,,,0,43,43,43,1,165,55,,,,,,,,
,,611cf8583b09a943818421ca,65af5501ebaa6ae4e2c7563f,2024-01-23_09h01.57.974,bars,2023.2.3,Win32,59.88023952,657b66ea316d21385b68909f,,,,,,,,,,,754.1637,755.1539,,,755.6563,755.9037,,130,130,,,,,,,,,,,,,,,,bars/005.png,bars/mask004.png,,,,,,,,,,,,6,2,,,,,,,10,8,10,9,,,,,,,,,,,755.1539,755.6563,755.9038,757.8209,space,1.8914,,757.8211,60,10,758.8218,758.8219,758.8302,,,,0,44,44,44,1,10,140,,,,,,,,
,,611cf8583b09a943818421ca,65af5501ebaa6ae4e2c7563f,2024-01-23_09h01.57.974,bars,2023.2.3,Win32,59.88023952,657b66ea316d21385b68909f,,,,,,,,,,,758.8304,759.8201,,,760.32,760.57,,134,134,,,,,,,,,,,,,,,,bars/013.png,bars/mask001.png,,,,,,,,,,,,0,2,,,,,,,10,10,10,10,,,,,,,,,,,759.8202,760.3199,760.5701,761.637,space,1.0441,,761.6372,59,56,762.6381,762.6381,762.6468,,,,0,45,45,45,1,75,10,,,,,,,,
,,611cf8583b09a943818421ca,65af5501ebaa6ae4e2c7563f,2024-01-23_09h01.57.974,bars,2023.2.3,Win32,59.88023952,657b66ea316d21385b68909f,,,,,,,,,,,762.6469,763.6363,,,764.1393,764.3864,,132,132,,,,,,,,,,,,,,,,bars/004.png,bars/mask009.png,,,,,,,,,,,,6,2,,,,,,,8,8,7,8,,,,,,,,,,,763.6364,764.1392,764.3865,768.4895,space,4.0838,,768.4895,73,7,769.4861,769.4861,769.4954,,,,0,46,46,46,1,25,125,,,,,,,,
,,611cf8583b09a943818421ca,65af5501ebaa6ae4e2c7563f,2024-01-23_09h01.57.974,bars,2023.2.3,Win32,59.88023952,657b66ea316d21385b68909f,,,,,,,,,,,769.4956,770.4885,,,770.9861,771.2385,,29,29,,,,,,,,,,,,,,,,bars/022.png,bars/mask007.png,,,,,,,,,,,,7,2,,,,,,,10,10,10,10,,,,,,,,,,,770.4885,770.9859,771.2386,775.1394,space,3.8843,,775.1394,66,9,776.1356,776.1356,776.1448,,,,0,47,47,47,1,95,20,,,,,,,,
,,611cf8583b09a943818421ca,65af5501ebaa6ae4e2c7563f,2024-01-23_09h01.57.974,bars,2023.2.3,Win32,59.88023952,657b66ea316d21385b68909f,,,,,,,,,,,776.145,777.1356,,,777.6381,777.8854,,23,23,,,,,,,,,,,,,,,,bars/008.png,bars/mask009.png,,,,,,,,,,,,2,2,,,,,,,8,8,8,8,,,,,,,,,,,777.1357,777.638,777.8854,781.8717,space,3.967,,781.8717,87,23,782.8683,782.8685,782.8775,,,,0,48,48,48,1,110,0,,,,,,,,
,,611cf8583b09a943818421ca,65af5501ebaa6ae4e2c7563f,2024-01-23_09h01.57.974,bars,2023.2.3,Win32,59.88023952,657b66ea316d21385b68909f,,,,,,,,,,,782.8777,783.8682,,,784.3684,784.6182,,173,173,,,,,,,,,,,,,,,,bars/008.png,bars/mask004.png,,,,,,,,,,,,5,2,,,,,,,10,6,10,6,,,,,,,,,,,783.8683,784.3684,784.6184,786.705,space,2.0677,,786.705,63,7,787.7014,787.7014,787.7104,,,,0,49,49,49,1,110,0,,,,,,,,
,,611cf8583b09a943818421ca,65af5501ebaa6ae4e2c7563f,2024-01-23_09h01.57.974,bars,2023.2.3,Win32,59.88023952,657b66ea316d21385b68909f,,,,,,,,,,,,,,,,,,,,,,,,,,,,,,,,,,,,,,,,,,,,,,,,,,,,,,,,,,,,,,,,,,,,,,,,,,,,,,,,,,,,,,,,,,,,,787.7105,847.6996,0,1,1,4,1,sequence_tables/blk029.csv
,,611cf8583b09a943818421ca,65af5501ebaa6ae4e2c7563f,2024-01-23_09h01.57.974,bars,2023.2.3,Win32,59.88023952,657b66ea316d21385b68909f,,,,,,,,,,,848.4536,849.4491,,,849.9496,850.1968,,133,133,,,,,,,,,,,,,,,,bars/007.png,bars/mask002.png,,,,,,,,,,,,0,1,,,,,,,2,9,1,9,,,,,,847.7088,848.4502,space,0.7338,,849.4491,849.9495,850.197,852.5664,space,2.3503,,852.5665,42,78,853.5631,853.5631,853.5654,,,,0,0,0,0,1,175,55,,,,,,,,
,,611cf8583b09a943818421ca,65af5501ebaa6ae4e2c7563f,2024-01-23_09h01.57.974,bars,2023.2.3,Win32,59.88023952,657b66ea316d21385b68909f,,,,,,,,,,,853.5656,854.5646,,,855.0632,855.3155,,30,30,,,,,,,,,,,,,,,,bars/043.png,bars/mask004.png,,,,,,,,,,,,7,1,,,,,,,4,7,7,6,,,,,,,,,,,854.5646,855.0632,855.3155,857.0495,space,1.7173,,857.0496,0,80,858.0461,858.0462,858.0554,,,,0,1,1,1,1,30,130,,,,,,,,
,,611cf8583b09a943818421ca,65af5501ebaa6ae4e2c7563f,2024-01-23_09h01.57.974,bars,2023.2.3,Win32,59.88023952,657b66ea316d21385b68909f,,,,,,,,,,,858.0556,859.0462,,,859.5487,859.7969,,136,136,,,,,,,,,,,,,,,,bars/032.png,bars/mask002.png,,,,,,,,,,,,4,1,,,,,,,6,9,6,8,,,,,,,,,,,859.0464,859.5487,859.7969,860.5659,space,0.7506,,860.5659,11,64,861.5627,861.563,861.5642,,,,0,2,2,2,1,125,20,,,,,,,,
,,611cf8583b09a943818421ca,65af5501ebaa6ae4e2c7563f,2024-01-23_09h01.57.974,bars,2023.2.3,Win32,59.88023952,657b66ea316d21385b68909f,,,,,,,,,,,861.5644,862.563,,,863.0624,863.3124,,163,163,,,,,,,,,,,,,,,,bars/039.png,bars/mask004.png,,,,,,,,,,,,4,1,,,,,,,8,7,6,8,,,,,,,,,,,862.5631,863.0623,863.3125,866.7655,space,3.4495,,866.7655,12,58,867.7622,867.7624,867.7714,,,,0,3,3,3,1,175,105,,,,,,,,
,,611cf8583b09a943818421ca,65af5501ebaa6ae4e2c7563f,2024-01-23_09h01.57.974,bars,2023.2.3,Win32,59.88023952,657b66ea316d21385b68909f,,,,,,,,,,,867.7717,868.7619,,,869.2646,869.5122,,149,149,,,,,,,,,,,,,,,,bars/004.png,bars/mask000.png,,,,,,,,,,,,2,2,,,,,,,6,9,5,9,,,,,,,,,,,868.762,869.2646,869.5123,871.1956,space,1.6518,,871.1957,56,24,872.1966,872.1967,872.2061,,,,0,4,4,4,1,25,125,,,,,,,,
,,611cf8583b09a943818421ca,65af5501ebaa6ae4e2c7563f,2024-01-23_09h01.57.974,bars,2023.2.3,Win32,59.88023952,657b66ea316d21385b68909f,,,,,,,,,,,872.2063,873.1949,,,873.6954,873.9477,,115,115,,,,,,,,,,,,,,,,bars/025.png,bars/mask004.png,,,,,,,,,,,,5,1,,,,,,,8,7,8,8,,,,,,,,,,,873.195,873.6953,873.9478,875.7814,space,1.8171,,875.7814,10,75,876.7782,876.7783,876.7881,,,,0,5,5,5,1,105,40,,,,,,,,
,,611cf8583b09a943818421ca,65af5501ebaa6ae4e2c7563f,2024-01-23_09h01.57.974,bars,2023.2.3,Win32,59.88023952,657b66ea316d21385b68909f,,,,,,,,,,,876.7883,877.7782,,,878.2807,878.5278,,52,52,,,,,,,,,,,,,,,,bars/019.png,bars/mask000.png,,,,,,,,,,,,5,1,,,,,,,6,5,6,7,,,,,,,,,,,877.7783,878.2807,878.5279,879.7477,space,1.2005,,879.7478,7,53,880.7443,880.7444,880.746,,,,0,6,6,6,1,45,105,,,,,,,,
,,611cf8583b09a943818421ca,65af5501ebaa6ae4e2c7563f,2024-01-23_09h01.57.974,bars,2023.2.3,Win32,59.88023952,657b66ea316d21385b68909f,,,,,,,,,,,880.7461,881.7444,,,882.2444,882.4969,,55,55,,,,,,,,,,,,,,,,bars/043.png,bars/mask007.png,,,,,,,,,,,,0,1,,,,,,,4,7,2,6,,,,,,,,,,,881.7445,882.2444,882.497,886.6143,space,4.1006,,886.6143,25,75,887.6105,887.6105,887.6197,,,,0,7,7,7,1,30,130,,,,,,,,
,,611cf8583b09a943818421ca,65af5501ebaa6ae4e2c7563f,2024-01-23_09h01.57.974,bars,2023.2.3,Win32,59.88023952,657b66ea316d21385b68909f,,,,,,,,,,,887.6199,888.6122,,,889.1109,889.3607,,72,72,,,,,,,,,,,,,,,,bars/038.png,bars/mask008.png,,,,,,,,,,,,7,2,,,,,,,2,9,2,8,,,,,,,,,,,888.6124,889.1108,889.3607,891.7969,space,2.4172,,891.7969,87,2,892.7936,892.7937,892.8035,,,,0,8,8,8,1,165,70,,,,,,,,
,,611cf8583b09a943818421ca,65af5501ebaa6ae4e2c7563f,2024-01-23_09h01.57.974,bars,2023.2.3,Win32,59.88023952,657b66ea316d21385b68909f,,,,,,,,,,,892.8037,893.7967,,,894.2965,894.546,,110,-70,,,,,,,,,,,,,,,,bars/028.png,bars/mask009.png,,,,,,,,,,,,7,2,,,,,,,0,10,1,10,,,,,,,,,,,893.7967,894.2964,894.5461,898.7963,space,4.2338,,898.7963,65,10,899.7955,899.7956,899.8042,,,,0,9,9,9,1,45,120,,,,,,,,
,,611cf8583b09a943818421ca,65af5501ebaa6ae4e2c7563f,2024-01-23_09h01.57.974,bars,2023.2.3,Win32,59.88023952,657b66ea316d21385b68909f,,,,,,,,,,,899.8043,900.7954,,,901.2954,901.5454,,99,99,,,,,,,,,,,,,,,,bars/009.png,bars/mask001.png,,,,,,,,,,,,6,2,,,,,,,2,8,3,7,,,,,,,,,,,900.7955,901.2954,901.5455,903.1793,space,1.6169,,903.1793,84,6,904.1759,904.176,904.1853,,,,0,10,10,10,1,15,105,,,,,,,,
,,611cf8583b09a943818421ca,65af5501ebaa6ae4e2c7563f,2024-01-23_09h01.57.974,bars,2023.2.3,Win32,59.88023952,657b66ea316d21385b68909f,,,,,,,,,,,904.1855,905.1775,,,905.6762,905.9262,,104,104,,,,,,,,,,,,,,,,bars/004.png,bars/mask006.png,,,,,,,,,,,,3,2,,,,,,,0,10,0,10,,,,,,,,,,,905.1775,905.6761,905.9264,908.5457,space,2.6006,,908.5457,79,21,909.5424,909.5425,909.5516,,,,0,11,11,11,1,25,125,,,,,,,,
,,611cf8583b09a943818421ca,65af5501ebaa6ae4e2c7563f,2024-01-23_09h01.57.974,bars,2023.2.3,Win32,59.88023952,657b66ea316d21385b68909f,,,,,,,,,,,909.5518,910.5422,,,911.0424,911.2925,,124,124,,,,,,,,,,,,,,,,bars/003.png,bars/mask004.png,,,,,,,,,,,,3,2,,,,,,,2,8,2,6,,,,,,,,,,,910.5424,911.0422,911.2926,913.3453,space,2.0338,,913.3454,81,16,914.342,914.3424,914.3512,,,,0,12,12,12,1,25,140,,,,,,,,
,,611cf8583b09a943818421ca,65af5501ebaa6ae4e2c7563f,2024-01-23_09h01.57.974,bars,2023.2.3,Win32,59.88023952,657b66ea316d21385b68909f,,,,,,,,,,,914.3514,915.342,,,915.8419,916.0917,,168,-12,,,,,,,,,,,,,,,,bars/016.png,bars/mask000.png,,,,,,,,,,,,8,2,,,,,,,4,10,5,9,,,,,,,,,,,915.3421,915.8418,916.0918,918.7284,space,2.6174,,918.7284,52,3,919.7274,919.7275,919.7362,,,,0,13,13,13,1,40,165,,,,,,,,
,,611cf8583b09a943818421ca,65af5501ebaa6ae4e2c7563f,2024-01-23_09h01.57.974,bars,2023.2.3,Win32,59.88023952,657b66ea316d21385b68909f,,,,,,,,,,,919.7363,920.7265,,,921.2252,921.475,,85,85,,,,,,,,,,,,,,,,bars/041.png,bars/mask001.png,,,,,,,,,,,,10,2,,,,,,,2,10,2,10,,,,,,,,,,,920.7265,921.225,921.4751,924.5614,space,3.0675,,924.5614,65,0,925.5593,925.5594,925.5682,,,,0,14,14,14,1,20,85,,,,,,,,
,,611cf8583b09a943818421ca,65af5501ebaa6ae4e2c7563f,2024-01-23_09h01.57.974,bars,2023.2.3,Win32,59.88023952,657b66ea316d21385b68909f,,,,,,,,,,,925.5683,926.5583,,,927.058,927.3077,,74,74,,,,,,,,,,,,,,,,bars/030.png,bars/mask007.png,,,,,,,,,,,,7,2,,,,,,,0,10,0,10,,,,,,,,,,,926.5585,927.0579,927.3079,928.661,space,1.3343,,928.6611,66,9,929.6578,929.6578,929.6591,,,,0,15,15,15,1,140,65,,,,,,,,
,,611cf8583b09a943818421ca,65af5501ebaa6ae4e2c7563f,2024-01-23_09h01.57.974,bars,2023.2.3,Win32,59.88023952,657b66ea316d21385b68909f,,,,,,,,,,,929.6594,930.6575,,,931.1575,931.4104,,123,123,,,,,,,,,,,,,,,,bars/004.png,bars/mask006.png,,,,,,,,,,,,9,2,,,,,,,2,10,2,10,,,,,,,,,,,930.6575,931.1574,931.4104,932.0579,space,0.6273,,932.0581,82,2,933.0587,933.0587,933.0594,,,,0,16,16,16,1,25,125,,,,,,,,
,,611cf8583b09a943818421ca,65af5501ebaa6ae4e2c7563f,2024-01-23_09h01.57.974,bars,2023.2.3,Win32,59.88023952,657b66ea316d21385b68909f,,,,,,,,,,,933.0597,934.0598,,,934.5574,934.8098,,61,61,,,,,,,,,,,,,,,,bars/030.png,bars/mask004.png,,,,,,,,,,,,7,2,,,,,,,0,10,0,8,,,,,,,,,,,934.0598,934.5572,934.8098,935.4936,space,0.6673,,935.4936,79,4,936.4904,936.4905,936.4919,,,,0,17,17,17,1,140,65,,,,,,,,
,,611cf8583b09a943818421ca,65af5501ebaa6ae4e2c7563f,2024-01-23_09h01.57.974,bars,2023.2.3,Win32,59.88023952,657b66ea316d21385b68909f,,,,,,,,,,,936.4923,937.4929,,,937.9905,938.2402,,13,193,,,,,,,,,,,,,,,,bars/013.png,bars/mask008.png,,,,,,,,,,,,9,2,,,,,,,2,10,2,10,,,,,,,,,,,937.4929,937.9903,938.2403,940.56,space,2.3007,,940.56,62,3,941.5591,941.5592,941.5681,,,,0,18,18,18,1,75,10,,,,,,,,
,,611cf8583b09a943818421ca,65af5501ebaa6ae4e2c7563f,2024-01-23_09h01.57.974,bars,2023.2.3,Win32,59.88023952,657b66ea316d21385b68909f,,,,,,,,,,,941.5682,942.5569,,,943.0574,943.309,,82,82,,,,,,,,,,,,,,,,bars/018.png,bars/mask001.png,,,,,,,,,,,,7,2,,,,,,,0,10,1,10,,,,,,,,,,,942.557,943.0572,943.309,946.6765,space,3.3507,,946.6765,68,8,947.6727,947.6728,947.6825,,,,0,19,19,19,1,150,90,,,,,,,,
,,611cf8583b09a943818421ca,65af5501ebaa6ae4e2c7563f,2024-01-23_09h01.57.974,bars,2023.2.3,Win32,59.88023952,657b66ea316d21385b68909f,,,,,,,,,,,947.6827,948.6728,,,949.1729,949.4226,,3,3,,,,,,,,,,,,,,,,bars/045.png,bars/mask009.png,,,,,,,,,,,,6,2,,,,,,,2,10,1,8,,,,,,,,,,,948.6729,949.1729,949.4227,952.3093,space,2.8676,,952.3093,83,7,953.3084,953.3084,953.3171,,,,0,20,20,20,1,100,10,,,,,,,,
,,611cf8583b09a943818421ca,65af5501ebaa6ae4e2c7563f,2024-01-23_09h01.57.974,bars,2023.2.3,Win32,59.88023952,657b66ea316d21385b68909f,,,,,,,,,,,953.3172,954.3082,,,954.8057,955.0557,,134,134,,,,,,,,,,,,,,,,bars/043.png,bars/mask005.png,,,,,,,,,,,,7,2,,,,,,,4,8,3,8,,,,,,,,,,,954.3082,954.8057,955.0557,955.7922,space,0.7174,,955.7922,76,4,956.7889,956.789,956.7905,,,,0,21,21,21,1,30,130,,,,,,,,
,,611cf8583b09a943818421ca,65af5501ebaa6ae4e2c7563f,2024-01-23_09h01.57.974,bars,2023.2.3,Win32,59.88023952,657b66ea316d21385b68909f,,,,,,,,,,,956.7908,957.7887,,,958.2888,958.5388,,175,175,,,,,,,,,,,,,,,,bars/024.png,bars/mask003.png,,,,,,,,,,,,8,2,,,,,,,6,10,7,10,,,,,,,,,,,957.7888,958.2887,958.5389,961.0417,space,2.4838,,961.0417,55,5,962.0385,962.0385,962.0478,,,,0,22,22,22,1,120,170,,,,,,,,
,,611cf8583b09a943818421ca,65af5501ebaa6ae4e2c7563f,2024-01-23_09h01.57.974,bars,2023.2.3,Win32,59.88023952,657b66ea316d21385b68909f,,,,,,,,,,,962.048,963.0385,,,963.539,963.7916,,108,108,,,,,,,,,,,,,,,,bars/049.png,bars/mask003.png,,,,,,,,,,,,8,2,,,,,,,4,10,4,10,,,,,,,,,,,963.0386,963.5389,963.7916,966.1918,space,2.3843,,966.1918,52,7,967.1881,967.1882,967.1977,,,,0,23,23,23,1,160,115,,,,,,,,
,,611cf8583b09a943818421ca,65af5501ebaa6ae4e2c7563f,2024-01-23_09h01.57.974,bars,2023.2.3,Win32,59.88023952,657b66ea316d21385b68909f,,,,,,,,,,,967.1979,968.1881,,,968.6881,968.9405,,59,59,,,,,,,,,,,,,,,,bars/046.png,bars/mask008.png,,,,,,,,,,,,1,2,,,,,,,6,8,5,9,,,,,,,,,,,968.1882,968.688,968.9405,969.6246,space,0.6675,,969.6246,84,26,970.6213,970.6214,970.6226,,,,0,24,24,24,1,155,85,,,,,,,,
,,611cf8583b09a943818421ca,65af5501ebaa6ae4e2c7563f,2024-01-23_09h01.57.974,bars,2023.2.3,Win32,59.88023952,657b66ea316d21385b68909f,,,,,,,,,,,970.6228,971.621,,,972.124,972.3712,,91,91,,,,,,,,,,,,,,,,bars/021.png,bars/mask009.png,,,,,,,,,,,,2,2,,,,,,,4,6,4,7,,,,,,,,,,,971.6211,972.124,972.3712,975.6073,space,3.2325,,975.6073,64,21,976.6059,976.6059,976.6142,,,,0,25,25,25,1,155,70,,,,,,,,
,,611cf8583b09a943818421ca,65af5501ebaa6ae4e2c7563f,2024-01-23_09h01.57.974,bars,2023.2.3,Win32,59.88023952,657b66ea316d21385b68909f,,,,,,,,,,,976.6144,977.6064,,,978.1039,978.354,,84,84,,,,,,,,,,,,,,,,bars/034.png,bars/mask005.png,,,,,,,,,,,,3,2,,,,,,,2,8,1,8,,,,,,,,,,,977.6064,978.1038,978.354,980.3068,space,1.9347,,980.3069,41,19,981.3065,981.3065,981.3152,,,,0,26,26,26,1,125,65,,,,,,,,
,,611cf8583b09a943818421ca,65af5501ebaa6ae4e2c7563f,2024-01-23_09h01.57.974,bars,2023.2.3,Win32,59.88023952,657b66ea316d21385b68909f,,,,,,,,,,,981.3153,982.3064,,,982.8065,983.0535,,15,15,,,,,,,,,,,,,,,,bars/012.png,bars/mask008.png,,,,,,,,,,,,9,2,,,,,,,4,10,5,9,,,,,,,,,,,982.3064,982.8064,983.0537,984.5904,space,1.5176,,984.5904,75,0,985.5868,985.5868,985.5959,,,,0,27,27,27,1,90,15,,,,,,,,
,,611cf8583b09a943818421ca,65af5501ebaa6ae4e2c7563f,2024-01-23_09h01.57.974,bars,2023.2.3,Win32,59.88023952,657b66ea316d21385b68909f,,,,,,,,,,,985.596,986.5868,,,987.0868,987.3365,,178,-2,,,,,,,,,,,,,,,,bars/015.png,bars/mask009.png,,,,,,,,,,,,4,2,,,,,,,2,10,2,9,,,,,,,,,,,986.5869,987.0867,987.3366,991.2398,space,3.8999,,991.2399,68,18,992.2364,992.2365,992.2456,,,,0,28,28,28,1,110,160,,,,,,,,
,,611cf8583b09a943818421ca,65af5501ebaa6ae4e2c7563f,2024-01-23_09h01.57.974,bars,2023.2.3,Win32,59.88023952,657b66ea316d21385b68909f,,,,,,,,,,,992.2458,993.2385,,,993.7387,993.9861,,62,62,,,,,,,,,,,,,,,,bars/015.png,bars/mask000.png,,,,,,,,,,,,0,1,,,,,,,0,8,0,8,,,,,,,,,,,993.2386,993.7387,993.9861,994.3229,space,0.3332,,994.3229,48,82,995.3194,995.3195,995.3216,,,,0,29,29,29,1,110,160,,,,,,,,
,,611cf8583b09a943818421ca,65af5501ebaa6ae4e2c7563f,2024-01-23_09h01.57.974,bars,2023.2.3,Win32,59.88023952,657b66ea316d21385b68909f,,,,,,,,,,,995.3218,996.3226,,,996.8223,997.0696,,51,51,,,,,,,,,,,,,,,,bars/035.png,bars/mask000.png,,,,,,,,,,,,6,2,,,,,,,2,10,2,9,,,,,,,,,,,996.3226,996.8222,997.0696,998.4725,space,1.3842,,998.4726,56,9,999.4689,999.469,999.4801,,,,0,30,30,30,1,175,60,,,,,,,,
,,611cf8583b09a943818421ca,65af5501ebaa6ae4e2c7563f,2024-01-23_09h01.57.974,bars,2023.2.3,Win32,59.88023952,657b66ea316d21385b68909f,,,,,,,,,,,999.4805,1000.469,,,1000.9692,1001.2188,,82,82,,,,,,,,,,,,,,,,bars/019.png,bars/mask008.png,,,,,,,,,,,,2,2,,,,,,,0,8,0,8,,,,,,,,,,,1000.469,1000.9691,1001.2189,1002.9055,space,1.6675,,1002.9055,37,23,1003.9036,1003.9036,1003.912,,,,0,31,31,31,1,45,105,,,,,,,,
,,611cf8583b09a943818421ca,65af5501ebaa6ae4e2c7563f,2024-01-23_09h01.57.974,bars,2023.2.3,Win32,59.88023952,657b66ea316d21385b68909f,,,,,,,,,,,1003.9122,1004.9019,,,1005.402,1005.6547,,175,-5,,,,,,,,,,,,,,,,bars/048.png,bars/mask007.png,,,,,,,,,,,,5,2,,,,,,,0,6,0,5,,,,,,,,,,,1004.9019,1005.402,1005.6547,1007.0056,space,1.3345,,1007.0056,55,0,1008.0016,1008.0017,1008.0032,,,,0,32,32,32,1,50,175,,,,,,,,
,,611cf8583b09a943818421ca,65af5501ebaa6ae4e2c7563f,2024-01-23_09h01.57.974,bars,2023.2.3,Win32,59.88023952,657b66ea316d21385b68909f,,,,,,,,,,,1008.0035,1009.0015,,,1009.502,1009.7517,,155,-25,,,,,,,,,,,,,,,,bars/016.png,bars/mask003.png,,,,,,,,,,,,3,2,,,,,,,0,4,1,4,,,,,,,,,,,1009.0016,1009.5019,1009.7523,1010.9219,space,1.151,,1010.9219,65,10,1011.9208,1011.9209,1011.9217,,,,0,33,33,33,1,40,165,,,,,,,,
,,611cf8583b09a943818421ca,65af5501ebaa6ae4e2c7563f,2024-01-23_09h01.57.974,bars,2023.2.3,Win32,59.88023952,657b66ea316d21385b68909f,,,,,,,,,,,1011.9218,1012.9181,,,1013.4179,1013.6679,,72,72,,,,,,,,,,,,,,,,bars/027.png,bars/mask000.png,,,,,,,,,,,,2,2,,,,,,,0,6,1,6,,,,,,,,,,,1012.9181,1013.4177,1013.668,1014.4212,space,0.734,,1014.4213,38,22,1015.4178,1015.4179,1015.4193,,,,0,34,34,34,1,110,50,,,,,,,,
,,611cf8583b09a943818421ca,65af5501ebaa6ae4e2c7563f,2024-01-23_09h01.57.974,bars,2023.2.3,Win32,59.88023952,657b66ea316d21385b68909f,,,,,,,,,,,1015.4196,1016.4176,,,1016.9183,1017.1693,,27,27,,,,,,,,,,,,,,,,bars/022.png,bars/mask003.png,,,,,,,,,,,,5,2,,,,,,,2,8,2,7,,,,,,,,,,,1016.4177,1016.9181,1017.1693,1018.6212,space,1.4343,,1018.6212,68,7,1019.6176,1019.6178,1019.6272,,,,0,35,35,35,1,95,20,,,,,,,,
,,611cf8583b09a943818421ca,65af5501ebaa6ae4e2c7563f,2024-01-23_09h01.57.974,bars,2023.2.3,Win32,59.88023952,657b66ea316d21385b68909f,,,,,,,,,,,1019.6274,1020.6175,,,1021.1175,1021.3675,,0,0,,,,,,,,,,,,,,,,bars/012.png,bars/mask000.png,,,,,,,,,,,,3,2,,,,,,,4,6,4,6,,,,,,,,,,,1020.6175,1021.1174,1021.3675,1023.2206,space,1.834,,1023.2206,90,15,1024.2172,1024.2173,1024.2187,,,,0,36,36,36,1,90,15,,,,,,,,
,,611cf8583b09a943818421ca,65af5501ebaa6ae4e2c7563f,2024-01-23_09h01.57.974,bars,2023.2.3,Win32,59.88023952,657b66ea316d21385b68909f,,,,,,,,,,,1024.2191,1025.2172,,,1025.7172,1025.967,,14,194,,,,,,,,,,,,,,,,bars/035.png,bars/mask000.png,,,,,,,,,,,,2,1,,,,,,,6,8,6,8,,,,,,,,,,,1025.2172,1025.7171,1025.9671,1029.1533,space,3.167,,1029.1534,19,46,1030.15,1030.1502,1030.1602,,,,0,37,37,37,1,175,60,,,,,,,,
,,611cf8583b09a943818421ca,65af5501ebaa6ae4e2c7563f,2024-01-23_09h01.57.974,bars,2023.2.3,Win32,59.88023952,657b66ea316d21385b68909f,,,,,,,,,,,1030.1604,1031.15,,,1031.65,1031.9002,,70,70,,,,,,,,,,,,,,,,bars/026.png,bars/mask007.png,,,,,,,,,,,,3,2,,,,,,,8,6,8,6,,,,,,,,,,,1031.1501,1031.6499,1031.9004,1034.8532,space,2.9342,,1034.8533,35,15,1035.8497,1035.8498,1035.8597,,,,0,38,38,38,1,35,85,,,,,,,,
,,611cf8583b09a943818421ca,65af5501ebaa6ae4e2c7563f,2024-01-23_09h01.57.974,bars,2023.2.3,Win32,59.88023952,657b66ea316d21385b68909f,,,,,,,,,,,1035.8599,1036.8521,,,1037.3505,1037.5998,,83,83,,,,,,,,,,,,,,,,bars/018.png,bars/mask004.png,,,,,,,,,,,,3,2,,,,,,,6,4,4,4,,,,,,,,,,,1036.8522,1037.3504,1037.5999,1038.9862,space,1.3674,,1038.9862,67,7,1039.9825,1039.9826,1039.9841,,,,0,39,39,39,1,150,90,,,,,,,,
,,611cf8583b09a943818421ca,65af5501ebaa6ae4e2c7563f,2024-01-23_09h01.57.974,bars,2023.2.3,Win32,59.88023952,657b66ea316d21385b68909f,,,,,,,,,,,1039.9844,1040.9843,,,1041.4859,1041.736,,179,179,,,,,,,,,,,,,,,,bars/008.png,bars/mask007.png,,,,,,,,,,,,5,2,,,,,,,4,6,5,5,,,,,,,,,,,1040.9843,1041.4859,1041.7361,1044.2345,space,2.4828,,1044.2346,69,1,1045.2323,1045.2324,1045.2337,,,,0,40,40,40,1,110,0,,,,,,,,
,,611cf8583b09a943818421ca,65af5501ebaa6ae4e2c7563f,2024-01-23_09h01.57.974,bars,2023.2.3,Win32,59.88023952,657b66ea316d21385b68909f,,,,,,,,,,,1045.234,1046.2322,,,1046.7331,1046.9838,,81,81,,,,,,,,,,,,,,,,bars/019.png,bars/mask008.png,,,,,,,,,,,,2,2,,,,,,,6,8,8,8,,,,,,,,,,,1046.2322,1046.7331,1046.9838,1049.8323,space,2.82,,1049.8326,36,24,1050.8317,1050.8318,1050.8409,,,,0,41,41,41,1,45,105,,,,,,,,
,,611cf8583b09a943818421ca,65af5501ebaa6ae4e2c7563f,2024-01-23_09h01.57.974,bars,2023.2.3,Win32,59.88023952,657b66ea316d21385b68909f,,,,,,,,,,,1050.8412,1051.8344,,,1052.3323,1052.5819,,169,169,,,,,,,,,,,,,,,,bars/002.png,bars/mask003.png,,,,,,,,,,,,0,1,,,,,,,8,6,7,7,,,,,,,,,,,1051.8344,1052.3323,1052.582,1057.9488,space,5.3457,,1057.949,39,84,1058.9479,1058.9479,1058.9576,,,,0,42,42,42,1,130,85,,,,,,,,
,,611cf8583b09a943818421ca,65af5501ebaa6ae4e2c7563f,2024-01-23_09h01.57.974,bars,2023.2.3,Win32,59.88023952,657b66ea316d21385b68909f,,,,,,,,,,,1058.9578,1059.9507,,,1060.4485,1060.698,,87,87,,,,,,,,,,,,,,,,bars/023.png,bars/mask008.png,,,,,,,,,,,,0,2,,,,,,,6,4,6,5,,,,,,,,,,,1059.9508,1060.4482,1060.698,1063.4179,space,2.7009,,1063.4179,67,28,1064.4143,1064.4143,1064.424,,,,0,43,43,43,1,20,115,,,,,,,,
,,611cf8583b09a943818421ca,65af5501ebaa6ae4e2c7563f,2024-01-23_09h01.57.974,bars,2023.2.3,Win32,59.88023952,657b66ea316d21385b68909f,,,,,,,,,,,1064.4241,1065.4141,,,1065.9143,1066.1666,,148,148,,,,,,,,,,,,,,,,bars/037.png,bars/mask009.png,,,,,,,,,,,,5,1,,,,,,,4,2,5,2,,,,,,,,,,,1065.4141,1065.9143,1066.1666,1067.0005,space,0.8171,,1067.0005,2,43,1068,1068,1068.0015,,,,0,44,44,44,1,150,105,,,,,,,,
,,611cf8583b09a943818421ca,65af5501ebaa6ae4e2c7563f,2024-01-23_09h01.57.974,bars,2023.2.3,Win32,59.88023952,657b66ea316d21385b68909f,,,,,,,,,,,1068.0018,1068.9973,,,1069.4998,1069.75,,28,28,,,,,,,,,,,,,,,,bars/032.png,bars/mask001.png,,,,,,,,,,,,0,2,,,,,,,2,0,4,0,,,,,,,,,,,1068.9973,1069.4998,1069.75,1071.8837,space,2.1174,,1071.8837,83,8,1072.8807,1072.8807,1072.8905,,,,0,45,45,45,1,125,20,,,,,,,,
,,611cf8583b09a943818421ca,65af5501ebaa6ae4e2c7563f,2024-01-23_09h01.57.974,bars,2023.2.3,Win32,59.88023952,657b66ea316d21385b68909f,,,,,,,,,,,1072.8907,1073.8803,,,1074.3804,1074.6329,,137,137,,,,,,,,,,,,,,,,bars/002.png,bars/mask002.png,,,,,,,,,,,,2,1,,,,,,,4,0,2,0,,,,,,,,,,,1073.8803,1074.3802,1074.6329,1077.6666,space,3.0173,,1077.6666,7,52,1078.6658,1078.6659,1078.6753,,,,0,46,46,46,1,130,85,,,,,,,,
,,611cf8583b09a943818421ca,65af5501ebaa6ae4e2c7563f,2024-01-23_09h01.57.974,bars,2023.2.3,Win32,59.88023952,657b66ea316d21385b68909f,,,,,,,,,,,1078.6754,1079.6656,,,1080.1632,1080.4158,,93,93,,,,,,,,,,,,,,,,bars/019.png,bars/mask000.png,,,,,,,,,,,,1,2,,,,,,,2,2,1,1,,,,,,,,,,,1079.6656,1080.1631,1080.4158,1081.6328,space,1.2006,,1081.6329,48,12,1082.6296,1082.6296,1082.6318,,,,0,47,47,47,1,45,105,,,,,,,,
,,611cf8583b09a943818421ca,65af5501ebaa6ae4e2c7563f,2024-01-23_09h01.57.974,bars,2023.2.3,Win32,59.88023952,657b66ea316d21385b68909f,,,,,,,,,,,1082.6321,1083.6294,,,1084.1295,1084.3821,,16,16,,,,,,,,,,,,,,,,bars/009.png,bars/mask004.png,,,,,,,,,,,,4,1,,,,,,,4,0,4,0,,,,,,,,,,,1083.6294,1084.1294,1084.3822,1085.1965,space,0.7877,,1085.1968,1,89,1086.1959,1086.196,1086.1981,,,,0,48,48,48,1,15,105,,,,,,,,
,,611cf8583b09a943818421ca,65af5501ebaa6ae4e2c7563f,2024-01-23_09h01.57.974,bars,2023.2.3,Win32,59.88023952,657b66ea316d21385b68909f,,,,,,,,,,,1086.1983,1087.1959,,,1087.6958,1087.9485,,38,38,,,,,,,,,,,,,,,,bars/000.png,bars/mask008.png,,,,,,,,,,,,6,1,,,,,,,6,0,6,1,,,,,,,,,,,1087.1959,1087.6958,1087.9485,1088.8656,space,0.9007,,1088.8656,2,73,1089.8622,1089.8623,1089.8714,,,,0,49,49,49,1,40,145,,,,,,,,
,,611cf8583b09a943818421ca,65af5501ebaa6ae4e2c7563f,2024-01-23_09h01.57.974,bars,2023.2.3,Win32,59.88023952,657b66ea316d21385b68909f,,,,,,,,,,,,,,,,,,,,,,,,,,,,,,,,,,,,,,,,,,,,,,,,,,,,,,,,,,,,,,,,,,,,,,,,,,,,,,,,,,,,,,,,,,,,,1089.8714,1149.8772,0,2,2,2,1,sequence_tables/blk030.csv
,,611cf8583b09a943818421ca,65af5501ebaa6ae4e2c7563f,2024-01-23_09h01.57.974,bars,2023.2.3,Win32,59.88023952,657b66ea316d21385b68909f,,,,,,,,,,,1150.7471,1151.7409,,,1152.244,1152.4929,,92,92,,,,,,,,,,,,,,,,bars/021.png,bars/mask007.png,,,,,,,,,,,,0,2,,,,,,,6,1,6,0,,,,,,1149.8863,1150.7415,space,0.8348,,1151.741,1152.2439,1152.4929,1154.2442,space,1.7339,,1154.2442,63,22,1155.2409,1155.2409,1155.2431,,,,0,0,0,0,1,155,70,,,,,,,,
,,611cf8583b09a943818421ca,65af5501ebaa6ae4e2c7563f,2024-01-23_09h01.57.974,bars,2023.2.3,Win32,59.88023952,657b66ea316d21385b68909f,,,,,,,,,,,1155.2434,1156.241,,,1156.741,1156.9936,,23,23,,,,,,,,,,,,,,,,bars/010.png,bars/mask006.png,,,,,,,,,,,,0,2,,,,,,,8,3,8,3,,,,,,,,,,,1156.2411,1156.7408,1156.9936,1160.1605,space,3.1506,,1160.1605,38,32,1161.1571,1161.1572,1161.1662,,,,0,1,1,1,1,165,55,,,,,,,,
,,611cf8583b09a943818421ca,65af5501ebaa6ae4e2c7563f,2024-01-23_09h01.57.974,bars,2023.2.3,Win32,59.88023952,657b66ea316d21385b68909f,,,,,,,,,,,1161.1664,1162.1595,,,1162.6571,1162.907,,82,82,,,,,,,,,,,,,,,,bars/018.png,bars/mask005.png,,,,,,,,,,,,4,2,,,,,,,10,5,10,6,,,,,,,,,,,1162.1595,1162.657,1162.9071,1164.0267,space,1.1006,,1164.0269,68,8,1165.0234,1165.0234,1165.025,,,,0,2,2,2,1,150,90,,,,,,,,
,,611cf8583b09a943818421ca,65af5501ebaa6ae4e2c7563f,2024-01-23_09h01.57.974,bars,2023.2.3,Win32,59.88023952,657b66ea316d21385b68909f,,,,,,,,,,,1165.0252,1166.0232,,,1166.526,1166.7734,,109,109,,,,,,,,,,,,,,,,bars/006.png,bars/mask006.png,,,,,,,,,,,,1,2,,,,,,,10,3,9,2,,,,,,,,,,,1166.0233,1166.526,1166.7735,1169.4933,space,2.7006,,1169.4933,74,9,1170.4898,1170.4899,1170.4992,,,,0,3,3,3,1,35,100,,,,,,,,
,,611cf8583b09a943818421ca,65af5501ebaa6ae4e2c7563f,2024-01-23_09h01.57.974,bars,2023.2.3,Win32,59.88023952,657b66ea316d21385b68909f,,,,,,,,,,,1170.4992,1171.4896,,,1171.9899,1172.2397,,60,240,,,,,,,,,,,,,,,,bars/029.png,bars/mask002.png,,,,,,,,,,,,1,2,,,,,,,8,1,7,1,,,,,,,,,,,1171.4897,1171.9896,1172.2399,1175.2763,space,3.0175,,1175.2763,30,15,1176.273,1176.2733,1176.2826,,,,0,4,4,4,1,90,45,,,,,,,,
,,611cf8583b09a943818421ca,65af5501ebaa6ae4e2c7563f,2024-01-23_09h01.57.974,bars,2023.2.3,Win32,59.88023952,657b66ea316d21385b68909f,,,,,,,,,,,1176.2827,1177.274,,,1177.7726,1178.0252,,139,139,,,,,,,,,,,,,,,,bars/024.png,bars/mask006.png,,,,,,,,,,,,2,1,,,,,,,6,0,6,0,,,,,,,,,,,1177.2741,1177.7725,1178.0253,1181.3422,space,3.3006,,1181.3422,19,31,1182.3388,1182.3389,1182.3489,,,,0,5,5,5,1,120,170,,,,,,,,
,,611cf8583b09a943818421ca,65af5501ebaa6ae4e2c7563f,2024-01-23_09h01.57.974,bars,2023.2.3,Win32,59.88023952,657b66ea316d21385b68909f,,,,,,,,,,,1182.3492,1183.3404,,,1183.8387,1184.0911,,88,88,,,,,,,,,,,,,,,,bars/009.png,bars/mask007.png,,,,,,,,,,,,0,2,,,,,,,8,0,7,1,,,,,,,,,,,1183.3405,1183.8386,1184.0911,1187.7924,space,3.6847,,1187.7925,73,17,1188.7885,1188.7886,1188.7986,,,,0,6,6,6,1,15,105,,,,,,,,
,,611cf8583b09a943818421ca,65af5501ebaa6ae4e2c7563f,2024-01-23_09h01.57.974,bars,2023.2.3,Win32,59.88023952,657b66ea316d21385b68909f,,,,,,,,,,,1188.7987,1189.7882,,,1190.2887,1190.5383,,99,99,,,,,,,,,,,,,,,,bars/021.png,bars/mask000.png,,,,,,,,,,,,0,2,,,,,,,10,2,10,3,,,,,,,,,,,1189.7883,1190.2885,1190.5383,1192.9583,space,2.4163,,1192.9583,56,29,1193.9547,1193.9548,1193.9562,,,,0,7,7,7,1,155,70,,,,,,,,
,,611cf8583b09a943818421ca,65af5501ebaa6ae4e2c7563f,2024-01-23_09h01.57.974,bars,2023.2.3,Win32,59.88023952,657b66ea316d21385b68909f,,,,,,,,,,,1193.9564,1194.957,,,1195.4578,1195.7078,,155,155,,,,,,,,,,,,,,,,bars/049.png,bars/mask000.png,,,,,,,,,,,,8,1,,,,,,,8,0,9,0,,,,,,,,,,,1194.957,1195.4578,1195.7078,1198.3075,space,2.5837,,1198.3075,5,40,1199.3041,1199.3042,1199.3143,,,,0,8,8,8,1,160,115,,,,,,,,
,,611cf8583b09a943818421ca,65af5501ebaa6ae4e2c7563f,2024-01-23_09h01.57.974,bars,2023.2.3,Win32,59.88023952,657b66ea316d21385b68909f,,,,,,,,,,,1199.3145,1200.3041,,,1200.8073,1201.0543,,103,-77,,,,,,,,,,,,,,,,bars/020.png,bars/mask004.png,,,,,,,,,,,,5,1,,,,,,,6,0,8,0,,,,,,,,,,,1200.3042,1200.8073,1201.0543,1204.274,space,3.2004,,1204.274,12,67,1205.2705,1205.2706,1205.2795,,,,0,9,9,9,1,115,170,,,,,,,,
,,611cf8583b09a943818421ca,65af5501ebaa6ae4e2c7563f,2024-01-23_09h01.57.974,bars,2023.2.3,Win32,59.88023952,657b66ea316d21385b68909f,,,,,,,,,,,1205.2797,1206.2705,,,1206.7708,1207.0205,,15,195,,,,,,,,,,,,,,,,bars/035.png,bars/mask006.png,,,,,,,,,,,,1,1,,,,,,,4,2,3,0,,,,,,,,,,,1206.2707,1206.7707,1207.0206,1209.8069,space,2.7672,,1209.807,20,45,1210.8032,1210.8032,1210.8127,,,,0,10,10,10,1,175,60,,,,,,,,
,,611cf8583b09a943818421ca,65af5501ebaa6ae4e2c7563f,2024-01-23_09h01.57.974,bars,2023.2.3,Win32,59.88023952,657b66ea316d21385b68909f,,,,,,,,,,,1210.8128,1211.8035,,,1212.3048,1212.5549,,72,72,,,,,,,,,,,,,,,,bars/014.png,bars/mask003.png,,,,,,,,,,,,1,1,,,,,,,2,0,2,1,,,,,,,,,,,1211.8036,1212.3048,1212.5549,1213.2565,space,0.6837,,1213.2566,8,72,1214.2533,1214.2535,1214.2547,,,,0,11,11,11,1,80,0,,,,,,,,
,,611cf8583b09a943818421ca,65af5501ebaa6ae4e2c7563f,2024-01-23_09h01.57.974,bars,2023.2.3,Win32,59.88023952,657b66ea316d21385b68909f,,,,,,,,,,,1214.255,1215.2531,,,1215.7532,1216.003,,95,95,,,,,,,,,,,,,,,,bars/015.png,bars/mask001.png,,,,,,,,,,,,3,1,,,,,,,4,2,6,2,,,,,,,,,,,1215.2531,1215.7531,1216.0032,1219.2565,space,3.2342,,1219.2565,15,65,1220.2528,1220.2528,1220.262,,,,0,12,12,12,1,110,160,,,,,,,,
,,611cf8583b09a943818421ca,65af5501ebaa6ae4e2c7563f,2024-01-23_09h01.57.974,bars,2023.2.3,Win32,59.88023952,657b66ea316d21385b68909f,,,,,,,,,,,1220.2621,1221.2553,,,1221.7526,1222.0027,,119,119,,,,,,,,,,,,,,,,bars/037.png,bars/mask002.png,,,,,,,,,,,,1,2,,,,,,,2,0,2,2,,,,,,,,,,,1221.2553,1221.7525,1222.0027,1224.2723,space,2.2503,,1224.2723,31,14,1225.2693,1225.2695,1225.2789,,,,0,13,13,13,1,150,105,,,,,,,,
,,611cf8583b09a943818421ca,65af5501ebaa6ae4e2c7563f,2024-01-23_09h01.57.974,bars,2023.2.3,Win32,59.88023952,657b66ea316d21385b68909f,,,,,,,,,,,1225.279,1226.2705,,,1226.7692,1227.019,,121,121,,,,,,,,,,,,,,,,bars/030.png,bars/mask006.png,,,,,,,,,,,,2,1,,,,,,,4,0,6,0,,,,,,,,,,,1226.2705,1226.769,1227.0191,1228.6719,space,1.6495,,1228.6719,19,56,1229.6689,1229.669,1229.6713,,,,0,14,14,14,1,140,65,,,,,,,,
,,611cf8583b09a943818421ca,65af5501ebaa6ae4e2c7563f,2024-01-23_09h01.57.974,bars,2023.2.3,Win32,59.88023952,657b66ea316d21385b68909f,,,,,,,,,,,1229.6715,1230.6711,,,1231.1697,1231.4185,,40,220,,,,,,,,,,,,,,,,bars/048.png,bars/mask009.png,,,,,,,,,,,,4,1,,,,,,,6,2,6,3,,,,,,,,,,,1230.6711,1231.1696,1231.4185,1234.8383,space,3.4161,,1234.8383,10,45,1235.8367,1235.8367,1235.8455,,,,0,15,15,15,1,50,175,,,,,,,,
,,611cf8583b09a943818421ca,65af5501ebaa6ae4e2c7563f,2024-01-23_09h01.57.974,bars,2023.2.3,Win32,59.88023952,657b66ea316d21385b68909f,,,,,,,,,,,1235.8457,1236.8349,,,1237.3376,1237.5862,,166,-14,,,,,,,,,,,,,,,,bars/007.png,bars/mask006.png,,,,,,,,,,,,6,1,,,,,,,8,4,9,2,,,,,,,,,,,1236.835,1237.3376,1237.5863,1239.1711,space,1.5672,,1239.1711,9,69,1240.1678,1240.1678,1240.1694,,,,0,16,16,16,1,175,55,,,,,,,,
,,611cf8583b09a943818421ca,65af5501ebaa6ae4e2c7563f,2024-01-23_09h01.57.974,bars,2023.2.3,Win32,59.88023952,657b66ea316d21385b68909f,,,,,,,,,,,1240.1698,1241.1703,,,1241.6679,1241.9179,,152,152,,,,,,,,,,,,,,,,bars/009.png,bars/mask004.png,,,,,,,,,,,,0,1,,,,,,,6,2,5,1,,,,,,,,,,,1241.1704,1241.6678,1241.9179,1242.9519,space,1.0135,,1242.9519,43,47,1243.951,1243.9512,1243.9525,,,,0,17,17,17,1,15,105,,,,,,,,
,,611cf8583b09a943818421ca,65af5501ebaa6ae4e2c7563f,2024-01-23_09h01.57.974,bars,2023.2.3,Win32,59.88023952,657b66ea316d21385b68909f,,,,,,,,,,,1243.9528,1244.9537,,,1245.4514,1245.7012,,166,166,,,,,,,,,,,,,,,,bars/007.png,bars/mask004.png,,,,,,,,,,,,3,1,,,,,,,4,0,4,0,,,,,,,,,,,1244.9537,1245.4513,1245.7013,1246.4873,space,0.7672,,1246.4873,9,69,1247.484,1247.484,1247.4856,,,,0,18,18,18,1,175,55,,,,,,,,
,,611cf8583b09a943818421ca,65af5501ebaa6ae4e2c7563f,2024-01-23_09h01.57.974,bars,2023.2.3,Win32,59.88023952,657b66ea316d21385b68909f,,,,,,,,,,,1247.4857,1248.484,,,1248.984,1249.2365,,68,68,,,,,,,,,,,,,,,,bars/026.png,bars/mask005.png,,,,,,,,,,,,1,2,,,,,,,6,2,6,2,,,,,,,,,,,1248.484,1248.9838,1249.2365,1249.937,space,0.6836,,1249.937,33,17,1250.934,1250.9341,1250.9361,,,,0,19,19,19,1,35,85,,,,,,,,
,,611cf8583b09a943818421ca,65af5501ebaa6ae4e2c7563f,2024-01-23_09h01.57.974,bars,2023.2.3,Win32,59.88023952,657b66ea316d21385b68909f,,,,,,,,,,,1250.9363,1251.9337,,,1252.4341,1252.6851,,162,-18,,,,,,,,,,,,,,,,bars/018.png,bars/mask007.png,,,,,,,,,,,,4,1,,,,,,,8,4,7,6,,,,,,,,,,,1251.9338,1252.434,1252.6852,1254.5011,space,1.7882,,1254.5012,12,72,1255.5003,1255.5005,1255.5107,,,,0,20,20,20,1,150,90,,,,,,,,
,,611cf8583b09a943818421ca,65af5501ebaa6ae4e2c7563f,2024-01-23_09h01.57.974,bars,2023.2.3,Win32,59.88023952,657b66ea316d21385b68909f,,,,,,,,,,,1255.5108,1256.4999,,,1257.0025,1257.2525,,162,-18,,,,,,,,,,,,,,,,bars/018.png,bars/mask003.png,,,,,,,,,,,,5,1,,,,,,,10,6,9,8,,,,,,,,,,,1256.5002,1257.0024,1257.2526,1260.1673,space,2.8867,,1260.1674,12,72,1261.1662,1261.1663,1261.1754,,,,0,21,21,21,1,150,90,,,,,,,,
,,611cf8583b09a943818421ca,65af5501ebaa6ae4e2c7563f,2024-01-23_09h01.57.974,bars,2023.2.3,Win32,59.88023952,657b66ea316d21385b68909f,,,,,,,,,,,1261.1755,1262.1663,,,1262.6689,1262.9187,,15,15,,,,,,,,,,,,,,,,bars/041.png,bars/mask006.png,,,,,,,,,,,,7,1,,,,,,,8,4,8,4,,,,,,,,,,,1262.1663,1262.6689,1262.9188,1264.736,space,1.8006,,1264.736,5,70,1265.7327,1265.7328,1265.7418,,,,0,22,22,22,1,20,85,,,,,,,,
,,611cf8583b09a943818421ca,65af5501ebaa6ae4e2c7563f,2024-01-23_09h01.57.974,bars,2023.2.3,Win32,59.88023952,657b66ea316d21385b68909f,,,,,,,,,,,1265.7419,1266.7341,,,1267.2328,1267.4827,,22,202,,,,,,,,,,,,,,,,bars/016.png,bars/mask006.png,,,,,,,,,,,,4,1,,,,,,,10,2,10,1,,,,,,,,,,,1266.7342,1267.2327,1267.4828,1269.4827,space,1.9713,,1269.4829,18,37,1270.4823,1270.4823,1270.4838,,,,0,23,23,23,1,40,165,,,,,,,,
,,611cf8583b09a943818421ca,65af5501ebaa6ae4e2c7563f,2024-01-23_09h01.57.974,bars,2023.2.3,Win32,59.88023952,657b66ea316d21385b68909f,,,,,,,,,,,1270.4841,1271.4823,,,1271.9823,1272.2322,,153,153,,,,,,,,,,,,,,,,bars/011.png,bars/mask002.png,,,,,,,,,,,,8,1,,,,,,,10,4,10,4,,,,,,,,,,,1271.4823,1271.9823,1272.2323,1273.052,space,0.8163,,1273.052,7,68,1274.0505,1274.0505,1274.0511,,,,0,24,24,24,1,160,85,,,,,,,,
,,611cf8583b09a943818421ca,65af5501ebaa6ae4e2c7563f,2024-01-23_09h01.57.974,bars,2023.2.3,Win32,59.88023952,657b66ea316d21385b68909f,,,,,,,,,,,1274.0513,1275.0515,,,1275.5487,1275.7992,,155,-25,,,,,,,,,,,,,,,,bars/007.png,bars/mask009.png,,,,,,,,,,,,3,1,,,,,,,10,6,9,5,,,,,,,,,,,1275.0515,1275.5487,1275.7992,1278.252,space,2.4341,,1278.252,20,80,1279.2483,1279.2483,1279.2573,,,,0,25,25,25,1,175,55,,,,,,,,
,,611cf8583b09a943818421ca,65af5501ebaa6ae4e2c7563f,2024-01-23_09h01.57.974,bars,2023.2.3,Win32,59.88023952,657b66ea316d21385b68909f,,,,,,,,,,,1279.2575,1280.2484,,,1280.7484,1281.0008,,122,122,,,,,,,,,,,,,,,,bars/002.png,bars/mask008.png,,,,,,,,,,,,7,1,,,,,,,10,8,10,9,,,,,,,,,,,1280.2485,1280.7483,1281.0009,1281.968,space,0.9506,,1281.9681,8,37,1282.9646,1282.9648,1282.9662,,,,0,26,26,26,1,130,85,,,,,,,,
,,611cf8583b09a943818421ca,65af5501ebaa6ae4e2c7563f,2024-01-23_09h01.57.974,bars,2023.2.3,Win32,59.88023952,657b66ea316d21385b68909f,,,,,,,,,,,1282.9664,1283.9671,,,1284.4646,1284.7173,,112,112,,,,,,,,,,,,,,,,bars/008.png,bars/mask002.png,,,,,,,,,,,,9,1,,,,,,,10,10,10,10,,,,,,,,,,,1283.9671,1284.4646,1284.7174,1288.4674,space,3.7334,,1288.4674,2,68,1289.4642,1289.4643,1289.4733,,,,0,27,27,27,1,110,0,,,,,,,,
,,611cf8583b09a943818421ca,65af5501ebaa6ae4e2c7563f,2024-01-23_09h01.57.974,bars,2023.2.3,Win32,59.88023952,657b66ea316d21385b68909f,,,,,,,,,,,1289.4736,1290.4644,,,1290.9642,1291.2147,,103,103,,,,,,,,,,,,,,,,bars/024.png,bars/mask000.png,,,,,,,,,,,,3,1,,,,,,,8,10,8,9,,,,,,,,,,,1290.4645,1290.9642,1291.2149,1293.1173,space,1.8837,,1293.1174,17,67,1294.114,1294.114,1294.1232,,,,0,28,28,28,1,120,170,,,,,,,,
,,611cf8583b09a943818421ca,65af5501ebaa6ae4e2c7563f,2024-01-23_09h01.57.974,bars,2023.2.3,Win32,59.88023952,657b66ea316d21385b68909f,,,,,,,,,,,1294.1234,1295.1167,,,1295.6139,1295.8638,,34,34,,,,,,,,,,,,,,,,bars/033.png,bars/mask009.png,,,,,,,,,,,,4,1,,,,,,,6,8,5,8,,,,,,,,,,,1295.1167,1295.6139,1295.8639,1299.1835,space,3.3004,,1299.1835,9,59,1300.1803,1300.1805,1300.1896,,,,0,29,29,29,1,25,155,,,,,,,,
,,611cf8583b09a943818421ca,65af5501ebaa6ae4e2c7563f,2024-01-23_09h01.57.974,bars,2023.2.3,Win32,59.88023952,657b66ea316d21385b68909f,,,,,,,,,,,1300.1898,1301.1801,,,1301.6802,1301.9303,,41,221,,,,,,,,,,,,,,,,bars/004.png,bars/mask004.png,,,,,,,,,,,,2,1,,,,,,,4,10,5,10,,,,,,,,,,,1301.1802,1301.6801,1301.9303,1305.0497,space,3.1016,,1305.0497,16,84,1306.0464,1306.0465,1306.0557,,,,0,30,30,30,1,25,125,,,,,,,,
,,611cf8583b09a943818421ca,65af5501ebaa6ae4e2c7563f,2024-01-23_09h01.57.974,bars,2023.2.3,Win32,59.88023952,657b66ea316d21385b68909f,,,,,,,,,,,1306.0559,1307.0489,,,1307.5489,1307.7991,,113,113,,,,,,,,,,,,,,,,bars/012.png,bars/mask004.png,,,,,,,,,,,,0,1,,,,,,,2,8,1,9,,,,,,,,,,,1307.0489,1307.5488,1307.7991,1308.5997,space,0.7842,,1308.5997,23,82,1309.5961,1309.5961,1309.5976,,,,0,31,31,31,1,90,15,,,,,,,,
,,611cf8583b09a943818421ca,65af5501ebaa6ae4e2c7563f,2024-01-23_09h01.57.974,bars,2023.2.3,Win32,59.88023952,657b66ea316d21385b68909f,,,,,,,,,,,1309.5979,1310.5985,,,1311.0971,1311.3487,,178,178,,,,,,,,,,,,,,,,bars/033.png,bars/mask008.png,,,,,,,,,,,,2,2,,,,,,,0,10,0,7,,,,,,,,,,,1310.5985,1311.0969,1311.3487,1312.7824,space,1.4172,,1312.7825,27,23,1313.7819,1313.7819,1313.7911,,,,0,32,32,32,1,25,155,,,,,,,,
,,611cf8583b09a943818421ca,65af5501ebaa6ae4e2c7563f,2024-01-23_09h01.57.974,bars,2023.2.3,Win32,59.88023952,657b66ea316d21385b68909f,,,,,,,,,,,1313.7913,1314.7805,,,1315.2792,1315.529,,38,38,,,,,,,,,,,,,,,,bars/026.png,bars/mask003.png,,,,,,,,,,,,2,1,,,,,,,2,8,2,7,,,,,,,,,,,1314.7807,1315.2791,1315.5291,1316.0645,space,0.5164,,1316.0645,3,47,1317.0623,1317.0624,1317.0645,,,,0,33,33,33,1,35,85,,,,,,,,
,,611cf8583b09a943818421ca,65af5501ebaa6ae4e2c7563f,2024-01-23_09h01.57.974,bars,2023.2.3,Win32,59.88023952,657b66ea316d21385b68909f,,,,,,,,,,,1317.0647,1318.0622,,,1318.5624,1318.8148,,87,87,,,,,,,,,,,,,,,,bars/009.png,bars/mask007.png,,,,,,,,,,,,4,2,,,,,,,0,10,1,10,,,,,,,,,,,1318.0624,1318.5623,1318.8148,1319.5156,space,0.6842,,1319.5156,72,18,1320.512,1320.5122,1320.5144,,,,0,34,34,34,1,15,105,,,,,,,,
,,611cf8583b09a943818421ca,65af5501ebaa6ae4e2c7563f,2024-01-23_09h01.57.974,bars,2023.2.3,Win32,59.88023952,657b66ea316d21385b68909f,,,,,,,,,,,1320.5145,1321.5119,,,1322.012,1322.2619,,174,174,,,,,,,,,,,,,,,,bars/005.png,bars/mask006.png,,,,,,,,,,,,0,1,,,,,,,2,10,1,10,,,,,,,,,,,1321.5119,1322.0119,1322.262,1323.7315,space,1.4506,,1323.7316,16,34,1324.7309,1324.731,1324.7323,,,,0,35,35,35,1,10,140,,,,,,,,
,,611cf8583b09a943818421ca,65af5501ebaa6ae4e2c7563f,2024-01-23_09h01.57.974,bars,2023.2.3,Win32,59.88023952,657b66ea316d21385b68909f,,,,,,,,,,,1324.7326,1325.7283,,,1326.2284,1326.4784,,25,25,,,,,,,,,,,,,,,,bars/013.png,bars/mask005.png,,,,,,,,,,,,5,2,,,,,,,4,10,4,9,,,,,,,,,,,1325.7283,1326.2283,1326.4784,1327.4812,space,0.9837,,1327.4812,50,15,1328.478,1328.4781,1328.4804,,,,0,36,36,36,1,75,10,,,,,,,,
,,611cf8583b09a943818421ca,65af5501ebaa6ae4e2c7563f,2024-01-23_09h01.57.974,bars,2023.2.3,Win32,59.88023952,657b66ea316d21385b68909f,,,,,,,,,,,1328.4807,1329.4806,,,1329.978,1330.2278,,145,145,,,,,,,,,,,,,,,,bars/028.png,bars/mask007.png,,,,,,,,,,,,1,2,,,,,,,6,10,6,9,,,,,,,,,,,1329.4806,1329.9779,1330.228,1330.8311,space,0.5838,,1330.8311,80,25,1331.8278,1331.8279,1331.8294,,,,0,37,37,37,1,45,120,,,,,,,,
,,611cf8583b09a943818421ca,65af5501ebaa6ae4e2c7563f,2024-01-23_09h01.57.974,bars,2023.2.3,Win32,59.88023952,657b66ea316d21385b68909f,,,,,,,,,,,1331.8297,1332.8293,,,1333.3278,1333.5777,,152,-28,,,,,,,,,,,,,,,,bars/024.png,bars/mask004.png,,,,,,,,,,,,3,2,,,,,,,8,10,9,8,,,,,,,,,,,1332.8293,1333.3277,1333.5778,1334.9809,space,1.3842,,1334.981,32,18,1335.9777,1335.9777,1335.9868,,,,0,38,38,38,1,120,170,,,,,,,,
,,611cf8583b09a943818421ca,65af5501ebaa6ae4e2c7563f,2024-01-23_09h01.57.974,bars,2023.2.3,Win32,59.88023952,657b66ea316d21385b68909f,,,,,,,,,,,1335.987,1336.9773,,,1337.48,1337.7275,,106,-74,,,,,,,,,,,,,,,,bars/001.png,bars/mask006.png,,,,,,,,,,,,3,2,,,,,,,6,8,7,9,,,,,,,,,,,1336.9774,1337.48,1337.7275,1340.4109,space,2.6607,,1340.4111,24,21,1341.413,1341.4131,1341.4138,,,,0,39,39,39,1,130,85,,,,,,,,
,,611cf8583b09a943818421ca,65af5501ebaa6ae4e2c7563f,2024-01-23_09h01.57.974,bars,2023.2.3,Win32,59.88023952,657b66ea316d21385b68909f,,,,,,,,,,,1341.414,1342.413,,,1342.912,1343.1632,,69,69,,,,,,,,,,,,,,,,bars/039.png,bars/mask009.png,,,,,,,,,,,,0,2,,,,,,,4,6,4,6,,,,,,,,,,,1342.4131,1342.912,1343.1633,1345.9799,space,2.8004,,1345.9799,74,36,1346.9767,1346.9768,1346.9857,,,,0,40,40,40,1,175,105,,,,,,,,
,,611cf8583b09a943818421ca,65af5501ebaa6ae4e2c7563f,2024-01-23_09h01.57.974,bars,2023.2.3,Win32,59.88023952,657b66ea316d21385b68909f,,,,,,,,,,,1346.9859,1347.9792,,,1348.4766,1348.7264,,146,146,,,,,,,,,,,,,,,,bars/036.png,bars/mask008.png,,,,,,,,,,,,6,1,,,,,,,6,8,6,9,,,,,,,,,,,1347.9793,1348.4765,1348.7265,1350.0131,space,1.2829,,1350.0131,1,54,1351.0098,1351.0099,1351.0121,,,,0,41,41,41,1,145,20,,,,,,,,
,,611cf8583b09a943818421ca,65af5501ebaa6ae4e2c7563f,2024-01-23_09h01.57.974,bars,2023.2.3,Win32,59.88023952,657b66ea316d21385b68909f,,,,,,,,,,,1351.0123,1352.0097,,,1352.5098,1352.7602,,117,117,,,,,,,,,,,,,,,,bars/020.png,bars/mask003.png,,,,,,,,,,,,3,1,,,,,,,4,10,3,10,,,,,,,,,,,1352.0098,1352.5096,1352.7604,1354.163,space,1.3842,,1354.1631,2,53,1355.1594,1355.1595,1355.161,,,,0,42,42,42,1,115,170,,,,,,,,
,,611cf8583b09a943818421ca,65af5501ebaa6ae4e2c7563f,2024-01-23_09h01.57.974,bars,2023.2.3,Win32,59.88023952,657b66ea316d21385b68909f,,,,,,,,,,,1355.1612,1356.1622,,,1356.6594,1356.9092,,171,171,,,,,,,,,,,,,,,,bars/007.png,bars/mask003.png,,,,,,,,,,,,2,1,,,,,,,2,10,2,10,,,,,,,,,,,1356.1622,1356.6594,1356.9093,1358.9457,space,2.0171,,1358.9457,4,64,1359.9424,1359.9425,1359.9516,,,,0,43,43,43,1,175,55,,,,,,,,
,,611cf8583b09a943818421ca,65af5501ebaa6ae4e2c7563f,2024-01-23_09h01.57.974,bars,2023.2.3,Win32,59.88023952,657b66ea316d21385b68909f,,,,,,,,,,,1359.9518,1360.9424,,,1361.4448,1361.6923,,156,156,,,,,,,,,,,,,,,,bars/044.png,bars/mask002.png,,,,,,,,,,,,10,2,,,,,,,0,10,1,10,,,,,,,,,,,1360.9424,1361.4447,1361.6923,1364.5453,space,2.8494,,1364.5453,81,1,1365.5419,1365.5419,1365.5519,,,,0,44,44,44,1,75,155,,,,,,,,
,,611cf8583b09a943818421ca,65af5501ebaa6ae4e2c7563f,2024-01-23_09h01.57.974,bars,2023.2.3,Win32,59.88023952,657b66ea316d21385b68909f,,,,,,,,,,,1365.552,1366.5418,,,1367.0434,1367.2919,,152,-28,,,,,,,,,,,,,,,,bars/000.png,bars/mask009.png,,,,,,,,,,,,7,2,,,,,,,2,10,1,9,,,,,,,,,,,1366.5419,1367.0434,1367.292,1370.5787,space,3.2676,,1370.5788,68,7,1371.5749,1371.575,1371.5843,,,,0,45,45,45,1,40,145,,,,,,,,
,,611cf8583b09a943818421ca,65af5501ebaa6ae4e2c7563f,2024-01-23_09h01.57.974,bars,2023.2.3,Win32,59.88023952,657b66ea316d21385b68909f,,,,,,,,,,,1371.5844,1372.5773,,,1373.0749,1373.3279,,145,-35,,,,,,,,,,,,,,,,bars/024.png,bars/mask009.png,,,,,,,,,,,,2,2,,,,,,,0,10,0,10,,,,,,,,,,,1372.5773,1373.0748,1373.3279,1375.4281,space,2.0843,,1375.4281,25,25,1376.4246,1376.4246,1376.4338,,,,0,46,46,46,1,120,170,,,,,,,,
,,611cf8583b09a943818421ca,65af5501ebaa6ae4e2c7563f,2024-01-23_09h01.57.974,bars,2023.2.3,Win32,59.88023952,657b66ea316d21385b68909f,,,,,,,,,,,1376.434,1377.4245,,,1377.9248,1378.1747,,154,-26,,,,,,,,,,,,,,,,bars/016.png,bars/mask002.png,,,,,,,,,,,,4,2,,,,,,,2,8,3,7,,,,,,,,,,,1377.4245,1377.9245,1378.1751,1381.0108,space,2.8172,,1381.0108,66,11,1382.0075,1382.0075,1382.0168,,,,0,47,47,47,1,40,165,,,,,,,,
,,611cf8583b09a943818421ca,65af5501ebaa6ae4e2c7563f,2024-01-23_09h01.57.974,bars,2023.2.3,Win32,59.88023952,657b66ea316d21385b68909f,,,,,,,,,,,1382.0169,1383.0072,,,1383.5075,1383.759,,31,31,,,,,,,,,,,,,,,,bars/032.png,bars/mask007.png,,,,,,,,,,,,5,2,,,,,,,4,10,5,8,,,,,,,,,,,1383.0073,1383.5074,1383.7591,1385.0936,space,1.3172,,1385.0936,86,11,1386.0906,1386.0906,1386.1002,,,,0,48,48,48,1,125,20,,,,,,,,
,,611cf8583b09a943818421ca,65af5501ebaa6ae4e2c7563f,2024-01-23_09h01.57.974,bars,2023.2.3,Win32,59.88023952,657b66ea316d21385b68909f,,,,,,,,,,,1386.1004,1387.0902,,,1387.5904,1387.8405,,151,151,,,,,,,,,,,,,,,,bars/024.png,bars/mask007.png,,,,,,,,,,,,4,2,,,,,,,6,8,6,10,,,,,,,,,,,1387.0904,1387.5903,1387.8406,1390.06,space,2.2004,,1390.06,31,19,1391.0568,1391.0569,1391.0663,,,,0,49,49,49,1,120,170,,,,,,,,
,,611cf8583b09a943818421ca,65af5501ebaa6ae4e2c7563f,2024-01-23_09h01.57.974,bars,2023.2.3,Win32,59.88023952,657b66ea316d21385b68909f,,,,,,,,,,,,,,,,,,,,,,,,,,,,,,,,,,,,,,,,,,,,,,,,,,,,,,,,,,,,,,,,,,,,,,,,,,,,,,,,,,,,,,,,,,,,,1391.0665,1451.055,0,3,3,0,1,sequence_tables/blk045.csv
,,611cf8583b09a943818421ca,65af5501ebaa6ae4e2c7563f,2024-01-23_09h01.57.974,bars,2023.2.3,Win32,59.88023952,657b66ea316d21385b68909f,,,,,,,,,,,1451.6057,1452.6023,,,1453.1025,1453.3551,,115,115,,,,,,,,,,,,,,,,bars/049.png,bars/mask001.png,,,,,,,,,,,,1,2,,,,,,,4,1,4,1,,,,,,1451.0639,1451.6028,space,0.5256,,1452.6023,1453.1024,1453.3551,1455.3553,space,1.984,,1455.3554,45,0,1456.3519,1456.352,1456.3534,,,,0,0,0,0,1,160,115,,,,,,,,
,,611cf8583b09a943818421ca,65af5501ebaa6ae4e2c7563f,2024-01-23_09h01.57.974,bars,2023.2.3,Win32,59.88023952,657b66ea316d21385b68909f,,,,,,,,,,,1456.3536,1457.3517,,,1457.8544,1458.1018,,99,99,,,,,,,,,,,,,,,,bars/002.png,bars/mask000.png,,,,,,,,,,,,0,2,,,,,,,6,0,8,0,,,,,,,,,,,1457.3518,1457.8543,1458.1019,1460.5882,space,2.4671,,1460.5882,31,14,1461.5849,1461.585,1461.5942,,,,0,1,1,1,1,130,85,,,,,,,,
,,611cf8583b09a943818421ca,65af5501ebaa6ae4e2c7563f,2024-01-23_09h01.57.974,bars,2023.2.3,Win32,59.88023952,657b66ea316d21385b68909f,,,,,,,,,,,1461.5944,1462.5846,,,1463.085,1463.3348,,46,46,,,,,,,,,,,,,,,,bars/022.png,bars/mask006.png,,,,,,,,,,,,0,2,,,,,,,4,2,2,2,,,,,,,,,,,1462.5847,1463.0849,1463.3349,1464.0046,space,0.6505,,1464.0046,49,26,1465.0037,1465.0037,1465.0045,,,,0,2,2,2,1,95,20,,,,,,,,
,,611cf8583b09a943818421ca,65af5501ebaa6ae4e2c7563f,2024-01-23_09h01.57.974,bars,2023.2.3,Win32,59.88023952,657b66ea316d21385b68909f,,,,,,,,,,,1465.0047,1466.001,,,1466.5013,1466.751,,105,105,,,,,,,,,,,,,,,,bars/014.png,bars/mask002.png,,,,,,,,,,,,0,1,,,,,,,2,0,2,0,,,,,,,,,,,1466.0012,1466.5012,1466.7511,1471.6373,space,4.8825,,1471.6373,25,75,1472.6342,1472.6344,1472.644,,,,0,3,3,3,1,80,0,,,,,,,,
,,611cf8583b09a943818421ca,65af5501ebaa6ae4e2c7563f,2024-01-23_09h01.57.974,bars,2023.2.3,Win32,59.88023952,657b66ea316d21385b68909f,,,,,,,,,,,1472.6442,1473.6365,,,1474.1341,1474.3841,,82,82,,,,,,,,,,,,,,,,bars/018.png,bars/mask007.png,,,,,,,,,,,,0,2,,,,,,,4,0,4,0,,,,,,,,,,,1473.6365,1474.134,1474.3843,1476.1203,space,1.7169,,1476.1203,68,8,1477.1196,1477.1196,1477.1212,,,,0,4,4,4,1,150,90,,,,,,,,
,,611cf8583b09a943818421ca,65af5501ebaa6ae4e2c7563f,2024-01-23_09h01.57.974,bars,2023.2.3,Win32,59.88023952,657b66ea316d21385b68909f,,,,,,,,,,,1477.1215,1478.117,,,1478.6171,1478.867,,143,143,,,,,,,,,,,,,,,,bars/000.png,bars/mask008.png,,,,,,,,,,,,1,2,,,,,,,2,2,3,1,,,,,,,,,,,1478.1171,1478.617,1478.8671,1480.3868,space,1.5007,,1480.3868,77,2,1481.3836,1481.3839,1481.3928,,,,0,5,5,5,1,40,145,,,,,,,,
,,611cf8583b09a943818421ca,65af5501ebaa6ae4e2c7563f,2024-01-23_09h01.57.974,bars,2023.2.3,Win32,59.88023952,657b66ea316d21385b68909f,,,,,,,,,,,1481.3929,1482.3833,,,1482.8837,1483.1332,,132,132,,,,,,,,,,,,,,,,bars/018.png,bars/mask009.png,,,,,,,,,,,,0,1,,,,,,,0,4,1,3,,,,,,,,,,,1482.3833,1482.8835,1483.1333,1485.8201,space,2.6676,,1485.8201,18,42,1486.8162,1486.8164,1486.8261,,,,0,6,6,6,1,150,90,,,,,,,,
,,611cf8583b09a943818421ca,65af5501ebaa6ae4e2c7563f,2024-01-23_09h01.57.974,bars,2023.2.3,Win32,59.88023952,657b66ea316d21385b68909f,,,,,,,,,,,1486.8262,1487.8167,,,1488.319,1488.5663,,64,64,,,,,,,,,,,,,,,,bars/035.png,bars/mask002.png,,,,,,,,,,,,6,2,,,,,,,0,6,0,7,,,,,,,,,,,1487.8168,1488.3189,1488.5664,1490.4332,space,1.8452,,1490.4333,69,4,1491.4327,1491.4328,1491.4424,,,,0,7,7,7,1,175,60,,,,,,,,
,,611cf8583b09a943818421ca,65af5501ebaa6ae4e2c7563f,2024-01-23_09h01.57.974,bars,2023.2.3,Win32,59.88023952,657b66ea316d21385b68909f,,,,,,,,,,,1491.4425,1492.4326,,,1492.9324,1493.1841,,46,46,,,,,,,,,,,,,,,,bars/025.png,bars/mask005.png,,,,,,,,,,,,6,2,,,,,,,2,8,2,8,,,,,,,,,,,1492.4326,1492.9323,1493.1841,1496.8028,space,3.6012,,1496.8029,59,6,1497.799,1497.7991,1497.8078,,,,0,8,8,8,1,105,40,,,,,,,,
,,611cf8583b09a943818421ca,65af5501ebaa6ae4e2c7563f,2024-01-23_09h01.57.974,bars,2023.2.3,Win32,59.88023952,657b66ea316d21385b68909f,,,,,,,,,,,1497.8081,1498.7988,,,1499.299,1499.5487,,14,194,,,,,,,,,,,,,,,,bars/045.png,bars/mask007.png,,,,,,,,,,,,6,2,,,,,,,4,6,4,7,,,,,,,,,,,1498.7989,1499.2988,1499.5489,1501.5351,space,1.9669,,1501.5351,86,4,1502.532,1502.5321,1502.5409,,,,0,9,9,9,1,100,10,,,,,,,,
,,611cf8583b09a943818421ca,65af5501ebaa6ae4e2c7563f,2024-01-23_09h01.57.974,bars,2023.2.3,Win32,59.88023952,657b66ea316d21385b68909f,,,,,,,,,,,1502.5412,1503.5341,,,1504.0317,1504.2846,,120,120,,,,,,,,,,,,,,,,bars/049.png,bars/mask008.png,,,,,,,,,,,,7,2,,,,,,,2,8,0,8,,,,,,,,,,,1503.5342,1504.0317,1504.2846,1506.9819,space,2.6683,,1506.9822,40,5,1507.984,1507.9841,1507.9927,,,,0,10,10,10,1,160,115,,,,,,,,
,,611cf8583b09a943818421ca,65af5501ebaa6ae4e2c7563f,2024-01-23_09h01.57.974,bars,2023.2.3,Win32,59.88023952,657b66ea316d21385b68909f,,,,,,,,,,,1507.9929,1508.983,,,1509.4846,1509.7318,,167,-13,,,,,,,,,,,,,,,,bars/048.png,bars/mask001.png,,,,,,,,,,,,6,2,,,,,,,4,10,4,8,,,,,,,,,,,1508.983,1509.4845,1509.732,1511.5009,space,1.7502,,1511.501,63,8,1512.4979,1512.4979,1512.507,,,,0,11,11,11,1,50,175,,,,,,,,
,,611cf8583b09a943818421ca,65af5501ebaa6ae4e2c7563f,2024-01-23_09h01.57.974,bars,2023.2.3,Win32,59.88023952,657b66ea316d21385b68909f,,,,,,,,,,,1512.5072,1513.4977,,,1513.9978,1514.2502,,93,93,,,,,,,,,,,,,,,,bars/006.png,bars/mask009.png,,,,,,,,,,,,8,2,,,,,,,2,8,3,10,,,,,,,,,,,1513.4978,1513.9977,1514.2503,1516.0342,space,1.7673,,1516.0342,58,7,1517.0309,1517.0311,1517.0324,,,,0,12,12,12,1,35,100,,,,,,,,
,,611cf8583b09a943818421ca,65af5501ebaa6ae4e2c7563f,2024-01-23_09h01.57.974,bars,2023.2.3,Win32,59.88023952,657b66ea316d21385b68909f,,,,,,,,,,,1517.0326,1518.0334,,,1518.5336,1518.7807,,34,214,,,,,,,,,,,,,,,,bars/035.png,bars/mask008.png,,,,,,,,,,,,1,2,,,,,,,0,10,0,9,,,,,,,,,,,1518.0335,1518.5335,1518.7807,1521.4005,space,2.6009,,1521.4005,39,26,1522.3986,1522.3986,1522.4073,,,,0,13,13,13,1,175,60,,,,,,,,
