init_variables.started,init_variables.stopped,participant,session,date,expName,psychopyVersion,OS,frameRate,study_id,instruction_exp.started,instruction_exp.stopped,key_resp_8.keys,key_resp_8.rt,key_resp_8.duration,instruction_single.started,instruction_single.stopped,key_resp_2.keys,key_resp_2.rt,key_resp_2.duration,interval.started,interval.stopped,cue_single.started,cue_single.stopped,mask.started,mask.stopped,ori_response_single.started,res_ori,res,ori_response_single.stopped,key_resp_single.keys,key_resp_single.rt,key_resp_single.duration,disp_single.started,disp_single.stopped,key_resp.keys,key_resp.rt,key_resp.duration,single.thisRepN,single.thisTrialN,single.thisN,single.thisIndex,single.ran,ori,path,mask_path,instruction_bandit.started,instruction_bandit.stopped,key_resp_6.keys,key_resp_6.rt,key_resp_6.duration,cue_bandit.started,cue_bandit.stopped,bandit_res.keys,bandit_res.rt,bandit_res.duration,outcome_bandit.started,rew,action,outcome_bandit.stopped,bandit.thisRepN,bandit.thisTrialN,bandit.thisN,bandit.thisIndex,bandit.ran,actual_rew1,actual_rew2,rew1,rew2,instruction_task.started,instruction_task.stopped,key_resp_7.keys,key_resp_7.rt,key_resp_7.duration,wait_ready.started,wait_ready.stopped,key_resp_3.keys,key_resp_3.rt,key_resp_3.duration,cue.started,cue.stopped,ori_response.started,ori_response.stopped,key_resp_5.keys,key_resp_5.rt,key_resp_5.duration,outcome.started,diff1,diff2,outcome.stopped,disp_outcome_practice.started,disp_outcome_practice.stopped,key_resp_4.keys,key_resp_4.rt,key_resp_4.duration,trials.thisRepN,trials.thisTrialN,trials.thisN,trials.thisIndex,trials.ran,ori1,ori2,break_blk.started,break_blk.stopped,block.thisRepN,block.thisTrialN,block.thisN,block.thisIndex,block.ran,condition_file
0.0005,0.001,5f18ba940ce7b80d1875c975,65af53cbe8cf4b3e6d3334d6,2024-01-23_07h54.08.956,bars,2023.2.3,Win32,60.24096386,657b66ea316d21385b68909f,,,,,,,,,,,,,,,,,,,,,,,,,,,,,,,,,,,,,,,,,,,,,,,,,,,,,,,,,,,,,,,,,,,,,,,,,,,,,,,,,,,,,,,,,,,,,,,,,,,,
,,5f18ba940ce7b80d1875c975,65af53cbe8cf4b3e6d3334d6,2024-01-23_07h54.08.956,bars,2023.2.3,Win32,60.24096386,657b66ea316d21385b68909f,0.0014,17.2951,y,17.2706,,,,,,,,,,,,,,,,,,,,,,,,,,,,,,,,,,,,,,,,,,,,,,,,,,,,,,,,,,,,,,,,,,,,,,,,,,,,,,,,,,,,,,,,,,,,,,,,
,,5f18ba940ce7b80d1875c975,65af53cbe8cf4b3e6d3334d6,2024-01-23_07h54.08.956,bars,2023.2.3,Win32,60.24096386,657b66ea316d21385b68909f,,,,,,17.2952,45.1176,space,27.8005,,,,,,,,,,,,,,,,,,,,,,,,,,,,,,,,,,,,,,,,,,,,,,,,,,,,,,,,,,,,,,,,,,,,,,,,,,,,,,,,,,,,,,,,,,,
,,5f18ba940ce7b80d1875c975,65af53cbe8cf4b3e6d3334d6,2024-01-23_07h54.08.956,bars,2023.2.3,Win32,60.24096386,657b66ea316d21385b68909f,,,,,,,,,,,45.1266,46.1255,46.1257,46.6254,46.6256,46.8747,46.8749,59,59,54.5168,space,7.6007,,54.5172,70.5532,space,15.9954,,0,0,0,7,1,45,bars/single007.png,bars/mask009.png,,,,,,,,,,,,,,,,,,,,,,,,,,,,,,,,,,,,,,,,,,,,,,,,,,,,,,,,,,,,,,,,
,,5f18ba940ce7b80d1875c975,65af53cbe8cf4b3e6d3334d6,2024-01-23_07h54.08.956,bars,2023.2.3,Win32,60.24096386,657b66ea316d21385b68909f,,,,,,,,,,,70.5688,71.5662,71.5664,72.0663,72.0664,72.317,72.3171,52,52,85.4204,space,13.0873,,85.4204,90.9645,space,5.5127,,0,1,1,5,1,55,bars/single005.png,bars/mask008.png,,,,,,,,,,,,,,,,,,,,,,,,,,,,,,,,,,,,,,,,,,,,,,,,,,,,,,,,,,,,,,,,
,,5f18ba940ce7b80d1875c975,65af53cbe8cf4b3e6d3334d6,2024-01-23_07h54.08.956,bars,2023.2.3,Win32,60.24096386,657b66ea316d21385b68909f,,,,,,,,,,,90.9772,91.9801,91.9801,92.4797,92.4798,92.7295,92.7296,120,120,107.3155,space,14.5698,,107.3155,112.1449,space,4.8007,,0,2,2,2,1,145,bars/single002.png,bars/mask003.png,,,,,,,,,,,,,,,,,,,,,,,,,,,,,,,,,,,,,,,,,,,,,,,,,,,,,,,,,,,,,,,,
,,5f18ba940ce7b80d1875c975,65af53cbe8cf4b3e6d3334d6,2024-01-23_07h54.08.956,bars,2023.2.3,Win32,60.24096386,657b66ea316d21385b68909f,,,,,,,,,,,112.16,113.1596,113.1596,113.6586,113.6586,113.9087,113.9088,59,59,119.9037,space,5.9769,,119.9037,123.1337,space,3.1989,,0,3,3,8,1,160,bars/single008.png,bars/mask004.png,,,,,,,,,,,,,,,,,,,,,,,,,,,,,,,,,,,,,,,,,,,,,,,,,,,,,,,,,,,,,,,,
,,5f18ba940ce7b80d1875c975,65af53cbe8cf4b3e6d3334d6,2024-01-23_07h54.08.956,bars,2023.2.3,Win32,60.24096386,657b66ea316d21385b68909f,,,,,,,,,,,123.1342,124.1318,124.1318,124.6316,124.6316,124.8827,124.8829,101,101,137.2542,space,12.3638,,137.2544,143.848,space,6.5678,,0,4,4,4,1,95,bars/single004.png,bars/mask004.png,,,,,,,,,,,,,,,,,,,,,,,,,,,,,,,,,,,,,,,,,,,,,,,,,,,,,,,,,,,,,,,,
,,5f18ba940ce7b80d1875c975,65af53cbe8cf4b3e6d3334d6,2024-01-23_07h54.08.956,bars,2023.2.3,Win32,60.24096386,657b66ea316d21385b68909f,,,,,,,,,,,143.8623,144.8617,144.8619,145.3608,145.3608,145.6113,145.6113,133,133,152.8374,space,7.2104,,152.8375,156.6503,space,3.7776,,0,5,5,0,1,150,bars/single000.png,bars/mask006.png,,,,,,,,,,,,,,,,,,,,,,,,,,,,,,,,,,,,,,,,,,,,,,,,,,,,,,,,,,,,,,,,
,,5f18ba940ce7b80d1875c975,65af53cbe8cf4b3e6d3334d6,2024-01-23_07h54.08.956,bars,2023.2.3,Win32,60.24096386,657b66ea316d21385b68909f,,,,,,,,,,,156.6637,157.6663,157.6664,158.1651,158.1651,158.4153,158.4153,144,144,162.6446,space,4.2132,,162.6447,165.7415,space,3.062,,0,6,6,6,1,175,bars/single006.png,bars/mask005.png,,,,,,,,,,,,,,,,,,,,,,,,,,,,,,,,,,,,,,,,,,,,,,,,,,,,,,,,,,,,,,,,
,,5f18ba940ce7b80d1875c975,65af53cbe8cf4b3e6d3334d6,2024-01-23_07h54.08.956,bars,2023.2.3,Win32,60.24096386,657b66ea316d21385b68909f,,,,,,,,,,,165.7559,166.7567,166.7567,167.2564,167.2565,167.5061,167.5062,156,156,171.0693,space,3.5466,,171.0694,173.1509,space,2.0551,,0,7,7,9,1,20,bars/single009.png,bars/mask006.png,,,,,,,,,,,,,,,,,,,,,,,,,,,,,,,,,,,,,,,,,,,,,,,,,,,,,,,,,,,,,,,,
,,5f18ba940ce7b80d1875c975,65af53cbe8cf4b3e6d3334d6,2024-01-23_07h54.08.956,bars,2023.2.3,Win32,60.24096386,657b66ea316d21385b68909f,,,,,,,,,,,173.1513,174.1496,174.1497,174.6492,174.6492,174.8988,174.8989,175,-5,182.493,space,7.585,,182.493,184.8607,space,2.3407,,0,8,8,1,1,20,bars/single001.png,bars/mask006.png,,,,,,,,,,,,,,,,,,,,,,,,,,,,,,,,,,,,,,,,,,,,,,,,,,,,,,,,,,,,,,,,
,,5f18ba940ce7b80d1875c975,65af53cbe8cf4b3e6d3334d6,2024-01-23_07h54.08.956,bars,2023.2.3,Win32,60.24096386,657b66ea316d21385b68909f,,,,,,,,,,,184.8614,185.855,185.855,186.3563,186.3563,186.6039,186.6039,29,29,194.0799,space,7.4603,,194.0799,196.5615,space,2.4485,,0,9,9,3,1,20,bars/single003.png,bars/mask005.png,,,,,,,,,,,,,,,,,,,,,,,,,,,,,,,,,,,,,,,,,,,,,,,,,,,,,,,,,,,,,,,,
,,5f18ba940ce7b80d1875c975,65af53cbe8cf4b3e6d3334d6,2024-01-23_07h54.08.956,bars,2023.2.3,Win32,60.24096386,657b66ea316d21385b68909f,,,,,,,,,,,,,,,,,,,,,,,,,,,,,,,,,,,,,196.5633,232.3605,space,35.7749,,,,,,,,,,,,,,,,,,,,,,,,,,,,,,,,,,,,,,,,,,,,,,,,,,,,,,,,,,,,
,,5f18ba940ce7b80d1875c975,65af53cbe8cf4b3e6d3334d6,2024-01-23_07h54.08.956,bars,2023.2.3,Win32,60.24096386,657b66ea316d21385b68909f,,,,,,,,,,,,,,,,,,,,,,,,,,,,,,,,,,,,,,,,,,232.3776,241.3355,right,8.9197,,241.3357,2,2,242.3329,0,0,0,0,1,9,1,9,2,,,,,,,,,,,,,,,,,,,,,,,,,,,,,,,,,,,,,,,,,
,,5f18ba940ce7b80d1875c975,65af53cbe8cf4b3e6d3334d6,2024-01-23_07h54.08.956,bars,2023.2.3,Win32,60.24096386,657b66ea316d21385b68909f,,,,,,,,,,,,,,,,,,,,,,,,,,,,,,,,,,,,,,,,,,242.3335,251.7905,left,9.4415,,251.7905,10,1,252.7891,0,1,1,1,1,10,0,10,1,,,,,,,,,,,,,,,,,,,,,,,,,,,,,,,,,,,,,,,,,
,,5f18ba940ce7b80d1875c975,65af53cbe8cf4b3e6d3334d6,2024-01-23_07h54.08.956,bars,2023.2.3,Win32,60.24096386,657b66ea316d21385b68909f,,,,,,,,,,,,,,,,,,,,,,,,,,,,,,,,,,,,,,,,,,252.8022,256.6854,right,3.8693,,256.6855,2,2,257.6844,0,2,2,2,1,10,2,10,2,,,,,,,,,,,,,,,,,,,,,,,,,,,,,,,,,,,,,,,,,
,,5f18ba940ce7b80d1875c975,65af53cbe8cf4b3e6d3334d6,2024-01-23_07h54.08.956,bars,2023.2.3,Win32,60.24096386,657b66ea316d21385b68909f,,,,,,,,,,,,,,,,,,,,,,,,,,,,,,,,,,,,,,,,,,257.6972,259.8668,left,2.1571,,259.867,7,1,260.8642,0,3,3,3,1,8,4,7,3,,,,,,,,,,,,,,,,,,,,,,,,,,,,,,,,,,,,,,,,,
,,5f18ba940ce7b80d1875c975,65af53cbe8cf4b3e6d3334d6,2024-01-23_07h54.08.956,bars,2023.2.3,Win32,60.24096386,657b66ea316d21385b68909f,,,,,,,,,,,,,,,,,,,,,,,,,,,,,,,,,,,,,,,,,,260.8769,262.2968,left,1.4109,,262.2969,5,1,263.2954,0,4,4,4,1,6,2,5,1,,,,,,,,,,,,,,,,,,,,,,,,,,,,,,,,,,,,,,,,,
,,5f18ba940ce7b80d1875c975,65af53cbe8cf4b3e6d3334d6,2024-01-23_07h54.08.956,bars,2023.2.3,Win32,60.24096386,657b66ea316d21385b68909f,,,,,,,,,,,,,,,,,,,,,,,,,,,,,,,,,,,,,,,,,,263.2959,264.5115,right,1.2002,,264.5116,4,2,265.5101,0,5,5,5,1,4,4,4,4,,,,,,,,,,,,,,,,,,,,,,,,,,,,,,,,,,,,,,,,,
,,5f18ba940ce7b80d1875c975,65af53cbe8cf4b3e6d3334d6,2024-01-23_07h54.08.956,bars,2023.2.3,Win32,60.24096386,657b66ea316d21385b68909f,,,,,,,,,,,,,,,,,,,,,,,,,,,,,,,,,,,,,,,,,,265.5104,266.5769,left,1.058,,266.5769,1,1,267.575,0,6,6,6,1,2,2,1,2,,,,,,,,,,,,,,,,,,,,,,,,,,,,,,,,,,,,,,,,,
,,5f18ba940ce7b80d1875c975,65af53cbe8cf4b3e6d3334d6,2024-01-23_07h54.08.956,bars,2023.2.3,Win32,60.24096386,657b66ea316d21385b68909f,,,,,,,,,,,,,,,,,,,,,,,,,,,,,,,,,,,,,,,,,,267.5754,268.3408,left,0.7504,,268.3409,0,1,269.3398,0,7,7,7,1,0,0,0,1,,,,,,,,,,,,,,,,,,,,,,,,,,,,,,,,,,,,,,,,,
,,5f18ba940ce7b80d1875c975,65af53cbe8cf4b3e6d3334d6,2024-01-23_07h54.08.956,bars,2023.2.3,Win32,60.24096386,657b66ea316d21385b68909f,,,,,,,,,,,,,,,,,,,,,,,,,,,,,,,,,,,,,,,,,,269.3401,270.1899,right,0.8341,,270.19,0,2,271.188,0,8,8,8,1,0,2,1,0,,,,,,,,,,,,,,,,,,,,,,,,,,,,,,,,,,,,,,,,,
,,5f18ba940ce7b80d1875c975,65af53cbe8cf4b3e6d3334d6,2024-01-23_07h54.08.956,bars,2023.2.3,Win32,60.24096386,657b66ea316d21385b68909f,,,,,,,,,,,,,,,,,,,,,,,,,,,,,,,,,,,,,,,,,,271.1884,272.0206,right,0.8227,,272.0207,3,2,273.0193,0,9,9,9,1,2,4,2,3,,,,,,,,,,,,,,,,,,,,,,,,,,,,,,,,,,,,,,,,,
,,5f18ba940ce7b80d1875c975,65af53cbe8cf4b3e6d3334d6,2024-01-23_07h54.08.956,bars,2023.2.3,Win32,60.24096386,657b66ea316d21385b68909f,,,,,,,,,,,,,,,,,,,,,,,,,,,,,,,,,,,,,,,,,,273.0198,273.7688,right,0.734,,273.7689,3,2,274.7674,0,10,10,10,1,0,2,0,3,,,,,,,,,,,,,,,,,,,,,,,,,,,,,,,,,,,,,,,,,
,,5f18ba940ce7b80d1875c975,65af53cbe8cf4b3e6d3334d6,2024-01-23_07h54.08.956,bars,2023.2.3,Win32,60.24096386,657b66ea316d21385b68909f,,,,,,,,,,,,,,,,,,,,,,,,,,,,,,,,,,,,,,,,,,274.7678,275.2504,left,0.4669,,275.2505,0,1,276.2495,0,11,11,11,1,0,4,0,3,,,,,,,,,,,,,,,,,,,,,,,,,,,,,,,,,,,,,,,,,
,,5f18ba940ce7b80d1875c975,65af53cbe8cf4b3e6d3334d6,2024-01-23_07h54.08.956,bars,2023.2.3,Win32,60.24096386,657b66ea316d21385b68909f,,,,,,,,,,,,,,,,,,,,,,,,,,,,,,,,,,,,,,,,,,276.2499,276.9162,left,0.6581,,276.9163,1,1,277.9149,0,12,12,12,1,2,6,1,6,,,,,,,,,,,,,,,,,,,,,,,,,,,,,,,,,,,,,,,,,
,,5f18ba940ce7b80d1875c975,65af53cbe8cf4b3e6d3334d6,2024-01-23_07h54.08.956,bars,2023.2.3,Win32,60.24096386,657b66ea316d21385b68909f,,,,,,,,,,,,,,,,,,,,,,,,,,,,,,,,,,,,,,,,,,277.9158,278.6821,right,0.7586,,278.6822,3,2,279.6795,0,13,13,13,1,0,4,1,3,,,,,,,,,,,,,,,,,,,,,,,,,,,,,,,,,,,,,,,,,
,,5f18ba940ce7b80d1875c975,65af53cbe8cf4b3e6d3334d6,2024-01-23_07h54.08.956,bars,2023.2.3,Win32,60.24096386,657b66ea316d21385b68909f,,,,,,,,,,,,,,,,,,,,,,,,,,,,,,,,,,,,,,,,,,279.6799,280.3624,right,0.6658,,280.3624,7,2,281.3608,0,14,14,14,1,2,6,2,7,,,,,,,,,,,,,,,,,,,,,,,,,,,,,,,,,,,,,,,,,
,,5f18ba940ce7b80d1875c975,65af53cbe8cf4b3e6d3334d6,2024-01-23_07h54.08.956,bars,2023.2.3,Win32,60.24096386,657b66ea316d21385b68909f,,,,,,,,,,,,,,,,,,,,,,,,,,,,,,,,,,,,,,,,,,281.3612,282.0277,left,0.6562,,282.0278,3,1,283.0265,0,15,15,15,1,4,8,3,9,,,,,,,,,,,,,,,,,,,,,,,,,,,,,,,,,,,,,,,,,
,,5f18ba940ce7b80d1875c975,65af53cbe8cf4b3e6d3334d6,2024-01-23_07h54.08.956,bars,2023.2.3,Win32,60.24096386,657b66ea316d21385b68909f,,,,,,,,,,,,,,,,,,,,,,,,,,,,,,,,,,,,,,,,,,283.0269,283.7936,right,0.7523,,283.7937,7,2,284.7915,0,16,16,16,1,6,6,7,7,,,,,,,,,,,,,,,,,,,,,,,,,,,,,,,,,,,,,,,,,
,,5f18ba940ce7b80d1875c975,65af53cbe8cf4b3e6d3334d6,2024-01-23_07h54.08.956,bars,2023.2.3,Win32,60.24096386,657b66ea316d21385b68909f,,,,,,,,,,,,,,,,,,,,,,,,,,,,,,,,,,,,,,,,,,284.7922,285.474,right,0.6744,,285.4741,5,2,286.4726,0,17,17,17,1,8,4,9,5,,,,,,,,,,,,,,,,,,,,,,,,,,,,,,,,,,,,,,,,,
,,5f18ba940ce7b80d1875c975,65af53cbe8cf4b3e6d3334d6,2024-01-23_07h54.08.956,bars,2023.2.3,Win32,60.24096386,657b66ea316d21385b68909f,,,,,,,,,,,,,,,,,,,,,,,,,,,,,,,,,,,,,,,,,,286.4729,287.1562,right,0.6756,,287.1563,1,2,288.1546,0,18,18,18,1,6,2,5,1,,,,,,,,,,,,,,,,,,,,,,,,,,,,,,,,,,,,,,,,,
,,5f18ba940ce7b80d1875c975,65af53cbe8cf4b3e6d3334d6,2024-01-23_07h54.08.956,bars,2023.2.3,Win32,60.24096386,657b66ea316d21385b68909f,,,,,,,,,,,,,,,,,,,,,,,,,,,,,,,,,,,,,,,,,,288.1549,288.5877,left,0.4172,,288.5877,7,1,289.5871,0,19,19,19,1,8,0,7,0,,,,,,,,,,,,,,,,,,,,,,,,,,,,,,,,,,,,,,,,,
,,5f18ba940ce7b80d1875c975,65af53cbe8cf4b3e6d3334d6,2024-01-23_07h54.08.956,bars,2023.2.3,Win32,60.24096386,657b66ea316d21385b68909f,,,,,,,,,,,,,,,,,,,,,,,,,,,,,,,,,,,,,,,,,,,,,,,,,,,,,,,,,,,,289.588,307.4881,space,17.8848,,,,,,,,,,,,,,,,,,,,,,,,,,,,,,,,,,,,,
,,5f18ba940ce7b80d1875c975,65af53cbe8cf4b3e6d3334d6,2024-01-23_07h54.08.956,bars,2023.2.3,Win32,60.24096386,657b66ea316d21385b68909f,,,,,,,,,,,315.8964,316.8757,,,317.3752,317.6251,,72,72,,,,,,,,,,,,,,,,bars/018.png,bars/mask009.png,,,,,,,,,,,,0,2,,,,,,,8,1,8,0,,,,,,307.5117,315.8648,space,8.3298,,316.876,317.3751,317.6254,327.0566,space,9.4109,,327.0569,78,18,328.057,328.0574,345.9082,space,17.8283,,0,0,0,0,1,150,90,,,,,,,,
,,5f18ba940ce7b80d1875c975,65af53cbe8cf4b3e6d3334d6,2024-01-23_07h54.08.956,bars,2023.2.3,Win32,60.24096386,657b66ea316d21385b68909f,,,,,,,,,,,345.923,346.9131,,,347.4129,347.662,,23,23,,,,,,,,,,,,,,,,bars/014.png,bars/mask008.png,,,,,,,,,,,,1,2,,,,,,,6,3,5,3,,,,,,,,,,,346.9132,347.4124,347.662,353.2737,space,5.5973,,353.2738,57,23,354.2724,354.2725,368.109,space,13.8012,,0,1,1,1,1,80,0,,,,,,,,
,,5f18ba940ce7b80d1875c975,65af53cbe8cf4b3e6d3334d6,2024-01-23_07h54.08.956,bars,2023.2.3,Win32,60.24096386,657b66ea316d21385b68909f,,,,,,,,,,,368.1234,369.1246,,,369.624,369.8738,,106,106,,,,,,,,,,,,,,,,bars/007.png,bars/mask003.png,,,,,,,,,,,,0,2,,,,,,,4,5,5,6,,,,,,,,,,,369.1246,369.624,369.874,376.5005,space,6.6115,,376.5005,69,51,377.4996,377.4996,384.6176,space,7.0885,,0,2,2,2,1,175,55,,,,,,,,
,,5f18ba940ce7b80d1875c975,65af53cbe8cf4b3e6d3334d6,2024-01-23_07h54.08.956,bars,2023.2.3,Win32,60.24096386,657b66ea316d21385b68909f,,,,,,,,,,,384.6331,385.6288,,,386.1303,386.3802,,44,44,,,,,,,,,,,,,,,,bars/007.png,bars/mask008.png,,,,,,,,,,,,1,2,,,,,,,6,3,6,2,,,,,,,,,,,385.6288,386.1303,386.3803,389.8132,space,3.4153,,389.8133,49,11,390.8051,390.8052,398.2132,space,7.3758,,0,3,3,3,1,175,55,,,,,,,,
,,5f18ba940ce7b80d1875c975,65af53cbe8cf4b3e6d3334d6,2024-01-23_07h54.08.956,bars,2023.2.3,Win32,60.24096386,657b66ea316d21385b68909f,,,,,,,,,,,398.2266,399.229,,,399.7296,399.9785,,44,44,,,,,,,,,,,,,,,,bars/014.png,bars/mask003.png,,,,,,,,,,,,0,1,,,,,,,8,1,6,0,,,,,,,,,,,399.2291,399.729,399.9786,404.7908,space,4.797,,404.7909,36,44,405.789,405.7891,412.1329,space,6.3054,,0,4,4,4,1,80,0,,,,,,,,
,,5f18ba940ce7b80d1875c975,65af53cbe8cf4b3e6d3334d6,2024-01-23_07h54.08.956,bars,2023.2.3,Win32,60.24096386,657b66ea316d21385b68909f,,,,,,,,,,,412.1456,413.1507,,,413.6338,413.8812,,150,150,,,,,,,,,,,,,,,,bars/027.png,bars/mask000.png,,,,,,,,,,,,0,1,,,,,,,10,3,10,3,,,,,,,,,,,413.1507,413.6338,413.8813,416.9622,space,3.0651,,416.9624,40,80,417.9603,417.9605,426.4692,space,8.4813,,0,5,5,5,1,110,50,,,,,,,,
,,5f18ba940ce7b80d1875c975,65af53cbe8cf4b3e6d3334d6,2024-01-23_07h54.08.956,bars,2023.2.3,Win32,60.24096386,657b66ea316d21385b68909f,,,,,,,,,,,426.4846,427.4845,,,427.9839,428.2339,,5,185,,,,,,,,,,,,,,,,bars/032.png,bars/mask005.png,,,,,,,,,,,,0,2,,,,,,,8,1,8,0,,,,,,,,,,,427.4846,427.9839,428.234,434.1954,space,5.9445,,434.1955,60,15,435.1935,435.1936,439.4887,space,4.255,,0,6,6,6,1,125,20,,,,,,,,
,,5f18ba940ce7b80d1875c975,65af53cbe8cf4b3e6d3334d6,2024-01-23_07h54.08.956,bars,2023.2.3,Win32,60.24096386,657b66ea316d21385b68909f,,,,,,,,,,,439.505,440.5045,,,441.0038,441.2531,,167,-13,,,,,,,,,,,,,,,,bars/015.png,bars/mask005.png,,,,,,,,,,,,0,2,,,,,,,6,0,6,0,,,,,,,,,,,440.5047,441.0038,441.2532,445.2668,space,3.9965,,445.2669,57,7,446.2653,446.2653,450.1286,space,3.8352,,0,7,7,7,1,110,160,,,,,,,,
,,5f18ba940ce7b80d1875c975,65af53cbe8cf4b3e6d3334d6,2024-01-23_07h54.08.956,bars,2023.2.3,Win32,60.24096386,657b66ea316d21385b68909f,,,,,,,,,,,450.1418,451.1443,,,451.6434,451.8963,,82,82,,,,,,,,,,,,,,,,bars/026.png,bars/mask008.png,,,,,,,,,,,,0,2,,,,,,,4,0,6,0,,,,,,,,,,,451.1444,451.6434,451.8963,455.9732,space,4.0615,,455.9733,47,3,456.9723,456.9723,461.0685,space,4.0658,,0,8,8,8,1,35,85,,,,,,,,
,,5f18ba940ce7b80d1875c975,65af53cbe8cf4b3e6d3334d6,2024-01-23_07h54.08.956,bars,2023.2.3,Win32,60.24096386,657b66ea316d21385b68909f,,,,,,,,,,,461.0813,462.084,,,462.5835,462.8334,,29,29,,,,,,,,,,,,,,,,bars/041.png,bars/mask005.png,,,,,,,,,,,,4,1,,,,,,,6,0,6,0,,,,,,,,,,,462.084,462.5835,462.8335,466.6298,space,3.7804,,466.6298,9,56,467.6289,467.6289,470.842,space,3.1794,,0,9,9,9,1,20,85,,,,,,,,
,,5f18ba940ce7b80d1875c975,65af53cbe8cf4b3e6d3334d6,2024-01-23_07h54.08.956,bars,2023.2.3,Win32,60.24096386,657b66ea316d21385b68909f,,,,,,,,,,,470.8555,471.8587,,,472.3576,472.6071,,148,-32,,,,,,,,,,,,,,,,bars/038.png,bars/mask000.png,,,,,,,,,,,,3,1,,,,,,,8,2,8,3,,,,,,,,,,,471.8587,472.3575,472.6071,480.1827,space,7.5639,,480.1828,17,78,481.1815,481.1816,490.4743,space,9.2668,,0,10,10,10,1,165,70,,,,,,,,
,,5f18ba940ce7b80d1875c975,65af53cbe8cf4b3e6d3334d6,2024-01-23_07h54.08.956,bars,2023.2.3,Win32,60.24096386,657b66ea316d21385b68909f,,,,,,,,,,,490.4883,491.4886,,,491.988,492.2378,,104,104,,,,,,,,,,,,,,,,bars/024.png,bars/mask008.png,,,,,,,,,,,,3,1,,,,,,,6,0,7,0,,,,,,,,,,,491.4887,491.988,492.2378,496.5668,space,4.3138,,496.5669,16,66,497.5658,497.5659,503.1937,space,5.5955,,0,11,11,11,1,120,170,,,,,,,,
,,5f18ba940ce7b80d1875c975,65af53cbe8cf4b3e6d3334d6,2024-01-23_07h54.08.956,bars,2023.2.3,Win32,60.24096386,657b66ea316d21385b68909f,,,,,,,,,,,503.2071,504.209,,,504.7089,504.9586,,171,-9,,,,,,,,,,,,,,,,bars/021.png,bars/mask000.png,,,,,,,,,,,,2,1,,,,,,,4,2,5,2,,,,,,,,,,,504.209,504.7089,504.9587,508.2889,space,3.3203,,508.2889,16,79,509.288,509.288,514.3663,space,5.0536,,0,12,12,12,1,155,70,,,,,,,,
,,5f18ba940ce7b80d1875c975,65af53cbe8cf4b3e6d3334d6,2024-01-23_07h54.08.956,bars,2023.2.3,Win32,60.24096386,657b66ea316d21385b68909f,,,,,,,,,,,514.38,515.3815,,,515.8816,516.1332,,131,131,,,,,,,,,,,,,,,,bars/002.png,bars/mask003.png,,,,,,,,,,,,7,1,,,,,,,6,0,7,0,,,,,,,,,,,515.3816,515.8816,516.1333,523.1252,space,6.9767,,523.1253,1,46,524.1231,524.1232,527.187,space,3.0292,,0,13,13,13,1,130,85,,,,,,,,
,,5f18ba940ce7b80d1875c975,65af53cbe8cf4b3e6d3334d6,2024-01-23_07h54.08.956,bars,2023.2.3,Win32,60.24096386,657b66ea316d21385b68909f,,,,,,,,,,,527.1875,528.1859,,,528.6847,528.9346,,4,4,,,,,,,,,,,,,,,,bars/041.png,bars/mask000.png,,,,,,,,,,,,3,1,,,,,,,8,2,7,2,,,,,,,,,,,528.1859,528.6846,528.9347,533.4978,space,4.5478,,533.4979,16,81,534.4965,534.4967,537.5767,space,3.0497,,0,14,14,14,1,20,85,,,,,,,,
,,5f18ba940ce7b80d1875c975,65af53cbe8cf4b3e6d3334d6,2024-01-23_07h54.08.956,bars,2023.2.3,Win32,60.24096386,657b66ea316d21385b68909f,,,,,,,,,,,537.5906,538.5922,,,539.0918,539.3416,,108,108,,,,,,,,,,,,,,,,bars/002.png,bars/mask007.png,,,,,,,,,,,,3,1,,,,,,,10,4,10,6,,,,,,,,,,,538.5923,539.0918,539.3417,544.0372,space,4.6807,,544.0373,22,23,545.036,545.0361,547.2175,space,2.1535,,0,15,15,15,1,130,85,,,,,,,,
,,5f18ba940ce7b80d1875c975,65af53cbe8cf4b3e6d3334d6,2024-01-23_07h54.08.956,bars,2023.2.3,Win32,60.24096386,657b66ea316d21385b68909f,,,,,,,,,,,547.218,548.2079,,,548.7087,548.9487,,154,154,,,,,,,,,,,,,,,,bars/038.png,bars/mask000.png,,,,,,,,,,,,6,1,,,,,,,10,2,10,2,,,,,,,,,,,548.2079,548.7087,548.9488,552.0127,space,3.0484,,552.0128,11,84,553.0116,553.0116,554.7933,space,1.7521,,0,16,16,16,1,165,70,,,,,,,,
,,5f18ba940ce7b80d1875c975,65af53cbe8cf4b3e6d3334d6,2024-01-23_07h54.08.956,bars,2023.2.3,Win32,60.24096386,657b66ea316d21385b68909f,,,,,,,,,,,554.7938,555.792,,,556.2916,556.5415,,27,207,,,,,,,,,,,,,,,,bars/026.png,bars/mask009.png,,,,,,,,,,,,4,1,,,,,,,8,0,6,0,,,,,,,,,,,555.7921,556.2916,556.5416,562.619,space,6.0621,,562.6191,8,58,563.6178,563.6179,565.7333,space,2.0796,,0,17,17,17,1,35,85,,,,,,,,
,,5f18ba940ce7b80d1875c975,65af53cbe8cf4b3e6d3334d6,2024-01-23_07h54.08.956,bars,2023.2.3,Win32,60.24096386,657b66ea316d21385b68909f,,,,,,,,,,,565.7338,566.7316,,,567.2311,567.4807,,105,105,,,,,,,,,,,,,,,,bars/002.png,bars/mask008.png,,,,,,,,,,,,1,2,,,,,,,10,2,10,3,,,,,,,,,,,566.7316,567.2311,567.4808,570.844,space,3.3527,,570.844,25,20,571.843,571.8431,573.6421,space,1.761,,0,18,18,18,1,130,85,,,,,,,,
,,5f18ba940ce7b80d1875c975,65af53cbe8cf4b3e6d3334d6,2024-01-23_07h54.08.956,bars,2023.2.3,Win32,60.24096386,657b66ea316d21385b68909f,,,,,,,,,,,573.6429,574.64,,,575.1412,575.3894,,71,71,,,,,,,,,,,,,,,,bars/008.png,bars/mask008.png,,,,,,,,,,,,0,1,,,,,,,10,4,10,7,,,,,,,,,,,574.64,575.1412,575.3894,580.2181,space,4.8141,,580.2182,39,71,581.2173,581.2174,583.0669,space,1.8163,,0,19,19,19,1,110,0,,,,,,,,
,,5f18ba940ce7b80d1875c975,65af53cbe8cf4b3e6d3334d6,2024-01-23_07h54.08.956,bars,2023.2.3,Win32,60.24096386,657b66ea316d21385b68909f,,,,,,,,,,,583.0672,584.0642,,,584.5638,584.8136,,125,125,,,,,,,,,,,,,,,,bars/034.png,bars/mask007.png,,,,,,,,,,,,8,1,,,,,,,8,6,8,5,,,,,,,,,,,584.0643,584.5638,584.8137,591.1743,space,6.345,,591.1745,0,60,592.1731,592.1732,595.5532,space,3.3484,,0,20,20,20,1,125,65,,,,,,,,
,,5f18ba940ce7b80d1875c975,65af53cbe8cf4b3e6d3334d6,2024-01-23_07h54.08.956,bars,2023.2.3,Win32,60.24096386,657b66ea316d21385b68909f,,,,,,,,,,,595.5676,596.5689,,,597.0684,597.3185,,106,106,,,,,,,,,,,,,,,,bars/029.png,bars/mask006.png,,,,,,,,,,,,3,1,,,,,,,6,8,6,8,,,,,,,,,,,596.5689,597.0683,597.3186,600.049,space,2.7147,,600.0491,16,61,601.0476,601.0477,602.7966,space,1.7165,,0,21,21,21,1,90,45,,,,,,,,
,,5f18ba940ce7b80d1875c975,65af53cbe8cf4b3e6d3334d6,2024-01-23_07h54.08.956,bars,2023.2.3,Win32,60.24096386,657b66ea316d21385b68909f,,,,,,,,,,,602.7974,603.7948,,,604.2947,604.5444,,32,32,,,,,,,,,,,,,,,,bars/007.png,bars/mask005.png,,,,,,,,,,,,2,2,,,,,,,4,6,4,7,,,,,,,,,,,603.7948,604.2947,604.5445,608.6264,space,4.0726,,608.6266,37,23,609.6227,609.6227,611.6707,space,2.01,,0,22,22,22,1,175,55,,,,,,,,
,,5f18ba940ce7b80d1875c975,65af53cbe8cf4b3e6d3334d6,2024-01-23_07h54.08.956,bars,2023.2.3,Win32,60.24096386,657b66ea316d21385b68909f,,,,,,,,,,,611.6711,612.6696,,,613.1691,613.4187,,110,110,,,,,,,,,,,,,,,,bars/025.png,bars/mask002.png,,,,,,,,,,,,6,1,,,,,,,6,4,7,4,,,,,,,,,,,612.6697,613.169,613.4188,620.5122,space,7.0779,,620.5124,5,70,621.511,621.511,623.0933,space,1.5484,,0,23,23,23,1,105,40,,,,,,,,
,,5f18ba940ce7b80d1875c975,65af53cbe8cf4b3e6d3334d6,2024-01-23_07h54.08.956,bars,2023.2.3,Win32,60.24096386,657b66ea316d21385b68909f,,,,,,,,,,,623.0948,624.0935,,,624.5924,624.8411,,145,145,,,,,,,,,,,,,,,,bars/010.png,bars/mask009.png,,,,,,,,,,,,1,1,,,,,,,4,6,4,5,,,,,,,,,,,624.0935,624.5923,624.8413,627.5056,space,2.6497,,627.5057,20,90,628.5043,628.5043,629.6196,space,1.0878,,0,24,24,24,1,165,55,,,,,,,,
,,5f18ba940ce7b80d1875c975,65af53cbe8cf4b3e6d3334d6,2024-01-23_07h54.08.956,bars,2023.2.3,Win32,60.24096386,657b66ea316d21385b68909f,,,,,,,,,,,629.62,630.6185,,,631.1183,631.3679,,132,132,,,,,,,,,,,,,,,,bars/049.png,bars/mask008.png,,,,,,,,,,,,3,2,,,,,,,6,8,5,7,,,,,,,,,,,630.6185,631.1183,631.368,634.8319,space,3.4498,,634.832,28,17,635.8303,635.8303,637.7455,space,1.8849,,0,25,25,25,1,160,115,,,,,,,,
,,5f18ba940ce7b80d1875c975,65af53cbe8cf4b3e6d3334d6,2024-01-23_07h54.08.956,bars,2023.2.3,Win32,60.24096386,657b66ea316d21385b68909f,,,,,,,,,,,637.746,638.7441,,,639.2437,639.4932,,105,105,,,,,,,,,,,,,,,,bars/029.png,bars/mask003.png,,,,,,,,,,,,2,1,,,,,,,4,10,4,9,,,,,,,,,,,638.7441,639.2436,639.4933,645.8713,space,6.3629,,645.8714,15,60,646.8761,646.8762,648.917,space,2.0036,,0,26,26,26,1,90,45,,,,,,,,
,,5f18ba940ce7b80d1875c975,65af53cbe8cf4b3e6d3334d6,2024-01-23_07h54.08.956,bars,2023.2.3,Win32,60.24096386,657b66ea316d21385b68909f,,,,,,,,,,,648.9179,649.9159,,,650.4151,650.665,,129,129,,,,,,,,,,,,,,,,bars/046.png,bars/mask007.png,,,,,,,,,,,,1,1,,,,,,,6,10,6,10,,,,,,,,,,,649.9159,650.415,650.6651,653.1461,space,2.4645,,653.1462,26,44,654.1448,654.1449,655.1617,space,0.9848,,0,27,27,27,1,155,85,,,,,,,,
,,5f18ba940ce7b80d1875c975,65af53cbe8cf4b3e6d3334d6,2024-01-23_07h54.08.956,bars,2023.2.3,Win32,60.24096386,657b66ea316d21385b68909f,,,,,,,,,,,655.1623,656.1597,,,656.6593,656.9089,,108,108,,,,,,,,,,,,,,,,bars/030.png,bars/mask001.png,,,,,,,,,,,,0,1,,,,,,,4,8,4,9,,,,,,,,,,,656.1597,656.6593,656.909,659.706,space,2.7814,,659.7061,32,43,660.7052,660.7054,661.6542,space,0.9204,,0,28,28,28,1,140,65,,,,,,,,
,,5f18ba940ce7b80d1875c975,65af53cbe8cf4b3e6d3334d6,2024-01-23_07h54.08.956,bars,2023.2.3,Win32,60.24096386,657b66ea316d21385b68909f,,,,,,,,,,,661.6551,662.6532,,,663.153,663.4027,,139,139,,,,,,,,,,,,,,,,bars/018.png,bars/mask003.png,,,,,,,,,,,,4,1,,,,,,,6,10,6,10,,,,,,,,,,,662.6532,663.153,663.4027,667.2324,space,3.8152,,667.2324,11,49,668.2312,668.2313,669.4632,space,1.2021,,0,29,29,29,1,150,90,,,,,,,,
,,5f18ba940ce7b80d1875c975,65af53cbe8cf4b3e6d3334d6,2024-01-23_07h54.08.956,bars,2023.2.3,Win32,60.24096386,657b66ea316d21385b68909f,,,,,,,,,,,669.4641,670.462,,,670.9614,671.2117,,42,42,,,,,,,,,,,,,,,,bars/023.png,bars/mask006.png,,,,,,,,,,,,2,1,,,,,,,8,8,7,7,,,,,,,,,,,670.4621,670.9614,671.2117,674.8413,space,3.6143,,674.8415,22,73,675.8403,675.8404,677.8717,space,2.0005,,0,30,30,30,1,20,115,,,,,,,,
,,5f18ba940ce7b80d1875c975,65af53cbe8cf4b3e6d3334d6,2024-01-23_07h54.08.956,bars,2023.2.3,Win32,60.24096386,657b66ea316d21385b68909f,,,,,,,,,,,677.8729,678.8703,,,679.3702,679.6198,,25,25,,,,,,,,,,,,,,,,bars/023.png,bars/mask006.png,,,,,,,,,,,,8,1,,,,,,,10,6,10,8,,,,,,,,,,,678.8704,679.3702,679.6198,684.9481,space,5.3178,,684.9481,5,90,685.9475,685.9476,688.1458,space,2.1705,,0,31,31,31,1,20,115,,,,,,,,
,,5f18ba940ce7b80d1875c975,65af53cbe8cf4b3e6d3334d6,2024-01-23_07h54.08.956,bars,2023.2.3,Win32,60.24096386,657b66ea316d21385b68909f,,,,,,,,,,,688.1465,689.1441,,,689.6434,689.8933,,103,103,,,,,,,,,,,,,,,,bars/034.png,bars/mask002.png,,,,,,,,,,,,2,1,,,,,,,8,8,8,8,,,,,,,,,,,689.1441,689.6432,689.8934,695.574,space,5.6701,,695.5741,22,38,696.57,696.5701,697.688,space,1.0912,,0,32,32,32,1,125,65,,,,,,,,
,,5f18ba940ce7b80d1875c975,65af53cbe8cf4b3e6d3334d6,2024-01-23_07h54.08.956,bars,2023.2.3,Win32,60.24096386,657b66ea316d21385b68909f,,,,,,,,,,,697.6883,698.6846,,,699.1844,699.4337,,53,53,,,,,,,,,,,,,,,,bars/033.png,bars/mask008.png,,,,,,,,,,,,0,1,,,,,,,6,10,6,8,,,,,,,,,,,698.6847,699.1843,699.4338,704.2789,space,4.8311,,704.2789,28,78,705.2778,705.2779,706.3359,space,1.0306,,0,33,33,33,1,25,155,,,,,,,,
,,5f18ba940ce7b80d1875c975,65af53cbe8cf4b3e6d3334d6,2024-01-23_07h54.08.956,bars,2023.2.3,Win32,60.24096386,657b66ea316d21385b68909f,,,,,,,,,,,706.3366,707.3351,,,707.8345,708.0818,,42,42,,,,,,,,,,,,,,,,bars/041.png,bars/mask007.png,,,,,,,,,,,,1,1,,,,,,,4,10,3,8,,,,,,,,,,,707.3351,707.8343,708.0818,711.2149,space,3.1143,,711.215,22,43,712.2138,712.2138,713.1373,space,0.8952,,0,34,34,34,1,20,85,,,,,,,,
,,5f18ba940ce7b80d1875c975,65af53cbe8cf4b3e6d3334d6,2024-01-23_07h54.08.956,bars,2023.2.3,Win32,60.24096386,657b66ea316d21385b68909f,,,,,,,,,,,713.1382,714.1367,,,714.6359,714.886,,42,42,,,,,,,,,,,,,,,,bars/043.png,bars/mask004.png,,,,,,,,,,,,3,1,,,,,,,6,8,5,8,,,,,,,,,,,714.1367,714.6359,714.8861,717.9196,space,3.0226,,717.9196,12,88,718.9145,718.9145,720.4247,space,1.4831,,0,35,35,35,1,30,130,,,,,,,,
,,5f18ba940ce7b80d1875c975,65af53cbe8cf4b3e6d3334d6,2024-01-23_07h54.08.956,bars,2023.2.3,Win32,60.24096386,657b66ea316d21385b68909f,,,,,,,,,,,720.4252,721.42,,,721.9205,722.1706,,107,107,,,,,,,,,,,,,,,,bars/031.png,bars/mask006.png,,,,,,,,,,,,5,1,,,,,,,8,10,9,10,,,,,,,,,,,721.42,721.9204,722.1706,727.7328,space,5.5459,,727.7328,13,72,728.7304,728.7305,729.7577,space,0.9973,,0,36,36,36,1,120,35,,,,,,,,
,,5f18ba940ce7b80d1875c975,65af53cbe8cf4b3e6d3334d6,2024-01-23_07h54.08.956,bars,2023.2.3,Win32,60.24096386,657b66ea316d21385b68909f,,,,,,,,,,,729.7581,730.7533,,,731.2528,731.5027,,54,54,,,,,,,,,,,,,,,,bars/043.png,bars/mask009.png,,,,,,,,,,,,2,1,,,,,,,10,10,10,10,,,,,,,,,,,730.7533,731.2527,731.5027,737.4308,space,5.9112,,737.4309,24,76,738.4291,738.4291,739.2451,space,0.7895,,0,37,37,37,1,30,130,,,,,,,,
,,5f18ba940ce7b80d1875c975,65af53cbe8cf4b3e6d3334d6,2024-01-23_07h54.08.956,bars,2023.2.3,Win32,60.24096386,657b66ea316d21385b68909f,,,,,,,,,,,739.246,740.2439,,,740.7435,740.993,,27,27,,,,,,,,,,,,,,,,bars/004.png,bars/mask005.png,,,,,,,,,,,,7,1,,,,,,,8,10,7,10,,,,,,,,,,,740.2439,740.7434,740.9931,744.1731,space,3.1637,,744.1732,2,82,745.1723,745.1724,746.5378,space,1.3267,,0,38,38,38,1,25,125,,,,,,,,
,,5f18ba940ce7b80d1875c975,65af53cbe8cf4b3e6d3334d6,2024-01-23_07h54.08.956,bars,2023.2.3,Win32,60.24096386,657b66ea316d21385b68909f,,,,,,,,,,,746.5388,747.5364,,,748.0363,748.2859,,50,50,,,,,,,,,,,,,,,,bars/037.png,bars/mask007.png,,,,,,,,,,,,0,2,,,,,,,10,8,9,9,,,,,,,,,,,747.5364,748.0363,748.286,752.0358,space,3.7387,,752.0358,80,55,753.0315,753.0316,754.6876,space,1.6281,,0,39,39,39,1,150,105,,,,,,,,
,,5f18ba940ce7b80d1875c975,65af53cbe8cf4b3e6d3334d6,2024-01-23_07h54.08.956,bars,2023.2.3,Win32,60.24096386,657b66ea316d21385b68909f,,,,,,,,,,,754.6883,755.6875,,,756.1871,756.4375,,46,46,,,,,,,,,,,,,,,,bars/005.png,bars/mask005.png,,,,,,,,,,,,0,1,,,,,,,8,6,7,6,,,,,,,,,,,755.6876,756.187,756.4376,761.5669,space,5.1132,,761.5671,36,86,762.5638,762.564,763.3553,space,0.7435,,0,40,40,40,1,10,140,,,,,,,,
,,5f18ba940ce7b80d1875c975,65af53cbe8cf4b3e6d3334d6,2024-01-23_07h54.08.956,bars,2023.2.3,Win32,60.24096386,657b66ea316d21385b68909f,,,,,,,,,,,763.3558,764.3547,,,764.8543,765.1036,,101,101,,,,,,,,,,,,,,,,bars/034.png,bars/mask001.png,,,,,,,,,,,,1,1,,,,,,,6,4,6,4,,,,,,,,,,,764.3547,764.8543,765.1036,768.1344,space,3.0202,,768.1345,24,36,769.1341,769.1341,769.8673,space,0.6968,,0,41,41,41,1,125,65,,,,,,,,
,,5f18ba940ce7b80d1875c975,65af53cbe8cf4b3e6d3334d6,2024-01-23_07h54.08.956,bars,2023.2.3,Win32,60.24096386,657b66ea316d21385b68909f,,,,,,,,,,,769.8677,770.8644,,,771.3654,771.6136,,142,142,,,,,,,,,,,,,,,,bars/011.png,bars/mask006.png,,,,,,,,,,,,1,1,,,,,,,4,2,3,3,,,,,,,,,,,770.8644,771.3653,771.6136,774.2448,space,2.6164,,774.2449,18,57,775.2436,775.2437,776.0597,space,0.7821,,0,42,42,42,1,160,85,,,,,,,,
,,5f18ba940ce7b80d1875c975,65af53cbe8cf4b3e6d3334d6,2024-01-23_07h54.08.956,bars,2023.2.3,Win32,60.24096386,657b66ea316d21385b68909f,,,,,,,,,,,776.0601,777.0591,,,777.5578,777.8085,,65,65,,,,,,,,,,,,,,,,bars/041.png,bars/mask007.png,,,,,,,,,,,,0,2,,,,,,,6,0,6,0,,,,,,,,,,,777.0591,777.5578,777.8086,782.903,space,5.0806,,782.903,45,20,783.9019,783.902,784.5861,space,0.6538,,0,43,43,43,1,20,85,,,,,,,,
,,5f18ba940ce7b80d1875c975,65af53cbe8cf4b3e6d3334d6,2024-01-23_07h54.08.956,bars,2023.2.3,Win32,60.24096386,657b66ea316d21385b68909f,,,,,,,,,,,784.5866,785.5835,,,786.0834,786.3326,,46,46,,,,,,,,,,,,,,,,bars/005.png,bars/mask009.png,,,,,,,,,,,,0,1,,,,,,,4,2,2,2,,,,,,,,,,,785.5835,786.0834,786.3327,792.2775,space,5.9285,,792.2776,36,86,793.2768,793.2768,793.9752,space,0.6595,,0,44,44,44,1,10,140,,,,,,,,
,,5f18ba940ce7b80d1875c975,65af53cbe8cf4b3e6d3334d6,2024-01-23_07h54.08.956,bars,2023.2.3,Win32,60.24096386,657b66ea316d21385b68909f,,,,,,,,,,,793.9766,794.9744,,,795.4732,795.723,,131,131,,,,,,,,,,,,,,,,bars/020.png,bars/mask005.png,,,,,,,,,,,,0,1,,,,,,,2,0,1,1,,,,,,,,,,,794.9745,795.4732,795.723,799.136,space,3.4001,,799.136,16,39,800.1352,800.1352,801.8837,space,1.7192,,0,45,45,45,1,115,170,,,,,,,,
,,5f18ba940ce7b80d1875c975,65af53cbe8cf4b3e6d3334d6,2024-01-23_07h54.08.956,bars,2023.2.3,Win32,60.24096386,657b66ea316d21385b68909f,,,,,,,,,,,801.8847,802.8823,,,803.3825,803.6329,,117,117,,,,,,,,,,,,,,,,bars/014.png,bars/mask008.png,,,,,,,,,,,,0,1,,,,,,,0,2,0,2,,,,,,,,,,,802.8823,803.3824,803.6329,806.7623,space,3.1168,,806.7624,37,63,807.761,807.7611,808.9265,space,1.1348,,0,46,46,46,1,80,0,,,,,,,,
,,5f18ba940ce7b80d1875c975,65af53cbe8cf4b3e6d3334d6,2024-01-23_07h54.08.956,bars,2023.2.3,Win32,60.24096386,657b66ea316d21385b68909f,,,,,,,,,,,808.9273,809.9253,,,810.4248,810.6764,,171,171,,,,,,,,,,,,,,,,bars/046.png,bars/mask005.png,,,,,,,,,,,,1,1,,,,,,,2,4,3,4,,,,,,,,,,,809.9254,810.4247,810.6764,816.0703,space,5.3799,,816.0704,16,86,817.0686,817.0687,818.0277,space,0.9322,,0,47,47,47,1,155,85,,,,,,,,
,,5f18ba940ce7b80d1875c975,65af53cbe8cf4b3e6d3334d6,2024-01-23_07h54.08.956,bars,2023.2.3,Win32,60.24096386,657b66ea316d21385b68909f,,,,,,,,,,,818.0284,819.0251,,,819.5233,819.7744,,115,115,,,,,,,,,,,,,,,,bars/014.png,bars/mask007.png,,,,,,,,,,,,0,1,,,,,,,4,2,4,4,,,,,,,,,,,819.0252,819.5232,819.7745,823.6567,space,3.8656,,823.6573,35,65,824.6531,824.6531,825.3942,space,0.7084,,0,48,48,48,1,80,0,,,,,,,,
,,5f18ba940ce7b80d1875c975,65af53cbe8cf4b3e6d3334d6,2024-01-23_07h54.08.956,bars,2023.2.3,Win32,60.24096386,657b66ea316d21385b68909f,,,,,,,,,,,825.395,826.3929,,,826.8924,827.1432,,60,-120,,,,,,,,,,,,,,,,bars/008.png,bars/mask009.png,,,,,,,,,,,,0,1,,,,,,,6,4,7,3,,,,,,,,,,,826.3929,826.8924,827.1432,833.053,space,5.8976,,833.053,50,60,834.0521,834.0521,835.2846,space,1.2014,,0,49,49,49,1,110,0,,,,,,,,
,,5f18ba940ce7b80d1875c975,65af53cbe8cf4b3e6d3334d6,2024-01-23_07h54.08.956,bars,2023.2.3,Win32,60.24096386,657b66ea316d21385b68909f,,,,,,,,,,,,,,,,,,,,,,,,,,,,,,,,,,,,,,,,,,,,,,,,,,,,,,,,,,,,,,,,,,,,,,,,,,,,,,,,,,,,,,,,,,,,,835.2871,895.2766,0,0,0,3,1,sequence_tables/blk025.csv
,,5f18ba940ce7b80d1875c975,65af53cbe8cf4b3e6d3334d6,2024-01-23_07h54.08.956,bars,2023.2.3,Win32,60.24096386,657b66ea316d21385b68909f,,,,,,,,,,,897.5837,898.5729,,,899.0724,899.3218,,105,105,,,,,,,,,,,,,,,,bars/013.png,bars/mask001.png,,,,,,,,,,,,0,1,,,,,,,10,2,10,0,,,,,,895.2903,897.5761,space,2.2745,,898.573,899.0722,899.3219,904.0175,space,4.6789,,904.0176,30,85,905.0161,905.0162,905.0302,,,,0,0,0,0,1,75,10,,,,,,,,
,,5f18ba940ce7b80d1875c975,65af53cbe8cf4b3e6d3334d6,2024-01-23_07h54.08.956,bars,2023.2.3,Win32,60.24096386,657b66ea316d21385b68909f,,,,,,,,,,,905.0306,906.0324,,,906.5315,906.7816,,110,110,,,,,,,,,,,,,,,,bars/028.png,bars/mask002.png,,,,,,,,,,,,1,2,,,,,,,10,0,10,1,,,,,,,,,,,906.0325,906.5314,906.7816,915.5563,space,8.759,,915.5564,65,10,916.5551,916.5551,916.5739,,,,0,1,1,1,1,45,120,,,,,,,,
,,5f18ba940ce7b80d1875c975,65af53cbe8cf4b3e6d3334d6,2024-01-23_07h54.08.956,bars,2023.2.3,Win32,60.24096386,657b66ea316d21385b68909f,,,,,,,,,,,916.5742,917.5708,,,918.0708,918.3197,,177,-3,,,,,,,,,,,,,,,,bars/010.png,bars/mask006.png,,,,,,,,,,,,5,1,,,,,,,8,2,8,0,,,,,,,,,,,917.5708,918.0707,918.3197,921.4683,space,3.1404,,921.4684,12,58,922.4658,922.4659,922.484,,,,0,2,2,2,1,165,55,,,,,,,,
,,5f18ba940ce7b80d1875c975,65af53cbe8cf4b3e6d3334d6,2024-01-23_07h54.08.956,bars,2023.2.3,Win32,60.24096386,657b66ea316d21385b68909f,,,,,,,,,,,922.4843,923.4825,,,923.9815,924.2309,,19,199,,,,,,,,,,,,,,,,bars/003.png,bars/mask003.png,,,,,,,,,,,,5,1,,,,,,,6,0,6,0,,,,,,,,,,,923.4825,923.9814,924.231,927.3444,space,3.0983,,927.3445,6,59,928.3435,928.3435,928.3572,,,,0,3,3,3,1,25,140,,,,,,,,
,,5f18ba940ce7b80d1875c975,65af53cbe8cf4b3e6d3334d6,2024-01-23_07h54.08.956,bars,2023.2.3,Win32,60.24096386,657b66ea316d21385b68909f,,,,,,,,,,,928.3576,929.3591,,,929.8596,930.1084,,162,-18,,,,,,,,,,,,,,,,bars/040.png,bars/mask006.png,,,,,,,,,,,,2,1,,,,,,,8,0,8,0,,,,,,,,,,,929.3592,929.8595,930.1084,934.1383,space,4.0148,,934.1383,22,23,935.1371,935.1371,935.1559,,,,0,4,4,4,1,140,5,,,,,,,,
,,5f18ba940ce7b80d1875c975,65af53cbe8cf4b3e6d3334d6,2024-01-23_07h54.08.956,bars,2023.2.3,Win32,60.24096386,657b66ea316d21385b68909f,,,,,,,,,,,935.1564,936.1523,,,936.6517,936.9021,,151,151,,,,,,,,,,,,,,,,bars/049.png,bars/mask006.png,,,,,,,,,,,,5,1,,,,,,,6,2,7,3,,,,,,,,,,,936.1523,936.6516,936.9022,942.4303,space,5.5124,,942.4304,9,36,943.4285,943.4286,943.4457,,,,0,5,5,5,1,160,115,,,,,,,,
,,5f18ba940ce7b80d1875c975,65af53cbe8cf4b3e6d3334d6,2024-01-23_07h54.08.956,bars,2023.2.3,Win32,60.24096386,657b66ea316d21385b68909f,,,,,,,,,,,943.446,944.4447,,,944.9435,945.1936,,135,135,,,,,,,,,,,,,,,,bars/008.png,bars/mask002.png,,,,,,,,,,,,1,1,,,,,,,8,4,6,3,,,,,,,,,,,944.4448,944.9434,945.1937,949.8901,space,4.6801,,949.8903,25,45,950.8882,950.8883,950.9059,,,,0,6,6,6,1,110,0,,,,,,,,
,,5f18ba940ce7b80d1875c975,65af53cbe8cf4b3e6d3334d6,2024-01-23_07h54.08.956,bars,2023.2.3,Win32,60.24096386,657b66ea316d21385b68909f,,,,,,,,,,,950.9062,951.9043,,,952.4033,952.653,,177,-3,,,,,,,,,,,,,,,,bars/007.png,bars/mask008.png,,,,,,,,,,,,6,1,,,,,,,6,2,6,3,,,,,,,,,,,951.9044,952.4033,952.6531,958.0159,space,5.3534,,958.0161,2,58,959.0135,959.0135,959.0308,,,,0,7,7,7,1,175,55,,,,,,,,
,,5f18ba940ce7b80d1875c975,65af53cbe8cf4b3e6d3334d6,2024-01-23_07h54.08.956,bars,2023.2.3,Win32,60.24096386,657b66ea316d21385b68909f,,,,,,,,,,,959.0313,960.0301,,,960.5287,960.7781,,24,24,,,,,,,,,,,,,,,,bars/023.png,bars/mask004.png,,,,,,,,,,,,7,1,,,,,,,8,0,8,0,,,,,,,,,,,960.0301,960.5286,960.7782,964.1755,space,3.3812,,964.1757,4,89,965.1738,965.1738,965.1873,,,,0,8,8,8,1,20,115,,,,,,,,
,,5f18ba940ce7b80d1875c975,65af53cbe8cf4b3e6d3334d6,2024-01-23_07h54.08.956,bars,2023.2.3,Win32,60.24096386,657b66ea316d21385b68909f,,,,,,,,,,,965.1876,966.1902,,,966.689,966.9394,,112,112,,,,,,,,,,,,,,,,bars/022.png,bars/mask003.png,,,,,,,,,,,,3,1,,,,,,,6,0,7,0,,,,,,,,,,,966.1903,966.6889,966.9395,972.3185,space,5.3655,,972.3186,17,88,973.3162,973.3163,973.3301,,,,0,9,9,9,1,95,20,,,,,,,,
,,5f18ba940ce7b80d1875c975,65af53cbe8cf4b3e6d3334d6,2024-01-23_07h54.08.956,bars,2023.2.3,Win32,60.24096386,657b66ea316d21385b68909f,,,,,,,,,,,973.3303,974.3328,,,974.8312,975.0807,,123,123,,,,,,,,,,,,,,,,bars/015.png,bars/mask004.png,,,,,,,,,,,,4,1,,,,,,,8,2,7,2,,,,,,,,,,,974.3328,974.8312,975.0807,979.6435,space,4.547,,979.6435,13,37,980.6423,980.6424,980.6566,,,,0,10,10,10,1,110,160,,,,,,,,
,,5f18ba940ce7b80d1875c975,65af53cbe8cf4b3e6d3334d6,2024-01-23_07h54.08.956,bars,2023.2.3,Win32,60.24096386,657b66ea316d21385b68909f,,,,,,,,,,,980.6579,981.6579,,,982.1576,982.4071,,124,124,,,,,,,,,,,,,,,,bars/036.png,bars/mask008.png,,,,,,,,,,,,2,1,,,,,,,6,4,6,3,,,,,,,,,,,981.658,982.1575,982.4072,986.5036,space,4.0804,,986.5036,21,76,987.5021,987.5022,987.5157,,,,0,11,11,11,1,145,20,,,,,,,,
,,5f18ba940ce7b80d1875c975,65af53cbe8cf4b3e6d3334d6,2024-01-23_07h54.08.956,bars,2023.2.3,Win32,60.24096386,657b66ea316d21385b68909f,,,,,,,,,,,987.516,988.5172,,,989.0174,989.2686,,29,209,,,,,,,,,,,,,,,,bars/021.png,bars/mask000.png,,,,,,,,,,,,0,2,,,,,,,4,2,4,0,,,,,,,,,,,988.5173,989.0173,989.2687,995.4279,space,6.1454,,995.4279,54,41,996.4271,996.4271,996.4445,,,,0,12,12,12,1,155,70,,,,,,,,
,,5f18ba940ce7b80d1875c975,65af53cbe8cf4b3e6d3334d6,2024-01-23_07h54.08.956,bars,2023.2.3,Win32,60.24096386,657b66ea316d21385b68909f,,,,,,,,,,,996.4448,997.4424,,,997.9423,998.1923,,121,121,,,,,,,,,,,,,,,,bars/012.png,bars/mask000.png,,,,,,,,,,,,0,1,,,,,,,2,4,2,4,,,,,,,,,,,997.4424,997.9423,998.1924,1001.6549,space,3.4479,,1001.655,31,74,1002.654,1002.654,1002.6704,,,,0,13,13,13,1,90,15,,,,,,,,
,,5f18ba940ce7b80d1875c975,65af53cbe8cf4b3e6d3334d6,2024-01-23_07h54.08.956,bars,2023.2.3,Win32,60.24096386,657b66ea316d21385b68909f,,,,,,,,,,,1002.6708,1003.6696,,,1004.169,1004.4187,,172,172,,,,,,,,,,,,,,,,bars/049.png,bars/mask004.png,,,,,,,,,,,,0,1,,,,,,,0,2,0,0,,,,,,,,,,,1003.6697,1004.169,1004.4188,1008.8313,space,4.3976,,1008.8314,12,57,1009.8303,1009.8304,1009.846,,,,0,14,14,14,1,160,115,,,,,,,,
,,5f18ba940ce7b80d1875c975,65af53cbe8cf4b3e6d3334d6,2024-01-23_07h54.08.956,bars,2023.2.3,Win32,60.24096386,657b66ea316d21385b68909f,,,,,,,,,,,1009.8466,1010.8456,,,1011.3456,1011.5951,,132,132,,,,,,,,,,,,,,,,bars/031.png,bars/mask004.png,,,,,,,,,,,,0,1,,,,,,,0,4,0,3,,,,,,,,,,,1010.8457,1011.3456,1011.5953,1014.7016,space,3.0979,,1014.7016,12,83,1015.6908,1015.6909,1015.7051,,,,0,15,15,15,1,120,35,,,,,,,,
,,5f18ba940ce7b80d1875c975,65af53cbe8cf4b3e6d3334d6,2024-01-23_07h54.08.956,bars,2023.2.3,Win32,60.24096386,657b66ea316d21385b68909f,,,,,,,,,,,1015.7054,1016.7065,,,1017.207,1017.4562,,29,209,,,,,,,,,,,,,,,,bars/005.png,bars/mask002.png,,,,,,,,,,,,1,1,,,,,,,2,2,3,3,,,,,,,,,,,1016.7066,1017.2069,1017.4562,1023.8667,space,6.395,,1023.8668,19,69,1024.8654,1024.8654,1024.8802,,,,0,16,16,16,1,10,140,,,,,,,,
,,5f18ba940ce7b80d1875c975,65af53cbe8cf4b3e6d3334d6,2024-01-23_07h54.08.956,bars,2023.2.3,Win32,60.24096386,657b66ea316d21385b68909f,,,,,,,,,,,1024.8813,1025.8813,,,1026.3805,1026.6298,,156,156,,,,,,,,,,,,,,,,bars/049.png,bars/mask006.png,,,,,,,,,,,,2,1,,,,,,,4,4,2,4,,,,,,,,,,,1025.8813,1026.3804,1026.6299,1029.1613,space,2.5143,,1029.1614,4,41,1030.1606,1030.1606,1030.1746,,,,0,17,17,17,1,160,115,,,,,,,,
,,5f18ba940ce7b80d1875c975,65af53cbe8cf4b3e6d3334d6,2024-01-23_07h54.08.956,bars,2023.2.3,Win32,60.24096386,657b66ea316d21385b68909f,,,,,,,,,,,1030.1749,1031.1758,,,1031.676,1031.9256,,147,147,,,,,,,,,,,,,,,,bars/038.png,bars/mask000.png,,,,,,,,,,,,3,1,,,,,,,6,2,7,3,,,,,,,,,,,1031.1758,1031.6759,1031.9256,1036.2213,space,4.281,,1036.2214,18,77,1037.2201,1037.2202,1037.2342,,,,0,18,18,18,1,165,70,,,,,,,,
,,5f18ba940ce7b80d1875c975,65af53cbe8cf4b3e6d3334d6,2024-01-23_07h54.08.956,bars,2023.2.3,Win32,60.24096386,657b66ea316d21385b68909f,,,,,,,,,,,1037.2345,1038.2403,,,1038.7368,1038.9855,,123,-57,,,,,,,,,,,,,,,,bars/020.png,bars/mask002.png,,,,,,,,,,,,2,1,,,,,,,4,4,3,6,,,,,,,,,,,1038.2403,1038.7368,1038.9855,1043.9131,space,4.9006,,1043.9132,8,47,1044.9123,1044.9123,1044.9282,,,,0,19,19,19,1,115,170,,,,,,,,
,,5f18ba940ce7b80d1875c975,65af53cbe8cf4b3e6d3334d6,2024-01-23_07h54.08.956,bars,2023.2.3,Win32,60.24096386,657b66ea316d21385b68909f,,,,,,,,,,,1044.9287,1045.9285,,,1046.4275,1046.6774,,60,60,,,,,,,,,,,,,,,,bars/025.png,bars/mask004.png,,,,,,,,,,,,1,2,,,,,,,6,2,6,2,,,,,,,,,,,1045.9287,1046.4275,1046.6775,1050.5594,space,3.8726,,1050.5595,45,20,1051.5565,1051.5565,1051.5715,,,,0,20,20,20,1,105,40,,,,,,,,
,,5f18ba940ce7b80d1875c975,65af53cbe8cf4b3e6d3334d6,2024-01-23_07h54.08.956,bars,2023.2.3,Win32,60.24096386,657b66ea316d21385b68909f,,,,,,,,,,,1051.5722,1052.5718,,,1053.0713,1053.3206,,27,27,,,,,,,,,,,,,,,,bars/019.png,bars/mask009.png,,,,,,,,,,,,4,1,,,,,,,8,4,10,7,,,,,,,,,,,1052.5719,1053.0712,1053.3206,1059.5651,space,6.2283,,1059.5651,18,78,1060.564,1060.5641,1060.5809,,,,0,21,21,21,1,45,105,,,,,,,,
,,5f18ba940ce7b80d1875c975,65af53cbe8cf4b3e6d3334d6,2024-01-23_07h54.08.956,bars,2023.2.3,Win32,60.24096386,657b66ea316d21385b68909f,,,,,,,,,,,1060.5813,1061.5793,,,1062.0791,1062.3288,,18,18,,,,,,,,,,,,,,,,bars/040.png,bars/mask007.png,,,,,,,,,,,,3,2,,,,,,,10,6,10,6,,,,,,,,,,,1061.5794,1062.079,1062.3289,1066.7929,space,4.4552,,1066.7932,58,13,1067.7903,1067.7904,1067.8072,,,,0,22,22,22,1,140,5,,,,,,,,
,,5f18ba940ce7b80d1875c975,65af53cbe8cf4b3e6d3334d6,2024-01-23_07h54.08.956,bars,2023.2.3,Win32,60.24096386,657b66ea316d21385b68909f,,,,,,,,,,,1067.8079,1068.806,,,1069.3053,1069.5551,,30,30,,,,,,,,,,,,,,,,bars/000.png,bars/mask009.png,,,,,,,,,,,,5,1,,,,,,,8,4,8,3,,,,,,,,,,,1068.8061,1069.3052,1069.5551,1072.752,space,3.1804,,1072.7521,10,65,1073.7507,1073.7507,1073.7685,,,,0,23,23,23,1,40,145,,,,,,,,
,,5f18ba940ce7b80d1875c975,65af53cbe8cf4b3e6d3334d6,2024-01-23_07h54.08.956,bars,2023.2.3,Win32,60.24096386,657b66ea316d21385b68909f,,,,,,,,,,,1073.7689,1074.7665,,,1075.2661,1075.5158,,26,26,,,,,,,,,,,,,,,,bars/043.png,bars/mask001.png,,,,,,,,,,,,5,1,,,,,,,6,6,6,8,,,,,,,,,,,1074.7666,1075.2661,1075.516,1079.2956,space,3.7679,,1079.2956,4,76,1080.2943,1080.2944,1080.3074,,,,0,24,24,24,1,30,130,,,,,,,,
,,5f18ba940ce7b80d1875c975,65af53cbe8cf4b3e6d3334d6,2024-01-23_07h54.08.956,bars,2023.2.3,Win32,60.24096386,657b66ea316d21385b68909f,,,,,,,,,,,1080.3077,1081.3102,,,1081.8094,1082.0595,,154,154,,,,,,,,,,,,,,,,bars/011.png,bars/mask005.png,,,,,,,,,,,,4,1,,,,,,,4,8,5,8,,,,,,,,,,,1081.3103,1081.8094,1082.0595,1088.3729,space,6.3046,,1088.3729,6,69,1089.369,1089.369,1089.389,,,,0,25,25,25,1,160,85,,,,,,,,
,,5f18ba940ce7b80d1875c975,65af53cbe8cf4b3e6d3334d6,2024-01-23_07h54.08.956,bars,2023.2.3,Win32,60.24096386,657b66ea316d21385b68909f,,,,,,,,,,,1089.3894,1090.3852,,,1090.8842,1091.1339,,31,31,,,,,,,,,,,,,,,,bars/048.png,bars/mask004.png,,,,,,,,,,,,2,1,,,,,,,6,10,6,10,,,,,,,,,,,1090.3852,1090.8841,1091.1339,1096.362,space,5.2126,,1096.362,19,36,1097.3609,1097.3609,1097.3752,,,,0,26,26,26,1,50,175,,,,,,,,
,,5f18ba940ce7b80d1875c975,65af53cbe8cf4b3e6d3334d6,2024-01-23_07h54.08.956,bars,2023.2.3,Win32,60.24096386,657b66ea316d21385b68909f,,,,,,,,,,,1097.3754,1098.3768,,,1098.8766,1099.126,,51,51,,,,,,,,,,,,,,,,bars/043.png,bars/mask002.png,,,,,,,,,,,,1,1,,,,,,,4,8,2,7,,,,,,,,,,,1098.3768,1098.8765,1099.126,1102.9062,space,3.7672,,1102.9063,21,79,1103.905,1103.905,1103.9185,,,,0,27,27,27,1,30,130,,,,,,,,
,,5f18ba940ce7b80d1875c975,65af53cbe8cf4b3e6d3334d6,2024-01-23_07h54.08.956,bars,2023.2.3,Win32,60.24096386,657b66ea316d21385b68909f,,,,,,,,,,,1103.9188,1104.9203,,,1105.4197,1105.6688,,124,124,,,,,,,,,,,,,,,,bars/008.png,bars/mask008.png,,,,,,,,,,,,4,1,,,,,,,6,10,8,10,,,,,,,,,,,1104.9204,1105.4196,1105.6689,1108.5022,space,2.8149,,1108.5023,14,56,1109.4992,1109.4992,1109.5124,,,,0,28,28,28,1,110,0,,,,,,,,
,,5f18ba940ce7b80d1875c975,65af53cbe8cf4b3e6d3334d6,2024-01-23_07h54.08.956,bars,2023.2.3,Win32,60.24096386,657b66ea316d21385b68909f,,,,,,,,,,,1109.5127,1110.5149,,,1111.0144,1111.2642,,45,45,,,,,,,,,,,,,,,,bars/014.png,bars/mask002.png,,,,,,,,,,,,0,1,,,,,,,8,10,7,10,,,,,,,,,,,1110.5149,1111.0144,1111.2642,1116.512,space,5.2393,,1116.5121,35,45,1117.5081,1117.5081,1117.5224,,,,0,29,29,29,1,80,0,,,,,,,,
,,5f18ba940ce7b80d1875c975,65af53cbe8cf4b3e6d3334d6,2024-01-23_07h54.08.956,bars,2023.2.3,Win32,60.24096386,657b66ea316d21385b68909f,,,,,,,,,,,1117.5227,1118.5237,,,1119.0235,1119.2733,,152,152,,,,,,,,,,,,,,,,bars/049.png,bars/mask007.png,,,,,,,,,,,,4,1,,,,,,,6,10,6,10,,,,,,,,,,,1118.5238,1119.0235,1119.2734,1124.9675,space,5.6786,,1124.9676,8,37,1125.9662,1125.9662,1125.9794,,,,0,30,30,30,1,160,115,,,,,,,,
,,5f18ba940ce7b80d1875c975,65af53cbe8cf4b3e6d3334d6,2024-01-23_07h54.08.956,bars,2023.2.3,Win32,60.24096386,657b66ea316d21385b68909f,,,,,,,,,,,1125.9798,1126.9828,,,1127.4817,1127.7314,,41,41,,,,,,,,,,,,,,,,bars/033.png,bars/mask009.png,,,,,,,,,,,,5,1,,,,,,,8,8,10,9,,,,,,,,,,,1126.9828,1127.4817,1127.7314,1132.6098,space,4.8631,,1132.6099,16,66,1133.6093,1133.6093,1133.6274,,,,0,31,31,31,1,25,155,,,,,,,,
,,5f18ba940ce7b80d1875c975,65af53cbe8cf4b3e6d3334d6,2024-01-23_07h54.08.956,bars,2023.2.3,Win32,60.24096386,657b66ea316d21385b68909f,,,,,,,,,,,1133.6277,1134.6245,,,1135.1241,1135.3738,,41,41,,,,,,,,,,,,,,,,bars/048.png,bars/mask000.png,,,,,,,,,,,,7,1,,,,,,,10,6,10,6,,,,,,,,,,,1134.6245,1135.1241,1135.3738,1138.9374,space,3.5523,,1138.9375,9,46,1139.9372,1139.9372,1139.9538,,,,0,32,32,32,1,50,175,,,,,,,,
,,5f18ba940ce7b80d1875c975,65af53cbe8cf4b3e6d3334d6,2024-01-23_07h54.08.956,bars,2023.2.3,Win32,60.24096386,657b66ea316d21385b68909f,,,,,,,,,,,1139.9541,1140.9515,,,1141.4513,1141.7008,,159,339,,,,,,,,,,,,,,,,bars/009.png,bars/mask000.png,,,,,,,,,,,,0,1,,,,,,,10,8,10,7,,,,,,,,,,,1140.9515,1141.4513,1141.7008,1150.3927,space,8.6813,,1150.3928,36,54,1151.3915,1151.3916,1151.4073,,,,0,33,33,33,1,15,105,,,,,,,,
,,5f18ba940ce7b80d1875c975,65af53cbe8cf4b3e6d3334d6,2024-01-23_07h54.08.956,bars,2023.2.3,Win32,60.24096386,657b66ea316d21385b68909f,,,,,,,,,,,1151.4079,1152.4078,,,1152.9066,1153.1563,,161,161,,,,,,,,,,,,,,,,bars/007.png,bars/mask001.png,,,,,,,,,,,,4,1,,,,,,,8,6,7,6,,,,,,,,,,,1152.4078,1152.9065,1153.1564,1155.7547,space,2.5887,,1155.7547,14,74,1156.7529,1156.7529,1156.7659,,,,0,34,34,34,1,175,55,,,,,,,,
,,5f18ba940ce7b80d1875c975,65af53cbe8cf4b3e6d3334d6,2024-01-23_07h54.08.956,bars,2023.2.3,Win32,60.24096386,657b66ea316d21385b68909f,,,,,,,,,,,1156.7661,1157.7689,,,1158.2681,1158.518,,170,170,,,,,,,,,,,,,,,,bars/017.png,bars/mask004.png,,,,,,,,,,,,2,1,,,,,,,10,4,10,5,,,,,,,,,,,1157.7689,1158.268,1158.518,1162.065,space,3.5378,,1162.0651,25,55,1163.0634,1163.0634,1163.0778,,,,0,35,35,35,1,145,45,,,,,,,,
,,5f18ba940ce7b80d1875c975,65af53cbe8cf4b3e6d3334d6,2024-01-23_07h54.08.956,bars,2023.2.3,Win32,60.24096386,657b66ea316d21385b68909f,,,,,,,,,,,1163.0781,1164.079,,,1164.5784,1164.8284,,170,170,,,,,,,,,,,,,,,,bars/001.png,bars/mask004.png,,,,,,,,,,,,0,1,,,,,,,10,6,10,8,,,,,,,,,,,1164.079,1164.5783,1164.8285,1168.426,space,3.5891,,1168.426,40,85,1169.4239,1169.4239,1169.4371,,,,0,36,36,36,1,130,85,,,,,,,,
,,5f18ba940ce7b80d1875c975,65af53cbe8cf4b3e6d3334d6,2024-01-23_07h54.08.956,bars,2023.2.3,Win32,60.24096386,657b66ea316d21385b68909f,,,,,,,,,,,1169.4374,1170.4394,,,1170.939,1171.1886,,122,122,,,,,,,,,,,,,,,,bars/002.png,bars/mask002.png,,,,,,,,,,,,7,1,,,,,,,10,4,10,3,,,,,,,,,,,1170.4395,1170.9389,1171.1887,1173.8696,space,2.6651,,1173.8697,8,37,1174.8682,1174.8683,1174.8818,,,,0,37,37,37,1,130,85,,,,,,,,
,,5f18ba940ce7b80d1875c975,65af53cbe8cf4b3e6d3334d6,2024-01-23_07h54.08.956,bars,2023.2.3,Win32,60.24096386,657b66ea316d21385b68909f,,,,,,,,,,,1174.8822,1175.8839,,,1176.3836,1176.6339,,149,149,,,,,,,,,,,,,,,,bars/038.png,bars/mask005.png,,,,,,,,,,,,3,1,,,,,,,8,2,7,3,,,,,,,,,,,1175.8839,1176.3836,1176.6339,1182.7447,space,6.0942,,1182.7448,16,79,1183.7431,1183.7431,1183.7579,,,,0,38,38,38,1,165,70,,,,,,,,
,,5f18ba940ce7b80d1875c975,65af53cbe8cf4b3e6d3334d6,2024-01-23_07h54.08.956,bars,2023.2.3,Win32,60.24096386,657b66ea316d21385b68909f,,,,,,,,,,,1183.7589,1184.7589,,,1185.2592,1185.5079,,23,23,,,,,,,,,,,,,,,,bars/019.png,bars/mask006.png,,,,,,,,,,,,2,1,,,,,,,10,4,8,4,,,,,,,,,,,1184.7589,1185.2592,1185.508,1191.0368,space,5.5117,,1191.0371,22,82,1192.0347,1192.0347,1192.0503,,,,0,39,39,39,1,45,105,,,,,,,,
,,5f18ba940ce7b80d1875c975,65af53cbe8cf4b3e6d3334d6,2024-01-23_07h54.08.956,bars,2023.2.3,Win32,60.24096386,657b66ea316d21385b68909f,,,,,,,,,,,1192.0513,1193.0506,,,1193.5499,1193.7998,,45,45,,,,,,,,,,,,,,,,bars/014.png,bars/mask007.png,,,,,,,,,,,,0,1,,,,,,,8,2,7,3,,,,,,,,,,,1193.0506,1193.5499,1193.7998,1196.5149,space,2.7074,,1196.515,35,45,1197.5139,1197.514,1197.5323,,,,0,40,40,40,1,80,0,,,,,,,,
,,5f18ba940ce7b80d1875c975,65af53cbe8cf4b3e6d3334d6,2024-01-23_07h54.08.956,bars,2023.2.3,Win32,60.24096386,657b66ea316d21385b68909f,,,,,,,,,,,1197.5332,1198.5313,,,1199.0278,1199.2776,,69,69,,,,,,,,,,,,,,,,bars/029.png,bars/mask009.png,,,,,,,,,,,,2,1,,,,,,,6,4,6,4,,,,,,,,,,,1198.5314,1199.0277,1199.2776,1202.6079,space,3.3164,,1202.608,21,24,1203.6069,1203.6069,1203.6207,,,,0,41,41,41,1,90,45,,,,,,,,
,,5f18ba940ce7b80d1875c975,65af53cbe8cf4b3e6d3334d6,2024-01-23_07h54.08.956,bars,2023.2.3,Win32,60.24096386,657b66ea316d21385b68909f,,,,,,,,,,,1203.621,1204.6236,,,1205.1223,1205.372,,112,112,,,,,,,,,,,,,,,,bars/045.png,bars/mask007.png,,,,,,,,,,,,3,1,,,,,,,4,6,5,5,,,,,,,,,,,1204.6236,1205.1222,1205.372,1209.8177,space,4.4302,,1209.8178,12,78,1210.8165,1210.8165,1210.8313,,,,0,42,42,42,1,100,10,,,,,,,,
,,5f18ba940ce7b80d1875c975,65af53cbe8cf4b3e6d3334d6,2024-01-23_07h54.08.956,bars,2023.2.3,Win32,60.24096386,657b66ea316d21385b68909f,,,,,,,,,,,1210.8327,1211.8322,,,1212.3318,1212.5816,,160,160,,,,,,,,,,,,,,,,bars/007.png,bars/mask004.png,,,,,,,,,,,,1,1,,,,,,,2,4,1,3,,,,,,,,,,,1211.8322,1212.3318,1212.5816,1218.2094,space,5.6116,,1218.2095,15,75,1219.2083,1219.2084,1219.2227,,,,0,43,43,43,1,175,55,,,,,,,,
,,5f18ba940ce7b80d1875c975,65af53cbe8cf4b3e6d3334d6,2024-01-23_07h54.08.956,bars,2023.2.3,Win32,60.24096386,657b66ea316d21385b68909f,,,,,,,,,,,1219.223,1220.224,,,1220.7237,1220.9732,,116,116,,,,,,,,,,,,,,,,bars/048.png,bars/mask005.png,,,,,,,,,,,,0,2,,,,,,,0,6,0,7,,,,,,,,,,,1220.2241,1220.7236,1220.9733,1223.9871,space,3.002,,1223.9871,66,59,1224.9863,1224.9864,1225.0033,,,,0,44,44,44,1,50,175,,,,,,,,
,,5f18ba940ce7b80d1875c975,65af53cbe8cf4b3e6d3334d6,2024-01-23_07h54.08.956,bars,2023.2.3,Win32,60.24096386,657b66ea316d21385b68909f,,,,,,,,,,,1225.0038,1226.0011,,,1226.5012,1226.7511,,127,127,,,,,,,,,,,,,,,,bars/032.png,bars/mask000.png,,,,,,,,,,,,0,1,,,,,,,0,8,0,9,,,,,,,,,,,1226.0011,1226.5012,1226.7512,1230.816,space,4.0564,,1230.8161,2,73,1231.8127,1231.8128,1231.8295,,,,0,45,45,45,1,125,20,,,,,,,,
,,5f18ba940ce7b80d1875c975,65af53cbe8cf4b3e6d3334d6,2024-01-23_07h54.08.956,bars,2023.2.3,Win32,60.24096386,657b66ea316d21385b68909f,,,,,,,,,,,1231.83,1232.8283,,,1233.3324,1233.5776,,159,159,,,,,,,,,,,,,,,,bars/038.png,bars/mask001.png,,,,,,,,,,,,0,1,,,,,,,0,6,0,7,,,,,,,,,,,1232.8283,1233.3319,1233.5777,1238.7061,space,5.1173,,1238.7061,6,89,1239.7048,1239.7049,1239.719,,,,0,46,46,46,1,165,70,,,,,,,,
,,5f18ba940ce7b80d1875c975,65af53cbe8cf4b3e6d3334d6,2024-01-23_07h54.08.956,bars,2023.2.3,Win32,60.24096386,657b66ea316d21385b68909f,,,,,,,,,,,1239.7193,1240.7205,,,1241.2205,1241.4699,,154,154,,,,,,,,,,,,,,,,bars/035.png,bars/mask008.png,,,,,,,,,,,,1,1,,,,,,,2,8,3,7,,,,,,,,,,,1240.7205,1241.2205,1241.4699,1245.0998,space,3.6139,,1245.0999,21,86,1246.0986,1246.0987,1246.113,,,,0,47,47,47,1,175,60,,,,,,,,
,,5f18ba940ce7b80d1875c975,65af53cbe8cf4b3e6d3334d6,2024-01-23_07h54.08.956,bars,2023.2.3,Win32,60.24096386,657b66ea316d21385b68909f,,,,,,,,,,,1246.1134,1247.1147,,,1247.6148,1247.8636,,117,117,,,,,,,,,,,,,,,,bars/024.png,bars/mask003.png,,,,,,,,,,,,0,1,,,,,,,0,6,0,5,,,,,,,,,,,1247.1147,1247.6147,1247.8636,1250.794,space,2.9144,,1250.7941,3,53,1251.793,1251.793,1251.8062,,,,0,48,48,48,1,120,170,,,,,,,,
,,5f18ba940ce7b80d1875c975,65af53cbe8cf4b3e6d3334d6,2024-01-23_07h54.08.956,bars,2023.2.3,Win32,60.24096386,657b66ea316d21385b68909f,,,,,,,,,,,1251.8065,1252.8086,,,1253.3083,1253.5579,,47,47,,,,,,,,,,,,,,,,bars/023.png,bars/mask006.png,,,,,,,,,,,,0,1,,,,,,,0,8,1,7,,,,,,,,,,,1252.8087,1253.3082,1253.5579,1258.5704,space,4.996,,1258.5705,27,68,1259.5689,1259.569,1259.5824,,,,0,49,49,49,1,20,115,,,,,,,,
,,5f18ba940ce7b80d1875c975,65af53cbe8cf4b3e6d3334d6,2024-01-23_07h54.08.956,bars,2023.2.3,Win32,60.24096386,657b66ea316d21385b68909f,,,,,,,,,,,,,,,,,,,,,,,,,,,,,,,,,,,,,,,,,,,,,,,,,,,,,,,,,,,,,,,,,,,,,,,,,,,,,,,,,,,,,,,,,,,,,1259.5826,1319.5768,0,1,1,1,1,sequence_tables/blk013.csv
,,5f18ba940ce7b80d1875c975,65af53cbe8cf4b3e6d3334d6,2024-01-23_07h54.08.956,bars,2023.2.3,Win32,60.24096386,657b66ea316d21385b68909f,,,,,,,,,,,1321.1342,1322.1247,,,1322.6236,1322.8731,,134,134,,,,,,,,,,,,,,,,bars/037.png,bars/mask003.png,,,,,,,,,,,,4,1,,,,,,,8,8,9,9,,,,,,1319.5935,1321.1252,space,1.5211,,1322.1247,1322.6236,1322.8732,1326.9033,space,4.014,,1326.9035,16,29,1327.9015,1327.9015,1327.9195,,,,0,0,0,0,1,150,105,,,,,,,,
,,5f18ba940ce7b80d1875c975,65af53cbe8cf4b3e6d3334d6,2024-01-23_07h54.08.956,bars,2023.2.3,Win32,60.24096386,657b66ea316d21385b68909f,,,,,,,,,,,1327.9198,1328.9182,,,1329.4164,1329.6662,,155,155,,,,,,,,,,,,,,,,bars/011.png,bars/mask007.png,,,,,,,,,,,,7,1,,,,,,,10,6,8,6,,,,,,,,,,,1328.9183,1329.4164,1329.6663,1332.5641,space,2.8814,,1332.5641,5,70,1333.5629,1333.563,1333.5766,,,,0,1,1,1,1,160,85,,,,,,,,
,,5f18ba940ce7b80d1875c975,65af53cbe8cf4b3e6d3334d6,2024-01-23_07h54.08.956,bars,2023.2.3,Win32,60.24096386,657b66ea316d21385b68909f,,,,,,,,,,,1333.5769,1334.5789,,,1335.0783,1335.3286,,19,-161,,,,,,,,,,,,,,,,bars/039.png,bars/mask006.png,,,,,,,,,,,,2,1,,,,,,,8,8,10,8,,,,,,,,,,,1334.5789,1335.0783,1335.3288,1343.5707,space,8.234,,1343.5708,24,86,1344.5689,1344.5689,1344.5828,,,,0,2,2,2,1,175,105,,,,,,,,
,,5f18ba940ce7b80d1875c975,65af53cbe8cf4b3e6d3334d6,2024-01-23_07h54.08.956,bars,2023.2.3,Win32,60.24096386,657b66ea316d21385b68909f,,,,,,,,,,,1344.5831,1345.5844,,,1346.084,1346.3338,,18,18,,,,,,,,,,,,,,,,bars/041.png,bars/mask001.png,,,,,,,,,,,,4,1,,,,,,,6,6,4,7,,,,,,,,,,,1345.5845,1346.084,1346.3338,1349.2485,space,2.9061,,1349.2485,2,67,1350.2465,1350.2465,1350.2609,,,,0,3,3,3,1,20,85,,,,,,,,
,,5f18ba940ce7b80d1875c975,65af53cbe8cf4b3e6d3334d6,2024-01-23_07h54.08.956,bars,2023.2.3,Win32,60.24096386,657b66ea316d21385b68909f,,,,,,,,,,,1350.2613,1351.2626,,,1351.7617,1352.0124,,123,123,,,,,,,,,,,,,,,,bars/001.png,bars/mask006.png,,,,,,,,,,,,4,1,,,,,,,4,8,5,7,,,,,,,,,,,1351.2626,1351.7616,1352.0125,1355.2924,space,3.2652,,1355.2924,7,38,1356.2905,1356.2907,1356.306,,,,0,4,4,4,1,130,85,,,,,,,,
,,5f18ba940ce7b80d1875c975,65af53cbe8cf4b3e6d3334d6,2024-01-23_07h54.08.956,bars,2023.2.3,Win32,60.24096386,657b66ea316d21385b68909f,,,,,,,,,,,1356.3067,1357.3059,,,1357.8058,1358.0553,,140,140,,,,,,,,,,,,,,,,bars/046.png,bars/mask003.png,,,,,,,,,,,,1,1,,,,,,,2,6,1,6,,,,,,,,,,,1357.306,1357.8058,1358.0555,1360.3365,space,2.2658,,1360.3365,15,55,1361.3358,1361.3358,1361.3532,,,,0,5,5,5,1,155,85,,,,,,,,
,,5f18ba940ce7b80d1875c975,65af53cbe8cf4b3e6d3334d6,2024-01-23_07h54.08.956,bars,2023.2.3,Win32,60.24096386,657b66ea316d21385b68909f,,,,,,,,,,,1361.3535,1362.3512,,,1362.8506,1363.1001,,103,103,,,,,,,,,,,,,,,,bars/022.png,bars/mask000.png,,,,,,,,,,,,2,1,,,,,,,4,4,3,6,,,,,,,,,,,1362.3512,1362.8505,1363.1002,1365.5488,space,2.4369,,1365.5488,8,83,1366.5471,1366.5471,1366.548,,,,0,6,6,6,1,95,20,,,,,,,,
,,5f18ba940ce7b80d1875c975,65af53cbe8cf4b3e6d3334d6,2024-01-23_07h54.08.956,bars,2023.2.3,Win32,60.24096386,657b66ea316d21385b68909f,,,,,,,,,,,1366.5485,1367.5462,,,1368.0458,1368.2952,,119,119,,,,,,,,,,,,,,,,bars/045.png,bars/mask004.png,,,,,,,,,,,,0,1,,,,,,,2,2,1,1,,,,,,,,,,,1367.5462,1368.0458,1368.2952,1372.359,space,4.0474,,1372.3591,19,71,1373.3571,1373.3572,1373.3705,,,,0,7,7,7,1,100,10,,,,,,,,
,,5f18ba940ce7b80d1875c975,65af53cbe8cf4b3e6d3334d6,2024-01-23_07h54.08.956,bars,2023.2.3,Win32,60.24096386,657b66ea316d21385b68909f,,,,,,,,,,,1373.3708,1374.3724,,,1374.8724,1375.1219,,42,42,,,,,,,,,,,,,,,,bars/041.png,bars/mask006.png,,,,,,,,,,,,1,1,,,,,,,4,4,3,3,,,,,,,,,,,1374.3724,1374.8722,1375.1219,1378.569,space,3.432,,1378.569,22,43,1379.5675,1379.5676,1379.5811,,,,0,8,8,8,1,20,85,,,,,,,,
,,5f18ba940ce7b80d1875c975,65af53cbe8cf4b3e6d3334d6,2024-01-23_07h54.08.956,bars,2023.2.3,Win32,60.24096386,657b66ea316d21385b68909f,,,,,,,,,,,1379.5816,1380.5841,,,1381.0831,1381.3324,,143,143,,,,,,,,,,,,,,,,bars/031.png,bars/mask005.png,,,,,,,,,,,,1,1,,,,,,,2,6,3,7,,,,,,,,,,,1380.5841,1381.0831,1381.3324,1385.0155,space,3.6748,,1385.0157,23,72,1386.012,1386.012,1386.0262,,,,0,9,9,9,1,120,35,,,,,,,,
,,5f18ba940ce7b80d1875c975,65af53cbe8cf4b3e6d3334d6,2024-01-23_07h54.08.956,bars,2023.2.3,Win32,60.24096386,657b66ea316d21385b68909f,,,,,,,,,,,1386.028,1387.0271,,,1387.5267,1387.7756,,130,130,,,,,,,,,,,,,,,,bars/036.png,bars/mask009.png,,,,,,,,,,,,2,1,,,,,,,4,8,4,8,,,,,,,,,,,1387.0271,1387.5265,1387.7756,1392.1057,space,4.3172,,1392.1058,15,70,1393.1041,1393.1042,1393.1176,,,,0,10,10,10,1,145,20,,,,,,,,
,,5f18ba940ce7b80d1875c975,65af53cbe8cf4b3e6d3334d6,2024-01-23_07h54.08.956,bars,2023.2.3,Win32,60.24096386,657b66ea316d21385b68909f,,,,,,,,,,,1393.1179,1394.1198,,,1394.6217,1394.8731,,138,138,,,,,,,,,,,,,,,,bars/034.png,bars/mask007.png,,,,,,,,,,,,3,1,,,,,,,6,6,6,6,,,,,,,,,,,1394.1199,1394.6217,1394.8734,1399.5493,space,4.6613,,1399.5493,13,73,1400.5472,1400.5472,1400.5606,,,,0,11,11,11,1,125,65,,,,,,,,
,,5f18ba940ce7b80d1875c975,65af53cbe8cf4b3e6d3334d6,2024-01-23_07h54.08.956,bars,2023.2.3,Win32,60.24096386,657b66ea316d21385b68909f,,,,,,,,,,,1400.5609,1401.563,,,1402.0627,1402.3124,,67,67,,,,,,,,,,,,,,,,bars/031.png,bars/mask004.png,,,,,,,,,,,,0,2,,,,,,,4,4,3,3,,,,,,,,,,,1401.563,1402.0627,1402.3124,1404.8098,space,2.4863,,1404.8098,53,32,1405.8086,1405.8086,1405.8253,,,,0,12,12,12,1,120,35,,,,,,,,
,,5f18ba940ce7b80d1875c975,65af53cbe8cf4b3e6d3334d6,2024-01-23_07h54.08.956,bars,2023.2.3,Win32,60.24096386,657b66ea316d21385b68909f,,,,,,,,,,,1405.8257,1406.8245,,,1407.324,1407.5736,,117,117,,,,,,,,,,,,,,,,bars/034.png,bars/mask002.png,,,,,,,,,,,,1,1,,,,,,,2,6,1,6,,,,,,,,,,,1406.8246,1407.3239,1407.5737,1412.7022,space,5.1137,,1412.7023,8,52,1413.7009,1413.701,1413.7177,,,,0,13,13,13,1,125,65,,,,,,,,
,,5f18ba940ce7b80d1875c975,65af53cbe8cf4b3e6d3334d6,2024-01-23_07h54.08.956,bars,2023.2.3,Win32,60.24096386,657b66ea316d21385b68909f,,,,,,,,,,,1413.718,1414.7165,,,1415.2159,1415.4659,,112,112,,,,,,,,,,,,,,,,bars/032.png,bars/mask002.png,,,,,,,,,,,,0,1,,,,,,,0,8,0,8,,,,,,,,,,,1414.7167,1415.2159,1415.4659,1418.7461,space,3.2659,,1418.7463,13,88,1419.7453,1419.7453,1419.7589,,,,0,14,14,14,1,125,20,,,,,,,,
,,5f18ba940ce7b80d1875c975,65af53cbe8cf4b3e6d3334d6,2024-01-23_07h54.08.956,bars,2023.2.3,Win32,60.24096386,657b66ea316d21385b68909f,,,,,,,,,,,1419.7592,1420.7608,,,1421.2598,1421.51,,124,124,,,,,,,,,,,,,,,,bars/020.png,bars/mask008.png,,,,,,,,,,,,0,1,,,,,,,0,6,0,6,,,,,,,,,,,1420.7609,1421.2598,1421.51,1426.4892,space,4.963,,1426.4893,9,46,1427.4873,1427.4874,1427.5051,,,,0,15,15,15,1,115,170,,,,,,,,
,,5f18ba940ce7b80d1875c975,65af53cbe8cf4b3e6d3334d6,2024-01-23_07h54.08.956,bars,2023.2.3,Win32,60.24096386,657b66ea316d21385b68909f,,,,,,,,,,,1427.5054,1428.5028,,,1428.9998,1429.2568,,112,112,,,,,,,,,,,,,,,,bars/010.png,bars/mask007.png,,,,,,,,,,,,0,1,,,,,,,2,8,3,9,,,,,,,,,,,1428.5029,1428.9998,1429.2569,1430.7673,space,1.4963,,1430.7675,53,57,1431.7675,1431.7675,1431.7684,,,,0,16,16,16,1,165,55,,,,,,,,
,,5f18ba940ce7b80d1875c975,65af53cbe8cf4b3e6d3334d6,2024-01-23_07h54.08.956,bars,2023.2.3,Win32,60.24096386,657b66ea316d21385b68909f,,,,,,,,,,,1431.7687,1432.7655,,,1433.2651,1433.5144,,132,132,,,,,,,,,,,,,,,,bars/034.png,bars/mask007.png,,,,,,,,,,,,1,1,,,,,,,0,10,1,10,,,,,,,,,,,1432.7656,1433.2651,1433.5145,1435.2798,space,1.7508,,1435.2804,7,67,1436.2787,1436.2787,1436.2796,,,,0,17,17,17,1,125,65,,,,,,,,
,,5f18ba940ce7b80d1875c975,65af53cbe8cf4b3e6d3334d6,2024-01-23_07h54.08.956,bars,2023.2.3,Win32,60.24096386,657b66ea316d21385b68909f,,,,,,,,,,,1436.28,1437.2779,,,1437.7772,1438.0273,,120,120,,,,,,,,,,,,,,,,bars/018.png,bars/mask006.png,,,,,,,,,,,,0,2,,,,,,,2,8,1,7,,,,,,,,,,,1437.2779,1437.7771,1438.0273,1440.7747,space,2.7361,,1440.7747,30,30,1441.7737,1441.7738,1441.7904,,,,0,18,18,18,1,150,90,,,,,,,,
,,5f18ba940ce7b80d1875c975,65af53cbe8cf4b3e6d3334d6,2024-01-23_07h54.08.956,bars,2023.2.3,Win32,60.24096386,657b66ea316d21385b68909f,,,,,,,,,,,1441.791,1442.7897,,,1443.2893,1443.5385,,31,211,,,,,,,,,,,,,,,,bars/003.png,bars/mask004.png,,,,,,,,,,,,0,1,,,,,,,0,6,0,5,,,,,,,,,,,1442.7899,1443.2893,1443.5385,1446.9186,space,3.3666,,1446.9187,6,71,1447.9172,1447.9173,1447.935,,,,0,19,19,19,1,25,140,,,,,,,,
,,5f18ba940ce7b80d1875c975,65af53cbe8cf4b3e6d3334d6,2024-01-23_07h54.08.956,bars,2023.2.3,Win32,60.24096386,657b66ea316d21385b68909f,,,,,,,,,,,1447.9364,1448.9329,,,1449.4337,1449.6826,,54,54,,,,,,,,,,,,,,,,bars/016.png,bars/mask006.png,,,,,,,,,,,,1,1,,,,,,,2,8,2,8,,,,,,,,,,,1448.9329,1449.4337,1449.6826,1453.9799,space,4.2886,,1453.9799,14,69,1454.9772,1454.9773,1454.99,,,,0,20,20,20,1,40,165,,,,,,,,
,,5f18ba940ce7b80d1875c975,65af53cbe8cf4b3e6d3334d6,2024-01-23_07h54.08.956,bars,2023.2.3,Win32,60.24096386,657b66ea316d21385b68909f,,,,,,,,,,,1454.9904,1455.9932,,,1456.4923,1456.7424,,40,220,,,,,,,,,,,,,,,,bars/022.png,bars/mask001.png,,,,,,,,,,,,3,2,,,,,,,4,10,5,10,,,,,,,,,,,1455.9933,1456.4923,1456.7425,1461.5043,space,4.7485,,1461.5044,55,20,1462.5029,1462.503,1462.52,,,,0,21,21,21,1,95,20,,,,,,,,
,,5f18ba940ce7b80d1875c975,65af53cbe8cf4b3e6d3334d6,2024-01-23_07h54.08.956,bars,2023.2.3,Win32,60.24096386,657b66ea316d21385b68909f,,,,,,,,,,,1462.5207,1463.5188,,,1464.0191,1464.2686,,119,119,,,,,,,,,,,,,,,,bars/044.png,bars/mask002.png,,,,,,,,,,,,0,2,,,,,,,6,8,6,8,,,,,,,,,,,1463.5189,1464.019,1464.2688,1467.9809,space,3.703,,1467.981,44,36,1468.98,1468.9801,1468.9943,,,,0,22,22,22,1,75,155,,,,,,,,
,,5f18ba940ce7b80d1875c975,65af53cbe8cf4b3e6d3334d6,2024-01-23_07h54.08.956,bars,2023.2.3,Win32,60.24096386,657b66ea316d21385b68909f,,,,,,,,,,,1468.9947,1469.9957,,,1470.4951,1470.7449,,111,111,,,,,,,,,,,,,,,,bars/001.png,bars/mask002.png,,,,,,,,,,,,3,1,,,,,,,8,10,7,10,,,,,,,,,,,1469.9957,1470.4951,1470.7449,1473.6426,space,2.8815,,1473.6427,19,26,1474.6413,1474.6414,1474.6589,,,,0,23,23,23,1,130,85,,,,,,,,
,,5f18ba940ce7b80d1875c975,65af53cbe8cf4b3e6d3334d6,2024-01-23_07h54.08.956,bars,2023.2.3,Win32,60.24096386,657b66ea316d21385b68909f,,,,,,,,,,,1474.6592,1475.6568,,,1476.1565,1476.4059,,24,24,,,,,,,,,,,,,,,,bars/041.png,bars/mask004.png,,,,,,,,,,,,9,1,,,,,,,10,10,10,9,,,,,,,,,,,1475.6569,1476.1565,1476.406,1480.652,space,4.2302,,1480.6521,4,61,1481.6511,1481.6511,1481.6647,,,,0,24,24,24,1,20,85,,,,,,,,
,,5f18ba940ce7b80d1875c975,65af53cbe8cf4b3e6d3334d6,2024-01-23_07h54.08.956,bars,2023.2.3,Win32,60.24096386,657b66ea316d21385b68909f,,,,,,,,,,,1481.665,1482.6668,,,1483.1658,1483.4158,,36,36,,,,,,,,,,,,,,,,bars/048.png,bars/mask006.png,,,,,,,,,,,,5,1,,,,,,,10,10,9,9,,,,,,,,,,,1482.6668,1483.1658,1483.4158,1489.5775,space,6.1456,,1489.5776,14,41,1490.5754,1490.5754,1490.5883,,,,0,25,25,25,1,50,175,,,,,,,,
,,5f18ba940ce7b80d1875c975,65af53cbe8cf4b3e6d3334d6,2024-01-23_07h54.08.956,bars,2023.2.3,Win32,60.24096386,657b66ea316d21385b68909f,,,,,,,,,,,1490.5886,1491.5761,,,1492.0741,1492.324,,126,126,,,,,,,,,,,,,,,,bars/037.png,bars/mask004.png,,,,,,,,,,,,3,2,,,,,,,8,10,8,10,,,,,,,,,,,1491.5763,1492.0741,1492.324,1494.9746,space,2.6309,,1494.9748,24,21,1495.9699,1495.97,1495.9874,,,,0,26,26,26,1,150,105,,,,,,,,
,,5f18ba940ce7b80d1875c975,65af53cbe8cf4b3e6d3334d6,2024-01-23_07h54.08.956,bars,2023.2.3,Win32,60.24096386,657b66ea316d21385b68909f,,,,,,,,,,,1495.9878,1496.986,,,1497.4852,1497.7352,,128,128,,,,,,,,,,,,,,,,bars/037.png,bars/mask002.png,,,,,,,,,,,,2,1,,,,,,,6,8,7,8,,,,,,,,,,,1496.986,1497.4852,1497.7352,1500.4996,space,2.7486,,1500.4997,22,23,1501.4978,1501.4978,1501.5152,,,,0,27,27,27,1,150,105,,,,,,,,
,,5f18ba940ce7b80d1875c975,65af53cbe8cf4b3e6d3334d6,2024-01-23_07h54.08.956,bars,2023.2.3,Win32,60.24096386,657b66ea316d21385b68909f,,,,,,,,,,,1501.5157,1502.5139,,,1503.0134,1503.263,,111,111,,,,,,,,,,,,,,,,bars/025.png,bars/mask004.png,,,,,,,,,,,,3,1,,,,,,,4,6,4,6,,,,,,,,,,,1502.514,1503.0134,1503.2632,1505.518,space,2.2458,,1505.5181,6,71,1506.5102,1506.5102,1506.5112,,,,0,28,28,28,1,105,40,,,,,,,,
,,5f18ba940ce7b80d1875c975,65af53cbe8cf4b3e6d3334d6,2024-01-23_07h54.08.956,bars,2023.2.3,Win32,60.24096386,657b66ea316d21385b68909f,,,,,,,,,,,1506.5115,1507.5091,,,1508.0085,1508.2587,,151,151,,,,,,,,,,,,,,,,bars/039.png,bars/mask004.png,,,,,,,,,,,,1,1,,,,,,,6,4,6,4,,,,,,,,,,,1507.5091,1508.0085,1508.2588,1512.2047,space,3.9345,,1512.2049,24,46,1513.2041,1513.2041,1513.2197,,,,0,29,29,29,1,175,105,,,,,,,,
,,5f18ba940ce7b80d1875c975,65af53cbe8cf4b3e6d3334d6,2024-01-23_07h54.08.956,bars,2023.2.3,Win32,60.24096386,657b66ea316d21385b68909f,,,,,,,,,,,1513.2201,1514.219,,,1514.7187,1514.9681,,129,129,,,,,,,,,,,,,,,,bars/035.png,bars/mask004.png,,,,,,,,,,,,0,1,,,,,,,8,6,10,7,,,,,,,,,,,1514.219,1514.7186,1514.9682,1518.2486,space,3.2656,,1518.2487,46,69,1519.2473,1519.2473,1519.2605,,,,0,30,30,30,1,175,60,,,,,,,,
,,5f18ba940ce7b80d1875c975,65af53cbe8cf4b3e6d3334d6,2024-01-23_07h54.08.956,bars,2023.2.3,Win32,60.24096386,657b66ea316d21385b68909f,,,,,,,,,,,1519.2615,1520.2638,,,1520.7628,1521.0122,,47,47,,,,,,,,,,,,,,,,bars/016.png,bars/mask006.png,,,,,,,,,,,,5,1,,,,,,,6,4,6,4,,,,,,,,,,,1520.2639,1520.7626,1521.0123,1524.4757,space,3.4473,,1524.4757,7,62,1525.4746,1525.4747,1525.4876,,,,0,31,31,31,1,40,165,,,,,,,,
,,5f18ba940ce7b80d1875c975,65af53cbe8cf4b3e6d3334d6,2024-01-23_07h54.08.956,bars,2023.2.3,Win32,60.24096386,657b66ea316d21385b68909f,,,,,,,,,,,1525.4879,1526.49,,,1526.9897,1527.2394,,140,140,,,,,,,,,,,,,,,,bars/037.png,bars/mask008.png,,,,,,,,,,,,5,1,,,,,,,8,2,7,3,,,,,,,,,,,1526.4901,1526.9897,1527.2395,1529.8044,space,2.5564,,1529.8047,10,35,1530.8023,1530.8023,1530.8184,,,,0,32,32,32,1,150,105,,,,,,,,
,,5f18ba940ce7b80d1875c975,65af53cbe8cf4b3e6d3334d6,2024-01-23_07h54.08.956,bars,2023.2.3,Win32,60.24096386,657b66ea316d21385b68909f,,,,,,,,,,,1530.8212,1531.8182,,,1532.3185,1532.5678,,29,29,,,,,,,,,,,,,,,,bars/023.png,bars/mask003.png,,,,,,,,,,,,6,1,,,,,,,10,4,9,5,,,,,,,,,,,1531.8183,1532.3184,1532.5678,1537.2966,space,4.7131,,1537.2966,9,86,1538.2953,1538.2954,1538.3129,,,,0,33,33,33,1,20,115,,,,,,,,
,,5f18ba940ce7b80d1875c975,65af53cbe8cf4b3e6d3334d6,2024-01-23_07h54.08.956,bars,2023.2.3,Win32,60.24096386,657b66ea316d21385b68909f,,,,,,,,,,,1538.3132,1539.3144,,,1539.8107,1540.0606,,47,47,,,,,,,,,,,,,,,,bars/009.png,bars/mask002.png,,,,,,,,,,,,0,1,,,,,,,10,6,10,7,,,,,,,,,,,1539.3145,1539.8106,1540.0607,1542.9416,space,2.8648,,1542.9417,32,58,1543.9399,1543.94,1543.9538,,,,0,34,34,34,1,15,105,,,,,,,,
,,5f18ba940ce7b80d1875c975,65af53cbe8cf4b3e6d3334d6,2024-01-23_07h54.08.956,bars,2023.2.3,Win32,60.24096386,657b66ea316d21385b68909f,,,,,,,,,,,1543.9543,1544.9558,,,1545.4549,1545.7055,,48,48,,,,,,,,,,,,,,,,bars/003.png,bars/mask008.png,,,,,,,,,,,,2,1,,,,,,,8,8,9,9,,,,,,,,,,,1544.9559,1545.4549,1545.7055,1549.7017,space,3.9837,,1549.7017,23,88,1550.6997,1550.6997,1550.7172,,,,0,35,35,35,1,25,140,,,,,,,,
,,5f18ba940ce7b80d1875c975,65af53cbe8cf4b3e6d3334d6,2024-01-23_07h54.08.956,bars,2023.2.3,Win32,60.24096386,657b66ea316d21385b68909f,,,,,,,,,,,1550.7177,1551.7155,,,1552.2157,1552.465,,58,58,,,,,,,,,,,,,,,,bars/006.png,bars/mask006.png,,,,,,,,,,,,2,1,,,,,,,10,6,10,6,,,,,,,,,,,1551.7155,1552.2156,1552.465,1555.5783,space,3.0972,,1555.5784,23,42,1556.5782,1556.5783,1556.5961,,,,0,36,36,36,1,35,100,,,,,,,,
,,5f18ba940ce7b80d1875c975,65af53cbe8cf4b3e6d3334d6,2024-01-23_07h54.08.956,bars,2023.2.3,Win32,60.24096386,657b66ea316d21385b68909f,,,,,,,,,,,1556.5965,1557.5975,,,1558.0997,1558.3492,,140,140,,,,,,,,,,,,,,,,bars/039.png,bars/mask003.png,,,,,,,,,,,,0,2,,,,,,,10,8,10,8,,,,,,,,,,,1557.5977,1558.0996,1558.3494,1565.0031,space,6.6367,,1565.0031,35,35,1566.0019,1566.0019,1566.0198,,,,0,37,37,37,1,175,105,,,,,,,,
,,5f18ba940ce7b80d1875c975,65af53cbe8cf4b3e6d3334d6,2024-01-23_07h54.08.956,bars,2023.2.3,Win32,60.24096386,657b66ea316d21385b68909f,,,,,,,,,,,1566.0201,1567.0178,,,1567.5168,1567.7663,,14,14,,,,,,,,,,,,,,,,bars/003.png,bars/mask006.png,,,,,,,,,,,,5,1,,,,,,,8,10,8,10,,,,,,,,,,,1567.0178,1567.5167,1567.7664,1570.2642,space,2.4861,,1570.2642,11,54,1571.2631,1571.2631,1571.2655,,,,0,38,38,38,1,25,140,,,,,,,,
,,5f18ba940ce7b80d1875c975,65af53cbe8cf4b3e6d3334d6,2024-01-23_07h54.08.956,bars,2023.2.3,Win32,60.24096386,657b66ea316d21385b68909f,,,,,,,,,,,1571.2659,1572.262,,,1572.7623,1573.0114,,176,176,,,,,,,,,,,,,,,,bars/021.png,bars/mask000.png,,,,,,,,,,,,3,1,,,,,,,10,8,10,9,,,,,,,,,,,1572.262,1572.7623,1573.0115,1575.826,space,2.7983,,1575.8261,21,74,1576.8243,1576.8244,1576.8384,,,,0,39,39,39,1,155,70,,,,,,,,
,,5f18ba940ce7b80d1875c975,65af53cbe8cf4b3e6d3334d6,2024-01-23_07h54.08.956,bars,2023.2.3,Win32,60.24096386,657b66ea316d21385b68909f,,,,,,,,,,,1576.8388,1577.8406,,,1578.3395,1578.589,,142,142,,,,,,,,,,,,,,,,bars/011.png,bars/mask003.png,,,,,,,,,,,,4,1,,,,,,,10,6,9,6,,,,,,,,,,,1577.8407,1578.3395,1578.5891,1581.056,space,2.4578,,1581.0561,18,57,1582.0525,1582.0525,1582.0673,,,,0,40,40,40,1,160,85,,,,,,,,
,,5f18ba940ce7b80d1875c975,65af53cbe8cf4b3e6d3334d6,2024-01-23_07h54.08.956,bars,2023.2.3,Win32,60.24096386,657b66ea316d21385b68909f,,,,,,,,,,,1582.0687,1583.0682,,,1583.5678,1583.8171,,15,15,,,,,,,,,,,,,,,,bars/049.png,bars/mask009.png,,,,,,,,,,,,0,1,,,,,,,10,8,10,7,,,,,,,,,,,1583.0682,1583.5678,1583.8171,1586.6175,space,2.7925,,1586.6177,35,80,1587.6138,1587.6138,1587.6275,,,,0,41,41,41,1,160,115,,,,,,,,
,,5f18ba940ce7b80d1875c975,65af53cbe8cf4b3e6d3334d6,2024-01-23_07h54.08.956,bars,2023.2.3,Win32,60.24096386,657b66ea316d21385b68909f,,,,,,,,,,,1587.6278,1588.6293,,,1589.1289,1589.3791,,145,-35,,,,,,,,,,,,,,,,bars/037.png,bars/mask009.png,,,,,,,,,,,,7,1,,,,,,,8,10,8,10,,,,,,,,,,,1588.6294,1589.1288,1589.3792,1592.8754,space,3.4804,,1592.8754,5,40,1593.8637,1593.8637,1593.8802,,,,0,42,42,42,1,150,105,,,,,,,,
,,5f18ba940ce7b80d1875c975,65af53cbe8cf4b3e6d3334d6,2024-01-23_07h54.08.956,bars,2023.2.3,Win32,60.24096386,657b66ea316d21385b68909f,,,,,,,,,,,1593.8806,1594.8742,,,1595.3729,1595.6228,,114,114,,,,,,,,,,,,,,,,bars/013.png,bars/mask002.png,,,,,,,,,,,,0,1,,,,,,,6,8,5,8,,,,,,,,,,,1594.8743,1595.3729,1595.623,1599.3694,space,3.7318,,1599.3695,39,76,1600.3679,1600.368,1600.381,,,,0,43,43,43,1,75,10,,,,,,,,
,,5f18ba940ce7b80d1875c975,65af53cbe8cf4b3e6d3334d6,2024-01-23_07h54.08.956,bars,2023.2.3,Win32,60.24096386,657b66ea316d21385b68909f,,,,,,,,,,,1600.3812,1601.3838,,,1601.8834,1602.1329,,128,128,,,,,,,,,,,,,,,,bars/032.png,bars/mask003.png,,,,,,,,,,,,3,1,,,,,,,4,10,3,10,,,,,,,,,,,1601.3839,1601.8833,1602.1329,1606.5284,space,4.3796,,1606.5285,3,72,1607.5274,1607.5274,1607.5411,,,,0,44,44,44,1,125,20,,,,,,,,
,,5f18ba940ce7b80d1875c975,65af53cbe8cf4b3e6d3334d6,2024-01-23_07h54.08.956,bars,2023.2.3,Win32,60.24096386,657b66ea316d21385b68909f,,,,,,,,,,,1607.5414,1608.544,,,1609.0427,1609.293,,32,32,,,,,,,,,,,,,,,,bars/043.png,bars/mask001.png,,,,,,,,,,,,7,1,,,,,,,6,8,7,8,,,,,,,,,,,1608.5441,1609.0426,1609.293,1615.037,space,5.7316,,1615.0371,2,82,1616.0363,1616.0364,1616.0519,,,,0,45,45,45,1,30,130,,,,,,,,
,,5f18ba940ce7b80d1875c975,65af53cbe8cf4b3e6d3334d6,2024-01-23_07h54.08.956,bars,2023.2.3,Win32,60.24096386,657b66ea316d21385b68909f,,,,,,,,,,,1616.0526,1617.0521,,,1617.5517,1617.8005,,109,109,,,,,,,,,,,,,,,,bars/008.png,bars/mask002.png,,,,,,,,,,,,4,1,,,,,,,4,6,4,5,,,,,,,,,,,1617.0521,1617.5517,1617.8006,1621.8471,space,4.0311,,1621.8472,1,71,1622.846,1622.8461,1622.8628,,,,0,46,46,46,1,110,0,,,,,,,,
,,5f18ba940ce7b80d1875c975,65af53cbe8cf4b3e6d3334d6,2024-01-23_07h54.08.956,bars,2023.2.3,Win32,60.24096386,657b66ea316d21385b68909f,,,,,,,,,,,1622.8636,1623.8613,,,1624.3608,1624.6114,,110,110,,,,,,,,,,,,,,,,bars/036.png,bars/mask008.png,,,,,,,,,,,,0,1,,,,,,,2,4,3,4,,,,,,,,,,,1623.8613,1624.3607,1624.6115,1627.7246,space,3.0977,,1627.7247,35,90,1628.7231,1628.7233,1628.7367,,,,0,47,47,47,1,145,20,,,,,,,,
,,5f18ba940ce7b80d1875c975,65af53cbe8cf4b3e6d3334d6,2024-01-23_07h54.08.956,bars,2023.2.3,Win32,60.24096386,657b66ea316d21385b68909f,,,,,,,,,,,1628.7371,1629.7391,,,1630.2387,1630.4884,,40,40,,,,,,,,,,,,,,,,bars/029.png,bars/mask003.png,,,,,,,,,,,,1,2,,,,,,,0,2,0,1,,,,,,,,,,,1629.7392,1630.2386,1630.4884,1635.7205,space,5.2171,,1635.7206,50,5,1636.7156,1636.7157,1636.7323,,,,0,48,48,48,1,90,45,,,,,,,,
,,5f18ba940ce7b80d1875c975,65af53cbe8cf4b3e6d3334d6,2024-01-23_07h54.08.956,bars,2023.2.3,Win32,60.24096386,657b66ea316d21385b68909f,,,,,,,,,,,1636.733,1637.7316,,,1638.2306,1638.4823,,64,64,,,,,,,,,,,,,,,,bars/016.png,bars/mask006.png,,,,,,,,,,,,0,1,,,,,,,0,4,0,5,,,,,,,,,,,1637.7317,1638.2305,1638.4823,1641.5954,space,3.1042,,1641.5954,24,79,1642.5939,1642.5939,1642.609,,,,0,49,49,49,1,40,165,,,,,,,,
,,5f18ba940ce7b80d1875c975,65af53cbe8cf4b3e6d3334d6,2024-01-23_07h54.08.956,bars,2023.2.3,Win32,60.24096386,657b66ea316d21385b68909f,,,,,,,,,,,,,,,,,,,,,,,,,,,,,,,,,,,,,,,,,,,,,,,,,,,,,,,,,,,,,,,,,,,,,,,,,,,,,,,,,,,,,,,,,,,,,1642.6094,1702.6011,0,2,2,4,1,sequence_tables/blk047.csv
,,5f18ba940ce7b80d1875c975,65af53cbe8cf4b3e6d3334d6,2024-01-23_07h54.08.956,bars,2023.2.3,Win32,60.24096386,657b66ea316d21385b68909f,,,,,,,,,,,1704.5577,1705.5478,,,1706.0473,1706.2973,,17,17,,,,,,,,,,,,,,,,bars/047.png,bars/mask008.png,,,,,,,,,,,,1,1,,,,,,,1,6,1,7,,,,,,1702.6142,1704.5494,space,1.9256,,1705.5479,1706.0472,1706.2974,1709.8112,space,3.4973,,1709.8112,2,53,1710.8096,1710.8096,1710.8233,,,,0,0,0,0,1,15,70,,,,,,,,
,,5f18ba940ce7b80d1875c975,65af53cbe8cf4b3e6d3334d6,2024-01-23_07h54.08.956,bars,2023.2.3,Win32,60.24096386,657b66ea316d21385b68909f,,,,,,,,,,,1710.8237,1711.825,,,1712.3248,1712.5745,,41,41,,,,,,,,,,,,,,,,bars/028.png,bars/mask009.png,,,,,,,,,,,,2,1,,,,,,,3,4,2,5,,,,,,,,,,,1711.8251,1712.3248,1712.5745,1716.8206,space,4.2341,,1716.8206,4,79,1717.8193,1717.8194,1717.8379,,,,0,1,1,1,1,45,120,,,,,,,,
,,5f18ba940ce7b80d1875c975,65af53cbe8cf4b3e6d3334d6,2024-01-23_07h54.08.956,bars,2023.2.3,Win32,60.24096386,657b66ea316d21385b68909f,,,,,,,,,,,1717.8384,1718.8346,,,1719.3343,1719.5848,,110,110,,,,,,,,,,,,,,,,bars/031.png,bars/mask001.png,,,,,,,,,,,,1,1,,,,,,,1,6,2,5,,,,,,,,,,,1718.8347,1719.3341,1719.5849,1722.532,space,2.9346,,1722.5321,10,75,1723.5311,1723.5311,1723.5471,,,,0,2,2,2,1,120,35,,,,,,,,
,,5f18ba940ce7b80d1875c975,65af53cbe8cf4b3e6d3334d6,2024-01-23_07h54.08.956,bars,2023.2.3,Win32,60.24096386,657b66ea316d21385b68909f,,,,,,,,,,,1723.5475,1724.5457,,,1725.0452,1725.2951,,126,126,,,,,,,,,,,,,,,,bars/036.png,bars/mask004.png,,,,,,,,,,,,1,1,,,,,,,3,4,3,5,,,,,,,,,,,1724.5457,1725.0451,1725.2951,1728.1928,space,2.8834,,1728.1928,19,74,1729.1916,1729.1916,1729.2049,,,,0,3,3,3,1,145,20,,,,,,,,
,,5f18ba940ce7b80d1875c975,65af53cbe8cf4b3e6d3334d6,2024-01-23_07h54.08.956,bars,2023.2.3,Win32,60.24096386,657b66ea316d21385b68909f,,,,,,,,,,,1729.2053,1730.2072,,,1730.7065,1730.9569,,51,51,,,,,,,,,,,,,,,,bars/029.png,bars/mask003.png,,,,,,,,,,,,5,2,,,,,,,1,6,1,6,,,,,,,,,,,1730.2073,1730.7064,1730.9569,1733.5039,space,2.5356,,1733.504,39,6,1734.503,1734.5031,1734.5053,,,,0,4,4,4,1,90,45,,,,,,,,
,,5f18ba940ce7b80d1875c975,65af53cbe8cf4b3e6d3334d6,2024-01-23_07h54.08.956,bars,2023.2.3,Win32,60.24096386,657b66ea316d21385b68909f,,,,,,,,,,,1734.5059,1735.5027,,,1736.0016,1736.2513,,139,139,,,,,,,,,,,,,,,,bars/021.png,bars/mask003.png,,,,,,,,,,,,2,1,,,,,,,3,4,4,4,,,,,,,,,,,1735.5028,1736.0016,1736.2514,1738.766,space,2.5003,,1738.766,16,69,1739.7645,1739.7646,1739.7823,,,,0,5,5,5,1,155,70,,,,,,,,
,,5f18ba940ce7b80d1875c975,65af53cbe8cf4b3e6d3334d6,2024-01-23_07h54.08.956,bars,2023.2.3,Win32,60.24096386,657b66ea316d21385b68909f,,,,,,,,,,,1739.7826,1740.7803,,,1741.2801,1741.5295,,158,158,,,,,,,,,,,,,,,,bars/032.png,bars/mask005.png,,,,,,,,,,,,0,1,,,,,,,5,6,4,6,,,,,,,,,,,1740.7803,1741.28,1741.5296,1745.9417,space,4.3955,,1745.9418,33,42,1746.9407,1746.9407,1746.9541,,,,0,6,6,6,1,125,20,,,,,,,,
,,5f18ba940ce7b80d1875c975,65af53cbe8cf4b3e6d3334d6,2024-01-23_07h54.08.956,bars,2023.2.3,Win32,60.24096386,657b66ea316d21385b68909f,,,,,,,,,,,1746.9545,1747.9579,,,1748.456,1748.7055,,135,135,,,,,,,,,,,,,,,,bars/010.png,bars/mask009.png,,,,,,,,,,,,0,1,,,,,,,7,4,9,4,,,,,,,,,,,1747.9579,1748.456,1748.7056,1751.8859,space,3.1675,,1751.886,30,80,1752.8846,1752.8847,1752.8978,,,,0,7,7,7,1,165,55,,,,,,,,
,,5f18ba940ce7b80d1875c975,65af53cbe8cf4b3e6d3334d6,2024-01-23_07h54.08.956,bars,2023.2.3,Win32,60.24096386,657b66ea316d21385b68909f,,,,,,,,,,,1752.8982,1753.9005,,,1754.3999,1754.6501,,141,141,,,,,,,,,,,,,,,,bars/017.png,bars/mask008.png,,,,,,,,,,,,8,1,,,,,,,9,6,9,7,,,,,,,,,,,1753.9005,1754.3999,1754.6503,1758.9291,space,4.2629,,1758.9293,4,84,1759.9279,1759.9279,1759.941,,,,0,8,8,8,1,145,45,,,,,,,,
,,5f18ba940ce7b80d1875c975,65af53cbe8cf4b3e6d3334d6,2024-01-23_07h54.08.956,bars,2023.2.3,Win32,60.24096386,657b66ea316d21385b68909f,,,,,,,,,,,1759.9415,1760.944,,,1761.4431,1761.6928,,115,115,,,,,,,,,,,,,,,,bars/030.png,bars/mask000.png,,,,,,,,,,,,2,1,,,,,,,10,4,10,5,,,,,,,,,,,1760.944,1761.4431,1761.6928,1764.4744,space,2.767,,1764.4744,25,50,1765.4731,1765.4733,1765.4867,,,,0,9,9,9,1,140,65,,,,,,,,
,,5f18ba940ce7b80d1875c975,65af53cbe8cf4b3e6d3334d6,2024-01-23_07h54.08.956,bars,2023.2.3,Win32,60.24096386,657b66ea316d21385b68909f,,,,,,,,,,,1765.4871,1766.4883,,,1766.9883,1767.2311,,68,68,,,,,,,,,,,,,,,,bars/031.png,bars/mask002.png,,,,,,,,,,,,0,2,,,,,,,8,2,9,3,,,,,,,,,,,1766.4884,1766.9883,1767.2312,1772.4927,space,5.254,,1772.4927,52,33,1773.4906,1773.4907,1773.5074,,,,0,10,10,10,1,120,35,,,,,,,,
,,5f18ba940ce7b80d1875c975,65af53cbe8cf4b3e6d3334d6,2024-01-23_07h54.08.956,bars,2023.2.3,Win32,60.24096386,657b66ea316d21385b68909f,,,,,,,,,,,1773.5077,1774.4961,,,1774.9961,1775.2458,,135,135,,,,,,,,,,,,,,,,bars/012.png,bars/mask007.png,,,,,,,,,,,,0,1,,,,,,,6,4,6,5,,,,,,,,,,,1774.4962,1774.996,1775.2458,1778.9591,space,3.6977,,1778.9591,45,60,1779.9578,1779.9579,1779.9741,,,,0,11,11,11,1,90,15,,,,,,,,
,,5f18ba940ce7b80d1875c975,65af53cbe8cf4b3e6d3334d6,2024-01-23_07h54.08.956,bars,2023.2.3,Win32,60.24096386,657b66ea316d21385b68909f,,,,,,,,,,,1779.9745,1780.9656,,,1781.4651,1781.7102,,16,16,,,,,,,,,,,,,,,,bars/011.png,bars/mask000.png,,,,,,,,,,,,0,1,,,,,,,8,6,8,5,,,,,,,,,,,1780.9656,1781.465,1781.7103,1785.213,space,3.4823,,1785.213,36,69,1786.2088,1786.2089,1786.2237,,,,0,12,12,12,1,160,85,,,,,,,,
,,5f18ba940ce7b80d1875c975,65af53cbe8cf4b3e6d3334d6,2024-01-23_07h54.08.956,bars,2023.2.3,Win32,60.24096386,657b66ea316d21385b68909f,,,,,,,,,,,1786.2241,1787.2279,,,1787.7169,1787.9668,,139,139,,,,,,,,,,,,,,,,bars/002.png,bars/mask006.png,,,,,,,,,,,,4,1,,,,,,,6,4,5,4,,,,,,,,,,,1787.228,1787.7168,1787.9668,1792.7954,space,4.8126,,1792.7954,9,54,1793.7939,1793.7939,1793.8105,,,,0,13,13,13,1,130,85,,,,,,,,
,,5f18ba940ce7b80d1875c975,65af53cbe8cf4b3e6d3334d6,2024-01-23_07h54.08.956,bars,2023.2.3,Win32,60.24096386,657b66ea316d21385b68909f,,,,,,,,,,,1793.811,1794.8099,,,1795.3102,1795.5588,,61,61,,,,,,,,,,,,,,,,bars/045.png,bars/mask004.png,,,,,,,,,,,,0,1,,,,,,,8,6,7,5,,,,,,,,,,,1794.81,1795.31,1795.5588,1800.9703,space,5.3983,,1800.9704,39,51,1801.9693,1801.9693,1801.9864,,,,0,14,14,14,1,100,10,,,,,,,,
,,5f18ba940ce7b80d1875c975,65af53cbe8cf4b3e6d3334d6,2024-01-23_07h54.08.956,bars,2023.2.3,Win32,60.24096386,657b66ea316d21385b68909f,,,,,,,,,,,1801.9867,1802.9851,,,1803.4844,1803.7342,,33,33,,,,,,,,,,,,,,,,bars/041.png,bars/mask008.png,,,,,,,,,,,,3,1,,,,,,,6,8,6,9,,,,,,,,,,,1802.9852,1803.4844,1803.7342,1807.3978,space,3.653,,1807.3979,13,52,1808.396,1808.396,1808.4104,,,,0,15,15,15,1,20,85,,,,,,,,
,,5f18ba940ce7b80d1875c975,65af53cbe8cf4b3e6d3334d6,2024-01-23_07h54.08.956,bars,2023.2.3,Win32,60.24096386,657b66ea316d21385b68909f,,,,,,,,,,,1808.4106,1809.4125,,,1809.9119,1810.1616,,140,140,,,,,,,,,,,,,,,,bars/038.png,bars/mask006.png,,,,,,,,,,,,1,1,,,,,,,8,10,9,10,,,,,,,,,,,1809.4125,1809.9118,1810.1617,1813.5251,space,3.3491,,1813.5251,25,70,1814.5255,1814.5255,1814.5385,,,,0,16,16,16,1,165,70,,,,,,,,
,,5f18ba940ce7b80d1875c975,65af53cbe8cf4b3e6d3334d6,2024-01-23_07h54.08.956,bars,2023.2.3,Win32,60.24096386,657b66ea316d21385b68909f,,,,,,,,,,,1814.5389,1815.5391,,,1816.0388,1816.2886,,92,92,,,,,,,,,,,,,,,,bars/012.png,bars/mask001.png,,,,,,,,,,,,5,1,,,,,,,6,10,5,8,,,,,,,,,,,1815.5392,1816.0387,1816.2886,1817.5374,space,1.2335,,1817.5374,2,77,1818.5363,1818.5363,1818.5378,,,,0,17,17,17,1,90,15,,,,,,,,
,,5f18ba940ce7b80d1875c975,65af53cbe8cf4b3e6d3334d6,2024-01-23_07h54.08.956,bars,2023.2.3,Win32,60.24096386,657b66ea316d21385b68909f,,,,,,,,,,,1818.5381,1819.5353,,,1820.0355,1820.2848,,140,140,,,,,,,,,,,,,,,,bars/015.png,bars/mask009.png,,,,,,,,,,,,3,2,,,,,,,4,10,4,10,,,,,,,,,,,1819.5354,1820.0355,1820.2849,1823.0825,space,2.7812,,1823.0825,30,20,1824.0809,1824.0809,1824.0979,,,,0,18,18,18,1,110,160,,,,,,,,
,,5f18ba940ce7b80d1875c975,65af53cbe8cf4b3e6d3334d6,2024-01-23_07h54.08.956,bars,2023.2.3,Win32,60.24096386,657b66ea316d21385b68909f,,,,,,,,,,,1824.0983,1825.0966,,,1825.5963,1825.8462,,32,32,,,,,,,,,,,,,,,,bars/004.png,bars/mask007.png,,,,,,,,,,,,5,1,,,,,,,6,8,6,8,,,,,,,,,,,1825.0966,1825.5962,1825.8463,1830.7251,space,4.8634,,1830.7251,7,87,1831.7237,1831.7237,1831.7393,,,,0,19,19,19,1,25,125,,,,,,,,
,,5f18ba940ce7b80d1875c975,65af53cbe8cf4b3e6d3334d6,2024-01-23_07h54.08.956,bars,2023.2.3,Win32,60.24096386,657b66ea316d21385b68909f,,,,,,,,,,,1831.7398,1832.7393,,,1833.2386,1833.4907,,138,138,,,,,,,,,,,,,,,,bars/032.png,bars/mask002.png,,,,,,,,,,,,2,1,,,,,,,4,6,4,6,,,,,,,,,,,1832.7394,1833.2386,1833.4908,1837.4373,space,3.9395,,1837.4374,13,62,1838.4354,1838.4355,1838.449,,,,0,20,20,20,1,125,20,,,,,,,,
,,5f18ba940ce7b80d1875c975,65af53cbe8cf4b3e6d3334d6,2024-01-23_07h54.08.956,bars,2023.2.3,Win32,60.24096386,657b66ea316d21385b68909f,,,,,,,,,,,1838.4501,1839.4493,,,1839.9491,1840.1989,,131,131,,,,,,,,,,,,,,,,bars/045.png,bars/mask009.png,,,,,,,,,,,,0,1,,,,,,,2,8,3,8,,,,,,,,,,,1839.4493,1839.9491,1840.1989,1842.9151,space,2.7065,,1842.9151,31,59,1843.9119,1843.912,1843.9261,,,,0,21,21,21,1,100,10,,,,,,,,
,,5f18ba940ce7b80d1875c975,65af53cbe8cf4b3e6d3334d6,2024-01-23_07h54.08.956,bars,2023.2.3,Win32,60.24096386,657b66ea316d21385b68909f,,,,,,,,,,,1843.9265,1844.927,,,1845.4265,1845.6763,,154,154,,,,,,,,,,,,,,,,bars/007.png,bars/mask000.png,,,,,,,,,,,,2,1,,,,,,,4,6,5,8,,,,,,,,,,,1844.9271,1845.4265,1845.6763,1850.5389,space,4.8469,,1850.5389,21,81,1851.5377,1851.5377,1851.5512,,,,0,22,22,22,1,175,55,,,,,,,,
,,5f18ba940ce7b80d1875c975,65af53cbe8cf4b3e6d3334d6,2024-01-23_07h54.08.956,bars,2023.2.3,Win32,60.24096386,657b66ea316d21385b68909f,,,,,,,,,,,1851.5516,1852.5534,,,1853.0531,1853.3031,,34,34,,,,,,,,,,,,,,,,bars/023.png,bars/mask001.png,,,,,,,,,,,,2,1,,,,,,,6,8,4,9,,,,,,,,,,,1852.5534,1853.053,1853.3032,1857.253,space,3.9402,,1857.253,14,81,1858.248,1858.2481,1858.2624,,,,0,23,23,23,1,20,115,,,,,,,,
,,5f18ba940ce7b80d1875c975,65af53cbe8cf4b3e6d3334d6,2024-01-23_07h54.08.956,bars,2023.2.3,Win32,60.24096386,657b66ea316d21385b68909f,,,,,,,,,,,1858.2627,1859.2643,,,1859.7645,1860.0136,,129,129,,,,,,,,,,,,,,,,bars/025.png,bars/mask001.png,,,,,,,,,,,,2,1,,,,,,,8,6,8,8,,,,,,,,,,,1859.2644,1859.7645,1860.0138,1862.9441,space,2.9154,,1862.9441,24,89,1863.9427,1863.9428,1863.9565,,,,0,24,24,24,1,105,40,,,,,,,,
,,5f18ba940ce7b80d1875c975,65af53cbe8cf4b3e6d3334d6,2024-01-23_07h54.08.956,bars,2023.2.3,Win32,60.24096386,657b66ea316d21385b68909f,,,,,,,,,,,1863.9569,1864.9582,,,1865.4587,1865.7078,,144,144,,,,,,,,,,,,,,,,bars/035.png,bars/mask000.png,,,,,,,,,,,,0,1,,,,,,,6,8,7,8,,,,,,,,,,,1864.9583,1865.4586,1865.7078,1871.9705,space,6.254,,1871.9705,31,84,1872.9669,1872.967,1872.9813,,,,0,25,25,25,1,175,60,,,,,,,,
,,5f18ba940ce7b80d1875c975,65af53cbe8cf4b3e6d3334d6,2024-01-23_07h54.08.956,bars,2023.2.3,Win32,60.24096386,657b66ea316d21385b68909f,,,,,,,,,,,1872.9816,1873.9834,,,1874.4822,1874.7321,,41,41,,,,,,,,,,,,,,,,bars/012.png,bars/mask001.png,,,,,,,,,,,,1,2,,,,,,,4,6,5,5,,,,,,,,,,,1873.9835,1874.4822,1874.7323,1880.5861,space,5.8441,,1880.5861,49,26,1881.5753,1881.5755,1881.5985,,,,0,26,26,26,1,90,15,,,,,,,,
,,5f18ba940ce7b80d1875c975,65af53cbe8cf4b3e6d3334d6,2024-01-23_07h54.08.956,bars,2023.2.3,Win32,60.24096386,657b66ea316d21385b68909f,,,,,,,,,,,1881.5989,1882.5911,,,1883.0905,1883.3403,,161,161,,,,,,,,,,,,,,,,bars/017.png,bars/mask007.png,,,,,,,,,,,,3,1,,,,,,,6,4,6,3,,,,,,,,,,,1882.5911,1883.0905,1883.3403,1889.7666,space,6.4121,,1889.7667,16,64,1890.7667,1890.7667,1890.7852,,,,0,27,27,27,1,145,45,,,,,,,,
,,5f18ba940ce7b80d1875c975,65af53cbe8cf4b3e6d3334d6,2024-01-23_07h54.08.956,bars,2023.2.3,Win32,60.24096386,657b66ea316d21385b68909f,,,,,,,,,,,1890.7855,1891.7817,,,1892.2729,1892.522,,131,131,,,,,,,,,,,,,,,,bars/001.png,bars/mask005.png,,,,,,,,,,,,6,1,,,,,,,8,2,6,2,,,,,,,,,,,1891.7818,1892.2729,1892.5222,1895.6212,space,3.0827,,1895.6212,1,46,1896.6167,1896.6168,1896.6324,,,,0,28,28,28,1,130,85,,,,,,,,
,,5f18ba940ce7b80d1875c975,65af53cbe8cf4b3e6d3334d6,2024-01-23_07h54.08.956,bars,2023.2.3,Win32,60.24096386,657b66ea316d21385b68909f,,,,,,,,,,,1896.6328,1897.6344,,,1898.134,1898.3832,,125,125,,,,,,,,,,,,,,,,bars/015.png,bars/mask004.png,,,,,,,,,,,,4,1,,,,,,,6,0,7,0,,,,,,,,,,,1897.6345,1898.134,1898.3833,1899.5851,space,1.185,,1899.5853,15,35,1900.5732,1900.5732,1900.5741,,,,0,29,29,29,1,110,160,,,,,,,,
,,5f18ba940ce7b80d1875c975,65af53cbe8cf4b3e6d3334d6,2024-01-23_07h54.08.956,bars,2023.2.3,Win32,60.24096386,657b66ea316d21385b68909f,,,,,,,,,,,1900.5743,1901.564,,,1902.0627,1902.3131,,171,171,,,,,,,,,,,,,,,,bars/004.png,bars/mask009.png,,,,,,,,,,,,0,1,,,,,,,8,0,9,0,,,,,,,,,,,1901.5641,1902.0626,1902.3131,1905.8683,space,3.5348,,1905.8683,34,46,1906.8672,1906.8672,1906.8809,,,,0,30,30,30,1,25,125,,,,,,,,
,,5f18ba940ce7b80d1875c975,65af53cbe8cf4b3e6d3334d6,2024-01-23_07h54.08.956,bars,2023.2.3,Win32,60.24096386,657b66ea316d21385b68909f,,,,,,,,,,,1906.8812,1907.8832,,,1908.3736,1908.6237,,23,203,,,,,,,,,,,,,,,,bars/043.png,bars/mask003.png,,,,,,,,,,,,8,1,,,,,,,10,0,10,2,,,,,,,,,,,1907.8833,1908.3735,1908.6237,1912.3368,space,3.6968,,1912.3368,7,73,1913.3268,1913.3268,1913.3404,,,,0,31,31,31,1,30,130,,,,,,,,
,,5f18ba940ce7b80d1875c975,65af53cbe8cf4b3e6d3334d6,2024-01-23_07h54.08.956,bars,2023.2.3,Win32,60.24096386,657b66ea316d21385b68909f,,,,,,,,,,,1913.3407,1914.3336,,,1914.8342,1915.0846,,136,136,,,,,,,,,,,,,,,,bars/044.png,bars/mask002.png,,,,,,,,,,,,0,2,,,,,,,10,0,9,0,,,,,,,,,,,1914.3337,1914.8341,1915.0846,1917.7987,space,2.6991,,1917.7987,61,19,1918.799,1918.799,1918.8177,,,,0,32,32,32,1,75,155,,,,,,,,
,,5f18ba940ce7b80d1875c975,65af53cbe8cf4b3e6d3334d6,2024-01-23_07h54.08.956,bars,2023.2.3,Win32,60.24096386,657b66ea316d21385b68909f,,,,,,,,,,,1918.818,1919.8066,,,1920.3033,1920.553,,115,115,,,,,,,,,,,,,,,,bars/020.png,bars/mask000.png,,,,,,,,,,,,10,1,,,,,,,10,0,10,1,,,,,,,,,,,1919.8067,1920.3033,1920.553,1924.5163,space,3.9479,,1924.5164,0,55,1925.5162,1925.5162,1925.5314,,,,0,33,33,33,1,115,170,,,,,,,,
,,5f18ba940ce7b80d1875c975,65af53cbe8cf4b3e6d3334d6,2024-01-23_07h54.08.956,bars,2023.2.3,Win32,60.24096386,657b66ea316d21385b68909f,,,,,,,,,,,1925.5318,1926.5309,,,1927.0302,1927.28,,41,41,,,,,,,,,,,,,,,,bars/000.png,bars/mask005.png,,,,,,,,,,,,9,1,,,,,,,8,2,9,2,,,,,,,,,,,1926.531,1927.03,1927.2801,1930.727,space,3.4302,,1930.727,1,76,1931.7256,1931.7256,1931.739,,,,0,34,34,34,1,40,145,,,,,,,,
,,5f18ba940ce7b80d1875c975,65af53cbe8cf4b3e6d3334d6,2024-01-23_07h54.08.956,bars,2023.2.3,Win32,60.24096386,657b66ea316d21385b68909f,,,,,,,,,,,1931.7392,1932.7416,,,1933.241,1933.4907,,131,131,,,,,,,,,,,,,,,,bars/045.png,bars/mask002.png,,,,,,,,,,,,0,1,,,,,,,10,4,10,5,,,,,,,,,,,1932.7418,1933.2409,1933.4907,1936.8042,space,3.2968,,1936.8043,31,59,1937.8028,1937.8028,1937.8167,,,,0,35,35,35,1,100,10,,,,,,,,
,,5f18ba940ce7b80d1875c975,65af53cbe8cf4b3e6d3334d6,2024-01-23_07h54.08.956,bars,2023.2.3,Win32,60.24096386,657b66ea316d21385b68909f,,,,,,,,,,,1937.8172,1938.8186,,,1939.318,1939.5679,,150,150,,,,,,,,,,,,,,,,bars/011.png,bars/mask004.png,,,,,,,,,,,,5,1,,,,,,,8,6,7,5,,,,,,,,,,,1938.8187,1939.3179,1939.568,1942.8696,space,3.2814,,1942.8701,10,65,1943.8636,1943.8637,1943.882,,,,0,36,36,36,1,160,85,,,,,,,,
,,5f18ba940ce7b80d1875c975,65af53cbe8cf4b3e6d3334d6,2024-01-23_07h54.08.956,bars,2023.2.3,Win32,60.24096386,657b66ea316d21385b68909f,,,,,,,,,,,1943.8824,1944.8804,,,1945.3793,1945.629,,136,136,,,,,,,,,,,,,,,,bars/034.png,bars/mask006.png,,,,,,,,,,,,4,1,,,,,,,6,8,7,9,,,,,,,,,,,1944.8805,1945.3792,1945.629,1950.4903,space,4.8461,,1950.4904,11,71,1951.4896,1951.4897,1951.505,,,,0,37,37,37,1,125,65,,,,,,,,
,,5f18ba940ce7b80d1875c975,65af53cbe8cf4b3e6d3334d6,2024-01-23_07h54.08.956,bars,2023.2.3,Win32,60.24096386,657b66ea316d21385b68909f,,,,,,,,,,,1951.5056,1952.5048,,,1953.0043,1953.2542,,122,122,,,,,,,,,,,,,,,,bars/025.png,bars/mask000.png,,,,,,,,,,,,3,1,,,,,,,8,6,8,7,,,,,,,,,,,1952.5048,1953.0043,1953.2543,1957.4014,space,4.1304,,1957.4015,17,82,1958.3997,1958.3998,1958.4172,,,,0,38,38,38,1,105,40,,,,,,,,
,,5f18ba940ce7b80d1875c975,65af53cbe8cf4b3e6d3334d6,2024-01-23_07h54.08.956,bars,2023.2.3,Win32,60.24096386,657b66ea316d21385b68909f,,,,,,,,,,,1958.4175,1959.4154,,,1959.9154,1960.1648,,76,76,,,,,,,,,,,,,,,,bars/012.png,bars/mask005.png,,,,,,,,,,,,5,1,,,,,,,10,4,9,3,,,,,,,,,,,1959.4155,1959.9152,1960.1649,1964.6276,space,4.4472,,1964.6277,14,61,1965.6264,1965.6265,1965.6398,,,,0,39,39,39,1,90,15,,,,,,,,
,,5f18ba940ce7b80d1875c975,65af53cbe8cf4b3e6d3334d6,2024-01-23_07h54.08.956,bars,2023.2.3,Win32,60.24096386,657b66ea316d21385b68909f,,,,,,,,,,,1965.6401,1966.6429,,,1967.1417,1967.3914,,152,-28,,,,,,,,,,,,,,,,bars/038.png,bars/mask002.png,,,,,,,,,,,,6,1,,,,,,,10,2,10,3,,,,,,,,,,,1966.6429,1967.1416,1967.3915,1973.852,space,6.4435,,1973.852,13,82,1974.8504,1974.8505,1974.8646,,,,0,40,40,40,1,165,70,,,,,,,,
,,5f18ba940ce7b80d1875c975,65af53cbe8cf4b3e6d3334d6,2024-01-23_07h54.08.956,bars,2023.2.3,Win32,60.24096386,657b66ea316d21385b68909f,,,,,,,,,,,1974.8649,1975.8664,,,1976.3655,1976.6156,,33,33,,,,,,,,,,,,,,,,bars/028.png,bars/mask003.png,,,,,,,,,,,,6,1,,,,,,,10,0,10,0,,,,,,,,,,,1975.8664,1976.3655,1976.6156,1982.0279,space,5.4034,,1982.028,12,87,1983.0261,1983.0262,1983.0393,,,,0,41,41,41,1,45,120,,,,,,,,
,,5f18ba940ce7b80d1875c975,65af53cbe8cf4b3e6d3334d6,2024-01-23_07h54.08.956,bars,2023.2.3,Win32,60.24096386,657b66ea316d21385b68909f,,,,,,,,,,,1983.0398,1984.0417,,,1984.5417,1984.7913,,126,126,,,,,,,,,,,,,,,,bars/014.png,bars/mask004.png,,,,,,,,,,,,0,1,,,,,,,10,2,10,2,,,,,,,,,,,1984.0418,1984.5415,1984.7914,1988.2733,space,3.474,,1988.2734,46,54,1989.2699,1989.27,1989.2834,,,,0,42,42,42,1,80,0,,,,,,,,
,,5f18ba940ce7b80d1875c975,65af53cbe8cf4b3e6d3334d6,2024-01-23_07h54.08.956,bars,2023.2.3,Win32,60.24096386,657b66ea316d21385b68909f,,,,,,,,,,,1989.2838,1990.2852,,,1990.785,1991.035,,151,151,,,,,,,,,,,,,,,,bars/017.png,bars/mask008.png,,,,,,,,,,,,6,1,,,,,,,8,0,8,0,,,,,,,,,,,1990.2852,1990.7849,1991.035,1996.1163,space,5.0727,,1996.1164,6,74,1997.112,1997.1121,1997.1311,,,,0,43,43,43,1,145,45,,,,,,,,
,,5f18ba940ce7b80d1875c975,65af53cbe8cf4b3e6d3334d6,2024-01-23_07h54.08.956,bars,2023.2.3,Win32,60.24096386,657b66ea316d21385b68909f,,,,,,,,,,,1997.1316,1998.128,,,1998.6273,1998.8772,,55,55,,,,,,,,,,,,,,,,bars/031.png,bars/mask008.png,,,,,,,,,,,,0,2,,,,,,,6,0,6,0,,,,,,,,,,,1998.128,1998.6272,1998.8772,2002.1914,space,3.2975,,2002.1915,65,20,2003.1896,2003.1896,2003.2058,,,,0,44,44,44,1,120,35,,,,,,,,
,,5f18ba940ce7b80d1875c975,65af53cbe8cf4b3e6d3334d6,2024-01-23_07h54.08.956,bars,2023.2.3,Win32,60.24096386,657b66ea316d21385b68909f,,,,,,,,,,,2003.2062,2004.2052,,,2004.7052,2004.9545,,103,103,,,,,,,,,,,,,,,,bars/032.png,bars/mask001.png,,,,,,,,,,,,1,1,,,,,,,4,0,4,0,,,,,,,,,,,2004.2054,2004.705,2004.9545,2006.7034,space,1.7324,,2006.7035,22,83,2007.7017,2007.7018,2007.7042,,,,0,45,45,45,1,125,20,,,,,,,,
,,5f18ba940ce7b80d1875c975,65af53cbe8cf4b3e6d3334d6,2024-01-23_07h54.08.956,bars,2023.2.3,Win32,60.24096386,657b66ea316d21385b68909f,,,,,,,,,,,2007.7047,2008.7009,,,2009.2016,2009.4504,,132,132,,,,,,,,,,,,,,,,bars/040.png,bars/mask000.png,,,,,,,,,,,,3,1,,,,,,,6,2,4,2,,,,,,,,,,,2008.7009,2009.2015,2009.4505,2013.596,space,4.1356,,2013.5961,8,53,2014.5951,2014.5951,2014.6084,,,,0,46,46,46,1,140,5,,,,,,,,
,,5f18ba940ce7b80d1875c975,65af53cbe8cf4b3e6d3334d6,2024-01-23_07h54.08.956,bars,2023.2.3,Win32,60.24096386,657b66ea316d21385b68909f,,,,,,,,,,,2014.6089,2015.6103,,,2016.1105,2016.3604,,127,127,,,,,,,,,,,,,,,,bars/027.png,bars/mask008.png,,,,,,,,,,,,2,1,,,,,,,4,4,4,4,,,,,,,,,,,2015.6104,2016.1105,2016.3606,2019.0244,space,2.648,,2019.0245,17,77,2020.0237,2020.0238,2020.0375,,,,0,47,47,47,1,110,50,,,,,,,,
,,5f18ba940ce7b80d1875c975,65af53cbe8cf4b3e6d3334d6,2024-01-23_07h54.08.956,bars,2023.2.3,Win32,60.24096386,657b66ea316d21385b68909f,,,,,,,,,,,2020.0377,2021.0395,,,2021.5393,2021.7876,,148,148,,,,,,,,,,,,,,,,bars/031.png,bars/mask001.png,,,,,,,,,,,,0,1,,,,,,,6,6,7,5,,,,,,,,,,,2021.0395,2021.5391,2021.7876,2027.3993,space,5.5973,,2027.3993,28,67,2028.3982,2028.3983,2028.4153,,,,0,48,48,48,1,120,35,,,,,,,,
,,5f18ba940ce7b80d1875c975,65af53cbe8cf4b3e6d3334d6,2024-01-23_07h54.08.956,bars,2023.2.3,Win32,60.24096386,657b66ea316d21385b68909f,,,,,,,,,,,2028.4157,2029.4139,,,2029.9138,2030.1632,,23,23,,,,,,,,,,,,,,,,bars/016.png,bars/mask000.png,,,,,,,,,,,,4,1,,,,,,,8,8,9,8,,,,,,,,,,,2029.4141,2029.9137,2030.1632,2033.8432,space,3.6674,,2033.8432,17,38,2034.842,2034.842,2034.8571,,,,0,49,49,49,1,40,165,,,,,,,,
,,5f18ba940ce7b80d1875c975,65af53cbe8cf4b3e6d3334d6,2024-01-23_07h54.08.956,bars,2023.2.3,Win32,60.24096386,657b66ea316d21385b68909f,,,,,,,,,,,,,,,,,,,,,,,,,,,,,,,,,,,,,,,,,,,,,,,,,,,,,,,,,,,,,,,,,,,,,,,,,,,,,,,,,,,,,,,,,,,,,2034.8573,2094.8498,0,3,3,2,1,sequence_tables/blk034.csv
,,5f18ba940ce7b80d1875c975,65af53cbe8cf4b3e6d3334d6,2024-01-23_07h54.08.956,bars,2023.2.3,Win32,60.24096386,657b66ea316d21385b68909f,,,,,,,,,,,2096.0036,2096.9977,,,2097.4972,2097.7469,,14,14,,,,,,,,,,,,,,,,bars/004.png,bars/mask007.png,,,,,,,,,,,,1,1,,,,,,,1,9,1,7,,,,,,2094.864,2095.9985,space,1.1154,,2096.9978,2097.4971,2097.747,2100.7784,space,3.02,,2100.7785,11,69,2101.7763,2101.7763,2101.793,,,,0,0,0,0,1,25,125,,,,,,,,
,,5f18ba940ce7b80d1875c975,65af53cbe8cf4b3e6d3334d6,2024-01-23_07h54.08.956,bars,2023.2.3,Win32,60.24096386,657b66ea316d21385b68909f,,,,,,,,,,,2101.7933,2102.792,,,2103.2915,2103.5414,,104,104,,,,,,,,,,,,,,,,bars/008.png,bars/mask004.png,,,,,,,,,,,,4,1,,,,,,,3,7,5,6,,,,,,,,,,,2102.792,2103.2914,2103.5415,2106.9227,space,3.3729,,2106.9227,6,76,2107.9202,2107.9203,2107.9384,,,,0,1,1,1,1,110,0,,,,,,,,
,,5f18ba940ce7b80d1875c975,65af53cbe8cf4b3e6d3334d6,2024-01-23_07h54.08.956,bars,2023.2.3,Win32,60.24096386,657b66ea316d21385b68909f,,,,,,,,,,,2107.939,2108.9362,,,2109.4352,2109.6853,,116,116,,,,,,,,,,,,,,,,bars/032.png,bars/mask001.png,,,,,,,,,,,,3,1,,,,,,,5,9,4,9,,,,,,,,,,,2108.9363,2109.4351,2109.6853,2115.0468,space,5.3455,,2115.0468,9,84,2116.0455,2116.0455,2116.0624,,,,0,2,2,2,1,125,20,,,,,,,,
,,5f18ba940ce7b80d1875c975,65af53cbe8cf4b3e6d3334d6,2024-01-23_07h54.08.956,bars,2023.2.3,Win32,60.24096386,657b66ea316d21385b68909f,,,,,,,,,,,2116.0627,2117.0613,,,2117.5603,2117.81,,142,142,,,,,,,,,,,,,,,,bars/036.png,bars/mask007.png,,,,,,,,,,,,5,1,,,,,,,3,7,5,10,,,,,,,,,,,2117.0614,2117.5602,2117.81,2120.6491,space,2.8289,,2120.6492,3,58,2121.6396,2121.6397,2121.6567,,,,0,3,3,3,1,145,20,,,,,,,,
,,5f18ba940ce7b80d1875c975,65af53cbe8cf4b3e6d3334d6,2024-01-23_07h54.08.956,bars,2023.2.3,Win32,60.24096386,657b66ea316d21385b68909f,,,,,,,,,,,2121.6576,2122.6571,,,2123.1559,2123.4049,,103,103,,,,,,,,,,,,,,,,bars/034.png,bars/mask007.png,,,,,,,,,,,,0,1,,,,,,,1,5,1,4,,,,,,,,,,,2122.6571,2123.1559,2123.4049,2128.1673,space,4.7468,,2128.1674,22,38,2129.1661,2129.1662,2129.1818,,,,0,4,4,4,1,125,65,,,,,,,,
,,5f18ba940ce7b80d1875c975,65af53cbe8cf4b3e6d3334d6,2024-01-23_07h54.08.956,bars,2023.2.3,Win32,60.24096386,657b66ea316d21385b68909f,,,,,,,,,,,2129.1825,2130.1817,,,2130.6811,2130.9311,,43,43,,,,,,,,,,,,,,,,bars/023.png,bars/mask000.png,,,,,,,,,,,,1,1,,,,,,,3,3,5,1,,,,,,,,,,,2130.1817,2130.681,2130.9312,2133.6454,space,2.7012,,2133.6455,23,72,2134.6441,2134.6441,2134.6599,,,,0,5,5,5,1,20,115,,,,,,,,
,,5f18ba940ce7b80d1875c975,65af53cbe8cf4b3e6d3334d6,2024-01-23_07h54.08.956,bars,2023.2.3,Win32,60.24096386,657b66ea316d21385b68909f,,,,,,,,,,,2134.6605,2135.6595,,,2136.1591,2136.4087,,122,122,,,,,,,,,,,,,,,,bars/001.png,bars/mask002.png,,,,,,,,,,,,5,1,,,,,,,5,1,7,2,,,,,,,,,,,2135.6596,2136.159,2136.4088,2141.6069,space,5.1904,,2141.607,8,37,2142.6034,2142.6035,2142.6199,,,,0,6,6,6,1,130,85,,,,,,,,
,,5f18ba940ce7b80d1875c975,65af53cbe8cf4b3e6d3334d6,2024-01-23_07h54.08.956,bars,2023.2.3,Win32,60.24096386,657b66ea316d21385b68909f,,,,,,,,,,,2142.6203,2143.6188,,,2144.1183,2144.3677,,25,205,,,,,,,,,,,,,,,,bars/003.png,bars/mask004.png,,,,,,,,,,,,3,1,,,,,,,3,3,3,3,,,,,,,,,,,2143.6189,2144.1183,2144.3678,2151.1949,space,6.811,,2151.195,0,65,2152.1935,2152.1935,2152.2076,,,,0,7,7,7,1,25,140,,,,,,,,
,,5f18ba940ce7b80d1875c975,65af53cbe8cf4b3e6d3334d6,2024-01-23_07h54.08.956,bars,2023.2.3,Win32,60.24096386,657b66ea316d21385b68909f,,,,,,,,,,,2152.2078,2153.2092,,,2153.7093,2153.9585,,22,22,,,,,,,,,,,,,,,,bars/007.png,bars/mask008.png,,,,,,,,,,,,0,1,,,,,,,5,1,3,1,,,,,,,,,,,2153.2092,2153.7092,2153.9585,2158.321,space,4.3466,,2158.3211,27,33,2159.32,2159.3201,2159.3372,,,,0,8,8,8,1,175,55,,,,,,,,
,,5f18ba940ce7b80d1875c975,65af53cbe8cf4b3e6d3334d6,2024-01-23_07h54.08.956,bars,2023.2.3,Win32,60.24096386,657b66ea316d21385b68909f,,,,,,,,,,,2159.3376,2160.3358,,,2160.8349,2161.0848,,128,128,,,,,,,,,,,,,,,,bars/020.png,bars/mask001.png,,,,,,,,,,,,1,1,,,,,,,3,3,2,5,,,,,,,,,,,2160.3358,2160.8349,2161.0848,2166.0966,space,4.9972,,2166.0966,13,42,2167.0954,2167.0955,2167.1098,,,,0,9,9,9,1,115,170,,,,,,,,
,,5f18ba940ce7b80d1875c975,65af53cbe8cf4b3e6d3334d6,2024-01-23_07h54.08.956,bars,2023.2.3,Win32,60.24096386,657b66ea316d21385b68909f,,,,,,,,,,,2167.1101,2168.1113,,,2168.6108,2168.8606,,13,13,,,,,,,,,,,,,,,,bars/005.png,bars/mask004.png,,,,,,,,,,,,0,1,,,,,,,1,1,0,0,,,,,,,,,,,2168.1113,2168.6108,2168.8606,2173.8753,space,5.0056,,2173.8755,3,53,2174.8713,2174.8713,2174.8844,,,,0,10,10,10,1,10,140,,,,,,,,
,,5f18ba940ce7b80d1875c975,65af53cbe8cf4b3e6d3334d6,2024-01-23_07h54.08.956,bars,2023.2.3,Win32,60.24096386,657b66ea316d21385b68909f,,,,,,,,,,,2174.8849,2175.887,,,2176.3863,2176.6366,,37,37,,,,,,,,,,,,,,,,bars/000.png,bars/mask003.png,,,,,,,,,,,,3,1,,,,,,,3,0,3,0,,,,,,,,,,,2175.8871,2176.3862,2176.6366,2182.0818,space,5.4277,,2182.082,3,72,2183.08,2183.0801,2183.0974,,,,0,11,11,11,1,40,145,,,,,,,,
