init_variables.started,init_variables.stopped,participant,session,date,expName,psychopyVersion,OS,frameRate,study_id,instruction_exp.started,instruction_exp.stopped,key_resp_8.keys,key_resp_8.rt,key_resp_8.duration,instruction_single.started,instruction_single.stopped,key_resp_2.keys,key_resp_2.rt,key_resp_2.duration,interval.started,interval.stopped,cue_single.started,cue_single.stopped,mask.started,mask.stopped,ori_response_single.started,res_ori,res,ori_response_single.stopped,key_resp_single.keys,key_resp_single.rt,key_resp_single.duration,disp_single.started,disp_single.stopped,key_resp.keys,key_resp.rt,key_resp.duration,single.thisRepN,single.thisTrialN,single.thisN,single.thisIndex,single.ran,ori,path,mask_path,instruction_bandit.started,instruction_bandit.stopped,key_resp_6.keys,key_resp_6.rt,key_resp_6.duration,cue_bandit.started,cue_bandit.stopped,bandit_res.keys,bandit_res.rt,bandit_res.duration,outcome_bandit.started,rew,action,outcome_bandit.stopped,bandit.thisRepN,bandit.thisTrialN,bandit.thisN,bandit.thisIndex,bandit.ran,actual_rew1,actual_rew2,rew1,rew2,instruction_task.started,instruction_task.stopped,key_resp_7.keys,key_resp_7.rt,key_resp_7.duration,wait_ready.started,wait_ready.stopped,key_resp_3.keys,key_resp_3.rt,key_resp_3.duration,cue.started,cue.stopped,ori_response.started,ori_response.stopped,key_resp_5.keys,key_resp_5.rt,key_resp_5.duration,outcome.started,diff1,diff2,outcome.stopped,disp_outcome_practice.started,disp_outcome_practice.stopped,key_resp_4.keys,key_resp_4.rt,key_resp_4.duration,trials.thisRepN,trials.thisTrialN,trials.thisN,trials.thisIndex,trials.ran,ori1,ori2,break_blk.started,break_blk.stopped,block.thisRepN,block.thisTrialN,block.thisN,block.thisIndex,block.ran,condition_file
0,0,61656a7e58d53cbb92ade865,65af578674eb1d0e84c24b4b,2024-01-23_08h08.07.170,bars,2023.2.3,Win32,60.0240096,657b66ea316d21385b68909f,,,,,,,,,,,,,,,,,,,,,,,,,,,,,,,,,,,,,,,,,,,,,,,,,,,,,,,,,,,,,,,,,,,,,,,,,,,,,,,,,,,,,,,,,,,,,,,,,,,,
,,61656a7e58d53cbb92ade865,65af578674eb1d0e84c24b4b,2024-01-23_08h08.07.170,bars,2023.2.3,Win32,60.0240096,657b66ea316d21385b68909f,0,16.194,y,16.167,,,,,,,,,,,,,,,,,,,,,,,,,,,,,,,,,,,,,,,,,,,,,,,,,,,,,,,,,,,,,,,,,,,,,,,,,,,,,,,,,,,,,,,,,,,,,,,,
,,61656a7e58d53cbb92ade865,65af578674eb1d0e84c24b4b,2024-01-23_08h08.07.170,bars,2023.2.3,Win32,60.0240096,657b66ea316d21385b68909f,,,,,,16.194,127.358,space,111.139,,,,,,,,,,,,,,,,,,,,,,,,,,,,,,,,,,,,,,,,,,,,,,,,,,,,,,,,,,,,,,,,,,,,,,,,,,,,,,,,,,,,,,,,,,,
,,61656a7e58d53cbb92ade865,65af578674eb1d0e84c24b4b,2024-01-23_08h08.07.170,bars,2023.2.3,Win32,60.0240096,657b66ea316d21385b68909f,,,,,,,,,,,127.37,128.368,128.368,128.867,128.867,129.116,129.117,90,90,145.317,space,16.155,,145.317,161.205,space,15.855,,0,0,0,4,1,95,bars/single004.png,bars/mask004.png,,,,,,,,,,,,,,,,,,,,,,,,,,,,,,,,,,,,,,,,,,,,,,,,,,,,,,,,,,,,,,,,
,,61656a7e58d53cbb92ade865,65af578674eb1d0e84c24b4b,2024-01-23_08h08.07.170,bars,2023.2.3,Win32,60.0240096,657b66ea316d21385b68909f,,,,,,,,,,,161.206,162.201,162.201,162.7,162.7,162.95,162.95,89,89,175.954,space,12.982,,175.954,184.746,space,8.77,,0,1,1,0,1,150,bars/single000.png,bars/mask006.png,,,,,,,,,,,,,,,,,,,,,,,,,,,,,,,,,,,,,,,,,,,,,,,,,,,,,,,,,,,,,,,,
,,61656a7e58d53cbb92ade865,65af578674eb1d0e84c24b4b,2024-01-23_08h08.07.170,bars,2023.2.3,Win32,60.0240096,657b66ea316d21385b68909f,,,,,,,,,,,184.748,185.744,185.744,186.245,186.245,186.493,186.493,128,128,192.154,space,5.645,,192.154,195.903,space,3.735,,0,2,2,8,1,160,bars/single008.png,bars/mask004.png,,,,,,,,,,,,,,,,,,,,,,,,,,,,,,,,,,,,,,,,,,,,,,,,,,,,,,,,,,,,,,,,
,,61656a7e58d53cbb92ade865,65af578674eb1d0e84c24b4b,2024-01-23_08h08.07.170,bars,2023.2.3,Win32,60.0240096,657b66ea316d21385b68909f,,,,,,,,,,,195.904,196.902,196.902,197.399,197.399,197.648,197.648,146,146,203.594,space,5.933,,203.594,207.425,space,3.809,,0,3,3,7,1,45,bars/single007.png,bars/mask009.png,,,,,,,,,,,,,,,,,,,,,,,,,,,,,,,,,,,,,,,,,,,,,,,,,,,,,,,,,,,,,,,,
,,61656a7e58d53cbb92ade865,65af578674eb1d0e84c24b4b,2024-01-23_08h08.07.170,bars,2023.2.3,Win32,60.0240096,657b66ea316d21385b68909f,,,,,,,,,,,207.426,208.422,208.422,208.921,208.921,209.171,209.171,146,146,214.466,space,5.279,,214.466,218.081,space,3.601,,0,4,4,5,1,55,bars/single005.png,bars/mask008.png,,,,,,,,,,,,,,,,,,,,,,,,,,,,,,,,,,,,,,,,,,,,,,,,,,,,,,,,,,,,,,,,
,,61656a7e58d53cbb92ade865,65af578674eb1d0e84c24b4b,2024-01-23_08h08.07.170,bars,2023.2.3,Win32,60.0240096,657b66ea316d21385b68909f,,,,,,,,,,,218.082,219.078,219.078,219.578,219.578,219.826,219.826,148,148,222.642,space,2.796,,222.642,224.44,space,1.78,,0,5,5,6,1,175,bars/single006.png,bars/mask005.png,,,,,,,,,,,,,,,,,,,,,,,,,,,,,,,,,,,,,,,,,,,,,,,,,,,,,,,,,,,,,,,,
,,61656a7e58d53cbb92ade865,65af578674eb1d0e84c24b4b,2024-01-23_08h08.07.170,bars,2023.2.3,Win32,60.0240096,657b66ea316d21385b68909f,,,,,,,,,,,224.44,225.437,225.438,225.937,225.937,226.187,226.187,142,-38,231.964,space,5.765,,231.966,233.549,space,1.566,,0,6,6,1,1,20,bars/single001.png,bars/mask006.png,,,,,,,,,,,,,,,,,,,,,,,,,,,,,,,,,,,,,,,,,,,,,,,,,,,,,,,,,,,,,,,,
,,61656a7e58d53cbb92ade865,65af578674eb1d0e84c24b4b,2024-01-23_08h08.07.170,bars,2023.2.3,Win32,60.0240096,657b66ea316d21385b68909f,,,,,,,,,,,233.55,234.545,234.545,235.046,235.046,235.295,235.295,150,150,240.325,space,5.023,,240.325,244.09,space,3.749,,0,7,7,2,1,145,bars/single002.png,bars/mask003.png,,,,,,,,,,,,,,,,,,,,,,,,,,,,,,,,,,,,,,,,,,,,,,,,,,,,,,,,,,,,,,,,
,,61656a7e58d53cbb92ade865,65af578674eb1d0e84c24b4b,2024-01-23_08h08.07.170,bars,2023.2.3,Win32,60.0240096,657b66ea316d21385b68909f,,,,,,,,,,,244.091,245.086,245.086,245.586,245.586,245.835,245.836,159,159,252.095,space,6.244,,252.096,259.189,space,7.071,,0,8,8,9,1,20,bars/single009.png,bars/mask006.png,,,,,,,,,,,,,,,,,,,,,,,,,,,,,,,,,,,,,,,,,,,,,,,,,,,,,,,,,,,,,,,,
,,61656a7e58d53cbb92ade865,65af578674eb1d0e84c24b4b,2024-01-23_08h08.07.170,bars,2023.2.3,Win32,60.0240096,657b66ea316d21385b68909f,,,,,,,,,,,259.19,260.191,260.191,260.687,260.687,260.936,260.936,161,161,267.282,space,6.333,,267.282,269.512,space,2.209,,0,9,9,3,1,20,bars/single003.png,bars/mask005.png,,,,,,,,,,,,,,,,,,,,,,,,,,,,,,,,,,,,,,,,,,,,,,,,,,,,,,,,,,,,,,,,
,,61656a7e58d53cbb92ade865,65af578674eb1d0e84c24b4b,2024-01-23_08h08.07.170,bars,2023.2.3,Win32,60.0240096,657b66ea316d21385b68909f,,,,,,,,,,,,,,,,,,,,,,,,,,,,,,,,,,,,,269.512,521.284,space,251.74,,,,,,,,,,,,,,,,,,,,,,,,,,,,,,,,,,,,,,,,,,,,,,,,,,,,,,,,,,,,
,,61656a7e58d53cbb92ade865,65af578674eb1d0e84c24b4b,2024-01-23_08h08.07.170,bars,2023.2.3,Win32,60.0240096,657b66ea316d21385b68909f,,,,,,,,,,,,,,,,,,,,,,,,,,,,,,,,,,,,,,,,,,521.29,527.376,right,6.051,,527.376,2,2,528.375,0,0,0,0,1,9,1,9,2,,,,,,,,,,,,,,,,,,,,,,,,,,,,,,,,,,,,,,,,,
,,61656a7e58d53cbb92ade865,65af578674eb1d0e84c24b4b,2024-01-23_08h08.07.170,bars,2023.2.3,Win32,60.0240096,657b66ea316d21385b68909f,,,,,,,,,,,,,,,,,,,,,,,,,,,,,,,,,,,,,,,,,,528.376,529.559,right,1.174,,529.559,1,2,530.555,0,1,1,1,1,10,0,10,1,,,,,,,,,,,,,,,,,,,,,,,,,,,,,,,,,,,,,,,,,
,,61656a7e58d53cbb92ade865,65af578674eb1d0e84c24b4b,2024-01-23_08h08.07.170,bars,2023.2.3,Win32,60.0240096,657b66ea316d21385b68909f,,,,,,,,,,,,,,,,,,,,,,,,,,,,,,,,,,,,,,,,,,530.555,531.374,left,0.806,,531.374,10,1,532.372,0,2,2,2,1,10,2,10,2,,,,,,,,,,,,,,,,,,,,,,,,,,,,,,,,,,,,,,,,,
,,61656a7e58d53cbb92ade865,65af578674eb1d0e84c24b4b,2024-01-23_08h08.07.170,bars,2023.2.3,Win32,60.0240096,657b66ea316d21385b68909f,,,,,,,,,,,,,,,,,,,,,,,,,,,,,,,,,,,,,,,,,,532.373,532.974,left,0.594,,532.974,7,1,533.971,0,3,3,3,1,8,4,7,3,,,,,,,,,,,,,,,,,,,,,,,,,,,,,,,,,,,,,,,,,
,,61656a7e58d53cbb92ade865,65af578674eb1d0e84c24b4b,2024-01-23_08h08.07.170,bars,2023.2.3,Win32,60.0240096,657b66ea316d21385b68909f,,,,,,,,,,,,,,,,,,,,,,,,,,,,,,,,,,,,,,,,,,533.971,534.753,left,0.762,,534.753,5,1,535.752,0,4,4,4,1,6,2,5,1,,,,,,,,,,,,,,,,,,,,,,,,,,,,,,,,,,,,,,,,,
,,61656a7e58d53cbb92ade865,65af578674eb1d0e84c24b4b,2024-01-23_08h08.07.170,bars,2023.2.3,Win32,60.0240096,657b66ea316d21385b68909f,,,,,,,,,,,,,,,,,,,,,,,,,,,,,,,,,,,,,,,,,,535.752,536.817,left,1.051,,536.817,4,1,537.815,0,5,5,5,1,4,4,4,4,,,,,,,,,,,,,,,,,,,,,,,,,,,,,,,,,,,,,,,,,
,,61656a7e58d53cbb92ade865,65af578674eb1d0e84c24b4b,2024-01-23_08h08.07.170,bars,2023.2.3,Win32,60.0240096,657b66ea316d21385b68909f,,,,,,,,,,,,,,,,,,,,,,,,,,,,,,,,,,,,,,,,,,537.815,538.415,right,0.584,,538.415,2,2,539.405,0,6,6,6,1,2,2,1,2,,,,,,,,,,,,,,,,,,,,,,,,,,,,,,,,,,,,,,,,,
,,61656a7e58d53cbb92ade865,65af578674eb1d0e84c24b4b,2024-01-23_08h08.07.170,bars,2023.2.3,Win32,60.0240096,657b66ea316d21385b68909f,,,,,,,,,,,,,,,,,,,,,,,,,,,,,,,,,,,,,,,,,,539.406,539.832,left,0.409,,539.832,0,1,540.829,0,7,7,7,1,0,0,0,1,,,,,,,,,,,,,,,,,,,,,,,,,,,,,,,,,,,,,,,,,
,,61656a7e58d53cbb92ade865,65af578674eb1d0e84c24b4b,2024-01-23_08h08.07.170,bars,2023.2.3,Win32,60.0240096,657b66ea316d21385b68909f,,,,,,,,,,,,,,,,,,,,,,,,,,,,,,,,,,,,,,,,,,540.83,541.531,left,0.69,,541.531,1,1,542.528,0,8,8,8,1,0,2,1,0,,,,,,,,,,,,,,,,,,,,,,,,,,,,,,,,,,,,,,,,,
,,61656a7e58d53cbb92ade865,65af578674eb1d0e84c24b4b,2024-01-23_08h08.07.170,bars,2023.2.3,Win32,60.0240096,657b66ea316d21385b68909f,,,,,,,,,,,,,,,,,,,,,,,,,,,,,,,,,,,,,,,,,,542.529,543.044,right,0.5,,543.044,3,2,544.044,0,9,9,9,1,2,4,2,3,,,,,,,,,,,,,,,,,,,,,,,,,,,,,,,,,,,,,,,,,
,,61656a7e58d53cbb92ade865,65af578674eb1d0e84c24b4b,2024-01-23_08h08.07.170,bars,2023.2.3,Win32,60.0240096,657b66ea316d21385b68909f,,,,,,,,,,,,,,,,,,,,,,,,,,,,,,,,,,,,,,,,,,544.044,544.66,right,0.607,,544.661,3,2,545.66,0,10,10,10,1,0,2,0,3,,,,,,,,,,,,,,,,,,,,,,,,,,,,,,,,,,,,,,,,,
,,61656a7e58d53cbb92ade865,65af578674eb1d0e84c24b4b,2024-01-23_08h08.07.170,bars,2023.2.3,Win32,60.0240096,657b66ea316d21385b68909f,,,,,,,,,,,,,,,,,,,,,,,,,,,,,,,,,,,,,,,,,,545.66,546.059,left,0.386,,546.059,0,1,547.056,0,11,11,11,1,0,4,0,3,,,,,,,,,,,,,,,,,,,,,,,,,,,,,,,,,,,,,,,,,
,,61656a7e58d53cbb92ade865,65af578674eb1d0e84c24b4b,2024-01-23_08h08.07.170,bars,2023.2.3,Win32,60.0240096,657b66ea316d21385b68909f,,,,,,,,,,,,,,,,,,,,,,,,,,,,,,,,,,,,,,,,,,547.059,547.659,right,0.588,,547.659,6,2,548.654,0,12,12,12,1,2,6,1,6,,,,,,,,,,,,,,,,,,,,,,,,,,,,,,,,,,,,,,,,,
,,61656a7e58d53cbb92ade865,65af578674eb1d0e84c24b4b,2024-01-23_08h08.07.170,bars,2023.2.3,Win32,60.0240096,657b66ea316d21385b68909f,,,,,,,,,,,,,,,,,,,,,,,,,,,,,,,,,,,,,,,,,,548.654,549.055,right,0.385,,549.055,3,2,550.052,0,13,13,13,1,0,4,1,3,,,,,,,,,,,,,,,,,,,,,,,,,,,,,,,,,,,,,,,,,
,,61656a7e58d53cbb92ade865,65af578674eb1d0e84c24b4b,2024-01-23_08h08.07.170,bars,2023.2.3,Win32,60.0240096,657b66ea316d21385b68909f,,,,,,,,,,,,,,,,,,,,,,,,,,,,,,,,,,,,,,,,,,550.053,550.505,right,0.439,,550.505,7,2,551.505,0,14,14,14,1,2,6,2,7,,,,,,,,,,,,,,,,,,,,,,,,,,,,,,,,,,,,,,,,,
,,61656a7e58d53cbb92ade865,65af578674eb1d0e84c24b4b,2024-01-23_08h08.07.170,bars,2023.2.3,Win32,60.0240096,657b66ea316d21385b68909f,,,,,,,,,,,,,,,,,,,,,,,,,,,,,,,,,,,,,,,,,,551.505,552.002,right,0.478,,552.002,9,2,553.002,0,15,15,15,1,4,8,3,9,,,,,,,,,,,,,,,,,,,,,,,,,,,,,,,,,,,,,,,,,
,,61656a7e58d53cbb92ade865,65af578674eb1d0e84c24b4b,2024-01-23_08h08.07.170,bars,2023.2.3,Win32,60.0240096,657b66ea316d21385b68909f,,,,,,,,,,,,,,,,,,,,,,,,,,,,,,,,,,,,,,,,,,553.002,553.486,right,0.47,,553.486,7,2,554.474,0,16,16,16,1,6,6,7,7,,,,,,,,,,,,,,,,,,,,,,,,,,,,,,,,,,,,,,,,,
,,61656a7e58d53cbb92ade865,65af578674eb1d0e84c24b4b,2024-01-23_08h08.07.170,bars,2023.2.3,Win32,60.0240096,657b66ea316d21385b68909f,,,,,,,,,,,,,,,,,,,,,,,,,,,,,,,,,,,,,,,,,,554.475,554.925,right,0.434,,554.926,5,2,555.915,0,17,17,17,1,8,4,9,5,,,,,,,,,,,,,,,,,,,,,,,,,,,,,,,,,,,,,,,,,
,,61656a7e58d53cbb92ade865,65af578674eb1d0e84c24b4b,2024-01-23_08h08.07.170,bars,2023.2.3,Win32,60.0240096,657b66ea316d21385b68909f,,,,,,,,,,,,,,,,,,,,,,,,,,,,,,,,,,,,,,,,,,555.915,556.532,right,0.601,,556.532,1,2,557.53,0,18,18,18,1,6,2,5,1,,,,,,,,,,,,,,,,,,,,,,,,,,,,,,,,,,,,,,,,,
,,61656a7e58d53cbb92ade865,65af578674eb1d0e84c24b4b,2024-01-23_08h08.07.170,bars,2023.2.3,Win32,60.0240096,657b66ea316d21385b68909f,,,,,,,,,,,,,,,,,,,,,,,,,,,,,,,,,,,,,,,,,,557.53,557.98,left,0.434,,557.98,7,1,558.979,0,19,19,19,1,8,0,7,0,,,,,,,,,,,,,,,,,,,,,,,,,,,,,,,,,,,,,,,,,
,,61656a7e58d53cbb92ade865,65af578674eb1d0e84c24b4b,2024-01-23_08h08.07.170,bars,2023.2.3,Win32,60.0240096,657b66ea316d21385b68909f,,,,,,,,,,,,,,,,,,,,,,,,,,,,,,,,,,,,,,,,,,,,,,,,,,,,,,,,,,,,558.98,609.116,space,50.113,,,,,,,,,,,,,,,,,,,,,,,,,,,,,,,,,,,,,
,,61656a7e58d53cbb92ade865,65af578674eb1d0e84c24b4b,2024-01-23_08h08.07.170,bars,2023.2.3,Win32,60.0240096,657b66ea316d21385b68909f,,,,,,,,,,,611.706,612.7,,,613.193,613.443,,167,167,,,,,,,,,,,,,,,,bars/021.png,bars/mask007.png,,,,,,,,,,,,4,1,,,,,,,6,1,6,0,,,,,,609.124,611.696,space,2.555,,612.7,613.193,613.444,619.29,space,5.814,,619.29,12,83,620.293,620.293,625.449,space,5.121,,0,0,0,0,1,155,70,,,,,,,,
,,61656a7e58d53cbb92ade865,65af578674eb1d0e84c24b4b,2024-01-23_08h08.07.170,bars,2023.2.3,Win32,60.0240096,657b66ea316d21385b68909f,,,,,,,,,,,625.451,626.446,,,626.947,627.196,,156,-24,,,,,,,,,,,,,,,,bars/010.png,bars/mask006.png,,,,,,,,,,,,6,1,,,,,,,8,3,8,3,,,,,,,,,,,626.446,626.947,627.196,633.942,space,6.734,,633.942,9,79,634.938,634.938,638.769,space,3.811,,0,1,1,1,1,165,55,,,,,,,,
,,61656a7e58d53cbb92ade865,65af578674eb1d0e84c24b4b,2024-01-23_08h08.07.170,bars,2023.2.3,Win32,60.0240096,657b66ea316d21385b68909f,,,,,,,,,,,638.769,639.767,,,640.266,640.517,,166,166,,,,,,,,,,,,,,,,bars/018.png,bars/mask005.png,,,,,,,,,,,,5,1,,,,,,,10,5,10,6,,,,,,,,,,,639.767,640.266,640.517,643.899,space,3.37,,643.899,16,76,644.895,644.895,646.394,space,1.483,,0,2,2,2,1,150,90,,,,,,,,
,,61656a7e58d53cbb92ade865,65af578674eb1d0e84c24b4b,2024-01-23_08h08.07.170,bars,2023.2.3,Win32,60.0240096,657b66ea316d21385b68909f,,,,,,,,,,,646.395,647.393,,,647.892,648.142,,159,-21,,,,,,,,,,,,,,,,bars/006.png,bars/mask006.png,,,,,,,,,,,,0,1,,,,,,,10,3,9,2,,,,,,,,,,,647.393,647.892,648.142,653.455,space,5.3,,653.455,56,59,654.453,654.453,657.92,space,3.442,,0,3,3,3,1,35,100,,,,,,,,
,,61656a7e58d53cbb92ade865,65af578674eb1d0e84c24b4b,2024-01-23_08h08.07.170,bars,2023.2.3,Win32,60.0240096,657b66ea316d21385b68909f,,,,,,,,,,,657.921,658.914,,,659.414,659.664,,33,33,,,,,,,,,,,,,,,,bars/029.png,bars/mask002.png,,,,,,,,,,,,1,2,,,,,,,8,1,7,1,,,,,,,,,,,658.914,659.414,659.664,662.612,space,2.936,,662.612,57,12,663.611,663.611,666.25,space,2.614,,0,4,4,4,1,90,45,,,,,,,,
,,61656a7e58d53cbb92ade865,65af578674eb1d0e84c24b4b,2024-01-23_08h08.07.170,bars,2023.2.3,Win32,60.0240096,657b66ea316d21385b68909f,,,,,,,,,,,666.251,667.3,,,667.757,668.014,,88,88,,,,,,,,,,,,,,,,bars/024.png,bars/mask006.png,,,,,,,,,,,,0,1,,,,,,,6,0,6,0,,,,,,,,,,,667.301,667.757,668.017,672.247,space,4.216,,672.247,32,82,673.252,673.252,685.538,space,12.257,,0,5,5,5,1,120,170,,,,,,,,
,,61656a7e58d53cbb92ade865,65af578674eb1d0e84c24b4b,2024-01-23_08h08.07.170,bars,2023.2.3,Win32,60.0240096,657b66ea316d21385b68909f,,,,,,,,,,,685.539,686.537,,,687.037,687.287,,128,128,,,,,,,,,,,,,,,,bars/009.png,bars/mask007.png,,,,,,,,,,,,0,2,,,,,,,8,0,7,1,,,,,,,,,,,686.537,687.037,687.287,689.886,space,2.589,,689.887,67,23,690.883,690.883,696.079,space,5.165,,0,6,6,6,1,15,105,,,,,,,,
,,61656a7e58d53cbb92ade865,65af578674eb1d0e84c24b4b,2024-01-23_08h08.07.170,bars,2023.2.3,Win32,60.0240096,657b66ea316d21385b68909f,,,,,,,,,,,696.079,697.076,,,697.577,697.826,,104,104,,,,,,,,,,,,,,,,bars/021.png,bars/mask000.png,,,,,,,,,,,,0,2,,,,,,,10,2,10,3,,,,,,,,,,,697.076,697.577,697.827,702.055,space,4.215,,702.055,51,34,703.055,703.055,706.139,space,3.069,,0,7,7,7,1,155,70,,,,,,,,
,,61656a7e58d53cbb92ade865,65af578674eb1d0e84c24b4b,2024-01-23_08h08.07.170,bars,2023.2.3,Win32,60.0240096,657b66ea316d21385b68909f,,,,,,,,,,,706.14,707.133,,,707.633,707.883,,70,70,,,,,,,,,,,,,,,,bars/049.png,bars/mask000.png,,,,,,,,,,,,0,2,,,,,,,8,0,9,0,,,,,,,,,,,707.133,707.633,707.883,712.412,space,4.514,,712.413,90,45,713.411,713.411,722.772,space,9.346,,0,8,8,8,1,160,115,,,,,,,,
,,61656a7e58d53cbb92ade865,65af578674eb1d0e84c24b4b,2024-01-23_08h08.07.170,bars,2023.2.3,Win32,60.0240096,657b66ea316d21385b68909f,,,,,,,,,,,722.774,723.768,,,724.267,724.516,,110,110,,,,,,,,,,,,,,,,bars/020.png,bars/mask004.png,,,,,,,,,,,,7,1,,,,,,,6,0,8,0,,,,,,,,,,,723.768,724.267,724.516,729.614,space,5.087,,729.614,5,60,730.611,730.611,736.024,space,5.374,,0,9,9,9,1,115,170,,,,,,,,
,,61656a7e58d53cbb92ade865,65af578674eb1d0e84c24b4b,2024-01-23_08h08.07.170,bars,2023.2.3,Win32,60.0240096,657b66ea316d21385b68909f,,,,,,,,,,,736.025,737.021,,,737.521,737.771,,125,125,,,,,,,,,,,,,,,,bars/035.png,bars/mask006.png,,,,,,,,,,,,0,1,,,,,,,4,2,3,0,,,,,,,,,,,737.021,737.521,737.771,740.585,space,2.799,,740.585,50,65,741.583,741.583,743.734,space,2.129,,0,10,10,10,1,175,60,,,,,,,,
,,61656a7e58d53cbb92ade865,65af578674eb1d0e84c24b4b,2024-01-23_08h08.07.170,bars,2023.2.3,Win32,60.0240096,657b66ea316d21385b68909f,,,,,,,,,,,743.735,744.73,,,745.231,745.48,,170,-10,,,,,,,,,,,,,,,,bars/014.png,bars/mask003.png,,,,,,,,,,,,1,2,,,,,,,2,0,2,1,,,,,,,,,,,744.73,745.231,745.481,748.668,space,3.175,,748.668,90,10,749.666,749.666,751.508,space,1.806,,0,11,11,11,1,80,0,,,,,,,,
,,61656a7e58d53cbb92ade865,65af578674eb1d0e84c24b4b,2024-01-23_08h08.07.170,bars,2023.2.3,Win32,60.0240096,657b66ea316d21385b68909f,,,,,,,,,,,751.509,752.507,,,753.006,753.255,,4,184,,,,,,,,,,,,,,,,bars/015.png,bars/mask001.png,,,,,,,,,,,,0,2,,,,,,,4,2,6,2,,,,,,,,,,,752.507,753.006,753.255,756.62,space,3.35,,756.621,74,24,757.618,757.618,759.606,space,1.967,,0,12,12,12,1,110,160,,,,,,,,
,,61656a7e58d53cbb92ade865,65af578674eb1d0e84c24b4b,2024-01-23_08h08.07.170,bars,2023.2.3,Win32,60.0240096,657b66ea316d21385b68909f,,,,,,,,,,,759.608,760.598,,,761.081,761.332,,6,6,,,,,,,,,,,,,,,,bars/037.png,bars/mask002.png,,,,,,,,,,,,0,1,,,,,,,2,0,2,2,,,,,,,,,,,760.598,761.081,761.332,765.743,space,4.397,,765.743,36,81,766.743,766.744,768.626,space,1.858,,0,13,13,13,1,150,105,,,,,,,,
,,61656a7e58d53cbb92ade865,65af578674eb1d0e84c24b4b,2024-01-23_08h08.07.170,bars,2023.2.3,Win32,60.0240096,657b66ea316d21385b68909f,,,,,,,,,,,768.626,769.622,,,770.123,770.374,,135,135,,,,,,,,,,,,,,,,bars/030.png,bars/mask006.png,,,,,,,,,,,,5,1,,,,,,,4,0,6,0,,,,,,,,,,,769.623,770.122,770.374,773.854,space,3.47,,773.854,5,70,774.851,774.851,778.548,space,3.684,,0,14,14,14,1,140,65,,,,,,,,
,,61656a7e58d53cbb92ade865,65af578674eb1d0e84c24b4b,2024-01-23_08h08.07.170,bars,2023.2.3,Win32,60.0240096,657b66ea316d21385b68909f,,,,,,,,,,,778.549,779.546,,,780.045,780.296,,123,123,,,,,,,,,,,,,,,,bars/048.png,bars/mask009.png,,,,,,,,,,,,0,2,,,,,,,6,2,6,3,,,,,,,,,,,779.546,780.045,780.296,785.174,space,4.864,,785.174,73,52,786.173,786.173,789.82,space,3.62,,0,15,15,15,1,50,175,,,,,,,,
,,61656a7e58d53cbb92ade865,65af578674eb1d0e84c24b4b,2024-01-23_08h08.07.170,bars,2023.2.3,Win32,60.0240096,657b66ea316d21385b68909f,,,,,,,,,,,789.824,790.818,,,791.319,791.568,,172,172,,,,,,,,,,,,,,,,bars/007.png,bars/mask006.png,,,,,,,,,,,,8,1,,,,,,,8,4,9,2,,,,,,,,,,,790.818,791.319,791.568,794.414,space,2.832,,794.414,3,63,795.415,795.415,798.263,space,2.826,,0,16,16,16,1,175,55,,,,,,,,
,,61656a7e58d53cbb92ade865,65af578674eb1d0e84c24b4b,2024-01-23_08h08.07.170,bars,2023.2.3,Win32,60.0240096,657b66ea316d21385b68909f,,,,,,,,,,,798.264,799.261,,,799.76,800.01,,165,-15,,,,,,,,,,,,,,,,bars/009.png,bars/mask004.png,,,,,,,,,,,,0,1,,,,,,,6,2,5,1,,,,,,,,,,,799.261,799.76,800.01,806.32,space,6.295,,806.32,30,60,807.32,807.32,812.2,space,4.866,,0,17,17,17,1,15,105,,,,,,,,
,,61656a7e58d53cbb92ade865,65af578674eb1d0e84c24b4b,2024-01-23_08h08.07.170,bars,2023.2.3,Win32,60.0240096,657b66ea316d21385b68909f,,,,,,,,,,,812.2,813.196,,,813.688,813.93,,26,206,,,,,,,,,,,,,,,,bars/007.png,bars/mask004.png,,,,,,,,,,,,0,2,,,,,,,4,0,4,0,,,,,,,,,,,813.197,813.688,813.93,819.542,space,5.597,,819.542,31,29,820.54,820.54,823.695,space,3.131,,0,18,18,18,1,175,55,,,,,,,,
,,61656a7e58d53cbb92ade865,65af578674eb1d0e84c24b4b,2024-01-23_08h08.07.170,bars,2023.2.3,Win32,60.0240096,657b66ea316d21385b68909f,,,,,,,,,,,823.697,824.685,,,825.185,825.434,,57,57,,,,,,,,,,,,,,,,bars/026.png,bars/mask005.png,,,,,,,,,,,,2,1,,,,,,,6,2,6,2,,,,,,,,,,,824.685,825.185,825.434,830.314,space,4.864,,830.314,22,28,831.312,831.312,834.809,space,3.468,,0,19,19,19,1,35,85,,,,,,,,
,,61656a7e58d53cbb92ade865,65af578674eb1d0e84c24b4b,2024-01-23_08h08.07.170,bars,2023.2.3,Win32,60.0240096,657b66ea316d21385b68909f,,,,,,,,,,,834.81,835.808,,,836.308,836.556,,47,47,,,,,,,,,,,,,,,,bars/018.png,bars/mask007.png,,,,,,,,,,,,0,2,,,,,,,8,4,7,6,,,,,,,,,,,835.808,836.307,836.557,842.403,space,5.835,,842.404,77,43,843.4,843.401,848.661,space,5.233,,0,20,20,20,1,150,90,,,,,,,,
,,61656a7e58d53cbb92ade865,65af578674eb1d0e84c24b4b,2024-01-23_08h08.07.170,bars,2023.2.3,Win32,60.0240096,657b66ea316d21385b68909f,,,,,,,,,,,848.662,849.662,,,850.161,850.411,,89,89,,,,,,,,,,,,,,,,bars/018.png,bars/mask003.png,,,,,,,,,,,,8,2,,,,,,,10,6,9,8,,,,,,,,,,,849.662,850.161,850.411,856.771,space,6.344,,856.771,61,1,857.77,857.77,863.749,space,5.963,,0,21,21,21,1,150,90,,,,,,,,
,,61656a7e58d53cbb92ade865,65af578674eb1d0e84c24b4b,2024-01-23_08h08.07.170,bars,2023.2.3,Win32,60.0240096,657b66ea316d21385b68909f,,,,,,,,,,,863.751,864.754,,,865.246,865.495,,87,87,,,,,,,,,,,,,,,,bars/041.png,bars/mask006.png,,,,,,,,,,,,4,2,,,,,,,8,4,8,4,,,,,,,,,,,864.754,865.246,865.495,876.237,space,10.73,,876.237,67,2,877.234,877.234,880.231,space,2.975,,0,22,22,22,1,20,85,,,,,,,,
,,61656a7e58d53cbb92ade865,65af578674eb1d0e84c24b4b,2024-01-23_08h08.07.170,bars,2023.2.3,Win32,60.0240096,657b66ea316d21385b68909f,,,,,,,,,,,880.232,881.23,,,881.731,881.981,,88,88,,,,,,,,,,,,,,,,bars/016.png,bars/mask006.png,,,,,,,,,,,,0,1,,,,,,,10,2,10,1,,,,,,,,,,,881.23,881.731,881.981,885.326,space,3.331,,885.327,48,77,886.325,886.325,889.729,space,3.379,,0,23,23,23,1,40,165,,,,,,,,
,,61656a7e58d53cbb92ade865,65af578674eb1d0e84c24b4b,2024-01-23_08h08.07.170,bars,2023.2.3,Win32,60.0240096,657b66ea316d21385b68909f,,,,,,,,,,,889.729,890.721,,,891.221,891.47,,54,54,,,,,,,,,,,,,,,,bars/011.png,bars/mask002.png,,,,,,,,,,,,0,2,,,,,,,10,4,10,4,,,,,,,,,,,890.721,891.221,891.47,895.652,space,4.172,,895.652,74,31,896.649,896.649,901.078,space,4.397,,0,24,24,24,1,160,85,,,,,,,,
,,61656a7e58d53cbb92ade865,65af578674eb1d0e84c24b4b,2024-01-23_08h08.07.170,bars,2023.2.3,Win32,60.0240096,657b66ea316d21385b68909f,,,,,,,,,,,901.079,902.076,,,902.576,902.825,,90,90,,,,,,,,,,,,,,,,bars/007.png,bars/mask009.png,,,,,,,,,,,,0,2,,,,,,,10,6,9,5,,,,,,,,,,,902.076,902.576,902.825,905.512,space,2.672,,905.512,85,35,906.505,906.505,908.606,space,2.087,,0,25,25,25,1,175,55,,,,,,,,
,,61656a7e58d53cbb92ade865,65af578674eb1d0e84c24b4b,2024-01-23_08h08.07.170,bars,2023.2.3,Win32,60.0240096,657b66ea316d21385b68909f,,,,,,,,,,,908.607,909.602,,,910.103,910.343,,57,57,,,,,,,,,,,,,,,,bars/002.png,bars/mask008.png,,,,,,,,,,,,1,2,,,,,,,10,8,10,9,,,,,,,,,,,909.602,910.103,910.343,914.314,space,3.95,,914.314,73,28,915.313,915.313,923.606,space,8.274,,0,26,26,26,1,130,85,,,,,,,,
,,61656a7e58d53cbb92ade865,65af578674eb1d0e84c24b4b,2024-01-23_08h08.07.170,bars,2023.2.3,Win32,60.0240096,657b66ea316d21385b68909f,,,,,,,,,,,923.606,924.604,,,925.104,925.354,,85,85,,,,,,,,,,,,,,,,bars/008.png,bars/mask002.png,,,,,,,,,,,,2,1,,,,,,,10,10,10,10,,,,,,,,,,,924.605,925.104,925.354,933.214,space,7.845,,933.214,25,85,934.212,934.212,942.372,space,8.129,,0,27,27,27,1,110,0,,,,,,,,
,,61656a7e58d53cbb92ade865,65af578674eb1d0e84c24b4b,2024-01-23_08h08.07.170,bars,2023.2.3,Win32,60.0240096,657b66ea316d21385b68909f,,,,,,,,,,,942.374,943.37,,,943.869,944.12,,107,107,,,,,,,,,,,,,,,,bars/024.png,bars/mask000.png,,,,,,,,,,,,5,1,,,,,,,8,10,8,9,,,,,,,,,,,943.37,943.868,944.12,950.915,space,6.784,,950.915,13,63,951.91,951.911,960.021,space,8.088,,0,28,28,28,1,120,170,,,,,,,,
,,61656a7e58d53cbb92ade865,65af578674eb1d0e84c24b4b,2024-01-23_08h08.07.170,bars,2023.2.3,Win32,60.0240096,657b66ea316d21385b68909f,,,,,,,,,,,960.021,961.02,,,961.519,961.768,,125,125,,,,,,,,,,,,,,,,bars/033.png,bars/mask009.png,,,,,,,,,,,,0,2,,,,,,,6,8,5,8,,,,,,,,,,,961.02,961.519,961.768,965.068,space,3.288,,965.068,80,30,966.064,966.064,970.477,space,4.38,,0,29,29,29,1,25,155,,,,,,,,
,,61656a7e58d53cbb92ade865,65af578674eb1d0e84c24b4b,2024-01-23_08h08.07.170,bars,2023.2.3,Win32,60.0240096,657b66ea316d21385b68909f,,,,,,,,,,,970.478,971.475,,,971.974,972.226,,153,153,,,,,,,,,,,,,,,,bars/004.png,bars/mask004.png,,,,,,,,,,,,1,2,,,,,,,4,10,5,10,,,,,,,,,,,971.475,971.974,972.226,976.521,space,4.282,,976.521,52,28,977.519,977.52,979.883,space,2.338,,0,30,30,30,1,25,125,,,,,,,,
,,61656a7e58d53cbb92ade865,65af578674eb1d0e84c24b4b,2024-01-23_08h08.07.170,bars,2023.2.3,Win32,60.0240096,657b66ea316d21385b68909f,,,,,,,,,,,979.884,980.882,,,981.382,981.632,,134,134,,,,,,,,,,,,,,,,bars/012.png,bars/mask004.png,,,,,,,,,,,,0,1,,,,,,,2,8,1,9,,,,,,,,,,,980.882,981.382,981.632,987.315,space,5.669,,987.315,44,61,988.309,988.309,990.224,space,1.881,,0,31,31,31,1,90,15,,,,,,,,
,,61656a7e58d53cbb92ade865,65af578674eb1d0e84c24b4b,2024-01-23_08h08.07.170,bars,2023.2.3,Win32,60.0240096,657b66ea316d21385b68909f,,,,,,,,,,,990.226,991.222,,,991.722,991.963,,91,91,,,,,,,,,,,,,,,,bars/033.png,bars/mask008.png,,,,,,,,,,,,0,2,,,,,,,0,10,0,7,,,,,,,,,,,991.222,991.722,991.963,1000.482,space,8.501,,1000.483,66,64,1001.477,1001.478,1003.661,space,2.15,,0,32,32,32,1,25,155,,,,,,,,
,,61656a7e58d53cbb92ade865,65af578674eb1d0e84c24b4b,2024-01-23_08h08.07.170,bars,2023.2.3,Win32,60.0240096,657b66ea316d21385b68909f,,,,,,,,,,,1003.662,1004.661,,,1005.158,1005.408,,78,78,,,,,,,,,,,,,,,,bars/026.png,bars/mask003.png,,,,,,,,,,,,5,2,,,,,,,2,8,2,7,,,,,,,,,,,1004.661,1005.158,1005.408,1009.659,space,4.236,,1009.659,43,7,1010.653,1010.653,1445.965,space,435.283,,0,33,33,33,1,35,85,,,,,,,,
,,61656a7e58d53cbb92ade865,65af578674eb1d0e84c24b4b,2024-01-23_08h08.07.170,bars,2023.2.3,Win32,60.0240096,657b66ea316d21385b68909f,,,,,,,,,,,1445.97,1446.96,,,1447.46,1447.709,,99,99,,,,,,,,,,,,,,,,bars/009.png,bars/mask007.png,,,,,,,,,,,,8,2,,,,,,,0,10,1,10,,,,,,,,,,,1446.961,1447.46,1447.709,1450.906,space,3.178,,1450.906,84,6,1451.905,1451.905,1455.469,space,3.541,,0,34,34,34,1,15,105,,,,,,,,
,,61656a7e58d53cbb92ade865,65af578674eb1d0e84c24b4b,2024-01-23_08h08.07.170,bars,2023.2.3,Win32,60.0240096,657b66ea316d21385b68909f,,,,,,,,,,,1455.472,1456.467,,,1456.968,1457.218,,99,99,,,,,,,,,,,,,,,,bars/005.png,bars/mask006.png,,,,,,,,,,,,0,2,,,,,,,2,10,1,10,,,,,,,,,,,1456.467,1456.968,1457.218,1460.163,space,2.931,,1460.163,89,41,1461.164,1461.164,1473.684,space,12.501,,0,35,35,35,1,10,140,,,,,,,,
,,61656a7e58d53cbb92ade865,65af578674eb1d0e84c24b4b,2024-01-23_08h08.07.170,bars,2023.2.3,Win32,60.0240096,657b66ea316d21385b68909f,,,,,,,,,,,1473.685,1474.682,,,1475.182,1475.433,,141,141,,,,,,,,,,,,,,,,bars/013.png,bars/mask005.png,,,,,,,,,,,,0,2,,,,,,,4,10,4,9,,,,,,,,,,,1474.682,1475.182,1475.433,1478.381,space,2.939,,1478.381,66,49,1479.378,1479.378,1488.989,space,9.597,,0,36,36,36,1,75,10,,,,,,,,
,,61656a7e58d53cbb92ade865,65af578674eb1d0e84c24b4b,2024-01-23_08h08.07.170,bars,2023.2.3,Win32,60.0240096,657b66ea316d21385b68909f,,,,,,,,,,,1488.993,1489.985,,,1490.484,1490.734,,14,14,,,,,,,,,,,,,,,,bars/028.png,bars/mask007.png,,,,,,,,,,,,0,1,,,,,,,6,10,6,9,,,,,,,,,,,1489.985,1490.484,1490.734,1493,space,2.258,,1493,31,74,1493.991,1493.991,1498.893,space,4.864,,0,37,37,37,1,45,120,,,,,,,,
,,61656a7e58d53cbb92ade865,65af578674eb1d0e84c24b4b,2024-01-23_08h08.07.170,bars,2023.2.3,Win32,60.0240096,657b66ea316d21385b68909f,,,,,,,,,,,1498.894,1499.892,,,1500.391,1500.641,,42,42,,,,,,,,,,,,,,,,bars/024.png,bars/mask004.png,,,,,,,,,,,,0,2,,,,,,,8,10,9,8,,,,,,,,,,,1499.892,1500.391,1500.641,1508.75,space,8.093,,1508.75,78,52,1509.749,1509.749,1514.047,space,4.275,,0,38,38,38,1,120,170,,,,,,,,
,,61656a7e58d53cbb92ade865,65af578674eb1d0e84c24b4b,2024-01-23_08h08.07.170,bars,2023.2.3,Win32,60.0240096,657b66ea316d21385b68909f,,,,,,,,,,,1514.047,1515.042,,,1515.542,1515.793,,159,159,,,,,,,,,,,,,,,,bars/001.png,bars/mask006.png,,,,,,,,,,,,0,1,,,,,,,6,8,7,9,,,,,,,,,,,1515.043,1515.542,1515.793,1518.524,space,2.717,,1518.524,29,74,1519.522,1519.522,1526.1,space,6.546,,0,39,39,39,1,130,85,,,,,,,,
,,61656a7e58d53cbb92ade865,65af578674eb1d0e84c24b4b,2024-01-23_08h08.07.170,bars,2023.2.3,Win32,60.0240096,657b66ea316d21385b68909f,,,,,,,,,,,1526.101,1527.098,,,1527.598,1527.847,,120,120,,,,,,,,,,,,,,,,bars/039.png,bars/mask009.png,,,,,,,,,,,,3,2,,,,,,,4,6,4,6,,,,,,,,,,,1527.098,1527.598,1527.847,1535.207,space,7.345,,1535.207,55,15,1536.206,1536.206,1541.918,space,5.691,,0,40,40,40,1,175,105,,,,,,,,
,,61656a7e58d53cbb92ade865,65af578674eb1d0e84c24b4b,2024-01-23_08h08.07.170,bars,2023.2.3,Win32,60.0240096,657b66ea316d21385b68909f,,,,,,,,,,,1541.919,1542.915,,,1543.415,1543.665,,99,99,,,,,,,,,,,,,,,,bars/036.png,bars/mask008.png,,,,,,,,,,,,0,1,,,,,,,6,8,6,9,,,,,,,,,,,1542.915,1543.415,1543.665,1547.145,space,3.465,,1547.145,46,79,1548.144,1548.144,1550.991,space,2.822,,0,41,41,41,1,145,20,,,,,,,,
,,61656a7e58d53cbb92ade865,65af578674eb1d0e84c24b4b,2024-01-23_08h08.07.170,bars,2023.2.3,Win32,60.0240096,657b66ea316d21385b68909f,,,,,,,,,,,1550.992,1551.99,,,1552.493,1552.741,,124,124,,,,,,,,,,,,,,,,bars/020.png,bars/mask003.png,,,,,,,,,,,,2,1,,,,,,,4,10,3,10,,,,,,,,,,,1551.99,1552.493,1552.741,1557.603,space,4.846,,1557.603,9,46,1558.601,1558.601,1561.5,space,2.877,,0,42,42,42,1,115,170,,,,,,,,
,,61656a7e58d53cbb92ade865,65af578674eb1d0e84c24b4b,2024-01-23_08h08.07.170,bars,2023.2.3,Win32,60.0240096,657b66ea316d21385b68909f,,,,,,,,,,,1561.501,1562.496,,,1562.996,1563.246,,117,117,,,,,,,,,,,,,,,,bars/007.png,bars/mask003.png,,,,,,,,,,,,0,1,,,,,,,2,10,2,10,,,,,,,,,,,1562.496,1562.996,1563.246,1565.311,space,2.051,,1565.312,58,62,1566.309,1566.309,1570.972,space,4.64,,0,43,43,43,1,175,55,,,,,,,,
,,61656a7e58d53cbb92ade865,65af578674eb1d0e84c24b4b,2024-01-23_08h08.07.170,bars,2023.2.3,Win32,60.0240096,657b66ea316d21385b68909f,,,,,,,,,,,1570.973,1571.971,,,1572.47,1572.721,,162,162,,,,,,,,,,,,,,,,bars/044.png,bars/mask002.png,,,,,,,,,,,,8,2,,,,,,,0,10,1,10,,,,,,,,,,,1571.971,1572.47,1572.721,1574.953,space,2.217,,1574.953,87,7,1575.95,1575.95,1580.18,space,4.203,,0,44,44,44,1,75,155,,,,,,,,
,,61656a7e58d53cbb92ade865,65af578674eb1d0e84c24b4b,2024-01-23_08h08.07.170,bars,2023.2.3,Win32,60.0240096,657b66ea316d21385b68909f,,,,,,,,,,,1580.18,1581.179,,,1581.678,1581.928,,151,151,,,,,,,,,,,,,,,,bars/000.png,bars/mask009.png,,,,,,,,,,,,7,2,,,,,,,2,10,1,9,,,,,,,,,,,1581.179,1581.678,1581.928,1585.258,space,3.315,,1585.258,69,6,1586.258,1586.258,1588.155,space,1.873,,0,45,45,45,1,40,145,,,,,,,,
,,61656a7e58d53cbb92ade865,65af578674eb1d0e84c24b4b,2024-01-23_08h08.07.170,bars,2023.2.3,Win32,60.0240096,657b66ea316d21385b68909f,,,,,,,,,,,1588.156,1589.154,,,1589.653,1589.904,,155,155,,,,,,,,,,,,,,,,bars/024.png,bars/mask009.png,,,,,,,,,,,,5,2,,,,,,,0,10,0,10,,,,,,,,,,,1589.154,1589.653,1589.904,1591.885,space,1.956,,1591.886,35,15,1592.885,1592.886,1594.966,space,2.056,,0,46,46,46,1,120,170,,,,,,,,
,,61656a7e58d53cbb92ade865,65af578674eb1d0e84c24b4b,2024-01-23_08h08.07.170,bars,2023.2.3,Win32,60.0240096,657b66ea316d21385b68909f,,,,,,,,,,,1594.967,1595.964,,,1596.463,1596.713,,152,152,,,,,,,,,,,,,,,,bars/016.png,bars/mask002.png,,,,,,,,,,,,4,2,,,,,,,2,8,3,7,,,,,,,,,,,1595.964,1596.463,1596.713,1601.575,space,4.846,,1601.575,68,13,1602.574,1602.574,1605.107,space,2.484,,0,47,47,47,1,40,165,,,,,,,,
,,61656a7e58d53cbb92ade865,65af578674eb1d0e84c24b4b,2024-01-23_08h08.07.170,bars,2023.2.3,Win32,60.0240096,657b66ea316d21385b68909f,,,,,,,,,,,1605.108,1606.104,,,1606.604,1606.853,,157,157,,,,,,,,,,,,,,,,bars/032.png,bars/mask007.png,,,,,,,,,,,,0,1,,,,,,,4,10,5,8,,,,,,,,,,,1606.104,1606.604,1606.853,1610.8,space,3.93,,1610.8,32,43,1611.798,1611.798,1616.296,space,4.475,,0,48,48,48,1,125,20,,,,,,,,
,,61656a7e58d53cbb92ade865,65af578674eb1d0e84c24b4b,2024-01-23_08h08.07.170,bars,2023.2.3,Win32,60.0240096,657b66ea316d21385b68909f,,,,,,,,,,,1616.296,1617.293,,,1617.792,1618.042,,133,133,,,,,,,,,,,,,,,,bars/024.png,bars/mask007.png,,,,,,,,,,,,3,1,,,,,,,6,8,6,10,,,,,,,,,,,1617.293,1617.792,1618.043,1620.307,space,2.25,,1620.307,13,37,1621.308,1621.308,1624.52,space,3.194,,0,49,49,49,1,120,170,,,,,,,,
,,61656a7e58d53cbb92ade865,65af578674eb1d0e84c24b4b,2024-01-23_08h08.07.170,bars,2023.2.3,Win32,60.0240096,657b66ea316d21385b68909f,,,,,,,,,,,,,,,,,,,,,,,,,,,,,,,,,,,,,,,,,,,,,,,,,,,,,,,,,,,,,,,,,,,,,,,,,,,,,,,,,,,,,,,,,,,,,1624.52,1684.511,0,0,0,1,1,sequence_tables/blk045.csv
,,61656a7e58d53cbb92ade865,65af578674eb1d0e84c24b4b,2024-01-23_08h08.07.170,bars,2023.2.3,Win32,60.0240096,657b66ea316d21385b68909f,,,,,,,,,,,1687.637,1688.64,,,1689.142,1689.39,,32,32,,,,,,,,,,,,,,,,bars/040.png,bars/mask001.png,,,,,,,,,,,,0,2,,,,,,,9,4,9,4,,,,,,1684.516,1687.625,space,3.093,,1688.64,1689.142,1689.39,1691.654,space,2.25,,1691.655,72,27,1692.652,1692.652,1692.659,,,,0,0,0,0,1,140,5,,,,,,,,
,,61656a7e58d53cbb92ade865,65af578674eb1d0e84c24b4b,2024-01-23_08h08.07.170,bars,2023.2.3,Win32,60.0240096,657b66ea316d21385b68909f,,,,,,,,,,,1692.659,1693.652,,,1694.152,1694.453,,35,35,,,,,,,,,,,,,,,,bars/034.png,bars/mask005.png,,,,,,,,,,,,0,2,,,,,,,10,6,10,6,,,,,,,,,,,1693.652,1694.151,1694.453,1700.861,space,6.401,,1700.862,90,30,1701.862,1701.862,1701.866,,,,0,1,1,1,1,125,65,,,,,,,,
,,61656a7e58d53cbb92ade865,65af578674eb1d0e84c24b4b,2024-01-23_08h08.07.170,bars,2023.2.3,Win32,60.0240096,657b66ea316d21385b68909f,,,,,,,,,,,1701.868,1702.861,,,1703.362,1703.609,,53,53,,,,,,,,,,,,,,,,bars/000.png,bars/mask009.png,,,,,,,,,,,,5,1,,,,,,,8,4,8,5,,,,,,,,,,,1702.861,1703.362,1703.609,1706.823,space,3.197,,1706.823,13,88,1707.821,1707.822,1707.828,,,,0,2,2,2,1,40,145,,,,,,,,
,,61656a7e58d53cbb92ade865,65af578674eb1d0e84c24b4b,2024-01-23_08h08.07.170,bars,2023.2.3,Win32,60.0240096,657b66ea316d21385b68909f,,,,,,,,,,,1707.829,1708.821,,,1709.32,1709.57,,55,55,,,,,,,,,,,,,,,,bars/035.png,bars/mask008.png,,,,,,,,,,,,6,2,,,,,,,6,6,6,7,,,,,,,,,,,1708.821,1709.32,1709.57,1711.585,space,2.005,,1711.585,60,5,1712.583,1712.583,1712.587,,,,0,3,3,3,1,175,60,,,,,,,,
,,61656a7e58d53cbb92ade865,65af578674eb1d0e84c24b4b,2024-01-23_08h08.07.170,bars,2023.2.3,Win32,60.0240096,657b66ea316d21385b68909f,,,,,,,,,,,1712.588,1713.583,,,1714.084,1714.332,,81,81,,,,,,,,,,,,,,,,bars/002.png,bars/mask005.png,,,,,,,,,,,,7,2,,,,,,,4,8,3,8,,,,,,,,,,,1713.583,1714.082,1714.332,1715.031,space,0.684,,1715.031,49,4,1716.03,1716.03,1716.032,,,,0,4,4,4,1,130,85,,,,,,,,
,,61656a7e58d53cbb92ade865,65af578674eb1d0e84c24b4b,2024-01-23_08h08.07.170,bars,2023.2.3,Win32,60.0240096,657b66ea316d21385b68909f,,,,,,,,,,,1716.033,1717.029,,,1717.529,1717.779,,20,20,,,,,,,,,,,,,,,,bars/018.png,bars/mask006.png,,,,,,,,,,,,0,1,,,,,,,2,10,1,10,,,,,,,,,,,1717.029,1717.529,1717.78,1718.429,space,0.64,,1718.43,50,70,1719.428,1719.428,1719.431,,,,0,5,5,5,1,150,90,,,,,,,,
,,61656a7e58d53cbb92ade865,65af578674eb1d0e84c24b4b,2024-01-23_08h08.07.170,bars,2023.2.3,Win32,60.0240096,657b66ea316d21385b68909f,,,,,,,,,,,1719.431,1720.426,,,1720.925,1721.174,,150,150,,,,,,,,,,,,,,,,bars/033.png,bars/mask008.png,,,,,,,,,,,,7,2,,,,,,,4,8,4,8,,,,,,,,,,,1720.426,1720.925,1721.175,1721.591,space,0.402,,1721.591,55,5,1722.59,1722.59,1722.594,,,,0,6,6,6,1,25,155,,,,,,,,
,,61656a7e58d53cbb92ade865,65af578674eb1d0e84c24b4b,2024-01-23_08h08.07.170,bars,2023.2.3,Win32,60.0240096,657b66ea316d21385b68909f,,,,,,,,,,,1722.595,1723.589,,,1724.088,1724.338,,70,70,,,,,,,,,,,,,,,,bars/014.png,bars/mask001.png,,,,,,,,,,,,1,1,,,,,,,2,10,1,10,,,,,,,,,,,1723.589,1724.088,1724.339,1724.873,space,0.524,,1724.873,10,70,1725.87,1725.87,1725.874,,,,0,7,7,7,1,80,0,,,,,,,,
,,61656a7e58d53cbb92ade865,65af578674eb1d0e84c24b4b,2024-01-23_08h08.07.170,bars,2023.2.3,Win32,60.0240096,657b66ea316d21385b68909f,,,,,,,,,,,1725.874,1726.87,,,1727.369,1727.618,,124,124,,,,,,,,,,,,,,,,bars/027.png,bars/mask005.png,,,,,,,,,,,,2,1,,,,,,,4,8,4,7,,,,,,,,,,,1726.87,1727.369,1727.618,1730.218,space,2.589,,1730.218,14,74,1731.216,1731.216,1731.217,,,,0,8,8,8,1,110,50,,,,,,,,
,,61656a7e58d53cbb92ade865,65af578674eb1d0e84c24b4b,2024-01-23_08h08.07.170,bars,2023.2.3,Win32,60.0240096,657b66ea316d21385b68909f,,,,,,,,,,,1731.218,1732.213,,,1732.713,1732.963,,46,46,,,,,,,,,,,,,,,,bars/003.png,bars/mask006.png,,,,,,,,,,,,1,1,,,,,,,2,6,2,7,,,,,,,,,,,1732.213,1732.713,1732.963,1735.895,space,2.921,,1735.895,21,86,1736.883,1736.883,1736.885,,,,0,9,9,9,1,25,140,,,,,,,,
,,61656a7e58d53cbb92ade865,65af578674eb1d0e84c24b4b,2024-01-23_08h08.07.170,bars,2023.2.3,Win32,60.0240096,657b66ea316d21385b68909f,,,,,,,,,,,1736.885,1737.874,,,1738.374,1738.624,,52,52,,,,,,,,,,,,,,,,bars/045.png,bars/mask006.png,,,,,,,,,,,,0,2,,,,,,,4,8,3,7,,,,,,,,,,,1737.875,1738.374,1738.624,1739.542,space,0.908,,1739.542,48,42,1740.54,1740.54,1740.542,,,,0,10,10,10,1,100,10,,,,,,,,
,,61656a7e58d53cbb92ade865,65af578674eb1d0e84c24b4b,2024-01-23_08h08.07.170,bars,2023.2.3,Win32,60.0240096,657b66ea316d21385b68909f,,,,,,,,,,,1740.544,1741.538,,,1742.038,1742.289,,136,136,,,,,,,,,,,,,,,,bars/032.png,bars/mask003.png,,,,,,,,,,,,1,1,,,,,,,2,6,1,7,,,,,,,,,,,1741.538,1742.038,1742.289,1743.654,space,1.348,,1743.654,11,64,1744.652,1744.652,1744.661,,,,0,11,11,11,1,125,20,,,,,,,,
,,61656a7e58d53cbb92ade865,65af578674eb1d0e84c24b4b,2024-01-23_08h08.07.170,bars,2023.2.3,Win32,60.0240096,657b66ea316d21385b68909f,,,,,,,,,,,1744.663,1745.651,,,1746.151,1746.4,,67,67,,,,,,,,,,,,,,,,bars/019.png,bars/mask001.png,,,,,,,,,,,,1,1,,,,,,,4,4,4,6,,,,,,,,,,,1745.651,1746.151,1746.4,1747.166,space,0.752,,1747.166,22,38,1748.165,1748.165,1748.168,,,,0,12,12,12,1,45,105,,,,,,,,
,,61656a7e58d53cbb92ade865,65af578674eb1d0e84c24b4b,2024-01-23_08h08.07.170,bars,2023.2.3,Win32,60.0240096,657b66ea316d21385b68909f,,,,,,,,,,,1748.169,1749.164,,,1749.663,1749.913,,136,136,,,,,,,,,,,,,,,,bars/002.png,bars/mask003.png,,,,,,,,,,,,1,1,,,,,,,2,6,1,6,,,,,,,,,,,1749.164,1749.663,1749.914,1751.395,space,1.467,,1751.396,6,51,1752.394,1752.394,1752.397,,,,0,13,13,13,1,130,85,,,,,,,,
,,61656a7e58d53cbb92ade865,65af578674eb1d0e84c24b4b,2024-01-23_08h08.07.170,bars,2023.2.3,Win32,60.0240096,657b66ea316d21385b68909f,,,,,,,,,,,1752.397,1753.394,,,1753.892,1754.143,,101,101,,,,,,,,,,,,,,,,bars/030.png,bars/mask007.png,,,,,,,,,,,,0,2,,,,,,,4,4,4,4,,,,,,,,,,,1753.394,1753.892,1754.143,1755.094,space,0.941,,1755.094,39,36,1756.091,1756.091,1756.095,,,,0,14,14,14,1,140,65,,,,,,,,
,,61656a7e58d53cbb92ade865,65af578674eb1d0e84c24b4b,2024-01-23_08h08.07.170,bars,2023.2.3,Win32,60.0240096,657b66ea316d21385b68909f,,,,,,,,,,,1756.095,1757.09,,,1757.59,1757.838,,20,20,,,,,,,,,,,,,,,,bars/039.png,bars/mask006.png,,,,,,,,,,,,1,1,,,,,,,6,2,6,3,,,,,,,,,,,1757.09,1757.59,1757.839,1758.241,space,0.392,,1758.241,25,85,1759.238,1759.239,1759.248,,,,0,15,15,15,1,175,105,,,,,,,,
,,61656a7e58d53cbb92ade865,65af578674eb1d0e84c24b4b,2024-01-23_08h08.07.170,bars,2023.2.3,Win32,60.0240096,657b66ea316d21385b68909f,,,,,,,,,,,1759.249,1760.253,,,1760.753,1761.001,,40,40,,,,,,,,,,,,,,,,bars/002.png,bars/mask004.png,,,,,,,,,,,,0,2,,,,,,,8,0,8,0,,,,,,,,,,,1760.253,1760.752,1761.002,1762.833,space,1.817,,1762.834,90,45,1763.833,1763.833,1763.837,,,,0,16,16,16,1,130,85,,,,,,,,
,,61656a7e58d53cbb92ade865,65af578674eb1d0e84c24b4b,2024-01-23_08h08.07.170,bars,2023.2.3,Win32,60.0240096,657b66ea316d21385b68909f,,,,,,,,,,,1763.837,1764.833,,,1765.332,1765.582,,54,54,,,,,,,,,,,,,,,,bars/008.png,bars/mask002.png,,,,,,,,,,,,0,2,,,,,,,6,2,6,3,,,,,,,,,,,1764.833,1765.332,1765.582,1765.981,space,0.385,,1765.981,56,54,1766.981,1766.981,1766.981,,,,0,17,17,17,1,110,0,,,,,,,,
,,61656a7e58d53cbb92ade865,65af578674eb1d0e84c24b4b,2024-01-23_08h08.07.170,bars,2023.2.3,Win32,60.0240096,657b66ea316d21385b68909f,,,,,,,,,,,1766.982,1767.979,,,1768.478,1768.728,,142,-38,,,,,,,,,,,,,,,,bars/018.png,bars/mask007.png,,,,,,,,,,,,1,1,,,,,,,4,4,1,4,,,,,,,,,,,1767.98,1768.478,1768.728,1771.761,space,3.022,,1771.761,8,52,1772.759,1772.759,1772.764,,,,0,18,18,18,1,150,90,,,,,,,,
,,61656a7e58d53cbb92ade865,65af578674eb1d0e84c24b4b,2024-01-23_08h08.07.170,bars,2023.2.3,Win32,60.0240096,657b66ea316d21385b68909f,,,,,,,,,,,1772.764,1773.756,,,1774.256,1774.506,,161,161,,,,,,,,,,,,,,,,bars/037.png,bars/mask009.png,,,,,,,,,,,,2,1,,,,,,,2,2,3,3,,,,,,,,,,,1773.756,1774.256,1774.506,1775.19,space,0.675,,1775.191,11,56,1776.203,1776.203,1776.209,,,,0,19,19,19,1,150,105,,,,,,,,
,,61656a7e58d53cbb92ade865,65af578674eb1d0e84c24b4b,2024-01-23_08h08.07.170,bars,2023.2.3,Win32,60.0240096,657b66ea316d21385b68909f,,,,,,,,,,,1776.21,1777.204,,,1777.707,1777.953,,90,90,,,,,,,,,,,,,,,,bars/049.png,bars/mask006.png,,,,,,,,,,,,0,2,,,,,,,0,4,1,3,,,,,,,,,,,1777.204,1777.707,1777.953,1778.785,space,0.817,,1778.785,70,25,1779.784,1779.784,1779.791,,,,0,20,20,20,1,160,115,,,,,,,,
,,61656a7e58d53cbb92ade865,65af578674eb1d0e84c24b4b,2024-01-23_08h08.07.170,bars,2023.2.3,Win32,60.0240096,657b66ea316d21385b68909f,,,,,,,,,,,1779.792,1780.784,,,1781.283,1781.534,,56,56,,,,,,,,,,,,,,,,bars/036.png,bars/mask009.png,,,,,,,,,,,,0,2,,,,,,,0,2,1,4,,,,,,,,,,,1780.784,1781.282,1781.534,1782.549,space,1.004,,1782.549,89,36,1783.547,1783.547,1783.55,,,,0,21,21,21,1,145,20,,,,,,,,
,,61656a7e58d53cbb92ade865,65af578674eb1d0e84c24b4b,2024-01-23_08h08.07.170,bars,2023.2.3,Win32,60.0240096,657b66ea316d21385b68909f,,,,,,,,,,,1783.551,1784.547,,,1785.046,1785.295,,90,90,,,,,,,,,,,,,,,,bars/049.png,bars/mask004.png,,,,,,,,,,,,0,2,,,,,,,2,0,3,1,,,,,,,,,,,1784.547,1785.045,1785.296,1788.693,space,3.384,,1788.693,70,25,1789.692,1789.692,1789.693,,,,0,22,22,22,1,160,115,,,,,,,,
,,61656a7e58d53cbb92ade865,65af578674eb1d0e84c24b4b,2024-01-23_08h08.07.170,bars,2023.2.3,Win32,60.0240096,657b66ea316d21385b68909f,,,,,,,,,,,1789.694,1790.69,,,1791.19,1791.44,,126,126,,,,,,,,,,,,,,,,bars/019.png,bars/mask006.png,,,,,,,,,,,,1,2,,,,,,,0,2,0,4,,,,,,,,,,,1790.69,1791.19,1791.44,1793.171,space,1.716,,1793.171,81,21,1794.171,1794.171,1794.172,,,,0,23,23,23,1,45,105,,,,,,,,
,,61656a7e58d53cbb92ade865,65af578674eb1d0e84c24b4b,2024-01-23_08h08.07.170,bars,2023.2.3,Win32,60.0240096,657b66ea316d21385b68909f,,,,,,,,,,,1794.173,1795.169,,,1795.668,1795.919,,73,73,,,,,,,,,,,,,,,,bars/027.png,bars/mask005.png,,,,,,,,,,,,1,2,,,,,,,2,4,2,4,,,,,,,,,,,1795.169,1795.668,1795.919,1800.115,space,4.181,,1800.115,37,23,1801.113,1801.114,1801.114,,,,0,24,24,24,1,110,50,,,,,,,,
,,61656a7e58d53cbb92ade865,65af578674eb1d0e84c24b4b,2024-01-23_08h08.07.170,bars,2023.2.3,Win32,60.0240096,657b66ea316d21385b68909f,,,,,,,,,,,1801.114,1802.113,,,1802.612,1802.862,,132,132,,,,,,,,,,,,,,,,bars/026.png,bars/mask008.png,,,,,,,,,,,,0,2,,,,,,,0,6,0,4,,,,,,,,,,,1802.113,1802.612,1802.862,1807.657,space,4.779,,1807.657,83,47,1808.656,1808.656,1808.657,,,,0,25,25,25,1,35,85,,,,,,,,
,,61656a7e58d53cbb92ade865,65af578674eb1d0e84c24b4b,2024-01-23_08h08.07.170,bars,2023.2.3,Win32,60.0240096,657b66ea316d21385b68909f,,,,,,,,,,,1808.658,1809.639,,,1810.127,1810.378,,176,176,,,,,,,,,,,,,,,,bars/024.png,bars/mask003.png,,,,,,,,,,,,6,2,,,,,,,0,8,1,8,,,,,,,,,,,1809.639,1810.127,1810.378,1811.125,space,0.724,,1811.125,56,6,1812.12,1812.12,1812.121,,,,0,26,26,26,1,120,170,,,,,,,,
,,61656a7e58d53cbb92ade865,65af578674eb1d0e84c24b4b,2024-01-23_08h08.07.170,bars,2023.2.3,Win32,60.0240096,657b66ea316d21385b68909f,,,,,,,,,,,1812.121,1813.119,,,1813.618,1813.868,,131,131,,,,,,,,,,,,,,,,bars/044.png,bars/mask009.png,,,,,,,,,,,,2,2,,,,,,,0,6,0,8,,,,,,,,,,,1813.119,1813.618,1813.869,1818.416,space,4.538,,1818.417,56,24,1819.412,1819.412,1819.415,,,,0,27,27,27,1,75,155,,,,,,,,
,,61656a7e58d53cbb92ade865,65af578674eb1d0e84c24b4b,2024-01-23_08h08.07.170,bars,2023.2.3,Win32,60.0240096,657b66ea316d21385b68909f,,,,,,,,,,,1819.416,1820.411,,,1820.912,1821.147,,167,167,,,,,,,,,,,,,,,,bars/045.png,bars/mask009.png,,,,,,,,,,,,1,2,,,,,,,2,4,1,3,,,,,,,,,,,1820.411,1820.912,1821.147,1821.926,space,0.767,,1821.926,67,23,1822.925,1822.926,1822.926,,,,0,28,28,28,1,100,10,,,,,,,,
,,61656a7e58d53cbb92ade865,65af578674eb1d0e84c24b4b,2024-01-23_08h08.07.170,bars,2023.2.3,Win32,60.0240096,657b66ea316d21385b68909f,,,,,,,,,,,1822.927,1823.924,,,1824.424,1824.673,,142,142,,,,,,,,,,,,,,,,bars/005.png,bars/mask009.png,,,,,,,,,,,,4,2,,,,,,,4,6,3,4,,,,,,,,,,,1823.924,1824.424,1824.673,1825.49,space,0.8,,1825.49,48,2,1826.49,1826.491,1826.494,,,,0,29,29,29,1,10,140,,,,,,,,
,,61656a7e58d53cbb92ade865,65af578674eb1d0e84c24b4b,2024-01-23_08h08.07.170,bars,2023.2.3,Win32,60.0240096,657b66ea316d21385b68909f,,,,,,,,,,,1826.495,1827.488,,,1827.987,1828.237,,20,20,,,,,,,,,,,,,,,,bars/009.png,bars/mask002.png,,,,,,,,,,,,1,1,,,,,,,2,4,1,5,,,,,,,,,,,1827.488,1827.987,1828.237,1828.754,space,0.502,,1828.754,5,85,1829.752,1829.752,1829.758,,,,0,30,30,30,1,15,105,,,,,,,,
,,61656a7e58d53cbb92ade865,65af578674eb1d0e84c24b4b,2024-01-23_08h08.07.170,bars,2023.2.3,Win32,60.0240096,657b66ea316d21385b68909f,,,,,,,,,,,1829.759,1830.752,,,1831.251,1831.5,,65,65,,,,,,,,,,,,,,,,bars/038.png,bars/mask005.png,,,,,,,,,,,,5,2,,,,,,,4,6,4,6,,,,,,,,,,,1830.752,1831.251,1831.501,1835.333,space,3.821,,1835.333,80,5,1836.329,1836.329,1836.333,,,,0,31,31,31,1,165,70,,,,,,,,
,,61656a7e58d53cbb92ade865,65af578674eb1d0e84c24b4b,2024-01-23_08h08.07.170,bars,2023.2.3,Win32,60.0240096,657b66ea316d21385b68909f,,,,,,,,,,,1836.334,1837.328,,,1837.828,1838.071,,140,140,,,,,,,,,,,,,,,,bars/031.png,bars/mask001.png,,,,,,,,,,,,2,1,,,,,,,6,4,5,5,,,,,,,,,,,1837.328,1837.827,1838.071,1839.052,space,0.964,,1839.052,20,75,1840.043,1840.043,1840.048,,,,0,32,32,32,1,120,35,,,,,,,,
,,61656a7e58d53cbb92ade865,65af578674eb1d0e84c24b4b,2024-01-23_08h08.07.170,bars,2023.2.3,Win32,60.0240096,657b66ea316d21385b68909f,,,,,,,,,,,1840.048,1841.042,,,1841.541,1841.79,,152,152,,,,,,,,,,,,,,,,bars/012.png,bars/mask003.png,,,,,,,,,,,,0,2,,,,,,,8,6,9,8,,,,,,,,,,,1841.042,1841.541,1841.79,1842.69,space,0.884,,1842.69,62,43,1843.689,1843.689,1843.694,,,,0,33,33,33,1,90,15,,,,,,,,
,,61656a7e58d53cbb92ade865,65af578674eb1d0e84c24b4b,2024-01-23_08h08.07.170,bars,2023.2.3,Win32,60.0240096,657b66ea316d21385b68909f,,,,,,,,,,,1843.694,1844.687,,,1845.186,1845.436,,104,104,,,,,,,,,,,,,,,,bars/036.png,bars/mask009.png,,,,,,,,,,,,0,1,,,,,,,6,8,6,7,,,,,,,,,,,1844.687,1845.186,1845.436,1860.617,space,15.169,,1860.617,41,84,1861.622,1861.622,1861.633,,,,0,34,34,34,1,145,20,,,,,,,,
,,61656a7e58d53cbb92ade865,65af578674eb1d0e84c24b4b,2024-01-23_08h08.07.170,bars,2023.2.3,Win32,60.0240096,657b66ea316d21385b68909f,,,,,,,,,,,1861.637,1862.637,,,1863.136,1863.386,,77,77,,,,,,,,,,,,,,,,bars/045.png,bars/mask003.png,,,,,,,,,,,,1,1,,,,,,,4,10,5,10,,,,,,,,,,,1862.637,1863.136,1863.386,1864.352,space,0.95,,1864.353,23,67,1865.351,1865.351,1865.353,,,,0,35,35,35,1,100,10,,,,,,,,
,,61656a7e58d53cbb92ade865,65af578674eb1d0e84c24b4b,2024-01-23_08h08.07.170,bars,2023.2.3,Win32,60.0240096,657b66ea316d21385b68909f,,,,,,,,,,,1865.353,1866.351,,,1866.85,1867.099,,9,9,,,,,,,,,,,,,,,,bars/043.png,bars/mask004.png,,,,,,,,,,,,2,1,,,,,,,6,10,6,10,,,,,,,,,,,1866.351,1866.85,1867.099,1867.799,space,0.688,,1867.799,21,59,1868.797,1868.798,1868.8,,,,0,36,36,36,1,30,130,,,,,,,,
,,61656a7e58d53cbb92ade865,65af578674eb1d0e84c24b4b,2024-01-23_08h08.07.170,bars,2023.2.3,Win32,60.0240096,657b66ea316d21385b68909f,,,,,,,,,,,1868.801,1869.796,,,1870.298,1870.545,,97,97,,,,,,,,,,,,,,,,bars/045.png,bars/mask009.png,,,,,,,,,,,,7,1,,,,,,,8,8,8,7,,,,,,,,,,,1869.796,1870.297,1870.546,1871.298,space,0.739,,1871.299,3,87,1872.295,1872.295,1872.296,,,,0,37,37,37,1,100,10,,,,,,,,
,,61656a7e58d53cbb92ade865,65af578674eb1d0e84c24b4b,2024-01-23_08h08.07.170,bars,2023.2.3,Win32,60.0240096,657b66ea316d21385b68909f,,,,,,,,,,,1872.297,1873.293,,,1873.804,1874.042,,43,43,,,,,,,,,,,,,,,,bars/029.png,bars/mask001.png,,,,,,,,,,,,9,2,,,,,,,10,10,10,10,,,,,,,,,,,1873.293,1873.804,1874.042,1874.542,space,0.486,,1874.542,47,2,1875.541,1875.541,1875.546,,,,0,38,38,38,1,90,45,,,,,,,,
,,61656a7e58d53cbb92ade865,65af578674eb1d0e84c24b4b,2024-01-23_08h08.07.170,bars,2023.2.3,Win32,60.0240096,657b66ea316d21385b68909f,,,,,,,,,,,1875.546,1876.54,,,1877.031,1877.275,,99,99,,,,,,,,,,,,,,,,bars/038.png,bars/mask000.png,,,,,,,,,,,,0,2,,,,,,,8,10,7,10,,,,,,,,,,,1876.54,1877.031,1877.276,1877.822,space,0.522,,1877.822,66,29,1878.821,1878.821,1878.825,,,,0,39,39,39,1,165,70,,,,,,,,
,,61656a7e58d53cbb92ade865,65af578674eb1d0e84c24b4b,2024-01-23_08h08.07.170,bars,2023.2.3,Win32,60.0240096,657b66ea316d21385b68909f,,,,,,,,,,,1878.826,1879.82,,,1880.32,1880.57,,162,162,,,,,,,,,,,,,,,,bars/011.png,bars/mask005.png,,,,,,,,,,,,7,1,,,,,,,6,10,8,9,,,,,,,,,,,1879.82,1880.32,1880.57,1882.12,space,1.538,,1882.12,2,77,1883.117,1883.117,1883.121,,,,0,40,40,40,1,160,85,,,,,,,,
,,61656a7e58d53cbb92ade865,65af578674eb1d0e84c24b4b,2024-01-23_08h08.07.170,bars,2023.2.3,Win32,60.0240096,657b66ea316d21385b68909f,,,,,,,,,,,1883.122,1884.116,,,1884.615,1884.864,,122,122,,,,,,,,,,,,,,,,bars/014.png,bars/mask007.png,,,,,,,,,,,,0,1,,,,,,,8,10,8,10,,,,,,,,,,,1884.116,1884.615,1884.864,1886.164,space,1.284,,1886.164,42,58,1887.152,1887.152,1887.154,,,,0,41,41,41,1,80,0,,,,,,,,
,,61656a7e58d53cbb92ade865,65af578674eb1d0e84c24b4b,2024-01-23_08h08.07.170,bars,2023.2.3,Win32,60.0240096,657b66ea316d21385b68909f,,,,,,,,,,,1887.155,1888.146,,,1888.645,1888.894,,150,150,,,,,,,,,,,,,,,,bars/047.png,bars/mask002.png,,,,,,,,,,,,0,1,,,,,,,6,8,4,7,,,,,,,,,,,1888.146,1888.645,1888.894,1889.995,space,1.087,,1889.995,45,80,1890.986,1890.986,1890.99,,,,0,42,42,42,1,15,70,,,,,,,,
,,61656a7e58d53cbb92ade865,65af578674eb1d0e84c24b4b,2024-01-23_08h08.07.170,bars,2023.2.3,Win32,60.0240096,657b66ea316d21385b68909f,,,,,,,,,,,1890.99,1891.992,,,1892.491,1892.741,,13,13,,,,,,,,,,,,,,,,bars/019.png,bars/mask006.png,,,,,,,,,,,,0,1,,,,,,,8,6,10,7,,,,,,,,,,,1891.992,1892.491,1892.741,1893.691,space,0.938,,1893.691,32,88,1894.69,1894.69,1894.691,,,,0,43,43,43,1,45,105,,,,,,,,
,,61656a7e58d53cbb92ade865,65af578674eb1d0e84c24b4b,2024-01-23_08h08.07.170,bars,2023.2.3,Win32,60.0240096,657b66ea316d21385b68909f,,,,,,,,,,,1894.692,1895.688,,,1896.186,1896.437,,158,158,,,,,,,,,,,,,,,,bars/005.png,bars/mask001.png,,,,,,,,,,,,1,2,,,,,,,10,4,10,3,,,,,,,,,,,1895.688,1896.186,1896.437,1898.021,space,1.573,,1898.021,32,18,1899.016,1899.016,1899.021,,,,0,44,44,44,1,10,140,,,,,,,,
,,61656a7e58d53cbb92ade865,65af578674eb1d0e84c24b4b,2024-01-23_08h08.07.170,bars,2023.2.3,Win32,60.0240096,657b66ea316d21385b68909f,,,,,,,,,,,1899.021,1900.017,,,1900.516,1900.765,,115,115,,,,,,,,,,,,,,,,bars/003.png,bars/mask003.png,,,,,,,,,,,,0,2,,,,,,,10,2,10,1,,,,,,,,,,,1900.017,1900.516,1900.766,1901.765,space,0.98,,1901.765,90,25,1902.762,1902.762,1902.765,,,,0,45,45,45,1,25,140,,,,,,,,
,,61656a7e58d53cbb92ade865,65af578674eb1d0e84c24b4b,2024-01-23_08h08.07.170,bars,2023.2.3,Win32,60.0240096,657b66ea316d21385b68909f,,,,,,,,,,,1902.765,1903.763,,,1904.262,1904.512,,132,132,,,,,,,,,,,,,,,,bars/021.png,bars/mask005.png,,,,,,,,,,,,2,1,,,,,,,8,0,10,0,,,,,,,,,,,1903.763,1904.262,1904.512,1906.427,space,1.898,,1906.427,23,62,1907.426,1907.426,1907.431,,,,0,46,46,46,1,155,70,,,,,,,,
,,61656a7e58d53cbb92ade865,65af578674eb1d0e84c24b4b,2024-01-23_08h08.07.170,bars,2023.2.3,Win32,60.0240096,657b66ea316d21385b68909f,,,,,,,,,,,1907.431,1908.425,,,1908.925,1909.174,,83,83,,,,,,,,,,,,,,,,bars/021.png,bars/mask005.png,,,,,,,,,,,,0,2,,,,,,,10,0,10,0,,,,,,,,,,,1908.425,1908.925,1909.174,1910.499,space,1.31,,1910.499,72,13,1911.489,1911.489,1911.492,,,,0,47,47,47,1,155,70,,,,,,,,
,,61656a7e58d53cbb92ade865,65af578674eb1d0e84c24b4b,2024-01-23_08h08.07.170,bars,2023.2.3,Win32,60.0240096,657b66ea316d21385b68909f,,,,,,,,,,,1911.493,1912.491,,,1912.986,1913.238,,171,171,,,,,,,,,,,,,,,,bars/018.png,bars/mask003.png,,,,,,,,,,,,3,1,,,,,,,10,0,10,0,,,,,,,,,,,1912.492,1912.986,1913.238,1914.238,space,0.988,,1914.238,21,81,1915.235,1915.235,1915.242,,,,0,48,48,48,1,150,90,,,,,,,,
,,61656a7e58d53cbb92ade865,65af578674eb1d0e84c24b4b,2024-01-23_08h08.07.170,bars,2023.2.3,Win32,60.0240096,657b66ea316d21385b68909f,,,,,,,,,,,1915.243,1916.236,,,1916.728,1916.967,,165,165,,,,,,,,,,,,,,,,bars/042.png,bars/mask004.png,,,,,,,,,,,,3,1,,,,,,,10,0,10,0,,,,,,,,,,,1916.236,1916.728,1916.967,1917.432,space,0.457,,1917.432,20,90,1918.432,1918.432,1918.434,,,,0,49,49,49,1,145,75,,,,,,,,
,,61656a7e58d53cbb92ade865,65af578674eb1d0e84c24b4b,2024-01-23_08h08.07.170,bars,2023.2.3,Win32,60.0240096,657b66ea316d21385b68909f,,,,,,,,,,,,,,,,,,,,,,,,,,,,,,,,,,,,,,,,,,,,,,,,,,,,,,,,,,,,,,,,,,,,,,,,,,,,,,,,,,,,,,,,,,,,,1918.434,1978.44,0,1,1,3,1,sequence_tables/blk018.csv
,,61656a7e58d53cbb92ade865,65af578674eb1d0e84c24b4b,2024-01-23_08h08.07.170,bars,2023.2.3,Win32,60.0240096,657b66ea316d21385b68909f,,,,,,,,,,,2048.246,2049.243,,,2049.72,2049.971,,126,126,,,,,,,,,,,,,,,,bars/002.png,bars/mask004.png,,,,,,,,,,,,5,1,,,,,,,3,2,6,4,,,,,,1978.443,2048.226,space,69.768,,2049.243,2049.72,2049.971,2051.697,space,1.711,,2051.697,4,41,2052.709,2052.709,2052.713,,,,0,0,0,0,1,130,85,,,,,,,,
,,61656a7e58d53cbb92ade865,65af578674eb1d0e84c24b4b,2024-01-23_08h08.07.170,bars,2023.2.3,Win32,60.0240096,657b66ea316d21385b68909f,,,,,,,,,,,2052.718,2053.716,,,2054.214,2054.466,,29,29,,,,,,,,,,,,,,,,bars/042.png,bars/mask004.png,,,,,,,,,,,,0,2,,,,,,,1,4,1,4,,,,,,,,,,,2053.716,2054.214,2054.466,2058.097,space,3.62,,2058.098,64,46,2059.091,2059.091,2059.097,,,,0,1,1,1,1,145,75,,,,,,,,
,,61656a7e58d53cbb92ade865,65af578674eb1d0e84c24b4b,2024-01-23_08h08.07.170,bars,2023.2.3,Win32,60.0240096,657b66ea316d21385b68909f,,,,,,,,,,,2059.098,2060.093,,,2060.588,2060.83,,55,55,,,,,,,,,,,,,,,,bars/000.png,bars/mask005.png,,,,,,,,,,,,2,1,,,,,,,3,6,4,5,,,,,,,,,,,2060.093,2060.588,2060.83,2061.726,space,0.88,,2061.726,15,90,2062.724,2062.724,2062.733,,,,0,2,2,2,1,40,145,,,,,,,,
,,61656a7e58d53cbb92ade865,65af578674eb1d0e84c24b4b,2024-01-23_08h08.07.170,bars,2023.2.3,Win32,60.0240096,657b66ea316d21385b68909f,,,,,,,,,,,2062.733,2063.723,,,2064.221,2064.472,,18,18,,,,,,,,,,,,,,,,bars/041.png,bars/mask004.png,,,,,,,,,,,,5,1,,,,,,,5,4,5,4,,,,,,,,,,,2063.723,2064.221,2064.472,2068.917,space,4.433,,2068.918,2,67,2069.915,2069.916,2069.918,,,,0,3,3,3,1,20,85,,,,,,,,
,,61656a7e58d53cbb92ade865,65af578674eb1d0e84c24b4b,2024-01-23_08h08.07.170,bars,2023.2.3,Win32,60.0240096,657b66ea316d21385b68909f,,,,,,,,,,,2069.918,2070.916,,,2071.416,2071.669,,133,133,,,,,,,,,,,,,,,,bars/017.png,bars/mask000.png,,,,,,,,,,,,2,1,,,,,,,3,6,3,6,,,,,,,,,,,2070.917,2071.416,2071.669,2072.417,space,0.723,,2072.417,12,88,2073.413,2073.413,2073.414,,,,0,4,4,4,1,145,45,,,,,,,,
,,61656a7e58d53cbb92ade865,65af578674eb1d0e84c24b4b,2024-01-23_08h08.07.170,bars,2023.2.3,Win32,60.0240096,657b66ea316d21385b68909f,,,,,,,,,,,2073.415,2074.421,,,2074.912,2075.16,,172,172,,,,,,,,,,,,,,,,bars/033.png,bars/mask009.png,,,,,,,,,,,,3,2,,,,,,,5,8,4,8,,,,,,,,,,,2074.421,2074.912,2075.16,2075.663,space,0.49,,2075.663,33,17,2076.661,2076.661,2076.666,,,,0,5,5,5,1,25,155,,,,,,,,
,,61656a7e58d53cbb92ade865,65af578674eb1d0e84c24b4b,2024-01-23_08h08.07.170,bars,2023.2.3,Win32,60.0240096,657b66ea316d21385b68909f,,,,,,,,,,,2076.666,2077.66,,,2078.159,2078.408,,2,2,,,,,,,,,,,,,,,,bars/031.png,bars/mask004.png,,,,,,,,,,,,0,2,,,,,,,3,6,2,6,,,,,,,,,,,2077.66,2078.159,2078.408,2078.525,space,0.108,,2078.525,62,33,2079.524,2079.524,2079.525,,,,0,6,6,6,1,120,35,,,,,,,,
,,61656a7e58d53cbb92ade865,65af578674eb1d0e84c24b4b,2024-01-23_08h08.07.170,bars,2023.2.3,Win32,60.0240096,657b66ea316d21385b68909f,,,,,,,,,,,2079.525,2080.523,,,2081.03,2081.273,,179,-1,,,,,,,,,,,,,,,,bars/026.png,bars/mask000.png,,,,,,,,,,,,0,1,,,,,,,1,4,2,4,,,,,,,,,,,2080.523,2081.03,2081.273,2081.955,space,0.666,,2081.955,36,86,2082.945,2082.945,2082.962,,,,0,7,7,7,1,35,85,,,,,,,,
,,61656a7e58d53cbb92ade865,65af578674eb1d0e84c24b4b,2024-01-23_08h08.07.170,bars,2023.2.3,Win32,60.0240096,657b66ea316d21385b68909f,,,,,,,,,,,2082.964,2083.956,,,2084.454,2084.685,,99,99,,,,,,,,,,,,,,,,bars/027.png,bars/mask005.png,,,,,,,,,,,,0,1,,,,,,,0,2,0,2,,,,,,,,,,,2083.956,2084.454,2084.686,2085.57,space,0.873,,2085.57,11,49,2086.566,2086.566,2086.568,,,,0,8,8,8,1,110,50,,,,,,,,
,,61656a7e58d53cbb92ade865,65af578674eb1d0e84c24b4b,2024-01-23_08h08.07.170,bars,2023.2.3,Win32,60.0240096,657b66ea316d21385b68909f,,,,,,,,,,,2086.569,2087.565,,,2088.066,2088.318,,78,78,,,,,,,,,,,,,,,,bars/013.png,bars/mask003.png,,,,,,,,,,,,0,1,,,,,,,0,4,0,3,,,,,,,,,,,2087.565,2088.066,2088.318,2089.249,space,0.921,,2089.25,3,68,2090.238,2090.238,2090.24,,,,0,9,9,9,1,75,10,,,,,,,,
,,61656a7e58d53cbb92ade865,65af578674eb1d0e84c24b4b,2024-01-23_08h08.07.170,bars,2023.2.3,Win32,60.0240096,657b66ea316d21385b68909f,,,,,,,,,,,2090.241,2091.229,,,2091.73,2091.979,,68,68,,,,,,,,,,,,,,,,bars/039.png,bars/mask007.png,,,,,,,,,,,,0,2,,,,,,,0,6,0,5,,,,,,,,,,,2091.229,2091.73,2091.979,2092.823,space,0.83,,2092.823,73,37,2093.815,2093.815,2093.828,,,,0,10,10,10,1,175,105,,,,,,,,
,,61656a7e58d53cbb92ade865,65af578674eb1d0e84c24b4b,2024-01-23_08h08.07.170,bars,2023.2.3,Win32,60.0240096,657b66ea316d21385b68909f,,,,,,,,,,,2093.828,2094.825,,,2095.324,2095.574,,107,107,,,,,,,,,,,,,,,,bars/035.png,bars/mask005.png,,,,,,,,,,,,0,2,,,,,,,0,8,0,9,,,,,,,,,,,2094.825,2095.324,2095.574,2095.775,space,0.193,,2095.775,68,47,2096.774,2096.774,2096.777,,,,0,11,11,11,1,175,60,,,,,,,,
,,61656a7e58d53cbb92ade865,65af578674eb1d0e84c24b4b,2024-01-23_08h08.07.170,bars,2023.2.3,Win32,60.0240096,657b66ea316d21385b68909f,,,,,,,,,,,2096.777,2097.775,,,2098.272,2098.523,,162,162,,,,,,,,,,,,,,,,bars/010.png,bars/mask005.png,,,,,,,,,,,,2,1,,,,,,,2,10,2,9,,,,,,,,,,,2097.775,2098.272,2098.523,2100.304,space,1.767,,2100.304,3,73,2101.303,2101.303,2101.309,,,,0,12,12,12,1,165,55,,,,,,,,
,,61656a7e58d53cbb92ade865,65af578674eb1d0e84c24b4b,2024-01-23_08h08.07.170,bars,2023.2.3,Win32,60.0240096,657b66ea316d21385b68909f,,,,,,,,,,,2101.309,2102.302,,,2102.802,2103.052,,23,23,,,,,,,,,,,,,,,,bars/043.png,bars/mask005.png,,,,,,,,,,,,0,1,,,,,,,0,10,0,10,,,,,,,,,,,2102.302,2102.801,2103.052,2103.902,space,0.836,,2103.902,7,73,2104.901,2104.901,2104.901,,,,0,13,13,13,1,30,130,,,,,,,,
,,61656a7e58d53cbb92ade865,65af578674eb1d0e84c24b4b,2024-01-23_08h08.07.170,bars,2023.2.3,Win32,60.0240096,657b66ea316d21385b68909f,,,,,,,,,,,2104.903,2105.899,,,2106.398,2106.648,,132,132,,,,,,,,,,,,,,,,bars/010.png,bars/mask002.png,,,,,,,,,,,,0,1,,,,,,,0,10,0,10,,,,,,,,,,,2105.899,2106.398,2106.648,2110.464,space,3.805,,2110.464,33,77,2111.471,2111.471,2111.474,,,,0,14,14,14,1,165,55,,,,,,,,
,,61656a7e58d53cbb92ade865,65af578674eb1d0e84c24b4b,2024-01-23_08h08.07.170,bars,2023.2.3,Win32,60.0240096,657b66ea316d21385b68909f,,,,,,,,,,,2111.474,2112.476,,,2112.975,2113.224,,27,27,,,,,,,,,,,,,,,,bars/044.png,bars/mask007.png,,,,,,,,,,,,0,1,,,,,,,2,8,3,8,,,,,,,,,,,2112.476,2112.975,2113.224,2114.293,space,1.055,,2114.293,48,52,2115.288,2115.288,2115.29,,,,0,15,15,15,1,75,155,,,,,,,,
,,61656a7e58d53cbb92ade865,65af578674eb1d0e84c24b4b,2024-01-23_08h08.07.170,bars,2023.2.3,Win32,60.0240096,657b66ea316d21385b68909f,,,,,,,,,,,2115.29,2116.315,,,2116.805,2117.055,,142,-38,,,,,,,,,,,,,,,,bars/025.png,bars/mask000.png,,,,,,,,,,,,0,1,,,,,,,0,6,0,5,,,,,,,,,,,2116.315,2116.805,2117.055,2121.901,space,4.826,,2121.902,37,78,2122.897,2122.897,2122.902,,,,0,16,16,16,1,105,40,,,,,,,,
,,61656a7e58d53cbb92ade865,65af578674eb1d0e84c24b4b,2024-01-23_08h08.07.170,bars,2023.2.3,Win32,60.0240096,657b66ea316d21385b68909f,,,,,,,,,,,2122.903,2123.897,,,2124.398,2124.646,,56,56,,,,,,,,,,,,,,,,bars/027.png,bars/mask004.png,,,,,,,,,,,,2,2,,,,,,,2,4,2,3,,,,,,,,,,,2123.897,2124.397,2124.647,2125.396,space,0.733,,2125.396,54,6,2126.395,2126.395,2126.401,,,,0,17,17,17,1,110,50,,,,,,,,
,,61656a7e58d53cbb92ade865,65af578674eb1d0e84c24b4b,2024-01-23_08h08.07.170,bars,2023.2.3,Win32,60.0240096,657b66ea316d21385b68909f,,,,,,,,,,,2126.403,2127.387,,,2127.88,2128.127,,94,94,,,,,,,,,,,,,,,,bars/018.png,bars/mask009.png,,,,,,,,,,,,6,2,,,,,,,0,6,1,7,,,,,,,,,,,2127.387,2127.88,2128.127,2131.424,space,3.285,,2131.424,56,4,2132.421,2132.421,2132.424,,,,0,18,18,18,1,150,90,,,,,,,,
,,61656a7e58d53cbb92ade865,65af578674eb1d0e84c24b4b,2024-01-23_08h08.07.170,bars,2023.2.3,Win32,60.0240096,657b66ea316d21385b68909f,,,,,,,,,,,2132.425,2133.423,,,2133.921,2134.171,,110,110,,,,,,,,,,,,,,,,bars/011.png,bars/mask000.png,,,,,,,,,,,,1,2,,,,,,,2,8,2,8,,,,,,,,,,,2133.423,2133.921,2134.171,2136.837,space,2.651,,2136.837,50,25,2137.834,2137.834,2137.836,,,,0,19,19,19,1,160,85,,,,,,,,
,,61656a7e58d53cbb92ade865,65af578674eb1d0e84c24b4b,2024-01-23_08h08.07.170,bars,2023.2.3,Win32,60.0240096,657b66ea316d21385b68909f,,,,,,,,,,,2137.836,2138.814,,,2139.315,2139.566,,117,117,,,,,,,,,,,,,,,,bars/023.png,bars/mask003.png,,,,,,,,,,,,7,2,,,,,,,4,6,4,8,,,,,,,,,,,2138.816,2139.315,2139.566,2141.799,space,2.219,,2141.799,83,2,2142.796,2142.796,2142.797,,,,0,20,20,20,1,20,115,,,,,,,,
,,61656a7e58d53cbb92ade865,65af578674eb1d0e84c24b4b,2024-01-23_08h08.07.170,bars,2023.2.3,Win32,60.0240096,657b66ea316d21385b68909f,,,,,,,,,,,2142.798,2143.794,,,2144.285,2144.527,,69,69,,,,,,,,,,,,,,,,bars/045.png,bars/mask007.png,,,,,,,,,,,,0,1,,,,,,,6,4,6,4,,,,,,,,,,,2143.794,2144.285,2144.528,2146.76,space,2.216,,2146.76,31,59,2147.774,2147.774,2147.778,,,,0,21,21,21,1,100,10,,,,,,,,
,,61656a7e58d53cbb92ade865,65af578674eb1d0e84c24b4b,2024-01-23_08h08.07.170,bars,2023.2.3,Win32,60.0240096,657b66ea316d21385b68909f,,,,,,,,,,,2147.778,2148.772,,,2149.272,2149.537,,109,109,,,,,,,,,,,,,,,,bars/027.png,bars/mask003.png,,,,,,,,,,,,8,1,,,,,,,8,2,8,2,,,,,,,,,,,2148.772,2149.272,2149.537,2151.521,space,1.955,,2151.521,1,59,2152.524,2152.524,2152.526,,,,0,22,22,22,1,110,50,,,,,,,,
,,61656a7e58d53cbb92ade865,65af578674eb1d0e84c24b4b,2024-01-23_08h08.07.170,bars,2023.2.3,Win32,60.0240096,657b66ea316d21385b68909f,,,,,,,,,,,2152.527,2153.52,,,2154.019,2154.267,,139,139,,,,,,,,,,,,,,,,bars/044.png,bars/mask004.png,,,,,,,,,,,,3,2,,,,,,,6,4,6,6,,,,,,,,,,,2153.521,2154.019,2154.267,2156.735,space,2.458,,2156.735,64,16,2157.733,2157.733,2157.74,,,,0,23,23,23,1,75,155,,,,,,,,
,,61656a7e58d53cbb92ade865,65af578674eb1d0e84c24b4b,2024-01-23_08h08.07.170,bars,2023.2.3,Win32,60.0240096,657b66ea316d21385b68909f,,,,,,,,,,,2157.741,2158.731,,,2159.229,2159.479,,102,102,,,,,,,,,,,,,,,,bars/009.png,bars/mask006.png,,,,,,,,,,,,1,2,,,,,,,4,2,3,1,,,,,,,,,,,2158.731,2159.229,2159.479,2162.179,space,2.691,,2162.179,87,3,2163.173,2163.174,2163.177,,,,0,24,24,24,1,15,105,,,,,,,,
,,61656a7e58d53cbb92ade865,65af578674eb1d0e84c24b4b,2024-01-23_08h08.07.170,bars,2023.2.3,Win32,60.0240096,657b66ea316d21385b68909f,,,,,,,,,,,2163.177,2164.187,,,2164.691,2164.941,,152,-28,,,,,,,,,,,,,,,,bars/033.png,bars/mask004.png,,,,,,,,,,,,2,2,,,,,,,2,4,2,2,,,,,,,,,,,2164.187,2164.691,2164.941,2168.871,space,3.911,,2168.871,53,3,2169.869,2169.869,2169.871,,,,0,25,25,25,1,25,155,,,,,,,,
,,61656a7e58d53cbb92ade865,65af578674eb1d0e84c24b4b,2024-01-23_08h08.07.170,bars,2023.2.3,Win32,60.0240096,657b66ea316d21385b68909f,,,,,,,,,,,2169.872,2170.869,,,2171.387,2171.624,,31,31,,,,,,,,,,,,,,,,bars/046.png,bars/mask009.png,,,,,,,,,,,,0,2,,,,,,,4,6,4,6,,,,,,,,,,,2170.869,2171.387,2171.624,2174.426,space,2.782,,2174.426,56,54,2175.431,2175.431,2175.433,,,,0,26,26,26,1,155,85,,,,,,,,
,,61656a7e58d53cbb92ade865,65af578674eb1d0e84c24b4b,2024-01-23_08h08.07.170,bars,2023.2.3,Win32,60.0240096,657b66ea316d21385b68909f,,,,,,,,,,,2175.433,2176.426,,,2176.933,2177.191,,108,108,,,,,,,,,,,,,,,,bars/007.png,bars/mask006.png,,,,,,,,,,,,0,2,,,,,,,2,4,1,1,,,,,,,,,,,2176.426,2176.933,2177.191,2178.601,space,1.384,,2178.601,67,53,2179.594,2179.594,2179.596,,,,0,27,27,27,1,175,55,,,,,,,,
,,61656a7e58d53cbb92ade865,65af578674eb1d0e84c24b4b,2024-01-23_08h08.07.170,bars,2023.2.3,Win32,60.0240096,657b66ea316d21385b68909f,,,,,,,,,,,2179.597,2180.597,,,2181.099,2181.342,,143,143,,,,,,,,,,,,,,,,bars/026.png,bars/mask002.png,,,,,,,,,,,,0,2,,,,,,,4,2,5,3,,,,,,,,,,,2180.597,2181.098,2181.342,2182.025,space,0.67,,2182.025,72,58,2183.023,2183.023,2183.023,,,,0,28,28,28,1,35,85,,,,,,,,
,,61656a7e58d53cbb92ade865,65af578674eb1d0e84c24b4b,2024-01-23_08h08.07.170,bars,2023.2.3,Win32,60.0240096,657b66ea316d21385b68909f,,,,,,,,,,,2183.024,2184.022,,,2184.522,2184.772,,24,24,,,,,,,,,,,,,,,,bars/035.png,bars/mask008.png,,,,,,,,,,,,0,1,,,,,,,2,0,3,0,,,,,,,,,,,2184.022,2184.522,2184.772,2188.668,space,3.887,,2188.669,29,36,2189.666,2189.667,2189.679,,,,0,29,29,29,1,175,60,,,,,,,,
,,61656a7e58d53cbb92ade865,65af578674eb1d0e84c24b4b,2024-01-23_08h08.07.170,bars,2023.2.3,Win32,60.0240096,657b66ea316d21385b68909f,,,,,,,,,,,2189.68,2190.682,,,2191.183,2191.432,,34,34,,,,,,,,,,,,,,,,bars/001.png,bars/mask002.png,,,,,,,,,,,,0,2,,,,,,,0,0,2,0,,,,,,,,,,,2190.682,2191.183,2191.432,2192.065,space,0.625,,2192.065,84,51,2193.063,2193.063,2193.067,,,,0,30,30,30,1,130,85,,,,,,,,
,,61656a7e58d53cbb92ade865,65af578674eb1d0e84c24b4b,2024-01-23_08h08.07.170,bars,2023.2.3,Win32,60.0240096,657b66ea316d21385b68909f,,,,,,,,,,,2193.068,2194.063,,,2194.551,2194.79,,85,85,,,,,,,,,,,,,,,,bars/023.png,bars/mask007.png,,,,,,,,,,,,0,2,,,,,,,2,0,1,0,,,,,,,,,,,2194.063,2194.551,2194.791,2197.127,space,2.323,,2197.127,65,30,2198.124,2198.125,2198.127,,,,0,31,31,31,1,20,115,,,,,,,,
,,61656a7e58d53cbb92ade865,65af578674eb1d0e84c24b4b,2024-01-23_08h08.07.170,bars,2023.2.3,Win32,60.0240096,657b66ea316d21385b68909f,,,,,,,,,,,2198.128,2199.124,,,2199.623,2199.872,,116,116,,,,,,,,,,,,,,,,bars/033.png,bars/mask005.png,,,,,,,,,,,,0,2,,,,,,,0,0,0,0,,,,,,,,,,,2199.124,2199.623,2199.872,2201.955,space,2.068,,2201.955,89,39,2202.963,2202.963,2202.965,,,,0,32,32,32,1,25,155,,,,,,,,
,,61656a7e58d53cbb92ade865,65af578674eb1d0e84c24b4b,2024-01-23_08h08.07.170,bars,2023.2.3,Win32,60.0240096,657b66ea316d21385b68909f,,,,,,,,,,,2202.965,2203.953,,,2204.452,2204.701,,93,93,,,,,,,,,,,,,,,,bars/009.png,bars/mask001.png,,,,,,,,,,,,1,2,,,,,,,0,2,0,2,,,,,,,,,,,2203.953,2204.452,2204.701,2205.946,space,1.231,,2205.946,78,12,2206.95,2206.95,2206.951,,,,0,33,33,33,1,15,105,,,,,,,,
,,61656a7e58d53cbb92ade865,65af578674eb1d0e84c24b4b,2024-01-23_08h08.07.170,bars,2023.2.3,Win32,60.0240096,657b66ea316d21385b68909f,,,,,,,,,,,2206.952,2207.948,,,2208.449,2208.697,,66,66,,,,,,,,,,,,,,,,bars/006.png,bars/mask002.png,,,,,,,,,,,,0,1,,,,,,,2,0,2,1,,,,,,,,,,,2207.949,2208.449,2208.697,2208.981,space,0.268,,2208.982,31,34,2209.98,2209.981,2209.985,,,,0,34,34,34,1,35,100,,,,,,,,
,,61656a7e58d53cbb92ade865,65af578674eb1d0e84c24b4b,2024-01-23_08h08.07.170,bars,2023.2.3,Win32,60.0240096,657b66ea316d21385b68909f,,,,,,,,,,,2209.985,2210.974,,,2211.467,2211.723,,104,104,,,,,,,,,,,,,,,,bars/049.png,bars/mask004.png,,,,,,,,,,,,1,2,,,,,,,0,2,0,1,,,,,,,,,,,2210.974,2211.467,2211.723,2211.739,space,0.002,,2211.739,56,11,2212.747,2212.747,2212.752,,,,0,35,35,35,1,160,115,,,,,,,,
,,61656a7e58d53cbb92ade865,65af578674eb1d0e84c24b4b,2024-01-23_08h08.07.170,bars,2023.2.3,Win32,60.0240096,657b66ea316d21385b68909f,,,,,,,,,,,2212.753,2213.744,,,2214.242,2214.494,,119,119,,,,,,,,,,,,,,,,bars/049.png,bars/mask001.png,,,,,,,,,,,,0,2,,,,,,,2,0,3,0,,,,,,,,,,,2213.744,2214.242,2214.494,2214.844,space,0.339,,2214.844,41,4,2215.842,2215.842,2215.843,,,,0,36,36,36,1,160,115,,,,,,,,
,,61656a7e58d53cbb92ade865,65af578674eb1d0e84c24b4b,2024-01-23_08h08.07.170,bars,2023.2.3,Win32,60.0240096,657b66ea316d21385b68909f,,,,,,,,,,,2215.843,2216.839,,,2217.34,2217.59,,102,102,,,,,,,,,,,,,,,,bars/030.png,bars/mask006.png,,,,,,,,,,,,0,2,,,,,,,4,2,5,1,,,,,,,,,,,2216.84,2217.34,2217.59,2219.024,space,1.42,,2219.024,38,37,2220.02,2220.02,2220.021,,,,0,37,37,37,1,140,65,,,,,,,,
,,61656a7e58d53cbb92ade865,65af578674eb1d0e84c24b4b,2024-01-23_08h08.07.170,bars,2023.2.3,Win32,60.0240096,657b66ea316d21385b68909f,,,,,,,,,,,2220.021,2221.02,,,2221.519,2221.768,,45,45,,,,,,,,,,,,,,,,bars/022.png,bars/mask000.png,,,,,,,,,,,,1,2,,,,,,,2,4,2,5,,,,,,,,,,,2221.02,2221.519,2221.768,2226.482,space,4.696,,2226.482,50,25,2227.479,2227.48,2227.482,,,,0,38,38,38,1,95,20,,,,,,,,
,,61656a7e58d53cbb92ade865,65af578674eb1d0e84c24b4b,2024-01-23_08h08.07.170,bars,2023.2.3,Win32,60.0240096,657b66ea316d21385b68909f,,,,,,,,,,,2227.483,2228.496,,,2228.995,2229.245,,68,68,,,,,,,,,,,,,,,,bars/023.png,bars/mask006.png,,,,,,,,,,,,0,2,,,,,,,4,6,3,6,,,,,,,,,,,2228.496,2228.995,2229.245,2230.943,space,1.683,,2230.944,48,47,2231.943,2231.943,2231.946,,,,0,39,39,39,1,20,115,,,,,,,,
,,61656a7e58d53cbb92ade865,65af578674eb1d0e84c24b4b,2024-01-23_08h08.07.170,bars,2023.2.3,Win32,60.0240096,657b66ea316d21385b68909f,,,,,,,,,,,2231.946,2232.941,,,2233.441,2233.692,,43,43,,,,,,,,,,,,,,,,bars/047.png,bars/mask002.png,,,,,,,,,,,,0,2,,,,,,,2,4,1,3,,,,,,,,,,,2232.941,2233.441,2233.692,2234.475,space,0.76,,2234.475,28,27,2235.472,2235.473,2235.475,,,,0,40,40,40,1,15,70,,,,,,,,
,,61656a7e58d53cbb92ade865,65af578674eb1d0e84c24b4b,2024-01-23_08h08.07.170,bars,2023.2.3,Win32,60.0240096,657b66ea316d21385b68909f,,,,,,,,,,,2235.475,2236.454,,,2236.953,2237.202,,20,20,,,,,,,,,,,,,,,,bars/007.png,bars/mask008.png,,,,,,,,,,,,0,1,,,,,,,4,2,3,2,,,,,,,,,,,2236.454,2236.953,2237.202,2238.904,space,1.694,,2238.905,25,35,2239.908,2239.908,2239.919,,,,0,41,41,41,1,175,55,,,,,,,,
,,61656a7e58d53cbb92ade865,65af578674eb1d0e84c24b4b,2024-01-23_08h08.07.170,bars,2023.2.3,Win32,60.0240096,657b66ea316d21385b68909f,,,,,,,,,,,2239.92,2240.917,,,2241.415,2241.666,,136,136,,,,,,,,,,,,,,,,bars/029.png,bars/mask009.png,,,,,,,,,,,,0,1,,,,,,,6,0,7,1,,,,,,,,,,,2240.917,2241.415,2241.666,2243.815,space,2.139,,2243.815,46,89,2244.813,2244.813,2244.815,,,,0,42,42,42,1,90,45,,,,,,,,
,,61656a7e58d53cbb92ade865,65af578674eb1d0e84c24b4b,2024-01-23_08h08.07.170,bars,2023.2.3,Win32,60.0240096,657b66ea316d21385b68909f,,,,,,,,,,,2244.815,2245.812,,,2246.306,2246.544,,18,18,,,,,,,,,,,,,,,,bars/012.png,bars/mask003.png,,,,,,,,,,,,0,2,,,,,,,4,0,6,0,,,,,,,,,,,2245.812,2246.305,2246.544,2248.949,space,2.39,,2248.949,72,3,2249.94,2249.94,2249.946,,,,0,43,43,43,1,90,15,,,,,,,,
,,61656a7e58d53cbb92ade865,65af578674eb1d0e84c24b4b,2024-01-23_08h08.07.170,bars,2023.2.3,Win32,60.0240096,657b66ea316d21385b68909f,,,,,,,,,,,2249.946,2250.924,,,2251.422,2251.672,,50,50,,,,,,,,,,,,,,,,bars/018.png,bars/mask003.png,,,,,,,,,,,,0,2,,,,,,,2,0,2,0,,,,,,,,,,,2250.924,2251.422,2251.673,2253.871,space,2.179,,2253.871,80,40,2254.869,2254.869,2254.871,,,,0,44,44,44,1,150,90,,,,,,,,
,,61656a7e58d53cbb92ade865,65af578674eb1d0e84c24b4b,2024-01-23_08h08.07.170,bars,2023.2.3,Win32,60.0240096,657b66ea316d21385b68909f,,,,,,,,,,,2254.871,2255.869,,,2256.356,2256.584,,72,72,,,,,,,,,,,,,,,,bars/013.png,bars/mask001.png,,,,,,,,,,,,0,1,,,,,,,0,0,0,2,,,,,,,,,,,2255.87,2256.356,2256.584,2259.366,space,2.758,,2259.366,3,62,2260.367,2260.367,2260.382,,,,0,45,45,45,1,75,10,,,,,,,,
,,61656a7e58d53cbb92ade865,65af578674eb1d0e84c24b4b,2024-01-23_08h08.07.170,bars,2023.2.3,Win32,60.0240096,657b66ea316d21385b68909f,,,,,,,,,,,2260.383,2261.38,,,2261.889,2262.129,,16,16,,,,,,,,,,,,,,,,bars/047.png,bars/mask008.png,,,,,,,,,,,,2,1,,,,,,,2,2,2,1,,,,,,,,,,,2261.38,2261.889,2262.129,2262.514,space,0.374,,2262.514,1,54,2263.504,2263.504,2263.507,,,,0,46,46,46,1,15,70,,,,,,,,
,,61656a7e58d53cbb92ade865,65af578674eb1d0e84c24b4b,2024-01-23_08h08.07.170,bars,2023.2.3,Win32,60.0240096,657b66ea316d21385b68909f,,,,,,,,,,,2263.512,2264.51,,,2265.01,2265.259,,27,27,,,,,,,,,,,,,,,,bars/031.png,bars/mask005.png,,,,,,,,,,,,1,2,,,,,,,4,0,5,1,,,,,,,,,,,2264.51,2265.01,2265.259,2265.727,space,0.46,,2265.728,87,8,2266.725,2266.725,2266.73,,,,0,47,47,47,1,120,35,,,,,,,,
,,61656a7e58d53cbb92ade865,65af578674eb1d0e84c24b4b,2024-01-23_08h08.07.170,bars,2023.2.3,Win32,60.0240096,657b66ea316d21385b68909f,,,,,,,,,,,2266.731,2267.735,,,2268.241,2268.49,,94,94,,,,,,,,,,,,,,,,bars/022.png,bars/mask006.png,,,,,,,,,,,,7,1,,,,,,,6,2,7,3,,,,,,,,,,,2267.735,2268.24,2268.49,2269.105,space,0.597,,2269.106,1,74,2270.104,2270.104,2270.11,,,,0,48,48,48,1,95,20,,,,,,,,
,,61656a7e58d53cbb92ade865,65af578674eb1d0e84c24b4b,2024-01-23_08h08.07.170,bars,2023.2.3,Win32,60.0240096,657b66ea316d21385b68909f,,,,,,,,,,,2270.11,2271.103,,,2271.605,2271.853,,17,17,,,,,,,,,,,,,,,,bars/025.png,bars/mask003.png,,,,,,,,,,,,1,2,,,,,,,4,4,3,4,,,,,,,,,,,2271.104,2271.605,2271.853,2272.587,space,0.721,,2272.587,88,23,2273.577,2273.577,2273.586,,,,0,49,49,49,1,105,40,,,,,,,,
,,61656a7e58d53cbb92ade865,65af578674eb1d0e84c24b4b,2024-01-23_08h08.07.170,bars,2023.2.3,Win32,60.0240096,657b66ea316d21385b68909f,,,,,,,,,,,,,,,,,,,,,,,,,,,,,,,,,,,,,,,,,,,,,,,,,,,,,,,,,,,,,,,,,,,,,,,,,,,,,,,,,,,,,,,,,,,,,2273.587,2334.047,0,2,2,0,1,sequence_tables/blk023.csv
,,61656a7e58d53cbb92ade865,65af578674eb1d0e84c24b4b,2024-01-23_08h08.07.170,bars,2023.2.3,Win32,60.0240096,657b66ea316d21385b68909f,,,,,,,,,,,2336.655,2337.656,,,2338.145,2338.388,,125,125,,,,,,,,,,,,,,,,bars/048.png,bars/mask008.png,,,,,,,,,,,,0,2,,,,,,,5,9,5,7,,,,,,2334.051,2336.641,space,2.567,,2337.656,2338.145,2338.388,2339.397,space,0.987,,2339.397,75,50,2340.386,2340.386,2340.389,,,,0,0,0,0,1,50,175,,,,,,,,
,,61656a7e58d53cbb92ade865,65af578674eb1d0e84c24b4b,2024-01-23_08h08.07.170,bars,2023.2.3,Win32,60.0240096,657b66ea316d21385b68909f,,,,,,,,,,,2340.391,2341.385,,,2341.885,2342.134,,58,58,,,,,,,,,,,,,,,,bars/035.png,bars/mask003.png,,,,,,,,,,,,5,2,,,,,,,7,7,10,5,,,,,,,,,,,2341.385,2341.884,2342.134,2342.952,space,0.812,,2342.952,63,2,2343.95,2343.95,2343.951,,,,0,1,1,1,1,175,60,,,,,,,,
,,61656a7e58d53cbb92ade865,65af578674eb1d0e84c24b4b,2024-01-23_08h08.07.170,bars,2023.2.3,Win32,60.0240096,657b66ea316d21385b68909f,,,,,,,,,,,2343.952,2344.948,,,2345.451,2345.698,,74,74,,,,,,,,,,,,,,,,bars/018.png,bars/mask001.png,,,,,,,,,,,,1,2,,,,,,,5,5,6,3,,,,,,,,,,,2344.948,2345.451,2345.698,2346.097,space,0.381,,2346.097,76,16,2347.086,2347.086,2347.09,,,,0,2,2,2,1,150,90,,,,,,,,
,,61656a7e58d53cbb92ade865,65af578674eb1d0e84c24b4b,2024-01-23_08h08.07.170,bars,2023.2.3,Win32,60.0240096,657b66ea316d21385b68909f,,,,,,,,,,,2347.091,2348.08,,,2348.578,2348.828,,15,15,,,,,,,,,,,,,,,,bars/031.png,bars/mask008.png,,,,,,,,,,,,2,2,,,,,,,7,3,6,6,,,,,,,,,,,2348.08,2348.578,2348.828,2349.979,space,1.14,,2349.979,75,20,2350.979,2350.979,2350.98,,,,0,3,3,3,1,120,35,,,,,,,,
,,61656a7e58d53cbb92ade865,65af578674eb1d0e84c24b4b,2024-01-23_08h08.07.170,bars,2023.2.3,Win32,60.0240096,657b66ea316d21385b68909f,,,,,,,,,,,2350.981,2351.974,,,2352.473,2352.724,,143,143,,,,,,,,,,,,,,,,bars/040.png,bars/mask007.png,,,,,,,,,,,,8,1,,,,,,,9,5,9,6,,,,,,,,,,,2351.974,2352.473,2352.724,2354.841,space,2.106,,2354.841,3,42,2355.838,2355.838,2355.842,,,,0,4,4,4,1,140,5,,,,,,,,
,,61656a7e58d53cbb92ade865,65af578674eb1d0e84c24b4b,2024-01-23_08h08.07.170,bars,2023.2.3,Win32,60.0240096,657b66ea316d21385b68909f,,,,,,,,,,,2355.843,2356.837,,,2357.336,2357.585,,105,105,,,,,,,,,,,,,,,,bars/005.png,bars/mask005.png,,,,,,,,,,,,0,2,,,,,,,10,7,9,6,,,,,,,,,,,2356.837,2357.336,2357.585,2359.484,space,1.884,,2359.484,85,35,2360.483,2360.483,2360.487,,,,0,5,5,5,1,10,140,,,,,,,,
,,61656a7e58d53cbb92ade865,65af578674eb1d0e84c24b4b,2024-01-23_08h08.07.170,bars,2023.2.3,Win32,60.0240096,657b66ea316d21385b68909f,,,,,,,,,,,2360.487,2361.484,,,2361.983,2362.224,,162,162,,,,,,,,,,,,,,,,bars/019.png,bars/mask004.png,,,,,,,,,,,,0,2,,,,,,,8,5,7,4,,,,,,,,,,,2361.484,2361.983,2362.224,2363.465,space,1.225,,2363.465,63,57,2364.461,2364.463,2364.463,,,,0,6,6,6,1,45,105,,,,,,,,
,,61656a7e58d53cbb92ade865,65af578674eb1d0e84c24b4b,2024-01-23_08h08.07.170,bars,2023.2.3,Win32,60.0240096,657b66ea316d21385b68909f,,,,,,,,,,,2364.463,2365.461,,,2365.961,2366.21,,94,94,,,,,,,,,,,,,,,,bars/040.png,bars/mask007.png,,,,,,,,,,,,0,1,,,,,,,6,7,6,8,,,,,,,,,,,2365.461,2365.961,2366.21,2367.676,space,1.453,,2367.676,46,89,2368.675,2368.675,2368.679,,,,0,7,7,7,1,140,5,,,,,,,,
,,61656a7e58d53cbb92ade865,65af578674eb1d0e84c24b4b,2024-01-23_08h08.07.170,bars,2023.2.3,Win32,60.0240096,657b66ea316d21385b68909f,,,,,,,,,,,2368.679,2369.673,,,2370.164,2370.406,,40,40,,,,,,,,,,,,,,,,bars/007.png,bars/mask009.png,,,,,,,,,,,,3,2,,,,,,,8,5,9,6,,,,,,,,,,,2369.674,2370.164,2370.407,2371.441,space,1.02,,2371.442,45,15,2372.437,2372.438,2372.447,,,,0,8,8,8,1,175,55,,,,,,,,
,,61656a7e58d53cbb92ade865,65af578674eb1d0e84c24b4b,2024-01-23_08h08.07.170,bars,2023.2.3,Win32,60.0240096,657b66ea316d21385b68909f,,,,,,,,,,,2372.448,2373.449,,,2373.937,2374.191,,141,141,,,,,,,,,,,,,,,,bars/035.png,bars/mask002.png,,,,,,,,,,,,0,1,,,,,,,10,7,10,8,,,,,,,,,,,2373.449,2373.937,2374.191,2375.203,space,0.991,,2375.203,34,81,2376.205,2376.205,2376.22,,,,0,9,9,9,1,175,60,,,,,,,,
,,61656a7e58d53cbb92ade865,65af578674eb1d0e84c24b4b,2024-01-23_08h08.07.170,bars,2023.2.3,Win32,60.0240096,657b66ea316d21385b68909f,,,,,,,,,,,2376.221,2377.212,,,2377.701,2377.951,,134,134,,,,,,,,,,,,,,,,bars/016.png,bars/mask000.png,,,,,,,,,,,,0,2,,,,,,,8,9,8,9,,,,,,,,,,,2377.212,2377.701,2377.951,2379.515,space,1.545,,2379.516,86,31,2380.446,2380.446,2380.454,,,,0,10,10,10,1,40,165,,,,,,,,
,,61656a7e58d53cbb92ade865,65af578674eb1d0e84c24b4b,2024-01-23_08h08.07.170,bars,2023.2.3,Win32,60.0240096,657b66ea316d21385b68909f,,,,,,,,,,,2380.456,2381.447,,,2382.665,2382.667,,166,166,,,,,,,,,,,,,,,,bars/038.png,bars/mask008.png,,,,,,,,,,,,5,1,,,,,,,6,10,5,10,,,,,,,,,,,2381.447,2382.665,2382.667,2383.971,space,1.287,,2383.971,1,84,2385.126,2385.126,2385.132,,,,0,11,11,11,1,165,70,,,,,,,,
,,61656a7e58d53cbb92ade865,65af578674eb1d0e84c24b4b,2024-01-23_08h08.07.170,bars,2023.2.3,Win32,60.0240096,657b66ea316d21385b68909f,,,,,,,,,,,2385.132,2386.562,,,2386.579,2386.58,,31,31,,,,,,,,,,,,,,,,bars/040.png,bars/mask004.png,,,,,,,,,,,,1,2,,,,,,,8,10,10,8,,,,,,,,,,,2386.563,2386.578,2386.58,2387.44,space,0.842,,2387.44,71,26,2388.634,2388.634,2388.695,,,,0,12,12,12,1,140,5,,,,,,,,
,,61656a7e58d53cbb92ade865,65af578674eb1d0e84c24b4b,2024-01-23_08h08.07.170,bars,2023.2.3,Win32,60.0240096,657b66ea316d21385b68909f,,,,,,,,,,,2388.696,2389.691,,,2390.181,2390.435,,75,75,,,,,,,,,,,,,,,,bars/046.png,bars/mask008.png,,,,,,,,,,,,5,2,,,,,,,10,10,10,8,,,,,,,,,,,2389.691,2390.181,2390.435,2391.553,space,1.101,,2391.553,80,10,2392.545,2392.557,2392.563,,,,0,13,13,13,1,155,85,,,,,,,,
,,61656a7e58d53cbb92ade865,65af578674eb1d0e84c24b4b,2024-01-23_08h08.07.170,bars,2023.2.3,Win32,60.0240096,657b66ea316d21385b68909f,,,,,,,,,,,2392.563,2393.642,,,2394.067,2394.471,,103,103,,,,,,,,,,,,,,,,bars/041.png,bars/mask000.png,,,,,,,,,,,,3,2,,,,,,,8,8,7,8,,,,,,,,,,,2393.642,2394.067,2394.471,2395.2,space,0.721,,2395.201,83,18,2396.213,2396.213,2396.216,,,,0,14,14,14,1,20,85,,,,,,,,
,,61656a7e58d53cbb92ade865,65af578674eb1d0e84c24b4b,2024-01-23_08h08.07.170,bars,2023.2.3,Win32,60.0240096,657b66ea316d21385b68909f,,,,,,,,,,,2396.216,2397.214,,,2397.828,2397.854,,94,94,,,,,,,,,,,,,,,,bars/000.png,bars/mask009.png,,,,,,,,,,,,0,2,,,,,,,6,6,7,6,,,,,,,,,,,2397.214,2397.828,2397.854,2405.4,space,7.526,0.001,2405.4,54,51,2406.391,2406.392,2406.397,,,,0,15,15,15,1,40,145,,,,,,,,
,,61656a7e58d53cbb92ade865,65af578674eb1d0e84c24b4b,2024-01-23_08h08.07.170,bars,2023.2.3,Win32,60.0240096,657b66ea316d21385b68909f,,,,,,,,,,,2406.399,2407.375,,,2407.882,2408.12,,93,93,,,,,,,,,,,,,,,,bars/034.png,bars/mask007.png,,,,,,,,,,,,0,2,,,,,,,8,4,7,2,,,,,,,,,,,2407.376,2407.882,2408.12,2410.635,space,2.504,,2410.635,32,28,2411.642,2411.642,2411.644,,,,0,16,16,16,1,125,65,,,,,,,,
,,61656a7e58d53cbb92ade865,65af578674eb1d0e84c24b4b,2024-01-23_08h08.07.170,bars,2023.2.3,Win32,60.0240096,657b66ea316d21385b68909f,,,,,,,,,,,2411.645,2412.635,,,2413.125,2413.354,,34,34,,,,,,,,,,,,,,,,bars/007.png,bars/mask004.png,,,,,,,,,,,,1,2,,,,,,,10,2,9,2,,,,,,,,,,,2412.635,2413.125,2413.354,2414.513,space,1.141,,2414.513,39,21,2415.516,2415.516,2415.519,,,,0,17,17,17,1,175,55,,,,,,,,
,,61656a7e58d53cbb92ade865,65af578674eb1d0e84c24b4b,2024-01-23_08h08.07.170,bars,2023.2.3,Win32,60.0240096,657b66ea316d21385b68909f,,,,,,,,,,,2415.522,2416.393,,,2416.893,2417.146,,26,206,,,,,,,,,,,,,,,,bars/035.png,bars/mask009.png,,,,,,,,,,,,0,1,,,,,,,8,0,6,0,,,,,,,,,,,2416.393,2416.892,2417.146,2422.941,space,5.772,0.001,2422.941,31,34,2423.947,2423.947,2423.962,,,,0,18,18,18,1,175,60,,,,,,,,
,,61656a7e58d53cbb92ade865,65af578674eb1d0e84c24b4b,2024-01-23_08h08.07.170,bars,2023.2.3,Win32,60.0240096,657b66ea316d21385b68909f,,,,,,,,,,,2423.963,2424.972,,,2425.472,2425.72,,84,84,,,,,,,,,,,,,,,,bars/006.png,bars/mask005.png,,,,,,,,,,,,1,2,,,,,,,10,0,10,2,,,,,,,,,,,2424.972,2425.471,2425.72,2425.741,space,0.003,,2425.741,49,16,2426.734,2426.734,2426.74,,,,0,19,19,19,1,35,100,,,,,,,,
,,61656a7e58d53cbb92ade865,65af578674eb1d0e84c24b4b,2024-01-23_08h08.07.170,bars,2023.2.3,Win32,60.0240096,657b66ea316d21385b68909f,,,,,,,,,,,2426.741,2427.741,,,2428.235,2428.477,,34,34,,,,,,,,,,,,,,,,bars/048.png,bars/mask001.png,,,,,,,,,,,,5,1,,,,,,,10,0,10,0,,,,,,,,,,,2427.741,2428.235,2428.477,2428.706,space,0.187,,2428.706,16,39,2429.702,2429.702,2429.71,,,,0,20,20,20,1,50,175,,,,,,,,
,,61656a7e58d53cbb92ade865,65af578674eb1d0e84c24b4b,2024-01-23_08h08.07.170,bars,2023.2.3,Win32,60.0240096,657b66ea316d21385b68909f,,,,,,,,,,,2429.71,2430.715,,,2431.204,2431.446,,93,93,,,,,,,,,,,,,,,,bars/006.png,bars/mask003.png,,,,,,,,,,,,0,2,,,,,,,8,0,5,0,,,,,,,,,,,2430.715,2431.204,2431.446,2432.33,space,0.867,,2432.33,58,7,2433.33,2433.33,2433.334,,,,0,21,21,21,1,35,100,,,,,,,,
,,61656a7e58d53cbb92ade865,65af578674eb1d0e84c24b4b,2024-01-23_08h08.07.170,bars,2023.2.3,Win32,60.0240096,657b66ea316d21385b68909f,,,,,,,,,,,2433.334,2434.327,,,2434.828,2435.076,,144,144,,,,,,,,,,,,,,,,bars/034.png,bars/mask001.png,,,,,,,,,,,,3,1,,,,,,,10,0,9,0,,,,,,,,,,,2434.327,2434.828,2435.076,2435.809,space,0.714,,2435.809,19,79,2436.807,2436.807,2436.811,,,,0,22,22,22,1,125,65,,,,,,,,
,,61656a7e58d53cbb92ade865,65af578674eb1d0e84c24b4b,2024-01-23_08h08.07.170,bars,2023.2.3,Win32,60.0240096,657b66ea316d21385b68909f,,,,,,,,,,,2436.812,2437.809,,,2438.306,2438.556,,19,19,,,,,,,,,,,,,,,,bars/030.png,bars/mask007.png,,,,,,,,,,,,0,2,,,,,,,10,2,9,1,,,,,,,,,,,2437.809,2438.306,2438.556,2439.492,space,0.923,,2439.492,59,46,2440.49,2440.49,2440.501,,,,0,23,23,23,1,140,65,,,,,,,,
,,61656a7e58d53cbb92ade865,65af578674eb1d0e84c24b4b,2024-01-23_08h08.07.170,bars,2023.2.3,Win32,60.0240096,657b66ea316d21385b68909f,,,,,,,,,,,2440.503,2441.503,,,2442.001,2442.253,,79,79,,,,,,,,,,,,,,,,bars/001.png,bars/mask001.png,,,,,,,,,,,,0,2,,,,,,,8,0,8,0,,,,,,,,,,,2441.504,2442.001,2442.253,2443.054,space,0.79,,2443.054,51,6,2444.051,2444.051,2444.054,,,,0,24,24,24,1,130,85,,,,,,,,
,,61656a7e58d53cbb92ade865,65af578674eb1d0e84c24b4b,2024-01-23_08h08.07.170,bars,2023.2.3,Win32,60.0240096,657b66ea316d21385b68909f,,,,,,,,,,,2444.054,2445.05,,,2445.55,2445.799,,156,156,,,,,,,,,,,,,,,,bars/034.png,bars/mask009.png,,,,,,,,,,,,0,1,,,,,,,6,0,4,0,,,,,,,,,,,2445.05,2445.55,2445.799,2448.614,space,2.799,,2448.614,31,89,2449.612,2449.613,2449.621,,,,0,25,25,25,1,125,65,,,,,,,,
,,61656a7e58d53cbb92ade865,65af578674eb1d0e84c24b4b,2024-01-23_08h08.07.170,bars,2023.2.3,Win32,60.0240096,657b66ea316d21385b68909f,,,,,,,,,,,2449.621,2450.612,,,2451.112,2451.361,,165,165,,,,,,,,,,,,,,,,bars/004.png,bars/mask003.png,,,,,,,,,,,,0,2,,,,,,,4,2,3,1,,,,,,,,,,,2450.612,2451.112,2451.361,2457.473,space,6.1,,2457.473,40,40,2458.461,2458.461,2458.465,,,,0,26,26,26,1,25,125,,,,,,,,
,,61656a7e58d53cbb92ade865,65af578674eb1d0e84c24b4b,2024-01-23_08h08.07.170,bars,2023.2.3,Win32,60.0240096,657b66ea316d21385b68909f,,,,,,,,,,,2458.466,2459.47,,,2459.969,2460.219,,9,9,,,,,,,,,,,,,,,,bars/039.png,bars/mask006.png,,,,,,,,,,,,1,1,,,,,,,2,0,2,0,,,,,,,,,,,2459.47,2459.969,2460.219,2461.352,space,1.12,,2461.352,14,84,2462.351,2462.351,2462.355,,,,0,27,27,27,1,175,105,,,,,,,,
,,61656a7e58d53cbb92ade865,65af578674eb1d0e84c24b4b,2024-01-23_08h08.07.170,bars,2023.2.3,Win32,60.0240096,657b66ea316d21385b68909f,,,,,,,,,,,2462.356,2463.333,,,2463.831,2464.08,,145,145,,,,,,,,,,,,,,,,bars/023.png,bars/mask000.png,,,,,,,,,,,,0,2,,,,,,,0,2,1,1,,,,,,,,,,,2463.333,2463.831,2464.08,2467.646,space,3.555,,2467.646,55,30,2468.644,2468.644,2468.648,,,,0,28,28,28,1,20,115,,,,,,,,
,,61656a7e58d53cbb92ade865,65af578674eb1d0e84c24b4b,2024-01-23_08h08.07.170,bars,2023.2.3,Win32,60.0240096,657b66ea316d21385b68909f,,,,,,,,,,,2468.649,2469.642,,,2470.142,2470.393,,133,133,,,,,,,,,,,,,,,,bars/004.png,bars/mask008.png,,,,,,,,,,,,0,2,,,,,,,2,0,3,0,,,,,,,,,,,2469.642,2470.142,2470.393,2475.373,space,4.967,,2475.373,72,8,2476.37,2476.37,2476.377,,,,0,29,29,29,1,25,125,,,,,,,,
,,61656a7e58d53cbb92ade865,65af578674eb1d0e84c24b4b,2024-01-23_08h08.07.170,bars,2023.2.3,Win32,60.0240096,657b66ea316d21385b68909f,,,,,,,,,,,2476.377,2477.366,,,2477.852,2478.101,,160,160,,,,,,,,,,,,,,,,bars/045.png,bars/mask008.png,,,,,,,,,,,,0,2,,,,,,,4,2,3,1,,,,,,,,,,,2477.366,2477.851,2478.101,2479.034,space,0.913,,2479.034,60,30,2480.033,2480.033,2480.034,,,,0,30,30,30,1,100,10,,,,,,,,
,,61656a7e58d53cbb92ade865,65af578674eb1d0e84c24b4b,2024-01-23_08h08.07.170,bars,2023.2.3,Win32,60.0240096,657b66ea316d21385b68909f,,,,,,,,,,,2480.035,2481.033,,,2481.531,2481.78,,54,54,,,,,,,,,,,,,,,,bars/045.png,bars/mask004.png,,,,,,,,,,,,0,2,,,,,,,2,4,4,5,,,,,,,,,,,2481.033,2481.531,2481.781,2483.945,space,2.15,,2483.945,46,44,2484.944,2484.944,2484.945,,,,0,31,31,31,1,100,10,,,,,,,,
,,61656a7e58d53cbb92ade865,65af578674eb1d0e84c24b4b,2024-01-23_08h08.07.170,bars,2023.2.3,Win32,60.0240096,657b66ea316d21385b68909f,,,,,,,,,,,2484.945,2485.945,,,2486.432,2486.675,,166,166,,,,,,,,,,,,,,,,bars/025.png,bars/mask008.png,,,,,,,,,,,,0,2,,,,,,,0,6,1,5,,,,,,,,,,,2485.945,2486.432,2486.675,2488.742,space,2.054,,2488.742,61,54,2489.739,2489.739,2489.741,,,,0,32,32,32,1,105,40,,,,,,,,
,,61656a7e58d53cbb92ade865,65af578674eb1d0e84c24b4b,2024-01-23_08h08.07.170,bars,2023.2.3,Win32,60.0240096,657b66ea316d21385b68909f,,,,,,,,,,,2489.742,2490.739,,,2491.24,2491.486,,101,101,,,,,,,,,,,,,,,,bars/037.png,bars/mask000.png,,,,,,,,,,,,7,2,,,,,,,0,8,0,8,,,,,,,,,,,2490.739,2491.24,2491.486,2494.47,space,2.97,,2494.47,49,4,2495.467,2495.467,2495.472,,,,0,33,33,33,1,150,105,,,,,,,,
,,61656a7e58d53cbb92ade865,65af578674eb1d0e84c24b4b,2024-01-23_08h08.07.170,bars,2023.2.3,Win32,60.0240096,657b66ea316d21385b68909f,,,,,,,,,,,2495.472,2496.466,,,2496.966,2497.21,,155,155,,,,,,,,,,,,,,,,bars/040.png,bars/mask006.png,,,,,,,,,,,,0,1,,,,,,,0,6,0,6,,,,,,,,,,,2496.466,2496.966,2497.21,2498.464,space,1.221,,2498.464,15,30,2499.464,2499.464,2499.47,,,,0,34,34,34,1,140,5,,,,,,,,
,,61656a7e58d53cbb92ade865,65af578674eb1d0e84c24b4b,2024-01-23_08h08.07.170,bars,2023.2.3,Win32,60.0240096,657b66ea316d21385b68909f,,,,,,,,,,,2499.47,2500.462,,,2500.967,2501.213,,44,224,,,,,,,,,,,,,,,,bars/025.png,bars/mask007.png,,,,,,,,,,,,6,2,,,,,,,0,8,0,7,,,,,,,,,,,2500.462,2500.967,2501.213,2503.56,space,2.33,,2503.56,61,4,2504.556,2504.556,2504.562,,,,0,35,35,35,1,105,40,,,,,,,,
,,61656a7e58d53cbb92ade865,65af578674eb1d0e84c24b4b,2024-01-23_08h08.07.170,bars,2023.2.3,Win32,60.0240096,657b66ea316d21385b68909f,,,,,,,,,,,2504.562,2505.559,,,2506.056,2506.307,,17,197,,,,,,,,,,,,,,,,bars/029.png,bars/mask000.png,,,,,,,,,,,,0,2,,,,,,,2,6,2,6,,,,,,,,,,,2505.56,2506.056,2506.308,2507.755,space,1.421,,2507.755,73,28,2508.738,2508.738,2508.744,,,,0,36,36,36,1,90,45,,,,,,,,
,,61656a7e58d53cbb92ade865,65af578674eb1d0e84c24b4b,2024-01-23_08h08.07.170,bars,2023.2.3,Win32,60.0240096,657b66ea316d21385b68909f,,,,,,,,,,,2508.745,2509.738,,,2510.236,2510.485,,94,94,,,,,,,,,,,,,,,,bars/029.png,bars/mask007.png,,,,,,,,,,,,1,1,,,,,,,0,8,1,7,,,,,,,,,,,2509.738,2510.236,2510.485,2512.569,space,2.073,,2512.569,4,49,2513.565,2513.566,2513.571,,,,0,37,37,37,1,90,45,,,,,,,,
,,61656a7e58d53cbb92ade865,65af578674eb1d0e84c24b4b,2024-01-23_08h08.07.170,bars,2023.2.3,Win32,60.0240096,657b66ea316d21385b68909f,,,,,,,,,,,2513.572,2514.547,,,2515.049,2515.301,,113,113,,,,,,,,,,,,,,,,bars/005.png,bars/mask001.png,,,,,,,,,,,,1,2,,,,,,,2,10,5,9,,,,,,,,,,,2514.548,2515.049,2515.301,2517.331,space,2.022,,2517.331,77,27,2518.329,2518.329,2518.336,,,,0,38,38,38,1,10,140,,,,,,,,
,,61656a7e58d53cbb92ade865,65af578674eb1d0e84c24b4b,2024-01-23_08h08.07.170,bars,2023.2.3,Win32,60.0240096,657b66ea316d21385b68909f,,,,,,,,,,,2518.336,2519.313,,,2519.804,2520.06,,82,82,,,,,,,,,,,,,,,,bars/016.png,bars/mask001.png,,,,,,,,,,,,0,1,,,,,,,0,10,0,10,,,,,,,,,,,2519.313,2519.804,2520.06,2522.076,space,2.006,,2522.076,42,83,2523.073,2523.073,2523.079,,,,0,39,39,39,1,40,165,,,,,,,,
,,61656a7e58d53cbb92ade865,65af578674eb1d0e84c24b4b,2024-01-23_08h08.07.170,bars,2023.2.3,Win32,60.0240096,657b66ea316d21385b68909f,,,,,,,,,,,2523.079,2524.072,,,2524.573,2524.822,,87,87,,,,,,,,,,,,,,,,bars/025.png,bars/mask003.png,,,,,,,,,,,,1,1,,,,,,,2,10,3,10,,,,,,,,,,,2524.073,2524.573,2524.822,2526.471,space,1.641,,2526.471,18,47,2527.47,2527.47,2527.472,,,,0,40,40,40,1,105,40,,,,,,,,
,,61656a7e58d53cbb92ade865,65af578674eb1d0e84c24b4b,2024-01-23_08h08.07.170,bars,2023.2.3,Win32,60.0240096,657b66ea316d21385b68909f,,,,,,,,,,,2527.472,2528.468,,,2528.968,2529.217,,107,107,,,,,,,,,,,,,,,,bars/007.png,bars/mask000.png,,,,,,,,,,,,0,2,,,,,,,4,10,6,10,,,,,,,,,,,2528.468,2528.967,2529.217,2529.718,space,0.488,,2529.718,68,52,2530.715,2530.715,2530.72,,,,0,41,41,41,1,175,55,,,,,,,,
,,61656a7e58d53cbb92ade865,65af578674eb1d0e84c24b4b,2024-01-23_08h08.07.170,bars,2023.2.3,Win32,60.0240096,657b66ea316d21385b68909f,,,,,,,,,,,2530.721,2531.717,,,2532.198,2532.41,,5,365,,,,,,,,,,,,,,,,bars/040.png,bars/mask006.png,,,,,,,,,,,,10,2,,,,,,,2,10,2,10,,,,,,,,,,,2531.717,2532.197,2532.41,2540.11,space,7.667,,2540.11,45,0,2541.099,2541.1,2541.102,,,,0,42,42,42,1,140,5,,,,,,,,
,,61656a7e58d53cbb92ade865,65af578674eb1d0e84c24b4b,2024-01-23_08h08.07.170,bars,2023.2.3,Win32,60.0240096,657b66ea316d21385b68909f,,,,,,,,,,,2541.105,2542.106,,,2542.6,2542.859,,58,238,,,,,,,,,,,,,,,,bars/011.png,bars/mask004.png,,,,,,,,,,,,1,2,,,,,,,4,10,4,9,,,,,,,,,,,2542.106,2542.6,2542.86,2550.432,space,7.554,,2550.433,78,27,2551.429,2551.429,2551.433,,,,0,43,43,43,1,160,85,,,,,,,,
,,61656a7e58d53cbb92ade865,65af578674eb1d0e84c24b4b,2024-01-23_08h08.07.170,bars,2023.2.3,Win32,60.0240096,657b66ea316d21385b68909f,,,,,,,,,,,2551.435,2552.429,,,2552.928,2553.178,,174,354,,,,,,,,,,,,,,,,bars/037.png,bars/mask003.png,,,,,,,,,,,,1,1,,,,,,,6,8,7,8,,,,,,,,,,,2552.429,2552.928,2553.178,2560.587,space,7.389,,2560.587,24,69,2561.584,2561.584,2561.59,,,,0,44,44,44,1,150,105,,,,,,,,
,,61656a7e58d53cbb92ade865,65af578674eb1d0e84c24b4b,2024-01-23_08h08.07.170,bars,2023.2.3,Win32,60.0240096,657b66ea316d21385b68909f,,,,,,,,,,,2561.591,2562.584,,,2563.085,2563.333,,61,241,,,,,,,,,,,,,,,,bars/031.png,bars/mask005.png,,,,,,,,,,,,1,2,,,,,,,4,10,2,10,,,,,,,,,,,2562.585,2563.085,2563.333,2566.581,space,3.237,,2566.581,59,26,2567.57,2567.57,2567.585,,,,0,45,45,45,1,120,35,,,,,,,,
,,61656a7e58d53cbb92ade865,65af578674eb1d0e84c24b4b,2024-01-23_08h08.07.170,bars,2023.2.3,Win32,60.0240096,657b66ea316d21385b68909f,,,,,,,,,,,2567.585,2568.58,,,2569.079,2569.327,,51,51,,,,,,,,,,,,,,,,bars/013.png,bars/mask009.png,,,,,,,,,,,,0,1,,,,,,,2,8,2,6,,,,,,,,,,,2568.58,2569.079,2569.327,2569.911,space,0.571,,2569.911,24,41,2570.895,2570.895,2570.903,,,,0,46,46,46,1,75,10,,,,,,,,
,,61656a7e58d53cbb92ade865,65af578674eb1d0e84c24b4b,2024-01-23_08h08.07.170,bars,2023.2.3,Win32,60.0240096,657b66ea316d21385b68909f,,,,,,,,,,,2570.904,2571.892,,,2572.385,2572.643,,130,130,,,,,,,,,,,,,,,,bars/028.png,bars/mask009.png,,,,,,,,,,,,5,2,,,,,,,4,6,4,7,,,,,,,,,,,2571.892,2572.385,2572.643,2573.876,space,1.224,,2573.876,85,10,2574.873,2574.873,2574.877,,,,0,47,47,47,1,45,120,,,,,,,,
,,61656a7e58d53cbb92ade865,65af578674eb1d0e84c24b4b,2024-01-23_08h08.07.170,bars,2023.2.3,Win32,60.0240096,657b66ea316d21385b68909f,,,,,,,,,,,2574.877,2575.871,,,2576.373,2576.611,,165,165,,,,,,,,,,,,,,,,bars/013.png,bars/mask000.png,,,,,,,,,,,,1,2,,,,,,,2,8,2,7,,,,,,,,,,,2575.871,2576.373,2576.611,2579.189,space,2.544,,2579.189,90,25,2580.185,2580.185,2580.19,,,,0,48,48,48,1,75,10,,,,,,,,
,,61656a7e58d53cbb92ade865,65af578674eb1d0e84c24b4b,2024-01-23_08h08.07.170,bars,2023.2.3,Win32,60.0240096,657b66ea316d21385b68909f,,,,,,,,,,,2580.191,2581.184,,,2581.678,2581.932,,118,118,,,,,,,,,,,,,,,,bars/023.png,bars/mask005.png,,,,,,,,,,,,9,2,,,,,,,0,10,0,10,,,,,,,,,,,2581.184,2581.678,2581.932,2584.482,space,2.54,,2584.482,82,3,2585.479,2585.479,2585.482,,,,0,49,49,49,1,20,115,,,,,,,,
,,61656a7e58d53cbb92ade865,65af578674eb1d0e84c24b4b,2024-01-23_08h08.07.170,bars,2023.2.3,Win32,60.0240096,657b66ea316d21385b68909f,,,,,,,,,,,,,,,,,,,,,,,,,,,,,,,,,,,,,,,,,,,,,,,,,,,,,,,,,,,,,,,,,,,,,,,,,,,,,,,,,,,,,,,,,,,,,2585.482,2645.489,0,3,3,2,1,sequence_tables/blk026.csv
,,61656a7e58d53cbb92ade865,65af578674eb1d0e84c24b4b,2024-01-23_08h08.07.170,bars,2023.2.3,Win32,60.0240096,657b66ea316d21385b68909f,,,,,,,,,,,2751.303,2752.299,,,2752.799,2753.05,,83,83,,,,,,,,,,,,,,,,bars/032.png,bars/mask004.png,,,,,,,,,,,,0,1,,,,,,,9,8,9,9,,,,,,2645.495,2751.288,space,105.762,,2752.299,2752.799,2753.05,2754.265,space,1.192,,2754.265,42,63,2755.271,2755.271,2755.284,,,,0,0,0,0,1,125,20,,,,,,,,
,,61656a7e58d53cbb92ade865,65af578674eb1d0e84c24b4b,2024-01-23_08h08.07.170,bars,2023.2.3,Win32,60.0240096,657b66ea316d21385b68909f,,,,,,,,,,,2755.285,2756.278,,,2756.779,2757.027,,154,154,,,,,,,,,,,,,,,,bars/049.png,bars/mask000.png,,,,,,,,,,,,6,1,,,,,,,7,10,7,10,,,,,,,,,,,2756.278,2756.779,2757.027,2757.812,space,0.772,,2757.812,6,39,2758.809,2758.809,2758.81,,,,0,1,1,1,1,160,115,,,,,,,,
,,61656a7e58d53cbb92ade865,65af578674eb1d0e84c24b4b,2024-01-23_08h08.07.170,bars,2023.2.3,Win32,60.0240096,657b66ea316d21385b68909f,,,,,,,,,,,2758.811,2759.807,,,2760.282,2760.525,,118,118,,,,,,,,,,,,,,,,bars/020.png,bars/mask006.png,,,,,,,,,,,,8,1,,,,,,,9,10,9,10,,,,,,,,,,,2759.807,2760.282,2760.525,2761.462,space,0.928,,2761.462,3,52,2762.456,2762.457,2762.458,,,,0,2,2,2,1,115,170,,,,,,,,
,,61656a7e58d53cbb92ade865,65af578674eb1d0e84c24b4b,2024-01-23_08h08.07.170,bars,2023.2.3,Win32,60.0240096,657b66ea316d21385b68909f,,,,,,,,,,,2762.458,2763.456,,,2763.954,2764.204,,9,9,,,,,,,,,,,,,,,,bars/009.png,bars/mask006.png,,,,,,,,,,,,6,1,,,,,,,7,8,8,6,,,,,,,,,,,2763.456,2763.954,2764.204,2764.872,space,0.659,,2764.872,6,84,2765.869,2765.869,2765.871,,,,0,3,3,3,1,15,105,,,,,,,,
,,61656a7e58d53cbb92ade865,65af578674eb1d0e84c24b4b,2024-01-23_08h08.07.170,bars,2023.2.3,Win32,60.0240096,657b66ea316d21385b68909f,,,,,,,,,,,2765.871,2766.869,,,2767.366,2767.617,,177,177,,,,,,,,,,,,,,,,bars/047.png,bars/mask003.png,,,,,,,,,,,,2,1,,,,,,,5,10,6,10,,,,,,,,,,,2766.869,2767.366,2767.617,2767.984,space,0.357,,2767.984,18,73,2768.967,2768.967,2768.972,,,,0,4,4,4,1,15,70,,,,,,,,
,,61656a7e58d53cbb92ade865,65af578674eb1d0e84c24b4b,2024-01-23_08h08.07.170,bars,2023.2.3,Win32,60.0240096,657b66ea316d21385b68909f,,,,,,,,,,,2768.973,2769.965,,,2770.466,2770.723,,141,141,,,,,,,,,,,,,,,,bars/020.png,bars/mask006.png,,,,,,,,,,,,1,1,,,,,,,7,8,7,8,,,,,,,,,,,2769.965,2770.466,2770.723,2771.314,space,0.574,,2771.314,26,29,2772.312,2772.312,2772.314,,,,0,5,5,5,1,115,170,,,,,,,,
,,61656a7e58d53cbb92ade865,65af578674eb1d0e84c24b4b,2024-01-23_08h08.07.170,bars,2023.2.3,Win32,60.0240096,657b66ea316d21385b68909f,,,,,,,,,,,2772.314,2773.31,,,2773.812,2774.062,,53,53,,,,,,,,,,,,,,,,bars/006.png,bars/mask007.png,,,,,,,,,,,,4,1,,,,,,,9,6,9,5,,,,,,,,,,,2773.31,2773.812,2774.062,2774.435,space,0.36,,2774.435,18,47,2775.427,2775.427,2775.428,,,,0,6,6,6,1,35,100,,,,,,,,
,,61656a7e58d53cbb92ade865,65af578674eb1d0e84c24b4b,2024-01-23_08h08.07.170,bars,2023.2.3,Win32,60.0240096,657b66ea316d21385b68909f,,,,,,,,,,,2775.428,2776.443,,,2776.916,2777.2,,16,16,,,,,,,,,,,,,,,,bars/031.png,bars/mask007.png,,,,,,,,,,,,1,2,,,,,,,7,4,7,2,,,,,,,,,,,2776.443,2776.916,2777.2,2777.793,space,0.559,,2777.793,76,19,2778.79,2778.79,2778.798,,,,0,7,7,7,1,120,35,,,,,,,,
,,61656a7e58d53cbb92ade865,65af578674eb1d0e84c24b4b,2024-01-23_08h08.07.170,bars,2023.2.3,Win32,60.0240096,657b66ea316d21385b68909f,,,,,,,,,,,2778.799,2779.803,,,2780.305,2780.555,,168,168,,,,,,,,,,,,,,,,bars/047.png,bars/mask000.png,,,,,,,,,,,,1,1,,,,,,,5,2,6,3,,,,,,,,,,,2779.803,2780.305,2780.555,2780.772,space,0.196,,2780.772,27,82,2781.771,2781.771,2781.779,,,,0,8,8,8,1,15,70,,,,,,,,
,,61656a7e58d53cbb92ade865,65af578674eb1d0e84c24b4b,2024-01-23_08h08.07.170,bars,2023.2.3,Win32,60.0240096,657b66ea316d21385b68909f,,,,,,,,,,,2781.78,2782.769,,,2783.258,2783.508,,45,45,,,,,,,,,,,,,,,,bars/039.png,bars/mask002.png,,,,,,,,,,,,0,1,,,,,,,7,4,8,4,,,,,,,,,,,2782.769,2783.257,2783.508,2784.354,space,0.818,,2784.354,50,60,2785.351,2785.351,2785.354,,,,0,9,9,9,1,175,105,,,,,,,,
,,61656a7e58d53cbb92ade865,65af578674eb1d0e84c24b4b,2024-01-23_08h08.07.170,bars,2023.2.3,Win32,60.0240096,657b66ea316d21385b68909f,,,,,,,,,,,2785.355,2786.359,,,2786.85,2787.088,,93,93,,,,,,,,,,,,,,,,bars/046.png,bars/mask004.png,,,,,,,,,,,,1,2,,,,,,,9,2,10,2,,,,,,,,,,,2786.359,2786.85,2787.088,2788.615,space,1.518,,2788.616,62,8,2789.612,2789.612,2789.617,,,,0,10,10,10,1,155,85,,,,,,,,
,,61656a7e58d53cbb92ade865,65af578674eb1d0e84c24b4b,2024-01-23_08h08.07.170,bars,2023.2.3,Win32,60.0240096,657b66ea316d21385b68909f,,,,,,,,,,,2789.618,2790.613,,,2791.112,2791.361,,115,115,,,,,,,,,,,,,,,,bars/003.png,bars/mask009.png,,,,,,,,,,,,0,2,,,,,,,7,0,7,0,,,,,,,,,,,2790.613,2791.112,2791.361,2792.612,space,1.242,,2792.612,90,25,2793.609,2793.609,2793.612,,,,0,11,11,11,1,25,140,,,,,,,,
,,61656a7e58d53cbb92ade865,65af578674eb1d0e84c24b4b,2024-01-23_08h08.07.170,bars,2023.2.3,Win32,60.0240096,657b66ea316d21385b68909f,,,,,,,,,,,2793.612,2794.599,,,2795.094,2795.341,,125,125,,,,,,,,,,,,,,,,bars/022.png,bars/mask008.png,,,,,,,,,,,,0,1,,,,,,,9,0,9,0,,,,,,,,,,,2794.599,2795.094,2795.341,2796.542,space,1.188,,2796.542,30,75,2797.539,2797.539,2797.543,,,,0,12,12,12,1,95,20,,,,,,,,
,,61656a7e58d53cbb92ade865,65af578674eb1d0e84c24b4b,2024-01-23_08h08.07.170,bars,2023.2.3,Win32,60.0240096,657b66ea316d21385b68909f,,,,,,,,,,,2797.543,2798.537,,,2799.037,2799.286,,114,114,,,,,,,,,,,,,,,,bars/037.png,bars/mask002.png,,,,,,,,,,,,1,2,,,,,,,10,0,10,2,,,,,,,,,,,2798.537,2799.037,2799.286,2801.103,space,1.805,,2801.103,36,9,2802.101,2802.101,2802.105,,,,0,13,13,13,1,150,105,,,,,,,,
,,61656a7e58d53cbb92ade865,65af578674eb1d0e84c24b4b,2024-01-23_08h08.07.170,bars,2023.2.3,Win32,60.0240096,657b66ea316d21385b68909f,,,,,,,,,,,2802.106,2803.1,,,2803.6,2803.849,,4,4,,,,,,,,,,,,,,,,bars/028.png,bars/mask005.png,,,,,,,,,,,,0,1,,,,,,,10,2,8,0,,,,,,,,,,,2803.1,2803.6,2803.849,2804.416,space,0.56,,2804.417,41,64,2805.416,2805.416,2805.422,,,,0,14,14,14,1,45,120,,,,,,,,
,,61656a7e58d53cbb92ade865,65af578674eb1d0e84c24b4b,2024-01-23_08h08.07.170,bars,2023.2.3,Win32,60.0240096,657b66ea316d21385b68909f,,,,,,,,,,,2805.423,2806.413,,,2806.913,2807.162,,105,105,,,,,,,,,,,,,,,,bars/018.png,bars/mask004.png,,,,,,,,,,,,2,2,,,,,,,8,4,8,4,,,,,,,,,,,2806.413,2806.913,2807.162,2906.767,space,99.59,,2906.767,45,15,2907.765,2907.765,2907.776,,,,0,15,15,15,1,150,90,,,,,,,,
,,61656a7e58d53cbb92ade865,65af578674eb1d0e84c24b4b,2024-01-23_08h08.07.170,bars,2023.2.3,Win32,60.0240096,657b66ea316d21385b68909f,,,,,,,,,,,2907.78,2908.779,,,2909.28,2909.53,,61,61,,,,,,,,,,,,,,,,bars/039.png,bars/mask002.png,,,,,,,,,,,,0,2,,,,,,,10,2,10,2,,,,,,,,,,,2908.779,2909.28,2909.53,2910.912,space,1.371,,2910.912,66,44,2911.91,2911.91,2911.912,,,,0,16,16,16,1,175,105,,,,,,,,
,,61656a7e58d53cbb92ade865,65af578674eb1d0e84c24b4b,2024-01-23_08h08.07.170,bars,2023.2.3,Win32,60.0240096,657b66ea316d21385b68909f,,,,,,,,,,,2911.913,2912.919,,,2913.409,2913.658,,47,47,,,,,,,,,,,,,,,,bars/021.png,bars/mask003.png,,,,,,,,,,,,0,2,,,,,,,8,0,8,1,,,,,,,,,,,2912.919,2913.409,2913.658,2914.376,space,0.704,,2914.376,72,23,2915.372,2915.373,2915.378,,,,0,17,17,17,1,155,70,,,,,,,,
,,61656a7e58d53cbb92ade865,65af578674eb1d0e84c24b4b,2024-01-23_08h08.07.170,bars,2023.2.3,Win32,60.0240096,657b66ea316d21385b68909f,,,,,,,,,,,2915.379,2916.376,,,2916.874,2917.116,,2,2,,,,,,,,,,,,,,,,bars/002.png,bars/mask002.png,,,,,,,,,,,,0,1,,,,,,,6,0,5,0,,,,,,,,,,,2916.376,2916.874,2917.116,2917.211,space,0.066,,2917.211,52,83,2918.204,2918.204,2918.214,,,,0,18,18,18,1,130,85,,,,,,,,
