init_variables.started,init_variables.stopped,participant,session,date,expName,psychopyVersion,OS,frameRate,study_id,instruction_exp.started,instruction_exp.stopped,key_resp_8.keys,key_resp_8.rt,key_resp_8.duration,instruction_single.started,instruction_single.stopped,key_resp_2.keys,key_resp_2.rt,key_resp_2.duration,interval.started,interval.stopped,cue_single.started,cue_single.stopped,mask.started,mask.stopped,ori_response_single.started,res_ori,res,ori_response_single.stopped,key_resp_single.keys,key_resp_single.rt,key_resp_single.duration,disp_single.started,disp_single.stopped,key_resp.keys,key_resp.rt,key_resp.duration,single.thisRepN,single.thisTrialN,single.thisN,single.thisIndex,single.ran,ori,path,mask_path,instruction_bandit.started,instruction_bandit.stopped,key_resp_6.keys,key_resp_6.rt,key_resp_6.duration,cue_bandit.started,cue_bandit.stopped,bandit_res.keys,bandit_res.rt,bandit_res.duration,outcome_bandit.started,rew,action,outcome_bandit.stopped,bandit.thisRepN,bandit.thisTrialN,bandit.thisN,bandit.thisIndex,bandit.ran,actual_rew1,actual_rew2,rew1,rew2,instruction_task.started,instruction_task.stopped,key_resp_7.keys,key_resp_7.rt,key_resp_7.duration,wait_ready.started,wait_ready.stopped,key_resp_3.keys,key_resp_3.rt,key_resp_3.duration,cue.started,cue.stopped,ori_response.started,ori_response.stopped,key_resp_5.keys,key_resp_5.rt,key_resp_5.duration,outcome.started,diff1,diff2,outcome.stopped,disp_outcome_practice.started,disp_outcome_practice.stopped,key_resp_4.keys,key_resp_4.rt,key_resp_4.duration,trials.thisRepN,trials.thisTrialN,trials.thisN,trials.thisIndex,trials.ran,ori1,ori2,break_blk.started,break_blk.stopped,block.thisRepN,block.thisTrialN,block.thisN,block.thisIndex,block.ran,condition_file
0.0004,0.0006,65aafa301d1aa8daf91f5bee,65af56a58f4b972623180bb5,2024-01-23_24h07.02.417,bars,2023.2.3,Win32,60.97560976,657b66ea316d21385b68909f,,,,,,,,,,,,,,,,,,,,,,,,,,,,,,,,,,,,,,,,,,,,,,,,,,,,,,,,,,,,,,,,,,,,,,,,,,,,,,,,,,,,,,,,,,,,,,,,,,,,
,,65aafa301d1aa8daf91f5bee,65af56a58f4b972623180bb5,2024-01-23_24h07.02.417,bars,2023.2.3,Win32,60.97560976,657b66ea316d21385b68909f,0.0008,437.2069,y,437.172,,,,,,,,,,,,,,,,,,,,,,,,,,,,,,,,,,,,,,,,,,,,,,,,,,,,,,,,,,,,,,,,,,,,,,,,,,,,,,,,,,,,,,,,,,,,,,,,
,,65aafa301d1aa8daf91f5bee,65af56a58f4b972623180bb5,2024-01-23_24h07.02.417,bars,2023.2.3,Win32,60.97560976,657b66ea316d21385b68909f,,,,,,437.2074,453.0258,space,15.7877,,,,,,,,,,,,,,,,,,,,,,,,,,,,,,,,,,,,,,,,,,,,,,,,,,,,,,,,,,,,,,,,,,,,,,,,,,,,,,,,,,,,,,,,,,,
,,65aafa301d1aa8daf91f5bee,65af56a58f4b972623180bb5,2024-01-23_24h07.02.417,bars,2023.2.3,Win32,60.97560976,657b66ea316d21385b68909f,,,,,,,,,,,453.0366,454.0408,454.0412,454.5303,454.5306,454.7725,454.7728,48,48,457.7343,space,2.9038,,457.7346,460.4467,space,2.6761,,0,0,0,7,1,45,bars/single007.png,bars/mask009.png,,,,,,,,,,,,,,,,,,,,,,,,,,,,,,,,,,,,,,,,,,,,,,,,,,,,,,,,,,,,,,,,
,,65aafa301d1aa8daf91f5bee,65af56a58f4b972623180bb5,2024-01-23_24h07.02.417,bars,2023.2.3,Win32,60.97560976,657b66ea316d21385b68909f,,,,,,,,,,,460.4471,461.4428,461.443,461.9422,461.9423,462.1918,462.1918,26,26,464.6704,space,2.4631,,464.6707,466.2507,space,1.5662,,0,1,1,3,1,20,bars/single003.png,bars/mask005.png,,,,,,,,,,,,,,,,,,,,,,,,,,,,,,,,,,,,,,,,,,,,,,,,,,,,,,,,,,,,,,,,
,,65aafa301d1aa8daf91f5bee,65af56a58f4b972623180bb5,2024-01-23_24h07.02.417,bars,2023.2.3,Win32,60.97560976,657b66ea316d21385b68909f,,,,,,,,,,,466.2514,467.2488,467.2488,467.7478,467.7478,467.9972,467.9973,135,135,472.9885,space,4.9718,,472.9886,474.3855,space,1.371,,0,2,2,2,1,145,bars/single002.png,bars/mask003.png,,,,,,,,,,,,,,,,,,,,,,,,,,,,,,,,,,,,,,,,,,,,,,,,,,,,,,,,,,,,,,,,
,,65aafa301d1aa8daf91f5bee,65af56a58f4b972623180bb5,2024-01-23_24h07.02.417,bars,2023.2.3,Win32,60.97560976,657b66ea316d21385b68909f,,,,,,,,,,,474.386,475.3835,475.3835,475.8829,475.883,476.1393,476.1393,27,207,479.343,space,3.1853,,479.3431,480.574,space,1.1974,,0,3,3,9,1,20,bars/single009.png,bars/mask006.png,,,,,,,,,,,,,,,,,,,,,,,,,,,,,,,,,,,,,,,,,,,,,,,,,,,,,,,,,,,,,,,,
,,65aafa301d1aa8daf91f5bee,65af56a58f4b972623180bb5,2024-01-23_24h07.02.417,bars,2023.2.3,Win32,60.97560976,657b66ea316d21385b68909f,,,,,,,,,,,480.5746,481.576,481.5761,482.075,482.0751,482.3205,482.3206,5,5,485.0005,space,2.6553,,485.0005,486.7456,space,1.7143,,0,4,4,1,1,20,bars/single001.png,bars/mask006.png,,,,,,,,,,,,,,,,,,,,,,,,,,,,,,,,,,,,,,,,,,,,,,,,,,,,,,,,,,,,,,,,
,,65aafa301d1aa8daf91f5bee,65af56a58f4b972623180bb5,2024-01-23_24h07.02.417,bars,2023.2.3,Win32,60.97560976,657b66ea316d21385b68909f,,,,,,,,,,,486.7461,487.751,487.7511,488.2427,488.2428,488.4922,488.4923,166,166,491.7862,space,3.2697,,491.7863,493.0253,space,1.2123,,0,5,5,0,1,150,bars/single000.png,bars/mask006.png,,,,,,,,,,,,,,,,,,,,,,,,,,,,,,,,,,,,,,,,,,,,,,,,,,,,,,,,,,,,,,,,
,,65aafa301d1aa8daf91f5bee,65af56a58f4b972623180bb5,2024-01-23_24h07.02.417,bars,2023.2.3,Win32,60.97560976,657b66ea316d21385b68909f,,,,,,,,,,,493.0257,494.0152,494.0153,494.5143,494.5143,494.7641,494.7641,91,91,497.2096,space,2.4146,,497.2097,498.2245,space,0.9812,,0,6,6,4,1,95,bars/single004.png,bars/mask004.png,,,,,,,,,,,,,,,,,,,,,,,,,,,,,,,,,,,,,,,,,,,,,,,,,,,,,,,,,,,,,,,,
,,65aafa301d1aa8daf91f5bee,65af56a58f4b972623180bb5,2024-01-23_24h07.02.417,bars,2023.2.3,Win32,60.97560976,657b66ea316d21385b68909f,,,,,,,,,,,498.2252,499.2223,499.2223,499.7211,499.7212,499.971,499.971,165,-15,504.0798,space,4.0824,,504.0799,504.9948,space,0.8817,,0,7,7,8,1,160,bars/single008.png,bars/mask004.png,,,,,,,,,,,,,,,,,,,,,,,,,,,,,,,,,,,,,,,,,,,,,,,,,,,,,,,,,,,,,,,,
,,65aafa301d1aa8daf91f5bee,65af56a58f4b972623180bb5,2024-01-23_24h07.02.417,bars,2023.2.3,Win32,60.97560976,657b66ea316d21385b68909f,,,,,,,,,,,504.9954,505.9997,505.9997,506.4919,506.4919,506.7415,506.7415,59,59,508.7619,space,1.9967,,508.7619,509.6862,space,0.8992,,0,8,8,5,1,55,bars/single005.png,bars/mask008.png,,,,,,,,,,,,,,,,,,,,,,,,,,,,,,,,,,,,,,,,,,,,,,,,,,,,,,,,,,,,,,,,
,,65aafa301d1aa8daf91f5bee,65af56a58f4b972623180bb5,2024-01-23_24h07.02.417,bars,2023.2.3,Win32,60.97560976,657b66ea316d21385b68909f,,,,,,,,,,,509.6869,510.6838,510.6839,511.1894,511.1895,511.4325,511.4326,173,-7,513.0797,space,1.6165,,513.0798,514.2275,space,1.1206,,0,9,9,6,1,175,bars/single006.png,bars/mask005.png,,,,,,,,,,,,,,,,,,,,,,,,,,,,,,,,,,,,,,,,,,,,,,,,,,,,,,,,,,,,,,,,
,,65aafa301d1aa8daf91f5bee,65af56a58f4b972623180bb5,2024-01-23_24h07.02.417,bars,2023.2.3,Win32,60.97560976,657b66ea316d21385b68909f,,,,,,,,,,,,,,,,,,,,,,,,,,,,,,,,,,,,,514.2281,527.9941,space,13.7412,,,,,,,,,,,,,,,,,,,,,,,,,,,,,,,,,,,,,,,,,,,,,,,,,,,,,,,,,,,,
,,65aafa301d1aa8daf91f5bee,65af56a58f4b972623180bb5,2024-01-23_24h07.02.417,bars,2023.2.3,Win32,60.97560976,657b66ea316d21385b68909f,,,,,,,,,,,,,,,,,,,,,,,,,,,,,,,,,,,,,,,,,,528.0131,528.9839,right,0.942,,528.9842,2,2,529.9812,0,0,0,0,1,9,1,9,2,,,,,,,,,,,,,,,,,,,,,,,,,,,,,,,,,,,,,,,,,
,,65aafa301d1aa8daf91f5bee,65af56a58f4b972623180bb5,2024-01-23_24h07.02.417,bars,2023.2.3,Win32,60.97560976,657b66ea316d21385b68909f,,,,,,,,,,,,,,,,,,,,,,,,,,,,,,,,,,,,,,,,,,529.9818,530.5303,left,0.5367,,530.5304,10,1,531.5282,0,1,1,1,1,10,0,10,1,,,,,,,,,,,,,,,,,,,,,,,,,,,,,,,,,,,,,,,,,
,,65aafa301d1aa8daf91f5bee,65af56a58f4b972623180bb5,2024-01-23_24h07.02.417,bars,2023.2.3,Win32,60.97560976,657b66ea316d21385b68909f,,,,,,,,,,,,,,,,,,,,,,,,,,,,,,,,,,,,,,,,,,531.5286,531.9942,left,0.4506,,531.9942,10,1,532.9923,0,2,2,2,1,10,2,10,2,,,,,,,,,,,,,,,,,,,,,,,,,,,,,,,,,,,,,,,,,
,,65aafa301d1aa8daf91f5bee,65af56a58f4b972623180bb5,2024-01-23_24h07.02.417,bars,2023.2.3,Win32,60.97560976,657b66ea316d21385b68909f,,,,,,,,,,,,,,,,,,,,,,,,,,,,,,,,,,,,,,,,,,532.993,533.4089,left,0.4023,,533.409,7,1,534.4061,0,3,3,3,1,8,4,7,3,,,,,,,,,,,,,,,,,,,,,,,,,,,,,,,,,,,,,,,,,
,,65aafa301d1aa8daf91f5bee,65af56a58f4b972623180bb5,2024-01-23_24h07.02.417,bars,2023.2.3,Win32,60.97560976,657b66ea316d21385b68909f,,,,,,,,,,,,,,,,,,,,,,,,,,,,,,,,,,,,,,,,,,534.4065,534.7224,left,0.2974,,534.7224,5,1,535.7203,0,4,4,4,1,6,2,5,1,,,,,,,,,,,,,,,,,,,,,,,,,,,,,,,,,,,,,,,,,
,,65aafa301d1aa8daf91f5bee,65af56a58f4b972623180bb5,2024-01-23_24h07.02.417,bars,2023.2.3,Win32,60.97560976,657b66ea316d21385b68909f,,,,,,,,,,,,,,,,,,,,,,,,,,,,,,,,,,,,,,,,,,535.7206,536.1364,left,0.4031,,536.1365,4,1,537.1343,0,5,5,5,1,4,4,4,4,,,,,,,,,,,,,,,,,,,,,,,,,,,,,,,,,,,,,,,,,
,,65aafa301d1aa8daf91f5bee,65af56a58f4b972623180bb5,2024-01-23_24h07.02.417,bars,2023.2.3,Win32,60.97560976,657b66ea316d21385b68909f,,,,,,,,,,,,,,,,,,,,,,,,,,,,,,,,,,,,,,,,,,537.1348,537.3679,right,0.221,,537.368,2,2,538.3655,0,6,6,6,1,2,2,1,2,,,,,,,,,,,,,,,,,,,,,,,,,,,,,,,,,,,,,,,,,
,,65aafa301d1aa8daf91f5bee,65af56a58f4b972623180bb5,2024-01-23_24h07.02.417,bars,2023.2.3,Win32,60.97560976,657b66ea316d21385b68909f,,,,,,,,,,,,,,,,,,,,,,,,,,,,,,,,,,,,,,,,,,538.366,538.6321,left,0.2486,,538.6321,0,1,539.63,0,7,7,7,1,0,0,0,1,,,,,,,,,,,,,,,,,,,,,,,,,,,,,,,,,,,,,,,,,
,,65aafa301d1aa8daf91f5bee,65af56a58f4b972623180bb5,2024-01-23_24h07.02.417,bars,2023.2.3,Win32,60.97560976,657b66ea316d21385b68909f,,,,,,,,,,,,,,,,,,,,,,,,,,,,,,,,,,,,,,,,,,539.6305,539.7795,right,0.1394,,539.7795,0,2,540.7777,0,8,8,8,1,0,2,1,0,,,,,,,,,,,,,,,,,,,,,,,,,,,,,,,,,,,,,,,,,
,,65aafa301d1aa8daf91f5bee,65af56a58f4b972623180bb5,2024-01-23_24h07.02.417,bars,2023.2.3,Win32,60.97560976,657b66ea316d21385b68909f,,,,,,,,,,,,,,,,,,,,,,,,,,,,,,,,,,,,,,,,,,540.778,540.9942,right,0.2069,,540.9944,3,2,541.992,0,9,9,9,1,2,4,2,3,,,,,,,,,,,,,,,,,,,,,,,,,,,,,,,,,,,,,,,,,
,,65aafa301d1aa8daf91f5bee,65af56a58f4b972623180bb5,2024-01-23_24h07.02.417,bars,2023.2.3,Win32,60.97560976,657b66ea316d21385b68909f,,,,,,,,,,,,,,,,,,,,,,,,,,,,,,,,,,,,,,,,,,541.9925,542.142,right,0.1392,,542.142,3,2,543.1397,0,10,10,10,1,0,2,0,3,,,,,,,,,,,,,,,,,,,,,,,,,,,,,,,,,,,,,,,,,
,,65aafa301d1aa8daf91f5bee,65af56a58f4b972623180bb5,2024-01-23_24h07.02.417,bars,2023.2.3,Win32,60.97560976,657b66ea316d21385b68909f,,,,,,,,,,,,,,,,,,,,,,,,,,,,,,,,,,,,,,,,,,543.1402,543.373,left,0.2138,,543.3731,0,1,544.3709,0,11,11,11,1,0,4,0,3,,,,,,,,,,,,,,,,,,,,,,,,,,,,,,,,,,,,,,,,,
,,65aafa301d1aa8daf91f5bee,65af56a58f4b972623180bb5,2024-01-23_24h07.02.417,bars,2023.2.3,Win32,60.97560976,657b66ea316d21385b68909f,,,,,,,,,,,,,,,,,,,,,,,,,,,,,,,,,,,,,,,,,,544.3715,544.4544,right,0.0672,,544.4544,6,2,545.4523,0,12,12,12,1,2,6,1,6,,,,,,,,,,,,,,,,,,,,,,,,,,,,,,,,,,,,,,,,,
,,65aafa301d1aa8daf91f5bee,65af56a58f4b972623180bb5,2024-01-23_24h07.02.417,bars,2023.2.3,Win32,60.97560976,657b66ea316d21385b68909f,,,,,,,,,,,,,,,,,,,,,,,,,,,,,,,,,,,,,,,,,,545.4529,545.6686,right,0.1984,,545.6687,3,2,546.6665,0,13,13,13,1,0,4,1,3,,,,,,,,,,,,,,,,,,,,,,,,,,,,,,,,,,,,,,,,,
,,65aafa301d1aa8daf91f5bee,65af56a58f4b972623180bb5,2024-01-23_24h07.02.417,bars,2023.2.3,Win32,60.97560976,657b66ea316d21385b68909f,,,,,,,,,,,,,,,,,,,,,,,,,,,,,,,,,,,,,,,,,,546.6671,546.7168,right,0.0317,,546.7168,7,2,547.7146,0,14,14,14,1,2,6,2,7,,,,,,,,,,,,,,,,,,,,,,,,,,,,,,,,,,,,,,,,,
,,65aafa301d1aa8daf91f5bee,65af56a58f4b972623180bb5,2024-01-23_24h07.02.417,bars,2023.2.3,Win32,60.97560976,657b66ea316d21385b68909f,,,,,,,,,,,,,,,,,,,,,,,,,,,,,,,,,,,,,,,,,,547.7153,547.9478,right,0.2141,,547.9479,9,2,548.9456,0,15,15,15,1,4,8,3,9,,,,,,,,,,,,,,,,,,,,,,,,,,,,,,,,,,,,,,,,,
,,65aafa301d1aa8daf91f5bee,65af56a58f4b972623180bb5,2024-01-23_24h07.02.417,bars,2023.2.3,Win32,60.97560976,657b66ea316d21385b68909f,,,,,,,,,,,,,,,,,,,,,,,,,,,,,,,,,,,,,,,,,,548.946,549.0295,right,0.0675,,549.0297,7,2,550.0271,0,16,16,16,1,6,6,7,7,,,,,,,,,,,,,,,,,,,,,,,,,,,,,,,,,,,,,,,,,
,,65aafa301d1aa8daf91f5bee,65af56a58f4b972623180bb5,2024-01-23_24h07.02.417,bars,2023.2.3,Win32,60.97560976,657b66ea316d21385b68909f,,,,,,,,,,,,,,,,,,,,,,,,,,,,,,,,,,,,,,,,,,550.0278,550.2436,right,0.2013,,550.2438,5,2,551.2415,0,17,17,17,1,8,4,9,5,,,,,,,,,,,,,,,,,,,,,,,,,,,,,,,,,,,,,,,,,
,,65aafa301d1aa8daf91f5bee,65af56a58f4b972623180bb5,2024-01-23_24h07.02.417,bars,2023.2.3,Win32,60.97560976,657b66ea316d21385b68909f,,,,,,,,,,,,,,,,,,,,,,,,,,,,,,,,,,,,,,,,,,551.242,551.6243,right,0.3632,,551.6244,1,2,552.622,0,18,18,18,1,6,2,5,1,,,,,,,,,,,,,,,,,,,,,,,,,,,,,,,,,,,,,,,,,
,,65aafa301d1aa8daf91f5bee,65af56a58f4b972623180bb5,2024-01-23_24h07.02.417,bars,2023.2.3,Win32,60.97560976,657b66ea316d21385b68909f,,,,,,,,,,,,,,,,,,,,,,,,,,,,,,,,,,,,,,,,,,552.6226,552.7558,right,0.1223,,552.7558,0,2,553.7533,0,19,19,19,1,8,0,7,0,,,,,,,,,,,,,,,,,,,,,,,,,,,,,,,,,,,,,,,,,
,,65aafa301d1aa8daf91f5bee,65af56a58f4b972623180bb5,2024-01-23_24h07.02.417,bars,2023.2.3,Win32,60.97560976,657b66ea316d21385b68909f,,,,,,,,,,,,,,,,,,,,,,,,,,,,,,,,,,,,,,,,,,,,,,,,,,,,,,,,,,,,553.7541,569.8408,space,16.0662,,,,,,,,,,,,,,,,,,,,,,,,,,,,,,,,,,,,,
,,65aafa301d1aa8daf91f5bee,65af56a58f4b972623180bb5,2024-01-23_24h07.02.417,bars,2023.2.3,Win32,60.97560976,657b66ea316d21385b68909f,,,,,,,,,,,571.7595,572.7513,,,573.2504,573.4996,,152,-28,,,,,,,,,,,,,,,,bars/000.png,bars/mask001.png,,,,,,,,,,,,5,2,,,,,,,10,7,10,7,,,,,,569.8605,571.7534,space,1.8722,,572.7517,573.2503,573.5001,577.4264,space,3.9014,,577.4267,68,7,578.424,578.4244,584.5799,space,6.1274,,0,0,0,0,1,40,145,,,,,,,,
,,65aafa301d1aa8daf91f5bee,65af56a58f4b972623180bb5,2024-01-23_24h07.02.417,bars,2023.2.3,Win32,60.97560976,657b66ea316d21385b68909f,,,,,,,,,,,584.5941,585.5844,,,586.0832,586.33,,74,74,,,,,,,,,,,,,,,,bars/047.png,bars/mask004.png,,,,,,,,,,,,7,2,,,,,,,8,9,8,8,,,,,,,,,,,585.5845,586.0832,586.3302,587.8813,space,1.5311,,587.8814,59,4,588.8781,588.8782,590.0358,space,1.132,,0,1,1,1,1,15,70,,,,,,,,
,,65aafa301d1aa8daf91f5bee,65af56a58f4b972623180bb5,2024-01-23_24h07.02.417,bars,2023.2.3,Win32,60.97560976,657b66ea316d21385b68909f,,,,,,,,,,,590.0364,591.0241,,,591.5161,591.7562,,89,89,,,,,,,,,,,,,,,,bars/026.png,bars/mask008.png,,,,,,,,,,,,6,2,,,,,,,6,7,4,7,,,,,,,,,,,591.0242,591.516,591.7564,595.3588,space,3.5832,,595.3589,54,4,596.3569,596.3569,597.3054,space,0.9136,,0,2,2,2,1,35,85,,,,,,,,
,,65aafa301d1aa8daf91f5bee,65af56a58f4b972623180bb5,2024-01-23_24h07.02.417,bars,2023.2.3,Win32,60.97560976,657b66ea316d21385b68909f,,,,,,,,,,,597.306,598.3106,,,598.8023,599.0518,,27,207,,,,,,,,,,,,,,,,bars/036.png,bars/mask001.png,,,,,,,,,,,,8,2,,,,,,,8,9,8,10,,,,,,,,,,,598.3107,598.8023,599.0518,603.9843,space,4.9081,,603.9843,62,7,604.974,604.9741,605.9224,space,0.9128,,0,3,3,3,1,145,20,,,,,,,,
,,65aafa301d1aa8daf91f5bee,65af56a58f4b972623180bb5,2024-01-23_24h07.02.417,bars,2023.2.3,Win32,60.97560976,657b66ea316d21385b68909f,,,,,,,,,,,605.923,606.9209,,,607.4269,607.6692,,137,137,,,,,,,,,,,,,,,,bars/043.png,bars/mask006.png,,,,,,,,,,,,5,2,,,,,,,10,7,9,7,,,,,,,,,,,606.921,607.4268,607.6693,611.9614,space,4.2652,,611.9616,73,7,612.9499,612.95,613.626,space,0.6501,,0,4,4,4,1,30,130,,,,,,,,
,,65aafa301d1aa8daf91f5bee,65af56a58f4b972623180bb5,2024-01-23_24h07.02.417,bars,2023.2.3,Win32,60.97560976,657b66ea316d21385b68909f,,,,,,,,,,,613.6264,614.6228,,,615.1219,615.3713,,79,79,,,,,,,,,,,,,,,,bars/001.png,bars/mask000.png,,,,,,,,,,,,6,2,,,,,,,8,5,8,7,,,,,,,,,,,614.6229,615.1218,615.3714,617.4512,space,2.0634,,617.4513,51,6,618.4493,618.4494,619.1313,space,0.6504,,0,5,5,5,1,130,85,,,,,,,,
,,65aafa301d1aa8daf91f5bee,65af56a58f4b972623180bb5,2024-01-23_24h07.02.417,bars,2023.2.3,Win32,60.97560976,657b66ea316d21385b68909f,,,,,,,,,,,619.132,620.1294,,,620.6284,620.8776,,160,-20,,,,,,,,,,,,,,,,bars/033.png,bars/mask007.png,,,,,,,,,,,,3,2,,,,,,,10,3,10,3,,,,,,,,,,,620.1295,620.6283,620.8778,624.9703,space,4.0766,,624.9706,45,5,625.9683,625.9683,626.9337,space,0.9343,,0,6,6,6,1,25,155,,,,,,,,
,,65aafa301d1aa8daf91f5bee,65af56a58f4b972623180bb5,2024-01-23_24h07.02.417,bars,2023.2.3,Win32,60.97560976,657b66ea316d21385b68909f,,,,,,,,,,,626.9343,627.9312,,,628.431,628.6799,,12,192,,,,,,,,,,,,,,,,bars/012.png,bars/mask001.png,,,,,,,,,,,,2,2,,,,,,,8,5,6,2,,,,,,,,,,,627.9313,628.4308,628.6799,632.3581,space,3.6699,,632.3581,78,3,633.3543,633.3544,634.02,space,0.6349,,0,7,7,7,1,90,15,,,,,,,,
,,65aafa301d1aa8daf91f5bee,65af56a58f4b972623180bb5,2024-01-23_24h07.02.417,bars,2023.2.3,Win32,60.97560976,657b66ea316d21385b68909f,,,,,,,,,,,634.0207,635.0179,,,635.517,635.7664,,119,119,,,,,,,,,,,,,,,,bars/024.png,bars/mask003.png,,,,,,,,,,,,10,1,,,,,,,10,3,10,2,,,,,,,,,,,635.018,635.517,635.7665,639.1102,space,3.3336,,639.1103,1,51,640.1089,640.1091,640.8737,space,0.7391,,0,8,8,8,1,120,170,,,,,,,,
,,65aafa301d1aa8daf91f5bee,65af56a58f4b972623180bb5,2024-01-23_24h07.02.417,bars,2023.2.3,Win32,60.97560976,657b66ea316d21385b68909f,,,,,,,,,,,640.8744,641.8719,,,642.3712,642.6203,,175,-5,,,,,,,,,,,,,,,,bars/018.png,bars/mask008.png,,,,,,,,,,,,2,1,,,,,,,10,1,10,3,,,,,,,,,,,641.8722,642.3711,642.6204,646.3966,space,3.7603,,646.3968,25,85,647.3951,647.3951,648.576,space,1.1538,,0,9,9,9,1,150,90,,,,,,,,
,,65aafa301d1aa8daf91f5bee,65af56a58f4b972623180bb5,2024-01-23_24h07.02.417,bars,2023.2.3,Win32,60.97560976,657b66ea316d21385b68909f,,,,,,,,,,,648.5767,649.5741,,,650.0732,650.3225,,41,41,,,,,,,,,,,,,,,,bars/000.png,bars/mask005.png,,,,,,,,,,,,9,1,,,,,,,8,0,9,0,,,,,,,,,,,649.5742,650.0732,650.3226,654.1827,space,3.8468,,654.1828,1,76,655.1801,655.1801,655.9122,space,0.6986,,0,10,10,10,1,40,145,,,,,,,,
,,65aafa301d1aa8daf91f5bee,65af56a58f4b972623180bb5,2024-01-23_24h07.02.417,bars,2023.2.3,Win32,60.97560976,657b66ea316d21385b68909f,,,,,,,,,,,655.913,656.9106,,,657.4101,657.6589,,120,-60,,,,,,,,,,,,,,,,bars/017.png,bars/mask008.png,,,,,,,,,,,,1,1,,,,,,,6,2,7,2,,,,,,,,,,,656.9108,657.41,657.6591,661.552,space,3.8768,,661.5521,25,75,662.5498,662.5498,663.9476,space,1.3659,,0,11,11,11,1,145,45,,,,,,,,
,,65aafa301d1aa8daf91f5bee,65af56a58f4b972623180bb5,2024-01-23_24h07.02.417,bars,2023.2.3,Win32,60.97560976,657b66ea316d21385b68909f,,,,,,,,,,,663.948,664.9452,,,665.4442,665.694,,152,-28,,,,,,,,,,,,,,,,bars/036.png,bars/mask007.png,,,,,,,,,,,,7,1,,,,,,,8,0,9,0,,,,,,,,,,,664.9452,665.4442,665.694,669.8362,space,4.1262,,669.8363,7,48,670.8347,670.8348,671.6495,space,0.7871,,0,12,12,12,1,145,20,,,,,,,,
,,65aafa301d1aa8daf91f5bee,65af56a58f4b972623180bb5,2024-01-23_24h07.02.417,bars,2023.2.3,Win32,60.97560976,657b66ea316d21385b68909f,,,,,,,,,,,671.6501,672.6473,,,673.1473,673.3966,,158,-22,,,,,,,,,,,,,,,,bars/021.png,bars/mask009.png,,,,,,,,,,,,8,1,,,,,,,10,2,9,0,,,,,,,,,,,672.6473,673.1472,673.3967,677.3224,space,3.9161,,677.3224,3,88,678.32,678.3201,678.9694,space,0.6158,,0,13,13,13,1,155,70,,,,,,,,
,,65aafa301d1aa8daf91f5bee,65af56a58f4b972623180bb5,2024-01-23_24h07.02.417,bars,2023.2.3,Win32,60.97560976,657b66ea316d21385b68909f,,,,,,,,,,,678.9699,679.9672,,,680.4662,680.7155,,15,195,,,,,,,,,,,,,,,,bars/046.png,bars/mask002.png,,,,,,,,,,,,0,1,,,,,,,8,4,10,6,,,,,,,,,,,679.9673,680.4661,680.7156,685.0746,space,4.3424,,685.0746,40,70,686.0723,686.0724,687.7699,space,1.6718,,0,14,14,14,1,155,85,,,,,,,,
,,65aafa301d1aa8daf91f5bee,65af56a58f4b972623180bb5,2024-01-23_24h07.02.417,bars,2023.2.3,Win32,60.97560976,657b66ea316d21385b68909f,,,,,,,,,,,687.7704,688.7671,,,689.2662,689.5158,,96,96,,,,,,,,,,,,,,,,bars/023.png,bars/mask000.png,,,,,,,,,,,,1,2,,,,,,,10,2,10,3,,,,,,,,,,,688.7673,689.2661,689.5159,693.1924,space,3.6673,,693.1926,76,19,694.1912,694.1912,694.9225,space,0.6982,,0,15,15,15,1,20,115,,,,,,,,
,,65aafa301d1aa8daf91f5bee,65af56a58f4b972623180bb5,2024-01-23_24h07.02.417,bars,2023.2.3,Win32,60.97560976,657b66ea316d21385b68909f,,,,,,,,,,,694.9227,695.9207,,,696.4196,696.6696,,19,19,,,,,,,,,,,,,,,,bars/022.png,bars/mask002.png,,,,,,,,,,,,0,2,,,,,,,8,0,7,0,,,,,,,,,,,695.9207,696.4196,696.6699,699.1809,space,2.4949,,699.1809,76,1,700.1791,700.1791,702.6248,space,2.4309,,0,16,16,16,1,95,20,,,,,,,,
,,65aafa301d1aa8daf91f5bee,65af56a58f4b972623180bb5,2024-01-23_24h07.02.417,bars,2023.2.3,Win32,60.97560976,657b66ea316d21385b68909f,,,,,,,,,,,702.6366,703.6395,,,704.1383,704.3881,,27,207,,,,,,,,,,,,,,,,bars/043.png,bars/mask000.png,,,,,,,,,,,,9,1,,,,,,,10,0,10,0,,,,,,,,,,,703.6396,704.1383,704.3882,708.3641,space,3.961,,708.3641,3,77,709.3619,709.362,710.2615,space,0.8624,,0,17,17,17,1,30,130,,,,,,,,
,,65aafa301d1aa8daf91f5bee,65af56a58f4b972623180bb5,2024-01-23_24h07.02.417,bars,2023.2.3,Win32,60.97560976,657b66ea316d21385b68909f,,,,,,,,,,,710.262,711.2583,,,711.7575,712.007,,156,-24,,,,,,,,,,,,,,,,bars/010.png,bars/mask005.png,,,,,,,,,,,,6,1,,,,,,,10,2,9,4,,,,,,,,,,,711.2584,711.7574,712.0071,715.3182,space,3.2971,,715.3183,9,79,716.3155,716.3155,717.0984,space,0.7514,,0,18,18,18,1,165,55,,,,,,,,
,,65aafa301d1aa8daf91f5bee,65af56a58f4b972623180bb5,2024-01-23_24h07.02.417,bars,2023.2.3,Win32,60.97560976,657b66ea316d21385b68909f,,,,,,,,,,,717.0988,718.0957,,,718.5956,718.8444,,19,199,,,,,,,,,,,,,,,,bars/005.png,bars/mask006.png,,,,,,,,,,,,7,1,,,,,,,10,4,10,4,,,,,,,,,,,718.0958,718.5956,718.8444,721.6233,space,2.7619,,721.6234,9,59,722.6204,722.6204,723.3872,space,0.7436,,0,19,19,19,1,10,140,,,,,,,,
,,65aafa301d1aa8daf91f5bee,65af56a58f4b972623180bb5,2024-01-23_24h07.02.417,bars,2023.2.3,Win32,60.97560976,657b66ea316d21385b68909f,,,,,,,,,,,723.3876,724.3838,,,724.8831,725.1323,,143,-37,,,,,,,,,,,,,,,,bars/040.png,bars/mask003.png,,,,,,,,,,,,8,1,,,,,,,10,6,9,6,,,,,,,,,,,724.3839,724.883,725.1323,727.6781,space,2.5328,,727.6782,3,42,728.6766,728.6766,729.2748,space,0.5737,,0,20,20,20,1,140,5,,,,,,,,
,,65aafa301d1aa8daf91f5bee,65af56a58f4b972623180bb5,2024-01-23_24h07.02.417,bars,2023.2.3,Win32,60.97560976,657b66ea316d21385b68909f,,,,,,,,,,,729.2755,730.2732,,,730.7725,731.0218,,85,85,,,,,,,,,,,,,,,,bars/013.png,bars/mask005.png,,,,,,,,,,,,5,1,,,,,,,8,4,7,2,,,,,,,,,,,730.2733,730.7724,731.0218,733.7332,space,2.696,,733.7333,10,75,734.7311,734.7311,735.43,space,0.666,,0,21,21,21,1,75,10,,,,,,,,
,,65aafa301d1aa8daf91f5bee,65af56a58f4b972623180bb5,2024-01-23_24h07.02.417,bars,2023.2.3,Win32,60.97560976,657b66ea316d21385b68909f,,,,,,,,,,,735.4306,736.4283,,,736.9271,737.1764,,107,107,,,,,,,,,,,,,,,,bars/045.png,bars/mask008.png,,,,,,,,,,,,7,1,,,,,,,10,6,9,8,,,,,,,,,,,736.4284,736.927,737.1764,739.1063,space,1.9195,,739.1064,7,83,740.1046,740.1048,740.8199,space,0.7028,,0,22,22,22,1,100,10,,,,,,,,
,,65aafa301d1aa8daf91f5bee,65af56a58f4b972623180bb5,2024-01-23_24h07.02.417,bars,2023.2.3,Win32,60.97560976,657b66ea316d21385b68909f,,,,,,,,,,,740.8204,741.8179,,,742.3172,742.5666,,147,147,,,,,,,,,,,,,,,,bars/049.png,bars/mask007.png,,,,,,,,,,,,6,1,,,,,,,10,4,10,2,,,,,,,,,,,741.818,742.3171,742.5666,745.1785,space,2.6013,,745.1786,13,32,746.1765,746.1765,747.7403,space,1.5324,,0,23,23,23,1,160,115,,,,,,,,
,,65aafa301d1aa8daf91f5bee,65af56a58f4b972623180bb5,2024-01-23_24h07.02.417,bars,2023.2.3,Win32,60.97560976,657b66ea316d21385b68909f,,,,,,,,,,,747.7408,748.7382,,,749.2378,749.4867,,154,-26,,,,,,,,,,,,,,,,bars/017.png,bars/mask005.png,,,,,,,,,,,,7,1,,,,,,,10,2,10,2,,,,,,,,,,,748.7383,749.2377,749.4868,752.5815,space,3.0781,,752.5815,9,71,753.5791,753.5792,754.7447,space,1.1332,,0,24,24,24,1,145,45,,,,,,,,
,,65aafa301d1aa8daf91f5bee,65af56a58f4b972623180bb5,2024-01-23_24h07.02.417,bars,2023.2.3,Win32,60.97560976,657b66ea316d21385b68909f,,,,,,,,,,,754.745,755.7417,,,756.2414,756.4904,,27,27,,,,,,,,,,,,,,,,bars/003.png,bars/mask006.png,,,,,,,,,,,,7,1,,,,,,,8,4,7,4,,,,,,,,,,,755.7417,756.2414,756.4905,758.3205,space,1.8157,,758.3205,2,67,759.3183,759.3184,760.1841,space,0.8338,,0,25,25,25,1,25,140,,,,,,,,
,,65aafa301d1aa8daf91f5bee,65af56a58f4b972623180bb5,2024-01-23_24h07.02.417,bars,2023.2.3,Win32,60.97560976,657b66ea316d21385b68909f,,,,,,,,,,,760.1846,761.1817,,,761.6805,761.9302,,145,145,,,,,,,,,,,,,,,,bars/036.png,bars/mask000.png,,,,,,,,,,,,10,1,,,,,,,10,6,10,6,,,,,,,,,,,761.1818,761.6805,761.9302,763.2293,space,1.2816,,763.2293,0,55,764.2259,764.226,765.4742,space,1.2295,,0,26,26,26,1,145,20,,,,,,,,
,,65aafa301d1aa8daf91f5bee,65af56a58f4b972623180bb5,2024-01-23_24h07.02.417,bars,2023.2.3,Win32,60.97560976,657b66ea316d21385b68909f,,,,,,,,,,,765.4746,766.4718,,,766.9708,767.2203,,80,80,,,,,,,,,,,,,,,,bars/029.png,bars/mask000.png,,,,,,,,,,,,7,1,,,,,,,10,8,10,8,,,,,,,,,,,766.4719,766.9707,767.2203,768.8175,space,1.5809,,768.8176,10,35,769.8153,769.8154,770.8637,space,1.0381,,0,27,27,27,1,90,45,,,,,,,,
,,65aafa301d1aa8daf91f5bee,65af56a58f4b972623180bb5,2024-01-23_24h07.02.417,bars,2023.2.3,Win32,60.97560976,657b66ea316d21385b68909f,,,,,,,,,,,770.8643,771.8619,,,772.3608,772.6104,,145,-35,,,,,,,,,,,,,,,,bars/037.png,bars/mask009.png,,,,,,,,,,,,8,1,,,,,,,8,10,10,9,,,,,,,,,,,771.8623,772.3608,772.6104,776.071,space,3.4481,,776.0711,5,40,777.0688,777.0689,777.718,space,0.6211,,0,28,28,28,1,150,105,,,,,,,,
,,65aafa301d1aa8daf91f5bee,65af56a58f4b972623180bb5,2024-01-23_24h07.02.417,bars,2023.2.3,Win32,60.97560976,657b66ea316d21385b68909f,,,,,,,,,,,777.7186,778.7157,,,779.2145,779.4646,,91,91,,,,,,,,,,,,,,,,bars/045.png,bars/mask003.png,,,,,,,,,,,,7,1,,,,,,,10,10,10,10,,,,,,,,,,,778.7157,779.2145,779.4647,780.4136,space,0.941,,780.4136,9,81,781.4105,781.4106,782.1426,space,0.7144,,0,29,29,29,1,100,10,,,,,,,,
,,65aafa301d1aa8daf91f5bee,65af56a58f4b972623180bb5,2024-01-23_24h07.02.417,bars,2023.2.3,Win32,60.97560976,657b66ea316d21385b68909f,,,,,,,,,,,782.1432,783.1405,,,783.6394,783.8892,,172,172,,,,,,,,,,,,,,,,bars/018.png,bars/mask008.png,,,,,,,,,,,,2,1,,,,,,,8,10,6,10,,,,,,,,,,,783.1406,783.6393,783.8892,785.5361,space,1.6314,,785.5364,22,82,786.5343,786.5343,787.5159,space,0.9598,,0,30,30,30,1,150,90,,,,,,,,
,,65aafa301d1aa8daf91f5bee,65af56a58f4b972623180bb5,2024-01-23_24h07.02.417,bars,2023.2.3,Win32,60.97560976,657b66ea316d21385b68909f,,,,,,,,,,,787.5164,788.5144,,,789.013,789.2624,,53,233,,,,,,,,,,,,,,,,bars/044.png,bars/mask009.png,,,,,,,,,,,,2,1,,,,,,,6,8,8,9,,,,,,,,,,,788.5144,789.013,789.2625,792.4575,space,3.1865,,792.4575,22,78,793.4543,793.4544,794.4534,space,0.975,,0,31,31,31,1,75,155,,,,,,,,
,,65aafa301d1aa8daf91f5bee,65af56a58f4b972623180bb5,2024-01-23_24h07.02.417,bars,2023.2.3,Win32,60.97560976,657b66ea316d21385b68909f,,,,,,,,,,,794.4539,795.4508,,,795.9502,796.2001,,122,122,,,,,,,,,,,,,,,,bars/015.png,bars/mask006.png,,,,,,,,,,,,2,1,,,,,,,4,10,4,10,,,,,,,,,,,795.4508,795.9502,796.2002,798.4458,space,2.2377,,798.4459,12,38,799.4433,799.4433,800.1422,space,0.6682,,0,32,32,32,1,110,160,,,,,,,,
,,65aafa301d1aa8daf91f5bee,65af56a58f4b972623180bb5,2024-01-23_24h07.02.417,bars,2023.2.3,Win32,60.97560976,657b66ea316d21385b68909f,,,,,,,,,,,800.1426,801.1399,,,801.6394,801.8892,,45,45,,,,,,,,,,,,,,,,bars/025.png,bars/mask003.png,,,,,,,,,,,,7,2,,,,,,,2,8,2,8,,,,,,,,,,,801.1399,801.6394,801.8893,803.5191,space,1.6184,,803.5191,60,5,804.5176,804.5176,805.3163,space,0.7656,,0,33,33,33,1,105,40,,,,,,,,
,,65aafa301d1aa8daf91f5bee,65af56a58f4b972623180bb5,2024-01-23_24h07.02.417,bars,2023.2.3,Win32,60.97560976,657b66ea316d21385b68909f,,,,,,,,,,,805.3168,806.3138,,,806.8129,807.0628,,164,164,,,,,,,,,,,,,,,,bars/046.png,bars/mask006.png,,,,,,,,,,,,4,1,,,,,,,4,6,5,6,,,,,,,,,,,806.3138,806.8128,807.063,809.8407,space,2.7692,,809.8407,9,79,810.8392,810.8392,812.4858,space,1.6076,,0,34,34,34,1,155,85,,,,,,,,
,,65aafa301d1aa8daf91f5bee,65af56a58f4b972623180bb5,2024-01-23_24h07.02.417,bars,2023.2.3,Win32,60.97560976,657b66ea316d21385b68909f,,,,,,,,,,,812.4863,813.4838,,,813.9828,814.2325,,162,-18,,,,,,,,,,,,,,,,bars/033.png,bars/mask000.png,,,,,,,,,,,,3,2,,,,,,,2,4,2,4,,,,,,,,,,,813.4838,813.9828,814.2325,816.7288,space,2.4883,,816.7289,43,7,817.726,817.726,818.6743,space,0.9163,,0,35,35,35,1,25,155,,,,,,,,
,,65aafa301d1aa8daf91f5bee,65af56a58f4b972623180bb5,2024-01-23_24h07.02.417,bars,2023.2.3,Win32,60.97560976,657b66ea316d21385b68909f,,,,,,,,,,,818.6747,819.6721,,,820.1711,820.4206,,36,36,,,,,,,,,,,,,,,,bars/000.png,bars/mask001.png,,,,,,,,,,,,3,1,,,,,,,4,2,4,1,,,,,,,,,,,819.6721,820.1711,820.4207,822.3348,space,1.9055,,822.3348,4,71,823.3319,823.332,824.114,space,0.7549,,0,36,36,36,1,40,145,,,,,,,,
,,65aafa301d1aa8daf91f5bee,65af56a58f4b972623180bb5,2024-01-23_24h07.02.417,bars,2023.2.3,Win32,60.97560976,657b66ea316d21385b68909f,,,,,,,,,,,824.1143,825.1119,,,825.611,825.8604,,168,-12,,,,,,,,,,,,,,,,bars/042.png,bars/mask002.png,,,,,,,,,,,,0,1,,,,,,,2,0,0,0,,,,,,,,,,,825.112,825.611,825.8605,828.5557,space,2.6792,,828.5558,23,87,829.554,829.5542,830.4029,space,0.8157,,0,37,37,37,1,145,75,,,,,,,,
,,65aafa301d1aa8daf91f5bee,65af56a58f4b972623180bb5,2024-01-23_24h07.02.417,bars,2023.2.3,Win32,60.97560976,657b66ea316d21385b68909f,,,,,,,,,,,830.4034,831.4001,,,831.8996,832.1487,,133,-47,,,,,,,,,,,,,,,,bars/004.png,bars/mask008.png,,,,,,,,,,,,1,2,,,,,,,0,0,0,2,,,,,,,,,,,831.4002,831.8996,832.1487,834.3281,space,2.167,,834.3283,72,8,835.3259,835.326,836.0749,space,0.7203,,0,38,38,38,1,25,125,,,,,,,,
,,65aafa301d1aa8daf91f5bee,65af56a58f4b972623180bb5,2024-01-23_24h07.02.417,bars,2023.2.3,Win32,60.97560976,657b66ea316d21385b68909f,,,,,,,,,,,836.0753,837.073,,,837.5717,837.8213,,52,232,,,,,,,,,,,,,,,,bars/028.png,bars/mask001.png,,,,,,,,,,,,2,1,,,,,,,2,0,2,0,,,,,,,,,,,837.073,837.5716,837.8214,842.114,space,4.2761,,842.114,7,68,843.1115,843.1116,843.9444,space,0.8027,,0,39,39,39,1,45,120,,,,,,,,
,,65aafa301d1aa8daf91f5bee,65af56a58f4b972623180bb5,2024-01-23_24h07.02.417,bars,2023.2.3,Win32,60.97560976,657b66ea316d21385b68909f,,,,,,,,,,,843.9448,844.9413,,,845.4402,845.69,,162,-18,,,,,,,,,,,,,,,,bars/010.png,bars/mask007.png,,,,,,,,,,,,3,1,,,,,,,4,0,3,0,,,,,,,,,,,844.9414,845.4402,845.6901,849.1848,space,3.4808,,849.1848,3,73,850.1819,850.1819,851.1635,space,0.9502,,0,40,40,40,1,165,55,,,,,,,,
,,65aafa301d1aa8daf91f5bee,65af56a58f4b972623180bb5,2024-01-23_24h07.02.417,bars,2023.2.3,Win32,60.97560976,657b66ea316d21385b68909f,,,,,,,,,,,851.164,852.1612,,,852.6602,852.9102,,161,161,,,,,,,,,,,,,,,,bars/038.png,bars/mask006.png,,,,,,,,,,,,3,1,,,,,,,2,0,3,0,,,,,,,,,,,852.1612,852.6602,852.9102,854.2242,space,1.2982,,854.2244,4,89,855.2227,855.2227,855.8881,space,0.6475,,0,41,41,41,1,165,70,,,,,,,,
,,65aafa301d1aa8daf91f5bee,65af56a58f4b972623180bb5,2024-01-23_24h07.02.417,bars,2023.2.3,Win32,60.97560976,657b66ea316d21385b68909f,,,,,,,,,,,855.8888,856.8856,,,857.385,857.6348,,147,-33,,,,,,,,,,,,,,,,bars/034.png,bars/mask000.png,,,,,,,,,,,,0,1,,,,,,,0,0,1,0,,,,,,,,,,,856.8857,857.385,857.6348,860.0305,space,2.3798,,860.0307,22,82,861.028,861.028,861.7603,space,0.7032,,0,42,42,42,1,125,65,,,,,,,,
,,65aafa301d1aa8daf91f5bee,65af56a58f4b972623180bb5,2024-01-23_24h07.02.417,bars,2023.2.3,Win32,60.97560976,657b66ea316d21385b68909f,,,,,,,,,,,861.7608,862.7581,,,863.2571,863.5066,,67,247,,,,,,,,,,,,,,,,bars/046.png,bars/mask004.png,,,,,,,,,,,,1,2,,,,,,,2,2,1,2,,,,,,,,,,,862.7582,863.2571,863.5066,866.7837,space,3.2605,,866.7838,88,18,867.7825,867.7825,868.7638,space,0.9454,,0,43,43,43,1,155,85,,,,,,,,
,,65aafa301d1aa8daf91f5bee,65af56a58f4b972623180bb5,2024-01-23_24h07.02.417,bars,2023.2.3,Win32,60.97560976,657b66ea316d21385b68909f,,,,,,,,,,,868.7644,869.7617,,,870.2607,870.5106,,157,157,,,,,,,,,,,,,,,,bars/033.png,bars/mask001.png,,,,,,,,,,,,3,2,,,,,,,4,4,4,3,,,,,,,,,,,869.7617,870.2607,870.5107,873.405,space,2.8786,,873.4052,48,2,874.4027,874.4028,875.0019,space,0.5646,,0,44,44,44,1,25,155,,,,,,,,
,,65aafa301d1aa8daf91f5bee,65af56a58f4b972623180bb5,2024-01-23_24h07.02.417,bars,2023.2.3,Win32,60.97560976,657b66ea316d21385b68909f,,,,,,,,,,,875.0024,875.9998,,,876.4991,876.7491,,19,199,,,,,,,,,,,,,,,,bars/022.png,bars/mask001.png,,,,,,,,,,,,2,2,,,,,,,6,2,6,2,,,,,,,,,,,875.9998,876.499,876.7492,878.1291,space,1.3711,,878.1293,76,1,879.1273,879.1273,879.6274,space,0.4711,,0,45,45,45,1,95,20,,,,,,,,
,,65aafa301d1aa8daf91f5bee,65af56a58f4b972623180bb5,2024-01-23_24h07.02.417,bars,2023.2.3,Win32,60.97560976,657b66ea316d21385b68909f,,,,,,,,,,,879.6279,880.6265,,,881.1236,881.3732,,101,101,,,,,,,,,,,,,,,,bars/028.png,bars/mask007.png,,,,,,,,,,,,0,2,,,,,,,8,0,8,0,,,,,,,,,,,880.6265,881.1235,881.3732,884.8346,space,3.4443,,884.8347,56,19,885.8314,885.8315,886.5638,space,0.6995,,0,46,46,46,1,45,120,,,,,,,,
,,65aafa301d1aa8daf91f5bee,65af56a58f4b972623180bb5,2024-01-23_24h07.02.417,bars,2023.2.3,Win32,60.97560976,657b66ea316d21385b68909f,,,,,,,,,,,886.5644,887.5617,,,888.0605,888.3106,,100,100,,,,,,,,,,,,,,,,bars/011.png,bars/mask003.png,,,,,,,,,,,,1,2,,,,,,,10,2,9,2,,,,,,,,,,,887.5618,888.0605,888.3106,891.0722,space,2.7476,,891.0723,60,15,892.0697,892.0698,892.719,space,0.618,,0,47,47,47,1,160,85,,,,,,,,
,,65aafa301d1aa8daf91f5bee,65af56a58f4b972623180bb5,2024-01-23_24h07.02.417,bars,2023.2.3,Win32,60.97560976,657b66ea316d21385b68909f,,,,,,,,,,,892.7196,893.717,,,894.2157,894.4654,,96,96,,,,,,,,,,,,,,,,bars/008.png,bars/mask009.png,,,,,,,,,,,,5,1,,,,,,,8,0,9,0,,,,,,,,,,,893.7172,894.2157,894.4654,897.3106,space,2.8343,,897.3106,14,84,898.3079,898.3079,899.2564,space,0.9232,,0,48,48,48,1,110,0,,,,,,,,
,,65aafa301d1aa8daf91f5bee,65af56a58f4b972623180bb5,2024-01-23_24h07.02.417,bars,2023.2.3,Win32,60.97560976,657b66ea316d21385b68909f,,,,,,,,,,,899.2566,900.2543,,,900.7541,901.003,,117,117,,,,,,,,,,,,,,,,bars/001.png,bars/mask008.png,,,,,,,,,,,,5,1,,,,,,,10,2,9,1,,,,,,,,,,,900.2543,900.754,901.0032,902.8997,space,1.8833,,902.8998,13,32,903.8976,903.8978,904.6638,space,0.7514,,0,49,49,49,1,130,85,,,,,,,,
,,65aafa301d1aa8daf91f5bee,65af56a58f4b972623180bb5,2024-01-23_24h07.02.417,bars,2023.2.3,Win32,60.97560976,657b66ea316d21385b68909f,,,,,,,,,,,,,,,,,,,,,,,,,,,,,,,,,,,,,,,,,,,,,,,,,,,,,,,,,,,,,,,,,,,,,,,,,,,,,,,,,,,,,,,,,,,,,904.6648,964.6676,0,0,0,1,1,sequence_tables/blk006.csv
,,65aafa301d1aa8daf91f5bee,65af56a58f4b972623180bb5,2024-01-23_24h07.02.417,bars,2023.2.3,Win32,60.97560976,657b66ea316d21385b68909f,,,,,,,,,,,966.4227,967.4123,,,967.9111,968.1606,,155,-25,,,,,,,,,,,,,,,,bars/000.png,bars/mask009.png,,,,,,,,,,,,3,2,,,,,,,5,5,4,5,,,,,,964.6761,966.414,space,1.7224,,967.4123,967.911,968.1606,971.2553,space,3.0848,,971.2554,65,10,972.2529,972.2531,972.2688,,,,0,0,0,0,1,40,145,,,,,,,,
,,65aafa301d1aa8daf91f5bee,65af56a58f4b972623180bb5,2024-01-23_24h07.02.417,bars,2023.2.3,Win32,60.97560976,657b66ea316d21385b68909f,,,,,,,,,,,972.2695,973.2675,,,973.7668,974.0162,,151,151,,,,,,,,,,,,,,,,bars/043.png,bars/mask007.png,,,,,,,,,,,,1,2,,,,,,,3,3,2,2,,,,,,,,,,,973.2676,973.7668,974.0162,976.6616,space,2.6337,,976.6617,59,21,977.6593,977.6595,977.6675,,,,0,1,1,1,1,30,130,,,,,,,,
,,65aafa301d1aa8daf91f5bee,65af56a58f4b972623180bb5,2024-01-23_24h07.02.417,bars,2023.2.3,Win32,60.97560976,657b66ea316d21385b68909f,,,,,,,,,,,977.6677,978.6575,,,979.1569,979.4062,,152,152,,,,,,,,,,,,,,,,bars/003.png,bars/mask008.png,,,,,,,,,,,,1,2,,,,,,,5,1,6,1,,,,,,,,,,,978.6576,979.1567,979.4063,981.4869,space,2.0719,,981.4869,53,12,982.4838,982.4838,982.4851,,,,0,2,2,2,1,25,140,,,,,,,,
,,65aafa301d1aa8daf91f5bee,65af56a58f4b972623180bb5,2024-01-23_24h07.02.417,bars,2023.2.3,Win32,60.97560976,657b66ea316d21385b68909f,,,,,,,,,,,982.4856,983.4819,,,983.981,984.2307,,3,3,,,,,,,,,,,,,,,,bars/023.png,bars/mask004.png,,,,,,,,,,,,2,1,,,,,,,3,3,5,4,,,,,,,,,,,983.4819,983.981,984.2308,986.3606,space,2.1207,,986.3608,17,68,987.358,987.3581,987.3745,,,,0,3,3,3,1,20,115,,,,,,,,
,,65aafa301d1aa8daf91f5bee,65af56a58f4b972623180bb5,2024-01-23_24h07.02.417,bars,2023.2.3,Win32,60.97560976,657b66ea316d21385b68909f,,,,,,,,,,,987.375,988.3727,,,988.8719,989.1212,,150,150,,,,,,,,,,,,,,,,bars/040.png,bars/mask008.png,,,,,,,,,,,,1,1,,,,,,,1,5,1,5,,,,,,,,,,,988.3727,988.8719,989.1213,992.7649,space,3.6274,,992.765,10,35,993.7625,993.7625,993.7773,,,,0,4,4,4,1,140,5,,,,,,,,
,,65aafa301d1aa8daf91f5bee,65af56a58f4b972623180bb5,2024-01-23_24h07.02.417,bars,2023.2.3,Win32,60.97560976,657b66ea316d21385b68909f,,,,,,,,,,,993.7775,994.7775,,,995.2772,995.526,,169,169,,,,,,,,,,,,,,,,bars/007.png,bars/mask001.png,,,,,,,,,,,,0,1,,,,,,,0,3,0,2,,,,,,,,,,,994.7775,995.2772,995.5261,996.5244,space,0.9814,,996.5244,6,66,997.5222,997.5223,997.5235,,,,0,5,5,5,1,175,55,,,,,,,,
,,65aafa301d1aa8daf91f5bee,65af56a58f4b972623180bb5,2024-01-23_24h07.02.417,bars,2023.2.3,Win32,60.97560976,657b66ea316d21385b68909f,,,,,,,,,,,997.5238,998.5204,,,999.0206,999.2689,,75,75,,,,,,,,,,,,,,,,bars/013.png,bars/mask003.png,,,,,,,,,,,,3,1,,,,,,,2,1,3,1,,,,,,,,,,,998.5205,999.0205,999.2689,1002.6133,space,3.3327,,1002.6134,0,65,1003.6109,1003.6109,1003.6256,,,,0,6,6,6,1,75,10,,,,,,,,
,,65aafa301d1aa8daf91f5bee,65af56a58f4b972623180bb5,2024-01-23_24h07.02.417,bars,2023.2.3,Win32,60.97560976,657b66ea316d21385b68909f,,,,,,,,,,,1003.6259,1004.6254,,,1005.1248,1005.3749,,98,98,,,,,,,,,,,,,,,,bars/008.png,bars/mask001.png,,,,,,,,,,,,3,1,,,,,,,4,3,5,3,,,,,,,,,,,1004.6255,1005.1247,1005.3749,1007.0214,space,1.631,,1007.0215,12,82,1008.0193,1008.0194,1008.0204,,,,0,7,7,7,1,110,0,,,,,,,,
,,65aafa301d1aa8daf91f5bee,65af56a58f4b972623180bb5,2024-01-23_24h07.02.417,bars,2023.2.3,Win32,60.97560976,657b66ea316d21385b68909f,,,,,,,,,,,1008.0208,1009.0175,,,1009.5165,1009.766,,94,94,,,,,,,,,,,,,,,,bars/012.png,bars/mask003.png,,,,,,,,,,,,1,1,,,,,,,2,5,1,6,,,,,,,,,,,1009.0175,1009.5165,1009.766,1011.8461,space,2.0635,,1011.8462,4,79,1012.8436,1012.8436,1012.8583,,,,0,8,8,8,1,90,15,,,,,,,,
,,65aafa301d1aa8daf91f5bee,65af56a58f4b972623180bb5,2024-01-23_24h07.02.417,bars,2023.2.3,Win32,60.97560976,657b66ea316d21385b68909f,,,,,,,,,,,1012.8586,1013.8583,,,1014.358,1014.607,,104,104,,,,,,,,,,,,,,,,bars/001.png,bars/mask008.png,,,,,,,,,,,,1,2,,,,,,,4,3,4,4,,,,,,,,,,,1013.8584,1014.358,1014.607,1017.3353,space,2.7125,,1017.3354,26,19,1018.3334,1018.3334,1018.3489,,,,0,9,9,9,1,130,85,,,,,,,,
,,65aafa301d1aa8daf91f5bee,65af56a58f4b972623180bb5,2024-01-23_24h07.02.417,bars,2023.2.3,Win32,60.97560976,657b66ea316d21385b68909f,,,,,,,,,,,1018.3503,1019.348,,,1019.8472,1020.0967,,169,169,,,,,,,,,,,,,,,,bars/039.png,bars/mask000.png,,,,,,,,,,,,2,1,,,,,,,2,5,3,5,,,,,,,,,,,1019.3481,1019.8472,1020.0967,1021.727,space,1.6145,,1021.7271,6,64,1022.725,1022.725,1022.7279,,,,0,10,10,10,1,175,105,,,,,,,,
,,65aafa301d1aa8daf91f5bee,65af56a58f4b972623180bb5,2024-01-23_24h07.02.417,bars,2023.2.3,Win32,60.97560976,657b66ea316d21385b68909f,,,,,,,,,,,1022.7284,1023.7231,,,1024.2225,1024.4717,,46,46,,,,,,,,,,,,,,,,bars/025.png,bars/mask002.png,,,,,,,,,,,,5,2,,,,,,,0,7,0,6,,,,,,,,,,,1023.7231,1024.2224,1024.4718,1026.5851,space,2.0968,,1026.5851,59,6,1027.5826,1027.5827,1027.5983,,,,0,11,11,11,1,105,40,,,,,,,,
,,65aafa301d1aa8daf91f5bee,65af56a58f4b972623180bb5,2024-01-23_24h07.02.417,bars,2023.2.3,Win32,60.97560976,657b66ea316d21385b68909f,,,,,,,,,,,1027.5988,1028.5977,,,1029.0965,1029.3459,,53,53,,,,,,,,,,,,,,,,bars/035.png,bars/mask008.png,,,,,,,,,,,,6,2,,,,,,,0,9,0,8,,,,,,,,,,,1028.5977,1029.0964,1029.346,1032.6068,space,3.2459,,1032.607,58,7,1033.6045,1033.6045,1033.6192,,,,0,12,12,12,1,175,60,,,,,,,,
,,65aafa301d1aa8daf91f5bee,65af56a58f4b972623180bb5,2024-01-23_24h07.02.417,bars,2023.2.3,Win32,60.97560976,657b66ea316d21385b68909f,,,,,,,,,,,1033.6197,1034.6195,,,1035.1188,1035.3679,,95,95,,,,,,,,,,,,,,,,bars/019.png,bars/mask000.png,,,,,,,,,,,,5,2,,,,,,,2,7,3,7,,,,,,,,,,,1034.6195,1035.1187,1035.3681,1038.346,space,2.9616,,1038.3461,50,10,1039.3439,1039.344,1039.3601,,,,0,13,13,13,1,45,105,,,,,,,,
,,65aafa301d1aa8daf91f5bee,65af56a58f4b972623180bb5,2024-01-23_24h07.02.417,bars,2023.2.3,Win32,60.97560976,657b66ea316d21385b68909f,,,,,,,,,,,1039.3606,1040.3594,,,1040.8577,1041.1074,,64,64,,,,,,,,,,,,,,,,bars/035.png,bars/mask006.png,,,,,,,,,,,,9,2,,,,,,,0,9,0,10,,,,,,,,,,,1040.3594,1040.8577,1041.1075,1042.9373,space,1.8196,,1042.9374,69,4,1043.9352,1043.9353,1043.9364,,,,0,14,14,14,1,175,60,,,,,,,,
,,65aafa301d1aa8daf91f5bee,65af56a58f4b972623180bb5,2024-01-23_24h07.02.417,bars,2023.2.3,Win32,60.97560976,657b66ea316d21385b68909f,,,,,,,,,,,1043.9369,1044.9334,,,1045.4326,1045.6821,,86,86,,,,,,,,,,,,,,,,bars/026.png,bars/mask008.png,,,,,,,,,,,,7,2,,,,,,,0,7,1,7,,,,,,,,,,,1044.9334,1045.4326,1045.6822,1048.7931,space,3.0991,,1048.7932,51,1,1049.7911,1049.7911,1049.7993,,,,0,15,15,15,1,35,85,,,,,,,,
,,65aafa301d1aa8daf91f5bee,65af56a58f4b972623180bb5,2024-01-23_24h07.02.417,bars,2023.2.3,Win32,60.97560976,657b66ea316d21385b68909f,,,,,,,,,,,1049.7994,1050.7891,,,1051.2883,1051.5377,,78,78,,,,,,,,,,,,,,,,bars/035.png,bars/mask006.png,,,,,,,,,,,,2,2,,,,,,,0,9,2,6,,,,,,,,,,,1050.7892,1051.2883,1051.5378,1055.0662,space,3.5203,,1055.0663,83,18,1056.0625,1056.0626,1056.0769,,,,0,16,16,16,1,175,60,,,,,,,,
,,65aafa301d1aa8daf91f5bee,65af56a58f4b972623180bb5,2024-01-23_24h07.02.417,bars,2023.2.3,Win32,60.97560976,657b66ea316d21385b68909f,,,,,,,,,,,1056.0772,1057.0779,,,1057.5765,1057.826,,7,187,,,,,,,,,,,,,,,,bars/024.png,bars/mask006.png,,,,,,,,,,,,3,2,,,,,,,2,7,2,7,,,,,,,,,,,1057.078,1057.5764,1057.8261,1059.3239,space,1.4805,,1059.3239,67,17,1060.3213,1060.3214,1060.3225,,,,0,17,17,17,1,120,170,,,,,,,,
,,65aafa301d1aa8daf91f5bee,65af56a58f4b972623180bb5,2024-01-23_24h07.02.417,bars,2023.2.3,Win32,60.97560976,657b66ea316d21385b68909f,,,,,,,,,,,1060.323,1061.3196,,,1061.8186,1062.0679,,94,94,,,,,,,,,,,,,,,,bars/026.png,bars/mask004.png,,,,,,,,,,,,3,2,,,,,,,0,5,0,4,,,,,,,,,,,1061.3196,1061.8185,1062.0679,1063.7486,space,1.6725,,1063.7487,59,9,1064.7471,1064.7471,1064.7479,,,,0,18,18,18,1,35,85,,,,,,,,
,,65aafa301d1aa8daf91f5bee,65af56a58f4b972623180bb5,2024-01-23_24h07.02.417,bars,2023.2.3,Win32,60.97560976,657b66ea316d21385b68909f,,,,,,,,,,,1064.7482,1065.7446,,,1066.2437,1066.4931,,22,22,,,,,,,,,,,,,,,,bars/047.png,bars/mask002.png,,,,,,,,,,,,1,1,,,,,,,2,7,1,8,,,,,,,,,,,1065.7447,1066.2436,1066.4931,1069.3215,space,2.8181,,1069.3216,7,48,1070.319,1070.3191,1070.3335,,,,0,19,19,19,1,15,70,,,,,,,,
,,65aafa301d1aa8daf91f5bee,65af56a58f4b972623180bb5,2024-01-23_24h07.02.417,bars,2023.2.3,Win32,60.97560976,657b66ea316d21385b68909f,,,,,,,,,,,1070.3337,1071.3342,,,1071.8331,1072.0827,,151,151,,,,,,,,,,,,,,,,bars/038.png,bars/mask004.png,,,,,,,,,,,,0,1,,,,,,,0,5,0,5,,,,,,,,,,,1071.3342,1071.8331,1072.0828,1073.8459,space,1.7488,,1073.846,14,81,1074.8442,1074.8443,1074.8452,,,,0,20,20,20,1,165,70,,,,,,,,
,,65aafa301d1aa8daf91f5bee,65af56a58f4b972623180bb5,2024-01-23_24h07.02.417,bars,2023.2.3,Win32,60.97560976,657b66ea316d21385b68909f,,,,,,,,,,,1074.8456,1075.8423,,,1076.3413,1076.5911,,88,88,,,,,,,,,,,,,,,,bars/002.png,bars/mask009.png,,,,,,,,,,,,4,2,,,,,,,2,3,2,4,,,,,,,,,,,1075.8423,1076.3413,1076.5912,1078.1382,space,1.5318,,1078.1383,42,3,1079.136,1079.1361,1079.1516,,,,0,21,21,21,1,130,85,,,,,,,,
,,65aafa301d1aa8daf91f5bee,65af56a58f4b972623180bb5,2024-01-23_24h07.02.417,bars,2023.2.3,Win32,60.97560976,657b66ea316d21385b68909f,,,,,,,,,,,1079.1523,1080.1509,,,1080.6498,1080.8995,,84,84,,,,,,,,,,,,,,,,bars/026.png,bars/mask009.png,,,,,,,,,,,,4,2,,,,,,,4,5,3,4,,,,,,,,,,,1080.1511,1080.6498,1080.8995,1082.4634,space,1.5483,,1082.4635,49,1,1083.4612,1083.4612,1083.4758,,,,0,22,22,22,1,35,85,,,,,,,,
,,65aafa301d1aa8daf91f5bee,65af56a58f4b972623180bb5,2024-01-23_24h07.02.417,bars,2023.2.3,Win32,60.97560976,657b66ea316d21385b68909f,,,,,,,,,,,1083.4762,1084.476,,,1084.9751,1085.225,,10,190,,,,,,,,,,,,,,,,bars/024.png,bars/mask001.png,,,,,,,,,,,,1,2,,,,,,,6,3,5,2,,,,,,,,,,,1084.476,1084.9751,1085.2253,1088.7685,space,3.5276,,1088.7686,70,20,1089.7661,1089.7662,1089.7815,,,,0,23,23,23,1,120,170,,,,,,,,
,,65aafa301d1aa8daf91f5bee,65af56a58f4b972623180bb5,2024-01-23_24h07.02.417,bars,2023.2.3,Win32,60.97560976,657b66ea316d21385b68909f,,,,,,,,,,,1089.7819,1090.7807,,,1091.2803,1091.5295,,111,111,,,,,,,,,,,,,,,,bars/037.png,bars/mask009.png,,,,,,,,,,,,2,2,,,,,,,4,1,4,3,,,,,,,,,,,1090.7808,1091.2803,1091.5295,1094.7406,space,3.1973,,1094.7406,39,6,1095.7381,1095.7381,1095.7455,,,,0,24,24,24,1,150,105,,,,,,,,
,,65aafa301d1aa8daf91f5bee,65af56a58f4b972623180bb5,2024-01-23_24h07.02.417,bars,2023.2.3,Win32,60.97560976,657b66ea316d21385b68909f,,,,,,,,,,,1095.7457,1096.7365,,,1097.2359,1097.4852,,159,159,,,,,,,,,,,,,,,,bars/036.png,bars/mask000.png,,,,,,,,,,,,1,1,,,,,,,2,0,1,0,,,,,,,,,,,1096.7366,1097.2358,1097.4852,1099.3484,space,1.8533,,1099.3484,14,41,1100.3467,1100.3469,1100.3494,,,,0,25,25,25,1,145,20,,,,,,,,
,,65aafa301d1aa8daf91f5bee,65af56a58f4b972623180bb5,2024-01-23_24h07.02.417,bars,2023.2.3,Win32,60.97560976,657b66ea316d21385b68909f,,,,,,,,,,,1100.3498,1101.3443,,,1101.8434,1102.0929,,70,70,,,,,,,,,,,,,,,,bars/028.png,bars/mask004.png,,,,,,,,,,,,0,1,,,,,,,0,0,1,1,,,,,,,,,,,1101.3443,1101.8434,1102.0929,1103.7402,space,1.6312,,1103.7403,25,50,1104.7382,1104.7383,1104.7394,,,,0,26,26,26,1,45,120,,,,,,,,
,,65aafa301d1aa8daf91f5bee,65af56a58f4b972623180bb5,2024-01-23_24h07.02.417,bars,2023.2.3,Win32,60.97560976,657b66ea316d21385b68909f,,,,,,,,,,,1104.7398,1105.7362,,,1106.2352,1106.4848,,56,56,,,,,,,,,,,,,,,,bars/028.png,bars/mask009.png,,,,,,,,,,,,1,1,,,,,,,0,0,1,0,,,,,,,,,,,1105.7363,1106.2351,1106.4848,1109.0304,space,2.5359,,1109.0306,11,64,1110.0286,1110.0288,1110.0428,,,,0,27,27,27,1,45,120,,,,,,,,
,,65aafa301d1aa8daf91f5bee,65af56a58f4b972623180bb5,2024-01-23_24h07.02.417,bars,2023.2.3,Win32,60.97560976,657b66ea316d21385b68909f,,,,,,,,,,,1110.0431,1111.0436,,,1111.5426,1111.7919,,158,-22,,,,,,,,,,,,,,,,bars/016.png,bars/mask001.png,,,,,,,,,,,,0,2,,,,,,,0,0,0,0,,,,,,,,,,,1111.0436,1111.5426,1111.7919,1115.3858,space,3.5775,,1115.3858,62,7,1116.3829,1116.3829,1116.3985,,,,0,28,28,28,1,40,165,,,,,,,,
,,65aafa301d1aa8daf91f5bee,65af56a58f4b972623180bb5,2024-01-23_24h07.02.417,bars,2023.2.3,Win32,60.97560976,657b66ea316d21385b68909f,,,,,,,,,,,1116.3988,1117.3981,,,1117.8972,1118.1465,,12,12,,,,,,,,,,,,,,,,bars/032.png,bars/mask001.png,,,,,,,,,,,,1,2,,,,,,,0,2,0,2,,,,,,,,,,,1117.3982,1117.8972,1118.1465,1120.8757,space,2.7209,,1120.8757,67,8,1121.8731,1121.8731,1121.8874,,,,0,29,29,29,1,125,20,,,,,,,,
,,65aafa301d1aa8daf91f5bee,65af56a58f4b972623180bb5,2024-01-23_24h07.02.417,bars,2023.2.3,Win32,60.97560976,657b66ea316d21385b68909f,,,,,,,,,,,1121.8877,1122.8874,,,1123.3869,1123.6366,,33,33,,,,,,,,,,,,,,,,bars/043.png,bars/mask005.png,,,,,,,,,,,,3,1,,,,,,,2,4,3,3,,,,,,,,,,,1122.8874,1123.3867,1123.6366,1125.8661,space,2.2178,,1125.8662,3,83,1126.8631,1126.8631,1126.8647,,,,0,30,30,30,1,30,130,,,,,,,,
,,65aafa301d1aa8daf91f5bee,65af56a58f4b972623180bb5,2024-01-23_24h07.02.417,bars,2023.2.3,Win32,60.97560976,657b66ea316d21385b68909f,,,,,,,,,,,1126.865,1127.8614,,,1128.3606,1128.6101,,108,108,,,,,,,,,,,,,,,,bars/012.png,bars/mask002.png,,,,,,,,,,,,2,1,,,,,,,4,2,4,2,,,,,,,,,,,1127.8614,1128.3606,1128.6101,1132.0204,space,3.3963,,1132.0205,18,87,1133.0184,1133.0186,1133.0338,,,,0,31,31,31,1,90,15,,,,,,,,
,,65aafa301d1aa8daf91f5bee,65af56a58f4b972623180bb5,2024-01-23_24h07.02.417,bars,2023.2.3,Win32,60.97560976,657b66ea316d21385b68909f,,,,,,,,,,,1133.0342,1134.0337,,,1134.5324,1134.7817,,116,116,,,,,,,,,,,,,,,,bars/031.png,bars/mask001.png,,,,,,,,,,,,5,1,,,,,,,6,4,6,4,,,,,,,,,,,1134.0339,1134.5323,1134.7818,1137.4105,space,2.6123,,1137.4105,4,81,1138.4084,1138.4084,1138.417,,,,0,32,32,32,1,120,35,,,,,,,,
,,65aafa301d1aa8daf91f5bee,65af56a58f4b972623180bb5,2024-01-23_24h07.02.417,bars,2023.2.3,Win32,60.97560976,657b66ea316d21385b68909f,,,,,,,,,,,1138.4174,1139.4066,,,1139.9055,1140.1552,,142,142,,,,,,,,,,,,,,,,bars/002.png,bars/mask004.png,,,,,,,,,,,,4,1,,,,,,,8,6,7,5,,,,,,,,,,,1139.4066,1139.9055,1140.1552,1141.8354,space,1.6639,,1141.8355,12,57,1142.8338,1142.8341,1142.8349,,,,0,33,33,33,1,130,85,,,,,,,,
,,65aafa301d1aa8daf91f5bee,65af56a58f4b972623180bb5,2024-01-23_24h07.02.417,bars,2023.2.3,Win32,60.97560976,657b66ea316d21385b68909f,,,,,,,,,,,1142.8353,1143.8315,,,1144.3307,1144.5802,,78,78,,,,,,,,,,,,,,,,bars/029.png,bars/mask002.png,,,,,,,,,,,,4,1,,,,,,,6,4,6,5,,,,,,,,,,,1143.8315,1144.3306,1144.5802,1146.6101,space,2.0188,,1146.6101,12,33,1147.6078,1147.6078,1147.6229,,,,0,34,34,34,1,90,45,,,,,,,,
,,65aafa301d1aa8daf91f5bee,65af56a58f4b972623180bb5,2024-01-23_24h07.02.417,bars,2023.2.3,Win32,60.97560976,657b66ea316d21385b68909f,,,,,,,,,,,1147.6231,1148.6226,,,1149.1217,1149.3711,,170,-10,,,,,,,,,,,,,,,,bars/007.png,bars/mask006.png,,,,,,,,,,,,6,1,,,,,,,8,2,7,3,,,,,,,,,,,1148.6226,1149.1216,1149.3712,1152.7818,space,3.3942,,1152.7819,5,65,1153.7797,1153.7798,1153.7979,,,,0,35,35,35,1,175,55,,,,,,,,
,,65aafa301d1aa8daf91f5bee,65af56a58f4b972623180bb5,2024-01-23_24h07.02.417,bars,2023.2.3,Win32,60.97560976,657b66ea316d21385b68909f,,,,,,,,,,,1153.7984,1154.7942,,,1155.2936,1155.5429,,26,26,,,,,,,,,,,,,,,,bars/005.png,bars/mask007.png,,,,,,,,,,,,3,1,,,,,,,6,0,7,0,,,,,,,,,,,1154.7942,1155.2936,1155.5429,1157.4735,space,1.914,,1157.4736,16,66,1158.4708,1158.4709,1158.4719,,,,0,36,36,36,1,10,140,,,,,,,,
,,65aafa301d1aa8daf91f5bee,65af56a58f4b972623180bb5,2024-01-23_24h07.02.417,bars,2023.2.3,Win32,60.97560976,657b66ea316d21385b68909f,,,,,,,,,,,1158.4724,1159.4694,,,1159.9683,1160.2176,,78,78,,,,,,,,,,,,,,,,bars/029.png,bars/mask009.png,,,,,,,,,,,,2,1,,,,,,,4,2,3,1,,,,,,,,,,,1159.4694,1159.9683,1160.2176,1162.8464,space,2.6124,,1162.8465,12,33,1163.8439,1163.8439,1163.8574,,,,0,37,37,37,1,90,45,,,,,,,,
,,65aafa301d1aa8daf91f5bee,65af56a58f4b972623180bb5,2024-01-23_24h07.02.417,bars,2023.2.3,Win32,60.97560976,657b66ea316d21385b68909f,,,,,,,,,,,1163.8577,1164.8589,,,1165.3579,1165.6074,,81,81,,,,,,,,,,,,,,,,bars/024.png,bars/mask008.png,,,,,,,,,,,,0,1,,,,,,,2,4,1,4,,,,,,,,,,,1164.8589,1165.3579,1165.6074,1168.5688,space,2.9451,,1168.5688,39,89,1169.5669,1169.567,1169.5815,,,,0,38,38,38,1,120,170,,,,,,,,
,,65aafa301d1aa8daf91f5bee,65af56a58f4b972623180bb5,2024-01-23_24h07.02.417,bars,2023.2.3,Win32,60.97560976,657b66ea316d21385b68909f,,,,,,,,,,,1169.5818,1170.5815,,,1171.0805,1171.3303,,161,161,,,,,,,,,,,,,,,,bars/020.png,bars/mask003.png,,,,,,,,,,,,4,2,,,,,,,4,6,4,6,,,,,,,,,,,1170.5815,1171.0804,1171.3303,1172.9436,space,1.6002,,1172.9437,46,9,1173.9424,1173.9424,1173.9574,,,,0,39,39,39,1,115,170,,,,,,,,
,,65aafa301d1aa8daf91f5bee,65af56a58f4b972623180bb5,2024-01-23_24h07.02.417,bars,2023.2.3,Win32,60.97560976,657b66ea316d21385b68909f,,,,,,,,,,,1173.9577,1174.9565,,,1175.4558,1175.7058,,137,137,,,,,,,,,,,,,,,,bars/043.png,bars/mask003.png,,,,,,,,,,,,2,2,,,,,,,2,4,2,2,,,,,,,,,,,1174.9567,1175.4557,1175.7058,1177.6018,space,1.8836,,1177.6019,73,7,1178.5998,1178.5998,1178.6009,,,,0,40,40,40,1,30,130,,,,,,,,
,,65aafa301d1aa8daf91f5bee,65af56a58f4b972623180bb5,2024-01-23_24h07.02.417,bars,2023.2.3,Win32,60.97560976,657b66ea316d21385b68909f,,,,,,,,,,,1178.6013,1179.598,,,1180.0974,1180.347,,165,-15,,,,,,,,,,,,,,,,bars/016.png,bars/mask003.png,,,,,,,,,,,,2,2,,,,,,,4,2,7,2,,,,,,,,,,,1179.598,1180.0972,1180.3471,1183.1079,space,2.745,,1183.108,55,0,1184.106,1184.1061,1184.1138,,,,0,41,41,41,1,40,165,,,,,,,,
,,65aafa301d1aa8daf91f5bee,65af56a58f4b972623180bb5,2024-01-23_24h07.02.417,bars,2023.2.3,Win32,60.97560976,657b66ea316d21385b68909f,,,,,,,,,,,1184.1139,1185.1043,,,1185.6034,1185.8529,,95,95,,,,,,,,,,,,,,,,bars/028.png,bars/mask000.png,,,,,,,,,,,,1,2,,,,,,,6,4,7,5,,,,,,,,,,,1185.1043,1185.6034,1185.8529,1188.3818,space,2.5125,,1188.3819,50,25,1189.38,1189.38,1189.3981,,,,0,42,42,42,1,45,120,,,,,,,,
,,65aafa301d1aa8daf91f5bee,65af56a58f4b972623180bb5,2024-01-23_24h07.02.417,bars,2023.2.3,Win32,60.97560976,657b66ea316d21385b68909f,,,,,,,,,,,1189.3984,1190.3942,,,1190.8934,1191.1435,,93,93,,,,,,,,,,,,,,,,bars/022.png,bars/mask008.png,,,,,,,,,,,,4,1,,,,,,,4,2,4,3,,,,,,,,,,,1190.3943,1190.8933,1191.1436,1193.3063,space,2.1466,,1193.3064,2,73,1194.3036,1194.3036,1194.3126,,,,0,43,43,43,1,95,20,,,,,,,,
,,65aafa301d1aa8daf91f5bee,65af56a58f4b972623180bb5,2024-01-23_24h07.02.417,bars,2023.2.3,Win32,60.97560976,657b66ea316d21385b68909f,,,,,,,,,,,1194.3129,1195.3023,,,1195.8021,1196.0505,,11,191,,,,,,,,,,,,,,,,bars/023.png,bars/mask003.png,,,,,,,,,,,,4,1,,,,,,,6,0,5,1,,,,,,,,,,,1195.3023,1195.8021,1196.0507,1197.8814,space,1.8218,,1197.8814,9,76,1198.8785,1198.8785,1198.8797,,,,0,44,44,44,1,20,115,,,,,,,,
,,65aafa301d1aa8daf91f5bee,65af56a58f4b972623180bb5,2024-01-23_24h07.02.417,bars,2023.2.3,Win32,60.97560976,657b66ea316d21385b68909f,,,,,,,,,,,1198.8801,1199.8769,,,1200.3757,1200.625,,134,-46,,,,,,,,,,,,,,,,bars/037.png,bars/mask000.png,,,,,,,,,,,,1,1,,,,,,,4,0,3,0,,,,,,,,,,,1199.877,1200.3757,1200.6251,1204.2351,space,3.5973,,1204.2352,16,29,1205.2335,1205.2335,1205.2479,,,,0,45,45,45,1,150,105,,,,,,,,
,,65aafa301d1aa8daf91f5bee,65af56a58f4b972623180bb5,2024-01-23_24h07.02.417,bars,2023.2.3,Win32,60.97560976,657b66ea316d21385b68909f,,,,,,,,,,,1205.2482,1206.248,,,1206.7479,1206.997,,31,211,,,,,,,,,,,,,,,,bars/005.png,bars/mask003.png,,,,,,,,,,,,2,1,,,,,,,6,2,6,1,,,,,,,,,,,1206.2481,1206.7479,1206.9972,1209.9081,space,2.8958,,1209.9082,21,71,1210.9065,1210.9066,1210.9207,,,,0,46,46,46,1,10,140,,,,,,,,
,,65aafa301d1aa8daf91f5bee,65af56a58f4b972623180bb5,2024-01-23_24h07.02.417,bars,2023.2.3,Win32,60.97560976,657b66ea316d21385b68909f,,,,,,,,,,,1210.921,1211.9206,,,1212.4199,1212.6698,,143,143,,,,,,,,,,,,,,,,bars/004.png,bars/mask006.png,,,,,,,,,,,,2,2,,,,,,,4,4,3,5,,,,,,,,,,,1211.9207,1212.4199,1212.6699,1213.9006,space,1.2153,,1213.9007,62,18,1214.8984,1214.8984,1214.9021,,,,0,47,47,47,1,25,125,,,,,,,,
,,65aafa301d1aa8daf91f5bee,65af56a58f4b972623180bb5,2024-01-23_24h07.02.417,bars,2023.2.3,Win32,60.97560976,657b66ea316d21385b68909f,,,,,,,,,,,1214.9025,1215.8968,,,1216.3955,1216.6451,,28,208,,,,,,,,,,,,,,,,bars/022.png,bars/mask009.png,,,,,,,,,,,,2,2,,,,,,,2,2,2,3,,,,,,,,,,,1215.8968,1216.3954,1216.6452,1220.2057,space,3.5479,,1220.2059,67,8,1221.2035,1221.2035,1221.2209,,,,0,48,48,48,1,95,20,,,,,,,,
,,65aafa301d1aa8daf91f5bee,65af56a58f4b972623180bb5,2024-01-23_24h07.02.417,bars,2023.2.3,Win32,60.97560976,657b66ea316d21385b68909f,,,,,,,,,,,1221.2214,1222.2179,,,1222.7181,1222.9667,,98,98,,,,,,,,,,,,,,,,bars/019.png,bars/mask007.png,,,,,,,,,,,,0,2,,,,,,,0,0,0,0,,,,,,,,,,,1222.218,1222.718,1222.9668,1224.6144,space,1.635,,1224.6144,53,7,1225.6116,1225.6116,1225.6293,,,,0,49,49,49,1,45,105,,,,,,,,
,,65aafa301d1aa8daf91f5bee,65af56a58f4b972623180bb5,2024-01-23_24h07.02.417,bars,2023.2.3,Win32,60.97560976,657b66ea316d21385b68909f,,,,,,,,,,,,,,,,,,,,,,,,,,,,,,,,,,,,,,,,,,,,,,,,,,,,,,,,,,,,,,,,,,,,,,,,,,,,,,,,,,,,,,,,,,,,,1225.6295,1285.6331,0,1,1,2,1,sequence_tables/blk014.csv
,,65aafa301d1aa8daf91f5bee,65af56a58f4b972623180bb5,2024-01-23_24h07.02.417,bars,2023.2.3,Win32,60.97560976,657b66ea316d21385b68909f,,,,,,,,,,,1288.6985,1289.6916,,,1290.1915,1290.4405,,84,84,,,,,,,,,,,,,,,,bars/013.png,bars/mask001.png,,,,,,,,,,,,7,1,,,,,,,10,2,10,0,,,,,,1285.6479,1288.6936,space,3.033,,1289.6917,1290.1915,1290.4406,1293.8509,space,3.3985,,1293.8511,9,74,1294.8486,1294.8486,1294.8641,,,,0,0,0,0,1,75,10,,,,,,,,
,,65aafa301d1aa8daf91f5bee,65af56a58f4b972623180bb5,2024-01-23_24h07.02.417,bars,2023.2.3,Win32,60.97560976,657b66ea316d21385b68909f,,,,,,,,,,,1294.8643,1295.864,,,1296.3629,1296.6126,,37,217,,,,,,,,,,,,,,,,bars/028.png,bars/mask002.png,,,,,,,,,,,,7,1,,,,,,,10,0,10,1,,,,,,,,,,,1295.8641,1296.3629,1296.6127,1299.5235,space,2.8952,,1299.5237,8,83,1300.5213,1300.5214,1300.5363,,,,0,1,1,1,1,45,120,,,,,,,,
,,65aafa301d1aa8daf91f5bee,65af56a58f4b972623180bb5,2024-01-23_24h07.02.417,bars,2023.2.3,Win32,60.97560976,657b66ea316d21385b68909f,,,,,,,,,,,1300.5371,1301.5361,,,1302.0357,1302.2849,,148,-32,,,,,,,,,,,,,,,,bars/010.png,bars/mask006.png,,,,,,,,,,,,3,1,,,,,,,8,2,8,0,,,,,,,,,,,1301.5361,1302.0357,1302.2849,1304.7638,space,2.4629,,1304.7641,17,87,1305.7616,1305.7616,1305.7791,,,,0,2,2,2,1,165,55,,,,,,,,
,,65aafa301d1aa8daf91f5bee,65af56a58f4b972623180bb5,2024-01-23_24h07.02.417,bars,2023.2.3,Win32,60.97560976,657b66ea316d21385b68909f,,,,,,,,,,,1305.7793,1306.7764,,,1307.2754,1307.5249,,34,34,,,,,,,,,,,,,,,,bars/003.png,bars/mask003.png,,,,,,,,,,,,4,1,,,,,,,6,0,6,0,,,,,,,,,,,1306.7765,1307.2753,1307.5249,1309.7885,space,2.2548,,1309.7885,9,74,1310.7864,1310.7864,1310.8027,,,,0,3,3,3,1,25,140,,,,,,,,
,,65aafa301d1aa8daf91f5bee,65af56a58f4b972623180bb5,2024-01-23_24h07.02.417,bars,2023.2.3,Win32,60.97560976,657b66ea316d21385b68909f,,,,,,,,,,,1310.8031,1311.8003,,,1312.2995,1312.5488,,141,141,,,,,,,,,,,,,,,,bars/040.png,bars/mask006.png,,,,,,,,,,,,8,1,,,,,,,8,0,8,0,,,,,,,,,,,1311.8004,1312.2994,1312.5489,1314.3291,space,1.7645,,1314.3292,1,44,1315.3273,1315.3273,1315.3284,,,,0,4,4,4,1,140,5,,,,,,,,
,,65aafa301d1aa8daf91f5bee,65af56a58f4b972623180bb5,2024-01-23_24h07.02.417,bars,2023.2.3,Win32,60.97560976,657b66ea316d21385b68909f,,,,,,,,,,,1315.3288,1316.3252,,,1316.8248,1317.0747,,145,145,,,,,,,,,,,,,,,,bars/049.png,bars/mask006.png,,,,,,,,,,,,4,1,,,,,,,6,2,7,3,,,,,,,,,,,1316.3252,1316.8246,1317.0747,1319.2865,space,2.1997,,1319.2866,15,30,1320.285,1320.2851,1320.299,,,,0,5,5,5,1,160,115,,,,,,,,
,,65aafa301d1aa8daf91f5bee,65af56a58f4b972623180bb5,2024-01-23_24h07.02.417,bars,2023.2.3,Win32,60.97560976,657b66ea316d21385b68909f,,,,,,,,,,,1320.2993,1321.2992,,,1321.7987,1322.048,,120,120,,,,,,,,,,,,,,,,bars/008.png,bars/mask002.png,,,,,,,,,,,,4,1,,,,,,,8,4,6,3,,,,,,,,,,,1321.2992,1321.7987,1322.048,1325.9075,space,3.8435,,1325.9076,10,60,1326.9057,1326.9057,1326.9204,,,,0,6,6,6,1,110,0,,,,,,,,
,,65aafa301d1aa8daf91f5bee,65af56a58f4b972623180bb5,2024-01-23_24h07.02.417,bars,2023.2.3,Win32,60.97560976,657b66ea316d21385b68909f,,,,,,,,,,,1326.9207,1327.9202,,,1328.4191,1328.6693,,159,159,,,,,,,,,,,,,,,,bars/007.png,bars/mask008.png,,,,,,,,,,,,3,1,,,,,,,6,2,6,3,,,,,,,,,,,1327.9202,1328.4191,1328.6693,1330.8981,space,2.2187,,1330.8983,16,76,1331.8959,1331.896,1331.9106,,,,0,7,7,7,1,175,55,,,,,,,,
,,65aafa301d1aa8daf91f5bee,65af56a58f4b972623180bb5,2024-01-23_24h07.02.417,bars,2023.2.3,Win32,60.97560976,657b66ea316d21385b68909f,,,,,,,,,,,1331.9108,1332.9115,,,1333.41,1333.6593,,103,103,,,,,,,,,,,,,,,,bars/023.png,bars/mask004.png,,,,,,,,,,,,0,2,,,,,,,8,0,8,0,,,,,,,,,,,1332.9115,1333.41,1333.6593,1336.272,space,2.602,,1336.2721,83,12,1337.2693,1337.2694,1337.2851,,,,0,8,8,8,1,20,115,,,,,,,,
,,65aafa301d1aa8daf91f5bee,65af56a58f4b972623180bb5,2024-01-23_24h07.02.417,bars,2023.2.3,Win32,60.97560976,657b66ea316d21385b68909f,,,,,,,,,,,1337.2858,1338.2838,,,1338.7832,1339.0328,,91,91,,,,,,,,,,,,,,,,bars/022.png,bars/mask003.png,,,,,,,,,,,,6,1,,,,,,,6,0,7,0,,,,,,,,,,,1338.2838,1338.7831,1339.0328,1343.7738,space,4.725,,1343.7738,4,71,1344.7724,1344.7724,1344.7878,,,,0,9,9,9,1,95,20,,,,,,,,
,,65aafa301d1aa8daf91f5bee,65af56a58f4b972623180bb5,2024-01-23_24h07.02.417,bars,2023.2.3,Win32,60.97560976,657b66ea316d21385b68909f,,,,,,,,,,,1344.7881,1345.7867,,,1346.2858,1346.5352,,104,104,,,,,,,,,,,,,,,,bars/015.png,bars/mask004.png,,,,,,,,,,,,6,1,,,,,,,8,2,7,2,,,,,,,,,,,1345.7867,1346.2857,1346.5352,1349.3467,space,2.7955,,1349.3468,6,56,1350.3453,1350.3454,1350.3602,,,,0,10,10,10,1,110,160,,,,,,,,
,,65aafa301d1aa8daf91f5bee,65af56a58f4b972623180bb5,2024-01-23_24h07.02.417,bars,2023.2.3,Win32,60.97560976,657b66ea316d21385b68909f,,,,,,,,,,,1350.3605,1351.3595,,,1351.8586,1352.1086,,153,153,,,,,,,,,,,,,,,,bars/036.png,bars/mask008.png,,,,,,,,,,,,4,1,,,,,,,6,4,6,3,,,,,,,,,,,1351.3596,1351.8585,1352.1087,1356.3172,space,4.193,,1356.3173,8,47,1357.3154,1357.3154,1357.3297,,,,0,11,11,11,1,145,20,,,,,,,,
,,65aafa301d1aa8daf91f5bee,65af56a58f4b972623180bb5,2024-01-23_24h07.02.417,bars,2023.2.3,Win32,60.97560976,657b66ea316d21385b68909f,,,,,,,,,,,1357.33,1358.3298,,,1358.8294,1359.0783,,146,146,,,,,,,,,,,,,,,,bars/021.png,bars/mask000.png,,,,,,,,,,,,3,1,,,,,,,4,2,4,0,,,,,,,,,,,1358.3299,1358.8293,1359.0783,1360.6422,space,1.5544,,1360.6422,9,76,1361.6405,1361.6405,1361.6416,,,,0,12,12,12,1,155,70,,,,,,,,
,,65aafa301d1aa8daf91f5bee,65af56a58f4b972623180bb5,2024-01-23_24h07.02.417,bars,2023.2.3,Win32,60.97560976,657b66ea316d21385b68909f,,,,,,,,,,,1361.642,1362.6384,,,1363.1376,1363.3877,,28,208,,,,,,,,,,,,,,,,bars/012.png,bars/mask000.png,,,,,,,,,,,,2,2,,,,,,,2,4,2,4,,,,,,,,,,,1362.6384,1363.1376,1363.3877,1366.0654,space,2.6644,,1366.0655,62,13,1367.0637,1367.0639,1367.0806,,,,0,13,13,13,1,90,15,,,,,,,,
,,65aafa301d1aa8daf91f5bee,65af56a58f4b972623180bb5,2024-01-23_24h07.02.417,bars,2023.2.3,Win32,60.97560976,657b66ea316d21385b68909f,,,,,,,,,,,1367.0811,1368.0782,,,1368.5775,1368.8275,,128,128,,,,,,,,,,,,,,,,bars/049.png,bars/mask004.png,,,,,,,,,,,,0,2,,,,,,,0,2,0,0,,,,,,,,,,,1368.0782,1368.5773,1368.8276,1369.8251,space,0.9814,,1369.8252,32,13,1370.8238,1370.8239,1370.8247,,,,0,14,14,14,1,160,115,,,,,,,,
,,65aafa301d1aa8daf91f5bee,65af56a58f4b972623180bb5,2024-01-23_24h07.02.417,bars,2023.2.3,Win32,60.97560976,657b66ea316d21385b68909f,,,,,,,,,,,1370.8251,1371.8212,,,1372.3203,1372.5698,,121,121,,,,,,,,,,,,,,,,bars/031.png,bars/mask004.png,,,,,,,,,,,,0,1,,,,,,,0,4,0,3,,,,,,,,,,,1371.8213,1372.3203,1372.5699,1375.7474,space,3.1614,,1375.7475,1,86,1376.7456,1376.7456,1376.7625,,,,0,15,15,15,1,120,35,,,,,,,,
,,65aafa301d1aa8daf91f5bee,65af56a58f4b972623180bb5,2024-01-23_24h07.02.417,bars,2023.2.3,Win32,60.97560976,657b66ea316d21385b68909f,,,,,,,,,,,1376.763,1377.7599,,,1378.2593,1378.5096,,143,-37,,,,,,,,,,,,,,,,bars/005.png,bars/mask002.png,,,,,,,,,,,,3,2,,,,,,,2,2,3,3,,,,,,,,,,,1377.7599,1378.2592,1378.5096,1381.8526,space,3.3325,,1381.8528,47,3,1382.8507,1382.8508,1382.8664,,,,0,16,16,16,1,10,140,,,,,,,,
,,65aafa301d1aa8daf91f5bee,65af56a58f4b972623180bb5,2024-01-23_24h07.02.417,bars,2023.2.3,Win32,60.97560976,657b66ea316d21385b68909f,,,,,,,,,,,1382.8668,1383.8659,,,1384.3644,1384.6138,,110,110,,,,,,,,,,,,,,,,bars/049.png,bars/mask006.png,,,,,,,,,,,,3,2,,,,,,,4,4,2,4,,,,,,,,,,,1383.8659,1384.3644,1384.6138,1386.577,space,1.9465,,1386.577,50,5,1387.575,1387.575,1387.576,,,,0,17,17,17,1,160,115,,,,,,,,
,,65aafa301d1aa8daf91f5bee,65af56a58f4b972623180bb5,2024-01-23_24h07.02.417,bars,2023.2.3,Win32,60.97560976,657b66ea316d21385b68909f,,,,,,,,,,,1387.5765,1388.573,,,1389.0725,1389.3217,,65,65,,,,,,,,,,,,,,,,bars/038.png,bars/mask000.png,,,,,,,,,,,,3,2,,,,,,,6,2,7,3,,,,,,,,,,,1388.5731,1389.0725,1389.3219,1393.5977,space,4.2675,,1393.5978,80,5,1394.5957,1394.5958,1394.6102,,,,0,18,18,18,1,165,70,,,,,,,,
,,65aafa301d1aa8daf91f5bee,65af56a58f4b972623180bb5,2024-01-23_24h07.02.417,bars,2023.2.3,Win32,60.97560976,657b66ea316d21385b68909f,,,,,,,,,,,1394.6106,1395.6099,,,1396.1097,1396.3585,,159,159,,,,,,,,,,,,,,,,bars/020.png,bars/mask002.png,,,,,,,,,,,,4,2,,,,,,,4,4,3,6,,,,,,,,,,,1395.61,1396.1096,1396.3585,1398.1562,space,1.7892,,1398.1562,44,11,1399.1538,1399.1538,1399.1547,,,,0,19,19,19,1,115,170,,,,,,,,
,,65aafa301d1aa8daf91f5bee,65af56a58f4b972623180bb5,2024-01-23_24h07.02.417,bars,2023.2.3,Win32,60.97560976,657b66ea316d21385b68909f,,,,,,,,,,,1399.155,1400.1515,,,1400.6505,1400.9002,,45,45,,,,,,,,,,,,,,,,bars/025.png,bars/mask004.png,,,,,,,,,,,,2,2,,,,,,,6,2,6,2,,,,,,,,,,,1400.1515,1400.6505,1400.9002,1404.0943,space,3.1856,,1404.0944,60,5,1405.0921,1405.0921,1405.0998,,,,0,20,20,20,1,105,40,,,,,,,,
,,65aafa301d1aa8daf91f5bee,65af56a58f4b972623180bb5,2024-01-23_24h07.02.417,bars,2023.2.3,Win32,60.97560976,657b66ea316d21385b68909f,,,,,,,,,,,1405.1,1406.0903,,,1406.59,1406.8391,,108,108,,,,,,,,,,,,,,,,bars/019.png,bars/mask009.png,,,,,,,,,,,,6,2,,,,,,,8,4,10,7,,,,,,,,,,,1406.0904,1406.5899,1406.8391,1408.8685,space,2.0177,,1408.8685,63,3,1409.8667,1409.8667,1409.8674,,,,0,21,21,21,1,45,105,,,,,,,,
,,65aafa301d1aa8daf91f5bee,65af56a58f4b972623180bb5,2024-01-23_24h07.02.417,bars,2023.2.3,Win32,60.97560976,657b66ea316d21385b68909f,,,,,,,,,,,1409.8676,1410.8648,,,1411.3639,1411.6134,,30,210,,,,,,,,,,,,,,,,bars/040.png,bars/mask007.png,,,,,,,,,,,,1,2,,,,,,,10,6,10,6,,,,,,,,,,,1410.8648,1411.3639,1411.6134,1414.425,space,2.7952,,1414.4252,70,25,1415.4227,1415.4227,1415.4305,,,,0,22,22,22,1,140,5,,,,,,,,
,,65aafa301d1aa8daf91f5bee,65af56a58f4b972623180bb5,2024-01-23_24h07.02.417,bars,2023.2.3,Win32,60.97560976,657b66ea316d21385b68909f,,,,,,,,,,,1415.4306,1416.4217,,,1416.9205,1417.1697,,140,140,,,,,,,,,,,,,,,,bars/000.png,bars/mask009.png,,,,,,,,,,,,3,2,,,,,,,8,4,8,3,,,,,,,,,,,1416.4217,1416.9205,1417.1697,1420.763,space,3.5792,,1420.7632,80,5,1421.761,1421.7611,1421.7766,,,,0,23,23,23,1,40,145,,,,,,,,
,,65aafa301d1aa8daf91f5bee,65af56a58f4b972623180bb5,2024-01-23_24h07.02.417,bars,2023.2.3,Win32,60.97560976,657b66ea316d21385b68909f,,,,,,,,,,,1421.7769,1422.7757,,,1423.2749,1423.5243,,151,151,,,,,,,,,,,,,,,,bars/043.png,bars/mask001.png,,,,,,,,,,,,2,2,,,,,,,6,6,6,8,,,,,,,,,,,1422.7757,1423.2749,1423.5245,1425.6708,space,2.1297,,1425.6709,59,21,1426.6689,1426.6691,1426.6837,,,,0,24,24,24,1,30,130,,,,,,,,
,,65aafa301d1aa8daf91f5bee,65af56a58f4b972623180bb5,2024-01-23_24h07.02.417,bars,2023.2.3,Win32,60.97560976,657b66ea316d21385b68909f,,,,,,,,,,,1426.6841,1427.6833,,,1428.1824,1428.4324,,153,-27,,,,,,,,,,,,,,,,bars/011.png,bars/mask005.png,,,,,,,,,,,,4,1,,,,,,,4,8,5,8,,,,,,,,,,,1427.6834,1428.1824,1428.4324,1431.1604,space,2.7123,,1431.1604,7,68,1432.1583,1432.1583,1432.1712,,,,0,25,25,25,1,160,85,,,,,,,,
,,65aafa301d1aa8daf91f5bee,65af56a58f4b972623180bb5,2024-01-23_24h07.02.417,bars,2023.2.3,Win32,60.97560976,657b66ea316d21385b68909f,,,,,,,,,,,1432.1715,1433.173,,,1433.6722,1433.922,,31,31,,,,,,,,,,,,,,,,bars/048.png,bars/mask004.png,,,,,,,,,,,,2,1,,,,,,,6,10,6,10,,,,,,,,,,,1433.173,1433.6721,1433.922,1436.7511,space,2.8213,,1436.7512,19,36,1437.7477,1437.7479,1437.7598,,,,0,26,26,26,1,50,175,,,,,,,,
,,65aafa301d1aa8daf91f5bee,65af56a58f4b972623180bb5,2024-01-23_24h07.02.417,bars,2023.2.3,Win32,60.97560976,657b66ea316d21385b68909f,,,,,,,,,,,1437.76,1438.763,,,1439.2618,1439.5112,,42,42,,,,,,,,,,,,,,,,bars/043.png,bars/mask002.png,,,,,,,,,,,,1,1,,,,,,,4,8,2,7,,,,,,,,,,,1438.763,1439.2617,1439.5113,1441.1248,space,1.6005,,1441.125,12,88,1442.1228,1442.1229,1442.1381,,,,0,27,27,27,1,30,130,,,,,,,,
,,65aafa301d1aa8daf91f5bee,65af56a58f4b972623180bb5,2024-01-23_24h07.02.417,bars,2023.2.3,Win32,60.97560976,657b66ea316d21385b68909f,,,,,,,,,,,1442.1384,1443.1377,,,1443.6371,1443.8867,,16,16,,,,,,,,,,,,,,,,bars/008.png,bars/mask008.png,,,,,,,,,,,,5,2,,,,,,,6,10,8,10,,,,,,,,,,,1443.1377,1443.637,1443.8867,1445.4335,space,1.5311,,1445.4336,86,16,1446.4318,1446.4318,1446.4473,,,,0,28,28,28,1,110,0,,,,,,,,
,,65aafa301d1aa8daf91f5bee,65af56a58f4b972623180bb5,2024-01-23_24h07.02.417,bars,2023.2.3,Win32,60.97560976,657b66ea316d21385b68909f,,,,,,,,,,,1446.4478,1447.4462,,,1447.9457,1448.1954,,29,29,,,,,,,,,,,,,,,,bars/014.png,bars/mask002.png,,,,,,,,,,,,0,2,,,,,,,8,10,7,10,,,,,,,,,,,1447.4463,1447.9456,1448.1954,1450.3243,space,2.1171,,1450.3244,51,29,1451.3222,1451.3222,1451.3302,,,,0,29,29,29,1,80,0,,,,,,,,
,,65aafa301d1aa8daf91f5bee,65af56a58f4b972623180bb5,2024-01-23_24h07.02.417,bars,2023.2.3,Win32,60.97560976,657b66ea316d21385b68909f,,,,,,,,,,,1451.3305,1452.3204,,,1452.8195,1453.0702,,61,61,,,,,,,,,,,,,,,,bars/049.png,bars/mask007.png,,,,,,,,,,,,0,2,,,,,,,6,10,6,10,,,,,,,,,,,1452.3204,1452.8195,1453.0702,1455.7147,space,2.6359,,1455.7147,81,54,1456.7122,1456.7122,1456.7266,,,,0,30,30,30,1,160,115,,,,,,,,
,,65aafa301d1aa8daf91f5bee,65af56a58f4b972623180bb5,2024-01-23_24h07.02.417,bars,2023.2.3,Win32,60.97560976,657b66ea316d21385b68909f,,,,,,,,,,,1456.7269,1457.7272,,,1458.226,1458.4755,,153,153,,,,,,,,,,,,,,,,bars/033.png,bars/mask009.png,,,,,,,,,,,,8,2,,,,,,,8,8,10,9,,,,,,,,,,,1457.7273,1458.2259,1458.4756,1460.256,space,1.7639,,1460.256,52,2,1461.2537,1461.2538,1461.2549,,,,0,31,31,31,1,25,155,,,,,,,,
,,65aafa301d1aa8daf91f5bee,65af56a58f4b972623180bb5,2024-01-23_24h07.02.417,bars,2023.2.3,Win32,60.97560976,657b66ea316d21385b68909f,,,,,,,,,,,1461.2552,1462.2519,,,1462.7514,1463.0006,,22,22,,,,,,,,,,,,,,,,bars/048.png,bars/mask000.png,,,,,,,,,,,,1,2,,,,,,,10,6,10,6,,,,,,,,,,,1462.2519,1462.7512,1463.0007,1465.513,space,2.4958,,1465.5131,28,27,1466.5111,1466.5112,1466.5255,,,,0,32,32,32,1,50,175,,,,,,,,
,,65aafa301d1aa8daf91f5bee,65af56a58f4b972623180bb5,2024-01-23_24h07.02.417,bars,2023.2.3,Win32,60.97560976,657b66ea316d21385b68909f,,,,,,,,,,,1466.5258,1467.5253,,,1468.025,1468.2745,,118,118,,,,,,,,,,,,,,,,bars/009.png,bars/mask000.png,,,,,,,,,,,,4,2,,,,,,,10,8,10,7,,,,,,,,,,,1467.5253,1468.0249,1468.2745,1472.4333,space,4.1433,,1472.4334,77,13,1473.4307,1473.4308,1473.4387,,,,0,33,33,33,1,15,105,,,,,,,,
,,65aafa301d1aa8daf91f5bee,65af56a58f4b972623180bb5,2024-01-23_24h07.02.417,bars,2023.2.3,Win32,60.97560976,657b66ea316d21385b68909f,,,,,,,,,,,1473.4389,1474.4296,,,1474.9284,1475.1774,,50,50,,,,,,,,,,,,,,,,bars/007.png,bars/mask001.png,,,,,,,,,,,,5,2,,,,,,,8,6,7,6,,,,,,,,,,,1474.4298,1474.9283,1475.1774,1477.3076,space,2.1211,,1477.3076,55,5,1478.305,1478.3051,1478.3147,,,,0,34,34,34,1,175,55,,,,,,,,
,,65aafa301d1aa8daf91f5bee,65af56a58f4b972623180bb5,2024-01-23_24h07.02.417,bars,2023.2.3,Win32,60.97560976,657b66ea316d21385b68909f,,,,,,,,,,,1478.3149,1479.3036,,,1479.8027,1480.0615,,61,61,,,,,,,,,,,,,,,,bars/017.png,bars/mask004.png,,,,,,,,,,,,2,2,,,,,,,10,4,10,5,,,,,,,,,,,1479.3036,1479.8026,1480.0617,1481.7164,space,1.6385,,1481.7165,84,16,1482.7136,1482.7136,1482.7281,,,,0,35,35,35,1,145,45,,,,,,,,
,,65aafa301d1aa8daf91f5bee,65af56a58f4b972623180bb5,2024-01-23_24h07.02.417,bars,2023.2.3,Win32,60.97560976,657b66ea316d21385b68909f,,,,,,,,,,,1482.7284,1483.7282,,,1484.2278,1484.4768,,67,67,,,,,,,,,,,,,,,,bars/001.png,bars/mask004.png,,,,,,,,,,,,3,2,,,,,,,10,6,10,8,,,,,,,,,,,1483.7282,1484.2277,1484.4769,1488.22,space,3.7263,,1488.2201,63,18,1489.218,1489.2181,1489.2331,,,,0,36,36,36,1,130,85,,,,,,,,
,,65aafa301d1aa8daf91f5bee,65af56a58f4b972623180bb5,2024-01-23_24h07.02.417,bars,2023.2.3,Win32,60.97560976,657b66ea316d21385b68909f,,,,,,,,,,,1489.2335,1490.2328,,,1490.7319,1490.9815,,77,77,,,,,,,,,,,,,,,,bars/002.png,bars/mask002.png,,,,,,,,,,,,2,2,,,,,,,10,4,10,3,,,,,,,,,,,1490.2328,1490.7319,1490.9815,1494.6414,space,3.6436,,1494.6415,53,8,1495.6394,1495.6395,1495.6538,,,,0,37,37,37,1,130,85,,,,,,,,
,,65aafa301d1aa8daf91f5bee,65af56a58f4b972623180bb5,2024-01-23_24h07.02.417,bars,2023.2.3,Win32,60.97560976,657b66ea316d21385b68909f,,,,,,,,,,,1495.654,1496.654,,,1497.1535,1497.4026,,55,55,,,,,,,,,,,,,,,,bars/038.png,bars/mask005.png,,,,,,,,,,,,2,2,,,,,,,8,2,7,3,,,,,,,,,,,1496.654,1497.1534,1497.4026,1500.4473,space,3.0302,,1500.4473,70,15,1501.4451,1501.4451,1501.4595,,,,0,38,38,38,1,165,70,,,,,,,,
,,65aafa301d1aa8daf91f5bee,65af56a58f4b972623180bb5,2024-01-23_24h07.02.417,bars,2023.2.3,Win32,60.97560976,657b66ea316d21385b68909f,,,,,,,,,,,1501.4598,1502.46,,,1502.9588,1503.2085,,55,55,,,,,,,,,,,,,,,,bars/019.png,bars/mask006.png,,,,,,,,,,,,5,1,,,,,,,10,4,8,4,,,,,,,,,,,1502.4601,1502.9588,1503.2085,1505.5042,space,2.2831,,1505.5042,10,50,1506.5024,1506.5024,1506.5115,,,,0,39,39,39,1,45,105,,,,,,,,
,,65aafa301d1aa8daf91f5bee,65af56a58f4b972623180bb5,2024-01-23_24h07.02.417,bars,2023.2.3,Win32,60.97560976,657b66ea316d21385b68909f,,,,,,,,,,,1506.5118,1507.5005,,,1507.9995,1508.249,,78,78,,,,,,,,,,,,,,,,bars/014.png,bars/mask007.png,,,,,,,,,,,,7,1,,,,,,,8,2,7,3,,,,,,,,,,,1507.5005,1507.9995,1508.249,1509.5802,space,1.3173,,1509.5802,2,78,1510.5783,1510.5784,1510.5877,,,,0,40,40,40,1,80,0,,,,,,,,
,,65aafa301d1aa8daf91f5bee,65af56a58f4b972623180bb5,2024-01-23_24h07.02.417,bars,2023.2.3,Win32,60.97560976,657b66ea316d21385b68909f,,,,,,,,,,,1510.5881,1511.5761,,,1512.0758,1512.3248,,76,76,,,,,,,,,,,,,,,,bars/029.png,bars/mask009.png,,,,,,,,,,,,3,1,,,,,,,6,4,6,4,,,,,,,,,,,1511.5761,1512.0758,1512.3248,1513.273,space,0.939,,1513.2731,14,31,1514.2715,1514.2715,1514.2859,,,,0,41,41,41,1,90,45,,,,,,,,
,,65aafa301d1aa8daf91f5bee,65af56a58f4b972623180bb5,2024-01-23_24h07.02.417,bars,2023.2.3,Win32,60.97560976,657b66ea316d21385b68909f,,,,,,,,,,,1514.2861,1515.2859,,,1515.7856,1516.0348,,98,98,,,,,,,,,,,,,,,,bars/045.png,bars/mask007.png,,,,,,,,,,,,5,1,,,,,,,4,6,5,5,,,,,,,,,,,1515.286,1515.7855,1516.035,1518.3482,space,2.3011,,1518.3483,2,88,1519.3448,1519.3449,1519.3591,,,,0,42,42,42,1,100,10,,,,,,,,
,,65aafa301d1aa8daf91f5bee,65af56a58f4b972623180bb5,2024-01-23_24h07.02.417,bars,2023.2.3,Win32,60.97560976,657b66ea316d21385b68909f,,,,,,,,,,,1519.3594,1520.3597,,,1520.859,1521.1084,,169,-11,,,,,,,,,,,,,,,,bars/007.png,bars/mask004.png,,,,,,,,,,,,1,1,,,,,,,2,4,1,3,,,,,,,,,,,1520.3597,1520.859,1521.1084,1524.7878,space,3.6601,,1524.7879,6,66,1525.7834,1525.7834,1525.7978,,,,0,43,43,43,1,175,55,,,,,,,,
,,65aafa301d1aa8daf91f5bee,65af56a58f4b972623180bb5,2024-01-23_24h07.02.417,bars,2023.2.3,Win32,60.97560976,657b66ea316d21385b68909f,,,,,,,,,,,1525.7981,1526.7976,,,1527.2967,1527.5467,,68,68,,,,,,,,,,,,,,,,bars/048.png,bars/mask005.png,,,,,,,,,,,,0,1,,,,,,,0,6,0,7,,,,,,,,,,,1526.7977,1527.2967,1527.5467,1528.4616,space,0.9018,,1528.4617,18,73,1529.4592,1529.4593,1529.4604,,,,0,44,44,44,1,50,175,,,,,,,,
,,65aafa301d1aa8daf91f5bee,65af56a58f4b972623180bb5,2024-01-23_24h07.02.417,bars,2023.2.3,Win32,60.97560976,657b66ea316d21385b68909f,,,,,,,,,,,1529.4608,1530.4574,,,1530.9586,1531.2059,,7,7,,,,,,,,,,,,,,,,bars/032.png,bars/mask000.png,,,,,,,,,,,,5,2,,,,,,,0,8,0,9,,,,,,,,,,,1530.4575,1530.9586,1531.206,1532.8032,space,1.5813,,1532.8033,62,13,1533.8013,1533.8014,1533.8037,,,,0,45,45,45,1,125,20,,,,,,,,
,,65aafa301d1aa8daf91f5bee,65af56a58f4b972623180bb5,2024-01-23_24h07.02.417,bars,2023.2.3,Win32,60.97560976,657b66ea316d21385b68909f,,,,,,,,,,,1533.804,1534.7995,,,1535.2984,1535.5487,,70,70,,,,,,,,,,,,,,,,bars/038.png,bars/mask001.png,,,,,,,,,,,,7,2,,,,,,,0,6,0,7,,,,,,,,,,,1534.7995,1535.2984,1535.5487,1538.5428,space,2.9861,,1538.5429,85,0,1539.5406,1539.5408,1539.5519,,,,0,46,46,46,1,165,70,,,,,,,,
,,65aafa301d1aa8daf91f5bee,65af56a58f4b972623180bb5,2024-01-23_24h07.02.417,bars,2023.2.3,Win32,60.97560976,657b66ea316d21385b68909f,,,,,,,,,,,1539.5523,1540.555,,,1541.0544,1541.3041,,60,60,,,,,,,,,,,,,,,,bars/035.png,bars/mask008.png,,,,,,,,,,,,7,2,,,,,,,2,8,3,7,,,,,,,,,,,1540.555,1541.0543,1541.3042,1542.1862,space,0.8718,,1542.1862,65,0,1543.1834,1543.1835,1543.1841,,,,0,47,47,47,1,175,60,,,,,,,,
,,65aafa301d1aa8daf91f5bee,65af56a58f4b972623180bb5,2024-01-23_24h07.02.417,bars,2023.2.3,Win32,60.97560976,657b66ea316d21385b68909f,,,,,,,,,,,1543.1843,1544.1828,,,1544.6809,1544.9303,,5,5,,,,,,,,,,,,,,,,bars/024.png,bars/mask003.png,,,,,,,,,,,,3,2,,,,,,,0,6,0,5,,,,,,,,,,,1544.1828,1544.6808,1544.9304,1546.1448,space,1.1995,,1546.1448,65,15,1547.1434,1547.1434,1547.1444,,,,0,48,48,48,1,120,170,,,,,,,,
,,65aafa301d1aa8daf91f5bee,65af56a58f4b972623180bb5,2024-01-23_24h07.02.417,bars,2023.2.3,Win32,60.97560976,657b66ea316d21385b68909f,,,,,,,,,,,1547.1449,1548.1409,,,1548.64,1548.8896,,120,120,,,,,,,,,,,,,,,,bars/023.png,bars/mask006.png,,,,,,,,,,,,6,2,,,,,,,0,8,1,7,,,,,,,,,,,1548.141,1548.64,1548.8897,1551.7012,space,2.795,,1551.7012,80,5,1552.6991,1552.6992,1552.714,,,,0,49,49,49,1,20,115,,,,,,,,
,,65aafa301d1aa8daf91f5bee,65af56a58f4b972623180bb5,2024-01-23_24h07.02.417,bars,2023.2.3,Win32,60.97560976,657b66ea316d21385b68909f,,,,,,,,,,,,,,,,,,,,,,,,,,,,,,,,,,,,,,,,,,,,,,,,,,,,,,,,,,,,,,,,,,,,,,,,,,,,,,,,,,,,,,,,,,,,,1552.7143,1612.7034,0,2,2,3,1,sequence_tables/blk013.csv
,,65aafa301d1aa8daf91f5bee,65af56a58f4b972623180bb5,2024-01-23_24h07.02.417,bars,2023.2.3,Win32,60.97560976,657b66ea316d21385b68909f,,,,,,,,,,,1614.1775,1615.1655,,,1615.6645,1615.914,,155,-25,,,,,,,,,,,,,,,,bars/038.png,bars/mask001.png,,,,,,,,,,,,3,1,,,,,,,3,6,4,7,,,,,,1612.7114,1614.1678,space,1.4407,,1615.1656,1615.6645,1615.914,1617.7775,space,1.8535,,1617.7776,10,85,1618.7753,1618.7753,1618.7907,,,,0,0,0,0,1,165,70,,,,,,,,
,,65aafa301d1aa8daf91f5bee,65af56a58f4b972623180bb5,2024-01-23_24h07.02.417,bars,2023.2.3,Win32,60.97560976,657b66ea316d21385b68909f,,,,,,,,,,,1618.791,1619.7905,,,1620.2895,1620.5387,,101,101,,,,,,,,,,,,,,,,bars/042.png,bars/mask005.png,,,,,,,,,,,,1,2,,,,,,,5,8,3,7,,,,,,,,,,,1619.7906,1620.2895,1620.5388,1624.3982,space,3.8437,,1624.3983,44,26,1625.3966,1625.3966,1625.4119,,,,0,1,1,1,1,145,75,,,,,,,,
,,65aafa301d1aa8daf91f5bee,65af56a58f4b972623180bb5,2024-01-23_24h07.02.417,bars,2023.2.3,Win32,60.97560976,657b66ea316d21385b68909f,,,,,,,,,,,1625.4122,1626.4109,,,1626.9109,1627.16,,74,74,,,,,,,,,,,,,,,,bars/014.png,bars/mask007.png,,,,,,,,,,,,6,1,,,,,,,7,10,8,10,,,,,,,,,,,1626.411,1626.9109,1627.16,1629.4554,space,2.2798,,1629.4555,6,74,1630.4534,1630.4534,1630.4558,,,,0,2,2,2,1,80,0,,,,,,,,
,,65aafa301d1aa8daf91f5bee,65af56a58f4b972623180bb5,2024-01-23_24h07.02.417,bars,2023.2.3,Win32,60.97560976,657b66ea316d21385b68909f,,,,,,,,,,,1630.4562,1631.4514,,,1631.9512,1632.2002,,166,166,,,,,,,,,,,,,,,,bars/049.png,bars/mask003.png,,,,,,,,,,,,4,1,,,,,,,5,10,5,10,,,,,,,,,,,1631.4516,1631.9511,1632.2003,1633.8811,space,1.6652,,1633.8811,6,51,1634.8785,1634.8786,1634.8928,,,,0,3,3,3,1,160,115,,,,,,,,
,,65aafa301d1aa8daf91f5bee,65af56a58f4b972623180bb5,2024-01-23_24h07.02.417,bars,2023.2.3,Win32,60.97560976,657b66ea316d21385b68909f,,,,,,,,,,,1634.8931,1635.8935,,,1636.3923,1636.642,,105,-75,,,,,,,,,,,,,,,,bars/008.png,bars/mask008.png,,,,,,,,,,,,2,1,,,,,,,3,10,2,8,,,,,,,,,,,1635.8935,1636.3923,1636.6421,1640.0688,space,3.41,,1640.0688,5,75,1641.0676,1641.0677,1641.0785,,,,0,4,4,4,1,110,0,,,,,,,,
,,65aafa301d1aa8daf91f5bee,65af56a58f4b972623180bb5,2024-01-23_24h07.02.417,bars,2023.2.3,Win32,60.97560976,657b66ea316d21385b68909f,,,,,,,,,,,1641.0788,1642.0817,,,1642.5808,1642.8312,,178,178,,,,,,,,,,,,,,,,bars/007.png,bars/mask004.png,,,,,,,,,,,,1,1,,,,,,,1,10,1,9,,,,,,,,,,,1642.0817,1642.5808,1642.8312,1645.7587,space,2.92,,1645.7587,3,57,1646.7568,1646.7569,1646.7716,,,,0,5,5,5,1,175,55,,,,,,,,
,,65aafa301d1aa8daf91f5bee,65af56a58f4b972623180bb5,2024-01-23_24h07.02.417,bars,2023.2.3,Win32,60.97560976,657b66ea316d21385b68909f,,,,,,,,,,,1646.7719,1647.7715,,,1648.2706,1648.5201,,160,-20,,,,,,,,,,,,,,,,bars/044.png,bars/mask000.png,,,,,,,,,,,,8,2,,,,,,,3,10,1,10,,,,,,,,,,,1647.7715,1648.2706,1648.5201,1650.267,space,1.7303,,1650.267,85,5,1651.2646,1651.2646,1651.2835,,,,0,6,6,6,1,75,155,,,,,,,,
,,65aafa301d1aa8daf91f5bee,65af56a58f4b972623180bb5,2024-01-23_24h07.02.417,bars,2023.2.3,Win32,60.97560976,657b66ea316d21385b68909f,,,,,,,,,,,1651.2841,1652.2795,,,1652.7784,1653.0277,,84,84,,,,,,,,,,,,,,,,bars/018.png,bars/mask007.png,,,,,,,,,,,,8,2,,,,,,,5,10,5,10,,,,,,,,,,,1652.2796,1652.7784,1653.0277,1655.1242,space,2.0804,,1655.1243,66,6,1656.1219,1656.1219,1656.1293,,,,0,7,7,7,1,150,90,,,,,,,,
,,65aafa301d1aa8daf91f5bee,65af56a58f4b972623180bb5,2024-01-23_24h07.02.417,bars,2023.2.3,Win32,60.97560976,657b66ea316d21385b68909f,,,,,,,,,,,1656.1295,1657.1199,,,1657.6192,1657.8698,,75,75,,,,,,,,,,,,,,,,bars/038.png,bars/mask000.png,,,,,,,,,,,,8,2,,,,,,,7,8,7,9,,,,,,,,,,,1657.1199,1657.6192,1657.8699,1658.8671,space,0.9844,,1658.8671,90,5,1659.8654,1659.8655,1659.8664,,,,0,8,8,8,1,165,70,,,,,,,,
,,65aafa301d1aa8daf91f5bee,65af56a58f4b972623180bb5,2024-01-23_24h07.02.417,bars,2023.2.3,Win32,60.97560976,657b66ea316d21385b68909f,,,,,,,,,,,1659.8668,1660.8633,,,1661.3624,1661.6119,,104,104,,,,,,,,,,,,,,,,bars/023.png,bars/mask008.png,,,,,,,,,,,,3,2,,,,,,,5,6,7,5,,,,,,,,,,,1660.8633,1661.3624,1661.6119,1664.3901,space,2.7668,,1664.3902,84,11,1665.3887,1665.3887,1665.4029,,,,0,9,9,9,1,20,115,,,,,,,,
,,65aafa301d1aa8daf91f5bee,65af56a58f4b972623180bb5,2024-01-23_24h07.02.417,bars,2023.2.3,Win32,60.97560976,657b66ea316d21385b68909f,,,,,,,,,,,1665.4032,1666.4028,,,1666.9023,1667.152,,152,152,,,,,,,,,,,,,,,,bars/020.png,bars/mask004.png,,,,,,,,,,,,4,2,,,,,,,7,8,7,10,,,,,,,,,,,1666.4028,1666.9022,1667.152,1670.7781,space,3.6108,,1670.7781,37,18,1671.776,1671.776,1671.7907,,,,0,10,10,10,1,115,170,,,,,,,,
,,65aafa301d1aa8daf91f5bee,65af56a58f4b972623180bb5,2024-01-23_24h07.02.417,bars,2023.2.3,Win32,60.97560976,657b66ea316d21385b68909f,,,,,,,,,,,1671.7911,1672.7909,,,1673.2899,1673.5395,,123,123,,,,,,,,,,,,,,,,bars/023.png,bars/mask000.png,,,,,,,,,,,,7,2,,,,,,,9,10,8,9,,,,,,,,,,,1672.7909,1673.2899,1673.5396,1674.4878,space,0.9323,,1674.4878,77,8,1675.4857,1675.4858,1675.4869,,,,0,11,11,11,1,20,115,,,,,,,,
,,65aafa301d1aa8daf91f5bee,65af56a58f4b972623180bb5,2024-01-23_24h07.02.417,bars,2023.2.3,Win32,60.97560976,657b66ea316d21385b68909f,,,,,,,,,,,1675.4874,1676.4838,,,1676.9837,1677.2329,,123,123,,,,,,,,,,,,,,,,bars/043.png,bars/mask008.png,,,,,,,,,,,,8,2,,,,,,,10,10,9,10,,,,,,,,,,,1676.4838,1676.9837,1677.233,1679.7446,space,2.4986,,1679.7447,87,7,1680.7429,1680.743,1680.744,,,,0,12,12,12,1,30,130,,,,,,,,
,,65aafa301d1aa8daf91f5bee,65af56a58f4b972623180bb5,2024-01-23_24h07.02.417,bars,2023.2.3,Win32,60.97560976,657b66ea316d21385b68909f,,,,,,,,,,,1680.7445,1681.7408,,,1682.24,1682.4894,,98,98,,,,,,,,,,,,,,,,bars/039.png,bars/mask005.png,,,,,,,,,,,,6,2,,,,,,,8,8,8,8,,,,,,,,,,,1681.7408,1682.2398,1682.4894,1686.4988,space,3.9931,,1686.4989,77,7,1687.4966,1687.4966,1687.511,,,,0,13,13,13,1,175,105,,,,,,,,
,,65aafa301d1aa8daf91f5bee,65af56a58f4b972623180bb5,2024-01-23_24h07.02.417,bars,2023.2.3,Win32,60.97560976,657b66ea316d21385b68909f,,,,,,,,,,,1687.5114,1688.5114,,,1689.0107,1689.2602,,132,-48,,,,,,,,,,,,,,,,bars/004.png,bars/mask006.png,,,,,,,,,,,,8,2,,,,,,,10,10,10,10,,,,,,,,,,,1688.5114,1689.0106,1689.2603,1693.6852,space,4.4091,,1693.6852,73,7,1694.6831,1694.6831,1694.6977,,,,0,14,14,14,1,25,125,,,,,,,,
,,65aafa301d1aa8daf91f5bee,65af56a58f4b972623180bb5,2024-01-23_24h07.02.417,bars,2023.2.3,Win32,60.97560976,657b66ea316d21385b68909f,,,,,,,,,,,1694.698,1695.6979,,,1696.1977,1696.4465,,172,-8,,,,,,,,,,,,,,,,bars/045.png,bars/mask001.png,,,,,,,,,,,,4,2,,,,,,,8,10,6,10,,,,,,,,,,,1695.6979,1696.1976,1696.4467,1698.5261,space,2.0702,,1698.5261,72,18,1699.524,1699.5241,1699.539,,,,0,15,15,15,1,100,10,,,,,,,,
,,65aafa301d1aa8daf91f5bee,65af56a58f4b972623180bb5,2024-01-23_24h07.02.417,bars,2023.2.3,Win32,60.97560976,657b66ea316d21385b68909f,,,,,,,,,,,1699.5395,1700.539,,,1701.038,1701.2874,,1,181,,,,,,,,,,,,,,,,bars/012.png,bars/mask009.png,,,,,,,,,,,,5,2,,,,,,,10,10,10,9,,,,,,,,,,,1700.5391,1701.038,1701.2874,1702.5856,space,1.282,,1702.5857,89,14,1703.5834,1703.5835,1703.5845,,,,0,16,16,16,1,90,15,,,,,,,,
,,65aafa301d1aa8daf91f5bee,65af56a58f4b972623180bb5,2024-01-23_24h07.02.417,bars,2023.2.3,Win32,60.97560976,657b66ea316d21385b68909f,,,,,,,,,,,1703.5848,1704.5819,,,1705.0807,1705.33,,83,83,,,,,,,,,,,,,,,,bars/042.png,bars/mask004.png,,,,,,,,,,,,7,2,,,,,,,10,10,10,10,,,,,,,,,,,1704.5819,1705.0806,1705.33,1707.6923,space,2.3461,,1707.6923,62,8,1708.6904,1708.6905,1708.6914,,,,0,17,17,17,1,145,75,,,,,,,,
,,65aafa301d1aa8daf91f5bee,65af56a58f4b972623180bb5,2024-01-23_24h07.02.417,bars,2023.2.3,Win32,60.97560976,657b66ea316d21385b68909f,,,,,,,,,,,1708.6918,1709.6882,,,1710.1881,1710.4376,,82,82,,,,,,,,,,,,,,,,bars/021.png,bars/mask000.png,,,,,,,,,,,,6,2,,,,,,,10,10,9,10,,,,,,,,,,,1709.6883,1710.1881,1710.4377,1712.3834,space,1.9353,,1712.3834,73,12,1713.3822,1713.3823,1713.3965,,,,0,18,18,18,1,155,70,,,,,,,,
,,65aafa301d1aa8daf91f5bee,65af56a58f4b972623180bb5,2024-01-23_24h07.02.417,bars,2023.2.3,Win32,60.97560976,657b66ea316d21385b68909f,,,,,,,,,,,1713.3968,1714.3962,,,1714.8953,1715.1452,,1,181,,,,,,,,,,,,,,,,bars/014.png,bars/mask001.png,,,,,,,,,,,,8,2,,,,,,,8,8,10,8,,,,,,,,,,,1714.3962,1714.8952,1715.1453,1718.472,space,3.318,,1718.472,79,1,1719.4708,1719.4708,1719.4848,,,,0,19,19,19,1,80,0,,,,,,,,
,,65aafa301d1aa8daf91f5bee,65af56a58f4b972623180bb5,2024-01-23_24h07.02.417,bars,2023.2.3,Win32,60.97560976,657b66ea316d21385b68909f,,,,,,,,,,,1719.4851,1720.4858,,,1720.9845,1721.2338,,143,143,,,,,,,,,,,,,,,,bars/005.png,bars/mask003.png,,,,,,,,,,,,5,2,,,,,,,10,6,10,5,,,,,,,,,,,1720.4858,1720.9844,1721.2341,1724.4284,space,3.1797,,1724.4284,47,3,1725.4257,1725.4258,1725.4398,,,,0,20,20,20,1,10,140,,,,,,,,
,,65aafa301d1aa8daf91f5bee,65af56a58f4b972623180bb5,2024-01-23_24h07.02.417,bars,2023.2.3,Win32,60.97560976,657b66ea316d21385b68909f,,,,,,,,,,,1725.4401,1726.4405,,,1726.9395,1727.189,,108,-72,,,,,,,,,,,,,,,,bars/006.png,bars/mask008.png,,,,,,,,,,,,4,2,,,,,,,10,4,10,5,,,,,,,,,,,1726.4406,1726.9393,1727.189,1730.5661,space,3.3679,,1730.5665,73,8,1731.5643,1731.5644,1731.5787,,,,0,21,21,21,1,35,100,,,,,,,,
,,65aafa301d1aa8daf91f5bee,65af56a58f4b972623180bb5,2024-01-23_24h07.02.417,bars,2023.2.3,Win32,60.97560976,657b66ea316d21385b68909f,,,,,,,,,,,1731.5791,1732.5788,,,1733.0784,1733.3274,,72,72,,,,,,,,,,,,,,,,bars/042.png,bars/mask003.png,,,,,,,,,,,,0,2,,,,,,,8,2,9,0,,,,,,,,,,,1732.5789,1733.0783,1733.3275,1737.1205,space,3.7834,,1737.1206,73,3,1738.1186,1738.1187,1738.1332,,,,0,22,22,22,1,145,75,,,,,,,,
,,65aafa301d1aa8daf91f5bee,65af56a58f4b972623180bb5,2024-01-23_24h07.02.417,bars,2023.2.3,Win32,60.97560976,657b66ea316d21385b68909f,,,,,,,,,,,1738.1334,1739.1332,,,1739.6326,1739.8829,,81,81,,,,,,,,,,,,,,,,bars/013.png,bars/mask005.png,,,,,,,,,,,,5,1,,,,,,,6,4,6,3,,,,,,,,,,,1739.1332,1739.6325,1739.8829,1741.8789,space,1.98,,1741.8789,6,71,1742.8761,1742.8762,1742.8785,,,,0,23,23,23,1,75,10,,,,,,,,
,,65aafa301d1aa8daf91f5bee,65af56a58f4b972623180bb5,2024-01-23_24h07.02.417,bars,2023.2.3,Win32,60.97560976,657b66ea316d21385b68909f,,,,,,,,,,,1742.8789,1743.8748,,,1744.3735,1744.6229,,65,65,,,,,,,,,,,,,,,,bars/044.png,bars/mask008.png,,,,,,,,,,,,5,1,,,,,,,8,6,8,6,,,,,,,,,,,1743.8749,1744.3735,1744.6229,1746.1051,space,1.4741,,1746.1052,10,90,1747.1017,1747.1017,1747.1158,,,,0,24,24,24,1,75,155,,,,,,,,
,,65aafa301d1aa8daf91f5bee,65af56a58f4b972623180bb5,2024-01-23_24h07.02.417,bars,2023.2.3,Win32,60.97560976,657b66ea316d21385b68909f,,,,,,,,,,,1747.1161,1748.1168,,,1748.6156,1748.8651,,0,0,,,,,,,,,,,,,,,,bars/039.png,bars/mask001.png,,,,,,,,,,,,8,1,,,,,,,10,4,10,5,,,,,,,,,,,1748.117,1748.6155,1748.8651,1752.0093,space,3.1331,,1752.0095,5,75,1753.0074,1753.0075,1753.0217,,,,0,25,25,25,1,175,105,,,,,,,,
,,65aafa301d1aa8daf91f5bee,65af56a58f4b972623180bb5,2024-01-23_24h07.02.417,bars,2023.2.3,Win32,60.97560976,657b66ea316d21385b68909f,,,,,,,,,,,1753.022,1754.0224,,,1754.5213,1754.7711,,73,253,,,,,,,,,,,,,,,,bars/044.png,bars/mask008.png,,,,,,,,,,,,9,1,,,,,,,10,2,10,2,,,,,,,,,,,1754.0225,1754.5213,1754.7711,1758.8304,space,4.0436,,1758.8306,2,82,1759.8277,1759.8279,1759.8426,,,,0,26,26,26,1,75,155,,,,,,,,
,,65aafa301d1aa8daf91f5bee,65af56a58f4b972623180bb5,2024-01-23_24h07.02.417,bars,2023.2.3,Win32,60.97560976,657b66ea316d21385b68909f,,,,,,,,,,,1759.8429,1760.8426,,,1761.3415,1761.5912,,71,71,,,,,,,,,,,,,,,,bars/029.png,bars/mask004.png,,,,,,,,,,,,3,1,,,,,,,8,4,7,4,,,,,,,,,,,1760.8426,1761.3415,1761.5913,1765.0021,space,3.3943,,1765.0021,19,26,1765.9997,1765.9997,1766.0153,,,,0,27,27,27,1,90,45,,,,,,,,
,,65aafa301d1aa8daf91f5bee,65af56a58f4b972623180bb5,2024-01-23_24h07.02.417,bars,2023.2.3,Win32,60.97560976,657b66ea316d21385b68909f,,,,,,,,,,,1766.0156,1767.0146,,,1767.5133,1767.7631,,71,71,,,,,,,,,,,,,,,,bars/029.png,bars/mask000.png,,,,,,,,,,,,1,1,,,,,,,6,6,4,7,,,,,,,,,,,1767.0146,1767.5133,1767.7632,1772.1551,space,4.3756,,1772.1551,19,26,1773.1529,1773.153,1773.1685,,,,0,28,28,28,1,90,45,,,,,,,,
,,65aafa301d1aa8daf91f5bee,65af56a58f4b972623180bb5,2024-01-23_24h07.02.417,bars,2023.2.3,Win32,60.97560976,657b66ea316d21385b68909f,,,,,,,,,,,1773.1689,1774.1678,,,1774.6674,1774.9166,,9,189,,,,,,,,,,,,,,,,bars/014.png,bars/mask004.png,,,,,,,,,,,,3,2,,,,,,,4,4,3,4,,,,,,,,,,,1774.1678,1774.6673,1774.9166,1777.5281,space,2.5962,,1777.5283,71,9,1778.5265,1778.5265,1778.5418,,,,0,29,29,29,1,80,0,,,,,,,,
,,65aafa301d1aa8daf91f5bee,65af56a58f4b972623180bb5,2024-01-23_24h07.02.417,bars,2023.2.3,Win32,60.97560976,657b66ea316d21385b68909f,,,,,,,,,,,1778.5422,1779.5409,,,1780.0401,1780.2897,,161,-19,,,,,,,,,,,,,,,,bars/044.png,bars/mask001.png,,,,,,,,,,,,2,2,,,,,,,6,2,6,3,,,,,,,,,,,1779.541,1780.04,1780.2897,1783.4336,space,3.1337,,1783.4336,86,6,1784.432,1784.4322,1784.4465,,,,0,30,30,30,1,75,155,,,,,,,,
,,65aafa301d1aa8daf91f5bee,65af56a58f4b972623180bb5,2024-01-23_24h07.02.417,bars,2023.2.3,Win32,60.97560976,657b66ea316d21385b68909f,,,,,,,,,,,1784.4468,1785.4465,,,1785.9462,1786.1955,,148,-32,,,,,,,,,,,,,,,,bars/043.png,bars/mask000.png,,,,,,,,,,,,0,2,,,,,,,4,0,5,0,,,,,,,,,,,1785.4465,1785.9461,1786.1956,1788.724,space,2.5126,,1788.724,62,18,1789.7218,1789.7218,1789.7316,,,,0,31,31,31,1,30,130,,,,,,,,
,,65aafa301d1aa8daf91f5bee,65af56a58f4b972623180bb5,2024-01-23_24h07.02.417,bars,2023.2.3,Win32,60.97560976,657b66ea316d21385b68909f,,,,,,,,,,,1789.732,1790.7198,,,1791.219,1791.4689,,168,168,,,,,,,,,,,,,,,,bars/007.png,bars/mask001.png,,,,,,,,,,,,5,1,,,,,,,6,2,6,2,,,,,,,,,,,1790.7199,1791.219,1791.4692,1792.7164,space,1.2314,,1792.7164,7,67,1793.7149,1793.7149,1793.7169,,,,0,32,32,32,1,175,55,,,,,,,,
,,65aafa301d1aa8daf91f5bee,65af56a58f4b972623180bb5,2024-01-23_24h07.02.417,bars,2023.2.3,Win32,60.97560976,657b66ea316d21385b68909f,,,,,,,,,,,1793.7173,1794.7125,,,1795.2122,1795.461,,155,155,,,,,,,,,,,,,,,,bars/036.png,bars/mask004.png,,,,,,,,,,,,7,1,,,,,,,8,4,10,5,,,,,,,,,,,1794.7126,1795.2122,1795.4611,1797.9899,space,2.5128,,1797.9902,10,45,1798.9882,1798.9884,1798.9894,,,,0,33,33,33,1,145,20,,,,,,,,
,,65aafa301d1aa8daf91f5bee,65af56a58f4b972623180bb5,2024-01-23_24h07.02.417,bars,2023.2.3,Win32,60.97560976,657b66ea316d21385b68909f,,,,,,,,,,,1798.9899,1799.9859,,,1800.485,1800.7345,,137,-43,,,,,,,,,,,,,,,,bars/030.png,bars/mask000.png,,,,,,,,,,,,7,1,,,,,,,10,6,8,5,,,,,,,,,,,1799.9859,1800.485,1800.7345,1803.5962,space,2.8533,,1803.5964,3,72,1804.5944,1804.5946,1804.609,,,,0,34,34,34,1,140,65,,,,,,,,
,,65aafa301d1aa8daf91f5bee,65af56a58f4b972623180bb5,2024-01-23_24h07.02.417,bars,2023.2.3,Win32,60.97560976,657b66ea316d21385b68909f,,,,,,,,,,,1804.6093,1805.6088,,,1806.1082,1806.3576,,157,157,,,,,,,,,,,,,,,,bars/042.png,bars/mask000.png,,,,,,,,,,,,6,1,,,,,,,10,8,10,8,,,,,,,,,,,1805.6089,1806.1082,1806.3576,1807.8886,space,1.5227,,1807.8886,12,82,1808.8859,1808.886,1808.8872,,,,0,35,35,35,1,145,75,,,,,,,,
,,65aafa301d1aa8daf91f5bee,65af56a58f4b972623180bb5,2024-01-23_24h07.02.417,bars,2023.2.3,Win32,60.97560976,657b66ea316d21385b68909f,,,,,,,,,,,1808.8878,1809.8841,,,1810.3833,1810.6326,,145,145,,,,,,,,,,,,,,,,bars/040.png,bars/mask005.png,,,,,,,,,,,,7,1,,,,,,,8,10,8,10,,,,,,,,,,,1809.8841,1810.3833,1810.6326,1813.7109,space,3.0629,,1813.711,5,40,1814.7087,1814.7087,1814.7193,,,,0,36,36,36,1,140,5,,,,,,,,
,,65aafa301d1aa8daf91f5bee,65af56a58f4b972623180bb5,2024-01-23_24h07.02.417,bars,2023.2.3,Win32,60.97560976,657b66ea316d21385b68909f,,,,,,,,,,,1814.7195,1815.7231,,,1816.2225,1816.4717,,35,35,,,,,,,,,,,,,,,,bars/005.png,bars/mask002.png,,,,,,,,,,,,1,1,,,,,,,6,10,5,9,,,,,,,,,,,1815.7233,1816.2224,1816.4717,1819.3836,space,2.8954,,1819.3838,25,75,1820.381,1820.3812,1820.3955,,,,0,37,37,37,1,10,140,,,,,,,,
,,65aafa301d1aa8daf91f5bee,65af56a58f4b972623180bb5,2024-01-23_24h07.02.417,bars,2023.2.3,Win32,60.97560976,657b66ea316d21385b68909f,,,,,,,,,,,1820.3958,1821.3971,,,1821.895,1822.1444,,88,88,,,,,,,,,,,,,,,,bars/019.png,bars/mask007.png,,,,,,,,,,,,3,2,,,,,,,4,8,4,8,,,,,,,,,,,1821.3971,1821.8949,1822.1444,1824.9724,space,2.8117,,1824.9724,43,17,1825.9706,1825.9707,1825.9864,,,,0,38,38,38,1,45,105,,,,,,,,
,,65aafa301d1aa8daf91f5bee,65af56a58f4b972623180bb5,2024-01-23_24h07.02.417,bars,2023.2.3,Win32,60.97560976,657b66ea316d21385b68909f,,,,,,,,,,,1825.987,1826.9858,,,1827.4846,1827.7343,,17,197,,,,,,,,,,,,,,,,bars/024.png,bars/mask008.png,,,,,,,,,,,,0,2,,,,,,,2,6,2,5,,,,,,,,,,,1826.9859,1827.4846,1827.7344,1832.4588,space,4.7147,,1832.4589,77,27,1833.4565,1833.4565,1833.4709,,,,0,39,39,39,1,120,170,,,,,,,,
,,65aafa301d1aa8daf91f5bee,65af56a58f4b972623180bb5,2024-01-23_24h07.02.417,bars,2023.2.3,Win32,60.97560976,657b66ea316d21385b68909f,,,,,,,,,,,1833.4711,1834.4715,,,1834.9705,1835.2201,,72,72,,,,,,,,,,,,,,,,bars/029.png,bars/mask003.png,,,,,,,,,,,,2,1,,,,,,,4,8,5,7,,,,,,,,,,,1834.4715,1834.9705,1835.2201,1837.1002,space,1.8633,,1837.1002,18,27,1838.0979,1838.0979,1838.1131,,,,0,40,40,40,1,90,45,,,,,,,,
,,65aafa301d1aa8daf91f5bee,65af56a58f4b972623180bb5,2024-01-23_24h07.02.417,bars,2023.2.3,Win32,60.97560976,657b66ea316d21385b68909f,,,,,,,,,,,1838.1134,1839.1126,,,1839.6118,1839.8613,,154,154,,,,,,,,,,,,,,,,bars/011.png,bars/mask006.png,,,,,,,,,,,,2,1,,,,,,,2,6,2,5,,,,,,,,,,,1839.1126,1839.6117,1839.8613,1841.4756,space,1.5978,,1841.4756,6,69,1842.4735,1842.4735,1842.4741,,,,0,41,41,41,1,160,85,,,,,,,,
,,65aafa301d1aa8daf91f5bee,65af56a58f4b972623180bb5,2024-01-23_24h07.02.417,bars,2023.2.3,Win32,60.97560976,657b66ea316d21385b68909f,,,,,,,,,,,1842.4745,1843.4718,,,1843.9705,1844.2197,,32,212,,,,,,,,,,,,,,,,bars/048.png,bars/mask005.png,,,,,,,,,,,,0,1,,,,,,,0,4,0,3,,,,,,,,,,,1843.4718,1843.9704,1844.2197,1846.9482,space,2.7132,,1846.9482,18,37,1847.9472,1847.9472,1847.9543,,,,0,42,42,42,1,50,175,,,,,,,,
,,65aafa301d1aa8daf91f5bee,65af56a58f4b972623180bb5,2024-01-23_24h07.02.417,bars,2023.2.3,Win32,60.97560976,657b66ea316d21385b68909f,,,,,,,,,,,1847.9544,1848.9442,,,1849.4433,1849.6928,,147,-33,,,,,,,,,,,,,,,,bars/017.png,bars/mask006.png,,,,,,,,,,,,1,1,,,,,,,2,2,1,3,,,,,,,,,,,1848.9442,1849.4432,1849.6928,1852.4877,space,2.7851,,1852.4879,2,78,1853.4858,1853.4858,1853.5004,,,,0,43,43,43,1,145,45,,,,,,,,
,,65aafa301d1aa8daf91f5bee,65af56a58f4b972623180bb5,2024-01-23_24h07.02.417,bars,2023.2.3,Win32,60.97560976,657b66ea316d21385b68909f,,,,,,,,,,,1853.5006,1854.5006,,,1854.9996,1855.2497,,162,162,,,,,,,,,,,,,,,,bars/038.png,bars/mask004.png,,,,,,,,,,,,5,1,,,,,,,4,4,5,4,,,,,,,,,,,1854.5007,1854.9995,1855.2497,1856.7471,space,1.4813,,1856.7471,3,88,1857.7446,1857.7446,1857.7534,,,,0,44,44,44,1,165,70,,,,,,,,
,,65aafa301d1aa8daf91f5bee,65af56a58f4b972623180bb5,2024-01-23_24h07.02.417,bars,2023.2.3,Win32,60.97560976,657b66ea316d21385b68909f,,,,,,,,,,,1857.7537,1858.7432,,,1859.242,1859.4913,,150,150,,,,,,,,,,,,,,,,bars/017.png,bars/mask004.png,,,,,,,,,,,,4,1,,,,,,,6,2,5,2,,,,,,,,,,,1858.7432,1859.2419,1859.4913,1861.1714,space,1.6635,,1861.1715,5,75,1862.1694,1862.1695,1862.1704,,,,0,45,45,45,1,145,45,,,,,,,,
,,65aafa301d1aa8daf91f5bee,65af56a58f4b972623180bb5,2024-01-23_24h07.02.417,bars,2023.2.3,Win32,60.97560976,657b66ea316d21385b68909f,,,,,,,,,,,1862.1707,1863.1675,,,1863.6668,1863.9162,,40,40,,,,,,,,,,,,,,,,bars/043.png,bars/mask006.png,,,,,,,,,,,,3,1,,,,,,,4,4,5,2,,,,,,,,,,,1863.1676,1863.6667,1863.9163,1864.7815,space,0.8489,,1864.7815,10,90,1865.7793,1865.7794,1865.7803,,,,0,46,46,46,1,30,130,,,,,,,,
,,65aafa301d1aa8daf91f5bee,65af56a58f4b972623180bb5,2024-01-23_24h07.02.417,bars,2023.2.3,Win32,60.97560976,657b66ea316d21385b68909f,,,,,,,,,,,1865.7806,1866.7778,,,1867.2765,1867.5261,,17,197,,,,,,,,,,,,,,,,bars/009.png,bars/mask006.png,,,,,,,,,,,,7,1,,,,,,,6,2,7,2,,,,,,,,,,,1866.7781,1867.2764,1867.5261,1871.7858,space,4.247,,1871.7858,2,88,1872.7829,1872.783,1872.7971,,,,0,47,47,47,1,15,105,,,,,,,,
,,65aafa301d1aa8daf91f5bee,65af56a58f4b972623180bb5,2024-01-23_24h07.02.417,bars,2023.2.3,Win32,60.97560976,657b66ea316d21385b68909f,,,,,,,,,,,1872.7974,1873.798,,,1874.2969,1874.5464,,4,4,,,,,,,,,,,,,,,,bars/033.png,bars/mask009.png,,,,,,,,,,,,1,1,,,,,,,4,4,3,3,,,,,,,,,,,1873.7982,1874.2968,1874.5465,1875.3958,space,0.8408,,1875.3959,21,29,1876.3928,1876.3928,1876.3941,,,,0,48,48,48,1,25,155,,,,,,,,
,,65aafa301d1aa8daf91f5bee,65af56a58f4b972623180bb5,2024-01-23_24h07.02.417,bars,2023.2.3,Win32,60.97560976,657b66ea316d21385b68909f,,,,,,,,,,,1876.3945,1877.3915,,,1877.8902,1878.1396,,166,166,,,,,,,,,,,,,,,,bars/017.png,bars/mask008.png,,,,,,,,,,,,0,1,,,,,,,2,2,1,2,,,,,,,,,,,1877.3916,1877.8902,1878.1396,1879.7367,space,1.5811,,1879.7368,21,59,1880.7346,1880.7346,1880.7357,,,,0,49,49,49,1,145,45,,,,,,,,
,,65aafa301d1aa8daf91f5bee,65af56a58f4b972623180bb5,2024-01-23_24h07.02.417,bars,2023.2.3,Win32,60.97560976,657b66ea316d21385b68909f,,,,,,,,,,,,,,,,,,,,,,,,,,,,,,,,,,,,,,,,,,,,,,,,,,,,,,,,,,,,,,,,,,,,,,,,,,,,,,,,,,,,,,,,,,,,,1880.7358,1940.73,0,3,3,4,1,sequence_tables/blk020.csv
,,65aafa301d1aa8daf91f5bee,65af56a58f4b972623180bb5,2024-01-23_24h07.02.417,bars,2023.2.3,Win32,60.97560976,657b66ea316d21385b68909f,,,,,,,,,,,1948.4873,1949.4727,,,1949.9718,1950.2211,,160,160,,,,,,,,,,,,,,,,bars/049.png,bars/mask001.png,,,,,,,,,,,,4,1,,,,,,,4,1,4,1,,,,,,1940.7459,1948.466,space,7.6999,,1949.4727,1949.9718,1950.2212,1953.1324,space,2.8996,,1953.1324,0,45,1954.1306,1954.1306,1954.1447,,,,0,0,0,0,1,160,115,,,,,,,,
,,65aafa301d1aa8daf91f5bee,65af56a58f4b972623180bb5,2024-01-23_24h07.02.417,bars,2023.2.3,Win32,60.97560976,657b66ea316d21385b68909f,,,,,,,,,,,1954.1449,1955.1452,,,1955.6446,1955.8937,,167,167,,,,,,,,,,,,,,,,bars/002.png,bars/mask000.png,,,,,,,,,,,,0,1,,,,,,,6,0,8,0,,,,,,,,,,,1955.1453,1955.6444,1955.8938,1958.3061,space,2.4032,,1958.3061,37,82,1959.3042,1959.3042,1959.3181,,,,0,1,1,1,1,130,85,,,,,,,,
,,65aafa301d1aa8daf91f5bee,65af56a58f4b972623180bb5,2024-01-23_24h07.02.417,bars,2023.2.3,Win32,60.97560976,657b66ea316d21385b68909f,,,,,,,,,,,1959.3184,1960.3189,,,1960.818,1961.0675,,35,35,,,,,,,,,,,,,,,,bars/022.png,bars/mask006.png,,,,,,,,,,,,1,2,,,,,,,4,2,2,2,,,,,,,,,,,1960.3189,1960.818,1961.0676,1963.8458,space,2.7595,,1963.8458,60,15,1964.8436,1964.8438,1964.8592,,,,0,2,2,2,1,95,20,,,,,,,,
,,65aafa301d1aa8daf91f5bee,65af56a58f4b972623180bb5,2024-01-23_24h07.02.417,bars,2023.2.3,Win32,60.97560976,657b66ea316d21385b68909f,,,,,,,,,,,1964.8596,1965.8584,,,1966.3579,1966.6072,,8,8,,,,,,,,,,,,,,,,bars/014.png,bars/mask002.png,,,,,,,,,,,,0,2,,,,,,,2,0,2,0,,,,,,,,,,,1965.8584,1966.3578,1966.6072,1968.4543,space,1.8315,,1968.4544,72,8,1969.4517,1969.4518,1969.4666,,,,0,3,3,3,1,80,0,,,,,,,,
,,65aafa301d1aa8daf91f5bee,65af56a58f4b972623180bb5,2024-01-23_24h07.02.417,bars,2023.2.3,Win32,60.97560976,657b66ea316d21385b68909f,,,,,,,,,,,1969.4668,1970.4665,,,1970.9656,1971.2151,,153,-27,,,,,,,,,,,,,,,,bars/018.png,bars/mask007.png,,,,,,,,,,,,4,1,,,,,,,4,0,4,0,,,,,,,,,,,1970.4665,1970.9656,1971.2152,1974.3261,space,3.0989,,1974.3261,3,63,1975.3241,1975.3242,1975.3393,,,,0,4,4,4,1,150,90,,,,,,,,
,,65aafa301d1aa8daf91f5bee,65af56a58f4b972623180bb5,2024-01-23_24h07.02.417,bars,2023.2.3,Win32,60.97560976,657b66ea316d21385b68909f,,,,,,,,,,,1975.3396,1976.3388,,,1976.8381,1977.0877,,38,38,,,,,,,,,,,,,,,,bars/000.png,bars/mask008.png,,,,,,,,,,,,3,1,,,,,,,2,2,3,1,,,,,,,,,,,1976.3388,1976.8381,1977.0877,1978.3352,space,1.2297,,1978.3352,2,73,1979.3333,1979.3334,1979.3343,,,,0,5,5,5,1,40,145,,,,,,,,
,,65aafa301d1aa8daf91f5bee,65af56a58f4b972623180bb5,2024-01-23_24h07.02.417,bars,2023.2.3,Win32,60.97560976,657b66ea316d21385b68909f,,,,,,,,,,,1979.3347,1980.3313,,,1980.8307,1981.08,,178,-2,,,,,,,,,,,,,,,,bars/018.png,bars/mask009.png,,,,,,,,,,,,0,1,,,,,,,0,4,1,3,,,,,,,,,,,1980.3314,1980.8306,1981.08,1982.1948,space,1.0988,,1982.1949,28,88,1983.1926,1983.1926,1983.1935,,,,0,6,6,6,1,150,90,,,,,,,,
,,65aafa301d1aa8daf91f5bee,65af56a58f4b972623180bb5,2024-01-23_24h07.02.417,bars,2023.2.3,Win32,60.97560976,657b66ea316d21385b68909f,,,,,,,,,,,1983.1939,1984.1909,,,1984.6901,1984.9394,,24,24,,,,,,,,,,,,,,,,bars/035.png,bars/mask002.png,,,,,,,,,,,,0,1,,,,,,,0,6,0,7,,,,,,,,,,,1984.191,1984.6901,1984.9395,1987.019,space,2.0617,,1987.0191,29,36,1988.0171,1988.0171,1988.0331,,,,0,7,7,7,1,175,60,,,,,,,,
,,65aafa301d1aa8daf91f5bee,65af56a58f4b972623180bb5,2024-01-23_24h07.02.417,bars,2023.2.3,Win32,60.97560976,657b66ea316d21385b68909f,,,,,,,,,,,1988.0341,1989.0318,,,1989.5308,1989.7803,,37,37,,,,,,,,,,,,,,,,bars/025.png,bars/mask005.png,,,,,,,,,,,,7,2,,,,,,,2,8,2,8,,,,,,,,,,,1989.0318,1989.5307,1989.7803,1993.2245,space,3.4351,,1993.2245,68,3,1994.2221,1994.2221,1994.2381,,,,0,8,8,8,1,105,40,,,,,,,,
,,65aafa301d1aa8daf91f5bee,65af56a58f4b972623180bb5,2024-01-23_24h07.02.417,bars,2023.2.3,Win32,60.97560976,657b66ea316d21385b68909f,,,,,,,,,,,1994.2388,1995.237,,,1995.7359,1995.9854,,28,28,,,,,,,,,,,,,,,,bars/045.png,bars/mask007.png,,,,,,,,,,,,3,2,,,,,,,4,6,4,7,,,,,,,,,,,1995.237,1995.7358,1995.9854,1998.4311,space,2.4256,,1998.4311,72,18,1999.429,1999.429,1999.4455,,,,0,9,9,9,1,100,10,,,,,,,,
,,65aafa301d1aa8daf91f5bee,65af56a58f4b972623180bb5,2024-01-23_24h07.02.417,bars,2023.2.3,Win32,60.97560976,657b66ea316d21385b68909f,,,,,,,,,,,1999.4459,2000.4439,,,2000.9429,2001.1923,,99,99,,,,,,,,,,,,,,,,bars/049.png,bars/mask008.png,,,,,,,,,,,,4,2,,,,,,,2,8,0,8,,,,,,,,,,,2000.4439,2000.9429,2001.1923,2003.5131,space,2.2967,,2003.5132,61,16,2004.5028,2004.5029,2004.5039,,,,0,10,10,10,1,160,115,,,,,,,,
,,65aafa301d1aa8daf91f5bee,65af56a58f4b972623180bb5,2024-01-23_24h07.02.417,bars,2023.2.3,Win32,60.97560976,657b66ea316d21385b68909f,,,,,,,,,,,2004.5042,2005.5009,,,2005.9898,2006.2329,,165,-15,,,,,,,,,,,,,,,,bars/048.png,bars/mask001.png,,,,,,,,,,,,5,2,,,,,,,4,10,4,8,,,,,,,,,,,2005.501,2005.9898,2006.2329,2009.5602,space,3.3112,,2009.5602,65,10,2010.5707,2010.5708,2010.5793,,,,0,11,11,11,1,50,175,,,,,,,,
