init_variables.started,init_variables.stopped,participant,session,date,expName,psychopyVersion,OS,frameRate,study_id,instruction_exp.started,instruction_exp.stopped,key_resp_8.keys,key_resp_8.rt,key_resp_8.duration,instruction_single.started,instruction_single.stopped,key_resp_2.keys,key_resp_2.rt,key_resp_2.duration,interval.started,interval.stopped,cue_single.started,cue_single.stopped,mask.started,mask.stopped,ori_response_single.started,res_ori,res,ori_response_single.stopped,key_resp_single.keys,key_resp_single.rt,key_resp_single.duration,disp_single.started,disp_single.stopped,key_resp.keys,key_resp.rt,key_resp.duration,single.thisRepN,single.thisTrialN,single.thisN,single.thisIndex,single.ran,ori,path,mask_path,instruction_bandit.started,instruction_bandit.stopped,key_resp_6.keys,key_resp_6.rt,key_resp_6.duration,cue_bandit.started,cue_bandit.stopped,bandit_res.keys,bandit_res.rt,bandit_res.duration,outcome_bandit.started,rew,action,outcome_bandit.stopped,bandit.thisRepN,bandit.thisTrialN,bandit.thisN,bandit.thisIndex,bandit.ran,actual_rew1,actual_rew2,rew1,rew2,instruction_task.started,instruction_task.stopped,key_resp_7.keys,key_resp_7.rt,key_resp_7.duration,wait_ready.started,wait_ready.stopped,key_resp_3.keys,key_resp_3.rt,key_resp_3.duration,cue.started,cue.stopped,ori_response.started,ori_response.stopped,key_resp_5.keys,key_resp_5.rt,key_resp_5.duration,outcome.started,diff1,diff2,outcome.stopped,disp_outcome_practice.started,disp_outcome_practice.stopped,key_resp_4.keys,key_resp_4.rt,key_resp_4.duration,trials.thisRepN,trials.thisTrialN,trials.thisN,trials.thisIndex,trials.ran,ori1,ori2,break_blk.started,break_blk.stopped,block.thisRepN,block.thisTrialN,block.thisN,block.thisIndex,block.ran,condition_file
0.0005,0.0006,659eb5c7f6628cdb16dcf1a7,65af5663db6f3bf0e8762321,2024-01-23_03h05.06.669,bars,2023.2.3,Win32,59.88023952,657b66ea316d21385b68909f,,,,,,,,,,,,,,,,,,,,,,,,,,,,,,,,,,,,,,,,,,,,,,,,,,,,,,,,,,,,,,,,,,,,,,,,,,,,,,,,,,,,,,,,,,,,,,,,,,,,
,,659eb5c7f6628cdb16dcf1a7,65af5663db6f3bf0e8762321,2024-01-23_03h05.06.669,bars,2023.2.3,Win32,59.88023952,657b66ea316d21385b68909f,0.0007,6.7039,y,6.6913,,,,,,,,,,,,,,,,,,,,,,,,,,,,,,,,,,,,,,,,,,,,,,,,,,,,,,,,,,,,,,,,,,,,,,,,,,,,,,,,,,,,,,,,,,,,,,,,
,,659eb5c7f6628cdb16dcf1a7,65af5663db6f3bf0e8762321,2024-01-23_03h05.06.669,bars,2023.2.3,Win32,59.88023952,657b66ea316d21385b68909f,,,,,,6.704,26.1672,space,19.4526,,,,,,,,,,,,,,,,,,,,,,,,,,,,,,,,,,,,,,,,,,,,,,,,,,,,,,,,,,,,,,,,,,,,,,,,,,,,,,,,,,,,,,,,,,,
,,659eb5c7f6628cdb16dcf1a7,65af5663db6f3bf0e8762321,2024-01-23_03h05.06.669,bars,2023.2.3,Win32,59.88023952,657b66ea316d21385b68909f,,,,,,,,,,,26.1708,27.1684,27.1686,27.6685,27.6687,27.915,27.9153,61,61,125.0287,space,97.0736,,125.0288,133.541,space,8.4903,,0,0,0,0,1,150,bars/single000.png,bars/mask006.png,,,,,,,,,,,,,,,,,,,,,,,,,,,,,,,,,,,,,,,,,,,,,,,,,,,,,,,,,,,,,,,,
,,659eb5c7f6628cdb16dcf1a7,65af5663db6f3bf0e8762321,2024-01-23_03h05.06.669,bars,2023.2.3,Win32,59.88023952,657b66ea316d21385b68909f,,,,,,,,,,,133.553,134.5557,134.5558,135.0554,135.0554,135.305,135.305,17,17,139.4861,space,4.1654,,139.4862,143.934,space,4.4288,,0,1,1,9,1,20,bars/single009.png,bars/mask006.png,,,,,,,,,,,,,,,,,,,,,,,,,,,,,,,,,,,,,,,,,,,,,,,,,,,,,,,,,,,,,,,,
,,659eb5c7f6628cdb16dcf1a7,65af5663db6f3bf0e8762321,2024-01-23_03h05.06.669,bars,2023.2.3,Win32,59.88023952,657b66ea316d21385b68909f,,,,,,,,,,,143.9425,144.933,144.933,145.433,145.433,145.6828,145.6828,66,66,148.9641,space,3.2677,,148.9642,152.5454,space,3.5645,,0,2,2,5,1,55,bars/single005.png,bars/mask008.png,,,,,,,,,,,,,,,,,,,,,,,,,,,,,,,,,,,,,,,,,,,,,,,,,,,,,,,,,,,,,,,,
,,659eb5c7f6628cdb16dcf1a7,65af5663db6f3bf0e8762321,2024-01-23_03h05.06.669,bars,2023.2.3,Win32,59.88023952,657b66ea316d21385b68909f,,,,,,,,,,,152.5525,153.5447,153.5447,154.0448,154.0448,154.2951,154.2951,16,16,157.7926,space,3.4883,,157.7927,159.1084,space,1.3026,,0,3,3,1,1,20,bars/single001.png,bars/mask006.png,,,,,,,,,,,,,,,,,,,,,,,,,,,,,,,,,,,,,,,,,,,,,,,,,,,,,,,,,,,,,,,,
,,659eb5c7f6628cdb16dcf1a7,65af5663db6f3bf0e8762321,2024-01-23_03h05.06.669,bars,2023.2.3,Win32,59.88023952,657b66ea316d21385b68909f,,,,,,,,,,,159.1091,160.1082,160.1083,160.6079,160.6079,160.8576,160.8576,8,188,165.9215,space,5.0591,,165.9216,167.9204,space,1.9804,,0,4,4,3,1,20,bars/single003.png,bars/mask005.png,,,,,,,,,,,,,,,,,,,,,,,,,,,,,,,,,,,,,,,,,,,,,,,,,,,,,,,,,,,,,,,,
,,659eb5c7f6628cdb16dcf1a7,65af5663db6f3bf0e8762321,2024-01-23_03h05.06.669,bars,2023.2.3,Win32,59.88023952,657b66ea316d21385b68909f,,,,,,,,,,,167.9207,168.9199,168.92,169.4197,169.4197,169.6693,169.6693,42,222,175.2847,space,5.6099,,175.2848,176.649,space,1.3512,,0,5,5,7,1,45,bars/single007.png,bars/mask009.png,,,,,,,,,,,,,,,,,,,,,,,,,,,,,,,,,,,,,,,,,,,,,,,,,,,,,,,,,,,,,,,,
,,659eb5c7f6628cdb16dcf1a7,65af5663db6f3bf0e8762321,2024-01-23_03h05.06.669,bars,2023.2.3,Win32,59.88023952,657b66ea316d21385b68909f,,,,,,,,,,,176.6494,177.6482,177.6483,178.1485,178.1486,178.3981,178.3982,162,-18,182.9456,space,4.5421,,182.9456,184.8777,space,1.916,,0,6,6,2,1,145,bars/single002.png,bars/mask003.png,,,,,,,,,,,,,,,,,,,,,,,,,,,,,,,,,,,,,,,,,,,,,,,,,,,,,,,,,,,,,,,,
,,659eb5c7f6628cdb16dcf1a7,65af5663db6f3bf0e8762321,2024-01-23_03h05.06.669,bars,2023.2.3,Win32,59.88023952,657b66ea316d21385b68909f,,,,,,,,,,,184.8783,185.8772,185.8772,186.377,186.3771,186.6266,186.6267,89,89,192.3402,space,5.7063,,192.3403,194.539,space,2.1855,,0,7,7,4,1,95,bars/single004.png,bars/mask004.png,,,,,,,,,,,,,,,,,,,,,,,,,,,,,,,,,,,,,,,,,,,,,,,,,,,,,,,,,,,,,,,,
,,659eb5c7f6628cdb16dcf1a7,65af5663db6f3bf0e8762321,2024-01-23_03h05.06.669,bars,2023.2.3,Win32,59.88023952,657b66ea316d21385b68909f,,,,,,,,,,,194.5393,195.5385,195.5385,196.0385,196.0386,196.2882,196.2882,178,178,202.1562,space,5.8626,,202.1563,205.403,space,3.2311,,0,8,8,6,1,175,bars/single006.png,bars/mask005.png,,,,,,,,,,,,,,,,,,,,,,,,,,,,,,,,,,,,,,,,,,,,,,,,,,,,,,,,,,,,,,,,
,,659eb5c7f6628cdb16dcf1a7,65af5663db6f3bf0e8762321,2024-01-23_03h05.06.669,bars,2023.2.3,Win32,59.88023952,657b66ea316d21385b68909f,,,,,,,,,,,205.4114,206.3992,206.3993,206.8992,206.8993,207.1489,207.149,8,188,209.8973,space,2.7219,,209.8975,212.3161,space,2.3987,,0,9,9,8,1,160,bars/single008.png,bars/mask004.png,,,,,,,,,,,,,,,,,,,,,,,,,,,,,,,,,,,,,,,,,,,,,,,,,,,,,,,,,,,,,,,,
,,659eb5c7f6628cdb16dcf1a7,65af5663db6f3bf0e8762321,2024-01-23_03h05.06.669,bars,2023.2.3,Win32,59.88023952,657b66ea316d21385b68909f,,,,,,,,,,,,,,,,,,,,,,,,,,,,,,,,,,,,,212.3171,228.288,space,15.9429,,,,,,,,,,,,,,,,,,,,,,,,,,,,,,,,,,,,,,,,,,,,,,,,,,,,,,,,,,,,
,,659eb5c7f6628cdb16dcf1a7,65af5663db6f3bf0e8762321,2024-01-23_03h05.06.669,bars,2023.2.3,Win32,59.88023952,657b66ea316d21385b68909f,,,,,,,,,,,,,,,,,,,,,,,,,,,,,,,,,,,,,,,,,,228.2959,236.2521,left,7.9444,,236.2523,9,1,237.2495,0,0,0,0,1,9,1,9,2,,,,,,,,,,,,,,,,,,,,,,,,,,,,,,,,,,,,,,,,,
,,659eb5c7f6628cdb16dcf1a7,65af5663db6f3bf0e8762321,2024-01-23_03h05.06.669,bars,2023.2.3,Win32,59.88023952,657b66ea316d21385b68909f,,,,,,,,,,,,,,,,,,,,,,,,,,,,,,,,,,,,,,,,,,237.2502,258.448,left,21.1791,,258.4481,10,1,259.447,0,1,1,1,1,10,0,10,1,,,,,,,,,,,,,,,,,,,,,,,,,,,,,,,,,,,,,,,,,
,,659eb5c7f6628cdb16dcf1a7,65af5663db6f3bf0e8762321,2024-01-23_03h05.06.669,bars,2023.2.3,Win32,59.88023952,657b66ea316d21385b68909f,,,,,,,,,,,,,,,,,,,,,,,,,,,,,,,,,,,,,,,,,,259.4552,261.4966,left,2.0338,,261.4966,10,1,262.4951,0,2,2,2,1,10,2,10,2,,,,,,,,,,,,,,,,,,,,,,,,,,,,,,,,,,,,,,,,,
,,659eb5c7f6628cdb16dcf1a7,65af5663db6f3bf0e8762321,2024-01-23_03h05.06.669,bars,2023.2.3,Win32,59.88023952,657b66ea316d21385b68909f,,,,,,,,,,,,,,,,,,,,,,,,,,,,,,,,,,,,,,,,,,262.4955,264.4446,left,1.9333,,264.4447,7,1,265.4432,0,3,3,3,1,8,4,7,3,,,,,,,,,,,,,,,,,,,,,,,,,,,,,,,,,,,,,,,,,
,,659eb5c7f6628cdb16dcf1a7,65af5663db6f3bf0e8762321,2024-01-23_03h05.06.669,bars,2023.2.3,Win32,59.88023952,657b66ea316d21385b68909f,,,,,,,,,,,,,,,,,,,,,,,,,,,,,,,,,,,,,,,,,,265.4437,265.9268,right,0.4673,,265.9268,1,2,266.926,0,4,4,4,1,6,2,5,1,,,,,,,,,,,,,,,,,,,,,,,,,,,,,,,,,,,,,,,,,
,,659eb5c7f6628cdb16dcf1a7,65af5663db6f3bf0e8762321,2024-01-23_03h05.06.669,bars,2023.2.3,Win32,59.88023952,657b66ea316d21385b68909f,,,,,,,,,,,,,,,,,,,,,,,,,,,,,,,,,,,,,,,,,,266.9264,268.1428,left,1.2007,,268.1429,4,1,269.1411,0,5,5,5,1,4,4,4,4,,,,,,,,,,,,,,,,,,,,,,,,,,,,,,,,,,,,,,,,,
,,659eb5c7f6628cdb16dcf1a7,65af5663db6f3bf0e8762321,2024-01-23_03h05.06.669,bars,2023.2.3,Win32,59.88023952,657b66ea316d21385b68909f,,,,,,,,,,,,,,,,,,,,,,,,,,,,,,,,,,,,,,,,,,269.1413,269.4751,left,0.3178,,269.4751,1,1,270.474,0,6,6,6,1,2,2,1,2,,,,,,,,,,,,,,,,,,,,,,,,,,,,,,,,,,,,,,,,,
,,659eb5c7f6628cdb16dcf1a7,65af5663db6f3bf0e8762321,2024-01-23_03h05.06.669,bars,2023.2.3,Win32,59.88023952,657b66ea316d21385b68909f,,,,,,,,,,,,,,,,,,,,,,,,,,,,,,,,,,,,,,,,,,270.4744,270.8243,right,0.334,,270.8244,1,2,271.8238,0,7,7,7,1,0,0,0,1,,,,,,,,,,,,,,,,,,,,,,,,,,,,,,,,,,,,,,,,,
,,659eb5c7f6628cdb16dcf1a7,65af5663db6f3bf0e8762321,2024-01-23_03h05.06.669,bars,2023.2.3,Win32,59.88023952,657b66ea316d21385b68909f,,,,,,,,,,,,,,,,,,,,,,,,,,,,,,,,,,,,,,,,,,271.8242,272.1071,right,0.2676,,272.1072,0,2,273.1061,0,8,8,8,1,0,2,1,0,,,,,,,,,,,,,,,,,,,,,,,,,,,,,,,,,,,,,,,,,
,,659eb5c7f6628cdb16dcf1a7,65af5663db6f3bf0e8762321,2024-01-23_03h05.06.669,bars,2023.2.3,Win32,59.88023952,657b66ea316d21385b68909f,,,,,,,,,,,,,,,,,,,,,,,,,,,,,,,,,,,,,,,,,,273.1064,274.4881,right,1.3661,,274.4881,3,2,275.4874,0,9,9,9,1,2,4,2,3,,,,,,,,,,,,,,,,,,,,,,,,,,,,,,,,,,,,,,,,,
,,659eb5c7f6628cdb16dcf1a7,65af5663db6f3bf0e8762321,2024-01-23_03h05.06.669,bars,2023.2.3,Win32,59.88023952,657b66ea316d21385b68909f,,,,,,,,,,,,,,,,,,,,,,,,,,,,,,,,,,,,,,,,,,275.4878,275.8048,left,0.3007,,275.8048,0,1,276.8043,0,10,10,10,1,0,2,0,3,,,,,,,,,,,,,,,,,,,,,,,,,,,,,,,,,,,,,,,,,
,,659eb5c7f6628cdb16dcf1a7,65af5663db6f3bf0e8762321,2024-01-23_03h05.06.669,bars,2023.2.3,Win32,59.88023952,657b66ea316d21385b68909f,,,,,,,,,,,,,,,,,,,,,,,,,,,,,,,,,,,,,,,,,,276.8049,278.3034,left,1.4824,,278.3034,0,1,279.3024,0,11,11,11,1,0,4,0,3,,,,,,,,,,,,,,,,,,,,,,,,,,,,,,,,,,,,,,,,,
,,659eb5c7f6628cdb16dcf1a7,65af5663db6f3bf0e8762321,2024-01-23_03h05.06.669,bars,2023.2.3,Win32,59.88023952,657b66ea316d21385b68909f,,,,,,,,,,,,,,,,,,,,,,,,,,,,,,,,,,,,,,,,,,279.3028,280.1527,left,0.8341,,280.1527,1,1,281.1518,0,12,12,12,1,2,6,1,6,,,,,,,,,,,,,,,,,,,,,,,,,,,,,,,,,,,,,,,,,
,,659eb5c7f6628cdb16dcf1a7,65af5663db6f3bf0e8762321,2024-01-23_03h05.06.669,bars,2023.2.3,Win32,59.88023952,657b66ea316d21385b68909f,,,,,,,,,,,,,,,,,,,,,,,,,,,,,,,,,,,,,,,,,,281.1522,281.5685,left,0.4009,,281.5685,1,1,282.5667,0,13,13,13,1,0,4,1,3,,,,,,,,,,,,,,,,,,,,,,,,,,,,,,,,,,,,,,,,,
,,659eb5c7f6628cdb16dcf1a7,65af5663db6f3bf0e8762321,2024-01-23_03h05.06.669,bars,2023.2.3,Win32,59.88023952,657b66ea316d21385b68909f,,,,,,,,,,,,,,,,,,,,,,,,,,,,,,,,,,,,,,,,,,282.5669,283.4672,right,0.884,,283.4673,7,2,284.4663,0,14,14,14,1,2,6,2,7,,,,,,,,,,,,,,,,,,,,,,,,,,,,,,,,,,,,,,,,,
,,659eb5c7f6628cdb16dcf1a7,65af5663db6f3bf0e8762321,2024-01-23_03h05.06.669,bars,2023.2.3,Win32,59.88023952,657b66ea316d21385b68909f,,,,,,,,,,,,,,,,,,,,,,,,,,,,,,,,,,,,,,,,,,284.4667,285.4662,right,0.9839,,285.4663,9,2,286.4652,0,15,15,15,1,4,8,3,9,,,,,,,,,,,,,,,,,,,,,,,,,,,,,,,,,,,,,,,,,
,,659eb5c7f6628cdb16dcf1a7,65af5663db6f3bf0e8762321,2024-01-23_03h05.06.669,bars,2023.2.3,Win32,59.88023952,657b66ea316d21385b68909f,,,,,,,,,,,,,,,,,,,,,,,,,,,,,,,,,,,,,,,,,,286.4655,287.6152,left,1.1339,,287.6152,7,1,288.6142,0,16,16,16,1,6,6,7,7,,,,,,,,,,,,,,,,,,,,,,,,,,,,,,,,,,,,,,,,,
,,659eb5c7f6628cdb16dcf1a7,65af5663db6f3bf0e8762321,2024-01-23_03h05.06.669,bars,2023.2.3,Win32,59.88023952,657b66ea316d21385b68909f,,,,,,,,,,,,,,,,,,,,,,,,,,,,,,,,,,,,,,,,,,288.6146,289.2308,right,0.6005,,289.2309,5,2,290.2295,0,17,17,17,1,8,4,9,5,,,,,,,,,,,,,,,,,,,,,,,,,,,,,,,,,,,,,,,,,
,,659eb5c7f6628cdb16dcf1a7,65af5663db6f3bf0e8762321,2024-01-23_03h05.06.669,bars,2023.2.3,Win32,59.88023952,657b66ea316d21385b68909f,,,,,,,,,,,,,,,,,,,,,,,,,,,,,,,,,,,,,,,,,,290.23,291.3127,left,1.0669,,291.3128,5,1,292.3117,0,18,18,18,1,6,2,5,1,,,,,,,,,,,,,,,,,,,,,,,,,,,,,,,,,,,,,,,,,
,,659eb5c7f6628cdb16dcf1a7,65af5663db6f3bf0e8762321,2024-01-23_03h05.06.669,bars,2023.2.3,Win32,59.88023952,657b66ea316d21385b68909f,,,,,,,,,,,,,,,,,,,,,,,,,,,,,,,,,,,,,,,,,,292.3119,292.6448,left,0.317,,292.6449,7,1,293.6448,0,19,19,19,1,8,0,7,0,,,,,,,,,,,,,,,,,,,,,,,,,,,,,,,,,,,,,,,,,
,,659eb5c7f6628cdb16dcf1a7,65af5663db6f3bf0e8762321,2024-01-23_03h05.06.669,bars,2023.2.3,Win32,59.88023952,657b66ea316d21385b68909f,,,,,,,,,,,,,,,,,,,,,,,,,,,,,,,,,,,,,,,,,,,,,,,,,,,,,,,,,,,,293.6453,392.7529,space,99.0886,,,,,,,,,,,,,,,,,,,,,,,,,,,,,,,,,,,,,
,,659eb5c7f6628cdb16dcf1a7,65af5663db6f3bf0e8762321,2024-01-23_03h05.06.669,bars,2023.2.3,Win32,59.88023952,657b66ea316d21385b68909f,,,,,,,,,,,394.0053,395.0012,,,395.5012,395.7506,,172,-8,,,,,,,,,,,,,,,,bars/015.png,bars/mask003.png,,,,,,,,,,,,2,2,,,,,,,7,3,7,3,,,,,,392.7603,394.0021,space,1.2233,,395.0014,395.5011,395.7507,401.1654,space,5.3964,,401.1657,62,12,402.1643,402.1645,409.5609,space,7.3823,,0,0,0,0,1,110,160,,,,,,,,
,,659eb5c7f6628cdb16dcf1a7,65af5663db6f3bf0e8762321,2024-01-23_03h05.06.669,bars,2023.2.3,Win32,59.88023952,657b66ea316d21385b68909f,,,,,,,,,,,409.5673,410.5592,,,411.0592,411.309,,42,42,,,,,,,,,,,,,,,,bars/007.png,bars/mask006.png,,,,,,,,,,,,0,2,,,,,,,5,1,7,0,,,,,,,,,,,410.5592,411.0591,411.3091,414.9904,space,3.6685,,414.9906,47,13,415.9899,415.9899,419.938,space,3.9348,,0,1,1,1,1,175,55,,,,,,,,
,,659eb5c7f6628cdb16dcf1a7,65af5663db6f3bf0e8762321,2024-01-23_03h05.06.669,bars,2023.2.3,Win32,59.88023952,657b66ea316d21385b68909f,,,,,,,,,,,419.9443,420.937,,,421.4369,421.687,,72,72,,,,,,,,,,,,,,,,bars/034.png,bars/mask005.png,,,,,,,,,,,,2,2,,,,,,,7,3,4,2,,,,,,,,,,,420.9371,421.4367,421.687,425.4513,space,3.7513,,425.4513,53,7,426.4504,426.4505,429.6988,space,3.2275,,0,2,2,2,1,125,65,,,,,,,,
,,659eb5c7f6628cdb16dcf1a7,65af5663db6f3bf0e8762321,2024-01-23_03h05.06.669,bars,2023.2.3,Win32,59.88023952,657b66ea316d21385b68909f,,,,,,,,,,,429.7048,430.6982,,,431.1978,431.4478,,91,91,,,,,,,,,,,,,,,,bars/001.png,bars/mask000.png,,,,,,,,,,,,4,2,,,,,,,9,5,10,5,,,,,,,,,,,430.6983,431.1978,431.4478,435.5801,space,4.1235,,435.5802,39,6,436.5817,436.5817,440.7645,space,4.1658,,0,3,3,3,1,130,85,,,,,,,,
,,659eb5c7f6628cdb16dcf1a7,65af5663db6f3bf0e8762321,2024-01-23_03h05.06.669,bars,2023.2.3,Win32,59.88023952,657b66ea316d21385b68909f,,,,,,,,,,,440.7731,441.7759,,,442.2756,442.5248,,1,181,,,,,,,,,,,,,,,,bars/035.png,bars/mask006.png,,,,,,,,,,,,8,1,,,,,,,10,7,10,6,,,,,,,,,,,441.7761,442.2756,442.525,447.8766,space,5.3472,,447.8767,6,59,448.8715,448.8716,451.7041,space,2.8006,,0,4,4,4,1,175,60,,,,,,,,
,,659eb5c7f6628cdb16dcf1a7,65af5663db6f3bf0e8762321,2024-01-23_03h05.06.669,bars,2023.2.3,Win32,59.88023952,657b66ea316d21385b68909f,,,,,,,,,,,451.7124,452.7027,,,453.2029,453.4524,,5,185,,,,,,,,,,,,,,,,bars/035.png,bars/mask001.png,,,,,,,,,,,,7,1,,,,,,,10,5,10,5,,,,,,,,,,,452.7028,453.2027,453.4525,458.2043,space,4.7318,,458.2044,10,55,459.2,459.2001,461.6193,space,2.3997,,0,5,5,5,1,175,60,,,,,,,,
,,659eb5c7f6628cdb16dcf1a7,65af5663db6f3bf0e8762321,2024-01-23_03h05.06.669,bars,2023.2.3,Win32,59.88023952,657b66ea316d21385b68909f,,,,,,,,,,,461.6198,462.6138,,,463.1139,463.364,,86,86,,,,,,,,,,,,,,,,bars/041.png,bars/mask000.png,,,,,,,,,,,,7,2,,,,,,,10,7,10,7,,,,,,,,,,,462.6138,463.1138,463.3642,469.9277,space,6.5382,,469.9278,66,1,470.9263,470.9264,472.925,space,1.9665,,0,6,6,6,1,20,85,,,,,,,,
,,659eb5c7f6628cdb16dcf1a7,65af5663db6f3bf0e8762321,2024-01-23_03h05.06.669,bars,2023.2.3,Win32,59.88023952,657b66ea316d21385b68909f,,,,,,,,,,,472.9257,473.9245,,,474.4247,474.6748,,98,98,,,,,,,,,,,,,,,,bars/026.png,bars/mask002.png,,,,,,,,,,,,3,2,,,,,,,8,5,8,6,,,,,,,,,,,473.9247,474.4246,474.6749,477.61,space,2.9156,,477.6101,63,13,478.6051,478.6051,482.3407,space,3.7141,,0,7,7,7,1,35,85,,,,,,,,
,,659eb5c7f6628cdb16dcf1a7,65af5663db6f3bf0e8762321,2024-01-23_03h05.06.669,bars,2023.2.3,Win32,59.88023952,657b66ea316d21385b68909f,,,,,,,,,,,482.3469,483.3367,,,483.8356,484.0852,,2,2,,,,,,,,,,,,,,,,bars/004.png,bars/mask002.png,,,,,,,,,,,,1,1,,,,,,,6,7,4,7,,,,,,,,,,,483.3368,483.8356,484.0852,486.1884,space,2.0833,,486.1884,23,57,487.184,487.1842,489.8657,space,2.6574,,0,8,8,8,1,25,125,,,,,,,,
,,659eb5c7f6628cdb16dcf1a7,65af5663db6f3bf0e8762321,2024-01-23_03h05.06.669,bars,2023.2.3,Win32,59.88023952,657b66ea316d21385b68909f,,,,,,,,,,,489.8667,490.8653,,,491.3689,491.618,,124,124,,,,,,,,,,,,,,,,bars/004.png,bars/mask007.png,,,,,,,,,,,,9,2,,,,,,,4,9,4,9,,,,,,,,,,,490.8655,491.3688,491.6181,495.2664,space,3.6314,,495.2665,81,1,496.2622,496.2624,497.9467,space,1.6644,,0,9,9,9,1,25,125,,,,,,,,
,,659eb5c7f6628cdb16dcf1a7,65af5663db6f3bf0e8762321,2024-01-23_03h05.06.669,bars,2023.2.3,Win32,59.88023952,657b66ea316d21385b68909f,,,,,,,,,,,497.9469,498.944,,,499.4436,499.6936,,91,91,,,,,,,,,,,,,,,,bars/026.png,bars/mask001.png,,,,,,,,,,,,4,2,,,,,,,2,7,3,5,,,,,,,,,,,498.9441,499.4436,499.6936,503.7625,space,4.0638,,503.7626,56,6,504.7577,504.7578,507.5562,space,2.7756,,0,10,10,10,1,35,85,,,,,,,,
,,659eb5c7f6628cdb16dcf1a7,65af5663db6f3bf0e8762321,2024-01-23_03h05.06.669,bars,2023.2.3,Win32,59.88023952,657b66ea316d21385b68909f,,,,,,,,,,,507.5638,508.5554,,,509.0554,509.3049,,92,92,,,,,,,,,,,,,,,,bars/049.png,bars/mask001.png,,,,,,,,,,,,1,2,,,,,,,0,5,0,6,,,,,,,,,,,508.5555,509.0553,509.3049,515.356,space,6.0305,,515.356,68,23,516.3513,516.3514,519.435,space,3.064,,0,11,11,11,1,160,115,,,,,,,,
,,659eb5c7f6628cdb16dcf1a7,65af5663db6f3bf0e8762321,2024-01-23_03h05.06.669,bars,2023.2.3,Win32,59.88023952,657b66ea316d21385b68909f,,,,,,,,,,,519.4422,520.4325,,,520.932,521.1819,,165,165,,,,,,,,,,,,,,,,bars/011.png,bars/mask007.png,,,,,,,,,,,,1,1,,,,,,,0,3,1,2,,,,,,,,,,,520.4326,520.9318,521.1821,525.4808,space,4.2661,,525.481,5,80,526.4791,526.4793,530.027,space,3.5163,,0,12,12,12,1,160,85,,,,,,,,
,,659eb5c7f6628cdb16dcf1a7,65af5663db6f3bf0e8762321,2024-01-23_03h05.06.669,bars,2023.2.3,Win32,59.88023952,657b66ea316d21385b68909f,,,,,,,,,,,530.0326,531.0284,,,531.5265,531.776,,138,138,,,,,,,,,,,,,,,,bars/002.png,bars/mask002.png,,,,,,,,,,,,0,1,,,,,,,0,1,0,1,,,,,,,,,,,531.0285,531.5263,531.7761,536.6775,space,4.8809,,536.6775,8,53,537.6732,537.6734,538.6083,space,0.9154,,0,13,13,13,1,130,85,,,,,,,,
,,659eb5c7f6628cdb16dcf1a7,65af5663db6f3bf0e8762321,2024-01-23_03h05.06.669,bars,2023.2.3,Win32,59.88023952,657b66ea316d21385b68909f,,,,,,,,,,,538.6086,539.6078,,,540.1068,540.3547,,79,79,,,,,,,,,,,,,,,,bars/013.png,bars/mask003.png,,,,,,,,,,,,3,1,,,,,,,2,3,4,4,,,,,,,,,,,539.6078,540.1068,540.3548,543.753,space,3.3874,,543.7533,4,69,544.7519,544.752,545.7228,space,0.9506,,0,14,14,14,1,75,10,,,,,,,,
,,659eb5c7f6628cdb16dcf1a7,65af5663db6f3bf0e8762321,2024-01-23_03h05.06.669,bars,2023.2.3,Win32,59.88023952,657b66ea316d21385b68909f,,,,,,,,,,,545.7235,546.7192,,,547.2187,547.4673,,117,117,,,,,,,,,,,,,,,,bars/045.png,bars/mask003.png,,,,,,,,,,,,2,1,,,,,,,4,5,4,5,,,,,,,,,,,546.7192,547.2185,547.4675,549.2869,space,1.7993,,549.287,17,73,550.2826,550.2828,551.3325,space,1.0179,,0,15,15,15,1,100,10,,,,,,,,
,,659eb5c7f6628cdb16dcf1a7,65af5663db6f3bf0e8762321,2024-01-23_03h05.06.669,bars,2023.2.3,Win32,59.88023952,657b66ea316d21385b68909f,,,,,,,,,,,551.3331,552.335,,,552.8319,553.0808,,25,205,,,,,,,,,,,,,,,,bars/010.png,bars/mask001.png,,,,,,,,,,,,0,2,,,,,,,6,7,4,6,,,,,,,,,,,552.335,552.8318,553.081,559.8651,space,6.7639,,559.8652,40,30,560.8602,560.8603,563.4628,space,2.5823,,0,16,16,16,1,165,55,,,,,,,,
,,659eb5c7f6628cdb16dcf1a7,65af5663db6f3bf0e8762321,2024-01-23_03h05.06.669,bars,2023.2.3,Win32,59.88023952,657b66ea316d21385b68909f,,,,,,,,,,,563.4631,564.4579,,,564.9587,565.2074,,162,162,,,,,,,,,,,,,,,,bars/021.png,bars/mask001.png,,,,,,,,,,,,4,1,,,,,,,4,5,5,5,,,,,,,,,,,564.4579,564.9585,565.2074,569.6727,space,4.4466,,569.6728,7,88,570.6738,570.6738,571.6383,space,0.943,,0,17,17,17,1,155,70,,,,,,,,
,,659eb5c7f6628cdb16dcf1a7,65af5663db6f3bf0e8762321,2024-01-23_03h05.06.669,bars,2023.2.3,Win32,59.88023952,657b66ea316d21385b68909f,,,,,,,,,,,571.6388,572.6401,,,573.1364,573.3864,,69,69,,,,,,,,,,,,,,,,bars/019.png,bars/mask009.png,,,,,,,,,,,,1,1,,,,,,,6,3,5,3,,,,,,,,,,,572.6401,573.1364,573.3866,575.5557,space,2.1489,,575.5557,24,36,576.5514,576.5515,577.5554,space,0.9829,,0,18,18,18,1,45,105,,,,,,,,
,,659eb5c7f6628cdb16dcf1a7,65af5663db6f3bf0e8762321,2024-01-23_03h05.06.669,bars,2023.2.3,Win32,59.88023952,657b66ea316d21385b68909f,,,,,,,,,,,577.556,578.5534,,,579.0506,579.3037,,4,184,,,,,,,,,,,,,,,,bars/008.png,bars/mask007.png,,,,,,,,,,,,0,2,,,,,,,4,1,5,0,,,,,,,,,,,578.5534,579.0506,579.3037,583.8475,space,4.5145,,583.8476,74,4,584.8464,584.8465,585.6798,space,0.807,,0,19,19,19,1,110,0,,,,,,,,
,,659eb5c7f6628cdb16dcf1a7,65af5663db6f3bf0e8762321,2024-01-23_03h05.06.669,bars,2023.2.3,Win32,59.88023952,657b66ea316d21385b68909f,,,,,,,,,,,585.6806,586.6813,,,587.1791,587.4285,,3,3,,,,,,,,,,,,,,,,bars/012.png,bars/mask005.png,,,,,,,,,,,,2,2,,,,,,,2,3,2,3,,,,,,,,,,,586.6813,587.1789,587.4286,591.3457,space,3.9124,,591.3458,87,12,592.3428,592.343,593.5259,space,1.1517,,0,20,20,20,1,90,15,,,,,,,,
,,659eb5c7f6628cdb16dcf1a7,65af5663db6f3bf0e8762321,2024-01-23_03h05.06.669,bars,2023.2.3,Win32,59.88023952,657b66ea316d21385b68909f,,,,,,,,,,,593.5265,594.5248,,,595.0275,595.2746,,170,-10,,,,,,,,,,,,,,,,bars/039.png,bars/mask002.png,,,,,,,,,,,,3,1,,,,,,,4,5,4,4,,,,,,,,,,,594.5249,595.0275,595.2747,600.3714,space,5.092,,600.3715,5,65,601.371,601.3711,601.957,space,0.5661,,0,21,21,21,1,175,105,,,,,,,,
,,659eb5c7f6628cdb16dcf1a7,65af5663db6f3bf0e8762321,2024-01-23_03h05.06.669,bars,2023.2.3,Win32,59.88023952,657b66ea316d21385b68909f,,,,,,,,,,,601.9573,602.9536,,,603.4551,603.7032,,114,114,,,,,,,,,,,,,,,,bars/008.png,bars/mask007.png,,,,,,,,,,,,3,1,,,,,,,2,3,3,2,,,,,,,,,,,602.9538,603.4549,603.7033,605.7722,space,2.0488,,605.7722,4,66,606.7682,606.7683,607.3514,space,0.5515,,0,22,22,22,1,110,0,,,,,,,,
,,659eb5c7f6628cdb16dcf1a7,65af5663db6f3bf0e8762321,2024-01-23_03h05.06.669,bars,2023.2.3,Win32,59.88023952,657b66ea316d21385b68909f,,,,,,,,,,,607.3521,608.3522,,,608.8502,609.1001,,81,81,,,,,,,,,,,,,,,,bars/013.png,bars/mask001.png,,,,,,,,,,,,1,1,,,,,,,0,1,1,0,,,,,,,,,,,608.3523,608.8501,609.1002,610.2033,space,1.0827,,610.2034,6,71,611.1989,611.199,611.5698,space,0.3508,,0,23,23,23,1,75,10,,,,,,,,
,,659eb5c7f6628cdb16dcf1a7,65af5663db6f3bf0e8762321,2024-01-23_03h05.06.669,bars,2023.2.3,Win32,59.88023952,657b66ea316d21385b68909f,,,,,,,,,,,611.5703,612.5652,,,613.0647,613.3143,,85,85,,,,,,,,,,,,,,,,bars/021.png,bars/mask002.png,,,,,,,,,,,,1,2,,,,,,,0,0,0,1,,,,,,,,,,,612.5652,613.0645,613.3145,614.7479,space,1.4042,,614.748,70,15,615.7461,615.7462,616.4633,space,0.6921,,0,24,24,24,1,155,70,,,,,,,,
,,659eb5c7f6628cdb16dcf1a7,65af5663db6f3bf0e8762321,2024-01-23_03h05.06.669,bars,2023.2.3,Win32,59.88023952,657b66ea316d21385b68909f,,,,,,,,,,,616.4639,617.4621,,,617.9619,618.2117,,98,98,,,,,,,,,,,,,,,,bars/022.png,bars/mask000.png,,,,,,,,,,,,0,1,,,,,,,0,0,0,1,,,,,,,,,,,617.4622,617.9617,618.2118,621.2931,space,3.0606,,621.2932,3,78,622.2926,622.2928,623.4755,space,1.156,,0,25,25,25,1,95,20,,,,,,,,
,,659eb5c7f6628cdb16dcf1a7,65af5663db6f3bf0e8762321,2024-01-23_03h05.06.669,bars,2023.2.3,Win32,59.88023952,657b66ea316d21385b68909f,,,,,,,,,,,623.4765,624.4747,,,624.9748,625.2247,,110,110,,,,,,,,,,,,,,,,bars/015.png,bars/mask003.png,,,,,,,,,,,,1,1,,,,,,,0,0,1,0,,,,,,,,,,,624.4749,624.9748,625.2247,627.1279,space,1.8833,,627.128,0,50,628.1232,628.1233,628.9059,space,0.7534,,0,26,26,26,1,110,160,,,,,,,,
,,659eb5c7f6628cdb16dcf1a7,65af5663db6f3bf0e8762321,2024-01-23_03h05.06.669,bars,2023.2.3,Win32,59.88023952,657b66ea316d21385b68909f,,,,,,,,,,,628.9067,629.9051,,,630.405,630.6548,,23,23,,,,,,,,,,,,,,,,bars/003.png,bars/mask008.png,,,,,,,,,,,,1,1,,,,,,,0,2,1,2,,,,,,,,,,,629.9051,630.405,630.6549,633.8861,space,3.2034,,633.8862,2,63,634.8855,634.8856,635.69,space,0.784,,0,27,27,27,1,25,140,,,,,,,,
,,659eb5c7f6628cdb16dcf1a7,65af5663db6f3bf0e8762321,2024-01-23_03h05.06.669,bars,2023.2.3,Win32,59.88023952,657b66ea316d21385b68909f,,,,,,,,,,,635.6904,636.6848,,,637.1852,637.4343,,55,55,,,,,,,,,,,,,,,,bars/030.png,bars/mask002.png,,,,,,,,,,,,4,2,,,,,,,2,4,1,6,,,,,,,,,,,636.6849,637.1851,637.4344,640.833,space,3.369,,640.8332,85,10,641.8319,641.8321,643.1856,space,1.3336,,0,28,28,28,1,140,65,,,,,,,,
,,659eb5c7f6628cdb16dcf1a7,65af5663db6f3bf0e8762321,2024-01-23_03h05.06.669,bars,2023.2.3,Win32,59.88023952,657b66ea316d21385b68909f,,,,,,,,,,,643.1859,644.1806,,,644.6806,644.9302,,104,104,,,,,,,,,,,,,,,,bars/039.png,bars/mask002.png,,,,,,,,,,,,2,2,,,,,,,0,2,0,2,,,,,,,,,,,644.1807,644.6805,644.9302,648.0664,space,3.1164,,648.0664,71,1,649.0612,649.0614,649.7119,space,0.6181,,0,29,29,29,1,175,105,,,,,,,,
,,659eb5c7f6628cdb16dcf1a7,65af5663db6f3bf0e8762321,2024-01-23_03h05.06.669,bars,2023.2.3,Win32,59.88023952,657b66ea316d21385b68909f,,,,,,,,,,,649.7124,650.7131,,,651.2139,651.4616,,54,54,,,,,,,,,,,,,,,,bars/000.png,bars/mask008.png,,,,,,,,,,,,1,1,,,,,,,0,4,1,6,,,,,,,,,,,650.7131,651.2139,651.4617,653.4424,space,1.9502,,653.4425,14,89,654.4416,654.4417,654.4622,space,0.0007,,0,30,30,30,1,40,145,,,,,,,,
,,659eb5c7f6628cdb16dcf1a7,65af5663db6f3bf0e8762321,2024-01-23_03h05.06.669,bars,2023.2.3,Win32,59.88023952,657b66ea316d21385b68909f,,,,,,,,,,,654.4625,655.4575,,,655.9576,656.2074,,129,129,,,,,,,,,,,,,,,,bars/043.png,bars/mask005.png,,,,,,,,,,,,2,2,,,,,,,2,2,2,2,,,,,,,,,,,655.4575,655.9575,656.2074,658.1941,space,1.9665,,658.1942,81,1,659.1919,659.192,660.8888,space,1.6714,,0,31,31,31,1,30,130,,,,,,,,
,,659eb5c7f6628cdb16dcf1a7,65af5663db6f3bf0e8762321,2024-01-23_03h05.06.669,bars,2023.2.3,Win32,59.88023952,657b66ea316d21385b68909f,,,,,,,,,,,660.8894,661.8875,,,662.3875,662.637,,20,20,,,,,,,,,,,,,,,,bars/012.png,bars/mask007.png,,,,,,,,,,,,3,2,,,,,,,4,4,4,3,,,,,,,,,,,661.8876,662.3874,662.6372,665.6028,space,2.9406,,665.6029,70,5,666.6017,666.6018,667.5024,space,0.8806,,0,32,32,32,1,90,15,,,,,,,,
,,659eb5c7f6628cdb16dcf1a7,65af5663db6f3bf0e8762321,2024-01-23_03h05.06.669,bars,2023.2.3,Win32,59.88023952,657b66ea316d21385b68909f,,,,,,,,,,,667.5027,668.5004,,,669.0005,669.2505,,59,239,,,,,,,,,,,,,,,,bars/034.png,bars/mask007.png,,,,,,,,,,,,4,2,,,,,,,6,6,6,5,,,,,,,,,,,668.5005,669.0004,669.2506,672.5154,space,3.2408,,672.5155,66,6,673.5144,673.5145,674.381,space,0.8406,,0,33,33,33,1,125,65,,,,,,,,
,,659eb5c7f6628cdb16dcf1a7,65af5663db6f3bf0e8762321,2024-01-23_03h05.06.669,bars,2023.2.3,Win32,59.88023952,657b66ea316d21385b68909f,,,,,,,,,,,674.3817,675.38,,,675.8799,676.1298,,36,36,,,,,,,,,,,,,,,,bars/006.png,bars/mask009.png,,,,,,,,,,,,7,1,,,,,,,8,8,7,7,,,,,,,,,,,675.3801,675.8798,676.1299,678.7149,space,2.5651,,678.715,1,64,679.7112,679.7114,680.1609,space,0.4189,,0,34,34,34,1,35,100,,,,,,,,
,,659eb5c7f6628cdb16dcf1a7,65af5663db6f3bf0e8762321,2024-01-23_03h05.06.669,bars,2023.2.3,Win32,59.88023952,657b66ea316d21385b68909f,,,,,,,,,,,680.1618,681.1602,,,681.6601,681.9102,,119,119,,,,,,,,,,,,,,,,bars/025.png,bars/mask008.png,,,,,,,,,,,,3,1,,,,,,,6,10,6,10,,,,,,,,,,,681.1603,681.66,681.9103,683.9789,space,2.0491,,683.9789,14,79,684.9748,684.9748,685.0271,space,0.0324,,0,35,35,35,1,105,40,,,,,,,,
,,659eb5c7f6628cdb16dcf1a7,65af5663db6f3bf0e8762321,2024-01-23_03h05.06.669,bars,2023.2.3,Win32,59.88023952,657b66ea316d21385b68909f,,,,,,,,,,,685.0272,686.0241,,,686.5242,686.7768,,70,70,,,,,,,,,,,,,,,,bars/018.png,bars/mask006.png,,,,,,,,,,,,3,2,,,,,,,8,10,7,8,,,,,,,,,,,686.0242,686.524,686.7769,690.9262,space,4.1317,,690.9263,80,20,691.9208,691.9209,692.5211,space,0.5726,,0,36,36,36,1,150,90,,,,,,,,
,,659eb5c7f6628cdb16dcf1a7,65af5663db6f3bf0e8762321,2024-01-23_03h05.06.669,bars,2023.2.3,Win32,59.88023952,657b66ea316d21385b68909f,,,,,,,,,,,692.5216,693.5218,,,694.02,694.2698,,108,108,,,,,,,,,,,,,,,,bars/028.png,bars/mask008.png,,,,,,,,,,,,6,2,,,,,,,6,10,6,10,,,,,,,,,,,693.5218,694.0199,694.2699,697.3383,space,3.0483,,697.3383,63,12,698.3341,698.3342,698.9172,space,0.5583,,0,37,37,37,1,45,120,,,,,,,,
,,659eb5c7f6628cdb16dcf1a7,65af5663db6f3bf0e8762321,2024-01-23_03h05.06.669,bars,2023.2.3,Win32,59.88023952,657b66ea316d21385b68909f,,,,,,,,,,,698.9181,699.9169,,,700.42,700.6662,,117,117,,,,,,,,,,,,,,,,bars/004.png,bars/mask001.png,,,,,,,,,,,,7,2,,,,,,,8,10,7,10,,,,,,,,,,,699.917,700.4199,700.6663,706.463,space,5.7679,,706.4632,88,8,707.4624,707.4625,708.014,space,0.5319,,0,38,38,38,1,25,125,,,,,,,,
,,659eb5c7f6628cdb16dcf1a7,65af5663db6f3bf0e8762321,2024-01-23_03h05.06.669,bars,2023.2.3,Win32,59.88023952,657b66ea316d21385b68909f,,,,,,,,,,,708.0144,709.0115,,,709.5114,709.7611,,113,113,,,,,,,,,,,,,,,,bars/020.png,bars/mask004.png,,,,,,,,,,,,6,1,,,,,,,6,10,6,10,,,,,,,,,,,709.0116,709.5113,709.7612,711.51,space,1.7286,,711.5102,2,57,712.5095,712.5096,712.7767,space,0.2386,,0,39,39,39,1,115,170,,,,,,,,
,,659eb5c7f6628cdb16dcf1a7,65af5663db6f3bf0e8762321,2024-01-23_03h05.06.669,bars,2023.2.3,Win32,59.88023952,657b66ea316d21385b68909f,,,,,,,,,,,712.7773,713.7757,,,714.2764,714.525,,117,117,,,,,,,,,,,,,,,,bars/002.png,bars/mask009.png,,,,,,,,,,,,5,1,,,,,,,8,10,9,10,,,,,,,,,,,713.7757,714.2762,714.5252,719.3787,space,4.8335,0.0001,719.3788,13,32,720.3721,720.3723,721.0882,space,0.6954,,0,40,40,40,1,130,85,,,,,,,,
,,659eb5c7f6628cdb16dcf1a7,65af5663db6f3bf0e8762321,2024-01-23_03h05.06.669,bars,2023.2.3,Win32,59.88023952,657b66ea316d21385b68909f,,,,,,,,,,,721.0891,722.0874,,,722.5876,722.8381,,121,121,,,,,,,,,,,,,,,,bars/040.png,bars/mask009.png,,,,,,,,,,,,2,1,,,,,,,6,8,5,7,,,,,,,,,,,722.0874,722.5875,722.8382,725.2738,space,2.4163,,725.2739,19,64,726.2684,726.2685,726.9513,space,0.6513,,0,41,41,41,1,140,5,,,,,,,,
,,659eb5c7f6628cdb16dcf1a7,65af5663db6f3bf0e8762321,2024-01-23_03h05.06.669,bars,2023.2.3,Win32,59.88023952,657b66ea316d21385b68909f,,,,,,,,,,,726.9521,727.9514,,,728.4504,728.7009,,18,198,,,,,,,,,,,,,,,,bars/003.png,bars/mask007.png,,,,,,,,,,,,7,1,,,,,,,8,10,9,8,,,,,,,,,,,727.9516,728.4504,728.7009,733.9818,space,5.2592,,733.9819,7,58,734.9803,734.9803,735.2641,space,0.2524,,0,42,42,42,1,25,140,,,,,,,,
,,659eb5c7f6628cdb16dcf1a7,65af5663db6f3bf0e8762321,2024-01-23_03h05.06.669,bars,2023.2.3,Win32,59.88023952,657b66ea316d21385b68909f,,,,,,,,,,,735.2647,736.2633,,,736.7626,737.0132,,148,148,,,,,,,,,,,,,,,,bars/038.png,bars/mask000.png,,,,,,,,,,,,3,1,,,,,,,10,8,8,8,,,,,,,,,,,736.2633,736.7625,737.0132,738.1655,space,1.1327,,738.1655,17,78,739.1614,739.1614,739.7447,space,0.5525,,0,43,43,43,1,165,70,,,,,,,,
,,659eb5c7f6628cdb16dcf1a7,65af5663db6f3bf0e8762321,2024-01-23_03h05.06.669,bars,2023.2.3,Win32,59.88023952,657b66ea316d21385b68909f,,,,,,,,,,,739.7454,740.7441,,,741.2436,741.4939,,165,165,,,,,,,,,,,,,,,,bars/044.png,bars/mask001.png,,,,,,,,,,,,5,2,,,,,,,10,6,9,8,,,,,,,,,,,740.7442,741.2435,741.494,742.5094,space,0.9843,,742.5095,90,10,743.5091,743.5093,743.7929,space,0.252,,0,44,44,44,1,75,155,,,,,,,,
,,659eb5c7f6628cdb16dcf1a7,65af5663db6f3bf0e8762321,2024-01-23_03h05.06.669,bars,2023.2.3,Win32,59.88023952,657b66ea316d21385b68909f,,,,,,,,,,,743.7936,744.7918,,,745.292,745.5413,,166,-14,,,,,,,,,,,,,,,,bars/048.png,bars/mask000.png,,,,,,,,,,,,5,2,,,,,,,10,4,10,7,,,,,,,,,,,744.7918,745.2919,745.5414,749.2234,space,3.6531,,749.2234,64,9,750.222,750.2222,750.772,space,0.5282,,0,45,45,45,1,50,175,,,,,,,,
,,659eb5c7f6628cdb16dcf1a7,65af5663db6f3bf0e8762321,2024-01-23_03h05.06.669,bars,2023.2.3,Win32,59.88023952,657b66ea316d21385b68909f,,,,,,,,,,,750.7729,751.7712,,,752.2712,752.5211,,120,120,,,,,,,,,,,,,,,,bars/049.png,bars/mask000.png,,,,,,,,,,,,1,2,,,,,,,8,2,9,1,,,,,,,,,,,751.7713,752.271,752.5211,755.7224,space,3.1814,,755.7224,40,5,756.7194,756.7196,756.7393,space,0.0005,,0,46,46,46,1,160,115,,,,,,,,
,,659eb5c7f6628cdb16dcf1a7,65af5663db6f3bf0e8762321,2024-01-23_03h05.06.669,bars,2023.2.3,Win32,59.88023952,657b66ea316d21385b68909f,,,,,,,,,,,756.7395,757.7348,,,758.2344,758.4842,,167,-13,,,,,,,,,,,,,,,,bars/039.png,bars/mask008.png,,,,,,,,,,,,5,1,,,,,,,6,4,7,5,,,,,,,,,,,757.7349,758.2343,758.4844,761.8488,space,3.3326,,761.8489,8,62,762.848,762.8481,763.1826,space,0.3052,,0,47,47,47,1,175,105,,,,,,,,
,,659eb5c7f6628cdb16dcf1a7,65af5663db6f3bf0e8762321,2024-01-23_03h05.06.669,bars,2023.2.3,Win32,59.88023952,657b66ea316d21385b68909f,,,,,,,,,,,763.1831,764.1806,,,764.6809,764.9307,,42,222,,,,,,,,,,,,,,,,bars/048.png,bars/mask006.png,,,,,,,,,,,,1,1,,,,,,,4,2,1,2,,,,,,,,,,,764.1806,764.6808,764.9308,769.0629,space,4.1017,,769.0631,8,47,770.061,770.0611,770.4117,space,0.3182,,0,48,48,48,1,50,175,,,,,,,,
,,659eb5c7f6628cdb16dcf1a7,65af5663db6f3bf0e8762321,2024-01-23_03h05.06.669,bars,2023.2.3,Win32,59.88023952,657b66ea316d21385b68909f,,,,,,,,,,,770.4123,771.4104,,,771.9105,772.1598,,73,73,,,,,,,,,,,,,,,,bars/046.png,bars/mask000.png,,,,,,,,,,,,0,2,,,,,,,6,0,5,0,,,,,,,,,,,771.4105,771.9105,772.1598,774.4459,space,2.2816,,774.446,82,12,775.442,775.4421,778.9061,space,3.4441,,0,49,49,49,1,155,85,,,,,,,,
,,659eb5c7f6628cdb16dcf1a7,65af5663db6f3bf0e8762321,2024-01-23_03h05.06.669,bars,2023.2.3,Win32,59.88023952,657b66ea316d21385b68909f,,,,,,,,,,,,,,,,,,,,,,,,,,,,,,,,,,,,,,,,,,,,,,,,,,,,,,,,,,,,,,,,,,,,,,,,,,,,,,,,,,,,,,,,,,,,,778.9125,839.9229,0,0,0,3,1,sequence_tables/blk021.csv
,,659eb5c7f6628cdb16dcf1a7,65af5663db6f3bf0e8762321,2024-01-23_03h05.06.669,bars,2023.2.3,Win32,59.88023952,657b66ea316d21385b68909f,,,,,,,,,,,841.8342,842.8291,,,843.3291,843.5792,,119,119,,,,,,,,,,,,,,,,bars/028.png,bars/mask003.png,,,,,,,,,,,,8,2,,,,,,,2,7,4,8,,,,,,839.933,841.8305,space,1.8933,,842.8292,843.329,843.5793,846.8454,space,3.2501,0.0002,846.8454,74,1,847.8395,847.8396,847.8482,,,,0,0,0,0,1,45,120,,,,,,,,
,,659eb5c7f6628cdb16dcf1a7,65af5663db6f3bf0e8762321,2024-01-23_03h05.06.669,bars,2023.2.3,Win32,59.88023952,657b66ea316d21385b68909f,,,,,,,,,,,847.8484,848.8385,,,849.3387,849.5883,,158,-22,,,,,,,,,,,,,,,,bars/044.png,bars/mask000.png,,,,,,,,,,,,5,2,,,,,,,4,5,3,5,,,,,,,,,,,848.8385,849.3387,849.5884,852.2417,space,2.633,,852.2417,83,3,853.2364,853.2365,853.2453,,,,0,1,1,1,1,75,155,,,,,,,,
,,659eb5c7f6628cdb16dcf1a7,65af5663db6f3bf0e8762321,2024-01-23_03h05.06.669,bars,2023.2.3,Win32,59.88023952,657b66ea316d21385b68909f,,,,,,,,,,,853.2454,854.2358,,,854.7355,854.9857,,112,112,,,,,,,,,,,,,,,,bars/020.png,bars/mask003.png,,,,,,,,,,,,6,1,,,,,,,6,7,7,8,,,,,,,,,,,854.236,854.7355,854.9857,857.6711,space,2.6656,,857.6712,3,58,858.667,858.6671,858.6757,,,,0,2,2,2,1,115,170,,,,,,,,
,,659eb5c7f6628cdb16dcf1a7,65af5663db6f3bf0e8762321,2024-01-23_03h05.06.669,bars,2023.2.3,Win32,59.88023952,657b66ea316d21385b68909f,,,,,,,,,,,858.6758,859.6661,,,860.1659,860.4158,,65,65,,,,,,,,,,,,,,,,bars/026.png,bars/mask002.png,,,,,,,,,,,,2,2,,,,,,,8,5,7,5,,,,,,,,,,,859.6662,860.1657,860.4159,864.7636,space,4.3191,,864.7636,30,20,865.7667,865.7667,865.7779,,,,0,3,3,3,1,35,85,,,,,,,,
,,659eb5c7f6628cdb16dcf1a7,65af5663db6f3bf0e8762321,2024-01-23_03h05.06.669,bars,2023.2.3,Win32,59.88023952,657b66ea316d21385b68909f,,,,,,,,,,,865.778,866.7793,,,867.2786,867.5287,,101,101,,,,,,,,,,,,,,,,bars/002.png,bars/mask009.png,,,,,,,,,,,,1,2,,,,,,,6,3,6,2,,,,,,,,,,,866.7793,867.2786,867.5288,870.2273,space,2.6762,,870.2274,29,16,871.2262,871.2263,871.2318,,,,0,4,4,4,1,130,85,,,,,,,,
,,659eb5c7f6628cdb16dcf1a7,65af5663db6f3bf0e8762321,2024-01-23_03h05.06.669,bars,2023.2.3,Win32,59.88023952,657b66ea316d21385b68909f,,,,,,,,,,,871.2319,872.2255,,,872.7259,872.9765,,15,195,,,,,,,,,,,,,,,,bars/036.png,bars/mask009.png,,,,,,,,,,,,5,2,,,,,,,4,5,4,6,,,,,,,,,,,872.2256,872.7257,872.9765,875.8281,space,2.8323,,875.8281,50,5,876.8235,876.8235,876.8291,,,,0,5,5,5,1,145,20,,,,,,,,
,,659eb5c7f6628cdb16dcf1a7,65af5663db6f3bf0e8762321,2024-01-23_03h05.06.669,bars,2023.2.3,Win32,59.88023952,657b66ea316d21385b68909f,,,,,,,,,,,876.8292,877.8228,,,878.3254,878.5741,,8,8,,,,,,,,,,,,,,,,bars/013.png,bars/mask007.png,,,,,,,,,,,,3,2,,,,,,,2,3,3,3,,,,,,,,,,,877.8229,878.3254,878.5742,880.9426,space,2.35,,880.9426,67,2,881.9366,881.9366,881.9375,,,,0,6,6,6,1,75,10,,,,,,,,
,,659eb5c7f6628cdb16dcf1a7,65af5663db6f3bf0e8762321,2024-01-23_03h05.06.669,bars,2023.2.3,Win32,59.88023952,657b66ea316d21385b68909f,,,,,,,,,,,881.9381,882.9364,,,883.4364,883.6861,,107,107,,,,,,,,,,,,,,,,bars/014.png,bars/mask002.png,,,,,,,,,,,,1,1,,,,,,,4,1,6,2,,,,,,,,,,,882.9364,883.4363,883.6862,885.9558,space,2.2493,,885.9559,27,73,886.9513,886.9515,886.9612,,,,0,7,7,7,1,80,0,,,,,,,,
,,659eb5c7f6628cdb16dcf1a7,65af5663db6f3bf0e8762321,2024-01-23_03h05.06.669,bars,2023.2.3,Win32,59.88023952,657b66ea316d21385b68909f,,,,,,,,,,,886.9612,887.9504,,,888.4503,888.6998,,101,101,,,,,,,,,,,,,,,,bars/022.png,bars/mask005.png,,,,,,,,,,,,4,1,,,,,,,6,3,5,4,,,,,,,,,,,887.9505,888.4502,888.6998,892.3482,space,3.6279,,892.3483,6,81,893.3473,893.3473,893.3553,,,,0,8,8,8,1,95,20,,,,,,,,
,,659eb5c7f6628cdb16dcf1a7,65af5663db6f3bf0e8762321,2024-01-23_03h05.06.669,bars,2023.2.3,Win32,59.88023952,657b66ea316d21385b68909f,,,,,,,,,,,893.3555,894.3472,,,894.8475,895.0968,,24,204,,,,,,,,,,,,,,,,bars/047.png,bars/mask007.png,,,,,,,,,,,,5,1,,,,,,,8,5,7,5,,,,,,,,,,,894.3474,894.8474,895.0969,899.1279,space,4.0042,,899.1281,9,46,900.1273,900.1274,900.1382,,,,0,9,9,9,1,15,70,,,,,,,,
,,659eb5c7f6628cdb16dcf1a7,65af5663db6f3bf0e8762321,2024-01-23_03h05.06.669,bars,2023.2.3,Win32,59.88023952,657b66ea316d21385b68909f,,,,,,,,,,,900.1384,901.1267,,,901.6266,901.8764,,12,192,,,,,,,,,,,,,,,,bars/014.png,bars/mask001.png,,,,,,,,,,,,2,2,,,,,,,10,3,10,4,,,,,,,,,,,901.1268,901.6266,901.8766,905.0413,space,3.1335,,905.0413,68,12,906.0407,906.0408,906.0511,,,,0,10,10,10,1,80,0,,,,,,,,
,,659eb5c7f6628cdb16dcf1a7,65af5663db6f3bf0e8762321,2024-01-23_03h05.06.669,bars,2023.2.3,Win32,59.88023952,657b66ea316d21385b68909f,,,,,,,,,,,906.0512,907.0401,,,907.5403,907.7895,,164,-16,,,,,,,,,,,,,,,,bars/021.png,bars/mask006.png,,,,,,,,,,,,7,1,,,,,,,10,1,10,4,,,,,,,,,,,907.0402,907.5403,907.7896,912.4703,space,4.6642,,912.4703,9,86,913.4698,913.4698,913.4787,,,,0,11,11,11,1,155,70,,,,,,,,
,,659eb5c7f6628cdb16dcf1a7,65af5663db6f3bf0e8762321,2024-01-23_03h05.06.669,bars,2023.2.3,Win32,59.88023952,657b66ea316d21385b68909f,,,,,,,,,,,913.4788,914.4711,,,914.9705,915.2189,,31,31,,,,,,,,,,,,,,,,bars/006.png,bars/mask001.png,,,,,,,,,,,,9,1,,,,,,,10,3,10,3,,,,,,,,,,,914.4712,914.9703,915.2189,919.1341,space,3.9095,,919.1342,4,69,920.1331,920.1331,920.141,,,,0,12,12,12,1,35,100,,,,,,,,
,,659eb5c7f6628cdb16dcf1a7,65af5663db6f3bf0e8762321,2024-01-23_03h05.06.669,bars,2023.2.3,Win32,59.88023952,657b66ea316d21385b68909f,,,,,,,,,,,920.1411,921.1324,,,921.6321,921.8819,,38,38,,,,,,,,,,,,,,,,bars/025.png,bars/mask001.png,,,,,,,,,,,,3,2,,,,,,,8,5,6,3,,,,,,,,,,,921.1325,921.6321,921.8819,926.263,space,4.3757,,926.263,67,2,927.2623,927.2624,927.2722,,,,0,13,13,13,1,105,40,,,,,,,,
,,659eb5c7f6628cdb16dcf1a7,65af5663db6f3bf0e8762321,2024-01-23_03h05.06.669,bars,2023.2.3,Win32,59.88023952,657b66ea316d21385b68909f,,,,,,,,,,,927.2723,928.2614,,,928.7615,929.0115,,65,65,,,,,,,,,,,,,,,,bars/042.png,bars/mask009.png,,,,,,,,,,,,5,2,,,,,,,10,7,10,8,,,,,,,,,,,928.2614,928.7614,929.0115,932.4448,space,3.4156,,932.4448,80,10,933.4419,933.442,933.4482,,,,0,14,14,14,1,145,75,,,,,,,,
,,659eb5c7f6628cdb16dcf1a7,65af5663db6f3bf0e8762321,2024-01-23_03h05.06.669,bars,2023.2.3,Win32,59.88023952,657b66ea316d21385b68909f,,,,,,,,,,,933.4484,934.4417,,,934.9433,935.1911,,10,10,,,,,,,,,,,,,,,,bars/024.png,bars/mask005.png,,,,,,,,,,,,1,2,,,,,,,8,5,7,4,,,,,,,,,,,934.4418,934.9431,935.1911,937.0569,space,1.8542,,937.057,70,20,938.0561,938.0561,938.0569,,,,0,15,15,15,1,120,170,,,,,,,,
,,659eb5c7f6628cdb16dcf1a7,65af5663db6f3bf0e8762321,2024-01-23_03h05.06.669,bars,2023.2.3,Win32,59.88023952,657b66ea316d21385b68909f,,,,,,,,,,,938.0574,939.0558,,,939.5552,939.8054,,99,99,,,,,,,,,,,,,,,,bars/013.png,bars/mask008.png,,,,,,,,,,,,1,1,,,,,,,6,3,5,5,,,,,,,,,,,939.0558,939.5552,939.8054,941.2879,space,1.466,,941.2879,24,89,942.2873,942.2874,942.2898,,,,0,16,16,16,1,75,10,,,,,,,,
,,659eb5c7f6628cdb16dcf1a7,65af5663db6f3bf0e8762321,2024-01-23_03h05.06.669,bars,2023.2.3,Win32,59.88023952,657b66ea316d21385b68909f,,,,,,,,,,,942.29,943.2862,,,943.786,944.0364,,117,-63,,,,,,,,,,,,,,,,bars/015.png,bars/mask001.png,,,,,,,,,,,,6,1,,,,,,,8,5,8,5,,,,,,,,,,,943.2862,943.786,944.0364,949.5164,space,5.4731,,949.5165,7,43,950.5158,950.5158,950.5213,,,,0,17,17,17,1,110,160,,,,,,,,
,,659eb5c7f6628cdb16dcf1a7,65af5663db6f3bf0e8762321,2024-01-23_03h05.06.669,bars,2023.2.3,Win32,59.88023952,657b66ea316d21385b68909f,,,,,,,,,,,950.5215,951.5156,,,952.0148,952.2652,,176,-4,,,,,,,,,,,,,,,,bars/042.png,bars/mask006.png,,,,,,,,,,,,0,1,,,,,,,6,3,7,3,,,,,,,,,,,951.5156,952.0148,952.2652,955.9634,space,3.6828,,955.9635,31,79,956.9629,956.963,956.9718,,,,0,18,18,18,1,145,75,,,,,,,,
,,659eb5c7f6628cdb16dcf1a7,65af5663db6f3bf0e8762321,2024-01-23_03h05.06.669,bars,2023.2.3,Win32,59.88023952,657b66ea316d21385b68909f,,,,,,,,,,,956.9719,957.962,,,958.4617,958.7115,,10,10,,,,,,,,,,,,,,,,bars/016.png,bars/mask009.png,,,,,,,,,,,,0,2,,,,,,,8,1,9,1,,,,,,,,,,,957.962,958.4617,958.7115,964.3252,space,5.5998,,964.3252,30,25,965.3248,965.3248,965.3349,,,,0,19,19,19,1,40,165,,,,,,,,
,,659eb5c7f6628cdb16dcf1a7,65af5663db6f3bf0e8762321,2024-01-23_03h05.06.669,bars,2023.2.3,Win32,59.88023952,657b66ea316d21385b68909f,,,,,,,,,,,965.335,966.3243,,,966.8237,967.0738,,135,135,,,,,,,,,,,,,,,,bars/043.png,bars/mask004.png,,,,,,,,,,,,0,2,,,,,,,10,0,10,0,,,,,,,,,,,966.3244,966.8237,967.0738,971.4043,space,4.3147,,971.4044,75,5,972.404,972.404,972.4124,,,,0,20,20,20,1,30,130,,,,,,,,
,,659eb5c7f6628cdb16dcf1a7,65af5663db6f3bf0e8762321,2024-01-23_03h05.06.669,bars,2023.2.3,Win32,59.88023952,657b66ea316d21385b68909f,,,,,,,,,,,972.4126,973.4034,,,973.9033,974.153,,153,153,,,,,,,,,,,,,,,,bars/043.png,bars/mask002.png,,,,,,,,,,,,0,2,,,,,,,8,0,6,0,,,,,,,,,,,973.4035,973.9032,974.153,975.8859,space,1.7216,,975.8859,57,23,976.8847,976.8847,976.8853,,,,0,21,21,21,1,30,130,,,,,,,,
,,659eb5c7f6628cdb16dcf1a7,65af5663db6f3bf0e8762321,2024-01-23_03h05.06.669,bars,2023.2.3,Win32,59.88023952,657b66ea316d21385b68909f,,,,,,,,,,,976.8856,977.885,,,978.3843,978.6336,,158,-22,,,,,,,,,,,,,,,,bars/045.png,bars/mask004.png,,,,,,,,,,,,0,2,,,,,,,6,0,7,0,,,,,,,,,,,977.885,978.3842,978.6337,981.6822,space,3.0391,,981.6822,58,32,982.6812,982.6812,982.6881,,,,0,22,22,22,1,100,10,,,,,,,,
,,659eb5c7f6628cdb16dcf1a7,65af5663db6f3bf0e8762321,2024-01-23_03h05.06.669,bars,2023.2.3,Win32,59.88023952,657b66ea316d21385b68909f,,,,,,,,,,,982.6882,983.6813,,,984.1811,984.4308,,109,109,,,,,,,,,,,,,,,,bars/021.png,bars/mask001.png,,,,,,,,,,,,0,2,,,,,,,4,2,2,1,,,,,,,,,,,983.6813,984.181,984.4308,988.9452,space,4.5071,,988.9453,46,39,989.9446,989.9447,989.9537,,,,0,23,23,23,1,155,70,,,,,,,,
,,659eb5c7f6628cdb16dcf1a7,65af5663db6f3bf0e8762321,2024-01-23_03h05.06.669,bars,2023.2.3,Win32,59.88023952,657b66ea316d21385b68909f,,,,,,,,,,,989.9539,990.9441,,,991.4437,991.6934,,87,87,,,,,,,,,,,,,,,,bars/018.png,bars/mask008.png,,,,,,,,,,,,4,2,,,,,,,2,4,0,4,,,,,,,,,,,990.9442,991.4437,991.6934,993.3593,space,1.6538,,993.3593,63,3,994.3588,994.3589,994.3604,,,,0,24,24,24,1,150,90,,,,,,,,
,,659eb5c7f6628cdb16dcf1a7,65af5663db6f3bf0e8762321,2024-01-23_03h05.06.669,bars,2023.2.3,Win32,59.88023952,657b66ea316d21385b68909f,,,,,,,,,,,994.3609,995.3583,,,995.8579,996.1077,,12,12,,,,,,,,,,,,,,,,bars/048.png,bars/mask004.png,,,,,,,,,,,,3,2,,,,,,,0,6,0,6,,,,,,,,,,,995.3584,995.8579,996.1078,998.4075,space,2.294,,998.4076,38,17,999.4059,999.406,999.4147,,,,0,25,25,25,1,50,175,,,,,,,,
,,659eb5c7f6628cdb16dcf1a7,65af5663db6f3bf0e8762321,2024-01-23_03h05.06.669,bars,2023.2.3,Win32,59.88023952,657b66ea316d21385b68909f,,,,,,,,,,,999.4148,1000.4052,,,1000.905,1001.1543,,168,-12,,,,,,,,,,,,,,,,bars/000.png,bars/mask006.png,,,,,,,,,,,,2,2,,,,,,,2,8,3,8,,,,,,,,,,,1000.4052,1000.9049,1001.1543,1006.0854,space,4.9142,,1006.0855,52,23,1007.0849,1007.085,1007.094,,,,0,26,26,26,1,40,145,,,,,,,,
,,659eb5c7f6628cdb16dcf1a7,65af5663db6f3bf0e8762321,2024-01-23_03h05.06.669,bars,2023.2.3,Win32,59.88023952,657b66ea316d21385b68909f,,,,,,,,,,,1007.0941,1008.0845,,,1008.5838,1008.8337,,157,157,,,,,,,,,,,,,,,,bars/011.png,bars/mask001.png,,,,,,,,,,,,0,1,,,,,,,0,6,0,6,,,,,,,,,,,1008.0845,1008.5838,1008.8337,1010.9996,space,2.1574,,1010.9996,3,72,1011.9985,1011.9986,1012.0079,,,,0,27,27,27,1,160,85,,,,,,,,
,,659eb5c7f6628cdb16dcf1a7,65af5663db6f3bf0e8762321,2024-01-23_03h05.06.669,bars,2023.2.3,Win32,59.88023952,657b66ea316d21385b68909f,,,,,,,,,,,1012.0081,1012.998,,,1013.4983,1013.748,,65,65,,,,,,,,,,,,,,,,bars/042.png,bars/mask005.png,,,,,,,,,,,,5,2,,,,,,,0,8,0,8,,,,,,,,,,,1012.998,1013.4983,1013.748,1014.6814,space,0.9217,,1014.6816,80,10,1015.6803,1015.6803,1015.6835,,,,0,28,28,28,1,145,75,,,,,,,,
,,659eb5c7f6628cdb16dcf1a7,65af5663db6f3bf0e8762321,2024-01-23_03h05.06.669,bars,2023.2.3,Win32,59.88023952,657b66ea316d21385b68909f,,,,,,,,,,,1015.6836,1016.6797,,,1017.1794,1017.4291,,75,75,,,,,,,,,,,,,,,,bars/018.png,bars/mask008.png,,,,,,,,,,,,4,2,,,,,,,2,6,2,7,,,,,,,,,,,1016.6797,1017.1792,1017.4291,1020.6439,space,3.1985,,1020.6439,75,15,1021.6432,1021.6432,1021.6501,,,,0,29,29,29,1,150,90,,,,,,,,
,,659eb5c7f6628cdb16dcf1a7,65af5663db6f3bf0e8762321,2024-01-23_03h05.06.669,bars,2023.2.3,Win32,59.88023952,657b66ea316d21385b68909f,,,,,,,,,,,1021.6502,1022.6432,,,1023.1428,1023.3927,,30,30,,,,,,,,,,,,,,,,bars/023.png,bars/mask002.png,,,,,,,,,,,,0,1,,,,,,,0,8,0,10,,,,,,,,,,,1022.6433,1023.1427,1023.3927,1027.9234,space,4.5148,,1027.9235,10,85,1028.9228,1028.923,1028.9318,,,,0,30,30,30,1,20,115,,,,,,,,
,,659eb5c7f6628cdb16dcf1a7,65af5663db6f3bf0e8762321,2024-01-23_03h05.06.669,bars,2023.2.3,Win32,59.88023952,657b66ea316d21385b68909f,,,,,,,,,,,1028.9318,1029.9223,,,1030.4215,1030.6716,,12,12,,,,,,,,,,,,,,,,bars/045.png,bars/mask005.png,,,,,,,,,,,,6,2,,,,,,,0,6,0,6,,,,,,,,,,,1029.9223,1030.4215,1030.6716,1032.7044,space,2.0162,,1032.7046,88,2,1033.7034,1033.7034,1033.7121,,,,0,31,31,31,1,100,10,,,,,,,,
,,659eb5c7f6628cdb16dcf1a7,65af5663db6f3bf0e8762321,2024-01-23_03h05.06.669,bars,2023.2.3,Win32,59.88023952,657b66ea316d21385b68909f,,,,,,,,,,,1033.7122,1034.7032,,,1035.2026,1035.4523,,167,-13,,,,,,,,,,,,,,,,bars/033.png,bars/mask008.png,,,,,,,,,,,,4,2,,,,,,,2,8,3,7,,,,,,,,,,,1034.7032,1035.2026,1035.4524,1038.5525,space,3.0947,,1038.5526,38,12,1039.5499,1039.55,1039.5564,,,,0,32,32,32,1,25,155,,,,,,,,
,,659eb5c7f6628cdb16dcf1a7,65af5663db6f3bf0e8762321,2024-01-23_03h05.06.669,bars,2023.2.3,Win32,59.88023952,657b66ea316d21385b68909f,,,,,,,,,,,1039.5566,1040.55,,,1041.0495,1041.2991,,144,144,,,,,,,,,,,,,,,,bars/017.png,bars/mask003.png,,,,,,,,,,,,2,1,,,,,,,4,10,2,10,,,,,,,,,,,1040.5501,1041.0495,1041.2991,1043.2482,space,1.9335,,1043.2483,1,81,1044.2478,1044.2479,1044.2547,,,,0,33,33,33,1,145,45,,,,,,,,
,,659eb5c7f6628cdb16dcf1a7,65af5663db6f3bf0e8762321,2024-01-23_03h05.06.669,bars,2023.2.3,Win32,59.88023952,657b66ea316d21385b68909f,,,,,,,,,,,1044.2548,1045.2467,,,1045.7472,1045.9968,,102,102,,,,,,,,,,,,,,,,bars/014.png,bars/mask000.png,,,,,,,,,,,,2,1,,,,,,,6,10,7,8,,,,,,,,,,,1045.2469,1045.7471,1045.9969,1048.2456,space,2.2315,,1048.2457,22,78,1049.2447,1049.2447,1049.2514,,,,0,34,34,34,1,80,0,,,,,,,,
,,659eb5c7f6628cdb16dcf1a7,65af5663db6f3bf0e8762321,2024-01-23_03h05.06.669,bars,2023.2.3,Win32,59.88023952,657b66ea316d21385b68909f,,,,,,,,,,,1049.2515,1050.2448,,,1050.7438,1050.9941,,10,190,,,,,,,,,,,,,,,,bars/046.png,bars/mask005.png,,,,,,,,,,,,0,1,,,,,,,8,8,9,9,,,,,,,,,,,1050.2449,1050.7438,1050.9942,1053.8927,space,2.8829,,1053.8927,35,75,1054.8921,1054.8923,1054.9012,,,,0,35,35,35,1,155,85,,,,,,,,
,,659eb5c7f6628cdb16dcf1a7,65af5663db6f3bf0e8762321,2024-01-23_03h05.06.669,bars,2023.2.3,Win32,59.88023952,657b66ea316d21385b68909f,,,,,,,,,,,1054.9014,1055.8914,,,1056.3906,1056.6409,,64,64,,,,,,,,,,,,,,,,bars/027.png,bars/mask001.png,,,,,,,,,,,,5,2,,,,,,,6,10,7,10,,,,,,,,,,,1055.8914,1056.3906,1056.6409,1058.3896,space,1.7421,,1058.3897,46,14,1059.3904,1059.3904,1059.3968,,,,0,36,36,36,1,110,50,,,,,,,,
,,659eb5c7f6628cdb16dcf1a7,65af5663db6f3bf0e8762321,2024-01-23_03h05.06.669,bars,2023.2.3,Win32,59.88023952,657b66ea316d21385b68909f,,,,,,,,,,,1059.3969,1060.3886,,,1060.8882,1061.138,,72,72,,,,,,,,,,,,,,,,bars/001.png,bars/mask004.png,,,,,,,,,,,,5,2,,,,,,,8,8,9,8,,,,,,,,,,,1060.3886,1060.8882,1061.138,1065.719,space,4.5685,,1065.719,58,13,1066.7187,1066.7187,1066.7284,,,,0,37,37,37,1,130,85,,,,,,,,
,,659eb5c7f6628cdb16dcf1a7,65af5663db6f3bf0e8762321,2024-01-23_03h05.06.669,bars,2023.2.3,Win32,59.88023952,657b66ea316d21385b68909f,,,,,,,,,,,1066.7286,1067.7178,,,1068.2176,1068.4677,,112,112,,,,,,,,,,,,,,,,bars/006.png,bars/mask007.png,,,,,,,,,,,,6,2,,,,,,,10,10,10,10,,,,,,,,,,,1067.7178,1068.2175,1068.4677,1070.6833,space,2.1976,,1070.6835,77,12,1071.683,1071.683,1071.6934,,,,0,38,38,38,1,35,100,,,,,,,,
,,659eb5c7f6628cdb16dcf1a7,65af5663db6f3bf0e8762321,2024-01-23_03h05.06.669,bars,2023.2.3,Win32,59.88023952,657b66ea316d21385b68909f,,,,,,,,,,,1071.6935,1072.6815,,,1073.1814,1073.4316,,98,98,,,,,,,,,,,,,,,,bars/002.png,bars/mask005.png,,,,,,,,,,,,6,2,,,,,,,10,10,10,10,,,,,,,,,,,1072.6815,1073.1814,1073.4317,1076.9464,space,3.5005,,1076.9466,32,13,1077.9456,1077.9456,1077.9513,,,,0,39,39,39,1,130,85,,,,,,,,
,,659eb5c7f6628cdb16dcf1a7,65af5663db6f3bf0e8762321,2024-01-23_03h05.06.669,bars,2023.2.3,Win32,59.88023952,657b66ea316d21385b68909f,,,,,,,,,,,1077.9514,1078.9451,,,1079.4453,1079.6947,,178,178,,,,,,,,,,,,,,,,bars/020.png,bars/mask000.png,,,,,,,,,,,,5,2,,,,,,,8,8,7,7,,,,,,,,,,,1078.9451,1079.4451,1079.6947,1085.1419,space,5.432,,1085.1419,63,8,1086.1413,1086.1414,1086.1501,,,,0,40,40,40,1,115,170,,,,,,,,
,,659eb5c7f6628cdb16dcf1a7,65af5663db6f3bf0e8762321,2024-01-23_03h05.06.669,bars,2023.2.3,Win32,59.88023952,657b66ea316d21385b68909f,,,,,,,,,,,1086.1503,1087.1416,,,1087.6404,1087.8903,,170,-10,,,,,,,,,,,,,,,,bars/037.png,bars/mask007.png,,,,,,,,,,,,3,1,,,,,,,10,6,10,5,,,,,,,,,,,1087.1417,1087.6404,1087.8903,1091.5555,space,3.6567,,1091.5555,20,65,1092.5544,1092.5545,1092.5644,,,,0,41,41,41,1,150,105,,,,,,,,
,,659eb5c7f6628cdb16dcf1a7,65af5663db6f3bf0e8762321,2024-01-23_03h05.06.669,bars,2023.2.3,Win32,59.88023952,657b66ea316d21385b68909f,,,,,,,,,,,1092.5645,1093.5538,,,1094.0538,1094.3032,,170,-10,,,,,,,,,,,,,,,,bars/039.png,bars/mask002.png,,,,,,,,,,,,6,1,,,,,,,8,8,7,7,,,,,,,,,,,1093.5538,1094.0537,1094.3033,1097.9178,space,3.5995,,1097.9178,5,65,1098.9173,1098.9175,1098.9258,,,,0,42,42,42,1,175,105,,,,,,,,
,,659eb5c7f6628cdb16dcf1a7,65af5663db6f3bf0e8762321,2024-01-23_03h05.06.669,bars,2023.2.3,Win32,59.88023952,657b66ea316d21385b68909f,,,,,,,,,,,1098.9258,1099.9169,,,1100.4169,1100.6667,,174,174,,,,,,,,,,,,,,,,bars/035.png,bars/mask005.png,,,,,,,,,,,,4,1,,,,,,,6,6,4,5,,,,,,,,,,,1099.9169,1100.4169,1100.6667,1104.1641,space,3.4824,,1104.1642,1,66,1105.1642,1105.1642,1105.1742,,,,0,43,43,43,1,175,60,,,,,,,,
,,659eb5c7f6628cdb16dcf1a7,65af5663db6f3bf0e8762321,2024-01-23_03h05.06.669,bars,2023.2.3,Win32,59.88023952,657b66ea316d21385b68909f,,,,,,,,,,,1105.1743,1106.1637,,,1106.6633,1106.9132,,97,-83,,,,,,,,,,,,,,,,bars/009.png,bars/mask003.png,,,,,,,,,,,,3,2,,,,,,,8,4,7,4,,,,,,,,,,,1106.1637,1106.6633,1106.9133,1112.044,space,5.1184,,1112.0441,82,8,1113.0435,1113.0436,1113.0498,,,,0,44,44,44,1,15,105,,,,,,,,
,,659eb5c7f6628cdb16dcf1a7,65af5663db6f3bf0e8762321,2024-01-23_03h05.06.669,bars,2023.2.3,Win32,59.88023952,657b66ea316d21385b68909f,,,,,,,,,,,1113.05,1114.0421,,,1114.5422,1114.7925,,8,188,,,,,,,,,,,,,,,,bars/016.png,bars/mask002.png,,,,,,,,,,,,1,2,,,,,,,10,6,10,6,,,,,,,,,,,1114.0422,1114.5421,1114.7925,1118.0405,space,3.2406,,1118.0405,32,23,1119.0397,1119.0397,1119.0484,,,,0,45,45,45,1,40,165,,,,,,,,
,,659eb5c7f6628cdb16dcf1a7,65af5663db6f3bf0e8762321,2024-01-23_03h05.06.669,bars,2023.2.3,Win32,59.88023952,657b66ea316d21385b68909f,,,,,,,,,,,1119.0486,1120.0388,,,1120.5388,1120.7889,,97,97,,,,,,,,,,,,,,,,bars/014.png,bars/mask001.png,,,,,,,,,,,,3,1,,,,,,,8,4,7,5,,,,,,,,,,,1120.039,1120.5387,1120.7889,1123.6877,space,2.8929,,1123.6878,17,83,1124.6866,1124.6868,1124.6965,,,,0,46,46,46,1,80,0,,,,,,,,
,,659eb5c7f6628cdb16dcf1a7,65af5663db6f3bf0e8762321,2024-01-23_03h05.06.669,bars,2023.2.3,Win32,59.88023952,657b66ea316d21385b68909f,,,,,,,,,,,1124.6965,1125.6859,,,1126.1858,1126.4361,,104,104,,,,,,,,,,,,,,,,bars/015.png,bars/mask008.png,,,,,,,,,,,,8,1,,,,,,,10,6,10,5,,,,,,,,,,,1125.686,1126.1857,1126.4361,1131,space,4.5474,,1131,6,56,1131.9995,1131.9996,1132.0095,,,,0,47,47,47,1,110,160,,,,,,,,
,,659eb5c7f6628cdb16dcf1a7,65af5663db6f3bf0e8762321,2024-01-23_03h05.06.669,bars,2023.2.3,Win32,59.88023952,657b66ea316d21385b68909f,,,,,,,,,,,1132.0097,1132.9986,,,1133.4984,1133.7483,,164,164,,,,,,,,,,,,,,,,bars/037.png,bars/mask009.png,,,,,,,,,,,,4,1,,,,,,,8,8,7,8,,,,,,,,,,,1132.9987,1133.4984,1133.7484,1134.8832,space,1.117,,1134.8832,14,59,1135.8805,1135.8806,1135.882,,,,0,48,48,48,1,150,105,,,,,,,,
,,659eb5c7f6628cdb16dcf1a7,65af5663db6f3bf0e8762321,2024-01-23_03h05.06.669,bars,2023.2.3,Win32,59.88023952,657b66ea316d21385b68909f,,,,,,,,,,,1135.8825,1136.8802,,,1137.381,1137.6309,,164,-16,,,,,,,,,,,,,,,,bars/044.png,bars/mask009.png,,,,,,,,,,,,7,2,,,,,,,6,10,7,10,,,,,,,,,,,1136.8802,1137.3809,1137.6311,1141.2277,space,3.5819,,1141.2279,89,9,1142.2271,1142.2271,1142.2367,,,,0,49,49,49,1,75,155,,,,,,,,
,,659eb5c7f6628cdb16dcf1a7,65af5663db6f3bf0e8762321,2024-01-23_03h05.06.669,bars,2023.2.3,Win32,59.88023952,657b66ea316d21385b68909f,,,,,,,,,,,,,,,,,,,,,,,,,,,,,,,,,,,,,,,,,,,,,,,,,,,,,,,,,,,,,,,,,,,,,,,,,,,,,,,,,,,,,,,,,,,,,1142.2367,1202.2275,0,1,1,2,1,sequence_tables/blk009.csv
,,659eb5c7f6628cdb16dcf1a7,65af5663db6f3bf0e8762321,2024-01-23_03h05.06.669,bars,2023.2.3,Win32,59.88023952,657b66ea316d21385b68909f,,,,,,,,,,,1271.2658,1272.2552,,,1272.7566,1273.0063,,43,43,,,,,,,,,,,,,,,,bars/025.png,bars/mask008.png,,,,,,,,,,,,7,2,,,,,,,5,7,6,8,,,,,,1202.2371,1271.2559,space,69.0032,,1272.2553,1272.7564,1273.0063,1278.3695,space,5.3595,,1278.3695,62,3,1279.3676,1279.3676,1279.3738,,,,0,0,0,0,1,105,40,,,,,,,,
,,659eb5c7f6628cdb16dcf1a7,65af5663db6f3bf0e8762321,2024-01-23_03h05.06.669,bars,2023.2.3,Win32,59.88023952,657b66ea316d21385b68909f,,,,,,,,,,,1279.374,1280.3676,,,1280.8674,1281.117,,36,36,,,,,,,,,,,,,,,,bars/007.png,bars/mask000.png,,,,,,,,,,,,3,2,,,,,,,7,9,5,8,,,,,,,,,,,1280.3677,1280.8674,1281.1171,1284.4484,space,3.3169,,1284.4484,41,19,1285.4477,1285.4477,1285.4543,,,,0,1,1,1,1,175,55,,,,,,,,
,,659eb5c7f6628cdb16dcf1a7,65af5663db6f3bf0e8762321,2024-01-23_03h05.06.669,bars,2023.2.3,Win32,59.88023952,657b66ea316d21385b68909f,,,,,,,,,,,1285.4545,1286.4476,,,1286.947,1287.1971,,48,48,,,,,,,,,,,,,,,,bars/010.png,bars/mask001.png,,,,,,,,,,,,8,2,,,,,,,5,10,4,10,,,,,,,,,,,1286.4476,1286.9469,1287.1971,1293.8432,space,6.6302,,1293.8432,63,7,1294.8423,1294.8424,1294.8496,,,,0,2,2,2,1,165,55,,,,,,,,
,,659eb5c7f6628cdb16dcf1a7,65af5663db6f3bf0e8762321,2024-01-23_03h05.06.669,bars,2023.2.3,Win32,59.88023952,657b66ea316d21385b68909f,,,,,,,,,,,1294.8497,1295.842,,,1296.3419,1296.593,,71,71,,,,,,,,,,,,,,,,bars/019.png,bars/mask006.png,,,,,,,,,,,,0,1,,,,,,,3,10,2,9,,,,,,,,,,,1295.842,1296.3418,1296.5931,1300.7895,space,4.1875,,1300.7896,26,34,1301.789,1301.789,1301.7989,,,,0,3,3,3,1,45,105,,,,,,,,
,,659eb5c7f6628cdb16dcf1a7,65af5663db6f3bf0e8762321,2024-01-23_03h05.06.669,bars,2023.2.3,Win32,59.88023952,657b66ea316d21385b68909f,,,,,,,,,,,1301.799,1302.7885,,,1303.289,1303.5381,,107,-73,,,,,,,,,,,,,,,,bars/039.png,bars/mask007.png,,,,,,,,,,,,9,2,,,,,,,1,10,0,10,,,,,,,,,,,1302.7885,1303.289,1303.5381,1308.1206,space,4.5707,,1308.1207,68,2,1309.1183,1309.1184,1309.1279,,,,0,4,4,4,1,175,105,,,,,,,,
,,659eb5c7f6628cdb16dcf1a7,65af5663db6f3bf0e8762321,2024-01-23_03h05.06.669,bars,2023.2.3,Win32,59.88023952,657b66ea316d21385b68909f,,,,,,,,,,,1309.1281,1310.1191,,,1310.617,1310.8669,,100,-80,,,,,,,,,,,,,,,,bars/049.png,bars/mask004.png,,,,,,,,,,,,5,2,,,,,,,0,10,1,10,,,,,,,,,,,1310.1191,1310.6169,1310.8669,1315.5647,space,4.6833,,1315.5647,60,15,1316.5637,1316.5637,1316.5699,,,,0,5,5,5,1,160,115,,,,,,,,
,,659eb5c7f6628cdb16dcf1a7,65af5663db6f3bf0e8762321,2024-01-23_03h05.06.669,bars,2023.2.3,Win32,59.88023952,657b66ea316d21385b68909f,,,,,,,,,,,1316.57,1317.564,,,1318.0633,1318.3128,,118,-62,,,,,,,,,,,,,,,,bars/032.png,bars/mask009.png,,,,,,,,,,,,1,1,,,,,,,2,8,1,10,,,,,,,,,,,1317.5641,1318.0632,1318.3129,1324.0928,space,5.7696,,1324.0928,7,82,1325.0928,1325.0929,1325.1017,,,,0,6,6,6,1,125,20,,,,,,,,
,,659eb5c7f6628cdb16dcf1a7,65af5663db6f3bf0e8762321,2024-01-23_03h05.06.669,bars,2023.2.3,Win32,59.88023952,657b66ea316d21385b68909f,,,,,,,,,,,1325.1019,1326.0919,,,1326.5924,1326.8416,,18,18,,,,,,,,,,,,,,,,bars/036.png,bars/mask004.png,,,,,,,,,,,,5,2,,,,,,,0,6,0,5,,,,,,,,,,,1326.092,1326.5924,1326.8417,1331.0225,space,4.1715,,1331.0225,53,2,1332.0244,1332.0244,1332.0317,,,,0,7,7,7,1,145,20,,,,,,,,
,,659eb5c7f6628cdb16dcf1a7,65af5663db6f3bf0e8762321,2024-01-23_03h05.06.669,bars,2023.2.3,Win32,59.88023952,657b66ea316d21385b68909f,,,,,,,,,,,1332.0318,1333.0218,,,1333.5216,1333.7715,,173,-7,,,,,,,,,,,,,,,,bars/016.png,bars/mask009.png,,,,,,,,,,,,5,2,,,,,,,0,8,1,7,,,,,,,,,,,1333.0219,1333.5216,1333.7715,1338.8357,space,5.0541,,1338.8358,47,8,1339.8347,1339.8347,1339.8441,,,,0,8,8,8,1,40,165,,,,,,,,
,,659eb5c7f6628cdb16dcf1a7,65af5663db6f3bf0e8762321,2024-01-23_03h05.06.669,bars,2023.2.3,Win32,59.88023952,657b66ea316d21385b68909f,,,,,,,,,,,1339.8442,1340.8341,,,1341.3338,1341.5836,,104,104,,,,,,,,,,,,,,,,bars/045.png,bars/mask003.png,,,,,,,,,,,,0,1,,,,,,,0,6,0,5,,,,,,,,,,,1340.8342,1341.3337,1341.5837,1344.3819,space,2.7835,,1344.3819,4,86,1345.3818,1345.3818,1345.3916,,,,0,9,9,9,1,100,10,,,,,,,,
,,659eb5c7f6628cdb16dcf1a7,65af5663db6f3bf0e8762321,2024-01-23_03h05.06.669,bars,2023.2.3,Win32,59.88023952,657b66ea316d21385b68909f,,,,,,,,,,,1345.3918,1346.3803,,,1346.8804,1347.1308,,162,-18,,,,,,,,,,,,,,,,bars/003.png,bars/mask009.png,,,,,,,,,,,,2,2,,,,,,,0,8,1,8,,,,,,,,,,,1346.3804,1346.8804,1347.1308,1349.6126,space,2.4658,,1349.6126,43,22,1350.6122,1350.6123,1350.6218,,,,0,10,10,10,1,25,140,,,,,,,,
,,659eb5c7f6628cdb16dcf1a7,65af5663db6f3bf0e8762321,2024-01-23_03h05.06.669,bars,2023.2.3,Win32,59.88023952,657b66ea316d21385b68909f,,,,,,,,,,,1350.6219,1351.611,,,1352.1109,1352.3609,,77,77,,,,,,,,,,,,,,,,bars/013.png,bars/mask009.png,,,,,,,,,,,,0,1,,,,,,,0,10,0,10,,,,,,,,,,,1351.611,1352.1109,1352.361,1354.91,space,2.5325,,1354.9101,2,67,1355.909,1355.909,1355.9182,,,,0,11,11,11,1,75,10,,,,,,,,
,,659eb5c7f6628cdb16dcf1a7,65af5663db6f3bf0e8762321,2024-01-23_03h05.06.669,bars,2023.2.3,Win32,59.88023952,657b66ea316d21385b68909f,,,,,,,,,,,1355.9183,1356.9086,,,1357.4083,1357.6575,,24,24,,,,,,,,,,,,,,,,bars/023.png,bars/mask005.png,,,,,,,,,,,,0,1,,,,,,,0,8,0,8,,,,,,,,,,,1356.9086,1357.4083,1357.6575,1362.2056,space,4.5321,,1362.2056,4,89,1363.2051,1363.2051,1363.2119,,,,0,12,12,12,1,20,115,,,,,,,,
,,659eb5c7f6628cdb16dcf1a7,65af5663db6f3bf0e8762321,2024-01-23_03h05.06.669,bars,2023.2.3,Win32,59.88023952,657b66ea316d21385b68909f,,,,,,,,,,,1363.2121,1364.2047,,,1364.7043,1364.9557,,110,110,,,,,,,,,,,,,,,,bars/023.png,bars/mask009.png,,,,,,,,,,,,4,2,,,,,,,2,6,2,5,,,,,,,,,,,1364.2049,1364.7043,1364.9559,1368.1194,space,3.1533,,1368.1195,90,5,1369.1183,1369.1183,1369.1251,,,,0,13,13,13,1,20,115,,,,,,,,
,,659eb5c7f6628cdb16dcf1a7,65af5663db6f3bf0e8762321,2024-01-23_03h05.06.669,bars,2023.2.3,Win32,59.88023952,657b66ea316d21385b68909f,,,,,,,,,,,1369.1253,1370.1177,,,1370.6178,1370.8676,,22,22,,,,,,,,,,,,,,,,bars/036.png,bars/mask009.png,,,,,,,,,,,,7,2,,,,,,,0,8,1,8,,,,,,,,,,,1370.1178,1370.6177,1370.8677,1375.7651,space,4.8837,,1375.7652,57,2,1376.7646,1376.7648,1376.7732,,,,0,14,14,14,1,145,20,,,,,,,,
,,659eb5c7f6628cdb16dcf1a7,65af5663db6f3bf0e8762321,2024-01-23_03h05.06.669,bars,2023.2.3,Win32,59.88023952,657b66ea316d21385b68909f,,,,,,,,,,,1376.7733,1377.7633,,,1378.263,1378.5128,,174,-6,,,,,,,,,,,,,,,,bars/013.png,bars/mask002.png,,,,,,,,,,,,5,2,,,,,,,2,10,0,10,,,,,,,,,,,1377.7633,1378.2629,1378.5129,1381.9449,space,3.4153,,1381.945,81,16,1382.9439,1382.9439,1382.951,,,,0,15,15,15,1,75,10,,,,,,,,
,,659eb5c7f6628cdb16dcf1a7,65af5663db6f3bf0e8762321,2024-01-23_03h05.06.669,bars,2023.2.3,Win32,59.88023952,657b66ea316d21385b68909f,,,,,,,,,,,1382.9511,1383.9437,,,1384.4436,1384.6934,,23,23,,,,,,,,,,,,,,,,bars/012.png,bars/mask004.png,,,,,,,,,,,,7,2,,,,,,,4,10,2,10,,,,,,,,,,,1383.9437,1384.4435,1384.6935,1387.4586,space,2.7548,,1387.4588,67,8,1388.4576,1388.4576,1388.4638,,,,0,16,16,16,1,90,15,,,,,,,,
,,659eb5c7f6628cdb16dcf1a7,65af5663db6f3bf0e8762321,2024-01-23_03h05.06.669,bars,2023.2.3,Win32,59.88023952,657b66ea316d21385b68909f,,,,,,,,,,,1388.464,1389.457,,,1389.9569,1390.2069,,103,103,,,,,,,,,,,,,,,,bars/037.png,bars/mask001.png,,,,,,,,,,,,8,2,,,,,,,2,8,2,9,,,,,,,,,,,1389.457,1389.9568,1390.2069,1393.905,space,3.6857,,1393.905,47,2,1394.9045,1394.9045,1394.9139,,,,0,17,17,17,1,150,105,,,,,,,,
,,659eb5c7f6628cdb16dcf1a7,65af5663db6f3bf0e8762321,2024-01-23_03h05.06.669,bars,2023.2.3,Win32,59.88023952,657b66ea316d21385b68909f,,,,,,,,,,,1394.9139,1395.9041,,,1396.4036,1396.6531,,99,99,,,,,,,,,,,,,,,,bars/037.png,bars/mask004.png,,,,,,,,,,,,6,2,,,,,,,0,6,0,7,,,,,,,,,,,1395.9041,1396.4036,1396.6532,1398.2693,space,1.6071,,1398.2693,51,6,1399.2693,1399.2693,1399.2703,,,,0,18,18,18,1,150,105,,,,,,,,
,,659eb5c7f6628cdb16dcf1a7,65af5663db6f3bf0e8762321,2024-01-23_03h05.06.669,bars,2023.2.3,Win32,59.88023952,657b66ea316d21385b68909f,,,,,,,,,,,1399.2708,1400.2683,,,1400.7672,1401.0179,,66,66,,,,,,,,,,,,,,,,bars/046.png,bars/mask009.png,,,,,,,,,,,,1,2,,,,,,,0,4,2,3,,,,,,,,,,,1400.2684,1400.7671,1401.0179,1404.5488,space,3.5147,,1404.5488,89,19,1405.5483,1405.5484,1405.557,,,,0,19,19,19,1,155,85,,,,,,,,
,,659eb5c7f6628cdb16dcf1a7,65af5663db6f3bf0e8762321,2024-01-23_03h05.06.669,bars,2023.2.3,Win32,59.88023952,657b66ea316d21385b68909f,,,,,,,,,,,1405.5572,1406.5475,,,1407.0477,1407.2974,,72,72,,,,,,,,,,,,,,,,bars/019.png,bars/mask005.png,,,,,,,,,,,,0,1,,,,,,,2,2,1,1,,,,,,,,,,,1406.5476,1407.0476,1407.2975,1409.8633,space,2.5577,,1409.8635,27,33,1410.8621,1410.8621,1410.8698,,,,0,20,20,20,1,45,105,,,,,,,,
,,659eb5c7f6628cdb16dcf1a7,65af5663db6f3bf0e8762321,2024-01-23_03h05.06.669,bars,2023.2.3,Win32,59.88023952,657b66ea316d21385b68909f,,,,,,,,,,,1410.8698,1411.8615,,,1412.3613,1412.6111,,116,116,,,,,,,,,,,,,,,,bars/027.png,bars/mask006.png,,,,,,,,,,,,3,1,,,,,,,4,0,4,0,,,,,,,,,,,1411.8615,1412.3613,1412.6111,1414.1786,space,1.5623,,1414.1787,6,66,1415.1761,1415.1761,1415.1771,,,,0,21,21,21,1,110,50,,,,,,,,
,,659eb5c7f6628cdb16dcf1a7,65af5663db6f3bf0e8762321,2024-01-23_03h05.06.669,bars,2023.2.3,Win32,59.88023952,657b66ea316d21385b68909f,,,,,,,,,,,1415.178,1416.1757,,,1416.6757,1416.925,,171,171,,,,,,,,,,,,,,,,bars/035.png,bars/mask009.png,,,,,,,,,,,,3,1,,,,,,,2,0,3,0,,,,,,,,,,,1416.1757,1416.6756,1416.925,1419.5569,space,2.6162,,1419.557,4,69,1420.5571,1420.5572,1420.5671,,,,0,22,22,22,1,175,60,,,,,,,,
,,659eb5c7f6628cdb16dcf1a7,65af5663db6f3bf0e8762321,2024-01-23_03h05.06.669,bars,2023.2.3,Win32,59.88023952,657b66ea316d21385b68909f,,,,,,,,,,,1420.5672,1421.5564,,,1422.0564,1422.3057,,168,-12,,,,,,,,,,,,,,,,bars/013.png,bars/mask008.png,,,,,,,,,,,,0,2,,,,,,,0,0,1,0,,,,,,,,,,,1421.5565,1422.0564,1422.3057,1426.104,space,3.7832,,1426.104,87,22,1427.1027,1427.1027,1427.1129,,,,0,23,23,23,1,75,10,,,,,,,,
,,659eb5c7f6628cdb16dcf1a7,65af5663db6f3bf0e8762321,2024-01-23_03h05.06.669,bars,2023.2.3,Win32,59.88023952,657b66ea316d21385b68909f,,,,,,,,,,,1427.1131,1428.1027,,,1428.6028,1428.8519,,60,60,,,,,,,,,,,,,,,,bars/026.png,bars/mask009.png,,,,,,,,,,,,0,2,,,,,,,2,2,2,1,,,,,,,,,,,1428.1028,1428.6028,1428.852,1430.8845,space,2.0232,,1430.8846,25,25,1431.8838,1431.8838,1431.8926,,,,0,24,24,24,1,35,85,,,,,,,,
,,659eb5c7f6628cdb16dcf1a7,65af5663db6f3bf0e8762321,2024-01-23_03h05.06.669,bars,2023.2.3,Win32,59.88023952,657b66ea316d21385b68909f,,,,,,,,,,,1431.8927,1432.8869,,,1433.3869,1433.6365,,65,65,,,,,,,,,,,,,,,,bars/006.png,bars/mask000.png,,,,,,,,,,,,0,1,,,,,,,0,0,0,0,,,,,,,,,,,1432.8869,1433.3868,1433.6366,1436.4191,space,2.7662,,1436.4191,30,35,1437.4177,1437.4178,1437.4262,,,,0,25,25,25,1,35,100,,,,,,,,
,,659eb5c7f6628cdb16dcf1a7,65af5663db6f3bf0e8762321,2024-01-23_03h05.06.669,bars,2023.2.3,Win32,59.88023952,657b66ea316d21385b68909f,,,,,,,,,,,1437.4264,1438.4171,,,1438.9165,1439.1677,,162,-18,,,,,,,,,,,,,,,,bars/018.png,bars/mask002.png,,,,,,,,,,,,0,1,,,,,,,0,0,0,0,,,,,,,,,,,1438.4172,1438.9165,1439.1677,1441.4657,space,2.2819,,1441.4657,12,72,1442.4648,1442.4648,1442.4704,,,,0,26,26,26,1,150,90,,,,,,,,
,,659eb5c7f6628cdb16dcf1a7,65af5663db6f3bf0e8762321,2024-01-23_03h05.06.669,bars,2023.2.3,Win32,59.88023952,657b66ea316d21385b68909f,,,,,,,,,,,1442.4706,1443.4641,,,1443.9645,1444.214,,107,-73,,,,,,,,,,,,,,,,bars/009.png,bars/mask006.png,,,,,,,,,,,,1,2,,,,,,,2,0,2,1,,,,,,,,,,,1443.4641,1443.9645,1444.2141,1447.7292,space,3.4988,,1447.7292,88,2,1448.7279,1448.7279,1448.7347,,,,0,27,27,27,1,15,105,,,,,,,,
,,659eb5c7f6628cdb16dcf1a7,65af5663db6f3bf0e8762321,2024-01-23_03h05.06.669,bars,2023.2.3,Win32,59.88023952,657b66ea316d21385b68909f,,,,,,,,,,,1448.7349,1449.7276,,,1450.2274,1450.477,,167,167,,,,,,,,,,,,,,,,bars/016.png,bars/mask006.png,,,,,,,,,,,,2,2,,,,,,,0,2,2,2,,,,,,,,,,,1449.7276,1450.2274,1450.477,1453.4757,space,2.9818,,1453.4757,53,2,1454.4748,1454.4748,1454.4802,,,,0,28,28,28,1,40,165,,,,,,,,
,,659eb5c7f6628cdb16dcf1a7,65af5663db6f3bf0e8762321,2024-01-23_03h05.06.669,bars,2023.2.3,Win32,59.88023952,657b66ea316d21385b68909f,,,,,,,,,,,1454.4804,1455.4739,,,1455.9743,1456.2242,,107,107,,,,,,,,,,,,,,,,bars/039.png,bars/mask007.png,,,,,,,,,,,,0,2,,,,,,,2,0,1,0,,,,,,,,,,,1455.474,1455.9743,1456.2242,1461.0884,space,4.8483,,1461.0884,68,2,1462.0876,1462.0876,1462.0933,,,,0,29,29,29,1,175,105,,,,,,,,
,,659eb5c7f6628cdb16dcf1a7,65af5663db6f3bf0e8762321,2024-01-23_03h05.06.669,bars,2023.2.3,Win32,59.88023952,657b66ea316d21385b68909f,,,,,,,,,,,1462.0933,1463.0866,,,1463.5866,1463.8367,,143,143,,,,,,,,,,,,,,,,bars/024.png,bars/mask006.png,,,,,,,,,,,,0,1,,,,,,,0,2,1,3,,,,,,,,,,,1463.0866,1463.5865,1463.8367,1465.4028,space,1.5501,,1465.4028,23,27,1466.4017,1466.4017,1466.4087,,,,0,30,30,30,1,120,170,,,,,,,,
,,659eb5c7f6628cdb16dcf1a7,65af5663db6f3bf0e8762321,2024-01-23_03h05.06.669,bars,2023.2.3,Win32,59.88023952,657b66ea316d21385b68909f,,,,,,,,,,,1466.4088,1467.4015,,,1467.9011,1468.151,,27,27,,,,,,,,,,,,,,,,bars/035.png,bars/mask000.png,,,,,,,,,,,,0,1,,,,,,,0,0,0,1,,,,,,,,,,,1467.4015,1467.9011,1468.151,1474.6979,space,6.5307,,1474.698,32,33,1475.6967,1475.6968,1475.6979,,,,0,31,31,31,1,175,60,,,,,,,,
,,659eb5c7f6628cdb16dcf1a7,65af5663db6f3bf0e8762321,2024-01-23_03h05.06.669,bars,2023.2.3,Win32,59.88023952,657b66ea316d21385b68909f,,,,,,,,,,,1475.6983,1476.6961,,,1477.1962,1477.4454,,94,94,,,,,,,,,,,,,,,,bars/012.png,bars/mask005.png,,,,,,,,,,,,2,1,,,,,,,2,2,2,2,,,,,,,,,,,1476.6962,1477.1961,1477.4454,1482.7603,space,5.2984,,1482.7603,4,79,1483.759,1483.759,1483.7686,,,,0,32,32,32,1,90,15,,,,,,,,
,,659eb5c7f6628cdb16dcf1a7,65af5663db6f3bf0e8762321,2024-01-23_03h05.06.669,bars,2023.2.3,Win32,59.88023952,657b66ea316d21385b68909f,,,,,,,,,,,1483.7687,1484.7583,,,1485.2582,1485.5084,,139,139,,,,,,,,,,,,,,,,bars/004.png,bars/mask003.png,,,,,,,,,,,,3,2,,,,,,,4,4,4,6,,,,,,,,,,,1484.7584,1485.2582,1485.5084,1488.5898,space,3.0648,,1488.5898,66,14,1489.5889,1489.5891,1489.5995,,,,0,33,33,33,1,25,125,,,,,,,,
,,659eb5c7f6628cdb16dcf1a7,65af5663db6f3bf0e8762321,2024-01-23_03h05.06.669,bars,2023.2.3,Win32,59.88023952,657b66ea316d21385b68909f,,,,,,,,,,,1489.5995,1490.5886,,,1491.0878,1491.3387,,45,45,,,,,,,,,,,,,,,,bars/025.png,bars/mask006.png,,,,,,,,,,,,2,2,,,,,,,6,2,7,2,,,,,,,,,,,1490.5887,1491.0878,1491.3387,1492.405,space,1.0497,,1492.405,60,5,1493.4038,1493.4038,1493.4046,,,,0,34,34,34,1,105,40,,,,,,,,
,,659eb5c7f6628cdb16dcf1a7,65af5663db6f3bf0e8762321,2024-01-23_03h05.06.669,bars,2023.2.3,Win32,59.88023952,657b66ea316d21385b68909f,,,,,,,,,,,1493.4049,1494.403,,,1494.9028,1495.1522,,62,62,,,,,,,,,,,,,,,,bars/035.png,bars/mask002.png,,,,,,,,,,,,4,2,,,,,,,4,4,4,4,,,,,,,,,,,1494.4032,1494.9027,1495.1523,1496.3691,space,1.2003,,1496.3691,67,2,1497.3681,1497.3681,1497.369,,,,0,35,35,35,1,175,60,,,,,,,,
,,659eb5c7f6628cdb16dcf1a7,65af5663db6f3bf0e8762321,2024-01-23_03h05.06.669,bars,2023.2.3,Win32,59.88023952,657b66ea316d21385b68909f,,,,,,,,,,,1497.3693,1498.3677,,,1498.8673,1499.1177,,7,187,,,,,,,,,,,,,,,,bars/012.png,bars/mask009.png,,,,,,,,,,,,4,2,,,,,,,2,6,3,5,,,,,,,,,,,1498.3677,1498.8673,1499.1177,1501.3499,space,2.2164,,1501.35,83,8,1502.3485,1502.3486,1502.3494,,,,0,36,36,36,1,90,15,,,,,,,,
,,659eb5c7f6628cdb16dcf1a7,65af5663db6f3bf0e8762321,2024-01-23_03h05.06.669,bars,2023.2.3,Win32,59.88023952,657b66ea316d21385b68909f,,,,,,,,,,,1502.3498,1503.3482,,,1503.8479,1504.0977,,99,99,,,,,,,,,,,,,,,,bars/026.png,bars/mask000.png,,,,,,,,,,,,4,2,,,,,,,4,8,4,7,,,,,,,,,,,1503.3483,1503.8479,1504.0977,1507.38,space,3.2659,,1507.38,64,14,1508.3787,1508.3787,1508.3882,,,,0,37,37,37,1,35,85,,,,,,,,
,,659eb5c7f6628cdb16dcf1a7,65af5663db6f3bf0e8762321,2024-01-23_03h05.06.669,bars,2023.2.3,Win32,59.88023952,657b66ea316d21385b68909f,,,,,,,,,,,1508.3883,1509.3781,,,1509.878,1510.1277,,169,169,,,,,,,,,,,,,,,,bars/033.png,bars/mask006.png,,,,,,,,,,,,5,2,,,,,,,6,10,7,10,,,,,,,,,,,1509.3782,1509.878,1510.1277,1514.8751,space,4.7309,,1514.8751,36,14,1515.8738,1515.8739,1515.8815,,,,0,38,38,38,1,25,155,,,,,,,,
,,659eb5c7f6628cdb16dcf1a7,65af5663db6f3bf0e8762321,2024-01-23_03h05.06.669,bars,2023.2.3,Win32,59.88023952,657b66ea316d21385b68909f,,,,,,,,,,,1515.8816,1516.8739,,,1517.374,1517.6239,,167,167,,,,,,,,,,,,,,,,bars/015.png,bars/mask005.png,,,,,,,,,,,,6,2,,,,,,,8,8,8,8,,,,,,,,,,,1516.8739,1517.374,1517.6239,1522.3043,space,4.6645,,1522.3043,57,7,1523.3034,1523.3035,1523.309,,,,0,39,39,39,1,110,160,,,,,,,,
,,659eb5c7f6628cdb16dcf1a7,65af5663db6f3bf0e8762321,2024-01-23_03h05.06.669,bars,2023.2.3,Win32,59.88023952,657b66ea316d21385b68909f,,,,,,,,,,,1523.3091,1524.3028,,,1524.8027,1525.0527,,111,111,,,,,,,,,,,,,,,,bars/023.png,bars/mask006.png,,,,,,,,,,,,4,2,,,,,,,10,6,10,5,,,,,,,,,,,1524.3028,1524.8027,1525.0527,1526.7191,space,1.6501,,1526.7192,89,4,1527.7179,1527.7179,1527.7266,,,,0,40,40,40,1,20,115,,,,,,,,
,,659eb5c7f6628cdb16dcf1a7,65af5663db6f3bf0e8762321,2024-01-23_03h05.06.669,bars,2023.2.3,Win32,59.88023952,657b66ea316d21385b68909f,,,,,,,,,,,1527.7266,1528.7175,,,1529.2174,1529.4674,,162,-18,,,,,,,,,,,,,,,,bars/005.png,bars/mask003.png,,,,,,,,,,,,2,2,,,,,,,8,8,7,7,,,,,,,,,,,1528.7177,1529.2173,1529.4675,1532.6993,space,3.2161,,1532.6993,28,22,1533.6983,1533.6983,1533.7076,,,,0,41,41,41,1,10,140,,,,,,,,
,,659eb5c7f6628cdb16dcf1a7,65af5663db6f3bf0e8762321,2024-01-23_03h05.06.669,bars,2023.2.3,Win32,59.88023952,657b66ea316d21385b68909f,,,,,,,,,,,1533.7076,1534.6975,,,1535.1974,1535.4472,,29,209,,,,,,,,,,,,,,,,bars/016.png,bars/mask002.png,,,,,,,,,,,,6,1,,,,,,,10,10,10,10,,,,,,,,,,,1534.6975,1535.1974,1535.4472,1539.7788,space,4.3151,,1539.7789,11,44,1540.777,1540.777,1540.7853,,,,0,42,42,42,1,40,165,,,,,,,,
,,659eb5c7f6628cdb16dcf1a7,65af5663db6f3bf0e8762321,2024-01-23_03h05.06.669,bars,2023.2.3,Win32,59.88023952,657b66ea316d21385b68909f,,,,,,,,,,,1540.7854,1541.7768,,,1542.2763,1542.5268,,108,108,,,,,,,,,,,,,,,,bars/008.png,bars/mask005.png,,,,,,,,,,,,8,1,,,,,,,10,10,9,10,,,,,,,,,,,1541.7769,1542.2762,1542.5269,1545.1096,space,2.5665,,1545.1096,2,72,1546.1081,1546.1082,1546.115,,,,0,43,43,43,1,110,0,,,,,,,,
,,659eb5c7f6628cdb16dcf1a7,65af5663db6f3bf0e8762321,2024-01-23_03h05.06.669,bars,2023.2.3,Win32,59.88023952,657b66ea316d21385b68909f,,,,,,,,,,,1546.1151,1547.1076,,,1547.6072,1547.8568,,172,-8,,,,,,,,,,,,,,,,bars/035.png,bars/mask000.png,,,,,,,,,,,,9,1,,,,,,,10,10,10,10,,,,,,,,,,,1547.1076,1547.6071,1547.8568,1551.1218,space,3.2487,,1551.1218,3,68,1552.1211,1552.1213,1552.1303,,,,0,44,44,44,1,175,60,,,,,,,,
,,659eb5c7f6628cdb16dcf1a7,65af5663db6f3bf0e8762321,2024-01-23_03h05.06.669,bars,2023.2.3,Win32,59.88023952,657b66ea316d21385b68909f,,,,,,,,,,,1552.1303,1553.1201,,,1553.6211,1553.8702,,55,235,,,,,,,,,,,,,,,,bars/048.png,bars/mask006.png,,,,,,,,,,,,8,1,,,,,,,10,8,10,6,,,,,,,,,,,1553.1201,1553.6211,1553.8703,1557.4695,space,3.5828,,1557.4695,5,60,1558.4675,1558.4676,1558.4764,,,,0,45,45,45,1,50,175,,,,,,,,
,,659eb5c7f6628cdb16dcf1a7,65af5663db6f3bf0e8762321,2024-01-23_03h05.06.669,bars,2023.2.3,Win32,59.88023952,657b66ea316d21385b68909f,,,,,,,,,,,1558.4766,1559.4673,,,1559.9669,1560.2169,,35,35,,,,,,,,,,,,,,,,bars/000.png,bars/mask001.png,,,,,,,,,,,,5,1,,,,,,,8,6,6,6,,,,,,,,,,,1559.4673,1559.9668,1560.217,1564.3653,space,4.132,,1564.3654,5,70,1565.3637,1565.3638,1565.3726,,,,0,46,46,46,1,40,145,,,,,,,,
,,659eb5c7f6628cdb16dcf1a7,65af5663db6f3bf0e8762321,2024-01-23_03h05.06.669,bars,2023.2.3,Win32,59.88023952,657b66ea316d21385b68909f,,,,,,,,,,,1565.3728,1566.3633,,,1566.863,1567.1133,,41,41,,,,,,,,,,,,,,,,bars/005.png,bars/mask002.png,,,,,,,,,,,,0,1,,,,,,,10,4,10,4,,,,,,,,,,,1566.3635,1566.863,1567.1134,1568.8949,space,1.7658,,1568.8949,31,81,1569.8951,1569.8951,1569.9013,,,,0,47,47,47,1,10,140,,,,,,,,
,,659eb5c7f6628cdb16dcf1a7,65af5663db6f3bf0e8762321,2024-01-23_03h05.06.669,bars,2023.2.3,Win32,59.88023952,657b66ea316d21385b68909f,,,,,,,,,,,1569.9013,1570.8945,,,1571.394,1571.6441,,159,159,,,,,,,,,,,,,,,,bars/003.png,bars/mask006.png,,,,,,,,,,,,1,2,,,,,,,8,2,7,2,,,,,,,,,,,1570.8946,1571.3939,1571.6442,1573.86,space,2.1999,,1573.86,46,19,1574.8584,1574.8584,1574.8672,,,,0,48,48,48,1,25,140,,,,,,,,
,,659eb5c7f6628cdb16dcf1a7,65af5663db6f3bf0e8762321,2024-01-23_03h05.06.669,bars,2023.2.3,Win32,59.88023952,657b66ea316d21385b68909f,,,,,,,,,,,1574.8673,1575.8584,,,1576.358,1576.6077,,169,169,,,,,,,,,,,,,,,,bars/024.png,bars/mask002.png,,,,,,,,,,,,0,2,,,,,,,10,0,10,0,,,,,,,,,,,1575.8585,1576.358,1576.6077,1578.5908,space,1.9665,,1578.5909,49,1,1579.5892,1579.5893,1579.5901,,,,0,49,49,49,1,120,170,,,,,,,,
,,659eb5c7f6628cdb16dcf1a7,65af5663db6f3bf0e8762321,2024-01-23_03h05.06.669,bars,2023.2.3,Win32,59.88023952,657b66ea316d21385b68909f,,,,,,,,,,,,,,,,,,,,,,,,,,,,,,,,,,,,,,,,,,,,,,,,,,,,,,,,,,,,,,,,,,,,,,,,,,,,,,,,,,,,,,,,,,,,,1579.5904,1639.5822,0,2,2,4,1,sequence_tables/blk002.csv
,,659eb5c7f6628cdb16dcf1a7,65af5663db6f3bf0e8762321,2024-01-23_03h05.06.669,bars,2023.2.3,Win32,59.88023952,657b66ea316d21385b68909f,,,,,,,,,,,1660.4293,1661.4202,,,1661.9198,1662.1698,,59,59,,,,,,,,,,,,,,,,bars/047.png,bars/mask008.png,,,,,,,,,,,,4,2,,,,,,,1,6,1,7,,,,,,1639.5898,1660.4201,space,20.8113,,1661.4203,1661.9197,1662.1699,1665.838,space,3.6485,,1665.8381,44,11,1666.8332,1666.8333,1666.8399,,,,0,0,0,0,1,15,70,,,,,,,,
,,659eb5c7f6628cdb16dcf1a7,65af5663db6f3bf0e8762321,2024-01-23_03h05.06.669,bars,2023.2.3,Win32,59.88023952,657b66ea316d21385b68909f,,,,,,,,,,,1666.84,1667.8361,,,1668.3323,1668.5828,,133,133,,,,,,,,,,,,,,,,bars/028.png,bars/mask009.png,,,,,,,,,,,,3,2,,,,,,,3,4,2,5,,,,,,,,,,,1667.8361,1668.3323,1668.5829,1669.8321,space,1.2192,,1669.8323,88,13,1670.8314,1670.8316,1670.8413,,,,0,1,1,1,1,45,120,,,,,,,,
,,659eb5c7f6628cdb16dcf1a7,65af5663db6f3bf0e8762321,2024-01-23_03h05.06.669,bars,2023.2.3,Win32,59.88023952,657b66ea316d21385b68909f,,,,,,,,,,,1670.8414,1671.8305,,,1672.3303,1672.5813,,87,87,,,,,,,,,,,,,,,,bars/031.png,bars/mask001.png,,,,,,,,,,,,0,1,,,,,,,1,6,2,5,,,,,,,,,,,1671.8305,1672.3302,1672.5814,1676.195,space,3.584,,1676.1951,33,52,1677.1947,1677.1948,1677.2049,,,,0,2,2,2,1,120,35,,,,,,,,
,,659eb5c7f6628cdb16dcf1a7,65af5663db6f3bf0e8762321,2024-01-23_03h05.06.669,bars,2023.2.3,Win32,59.88023952,657b66ea316d21385b68909f,,,,,,,,,,,1677.2051,1678.1956,,,1678.6934,1678.9435,,14,194,,,,,,,,,,,,,,,,bars/036.png,bars/mask004.png,,,,,,,,,,,,4,2,,,,,,,3,4,3,5,,,,,,,,,,,1678.1957,1678.6934,1678.9436,1682.5769,space,3.6134,,1682.5769,49,6,1683.5778,1683.5778,1683.5876,,,,0,3,3,3,1,145,20,,,,,,,,
,,659eb5c7f6628cdb16dcf1a7,65af5663db6f3bf0e8762321,2024-01-23_03h05.06.669,bars,2023.2.3,Win32,59.88023952,657b66ea316d21385b68909f,,,,,,,,,,,1683.5878,1684.5905,,,1685.0899,1685.34,,25,205,,,,,,,,,,,,,,,,bars/029.png,bars/mask003.png,,,,,,,,,,,,2,2,,,,,,,1,6,1,6,,,,,,,,,,,1684.5906,1685.0898,1685.34,1688.9255,space,3.5652,,1688.9256,65,20,1689.9213,1689.9214,1689.9312,,,,0,4,4,4,1,90,45,,,,,,,,
,,659eb5c7f6628cdb16dcf1a7,65af5663db6f3bf0e8762321,2024-01-23_03h05.06.669,bars,2023.2.3,Win32,59.88023952,657b66ea316d21385b68909f,,,,,,,,,,,1689.9313,1690.9203,,,1691.4201,1691.6701,,164,164,,,,,,,,,,,,,,,,bars/021.png,bars/mask003.png,,,,,,,,,,,,3,1,,,,,,,3,4,4,4,,,,,,,,,,,1690.9204,1691.4199,1691.6702,1693.3523,space,1.6538,,1693.3524,9,86,1694.3519,1694.352,1694.3538,,,,0,5,5,5,1,155,70,,,,,,,,
,,659eb5c7f6628cdb16dcf1a7,65af5663db6f3bf0e8762321,2024-01-23_03h05.06.669,bars,2023.2.3,Win32,59.88023952,657b66ea316d21385b68909f,,,,,,,,,,,1694.354,1695.351,,,1695.8504,1696.1007,,127,127,,,,,,,,,,,,,,,,bars/032.png,bars/mask005.png,,,,,,,,,,,,4,1,,,,,,,5,6,4,6,,,,,,,,,,,1695.3511,1695.8503,1696.1007,1698.5873,space,2.4664,,1698.5873,2,73,1699.582,1699.582,1699.5921,,,,0,6,6,6,1,125,20,,,,,,,,
,,659eb5c7f6628cdb16dcf1a7,65af5663db6f3bf0e8762321,2024-01-23_03h05.06.669,bars,2023.2.3,Win32,59.88023952,657b66ea316d21385b68909f,,,,,,,,,,,1699.5922,1700.5819,,,1701.0815,1701.3341,,144,144,,,,,,,,,,,,,,,,bars/010.png,bars/mask009.png,,,,,,,,,,,,3,1,,,,,,,7,4,9,4,,,,,,,,,,,1700.582,1701.0815,1701.3342,1703.9502,space,2.599,,1703.9502,21,89,1704.9466,1704.9466,1704.9548,,,,0,7,7,7,1,165,55,,,,,,,,
,,659eb5c7f6628cdb16dcf1a7,65af5663db6f3bf0e8762321,2024-01-23_03h05.06.669,bars,2023.2.3,Win32,59.88023952,657b66ea316d21385b68909f,,,,,,,,,,,1704.9549,1705.9453,,,1706.4454,1706.6948,,58,58,,,,,,,,,,,,,,,,bars/017.png,bars/mask008.png,,,,,,,,,,,,4,2,,,,,,,9,6,9,7,,,,,,,,,,,1705.9453,1706.4453,1706.6949,1710.6929,space,3.9751,,1710.693,87,13,1711.6922,1711.6923,1711.7025,,,,0,8,8,8,1,145,45,,,,,,,,
,,659eb5c7f6628cdb16dcf1a7,65af5663db6f3bf0e8762321,2024-01-23_03h05.06.669,bars,2023.2.3,Win32,59.88023952,657b66ea316d21385b68909f,,,,,,,,,,,1711.7027,1712.6917,,,1713.1912,1713.4409,,71,71,,,,,,,,,,,,,,,,bars/030.png,bars/mask000.png,,,,,,,,,,,,4,2,,,,,,,10,4,10,5,,,,,,,,,,,1712.6919,1713.1911,1713.441,1718.0226,space,4.5699,,1718.0227,69,6,1719.0221,1719.0222,1719.0315,,,,0,9,9,9,1,140,65,,,,,,,,
,,659eb5c7f6628cdb16dcf1a7,65af5663db6f3bf0e8762321,2024-01-23_03h05.06.669,bars,2023.2.3,Win32,59.88023952,657b66ea316d21385b68909f,,,,,,,,,,,1719.0316,1720.021,,,1720.5207,1720.7704,,35,35,,,,,,,,,,,,,,,,bars/031.png,bars/mask002.png,,,,,,,,,,,,3,2,,,,,,,8,2,9,3,,,,,,,,,,,1720.0212,1720.5205,1720.7705,1725.5342,space,4.7338,,1725.5343,85,0,1726.5342,1726.5342,1726.5422,,,,0,10,10,10,1,120,35,,,,,,,,
,,659eb5c7f6628cdb16dcf1a7,65af5663db6f3bf0e8762321,2024-01-23_03h05.06.669,bars,2023.2.3,Win32,59.88023952,657b66ea316d21385b68909f,,,,,,,,,,,1726.5423,1727.533,,,1728.0331,1728.2832,,70,70,,,,,,,,,,,,,,,,bars/012.png,bars/mask007.png,,,,,,,,,,,,2,1,,,,,,,6,4,6,5,,,,,,,,,,,1727.5331,1728.0331,1728.2833,1731.881,space,3.57,,1731.8811,20,55,1732.8804,1732.8806,1732.891,,,,0,11,11,11,1,90,15,,,,,,,,
,,659eb5c7f6628cdb16dcf1a7,65af5663db6f3bf0e8762321,2024-01-23_03h05.06.669,bars,2023.2.3,Win32,59.88023952,657b66ea316d21385b68909f,,,,,,,,,,,1732.8911,1733.8798,,,1734.3796,1734.6294,,110,110,,,,,,,,,,,,,,,,bars/011.png,bars/mask000.png,,,,,,,,,,,,1,2,,,,,,,8,6,8,5,,,,,,,,,,,1733.8799,1734.3795,1734.6295,1736.6281,space,1.9707,,1736.6282,50,25,1737.6279,1737.6281,1737.6351,,,,0,12,12,12,1,160,85,,,,,,,,
,,659eb5c7f6628cdb16dcf1a7,65af5663db6f3bf0e8762321,2024-01-23_03h05.06.669,bars,2023.2.3,Win32,59.88023952,657b66ea316d21385b68909f,,,,,,,,,,,1737.6352,1738.6306,,,1739.1273,1739.3773,,104,104,,,,,,,,,,,,,,,,bars/002.png,bars/mask006.png,,,,,,,,,,,,1,2,,,,,,,6,4,5,4,,,,,,,,,,,1738.6306,1739.1272,1739.3774,1742.9083,space,3.5064,,1742.9084,26,19,1743.908,1743.9082,1743.9172,,,,0,13,13,13,1,130,85,,,,,,,,
,,659eb5c7f6628cdb16dcf1a7,65af5663db6f3bf0e8762321,2024-01-23_03h05.06.669,bars,2023.2.3,Win32,59.88023952,657b66ea316d21385b68909f,,,,,,,,,,,1743.9173,1744.9074,,,1745.407,1745.6567,,94,94,,,,,,,,,,,,,,,,bars/045.png,bars/mask004.png,,,,,,,,,,,,6,1,,,,,,,8,6,7,5,,,,,,,,,,,1744.9076,1745.4068,1745.6568,1746.4574,space,0.7799,,1746.4574,6,84,1747.4559,1747.4561,1747.4595,,,,0,14,14,14,1,100,10,,,,,,,,
,,659eb5c7f6628cdb16dcf1a7,65af5663db6f3bf0e8762321,2024-01-23_03h05.06.669,bars,2023.2.3,Win32,59.88023952,657b66ea316d21385b68909f,,,,,,,,,,,1747.4597,1748.4569,,,1748.955,1749.2042,,105,105,,,,,,,,,,,,,,,,bars/041.png,bars/mask008.png,,,,,,,,,,,,3,2,,,,,,,6,8,6,9,,,,,,,,,,,1748.4569,1748.9548,1749.2042,1752.4541,space,3.2453,,1752.4542,85,20,1753.4539,1753.4539,1753.4606,,,,0,15,15,15,1,20,85,,,,,,,,
,,659eb5c7f6628cdb16dcf1a7,65af5663db6f3bf0e8762321,2024-01-23_03h05.06.669,bars,2023.2.3,Win32,59.88023952,657b66ea316d21385b68909f,,,,,,,,,,,1753.4607,1754.4517,,,1754.9517,1755.2012,,77,77,,,,,,,,,,,,,,,,bars/038.png,bars/mask006.png,,,,,,,,,,,,8,2,,,,,,,8,10,9,10,,,,,,,,,,,1754.4518,1754.9516,1755.2014,1757.2171,space,1.9837,,1757.2172,88,7,1758.2166,1758.2168,1758.2182,,,,0,16,16,16,1,165,70,,,,,,,,
,,659eb5c7f6628cdb16dcf1a7,65af5663db6f3bf0e8762321,2024-01-23_03h05.06.669,bars,2023.2.3,Win32,59.88023952,657b66ea316d21385b68909f,,,,,,,,,,,1758.2185,1759.2158,,,1759.7157,1759.9657,,82,82,,,,,,,,,,,,,,,,bars/012.png,bars/mask001.png,,,,,,,,,,,,4,1,,,,,,,6,10,5,8,,,,,,,,,,,1759.2158,1759.7156,1759.966,1761.9479,space,1.9508,,1761.948,8,67,1762.948,1762.9481,1762.956,,,,0,17,17,17,1,90,15,,,,,,,,
,,659eb5c7f6628cdb16dcf1a7,65af5663db6f3bf0e8762321,2024-01-23_03h05.06.669,bars,2023.2.3,Win32,59.88023952,657b66ea316d21385b68909f,,,,,,,,,,,1762.9561,1763.9498,,,1764.4464,1764.6959,,106,106,,,,,,,,,,,,,,,,bars/015.png,bars/mask009.png,,,,,,,,,,,,3,1,,,,,,,4,10,4,10,,,,,,,,,,,1763.9499,1764.4463,1764.696,1769.0481,space,4.3318,,1769.0481,4,54,1770.0433,1770.0434,1770.0502,,,,0,18,18,18,1,110,160,,,,,,,,
,,659eb5c7f6628cdb16dcf1a7,65af5663db6f3bf0e8762321,2024-01-23_03h05.06.669,bars,2023.2.3,Win32,59.88023952,657b66ea316d21385b68909f,,,,,,,,,,,1770.0504,1771.0429,,,1771.5426,1771.7922,,55,55,,,,,,,,,,,,,,,,bars/004.png,bars/mask007.png,,,,,,,,,,,,0,1,,,,,,,6,8,6,8,,,,,,,,,,,1771.0429,1771.5425,1771.7923,1772.8746,space,1.0561,,1772.8748,30,70,1773.8752,1773.8754,1773.8762,,,,0,19,19,19,1,25,125,,,,,,,,
,,659eb5c7f6628cdb16dcf1a7,65af5663db6f3bf0e8762321,2024-01-23_03h05.06.669,bars,2023.2.3,Win32,59.88023952,657b66ea316d21385b68909f,,,,,,,,,,,1773.8765,1774.8738,,,1775.3761,1775.6233,,14,14,,,,,,,,,,,,,,,,bars/032.png,bars/mask002.png,,,,,,,,,,,,5,2,,,,,,,4,6,4,6,,,,,,,,,,,1774.8739,1775.376,1775.6233,1776.5442,space,0.9164,,1776.5443,69,6,1777.5391,1777.5393,1777.5411,,,,0,20,20,20,1,125,20,,,,,,,,
,,659eb5c7f6628cdb16dcf1a7,65af5663db6f3bf0e8762321,2024-01-23_03h05.06.669,bars,2023.2.3,Win32,59.88023952,657b66ea316d21385b68909f,,,,,,,,,,,1777.5412,1778.5389,,,1779.0381,1779.2879,,17,17,,,,,,,,,,,,,,,,bars/045.png,bars/mask009.png,,,,,,,,,,,,6,2,,,,,,,2,8,3,8,,,,,,,,,,,1778.5391,1779.0381,1779.2879,1781.3207,space,2.0282,,1781.3209,83,7,1782.3199,1782.3199,1782.3216,,,,0,21,21,21,1,100,10,,,,,,,,
,,659eb5c7f6628cdb16dcf1a7,65af5663db6f3bf0e8762321,2024-01-23_03h05.06.669,bars,2023.2.3,Win32,59.88023952,657b66ea316d21385b68909f,,,,,,,,,,,1782.322,1783.3195,,,1783.819,1784.0689,,26,206,,,,,,,,,,,,,,,,bars/007.png,bars/mask000.png,,,,,,,,,,,,0,2,,,,,,,4,6,5,8,,,,,,,,,,,1783.3195,1783.819,1784.069,1787.9335,space,3.843,,1787.9336,31,29,1788.9351,1788.9352,1788.9429,,,,0,22,22,22,1,175,55,,,,,,,,
,,659eb5c7f6628cdb16dcf1a7,65af5663db6f3bf0e8762321,2024-01-23_03h05.06.669,bars,2023.2.3,Win32,59.88023952,657b66ea316d21385b68909f,,,,,,,,,,,1788.943,1789.9343,,,1790.4316,1790.682,,22,22,,,,,,,,,,,,,,,,bars/023.png,bars/mask001.png,,,,,,,,,,,,4,1,,,,,,,6,8,4,9,,,,,,,,,,,1789.9343,1790.4316,1790.6821,1795.3333,space,4.6312,,1795.3333,2,87,1796.329,1796.3292,1796.3395,,,,0,23,23,23,1,20,115,,,,,,,,
,,659eb5c7f6628cdb16dcf1a7,65af5663db6f3bf0e8762321,2024-01-23_03h05.06.669,bars,2023.2.3,Win32,59.88023952,657b66ea316d21385b68909f,,,,,,,,,,,1796.3397,1797.3285,,,1797.828,1798.0778,,103,103,,,,,,,,,,,,,,,,bars/025.png,bars/mask001.png,,,,,,,,,,,,7,1,,,,,,,8,6,8,8,,,,,,,,,,,1797.3287,1797.8279,1798.0779,1800.8097,space,2.6999,,1800.8097,2,63,1801.8089,1801.8089,1801.8163,,,,0,24,24,24,1,105,40,,,,,,,,
,,659eb5c7f6628cdb16dcf1a7,65af5663db6f3bf0e8762321,2024-01-23_03h05.06.669,bars,2023.2.3,Win32,59.88023952,657b66ea316d21385b68909f,,,,,,,,,,,1801.8165,1802.8083,,,1803.3083,1803.5585,,60,60,,,,,,,,,,,,,,,,bars/035.png,bars/mask000.png,,,,,,,,,,,,8,2,,,,,,,6,8,7,8,,,,,,,,,,,1802.8084,1803.3081,1803.5586,1806.0065,space,2.4164,,1806.0066,65,0,1807.0062,1807.0063,1807.009,,,,0,25,25,25,1,175,60,,,,,,,,
,,659eb5c7f6628cdb16dcf1a7,65af5663db6f3bf0e8762321,2024-01-23_03h05.06.669,bars,2023.2.3,Win32,59.88023952,657b66ea316d21385b68909f,,,,,,,,,,,1807.0093,1808.0085,,,1808.5053,1808.7552,,161,161,,,,,,,,,,,,,,,,bars/012.png,bars/mask001.png,,,,,,,,,,,,0,2,,,,,,,4,6,5,5,,,,,,,,,,,1808.0085,1808.5052,1808.7553,1811.6366,space,2.8587,,1811.6366,71,34,1812.6366,1812.6367,1812.6471,,,,0,26,26,26,1,90,15,,,,,,,,
,,659eb5c7f6628cdb16dcf1a7,65af5663db6f3bf0e8762321,2024-01-23_03h05.06.669,bars,2023.2.3,Win32,59.88023952,657b66ea316d21385b68909f,,,,,,,,,,,1812.6472,1813.6356,,,1814.1354,1814.3856,,164,164,,,,,,,,,,,,,,,,bars/017.png,bars/mask007.png,,,,,,,,,,,,2,1,,,,,,,6,4,6,3,,,,,,,,,,,1813.6356,1814.1353,1814.3857,1816.3859,space,1.9803,,1816.3859,19,61,1817.3837,1817.3838,1817.394,,,,0,27,27,27,1,145,45,,,,,,,,
,,659eb5c7f6628cdb16dcf1a7,65af5663db6f3bf0e8762321,2024-01-23_03h05.06.669,bars,2023.2.3,Win32,59.88023952,657b66ea316d21385b68909f,,,,,,,,,,,1817.3942,1818.3832,,,1818.8863,1819.1332,,75,75,,,,,,,,,,,,,,,,bars/001.png,bars/mask005.png,,,,,,,,,,,,1,2,,,,,,,8,2,6,2,,,,,,,,,,,1818.3833,1818.8862,1819.1333,1821.6027,space,2.4495,,1821.6027,55,10,1822.5978,1822.598,1822.6077,,,,0,28,28,28,1,130,85,,,,,,,,
,,659eb5c7f6628cdb16dcf1a7,65af5663db6f3bf0e8762321,2024-01-23_03h05.06.669,bars,2023.2.3,Win32,59.88023952,657b66ea316d21385b68909f,,,,,,,,,,,1822.6078,1823.5973,,,1824.0969,1824.3471,,169,-11,,,,,,,,,,,,,,,,bars/015.png,bars/mask004.png,,,,,,,,,,,,0,2,,,,,,,6,0,7,0,,,,,,,,,,,1823.5974,1824.0969,1824.3471,1826.8995,space,2.5328,,1826.8995,59,9,1827.8964,1827.8965,1827.9042,,,,0,29,29,29,1,110,160,,,,,,,,
,,659eb5c7f6628cdb16dcf1a7,65af5663db6f3bf0e8762321,2024-01-23_03h05.06.669,bars,2023.2.3,Win32,59.88023952,657b66ea316d21385b68909f,,,,,,,,,,,1827.9044,1828.8959,,,1829.3957,1829.6437,,106,106,,,,,,,,,,,,,,,,bars/004.png,bars/mask009.png,,,,,,,,,,,,0,2,,,,,,,8,0,9,0,,,,,,,,,,,1828.8959,1829.3957,1829.6438,1833.0621,space,3.3989,,1833.0621,81,19,1834.062,1834.062,1834.0706,,,,0,30,30,30,1,25,125,,,,,,,,
,,659eb5c7f6628cdb16dcf1a7,65af5663db6f3bf0e8762321,2024-01-23_03h05.06.669,bars,2023.2.3,Win32,59.88023952,657b66ea316d21385b68909f,,,,,,,,,,,1834.0707,1835.0612,,,1835.5572,1835.807,,15,15,,,,,,,,,,,,,,,,bars/043.png,bars/mask003.png,,,,,,,,,,,,5,1,,,,,,,10,0,10,2,,,,,,,,,,,1835.0612,1835.5571,1835.807,1836.7896,space,0.9624,,1836.7897,15,65,1837.789,1837.789,1837.7909,,,,0,31,31,31,1,30,130,,,,,,,,
,,659eb5c7f6628cdb16dcf1a7,65af5663db6f3bf0e8762321,2024-01-23_03h05.06.669,bars,2023.2.3,Win32,59.88023952,657b66ea316d21385b68909f,,,,,,,,,,,1837.7911,1838.7885,,,1839.2886,1839.5384,,73,73,,,,,,,,,,,,,,,,bars/044.png,bars/mask002.png,,,,,,,,,,,,8,1,,,,,,,10,0,9,0,,,,,,,,,,,1838.7887,1839.2885,1839.5385,1843.3193,space,3.7509,,1843.3193,2,82,1844.3189,1844.319,1844.3273,,,,0,32,32,32,1,75,155,,,,,,,,
,,659eb5c7f6628cdb16dcf1a7,65af5663db6f3bf0e8762321,2024-01-23_03h05.06.669,bars,2023.2.3,Win32,59.88023952,657b66ea316d21385b68909f,,,,,,,,,,,1844.3274,1845.3183,,,1845.8178,1846.068,,116,116,,,,,,,,,,,,,,,,bars/020.png,bars/mask000.png,,,,,,,,,,,,10,1,,,,,,,10,0,10,1,,,,,,,,,,,1845.3183,1845.8177,1846.068,1848.8372,space,2.7487,,1848.8372,1,54,1849.8325,1849.8325,1849.8415,,,,0,33,33,33,1,115,170,,,,,,,,
,,659eb5c7f6628cdb16dcf1a7,65af5663db6f3bf0e8762321,2024-01-23_03h05.06.669,bars,2023.2.3,Win32,59.88023952,657b66ea316d21385b68909f,,,,,,,,,,,1849.8416,1850.8359,,,1851.3327,1851.5842,,65,65,,,,,,,,,,,,,,,,bars/000.png,bars/mask005.png,,,,,,,,,,,,1,1,,,,,,,8,2,9,2,,,,,,,,,,,1850.8359,1851.3326,1851.5843,1855.432,space,3.8436,,1855.432,25,80,1856.4288,1856.4289,1856.4363,,,,0,34,34,34,1,40,145,,,,,,,,
,,659eb5c7f6628cdb16dcf1a7,65af5663db6f3bf0e8762321,2024-01-23_03h05.06.669,bars,2023.2.3,Win32,59.88023952,657b66ea316d21385b68909f,,,,,,,,,,,1856.4364,1857.4282,,,1857.9281,1858.1782,,19,199,,,,,,,,,,,,,,,,bars/045.png,bars/mask002.png,,,,,,,,,,,,4,2,,,,,,,10,4,10,5,,,,,,,,,,,1857.4283,1857.9279,1858.1783,1860.2102,space,2.0081,,1860.2104,81,9,1861.2095,1861.2096,1861.212,,,,0,35,35,35,1,100,10,,,,,,,,
,,659eb5c7f6628cdb16dcf1a7,65af5663db6f3bf0e8762321,2024-01-23_03h05.06.669,bars,2023.2.3,Win32,59.88023952,657b66ea316d21385b68909f,,,,,,,,,,,1861.2123,1862.2089,,,1862.709,1862.9583,,86,86,,,,,,,,,,,,,,,,bars/011.png,bars/mask004.png,,,,,,,,,,,,5,2,,,,,,,8,6,7,5,,,,,,,,,,,1862.209,1862.7089,1862.9584,1866.8063,space,3.8327,,1866.8064,74,1,1867.8056,1867.8058,1867.8121,,,,0,36,36,36,1,160,85,,,,,,,,
,,659eb5c7f6628cdb16dcf1a7,65af5663db6f3bf0e8762321,2024-01-23_03h05.06.669,bars,2023.2.3,Win32,59.88023952,657b66ea316d21385b68909f,,,,,,,,,,,1867.8123,1868.8054,,,1869.3052,1869.5553,,69,69,,,,,,,,,,,,,,,,bars/034.png,bars/mask006.png,,,,,,,,,,,,8,2,,,,,,,6,8,7,9,,,,,,,,,,,1868.8055,1869.3051,1869.5553,1874.1854,space,4.6078,,1874.1854,56,4,1875.1903,1875.1904,1875.1976,,,,0,37,37,37,1,125,65,,,,,,,,
,,659eb5c7f6628cdb16dcf1a7,65af5663db6f3bf0e8762321,2024-01-23_03h05.06.669,bars,2023.2.3,Win32,59.88023952,657b66ea316d21385b68909f,,,,,,,,,,,1875.1978,1876.2013,,,1876.7018,1876.9508,,48,48,,,,,,,,,,,,,,,,bars/025.png,bars/mask000.png,,,,,,,,,,,,5,2,,,,,,,8,6,8,7,,,,,,,,,,,1876.2014,1876.7017,1876.9509,1880.1533,space,3.1831,,1880.1533,57,8,1881.1482,1881.1483,1881.1549,,,,0,38,38,38,1,105,40,,,,,,,,
,,659eb5c7f6628cdb16dcf1a7,65af5663db6f3bf0e8762321,2024-01-23_03h05.06.669,bars,2023.2.3,Win32,59.88023952,657b66ea316d21385b68909f,,,,,,,,,,,1881.1551,1882.151,,,1882.6478,1882.8973,,105,105,,,,,,,,,,,,,,,,bars/012.png,bars/mask005.png,,,,,,,,,,,,5,1,,,,,,,10,4,9,3,,,,,,,,,,,1882.151,1882.6477,1882.8973,1885.5129,space,2.5938,,1885.513,15,90,1886.5157,1886.5158,1886.5227,,,,0,39,39,39,1,90,15,,,,,,,,
,,659eb5c7f6628cdb16dcf1a7,65af5663db6f3bf0e8762321,2024-01-23_03h05.06.669,bars,2023.2.3,Win32,59.88023952,657b66ea316d21385b68909f,,,,,,,,,,,1886.5228,1887.512,,,1888.0114,1888.2614,,161,161,,,,,,,,,,,,,,,,bars/038.png,bars/mask002.png,,,,,,,,,,,,9,1,,,,,,,10,2,10,3,,,,,,,,,,,1887.5121,1888.0113,1888.2615,1891.6806,space,3.3992,,1891.6807,4,89,1892.6756,1892.6757,1892.6849,,,,0,40,40,40,1,165,70,,,,,,,,
,,659eb5c7f6628cdb16dcf1a7,65af5663db6f3bf0e8762321,2024-01-23_03h05.06.669,bars,2023.2.3,Win32,59.88023952,657b66ea316d21385b68909f,,,,,,,,,,,1892.685,1893.6747,,,1894.1749,1894.425,,32,32,,,,,,,,,,,,,,,,bars/028.png,bars/mask003.png,,,,,,,,,,,,6,1,,,,,,,10,0,10,0,,,,,,,,,,,1893.6747,1894.1748,1894.4252,1896.207,space,1.7542,,1896.207,13,88,1897.2064,1897.2065,1897.2078,,,,0,41,41,41,1,45,120,,,,,,,,
,,659eb5c7f6628cdb16dcf1a7,65af5663db6f3bf0e8762321,2024-01-23_03h05.06.669,bars,2023.2.3,Win32,59.88023952,657b66ea316d21385b68909f,,,,,,,,,,,1897.2081,1898.2062,,,1898.7058,1898.9554,,173,-7,,,,,,,,,,,,,,,,bars/014.png,bars/mask004.png,,,,,,,,,,,,2,2,,,,,,,10,2,10,2,,,,,,,,,,,1898.2062,1898.7057,1898.9555,1901.0877,space,2.1009,,1901.0878,87,7,1902.0908,1902.0908,1902.1011,,,,0,42,42,42,1,80,0,,,,,,,,
,,659eb5c7f6628cdb16dcf1a7,65af5663db6f3bf0e8762321,2024-01-23_03h05.06.669,bars,2023.2.3,Win32,59.88023952,657b66ea316d21385b68909f,,,,,,,,,,,1902.1012,1903.1031,,,1903.6024,1903.8526,,54,54,,,,,,,,,,,,,,,,bars/017.png,bars/mask008.png,,,,,,,,,,,,0,2,,,,,,,8,0,8,0,,,,,,,,,,,1903.1031,1903.6024,1903.8527,1906.1016,space,2.2282,,1906.1017,89,9,1907.1008,1907.101,1907.1023,,,,0,43,43,43,1,145,45,,,,,,,,
,,659eb5c7f6628cdb16dcf1a7,65af5663db6f3bf0e8762321,2024-01-23_03h05.06.669,bars,2023.2.3,Win32,59.88023952,657b66ea316d21385b68909f,,,,,,,,,,,1907.1025,1908.1005,,,1908.6005,1908.8507,,123,123,,,,,,,,,,,,,,,,bars/031.png,bars/mask008.png,,,,,,,,,,,,5,1,,,,,,,6,0,6,0,,,,,,,,,,,1908.1006,1908.6004,1908.8508,1910.9653,space,2.0835,,1910.9653,3,88,1911.9668,1911.9668,1911.9743,,,,0,44,44,44,1,120,35,,,,,,,,
,,659eb5c7f6628cdb16dcf1a7,65af5663db6f3bf0e8762321,2024-01-23_03h05.06.669,bars,2023.2.3,Win32,59.88023952,657b66ea316d21385b68909f,,,,,,,,,,,1911.9743,1912.9649,,,1913.4638,1913.7142,,124,124,,,,,,,,,,,,,,,,bars/032.png,bars/mask001.png,,,,,,,,,,,,4,1,,,,,,,4,0,4,0,,,,,,,,,,,1912.9651,1913.4638,1913.7143,1916.4293,space,2.6834,,1916.4294,1,76,1917.4287,1917.4287,1917.4384,,,,0,45,45,45,1,125,20,,,,,,,,
,,659eb5c7f6628cdb16dcf1a7,65af5663db6f3bf0e8762321,2024-01-23_03h05.06.669,bars,2023.2.3,Win32,59.88023952,657b66ea316d21385b68909f,,,,,,,,,,,1917.4385,1918.428,,,1918.9279,1919.1788,,144,144,,,,,,,,,,,,,,,,bars/040.png,bars/mask000.png,,,,,,,,,,,,3,1,,,,,,,6,2,4,2,,,,,,,,,,,1918.4281,1918.9278,1919.1789,1921.8282,space,2.6305,,1921.8282,4,41,1922.8255,1922.8256,1922.8347,,,,0,46,46,46,1,140,5,,,,,,,,
,,659eb5c7f6628cdb16dcf1a7,65af5663db6f3bf0e8762321,2024-01-23_03h05.06.669,bars,2023.2.3,Win32,59.88023952,657b66ea316d21385b68909f,,,,,,,,,,,1922.8348,1923.8286,,,1924.3249,1924.5745,,62,62,,,,,,,,,,,,,,,,bars/027.png,bars/mask008.png,,,,,,,,,,,,2,2,,,,,,,4,4,4,4,,,,,,,,,,,1923.8286,1924.3249,1924.5746,1927.4565,space,2.8729,,1927.4566,48,12,1928.4555,1928.4555,1928.4631,,,,0,47,47,47,1,110,50,,,,,,,,
,,659eb5c7f6628cdb16dcf1a7,65af5663db6f3bf0e8762321,2024-01-23_03h05.06.669,bars,2023.2.3,Win32,59.88023952,657b66ea316d21385b68909f,,,,,,,,,,,1928.4632,1929.4551,,,1929.9551,1930.2079,,52,52,,,,,,,,,,,,,,,,bars/031.png,bars/mask001.png,,,,,,,,,,,,2,2,,,,,,,6,6,7,5,,,,,,,,,,,1929.4552,1929.955,1930.208,1935.1357,space,4.9168,,1935.1358,68,17,1936.1366,1936.1366,1936.142,,,,0,48,48,48,1,120,35,,,,,,,,
,,659eb5c7f6628cdb16dcf1a7,65af5663db6f3bf0e8762321,2024-01-23_03h05.06.669,bars,2023.2.3,Win32,59.88023952,657b66ea316d21385b68909f,,,,,,,,,,,1936.1421,1937.1343,,,1937.6345,1937.8835,,46,46,,,,,,,,,,,,,,,,bars/016.png,bars/mask000.png,,,,,,,,,,,,7,1,,,,,,,8,8,9,8,,,,,,,,,,,1937.1343,1937.6343,1937.8836,1939.9331,space,2.0337,,1939.9332,6,61,1940.9325,1940.9326,1940.9409,,,,0,49,49,49,1,40,165,,,,,,,,
,,659eb5c7f6628cdb16dcf1a7,65af5663db6f3bf0e8762321,2024-01-23_03h05.06.669,bars,2023.2.3,Win32,59.88023952,657b66ea316d21385b68909f,,,,,,,,,,,,,,,,,,,,,,,,,,,,,,,,,,,,,,,,,,,,,,,,,,,,,,,,,,,,,,,,,,,,,,,,,,,,,,,,,,,,,,,,,,,,,1940.941,2007.5448,0,3,3,1,1,sequence_tables/blk034.csv
,,659eb5c7f6628cdb16dcf1a7,65af5663db6f3bf0e8762321,2024-01-23_03h05.06.669,bars,2023.2.3,Win32,59.88023952,657b66ea316d21385b68909f,,,,,,,,,,,2008.9147,2009.9095,,,2010.41,2010.6599,,115,115,,,,,,,,,,,,,,,,bars/004.png,bars/mask007.png,,,,,,,,,,,,5,2,,,,,,,1,9,1,7,,,,,,2007.5553,2008.9113,space,1.349,,2009.9095,2010.4099,2010.66,2012.5128,space,1.8372,,2012.5128,90,10,2013.5093,2013.5094,2013.511,,,,0,0,0,0,1,25,125,,,,,,,,
,,659eb5c7f6628cdb16dcf1a7,65af5663db6f3bf0e8762321,2024-01-23_03h05.06.669,bars,2023.2.3,Win32,59.88023952,657b66ea316d21385b68909f,,,,,,,,,,,2013.5112,2014.5073,,,2015.0075,2015.2569,,19,199,,,,,,,,,,,,,,,,bars/008.png,bars/mask004.png,,,,,,,,,,,,2,2,,,,,,,3,7,5,6,,,,,,,,,,,2014.5074,2015.0074,2015.257,2018.3727,space,3.0994,,2018.3727,89,19,2019.3714,2019.3715,2019.3797,,,,0,1,1,1,1,110,0,,,,,,,,
,,659eb5c7f6628cdb16dcf1a7,65af5663db6f3bf0e8762321,2024-01-23_03h05.06.669,bars,2023.2.3,Win32,59.88023952,657b66ea316d21385b68909f,,,,,,,,,,,2019.3799,2020.3711,,,2020.8706,2021.1204,,11,191,,,,,,,,,,,,,,,,bars/032.png,bars/mask001.png,,,,,,,,,,,,6,2,,,,,,,5,9,4,9,,,,,,,,,,,2020.3711,2020.8706,2021.1205,2022.6537,space,1.5168,,2022.6537,66,9,2023.6522,2023.6522,2023.653,,,,0,2,2,2,1,125,20,,,,,,,,
,,659eb5c7f6628cdb16dcf1a7,65af5663db6f3bf0e8762321,2024-01-23_03h05.06.669,bars,2023.2.3,Win32,59.88023952,657b66ea316d21385b68909f,,,,,,,,,,,2023.6532,2024.652,,,2025.1514,2025.4017,,167,167,,,,,,,,,,,,,,,,bars/036.png,bars/mask007.png,,,,,,,,,,,,1,1,,,,,,,3,7,5,10,,,,,,,,,,,2024.652,2025.1514,2025.4017,2028.3999,space,2.9825,,2028.3999,22,33,2029.3994,2029.3994,2029.4096,,,,0,3,3,3,1,145,20,,,,,,,,
,,659eb5c7f6628cdb16dcf1a7,65af5663db6f3bf0e8762321,2024-01-23_03h05.06.669,bars,2023.2.3,Win32,59.88023952,657b66ea316d21385b68909f,,,,,,,,,,,2029.4097,2030.3987,,,2030.8982,2031.1482,,133,-47,,,,,,,,,,,,,,,,bars/034.png,bars/mask007.png,,,,,,,,,,,,1,1,,,,,,,1,5,1,4,,,,,,,,,,,2030.3987,2030.8982,2031.1482,2035.3297,space,4.1651,,2035.3297,8,68,2036.3286,2036.3288,2036.3374,,,,0,4,4,4,1,125,65,,,,,,,,
,,659eb5c7f6628cdb16dcf1a7,65af5663db6f3bf0e8762321,2024-01-23_03h05.06.669,bars,2023.2.3,Win32,59.88023952,657b66ea316d21385b68909f,,,,,,,,,,,2036.3375,2037.3281,,,2037.8275,2038.0776,,137,137,,,,,,,,,,,,,,,,bars/023.png,bars/mask000.png,,,,,,,,,,,,0,2,,,,,,,3,3,5,1,,,,,,,,,,,2037.3281,2037.8274,2038.0776,2042.5259,space,4.4319,,2042.5259,63,22,2043.5246,2043.5247,2043.5346,,,,0,5,5,5,1,20,115,,,,,,,,
,,659eb5c7f6628cdb16dcf1a7,65af5663db6f3bf0e8762321,2024-01-23_03h05.06.669,bars,2023.2.3,Win32,59.88023952,657b66ea316d21385b68909f,,,,,,,,,,,2043.5347,2044.5242,,,2045.0242,2045.2738,,113,113,,,,,,,,,,,,,,,,bars/001.png,bars/mask002.png,,,,,,,,,,,,3,1,,,,,,,5,1,7,2,,,,,,,,,,,2044.5243,2045.0241,2045.2739,2046.757,space,1.4669,,2046.7571,17,28,2047.7558,2047.7559,2047.7578,,,,0,6,6,6,1,130,85,,,,,,,,
,,659eb5c7f6628cdb16dcf1a7,65af5663db6f3bf0e8762321,2024-01-23_03h05.06.669,bars,2023.2.3,Win32,59.88023952,657b66ea316d21385b68909f,,,,,,,,,,,2047.7582,2048.7552,,,2049.2548,2049.5047,,41,221,,,,,,,,,,,,,,,,bars/003.png,bars/mask004.png,,,,,,,,,,,,1,1,,,,,,,3,3,3,3,,,,,,,,,,,2048.7553,2049.2547,2049.5049,2053.0701,space,3.5489,,2053.0701,16,81,2054.069,2054.069,2054.0777,,,,0,7,7,7,1,25,140,,,,,,,,
,,659eb5c7f6628cdb16dcf1a7,65af5663db6f3bf0e8762321,2024-01-23_03h05.06.669,bars,2023.2.3,Win32,59.88023952,657b66ea316d21385b68909f,,,,,,,,,,,2054.0778,2055.0681,,,2055.5686,2055.8182,,13,13,,,,,,,,,,,,,,,,bars/007.png,bars/mask008.png,,,,,,,,,,,,1,1,,,,,,,5,1,3,1,,,,,,,,,,,2055.0681,2055.5686,2055.8183,2061.2152,space,5.3813,,2061.2152,18,42,2062.2143,2062.2144,2062.2223,,,,0,8,8,8,1,175,55,,,,,,,,
,,659eb5c7f6628cdb16dcf1a7,65af5663db6f3bf0e8762321,2024-01-23_03h05.06.669,bars,2023.2.3,Win32,59.88023952,657b66ea316d21385b68909f,,,,,,,,,,,2062.2224,2063.2136,,,2063.7136,2063.9643,,5,5,,,,,,,,,,,,,,,,bars/020.png,bars/mask001.png,,,,,,,,,,,,3,2,,,,,,,3,3,2,5,,,,,,,,,,,2063.2136,2063.7136,2063.9644,2065.2636,space,1.2827,,2065.2636,70,15,2066.262,2066.262,2066.264,,,,0,9,9,9,1,115,170,,,,,,,,
,,659eb5c7f6628cdb16dcf1a7,65af5663db6f3bf0e8762321,2024-01-23_03h05.06.669,bars,2023.2.3,Win32,59.88023952,657b66ea316d21385b68909f,,,,,,,,,,,2066.2643,2067.2617,,,2067.7614,2068.0114,,123,123,,,,,,,,,,,,,,,,bars/005.png,bars/mask004.png,,,,,,,,,,,,0,2,,,,,,,1,1,0,0,,,,,,,,,,,2067.2619,2067.7613,2068.0114,2070.0942,space,2.0666,,2070.0943,67,17,2071.093,2071.0931,2071.1021,,,,0,10,10,10,1,10,140,,,,,,,,
,,659eb5c7f6628cdb16dcf1a7,65af5663db6f3bf0e8762321,2024-01-23_03h05.06.669,bars,2023.2.3,Win32,59.88023952,657b66ea316d21385b68909f,,,,,,,,,,,2071.1021,2072.0916,,,2072.592,2072.8421,,35,215,,,,,,,,,,,,,,,,bars/000.png,bars/mask003.png,,,,,,,,,,,,3,1,,,,,,,3,0,3,0,,,,,,,,,,,2072.0916,2072.592,2072.8422,2076.2739,space,3.4155,,2076.274,5,70,2077.2727,2077.2728,2077.2793,,,,0,11,11,11,1,40,145,,,,,,,,
