init_variables.started,init_variables.stopped,participant,session,date,expName,psychopyVersion,OS,frameRate,study_id,instruction_exp.started,instruction_exp.stopped,key_resp_8.keys,key_resp_8.rt,key_resp_8.duration,instruction_single.started,instruction_single.stopped,key_resp_2.keys,key_resp_2.rt,key_resp_2.duration,interval.started,interval.stopped,cue_single.started,cue_single.stopped,mask.started,mask.stopped,ori_response_single.started,res_ori,res,ori_response_single.stopped,key_resp_single.keys,key_resp_single.rt,key_resp_single.duration,disp_single.started,disp_single.stopped,key_resp.keys,key_resp.rt,key_resp.duration,single.thisRepN,single.thisTrialN,single.thisN,single.thisIndex,single.ran,ori,path,mask_path,instruction_bandit.started,instruction_bandit.stopped,key_resp_6.keys,key_resp_6.rt,key_resp_6.duration,cue_bandit.started,cue_bandit.stopped,bandit_res.keys,bandit_res.rt,bandit_res.duration,outcome_bandit.started,rew,action,outcome_bandit.stopped,bandit.thisRepN,bandit.thisTrialN,bandit.thisN,bandit.thisIndex,bandit.ran,actual_rew1,actual_rew2,rew1,rew2,instruction_task.started,instruction_task.stopped,key_resp_7.keys,key_resp_7.rt,key_resp_7.duration,wait_ready.started,wait_ready.stopped,key_resp_3.keys,key_resp_3.rt,key_resp_3.duration,cue.started,cue.stopped,ori_response.started,ori_response.stopped,key_resp_5.keys,key_resp_5.rt,key_resp_5.duration,outcome.started,diff1,diff2,outcome.stopped,disp_outcome_practice.started,disp_outcome_practice.stopped,key_resp_4.keys,key_resp_4.rt,key_resp_4.duration,trials.thisRepN,trials.thisTrialN,trials.thisN,trials.thisIndex,trials.ran,ori1,ori2,break_blk.started,break_blk.stopped,block.thisRepN,block.thisTrialN,block.thisN,block.thisIndex,block.ran,condition_file
0.0004,0.0005,616286682f7e620d716dae78,65af5607b73447736efa8ac8,2024-01-23_08h04.38.978,bars,2023.2.3,Win32,60.97560976,657b66ea316d21385b68909f,,,,,,,,,,,,,,,,,,,,,,,,,,,,,,,,,,,,,,,,,,,,,,,,,,,,,,,,,,,,,,,,,,,,,,,,,,,,,,,,,,,,,,,,,,,,,,,,,,,,
,,616286682f7e620d716dae78,65af5607b73447736efa8ac8,2024-01-23_08h04.38.978,bars,2023.2.3,Win32,60.97560976,657b66ea316d21385b68909f,0.0008,14.2701,y,14.2548,,,,,,,,,,,,,,,,,,,,,,,,,,,,,,,,,,,,,,,,,,,,,,,,,,,,,,,,,,,,,,,,,,,,,,,,,,,,,,,,,,,,,,,,,,,,,,,,
,,616286682f7e620d716dae78,65af5607b73447736efa8ac8,2024-01-23_08h04.38.978,bars,2023.2.3,Win32,60.97560976,657b66ea316d21385b68909f,,,,,,14.2705,90.6191,space,76.3212,,,,,,,,,,,,,,,,,,,,,,,,,,,,,,,,,,,,,,,,,,,,,,,,,,,,,,,,,,,,,,,,,,,,,,,,,,,,,,,,,,,,,,,,,,,
,,616286682f7e620d716dae78,65af5607b73447736efa8ac8,2024-01-23_08h04.38.978,bars,2023.2.3,Win32,60.97560976,657b66ea316d21385b68909f,,,,,,,,,,,90.6654,91.6337,91.6341,92.1219,92.1223,92.3675,92.368,48,48,105.4344,space,13.0085,,105.4348,121.4009,space,15.9047,,0,0,0,7,1,45,bars/single007.png,bars/mask009.png,,,,,,,,,,,,,,,,,,,,,,,,,,,,,,,,,,,,,,,,,,,,,,,,,,,,,,,,,,,,,,,,
,,616286682f7e620d716dae78,65af5607b73447736efa8ac8,2024-01-23_08h04.38.978,bars,2023.2.3,Win32,60.97560976,657b66ea316d21385b68909f,,,,,,,,,,,121.4325,122.4157,122.4158,122.9159,122.916,123.1654,123.1658,104,104,126.9328,space,3.7446,,126.9329,136.6986,space,9.7188,,0,1,1,8,1,160,bars/single008.png,bars/mask004.png,,,,,,,,,,,,,,,,,,,,,,,,,,,,,,,,,,,,,,,,,,,,,,,,,,,,,,,,,,,,,,,,
,,616286682f7e620d716dae78,65af5607b73447736efa8ac8,2024-01-23_08h04.38.978,bars,2023.2.3,Win32,60.97560976,657b66ea316d21385b68909f,,,,,,,,,,,136.7291,137.7145,137.7145,138.2132,138.2132,138.4644,138.4645,78,78,143.6145,space,5.1344,,143.6147,154.4139,space,10.7521,,0,2,2,9,1,20,bars/single009.png,bars/mask006.png,,,,,,,,,,,,,,,,,,,,,,,,,,,,,,,,,,,,,,,,,,,,,,,,,,,,,,,,,,,,,,,,
,,616286682f7e620d716dae78,65af5607b73447736efa8ac8,2024-01-23_08h04.38.978,bars,2023.2.3,Win32,60.97560976,657b66ea316d21385b68909f,,,,,,,,,,,154.444,155.4304,155.4305,155.9177,155.9178,156.1637,156.1639,52,52,159.8307,space,3.6506,,159.8308,167.0804,space,7.2018,,0,3,3,1,1,20,bars/single001.png,bars/mask006.png,,,,,,,,,,,,,,,,,,,,,,,,,,,,,,,,,,,,,,,,,,,,,,,,,,,,,,,,,,,,,,,,
,,616286682f7e620d716dae78,65af5607b73447736efa8ac8,2024-01-23_08h04.38.978,bars,2023.2.3,Win32,60.97560976,657b66ea316d21385b68909f,,,,,,,,,,,167.1116,168.0963,168.0965,168.5962,168.5962,168.8463,168.8464,30,30,217.2943,space,48.4344,,217.2944,225.6776,space,8.3416,,0,4,4,3,1,20,bars/single003.png,bars/mask005.png,,,,,,,,,,,,,,,,,,,,,,,,,,,,,,,,,,,,,,,,,,,,,,,,,,,,,,,,,,,,,,,,
,,616286682f7e620d716dae78,65af5607b73447736efa8ac8,2024-01-23_08h04.38.978,bars,2023.2.3,Win32,60.97560976,657b66ea316d21385b68909f,,,,,,,,,,,225.7091,226.6936,226.6937,227.1935,227.1935,227.4436,227.4437,34,34,233.6436,space,6.1834,,233.6438,236.2147,space,2.5313,,0,5,5,6,1,175,bars/single006.png,bars/mask005.png,,,,,,,,,,,,,,,,,,,,,,,,,,,,,,,,,,,,,,,,,,,,,,,,,,,,,,,,,,,,,,,,
,,616286682f7e620d716dae78,65af5607b73447736efa8ac8,2024-01-23_08h04.38.978,bars,2023.2.3,Win32,60.97560976,657b66ea316d21385b68909f,,,,,,,,,,,236.244,237.2262,237.2263,237.7261,237.7262,237.9759,237.9761,144,144,245.6092,space,7.6219,,245.6094,247.2599,space,1.6013,,0,6,6,0,1,150,bars/single000.png,bars/mask006.png,,,,,,,,,,,,,,,,,,,,,,,,,,,,,,,,,,,,,,,,,,,,,,,,,,,,,,,,,,,,,,,,
,,616286682f7e620d716dae78,65af5607b73447736efa8ac8,2024-01-23_08h04.38.978,bars,2023.2.3,Win32,60.97560976,657b66ea316d21385b68909f,,,,,,,,,,,247.2608,248.2594,248.2595,248.7593,248.7593,249.0091,249.0092,41,41,252.1428,space,3.1199,,252.1428,255.2429,space,3.052,,0,7,7,5,1,55,bars/single005.png,bars/mask008.png,,,,,,,,,,,,,,,,,,,,,,,,,,,,,,,,,,,,,,,,,,,,,,,,,,,,,,,,,,,,,,,,
,,616286682f7e620d716dae78,65af5607b73447736efa8ac8,2024-01-23_08h04.38.978,bars,2023.2.3,Win32,60.97560976,657b66ea316d21385b68909f,,,,,,,,,,,255.2439,256.242,256.2421,256.7422,256.7422,256.9919,256.992,80,80,262.6434,space,5.6265,,262.6435,264.0919,space,1.4052,,0,8,8,4,1,95,bars/single004.png,bars/mask004.png,,,,,,,,,,,,,,,,,,,,,,,,,,,,,,,,,,,,,,,,,,,,,,,,,,,,,,,,,,,,,,,,
,,616286682f7e620d716dae78,65af5607b73447736efa8ac8,2024-01-23_08h04.38.978,bars,2023.2.3,Win32,60.97560976,657b66ea316d21385b68909f,,,,,,,,,,,264.0928,265.0921,265.0922,265.5918,265.5919,265.8419,265.842,159,159,270.0086,space,4.1409,,270.0087,270.6752,space,0.6225,,0,9,9,2,1,145,bars/single002.png,bars/mask003.png,,,,,,,,,,,,,,,,,,,,,,,,,,,,,,,,,,,,,,,,,,,,,,,,,,,,,,,,,,,,,,,,
,,616286682f7e620d716dae78,65af5607b73447736efa8ac8,2024-01-23_08h04.38.978,bars,2023.2.3,Win32,60.97560976,657b66ea316d21385b68909f,,,,,,,,,,,,,,,,,,,,,,,,,,,,,,,,,,,,,270.6773,306.6416,space,35.9417,,,,,,,,,,,,,,,,,,,,,,,,,,,,,,,,,,,,,,,,,,,,,,,,,,,,,,,,,,,,
,,616286682f7e620d716dae78,65af5607b73447736efa8ac8,2024-01-23_08h04.38.978,bars,2023.2.3,Win32,60.97560976,657b66ea316d21385b68909f,,,,,,,,,,,,,,,,,,,,,,,,,,,,,,,,,,,,,,,,,,306.6773,313.8571,left,7.1468,,313.8575,9,1,314.8562,0,0,0,0,1,9,1,9,2,,,,,,,,,,,,,,,,,,,,,,,,,,,,,,,,,,,,,,,,,
,,616286682f7e620d716dae78,65af5607b73447736efa8ac8,2024-01-23_08h04.38.978,bars,2023.2.3,Win32,60.97560976,657b66ea316d21385b68909f,,,,,,,,,,,,,,,,,,,,,,,,,,,,,,,,,,,,,,,,,,314.8575,317.8558,left,2.9721,,317.8563,10,1,318.8561,0,1,1,1,1,10,0,10,1,,,,,,,,,,,,,,,,,,,,,,,,,,,,,,,,,,,,,,,,,
,,616286682f7e620d716dae78,65af5607b73447736efa8ac8,2024-01-23_08h04.38.978,bars,2023.2.3,Win32,60.97560976,657b66ea316d21385b68909f,,,,,,,,,,,,,,,,,,,,,,,,,,,,,,,,,,,,,,,,,,318.8859,320.789,right,1.8894,,320.7891,2,2,321.7892,0,2,2,2,1,10,2,10,2,,,,,,,,,,,,,,,,,,,,,,,,,,,,,,,,,,,,,,,,,
,,616286682f7e620d716dae78,65af5607b73447736efa8ac8,2024-01-23_08h04.38.978,bars,2023.2.3,Win32,60.97560976,657b66ea316d21385b68909f,,,,,,,,,,,,,,,,,,,,,,,,,,,,,,,,,,,,,,,,,,321.7902,323.7721,right,1.9677,,323.7722,3,2,324.7715,0,3,3,3,1,8,4,7,3,,,,,,,,,,,,,,,,,,,,,,,,,,,,,,,,,,,,,,,,,
,,616286682f7e620d716dae78,65af5607b73447736efa8ac8,2024-01-23_08h04.38.978,bars,2023.2.3,Win32,60.97560976,657b66ea316d21385b68909f,,,,,,,,,,,,,,,,,,,,,,,,,,,,,,,,,,,,,,,,,,324.8005,325.6385,left,0.8263,,325.6387,5,1,326.6383,0,4,4,4,1,6,2,5,1,,,,,,,,,,,,,,,,,,,,,,,,,,,,,,,,,,,,,,,,,
,,616286682f7e620d716dae78,65af5607b73447736efa8ac8,2024-01-23_08h04.38.978,bars,2023.2.3,Win32,60.97560976,657b66ea316d21385b68909f,,,,,,,,,,,,,,,,,,,,,,,,,,,,,,,,,,,,,,,,,,326.6391,328.2386,left,1.5853,,328.2388,4,1,329.2383,0,5,5,5,1,4,4,4,4,,,,,,,,,,,,,,,,,,,,,,,,,,,,,,,,,,,,,,,,,
,,616286682f7e620d716dae78,65af5607b73447736efa8ac8,2024-01-23_08h04.38.978,bars,2023.2.3,Win32,60.97560976,657b66ea316d21385b68909f,,,,,,,,,,,,,,,,,,,,,,,,,,,,,,,,,,,,,,,,,,329.2668,329.8717,right,0.594,,329.8717,2,2,330.8714,0,6,6,6,1,2,2,1,2,,,,,,,,,,,,,,,,,,,,,,,,,,,,,,,,,,,,,,,,,
,,616286682f7e620d716dae78,65af5607b73447736efa8ac8,2024-01-23_08h04.38.978,bars,2023.2.3,Win32,60.97560976,657b66ea316d21385b68909f,,,,,,,,,,,,,,,,,,,,,,,,,,,,,,,,,,,,,,,,,,330.8723,331.3214,right,0.4369,,331.3214,1,2,332.3214,0,7,7,7,1,0,0,0,1,,,,,,,,,,,,,,,,,,,,,,,,,,,,,,,,,,,,,,,,,
,,616286682f7e620d716dae78,65af5607b73447736efa8ac8,2024-01-23_08h04.38.978,bars,2023.2.3,Win32,60.97560976,657b66ea316d21385b68909f,,,,,,,,,,,,,,,,,,,,,,,,,,,,,,,,,,,,,,,,,,332.3224,332.7548,left,0.42,,332.755,1,1,333.7543,0,8,8,8,1,0,2,1,0,,,,,,,,,,,,,,,,,,,,,,,,,,,,,,,,,,,,,,,,,
,,616286682f7e620d716dae78,65af5607b73447736efa8ac8,2024-01-23_08h04.38.978,bars,2023.2.3,Win32,60.97560976,657b66ea316d21385b68909f,,,,,,,,,,,,,,,,,,,,,,,,,,,,,,,,,,,,,,,,,,333.7552,334.2723,left,0.5092,,334.2724,2,1,335.2707,0,9,9,9,1,2,4,2,3,,,,,,,,,,,,,,,,,,,,,,,,,,,,,,,,,,,,,,,,,
,,616286682f7e620d716dae78,65af5607b73447736efa8ac8,2024-01-23_08h04.38.978,bars,2023.2.3,Win32,60.97560976,657b66ea316d21385b68909f,,,,,,,,,,,,,,,,,,,,,,,,,,,,,,,,,,,,,,,,,,335.2717,335.9048,left,0.6183,,335.9049,0,1,336.9043,0,10,10,10,1,0,2,0,3,,,,,,,,,,,,,,,,,,,,,,,,,,,,,,,,,,,,,,,,,
,,616286682f7e620d716dae78,65af5607b73447736efa8ac8,2024-01-23_08h04.38.978,bars,2023.2.3,Win32,60.97560976,657b66ea316d21385b68909f,,,,,,,,,,,,,,,,,,,,,,,,,,,,,,,,,,,,,,,,,,336.905,338.2048,right,1.2875,,338.2049,3,2,339.2044,0,11,11,11,1,0,4,0,3,,,,,,,,,,,,,,,,,,,,,,,,,,,,,,,,,,,,,,,,,
,,616286682f7e620d716dae78,65af5607b73447736efa8ac8,2024-01-23_08h04.38.978,bars,2023.2.3,Win32,60.97560976,657b66ea316d21385b68909f,,,,,,,,,,,,,,,,,,,,,,,,,,,,,,,,,,,,,,,,,,339.2051,340.2214,right,1.0007,,340.2214,6,2,341.2208,0,12,12,12,1,2,6,1,6,,,,,,,,,,,,,,,,,,,,,,,,,,,,,,,,,,,,,,,,,
,,616286682f7e620d716dae78,65af5607b73447736efa8ac8,2024-01-23_08h04.38.978,bars,2023.2.3,Win32,60.97560976,657b66ea316d21385b68909f,,,,,,,,,,,,,,,,,,,,,,,,,,,,,,,,,,,,,,,,,,341.2216,341.9544,right,0.7154,,341.9545,3,2,342.9543,0,13,13,13,1,0,4,1,3,,,,,,,,,,,,,,,,,,,,,,,,,,,,,,,,,,,,,,,,,
,,616286682f7e620d716dae78,65af5607b73447736efa8ac8,2024-01-23_08h04.38.978,bars,2023.2.3,Win32,60.97560976,657b66ea316d21385b68909f,,,,,,,,,,,,,,,,,,,,,,,,,,,,,,,,,,,,,,,,,,342.9551,343.7876,left,0.8189,,343.7877,2,1,344.7873,0,14,14,14,1,2,6,2,7,,,,,,,,,,,,,,,,,,,,,,,,,,,,,,,,,,,,,,,,,
,,616286682f7e620d716dae78,65af5607b73447736efa8ac8,2024-01-23_08h04.38.978,bars,2023.2.3,Win32,60.97560976,657b66ea316d21385b68909f,,,,,,,,,,,,,,,,,,,,,,,,,,,,,,,,,,,,,,,,,,344.7882,345.4206,left,0.6211,,345.4207,3,1,346.4212,0,15,15,15,1,4,8,3,9,,,,,,,,,,,,,,,,,,,,,,,,,,,,,,,,,,,,,,,,,
,,616286682f7e620d716dae78,65af5607b73447736efa8ac8,2024-01-23_08h04.38.978,bars,2023.2.3,Win32,60.97560976,657b66ea316d21385b68909f,,,,,,,,,,,,,,,,,,,,,,,,,,,,,,,,,,,,,,,,,,346.4219,347.1371,right,0.7002,,347.1372,7,2,348.1374,0,16,16,16,1,6,6,7,7,,,,,,,,,,,,,,,,,,,,,,,,,,,,,,,,,,,,,,,,,
,,616286682f7e620d716dae78,65af5607b73447736efa8ac8,2024-01-23_08h04.38.978,bars,2023.2.3,Win32,60.97560976,657b66ea316d21385b68909f,,,,,,,,,,,,,,,,,,,,,,,,,,,,,,,,,,,,,,,,,,348.1382,348.7536,right,0.6005,,348.7537,5,2,349.7537,0,17,17,17,1,8,4,9,5,,,,,,,,,,,,,,,,,,,,,,,,,,,,,,,,,,,,,,,,,
,,616286682f7e620d716dae78,65af5607b73447736efa8ac8,2024-01-23_08h04.38.978,bars,2023.2.3,Win32,60.97560976,657b66ea316d21385b68909f,,,,,,,,,,,,,,,,,,,,,,,,,,,,,,,,,,,,,,,,,,349.7545,350.5708,left,0.8027,,350.5709,5,1,351.5703,0,18,18,18,1,6,2,5,1,,,,,,,,,,,,,,,,,,,,,,,,,,,,,,,,,,,,,,,,,
,,616286682f7e620d716dae78,65af5607b73447736efa8ac8,2024-01-23_08h04.38.978,bars,2023.2.3,Win32,60.97560976,657b66ea316d21385b68909f,,,,,,,,,,,,,,,,,,,,,,,,,,,,,,,,,,,,,,,,,,351.5712,352.5534,right,0.9689,,352.5535,0,2,353.5538,0,19,19,19,1,8,0,7,0,,,,,,,,,,,,,,,,,,,,,,,,,,,,,,,,,,,,,,,,,
,,616286682f7e620d716dae78,65af5607b73447736efa8ac8,2024-01-23_08h04.38.978,bars,2023.2.3,Win32,60.97560976,657b66ea316d21385b68909f,,,,,,,,,,,,,,,,,,,,,,,,,,,,,,,,,,,,,,,,,,,,,,,,,,,,,,,,,,,,353.5554,370.7047,space,17.1219,,,,,,,,,,,,,,,,,,,,,,,,,,,,,,,,,,,,,
,,616286682f7e620d716dae78,65af5607b73447736efa8ac8,2024-01-23_08h04.38.978,bars,2023.2.3,Win32,60.97560976,657b66ea316d21385b68909f,,,,,,,,,,,372.0141,373.0028,,,373.5037,373.7525,,162,162,,,,,,,,,,,,,,,,bars/025.png,bars/mask008.png,,,,,,,,,,,,0,1,,,,,,,5,7,6,8,,,,,,370.7401,372.0033,space,1.2431,,373.0033,373.5036,373.7531,380.5541,space,6.7723,,380.5547,57,58,381.5525,381.5531,393.321,space,11.736,,0,0,0,0,1,105,40,,,,,,,,
,,616286682f7e620d716dae78,65af5607b73447736efa8ac8,2024-01-23_08h04.38.978,bars,2023.2.3,Win32,60.97560976,657b66ea316d21385b68909f,,,,,,,,,,,393.3514,394.3347,,,394.8357,395.0851,,19,19,,,,,,,,,,,,,,,,bars/007.png,bars/mask000.png,,,,,,,,,,,,1,1,,,,,,,7,9,5,8,,,,,,,,,,,394.3348,394.8356,395.0853,399.9518,space,4.8398,,399.9521,24,36,400.9515,400.9517,405.9516,space,4.9549,,0,1,1,1,1,175,55,,,,,,,,
,,616286682f7e620d716dae78,65af5607b73447736efa8ac8,2024-01-23_08h04.38.978,bars,2023.2.3,Win32,60.97560976,657b66ea316d21385b68909f,,,,,,,,,,,405.9806,406.9681,,,407.472,407.7174,,56,56,,,,,,,,,,,,,,,,bars/010.png,bars/mask001.png,,,,,,,,,,,,10,2,,,,,,,5,10,4,10,,,,,,,,,,,406.9681,407.4719,407.7176,409.9519,space,2.2115,,409.952,71,1,410.9517,410.9518,415.5012,space,4.5237,,0,2,2,2,1,165,55,,,,,,,,
,,616286682f7e620d716dae78,65af5607b73447736efa8ac8,2024-01-23_08h04.38.978,bars,2023.2.3,Win32,60.97560976,657b66ea316d21385b68909f,,,,,,,,,,,415.5303,416.5172,,,417.0175,417.2713,,91,91,,,,,,,,,,,,,,,,bars/019.png,bars/mask006.png,,,,,,,,,,,,5,2,,,,,,,3,10,2,9,,,,,,,,,,,416.5173,417.0174,417.2715,420.7008,space,3.4063,,420.701,46,14,421.7006,421.7007,429.1674,space,7.4179,,0,3,3,3,1,45,105,,,,,,,,
,,616286682f7e620d716dae78,65af5607b73447736efa8ac8,2024-01-23_08h04.38.978,bars,2023.2.3,Win32,60.97560976,657b66ea316d21385b68909f,,,,,,,,,,,429.1967,430.1829,,,430.6833,430.9334,,100,100,,,,,,,,,,,,,,,,bars/039.png,bars/mask007.png,,,,,,,,,,,,8,2,,,,,,,1,10,0,10,,,,,,,,,,,430.1829,430.6832,430.9335,436.9503,space,6.0012,,436.9503,75,5,437.9497,437.9498,445.0835,space,7.0893,,0,4,4,4,1,175,105,,,,,,,,
,,616286682f7e620d716dae78,65af5607b73447736efa8ac8,2024-01-23_08h04.38.978,bars,2023.2.3,Win32,60.97560976,657b66ea316d21385b68909f,,,,,,,,,,,445.1127,446.0991,,,446.5993,446.8497,,126,126,,,,,,,,,,,,,,,,bars/049.png,bars/mask004.png,,,,,,,,,,,,6,2,,,,,,,0,10,1,10,,,,,,,,,,,446.0992,446.5993,446.8498,453.2163,space,6.3415,,453.2165,34,11,454.216,454.2161,455.5324,space,1.2659,,0,5,5,5,1,160,115,,,,,,,,
,,616286682f7e620d716dae78,65af5607b73447736efa8ac8,2024-01-23_08h04.38.978,bars,2023.2.3,Win32,60.97560976,657b66ea316d21385b68909f,,,,,,,,,,,455.533,456.5319,,,457.0322,457.282,,20,20,,,,,,,,,,,,,,,,bars/032.png,bars/mask009.png,,,,,,,,,,,,10,2,,,,,,,2,8,1,10,,,,,,,,,,,456.532,457.0321,457.2821,461.7486,space,4.4556,,461.7488,75,0,462.7484,462.7485,467.0149,space,4.2174,,0,6,6,6,1,125,20,,,,,,,,
,,616286682f7e620d716dae78,65af5607b73447736efa8ac8,2024-01-23_08h04.38.978,bars,2023.2.3,Win32,60.97560976,657b66ea316d21385b68909f,,,,,,,,,,,467.0432,468.0312,,,468.531,468.7815,,9,189,,,,,,,,,,,,,,,,bars/036.png,bars/mask004.png,,,,,,,,,,,,3,2,,,,,,,0,6,0,5,,,,,,,,,,,468.0313,468.5309,468.7815,474.3978,space,5.6089,,474.3979,44,11,475.3976,475.3976,475.9818,space,0.5439,,0,7,7,7,1,145,20,,,,,,,,
,,616286682f7e620d716dae78,65af5607b73447736efa8ac8,2024-01-23_08h04.38.978,bars,2023.2.3,Win32,60.97560976,657b66ea316d21385b68909f,,,,,,,,,,,475.9829,476.9816,,,477.4811,477.7308,,35,35,,,,,,,,,,,,,,,,bars/016.png,bars/mask009.png,,,,,,,,,,,,1,1,,,,,,,0,8,1,7,,,,,,,,,,,476.9816,477.481,477.7308,479.5811,space,1.8234,,479.5813,5,50,480.5807,480.5809,482.5811,space,1.946,,0,8,8,8,1,40,165,,,,,,,,
,,616286682f7e620d716dae78,65af5607b73447736efa8ac8,2024-01-23_08h04.38.978,bars,2023.2.3,Win32,60.97560976,657b66ea316d21385b68909f,,,,,,,,,,,482.582,483.5808,,,484.0808,484.3305,,173,-7,,,,,,,,,,,,,,,,bars/045.png,bars/mask003.png,,,,,,,,,,,,2,2,,,,,,,0,6,0,5,,,,,,,,,,,483.5809,484.0808,484.3306,490.2309,space,5.8715,,490.2311,73,17,491.2302,491.2302,492.3815,space,1.1017,,0,9,9,9,1,100,10,,,,,,,,
,,616286682f7e620d716dae78,65af5607b73447736efa8ac8,2024-01-23_08h04.38.978,bars,2023.2.3,Win32,60.97560976,657b66ea316d21385b68909f,,,,,,,,,,,492.3826,493.3802,,,493.8803,494.1307,,133,133,,,,,,,,,,,,,,,,bars/003.png,bars/mask009.png,,,,,,,,,,,,6,2,,,,,,,0,8,1,8,,,,,,,,,,,493.3803,493.8802,494.1307,495.5639,space,1.4066,,495.564,72,7,496.5629,496.5631,498.7471,space,2.1551,,0,10,10,10,1,25,140,,,,,,,,
,,616286682f7e620d716dae78,65af5607b73447736efa8ac8,2024-01-23_08h04.38.978,bars,2023.2.3,Win32,60.97560976,657b66ea316d21385b68909f,,,,,,,,,,,498.7482,499.7462,,,500.2464,500.4976,,32,32,,,,,,,,,,,,,,,,bars/013.png,bars/mask009.png,,,,,,,,,,,,3,2,,,,,,,0,10,0,10,,,,,,,,,,,499.7463,500.2464,500.4976,504.3015,space,3.7845,,504.3016,43,22,505.296,505.2961,507.6131,space,2.2738,,0,11,11,11,1,75,10,,,,,,,,
,,616286682f7e620d716dae78,65af5607b73447736efa8ac8,2024-01-23_08h04.38.978,bars,2023.2.3,Win32,60.97560976,657b66ea316d21385b68909f,,,,,,,,,,,507.614,508.6125,,,509.1127,509.3625,,109,109,,,,,,,,,,,,,,,,bars/023.png,bars/mask005.png,,,,,,,,,,,,6,2,,,,,,,0,8,0,8,,,,,,,,,,,508.6125,509.1127,509.3626,512.0629,space,2.6852,,512.0631,89,6,513.0623,513.0624,514.596,space,1.4871,,0,12,12,12,1,20,115,,,,,,,,
,,616286682f7e620d716dae78,65af5607b73447736efa8ac8,2024-01-23_08h04.38.978,bars,2023.2.3,Win32,60.97560976,657b66ea316d21385b68909f,,,,,,,,,,,514.5969,515.5955,,,516.0957,516.3453,,103,103,,,,,,,,,,,,,,,,bars/023.png,bars/mask009.png,,,,,,,,,,,,3,2,,,,,,,2,6,2,5,,,,,,,,,,,515.5956,516.0957,516.3454,519.6459,space,3.293,,519.6461,83,12,520.6454,520.6454,521.9288,space,1.2456,,0,13,13,13,1,20,115,,,,,,,,
,,616286682f7e620d716dae78,65af5607b73447736efa8ac8,2024-01-23_08h04.38.978,bars,2023.2.3,Win32,60.97560976,657b66ea316d21385b68909f,,,,,,,,,,,521.9297,522.9289,,,523.4287,523.679,,38,38,,,,,,,,,,,,,,,,bars/036.png,bars/mask009.png,,,,,,,,,,,,3,2,,,,,,,0,8,1,8,,,,,,,,,,,522.9289,523.4286,523.6791,527.5788,space,3.8843,,527.5789,73,18,528.5785,528.5785,528.6195,space,0.0013,,0,14,14,14,1,145,20,,,,,,,,
,,616286682f7e620d716dae78,65af5607b73447736efa8ac8,2024-01-23_08h04.38.978,bars,2023.2.3,Win32,60.97560976,657b66ea316d21385b68909f,,,,,,,,,,,528.6202,529.6112,,,530.1117,530.3613,,146,146,,,,,,,,,,,,,,,,bars/013.png,bars/mask002.png,,,,,,,,,,,,0,2,,,,,,,2,10,0,10,,,,,,,,,,,529.6112,530.1117,530.3614,533.4116,space,3.0372,,533.4117,71,44,534.4107,534.4108,535.5116,space,1.0576,,0,15,15,15,1,75,10,,,,,,,,
,,616286682f7e620d716dae78,65af5607b73447736efa8ac8,2024-01-23_08h04.38.978,bars,2023.2.3,Win32,60.97560976,657b66ea316d21385b68909f,,,,,,,,,,,535.5125,536.5106,,,537.0116,537.2655,,12,192,,,,,,,,,,,,,,,,bars/012.png,bars/mask004.png,,,,,,,,,,,,9,2,,,,,,,4,10,2,10,,,,,,,,,,,536.5107,537.0115,537.2655,542.3617,space,5.0712,,542.3618,78,3,543.3612,543.3613,544.2667,space,0.8654,,0,16,16,16,1,90,15,,,,,,,,
,,616286682f7e620d716dae78,65af5607b73447736efa8ac8,2024-01-23_08h04.38.978,bars,2023.2.3,Win32,60.97560976,657b66ea316d21385b68909f,,,,,,,,,,,544.2675,545.2605,,,545.7609,546.0106,,115,115,,,,,,,,,,,,,,,,bars/037.png,bars/mask001.png,,,,,,,,,,,,6,2,,,,,,,2,8,2,9,,,,,,,,,,,545.2606,545.7607,546.0107,548.7444,space,2.7203,,548.7445,35,10,549.7439,549.7439,550.6774,space,0.885,,0,17,17,17,1,150,105,,,,,,,,
,,616286682f7e620d716dae78,65af5607b73447736efa8ac8,2024-01-23_08h04.38.978,bars,2023.2.3,Win32,60.97560976,657b66ea316d21385b68909f,,,,,,,,,,,550.6784,551.6776,,,552.1814,552.4273,,118,118,,,,,,,,,,,,,,,,bars/037.png,bars/mask004.png,,,,,,,,,,,,4,2,,,,,,,0,6,0,7,,,,,,,,,,,551.6778,552.1814,552.4273,556.3774,space,3.9366,,556.3775,32,13,557.3769,557.3774,558.4768,space,1.0562,,0,18,18,18,1,150,105,,,,,,,,
,,616286682f7e620d716dae78,65af5607b73447736efa8ac8,2024-01-23_08h04.38.978,bars,2023.2.3,Win32,60.97560976,657b66ea316d21385b68909f,,,,,,,,,,,558.4777,559.4762,,,559.9767,560.2268,,40,40,,,,,,,,,,,,,,,,bars/046.png,bars/mask009.png,,,,,,,,,,,,0,2,,,,,,,0,4,2,3,,,,,,,,,,,559.4764,559.9766,560.2269,562.4275,space,2.1894,,562.4276,65,45,563.4265,563.4266,564.044,space,0.5942,,0,19,19,19,1,155,85,,,,,,,,
,,616286682f7e620d716dae78,65af5607b73447736efa8ac8,2024-01-23_08h04.38.978,bars,2023.2.3,Win32,60.97560976,657b66ea316d21385b68909f,,,,,,,,,,,564.0449,565.0434,,,565.5434,565.7936,,93,93,,,,,,,,,,,,,,,,bars/019.png,bars/mask005.png,,,,,,,,,,,,1,2,,,,,,,2,2,1,1,,,,,,,,,,,565.0435,565.5433,565.7937,568.5438,space,2.7245,,568.5439,48,12,569.5429,569.543,569.9095,space,0.3253,,0,20,20,20,1,45,105,,,,,,,,
,,616286682f7e620d716dae78,65af5607b73447736efa8ac8,2024-01-23_08h04.38.978,bars,2023.2.3,Win32,60.97560976,657b66ea316d21385b68909f,,,,,,,,,,,569.9107,570.9141,,,571.4097,571.6596,,65,65,,,,,,,,,,,,,,,,bars/027.png,bars/mask006.png,,,,,,,,,,,,0,2,,,,,,,4,0,4,0,,,,,,,,,,,570.9141,571.4097,571.6601,577.2097,space,5.5279,,577.2097,45,15,578.2093,578.2093,578.6931,space,0.4383,,0,21,21,21,1,110,50,,,,,,,,
,,616286682f7e620d716dae78,65af5607b73447736efa8ac8,2024-01-23_08h04.38.978,bars,2023.2.3,Win32,60.97560976,657b66ea316d21385b68909f,,,,,,,,,,,578.694,579.6939,,,580.1925,580.4422,,51,51,,,,,,,,,,,,,,,,bars/035.png,bars/mask009.png,,,,,,,,,,,,0,2,,,,,,,2,0,3,0,,,,,,,,,,,579.694,580.1924,580.4423,581.7764,space,1.32,,581.7764,56,9,582.7763,582.7764,583.0765,space,0.2521,,0,22,22,22,1,175,60,,,,,,,,
,,616286682f7e620d716dae78,65af5607b73447736efa8ac8,2024-01-23_08h04.38.978,bars,2023.2.3,Win32,60.97560976,657b66ea316d21385b68909f,,,,,,,,,,,583.0775,584.0755,,,584.5757,584.8254,,118,118,,,,,,,,,,,,,,,,bars/013.png,bars/mask008.png,,,,,,,,,,,,0,1,,,,,,,0,0,1,0,,,,,,,,,,,584.0756,584.5755,584.8255,590.1756,space,5.3393,,590.1757,43,72,591.1753,591.1754,591.4919,space,0.2631,,0,23,23,23,1,75,10,,,,,,,,
,,616286682f7e620d716dae78,65af5607b73447736efa8ac8,2024-01-23_08h04.38.978,bars,2023.2.3,Win32,60.97560976,657b66ea316d21385b68909f,,,,,,,,,,,591.4929,592.4918,,,592.9921,593.2414,,120,120,,,,,,,,,,,,,,,,bars/026.png,bars/mask009.png,,,,,,,,,,,,0,2,,,,,,,2,2,2,1,,,,,,,,,,,592.4919,592.992,593.2415,596.7088,space,3.4527,,596.7089,85,35,597.7079,597.708,602.9745,space,5.2203,,0,24,24,24,1,35,85,,,,,,,,
,,616286682f7e620d716dae78,65af5607b73447736efa8ac8,2024-01-23_08h04.38.978,bars,2023.2.3,Win32,60.97560976,657b66ea316d21385b68909f,,,,,,,,,,,603.0034,603.9906,,,604.4753,604.7244,,119,119,,,,,,,,,,,,,,,,bars/006.png,bars/mask000.png,,,,,,,,,,,,0,2,,,,,,,0,0,0,0,,,,,,,,,,,603.9907,604.4752,604.7244,610.5413,space,5.7899,,610.5415,84,19,611.5412,611.5413,611.9408,space,0.3546,,0,25,25,25,1,35,100,,,,,,,,
,,616286682f7e620d716dae78,65af5607b73447736efa8ac8,2024-01-23_08h04.38.978,bars,2023.2.3,Win32,60.97560976,657b66ea316d21385b68909f,,,,,,,,,,,611.9418,612.9407,,,613.4406,613.6903,,83,83,,,,,,,,,,,,,,,,bars/018.png,bars/mask002.png,,,,,,,,,,,,0,2,,,,,,,0,0,0,0,,,,,,,,,,,612.9409,613.4405,613.6905,616.124,space,2.421,,616.1242,67,7,617.1237,617.1239,617.3407,space,0.1674,,0,26,26,26,1,150,90,,,,,,,,
,,616286682f7e620d716dae78,65af5607b73447736efa8ac8,2024-01-23_08h04.38.978,bars,2023.2.3,Win32,60.97560976,657b66ea316d21385b68909f,,,,,,,,,,,617.3416,618.3405,,,618.8406,619.0909,,84,84,,,,,,,,,,,,,,,,bars/009.png,bars/mask006.png,,,,,,,,,,,,0,2,,,,,,,2,0,2,1,,,,,,,,,,,618.3405,618.8405,619.0909,620.9575,space,1.84,,620.9576,69,21,621.9573,621.9574,622.1239,space,0.1384,,0,27,27,27,1,15,105,,,,,,,,
,,616286682f7e620d716dae78,65af5607b73447736efa8ac8,2024-01-23_08h04.38.978,bars,2023.2.3,Win32,60.97560976,657b66ea316d21385b68909f,,,,,,,,,,,622.1247,623.1233,,,623.6236,623.8737,,169,-11,,,,,,,,,,,,,,,,bars/016.png,bars/mask006.png,,,,,,,,,,,,2,2,,,,,,,0,2,2,2,,,,,,,,,,,623.1234,623.6235,623.8739,626.9738,space,3.0862,,626.9739,51,4,627.9734,627.9735,630.2237,space,2.2034,,0,28,28,28,1,40,165,,,,,,,,
,,616286682f7e620d716dae78,65af5607b73447736efa8ac8,2024-01-23_08h04.38.978,bars,2023.2.3,Win32,60.97560976,657b66ea316d21385b68909f,,,,,,,,,,,630.2246,631.2229,,,631.7233,631.9734,,96,96,,,,,,,,,,,,,,,,bars/039.png,bars/mask007.png,,,,,,,,,,,,0,2,,,,,,,2,0,1,0,,,,,,,,,,,631.223,631.7232,631.9734,635.9406,space,3.951,,635.9407,79,9,636.9399,636.94,638.8447,space,1.8609,,0,29,29,29,1,175,105,,,,,,,,
,,616286682f7e620d716dae78,65af5607b73447736efa8ac8,2024-01-23_08h04.38.978,bars,2023.2.3,Win32,60.97560976,657b66ea316d21385b68909f,,,,,,,,,,,638.8455,639.8396,,,640.3399,640.5895,,105,105,,,,,,,,,,,,,,,,bars/024.png,bars/mask006.png,,,,,,,,,,,,1,1,,,,,,,0,2,1,3,,,,,,,,,,,639.8397,640.3398,640.5895,641.8736,space,1.2684,,641.8738,15,65,642.8724,642.8725,643.7395,space,0.8174,,0,30,30,30,1,120,170,,,,,,,,
,,616286682f7e620d716dae78,65af5607b73447736efa8ac8,2024-01-23_08h04.38.978,bars,2023.2.3,Win32,60.97560976,657b66ea316d21385b68909f,,,,,,,,,,,643.7402,644.7389,,,645.239,645.4896,,43,43,,,,,,,,,,,,,,,,bars/035.png,bars/mask000.png,,,,,,,,,,,,0,2,,,,,,,0,0,0,1,,,,,,,,,,,644.7392,645.2388,645.4896,650.4558,space,4.9517,,650.456,48,17,651.456,651.4561,651.5028,space,0.002,,0,31,31,31,1,175,60,,,,,,,,
,,616286682f7e620d716dae78,65af5607b73447736efa8ac8,2024-01-23_08h04.38.978,bars,2023.2.3,Win32,60.97560976,657b66ea316d21385b68909f,,,,,,,,,,,651.5039,652.506,,,653.0058,653.2555,,65,65,,,,,,,,,,,,,,,,bars/012.png,bars/mask005.png,,,,,,,,,,,,0,1,,,,,,,2,2,2,2,,,,,,,,,,,652.506,653.0057,653.2556,655.0055,space,1.7219,,655.0056,25,50,656.0054,656.0054,656.3056,space,0.2717,,0,32,32,32,1,90,15,,,,,,,,
,,616286682f7e620d716dae78,65af5607b73447736efa8ac8,2024-01-23_08h04.38.978,bars,2023.2.3,Win32,60.97560976,657b66ea316d21385b68909f,,,,,,,,,,,656.3064,657.306,,,657.8055,658.0554,,110,110,,,,,,,,,,,,,,,,bars/004.png,bars/mask003.png,,,,,,,,,,,,3,2,,,,,,,4,4,4,6,,,,,,,,,,,657.306,657.8054,658.0558,661.8431,space,3.7677,,661.8432,85,15,662.8407,662.8408,676.1209,space,13.2284,,0,33,33,33,1,25,125,,,,,,,,
,,616286682f7e620d716dae78,65af5607b73447736efa8ac8,2024-01-23_08h04.38.978,bars,2023.2.3,Win32,60.97560976,657b66ea316d21385b68909f,,,,,,,,,,,676.1505,677.1373,,,677.6376,677.8876,,48,48,,,,,,,,,,,,,,,,bars/025.png,bars/mask006.png,,,,,,,,,,,,1,2,,,,,,,6,2,7,2,,,,,,,,,,,677.1374,677.6375,677.8877,680.3214,space,2.4207,,680.3215,57,8,681.3208,681.3208,685.6041,space,4.2384,,0,34,34,34,1,105,40,,,,,,,,
,,616286682f7e620d716dae78,65af5607b73447736efa8ac8,2024-01-23_08h04.38.978,bars,2023.2.3,Win32,60.97560976,657b66ea316d21385b68909f,,,,,,,,,,,685.6321,686.6206,,,687.1202,687.3705,,41,41,,,,,,,,,,,,,,,,bars/035.png,bars/mask002.png,,,,,,,,,,,,1,2,,,,,,,4,4,4,4,,,,,,,,,,,686.6207,687.1202,687.3705,690.1372,space,2.7543,,690.1374,46,19,691.1367,691.1368,691.5208,space,0.344,,0,35,35,35,1,175,60,,,,,,,,
,,616286682f7e620d716dae78,65af5607b73447736efa8ac8,2024-01-23_08h04.38.978,bars,2023.2.3,Win32,60.97560976,657b66ea316d21385b68909f,,,,,,,,,,,691.5217,692.5201,,,693.0195,693.2702,,99,99,,,,,,,,,,,,,,,,bars/012.png,bars/mask009.png,,,,,,,,,,,,2,1,,,,,,,2,6,3,5,,,,,,,,,,,692.5202,693.0195,693.2703,698.7363,space,5.451,,698.7364,9,84,699.7365,699.7366,700.0866,space,0.3022,,0,36,36,36,1,90,15,,,,,,,,
,,616286682f7e620d716dae78,65af5607b73447736efa8ac8,2024-01-23_08h04.38.978,bars,2023.2.3,Win32,60.97560976,657b66ea316d21385b68909f,,,,,,,,,,,700.0876,701.0861,,,701.5862,701.836,,40,40,,,,,,,,,,,,,,,,bars/026.png,bars/mask000.png,,,,,,,,,,,,3,1,,,,,,,4,8,4,7,,,,,,,,,,,701.0863,701.5859,701.836,707.77,space,5.9195,,707.7701,5,45,708.7698,708.7698,709.1531,space,0.3416,,0,37,37,37,1,35,85,,,,,,,,
,,616286682f7e620d716dae78,65af5607b73447736efa8ac8,2024-01-23_08h04.38.978,bars,2023.2.3,Win32,60.97560976,657b66ea316d21385b68909f,,,,,,,,,,,709.154,710.1523,,,710.6524,710.9026,,37,37,,,,,,,,,,,,,,,,bars/033.png,bars/mask006.png,,,,,,,,,,,,4,1,,,,,,,6,10,7,10,,,,,,,,,,,710.1525,710.6522,710.9031,718.8529,space,7.9225,,718.853,12,62,719.852,719.8521,720.7027,space,0.8006,,0,38,38,38,1,25,155,,,,,,,,
,,616286682f7e620d716dae78,65af5607b73447736efa8ac8,2024-01-23_08h04.38.978,bars,2023.2.3,Win32,60.97560976,657b66ea316d21385b68909f,,,,,,,,,,,720.7035,721.7023,,,722.2061,722.4528,,119,299,,,,,,,,,,,,,,,,bars/015.png,bars/mask005.png,,,,,,,,,,,,6,1,,,,,,,8,8,8,8,,,,,,,,,,,721.7023,722.206,722.4528,728.8184,space,6.3444,,728.8186,9,41,729.8181,729.8183,730.6014,space,0.7383,,0,39,39,39,1,110,160,,,,,,,,
,,616286682f7e620d716dae78,65af5607b73447736efa8ac8,2024-01-23_08h04.38.978,bars,2023.2.3,Win32,60.97560976,657b66ea316d21385b68909f,,,,,,,,,,,730.6024,731.6011,,,732.1014,732.3518,,177,177,,,,,,,,,,,,,,,,bars/023.png,bars/mask006.png,,,,,,,,,,,,2,1,,,,,,,10,6,10,5,,,,,,,,,,,731.6012,732.1013,732.3519,736.4015,space,4.0352,,736.4016,23,62,737.4011,737.4012,737.8851,space,0.437,,0,40,40,40,1,20,115,,,,,,,,
,,616286682f7e620d716dae78,65af5607b73447736efa8ac8,2024-01-23_08h04.38.978,bars,2023.2.3,Win32,60.97560976,657b66ea316d21385b68909f,,,,,,,,,,,737.886,738.8844,,,739.3845,739.6344,,178,178,,,,,,,,,,,,,,,,bars/005.png,bars/mask003.png,,,,,,,,,,,,4,1,,,,,,,8,8,7,7,,,,,,,,,,,738.8845,739.3844,739.6345,741.917,space,2.2661,,741.9171,12,38,742.9175,742.9176,743.3846,space,0.4211,,0,41,41,41,1,10,140,,,,,,,,
,,616286682f7e620d716dae78,65af5607b73447736efa8ac8,2024-01-23_08h04.38.978,bars,2023.2.3,Win32,60.97560976,657b66ea316d21385b68909f,,,,,,,,,,,743.3858,744.3837,,,744.8844,745.135,,38,38,,,,,,,,,,,,,,,,bars/016.png,bars/mask002.png,,,,,,,,,,,,9,1,,,,,,,10,10,10,10,,,,,,,,,,,744.3838,744.8843,745.1351,746.551,space,1.4049,,746.5511,2,53,747.5507,747.5507,748.2507,space,0.6788,,0,42,42,42,1,40,165,,,,,,,,
,,616286682f7e620d716dae78,65af5607b73447736efa8ac8,2024-01-23_08h04.38.978,bars,2023.2.3,Win32,60.97560976,657b66ea316d21385b68909f,,,,,,,,,,,748.2515,749.2503,,,749.7505,750.0004,,148,148,,,,,,,,,,,,,,,,bars/008.png,bars/mask005.png,,,,,,,,,,,,0,2,,,,,,,10,10,9,10,,,,,,,,,,,749.2504,749.7505,750.0005,752.7004,space,2.6906,,752.7005,38,32,753.7003,753.7004,753.784,space,0.0308,,0,43,43,43,1,110,0,,,,,,,,
,,616286682f7e620d716dae78,65af5607b73447736efa8ac8,2024-01-23_08h04.38.978,bars,2023.2.3,Win32,60.97560976,657b66ea316d21385b68909f,,,,,,,,,,,753.7847,754.7837,,,755.2839,755.5337,,24,24,,,,,,,,,,,,,,,,bars/035.png,bars/mask000.png,,,,,,,,,,,,0,1,,,,,,,10,10,10,10,,,,,,,,,,,754.7838,755.2838,755.5338,760.3175,space,4.7676,,760.3176,29,36,761.3171,761.3171,762.567,space,1.1984,,0,44,44,44,1,175,60,,,,,,,,
,,616286682f7e620d716dae78,65af5607b73447736efa8ac8,2024-01-23_08h04.38.978,bars,2023.2.3,Win32,60.97560976,657b66ea316d21385b68909f,,,,,,,,,,,762.5681,763.5672,,,764.0671,764.3167,,37,37,,,,,,,,,,,,,,,,bars/048.png,bars/mask006.png,,,,,,,,,,,,6,1,,,,,,,10,8,10,6,,,,,,,,,,,763.5673,764.067,764.3168,767.1166,space,2.79,,767.1166,13,42,768.1168,768.1168,768.6667,space,0.5042,,0,45,45,45,1,50,175,,,,,,,,
,,616286682f7e620d716dae78,65af5607b73447736efa8ac8,2024-01-23_08h04.38.978,bars,2023.2.3,Win32,60.97560976,657b66ea316d21385b68909f,,,,,,,,,,,768.6676,769.6665,,,770.1667,770.4165,,151,151,,,,,,,,,,,,,,,,bars/000.png,bars/mask001.png,,,,,,,,,,,,5,2,,,,,,,8,6,6,6,,,,,,,,,,,769.6666,770.1667,770.4166,774.7669,space,4.3365,,774.7671,69,6,775.7702,775.7702,776.8327,space,1.0109,,0,46,46,46,1,40,145,,,,,,,,
,,616286682f7e620d716dae78,65af5607b73447736efa8ac8,2024-01-23_08h04.38.978,bars,2023.2.3,Win32,60.97560976,657b66ea316d21385b68909f,,,,,,,,,,,776.8335,777.8324,,,778.3327,778.5818,,160,-20,,,,,,,,,,,,,,,,bars/005.png,bars/mask002.png,,,,,,,,,,,,1,2,,,,,,,10,4,10,4,,,,,,,,,,,777.8325,778.3327,778.5819,783.8658,space,5.2764,,783.8658,30,20,784.8656,784.8657,785.1989,space,0.2939,,0,47,47,47,1,10,140,,,,,,,,
,,616286682f7e620d716dae78,65af5607b73447736efa8ac8,2024-01-23_08h04.38.978,bars,2023.2.3,Win32,60.97560976,657b66ea316d21385b68909f,,,,,,,,,,,785.1998,786.1987,,,786.6983,786.9487,,48,48,,,,,,,,,,,,,,,,bars/003.png,bars/mask006.png,,,,,,,,,,,,2,1,,,,,,,8,2,7,2,,,,,,,,,,,786.1988,786.6983,786.9488,790.5825,space,3.6184,,790.5826,23,88,791.5813,791.5813,792.8321,space,1.2055,,0,48,48,48,1,25,140,,,,,,,,
,,616286682f7e620d716dae78,65af5607b73447736efa8ac8,2024-01-23_08h04.38.978,bars,2023.2.3,Win32,60.97560976,657b66ea316d21385b68909f,,,,,,,,,,,792.833,793.8313,,,794.3199,794.5652,,11,191,,,,,,,,,,,,,,,,bars/024.png,bars/mask002.png,,,,,,,,,,,,0,2,,,,,,,10,0,10,0,,,,,,,,,,,793.8313,794.3198,794.5657,800.0817,space,5.4867,,800.0818,71,21,801.0812,801.0813,801.8315,space,0.6966,,0,49,49,49,1,120,170,,,,,,,,
,,616286682f7e620d716dae78,65af5607b73447736efa8ac8,2024-01-23_08h04.38.978,bars,2023.2.3,Win32,60.97560976,657b66ea316d21385b68909f,,,,,,,,,,,,,,,,,,,,,,,,,,,,,,,,,,,,,,,,,,,,,,,,,,,,,,,,,,,,,,,,,,,,,,,,,,,,,,,,,,,,,,,,,,,,,801.8337,861.8299,0,0,0,1,1,sequence_tables/blk002.csv
,,616286682f7e620d716dae78,65af5607b73447736efa8ac8,2024-01-23_08h04.38.978,bars,2023.2.3,Win32,60.97560976,657b66ea316d21385b68909f,,,,,,,,,,,865.143,866.1449,,,866.6452,866.8947,,161,161,,,,,,,,,,,,,,,,bars/006.png,bars/mask003.png,,,,,,,,,,,,0,1,,,,,,,0,10,1,9,,,,,,861.8597,865.1283,space,3.2542,,866.145,866.6451,866.8948,869.7284,space,2.8183,,869.7285,54,61,870.7281,870.7281,870.7597,,,,0,0,0,0,1,35,100,,,,,,,,
,,616286682f7e620d716dae78,65af5607b73447736efa8ac8,2024-01-23_08h04.38.978,bars,2023.2.3,Win32,60.97560976,657b66ea316d21385b68909f,,,,,,,,,,,870.7604,871.7608,,,872.2614,872.5115,,63,63,,,,,,,,,,,,,,,,bars/035.png,bars/mask006.png,,,,,,,,,,,,9,2,,,,,,,0,10,0,10,,,,,,,,,,,871.7608,872.2612,872.5116,875.1948,space,2.6673,,875.1949,68,3,876.1941,876.1942,876.2256,,,,0,1,1,1,1,175,60,,,,,,,,
,,616286682f7e620d716dae78,65af5607b73447736efa8ac8,2024-01-23_08h04.38.978,bars,2023.2.3,Win32,60.97560976,657b66ea316d21385b68909f,,,,,,,,,,,876.2264,877.2276,,,877.7259,877.9762,,131,131,,,,,,,,,,,,,,,,bars/008.png,bars/mask003.png,,,,,,,,,,,,0,1,,,,,,,0,10,0,10,,,,,,,,,,,877.2277,877.7258,877.9763,880.4944,space,2.5064,,880.4945,21,49,881.4947,881.4948,881.5259,,,,0,2,2,2,1,110,0,,,,,,,,
,,616286682f7e620d716dae78,65af5607b73447736efa8ac8,2024-01-23_08h04.38.978,bars,2023.2.3,Win32,60.97560976,657b66ea316d21385b68909f,,,,,,,,,,,881.5265,882.5273,,,883.027,883.2775,,23,203,,,,,,,,,,,,,,,,bars/000.png,bars/mask003.png,,,,,,,,,,,,0,1,,,,,,,0,8,0,9,,,,,,,,,,,882.5273,883.0269,883.2775,889.3771,space,6.0881,,889.3772,17,58,890.3771,890.3771,890.4059,,,,0,3,3,3,1,40,145,,,,,,,,
,,616286682f7e620d716dae78,65af5607b73447736efa8ac8,2024-01-23_08h04.38.978,bars,2023.2.3,Win32,60.97560976,657b66ea316d21385b68909f,,,,,,,,,,,890.4065,891.4099,,,891.9105,892.1602,,124,124,,,,,,,,,,,,,,,,bars/043.png,bars/mask009.png,,,,,,,,,,,,8,2,,,,,,,2,10,3,10,,,,,,,,,,,891.41,891.9104,892.1603,895.6934,space,3.5263,,895.6936,86,6,896.6936,896.6937,896.7259,,,,0,4,4,4,1,30,130,,,,,,,,
,,616286682f7e620d716dae78,65af5607b73447736efa8ac8,2024-01-23_08h04.38.978,bars,2023.2.3,Win32,60.97560976,657b66ea316d21385b68909f,,,,,,,,,,,896.7266,897.7267,,,898.2266,898.4764,,109,109,,,,,,,,,,,,,,,,bars/004.png,bars/mask002.png,,,,,,,,,,,,5,2,,,,,,,0,10,0,10,,,,,,,,,,,897.7269,898.2265,898.4765,903.2434,space,4.7569,,903.2435,84,16,904.2427,904.2427,904.2721,,,,0,5,5,5,1,25,125,,,,,,,,
,,616286682f7e620d716dae78,65af5607b73447736efa8ac8,2024-01-23_08h04.38.978,bars,2023.2.3,Win32,60.97560976,657b66ea316d21385b68909f,,,,,,,,,,,904.2726,905.2758,,,905.7762,906.0261,,133,133,,,,,,,,,,,,,,,,bars/049.png,bars/mask006.png,,,,,,,,,,,,4,2,,,,,,,2,10,1,10,,,,,,,,,,,905.2759,905.7761,906.0261,909.0597,space,3.0206,,909.0598,27,18,910.0596,910.0597,910.088,,,,0,6,6,6,1,160,115,,,,,,,,
,,616286682f7e620d716dae78,65af5607b73447736efa8ac8,2024-01-23_08h04.38.978,bars,2023.2.3,Win32,60.97560976,657b66ea316d21385b68909f,,,,,,,,,,,910.0886,911.0922,,,911.5927,911.8423,,43,43,,,,,,,,,,,,,,,,bars/007.png,bars/mask003.png,,,,,,,,,,,,5,2,,,,,,,0,10,0,9,,,,,,,,,,,911.0924,911.5926,911.8424,914.2761,space,2.4205,,914.2763,48,12,915.276,915.276,915.3042,,,,0,7,7,7,1,175,55,,,,,,,,
,,616286682f7e620d716dae78,65af5607b73447736efa8ac8,2024-01-23_08h04.38.978,bars,2023.2.3,Win32,60.97560976,657b66ea316d21385b68909f,,,,,,,,,,,915.3048,916.3091,,,916.8086,917.0588,,54,54,,,,,,,,,,,,,,,,bars/010.png,bars/mask007.png,,,,,,,,,,,,7,2,,,,,,,2,8,2,7,,,,,,,,,,,916.3091,916.8086,917.0588,921.8591,space,4.7867,,921.8593,69,1,922.8584,922.8584,922.8866,,,,0,8,8,8,1,165,55,,,,,,,,
,,616286682f7e620d716dae78,65af5607b73447736efa8ac8,2024-01-23_08h04.38.978,bars,2023.2.3,Win32,60.97560976,657b66ea316d21385b68909f,,,,,,,,,,,922.8872,923.8754,,,924.3747,924.6254,,46,46,,,,,,,,,,,,,,,,bars/029.png,bars/mask006.png,,,,,,,,,,,,6,2,,,,,,,0,6,1,6,,,,,,,,,,,923.8754,924.3747,924.6254,929.0413,space,4.4076,,929.0413,44,1,930.0414,930.0415,930.0697,,,,0,9,9,9,1,90,45,,,,,,,,
,,616286682f7e620d716dae78,65af5607b73447736efa8ac8,2024-01-23_08h04.38.978,bars,2023.2.3,Win32,60.97560976,657b66ea316d21385b68909f,,,,,,,,,,,930.0702,931.0582,,,931.5586,931.8084,,133,133,,,,,,,,,,,,,,,,bars/025.png,bars/mask006.png,,,,,,,,,,,,0,1,,,,,,,2,8,2,7,,,,,,,,,,,931.0583,931.5585,931.8086,935.6249,space,3.8043,,935.6249,28,87,936.6241,936.6242,936.6549,,,,0,10,10,10,1,105,40,,,,,,,,
,,616286682f7e620d716dae78,65af5607b73447736efa8ac8,2024-01-23_08h04.38.978,bars,2023.2.3,Win32,60.97560976,657b66ea316d21385b68909f,,,,,,,,,,,936.6556,937.6581,,,938.1579,938.4078,,57,57,,,,,,,,,,,,,,,,bars/044.png,bars/mask008.png,,,,,,,,,,,,0,1,,,,,,,0,6,0,6,,,,,,,,,,,937.6582,938.1579,938.408,943.3249,space,4.9031,,943.325,18,82,944.3243,944.3245,944.3539,,,,0,11,11,11,1,75,155,,,,,,,,
,,616286682f7e620d716dae78,65af5607b73447736efa8ac8,2024-01-23_08h04.38.978,bars,2023.2.3,Win32,60.97560976,657b66ea316d21385b68909f,,,,,,,,,,,944.3544,945.3582,,,945.8574,946.1066,,121,121,,,,,,,,,,,,,,,,bars/021.png,bars/mask006.png,,,,,,,,,,,,0,1,,,,,,,0,4,0,5,,,,,,,,,,,945.3582,945.8574,946.1067,950.1076,space,3.9874,,950.1076,34,51,951.1077,951.1078,951.1365,,,,0,12,12,12,1,155,70,,,,,,,,
,,616286682f7e620d716dae78,65af5607b73447736efa8ac8,2024-01-23_08h04.38.978,bars,2023.2.3,Win32,60.97560976,657b66ea316d21385b68909f,,,,,,,,,,,951.1371,952.1404,,,952.6408,952.8904,,57,57,,,,,,,,,,,,,,,,bars/006.png,bars/mask009.png,,,,,,,,,,,,1,1,,,,,,,2,2,2,3,,,,,,,,,,,952.1406,952.6407,952.8904,957.9737,space,5.0687,,957.9738,22,43,958.9741,958.9742,959.0027,,,,0,13,13,13,1,35,100,,,,,,,,
,,616286682f7e620d716dae78,65af5607b73447736efa8ac8,2024-01-23_08h04.38.978,bars,2023.2.3,Win32,60.97560976,657b66ea316d21385b68909f,,,,,,,,,,,959.0033,960.0066,,,960.5067,960.7572,,71,71,,,,,,,,,,,,,,,,bars/015.png,bars/mask000.png,,,,,,,,,,,,0,1,,,,,,,4,4,5,4,,,,,,,,,,,960.0066,960.5066,960.7574,962.0734,space,1.3023,,962.0735,39,89,963.0729,963.0729,963.102,,,,0,14,14,14,1,110,160,,,,,,,,
,,616286682f7e620d716dae78,65af5607b73447736efa8ac8,2024-01-23_08h04.38.978,bars,2023.2.3,Win32,60.97560976,657b66ea316d21385b68909f,,,,,,,,,,,963.1027,964.1066,,,964.6066,964.8562,,96,96,,,,,,,,,,,,,,,,bars/006.png,bars/mask006.png,,,,,,,,,,,,3,2,,,,,,,2,6,0,3,,,,,,,,,,,964.1067,964.6066,964.8563,967.3398,space,2.4687,,967.3399,61,4,968.3397,968.3397,968.345,,,,0,15,15,15,1,35,100,,,,,,,,
,,616286682f7e620d716dae78,65af5607b73447736efa8ac8,2024-01-23_08h04.38.978,bars,2023.2.3,Win32,60.97560976,657b66ea316d21385b68909f,,,,,,,,,,,968.3458,969.34,,,969.84,970.0896,,6,6,,,,,,,,,,,,,,,,bars/044.png,bars/mask000.png,,,,,,,,,,,,0,2,,,,,,,4,4,3,4,,,,,,,,,,,969.3401,969.8399,970.0897,973.4065,space,3.3012,,973.4067,69,31,974.4054,974.4055,974.4333,,,,0,16,16,16,1,75,155,,,,,,,,
,,616286682f7e620d716dae78,65af5607b73447736efa8ac8,2024-01-23_08h04.38.978,bars,2023.2.3,Win32,60.97560976,657b66ea316d21385b68909f,,,,,,,,,,,974.4339,975.4225,,,975.9226,976.1729,,57,57,,,,,,,,,,,,,,,,bars/013.png,bars/mask001.png,,,,,,,,,,,,1,1,,,,,,,2,6,3,5,,,,,,,,,,,975.4226,975.9226,976.173,978.7226,space,2.5355,,978.7227,18,47,979.7224,979.7225,979.7532,,,,0,17,17,17,1,75,10,,,,,,,,
,,616286682f7e620d716dae78,65af5607b73447736efa8ac8,2024-01-23_08h04.38.978,bars,2023.2.3,Win32,60.97560976,657b66ea316d21385b68909f,,,,,,,,,,,979.7539,980.7558,,,981.2559,981.5058,,156,156,,,,,,,,,,,,,,,,bars/008.png,bars/mask004.png,,,,,,,,,,,,2,2,,,,,,,4,8,5,8,,,,,,,,,,,980.7559,981.2558,981.5058,986.2231,space,4.7086,,986.2233,46,24,987.2221,987.2222,987.2539,,,,0,18,18,18,1,110,0,,,,,,,,
,,616286682f7e620d716dae78,65af5607b73447736efa8ac8,2024-01-23_08h04.38.978,bars,2023.2.3,Win32,60.97560976,657b66ea316d21385b68909f,,,,,,,,,,,987.2545,988.2555,,,988.7558,989.0057,,160,-20,,,,,,,,,,,,,,,,bars/045.png,bars/mask006.png,,,,,,,,,,,,0,2,,,,,,,6,10,7,10,,,,,,,,,,,988.2555,988.7557,989.0057,994.5388,space,5.5203,,994.5389,60,30,995.5389,995.539,995.568,,,,0,19,19,19,1,100,10,,,,,,,,
,,616286682f7e620d716dae78,65af5607b73447736efa8ac8,2024-01-23_08h04.38.978,bars,2023.2.3,Win32,60.97560976,657b66ea316d21385b68909f,,,,,,,,,,,995.5685,996.5715,,,997.0716,997.3216,,37,37,,,,,,,,,,,,,,,,bars/006.png,bars/mask007.png,,,,,,,,,,,,7,1,,,,,,,8,10,8,10,,,,,,,,,,,996.5715,997.0715,997.3216,1000.4385,space,3.1052,,1000.4386,2,63,1001.4379,1001.4379,1001.4679,,,,0,20,20,20,1,35,100,,,,,,,,
,,616286682f7e620d716dae78,65af5607b73447736efa8ac8,2024-01-23_08h04.38.978,bars,2023.2.3,Win32,60.97560976,657b66ea316d21385b68909f,,,,,,,,,,,1001.4686,1002.4713,,,1002.9713,1003.2211,,151,-29,,,,,,,,,,,,,,,,bars/004.png,bars/mask002.png,,,,,,,,,,,,1,2,,,,,,,10,8,10,8,,,,,,,,,,,1002.4714,1002.9712,1003.2212,1008.4712,space,5.239,,1008.4712,54,26,1009.4707,1009.4707,1009.5028,,,,0,21,21,21,1,25,125,,,,,,,,
,,616286682f7e620d716dae78,65af5607b73447736efa8ac8,2024-01-23_08h04.38.978,bars,2023.2.3,Win32,60.97560976,657b66ea316d21385b68909f,,,,,,,,,,,1009.5035,1010.5036,,,1011.0032,1011.2532,,170,170,,,,,,,,,,,,,,,,bars/048.png,bars/mask006.png,,,,,,,,,,,,8,2,,,,,,,10,10,10,10,,,,,,,,,,,1010.5036,1011.0032,1011.2533,1016.621,space,5.3421,,1016.621,60,5,1017.62,1017.6201,1017.6494,,,,0,22,22,22,1,50,175,,,,,,,,
,,616286682f7e620d716dae78,65af5607b73447736efa8ac8,2024-01-23_08h04.38.978,bars,2023.2.3,Win32,60.97560976,657b66ea316d21385b68909f,,,,,,,,,,,1017.65,1018.6536,,,1019.154,1019.4035,,160,160,,,,,,,,,,,,,,,,bars/014.png,bars/mask000.png,,,,,,,,,,,,3,2,,,,,,,8,8,8,8,,,,,,,,,,,1018.6537,1019.1539,1019.4036,1020.0042,space,0.5858,,1020.0043,80,20,1021.0038,1021.0039,1021.0055,,,,0,23,23,23,1,80,0,,,,,,,,
,,616286682f7e620d716dae78,65af5607b73447736efa8ac8,2024-01-23_08h04.38.978,bars,2023.2.3,Win32,60.97560976,657b66ea316d21385b68909f,,,,,,,,,,,1021.0062,1022.0039,,,1022.5039,1022.7536,,28,28,,,,,,,,,,,,,,,,bars/016.png,bars/mask009.png,,,,,,,,,,,,3,1,,,,,,,6,10,5,10,,,,,,,,,,,1022.004,1022.5038,1022.7537,1025.8365,space,3.0743,,1025.8366,12,43,1026.8366,1026.8367,1026.8682,,,,0,24,24,24,1,40,165,,,,,,,,
,,616286682f7e620d716dae78,65af5607b73447736efa8ac8,2024-01-23_08h04.38.978,bars,2023.2.3,Win32,60.97560976,657b66ea316d21385b68909f,,,,,,,,,,,1026.8689,1027.8697,,,1028.3705,1028.62,,145,-35,,,,,,,,,,,,,,,,bars/008.png,bars/mask003.png,,,,,,,,,,,,0,2,,,,,,,4,10,6,10,,,,,,,,,,,1027.8698,1028.3705,1028.6201,1032.3703,space,3.7364,,1032.3704,35,35,1033.3699,1033.3699,1033.4007,,,,0,25,25,25,1,110,0,,,,,,,,
,,616286682f7e620d716dae78,65af5607b73447736efa8ac8,2024-01-23_08h04.38.978,bars,2023.2.3,Win32,60.97560976,657b66ea316d21385b68909f,,,,,,,,,,,1033.4015,1034.4032,,,1034.9034,1035.153,,28,28,,,,,,,,,,,,,,,,bars/044.png,bars/mask005.png,,,,,,,,,,,,0,1,,,,,,,2,8,1,8,,,,,,,,,,,1034.4032,1034.9034,1035.1531,1038.0699,space,2.9034,,1038.0701,47,53,1039.0697,1039.0698,1039.1012,,,,0,26,26,26,1,75,155,,,,,,,,
,,616286682f7e620d716dae78,65af5607b73447736efa8ac8,2024-01-23_08h04.38.978,bars,2023.2.3,Win32,60.97560976,657b66ea316d21385b68909f,,,,,,,,,,,1039.1019,1040.1022,,,1040.603,1040.8529,,171,171,,,,,,,,,,,,,,,,bars/047.png,bars/mask003.png,,,,,,,,,,,,1,1,,,,,,,4,10,4,8,,,,,,,,,,,1040.1023,1040.6029,1040.8529,1041.5529,space,0.6894,,1041.553,24,79,1042.5526,1042.5527,1042.5543,,,,0,27,27,27,1,15,70,,,,,,,,
,,616286682f7e620d716dae78,65af5607b73447736efa8ac8,2024-01-23_08h04.38.978,bars,2023.2.3,Win32,60.97560976,657b66ea316d21385b68909f,,,,,,,,,,,1042.5551,1043.5522,,,1044.0528,1044.3029,,118,118,,,,,,,,,,,,,,,,bars/028.png,bars/mask004.png,,,,,,,,,,,,9,2,,,,,,,6,8,7,10,,,,,,,,,,,1043.5523,1044.0527,1044.303,1047.0531,space,2.7367,,1047.0531,73,2,1048.0525,1048.0525,1048.0847,,,,0,28,28,28,1,45,120,,,,,,,,
,,616286682f7e620d716dae78,65af5607b73447736efa8ac8,2024-01-23_08h04.38.978,bars,2023.2.3,Win32,60.97560976,657b66ea316d21385b68909f,,,,,,,,,,,1048.0858,1049.0853,,,1049.5906,1049.8361,,118,118,,,,,,,,,,,,,,,,bars/039.png,bars/mask000.png,,,,,,,,,,,,3,2,,,,,,,4,6,3,6,,,,,,,,,,,1049.0854,1049.5906,1049.8362,1053.4028,space,3.5411,,1053.4029,57,13,1054.4018,1054.402,1054.4314,,,,0,29,29,29,1,175,105,,,,,,,,
,,616286682f7e620d716dae78,65af5607b73447736efa8ac8,2024-01-23_08h04.38.978,bars,2023.2.3,Win32,60.97560976,657b66ea316d21385b68909f,,,,,,,,,,,1054.4319,1055.4353,,,1055.9351,1056.1853,,20,20,,,,,,,,,,,,,,,,bars/019.png,bars/mask005.png,,,,,,,,,,,,1,1,,,,,,,6,8,6,7,,,,,,,,,,,1055.4354,1055.9351,1056.1853,1057.0678,space,0.8732,,1057.0679,25,85,1058.0685,1058.0685,1058.0731,,,,0,30,30,30,1,45,105,,,,,,,,
,,616286682f7e620d716dae78,65af5607b73447736efa8ac8,2024-01-23_08h04.38.978,bars,2023.2.3,Win32,60.97560976,657b66ea316d21385b68909f,,,,,,,,,,,1058.0738,1059.0683,,,1059.5684,1059.8184,,110,110,,,,,,,,,,,,,,,,bars/049.png,bars/mask002.png,,,,,,,,,,,,8,2,,,,,,,8,10,8,10,,,,,,,,,,,1059.0683,1059.5684,1059.8184,1063.6355,space,3.8063,,1063.6356,50,5,1064.6347,1064.6348,1064.665,,,,0,31,31,31,1,160,115,,,,,,,,
,,616286682f7e620d716dae78,65af5607b73447736efa8ac8,2024-01-23_08h04.38.978,bars,2023.2.3,Win32,60.97560976,657b66ea316d21385b68909f,,,,,,,,,,,1064.6655,1065.6684,,,1066.1682,1066.4183,,117,117,,,,,,,,,,,,,,,,bars/032.png,bars/mask006.png,,,,,,,,,,,,4,1,,,,,,,6,8,5,7,,,,,,,,,,,1065.6685,1066.1681,1066.4184,1071.0182,space,4.583,,1071.0183,8,83,1072.0173,1072.0173,1072.0477,,,,0,32,32,32,1,125,20,,,,,,,,
,,616286682f7e620d716dae78,65af5607b73447736efa8ac8,2024-01-23_08h04.38.978,bars,2023.2.3,Win32,60.97560976,657b66ea316d21385b68909f,,,,,,,,,,,1072.0482,1073.0506,,,1073.5509,1073.8014,,70,70,,,,,,,,,,,,,,,,bars/043.png,bars/mask005.png,,,,,,,,,,,,0,1,,,,,,,4,6,2,6,,,,,,,,,,,1073.0507,1073.5507,1073.8015,1075.2847,space,1.4679,,1075.2848,40,60,1076.2843,1076.2845,1076.2859,,,,0,33,33,33,1,30,130,,,,,,,,
,,616286682f7e620d716dae78,65af5607b73447736efa8ac8,2024-01-23_08h04.38.978,bars,2023.2.3,Win32,60.97560976,657b66ea316d21385b68909f,,,,,,,,,,,1076.2866,1077.2842,,,1077.7846,1078.0353,,118,118,,,,,,,,,,,,,,,,bars/022.png,bars/mask001.png,,,,,,,,,,,,2,1,,,,,,,6,8,7,8,,,,,,,,,,,1077.2843,1077.7846,1078.0353,1081.601,space,3.5514,,1081.6011,23,82,1082.6005,1082.6006,1082.6298,,,,0,34,34,34,1,95,20,,,,,,,,
,,616286682f7e620d716dae78,65af5607b73447736efa8ac8,2024-01-23_08h04.38.978,bars,2023.2.3,Win32,60.97560976,657b66ea316d21385b68909f,,,,,,,,,,,1082.6304,1083.6339,,,1084.1343,1084.3836,,97,-83,,,,,,,,,,,,,,,,bars/006.png,bars/mask009.png,,,,,,,,,,,,5,2,,,,,,,4,6,3,5,,,,,,,,,,,1083.634,1084.1342,1084.3837,1089.8012,space,5.4107,,1089.8013,62,3,1090.7999,1090.7999,1090.8305,,,,0,35,35,35,1,35,100,,,,,,,,
,,616286682f7e620d716dae78,65af5607b73447736efa8ac8,2024-01-23_08h04.38.978,bars,2023.2.3,Win32,60.97560976,657b66ea316d21385b68909f,,,,,,,,,,,1090.831,1091.8335,,,1092.3333,1092.5838,,24,24,,,,,,,,,,,,,,,,bars/045.png,bars/mask003.png,,,,,,,,,,,,5,2,,,,,,,2,8,0,9,,,,,,,,,,,1091.8336,1092.3332,1092.5839,1096.7171,space,4.1243,,1096.7172,76,14,1097.7166,1097.7167,1097.7453,,,,0,36,36,36,1,100,10,,,,,,,,
,,616286682f7e620d716dae78,65af5607b73447736efa8ac8,2024-01-23_08h04.38.978,bars,2023.2.3,Win32,60.97560976,657b66ea316d21385b68909f,,,,,,,,,,,1097.7458,1098.7498,,,1099.2495,1099.4996,,47,47,,,,,,,,,,,,,,,,bars/009.png,bars/mask007.png,,,,,,,,,,,,0,1,,,,,,,0,6,0,5,,,,,,,,,,,1098.7499,1099.2495,1099.4997,1104.8825,space,5.3728,,1104.8827,32,58,1105.8826,1105.8827,1105.9134,,,,0,37,37,37,1,15,105,,,,,,,,
,,616286682f7e620d716dae78,65af5607b73447736efa8ac8,2024-01-23_08h04.38.978,bars,2023.2.3,Win32,60.97560976,657b66ea316d21385b68909f,,,,,,,,,,,1105.9141,1106.916,,,1107.4162,1107.6661,,95,95,,,,,,,,,,,,,,,,bars/009.png,bars/mask009.png,,,,,,,,,,,,3,2,,,,,,,0,4,1,5,,,,,,,,,,,1106.916,1107.4161,1107.6662,1111.2661,space,3.5867,,1111.2661,80,10,1112.266,1112.266,1112.2959,,,,0,38,38,38,1,15,105,,,,,,,,
,,616286682f7e620d716dae78,65af5607b73447736efa8ac8,2024-01-23_08h04.38.978,bars,2023.2.3,Win32,60.97560976,657b66ea316d21385b68909f,,,,,,,,,,,1112.2964,1113.2992,,,1113.7993,1114.0489,,133,133,,,,,,,,,,,,,,,,bars/026.png,bars/mask002.png,,,,,,,,,,,,0,2,,,,,,,0,2,2,3,,,,,,,,,,,1113.2993,1113.7993,1114.0489,1114.8323,space,0.7742,,1114.8325,82,48,1115.8326,1115.8327,1115.8342,,,,0,39,39,39,1,35,85,,,,,,,,
,,616286682f7e620d716dae78,65af5607b73447736efa8ac8,2024-01-23_08h04.38.978,bars,2023.2.3,Win32,60.97560976,657b66ea316d21385b68909f,,,,,,,,,,,1115.8349,1116.8318,,,1117.3328,1117.5828,,68,68,,,,,,,,,,,,,,,,bars/042.png,bars/mask000.png,,,,,,,,,,,,4,2,,,,,,,0,4,0,5,,,,,,,,,,,1116.8319,1117.3326,1117.5828,1121.1828,space,3.5935,,1121.1829,77,7,1122.1818,1122.1819,1122.2104,,,,0,40,40,40,1,145,75,,,,,,,,
,,616286682f7e620d716dae78,65af5607b73447736efa8ac8,2024-01-23_08h04.38.978,bars,2023.2.3,Win32,60.97560976,657b66ea316d21385b68909f,,,,,,,,,,,1122.2112,1123.1988,,,1123.6989,1123.9483,,128,128,,,,,,,,,,,,,,,,bars/026.png,bars/mask005.png,,,,,,,,,,,,0,2,,,,,,,0,2,1,2,,,,,,,,,,,1123.1989,1123.6987,1123.9484,1127.2986,space,3.3404,,1127.2986,87,43,1128.2985,1128.2986,1128.3269,,,,0,41,41,41,1,35,85,,,,,,,,
,,616286682f7e620d716dae78,65af5607b73447736efa8ac8,2024-01-23_08h04.38.978,bars,2023.2.3,Win32,60.97560976,657b66ea316d21385b68909f,,,,,,,,,,,1128.3274,1129.3316,,,1129.8318,1130.0819,,30,30,,,,,,,,,,,,,,,,bars/033.png,bars/mask001.png,,,,,,,,,,,,0,1,,,,,,,0,0,0,1,,,,,,,,,,,1129.3316,1129.8317,1130.0819,1134.7483,space,4.6508,,1134.7484,5,55,1135.7482,1135.7483,1135.779,,,,0,42,42,42,1,25,155,,,,,,,,
,,616286682f7e620d716dae78,65af5607b73447736efa8ac8,2024-01-23_08h04.38.978,bars,2023.2.3,Win32,60.97560976,657b66ea316d21385b68909f,,,,,,,,,,,1135.7798,1136.7809,,,1137.2815,1137.5308,,96,96,,,,,,,,,,,,,,,,bars/001.png,bars/mask008.png,,,,,,,,,,,,0,2,,,,,,,0,0,2,0,,,,,,,,,,,1136.781,1137.2814,1137.5309,1140.2311,space,2.6866,,1140.2313,34,11,1141.2308,1141.2308,1141.2609,,,,0,43,43,43,1,130,85,,,,,,,,
,,616286682f7e620d716dae78,65af5607b73447736efa8ac8,2024-01-23_08h04.38.978,bars,2023.2.3,Win32,60.97560976,657b66ea316d21385b68909f,,,,,,,,,,,1141.2615,1142.2642,,,1142.7648,1143.0142,,129,129,,,,,,,,,,,,,,,,bars/035.png,bars/mask006.png,,,,,,,,,,,,0,1,,,,,,,0,0,0,1,,,,,,,,,,,1142.2643,1142.7648,1143.0143,1145.8981,space,2.8686,,1145.8981,46,69,1146.8975,1146.8976,1146.9278,,,,0,44,44,44,1,175,60,,,,,,,,
,,616286682f7e620d716dae78,65af5607b73447736efa8ac8,2024-01-23_08h04.38.978,bars,2023.2.3,Win32,60.97560976,657b66ea316d21385b68909f,,,,,,,,,,,1146.9283,1147.9308,,,1148.4307,1148.6804,,5,5,,,,,,,,,,,,,,,,bars/001.png,bars/mask000.png,,,,,,,,,,,,0,1,,,,,,,2,2,1,4,,,,,,,,,,,1147.9309,1148.4306,1148.6805,1149.6141,space,0.9235,,1149.6143,55,80,1150.6137,1150.6138,1150.6155,,,,0,45,45,45,1,130,85,,,,,,,,
,,616286682f7e620d716dae78,65af5607b73447736efa8ac8,2024-01-23_08h04.38.978,bars,2023.2.3,Win32,60.97560976,657b66ea316d21385b68909f,,,,,,,,,,,1150.6161,1151.6134,,,1152.1142,1152.3638,,80,80,,,,,,,,,,,,,,,,bars/005.png,bars/mask000.png,,,,,,,,,,,,0,2,,,,,,,4,4,5,4,,,,,,,,,,,1151.6135,1152.1141,1152.3643,1152.9974,space,0.6045,,1152.9974,70,60,1153.9976,1153.9976,1154.0018,,,,0,46,46,46,1,10,140,,,,,,,,
,,616286682f7e620d716dae78,65af5607b73447736efa8ac8,2024-01-23_08h04.38.978,bars,2023.2.3,Win32,60.97560976,657b66ea316d21385b68909f,,,,,,,,,,,1154.0029,1154.997,,,1155.4966,1155.7466,,103,103,,,,,,,,,,,,,,,,bars/008.png,bars/mask004.png,,,,,,,,,,,,1,1,,,,,,,2,2,1,2,,,,,,,,,,,1154.997,1155.4965,1155.7466,1156.4805,space,0.7059,,1156.4806,7,77,1157.481,1157.481,1157.4853,,,,0,47,47,47,1,110,0,,,,,,,,
,,616286682f7e620d716dae78,65af5607b73447736efa8ac8,2024-01-23_08h04.38.978,bars,2023.2.3,Win32,60.97560976,657b66ea316d21385b68909f,,,,,,,,,,,1157.486,1158.4802,,,1158.98,1159.2301,,143,143,,,,,,,,,,,,,,,,bars/006.png,bars/mask006.png,,,,,,,,,,,,0,2,,,,,,,4,0,4,1,,,,,,,,,,,1158.4803,1158.9799,1159.2302,1160.1975,space,0.9388,,1160.1975,72,43,1161.1967,1161.1968,1161.2292,,,,0,48,48,48,1,35,100,,,,,,,,
,,616286682f7e620d716dae78,65af5607b73447736efa8ac8,2024-01-23_08h04.38.978,bars,2023.2.3,Win32,60.97560976,657b66ea316d21385b68909f,,,,,,,,,,,1161.2298,1162.2299,,,1162.7294,1162.98,,20,20,,,,,,,,,,,,,,,,bars/033.png,bars/mask008.png,,,,,,,,,,,,1,1,,,,,,,2,0,1,0,,,,,,,,,,,1162.23,1162.7294,1162.98,1165.6633,space,2.6695,,1165.6635,5,45,1166.6632,1166.6632,1166.6938,,,,0,49,49,49,1,25,155,,,,,,,,
,,616286682f7e620d716dae78,65af5607b73447736efa8ac8,2024-01-23_08h04.38.978,bars,2023.2.3,Win32,60.97560976,657b66ea316d21385b68909f,,,,,,,,,,,,,,,,,,,,,,,,,,,,,,,,,,,,,,,,,,,,,,,,,,,,,,,,,,,,,,,,,,,,,,,,,,,,,,,,,,,,,,,,,,,,,1166.6943,1226.6939,0,1,1,0,1,sequence_tables/blk017.csv
,,616286682f7e620d716dae78,65af5607b73447736efa8ac8,2024-01-23_08h04.38.978,bars,2023.2.3,Win32,60.97560976,657b66ea316d21385b68909f,,,,,,,,,,,1249.7016,1250.6588,,,1251.1589,1251.409,,121,121,,,,,,,,,,,,,,,,bars/001.png,bars/mask001.png,,,,,,,,,,,,1,1,,,,,,,1,9,1,9,,,,,,1226.7241,1249.6585,space,22.9197,,1250.6589,1251.1588,1251.4091,1253.9587,space,2.538,,1253.9588,9,36,1254.9585,1254.9586,1254.9868,,,,0,0,0,0,1,130,85,,,,,,,,
,,616286682f7e620d716dae78,65af5607b73447736efa8ac8,2024-01-23_08h04.38.978,bars,2023.2.3,Win32,60.97560976,657b66ea316d21385b68909f,,,,,,,,,,,1254.9875,1255.9921,,,1256.492,1256.7418,,11,191,,,,,,,,,,,,,,,,bars/004.png,bars/mask006.png,,,,,,,,,,,,1,1,,,,,,,0,10,1,10,,,,,,,,,,,1255.9922,1256.4919,1256.7419,1262.892,space,6.1368,,1262.8921,14,66,1263.8914,1263.8915,1263.9205,,,,0,1,1,1,1,25,125,,,,,,,,
,,616286682f7e620d716dae78,65af5607b73447736efa8ac8,2024-01-23_08h04.38.978,bars,2023.2.3,Win32,60.97560976,657b66ea316d21385b68909f,,,,,,,,,,,1263.9211,1264.9243,,,1265.4249,1265.6752,,7,187,,,,,,,,,,,,,,,,bars/030.png,bars/mask002.png,,,,,,,,,,,,0,1,,,,,,,0,8,0,8,,,,,,,,,,,1264.9243,1265.4249,1265.6752,1270.1412,space,4.4498,,1270.1413,47,58,1271.1413,1271.1414,1271.1685,,,,0,2,2,2,1,140,65,,,,,,,,
,,616286682f7e620d716dae78,65af5607b73447736efa8ac8,2024-01-23_08h04.38.978,bars,2023.2.3,Win32,60.97560976,657b66ea316d21385b68909f,,,,,,,,,,,1271.169,1272.158,,,1272.6586,1272.908,,177,-3,,,,,,,,,,,,,,,,bars/011.png,bars/mask006.png,,,,,,,,,,,,0,1,,,,,,,2,10,1,9,,,,,,,,,,,1272.1581,1272.6586,1272.908,1278.3913,space,5.4725,,1278.3914,17,88,1279.3906,1279.3906,1279.4181,,,,0,3,3,3,1,160,85,,,,,,,,
,,616286682f7e620d716dae78,65af5607b73447736efa8ac8,2024-01-23_08h04.38.978,bars,2023.2.3,Win32,60.97560976,657b66ea316d21385b68909f,,,,,,,,,,,1279.4187,1280.4075,,,1280.907,1281.1572,,50,50,,,,,,,,,,,,,,,,bars/044.png,bars/mask007.png,,,,,,,,,,,,0,1,,,,,,,0,10,0,10,,,,,,,,,,,1280.4076,1280.9069,1281.1573,1286.6573,space,5.4836,,1286.6574,25,75,1287.6571,1287.6571,1287.6855,,,,0,4,4,4,1,75,155,,,,,,,,
,,616286682f7e620d716dae78,65af5607b73447736efa8ac8,2024-01-23_08h04.38.978,bars,2023.2.3,Win32,60.97560976,657b66ea316d21385b68909f,,,,,,,,,,,1287.6859,1288.6905,,,1289.1902,1289.4402,,24,24,,,,,,,,,,,,,,,,bars/041.png,bars/mask007.png,,,,,,,,,,,,1,1,,,,,,,0,10,1,9,,,,,,,,,,,1288.6905,1289.1901,1289.4403,1290.4069,space,0.9601,,1290.407,4,61,1291.4067,1291.4069,1291.4086,,,,0,5,5,5,1,20,85,,,,,,,,
,,616286682f7e620d716dae78,65af5607b73447736efa8ac8,2024-01-23_08h04.38.978,bars,2023.2.3,Win32,60.97560976,657b66ea316d21385b68909f,,,,,,,,,,,1291.4092,1292.4068,,,1292.9069,1293.1571,,127,127,,,,,,,,,,,,,,,,bars/015.png,bars/mask009.png,,,,,,,,,,,,1,1,,,,,,,2,10,2,9,,,,,,,,,,,1292.4068,1292.9068,1293.1571,1296.1902,space,3.0175,,1296.1903,17,33,1297.1898,1297.19,1297.2187,,,,0,6,6,6,1,110,160,,,,,,,,
,,616286682f7e620d716dae78,65af5607b73447736efa8ac8,2024-01-23_08h04.38.978,bars,2023.2.3,Win32,60.97560976,657b66ea316d21385b68909f,,,,,,,,,,,1297.2193,1298.2232,,,1298.7231,1298.9736,,34,214,,,,,,,,,,,,,,,,bars/015.png,bars/mask004.png,,,,,,,,,,,,0,2,,,,,,,0,8,0,8,,,,,,,,,,,1298.2233,1298.723,1298.9737,1302.7566,space,3.7702,,1302.7567,76,54,1303.7562,1303.7562,1303.7881,,,,0,7,7,7,1,110,160,,,,,,,,
,,616286682f7e620d716dae78,65af5607b73447736efa8ac8,2024-01-23_08h04.38.978,bars,2023.2.3,Win32,60.97560976,657b66ea316d21385b68909f,,,,,,,,,,,1303.7889,1304.7894,,,1305.2897,1305.5395,,37,37,,,,,,,,,,,,,,,,bars/031.png,bars/mask006.png,,,,,,,,,,,,8,2,,,,,,,0,10,0,9,,,,,,,,,,,1304.7895,1305.2896,1305.5396,1309.4902,space,3.9359,,1309.4903,83,2,1310.4895,1310.49,1310.5189,,,,0,8,8,8,1,120,35,,,,,,,,
,,616286682f7e620d716dae78,65af5607b73447736efa8ac8,2024-01-23_08h04.38.978,bars,2023.2.3,Win32,60.97560976,657b66ea316d21385b68909f,,,,,,,,,,,1310.5194,1311.5228,,,1312.0223,1312.2728,,32,212,,,,,,,,,,,,,,,,bars/037.png,bars/mask008.png,,,,,,,,,,,,0,1,,,,,,,2,10,3,10,,,,,,,,,,,1311.5228,1312.0223,1312.2729,1315.5226,space,3.2421,,1315.5226,62,73,1316.5222,1316.5223,1316.5529,,,,0,9,9,9,1,150,105,,,,,,,,
,,616286682f7e620d716dae78,65af5607b73447736efa8ac8,2024-01-23_08h04.38.978,bars,2023.2.3,Win32,60.97560976,657b66ea316d21385b68909f,,,,,,,,,,,1316.5534,1317.5558,,,1318.0558,1318.3055,,161,-19,,,,,,,,,,,,,,,,bars/011.png,bars/mask009.png,,,,,,,,,,,,4,1,,,,,,,4,10,4,10,,,,,,,,,,,1317.5559,1318.0558,1318.3055,1324.8893,space,6.5681,,1324.8894,1,76,1325.8884,1325.8886,1325.9176,,,,0,10,10,10,1,160,85,,,,,,,,
,,616286682f7e620d716dae78,65af5607b73447736efa8ac8,2024-01-23_08h04.38.978,bars,2023.2.3,Win32,60.97560976,657b66ea316d21385b68909f,,,,,,,,,,,1325.9181,1326.9213,,,1327.4219,1327.6712,,171,171,,,,,,,,,,,,,,,,bars/018.png,bars/mask001.png,,,,,,,,,,,,1,1,,,,,,,2,10,3,10,,,,,,,,,,,1326.9214,1327.4219,1327.6713,1330.0551,space,2.37,,1330.0552,21,81,1331.0546,1331.0547,1331.0832,,,,0,11,11,11,1,150,90,,,,,,,,
,,616286682f7e620d716dae78,65af5607b73447736efa8ac8,2024-01-23_08h04.38.978,bars,2023.2.3,Win32,60.97560976,657b66ea316d21385b68909f,,,,,,,,,,,1331.0836,1332.0716,,,1332.5716,1332.8218,,63,63,,,,,,,,,,,,,,,,bars/047.png,bars/mask004.png,,,,,,,,,,,,6,2,,,,,,,4,8,4,8,,,,,,,,,,,1332.0716,1332.5715,1332.8218,1336.1717,space,3.3377,,1336.1717,48,7,1337.1711,1337.1712,1337.2009,,,,0,12,12,12,1,15,70,,,,,,,,
,,616286682f7e620d716dae78,65af5607b73447736efa8ac8,2024-01-23_08h04.38.978,bars,2023.2.3,Win32,60.97560976,657b66ea316d21385b68909f,,,,,,,,,,,1337.2014,1338.2044,,,1338.7047,1338.9544,,152,152,,,,,,,,,,,,,,,,bars/004.png,bars/mask008.png,,,,,,,,,,,,1,2,,,,,,,2,10,2,9,,,,,,,,,,,1338.2045,1338.7046,1338.9544,1342.1371,space,3.1687,,1342.1372,53,27,1343.1377,1343.1378,1343.1664,,,,0,13,13,13,1,25,125,,,,,,,,
,,616286682f7e620d716dae78,65af5607b73447736efa8ac8,2024-01-23_08h04.38.978,bars,2023.2.3,Win32,60.97560976,657b66ea316d21385b68909f,,,,,,,,,,,1343.167,1344.1709,,,1344.6709,1344.9204,,71,71,,,,,,,,,,,,,,,,bars/009.png,bars/mask007.png,,,,,,,,,,,,0,2,,,,,,,4,10,5,10,,,,,,,,,,,1344.1709,1344.6707,1344.9205,1345.6712,space,0.7431,,1345.6714,56,34,1346.6701,1346.6702,1346.6721,,,,0,14,14,14,1,15,105,,,,,,,,
,,616286682f7e620d716dae78,65af5607b73447736efa8ac8,2024-01-23_08h04.38.978,bars,2023.2.3,Win32,60.97560976,657b66ea316d21385b68909f,,,,,,,,,,,1346.6728,1347.6701,,,1348.1709,1348.4208,,157,-23,,,,,,,,,,,,,,,,bars/021.png,bars/mask002.png,,,,,,,,,,,,6,1,,,,,,,6,8,6,9,,,,,,,,,,,1347.6702,1348.1708,1348.4209,1354.4706,space,6.037,,1354.4707,2,87,1355.4705,1355.4705,1355.5024,,,,0,15,15,15,1,155,70,,,,,,,,
,,616286682f7e620d716dae78,65af5607b73447736efa8ac8,2024-01-23_08h04.38.978,bars,2023.2.3,Win32,60.97560976,657b66ea316d21385b68909f,,,,,,,,,,,1355.5033,1356.5037,,,1357.0033,1357.2538,,139,139,,,,,,,,,,,,,,,,bars/028.png,bars/mask000.png,,,,,,,,,,,,3,2,,,,,,,4,6,3,7,,,,,,,,,,,1356.5037,1357.0032,1357.2539,1362.5866,space,5.3201,,1362.5866,86,19,1363.5865,1363.5865,1363.618,,,,0,16,16,16,1,45,120,,,,,,,,
,,616286682f7e620d716dae78,65af5607b73447736efa8ac8,2024-01-23_08h04.38.978,bars,2023.2.3,Win32,60.97560976,657b66ea316d21385b68909f,,,,,,,,,,,1363.6187,1364.6199,,,1365.1199,1365.3702,,48,48,,,,,,,,,,,,,,,,bars/040.png,bars/mask003.png,,,,,,,,,,,,0,2,,,,,,,6,4,7,6,,,,,,,,,,,1364.62,1365.1198,1365.3703,1366.3534,space,0.9689,,1366.3534,88,43,1367.3528,1367.3529,1367.3546,,,,0,17,17,17,1,140,5,,,,,,,,
,,616286682f7e620d716dae78,65af5607b73447736efa8ac8,2024-01-23_08h04.38.978,bars,2023.2.3,Win32,60.97560976,657b66ea316d21385b68909f,,,,,,,,,,,1367.3552,1368.3529,,,1368.8537,1369.1029,,144,144,,,,,,,,,,,,,,,,bars/018.png,bars/mask005.png,,,,,,,,,,,,6,1,,,,,,,8,2,8,2,,,,,,,,,,,1368.353,1368.8536,1369.103,1372.2196,space,3.0937,,1372.2198,6,54,1373.2197,1373.2198,1373.2506,,,,0,18,18,18,1,150,90,,,,,,,,
,,616286682f7e620d716dae78,65af5607b73447736efa8ac8,2024-01-23_08h04.38.978,bars,2023.2.3,Win32,60.97560976,657b66ea316d21385b68909f,,,,,,,,,,,1373.2515,1374.2524,,,1374.7529,1375.0029,,12,192,,,,,,,,,,,,,,,,bars/048.png,bars/mask004.png,,,,,,,,,,,,1,2,,,,,,,10,4,10,3,,,,,,,,,,,1374.2525,1374.7529,1375.0029,1379.0198,space,4.0027,,1379.0198,38,17,1380.0191,1380.0191,1380.0496,,,,0,19,19,19,1,50,175,,,,,,,,
,,616286682f7e620d716dae78,65af5607b73447736efa8ac8,2024-01-23_08h04.38.978,bars,2023.2.3,Win32,60.97560976,657b66ea316d21385b68909f,,,,,,,,,,,1380.0503,1381.0522,,,1381.5519,1381.8024,,110,110,,,,,,,,,,,,,,,,bars/015.png,bars/mask008.png,,,,,,,,,,,,10,1,,,,,,,10,6,10,6,,,,,,,,,,,1381.0523,1381.5518,1381.8024,1385.4684,space,3.652,,1385.4685,0,50,1386.4688,1386.4689,1386.4987,,,,0,20,20,20,1,110,160,,,,,,,,
,,616286682f7e620d716dae78,65af5607b73447736efa8ac8,2024-01-23_08h04.38.978,bars,2023.2.3,Win32,60.97560976,657b66ea316d21385b68909f,,,,,,,,,,,1386.4993,1387.5019,,,1388.0017,1388.252,,179,-1,,,,,,,,,,,,,,,,bars/001.png,bars/mask007.png,,,,,,,,,,,,0,1,,,,,,,10,4,9,4,,,,,,,,,,,1387.502,1388.0015,1388.252,1391.2018,space,2.939,,1391.202,49,86,1392.2016,1392.2018,1392.2302,,,,0,21,21,21,1,130,85,,,,,,,,
,,616286682f7e620d716dae78,65af5607b73447736efa8ac8,2024-01-23_08h04.38.978,bars,2023.2.3,Win32,60.97560976,657b66ea316d21385b68909f,,,,,,,,,,,1392.2308,1393.2348,,,1393.7347,1393.9848,,20,200,,,,,,,,,,,,,,,,bars/023.png,bars/mask008.png,,,,,,,,,,,,10,1,,,,,,,10,6,10,7,,,,,,,,,,,1393.235,1393.7346,1393.985,1399.4849,space,5.4906,,1399.485,0,85,1400.4841,1400.4841,1400.514,,,,0,22,22,22,1,20,115,,,,,,,,
,,616286682f7e620d716dae78,65af5607b73447736efa8ac8,2024-01-23_08h04.38.978,bars,2023.2.3,Win32,60.97560976,657b66ea316d21385b68909f,,,,,,,,,,,1400.5146,1401.5176,,,1402.0184,1402.2682,,26,26,,,,,,,,,,,,,,,,bars/048.png,bars/mask006.png,,,,,,,,,,,,1,1,,,,,,,8,4,7,4,,,,,,,,,,,1401.5179,1402.0183,1402.2683,1407.8512,space,5.5668,,1407.8512,24,31,1408.851,1408.8511,1408.8799,,,,0,23,23,23,1,50,175,,,,,,,,
,,616286682f7e620d716dae78,65af5607b73447736efa8ac8,2024-01-23_08h04.38.978,bars,2023.2.3,Win32,60.97560976,657b66ea316d21385b68909f,,,,,,,,,,,1408.8804,1409.8843,,,1410.3837,1410.6351,,15,195,,,,,,,,,,,,,,,,bars/010.png,bars/mask000.png,,,,,,,,,,,,0,1,,,,,,,6,6,6,6,,,,,,,,,,,1409.8844,1410.3837,1410.6351,1417.017,space,6.3726,,1417.0171,30,40,1418.0173,1418.0174,1418.0466,,,,0,24,24,24,1,165,55,,,,,,,,
,,616286682f7e620d716dae78,65af5607b73447736efa8ac8,2024-01-23_08h04.38.978,bars,2023.2.3,Win32,60.97560976,657b66ea316d21385b68909f,,,,,,,,,,,1418.0472,1419.0496,,,1419.5509,1419.7999,,113,113,,,,,,,,,,,,,,,,bars/006.png,bars/mask007.png,,,,,,,,,,,,5,2,,,,,,,4,8,4,8,,,,,,,,,,,1419.0497,1419.5508,1419.8001,1423.9005,space,4.0932,,1423.9005,78,13,1424.8998,1424.9,1424.9297,,,,0,25,25,25,1,35,100,,,,,,,,
,,616286682f7e620d716dae78,65af5607b73447736efa8ac8,2024-01-23_08h04.38.978,bars,2023.2.3,Win32,60.97560976,657b66ea316d21385b68909f,,,,,,,,,,,1424.9302,1425.9334,,,1426.4338,1426.6834,,114,114,,,,,,,,,,,,,,,,bars/042.png,bars/mask002.png,,,,,,,,,,,,0,1,,,,,,,6,6,4,6,,,,,,,,,,,1425.9335,1426.4337,1426.6835,1429.4501,space,2.7536,,1429.4501,31,39,1430.45,1430.45,1430.48,,,,0,26,26,26,1,145,75,,,,,,,,
,,616286682f7e620d716dae78,65af5607b73447736efa8ac8,2024-01-23_08h04.38.978,bars,2023.2.3,Win32,60.97560976,657b66ea316d21385b68909f,,,,,,,,,,,1430.4805,1431.4834,,,1431.9832,1432.2339,,47,47,,,,,,,,,,,,,,,,bars/028.png,bars/mask002.png,,,,,,,,,,,,3,1,,,,,,,4,8,3,8,,,,,,,,,,,1431.4835,1431.9831,1432.2339,1436.5496,space,4.3081,,1436.5498,2,73,1437.5503,1437.5504,1437.5779,,,,0,27,27,27,1,45,120,,,,,,,,
,,616286682f7e620d716dae78,65af5607b73447736efa8ac8,2024-01-23_08h04.38.978,bars,2023.2.3,Win32,60.97560976,657b66ea316d21385b68909f,,,,,,,,,,,1437.5785,1438.5665,,,1439.0663,1439.316,,120,120,,,,,,,,,,,,,,,,bars/015.png,bars/mask008.png,,,,,,,,,,,,5,1,,,,,,,6,6,7,5,,,,,,,,,,,1438.5666,1439.0663,1439.3161,1443.4502,space,4.1192,,1443.4504,10,40,1444.4492,1444.4493,1444.478,,,,0,28,28,28,1,110,160,,,,,,,,
,,616286682f7e620d716dae78,65af5607b73447736efa8ac8,2024-01-23_08h04.38.978,bars,2023.2.3,Win32,60.97560976,657b66ea316d21385b68909f,,,,,,,,,,,1444.4785,1445.4822,,,1445.983,1446.2325,,36,36,,,,,,,,,,,,,,,,bars/024.png,bars/mask001.png,,,,,,,,,,,,0,2,,,,,,,4,8,5,9,,,,,,,,,,,1445.4823,1445.983,1446.2326,1449.4985,space,3.2567,,1449.4986,84,46,1450.4985,1450.4987,1450.5296,,,,0,29,29,29,1,120,170,,,,,,,,
,,616286682f7e620d716dae78,65af5607b73447736efa8ac8,2024-01-23_08h04.38.978,bars,2023.2.3,Win32,60.97560976,657b66ea316d21385b68909f,,,,,,,,,,,1450.5306,1451.5324,,,1452.0319,1452.2825,,129,129,,,,,,,,,,,,,,,,bars/025.png,bars/mask007.png,,,,,,,,,,,,1,1,,,,,,,6,6,5,5,,,,,,,,,,,1451.5324,1452.0317,1452.2826,1454.8156,space,2.5181,,1454.8157,24,89,1455.8154,1455.8154,1455.8453,,,,0,30,30,30,1,105,40,,,,,,,,
,,616286682f7e620d716dae78,65af5607b73447736efa8ac8,2024-01-23_08h04.38.978,bars,2023.2.3,Win32,60.97560976,657b66ea316d21385b68909f,,,,,,,,,,,1455.8458,1456.8482,,,1457.3486,1457.5982,,126,126,,,,,,,,,,,,,,,,bars/027.png,bars/mask003.png,,,,,,,,,,,,1,1,,,,,,,4,8,3,10,,,,,,,,,,,1456.8483,1457.3486,1457.5983,1460.0143,space,2.4068,,1460.0144,16,76,1461.0159,1461.016,1461.0456,,,,0,31,31,31,1,110,50,,,,,,,,
,,616286682f7e620d716dae78,65af5607b73447736efa8ac8,2024-01-23_08h04.38.978,bars,2023.2.3,Win32,60.97560976,657b66ea316d21385b68909f,,,,,,,,,,,1461.0465,1462.048,,,1462.5483,1462.7981,,34,34,,,,,,,,,,,,,,,,bars/028.png,bars/mask008.png,,,,,,,,,,,,3,1,,,,,,,2,6,4,7,,,,,,,,,,,1462.0481,1462.5482,1462.7981,1467.1986,space,4.3869,,1467.1987,11,86,1468.1977,1468.1978,1468.2258,,,,0,32,32,32,1,45,120,,,,,,,,
,,616286682f7e620d716dae78,65af5607b73447736efa8ac8,2024-01-23_08h04.38.978,bars,2023.2.3,Win32,60.97560976,657b66ea316d21385b68909f,,,,,,,,,,,1468.2263,1469.2146,,,1469.7149,1469.9642,,30,30,,,,,,,,,,,,,,,,bars/046.png,bars/mask002.png,,,,,,,,,,,,0,2,,,,,,,0,8,0,8,,,,,,,,,,,1469.2147,1469.7148,1469.9643,1473.7313,space,3.7555,,1473.7313,55,55,1474.7302,1474.7302,1474.7606,,,,0,33,33,33,1,155,85,,,,,,,,
,,616286682f7e620d716dae78,65af5607b73447736efa8ac8,2024-01-23_08h04.38.978,bars,2023.2.3,Win32,60.97560976,657b66ea316d21385b68909f,,,,,,,,,,,1474.7612,1475.7639,,,1476.2639,1476.5139,,146,146,,,,,,,,,,,,,,,,bars/014.png,bars/mask009.png,,,,,,,,,,,,0,2,,,,,,,2,6,2,7,,,,,,,,,,,1475.764,1476.2639,1476.514,1479.8645,space,3.3344,,1479.8646,66,34,1480.8627,1480.8627,1480.8769,,,,0,34,34,34,1,80,0,,,,,,,,
,,616286682f7e620d716dae78,65af5607b73447736efa8ac8,2024-01-23_08h04.38.978,bars,2023.2.3,Win32,60.97560976,657b66ea316d21385b68909f,,,,,,,,,,,1480.8772,1481.8798,,,1482.38,1482.6303,,94,94,,,,,,,,,,,,,,,,bars/002.png,bars/mask004.png,,,,,,,,,,,,3,2,,,,,,,0,4,1,4,,,,,,,,,,,1481.8798,1482.3799,1482.6304,1484.5972,space,1.9502,,1484.5973,36,9,1485.5968,1485.5968,1485.5987,,,,0,35,35,35,1,130,85,,,,,,,,
,,616286682f7e620d716dae78,65af5607b73447736efa8ac8,2024-01-23_08h04.38.978,bars,2023.2.3,Win32,60.97560976,657b66ea316d21385b68909f,,,,,,,,,,,1485.5992,1486.5968,,,1487.0967,1487.3467,,141,141,,,,,,,,,,,,,,,,bars/046.png,bars/mask008.png,,,,,,,,,,,,0,1,,,,,,,0,6,0,4,,,,,,,,,,,1486.5968,1487.0966,1487.3468,1488.4638,space,1.101,,1488.4639,14,56,1489.4635,1489.4635,1489.4672,,,,0,36,36,36,1,155,85,,,,,,,,
,,616286682f7e620d716dae78,65af5607b73447736efa8ac8,2024-01-23_08h04.38.978,bars,2023.2.3,Win32,60.97560976,657b66ea316d21385b68909f,,,,,,,,,,,1489.4679,1490.4638,,,1490.9636,1491.2138,,171,171,,,,,,,,,,,,,,,,bars/044.png,bars/mask001.png,,,,,,,,,,,,2,2,,,,,,,2,4,2,5,,,,,,,,,,,1490.4639,1490.9636,1491.2139,1495.0641,space,3.837,,1495.0641,84,16,1496.0633,1496.0633,1496.0935,,,,0,37,37,37,1,75,155,,,,,,,,
,,616286682f7e620d716dae78,65af5607b73447736efa8ac8,2024-01-23_08h04.38.978,bars,2023.2.3,Win32,60.97560976,657b66ea316d21385b68909f,,,,,,,,,,,1496.0941,1497.0965,,,1497.5967,1497.8469,,17,17,,,,,,,,,,,,,,,,bars/038.png,bars/mask007.png,,,,,,,,,,,,0,1,,,,,,,4,6,5,6,,,,,,,,,,,1497.0965,1497.5966,1497.8469,1498.313,space,0.4512,,1498.313,32,53,1499.313,1499.3131,1499.3171,,,,0,38,38,38,1,165,70,,,,,,,,
,,616286682f7e620d716dae78,65af5607b73447736efa8ac8,2024-01-23_08h04.38.978,bars,2023.2.3,Win32,60.97560976,657b66ea316d21385b68909f,,,,,,,,,,,1499.3182,1500.313,,,1500.8126,1501.0631,,149,149,,,,,,,,,,,,,,,,bars/006.png,bars/mask003.png,,,,,,,,,,,,0,2,,,,,,,2,8,1,8,,,,,,,,,,,1500.313,1500.8125,1501.0631,1502.2466,space,1.1755,,1502.2467,66,49,1503.2465,1503.2466,1503.2511,,,,0,39,39,39,1,35,100,,,,,,,,
,,616286682f7e620d716dae78,65af5607b73447736efa8ac8,2024-01-23_08h04.38.978,bars,2023.2.3,Win32,60.97560976,657b66ea316d21385b68909f,,,,,,,,,,,1503.252,1504.246,,,1504.7464,1504.9963,,3,183,,,,,,,,,,,,,,,,bars/004.png,bars/mask003.png,,,,,,,,,,,,0,1,,,,,,,0,10,0,10,,,,,,,,,,,1504.246,1504.7464,1504.9963,1507.263,space,2.2541,,1507.2631,22,58,1508.2625,1508.2625,1508.2923,,,,0,40,40,40,1,25,125,,,,,,,,
,,616286682f7e620d716dae78,65af5607b73447736efa8ac8,2024-01-23_08h04.38.978,bars,2023.2.3,Win32,60.97560976,657b66ea316d21385b68909f,,,,,,,,,,,1508.2928,1509.2959,,,1509.796,1510.0459,,39,39,,,,,,,,,,,,,,,,bars/028.png,bars/mask009.png,,,,,,,,,,,,1,1,,,,,,,0,8,1,10,,,,,,,,,,,1509.296,1509.796,1510.046,1512.4798,space,2.4181,,1512.4799,6,81,1513.4802,1513.4803,1513.5088,,,,0,41,41,41,1,45,120,,,,,,,,
,,616286682f7e620d716dae78,65af5607b73447736efa8ac8,2024-01-23_08h04.38.978,bars,2023.2.3,Win32,60.97560976,657b66ea316d21385b68909f,,,,,,,,,,,1513.5094,1514.5122,,,1515.0123,1515.2624,,176,176,,,,,,,,,,,,,,,,bars/012.png,bars/mask008.png,,,,,,,,,,,,4,2,,,,,,,0,10,0,10,,,,,,,,,,,1514.5122,1515.0123,1515.2625,1516.1625,space,0.8895,,1516.1626,86,19,1517.1619,1517.162,1517.167,,,,0,42,42,42,1,90,15,,,,,,,,
,,616286682f7e620d716dae78,65af5607b73447736efa8ac8,2024-01-23_08h04.38.978,bars,2023.2.3,Win32,60.97560976,657b66ea316d21385b68909f,,,,,,,,,,,1517.1677,1518.1624,,,1518.6624,1518.9119,,47,47,,,,,,,,,,,,,,,,bars/019.png,bars/mask002.png,,,,,,,,,,,,2,1,,,,,,,2,10,2,10,,,,,,,,,,,1518.1625,1518.6623,1518.912,1521.1124,space,2.186,,1521.1125,2,58,1522.1118,1522.1119,1522.1164,,,,0,43,43,43,1,45,105,,,,,,,,
,,616286682f7e620d716dae78,65af5607b73447736efa8ac8,2024-01-23_08h04.38.978,bars,2023.2.3,Win32,60.97560976,657b66ea316d21385b68909f,,,,,,,,,,,1522.1171,1523.1118,,,1523.6124,1523.8617,,126,126,,,,,,,,,,,,,,,,bars/009.png,bars/mask008.png,,,,,,,,,,,,3,2,,,,,,,0,8,1,9,,,,,,,,,,,1523.1118,1523.6123,1523.8618,1526.7282,space,2.8581,,1526.7284,69,21,1527.7285,1527.7285,1527.7587,,,,0,44,44,44,1,15,105,,,,,,,,
,,616286682f7e620d716dae78,65af5607b73447736efa8ac8,2024-01-23_08h04.38.978,bars,2023.2.3,Win32,60.97560976,657b66ea316d21385b68909f,,,,,,,,,,,1527.7594,1528.7615,,,1529.2616,1529.5114,,134,134,,,,,,,,,,,,,,,,bars/045.png,bars/mask006.png,,,,,,,,,,,,0,1,,,,,,,0,10,0,10,,,,,,,,,,,1528.7616,1529.2615,1529.5115,1530.3452,space,0.821,,1530.3454,34,56,1531.3449,1531.345,1531.3487,,,,0,45,45,45,1,100,10,,,,,,,,
,,616286682f7e620d716dae78,65af5607b73447736efa8ac8,2024-01-23_08h04.38.978,bars,2023.2.3,Win32,60.97560976,657b66ea316d21385b68909f,,,,,,,,,,,1531.3493,1532.345,,,1532.8446,1533.0944,,51,51,,,,,,,,,,,,,,,,bars/025.png,bars/mask005.png,,,,,,,,,,,,6,2,,,,,,,0,10,0,10,,,,,,,,,,,1532.345,1532.8446,1533.0945,1535.5782,space,2.4675,,1535.5783,54,11,1536.5781,1536.5781,1536.6073,,,,0,46,46,46,1,105,40,,,,,,,,
,,616286682f7e620d716dae78,65af5607b73447736efa8ac8,2024-01-23_08h04.38.978,bars,2023.2.3,Win32,60.97560976,657b66ea316d21385b68909f,,,,,,,,,,,1536.608,1537.611,,,1538.1112,1538.3608,,22,22,,,,,,,,,,,,,,,,bars/011.png,bars/mask004.png,,,,,,,,,,,,0,1,,,,,,,0,8,0,8,,,,,,,,,,,1537.611,1538.1112,1538.3608,1544.0439,space,5.6757,,1544.044,42,63,1545.0438,1545.0439,1545.0769,,,,0,47,47,47,1,160,85,,,,,,,,
,,616286682f7e620d716dae78,65af5607b73447736efa8ac8,2024-01-23_08h04.38.978,bars,2023.2.3,Win32,60.97560976,657b66ea316d21385b68909f,,,,,,,,,,,1545.0775,1546.0774,,,1546.5772,1546.8275,,35,35,,,,,,,,,,,,,,,,bars/028.png,bars/mask004.png,,,,,,,,,,,,0,1,,,,,,,0,6,0,7,,,,,,,,,,,1546.0775,1546.5771,1546.8275,1550.5935,space,3.754,,1550.5937,10,85,1551.5935,1551.5936,1551.6221,,,,0,48,48,48,1,45,120,,,,,,,,
,,616286682f7e620d716dae78,65af5607b73447736efa8ac8,2024-01-23_08h04.38.978,bars,2023.2.3,Win32,60.97560976,657b66ea316d21385b68909f,,,,,,,,,,,1551.6226,1552.6272,,,1553.1279,1553.3775,,167,167,,,,,,,,,,,,,,,,bars/046.png,bars/mask006.png,,,,,,,,,,,,2,1,,,,,,,2,4,3,5,,,,,,,,,,,1552.6273,1553.1278,1553.3775,1554.427,space,1.0381,,1554.427,12,82,1555.427,1555.4271,1555.4286,,,,0,49,49,49,1,155,85,,,,,,,,
,,616286682f7e620d716dae78,65af5607b73447736efa8ac8,2024-01-23_08h04.38.978,bars,2023.2.3,Win32,60.97560976,657b66ea316d21385b68909f,,,,,,,,,,,,,,,,,,,,,,,,,,,,,,,,,,,,,,,,,,,,,,,,,,,,,,,,,,,,,,,,,,,,,,,,,,,,,,,,,,,,,,,,,,,,,1555.4291,1615.4235,0,2,2,2,1,sequence_tables/blk003.csv
,,616286682f7e620d716dae78,65af5607b73447736efa8ac8,2024-01-23_08h04.38.978,bars,2023.2.3,Win32,60.97560976,657b66ea316d21385b68909f,,,,,,,,,,,1632.5318,1633.5064,,,1634.0066,1634.2565,,0,180,,,,,,,,,,,,,,,,bars/002.png,bars/mask004.png,,,,,,,,,,,,0,1,,,,,,,3,2,6,4,,,,,,1615.4528,1632.4906,space,17.0215,,1633.5064,1634.0065,1634.2566,1638.2732,space,4.0025,,1638.2733,50,85,1639.2726,1639.2727,1639.3013,,,,0,0,0,0,1,130,85,,,,,,,,
,,616286682f7e620d716dae78,65af5607b73447736efa8ac8,2024-01-23_08h04.38.978,bars,2023.2.3,Win32,60.97560976,657b66ea316d21385b68909f,,,,,,,,,,,1639.3019,1640.3058,,,1640.8061,1641.0567,,119,119,,,,,,,,,,,,,,,,bars/042.png,bars/mask004.png,,,,,,,,,,,,0,1,,,,,,,1,4,1,4,,,,,,,,,,,1640.3059,1640.8059,1641.0568,1643.223,space,2.1523,,1643.223,26,44,1644.2223,1644.2223,1644.224,,,,0,1,1,1,1,145,75,,,,,,,,
,,616286682f7e620d716dae78,65af5607b73447736efa8ac8,2024-01-23_08h04.38.978,bars,2023.2.3,Win32,60.97560976,657b66ea316d21385b68909f,,,,,,,,,,,1644.2245,1645.2224,,,1645.7196,1645.9722,,21,201,,,,,,,,,,,,,,,,bars/000.png,bars/mask005.png,,,,,,,,,,,,1,1,,,,,,,3,6,4,5,,,,,,,,,,,1645.2224,1645.7194,1645.9723,1651.106,space,5.1184,,1651.1061,19,56,1652.1054,1652.1055,1652.1343,,,,0,2,2,2,1,40,145,,,,,,,,
,,616286682f7e620d716dae78,65af5607b73447736efa8ac8,2024-01-23_08h04.38.978,bars,2023.2.3,Win32,60.97560976,657b66ea316d21385b68909f,,,,,,,,,,,1652.1348,1653.1384,,,1653.6389,1653.8886,,28,28,,,,,,,,,,,,,,,,bars/041.png,bars/mask004.png,,,,,,,,,,,,4,1,,,,,,,5,4,5,4,,,,,,,,,,,1653.1384,1653.6387,1653.8887,1656.0557,space,2.1511,,1656.0557,8,57,1657.0553,1657.0553,1657.0829,,,,0,3,3,3,1,20,85,,,,,,,,
,,616286682f7e620d716dae78,65af5607b73447736efa8ac8,2024-01-23_08h04.38.978,bars,2023.2.3,Win32,60.97560976,657b66ea316d21385b68909f,,,,,,,,,,,1657.0835,1658.0714,,,1658.572,1658.8218,,156,-24,,,,,,,,,,,,,,,,bars/017.png,bars/mask000.png,,,,,,,,,,,,2,1,,,,,,,3,6,3,6,,,,,,,,,,,1658.0715,1658.5719,1658.8218,1664.7553,space,5.9255,,1664.7555,11,69,1665.7552,1665.7552,1665.7848,,,,0,4,4,4,1,145,45,,,,,,,,
,,616286682f7e620d716dae78,65af5607b73447736efa8ac8,2024-01-23_08h04.38.978,bars,2023.2.3,Win32,60.97560976,657b66ea316d21385b68909f,,,,,,,,,,,1665.7853,1666.788,,,1667.2883,1667.5383,,165,165,,,,,,,,,,,,,,,,bars/033.png,bars/mask009.png,,,,,,,,,,,,5,2,,,,,,,5,8,4,8,,,,,,,,,,,1666.7881,1667.2882,1667.5384,1672.1705,space,4.6164,,1672.1706,40,10,1673.1695,1673.1696,1673.1822,,,,0,5,5,5,1,25,155,,,,,,,,
,,616286682f7e620d716dae78,65af5607b73447736efa8ac8,2024-01-23_08h04.38.978,bars,2023.2.3,Win32,60.97560976,657b66ea316d21385b68909f,,,,,,,,,,,1673.1824,1674.1707,,,1674.6709,1674.9201,,31,31,,,,,,,,,,,,,,,,bars/031.png,bars/mask004.png,,,,,,,,,,,,5,2,,,,,,,3,6,2,6,,,,,,,,,,,1674.1707,1674.6709,1674.9201,1678.0207,space,3.0853,,1678.0208,89,4,1679.0202,1679.0202,1679.0469,,,,0,6,6,6,1,120,35,,,,,,,,
,,616286682f7e620d716dae78,65af5607b73447736efa8ac8,2024-01-23_08h04.38.978,bars,2023.2.3,Win32,60.97560976,657b66ea316d21385b68909f,,,,,,,,,,,1679.0472,1680.0369,,,1680.5369,1680.7876,,125,125,,,,,,,,,,,,,,,,bars/026.png,bars/mask000.png,,,,,,,,,,,,0,2,,,,,,,1,4,2,4,,,,,,,,,,,1680.0371,1680.5369,1680.7877,1683.5215,space,2.7247,,1683.5216,90,40,1684.5204,1684.5205,1684.5494,,,,0,7,7,7,1,35,85,,,,,,,,
,,616286682f7e620d716dae78,65af5607b73447736efa8ac8,2024-01-23_08h04.38.978,bars,2023.2.3,Win32,60.97560976,657b66ea316d21385b68909f,,,,,,,,,,,1684.5499,1685.5533,,,1686.0544,1686.3035,,125,125,,,,,,,,,,,,,,,,bars/027.png,bars/mask005.png,,,,,,,,,,,,0,1,,,,,,,0,2,0,2,,,,,,,,,,,1685.5533,1686.0544,1686.3036,1689.7703,space,3.4546,,1689.7704,15,75,1690.7697,1690.7698,1690.8001,,,,0,8,8,8,1,110,50,,,,,,,,
,,616286682f7e620d716dae78,65af5607b73447736efa8ac8,2024-01-23_08h04.38.978,bars,2023.2.3,Win32,60.97560976,657b66ea316d21385b68909f,,,,,,,,,,,1690.8007,1691.8031,,,1692.3031,1692.5533,,41,41,,,,,,,,,,,,,,,,bars/013.png,bars/mask003.png,,,,,,,,,,,,0,2,,,,,,,0,4,0,3,,,,,,,,,,,1691.8032,1692.303,1692.5534,1697.7865,space,5.2187,,1697.7867,34,31,1698.7862,1698.7863,1698.8162,,,,0,9,9,9,1,75,10,,,,,,,,
,,616286682f7e620d716dae78,65af5607b73447736efa8ac8,2024-01-23_08h04.38.978,bars,2023.2.3,Win32,60.97560976,657b66ea316d21385b68909f,,,,,,,,,,,1698.8168,1699.8194,,,1700.3194,1700.57,,43,43,,,,,,,,,,,,,,,,bars/039.png,bars/mask007.png,,,,,,,,,,,,0,1,,,,,,,0,6,0,5,,,,,,,,,,,1699.8195,1700.3192,1700.57,1702.9033,space,2.3216,,1702.9034,48,62,1703.9027,1703.9027,1703.9331,,,,0,10,10,10,1,175,105,,,,,,,,
,,616286682f7e620d716dae78,65af5607b73447736efa8ac8,2024-01-23_08h04.38.978,bars,2023.2.3,Win32,60.97560976,657b66ea316d21385b68909f,,,,,,,,,,,1703.9336,1704.9234,,,1705.4197,1705.6698,,4,4,,,,,,,,,,,,,,,,bars/035.png,bars/mask005.png,,,,,,,,,,,,0,1,,,,,,,0,8,0,9,,,,,,,,,,,1704.9234,1705.4197,1705.6699,1709.9034,space,4.2249,,1709.9034,9,56,1710.9025,1710.9025,1710.9312,,,,0,11,11,11,1,175,60,,,,,,,,
,,616286682f7e620d716dae78,65af5607b73447736efa8ac8,2024-01-23_08h04.38.978,bars,2023.2.3,Win32,60.97560976,657b66ea316d21385b68909f,,,,,,,,,,,1710.9317,1711.9359,,,1712.4369,1712.6859,,113,113,,,,,,,,,,,,,,,,bars/010.png,bars/mask005.png,,,,,,,,,,,,0,1,,,,,,,2,10,2,9,,,,,,,,,,,1711.936,1712.4368,1712.6859,1713.5189,space,0.8222,,1713.519,52,58,1714.5189,1714.519,1714.5205,,,,0,12,12,12,1,165,55,,,,,,,,
,,616286682f7e620d716dae78,65af5607b73447736efa8ac8,2024-01-23_08h04.38.978,bars,2023.2.3,Win32,60.97560976,657b66ea316d21385b68909f,,,,,,,,,,,1714.5211,1715.5189,,,1716.0189,1716.2687,,67,67,,,,,,,,,,,,,,,,bars/043.png,bars/mask005.png,,,,,,,,,,,,0,1,,,,,,,0,10,0,10,,,,,,,,,,,1715.519,1716.0189,1716.2687,1716.47,space,0.1851,,1716.47,37,63,1717.469,1717.4691,1717.4707,,,,0,13,13,13,1,30,130,,,,,,,,
,,616286682f7e620d716dae78,65af5607b73447736efa8ac8,2024-01-23_08h04.38.978,bars,2023.2.3,Win32,60.97560976,657b66ea316d21385b68909f,,,,,,,,,,,1717.4716,1718.4687,,,1718.9688,1719.2189,,72,72,,,,,,,,,,,,,,,,bars/010.png,bars/mask002.png,,,,,,,,,,,,4,2,,,,,,,0,10,0,10,,,,,,,,,,,1718.4688,1718.9688,1719.2189,1721.7021,space,2.4698,,1721.7021,87,17,1722.7015,1722.7016,1722.7318,,,,0,14,14,14,1,165,55,,,,,,,,
,,616286682f7e620d716dae78,65af5607b73447736efa8ac8,2024-01-23_08h04.38.978,bars,2023.2.3,Win32,60.97560976,657b66ea316d21385b68909f,,,,,,,,,,,1722.7323,1723.7348,,,1724.2349,1724.4854,,61,61,,,,,,,,,,,,,,,,bars/044.png,bars/mask007.png,,,,,,,,,,,,2,1,,,,,,,2,8,3,8,,,,,,,,,,,1723.7349,1724.2348,1724.4854,1727.7184,space,3.2198,,1727.7184,14,86,1728.7185,1728.7186,1728.7487,,,,0,15,15,15,1,75,155,,,,,,,,
,,616286682f7e620d716dae78,65af5607b73447736efa8ac8,2024-01-23_08h04.38.978,bars,2023.2.3,Win32,60.97560976,657b66ea316d21385b68909f,,,,,,,,,,,1728.7493,1729.7515,,,1730.2512,1730.5018,,54,54,,,,,,,,,,,,,,,,bars/025.png,bars/mask000.png,,,,,,,,,,,,3,2,,,,,,,0,6,0,5,,,,,,,,,,,1729.7515,1730.2512,1730.5019,1733.535,space,3.0178,,1733.535,51,14,1734.5344,1734.5346,1734.5644,,,,0,16,16,16,1,105,40,,,,,,,,
,,616286682f7e620d716dae78,65af5607b73447736efa8ac8,2024-01-23_08h04.38.978,bars,2023.2.3,Win32,60.97560976,657b66ea316d21385b68909f,,,,,,,,,,,1734.5649,1735.5679,,,1736.0681,1736.3181,,106,106,,,,,,,,,,,,,,,,bars/027.png,bars/mask004.png,,,,,,,,,,,,2,1,,,,,,,2,4,2,3,,,,,,,,,,,1735.568,1736.0679,1736.3181,1740.1341,space,3.8033,,1740.1342,4,56,1741.1342,1741.1343,1741.1646,,,,0,17,17,17,1,110,50,,,,,,,,
,,616286682f7e620d716dae78,65af5607b73447736efa8ac8,2024-01-23_08h04.38.978,bars,2023.2.3,Win32,60.97560976,657b66ea316d21385b68909f,,,,,,,,,,,1741.1652,1742.1679,,,1742.6678,1742.9178,,136,136,,,,,,,,,,,,,,,,bars/018.png,bars/mask009.png,,,,,,,,,,,,1,1,,,,,,,0,6,1,7,,,,,,,,,,,1742.168,1742.6677,1742.9178,1747.3672,space,4.4398,,1747.3673,14,46,1748.3671,1748.3673,1748.3957,,,,0,18,18,18,1,150,90,,,,,,,,
,,616286682f7e620d716dae78,65af5607b73447736efa8ac8,2024-01-23_08h04.38.978,bars,2023.2.3,Win32,60.97560976,657b66ea316d21385b68909f,,,,,,,,,,,1748.3962,1749.3841,,,1749.8838,1750.134,,118,118,,,,,,,,,,,,,,,,bars/011.png,bars/mask000.png,,,,,,,,,,,,0,2,,,,,,,2,8,2,8,,,,,,,,,,,1749.3842,1749.8838,1750.1342,1750.6838,space,0.5401,,1750.6839,42,33,1751.6837,1751.6838,1751.6884,,,,0,19,19,19,1,160,85,,,,,,,,
,,616286682f7e620d716dae78,65af5607b73447736efa8ac8,2024-01-23_08h04.38.978,bars,2023.2.3,Win32,60.97560976,657b66ea316d21385b68909f,,,,,,,,,,,1751.6899,1752.6837,,,1753.1841,1753.4343,,161,161,,,,,,,,,,,,,,,,bars/023.png,bars/mask003.png,,,,,,,,,,,,0,1,,,,,,,4,6,4,8,,,,,,,,,,,1752.6837,1753.1839,1753.4344,1757.0842,space,3.6237,,1757.0842,39,46,1758.0836,1758.0838,1758.1146,,,,0,20,20,20,1,20,115,,,,,,,,
,,616286682f7e620d716dae78,65af5607b73447736efa8ac8,2024-01-23_08h04.38.978,bars,2023.2.3,Win32,60.97560976,657b66ea316d21385b68909f,,,,,,,,,,,1758.1153,1759.1169,,,1759.6167,1759.8666,,12,192,,,,,,,,,,,,,,,,bars/045.png,bars/mask007.png,,,,,,,,,,,,4,2,,,,,,,6,4,6,4,,,,,,,,,,,1759.1169,1759.6166,1759.8667,1774.8324,space,14.9564,,1774.8325,88,2,1775.8325,1775.8325,1775.8649,,,,0,21,21,21,1,100,10,,,,,,,,
,,616286682f7e620d716dae78,65af5607b73447736efa8ac8,2024-01-23_08h04.38.978,bars,2023.2.3,Win32,60.97560976,657b66ea316d21385b68909f,,,,,,,,,,,1775.8656,1776.8659,,,1777.3658,1777.6169,,6,6,,,,,,,,,,,,,,,,bars/027.png,bars/mask003.png,,,,,,,,,,,,0,2,,,,,,,8,2,8,2,,,,,,,,,,,1776.8659,1777.3657,1777.617,1779.1826,space,1.5514,,1779.1827,76,44,1780.181,1780.1811,1780.194,,,,0,22,22,22,1,110,50,,,,,,,,
,,616286682f7e620d716dae78,65af5607b73447736efa8ac8,2024-01-23_08h04.38.978,bars,2023.2.3,Win32,60.97560976,657b66ea316d21385b68909f,,,,,,,,,,,1780.1942,1781.1977,,,1781.6986,1781.9484,,30,30,,,,,,,,,,,,,,,,bars/044.png,bars/mask004.png,,,,,,,,,,,,0,1,,,,,,,6,4,6,6,,,,,,,,,,,1781.1978,1781.6985,1781.9485,1782.5158,space,0.5526,,1782.5159,45,55,1783.5157,1783.5158,1783.5201,,,,0,23,23,23,1,75,155,,,,,,,,
,,616286682f7e620d716dae78,65af5607b73447736efa8ac8,2024-01-23_08h04.38.978,bars,2023.2.3,Win32,60.97560976,657b66ea316d21385b68909f,,,,,,,,,,,1783.5212,1784.5156,,,1785.0157,1785.2656,,137,137,,,,,,,,,,,,,,,,bars/009.png,bars/mask006.png,,,,,,,,,,,,0,2,,,,,,,4,2,3,1,,,,,,,,,,,1784.5156,1785.0156,1785.2657,1789.3148,space,4.0388,,1789.3148,58,32,1790.3157,1790.3158,1790.3473,,,,0,24,24,24,1,15,105,,,,,,,,
,,616286682f7e620d716dae78,65af5607b73447736efa8ac8,2024-01-23_08h04.38.978,bars,2023.2.3,Win32,60.97560976,657b66ea316d21385b68909f,,,,,,,,,,,1790.348,1791.3486,,,1791.8486,1792.0997,,169,169,,,,,,,,,,,,,,,,bars/033.png,bars/mask004.png,,,,,,,,,,,,1,2,,,,,,,2,4,2,2,,,,,,,,,,,1791.3486,1791.8485,1792.0997,1796.449,space,4.3209,,1796.449,36,14,1797.4486,1797.4487,1797.4775,,,,0,25,25,25,1,25,155,,,,,,,,
,,616286682f7e620d716dae78,65af5607b73447736efa8ac8,2024-01-23_08h04.38.978,bars,2023.2.3,Win32,60.97560976,657b66ea316d21385b68909f,,,,,,,,,,,1797.478,1798.4815,,,1798.9816,1799.2321,,168,168,,,,,,,,,,,,,,,,bars/046.png,bars/mask009.png,,,,,,,,,,,,2,1,,,,,,,4,6,4,6,,,,,,,,,,,1798.4816,1798.9815,1799.2322,1800.4484,space,1.2052,,1800.4485,13,83,1801.4478,1801.4479,1801.4515,,,,0,26,26,26,1,155,85,,,,,,,,
,,616286682f7e620d716dae78,65af5607b73447736efa8ac8,2024-01-23_08h04.38.978,bars,2023.2.3,Win32,60.97560976,657b66ea316d21385b68909f,,,,,,,,,,,1801.4523,1802.4481,,,1802.9474,1803.1975,,57,57,,,,,,,,,,,,,,,,bars/007.png,bars/mask006.png,,,,,,,,,,,,1,2,,,,,,,2,4,1,1,,,,,,,,,,,1802.4482,1802.9474,1803.1976,1805.1645,space,1.9551,,1805.1646,62,2,1806.1645,1806.1646,1806.1961,,,,0,27,27,27,1,175,55,,,,,,,,
,,616286682f7e620d716dae78,65af5607b73447736efa8ac8,2024-01-23_08h04.38.978,bars,2023.2.3,Win32,60.97560976,657b66ea316d21385b68909f,,,,,,,,,,,1806.1967,1807.1978,,,1807.6976,1807.9479,,40,40,,,,,,,,,,,,,,,,bars/026.png,bars/mask002.png,,,,,,,,,,,,4,1,,,,,,,4,2,5,3,,,,,,,,,,,1807.1979,1807.6975,1807.948,1809.0306,space,1.0748,,1809.0307,5,45,1810.0304,1810.0305,1810.0612,,,,0,28,28,28,1,35,85,,,,,,,,
,,616286682f7e620d716dae78,65af5607b73447736efa8ac8,2024-01-23_08h04.38.978,bars,2023.2.3,Win32,60.97560976,657b66ea316d21385b68909f,,,,,,,,,,,1810.0618,1811.0642,,,1811.5641,1811.8144,,179,179,,,,,,,,,,,,,,,,bars/035.png,bars/mask008.png,,,,,,,,,,,,3,1,,,,,,,2,0,3,0,,,,,,,,,,,1811.0643,1811.5641,1811.8145,1813.6811,space,1.8515,,1813.6812,4,61,1814.6802,1814.6803,1814.7088,,,,0,29,29,29,1,175,60,,,,,,,,
,,616286682f7e620d716dae78,65af5607b73447736efa8ac8,2024-01-23_08h04.38.978,bars,2023.2.3,Win32,60.97560976,657b66ea316d21385b68909f,,,,,,,,,,,1814.7093,1815.7141,,,1816.2139,1816.4636,,107,107,,,,,,,,,,,,,,,,bars/001.png,bars/mask002.png,,,,,,,,,,,,0,2,,,,,,,0,0,2,0,,,,,,,,,,,1815.7142,1816.2138,1816.4637,1819.8475,space,3.3683,,1819.8475,23,22,1820.8472,1820.8472,1820.8781,,,,0,30,30,30,1,130,85,,,,,,,,
,,616286682f7e620d716dae78,65af5607b73447736efa8ac8,2024-01-23_08h04.38.978,bars,2023.2.3,Win32,60.97560976,657b66ea316d21385b68909f,,,,,,,,,,,1820.8787,1821.8802,,,1822.38,1822.6307,,69,69,,,,,,,,,,,,,,,,bars/023.png,bars/mask007.png,,,,,,,,,,,,0,2,,,,,,,2,0,1,0,,,,,,,,,,,1821.8804,1822.3799,1822.6308,1824.4806,space,1.8361,,1824.4808,49,46,1825.48,1825.48,1825.4817,,,,0,31,31,31,1,20,115,,,,,,,,
,,616286682f7e620d716dae78,65af5607b73447736efa8ac8,2024-01-23_08h04.38.978,bars,2023.2.3,Win32,60.97560976,657b66ea316d21385b68909f,,,,,,,,,,,1825.4823,1826.4802,,,1826.9804,1827.2302,,50,50,,,,,,,,,,,,,,,,bars/033.png,bars/mask005.png,,,,,,,,,,,,0,1,,,,,,,0,0,0,0,,,,,,,,,,,1826.4804,1826.9803,1827.2303,1828.4635,space,1.2172,,1828.4636,25,75,1829.4628,1829.4629,1829.4673,,,,0,32,32,32,1,25,155,,,,,,,,
,,616286682f7e620d716dae78,65af5607b73447736efa8ac8,2024-01-23_08h04.38.978,bars,2023.2.3,Win32,60.97560976,657b66ea316d21385b68909f,,,,,,,,,,,1829.468,1830.4627,,,1830.9634,1831.2127,,154,154,,,,,,,,,,,,,,,,bars/009.png,bars/mask001.png,,,,,,,,,,,,0,1,,,,,,,0,2,0,2,,,,,,,,,,,1830.4628,1830.9633,1831.2128,1831.8476,space,0.6212,,1831.8476,41,49,1832.846,1832.8461,1832.848,,,,0,33,33,33,1,15,105,,,,,,,,
,,616286682f7e620d716dae78,65af5607b73447736efa8ac8,2024-01-23_08h04.38.978,bars,2023.2.3,Win32,60.97560976,657b66ea316d21385b68909f,,,,,,,,,,,1832.8487,1833.8458,,,1834.3461,1834.5959,,120,120,,,,,,,,,,,,,,,,bars/006.png,bars/mask002.png,,,,,,,,,,,,0,2,,,,,,,2,0,2,1,,,,,,,,,,,1833.8459,1834.3459,1834.596,1835.7803,space,1.1726,,1835.7804,85,20,1836.7804,1836.7804,1836.7849,,,,0,34,34,34,1,35,100,,,,,,,,
,,616286682f7e620d716dae78,65af5607b73447736efa8ac8,2024-01-23_08h04.38.978,bars,2023.2.3,Win32,60.97560976,657b66ea316d21385b68909f,,,,,,,,,,,1836.7856,1837.7795,,,1838.2803,1838.5299,,104,104,,,,,,,,,,,,,,,,bars/049.png,bars/mask004.png,,,,,,,,,,,,1,2,,,,,,,0,2,0,1,,,,,,,,,,,1837.7796,1838.2801,1838.53,1840.0293,space,1.4835,,1840.0294,56,11,1841.0334,1841.0335,1841.035,,,,0,35,35,35,1,160,115,,,,,,,,
,,616286682f7e620d716dae78,65af5607b73447736efa8ac8,2024-01-23_08h04.38.978,bars,2023.2.3,Win32,60.97560976,657b66ea316d21385b68909f,,,,,,,,,,,1841.0357,1842.0289,,,1842.5295,1842.7797,,73,73,,,,,,,,,,,,,,,,bars/049.png,bars/mask001.png,,,,,,,,,,,,0,2,,,,,,,2,0,3,0,,,,,,,,,,,1842.0289,1842.5294,1842.7797,1844.0292,space,1.2222,,1844.0293,87,42,1845.0294,1845.0295,1845.0308,,,,0,36,36,36,1,160,115,,,,,,,,
,,616286682f7e620d716dae78,65af5607b73447736efa8ac8,2024-01-23_08h04.38.978,bars,2023.2.3,Win32,60.97560976,657b66ea316d21385b68909f,,,,,,,,,,,1845.0315,1846.03,,,1846.5299,1846.779,,32,32,,,,,,,,,,,,,,,,bars/030.png,bars/mask006.png,,,,,,,,,,,,0,2,,,,,,,4,2,5,1,,,,,,,,,,,1846.0301,1846.5299,1846.7792,1848.4853,space,1.6991,,1848.4853,72,33,1849.4797,1849.4798,1849.4816,,,,0,37,37,37,1,140,65,,,,,,,,
,,616286682f7e620d716dae78,65af5607b73447736efa8ac8,2024-01-23_08h04.38.978,bars,2023.2.3,Win32,60.97560976,657b66ea316d21385b68909f,,,,,,,,,,,1849.4823,1850.4791,,,1850.9789,1851.2299,,30,30,,,,,,,,,,,,,,,,bars/022.png,bars/mask000.png,,,,,,,,,,,,3,2,,,,,,,2,4,2,5,,,,,,,,,,,1850.4791,1850.9789,1851.23,1854.4957,space,3.2501,,1854.4959,65,10,1855.4954,1855.4955,1855.5245,,,,0,38,38,38,1,95,20,,,,,,,,
,,616286682f7e620d716dae78,65af5607b73447736efa8ac8,2024-01-23_08h04.38.978,bars,2023.2.3,Win32,60.97560976,657b66ea316d21385b68909f,,,,,,,,,,,1855.5251,1856.5131,,,1857.0117,1857.2616,,100,100,,,,,,,,,,,,,,,,bars/023.png,bars/mask006.png,,,,,,,,,,,,3,2,,,,,,,4,6,3,6,,,,,,,,,,,1856.5131,1857.0116,1857.2617,1857.845,space,0.5695,,1857.8452,80,15,1858.8449,1858.8449,1858.8467,,,,0,39,39,39,1,20,115,,,,,,,,
,,616286682f7e620d716dae78,65af5607b73447736efa8ac8,2024-01-23_08h04.38.978,bars,2023.2.3,Win32,60.97560976,657b66ea316d21385b68909f,,,,,,,,,,,1858.8474,1859.845,,,1860.3455,1860.5947,,175,-5,,,,,,,,,,,,,,,,bars/047.png,bars/mask002.png,,,,,,,,,,,,0,1,,,,,,,2,4,1,3,,,,,,,,,,,1859.8451,1860.3455,1860.5948,1861.4118,space,0.8058,,1861.4119,20,75,1862.4114,1862.4115,1862.4161,,,,0,40,40,40,1,15,70,,,,,,,,
,,616286682f7e620d716dae78,65af5607b73447736efa8ac8,2024-01-23_08h04.38.978,bars,2023.2.3,Win32,60.97560976,657b66ea316d21385b68909f,,,,,,,,,,,1862.4168,1863.4113,,,1863.9116,1864.1615,,7,187,,,,,,,,,,,,,,,,bars/007.png,bars/mask008.png,,,,,,,,,,,,2,1,,,,,,,4,2,3,2,,,,,,,,,,,1863.4114,1863.9115,1864.1616,1868.6938,space,4.52,,1868.6938,12,48,1869.6943,1869.6944,1869.7229,,,,0,41,41,41,1,175,55,,,,,,,,
,,616286682f7e620d716dae78,65af5607b73447736efa8ac8,2024-01-23_08h04.38.978,bars,2023.2.3,Win32,60.97560976,657b66ea316d21385b68909f,,,,,,,,,,,1869.7234,1870.7276,,,1871.2283,1871.4779,,41,41,,,,,,,,,,,,,,,,bars/029.png,bars/mask009.png,,,,,,,,,,,,1,2,,,,,,,6,0,7,1,,,,,,,,,,,1870.7277,1871.2282,1871.478,1872.7612,space,1.2762,,1872.7613,49,4,1873.7663,1873.7664,1873.7706,,,,0,42,42,42,1,90,45,,,,,,,,
,,616286682f7e620d716dae78,65af5607b73447736efa8ac8,2024-01-23_08h04.38.978,bars,2023.2.3,Win32,60.97560976,657b66ea316d21385b68909f,,,,,,,,,,,1873.7712,1874.7656,,,1875.2616,1875.5168,,97,97,,,,,,,,,,,,,,,,bars/012.png,bars/mask003.png,,,,,,,,,,,,5,1,,,,,,,4,0,6,0,,,,,,,,,,,1874.7656,1875.2616,1875.5168,1876.5616,space,1.0253,,1876.5617,7,82,1877.5607,1877.5608,1877.5655,,,,0,43,43,43,1,90,15,,,,,,,,
,,616286682f7e620d716dae78,65af5607b73447736efa8ac8,2024-01-23_08h04.38.978,bars,2023.2.3,Win32,60.97560976,657b66ea316d21385b68909f,,,,,,,,,,,1877.5662,1878.5606,,,1879.0611,1879.3107,,164,164,,,,,,,,,,,,,,,,bars/018.png,bars/mask003.png,,,,,,,,,,,,1,1,,,,,,,2,0,2,0,,,,,,,,,,,1878.5607,1879.0611,1879.3108,1880.4942,space,1.1701,,1880.4943,14,74,1881.4939,1881.4939,1881.4956,,,,0,44,44,44,1,150,90,,,,,,,,
,,616286682f7e620d716dae78,65af5607b73447736efa8ac8,2024-01-23_08h04.38.978,bars,2023.2.3,Win32,60.97560976,657b66ea316d21385b68909f,,,,,,,,,,,1881.4962,1882.494,,,1882.9942,1883.244,,27,27,,,,,,,,,,,,,,,,bars/013.png,bars/mask001.png,,,,,,,,,,,,1,2,,,,,,,0,0,0,2,,,,,,,,,,,1882.494,1882.9942,1883.2442,1889.9438,space,6.6888,,1889.9439,48,17,1890.9436,1890.9436,1890.9761,,,,0,45,45,45,1,75,10,,,,,,,,
,,616286682f7e620d716dae78,65af5607b73447736efa8ac8,2024-01-23_08h04.38.978,bars,2023.2.3,Win32,60.97560976,657b66ea316d21385b68909f,,,,,,,,,,,1890.9768,1891.9769,,,1892.477,1892.7269,,41,41,,,,,,,,,,,,,,,,bars/047.png,bars/mask008.png,,,,,,,,,,,,0,1,,,,,,,2,2,2,1,,,,,,,,,,,1891.9769,1892.477,1892.7269,1895.9156,space,3.1818,,1895.9156,26,29,1896.9102,1896.9103,1896.9408,,,,0,46,46,46,1,15,70,,,,,,,,
,,616286682f7e620d716dae78,65af5607b73447736efa8ac8,2024-01-23_08h04.38.978,bars,2023.2.3,Win32,60.97560976,657b66ea316d21385b68909f,,,,,,,,,,,1896.9417,1897.9432,,,1898.4433,1898.6929,,172,-8,,,,,,,,,,,,,,,,bars/031.png,bars/mask005.png,,,,,,,,,,,,0,2,,,,,,,4,0,5,1,,,,,,,,,,,1897.9433,1898.4432,1898.693,1901.1264,space,2.4216,,1901.1264,52,43,1902.1261,1902.1261,1902.1566,,,,0,47,47,47,1,120,35,,,,,,,,
,,616286682f7e620d716dae78,65af5607b73447736efa8ac8,2024-01-23_08h04.38.978,bars,2023.2.3,Win32,60.97560976,657b66ea316d21385b68909f,,,,,,,,,,,1902.1571,1903.1597,,,1903.6595,1903.9095,,96,96,,,,,,,,,,,,,,,,bars/022.png,bars/mask006.png,,,,,,,,,,,,7,1,,,,,,,6,2,7,3,,,,,,,,,,,1903.1597,1903.6594,1903.9095,1904.6931,space,0.7706,,1904.6932,1,76,1905.6926,1905.6926,1905.6966,,,,0,48,48,48,1,95,20,,,,,,,,
,,616286682f7e620d716dae78,65af5607b73447736efa8ac8,2024-01-23_08h04.38.978,bars,2023.2.3,Win32,60.97560976,657b66ea316d21385b68909f,,,,,,,,,,,1905.6974,1906.6929,,,1907.1928,1907.4424,,161,161,,,,,,,,,,,,,,,,bars/025.png,bars/mask003.png,,,,,,,,,,,,0,1,,,,,,,4,4,3,4,,,,,,,,,,,1906.6929,1907.1927,1907.4425,1910.0103,space,2.5588,,1910.0104,56,59,1911.0093,1911.0094,1911.0108,,,,0,49,49,49,1,105,40,,,,,,,,
,,616286682f7e620d716dae78,65af5607b73447736efa8ac8,2024-01-23_08h04.38.978,bars,2023.2.3,Win32,60.97560976,657b66ea316d21385b68909f,,,,,,,,,,,,,,,,,,,,,,,,,,,,,,,,,,,,,,,,,,,,,,,,,,,,,,,,,,,,,,,,,,,,,,,,,,,,,,,,,,,,,,,,,,,,,1911.011,1971.0064,0,3,3,4,1,sequence_tables/blk023.csv
,,616286682f7e620d716dae78,65af5607b73447736efa8ac8,2024-01-23_08h04.38.978,bars,2023.2.3,Win32,60.97560976,657b66ea316d21385b68909f,,,,,,,,,,,2008.9926,2009.9746,,,2010.471,2010.7206,,50,50,,,,,,,,,,,,,,,,bars/018.png,bars/mask005.png,,,,,,,,,,,,0,2,,,,,,,9,7,10,7,,,,,,1971.0353,2008.9548,space,37.9054,,2009.9746,2010.4705,2010.7208,2013.0712,space,2.3359,,2013.0713,80,40,2014.0709,2014.071,2014.1032,,,,0,0,0,0,1,150,90,,,,,,,,
,,616286682f7e620d716dae78,65af5607b73447736efa8ac8,2024-01-23_08h04.38.978,bars,2023.2.3,Win32,60.97560976,657b66ea316d21385b68909f,,,,,,,,,,,2014.104,2015.1038,,,2015.604,2015.8539,,157,157,,,,,,,,,,,,,,,,bars/038.png,bars/mask001.png,,,,,,,,,,,,5,1,,,,,,,7,5,7,4,,,,,,,,,,,2015.1038,2015.6039,2015.854,2018.954,space,3.0928,,2018.9541,8,87,2019.9537,2019.9538,2019.9847,,,,0,1,1,1,1,165,70,,,,,,,,
,,616286682f7e620d716dae78,65af5607b73447736efa8ac8,2024-01-23_08h04.38.978,bars,2023.2.3,Win32,60.97560976,657b66ea316d21385b68909f,,,,,,,,,,,2019.9854,2020.987,,,2021.4871,2021.7375,,120,120,,,,,,,,,,,,,,,,bars/002.png,bars/mask001.png,,,,,,,,,,,,2,1,,,,,,,5,7,3,7,,,,,,,,,,,2020.987,2021.4871,2021.7376,2025.1206,space,3.3704,,2025.1207,10,35,2026.1206,2026.1206,2026.1494,,,,0,2,2,2,1,130,85,,,,,,,,
,,616286682f7e620d716dae78,65af5607b73447736efa8ac8,2024-01-23_08h04.38.978,bars,2023.2.3,Win32,60.97560976,657b66ea316d21385b68909f,,,,,,,,,,,2026.1499,2027.1532,,,2027.6536,2027.9034,,36,36,,,,,,,,,,,,,,,,bars/046.png,bars/mask004.png,,,,,,,,,,,,0,2,,,,,,,7,5,6,6,,,,,,,,,,,2027.1532,2027.6535,2027.9034,2032.3199,space,4.4041,,2032.32,61,49,2033.3198,2033.3199,2033.3501,,,,0,3,3,3,1,155,85,,,,,,,,
,,616286682f7e620d716dae78,65af5607b73447736efa8ac8,2024-01-23_08h04.38.978,bars,2023.2.3,Win32,60.97560976,657b66ea316d21385b68909f,,,,,,,,,,,2033.3507,2034.3414,,,2034.8362,2035.0865,,9,9,,,,,,,,,,,,,,,,bars/033.png,bars/mask009.png,,,,,,,,,,,,4,1,,,,,,,9,7,9,7,,,,,,,,,,,2034.3414,2034.8361,2035.0867,2040.553,space,5.4563,,2040.5531,16,34,2041.5527,2041.5529,2041.5865,,,,0,4,4,4,1,25,155,,,,,,,,
,,616286682f7e620d716dae78,65af5607b73447736efa8ac8,2024-01-23_08h04.38.978,bars,2023.2.3,Win32,60.97560976,657b66ea316d21385b68909f,,,,,,,,,,,2041.5869,2042.5858,,,2043.0864,2043.3365,,65,65,,,,,,,,,,,,,,,,bars/007.png,bars/mask002.png,,,,,,,,,,,,3,2,,,,,,,7,5,6,5,,,,,,,,,,,2042.5858,2043.086,2043.3365,2046.8029,space,3.4423,,2046.803,70,10,2047.8026,2047.8026,2047.8338,,,,0,5,5,5,1,175,55,,,,,,,,
,,616286682f7e620d716dae78,65af5607b73447736efa8ac8,2024-01-23_08h04.38.978,bars,2023.2.3,Win32,60.97560976,657b66ea316d21385b68909f,,,,,,,,,,,2047.8344,2048.8354,,,2049.3357,2049.5853,,138,138,,,,,,,,,,,,,,,,bars/018.png,bars/mask008.png,,,,,,,,,,,,3,1,,,,,,,5,3,5,3,,,,,,,,,,,2048.8355,2049.3356,2049.5854,2053.1031,space,3.511,,2053.1032,12,48,2054.1021,2054.1022,2054.1327,,,,0,6,6,6,1,150,90,,,,,,,,
,,616286682f7e620d716dae78,65af5607b73447736efa8ac8,2024-01-23_08h04.38.978,bars,2023.2.3,Win32,60.97560976,657b66ea316d21385b68909f,,,,,,,,,,,2054.1334,2055.1355,,,2055.6353,2055.8892,,111,111,,,,,,,,,,,,,,,,bars/042.png,bars/mask006.png,,,,,,,,,,,,0,1,,,,,,,7,1,7,2,,,,,,,,,,,2055.1357,2055.6352,2055.8893,2058.4021,space,2.4993,,2058.4022,34,36,2059.4012,2059.4013,2059.4031,,,,0,7,7,7,1,145,75,,,,,,,,
,,616286682f7e620d716dae78,65af5607b73447736efa8ac8,2024-01-23_08h04.38.978,bars,2023.2.3,Win32,60.97560976,657b66ea316d21385b68909f,,,,,,,,,,,2059.4038,2060.4015,,,2060.9017,2061.1515,,21,201,,,,,,,,,,,,,,,,bars/013.png,bars/mask000.png,,,,,,,,,,,,2,2,,,,,,,9,3,9,3,,,,,,,,,,,2060.4016,2060.9016,2061.1515,2065.6685,space,4.5092,,2065.6686,54,11,2066.6682,2066.6683,2066.6993,,,,0,8,8,8,1,75,10,,,,,,,,
,,616286682f7e620d716dae78,65af5607b73447736efa8ac8,2024-01-23_08h04.38.978,bars,2023.2.3,Win32,60.97560976,657b66ea316d21385b68909f,,,,,,,,,,,2066.7,2067.7011,,,2068.2011,2068.4511,,151,151,,,,,,,,,,,,,,,,bars/040.png,bars/mask007.png,,,,,,,,,,,,6,1,,,,,,,10,5,10,8,,,,,,,,,,,2067.7011,2068.2011,2068.4512,2071.4513,space,2.9856,,2071.4515,11,34,2072.4509,2072.451,2072.4825,,,,0,9,9,9,1,140,5,,,,,,,,
,,616286682f7e620d716dae78,65af5607b73447736efa8ac8,2024-01-23_08h04.38.978,bars,2023.2.3,Win32,60.97560976,657b66ea316d21385b68909f,,,,,,,,,,,2072.4832,2073.4844,,,2073.9841,2074.2344,,48,48,,,,,,,,,,,,,,,,bars/035.png,bars/mask000.png,,,,,,,,,,,,3,2,,,,,,,8,7,7,5,,,,,,,,,,,2073.4844,2073.984,2074.2344,2074.8681,space,0.6199,,2074.8681,53,12,2075.8672,2075.8672,2075.871,,,,0,10,10,10,1,175,60,,,,,,,,
,,616286682f7e620d716dae78,65af5607b73447736efa8ac8,2024-01-23_08h04.38.978,bars,2023.2.3,Win32,60.97560976,657b66ea316d21385b68909f,,,,,,,,,,,2075.8717,2076.8674,,,2077.3687,2077.6177,,173,-7,,,,,,,,,,,,,,,,bars/039.png,bars/mask002.png,,,,,,,,,,,,9,1,,,,,,,10,5,10,5,,,,,,,,,,,2076.8674,2077.3686,2077.6178,2082.0671,space,4.4343,,2082.0672,2,68,2083.067,2083.0671,2083.0976,,,,0,11,11,11,1,175,105,,,,,,,,
