init_variables.started,init_variables.stopped,participant,session,date,expName,psychopyVersion,OS,frameRate,study_id,instruction_exp.started,instruction_exp.stopped,key_resp_8.keys,key_resp_8.rt,key_resp_8.duration,instruction_single.started,instruction_single.stopped,key_resp_2.keys,key_resp_2.rt,key_resp_2.duration,interval.started,interval.stopped,cue_single.started,cue_single.stopped,mask.started,mask.stopped,ori_response_single.started,res_ori,res,ori_response_single.stopped,key_resp_single.keys,key_resp_single.rt,key_resp_single.duration,disp_single.started,disp_single.stopped,key_resp.keys,key_resp.rt,key_resp.duration,single.thisRepN,single.thisTrialN,single.thisN,single.thisIndex,single.ran,ori,path,mask_path,instruction_bandit.started,instruction_bandit.stopped,key_resp_6.keys,key_resp_6.rt,key_resp_6.duration,cue_bandit.started,cue_bandit.stopped,bandit_res.keys,bandit_res.rt,bandit_res.duration,outcome_bandit.started,rew,action,outcome_bandit.stopped,bandit.thisRepN,bandit.thisTrialN,bandit.thisN,bandit.thisIndex,bandit.ran,actual_rew1,actual_rew2,rew1,rew2,instruction_task.started,instruction_task.stopped,key_resp_7.keys,key_resp_7.rt,key_resp_7.duration,wait_ready.started,wait_ready.stopped,key_resp_3.keys,key_resp_3.rt,key_resp_3.duration,cue.started,cue.stopped,ori_response.started,ori_response.stopped,key_resp_5.keys,key_resp_5.rt,key_resp_5.duration,outcome.started,diff1,diff2,outcome.stopped,disp_outcome_practice.started,disp_outcome_practice.stopped,key_resp_4.keys,key_resp_4.rt,key_resp_4.duration,trials.thisRepN,trials.thisTrialN,trials.thisN,trials.thisIndex,trials.ran,ori1,ori2,break_blk.started,break_blk.stopped,block.thisRepN,block.thisTrialN,block.thisN,block.thisIndex,block.ran,condition_file
0.0003,0.0005,61634ea5478b2d1e072e8353,65af54d26c4c8a399abc6fde,2024-01-22_23h59.00.254,bars,2023.2.3,Win32,59.88023952,657b66ea316d21385b68909f,,,,,,,,,,,,,,,,,,,,,,,,,,,,,,,,,,,,,,,,,,,,,,,,,,,,,,,,,,,,,,,,,,,,,,,,,,,,,,,,,,,,,,,,,,,,,,,,,,,,
,,61634ea5478b2d1e072e8353,65af54d26c4c8a399abc6fde,2024-01-22_23h59.00.254,bars,2023.2.3,Win32,59.88023952,657b66ea316d21385b68909f,0.0006,214.9892,y,214.9656,,,,,,,,,,,,,,,,,,,,,,,,,,,,,,,,,,,,,,,,,,,,,,,,,,,,,,,,,,,,,,,,,,,,,,,,,,,,,,,,,,,,,,,,,,,,,,,,
,,61634ea5478b2d1e072e8353,65af54d26c4c8a399abc6fde,2024-01-22_23h59.00.254,bars,2023.2.3,Win32,59.88023952,657b66ea316d21385b68909f,,,,,,214.9894,292.1621,space,77.1527,,,,,,,,,,,,,,,,,,,,,,,,,,,,,,,,,,,,,,,,,,,,,,,,,,,,,,,,,,,,,,,,,,,,,,,,,,,,,,,,,,,,,,,,,,,
,,61634ea5478b2d1e072e8353,65af54d26c4c8a399abc6fde,2024-01-22_23h59.00.254,bars,2023.2.3,Win32,59.88023952,657b66ea316d21385b68909f,,,,,,,,,,,292.1697,293.1645,293.1646,293.6651,293.6652,293.9153,293.9155,87,87,300.4577,space,6.5073,,300.458,304.3617,space,3.8769,,0,0,0,9,1,20,bars/single009.png,bars/mask006.png,,,,,,,,,,,,,,,,,,,,,,,,,,,,,,,,,,,,,,,,,,,,,,,,,,,,,,,,,,,,,,,,
,,61634ea5478b2d1e072e8353,65af54d26c4c8a399abc6fde,2024-01-22_23h59.00.254,bars,2023.2.3,Win32,59.88023952,657b66ea316d21385b68909f,,,,,,,,,,,304.3756,305.3767,305.3767,305.8772,305.8773,306.1274,306.1274,29,29,309.0137,space,2.8585,,309.0138,311.0035,space,1.9685,,0,1,1,7,1,45,bars/single007.png,bars/mask009.png,,,,,,,,,,,,,,,,,,,,,,,,,,,,,,,,,,,,,,,,,,,,,,,,,,,,,,,,,,,,,,,,
,,61634ea5478b2d1e072e8353,65af54d26c4c8a399abc6fde,2024-01-22_23h59.00.254,bars,2023.2.3,Win32,59.88023952,657b66ea316d21385b68909f,,,,,,,,,,,311.0039,312.0028,312.0028,312.5015,312.5019,312.751,312.751,171,-9,317.2556,space,4.4728,,317.2556,318.7901,space,1.5017,,0,2,2,6,1,175,bars/single006.png,bars/mask005.png,,,,,,,,,,,,,,,,,,,,,,,,,,,,,,,,,,,,,,,,,,,,,,,,,,,,,,,,,,,,,,,,
,,61634ea5478b2d1e072e8353,65af54d26c4c8a399abc6fde,2024-01-22_23h59.00.254,bars,2023.2.3,Win32,59.88023952,657b66ea316d21385b68909f,,,,,,,,,,,318.7926,319.7909,319.791,320.2916,320.2916,320.5446,320.5446,4,4,327.015,space,6.4559,,327.015,328.0995,space,1.0523,,0,3,3,1,1,20,bars/single001.png,bars/mask006.png,,,,,,,,,,,,,,,,,,,,,,,,,,,,,,,,,,,,,,,,,,,,,,,,,,,,,,,,,,,,,,,,
,,61634ea5478b2d1e072e8353,65af54d26c4c8a399abc6fde,2024-01-22_23h59.00.254,bars,2023.2.3,Win32,59.88023952,657b66ea316d21385b68909f,,,,,,,,,,,328.1019,329.1005,329.1005,329.6011,329.6011,329.8536,329.8536,97,97,333.4548,space,3.5919,,333.4549,334.7227,space,1.2359,,0,4,4,4,1,95,bars/single004.png,bars/mask004.png,,,,,,,,,,,,,,,,,,,,,,,,,,,,,,,,,,,,,,,,,,,,,,,,,,,,,,,,,,,,,,,,
,,61634ea5478b2d1e072e8353,65af54d26c4c8a399abc6fde,2024-01-22_23h59.00.254,bars,2023.2.3,Win32,59.88023952,657b66ea316d21385b68909f,,,,,,,,,,,334.7249,335.7235,335.7236,336.2243,336.2244,336.4746,336.4746,118,118,352.9575,space,16.4551,,352.9576,353.825,space,0.8348,,0,5,5,0,1,150,bars/single000.png,bars/mask006.png,,,,,,,,,,,,,,,,,,,,,,,,,,,,,,,,,,,,,,,,,,,,,,,,,,,,,,,,,,,,,,,,
,,61634ea5478b2d1e072e8353,65af54d26c4c8a399abc6fde,2024-01-22_23h59.00.254,bars,2023.2.3,Win32,59.88023952,657b66ea316d21385b68909f,,,,,,,,,,,353.8272,354.8259,354.8259,355.3265,355.3265,355.5769,355.577,14,14,358.3468,space,2.7382,,358.3469,359.3139,space,0.9457,,0,6,6,3,1,20,bars/single003.png,bars/mask005.png,,,,,,,,,,,,,,,,,,,,,,,,,,,,,,,,,,,,,,,,,,,,,,,,,,,,,,,,,,,,,,,,
,,61634ea5478b2d1e072e8353,65af54d26c4c8a399abc6fde,2024-01-22_23h59.00.254,bars,2023.2.3,Win32,59.88023952,657b66ea316d21385b68909f,,,,,,,,,,,359.3161,360.3147,360.3147,360.8154,360.8154,361.0653,361.0654,154,-26,365.2029,space,4.1078,,365.2031,366.0919,space,0.868,,0,7,7,8,1,160,bars/single008.png,bars/mask004.png,,,,,,,,,,,,,,,,,,,,,,,,,,,,,,,,,,,,,,,,,,,,,,,,,,,,,,,,,,,,,,,,
,,61634ea5478b2d1e072e8353,65af54d26c4c8a399abc6fde,2024-01-22_23h59.00.254,bars,2023.2.3,Win32,59.88023952,657b66ea316d21385b68909f,,,,,,,,,,,366.0922,367.0886,367.0886,367.5886,367.5886,367.8388,367.8388,40,40,369.9913,space,2.1427,,369.9914,370.4585,space,0.4348,,0,8,8,5,1,55,bars/single005.png,bars/mask008.png,,,,,,,,,,,,,,,,,,,,,,,,,,,,,,,,,,,,,,,,,,,,,,,,,,,,,,,,,,,,,,,,
,,61634ea5478b2d1e072e8353,65af54d26c4c8a399abc6fde,2024-01-22_23h59.00.254,bars,2023.2.3,Win32,59.88023952,657b66ea316d21385b68909f,,,,,,,,,,,370.4602,371.4593,371.4593,371.9601,371.9601,372.2098,372.2098,135,135,374.796,space,2.5763,,374.7961,375.3797,space,0.5549,,0,9,9,2,1,145,bars/single002.png,bars/mask003.png,,,,,,,,,,,,,,,,,,,,,,,,,,,,,,,,,,,,,,,,,,,,,,,,,,,,,,,,,,,,,,,,
,,61634ea5478b2d1e072e8353,65af54d26c4c8a399abc6fde,2024-01-22_23h59.00.254,bars,2023.2.3,Win32,59.88023952,657b66ea316d21385b68909f,,,,,,,,,,,,,,,,,,,,,,,,,,,,,,,,,,,,,375.3824,387.0603,space,11.6465,,,,,,,,,,,,,,,,,,,,,,,,,,,,,,,,,,,,,,,,,,,,,,,,,,,,,,,,,,,,
,,61634ea5478b2d1e072e8353,65af54d26c4c8a399abc6fde,2024-01-22_23h59.00.254,bars,2023.2.3,Win32,59.88023952,657b66ea316d21385b68909f,,,,,,,,,,,,,,,,,,,,,,,,,,,,,,,,,,,,,,,,,,387.0776,390.662,right,3.5685,,390.6627,2,2,391.6656,0,0,0,0,1,9,1,9,2,,,,,,,,,,,,,,,,,,,,,,,,,,,,,,,,,,,,,,,,,
,,61634ea5478b2d1e072e8353,65af54d26c4c8a399abc6fde,2024-01-22_23h59.00.254,bars,2023.2.3,Win32,59.88023952,657b66ea316d21385b68909f,,,,,,,,,,,,,,,,,,,,,,,,,,,,,,,,,,,,,,,,,,391.6661,392.3818,right,0.6897,,392.3822,1,2,393.381,0,1,1,1,1,10,0,10,1,,,,,,,,,,,,,,,,,,,,,,,,,,,,,,,,,,,,,,,,,
,,61634ea5478b2d1e072e8353,65af54d26c4c8a399abc6fde,2024-01-22_23h59.00.254,bars,2023.2.3,Win32,59.88023952,657b66ea316d21385b68909f,,,,,,,,,,,,,,,,,,,,,,,,,,,,,,,,,,,,,,,,,,393.3832,394.0486,right,0.6441,,394.0486,2,2,395.0496,0,2,2,2,1,10,2,10,2,,,,,,,,,,,,,,,,,,,,,,,,,,,,,,,,,,,,,,,,,
,,61634ea5478b2d1e072e8353,65af54d26c4c8a399abc6fde,2024-01-22_23h59.00.254,bars,2023.2.3,Win32,59.88023952,657b66ea316d21385b68909f,,,,,,,,,,,,,,,,,,,,,,,,,,,,,,,,,,,,,,,,,,395.0518,395.9841,right,0.9118,,395.9842,3,2,396.9849,0,3,3,3,1,8,4,7,3,,,,,,,,,,,,,,,,,,,,,,,,,,,,,,,,,,,,,,,,,
,,61634ea5478b2d1e072e8353,65af54d26c4c8a399abc6fde,2024-01-22_23h59.00.254,bars,2023.2.3,Win32,59.88023952,657b66ea316d21385b68909f,,,,,,,,,,,,,,,,,,,,,,,,,,,,,,,,,,,,,,,,,,396.9874,398.9869,right,1.9873,,398.9874,1,2,399.9875,0,4,4,4,1,6,2,5,1,,,,,,,,,,,,,,,,,,,,,,,,,,,,,,,,,,,,,,,,,
,,61634ea5478b2d1e072e8353,65af54d26c4c8a399abc6fde,2024-01-22_23h59.00.254,bars,2023.2.3,Win32,59.88023952,657b66ea316d21385b68909f,,,,,,,,,,,,,,,,,,,,,,,,,,,,,,,,,,,,,,,,,,399.9984,400.4558,right,0.4398,,400.4568,4,2,401.4556,0,5,5,5,1,4,4,4,4,,,,,,,,,,,,,,,,,,,,,,,,,,,,,,,,,,,,,,,,,
,,61634ea5478b2d1e072e8353,65af54d26c4c8a399abc6fde,2024-01-22_23h59.00.254,bars,2023.2.3,Win32,59.88023952,657b66ea316d21385b68909f,,,,,,,,,,,,,,,,,,,,,,,,,,,,,,,,,,,,,,,,,,401.4559,402.962,right,1.4852,,402.9621,2,2,403.9582,0,6,6,6,1,2,2,1,2,,,,,,,,,,,,,,,,,,,,,,,,,,,,,,,,,,,,,,,,,
,,61634ea5478b2d1e072e8353,65af54d26c4c8a399abc6fde,2024-01-22_23h59.00.254,bars,2023.2.3,Win32,59.88023952,657b66ea316d21385b68909f,,,,,,,,,,,,,,,,,,,,,,,,,,,,,,,,,,,,,,,,,,403.9608,404.4088,right,0.4267,,404.4089,1,2,405.4099,0,7,7,7,1,0,0,0,1,,,,,,,,,,,,,,,,,,,,,,,,,,,,,,,,,,,,,,,,,
,,61634ea5478b2d1e072e8353,65af54d26c4c8a399abc6fde,2024-01-22_23h59.00.254,bars,2023.2.3,Win32,59.88023952,657b66ea316d21385b68909f,,,,,,,,,,,,,,,,,,,,,,,,,,,,,,,,,,,,,,,,,,405.4111,406.1272,right,0.6895,,406.1273,0,2,407.1286,0,8,8,8,1,0,2,1,0,,,,,,,,,,,,,,,,,,,,,,,,,,,,,,,,,,,,,,,,,
,,61634ea5478b2d1e072e8353,65af54d26c4c8a399abc6fde,2024-01-22_23h59.00.254,bars,2023.2.3,Win32,59.88023952,657b66ea316d21385b68909f,,,,,,,,,,,,,,,,,,,,,,,,,,,,,,,,,,,,,,,,,,407.1307,407.7957,right,0.6402,,407.7957,3,2,408.7973,0,9,9,9,1,2,4,2,3,,,,,,,,,,,,,,,,,,,,,,,,,,,,,,,,,,,,,,,,,
,,61634ea5478b2d1e072e8353,65af54d26c4c8a399abc6fde,2024-01-22_23h59.00.254,bars,2023.2.3,Win32,59.88023952,657b66ea316d21385b68909f,,,,,,,,,,,,,,,,,,,,,,,,,,,,,,,,,,,,,,,,,,408.7993,409.3638,left,0.5393,,409.3639,0,1,410.3646,0,10,10,10,1,0,2,0,3,,,,,,,,,,,,,,,,,,,,,,,,,,,,,,,,,,,,,,,,,
,,61634ea5478b2d1e072e8353,65af54d26c4c8a399abc6fde,2024-01-22_23h59.00.254,bars,2023.2.3,Win32,59.88023952,657b66ea316d21385b68909f,,,,,,,,,,,,,,,,,,,,,,,,,,,,,,,,,,,,,,,,,,410.3668,410.9157,left,0.5284,,410.9158,0,1,411.9167,0,11,11,11,1,0,4,0,3,,,,,,,,,,,,,,,,,,,,,,,,,,,,,,,,,,,,,,,,,
,,61634ea5478b2d1e072e8353,65af54d26c4c8a399abc6fde,2024-01-22_23h59.00.254,bars,2023.2.3,Win32,59.88023952,657b66ea316d21385b68909f,,,,,,,,,,,,,,,,,,,,,,,,,,,,,,,,,,,,,,,,,,411.9177,412.4199,left,0.4833,,412.4199,1,1,413.4179,0,12,12,12,1,2,6,1,6,,,,,,,,,,,,,,,,,,,,,,,,,,,,,,,,,,,,,,,,,
,,61634ea5478b2d1e072e8353,65af54d26c4c8a399abc6fde,2024-01-22_23h59.00.254,bars,2023.2.3,Win32,59.88023952,657b66ea316d21385b68909f,,,,,,,,,,,,,,,,,,,,,,,,,,,,,,,,,,,,,,,,,,413.4181,413.8685,right,0.4275,,413.8685,3,2,414.8694,0,13,13,13,1,0,4,1,3,,,,,,,,,,,,,,,,,,,,,,,,,,,,,,,,,,,,,,,,,
,,61634ea5478b2d1e072e8353,65af54d26c4c8a399abc6fde,2024-01-22_23h59.00.254,bars,2023.2.3,Win32,59.88023952,657b66ea316d21385b68909f,,,,,,,,,,,,,,,,,,,,,,,,,,,,,,,,,,,,,,,,,,414.8716,415.3879,left,0.4941,,415.3881,2,1,416.3872,0,14,14,14,1,2,6,2,7,,,,,,,,,,,,,,,,,,,,,,,,,,,,,,,,,,,,,,,,,
,,61634ea5478b2d1e072e8353,65af54d26c4c8a399abc6fde,2024-01-22_23h59.00.254,bars,2023.2.3,Win32,59.88023952,657b66ea316d21385b68909f,,,,,,,,,,,,,,,,,,,,,,,,,,,,,,,,,,,,,,,,,,416.3874,416.8412,left,0.4332,,416.8412,3,1,417.8387,0,15,15,15,1,4,8,3,9,,,,,,,,,,,,,,,,,,,,,,,,,,,,,,,,,,,,,,,,,
,,61634ea5478b2d1e072e8353,65af54d26c4c8a399abc6fde,2024-01-22_23h59.00.254,bars,2023.2.3,Win32,59.88023952,657b66ea316d21385b68909f,,,,,,,,,,,,,,,,,,,,,,,,,,,,,,,,,,,,,,,,,,417.839,418.3064,left,0.4347,,418.3064,7,1,419.3069,0,16,16,16,1,6,6,7,7,,,,,,,,,,,,,,,,,,,,,,,,,,,,,,,,,,,,,,,,,
,,61634ea5478b2d1e072e8353,65af54d26c4c8a399abc6fde,2024-01-22_23h59.00.254,bars,2023.2.3,Win32,59.88023952,657b66ea316d21385b68909f,,,,,,,,,,,,,,,,,,,,,,,,,,,,,,,,,,,,,,,,,,419.3071,419.8077,left,0.4732,,419.8078,9,1,420.8083,0,17,17,17,1,8,4,9,5,,,,,,,,,,,,,,,,,,,,,,,,,,,,,,,,,,,,,,,,,
,,61634ea5478b2d1e072e8353,65af54d26c4c8a399abc6fde,2024-01-22_23h59.00.254,bars,2023.2.3,Win32,59.88023952,657b66ea316d21385b68909f,,,,,,,,,,,,,,,,,,,,,,,,,,,,,,,,,,,,,,,,,,420.8086,421.3924,left,0.5552,,421.3924,5,1,422.3936,0,18,18,18,1,6,2,5,1,,,,,,,,,,,,,,,,,,,,,,,,,,,,,,,,,,,,,,,,,
,,61634ea5478b2d1e072e8353,65af54d26c4c8a399abc6fde,2024-01-22_23h59.00.254,bars,2023.2.3,Win32,59.88023952,657b66ea316d21385b68909f,,,,,,,,,,,,,,,,,,,,,,,,,,,,,,,,,,,,,,,,,,422.3938,423.361,left,0.9462,,423.3611,7,1,424.3505,0,19,19,19,1,8,0,7,0,,,,,,,,,,,,,,,,,,,,,,,,,,,,,,,,,,,,,,,,,
,,61634ea5478b2d1e072e8353,65af54d26c4c8a399abc6fde,2024-01-22_23h59.00.254,bars,2023.2.3,Win32,59.88023952,657b66ea316d21385b68909f,,,,,,,,,,,,,,,,,,,,,,,,,,,,,,,,,,,,,,,,,,,,,,,,,,,,,,,,,,,,424.3509,462.1199,space,37.7531,,,,,,,,,,,,,,,,,,,,,,,,,,,,,,,,,,,,,
,,61634ea5478b2d1e072e8353,65af54d26c4c8a399abc6fde,2024-01-22_23h59.00.254,bars,2023.2.3,Win32,59.88023952,657b66ea316d21385b68909f,,,,,,,,,,,463.526,464.519,,,465.0197,465.2693,,74,74,,,,,,,,,,,,,,,,bars/030.png,bars/mask007.png,,,,,,,,,,,,3,2,,,,,,,3,6,4,4,,,,,,462.1312,463.518,space,1.375,,464.5192,465.0197,465.2694,470.143,space,4.8393,,470.1433,66,9,471.1423,471.1423,486.1089,space,14.9335,,0,0,0,0,1,140,65,,,,,,,,
,,61634ea5478b2d1e072e8353,65af54d26c4c8a399abc6fde,2024-01-22_23h59.00.254,bars,2023.2.3,Win32,59.88023952,657b66ea316d21385b68909f,,,,,,,,,,,486.119,487.108,,,487.6088,487.8587,,59,59,,,,,,,,,,,,,,,,bars/034.png,bars/mask005.png,,,,,,,,,,,,2,2,,,,,,,1,4,1,2,,,,,,,,,,,487.108,487.6088,487.8588,489.9443,space,2.0711,,489.9444,66,6,490.9453,490.9453,492.5967,space,1.6231,,0,1,1,1,1,125,65,,,,,,,,
,,61634ea5478b2d1e072e8353,65af54d26c4c8a399abc6fde,2024-01-22_23h59.00.254,bars,2023.2.3,Win32,59.88023952,657b66ea316d21385b68909f,,,,,,,,,,,492.5987,493.5977,,,494.0984,494.3486,,102,102,,,,,,,,,,,,,,,,bars/039.png,bars/mask003.png,,,,,,,,,,,,3,2,,,,,,,0,2,0,3,,,,,,,,,,,493.5978,494.0983,494.3486,496.4171,space,2.0366,,496.4172,73,3,497.4181,497.4181,497.5683,space,0.1211,,0,2,2,2,1,175,105,,,,,,,,
,,61634ea5478b2d1e072e8353,65af54d26c4c8a399abc6fde,2024-01-22_23h59.00.254,bars,2023.2.3,Win32,59.88023952,657b66ea316d21385b68909f,,,,,,,,,,,497.5703,498.5694,,,499.0697,499.3202,,108,108,,,,,,,,,,,,,,,,bars/012.png,bars/mask001.png,,,,,,,,,,,,0,1,,,,,,,2,0,1,1,,,,,,,,,,,498.5695,499.0697,499.3204,501.7725,space,2.4336,,501.7726,18,87,502.7737,502.7737,505.0964,space,2.3016,,0,3,3,3,1,90,15,,,,,,,,
,,61634ea5478b2d1e072e8353,65af54d26c4c8a399abc6fde,2024-01-22_23h59.00.254,bars,2023.2.3,Win32,59.88023952,657b66ea316d21385b68909f,,,,,,,,,,,505.0967,506.0933,,,506.5941,506.844,,169,169,,,,,,,,,,,,,,,,bars/048.png,bars/mask001.png,,,,,,,,,,,,1,2,,,,,,,0,0,0,1,,,,,,,,,,,506.0933,506.5941,506.844,509.0797,space,2.2193,,509.0798,61,6,510.0808,510.0809,511.082,space,0.9736,,0,4,4,4,1,50,175,,,,,,,,
,,61634ea5478b2d1e072e8353,65af54d26c4c8a399abc6fde,2024-01-22_23h59.00.254,bars,2023.2.3,Win32,59.88023952,657b66ea316d21385b68909f,,,,,,,,,,,511.0842,512.0829,,,512.5835,512.8334,,130,-50,,,,,,,,,,,,,,,,bars/037.png,bars/mask005.png,,,,,,,,,,,,0,1,,,,,,,0,0,0,0,,,,,,,,,,,512.083,512.5835,512.8334,517.4264,space,4.5736,,517.4264,20,25,518.4254,518.4254,519.2232,space,0.7608,,0,5,5,5,1,150,105,,,,,,,,
,,61634ea5478b2d1e072e8353,65af54d26c4c8a399abc6fde,2024-01-22_23h59.00.254,bars,2023.2.3,Win32,59.88023952,657b66ea316d21385b68909f,,,,,,,,,,,519.2251,520.2241,,,520.7247,520.9751,,111,-69,,,,,,,,,,,,,,,,bars/020.png,bars/mask007.png,,,,,,,,,,,,2,1,,,,,,,0,2,2,3,,,,,,,,,,,520.2241,520.7247,520.9751,525.9135,space,4.9099,,525.9135,4,59,526.9144,526.9144,528.2823,space,1.3443,,0,6,6,6,1,115,170,,,,,,,,
,,61634ea5478b2d1e072e8353,65af54d26c4c8a399abc6fde,2024-01-22_23h59.00.254,bars,2023.2.3,Win32,59.88023952,657b66ea316d21385b68909f,,,,,,,,,,,528.2846,529.2831,,,529.7839,530.0339,,43,43,,,,,,,,,,,,,,,,bars/010.png,bars/mask006.png,,,,,,,,,,,,0,2,,,,,,,2,0,1,0,,,,,,,,,,,529.2832,529.7839,530.0339,535.1891,space,5.1383,,535.1891,58,12,536.1902,536.1902,536.9075,space,0.695,,0,7,7,7,1,165,55,,,,,,,,
,,61634ea5478b2d1e072e8353,65af54d26c4c8a399abc6fde,2024-01-22_23h59.00.254,bars,2023.2.3,Win32,59.88023952,657b66ea316d21385b68909f,,,,,,,,,,,536.9095,537.9086,,,538.4093,538.6591,,117,117,,,,,,,,,,,,,,,,bars/037.png,bars/mask000.png,,,,,,,,,,,,1,2,,,,,,,4,2,4,1,,,,,,,,,,,537.9087,538.4093,538.6592,540.5446,space,1.8607,,540.5447,33,12,541.5455,541.5455,542.2461,space,0.6753,,0,8,8,8,1,150,105,,,,,,,,
,,61634ea5478b2d1e072e8353,65af54d26c4c8a399abc6fde,2024-01-22_23h59.00.254,bars,2023.2.3,Win32,59.88023952,657b66ea316d21385b68909f,,,,,,,,,,,542.2481,543.247,,,543.7476,543.9978,,58,58,,,,,,,,,,,,,,,,bars/034.png,bars/mask003.png,,,,,,,,,,,,0,2,,,,,,,2,0,2,0,,,,,,,,,,,543.2471,543.7476,543.9978,546.8173,space,2.7912,,546.8174,67,7,547.8182,547.8182,549.5367,space,1.6951,,0,9,9,9,1,125,65,,,,,,,,
,,61634ea5478b2d1e072e8353,65af54d26c4c8a399abc6fde,2024-01-22_23h59.00.254,bars,2023.2.3,Win32,59.88023952,657b66ea316d21385b68909f,,,,,,,,,,,549.5388,550.5378,,,551.038,551.2888,,141,141,,,,,,,,,,,,,,,,bars/017.png,bars/mask008.png,,,,,,,,,,,,3,1,,,,,,,4,0,4,0,,,,,,,,,,,550.5379,551.038,551.2888,554.8589,space,3.5608,,554.859,4,84,555.8599,555.86,556.9774,space,1.0957,,0,10,10,10,1,145,45,,,,,,,,
,,61634ea5478b2d1e072e8353,65af54d26c4c8a399abc6fde,2024-01-22_23h59.00.254,bars,2023.2.3,Win32,59.88023952,657b66ea316d21385b68909f,,,,,,,,,,,556.9795,557.9783,,,558.4792,558.7296,,115,115,,,,,,,,,,,,,,,,bars/027.png,bars/mask008.png,,,,,,,,,,,,5,1,,,,,,,6,0,6,0,,,,,,,,,,,557.9783,558.4792,558.7296,561.7355,space,2.9848,,561.7355,5,65,562.7331,562.7331,563.4673,space,0.6989,,0,11,11,11,1,110,50,,,,,,,,
,,61634ea5478b2d1e072e8353,65af54d26c4c8a399abc6fde,2024-01-22_23h59.00.254,bars,2023.2.3,Win32,59.88023952,657b66ea316d21385b68909f,,,,,,,,,,,563.4694,564.4684,,,564.9688,565.2188,,139,139,,,,,,,,,,,,,,,,bars/017.png,bars/mask007.png,,,,,,,,,,,,4,1,,,,,,,4,0,5,1,,,,,,,,,,,564.4684,564.9688,565.2189,566.7374,space,1.5064,,566.7374,6,86,567.7384,567.7384,568.7224,space,0.9562,,0,12,12,12,1,145,45,,,,,,,,
,,61634ea5478b2d1e072e8353,65af54d26c4c8a399abc6fde,2024-01-22_23h59.00.254,bars,2023.2.3,Win32,59.88023952,657b66ea316d21385b68909f,,,,,,,,,,,568.7245,569.7235,,,570.2242,570.4743,,46,226,,,,,,,,,,,,,,,,bars/048.png,bars/mask004.png,,,,,,,,,,,,5,1,,,,,,,6,0,6,0,,,,,,,,,,,569.7235,570.2242,570.4743,574.9969,space,4.5018,,574.9973,4,51,575.9965,575.9965,576.7638,space,0.7411,,0,13,13,13,1,50,175,,,,,,,,
,,61634ea5478b2d1e072e8353,65af54d26c4c8a399abc6fde,2024-01-22_23h59.00.254,bars,2023.2.3,Win32,59.88023952,657b66ea316d21385b68909f,,,,,,,,,,,576.766,577.7648,,,578.2652,578.5158,,67,67,,,,,,,,,,,,,,,,bars/014.png,bars/mask004.png,,,,,,,,,,,,2,1,,,,,,,4,0,4,0,,,,,,,,,,,577.7648,578.2652,578.5158,581.4188,space,2.8903,,581.4188,13,67,582.4192,582.4193,583.0034,space,0.5621,,0,14,14,14,1,80,0,,,,,,,,
,,61634ea5478b2d1e072e8353,65af54d26c4c8a399abc6fde,2024-01-22_23h59.00.254,bars,2023.2.3,Win32,59.88023952,657b66ea316d21385b68909f,,,,,,,,,,,583.0051,584.0042,,,584.5052,584.7549,,18,198,,,,,,,,,,,,,,,,bars/014.png,bars/mask007.png,,,,,,,,,,,,1,2,,,,,,,2,2,1,3,,,,,,,,,,,584.0043,584.5052,584.755,587.0597,space,2.2961,,587.0597,62,18,588.0587,588.0587,597.1676,space,9.0813,,0,15,15,15,1,80,0,,,,,,,,
,,61634ea5478b2d1e072e8353,65af54d26c4c8a399abc6fde,2024-01-22_23h59.00.254,bars,2023.2.3,Win32,59.88023952,657b66ea316d21385b68909f,,,,,,,,,,,597.1784,598.1683,,,598.6693,598.9193,,65,65,,,,,,,,,,,,,,,,bars/042.png,bars/mask005.png,,,,,,,,,,,,3,2,,,,,,,4,4,5,5,,,,,,,,,,,598.1683,598.6692,598.9193,602.0727,space,3.1283,,602.0727,80,10,603.0732,603.0733,603.7577,space,0.6508,,0,16,16,16,1,145,75,,,,,,,,
,,61634ea5478b2d1e072e8353,65af54d26c4c8a399abc6fde,2024-01-22_23h59.00.254,bars,2023.2.3,Win32,59.88023952,657b66ea316d21385b68909f,,,,,,,,,,,603.7601,604.7582,,,605.259,605.5091,,160,160,,,,,,,,,,,,,,,,bars/046.png,bars/mask006.png,,,,,,,,,,,,3,1,,,,,,,6,6,4,6,,,,,,,,,,,604.7583,605.259,605.5091,607.8283,space,2.3056,,607.8286,5,75,608.832,608.832,609.4992,space,0.643,,0,17,17,17,1,155,85,,,,,,,,
,,61634ea5478b2d1e072e8353,65af54d26c4c8a399abc6fde,2024-01-22_23h59.00.254,bars,2023.2.3,Win32,59.88023952,657b66ea316d21385b68909f,,,,,,,,,,,609.4996,610.4977,,,610.9979,611.2481,,174,174,,,,,,,,,,,,,,,,bars/046.png,bars/mask009.png,,,,,,,,,,,,3,1,,,,,,,8,4,9,4,,,,,,,,,,,610.4977,610.9978,611.2482,614.5023,space,3.2488,,614.5025,19,89,615.5025,615.5025,616.0864,space,0.5529,,0,18,18,18,1,155,85,,,,,,,,
,,61634ea5478b2d1e072e8353,65af54d26c4c8a399abc6fde,2024-01-22_23h59.00.254,bars,2023.2.3,Win32,59.88023952,657b66ea316d21385b68909f,,,,,,,,,,,616.0884,617.0874,,,617.5878,617.8386,,45,45,,,,,,,,,,,,,,,,bars/019.png,bars/mask008.png,,,,,,,,,,,,6,1,,,,,,,6,6,6,7,,,,,,,,,,,617.0875,617.5878,617.8386,619.0392,space,1.1785,,619.0392,0,60,620.0404,620.0404,624.5784,space,4.5163,,0,19,19,19,1,45,105,,,,,,,,
,,61634ea5478b2d1e072e8353,65af54d26c4c8a399abc6fde,2024-01-22_23h59.00.254,bars,2023.2.3,Win32,59.88023952,657b66ea316d21385b68909f,,,,,,,,,,,624.5889,625.5792,,,626.0796,626.3304,,166,-14,,,,,,,,,,,,,,,,bars/007.png,bars/mask003.png,,,,,,,,,,,,3,1,,,,,,,4,8,4,6,,,,,,,,,,,625.5793,626.0796,626.3304,629.5212,space,3.1849,,629.5213,9,69,630.5173,630.5173,631.1183,space,0.5753,,0,20,20,20,1,175,55,,,,,,,,
,,61634ea5478b2d1e072e8353,65af54d26c4c8a399abc6fde,2024-01-22_23h59.00.254,bars,2023.2.3,Win32,59.88023952,657b66ea316d21385b68909f,,,,,,,,,,,631.1206,632.1189,,,632.6199,632.8703,,144,144,,,,,,,,,,,,,,,,bars/020.png,bars/mask008.png,,,,,,,,,,,,1,2,,,,,,,2,10,2,10,,,,,,,,,,,632.1189,632.6195,632.8703,636.6405,space,3.7521,,636.6408,29,26,637.6414,637.6414,638.2087,space,0.5416,,0,21,21,21,1,115,170,,,,,,,,
,,61634ea5478b2d1e072e8353,65af54d26c4c8a399abc6fde,2024-01-22_23h59.00.254,bars,2023.2.3,Win32,59.88023952,657b66ea316d21385b68909f,,,,,,,,,,,638.2113,639.21,,,639.71,639.9604,,124,124,,,,,,,,,,,,,,,,bars/024.png,bars/mask007.png,,,,,,,,,,,,0,1,,,,,,,0,8,0,8,,,,,,,,,,,639.2105,639.71,639.9605,642.4294,space,2.4494,,642.4294,4,46,643.4302,643.4302,644.5981,space,1.1393,,0,22,22,22,1,120,170,,,,,,,,
,,61634ea5478b2d1e072e8353,65af54d26c4c8a399abc6fde,2024-01-22_23h59.00.254,bars,2023.2.3,Win32,59.88023952,657b66ea316d21385b68909f,,,,,,,,,,,644.6006,645.6014,,,646.1001,646.3499,,151,151,,,,,,,,,,,,,,,,bars/037.png,bars/mask005.png,,,,,,,,,,,,0,1,,,,,,,0,10,0,10,,,,,,,,,,,645.6014,646.1001,646.3499,650.254,space,3.8909,,650.2541,1,46,651.255,651.255,653.6571,space,2.3698,,0,23,23,23,1,150,105,,,,,,,,
,,61634ea5478b2d1e072e8353,65af54d26c4c8a399abc6fde,2024-01-22_23h59.00.254,bars,2023.2.3,Win32,59.88023952,657b66ea316d21385b68909f,,,,,,,,,,,653.6595,654.658,,,655.1585,655.4091,,165,-15,,,,,,,,,,,,,,,,bars/023.png,bars/mask001.png,,,,,,,,,,,,0,1,,,,,,,0,10,0,10,,,,,,,,,,,654.658,655.1585,655.4091,658.7622,space,3.337,,658.7622,35,50,659.763,659.7631,662.3324,space,2.5382,,0,24,24,24,1,20,115,,,,,,,,
,,61634ea5478b2d1e072e8353,65af54d26c4c8a399abc6fde,2024-01-22_23h59.00.254,bars,2023.2.3,Win32,59.88023952,657b66ea316d21385b68909f,,,,,,,,,,,662.3345,663.3333,,,663.8339,664.0843,,46,46,,,,,,,,,,,,,,,,bars/030.png,bars/mask002.png,,,,,,,,,,,,3,2,,,,,,,2,8,3,7,,,,,,,,,,,663.3333,663.8339,664.0843,666.8246,space,2.7341,,666.8246,86,19,667.8211,667.8211,669.1392,space,1.2891,,0,25,25,25,1,140,65,,,,,,,,
,,61634ea5478b2d1e072e8353,65af54d26c4c8a399abc6fde,2024-01-22_23h59.00.254,bars,2023.2.3,Win32,59.88023952,657b66ea316d21385b68909f,,,,,,,,,,,669.1415,670.14,,,670.6406,670.8908,,47,227,,,,,,,,,,,,,,,,bars/025.png,bars/mask006.png,,,,,,,,,,,,5,2,,,,,,,0,6,0,6,,,,,,,,,,,670.14,670.6406,670.8908,674.9952,space,4.0869,,674.9952,58,7,675.9959,675.9959,676.7468,space,0.7245,,0,26,26,26,1,105,40,,,,,,,,
,,61634ea5478b2d1e072e8353,65af54d26c4c8a399abc6fde,2024-01-22_23h59.00.254,bars,2023.2.3,Win32,59.88023952,657b66ea316d21385b68909f,,,,,,,,,,,676.7489,677.7476,,,678.2482,678.4984,,177,-3,,,,,,,,,,,,,,,,bars/012.png,bars/mask003.png,,,,,,,,,,,,2,2,,,,,,,2,8,1,6,,,,,,,,,,,677.7476,678.2482,678.4984,680.05,space,1.5423,,680.05,87,18,681.0539,681.054,681.6207,space,0.5473,,0,27,27,27,1,90,15,,,,,,,,
,,61634ea5478b2d1e072e8353,65af54d26c4c8a399abc6fde,2024-01-22_23h59.00.254,bars,2023.2.3,Win32,59.88023952,657b66ea316d21385b68909f,,,,,,,,,,,681.6212,682.6224,,,683.1203,683.3704,,80,80,,,,,,,,,,,,,,,,bars/001.png,bars/mask000.png,,,,,,,,,,,,4,2,,,,,,,4,6,3,5,,,,,,,,,,,682.6224,683.1202,683.3705,687.2573,space,3.8743,,687.2573,50,5,688.2582,688.2583,688.7591,space,0.4731,,0,28,28,28,1,130,85,,,,,,,,
,,61634ea5478b2d1e072e8353,65af54d26c4c8a399abc6fde,2024-01-22_23h59.00.254,bars,2023.2.3,Win32,59.88023952,657b66ea316d21385b68909f,,,,,,,,,,,688.7613,689.7598,,,690.2603,690.5107,,39,39,,,,,,,,,,,,,,,,bars/029.png,bars/mask004.png,,,,,,,,,,,,6,2,,,,,,,2,8,2,7,,,,,,,,,,,689.7599,690.2602,690.5108,692.2623,space,1.7335,,692.2623,51,6,693.2635,693.2635,694.2644,space,0.9681,,0,29,29,29,1,90,45,,,,,,,,
,,61634ea5478b2d1e072e8353,65af54d26c4c8a399abc6fde,2024-01-22_23h59.00.254,bars,2023.2.3,Win32,59.88023952,657b66ea316d21385b68909f,,,,,,,,,,,694.2666,695.2655,,,695.7657,696.016,,37,217,,,,,,,,,,,,,,,,bars/007.png,bars/mask009.png,,,,,,,,,,,,4,2,,,,,,,0,10,1,10,,,,,,,,,,,695.2655,695.7657,696.016,698.8027,space,2.7608,,698.8027,42,18,699.8034,699.8034,700.604,space,0.7735,,0,30,30,30,1,175,55,,,,,,,,
,,61634ea5478b2d1e072e8353,65af54d26c4c8a399abc6fde,2024-01-22_23h59.00.254,bars,2023.2.3,Win32,59.88023952,657b66ea316d21385b68909f,,,,,,,,,,,700.6066,701.6065,,,702.1055,702.356,,38,38,,,,,,,,,,,,,,,,bars/010.png,bars/mask005.png,,,,,,,,,,,,3,2,,,,,,,2,8,1,7,,,,,,,,,,,701.6066,702.1055,702.356,703.6617,space,1.2864,,703.6617,53,17,704.6581,704.6582,705.2087,space,0.5278,,0,31,31,31,1,165,55,,,,,,,,
,,61634ea5478b2d1e072e8353,65af54d26c4c8a399abc6fde,2024-01-22_23h59.00.254,bars,2023.2.3,Win32,59.88023952,657b66ea316d21385b68909f,,,,,,,,,,,705.211,706.2093,,,706.7101,706.9602,,47,47,,,,,,,,,,,,,,,,bars/027.png,bars/mask000.png,,,,,,,,,,,,5,2,,,,,,,0,6,0,6,,,,,,,,,,,706.2095,706.71,706.9602,709.6803,space,2.7073,,709.6804,63,3,710.6804,710.6805,711.2684,space,0.5667,,0,32,32,32,1,110,50,,,,,,,,
,,61634ea5478b2d1e072e8353,65af54d26c4c8a399abc6fde,2024-01-22_23h59.00.254,bars,2023.2.3,Win32,59.88023952,657b66ea316d21385b68909f,,,,,,,,,,,711.2686,712.2661,,,712.7689,713.0189,,173,-7,,,,,,,,,,,,,,,,bars/032.png,bars/mask000.png,,,,,,,,,,,,1,2,,,,,,,2,8,4,8,,,,,,,,,,,712.2661,712.7688,713.019,715.035,space,2.0047,,715.035,48,27,716.036,716.036,716.6033,space,0.5393,,0,33,33,33,1,125,20,,,,,,,,
,,61634ea5478b2d1e072e8353,65af54d26c4c8a399abc6fde,2024-01-22_23h59.00.254,bars,2023.2.3,Win32,59.88023952,657b66ea316d21385b68909f,,,,,,,,,,,716.6058,717.6056,,,718.105,718.3548,,56,56,,,,,,,,,,,,,,,,bars/035.png,bars/mask004.png,,,,,,,,,,,,9,2,,,,,,,0,10,0,10,,,,,,,,,,,717.6057,718.105,718.3549,720.5738,space,2.1974,,720.5738,61,4,721.5749,721.5749,722.2757,space,0.6639,,0,34,34,34,1,175,60,,,,,,,,
,,61634ea5478b2d1e072e8353,65af54d26c4c8a399abc6fde,2024-01-22_23h59.00.254,bars,2023.2.3,Win32,59.88023952,657b66ea316d21385b68909f,,,,,,,,,,,722.2777,723.2764,,,723.7773,724.0275,,18,198,,,,,,,,,,,,,,,,bars/013.png,bars/mask009.png,,,,,,,,,,,,6,2,,,,,,,0,10,0,8,,,,,,,,,,,723.2765,723.7773,724.0275,727.1808,space,3.1455,,727.1809,57,8,728.1816,728.1816,728.6486,space,0.4407,,0,35,35,35,1,75,10,,,,,,,,
,,61634ea5478b2d1e072e8353,65af54d26c4c8a399abc6fde,2024-01-22_23h59.00.254,bars,2023.2.3,Win32,59.88023952,657b66ea316d21385b68909f,,,,,,,,,,,728.6511,729.6496,,,730.1502,730.4003,,169,-11,,,,,,,,,,,,,,,,bars/048.png,bars/mask000.png,,,,,,,,,,,,7,2,,,,,,,0,10,0,9,,,,,,,,,,,729.6496,730.1502,730.4003,733.0032,space,2.5958,,733.0033,61,6,734.004,734.004,735.0719,space,1.0436,,0,36,36,36,1,50,175,,,,,,,,
,,61634ea5478b2d1e072e8353,65af54d26c4c8a399abc6fde,2024-01-22_23h59.00.254,bars,2023.2.3,Win32,59.88023952,657b66ea316d21385b68909f,,,,,,,,,,,735.0741,736.0729,,,736.5734,736.8232,,11,191,,,,,,,,,,,,,,,,bars/032.png,bars/mask006.png,,,,,,,,,,,,6,2,,,,,,,2,8,2,8,,,,,,,,,,,736.0729,736.5733,736.8232,739.4259,space,2.5927,,739.426,66,9,740.4269,740.4269,740.9274,space,0.4714,,0,37,37,37,1,125,20,,,,,,,,
,,61634ea5478b2d1e072e8353,65af54d26c4c8a399abc6fde,2024-01-22_23h59.00.254,bars,2023.2.3,Win32,59.88023952,657b66ea316d21385b68909f,,,,,,,,,,,740.9296,741.9286,,,742.4289,742.6789,,178,178,,,,,,,,,,,,,,,,bars/048.png,bars/mask000.png,,,,,,,,,,,,6,2,,,,,,,0,6,0,7,,,,,,,,,,,741.9286,742.4288,742.679,744.6146,space,1.9234,,744.6151,52,3,745.6198,745.6199,746.0503,space,0.4076,,0,38,38,38,1,50,175,,,,,,,,
,,61634ea5478b2d1e072e8353,65af54d26c4c8a399abc6fde,2024-01-22_23h59.00.254,bars,2023.2.3,Win32,59.88023952,657b66ea316d21385b68909f,,,,,,,,,,,746.0517,747.0501,,,747.551,747.801,,88,88,,,,,,,,,,,,,,,,bars/046.png,bars/mask006.png,,,,,,,,,,,,3,2,,,,,,,0,4,1,3,,,,,,,,,,,747.0502,747.551,747.8011,749.3363,space,1.5284,,749.3364,67,3,750.3367,750.3367,751.1715,space,0.8084,,0,39,39,39,1,155,85,,,,,,,,
,,61634ea5478b2d1e072e8353,65af54d26c4c8a399abc6fde,2024-01-22_23h59.00.254,bars,2023.2.3,Win32,59.88023952,657b66ea316d21385b68909f,,,,,,,,,,,751.1722,752.1718,,,752.6724,752.9226,,99,99,,,,,,,,,,,,,,,,bars/009.png,bars/mask009.png,,,,,,,,,,,,5,2,,,,,,,0,6,1,6,,,,,,,,,,,752.1718,752.6724,752.9226,757.3605,space,4.4182,,757.3605,84,6,758.3617,758.3617,759.0459,space,0.6546,,0,40,40,40,1,15,105,,,,,,,,
,,61634ea5478b2d1e072e8353,65af54d26c4c8a399abc6fde,2024-01-22_23h59.00.254,bars,2023.2.3,Win32,59.88023952,657b66ea316d21385b68909f,,,,,,,,,,,759.0479,760.0463,,,760.5472,760.7975,,170,170,,,,,,,,,,,,,,,,bars/040.png,bars/mask001.png,,,,,,,,,,,,2,2,,,,,,,2,4,2,3,,,,,,,,,,,760.0464,760.5471,760.7976,761.9487,space,1.1376,,761.9487,30,15,762.9492,762.9493,763.9672,space,0.9853,,0,41,41,41,1,140,5,,,,,,,,
,,61634ea5478b2d1e072e8353,65af54d26c4c8a399abc6fde,2024-01-22_23h59.00.254,bars,2023.2.3,Win32,59.88023952,657b66ea316d21385b68909f,,,,,,,,,,,763.9696,764.9678,,,765.4684,765.7187,,10,190,,,,,,,,,,,,,,,,bars/014.png,bars/mask006.png,,,,,,,,,,,,5,2,,,,,,,4,6,3,7,,,,,,,,,,,764.9678,765.4683,765.7187,770.8906,space,5.162,,770.8907,70,10,771.8918,771.8919,772.6281,space,0.7149,,0,42,42,42,1,80,0,,,,,,,,
,,61634ea5478b2d1e072e8353,65af54d26c4c8a399abc6fde,2024-01-22_23h59.00.254,bars,2023.2.3,Win32,59.88023952,657b66ea316d21385b68909f,,,,,,,,,,,772.6286,773.6316,,,774.1271,774.3773,,46,46,,,,,,,,,,,,,,,,bars/010.png,bars/mask007.png,,,,,,,,,,,,3,2,,,,,,,2,4,3,4,,,,,,,,,,,773.6316,774.127,774.3774,778.3153,space,3.9084,,778.3154,61,9,779.3159,779.3159,779.8661,space,0.522,,0,43,43,43,1,165,55,,,,,,,,
,,61634ea5478b2d1e072e8353,65af54d26c4c8a399abc6fde,2024-01-22_23h59.00.254,bars,2023.2.3,Win32,59.88023952,657b66ea316d21385b68909f,,,,,,,,,,,779.8682,780.8673,,,781.3676,781.6181,,115,115,,,,,,,,,,,,,,,,bars/028.png,bars/mask001.png,,,,,,,,,,,,0,2,,,,,,,0,2,0,0,,,,,,,,,,,780.8673,781.3676,781.6181,783.2529,space,1.6078,,783.253,70,5,784.2541,784.2541,785.0547,space,0.7684,,0,44,44,44,1,45,120,,,,,,,,
,,61634ea5478b2d1e072e8353,65af54d26c4c8a399abc6fde,2024-01-22_23h59.00.254,bars,2023.2.3,Win32,59.88023952,657b66ea316d21385b68909f,,,,,,,,,,,785.0569,786.0585,,,786.5562,786.8063,,131,131,,,,,,,,,,,,,,,,bars/018.png,bars/mask004.png,,,,,,,,,,,,1,1,,,,,,,2,4,2,3,,,,,,,,,,,786.0585,786.5562,786.8064,788.8586,space,2.032,,788.8586,19,41,789.8596,789.8596,790.5272,space,0.6359,,0,45,45,45,1,150,90,,,,,,,,
,,61634ea5478b2d1e072e8353,65af54d26c4c8a399abc6fde,2024-01-22_23h59.00.254,bars,2023.2.3,Win32,59.88023952,657b66ea316d21385b68909f,,,,,,,,,,,790.5295,791.528,,,792.0286,792.2789,,118,118,,,,,,,,,,,,,,,,bars/045.png,bars/mask009.png,,,,,,,,,,,,2,1,,,,,,,4,6,4,6,,,,,,,,,,,791.5281,792.0286,792.2789,794.9648,space,2.6543,,794.9648,18,72,795.9655,795.9655,796.5662,space,0.576,,0,46,46,46,1,100,10,,,,,,,,
,,61634ea5478b2d1e072e8353,65af54d26c4c8a399abc6fde,2024-01-22_23h59.00.254,bars,2023.2.3,Win32,59.88023952,657b66ea316d21385b68909f,,,,,,,,,,,796.5682,797.5671,,,798.0678,798.3181,,112,112,,,,,,,,,,,,,,,,bars/001.png,bars/mask005.png,,,,,,,,,,,,1,1,,,,,,,2,8,2,7,,,,,,,,,,,797.5671,798.0677,798.3182,801.0874,space,2.76,,801.0874,18,27,802.0886,802.0886,802.6556,space,0.5402,,0,47,47,47,1,130,85,,,,,,,,
,,61634ea5478b2d1e072e8353,65af54d26c4c8a399abc6fde,2024-01-22_23h59.00.254,bars,2023.2.3,Win32,59.88023952,657b66ea316d21385b68909f,,,,,,,,,,,802.6568,803.6565,,,804.1573,804.4072,,13,13,,,,,,,,,,,,,,,,bars/012.png,bars/mask002.png,,,,,,,,,,,,5,2,,,,,,,4,6,2,5,,,,,,,,,,,803.6565,804.1573,804.4073,807.06,space,2.6397,,807.06,77,2,808.0611,808.0611,808.4448,space,0.3531,,0,48,48,48,1,90,15,,,,,,,,
,,61634ea5478b2d1e072e8353,65af54d26c4c8a399abc6fde,2024-01-22_23h59.00.254,bars,2023.2.3,Win32,59.88023952,657b66ea316d21385b68909f,,,,,,,,,,,808.4472,809.4458,,,809.946,810.1964,,35,35,,,,,,,,,,,,,,,,bars/007.png,bars/mask004.png,,,,,,,,,,,,3,2,,,,,,,2,8,1,8,,,,,,,,,,,809.4458,809.946,810.1964,816.3359,space,6.1238,,816.3359,40,20,817.3368,817.3369,820.6404,space,3.2763,,0,49,49,49,1,175,55,,,,,,,,
,,61634ea5478b2d1e072e8353,65af54d26c4c8a399abc6fde,2024-01-22_23h59.00.254,bars,2023.2.3,Win32,59.88023952,657b66ea316d21385b68909f,,,,,,,,,,,,,,,,,,,,,,,,,,,,,,,,,,,,,,,,,,,,,,,,,,,,,,,,,,,,,,,,,,,,,,,,,,,,,,,,,,,,,,,,,,,,,820.6566,880.652,0,0,0,2,1,sequence_tables/blk042.csv
,,61634ea5478b2d1e072e8353,65af54d26c4c8a399abc6fde,2024-01-22_23h59.00.254,bars,2023.2.3,Win32,59.88023952,657b66ea316d21385b68909f,,,,,,,,,,,1202.7698,1203.7552,,,1204.2557,1204.5063,,151,-29,,,,,,,,,,,,,,,,bars/040.png,bars/mask001.png,,,,,,,,,,,,6,1,,,,,,,9,4,9,4,,,,,,880.663,1202.7548,space,322.0764,,1203.7553,1204.2557,1204.5064,1206.643,space,2.1163,,1206.6433,11,34,1207.6427,1207.6427,1207.6535,,,,0,0,0,0,1,140,5,,,,,,,,
,,61634ea5478b2d1e072e8353,65af54d26c4c8a399abc6fde,2024-01-22_23h59.00.254,bars,2023.2.3,Win32,59.88023952,657b66ea316d21385b68909f,,,,,,,,,,,1207.6538,1208.6437,,,1209.1444,1209.3941,,62,62,,,,,,,,,,,,,,,,bars/034.png,bars/mask005.png,,,,,,,,,,,,5,2,,,,,,,10,6,10,6,,,,,,,,,,,1208.6438,1209.1443,1209.3941,1211.4629,space,2.0574,,1211.463,63,3,1212.4642,1212.4642,1212.4674,,,,0,1,1,1,1,125,65,,,,,,,,
,,61634ea5478b2d1e072e8353,65af54d26c4c8a399abc6fde,2024-01-22_23h59.00.254,bars,2023.2.3,Win32,59.88023952,657b66ea316d21385b68909f,,,,,,,,,,,1212.4677,1213.4648,,,1213.9655,1214.2159,,130,130,,,,,,,,,,,,,,,,bars/000.png,bars/mask009.png,,,,,,,,,,,,3,2,,,,,,,8,4,8,5,,,,,,,,,,,1213.4649,1213.9655,1214.216,1217.2691,space,3.0431,,1217.2692,90,15,1218.27,1218.27,1218.2803,,,,0,2,2,2,1,40,145,,,,,,,,
,,61634ea5478b2d1e072e8353,65af54d26c4c8a399abc6fde,2024-01-22_23h59.00.254,bars,2023.2.3,Win32,59.88023952,657b66ea316d21385b68909f,,,,,,,,,,,1218.2805,1219.2707,,,1219.7712,1220.0219,,42,42,,,,,,,,,,,,,,,,bars/035.png,bars/mask008.png,,,,,,,,,,,,3,2,,,,,,,6,6,6,7,,,,,,,,,,,1219.2707,1219.7712,1220.0219,1221.9601,space,1.9326,,1221.9602,47,18,1222.958,1222.9582,1222.9684,,,,0,3,3,3,1,175,60,,,,,,,,
,,61634ea5478b2d1e072e8353,65af54d26c4c8a399abc6fde,2024-01-22_23h59.00.254,bars,2023.2.3,Win32,59.88023952,657b66ea316d21385b68909f,,,,,,,,,,,1222.9686,1223.959,,,1224.4591,1224.7095,,101,101,,,,,,,,,,,,,,,,bars/002.png,bars/mask005.png,,,,,,,,,,,,4,2,,,,,,,4,8,3,8,,,,,,,,,,,1223.959,1224.4591,1224.7095,1227.0952,space,2.3795,,1227.0954,29,16,1228.0961,1228.0961,1228.1067,,,,0,4,4,4,1,130,85,,,,,,,,
,,61634ea5478b2d1e072e8353,65af54d26c4c8a399abc6fde,2024-01-22_23h59.00.254,bars,2023.2.3,Win32,59.88023952,657b66ea316d21385b68909f,,,,,,,,,,,1228.1068,1229.0973,,,1229.5977,1229.8481,,85,85,,,,,,,,,,,,,,,,bars/018.png,bars/mask006.png,,,,,,,,,,,,8,2,,,,,,,2,10,1,10,,,,,,,,,,,1229.0973,1229.5976,1229.8482,1233.1851,space,3.3206,,1233.1851,65,5,1234.1856,1234.1856,1234.199,,,,0,5,5,5,1,150,90,,,,,,,,
,,61634ea5478b2d1e072e8353,65af54d26c4c8a399abc6fde,2024-01-22_23h59.00.254,bars,2023.2.3,Win32,59.88023952,657b66ea316d21385b68909f,,,,,,,,,,,1234.1993,1235.2032,,,1235.7038,1235.9541,,145,145,,,,,,,,,,,,,,,,bars/033.png,bars/mask008.png,,,,,,,,,,,,5,2,,,,,,,4,8,4,8,,,,,,,,,,,1235.2032,1235.7038,1235.9541,1238.8069,space,2.8202,,1238.807,60,10,1239.7956,1239.7956,1239.8056,,,,0,6,6,6,1,25,155,,,,,,,,
,,61634ea5478b2d1e072e8353,65af54d26c4c8a399abc6fde,2024-01-22_23h59.00.254,bars,2023.2.3,Win32,59.88023952,657b66ea316d21385b68909f,,,,,,,,,,,1239.8057,1240.8088,,,1241.3096,1241.5596,,176,176,,,,,,,,,,,,,,,,bars/014.png,bars/mask001.png,,,,,,,,,,,,9,2,,,,,,,2,10,1,10,,,,,,,,,,,1240.8089,1241.3096,1241.5596,1244.8796,space,3.3128,,1244.8796,84,4,1245.8808,1245.8808,1245.8912,,,,0,7,7,7,1,80,0,,,,,,,,
,,61634ea5478b2d1e072e8353,65af54d26c4c8a399abc6fde,2024-01-22_23h59.00.254,bars,2023.2.3,Win32,59.88023952,657b66ea316d21385b68909f,,,,,,,,,,,1245.8914,1246.8815,,,1247.3826,1247.6326,,47,47,,,,,,,,,,,,,,,,bars/027.png,bars/mask005.png,,,,,,,,,,,,6,2,,,,,,,4,8,4,7,,,,,,,,,,,1246.8815,1247.3825,1247.6326,1249.4011,space,1.7569,,1249.4012,63,3,1250.4016,1250.4017,1250.4042,,,,0,8,8,8,1,110,50,,,,,,,,
,,61634ea5478b2d1e072e8353,65af54d26c4c8a399abc6fde,2024-01-22_23h59.00.254,bars,2023.2.3,Win32,59.88023952,657b66ea316d21385b68909f,,,,,,,,,,,1250.4046,1251.4026,,,1251.9031,1252.1534,,147,147,,,,,,,,,,,,,,,,bars/003.png,bars/mask006.png,,,,,,,,,,,,5,2,,,,,,,2,6,2,7,,,,,,,,,,,1251.4026,1251.9031,1252.1534,1253.6551,space,1.4917,,1253.6552,58,7,1254.6561,1254.6561,1254.6584,,,,0,9,9,9,1,25,140,,,,,,,,
,,61634ea5478b2d1e072e8353,65af54d26c4c8a399abc6fde,2024-01-22_23h59.00.254,bars,2023.2.3,Win32,59.88023952,657b66ea316d21385b68909f,,,,,,,,,,,1254.6588,1255.6569,,,1256.1577,1256.4076,,4,4,,,,,,,,,,,,,,,,bars/045.png,bars/mask006.png,,,,,,,,,,,,6,2,,,,,,,4,8,3,7,,,,,,,,,,,1255.6569,1256.1577,1256.4077,1259.3457,space,2.9107,,1259.3463,84,6,1260.3449,1260.3449,1260.3571,,,,0,10,10,10,1,100,10,,,,,,,,
,,61634ea5478b2d1e072e8353,65af54d26c4c8a399abc6fde,2024-01-22_23h59.00.254,bars,2023.2.3,Win32,59.88023952,657b66ea316d21385b68909f,,,,,,,,,,,1260.3573,1261.3459,,,1261.8465,1262.0966,,9,189,,,,,,,,,,,,,,,,bars/032.png,bars/mask003.png,,,,,,,,,,,,4,2,,,,,,,2,6,1,7,,,,,,,,,,,1261.3459,1261.8464,1262.0967,1266.1843,space,4.0684,,1266.1843,64,11,1267.1851,1267.1851,1267.196,,,,0,11,11,11,1,125,20,,,,,,,,
,,61634ea5478b2d1e072e8353,65af54d26c4c8a399abc6fde,2024-01-22_23h59.00.254,bars,2023.2.3,Win32,59.88023952,657b66ea316d21385b68909f,,,,,,,,,,,1267.1961,1268.186,,,1268.6867,1268.9242,,97,97,,,,,,,,,,,,,,,,bars/019.png,bars/mask001.png,,,,,,,,,,,,4,2,,,,,,,4,4,4,6,,,,,,,,,,,1268.186,1268.6867,1268.9243,1270.9226,space,1.9895,,1270.9227,52,8,1271.9231,1271.9231,1271.9363,,,,0,12,12,12,1,45,105,,,,,,,,
,,61634ea5478b2d1e072e8353,65af54d26c4c8a399abc6fde,2024-01-22_23h59.00.254,bars,2023.2.3,Win32,59.88023952,657b66ea316d21385b68909f,,,,,,,,,,,1271.9366,1272.9412,,,1273.4413,1273.6915,,104,104,,,,,,,,,,,,,,,,bars/002.png,bars/mask003.png,,,,,,,,,,,,2,2,,,,,,,2,6,1,6,,,,,,,,,,,1272.9412,1273.4412,1273.6916,1276.8614,space,3.1377,,1276.8615,26,19,1277.8624,1277.8624,1277.8736,,,,0,13,13,13,1,130,85,,,,,,,,
,,61634ea5478b2d1e072e8353,65af54d26c4c8a399abc6fde,2024-01-22_23h59.00.254,bars,2023.2.3,Win32,59.88023952,657b66ea316d21385b68909f,,,,,,,,,,,1277.8738,1278.8636,,,1279.3643,1279.6144,,73,73,,,,,,,,,,,,,,,,bars/030.png,bars/mask007.png,,,,,,,,,,,,3,2,,,,,,,4,4,4,4,,,,,,,,,,,1278.8636,1279.3643,1279.6144,1281.7361,space,2.1139,,1281.7361,67,8,1282.734,1282.734,1282.7368,,,,0,14,14,14,1,140,65,,,,,,,,
,,61634ea5478b2d1e072e8353,65af54d26c4c8a399abc6fde,2024-01-22_23h59.00.254,bars,2023.2.3,Win32,59.88023952,657b66ea316d21385b68909f,,,,,,,,,,,1282.7371,1283.7348,,,1284.2354,1284.4859,,118,118,,,,,,,,,,,,,,,,bars/039.png,bars/mask006.png,,,,,,,,,,,,2,2,,,,,,,6,2,6,3,,,,,,,,,,,1283.7349,1284.2354,1284.4859,1288.1229,space,3.6256,,1288.1229,57,13,1289.1113,1289.1113,1289.127,,,,0,15,15,15,1,175,105,,,,,,,,
,,61634ea5478b2d1e072e8353,65af54d26c4c8a399abc6fde,2024-01-22_23h59.00.254,bars,2023.2.3,Win32,59.88023952,657b66ea316d21385b68909f,,,,,,,,,,,1289.1272,1290.1246,,,1290.6256,1290.8759,,75,75,,,,,,,,,,,,,,,,bars/002.png,bars/mask004.png,,,,,,,,,,,,0,2,,,,,,,8,0,8,0,,,,,,,,,,,1290.1246,1290.6256,1290.8759,1293.7286,space,2.8417,,1293.7286,55,10,1294.7296,1294.7297,1294.7397,,,,0,16,16,16,1,130,85,,,,,,,,
,,61634ea5478b2d1e072e8353,65af54d26c4c8a399abc6fde,2024-01-22_23h59.00.254,bars,2023.2.3,Win32,59.88023952,657b66ea316d21385b68909f,,,,,,,,,,,1294.7399,1295.7305,,,1296.2311,1296.4809,,126,126,,,,,,,,,,,,,,,,bars/008.png,bars/mask002.png,,,,,,,,,,,,3,1,,,,,,,6,2,6,3,,,,,,,,,,,1295.7306,1296.231,1296.4809,1300.0347,space,3.5229,,1300.0347,16,54,1301.0389,1301.039,1301.0668,,,,0,17,17,17,1,110,0,,,,,,,,
,,61634ea5478b2d1e072e8353,65af54d26c4c8a399abc6fde,2024-01-22_23h59.00.254,bars,2023.2.3,Win32,59.88023952,657b66ea316d21385b68909f,,,,,,,,,,,1301.0674,1302.0564,,,1302.5562,1302.804,,146,146,,,,,,,,,,,,,,,,bars/018.png,bars/mask007.png,,,,,,,,,,,,1,1,,,,,,,4,4,1,4,,,,,,,,,,,1302.0565,1302.5562,1302.804,1304.5232,space,1.6889,,1304.5234,4,56,1305.5233,1305.5233,1305.5431,,,,0,18,18,18,1,150,90,,,,,,,,
,,61634ea5478b2d1e072e8353,65af54d26c4c8a399abc6fde,2024-01-22_23h59.00.254,bars,2023.2.3,Win32,59.88023952,657b66ea316d21385b68909f,,,,,,,,,,,1305.5435,1306.5411,,,1307.0416,1307.2918,,114,-66,,,,,,,,,,,,,,,,bars/037.png,bars/mask009.png,,,,,,,,,,,,2,2,,,,,,,2,2,3,3,,,,,,,,,,,1306.5411,1307.0416,1307.2918,1310.7622,space,3.447,,1310.7623,36,9,1311.7628,1311.7628,1311.7739,,,,0,19,19,19,1,150,105,,,,,,,,
,,61634ea5478b2d1e072e8353,65af54d26c4c8a399abc6fde,2024-01-22_23h59.00.254,bars,2023.2.3,Win32,59.88023952,657b66ea316d21385b68909f,,,,,,,,,,,1311.7741,1312.7639,,,1313.2643,1313.5147,,128,128,,,,,,,,,,,,,,,,bars/049.png,bars/mask006.png,,,,,,,,,,,,2,2,,,,,,,0,4,1,3,,,,,,,,,,,1312.764,1313.2643,1313.5147,1316.1717,space,2.6496,,1316.1718,32,13,1317.1686,1317.1687,1317.1793,,,,0,20,20,20,1,160,115,,,,,,,,
,,61634ea5478b2d1e072e8353,65af54d26c4c8a399abc6fde,2024-01-22_23h59.00.254,bars,2023.2.3,Win32,59.88023952,657b66ea316d21385b68909f,,,,,,,,,,,1317.1795,1318.1693,,,1318.6738,1318.9199,,161,161,,,,,,,,,,,,,,,,bars/036.png,bars/mask009.png,,,,,,,,,,,,0,1,,,,,,,0,2,1,4,,,,,,,,,,,1318.1693,1318.6737,1318.92,1321.1556,space,2.2222,,1321.1557,16,39,1322.1566,1322.1566,1322.1683,,,,0,21,21,21,1,145,20,,,,,,,,
,,61634ea5478b2d1e072e8353,65af54d26c4c8a399abc6fde,2024-01-22_23h59.00.254,bars,2023.2.3,Win32,59.88023952,657b66ea316d21385b68909f,,,,,,,,,,,1322.1686,1323.1575,,,1323.6587,1323.9084,,159,159,,,,,,,,,,,,,,,,bars/049.png,bars/mask004.png,,,,,,,,,,,,3,1,,,,,,,2,0,3,1,,,,,,,,,,,1323.1575,1323.6586,1323.9084,1326.8613,space,2.9264,,1326.8614,1,44,1327.8625,1327.8626,1327.8732,,,,0,22,22,22,1,160,115,,,,,,,,
,,61634ea5478b2d1e072e8353,65af54d26c4c8a399abc6fde,2024-01-22_23h59.00.254,bars,2023.2.3,Win32,59.88023952,657b66ea316d21385b68909f,,,,,,,,,,,1327.8734,1328.8634,,,1329.3639,1329.614,,69,69,,,,,,,,,,,,,,,,bars/019.png,bars/mask006.png,,,,,,,,,,,,0,1,,,,,,,0,2,0,4,,,,,,,,,,,1328.8634,1329.3638,1329.614,1333.4379,space,3.8179,,1333.438,24,36,1334.4357,1334.4358,1334.4457,,,,0,23,23,23,1,45,105,,,,,,,,
,,61634ea5478b2d1e072e8353,65af54d26c4c8a399abc6fde,2024-01-22_23h59.00.254,bars,2023.2.3,Win32,59.88023952,657b66ea316d21385b68909f,,,,,,,,,,,1334.4459,1335.4364,,,1335.9369,1336.1875,,41,41,,,,,,,,,,,,,,,,bars/027.png,bars/mask005.png,,,,,,,,,,,,3,2,,,,,,,2,4,2,4,,,,,,,,,,,1335.4364,1335.9369,1336.1875,1338.1561,space,1.9543,,1338.1561,69,9,1339.157,1339.157,1339.1684,,,,0,24,24,24,1,110,50,,,,,,,,
,,61634ea5478b2d1e072e8353,65af54d26c4c8a399abc6fde,2024-01-22_23h59.00.254,bars,2023.2.3,Win32,59.88023952,657b66ea316d21385b68909f,,,,,,,,,,,1339.1686,1340.1581,,,1340.6587,1340.9087,,76,76,,,,,,,,,,,,,,,,bars/026.png,bars/mask008.png,,,,,,,,,,,,3,2,,,,,,,0,6,0,4,,,,,,,,,,,1340.1582,1340.6587,1340.9087,1343.3112,space,2.3845,,1343.3113,41,9,1344.3119,1344.3119,1344.3231,,,,0,25,25,25,1,35,85,,,,,,,,
,,61634ea5478b2d1e072e8353,65af54d26c4c8a399abc6fde,2024-01-22_23h59.00.254,bars,2023.2.3,Win32,59.88023952,657b66ea316d21385b68909f,,,,,,,,,,,1344.3234,1345.3129,,,1345.8139,1346.064,,12,192,,,,,,,,,,,,,,,,bars/024.png,bars/mask003.png,,,,,,,,,,,,2,2,,,,,,,0,8,1,8,,,,,,,,,,,1345.3129,1345.8139,1346.064,1347.3988,space,1.3033,,1347.3988,72,22,1348.3996,1348.3996,1348.4019,,,,0,26,26,26,1,120,170,,,,,,,,
,,61634ea5478b2d1e072e8353,65af54d26c4c8a399abc6fde,2024-01-22_23h59.00.254,bars,2023.2.3,Win32,59.88023952,657b66ea316d21385b68909f,,,,,,,,,,,1348.4021,1349.4003,,,1349.9012,1350.1515,,147,147,,,,,,,,,,,,,,,,bars/044.png,bars/mask009.png,,,,,,,,,,,,6,2,,,,,,,0,6,0,8,,,,,,,,,,,1349.4003,1349.9012,1350.1515,1351.2193,space,1.0612,,1351.2194,72,8,1352.2198,1352.2198,1352.2223,,,,0,27,27,27,1,75,155,,,,,,,,
,,61634ea5478b2d1e072e8353,65af54d26c4c8a399abc6fde,2024-01-22_23h59.00.254,bars,2023.2.3,Win32,59.88023952,657b66ea316d21385b68909f,,,,,,,,,,,1352.2226,1353.221,,,1353.7214,1353.9716,,9,9,,,,,,,,,,,,,,,,bars/045.png,bars/mask009.png,,,,,,,,,,,,3,2,,,,,,,2,4,1,3,,,,,,,,,,,1353.2211,1353.7214,1353.9716,1355.6233,space,1.6314,,1355.6233,89,1,1356.6242,1356.6242,1356.6267,,,,0,28,28,28,1,100,10,,,,,,,,
,,61634ea5478b2d1e072e8353,65af54d26c4c8a399abc6fde,2024-01-22_23h59.00.254,bars,2023.2.3,Win32,59.88023952,657b66ea316d21385b68909f,,,,,,,,,,,1356.627,1357.6254,,,1358.126,1358.3758,,145,-35,,,,,,,,,,,,,,,,bars/005.png,bars/mask009.png,,,,,,,,,,,,3,2,,,,,,,4,6,3,4,,,,,,,,,,,1357.6255,1358.126,1358.3758,1361.012,space,2.6288,,1361.012,45,5,1362.0007,1362.0007,1362.0163,,,,0,29,29,29,1,10,140,,,,,,,,
,,61634ea5478b2d1e072e8353,65af54d26c4c8a399abc6fde,2024-01-22_23h59.00.254,bars,2023.2.3,Win32,59.88023952,657b66ea316d21385b68909f,,,,,,,,,,,1362.0165,1363.0138,,,1363.5144,1363.7646,,10,10,,,,,,,,,,,,,,,,bars/009.png,bars/mask002.png,,,,,,,,,,,,1,1,,,,,,,2,4,1,5,,,,,,,,,,,1363.0139,1363.5143,1363.7647,1364.6989,space,0.9251,,1364.699,5,85,1365.7003,1365.7003,1365.7039,,,,0,30,30,30,1,15,105,,,,,,,,
,,61634ea5478b2d1e072e8353,65af54d26c4c8a399abc6fde,2024-01-22_23h59.00.254,bars,2023.2.3,Win32,59.88023952,657b66ea316d21385b68909f,,,,,,,,,,,1365.7049,1366.7009,,,1367.2014,1367.4518,,142,-38,,,,,,,,,,,,,,,,bars/038.png,bars/mask005.png,,,,,,,,,,,,1,1,,,,,,,4,6,4,6,,,,,,,,,,,1366.7009,1367.2014,1367.4518,1371.4393,space,3.9801,,1371.4393,23,72,1372.44,1372.44,1372.4529,,,,0,31,31,31,1,165,70,,,,,,,,
,,61634ea5478b2d1e072e8353,65af54d26c4c8a399abc6fde,2024-01-22_23h59.00.254,bars,2023.2.3,Win32,59.88023952,657b66ea316d21385b68909f,,,,,,,,,,,1372.4531,1373.4444,,,1373.9417,1374.1917,,42,222,,,,,,,,,,,,,,,,bars/031.png,bars/mask001.png,,,,,,,,,,,,4,2,,,,,,,6,4,5,5,,,,,,,,,,,1373.4444,1373.9416,1374.1917,1376.9802,space,2.7819,,1376.9802,78,7,1377.9824,1377.9824,1377.9932,,,,0,32,32,32,1,120,35,,,,,,,,
,,61634ea5478b2d1e072e8353,65af54d26c4c8a399abc6fde,2024-01-22_23h59.00.254,bars,2023.2.3,Win32,59.88023952,657b66ea316d21385b68909f,,,,,,,,,,,1377.9934,1378.9964,,,1379.497,1379.7472,,8,8,,,,,,,,,,,,,,,,bars/012.png,bars/mask003.png,,,,,,,,,,,,6,2,,,,,,,8,6,9,8,,,,,,,,,,,1378.9965,1379.497,1379.7472,1383.2509,space,3.4878,,1383.251,82,7,1384.2516,1384.2517,1384.2626,,,,0,33,33,33,1,90,15,,,,,,,,
,,61634ea5478b2d1e072e8353,65af54d26c4c8a399abc6fde,2024-01-22_23h59.00.254,bars,2023.2.3,Win32,59.88023952,657b66ea316d21385b68909f,,,,,,,,,,,1384.2627,1385.2528,,,1385.7539,1386.0064,,25,205,,,,,,,,,,,,,,,,bars/036.png,bars/mask009.png,,,,,,,,,,,,6,2,,,,,,,6,8,6,7,,,,,,,,,,,1385.2529,1385.7538,1386.0064,1388.6061,space,2.5926,,1388.6062,60,5,1389.6099,1389.61,1389.6231,,,,0,34,34,34,1,145,20,,,,,,,,
,,61634ea5478b2d1e072e8353,65af54d26c4c8a399abc6fde,2024-01-22_23h59.00.254,bars,2023.2.3,Win32,59.88023952,657b66ea316d21385b68909f,,,,,,,,,,,1389.6242,1390.625,,,1391.1252,1391.3758,,0,180,,,,,,,,,,,,,,,,bars/045.png,bars/mask003.png,,,,,,,,,,,,7,2,,,,,,,4,10,5,10,,,,,,,,,,,1390.625,1391.1252,1391.3758,1393.1782,space,1.7822,,1393.1787,80,10,1394.1783,1394.1783,1394.1809,,,,0,35,35,35,1,100,10,,,,,,,,
,,61634ea5478b2d1e072e8353,65af54d26c4c8a399abc6fde,2024-01-22_23h59.00.254,bars,2023.2.3,Win32,59.88023952,657b66ea316d21385b68909f,,,,,,,,,,,1394.1812,1395.1796,,,1395.68,1395.933,,135,135,,,,,,,,,,,,,,,,bars/043.png,bars/mask004.png,,,,,,,,,,,,8,2,,,,,,,6,10,6,10,,,,,,,,,,,1395.1797,1395.68,1395.9331,1398.0824,space,2.1346,,1398.0824,75,5,1399.0834,1399.0834,1399.086,,,,0,36,36,36,1,30,130,,,,,,,,
,,61634ea5478b2d1e072e8353,65af54d26c4c8a399abc6fde,2024-01-22_23h59.00.254,bars,2023.2.3,Win32,59.88023952,657b66ea316d21385b68909f,,,,,,,,,,,1399.0862,1400.0844,,,1400.5847,1400.835,,1,1,,,,,,,,,,,,,,,,bars/045.png,bars/mask009.png,,,,,,,,,,,,5,2,,,,,,,8,8,8,7,,,,,,,,,,,1400.0844,1400.5847,1400.835,1404.205,space,3.3564,,1404.2051,81,9,1405.2058,1405.2059,1405.218,,,,0,37,37,37,1,100,10,,,,,,,,
,,61634ea5478b2d1e072e8353,65af54d26c4c8a399abc6fde,2024-01-22_23h59.00.254,bars,2023.2.3,Win32,59.88023952,657b66ea316d21385b68909f,,,,,,,,,,,1405.2182,1406.2073,,,1406.708,1406.9578,,49,49,,,,,,,,,,,,,,,,bars/029.png,bars/mask001.png,,,,,,,,,,,,9,2,,,,,,,10,10,10,10,,,,,,,,,,,1406.2073,1406.708,1406.9579,1409.0098,space,2.0432,,1409.0098,41,4,1410.0106,1410.0106,1410.0221,,,,0,38,38,38,1,90,45,,,,,,,,
,,61634ea5478b2d1e072e8353,65af54d26c4c8a399abc6fde,2024-01-22_23h59.00.254,bars,2023.2.3,Win32,59.88023952,657b66ea316d21385b68909f,,,,,,,,,,,1410.0223,1411.0117,,,1411.5122,1411.7624,,74,74,,,,,,,,,,,,,,,,bars/038.png,bars/mask000.png,,,,,,,,,,,,9,2,,,,,,,8,10,7,10,,,,,,,,,,,1411.0117,1411.5122,1411.7625,1414.4319,space,2.6632,,1414.4319,89,4,1415.4327,1415.4327,1415.4433,,,,0,39,39,39,1,165,70,,,,,,,,
,,61634ea5478b2d1e072e8353,65af54d26c4c8a399abc6fde,2024-01-22_23h59.00.254,bars,2023.2.3,Win32,59.88023952,657b66ea316d21385b68909f,,,,,,,,,,,1415.4434,1416.4341,,,1416.9343,1417.1845,,70,70,,,,,,,,,,,,,,,,bars/011.png,bars/mask005.png,,,,,,,,,,,,5,2,,,,,,,6,10,8,9,,,,,,,,,,,1416.4341,1416.9343,1417.1845,1420.2879,space,3.0902,,1420.2879,90,15,1421.2885,1421.2886,1421.2998,,,,0,40,40,40,1,160,85,,,,,,,,
,,61634ea5478b2d1e072e8353,65af54d26c4c8a399abc6fde,2024-01-22_23h59.00.254,bars,2023.2.3,Win32,59.88023952,657b66ea316d21385b68909f,,,,,,,,,,,1421.3,1422.2939,,,1422.7901,1423.0403,,179,-1,,,,,,,,,,,,,,,,bars/014.png,bars/mask007.png,,,,,,,,,,,,10,2,,,,,,,8,10,8,10,,,,,,,,,,,1422.2939,1422.79,1423.0403,1425.9934,space,2.9409,,1425.9935,81,1,1426.9944,1426.9944,1427.0045,,,,0,41,41,41,1,80,0,,,,,,,,
,,61634ea5478b2d1e072e8353,65af54d26c4c8a399abc6fde,2024-01-22_23h59.00.254,bars,2023.2.3,Win32,59.88023952,657b66ea316d21385b68909f,,,,,,,,,,,1427.0046,1427.9952,,,1428.4958,1428.7464,,52,52,,,,,,,,,,,,,,,,bars/047.png,bars/mask002.png,,,,,,,,,,,,3,2,,,,,,,6,8,4,7,,,,,,,,,,,1427.9953,1428.4958,1428.7464,1432.2498,space,3.4749,,1432.2499,37,18,1433.2505,1433.2506,1433.2615,,,,0,42,42,42,1,15,70,,,,,,,,
,,61634ea5478b2d1e072e8353,65af54d26c4c8a399abc6fde,2024-01-22_23h59.00.254,bars,2023.2.3,Win32,59.88023952,657b66ea316d21385b68909f,,,,,,,,,,,1433.2617,1434.2516,,,1434.7521,1435.0028,,113,113,,,,,,,,,,,,,,,,bars/019.png,bars/mask006.png,,,,,,,,,,,,5,2,,,,,,,8,6,10,7,,,,,,,,,,,1434.2517,1434.7521,1435.0028,1438.7394,space,3.7192,,1438.7394,68,8,1439.7403,1439.7403,1439.7526,,,,0,43,43,43,1,45,105,,,,,,,,
,,61634ea5478b2d1e072e8353,65af54d26c4c8a399abc6fde,2024-01-22_23h59.00.254,bars,2023.2.3,Win32,59.88023952,657b66ea316d21385b68909f,,,,,,,,,,,1439.7528,1440.7417,,,1441.2422,1441.4923,,137,137,,,,,,,,,,,,,,,,bars/005.png,bars/mask001.png,,,,,,,,,,,,3,2,,,,,,,10,4,10,3,,,,,,,,,,,1440.7417,1441.2421,1441.4923,1443.7946,space,2.2774,,1443.7946,53,3,1444.7956,1444.7958,1444.7982,,,,0,44,44,44,1,10,140,,,,,,,,
,,61634ea5478b2d1e072e8353,65af54d26c4c8a399abc6fde,2024-01-22_23h59.00.254,bars,2023.2.3,Win32,59.88023952,657b66ea316d21385b68909f,,,,,,,,,,,1444.7985,1445.7966,,,1446.2971,1446.5471,,151,151,,,,,,,,,,,,,,,,bars/003.png,bars/mask003.png,,,,,,,,,,,,1,2,,,,,,,10,2,10,1,,,,,,,,,,,1445.7966,1446.297,1446.5471,1450.3854,space,3.8281,,1450.3856,54,11,1451.3855,1451.3856,1451.3955,,,,0,45,45,45,1,25,140,,,,,,,,
,,61634ea5478b2d1e072e8353,65af54d26c4c8a399abc6fde,2024-01-22_23h59.00.254,bars,2023.2.3,Win32,59.88023952,657b66ea316d21385b68909f,,,,,,,,,,,1451.3957,1452.3894,,,1452.8874,1453.137,,68,248,,,,,,,,,,,,,,,,bars/021.png,bars/mask005.png,,,,,,,,,,,,0,2,,,,,,,8,0,10,0,,,,,,,,,,,1452.3894,1452.8873,1453.1371,1457.7086,space,4.5544,,1457.7086,87,2,1458.7097,1458.7098,1458.7198,,,,0,46,46,46,1,155,70,,,,,,,,
,,61634ea5478b2d1e072e8353,65af54d26c4c8a399abc6fde,2024-01-22_23h59.00.254,bars,2023.2.3,Win32,59.88023952,657b66ea316d21385b68909f,,,,,,,,,,,1458.72,1459.7104,,,1460.2112,1460.4613,,143,-37,,,,,,,,,,,,,,,,bars/021.png,bars/mask005.png,,,,,,,,,,,,6,1,,,,,,,10,0,10,0,,,,,,,,,,,1459.7105,1460.2111,1460.4613,1464.5654,space,4.0921,,1464.5654,12,73,1465.5662,1465.5663,1465.5843,,,,0,47,47,47,1,155,70,,,,,,,,
,,61634ea5478b2d1e072e8353,65af54d26c4c8a399abc6fde,2024-01-22_23h59.00.254,bars,2023.2.3,Win32,59.88023952,657b66ea316d21385b68909f,,,,,,,,,,,1465.5846,1466.5839,,,1467.0842,1467.3344,,158,158,,,,,,,,,,,,,,,,bars/018.png,bars/mask003.png,,,,,,,,,,,,7,1,,,,,,,10,0,10,0,,,,,,,,,,,1466.5839,1467.0842,1467.3345,1469.0029,space,1.6626,,1469.0029,8,68,1470.004,1470.004,1470.0151,,,,0,48,48,48,1,150,90,,,,,,,,
,,61634ea5478b2d1e072e8353,65af54d26c4c8a399abc6fde,2024-01-22_23h59.00.254,bars,2023.2.3,Win32,59.88023952,657b66ea316d21385b68909f,,,,,,,,,,,1470.0152,1471.005,,,1471.5055,1471.7556,,150,150,,,,,,,,,,,,,,,,bars/042.png,bars/mask004.png,,,,,,,,,,,,8,1,,,,,,,10,0,10,0,,,,,,,,,,,1471.0051,1471.5054,1471.7557,1473.1788,space,1.4035,,1473.1788,5,75,1474.1747,1474.1747,1474.1771,,,,0,49,49,49,1,145,75,,,,,,,,
,,61634ea5478b2d1e072e8353,65af54d26c4c8a399abc6fde,2024-01-22_23h59.00.254,bars,2023.2.3,Win32,59.88023952,657b66ea316d21385b68909f,,,,,,,,,,,,,,,,,,,,,,,,,,,,,,,,,,,,,,,,,,,,,,,,,,,,,,,,,,,,,,,,,,,,,,,,,,,,,,,,,,,,,,,,,,,,,1474.1772,1534.168,0,1,1,4,1,sequence_tables/blk018.csv
,,61634ea5478b2d1e072e8353,65af54d26c4c8a399abc6fde,2024-01-22_23h59.00.254,bars,2023.2.3,Win32,59.88023952,657b66ea316d21385b68909f,,,,,,,,,,,1719.8513,1720.8378,,,1721.3376,1721.5888,,136,-44,,,,,,,,,,,,,,,,bars/015.png,bars/mask001.png,,,,,,,,,,,,1,2,,,,,,,7,5,7,6,,,,,,1534.1838,1719.8364,space,185.6397,,1720.8379,1721.3376,1721.5894,1725.5256,space,3.9283,,1725.5257,26,24,1726.5261,1726.5261,1726.5372,,,,0,0,0,0,1,110,160,,,,,,,,
,,61634ea5478b2d1e072e8353,65af54d26c4c8a399abc6fde,2024-01-22_23h59.00.254,bars,2023.2.3,Win32,59.88023952,657b66ea316d21385b68909f,,,,,,,,,,,1726.5373,1727.5274,,,1728.0282,1728.2778,,143,143,,,,,,,,,,,,,,,,bars/000.png,bars/mask009.png,,,,,,,,,,,,2,2,,,,,,,9,3,10,2,,,,,,,,,,,1727.5275,1728.0281,1728.2779,1730.5136,space,2.2264,,1730.5136,77,2,1731.5147,1731.5148,1731.5174,,,,0,1,1,1,1,40,145,,,,,,,,
,,61634ea5478b2d1e072e8353,65af54d26c4c8a399abc6fde,2024-01-22_23h59.00.254,bars,2023.2.3,Win32,59.88023952,657b66ea316d21385b68909f,,,,,,,,,,,1731.5176,1732.5158,,,1733.0163,1733.2663,,20,200,,,,,,,,,,,,,,,,bars/043.png,bars/mask003.png,,,,,,,,,,,,4,1,,,,,,,7,1,6,2,,,,,,,,,,,1732.5158,1733.0163,1733.2663,1736.3696,space,3.0933,,1736.3696,10,70,1737.3705,1737.3705,1737.3814,,,,0,2,2,2,1,30,130,,,,,,,,
,,61634ea5478b2d1e072e8353,65af54d26c4c8a399abc6fde,2024-01-22_23h59.00.254,bars,2023.2.3,Win32,59.88023952,657b66ea316d21385b68909f,,,,,,,,,,,1737.3815,1738.3716,,,1738.8723,1739.1223,,146,-34,,,,,,,,,,,,,,,,bars/042.png,bars/mask001.png,,,,,,,,,,,,5,1,,,,,,,5,3,5,2,,,,,,,,,,,1738.3716,1738.8723,1739.1223,1742.7095,space,3.5588,,1742.7095,1,71,1743.7099,1743.7099,1743.7202,,,,0,3,3,3,1,145,75,,,,,,,,
,,61634ea5478b2d1e072e8353,65af54d26c4c8a399abc6fde,2024-01-22_23h59.00.254,bars,2023.2.3,Win32,59.88023952,657b66ea316d21385b68909f,,,,,,,,,,,1743.7204,1744.7111,,,1745.2143,1745.4621,,154,-26,,,,,,,,,,,,,,,,bars/042.png,bars/mask002.png,,,,,,,,,,,,4,1,,,,,,,7,1,6,2,,,,,,,,,,,1744.7111,1745.2143,1745.4621,1748.3314,space,2.8579,,1748.3314,9,79,1749.3324,1749.3325,1749.3432,,,,0,4,4,4,1,145,75,,,,,,,,
,,61634ea5478b2d1e072e8353,65af54d26c4c8a399abc6fde,2024-01-22_23h59.00.254,bars,2023.2.3,Win32,59.88023952,657b66ea316d21385b68909f,,,,,,,,,,,1749.3433,1750.3336,,,1750.8337,1751.0713,,47,47,,,,,,,,,,,,,,,,bars/029.png,bars/mask004.png,,,,,,,,,,,,0,2,,,,,,,5,0,5,0,,,,,,,,,,,1750.3337,1750.8337,1751.0713,1751.9353,space,0.855,,1751.9353,43,2,1752.9361,1752.9362,1752.9395,,,,0,5,5,5,1,90,45,,,,,,,,
,,61634ea5478b2d1e072e8353,65af54d26c4c8a399abc6fde,2024-01-22_23h59.00.254,bars,2023.2.3,Win32,59.88023952,657b66ea316d21385b68909f,,,,,,,,,,,1752.9398,1753.937,,,1754.4377,1754.6879,,87,87,,,,,,,,,,,,,,,,bars/045.png,bars/mask004.png,,,,,,,,,,,,5,1,,,,,,,7,2,8,3,,,,,,,,,,,1753.937,1754.4377,1754.688,1758.6118,space,3.9033,,1758.6118,13,77,1759.6095,1759.6096,1759.6221,,,,0,6,6,6,1,100,10,,,,,,,,
,,61634ea5478b2d1e072e8353,65af54d26c4c8a399abc6fde,2024-01-22_23h59.00.254,bars,2023.2.3,Win32,59.88023952,657b66ea316d21385b68909f,,,,,,,,,,,1759.6224,1760.6104,,,1761.1106,1761.3613,,53,233,,,,,,,,,,,,,,,,bars/044.png,bars/mask000.png,,,,,,,,,,,,3,1,,,,,,,9,0,10,1,,,,,,,,,,,1760.6104,1761.1106,1761.3613,1764.9649,space,3.5896,,1764.9649,22,78,1765.9654,1765.9654,1765.9758,,,,0,7,7,7,1,75,155,,,,,,,,
,,61634ea5478b2d1e072e8353,65af54d26c4c8a399abc6fde,2024-01-22_23h59.00.254,bars,2023.2.3,Win32,59.88023952,657b66ea316d21385b68909f,,,,,,,,,,,1765.976,1766.9664,,,1767.4672,1767.7176,,93,93,,,,,,,,,,,,,,,,bars/012.png,bars/mask009.png,,,,,,,,,,,,5,1,,,,,,,7,0,6,0,,,,,,,,,,,1766.9664,1767.4672,1767.7176,1771.5048,space,3.7722,,1771.5048,3,78,1772.5054,1772.5055,1772.5167,,,,0,8,8,8,1,90,15,,,,,,,,
,,61634ea5478b2d1e072e8353,65af54d26c4c8a399abc6fde,2024-01-22_23h59.00.254,bars,2023.2.3,Win32,59.88023952,657b66ea316d21385b68909f,,,,,,,,,,,1772.5171,1773.5063,,,1774.0071,1774.2573,,72,72,,,,,,,,,,,,,,,,bars/029.png,bars/mask004.png,,,,,,,,,,,,2,1,,,,,,,5,2,4,1,,,,,,,,,,,1773.5064,1774.0071,1774.2573,1775.7422,space,1.472,,1775.7422,18,27,1776.7428,1776.7429,1776.7452,,,,0,9,9,9,1,90,45,,,,,,,,
,,61634ea5478b2d1e072e8353,65af54d26c4c8a399abc6fde,2024-01-22_23h59.00.254,bars,2023.2.3,Win32,59.88023952,657b66ea316d21385b68909f,,,,,,,,,,,1776.7454,1777.7438,,,1778.2446,1778.4949,,132,132,,,,,,,,,,,,,,,,bars/037.png,bars/mask001.png,,,,,,,,,,,,2,1,,,,,,,3,0,4,0,,,,,,,,,,,1777.7439,1778.2446,1778.4949,1779.3789,space,0.87,,1779.379,18,27,1780.38,1780.3801,1780.3825,,,,0,10,10,10,1,150,105,,,,,,,,
,,61634ea5478b2d1e072e8353,65af54d26c4c8a399abc6fde,2024-01-22_23h59.00.254,bars,2023.2.3,Win32,59.88023952,657b66ea316d21385b68909f,,,,,,,,,,,1780.3828,1781.3814,,,1781.8817,1782.1315,,79,79,,,,,,,,,,,,,,,,bars/041.png,bars/mask003.png,,,,,,,,,,,,0,2,,,,,,,1,0,1,0,,,,,,,,,,,1781.3814,1781.8816,1782.1315,1785.6048,space,3.4586,,1785.6048,59,6,1786.6038,1786.6044,1786.6181,,,,0,11,11,11,1,20,85,,,,,,,,
,,61634ea5478b2d1e072e8353,65af54d26c4c8a399abc6fde,2024-01-22_23h59.00.254,bars,2023.2.3,Win32,59.88023952,657b66ea316d21385b68909f,,,,,,,,,,,1786.6182,1787.6075,,,1788.1043,1788.3544,,59,59,,,,,,,,,,,,,,,,bars/027.png,bars/mask001.png,,,,,,,,,,,,0,2,,,,,,,3,0,3,0,,,,,,,,,,,1787.6075,1788.1043,1788.3544,1792.1085,space,3.7387,,1792.1086,51,9,1793.1094,1793.1094,1793.1197,,,,0,12,12,12,1,110,50,,,,,,,,
,,61634ea5478b2d1e072e8353,65af54d26c4c8a399abc6fde,2024-01-22_23h59.00.254,bars,2023.2.3,Win32,59.88023952,657b66ea316d21385b68909f,,,,,,,,,,,1793.12,1794.1101,,,1794.6109,1794.8608,,95,95,,,,,,,,,,,,,,,,bars/008.png,bars/mask007.png,,,,,,,,,,,,2,1,,,,,,,5,0,4,0,,,,,,,,,,,1794.1101,1794.6108,1794.8608,1797.5637,space,2.6955,,1797.5638,15,85,1798.5647,1798.5648,1798.5759,,,,0,13,13,13,1,110,0,,,,,,,,
,,61634ea5478b2d1e072e8353,65af54d26c4c8a399abc6fde,2024-01-22_23h59.00.254,bars,2023.2.3,Win32,59.88023952,657b66ea316d21385b68909f,,,,,,,,,,,1798.576,1799.5659,,,1800.0666,1800.3165,,20,20,,,,,,,,,,,,,,,,bars/003.png,bars/mask001.png,,,,,,,,,,,,3,1,,,,,,,3,0,3,2,,,,,,,,,,,1799.566,1800.0665,1800.3165,1802.0347,space,1.6961,,1802.0348,5,60,1803.036,1803.0361,1803.0388,,,,0,14,14,14,1,25,140,,,,,,,,
,,61634ea5478b2d1e072e8353,65af54d26c4c8a399abc6fde,2024-01-22_23h59.00.254,bars,2023.2.3,Win32,59.88023952,657b66ea316d21385b68909f,,,,,,,,,,,1803.039,1804.037,,,1804.5374,1804.7876,,154,-26,,,,,,,,,,,,,,,,bars/007.png,bars/mask004.png,,,,,,,,,,,,1,1,,,,,,,5,2,4,3,,,,,,,,,,,1804.037,1804.5373,1804.7876,1806.5936,space,1.7982,,1806.5936,21,81,1807.593,1807.593,1807.5937,,,,0,15,15,15,1,175,55,,,,,,,,
,,61634ea5478b2d1e072e8353,65af54d26c4c8a399abc6fde,2024-01-22_23h59.00.254,bars,2023.2.3,Win32,59.88023952,657b66ea316d21385b68909f,,,,,,,,,,,1807.5942,1808.5914,,,1809.092,1809.3423,,154,-26,,,,,,,,,,,,,,,,bars/049.png,bars/mask008.png,,,,,,,,,,,,6,1,,,,,,,7,4,8,3,,,,,,,,,,,1808.5914,1809.0919,1809.3423,1812.0952,space,2.7315,,1812.0953,6,39,1813.0959,1813.0959,1813.1059,,,,0,16,16,16,1,160,115,,,,,,,,
,,61634ea5478b2d1e072e8353,65af54d26c4c8a399abc6fde,2024-01-22_23h59.00.254,bars,2023.2.3,Win32,59.88023952,657b66ea316d21385b68909f,,,,,,,,,,,1813.106,1814.0973,,,1814.602,1814.8476,,149,149,,,,,,,,,,,,,,,,bars/021.png,bars/mask002.png,,,,,,,,,,,,7,1,,,,,,,9,2,9,3,,,,,,,,,,,1814.0973,1814.602,1814.8476,1818.9685,space,4.1151,,1818.9685,6,79,1819.9695,1819.9696,1819.9799,,,,0,17,17,17,1,155,70,,,,,,,,
,,61634ea5478b2d1e072e8353,65af54d26c4c8a399abc6fde,2024-01-22_23h59.00.254,bars,2023.2.3,Win32,59.88023952,657b66ea316d21385b68909f,,,,,,,,,,,1819.98,1820.9703,,,1821.4709,1821.7211,,154,-26,,,,,,,,,,,,,,,,bars/021.png,bars/mask009.png,,,,,,,,,,,,10,1,,,,,,,10,0,10,1,,,,,,,,,,,1820.9704,1821.4709,1821.7211,1824.107,space,2.3549,,1824.107,1,84,1825.1107,1825.1107,1825.1195,,,,0,18,18,18,1,155,70,,,,,,,,
,,61634ea5478b2d1e072e8353,65af54d26c4c8a399abc6fde,2024-01-22_23h59.00.254,bars,2023.2.3,Win32,59.88023952,657b66ea316d21385b68909f,,,,,,,,,,,1825.1196,1826.1116,,,1826.6094,1826.8599,,19,19,,,,,,,,,,,,,,,,bars/023.png,bars/mask006.png,,,,,,,,,,,,7,1,,,,,,,10,0,7,0,,,,,,,,,,,1826.1116,1826.6093,1826.8599,1827.6937,space,0.8146,,1827.6937,1,84,1828.6948,1828.6949,1828.6977,,,,0,19,19,19,1,20,115,,,,,,,,
,,61634ea5478b2d1e072e8353,65af54d26c4c8a399abc6fde,2024-01-22_23h59.00.254,bars,2023.2.3,Win32,59.88023952,657b66ea316d21385b68909f,,,,,,,,,,,1828.698,1829.6957,,,1830.1961,1830.4469,,139,-41,,,,,,,,,,,,,,,,bars/030.png,bars/mask000.png,,,,,,,,,,,,7,1,,,,,,,8,2,7,3,,,,,,,,,,,1829.6957,1830.1961,1830.4469,1832.9657,space,2.5014,,1832.9657,1,74,1833.9667,1833.9667,1833.9691,,,,0,20,20,20,1,140,65,,,,,,,,
,,61634ea5478b2d1e072e8353,65af54d26c4c8a399abc6fde,2024-01-22_23h59.00.254,bars,2023.2.3,Win32,59.88023952,657b66ea316d21385b68909f,,,,,,,,,,,1833.9694,1834.9675,,,1835.4682,1835.7183,,44,44,,,,,,,,,,,,,,,,bars/026.png,bars/mask004.png,,,,,,,,,,,,7,1,,,,,,,10,4,10,4,,,,,,,,,,,1834.9675,1835.4681,1835.7184,1837.9543,space,2.2203,,1837.9549,9,41,1838.9549,1838.9549,1838.9737,,,,0,21,21,21,1,35,85,,,,,,,,
,,61634ea5478b2d1e072e8353,65af54d26c4c8a399abc6fde,2024-01-22_23h59.00.254,bars,2023.2.3,Win32,59.88023952,657b66ea316d21385b68909f,,,,,,,,,,,1838.9742,1839.9725,,,1840.4731,1840.7234,,81,81,,,,,,,,,,,,,,,,bars/012.png,bars/mask009.png,,,,,,,,,,,,5,1,,,,,,,8,2,7,2,,,,,,,,,,,1839.9725,1840.473,1840.7234,1843.1925,space,2.4433,,1843.1926,9,66,1844.1934,1844.1934,1844.2042,,,,0,22,22,22,1,90,15,,,,,,,,
,,61634ea5478b2d1e072e8353,65af54d26c4c8a399abc6fde,2024-01-22_23h59.00.254,bars,2023.2.3,Win32,59.88023952,657b66ea316d21385b68909f,,,,,,,,,,,1844.2044,1845.1947,,,1845.6952,1845.9451,,147,147,,,,,,,,,,,,,,,,bars/011.png,bars/mask008.png,,,,,,,,,,,,5,1,,,,,,,10,0,9,0,,,,,,,,,,,1845.1948,1845.6952,1845.9451,1847.6138,space,1.6618,,1847.6139,13,62,1848.6146,1848.6146,1848.6276,,,,0,23,23,23,1,160,85,,,,,,,,
,,61634ea5478b2d1e072e8353,65af54d26c4c8a399abc6fde,2024-01-22_23h59.00.254,bars,2023.2.3,Win32,59.88023952,657b66ea316d21385b68909f,,,,,,,,,,,1848.6278,1849.6157,,,1850.116,1850.3662,,167,-13,,,,,,,,,,,,,,,,bars/010.png,bars/mask002.png,,,,,,,,,,,,9,1,,,,,,,10,0,10,0,,,,,,,,,,,1849.6157,1850.1159,1850.3662,1853.5743,space,3.1885,,1853.5743,2,68,1854.5703,1854.5704,1854.5817,,,,0,24,24,24,1,165,55,,,,,,,,
,,61634ea5478b2d1e072e8353,65af54d26c4c8a399abc6fde,2024-01-22_23h59.00.254,bars,2023.2.3,Win32,59.88023952,657b66ea316d21385b68909f,,,,,,,,,,,1854.5818,1855.5716,,,1856.0718,1856.3223,,104,104,,,,,,,,,,,,,,,,bars/008.png,bars/mask006.png,,,,,,,,,,,,6,1,,,,,,,8,0,8,2,,,,,,,,,,,1855.5716,1856.0718,1856.3223,1858.0742,space,1.7193,,1858.0743,6,76,1859.0749,1859.0749,1859.0775,,,,0,25,25,25,1,110,0,,,,,,,,
,,61634ea5478b2d1e072e8353,65af54d26c4c8a399abc6fde,2024-01-22_23h59.00.254,bars,2023.2.3,Win32,59.88023952,657b66ea316d21385b68909f,,,,,,,,,,,1859.0777,1860.076,,,1860.5765,1860.8269,,39,219,,,,,,,,,,,,,,,,bars/006.png,bars/mask008.png,,,,,,,,,,,,9,1,,,,,,,10,0,10,2,,,,,,,,,,,1860.076,1860.5765,1860.8269,1864.8141,space,3.9724,,1864.8142,4,61,1865.815,1865.815,1865.8287,,,,0,26,26,26,1,35,100,,,,,,,,
,,61634ea5478b2d1e072e8353,65af54d26c4c8a399abc6fde,2024-01-22_23h59.00.254,bars,2023.2.3,Win32,59.88023952,657b66ea316d21385b68909f,,,,,,,,,,,1865.8291,1866.8328,,,1867.3332,1867.5836,,25,205,,,,,,,,,,,,,,,,bars/003.png,bars/mask000.png,,,,,,,,,,,,6,1,,,,,,,8,2,6,2,,,,,,,,,,,1866.8328,1867.3332,1867.5836,1873.8397,space,6.2297,,1873.8398,0,65,1874.8415,1874.8415,1874.8614,,,,0,27,27,27,1,25,140,,,,,,,,
,,61634ea5478b2d1e072e8353,65af54d26c4c8a399abc6fde,2024-01-22_23h59.00.254,bars,2023.2.3,Win32,59.88023952,657b66ea316d21385b68909f,,,,,,,,,,,1874.8617,1875.8584,,,1876.3616,1876.6091,,129,-51,,,,,,,,,,,,,,,,bars/001.png,bars/mask003.png,,,,,,,,,,,,6,1,,,,,,,6,4,6,4,,,,,,,,,,,1875.8585,1876.3616,1876.6091,1880.6474,space,4.0096,,1880.6481,1,44,1881.6477,1881.6477,1881.6576,,,,0,28,28,28,1,130,85,,,,,,,,
,,61634ea5478b2d1e072e8353,65af54d26c4c8a399abc6fde,2024-01-22_23h59.00.254,bars,2023.2.3,Win32,59.88023952,657b66ea316d21385b68909f,,,,,,,,,,,1881.6578,1882.6488,,,1883.1524,1883.3991,,104,-76,,,,,,,,,,,,,,,,bars/025.png,bars/mask007.png,,,,,,,,,,,,5,1,,,,,,,4,6,5,7,,,,,,,,,,,1882.6488,1883.1524,1883.3992,1887.2039,space,3.7944,,1887.2042,1,64,1888.2039,1888.2039,1888.2148,,,,0,29,29,29,1,105,40,,,,,,,,
,,61634ea5478b2d1e072e8353,65af54d26c4c8a399abc6fde,2024-01-22_23h59.00.254,bars,2023.2.3,Win32,59.88023952,657b66ea316d21385b68909f,,,,,,,,,,,1888.215,1889.2049,,,1889.7055,1889.9557,,44,44,,,,,,,,,,,,,,,,bars/028.png,bars/mask002.png,,,,,,,,,,,,7,1,,,,,,,6,8,7,8,,,,,,,,,,,1889.2049,1889.7055,1889.9558,1911.0271,space,21.0617,,1911.0272,1,76,1912.028,1912.028,1912.0386,,,,0,30,30,30,1,45,120,,,,,,,,
,,61634ea5478b2d1e072e8353,65af54d26c4c8a399abc6fde,2024-01-22_23h59.00.254,bars,2023.2.3,Win32,59.88023952,657b66ea316d21385b68909f,,,,,,,,,,,1912.0387,1913.0286,,,1913.5293,1913.7798,,43,43,,,,,,,,,,,,,,,,bars/019.png,bars/mask009.png,,,,,,,,,,,,7,1,,,,,,,8,6,7,6,,,,,,,,,,,1913.0287,1913.5292,1913.7799,1916.8326,space,3.0412,,1916.8327,2,62,1917.8334,1917.8335,1917.8451,,,,0,31,31,31,1,45,105,,,,,,,,
,,61634ea5478b2d1e072e8353,65af54d26c4c8a399abc6fde,2024-01-22_23h59.00.254,bars,2023.2.3,Win32,59.88023952,657b66ea316d21385b68909f,,,,,,,,,,,1917.8453,1918.8346,,,1919.3353,1919.5851,,71,71,,,,,,,,,,,,,,,,bars/014.png,bars/mask005.png,,,,,,,,,,,,5,1,,,,,,,6,4,7,3,,,,,,,,,,,1918.8346,1919.3353,1919.5852,1920.6704,space,1.0768,,1920.6706,9,71,1921.671,1921.671,1921.6718,,,,0,32,32,32,1,80,0,,,,,,,,
,,61634ea5478b2d1e072e8353,65af54d26c4c8a399abc6fde,2024-01-22_23h59.00.254,bars,2023.2.3,Win32,59.88023952,657b66ea316d21385b68909f,,,,,,,,,,,1921.672,1922.6717,,,1923.1725,1923.4231,,69,69,,,,,,,,,,,,,,,,bars/029.png,bars/mask005.png,,,,,,,,,,,,2,1,,,,,,,8,6,8,4,,,,,,,,,,,1922.6718,1923.1724,1923.4232,1926.0755,space,2.6334,,1926.0756,21,24,1927.0761,1927.0763,1927.0865,,,,0,33,33,33,1,90,45,,,,,,,,
,,61634ea5478b2d1e072e8353,65af54d26c4c8a399abc6fde,2024-01-22_23h59.00.254,bars,2023.2.3,Win32,59.88023952,657b66ea316d21385b68909f,,,,,,,,,,,1927.0867,1928.0774,,,1928.5775,1928.8278,,151,151,,,,,,,,,,,,,,,,bars/040.png,bars/mask003.png,,,,,,,,,,,,6,1,,,,,,,10,8,10,7,,,,,,,,,,,1928.0774,1928.5775,1928.8278,1931.2637,space,2.4187,,1931.2637,11,34,1932.2646,1932.2646,1932.2803,,,,0,34,34,34,1,140,5,,,,,,,,
,,61634ea5478b2d1e072e8353,65af54d26c4c8a399abc6fde,2024-01-22_23h59.00.254,bars,2023.2.3,Win32,59.88023952,657b66ea316d21385b68909f,,,,,,,,,,,1932.2806,1933.2821,,,1933.7829,1934.033,,145,-35,,,,,,,,,,,,,,,,bars/042.png,bars/mask003.png,,,,,,,,,,,,6,1,,,,,,,8,10,6,10,,,,,,,,,,,1933.2821,1933.7829,1934.0331,1936.8699,space,2.8278,,1936.87,0,70,1937.8706,1937.8706,1937.8832,,,,0,35,35,35,1,145,75,,,,,,,,
,,61634ea5478b2d1e072e8353,65af54d26c4c8a399abc6fde,2024-01-22_23h59.00.254,bars,2023.2.3,Win32,59.88023952,657b66ea316d21385b68909f,,,,,,,,,,,1937.8833,1938.8717,,,1939.3717,1939.6224,,147,147,,,,,,,,,,,,,,,,bars/036.png,bars/mask009.png,,,,,,,,,,,,7,1,,,,,,,6,8,7,8,,,,,,,,,,,1938.8718,1939.3717,1939.6224,1944.3935,space,4.7507,,1944.3935,2,53,1945.3945,1945.3946,1945.4054,,,,0,36,36,36,1,145,20,,,,,,,,
,,61634ea5478b2d1e072e8353,65af54d26c4c8a399abc6fde,2024-01-22_23h59.00.254,bars,2023.2.3,Win32,59.88023952,657b66ea316d21385b68909f,,,,,,,,,,,1945.4056,1946.3958,,,1946.8962,1947.146,,66,66,,,,,,,,,,,,,,,,bars/044.png,bars/mask001.png,,,,,,,,,,,,3,1,,,,,,,4,6,4,6,,,,,,,,,,,1946.3959,1946.8962,1947.146,1951.1175,space,3.9606,,1951.1176,9,89,1952.1179,1952.118,1952.1283,,,,0,37,37,37,1,75,155,,,,,,,,
,,61634ea5478b2d1e072e8353,65af54d26c4c8a399abc6fde,2024-01-22_23h59.00.254,bars,2023.2.3,Win32,59.88023952,657b66ea316d21385b68909f,,,,,,,,,,,1952.1284,1953.1189,,,1953.6192,1953.8693,,177,177,,,,,,,,,,,,,,,,bars/014.png,bars/mask002.png,,,,,,,,,,,,4,2,,,,,,,6,4,6,4,,,,,,,,,,,1953.1189,1953.6192,1953.8694,1958.9247,space,5.0442,,1958.9249,83,3,1959.9253,1959.9254,1959.9396,,,,0,38,38,38,1,80,0,,,,,,,,
,,61634ea5478b2d1e072e8353,65af54d26c4c8a399abc6fde,2024-01-22_23h59.00.254,bars,2023.2.3,Win32,59.88023952,657b66ea316d21385b68909f,,,,,,,,,,,1959.9399,1960.9433,,,1961.444,1961.6942,,159,-21,,,,,,,,,,,,,,,,bars/048.png,bars/mask002.png,,,,,,,,,,,,3,2,,,,,,,8,6,7,6,,,,,,,,,,,1960.9434,1961.4439,1961.6942,1964.2305,space,2.5307,,1964.2305,71,16,1965.231,1965.231,1965.2416,,,,0,39,39,39,1,50,175,,,,,,,,
,,61634ea5478b2d1e072e8353,65af54d26c4c8a399abc6fde,2024-01-22_23h59.00.254,bars,2023.2.3,Win32,59.88023952,657b66ea316d21385b68909f,,,,,,,,,,,1965.2418,1966.2317,,,1966.7329,1966.9833,,139,-41,,,,,,,,,,,,,,,,bars/040.png,bars/mask008.png,,,,,,,,,,,,9,1,,,,,,,10,4,9,3,,,,,,,,,,,1966.2317,1966.7329,1966.9833,1970.353,space,3.3538,,1970.3531,1,46,1971.3539,1971.3539,1971.3648,,,,0,40,40,40,1,140,5,,,,,,,,
,,61634ea5478b2d1e072e8353,65af54d26c4c8a399abc6fde,2024-01-22_23h59.00.254,bars,2023.2.3,Win32,59.88023952,657b66ea316d21385b68909f,,,,,,,,,,,1971.3651,1972.3549,,,1972.8551,1973.1056,,128,128,,,,,,,,,,,,,,,,bars/027.png,bars/mask006.png,,,,,,,,,,,,4,1,,,,,,,8,2,9,0,,,,,,,,,,,1972.355,1972.855,1973.1056,1977.577,space,4.4604,,1977.5771,18,78,1978.5777,1978.5777,1978.5878,,,,0,41,41,41,1,110,50,,,,,,,,
,,61634ea5478b2d1e072e8353,65af54d26c4c8a399abc6fde,2024-01-22_23h59.00.254,bars,2023.2.3,Win32,59.88023952,657b66ea316d21385b68909f,,,,,,,,,,,1978.588,1979.5783,,,1980.0789,1980.3294,,116,116,,,,,,,,,,,,,,,,bars/025.png,bars/mask009.png,,,,,,,,,,,,6,1,,,,,,,10,0,10,0,,,,,,,,,,,1979.5784,1980.0788,1980.3295,1982.7152,space,2.3695,,1982.7154,11,76,1983.7161,1983.7165,1983.7272,,,,0,42,42,42,1,105,40,,,,,,,,
,,61634ea5478b2d1e072e8353,65af54d26c4c8a399abc6fde,2024-01-22_23h59.00.254,bars,2023.2.3,Win32,59.88023952,657b66ea316d21385b68909f,,,,,,,,,,,1983.7274,1984.7171,,,1985.2174,1985.4677,,165,-15,,,,,,,,,,,,,,,,bars/017.png,bars/mask006.png,,,,,,,,,,,,3,1,,,,,,,8,2,8,2,,,,,,,,,,,1984.7171,1985.2173,1985.4677,1987.9868,space,2.5106,,1987.9868,20,60,1988.9879,1988.988,1988.9997,,,,0,43,43,43,1,145,45,,,,,,,,
,,61634ea5478b2d1e072e8353,65af54d26c4c8a399abc6fde,2024-01-22_23h59.00.254,bars,2023.2.3,Win32,59.88023952,657b66ea316d21385b68909f,,,,,,,,,,,1989,1989.9888,,,1990.4896,1990.74,,68,68,,,,,,,,,,,,,,,,bars/029.png,bars/mask000.png,,,,,,,,,,,,3,1,,,,,,,10,0,10,1,,,,,,,,,,,1989.9889,1990.4894,1990.74,1993.1253,space,2.3778,,1993.1256,22,23,1994.1265,1994.1265,1994.1361,,,,0,44,44,44,1,90,45,,,,,,,,
,,61634ea5478b2d1e072e8353,65af54d26c4c8a399abc6fde,2024-01-22_23h59.00.254,bars,2023.2.3,Win32,59.88023952,657b66ea316d21385b68909f,,,,,,,,,,,1994.1364,1995.1272,,,1995.6279,1995.8779,,60,60,,,,,,,,,,,,,,,,bars/034.png,bars/mask000.png,,,,,,,,,,,,0,2,,,,,,,8,0,8,0,,,,,,,,,,,1995.1272,1995.6279,1995.8779,1997.5631,space,1.674,,1997.5631,65,5,1998.5642,1998.5642,1998.575,,,,0,45,45,45,1,125,65,,,,,,,,
,,61634ea5478b2d1e072e8353,65af54d26c4c8a399abc6fde,2024-01-22_23h59.00.254,bars,2023.2.3,Win32,59.88023952,657b66ea316d21385b68909f,,,,,,,,,,,1998.5751,1999.5651,,,2000.0656,2000.3157,,19,19,,,,,,,,,,,,,,,,bars/012.png,bars/mask001.png,,,,,,,,,,,,3,2,,,,,,,10,2,10,3,,,,,,,,,,,1999.5652,2000.0656,2000.3157,2001.7341,space,1.4034,,2001.7343,71,4,2002.7352,2002.7352,2002.7452,,,,0,46,46,46,1,90,15,,,,,,,,
,,61634ea5478b2d1e072e8353,65af54d26c4c8a399abc6fde,2024-01-22_23h59.00.254,bars,2023.2.3,Win32,59.88023952,657b66ea316d21385b68909f,,,,,,,,,,,2002.7454,2003.7357,,,2004.2367,2004.4868,,148,148,,,,,,,,,,,,,,,,bars/049.png,bars/mask006.png,,,,,,,,,,,,5,1,,,,,,,8,0,8,0,,,,,,,,,,,2003.7357,2004.2366,2004.4868,2007.5405,space,3.0368,,2007.5405,12,33,2008.5408,2008.5408,2008.5521,,,,0,47,47,47,1,160,115,,,,,,,,
,,61634ea5478b2d1e072e8353,65af54d26c4c8a399abc6fde,2024-01-22_23h59.00.254,bars,2023.2.3,Win32,59.88023952,657b66ea316d21385b68909f,,,,,,,,,,,2008.5523,2009.5416,,,2010.0422,2010.2926,,108,108,,,,,,,,,,,,,,,,bars/045.png,bars/mask001.png,,,,,,,,,,,,4,1,,,,,,,6,2,5,5,,,,,,,,,,,2009.5416,2010.0421,2010.2927,2013.3289,space,3.029,,2013.3289,8,82,2014.3295,2014.3296,2014.3412,,,,0,48,48,48,1,100,10,,,,,,,,
,,61634ea5478b2d1e072e8353,65af54d26c4c8a399abc6fde,2024-01-22_23h59.00.254,bars,2023.2.3,Win32,59.88023952,657b66ea316d21385b68909f,,,,,,,,,,,2014.3413,2015.3306,,,2015.8312,2016.0815,,52,232,,,,,,,,,,,,,,,,bars/047.png,bars/mask006.png,,,,,,,,,,,,2,2,,,,,,,8,4,8,4,,,,,,,,,,,2015.3307,2015.831,2016.0815,2019.5018,space,3.4044,,2019.5018,37,18,2020.5026,2020.5026,2020.5189,,,,0,49,49,49,1,15,70,,,,,,,,
,,61634ea5478b2d1e072e8353,65af54d26c4c8a399abc6fde,2024-01-22_23h59.00.254,bars,2023.2.3,Win32,59.88023952,657b66ea316d21385b68909f,,,,,,,,,,,,,,,,,,,,,,,,,,,,,,,,,,,,,,,,,,,,,,,,,,,,,,,,,,,,,,,,,,,,,,,,,,,,,,,,,,,,,,,,,,,,,2020.5192,2080.5127,0,2,2,3,1,sequence_tables/blk004.csv
,,61634ea5478b2d1e072e8353,65af54d26c4c8a399abc6fde,2024-01-22_23h59.00.254,bars,2023.2.3,Win32,59.88023952,657b66ea316d21385b68909f,,,,,,,,,,,2112.6087,2113.5957,,,2114.0966,2114.3466,,25,205,,,,,,,,,,,,,,,,bars/008.png,bars/mask004.png,,,,,,,,,,,,1,2,,,,,,,2,8,2,9,,,,,,2080.5301,2112.5943,space,32.0507,,2113.5962,2114.0965,2114.3466,2119.0843,space,4.7287,,2119.0844,85,25,2120.0849,2120.085,2120.0957,,,,0,0,0,0,1,110,0,,,,,,,,
,,61634ea5478b2d1e072e8353,65af54d26c4c8a399abc6fde,2024-01-22_23h59.00.254,bars,2023.2.3,Win32,59.88023952,657b66ea316d21385b68909f,,,,,,,,,,,2120.0961,2121.0863,,,2121.5865,2121.8368,,141,141,,,,,,,,,,,,,,,,bars/031.png,bars/mask006.png,,,,,,,,,,,,2,1,,,,,,,4,10,5,10,,,,,,,,,,,2121.0863,2121.5865,2121.8368,2125.174,space,3.3184,,2125.1741,21,74,2126.1747,2126.1748,2126.1855,,,,0,1,1,1,1,120,35,,,,,,,,
,,61634ea5478b2d1e072e8353,65af54d26c4c8a399abc6fde,2024-01-22_23h59.00.254,bars,2023.2.3,Win32,59.88023952,657b66ea316d21385b68909f,,,,,,,,,,,2126.1857,2127.1753,,,2127.6763,2127.9269,,86,86,,,,,,,,,,,,,,,,bars/011.png,bars/mask003.png,,,,,,,,,,,,7,2,,,,,,,6,8,7,7,,,,,,,,,,,2127.1754,2127.6763,2127.927,2131.3469,space,3.4007,,2131.347,74,1,2132.3475,2132.3476,2132.3586,,,,0,2,2,2,1,160,85,,,,,,,,
,,61634ea5478b2d1e072e8353,65af54d26c4c8a399abc6fde,2024-01-22_23h59.00.254,bars,2023.2.3,Win32,59.88023952,657b66ea316d21385b68909f,,,,,,,,,,,2132.3588,2133.3484,,,2133.8489,2134.0992,,106,106,,,,,,,,,,,,,,,,bars/006.png,bars/mask001.png,,,,,,,,,,,,7,2,,,,,,,8,10,7,9,,,,,,,,,,,2133.3485,2133.8489,2134.0994,2136.4014,space,2.2903,,2136.4015,71,6,2137.4024,2137.4024,2137.4184,,,,0,3,3,3,1,35,100,,,,,,,,
,,61634ea5478b2d1e072e8353,65af54d26c4c8a399abc6fde,2024-01-22_23h59.00.254,bars,2023.2.3,Win32,59.88023952,657b66ea316d21385b68909f,,,,,,,,,,,2137.4192,2138.42,,,2138.9206,2139.1706,,130,130,,,,,,,,,,,,,,,,bars/043.png,bars/mask005.png,,,,,,,,,,,,7,2,,,,,,,10,8,10,7,,,,,,,,,,,2138.42,2138.9205,2139.1707,2140.6723,space,1.489,,2140.6724,80,0,2141.6732,2141.6732,2141.6739,,,,0,4,4,4,1,30,130,,,,,,,,
,,61634ea5478b2d1e072e8353,65af54d26c4c8a399abc6fde,2024-01-22_23h59.00.254,bars,2023.2.3,Win32,59.88023952,657b66ea316d21385b68909f,,,,,,,,,,,2141.6741,2142.6742,,,2143.1753,2143.4253,,101,101,,,,,,,,,,,,,,,,bars/019.png,bars/mask006.png,,,,,,,,,,,,4,2,,,,,,,8,6,9,5,,,,,,,,,,,2142.6743,2143.1752,2143.4253,2144.1597,space,0.7177,,2144.1597,56,4,2145.16,2145.16,2145.1608,,,,0,5,5,5,1,45,105,,,,,,,,
,,61634ea5478b2d1e072e8353,65af54d26c4c8a399abc6fde,2024-01-22_23h59.00.254,bars,2023.2.3,Win32,59.88023952,657b66ea316d21385b68909f,,,,,,,,,,,2145.161,2146.161,,,2146.6622,2146.9123,,46,226,,,,,,,,,,,,,,,,bars/007.png,bars/mask009.png,,,,,,,,,,,,4,2,,,,,,,6,4,5,5,,,,,,,,,,,2146.161,2146.6622,2146.9123,2149.6983,space,2.7703,,2149.6983,51,9,2150.6991,2150.6992,2150.7097,,,,0,6,6,6,1,175,55,,,,,,,,
,,61634ea5478b2d1e072e8353,65af54d26c4c8a399abc6fde,2024-01-22_23h59.00.254,bars,2023.2.3,Win32,59.88023952,657b66ea316d21385b68909f,,,,,,,,,,,2150.7098,2151.6998,,,2152.2007,2152.4506,,115,115,,,,,,,,,,,,,,,,bars/006.png,bars/mask006.png,,,,,,,,,,,,1,2,,,,,,,8,2,7,1,,,,,,,,,,,2151.6998,2152.2006,2152.4506,2155.571,space,3.1035,,2155.571,80,15,2156.5717,2156.5719,2156.5828,,,,0,7,7,7,1,35,100,,,,,,,,
,,61634ea5478b2d1e072e8353,65af54d26c4c8a399abc6fde,2024-01-22_23h59.00.254,bars,2023.2.3,Win32,59.88023952,657b66ea316d21385b68909f,,,,,,,,,,,2156.5829,2157.5726,,,2158.0729,2158.3234,,51,51,,,,,,,,,,,,,,,,bars/007.png,bars/mask007.png,,,,,,,,,,,,0,2,,,,,,,6,0,6,0,,,,,,,,,,,2157.5726,2158.0729,2158.3235,2160.4422,space,2.1081,,2160.4422,56,4,2161.443,2161.443,2161.46,,,,0,8,8,8,1,175,55,,,,,,,,
,,61634ea5478b2d1e072e8353,65af54d26c4c8a399abc6fde,2024-01-22_23h59.00.254,bars,2023.2.3,Win32,59.88023952,657b66ea316d21385b68909f,,,,,,,,,,,2161.4602,2162.4607,,,2162.9612,2163.2119,,33,33,,,,,,,,,,,,,,,,bars/047.png,bars/mask000.png,,,,,,,,,,,,2,1,,,,,,,4,2,4,0,,,,,,,,,,,2162.4607,2162.9611,2163.2119,2165.5476,space,2.3204,,2165.5476,18,37,2166.5483,2166.5483,2166.55,,,,0,9,9,9,1,15,70,,,,,,,,
,,61634ea5478b2d1e072e8353,65af54d26c4c8a399abc6fde,2024-01-22_23h59.00.254,bars,2023.2.3,Win32,59.88023952,657b66ea316d21385b68909f,,,,,,,,,,,2166.5506,2167.549,,,2168.05,2168.3001,,133,133,,,,,,,,,,,,,,,,bars/032.png,bars/mask009.png,,,,,,,,,,,,2,1,,,,,,,2,4,3,4,,,,,,,,,,,2167.549,2168.05,2168.3001,2171.7204,space,3.4035,,2171.7204,8,67,2172.7212,2172.7213,2172.732,,,,0,10,10,10,1,125,20,,,,,,,,
,,61634ea5478b2d1e072e8353,65af54d26c4c8a399abc6fde,2024-01-22_23h59.00.254,bars,2023.2.3,Win32,59.88023952,657b66ea316d21385b68909f,,,,,,,,,,,2172.7322,2173.7222,,,2174.2229,2174.4725,,18,198,,,,,,,,,,,,,,,,bars/036.png,bars/mask005.png,,,,,,,,,,,,6,2,,,,,,,4,6,5,6,,,,,,,,,,,2173.7223,2174.2228,2174.4726,2176.8253,space,2.3373,,2176.8254,53,2,2177.8262,2177.8262,2177.8388,,,,0,11,11,11,1,145,20,,,,,,,,
,,61634ea5478b2d1e072e8353,65af54d26c4c8a399abc6fde,2024-01-22_23h59.00.254,bars,2023.2.3,Win32,59.88023952,657b66ea316d21385b68909f,,,,,,,,,,,2177.839,2178.827,,,2179.3274,2179.578,,4,4,,,,,,,,,,,,,,,,bars/045.png,bars/mask006.png,,,,,,,,,,,,2,2,,,,,,,2,4,3,3,,,,,,,,,,,2178.827,2179.3274,2179.578,2182.9813,space,3.3884,,2182.9814,84,6,2183.9827,2183.9827,2183.9941,,,,0,12,12,12,1,100,10,,,,,,,,
,,61634ea5478b2d1e072e8353,65af54d26c4c8a399abc6fde,2024-01-22_23h59.00.254,bars,2023.2.3,Win32,59.88023952,657b66ea316d21385b68909f,,,,,,,,,,,2183.9943,2184.983,,,2185.4838,2185.7339,,165,-15,,,,,,,,,,,,,,,,bars/048.png,bars/mask004.png,,,,,,,,,,,,3,2,,,,,,,4,6,2,5,,,,,,,,,,,2184.983,2185.4838,2185.734,2187.6865,space,1.9403,,2187.6866,65,10,2188.6866,2188.6866,2188.6967,,,,0,13,13,13,1,50,175,,,,,,,,
,,61634ea5478b2d1e072e8353,65af54d26c4c8a399abc6fde,2024-01-22_23h59.00.254,bars,2023.2.3,Win32,59.88023952,657b66ea316d21385b68909f,,,,,,,,,,,2188.6968,2189.688,,,2190.1885,2190.4385,,111,111,,,,,,,,,,,,,,,,bars/039.png,bars/mask001.png,,,,,,,,,,,,8,2,,,,,,,2,8,2,10,,,,,,,,,,,2189.6881,2190.1885,2190.4385,2193.3754,space,2.9273,,2193.3755,64,6,2194.3761,2194.3761,2194.3878,,,,0,14,14,14,1,175,105,,,,,,,,
,,61634ea5478b2d1e072e8353,65af54d26c4c8a399abc6fde,2024-01-22_23h59.00.254,bars,2023.2.3,Win32,59.88023952,657b66ea316d21385b68909f,,,,,,,,,,,2194.3879,2195.3768,,,2195.8774,2196.1275,,35,215,,,,,,,,,,,,,,,,bars/013.png,bars/mask004.png,,,,,,,,,,,,1,2,,,,,,,0,6,0,5,,,,,,,,,,,2195.3768,2195.8774,2196.1275,2199.3643,space,3.2186,,2199.3644,40,25,2200.3651,2200.3652,2200.3803,,,,0,15,15,15,1,75,10,,,,,,,,
,,61634ea5478b2d1e072e8353,65af54d26c4c8a399abc6fde,2024-01-22_23h59.00.254,bars,2023.2.3,Win32,59.88023952,657b66ea316d21385b68909f,,,,,,,,,,,2200.3806,2201.3827,,,2201.8839,2202.1337,,156,-24,,,,,,,,,,,,,,,,bars/033.png,bars/mask007.png,,,,,,,,,,,,3,2,,,,,,,2,4,1,3,,,,,,,,,,,2201.3827,2201.8837,2202.1338,2205.1871,space,3.0408,,2205.1872,49,1,2206.1875,2206.1876,2206.2001,,,,0,16,16,16,1,25,155,,,,,,,,
,,61634ea5478b2d1e072e8353,65af54d26c4c8a399abc6fde,2024-01-22_23h59.00.254,bars,2023.2.3,Win32,59.88023952,657b66ea316d21385b68909f,,,,,,,,,,,2206.2002,2207.1888,,,2207.689,2207.9395,,116,116,,,,,,,,,,,,,,,,bars/002.png,bars/mask007.png,,,,,,,,,,,,2,1,,,,,,,4,6,3,5,,,,,,,,,,,2207.1889,2207.689,2207.9395,2211.643,space,3.6907,,2211.643,14,31,2212.6439,2212.644,2212.6557,,,,0,17,17,17,1,130,85,,,,,,,,
,,61634ea5478b2d1e072e8353,65af54d26c4c8a399abc6fde,2024-01-22_23h59.00.254,bars,2023.2.3,Win32,59.88023952,657b66ea316d21385b68909f,,,,,,,,,,,2212.6559,2213.6453,,,2214.1455,2214.396,,169,169,,,,,,,,,,,,,,,,bars/008.png,bars/mask009.png,,,,,,,,,,,,2,2,,,,,,,2,4,2,3,,,,,,,,,,,2213.6455,2214.1454,2214.396,2215.7638,space,1.3576,,2215.7638,59,11,2216.7648,2216.7649,2216.7864,,,,0,18,18,18,1,110,0,,,,,,,,
,,61634ea5478b2d1e072e8353,65af54d26c4c8a399abc6fde,2024-01-22_23h59.00.254,bars,2023.2.3,Win32,59.88023952,657b66ea316d21385b68909f,,,,,,,,,,,2216.7867,2217.7825,,,2218.2829,2218.5331,,95,-85,,,,,,,,,,,,,,,,bars/011.png,bars/mask006.png,,,,,,,,,,,,1,2,,,,,,,0,2,0,1,,,,,,,,,,,2217.7826,2218.2829,2218.5331,2222.6373,space,4.0982,,2222.6374,65,10,2223.6381,2223.6382,2223.6547,,,,0,19,19,19,1,160,85,,,,,,,,
,,61634ea5478b2d1e072e8353,65af54d26c4c8a399abc6fde,2024-01-22_23h59.00.254,bars,2023.2.3,Win32,59.88023952,657b66ea316d21385b68909f,,,,,,,,,,,2223.6552,2224.6559,,,2225.1564,2225.4065,,113,-67,,,,,,,,,,,,,,,,bars/027.png,bars/mask002.png,,,,,,,,,,,,1,1,,,,,,,2,0,1,0,,,,,,,,,,,2224.656,2225.1564,2225.4066,2228.6766,space,3.2626,,2228.6768,3,63,2229.6774,2229.6775,2229.69,,,,0,20,20,20,1,110,50,,,,,,,,
,,61634ea5478b2d1e072e8353,65af54d26c4c8a399abc6fde,2024-01-22_23h59.00.254,bars,2023.2.3,Win32,59.88023952,657b66ea316d21385b68909f,,,,,,,,,,,2229.6903,2230.6786,,,2231.1792,2231.43,,77,77,,,,,,,,,,,,,,,,bars/042.png,bars/mask009.png,,,,,,,,,,,,3,2,,,,,,,0,2,0,3,,,,,,,,,,,2230.6786,2231.1791,2231.43,2233.1477,space,1.7062,,2233.1477,68,2,2234.1487,2234.1487,2234.151,,,,0,21,21,21,1,145,75,,,,,,,,
,,61634ea5478b2d1e072e8353,65af54d26c4c8a399abc6fde,2024-01-22_23h59.00.254,bars,2023.2.3,Win32,59.88023952,657b66ea316d21385b68909f,,,,,,,,,,,2234.1514,2235.1496,,,2235.6502,2235.9006,,141,141,,,,,,,,,,,,,,,,bars/001.png,bars/mask002.png,,,,,,,,,,,,0,1,,,,,,,0,0,0,2,,,,,,,,,,,2235.1496,2235.6501,2235.9007,2238.7867,space,2.8731,,2238.7867,11,56,2239.7876,2239.7876,2239.8035,,,,0,22,22,22,1,130,85,,,,,,,,
,,61634ea5478b2d1e072e8353,65af54d26c4c8a399abc6fde,2024-01-22_23h59.00.254,bars,2023.2.3,Win32,59.88023952,657b66ea316d21385b68909f,,,,,,,,,,,2239.8038,2240.8052,,,2241.3061,2241.5562,,62,62,,,,,,,,,,,,,,,,bars/014.png,bars/mask001.png,,,,,,,,,,,,1,1,,,,,,,0,0,2,1,,,,,,,,,,,2240.8053,2241.3061,2241.5562,2243.3412,space,1.7759,,2243.3413,18,62,2244.3421,2244.3421,2244.3431,,,,0,23,23,23,1,80,0,,,,,,,,
,,61634ea5478b2d1e072e8353,65af54d26c4c8a399abc6fde,2024-01-22_23h59.00.254,bars,2023.2.3,Win32,59.88023952,657b66ea316d21385b68909f,,,,,,,,,,,2244.3434,2245.3431,,,2245.8437,2246.0939,,24,24,,,,,,,,,,,,,,,,bars/025.png,bars/mask002.png,,,,,,,,,,,,1,2,,,,,,,0,0,0,2,,,,,,,,,,,2245.3431,2245.8436,2246.0939,2248.3964,space,2.2888,,2248.3964,81,16,2249.3973,2249.3974,2249.4105,,,,0,24,24,24,1,105,40,,,,,,,,
,,61634ea5478b2d1e072e8353,65af54d26c4c8a399abc6fde,2024-01-22_23h59.00.254,bars,2023.2.3,Win32,59.88023952,657b66ea316d21385b68909f,,,,,,,,,,,2249.4108,2250.4148,,,2250.916,2251.1659,,12,192,,,,,,,,,,,,,,,,bars/014.png,bars/mask002.png,,,,,,,,,,,,0,2,,,,,,,0,0,0,0,,,,,,,,,,,2250.4148,2250.916,2251.1659,2254.6525,space,3.4698,,2254.6525,68,12,2255.6534,2255.6534,2255.6646,,,,0,25,25,25,1,80,0,,,,,,,,
,,61634ea5478b2d1e072e8353,65af54d26c4c8a399abc6fde,2024-01-22_23h59.00.254,bars,2023.2.3,Win32,59.88023952,657b66ea316d21385b68909f,,,,,,,,,,,2255.6648,2256.6544,,,2257.1551,2257.4051,,3,183,,,,,,,,,,,,,,,,bars/036.png,bars/mask001.png,,,,,,,,,,,,0,2,,,,,,,2,0,3,0,,,,,,,,,,,2256.6544,2257.155,2257.4051,2262.2772,space,4.8584,,2262.2773,38,17,2263.2778,2263.2778,2263.2876,,,,0,26,26,26,1,145,20,,,,,,,,
,,61634ea5478b2d1e072e8353,65af54d26c4c8a399abc6fde,2024-01-22_23h59.00.254,bars,2023.2.3,Win32,59.88023952,657b66ea316d21385b68909f,,,,,,,,,,,2263.2877,2264.279,,,2264.7792,2265.0294,,7,7,,,,,,,,,,,,,,,,bars/014.png,bars/mask004.png,,,,,,,,,,,,1,2,,,,,,,4,2,5,1,,,,,,,,,,,2264.279,2264.7792,2265.0294,2268.5832,space,3.5418,,2268.5833,73,7,2269.5839,2269.584,2269.5977,,,,0,27,27,27,1,80,0,,,,,,,,
,,61634ea5478b2d1e072e8353,65af54d26c4c8a399abc6fde,2024-01-22_23h59.00.254,bars,2023.2.3,Win32,59.88023952,657b66ea316d21385b68909f,,,,,,,,,,,2269.5978,2270.6017,,,2271.1021,2271.3526,,2,2,,,,,,,,,,,,,,,,bars/009.png,bars/mask004.png,,,,,,,,,,,,4,1,,,,,,,6,4,7,4,,,,,,,,,,,2270.6018,2271.1021,2271.3526,2272.4369,space,1.071,,2272.437,13,77,2273.4378,2273.4379,2273.4402,,,,0,28,28,28,1,15,105,,,,,,,,
,,61634ea5478b2d1e072e8353,65af54d26c4c8a399abc6fde,2024-01-22_23h59.00.254,bars,2023.2.3,Win32,59.88023952,657b66ea316d21385b68909f,,,,,,,,,,,2273.4408,2274.4389,,,2274.9396,2275.1896,,151,151,,,,,,,,,,,,,,,,bars/049.png,bars/mask005.png,,,,,,,,,,,,3,1,,,,,,,4,2,4,3,,,,,,,,,,,2274.439,2274.9396,2275.1896,2277.9092,space,2.7065,,2277.9092,9,36,2278.91,2278.9101,2278.923,,,,0,29,29,29,1,160,115,,,,,,,,
,,61634ea5478b2d1e072e8353,65af54d26c4c8a399abc6fde,2024-01-22_23h59.00.254,bars,2023.2.3,Win32,59.88023952,657b66ea316d21385b68909f,,,,,,,,,,,2278.9233,2279.9109,,,2280.4115,2280.6617,,115,115,,,,,,,,,,,,,,,,bars/015.png,bars/mask002.png,,,,,,,,,,,,7,1,,,,,,,6,0,8,0,,,,,,,,,,,2279.911,2280.4115,2280.6617,2281.7628,space,1.084,,2281.7629,5,45,2282.7642,2282.7642,2282.765,,,,0,30,30,30,1,110,160,,,,,,,,
,,61634ea5478b2d1e072e8353,65af54d26c4c8a399abc6fde,2024-01-22_23h59.00.254,bars,2023.2.3,Win32,59.88023952,657b66ea316d21385b68909f,,,,,,,,,,,2282.7653,2283.7648,,,2284.2652,2284.5156,,85,85,,,,,,,,,,,,,,,,bars/046.png,bars/mask008.png,,,,,,,,,,,,3,2,,,,,,,4,2,5,3,,,,,,,,,,,2283.7649,2284.2652,2284.5156,2287.2017,space,2.676,,2287.2018,70,0,2288.2025,2288.2025,2288.2148,,,,0,31,31,31,1,155,85,,,,,,,,
,,61634ea5478b2d1e072e8353,65af54d26c4c8a399abc6fde,2024-01-22_23h59.00.254,bars,2023.2.3,Win32,59.88023952,657b66ea316d21385b68909f,,,,,,,,,,,2288.2152,2289.2036,,,2289.704,2289.9568,,166,166,,,,,,,,,,,,,,,,bars/017.png,bars/mask000.png,,,,,,,,,,,,0,1,,,,,,,2,4,1,4,,,,,,,,,,,2289.2037,2289.704,2289.9568,2294.7096,space,4.7429,,2294.7097,21,59,2295.7101,2295.7101,2295.7223,,,,0,32,32,32,1,145,45,,,,,,,,
,,61634ea5478b2d1e072e8353,65af54d26c4c8a399abc6fde,2024-01-22_23h59.00.254,bars,2023.2.3,Win32,59.88023952,657b66ea316d21385b68909f,,,,,,,,,,,2295.7224,2296.711,,,2297.2116,2297.462,,165,-15,,,,,,,,,,,,,,,,bars/038.png,bars/mask009.png,,,,,,,,,,,,4,1,,,,,,,4,2,4,1,,,,,,,,,,,2296.711,2297.2115,2297.462,2299.3972,space,1.9152,,2299.3972,0,85,2300.398,2300.398,2300.3987,,,,0,33,33,33,1,165,70,,,,,,,,
,,61634ea5478b2d1e072e8353,65af54d26c4c8a399abc6fde,2024-01-22_23h59.00.254,bars,2023.2.3,Win32,59.88023952,657b66ea316d21385b68909f,,,,,,,,,,,2300.3991,2301.399,,,2301.8999,2302.1498,,147,147,,,,,,,,,,,,,,,,bars/000.png,bars/mask000.png,,,,,,,,,,,,5,2,,,,,,,2,4,4,5,,,,,,,,,,,2301.399,2301.8998,2302.1498,2303.2511,space,1.0947,,2303.2512,73,2,2304.2518,2304.2519,2304.2535,,,,0,34,34,34,1,40,145,,,,,,,,
,,61634ea5478b2d1e072e8353,65af54d26c4c8a399abc6fde,2024-01-22_23h59.00.254,bars,2023.2.3,Win32,59.88023952,657b66ea316d21385b68909f,,,,,,,,,,,2304.2541,2305.2531,,,2305.7534,2306.0037,,155,155,,,,,,,,,,,,,,,,bars/049.png,bars/mask008.png,,,,,,,,,,,,4,1,,,,,,,4,6,5,6,,,,,,,,,,,2305.2532,2305.7534,2306.0037,2309.9075,space,3.8977,,2309.9076,5,40,2310.909,2310.9091,2310.9199,,,,0,35,35,35,1,160,115,,,,,,,,
,,61634ea5478b2d1e072e8353,65af54d26c4c8a399abc6fde,2024-01-22_23h59.00.254,bars,2023.2.3,Win32,59.88023952,657b66ea316d21385b68909f,,,,,,,,,,,2310.9201,2311.9095,,,2312.4103,2312.6605,,126,126,,,,,,,,,,,,,,,,bars/037.png,bars/mask008.png,,,,,,,,,,,,1,2,,,,,,,6,4,6,4,,,,,,,,,,,2311.9095,2312.4103,2312.6605,2316.0469,space,3.3789,,2316.0469,24,21,2317.0483,2317.0483,2317.0596,,,,0,36,36,36,1,150,105,,,,,,,,
,,61634ea5478b2d1e072e8353,65af54d26c4c8a399abc6fde,2024-01-22_23h59.00.254,bars,2023.2.3,Win32,59.88023952,657b66ea316d21385b68909f,,,,,,,,,,,2317.0598,2318.049,,,2318.5496,2318.7997,,164,164,,,,,,,,,,,,,,,,bars/020.png,bars/mask002.png,,,,,,,,,,,,2,2,,,,,,,8,2,9,2,,,,,,,,,,,2318.049,2318.5496,2318.7997,2321.169,space,2.349,,2321.1691,49,6,2322.1701,2322.1702,2322.1803,,,,0,37,37,37,1,115,170,,,,,,,,
,,61634ea5478b2d1e072e8353,65af54d26c4c8a399abc6fde,2024-01-22_23h59.00.254,bars,2023.2.3,Win32,59.88023952,657b66ea316d21385b68909f,,,,,,,,,,,2322.1804,2323.1711,,,2323.6715,2323.9216,,157,-23,,,,,,,,,,,,,,,,bars/016.png,bars/mask009.png,,,,,,,,,,,,3,2,,,,,,,10,4,7,4,,,,,,,,,,,2323.1711,2323.6715,2323.9217,2325.9068,space,1.9762,,2325.9068,63,8,2326.9078,2326.9078,2326.9185,,,,0,38,38,38,1,40,165,,,,,,,,
,,61634ea5478b2d1e072e8353,65af54d26c4c8a399abc6fde,2024-01-22_23h59.00.254,bars,2023.2.3,Win32,59.88023952,657b66ea316d21385b68909f,,,,,,,,,,,2326.9186,2327.9089,,,2328.4095,2328.6596,,20,200,,,,,,,,,,,,,,,,bars/045.png,bars/mask006.png,,,,,,,,,,,,3,2,,,,,,,10,6,10,5,,,,,,,,,,,2327.909,2328.4095,2328.6596,2332.1635,space,3.4956,,2332.1637,80,10,2333.164,2333.1641,2333.1737,,,,0,39,39,39,1,100,10,,,,,,,,
,,61634ea5478b2d1e072e8353,65af54d26c4c8a399abc6fde,2024-01-22_23h59.00.254,bars,2023.2.3,Win32,59.88023952,657b66ea316d21385b68909f,,,,,,,,,,,2333.174,2334.1651,,,2334.6656,2334.9159,,179,179,,,,,,,,,,,,,,,,bars/016.png,bars/mask000.png,,,,,,,,,,,,2,2,,,,,,,8,4,10,4,,,,,,,,,,,2334.1651,2334.6656,2334.916,2337.6187,space,2.6936,,2337.6187,41,14,2338.6196,2338.6196,2338.6303,,,,0,40,40,40,1,40,165,,,,,,,,
,,61634ea5478b2d1e072e8353,65af54d26c4c8a399abc6fde,2024-01-22_23h59.00.254,bars,2023.2.3,Win32,59.88023952,657b66ea316d21385b68909f,,,,,,,,,,,2338.6305,2339.6204,,,2340.1217,2340.3717,,139,-41,,,,,,,,,,,,,,,,bars/005.png,bars/mask001.png,,,,,,,,,,,,2,2,,,,,,,10,2,10,2,,,,,,,,,,,2339.6205,2340.1217,2340.3718,2343.7082,space,3.324,,2343.7083,51,1,2344.7093,2344.7094,2344.7195,,,,0,41,41,41,1,10,140,,,,,,,,
,,61634ea5478b2d1e072e8353,65af54d26c4c8a399abc6fde,2024-01-22_23h59.00.254,bars,2023.2.3,Win32,59.88023952,657b66ea316d21385b68909f,,,,,,,,,,,2344.7197,2345.7098,,,2346.2107,2346.4607,,162,-18,,,,,,,,,,,,,,,,bars/016.png,bars/mask003.png,,,,,,,,,,,,0,2,,,,,,,10,0,10,0,,,,,,,,,,,2345.7098,2346.2107,2346.4608,2350.6487,space,4.1731,,2350.6488,58,3,2351.6493,2351.6495,2351.6607,,,,0,42,42,42,1,40,165,,,,,,,,
,,61634ea5478b2d1e072e8353,65af54d26c4c8a399abc6fde,2024-01-22_23h59.00.254,bars,2023.2.3,Win32,59.88023952,657b66ea316d21385b68909f,,,,,,,,,,,2351.6609,2352.6506,,,2353.151,2353.4013,,138,138,,,,,,,,,,,,,,,,bars/037.png,bars/mask000.png,,,,,,,,,,,,5,1,,,,,,,8,0,8,1,,,,,,,,,,,2352.6506,2353.151,2353.4014,2355.4697,space,2.0535,,2355.4698,12,33,2356.4706,2356.4707,2356.4734,,,,0,43,43,43,1,150,105,,,,,,,,
,,61634ea5478b2d1e072e8353,65af54d26c4c8a399abc6fde,2024-01-22_23h59.00.254,bars,2023.2.3,Win32,59.88023952,657b66ea316d21385b68909f,,,,,,,,,,,2356.4739,2357.472,,,2357.9723,2358.2223,,151,-29,,,,,,,,,,,,,,,,bars/000.png,bars/mask004.png,,,,,,,,,,,,0,2,,,,,,,10,2,10,0,,,,,,,,,,,2357.4721,2357.9722,2358.2223,2361.626,space,3.3939,,2361.626,69,6,2362.6266,2362.6267,2362.6377,,,,0,44,44,44,1,40,145,,,,,,,,
,,61634ea5478b2d1e072e8353,65af54d26c4c8a399abc6fde,2024-01-22_23h59.00.254,bars,2023.2.3,Win32,59.88023952,657b66ea316d21385b68909f,,,,,,,,,,,2362.6379,2363.6278,,,2364.1282,2364.3785,,153,153,,,,,,,,,,,,,,,,bars/049.png,bars/mask004.png,,,,,,,,,,,,8,1,,,,,,,10,4,10,4,,,,,,,,,,,2363.6278,2364.1282,2364.3785,2368.1491,space,3.7533,,2368.1491,7,38,2369.15,2369.15,2369.1652,,,,0,45,45,45,1,160,115,,,,,,,,
,,61634ea5478b2d1e072e8353,65af54d26c4c8a399abc6fde,2024-01-22_23h59.00.254,bars,2023.2.3,Win32,59.88023952,657b66ea316d21385b68909f,,,,,,,,,,,2369.1657,2370.1675,,,2370.6681,2370.9183,,57,57,,,,,,,,,,,,,,,,bars/030.png,bars/mask000.png,,,,,,,,,,,,4,2,,,,,,,8,6,9,5,,,,,,,,,,,2370.1676,2370.668,2370.9183,2373.4221,space,2.49,,2373.4221,83,8,2374.4219,2374.4219,2374.4398,,,,0,46,46,46,1,140,65,,,,,,,,
,,61634ea5478b2d1e072e8353,65af54d26c4c8a399abc6fde,2024-01-22_23h59.00.254,bars,2023.2.3,Win32,59.88023952,657b66ea316d21385b68909f,,,,,,,,,,,2374.4401,2375.4394,,,2375.94,2376.1905,,179,179,,,,,,,,,,,,,,,,bars/048.png,bars/mask001.png,,,,,,,,,,,,7,2,,,,,,,10,8,9,8,,,,,,,,,,,2375.4394,2375.9399,2376.1905,2379.6439,space,3.4381,,2379.6439,51,4,2380.6445,2380.6446,2380.656,,,,0,47,47,47,1,50,175,,,,,,,,
,,61634ea5478b2d1e072e8353,65af54d26c4c8a399abc6fde,2024-01-22_23h59.00.254,bars,2023.2.3,Win32,59.88023952,657b66ea316d21385b68909f,,,,,,,,,,,2380.6561,2381.6457,,,2382.1462,2382.3965,,35,215,,,,,,,,,,,,,,,,bars/025.png,bars/mask000.png,,,,,,,,,,,,6,2,,,,,,,10,6,10,7,,,,,,,,,,,2381.6457,2382.1461,2382.3965,2384.432,space,2.0187,,2384.432,70,5,2385.4332,2385.4332,2385.4431,,,,0,48,48,48,1,105,40,,,,,,,,
,,61634ea5478b2d1e072e8353,65af54d26c4c8a399abc6fde,2024-01-22_23h59.00.254,bars,2023.2.3,Win32,59.88023952,657b66ea316d21385b68909f,,,,,,,,,,,2385.4434,2386.434,,,2386.9345,2387.1851,,66,66,,,,,,,,,,,,,,,,bars/011.png,bars/mask009.png,,,,,,,,,,,,3,2,,,,,,,8,8,9,9,,,,,,,,,,,2386.4341,2386.9345,2387.1852,2389.604,space,2.4023,,2389.6042,86,19,2390.6047,2390.6047,2390.6058,,,,0,49,49,49,1,160,85,,,,,,,,
,,61634ea5478b2d1e072e8353,65af54d26c4c8a399abc6fde,2024-01-22_23h59.00.254,bars,2023.2.3,Win32,59.88023952,657b66ea316d21385b68909f,,,,,,,,,,,,,,,,,,,,,,,,,,,,,,,,,,,,,,,,,,,,,,,,,,,,,,,,,,,,,,,,,,,,,,,,,,,,,,,,,,,,,,,,,,,,,2390.6061,2540.076,0,3,3,0,1,sequence_tables/blk038.csv
,,61634ea5478b2d1e072e8353,65af54d26c4c8a399abc6fde,2024-01-22_23h59.00.254,bars,2023.2.3,Win32,59.88023952,657b66ea316d21385b68909f,,,,,,,,,,,2544.5375,2545.5255,,,2546.0261,2546.2768,,84,84,,,,,,,,,,,,,,,,bars/018.png,bars/mask001.png,,,,,,,,,,,,5,2,,,,,,,7,5,7,6,,,,,,2540.0874,2544.5246,space,4.4068,,2545.5256,2546.0261,2546.2769,2548.7122,space,2.4252,,2548.7122,66,6,2549.7131,2549.7132,2549.7225,,,,0,0,0,0,1,150,90,,,,,,,,
,,61634ea5478b2d1e072e8353,65af54d26c4c8a399abc6fde,2024-01-22_23h59.00.254,bars,2023.2.3,Win32,59.88023952,657b66ea316d21385b68909f,,,,,,,,,,,2549.7227,2550.7145,,,2551.2152,2551.4649,,42,222,,,,,,,,,,,,,,,,bars/010.png,bars/mask009.png,,,,,,,,,,,,4,2,,,,,,,5,7,5,7,,,,,,,,,,,2550.7145,2551.2152,2551.4649,2554.8187,space,3.3434,,2554.8189,57,13,2555.8192,2555.8192,2555.8302,,,,0,1,1,1,1,165,55,,,,,,,,
,,61634ea5478b2d1e072e8353,65af54d26c4c8a399abc6fde,2024-01-22_23h59.00.254,bars,2023.2.3,Win32,59.88023952,657b66ea316d21385b68909f,,,,,,,,,,,2555.8303,2556.8203,,,2557.3214,2557.571,,46,46,,,,,,,,,,,,,,,,bars/034.png,bars/mask002.png,,,,,,,,,,,,1,2,,,,,,,3,5,4,4,,,,,,,,,,,2556.8203,2557.3213,2557.571,2559.3896,space,1.8073,,2559.3897,79,19,2560.3905,2560.3905,2560.4002,,,,0,2,2,2,1,125,65,,,,,,,,
,,61634ea5478b2d1e072e8353,65af54d26c4c8a399abc6fde,2024-01-22_23h59.00.254,bars,2023.2.3,Win32,59.88023952,657b66ea316d21385b68909f,,,,,,,,,,,2560.4003,2561.3915,,,2561.892,2562.1421,,168,-12,,,,,,,,,,,,,,,,bars/040.png,bars/mask003.png,,,,,,,,,,,,1,2,,,,,,,1,3,2,3,,,,,,,,,,,2561.3915,2561.8919,2562.1421,2564.3444,space,2.1964,,2564.3444,28,17,2565.3452,2565.3454,2565.3553,,,,0,3,3,3,1,140,5,,,,,,,,
,,61634ea5478b2d1e072e8353,65af54d26c4c8a399abc6fde,2024-01-22_23h59.00.254,bars,2023.2.3,Win32,59.88023952,657b66ea316d21385b68909f,,,,,,,,,,,2565.3555,2566.3465,,,2566.8474,2567.0976,,66,66,,,,,,,,,,,,,,,,bars/029.png,bars/mask002.png,,,,,,,,,,,,2,2,,,,,,,3,5,2,6,,,,,,,,,,,2566.3466,2566.8474,2567.0976,2570.4512,space,3.3397,,2570.4512,24,21,2571.4514,2571.4515,2571.4604,,,,0,4,4,4,1,90,45,,,,,,,,
,,61634ea5478b2d1e072e8353,65af54d26c4c8a399abc6fde,2024-01-22_23h59.00.254,bars,2023.2.3,Win32,59.88023952,657b66ea316d21385b68909f,,,,,,,,,,,2571.4605,2572.4524,,,2572.9534,2573.2035,,144,144,,,,,,,,,,,,,,,,bars/030.png,bars/mask005.png,,,,,,,,,,,,3,1,,,,,,,1,3,3,2,,,,,,,,,,,2572.4524,2572.9534,2573.2036,2575.4575,space,2.2372,,2575.4576,4,79,2576.4571,2576.4572,2576.4747,,,,0,5,5,5,1,140,65,,,,,,,,
,,61634ea5478b2d1e072e8353,65af54d26c4c8a399abc6fde,2024-01-22_23h59.00.254,bars,2023.2.3,Win32,59.88023952,657b66ea316d21385b68909f,,,,,,,,,,,2576.4749,2577.4777,,,2577.9752,2578.2264,,50,50,,,,,,,,,,,,,,,,bars/010.png,bars/mask008.png,,,,,,,,,,,,1,2,,,,,,,3,1,2,1,,,,,,,,,,,2577.4778,2577.9752,2578.2264,2581.0279,space,2.786,,2581.0279,65,5,2582.0337,2582.0337,2582.0356,,,,0,6,6,6,1,165,55,,,,,,,,
,,61634ea5478b2d1e072e8353,65af54d26c4c8a399abc6fde,2024-01-22_23h59.00.254,bars,2023.2.3,Win32,59.88023952,657b66ea316d21385b68909f,,,,,,,,,,,2582.0359,2583.0327,,,2583.5355,2583.7806,,23,203,,,,,,,,,,,,,,,,bars/022.png,bars/mask007.png,,,,,,,,,,,,0,2,,,,,,,5,0,6,0,,,,,,,,,,,2583.0327,2583.5355,2583.7807,2587.6394,space,3.8373,,2587.6394,72,3,2588.6354,2588.6355,2588.651,,,,0,7,7,7,1,95,20,,,,,,,,
,,61634ea5478b2d1e072e8353,65af54d26c4c8a399abc6fde,2024-01-22_23h59.00.254,bars,2023.2.3,Win32,59.88023952,657b66ea316d21385b68909f,,,,,,,,,,,2588.6513,2589.6529,,,2590.1535,2590.4041,,52,52,,,,,,,,,,,,,,,,bars/035.png,bars/mask001.png,,,,,,,,,,,,0,2,,,,,,,7,0,7,0,,,,,,,,,,,2589.6529,2590.1534,2590.4042,2592.6728,space,2.2575,,2592.6729,57,8,2593.674,2593.6741,2593.6766,,,,0,8,8,8,1,175,60,,,,,,,,
,,61634ea5478b2d1e072e8353,65af54d26c4c8a399abc6fde,2024-01-22_23h59.00.254,bars,2023.2.3,Win32,59.88023952,657b66ea316d21385b68909f,,,,,,,,,,,2593.6768,2594.6746,,,2595.1753,2595.4254,,152,152,,,,,,,,,,,,,,,,bars/005.png,bars/mask004.png,,,,,,,,,,,,1,2,,,,,,,9,0,9,1,,,,,,,,,,,2594.6749,2595.1753,2595.4255,2598.4953,space,3.0542,,2598.4954,38,12,2599.4966,2599.4966,2599.5068,,,,0,9,9,9,1,10,140,,,,,,,,
,,61634ea5478b2d1e072e8353,65af54d26c4c8a399abc6fde,2024-01-22_23h59.00.254,bars,2023.2.3,Win32,59.88023952,657b66ea316d21385b68909f,,,,,,,,,,,2599.507,2600.5,,,2600.9977,2601.2483,,98,98,,,,,,,,,,,,,,,,bars/002.png,bars/mask001.png,,,,,,,,,,,,1,2,,,,,,,10,2,9,1,,,,,,,,,,,2600.5,2600.9976,2601.2484,2603.317,space,2.0542,,2603.317,32,13,2604.3177,2604.3177,2604.3271,,,,0,10,10,10,1,130,85,,,,,,,,
