init_variables.started,init_variables.stopped,participant,session,date,expName,psychopyVersion,OS,frameRate,study_id,instruction_exp.started,instruction_exp.stopped,key_resp_8.keys,key_resp_8.rt,key_resp_8.duration,instruction_single.started,instruction_single.stopped,key_resp_2.keys,key_resp_2.rt,key_resp_2.duration,interval.started,interval.stopped,cue_single.started,cue_single.stopped,mask.started,mask.stopped,ori_response_single.started,res_ori,res,ori_response_single.stopped,key_resp_single.keys,key_resp_single.rt,key_resp_single.duration,disp_single.started,disp_single.stopped,key_resp.keys,key_resp.rt,key_resp.duration,single.thisRepN,single.thisTrialN,single.thisN,single.thisIndex,single.ran,ori,path,mask_path,instruction_bandit.started,instruction_bandit.stopped,key_resp_6.keys,key_resp_6.rt,key_resp_6.duration,cue_bandit.started,cue_bandit.stopped,bandit_res.keys,bandit_res.rt,bandit_res.duration,outcome_bandit.started,rew,action,outcome_bandit.stopped,bandit.thisRepN,bandit.thisTrialN,bandit.thisN,bandit.thisIndex,bandit.ran,actual_rew1,actual_rew2,rew1,rew2,instruction_task.started,instruction_task.stopped,key_resp_7.keys,key_resp_7.rt,key_resp_7.duration,wait_ready.started,wait_ready.stopped,key_resp_3.keys,key_resp_3.rt,key_resp_3.duration,cue.started,cue.stopped,ori_response.started,ori_response.stopped,key_resp_5.keys,key_resp_5.rt,key_resp_5.duration,outcome.started,diff1,diff2,outcome.stopped,disp_outcome_practice.started,disp_outcome_practice.stopped,key_resp_4.keys,key_resp_4.rt,key_resp_4.duration,trials.thisRepN,trials.thisTrialN,trials.thisN,trials.thisIndex,trials.ran,ori1,ori2,break_blk.started,break_blk.stopped,block.thisRepN,block.thisTrialN,block.thisN,block.thisIndex,block.ran,condition_file
0.004,0.005,60f5b42174aa93c2c1522ecf,65af559e4aa07d90bbee3ccb,2024-01-23_08h01.38.577,bars,2023.2.3,Win32,58.82352941,657b66ea316d21385b68909f,,,,,,,,,,,,,,,,,,,,,,,,,,,,,,,,,,,,,,,,,,,,,,,,,,,,,,,,,,,,,,,,,,,,,,,,,,,,,,,,,,,,,,,,,,,,,,,,,,,,
,,60f5b42174aa93c2c1522ecf,65af559e4aa07d90bbee3ccb,2024-01-23_08h01.38.577,bars,2023.2.3,Win32,58.82352941,657b66ea316d21385b68909f,0.005,6.385,y,6.365,,,,,,,,,,,,,,,,,,,,,,,,,,,,,,,,,,,,,,,,,,,,,,,,,,,,,,,,,,,,,,,,,,,,,,,,,,,,,,,,,,,,,,,,,,,,,,,,
,,60f5b42174aa93c2c1522ecf,65af559e4aa07d90bbee3ccb,2024-01-23_08h01.38.577,bars,2023.2.3,Win32,58.82352941,657b66ea316d21385b68909f,,,,,,6.385,67.713,space,61.318,,,,,,,,,,,,,,,,,,,,,,,,,,,,,,,,,,,,,,,,,,,,,,,,,,,,,,,,,,,,,,,,,,,,,,,,,,,,,,,,,,,,,,,,,,,
,,60f5b42174aa93c2c1522ecf,65af559e4aa07d90bbee3ccb,2024-01-23_08h01.38.577,bars,2023.2.3,Win32,58.82352941,657b66ea316d21385b68909f,,,,,,,,,,,67.719,68.708,68.708,69.209,69.21,69.46,69.46,65,65,74.677,space,5.188,,74.677,79.476,space,4.773,,0,0,0,8,1,160,bars/single008.png,bars/mask004.png,,,,,,,,,,,,,,,,,,,,,,,,,,,,,,,,,,,,,,,,,,,,,,,,,,,,,,,,,,,,,,,,
,,60f5b42174aa93c2c1522ecf,65af559e4aa07d90bbee3ccb,2024-01-23_08h01.38.577,bars,2023.2.3,Win32,58.82352941,657b66ea316d21385b68909f,,,,,,,,,,,79.49,80.489,80.489,80.99,80.99,81.239,81.239,148,148,87.224,space,5.966,,87.224,92.357,space,5.113,,0,1,1,2,1,145,bars/single002.png,bars/mask003.png,,,,,,,,,,,,,,,,,,,,,,,,,,,,,,,,,,,,,,,,,,,,,,,,,,,,,,,,,,,,,,,,
,,60f5b42174aa93c2c1522ecf,65af559e4aa07d90bbee3ccb,2024-01-23_08h01.38.577,bars,2023.2.3,Win32,58.82352941,657b66ea316d21385b68909f,,,,,,,,,,,92.369,93.37,93.371,93.871,93.871,94.12,94.12,26,206,97.803,space,3.658,,97.803,101.136,space,3.301,,0,2,2,9,1,20,bars/single009.png,bars/mask006.png,,,,,,,,,,,,,,,,,,,,,,,,,,,,,,,,,,,,,,,,,,,,,,,,,,,,,,,,,,,,,,,,
,,60f5b42174aa93c2c1522ecf,65af559e4aa07d90bbee3ccb,2024-01-23_08h01.38.577,bars,2023.2.3,Win32,58.82352941,657b66ea316d21385b68909f,,,,,,,,,,,101.149,102.152,102.152,102.638,102.638,102.886,102.886,10,10,105.637,space,2.732,,105.638,108.485,space,2.825,,0,3,3,1,1,20,bars/single001.png,bars/mask006.png,,,,,,,,,,,,,,,,,,,,,,,,,,,,,,,,,,,,,,,,,,,,,,,,,,,,,,,,,,,,,,,,
,,60f5b42174aa93c2c1522ecf,65af559e4aa07d90bbee3ccb,2024-01-23_08h01.38.577,bars,2023.2.3,Win32,58.82352941,657b66ea316d21385b68909f,,,,,,,,,,,108.498,109.501,109.501,110.002,110.002,110.251,110.251,81,81,114.054,space,3.784,,114.054,117.668,space,3.596,,0,4,4,5,1,55,bars/single005.png,bars/mask008.png,,,,,,,,,,,,,,,,,,,,,,,,,,,,,,,,,,,,,,,,,,,,,,,,,,,,,,,,,,,,,,,,
,,60f5b42174aa93c2c1522ecf,65af559e4aa07d90bbee3ccb,2024-01-23_08h01.38.577,bars,2023.2.3,Win32,58.82352941,657b66ea316d21385b68909f,,,,,,,,,,,117.681,118.685,118.685,119.185,119.185,119.433,119.433,102,102,123.535,space,4.083,,123.536,126.199,space,2.626,,0,5,5,4,1,95,bars/single004.png,bars/mask004.png,,,,,,,,,,,,,,,,,,,,,,,,,,,,,,,,,,,,,,,,,,,,,,,,,,,,,,,,,,,,,,,,
,,60f5b42174aa93c2c1522ecf,65af559e4aa07d90bbee3ccb,2024-01-23_08h01.38.577,bars,2023.2.3,Win32,58.82352941,657b66ea316d21385b68909f,,,,,,,,,,,126.211,127.216,127.216,127.715,127.715,127.965,127.965,166,166,131.701,space,3.717,,131.701,135.447,space,3.717,,0,6,6,0,1,150,bars/single000.png,bars/mask006.png,,,,,,,,,,,,,,,,,,,,,,,,,,,,,,,,,,,,,,,,,,,,,,,,,,,,,,,,,,,,,,,,
,,60f5b42174aa93c2c1522ecf,65af559e4aa07d90bbee3ccb,2024-01-23_08h01.38.577,bars,2023.2.3,Win32,58.82352941,657b66ea316d21385b68909f,,,,,,,,,,,135.459,136.447,136.447,136.947,136.947,137.196,137.196,178,178,140.946,space,3.73,,140.946,144.479,space,3.5,,0,7,7,6,1,175,bars/single006.png,bars/mask005.png,,,,,,,,,,,,,,,,,,,,,,,,,,,,,,,,,,,,,,,,,,,,,,,,,,,,,,,,,,,,,,,,
,,60f5b42174aa93c2c1522ecf,65af559e4aa07d90bbee3ccb,2024-01-23_08h01.38.577,bars,2023.2.3,Win32,58.82352941,657b66ea316d21385b68909f,,,,,,,,,,,144.491,145.497,145.497,145.995,145.995,146.245,146.245,34,214,152.614,space,6.35,,152.614,155.76,space,3.117,,0,8,8,7,1,45,bars/single007.png,bars/mask009.png,,,,,,,,,,,,,,,,,,,,,,,,,,,,,,,,,,,,,,,,,,,,,,,,,,,,,,,,,,,,,,,,
,,60f5b42174aa93c2c1522ecf,65af559e4aa07d90bbee3ccb,2024-01-23_08h01.38.577,bars,2023.2.3,Win32,58.82352941,657b66ea316d21385b68909f,,,,,,,,,,,155.761,156.759,156.759,157.259,157.26,157.51,157.51,18,18,160.759,space,3.22,,160.759,163.792,space,3.004,,0,9,9,3,1,20,bars/single003.png,bars/mask005.png,,,,,,,,,,,,,,,,,,,,,,,,,,,,,,,,,,,,,,,,,,,,,,,,,,,,,,,,,,,,,,,,
,,60f5b42174aa93c2c1522ecf,65af559e4aa07d90bbee3ccb,2024-01-23_08h01.38.577,bars,2023.2.3,Win32,58.82352941,657b66ea316d21385b68909f,,,,,,,,,,,,,,,,,,,,,,,,,,,,,,,,,,,,,163.793,175.194,space,11.382,,,,,,,,,,,,,,,,,,,,,,,,,,,,,,,,,,,,,,,,,,,,,,,,,,,,,,,,,,,,
,,60f5b42174aa93c2c1522ecf,65af559e4aa07d90bbee3ccb,2024-01-23_08h01.38.577,bars,2023.2.3,Win32,58.82352941,657b66ea316d21385b68909f,,,,,,,,,,,,,,,,,,,,,,,,,,,,,,,,,,,,,,,,,,175.21,178.626,left,3.406,,178.626,9,1,179.623,0,0,0,0,1,9,1,9,2,,,,,,,,,,,,,,,,,,,,,,,,,,,,,,,,,,,,,,,,,
,,60f5b42174aa93c2c1522ecf,65af559e4aa07d90bbee3ccb,2024-01-23_08h01.38.577,bars,2023.2.3,Win32,58.82352941,657b66ea316d21385b68909f,,,,,,,,,,,,,,,,,,,,,,,,,,,,,,,,,,,,,,,,,,179.624,181.356,left,1.702,,181.356,10,1,182.356,0,1,1,1,1,10,0,10,1,,,,,,,,,,,,,,,,,,,,,,,,,,,,,,,,,,,,,,,,,
,,60f5b42174aa93c2c1522ecf,65af559e4aa07d90bbee3ccb,2024-01-23_08h01.38.577,bars,2023.2.3,Win32,58.82352941,657b66ea316d21385b68909f,,,,,,,,,,,,,,,,,,,,,,,,,,,,,,,,,,,,,,,,,,182.356,183.623,right,1.235,,183.623,2,2,184.622,0,2,2,2,1,10,2,10,2,,,,,,,,,,,,,,,,,,,,,,,,,,,,,,,,,,,,,,,,,
,,60f5b42174aa93c2c1522ecf,65af559e4aa07d90bbee3ccb,2024-01-23_08h01.38.577,bars,2023.2.3,Win32,58.82352941,657b66ea316d21385b68909f,,,,,,,,,,,,,,,,,,,,,,,,,,,,,,,,,,,,,,,,,,184.623,186.105,left,1.451,,186.105,7,1,187.104,0,3,3,3,1,8,4,7,3,,,,,,,,,,,,,,,,,,,,,,,,,,,,,,,,,,,,,,,,,
,,60f5b42174aa93c2c1522ecf,65af559e4aa07d90bbee3ccb,2024-01-23_08h01.38.577,bars,2023.2.3,Win32,58.82352941,657b66ea316d21385b68909f,,,,,,,,,,,,,,,,,,,,,,,,,,,,,,,,,,,,,,,,,,187.105,188.088,right,0.957,,188.088,1,2,189.089,0,4,4,4,1,6,2,5,1,,,,,,,,,,,,,,,,,,,,,,,,,,,,,,,,,,,,,,,,,
,,60f5b42174aa93c2c1522ecf,65af559e4aa07d90bbee3ccb,2024-01-23_08h01.38.577,bars,2023.2.3,Win32,58.82352941,657b66ea316d21385b68909f,,,,,,,,,,,,,,,,,,,,,,,,,,,,,,,,,,,,,,,,,,189.089,190.288,left,1.167,,190.288,4,1,191.287,0,5,5,5,1,4,4,4,4,,,,,,,,,,,,,,,,,,,,,,,,,,,,,,,,,,,,,,,,,
,,60f5b42174aa93c2c1522ecf,65af559e4aa07d90bbee3ccb,2024-01-23_08h01.38.577,bars,2023.2.3,Win32,58.82352941,657b66ea316d21385b68909f,,,,,,,,,,,,,,,,,,,,,,,,,,,,,,,,,,,,,,,,,,191.3,192.123,left,0.818,,192.123,1,1,193.121,0,6,6,6,1,2,2,1,2,,,,,,,,,,,,,,,,,,,,,,,,,,,,,,,,,,,,,,,,,
,,60f5b42174aa93c2c1522ecf,65af559e4aa07d90bbee3ccb,2024-01-23_08h01.38.577,bars,2023.2.3,Win32,58.82352941,657b66ea316d21385b68909f,,,,,,,,,,,,,,,,,,,,,,,,,,,,,,,,,,,,,,,,,,193.121,193.654,right,0.512,,193.654,1,2,194.653,0,7,7,7,1,0,0,0,1,,,,,,,,,,,,,,,,,,,,,,,,,,,,,,,,,,,,,,,,,
,,60f5b42174aa93c2c1522ecf,65af559e4aa07d90bbee3ccb,2024-01-23_08h01.38.577,bars,2023.2.3,Win32,58.82352941,657b66ea316d21385b68909f,,,,,,,,,,,,,,,,,,,,,,,,,,,,,,,,,,,,,,,,,,194.654,195.089,left,0.417,,195.089,1,1,196.087,0,8,8,8,1,0,2,1,0,,,,,,,,,,,,,,,,,,,,,,,,,,,,,,,,,,,,,,,,,
,,60f5b42174aa93c2c1522ecf,65af559e4aa07d90bbee3ccb,2024-01-23_08h01.38.577,bars,2023.2.3,Win32,58.82352941,657b66ea316d21385b68909f,,,,,,,,,,,,,,,,,,,,,,,,,,,,,,,,,,,,,,,,,,196.087,196.487,right,0.368,,196.487,3,2,197.486,0,9,9,9,1,2,4,2,3,,,,,,,,,,,,,,,,,,,,,,,,,,,,,,,,,,,,,,,,,
,,60f5b42174aa93c2c1522ecf,65af559e4aa07d90bbee3ccb,2024-01-23_08h01.38.577,bars,2023.2.3,Win32,58.82352941,657b66ea316d21385b68909f,,,,,,,,,,,,,,,,,,,,,,,,,,,,,,,,,,,,,,,,,,197.487,199.203,left,1.694,,199.203,0,1,200.203,0,10,10,10,1,0,2,0,3,,,,,,,,,,,,,,,,,,,,,,,,,,,,,,,,,,,,,,,,,
,,60f5b42174aa93c2c1522ecf,65af559e4aa07d90bbee3ccb,2024-01-23_08h01.38.577,bars,2023.2.3,Win32,58.82352941,657b66ea316d21385b68909f,,,,,,,,,,,,,,,,,,,,,,,,,,,,,,,,,,,,,,,,,,200.203,200.869,right,0.636,,200.869,3,2,201.869,0,11,11,11,1,0,4,0,3,,,,,,,,,,,,,,,,,,,,,,,,,,,,,,,,,,,,,,,,,
,,60f5b42174aa93c2c1522ecf,65af559e4aa07d90bbee3ccb,2024-01-23_08h01.38.577,bars,2023.2.3,Win32,58.82352941,657b66ea316d21385b68909f,,,,,,,,,,,,,,,,,,,,,,,,,,,,,,,,,,,,,,,,,,201.869,202.689,right,0.801,,202.689,6,2,203.686,0,12,12,12,1,2,6,1,6,,,,,,,,,,,,,,,,,,,,,,,,,,,,,,,,,,,,,,,,,
,,60f5b42174aa93c2c1522ecf,65af559e4aa07d90bbee3ccb,2024-01-23_08h01.38.577,bars,2023.2.3,Win32,58.82352941,657b66ea316d21385b68909f,,,,,,,,,,,,,,,,,,,,,,,,,,,,,,,,,,,,,,,,,,203.686,204.32,right,0.601,,204.32,3,2,205.319,0,13,13,13,1,0,4,1,3,,,,,,,,,,,,,,,,,,,,,,,,,,,,,,,,,,,,,,,,,
,,60f5b42174aa93c2c1522ecf,65af559e4aa07d90bbee3ccb,2024-01-23_08h01.38.577,bars,2023.2.3,Win32,58.82352941,657b66ea316d21385b68909f,,,,,,,,,,,,,,,,,,,,,,,,,,,,,,,,,,,,,,,,,,205.319,206.137,left,0.801,,206.137,2,1,207.135,0,14,14,14,1,2,6,2,7,,,,,,,,,,,,,,,,,,,,,,,,,,,,,,,,,,,,,,,,,
,,60f5b42174aa93c2c1522ecf,65af559e4aa07d90bbee3ccb,2024-01-23_08h01.38.577,bars,2023.2.3,Win32,58.82352941,657b66ea316d21385b68909f,,,,,,,,,,,,,,,,,,,,,,,,,,,,,,,,,,,,,,,,,,207.136,207.954,left,0.8,,207.954,3,1,208.951,0,15,15,15,1,4,8,3,9,,,,,,,,,,,,,,,,,,,,,,,,,,,,,,,,,,,,,,,,,
,,60f5b42174aa93c2c1522ecf,65af559e4aa07d90bbee3ccb,2024-01-23_08h01.38.577,bars,2023.2.3,Win32,58.82352941,657b66ea316d21385b68909f,,,,,,,,,,,,,,,,,,,,,,,,,,,,,,,,,,,,,,,,,,208.952,209.685,left,0.704,,209.685,7,1,210.686,0,16,16,16,1,6,6,7,7,,,,,,,,,,,,,,,,,,,,,,,,,,,,,,,,,,,,,,,,,
,,60f5b42174aa93c2c1522ecf,65af559e4aa07d90bbee3ccb,2024-01-23_08h01.38.577,bars,2023.2.3,Win32,58.82352941,657b66ea316d21385b68909f,,,,,,,,,,,,,,,,,,,,,,,,,,,,,,,,,,,,,,,,,,210.687,212.151,right,1.435,,212.151,5,2,213.151,0,17,17,17,1,8,4,9,5,,,,,,,,,,,,,,,,,,,,,,,,,,,,,,,,,,,,,,,,,
,,60f5b42174aa93c2c1522ecf,65af559e4aa07d90bbee3ccb,2024-01-23_08h01.38.577,bars,2023.2.3,Win32,58.82352941,657b66ea316d21385b68909f,,,,,,,,,,,,,,,,,,,,,,,,,,,,,,,,,,,,,,,,,,213.151,213.851,left,0.681,,213.851,5,1,214.85,0,18,18,18,1,6,2,5,1,,,,,,,,,,,,,,,,,,,,,,,,,,,,,,,,,,,,,,,,,
,,60f5b42174aa93c2c1522ecf,65af559e4aa07d90bbee3ccb,2024-01-23_08h01.38.577,bars,2023.2.3,Win32,58.82352941,657b66ea316d21385b68909f,,,,,,,,,,,,,,,,,,,,,,,,,,,,,,,,,,,,,,,,,,214.851,215.65,left,0.767,,215.65,7,1,216.65,0,19,19,19,1,8,0,7,0,,,,,,,,,,,,,,,,,,,,,,,,,,,,,,,,,,,,,,,,,
,,60f5b42174aa93c2c1522ecf,65af559e4aa07d90bbee3ccb,2024-01-23_08h01.38.577,bars,2023.2.3,Win32,58.82352941,657b66ea316d21385b68909f,,,,,,,,,,,,,,,,,,,,,,,,,,,,,,,,,,,,,,,,,,,,,,,,,,,,,,,,,,,,216.651,269.009,space,52.326,,,,,,,,,,,,,,,,,,,,,,,,,,,,,,,,,,,,,
,,60f5b42174aa93c2c1522ecf,65af559e4aa07d90bbee3ccb,2024-01-23_08h01.38.577,bars,2023.2.3,Win32,58.82352941,657b66ea316d21385b68909f,,,,,,,,,,,270.446,271.441,,,271.941,272.19,,53,53,,,,,,,,,,,,,,,,bars/004.png,bars/mask007.png,,,,,,,,,,,,0,1,,,,,,,1,9,1,7,,,,,,269.011,270.441,space,1.412,,271.441,271.941,272.192,275.225,space,3.011,,275.225,28,72,276.225,276.225,284.89,space,8.636,,0,0,0,0,1,25,125,,,,,,,,
,,60f5b42174aa93c2c1522ecf,65af559e4aa07d90bbee3ccb,2024-01-23_08h01.38.577,bars,2023.2.3,Win32,58.82352941,657b66ea316d21385b68909f,,,,,,,,,,,284.903,285.891,,,286.389,286.639,,25,205,,,,,,,,,,,,,,,,bars/008.png,bars/mask004.png,,,,,,,,,,,,1,2,,,,,,,3,7,5,6,,,,,,,,,,,285.891,286.389,286.639,294.991,space,8.332,,294.991,85,25,295.987,295.988,305.153,space,9.13,0.006,0,1,1,1,1,110,0,,,,,,,,
,,60f5b42174aa93c2c1522ecf,65af559e4aa07d90bbee3ccb,2024-01-23_08h01.38.577,bars,2023.2.3,Win32,58.82352941,657b66ea316d21385b68909f,,,,,,,,,,,305.166,306.169,,,306.669,306.918,,115,115,,,,,,,,,,,,,,,,bars/032.png,bars/mask001.png,,,,,,,,,,,,3,1,,,,,,,5,9,4,9,,,,,,,,,,,306.169,306.669,306.918,308.688,space,1.751,,308.689,10,85,309.685,309.685,315.152,space,5.449,,0,2,2,2,1,125,20,,,,,,,,
,,60f5b42174aa93c2c1522ecf,65af559e4aa07d90bbee3ccb,2024-01-23_08h01.38.577,bars,2023.2.3,Win32,58.82352941,657b66ea316d21385b68909f,,,,,,,,,,,315.165,316.167,,,316.667,316.917,,25,205,,,,,,,,,,,,,,,,bars/036.png,bars/mask007.png,,,,,,,,,,,,8,2,,,,,,,3,7,5,10,,,,,,,,,,,316.167,316.667,316.917,320.933,space,3.996,,320.933,60,5,321.933,321.933,326.949,space,4.989,,0,3,3,3,1,145,20,,,,,,,,
,,60f5b42174aa93c2c1522ecf,65af559e4aa07d90bbee3ccb,2024-01-23_08h01.38.577,bars,2023.2.3,Win32,58.82352941,657b66ea316d21385b68909f,,,,,,,,,,,326.962,327.965,,,328.466,328.715,,81,81,,,,,,,,,,,,,,,,bars/034.png,bars/mask007.png,,,,,,,,,,,,2,2,,,,,,,1,5,1,4,,,,,,,,,,,327.966,328.465,328.715,331.15,space,2.416,,331.15,44,16,332.148,332.148,334.7,space,2.533,,0,4,4,4,1,125,65,,,,,,,,
,,60f5b42174aa93c2c1522ecf,65af559e4aa07d90bbee3ccb,2024-01-23_08h01.38.577,bars,2023.2.3,Win32,58.82352941,657b66ea316d21385b68909f,,,,,,,,,,,334.714,335.716,,,336.215,336.464,,165,-15,,,,,,,,,,,,,,,,bars/023.png,bars/mask000.png,,,,,,,,,,,,0,1,,,,,,,3,3,5,1,,,,,,,,,,,335.716,336.215,336.464,338.18,space,1.694,,338.18,35,50,339.18,339.18,343.049,space,3.848,,0,5,5,5,1,20,115,,,,,,,,
,,60f5b42174aa93c2c1522ecf,65af559e4aa07d90bbee3ccb,2024-01-23_08h01.38.577,bars,2023.2.3,Win32,58.82352941,657b66ea316d21385b68909f,,,,,,,,,,,343.061,344.065,,,344.563,344.812,,75,255,,,,,,,,,,,,,,,,bars/001.png,bars/mask002.png,,,,,,,,,,,,1,2,,,,,,,5,1,7,2,,,,,,,,,,,344.065,344.563,344.813,348.598,space,3.767,,348.598,55,10,349.595,349.595,351.695,space,2.07,,0,6,6,6,1,130,85,,,,,,,,
,,60f5b42174aa93c2c1522ecf,65af559e4aa07d90bbee3ccb,2024-01-23_08h01.38.577,bars,2023.2.3,Win32,58.82352941,657b66ea316d21385b68909f,,,,,,,,,,,351.696,352.694,,,353.195,353.444,,150,-30,,,,,,,,,,,,,,,,bars/003.png,bars/mask004.png,,,,,,,,,,,,2,2,,,,,,,3,3,3,3,,,,,,,,,,,352.694,353.195,353.444,356.227,space,2.757,,356.227,55,10,357.227,357.227,360.426,space,3.17,,0,7,7,7,1,25,140,,,,,,,,
,,60f5b42174aa93c2c1522ecf,65af559e4aa07d90bbee3ccb,2024-01-23_08h01.38.577,bars,2023.2.3,Win32,58.82352941,657b66ea316d21385b68909f,,,,,,,,,,,360.439,361.426,,,361.926,362.176,,33,213,,,,,,,,,,,,,,,,bars/007.png,bars/mask008.png,,,,,,,,,,,,0,2,,,,,,,5,1,3,1,,,,,,,,,,,361.426,361.926,362.176,366.096,space,3.901,,366.096,38,22,367.092,367.092,371.025,space,3.912,,0,8,8,8,1,175,55,,,,,,,,
,,60f5b42174aa93c2c1522ecf,65af559e4aa07d90bbee3ccb,2024-01-23_08h01.38.577,bars,2023.2.3,Win32,58.82352941,657b66ea316d21385b68909f,,,,,,,,,,,371.038,372.025,,,372.524,372.775,,104,104,,,,,,,,,,,,,,,,bars/020.png,bars/mask001.png,,,,,,,,,,,,1,1,,,,,,,3,3,2,5,,,,,,,,,,,372.025,372.524,372.775,377.81,space,5.031,,377.81,11,66,378.807,378.807,381.507,space,2.671,,0,9,9,9,1,115,170,,,,,,,,
,,60f5b42174aa93c2c1522ecf,65af559e4aa07d90bbee3ccb,2024-01-23_08h01.38.577,bars,2023.2.3,Win32,58.82352941,657b66ea316d21385b68909f,,,,,,,,,,,381.507,382.506,,,383.007,383.256,,126,-54,,,,,,,,,,,,,,,,bars/005.png,bars/mask004.png,,,,,,,,,,,,0,2,,,,,,,1,1,0,0,,,,,,,,,,,382.507,383.007,383.256,385.906,space,2.647,,385.906,64,14,386.905,386.906,389.375,space,2.446,,0,10,10,10,1,10,140,,,,,,,,
,,60f5b42174aa93c2c1522ecf,65af559e4aa07d90bbee3ccb,2024-01-23_08h01.38.577,bars,2023.2.3,Win32,58.82352941,657b66ea316d21385b68909f,,,,,,,,,,,389.375,390.371,,,390.872,391.121,,178,-2,,,,,,,,,,,,,,,,bars/000.png,bars/mask003.png,,,,,,,,,,,,0,2,,,,,,,3,0,3,0,,,,,,,,,,,390.371,390.872,391.121,393.474,space,2.333,,393.474,42,33,394.471,394.471,398.22,space,3.727,,0,11,11,11,1,40,145,,,,,,,,
,,60f5b42174aa93c2c1522ecf,65af559e4aa07d90bbee3ccb,2024-01-23_08h01.38.577,bars,2023.2.3,Win32,58.82352941,657b66ea316d21385b68909f,,,,,,,,,,,398.233,399.237,,,399.72,399.972,,170,-10,,,,,,,,,,,,,,,,bars/007.png,bars/mask009.png,,,,,,,,,,,,5,1,,,,,,,5,0,6,0,,,,,,,,,,,399.237,399.72,399.972,406.469,space,6.479,,406.469,5,65,407.469,407.469,412.018,space,4.519,,0,12,12,12,1,175,55,,,,,,,,
,,60f5b42174aa93c2c1522ecf,65af559e4aa07d90bbee3ccb,2024-01-23_08h01.38.577,bars,2023.2.3,Win32,58.82352941,657b66ea316d21385b68909f,,,,,,,,,,,412.031,413.036,,,413.535,413.768,,51,231,,,,,,,,,,,,,,,,bars/048.png,bars/mask009.png,,,,,,,,,,,,7,1,,,,,,,7,2,7,2,,,,,,,,,,,413.036,413.535,413.768,416.634,space,2.859,,416.634,1,56,417.634,417.634,422.786,space,5.134,,0,13,13,13,1,50,175,,,,,,,,
,,60f5b42174aa93c2c1522ecf,65af559e4aa07d90bbee3ccb,2024-01-23_08h01.38.577,bars,2023.2.3,Win32,58.82352941,657b66ea316d21385b68909f,,,,,,,,,,,422.799,423.799,,,424.299,424.55,,123,123,,,,,,,,,,,,,,,,bars/001.png,bars/mask004.png,,,,,,,,,,,,5,1,,,,,,,5,4,6,5,,,,,,,,,,,423.8,424.299,424.55,426.035,space,1.468,,426.035,7,38,427.033,427.033,428.699,space,1.646,,0,14,14,14,1,130,85,,,,,,,,
,,60f5b42174aa93c2c1522ecf,65af559e4aa07d90bbee3ccb,2024-01-23_08h01.38.577,bars,2023.2.3,Win32,58.82352941,657b66ea316d21385b68909f,,,,,,,,,,,428.699,429.699,,,430.198,430.449,,8,8,,,,,,,,,,,,,,,,bars/014.png,bars/mask002.png,,,,,,,,,,,,1,2,,,,,,,3,2,3,1,,,,,,,,,,,429.699,430.198,430.449,434.284,space,3.816,,434.284,72,8,435.281,435.281,437.697,space,2.385,,0,15,15,15,1,80,0,,,,,,,,
,,60f5b42174aa93c2c1522ecf,65af559e4aa07d90bbee3ccb,2024-01-23_08h01.38.577,bars,2023.2.3,Win32,58.82352941,657b66ea316d21385b68909f,,,,,,,,,,,437.697,438.697,,,439.197,439.447,,99,99,,,,,,,,,,,,,,,,bars/027.png,bars/mask000.png,,,,,,,,,,,,2,1,,,,,,,1,0,3,0,,,,,,,,,,,438.697,439.197,439.447,441.599,space,2.134,,441.6,11,49,442.597,442.597,448.399,space,5.783,,0,16,16,16,1,110,50,,,,,,,,
,,60f5b42174aa93c2c1522ecf,65af559e4aa07d90bbee3ccb,2024-01-23_08h01.38.577,bars,2023.2.3,Win32,58.82352941,657b66ea316d21385b68909f,,,,,,,,,,,448.412,449.411,,,449.912,450.162,,93,93,,,,,,,,,,,,,,,,bars/006.png,bars/mask006.png,,,,,,,,,,,,1,2,,,,,,,0,2,0,1,,,,,,,,,,,449.411,449.912,450.162,454.111,space,3.935,,454.111,58,7,455.111,455.111,457.047,space,1.913,,0,17,17,17,1,35,100,,,,,,,,
,,60f5b42174aa93c2c1522ecf,65af559e4aa07d90bbee3ccb,2024-01-23_08h01.38.577,bars,2023.2.3,Win32,58.82352941,657b66ea316d21385b68909f,,,,,,,,,,,457.047,458.044,,,458.544,458.794,,161,-19,,,,,,,,,,,,,,,,bars/011.png,bars/mask006.png,,,,,,,,,,,,2,1,,,,,,,2,4,2,5,,,,,,,,,,,458.044,458.544,458.794,461.063,space,2.249,,461.063,1,76,462.06,462.06,463.696,space,1.615,,0,18,18,18,1,160,85,,,,,,,,
,,60f5b42174aa93c2c1522ecf,65af559e4aa07d90bbee3ccb,2024-01-23_08h01.38.577,bars,2023.2.3,Win32,58.82352941,657b66ea316d21385b68909f,,,,,,,,,,,463.696,464.692,,,465.193,465.442,,85,85,,,,,,,,,,,,,,,,bars/026.png,bars/mask001.png,,,,,,,,,,,,2,2,,,,,,,0,2,0,2,,,,,,,,,,,464.692,465.192,465.442,468.243,space,2.775,,468.243,50,0,469.244,469.244,472.691,space,3.423,,0,19,19,19,1,35,85,,,,,,,,
,,60f5b42174aa93c2c1522ecf,65af559e4aa07d90bbee3ccb,2024-01-23_08h01.38.577,bars,2023.2.3,Win32,58.82352941,657b66ea316d21385b68909f,,,,,,,,,,,472.692,473.691,,,474.191,474.443,,58,58,,,,,,,,,,,,,,,,bars/029.png,bars/mask004.png,,,,,,,,,,,,2,2,,,,,,,0,4,0,4,,,,,,,,,,,473.691,474.191,474.443,478.124,space,3.662,,478.124,32,13,479.123,479.123,480.926,space,1.783,,0,20,20,20,1,90,45,,,,,,,,
,,60f5b42174aa93c2c1522ecf,65af559e4aa07d90bbee3ccb,2024-01-23_08h01.38.577,bars,2023.2.3,Win32,58.82352941,657b66ea316d21385b68909f,,,,,,,,,,,480.926,481.923,,,482.423,482.673,,106,106,,,,,,,,,,,,,,,,bars/012.png,bars/mask003.png,,,,,,,,,,,,0,1,,,,,,,0,6,1,7,,,,,,,,,,,481.923,482.423,482.673,484.043,space,1.35,,484.043,16,89,485.039,485.04,489.725,space,4.665,,0,21,21,21,1,90,15,,,,,,,,
,,60f5b42174aa93c2c1522ecf,65af559e4aa07d90bbee3ccb,2024-01-23_08h01.38.577,bars,2023.2.3,Win32,58.82352941,657b66ea316d21385b68909f,,,,,,,,,,,489.737,490.738,,,491.238,491.491,,90,90,,,,,,,,,,,,,,,,bars/019.png,bars/mask004.png,,,,,,,,,,,,3,2,,,,,,,0,4,0,5,,,,,,,,,,,490.738,491.238,491.491,495.507,space,4,,495.507,45,15,496.504,496.505,497.64,space,1.116,,0,22,22,22,1,45,105,,,,,,,,
,,60f5b42174aa93c2c1522ecf,65af559e4aa07d90bbee3ccb,2024-01-23_08h01.38.577,bars,2023.2.3,Win32,58.82352941,657b66ea316d21385b68909f,,,,,,,,,,,497.641,498.639,,,499.137,499.386,,33,33,,,,,,,,,,,,,,,,bars/000.png,bars/mask002.png,,,,,,,,,,,,1,1,,,,,,,0,6,1,6,,,,,,,,,,,498.639,499.137,499.387,501.573,space,2.167,,501.573,7,68,502.57,502.57,505.086,space,2.485,,0,23,23,23,1,40,145,,,,,,,,
,,60f5b42174aa93c2c1522ecf,65af559e4aa07d90bbee3ccb,2024-01-23_08h01.38.577,bars,2023.2.3,Win32,58.82352941,657b66ea316d21385b68909f,,,,,,,,,,,505.099,506.102,,,506.586,506.836,,149,149,,,,,,,,,,,,,,,,bars/005.png,bars/mask008.png,,,,,,,,,,,,4,2,,,,,,,0,4,1,6,,,,,,,,,,,506.102,506.586,506.836,510.138,space,3.283,,510.138,41,9,511.136,511.136,512.835,space,1.678,,0,24,24,24,1,10,140,,,,,,,,
,,60f5b42174aa93c2c1522ecf,65af559e4aa07d90bbee3ccb,2024-01-23_08h01.38.577,bars,2023.2.3,Win32,58.82352941,657b66ea316d21385b68909f,,,,,,,,,,,512.836,513.836,,,514.335,514.584,,122,122,,,,,,,,,,,,,,,,bars/020.png,bars/mask002.png,,,,,,,,,,,,0,1,,,,,,,0,2,0,1,,,,,,,,,,,513.836,514.335,514.584,517.684,space,3.075,,517.684,7,48,518.684,518.684,519.936,space,1.231,,0,25,25,25,1,115,170,,,,,,,,
,,60f5b42174aa93c2c1522ecf,65af559e4aa07d90bbee3ccb,2024-01-23_08h01.38.577,bars,2023.2.3,Win32,58.82352941,657b66ea316d21385b68909f,,,,,,,,,,,519.936,520.933,,,521.434,521.684,,75,75,,,,,,,,,,,,,,,,bars/001.png,bars/mask009.png,,,,,,,,,,,,3,2,,,,,,,2,4,4,4,,,,,,,,,,,520.934,521.433,521.684,523.486,space,1.783,,523.486,55,10,524.483,524.483,527.236,space,2.734,,0,26,26,26,1,130,85,,,,,,,,
,,60f5b42174aa93c2c1522ecf,65af559e4aa07d90bbee3ccb,2024-01-23_08h01.38.577,bars,2023.2.3,Win32,58.82352941,657b66ea316d21385b68909f,,,,,,,,,,,527.236,528.233,,,528.732,528.983,,23,203,,,,,,,,,,,,,,,,bars/000.png,bars/mask009.png,,,,,,,,,,,,0,1,,,,,,,0,2,0,5,,,,,,,,,,,528.233,528.732,528.983,531.251,space,2.25,,531.251,17,58,532.248,532.248,535.315,space,3.034,,0,27,27,27,1,40,145,,,,,,,,
,,60f5b42174aa93c2c1522ecf,65af559e4aa07d90bbee3ccb,2024-01-23_08h01.38.577,bars,2023.2.3,Win32,58.82352941,657b66ea316d21385b68909f,,,,,,,,,,,535.328,536.316,,,536.814,537.065,,124,124,,,,,,,,,,,,,,,,bars/004.png,bars/mask008.png,,,,,,,,,,,,4,2,,,,,,,2,4,1,4,,,,,,,,,,,536.316,536.814,537.065,539.15,space,2.067,,539.15,81,1,540.147,540.147,541.93,space,1.754,,0,28,28,28,1,25,125,,,,,,,,
,,60f5b42174aa93c2c1522ecf,65af559e4aa07d90bbee3ccb,2024-01-23_08h01.38.577,bars,2023.2.3,Win32,58.82352941,657b66ea316d21385b68909f,,,,,,,,,,,541.931,542.93,,,543.429,543.68,,16,196,,,,,,,,,,,,,,,,bars/024.png,bars/mask000.png,,,,,,,,,,,,0,2,,,,,,,0,2,0,3,,,,,,,,,,,542.93,543.429,543.68,545.48,space,1.771,,545.48,76,26,546.481,546.481,548.895,space,2.384,,0,29,29,29,1,120,170,,,,,,,,
,,60f5b42174aa93c2c1522ecf,65af559e4aa07d90bbee3ccb,2024-01-23_08h01.38.577,bars,2023.2.3,Win32,58.82352941,657b66ea316d21385b68909f,,,,,,,,,,,548.897,549.895,,,550.395,550.648,,122,-58,,,,,,,,,,,,,,,,bars/040.png,bars/mask001.png,,,,,,,,,,,,0,1,,,,,,,0,4,0,6,,,,,,,,,,,549.895,550.395,550.648,553.878,space,3.204,,553.878,18,63,554.88,554.88,555.811,space,0.908,,0,30,30,30,1,140,5,,,,,,,,
,,60f5b42174aa93c2c1522ecf,65af559e4aa07d90bbee3ccb,2024-01-23_08h01.38.577,bars,2023.2.3,Win32,58.82352941,657b66ea316d21385b68909f,,,,,,,,,,,555.811,556.812,,,557.31,557.561,,141,141,,,,,,,,,,,,,,,,bars/046.png,bars/mask003.png,,,,,,,,,,,,1,1,,,,,,,0,2,1,1,,,,,,,,,,,556.812,557.31,557.561,558.994,space,1.406,,558.994,14,56,559.993,559.993,561.095,space,1.078,,0,31,31,31,1,155,85,,,,,,,,
,,60f5b42174aa93c2c1522ecf,65af559e4aa07d90bbee3ccb,2024-01-23_08h01.38.577,bars,2023.2.3,Win32,58.82352941,657b66ea316d21385b68909f,,,,,,,,,,,561.096,562.094,,,562.594,562.843,,7,7,,,,,,,,,,,,,,,,bars/045.png,bars/mask003.png,,,,,,,,,,,,5,2,,,,,,,2,4,1,5,,,,,,,,,,,562.094,562.593,562.843,564.612,space,1.75,,564.612,87,3,565.611,565.611,567.976,space,2.344,,0,32,32,32,1,100,10,,,,,,,,
,,60f5b42174aa93c2c1522ecf,65af559e4aa07d90bbee3ccb,2024-01-23_08h01.38.577,bars,2023.2.3,Win32,58.82352941,657b66ea316d21385b68909f,,,,,,,,,,,567.978,568.976,,,569.476,569.725,,63,63,,,,,,,,,,,,,,,,bars/047.png,bars/mask009.png,,,,,,,,,,,,3,2,,,,,,,4,2,2,4,,,,,,,,,,,568.976,569.475,569.725,571.125,space,1.37,,571.125,48,7,572.125,572.125,573.009,space,0.854,,0,33,33,33,1,15,70,,,,,,,,
,,60f5b42174aa93c2c1522ecf,65af559e4aa07d90bbee3ccb,2024-01-23_08h01.38.577,bars,2023.2.3,Win32,58.82352941,657b66ea316d21385b68909f,,,,,,,,,,,573.009,574.01,,,574.509,574.758,,110,110,,,,,,,,,,,,,,,,bars/012.png,bars/mask002.png,,,,,,,,,,,,0,1,,,,,,,2,4,0,3,,,,,,,,,,,574.01,574.509,574.758,578.394,space,3.617,,578.394,20,85,579.391,579.391,580.057,space,0.638,,0,34,34,34,1,90,15,,,,,,,,
,,60f5b42174aa93c2c1522ecf,65af559e4aa07d90bbee3ccb,2024-01-23_08h01.38.577,bars,2023.2.3,Win32,58.82352941,657b66ea316d21385b68909f,,,,,,,,,,,580.058,581.057,,,581.557,581.806,,18,18,,,,,,,,,,,,,,,,bars/014.png,bars/mask004.png,,,,,,,,,,,,2,2,,,,,,,0,6,0,6,,,,,,,,,,,581.057,581.557,581.806,583.158,space,1.348,,583.158,62,18,584.156,584.156,585.423,space,1.232,,0,35,35,35,1,80,0,,,,,,,,
,,60f5b42174aa93c2c1522ecf,65af559e4aa07d90bbee3ccb,2024-01-23_08h01.38.577,bars,2023.2.3,Win32,58.82352941,657b66ea316d21385b68909f,,,,,,,,,,,585.423,586.423,,,586.922,587.175,,62,62,,,,,,,,,,,,,,,,bars/000.png,bars/mask001.png,,,,,,,,,,,,0,1,,,,,,,0,4,0,3,,,,,,,,,,,586.423,586.922,587.175,590.408,space,3.217,,590.408,22,83,591.405,591.405,593.255,space,1.819,,0,36,36,36,1,40,145,,,,,,,,
,,60f5b42174aa93c2c1522ecf,65af559e4aa07d90bbee3ccb,2024-01-23_08h01.38.577,bars,2023.2.3,Win32,58.82352941,657b66ea316d21385b68909f,,,,,,,,,,,593.256,594.256,,,594.755,595.004,,133,133,,,,,,,,,,,,,,,,bars/037.png,bars/mask001.png,,,,,,,,,,,,0,1,,,,,,,0,6,0,5,,,,,,,,,,,594.256,594.754,595.004,598.104,space,3.076,,598.104,17,28,599.104,599.104,603.289,space,4.166,,0,37,37,37,1,150,105,,,,,,,,
,,60f5b42174aa93c2c1522ecf,65af559e4aa07d90bbee3ccb,2024-01-23_08h01.38.577,bars,2023.2.3,Win32,58.82352941,657b66ea316d21385b68909f,,,,,,,,,,,603.302,604.305,,,604.803,605.053,,15,195,,,,,,,,,,,,,,,,bars/036.png,bars/mask008.png,,,,,,,,,,,,5,2,,,,,,,0,4,0,6,,,,,,,,,,,604.305,604.803,605.053,607.288,space,2.216,,607.288,50,5,608.286,608.286,609.053,space,0.733,,0,38,38,38,1,145,20,,,,,,,,
,,60f5b42174aa93c2c1522ecf,65af559e4aa07d90bbee3ccb,2024-01-23_08h01.38.577,bars,2023.2.3,Win32,58.82352941,657b66ea316d21385b68909f,,,,,,,,,,,609.053,610.054,,,610.552,610.802,,55,55,,,,,,,,,,,,,,,,bars/030.png,bars/mask005.png,,,,,,,,,,,,1,2,,,,,,,2,2,1,2,,,,,,,,,,,610.054,610.552,610.802,612.902,space,2.08,,612.902,85,10,613.901,613.901,614.618,space,0.687,,0,39,39,39,1,140,65,,,,,,,,
,,60f5b42174aa93c2c1522ecf,65af559e4aa07d90bbee3ccb,2024-01-23_08h01.38.577,bars,2023.2.3,Win32,58.82352941,657b66ea316d21385b68909f,,,,,,,,,,,614.619,615.62,,,616.118,616.368,,55,55,,,,,,,,,,,,,,,,bars/014.png,bars/mask009.png,,,,,,,,,,,,1,1,,,,,,,4,4,4,3,,,,,,,,,,,615.62,616.117,616.368,618.604,space,2.217,,618.604,25,55,619.601,619.601,620.534,space,0.902,,0,40,40,40,1,80,0,,,,,,,,
,,60f5b42174aa93c2c1522ecf,65af559e4aa07d90bbee3ccb,2024-01-23_08h01.38.577,bars,2023.2.3,Win32,58.82352941,657b66ea316d21385b68909f,,,,,,,,,,,620.534,621.533,,,622.036,622.284,,38,218,,,,,,,,,,,,,,,,bars/035.png,bars/mask001.png,,,,,,,,,,,,1,2,,,,,,,6,2,5,3,,,,,,,,,,,621.533,622.036,622.284,627.036,space,4.749,,627.036,43,22,628.033,628.033,631.485,space,3.431,,0,41,41,41,1,175,60,,,,,,,,
,,60f5b42174aa93c2c1522ecf,65af559e4aa07d90bbee3ccb,2024-01-23_08h01.38.577,bars,2023.2.3,Win32,58.82352941,657b66ea316d21385b68909f,,,,,,,,,,,631.485,632.482,,,632.982,633.232,,127,127,,,,,,,,,,,,,,,,bars/024.png,bars/mask005.png,,,,,,,,,,,,3,1,,,,,,,4,4,4,3,,,,,,,,,,,632.482,632.982,633.232,634.982,space,1.724,,634.982,7,43,635.981,635.982,637.301,space,1.301,,0,42,42,42,1,120,170,,,,,,,,
,,60f5b42174aa93c2c1522ecf,65af559e4aa07d90bbee3ccb,2024-01-23_08h01.38.577,bars,2023.2.3,Win32,58.82352941,657b66ea316d21385b68909f,,,,,,,,,,,637.301,638.298,,,638.799,639.048,,111,111,,,,,,,,,,,,,,,,bars/015.png,bars/mask008.png,,,,,,,,,,,,4,1,,,,,,,2,6,4,6,,,,,,,,,,,638.298,638.799,639.048,641.917,space,2.866,,641.917,1,49,642.913,642.914,645.314,space,2.37,,0,43,43,43,1,110,160,,,,,,,,
,,60f5b42174aa93c2c1522ecf,65af559e4aa07d90bbee3ccb,2024-01-23_08h01.38.577,bars,2023.2.3,Win32,58.82352941,657b66ea316d21385b68909f,,,,,,,,,,,645.314,646.314,,,646.814,647.064,,55,55,,,,,,,,,,,,,,,,bars/007.png,bars/mask000.png,,,,,,,,,,,,3,2,,,,,,,4,4,5,3,,,,,,,,,,,646.314,646.814,647.064,650.149,space,3.068,,650.149,60,0,651.145,651.145,652.746,space,1.566,,0,44,44,44,1,175,55,,,,,,,,
,,60f5b42174aa93c2c1522ecf,65af559e4aa07d90bbee3ccb,2024-01-23_08h01.38.577,bars,2023.2.3,Win32,58.82352941,657b66ea316d21385b68909f,,,,,,,,,,,652.746,653.745,,,654.245,654.495,,68,68,,,,,,,,,,,,,,,,bars/047.png,bars/mask008.png,,,,,,,,,,,,6,2,,,,,,,6,6,5,6,,,,,,,,,,,653.745,654.245,654.495,655.345,space,0.819,,655.346,53,2,656.345,656.345,659.863,space,3.5,,0,45,45,45,1,15,70,,,,,,,,
,,60f5b42174aa93c2c1522ecf,65af559e4aa07d90bbee3ccb,2024-01-23_08h01.38.577,bars,2023.2.3,Win32,58.82352941,657b66ea316d21385b68909f,,,,,,,,,,,659.864,660.86,,,661.36,661.611,,60,60,,,,,,,,,,,,,,,,bars/048.png,bars/mask007.png,,,,,,,,,,,,2,1,,,,,,,4,4,3,5,,,,,,,,,,,660.86,661.36,661.611,664.146,space,2.517,,664.146,10,65,665.143,665.143,666.576,space,1.404,,0,46,46,46,1,50,175,,,,,,,,
,,60f5b42174aa93c2c1522ecf,65af559e4aa07d90bbee3ccb,2024-01-23_08h01.38.577,bars,2023.2.3,Win32,58.82352941,657b66ea316d21385b68909f,,,,,,,,,,,666.576,667.576,,,668.076,668.328,,126,126,,,,,,,,,,,,,,,,bars/024.png,bars/mask006.png,,,,,,,,,,,,5,1,,,,,,,6,6,6,5,,,,,,,,,,,667.576,668.076,668.328,670.478,space,2.134,,670.479,6,44,671.475,671.475,673.008,space,1.513,,0,47,47,47,1,120,170,,,,,,,,
,,60f5b42174aa93c2c1522ecf,65af559e4aa07d90bbee3ccb,2024-01-23_08h01.38.577,bars,2023.2.3,Win32,58.82352941,657b66ea316d21385b68909f,,,,,,,,,,,673.009,674.008,,,674.509,674.758,,61,61,,,,,,,,,,,,,,,,bars/042.png,bars/mask006.png,,,,,,,,,,,,5,2,,,,,,,4,8,5,9,,,,,,,,,,,674.008,674.509,674.758,676.644,space,1.867,,676.644,84,14,677.643,677.643,678.977,space,1.317,,0,48,48,48,1,145,75,,,,,,,,
,,60f5b42174aa93c2c1522ecf,65af559e4aa07d90bbee3ccb,2024-01-23_08h01.38.577,bars,2023.2.3,Win32,58.82352941,657b66ea316d21385b68909f,,,,,,,,,,,678.977,679.974,,,680.476,680.724,,150,150,,,,,,,,,,,,,,,,bars/040.png,bars/mask007.png,,,,,,,,,,,,1,1,,,,,,,2,10,2,10,,,,,,,,,,,679.974,680.476,680.724,683.243,space,2.5,,683.243,10,35,684.24,684.24,685.609,space,1.349,,0,49,49,49,1,140,5,,,,,,,,
,,60f5b42174aa93c2c1522ecf,65af559e4aa07d90bbee3ccb,2024-01-23_08h01.38.577,bars,2023.2.3,Win32,58.82352941,657b66ea316d21385b68909f,,,,,,,,,,,,,,,,,,,,,,,,,,,,,,,,,,,,,,,,,,,,,,,,,,,,,,,,,,,,,,,,,,,,,,,,,,,,,,,,,,,,,,,,,,,,,685.61,825.351,0,0,0,1,1,sequence_tables/blk022.csv
,,60f5b42174aa93c2c1522ecf,65af559e4aa07d90bbee3ccb,2024-01-23_08h01.38.577,bars,2023.2.3,Win32,58.82352941,657b66ea316d21385b68909f,,,,,,,,,,,829.909,830.898,,,831.399,831.648,,87,87,,,,,,,,,,,,,,,,bars/018.png,bars/mask001.png,,,,,,,,,,,,5,2,,,,,,,7,5,7,6,,,,,,825.374,829.903,space,4.52,,830.898,831.399,831.648,833.599,space,1.936,,833.599,63,3,834.599,834.599,834.613,,,,0,0,0,0,1,150,90,,,,,,,,
,,60f5b42174aa93c2c1522ecf,65af559e4aa07d90bbee3ccb,2024-01-23_08h01.38.577,bars,2023.2.3,Win32,58.82352941,657b66ea316d21385b68909f,,,,,,,,,,,834.613,835.615,,,836.115,836.365,,32,32,,,,,,,,,,,,,,,,bars/010.png,bars/mask009.png,,,,,,,,,,,,2,2,,,,,,,5,7,5,7,,,,,,,,,,,835.615,836.115,836.365,839.635,space,3.249,,839.635,47,23,840.633,840.633,840.645,,,,0,1,1,1,1,165,55,,,,,,,,
,,60f5b42174aa93c2c1522ecf,65af559e4aa07d90bbee3ccb,2024-01-23_08h01.38.577,bars,2023.2.3,Win32,58.82352941,657b66ea316d21385b68909f,,,,,,,,,,,840.646,841.648,,,842.149,842.397,,44,224,,,,,,,,,,,,,,,,bars/034.png,bars/mask002.png,,,,,,,,,,,,1,2,,,,,,,3,5,4,4,,,,,,,,,,,841.648,842.149,842.398,844.714,space,2.297,,844.714,81,21,845.714,845.714,845.726,,,,0,2,2,2,1,125,65,,,,,,,,
,,60f5b42174aa93c2c1522ecf,65af559e4aa07d90bbee3ccb,2024-01-23_08h01.38.577,bars,2023.2.3,Win32,58.82352941,657b66ea316d21385b68909f,,,,,,,,,,,845.727,846.73,,,847.23,847.48,,20,200,,,,,,,,,,,,,,,,bars/040.png,bars/mask003.png,,,,,,,,,,,,2,2,,,,,,,1,3,2,3,,,,,,,,,,,846.73,847.23,847.48,849.263,space,1.758,,849.263,60,15,850.263,850.263,850.276,,,,0,3,3,3,1,140,5,,,,,,,,
,,60f5b42174aa93c2c1522ecf,65af559e4aa07d90bbee3ccb,2024-01-23_08h01.38.577,bars,2023.2.3,Win32,58.82352941,657b66ea316d21385b68909f,,,,,,,,,,,850.276,851.279,,,851.78,852.029,,56,56,,,,,,,,,,,,,,,,bars/029.png,bars/mask002.png,,,,,,,,,,,,4,2,,,,,,,3,5,2,6,,,,,,,,,,,851.279,851.779,852.029,854.981,space,2.933,,854.981,34,11,855.979,855.979,855.992,,,,0,4,4,4,1,90,45,,,,,,,,
,,60f5b42174aa93c2c1522ecf,65af559e4aa07d90bbee3ccb,2024-01-23_08h01.38.577,bars,2023.2.3,Win32,58.82352941,657b66ea316d21385b68909f,,,,,,,,,,,855.992,856.997,,,857.497,857.745,,78,78,,,,,,,,,,,,,,,,bars/030.png,bars/mask005.png,,,,,,,,,,,,1,2,,,,,,,1,3,3,2,,,,,,,,,,,856.997,857.497,857.745,859.862,space,2.093,,859.862,62,13,860.861,860.861,860.874,,,,0,5,5,5,1,140,65,,,,,,,,
,,60f5b42174aa93c2c1522ecf,65af559e4aa07d90bbee3ccb,2024-01-23_08h01.38.577,bars,2023.2.3,Win32,58.82352941,657b66ea316d21385b68909f,,,,,,,,,,,860.875,861.878,,,862.377,862.63,,3,183,,,,,,,,,,,,,,,,bars/010.png,bars/mask008.png,,,,,,,,,,,,1,1,,,,,,,3,1,2,1,,,,,,,,,,,861.878,862.377,862.63,868.094,space,5.445,,868.094,18,52,869.093,869.094,869.108,,,,0,6,6,6,1,165,55,,,,,,,,
,,60f5b42174aa93c2c1522ecf,65af559e4aa07d90bbee3ccb,2024-01-23_08h01.38.577,bars,2023.2.3,Win32,58.82352941,657b66ea316d21385b68909f,,,,,,,,,,,869.108,870.11,,,870.61,870.859,,28,28,,,,,,,,,,,,,,,,bars/022.png,bars/mask007.png,,,,,,,,,,,,0,2,,,,,,,5,0,6,0,,,,,,,,,,,870.11,870.609,870.859,873.246,space,2.366,,873.246,67,8,874.242,874.243,874.256,,,,0,7,7,7,1,95,20,,,,,,,,
,,60f5b42174aa93c2c1522ecf,65af559e4aa07d90bbee3ccb,2024-01-23_08h01.38.577,bars,2023.2.3,Win32,58.82352941,657b66ea316d21385b68909f,,,,,,,,,,,874.257,875.259,,,875.759,876.008,,170,170,,,,,,,,,,,,,,,,bars/035.png,bars/mask001.png,,,,,,,,,,,,6,1,,,,,,,7,0,7,0,,,,,,,,,,,875.259,875.758,876.008,878.426,space,2.386,,878.426,5,70,879.424,879.424,879.439,,,,0,8,8,8,1,175,60,,,,,,,,
,,60f5b42174aa93c2c1522ecf,65af559e4aa07d90bbee3ccb,2024-01-23_08h01.38.577,bars,2023.2.3,Win32,58.82352941,657b66ea316d21385b68909f,,,,,,,,,,,879.439,880.443,,,880.942,881.193,,26,206,,,,,,,,,,,,,,,,bars/005.png,bars/mask004.png,,,,,,,,,,,,4,1,,,,,,,9,0,9,1,,,,,,,,,,,880.443,880.942,881.193,883.294,space,2.084,,883.294,16,66,884.291,884.291,884.304,,,,0,9,9,9,1,10,140,,,,,,,,
,,60f5b42174aa93c2c1522ecf,65af559e4aa07d90bbee3ccb,2024-01-23_08h01.38.577,bars,2023.2.3,Win32,58.82352941,657b66ea316d21385b68909f,,,,,,,,,,,884.304,885.307,,,885.81,886.059,,132,132,,,,,,,,,,,,,,,,bars/002.png,bars/mask001.png,,,,,,,,,,,,8,1,,,,,,,10,2,9,1,,,,,,,,,,,885.307,885.81,886.059,889.342,space,3.267,,889.342,2,47,890.339,890.339,890.353,,,,0,10,10,10,1,130,85,,,,,,,,
,,60f5b42174aa93c2c1522ecf,65af559e4aa07d90bbee3ccb,2024-01-23_08h01.38.577,bars,2023.2.3,Win32,58.82352941,657b66ea316d21385b68909f,,,,,,,,,,,890.353,891.357,,,891.856,892.106,,20,200,,,,,,,,,,,,,,,,bars/047.png,bars/mask002.png,,,,,,,,,,,,7,1,,,,,,,8,4,8,4,,,,,,,,,,,891.357,891.856,892.106,894.175,space,2.051,,894.175,5,50,895.174,895.174,895.187,,,,0,11,11,11,1,15,70,,,,,,,,
,,60f5b42174aa93c2c1522ecf,65af559e4aa07d90bbee3ccb,2024-01-23_08h01.38.577,bars,2023.2.3,Win32,58.82352941,657b66ea316d21385b68909f,,,,,,,,,,,895.187,896.188,,,896.689,896.939,,15,195,,,,,,,,,,,,,,,,bars/003.png,bars/mask006.png,,,,,,,,,,,,4,1,,,,,,,6,6,6,7,,,,,,,,,,,896.189,896.689,896.939,899.373,space,2.416,,899.373,10,55,900.372,900.372,900.384,,,,0,12,12,12,1,25,140,,,,,,,,
,,60f5b42174aa93c2c1522ecf,65af559e4aa07d90bbee3ccb,2024-01-23_08h01.38.577,bars,2023.2.3,Win32,58.82352941,657b66ea316d21385b68909f,,,,,,,,,,,900.385,901.388,,,901.888,902.138,,48,48,,,,,,,,,,,,,,,,bars/007.png,bars/mask005.png,,,,,,,,,,,,7,2,,,,,,,8,8,8,9,,,,,,,,,,,901.388,901.888,902.138,903.641,space,1.484,,903.641,53,7,904.637,904.637,904.652,,,,0,13,13,13,1,175,55,,,,,,,,
,,60f5b42174aa93c2c1522ecf,65af559e4aa07d90bbee3ccb,2024-01-23_08h01.38.577,bars,2023.2.3,Win32,58.82352941,657b66ea316d21385b68909f,,,,,,,,,,,904.652,905.654,,,906.154,906.403,,151,151,,,,,,,,,,,,,,,,bars/045.png,bars/mask005.png,,,,,,,,,,,,0,2,,,,,,,10,6,9,6,,,,,,,,,,,905.654,906.154,906.404,917.155,space,10.732,,917.155,51,39,918.151,918.151,918.166,,,,0,14,14,14,1,100,10,,,,,,,,
,,60f5b42174aa93c2c1522ecf,65af559e4aa07d90bbee3ccb,2024-01-23_08h01.38.577,bars,2023.2.3,Win32,58.82352941,657b66ea316d21385b68909f,,,,,,,,,,,918.166,919.169,,,919.668,919.919,,49,49,,,,,,,,,,,,,,,,bars/027.png,bars/mask002.png,,,,,,,,,,,,3,2,,,,,,,10,4,10,3,,,,,,,,,,,919.169,919.668,919.919,923.92,space,3.983,,923.92,61,1,924.917,924.917,924.93,,,,0,15,15,15,1,110,50,,,,,,,,
,,60f5b42174aa93c2c1522ecf,65af559e4aa07d90bbee3ccb,2024-01-23_08h01.38.577,bars,2023.2.3,Win32,58.82352941,657b66ea316d21385b68909f,,,,,,,,,,,924.931,925.934,,,926.433,926.685,,48,48,,,,,,,,,,,,,,,,bars/047.png,bars/mask000.png,,,,,,,,,,,,1,2,,,,,,,10,6,10,5,,,,,,,,,,,925.934,926.433,926.686,929.719,space,3.016,,929.719,33,22,930.718,930.718,930.731,,,,0,16,16,16,1,15,70,,,,,,,,
,,60f5b42174aa93c2c1522ecf,65af559e4aa07d90bbee3ccb,2024-01-23_08h01.38.577,bars,2023.2.3,Win32,58.82352941,657b66ea316d21385b68909f,,,,,,,,,,,930.731,931.733,,,932.233,932.483,,14,194,,,,,,,,,,,,,,,,bars/010.png,bars/mask002.png,,,,,,,,,,,,0,1,,,,,,,10,4,10,5,,,,,,,,,,,931.733,932.233,932.483,934.816,space,2.312,,934.816,29,41,935.817,935.817,935.833,,,,0,17,17,17,1,165,55,,,,,,,,
,,60f5b42174aa93c2c1522ecf,65af559e4aa07d90bbee3ccb,2024-01-23_08h01.38.577,bars,2023.2.3,Win32,58.82352941,657b66ea316d21385b68909f,,,,,,,,,,,935.833,936.832,,,937.332,937.582,,35,215,,,,,,,,,,,,,,,,bars/013.png,bars/mask004.png,,,,,,,,,,,,1,2,,,,,,,10,6,10,7,,,,,,,,,,,936.832,937.332,937.582,941.034,space,3.449,,941.034,40,25,942.031,942.031,942.045,,,,0,18,18,18,1,75,10,,,,,,,,
,,60f5b42174aa93c2c1522ecf,65af559e4aa07d90bbee3ccb,2024-01-23_08h01.38.577,bars,2023.2.3,Win32,58.82352941,657b66ea316d21385b68909f,,,,,,,,,,,942.045,943.033,,,943.531,943.781,,29,209,,,,,,,,,,,,,,,,bars/005.png,bars/mask000.png,,,,,,,,,,,,4,1,,,,,,,10,8,10,9,,,,,,,,,,,943.033,943.531,943.781,947.351,space,3.55,,947.351,19,69,948.346,948.346,948.361,,,,0,19,19,19,1,10,140,,,,,,,,
,,60f5b42174aa93c2c1522ecf,65af559e4aa07d90bbee3ccb,2024-01-23_08h01.38.577,bars,2023.2.3,Win32,58.82352941,657b66ea316d21385b68909f,,,,,,,,,,,948.361,949.363,,,949.863,950.113,,101,101,,,,,,,,,,,,,,,,bars/006.png,bars/mask004.png,,,,,,,,,,,,9,2,,,,,,,8,10,6,9,,,,,,,,,,,949.363,949.863,950.113,952.179,space,2.045,,952.179,66,1,953.179,953.179,953.194,,,,0,20,20,20,1,35,100,,,,,,,,
,,60f5b42174aa93c2c1522ecf,65af559e4aa07d90bbee3ccb,2024-01-23_08h01.38.577,bars,2023.2.3,Win32,58.82352941,657b66ea316d21385b68909f,,,,,,,,,,,953.194,954.196,,,954.696,954.946,,95,95,,,,,,,,,,,,,,,,bars/006.png,bars/mask003.png,,,,,,,,,,,,8,2,,,,,,,6,10,6,9,,,,,,,,,,,954.196,954.696,954.946,957.615,space,2.65,,957.615,60,5,958.612,958.612,958.625,,,,0,21,21,21,1,35,100,,,,,,,,
,,60f5b42174aa93c2c1522ecf,65af559e4aa07d90bbee3ccb,2024-01-23_08h01.38.577,bars,2023.2.3,Win32,58.82352941,657b66ea316d21385b68909f,,,,,,,,,,,958.625,959.631,,,960.129,960.379,,82,82,,,,,,,,,,,,,,,,bars/038.png,bars/mask005.png,,,,,,,,,,,,5,2,,,,,,,4,8,3,9,,,,,,,,,,,959.631,960.129,960.379,963.194,space,2.785,,963.194,83,12,964.194,964.194,964.207,,,,0,22,22,22,1,165,70,,,,,,,,
,,60f5b42174aa93c2c1522ecf,65af559e4aa07d90bbee3ccb,2024-01-23_08h01.38.577,bars,2023.2.3,Win32,58.82352941,657b66ea316d21385b68909f,,,,,,,,,,,964.207,965.211,,,965.711,965.961,,67,67,,,,,,,,,,,,,,,,bars/029.png,bars/mask000.png,,,,,,,,,,,,3,2,,,,,,,6,10,5,10,,,,,,,,,,,965.211,965.711,965.961,967.077,space,1.097,,967.077,23,22,968.077,968.077,968.078,,,,0,23,23,23,1,90,45,,,,,,,,
,,60f5b42174aa93c2c1522ecf,65af559e4aa07d90bbee3ccb,2024-01-23_08h01.38.577,bars,2023.2.3,Win32,58.82352941,657b66ea316d21385b68909f,,,,,,,,,,,968.078,969.077,,,969.577,969.828,,15,195,,,,,,,,,,,,,,,,bars/012.png,bars/mask009.png,,,,,,,,,,,,10,2,,,,,,,8,10,8,10,,,,,,,,,,,969.077,969.577,969.828,972.109,space,2.258,,972.109,75,0,973.111,973.111,973.124,,,,0,24,24,24,1,90,15,,,,,,,,
,,60f5b42174aa93c2c1522ecf,65af559e4aa07d90bbee3ccb,2024-01-23_08h01.38.577,bars,2023.2.3,Win32,58.82352941,657b66ea316d21385b68909f,,,,,,,,,,,973.124,974.126,,,974.626,974.877,,94,94,,,,,,,,,,,,,,,,bars/018.png,bars/mask009.png,,,,,,,,,,,,6,2,,,,,,,6,8,7,7,,,,,,,,,,,974.126,974.626,974.877,976.377,space,1.483,,976.377,56,4,977.375,977.375,977.377,,,,0,25,25,25,1,150,90,,,,,,,,
,,60f5b42174aa93c2c1522ecf,65af559e4aa07d90bbee3ccb,2024-01-23_08h01.38.577,bars,2023.2.3,Win32,58.82352941,657b66ea316d21385b68909f,,,,,,,,,,,977.377,978.375,,,978.875,979.125,,48,48,,,,,,,,,,,,,,,,bars/013.png,bars/mask007.png,,,,,,,,,,,,0,1,,,,,,,4,6,4,6,,,,,,,,,,,978.375,978.875,979.125,981.975,space,2.824,,981.975,27,38,982.974,982.974,982.988,,,,0,26,26,26,1,75,10,,,,,,,,
,,60f5b42174aa93c2c1522ecf,65af559e4aa07d90bbee3ccb,2024-01-23_08h01.38.577,bars,2023.2.3,Win32,58.82352941,657b66ea316d21385b68909f,,,,,,,,,,,982.989,983.991,,,984.491,984.743,,116,116,,,,,,,,,,,,,,,,bars/008.png,bars/mask000.png,,,,,,,,,,,,2,1,,,,,,,2,8,3,7,,,,,,,,,,,983.991,984.491,984.743,985.758,space,0.991,,985.758,6,64,986.758,986.758,986.77,,,,0,27,27,27,1,110,0,,,,,,,,
,,60f5b42174aa93c2c1522ecf,65af559e4aa07d90bbee3ccb,2024-01-23_08h01.38.577,bars,2023.2.3,Win32,58.82352941,657b66ea316d21385b68909f,,,,,,,,,,,986.77,987.758,,,988.259,988.507,,61,61,,,,,,,,,,,,,,,,bars/034.png,bars/mask002.png,,,,,,,,,,,,9,2,,,,,,,0,10,0,10,,,,,,,,,,,987.758,988.259,988.507,991.323,space,2.792,,991.323,64,4,992.323,992.323,992.338,,,,0,28,28,28,1,125,65,,,,,,,,
,,60f5b42174aa93c2c1522ecf,65af559e4aa07d90bbee3ccb,2024-01-23_08h01.38.577,bars,2023.2.3,Win32,58.82352941,657b66ea316d21385b68909f,,,,,,,,,,,992.338,993.34,,,993.84,994.089,,3,3,,,,,,,,,,,,,,,,bars/036.png,bars/mask009.png,,,,,,,,,,,,4,2,,,,,,,0,8,1,9,,,,,,,,,,,993.34,993.839,994.09,996.59,space,2.472,,996.59,38,17,997.589,997.589,997.602,,,,0,29,29,29,1,145,20,,,,,,,,
,,60f5b42174aa93c2c1522ecf,65af559e4aa07d90bbee3ccb,2024-01-23_08h01.38.577,bars,2023.2.3,Win32,58.82352941,657b66ea316d21385b68909f,,,,,,,,,,,997.602,998.605,,,999.106,999.357,,166,166,,,,,,,,,,,,,,,,bars/017.png,bars/mask001.png,,,,,,,,,,,,0,1,,,,,,,0,6,0,5,,,,,,,,,,,998.606,999.106,999.357,1001.474,space,2.1,,1001.474,21,59,1002.473,1002.473,1002.475,,,,0,30,30,30,1,145,45,,,,,,,,
,,60f5b42174aa93c2c1522ecf,65af559e4aa07d90bbee3ccb,2024-01-23_08h01.38.577,bars,2023.2.3,Win32,58.82352941,657b66ea316d21385b68909f,,,,,,,,,,,1002.475,1003.471,,,1003.971,1004.221,,146,-34,,,,,,,,,,,,,,,,bars/049.png,bars/mask006.png,,,,,,,,,,,,2,1,,,,,,,2,8,3,9,,,,,,,,,,,1003.471,1003.971,1004.221,1007.722,space,3.499,,1007.722,14,31,1008.721,1008.721,1008.735,,,,0,31,31,31,1,160,115,,,,,,,,
,,60f5b42174aa93c2c1522ecf,65af559e4aa07d90bbee3ccb,2024-01-23_08h01.38.577,bars,2023.2.3,Win32,58.82352941,657b66ea316d21385b68909f,,,,,,,,,,,1008.735,1009.737,,,1010.237,1010.487,,2,182,,,,,,,,,,,,,,,,bars/045.png,bars/mask009.png,,,,,,,,,,,,7,2,,,,,,,0,10,0,9,,,,,,,,,,,1009.737,1010.237,1010.487,1013.503,space,2.994,,1013.503,82,8,1014.503,1014.503,1014.517,,,,0,32,32,32,1,100,10,,,,,,,,
,,60f5b42174aa93c2c1522ecf,65af559e4aa07d90bbee3ccb,2024-01-23_08h01.38.577,bars,2023.2.3,Win32,58.82352941,657b66ea316d21385b68909f,,,,,,,,,,,1014.517,1015.519,,,1016.02,1016.269,,24,204,,,,,,,,,,,,,,,,bars/014.png,bars/mask007.png,,,,,,,,,,,,2,2,,,,,,,2,10,3,10,,,,,,,,,,,1015.519,1016.02,1016.269,1020.354,space,4.082,,1020.355,56,24,1021.351,1021.351,1021.364,,,,0,33,33,33,1,80,0,,,,,,,,
,,60f5b42174aa93c2c1522ecf,65af559e4aa07d90bbee3ccb,2024-01-23_08h01.38.577,bars,2023.2.3,Win32,58.82352941,657b66ea316d21385b68909f,,,,,,,,,,,1021.365,1022.367,,,1022.87,1023.118,,54,54,,,,,,,,,,,,,,,,bars/047.png,bars/mask009.png,,,,,,,,,,,,5,2,,,,,,,0,10,0,10,,,,,,,,,,,1022.367,1022.87,1023.118,1024.487,space,1.349,,1024.487,39,16,1025.486,1025.486,1025.499,,,,0,34,34,34,1,15,70,,,,,,,,
,,60f5b42174aa93c2c1522ecf,65af559e4aa07d90bbee3ccb,2024-01-23_08h01.38.577,bars,2023.2.3,Win32,58.82352941,657b66ea316d21385b68909f,,,,,,,,,,,1025.499,1026.501,,,1027.001,1027.25,,150,-30,,,,,,,,,,,,,,,,bars/000.png,bars/mask004.png,,,,,,,,,,,,8,2,,,,,,,2,10,2,10,,,,,,,,,,,1026.501,1027.001,1027.25,1029.271,space,2.016,,1029.271,70,5,1030.267,1030.267,1030.268,,,,0,35,35,35,1,40,145,,,,,,,,
,,60f5b42174aa93c2c1522ecf,65af559e4aa07d90bbee3ccb,2024-01-23_08h01.38.577,bars,2023.2.3,Win32,58.82352941,657b66ea316d21385b68909f,,,,,,,,,,,1030.268,1031.266,,,1031.767,1032.017,,13,13,,,,,,,,,,,,,,,,bars/022.png,bars/mask008.png,,,,,,,,,,,,8,2,,,,,,,0,10,0,10,,,,,,,,,,,1031.266,1031.767,1032.017,1034.783,space,2.743,,1034.783,82,7,1035.783,1035.783,1035.795,,,,0,36,36,36,1,95,20,,,,,,,,
,,60f5b42174aa93c2c1522ecf,65af559e4aa07d90bbee3ccb,2024-01-23_08h01.38.577,bars,2023.2.3,Win32,58.82352941,657b66ea316d21385b68909f,,,,,,,,,,,1035.795,1036.8,,,1037.299,1037.549,,17,197,,,,,,,,,,,,,,,,bars/036.png,bars/mask001.png,,,,,,,,,,,,9,2,,,,,,,0,10,1,10,,,,,,,,,,,1036.8,1037.299,1037.549,1040.668,space,3.115,,1040.668,52,3,1041.665,1041.665,1041.678,,,,0,37,37,37,1,145,20,,,,,,,,
,,60f5b42174aa93c2c1522ecf,65af559e4aa07d90bbee3ccb,2024-01-23_08h01.38.577,bars,2023.2.3,Win32,58.82352941,657b66ea316d21385b68909f,,,,,,,,,,,1041.678,1042.683,,,1043.183,1043.431,,149,-31,,,,,,,,,,,,,,,,bars/003.png,bars/mask000.png,,,,,,,,,,,,6,2,,,,,,,2,8,1,9,,,,,,,,,,,1042.683,1043.183,1043.431,1045.85,space,2.401,,1045.85,56,9,1046.847,1046.847,1046.848,,,,0,38,38,38,1,25,140,,,,,,,,
,,60f5b42174aa93c2c1522ecf,65af559e4aa07d90bbee3ccb,2024-01-23_08h01.38.577,bars,2023.2.3,Win32,58.82352941,657b66ea316d21385b68909f,,,,,,,,,,,1046.848,1047.847,,,1048.349,1048.597,,144,-36,,,,,,,,,,,,,,,,bars/030.png,bars/mask006.png,,,,,,,,,,,,3,1,,,,,,,4,10,4,10,,,,,,,,,,,1047.847,1048.349,1048.597,1051.714,space,3.096,,1051.714,4,79,1052.715,1052.715,1052.73,,,,0,39,39,39,1,140,65,,,,,,,,
,,60f5b42174aa93c2c1522ecf,65af559e4aa07d90bbee3ccb,2024-01-23_08h01.38.577,bars,2023.2.3,Win32,58.82352941,657b66ea316d21385b68909f,,,,,,,,,,,1052.73,1053.73,,,1054.229,1054.479,,46,46,,,,,,,,,,,,,,,,bars/042.png,bars/mask008.png,,,,,,,,,,,,0,2,,,,,,,6,10,6,10,,,,,,,,,,,1053.73,1054.229,1054.479,1056.979,space,2.468,,1056.979,81,29,1057.98,1057.98,1057.996,,,,0,40,40,40,1,145,75,,,,,,,,
,,60f5b42174aa93c2c1522ecf,65af559e4aa07d90bbee3ccb,2024-01-23_08h01.38.577,bars,2023.2.3,Win32,58.82352941,657b66ea316d21385b68909f,,,,,,,,,,,1057.997,1058.997,,,1059.495,1059.745,,103,103,,,,,,,,,,,,,,,,bars/019.png,bars/mask004.png,,,,,,,,,,,,9,2,,,,,,,8,10,9,10,,,,,,,,,,,1058.997,1059.495,1059.745,1061.765,space,2.016,,1061.765,58,2,1062.762,1062.762,1062.762,,,,0,41,41,41,1,45,105,,,,,,,,
,,60f5b42174aa93c2c1522ecf,65af559e4aa07d90bbee3ccb,2024-01-23_08h01.38.577,bars,2023.2.3,Win32,58.82352941,657b66ea316d21385b68909f,,,,,,,,,,,1062.763,1063.762,,,1064.261,1064.511,,47,47,,,,,,,,,,,,,,,,bars/031.png,bars/mask008.png,,,,,,,,,,,,6,2,,,,,,,6,10,4,10,,,,,,,,,,,1063.762,1064.261,1064.512,1066.397,space,1.867,,1066.397,73,12,1067.394,1067.394,1067.407,,,,0,42,42,42,1,120,35,,,,,,,,
,,60f5b42174aa93c2c1522ecf,65af559e4aa07d90bbee3ccb,2024-01-23_08h01.38.577,bars,2023.2.3,Win32,58.82352941,657b66ea316d21385b68909f,,,,,,,,,,,1067.407,1068.411,,,1068.911,1069.161,,115,115,,,,,,,,,,,,,,,,bars/028.png,bars/mask004.png,,,,,,,,,,,,7,2,,,,,,,8,8,6,8,,,,,,,,,,,1068.411,1068.911,1069.161,1072.56,space,3.37,,1072.56,70,5,1073.559,1073.559,1073.573,,,,0,43,43,43,1,45,120,,,,,,,,
,,60f5b42174aa93c2c1522ecf,65af559e4aa07d90bbee3ccb,2024-01-23_08h01.38.577,bars,2023.2.3,Win32,58.82352941,657b66ea316d21385b68909f,,,,,,,,,,,1073.573,1074.576,,,1075.077,1075.326,,131,131,,,,,,,,,,,,,,,,bars/044.png,bars/mask006.png,,,,,,,,,,,,2,2,,,,,,,6,10,5,9,,,,,,,,,,,1074.576,1075.077,1075.326,1077.029,space,1.7,,1077.029,56,24,1078.026,1078.026,1078.039,,,,0,44,44,44,1,75,155,,,,,,,,
,,60f5b42174aa93c2c1522ecf,65af559e4aa07d90bbee3ccb,2024-01-23_08h01.38.577,bars,2023.2.3,Win32,58.82352941,657b66ea316d21385b68909f,,,,,,,,,,,1078.039,1079.044,,,1079.542,1079.794,,74,74,,,,,,,,,,,,,,,,bars/014.png,bars/mask007.png,,,,,,,,,,,,2,1,,,,,,,4,8,3,8,,,,,,,,,,,1079.044,1079.542,1079.794,1082.46,space,2.649,,1082.461,6,74,1083.458,1083.458,1083.473,,,,0,45,45,45,1,80,0,,,,,,,,
,,60f5b42174aa93c2c1522ecf,65af559e4aa07d90bbee3ccb,2024-01-23_08h01.38.577,bars,2023.2.3,Win32,58.82352941,657b66ea316d21385b68909f,,,,,,,,,,,1083.473,1084.475,,,1084.974,1085.226,,3,183,,,,,,,,,,,,,,,,bars/048.png,bars/mask005.png,,,,,,,,,,,,5,2,,,,,,,2,6,3,7,,,,,,,,,,,1084.475,1084.974,1085.226,1087.508,space,2.255,,1087.508,47,8,1088.507,1088.507,1088.521,,,,0,46,46,46,1,50,175,,,,,,,,
,,60f5b42174aa93c2c1522ecf,65af559e4aa07d90bbee3ccb,2024-01-23_08h01.38.577,bars,2023.2.3,Win32,58.82352941,657b66ea316d21385b68909f,,,,,,,,,,,1088.521,1089.524,,,1090.024,1090.273,,93,93,,,,,,,,,,,,,,,,bars/039.png,bars/mask003.png,,,,,,,,,,,,2,2,,,,,,,4,4,4,4,,,,,,,,,,,1089.524,1090.024,1090.273,1091.992,space,1.7,,1091.992,82,12,1092.99,1092.99,1092.991,,,,0,47,47,47,1,175,105,,,,,,,,
,,60f5b42174aa93c2c1522ecf,65af559e4aa07d90bbee3ccb,2024-01-23_08h01.38.577,bars,2023.2.3,Win32,58.82352941,657b66ea316d21385b68909f,,,,,,,,,,,1092.991,1093.99,,,1094.491,1094.74,,178,178,,,,,,,,,,,,,,,,bars/023.png,bars/mask005.png,,,,,,,,,,,,1,1,,,,,,,2,2,3,3,,,,,,,,,,,1093.99,1094.491,1094.74,1096.607,space,1.851,,1096.607,22,63,1097.605,1097.606,1097.621,,,,0,48,48,48,1,20,115,,,,,,,,
,,60f5b42174aa93c2c1522ecf,65af559e4aa07d90bbee3ccb,2024-01-23_08h01.38.577,bars,2023.2.3,Win32,58.82352941,657b66ea316d21385b68909f,,,,,,,,,,,1097.621,1098.622,,,1099.122,1099.372,,3,3,,,,,,,,,,,,,,,,bars/012.png,bars/mask003.png,,,,,,,,,,,,0,2,,,,,,,4,0,3,0,,,,,,,,,,,1098.622,1099.122,1099.372,1101.725,space,2.349,,1101.725,87,12,1102.721,1102.721,1102.736,,,,0,49,49,49,1,90,15,,,,,,,,
,,60f5b42174aa93c2c1522ecf,65af559e4aa07d90bbee3ccb,2024-01-23_08h01.38.577,bars,2023.2.3,Win32,58.82352941,657b66ea316d21385b68909f,,,,,,,,,,,,,,,,,,,,,,,,,,,,,,,,,,,,,,,,,,,,,,,,,,,,,,,,,,,,,,,,,,,,,,,,,,,,,,,,,,,,,,,,,,,,,1102.736,1162.729,0,1,1,0,1,sequence_tables/blk007.csv
,,60f5b42174aa93c2c1522ecf,65af559e4aa07d90bbee3ccb,2024-01-23_08h01.38.577,bars,2023.2.3,Win32,58.82352941,657b66ea316d21385b68909f,,,,,,,,,,,1174.645,1175.626,,,1176.126,1176.376,,69,69,,,,,,,,,,,,,,,,bars/018.png,bars/mask009.png,,,,,,,,,,,,0,2,,,,,,,8,1,8,0,,,,,,1162.742,1174.626,space,11.868,,1175.626,1176.126,1176.376,1178.079,space,1.684,,1178.079,81,21,1179.076,1179.076,1179.089,,,,0,0,0,0,1,150,90,,,,,,,,
,,60f5b42174aa93c2c1522ecf,65af559e4aa07d90bbee3ccb,2024-01-23_08h01.38.577,bars,2023.2.3,Win32,58.82352941,657b66ea316d21385b68909f,,,,,,,,,,,1179.089,1180.092,,,1180.593,1180.842,,69,249,,,,,,,,,,,,,,,,bars/014.png,bars/mask008.png,,,,,,,,,,,,3,1,,,,,,,6,3,5,3,,,,,,,,,,,1180.092,1180.593,1180.842,1183.794,space,2.932,,1183.794,11,69,1184.792,1184.792,1184.806,,,,0,1,1,1,1,80,0,,,,,,,,
,,60f5b42174aa93c2c1522ecf,65af559e4aa07d90bbee3ccb,2024-01-23_08h01.38.577,bars,2023.2.3,Win32,58.82352941,657b66ea316d21385b68909f,,,,,,,,,,,1184.806,1185.808,,,1186.308,1186.56,,48,228,,,,,,,,,,,,,,,,bars/007.png,bars/mask003.png,,,,,,,,,,,,5,2,,,,,,,4,5,5,6,,,,,,,,,,,1185.808,1186.308,1186.56,1188.877,space,2.3,,1188.877,53,7,1189.874,1189.874,1189.889,,,,0,2,2,2,1,175,55,,,,,,,,
,,60f5b42174aa93c2c1522ecf,65af559e4aa07d90bbee3ccb,2024-01-23_08h01.38.577,bars,2023.2.3,Win32,58.82352941,657b66ea316d21385b68909f,,,,,,,,,,,1189.889,1190.89,,,1191.39,1191.642,,18,198,,,,,,,,,,,,,,,,bars/007.png,bars/mask008.png,,,,,,,,,,,,1,1,,,,,,,6,3,6,2,,,,,,,,,,,1190.89,1191.39,1191.642,1194.909,space,3.249,,1194.909,23,37,1195.906,1195.906,1195.92,,,,0,3,3,3,1,175,55,,,,,,,,
,,60f5b42174aa93c2c1522ecf,65af559e4aa07d90bbee3ccb,2024-01-23_08h01.38.577,bars,2023.2.3,Win32,58.82352941,657b66ea316d21385b68909f,,,,,,,,,,,1195.92,1196.923,,,1197.425,1197.675,,166,-14,,,,,,,,,,,,,,,,bars/014.png,bars/mask003.png,,,,,,,,,,,,0,2,,,,,,,8,1,6,0,,,,,,,,,,,1196.923,1197.425,1197.675,1200.506,space,2.802,,1200.506,86,14,1201.506,1201.506,1201.519,,,,0,4,4,4,1,80,0,,,,,,,,
,,60f5b42174aa93c2c1522ecf,65af559e4aa07d90bbee3ccb,2024-01-23_08h01.38.577,bars,2023.2.3,Win32,58.82352941,657b66ea316d21385b68909f,,,,,,,,,,,1201.52,1202.522,,,1203.021,1203.272,,109,109,,,,,,,,,,,,,,,,bars/027.png,bars/mask000.png,,,,,,,,,,,,10,1,,,,,,,10,3,10,3,,,,,,,,,,,1202.522,1203.021,1203.272,1206.174,space,2.899,,1206.174,1,59,1207.172,1207.172,1207.186,,,,0,5,5,5,1,110,50,,,,,,,,
,,60f5b42174aa93c2c1522ecf,65af559e4aa07d90bbee3ccb,2024-01-23_08h01.38.577,bars,2023.2.3,Win32,58.82352941,657b66ea316d21385b68909f,,,,,,,,,,,1207.186,1208.188,,,1208.69,1208.938,,115,115,,,,,,,,,,,,,,,,bars/032.png,bars/mask005.png,,,,,,,,,,,,5,1,,,,,,,8,1,8,0,,,,,,,,,,,1208.188,1208.69,1208.938,1211.957,space,3,,1211.957,10,85,1212.954,1212.954,1212.967,,,,0,6,6,6,1,125,20,,,,,,,,
,,60f5b42174aa93c2c1522ecf,65af559e4aa07d90bbee3ccb,2024-01-23_08h01.38.577,bars,2023.2.3,Win32,58.82352941,657b66ea316d21385b68909f,,,,,,,,,,,1212.967,1213.97,,,1214.47,1214.72,,97,97,,,,,,,,,,,,,,,,bars/015.png,bars/mask005.png,,,,,,,,,,,,3,1,,,,,,,6,0,6,0,,,,,,,,,,,1213.97,1214.47,1214.72,1217.12,space,2.371,,1217.12,13,63,1218.121,1218.121,1218.133,,,,0,7,7,7,1,110,160,,,,,,,,
,,60f5b42174aa93c2c1522ecf,65af559e4aa07d90bbee3ccb,2024-01-23_08h01.38.577,bars,2023.2.3,Win32,58.82352941,657b66ea316d21385b68909f,,,,,,,,,,,1218.133,1219.136,,,1219.636,1219.887,,99,99,,,,,,,,,,,,,,,,bars/026.png,bars/mask008.png,,,,,,,,,,,,0,2,,,,,,,4,0,6,0,,,,,,,,,,,1219.136,1219.636,1219.887,1221.905,space,2.001,,1221.905,64,14,1222.902,1222.902,1222.904,,,,0,8,8,8,1,35,85,,,,,,,,
,,60f5b42174aa93c2c1522ecf,65af559e4aa07d90bbee3ccb,2024-01-23_08h01.38.577,bars,2023.2.3,Win32,58.82352941,657b66ea316d21385b68909f,,,,,,,,,,,1222.904,1223.901,,,1224.402,1224.652,,115,115,,,,,,,,,,,,,,,,bars/041.png,bars/mask005.png,,,,,,,,,,,,0,2,,,,,,,6,0,6,0,,,,,,,,,,,1223.901,1224.402,1224.652,1227.67,space,3,,1227.67,85,30,1228.668,1228.668,1228.681,,,,0,9,9,9,1,20,85,,,,,,,,
,,60f5b42174aa93c2c1522ecf,65af559e4aa07d90bbee3ccb,2024-01-23_08h01.38.577,bars,2023.2.3,Win32,58.82352941,657b66ea316d21385b68909f,,,,,,,,,,,1228.681,1229.686,,,1230.184,1230.436,,153,153,,,,,,,,,,,,,,,,bars/038.png,bars/mask000.png,,,,,,,,,,,,5,1,,,,,,,8,2,8,3,,,,,,,,,,,1229.686,1230.184,1230.436,1233.486,space,3.033,,1233.486,12,83,1234.483,1234.483,1234.498,,,,0,10,10,10,1,165,70,,,,,,,,
,,60f5b42174aa93c2c1522ecf,65af559e4aa07d90bbee3ccb,2024-01-23_08h01.38.577,bars,2023.2.3,Win32,58.82352941,657b66ea316d21385b68909f,,,,,,,,,,,1234.498,1235.5,,,1235.999,1236.252,,153,153,,,,,,,,,,,,,,,,bars/024.png,bars/mask008.png,,,,,,,,,,,,0,2,,,,,,,6,0,7,0,,,,,,,,,,,1235.5,1235.999,1236.252,1239.633,space,3.36,,1239.633,33,17,1240.632,1240.633,1240.646,,,,0,11,11,11,1,120,170,,,,,,,,
,,60f5b42174aa93c2c1522ecf,65af559e4aa07d90bbee3ccb,2024-01-23_08h01.38.577,bars,2023.2.3,Win32,58.82352941,657b66ea316d21385b68909f,,,,,,,,,,,1240.646,1241.651,,,1242.149,1242.399,,81,81,,,,,,,,,,,,,,,,bars/021.png,bars/mask000.png,,,,,,,,,,,,1,2,,,,,,,4,2,5,2,,,,,,,,,,,1241.651,1242.149,1242.399,1244.901,space,2.484,,1244.901,74,11,1245.899,1245.899,1245.916,,,,0,12,12,12,1,155,70,,,,,,,,
,,60f5b42174aa93c2c1522ecf,65af559e4aa07d90bbee3ccb,2024-01-23_08h01.38.577,bars,2023.2.3,Win32,58.82352941,657b66ea316d21385b68909f,,,,,,,,,,,1245.916,1246.916,,,1247.414,1247.664,,94,94,,,,,,,,,,,,,,,,bars/002.png,bars/mask003.png,,,,,,,,,,,,0,2,,,,,,,6,0,7,0,,,,,,,,,,,1246.916,1247.414,1247.664,1250.481,space,2.786,,1250.481,36,9,1251.481,1251.481,1251.494,,,,0,13,13,13,1,130,85,,,,,,,,
,,60f5b42174aa93c2c1522ecf,65af559e4aa07d90bbee3ccb,2024-01-23_08h01.38.577,bars,2023.2.3,Win32,58.82352941,657b66ea316d21385b68909f,,,,,,,,,,,1251.494,1252.482,,,1252.981,1253.23,,2,2,,,,,,,,,,,,,,,,bars/041.png,bars/mask000.png,,,,,,,,,,,,3,1,,,,,,,8,2,7,2,,,,,,,,,,,1252.482,1252.98,1253.23,1256.666,space,3.417,,1256.666,18,83,1257.662,1257.663,1257.677,,,,0,14,14,14,1,20,85,,,,,,,,
,,60f5b42174aa93c2c1522ecf,65af559e4aa07d90bbee3ccb,2024-01-23_08h01.38.577,bars,2023.2.3,Win32,58.82352941,657b66ea316d21385b68909f,,,,,,,,,,,1257.677,1258.68,,,1259.182,1259.429,,104,284,,,,,,,,,,,,,,,,bars/002.png,bars/mask007.png,,,,,,,,,,,,2,2,,,,,,,10,4,10,6,,,,,,,,,,,1258.68,1259.182,1259.429,1263.948,space,4.515,,1263.948,26,19,1264.945,1264.945,1264.961,,,,0,15,15,15,1,130,85,,,,,,,,
,,60f5b42174aa93c2c1522ecf,65af559e4aa07d90bbee3ccb,2024-01-23_08h01.38.577,bars,2023.2.3,Win32,58.82352941,657b66ea316d21385b68909f,,,,,,,,,,,1264.961,1265.963,,,1266.463,1266.711,,76,76,,,,,,,,,,,,,,,,bars/038.png,bars/mask000.png,,,,,,,,,,,,2,2,,,,,,,10,2,10,2,,,,,,,,,,,1265.963,1266.463,1266.711,1268.58,space,1.85,,1268.58,89,6,1269.578,1269.578,1269.59,,,,0,16,16,16,1,165,70,,,,,,,,
,,60f5b42174aa93c2c1522ecf,65af559e4aa07d90bbee3ccb,2024-01-23_08h01.38.577,bars,2023.2.3,Win32,58.82352941,657b66ea316d21385b68909f,,,,,,,,,,,1269.591,1270.594,,,1271.094,1271.346,,54,54,,,,,,,,,,,,,,,,bars/026.png,bars/mask009.png,,,,,,,,,,,,2,1,,,,,,,8,0,6,0,,,,,,,,,,,1270.594,1271.094,1271.346,1272.394,space,1.022,,1272.394,19,31,1273.394,1273.394,1273.396,,,,0,17,17,17,1,35,85,,,,,,,,
,,60f5b42174aa93c2c1522ecf,65af559e4aa07d90bbee3ccb,2024-01-23_08h01.38.577,bars,2023.2.3,Win32,58.82352941,657b66ea316d21385b68909f,,,,,,,,,,,1273.396,1274.393,,,1274.895,1275.143,,130,130,,,,,,,,,,,,,,,,bars/002.png,bars/mask008.png,,,,,,,,,,,,10,1,,,,,,,10,2,10,3,,,,,,,,,,,1274.393,1274.895,1275.144,1276.629,space,1.467,,1276.629,0,45,1277.626,1277.626,1277.639,,,,0,18,18,18,1,130,85,,,,,,,,
,,60f5b42174aa93c2c1522ecf,65af559e4aa07d90bbee3ccb,2024-01-23_08h01.38.577,bars,2023.2.3,Win32,58.82352941,657b66ea316d21385b68909f,,,,,,,,,,,1277.639,1278.628,,,1279.126,1279.377,,138,138,,,,,,,,,,,,,,,,bars/008.png,bars/mask008.png,,,,,,,,,,,,1,1,,,,,,,10,4,10,7,,,,,,,,,,,1278.628,1279.126,1279.377,1282.726,space,3.325,,1282.726,28,42,1283.726,1283.726,1283.743,,,,0,19,19,19,1,110,0,,,,,,,,
,,60f5b42174aa93c2c1522ecf,65af559e4aa07d90bbee3ccb,2024-01-23_08h01.38.577,bars,2023.2.3,Win32,58.82352941,657b66ea316d21385b68909f,,,,,,,,,,,1283.743,1284.742,,,1285.242,1285.492,,50,50,,,,,,,,,,,,,,,,bars/034.png,bars/mask007.png,,,,,,,,,,,,3,2,,,,,,,8,6,8,5,,,,,,,,,,,1284.742,1285.242,1285.492,1286.858,space,1.36,,1286.859,75,15,1287.858,1287.858,1287.872,,,,0,20,20,20,1,125,65,,,,,,,,
,,60f5b42174aa93c2c1522ecf,65af559e4aa07d90bbee3ccb,2024-01-23_08h01.38.577,bars,2023.2.3,Win32,58.82352941,657b66ea316d21385b68909f,,,,,,,,,,,1287.872,1288.874,,,1289.374,1289.624,,77,77,,,,,,,,,,,,,,,,bars/029.png,bars/mask006.png,,,,,,,,,,,,3,1,,,,,,,6,8,6,8,,,,,,,,,,,1288.874,1289.374,1289.624,1291.96,space,2.333,,1291.96,13,32,1292.957,1292.957,1292.971,,,,0,21,21,21,1,90,45,,,,,,,,
,,60f5b42174aa93c2c1522ecf,65af559e4aa07d90bbee3ccb,2024-01-23_08h01.38.577,bars,2023.2.3,Win32,58.82352941,657b66ea316d21385b68909f,,,,,,,,,,,1292.971,1293.974,,,1294.473,1294.725,,169,-11,,,,,,,,,,,,,,,,bars/007.png,bars/mask005.png,,,,,,,,,,,,3,1,,,,,,,4,6,4,7,,,,,,,,,,,1293.974,1294.473,1294.725,1297.256,space,2.51,,1297.256,6,66,1298.256,1298.256,1298.269,,,,0,22,22,22,1,175,55,,,,,,,,
,,60f5b42174aa93c2c1522ecf,65af559e4aa07d90bbee3ccb,2024-01-23_08h01.38.577,bars,2023.2.3,Win32,58.82352941,657b66ea316d21385b68909f,,,,,,,,,,,1298.269,1299.273,,,1299.773,1300.023,,19,19,,,,,,,,,,,,,,,,bars/025.png,bars/mask002.png,,,,,,,,,,,,1,2,,,,,,,6,4,7,4,,,,,,,,,,,1299.273,1299.773,1300.023,1301.422,space,1.393,,1301.422,86,21,1302.424,1302.424,1302.426,,,,0,23,23,23,1,105,40,,,,,,,,
,,60f5b42174aa93c2c1522ecf,65af559e4aa07d90bbee3ccb,2024-01-23_08h01.38.577,bars,2023.2.3,Win32,58.82352941,657b66ea316d21385b68909f,,,,,,,,,,,1302.427,1303.422,,,1303.922,1304.174,,179,179,,,,,,,,,,,,,,,,bars/010.png,bars/mask009.png,,,,,,,,,,,,2,1,,,,,,,4,6,4,5,,,,,,,,,,,1303.422,1303.922,1304.174,1307.305,space,3.113,,1307.305,14,56,1308.306,1308.306,1308.321,,,,0,24,24,24,1,165,55,,,,,,,,
,,60f5b42174aa93c2c1522ecf,65af559e4aa07d90bbee3ccb,2024-01-23_08h01.38.577,bars,2023.2.3,Win32,58.82352941,657b66ea316d21385b68909f,,,,,,,,,,,1308.322,1309.323,,,1309.821,1310.07,,170,-10,,,,,,,,,,,,,,,,bars/049.png,bars/mask008.png,,,,,,,,,,,,3,1,,,,,,,6,8,5,7,,,,,,,,,,,1309.323,1309.821,1310.07,1312.19,space,2.1,,1312.19,10,55,1313.187,1313.187,1313.188,,,,0,25,25,25,1,160,115,,,,,,,,
,,60f5b42174aa93c2c1522ecf,65af559e4aa07d90bbee3ccb,2024-01-23_08h01.38.577,bars,2023.2.3,Win32,58.82352941,657b66ea316d21385b68909f,,,,,,,,,,,1313.188,1314.187,,,1314.687,1314.937,,69,69,,,,,,,,,,,,,,,,bars/029.png,bars/mask003.png,,,,,,,,,,,,1,1,,,,,,,4,10,4,9,,,,,,,,,,,1314.187,1314.687,1314.937,1316.589,space,1.633,,1316.59,21,24,1317.586,1317.586,1317.587,,,,0,26,26,26,1,90,45,,,,,,,,
,,60f5b42174aa93c2c1522ecf,65af559e4aa07d90bbee3ccb,2024-01-23_08h01.38.577,bars,2023.2.3,Win32,58.82352941,657b66ea316d21385b68909f,,,,,,,,,,,1317.588,1318.586,,,1319.086,1319.336,,133,133,,,,,,,,,,,,,,,,bars/046.png,bars/mask007.png,,,,,,,,,,,,2,1,,,,,,,6,10,6,10,,,,,,,,,,,1318.586,1319.086,1319.336,1321.003,space,1.653,,1321.003,22,48,1322.002,1322.002,1322.015,,,,0,27,27,27,1,155,85,,,,,,,,
,,60f5b42174aa93c2c1522ecf,65af559e4aa07d90bbee3ccb,2024-01-23_08h01.38.577,bars,2023.2.3,Win32,58.82352941,657b66ea316d21385b68909f,,,,,,,,,,,1322.015,1323.018,,,1323.519,1323.77,,51,51,,,,,,,,,,,,,,,,bars/030.png,bars/mask001.png,,,,,,,,,,,,5,2,,,,,,,4,8,4,9,,,,,,,,,,,1323.018,1323.519,1323.77,1327.438,space,3.651,,1327.438,89,14,1328.436,1328.436,1328.452,,,,0,28,28,28,1,140,65,,,,,,,,
,,60f5b42174aa93c2c1522ecf,65af559e4aa07d90bbee3ccb,2024-01-23_08h01.38.577,bars,2023.2.3,Win32,58.82352941,657b66ea316d21385b68909f,,,,,,,,,,,1328.452,1329.453,,,1329.952,1330.201,,77,77,,,,,,,,,,,,,,,,bars/018.png,bars/mask003.png,,,,,,,,,,,,6,2,,,,,,,6,10,6,10,,,,,,,,,,,1329.453,1329.951,1330.201,1331.637,space,1.432,,1331.637,73,13,1332.634,1332.634,1332.647,,,,0,29,29,29,1,150,90,,,,,,,,
,,60f5b42174aa93c2c1522ecf,65af559e4aa07d90bbee3ccb,2024-01-23_08h01.38.577,bars,2023.2.3,Win32,58.82352941,657b66ea316d21385b68909f,,,,,,,,,,,1332.647,1333.651,,,1334.152,1334.401,,105,105,,,,,,,,,,,,,,,,bars/023.png,bars/mask006.png,,,,,,,,,,,,5,2,,,,,,,8,8,7,7,,,,,,,,,,,1333.651,1334.152,1334.401,1336.483,space,2.051,,1336.483,85,10,1337.483,1337.483,1337.484,,,,0,30,30,30,1,20,115,,,,,,,,
,,60f5b42174aa93c2c1522ecf,65af559e4aa07d90bbee3ccb,2024-01-23_08h01.38.577,bars,2023.2.3,Win32,58.82352941,657b66ea316d21385b68909f,,,,,,,,,,,1337.484,1338.483,,,1338.985,1339.235,,102,102,,,,,,,,,,,,,,,,bars/023.png,bars/mask006.png,,,,,,,,,,,,5,2,,,,,,,10,6,10,8,,,,,,,,,,,1338.483,1338.985,1339.235,1342.366,space,3.103,,1342.366,82,13,1343.365,1343.365,1343.378,,,,0,31,31,31,1,20,115,,,,,,,,
,,60f5b42174aa93c2c1522ecf,65af559e4aa07d90bbee3ccb,2024-01-23_08h01.38.577,bars,2023.2.3,Win32,58.82352941,657b66ea316d21385b68909f,,,,,,,,,,,1343.378,1344.382,,,1344.882,1345.132,,70,70,,,,,,,,,,,,,,,,bars/034.png,bars/mask002.png,,,,,,,,,,,,7,2,,,,,,,8,8,8,8,,,,,,,,,,,1344.382,1344.882,1345.132,1347.118,space,1.983,,1347.118,55,5,1348.114,1348.114,1348.128,,,,0,32,32,32,1,125,65,,,,,,,,
,,60f5b42174aa93c2c1522ecf,65af559e4aa07d90bbee3ccb,2024-01-23_08h01.38.577,bars,2023.2.3,Win32,58.82352941,657b66ea316d21385b68909f,,,,,,,,,,,1348.128,1349.131,,,1349.633,1349.881,,179,-1,,,,,,,,,,,,,,,,bars/033.png,bars/mask008.png,,,,,,,,,,,,2,2,,,,,,,6,10,6,8,,,,,,,,,,,1349.131,1349.633,1349.881,1352.35,space,2.449,,1352.35,26,24,1353.347,1353.347,1353.36,,,,0,33,33,33,1,25,155,,,,,,,,
,,60f5b42174aa93c2c1522ecf,65af559e4aa07d90bbee3ccb,2024-01-23_08h01.38.577,bars,2023.2.3,Win32,58.82352941,657b66ea316d21385b68909f,,,,,,,,,,,1353.36,1354.363,,,1354.864,1355.114,,60,60,,,,,,,,,,,,,,,,bars/041.png,bars/mask007.png,,,,,,,,,,,,1,2,,,,,,,4,10,3,8,,,,,,,,,,,1354.364,1354.864,1355.114,1356.55,space,1.433,,1356.55,40,25,1357.547,1357.547,1357.548,,,,0,34,34,34,1,20,85,,,,,,,,
,,60f5b42174aa93c2c1522ecf,65af559e4aa07d90bbee3ccb,2024-01-23_08h01.38.577,bars,2023.2.3,Win32,58.82352941,657b66ea316d21385b68909f,,,,,,,,,,,1357.548,1358.548,,,1359.046,1359.298,,51,51,,,,,,,,,,,,,,,,bars/043.png,bars/mask004.png,,,,,,,,,,,,2,1,,,,,,,6,8,5,8,,,,,,,,,,,1358.549,1359.046,1359.298,1360.13,space,0.801,,1360.13,21,79,1361.129,1361.129,1361.131,,,,0,35,35,35,1,30,130,,,,,,,,
,,60f5b42174aa93c2c1522ecf,65af559e4aa07d90bbee3ccb,2024-01-23_08h01.38.577,bars,2023.2.3,Win32,58.82352941,657b66ea316d21385b68909f,,,,,,,,,,,1361.132,1362.129,,,1362.63,1362.879,,115,115,,,,,,,,,,,,,,,,bars/031.png,bars/mask006.png,,,,,,,,,,,,8,1,,,,,,,8,10,9,10,,,,,,,,,,,1362.129,1362.629,1362.879,1363.865,space,0.967,,1363.865,5,80,1364.861,1364.861,1364.863,,,,0,36,36,36,1,120,35,,,,,,,,
,,60f5b42174aa93c2c1522ecf,65af559e4aa07d90bbee3ccb,2024-01-23_08h01.38.577,bars,2023.2.3,Win32,58.82352941,657b66ea316d21385b68909f,,,,,,,,,,,1364.863,1365.862,,,1366.362,1366.612,,28,28,,,,,,,,,,,,,,,,bars/043.png,bars/mask009.png,,,,,,,,,,,,9,1,,,,,,,10,10,10,10,,,,,,,,,,,1365.862,1366.362,1366.612,1367.914,space,1.299,,1367.914,2,78,1368.911,1368.911,1368.912,,,,0,37,37,37,1,30,130,,,,,,,,
,,60f5b42174aa93c2c1522ecf,65af559e4aa07d90bbee3ccb,2024-01-23_08h01.38.577,bars,2023.2.3,Win32,58.82352941,657b66ea316d21385b68909f,,,,,,,,,,,1368.912,1369.911,,,1370.411,1370.66,,65,65,,,,,,,,,,,,,,,,bars/004.png,bars/mask005.png,,,,,,,,,,,,0,1,,,,,,,8,10,7,10,,,,,,,,,,,1369.911,1370.411,1370.66,1372.163,space,1.483,,1372.163,40,60,1373.16,1373.16,1373.161,,,,0,38,38,38,1,25,125,,,,,,,,
,,60f5b42174aa93c2c1522ecf,65af559e4aa07d90bbee3ccb,2024-01-23_08h01.38.577,bars,2023.2.3,Win32,58.82352941,657b66ea316d21385b68909f,,,,,,,,,,,1373.162,1374.16,,,1374.66,1374.911,,133,133,,,,,,,,,,,,,,,,bars/037.png,bars/mask007.png,,,,,,,,,,,,4,1,,,,,,,10,8,9,9,,,,,,,,,,,1374.16,1374.66,1374.911,1378.076,space,3.145,,1378.077,17,28,1379.076,1379.076,1379.089,,,,0,39,39,39,1,150,105,,,,,,,,
,,60f5b42174aa93c2c1522ecf,65af559e4aa07d90bbee3ccb,2024-01-23_08h01.38.577,bars,2023.2.3,Win32,58.82352941,657b66ea316d21385b68909f,,,,,,,,,,,1379.09,1380.078,,,1380.576,1380.826,,116,116,,,,,,,,,,,,,,,,bars/005.png,bars/mask005.png,,,,,,,,,,,,1,2,,,,,,,8,6,7,6,,,,,,,,,,,1380.078,1380.576,1380.826,1382.393,space,1.535,,1382.393,74,24,1383.394,1383.394,1383.396,,,,0,40,40,40,1,10,140,,,,,,,,
,,60f5b42174aa93c2c1522ecf,65af559e4aa07d90bbee3ccb,2024-01-23_08h01.38.577,bars,2023.2.3,Win32,58.82352941,657b66ea316d21385b68909f,,,,,,,,,,,1383.396,1384.392,,,1384.892,1385.142,,133,133,,,,,,,,,,,,,,,,bars/034.png,bars/mask001.png,,,,,,,,,,,,4,1,,,,,,,6,4,6,4,,,,,,,,,,,1384.392,1384.892,1385.142,1387.094,space,1.934,,1387.094,8,68,1388.091,1388.091,1388.094,,,,0,41,41,41,1,125,65,,,,,,,,
,,60f5b42174aa93c2c1522ecf,65af559e4aa07d90bbee3ccb,2024-01-23_08h01.38.577,bars,2023.2.3,Win32,58.82352941,657b66ea316d21385b68909f,,,,,,,,,,,1388.094,1389.091,,,1389.591,1389.841,,77,77,,,,,,,,,,,,,,,,bars/011.png,bars/mask006.png,,,,,,,,,,,,2,2,,,,,,,4,2,3,3,,,,,,,,,,,1389.092,1389.591,1389.841,1392.844,space,2.984,,1392.844,83,8,1393.84,1393.84,1393.855,,,,0,42,42,42,1,160,85,,,,,,,,
,,60f5b42174aa93c2c1522ecf,65af559e4aa07d90bbee3ccb,2024-01-23_08h01.38.577,bars,2023.2.3,Win32,58.82352941,657b66ea316d21385b68909f,,,,,,,,,,,1393.855,1394.857,,,1395.357,1395.609,,36,36,,,,,,,,,,,,,,,,bars/041.png,bars/mask007.png,,,,,,,,,,,,3,1,,,,,,,6,0,6,0,,,,,,,,,,,1394.857,1395.357,1395.609,1396.607,space,0.969,,1396.607,16,49,1397.606,1397.606,1397.608,,,,0,43,43,43,1,20,85,,,,,,,,
,,60f5b42174aa93c2c1522ecf,65af559e4aa07d90bbee3ccb,2024-01-23_08h01.38.577,bars,2023.2.3,Win32,58.82352941,657b66ea316d21385b68909f,,,,,,,,,,,1397.609,1398.606,,,1399.107,1399.357,,152,152,,,,,,,,,,,,,,,,bars/005.png,bars/mask009.png,,,,,,,,,,,,1,2,,,,,,,4,2,2,2,,,,,,,,,,,1398.606,1399.107,1399.357,1400.206,space,0.829,,1400.206,38,12,1401.207,1401.207,1401.209,,,,0,44,44,44,1,10,140,,,,,,,,
,,60f5b42174aa93c2c1522ecf,65af559e4aa07d90bbee3ccb,2024-01-23_08h01.38.577,bars,2023.2.3,Win32,58.82352941,657b66ea316d21385b68909f,,,,,,,,,,,1401.209,1402.206,,,1402.706,1402.956,,130,130,,,,,,,,,,,,,,,,bars/020.png,bars/mask005.png,,,,,,,,,,,,1,1,,,,,,,2,0,1,1,,,,,,,,,,,1402.206,1402.706,1402.956,1404.709,space,1.749,,1404.709,15,40,1405.705,1405.705,1405.707,,,,0,45,45,45,1,115,170,,,,,,,,
,,60f5b42174aa93c2c1522ecf,65af559e4aa07d90bbee3ccb,2024-01-23_08h01.38.577,bars,2023.2.3,Win32,58.82352941,657b66ea316d21385b68909f,,,,,,,,,,,1405.707,1406.707,,,1407.205,1407.457,,31,31,,,,,,,,,,,,,,,,bars/014.png,bars/mask008.png,,,,,,,,,,,,0,2,,,,,,,0,2,0,2,,,,,,,,,,,1406.707,1407.205,1407.457,1408.624,space,1.15,,1408.624,49,31,1409.622,1409.622,1409.623,,,,0,46,46,46,1,80,0,,,,,,,,
,,60f5b42174aa93c2c1522ecf,65af559e4aa07d90bbee3ccb,2024-01-23_08h01.38.577,bars,2023.2.3,Win32,58.82352941,657b66ea316d21385b68909f,,,,,,,,,,,1409.624,1410.621,,,1411.121,1411.37,,151,151,,,,,,,,,,,,,,,,bars/046.png,bars/mask005.png,,,,,,,,,,,,3,1,,,,,,,2,4,3,4,,,,,,,,,,,1410.621,1411.121,1411.37,1412.473,space,1.083,,1412.473,4,66,1413.47,1413.47,1413.472,,,,0,47,47,47,1,155,85,,,,,,,,
,,60f5b42174aa93c2c1522ecf,65af559e4aa07d90bbee3ccb,2024-01-23_08h01.38.577,bars,2023.2.3,Win32,58.82352941,657b66ea316d21385b68909f,,,,,,,,,,,1413.473,1414.472,,,1414.97,1415.22,,82,82,,,,,,,,,,,,,,,,bars/014.png,bars/mask007.png,,,,,,,,,,,,4,1,,,,,,,4,2,4,4,,,,,,,,,,,1414.472,1414.97,1415.22,1416.957,space,1.733,,1416.957,2,82,1417.953,1417.953,1417.954,,,,0,48,48,48,1,80,0,,,,,,,,
,,60f5b42174aa93c2c1522ecf,65af559e4aa07d90bbee3ccb,2024-01-23_08h01.38.577,bars,2023.2.3,Win32,58.82352941,657b66ea316d21385b68909f,,,,,,,,,,,1417.954,1418.953,,,1419.453,1419.703,,110,110,,,,,,,,,,,,,,,,bars/008.png,bars/mask009.png,,,,,,,,,,,,7,1,,,,,,,6,4,7,3,,,,,,,,,,,1418.953,1419.453,1419.703,1421.403,space,1.672,,1421.403,0,70,1422.403,1422.403,1422.404,,,,0,49,49,49,1,110,0,,,,,,,,
,,60f5b42174aa93c2c1522ecf,65af559e4aa07d90bbee3ccb,2024-01-23_08h01.38.577,bars,2023.2.3,Win32,58.82352941,657b66ea316d21385b68909f,,,,,,,,,,,,,,,,,,,,,,,,,,,,,,,,,,,,,,,,,,,,,,,,,,,,,,,,,,,,,,,,,,,,,,,,,,,,,,,,,,,,,,,,,,,,,1422.404,1482.393,0,2,2,4,1,sequence_tables/blk025.csv
,,60f5b42174aa93c2c1522ecf,65af559e4aa07d90bbee3ccb,2024-01-23_08h01.38.577,bars,2023.2.3,Win32,58.82352941,657b66ea316d21385b68909f,,,,,,,,,,,1515.209,1516.204,,,1516.704,1516.953,,35,35,,,,,,,,,,,,,,,,bars/013.png,bars/mask001.png,,,,,,,,,,,,0,2,,,,,,,10,2,10,0,,,,,,1482.407,1515.19,space,32.778,,1516.204,1516.704,1516.953,1519.605,space,2.632,,1519.605,40,25,1520.603,1520.603,1520.618,,,,0,0,0,0,1,75,10,,,,,,,,
,,60f5b42174aa93c2c1522ecf,65af559e4aa07d90bbee3ccb,2024-01-23_08h01.38.577,bars,2023.2.3,Win32,58.82352941,657b66ea316d21385b68909f,,,,,,,,,,,1520.618,1521.62,,,1522.12,1522.369,,72,72,,,,,,,,,,,,,,,,bars/028.png,bars/mask002.png,,,,,,,,,,,,1,1,,,,,,,10,0,10,1,,,,,,,,,,,1521.62,1522.12,1522.369,1526.255,space,3.868,,1526.255,27,48,1527.252,1527.252,1527.267,,,,0,1,1,1,1,45,120,,,,,,,,
,,60f5b42174aa93c2c1522ecf,65af559e4aa07d90bbee3ccb,2024-01-23_08h01.38.577,bars,2023.2.3,Win32,58.82352941,657b66ea316d21385b68909f,,,,,,,,,,,1527.267,1528.268,,,1528.768,1529.019,,158,-22,,,,,,,,,,,,,,,,bars/010.png,bars/mask006.png,,,,,,,,,,,,6,1,,,,,,,8,2,8,0,,,,,,,,,,,1528.268,1528.768,1529.019,1531.67,space,2.634,,1531.67,7,77,1532.667,1532.667,1532.681,,,,0,2,2,2,1,165,55,,,,,,,,
,,60f5b42174aa93c2c1522ecf,65af559e4aa07d90bbee3ccb,2024-01-23_08h01.38.577,bars,2023.2.3,Win32,58.82352941,657b66ea316d21385b68909f,,,,,,,,,,,1532.681,1533.684,,,1534.185,1534.434,,19,19,,,,,,,,,,,,,,,,bars/003.png,bars/mask003.png,,,,,,,,,,,,5,1,,,,,,,6,0,6,0,,,,,,,,,,,1533.684,1534.185,1534.434,1537.27,space,2.833,,1537.27,6,59,1538.267,1538.267,1538.28,,,,0,3,3,3,1,25,140,,,,,,,,
,,60f5b42174aa93c2c1522ecf,65af559e4aa07d90bbee3ccb,2024-01-23_08h01.38.577,bars,2023.2.3,Win32,58.82352941,657b66ea316d21385b68909f,,,,,,,,,,,1538.28,1539.268,,,1539.767,1540.017,,139,139,,,,,,,,,,,,,,,,bars/040.png,bars/mask006.png,,,,,,,,,,,,8,1,,,,,,,8,0,8,0,,,,,,,,,,,1539.268,1539.767,1540.017,1540.884,space,0.852,,1540.884,1,46,1541.882,1541.882,1541.884,,,,0,4,4,4,1,140,5,,,,,,,,
,,60f5b42174aa93c2c1522ecf,65af559e4aa07d90bbee3ccb,2024-01-23_08h01.38.577,bars,2023.2.3,Win32,58.82352941,657b66ea316d21385b68909f,,,,,,,,,,,1541.884,1542.883,,,1543.385,1543.633,,160,-20,,,,,,,,,,,,,,,,bars/049.png,bars/mask006.png,,,,,,,,,,,,7,1,,,,,,,6,2,7,3,,,,,,,,,,,1542.883,1543.385,1543.633,1545.268,space,1.617,,1545.268,0,45,1546.265,1546.265,1546.279,,,,0,5,5,5,1,160,115,,,,,,,,
,,60f5b42174aa93c2c1522ecf,65af559e4aa07d90bbee3ccb,2024-01-23_08h01.38.577,bars,2023.2.3,Win32,58.82352941,657b66ea316d21385b68909f,,,,,,,,,,,1546.279,1547.267,,,1547.765,1548.015,,106,106,,,,,,,,,,,,,,,,bars/008.png,bars/mask002.png,,,,,,,,,,,,5,1,,,,,,,8,4,6,3,,,,,,,,,,,1547.267,1547.765,1548.015,1549.684,space,1.649,,1549.684,4,74,1550.682,1550.682,1550.683,,,,0,6,6,6,1,110,0,,,,,,,,
,,60f5b42174aa93c2c1522ecf,65af559e4aa07d90bbee3ccb,2024-01-23_08h01.38.577,bars,2023.2.3,Win32,58.82352941,657b66ea316d21385b68909f,,,,,,,,,,,1550.683,1551.681,,,1552.181,1552.433,,52,52,,,,,,,,,,,,,,,,bars/007.png,bars/mask008.png,,,,,,,,,,,,3,2,,,,,,,6,2,6,3,,,,,,,,,,,1551.681,1552.181,1552.433,1555.667,space,3.217,,1555.667,57,3,1556.664,1556.664,1556.679,,,,0,7,7,7,1,175,55,,,,,,,,
,,60f5b42174aa93c2c1522ecf,65af559e4aa07d90bbee3ccb,2024-01-23_08h01.38.577,bars,2023.2.3,Win32,58.82352941,657b66ea316d21385b68909f,,,,,,,,,,,1556.679,1557.68,,,1558.18,1558.43,,176,176,,,,,,,,,,,,,,,,bars/023.png,bars/mask004.png,,,,,,,,,,,,2,1,,,,,,,8,0,8,0,,,,,,,,,,,1557.68,1558.18,1558.43,1560.016,space,1.583,,1560.016,24,61,1561.015,1561.015,1561.017,,,,0,8,8,8,1,20,115,,,,,,,,
,,60f5b42174aa93c2c1522ecf,65af559e4aa07d90bbee3ccb,2024-01-23_08h01.38.577,bars,2023.2.3,Win32,58.82352941,657b66ea316d21385b68909f,,,,,,,,,,,1561.017,1562.013,,,1562.513,1562.763,,35,35,,,,,,,,,,,,,,,,bars/022.png,bars/mask003.png,,,,,,,,,,,,0,2,,,,,,,6,0,7,0,,,,,,,,,,,1562.013,1562.513,1562.763,1564.549,space,1.783,,1564.549,60,15,1565.546,1565.546,1565.547,,,,0,9,9,9,1,95,20,,,,,,,,
,,60f5b42174aa93c2c1522ecf,65af559e4aa07d90bbee3ccb,2024-01-23_08h01.38.577,bars,2023.2.3,Win32,58.82352941,657b66ea316d21385b68909f,,,,,,,,,,,1565.548,1566.546,,,1567.047,1567.295,,130,130,,,,,,,,,,,,,,,,bars/015.png,bars/mask004.png,,,,,,,,,,,,2,1,,,,,,,8,2,7,2,,,,,,,,,,,1566.546,1567.047,1567.295,1570.681,space,3.366,,1570.681,20,30,1571.677,1571.677,1571.692,,,,0,10,10,10,1,110,160,,,,,,,,
,,60f5b42174aa93c2c1522ecf,65af559e4aa07d90bbee3ccb,2024-01-23_08h01.38.577,bars,2023.2.3,Win32,58.82352941,657b66ea316d21385b68909f,,,,,,,,,,,1571.692,1572.695,,,1573.195,1573.445,,22,202,,,,,,,,,,,,,,,,bars/036.png,bars/mask008.png,,,,,,,,,,,,3,2,,,,,,,6,4,6,3,,,,,,,,,,,1572.695,1573.195,1573.445,1575.895,space,2.447,,1575.895,57,2,1576.894,1576.894,1576.908,,,,0,11,11,11,1,145,20,,,,,,,,
,,60f5b42174aa93c2c1522ecf,65af559e4aa07d90bbee3ccb,2024-01-23_08h01.38.577,bars,2023.2.3,Win32,58.82352941,657b66ea316d21385b68909f,,,,,,,,,,,1576.908,1577.91,,,1578.411,1578.661,,83,83,,,,,,,,,,,,,,,,bars/021.png,bars/mask000.png,,,,,,,,,,,,0,2,,,,,,,4,2,4,0,,,,,,,,,,,1577.911,1578.41,1578.661,1580.563,space,1.884,,1580.563,72,13,1581.559,1581.559,1581.56,,,,0,12,12,12,1,155,70,,,,,,,,
,,60f5b42174aa93c2c1522ecf,65af559e4aa07d90bbee3ccb,2024-01-23_08h01.38.577,bars,2023.2.3,Win32,58.82352941,657b66ea316d21385b68909f,,,,,,,,,,,1581.561,1582.56,,,1583.059,1583.31,,117,117,,,,,,,,,,,,,,,,bars/012.png,bars/mask000.png,,,,,,,,,,,,0,1,,,,,,,2,4,2,4,,,,,,,,,,,1582.56,1583.059,1583.31,1584.48,space,1.152,,1584.48,27,78,1585.475,1585.476,1585.478,,,,0,13,13,13,1,90,15,,,,,,,,
,,60f5b42174aa93c2c1522ecf,65af559e4aa07d90bbee3ccb,2024-01-23_08h01.38.577,bars,2023.2.3,Win32,58.82352941,657b66ea316d21385b68909f,,,,,,,,,,,1585.478,1586.475,,,1586.976,1587.226,,130,130,,,,,,,,,,,,,,,,bars/049.png,bars/mask004.png,,,,,,,,,,,,0,2,,,,,,,0,2,0,0,,,,,,,,,,,1586.475,1586.976,1587.226,1589.809,space,2.562,,1589.809,30,15,1590.807,1590.807,1590.822,,,,0,14,14,14,1,160,115,,,,,,,,
,,60f5b42174aa93c2c1522ecf,65af559e4aa07d90bbee3ccb,2024-01-23_08h01.38.577,bars,2023.2.3,Win32,58.82352941,657b66ea316d21385b68909f,,,,,,,,,,,1590.822,1591.81,,,1592.308,1592.559,,110,-70,,,,,,,,,,,,,,,,bars/031.png,bars/mask004.png,,,,,,,,,,,,0,1,,,,,,,0,4,0,3,,,,,,,,,,,1591.81,1592.308,1592.56,1595.657,space,3.07,,1595.657,10,75,1596.659,1596.659,1596.674,,,,0,15,15,15,1,120,35,,,,,,,,
,,60f5b42174aa93c2c1522ecf,65af559e4aa07d90bbee3ccb,2024-01-23_08h01.38.577,bars,2023.2.3,Win32,58.82352941,657b66ea316d21385b68909f,,,,,,,,,,,1596.674,1597.674,,,1598.174,1598.426,,148,148,,,,,,,,,,,,,,,,bars/005.png,bars/mask002.png,,,,,,,,,,,,2,2,,,,,,,2,2,3,3,,,,,,,,,,,1597.674,1598.174,1598.426,1601.359,space,2.916,,1601.359,42,8,1602.358,1602.358,1602.373,,,,0,16,16,16,1,10,140,,,,,,,,
,,60f5b42174aa93c2c1522ecf,65af559e4aa07d90bbee3ccb,2024-01-23_08h01.38.577,bars,2023.2.3,Win32,58.82352941,657b66ea316d21385b68909f,,,,,,,,,,,1602.374,1603.373,,,1603.873,1604.124,,121,121,,,,,,,,,,,,,,,,bars/049.png,bars/mask006.png,,,,,,,,,,,,3,2,,,,,,,4,4,2,4,,,,,,,,,,,1603.373,1603.873,1604.124,1605.242,space,1.101,,1605.242,39,6,1606.242,1606.242,1606.254,,,,0,17,17,17,1,160,115,,,,,,,,
,,60f5b42174aa93c2c1522ecf,65af559e4aa07d90bbee3ccb,2024-01-23_08h01.38.577,bars,2023.2.3,Win32,58.82352941,657b66ea316d21385b68909f,,,,,,,,,,,1606.256,1607.256,,,1607.758,1608.005,,53,53,,,,,,,,,,,,,,,,bars/038.png,bars/mask000.png,,,,,,,,,,,,1,2,,,,,,,6,2,7,3,,,,,,,,,,,1607.256,1607.758,1608.006,1608.839,space,0.805,,1608.839,68,17,1609.839,1609.839,1609.839,,,,0,18,18,18,1,165,70,,,,,,,,
,,60f5b42174aa93c2c1522ecf,65af559e4aa07d90bbee3ccb,2024-01-23_08h01.38.577,bars,2023.2.3,Win32,58.82352941,657b66ea316d21385b68909f,,,,,,,,,,,1609.839,1610.839,,,1611.338,1611.59,,103,103,,,,,,,,,,,,,,,,bars/020.png,bars/mask002.png,,,,,,,,,,,,2,1,,,,,,,4,4,3,6,,,,,,,,,,,1610.839,1611.338,1611.59,1613.655,space,2.04,,1613.655,12,67,1614.654,1614.654,1614.669,,,,0,19,19,19,1,115,170,,,,,,,,
,,60f5b42174aa93c2c1522ecf,65af559e4aa07d90bbee3ccb,2024-01-23_08h01.38.577,bars,2023.2.3,Win32,58.82352941,657b66ea316d21385b68909f,,,,,,,,,,,1614.669,1615.671,,,1616.173,1616.421,,106,106,,,,,,,,,,,,,,,,bars/025.png,bars/mask004.png,,,,,,,,,,,,6,1,,,,,,,6,2,6,2,,,,,,,,,,,1615.671,1616.173,1616.421,1619.157,space,2.718,,1619.157,1,66,1620.155,1620.155,1620.168,,,,0,20,20,20,1,105,40,,,,,,,,
,,60f5b42174aa93c2c1522ecf,65af559e4aa07d90bbee3ccb,2024-01-23_08h01.38.577,bars,2023.2.3,Win32,58.82352941,657b66ea316d21385b68909f,,,,,,,,,,,1620.169,1621.17,,,1621.669,1621.92,,45,45,,,,,,,,,,,,,,,,bars/019.png,bars/mask009.png,,,,,,,,,,,,10,1,,,,,,,8,4,10,7,,,,,,,,,,,1621.17,1621.669,1621.92,1625.005,space,3.083,,1625.005,0,60,1626.003,1626.003,1626.016,,,,0,21,21,21,1,45,105,,,,,,,,
,,60f5b42174aa93c2c1522ecf,65af559e4aa07d90bbee3ccb,2024-01-23_08h01.38.577,bars,2023.2.3,Win32,58.82352941,657b66ea316d21385b68909f,,,,,,,,,,,1626.016,1627.019,,,1627.519,1627.768,,122,122,,,,,,,,,,,,,,,,bars/040.png,bars/mask007.png,,,,,,,,,,,,4,1,,,,,,,10,6,10,6,,,,,,,,,,,1627.019,1627.519,1627.769,1629.002,space,1.212,,1629.002,18,63,1630.003,1630.003,1630.004,,,,0,22,22,22,1,140,5,,,,,,,,
,,60f5b42174aa93c2c1522ecf,65af559e4aa07d90bbee3ccb,2024-01-23_08h01.38.577,bars,2023.2.3,Win32,58.82352941,657b66ea316d21385b68909f,,,,,,,,,,,1630.004,1631.002,,,1631.501,1631.752,,31,31,,,,,,,,,,,,,,,,bars/000.png,bars/mask009.png,,,,,,,,,,,,6,1,,,,,,,8,4,8,3,,,,,,,,,,,1631.002,1631.501,1631.752,1633.238,space,1.483,,1633.238,9,66,1634.234,1634.234,1634.248,,,,0,23,23,23,1,40,145,,,,,,,,
,,60f5b42174aa93c2c1522ecf,65af559e4aa07d90bbee3ccb,2024-01-23_08h01.38.577,bars,2023.2.3,Win32,58.82352941,657b66ea316d21385b68909f,,,,,,,,,,,1634.248,1635.236,,,1635.734,1635.986,,44,224,,,,,,,,,,,,,,,,bars/043.png,bars/mask001.png,,,,,,,,,,,,3,1,,,,,,,6,6,6,8,,,,,,,,,,,1635.236,1635.734,1635.986,1637.637,space,1.634,,1637.637,14,86,1638.634,1638.634,1638.647,,,,0,24,24,24,1,30,130,,,,,,,,
,,60f5b42174aa93c2c1522ecf,65af559e4aa07d90bbee3ccb,2024-01-23_08h01.38.577,bars,2023.2.3,Win32,58.82352941,657b66ea316d21385b68909f,,,,,,,,,,,1638.647,1639.651,,,1640.151,1640.4,,72,72,,,,,,,,,,,,,,,,bars/011.png,bars/mask005.png,,,,,,,,,,,,5,2,,,,,,,4,8,5,8,,,,,,,,,,,1639.651,1640.15,1640.401,1641.736,space,1.318,,1641.736,88,13,1642.734,1642.734,1642.736,,,,0,25,25,25,1,160,85,,,,,,,,
,,60f5b42174aa93c2c1522ecf,65af559e4aa07d90bbee3ccb,2024-01-23_08h01.38.577,bars,2023.2.3,Win32,58.82352941,657b66ea316d21385b68909f,,,,,,,,,,,1642.737,1643.732,,,1644.233,1644.485,,36,36,,,,,,,,,,,,,,,,bars/048.png,bars/mask004.png,,,,,,,,,,,,3,1,,,,,,,6,10,6,10,,,,,,,,,,,1643.733,1644.233,1644.485,1647.419,space,2.917,,1647.419,14,41,1648.415,1648.415,1648.43,,,,0,26,26,26,1,50,175,,,,,,,,
,,60f5b42174aa93c2c1522ecf,65af559e4aa07d90bbee3ccb,2024-01-23_08h01.38.577,bars,2023.2.3,Win32,58.82352941,657b66ea316d21385b68909f,,,,,,,,,,,1648.43,1649.432,,,1649.934,1650.182,,62,62,,,,,,,,,,,,,,,,bars/043.png,bars/mask002.png,,,,,,,,,,,,0,1,,,,,,,4,8,2,7,,,,,,,,,,,1649.433,1649.934,1650.182,1651.635,space,1.434,,1651.635,32,68,1652.632,1652.632,1652.645,,,,0,27,27,27,1,30,130,,,,,,,,
,,60f5b42174aa93c2c1522ecf,65af559e4aa07d90bbee3ccb,2024-01-23_08h01.38.577,bars,2023.2.3,Win32,58.82352941,657b66ea316d21385b68909f,,,,,,,,,,,1652.645,1653.648,,,1654.15,1654.4,,116,116,,,,,,,,,,,,,,,,bars/008.png,bars/mask008.png,,,,,,,,,,,,6,1,,,,,,,6,10,8,10,,,,,,,,,,,1653.648,1654.15,1654.4,1655.383,space,0.967,,1655.383,6,64,1656.381,1656.381,1656.394,,,,0,28,28,28,1,110,0,,,,,,,,
,,60f5b42174aa93c2c1522ecf,65af559e4aa07d90bbee3ccb,2024-01-23_08h01.38.577,bars,2023.2.3,Win32,58.82352941,657b66ea316d21385b68909f,,,,,,,,,,,1656.394,1657.398,,,1657.897,1658.147,,52,52,,,,,,,,,,,,,,,,bars/014.png,bars/mask002.png,,,,,,,,,,,,0,1,,,,,,,8,10,7,10,,,,,,,,,,,1657.398,1657.897,1658.147,1659.43,space,1.26,,1659.43,28,52,1660.431,1660.431,1660.444,,,,0,29,29,29,1,80,0,,,,,,,,
,,60f5b42174aa93c2c1522ecf,65af559e4aa07d90bbee3ccb,2024-01-23_08h01.38.577,bars,2023.2.3,Win32,58.82352941,657b66ea316d21385b68909f,,,,,,,,,,,1660.444,1661.446,,,1661.946,1662.196,,101,101,,,,,,,,,,,,,,,,bars/049.png,bars/mask007.png,,,,,,,,,,,,5,2,,,,,,,6,10,6,10,,,,,,,,,,,1661.446,1661.946,1662.196,1663.316,space,1.101,,1663.316,59,14,1664.313,1664.313,1664.329,,,,0,30,30,30,1,160,115,,,,,,,,
,,60f5b42174aa93c2c1522ecf,65af559e4aa07d90bbee3ccb,2024-01-23_08h01.38.577,bars,2023.2.3,Win32,58.82352941,657b66ea316d21385b68909f,,,,,,,,,,,1664.33,1665.329,,,1665.829,1666.08,,11,11,,,,,,,,,,,,,,,,bars/033.png,bars/mask009.png,,,,,,,,,,,,5,1,,,,,,,8,8,10,9,,,,,,,,,,,1665.33,1665.829,1666.08,1668.615,space,2.532,,1668.615,14,36,1669.612,1669.612,1669.626,,,,0,31,31,31,1,25,155,,,,,,,,
,,60f5b42174aa93c2c1522ecf,65af559e4aa07d90bbee3ccb,2024-01-23_08h01.38.577,bars,2023.2.3,Win32,58.82352941,657b66ea316d21385b68909f,,,,,,,,,,,1669.627,1670.631,,,1671.129,1671.379,,0,180,,,,,,,,,,,,,,,,bars/048.png,bars/mask000.png,,,,,,,,,,,,5,2,,,,,,,10,6,10,6,,,,,,,,,,,1670.631,1671.129,1671.379,1673.978,space,2.569,,1673.978,50,5,1674.977,1674.978,1674.992,,,,0,32,32,32,1,50,175,,,,,,,,
,,60f5b42174aa93c2c1522ecf,65af559e4aa07d90bbee3ccb,2024-01-23_08h01.38.577,bars,2023.2.3,Win32,58.82352941,657b66ea316d21385b68909f,,,,,,,,,,,1674.992,1675.994,,,1676.495,1676.744,,12,192,,,,,,,,,,,,,,,,bars/009.png,bars/mask000.png,,,,,,,,,,,,9,1,,,,,,,10,8,10,7,,,,,,,,,,,1675.994,1676.495,1676.744,1679.911,space,3.158,,1679.911,3,87,1680.912,1680.913,1680.926,,,,0,33,33,33,1,15,105,,,,,,,,
,,60f5b42174aa93c2c1522ecf,65af559e4aa07d90bbee3ccb,2024-01-23_08h01.38.577,bars,2023.2.3,Win32,58.82352941,657b66ea316d21385b68909f,,,,,,,,,,,1680.927,1681.926,,,1682.427,1682.677,,7,187,,,,,,,,,,,,,,,,bars/007.png,bars/mask001.png,,,,,,,,,,,,4,1,,,,,,,8,6,7,6,,,,,,,,,,,1681.926,1682.427,1682.677,1685.613,space,2.916,,1685.613,12,48,1686.609,1686.609,1686.623,,,,0,34,34,34,1,175,55,,,,,,,,
,,60f5b42174aa93c2c1522ecf,65af559e4aa07d90bbee3ccb,2024-01-23_08h01.38.577,bars,2023.2.3,Win32,58.82352941,657b66ea316d21385b68909f,,,,,,,,,,,1686.623,1687.626,,,1688.126,1688.377,,158,-22,,,,,,,,,,,,,,,,bars/017.png,bars/mask004.png,,,,,,,,,,,,6,1,,,,,,,10,4,10,5,,,,,,,,,,,1687.626,1688.126,1688.377,1691.378,space,2.984,,1691.378,13,67,1692.377,1692.377,1692.39,,,,0,35,35,35,1,145,45,,,,,,,,
,,60f5b42174aa93c2c1522ecf,65af559e4aa07d90bbee3ccb,2024-01-23_08h01.38.577,bars,2023.2.3,Win32,58.82352941,657b66ea316d21385b68909f,,,,,,,,,,,1692.39,1693.391,,,1693.892,1694.143,,102,102,,,,,,,,,,,,,,,,bars/001.png,bars/mask004.png,,,,,,,,,,,,3,2,,,,,,,10,6,10,8,,,,,,,,,,,1693.391,1693.892,1694.143,1695.311,space,1.151,,1695.311,28,17,1696.308,1696.308,1696.31,,,,0,36,36,36,1,130,85,,,,,,,,
,,60f5b42174aa93c2c1522ecf,65af559e4aa07d90bbee3ccb,2024-01-23_08h01.38.577,bars,2023.2.3,Win32,58.82352941,657b66ea316d21385b68909f,,,,,,,,,,,1696.31,1697.307,,,1697.808,1698.057,,153,153,,,,,,,,,,,,,,,,bars/002.png,bars/mask002.png,,,,,,,,,,,,2,1,,,,,,,10,4,10,3,,,,,,,,,,,1697.307,1697.808,1698.057,1700.643,space,2.568,,1700.643,23,68,1701.64,1701.64,1701.655,,,,0,37,37,37,1,130,85,,,,,,,,
,,60f5b42174aa93c2c1522ecf,65af559e4aa07d90bbee3ccb,2024-01-23_08h01.38.577,bars,2023.2.3,Win32,58.82352941,657b66ea316d21385b68909f,,,,,,,,,,,1701.655,1702.656,,,1703.156,1703.408,,64,64,,,,,,,,,,,,,,,,bars/038.png,bars/mask005.png,,,,,,,,,,,,2,2,,,,,,,8,2,7,3,,,,,,,,,,,1702.656,1703.156,1703.408,1706.625,space,3.2,,1706.625,79,6,1707.623,1707.623,1707.637,,,,0,38,38,38,1,165,70,,,,,,,,
,,60f5b42174aa93c2c1522ecf,65af559e4aa07d90bbee3ccb,2024-01-23_08h01.38.577,bars,2023.2.3,Win32,58.82352941,657b66ea316d21385b68909f,,,,,,,,,,,1707.637,1708.639,,,1709.139,1709.389,,99,99,,,,,,,,,,,,,,,,bars/019.png,bars/mask006.png,,,,,,,,,,,,3,2,,,,,,,10,4,8,4,,,,,,,,,,,1708.639,1709.139,1709.389,1711.291,space,1.899,,1711.291,54,6,1712.288,1712.289,1712.289,,,,0,39,39,39,1,45,105,,,,,,,,
,,60f5b42174aa93c2c1522ecf,65af559e4aa07d90bbee3ccb,2024-01-23_08h01.38.577,bars,2023.2.3,Win32,58.82352941,657b66ea316d21385b68909f,,,,,,,,,,,1712.289,1713.29,,,1713.79,1714.038,,68,68,,,,,,,,,,,,,,,,bars/014.png,bars/mask007.png,,,,,,,,,,,,4,1,,,,,,,8,2,7,3,,,,,,,,,,,1713.29,1713.79,1714.038,1716.174,space,2.117,,1716.174,12,68,1717.173,1717.173,1717.188,,,,0,40,40,40,1,80,0,,,,,,,,
,,60f5b42174aa93c2c1522ecf,65af559e4aa07d90bbee3ccb,2024-01-23_08h01.38.577,bars,2023.2.3,Win32,58.82352941,657b66ea316d21385b68909f,,,,,,,,,,,1717.188,1718.189,,,1718.687,1718.937,,62,62,,,,,,,,,,,,,,,,bars/029.png,bars/mask009.png,,,,,,,,,,,,2,2,,,,,,,6,4,6,4,,,,,,,,,,,1718.189,1718.687,1718.937,1721.94,space,2.985,,1721.94,28,17,1722.937,1722.937,1722.951,,,,0,41,41,41,1,90,45,,,,,,,,
,,60f5b42174aa93c2c1522ecf,65af559e4aa07d90bbee3ccb,2024-01-23_08h01.38.577,bars,2023.2.3,Win32,58.82352941,657b66ea316d21385b68909f,,,,,,,,,,,1722.951,1723.953,,,1724.453,1724.704,,130,130,,,,,,,,,,,,,,,,bars/045.png,bars/mask007.png,,,,,,,,,,,,0,1,,,,,,,4,6,5,5,,,,,,,,,,,1723.954,1724.453,1724.704,1726.59,space,1.869,,1726.59,30,60,1727.585,1727.586,1727.6,,,,0,42,42,42,1,100,10,,,,,,,,
,,60f5b42174aa93c2c1522ecf,65af559e4aa07d90bbee3ccb,2024-01-23_08h01.38.577,bars,2023.2.3,Win32,58.82352941,657b66ea316d21385b68909f,,,,,,,,,,,1727.6,1728.602,,,1729.102,1729.352,,55,55,,,,,,,,,,,,,,,,bars/007.png,bars/mask004.png,,,,,,,,,,,,3,2,,,,,,,2,4,1,3,,,,,,,,,,,1728.602,1729.102,1729.352,1731.322,space,1.95,,1731.322,60,0,1732.319,1732.319,1732.32,,,,0,43,43,43,1,175,55,,,,,,,,
,,60f5b42174aa93c2c1522ecf,65af559e4aa07d90bbee3ccb,2024-01-23_08h01.38.577,bars,2023.2.3,Win32,58.82352941,657b66ea316d21385b68909f,,,,,,,,,,,1732.321,1733.318,,,1733.819,1734.068,,165,165,,,,,,,,,,,,,,,,bars/048.png,bars/mask005.png,,,,,,,,,,,,5,2,,,,,,,0,6,0,7,,,,,,,,,,,1733.318,1733.819,1734.068,1734.935,space,0.851,,1734.935,65,10,1735.936,1735.936,1735.937,,,,0,44,44,44,1,50,175,,,,,,,,
,,60f5b42174aa93c2c1522ecf,65af559e4aa07d90bbee3ccb,2024-01-23_08h01.38.577,bars,2023.2.3,Win32,58.82352941,657b66ea316d21385b68909f,,,,,,,,,,,1735.937,1736.934,,,1737.434,1737.684,,146,146,,,,,,,,,,,,,,,,bars/032.png,bars/mask000.png,,,,,,,,,,,,0,1,,,,,,,0,8,0,9,,,,,,,,,,,1736.934,1737.434,1737.684,1739.254,space,1.551,,1739.254,21,54,1740.251,1740.251,1740.253,,,,0,45,45,45,1,125,20,,,,,,,,
,,60f5b42174aa93c2c1522ecf,65af559e4aa07d90bbee3ccb,2024-01-23_08h01.38.577,bars,2023.2.3,Win32,58.82352941,657b66ea316d21385b68909f,,,,,,,,,,,1740.254,1741.251,,,1741.752,1742,,86,86,,,,,,,,,,,,,,,,bars/038.png,bars/mask001.png,,,,,,,,,,,,3,2,,,,,,,0,6,0,7,,,,,,,,,,,1741.251,1741.752,1742,1744.836,space,2.817,,1744.836,79,16,1745.833,1745.833,1745.847,,,,0,46,46,46,1,165,70,,,,,,,,
,,60f5b42174aa93c2c1522ecf,65af559e4aa07d90bbee3ccb,2024-01-23_08h01.38.577,bars,2023.2.3,Win32,58.82352941,657b66ea316d21385b68909f,,,,,,,,,,,1745.848,1746.849,,,1747.349,1747.599,,179,179,,,,,,,,,,,,,,,,bars/035.png,bars/mask008.png,,,,,,,,,,,,3,1,,,,,,,2,8,3,7,,,,,,,,,,,1746.849,1747.349,1747.599,1750.818,space,3.216,,1750.818,4,61,1751.816,1751.816,1751.829,,,,0,47,47,47,1,175,60,,,,,,,,
,,60f5b42174aa93c2c1522ecf,65af559e4aa07d90bbee3ccb,2024-01-23_08h01.38.577,bars,2023.2.3,Win32,58.82352941,657b66ea316d21385b68909f,,,,,,,,,,,1751.829,1752.831,,,1753.333,1753.582,,104,104,,,,,,,,,,,,,,,,bars/024.png,bars/mask003.png,,,,,,,,,,,,0,1,,,,,,,0,6,0,5,,,,,,,,,,,1752.831,1753.333,1753.582,1755.434,space,1.834,,1755.434,16,66,1756.431,1756.431,1756.432,,,,0,48,48,48,1,120,170,,,,,,,,
,,60f5b42174aa93c2c1522ecf,65af559e4aa07d90bbee3ccb,2024-01-23_08h01.38.577,bars,2023.2.3,Win32,58.82352941,657b66ea316d21385b68909f,,,,,,,,,,,1756.432,1757.431,,,1757.931,1758.181,,95,95,,,,,,,,,,,,,,,,bars/023.png,bars/mask006.png,,,,,,,,,,,,2,2,,,,,,,0,8,1,7,,,,,,,,,,,1757.431,1757.931,1758.181,1759.164,space,0.956,,1759.164,75,20,1760.166,1760.166,1760.167,,,,0,49,49,49,1,20,115,,,,,,,,
,,60f5b42174aa93c2c1522ecf,65af559e4aa07d90bbee3ccb,2024-01-23_08h01.38.577,bars,2023.2.3,Win32,58.82352941,657b66ea316d21385b68909f,,,,,,,,,,,,,,,,,,,,,,,,,,,,,,,,,,,,,,,,,,,,,,,,,,,,,,,,,,,,,,,,,,,,,,,,,,,,,,,,,,,,,,,,,,,,,1760.168,1820.171,0,3,3,3,1,sequence_tables/blk013.csv
,,60f5b42174aa93c2c1522ecf,65af559e4aa07d90bbee3ccb,2024-01-23_08h01.38.577,bars,2023.2.3,Win32,58.82352941,657b66ea316d21385b68909f,,,,,,,,,,,1923.446,1924.421,,,1924.923,1925.17,,21,21,,,,,,,,,,,,,,,,bars/028.png,bars/mask008.png,,,,,,,,,,,,2,1,,,,,,,9,4,9,4,,,,,,1820.184,1923.42,space,103.228,,1924.421,1924.923,1925.17,1927.021,space,1.829,,1927.021,24,81,1928.022,1928.022,1928.037,,,,0,0,0,0,1,45,120,,,,,,,,
,,60f5b42174aa93c2c1522ecf,65af559e4aa07d90bbee3ccb,2024-01-23_08h01.38.577,bars,2023.2.3,Win32,58.82352941,657b66ea316d21385b68909f,,,,,,,,,,,1928.037,1929.036,,,1929.536,1929.787,,101,101,,,,,,,,,,,,,,,,bars/034.png,bars/mask000.png,,,,,,,,,,,,1,1,,,,,,,7,2,7,0,,,,,,,,,,,1929.036,1929.536,1929.787,1930.772,space,0.967,,1930.772,24,36,1931.769,1931.769,1931.77,,,,0,1,1,1,1,125,65,,,,,,,,
,,60f5b42174aa93c2c1522ecf,65af559e4aa07d90bbee3ccb,2024-01-23_08h01.38.577,bars,2023.2.3,Win32,58.82352941,657b66ea316d21385b68909f,,,,,,,,,,,1931.77,1932.769,,,1933.27,1933.519,,94,94,,,,,,,,,,,,,,,,bars/012.png,bars/mask005.png,,,,,,,,,,,,7,1,,,,,,,9,0,8,1,,,,,,,,,,,1932.769,1933.27,1933.519,1935.619,space,2.091,,1935.619,4,79,1936.619,1936.619,1936.632,,,,0,2,2,2,1,90,15,,,,,,,,
,,60f5b42174aa93c2c1522ecf,65af559e4aa07d90bbee3ccb,2024-01-23_08h01.38.577,bars,2023.2.3,Win32,58.82352941,657b66ea316d21385b68909f,,,,,,,,,,,1936.632,1937.635,,,1938.136,1938.385,,150,150,,,,,,,,,,,,,,,,bars/018.png,bars/mask003.png,,,,,,,,,,,,8,1,,,,,,,7,2,8,2,,,,,,,,,,,1937.635,1938.136,1938.385,1941.051,space,2.634,,1941.051,0,60,1942.051,1942.051,1942.064,,,,0,3,3,3,1,150,90,,,,,,,,
,,60f5b42174aa93c2c1522ecf,65af559e4aa07d90bbee3ccb,2024-01-23_08h01.38.577,bars,2023.2.3,Win32,58.82352941,657b66ea316d21385b68909f,,,,,,,,,,,1942.064,1943.068,,,1943.567,1943.818,,15,15,,,,,,,,,,,,,,,,bars/003.png,bars/mask005.png,,,,,,,,,,,,6,1,,,,,,,9,4,9,4,,,,,,,,,,,1943.068,1943.567,1943.818,1946.5,space,2.67,,1946.5,10,55,1947.5,1947.5,1947.501,,,,0,4,4,4,1,25,140,,,,,,,,
,,60f5b42174aa93c2c1522ecf,65af559e4aa07d90bbee3ccb,2024-01-23_08h01.38.577,bars,2023.2.3,Win32,58.82352941,657b66ea316d21385b68909f,,,,,,,,,,,1947.501,1948.5,,,1948.999,1949.25,,12,12,,,,,,,,,,,,,,,,bars/037.png,bars/mask007.png,,,,,,,,,,,,0,1,,,,,,,10,6,10,6,,,,,,,,,,,1948.5,1948.999,1949.25,1951.416,space,2.137,,1951.416,42,87,1952.416,1952.416,1952.429,,,,0,5,5,5,1,150,105,,,,,,,,
,,60f5b42174aa93c2c1522ecf,65af559e4aa07d90bbee3ccb,2024-01-23_08h01.38.577,bars,2023.2.3,Win32,58.82352941,657b66ea316d21385b68909f,,,,,,,,,,,1952.43,1953.433,,,1953.932,1954.182,,104,104,,,,,,,,,,,,,,,,bars/022.png,bars/mask005.png,,,,,,,,,,,,6,1,,,,,,,8,4,9,6,,,,,,,,,,,1953.433,1953.932,1954.182,1956,space,1.814,,1956,9,84,1957,1957,1957.001,,,,0,6,6,6,1,95,20,,,,,,,,
,,60f5b42174aa93c2c1522ecf,65af559e4aa07d90bbee3ccb,2024-01-23_08h01.38.577,bars,2023.2.3,Win32,58.82352941,657b66ea316d21385b68909f,,,,,,,,,,,1957.001,1957.998,,,1958.498,1958.748,,115,115,,,,,,,,,,,,,,,,bars/020.png,bars/mask002.png,,,,,,,,,,,,10,1,,,,,,,10,2,10,2,,,,,,,,,,,1957.998,1958.498,1958.748,1960.4,space,1.649,,1960.4,0,55,1961.398,1961.398,1961.398,,,,0,7,7,7,1,115,170,,,,,,,,
,,60f5b42174aa93c2c1522ecf,65af559e4aa07d90bbee3ccb,2024-01-23_08h01.38.577,bars,2023.2.3,Win32,58.82352941,657b66ea316d21385b68909f,,,,,,,,,,,1961.398,1962.397,,,1962.898,1963.149,,31,31,,,,,,,,,,,,,,,,bars/043.png,bars/mask006.png,,,,,,,,,,,,10,1,,,,,,,10,4,10,4,,,,,,,,,,,1962.398,1962.898,1963.149,1964.566,space,1.401,,1964.566,1,81,1965.563,1965.563,1965.564,,,,0,8,8,8,1,30,130,,,,,,,,
,,60f5b42174aa93c2c1522ecf,65af559e4aa07d90bbee3ccb,2024-01-23_08h01.38.577,bars,2023.2.3,Win32,58.82352941,657b66ea316d21385b68909f,,,,,,,,,,,1965.565,1966.565,,,1967.065,1967.313,,166,-14,,,,,,,,,,,,,,,,bars/039.png,bars/mask001.png,,,,,,,,,,,,4,1,,,,,,,8,6,6,5,,,,,,,,,,,1966.565,1967.065,1967.313,1969.199,space,1.868,,1969.199,9,61,1970.196,1970.196,1970.209,,,,0,9,9,9,1,175,105,,,,,,,,
,,60f5b42174aa93c2c1522ecf,65af559e4aa07d90bbee3ccb,2024-01-23_08h01.38.577,bars,2023.2.3,Win32,58.82352941,657b66ea316d21385b68909f,,,,,,,,,,,1970.209,1971.198,,,1971.696,1971.946,,109,109,,,,,,,,,,,,,,,,bars/022.png,bars/mask004.png,,,,,,,,,,,,3,1,,,,,,,6,4,6,5,,,,,,,,,,,1971.198,1971.695,1971.946,1974.129,space,2.169,,1974.129,14,89,1975.129,1975.129,1975.129,,,,0,10,10,10,1,95,20,,,,,,,,
,,60f5b42174aa93c2c1522ecf,65af559e4aa07d90bbee3ccb,2024-01-23_08h01.38.577,bars,2023.2.3,Win32,58.82352941,657b66ea316d21385b68909f,,,,,,,,,,,1975.129,1976.128,,,1976.63,1976.878,,30,210,,,,,,,,,,,,,,,,bars/007.png,bars/mask006.png,,,,,,,,,,,,0,2,,,,,,,4,2,3,2,,,,,,,,,,,1976.128,1976.63,1976.878,1978.797,space,1.9,,1978.797,35,25,1979.795,1979.795,1979.809,,,,0,11,11,11,1,175,55,,,,,,,,
,,60f5b42174aa93c2c1522ecf,65af559e4aa07d90bbee3ccb,2024-01-23_08h01.38.577,bars,2023.2.3,Win32,58.82352941,657b66ea316d21385b68909f,,,,,,,,,,,1979.81,1980.811,,,1981.311,1981.56,,68,68,,,,,,,,,,,,,,,,bars/043.png,bars/mask005.png,,,,,,,,,,,,0,1,,,,,,,2,0,3,2,,,,,,,,,,,1980.811,1981.311,1981.56,1983.811,space,2.245,,1983.811,38,62,1984.812,1984.812,1984.826,,,,0,12,12,12,1,30,130,,,,,,,,
,,60f5b42174aa93c2c1522ecf,65af559e4aa07d90bbee3ccb,2024-01-23_08h01.38.577,bars,2023.2.3,Win32,58.82352941,657b66ea316d21385b68909f,,,,,,,,,,,1984.826,1985.827,,,1986.327,1986.577,,165,-15,,,,,,,,,,,,,,,,bars/039.png,bars/mask007.png,,,,,,,,,,,,3,1,,,,,,,4,0,4,0,,,,,,,,,,,1985.827,1986.327,1986.577,1987.976,space,1.391,,1987.976,10,60,1988.976,1988.976,1988.977,,,,0,13,13,13,1,175,105,,,,,,,,
,,60f5b42174aa93c2c1522ecf,65af559e4aa07d90bbee3ccb,2024-01-23_08h01.38.577,bars,2023.2.3,Win32,58.82352941,657b66ea316d21385b68909f,,,,,,,,,,,1988.978,1989.976,,,1990.477,1990.726,,149,149,,,,,,,,,,,,,,,,bars/004.png,bars/mask009.png,,,,,,,,,,,,0,2,,,,,,,6,2,5,2,,,,,,,,,,,1989.976,1990.477,1990.726,1991.576,space,0.839,,1991.577,56,24,1992.576,1992.576,1992.578,,,,0,14,14,14,1,25,125,,,,,,,,
,,60f5b42174aa93c2c1522ecf,65af559e4aa07d90bbee3ccb,2024-01-23_08h01.38.577,bars,2023.2.3,Win32,58.82352941,657b66ea316d21385b68909f,,,,,,,,,,,1992.578,1993.577,,,1994.076,1994.326,,150,150,,,,,,,,,,,,,,,,bars/049.png,bars/mask004.png,,,,,,,,,,,,7,1,,,,,,,8,4,10,6,,,,,,,,,,,1993.577,1994.075,1994.326,1995.925,space,1.578,,1995.925,10,35,1996.925,1996.925,1996.927,,,,0,15,15,15,1,160,115,,,,,,,,
,,60f5b42174aa93c2c1522ecf,65af559e4aa07d90bbee3ccb,2024-01-23_08h01.38.577,bars,2023.2.3,Win32,58.82352941,657b66ea316d21385b68909f,,,,,,,,,,,1996.927,1997.925,,,1998.425,1998.675,,121,121,,,,,,,,,,,,,,,,bars/034.png,bars/mask002.png,,,,,,,,,,,,9,1,,,,,,,10,6,10,7,,,,,,,,,,,1997.925,1998.425,1998.675,1999.425,space,0.721,,1999.425,4,56,2000.424,2000.424,2000.426,,,,0,16,16,16,1,125,65,,,,,,,,
,,60f5b42174aa93c2c1522ecf,65af559e4aa07d90bbee3ccb,2024-01-23_08h01.38.577,bars,2023.2.3,Win32,58.82352941,657b66ea316d21385b68909f,,,,,,,,,,,2000.426,2001.424,,,2001.924,2002.174,,163,-17,,,,,,,,,,,,,,,,bars/011.png,bars/mask000.png,,,,,,,,,,,,7,1,,,,,,,8,4,8,5,,,,,,,,,,,2001.424,2001.924,2002.175,2004.71,space,2.517,,2004.71,3,78,2005.709,2005.709,2005.709,,,,0,17,17,17,1,160,85,,,,,,,,
,,60f5b42174aa93c2c1522ecf,65af559e4aa07d90bbee3ccb,2024-01-23_08h01.38.577,bars,2023.2.3,Win32,58.82352941,657b66ea316d21385b68909f,,,,,,,,,,,2005.709,2006.707,,,2007.207,2007.458,,103,103,,,,,,,,,,,,,,,,bars/012.png,bars/mask004.png,,,,,,,,,,,,3,1,,,,,,,6,6,5,6,,,,,,,,,,,2006.707,2007.207,2007.459,2009.224,space,1.743,,2009.224,13,88,2010.223,2010.223,2010.236,,,,0,18,18,18,1,90,15,,,,,,,,
,,60f5b42174aa93c2c1522ecf,65af559e4aa07d90bbee3ccb,2024-01-23_08h01.38.577,bars,2023.2.3,Win32,58.82352941,657b66ea316d21385b68909f,,,,,,,,,,,2010.236,2011.239,,,2011.741,2011.989,,13,193,,,,,,,,,,,,,,,,bars/007.png,bars/mask005.png,,,,,,,,,,,,3,1,,,,,,,8,8,8,8,,,,,,,,,,,2011.239,2011.741,2011.989,2014.739,space,2.726,,2014.739,18,42,2015.739,2015.739,2015.751,,,,0,19,19,19,1,175,55,,,,,,,,
