init_variables.started,init_variables.stopped,participant,session,date,expName,psychopyVersion,OS,frameRate,study_id,instruction_exp.started,instruction_exp.stopped,key_resp_8.keys,key_resp_8.rt,key_resp_8.duration,instruction_single.started,instruction_single.stopped,key_resp_2.keys,key_resp_2.rt,key_resp_2.duration,interval.started,interval.stopped,cue_single.started,cue_single.stopped,mask.started,mask.stopped,ori_response_single.started,res_ori,res,ori_response_single.stopped,key_resp_single.keys,key_resp_single.rt,key_resp_single.duration,disp_single.started,disp_single.stopped,key_resp.keys,key_resp.rt,key_resp.duration,single.thisRepN,single.thisTrialN,single.thisN,single.thisIndex,single.ran,ori,path,mask_path,instruction_bandit.started,instruction_bandit.stopped,key_resp_6.keys,key_resp_6.rt,key_resp_6.duration,cue_bandit.started,cue_bandit.stopped,bandit_res.keys,bandit_res.rt,bandit_res.duration,outcome_bandit.started,rew,action,outcome_bandit.stopped,bandit.thisRepN,bandit.thisTrialN,bandit.thisN,bandit.thisIndex,bandit.ran,actual_rew1,actual_rew2,rew1,rew2,instruction_task.started,instruction_task.stopped,key_resp_7.keys,key_resp_7.rt,key_resp_7.duration,wait_ready.started,wait_ready.stopped,key_resp_3.keys,key_resp_3.rt,key_resp_3.duration,cue.started,cue.stopped,ori_response.started,ori_response.stopped,key_resp_5.keys,key_resp_5.rt,key_resp_5.duration,outcome.started,diff1,diff2,outcome.stopped,disp_outcome_practice.started,disp_outcome_practice.stopped,key_resp_4.keys,key_resp_4.rt,key_resp_4.duration,trials.thisRepN,trials.thisTrialN,trials.thisN,trials.thisIndex,trials.ran,ori1,ori2,break_blk.started,break_blk.stopped,block.thisRepN,block.thisTrialN,block.thisN,block.thisIndex,block.ran,condition_file
0.0002,0.0003,617431af6e82b2ebd42a3d67,65af56b5a08a0d49e2f07b4e,2024-01-23_08h05.18.071,bars,2023.2.3,Win32,60.60606061,657b66ea316d21385b68909f,,,,,,,,,,,,,,,,,,,,,,,,,,,,,,,,,,,,,,,,,,,,,,,,,,,,,,,,,,,,,,,,,,,,,,,,,,,,,,,,,,,,,,,,,,,,,,,,,,,,
,,617431af6e82b2ebd42a3d67,65af56b5a08a0d49e2f07b4e,2024-01-23_08h05.18.071,bars,2023.2.3,Win32,60.60606061,657b66ea316d21385b68909f,0.0004,12.7468,y,12.7276,,,,,,,,,,,,,,,,,,,,,,,,,,,,,,,,,,,,,,,,,,,,,,,,,,,,,,,,,,,,,,,,,,,,,,,,,,,,,,,,,,,,,,,,,,,,,,,,
,,617431af6e82b2ebd42a3d67,65af56b5a08a0d49e2f07b4e,2024-01-23_08h05.18.071,bars,2023.2.3,Win32,60.60606061,657b66ea316d21385b68909f,,,,,,12.7471,32.7294,space,19.9556,,,,,,,,,,,,,,,,,,,,,,,,,,,,,,,,,,,,,,,,,,,,,,,,,,,,,,,,,,,,,,,,,,,,,,,,,,,,,,,,,,,,,,,,,,,
,,617431af6e82b2ebd42a3d67,65af56b5a08a0d49e2f07b4e,2024-01-23_08h05.18.071,bars,2023.2.3,Win32,60.60606061,657b66ea316d21385b68909f,,,,,,,,,,,32.7341,33.7281,33.7284,34.2295,34.23,34.4795,34.4799,118,118,46.5112,space,11.9873,,46.5113,93.7799,space,47.2395,,0,0,0,2,1,145,bars/single002.png,bars/mask003.png,,,,,,,,,,,,,,,,,,,,,,,,,,,,,,,,,,,,,,,,,,,,,,,,,,,,,,,,,,,,,,,,
,,617431af6e82b2ebd42a3d67,65af56b5a08a0d49e2f07b4e,2024-01-23_08h05.18.071,bars,2023.2.3,Win32,60.60606061,657b66ea316d21385b68909f,,,,,,,,,,,93.7855,94.7766,94.7771,95.2683,95.2683,95.5093,95.5094,140,140,119.5604,space,24.0335,,119.5606,146.8596,space,27.2674,,0,1,1,6,1,175,bars/single006.png,bars/mask005.png,,,,,,,,,,,,,,,,,,,,,,,,,,,,,,,,,,,,,,,,,,,,,,,,,,,,,,,,,,,,,,,,
,,617431af6e82b2ebd42a3d67,65af56b5a08a0d49e2f07b4e,2024-01-23_08h05.18.071,bars,2023.2.3,Win32,60.60606061,657b66ea316d21385b68909f,,,,,,,,,,,146.8675,147.8593,147.8594,148.359,148.3592,148.6093,148.6094,0,0,174.4926,space,25.8531,,174.4929,193.3759,space,18.8514,,0,2,2,8,1,160,bars/single008.png,bars/mask004.png,,,,,,,,,,,,,,,,,,,,,,,,,,,,,,,,,,,,,,,,,,,,,,,,,,,,,,,,,,,,,,,,
,,617431af6e82b2ebd42a3d67,65af56b5a08a0d49e2f07b4e,2024-01-23_08h05.18.071,bars,2023.2.3,Win32,60.60606061,657b66ea316d21385b68909f,,,,,,,,,,,193.3824,194.3746,194.3747,194.8748,194.8749,195.1245,195.1245,0,180,204.6999,space,9.5508,,204.6999,211.9083,space,7.1838,,0,3,3,0,1,150,bars/single000.png,bars/mask006.png,,,,,,,,,,,,,,,,,,,,,,,,,,,,,,,,,,,,,,,,,,,,,,,,,,,,,,,,,,,,,,,,
,,617431af6e82b2ebd42a3d67,65af56b5a08a0d49e2f07b4e,2024-01-23_08h05.18.071,bars,2023.2.3,Win32,60.60606061,657b66ea316d21385b68909f,,,,,,,,,,,211.9147,212.9069,212.9071,213.408,213.4082,213.6573,213.6574,165,165,248.1733,space,34.4867,,248.1735,250.8402,space,2.6345,,0,4,4,4,1,95,bars/single004.png,bars/mask004.png,,,,,,,,,,,,,,,,,,,,,,,,,,,,,,,,,,,,,,,,,,,,,,,,,,,,,,,,,,,,,,,,
,,617431af6e82b2ebd42a3d67,65af56b5a08a0d49e2f07b4e,2024-01-23_08h05.18.071,bars,2023.2.3,Win32,60.60606061,657b66ea316d21385b68909f,,,,,,,,,,,250.8413,251.8397,251.8399,252.34,252.3402,252.5898,252.5899,34,34,256.1901,space,3.5677,,256.1905,257.6078,space,1.3847,,0,5,5,9,1,20,bars/single009.png,bars/mask006.png,,,,,,,,,,,,,,,,,,,,,,,,,,,,,,,,,,,,,,,,,,,,,,,,,,,,,,,,,,,,,,,,
,,617431af6e82b2ebd42a3d67,65af56b5a08a0d49e2f07b4e,2024-01-23_08h05.18.071,bars,2023.2.3,Win32,60.60606061,657b66ea316d21385b68909f,,,,,,,,,,,257.6096,258.6059,258.6061,259.1063,259.1065,259.348,259.348,48,48,260.1734,space,0.8022,,260.1735,262.1896,space,1.9844,,0,6,6,7,1,45,bars/single007.png,bars/mask009.png,,,,,,,,,,,,,,,,,,,,,,,,,,,,,,,,,,,,,,,,,,,,,,,,,,,,,,,,,,,,,,,,
,,617431af6e82b2ebd42a3d67,65af56b5a08a0d49e2f07b4e,2024-01-23_08h05.18.071,bars,2023.2.3,Win32,60.60606061,657b66ea316d21385b68909f,,,,,,,,,,,262.1907,263.1898,263.19,263.6897,263.6899,263.9394,263.9396,4,4,271.7231,space,7.7565,,271.7233,276.3062,space,4.5541,,0,7,7,5,1,55,bars/single005.png,bars/mask008.png,,,,,,,,,,,,,,,,,,,,,,,,,,,,,,,,,,,,,,,,,,,,,,,,,,,,,,,,,,,,,,,,
,,617431af6e82b2ebd42a3d67,65af56b5a08a0d49e2f07b4e,2024-01-23_08h05.18.071,bars,2023.2.3,Win32,60.60606061,657b66ea316d21385b68909f,,,,,,,,,,,276.3132,277.306,277.3061,277.8062,277.8064,278.0555,278.0556,56,56,285.8568,space,7.7681,,285.8569,287.706,space,1.8179,,0,8,8,1,1,20,bars/single001.png,bars/mask006.png,,,,,,,,,,,,,,,,,,,,,,,,,,,,,,,,,,,,,,,,,,,,,,,,,,,,,,,,,,,,,,,,
,,617431af6e82b2ebd42a3d67,65af56b5a08a0d49e2f07b4e,2024-01-23_08h05.18.071,bars,2023.2.3,Win32,60.60606061,657b66ea316d21385b68909f,,,,,,,,,,,287.7072,288.7055,288.7057,289.2053,289.2055,289.4554,289.4557,74,74,293.6723,space,4.1851,,293.6726,295.5718,space,1.8684,,0,9,9,3,1,20,bars/single003.png,bars/mask005.png,,,,,,,,,,,,,,,,,,,,,,,,,,,,,,,,,,,,,,,,,,,,,,,,,,,,,,,,,,,,,,,,
,,617431af6e82b2ebd42a3d67,65af56b5a08a0d49e2f07b4e,2024-01-23_08h05.18.071,bars,2023.2.3,Win32,60.60606061,657b66ea316d21385b68909f,,,,,,,,,,,,,,,,,,,,,,,,,,,,,,,,,,,,,295.5741,314.4409,space,18.834,,,,,,,,,,,,,,,,,,,,,,,,,,,,,,,,,,,,,,,,,,,,,,,,,,,,,,,,,,,,
,,617431af6e82b2ebd42a3d67,65af56b5a08a0d49e2f07b4e,2024-01-23_08h05.18.071,bars,2023.2.3,Win32,60.60606061,657b66ea316d21385b68909f,,,,,,,,,,,,,,,,,,,,,,,,,,,,,,,,,,,,,,,,,,314.4473,321.6069,left,7.1341,,321.6073,9,1,322.6055,0,0,0,0,1,9,1,9,2,,,,,,,,,,,,,,,,,,,,,,,,,,,,,,,,,,,,,,,,,
,,617431af6e82b2ebd42a3d67,65af56b5a08a0d49e2f07b4e,2024-01-23_08h05.18.071,bars,2023.2.3,Win32,60.60606061,657b66ea316d21385b68909f,,,,,,,,,,,,,,,,,,,,,,,,,,,,,,,,,,,,,,,,,,322.6073,329.1219,right,6.4847,,329.1221,1,2,330.1127,0,1,1,1,1,10,0,10,1,,,,,,,,,,,,,,,,,,,,,,,,,,,,,,,,,,,,,,,,,
,,617431af6e82b2ebd42a3d67,65af56b5a08a0d49e2f07b4e,2024-01-23_08h05.18.071,bars,2023.2.3,Win32,60.60606061,657b66ea316d21385b68909f,,,,,,,,,,,,,,,,,,,,,,,,,,,,,,,,,,,,,,,,,,330.1179,335.9553,right,5.8189,,335.9555,2,2,336.9545,0,2,2,2,1,10,2,10,2,,,,,,,,,,,,,,,,,,,,,,,,,,,,,,,,,,,,,,,,,
,,617431af6e82b2ebd42a3d67,65af56b5a08a0d49e2f07b4e,2024-01-23_08h05.18.071,bars,2023.2.3,Win32,60.60606061,657b66ea316d21385b68909f,,,,,,,,,,,,,,,,,,,,,,,,,,,,,,,,,,,,,,,,,,336.962,340.1627,left,3.1836,,340.1627,7,1,341.1544,0,3,3,3,1,8,4,7,3,,,,,,,,,,,,,,,,,,,,,,,,,,,,,,,,,,,,,,,,,
,,617431af6e82b2ebd42a3d67,65af56b5a08a0d49e2f07b4e,2024-01-23_08h05.18.071,bars,2023.2.3,Win32,60.60606061,657b66ea316d21385b68909f,,,,,,,,,,,,,,,,,,,,,,,,,,,,,,,,,,,,,,,,,,341.1612,343.8881,left,2.7034,,343.8885,5,1,344.8879,0,4,4,4,1,6,2,5,1,,,,,,,,,,,,,,,,,,,,,,,,,,,,,,,,,,,,,,,,,
,,617431af6e82b2ebd42a3d67,65af56b5a08a0d49e2f07b4e,2024-01-23_08h05.18.071,bars,2023.2.3,Win32,60.60606061,657b66ea316d21385b68909f,,,,,,,,,,,,,,,,,,,,,,,,,,,,,,,,,,,,,,,,,,344.8946,346.672,right,1.7514,,346.6723,4,2,347.6709,0,5,5,5,1,4,4,4,4,,,,,,,,,,,,,,,,,,,,,,,,,,,,,,,,,,,,,,,,,
,,617431af6e82b2ebd42a3d67,65af56b5a08a0d49e2f07b4e,2024-01-23_08h05.18.071,bars,2023.2.3,Win32,60.60606061,657b66ea316d21385b68909f,,,,,,,,,,,,,,,,,,,,,,,,,,,,,,,,,,,,,,,,,,347.6721,348.8546,left,1.1514,,348.8548,1,1,349.8538,0,6,6,6,1,2,2,1,2,,,,,,,,,,,,,,,,,,,,,,,,,,,,,,,,,,,,,,,,,
,,617431af6e82b2ebd42a3d67,65af56b5a08a0d49e2f07b4e,2024-01-23_08h05.18.071,bars,2023.2.3,Win32,60.60606061,657b66ea316d21385b68909f,,,,,,,,,,,,,,,,,,,,,,,,,,,,,,,,,,,,,,,,,,349.8547,350.6537,right,0.7728,,350.6538,1,2,351.6539,0,7,7,7,1,0,0,0,1,,,,,,,,,,,,,,,,,,,,,,,,,,,,,,,,,,,,,,,,,
,,617431af6e82b2ebd42a3d67,65af56b5a08a0d49e2f07b4e,2024-01-23_08h05.18.071,bars,2023.2.3,Win32,60.60606061,657b66ea316d21385b68909f,,,,,,,,,,,,,,,,,,,,,,,,,,,,,,,,,,,,,,,,,,351.6552,354.9213,right,3.2347,,354.9216,0,2,355.9209,0,8,8,8,1,0,2,1,0,,,,,,,,,,,,,,,,,,,,,,,,,,,,,,,,,,,,,,,,,
,,617431af6e82b2ebd42a3d67,65af56b5a08a0d49e2f07b4e,2024-01-23_08h05.18.071,bars,2023.2.3,Win32,60.60606061,657b66ea316d21385b68909f,,,,,,,,,,,,,,,,,,,,,,,,,,,,,,,,,,,,,,,,,,355.9278,357.0874,right,1.1359,,357.0876,3,2,358.0868,0,9,9,9,1,2,4,2,3,,,,,,,,,,,,,,,,,,,,,,,,,,,,,,,,,,,,,,,,,
,,617431af6e82b2ebd42a3d67,65af56b5a08a0d49e2f07b4e,2024-01-23_08h05.18.071,bars,2023.2.3,Win32,60.60606061,657b66ea316d21385b68909f,,,,,,,,,,,,,,,,,,,,,,,,,,,,,,,,,,,,,,,,,,358.0884,359.1039,left,0.9857,,359.1041,0,1,360.1033,0,10,10,10,1,0,2,0,3,,,,,,,,,,,,,,,,,,,,,,,,,,,,,,,,,,,,,,,,,
,,617431af6e82b2ebd42a3d67,65af56b5a08a0d49e2f07b4e,2024-01-23_08h05.18.071,bars,2023.2.3,Win32,60.60606061,657b66ea316d21385b68909f,,,,,,,,,,,,,,,,,,,,,,,,,,,,,,,,,,,,,,,,,,360.1043,360.6214,right,0.4849,,360.6215,3,2,361.6208,0,11,11,11,1,0,4,0,3,,,,,,,,,,,,,,,,,,,,,,,,,,,,,,,,,,,,,,,,,
,,617431af6e82b2ebd42a3d67,65af56b5a08a0d49e2f07b4e,2024-01-23_08h05.18.071,bars,2023.2.3,Win32,60.60606061,657b66ea316d21385b68909f,,,,,,,,,,,,,,,,,,,,,,,,,,,,,,,,,,,,,,,,,,361.6223,362.0545,right,0.4017,,362.0546,6,2,363.0534,0,12,12,12,1,2,6,1,6,,,,,,,,,,,,,,,,,,,,,,,,,,,,,,,,,,,,,,,,,
,,617431af6e82b2ebd42a3d67,65af56b5a08a0d49e2f07b4e,2024-01-23_08h05.18.071,bars,2023.2.3,Win32,60.60606061,657b66ea316d21385b68909f,,,,,,,,,,,,,,,,,,,,,,,,,,,,,,,,,,,,,,,,,,363.0543,364.5794,right,1.5005,,364.5794,3,2,365.5704,0,13,13,13,1,0,4,1,3,,,,,,,,,,,,,,,,,,,,,,,,,,,,,,,,,,,,,,,,,
,,617431af6e82b2ebd42a3d67,65af56b5a08a0d49e2f07b4e,2024-01-23_08h05.18.071,bars,2023.2.3,Win32,60.60606061,657b66ea316d21385b68909f,,,,,,,,,,,,,,,,,,,,,,,,,,,,,,,,,,,,,,,,,,365.5716,366.2544,left,0.651,,366.2545,2,1,367.2534,0,14,14,14,1,2,6,2,7,,,,,,,,,,,,,,,,,,,,,,,,,,,,,,,,,,,,,,,,,
,,617431af6e82b2ebd42a3d67,65af56b5a08a0d49e2f07b4e,2024-01-23_08h05.18.071,bars,2023.2.3,Win32,60.60606061,657b66ea316d21385b68909f,,,,,,,,,,,,,,,,,,,,,,,,,,,,,,,,,,,,,,,,,,367.2544,367.6541,right,0.3677,,367.6543,9,2,368.6538,0,15,15,15,1,4,8,3,9,,,,,,,,,,,,,,,,,,,,,,,,,,,,,,,,,,,,,,,,,
,,617431af6e82b2ebd42a3d67,65af56b5a08a0d49e2f07b4e,2024-01-23_08h05.18.071,bars,2023.2.3,Win32,60.60606061,657b66ea316d21385b68909f,,,,,,,,,,,,,,,,,,,,,,,,,,,,,,,,,,,,,,,,,,368.6549,369.271,right,0.5846,,369.2712,7,2,370.2704,0,16,16,16,1,6,6,7,7,,,,,,,,,,,,,,,,,,,,,,,,,,,,,,,,,,,,,,,,,
,,617431af6e82b2ebd42a3d67,65af56b5a08a0d49e2f07b4e,2024-01-23_08h05.18.071,bars,2023.2.3,Win32,60.60606061,657b66ea316d21385b68909f,,,,,,,,,,,,,,,,,,,,,,,,,,,,,,,,,,,,,,,,,,370.2715,370.9875,right,0.685,,370.9876,5,2,371.9865,0,17,17,17,1,8,4,9,5,,,,,,,,,,,,,,,,,,,,,,,,,,,,,,,,,,,,,,,,,
,,617431af6e82b2ebd42a3d67,65af56b5a08a0d49e2f07b4e,2024-01-23_08h05.18.071,bars,2023.2.3,Win32,60.60606061,657b66ea316d21385b68909f,,,,,,,,,,,,,,,,,,,,,,,,,,,,,,,,,,,,,,,,,,371.9876,372.9875,right,0.9678,,372.9877,1,2,373.9866,0,18,18,18,1,6,2,5,1,,,,,,,,,,,,,,,,,,,,,,,,,,,,,,,,,,,,,,,,,
,,617431af6e82b2ebd42a3d67,65af56b5a08a0d49e2f07b4e,2024-01-23_08h05.18.071,bars,2023.2.3,Win32,60.60606061,657b66ea316d21385b68909f,,,,,,,,,,,,,,,,,,,,,,,,,,,,,,,,,,,,,,,,,,373.9877,374.371,left,0.3521,,374.3712,7,1,375.3703,0,19,19,19,1,8,0,7,0,,,,,,,,,,,,,,,,,,,,,,,,,,,,,,,,,,,,,,,,,
,,617431af6e82b2ebd42a3d67,65af56b5a08a0d49e2f07b4e,2024-01-23_08h05.18.071,bars,2023.2.3,Win32,60.60606061,657b66ea316d21385b68909f,,,,,,,,,,,,,,,,,,,,,,,,,,,,,,,,,,,,,,,,,,,,,,,,,,,,,,,,,,,,375.3723,394.7372,space,19.3333,,,,,,,,,,,,,,,,,,,,,,,,,,,,,,,,,,,,,
,,617431af6e82b2ebd42a3d67,65af56b5a08a0d49e2f07b4e,2024-01-23_08h05.18.071,bars,2023.2.3,Win32,60.60606061,657b66ea316d21385b68909f,,,,,,,,,,,396.9919,397.9864,,,398.4865,398.736,,66,66,,,,,,,,,,,,,,,,bars/030.png,bars/mask007.png,,,,,,,,,,,,4,2,,,,,,,3,6,4,4,,,,,,394.7451,396.9875,space,2.2191,,397.9874,398.4863,398.737,407.6057,space,8.8362,,407.6062,74,1,408.6028,408.6031,421.5046,space,12.8681,,0,0,0,0,1,140,65,,,,,,,,
,,617431af6e82b2ebd42a3d67,65af56b5a08a0d49e2f07b4e,2024-01-23_08h05.18.071,bars,2023.2.3,Win32,60.60606061,657b66ea316d21385b68909f,,,,,,,,,,,421.5103,422.5023,,,423.0025,423.2526,,128,128,,,,,,,,,,,,,,,,bars/034.png,bars/mask005.png,,,,,,,,,,,,1,1,,,,,,,1,4,1,2,,,,,,,,,,,422.5025,423.0023,423.2528,428.0859,space,4.8018,,428.0866,3,63,429.0857,429.0859,434.7279,space,5.6172,,0,1,1,1,1,125,65,,,,,,,,
,,617431af6e82b2ebd42a3d67,65af56b5a08a0d49e2f07b4e,2024-01-23_08h05.18.071,bars,2023.2.3,Win32,60.60606061,657b66ea316d21385b68909f,,,,,,,,,,,434.7326,435.7351,,,436.2357,436.4852,,60,-120,,,,,,,,,,,,,,,,bars/039.png,bars/mask003.png,,,,,,,,,,,,0,2,,,,,,,0,2,0,3,,,,,,,,,,,435.7354,436.2355,436.4853,442.2191,space,5.704,,442.2192,65,45,443.218,443.2182,444.427,space,1.1836,,0,2,2,2,1,175,105,,,,,,,,
,,617431af6e82b2ebd42a3d67,65af56b5a08a0d49e2f07b4e,2024-01-23_08h05.18.071,bars,2023.2.3,Win32,60.60606061,657b66ea316d21385b68909f,,,,,,,,,,,444.4272,445.4183,,,445.9185,446.1682,,123,123,,,,,,,,,,,,,,,,bars/012.png,bars/mask001.png,,,,,,,,,,,,0,1,,,,,,,2,0,1,1,,,,,,,,,,,445.4186,445.9183,446.1684,447.8852,space,1.6901,,447.8854,33,72,448.8849,448.885,451.6525,space,2.7348,,0,3,3,3,1,90,15,,,,,,,,
,,617431af6e82b2ebd42a3d67,65af56b5a08a0d49e2f07b4e,2024-01-23_08h05.18.071,bars,2023.2.3,Win32,60.60606061,657b66ea316d21385b68909f,,,,,,,,,,,451.654,452.6518,,,453.1508,453.4014,,1,181,,,,,,,,,,,,,,,,bars/048.png,bars/mask001.png,,,,,,,,,,,,1,2,,,,,,,0,0,0,1,,,,,,,,,,,452.6522,453.1506,453.4016,457.5022,space,4.0682,,457.5023,49,6,458.5008,458.5011,461.5022,space,2.9683,,0,4,4,4,1,50,175,,,,,,,,
,,617431af6e82b2ebd42a3d67,65af56b5a08a0d49e2f07b4e,2024-01-23_08h05.18.071,bars,2023.2.3,Win32,60.60606061,657b66ea316d21385b68909f,,,,,,,,,,,461.5037,462.5011,,,463.0016,463.2508,,171,171,,,,,,,,,,,,,,,,bars/037.png,bars/mask005.png,,,,,,,,,,,,0,1,,,,,,,0,0,0,0,,,,,,,,,,,462.5013,463.0014,463.2511,473.2015,space,9.9182,,473.2017,21,66,474.2009,474.2012,475.3347,space,1.1013,,0,5,5,5,1,150,105,,,,,,,,
,,617431af6e82b2ebd42a3d67,65af56b5a08a0d49e2f07b4e,2024-01-23_08h05.18.071,bars,2023.2.3,Win32,60.60606061,657b66ea316d21385b68909f,,,,,,,,,,,475.3364,476.3333,,,476.8346,477.0841,,143,143,,,,,,,,,,,,,,,,bars/020.png,bars/mask007.png,,,,,,,,,,,,0,2,,,,,,,0,2,2,3,,,,,,,,,,,476.3334,476.8345,477.0843,478.7514,space,1.6348,,478.7516,28,27,479.751,479.7512,482.2679,space,2.4843,,0,6,6,6,1,115,170,,,,,,,,
,,617431af6e82b2ebd42a3d67,65af56b5a08a0d49e2f07b4e,2024-01-23_08h05.18.071,bars,2023.2.3,Win32,60.60606061,657b66ea316d21385b68909f,,,,,,,,,,,482.2744,483.2675,,,483.7676,484.0172,,56,56,,,,,,,,,,,,,,,,bars/010.png,bars/mask006.png,,,,,,,,,,,,0,2,,,,,,,2,0,1,0,,,,,,,,,,,483.2677,483.7674,484.0173,489.3673,space,5.3184,,489.3676,71,1,490.3667,490.3668,495.0008,space,4.6009,,0,7,7,7,1,165,55,,,,,,,,
,,617431af6e82b2ebd42a3d67,65af56b5a08a0d49e2f07b4e,2024-01-23_08h05.18.071,bars,2023.2.3,Win32,60.60606061,657b66ea316d21385b68909f,,,,,,,,,,,495.0076,496.0006,,,496.5008,496.7497,,49,229,,,,,,,,,,,,,,,,bars/037.png,bars/mask000.png,,,,,,,,,,,,0,2,,,,,,,4,2,4,1,,,,,,,,,,,496.0008,496.5006,496.7499,500.4844,space,3.7026,,500.4847,79,56,501.4833,501.4834,502.6846,space,1.1699,,0,8,8,8,1,150,105,,,,,,,,
,,617431af6e82b2ebd42a3d67,65af56b5a08a0d49e2f07b4e,2024-01-23_08h05.18.071,bars,2023.2.3,Win32,60.60606061,657b66ea316d21385b68909f,,,,,,,,,,,502.6869,503.6833,,,504.1831,504.4334,,127,127,,,,,,,,,,,,,,,,bars/034.png,bars/mask003.png,,,,,,,,,,,,2,1,,,,,,,2,0,2,0,,,,,,,,,,,503.6837,504.1829,504.4336,505.9829,space,1.5186,,505.9831,2,62,506.9834,506.9836,508.4165,space,1.4035,,0,9,9,9,1,125,65,,,,,,,,
,,617431af6e82b2ebd42a3d67,65af56b5a08a0d49e2f07b4e,2024-01-23_08h05.18.071,bars,2023.2.3,Win32,60.60606061,657b66ea316d21385b68909f,,,,,,,,,,,508.4177,509.4168,,,509.9174,510.1583,,82,82,,,,,,,,,,,,,,,,bars/017.png,bars/mask008.png,,,,,,,,,,,,0,2,,,,,,,4,0,4,0,,,,,,,,,,,509.417,509.9173,510.1583,511.367,space,1.1848,,511.3672,63,37,512.3582,512.3582,513.3179,space,0.9332,,0,10,10,10,1,145,45,,,,,,,,
,,617431af6e82b2ebd42a3d67,65af56b5a08a0d49e2f07b4e,2024-01-23_08h05.18.071,bars,2023.2.3,Win32,60.60606061,657b66ea316d21385b68909f,,,,,,,,,,,513.3195,514.317,,,514.8168,515.0666,,125,125,,,,,,,,,,,,,,,,bars/027.png,bars/mask008.png,,,,,,,,,,,,3,1,,,,,,,6,0,6,0,,,,,,,,,,,514.3171,514.8166,515.0667,519.0202,space,3.9256,,519.0203,15,75,520.0161,520.0164,522.1669,space,2.1202,,0,11,11,11,1,110,50,,,,,,,,
,,617431af6e82b2ebd42a3d67,65af56b5a08a0d49e2f07b4e,2024-01-23_08h05.18.071,bars,2023.2.3,Win32,60.60606061,657b66ea316d21385b68909f,,,,,,,,,,,522.1681,523.1662,,,523.6668,523.9164,,111,111,,,,,,,,,,,,,,,,bars/017.png,bars/mask007.png,,,,,,,,,,,,0,1,,,,,,,4,0,5,1,,,,,,,,,,,523.1665,523.6666,523.9166,527.4666,space,3.5185,,527.4668,34,66,528.4655,528.4656,534.3502,space,5.8514,,0,12,12,12,1,145,45,,,,,,,,
,,617431af6e82b2ebd42a3d67,65af56b5a08a0d49e2f07b4e,2024-01-23_08h05.18.071,bars,2023.2.3,Win32,60.60606061,657b66ea316d21385b68909f,,,,,,,,,,,534.3568,535.3576,,,535.8494,536.0996,,149,149,,,,,,,,,,,,,,,,bars/048.png,bars/mask004.png,,,,,,,,,,,,0,2,,,,,,,6,0,6,0,,,,,,,,,,,535.3576,535.8492,536.0997,539.2666,space,3.1388,,539.2668,81,26,540.2663,540.2665,545.3999,space,5.1013,,0,13,13,13,1,50,175,,,,,,,,
,,617431af6e82b2ebd42a3d67,65af56b5a08a0d49e2f07b4e,2024-01-23_08h05.18.071,bars,2023.2.3,Win32,60.60606061,657b66ea316d21385b68909f,,,,,,,,,,,545.4066,546.3983,,,546.9,547.149,,103,103,,,,,,,,,,,,,,,,bars/014.png,bars/mask004.png,,,,,,,,,,,,1,1,,,,,,,4,0,4,0,,,,,,,,,,,546.3984,546.8996,547.1492,547.7579,space,0.5842,,547.7579,23,77,548.7484,548.7484,550.3164,space,1.534,,0,14,14,14,1,80,0,,,,,,,,
,,617431af6e82b2ebd42a3d67,65af56b5a08a0d49e2f07b4e,2024-01-23_08h05.18.071,bars,2023.2.3,Win32,60.60606061,657b66ea316d21385b68909f,,,,,,,,,,,550.3179,551.3153,,,551.8161,552.0663,,151,151,,,,,,,,,,,,,,,,bars/014.png,bars/mask007.png,,,,,,,,,,,,0,2,,,,,,,2,2,1,3,,,,,,,,,,,551.3155,551.816,552.0665,552.9744,space,0.8835,,552.9744,71,29,553.9663,553.9666,556.2665,space,2.268,,0,15,15,15,1,80,0,,,,,,,,
,,617431af6e82b2ebd42a3d67,65af56b5a08a0d49e2f07b4e,2024-01-23_08h05.18.071,bars,2023.2.3,Win32,60.60606061,657b66ea316d21385b68909f,,,,,,,,,,,556.268,557.2656,,,557.7579,557.9983,,115,115,,,,,,,,,,,,,,,,bars/042.png,bars/mask005.png,,,,,,,,,,,,0,1,,,,,,,4,4,5,5,,,,,,,,,,,557.2658,557.7579,557.9985,562.6578,space,4.6342,,562.6578,30,40,563.649,563.6491,564.6828,space,1.0006,,0,16,16,16,1,145,75,,,,,,,,
,,617431af6e82b2ebd42a3d67,65af56b5a08a0d49e2f07b4e,2024-01-23_08h05.18.071,bars,2023.2.3,Win32,60.60606061,657b66ea316d21385b68909f,,,,,,,,,,,564.6844,565.6738,,,566.1659,566.4079,,59,59,,,,,,,,,,,,,,,,bars/046.png,bars/mask006.png,,,,,,,,,,,,1,2,,,,,,,6,6,4,6,,,,,,,,,,,565.6738,566.1657,566.408,569.3238,space,2.9002,,569.3238,84,26,570.3236,570.3236,574.0829,space,3.7338,,0,17,17,17,1,155,85,,,,,,,,
,,617431af6e82b2ebd42a3d67,65af56b5a08a0d49e2f07b4e,2024-01-23_08h05.18.071,bars,2023.2.3,Win32,60.60606061,657b66ea316d21385b68909f,,,,,,,,,,,574.0893,575.0809,,,575.5818,575.8317,,21,21,,,,,,,,,,,,,,,,bars/046.png,bars/mask009.png,,,,,,,,,,,,0,1,,,,,,,8,4,9,4,,,,,,,,,,,575.0809,575.5816,575.8319,587.2648,space,11.4088,,587.2649,46,64,588.2648,588.2649,589.9652,space,1.6668,,0,18,18,18,1,155,85,,,,,,,,
,,617431af6e82b2ebd42a3d67,65af56b5a08a0d49e2f07b4e,2024-01-23_08h05.18.071,bars,2023.2.3,Win32,60.60606061,657b66ea316d21385b68909f,,,,,,,,,,,589.9669,590.9645,,,591.4649,591.715,,133,133,,,,,,,,,,,,,,,,bars/019.png,bars/mask008.png,,,,,,,,,,,,0,2,,,,,,,6,6,6,7,,,,,,,,,,,590.9647,591.4646,591.7152,595.3485,space,3.6015,,595.3486,88,28,596.3478,596.3481,597.1986,space,0.8217,,0,19,19,19,1,45,105,,,,,,,,
,,617431af6e82b2ebd42a3d67,65af56b5a08a0d49e2f07b4e,2024-01-23_08h05.18.071,bars,2023.2.3,Win32,60.60606061,657b66ea316d21385b68909f,,,,,,,,,,,597.2,598.1976,,,598.6981,598.9482,,126,126,,,,,,,,,,,,,,,,bars/007.png,bars/mask003.png,,,,,,,,,,,,0,1,,,,,,,4,8,4,6,,,,,,,,,,,598.1979,598.6979,598.9484,602.6634,space,3.6905,,602.6634,49,71,603.6642,603.6644,604.7486,space,1.0507,,0,20,20,20,1,175,55,,,,,,,,
,,617431af6e82b2ebd42a3d67,65af56b5a08a0d49e2f07b4e,2024-01-23_08h05.18.071,bars,2023.2.3,Win32,60.60606061,657b66ea316d21385b68909f,,,,,,,,,,,604.7499,605.7476,,,606.2477,606.4983,,56,56,,,,,,,,,,,,,,,,bars/020.png,bars/mask008.png,,,,,,,,,,,,0,1,,,,,,,2,10,2,10,,,,,,,,,,,605.7478,606.2476,606.4984,609.2983,space,2.7694,,609.2985,59,66,610.2976,610.2977,614.598,space,4.2679,,0,21,21,21,1,115,170,,,,,,,,
,,617431af6e82b2ebd42a3d67,65af56b5a08a0d49e2f07b4e,2024-01-23_08h05.18.071,bars,2023.2.3,Win32,60.60606061,657b66ea316d21385b68909f,,,,,,,,,,,614.6045,615.5969,,,616.0974,616.3475,,41,221,,,,,,,,,,,,,,,,bars/024.png,bars/mask007.png,,,,,,,,,,,,0,2,,,,,,,0,8,0,8,,,,,,,,,,,615.5971,616.0973,616.3477,619.8647,space,3.4963,,619.8649,79,51,620.8638,620.8641,627.4974,space,6.6003,,0,22,22,22,1,120,170,,,,,,,,
,,617431af6e82b2ebd42a3d67,65af56b5a08a0d49e2f07b4e,2024-01-23_08h05.18.071,bars,2023.2.3,Win32,60.60606061,657b66ea316d21385b68909f,,,,,,,,,,,627.5041,628.497,,,628.9972,629.2473,,157,-23,,,,,,,,,,,,,,,,bars/037.png,bars/mask005.png,,,,,,,,,,,,0,1,,,,,,,0,10,0,10,,,,,,,,,,,628.4972,628.9969,629.2475,633.7643,space,4.4896,,633.7645,7,52,634.7633,634.7634,639.8965,space,5.1037,,0,23,23,23,1,150,105,,,,,,,,
,,617431af6e82b2ebd42a3d67,65af56b5a08a0d49e2f07b4e,2024-01-23_08h05.18.071,bars,2023.2.3,Win32,60.60606061,657b66ea316d21385b68909f,,,,,,,,,,,639.9045,640.8966,,,641.396,641.6461,,156,156,,,,,,,,,,,,,,,,bars/023.png,bars/mask001.png,,,,,,,,,,,,0,2,,,,,,,0,10,0,10,,,,,,,,,,,640.8969,641.396,641.6462,647.1641,space,5.501,,647.1643,44,41,648.163,648.1632,652.3638,space,4.168,,0,24,24,24,1,20,115,,,,,,,,
,,617431af6e82b2ebd42a3d67,65af56b5a08a0d49e2f07b4e,2024-01-23_08h05.18.071,bars,2023.2.3,Win32,60.60606061,657b66ea316d21385b68909f,,,,,,,,,,,652.3708,653.3634,,,653.8541,654.0971,,17,17,,,,,,,,,,,,,,,,bars/030.png,bars/mask002.png,,,,,,,,,,,,0,2,,,,,,,2,8,3,7,,,,,,,,,,,653.3635,653.8541,654.0974,658.4638,space,4.3374,,658.464,57,48,659.4626,659.4628,662.1967,space,2.7018,,0,25,25,25,1,140,65,,,,,,,,
,,617431af6e82b2ebd42a3d67,65af56b5a08a0d49e2f07b4e,2024-01-23_08h05.18.071,bars,2023.2.3,Win32,60.60606061,657b66ea316d21385b68909f,,,,,,,,,,,662.1979,663.1964,,,663.7046,663.9461,,59,59,,,,,,,,,,,,,,,,bars/025.png,bars/mask006.png,,,,,,,,,,,,2,2,,,,,,,0,6,0,6,,,,,,,,,,,663.1965,663.7046,663.9464,669.4299,space,5.4514,,669.4301,46,19,670.4291,670.4292,710.5617,space,40.1055,,0,26,26,26,1,105,40,,,,,,,,
,,617431af6e82b2ebd42a3d67,65af56b5a08a0d49e2f07b4e,2024-01-23_08h05.18.071,bars,2023.2.3,Win32,60.60606061,657b66ea316d21385b68909f,,,,,,,,,,,710.5698,711.5618,,,712.0535,712.2951,,146,146,,,,,,,,,,,,,,,,bars/012.png,bars/mask003.png,,,,,,,,,,,,0,2,,,,,,,2,8,1,6,,,,,,,,,,,711.562,712.0535,712.2952,716.9689,space,4.6492,,716.969,56,49,717.9613,717.9615,718.6124,space,0.6177,,0,27,27,27,1,90,15,,,,,,,,
,,617431af6e82b2ebd42a3d67,65af56b5a08a0d49e2f07b4e,2024-01-23_08h05.18.071,bars,2023.2.3,Win32,60.60606061,657b66ea316d21385b68909f,,,,,,,,,,,718.6137,719.6115,,,720.112,720.3613,,90,90,,,,,,,,,,,,,,,,bars/001.png,bars/mask000.png,,,,,,,,,,,,4,2,,,,,,,4,6,3,5,,,,,,,,,,,719.6118,720.1119,720.3615,725.2289,space,4.8346,,725.2291,40,5,726.2279,726.2281,728.4039,space,2.1506,,0,28,28,28,1,130,85,,,,,,,,
,,617431af6e82b2ebd42a3d67,65af56b5a08a0d49e2f07b4e,2024-01-23_08h05.18.071,bars,2023.2.3,Win32,60.60606061,657b66ea316d21385b68909f,,,,,,,,,,,728.4041,729.3945,,,729.8949,730.1446,,113,113,,,,,,,,,,,,,,,,bars/029.png,bars/mask004.png,,,,,,,,,,,,0,1,,,,,,,2,8,2,7,,,,,,,,,,,729.3947,729.8948,730.1447,736.1037,space,5.9341,,736.1037,23,68,737.0936,737.0937,739.5118,space,2.3843,,0,29,29,29,1,90,45,,,,,,,,
,,617431af6e82b2ebd42a3d67,65af56b5a08a0d49e2f07b4e,2024-01-23_08h05.18.071,bars,2023.2.3,Win32,60.60606061,657b66ea316d21385b68909f,,,,,,,,,,,739.5135,740.511,,,741.0116,741.2511,,91,91,,,,,,,,,,,,,,,,bars/007.png,bars/mask009.png,,,,,,,,,,,,0,2,,,,,,,0,10,1,10,,,,,,,,,,,740.5112,741.0114,741.2512,746.3947,space,5.1192,,746.3949,84,36,747.394,747.3942,748.8618,space,1.4346,,0,30,30,30,1,175,55,,,,,,,,
,,617431af6e82b2ebd42a3d67,65af56b5a08a0d49e2f07b4e,2024-01-23_08h05.18.071,bars,2023.2.3,Win32,60.60606061,657b66ea316d21385b68909f,,,,,,,,,,,748.8632,749.8605,,,750.3611,750.6107,,36,36,,,,,,,,,,,,,,,,bars/010.png,bars/mask005.png,,,,,,,,,,,,3,2,,,,,,,2,8,1,7,,,,,,,,,,,749.8607,750.361,750.6109,756.7113,space,6.071,,756.7116,51,19,757.7108,757.711,759.0029,space,1.2668,,0,31,31,31,1,165,55,,,,,,,,
,,617431af6e82b2ebd42a3d67,65af56b5a08a0d49e2f07b4e,2024-01-23_08h05.18.071,bars,2023.2.3,Win32,60.60606061,657b66ea316d21385b68909f,,,,,,,,,,,759.003,759.9936,,,760.4941,760.7433,,44,44,,,,,,,,,,,,,,,,bars/027.png,bars/mask000.png,,,,,,,,,,,,5,2,,,,,,,0,6,0,6,,,,,,,,,,,759.9938,760.494,760.7435,768.0609,space,7.2846,,768.0611,66,6,769.0602,769.0603,778.1267,space,9.0396,,0,32,32,32,1,110,50,,,,,,,,
,,617431af6e82b2ebd42a3d67,65af56b5a08a0d49e2f07b4e,2024-01-23_08h05.18.071,bars,2023.2.3,Win32,60.60606061,657b66ea316d21385b68909f,,,,,,,,,,,778.1346,779.1259,,,779.6268,779.8765,,115,115,,,,,,,,,,,,,,,,bars/032.png,bars/mask000.png,,,,,,,,,,,,3,1,,,,,,,2,8,4,8,,,,,,,,,,,779.1259,779.6265,779.8767,785.4852,space,5.5835,,785.4852,10,85,786.4766,786.4767,792.8107,space,6.301,,0,33,33,33,1,125,20,,,,,,,,
,,617431af6e82b2ebd42a3d67,65af56b5a08a0d49e2f07b4e,2024-01-23_08h05.18.071,bars,2023.2.3,Win32,60.60606061,657b66ea316d21385b68909f,,,,,,,,,,,792.8172,793.8105,,,794.3097,794.5599,,26,206,,,,,,,,,,,,,,,,bars/035.png,bars/mask004.png,,,,,,,,,,,,0,1,,,,,,,0,10,0,10,,,,,,,,,,,793.8106,794.3096,794.56,798.5266,space,3.9353,,798.5269,31,34,799.5256,799.5258,802.277,space,2.7198,,0,34,34,34,1,175,60,,,,,,,,
,,617431af6e82b2ebd42a3d67,65af56b5a08a0d49e2f07b4e,2024-01-23_08h05.18.071,bars,2023.2.3,Win32,60.60606061,657b66ea316d21385b68909f,,,,,,,,,,,802.2785,803.2762,,,803.7763,804.0261,,57,57,,,,,,,,,,,,,,,,bars/013.png,bars/mask009.png,,,,,,,,,,,,0,1,,,,,,,0,10,0,8,,,,,,,,,,,803.2764,803.776,804.0263,809.1762,space,5.1242,,809.1764,18,47,810.1761,810.1762,811.8268,space,1.6201,,0,35,35,35,1,75,10,,,,,,,,
,,617431af6e82b2ebd42a3d67,65af56b5a08a0d49e2f07b4e,2024-01-23_08h05.18.071,bars,2023.2.3,Win32,60.60606061,657b66ea316d21385b68909f,,,,,,,,,,,811.8281,812.8258,,,813.326,813.5759,,83,83,,,,,,,,,,,,,,,,bars/048.png,bars/mask000.png,,,,,,,,,,,,0,1,,,,,,,0,10,0,9,,,,,,,,,,,812.8259,813.3258,813.576,815.2516,space,1.651,,815.2516,33,88,816.2427,816.2428,817.2928,space,1.0177,,0,36,36,36,1,50,175,,,,,,,,
,,617431af6e82b2ebd42a3d67,65af56b5a08a0d49e2f07b4e,2024-01-23_08h05.18.071,bars,2023.2.3,Win32,60.60606061,657b66ea316d21385b68909f,,,,,,,,,,,817.2939,818.2929,,,818.792,819.0417,,27,27,,,,,,,,,,,,,,,,bars/032.png,bars/mask006.png,,,,,,,,,,,,6,2,,,,,,,2,8,2,8,,,,,,,,,,,818.293,818.7918,819.0419,822.6765,space,3.6167,,822.6768,82,7,823.6756,823.6758,825.7083,space,2.0017,,0,37,37,37,1,125,20,,,,,,,,
,,617431af6e82b2ebd42a3d67,65af56b5a08a0d49e2f07b4e,2024-01-23_08h05.18.071,bars,2023.2.3,Win32,60.60606061,657b66ea316d21385b68909f,,,,,,,,,,,825.7095,826.7092,,,827.2092,827.4624,,118,118,,,,,,,,,,,,,,,,bars/048.png,bars/mask000.png,,,,,,,,,,,,0,2,,,,,,,0,6,0,7,,,,,,,,,,,826.7093,827.209,827.4624,831.4934,space,4.0214,,831.4934,68,57,832.4927,832.4929,835.826,space,3.302,,0,38,38,38,1,50,175,,,,,,,,
,,617431af6e82b2ebd42a3d67,65af56b5a08a0d49e2f07b4e,2024-01-23_08h05.18.071,bars,2023.2.3,Win32,60.60606061,657b66ea316d21385b68909f,,,,,,,,,,,835.8328,836.8251,,,837.3256,837.5754,,35,35,,,,,,,,,,,,,,,,bars/046.png,bars/mask006.png,,,,,,,,,,,,0,2,,,,,,,0,4,1,3,,,,,,,,,,,836.8254,837.3254,837.5756,840.4338,space,2.8336,,840.4338,60,50,841.4252,841.4254,843.701,space,2.2507,,0,39,39,39,1,155,85,,,,,,,,
,,617431af6e82b2ebd42a3d67,65af56b5a08a0d49e2f07b4e,2024-01-23_08h05.18.071,bars,2023.2.3,Win32,60.60606061,657b66ea316d21385b68909f,,,,,,,,,,,843.7058,844.7087,,,845.2087,845.4584,,70,70,,,,,,,,,,,,,,,,bars/009.png,bars/mask009.png,,,,,,,,,,,,0,2,,,,,,,0,6,1,6,,,,,,,,,,,844.7088,845.2086,845.4586,850.1842,space,4.7009,,850.1843,55,35,851.175,851.1751,852.326,space,1.1229,,0,40,40,40,1,15,105,,,,,,,,
,,617431af6e82b2ebd42a3d67,65af56b5a08a0d49e2f07b4e,2024-01-23_08h05.18.071,bars,2023.2.3,Win32,60.60606061,657b66ea316d21385b68909f,,,,,,,,,,,852.3282,853.325,,,853.8252,854.075,,49,49,,,,,,,,,,,,,,,,bars/040.png,bars/mask001.png,,,,,,,,,,,,0,2,,,,,,,2,4,2,3,,,,,,,,,,,853.3252,853.825,854.0752,855.8641,space,1.7637,,855.8641,89,44,856.8586,856.8588,857.7424,space,0.8518,,0,41,41,41,1,140,5,,,,,,,,
,,617431af6e82b2ebd42a3d67,65af56b5a08a0d49e2f07b4e,2024-01-23_08h05.18.071,bars,2023.2.3,Win32,60.60606061,657b66ea316d21385b68909f,,,,,,,,,,,857.7444,858.7415,,,859.242,859.4914,,28,28,,,,,,,,,,,,,,,,bars/014.png,bars/mask006.png,,,,,,,,,,,,0,2,,,,,,,4,6,3,7,,,,,,,,,,,858.7416,859.2418,859.4916,862.5078,space,2.9958,,862.5079,52,28,863.5077,863.5079,864.3586,space,0.8181,,0,42,42,42,1,80,0,,,,,,,,
,,617431af6e82b2ebd42a3d67,65af56b5a08a0d49e2f07b4e,2024-01-23_08h05.18.071,bars,2023.2.3,Win32,60.60606061,657b66ea316d21385b68909f,,,,,,,,,,,864.36,865.3576,,,865.8581,866.1079,,39,39,,,,,,,,,,,,,,,,bars/010.png,bars/mask007.png,,,,,,,,,,,,2,2,,,,,,,2,4,3,4,,,,,,,,,,,865.3578,865.858,866.1081,870.6421,space,4.5062,,870.6422,54,16,871.6402,871.6403,874.5589,space,2.8855,,0,43,43,43,1,165,55,,,,,,,,
,,617431af6e82b2ebd42a3d67,65af56b5a08a0d49e2f07b4e,2024-01-23_08h05.18.071,bars,2023.2.3,Win32,60.60606061,657b66ea316d21385b68909f,,,,,,,,,,,874.5661,875.5573,,,876.0572,876.3075,,42,222,,,,,,,,,,,,,,,,bars/028.png,bars/mask001.png,,,,,,,,,,,,0,1,,,,,,,0,2,0,0,,,,,,,,,,,875.5574,876.0571,876.3076,882.0916,space,5.7517,,882.0918,3,78,883.0909,883.0911,884.4584,space,1.3339,,0,44,44,44,1,45,120,,,,,,,,
,,617431af6e82b2ebd42a3d67,65af56b5a08a0d49e2f07b4e,2024-01-23_08h05.18.071,bars,2023.2.3,Win32,60.60606061,657b66ea316d21385b68909f,,,,,,,,,,,884.4599,885.4577,,,885.9575,886.2074,,32,212,,,,,,,,,,,,,,,,bars/018.png,bars/mask004.png,,,,,,,,,,,,0,2,,,,,,,2,4,2,3,,,,,,,,,,,885.4577,885.9573,886.2075,893.1247,space,6.8863,,893.1249,62,58,894.1239,894.124,895.5248,space,1.3682,,0,45,45,45,1,150,90,,,,,,,,
,,617431af6e82b2ebd42a3d67,65af56b5a08a0d49e2f07b4e,2024-01-23_08h05.18.071,bars,2023.2.3,Win32,60.60606061,657b66ea316d21385b68909f,,,,,,,,,,,895.5268,896.5236,,,897.0236,897.2739,,52,52,,,,,,,,,,,,,,,,bars/045.png,bars/mask009.png,,,,,,,,,,,,0,2,,,,,,,4,6,4,6,,,,,,,,,,,896.5237,897.0236,897.2741,899.6576,space,2.3522,,899.6578,48,42,900.6571,900.6572,902.7244,space,2.0351,,0,46,46,46,1,100,10,,,,,,,,
,,617431af6e82b2ebd42a3d67,65af56b5a08a0d49e2f07b4e,2024-01-23_08h05.18.071,bars,2023.2.3,Win32,60.60606061,657b66ea316d21385b68909f,,,,,,,,,,,902.7257,903.7235,,,904.2234,904.4737,,62,62,,,,,,,,,,,,,,,,bars/001.png,bars/mask005.png,,,,,,,,,,,,2,2,,,,,,,2,8,2,7,,,,,,,,,,,903.7236,904.2233,904.4739,908.6328,space,4.1501,,908.6328,68,23,909.6232,909.6234,910.8241,space,1.1676,,0,47,47,47,1,130,85,,,,,,,,
,,617431af6e82b2ebd42a3d67,65af56b5a08a0d49e2f07b4e,2024-01-23_08h05.18.071,bars,2023.2.3,Win32,60.60606061,657b66ea316d21385b68909f,,,,,,,,,,,910.8254,911.8228,,,912.3236,912.5731,,63,63,,,,,,,,,,,,,,,,bars/012.png,bars/mask002.png,,,,,,,,,,,,0,1,,,,,,,4,6,2,5,,,,,,,,,,,911.823,912.3234,912.5733,917.6661,space,5.0675,,917.6661,27,48,918.656,918.6562,919.9739,space,1.285,,0,48,48,48,1,90,15,,,,,,,,
,,617431af6e82b2ebd42a3d67,65af56b5a08a0d49e2f07b4e,2024-01-23_08h05.18.071,bars,2023.2.3,Win32,60.60606061,657b66ea316d21385b68909f,,,,,,,,,,,919.9753,920.9724,,,921.4734,921.723,,56,236,,,,,,,,,,,,,,,,bars/007.png,bars/mask004.png,,,,,,,,,,,,8,2,,,,,,,2,8,1,8,,,,,,,,,,,920.9724,921.4732,921.7232,927.3079,space,5.5517,,927.3081,61,1,928.3066,928.3068,930.9563,space,2.6233,,0,49,49,49,1,175,55,,,,,,,,
,,617431af6e82b2ebd42a3d67,65af56b5a08a0d49e2f07b4e,2024-01-23_08h05.18.071,bars,2023.2.3,Win32,60.60606061,657b66ea316d21385b68909f,,,,,,,,,,,,,,,,,,,,,,,,,,,,,,,,,,,,,,,,,,,,,,,,,,,,,,,,,,,,,,,,,,,,,,,,,,,,,,,,,,,,,,,,,,,,,930.9587,990.957,0,0,0,4,1,sequence_tables/blk042.csv
,,617431af6e82b2ebd42a3d67,65af56b5a08a0d49e2f07b4e,2024-01-23_08h05.18.071,bars,2023.2.3,Win32,60.60606061,657b66ea316d21385b68909f,,,,,,,,,,,1011.0655,1012.0542,,,1012.5549,1012.805,,36,216,,,,,,,,,,,,,,,,bars/028.png,bars/mask008.png,,,,,,,,,,,,6,1,,,,,,,9,4,9,4,,,,,,990.9643,1011.0553,space,20.074,,1012.0545,1012.5547,1012.805,1018.1051,space,5.268,,1018.1053,9,84,1019.1046,1019.1048,1019.1118,,,,0,0,0,0,1,45,120,,,,,,,,
,,617431af6e82b2ebd42a3d67,65af56b5a08a0d49e2f07b4e,2024-01-23_08h05.18.071,bars,2023.2.3,Win32,60.60606061,657b66ea316d21385b68909f,,,,,,,,,,,1019.112,1020.1037,,,1020.6044,1020.8542,,37,217,,,,,,,,,,,,,,,,bars/034.png,bars/mask000.png,,,,,,,,,,,,0,2,,,,,,,7,2,7,0,,,,,,,,,,,1020.1039,1020.6042,1020.8544,1025.1797,space,4.3009,,1025.1798,88,28,1026.1708,1026.1709,1026.1783,,,,0,1,1,1,1,125,65,,,,,,,,
,,617431af6e82b2ebd42a3d67,65af56b5a08a0d49e2f07b4e,2024-01-23_08h05.18.071,bars,2023.2.3,Win32,60.60606061,657b66ea316d21385b68909f,,,,,,,,,,,1026.1784,1027.1704,,,1027.671,1027.9213,,32,212,,,,,,,,,,,,,,,,bars/012.png,bars/mask005.png,,,,,,,,,,,,0,2,,,,,,,9,0,8,1,,,,,,,,,,,1027.1706,1027.6709,1027.9214,1030.8711,space,2.9193,,1030.8713,58,17,1031.8708,1031.8709,1031.8779,,,,0,2,2,2,1,90,15,,,,,,,,
,,617431af6e82b2ebd42a3d67,65af56b5a08a0d49e2f07b4e,2024-01-23_08h05.18.071,bars,2023.2.3,Win32,60.60606061,657b66ea316d21385b68909f,,,,,,,,,,,1031.878,1032.8704,,,1033.3709,1033.621,,139,139,,,,,,,,,,,,,,,,bars/018.png,bars/mask003.png,,,,,,,,,,,,5,1,,,,,,,7,2,8,2,,,,,,,,,,,1032.8705,1033.3708,1033.6212,1035.5711,space,1.9222,,1035.5713,11,49,1036.571,1036.5711,1036.5747,,,,0,3,3,3,1,150,90,,,,,,,,
,,617431af6e82b2ebd42a3d67,65af56b5a08a0d49e2f07b4e,2024-01-23_08h05.18.071,bars,2023.2.3,Win32,60.60606061,657b66ea316d21385b68909f,,,,,,,,,,,1036.5747,1037.5714,,,1038.0704,1038.3208,,134,134,,,,,,,,,,,,,,,,bars/003.png,bars/mask005.png,,,,,,,,,,,,3,2,,,,,,,9,4,9,4,,,,,,,,,,,1037.5715,1038.0702,1038.3209,1040.9041,space,2.5516,,1040.9042,71,6,1041.9041,1041.9042,1041.9113,,,,0,4,4,4,1,25,140,,,,,,,,
,,617431af6e82b2ebd42a3d67,65af56b5a08a0d49e2f07b4e,2024-01-23_08h05.18.071,bars,2023.2.3,Win32,60.60606061,657b66ea316d21385b68909f,,,,,,,,,,,1041.9114,1042.9032,,,1043.4036,1043.6536,,58,58,,,,,,,,,,,,,,,,bars/037.png,bars/mask007.png,,,,,,,,,,,,0,2,,,,,,,10,6,10,6,,,,,,,,,,,1042.9033,1043.4034,1043.6537,1045.9874,space,2.3094,,1045.9875,88,47,1046.9867,1046.9868,1046.9891,,,,0,5,5,5,1,150,105,,,,,,,,
,,617431af6e82b2ebd42a3d67,65af56b5a08a0d49e2f07b4e,2024-01-23_08h05.18.071,bars,2023.2.3,Win32,60.60606061,657b66ea316d21385b68909f,,,,,,,,,,,1046.9896,1047.9861,,,1048.4862,1048.7268,,66,66,,,,,,,,,,,,,,,,bars/022.png,bars/mask005.png,,,,,,,,,,,,0,1,,,,,,,8,4,9,6,,,,,,,,,,,1047.9861,1048.4861,1048.7269,1063.0439,space,14.2989,,1063.0439,29,46,1064.0364,1064.0366,1064.0448,,,,0,6,6,6,1,95,20,,,,,,,,
,,617431af6e82b2ebd42a3d67,65af56b5a08a0d49e2f07b4e,2024-01-23_08h05.18.071,bars,2023.2.3,Win32,60.60606061,657b66ea316d21385b68909f,,,,,,,,,,,1064.0449,1065.0366,,,1065.5367,1065.7865,,101,101,,,,,,,,,,,,,,,,bars/020.png,bars/mask002.png,,,,,,,,,,,,5,1,,,,,,,10,2,10,2,,,,,,,,,,,1065.0368,1065.5365,1065.7866,1083.9195,space,18.1076,,1083.9198,14,69,1084.9196,1084.9196,1084.9277,,,,0,7,7,7,1,115,170,,,,,,,,
,,617431af6e82b2ebd42a3d67,65af56b5a08a0d49e2f07b4e,2024-01-23_08h05.18.071,bars,2023.2.3,Win32,60.60606061,657b66ea316d21385b68909f,,,,,,,,,,,1084.9278,1085.9193,,,1086.4197,1086.669,,64,64,,,,,,,,,,,,,,,,bars/043.png,bars/mask006.png,,,,,,,,,,,,0,1,,,,,,,10,4,10,4,,,,,,,,,,,1085.9196,1086.4195,1086.6691,1089.4949,space,2.7997,,1089.4949,34,66,1090.4854,1090.4856,1090.4926,,,,0,8,8,8,1,30,130,,,,,,,,
,,617431af6e82b2ebd42a3d67,65af56b5a08a0d49e2f07b4e,2024-01-23_08h05.18.071,bars,2023.2.3,Win32,60.60606061,657b66ea316d21385b68909f,,,,,,,,,,,1090.4927,1091.4861,,,1091.9865,1092.2361,,10,10,,,,,,,,,,,,,,,,bars/039.png,bars/mask001.png,,,,,,,,,,,,3,1,,,,,,,8,6,6,5,,,,,,,,,,,1091.4863,1091.9863,1092.2362,1093.0702,space,0.8021,,1093.0703,15,85,1094.0694,1094.0695,1094.0726,,,,0,9,9,9,1,175,105,,,,,,,,
,,617431af6e82b2ebd42a3d67,65af56b5a08a0d49e2f07b4e,2024-01-23_08h05.18.071,bars,2023.2.3,Win32,60.60606061,657b66ea316d21385b68909f,,,,,,,,,,,1094.0728,1095.0689,,,1095.5691,1095.8188,,30,30,,,,,,,,,,,,,,,,bars/022.png,bars/mask004.png,,,,,,,,,,,,3,2,,,,,,,6,4,6,5,,,,,,,,,,,1095.069,1095.5689,1095.819,1096.4692,space,0.6251,,1096.4694,65,10,1097.4681,1097.4683,1097.4731,,,,0,10,10,10,1,95,20,,,,,,,,
,,617431af6e82b2ebd42a3d67,65af56b5a08a0d49e2f07b4e,2024-01-23_08h05.18.071,bars,2023.2.3,Win32,60.60606061,657b66ea316d21385b68909f,,,,,,,,,,,1097.4732,1098.4686,,,1098.9682,1099.2189,,147,147,,,,,,,,,,,,,,,,bars/007.png,bars/mask006.png,,,,,,,,,,,,0,1,,,,,,,4,2,3,2,,,,,,,,,,,1098.4687,1098.9682,1099.2191,1100.32,space,1.0844,,1100.3201,28,88,1101.319,1101.3192,1101.3265,,,,0,11,11,11,1,175,55,,,,,,,,
,,617431af6e82b2ebd42a3d67,65af56b5a08a0d49e2f07b4e,2024-01-23_08h05.18.071,bars,2023.2.3,Win32,60.60606061,657b66ea316d21385b68909f,,,,,,,,,,,1101.3265,1102.3193,,,1102.8226,1103.0688,,140,140,,,,,,,,,,,,,,,,bars/043.png,bars/mask005.png,,,,,,,,,,,,1,2,,,,,,,2,0,3,2,,,,,,,,,,,1102.3194,1102.8226,1103.069,1104.2774,space,1.1854,,1104.2775,70,10,1105.2689,1105.269,1105.2771,,,,0,12,12,12,1,30,130,,,,,,,,
,,617431af6e82b2ebd42a3d67,65af56b5a08a0d49e2f07b4e,2024-01-23_08h05.18.071,bars,2023.2.3,Win32,60.60606061,657b66ea316d21385b68909f,,,,,,,,,,,1105.2772,1106.2682,,,1106.7682,1107.0192,,137,137,,,,,,,,,,,,,,,,bars/039.png,bars/mask007.png,,,,,,,,,,,,0,2,,,,,,,4,0,4,0,,,,,,,,,,,1106.2683,1106.7682,1107.0192,1109.869,space,2.8174,,1109.8691,38,32,1110.8688,1110.869,1110.8759,,,,0,13,13,13,1,175,105,,,,,,,,
,,617431af6e82b2ebd42a3d67,65af56b5a08a0d49e2f07b4e,2024-01-23_08h05.18.071,bars,2023.2.3,Win32,60.60606061,657b66ea316d21385b68909f,,,,,,,,,,,1110.876,1111.8688,,,1112.3681,1112.6183,,3,3,,,,,,,,,,,,,,,,bars/004.png,bars/mask009.png,,,,,,,,,,,,1,1,,,,,,,6,2,5,2,,,,,,,,,,,1111.869,1112.368,1112.6185,1113.1693,space,0.5203,,1113.1695,22,58,1114.1679,1114.168,1114.1723,,,,0,14,14,14,1,25,125,,,,,,,,
,,617431af6e82b2ebd42a3d67,65af56b5a08a0d49e2f07b4e,2024-01-23_08h05.18.071,bars,2023.2.3,Win32,60.60606061,657b66ea316d21385b68909f,,,,,,,,,,,1114.1725,1115.1688,,,1115.669,1115.9185,,36,36,,,,,,,,,,,,,,,,bars/049.png,bars/mask004.png,,,,,,,,,,,,0,1,,,,,,,8,4,10,6,,,,,,,,,,,1115.169,1115.6689,1115.9187,1119.8182,space,3.8744,,1119.8184,56,79,1120.8188,1120.8189,1120.8256,,,,0,15,15,15,1,160,115,,,,,,,,
,,617431af6e82b2ebd42a3d67,65af56b5a08a0d49e2f07b4e,2024-01-23_08h05.18.071,bars,2023.2.3,Win32,60.60606061,657b66ea316d21385b68909f,,,,,,,,,,,1120.8256,1121.8176,,,1122.318,1122.5683,,51,51,,,,,,,,,,,,,,,,bars/034.png,bars/mask002.png,,,,,,,,,,,,4,2,,,,,,,10,6,10,7,,,,,,,,,,,1121.8177,1122.3179,1122.5685,1123.0269,space,0.4387,,1123.0271,74,14,1124.0183,1124.0185,1124.0222,,,,0,16,16,16,1,125,65,,,,,,,,
,,617431af6e82b2ebd42a3d67,65af56b5a08a0d49e2f07b4e,2024-01-23_08h05.18.071,bars,2023.2.3,Win32,60.60606061,657b66ea316d21385b68909f,,,,,,,,,,,1124.0223,1125.0185,,,1125.5187,1125.7685,,108,108,,,,,,,,,,,,,,,,bars/011.png,bars/mask000.png,,,,,,,,,,,,1,2,,,,,,,8,4,8,5,,,,,,,,,,,1125.0187,1125.5185,1125.7686,1126.3843,space,0.5929,,1126.3843,52,23,1127.3844,1127.3845,1127.387,,,,0,17,17,17,1,160,85,,,,,,,,
,,617431af6e82b2ebd42a3d67,65af56b5a08a0d49e2f07b4e,2024-01-23_08h05.18.071,bars,2023.2.3,Win32,60.60606061,657b66ea316d21385b68909f,,,,,,,,,,,1127.3875,1128.3849,,,1128.8934,1129.1347,,126,126,,,,,,,,,,,,,,,,bars/012.png,bars/mask004.png,,,,,,,,,,,,0,1,,,,,,,6,6,5,6,,,,,,,,,,,1128.385,1128.8934,1129.1349,1129.9022,space,0.7351,,1129.9024,36,69,1130.9014,1130.9015,1130.9055,,,,0,18,18,18,1,90,15,,,,,,,,
,,617431af6e82b2ebd42a3d67,65af56b5a08a0d49e2f07b4e,2024-01-23_08h05.18.071,bars,2023.2.3,Win32,60.60606061,657b66ea316d21385b68909f,,,,,,,,,,,1130.9055,1131.9017,,,1132.4018,1132.6519,,124,124,,,,,,,,,,,,,,,,bars/007.png,bars/mask005.png,,,,,,,,,,,,0,1,,,,,,,8,8,8,8,,,,,,,,,,,1131.9017,1132.4017,1132.6521,1134.7267,space,2.0506,,1134.7268,51,69,1135.7184,1135.7185,1135.7252,,,,0,19,19,19,1,175,55,,,,,,,,
,,617431af6e82b2ebd42a3d67,65af56b5a08a0d49e2f07b4e,2024-01-23_08h05.18.071,bars,2023.2.3,Win32,60.60606061,657b66ea316d21385b68909f,,,,,,,,,,,1135.7254,1136.7218,,,1137.2184,1137.468,,41,221,,,,,,,,,,,,,,,,bars/037.png,bars/mask004.png,,,,,,,,,,,,0,2,,,,,,,10,6,10,5,,,,,,,,,,,1136.7218,1137.2183,1137.4682,1141.3855,space,3.8853,,1141.3857,71,64,1142.3844,1142.3845,1142.3919,,,,0,20,20,20,1,150,105,,,,,,,,
,,617431af6e82b2ebd42a3d67,65af56b5a08a0d49e2f07b4e,2024-01-23_08h05.18.071,bars,2023.2.3,Win32,60.60606061,657b66ea316d21385b68909f,,,,,,,,,,,1142.3921,1143.3844,,,1143.8848,1144.1346,,47,47,,,,,,,,,,,,,,,,bars/030.png,bars/mask003.png,,,,,,,,,,,,3,2,,,,,,,8,8,8,8,,,,,,,,,,,1143.3846,1143.8846,1144.1347,1144.8692,space,0.7015,,1144.8694,87,18,1145.8674,1145.8675,1145.8698,,,,0,21,21,21,1,140,65,,,,,,,,
,,617431af6e82b2ebd42a3d67,65af56b5a08a0d49e2f07b4e,2024-01-23_08h05.18.071,bars,2023.2.3,Win32,60.60606061,657b66ea316d21385b68909f,,,,,,,,,,,1145.8703,1146.868,,,1147.3683,1147.6176,,125,125,,,,,,,,,,,,,,,,bars/010.png,bars/mask000.png,,,,,,,,,,,,0,1,,,,,,,6,10,4,10,,,,,,,,,,,1146.8681,1147.3682,1147.6177,1147.7581,space,0.1314,,1147.7582,40,70,1148.7505,1148.7506,1148.7547,,,,0,22,22,22,1,165,55,,,,,,,,
,,617431af6e82b2ebd42a3d67,65af56b5a08a0d49e2f07b4e,2024-01-23_08h05.18.071,bars,2023.2.3,Win32,60.60606061,657b66ea316d21385b68909f,,,,,,,,,,,1148.7548,1149.7514,,,1150.2507,1150.5006,,166,166,,,,,,,,,,,,,,,,bars/033.png,bars/mask008.png,,,,,,,,,,,,6,2,,,,,,,4,10,4,9,,,,,,,,,,,1149.7514,1150.2506,1150.5007,1152.1841,space,1.6707,,1152.1843,39,11,1153.1847,1153.1848,1153.1882,,,,0,23,23,23,1,25,155,,,,,,,,
,,617431af6e82b2ebd42a3d67,65af56b5a08a0d49e2f07b4e,2024-01-23_08h05.18.071,bars,2023.2.3,Win32,60.60606061,657b66ea316d21385b68909f,,,,,,,,,,,1153.1884,1154.1843,,,1154.6842,1154.9343,,62,62,,,,,,,,,,,,,,,,bars/046.png,bars/mask002.png,,,,,,,,,,,,2,2,,,,,,,6,8,7,8,,,,,,,,,,,1154.1845,1154.684,1154.9345,1159.0836,space,4.1177,,1159.0838,87,23,1160.0841,1160.0842,1160.0911,,,,0,24,24,24,1,155,85,,,,,,,,
,,617431af6e82b2ebd42a3d67,65af56b5a08a0d49e2f07b4e,2024-01-23_08h05.18.071,bars,2023.2.3,Win32,60.60606061,657b66ea316d21385b68909f,,,,,,,,,,,1160.0913,1161.0842,,,1161.5845,1161.8339,,140,140,,,,,,,,,,,,,,,,bars/045.png,bars/mask000.png,,,,,,,,,,,,0,1,,,,,,,8,6,9,4,,,,,,,,,,,1161.0843,1161.5843,1161.834,1164.4258,space,2.5685,,1164.4259,40,50,1165.4177,1165.4178,1165.4251,,,,0,25,25,25,1,100,10,,,,,,,,
,,617431af6e82b2ebd42a3d67,65af56b5a08a0d49e2f07b4e,2024-01-23_08h05.18.071,bars,2023.2.3,Win32,60.60606061,657b66ea316d21385b68909f,,,,,,,,,,,1165.4252,1166.4172,,,1166.9179,1167.167,,22,22,,,,,,,,,,,,,,,,bars/022.png,bars/mask008.png,,,,,,,,,,,,5,2,,,,,,,10,4,10,5,,,,,,,,,,,1166.4174,1166.9177,1167.1672,1168.3337,space,1.1504,,1168.334,73,2,1169.3341,1169.3343,1169.3417,,,,0,26,26,26,1,95,20,,,,,,,,
,,617431af6e82b2ebd42a3d67,65af56b5a08a0d49e2f07b4e,2024-01-23_08h05.18.071,bars,2023.2.3,Win32,60.60606061,657b66ea316d21385b68909f,,,,,,,,,,,1169.3417,1170.334,,,1170.834,1171.0834,,38,38,,,,,,,,,,,,,,,,bars/031.png,bars/mask006.png,,,,,,,,,,,,5,2,,,,,,,8,6,9,5,,,,,,,,,,,1170.3341,1170.8338,1171.0835,1174.1342,space,3.0338,,1174.1344,82,3,1175.1373,1175.1374,1175.1423,,,,0,27,27,27,1,120,35,,,,,,,,
,,617431af6e82b2ebd42a3d67,65af56b5a08a0d49e2f07b4e,2024-01-23_08h05.18.071,bars,2023.2.3,Win32,60.60606061,657b66ea316d21385b68909f,,,,,,,,,,,1175.1424,1176.134,,,1176.634,1176.8833,,35,35,,,,,,,,,,,,,,,,bars/038.png,bars/mask009.png,,,,,,,,,,,,0,2,,,,,,,10,8,10,10,,,,,,,,,,,1176.1342,1176.6338,1176.8835,1178.901,space,1.9876,,1178.9012,50,35,1179.8994,1179.8994,1179.9071,,,,0,28,28,28,1,165,70,,,,,,,,
,,617431af6e82b2ebd42a3d67,65af56b5a08a0d49e2f07b4e,2024-01-23_08h05.18.071,bars,2023.2.3,Win32,60.60606061,657b66ea316d21385b68909f,,,,,,,,,,,1179.9073,1180.9009,,,1181.4032,1181.6505,,117,117,,,,,,,,,,,,,,,,bars/036.png,bars/mask003.png,,,,,,,,,,,,1,1,,,,,,,8,6,10,6,,,,,,,,,,,1180.9009,1181.403,1181.6506,1183.9177,space,2.2346,,1183.9179,28,83,1184.9167,1184.9168,1184.9207,,,,0,29,29,29,1,145,20,,,,,,,,
,,617431af6e82b2ebd42a3d67,65af56b5a08a0d49e2f07b4e,2024-01-23_08h05.18.071,bars,2023.2.3,Win32,60.60606061,657b66ea316d21385b68909f,,,,,,,,,,,1184.9208,1185.9171,,,1186.4169,1186.667,,45,45,,,,,,,,,,,,,,,,bars/008.png,bars/mask001.png,,,,,,,,,,,,0,2,,,,,,,6,8,7,9,,,,,,,,,,,1185.9172,1186.4167,1186.6671,1194.5837,space,7.8849,,1194.5839,65,45,1195.5833,1195.5835,1195.5916,,,,0,30,30,30,1,110,0,,,,,,,,
,,617431af6e82b2ebd42a3d67,65af56b5a08a0d49e2f07b4e,2024-01-23_08h05.18.071,bars,2023.2.3,Win32,60.60606061,657b66ea316d21385b68909f,,,,,,,,,,,1195.5917,1196.5835,,,1197.0835,1197.3334,,146,146,,,,,,,,,,,,,,,,bars/012.png,bars/mask001.png,,,,,,,,,,,,0,2,,,,,,,4,6,3,6,,,,,,,,,,,1196.5836,1197.0834,1197.3336,1197.9841,space,0.6184,,1197.9842,56,49,1198.9834,1198.9834,1198.9863,,,,0,31,31,31,1,90,15,,,,,,,,
,,617431af6e82b2ebd42a3d67,65af56b5a08a0d49e2f07b4e,2024-01-23_08h05.18.071,bars,2023.2.3,Win32,60.60606061,657b66ea316d21385b68909f,,,,,,,,,,,1198.9865,1199.9827,,,1200.483,1200.7325,,120,120,,,,,,,,,,,,,,,,bars/043.png,bars/mask001.png,,,,,,,,,,,,2,2,,,,,,,6,4,5,3,,,,,,,,,,,1199.9828,1200.4829,1200.7326,1200.8506,space,0.0911,,1200.8507,90,10,1201.8491,1201.8492,1201.8512,,,,0,32,32,32,1,30,130,,,,,,,,
,,617431af6e82b2ebd42a3d67,65af56b5a08a0d49e2f07b4e,2024-01-23_08h05.18.071,bars,2023.2.3,Win32,60.60606061,657b66ea316d21385b68909f,,,,,,,,,,,1201.8517,1202.8492,,,1203.3494,1203.5999,,15,15,,,,,,,,,,,,,,,,bars/016.png,bars/mask003.png,,,,,,,,,,,,2,1,,,,,,,8,2,10,2,,,,,,,,,,,1202.8493,1203.3494,1203.6,1204.3501,space,0.7369,,1204.3503,25,30,1205.3494,1205.3496,1205.3536,,,,0,33,33,33,1,40,165,,,,,,,,
,,617431af6e82b2ebd42a3d67,65af56b5a08a0d49e2f07b4e,2024-01-23_08h05.18.071,bars,2023.2.3,Win32,60.60606061,657b66ea316d21385b68909f,,,,,,,,,,,1205.3536,1206.3498,,,1206.8497,1207.099,,66,66,,,,,,,,,,,,,,,,bars/004.png,bars/mask004.png,,,,,,,,,,,,0,1,,,,,,,6,0,6,0,,,,,,,,,,,1206.3499,1206.8495,1207.0991,1207.9668,space,0.8511,,1207.967,41,59,1208.9652,1208.9653,1208.9684,,,,0,34,34,34,1,25,125,,,,,,,,
,,617431af6e82b2ebd42a3d67,65af56b5a08a0d49e2f07b4e,2024-01-23_08h05.18.071,bars,2023.2.3,Win32,60.60606061,657b66ea316d21385b68909f,,,,,,,,,,,1208.9692,1209.9667,,,1210.4663,1210.7159,,115,115,,,,,,,,,,,,,,,,bars/006.png,bars/mask000.png,,,,,,,,,,,,0,2,,,,,,,4,0,1,0,,,,,,,,,,,1209.9669,1210.4661,1210.7159,1214.5506,space,3.8069,,1214.5507,80,15,1215.5493,1215.5495,1215.557,,,,0,35,35,35,1,35,100,,,,,,,,
,,617431af6e82b2ebd42a3d67,65af56b5a08a0d49e2f07b4e,2024-01-23_08h05.18.071,bars,2023.2.3,Win32,60.60606061,657b66ea316d21385b68909f,,,,,,,,,,,1215.557,1216.549,,,1217.0495,1217.2992,,155,155,,,,,,,,,,,,,,,,bars/031.png,bars/mask001.png,,,,,,,,,,,,0,1,,,,,,,6,2,6,3,,,,,,,,,,,1216.5491,1217.0494,1217.2993,1217.4836,space,0.1559,,1217.4837,35,60,1218.4829,1218.483,1218.4866,,,,0,36,36,36,1,120,35,,,,,,,,
,,617431af6e82b2ebd42a3d67,65af56b5a08a0d49e2f07b4e,2024-01-23_08h05.18.071,bars,2023.2.3,Win32,60.60606061,657b66ea316d21385b68909f,,,,,,,,,,,1218.4867,1219.4822,,,1219.9745,1220.2162,,38,38,,,,,,,,,,,,,,,,bars/045.png,bars/mask001.png,,,,,,,,,,,,0,2,,,,,,,4,0,5,1,,,,,,,,,,,1219.4823,1219.9745,1220.2164,1222.5335,space,2.2871,,1222.5336,62,28,1223.5327,1223.5329,1223.5365,,,,0,37,37,37,1,100,10,,,,,,,,
,,617431af6e82b2ebd42a3d67,65af56b5a08a0d49e2f07b4e,2024-01-23_08h05.18.071,bars,2023.2.3,Win32,60.60606061,657b66ea316d21385b68909f,,,,,,,,,,,1223.5366,1224.5323,,,1225.0318,1225.2825,,113,113,,,,,,,,,,,,,,,,bars/048.png,bars/mask001.png,,,,,,,,,,,,0,2,,,,,,,2,0,1,0,,,,,,,,,,,1224.5326,1225.0318,1225.2826,1227.6829,space,2.3704,,1227.6829,63,62,1228.6823,1228.6825,1228.6894,,,,0,38,38,38,1,50,175,,,,,,,,
,,617431af6e82b2ebd42a3d67,65af56b5a08a0d49e2f07b4e,2024-01-23_08h05.18.071,bars,2023.2.3,Win32,60.60606061,657b66ea316d21385b68909f,,,,,,,,,,,1228.6895,1229.6826,,,1230.1823,1230.4325,,65,65,,,,,,,,,,,,,,,,bars/017.png,bars/mask004.png,,,,,,,,,,,,1,2,,,,,,,0,2,0,2,,,,,,,,,,,1229.6827,1230.1821,1230.4327,1233.0331,space,2.568,,1233.0333,80,20,1234.0321,1234.0323,1234.0393,,,,0,39,39,39,1,145,45,,,,,,,,
,,617431af6e82b2ebd42a3d67,65af56b5a08a0d49e2f07b4e,2024-01-23_08h05.18.071,bars,2023.2.3,Win32,60.60606061,657b66ea316d21385b68909f,,,,,,,,,,,1234.0394,1235.0327,,,1235.5326,1235.782,,40,40,,,,,,,,,,,,,,,,bars/045.png,bars/mask002.png,,,,,,,,,,,,0,2,,,,,,,0,0,1,2,,,,,,,,,,,1235.0329,1235.5325,1235.7822,1237.2994,space,1.4866,,1237.2995,60,30,1238.2991,1238.2993,1238.3061,,,,0,40,40,40,1,100,10,,,,,,,,
,,617431af6e82b2ebd42a3d67,65af56b5a08a0d49e2f07b4e,2024-01-23_08h05.18.071,bars,2023.2.3,Win32,60.60606061,657b66ea316d21385b68909f,,,,,,,,,,,1238.3063,1239.2986,,,1239.7991,1240.0478,,132,132,,,,,,,,,,,,,,,,bars/023.png,bars/mask009.png,,,,,,,,,,,,0,2,,,,,,,0,0,0,0,,,,,,,,,,,1239.2987,1239.799,1240.0478,1242.9166,space,2.8511,,1242.9168,68,17,1243.9156,1243.9157,1243.9226,,,,0,41,41,41,1,20,115,,,,,,,,
,,617431af6e82b2ebd42a3d67,65af56b5a08a0d49e2f07b4e,2024-01-23_08h05.18.071,bars,2023.2.3,Win32,60.60606061,657b66ea316d21385b68909f,,,,,,,,,,,1243.9227,1244.9154,,,1245.4153,1245.6645,,49,49,,,,,,,,,,,,,,,,bars/014.png,bars/mask005.png,,,,,,,,,,,,0,1,,,,,,,2,0,1,1,,,,,,,,,,,1244.9155,1245.4151,1245.6645,1253.1986,space,7.5176,,1253.1988,31,49,1254.1988,1254.1989,1254.207,,,,0,42,42,42,1,80,0,,,,,,,,
,,617431af6e82b2ebd42a3d67,65af56b5a08a0d49e2f07b4e,2024-01-23_08h05.18.071,bars,2023.2.3,Win32,60.60606061,657b66ea316d21385b68909f,,,,,,,,,,,1254.2072,1255.1977,,,1255.6985,1255.9403,,153,153,,,,,,,,,,,,,,,,bars/014.png,bars/mask003.png,,,,,,,,,,,,0,2,,,,,,,0,0,0,0,,,,,,,,,,,1255.1978,1255.6983,1255.9403,1256.7324,space,0.7713,,1256.7325,73,27,1257.7317,1257.7318,1257.7355,,,,0,43,43,43,1,80,0,,,,,,,,
,,617431af6e82b2ebd42a3d67,65af56b5a08a0d49e2f07b4e,2024-01-23_08h05.18.071,bars,2023.2.3,Win32,60.60606061,657b66ea316d21385b68909f,,,,,,,,,,,1257.7355,1258.7316,,,1259.232,1259.4819,,54,54,,,,,,,,,,,,,,,,bars/023.png,bars/mask006.png,,,,,,,,,,,,0,1,,,,,,,2,0,2,1,,,,,,,,,,,1258.7317,1259.2318,1259.4822,1264.4072,space,4.9008,,1264.4073,34,61,1265.3978,1265.398,1265.406,,,,0,44,44,44,1,20,115,,,,,,,,
,,617431af6e82b2ebd42a3d67,65af56b5a08a0d49e2f07b4e,2024-01-23_08h05.18.071,bars,2023.2.3,Win32,60.60606061,657b66ea316d21385b68909f,,,,,,,,,,,1265.4062,1266.3978,,,1266.8986,1267.1401,,67,67,,,,,,,,,,,,,,,,bars/007.png,bars/mask008.png,,,,,,,,,,,,1,2,,,,,,,4,2,4,2,,,,,,,,,,,1266.3981,1266.8984,1267.1402,1269.2314,space,2.0686,,1269.2315,72,12,1270.2232,1270.2233,1270.2243,,,,0,45,45,45,1,175,55,,,,,,,,
,,617431af6e82b2ebd42a3d67,65af56b5a08a0d49e2f07b4e,2024-01-23_08h05.18.071,bars,2023.2.3,Win32,60.60606061,657b66ea316d21385b68909f,,,,,,,,,,,1270.2244,1271.214,,,1271.7138,1271.9645,,167,167,,,,,,,,,,,,,,,,bars/021.png,bars/mask002.png,,,,,,,,,,,,1,1,,,,,,,2,4,2,4,,,,,,,,,,,1271.2142,1271.7138,1271.9648,1273.2482,space,1.2706,,1273.2483,12,83,1274.248,1274.2481,1274.2519,,,,0,46,46,46,1,155,70,,,,,,,,
,,617431af6e82b2ebd42a3d67,65af56b5a08a0d49e2f07b4e,2024-01-23_08h05.18.071,bars,2023.2.3,Win32,60.60606061,657b66ea316d21385b68909f,,,,,,,,,,,1274.2521,1275.2471,,,1275.7479,1275.9979,,126,126,,,,,,,,,,,,,,,,bars/044.png,bars/mask008.png,,,,,,,,,,,,0,2,,,,,,,4,2,4,2,,,,,,,,,,,1275.2472,1275.7476,1275.998,1276.7984,space,0.7717,,1276.7986,51,29,1277.7971,1277.7971,1277.8017,,,,0,47,47,47,1,75,155,,,,,,,,
,,617431af6e82b2ebd42a3d67,65af56b5a08a0d49e2f07b4e,2024-01-23_08h05.18.071,bars,2023.2.3,Win32,60.60606061,657b66ea316d21385b68909f,,,,,,,,,,,1277.8018,1278.7975,,,1279.2983,1279.5479,,149,149,,,,,,,,,,,,,,,,bars/023.png,bars/mask008.png,,,,,,,,,,,,0,2,,,,,,,6,0,5,0,,,,,,,,,,,1278.7977,1279.298,1279.548,1280.1819,space,0.6177,,1280.1821,51,34,1281.181,1281.1812,1281.1835,,,,0,48,48,48,1,20,115,,,,,,,,
,,617431af6e82b2ebd42a3d67,65af56b5a08a0d49e2f07b4e,2024-01-23_08h05.18.071,bars,2023.2.3,Win32,60.60606061,657b66ea316d21385b68909f,,,,,,,,,,,1281.184,1282.1808,,,1282.6809,1282.9315,,106,106,,,,,,,,,,,,,,,,bars/046.png,bars/mask007.png,,,,,,,,,,,,0,2,,,,,,,4,0,6,0,,,,,,,,,,,1282.181,1282.6808,1282.9316,1284.3485,space,1.3889,,1284.3486,49,21,1285.3471,1285.3472,1285.3494,,,,0,49,49,49,1,155,85,,,,,,,,
,,617431af6e82b2ebd42a3d67,65af56b5a08a0d49e2f07b4e,2024-01-23_08h05.18.071,bars,2023.2.3,Win32,60.60606061,657b66ea316d21385b68909f,,,,,,,,,,,,,,,,,,,,,,,,,,,,,,,,,,,,,,,,,,,,,,,,,,,,,,,,,,,,,,,,,,,,,,,,,,,,,,,,,,,,,,,,,,,,,1285.3497,1345.3465,0,1,1,1,1,sequence_tables/blk027.csv
,,617431af6e82b2ebd42a3d67,65af56b5a08a0d49e2f07b4e,2024-01-23_08h05.18.071,bars,2023.2.3,Win32,60.60606061,657b66ea316d21385b68909f,,,,,,,,,,,1533.9043,1534.9087,,,1535.4091,1535.6575,,145,145,,,,,,,,,,,,,,,,bars/006.png,bars/mask006.png,,,,,,,,,,,,0,2,,,,,,,4,7,3,7,,,,,,1345.3543,1533.8934,space,188.5139,,1534.9088,1535.4088,1535.6575,1541.6254,space,5.9515,,1541.6256,70,45,1542.6249,1542.6251,1542.6353,,,,0,0,0,0,1,35,100,,,,,,,,
,,617431af6e82b2ebd42a3d67,65af56b5a08a0d49e2f07b4e,2024-01-23_08h05.18.071,bars,2023.2.3,Win32,60.60606061,657b66ea316d21385b68909f,,,,,,,,,,,1542.6355,1543.6248,,,1544.1245,1544.374,,151,151,,,,,,,,,,,,,,,,bars/026.png,bars/mask009.png,,,,,,,,,,,,0,1,,,,,,,6,5,7,5,,,,,,,,,,,1543.625,1544.1244,1544.374,1544.8988,space,0.5155,,1544.8988,64,66,1545.8915,1545.8916,1545.8953,,,,0,1,1,1,1,35,85,,,,,,,,
,,617431af6e82b2ebd42a3d67,65af56b5a08a0d49e2f07b4e,2024-01-23_08h05.18.071,bars,2023.2.3,Win32,60.60606061,657b66ea316d21385b68909f,,,,,,,,,,,1545.8954,1546.8915,,,1547.3916,1547.6413,,35,35,,,,,,,,,,,,,,,,bars/025.png,bars/mask000.png,,,,,,,,,,,,3,2,,,,,,,4,3,4,4,,,,,,,,,,,1546.8916,1547.3915,1547.6414,1550.408,space,2.7345,,1550.4081,70,5,1551.4076,1551.4078,1551.4166,,,,0,2,2,2,1,105,40,,,,,,,,
,,617431af6e82b2ebd42a3d67,65af56b5a08a0d49e2f07b4e,2024-01-23_08h05.18.071,bars,2023.2.3,Win32,60.60606061,657b66ea316d21385b68909f,,,,,,,,,,,1551.4167,1552.4077,,,1552.9081,1553.1576,,141,141,,,,,,,,,,,,,,,,bars/022.png,bars/mask001.png,,,,,,,,,,,,0,1,,,,,,,2,5,2,5,,,,,,,,,,,1552.4079,1552.9079,1553.1578,1561.6584,space,8.4684,,1561.6586,46,59,1562.6575,1562.6578,1562.6659,,,,0,3,3,3,1,95,20,,,,,,,,
,,617431af6e82b2ebd42a3d67,65af56b5a08a0d49e2f07b4e,2024-01-23_08h05.18.071,bars,2023.2.3,Win32,60.60606061,657b66ea316d21385b68909f,,,,,,,,,,,1562.666,1563.6572,,,1564.1581,1564.4077,,60,60,,,,,,,,,,,,,,,,bars/035.png,bars/mask006.png,,,,,,,,,,,,4,2,,,,,,,0,3,1,4,,,,,,,,,,,1563.6573,1564.1579,1564.408,1569.091,space,4.6525,,1569.0911,65,0,1570.0911,1570.0913,1570.0996,,,,0,4,4,4,1,175,60,,,,,,,,
,,617431af6e82b2ebd42a3d67,65af56b5a08a0d49e2f07b4e,2024-01-23_08h05.18.071,bars,2023.2.3,Win32,60.60606061,657b66ea316d21385b68909f,,,,,,,,,,,1570.0997,1571.0903,,,1571.5908,1571.8404,,64,64,,,,,,,,,,,,,,,,bars/014.png,bars/mask009.png,,,,,,,,,,,,0,1,,,,,,,0,5,0,2,,,,,,,,,,,1571.0905,1571.5907,1571.8405,1587.3447,space,15.4951,,1587.3447,16,64,1588.3406,1588.3408,1588.3488,,,,0,5,5,5,1,80,0,,,,,,,,
,,617431af6e82b2ebd42a3d67,65af56b5a08a0d49e2f07b4e,2024-01-23_08h05.18.071,bars,2023.2.3,Win32,60.60606061,657b66ea316d21385b68909f,,,,,,,,,,,1588.3488,1589.3399,,,1589.8406,1590.0904,,77,77,,,,,,,,,,,,,,,,bars/037.png,bars/mask002.png,,,,,,,,,,,,0,2,,,,,,,2,7,3,6,,,,,,,,,,,1589.3401,1589.8405,1590.0905,1590.9908,space,0.8877,,1590.9909,73,28,1591.9903,1591.9904,1591.9947,,,,0,6,6,6,1,150,105,,,,,,,,
,,617431af6e82b2ebd42a3d67,65af56b5a08a0d49e2f07b4e,2024-01-23_08h05.18.071,bars,2023.2.3,Win32,60.60606061,657b66ea316d21385b68909f,,,,,,,,,,,1591.9948,1592.9904,,,1593.4816,1593.7233,,142,142,,,,,,,,,,,,,,,,bars/031.png,bars/mask007.png,,,,,,,,,,,,0,1,,,,,,,0,9,0,9,,,,,,,,,,,1592.9905,1593.4816,1593.7235,1597.2241,space,3.4682,,1597.2244,22,73,1598.2233,1598.2234,1598.2308,,,,0,7,7,7,1,120,35,,,,,,,,
,,617431af6e82b2ebd42a3d67,65af56b5a08a0d49e2f07b4e,2024-01-23_08h05.18.071,bars,2023.2.3,Win32,60.60606061,657b66ea316d21385b68909f,,,,,,,,,,,1598.2309,1599.2229,,,1599.7232,1599.9731,,28,28,,,,,,,,,,,,,,,,bars/002.png,bars/mask009.png,,,,,,,,,,,,0,2,,,,,,,0,10,0,10,,,,,,,,,,,1599.223,1599.7231,1599.9733,1603.5737,space,3.5697,,1603.5739,78,57,1604.5732,1604.5734,1604.5811,,,,0,8,8,8,1,130,85,,,,,,,,
,,617431af6e82b2ebd42a3d67,65af56b5a08a0d49e2f07b4e,2024-01-23_08h05.18.071,bars,2023.2.3,Win32,60.60606061,657b66ea316d21385b68909f,,,,,,,,,,,1604.5812,1605.5733,,,1606.0729,1606.3227,,43,43,,,,,,,,,,,,,,,,bars/017.png,bars/mask007.png,,,,,,,,,,,,9,2,,,,,,,2,10,2,10,,,,,,,,,,,1605.5734,1606.0728,1606.3228,1609.0893,space,2.7572,,1609.0895,78,2,1610.0896,1610.0897,1610.0969,,,,0,9,9,9,1,145,45,,,,,,,,
,,617431af6e82b2ebd42a3d67,65af56b5a08a0d49e2f07b4e,2024-01-23_08h05.18.071,bars,2023.2.3,Win32,60.60606061,657b66ea316d21385b68909f,,,,,,,,,,,1610.097,1611.0891,,,1611.59,1611.8396,,56,56,,,,,,,,,,,,,,,,bars/012.png,bars/mask008.png,,,,,,,,,,,,0,1,,,,,,,4,10,4,10,,,,,,,,,,,1611.0892,1611.5899,1611.8398,1614.9058,space,3.0506,,1614.9058,34,41,1615.9063,1615.9064,1615.9138,,,,0,10,10,10,1,90,15,,,,,,,,
,,617431af6e82b2ebd42a3d67,65af56b5a08a0d49e2f07b4e,2024-01-23_08h05.18.071,bars,2023.2.3,Win32,60.60606061,657b66ea316d21385b68909f,,,,,,,,,,,1615.9139,1616.9149,,,1617.4069,1617.656,,143,-37,,,,,,,,,,,,,,,,bars/001.png,bars/mask004.png,,,,,,,,,,,,0,1,,,,,,,2,10,0,10,,,,,,,,,,,1616.9149,1617.4068,1617.6562,1621.707,space,4.0404,,1621.707,13,58,1622.7062,1622.7064,1622.7132,,,,0,11,11,11,1,130,85,,,,,,,,
,,617431af6e82b2ebd42a3d67,65af56b5a08a0d49e2f07b4e,2024-01-23_08h05.18.071,bars,2023.2.3,Win32,60.60606061,657b66ea316d21385b68909f,,,,,,,,,,,1622.7132,1623.7062,,,1624.2071,1624.4566,,119,119,,,,,,,,,,,,,,,,bars/004.png,bars/mask003.png,,,,,,,,,,,,8,2,,,,,,,4,10,4,10,,,,,,,,,,,1623.7063,1624.2069,1624.4566,1627.1404,space,2.6551,,1627.1406,86,6,1628.1392,1628.1394,1628.1482,,,,0,12,12,12,1,25,125,,,,,,,,
,,617431af6e82b2ebd42a3d67,65af56b5a08a0d49e2f07b4e,2024-01-23_08h05.18.071,bars,2023.2.3,Win32,60.60606061,657b66ea316d21385b68909f,,,,,,,,,,,1628.1483,1629.1395,,,1629.6397,1629.8889,,69,69,,,,,,,,,,,,,,,,bars/004.png,bars/mask002.png,,,,,,,,,,,,0,1,,,,,,,6,8,5,7,,,,,,,,,,,1629.1396,1629.6395,1629.889,1632.54,space,2.6225,,1632.5402,44,56,1633.5395,1633.5397,1633.5477,,,,0,13,13,13,1,25,125,,,,,,,,
,,617431af6e82b2ebd42a3d67,65af56b5a08a0d49e2f07b4e,2024-01-23_08h05.18.071,bars,2023.2.3,Win32,60.60606061,657b66ea316d21385b68909f,,,,,,,,,,,1633.5478,1634.5391,,,1635.0397,1635.2895,,25,25,,,,,,,,,,,,,,,,bars/047.png,bars/mask009.png,,,,,,,,,,,,3,1,,,,,,,4,10,4,10,,,,,,,,,,,1634.5392,1635.0393,1635.2896,1638.9396,space,3.6346,,1638.9398,10,45,1639.9391,1639.9392,1639.9465,,,,0,14,14,14,1,15,70,,,,,,,,
,,617431af6e82b2ebd42a3d67,65af56b5a08a0d49e2f07b4e,2024-01-23_08h05.18.071,bars,2023.2.3,Win32,60.60606061,657b66ea316d21385b68909f,,,,,,,,,,,1639.9466,1640.9382,,,1641.4395,1641.6896,,46,46,,,,,,,,,,,,,,,,bars/005.png,bars/mask003.png,,,,,,,,,,,,0,1,,,,,,,2,10,2,10,,,,,,,,,,,1640.9383,1641.4394,1641.6897,1644.7894,space,3.0686,,1644.7895,36,86,1645.7894,1645.7894,1645.7961,,,,0,15,15,15,1,10,140,,,,,,,,
,,617431af6e82b2ebd42a3d67,65af56b5a08a0d49e2f07b4e,2024-01-23_08h05.18.071,bars,2023.2.3,Win32,60.60606061,657b66ea316d21385b68909f,,,,,,,,,,,1645.7963,1646.7894,,,1647.289,1647.5391,,70,70,,,,,,,,,,,,,,,,bars/041.png,bars/mask008.png,,,,,,,,,,,,4,2,,,,,,,4,10,5,8,,,,,,,,,,,1646.7895,1647.2888,1647.5392,1648.5062,space,0.9392,,1648.5063,50,15,1649.5055,1649.5056,1649.5094,,,,0,16,16,16,1,20,85,,,,,,,,
,,617431af6e82b2ebd42a3d67,65af56b5a08a0d49e2f07b4e,2024-01-23_08h05.18.071,bars,2023.2.3,Win32,60.60606061,657b66ea316d21385b68909f,,,,,,,,,,,1649.5096,1650.5056,,,1651.0051,1651.2555,,36,36,,,,,,,,,,,,,,,,bars/011.png,bars/mask005.png,,,,,,,,,,,,0,2,,,,,,,6,10,9,9,,,,,,,,,,,1650.5057,1651.005,1651.2556,1654.2975,space,3.0171,,1654.2975,56,49,1655.289,1655.2892,1655.296,,,,0,17,17,17,1,160,85,,,,,,,,
,,617431af6e82b2ebd42a3d67,65af56b5a08a0d49e2f07b4e,2024-01-23_08h05.18.071,bars,2023.2.3,Win32,60.60606061,657b66ea316d21385b68909f,,,,,,,,,,,1655.2961,1656.2889,,,1656.7888,1657.0389,,60,60,,,,,,,,,,,,,,,,bars/001.png,bars/mask000.png,,,,,,,,,,,,1,2,,,,,,,8,8,7,9,,,,,,,,,,,1656.289,1656.7887,1657.0391,1657.6317,space,0.5683,,1657.6317,70,25,1658.6212,1658.6212,1658.6239,,,,0,18,18,18,1,130,85,,,,,,,,
,,617431af6e82b2ebd42a3d67,65af56b5a08a0d49e2f07b4e,2024-01-23_08h05.18.071,bars,2023.2.3,Win32,60.60606061,657b66ea316d21385b68909f,,,,,,,,,,,1658.6246,1659.6215,,,1660.1227,1660.3719,,163,163,,,,,,,,,,,,,,,,bars/032.png,bars/mask008.png,,,,,,,,,,,,0,2,,,,,,,6,10,7,9,,,,,,,,,,,1659.6216,1660.1226,1660.3721,1661.2727,space,0.8709,,1661.2729,38,37,1662.2719,1662.2721,1662.2745,,,,0,19,19,19,1,125,20,,,,,,,,
,,617431af6e82b2ebd42a3d67,65af56b5a08a0d49e2f07b4e,2024-01-23_08h05.18.071,bars,2023.2.3,Win32,60.60606061,657b66ea316d21385b68909f,,,,,,,,,,,1662.2751,1663.2718,,,1663.7721,1664.0217,,19,19,,,,,,,,,,,,,,,,bars/010.png,bars/mask008.png,,,,,,,,,,,,0,1,,,,,,,4,8,4,9,,,,,,,,,,,1663.2719,1663.772,1664.0219,1664.8393,space,0.8027,,1664.8395,34,36,1665.8388,1665.8389,1665.8427,,,,0,20,20,20,1,165,55,,,,,,,,
,,617431af6e82b2ebd42a3d67,65af56b5a08a0d49e2f07b4e,2024-01-23_08h05.18.071,bars,2023.2.3,Win32,60.60606061,657b66ea316d21385b68909f,,,,,,,,,,,1665.8429,1666.8383,,,1667.3391,1667.5884,,69,69,,,,,,,,,,,,,,,,bars/047.png,bars/mask000.png,,,,,,,,,,,,10,2,,,,,,,2,10,3,10,,,,,,,,,,,1666.8386,1667.3389,1667.5885,1668.6552,space,1.0368,,1668.6554,54,1,1669.655,1669.6551,1669.6587,,,,0,21,21,21,1,15,70,,,,,,,,
,,617431af6e82b2ebd42a3d67,65af56b5a08a0d49e2f07b4e,2024-01-23_08h05.18.071,bars,2023.2.3,Win32,60.60606061,657b66ea316d21385b68909f,,,,,,,,,,,1669.6589,1670.6543,,,1671.1552,1671.4053,,130,130,,,,,,,,,,,,,,,,bars/047.png,bars/mask006.png,,,,,,,,,,,,0,2,,,,,,,4,10,4,9,,,,,,,,,,,1670.6543,1671.1551,1671.4054,1675.8889,space,4.4515,,1675.889,65,60,1676.8886,1676.8888,1676.8952,,,,0,22,22,22,1,15,70,,,,,,,,
,,617431af6e82b2ebd42a3d67,65af56b5a08a0d49e2f07b4e,2024-01-23_08h05.18.071,bars,2023.2.3,Win32,60.60606061,657b66ea316d21385b68909f,,,,,,,,,,,1676.8954,1677.8884,,,1678.388,1678.6382,,44,44,,,,,,,,,,,,,,,,bars/034.png,bars/mask007.png,,,,,,,,,,,,2,2,,,,,,,6,8,5,8,,,,,,,,,,,1677.8886,1678.3879,1678.6383,1681.2381,space,2.5837,,1681.2383,81,21,1682.238,1682.238,1682.2453,,,,0,23,23,23,1,125,65,,,,,,,,
,,617431af6e82b2ebd42a3d67,65af56b5a08a0d49e2f07b4e,2024-01-23_08h05.18.071,bars,2023.2.3,Win32,60.60606061,657b66ea316d21385b68909f,,,,,,,,,,,1682.2456,1683.2381,,,1683.7385,1683.988,,7,7,,,,,,,,,,,,,,,,bars/008.png,bars/mask006.png,,,,,,,,,,,,8,2,,,,,,,4,10,2,10,,,,,,,,,,,1683.2383,1683.7384,1683.9881,1684.7217,space,0.702,,1684.7219,77,7,1685.7206,1685.7208,1685.7226,,,,0,24,24,24,1,110,0,,,,,,,,
,,617431af6e82b2ebd42a3d67,65af56b5a08a0d49e2f07b4e,2024-01-23_08h05.18.071,bars,2023.2.3,Win32,60.60606061,657b66ea316d21385b68909f,,,,,,,,,,,1685.7231,1686.7217,,,1687.2213,1687.4795,,17,17,,,,,,,,,,,,,,,,bars/033.png,bars/mask004.png,,,,,,,,,,,,1,1,,,,,,,2,8,2,9,,,,,,,,,,,1686.7218,1687.2212,1687.4795,1688.2716,space,0.7685,,1688.2719,8,42,1689.2711,1689.2712,1689.2754,,,,0,25,25,25,1,25,155,,,,,,,,
,,617431af6e82b2ebd42a3d67,65af56b5a08a0d49e2f07b4e,2024-01-23_08h05.18.071,bars,2023.2.3,Win32,60.60606061,657b66ea316d21385b68909f,,,,,,,,,,,1689.2755,1690.2708,,,1690.7719,1691.0213,,138,138,,,,,,,,,,,,,,,,bars/021.png,bars/mask008.png,,,,,,,,,,,,2,1,,,,,,,4,10,4,10,,,,,,,,,,,1690.271,1690.7717,1691.0214,1692.1049,space,1.0516,,1692.105,17,68,1693.1043,1693.1045,1693.1066,,,,0,26,26,26,1,155,70,,,,,,,,
,,617431af6e82b2ebd42a3d67,65af56b5a08a0d49e2f07b4e,2024-01-23_08h05.18.071,bars,2023.2.3,Win32,60.60606061,657b66ea316d21385b68909f,,,,,,,,,,,1693.107,1694.1039,,,1694.6044,1694.8541,,144,144,,,,,,,,,,,,,,,,bars/043.png,bars/mask008.png,,,,,,,,,,,,4,2,,,,,,,6,8,5,7,,,,,,,,,,,1694.1041,1694.6043,1694.8543,1696.7552,space,1.8686,,1696.7553,66,14,1697.7543,1697.7544,1697.7618,,,,0,27,27,27,1,30,130,,,,,,,,
,,617431af6e82b2ebd42a3d67,65af56b5a08a0d49e2f07b4e,2024-01-23_08h05.18.071,bars,2023.2.3,Win32,60.60606061,657b66ea316d21385b68909f,,,,,,,,,,,1697.7618,1698.7544,,,1699.2544,1699.5045,,160,160,,,,,,,,,,,,,,,,bars/025.png,bars/mask002.png,,,,,,,,,,,,0,1,,,,,,,8,10,7,10,,,,,,,,,,,1698.7545,1699.2543,1699.5046,1702.3381,space,2.8034,,1702.3383,55,60,1703.3371,1703.3372,1703.3448,,,,0,28,28,28,1,105,40,,,,,,,,
,,617431af6e82b2ebd42a3d67,65af56b5a08a0d49e2f07b4e,2024-01-23_08h05.18.071,bars,2023.2.3,Win32,60.60606061,657b66ea316d21385b68909f,,,,,,,,,,,1703.3449,1704.3376,,,1704.8374,1705.0876,,61,61,,,,,,,,,,,,,,,,bars/023.png,bars/mask005.png,,,,,,,,,,,,0,1,,,,,,,10,8,10,7,,,,,,,,,,,1704.3378,1704.8373,1705.0877,1705.9713,space,0.8562,,1705.9714,41,54,1706.9705,1706.9707,1706.9729,,,,0,29,29,29,1,20,115,,,,,,,,
,,617431af6e82b2ebd42a3d67,65af56b5a08a0d49e2f07b4e,2024-01-23_08h05.18.071,bars,2023.2.3,Win32,60.60606061,657b66ea316d21385b68909f,,,,,,,,,,,1706.9734,1707.9703,,,1708.4708,1708.7206,,31,31,,,,,,,,,,,,,,,,bars/041.png,bars/mask002.png,,,,,,,,,,,,5,1,,,,,,,8,6,8,7,,,,,,,,,,,1707.9704,1708.4707,1708.7208,1712.0039,space,3.2554,,1712.0041,11,54,1713.0037,1713.0038,1713.0111,,,,0,30,30,30,1,20,85,,,,,,,,
,,617431af6e82b2ebd42a3d67,65af56b5a08a0d49e2f07b4e,2024-01-23_08h05.18.071,bars,2023.2.3,Win32,60.60606061,657b66ea316d21385b68909f,,,,,,,,,,,1713.0112,1714.0033,,,1714.5039,1714.754,,142,142,,,,,,,,,,,,,,,,bars/019.png,bars/mask007.png,,,,,,,,,,,,0,2,,,,,,,10,4,10,5,,,,,,,,,,,1714.0035,1714.5037,1714.7541,1715.4378,space,0.6512,,1715.4379,83,37,1716.4376,1716.4378,1716.4411,,,,0,31,31,31,1,45,105,,,,,,,,
,,617431af6e82b2ebd42a3d67,65af56b5a08a0d49e2f07b4e,2024-01-23_08h05.18.071,bars,2023.2.3,Win32,60.60606061,657b66ea316d21385b68909f,,,,,,,,,,,1716.4412,1717.4375,,,1717.9376,1718.1873,,41,41,,,,,,,,,,,,,,,,bars/009.png,bars/mask003.png,,,,,,,,,,,,1,1,,,,,,,10,2,10,2,,,,,,,,,,,1717.4376,1717.9374,1718.1875,1718.8874,space,0.6744,,1718.8875,26,64,1719.8866,1719.8868,1719.8912,,,,0,32,32,32,1,15,105,,,,,,,,
,,617431af6e82b2ebd42a3d67,65af56b5a08a0d49e2f07b4e,2024-01-23_08h05.18.071,bars,2023.2.3,Win32,60.60606061,657b66ea316d21385b68909f,,,,,,,,,,,1719.8913,1720.8875,,,1721.3875,1721.6378,,8,8,,,,,,,,,,,,,,,,bars/005.png,bars/mask004.png,,,,,,,,,,,,9,1,,,,,,,10,4,10,6,,,,,,,,,,,1720.8875,1721.3873,1721.638,1722.604,space,0.9397,,1722.604,2,48,1723.6039,1723.604,1723.6066,,,,0,33,33,33,1,10,140,,,,,,,,
,,617431af6e82b2ebd42a3d67,65af56b5a08a0d49e2f07b4e,2024-01-23_08h05.18.071,bars,2023.2.3,Win32,60.60606061,657b66ea316d21385b68909f,,,,,,,,,,,1723.607,1724.6037,,,1725.1042,1725.3537,,26,26,,,,,,,,,,,,,,,,bars/011.png,bars/mask009.png,,,,,,,,,,,,0,1,,,,,,,8,6,6,7,,,,,,,,,,,1724.6039,1725.1041,1725.3538,1730.2872,space,4.9067,,1730.2874,46,59,1731.2869,1731.287,1731.2939,,,,0,34,34,34,1,160,85,,,,,,,,
,,617431af6e82b2ebd42a3d67,65af56b5a08a0d49e2f07b4e,2024-01-23_08h05.18.071,bars,2023.2.3,Win32,60.60606061,657b66ea316d21385b68909f,,,,,,,,,,,1731.294,1732.2866,,,1732.7868,1733.0368,,63,63,,,,,,,,,,,,,,,,bars/021.png,bars/mask001.png,,,,,,,,,,,,5,2,,,,,,,6,8,7,7,,,,,,,,,,,1732.2869,1732.7867,1733.037,1736.9954,space,3.9383,,1736.9955,88,7,1737.9867,1737.9869,1737.9943,,,,0,35,35,35,1,155,70,,,,,,,,
,,617431af6e82b2ebd42a3d67,65af56b5a08a0d49e2f07b4e,2024-01-23_08h05.18.071,bars,2023.2.3,Win32,60.60606061,657b66ea316d21385b68909f,,,,,,,,,,,1737.9945,1738.9871,,,1739.4869,1739.7368,,151,151,,,,,,,,,,,,,,,,bars/004.png,bars/mask006.png,,,,,,,,,,,,1,2,,,,,,,8,10,9,10,,,,,,,,,,,1738.9872,1739.4868,1739.737,1743.1374,space,3.368,,1743.1376,54,26,1744.1364,1744.1365,1744.1434,,,,0,36,36,36,1,25,125,,,,,,,,
,,617431af6e82b2ebd42a3d67,65af56b5a08a0d49e2f07b4e,2024-01-23_08h05.18.071,bars,2023.2.3,Win32,60.60606061,657b66ea316d21385b68909f,,,,,,,,,,,1744.1435,1745.1368,,,1745.637,1745.8864,,142,142,,,,,,,,,,,,,,,,bars/002.png,bars/mask001.png,,,,,,,,,,,,6,1,,,,,,,10,8,10,8,,,,,,,,,,,1745.1369,1745.6368,1745.8866,1748.9456,space,3.0499,,1748.9457,12,57,1749.9368,1749.9369,1749.9444,,,,0,37,37,37,1,130,85,,,,,,,,
,,617431af6e82b2ebd42a3d67,65af56b5a08a0d49e2f07b4e,2024-01-23_08h05.18.071,bars,2023.2.3,Win32,60.60606061,657b66ea316d21385b68909f,,,,,,,,,,,1749.9445,1750.9363,,,1751.4367,1751.6865,,26,26,,,,,,,,,,,,,,,,bars/005.png,bars/mask003.png,,,,,,,,,,,,4,1,,,,,,,8,10,9,10,,,,,,,,,,,1750.9365,1751.4365,1751.6867,1752.537,space,0.8183,,1752.5372,16,66,1753.5366,1753.5367,1753.5391,,,,0,38,38,38,1,10,140,,,,,,,,
,,617431af6e82b2ebd42a3d67,65af56b5a08a0d49e2f07b4e,2024-01-23_08h05.18.071,bars,2023.2.3,Win32,60.60606061,657b66ea316d21385b68909f,,,,,,,,,,,1753.5395,1754.5365,,,1755.0365,1755.2854,,142,142,,,,,,,,,,,,,,,,bars/018.png,bars/mask007.png,,,,,,,,,,,,4,1,,,,,,,6,8,5,9,,,,,,,,,,,1754.5366,1755.0363,1755.2855,1756.2866,space,0.9857,,1756.2868,8,52,1757.2865,1757.2866,1757.2887,,,,0,39,39,39,1,150,90,,,,,,,,
,,617431af6e82b2ebd42a3d67,65af56b5a08a0d49e2f07b4e,2024-01-23_08h05.18.071,bars,2023.2.3,Win32,60.60606061,657b66ea316d21385b68909f,,,,,,,,,,,1757.2891,1758.286,,,1758.7864,1759.0361,,27,27,,,,,,,,,,,,,,,,bars/040.png,bars/mask000.png,,,,,,,,,,,,2,2,,,,,,,4,6,4,6,,,,,,,,,,,1758.2862,1758.7863,1759.0364,1759.8869,space,0.8178,,1759.8871,67,22,1760.886,1760.8862,1760.89,,,,0,40,40,40,1,140,5,,,,,,,,
,,617431af6e82b2ebd42a3d67,65af56b5a08a0d49e2f07b4e,2024-01-23_08h05.18.071,bars,2023.2.3,Win32,60.60606061,657b66ea316d21385b68909f,,,,,,,,,,,1760.8901,1761.8859,,,1762.3864,1762.6356,,65,65,,,,,,,,,,,,,,,,bars/026.png,bars/mask005.png,,,,,,,,,,,,3,2,,,,,,,2,8,2,8,,,,,,,,,,,1761.886,1762.3862,1762.6356,1765.8534,space,3.2004,,1765.8535,30,20,1766.8524,1766.8526,1766.8593,,,,0,41,41,41,1,35,85,,,,,,,,
,,617431af6e82b2ebd42a3d67,65af56b5a08a0d49e2f07b4e,2024-01-23_08h05.18.071,bars,2023.2.3,Win32,60.60606061,657b66ea316d21385b68909f,,,,,,,,,,,1766.8594,1767.8523,,,1768.352,1768.6032,,72,72,,,,,,,,,,,,,,,,bars/045.png,bars/mask002.png,,,,,,,,,,,,0,1,,,,,,,4,10,2,10,,,,,,,,,,,1767.8526,1768.3519,1768.6032,1769.2537,space,0.618,,1769.2538,28,62,1770.2525,1770.2527,1770.2563,,,,0,42,42,42,1,100,10,,,,,,,,
,,617431af6e82b2ebd42a3d67,65af56b5a08a0d49e2f07b4e,2024-01-23_08h05.18.071,bars,2023.2.3,Win32,60.60606061,657b66ea316d21385b68909f,,,,,,,,,,,1770.2564,1771.2524,,,1771.7523,1772.0026,,43,43,,,,,,,,,,,,,,,,bars/025.png,bars/mask006.png,,,,,,,,,,,,7,2,,,,,,,6,8,6,8,,,,,,,,,,,1771.2525,1771.7521,1772.0027,1775.4027,space,3.3681,,1775.4028,62,3,1776.4024,1776.4025,1776.4099,,,,0,43,43,43,1,105,40,,,,,,,,
,,617431af6e82b2ebd42a3d67,65af56b5a08a0d49e2f07b4e,2024-01-23_08h05.18.071,bars,2023.2.3,Win32,60.60606061,657b66ea316d21385b68909f,,,,,,,,,,,1776.41,1777.4023,,,1777.9024,1778.153,,137,137,,,,,,,,,,,,,,,,bars/002.png,bars/mask002.png,,,,,,,,,,,,4,1,,,,,,,4,10,5,10,,,,,,,,,,,1777.4025,1777.9022,1778.1531,1779.8359,space,1.6522,,1779.836,7,52,1780.8359,1780.8359,1780.8395,,,,0,44,44,44,1,130,85,,,,,,,,
,,617431af6e82b2ebd42a3d67,65af56b5a08a0d49e2f07b4e,2024-01-23_08h05.18.071,bars,2023.2.3,Win32,60.60606061,657b66ea316d21385b68909f,,,,,,,,,,,1780.8397,1781.8355,,,1782.3373,1782.5858,,38,38,,,,,,,,,,,,,,,,bars/031.png,bars/mask008.png,,,,,,,,,,,,7,2,,,,,,,2,8,2,8,,,,,,,,,,,1781.8357,1782.3369,1782.5859,1783.5186,space,0.9018,,1783.5188,82,3,1784.5187,1784.5189,1784.5228,,,,0,45,45,45,1,120,35,,,,,,,,
,,617431af6e82b2ebd42a3d67,65af56b5a08a0d49e2f07b4e,2024-01-23_08h05.18.071,bars,2023.2.3,Win32,60.60606061,657b66ea316d21385b68909f,,,,,,,,,,,1784.5229,1785.5192,,,1786.0196,1786.2686,,65,65,,,,,,,,,,,,,,,,bars/040.png,bars/mask002.png,,,,,,,,,,,,0,2,,,,,,,0,10,0,10,,,,,,,,,,,1785.5193,1786.0196,1786.2687,1789.5389,space,3.2452,,1789.5389,75,60,1790.5354,1790.5356,1790.5428,,,,0,46,46,46,1,140,5,,,,,,,,
,,617431af6e82b2ebd42a3d67,65af56b5a08a0d49e2f07b4e,2024-01-23_08h05.18.071,bars,2023.2.3,Win32,60.60606061,657b66ea316d21385b68909f,,,,,,,,,,,1790.5429,1791.5353,,,1792.0356,1792.2844,,35,35,,,,,,,,,,,,,,,,bars/031.png,bars/mask008.png,,,,,,,,,,,,7,2,,,,,,,0,8,0,7,,,,,,,,,,,1791.5355,1792.0352,1792.2844,1793.0024,space,0.6923,,1793.0026,85,0,1794.0022,1794.0023,1794.0046,,,,0,47,47,47,1,120,35,,,,,,,,
,,617431af6e82b2ebd42a3d67,65af56b5a08a0d49e2f07b4e,2024-01-23_08h05.18.071,bars,2023.2.3,Win32,60.60606061,657b66ea316d21385b68909f,,,,,,,,,,,1794.005,1795.002,,,1795.5027,1795.7523,,65,65,,,,,,,,,,,,,,,,bars/031.png,bars/mask008.png,,,,,,,,,,,,0,2,,,,,,,0,10,0,10,,,,,,,,,,,1795.002,1795.5026,1795.7525,1796.4187,space,0.6352,,1796.4188,55,30,1797.4184,1797.4185,1797.4199,,,,0,48,48,48,1,120,35,,,,,,,,
,,617431af6e82b2ebd42a3d67,65af56b5a08a0d49e2f07b4e,2024-01-23_08h05.18.071,bars,2023.2.3,Win32,60.60606061,657b66ea316d21385b68909f,,,,,,,,,,,1797.4203,1798.4183,,,1798.9192,1799.1687,,34,34,,,,,,,,,,,,,,,,bars/004.png,bars/mask006.png,,,,,,,,,,,,1,1,,,,,,,2,8,2,10,,,,,,,,,,,1798.4184,1798.919,1799.1688,1801.7943,space,2.6009,,1801.7943,9,89,1802.7855,1802.7856,1802.793,,,,0,49,49,49,1,25,125,,,,,,,,
,,617431af6e82b2ebd42a3d67,65af56b5a08a0d49e2f07b4e,2024-01-23_08h05.18.071,bars,2023.2.3,Win32,60.60606061,657b66ea316d21385b68909f,,,,,,,,,,,,,,,,,,,,,,,,,,,,,,,,,,,,,,,,,,,,,,,,,,,,,,,,,,,,,,,,,,,,,,,,,,,,,,,,,,,,,,,,,,,,,1802.793,1862.7828,0,2,2,3,1,sequence_tables/blk037.csv
,,617431af6e82b2ebd42a3d67,65af56b5a08a0d49e2f07b4e,2024-01-23_08h05.18.071,bars,2023.2.3,Win32,60.60606061,657b66ea316d21385b68909f,,,,,,,,,,,1878.0933,1879.0836,,,1879.5834,1879.8328,,100,100,,,,,,,,,,,,,,,,bars/004.png,bars/mask002.png,,,,,,,,,,,,1,2,,,,,,,8,4,8,5,,,,,,1862.7914,1878.0844,space,15.2679,,1879.0838,1879.5832,1879.8329,1883.4834,space,3.6341,,1883.4836,75,25,1884.4832,1884.4832,1884.4905,,,,0,0,0,0,1,25,125,,,,,,,,
,,617431af6e82b2ebd42a3d67,65af56b5a08a0d49e2f07b4e,2024-01-23_08h05.18.071,bars,2023.2.3,Win32,60.60606061,657b66ea316d21385b68909f,,,,,,,,,,,1884.4906,1885.4832,,,1885.9831,1886.2324,,58,58,,,,,,,,,,,,,,,,bars/013.png,bars/mask008.png,,,,,,,,,,,,4,1,,,,,,,10,6,10,8,,,,,,,,,,,1885.4833,1885.9829,1886.2324,1887.084,space,0.8404,,1887.0841,17,48,1888.0824,1888.0825,1888.0868,,,,0,1,1,1,1,75,10,,,,,,,,
,,617431af6e82b2ebd42a3d67,65af56b5a08a0d49e2f07b4e,2024-01-23_08h05.18.071,bars,2023.2.3,Win32,60.60606061,657b66ea316d21385b68909f,,,,,,,,,,,1888.0869,1889.0827,,,1889.5825,1889.8326,,143,143,,,,,,,,,,,,,,,,bars/015.png,bars/mask009.png,,,,,,,,,,,,2,2,,,,,,,10,4,10,5,,,,,,,,,,,1889.0828,1889.5825,1889.8327,1890.6501,space,0.8013,,1890.6503,33,17,1891.6503,1891.6504,1891.6536,,,,0,2,2,2,1,110,160,,,,,,,,
,,617431af6e82b2ebd42a3d67,65af56b5a08a0d49e2f07b4e,2024-01-23_08h05.18.071,bars,2023.2.3,Win32,60.60606061,657b66ea316d21385b68909f,,,,,,,,,,,1891.6537,1892.6497,,,1893.15,1893.3997,,34,34,,,,,,,,,,,,,,,,bars/024.png,bars/mask001.png,,,,,,,,,,,,0,2,,,,,,,8,6,8,5,,,,,,,,,,,1892.6498,1893.1499,1893.3999,1894.0337,space,0.6014,,1894.0338,86,44,1895.0328,1895.0329,1895.0352,,,,0,3,3,3,1,120,170,,,,,,,,
,,617431af6e82b2ebd42a3d67,65af56b5a08a0d49e2f07b4e,2024-01-23_08h05.18.071,bars,2023.2.3,Win32,60.60606061,657b66ea316d21385b68909f,,,,,,,,,,,1895.0357,1896.0323,,,1896.5332,1896.7823,,157,157,,,,,,,,,,,,,,,,bars/002.png,bars/mask003.png,,,,,,,,,,,,1,1,,,,,,,10,8,10,9,,,,,,,,,,,1896.0325,1896.5331,1896.7825,1897.2832,space,0.4688,,1897.2833,27,72,1898.2822,1898.2822,1898.2868,,,,0,4,4,4,1,130,85,,,,,,,,
,,617431af6e82b2ebd42a3d67,65af56b5a08a0d49e2f07b4e,2024-01-23_08h05.18.071,bars,2023.2.3,Win32,60.60606061,657b66ea316d21385b68909f,,,,,,,,,,,1898.2869,1899.2825,,,1899.7825,1900.033,,142,142,,,,,,,,,,,,,,,,bars/025.png,bars/mask005.png,,,,,,,,,,,,0,1,,,,,,,8,10,8,10,,,,,,,,,,,1899.2826,1899.7824,1900.033,1903.642,space,3.5859,,1903.642,37,78,1904.6331,1904.6333,1904.6401,,,,0,5,5,5,1,105,40,,,,,,,,
,,617431af6e82b2ebd42a3d67,65af56b5a08a0d49e2f07b4e,2024-01-23_08h05.18.071,bars,2023.2.3,Win32,60.60606061,657b66ea316d21385b68909f,,,,,,,,,,,1904.6402,1905.6324,,,1906.1325,1906.3825,,132,132,,,,,,,,,,,,,,,,bars/007.png,bars/mask002.png,,,,,,,,,,,,0,1,,,,,,,10,10,10,10,,,,,,,,,,,1905.6326,1906.1323,1906.3826,1911.6337,space,5.2178,,1911.6338,43,77,1912.6318,1912.6319,1912.6399,,,,0,6,6,6,1,175,55,,,,,,,,
,,617431af6e82b2ebd42a3d67,65af56b5a08a0d49e2f07b4e,2024-01-23_08h05.18.071,bars,2023.2.3,Win32,60.60606061,657b66ea316d21385b68909f,,,,,,,,,,,1912.64,1913.6323,,,1914.1322,1914.3828,,33,33,,,,,,,,,,,,,,,,bars/016.png,bars/mask007.png,,,,,,,,,,,,5,1,,,,,,,8,10,7,10,,,,,,,,,,,1913.6324,1914.1321,1914.3828,1915.1996,space,0.7855,,1915.1997,7,48,1916.2028,1916.2028,1916.2032,,,,0,7,7,7,1,40,165,,,,,,,,
,,617431af6e82b2ebd42a3d67,65af56b5a08a0d49e2f07b4e,2024-01-23_08h05.18.071,bars,2023.2.3,Win32,60.60606061,657b66ea316d21385b68909f,,,,,,,,,,,1916.2033,1917.1994,,,1917.6994,1917.9491,,50,50,,,,,,,,,,,,,,,,bars/018.png,bars/mask008.png,,,,,,,,,,,,0,2,,,,,,,6,10,6,10,,,,,,,,,,,1917.1995,1917.6993,1917.9491,1918.916,space,0.9348,,1918.9161,80,40,1919.9156,1919.9157,1919.9195,,,,0,8,8,8,1,150,90,,,,,,,,
,,617431af6e82b2ebd42a3d67,65af56b5a08a0d49e2f07b4e,2024-01-23_08h05.18.071,bars,2023.2.3,Win32,60.60606061,657b66ea316d21385b68909f,,,,,,,,,,,1919.9196,1920.9156,,,1921.4156,1921.6658,,24,24,,,,,,,,,,,,,,,,bars/019.png,bars/mask003.png,,,,,,,,,,,,2,1,,,,,,,8,8,8,8,,,,,,,,,,,1920.9158,1921.4153,1921.666,1922.8813,space,1.1907,,1922.8814,21,81,1923.8823,1923.8823,1923.8861,,,,0,9,9,9,1,45,105,,,,,,,,
,,617431af6e82b2ebd42a3d67,65af56b5a08a0d49e2f07b4e,2024-01-23_08h05.18.071,bars,2023.2.3,Win32,60.60606061,657b66ea316d21385b68909f,,,,,,,,,,,1923.8862,1924.8824,,,1925.3826,1925.6325,,104,104,,,,,,,,,,,,,,,,bars/024.png,bars/mask000.png,,,,,,,,,,,,2,1,,,,,,,6,10,4,10,,,,,,,,,,,1924.8825,1925.3824,1925.6326,1926.5829,space,0.9207,,1926.583,16,66,1927.5817,1927.5818,1927.5841,,,,0,10,10,10,1,120,170,,,,,,,,
,,617431af6e82b2ebd42a3d67,65af56b5a08a0d49e2f07b4e,2024-01-23_08h05.18.071,bars,2023.2.3,Win32,60.60606061,657b66ea316d21385b68909f,,,,,,,,,,,1927.5846,1928.5822,,,1929.0821,1929.332,,22,22,,,,,,,,,,,,,,,,bars/020.png,bars/mask005.png,,,,,,,,,,,,0,2,,,,,,,4,8,3,10,,,,,,,,,,,1928.5823,1929.0818,1929.3321,1930.4826,space,1.1184,,1930.4828,87,32,1931.4817,1931.4819,1931.4859,,,,0,11,11,11,1,115,170,,,,,,,,
,,617431af6e82b2ebd42a3d67,65af56b5a08a0d49e2f07b4e,2024-01-23_08h05.18.071,bars,2023.2.3,Win32,60.60606061,657b66ea316d21385b68909f,,,,,,,,,,,1931.486,1932.4821,,,1932.9814,1933.2314,,55,55,,,,,,,,,,,,,,,,bars/007.png,bars/mask006.png,,,,,,,,,,,,5,2,,,,,,,6,6,6,5,,,,,,,,,,,1932.4823,1932.9813,1933.2315,1937.199,space,3.9351,,1937.1992,60,0,1938.1981,1938.1982,1938.2056,,,,0,12,12,12,1,175,55,,,,,,,,
,,617431af6e82b2ebd42a3d67,65af56b5a08a0d49e2f07b4e,2024-01-23_08h05.18.071,bars,2023.2.3,Win32,60.60606061,657b66ea316d21385b68909f,,,,,,,,,,,1938.2056,1939.1988,,,1939.6987,1939.9487,,61,61,,,,,,,,,,,,,,,,bars/011.png,bars/mask006.png,,,,,,,,,,,,1,2,,,,,,,8,8,7,7,,,,,,,,,,,1939.1989,1939.6985,1939.9488,1945.5989,space,5.6176,,1945.5991,81,24,1946.5984,1946.5986,1946.6064,,,,0,13,13,13,1,160,85,,,,,,,,
,,617431af6e82b2ebd42a3d67,65af56b5a08a0d49e2f07b4e,2024-01-23_08h05.18.071,bars,2023.2.3,Win32,60.60606061,657b66ea316d21385b68909f,,,,,,,,,,,1946.6065,1947.5986,,,1948.0989,1948.3482,,35,35,,,,,,,,,,,,,,,,bars/011.png,bars/mask007.png,,,,,,,,,,,,0,2,,,,,,,6,10,6,10,,,,,,,,,,,1947.5988,1948.0987,1948.3483,1949.0821,space,0.7041,,1949.0822,55,50,1950.0817,1950.0818,1950.0837,,,,0,14,14,14,1,160,85,,,,,,,,
,,617431af6e82b2ebd42a3d67,65af56b5a08a0d49e2f07b4e,2024-01-23_08h05.18.071,bars,2023.2.3,Win32,60.60606061,657b66ea316d21385b68909f,,,,,,,,,,,1950.0842,1951.081,,,1951.5818,1951.8317,,113,113,,,,,,,,,,,,,,,,bars/029.png,bars/mask000.png,,,,,,,,,,,,1,1,,,,,,,4,10,5,10,,,,,,,,,,,1951.0812,1951.5817,1951.8318,1955.6156,space,3.751,,1955.6158,23,68,1956.6149,1956.615,1956.6225,,,,0,15,15,15,1,90,45,,,,,,,,
,,617431af6e82b2ebd42a3d67,65af56b5a08a0d49e2f07b4e,2024-01-23_08h05.18.071,bars,2023.2.3,Win32,60.60606061,657b66ea316d21385b68909f,,,,,,,,,,,1956.6225,1957.615,,,1958.1064,1958.348,,141,141,,,,,,,,,,,,,,,,bars/000.png,bars/mask003.png,,,,,,,,,,,,6,2,,,,,,,2,8,3,7,,,,,,,,,,,1957.6151,1958.1064,1958.3482,1960.9818,space,2.6019,,1960.9819,79,4,1961.9811,1961.9812,1961.9891,,,,0,16,16,16,1,40,145,,,,,,,,
,,617431af6e82b2ebd42a3d67,65af56b5a08a0d49e2f07b4e,2024-01-23_08h05.18.071,bars,2023.2.3,Win32,60.60606061,657b66ea316d21385b68909f,,,,,,,,,,,1961.9891,1962.9809,,,1963.4804,1963.7308,,105,105,,,,,,,,,,,,,,,,bars/023.png,bars/mask009.png,,,,,,,,,,,,5,2,,,,,,,4,6,4,7,,,,,,,,,,,1962.9809,1963.4804,1963.7311,1967.0648,space,3.3013,,1967.0649,85,10,1968.0644,1968.0645,1968.0716,,,,0,17,17,17,1,20,115,,,,,,,,
,,617431af6e82b2ebd42a3d67,65af56b5a08a0d49e2f07b4e,2024-01-23_08h05.18.071,bars,2023.2.3,Win32,60.60606061,657b66ea316d21385b68909f,,,,,,,,,,,1968.0718,1969.0646,,,1969.5646,1969.814,,55,55,,,,,,,,,,,,,,,,bars/036.png,bars/mask006.png,,,,,,,,,,,,0,2,,,,,,,6,4,6,5,,,,,,,,,,,1969.0648,1969.5644,1969.8143,1970.9986,space,1.1676,,1970.9986,90,35,1971.9974,1971.9976,1971.9998,,,,0,18,18,18,1,145,20,,,,,,,,
,,617431af6e82b2ebd42a3d67,65af56b5a08a0d49e2f07b4e,2024-01-23_08h05.18.071,bars,2023.2.3,Win32,60.60606061,657b66ea316d21385b68909f,,,,,,,,,,,1972.0003,1972.9975,,,1973.497,1973.7475,,135,135,,,,,,,,,,,,,,,,bars/048.png,bars/mask006.png,,,,,,,,,,,,0,2,,,,,,,4,2,3,3,,,,,,,,,,,1972.9976,1973.4969,1973.7477,1976.6977,space,2.918,,1976.6978,85,40,1977.6974,1977.6976,1977.7046,,,,0,19,19,19,1,50,175,,,,,,,,
,,617431af6e82b2ebd42a3d67,65af56b5a08a0d49e2f07b4e,2024-01-23_08h05.18.071,bars,2023.2.3,Win32,60.60606061,657b66ea316d21385b68909f,,,,,,,,,,,1977.7047,1978.6969,,,1979.198,1979.4478,,124,124,,,,,,,,,,,,,,,,bars/021.png,bars/mask007.png,,,,,,,,,,,,0,1,,,,,,,2,0,1,0,,,,,,,,,,,1978.697,1979.1979,1979.4479,1980.248,space,0.7696,,1980.2482,31,54,1981.2465,1981.2465,1981.2508,,,,0,20,20,20,1,155,70,,,,,,,,
,,617431af6e82b2ebd42a3d67,65af56b5a08a0d49e2f07b4e,2024-01-23_08h05.18.071,bars,2023.2.3,Win32,60.60606061,657b66ea316d21385b68909f,,,,,,,,,,,1981.251,1982.2465,,,1982.7483,1982.9971,,35,35,,,,,,,,,,,,,,,,bars/002.png,bars/mask009.png,,,,,,,,,,,,0,2,,,,,,,4,0,5,0,,,,,,,,,,,1982.2465,1982.7482,1982.9972,1985.156,space,2.1339,,1985.1561,85,50,1986.1472,1986.1474,1986.1513,,,,0,21,21,21,1,130,85,,,,,,,,
,,617431af6e82b2ebd42a3d67,65af56b5a08a0d49e2f07b4e,2024-01-23_08h05.18.071,bars,2023.2.3,Win32,60.60606061,657b66ea316d21385b68909f,,,,,,,,,,,1986.1515,1987.1466,,,1987.6477,1987.8974,,154,154,,,,,,,,,,,,,,,,bars/008.png,bars/mask005.png,,,,,,,,,,,,0,2,,,,,,,6,0,5,0,,,,,,,,,,,1987.1466,1987.6476,1987.8975,1990.5142,space,2.5848,,1990.5143,44,26,1991.514,1991.5141,1991.5208,,,,0,22,22,22,1,110,0,,,,,,,,
,,617431af6e82b2ebd42a3d67,65af56b5a08a0d49e2f07b4e,2024-01-23_08h05.18.071,bars,2023.2.3,Win32,60.60606061,657b66ea316d21385b68909f,,,,,,,,,,,1991.5209,1992.514,,,1993.0141,1993.2641,,118,118,,,,,,,,,,,,,,,,bars/049.png,bars/mask000.png,,,,,,,,,,,,0,2,,,,,,,8,0,8,0,,,,,,,,,,,1992.5141,1993.0138,1993.2642,1993.7481,space,0.4526,,1993.7483,42,3,1994.7474,1994.7475,1994.7497,,,,0,23,23,23,1,160,115,,,,,,,,
,,617431af6e82b2ebd42a3d67,65af56b5a08a0d49e2f07b4e,2024-01-23_08h05.18.071,bars,2023.2.3,Win32,60.60606061,657b66ea316d21385b68909f,,,,,,,,,,,1994.7501,1995.747,,,1996.2473,1996.4965,,53,53,,,,,,,,,,,,,,,,bars/048.png,bars/mask004.png,,,,,,,,,,,,9,1,,,,,,,10,0,10,2,,,,,,,,,,,1995.7472,1996.2471,1996.4965,1998.5374,space,2.0311,,1998.5374,3,58,1999.5309,1999.5311,1999.5382,,,,0,24,24,24,1,50,175,,,,,,,,
,,617431af6e82b2ebd42a3d67,65af56b5a08a0d49e2f07b4e,2024-01-23_08h05.18.071,bars,2023.2.3,Win32,60.60606061,657b66ea316d21385b68909f,,,,,,,,,,,1999.5383,2000.5301,,,2001.0295,2001.2799,,39,39,,,,,,,,,,,,,,,,bars/016.png,bars/mask007.png,,,,,,,,,,,,10,1,,,,,,,10,2,10,3,,,,,,,,,,,2000.5303,2001.0294,2001.2801,2003.4975,space,2.1849,,2003.4976,1,54,2004.4969,2004.4971,2004.504,,,,0,25,25,25,1,40,165,,,,,,,,
,,617431af6e82b2ebd42a3d67,65af56b5a08a0d49e2f07b4e,2024-01-23_08h05.18.071,bars,2023.2.3,Win32,60.60606061,657b66ea316d21385b68909f,,,,,,,,,,,2004.5041,2005.497,,,2005.9972,2006.2459,,56,56,,,,,,,,,,,,,,,,bars/025.png,bars/mask005.png,,,,,,,,,,,,1,2,,,,,,,8,4,7,3,,,,,,,,,,,2005.497,2005.9971,2006.2459,2008.2972,space,2.0339,,2008.2975,49,16,2009.2965,2009.2967,2009.3044,,,,0,26,26,26,1,105,40,,,,,,,,
,,617431af6e82b2ebd42a3d67,65af56b5a08a0d49e2f07b4e,2024-01-23_08h05.18.071,bars,2023.2.3,Win32,60.60606061,657b66ea316d21385b68909f,,,,,,,,,,,2009.3046,2010.2959,,,2010.7969,2011.0466,,153,-27,,,,,,,,,,,,,,,,bars/049.png,bars/mask004.png,,,,,,,,,,,,5,1,,,,,,,6,2,7,2,,,,,,,,,,,2010.296,2010.7968,2011.0468,2016.464,space,5.4006,,2016.4642,7,38,2017.4634,2017.4635,2017.4708,,,,0,27,27,27,1,160,115,,,,,,,,
,,617431af6e82b2ebd42a3d67,65af56b5a08a0d49e2f07b4e,2024-01-23_08h05.18.071,bars,2023.2.3,Win32,60.60606061,657b66ea316d21385b68909f,,,,,,,,,,,2017.4709,2018.4635,,,2018.9634,2019.2133,,112,112,,,,,,,,,,,,,,,,bars/038.png,bars/mask005.png,,,,,,,,,,,,0,2,,,,,,,4,0,3,1,,,,,,,,,,,2018.4636,2018.9633,2019.2134,2021.9304,space,2.6845,,2021.9306,53,42,2022.929,2022.9292,2022.9389,,,,0,28,28,28,1,165,70,,,,,,,,
,,617431af6e82b2ebd42a3d67,65af56b5a08a0d49e2f07b4e,2024-01-23_08h05.18.071,bars,2023.2.3,Win32,60.60606061,657b66ea316d21385b68909f,,,,,,,,,,,2022.9391,2023.9298,,,2024.4289,2024.6797,,111,111,,,,,,,,,,,,,,,,bars/020.png,bars/mask008.png,,,,,,,,,,,,5,1,,,,,,,6,2,6,1,,,,,,,,,,,2023.9299,2024.4289,2024.6799,2025.1887,space,0.4843,,2025.1887,4,59,2026.1796,2026.1797,2026.1837,,,,0,29,29,29,1,115,170,,,,,,,,
,,617431af6e82b2ebd42a3d67,65af56b5a08a0d49e2f07b4e,2024-01-23_08h05.18.071,bars,2023.2.3,Win32,60.60606061,657b66ea316d21385b68909f,,,,,,,,,,,2026.1838,2027.1794,,,2027.6798,2027.9293,,55,55,,,,,,,,,,,,,,,,bars/003.png,bars/mask006.png,,,,,,,,,,,,0,1,,,,,,,4,0,2,1,,,,,,,,,,,2027.1796,2027.6797,2027.9295,2028.6468,space,0.7009,,2028.6469,30,85,2029.6461,2029.6463,2029.6484,,,,0,30,30,30,1,25,140,,,,,,,,
,,617431af6e82b2ebd42a3d67,65af56b5a08a0d49e2f07b4e,2024-01-23_08h05.18.071,bars,2023.2.3,Win32,60.60606061,657b66ea316d21385b68909f,,,,,,,,,,,2029.6489,2030.6455,,,2031.146,2031.3967,,149,149,,,,,,,,,,,,,,,,bars/019.png,bars/mask005.png,,,,,,,,,,,,0,2,,,,,,,2,2,1,3,,,,,,,,,,,2030.6455,2031.1458,2031.3968,2034.3802,space,2.952,,2034.3803,76,44,2035.3879,2035.388,2035.3934,,,,0,31,31,31,1,45,105,,,,,,,,
,,617431af6e82b2ebd42a3d67,65af56b5a08a0d49e2f07b4e,2024-01-23_08h05.18.071,bars,2023.2.3,Win32,60.60606061,657b66ea316d21385b68909f,,,,,,,,,,,2035.3935,2036.396,,,2036.8964,2037.146,,158,-22,,,,,,,,,,,,,,,,bars/032.png,bars/mask004.png,,,,,,,,,,,,0,1,,,,,,,4,4,3,4,,,,,,,,,,,2036.3961,2036.8962,2037.1461,2040.6469,space,3.4685,,2040.6471,33,42,2041.6459,2041.646,2041.6533,,,,0,32,32,32,1,125,20,,,,,,,,
,,617431af6e82b2ebd42a3d67,65af56b5a08a0d49e2f07b4e,2024-01-23_08h05.18.071,bars,2023.2.3,Win32,60.60606061,657b66ea316d21385b68909f,,,,,,,,,,,2041.6534,2042.6457,,,2043.1458,2043.3881,,71,71,,,,,,,,,,,,,,,,bars/024.png,bars/mask005.png,,,,,,,,,,,,0,1,,,,,,,6,6,4,4,,,,,,,,,,,2042.6458,2043.1457,2043.3882,2044.0186,space,0.6144,,2044.0187,49,81,2045.0127,2045.0128,2045.0151,,,,0,33,33,33,1,120,170,,,,,,,,
,,617431af6e82b2ebd42a3d67,65af56b5a08a0d49e2f07b4e,2024-01-23_08h05.18.071,bars,2023.2.3,Win32,60.60606061,657b66ea316d21385b68909f,,,,,,,,,,,2045.0157,2046.0129,,,2046.5126,2046.7628,,31,31,,,,,,,,,,,,,,,,bars/020.png,bars/mask006.png,,,,,,,,,,,,0,2,,,,,,,4,8,4,8,,,,,,,,,,,2046.013,2046.5124,2046.7628,2047.3051,space,0.5177,,2047.3052,84,41,2048.2961,2048.2961,2048.2997,,,,0,34,34,34,1,115,170,,,,,,,,
,,617431af6e82b2ebd42a3d67,65af56b5a08a0d49e2f07b4e,2024-01-23_08h05.18.071,bars,2023.2.3,Win32,60.60606061,657b66ea316d21385b68909f,,,,,,,,,,,2048.2998,2049.2948,,,2049.796,2050.0463,,144,144,,,,,,,,,,,,,,,,bars/013.png,bars/mask004.png,,,,,,,,,,,,0,2,,,,,,,2,10,1,9,,,,,,,,,,,2049.2949,2049.796,2050.0465,2052.0545,space,1.9839,,2052.0546,69,46,2053.0456,2053.0456,2053.0525,,,,0,35,35,35,1,75,10,,,,,,,,
,,617431af6e82b2ebd42a3d67,65af56b5a08a0d49e2f07b4e,2024-01-23_08h05.18.071,bars,2023.2.3,Win32,60.60606061,657b66ea316d21385b68909f,,,,,,,,,,,2053.0526,2054.045,,,2054.5451,2054.7957,,56,56,,,,,,,,,,,,,,,,bars/033.png,bars/mask000.png,,,,,,,,,,,,0,1,,,,,,,4,8,3,8,,,,,,,,,,,2054.0452,2054.545,2054.7958,2059.0867,space,4.2665,,2059.0868,31,81,2060.0792,2060.0794,2060.0869,,,,0,36,36,36,1,25,155,,,,,,,,
,,617431af6e82b2ebd42a3d67,65af56b5a08a0d49e2f07b4e,2024-01-23_08h05.18.071,bars,2023.2.3,Win32,60.60606061,657b66ea316d21385b68909f,,,,,,,,,,,2060.0871,2061.0791,,,2061.5786,2061.8288,,146,146,,,,,,,,,,,,,,,,bars/034.png,bars/mask009.png,,,,,,,,,,,,1,1,,,,,,,2,6,2,5,,,,,,,,,,,2061.0791,2061.5786,2061.829,2062.4298,space,0.5682,,2062.4299,21,81,2063.4292,2063.4293,2063.4316,,,,0,37,37,37,1,125,65,,,,,,,,
,,617431af6e82b2ebd42a3d67,65af56b5a08a0d49e2f07b4e,2024-01-23_08h05.18.071,bars,2023.2.3,Win32,60.60606061,657b66ea316d21385b68909f,,,,,,,,,,,2063.4323,2064.4288,,,2064.9293,2065.179,,149,149,,,,,,,,,,,,,,,,bars/018.png,bars/mask002.png,,,,,,,,,,,,4,1,,,,,,,4,8,4,10,,,,,,,,,,,2064.429,2064.9291,2065.1792,2067.6624,space,2.4519,,2067.6626,1,59,2068.6621,2068.6622,2068.6689,,,,0,38,38,38,1,150,90,,,,,,,,
,,617431af6e82b2ebd42a3d67,65af56b5a08a0d49e2f07b4e,2024-01-23_08h05.18.071,bars,2023.2.3,Win32,60.60606061,657b66ea316d21385b68909f,,,,,,,,,,,2068.6691,2069.6616,,,2070.1621,2070.4126,,130,130,,,,,,,,,,,,,,,,bars/015.png,bars/mask002.png,,,,,,,,,,,,1,1,,,,,,,2,6,2,5,,,,,,,,,,,2069.6617,2070.162,2070.4127,2071.1787,space,0.737,,2071.1788,20,30,2072.1788,2072.1789,2072.1812,,,,0,39,39,39,1,110,160,,,,,,,,
,,617431af6e82b2ebd42a3d67,65af56b5a08a0d49e2f07b4e,2024-01-23_08h05.18.071,bars,2023.2.3,Win32,60.60606061,657b66ea316d21385b68909f,,,,,,,,,,,2072.1816,2073.1777,,,2073.6783,2073.9291,,39,39,,,,,,,,,,,,,,,,bars/046.png,bars/mask001.png,,,,,,,,,,,,0,2,,,,,,,4,8,2,7,,,,,,,,,,,2073.178,2073.6782,2073.9292,2076.0622,space,2.1043,,2076.0624,64,46,2077.0618,2077.0619,2077.0692,,,,0,40,40,40,1,155,85,,,,,,,,
,,617431af6e82b2ebd42a3d67,65af56b5a08a0d49e2f07b4e,2024-01-23_08h05.18.071,bars,2023.2.3,Win32,60.60606061,657b66ea316d21385b68909f,,,,,,,,,,,2077.0694,2078.0616,,,2078.5619,2078.8116,,74,74,,,,,,,,,,,,,,,,bars/041.png,bars/mask004.png,,,,,,,,,,,,6,2,,,,,,,6,10,5,10,,,,,,,,,,,2078.0618,2078.5618,2078.8118,2079.3787,space,0.537,,2079.3788,54,11,2080.3781,2080.3782,2080.381,,,,0,41,41,41,1,20,85,,,,,,,,
,,617431af6e82b2ebd42a3d67,65af56b5a08a0d49e2f07b4e,2024-01-23_08h05.18.071,bars,2023.2.3,Win32,60.60606061,657b66ea316d21385b68909f,,,,,,,,,,,2080.3816,2081.3782,,,2081.8783,2082.1284,,155,155,,,,,,,,,,,,,,,,bars/022.png,bars/mask004.png,,,,,,,,,,,,0,2,,,,,,,8,8,8,10,,,,,,,,,,,2081.3784,2081.8781,2082.1286,2083.0287,space,0.8693,,2083.0289,60,45,2084.0275,2084.0276,2084.0296,,,,0,42,42,42,1,95,20,,,,,,,,
,,617431af6e82b2ebd42a3d67,65af56b5a08a0d49e2f07b4e,2024-01-23_08h05.18.071,bars,2023.2.3,Win32,60.60606061,657b66ea316d21385b68909f,,,,,,,,,,,2084.0303,2085.0279,,,2085.5288,2085.7784,,175,175,,,,,,,,,,,,,,,,bars/042.png,bars/mask002.png,,,,,,,,,,,,0,1,,,,,,,10,6,10,6,,,,,,,,,,,2085.0281,2085.5286,2085.7786,2086.8705,space,1.0831,,2086.8705,30,80,2087.8613,2087.8614,2087.8654,,,,0,43,43,43,1,145,75,,,,,,,,
,,617431af6e82b2ebd42a3d67,65af56b5a08a0d49e2f07b4e,2024-01-23_08h05.18.071,bars,2023.2.3,Win32,60.60606061,657b66ea316d21385b68909f,,,,,,,,,,,2087.8655,2088.8616,,,2089.3617,2089.6115,,150,150,,,,,,,,,,,,,,,,bars/015.png,bars/mask007.png,,,,,,,,,,,,3,2,,,,,,,8,4,10,5,,,,,,,,,,,2088.8617,2089.3615,2089.6116,2095.8457,space,6.206,,2095.8459,40,10,2096.8447,2096.8448,2096.8535,,,,0,44,44,44,1,110,160,,,,,,,,
,,617431af6e82b2ebd42a3d67,65af56b5a08a0d49e2f07b4e,2024-01-23_08h05.18.071,bars,2023.2.3,Win32,60.60606061,657b66ea316d21385b68909f,,,,,,,,,,,2096.8536,2097.8449,,,2098.344,2098.5938,,140,140,,,,,,,,,,,,,,,,bars/044.png,bars/mask007.png,,,,,,,,,,,,1,2,,,,,,,6,2,7,2,,,,,,,,,,,2097.845,2098.344,2098.5939,2099.2117,space,0.6002,,2099.2118,65,15,2100.2112,2100.2112,2100.2141,,,,0,45,45,45,1,75,155,,,,,,,,
,,617431af6e82b2ebd42a3d67,65af56b5a08a0d49e2f07b4e,2024-01-23_08h05.18.071,bars,2023.2.3,Win32,60.60606061,657b66ea316d21385b68909f,,,,,,,,,,,2100.2145,2101.211,,,2101.7113,2101.9619,,145,145,,,,,,,,,,,,,,,,bars/037.png,bars/mask007.png,,,,,,,,,,,,4,1,,,,,,,4,0,5,0,,,,,,,,,,,2101.2111,2101.7112,2101.9619,2106.094,space,4.1023,,2106.0942,5,40,2107.0946,2107.0947,2107.1019,,,,0,46,46,46,1,150,105,,,,,,,,
,,617431af6e82b2ebd42a3d67,65af56b5a08a0d49e2f07b4e,2024-01-23_08h05.18.071,bars,2023.2.3,Win32,60.60606061,657b66ea316d21385b68909f,,,,,,,,,,,2107.102,2108.0943,,,2108.5947,2108.8444,,152,152,,,,,,,,,,,,,,,,bars/044.png,bars/mask005.png,,,,,,,,,,,,2,2,,,,,,,2,2,2,2,,,,,,,,,,,2108.0945,2108.5946,2108.8445,2109.911,space,1.0505,,2109.9112,77,3,2110.911,2110.911,2110.9184,,,,0,47,47,47,1,75,155,,,,,,,,
,,617431af6e82b2ebd42a3d67,65af56b5a08a0d49e2f07b4e,2024-01-23_08h05.18.071,bars,2023.2.3,Win32,60.60606061,657b66ea316d21385b68909f,,,,,,,,,,,2110.9184,2111.9108,,,2112.4106,2112.6608,,146,-34,,,,,,,,,,,,,,,,bars/017.png,bars/mask004.png,,,,,,,,,,,,1,1,,,,,,,0,4,1,5,,,,,,,,,,,2111.9109,2112.4105,2112.661,2116.0281,space,3.3353,,2116.0282,1,79,2117.0274,2117.0276,2117.0351,,,,0,48,48,48,1,145,45,,,,,,,,
,,617431af6e82b2ebd42a3d67,65af56b5a08a0d49e2f07b4e,2024-01-23_08h05.18.071,bars,2023.2.3,Win32,60.60606061,657b66ea316d21385b68909f,,,,,,,,,,,2117.0353,2118.0275,,,2118.5273,2118.7768,,144,144,,,,,,,,,,,,,,,,bars/029.png,bars/mask004.png,,,,,,,,,,,,0,1,,,,,,,2,2,3,2,,,,,,,,,,,2118.0277,2118.5271,2118.7768,2122.0617,space,3.267,,2122.0618,54,81,2123.0606,2123.0607,2123.0677,,,,0,49,49,49,1,90,45,,,,,,,,
,,617431af6e82b2ebd42a3d67,65af56b5a08a0d49e2f07b4e,2024-01-23_08h05.18.071,bars,2023.2.3,Win32,60.60606061,657b66ea316d21385b68909f,,,,,,,,,,,,,,,,,,,,,,,,,,,,,,,,,,,,,,,,,,,,,,,,,,,,,,,,,,,,,,,,,,,,,,,,,,,,,,,,,,,,,,,,,,,,,2123.0678,2183.0594,0,3,3,0,1,sequence_tables/blk028.csv
,,617431af6e82b2ebd42a3d67,65af56b5a08a0d49e2f07b4e,2024-01-23_08h05.18.071,bars,2023.2.3,Win32,60.60606061,657b66ea316d21385b68909f,,,,,,,,,,,2196.9346,2197.9247,,,2198.4257,2198.6752,,21,21,,,,,,,,,,,,,,,,bars/038.png,bars/mask000.png,,,,,,,,,,,,0,1,,,,,,,2,7,0,6,,,,,,2183.0673,2196.9252,space,13.8333,,2197.9248,2198.4256,2198.6755,2199.2678,space,0.5831,,2199.2678,36,49,2200.2586,2200.2588,2200.2609,,,,0,0,0,0,1,165,70,,,,,,,,
,,617431af6e82b2ebd42a3d67,65af56b5a08a0d49e2f07b4e,2024-01-23_08h05.18.071,bars,2023.2.3,Win32,60.60606061,657b66ea316d21385b68909f,,,,,,,,,,,2200.2616,2201.2586,,,2201.7592,2202.0088,,109,109,,,,,,,,,,,,,,,,bars/049.png,bars/mask005.png,,,,,,,,,,,,8,2,,,,,,,0,9,1,10,,,,,,,,,,,2201.2588,2201.7591,2202.009,2202.5596,space,0.5219,,2202.5597,51,6,2203.5592,2203.5593,2203.5628,,,,0,1,1,1,1,160,115,,,,,,,,
,,617431af6e82b2ebd42a3d67,65af56b5a08a0d49e2f07b4e,2024-01-23_08h05.18.071,bars,2023.2.3,Win32,60.60606061,657b66ea316d21385b68909f,,,,,,,,,,,2203.5629,2204.5584,,,2205.0581,2205.3093,,77,77,,,,,,,,,,,,,,,,bars/026.png,bars/mask009.png,,,,,,,,,,,,5,2,,,,,,,0,7,1,7,,,,,,,,,,,2204.5586,2205.0581,2205.3094,2206.0425,space,0.7004,,2206.0426,42,8,2207.0422,2207.0423,2207.0447,,,,0,2,2,2,1,35,85,,,,,,,,
,,617431af6e82b2ebd42a3d67,65af56b5a08a0d49e2f07b4e,2024-01-23_08h05.18.071,bars,2023.2.3,Win32,60.60606061,657b66ea316d21385b68909f,,,,,,,,,,,2207.0451,2208.041,,,2208.542,2208.7921,,99,99,,,,,,,,,,,,,,,,bars/041.png,bars/mask009.png,,,,,,,,,,,,5,2,,,,,,,2,9,1,9,,,,,,,,,,,2208.041,2208.5418,2208.7921,2212.0748,space,3.2599,,2212.0748,79,14,2213.0754,2213.0754,2213.083,,,,0,3,3,3,1,20,85,,,,,,,,
,,617431af6e82b2ebd42a3d67,65af56b5a08a0d49e2f07b4e,2024-01-23_08h05.18.071,bars,2023.2.3,Win32,60.60606061,657b66ea316d21385b68909f,,,,,,,,,,,2213.0832,2214.0745,,,2214.5758,2214.8246,,81,81,,,,,,,,,,,,,,,,bars/024.png,bars/mask000.png,,,,,,,,,,,,0,1,,,,,,,4,10,4,10,,,,,,,,,,,2214.0746,2214.5756,2214.8247,2215.5262,space,0.67,,2215.5263,39,89,2216.5255,2216.5256,2216.529,,,,0,4,4,4,1,120,170,,,,,,,,
,,617431af6e82b2ebd42a3d67,65af56b5a08a0d49e2f07b4e,2024-01-23_08h05.18.071,bars,2023.2.3,Win32,60.60606061,657b66ea316d21385b68909f,,,,,,,,,,,2216.5292,2217.5336,,,2218.0255,2218.2752,,141,141,,,,,,,,,,,,,,,,bars/028.png,bars/mask003.png,,,,,,,,,,,,3,2,,,,,,,2,10,0,10,,,,,,,,,,,2217.5337,2218.0254,2218.2754,2218.7756,space,0.4842,,2218.7757,84,21,2219.7667,2219.7667,2219.7677,,,,0,5,5,5,1,45,120,,,,,,,,
,,617431af6e82b2ebd42a3d67,65af56b5a08a0d49e2f07b4e,2024-01-23_08h05.18.071,bars,2023.2.3,Win32,60.60606061,657b66ea316d21385b68909f,,,,,,,,,,,2219.7677,2220.7584,,,2221.2585,2221.508,,141,141,,,,,,,,,,,,,,,,bars/035.png,bars/mask007.png,,,,,,,,,,,,0,1,,,,,,,4,10,5,9,,,,,,,,,,,2220.7584,2221.2583,2221.508,2222.692,space,1.1562,,2222.6923,34,81,2223.691,2223.691,2223.6953,,,,0,6,6,6,1,175,60,,,,,,,,
,,617431af6e82b2ebd42a3d67,65af56b5a08a0d49e2f07b4e,2024-01-23_08h05.18.071,bars,2023.2.3,Win32,60.60606061,657b66ea316d21385b68909f,,,,,,,,,,,2223.6954,2224.6914,,,2225.1912,2225.4414,,132,132,,,,,,,,,,,,,,,,bars/038.png,bars/mask006.png,,,,,,,,,,,,0,1,,,,,,,2,8,2,8,,,,,,,,,,,2224.6917,2225.191,2225.4416,2226.2587,space,0.8004,,2226.2588,33,62,2227.2577,2227.2578,2227.2599,,,,0,7,7,7,1,165,70,,,,,,,,
,,617431af6e82b2ebd42a3d67,65af56b5a08a0d49e2f07b4e,2024-01-23_08h05.18.071,bars,2023.2.3,Win32,60.60606061,657b66ea316d21385b68909f,,,,,,,,,,,2227.2605,2228.2581,,,2228.7585,2229.0083,,136,136,,,,,,,,,,,,,,,,bars/029.png,bars/mask009.png,,,,,,,,,,,,0,1,,,,,,,0,10,0,10,,,,,,,,,,,2228.2583,2228.7582,2229.0083,2231.3921,space,2.3515,,2231.3923,46,89,2232.3905,2232.3907,2232.398,,,,0,8,8,8,1,90,45,,,,,,,,
,,617431af6e82b2ebd42a3d67,65af56b5a08a0d49e2f07b4e,2024-01-23_08h05.18.071,bars,2023.2.3,Win32,60.60606061,657b66ea316d21385b68909f,,,,,,,,,,,2232.3981,2233.3915,,,2233.8919,2234.1415,,127,127,,,,,,,,,,,,,,,,bars/016.png,bars/mask005.png,,,,,,,,,,,,0,2,,,,,,,2,8,2,8,,,,,,,,,,,2233.3917,2233.8918,2234.1417,2237.7086,space,3.5408,,2237.7088,87,38,2238.7081,2238.7082,2238.7155,,,,0,9,9,9,1,40,165,,,,,,,,
,,617431af6e82b2ebd42a3d67,65af56b5a08a0d49e2f07b4e,2024-01-23_08h05.18.071,bars,2023.2.3,Win32,60.60606061,657b66ea316d21385b68909f,,,,,,,,,,,2238.7155,2239.7078,,,2240.2077,2240.4581,,39,39,,,,,,,,,,,,,,,,bars/035.png,bars/mask003.png,,,,,,,,,,,,3,2,,,,,,,0,10,0,10,,,,,,,,,,,2239.7079,2240.2076,2240.4582,2241.6751,space,1.2001,,2241.6752,44,21,2242.6744,2242.6745,2242.6771,,,,0,10,10,10,1,175,60,,,,,,,,
