init_variables.started,init_variables.stopped,participant,session,date,expName,psychopyVersion,OS,frameRate,study_id,instruction_exp.started,instruction_exp.stopped,key_resp_8.keys,key_resp_8.rt,key_resp_8.duration,instruction_single.started,instruction_single.stopped,key_resp_2.keys,key_resp_2.rt,key_resp_2.duration,interval.started,interval.stopped,cue_single.started,cue_single.stopped,mask.started,mask.stopped,ori_response_single.started,res_ori,res,ori_response_single.stopped,key_resp_single.keys,key_resp_single.rt,key_resp_single.duration,disp_single.started,disp_single.stopped,key_resp.keys,key_resp.rt,key_resp.duration,single.thisRepN,single.thisTrialN,single.thisN,single.thisIndex,single.ran,ori,path,mask_path,instruction_bandit.started,instruction_bandit.stopped,key_resp_6.keys,key_resp_6.rt,key_resp_6.duration,cue_bandit.started,cue_bandit.stopped,bandit_res.keys,bandit_res.rt,bandit_res.duration,outcome_bandit.started,rew,action,outcome_bandit.stopped,bandit.thisRepN,bandit.thisTrialN,bandit.thisN,bandit.thisIndex,bandit.ran,actual_rew1,actual_rew2,rew1,rew2,instruction_task.started,instruction_task.stopped,key_resp_7.keys,key_resp_7.rt,key_resp_7.duration,wait_ready.started,wait_ready.stopped,key_resp_3.keys,key_resp_3.rt,key_resp_3.duration,cue.started,cue.stopped,ori_response.started,ori_response.stopped,key_resp_5.keys,key_resp_5.rt,key_resp_5.duration,outcome.started,diff1,diff2,outcome.stopped,disp_outcome_practice.started,disp_outcome_practice.stopped,key_resp_4.keys,key_resp_4.rt,key_resp_4.duration,trials.thisRepN,trials.thisTrialN,trials.thisN,trials.thisIndex,trials.ran,ori1,ori2,break_blk.started,break_blk.stopped,block.thisRepN,block.thisTrialN,block.thisN,block.thisIndex,block.ran,condition_file
0.0004,0.0006,6547ad7f4510d0a39294fefd,65af56294abd09284145a17f,2024-01-23_08h03.27.357,bars,2023.2.3,Win32,40,657b66ea316d21385b68909f,,,,,,,,,,,,,,,,,,,,,,,,,,,,,,,,,,,,,,,,,,,,,,,,,,,,,,,,,,,,,,,,,,,,,,,,,,,,,,,,,,,,,,,,,,,,,,,,,,,,
,,6547ad7f4510d0a39294fefd,65af56294abd09284145a17f,2024-01-23_08h03.27.357,bars,2023.2.3,Win32,40,657b66ea316d21385b68909f,0.0009,12.5333,y,12.5172,,,,,,,,,,,,,,,,,,,,,,,,,,,,,,,,,,,,,,,,,,,,,,,,,,,,,,,,,,,,,,,,,,,,,,,,,,,,,,,,,,,,,,,,,,,,,,,,
,,6547ad7f4510d0a39294fefd,65af56294abd09284145a17f,2024-01-23_08h03.27.357,bars,2023.2.3,Win32,40,657b66ea316d21385b68909f,,,,,,12.534,39.8706,space,27.3146,,,,,,,,,,,,,,,,,,,,,,,,,,,,,,,,,,,,,,,,,,,,,,,,,,,,,,,,,,,,,,,,,,,,,,,,,,,,,,,,,,,,,,,,,,,
,,6547ad7f4510d0a39294fefd,65af56294abd09284145a17f,2024-01-23_08h03.27.357,bars,2023.2.3,Win32,40,657b66ea316d21385b68909f,,,,,,,,,,,39.8808,40.8652,40.8658,41.3653,41.3657,41.6162,41.6166,88,88,54.1423,space,12.4679,,54.1428,78.5656,space,24.3712,,0,0,0,9,1,20,bars/single009.png,bars/mask006.png,,,,,,,,,,,,,,,,,,,,,,,,,,,,,,,,,,,,,,,,,,,,,,,,,,,,,,,,,,,,,,,,
,,6547ad7f4510d0a39294fefd,65af56294abd09284145a17f,2024-01-23_08h03.27.357,bars,2023.2.3,Win32,40,657b66ea316d21385b68909f,,,,,,,,,,,78.5916,79.5661,79.5664,80.0666,80.0667,80.3178,80.3178,24,204,89.5364,space,9.1944,,89.5365,93.2945,space,3.7242,,0,1,1,3,1,20,bars/single003.png,bars/mask005.png,,,,,,,,,,,,,,,,,,,,,,,,,,,,,,,,,,,,,,,,,,,,,,,,,,,,,,,,,,,,,,,,
,,6547ad7f4510d0a39294fefd,65af56294abd09284145a17f,2024-01-23_08h03.27.357,bars,2023.2.3,Win32,40,657b66ea316d21385b68909f,,,,,,,,,,,93.2959,94.2954,94.2954,94.7962,94.7962,95.047,95.0471,174,-6,101.7607,space,6.6892,,101.7609,105.4431,space,3.6353,,0,2,2,8,1,160,bars/single008.png,bars/mask004.png,,,,,,,,,,,,,,,,,,,,,,,,,,,,,,,,,,,,,,,,,,,,,,,,,,,,,,,,,,,,,,,,
,,6547ad7f4510d0a39294fefd,65af56294abd09284145a17f,2024-01-23_08h03.27.357,bars,2023.2.3,Win32,40,657b66ea316d21385b68909f,,,,,,,,,,,105.4441,106.4444,106.4445,106.9462,106.9463,107.1967,107.1967,173,173,112.3817,space,5.1614,,112.3819,115.9896,space,3.5556,,0,3,3,6,1,175,bars/single006.png,bars/mask005.png,,,,,,,,,,,,,,,,,,,,,,,,,,,,,,,,,,,,,,,,,,,,,,,,,,,,,,,,,,,,,,,,
,,6547ad7f4510d0a39294fefd,65af56294abd09284145a17f,2024-01-23_08h03.27.357,bars,2023.2.3,Win32,40,657b66ea316d21385b68909f,,,,,,,,,,,116.0126,116.9904,116.9904,117.492,117.4921,117.7415,117.7415,179,-1,121.8257,space,4.0608,,121.8258,124.6319,space,2.7685,,0,4,4,7,1,45,bars/single007.png,bars/mask009.png,,,,,,,,,,,,,,,,,,,,,,,,,,,,,,,,,,,,,,,,,,,,,,,,,,,,,,,,,,,,,,,,
,,6547ad7f4510d0a39294fefd,65af56294abd09284145a17f,2024-01-23_08h03.27.357,bars,2023.2.3,Win32,40,657b66ea316d21385b68909f,,,,,,,,,,,124.633,125.6333,125.6334,126.1343,126.1344,126.3859,126.3859,29,29,129.7416,space,3.3398,,129.7418,139.4858,space,9.7209,,0,5,5,0,1,150,bars/single000.png,bars/mask006.png,,,,,,,,,,,,,,,,,,,,,,,,,,,,,,,,,,,,,,,,,,,,,,,,,,,,,,,,,,,,,,,,
,,6547ad7f4510d0a39294fefd,65af56294abd09284145a17f,2024-01-23_08h03.27.357,bars,2023.2.3,Win32,40,657b66ea316d21385b68909f,,,,,,,,,,,139.5085,140.4879,140.488,140.9884,140.9885,141.2395,141.2396,136,136,144.7464,space,3.4848,,144.7465,147.727,space,2.9391,,0,6,6,2,1,145,bars/single002.png,bars/mask003.png,,,,,,,,,,,,,,,,,,,,,,,,,,,,,,,,,,,,,,,,,,,,,,,,,,,,,,,,,,,,,,,,
,,6547ad7f4510d0a39294fefd,65af56294abd09284145a17f,2024-01-23_08h03.27.357,bars,2023.2.3,Win32,40,657b66ea316d21385b68909f,,,,,,,,,,,147.7406,148.729,148.7291,149.23,149.2301,149.4805,149.4806,141,141,153.4151,space,3.9121,,153.4155,155.5176,space,2.0639,,0,7,7,4,1,95,bars/single004.png,bars/mask004.png,,,,,,,,,,,,,,,,,,,,,,,,,,,,,,,,,,,,,,,,,,,,,,,,,,,,,,,,,,,,,,,,
,,6547ad7f4510d0a39294fefd,65af56294abd09284145a17f,2024-01-23_08h03.27.357,bars,2023.2.3,Win32,40,657b66ea316d21385b68909f,,,,,,,,,,,155.5187,156.5204,156.5206,157.0203,157.0204,157.2709,157.2709,162,162,163.1099,space,5.8087,,163.11,164.6114,space,1.4514,,0,8,8,1,1,20,bars/single001.png,bars/mask006.png,,,,,,,,,,,,,,,,,,,,,,,,,,,,,,,,,,,,,,,,,,,,,,,,,,,,,,,,,,,,,,,,
,,6547ad7f4510d0a39294fefd,65af56294abd09284145a17f,2024-01-23_08h03.27.357,bars,2023.2.3,Win32,40,657b66ea316d21385b68909f,,,,,,,,,,,164.6122,165.6141,165.6142,166.1152,166.1152,166.3655,166.3657,20,200,170.3731,space,3.9939,,170.3733,171.9002,space,1.4803,,0,9,9,5,1,55,bars/single005.png,bars/mask008.png,,,,,,,,,,,,,,,,,,,,,,,,,,,,,,,,,,,,,,,,,,,,,,,,,,,,,,,,,,,,,,,,
,,6547ad7f4510d0a39294fefd,65af56294abd09284145a17f,2024-01-23_08h03.27.357,bars,2023.2.3,Win32,40,657b66ea316d21385b68909f,,,,,,,,,,,,,,,,,,,,,,,,,,,,,,,,,,,,,171.9012,195.1736,space,23.2431,,,,,,,,,,,,,,,,,,,,,,,,,,,,,,,,,,,,,,,,,,,,,,,,,,,,,,,,,,,,
,,6547ad7f4510d0a39294fefd,65af56294abd09284145a17f,2024-01-23_08h03.27.357,bars,2023.2.3,Win32,40,657b66ea316d21385b68909f,,,,,,,,,,,,,,,,,,,,,,,,,,,,,,,,,,,,,,,,,,195.2027,198.8058,left,3.5477,,198.8067,9,1,199.8068,0,0,0,0,1,9,1,9,2,,,,,,,,,,,,,,,,,,,,,,,,,,,,,,,,,,,,,,,,,
,,6547ad7f4510d0a39294fefd,65af56294abd09284145a17f,2024-01-23_08h03.27.357,bars,2023.2.3,Win32,40,657b66ea316d21385b68909f,,,,,,,,,,,,,,,,,,,,,,,,,,,,,,,,,,,,,,,,,,199.8084,204.5417,left,4.7098,,204.5419,10,1,205.5426,0,1,1,1,1,10,0,10,1,,,,,,,,,,,,,,,,,,,,,,,,,,,,,,,,,,,,,,,,,
,,6547ad7f4510d0a39294fefd,65af56294abd09284145a17f,2024-01-23_08h03.27.357,bars,2023.2.3,Win32,40,657b66ea316d21385b68909f,,,,,,,,,,,,,,,,,,,,,,,,,,,,,,,,,,,,,,,,,,205.5659,208.3991,right,2.8127,,208.3993,2,2,209.4008,0,2,2,2,1,10,2,10,2,,,,,,,,,,,,,,,,,,,,,,,,,,,,,,,,,,,,,,,,,
,,6547ad7f4510d0a39294fefd,65af56294abd09284145a17f,2024-01-23_08h03.27.357,bars,2023.2.3,Win32,40,657b66ea316d21385b68909f,,,,,,,,,,,,,,,,,,,,,,,,,,,,,,,,,,,,,,,,,,209.4242,211.5559,left,2.1227,,211.556,7,1,212.5573,0,3,3,3,1,8,4,7,3,,,,,,,,,,,,,,,,,,,,,,,,,,,,,,,,,,,,,,,,,
,,6547ad7f4510d0a39294fefd,65af56294abd09284145a17f,2024-01-23_08h03.27.357,bars,2023.2.3,Win32,40,657b66ea316d21385b68909f,,,,,,,,,,,,,,,,,,,,,,,,,,,,,,,,,,,,,,,,,,212.5579,214.8624,left,2.2884,,214.8625,5,1,215.8638,0,4,4,4,1,6,2,5,1,,,,,,,,,,,,,,,,,,,,,,,,,,,,,,,,,,,,,,,,,
,,6547ad7f4510d0a39294fefd,65af56294abd09284145a17f,2024-01-23_08h03.27.357,bars,2023.2.3,Win32,40,657b66ea316d21385b68909f,,,,,,,,,,,,,,,,,,,,,,,,,,,,,,,,,,,,,,,,,,215.8858,217.743,right,1.84,,217.7432,4,2,218.7436,0,5,5,5,1,4,4,4,4,,,,,,,,,,,,,,,,,,,,,,,,,,,,,,,,,,,,,,,,,
,,6547ad7f4510d0a39294fefd,65af56294abd09284145a17f,2024-01-23_08h03.27.357,bars,2023.2.3,Win32,40,657b66ea316d21385b68909f,,,,,,,,,,,,,,,,,,,,,,,,,,,,,,,,,,,,,,,,,,218.7448,221.2752,left,2.5057,,221.2756,1,1,222.2761,0,6,6,6,1,2,2,1,2,,,,,,,,,,,,,,,,,,,,,,,,,,,,,,,,,,,,,,,,,
,,6547ad7f4510d0a39294fefd,65af56294abd09284145a17f,2024-01-23_08h03.27.357,bars,2023.2.3,Win32,40,657b66ea316d21385b68909f,,,,,,,,,,,,,,,,,,,,,,,,,,,,,,,,,,,,,,,,,,222.2991,223.3285,right,1.0155,,223.3287,1,2,224.33,0,7,7,7,1,0,0,0,1,,,,,,,,,,,,,,,,,,,,,,,,,,,,,,,,,,,,,,,,,
,,6547ad7f4510d0a39294fefd,65af56294abd09284145a17f,2024-01-23_08h03.27.357,bars,2023.2.3,Win32,40,657b66ea316d21385b68909f,,,,,,,,,,,,,,,,,,,,,,,,,,,,,,,,,,,,,,,,,,224.3309,225.8835,left,1.5262,,225.8837,1,1,226.886,0,8,8,8,1,0,2,1,0,,,,,,,,,,,,,,,,,,,,,,,,,,,,,,,,,,,,,,,,,
,,6547ad7f4510d0a39294fefd,65af56294abd09284145a17f,2024-01-23_08h03.27.357,bars,2023.2.3,Win32,40,657b66ea316d21385b68909f,,,,,,,,,,,,,,,,,,,,,,,,,,,,,,,,,,,,,,,,,,226.8872,227.7374,left,0.8297,,227.7375,2,1,228.7394,0,9,9,9,1,2,4,2,3,,,,,,,,,,,,,,,,,,,,,,,,,,,,,,,,,,,,,,,,,
,,6547ad7f4510d0a39294fefd,65af56294abd09284145a17f,2024-01-23_08h03.27.357,bars,2023.2.3,Win32,40,657b66ea316d21385b68909f,,,,,,,,,,,,,,,,,,,,,,,,,,,,,,,,,,,,,,,,,,228.7402,232.5721,right,3.8143,,232.5723,3,2,233.5739,0,10,10,10,1,0,2,0,3,,,,,,,,,,,,,,,,,,,,,,,,,,,,,,,,,,,,,,,,,
,,6547ad7f4510d0a39294fefd,65af56294abd09284145a17f,2024-01-23_08h03.27.357,bars,2023.2.3,Win32,40,657b66ea316d21385b68909f,,,,,,,,,,,,,,,,,,,,,,,,,,,,,,,,,,,,,,,,,,233.5986,234.6022,right,0.9939,,234.6023,3,2,235.6029,0,11,11,11,1,0,4,0,3,,,,,,,,,,,,,,,,,,,,,,,,,,,,,,,,,,,,,,,,,
,,6547ad7f4510d0a39294fefd,65af56294abd09284145a17f,2024-01-23_08h03.27.357,bars,2023.2.3,Win32,40,657b66ea316d21385b68909f,,,,,,,,,,,,,,,,,,,,,,,,,,,,,,,,,,,,,,,,,,235.6037,237.6577,left,2.0272,,237.6578,1,1,238.6585,0,12,12,12,1,2,6,1,6,,,,,,,,,,,,,,,,,,,,,,,,,,,,,,,,,,,,,,,,,
,,6547ad7f4510d0a39294fefd,65af56294abd09284145a17f,2024-01-23_08h03.27.357,bars,2023.2.3,Win32,40,657b66ea316d21385b68909f,,,,,,,,,,,,,,,,,,,,,,,,,,,,,,,,,,,,,,,,,,238.6596,239.8616,left,1.1756,,239.8617,1,1,240.8635,0,13,13,13,1,0,4,1,3,,,,,,,,,,,,,,,,,,,,,,,,,,,,,,,,,,,,,,,,,
,,6547ad7f4510d0a39294fefd,65af56294abd09284145a17f,2024-01-23_08h03.27.357,bars,2023.2.3,Win32,40,657b66ea316d21385b68909f,,,,,,,,,,,,,,,,,,,,,,,,,,,,,,,,,,,,,,,,,,240.8644,241.6904,right,0.8031,,241.6906,7,2,242.692,0,14,14,14,1,2,6,2,7,,,,,,,,,,,,,,,,,,,,,,,,,,,,,,,,,,,,,,,,,
,,6547ad7f4510d0a39294fefd,65af56294abd09284145a17f,2024-01-23_08h03.27.357,bars,2023.2.3,Win32,40,657b66ea316d21385b68909f,,,,,,,,,,,,,,,,,,,,,,,,,,,,,,,,,,,,,,,,,,242.693,243.8949,right,1.1808,,243.8951,9,2,244.8962,0,15,15,15,1,4,8,3,9,,,,,,,,,,,,,,,,,,,,,,,,,,,,,,,,,,,,,,,,,
,,6547ad7f4510d0a39294fefd,65af56294abd09284145a17f,2024-01-23_08h03.27.357,bars,2023.2.3,Win32,40,657b66ea316d21385b68909f,,,,,,,,,,,,,,,,,,,,,,,,,,,,,,,,,,,,,,,,,,244.8971,246.2994,right,1.3789,,246.2996,7,2,247.3013,0,16,16,16,1,6,6,7,7,,,,,,,,,,,,,,,,,,,,,,,,,,,,,,,,,,,,,,,,,
,,6547ad7f4510d0a39294fefd,65af56294abd09284145a17f,2024-01-23_08h03.27.357,bars,2023.2.3,Win32,40,657b66ea316d21385b68909f,,,,,,,,,,,,,,,,,,,,,,,,,,,,,,,,,,,,,,,,,,247.3259,249.0302,right,1.6854,,249.0303,5,2,250.032,0,17,17,17,1,8,4,9,5,,,,,,,,,,,,,,,,,,,,,,,,,,,,,,,,,,,,,,,,,
,,6547ad7f4510d0a39294fefd,65af56294abd09284145a17f,2024-01-23_08h03.27.357,bars,2023.2.3,Win32,40,657b66ea316d21385b68909f,,,,,,,,,,,,,,,,,,,,,,,,,,,,,,,,,,,,,,,,,,250.0329,251.0346,left,0.9809,,251.0347,5,1,252.0361,0,18,18,18,1,6,2,5,1,,,,,,,,,,,,,,,,,,,,,,,,,,,,,,,,,,,,,,,,,
,,6547ad7f4510d0a39294fefd,65af56294abd09284145a17f,2024-01-23_08h03.27.357,bars,2023.2.3,Win32,40,657b66ea316d21385b68909f,,,,,,,,,,,,,,,,,,,,,,,,,,,,,,,,,,,,,,,,,,252.0371,252.888,left,0.8411,,252.8881,7,1,253.8894,0,19,19,19,1,8,0,7,0,,,,,,,,,,,,,,,,,,,,,,,,,,,,,,,,,,,,,,,,,
,,6547ad7f4510d0a39294fefd,65af56294abd09284145a17f,2024-01-23_08h03.27.357,bars,2023.2.3,Win32,40,657b66ea316d21385b68909f,,,,,,,,,,,,,,,,,,,,,,,,,,,,,,,,,,,,,,,,,,,,,,,,,,,,,,,,,,,,253.8911,265.6644,space,11.7412,,,,,,,,,,,,,,,,,,,,,,,,,,,,,,,,,,,,,
,,6547ad7f4510d0a39294fefd,65af56294abd09284145a17f,2024-01-23_08h03.27.357,bars,2023.2.3,Win32,40,657b66ea316d21385b68909f,,,,,,,,,,,267.3528,268.3444,,,268.8457,269.0955,,178,-2,,,,,,,,,,,,,,,,bars/021.png,bars/mask007.png,,,,,,,,,,,,0,1,,,,,,,2,4,2,5,,,,,,265.6902,267.3418,space,1.6287,,268.3449,268.8454,269.0961,277.8149,space,8.6887,,277.8156,23,72,278.8168,278.8179,287.0324,space,8.1636,,0,0,0,0,1,155,70,,,,,,,,
,,6547ad7f4510d0a39294fefd,65af56294abd09284145a17f,2024-01-23_08h03.27.357,bars,2023.2.3,Win32,40,657b66ea316d21385b68909f,,,,,,,,,,,287.0582,288.0334,,,288.5339,288.7843,,173,173,,,,,,,,,,,,,,,,bars/024.png,bars/mask006.png,,,,,,,,,,,,6,2,,,,,,,4,6,4,7,,,,,,,,,,,288.0334,288.5339,288.7844,292.6689,space,3.8732,,292.6693,53,3,293.6688,293.6689,296.8247,space,3.0978,,0,1,1,1,1,120,170,,,,,,,,
,,6547ad7f4510d0a39294fefd,65af56294abd09284145a17f,2024-01-23_08h03.27.357,bars,2023.2.3,Win32,40,657b66ea316d21385b68909f,,,,,,,,,,,296.8251,297.8269,,,298.3282,298.5791,,18,18,,,,,,,,,,,,,,,,bars/003.png,bars/mask000.png,,,,,,,,,,,,4,1,,,,,,,6,8,5,8,,,,,,,,,,,297.8269,298.328,298.5793,302.2364,space,3.6419,,302.2366,7,58,303.2379,303.2381,306.2945,space,3.0127,,0,2,2,2,1,25,140,,,,,,,,
,,6547ad7f4510d0a39294fefd,65af56294abd09284145a17f,2024-01-23_08h03.27.357,bars,2023.2.3,Win32,40,657b66ea316d21385b68909f,,,,,,,,,,,306.2953,307.2966,,,307.797,308.0479,,171,171,,,,,,,,,,,,,,,,bars/032.png,bars/mask003.png,,,,,,,,,,,,0,2,,,,,,,4,6,2,7,,,,,,,,,,,307.2967,307.7969,308.0481,310.5278,space,2.4562,,310.528,46,29,311.5299,311.53,313.6095,space,2.029,,0,3,3,3,1,125,20,,,,,,,,
,,6547ad7f4510d0a39294fefd,65af56294abd09284145a17f,2024-01-23_08h03.27.357,bars,2023.2.3,Win32,40,657b66ea316d21385b68909f,,,,,,,,,,,313.6102,314.6112,,,315.1116,315.3632,,123,123,,,,,,,,,,,,,,,,bars/031.png,bars/mask008.png,,,,,,,,,,,,5,1,,,,,,,6,4,6,4,,,,,,,,,,,314.6112,315.1115,315.3633,319.045,space,3.6615,,319.0451,3,88,320.0462,320.0464,322.5024,space,2.4108,,0,4,4,4,1,120,35,,,,,,,,
,,6547ad7f4510d0a39294fefd,65af56294abd09284145a17f,2024-01-23_08h03.27.357,bars,2023.2.3,Win32,40,657b66ea316d21385b68909f,,,,,,,,,,,322.5034,323.5034,,,324.0045,324.2545,,18,198,,,,,,,,,,,,,,,,bars/009.png,bars/mask003.png,,,,,,,,,,,,8,1,,,,,,,8,2,9,3,,,,,,,,,,,323.5036,324.0043,324.2547,327.5625,space,3.2977,,327.5627,3,87,328.5633,328.5634,330.8434,space,2.2426,,0,5,5,5,1,15,105,,,,,,,,
,,6547ad7f4510d0a39294fefd,65af56294abd09284145a17f,2024-01-23_08h03.27.357,bars,2023.2.3,Win32,40,657b66ea316d21385b68909f,,,,,,,,,,,330.8442,331.8451,,,332.346,332.5962,,160,160,,,,,,,,,,,,,,,,bars/049.png,bars/mask006.png,,,,,,,,,,,,7,1,,,,,,,6,0,7,0,,,,,,,,,,,331.8452,332.3459,332.5964,336.4304,space,3.8147,,336.4305,0,45,337.4315,337.4316,340.3121,space,2.8299,,0,6,6,6,1,160,115,,,,,,,,
,,6547ad7f4510d0a39294fefd,65af56294abd09284145a17f,2024-01-23_08h03.27.357,bars,2023.2.3,Win32,40,657b66ea316d21385b68909f,,,,,,,,,,,340.3126,341.3139,,,341.8163,342.066,,35,35,,,,,,,,,,,,,,,,bars/047.png,bars/mask005.png,,,,,,,,,,,,1,1,,,,,,,4,2,4,2,,,,,,,,,,,341.3141,341.8161,342.0661,347.1011,space,5.0112,,347.1012,20,35,348.1028,348.1028,350.0567,space,1.9067,,0,7,7,7,1,15,70,,,,,,,,
,,6547ad7f4510d0a39294fefd,65af56294abd09284145a17f,2024-01-23_08h03.27.357,bars,2023.2.3,Win32,40,657b66ea316d21385b68909f,,,,,,,,,,,350.0575,351.0586,,,351.5595,351.8101,,148,-32,,,,,,,,,,,,,,,,bars/016.png,bars/mask003.png,,,,,,,,,,,,2,2,,,,,,,2,4,2,5,,,,,,,,,,,351.0588,351.5595,351.8102,358.0481,space,6.22,,358.0484,72,17,359.0496,359.0497,360.6792,space,1.5846,,0,8,8,8,1,40,165,,,,,,,,
,,6547ad7f4510d0a39294fefd,65af56294abd09284145a17f,2024-01-23_08h03.27.357,bars,2023.2.3,Win32,40,657b66ea316d21385b68909f,,,,,,,,,,,360.6804,361.6797,,,362.1811,362.4319,,1,1,,,,,,,,,,,,,,,,bars/019.png,bars/mask005.png,,,,,,,,,,,,0,1,,,,,,,4,2,5,2,,,,,,,,,,,361.6798,362.181,362.432,368.0684,space,5.6124,,368.0684,44,76,369.071,369.0712,373.0785,space,3.9595,,0,9,9,9,1,45,105,,,,,,,,
,,6547ad7f4510d0a39294fefd,65af56294abd09284145a17f,2024-01-23_08h03.27.357,bars,2023.2.3,Win32,40,657b66ea316d21385b68909f,,,,,,,,,,,373.1012,374.0794,,,374.5813,374.8312,,36,216,,,,,,,,,,,,,,,,bars/025.png,bars/mask001.png,,,,,,,,,,,,3,2,,,,,,,6,4,9,4,,,,,,,,,,,374.0795,374.5811,374.8313,378.8647,space,4.0159,,378.865,69,4,379.866,379.8662,381.5951,space,1.6744,,0,10,10,10,1,105,40,,,,,,,,
,,6547ad7f4510d0a39294fefd,65af56294abd09284145a17f,2024-01-23_08h03.27.357,bars,2023.2.3,Win32,40,657b66ea316d21385b68909f,,,,,,,,,,,381.5957,382.5972,,,383.0974,383.349,,18,18,,,,,,,,,,,,,,,,bars/014.png,bars/mask004.png,,,,,,,,,,,,0,2,,,,,,,8,2,8,0,,,,,,,,,,,382.5973,383.0974,383.3491,388.8595,space,5.4836,,388.8596,62,18,389.8612,389.8613,391.3405,space,1.4407,,0,11,11,11,1,80,0,,,,,,,,
,,6547ad7f4510d0a39294fefd,65af56294abd09284145a17f,2024-01-23_08h03.27.357,bars,2023.2.3,Win32,40,657b66ea316d21385b68909f,,,,,,,,,,,391.3417,392.3406,,,392.8421,393.0929,,150,150,,,,,,,,,,,,,,,,bars/031.png,bars/mask003.png,,,,,,,,,,,,0,1,,,,,,,10,4,10,4,,,,,,,,,,,392.3408,392.8421,393.0931,396.4498,space,3.3343,,396.4501,30,65,397.4518,397.4519,398.83,space,1.337,,0,12,12,12,1,120,35,,,,,,,,
,,6547ad7f4510d0a39294fefd,65af56294abd09284145a17f,2024-01-23_08h03.27.357,bars,2023.2.3,Win32,40,657b66ea316d21385b68909f,,,,,,,,,,,398.8309,399.8307,,,400.3325,400.5827,,22,202,,,,,,,,,,,,,,,,bars/001.png,bars/mask002.png,,,,,,,,,,,,0,2,,,,,,,8,2,8,1,,,,,,,,,,,399.8309,400.3325,400.5828,403.0129,space,2.4057,,403.0131,72,63,404.0151,404.0152,406.8709,space,2.8035,,0,13,13,13,1,130,85,,,,,,,,
,,6547ad7f4510d0a39294fefd,65af56294abd09284145a17f,2024-01-23_08h03.27.357,bars,2023.2.3,Win32,40,657b66ea316d21385b68909f,,,,,,,,,,,406.8718,407.8721,,,408.3742,408.6235,,46,226,,,,,,,,,,,,,,,,bars/030.png,bars/mask003.png,,,,,,,,,,,,1,2,,,,,,,10,4,10,4,,,,,,,,,,,407.8722,408.3741,408.6235,411.5804,space,2.9417,,411.5806,86,19,412.5816,412.5817,414.1106,space,1.4884,,0,14,14,14,1,140,65,,,,,,,,
,,6547ad7f4510d0a39294fefd,65af56294abd09284145a17f,2024-01-23_08h03.27.357,bars,2023.2.3,Win32,40,657b66ea316d21385b68909f,,,,,,,,,,,414.1114,415.1116,,,415.6129,415.864,,118,118,,,,,,,,,,,,,,,,bars/028.png,bars/mask007.png,,,,,,,,,,,,5,2,,,,,,,8,6,6,5,,,,,,,,,,,415.1117,415.6127,415.864,417.9684,space,2.0856,,417.9685,73,2,418.97,418.9701,421.4496,space,2.4336,,0,15,15,15,1,45,120,,,,,,,,
,,6547ad7f4510d0a39294fefd,65af56294abd09284145a17f,2024-01-23_08h03.27.357,bars,2023.2.3,Win32,40,657b66ea316d21385b68909f,,,,,,,,,,,421.4505,422.4513,,,422.9523,423.2034,,135,135,,,,,,,,,,,,,,,,bars/022.png,bars/mask009.png,,,,,,,,,,,,0,1,,,,,,,6,8,6,6,,,,,,,,,,,422.4514,422.9521,423.2035,426.8109,space,3.5845,,426.8111,40,65,427.8126,427.8127,429.2156,space,1.3586,,0,16,16,16,1,95,20,,,,,,,,
,,6547ad7f4510d0a39294fefd,65af56294abd09284145a17f,2024-01-23_08h03.27.357,bars,2023.2.3,Win32,40,657b66ea316d21385b68909f,,,,,,,,,,,429.2162,430.2166,,,430.7184,430.9687,,60,60,,,,,,,,,,,,,,,,bars/016.png,bars/mask002.png,,,,,,,,,,,,1,1,,,,,,,4,6,4,6,,,,,,,,,,,430.2167,430.7183,430.9688,434.5014,space,3.5219,,434.5015,20,75,435.5023,435.5025,436.9808,space,1.4348,,0,17,17,17,1,40,165,,,,,,,,
,,6547ad7f4510d0a39294fefd,65af56294abd09284145a17f,2024-01-23_08h03.27.357,bars,2023.2.3,Win32,40,657b66ea316d21385b68909f,,,,,,,,,,,436.9817,437.9827,,,438.4834,438.7342,,9,189,,,,,,,,,,,,,,,,bars/002.png,bars/mask000.png,,,,,,,,,,,,0,1,,,,,,,2,4,2,5,,,,,,,,,,,437.9828,438.4834,438.7344,442.5666,space,3.8166,,442.5666,59,76,443.5692,443.5692,445.1479,space,1.5461,,0,18,18,18,1,130,85,,,,,,,,
,,6547ad7f4510d0a39294fefd,65af56294abd09284145a17f,2024-01-23_08h03.27.357,bars,2023.2.3,Win32,40,657b66ea316d21385b68909f,,,,,,,,,,,445.1483,446.1492,,,446.6499,446.9007,,105,105,,,,,,,,,,,,,,,,bars/018.png,bars/mask005.png,,,,,,,,,,,,2,2,,,,,,,0,2,0,3,,,,,,,,,,,446.1494,446.6497,446.9007,449.7061,space,2.7782,,449.7062,45,15,450.7078,450.7079,452.1864,space,1.4304,,0,19,19,19,1,150,90,,,,,,,,
,,6547ad7f4510d0a39294fefd,65af56294abd09284145a17f,2024-01-23_08h03.27.357,bars,2023.2.3,Win32,40,657b66ea316d21385b68909f,,,,,,,,,,,452.1873,453.1883,,,453.6888,453.939,,140,140,,,,,,,,,,,,,,,,bars/016.png,bars/mask008.png,,,,,,,,,,,,0,2,,,,,,,2,0,0,1,,,,,,,,,,,453.1884,453.6888,453.9391,459.8015,space,5.8396,,459.8017,80,25,460.8047,460.8049,462.0807,space,1.2246,,0,20,20,20,1,40,165,,,,,,,,
,,6547ad7f4510d0a39294fefd,65af56294abd09284145a17f,2024-01-23_08h03.27.357,bars,2023.2.3,Win32,40,657b66ea316d21385b68909f,,,,,,,,,,,462.0813,463.0824,,,463.5838,463.8344,,2,182,,,,,,,,,,,,,,,,bars/027.png,bars/mask006.png,,,,,,,,,,,,0,2,,,,,,,4,2,7,2,,,,,,,,,,,463.0824,463.5838,463.8346,468.4441,space,4.5824,,468.4445,72,48,469.4455,469.4456,470.7239,space,1.2423,,0,21,21,21,1,110,50,,,,,,,,
,,6547ad7f4510d0a39294fefd,65af56294abd09284145a17f,2024-01-23_08h03.27.357,bars,2023.2.3,Win32,40,657b66ea316d21385b68909f,,,,,,,,,,,470.7248,471.7255,,,472.2267,472.4769,,56,56,,,,,,,,,,,,,,,,bars/046.png,bars/mask008.png,,,,,,,,,,,,0,2,,,,,,,2,0,1,0,,,,,,,,,,,471.7256,472.2266,472.4769,474.8813,space,2.3873,,474.8817,81,29,475.883,475.8832,477.0621,space,1.1271,,0,22,22,22,1,155,85,,,,,,,,
,,6547ad7f4510d0a39294fefd,65af56294abd09284145a17f,2024-01-23_08h03.27.357,bars,2023.2.3,Win32,40,657b66ea316d21385b68909f,,,,,,,,,,,477.063,478.0625,,,478.5637,478.8154,,8,188,,,,,,,,,,,,,,,,bars/036.png,bars/mask006.png,,,,,,,,,,,,2,2,,,,,,,0,0,0,3,,,,,,,,,,,478.0625,478.5637,478.8156,483.4739,space,4.6398,,483.4743,43,12,484.4747,484.4748,485.8537,space,1.3551,,0,23,23,23,1,145,20,,,,,,,,
,,6547ad7f4510d0a39294fefd,65af56294abd09284145a17f,2024-01-23_08h03.27.357,bars,2023.2.3,Win32,40,657b66ea316d21385b68909f,,,,,,,,,,,485.8545,486.8554,,,487.3562,487.6072,,158,158,,,,,,,,,,,,,,,,bars/014.png,bars/mask008.png,,,,,,,,,,,,1,2,,,,,,,2,2,2,2,,,,,,,,,,,486.8555,487.356,487.6073,490.8382,space,3.2099,,490.8385,78,22,491.8405,491.8406,493.3187,space,1.4463,,0,24,24,24,1,80,0,,,,,,,,
,,6547ad7f4510d0a39294fefd,65af56294abd09284145a17f,2024-01-23_08h03.27.357,bars,2023.2.3,Win32,40,657b66ea316d21385b68909f,,,,,,,,,,,493.3197,494.3205,,,494.8216,495.0718,,60,240,,,,,,,,,,,,,,,,bars/013.png,bars/mask001.png,,,,,,,,,,,,1,1,,,,,,,4,0,2,0,,,,,,,,,,,494.3206,494.8214,495.0719,500.208,space,5.1216,,500.2082,15,50,501.2088,501.2089,502.6632,space,1.4088,,0,25,25,25,1,75,10,,,,,,,,
,,6547ad7f4510d0a39294fefd,65af56294abd09284145a17f,2024-01-23_08h03.27.357,bars,2023.2.3,Win32,40,657b66ea316d21385b68909f,,,,,,,,,,,502.6646,503.6635,,,504.1647,504.4155,,19,19,,,,,,,,,,,,,,,,bars/029.png,bars/mask008.png,,,,,,,,,,,,0,2,,,,,,,2,2,2,2,,,,,,,,,,,503.6638,504.1647,504.4155,506.921,space,2.4831,,506.9213,71,26,507.9224,507.9225,509.2007,space,1.2153,,0,26,26,26,1,90,45,,,,,,,,
,,6547ad7f4510d0a39294fefd,65af56294abd09284145a17f,2024-01-23_08h03.27.357,bars,2023.2.3,Win32,40,657b66ea316d21385b68909f,,,,,,,,,,,509.2017,510.2019,,,510.7031,510.9534,,5,5,,,,,,,,,,,,,,,,bars/025.png,bars/mask003.png,,,,,,,,,,,,0,2,,,,,,,0,4,0,6,,,,,,,,,,,510.202,510.703,510.9535,514.4416,space,3.4782,,514.4416,80,35,515.4366,515.4367,516.8655,space,1.3817,,0,27,27,27,1,105,40,,,,,,,,
,,6547ad7f4510d0a39294fefd,65af56294abd09284145a17f,2024-01-23_08h03.27.357,bars,2023.2.3,Win32,40,657b66ea316d21385b68909f,,,,,,,,,,,516.8663,517.8673,,,518.3681,518.6183,,136,136,,,,,,,,,,,,,,,,bars/009.png,bars/mask006.png,,,,,,,,,,,,0,2,,,,,,,2,2,1,3,,,,,,,,,,,517.8674,518.368,518.6183,521.8001,space,3.1598,,521.8001,59,31,522.8025,522.8027,523.9298,space,1.0781,,0,28,28,28,1,15,105,,,,,,,,
,,6547ad7f4510d0a39294fefd,65af56294abd09284145a17f,2024-01-23_08h03.27.357,bars,2023.2.3,Win32,40,657b66ea316d21385b68909f,,,,,,,,,,,523.9306,524.9311,,,525.4321,525.6824,,93,93,,,,,,,,,,,,,,,,bars/007.png,bars/mask001.png,,,,,,,,,,,,0,2,,,,,,,0,0,0,1,,,,,,,,,,,524.9312,525.432,525.6824,530.2422,space,4.5421,,530.2423,82,38,531.2436,531.2438,532.196,space,0.9147,,0,29,29,29,1,175,55,,,,,,,,
,,6547ad7f4510d0a39294fefd,65af56294abd09284145a17f,2024-01-23_08h03.27.357,bars,2023.2.3,Win32,40,657b66ea316d21385b68909f,,,,,,,,,,,532.1965,533.1974,,,533.6983,533.949,,2,182,,,,,,,,,,,,,,,,bars/033.png,bars/mask002.png,,,,,,,,,,,,1,1,,,,,,,2,2,3,1,,,,,,,,,,,533.1976,533.6982,533.9491,537.4065,space,3.4357,,537.4066,23,27,538.4079,538.408,539.6113,space,1.1413,,0,30,30,30,1,25,155,,,,,,,,
,,6547ad7f4510d0a39294fefd,65af56294abd09284145a17f,2024-01-23_08h03.27.357,bars,2023.2.3,Win32,40,657b66ea316d21385b68909f,,,,,,,,,,,539.612,540.6126,,,541.1134,541.3647,,136,136,,,,,,,,,,,,,,,,bars/000.png,bars/mask004.png,,,,,,,,,,,,0,2,,,,,,,0,0,0,0,,,,,,,,,,,540.6127,541.1133,541.3648,544.721,space,3.3342,,544.7212,84,9,545.7226,545.7227,547.7023,space,1.9307,,0,31,31,31,1,40,145,,,,,,,,
,,6547ad7f4510d0a39294fefd,65af56294abd09284145a17f,2024-01-23_08h03.27.357,bars,2023.2.3,Win32,40,657b66ea316d21385b68909f,,,,,,,,,,,547.7031,548.7046,,,549.2119,549.4552,,55,55,,,,,,,,,,,,,,,,bars/003.png,bars/mask008.png,,,,,,,,,,,,0,1,,,,,,,0,0,1,0,,,,,,,,,,,548.7047,549.2118,549.4552,553.6136,space,4.1409,,553.6136,30,85,554.6165,554.6165,555.8436,space,1.1759,,0,32,32,32,1,25,140,,,,,,,,
,,6547ad7f4510d0a39294fefd,65af56294abd09284145a17f,2024-01-23_08h03.27.357,bars,2023.2.3,Win32,40,657b66ea316d21385b68909f,,,,,,,,,,,555.8443,556.8463,,,557.3467,557.5963,,9,9,,,,,,,,,,,,,,,,bars/012.png,bars/mask005.png,,,,,,,,,,,,2,2,,,,,,,2,0,1,2,,,,,,,,,,,556.8464,557.3466,557.5964,560.8536,space,3.2331,,560.8537,81,6,561.8557,561.8558,563.433,space,1.5293,,0,33,33,33,1,90,15,,,,,,,,
,,6547ad7f4510d0a39294fefd,65af56294abd09284145a17f,2024-01-23_08h03.27.357,bars,2023.2.3,Win32,40,657b66ea316d21385b68909f,,,,,,,,,,,563.4335,564.4355,,,564.9369,565.1873,,45,45,,,,,,,,,,,,,,,,bars/044.png,bars/mask007.png,,,,,,,,,,,,0,1,,,,,,,0,0,0,0,,,,,,,,,,,564.4355,564.9368,565.1873,569.4704,space,4.2595,,569.4705,30,70,570.4729,570.473,572.2776,space,1.7487,,0,34,34,34,1,75,155,,,,,,,,
,,6547ad7f4510d0a39294fefd,65af56294abd09284145a17f,2024-01-23_08h03.27.357,bars,2023.2.3,Win32,40,657b66ea316d21385b68909f,,,,,,,,,,,572.2785,573.2778,,,573.7797,574.0296,,116,116,,,,,,,,,,,,,,,,bars/002.png,bars/mask000.png,,,,,,,,,,,,1,1,,,,,,,2,2,2,2,,,,,,,,,,,573.2778,573.7795,574.0297,578.4481,space,4.4091,,578.4482,14,31,579.4402,579.4403,580.695,space,1.2167,,0,35,35,35,1,130,85,,,,,,,,
,,6547ad7f4510d0a39294fefd,65af56294abd09284145a17f,2024-01-23_08h03.27.357,bars,2023.2.3,Win32,40,657b66ea316d21385b68909f,,,,,,,,,,,580.6958,581.6955,,,582.1959,582.4471,,116,116,,,,,,,,,,,,,,,,bars/037.png,bars/mask006.png,,,,,,,,,,,,0,2,,,,,,,0,0,0,0,,,,,,,,,,,581.6956,582.1958,582.4471,585.5774,space,3.108,,585.5775,34,11,586.5792,586.5794,587.8322,space,1.2014,,0,36,36,36,1,150,105,,,,,,,,
,,6547ad7f4510d0a39294fefd,65af56294abd09284145a17f,2024-01-23_08h03.27.357,bars,2023.2.3,Win32,40,657b66ea316d21385b68909f,,,,,,,,,,,587.833,588.8339,,,589.3351,589.5852,,157,157,,,,,,,,,,,,,,,,bars/032.png,bars/mask007.png,,,,,,,,,,,,0,1,,,,,,,0,0,0,0,,,,,,,,,,,588.834,589.335,589.5852,595.172,space,5.5629,,595.1723,32,43,596.1734,596.1735,597.1758,space,0.9546,,0,37,37,37,1,125,20,,,,,,,,
,,6547ad7f4510d0a39294fefd,65af56294abd09284145a17f,2024-01-23_08h03.27.357,bars,2023.2.3,Win32,40,657b66ea316d21385b68909f,,,,,,,,,,,597.1762,598.1776,,,598.6785,598.9291,,153,153,,,,,,,,,,,,,,,,bars/023.png,bars/mask007.png,,,,,,,,,,,,0,2,,,,,,,0,0,0,0,,,,,,,,,,,598.1778,598.6785,598.9292,601.6098,space,2.6592,,601.61,47,38,602.6123,602.6124,603.6143,space,0.9408,,0,38,38,38,1,20,115,,,,,,,,
,,6547ad7f4510d0a39294fefd,65af56294abd09284145a17f,2024-01-23_08h03.27.357,bars,2023.2.3,Win32,40,657b66ea316d21385b68909f,,,,,,,,,,,603.615,604.6165,,,605.1171,605.3674,,31,31,,,,,,,,,,,,,,,,bars/008.png,bars/mask004.png,,,,,,,,,,,,0,2,,,,,,,0,2,0,3,,,,,,,,,,,604.6165,605.117,605.3674,610.0013,space,4.6104,,610.0014,79,31,611.0027,611.0027,611.9803,space,0.9413,,0,39,39,39,1,110,0,,,,,,,,
,,6547ad7f4510d0a39294fefd,65af56294abd09284145a17f,2024-01-23_08h03.27.357,bars,2023.2.3,Win32,40,657b66ea316d21385b68909f,,,,,,,,,,,611.9811,612.9822,,,613.4828,613.7343,,30,30,,,,,,,,,,,,,,,,bars/042.png,bars/mask009.png,,,,,,,,,,,,0,2,,,,,,,2,0,1,1,,,,,,,,,,,612.9822,613.4828,613.7344,616.54,space,2.7819,,616.54,65,45,617.5411,617.5412,618.7443,space,1.1586,,0,40,40,40,1,145,75,,,,,,,,
,,6547ad7f4510d0a39294fefd,65af56294abd09284145a17f,2024-01-23_08h03.27.357,bars,2023.2.3,Win32,40,657b66ea316d21385b68909f,,,,,,,,,,,618.7451,619.7466,,,620.2467,620.4976,,10,190,,,,,,,,,,,,,,,,bars/034.png,bars/mask007.png,,,,,,,,,,,,0,2,,,,,,,4,2,5,3,,,,,,,,,,,619.7467,620.2465,620.4977,624.5337,space,4.0296,,624.5339,65,55,625.5329,625.533,626.8606,space,1.2857,,0,41,41,41,1,125,65,,,,,,,,
,,6547ad7f4510d0a39294fefd,65af56294abd09284145a17f,2024-01-23_08h03.27.357,bars,2023.2.3,Win32,40,657b66ea316d21385b68909f,,,,,,,,,,,626.8614,627.8632,,,628.3636,628.6134,,13,193,,,,,,,,,,,,,,,,bars/040.png,bars/mask005.png,,,,,,,,,,,,4,2,,,,,,,2,4,2,5,,,,,,,,,,,627.8632,628.3635,628.6134,634.25,space,5.6128,,634.2502,53,8,635.2517,635.2518,636.3296,space,1.0392,,0,42,42,42,1,140,5,,,,,,,,
,,6547ad7f4510d0a39294fefd,65af56294abd09284145a17f,2024-01-23_08h03.27.357,bars,2023.2.3,Win32,40,657b66ea316d21385b68909f,,,,,,,,,,,636.3304,637.3315,,,637.8323,638.0827,,13,193,,,,,,,,,,,,,,,,bars/014.png,bars/mask006.png,,,,,,,,,,,,1,2,,,,,,,4,2,3,2,,,,,,,,,,,637.3318,637.8322,638.0827,641.5149,space,3.4192,,641.515,67,13,642.5169,642.517,643.7186,space,1.1526,,0,43,43,43,1,80,0,,,,,,,,
,,6547ad7f4510d0a39294fefd,65af56294abd09284145a17f,2024-01-23_08h03.27.357,bars,2023.2.3,Win32,40,657b66ea316d21385b68909f,,,,,,,,,,,643.7191,644.7211,,,645.223,645.4729,,6,6,,,,,,,,,,,,,,,,bars/043.png,bars/mask007.png,,,,,,,,,,,,0,1,,,,,,,2,0,1,0,,,,,,,,,,,644.7211,645.2229,645.473,648.304,space,2.8068,,648.3042,24,56,649.3053,649.3053,650.3079,space,0.9581,,0,44,44,44,1,30,130,,,,,,,,
,,6547ad7f4510d0a39294fefd,65af56294abd09284145a17f,2024-01-23_08h03.27.357,bars,2023.2.3,Win32,40,657b66ea316d21385b68909f,,,,,,,,,,,650.3085,651.3095,,,651.8099,652.061,,134,134,,,,,,,,,,,,,,,,bars/020.png,bars/mask006.png,,,,,,,,,,,,0,1,,,,,,,0,2,0,2,,,,,,,,,,,651.3097,651.8099,652.0611,655.268,space,3.1979,,655.2681,19,36,656.2696,656.2697,657.2958,space,0.9783,,0,45,45,45,1,115,170,,,,,,,,
,,6547ad7f4510d0a39294fefd,65af56294abd09284145a17f,2024-01-23_08h03.27.357,bars,2023.2.3,Win32,40,657b66ea316d21385b68909f,,,,,,,,,,,657.2962,658.2977,,,658.7991,659.0499,,15,195,,,,,,,,,,,,,,,,bars/011.png,bars/mask009.png,,,,,,,,,,,,0,1,,,,,,,2,0,2,0,,,,,,,,,,,658.2977,658.799,659.0499,663.2329,space,4.1597,,663.233,35,70,664.2347,664.2349,665.2889,space,1.0017,,0,46,46,46,1,160,85,,,,,,,,
,,6547ad7f4510d0a39294fefd,65af56294abd09284145a17f,2024-01-23_08h03.27.357,bars,2023.2.3,Win32,40,657b66ea316d21385b68909f,,,,,,,,,,,665.2904,666.2886,,,666.7901,667.04,,109,109,,,,,,,,,,,,,,,,bars/001.png,bars/mask008.png,,,,,,,,,,,,1,1,,,,,,,4,2,3,2,,,,,,,,,,,666.2886,666.79,667.0401,669.8217,space,2.7619,,669.8217,21,24,670.8227,670.8228,671.9018,space,1.0293,,0,47,47,47,1,130,85,,,,,,,,
,,6547ad7f4510d0a39294fefd,65af56294abd09284145a17f,2024-01-23_08h03.27.357,bars,2023.2.3,Win32,40,657b66ea316d21385b68909f,,,,,,,,,,,671.9028,672.902,,,673.4029,673.6542,,122,122,,,,,,,,,,,,,,,,bars/028.png,bars/mask004.png,,,,,,,,,,,,2,2,,,,,,,6,0,5,2,,,,,,,,,,,672.9022,673.4028,673.6543,679.6407,space,5.9748,,679.6407,77,2,680.6427,680.6427,681.8705,space,1.1702,,0,48,48,48,1,45,120,,,,,,,,
,,6547ad7f4510d0a39294fefd,65af56294abd09284145a17f,2024-01-23_08h03.27.357,bars,2023.2.3,Win32,40,657b66ea316d21385b68909f,,,,,,,,,,,681.871,682.8727,,,683.3736,683.6235,,86,86,,,,,,,,,,,,,,,,bars/043.png,bars/mask006.png,,,,,,,,,,,,0,2,,,,,,,4,0,4,1,,,,,,,,,,,682.8728,683.3736,683.6237,687.6322,space,3.9879,,687.6324,56,44,688.6334,688.6336,689.6363,space,0.968,,0,49,49,49,1,30,130,,,,,,,,
,,6547ad7f4510d0a39294fefd,65af56294abd09284145a17f,2024-01-23_08h03.27.357,bars,2023.2.3,Win32,40,657b66ea316d21385b68909f,,,,,,,,,,,,,,,,,,,,,,,,,,,,,,,,,,,,,,,,,,,,,,,,,,,,,,,,,,,,,,,,,,,,,,,,,,,,,,,,,,,,,,,,,,,,,689.6383,749.6323,0,0,0,0,1,sequence_tables/blk040.csv
,,6547ad7f4510d0a39294fefd,65af56294abd09284145a17f,2024-01-23_08h03.27.357,bars,2023.2.3,Win32,40,657b66ea316d21385b68909f,,,,,,,,,,,769.0826,770.048,,,770.5473,770.7981,,16,196,,,,,,,,,,,,,,,,bars/007.png,bars/mask002.png,,,,,,,,,,,,0,1,,,,,,,2,9,1,9,,,,,,749.6523,769.045,space,19.3798,,770.0482,770.5472,770.7982,774.9063,space,4.0953,,774.9065,21,39,775.9077,775.9078,775.9303,,,,0,0,0,0,1,175,55,,,,,,,,
,,6547ad7f4510d0a39294fefd,65af56294abd09284145a17f,2024-01-23_08h03.27.357,bars,2023.2.3,Win32,40,657b66ea316d21385b68909f,,,,,,,,,,,775.9306,776.9195,,,777.4109,777.6622,,154,154,,,,,,,,,,,,,,,,bars/043.png,bars/mask004.png,,,,,,,,,,,,1,2,,,,,,,4,7,7,6,,,,,,,,,,,776.9197,777.4107,777.6624,781.5458,space,3.8746,,781.546,56,24,782.5464,782.5465,782.5745,,,,0,1,1,1,1,30,130,,,,,,,,
,,6547ad7f4510d0a39294fefd,65af56294abd09284145a17f,2024-01-23_08h03.27.357,bars,2023.2.3,Win32,40,657b66ea316d21385b68909f,,,,,,,,,,,782.5755,783.5736,,,784.0756,784.3257,,172,-8,,,,,,,,,,,,,,,,bars/032.png,bars/mask002.png,,,,,,,,,,,,1,2,,,,,,,6,9,6,8,,,,,,,,,,,783.5737,784.0755,784.3258,788.2588,space,3.9143,,788.2592,47,28,789.2598,789.2599,789.2797,,,,0,2,2,2,1,125,20,,,,,,,,
,,6547ad7f4510d0a39294fefd,65af56294abd09284145a17f,2024-01-23_08h03.27.357,bars,2023.2.3,Win32,40,657b66ea316d21385b68909f,,,,,,,,,,,789.2799,790.2627,,,790.7635,791.0138,,23,23,,,,,,,,,,,,,,,,bars/039.png,bars/mask004.png,,,,,,,,,,,,0,1,,,,,,,8,7,6,8,,,,,,,,,,,790.2628,790.7635,791.0139,795.2473,space,4.2179,,795.2474,28,82,796.249,796.2491,796.2728,,,,0,3,3,3,1,175,105,,,,,,,,
,,6547ad7f4510d0a39294fefd,65af56294abd09284145a17f,2024-01-23_08h03.27.357,bars,2023.2.3,Win32,40,657b66ea316d21385b68909f,,,,,,,,,,,796.2733,797.2765,,,797.7778,798.0278,,84,84,,,,,,,,,,,,,,,,bars/004.png,bars/mask000.png,,,,,,,,,,,,0,2,,,,,,,6,9,5,9,,,,,,,,,,,797.2766,797.7778,798.0279,802.4616,space,4.4098,,802.4616,59,41,803.4637,803.4638,803.4912,,,,0,4,4,4,1,25,125,,,,,,,,
,,6547ad7f4510d0a39294fefd,65af56294abd09284145a17f,2024-01-23_08h03.27.357,bars,2023.2.3,Win32,40,657b66ea316d21385b68909f,,,,,,,,,,,803.492,804.4905,,,804.9914,805.2425,,72,72,,,,,,,,,,,,,,,,bars/025.png,bars/mask004.png,,,,,,,,,,,,0,2,,,,,,,8,7,8,8,,,,,,,,,,,804.4905,804.9914,805.2427,808.925,space,3.6653,,808.925,33,32,809.927,809.9272,809.9479,,,,0,5,5,5,1,105,40,,,,,,,,
,,6547ad7f4510d0a39294fefd,65af56294abd09284145a17f,2024-01-23_08h03.27.357,bars,2023.2.3,Win32,40,657b66ea316d21385b68909f,,,,,,,,,,,809.9481,810.9538,,,811.4546,811.7063,,165,-15,,,,,,,,,,,,,,,,bars/019.png,bars/mask000.png,,,,,,,,,,,,0,2,,,,,,,6,5,6,7,,,,,,,,,,,810.9539,811.4545,811.7064,814.4609,space,2.7309,,814.461,60,60,815.4621,815.4623,815.4864,,,,0,6,6,6,1,45,105,,,,,,,,
,,6547ad7f4510d0a39294fefd,65af56294abd09284145a17f,2024-01-23_08h03.27.357,bars,2023.2.3,Win32,40,657b66ea316d21385b68909f,,,,,,,,,,,815.4871,816.4898,,,816.9907,817.243,,40,40,,,,,,,,,,,,,,,,bars/043.png,bars/mask007.png,,,,,,,,,,,,1,1,,,,,,,4,7,2,6,,,,,,,,,,,816.4899,816.9906,817.2432,820.1224,space,2.8577,,820.1225,10,90,821.1239,821.124,821.1404,,,,0,7,7,7,1,30,130,,,,,,,,
,,6547ad7f4510d0a39294fefd,65af56294abd09284145a17f,2024-01-23_08h03.27.357,bars,2023.2.3,Win32,40,657b66ea316d21385b68909f,,,,,,,,,,,821.1408,822.1256,,,822.6273,822.8789,,130,-50,,,,,,,,,,,,,,,,bars/038.png,bars/mask008.png,,,,,,,,,,,,0,1,,,,,,,2,9,2,8,,,,,,,,,,,822.1256,822.6272,822.8791,826.9608,space,4.0615,,826.9609,35,60,827.9629,827.963,827.9863,,,,0,8,8,8,1,165,70,,,,,,,,
,,6547ad7f4510d0a39294fefd,65af56294abd09284145a17f,2024-01-23_08h03.27.357,bars,2023.2.3,Win32,40,657b66ea316d21385b68909f,,,,,,,,,,,827.9868,828.9897,,,829.4911,829.7413,,121,121,,,,,,,,,,,,,,,,bars/028.png,bars/mask009.png,,,,,,,,,,,,10,2,,,,,,,0,10,1,10,,,,,,,,,,,828.9898,829.491,829.7413,833.5235,space,3.7704,,833.5236,76,1,834.527,834.5271,834.5507,,,,0,9,9,9,1,45,120,,,,,,,,
,,6547ad7f4510d0a39294fefd,65af56294abd09284145a17f,2024-01-23_08h03.27.357,bars,2023.2.3,Win32,40,657b66ea316d21385b68909f,,,,,,,,,,,834.5513,835.5527,,,836.0536,836.3047,,175,175,,,,,,,,,,,,,,,,bars/009.png,bars/mask001.png,,,,,,,,,,,,1,1,,,,,,,2,8,3,7,,,,,,,,,,,835.5527,836.0536,836.3049,839.1854,space,2.8631,,839.1855,20,70,840.187,840.187,840.2137,,,,0,10,10,10,1,15,105,,,,,,,,
,,6547ad7f4510d0a39294fefd,65af56294abd09284145a17f,2024-01-23_08h03.27.357,bars,2023.2.3,Win32,40,657b66ea316d21385b68909f,,,,,,,,,,,840.2151,841.2139,,,841.715,841.9657,,102,102,,,,,,,,,,,,,,,,bars/004.png,bars/mask006.png,,,,,,,,,,,,2,2,,,,,,,0,10,0,10,,,,,,,,,,,841.214,841.7149,841.9657,846.0497,space,4.0607,,846.0498,77,23,847.0508,847.0509,847.0769,,,,0,11,11,11,1,25,125,,,,,,,,
,,6547ad7f4510d0a39294fefd,65af56294abd09284145a17f,2024-01-23_08h03.27.357,bars,2023.2.3,Win32,40,657b66ea316d21385b68909f,,,,,,,,,,,847.0776,848.0779,,,848.5795,848.8299,,125,125,,,,,,,,,,,,,,,,bars/003.png,bars/mask004.png,,,,,,,,,,,,3,2,,,,,,,2,8,2,6,,,,,,,,,,,848.078,848.5795,848.8299,852.9133,space,4.0647,,852.9133,80,15,853.9148,853.9149,853.9437,,,,0,12,12,12,1,25,140,,,,,,,,
,,6547ad7f4510d0a39294fefd,65af56294abd09284145a17f,2024-01-23_08h03.27.357,bars,2023.2.3,Win32,40,657b66ea316d21385b68909f,,,,,,,,,,,853.9446,854.9413,,,855.4426,855.6927,,10,190,,,,,,,,,,,,,,,,bars/016.png,bars/mask000.png,,,,,,,,,,,,1,2,,,,,,,4,10,5,9,,,,,,,,,,,854.9413,855.4425,855.6928,858.049,space,2.3305,,858.0491,30,25,859.0501,859.0502,859.0521,,,,0,13,13,13,1,40,165,,,,,,,,
,,6547ad7f4510d0a39294fefd,65af56294abd09284145a17f,2024-01-23_08h03.27.357,bars,2023.2.3,Win32,40,657b66ea316d21385b68909f,,,,,,,,,,,859.0529,860.052,,,860.554,860.8042,,64,64,,,,,,,,,,,,,,,,bars/041.png,bars/mask001.png,,,,,,,,,,,,3,2,,,,,,,2,10,2,10,,,,,,,,,,,860.0522,860.5539,860.8043,864.7623,space,3.9409,,864.7624,44,21,865.7637,865.7637,865.7876,,,,0,14,14,14,1,20,85,,,,,,,,
,,6547ad7f4510d0a39294fefd,65af56294abd09284145a17f,2024-01-23_08h03.27.357,bars,2023.2.3,Win32,40,657b66ea316d21385b68909f,,,,,,,,,,,865.7887,866.7903,,,867.2912,867.5422,,162,-18,,,,,,,,,,,,,,,,bars/030.png,bars/mask007.png,,,,,,,,,,,,0,1,,,,,,,0,10,0,10,,,,,,,,,,,866.7904,867.291,867.5423,871.1748,space,3.6077,,871.175,22,83,872.1768,872.1769,872.1995,,,,0,15,15,15,1,140,65,,,,,,,,
,,6547ad7f4510d0a39294fefd,65af56294abd09284145a17f,2024-01-23_08h03.27.357,bars,2023.2.3,Win32,40,657b66ea316d21385b68909f,,,,,,,,,,,872.1999,873.2031,,,873.7046,873.9551,,114,114,,,,,,,,,,,,,,,,bars/004.png,bars/mask006.png,,,,,,,,,,,,6,2,,,,,,,2,10,2,10,,,,,,,,,,,873.2032,873.7044,873.9552,877.0857,space,3.1164,,877.086,89,11,878.0881,878.0881,878.106,,,,0,16,16,16,1,25,125,,,,,,,,
,,6547ad7f4510d0a39294fefd,65af56294abd09284145a17f,2024-01-23_08h03.27.357,bars,2023.2.3,Win32,40,657b66ea316d21385b68909f,,,,,,,,,,,878.1063,879.09,,,879.5915,879.8419,,149,149,,,,,,,,,,,,,,,,bars/030.png,bars/mask004.png,,,,,,,,,,,,0,1,,,,,,,0,10,0,8,,,,,,,,,,,879.0901,879.5915,879.8421,883.1984,space,3.3333,,883.1985,9,84,884.2,884.2,884.2256,,,,0,17,17,17,1,140,65,,,,,,,,
,,6547ad7f4510d0a39294fefd,65af56294abd09284145a17f,2024-01-23_08h03.27.357,bars,2023.2.3,Win32,40,657b66ea316d21385b68909f,,,,,,,,,,,884.226,885.2274,,,885.7281,885.9794,,163,-17,,,,,,,,,,,,,,,,bars/013.png,bars/mask008.png,,,,,,,,,,,,1,2,,,,,,,2,10,2,10,,,,,,,,,,,885.2275,885.728,885.9794,890.5882,space,4.5855,,890.5884,88,27,891.5905,891.5905,891.6112,,,,0,18,18,18,1,75,10,,,,,,,,
,,6547ad7f4510d0a39294fefd,65af56294abd09284145a17f,2024-01-23_08h03.27.357,bars,2023.2.3,Win32,40,657b66ea316d21385b68909f,,,,,,,,,,,891.6115,892.6166,,,893.1191,893.3683,,151,151,,,,,,,,,,,,,,,,bars/018.png,bars/mask001.png,,,,,,,,,,,,1,1,,,,,,,0,10,1,10,,,,,,,,,,,892.6167,893.119,893.3684,897.627,space,4.2325,,897.6271,1,61,898.629,898.6291,898.6549,,,,0,19,19,19,1,150,90,,,,,,,,
,,6547ad7f4510d0a39294fefd,65af56294abd09284145a17f,2024-01-23_08h03.27.357,bars,2023.2.3,Win32,40,657b66ea316d21385b68909f,,,,,,,,,,,898.6556,899.6567,,,900.1569,900.4076,,82,82,,,,,,,,,,,,,,,,bars/045.png,bars/mask009.png,,,,,,,,,,,,0,1,,,,,,,2,10,1,8,,,,,,,,,,,899.6568,900.1569,900.4077,903.6399,space,3.2074,,903.6399,18,72,904.6404,904.6404,904.6526,,,,0,20,20,20,1,100,10,,,,,,,,
,,6547ad7f4510d0a39294fefd,65af56294abd09284145a17f,2024-01-23_08h03.27.357,bars,2023.2.3,Win32,40,657b66ea316d21385b68909f,,,,,,,,,,,904.6529,905.6428,,,906.1438,906.3945,,120,120,,,,,,,,,,,,,,,,bars/043.png,bars/mask005.png,,,,,,,,,,,,5,2,,,,,,,4,8,3,8,,,,,,,,,,,905.6428,906.1437,906.3946,910.052,space,3.6374,,910.0521,90,10,911.0535,911.0536,911.0776,,,,0,21,21,21,1,30,130,,,,,,,,
,,6547ad7f4510d0a39294fefd,65af56294abd09284145a17f,2024-01-23_08h03.27.357,bars,2023.2.3,Win32,40,657b66ea316d21385b68909f,,,,,,,,,,,911.078,912.0809,,,912.5819,912.8331,,107,107,,,,,,,,,,,,,,,,bars/024.png,bars/mask003.png,,,,,,,,,,,,4,1,,,,,,,6,10,7,10,,,,,,,,,,,912.081,912.5818,912.8331,917.3166,space,4.462,,917.3168,13,63,918.3177,918.3178,918.3305,,,,0,22,22,22,1,120,170,,,,,,,,
,,6547ad7f4510d0a39294fefd,65af56294abd09284145a17f,2024-01-23_08h03.27.357,bars,2023.2.3,Win32,40,657b66ea316d21385b68909f,,,,,,,,,,,918.3307,919.32,,,919.8215,920.0716,,120,120,,,,,,,,,,,,,,,,bars/049.png,bars/mask003.png,,,,,,,,,,,,8,2,,,,,,,4,10,4,10,,,,,,,,,,,919.3201,919.8214,920.0717,923.2288,space,3.1456,,923.2289,40,5,924.2304,924.2305,924.2592,,,,0,23,23,23,1,160,115,,,,,,,,
,,6547ad7f4510d0a39294fefd,65af56294abd09284145a17f,2024-01-23_08h03.27.357,bars,2023.2.3,Win32,40,657b66ea316d21385b68909f,,,,,,,,,,,924.26,925.2591,,,925.7588,926.0088,,137,137,,,,,,,,,,,,,,,,bars/046.png,bars/mask008.png,,,,,,,,,,,,2,1,,,,,,,6,8,5,9,,,,,,,,,,,925.2591,925.7587,926.0088,930.1176,space,4.0849,,930.1177,18,52,931.1186,931.1187,931.1444,,,,0,24,24,24,1,155,85,,,,,,,,
,,6547ad7f4510d0a39294fefd,65af56294abd09284145a17f,2024-01-23_08h03.27.357,bars,2023.2.3,Win32,40,657b66ea316d21385b68909f,,,,,,,,,,,931.1451,932.1463,,,932.6472,932.8977,,156,156,,,,,,,,,,,,,,,,bars/021.png,bars/mask009.png,,,,,,,,,,,,4,1,,,,,,,4,6,4,7,,,,,,,,,,,932.1464,932.6471,932.8978,935.8538,space,2.9413,,935.854,1,86,936.8557,936.8558,936.8777,,,,0,25,25,25,1,155,70,,,,,,,,
,,6547ad7f4510d0a39294fefd,65af56294abd09284145a17f,2024-01-23_08h03.27.357,bars,2023.2.3,Win32,40,657b66ea316d21385b68909f,,,,,,,,,,,936.8779,937.8822,,,938.3831,938.6342,,122,122,,,,,,,,,,,,,,,,bars/034.png,bars/mask005.png,,,,,,,,,,,,1,1,,,,,,,2,8,1,8,,,,,,,,,,,937.8823,938.383,938.6344,941.766,space,3.1075,,941.7662,3,57,942.7678,942.7679,942.7887,,,,0,26,26,26,1,125,65,,,,,,,,
,,6547ad7f4510d0a39294fefd,65af56294abd09284145a17f,2024-01-23_08h03.27.357,bars,2023.2.3,Win32,40,657b66ea316d21385b68909f,,,,,,,,,,,942.789,943.795,,,944.2959,944.5463,,156,156,,,,,,,,,,,,,,,,bars/012.png,bars/mask008.png,,,,,,,,,,,,0,2,,,,,,,4,10,5,9,,,,,,,,,,,943.7952,944.2958,944.5464,946.8006,space,2.2308,,946.8007,66,39,947.8028,947.8028,947.8286,,,,0,27,27,27,1,90,15,,,,,,,,
,,6547ad7f4510d0a39294fefd,65af56294abd09284145a17f,2024-01-23_08h03.27.357,bars,2023.2.3,Win32,40,657b66ea316d21385b68909f,,,,,,,,,,,947.829,948.829,,,949.3306,949.5815,,177,-3,,,,,,,,,,,,,,,,bars/015.png,bars/mask009.png,,,,,,,,,,,,4,2,,,,,,,2,10,2,9,,,,,,,,,,,948.829,949.3306,949.5816,953.3135,space,3.7084,,953.3135,67,17,954.3154,954.3155,954.3371,,,,0,28,28,28,1,110,160,,,,,,,,
,,6547ad7f4510d0a39294fefd,65af56294abd09284145a17f,2024-01-23_08h03.27.357,bars,2023.2.3,Win32,40,657b66ea316d21385b68909f,,,,,,,,,,,954.3373,955.3423,,,955.8437,956.0938,,164,-16,,,,,,,,,,,,,,,,bars/015.png,bars/mask000.png,,,,,,,,,,,,7,2,,,,,,,0,8,0,8,,,,,,,,,,,955.3423,955.8436,956.0939,960.5298,space,4.4257,,960.5299,54,4,961.5294,961.5294,961.5415,,,,0,29,29,29,1,110,160,,,,,,,,
,,6547ad7f4510d0a39294fefd,65af56294abd09284145a17f,2024-01-23_08h03.27.357,bars,2023.2.3,Win32,40,657b66ea316d21385b68909f,,,,,,,,,,,961.5417,962.5326,,,963.0332,963.2832,,55,55,,,,,,,,,,,,,,,,bars/035.png,bars/mask000.png,,,,,,,,,,,,8,2,,,,,,,2,10,2,9,,,,,,,,,,,962.5327,963.0331,963.2832,967.7923,space,4.4847,,967.7924,60,5,968.7943,968.7944,968.8176,,,,0,30,30,30,1,175,60,,,,,,,,
,,6547ad7f4510d0a39294fefd,65af56294abd09284145a17f,2024-01-23_08h03.27.357,bars,2023.2.3,Win32,40,657b66ea316d21385b68909f,,,,,,,,,,,968.8181,969.8212,,,970.3228,970.5733,,32,32,,,,,,,,,,,,,,,,bars/019.png,bars/mask008.png,,,,,,,,,,,,0,1,,,,,,,0,8,0,8,,,,,,,,,,,969.8213,970.3226,970.5733,972.9531,space,2.3662,,972.9532,13,73,973.955,973.9551,973.9815,,,,0,31,31,31,1,45,105,,,,,,,,
,,6547ad7f4510d0a39294fefd,65af56294abd09284145a17f,2024-01-23_08h03.27.357,bars,2023.2.3,Win32,40,657b66ea316d21385b68909f,,,,,,,,,,,973.9825,974.9817,,,975.4825,975.7331,,79,79,,,,,,,,,,,,,,,,bars/048.png,bars/mask007.png,,,,,,,,,,,,0,1,,,,,,,0,6,0,5,,,,,,,,,,,974.9818,975.4824,975.7332,978.4644,space,2.7158,,978.4645,29,84,979.4655,979.4656,979.4887,,,,0,32,32,32,1,50,175,,,,,,,,
,,6547ad7f4510d0a39294fefd,65af56294abd09284145a17f,2024-01-23_08h03.27.357,bars,2023.2.3,Win32,40,657b66ea316d21385b68909f,,,,,,,,,,,979.4893,980.4932,,,980.994,981.2441,,70,70,,,,,,,,,,,,,,,,bars/016.png,bars/mask003.png,,,,,,,,,,,,0,1,,,,,,,0,4,1,4,,,,,,,,,,,980.4933,980.994,981.2442,984.3511,space,3.0867,,984.3512,30,85,985.3527,985.3527,985.3795,,,,0,33,33,33,1,40,165,,,,,,,,
,,6547ad7f4510d0a39294fefd,65af56294abd09284145a17f,2024-01-23_08h03.27.357,bars,2023.2.3,Win32,40,657b66ea316d21385b68909f,,,,,,,,,,,985.3806,986.3798,,,986.8809,987.1311,,151,151,,,,,,,,,,,,,,,,bars/027.png,bars/mask000.png,,,,,,,,,,,,0,1,,,,,,,0,6,1,6,,,,,,,,,,,986.3799,986.8808,987.1313,989.7622,space,2.6075,,989.7624,41,79,990.7635,990.7637,990.7864,,,,0,34,34,34,1,110,50,,,,,,,,
,,6547ad7f4510d0a39294fefd,65af56294abd09284145a17f,2024-01-23_08h03.27.357,bars,2023.2.3,Win32,40,657b66ea316d21385b68909f,,,,,,,,,,,990.7866,991.7904,,,992.2918,992.5419,,83,83,,,,,,,,,,,,,,,,bars/022.png,bars/mask003.png,,,,,,,,,,,,1,1,,,,,,,2,8,2,7,,,,,,,,,,,991.7904,992.2917,992.542,996.1744,space,3.6192,,996.1744,12,63,997.1764,997.1765,997.1995,,,,0,35,35,35,1,95,20,,,,,,,,
,,6547ad7f4510d0a39294fefd,65af56294abd09284145a17f,2024-01-23_08h03.27.357,bars,2023.2.3,Win32,40,657b66ea316d21385b68909f,,,,,,,,,,,997.1999,998.2037,,,998.7042,998.9554,,148,-32,,,,,,,,,,,,,,,,bars/012.png,bars/mask000.png,,,,,,,,,,,,0,2,,,,,,,4,6,4,6,,,,,,,,,,,998.2038,998.7042,998.9556,1002.0117,space,3.0433,,1002.0118,58,47,1003.0128,1003.0128,1003.0387,,,,0,36,36,36,1,90,15,,,,,,,,
,,6547ad7f4510d0a39294fefd,65af56294abd09284145a17f,2024-01-23_08h03.27.357,bars,2023.2.3,Win32,40,657b66ea316d21385b68909f,,,,,,,,,,,1003.0397,1004.0398,,,1004.5406,1004.7916,,154,154,,,,,,,,,,,,,,,,bars/035.png,bars/mask000.png,,,,,,,,,,,,2,1,,,,,,,6,8,6,8,,,,,,,,,,,1004.0399,1004.5405,1004.7917,1009.9524,space,5.1453,,1009.9525,21,86,1010.9533,1010.9534,1010.9772,,,,0,37,37,37,1,175,60,,,,,,,,
,,6547ad7f4510d0a39294fefd,65af56294abd09284145a17f,2024-01-23_08h03.27.357,bars,2023.2.3,Win32,40,657b66ea316d21385b68909f,,,,,,,,,,,1010.9774,1011.9812,,,1012.4815,1012.7325,,172,172,,,,,,,,,,,,,,,,bars/026.png,bars/mask007.png,,,,,,,,,,,,0,1,,,,,,,8,6,8,6,,,,,,,,,,,1011.9812,1012.4815,1012.7326,1016.3902,space,3.6335,,1016.3903,43,87,1017.3915,1017.3916,1017.4147,,,,0,38,38,38,1,35,85,,,,,,,,
,,6547ad7f4510d0a39294fefd,65af56294abd09284145a17f,2024-01-23_08h03.27.357,bars,2023.2.3,Win32,40,657b66ea316d21385b68909f,,,,,,,,,,,1017.4153,1018.4183,,,1018.92,1019.1701,,70,70,,,,,,,,,,,,,,,,bars/018.png,bars/mask004.png,,,,,,,,,,,,1,2,,,,,,,6,4,4,4,,,,,,,,,,,1018.4185,1018.9199,1019.1701,1021.626,space,2.4412,,1021.6261,80,20,1022.6268,1022.6268,1022.6489,,,,0,39,39,39,1,150,90,,,,,,,,
,,6547ad7f4510d0a39294fefd,65af56294abd09284145a17f,2024-01-23_08h03.27.357,bars,2023.2.3,Win32,40,657b66ea316d21385b68909f,,,,,,,,,,,1022.6492,1023.6548,,,1024.1553,1024.4053,,153,-27,,,,,,,,,,,,,,,,bars/008.png,bars/mask007.png,,,,,,,,,,,,0,2,,,,,,,4,6,5,5,,,,,,,,,,,1023.6548,1024.1552,1024.4054,1026.9361,space,2.5131,,1026.9363,43,27,1027.938,1027.9381,1027.9624,,,,0,40,40,40,1,110,0,,,,,,,,
,,6547ad7f4510d0a39294fefd,65af56294abd09284145a17f,2024-01-23_08h03.27.357,bars,2023.2.3,Win32,40,657b66ea316d21385b68909f,,,,,,,,,,,1027.9633,1028.9641,,,1029.4655,1029.7167,,110,110,,,,,,,,,,,,,,,,bars/019.png,bars/mask008.png,,,,,,,,,,,,7,2,,,,,,,6,8,8,8,,,,,,,,,,,1028.9642,1029.4654,1029.7168,1033.0234,space,3.2921,,1033.0236,65,5,1034.0244,1034.0244,1034.0469,,,,0,41,41,41,1,45,105,,,,,,,,
,,6547ad7f4510d0a39294fefd,65af56294abd09284145a17f,2024-01-23_08h03.27.357,bars,2023.2.3,Win32,40,657b66ea316d21385b68909f,,,,,,,,,,,1034.0472,1035.0513,,,1035.5536,1035.8032,,32,212,,,,,,,,,,,,,,,,bars/002.png,bars/mask003.png,,,,,,,,,,,,0,2,,,,,,,8,6,7,7,,,,,,,,,,,1035.0514,1035.5535,1035.8033,1038.86,space,3.0345,,1038.8601,82,53,1039.8611,1039.8612,1039.8846,,,,0,42,42,42,1,130,85,,,,,,,,
,,6547ad7f4510d0a39294fefd,65af56294abd09284145a17f,2024-01-23_08h03.27.357,bars,2023.2.3,Win32,40,657b66ea316d21385b68909f,,,,,,,,,,,1039.8853,1040.8888,,,1041.3894,1041.6402,,108,108,,,,,,,,,,,,,,,,bars/023.png,bars/mask008.png,,,,,,,,,,,,4,2,,,,,,,6,4,6,5,,,,,,,,,,,1040.8888,1041.3893,1041.6403,1045.0224,space,3.3577,,1045.0225,88,7,1046.0255,1046.0256,1046.0471,,,,0,43,43,43,1,20,115,,,,,,,,
,,6547ad7f4510d0a39294fefd,65af56294abd09284145a17f,2024-01-23_08h03.27.357,bars,2023.2.3,Win32,40,657b66ea316d21385b68909f,,,,,,,,,,,1046.0474,1047.0511,,,1047.5515,1047.8018,,66,66,,,,,,,,,,,,,,,,bars/037.png,bars/mask009.png,,,,,,,,,,,,0,2,,,,,,,4,2,5,2,,,,,,,,,,,1047.0512,1047.5514,1047.8019,1050.3078,space,2.4859,,1050.308,84,39,1051.3095,1051.3097,1051.3353,,,,0,44,44,44,1,150,105,,,,,,,,
,,6547ad7f4510d0a39294fefd,65af56294abd09284145a17f,2024-01-23_08h03.27.357,bars,2023.2.3,Win32,40,657b66ea316d21385b68909f,,,,,,,,,,,1051.3363,1052.3363,,,1052.839,1053.0892,,63,63,,,,,,,,,,,,,,,,bars/032.png,bars/mask001.png,,,,,,,,,,,,0,2,,,,,,,2,0,4,0,,,,,,,,,,,1052.3364,1052.8389,1053.0893,1056.2965,space,3.1834,,1056.2966,62,43,1057.2968,1057.297,1057.3205,,,,0,45,45,45,1,125,20,,,,,,,,
,,6547ad7f4510d0a39294fefd,65af56294abd09284145a17f,2024-01-23_08h03.27.357,bars,2023.2.3,Win32,40,657b66ea316d21385b68909f,,,,,,,,,,,1057.3215,1058.3234,,,1058.8244,1059.0752,,106,106,,,,,,,,,,,,,,,,bars/002.png,bars/mask002.png,,,,,,,,,,,,0,2,,,,,,,4,0,2,0,,,,,,,,,,,1058.3234,1058.8244,1059.0753,1064.0605,space,4.9607,,1064.0605,24,21,1065.0617,1065.0617,1065.0847,,,,0,46,46,46,1,130,85,,,,,,,,
,,6547ad7f4510d0a39294fefd,65af56294abd09284145a17f,2024-01-23_08h03.27.357,bars,2023.2.3,Win32,40,657b66ea316d21385b68909f,,,,,,,,,,,1065.0852,1066.0886,,,1066.5902,1066.84,,177,177,,,,,,,,,,,,,,,,bars/019.png,bars/mask000.png,,,,,,,,,,,,0,1,,,,,,,2,2,1,1,,,,,,,,,,,1066.0887,1066.5901,1066.84,1070.1225,space,3.262,,1070.1228,48,72,1071.1243,1071.1244,1071.1503,,,,0,47,47,47,1,45,105,,,,,,,,
,,6547ad7f4510d0a39294fefd,65af56294abd09284145a17f,2024-01-23_08h03.27.357,bars,2023.2.3,Win32,40,657b66ea316d21385b68909f,,,,,,,,,,,1071.1511,1072.1505,,,1072.6516,1072.9027,,49,49,,,,,,,,,,,,,,,,bars/009.png,bars/mask004.png,,,,,,,,,,,,0,1,,,,,,,4,0,4,0,,,,,,,,,,,1072.1506,1072.6516,1072.9029,1076.2602,space,3.3334,,1076.2603,34,56,1077.2617,1077.2619,1077.2811,,,,0,48,48,48,1,15,105,,,,,,,,
,,6547ad7f4510d0a39294fefd,65af56294abd09284145a17f,2024-01-23_08h03.27.357,bars,2023.2.3,Win32,40,657b66ea316d21385b68909f,,,,,,,,,,,1077.2813,1078.2631,,,1078.7647,1079.0154,,161,161,,,,,,,,,,,,,,,,bars/000.png,bars/mask008.png,,,,,,,,,,,,0,2,,,,,,,6,0,6,1,,,,,,,,,,,1078.2631,1078.7646,1079.0155,1085.2279,space,6.2027,,1085.228,59,16,1086.23,1086.2301,1086.2594,,,,0,49,49,49,1,40,145,,,,,,,,
,,6547ad7f4510d0a39294fefd,65af56294abd09284145a17f,2024-01-23_08h03.27.357,bars,2023.2.3,Win32,40,657b66ea316d21385b68909f,,,,,,,,,,,,,,,,,,,,,,,,,,,,,,,,,,,,,,,,,,,,,,,,,,,,,,,,,,,,,,,,,,,,,,,,,,,,,,,,,,,,,,,,,,,,,1086.2597,1146.2489,0,1,1,4,1,sequence_tables/blk030.csv
,,6547ad7f4510d0a39294fefd,65af56294abd09284145a17f,2024-01-23_08h03.27.357,bars,2023.2.3,Win32,40,657b66ea316d21385b68909f,,,,,,,,,,,1277.7408,1278.7132,,,1279.2155,1279.4659,,162,-18,,,,,,,,,,,,,,,,bars/012.png,bars/mask009.png,,,,,,,,,,,,0,2,,,,,,,3,3,2,3,,,,,,1146.274,1277.7126,space,131.4177,,1278.7135,1279.2154,1279.466,1284.4763,space,4.996,,1284.4765,72,33,1285.4769,1285.477,1285.4886,,,,0,0,0,0,1,90,15,,,,,,,,
,,6547ad7f4510d0a39294fefd,65af56294abd09284145a17f,2024-01-23_08h03.27.357,bars,2023.2.3,Win32,40,657b66ea316d21385b68909f,,,,,,,,,,,1285.4888,1286.4792,,,1286.9801,1287.2307,,140,140,,,,,,,,,,,,,,,,bars/018.png,bars/mask005.png,,,,,,,,,,,,1,1,,,,,,,1,1,1,2,,,,,,,,,,,1286.4794,1286.9798,1287.2308,1290.5386,space,3.2944,,1290.5388,10,50,1291.5393,1291.5395,1291.5659,,,,0,1,1,1,1,150,90,,,,,,,,
,,6547ad7f4510d0a39294fefd,65af56294abd09284145a17f,2024-01-23_08h03.27.357,bars,2023.2.3,Win32,40,657b66ea316d21385b68909f,,,,,,,,,,,1291.5662,1292.5686,,,1293.068,1293.3185,,165,-15,,,,,,,,,,,,,,,,bars/048.png,bars/mask004.png,,,,,,,,,,,,0,2,,,,,,,3,0,4,0,,,,,,,,,,,1292.5687,1293.068,1293.3186,1298.0276,space,4.6827,,1298.0278,65,10,1299.0291,1299.0292,1299.0556,,,,0,2,2,2,1,50,175,,,,,,,,
,,6547ad7f4510d0a39294fefd,65af56294abd09284145a17f,2024-01-23_08h03.27.357,bars,2023.2.3,Win32,40,657b66ea316d21385b68909f,,,,,,,,,,,1299.0563,1300.057,,,1300.5581,1300.8079,,34,34,,,,,,,,,,,,,,,,bars/014.png,bars/mask009.png,,,,,,,,,,,,0,2,,,,,,,1,2,0,4,,,,,,,,,,,1300.0571,1300.558,1300.808,1304.2657,space,3.4305,,1304.2658,46,34,1305.2674,1305.2676,1305.2925,,,,0,3,3,3,1,80,0,,,,,,,,
,,6547ad7f4510d0a39294fefd,65af56294abd09284145a17f,2024-01-23_08h03.27.357,bars,2023.2.3,Win32,40,657b66ea316d21385b68909f,,,,,,,,,,,1305.2931,1306.294,,,1306.795,1307.0459,,165,165,,,,,,,,,,,,,,,,bars/015.png,bars/mask002.png,,,,,,,,,,,,3,2,,,,,,,3,4,4,4,,,,,,,,,,,1306.294,1306.7949,1307.046,1342.2161,space,35.1523,,1342.2163,55,5,1343.2176,1343.2177,1343.2428,,,,0,4,4,4,1,110,160,,,,,,,,
,,6547ad7f4510d0a39294fefd,65af56294abd09284145a17f,2024-01-23_08h03.27.357,bars,2023.2.3,Win32,40,657b66ea316d21385b68909f,,,,,,,,,,,1343.2434,1344.2455,,,1344.7458,1344.9967,,9,9,,,,,,,,,,,,,,,,bars/025.png,bars/mask006.png,,,,,,,,,,,,0,2,,,,,,,1,6,2,6,,,,,,,,,,,1344.2456,1344.7457,1344.9969,1348.5541,space,3.5332,,1348.5541,84,31,1349.556,1349.5561,1349.5802,,,,0,5,5,5,1,105,40,,,,,,,,
,,6547ad7f4510d0a39294fefd,65af56294abd09284145a17f,2024-01-23_08h03.27.357,bars,2023.2.3,Win32,40,657b66ea316d21385b68909f,,,,,,,,,,,1349.5809,1350.5817,,,1351.084,1351.3339,,118,118,,,,,,,,,,,,,,,,bars/039.png,bars/mask007.png,,,,,,,,,,,,3,2,,,,,,,0,8,0,6,,,,,,,,,,,1350.5817,1351.084,1351.3339,1353.3884,space,2.0354,,1353.3887,57,13,1354.3898,1354.39,1354.4135,,,,0,6,6,6,1,175,105,,,,,,,,
,,6547ad7f4510d0a39294fefd,65af56294abd09284145a17f,2024-01-23_08h03.27.357,bars,2023.2.3,Win32,40,657b66ea316d21385b68909f,,,,,,,,,,,1354.414,1355.4175,,,1355.9178,1356.1685,,43,43,,,,,,,,,,,,,,,,bars/000.png,bars/mask001.png,,,,,,,,,,,,0,1,,,,,,,0,6,0,6,,,,,,,,,,,1355.4176,1355.9177,1356.1687,1358.8491,space,2.6554,,1358.8491,3,78,1359.8514,1359.8514,1359.8805,,,,0,7,7,7,1,40,145,,,,,,,,
,,6547ad7f4510d0a39294fefd,65af56294abd09284145a17f,2024-01-23_08h03.27.357,bars,2023.2.3,Win32,40,657b66ea316d21385b68909f,,,,,,,,,,,1359.8809,1360.8783,,,1361.3793,1361.6294,,160,-20,,,,,,,,,,,,,,,,bars/040.png,bars/mask003.png,,,,,,,,,,,,0,1,,,,,,,2,4,1,4,,,,,,,,,,,1360.8784,1361.3791,1361.6295,1365.8634,space,4.2188,,1365.8636,20,25,1366.8648,1366.8649,1366.8886,,,,0,8,8,8,1,140,5,,,,,,,,
,,6547ad7f4510d0a39294fefd,65af56294abd09284145a17f,2024-01-23_08h03.27.357,bars,2023.2.3,Win32,40,657b66ea316d21385b68909f,,,,,,,,,,,1366.8891,1367.8925,,,1368.3937,1368.6442,,121,121,,,,,,,,,,,,,,,,bars/030.png,bars/mask005.png,,,,,,,,,,,,1,1,,,,,,,4,6,3,6,,,,,,,,,,,1367.8926,1368.3936,1368.6443,1371.0241,space,2.3558,,1371.0242,19,56,1372.0255,1372.0255,1372.0494,,,,0,9,9,9,1,140,65,,,,,,,,
,,6547ad7f4510d0a39294fefd,65af56294abd09284145a17f,2024-01-23_08h03.27.357,bars,2023.2.3,Win32,40,657b66ea316d21385b68909f,,,,,,,,,,,1372.0502,1373.053,,,1373.5538,1373.8044,,6,6,,,,,,,,,,,,,,,,bars/022.png,bars/mask000.png,,,,,,,,,,,,5,2,,,,,,,6,8,7,9,,,,,,,,,,,1373.053,1373.5537,1373.8044,1376.5599,space,2.7451,,1376.5602,89,14,1377.5619,1377.5621,1377.5891,,,,0,10,10,10,1,95,20,,,,,,,,
,,6547ad7f4510d0a39294fefd,65af56294abd09284145a17f,2024-01-23_08h03.27.357,bars,2023.2.3,Win32,40,657b66ea316d21385b68909f,,,,,,,,,,,1377.59,1378.5886,,,1379.0896,1379.3406,,143,143,,,,,,,,,,,,,,,,bars/011.png,bars/mask005.png,,,,,,,,,,,,2,1,,,,,,,4,6,4,5,,,,,,,,,,,1378.5887,1379.0895,1379.3407,1381.9953,space,2.6384,,1381.9956,17,58,1382.9978,1382.9979,1383.0232,,,,0,11,11,11,1,160,85,,,,,,,,
,,6547ad7f4510d0a39294fefd,65af56294abd09284145a17f,2024-01-23_08h03.27.357,bars,2023.2.3,Win32,40,657b66ea316d21385b68909f,,,,,,,,,,,1383.0239,1384.0242,,,1384.526,1384.776,,74,74,,,,,,,,,,,,,,,,bars/029.png,bars/mask001.png,,,,,,,,,,,,1,1,,,,,,,2,8,2,9,,,,,,,,,,,1384.0244,1384.526,1384.7761,1388.3839,space,3.584,,1388.384,16,29,1389.3856,1389.3857,1389.412,,,,0,12,12,12,1,90,45,,,,,,,,
,,6547ad7f4510d0a39294fefd,65af56294abd09284145a17f,2024-01-23_08h03.27.357,bars,2023.2.3,Win32,40,657b66ea316d21385b68909f,,,,,,,,,,,1389.4127,1390.4127,,,1390.9131,1391.1636,,102,102,,,,,,,,,,,,,,,,bars/007.png,bars/mask000.png,,,,,,,,,,,,0,2,,,,,,,0,10,1,9,,,,,,,,,,,1390.4127,1390.913,1391.1637,1393.6441,space,2.4631,,1393.6441,73,47,1394.6456,1394.6458,1394.6734,,,,0,13,13,13,1,175,55,,,,,,,,
,,6547ad7f4510d0a39294fefd,65af56294abd09284145a17f,2024-01-23_08h03.27.357,bars,2023.2.3,Win32,40,657b66ea316d21385b68909f,,,,,,,,,,,1394.6741,1395.6724,,,1396.1745,1396.4235,,70,70,,,,,,,,,,,,,,,,bars/005.png,bars/mask001.png,,,,,,,,,,,,0,1,,,,,,,2,10,1,10,,,,,,,,,,,1395.6726,1396.1743,1396.4235,1399.8572,space,3.4203,,1399.8574,60,70,1400.8587,1400.8588,1400.889,,,,0,14,14,14,1,10,140,,,,,,,,
,,6547ad7f4510d0a39294fefd,65af56294abd09284145a17f,2024-01-23_08h03.27.357,bars,2023.2.3,Win32,40,657b66ea316d21385b68909f,,,,,,,,,,,1400.8894,1401.885,,,1402.3867,1402.6372,,12,192,,,,,,,,,,,,,,,,bars/025.png,bars/mask009.png,,,,,,,,,,,,1,2,,,,,,,0,8,0,8,,,,,,,,,,,1401.885,1402.3866,1402.6373,1405.7187,space,3.0617,,1405.7187,87,28,1406.7196,1406.7197,1406.7458,,,,0,15,15,15,1,105,40,,,,,,,,
,,6547ad7f4510d0a39294fefd,65af56294abd09284145a17f,2024-01-23_08h03.27.357,bars,2023.2.3,Win32,40,657b66ea316d21385b68909f,,,,,,,,,,,1406.7463,1407.7465,,,1408.2483,1408.498,,111,111,,,,,,,,,,,,,,,,bars/024.png,bars/mask005.png,,,,,,,,,,,,1,1,,,,,,,0,10,1,8,,,,,,,,,,,1407.7466,1408.2482,1408.4981,1411.0037,space,2.481,,1411.0037,9,59,1412.0057,1412.0058,1412.031,,,,0,16,16,16,1,120,170,,,,,,,,
,,6547ad7f4510d0a39294fefd,65af56294abd09284145a17f,2024-01-23_08h03.27.357,bars,2023.2.3,Win32,40,657b66ea316d21385b68909f,,,,,,,,,,,1412.0315,1413.0327,,,1413.5336,1413.7839,,177,177,,,,,,,,,,,,,,,,bars/040.png,bars/mask000.png,,,,,,,,,,,,7,2,,,,,,,0,10,0,9,,,,,,,,,,,1413.0328,1413.5335,1413.784,1416.6655,space,2.8629,,1416.6655,37,8,1417.6665,1417.6667,1417.6893,,,,0,17,17,17,1,140,5,,,,,,,,
,,6547ad7f4510d0a39294fefd,65af56294abd09284145a17f,2024-01-23_08h03.27.357,bars,2023.2.3,Win32,40,657b66ea316d21385b68909f,,,,,,,,,,,1417.6896,1418.6938,,,1419.1959,1419.4448,,27,27,,,,,,,,,,,,,,,,bars/018.png,bars/mask003.png,,,,,,,,,,,,0,1,,,,,,,2,10,2,10,,,,,,,,,,,1418.6939,1419.1958,1419.4449,1422.9782,space,3.5102,,1422.9783,57,63,1423.9796,1423.9797,1424.0053,,,,0,18,18,18,1,150,90,,,,,,,,
,,6547ad7f4510d0a39294fefd,65af56294abd09284145a17f,2024-01-23_08h03.27.357,bars,2023.2.3,Win32,40,657b66ea316d21385b68909f,,,,,,,,,,,1424.0058,1425.007,,,1425.5075,1425.7574,,125,125,,,,,,,,,,,,,,,,bars/027.png,bars/mask001.png,,,,,,,,,,,,3,1,,,,,,,4,8,5,8,,,,,,,,,,,1425.0072,1425.5071,1425.7576,1428.3637,space,2.5814,,1428.3642,15,75,1429.365,1429.3651,1429.3669,,,,0,19,19,19,1,110,50,,,,,,,,
,,6547ad7f4510d0a39294fefd,65af56294abd09284145a17f,2024-01-23_08h03.27.357,bars,2023.2.3,Win32,40,657b66ea316d21385b68909f,,,,,,,,,,,1429.3676,1430.3669,,,1430.868,1431.1185,,169,-11,,,,,,,,,,,,,,,,bars/042.png,bars/mask007.png,,,,,,,,,,,,1,1,,,,,,,6,10,7,10,,,,,,,,,,,1430.3669,1430.8679,1431.1185,1434.05,space,2.9069,,1434.0501,24,86,1435.0515,1435.0516,1435.0752,,,,0,20,20,20,1,145,75,,,,,,,,
,,6547ad7f4510d0a39294fefd,65af56294abd09284145a17f,2024-01-23_08h03.27.357,bars,2023.2.3,Win32,40,657b66ea316d21385b68909f,,,,,,,,,,,1435.0759,1436.079,,,1436.5793,1436.8297,,53,53,,,,,,,,,,,,,,,,bars/041.png,bars/mask000.png,,,,,,,,,,,,0,2,,,,,,,8,8,7,7,,,,,,,,,,,1436.0791,1436.5793,1436.8298,1439.7862,space,2.9337,,1439.7863,33,32,1440.788,1440.7882,1440.8136,,,,0,21,21,21,1,20,85,,,,,,,,
,,6547ad7f4510d0a39294fefd,65af56294abd09284145a17f,2024-01-23_08h03.27.357,bars,2023.2.3,Win32,40,657b66ea316d21385b68909f,,,,,,,,,,,1440.8145,1441.8158,,,1442.3165,1442.5664,,137,-43,,,,,,,,,,,,,,,,bars/012.png,bars/mask003.png,,,,,,,,,,,,0,1,,,,,,,6,10,6,10,,,,,,,,,,,1441.8159,1442.3164,1442.5665,1447.0254,space,4.4432,,1447.0255,47,58,1448.0272,1448.0273,1448.0492,,,,0,22,22,22,1,90,15,,,,,,,,
,,6547ad7f4510d0a39294fefd,65af56294abd09284145a17f,2024-01-23_08h03.27.357,bars,2023.2.3,Win32,40,657b66ea316d21385b68909f,,,,,,,,,,,1448.0495,1449.055,,,1449.5561,1449.806,,174,174,,,,,,,,,,,,,,,,bars/019.png,bars/mask006.png,,,,,,,,,,,,0,1,,,,,,,4,8,3,7,,,,,,,,,,,1449.0551,1449.5561,1449.806,1452.6122,space,2.7897,,1452.6123,51,69,1453.614,1453.6141,1453.6374,,,,0,23,23,23,1,45,105,,,,,,,,
,,6547ad7f4510d0a39294fefd,65af56294abd09284145a17f,2024-01-23_08h03.27.357,bars,2023.2.3,Win32,40,657b66ea316d21385b68909f,,,,,,,,,,,1453.6378,1454.6404,,,1455.1412,1455.3922,,131,131,,,,,,,,,,,,,,,,bars/035.png,bars/mask001.png,,,,,,,,,,,,0,1,,,,,,,6,10,6,10,,,,,,,,,,,1454.6404,1455.1411,1455.3923,1458.1228,space,2.706,,1458.123,44,71,1459.1242,1459.1243,1459.1467,,,,0,24,24,24,1,175,60,,,,,,,,
,,6547ad7f4510d0a39294fefd,65af56294abd09284145a17f,2024-01-23_08h03.27.357,bars,2023.2.3,Win32,40,657b66ea316d21385b68909f,,,,,,,,,,,1459.1468,1460.1514,,,1460.6534,1460.9034,,167,167,,,,,,,,,,,,,,,,bars/044.png,bars/mask009.png,,,,,,,,,,,,5,2,,,,,,,8,10,8,9,,,,,,,,,,,1460.1516,1460.6533,1460.9036,1464.3603,space,3.4305,,1464.3604,88,12,1465.3624,1465.3625,1465.3878,,,,0,25,25,25,1,75,155,,,,,,,,
,,6547ad7f4510d0a39294fefd,65af56294abd09284145a17f,2024-01-23_08h03.27.357,bars,2023.2.3,Win32,40,657b66ea316d21385b68909f,,,,,,,,,,,1465.3882,1466.3889,,,1466.89,1467.141,,142,142,,,,,,,,,,,,,,,,bars/024.png,bars/mask003.png,,,,,,,,,,,,3,1,,,,,,,10,8,10,8,,,,,,,,,,,1466.389,1466.8898,1467.1411,1471.95,space,4.7975,,1471.9502,22,28,1472.9521,1472.9521,1472.9773,,,,0,26,26,26,1,120,170,,,,,,,,
,,6547ad7f4510d0a39294fefd,65af56294abd09284145a17f,2024-01-23_08h03.27.357,bars,2023.2.3,Win32,40,657b66ea316d21385b68909f,,,,,,,,,,,1472.9776,1473.9792,,,1474.4806,1474.731,,58,58,,,,,,,,,,,,,,,,bars/031.png,bars/mask004.png,,,,,,,,,,,,2,2,,,,,,,10,10,10,10,,,,,,,,,,,1473.9793,1474.4805,1474.7311,1478.1132,space,3.3677,,1478.1133,62,23,1479.1168,1479.117,1479.1425,,,,0,27,27,27,1,120,35,,,,,,,,
,,6547ad7f4510d0a39294fefd,65af56294abd09284145a17f,2024-01-23_08h03.27.357,bars,2023.2.3,Win32,40,657b66ea316d21385b68909f,,,,,,,,,,,1479.1429,1480.1412,,,1480.6443,1480.8935,,91,91,,,,,,,,,,,,,,,,bars/042.png,bars/mask007.png,,,,,,,,,,,,5,2,,,,,,,8,10,8,10,,,,,,,,,,,1480.1413,1480.6442,1480.8936,1483.8499,space,2.9338,,1483.8502,54,16,1484.8506,1484.8508,1484.8745,,,,0,28,28,28,1,145,75,,,,,,,,
,,6547ad7f4510d0a39294fefd,65af56294abd09284145a17f,2024-01-23_08h03.27.357,bars,2023.2.3,Win32,40,657b66ea316d21385b68909f,,,,,,,,,,,1484.8751,1485.8799,,,1486.3788,1486.6296,,128,128,,,,,,,,,,,,,,,,bars/001.png,bars/mask005.png,,,,,,,,,,,,8,1,,,,,,,10,8,9,9,,,,,,,,,,,1485.88,1486.3786,1486.6296,1489.5605,space,2.9075,,1489.5606,2,43,1490.5626,1490.5626,1490.5877,,,,0,29,29,29,1,130,85,,,,,,,,
,,6547ad7f4510d0a39294fefd,65af56294abd09284145a17f,2024-01-23_08h03.27.357,bars,2023.2.3,Win32,40,657b66ea316d21385b68909f,,,,,,,,,,,1490.5883,1491.5901,,,1492.0903,1492.3411,,171,-9,,,,,,,,,,,,,,,,bars/023.png,bars/mask005.png,,,,,,,,,,,,0,1,,,,,,,8,10,7,10,,,,,,,,,,,1491.5902,1492.0902,1492.3411,1494.6715,space,2.3171,,1494.6716,29,56,1495.673,1495.6731,1495.6963,,,,0,30,30,30,1,20,115,,,,,,,,
,,6547ad7f4510d0a39294fefd,65af56294abd09284145a17f,2024-01-23_08h03.27.357,bars,2023.2.3,Win32,40,657b66ea316d21385b68909f,,,,,,,,,,,1495.6967,1496.7002,,,1497.201,1497.451,,164,164,,,,,,,,,,,,,,,,bars/022.png,bars/mask000.png,,,,,,,,,,,,0,2,,,,,,,6,10,5,10,,,,,,,,,,,1496.7003,1497.2008,1497.4511,1499.8063,space,2.3307,,1499.8064,69,36,1500.8076,1500.8077,1500.8334,,,,0,31,31,31,1,95,20,,,,,,,,
,,6547ad7f4510d0a39294fefd,65af56294abd09284145a17f,2024-01-23_08h03.27.357,bars,2023.2.3,Win32,40,657b66ea316d21385b68909f,,,,,,,,,,,1500.8339,1501.8354,,,1502.3365,1502.5864,,142,-38,,,,,,,,,,,,,,,,bars/049.png,bars/mask003.png,,,,,,,,,,,,0,1,,,,,,,4,10,1,9,,,,,,,,,,,1501.8355,1502.3364,1502.5867,1506.2697,space,3.6655,,1506.2698,18,27,1507.2706,1507.2707,1507.2955,,,,0,32,32,32,1,160,115,,,,,,,,
,,6547ad7f4510d0a39294fefd,65af56294abd09284145a17f,2024-01-23_08h03.27.357,bars,2023.2.3,Win32,40,657b66ea316d21385b68909f,,,,,,,,,,,1507.2961,1508.2976,,,1508.799,1509.0498,,51,51,,,,,,,,,,,,,,,,bars/012.png,bars/mask008.png,,,,,,,,,,,,0,2,,,,,,,2,8,2,8,,,,,,,,,,,1508.2977,1508.799,1509.0499,1511.4069,space,2.3474,,1511.407,39,36,1512.4066,1512.4066,1512.429,,,,0,33,33,33,1,90,15,,,,,,,,
,,6547ad7f4510d0a39294fefd,65af56294abd09284145a17f,2024-01-23_08h03.27.357,bars,2023.2.3,Win32,40,657b66ea316d21385b68909f,,,,,,,,,,,1512.4292,1513.4335,,,1513.9344,1514.1844,,93,93,,,,,,,,,,,,,,,,bars/026.png,bars/mask009.png,,,,,,,,,,,,6,2,,,,,,,4,6,5,8,,,,,,,,,,,1513.4336,1513.9343,1514.1845,1517.091,space,2.8819,,1517.0912,58,8,1518.0922,1518.0923,1518.1155,,,,0,34,34,34,1,35,85,,,,,,,,
,,6547ad7f4510d0a39294fefd,65af56294abd09284145a17f,2024-01-23_08h03.27.357,bars,2023.2.3,Win32,40,657b66ea316d21385b68909f,,,,,,,,,,,1518.116,1519.1192,,,1519.6211,1519.8711,,150,150,,,,,,,,,,,,,,,,bars/043.png,bars/mask007.png,,,,,,,,,,,,3,2,,,,,,,6,8,5,9,,,,,,,,,,,1519.1193,1519.621,1519.8712,1522.777,space,2.8827,,1522.7774,60,20,1523.7791,1523.7792,1523.8028,,,,0,35,35,35,1,30,130,,,,,,,,
,,6547ad7f4510d0a39294fefd,65af56294abd09284145a17f,2024-01-23_08h03.27.357,bars,2023.2.3,Win32,40,657b66ea316d21385b68909f,,,,,,,,,,,1523.8033,1524.8056,,,1525.3069,1525.5574,,148,-32,,,,,,,,,,,,,,,,bars/042.png,bars/mask006.png,,,,,,,,,,,,8,1,,,,,,,8,10,9,9,,,,,,,,,,,1524.8056,1525.3069,1525.5574,1528.9915,space,3.408,,1528.9916,3,73,1529.9912,1529.9912,1530.0174,,,,0,36,36,36,1,145,75,,,,,,,,
,,6547ad7f4510d0a39294fefd,65af56294abd09284145a17f,2024-01-23_08h03.27.357,bars,2023.2.3,Win32,40,657b66ea316d21385b68909f,,,,,,,,,,,1530.018,1531.0188,,,1531.5192,1531.7701,,136,136,,,,,,,,,,,,,,,,bars/003.png,bars/mask007.png,,,,,,,,,,,,8,2,,,,,,,10,8,9,9,,,,,,,,,,,1531.0189,1531.519,1531.7703,1533.9495,space,2.1554,,1533.9499,69,4,1534.951,1534.951,1534.9656,,,,0,37,37,37,1,25,140,,,,,,,,
,,6547ad7f4510d0a39294fefd,65af56294abd09284145a17f,2024-01-23_08h03.27.357,bars,2023.2.3,Win32,40,657b66ea316d21385b68909f,,,,,,,,,,,1534.966,1535.9537,,,1536.4547,1536.7053,,170,-10,,,,,,,,,,,,,,,,bars/026.png,bars/mask005.png,,,,,,,,,,,,0,1,,,,,,,10,10,10,10,,,,,,,,,,,1535.9537,1536.4546,1536.7054,1540.3629,space,3.6334,,1540.3631,45,85,1541.3635,1541.3637,1541.3893,,,,0,38,38,38,1,35,85,,,,,,,,
,,6547ad7f4510d0a39294fefd,65af56294abd09284145a17f,2024-01-23_08h03.27.357,bars,2023.2.3,Win32,40,657b66ea316d21385b68909f,,,,,,,,,,,1541.3898,1542.3909,,,1542.8925,1543.1424,,73,73,,,,,,,,,,,,,,,,bars/047.png,bars/mask009.png,,,,,,,,,,,,9,2,,,,,,,10,10,10,10,,,,,,,,,,,1542.3909,1542.8924,1543.1424,1546.5251,space,3.3581,,1546.5252,58,3,1547.5269,1547.527,1547.5525,,,,0,39,39,39,1,15,70,,,,,,,,
,,6547ad7f4510d0a39294fefd,65af56294abd09284145a17f,2024-01-23_08h03.27.357,bars,2023.2.3,Win32,40,657b66ea316d21385b68909f,,,,,,,,,,,1547.5531,1548.5534,,,1549.0545,1549.3048,,135,135,,,,,,,,,,,,,,,,bars/048.png,bars/mask001.png,,,,,,,,,,,,0,2,,,,,,,8,8,7,7,,,,,,,,,,,1548.5535,1549.0545,1549.3048,1554.3652,space,5.0474,,1554.3655,85,40,1555.3668,1555.3669,1555.3881,,,,0,40,40,40,1,50,175,,,,,,,,
,,6547ad7f4510d0a39294fefd,65af56294abd09284145a17f,2024-01-23_08h03.27.357,bars,2023.2.3,Win32,40,657b66ea316d21385b68909f,,,,,,,,,,,1555.3884,1556.3941,,,1556.8954,1557.1457,,31,31,,,,,,,,,,,,,,,,bars/000.png,bars/mask007.png,,,,,,,,,,,,7,1,,,,,,,10,6,10,7,,,,,,,,,,,1556.3941,1556.8953,1557.1458,1559.6759,space,2.5062,,1559.6762,9,66,1560.678,1560.6781,1560.7009,,,,0,41,41,41,1,40,145,,,,,,,,
,,6547ad7f4510d0a39294fefd,65af56294abd09284145a17f,2024-01-23_08h03.27.357,bars,2023.2.3,Win32,40,657b66ea316d21385b68909f,,,,,,,,,,,1560.7011,1561.7052,,,1562.2058,1562.456,,112,112,,,,,,,,,,,,,,,,bars/049.png,bars/mask006.png,,,,,,,,,,,,4,2,,,,,,,10,4,10,4,,,,,,,,,,,1561.7053,1562.2057,1562.4561,1564.9624,space,2.4939,,1564.9625,48,3,1565.963,1565.9631,1565.9889,,,,0,42,42,42,1,160,115,,,,,,,,
,,6547ad7f4510d0a39294fefd,65af56294abd09284145a17f,2024-01-23_08h03.27.357,bars,2023.2.3,Win32,40,657b66ea316d21385b68909f,,,,,,,,,,,1565.9895,1566.9906,,,1567.4912,1567.7412,,0,0,,,,,,,,,,,,,,,,bars/010.png,bars/mask008.png,,,,,,,,,,,,4,1,,,,,,,8,6,7,7,,,,,,,,,,,1566.9906,1567.491,1567.7412,1571.1993,space,3.4442,,1571.1994,15,55,1572.2005,1572.2006,1572.2267,,,,0,43,43,43,1,165,55,,,,,,,,
,,6547ad7f4510d0a39294fefd,65af56294abd09284145a17f,2024-01-23_08h03.27.357,bars,2023.2.3,Win32,40,657b66ea316d21385b68909f,,,,,,,,,,,1572.2272,1573.2277,,,1573.7288,1573.9789,,63,63,,,,,,,,,,,,,,,,bars/005.png,bars/mask004.png,,,,,,,,,,,,0,1,,,,,,,10,8,10,9,,,,,,,,,,,1573.2278,1573.7287,1573.9791,1576.7848,space,2.7818,,1576.7849,53,77,1577.7871,1577.7872,1577.8114,,,,0,44,44,44,1,10,140,,,,,,,,
,,6547ad7f4510d0a39294fefd,65af56294abd09284145a17f,2024-01-23_08h03.27.357,bars,2023.2.3,Win32,40,657b66ea316d21385b68909f,,,,,,,,,,,1577.812,1578.8143,,,1579.3148,1579.5654,,143,143,,,,,,,,,,,,,,,,bars/013.png,bars/mask001.png,,,,,,,,,,,,0,2,,,,,,,10,10,10,10,,,,,,,,,,,1578.8144,1579.3147,1579.5654,1582.347,space,2.756,,1582.3471,68,47,1583.348,1583.348,1583.3763,,,,0,45,45,45,1,75,10,,,,,,,,
,,6547ad7f4510d0a39294fefd,65af56294abd09284145a17f,2024-01-23_08h03.27.357,bars,2023.2.3,Win32,40,657b66ea316d21385b68909f,,,,,,,,,,,1583.3765,1584.3749,,,1584.8763,1585.1262,,56,56,,,,,,,,,,,,,,,,bars/004.png,bars/mask009.png,,,,,,,,,,,,0,1,,,,,,,8,8,7,8,,,,,,,,,,,1584.3749,1584.8763,1585.1264,1587.936,space,2.7991,,1587.936,31,69,1588.9345,1588.9346,1588.9606,,,,0,46,46,46,1,25,125,,,,,,,,
,,6547ad7f4510d0a39294fefd,65af56294abd09284145a17f,2024-01-23_08h03.27.357,bars,2023.2.3,Win32,40,657b66ea316d21385b68909f,,,,,,,,,,,1588.961,1589.9616,,,1590.4617,1590.7128,,123,123,,,,,,,,,,,,,,,,bars/022.png,bars/mask007.png,,,,,,,,,,,,1,1,,,,,,,10,10,10,10,,,,,,,,,,,1589.9617,1590.4616,1590.7128,1592.6668,space,1.9395,,1592.6669,28,77,1593.6693,1593.6694,1593.6714,,,,0,47,47,47,1,95,20,,,,,,,,
,,6547ad7f4510d0a39294fefd,65af56294abd09284145a17f,2024-01-23_08h03.27.357,bars,2023.2.3,Win32,40,657b66ea316d21385b68909f,,,,,,,,,,,1593.6722,1594.6703,,,1595.1718,1595.4222,,154,-26,,,,,,,,,,,,,,,,bars/008.png,bars/mask009.png,,,,,,,,,,,,1,2,,,,,,,8,8,8,8,,,,,,,,,,,1594.6704,1595.1717,1595.4223,1598.4784,space,3.031,,1598.4785,44,26,1599.48,1599.4802,1599.5067,,,,0,48,48,48,1,110,0,,,,,,,,
,,6547ad7f4510d0a39294fefd,65af56294abd09284145a17f,2024-01-23_08h03.27.357,bars,2023.2.3,Win32,40,657b66ea316d21385b68909f,,,,,,,,,,,1599.5075,1600.5077,,,1601.0082,1601.2586,,168,-12,,,,,,,,,,,,,,,,bars/008.png,bars/mask004.png,,,,,,,,,,,,4,2,,,,,,,10,6,10,6,,,,,,,,,,,1600.5079,1601.0081,1601.2587,1604.4403,space,3.1575,,1604.4403,58,12,1605.4426,1605.4426,1605.4602,,,,0,49,49,49,1,110,0,,,,,,,,
,,6547ad7f4510d0a39294fefd,65af56294abd09284145a17f,2024-01-23_08h03.27.357,bars,2023.2.3,Win32,40,657b66ea316d21385b68909f,,,,,,,,,,,,,,,,,,,,,,,,,,,,,,,,,,,,,,,,,,,,,,,,,,,,,,,,,,,,,,,,,,,,,,,,,,,,,,,,,,,,,,,,,,,,,1605.4603,1665.4623,0,2,2,1,1,sequence_tables/blk029.csv
,,6547ad7f4510d0a39294fefd,65af56294abd09284145a17f,2024-01-23_08h03.27.357,bars,2023.2.3,Win32,40,657b66ea316d21385b68909f,,,,,,,,,,,1693.846,1694.8214,,,1695.3226,1695.5723,,20,20,,,,,,,,,,,,,,,,bars/006.png,bars/mask003.png,,,,,,,,,,,,1,1,,,,,,,0,10,1,9,,,,,,1665.4893,1693.8194,space,28.3216,,1694.8215,1695.3223,1695.5723,1700.0563,space,4.4665,,1700.0564,15,80,1701.0588,1701.0589,1701.0854,,,,0,0,0,0,1,35,100,,,,,,,,
,,6547ad7f4510d0a39294fefd,65af56294abd09284145a17f,2024-01-23_08h03.27.357,bars,2023.2.3,Win32,40,657b66ea316d21385b68909f,,,,,,,,,,,1701.0863,1702.0858,,,1702.5871,1702.8373,,17,197,,,,,,,,,,,,,,,,bars/035.png,bars/mask006.png,,,,,,,,,,,,0,1,,,,,,,0,10,0,10,,,,,,,,,,,1702.0858,1702.587,1702.8374,1705.518,space,2.6583,,1705.518,22,43,1706.5198,1706.5199,1706.5463,,,,0,1,1,1,1,175,60,,,,,,,,
,,6547ad7f4510d0a39294fefd,65af56294abd09284145a17f,2024-01-23_08h03.27.357,bars,2023.2.3,Win32,40,657b66ea316d21385b68909f,,,,,,,,,,,1706.5469,1707.5468,,,1708.048,1708.2981,,15,15,,,,,,,,,,,,,,,,bars/008.png,bars/mask003.png,,,,,,,,,,,,5,2,,,,,,,0,10,0,10,,,,,,,,,,,1707.5469,1708.0479,1708.2982,1711.1033,space,2.7908,,1711.1037,85,15,1712.1059,1712.106,1712.1319,,,,0,2,2,2,1,110,0,,,,,,,,
,,6547ad7f4510d0a39294fefd,65af56294abd09284145a17f,2024-01-23_08h03.27.357,bars,2023.2.3,Win32,40,657b66ea316d21385b68909f,,,,,,,,,,,1712.1325,1713.1327,,,1713.6338,1713.8839,,132,132,,,,,,,,,,,,,,,,bars/000.png,bars/mask003.png,,,,,,,,,,,,5,2,,,,,,,0,8,0,9,,,,,,,,,,,1713.1327,1713.6338,1713.884,1716.4154,space,2.5077,,1716.4156,88,13,1717.4162,1717.4163,1717.4398,,,,0,3,3,3,1,40,145,,,,,,,,
,,6547ad7f4510d0a39294fefd,65af56294abd09284145a17f,2024-01-23_08h03.27.357,bars,2023.2.3,Win32,40,657b66ea316d21385b68909f,,,,,,,,,,,1717.4403,1718.4426,,,1718.944,1719.195,,161,161,,,,,,,,,,,,,,,,bars/043.png,bars/mask009.png,,,,,,,,,,,,0,2,,,,,,,2,10,3,10,,,,,,,,,,,1718.4426,1718.9439,1719.1952,1721.4994,space,2.2863,,1721.4995,49,31,1722.5012,1722.5012,1722.5173,,,,0,4,4,4,1,30,130,,,,,,,,
,,6547ad7f4510d0a39294fefd,65af56294abd09284145a17f,2024-01-23_08h03.27.357,bars,2023.2.3,Win32,40,657b66ea316d21385b68909f,,,,,,,,,,,1722.5177,1723.5033,,,1724.0042,1724.255,,162,162,,,,,,,,,,,,,,,,bars/004.png,bars/mask002.png,,,,,,,,,,,,0,2,,,,,,,0,10,0,10,,,,,,,,,,,1723.5033,1724.0041,1724.2552,1727.0859,space,2.8116,,1727.0861,43,37,1728.0872,1728.0873,1728.1111,,,,0,5,5,5,1,25,125,,,,,,,,
,,6547ad7f4510d0a39294fefd,65af56294abd09284145a17f,2024-01-23_08h03.27.357,bars,2023.2.3,Win32,40,657b66ea316d21385b68909f,,,,,,,,,,,1728.1116,1729.1149,,,1729.6163,1729.8662,,136,136,,,,,,,,,,,,,,,,bars/049.png,bars/mask006.png,,,,,,,,,,,,3,2,,,,,,,2,10,1,10,,,,,,,,,,,1729.1149,1729.6162,1729.8664,1731.6204,space,1.7297,,1731.6207,24,21,1732.6213,1732.6214,1732.645,,,,0,6,6,6,1,160,115,,,,,,,,
,,6547ad7f4510d0a39294fefd,65af56294abd09284145a17f,2024-01-23_08h03.27.357,bars,2023.2.3,Win32,40,657b66ea316d21385b68909f,,,,,,,,,,,1732.6453,1733.649,,,1734.1497,1734.3998,,164,164,,,,,,,,,,,,,,,,bars/007.png,bars/mask003.png,,,,,,,,,,,,0,1,,,,,,,0,10,0,9,,,,,,,,,,,1733.6491,1734.1496,1734.3999,1736.5299,space,2.1056,,1736.5302,11,71,1737.5311,1737.5312,1737.5363,,,,0,7,7,7,1,175,55,,,,,,,,
,,6547ad7f4510d0a39294fefd,65af56294abd09284145a17f,2024-01-23_08h03.27.357,bars,2023.2.3,Win32,40,657b66ea316d21385b68909f,,,,,,,,,,,1737.537,1738.534,,,1739.0345,1739.2852,,63,63,,,,,,,,,,,,,,,,bars/010.png,bars/mask007.png,,,,,,,,,,,,5,2,,,,,,,2,8,2,7,,,,,,,,,,,1738.5341,1739.0345,1739.2852,1742.9922,space,3.6832,,1742.9924,78,8,1743.9942,1743.9943,1744.0199,,,,0,8,8,8,1,165,55,,,,,,,,
,,6547ad7f4510d0a39294fefd,65af56294abd09284145a17f,2024-01-23_08h03.27.357,bars,2023.2.3,Win32,40,657b66ea316d21385b68909f,,,,,,,,,,,1744.0204,1745.0218,,,1745.5225,1745.7729,,64,64,,,,,,,,,,,,,,,,bars/029.png,bars/mask006.png,,,,,,,,,,,,2,2,,,,,,,0,6,1,6,,,,,,,,,,,1745.0218,1745.5224,1745.7732,1748.3274,space,2.5425,,1748.3275,26,19,1749.3303,1749.3304,1749.3541,,,,0,9,9,9,1,90,45,,,,,,,,
,,6547ad7f4510d0a39294fefd,65af56294abd09284145a17f,2024-01-23_08h03.27.357,bars,2023.2.3,Win32,40,657b66ea316d21385b68909f,,,,,,,,,,,1749.3549,1750.3569,,,1750.8581,1751.109,,142,142,,,,,,,,,,,,,,,,bars/025.png,bars/mask006.png,,,,,,,,,,,,0,1,,,,,,,2,8,2,7,,,,,,,,,,,1750.357,1750.8581,1751.1091,1754.0141,space,2.882,,1754.0144,37,78,1755.0189,1755.019,1755.0407,,,,0,10,10,10,1,105,40,,,,,,,,
,,6547ad7f4510d0a39294fefd,65af56294abd09284145a17f,2024-01-23_08h03.27.357,bars,2023.2.3,Win32,40,657b66ea316d21385b68909f,,,,,,,,,,,1755.0413,1756.0432,,,1756.5445,1756.7944,,57,57,,,,,,,,,,,,,,,,bars/044.png,bars/mask008.png,,,,,,,,,,,,0,1,,,,,,,0,6,0,6,,,,,,,,,,,1756.0433,1756.5443,1756.7947,1759.701,space,2.8797,,1759.7012,18,82,1760.7036,1760.7036,1760.7272,,,,0,11,11,11,1,75,155,,,,,,,,
,,6547ad7f4510d0a39294fefd,65af56294abd09284145a17f,2024-01-23_08h03.27.357,bars,2023.2.3,Win32,40,657b66ea316d21385b68909f,,,,,,,,,,,1760.7279,1761.73,,,1762.2307,1762.4816,,147,-33,,,,,,,,,,,,,,,,bars/021.png,bars/mask006.png,,,,,,,,,,,,0,1,,,,,,,0,4,0,5,,,,,,,,,,,1761.7301,1762.2306,1762.4817,1765.9885,space,3.4966,,1765.9887,8,77,1766.99,1766.99,1767.01,,,,0,12,12,12,1,155,70,,,,,,,,
,,6547ad7f4510d0a39294fefd,65af56294abd09284145a17f,2024-01-23_08h03.27.357,bars,2023.2.3,Win32,40,657b66ea316d21385b68909f,,,,,,,,,,,1767.0101,1767.993,,,1768.4933,1768.7437,,61,61,,,,,,,,,,,,,,,,bars/006.png,bars/mask009.png,,,,,,,,,,,,0,1,,,,,,,2,2,2,3,,,,,,,,,,,1767.993,1768.4932,1768.7438,1770.9227,space,2.1666,,1770.9228,26,39,1771.9249,1771.9251,1771.9277,,,,0,13,13,13,1,35,100,,,,,,,,
,,6547ad7f4510d0a39294fefd,65af56294abd09284145a17f,2024-01-23_08h03.27.357,bars,2023.2.3,Win32,40,657b66ea316d21385b68909f,,,,,,,,,,,1771.9288,1772.9275,,,1773.4279,1773.6791,,21,21,,,,,,,,,,,,,,,,bars/015.png,bars/mask000.png,,,,,,,,,,,,0,2,,,,,,,4,4,5,4,,,,,,,,,,,1772.9276,1773.4279,1773.6793,1777.6126,space,3.9093,,1777.6127,89,41,1778.6139,1778.6141,1778.6405,,,,0,14,14,14,1,110,160,,,,,,,,
,,6547ad7f4510d0a39294fefd,65af56294abd09284145a17f,2024-01-23_08h03.27.357,bars,2023.2.3,Win32,40,657b66ea316d21385b68909f,,,,,,,,,,,1778.6413,1779.6411,,,1780.1417,1780.3922,,15,15,,,,,,,,,,,,,,,,bars/006.png,bars/mask006.png,,,,,,,,,,,,0,1,,,,,,,2,6,0,3,,,,,,,,,,,1779.6412,1780.1417,1780.3923,1782.7474,space,2.3305,,1782.7475,20,85,1783.7491,1783.7492,1783.7541,,,,0,15,15,15,1,35,100,,,,,,,,
,,6547ad7f4510d0a39294fefd,65af56294abd09284145a17f,2024-01-23_08h03.27.357,bars,2023.2.3,Win32,40,657b66ea316d21385b68909f,,,,,,,,,,,1783.7548,1784.7505,,,1785.2518,1785.503,,76,76,,,,,,,,,,,,,,,,bars/044.png,bars/mask000.png,,,,,,,,,,,,3,1,,,,,,,4,4,3,4,,,,,,,,,,,1784.7505,1785.2516,1785.503,1789.6114,space,4.0843,,1789.6115,1,79,1790.6124,1790.6124,1790.6364,,,,0,16,16,16,1,75,155,,,,,,,,
,,6547ad7f4510d0a39294fefd,65af56294abd09284145a17f,2024-01-23_08h03.27.357,bars,2023.2.3,Win32,40,657b66ea316d21385b68909f,,,,,,,,,,,1790.6368,1791.6394,,,1792.1405,1792.3913,,128,128,,,,,,,,,,,,,,,,bars/013.png,bars/mask001.png,,,,,,,,,,,,0,1,,,,,,,2,6,3,5,,,,,,,,,,,1791.6395,1792.1401,1792.3915,1795.6986,space,3.2825,,1795.6987,53,62,1796.7001,1796.7001,1796.7236,,,,0,17,17,17,1,75,10,,,,,,,,
,,6547ad7f4510d0a39294fefd,65af56294abd09284145a17f,2024-01-23_08h03.27.357,bars,2023.2.3,Win32,40,657b66ea316d21385b68909f,,,,,,,,,,,1796.7241,1797.7268,,,1798.2284,1798.4779,,83,83,,,,,,,,,,,,,,,,bars/008.png,bars/mask004.png,,,,,,,,,,,,0,1,,,,,,,4,8,5,8,,,,,,,,,,,1797.7269,1798.2283,1798.4779,1803.4889,space,4.9899,,1803.4892,27,83,1804.4902,1804.4903,1804.5025,,,,0,18,18,18,1,110,0,,,,,,,,
,,6547ad7f4510d0a39294fefd,65af56294abd09284145a17f,2024-01-23_08h03.27.357,bars,2023.2.3,Win32,40,657b66ea316d21385b68909f,,,,,,,,,,,1804.5027,1805.4917,,,1805.9931,1806.2438,,175,175,,,,,,,,,,,,,,,,bars/045.png,bars/mask006.png,,,,,,,,,,,,5,2,,,,,,,6,10,7,10,,,,,,,,,,,1805.4917,1805.9929,1806.2438,1809.4005,space,3.1322,,1809.4008,75,15,1810.402,1810.402,1810.4278,,,,0,19,19,19,1,100,10,,,,,,,,
,,6547ad7f4510d0a39294fefd,65af56294abd09284145a17f,2024-01-23_08h03.27.357,bars,2023.2.3,Win32,40,657b66ea316d21385b68909f,,,,,,,,,,,1810.4283,1811.4296,,,1811.9301,1812.1805,,32,212,,,,,,,,,,,,,,,,bars/006.png,bars/mask007.png,,,,,,,,,,,,7,1,,,,,,,8,10,8,10,,,,,,,,,,,1811.4297,1811.9298,1812.1805,1815.3367,space,3.1432,,1815.3367,3,68,1816.3394,1816.3395,1816.3662,,,,0,20,20,20,1,35,100,,,,,,,,
,,6547ad7f4510d0a39294fefd,65af56294abd09284145a17f,2024-01-23_08h03.27.357,bars,2023.2.3,Win32,40,657b66ea316d21385b68909f,,,,,,,,,,,1816.3668,1817.3658,,,1817.8669,1818.1177,,157,157,,,,,,,,,,,,,,,,bars/004.png,bars/mask002.png,,,,,,,,,,,,0,2,,,,,,,10,8,10,8,,,,,,,,,,,1817.366,1817.8668,1818.1177,1822.727,space,4.5857,,1822.7272,48,32,1823.7291,1823.7292,1823.7553,,,,0,21,21,21,1,25,125,,,,,,,,
,,6547ad7f4510d0a39294fefd,65af56294abd09284145a17f,2024-01-23_08h03.27.357,bars,2023.2.3,Win32,40,657b66ea316d21385b68909f,,,,,,,,,,,1823.756,1824.7561,,,1825.2574,1825.5074,,68,68,,,,,,,,,,,,,,,,bars/048.png,bars/mask006.png,,,,,,,,,,,,4,1,,,,,,,10,10,10,10,,,,,,,,,,,1824.7562,1825.2572,1825.5075,1828.4384,space,2.9066,,1828.4385,18,73,1829.4398,1829.4401,1829.4654,,,,0,22,22,22,1,50,175,,,,,,,,
,,6547ad7f4510d0a39294fefd,65af56294abd09284145a17f,2024-01-23_08h03.27.357,bars,2023.2.3,Win32,40,657b66ea316d21385b68909f,,,,,,,,,,,1829.4658,1830.4674,,,1830.9687,1831.219,,168,-12,,,,,,,,,,,,,,,,bars/014.png,bars/mask000.png,,,,,,,,,,,,5,2,,,,,,,8,8,8,8,,,,,,,,,,,1830.4675,1830.9685,1831.219,1835.1273,space,3.8877,,1835.1274,88,12,1836.1282,1836.1283,1836.1543,,,,0,23,23,23,1,80,0,,,,,,,,
,,6547ad7f4510d0a39294fefd,65af56294abd09284145a17f,2024-01-23_08h03.27.357,bars,2023.2.3,Win32,40,657b66ea316d21385b68909f,,,,,,,,,,,1836.155,1837.1555,,,1837.6566,1837.9065,,2,182,,,,,,,,,,,,,,,,bars/016.png,bars/mask009.png,,,,,,,,,,,,4,2,,,,,,,6,10,5,10,,,,,,,,,,,1837.1556,1837.6566,1837.9065,1840.4379,space,2.5193,,1840.4381,38,17,1841.4388,1841.4389,1841.4624,,,,0,24,24,24,1,40,165,,,,,,,,
,,6547ad7f4510d0a39294fefd,65af56294abd09284145a17f,2024-01-23_08h03.27.357,bars,2023.2.3,Win32,40,657b66ea316d21385b68909f,,,,,,,,,,,1841.4628,1842.4668,,,1842.9678,1843.2181,,34,34,,,,,,,,,,,,,,,,bars/008.png,bars/mask003.png,,,,,,,,,,,,0,2,,,,,,,4,10,6,10,,,,,,,,,,,1842.4669,1842.9677,1843.2182,1848.453,space,5.2115,,1848.4532,76,34,1849.4549,1849.455,1849.4769,,,,0,25,25,25,1,110,0,,,,,,,,
,,6547ad7f4510d0a39294fefd,65af56294abd09284145a17f,2024-01-23_08h03.27.357,bars,2023.2.3,Win32,40,657b66ea316d21385b68909f,,,,,,,,,,,1849.4771,1850.4818,,,1850.9832,1851.2336,,55,55,,,,,,,,,,,,,,,,bars/044.png,bars/mask005.png,,,,,,,,,,,,0,1,,,,,,,2,8,1,8,,,,,,,,,,,1850.4819,1850.9831,1851.2337,1854.29,space,3.0323,,1854.2901,20,80,1855.2921,1855.2921,1855.3197,,,,0,26,26,26,1,75,155,,,,,,,,
,,6547ad7f4510d0a39294fefd,65af56294abd09284145a17f,2024-01-23_08h03.27.357,bars,2023.2.3,Win32,40,657b66ea316d21385b68909f,,,,,,,,,,,1855.3202,1856.3192,,,1856.8197,1857.0705,,121,121,,,,,,,,,,,,,,,,bars/047.png,bars/mask003.png,,,,,,,,,,,,0,2,,,,,,,4,10,4,8,,,,,,,,,,,1856.3192,1856.8196,1857.0706,1859.8764,space,2.7816,,1859.8765,74,51,1860.8784,1860.8786,1860.9052,,,,0,27,27,27,1,15,70,,,,,,,,
,,6547ad7f4510d0a39294fefd,65af56294abd09284145a17f,2024-01-23_08h03.27.357,bars,2023.2.3,Win32,40,657b66ea316d21385b68909f,,,,,,,,,,,1860.9057,1861.9054,,,1862.4059,1862.6565,,47,47,,,,,,,,,,,,,,,,bars/028.png,bars/mask004.png,,,,,,,,,,,,7,1,,,,,,,6,8,7,10,,,,,,,,,,,1861.9056,1862.4058,1862.6567,1865.614,space,2.9466,,1865.6142,2,73,1866.6143,1866.6144,1866.6383,,,,0,28,28,28,1,45,120,,,,,,,,
,,6547ad7f4510d0a39294fefd,65af56294abd09284145a17f,2024-01-23_08h03.27.357,bars,2023.2.3,Win32,40,657b66ea316d21385b68909f,,,,,,,,,,,1866.6386,1867.642,,,1868.1427,1868.3935,,114,114,,,,,,,,,,,,,,,,bars/039.png,bars/mask000.png,,,,,,,,,,,,4,2,,,,,,,4,6,3,6,,,,,,,,,,,1867.6421,1868.1425,1868.3936,1870.5749,space,2.1706,,1870.5751,61,9,1871.5744,1871.5744,1871.5995,,,,0,29,29,29,1,175,105,,,,,,,,
,,6547ad7f4510d0a39294fefd,65af56294abd09284145a17f,2024-01-23_08h03.27.357,bars,2023.2.3,Win32,40,657b66ea316d21385b68909f,,,,,,,,,,,1871.6004,1872.6014,,,1873.1025,1873.3525,,61,61,,,,,,,,,,,,,,,,bars/019.png,bars/mask005.png,,,,,,,,,,,,3,1,,,,,,,6,8,6,7,,,,,,,,,,,1872.6015,1873.1024,1873.3525,1875.4073,space,2.0286,,1875.4074,16,44,1876.41,1876.4101,1876.435,,,,0,30,30,30,1,45,105,,,,,,,,
,,6547ad7f4510d0a39294fefd,65af56294abd09284145a17f,2024-01-23_08h03.27.357,bars,2023.2.3,Win32,40,657b66ea316d21385b68909f,,,,,,,,,,,1876.4357,1877.4363,,,1877.9379,1878.1872,,162,162,,,,,,,,,,,,,,,,bars/049.png,bars/mask002.png,,,,,,,,,,,,7,1,,,,,,,8,10,8,10,,,,,,,,,,,1877.4364,1877.9377,1878.1874,1880.8681,space,2.6685,,1880.8682,2,47,1881.8697,1881.8699,1881.8934,,,,0,31,31,31,1,160,115,,,,,,,,
,,6547ad7f4510d0a39294fefd,65af56294abd09284145a17f,2024-01-23_08h03.27.357,bars,2023.2.3,Win32,40,657b66ea316d21385b68909f,,,,,,,,,,,1881.8939,1882.8977,,,1883.3981,1883.6486,,99,99,,,,,,,,,,,,,,,,bars/032.png,bars/mask006.png,,,,,,,,,,,,1,1,,,,,,,6,8,5,7,,,,,,,,,,,1882.8977,1883.398,1883.6487,1885.3267,space,1.6626,,1885.3268,26,79,1886.3291,1886.3291,1886.3495,,,,0,32,32,32,1,125,20,,,,,,,,
,,6547ad7f4510d0a39294fefd,65af56294abd09284145a17f,2024-01-23_08h03.27.357,bars,2023.2.3,Win32,40,657b66ea316d21385b68909f,,,,,,,,,,,1886.3498,1887.3315,,,1887.8319,1888.0818,,77,77,,,,,,,,,,,,,,,,bars/043.png,bars/mask005.png,,,,,,,,,,,,0,1,,,,,,,4,6,2,6,,,,,,,,,,,1887.3315,1887.8319,1888.0819,1890.3123,space,2.2099,,1890.3124,47,53,1891.3135,1891.3136,1891.3372,,,,0,33,33,33,1,30,130,,,,,,,,
,,6547ad7f4510d0a39294fefd,65af56294abd09284145a17f,2024-01-23_08h03.27.357,bars,2023.2.3,Win32,40,657b66ea316d21385b68909f,,,,,,,,,,,1891.3376,1892.3414,,,1892.8416,1893.093,,122,122,,,,,,,,,,,,,,,,bars/022.png,bars/mask001.png,,,,,,,,,,,,1,1,,,,,,,6,8,7,8,,,,,,,,,,,1892.3415,1892.8416,1893.0931,1895.9492,space,2.8318,,1895.9493,27,78,1896.9507,1896.9508,1896.975,,,,0,34,34,34,1,95,20,,,,,,,,
,,6547ad7f4510d0a39294fefd,65af56294abd09284145a17f,2024-01-23_08h03.27.357,bars,2023.2.3,Win32,40,657b66ea316d21385b68909f,,,,,,,,,,,1896.9756,1897.9779,,,1898.479,1898.7287,,48,48,,,,,,,,,,,,,,,,bars/006.png,bars/mask009.png,,,,,,,,,,,,2,1,,,,,,,4,6,3,5,,,,,,,,,,,1897.978,1898.4789,1898.7288,1899.7814,space,1.029,,1899.7817,13,52,1900.7831,1900.7832,1900.785,,,,0,35,35,35,1,35,100,,,,,,,,
,,6547ad7f4510d0a39294fefd,65af56294abd09284145a17f,2024-01-23_08h03.27.357,bars,2023.2.3,Win32,40,657b66ea316d21385b68909f,,,,,,,,,,,1900.7857,1901.7854,,,1902.2859,1902.536,,81,81,,,,,,,,,,,,,,,,bars/045.png,bars/mask003.png,,,,,,,,,,,,0,1,,,,,,,2,8,0,9,,,,,,,,,,,1901.7854,1902.2858,1902.536,1905.0916,space,2.5338,,1905.0918,19,71,1906.0929,1906.093,1906.0946,,,,0,36,36,36,1,100,10,,,,,,,,
,,6547ad7f4510d0a39294fefd,65af56294abd09284145a17f,2024-01-23_08h03.27.357,bars,2023.2.3,Win32,40,657b66ea316d21385b68909f,,,,,,,,,,,1906.0955,1907.0958,,,1907.5966,1907.8475,,41,41,,,,,,,,,,,,,,,,bars/009.png,bars/mask007.png,,,,,,,,,,,,0,1,,,,,,,0,6,0,5,,,,,,,,,,,1907.0958,1907.5965,1907.8475,1910.5783,space,2.7067,,1910.5786,26,64,1911.5797,1911.5798,1911.6031,,,,0,37,37,37,1,15,105,,,,,,,,
,,6547ad7f4510d0a39294fefd,65af56294abd09284145a17f,2024-01-23_08h03.27.357,bars,2023.2.3,Win32,40,657b66ea316d21385b68909f,,,,,,,,,,,1911.6035,1912.6063,,,1913.108,1913.3578,,42,42,,,,,,,,,,,,,,,,bars/009.png,bars/mask009.png,,,,,,,,,,,,0,1,,,,,,,0,4,1,5,,,,,,,,,,,1912.6064,1913.108,1913.3578,1915.9633,space,2.5826,,1915.9635,27,63,1916.9657,1916.9657,1916.9886,,,,0,38,38,38,1,15,105,,,,,,,,
,,6547ad7f4510d0a39294fefd,65af56294abd09284145a17f,2024-01-23_08h03.27.357,bars,2023.2.3,Win32,40,657b66ea316d21385b68909f,,,,,,,,,,,1916.9889,1917.9927,,,1918.4936,1918.7445,,165,-15,,,,,,,,,,,,,,,,bars/026.png,bars/mask002.png,,,,,,,,,,,,0,1,,,,,,,0,2,2,3,,,,,,,,,,,1917.9928,1918.4935,1918.7445,1920.7987,space,2.0303,,1920.799,50,80,1921.8002,1921.8002,1921.8023,,,,0,39,39,39,1,35,85,,,,,,,,
,,6547ad7f4510d0a39294fefd,65af56294abd09284145a17f,2024-01-23_08h03.27.357,bars,2023.2.3,Win32,40,657b66ea316d21385b68909f,,,,,,,,,,,1921.8031,1922.8023,,,1923.3034,1923.5533,,80,80,,,,,,,,,,,,,,,,bars/042.png,bars/mask000.png,,,,,,,,,,,,4,2,,,,,,,0,4,0,5,,,,,,,,,,,1922.8023,1923.3033,1923.5534,1924.8568,space,1.2838,,1924.8569,65,5,1925.858,1925.858,1925.8631,,,,0,40,40,40,1,145,75,,,,,,,,
,,6547ad7f4510d0a39294fefd,65af56294abd09284145a17f,2024-01-23_08h03.27.357,bars,2023.2.3,Win32,40,657b66ea316d21385b68909f,,,,,,,,,,,1925.8639,1926.8597,,,1927.3618,1927.612,,68,68,,,,,,,,,,,,,,,,bars/026.png,bars/mask005.png,,,,,,,,,,,,1,2,,,,,,,0,2,1,2,,,,,,,,,,,1926.8598,1927.3617,1927.6121,1929.14,space,1.5042,,1929.1403,33,17,1930.1421,1930.1422,1930.1442,,,,0,41,41,41,1,35,85,,,,,,,,
,,6547ad7f4510d0a39294fefd,65af56294abd09284145a17f,2024-01-23_08h03.27.357,bars,2023.2.3,Win32,40,657b66ea316d21385b68909f,,,,,,,,,,,1930.1454,1931.1441,,,1931.6446,1931.8956,,19,19,,,,,,,,,,,,,,,,bars/033.png,bars/mask001.png,,,,,,,,,,,,0,1,,,,,,,0,0,0,1,,,,,,,,,,,1931.1441,1931.6445,1931.8957,1934.9018,space,2.9821,,1934.9019,6,44,1935.9033,1935.9034,1935.9289,,,,0,42,42,42,1,25,155,,,,,,,,
,,6547ad7f4510d0a39294fefd,65af56294abd09284145a17f,2024-01-23_08h03.27.357,bars,2023.2.3,Win32,40,657b66ea316d21385b68909f,,,,,,,,,,,1935.9295,1936.9296,,,1937.4317,1937.682,,107,107,,,,,,,,,,,,,,,,bars/001.png,bars/mask008.png,,,,,,,,,,,,0,2,,,,,,,0,0,2,0,,,,,,,,,,,1936.9296,1937.4317,1937.6821,1939.8612,space,2.1574,,1939.8613,23,22,1940.8634,1940.8635,1940.8887,,,,0,43,43,43,1,130,85,,,,,,,,
,,6547ad7f4510d0a39294fefd,65af56294abd09284145a17f,2024-01-23_08h03.27.357,bars,2023.2.3,Win32,40,657b66ea316d21385b68909f,,,,,,,,,,,1940.8893,1941.8899,,,1942.3905,1942.642,,130,130,,,,,,,,,,,,,,,,bars/035.png,bars/mask006.png,,,,,,,,,,,,0,1,,,,,,,0,0,0,1,,,,,,,,,,,1941.8901,1942.3904,1942.6421,1946.3244,space,3.6625,,1946.3244,45,70,1947.3262,1947.3263,1947.3522,,,,0,44,44,44,1,175,60,,,,,,,,
,,6547ad7f4510d0a39294fefd,65af56294abd09284145a17f,2024-01-23_08h03.27.357,bars,2023.2.3,Win32,40,657b66ea316d21385b68909f,,,,,,,,,,,1947.3527,1948.3526,,,1948.8542,1949.1047,,77,77,,,,,,,,,,,,,,,,bars/001.png,bars/mask000.png,,,,,,,,,,,,3,2,,,,,,,2,2,1,4,,,,,,,,,,,1948.3527,1948.8541,1949.1047,1953.2382,space,4.1134,,1953.2383,53,8,1954.2396,1954.2396,1954.2662,,,,0,45,45,45,1,130,85,,,,,,,,
,,6547ad7f4510d0a39294fefd,65af56294abd09284145a17f,2024-01-23_08h03.27.357,bars,2023.2.3,Win32,40,657b66ea316d21385b68909f,,,,,,,,,,,1954.2665,1955.2667,,,1955.7682,1956.0184,,75,75,,,,,,,,,,,,,,,,bars/005.png,bars/mask000.png,,,,,,,,,,,,0,2,,,,,,,4,4,5,4,,,,,,,,,,,1955.2667,1955.7681,1956.0185,1960.0763,space,4.0339,,1960.0764,65,65,1961.0789,1961.079,1961.1057,,,,0,46,46,46,1,10,140,,,,,,,,
,,6547ad7f4510d0a39294fefd,65af56294abd09284145a17f,2024-01-23_08h03.27.357,bars,2023.2.3,Win32,40,657b66ea316d21385b68909f,,,,,,,,,,,1961.1058,1962.1055,,,1962.6072,1962.8568,,44,44,,,,,,,,,,,,,,,,bars/008.png,bars/mask004.png,,,,,,,,,,,,0,2,,,,,,,2,2,1,2,,,,,,,,,,,1962.1057,1962.6072,1962.8568,1965.0118,space,2.1424,,1965.0119,66,44,1966.0131,1966.0131,1966.015,,,,0,47,47,47,1,110,0,,,,,,,,
,,6547ad7f4510d0a39294fefd,65af56294abd09284145a17f,2024-01-23_08h03.27.357,bars,2023.2.3,Win32,40,657b66ea316d21385b68909f,,,,,,,,,,,1966.0162,1967.0159,,,1967.5163,1967.7673,,141,141,,,,,,,,,,,,,,,,bars/006.png,bars/mask006.png,,,,,,,,,,,,0,2,,,,,,,4,0,4,1,,,,,,,,,,,1967.0159,1967.5162,1967.7674,1971.1234,space,3.3326,,1971.1235,74,41,1972.1259,1972.126,1972.1481,,,,0,48,48,48,1,35,100,,,,,,,,
,,6547ad7f4510d0a39294fefd,65af56294abd09284145a17f,2024-01-23_08h03.27.357,bars,2023.2.3,Win32,40,657b66ea316d21385b68909f,,,,,,,,,,,1972.1483,1973.1528,,,1973.6536,1973.9036,,0,180,,,,,,,,,,,,,,,,bars/033.png,bars/mask008.png,,,,,,,,,,,,0,2,,,,,,,2,0,1,0,,,,,,,,,,,1973.1529,1973.6536,1973.9039,1976.3361,space,2.4213,,1976.3363,25,25,1977.3359,1977.336,1977.3609,,,,0,49,49,49,1,25,155,,,,,,,,
,,6547ad7f4510d0a39294fefd,65af56294abd09284145a17f,2024-01-23_08h03.27.357,bars,2023.2.3,Win32,40,657b66ea316d21385b68909f,,,,,,,,,,,,,,,,,,,,,,,,,,,,,,,,,,,,,,,,,,,,,,,,,,,,,,,,,,,,,,,,,,,,,,,,,,,,,,,,,,,,,,,,,,,,,1977.3614,2037.3556,0,3,3,3,1,sequence_tables/blk017.csv
,,6547ad7f4510d0a39294fefd,65af56294abd09284145a17f,2024-01-23_08h03.27.357,bars,2023.2.3,Win32,40,657b66ea316d21385b68909f,,,,,,,,,,,2275.3351,2276.3089,,,2276.81,2277.06,,87,87,,,,,,,,,,,,,,,,bars/006.png,bars/mask006.png,,,,,,,,,,,,4,2,,,,,,,4,7,3,7,,,,,,2037.3809,2275.3073,space,237.9139,,2276.309,2276.8099,2277.0601,2280.9943,space,3.9179,,2280.9944,52,13,2281.9946,2281.9946,2282.007,,,,0,0,0,0,1,35,100,,,,,,,,
,,6547ad7f4510d0a39294fefd,65af56294abd09284145a17f,2024-01-23_08h03.27.357,bars,2023.2.3,Win32,40,657b66ea316d21385b68909f,,,,,,,,,,,2282.0074,2282.998,,,2283.4984,2283.7486,,176,176,,,,,,,,,,,,,,,,bars/026.png,bars/mask009.png,,,,,,,,,,,,0,1,,,,,,,6,5,7,5,,,,,,,,,,,2282.9982,2283.4982,2283.7487,2287.9322,space,4.159,,2287.9322,39,89,2288.9341,2288.9343,2288.9516,,,,0,1,1,1,1,35,85,,,,,,,,
,,6547ad7f4510d0a39294fefd,65af56294abd09284145a17f,2024-01-23_08h03.27.357,bars,2023.2.3,Win32,40,657b66ea316d21385b68909f,,,,,,,,,,,2288.9519,2289.9363,,,2290.4366,2290.6875,,34,34,,,,,,,,,,,,,,,,bars/025.png,bars/mask000.png,,,,,,,,,,,,3,2,,,,,,,4,3,4,4,,,,,,,,,,,2289.9364,2290.4364,2290.6877,2294.12,space,3.4102,,2294.1202,71,6,2295.1216,2295.1217,2295.1474,,,,0,2,2,2,1,105,40,,,,,,,,
,,6547ad7f4510d0a39294fefd,65af56294abd09284145a17f,2024-01-23_08h03.27.357,bars,2023.2.3,Win32,40,657b66ea316d21385b68909f,,,,,,,,,,,2295.1479,2296.1491,,,2296.6501,2296.8999,,77,77,,,,,,,,,,,,,,,,bars/022.png,bars/mask001.png,,,,,,,,,,,,1,1,,,,,,,2,5,2,5,,,,,,,,,,,2296.1491,2296.65,2296.8999,2299.7805,space,2.8601,,2299.7806,18,57,2300.7826,2300.7827,2300.8083,,,,0,3,3,3,1,95,20,,,,,,,,
,,6547ad7f4510d0a39294fefd,65af56294abd09284145a17f,2024-01-23_08h03.27.357,bars,2023.2.3,Win32,40,657b66ea316d21385b68909f,,,,,,,,,,,2300.8089,2301.8094,,,2302.3107,2302.5612,,65,65,,,,,,,,,,,,,,,,bars/035.png,bars/mask006.png,,,,,,,,,,,,3,2,,,,,,,0,3,1,4,,,,,,,,,,,2301.8096,2302.3106,2302.5613,2305.8432,space,3.2575,,2305.8434,70,5,2306.8446,2306.8447,2306.8697,,,,0,4,4,4,1,175,60,,,,,,,,
,,6547ad7f4510d0a39294fefd,65af56294abd09284145a17f,2024-01-23_08h03.27.357,bars,2023.2.3,Win32,40,657b66ea316d21385b68909f,,,,,,,,,,,2306.8704,2307.8722,,,2308.3731,2308.624,,149,149,,,,,,,,,,,,,,,,bars/014.png,bars/mask009.png,,,,,,,,,,,,0,2,,,,,,,0,5,0,2,,,,,,,,,,,2307.8723,2308.373,2308.6241,2311.5299,space,2.8819,,2311.5301,69,31,2312.5309,2312.5309,2312.5456,,,,0,5,5,5,1,80,0,,,,,,,,
,,6547ad7f4510d0a39294fefd,65af56294abd09284145a17f,2024-01-23_08h03.27.357,bars,2023.2.3,Win32,40,657b66ea316d21385b68909f,,,,,,,,,,,2312.5459,2313.5336,,,2314.0344,2314.2846,,83,83,,,,,,,,,,,,,,,,bars/037.png,bars/mask002.png,,,,,,,,,,,,2,2,,,,,,,2,7,3,6,,,,,,,,,,,2313.5337,2314.0344,2314.2848,2317.3914,space,3.0848,,2317.3915,67,22,2318.3929,2318.393,2318.4165,,,,0,6,6,6,1,150,105,,,,,,,,
,,6547ad7f4510d0a39294fefd,65af56294abd09284145a17f,2024-01-23_08h03.27.357,bars,2023.2.3,Win32,40,657b66ea316d21385b68909f,,,,,,,,,,,2318.4171,2319.4203,,,2319.9217,2320.1721,,116,116,,,,,,,,,,,,,,,,bars/031.png,bars/mask007.png,,,,,,,,,,,,0,1,,,,,,,0,9,0,9,,,,,,,,,,,2319.4204,2319.9215,2320.1721,2322.5515,space,2.364,,2322.5517,4,81,2323.5538,2323.5539,2323.5794,,,,0,7,7,7,1,120,35,,,,,,,,
,,6547ad7f4510d0a39294fefd,65af56294abd09284145a17f,2024-01-23_08h03.27.357,bars,2023.2.3,Win32,40,657b66ea316d21385b68909f,,,,,,,,,,,2323.5801,2324.5808,,,2325.0812,2325.3318,,62,62,,,,,,,,,,,,,,,,bars/002.png,bars/mask009.png,,,,,,,,,,,,2,2,,,,,,,0,10,0,10,,,,,,,,,,,2324.5809,2325.0812,2325.332,2328.1125,space,2.7617,,2328.1127,68,23,2329.1145,2329.1145,2329.1321,,,,0,8,8,8,1,130,85,,,,,,,,
,,6547ad7f4510d0a39294fefd,65af56294abd09284145a17f,2024-01-23_08h03.27.357,bars,2023.2.3,Win32,40,657b66ea316d21385b68909f,,,,,,,,,,,2329.1326,2330.1165,,,2330.6178,2330.8676,,168,168,,,,,,,,,,,,,,,,bars/017.png,bars/mask007.png,,,,,,,,,,,,0,1,,,,,,,2,10,2,10,,,,,,,,,,,2330.1166,2330.6178,2330.8677,2334.2264,space,3.348,,2334.2264,23,57,2335.2264,2335.2265,2335.2521,,,,0,9,9,9,1,145,45,,,,,,,,
,,6547ad7f4510d0a39294fefd,65af56294abd09284145a17f,2024-01-23_08h03.27.357,bars,2023.2.3,Win32,40,657b66ea316d21385b68909f,,,,,,,,,,,2335.2526,2336.2536,,,2336.7544,2337.0057,,46,46,,,,,,,,,,,,,,,,bars/012.png,bars/mask008.png,,,,,,,,,,,,0,2,,,,,,,4,10,4,10,,,,,,,,,,,2336.2536,2336.7544,2337.0059,2340.3126,space,3.2827,,2340.3126,44,31,2341.3134,2341.3136,2341.3388,,,,0,10,10,10,1,90,15,,,,,,,,
,,6547ad7f4510d0a39294fefd,65af56294abd09284145a17f,2024-01-23_08h03.27.357,bars,2023.2.3,Win32,40,657b66ea316d21385b68909f,,,,,,,,,,,2341.3396,2342.3405,,,2342.8417,2343.0929,,130,130,,,,,,,,,,,,,,,,bars/001.png,bars/mask004.png,,,,,,,,,,,,0,1,,,,,,,2,10,0,10,,,,,,,,,,,2342.3406,2342.8416,2343.093,2345.8484,space,2.7363,,2345.8487,0,45,2346.8495,2346.8496,2346.8761,,,,0,11,11,11,1,130,85,,,,,,,,
,,6547ad7f4510d0a39294fefd,65af56294abd09284145a17f,2024-01-23_08h03.27.357,bars,2023.2.3,Win32,40,657b66ea316d21385b68909f,,,,,,,,,,,2346.8766,2347.8768,,,2348.3785,2348.6281,,43,43,,,,,,,,,,,,,,,,bars/004.png,bars/mask003.png,,,,,,,,,,,,2,1,,,,,,,4,10,4,10,,,,,,,,,,,2347.8768,2348.3784,2348.6282,2352.4861,space,3.8463,,2352.4864,18,82,2353.4884,2353.4885,2353.5089,,,,0,12,12,12,1,25,125,,,,,,,,
,,6547ad7f4510d0a39294fefd,65af56294abd09284145a17f,2024-01-23_08h03.27.357,bars,2023.2.3,Win32,40,657b66ea316d21385b68909f,,,,,,,,,,,2353.509,2354.5152,,,2355.0164,2355.2672,,60,60,,,,,,,,,,,,,,,,bars/004.png,bars/mask002.png,,,,,,,,,,,,0,1,,,,,,,6,8,5,7,,,,,,,,,,,2354.5152,2355.0162,2355.2673,2358.824,space,3.5333,,2358.8243,35,65,2359.826,2359.8261,2359.8495,,,,0,13,13,13,1,25,125,,,,,,,,
,,6547ad7f4510d0a39294fefd,65af56294abd09284145a17f,2024-01-23_08h03.27.357,bars,2023.2.3,Win32,40,657b66ea316d21385b68909f,,,,,,,,,,,2359.8499,2360.8524,,,2361.3546,2361.6049,,144,-36,,,,,,,,,,,,,,,,bars/047.png,bars/mask009.png,,,,,,,,,,,,0,1,,,,,,,4,10,4,10,,,,,,,,,,,2360.8525,2361.3545,2361.605,2364.9114,space,3.2877,,2364.9115,51,74,2365.9126,2365.9127,2365.9362,,,,0,14,14,14,1,15,70,,,,,,,,
,,6547ad7f4510d0a39294fefd,65af56294abd09284145a17f,2024-01-23_08h03.27.357,bars,2023.2.3,Win32,40,657b66ea316d21385b68909f,,,,,,,,,,,2365.9366,2366.9404,,,2367.4414,2367.6919,,115,115,,,,,,,,,,,,,,,,bars/005.png,bars/mask003.png,,,,,,,,,,,,2,2,,,,,,,2,10,2,10,,,,,,,,,,,2366.9405,2367.4412,2367.692,2371.0739,space,3.3601,,2371.0741,75,25,2372.0761,2372.0762,2372.1021,,,,0,15,15,15,1,10,140,,,,,,,,
,,6547ad7f4510d0a39294fefd,65af56294abd09284145a17f,2024-01-23_08h03.27.357,bars,2023.2.3,Win32,40,657b66ea316d21385b68909f,,,,,,,,,,,2372.1028,2373.1028,,,2373.6039,2373.8542,,117,117,,,,,,,,,,,,,,,,bars/041.png,bars/mask008.png,,,,,,,,,,,,0,2,,,,,,,4,10,5,8,,,,,,,,,,,2373.103,2373.6039,2373.8543,2376.4347,space,2.5654,,2376.435,83,32,2377.436,2377.4361,2377.4379,,,,0,16,16,16,1,20,85,,,,,,,,
,,6547ad7f4510d0a39294fefd,65af56294abd09284145a17f,2024-01-23_08h03.27.357,bars,2023.2.3,Win32,40,657b66ea316d21385b68909f,,,,,,,,,,,2377.4387,2378.4384,,,2378.9386,2379.1895,,167,167,,,,,,,,,,,,,,,,bars/011.png,bars/mask005.png,,,,,,,,,,,,7,1,,,,,,,6,10,9,9,,,,,,,,,,,2378.4384,2378.9385,2379.1896,2382.1715,space,2.9539,,2382.1717,7,82,2383.1732,2383.1733,2383.1909,,,,0,17,17,17,1,160,85,,,,,,,,
