init_variables.started,init_variables.stopped,participant,session,date,expName,psychopyVersion,OS,frameRate,study_id,instruction_exp.started,instruction_exp.stopped,key_resp_8.keys,key_resp_8.rt,key_resp_8.duration,instruction_single.started,instruction_single.stopped,key_resp_2.keys,key_resp_2.rt,key_resp_2.duration,interval.started,interval.stopped,cue_single.started,cue_single.stopped,mask.started,mask.stopped,ori_response_single.started,res_ori,res,ori_response_single.stopped,key_resp_single.keys,key_resp_single.rt,key_resp_single.duration,disp_single.started,disp_single.stopped,key_resp.keys,key_resp.rt,key_resp.duration,single.thisRepN,single.thisTrialN,single.thisN,single.thisIndex,single.ran,ori,path,mask_path,instruction_bandit.started,instruction_bandit.stopped,key_resp_6.keys,key_resp_6.rt,key_resp_6.duration,cue_bandit.started,cue_bandit.stopped,bandit_res.keys,bandit_res.rt,bandit_res.duration,outcome_bandit.started,rew,action,outcome_bandit.stopped,bandit.thisRepN,bandit.thisTrialN,bandit.thisN,bandit.thisIndex,bandit.ran,actual_rew1,actual_rew2,rew1,rew2,instruction_task.started,instruction_task.stopped,key_resp_7.keys,key_resp_7.rt,key_resp_7.duration,wait_ready.started,wait_ready.stopped,key_resp_3.keys,key_resp_3.rt,key_resp_3.duration,cue.started,cue.stopped,ori_response.started,ori_response.stopped,key_resp_5.keys,key_resp_5.rt,key_resp_5.duration,outcome.started,diff1,diff2,outcome.stopped,disp_outcome_practice.started,disp_outcome_practice.stopped,key_resp_4.keys,key_resp_4.rt,key_resp_4.duration,trials.thisRepN,trials.thisTrialN,trials.thisN,trials.thisIndex,trials.ran,ori1,ori2,break_blk.started,break_blk.stopped,block.thisRepN,block.thisTrialN,block.thisN,block.thisIndex,block.ran,condition_file
0,0.0001,655bca1f7ea1891e17a66d2e,65af55d914893441390476af,2024-01-23_19h04.36.348,bars,2023.2.3,Win32,142.8571429,657b66ea316d21385b68909f,,,,,,,,,,,,,,,,,,,,,,,,,,,,,,,,,,,,,,,,,,,,,,,,,,,,,,,,,,,,,,,,,,,,,,,,,,,,,,,,,,,,,,,,,,,,,,,,,,,,
,,655bca1f7ea1891e17a66d2e,65af55d914893441390476af,2024-01-23_19h04.36.348,bars,2023.2.3,Win32,142.8571429,657b66ea316d21385b68909f,0.0002,11.1351,y,11.1323,,,,,,,,,,,,,,,,,,,,,,,,,,,,,,,,,,,,,,,,,,,,,,,,,,,,,,,,,,,,,,,,,,,,,,,,,,,,,,,,,,,,,,,,,,,,,,,,
,,655bca1f7ea1891e17a66d2e,65af55d914893441390476af,2024-01-23_19h04.36.348,bars,2023.2.3,Win32,142.8571429,657b66ea316d21385b68909f,,,,,,11.1352,23.6548,space,12.5107,,,,,,,,,,,,,,,,,,,,,,,,,,,,,,,,,,,,,,,,,,,,,,,,,,,,,,,,,,,,,,,,,,,,,,,,,,,,,,,,,,,,,,,,,,,
,,655bca1f7ea1891e17a66d2e,65af55d914893441390476af,2024-01-23_19h04.36.348,bars,2023.2.3,Win32,142.8571429,657b66ea316d21385b68909f,,,,,,,,,,,23.6566,24.6528,24.6528,25.1528,25.1529,25.4028,25.4028,151,151,32.9027,space,7.4782,,32.9027,36.7025,space,3.7911,,0,0,0,8,1,160,bars/single008.png,bars/mask004.png,,,,,,,,,,,,,,,,,,,,,,,,,,,,,,,,,,,,,,,,,,,,,,,,,,,,,,,,,,,,,,,,
,,655bca1f7ea1891e17a66d2e,65af55d914893441390476af,2024-01-23_19h04.36.348,bars,2023.2.3,Win32,142.8571429,657b66ea316d21385b68909f,,,,,,,,,,,36.7063,37.7078,37.7078,38.2079,38.2079,38.4544,38.4544,32,32,41.0146,space,2.5554,,41.0146,42.7648,space,1.743,,0,1,1,7,1,45,bars/single007.png,bars/mask009.png,,,,,,,,,,,,,,,,,,,,,,,,,,,,,,,,,,,,,,,,,,,,,,,,,,,,,,,,,,,,,,,,
,,655bca1f7ea1891e17a66d2e,65af55d914893441390476af,2024-01-23_19h04.36.348,bars,2023.2.3,Win32,142.8571429,657b66ea316d21385b68909f,,,,,,,,,,,42.765,43.7632,43.7632,44.2641,44.2641,44.5114,44.5114,161,161,46.6937,space,2.1781,,46.6937,48.1394,space,1.4373,,0,2,2,0,1,150,bars/single000.png,bars/mask006.png,,,,,,,,,,,,,,,,,,,,,,,,,,,,,,,,,,,,,,,,,,,,,,,,,,,,,,,,,,,,,,,,
,,655bca1f7ea1891e17a66d2e,65af55d914893441390476af,2024-01-23_19h04.36.348,bars,2023.2.3,Win32,142.8571429,657b66ea316d21385b68909f,,,,,,,,,,,48.1396,49.138,49.138,49.6393,49.6393,49.8881,49.8881,88,88,53.9171,space,4.0276,,53.9171,56.0351,space,2.1109,,0,3,3,4,1,95,bars/single004.png,bars/mask004.png,,,,,,,,,,,,,,,,,,,,,,,,,,,,,,,,,,,,,,,,,,,,,,,,,,,,,,,,,,,,,,,,
,,655bca1f7ea1891e17a66d2e,65af55d914893441390476af,2024-01-23_19h04.36.348,bars,2023.2.3,Win32,142.8571429,657b66ea316d21385b68909f,,,,,,,,,,,56.0352,57.0336,57.0336,57.5348,57.5348,57.7879,57.7879,164,164,61.4711,space,3.6739,,61.4711,63.8528,space,2.3696,,0,4,4,6,1,175,bars/single006.png,bars/mask005.png,,,,,,,,,,,,,,,,,,,,,,,,,,,,,,,,,,,,,,,,,,,,,,,,,,,,,,,,,,,,,,,,
,,655bca1f7ea1891e17a66d2e,65af55d914893441390476af,2024-01-23_19h04.36.348,bars,2023.2.3,Win32,142.8571429,657b66ea316d21385b68909f,,,,,,,,,,,63.8564,64.854,64.854,65.3528,65.3529,65.6028,65.6028,35,215,69.2626,space,3.6583,,69.2626,71.7415,space,2.4701,,0,5,5,9,1,20,bars/single009.png,bars/mask006.png,,,,,,,,,,,,,,,,,,,,,,,,,,,,,,,,,,,,,,,,,,,,,,,,,,,,,,,,,,,,,,,,
,,655bca1f7ea1891e17a66d2e,65af55d914893441390476af,2024-01-23_19h04.36.348,bars,2023.2.3,Win32,142.8571429,657b66ea316d21385b68909f,,,,,,,,,,,71.7416,72.7416,72.7416,73.2425,73.2426,73.4927,73.4928,33,213,78.5953,space,5.092,,78.5953,80.1093,space,1.5036,,0,6,6,3,1,20,bars/single003.png,bars/mask005.png,,,,,,,,,,,,,,,,,,,,,,,,,,,,,,,,,,,,,,,,,,,,,,,,,,,,,,,,,,,,,,,,
,,655bca1f7ea1891e17a66d2e,65af55d914893441390476af,2024-01-23_19h04.36.348,bars,2023.2.3,Win32,142.8571429,657b66ea316d21385b68909f,,,,,,,,,,,80.1094,81.1092,81.1092,81.6092,81.6092,81.8582,81.8582,51,51,85.1438,space,3.2803,,85.1438,87.1506,space,1.9997,,0,7,7,5,1,55,bars/single005.png,bars/mask008.png,,,,,,,,,,,,,,,,,,,,,,,,,,,,,,,,,,,,,,,,,,,,,,,,,,,,,,,,,,,,,,,,
,,655bca1f7ea1891e17a66d2e,65af55d914893441390476af,2024-01-23_19h04.36.348,bars,2023.2.3,Win32,142.8571429,657b66ea316d21385b68909f,,,,,,,,,,,87.1507,88.1506,88.1506,88.6505,88.6505,88.9005,88.9005,148,148,91.4421,space,2.5276,,91.4422,93.0896,space,1.6457,,0,8,8,2,1,145,bars/single002.png,bars/mask003.png,,,,,,,,,,,,,,,,,,,,,,,,,,,,,,,,,,,,,,,,,,,,,,,,,,,,,,,,,,,,,,,,
,,655bca1f7ea1891e17a66d2e,65af55d914893441390476af,2024-01-23_19h04.36.348,bars,2023.2.3,Win32,142.8571429,657b66ea316d21385b68909f,,,,,,,,,,,93.0897,94.0934,94.0935,94.5936,94.5936,94.8391,94.8391,26,26,97.6133,space,2.7672,,97.6133,99.3737,space,1.7568,,0,9,9,1,1,20,bars/single001.png,bars/mask006.png,,,,,,,,,,,,,,,,,,,,,,,,,,,,,,,,,,,,,,,,,,,,,,,,,,,,,,,,,,,,,,,,
,,655bca1f7ea1891e17a66d2e,65af55d914893441390476af,2024-01-23_19h04.36.348,bars,2023.2.3,Win32,142.8571429,657b66ea316d21385b68909f,,,,,,,,,,,,,,,,,,,,,,,,,,,,,,,,,,,,,99.3739,113.7469,space,14.3658,,,,,,,,,,,,,,,,,,,,,,,,,,,,,,,,,,,,,,,,,,,,,,,,,,,,,,,,,,,,
,,655bca1f7ea1891e17a66d2e,65af55d914893441390476af,2024-01-23_19h04.36.348,bars,2023.2.3,Win32,142.8571429,657b66ea316d21385b68909f,,,,,,,,,,,,,,,,,,,,,,,,,,,,,,,,,,,,,,,,,,113.7514,115.5734,left,1.8159,,115.5735,9,1,116.5733,0,0,0,0,1,9,1,9,2,,,,,,,,,,,,,,,,,,,,,,,,,,,,,,,,,,,,,,,,,
,,655bca1f7ea1891e17a66d2e,65af55d914893441390476af,2024-01-23_19h04.36.348,bars,2023.2.3,Win32,142.8571429,657b66ea316d21385b68909f,,,,,,,,,,,,,,,,,,,,,,,,,,,,,,,,,,,,,,,,,,116.5734,118.1288,right,1.5404,,118.1288,1,2,119.1287,0,1,1,1,1,10,0,10,1,,,,,,,,,,,,,,,,,,,,,,,,,,,,,,,,,,,,,,,,,
,,655bca1f7ea1891e17a66d2e,65af55d914893441390476af,2024-01-23_19h04.36.348,bars,2023.2.3,Win32,142.8571429,657b66ea316d21385b68909f,,,,,,,,,,,,,,,,,,,,,,,,,,,,,,,,,,,,,,,,,,119.1289,119.6161,left,0.4791,,119.6162,10,1,120.616,0,2,2,2,1,10,2,10,2,,,,,,,,,,,,,,,,,,,,,,,,,,,,,,,,,,,,,,,,,
,,655bca1f7ea1891e17a66d2e,65af55d914893441390476af,2024-01-23_19h04.36.348,bars,2023.2.3,Win32,142.8571429,657b66ea316d21385b68909f,,,,,,,,,,,,,,,,,,,,,,,,,,,,,,,,,,,,,,,,,,120.6161,121.2953,left,0.6679,,121.2953,7,1,122.2967,0,3,3,3,1,8,4,7,3,,,,,,,,,,,,,,,,,,,,,,,,,,,,,,,,,,,,,,,,,
,,655bca1f7ea1891e17a66d2e,65af55d914893441390476af,2024-01-23_19h04.36.348,bars,2023.2.3,Win32,142.8571429,657b66ea316d21385b68909f,,,,,,,,,,,,,,,,,,,,,,,,,,,,,,,,,,,,,,,,,,122.2968,123.1089,right,0.8055,,123.1089,1,2,124.1039,0,4,4,4,1,6,2,5,1,,,,,,,,,,,,,,,,,,,,,,,,,,,,,,,,,,,,,,,,,
,,655bca1f7ea1891e17a66d2e,65af55d914893441390476af,2024-01-23_19h04.36.348,bars,2023.2.3,Win32,142.8571429,657b66ea316d21385b68909f,,,,,,,,,,,,,,,,,,,,,,,,,,,,,,,,,,,,,,,,,,124.1041,124.5236,left,0.4148,,124.5236,4,1,125.5242,0,5,5,5,1,4,4,4,4,,,,,,,,,,,,,,,,,,,,,,,,,,,,,,,,,,,,,,,,,
,,655bca1f7ea1891e17a66d2e,65af55d914893441390476af,2024-01-23_19h04.36.348,bars,2023.2.3,Win32,142.8571429,657b66ea316d21385b68909f,,,,,,,,,,,,,,,,,,,,,,,,,,,,,,,,,,,,,,,,,,125.5244,126.1297,left,0.6039,,126.1297,1,1,127.1284,0,6,6,6,1,2,2,1,2,,,,,,,,,,,,,,,,,,,,,,,,,,,,,,,,,,,,,,,,,
,,655bca1f7ea1891e17a66d2e,65af55d914893441390476af,2024-01-23_19h04.36.348,bars,2023.2.3,Win32,142.8571429,657b66ea316d21385b68909f,,,,,,,,,,,,,,,,,,,,,,,,,,,,,,,,,,,,,,,,,,127.1285,127.4838,right,0.3539,,127.4838,1,2,128.482,0,7,7,7,1,0,0,0,1,,,,,,,,,,,,,,,,,,,,,,,,,,,,,,,,,,,,,,,,,
,,655bca1f7ea1891e17a66d2e,65af55d914893441390476af,2024-01-23_19h04.36.348,bars,2023.2.3,Win32,142.8571429,657b66ea316d21385b68909f,,,,,,,,,,,,,,,,,,,,,,,,,,,,,,,,,,,,,,,,,,128.4822,129.0117,left,0.528,,129.0117,1,1,130.0114,0,8,8,8,1,0,2,1,0,,,,,,,,,,,,,,,,,,,,,,,,,,,,,,,,,,,,,,,,,
,,655bca1f7ea1891e17a66d2e,65af55d914893441390476af,2024-01-23_19h04.36.348,bars,2023.2.3,Win32,142.8571429,657b66ea316d21385b68909f,,,,,,,,,,,,,,,,,,,,,,,,,,,,,,,,,,,,,,,,,,130.0115,130.3158,left,0.2905,,130.3158,2,1,131.3211,0,9,9,9,1,2,4,2,3,,,,,,,,,,,,,,,,,,,,,,,,,,,,,,,,,,,,,,,,,
,,655bca1f7ea1891e17a66d2e,65af55d914893441390476af,2024-01-23_19h04.36.348,bars,2023.2.3,Win32,142.8571429,657b66ea316d21385b68909f,,,,,,,,,,,,,,,,,,,,,,,,,,,,,,,,,,,,,,,,,,131.3213,132.149,right,0.8194,,132.1491,3,2,133.1503,0,10,10,10,1,0,2,0,3,,,,,,,,,,,,,,,,,,,,,,,,,,,,,,,,,,,,,,,,,
,,655bca1f7ea1891e17a66d2e,65af55d914893441390476af,2024-01-23_19h04.36.348,bars,2023.2.3,Win32,142.8571429,657b66ea316d21385b68909f,,,,,,,,,,,,,,,,,,,,,,,,,,,,,,,,,,,,,,,,,,133.1505,133.9004,left,0.739,,133.9004,0,1,134.8995,0,11,11,11,1,0,4,0,3,,,,,,,,,,,,,,,,,,,,,,,,,,,,,,,,,,,,,,,,,
,,655bca1f7ea1891e17a66d2e,65af55d914893441390476af,2024-01-23_19h04.36.348,bars,2023.2.3,Win32,142.8571429,657b66ea316d21385b68909f,,,,,,,,,,,,,,,,,,,,,,,,,,,,,,,,,,,,,,,,,,134.8997,135.2895,right,0.3822,,135.2895,6,2,136.2879,0,12,12,12,1,2,6,1,6,,,,,,,,,,,,,,,,,,,,,,,,,,,,,,,,,,,,,,,,,
,,655bca1f7ea1891e17a66d2e,65af55d914893441390476af,2024-01-23_19h04.36.348,bars,2023.2.3,Win32,142.8571429,657b66ea316d21385b68909f,,,,,,,,,,,,,,,,,,,,,,,,,,,,,,,,,,,,,,,,,,136.288,136.7791,right,0.4798,,136.7791,3,2,137.7809,0,13,13,13,1,0,4,1,3,,,,,,,,,,,,,,,,,,,,,,,,,,,,,,,,,,,,,,,,,
,,655bca1f7ea1891e17a66d2e,65af55d914893441390476af,2024-01-23_19h04.36.348,bars,2023.2.3,Win32,142.8571429,657b66ea316d21385b68909f,,,,,,,,,,,,,,,,,,,,,,,,,,,,,,,,,,,,,,,,,,137.7811,138.3849,left,0.5953,,138.385,2,1,139.3849,0,14,14,14,1,2,6,2,7,,,,,,,,,,,,,,,,,,,,,,,,,,,,,,,,,,,,,,,,,
,,655bca1f7ea1891e17a66d2e,65af55d914893441390476af,2024-01-23_19h04.36.348,bars,2023.2.3,Win32,142.8571429,657b66ea316d21385b68909f,,,,,,,,,,,,,,,,,,,,,,,,,,,,,,,,,,,,,,,,,,139.3851,139.6628,right,0.2611,,139.6628,9,2,140.6584,0,15,15,15,1,4,8,3,9,,,,,,,,,,,,,,,,,,,,,,,,,,,,,,,,,,,,,,,,,
,,655bca1f7ea1891e17a66d2e,65af55d914893441390476af,2024-01-23_19h04.36.348,bars,2023.2.3,Win32,142.8571429,657b66ea316d21385b68909f,,,,,,,,,,,,,,,,,,,,,,,,,,,,,,,,,,,,,,,,,,140.6585,141.0725,left,0.4039,,141.0725,7,1,142.0724,0,16,16,16,1,6,6,7,7,,,,,,,,,,,,,,,,,,,,,,,,,,,,,,,,,,,,,,,,,
,,655bca1f7ea1891e17a66d2e,65af55d914893441390476af,2024-01-23_19h04.36.348,bars,2023.2.3,Win32,142.8571429,657b66ea316d21385b68909f,,,,,,,,,,,,,,,,,,,,,,,,,,,,,,,,,,,,,,,,,,142.0726,142.5391,right,0.4586,,142.5391,5,2,143.5376,0,17,17,17,1,8,4,9,5,,,,,,,,,,,,,,,,,,,,,,,,,,,,,,,,,,,,,,,,,
,,655bca1f7ea1891e17a66d2e,65af55d914893441390476af,2024-01-23_19h04.36.348,bars,2023.2.3,Win32,142.8571429,657b66ea316d21385b68909f,,,,,,,,,,,,,,,,,,,,,,,,,,,,,,,,,,,,,,,,,,143.5377,143.9417,left,0.396,,143.9417,5,1,144.937,0,18,18,18,1,6,2,5,1,,,,,,,,,,,,,,,,,,,,,,,,,,,,,,,,,,,,,,,,,
,,655bca1f7ea1891e17a66d2e,65af55d914893441390476af,2024-01-23_19h04.36.348,bars,2023.2.3,Win32,142.8571429,657b66ea316d21385b68909f,,,,,,,,,,,,,,,,,,,,,,,,,,,,,,,,,,,,,,,,,,144.9372,145.2768,left,0.3353,,145.2768,7,1,146.2735,0,19,19,19,1,8,0,7,0,,,,,,,,,,,,,,,,,,,,,,,,,,,,,,,,,,,,,,,,,
,,655bca1f7ea1891e17a66d2e,65af55d914893441390476af,2024-01-23_19h04.36.348,bars,2023.2.3,Win32,142.8571429,657b66ea316d21385b68909f,,,,,,,,,,,,,,,,,,,,,,,,,,,,,,,,,,,,,,,,,,,,,,,,,,,,,,,,,,,,146.2738,160.4886,space,14.201,,,,,,,,,,,,,,,,,,,,,,,,,,,,,,,,,,,,,
,,655bca1f7ea1891e17a66d2e,65af55d914893441390476af,2024-01-23_19h04.36.348,bars,2023.2.3,Win32,142.8571429,657b66ea316d21385b68909f,,,,,,,,,,,162.11,163.1063,,,163.6064,163.8564,,121,121,,,,,,,,,,,,,,,,bars/002.png,bars/mask008.png,,,,,,,,,,,,2,1,,,,,,,4,1,3,0,,,,,,160.4931,162.1086,space,1.6124,,163.1065,163.6064,163.8564,167.7606,space,3.8909,,167.7606,9,36,168.7602,168.7603,185.1683,space,16.3998,,0,0,0,0,1,130,85,,,,,,,,
,,655bca1f7ea1891e17a66d2e,65af55d914893441390476af,2024-01-23_19h04.36.348,bars,2023.2.3,Win32,142.8571429,657b66ea316d21385b68909f,,,,,,,,,,,185.1723,186.1689,,,186.6814,186.9263,,56,56,,,,,,,,,,,,,,,,bars/034.png,bars/mask002.png,,,,,,,,,,,,0,2,,,,,,,6,0,5,0,,,,,,,,,,,186.1689,186.6814,186.9263,188.7213,space,1.788,,188.7213,69,9,189.7166,189.7167,195.7778,space,6.0537,,0,1,1,1,1,125,65,,,,,,,,
,,655bca1f7ea1891e17a66d2e,65af55d914893441390476af,2024-01-23_19h04.36.348,bars,2023.2.3,Win32,142.8571429,657b66ea316d21385b68909f,,,,,,,,,,,195.7814,196.7777,,,197.2788,197.5287,,6,186,,,,,,,,,,,,,,,,bars/007.png,bars/mask004.png,,,,,,,,,,,,3,1,,,,,,,4,0,4,3,,,,,,,,,,,196.7777,197.2788,197.5287,201.2302,space,3.698,,201.2302,11,49,202.225,202.225,205.2995,space,3.0606,,0,2,2,2,1,175,55,,,,,,,,
,,655bca1f7ea1891e17a66d2e,65af55d914893441390476af,2024-01-23_19h04.36.348,bars,2023.2.3,Win32,142.8571429,657b66ea316d21385b68909f,,,,,,,,,,,205.3031,206.2994,,,206.8006,207.0546,,116,116,,,,,,,,,,,,,,,,bars/030.png,bars/mask009.png,,,,,,,,,,,,1,1,,,,,,,2,2,3,1,,,,,,,,,,,206.2995,206.8006,207.0546,209.2646,space,2.207,,209.2646,24,51,210.2658,210.2658,214.9033,space,4.6264,,0,3,3,3,1,140,65,,,,,,,,
,,655bca1f7ea1891e17a66d2e,65af55d914893441390476af,2024-01-23_19h04.36.348,bars,2023.2.3,Win32,142.8571429,657b66ea316d21385b68909f,,,,,,,,,,,214.907,215.9032,,,216.4032,216.6513,,47,47,,,,,,,,,,,,,,,,bars/028.png,bars/mask006.png,,,,,,,,,,,,4,1,,,,,,,4,4,4,4,,,,,,,,,,,215.9032,216.4032,216.6514,218.7364,space,2.0819,,218.7365,2,73,219.7365,219.7365,222.2016,space,2.4578,,0,4,4,4,1,45,120,,,,,,,,
,,655bca1f7ea1891e17a66d2e,65af55d914893441390476af,2024-01-23_19h04.36.348,bars,2023.2.3,Win32,142.8571429,657b66ea316d21385b68909f,,,,,,,,,,,222.2017,223.2016,,,223.7015,223.9527,,25,25,,,,,,,,,,,,,,,,bars/009.png,bars/mask004.png,,,,,,,,,,,,1,1,,,,,,,2,6,2,6,,,,,,,,,,,223.2016,223.7015,223.9527,226.5417,space,2.5764,,226.5417,10,80,227.543,227.543,230.1888,space,2.6386,,0,5,5,5,1,15,105,,,,,,,,
,,655bca1f7ea1891e17a66d2e,65af55d914893441390476af,2024-01-23_19h04.36.348,bars,2023.2.3,Win32,142.8571429,657b66ea316d21385b68909f,,,,,,,,,,,230.189,231.1874,,,231.6886,231.9374,,127,307,,,,,,,,,,,,,,,,bars/009.png,bars/mask009.png,,,,,,,,,,,,1,2,,,,,,,4,4,5,4,,,,,,,,,,,231.1875,231.6886,231.9374,236.9167,space,4.9741,,236.9167,68,22,237.9164,237.9164,246.6808,space,8.7565,,0,6,6,6,1,15,105,,,,,,,,
,,655bca1f7ea1891e17a66d2e,65af55d914893441390476af,2024-01-23_19h04.36.348,bars,2023.2.3,Win32,142.8571429,657b66ea316d21385b68909f,,,,,,,,,,,246.6845,247.6802,,,248.1811,248.4299,,24,204,,,,,,,,,,,,,,,,bars/016.png,bars/mask002.png,,,,,,,,,,,,0,1,,,,,,,2,6,1,5,,,,,,,,,,,247.6802,248.181,248.4299,251.3825,space,2.9511,,251.3825,16,39,252.3824,252.3825,258.2005,space,5.8077,,0,7,7,7,1,40,165,,,,,,,,
,,655bca1f7ea1891e17a66d2e,65af55d914893441390476af,2024-01-23_19h04.36.348,bars,2023.2.3,Win32,142.8571429,657b66ea316d21385b68909f,,,,,,,,,,,258.2042,259.2004,,,259.7014,259.9506,,99,99,,,,,,,,,,,,,,,,bars/002.png,bars/mask000.png,,,,,,,,,,,,3,2,,,,,,,0,4,0,5,,,,,,,,,,,259.2004,259.7014,259.9506,263.5545,space,3.5987,,263.5546,31,14,264.5543,264.5543,268.3945,space,3.833,,0,8,8,8,1,130,85,,,,,,,,
,,655bca1f7ea1891e17a66d2e,65af55d914893441390476af,2024-01-23_19h04.36.348,bars,2023.2.3,Win32,142.8571429,657b66ea316d21385b68909f,,,,,,,,,,,268.3983,269.3945,,,269.8923,270.1387,,50,50,,,,,,,,,,,,,,,,bars/039.png,bars/mask009.png,,,,,,,,,,,,0,2,,,,,,,2,6,3,5,,,,,,,,,,,269.3945,269.8923,270.1387,272.6237,space,2.4733,,272.6237,55,55,273.6248,273.6248,276.6111,space,2.9791,,0,9,9,9,1,175,105,,,,,,,,
,,655bca1f7ea1891e17a66d2e,65af55d914893441390476af,2024-01-23_19h04.36.348,bars,2023.2.3,Win32,142.8571429,657b66ea316d21385b68909f,,,,,,,,,,,276.6112,277.6099,,,278.1107,278.3594,,14,14,,,,,,,,,,,,,,,,bars/016.png,bars/mask008.png,,,,,,,,,,,,1,1,,,,,,,4,8,7,8,,,,,,,,,,,277.6099,278.1106,278.3594,279.3874,space,1.0123,,279.3874,26,29,280.3871,280.3872,282.2092,space,1.8137,,0,10,10,10,1,40,165,,,,,,,,
,,655bca1f7ea1891e17a66d2e,65af55d914893441390476af,2024-01-23_19h04.36.348,bars,2023.2.3,Win32,142.8571429,657b66ea316d21385b68909f,,,,,,,,,,,282.2093,283.2066,,,283.7065,283.9564,,81,81,,,,,,,,,,,,,,,,bars/002.png,bars/mask001.png,,,,,,,,,,,,7,2,,,,,,,2,10,3,8,,,,,,,,,,,283.2066,283.7065,283.9564,287.4161,space,3.4482,,287.4161,49,4,288.4146,288.4146,291.8533,space,3.4265,,0,11,11,11,1,130,85,,,,,,,,
,,655bca1f7ea1891e17a66d2e,65af55d914893441390476af,2024-01-23_19h04.36.348,bars,2023.2.3,Win32,142.8571429,657b66ea316d21385b68909f,,,,,,,,,,,291.8569,292.8519,,,293.352,293.6052,,142,-38,,,,,,,,,,,,,,,,bars/015.png,bars/mask006.png,,,,,,,,,,,,4,2,,,,,,,0,10,2,10,,,,,,,,,,,292.8519,293.352,293.6052,298.4907,space,4.878,,298.4907,32,18,299.4915,299.4915,301.8254,space,2.3222,,0,12,12,12,1,110,160,,,,,,,,
,,655bca1f7ea1891e17a66d2e,65af55d914893441390476af,2024-01-23_19h04.36.348,bars,2023.2.3,Win32,142.8571429,657b66ea316d21385b68909f,,,,,,,,,,,301.8255,302.824,,,303.3238,303.5738,,45,45,,,,,,,,,,,,,,,,bars/019.png,bars/mask002.png,,,,,,,,,,,,2,1,,,,,,,2,8,2,8,,,,,,,,,,,302.824,303.3238,303.5738,304.9586,space,1.3766,,304.9586,0,60,305.9556,305.9557,308.2474,space,2.2829,,0,13,13,13,1,45,105,,,,,,,,
,,655bca1f7ea1891e17a66d2e,65af55d914893441390476af,2024-01-23_19h04.36.348,bars,2023.2.3,Win32,142.8571429,657b66ea316d21385b68909f,,,,,,,,,,,308.2475,309.2473,,,309.7475,309.9973,,150,-30,,,,,,,,,,,,,,,,bars/020.png,bars/mask008.png,,,,,,,,,,,,2,2,,,,,,,4,6,5,5,,,,,,,,,,,309.2473,309.7475,309.9973,313.136,space,3.1287,,313.136,35,20,314.1372,314.1372,315.4693,space,1.3227,,0,14,14,14,1,115,170,,,,,,,,
,,655bca1f7ea1891e17a66d2e,65af55d914893441390476af,2024-01-23_19h04.36.348,bars,2023.2.3,Win32,142.8571429,657b66ea316d21385b68909f,,,,,,,,,,,315.4694,316.4762,,,316.9759,317.2204,,141,-39,,,,,,,,,,,,,,,,bars/001.png,bars/mask008.png,,,,,,,,,,,,3,1,,,,,,,6,8,5,8,,,,,,,,,,,316.4762,316.9759,317.2204,320.7552,space,3.5279,,320.7552,11,56,321.7552,321.7552,323.3648,space,1.597,,0,15,15,15,1,130,85,,,,,,,,
,,655bca1f7ea1891e17a66d2e,65af55d914893441390476af,2024-01-23_19h04.36.348,bars,2023.2.3,Win32,142.8571429,657b66ea316d21385b68909f,,,,,,,,,,,323.365,324.3661,,,324.8663,325.1148,,141,-39,,,,,,,,,,,,,,,,bars/049.png,bars/mask001.png,,,,,,,,,,,,3,1,,,,,,,8,6,8,7,,,,,,,,,,,324.3661,324.8663,325.1148,327.9007,space,2.7847,,327.9008,19,26,328.8993,328.8994,330.2536,space,1.3455,,0,16,16,16,1,160,115,,,,,,,,
,,655bca1f7ea1891e17a66d2e,65af55d914893441390476af,2024-01-23_19h04.36.348,bars,2023.2.3,Win32,142.8571429,657b66ea316d21385b68909f,,,,,,,,,,,330.2537,331.2547,,,331.7546,332.0035,,38,38,,,,,,,,,,,,,,,,bars/023.png,bars/mask002.png,,,,,,,,,,,,4,1,,,,,,,10,4,10,3,,,,,,,,,,,331.2547,331.7546,332.0035,334.0395,space,2.0278,,334.0395,18,77,335.0381,335.0381,337.8505,space,2.8078,,0,17,17,17,1,20,115,,,,,,,,
,,655bca1f7ea1891e17a66d2e,65af55d914893441390476af,2024-01-23_19h04.36.348,bars,2023.2.3,Win32,142.8571429,657b66ea316d21385b68909f,,,,,,,,,,,337.8541,338.8517,,,339.3516,339.6004,,60,60,,,,,,,,,,,,,,,,bars/044.png,bars/mask001.png,,,,,,,,,,,,5,1,,,,,,,10,2,10,2,,,,,,,,,,,338.8517,339.3516,339.6004,341.663,space,2.0492,,341.663,15,85,342.6674,342.6674,343.8796,space,1.2013,,0,18,18,18,1,75,155,,,,,,,,
,,655bca1f7ea1891e17a66d2e,65af55d914893441390476af,2024-01-23_19h04.36.348,bars,2023.2.3,Win32,142.8571429,657b66ea316d21385b68909f,,,,,,,,,,,343.8797,344.878,,,345.378,345.628,,131,131,,,,,,,,,,,,,,,,bars/027.png,bars/mask005.png,,,,,,,,,,,,3,1,,,,,,,8,4,9,4,,,,,,,,,,,344.878,345.378,345.628,346.6665,space,1.0371,,346.6665,21,81,347.6627,347.6627,348.9344,space,1.2651,,0,19,19,19,1,110,50,,,,,,,,
,,655bca1f7ea1891e17a66d2e,65af55d914893441390476af,2024-01-23_19h04.36.348,bars,2023.2.3,Win32,142.8571429,657b66ea316d21385b68909f,,,,,,,,,,,348.9345,349.9334,,,350.4334,350.6834,,35,215,,,,,,,,,,,,,,,,bars/041.png,bars/mask001.png,,,,,,,,,,,,5,1,,,,,,,10,2,10,3,,,,,,,,,,,349.9334,350.4334,350.6834,354.7527,space,4.0595,,354.7528,15,50,355.7527,355.7527,356.9623,space,1.1992,,0,20,20,20,1,20,85,,,,,,,,
,,655bca1f7ea1891e17a66d2e,65af55d914893441390476af,2024-01-23_19h04.36.348,bars,2023.2.3,Win32,142.8571429,657b66ea316d21385b68909f,,,,,,,,,,,356.9624,357.9622,,,358.4616,358.711,,116,116,,,,,,,,,,,,,,,,bars/017.png,bars/mask001.png,,,,,,,,,,,,0,1,,,,,,,10,0,9,0,,,,,,,,,,,357.9622,358.4616,358.711,361.4604,space,2.7413,,361.4605,29,71,362.4599,362.4599,364.6829,space,2.2138,,0,21,21,21,1,145,45,,,,,,,,
,,655bca1f7ea1891e17a66d2e,65af55d914893441390476af,2024-01-23_19h04.36.348,bars,2023.2.3,Win32,142.8571429,657b66ea316d21385b68909f,,,,,,,,,,,364.6831,365.6802,,,366.1761,366.4271,,48,48,,,,,,,,,,,,,,,,bars/043.png,bars/mask007.png,,,,,,,,,,,,3,1,,,,,,,8,0,7,0,,,,,,,,,,,365.6802,366.1761,366.4272,367.9952,space,1.5648,,367.9953,18,82,368.9985,368.9986,369.6897,space,0.6808,,0,22,22,22,1,30,130,,,,,,,,
,,655bca1f7ea1891e17a66d2e,65af55d914893441390476af,2024-01-23_19h04.36.348,bars,2023.2.3,Win32,142.8571429,657b66ea316d21385b68909f,,,,,,,,,,,369.6899,370.6925,,,371.197,371.4409,,88,88,,,,,,,,,,,,,,,,bars/012.png,bars/mask003.png,,,,,,,,,,,,4,1,,,,,,,6,0,4,0,,,,,,,,,,,370.6926,371.197,371.4409,373.2049,space,1.7571,,373.2049,2,73,374.2035,374.2035,375.5559,space,1.3399,,0,23,23,23,1,90,15,,,,,,,,
,,655bca1f7ea1891e17a66d2e,65af55d914893441390476af,2024-01-23_19h04.36.348,bars,2023.2.3,Win32,142.8571429,657b66ea316d21385b68909f,,,,,,,,,,,375.5562,376.5552,,,377.0518,377.3005,,120,120,,,,,,,,,,,,,,,,bars/039.png,bars/mask004.png,,,,,,,,,,,,0,2,,,,,,,8,0,8,0,,,,,,,,,,,376.5552,377.0518,377.3006,380.9115,space,3.5964,,380.9115,55,15,381.9141,381.9141,384.6141,space,2.687,,0,24,24,24,1,175,105,,,,,,,,
,,655bca1f7ea1891e17a66d2e,65af55d914893441390476af,2024-01-23_19h04.36.348,bars,2023.2.3,Win32,142.8571429,657b66ea316d21385b68909f,,,,,,,,,,,384.6142,385.6139,,,386.1116,386.357,,125,-55,,,,,,,,,,,,,,,,bars/032.png,bars/mask007.png,,,,,,,,,,,,5,1,,,,,,,6,0,5,0,,,,,,,,,,,385.6139,386.1116,386.357,390.439,space,4.0708,,390.439,0,75,391.4402,391.4402,394.7597,space,3.3087,,0,25,25,25,1,125,20,,,,,,,,
,,655bca1f7ea1891e17a66d2e,65af55d914893441390476af,2024-01-23_19h04.36.348,bars,2023.2.3,Win32,142.8571429,657b66ea316d21385b68909f,,,,,,,,,,,394.7634,395.7583,,,396.2597,396.5093,,0,0,,,,,,,,,,,,,,,,bars/008.png,bars/mask001.png,,,,,,,,,,,,4,2,,,,,,,8,2,7,4,,,,,,,,,,,395.7583,396.2597,396.5094,399.8985,space,3.3821,,399.8986,70,0,400.8983,400.8984,402.7732,space,1.8653,,0,26,26,26,1,110,0,,,,,,,,
,,655bca1f7ea1891e17a66d2e,65af55d914893441390476af,2024-01-23_19h04.36.348,bars,2023.2.3,Win32,142.8571429,657b66ea316d21385b68909f,,,,,,,,,,,402.7732,403.773,,,404.2718,404.5218,,131,131,,,,,,,,,,,,,,,,bars/036.png,bars/mask002.png,,,,,,,,,,,,3,1,,,,,,,6,0,6,1,,,,,,,,,,,403.7731,404.2718,404.5219,405.4467,space,0.9165,,405.4467,14,69,406.4467,406.4467,407.7313,space,1.2775,,0,27,27,27,1,145,20,,,,,,,,
,,655bca1f7ea1891e17a66d2e,65af55d914893441390476af,2024-01-23_19h04.36.348,bars,2023.2.3,Win32,142.8571429,657b66ea316d21385b68909f,,,,,,,,,,,407.7314,408.7313,,,409.23,409.4799,,78,-102,,,,,,,,,,,,,,,,bars/012.png,bars/mask003.png,,,,,,,,,,,,2,1,,,,,,,4,2,4,3,,,,,,,,,,,408.7313,409.23,409.48,414.2729,space,4.7846,,414.2729,12,63,415.2714,415.2714,416.3421,space,1.0598,,0,28,28,28,1,90,15,,,,,,,,
,,655bca1f7ea1891e17a66d2e,65af55d914893441390476af,2024-01-23_19h04.36.348,bars,2023.2.3,Win32,142.8571429,657b66ea316d21385b68909f,,,,,,,,,,,416.3422,417.3408,,,417.8408,418.0908,,149,-31,,,,,,,,,,,,,,,,bars/040.png,bars/mask009.png,,,,,,,,,,,,1,1,,,,,,,2,0,2,0,,,,,,,,,,,417.3408,417.8408,418.0908,421.4671,space,3.3658,,421.4671,9,36,422.4658,422.4658,423.0281,space,0.5531,,0,29,29,29,1,140,5,,,,,,,,
,,655bca1f7ea1891e17a66d2e,65af55d914893441390476af,2024-01-23_19h04.36.348,bars,2023.2.3,Win32,142.8571429,657b66ea316d21385b68909f,,,,,,,,,,,423.0283,424.0282,,,424.5282,424.7792,,42,222,,,,,,,,,,,,,,,,bars/047.png,bars/mask007.png,,,,,,,,,,,,0,1,,,,,,,4,0,4,0,,,,,,,,,,,424.0282,424.5282,424.7792,427.1375,space,2.3513,,427.1375,27,28,428.1404,428.1404,430.7376,space,2.5901,,0,30,30,30,1,15,70,,,,,,,,
,,655bca1f7ea1891e17a66d2e,65af55d914893441390476af,2024-01-23_19h04.36.348,bars,2023.2.3,Win32,142.8571429,657b66ea316d21385b68909f,,,,,,,,,,,430.7377,431.7359,,,432.2362,432.4861,,160,160,,,,,,,,,,,,,,,,bars/035.png,bars/mask005.png,,,,,,,,,,,,0,1,,,,,,,2,0,0,0,,,,,,,,,,,431.7359,432.2362,432.4861,434.8334,space,2.3344,,434.8335,15,80,435.8332,435.8332,437.734,space,1.8922,,0,31,31,31,1,175,60,,,,,,,,
,,655bca1f7ea1891e17a66d2e,65af55d914893441390476af,2024-01-23_19h04.36.348,bars,2023.2.3,Win32,142.8571429,657b66ea316d21385b68909f,,,,,,,,,,,437.7341,438.7289,,,439.229,439.479,,103,-77,,,,,,,,,,,,,,,,bars/026.png,bars/mask009.png,,,,,,,,,,,,0,2,,,,,,,0,0,0,0,,,,,,,,,,,438.7289,439.229,439.479,443.5761,space,4.0807,,443.5761,68,18,444.5761,444.5761,445.7288,space,1.1442,,0,32,32,32,1,35,85,,,,,,,,
,,655bca1f7ea1891e17a66d2e,65af55d914893441390476af,2024-01-23_19h04.36.348,bars,2023.2.3,Win32,142.8571429,657b66ea316d21385b68909f,,,,,,,,,,,445.729,446.7287,,,447.2311,447.4787,,132,132,,,,,,,,,,,,,,,,bars/000.png,bars/mask004.png,,,,,,,,,,,,2,2,,,,,,,0,2,0,3,,,,,,,,,,,446.7287,447.2311,447.4787,450.3133,space,2.8332,,450.3133,88,13,451.3119,451.312,454.9438,space,3.6204,,0,33,33,33,1,40,145,,,,,,,,
,,655bca1f7ea1891e17a66d2e,65af55d914893441390476af,2024-01-23_19h04.36.348,bars,2023.2.3,Win32,142.8571429,657b66ea316d21385b68909f,,,,,,,,,,,454.9474,455.948,,,456.4438,456.6936,,40,40,,,,,,,,,,,,,,,,bars/010.png,bars/mask003.png,,,,,,,,,,,,2,2,,,,,,,2,4,0,4,,,,,,,,,,,455.9481,456.4438,456.6936,458.1172,space,1.4076,,458.1172,55,15,459.1184,459.1184,459.4297,space,0.2999,,0,34,34,34,1,165,55,,,,,,,,
,,655bca1f7ea1891e17a66d2e,65af55d914893441390476af,2024-01-23_19h04.36.348,bars,2023.2.3,Win32,142.8571429,657b66ea316d21385b68909f,,,,,,,,,,,459.4299,460.4297,,,460.9297,461.1796,,113,113,,,,,,,,,,,,,,,,bars/012.png,bars/mask003.png,,,,,,,,,,,,1,1,,,,,,,4,6,5,5,,,,,,,,,,,460.4297,460.9296,461.1797,463.5754,space,2.3849,,463.5754,23,82,464.5754,464.5754,465.4713,space,0.8819,,0,35,35,35,1,90,15,,,,,,,,
,,655bca1f7ea1891e17a66d2e,65af55d914893441390476af,2024-01-23_19h04.36.348,bars,2023.2.3,Win32,142.8571429,657b66ea316d21385b68909f,,,,,,,,,,,465.4714,466.4712,,,466.9648,467.2141,,13,13,,,,,,,,,,,,,,,,bars/032.png,bars/mask003.png,,,,,,,,,,,,2,2,,,,,,,6,4,6,3,,,,,,,,,,,466.4713,466.9648,467.2141,469.6169,space,2.3885,,469.6169,68,7,470.6169,470.6169,471.389,space,0.7638,,0,36,36,36,1,125,20,,,,,,,,
,,655bca1f7ea1891e17a66d2e,65af55d914893441390476af,2024-01-23_19h04.36.348,bars,2023.2.3,Win32,142.8571429,657b66ea316d21385b68909f,,,,,,,,,,,471.3891,472.3875,,,472.8876,473.1376,,88,268,,,,,,,,,,,,,,,,bars/023.png,bars/mask005.png,,,,,,,,,,,,1,2,,,,,,,4,6,4,6,,,,,,,,,,,472.3876,472.8876,473.1376,477.2416,space,4.1013,,477.2416,68,27,478.2426,478.2427,478.8249,space,0.5728,,0,37,37,37,1,20,115,,,,,,,,
,,655bca1f7ea1891e17a66d2e,65af55d914893441390476af,2024-01-23_19h04.36.348,bars,2023.2.3,Win32,142.8571429,657b66ea316d21385b68909f,,,,,,,,,,,478.8251,479.8262,,,480.3248,480.5748,,49,49,,,,,,,,,,,,,,,,bars/025.png,bars/mask002.png,,,,,,,,,,,,6,2,,,,,,,2,8,2,8,,,,,,,,,,,479.8262,480.3248,480.5748,482.8247,space,2.2367,,482.8247,56,9,483.8247,483.8247,485.658,space,1.8202,,0,38,38,38,1,105,40,,,,,,,,
,,655bca1f7ea1891e17a66d2e,65af55d914893441390476af,2024-01-23_19h04.36.348,bars,2023.2.3,Win32,142.8571429,657b66ea316d21385b68909f,,,,,,,,,,,485.6581,486.6579,,,487.158,487.4092,,120,120,,,,,,,,,,,,,,,,bars/049.png,bars/mask009.png,,,,,,,,,,,,8,2,,,,,,,4,10,4,10,,,,,,,,,,,486.6579,487.1579,487.4093,489.3766,space,1.9605,,489.3766,40,5,490.3761,490.3761,491.2752,space,0.8921,,0,39,39,39,1,160,115,,,,,,,,
,,655bca1f7ea1891e17a66d2e,65af55d914893441390476af,2024-01-23_19h04.36.348,bars,2023.2.3,Win32,142.8571429,657b66ea316d21385b68909f,,,,,,,,,,,491.2753,492.2745,,,492.777,493.0271,,40,40,,,,,,,,,,,,,,,,bars/047.png,bars/mask007.png,,,,,,,,,,,,0,1,,,,,,,2,8,3,8,,,,,,,,,,,492.2746,492.7769,493.0271,495.4577,space,2.4217,,495.4577,25,30,496.4562,496.4562,497.3036,space,0.8345,,0,40,40,40,1,15,70,,,,,,,,
,,655bca1f7ea1891e17a66d2e,65af55d914893441390476af,2024-01-23_19h04.36.348,bars,2023.2.3,Win32,142.8571429,657b66ea316d21385b68909f,,,,,,,,,,,497.3037,498.3033,,,498.8047,499.0524,,157,-23,,,,,,,,,,,,,,,,bars/048.png,bars/mask005.png,,,,,,,,,,,,2,2,,,,,,,4,6,4,6,,,,,,,,,,,498.3033,498.8047,499.0524,501.2199,space,2.1601,,501.2199,73,18,502.2214,502.2214,503.0336,space,0.801,,0,41,41,41,1,50,175,,,,,,,,
,,655bca1f7ea1891e17a66d2e,65af55d914893441390476af,2024-01-23_19h04.36.348,bars,2023.2.3,Win32,142.8571429,657b66ea316d21385b68909f,,,,,,,,,,,503.0337,504.0325,,,504.5304,504.7765,,47,227,,,,,,,,,,,,,,,,bars/003.png,bars/mask008.png,,,,,,,,,,,,1,1,,,,,,,6,8,4,10,,,,,,,,,,,504.0325,504.5304,504.7765,508.5878,space,3.8001,,508.5878,22,87,509.5888,509.5889,510.664,space,1.0675,,0,42,42,42,1,25,140,,,,,,,,
,,655bca1f7ea1891e17a66d2e,65af55d914893441390476af,2024-01-23_19h04.36.348,bars,2023.2.3,Win32,142.8571429,657b66ea316d21385b68909f,,,,,,,,,,,510.6642,511.6641,,,512.164,512.4153,,137,137,,,,,,,,,,,,,,,,bars/037.png,bars/mask004.png,,,,,,,,,,,,5,1,,,,,,,8,10,8,10,,,,,,,,,,,511.6641,512.164,512.4153,513.8099,space,1.3933,,513.8099,13,32,514.8075,514.8075,515.6431,space,0.8316,,0,43,43,43,1,150,105,,,,,,,,
,,655bca1f7ea1891e17a66d2e,65af55d914893441390476af,2024-01-23_19h04.36.348,bars,2023.2.3,Win32,142.8571429,657b66ea316d21385b68909f,,,,,,,,,,,515.6433,516.643,,,517.1442,517.3944,,57,237,,,,,,,,,,,,,,,,bars/038.png,bars/mask000.png,,,,,,,,,,,,6,2,,,,,,,6,10,5,10,,,,,,,,,,,516.643,517.1442,517.3944,521.754,space,4.3446,,521.754,72,13,522.7554,522.7554,523.5038,space,0.7387,,0,44,44,44,1,165,70,,,,,,,,
,,655bca1f7ea1891e17a66d2e,65af55d914893441390476af,2024-01-23_19h04.36.348,bars,2023.2.3,Win32,142.8571429,657b66ea316d21385b68909f,,,,,,,,,,,523.504,524.5121,,,525.0051,525.2538,,17,197,,,,,,,,,,,,,,,,bars/041.png,bars/mask008.png,,,,,,,,,,,,4,1,,,,,,,4,10,4,10,,,,,,,,,,,524.5121,525.0051,525.2539,528.2137,space,2.9586,,528.2137,3,68,529.212,529.212,529.8162,space,0.5881,,0,45,45,45,1,20,85,,,,,,,,
,,655bca1f7ea1891e17a66d2e,65af55d914893441390476af,2024-01-23_19h04.36.348,bars,2023.2.3,Win32,142.8571429,657b66ea316d21385b68909f,,,,,,,,,,,529.8163,530.8161,,,531.3162,531.5663,,34,34,,,,,,,,,,,,,,,,bars/017.png,bars/mask001.png,,,,,,,,,,,,6,2,,,,,,,6,10,6,9,,,,,,,,,,,530.8161,531.3162,531.5663,532.7216,space,1.1541,,532.7216,69,11,533.7214,533.7214,534.5591,space,0.8304,,0,46,46,46,1,145,45,,,,,,,,
,,655bca1f7ea1891e17a66d2e,65af55d914893441390476af,2024-01-23_19h04.36.348,bars,2023.2.3,Win32,142.8571429,657b66ea316d21385b68909f,,,,,,,,,,,534.5593,535.559,,,536.0593,536.3092,,179,-1,,,,,,,,,,,,,,,,bars/004.png,bars/mask006.png,,,,,,,,,,,,0,1,,,,,,,4,8,2,8,,,,,,,,,,,535.559,536.0593,536.3092,537.6299,space,1.3126,,537.6299,26,54,538.6295,538.6295,539.3241,space,0.6846,,0,47,47,47,1,25,125,,,,,,,,
,,655bca1f7ea1891e17a66d2e,65af55d914893441390476af,2024-01-23_19h04.36.348,bars,2023.2.3,Win32,142.8571429,657b66ea316d21385b68909f,,,,,,,,,,,539.3243,540.3228,,,540.8228,541.0729,,43,43,,,,,,,,,,,,,,,,bars/029.png,bars/mask002.png,,,,,,,,,,,,9,2,,,,,,,6,10,6,10,,,,,,,,,,,540.3228,540.8228,541.0729,542.8158,space,1.7372,,542.8158,47,2,543.818,543.818,544.6433,space,0.8191,,0,48,48,48,1,90,45,,,,,,,,
,,655bca1f7ea1891e17a66d2e,65af55d914893441390476af,2024-01-23_19h04.36.348,bars,2023.2.3,Win32,142.8571429,657b66ea316d21385b68909f,,,,,,,,,,,544.6435,545.6431,,,546.1422,546.392,,140,140,,,,,,,,,,,,,,,,bars/034.png,bars/mask001.png,,,,,,,,,,,,3,1,,,,,,,4,10,6,10,,,,,,,,,,,545.6431,546.1422,546.392,547.9408,space,1.5354,,547.9408,15,75,548.9406,548.9406,549.5517,space,0.5985,,0,49,49,49,1,125,65,,,,,,,,
,,655bca1f7ea1891e17a66d2e,65af55d914893441390476af,2024-01-23_19h04.36.348,bars,2023.2.3,Win32,142.8571429,657b66ea316d21385b68909f,,,,,,,,,,,,,,,,,,,,,,,,,,,,,,,,,,,,,,,,,,,,,,,,,,,,,,,,,,,,,,,,,,,,,,,,,,,,,,,,,,,,,,,,,,,,,549.5519,609.5499,0,0,0,3,1,sequence_tables/blk008.csv
,,655bca1f7ea1891e17a66d2e,65af55d914893441390476af,2024-01-23_19h04.36.348,bars,2023.2.3,Win32,142.8571429,657b66ea316d21385b68909f,,,,,,,,,,,628.6528,629.6544,,,630.1667,630.4073,,113,113,,,,,,,,,,,,,,,,bars/018.png,bars/mask003.png,,,,,,,,,,,,0,2,,,,,,,8,3,7,2,,,,,,609.5538,628.6476,space,19.0912,,629.6544,630.1667,630.4073,634.805,space,4.3939,,634.8051,37,23,635.807,635.807,635.811,,,,0,0,0,0,1,150,90,,,,,,,,
,,655bca1f7ea1891e17a66d2e,65af55d914893441390476af,2024-01-23_19h04.36.348,bars,2023.2.3,Win32,142.8571429,657b66ea316d21385b68909f,,,,,,,,,,,635.8111,636.8126,,,637.3128,637.5639,,126,126,,,,,,,,,,,,,,,,bars/006.png,bars/mask001.png,,,,,,,,,,,,1,2,,,,,,,6,5,6,4,,,,,,,,,,,636.8126,637.3128,637.5639,639.3681,space,1.794,,639.3681,89,26,640.3694,640.3694,640.3697,,,,0,1,1,1,1,35,100,,,,,,,,
,,655bca1f7ea1891e17a66d2e,65af55d914893441390476af,2024-01-23_19h04.36.348,bars,2023.2.3,Win32,142.8571429,657b66ea316d21385b68909f,,,,,,,,,,,640.3698,641.3681,,,641.8682,642.1181,,152,-28,,,,,,,,,,,,,,,,bars/010.png,bars/mask007.png,,,,,,,,,,,,5,1,,,,,,,8,3,8,3,,,,,,,,,,,641.3681,641.8682,642.1181,647.3068,space,5.1805,,647.3068,13,83,648.3065,648.3065,648.3106,,,,0,2,2,2,1,165,55,,,,,,,,
,,655bca1f7ea1891e17a66d2e,65af55d914893441390476af,2024-01-23_19h04.36.348,bars,2023.2.3,Win32,142.8571429,657b66ea316d21385b68909f,,,,,,,,,,,648.3106,649.3123,,,649.8122,650.0622,,128,128,,,,,,,,,,,,,,,,bars/004.png,bars/mask009.png,,,,,,,,,,,,5,2,,,,,,,6,5,5,5,,,,,,,,,,,649.3123,649.8122,650.0622,654.09,space,4.0209,,654.09,77,3,655.0897,655.0897,655.0939,,,,0,3,3,3,1,25,125,,,,,,,,
,,655bca1f7ea1891e17a66d2e,65af55d914893441390476af,2024-01-23_19h04.36.348,bars,2023.2.3,Win32,142.8571429,657b66ea316d21385b68909f,,,,,,,,,,,655.094,656.0899,,,656.5898,656.8374,,97,97,,,,,,,,,,,,,,,,bars/031.png,bars/mask006.png,,,,,,,,,,,,2,1,,,,,,,8,3,9,3,,,,,,,,,,,656.0899,656.5898,656.8374,658.3814,space,1.538,,658.3815,23,62,659.378,659.378,659.3822,,,,0,4,4,4,1,120,35,,,,,,,,
,,655bca1f7ea1891e17a66d2e,65af55d914893441390476af,2024-01-23_19h04.36.348,bars,2023.2.3,Win32,142.8571429,657b66ea316d21385b68909f,,,,,,,,,,,659.3822,660.3774,,,660.8756,661.1256,,134,134,,,,,,,,,,,,,,,,bars/003.png,bars/mask003.png,,,,,,,,,,,,2,2,,,,,,,6,1,6,2,,,,,,,,,,,660.3774,660.8756,661.1256,663.945,space,2.8087,,663.945,71,6,664.9449,664.9449,664.949,,,,0,5,5,5,1,25,140,,,,,,,,
,,655bca1f7ea1891e17a66d2e,65af55d914893441390476af,2024-01-23_19h04.36.348,bars,2023.2.3,Win32,142.8571429,657b66ea316d21385b68909f,,,,,,,,,,,664.949,665.9505,,,666.4507,666.7007,,62,242,,,,,,,,,,,,,,,,bars/044.png,bars/mask000.png,,,,,,,,,,,,2,1,,,,,,,4,3,3,3,,,,,,,,,,,665.9505,666.4506,666.7007,670.1271,space,3.4134,,670.1271,13,87,671.124,671.124,671.1281,,,,0,6,6,6,1,75,155,,,,,,,,
,,655bca1f7ea1891e17a66d2e,65af55d914893441390476af,2024-01-23_19h04.36.348,bars,2023.2.3,Win32,142.8571429,657b66ea316d21385b68909f,,,,,,,,,,,671.1282,672.1239,,,672.625,672.8739,,56,56,,,,,,,,,,,,,,,,bars/027.png,bars/mask008.png,,,,,,,,,,,,1,2,,,,,,,6,1,7,1,,,,,,,,,,,672.124,672.625,672.8739,676.9239,space,4.0417,,676.9239,54,6,677.9236,677.9236,677.9276,,,,0,7,7,7,1,110,50,,,,,,,,
,,655bca1f7ea1891e17a66d2e,65af55d914893441390476af,2024-01-23_19h04.36.348,bars,2023.2.3,Win32,142.8571429,657b66ea316d21385b68909f,,,,,,,,,,,677.9277,678.9252,,,679.4296,679.6807,,128,128,,,,,,,,,,,,,,,,bars/032.png,bars/mask003.png,,,,,,,,,,,,8,1,,,,,,,8,3,9,4,,,,,,,,,,,678.9252,679.4296,679.6807,681.0004,space,1.3103,,681.0004,3,72,682,682,682.0006,,,,0,8,8,8,1,125,20,,,,,,,,
,,655bca1f7ea1891e17a66d2e,65af55d914893441390476af,2024-01-23_19h04.36.348,bars,2023.2.3,Win32,142.8571429,657b66ea316d21385b68909f,,,,,,,,,,,682.0006,682.9986,,,683.4998,683.7485,,114,114,,,,,,,,,,,,,,,,bars/009.png,bars/mask005.png,,,,,,,,,,,,1,2,,,,,,,10,1,8,1,,,,,,,,,,,682.9986,683.4998,683.7485,685.7762,space,2.0212,,685.7762,81,9,686.7762,686.7762,686.7768,,,,0,9,9,9,1,15,105,,,,,,,,
,,655bca1f7ea1891e17a66d2e,65af55d914893441390476af,2024-01-23_19h04.36.348,bars,2023.2.3,Win32,142.8571429,657b66ea316d21385b68909f,,,,,,,,,,,686.7768,687.7762,,,688.2762,688.5264,,71,71,,,,,,,,,,,,,,,,bars/044.png,bars/mask007.png,,,,,,,,,,,,6,1,,,,,,,8,3,7,1,,,,,,,,,,,687.7762,688.2761,688.5264,690.5678,space,2.0387,,690.5678,4,84,691.5689,691.5689,691.5729,,,,0,10,10,10,1,75,155,,,,,,,,
,,655bca1f7ea1891e17a66d2e,65af55d914893441390476af,2024-01-23_19h04.36.348,bars,2023.2.3,Win32,142.8571429,657b66ea316d21385b68909f,,,,,,,,,,,691.573,692.5747,,,693.0761,693.325,,67,67,,,,,,,,,,,,,,,,bars/041.png,bars/mask000.png,,,,,,,,,,,,1,2,,,,,,,10,1,8,2,,,,,,,,,,,692.5747,693.0761,693.3251,695.3399,space,2.0137,,695.3399,47,18,696.3384,696.3384,696.339,,,,0,11,11,11,1,20,85,,,,,,,,
,,655bca1f7ea1891e17a66d2e,65af55d914893441390476af,2024-01-23_19h04.36.348,bars,2023.2.3,Win32,142.8571429,657b66ea316d21385b68909f,,,,,,,,,,,696.3391,697.3412,,,697.8384,698.0897,,122,122,,,,,,,,,,,,,,,,bars/015.png,bars/mask002.png,,,,,,,,,,,,6,1,,,,,,,10,0,10,0,,,,,,,,,,,697.3412,697.8384,698.0897,701.6939,space,3.5952,,701.6939,12,38,702.6923,702.6923,702.6966,,,,0,12,12,12,1,110,160,,,,,,,,
,,655bca1f7ea1891e17a66d2e,65af55d914893441390476af,2024-01-23_19h04.36.348,bars,2023.2.3,Win32,142.8571429,657b66ea316d21385b68909f,,,,,,,,,,,702.6967,703.6935,,,704.1937,704.4423,,72,72,,,,,,,,,,,,,,,,bars/018.png,bars/mask000.png,,,,,,,,,,,,1,2,,,,,,,8,2,9,2,,,,,,,,,,,703.6935,704.1936,704.4423,706.1998,space,1.7492,,706.1999,78,18,707.1992,707.1992,707.2033,,,,0,13,13,13,1,150,90,,,,,,,,
,,655bca1f7ea1891e17a66d2e,65af55d914893441390476af,2024-01-23_19h04.36.348,bars,2023.2.3,Win32,142.8571429,657b66ea316d21385b68909f,,,,,,,,,,,707.2034,708.2004,,,708.6992,708.9491,,84,84,,,,,,,,,,,,,,,,bars/029.png,bars/mask005.png,,,,,,,,,,,,6,1,,,,,,,10,4,8,6,,,,,,,,,,,708.2004,708.6992,708.9491,710.1519,space,1.2014,,710.152,6,39,711.1504,711.1504,711.1546,,,,0,14,14,14,1,90,45,,,,,,,,
,,655bca1f7ea1891e17a66d2e,65af55d914893441390476af,2024-01-23_19h04.36.348,bars,2023.2.3,Win32,142.8571429,657b66ea316d21385b68909f,,,,,,,,,,,711.1546,712.1504,,,712.6516,712.8982,,1,1,,,,,,,,,,,,,,,,bars/032.png,bars/mask003.png,,,,,,,,,,,,2,2,,,,,,,8,6,8,6,,,,,,,,,,,712.1504,712.6516,712.8983,714.4699,space,1.5659,,714.4699,56,19,715.4698,715.4698,715.4744,,,,0,15,15,15,1,125,20,,,,,,,,
,,655bca1f7ea1891e17a66d2e,65af55d914893441390476af,2024-01-23_19h04.36.348,bars,2023.2.3,Win32,142.8571429,657b66ea316d21385b68909f,,,,,,,,,,,715.4744,716.4764,,,716.9763,717.2266,,83,83,,,,,,,,,,,,,,,,bars/022.png,bars/mask004.png,,,,,,,,,,,,6,1,,,,,,,10,8,10,9,,,,,,,,,,,716.4765,716.9763,717.2266,719.603,space,2.3662,,719.603,12,63,720.6014,720.6014,720.6021,,,,0,16,16,16,1,95,20,,,,,,,,
,,655bca1f7ea1891e17a66d2e,65af55d914893441390476af,2024-01-23_19h04.36.348,bars,2023.2.3,Win32,142.8571429,657b66ea316d21385b68909f,,,,,,,,,,,720.6022,721.6015,,,722.1027,722.3561,,135,135,,,,,,,,,,,,,,,,bars/033.png,bars/mask002.png,,,,,,,,,,,,3,2,,,,,,,10,10,10,10,,,,,,,,,,,721.6015,722.1027,722.3561,724.4138,space,2.0504,,724.4139,70,20,725.4139,725.4139,725.418,,,,0,17,17,17,1,25,155,,,,,,,,
,,655bca1f7ea1891e17a66d2e,65af55d914893441390476af,2024-01-23_19h04.36.348,bars,2023.2.3,Win32,142.8571429,657b66ea316d21385b68909f,,,,,,,,,,,725.4181,726.4138,,,726.9138,727.1638,,57,57,,,,,,,,,,,,,,,,bars/044.png,bars/mask007.png,,,,,,,,,,,,4,1,,,,,,,8,8,9,9,,,,,,,,,,,726.4138,726.9138,727.1638,729.0804,space,1.9123,,729.0804,18,82,730.0817,730.0817,730.0858,,,,0,18,18,18,1,75,155,,,,,,,,
,,655bca1f7ea1891e17a66d2e,65af55d914893441390476af,2024-01-23_19h04.36.348,bars,2023.2.3,Win32,142.8571429,657b66ea316d21385b68909f,,,,,,,,,,,730.0858,731.0815,,,731.5815,731.8313,,132,132,,,,,,,,,,,,,,,,bars/044.png,bars/mask004.png,,,,,,,,,,,,2,2,,,,,,,6,10,5,10,,,,,,,,,,,731.0815,731.5815,731.8313,733.1983,space,1.3588,,733.1984,57,23,734.1983,734.1983,734.1988,,,,0,19,19,19,1,75,155,,,,,,,,
,,655bca1f7ea1891e17a66d2e,65af55d914893441390476af,2024-01-23_19h04.36.348,bars,2023.2.3,Win32,142.8571429,657b66ea316d21385b68909f,,,,,,,,,,,734.1989,735.1982,,,735.6982,735.9482,,137,-43,,,,,,,,,,,,,,,,bars/042.png,bars/mask008.png,,,,,,,,,,,,5,1,,,,,,,8,10,7,8,,,,,,,,,,,735.1982,735.6982,735.9482,739.5692,space,3.6128,,739.5693,8,62,740.5661,740.5661,740.5701,,,,0,20,20,20,1,145,75,,,,,,,,
,,655bca1f7ea1891e17a66d2e,65af55d914893441390476af,2024-01-23_19h04.36.348,bars,2023.2.3,Win32,142.8571429,657b66ea316d21385b68909f,,,,,,,,,,,740.5702,741.5673,,,742.066,742.3173,,43,43,,,,,,,,,,,,,,,,bars/031.png,bars/mask005.png,,,,,,,,,,,,6,2,,,,,,,6,8,5,8,,,,,,,,,,,741.5673,742.066,742.3173,743.3021,space,0.9736,,743.3021,77,8,744.3021,744.3021,744.3027,,,,0,21,21,21,1,120,35,,,,,,,,
,,655bca1f7ea1891e17a66d2e,65af55d914893441390476af,2024-01-23_19h04.36.348,bars,2023.2.3,Win32,142.8571429,657b66ea316d21385b68909f,,,,,,,,,,,744.3028,745.302,,,745.8066,746.0533,,14,14,,,,,,,,,,,,,,,,bars/009.png,bars/mask005.png,,,,,,,,,,,,3,1,,,,,,,4,10,3,10,,,,,,,,,,,745.3021,745.8066,746.0533,747.1979,space,1.1292,,747.1979,1,89,748.1989,748.1989,748.1995,,,,0,22,22,22,1,15,105,,,,,,,,
,,655bca1f7ea1891e17a66d2e,65af55d914893441390476af,2024-01-23_19h04.36.348,bars,2023.2.3,Win32,142.8571429,657b66ea316d21385b68909f,,,,,,,,,,,748.1995,749.1994,,,749.7051,749.9563,,59,59,,,,,,,,,,,,,,,,bars/007.png,bars/mask008.png,,,,,,,,,,,,9,2,,,,,,,2,10,2,10,,,,,,,,,,,749.1994,749.705,749.9563,753.281,space,3.3137,,753.281,64,4,754.281,754.281,754.2851,,,,0,23,23,23,1,175,55,,,,,,,,
,,655bca1f7ea1891e17a66d2e,65af55d914893441390476af,2024-01-23_19h04.36.348,bars,2023.2.3,Win32,142.8571429,657b66ea316d21385b68909f,,,,,,,,,,,754.2852,755.2808,,,755.7809,756.0322,,179,-1,,,,,,,,,,,,,,,,bars/010.png,bars/mask001.png,,,,,,,,,,,,0,1,,,,,,,0,8,0,8,,,,,,,,,,,755.2808,755.7809,756.0322,758.3425,space,2.3034,,758.3425,14,56,759.342,759.342,759.346,,,,0,24,24,24,1,165,55,,,,,,,,
,,655bca1f7ea1891e17a66d2e,65af55d914893441390476af,2024-01-23_19h04.36.348,bars,2023.2.3,Win32,142.8571429,657b66ea316d21385b68909f,,,,,,,,,,,759.3461,760.3433,,,760.8432,761.0933,,73,73,,,,,,,,,,,,,,,,bars/001.png,bars/mask000.png,,,,,,,,,,,,2,2,,,,,,,2,6,3,4,,,,,,,,,,,760.3433,760.8432,761.0933,763.3608,space,2.2598,,763.3608,57,12,764.357,764.3571,764.3651,,,,0,25,25,25,1,130,85,,,,,,,,
,,655bca1f7ea1891e17a66d2e,65af55d914893441390476af,2024-01-23_19h04.36.348,bars,2023.2.3,Win32,142.8571429,657b66ea316d21385b68909f,,,,,,,,,,,764.3652,765.3603,,,765.8569,766.1069,,78,78,,,,,,,,,,,,,,,,bars/012.png,bars/mask008.png,,,,,,,,,,,,0,1,,,,,,,0,8,0,6,,,,,,,,,,,765.3603,765.8568,766.1069,769.6985,space,3.5839,,769.6985,12,63,770.6983,770.6984,770.7023,,,,0,26,26,26,1,90,15,,,,,,,,
,,655bca1f7ea1891e17a66d2e,65af55d914893441390476af,2024-01-23_19h04.36.348,bars,2023.2.3,Win32,142.8571429,657b66ea316d21385b68909f,,,,,,,,,,,770.7024,771.6974,,,772.1972,772.4469,,32,32,,,,,,,,,,,,,,,,bars/013.png,bars/mask000.png,,,,,,,,,,,,2,2,,,,,,,2,10,4,9,,,,,,,,,,,771.6974,772.1972,772.4469,774.0511,space,1.5926,,774.0511,43,22,775.0511,775.0511,775.0517,,,,0,27,27,27,1,75,10,,,,,,,,
,,655bca1f7ea1891e17a66d2e,65af55d914893441390476af,2024-01-23_19h04.36.348,bars,2023.2.3,Win32,142.8571429,657b66ea316d21385b68909f,,,,,,,,,,,775.0517,776.0523,,,776.551,776.8009,,57,57,,,,,,,,,,,,,,,,bars/044.png,bars/mask005.png,,,,,,,,,,,,0,1,,,,,,,0,8,0,9,,,,,,,,,,,776.0523,776.551,776.8009,780.3547,space,3.5395,,780.3547,18,82,781.3521,781.3521,781.3561,,,,0,28,28,28,1,75,155,,,,,,,,
,,655bca1f7ea1891e17a66d2e,65af55d914893441390476af,2024-01-23_19h04.36.348,bars,2023.2.3,Win32,142.8571429,657b66ea316d21385b68909f,,,,,,,,,,,781.3562,782.3578,,,782.8538,783.0994,,36,36,,,,,,,,,,,,,,,,bars/005.png,bars/mask008.png,,,,,,,,,,,,0,1,,,,,,,0,10,0,10,,,,,,,,,,,782.3578,782.8538,783.0994,785.9523,space,2.8393,,785.9523,26,76,786.9519,786.9519,786.9559,,,,0,29,29,29,1,10,140,,,,,,,,
,,655bca1f7ea1891e17a66d2e,65af55d914893441390476af,2024-01-23_19h04.36.348,bars,2023.2.3,Win32,142.8571429,657b66ea316d21385b68909f,,,,,,,,,,,786.9559,787.9535,,,788.4513,788.6964,,139,-41,,,,,,,,,,,,,,,,bars/046.png,bars/mask007.png,,,,,,,,,,,,0,1,,,,,,,2,8,0,9,,,,,,,,,,,787.9535,788.4513,788.6964,791.9332,space,3.2285,,791.9332,16,54,792.9308,792.9308,792.9346,,,,0,30,30,30,1,155,85,,,,,,,,
,,655bca1f7ea1891e17a66d2e,65af55d914893441390476af,2024-01-23_19h04.36.348,bars,2023.2.3,Win32,142.8571429,657b66ea316d21385b68909f,,,,,,,,,,,792.9346,793.9323,,,794.4323,794.6894,,122,122,,,,,,,,,,,,,,,,bars/036.png,bars/mask002.png,,,,,,,,,,,,0,1,,,,,,,0,6,1,5,,,,,,,,,,,793.9323,794.4323,794.6894,797.5687,space,2.8777,,797.5687,23,78,798.5642,798.5642,798.568,,,,0,31,31,31,1,145,20,,,,,,,,
,,655bca1f7ea1891e17a66d2e,65af55d914893441390476af,2024-01-23_19h04.36.348,bars,2023.2.3,Win32,142.8571429,657b66ea316d21385b68909f,,,,,,,,,,,798.568,799.5641,,,800.0683,800.3153,,45,45,,,,,,,,,,,,,,,,bars/005.png,bars/mask008.png,,,,,,,,,,,,0,1,,,,,,,2,4,2,3,,,,,,,,,,,799.5641,800.0683,800.3153,801.6196,space,1.2866,,801.6196,35,85,802.6196,802.6197,802.6198,,,,0,32,32,32,1,10,140,,,,,,,,
,,655bca1f7ea1891e17a66d2e,65af55d914893441390476af,2024-01-23_19h04.36.348,bars,2023.2.3,Win32,142.8571429,657b66ea316d21385b68909f,,,,,,,,,,,802.6199,803.6126,,,804.1125,804.3626,,86,86,,,,,,,,,,,,,,,,bars/025.png,bars/mask005.png,,,,,,,,,,,,1,1,,,,,,,4,2,4,2,,,,,,,,,,,803.6126,804.1125,804.3626,805.7944,space,1.428,,805.7944,19,46,806.793,806.793,806.7932,,,,0,33,33,33,1,105,40,,,,,,,,
,,655bca1f7ea1891e17a66d2e,65af55d914893441390476af,2024-01-23_19h04.36.348,bars,2023.2.3,Win32,142.8571429,657b66ea316d21385b68909f,,,,,,,,,,,806.7933,807.793,,,808.2943,808.5442,,112,112,,,,,,,,,,,,,,,,bars/039.png,bars/mask003.png,,,,,,,,,,,,1,2,,,,,,,6,0,5,1,,,,,,,,,,,807.793,808.2943,808.5442,810.9749,space,2.4238,,810.9749,63,7,811.9747,811.9747,811.9788,,,,0,34,34,34,1,175,105,,,,,,,,
,,655bca1f7ea1891e17a66d2e,65af55d914893441390476af,2024-01-23_19h04.36.348,bars,2023.2.3,Win32,142.8571429,657b66ea316d21385b68909f,,,,,,,,,,,811.9788,812.9746,,,813.4747,813.7231,,48,228,,,,,,,,,,,,,,,,bars/016.png,bars/mask009.png,,,,,,,,,,,,1,1,,,,,,,4,2,2,4,,,,,,,,,,,812.9746,813.4747,813.7232,816.9177,space,3.1918,,816.9177,8,63,817.9177,817.9177,817.9217,,,,0,35,35,35,1,40,165,,,,,,,,
,,655bca1f7ea1891e17a66d2e,65af55d914893441390476af,2024-01-23_19h04.36.348,bars,2023.2.3,Win32,142.8571429,657b66ea316d21385b68909f,,,,,,,,,,,817.9218,818.9177,,,819.4176,819.6621,,118,118,,,,,,,,,,,,,,,,bars/000.png,bars/mask003.png,,,,,,,,,,,,0,2,,,,,,,2,4,2,4,,,,,,,,,,,818.9177,819.4176,819.6621,823.0091,space,3.3403,,823.0091,78,27,824.0077,824.0077,824.012,,,,0,36,36,36,1,40,145,,,,,,,,
,,655bca1f7ea1891e17a66d2e,65af55d914893441390476af,2024-01-23_19h04.36.348,bars,2023.2.3,Win32,142.8571429,657b66ea316d21385b68909f,,,,,,,,,,,824.0121,825.0076,,,825.5088,825.7578,,98,98,,,,,,,,,,,,,,,,bars/008.png,bars/mask009.png,,,,,,,,,,,,2,1,,,,,,,4,2,4,3,,,,,,,,,,,825.0076,825.5088,825.7578,827.1326,space,1.3614,,827.1326,12,82,828.1326,828.1326,828.1333,,,,0,37,37,37,1,110,0,,,,,,,,
,,655bca1f7ea1891e17a66d2e,65af55d914893441390476af,2024-01-23_19h04.36.348,bars,2023.2.3,Win32,142.8571429,657b66ea316d21385b68909f,,,,,,,,,,,828.1333,829.1325,,,829.636,829.8826,,101,101,,,,,,,,,,,,,,,,bars/018.png,bars/mask007.png,,,,,,,,,,,,3,2,,,,,,,6,4,6,5,,,,,,,,,,,829.1326,829.636,829.8826,831.5765,space,1.6796,,831.5765,49,11,832.576,832.576,832.5765,,,,0,38,38,38,1,150,90,,,,,,,,
,,655bca1f7ea1891e17a66d2e,65af55d914893441390476af,2024-01-23_19h04.36.348,bars,2023.2.3,Win32,142.8571429,657b66ea316d21385b68909f,,,,,,,,,,,832.5766,833.5769,,,834.0755,834.3211,,15,15,,,,,,,,,,,,,,,,bars/009.png,bars/mask001.png,,,,,,,,,,,,6,1,,,,,,,4,6,6,7,,,,,,,,,,,833.577,834.0755,834.3211,837.0003,space,2.6678,,837.0003,0,90,838.0014,838.0014,838.0055,,,,0,39,39,39,1,15,105,,,,,,,,
,,655bca1f7ea1891e17a66d2e,65af55d914893441390476af,2024-01-23_19h04.36.348,bars,2023.2.3,Win32,142.8571429,657b66ea316d21385b68909f,,,,,,,,,,,838.0055,839.0003,,,839.5002,839.7541,,17,17,,,,,,,,,,,,,,,,bars/014.png,bars/mask005.png,,,,,,,,,,,,2,2,,,,,,,6,4,7,4,,,,,,,,,,,839.0003,839.5002,839.7541,842.9933,space,3.2335,,842.9933,63,17,843.9932,843.9932,843.9973,,,,0,40,40,40,1,80,0,,,,,,,,
,,655bca1f7ea1891e17a66d2e,65af55d914893441390476af,2024-01-23_19h04.36.348,bars,2023.2.3,Win32,142.8571429,657b66ea316d21385b68909f,,,,,,,,,,,843.9973,844.9943,,,845.4931,845.7445,,6,6,,,,,,,,,,,,,,,,bars/003.png,bars/mask003.png,,,,,,,,,,,,2,1,,,,,,,4,2,5,1,,,,,,,,,,,844.9943,845.4931,845.7445,847.3208,space,1.5695,,847.3208,19,46,848.3194,848.3194,848.32,,,,0,41,41,41,1,25,140,,,,,,,,
,,655bca1f7ea1891e17a66d2e,65af55d914893441390476af,2024-01-23_19h04.36.348,bars,2023.2.3,Win32,142.8571429,657b66ea316d21385b68909f,,,,,,,,,,,848.3201,849.3207,,,849.8205,850.0776,,26,206,,,,,,,,,,,,,,,,bars/025.png,bars/mask006.png,,,,,,,,,,,,2,2,,,,,,,2,4,3,4,,,,,,,,,,,849.3207,849.8205,850.0776,851.9721,space,1.8855,,851.9721,79,14,852.9696,852.9696,852.9701,,,,0,42,42,42,1,105,40,,,,,,,,
,,655bca1f7ea1891e17a66d2e,65af55d914893441390476af,2024-01-23_19h04.36.348,bars,2023.2.3,Win32,142.8571429,657b66ea316d21385b68909f,,,,,,,,,,,852.9702,853.972,,,854.472,854.728,,19,199,,,,,,,,,,,,,,,,bars/047.png,bars/mask007.png,,,,,,,,,,,,4,1,,,,,,,4,2,5,1,,,,,,,,,,,853.972,854.472,854.728,858.0636,space,3.3336,,858.0636,4,51,859.0621,859.0621,859.0662,,,,0,43,43,43,1,15,70,,,,,,,,
,,655bca1f7ea1891e17a66d2e,65af55d914893441390476af,2024-01-23_19h04.36.348,bars,2023.2.3,Win32,142.8571429,657b66ea316d21385b68909f,,,,,,,,,,,859.0662,860.0621,,,860.5648,860.812,,40,40,,,,,,,,,,,,,,,,bars/007.png,bars/mask004.png,,,,,,,,,,,,0,2,,,,,,,6,0,5,0,,,,,,,,,,,860.0621,860.5648,860.812,863.7257,space,2.9122,,863.7257,45,15,864.7216,864.7216,864.7257,,,,0,44,44,44,1,175,55,,,,,,,,
,,655bca1f7ea1891e17a66d2e,65af55d914893441390476af,2024-01-23_19h04.36.348,bars,2023.2.3,Win32,142.8571429,657b66ea316d21385b68909f,,,,,,,,,,,864.7258,865.7215,,,866.2216,866.4716,,137,-43,,,,,,,,,,,,,,,,bars/002.png,bars/mask007.png,,,,,,,,,,,,7,1,,,,,,,8,0,9,0,,,,,,,,,,,865.7216,866.2216,866.4716,868.7243,space,2.2513,,868.7243,7,52,869.7215,869.7215,869.7255,,,,0,45,45,45,1,130,85,,,,,,,,
,,655bca1f7ea1891e17a66d2e,65af55d914893441390476af,2024-01-23_19h04.36.348,bars,2023.2.3,Win32,142.8571429,657b66ea316d21385b68909f,,,,,,,,,,,869.7255,870.7215,,,871.2216,871.4726,,173,173,,,,,,,,,,,,,,,,bars/045.png,bars/mask009.png,,,,,,,,,,,,0,2,,,,,,,6,0,8,0,,,,,,,,,,,870.7215,871.2216,871.4726,873.1449,space,1.6604,,873.1449,73,17,874.1422,874.1422,874.1464,,,,0,46,46,46,1,100,10,,,,,,,,
,,655bca1f7ea1891e17a66d2e,65af55d914893441390476af,2024-01-23_19h04.36.348,bars,2023.2.3,Win32,142.8571429,657b66ea316d21385b68909f,,,,,,,,,,,874.1465,875.145,,,875.6418,875.888,,107,107,,,,,,,,,,,,,,,,bars/015.png,bars/mask005.png,,,,,,,,,,,,7,1,,,,,,,8,2,8,3,,,,,,,,,,,875.145,875.6418,875.888,877.0205,space,1.1192,,877.0205,3,53,878.0199,878.0199,878.0203,,,,0,47,47,47,1,110,160,,,,,,,,
,,655bca1f7ea1891e17a66d2e,65af55d914893441390476af,2024-01-23_19h04.36.348,bars,2023.2.3,Win32,142.8571429,657b66ea316d21385b68909f,,,,,,,,,,,878.0204,879.0198,,,879.5198,879.7698,,150,150,,,,,,,,,,,,,,,,bars/033.png,bars/mask003.png,,,,,,,,,,,,3,2,,,,,,,10,4,10,3,,,,,,,,,,,879.0198,879.5198,879.7698,881.9086,space,2.1316,,881.9086,55,5,882.9085,882.9085,882.9091,,,,0,48,48,48,1,25,155,,,,,,,,
,,655bca1f7ea1891e17a66d2e,65af55d914893441390476af,2024-01-23_19h04.36.348,bars,2023.2.3,Win32,142.8571429,657b66ea316d21385b68909f,,,,,,,,,,,882.9092,883.9084,,,884.4086,884.6585,,68,248,,,,,,,,,,,,,,,,bars/029.png,bars/mask002.png,,,,,,,,,,,,3,1,,,,,,,10,2,10,2,,,,,,,,,,,883.9085,884.4086,884.6585,889.6583,space,4.9967,,889.6583,22,23,890.6563,890.6563,890.6604,,,,0,49,49,49,1,90,45,,,,,,,,
,,655bca1f7ea1891e17a66d2e,65af55d914893441390476af,2024-01-23_19h04.36.348,bars,2023.2.3,Win32,142.8571429,657b66ea316d21385b68909f,,,,,,,,,,,,,,,,,,,,,,,,,,,,,,,,,,,,,,,,,,,,,,,,,,,,,,,,,,,,,,,,,,,,,,,,,,,,,,,,,,,,,,,,,,,,,890.6604,950.6575,0,1,1,4,1,sequence_tables/blk046.csv
,,655bca1f7ea1891e17a66d2e,65af55d914893441390476af,2024-01-23_19h04.36.348,bars,2023.2.3,Win32,142.8571429,657b66ea316d21385b68909f,,,,,,,,,,,984.2996,985.2953,,,985.7953,986.044,,122,122,,,,,,,,,,,,,,,,bars/000.png,bars/mask001.png,,,,,,,,,,,,2,2,,,,,,,10,7,10,7,,,,,,950.6614,984.294,space,33.6245,,985.2953,985.7953,986.044,987.9818,space,1.9363,,987.9818,82,23,988.9815,988.9815,988.9858,,,,0,0,0,0,1,40,145,,,,,,,,
,,655bca1f7ea1891e17a66d2e,65af55d914893441390476af,2024-01-23_19h04.36.348,bars,2023.2.3,Win32,142.8571429,657b66ea316d21385b68909f,,,,,,,,,,,988.9859,989.9809,,,990.4813,990.7327,,11,191,,,,,,,,,,,,,,,,bars/047.png,bars/mask004.png,,,,,,,,,,,,7,1,,,,,,,8,9,8,8,,,,,,,,,,,989.9809,990.4813,990.7327,992.9048,space,2.1652,,992.9048,4,59,993.9056,993.9057,993.9062,,,,0,1,1,1,1,15,70,,,,,,,,
,,655bca1f7ea1891e17a66d2e,65af55d914893441390476af,2024-01-23_19h04.36.348,bars,2023.2.3,Win32,142.8571429,657b66ea316d21385b68909f,,,,,,,,,,,993.9064,994.906,,,995.4061,995.6547,,82,82,,,,,,,,,,,,,,,,bars/026.png,bars/mask008.png,,,,,,,,,,,,6,2,,,,,,,6,7,4,7,,,,,,,,,,,994.906,995.4061,995.6547,998.1422,space,2.4792,,998.1422,47,3,999.1409,999.1409,999.1448,,,,0,2,2,2,1,35,85,,,,,,,,
,,655bca1f7ea1891e17a66d2e,65af55d914893441390476af,2024-01-23_19h04.36.348,bars,2023.2.3,Win32,142.8571429,657b66ea316d21385b68909f,,,,,,,,,,,999.1449,1000.1409,,,1000.6409,1000.8907,,129,129,,,,,,,,,,,,,,,,bars/036.png,bars/mask001.png,,,,,,,,,,,,4,1,,,,,,,8,9,8,10,,,,,,,,,,,1000.1409,1000.6409,1000.8907,1004.5504,space,3.6548,,1004.5504,16,71,1005.5502,1005.5503,1005.5544,,,,0,3,3,3,1,145,20,,,,,,,,
,,655bca1f7ea1891e17a66d2e,65af55d914893441390476af,2024-01-23_19h04.36.348,bars,2023.2.3,Win32,142.8571429,657b66ea316d21385b68909f,,,,,,,,,,,1005.5544,1006.5513,,,1007.0502,1007.3015,,141,141,,,,,,,,,,,,,,,,bars/043.png,bars/mask006.png,,,,,,,,,,,,4,2,,,,,,,10,7,9,7,,,,,,,,,,,1006.5513,1007.0502,1007.3015,1008.1196,space,0.8074,,1008.1196,69,11,1009.1151,1009.1151,1009.1157,,,,0,4,4,4,1,30,130,,,,,,,,
,,655bca1f7ea1891e17a66d2e,65af55d914893441390476af,2024-01-23_19h04.36.348,bars,2023.2.3,Win32,142.8571429,657b66ea316d21385b68909f,,,,,,,,,,,1009.1158,1010.1126,,,1010.6126,1010.8626,,141,-39,,,,,,,,,,,,,,,,bars/001.png,bars/mask000.png,,,,,,,,,,,,5,1,,,,,,,8,5,8,7,,,,,,,,,,,1010.1126,1010.6126,1010.8626,1013.4535,space,2.5795,,1013.4535,11,56,1014.4458,1014.4458,1014.45,,,,0,5,5,5,1,130,85,,,,,,,,
,,655bca1f7ea1891e17a66d2e,65af55d914893441390476af,2024-01-23_19h04.36.348,bars,2023.2.3,Win32,142.8571429,657b66ea316d21385b68909f,,,,,,,,,,,1014.4501,1015.4457,,,1015.946,1016.1959,,139,139,,,,,,,,,,,,,,,,bars/033.png,bars/mask007.png,,,,,,,,,,,,1,2,,,,,,,10,3,10,3,,,,,,,,,,,1015.4457,1015.9459,1016.1959,1018.8145,space,2.6116,,1018.8145,66,16,1019.8136,1019.8136,1019.8181,,,,0,6,6,6,1,25,155,,,,,,,,
,,655bca1f7ea1891e17a66d2e,65af55d914893441390476af,2024-01-23_19h04.36.348,bars,2023.2.3,Win32,142.8571429,657b66ea316d21385b68909f,,,,,,,,,,,1019.8181,1020.8137,,,1021.3136,1021.5699,,80,80,,,,,,,,,,,,,,,,bars/012.png,bars/mask001.png,,,,,,,,,,,,4,1,,,,,,,8,5,6,2,,,,,,,,,,,1020.8137,1021.3136,1021.5699,1023.0997,space,1.5279,,1023.0997,10,65,1024.0982,1024.0982,1024.0989,,,,0,7,7,7,1,90,15,,,,,,,,
,,655bca1f7ea1891e17a66d2e,65af55d914893441390476af,2024-01-23_19h04.36.348,bars,2023.2.3,Win32,142.8571429,657b66ea316d21385b68909f,,,,,,,,,,,1024.099,1025.0982,,,1025.5983,1025.8495,,140,140,,,,,,,,,,,,,,,,bars/024.png,bars/mask003.png,,,,,,,,,,,,3,1,,,,,,,10,3,10,2,,,,,,,,,,,1025.0982,1025.5983,1025.8495,1027.5925,space,1.7362,,1027.5925,20,30,1028.5885,1028.5885,1028.5923,,,,0,8,8,8,1,120,170,,,,,,,,
,,655bca1f7ea1891e17a66d2e,65af55d914893441390476af,2024-01-23_19h04.36.348,bars,2023.2.3,Win32,142.8571429,657b66ea316d21385b68909f,,,,,,,,,,,1028.5923,1029.5911,,,1030.0923,1030.3412,,159,-21,,,,,,,,,,,,,,,,bars/018.png,bars/mask008.png,,,,,,,,,,,,7,1,,,,,,,10,1,10,3,,,,,,,,,,,1029.5911,1030.0923,1030.3412,1032.2937,space,1.9444,,1032.2937,9,69,1033.2924,1033.2924,1033.2962,,,,0,9,9,9,1,150,90,,,,,,,,
,,655bca1f7ea1891e17a66d2e,65af55d914893441390476af,2024-01-23_19h04.36.348,bars,2023.2.3,Win32,142.8571429,657b66ea316d21385b68909f,,,,,,,,,,,1033.2962,1034.2936,,,1034.7924,1035.0423,,154,-26,,,,,,,,,,,,,,,,bars/000.png,bars/mask005.png,,,,,,,,,,,,0,2,,,,,,,8,0,9,0,,,,,,,,,,,1034.2936,1034.7924,1035.0424,1038.2103,space,3.1657,,1038.2103,66,9,1039.2088,1039.2088,1039.213,,,,0,10,10,10,1,40,145,,,,,,,,
,,655bca1f7ea1891e17a66d2e,65af55d914893441390476af,2024-01-23_19h04.36.348,bars,2023.2.3,Win32,142.8571429,657b66ea316d21385b68909f,,,,,,,,,,,1039.2131,1040.2101,,,1040.7088,1040.9589,,127,127,,,,,,,,,,,,,,,,bars/017.png,bars/mask008.png,,,,,,,,,,,,3,1,,,,,,,6,2,7,2,,,,,,,,,,,1040.2101,1040.7088,1040.9589,1042.349,space,1.3852,,1042.349,18,82,1043.3476,1043.3476,1043.3482,,,,0,11,11,11,1,145,45,,,,,,,,
,,655bca1f7ea1891e17a66d2e,65af55d914893441390476af,2024-01-23_19h04.36.348,bars,2023.2.3,Win32,142.8571429,657b66ea316d21385b68909f,,,,,,,,,,,1043.3483,1044.3476,,,1044.8433,1045.0918,,15,15,,,,,,,,,,,,,,,,bars/036.png,bars/mask007.png,,,,,,,,,,,,0,2,,,,,,,8,0,9,0,,,,,,,,,,,1044.3476,1044.8433,1045.0918,1047.91,space,2.802,,1047.91,50,5,1048.9112,1048.9112,1048.9152,,,,0,12,12,12,1,145,20,,,,,,,,
,,655bca1f7ea1891e17a66d2e,65af55d914893441390476af,2024-01-23_19h04.36.348,bars,2023.2.3,Win32,142.8571429,657b66ea316d21385b68909f,,,,,,,,,,,1048.9153,1049.9206,,,1050.4208,1050.6669,,127,127,,,,,,,,,,,,,,,,bars/021.png,bars/mask009.png,,,,,,,,,,,,1,1,,,,,,,10,2,9,0,,,,,,,,,,,1049.9206,1050.4207,1050.6669,1052.189,space,1.5091,,1052.189,28,57,1053.1886,1053.1886,1053.1927,,,,0,13,13,13,1,155,70,,,,,,,,
,,655bca1f7ea1891e17a66d2e,65af55d914893441390476af,2024-01-23_19h04.36.348,bars,2023.2.3,Win32,142.8571429,657b66ea316d21385b68909f,,,,,,,,,,,1053.1928,1054.1876,,,1054.6875,1054.9387,,167,167,,,,,,,,,,,,,,,,bars/046.png,bars/mask002.png,,,,,,,,,,,,6,1,,,,,,,8,4,10,6,,,,,,,,,,,1054.1876,1054.6875,1054.9387,1058.2152,space,3.2644,,1058.2152,12,82,1059.2152,1059.2152,1059.219,,,,0,14,14,14,1,155,85,,,,,,,,
,,655bca1f7ea1891e17a66d2e,65af55d914893441390476af,2024-01-23_19h04.36.348,bars,2023.2.3,Win32,142.8571429,657b66ea316d21385b68909f,,,,,,,,,,,1059.219,1060.2152,,,1060.7163,1060.9663,,133,-47,,,,,,,,,,,,,,,,bars/023.png,bars/mask000.png,,,,,,,,,,,,1,2,,,,,,,10,2,10,3,,,,,,,,,,,1060.2152,1060.7163,1060.9663,1063.9387,space,2.9618,,1063.9387,67,18,1064.9382,1064.9383,1064.9423,,,,0,15,15,15,1,20,115,,,,,,,,
,,655bca1f7ea1891e17a66d2e,65af55d914893441390476af,2024-01-23_19h04.36.348,bars,2023.2.3,Win32,142.8571429,657b66ea316d21385b68909f,,,,,,,,,,,1064.9424,1065.9449,,,1066.4454,1066.694,,80,80,,,,,,,,,,,,,,,,bars/022.png,bars/mask002.png,,,,,,,,,,,,4,1,,,,,,,8,0,7,0,,,,,,,,,,,1065.945,1066.4453,1066.694,1069.0136,space,2.3115,,1069.0136,15,60,1070.0131,1070.0131,1070.0171,,,,0,16,16,16,1,95,20,,,,,,,,
,,655bca1f7ea1891e17a66d2e,65af55d914893441390476af,2024-01-23_19h04.36.348,bars,2023.2.3,Win32,142.8571429,657b66ea316d21385b68909f,,,,,,,,,,,1070.0172,1071.0125,,,1071.5127,1071.7646,,36,216,,,,,,,,,,,,,,,,bars/043.png,bars/mask000.png,,,,,,,,,,,,8,1,,,,,,,10,0,10,0,,,,,,,,,,,1071.0125,1071.5127,1071.7646,1074.5119,space,2.7403,,1074.5119,6,86,1075.5144,1075.5144,1075.5183,,,,0,17,17,17,1,30,130,,,,,,,,
,,655bca1f7ea1891e17a66d2e,65af55d914893441390476af,2024-01-23_19h04.36.348,bars,2023.2.3,Win32,142.8571429,657b66ea316d21385b68909f,,,,,,,,,,,1075.5184,1076.5135,,,1077.0108,1077.2575,,162,162,,,,,,,,,,,,,,,,bars/010.png,bars/mask005.png,,,,,,,,,,,,8,1,,,,,,,10,2,9,4,,,,,,,,,,,1076.5135,1077.0108,1077.2575,1078.9714,space,1.7,,1078.9714,3,73,1079.9715,1079.9715,1079.9717,,,,0,18,18,18,1,165,55,,,,,,,,
,,655bca1f7ea1891e17a66d2e,65af55d914893441390476af,2024-01-23_19h04.36.348,bars,2023.2.3,Win32,142.8571429,657b66ea316d21385b68909f,,,,,,,,,,,1079.9718,1080.9726,,,1081.4716,1081.7222,,171,171,,,,,,,,,,,,,,,,bars/005.png,bars/mask006.png,,,,,,,,,,,,4,1,,,,,,,10,4,10,4,,,,,,,,,,,1080.9726,1081.4716,1081.7222,1082.4293,space,0.6999,,1082.4294,19,31,1083.4295,1083.4296,1083.4299,,,,0,19,19,19,1,10,140,,,,,,,,
,,655bca1f7ea1891e17a66d2e,65af55d914893441390476af,2024-01-23_19h04.36.348,bars,2023.2.3,Win32,142.8571429,657b66ea316d21385b68909f,,,,,,,,,,,1083.43,1084.4286,,,1084.924,1085.1726,,137,137,,,,,,,,,,,,,,,,bars/040.png,bars/mask003.png,,,,,,,,,,,,8,1,,,,,,,10,6,9,6,,,,,,,,,,,1084.4286,1084.924,1085.1726,1086.7074,space,1.5333,,1086.7074,3,48,1087.707,1087.707,1087.7072,,,,0,20,20,20,1,140,5,,,,,,,,
,,655bca1f7ea1891e17a66d2e,65af55d914893441390476af,2024-01-23_19h04.36.348,bars,2023.2.3,Win32,142.8571429,657b66ea316d21385b68909f,,,,,,,,,,,1087.7073,1088.7085,,,1089.2063,1089.4572,,64,-116,,,,,,,,,,,,,,,,bars/013.png,bars/mask005.png,,,,,,,,,,,,4,1,,,,,,,8,4,7,2,,,,,,,,,,,1088.7085,1089.2062,1089.4573,1093.7626,space,4.302,,1093.7626,11,54,1094.7649,1094.7649,1094.7686,,,,0,21,21,21,1,75,10,,,,,,,,
,,655bca1f7ea1891e17a66d2e,65af55d914893441390476af,2024-01-23_19h04.36.348,bars,2023.2.3,Win32,142.8571429,657b66ea316d21385b68909f,,,,,,,,,,,1094.7687,1095.7638,,,1096.2625,1096.5125,,119,119,,,,,,,,,,,,,,,,bars/045.png,bars/mask008.png,,,,,,,,,,,,3,1,,,,,,,10,6,9,8,,,,,,,,,,,1095.7638,1096.2625,1096.5125,1099.5887,space,3.0727,,1099.5887,19,71,1100.5887,1100.5887,1100.5925,,,,0,22,22,22,1,100,10,,,,,,,,
,,655bca1f7ea1891e17a66d2e,65af55d914893441390476af,2024-01-23_19h04.36.348,bars,2023.2.3,Win32,142.8571429,657b66ea316d21385b68909f,,,,,,,,,,,1100.5925,1101.5887,,,1102.0887,1102.3425,,154,154,,,,,,,,,,,,,,,,bars/049.png,bars/mask007.png,,,,,,,,,,,,8,1,,,,,,,10,4,10,2,,,,,,,,,,,1101.5887,1102.0886,1102.3425,1104.3178,space,1.9678,,1104.3178,6,39,1105.3177,1105.3177,1105.3214,,,,0,23,23,23,1,160,115,,,,,,,,
,,655bca1f7ea1891e17a66d2e,65af55d914893441390476af,2024-01-23_19h04.36.348,bars,2023.2.3,Win32,142.8571429,657b66ea316d21385b68909f,,,,,,,,,,,1105.3215,1106.319,,,1106.8177,1107.0677,,139,139,,,,,,,,,,,,,,,,bars/017.png,bars/mask005.png,,,,,,,,,,,,8,1,,,,,,,10,2,10,2,,,,,,,,,,,1106.3191,1106.8177,1107.0677,1107.8009,space,0.7317,,1107.8009,6,86,1108.8002,1108.8002,1108.8004,,,,0,24,24,24,1,145,45,,,,,,,,
,,655bca1f7ea1891e17a66d2e,65af55d914893441390476af,2024-01-23_19h04.36.348,bars,2023.2.3,Win32,142.8571429,657b66ea316d21385b68909f,,,,,,,,,,,1108.8005,1109.798,,,1110.2996,1110.5478,,19,199,,,,,,,,,,,,,,,,bars/003.png,bars/mask006.png,,,,,,,,,,,,6,1,,,,,,,8,4,7,4,,,,,,,,,,,1109.798,1110.2996,1110.5478,1114.3521,space,3.7906,,1114.3521,6,59,1115.3521,1115.3521,1115.3559,,,,0,25,25,25,1,25,140,,,,,,,,
,,655bca1f7ea1891e17a66d2e,65af55d914893441390476af,2024-01-23_19h04.36.348,bars,2023.2.3,Win32,142.8571429,657b66ea316d21385b68909f,,,,,,,,,,,1115.356,1116.352,,,1116.852,1117.1032,,145,-35,,,,,,,,,,,,,,,,bars/036.png,bars/mask000.png,,,,,,,,,,,,10,1,,,,,,,10,6,10,6,,,,,,,,,,,1116.352,1116.852,1117.1033,1120.1576,space,3.0458,,1120.1576,0,55,1121.1574,1121.1575,1121.1613,,,,0,26,26,26,1,145,20,,,,,,,,
,,655bca1f7ea1891e17a66d2e,65af55d914893441390476af,2024-01-23_19h04.36.348,bars,2023.2.3,Win32,142.8571429,657b66ea316d21385b68909f,,,,,,,,,,,1121.1613,1122.1576,,,1122.6587,1122.9074,,70,70,,,,,,,,,,,,,,,,bars/029.png,bars/mask000.png,,,,,,,,,,,,3,1,,,,,,,10,8,10,8,,,,,,,,,,,1122.1576,1122.6587,1122.9074,1126.0198,space,3.0973,,1126.0198,20,25,1127.0184,1127.0184,1127.0222,,,,0,27,27,27,1,90,45,,,,,,,,
,,655bca1f7ea1891e17a66d2e,65af55d914893441390476af,2024-01-23_19h04.36.348,bars,2023.2.3,Win32,142.8571429,657b66ea316d21385b68909f,,,,,,,,,,,1127.0223,1128.0195,,,1128.5194,1128.773,,133,133,,,,,,,,,,,,,,,,bars/037.png,bars/mask009.png,,,,,,,,,,,,4,1,,,,,,,8,10,10,9,,,,,,,,,,,1128.0195,1128.5194,1128.773,1130.096,space,1.3196,,1130.096,17,28,1131.0957,1131.0957,1131.0995,,,,0,28,28,28,1,150,105,,,,,,,,
,,655bca1f7ea1891e17a66d2e,65af55d914893441390476af,2024-01-23_19h04.36.348,bars,2023.2.3,Win32,142.8571429,657b66ea316d21385b68909f,,,,,,,,,,,1131.0996,1132.0958,,,1132.5921,1132.8389,,96,96,,,,,,,,,,,,,,,,bars/045.png,bars/mask003.png,,,,,,,,,,,,9,1,,,,,,,10,10,10,10,,,,,,,,,,,1132.0958,1132.5921,1132.839,1134.0543,space,1.2015,,1134.0543,4,86,1135.0528,1135.0528,1135.0566,,,,0,29,29,29,1,100,10,,,,,,,,
,,655bca1f7ea1891e17a66d2e,65af55d914893441390476af,2024-01-23_19h04.36.348,bars,2023.2.3,Win32,142.8571429,657b66ea316d21385b68909f,,,,,,,,,,,1135.0566,1136.0539,,,1136.5504,1136.797,,133,133,,,,,,,,,,,,,,,,bars/018.png,bars/mask008.png,,,,,,,,,,,,3,1,,,,,,,8,10,6,10,,,,,,,,,,,1136.0539,1136.5503,1136.797,1138.8291,space,2.0186,,1138.8291,17,43,1139.8286,1139.8287,1139.8324,,,,0,30,30,30,1,150,90,,,,,,,,
,,655bca1f7ea1891e17a66d2e,65af55d914893441390476af,2024-01-23_19h04.36.348,bars,2023.2.3,Win32,142.8571429,657b66ea316d21385b68909f,,,,,,,,,,,1139.8326,1140.8303,,,1141.3303,1141.5815,,55,55,,,,,,,,,,,,,,,,bars/044.png,bars/mask009.png,,,,,,,,,,,,3,1,,,,,,,6,8,8,9,,,,,,,,,,,1140.8304,1141.3303,1141.5815,1143.0595,space,1.4654,,1143.0595,20,80,1144.0609,1144.0609,1144.0612,,,,0,31,31,31,1,75,155,,,,,,,,
,,655bca1f7ea1891e17a66d2e,65af55d914893441390476af,2024-01-23_19h04.36.348,bars,2023.2.3,Win32,142.8571429,657b66ea316d21385b68909f,,,,,,,,,,,1144.0612,1145.0664,,,1145.5668,1145.8176,,125,125,,,,,,,,,,,,,,,,bars/015.png,bars/mask006.png,,,,,,,,,,,,2,1,,,,,,,4,10,4,10,,,,,,,,,,,1145.0664,1145.5668,1145.8176,1149.4761,space,3.6453,,1149.4761,15,35,1150.4759,1150.4759,1150.4797,,,,0,32,32,32,1,110,160,,,,,,,,
,,655bca1f7ea1891e17a66d2e,65af55d914893441390476af,2024-01-23_19h04.36.348,bars,2023.2.3,Win32,142.8571429,657b66ea316d21385b68909f,,,,,,,,,,,1150.4798,1151.476,,,1151.9759,1152.226,,104,104,,,,,,,,,,,,,,,,bars/025.png,bars/mask003.png,,,,,,,,,,,,2,1,,,,,,,2,8,2,8,,,,,,,,,,,1151.476,1151.9758,1152.226,1153.3509,space,1.1178,,1153.3509,1,64,1154.3508,1154.3508,1154.3511,,,,0,33,33,33,1,105,40,,,,,,,,
,,655bca1f7ea1891e17a66d2e,65af55d914893441390476af,2024-01-23_19h04.36.348,bars,2023.2.3,Win32,142.8571429,657b66ea316d21385b68909f,,,,,,,,,,,1154.3512,1155.3507,,,1155.8516,1156.1007,,154,-26,,,,,,,,,,,,,,,,bars/046.png,bars/mask006.png,,,,,,,,,,,,5,1,,,,,,,4,6,5,6,,,,,,,,,,,1155.3507,1155.8516,1156.1007,1160.6216,space,4.5177,,1160.6216,1,69,1161.6213,1161.6213,1161.6251,,,,0,34,34,34,1,155,85,,,,,,,,
,,655bca1f7ea1891e17a66d2e,65af55d914893441390476af,2024-01-23_19h04.36.348,bars,2023.2.3,Win32,142.8571429,657b66ea316d21385b68909f,,,,,,,,,,,1161.6252,1162.6214,,,1163.1206,1163.3656,,31,31,,,,,,,,,,,,,,,,bars/033.png,bars/mask000.png,,,,,,,,,,,,2,1,,,,,,,2,4,2,4,,,,,,,,,,,1162.6214,1163.1205,1163.3656,1166.4394,space,3.0668,,1166.4395,6,56,1167.4389,1167.4389,1167.4429,,,,0,35,35,35,1,25,155,,,,,,,,
,,655bca1f7ea1891e17a66d2e,65af55d914893441390476af,2024-01-23_19h04.36.348,bars,2023.2.3,Win32,142.8571429,657b66ea316d21385b68909f,,,,,,,,,,,1167.4429,1168.4405,,,1168.9384,1169.1848,,36,36,,,,,,,,,,,,,,,,bars/000.png,bars/mask001.png,,,,,,,,,,,,3,1,,,,,,,4,2,4,1,,,,,,,,,,,1168.4406,1168.9384,1169.1848,1170.6211,space,1.4277,,1170.6211,4,71,1171.621,1171.621,1171.6213,,,,0,36,36,36,1,40,145,,,,,,,,
,,655bca1f7ea1891e17a66d2e,65af55d914893441390476af,2024-01-23_19h04.36.348,bars,2023.2.3,Win32,142.8571429,657b66ea316d21385b68909f,,,,,,,,,,,1171.6213,1172.6178,,,1173.1177,1173.3651,,128,128,,,,,,,,,,,,,,,,bars/042.png,bars/mask002.png,,,,,,,,,,,,0,1,,,,,,,2,0,0,0,,,,,,,,,,,1172.6178,1173.1177,1173.3651,1176.8374,space,3.4648,,1176.8374,17,53,1177.8361,1177.8361,1177.8399,,,,0,37,37,37,1,145,75,,,,,,,,
,,655bca1f7ea1891e17a66d2e,65af55d914893441390476af,2024-01-23_19h04.36.348,bars,2023.2.3,Win32,142.8571429,657b66ea316d21385b68909f,,,,,,,,,,,1177.84,1178.8374,,,1179.3372,1179.586,,44,44,,,,,,,,,,,,,,,,bars/004.png,bars/mask008.png,,,,,,,,,,,,0,1,,,,,,,0,0,0,2,,,,,,,,,,,1178.8374,1179.3372,1179.586,1182.9401,space,3.3385,,1182.9401,19,81,1183.9413,1183.9413,1183.9451,,,,0,38,38,38,1,25,125,,,,,,,,
,,655bca1f7ea1891e17a66d2e,65af55d914893441390476af,2024-01-23_19h04.36.348,bars,2023.2.3,Win32,142.8571429,657b66ea316d21385b68909f,,,,,,,,,,,1183.9452,1184.9469,,,1185.4525,1185.6969,,55,55,,,,,,,,,,,,,,,,bars/028.png,bars/mask001.png,,,,,,,,,,,,1,1,,,,,,,2,0,2,0,,,,,,,,,,,1184.9469,1185.4525,1185.6969,1186.9886,space,1.2833,,1186.9886,10,65,1187.9931,1187.9931,1187.9934,,,,0,39,39,39,1,45,120,,,,,,,,
,,655bca1f7ea1891e17a66d2e,65af55d914893441390476af,2024-01-23_19h04.36.348,bars,2023.2.3,Win32,142.8571429,657b66ea316d21385b68909f,,,,,,,,,,,1187.9934,1188.9885,,,1189.4885,1189.7384,,178,-2,,,,,,,,,,,,,,,,bars/010.png,bars/mask007.png,,,,,,,,,,,,2,1,,,,,,,4,0,3,0,,,,,,,,,,,1188.9885,1189.4885,1189.7384,1193.3233,space,3.5763,,1193.3233,13,57,1194.3218,1194.3219,1194.3257,,,,0,40,40,40,1,165,55,,,,,,,,
,,655bca1f7ea1891e17a66d2e,65af55d914893441390476af,2024-01-23_19h04.36.348,bars,2023.2.3,Win32,142.8571429,657b66ea316d21385b68909f,,,,,,,,,,,1194.3258,1195.3215,,,1195.8292,1196.0785,,148,148,,,,,,,,,,,,,,,,bars/038.png,bars/mask006.png,,,,,,,,,,,,1,1,,,,,,,2,0,3,0,,,,,,,,,,,1195.3215,1195.8292,1196.0785,1196.8841,space,0.792,,1196.8842,17,78,1197.889,1197.889,1197.8893,,,,0,41,41,41,1,165,70,,,,,,,,
,,655bca1f7ea1891e17a66d2e,65af55d914893441390476af,2024-01-23_19h04.36.348,bars,2023.2.3,Win32,142.8571429,657b66ea316d21385b68909f,,,,,,,,,,,1197.8894,1198.8853,,,1199.389,1199.635,,130,130,,,,,,,,,,,,,,,,bars/034.png,bars/mask000.png,,,,,,,,,,,,1,1,,,,,,,0,0,1,0,,,,,,,,,,,1198.8853,1199.389,1199.6351,1202.4201,space,2.7725,,1202.4202,5,65,1203.4185,1203.4185,1203.4222,,,,0,42,42,42,1,125,65,,,,,,,,
,,655bca1f7ea1891e17a66d2e,65af55d914893441390476af,2024-01-23_19h04.36.348,bars,2023.2.3,Win32,142.8571429,657b66ea316d21385b68909f,,,,,,,,,,,1203.4223,1204.4184,,,1204.9257,1205.1767,,120,120,,,,,,,,,,,,,,,,bars/046.png,bars/mask004.png,,,,,,,,,,,,0,2,,,,,,,2,2,1,2,,,,,,,,,,,1204.4184,1204.9257,1205.1767,1209.0711,space,3.8788,,1209.0711,35,35,1210.0723,1210.0723,1210.0763,,,,0,43,43,43,1,155,85,,,,,,,,
,,655bca1f7ea1891e17a66d2e,65af55d914893441390476af,2024-01-23_19h04.36.348,bars,2023.2.3,Win32,142.8571429,657b66ea316d21385b68909f,,,,,,,,,,,1210.0763,1211.0723,,,1211.5724,1211.8242,,162,162,,,,,,,,,,,,,,,,bars/033.png,bars/mask001.png,,,,,,,,,,,,2,2,,,,,,,4,4,4,3,,,,,,,,,,,1211.0723,1211.5724,1211.8242,1214.8212,space,2.9903,,1214.8212,43,7,1215.8222,1215.8222,1215.826,,,,0,44,44,44,1,25,155,,,,,,,,
,,655bca1f7ea1891e17a66d2e,65af55d914893441390476af,2024-01-23_19h04.36.348,bars,2023.2.3,Win32,142.8571429,657b66ea316d21385b68909f,,,,,,,,,,,1215.8261,1216.829,,,1217.3278,1217.5778,,113,113,,,,,,,,,,,,,,,,bars/022.png,bars/mask001.png,,,,,,,,,,,,2,1,,,,,,,6,2,6,2,,,,,,,,,,,1216.829,1217.3277,1217.5779,1220.9042,space,3.318,,1220.9042,18,87,1221.9041,1221.9041,1221.9082,,,,0,45,45,45,1,95,20,,,,,,,,
,,655bca1f7ea1891e17a66d2e,65af55d914893441390476af,2024-01-23_19h04.36.348,bars,2023.2.3,Win32,142.8571429,657b66ea316d21385b68909f,,,,,,,,,,,1221.9083,1222.9053,,,1223.4053,1223.6591,,57,57,,,,,,,,,,,,,,,,bars/028.png,bars/mask007.png,,,,,,,,,,,,5,1,,,,,,,8,0,8,0,,,,,,,,,,,1222.9054,1223.4053,1223.6591,1225.6539,space,1.9892,,1225.6539,12,63,1226.6586,1226.6586,1226.6588,,,,0,46,46,46,1,45,120,,,,,,,,
,,655bca1f7ea1891e17a66d2e,65af55d914893441390476af,2024-01-23_19h04.36.348,bars,2023.2.3,Win32,142.8571429,657b66ea316d21385b68909f,,,,,,,,,,,1226.6589,1227.6585,,,1228.1583,1228.4038,,139,139,,,,,,,,,,,,,,,,bars/011.png,bars/mask003.png,,,,,,,,,,,,3,1,,,,,,,10,2,9,2,,,,,,,,,,,1227.6585,1228.1583,1228.4039,1231.8345,space,3.4125,,1231.8345,21,54,1232.8367,1232.8367,1232.8405,,,,0,47,47,47,1,160,85,,,,,,,,
,,655bca1f7ea1891e17a66d2e,65af55d914893441390476af,2024-01-23_19h04.36.348,bars,2023.2.3,Win32,142.8571429,657b66ea316d21385b68909f,,,,,,,,,,,1232.8406,1233.8411,,,1234.3412,1234.5911,,120,120,,,,,,,,,,,,,,,,bars/008.png,bars/mask009.png,,,,,,,,,,,,6,1,,,,,,,8,0,9,0,,,,,,,,,,,1233.8411,1234.3412,1234.5911,1236.5759,space,1.9765,,1236.5759,10,60,1237.5753,1237.5754,1237.5793,,,,0,48,48,48,1,110,0,,,,,,,,
,,655bca1f7ea1891e17a66d2e,65af55d914893441390476af,2024-01-23_19h04.36.348,bars,2023.2.3,Win32,142.8571429,657b66ea316d21385b68909f,,,,,,,,,,,1237.5793,1238.5784,,,1239.0748,1239.3213,,135,-45,,,,,,,,,,,,,,,,bars/001.png,bars/mask008.png,,,,,,,,,,,,8,1,,,,,,,10,2,9,1,,,,,,,,,,,1238.5784,1239.0748,1239.3213,1242.2714,space,2.9368,,1242.2714,5,50,1243.2715,1243.2715,1243.2752,,,,0,49,49,49,1,130,85,,,,,,,,
,,655bca1f7ea1891e17a66d2e,65af55d914893441390476af,2024-01-23_19h04.36.348,bars,2023.2.3,Win32,142.8571429,657b66ea316d21385b68909f,,,,,,,,,,,,,,,,,,,,,,,,,,,,,,,,,,,,,,,,,,,,,,,,,,,,,,,,,,,,,,,,,,,,,,,,,,,,,,,,,,,,,,,,,,,,,1243.2752,1303.2724,0,2,2,0,1,sequence_tables/blk006.csv
,,655bca1f7ea1891e17a66d2e,65af55d914893441390476af,2024-01-23_19h04.36.348,bars,2023.2.3,Win32,142.8571429,657b66ea316d21385b68909f,,,,,,,,,,,1307.8561,1308.8537,,,1309.3502,1309.5968,,132,132,,,,,,,,,,,,,,,,bars/004.png,bars/mask002.png,,,,,,,,,,,,4,2,,,,,,,8,4,8,5,,,,,,1303.2766,1307.851,space,4.572,,1308.8537,1309.3502,1309.5968,1313.6094,space,3.9968,,1313.6094,73,7,1314.6092,1314.6092,1314.6134,,,,0,0,0,0,1,25,125,,,,,,,,
,,655bca1f7ea1891e17a66d2e,65af55d914893441390476af,2024-01-23_19h04.36.348,bars,2023.2.3,Win32,142.8571429,657b66ea316d21385b68909f,,,,,,,,,,,1314.6134,1315.6105,,,1316.1079,1316.3536,,65,65,,,,,,,,,,,,,,,,bars/013.png,bars/mask008.png,,,,,,,,,,,,7,1,,,,,,,10,6,10,8,,,,,,,,,,,1315.6105,1316.1079,1316.3536,1320.2203,space,3.8567,,1320.2203,10,55,1321.2201,1321.2201,1321.2242,,,,0,1,1,1,1,75,10,,,,,,,,
,,655bca1f7ea1891e17a66d2e,65af55d914893441390476af,2024-01-23_19h04.36.348,bars,2023.2.3,Win32,142.8571429,657b66ea316d21385b68909f,,,,,,,,,,,1321.2242,1322.2253,,,1322.7202,1322.9714,,129,129,,,,,,,,,,,,,,,,bars/015.png,bars/mask009.png,,,,,,,,,,,,4,1,,,,,,,10,4,10,5,,,,,,,,,,,1322.2253,1322.7202,1322.9714,1324.7564,space,1.776,,1324.7564,19,31,1325.7562,1325.7562,1325.7598,,,,0,2,2,2,1,110,160,,,,,,,,
,,655bca1f7ea1891e17a66d2e,65af55d914893441390476af,2024-01-23_19h04.36.348,bars,2023.2.3,Win32,142.8571429,657b66ea316d21385b68909f,,,,,,,,,,,1325.7598,1326.7546,,,1327.2546,1327.5033,,128,128,,,,,,,,,,,,,,,,bars/024.png,bars/mask001.png,,,,,,,,,,,,6,1,,,,,,,8,6,8,5,,,,,,,,,,,1326.7546,1327.2546,1327.5033,1331.7684,space,4.2604,,1331.7684,8,42,1332.7683,1332.7684,1332.7721,,,,0,3,3,3,1,120,170,,,,,,,,
,,655bca1f7ea1891e17a66d2e,65af55d914893441390476af,2024-01-23_19h04.36.348,bars,2023.2.3,Win32,142.8571429,657b66ea316d21385b68909f,,,,,,,,,,,1332.7721,1333.7696,,,1334.2695,1334.5213,,134,134,,,,,,,,,,,,,,,,bars/002.png,bars/mask003.png,,,,,,,,,,,,9,1,,,,,,,10,8,10,9,,,,,,,,,,,1333.7697,1334.2695,1334.5213,1335.5604,space,1.0339,,1335.5604,4,49,1336.5599,1336.5599,1336.5602,,,,0,4,4,4,1,130,85,,,,,,,,
,,655bca1f7ea1891e17a66d2e,65af55d914893441390476af,2024-01-23_19h04.36.348,bars,2023.2.3,Win32,142.8571429,657b66ea316d21385b68909f,,,,,,,,,,,1336.5602,1337.5593,,,1338.0594,1338.31,,74,74,,,,,,,,,,,,,,,,bars/025.png,bars/mask005.png,,,,,,,,,,,,0,1,,,,,,,8,10,8,10,,,,,,,,,,,1337.5593,1338.0594,1338.31,1341.6987,space,3.3783,,1341.6987,31,34,1342.6999,1342.6999,1342.7037,,,,0,5,5,5,1,105,40,,,,,,,,
,,655bca1f7ea1891e17a66d2e,65af55d914893441390476af,2024-01-23_19h04.36.348,bars,2023.2.3,Win32,142.8571429,657b66ea316d21385b68909f,,,,,,,,,,,1342.7037,1343.6996,,,1344.1987,1344.4485,,148,148,,,,,,,,,,,,,,,,bars/007.png,bars/mask002.png,,,,,,,,,,,,1,1,,,,,,,10,10,10,10,,,,,,,,,,,1343.6997,1344.1987,1344.4485,1346.089,space,1.639,,1346.089,27,87,1347.0875,1347.0875,1347.0877,,,,0,6,6,6,1,175,55,,,,,,,,
,,655bca1f7ea1891e17a66d2e,65af55d914893441390476af,2024-01-23_19h04.36.348,bars,2023.2.3,Win32,142.8571429,657b66ea316d21385b68909f,,,,,,,,,,,1347.0877,1348.0881,,,1348.5887,1348.8358,,16,16,,,,,,,,,,,,,,,,bars/016.png,bars/mask007.png,,,,,,,,,,,,1,1,,,,,,,8,10,7,10,,,,,,,,,,,1348.0881,1348.5887,1348.8358,1350.6012,space,1.7574,,1350.6012,24,31,1351.6148,1351.6148,1351.6185,,,,0,7,7,7,1,40,165,,,,,,,,
,,655bca1f7ea1891e17a66d2e,65af55d914893441390476af,2024-01-23_19h04.36.348,bars,2023.2.3,Win32,142.8571429,657b66ea316d21385b68909f,,,,,,,,,,,1351.6185,1352.6149,,,1353.1141,1353.3648,,126,126,,,,,,,,,,,,,,,,bars/018.png,bars/mask008.png,,,,,,,,,,,,1,1,,,,,,,6,10,6,10,,,,,,,,,,,1352.6149,1353.1141,1353.3649,1355.1288,space,1.7599,,1355.1288,24,36,1356.1343,1356.1343,1356.1381,,,,0,8,8,8,1,150,90,,,,,,,,
,,655bca1f7ea1891e17a66d2e,65af55d914893441390476af,2024-01-23_19h04.36.348,bars,2023.2.3,Win32,142.8571429,657b66ea316d21385b68909f,,,,,,,,,,,1356.1382,1357.1356,,,1357.6334,1357.8799,,48,48,,,,,,,,,,,,,,,,bars/019.png,bars/mask003.png,,,,,,,,,,,,7,1,,,,,,,8,8,8,8,,,,,,,,,,,1357.1356,1357.6334,1357.8799,1358.8092,space,0.9139,,1358.8092,3,57,1359.8091,1359.8091,1359.8094,,,,0,9,9,9,1,45,105,,,,,,,,
,,655bca1f7ea1891e17a66d2e,65af55d914893441390476af,2024-01-23_19h04.36.348,bars,2023.2.3,Win32,142.8571429,657b66ea316d21385b68909f,,,,,,,,,,,1359.8094,1360.8121,,,1361.3091,1361.5591,,116,116,,,,,,,,,,,,,,,,bars/024.png,bars/mask000.png,,,,,,,,,,,,3,1,,,,,,,6,10,4,10,,,,,,,,,,,1360.8121,1361.3091,1361.5591,1362.4688,space,0.8928,,1362.4688,4,54,1363.4699,1363.4699,1363.4737,,,,0,10,10,10,1,120,170,,,,,,,,
,,655bca1f7ea1891e17a66d2e,65af55d914893441390476af,2024-01-23_19h04.36.348,bars,2023.2.3,Win32,142.8571429,657b66ea316d21385b68909f,,,,,,,,,,,1363.4738,1364.4708,,,1364.9686,1365.22,,127,127,,,,,,,,,,,,,,,,bars/020.png,bars/mask005.png,,,,,,,,,,,,2,1,,,,,,,4,8,3,10,,,,,,,,,,,1364.4709,1364.9686,1365.22,1366.9896,space,1.7627,,1366.9896,12,43,1367.9894,1367.9894,1367.9932,,,,0,11,11,11,1,115,170,,,,,,,,
,,655bca1f7ea1891e17a66d2e,65af55d914893441390476af,2024-01-23_19h04.36.348,bars,2023.2.3,Win32,142.8571429,657b66ea316d21385b68909f,,,,,,,,,,,1367.9932,1368.9906,,,1369.4894,1369.7393,,144,144,,,,,,,,,,,,,,,,bars/007.png,bars/mask006.png,,,,,,,,,,,,0,1,,,,,,,6,6,6,5,,,,,,,,,,,1368.9906,1369.4894,1369.7393,1370.9144,space,1.1736,,1370.9144,31,89,1371.9137,1371.9137,1371.914,,,,0,12,12,12,1,175,55,,,,,,,,
,,655bca1f7ea1891e17a66d2e,65af55d914893441390476af,2024-01-23_19h04.36.348,bars,2023.2.3,Win32,142.8571429,657b66ea316d21385b68909f,,,,,,,,,,,1371.914,1372.9141,,,1373.4142,1373.6677,,137,137,,,,,,,,,,,,,,,,bars/011.png,bars/mask006.png,,,,,,,,,,,,2,1,,,,,,,8,8,7,7,,,,,,,,,,,1372.9141,1373.4141,1373.6677,1375.7947,space,2.123,,1375.7948,23,52,1376.7947,1376.7947,1376.7984,,,,0,13,13,13,1,160,85,,,,,,,,
,,655bca1f7ea1891e17a66d2e,65af55d914893441390476af,2024-01-23_19h04.36.348,bars,2023.2.3,Win32,142.8571429,657b66ea316d21385b68909f,,,,,,,,,,,1376.7985,1377.7958,,,1378.2959,1378.5447,,144,144,,,,,,,,,,,,,,,,bars/011.png,bars/mask007.png,,,,,,,,,,,,3,1,,,,,,,6,10,6,10,,,,,,,,,,,1377.7959,1378.2959,1378.5447,1380.1279,space,1.5745,,1380.1279,16,59,1381.1257,1381.1257,1381.1259,,,,0,14,14,14,1,160,85,,,,,,,,
,,655bca1f7ea1891e17a66d2e,65af55d914893441390476af,2024-01-23_19h04.36.348,bars,2023.2.3,Win32,142.8571429,657b66ea316d21385b68909f,,,,,,,,,,,1381.126,1382.1254,,,1382.6247,1382.871,,82,82,,,,,,,,,,,,,,,,bars/029.png,bars/mask000.png,,,,,,,,,,,,4,1,,,,,,,4,10,5,10,,,,,,,,,,,1382.1254,1382.6247,1382.871,1384.0653,space,1.1817,,1384.0653,8,37,1385.0653,1385.0653,1385.0656,,,,0,15,15,15,1,90,45,,,,,,,,
,,655bca1f7ea1891e17a66d2e,65af55d914893441390476af,2024-01-23_19h04.36.348,bars,2023.2.3,Win32,142.8571429,657b66ea316d21385b68909f,,,,,,,,,,,1385.0657,1386.0612,,,1386.5582,1386.8094,,31,31,,,,,,,,,,,,,,,,bars/000.png,bars/mask003.png,,,,,,,,,,,,2,1,,,,,,,2,8,3,7,,,,,,,,,,,1386.0612,1386.5582,1386.8094,1390.1913,space,3.3691,,1390.1914,9,66,1391.1901,1391.1901,1391.194,,,,0,16,16,16,1,40,145,,,,,,,,
,,655bca1f7ea1891e17a66d2e,65af55d914893441390476af,2024-01-23_19h04.36.348,bars,2023.2.3,Win32,142.8571429,657b66ea316d21385b68909f,,,,,,,,,,,1391.1941,1392.1901,,,1392.6912,1392.9401,,16,196,,,,,,,,,,,,,,,,bars/023.png,bars/mask009.png,,,,,,,,,,,,3,1,,,,,,,4,6,4,7,,,,,,,,,,,1392.1901,1392.6912,1392.9401,1396.2393,space,3.2975,,1396.2393,4,81,1397.2389,1397.2389,1397.2426,,,,0,17,17,17,1,20,115,,,,,,,,
,,655bca1f7ea1891e17a66d2e,65af55d914893441390476af,2024-01-23_19h04.36.348,bars,2023.2.3,Win32,142.8571429,657b66ea316d21385b68909f,,,,,,,,,,,1397.2426,1398.2383,,,1398.7384,1398.9883,,140,140,,,,,,,,,,,,,,,,bars/036.png,bars/mask006.png,,,,,,,,,,,,5,1,,,,,,,6,4,6,5,,,,,,,,,,,1398.2383,1398.7384,1398.9883,1400.1203,space,1.1289,,1400.1203,5,60,1401.1213,1401.1214,1401.1216,,,,0,18,18,18,1,145,20,,,,,,,,
,,655bca1f7ea1891e17a66d2e,65af55d914893441390476af,2024-01-23_19h04.36.348,bars,2023.2.3,Win32,142.8571429,657b66ea316d21385b68909f,,,,,,,,,,,1401.1217,1402.1202,,,1402.6201,1402.8702,,66,246,,,,,,,,,,,,,,,,bars/048.png,bars/mask006.png,,,,,,,,,,,,1,1,,,,,,,4,2,3,3,,,,,,,,,,,1402.1202,1402.6201,1402.8702,1405.9396,space,3.0585,,1405.9396,16,71,1406.9406,1406.9406,1406.9444,,,,0,19,19,19,1,50,175,,,,,,,,
,,655bca1f7ea1891e17a66d2e,65af55d914893441390476af,2024-01-23_19h04.36.348,bars,2023.2.3,Win32,142.8571429,657b66ea316d21385b68909f,,,,,,,,,,,1406.9444,1407.9394,,,1408.4406,1408.6946,,155,155,,,,,,,,,,,,,,,,bars/021.png,bars/mask007.png,,,,,,,,,,,,1,1,,,,,,,2,0,1,0,,,,,,,,,,,1407.9394,1408.4406,1408.6946,1410.1407,space,1.4407,,1410.1407,0,85,1411.1409,1411.1409,1411.1412,,,,0,20,20,20,1,155,70,,,,,,,,
,,655bca1f7ea1891e17a66d2e,65af55d914893441390476af,2024-01-23_19h04.36.348,bars,2023.2.3,Win32,142.8571429,657b66ea316d21385b68909f,,,,,,,,,,,1411.1412,1412.1419,,,1412.6407,1412.8918,,129,129,,,,,,,,,,,,,,,,bars/002.png,bars/mask009.png,,,,,,,,,,,,5,1,,,,,,,4,0,5,0,,,,,,,,,,,1412.1419,1412.6407,1412.8918,1413.8767,space,0.983,,1413.8767,1,44,1414.8767,1414.8767,1414.877,,,,0,21,21,21,1,130,85,,,,,,,,
,,655bca1f7ea1891e17a66d2e,65af55d914893441390476af,2024-01-23_19h04.36.348,bars,2023.2.3,Win32,142.8571429,657b66ea316d21385b68909f,,,,,,,,,,,1414.877,1415.8729,,,1416.3697,1416.6197,,135,135,,,,,,,,,,,,,,,,bars/008.png,bars/mask005.png,,,,,,,,,,,,1,1,,,,,,,6,0,5,0,,,,,,,,,,,1415.8729,1416.3697,1416.6197,1417.7254,space,1.1042,,1417.7254,25,45,1418.7238,1418.7239,1418.7241,,,,0,22,22,22,1,110,0,,,,,,,,
,,655bca1f7ea1891e17a66d2e,65af55d914893441390476af,2024-01-23_19h04.36.348,bars,2023.2.3,Win32,142.8571429,657b66ea316d21385b68909f,,,,,,,,,,,1418.7242,1419.7239,,,1420.2306,1420.4751,,161,161,,,,,,,,,,,,,,,,bars/049.png,bars/mask000.png,,,,,,,,,,,,8,1,,,,,,,8,0,8,0,,,,,,,,,,,1419.7239,1420.2306,1420.4751,1422.3363,space,1.8543,,1422.3363,1,46,1423.3349,1423.3349,1423.3351,,,,0,23,23,23,1,160,115,,,,,,,,
,,655bca1f7ea1891e17a66d2e,65af55d914893441390476af,2024-01-23_19h04.36.348,bars,2023.2.3,Win32,142.8571429,657b66ea316d21385b68909f,,,,,,,,,,,1423.3351,1424.336,,,1424.8359,1425.0847,,54,54,,,,,,,,,,,,,,,,bars/048.png,bars/mask004.png,,,,,,,,,,,,9,1,,,,,,,10,0,10,2,,,,,,,,,,,1424.3361,1424.8358,1425.0847,1427.1194,space,2.0224,,1427.1194,4,59,1428.1207,1428.1207,1428.1245,,,,0,24,24,24,1,50,175,,,,,,,,
,,655bca1f7ea1891e17a66d2e,65af55d914893441390476af,2024-01-23_19h04.36.348,bars,2023.2.3,Win32,142.8571429,657b66ea316d21385b68909f,,,,,,,,,,,1428.1246,1429.1262,,,1429.6275,1429.8764,,34,34,,,,,,,,,,,,,,,,bars/016.png,bars/mask007.png,,,,,,,,,,,,8,1,,,,,,,10,2,10,3,,,,,,,,,,,1429.1262,1429.6275,1429.8764,1430.6873,space,0.8001,,1430.6873,6,49,1431.687,1431.687,1431.6873,,,,0,25,25,25,1,40,165,,,,,,,,
,,655bca1f7ea1891e17a66d2e,65af55d914893441390476af,2024-01-23_19h04.36.348,bars,2023.2.3,Win32,142.8571429,657b66ea316d21385b68909f,,,,,,,,,,,1431.6874,1432.6887,,,1433.1887,1433.4461,,110,110,,,,,,,,,,,,,,,,bars/025.png,bars/mask005.png,,,,,,,,,,,,6,1,,,,,,,8,4,7,3,,,,,,,,,,,1432.6887,1433.1887,1433.4461,1434.7372,space,1.2795,,1434.7372,5,70,1435.7384,1435.7385,1435.7423,,,,0,26,26,26,1,105,40,,,,,,,,
,,655bca1f7ea1891e17a66d2e,65af55d914893441390476af,2024-01-23_19h04.36.348,bars,2023.2.3,Win32,142.8571429,657b66ea316d21385b68909f,,,,,,,,,,,1435.7424,1436.7522,,,1437.2523,1437.494,,143,143,,,,,,,,,,,,,,,,bars/049.png,bars/mask004.png,,,,,,,,,,,,3,1,,,,,,,6,2,7,2,,,,,,,,,,,1436.7522,1437.2523,1437.494,1441.0091,space,3.5136,,1441.0091,17,28,1442.0078,1442.0078,1442.0116,,,,0,27,27,27,1,160,115,,,,,,,,
,,655bca1f7ea1891e17a66d2e,65af55d914893441390476af,2024-01-23_19h04.36.348,bars,2023.2.3,Win32,142.8571429,657b66ea316d21385b68909f,,,,,,,,,,,1442.0118,1443.0089,,,1443.509,1443.759,,176,176,,,,,,,,,,,,,,,,bars/038.png,bars/mask005.png,,,,,,,,,,,,2,1,,,,,,,4,0,3,1,,,,,,,,,,,1443.0089,1443.509,1443.759,1446.7731,space,3.0071,,1446.7731,11,74,1447.7714,1447.7714,1447.7752,,,,0,28,28,28,1,165,70,,,,,,,,
,,655bca1f7ea1891e17a66d2e,65af55d914893441390476af,2024-01-23_19h04.36.348,bars,2023.2.3,Win32,142.8571429,657b66ea316d21385b68909f,,,,,,,,,,,1447.7753,1448.7727,,,1449.2715,1449.5205,,121,121,,,,,,,,,,,,,,,,bars/020.png,bars/mask008.png,,,,,,,,,,,,5,1,,,,,,,6,2,6,1,,,,,,,,,,,1448.7728,1449.2715,1449.5205,1450.5561,space,1.0325,,1450.5562,6,49,1451.5561,1451.5561,1451.5563,,,,0,29,29,29,1,115,170,,,,,,,,
,,655bca1f7ea1891e17a66d2e,65af55d914893441390476af,2024-01-23_19h04.36.348,bars,2023.2.3,Win32,142.8571429,657b66ea316d21385b68909f,,,,,,,,,,,1451.5564,1452.5603,,,1453.0602,1453.3061,,35,35,,,,,,,,,,,,,,,,bars/003.png,bars/mask006.png,,,,,,,,,,,,1,1,,,,,,,4,0,2,1,,,,,,,,,,,1452.5603,1453.0601,1453.3061,1454.7643,space,1.444,,1454.7643,10,75,1455.7655,1455.7655,1455.7694,,,,0,30,30,30,1,25,140,,,,,,,,
,,655bca1f7ea1891e17a66d2e,65af55d914893441390476af,2024-01-23_19h04.36.348,bars,2023.2.3,Win32,142.8571429,657b66ea316d21385b68909f,,,,,,,,,,,1455.7694,1456.7738,,,1457.2778,1457.521,,40,40,,,,,,,,,,,,,,,,bars/019.png,bars/mask005.png,,,,,,,,,,,,1,1,,,,,,,2,2,1,3,,,,,,,,,,,1456.7738,1457.2778,1457.5211,1460.4807,space,2.9512,,1460.4807,5,65,1461.4794,1461.4794,1461.4832,,,,0,31,31,31,1,45,105,,,,,,,,
,,655bca1f7ea1891e17a66d2e,65af55d914893441390476af,2024-01-23_19h04.36.348,bars,2023.2.3,Win32,142.8571429,657b66ea316d21385b68909f,,,,,,,,,,,1461.4832,1462.4806,,,1462.9805,1463.2356,,127,127,,,,,,,,,,,,,,,,bars/032.png,bars/mask004.png,,,,,,,,,,,,3,1,,,,,,,4,4,3,4,,,,,,,,,,,1462.4806,1462.9804,1463.2356,1465.2864,space,2.049,,1465.2865,2,73,1466.2847,1466.2847,1466.2885,,,,0,32,32,32,1,125,20,,,,,,,,
,,655bca1f7ea1891e17a66d2e,65af55d914893441390476af,2024-01-23_19h04.36.348,bars,2023.2.3,Win32,142.8571429,657b66ea316d21385b68909f,,,,,,,,,,,1466.2886,1467.2846,,,1467.7847,1468.0346,,105,105,,,,,,,,,,,,,,,,bars/024.png,bars/mask005.png,,,,,,,,,,,,2,1,,,,,,,6,6,4,4,,,,,,,,,,,1467.2847,1467.7847,1468.0346,1469.3764,space,1.3335,,1469.3764,15,65,1470.3732,1470.3732,1470.3735,,,,0,33,33,33,1,120,170,,,,,,,,
,,655bca1f7ea1891e17a66d2e,65af55d914893441390476af,2024-01-23_19h04.36.348,bars,2023.2.3,Win32,142.8571429,657b66ea316d21385b68909f,,,,,,,,,,,1470.3736,1471.3748,,,1471.8748,1472.126,,117,117,,,,,,,,,,,,,,,,bars/020.png,bars/mask006.png,,,,,,,,,,,,4,1,,,,,,,4,8,4,8,,,,,,,,,,,1471.3748,1471.8748,1472.126,1473.812,space,1.6789,,1473.812,2,53,1474.8114,1474.8114,1474.8116,,,,0,34,34,34,1,115,170,,,,,,,,
,,655bca1f7ea1891e17a66d2e,65af55d914893441390476af,2024-01-23_19h04.36.348,bars,2023.2.3,Win32,142.8571429,657b66ea316d21385b68909f,,,,,,,,,,,1474.8117,1475.807,,,1476.3111,1476.5621,,48,48,,,,,,,,,,,,,,,,bars/013.png,bars/mask004.png,,,,,,,,,,,,0,1,,,,,,,2,10,1,9,,,,,,,,,,,1475.807,1476.3111,1476.5621,1478.3468,space,1.7814,,1478.3468,27,38,1479.3467,1479.3467,1479.347,,,,0,35,35,35,1,75,10,,,,,,,,
,,655bca1f7ea1891e17a66d2e,65af55d914893441390476af,2024-01-23_19h04.36.348,bars,2023.2.3,Win32,142.8571429,657b66ea316d21385b68909f,,,,,,,,,,,1479.3471,1480.3467,,,1480.8467,1481.0979,,33,33,,,,,,,,,,,,,,,,bars/033.png,bars/mask000.png,,,,,,,,,,,,2,1,,,,,,,4,8,3,8,,,,,,,,,,,1480.3467,1480.8467,1481.0979,1483.69,space,2.5805,,1483.69,8,58,1484.6892,1484.6892,1484.6929,,,,0,36,36,36,1,25,155,,,,,,,,
,,655bca1f7ea1891e17a66d2e,65af55d914893441390476af,2024-01-23_19h04.36.348,bars,2023.2.3,Win32,142.8571429,657b66ea316d21385b68909f,,,,,,,,,,,1484.693,1485.6881,,,1486.1868,1486.4369,,113,113,,,,,,,,,,,,,,,,bars/034.png,bars/mask009.png,,,,,,,,,,,,1,1,,,,,,,2,6,2,5,,,,,,,,,,,1485.6881,1486.1868,1486.437,1488.6951,space,2.2568,,1488.6951,12,48,1489.6937,1489.6937,1489.694,,,,0,37,37,37,1,125,65,,,,,,,,
,,655bca1f7ea1891e17a66d2e,65af55d914893441390476af,2024-01-23_19h04.36.348,bars,2023.2.3,Win32,142.8571429,657b66ea316d21385b68909f,,,,,,,,,,,1489.694,1490.6936,,,1491.1937,1491.4437,,145,-35,,,,,,,,,,,,,,,,bars/018.png,bars/mask002.png,,,,,,,,,,,,3,1,,,,,,,4,8,4,10,,,,,,,,,,,1490.6936,1491.1937,1491.4437,1493.9519,space,2.5051,,1493.9519,5,55,1494.9505,1494.9505,1494.9542,,,,0,38,38,38,1,150,90,,,,,,,,
,,655bca1f7ea1891e17a66d2e,65af55d914893441390476af,2024-01-23_19h04.36.348,bars,2023.2.3,Win32,142.8571429,657b66ea316d21385b68909f,,,,,,,,,,,1494.9542,1495.9517,,,1496.4516,1496.7047,,105,105,,,,,,,,,,,,,,,,bars/015.png,bars/mask002.png,,,,,,,,,,,,2,1,,,,,,,2,6,2,5,,,,,,,,,,,1495.9517,1496.4516,1496.7047,1498.0544,space,1.3406,,1498.0544,5,55,1499.0559,1499.0559,1499.0561,,,,0,39,39,39,1,110,160,,,,,,,,
,,655bca1f7ea1891e17a66d2e,65af55d914893441390476af,2024-01-23_19h04.36.348,bars,2023.2.3,Win32,142.8571429,657b66ea316d21385b68909f,,,,,,,,,,,1499.0562,1500.0544,,,1500.5543,1500.8026,,160,-20,,,,,,,,,,,,,,,,bars/046.png,bars/mask001.png,,,,,,,,,,,,2,1,,,,,,,4,8,2,7,,,,,,,,,,,1500.0544,1500.5543,1500.8026,1503.9432,space,3.1334,,1503.9432,5,75,1504.9414,1504.9414,1504.9451,,,,0,40,40,40,1,155,85,,,,,,,,
,,655bca1f7ea1891e17a66d2e,65af55d914893441390476af,2024-01-23_19h04.36.348,bars,2023.2.3,Win32,142.8571429,657b66ea316d21385b68909f,,,,,,,,,,,1504.9452,1505.9408,,,1506.4361,1506.6862,,18,18,,,,,,,,,,,,,,,,bars/041.png,bars/mask004.png,,,,,,,,,,,,5,1,,,,,,,6,10,5,10,,,,,,,,,,,1505.9408,1506.4361,1506.6862,1509.7207,space,3.0197,,1509.7208,2,67,1510.7191,1510.7191,1510.723,,,,0,41,41,41,1,20,85,,,,,,,,
,,655bca1f7ea1891e17a66d2e,65af55d914893441390476af,2024-01-23_19h04.36.348,bars,2023.2.3,Win32,142.8571429,657b66ea316d21385b68909f,,,,,,,,,,,1510.723,1511.7191,,,1512.2206,1512.4719,,87,87,,,,,,,,,,,,,,,,bars/022.png,bars/mask004.png,,,,,,,,,,,,6,1,,,,,,,8,8,8,10,,,,,,,,,,,1511.7191,1512.2206,1512.4719,1513.4305,space,0.9516,,1513.4305,8,67,1514.4289,1514.4289,1514.4291,,,,0,42,42,42,1,95,20,,,,,,,,
,,655bca1f7ea1891e17a66d2e,65af55d914893441390476af,2024-01-23_19h04.36.348,bars,2023.2.3,Win32,142.8571429,657b66ea316d21385b68909f,,,,,,,,,,,1514.4292,1515.4289,,,1515.9289,1516.1789,,147,-33,,,,,,,,,,,,,,,,bars/042.png,bars/mask002.png,,,,,,,,,,,,9,1,,,,,,,10,6,10,6,,,,,,,,,,,1515.4289,1515.9289,1516.1789,1518.9022,space,2.7151,,1518.9022,2,72,1519.901,1519.901,1519.9012,,,,0,43,43,43,1,145,75,,,,,,,,
,,655bca1f7ea1891e17a66d2e,65af55d914893441390476af,2024-01-23_19h04.36.348,bars,2023.2.3,Win32,142.8571429,657b66ea316d21385b68909f,,,,,,,,,,,1519.9012,1520.902,,,1521.4009,1521.6557,,117,117,,,,,,,,,,,,,,,,bars/015.png,bars/mask007.png,,,,,,,,,,,,8,1,,,,,,,8,4,10,5,,,,,,,,,,,1520.902,1521.4009,1521.6557,1524.9771,space,3.3158,,1524.9771,7,43,1525.9772,1525.9772,1525.981,,,,0,44,44,44,1,110,160,,,,,,,,
,,655bca1f7ea1891e17a66d2e,65af55d914893441390476af,2024-01-23_19h04.36.348,bars,2023.2.3,Win32,142.8571429,657b66ea316d21385b68909f,,,,,,,,,,,1525.9811,1526.9783,,,1527.4778,1527.727,,57,57,,,,,,,,,,,,,,,,bars/044.png,bars/mask007.png,,,,,,,,,,,,3,1,,,,,,,6,2,7,2,,,,,,,,,,,1526.9783,1527.4778,1527.727,1529.2061,space,1.4707,,1529.2061,18,82,1530.1992,1530.1992,1530.203,,,,0,45,45,45,1,75,155,,,,,,,,
,,655bca1f7ea1891e17a66d2e,65af55d914893441390476af,2024-01-23_19h04.36.348,bars,2023.2.3,Win32,142.8571429,657b66ea316d21385b68909f,,,,,,,,,,,1530.2032,1531.2004,,,1531.6992,1531.9492,,127,127,,,,,,,,,,,,,,,,bars/037.png,bars/mask007.png,,,,,,,,,,,,0,2,,,,,,,4,0,5,0,,,,,,,,,,,1531.2005,1531.6992,1531.9492,1533.72,space,1.7596,,1533.72,23,22,1534.7211,1534.7211,1534.7252,,,,0,46,46,46,1,150,105,,,,,,,,
,,655bca1f7ea1891e17a66d2e,65af55d914893441390476af,2024-01-23_19h04.36.348,bars,2023.2.3,Win32,142.8571429,657b66ea316d21385b68909f,,,,,,,,,,,1534.7252,1535.7206,,,1536.221,1536.47,,65,65,,,,,,,,,,,,,,,,bars/044.png,bars/mask005.png,,,,,,,,,,,,1,1,,,,,,,2,2,2,2,,,,,,,,,,,1535.7206,1536.221,1536.47,1538.1095,space,1.6314,,1538.1095,10,90,1539.1087,1539.1087,1539.1093,,,,0,47,47,47,1,75,155,,,,,,,,
,,655bca1f7ea1891e17a66d2e,65af55d914893441390476af,2024-01-23_19h04.36.348,bars,2023.2.3,Win32,142.8571429,657b66ea316d21385b68909f,,,,,,,,,,,1539.1093,1540.1086,,,1540.6043,1540.8516,,125,125,,,,,,,,,,,,,,,,bars/017.png,bars/mask004.png,,,,,,,,,,,,0,1,,,,,,,0,4,1,5,,,,,,,,,,,1540.1086,1540.6043,1540.8516,1543.0088,space,2.1489,,1543.0088,20,80,1544.0043,1544.0043,1544.0081,,,,0,48,48,48,1,145,45,,,,,,,,
,,655bca1f7ea1891e17a66d2e,65af55d914893441390476af,2024-01-23_19h04.36.348,bars,2023.2.3,Win32,142.8571429,657b66ea316d21385b68909f,,,,,,,,,,,1544.0081,1545.0081,,,1545.5055,1545.7542,,78,78,,,,,,,,,,,,,,,,bars/029.png,bars/mask004.png,,,,,,,,,,,,2,1,,,,,,,2,2,3,2,,,,,,,,,,,1545.0081,1545.5055,1545.7542,1548.8306,space,3.0598,,1548.8307,12,33,1549.8261,1549.8261,1549.8301,,,,0,49,49,49,1,90,45,,,,,,,,
,,655bca1f7ea1891e17a66d2e,65af55d914893441390476af,2024-01-23_19h04.36.348,bars,2023.2.3,Win32,142.8571429,657b66ea316d21385b68909f,,,,,,,,,,,,,,,,,,,,,,,,,,,,,,,,,,,,,,,,,,,,,,,,,,,,,,,,,,,,,,,,,,,,,,,,,,,,,,,,,,,,,,,,,,,,,1549.8302,1609.8257,0,3,3,1,1,sequence_tables/blk028.csv
,,655bca1f7ea1891e17a66d2e,65af55d914893441390476af,2024-01-23_19h04.36.348,bars,2023.2.3,Win32,142.8571429,657b66ea316d21385b68909f,,,,,,,,,,,1637.1776,1638.1744,,,1638.6743,1638.926,,129,129,,,,,,,,,,,,,,,,bars/021.png,bars/mask007.png,,,,,,,,,,,,1,1,,,,,,,6,1,6,0,,,,,,1609.8299,1637.1762,space,27.3435,,1638.1744,1638.6743,1638.926,1640.1608,space,1.2205,,1640.1608,26,59,1641.1607,1641.1607,1641.161,,,,0,0,0,0,1,155,70,,,,,,,,
,,655bca1f7ea1891e17a66d2e,65af55d914893441390476af,2024-01-23_19h04.36.348,bars,2023.2.3,Win32,142.8571429,657b66ea316d21385b68909f,,,,,,,,,,,1641.1611,1642.1608,,,1642.662,1642.912,,19,19,,,,,,,,,,,,,,,,bars/010.png,bars/mask006.png,,,,,,,,,,,,0,1,,,,,,,8,3,8,3,,,,,,,,,,,1642.1608,1642.662,1642.912,1644.0565,space,1.1345,,1644.0565,34,36,1645.0529,1645.0529,1645.0567,,,,0,1,1,1,1,165,55,,,,,,,,
,,655bca1f7ea1891e17a66d2e,65af55d914893441390476af,2024-01-23_19h04.36.348,bars,2023.2.3,Win32,142.8571429,657b66ea316d21385b68909f,,,,,,,,,,,1645.0567,1646.0525,,,1646.5494,1646.7994,,151,-29,,,,,,,,,,,,,,,,bars/018.png,bars/mask005.png,,,,,,,,,,,,10,1,,,,,,,10,5,10,6,,,,,,,,,,,1646.0525,1646.5494,1646.7995,1651.2173,space,4.4058,,1651.2173,1,61,1652.2171,1652.2171,1652.2208,,,,0,2,2,2,1,150,90,,,,,,,,
,,655bca1f7ea1891e17a66d2e,65af55d914893441390476af,2024-01-23_19h04.36.348,bars,2023.2.3,Win32,142.8571429,657b66ea316d21385b68909f,,,,,,,,,,,1652.2208,1653.2171,,,1653.7159,1653.9659,,29,29,,,,,,,,,,,,,,,,bars/006.png,bars/mask006.png,,,,,,,,,,,,7,1,,,,,,,10,3,9,2,,,,,,,,,,,1653.2172,1653.7159,1653.9659,1655.3561,space,1.3888,,1655.3561,6,71,1656.3547,1656.3547,1656.3549,,,,0,3,3,3,1,35,100,,,,,,,,
,,655bca1f7ea1891e17a66d2e,65af55d914893441390476af,2024-01-23_19h04.36.348,bars,2023.2.3,Win32,142.8571429,657b66ea316d21385b68909f,,,,,,,,,,,1656.355,1657.3546,,,1657.8558,1658.1047,,72,252,,,,,,,,,,,,,,,,bars/029.png,bars/mask002.png,,,,,,,,,,,,3,1,,,,,,,8,1,7,1,,,,,,,,,,,1657.3546,1657.8558,1658.1047,1661.2675,space,3.1591,,1661.2675,18,27,1662.2642,1662.2642,1662.2679,,,,0,4,4,4,1,90,45,,,,,,,,
,,655bca1f7ea1891e17a66d2e,65af55d914893441390476af,2024-01-23_19h04.36.348,bars,2023.2.3,Win32,142.8571429,657b66ea316d21385b68909f,,,,,,,,,,,1662.2679,1663.2643,,,1663.7642,1664.0154,,122,122,,,,,,,,,,,,,,,,bars/024.png,bars/mask006.png,,,,,,,,,,,,6,1,,,,,,,6,0,6,0,,,,,,,,,,,1663.2643,1663.7642,1664.0154,1665.9251,space,1.8982,,1665.9251,2,48,1666.9248,1666.9248,1666.9285,,,,0,5,5,5,1,120,170,,,,,,,,
,,655bca1f7ea1891e17a66d2e,65af55d914893441390476af,2024-01-23_19h04.36.348,bars,2023.2.3,Win32,142.8571429,657b66ea316d21385b68909f,,,,,,,,,,,1666.9286,1667.9243,,,1668.4237,1668.6738,,23,23,,,,,,,,,,,,,,,,bars/009.png,bars/mask007.png,,,,,,,,,,,,5,1,,,,,,,8,0,7,1,,,,,,,,,,,1667.9243,1668.4237,1668.6738,1670.4239,space,1.7486,,1670.4239,8,82,1671.4236,1671.4236,1671.4275,,,,0,6,6,6,1,15,105,,,,,,,,
,,655bca1f7ea1891e17a66d2e,65af55d914893441390476af,2024-01-23_19h04.36.348,bars,2023.2.3,Win32,142.8571429,657b66ea316d21385b68909f,,,,,,,,,,,1671.4275,1672.4233,,,1672.9225,1673.168,,134,-46,,,,,,,,,,,,,,,,bars/021.png,bars/mask000.png,,,,,,,,,,,,3,1,,,,,,,10,2,10,3,,,,,,,,,,,1672.4233,1672.9225,1673.168,1675.5555,space,2.38,,1675.5555,21,64,1676.5612,1676.5612,1676.5614,,,,0,7,7,7,1,155,70,,,,,,,,
,,655bca1f7ea1891e17a66d2e,65af55d914893441390476af,2024-01-23_19h04.36.348,bars,2023.2.3,Win32,142.8571429,657b66ea316d21385b68909f,,,,,,,,,,,1676.5615,1677.5623,,,1678.0602,1678.3055,,153,153,,,,,,,,,,,,,,,,bars/049.png,bars/mask000.png,,,,,,,,,,,,7,1,,,,,,,8,0,9,0,,,,,,,,,,,1677.5623,1678.0601,1678.3055,1680.3413,space,2.0279,,1680.3413,7,38,1681.341,1681.341,1681.3447,,,,0,8,8,8,1,160,115,,,,,,,,
,,655bca1f7ea1891e17a66d2e,65af55d914893441390476af,2024-01-23_19h04.36.348,bars,2023.2.3,Win32,142.8571429,657b66ea316d21385b68909f,,,,,,,,,,,1681.3448,1682.3399,,,1682.8399,1683.0899,,121,121,,,,,,,,,,,,,,,,bars/020.png,bars/mask004.png,,,,,,,,,,,,6,1,,,,,,,6,0,8,0,,,,,,,,,,,1682.3399,1682.8399,1683.0899,1684.6117,space,1.512,,1684.6117,6,49,1685.612,1685.6121,1685.6122,,,,0,9,9,9,1,115,170,,,,,,,,
,,655bca1f7ea1891e17a66d2e,65af55d914893441390476af,2024-01-23_19h04.36.348,bars,2023.2.3,Win32,142.8571429,657b66ea316d21385b68909f,,,,,,,,,,,1685.6124,1686.6106,,,1687.1132,1687.3582,,162,162,,,,,,,,,,,,,,,,bars/035.png,bars/mask006.png,,,,,,,,,,,,2,1,,,,,,,4,2,3,0,,,,,,,,,,,1686.6107,1687.1132,1687.3583,1688.5551,space,1.1919,,1688.5551,13,78,1689.5573,1689.5573,1689.5576,,,,0,10,10,10,1,175,60,,,,,,,,
,,655bca1f7ea1891e17a66d2e,65af55d914893441390476af,2024-01-23_19h04.36.348,bars,2023.2.3,Win32,142.8571429,657b66ea316d21385b68909f,,,,,,,,,,,1689.5577,1690.5561,,,1691.0549,1691.3049,,76,76,,,,,,,,,,,,,,,,bars/014.png,bars/mask003.png,,,,,,,,,,,,2,1,,,,,,,2,0,2,1,,,,,,,,,,,1690.5561,1691.0549,1691.3049,1692.8744,space,1.552,,1692.8744,4,76,1693.875,1693.875,1693.8753,,,,0,11,11,11,1,80,0,,,,,,,,
,,655bca1f7ea1891e17a66d2e,65af55d914893441390476af,2024-01-23_19h04.36.348,bars,2023.2.3,Win32,142.8571429,657b66ea316d21385b68909f,,,,,,,,,,,1693.8753,1694.8748,,,1695.3746,1695.6254,,112,112,,,,,,,,,,,,,,,,bars/015.png,bars/mask001.png,,,,,,,,,,,,6,1,,,,,,,4,2,6,2,,,,,,,,,,,1694.8748,1695.3746,1695.6254,1696.8325,space,1.1965,,1696.8325,2,48,1697.8326,1697.8326,1697.8327,,,,0,12,12,12,1,110,160,,,,,,,,
