init_variables.started,init_variables.stopped,participant,session,date,expName,psychopyVersion,OS,frameRate,study_id,instruction_exp.started,instruction_exp.stopped,key_resp_8.keys,key_resp_8.rt,key_resp_8.duration,instruction_single.started,instruction_single.stopped,key_resp_2.keys,key_resp_2.rt,key_resp_2.duration,interval.started,interval.stopped,cue_single.started,cue_single.stopped,mask.started,mask.stopped,ori_response_single.started,res_ori,res,ori_response_single.stopped,key_resp_single.keys,key_resp_single.rt,key_resp_single.duration,disp_single.started,disp_single.stopped,key_resp.keys,key_resp.rt,key_resp.duration,single.thisRepN,single.thisTrialN,single.thisN,single.thisIndex,single.ran,ori,path,mask_path,instruction_bandit.started,instruction_bandit.stopped,key_resp_6.keys,key_resp_6.rt,key_resp_6.duration,cue_bandit.started,cue_bandit.stopped,bandit_res.keys,bandit_res.rt,bandit_res.duration,outcome_bandit.started,rew,action,outcome_bandit.stopped,bandit.thisRepN,bandit.thisTrialN,bandit.thisN,bandit.thisIndex,bandit.ran,actual_rew1,actual_rew2,rew1,rew2,instruction_task.started,instruction_task.stopped,key_resp_7.keys,key_resp_7.rt,key_resp_7.duration,wait_ready.started,wait_ready.stopped,key_resp_3.keys,key_resp_3.rt,key_resp_3.duration,cue.started,cue.stopped,ori_response.started,ori_response.stopped,key_resp_5.keys,key_resp_5.rt,key_resp_5.duration,outcome.started,diff1,diff2,outcome.stopped,disp_outcome_practice.started,disp_outcome_practice.stopped,key_resp_4.keys,key_resp_4.rt,key_resp_4.duration,trials.thisRepN,trials.thisTrialN,trials.thisN,trials.thisIndex,trials.ran,ori1,ori2,break_blk.started,break_blk.stopped,block.thisRepN,block.thisTrialN,block.thisN,block.thisIndex,block.ran,condition_file
0.0003,0.0004,652fbbdf61e6b6fcfb879ab0,65af5687f086a38d1a40184c,2024-01-23_07h03.06.503,bars,2023.2.3,MacIntel,59.88023952,657b66ea316d21385b68909f,,,,,,,,,,,,,,,,,,,,,,,,,,,,,,,,,,,,,,,,,,,,,,,,,,,,,,,,,,,,,,,,,,,,,,,,,,,,,,,,,,,,,,,,,,,,,,,,,,,,
,,652fbbdf61e6b6fcfb879ab0,65af5687f086a38d1a40184c,2024-01-23_07h03.06.503,bars,2023.2.3,MacIntel,59.88023952,657b66ea316d21385b68909f,0.0006,31.8772,y,31.8665,,,,,,,,,,,,,,,,,,,,,,,,,,,,,,,,,,,,,,,,,,,,,,,,,,,,,,,,,,,,,,,,,,,,,,,,,,,,,,,,,,,,,,,,,,,,,,,,
,,652fbbdf61e6b6fcfb879ab0,65af5687f086a38d1a40184c,2024-01-23_07h03.06.503,bars,2023.2.3,MacIntel,59.88023952,657b66ea316d21385b68909f,,,,,,31.8773,60.8159,space,28.9281,,,,,,,,,,,,,,,,,,,,,,,,,,,,,,,,,,,,,,,,,,,,,,,,,,,,,,,,,,,,,,,,,,,,,,,,,,,,,,,,,,,,,,,,,,,
,,652fbbdf61e6b6fcfb879ab0,65af5687f086a38d1a40184c,2024-01-23_07h03.06.503,bars,2023.2.3,MacIntel,59.88023952,657b66ea316d21385b68909f,,,,,,,,,,,60.8208,61.8213,61.8216,62.3199,62.3201,62.5727,62.5731,90,90,75.7018,space,13.0956,,75.7019,92.3986,space,16.668,,0,0,0,9,1,20,bars/single009.png,bars/mask006.png,,,,,,,,,,,,,,,,,,,,,,,,,,,,,,,,,,,,,,,,,,,,,,,,,,,,,,,,,,,,,,,,
,,652fbbdf61e6b6fcfb879ab0,65af5687f086a38d1a40184c,2024-01-23_07h03.06.503,bars,2023.2.3,MacIntel,59.88023952,657b66ea316d21385b68909f,,,,,,,,,,,92.4111,93.3991,93.3993,93.8967,93.8967,94.1496,94.1497,45,225,115.4159,space,21.2571,,115.4159,120.9408,space,5.4949,,0,1,1,3,1,20,bars/single003.png,bars/mask005.png,,,,,,,,,,,,,,,,,,,,,,,,,,,,,,,,,,,,,,,,,,,,,,,,,,,,,,,,,,,,,,,,
,,652fbbdf61e6b6fcfb879ab0,65af5687f086a38d1a40184c,2024-01-23_07h03.06.503,bars,2023.2.3,MacIntel,59.88023952,657b66ea316d21385b68909f,,,,,,,,,,,120.9532,121.9413,121.9414,122.4403,122.4403,122.6903,122.6903,0,180,137.3699,space,14.6673,,137.3699,141.3068,space,3.9096,,0,2,2,2,1,145,bars/single002.png,bars/mask003.png,,,,,,,,,,,,,,,,,,,,,,,,,,,,,,,,,,,,,,,,,,,,,,,,,,,,,,,,,,,,,,,,
,,652fbbdf61e6b6fcfb879ab0,65af5687f086a38d1a40184c,2024-01-23_07h03.06.503,bars,2023.2.3,MacIntel,59.88023952,657b66ea316d21385b68909f,,,,,,,,,,,141.3072,142.3097,142.3098,142.8073,142.8074,143.0591,143.0591,45,45,153.6183,space,10.5449,,153.6183,156.3682,space,2.7219,,0,3,3,0,1,150,bars/single000.png,bars/mask006.png,,,,,,,,,,,,,,,,,,,,,,,,,,,,,,,,,,,,,,,,,,,,,,,,,,,,,,,,,,,,,,,,
,,652fbbdf61e6b6fcfb879ab0,65af5687f086a38d1a40184c,2024-01-23_07h03.06.503,bars,2023.2.3,MacIntel,59.88023952,657b66ea316d21385b68909f,,,,,,,,,,,156.3685,157.372,157.372,157.8724,157.8724,158.1207,158.1207,45,45,166.5302,space,8.3916,,166.5303,170.9145,space,4.36,,0,4,4,6,1,175,bars/single006.png,bars/mask005.png,,,,,,,,,,,,,,,,,,,,,,,,,,,,,,,,,,,,,,,,,,,,,,,,,,,,,,,,,,,,,,,,
,,652fbbdf61e6b6fcfb879ab0,65af5687f086a38d1a40184c,2024-01-23_07h03.06.503,bars,2023.2.3,MacIntel,59.88023952,657b66ea316d21385b68909f,,,,,,,,,,,170.9266,171.9188,171.919,172.4181,172.4181,172.6688,172.6688,0,0,181.6757,space,8.991,,181.6759,184.5452,space,2.8426,,0,5,5,5,1,55,bars/single005.png,bars/mask008.png,,,,,,,,,,,,,,,,,,,,,,,,,,,,,,,,,,,,,,,,,,,,,,,,,,,,,,,,,,,,,,,,
,,652fbbdf61e6b6fcfb879ab0,65af5687f086a38d1a40184c,2024-01-23_07h03.06.503,bars,2023.2.3,MacIntel,59.88023952,657b66ea316d21385b68909f,,,,,,,,,,,184.5455,185.5439,185.544,186.0478,186.0479,186.2956,186.2957,0,180,193.8679,space,7.5599,,193.8681,197.1201,space,3.2275,,0,6,6,1,1,20,bars/single001.png,bars/mask006.png,,,,,,,,,,,,,,,,,,,,,,,,,,,,,,,,,,,,,,,,,,,,,,,,,,,,,,,,,,,,,,,,
,,652fbbdf61e6b6fcfb879ab0,65af5687f086a38d1a40184c,2024-01-23_07h03.06.503,bars,2023.2.3,MacIntel,59.88023952,657b66ea316d21385b68909f,,,,,,,,,,,197.1206,198.1227,198.1228,198.6237,198.6238,198.8735,198.8735,0,0,204.896,space,6.0067,,204.8961,211.0192,space,6.0941,,0,7,7,4,1,95,bars/single004.png,bars/mask004.png,,,,,,,,,,,,,,,,,,,,,,,,,,,,,,,,,,,,,,,,,,,,,,,,,,,,,,,,,,,,,,,,
,,652fbbdf61e6b6fcfb879ab0,65af5687f086a38d1a40184c,2024-01-23_07h03.06.503,bars,2023.2.3,MacIntel,59.88023952,657b66ea316d21385b68909f,,,,,,,,,,,211.032,212.0369,212.0369,212.5355,212.5355,212.7694,212.7695,0,0,219.9573,space,7.178,,219.9573,222.8294,space,2.8411,,0,8,8,7,1,45,bars/single007.png,bars/mask009.png,,,,,,,,,,,,,,,,,,,,,,,,,,,,,,,,,,,,,,,,,,,,,,,,,,,,,,,,,,,,,,,,
,,652fbbdf61e6b6fcfb879ab0,65af5687f086a38d1a40184c,2024-01-23_07h03.06.503,bars,2023.2.3,MacIntel,59.88023952,657b66ea316d21385b68909f,,,,,,,,,,,222.8296,223.829,223.829,224.3299,224.33,224.5792,224.5793,0,180,229.9514,space,5.3571,,229.9514,231.9047,space,1.9324,,0,9,9,8,1,160,bars/single008.png,bars/mask004.png,,,,,,,,,,,,,,,,,,,,,,,,,,,,,,,,,,,,,,,,,,,,,,,,,,,,,,,,,,,,,,,,
,,652fbbdf61e6b6fcfb879ab0,65af5687f086a38d1a40184c,2024-01-23_07h03.06.503,bars,2023.2.3,MacIntel,59.88023952,657b66ea316d21385b68909f,,,,,,,,,,,,,,,,,,,,,,,,,,,,,,,,,,,,,231.9055,256.1097,space,24.1797,,,,,,,,,,,,,,,,,,,,,,,,,,,,,,,,,,,,,,,,,,,,,,,,,,,,,,,,,,,,
,,652fbbdf61e6b6fcfb879ab0,65af5687f086a38d1a40184c,2024-01-23_07h03.06.503,bars,2023.2.3,MacIntel,59.88023952,657b66ea316d21385b68909f,,,,,,,,,,,,,,,,,,,,,,,,,,,,,,,,,,,,,,,,,,256.1233,260.4772,right,4.3346,,260.4773,2,2,261.4802,0,0,0,0,1,9,1,9,2,,,,,,,,,,,,,,,,,,,,,,,,,,,,,,,,,,,,,,,,,
,,652fbbdf61e6b6fcfb879ab0,65af5687f086a38d1a40184c,2024-01-23_07h03.06.503,bars,2023.2.3,MacIntel,59.88023952,657b66ea316d21385b68909f,,,,,,,,,,,,,,,,,,,,,,,,,,,,,,,,,,,,,,,,,,261.4812,265.9306,left,4.4394,,265.9307,10,1,266.9327,0,1,1,1,1,10,0,10,1,,,,,,,,,,,,,,,,,,,,,,,,,,,,,,,,,,,,,,,,,
,,652fbbdf61e6b6fcfb879ab0,65af5687f086a38d1a40184c,2024-01-23_07h03.06.503,bars,2023.2.3,MacIntel,59.88023952,657b66ea316d21385b68909f,,,,,,,,,,,,,,,,,,,,,,,,,,,,,,,,,,,,,,,,,,266.9459,270.2381,right,3.2772,,270.2381,2,2,271.2385,0,2,2,2,1,10,2,10,2,,,,,,,,,,,,,,,,,,,,,,,,,,,,,,,,,,,,,,,,,
,,652fbbdf61e6b6fcfb879ab0,65af5687f086a38d1a40184c,2024-01-23_07h03.06.503,bars,2023.2.3,MacIntel,59.88023952,657b66ea316d21385b68909f,,,,,,,,,,,,,,,,,,,,,,,,,,,,,,,,,,,,,,,,,,271.2514,272.6225,left,1.3624,,272.6225,7,1,273.6228,0,3,3,3,1,8,4,7,3,,,,,,,,,,,,,,,,,,,,,,,,,,,,,,,,,,,,,,,,,
,,652fbbdf61e6b6fcfb879ab0,65af5687f086a38d1a40184c,2024-01-23_07h03.06.503,bars,2023.2.3,MacIntel,59.88023952,657b66ea316d21385b68909f,,,,,,,,,,,,,,,,,,,,,,,,,,,,,,,,,,,,,,,,,,273.6235,275.9413,left,2.3041,,275.9413,5,1,276.9427,0,4,4,4,1,6,2,5,1,,,,,,,,,,,,,,,,,,,,,,,,,,,,,,,,,,,,,,,,,
,,652fbbdf61e6b6fcfb879ab0,65af5687f086a38d1a40184c,2024-01-23_07h03.06.503,bars,2023.2.3,MacIntel,59.88023952,657b66ea316d21385b68909f,,,,,,,,,,,,,,,,,,,,,,,,,,,,,,,,,,,,,,,,,,276.9548,278.0911,right,1.1259,,278.0912,4,2,279.079,0,5,5,5,1,4,4,4,4,,,,,,,,,,,,,,,,,,,,,,,,,,,,,,,,,,,,,,,,,
,,652fbbdf61e6b6fcfb879ab0,65af5687f086a38d1a40184c,2024-01-23_07h03.06.503,bars,2023.2.3,MacIntel,59.88023952,657b66ea316d21385b68909f,,,,,,,,,,,,,,,,,,,,,,,,,,,,,,,,,,,,,,,,,,279.0795,280.7294,right,1.6402,,280.7294,2,2,281.7308,0,6,6,6,1,2,2,1,2,,,,,,,,,,,,,,,,,,,,,,,,,,,,,,,,,,,,,,,,,
,,652fbbdf61e6b6fcfb879ab0,65af5687f086a38d1a40184c,2024-01-23_07h03.06.503,bars,2023.2.3,MacIntel,59.88023952,657b66ea316d21385b68909f,,,,,,,,,,,,,,,,,,,,,,,,,,,,,,,,,,,,,,,,,,281.7313,282.6157,left,0.8681,,282.6157,0,1,283.6145,0,7,7,7,1,0,0,0,1,,,,,,,,,,,,,,,,,,,,,,,,,,,,,,,,,,,,,,,,,
,,652fbbdf61e6b6fcfb879ab0,65af5687f086a38d1a40184c,2024-01-23_07h03.06.503,bars,2023.2.3,MacIntel,59.88023952,657b66ea316d21385b68909f,,,,,,,,,,,,,,,,,,,,,,,,,,,,,,,,,,,,,,,,,,283.6152,285.2665,left,1.6443,,285.2665,1,1,286.2687,0,8,8,8,1,0,2,1,0,,,,,,,,,,,,,,,,,,,,,,,,,,,,,,,,,,,,,,,,,
,,652fbbdf61e6b6fcfb879ab0,65af5687f086a38d1a40184c,2024-01-23_07h03.06.503,bars,2023.2.3,MacIntel,59.88023952,657b66ea316d21385b68909f,,,,,,,,,,,,,,,,,,,,,,,,,,,,,,,,,,,,,,,,,,286.2806,287.2835,left,0.9919,,287.2836,2,1,288.2843,0,9,9,9,1,2,4,2,3,,,,,,,,,,,,,,,,,,,,,,,,,,,,,,,,,,,,,,,,,
,,652fbbdf61e6b6fcfb879ab0,65af5687f086a38d1a40184c,2024-01-23_07h03.06.503,bars,2023.2.3,MacIntel,59.88023952,657b66ea316d21385b68909f,,,,,,,,,,,,,,,,,,,,,,,,,,,,,,,,,,,,,,,,,,288.2847,288.7348,right,0.4369,,288.7349,3,2,289.7375,0,10,10,10,1,0,2,0,3,,,,,,,,,,,,,,,,,,,,,,,,,,,,,,,,,,,,,,,,,
,,652fbbdf61e6b6fcfb879ab0,65af5687f086a38d1a40184c,2024-01-23_07h03.06.503,bars,2023.2.3,MacIntel,59.88023952,657b66ea316d21385b68909f,,,,,,,,,,,,,,,,,,,,,,,,,,,,,,,,,,,,,,,,,,289.7385,290.3554,right,0.611,,290.3554,3,2,291.3556,0,11,11,11,1,0,4,0,3,,,,,,,,,,,,,,,,,,,,,,,,,,,,,,,,,,,,,,,,,
,,652fbbdf61e6b6fcfb879ab0,65af5687f086a38d1a40184c,2024-01-23_07h03.06.503,bars,2023.2.3,MacIntel,59.88023952,657b66ea316d21385b68909f,,,,,,,,,,,,,,,,,,,,,,,,,,,,,,,,,,,,,,,,,,291.3563,292.2395,left,0.87,,292.2396,1,1,293.2398,0,12,12,12,1,2,6,1,6,,,,,,,,,,,,,,,,,,,,,,,,,,,,,,,,,,,,,,,,,
,,652fbbdf61e6b6fcfb879ab0,65af5687f086a38d1a40184c,2024-01-23_07h03.06.503,bars,2023.2.3,MacIntel,59.88023952,657b66ea316d21385b68909f,,,,,,,,,,,,,,,,,,,,,,,,,,,,,,,,,,,,,,,,,,293.2403,293.5911,right,0.3345,,293.5911,3,2,294.5919,0,13,13,13,1,0,4,1,3,,,,,,,,,,,,,,,,,,,,,,,,,,,,,,,,,,,,,,,,,
,,652fbbdf61e6b6fcfb879ab0,65af5687f086a38d1a40184c,2024-01-23_07h03.06.503,bars,2023.2.3,MacIntel,59.88023952,657b66ea316d21385b68909f,,,,,,,,,,,,,,,,,,,,,,,,,,,,,,,,,,,,,,,,,,294.5929,296.21,right,1.6006,,296.21,7,2,297.2107,0,14,14,14,1,2,6,2,7,,,,,,,,,,,,,,,,,,,,,,,,,,,,,,,,,,,,,,,,,
,,652fbbdf61e6b6fcfb879ab0,65af5687f086a38d1a40184c,2024-01-23_07h03.06.503,bars,2023.2.3,MacIntel,59.88023952,657b66ea316d21385b68909f,,,,,,,,,,,,,,,,,,,,,,,,,,,,,,,,,,,,,,,,,,297.2112,298.4596,left,1.2378,,298.4596,3,1,299.4635,0,15,15,15,1,4,8,3,9,,,,,,,,,,,,,,,,,,,,,,,,,,,,,,,,,,,,,,,,,
,,652fbbdf61e6b6fcfb879ab0,65af5687f086a38d1a40184c,2024-01-23_07h03.06.503,bars,2023.2.3,MacIntel,59.88023952,657b66ea316d21385b68909f,,,,,,,,,,,,,,,,,,,,,,,,,,,,,,,,,,,,,,,,,,299.464,299.8128,right,0.3351,,299.8128,7,2,300.814,0,16,16,16,1,6,6,7,7,,,,,,,,,,,,,,,,,,,,,,,,,,,,,,,,,,,,,,,,,
,,652fbbdf61e6b6fcfb879ab0,65af5687f086a38d1a40184c,2024-01-23_07h03.06.503,bars,2023.2.3,MacIntel,59.88023952,657b66ea316d21385b68909f,,,,,,,,,,,,,,,,,,,,,,,,,,,,,,,,,,,,,,,,,,300.8145,301.6472,right,0.8192,,301.6473,5,2,302.6491,0,17,17,17,1,8,4,9,5,,,,,,,,,,,,,,,,,,,,,,,,,,,,,,,,,,,,,,,,,
,,652fbbdf61e6b6fcfb879ab0,65af5687f086a38d1a40184c,2024-01-23_07h03.06.503,bars,2023.2.3,MacIntel,59.88023952,657b66ea316d21385b68909f,,,,,,,,,,,,,,,,,,,,,,,,,,,,,,,,,,,,,,,,,,302.6494,303.4835,right,0.8208,,303.4835,1,2,304.4809,0,18,18,18,1,6,2,5,1,,,,,,,,,,,,,,,,,,,,,,,,,,,,,,,,,,,,,,,,,
,,652fbbdf61e6b6fcfb879ab0,65af5687f086a38d1a40184c,2024-01-23_07h03.06.503,bars,2023.2.3,MacIntel,59.88023952,657b66ea316d21385b68909f,,,,,,,,,,,,,,,,,,,,,,,,,,,,,,,,,,,,,,,,,,304.4816,305.3186,left,0.8237,,305.3187,7,1,306.3156,0,19,19,19,1,8,0,7,0,,,,,,,,,,,,,,,,,,,,,,,,,,,,,,,,,,,,,,,,,
,,652fbbdf61e6b6fcfb879ab0,65af5687f086a38d1a40184c,2024-01-23_07h03.06.503,bars,2023.2.3,MacIntel,59.88023952,657b66ea316d21385b68909f,,,,,,,,,,,,,,,,,,,,,,,,,,,,,,,,,,,,,,,,,,,,,,,,,,,,,,,,,,,,306.3169,320.8989,space,14.5712,,,,,,,,,,,,,,,,,,,,,,,,,,,,,,,,,,,,,
,,652fbbdf61e6b6fcfb879ab0,65af5687f086a38d1a40184c,2024-01-23_07h03.06.503,bars,2023.2.3,MacIntel,59.88023952,657b66ea316d21385b68909f,,,,,,,,,,,323.0854,324.0845,,,324.5836,324.8335,,0,180,,,,,,,,,,,,,,,,bars/012.png,bars/mask004.png,,,,,,,,,,,,1,2,,,,,,,8,2,9,1,,,,,,320.914,323.0832,space,2.1535,,324.0851,324.5835,324.8339,333.1754,space,8.3243,,333.1757,90,15,334.176,334.1764,339.6967,space,5.5067,,0,0,0,0,1,90,15,,,,,,,,
,,652fbbdf61e6b6fcfb879ab0,65af5687f086a38d1a40184c,2024-01-23_07h03.06.503,bars,2023.2.3,MacIntel,59.88023952,657b66ea316d21385b68909f,,,,,,,,,,,339.7091,340.6988,,,341.1976,341.4476,,0,0,,,,,,,,,,,,,,,,bars/026.png,bars/mask000.png,,,,,,,,,,,,0,1,,,,,,,6,4,6,4,,,,,,,,,,,340.6988,341.1975,341.4477,355.6623,space,14.208,,355.6625,35,85,356.661,356.6612,360.1978,space,3.5056,,0,1,1,1,1,35,85,,,,,,,,
,,652fbbdf61e6b6fcfb879ab0,65af5687f086a38d1a40184c,2024-01-23_07h03.06.503,bars,2023.2.3,MacIntel,59.88023952,657b66ea316d21385b68909f,,,,,,,,,,,360.1985,361.1867,,,361.6832,361.9343,,31,211,,,,,,,,,,,,,,,,bars/034.png,bars/mask003.png,,,,,,,,,,,,0,2,,,,,,,8,2,8,2,,,,,,,,,,,361.1869,361.6831,361.9344,374.2116,space,12.2613,,374.2116,86,34,375.2092,375.2092,386.2215,space,10.9934,,0,2,2,2,1,125,65,,,,,,,,
,,652fbbdf61e6b6fcfb879ab0,65af5687f086a38d1a40184c,2024-01-23_07h03.06.503,bars,2023.2.3,MacIntel,59.88023952,657b66ea316d21385b68909f,,,,,,,,,,,386.222,387.2239,,,387.7228,387.9735,,90,90,,,,,,,,,,,,,,,,bars/028.png,bars/mask004.png,,,,,,,,,,,,0,2,,,,,,,6,4,5,5,,,,,,,,,,,387.224,387.7227,387.9737,396.9812,space,8.9906,,396.9812,45,30,397.9811,397.9811,405.6371,space,7.6312,,0,3,3,3,1,45,120,,,,,,,,
,,652fbbdf61e6b6fcfb879ab0,65af5687f086a38d1a40184c,2024-01-23_07h03.06.503,bars,2023.2.3,MacIntel,59.88023952,657b66ea316d21385b68909f,,,,,,,,,,,405.6496,406.654,,,407.1402,407.3901,,120,120,,,,,,,,,,,,,,,,bars/023.png,bars/mask004.png,,,,,,,,,,,,1,2,,,,,,,4,2,5,1,,,,,,,,,,,406.6541,407.1402,407.3904,414.6777,space,7.2809,,414.6778,80,5,415.6812,415.6812,427.0069,space,11.3005,,0,4,4,4,1,20,115,,,,,,,,
,,652fbbdf61e6b6fcfb879ab0,65af5687f086a38d1a40184c,2024-01-23_07h03.06.503,bars,2023.2.3,MacIntel,59.88023952,657b66ea316d21385b68909f,,,,,,,,,,,427.0186,428.0253,,,428.5081,428.7593,,113,113,,,,,,,,,,,,,,,,bars/017.png,bars/mask000.png,,,,,,,,,,,,0,1,,,,,,,2,0,3,2,,,,,,,,,,,428.0255,428.5081,428.7594,434.247,space,5.4701,,434.247,32,68,435.2477,435.248,435.5978,space,0.3197,,0,5,5,5,1,145,45,,,,,,,,
,,652fbbdf61e6b6fcfb879ab0,65af5687f086a38d1a40184c,2024-01-23_07h03.06.503,bars,2023.2.3,MacIntel,59.88023952,657b66ea316d21385b68909f,,,,,,,,,,,435.5981,436.5963,,,437.0988,437.35,,0,180,,,,,,,,,,,,,,,,bars/049.png,bars/mask009.png,,,,,,,,,,,,0,1,,,,,,,0,2,1,3,,,,,,,,,,,436.5963,437.0988,437.3501,440.9671,space,3.6037,,440.9671,20,65,441.9689,441.9689,442.1701,space,0.1737,,0,6,6,6,1,160,115,,,,,,,,
,,652fbbdf61e6b6fcfb879ab0,65af5687f086a38d1a40184c,2024-01-23_07h03.06.503,bars,2023.2.3,MacIntel,59.88023952,657b66ea316d21385b68909f,,,,,,,,,,,442.1704,443.1697,,,443.6724,443.9227,,135,135,,,,,,,,,,,,,,,,bars/023.png,bars/mask007.png,,,,,,,,,,,,0,2,,,,,,,2,0,2,0,,,,,,,,,,,443.1698,443.6723,443.9227,449.4767,space,5.5414,,449.4768,65,20,450.4786,450.4787,461.2373,space,10.7284,,0,7,7,7,1,20,115,,,,,,,,
,,652fbbdf61e6b6fcfb879ab0,65af5687f086a38d1a40184c,2024-01-23_07h03.06.503,bars,2023.2.3,MacIntel,59.88023952,657b66ea316d21385b68909f,,,,,,,,,,,461.2441,462.237,,,462.7373,462.9867,,115,115,,,,,,,,,,,,,,,,bars/037.png,bars/mask007.png,,,,,,,,,,,,1,2,,,,,,,0,2,0,2,,,,,,,,,,,462.237,462.7373,462.9867,472.2279,space,9.2277,,472.228,35,10,473.2314,473.2314,478.4195,space,5.1692,,0,8,8,8,1,150,105,,,,,,,,
,,652fbbdf61e6b6fcfb879ab0,65af5687f086a38d1a40184c,2024-01-23_07h03.06.503,bars,2023.2.3,MacIntel,59.88023952,657b66ea316d21385b68909f,,,,,,,,,,,478.4323,479.4361,,,479.9199,480.1679,,105,-75,,,,,,,,,,,,,,,,bars/007.png,bars/mask002.png,,,,,,,,,,,,0,2,,,,,,,0,4,0,4,,,,,,,,,,,479.4361,479.9198,480.1681,493.8473,space,13.6634,,493.8473,70,50,494.8481,494.8481,510.5775,space,15.71,,0,9,9,9,1,175,55,,,,,,,,
,,652fbbdf61e6b6fcfb879ab0,65af5687f086a38d1a40184c,2024-01-23_07h03.06.503,bars,2023.2.3,MacIntel,59.88023952,657b66ea316d21385b68909f,,,,,,,,,,,510.588,511.5788,,,512.0807,512.3313,,56,236,,,,,,,,,,,,,,,,bars/040.png,bars/mask005.png,,,,,,,,,,,,0,2,,,,,,,0,6,3,5,,,,,,,,,,,511.579,512.0806,512.3314,523.7739,space,11.4289,,523.7739,84,51,524.7762,524.7762,533.6838,space,8.8882,,0,10,10,10,1,140,5,,,,,,,,
,,652fbbdf61e6b6fcfb879ab0,65af5687f086a38d1a40184c,2024-01-23_07h03.06.503,bars,2023.2.3,MacIntel,59.88023952,657b66ea316d21385b68909f,,,,,,,,,,,533.697,534.7015,,,535.1848,535.4352,,5,5,,,,,,,,,,,,,,,,bars/010.png,bars/mask004.png,,,,,,,,,,,,1,1,,,,,,,2,4,3,5,,,,,,,,,,,534.7015,535.1848,535.4352,552.9017,space,17.4603,,552.9017,20,50,553.8997,553.8998,560.6378,space,6.7095,,0,11,11,11,1,165,55,,,,,,,,
,,652fbbdf61e6b6fcfb879ab0,65af5687f086a38d1a40184c,2024-01-23_07h03.06.503,bars,2023.2.3,MacIntel,59.88023952,657b66ea316d21385b68909f,,,,,,,,,,,560.6502,561.641,,,562.1412,562.3917,,54,54,,,,,,,,,,,,,,,,bars/010.png,bars/mask004.png,,,,,,,,,,,,5,2,,,,,,,0,6,0,5,,,,,,,,,,,561.641,562.1412,562.3918,570.7821,space,8.3777,,570.7822,69,1,571.7843,571.7843,582.2747,space,10.4633,,0,12,12,12,1,165,55,,,,,,,,
,,652fbbdf61e6b6fcfb879ab0,65af5687f086a38d1a40184c,2024-01-23_07h03.06.503,bars,2023.2.3,MacIntel,59.88023952,657b66ea316d21385b68909f,,,,,,,,,,,582.2877,583.2774,,,583.7755,584.0265,,56,56,,,,,,,,,,,,,,,,bars/006.png,bars/mask006.png,,,,,,,,,,,,1,1,,,,,,,2,4,2,4,,,,,,,,,,,583.2775,583.7755,584.0266,597.9892,space,13.9496,,597.9892,21,44,598.9903,598.9903,614.5552,space,15.534,,0,13,13,13,1,35,100,,,,,,,,
,,652fbbdf61e6b6fcfb879ab0,65af5687f086a38d1a40184c,2024-01-23_07h03.06.503,bars,2023.2.3,MacIntel,59.88023952,657b66ea316d21385b68909f,,,,,,,,,,,614.5684,615.5724,,,616.072,616.3055,,35,35,,,,,,,,,,,,,,,,bars/036.png,bars/mask003.png,,,,,,,,,,,,3,2,,,,,,,0,6,0,6,,,,,,,,,,,615.5726,616.072,616.3057,625.3305,space,9.0178,,625.3305,70,15,626.331,626.3311,632.3694,space,6.009,,0,14,14,14,1,145,20,,,,,,,,
,,652fbbdf61e6b6fcfb879ab0,65af5687f086a38d1a40184c,2024-01-23_07h03.06.503,bars,2023.2.3,MacIntel,59.88023952,657b66ea316d21385b68909f,,,,,,,,,,,632.3826,633.3716,,,633.8716,634.1225,,20,20,,,,,,,,,,,,,,,,bars/044.png,bars/mask006.png,,,,,,,,,,,,0,2,,,,,,,2,8,1,8,,,,,,,,,,,633.3717,633.8715,634.1226,640.624,space,6.4897,,640.624,55,45,641.6124,641.6126,647.183,space,5.5444,,0,15,15,15,1,75,155,,,,,,,,
,,652fbbdf61e6b6fcfb879ab0,65af5687f086a38d1a40184c,2024-01-23_07h03.06.503,bars,2023.2.3,MacIntel,59.88023952,657b66ea316d21385b68909f,,,,,,,,,,,647.1955,648.1849,,,648.6855,648.9326,,155,-25,,,,,,,,,,,,,,,,bars/041.png,bars/mask004.png,,,,,,,,,,,,0,1,,,,,,,0,10,0,9,,,,,,,,,,,648.185,648.6855,648.9328,656.7397,space,7.7903,,656.7398,45,70,657.7409,657.741,663.5615,space,5.7989,,0,16,16,16,1,20,85,,,,,,,,
,,652fbbdf61e6b6fcfb879ab0,65af5687f086a38d1a40184c,2024-01-23_07h03.06.503,bars,2023.2.3,MacIntel,59.88023952,657b66ea316d21385b68909f,,,,,,,,,,,663.5741,664.5649,,,665.0651,665.3155,,20,20,,,,,,,,,,,,,,,,bars/040.png,bars/mask000.png,,,,,,,,,,,,5,2,,,,,,,0,10,0,10,,,,,,,,,,,664.565,665.0651,665.3156,676.442,space,11.1135,,676.442,60,15,677.4427,677.4428,682.1131,space,4.6482,,0,17,17,17,1,140,5,,,,,,,,
,,652fbbdf61e6b6fcfb879ab0,65af5687f086a38d1a40184c,2024-01-23_07h03.06.503,bars,2023.2.3,MacIntel,59.88023952,657b66ea316d21385b68909f,,,,,,,,,,,682.123,683.1131,,,683.6142,683.865,,5,5,,,,,,,,,,,,,,,,bars/018.png,bars/mask000.png,,,,,,,,,,,,0,1,,,,,,,0,10,0,9,,,,,,,,,,,683.1131,683.6141,683.865,694.9578,space,11.0878,,694.9579,35,85,695.9582,695.9583,701.496,space,5.5114,,0,18,18,18,1,150,90,,,,,,,,
,,652fbbdf61e6b6fcfb879ab0,65af5687f086a38d1a40184c,2024-01-23_07h03.06.503,bars,2023.2.3,MacIntel,59.88023952,657b66ea316d21385b68909f,,,,,,,,,,,701.509,702.5139,,,703.0156,703.2481,,150,-30,,,,,,,,,,,,,,,,bars/020.png,bars/mask005.png,,,,,,,,,,,,3,2,,,,,,,2,8,2,8,,,,,,,,,,,702.5139,703.0156,703.2482,717.8288,space,14.5619,,717.829,35,20,718.8282,718.8283,726.6352,space,7.7779,,0,19,19,19,1,115,170,,,,,,,,
,,652fbbdf61e6b6fcfb879ab0,65af5687f086a38d1a40184c,2024-01-23_07h03.06.503,bars,2023.2.3,MacIntel,59.88023952,657b66ea316d21385b68909f,,,,,,,,,,,726.6465,727.6354,,,728.1357,728.3843,,170,170,,,,,,,,,,,,,,,,bars/019.png,bars/mask006.png,,,,,,,,,,,,0,1,,,,,,,0,6,1,6,,,,,,,,,,,727.6355,728.1356,728.3844,736.4251,space,8.0253,,736.4252,55,65,737.4272,737.4273,745.5192,space,8.0622,,0,20,20,20,1,45,105,,,,,,,,
,,652fbbdf61e6b6fcfb879ab0,65af5687f086a38d1a40184c,2024-01-23_07h03.06.503,bars,2023.2.3,MacIntel,59.88023952,657b66ea316d21385b68909f,,,,,,,,,,,745.5313,746.5353,,,747.0196,747.2693,,45,225,,,,,,,,,,,,,,,,bars/044.png,bars/mask000.png,,,,,,,,,,,,0,1,,,,,,,2,8,2,5,,,,,,,,,,,746.5354,747.0196,747.2693,760.9823,space,13.7067,,760.9825,30,70,761.9841,761.9842,770.3082,space,8.3051,,0,21,21,21,1,75,155,,,,,,,,
,,652fbbdf61e6b6fcfb879ab0,65af5687f086a38d1a40184c,2024-01-23_07h03.06.503,bars,2023.2.3,MacIntel,59.88023952,657b66ea316d21385b68909f,,,,,,,,,,,770.3209,771.3244,,,771.8242,772.0744,,75,75,,,,,,,,,,,,,,,,bars/048.png,bars/mask008.png,,,,,,,,,,,,1,1,,,,,,,4,6,4,7,,,,,,,,,,,771.3245,771.824,772.0745,783.2662,space,11.1765,,783.2663,25,80,784.2689,784.269,790.0075,space,5.7138,,0,22,22,22,1,50,175,,,,,,,,
,,652fbbdf61e6b6fcfb879ab0,65af5687f086a38d1a40184c,2024-01-23_07h03.06.503,bars,2023.2.3,MacIntel,59.88023952,657b66ea316d21385b68909f,,,,,,,,,,,790.0207,791.0242,,,791.5087,791.7592,,50,50,,,,,,,,,,,,,,,,bars/042.png,bars/mask000.png,,,,,,,,,,,,1,2,,,,,,,2,4,3,4,,,,,,,,,,,791.0243,791.5086,791.7593,796.4947,space,4.7212,,796.4947,85,25,797.4964,797.4964,805.168,space,7.649,,0,23,23,23,1,145,75,,,,,,,,
,,652fbbdf61e6b6fcfb879ab0,65af5687f086a38d1a40184c,2024-01-23_07h03.06.503,bars,2023.2.3,MacIntel,59.88023952,657b66ea316d21385b68909f,,,,,,,,,,,805.1813,806.1717,,,806.6708,806.9211,,45,45,,,,,,,,,,,,,,,,bars/020.png,bars/mask002.png,,,,,,,,,,,,0,2,,,,,,,0,2,1,3,,,,,,,,,,,806.1718,806.6707,806.9212,815.9964,space,9.0593,,815.9965,70,55,816.9968,816.9969,822.2026,space,5.185,,0,24,24,24,1,115,170,,,,,,,,
,,652fbbdf61e6b6fcfb879ab0,65af5687f086a38d1a40184c,2024-01-23_07h03.06.503,bars,2023.2.3,MacIntel,59.88023952,657b66ea316d21385b68909f,,,,,,,,,,,822.2154,823.2027,,,823.7028,823.9537,,170,-10,,,,,,,,,,,,,,,,bars/032.png,bars/mask008.png,,,,,,,,,,,,0,2,,,,,,,0,0,2,0,,,,,,,,,,,823.2028,823.7027,823.9538,830.8422,space,6.8742,,830.8422,45,30,831.8421,831.8421,836.9814,space,5.1117,,0,25,25,25,1,125,20,,,,,,,,
,,652fbbdf61e6b6fcfb879ab0,65af5687f086a38d1a40184c,2024-01-23_07h03.06.503,bars,2023.2.3,MacIntel,59.88023952,657b66ea316d21385b68909f,,,,,,,,,,,836.9936,837.9977,,,838.484,838.7319,,20,20,,,,,,,,,,,,,,,,bars/022.png,bars/mask001.png,,,,,,,,,,,,0,2,,,,,,,2,0,1,0,,,,,,,,,,,837.9979,838.484,838.7321,847.4911,space,8.7414,,847.4912,75,0,848.4894,848.4894,854.0116,space,5.4967,,0,26,26,26,1,95,20,,,,,,,,
,,652fbbdf61e6b6fcfb879ab0,65af5687f086a38d1a40184c,2024-01-23_07h03.06.503,bars,2023.2.3,MacIntel,59.88023952,657b66ea316d21385b68909f,,,,,,,,,,,854.0242,855.0142,,,855.5143,855.7624,,0,180,,,,,,,,,,,,,,,,bars/000.png,bars/mask000.png,,,,,,,,,,,,0,2,,,,,,,0,2,0,2,,,,,,,,,,,855.0142,855.5142,855.7625,859.5678,space,3.7866,,859.5679,40,35,860.5689,860.5689,868.0916,space,7.4983,,0,27,27,27,1,40,145,,,,,,,,
,,652fbbdf61e6b6fcfb879ab0,65af5687f086a38d1a40184c,2024-01-23_07h03.06.503,bars,2023.2.3,MacIntel,59.88023952,657b66ea316d21385b68909f,,,,,,,,,,,868.1041,869.0933,,,869.5919,869.8433,,145,-35,,,,,,,,,,,,,,,,bars/049.png,bars/mask003.png,,,,,,,,,,,,0,1,,,,,,,0,0,0,1,,,,,,,,,,,869.0934,869.5919,869.8433,879.9846,space,10.1288,,879.9847,15,30,880.9866,880.9867,886.1894,space,5.1714,,0,28,28,28,1,160,115,,,,,,,,
,,652fbbdf61e6b6fcfb879ab0,65af5687f086a38d1a40184c,2024-01-23_07h03.06.503,bars,2023.2.3,MacIntel,59.88023952,657b66ea316d21385b68909f,,,,,,,,,,,886.2004,887.1934,,,887.6913,887.9402,,160,160,,,,,,,,,,,,,,,,bars/038.png,bars/mask009.png,,,,,,,,,,,,2,1,,,,,,,2,0,2,0,,,,,,,,,,,887.1934,887.6911,887.9402,893.4487,space,5.5001,,893.4487,5,90,894.448,894.4481,900.7209,space,6.2566,,0,29,29,29,1,165,70,,,,,,,,
,,652fbbdf61e6b6fcfb879ab0,65af5687f086a38d1a40184c,2024-01-23_07h03.06.503,bars,2023.2.3,MacIntel,59.88023952,657b66ea316d21385b68909f,,,,,,,,,,,900.7329,901.7202,,,902.2205,902.4721,,165,165,,,,,,,,,,,,,,,,bars/022.png,bars/mask000.png,,,,,,,,,,,,0,2,,,,,,,0,2,0,2,,,,,,,,,,,901.7203,902.2204,902.4722,909.9116,space,7.425,,909.9117,70,35,910.9129,910.913,919.1699,space,8.2362,,0,30,30,30,1,95,20,,,,,,,,
,,652fbbdf61e6b6fcfb879ab0,65af5687f086a38d1a40184c,2024-01-23_07h03.06.503,bars,2023.2.3,MacIntel,59.88023952,657b66ea316d21385b68909f,,,,,,,,,,,919.1823,920.1719,,,920.672,920.922,,20,20,,,,,,,,,,,,,,,,bars/000.png,bars/mask005.png,,,,,,,,,,,,0,1,,,,,,,2,0,1,0,,,,,,,,,,,920.172,920.672,920.9222,931.8814,space,10.9447,,931.8817,20,55,932.8801,932.8802,936.316,space,3.4043,,0,31,31,31,1,40,145,,,,,,,,
,,652fbbdf61e6b6fcfb879ab0,65af5687f086a38d1a40184c,2024-01-23_07h03.06.503,bars,2023.2.3,MacIntel,59.88023952,657b66ea316d21385b68909f,,,,,,,,,,,936.3164,937.3182,,,937.8209,938.0677,,40,220,,,,,,,,,,,,,,,,bars/007.png,bars/mask000.png,,,,,,,,,,,,1,2,,,,,,,4,2,5,2,,,,,,,,,,,937.3182,937.8207,938.0679,949.6779,space,11.601,,949.678,45,15,950.6808,950.6808,954.4185,space,3.7059,,0,32,32,32,1,175,55,,,,,,,,
,,652fbbdf61e6b6fcfb879ab0,65af5687f086a38d1a40184c,2024-01-23_07h03.06.503,bars,2023.2.3,MacIntel,59.88023952,657b66ea316d21385b68909f,,,,,,,,,,,954.419,955.4182,,,955.9191,956.1679,,55,55,,,,,,,,,,,,,,,,bars/023.png,bars/mask001.png,,,,,,,,,,,,0,1,,,,,,,2,0,3,1,,,,,,,,,,,955.4183,955.919,956.1679,964.1411,space,7.9662,,964.1411,35,60,965.1444,965.1445,968.6453,space,3.4789,,0,33,33,33,1,20,115,,,,,,,,
,,652fbbdf61e6b6fcfb879ab0,65af5687f086a38d1a40184c,2024-01-23_07h03.06.503,bars,2023.2.3,MacIntel,59.88023952,657b66ea316d21385b68909f,,,,,,,,,,,968.6457,969.6476,,,970.1466,970.3988,,19,19,,,,,,,,,,,,,,,,bars/042.png,bars/mask002.png,,,,,,,,,,,,0,1,,,,,,,0,0,0,0,,,,,,,,,,,969.6476,970.1465,970.3988,983.409,space,12.9972,,983.409,54,56,984.4097,984.4097,989.1304,space,4.7014,,0,34,34,34,1,145,75,,,,,,,,
,,652fbbdf61e6b6fcfb879ab0,65af5687f086a38d1a40184c,2024-01-23_07h03.06.503,bars,2023.2.3,MacIntel,59.88023952,657b66ea316d21385b68909f,,,,,,,,,,,989.1435,990.1329,,,990.6305,990.8813,,145,-35,,,,,,,,,,,,,,,,bars/031.png,bars/mask002.png,,,,,,,,,,,,0,1,,,,,,,0,2,1,1,,,,,,,,,,,990.133,990.6304,990.8814,998.1697,space,7.2732,,998.1697,25,70,999.1714,999.1715,1006.5638,space,7.3626,,0,35,35,35,1,120,35,,,,,,,,
,,652fbbdf61e6b6fcfb879ab0,65af5687f086a38d1a40184c,2024-01-23_07h03.06.503,bars,2023.2.3,MacIntel,59.88023952,657b66ea316d21385b68909f,,,,,,,,,,,1006.5769,1007.5812,,,1008.064,1008.3144,,120,-60,,,,,,,,,,,,,,,,bars/039.png,bars/mask006.png,,,,,,,,,,,,0,2,,,,,,,0,0,0,0,,,,,,,,,,,1007.5812,1008.0639,1008.3145,1016.589,space,8.2558,,1016.5891,55,15,1017.5892,1017.5893,1026.6807,space,9.0664,,0,36,36,36,1,175,105,,,,,,,,
,,652fbbdf61e6b6fcfb879ab0,65af5687f086a38d1a40184c,2024-01-23_07h03.06.503,bars,2023.2.3,MacIntel,59.88023952,657b66ea316d21385b68909f,,,,,,,,,,,1026.6925,1027.6808,,,1028.1824,1028.4318,,105,-75,,,,,,,,,,,,,,,,bars/009.png,bars/mask006.png,,,,,,,,,,,,0,2,,,,,,,0,0,0,0,,,,,,,,,,,1027.6809,1028.1823,1028.4319,1038.4731,space,10.0252,,1038.4733,90,0,1039.475,1039.4751,1049.2991,space,9.795,,0,37,37,37,1,15,105,,,,,,,,
,,652fbbdf61e6b6fcfb879ab0,65af5687f086a38d1a40184c,2024-01-23_07h03.06.503,bars,2023.2.3,MacIntel,59.88023952,657b66ea316d21385b68909f,,,,,,,,,,,1049.312,1050.3011,,,1050.8008,1051.0499,,105,105,,,,,,,,,,,,,,,,bars/025.png,bars/mask001.png,,,,,,,,,,,,0,1,,,,,,,0,0,0,1,,,,,,,,,,,1050.3012,1050.8008,1051.05,1059.5582,space,8.4951,,1059.5582,0,65,1060.559,1060.5592,1063.9462,space,3.3593,,0,38,38,38,1,105,40,,,,,,,,
,,652fbbdf61e6b6fcfb879ab0,65af5687f086a38d1a40184c,2024-01-23_07h03.06.503,bars,2023.2.3,MacIntel,59.88023952,657b66ea316d21385b68909f,,,,,,,,,,,1063.9465,1064.9462,,,1065.4471,1065.6957,,0,180,,,,,,,,,,,,,,,,bars/046.png,bars/mask002.png,,,,,,,,,,,,0,1,,,,,,,2,0,3,0,,,,,,,,,,,1064.9463,1065.447,1065.6957,1072.5359,space,6.819,,1072.536,25,85,1073.5383,1073.5383,1080.8938,space,7.3416,,0,39,39,39,1,155,85,,,,,,,,
,,652fbbdf61e6b6fcfb879ab0,65af5687f086a38d1a40184c,2024-01-23_07h03.06.503,bars,2023.2.3,MacIntel,59.88023952,657b66ea316d21385b68909f,,,,,,,,,,,1080.907,1081.8951,,,1082.3953,1082.6459,,155,155,,,,,,,,,,,,,,,,bars/037.png,bars/mask001.png,,,,,,,,,,,,3,1,,,,,,,4,0,4,1,,,,,,,,,,,1081.8952,1082.3952,1082.646,1090.0517,space,7.3971,,1090.0517,5,50,1091.0532,1091.0532,1097.8585,space,6.782,,0,40,40,40,1,150,105,,,,,,,,
,,652fbbdf61e6b6fcfb879ab0,65af5687f086a38d1a40184c,2024-01-23_07h03.06.503,bars,2023.2.3,MacIntel,59.88023952,657b66ea316d21385b68909f,,,,,,,,,,,1097.8672,1098.8617,,,1099.3598,1099.6116,,150,-30,,,,,,,,,,,,,,,,bars/033.png,bars/mask005.png,,,,,,,,,,,,0,2,,,,,,,6,0,4,0,,,,,,,,,,,1098.8617,1099.3598,1099.6117,1107.184,space,7.5659,,1107.1842,55,5,1108.1859,1108.186,1114.691,space,6.4729,,0,41,41,41,1,25,155,,,,,,,,
,,652fbbdf61e6b6fcfb879ab0,65af5687f086a38d1a40184c,2024-01-23_07h03.06.503,bars,2023.2.3,MacIntel,59.88023952,657b66ea316d21385b68909f,,,,,,,,,,,1114.704,1115.6923,,,1116.192,1116.4402,,155,155,,,,,,,,,,,,,,,,bars/023.png,bars/mask004.png,,,,,,,,,,,,0,2,,,,,,,4,2,5,2,,,,,,,,,,,1115.6924,1116.192,1116.4403,1122.3476,space,5.8906,,1122.3476,45,40,1123.3475,1123.3475,1127.5176,space,4.1463,,0,42,42,42,1,20,115,,,,,,,,
,,652fbbdf61e6b6fcfb879ab0,65af5687f086a38d1a40184c,2024-01-23_07h03.06.503,bars,2023.2.3,MacIntel,59.88023952,657b66ea316d21385b68909f,,,,,,,,,,,1127.5304,1128.5183,,,1129.0204,1129.2702,,115,115,,,,,,,,,,,,,,,,bars/036.png,bars/mask002.png,,,,,,,,,,,,0,1,,,,,,,6,0,7,1,,,,,,,,,,,1128.5183,1129.0203,1129.2702,1139.1463,space,9.8708,,1139.1464,30,85,1140.1463,1140.1464,1142.9634,space,2.793,,0,43,43,43,1,145,20,,,,,,,,
,,652fbbdf61e6b6fcfb879ab0,65af5687f086a38d1a40184c,2024-01-23_07h03.06.503,bars,2023.2.3,MacIntel,59.88023952,657b66ea316d21385b68909f,,,,,,,,,,,1142.9637,1143.9677,,,1144.4666,1144.7178,,145,-35,,,,,,,,,,,,,,,,bars/000.png,bars/mask006.png,,,,,,,,,,,,2,2,,,,,,,4,2,6,2,,,,,,,,,,,1143.9678,1144.4666,1144.7178,1151.6888,space,6.958,,1151.6889,75,0,1152.6896,1152.6896,1155.9916,space,3.2808,,0,44,44,44,1,40,145,,,,,,,,
,,652fbbdf61e6b6fcfb879ab0,65af5687f086a38d1a40184c,2024-01-23_07h03.06.503,bars,2023.2.3,MacIntel,59.88023952,657b66ea316d21385b68909f,,,,,,,,,,,1155.9922,1156.9939,,,1157.4957,1157.7449,,0,180,,,,,,,,,,,,,,,,bars/020.png,bars/mask002.png,,,,,,,,,,,,3,2,,,,,,,2,4,3,4,,,,,,,,,,,1156.994,1157.4957,1157.745,1162.8817,space,5.1226,,1162.8817,65,10,1163.8837,1163.8837,1172.0078,space,8.1001,,0,45,45,45,1,115,170,,,,,,,,
,,652fbbdf61e6b6fcfb879ab0,65af5687f086a38d1a40184c,2024-01-23_07h03.06.503,bars,2023.2.3,MacIntel,59.88023952,657b66ea316d21385b68909f,,,,,,,,,,,1172.0203,1173.0093,,,1173.5067,1173.759,,170,-10,,,,,,,,,,,,,,,,bars/035.png,bars/mask001.png,,,,,,,,,,,,3,1,,,,,,,4,2,4,1,,,,,,,,,,,1173.0094,1173.5067,1173.759,1184.3668,space,10.5964,,1184.3669,5,70,1185.3679,1185.368,1190.8052,space,5.409,,0,46,46,46,1,175,60,,,,,,,,
,,652fbbdf61e6b6fcfb879ab0,65af5687f086a38d1a40184c,2024-01-23_07h03.06.503,bars,2023.2.3,MacIntel,59.88023952,657b66ea316d21385b68909f,,,,,,,,,,,1190.8158,1191.8088,,,1192.3074,1192.5583,,176,-4,,,,,,,,,,,,,,,,bars/048.png,bars/mask002.png,,,,,,,,,,,,0,2,,,,,,,6,0,6,0,,,,,,,,,,,1191.8088,1192.3073,1192.5584,1197.4309,space,4.8575,,1197.4309,54,1,1198.4318,1198.4319,1204.9199,space,6.4623,,0,47,47,47,1,50,175,,,,,,,,
,,652fbbdf61e6b6fcfb879ab0,65af5687f086a38d1a40184c,2024-01-23_07h03.06.503,bars,2023.2.3,MacIntel,59.88023952,657b66ea316d21385b68909f,,,,,,,,,,,1204.9324,1205.922,,,1206.4219,1206.6714,,175,-5,,,,,,,,,,,,,,,,bars/017.png,bars/mask007.png,,,,,,,,,,,,0,1,,,,,,,4,2,5,2,,,,,,,,,,,1205.922,1206.4218,1206.6715,1215.7278,space,9.0441,,1215.7279,30,50,1216.7301,1216.7302,1223.4373,space,6.6742,,0,48,48,48,1,145,45,,,,,,,,
,,652fbbdf61e6b6fcfb879ab0,65af5687f086a38d1a40184c,2024-01-23_07h03.06.503,bars,2023.2.3,MacIntel,59.88023952,657b66ea316d21385b68909f,,,,,,,,,,,1223.4496,1224.4543,,,1224.9393,1225.1853,,146,-34,,,,,,,,,,,,,,,,bars/003.png,bars/mask001.png,,,,,,,,,,,,2,2,,,,,,,2,4,4,3,,,,,,,,,,,1224.4548,1224.9392,1225.1853,1238.3665,space,13.1626,,1238.3666,59,6,1239.3666,1239.3666,1244.9714,space,5.5759,,0,49,49,49,1,25,140,,,,,,,,
,,652fbbdf61e6b6fcfb879ab0,65af5687f086a38d1a40184c,2024-01-23_07h03.06.503,bars,2023.2.3,MacIntel,59.88023952,657b66ea316d21385b68909f,,,,,,,,,,,,,,,,,,,,,,,,,,,,,,,,,,,,,,,,,,,,,,,,,,,,,,,,,,,,,,,,,,,,,,,,,,,,,,,,,,,,,,,,,,,,,1244.9843,1304.9741,0,0,0,0,1,sequence_tables/blk015.csv
,,652fbbdf61e6b6fcfb879ab0,65af5687f086a38d1a40184c,2024-01-23_07h03.06.503,bars,2023.2.3,MacIntel,59.88023952,657b66ea316d21385b68909f,,,,,,,,,,,1309.261,1310.2607,,,1310.7604,1311.0118,,135,135,,,,,,,,,,,,,,,,bars/018.png,bars/mask003.png,,,,,,,,,,,,4,1,,,,,,,8,3,7,2,,,,,,1304.987,1309.2453,space,4.2388,0.0002,1310.2608,1310.7603,1311.012,1320.269,space,9.2442,,1320.269,15,45,1321.2704,1321.2705,1321.2859,,,,0,0,0,0,1,150,90,,,,,,,,
,,652fbbdf61e6b6fcfb879ab0,65af5687f086a38d1a40184c,2024-01-23_07h03.06.503,bars,2023.2.3,MacIntel,59.88023952,657b66ea316d21385b68909f,,,,,,,,,,,1321.2862,1322.2872,,,1322.7884,1323.0405,,0,180,,,,,,,,,,,,,,,,bars/006.png,bars/mask001.png,,,,,,,,,,,,0,1,,,,,,,6,5,6,4,,,,,,,,,,,1322.2873,1322.7883,1323.0405,1326.1566,space,3.1045,,1326.1566,35,80,1327.16,1327.1601,1327.172,,,,0,1,1,1,1,35,100,,,,,,,,
,,652fbbdf61e6b6fcfb879ab0,65af5687f086a38d1a40184c,2024-01-23_07h03.06.503,bars,2023.2.3,MacIntel,59.88023952,657b66ea316d21385b68909f,,,,,,,,,,,1327.1722,1328.175,,,1328.677,1328.9272,,135,135,,,,,,,,,,,,,,,,bars/010.png,bars/mask007.png,,,,,,,,,,,,0,1,,,,,,,8,3,8,3,,,,,,,,,,,1328.1751,1328.6769,1328.9272,1334.6806,space,5.7429,,1334.6807,30,80,1335.6687,1335.6689,1335.6812,,,,0,2,2,2,1,165,55,,,,,,,,
,,652fbbdf61e6b6fcfb879ab0,65af5687f086a38d1a40184c,2024-01-23_07h03.06.503,bars,2023.2.3,MacIntel,59.88023952,657b66ea316d21385b68909f,,,,,,,,,,,1335.6814,1336.6691,,,1337.1695,1337.4192,,0,0,,,,,,,,,,,,,,,,bars/004.png,bars/mask009.png,,,,,,,,,,,,1,1,,,,,,,6,5,5,5,,,,,,,,,,,1336.6691,1337.1695,1337.4193,1344.4238,space,6.9931,,1344.4239,25,55,1345.4233,1345.4233,1345.4371,,,,0,3,3,3,1,25,125,,,,,,,,
,,652fbbdf61e6b6fcfb879ab0,65af5687f086a38d1a40184c,2024-01-23_07h03.06.503,bars,2023.2.3,MacIntel,59.88023952,657b66ea316d21385b68909f,,,,,,,,,,,1345.4376,1346.4271,,,1346.9251,1347.177,,0,180,,,,,,,,,,,,,,,,bars/031.png,bars/mask006.png,,,,,,,,,,,,0,2,,,,,,,8,3,9,3,,,,,,,,,,,1346.4272,1346.925,1347.177,1352.5299,space,5.3412,,1352.5299,60,35,1353.5322,1353.5323,1353.5452,,,,0,4,4,4,1,120,35,,,,,,,,
,,652fbbdf61e6b6fcfb879ab0,65af5687f086a38d1a40184c,2024-01-23_07h03.06.503,bars,2023.2.3,MacIntel,59.88023952,657b66ea316d21385b68909f,,,,,,,,,,,1353.5455,1354.5354,,,1355.0347,1355.2837,,45,45,,,,,,,,,,,,,,,,bars/003.png,bars/mask003.png,,,,,,,,,,,,2,1,,,,,,,6,1,6,2,,,,,,,,,,,1354.5354,1355.0346,1355.2838,1364.2418,space,8.9441,,1364.2418,20,85,1365.2434,1365.2435,1365.2568,,,,0,5,5,5,1,25,140,,,,,,,,
,,652fbbdf61e6b6fcfb879ab0,65af5687f086a38d1a40184c,2024-01-23_07h03.06.503,bars,2023.2.3,MacIntel,59.88023952,657b66ea316d21385b68909f,,,,,,,,,,,1365.257,1366.2605,,,1366.7605,1367.0086,,90,90,,,,,,,,,,,,,,,,bars/044.png,bars/mask000.png,,,,,,,,,,,,2,1,,,,,,,4,3,3,3,,,,,,,,,,,1366.2605,1366.7604,1367.0087,1373.3985,space,6.3751,,1373.3985,15,65,1374.3997,1374.3997,1374.412,,,,0,6,6,6,1,75,155,,,,,,,,
,,652fbbdf61e6b6fcfb879ab0,65af5687f086a38d1a40184c,2024-01-23_07h03.06.503,bars,2023.2.3,MacIntel,59.88023952,657b66ea316d21385b68909f,,,,,,,,,,,1374.4122,1375.402,,,1375.9024,1376.1534,,0,0,,,,,,,,,,,,,,,,bars/027.png,bars/mask008.png,,,,,,,,,,,,0,2,,,,,,,6,1,7,1,,,,,,,,,,,1375.402,1375.9023,1376.1536,1383.3769,space,7.2181,,1383.377,70,50,1384.3755,1384.3756,1384.3886,,,,0,7,7,7,1,110,50,,,,,,,,
,,652fbbdf61e6b6fcfb879ab0,65af5687f086a38d1a40184c,2024-01-23_07h03.06.503,bars,2023.2.3,MacIntel,59.88023952,657b66ea316d21385b68909f,,,,,,,,,,,1384.3889,1385.3777,,,1385.8755,1386.128,,90,90,,,,,,,,,,,,,,,,bars/032.png,bars/mask003.png,,,,,,,,,,,,0,1,,,,,,,8,3,9,4,,,,,,,,,,,1385.3778,1385.8754,1386.1281,1391.0159,space,4.8733,,1391.016,35,70,1392.0146,1392.0147,1392.0282,,,,0,8,8,8,1,125,20,,,,,,,,
,,652fbbdf61e6b6fcfb879ab0,65af5687f086a38d1a40184c,2024-01-23_07h03.06.503,bars,2023.2.3,MacIntel,59.88023952,657b66ea316d21385b68909f,,,,,,,,,,,1392.0283,1393.0188,,,1393.5189,1393.7683,,90,90,,,,,,,,,,,,,,,,bars/009.png,bars/mask005.png,,,,,,,,,,,,1,2,,,,,,,10,1,8,1,,,,,,,,,,,1393.0188,1393.5188,1393.7683,1399.3564,space,5.5809,,1399.3565,75,15,1400.3546,1400.3547,1400.3694,,,,0,9,9,9,1,15,105,,,,,,,,
,,652fbbdf61e6b6fcfb879ab0,65af5687f086a38d1a40184c,2024-01-23_07h03.06.503,bars,2023.2.3,MacIntel,59.88023952,657b66ea316d21385b68909f,,,,,,,,,,,1400.3696,1401.3746,,,1401.8746,1402.1249,,90,90,,,,,,,,,,,,,,,,bars/044.png,bars/mask007.png,,,,,,,,,,,,4,1,,,,,,,8,3,7,1,,,,,,,,,,,1401.3746,1401.8744,1402.125,1406.6959,space,4.5567,,1406.6959,15,65,1407.6946,1407.6946,1407.7097,,,,0,10,10,10,1,75,155,,,,,,,,
,,652fbbdf61e6b6fcfb879ab0,65af5687f086a38d1a40184c,2024-01-23_07h03.06.503,bars,2023.2.3,MacIntel,59.88023952,657b66ea316d21385b68909f,,,,,,,,,,,1407.7098,1408.7127,,,1409.2127,1409.4638,,0,180,,,,,,,,,,,,,,,,bars/041.png,bars/mask000.png,,,,,,,,,,,,3,1,,,,,,,10,1,8,2,,,,,,,,,,,1408.7128,1409.2126,1409.4638,1418.3723,space,8.8931,,1418.3724,20,85,1419.3722,1419.3722,1419.3818,,,,0,11,11,11,1,20,85,,,,,,,,
,,652fbbdf61e6b6fcfb879ab0,65af5687f086a38d1a40184c,2024-01-23_07h03.06.503,bars,2023.2.3,MacIntel,59.88023952,657b66ea316d21385b68909f,,,,,,,,,,,1419.382,1420.3721,,,1420.8748,1421.1239,,90,90,,,,,,,,,,,,,,,,bars/015.png,bars/mask002.png,,,,,,,,,,,,3,1,,,,,,,10,0,10,0,,,,,,,,,,,1420.3721,1420.8748,1421.124,1427.5478,space,6.4091,,1427.5479,20,70,1428.5479,1428.5479,1428.5621,,,,0,12,12,12,1,110,160,,,,,,,,
,,652fbbdf61e6b6fcfb879ab0,65af5687f086a38d1a40184c,2024-01-23_07h03.06.503,bars,2023.2.3,MacIntel,59.88023952,657b66ea316d21385b68909f,,,,,,,,,,,1428.5624,1429.5635,,,1430.0653,1430.3142,,135,135,,,,,,,,,,,,,,,,bars/018.png,bars/mask000.png,,,,,,,,,,,,5,1,,,,,,,8,2,9,2,,,,,,,,,,,1429.5635,1430.0653,1430.3143,1436.1557,space,5.8334,,1436.1557,15,45,1437.1554,1437.1554,1437.167,,,,0,13,13,13,1,150,90,,,,,,,,
,,652fbbdf61e6b6fcfb879ab0,65af5687f086a38d1a40184c,2024-01-23_07h03.06.503,bars,2023.2.3,MacIntel,59.88023952,657b66ea316d21385b68909f,,,,,,,,,,,1437.1672,1438.1708,,,1438.6728,1438.9224,,90,90,,,,,,,,,,,,,,,,bars/029.png,bars/mask005.png,,,,,,,,,,,,8,1,,,,,,,10,4,8,6,,,,,,,,,,,1438.1708,1438.6727,1438.9225,1443.211,space,4.2787,,1443.2111,0,45,1444.2117,1444.2117,1444.2235,,,,0,14,14,14,1,90,45,,,,,,,,
,,652fbbdf61e6b6fcfb879ab0,65af5687f086a38d1a40184c,2024-01-23_07h03.06.503,bars,2023.2.3,MacIntel,59.88023952,657b66ea316d21385b68909f,,,,,,,,,,,1444.2237,1445.2126,,,1445.7132,1445.9626,,45,45,,,,,,,,,,,,,,,,bars/032.png,bars/mask003.png,,,,,,,,,,,,1,2,,,,,,,8,6,8,6,,,,,,,,,,,1445.2127,1445.7132,1445.9627,1451.6503,space,5.6728,,1451.6504,80,25,1452.6519,1452.652,1452.6646,,,,0,15,15,15,1,125,20,,,,,,,,
,,652fbbdf61e6b6fcfb879ab0,65af5687f086a38d1a40184c,2024-01-23_07h03.06.503,bars,2023.2.3,MacIntel,59.88023952,657b66ea316d21385b68909f,,,,,,,,,,,1452.6648,1453.6692,,,1454.1706,1454.4199,,90,90,,,,,,,,,,,,,,,,bars/022.png,bars/mask004.png,,,,,,,,,,,,8,1,,,,,,,10,8,10,9,,,,,,,,,,,1453.6693,1454.1706,1454.4199,1461.6422,space,7.2133,,1461.6422,5,70,1462.6424,1462.6424,1462.6561,,,,0,16,16,16,1,95,20,,,,,,,,
,,652fbbdf61e6b6fcfb879ab0,65af5687f086a38d1a40184c,2024-01-23_07h03.06.503,bars,2023.2.3,MacIntel,59.88023952,657b66ea316d21385b68909f,,,,,,,,,,,1462.6564,1463.6465,,,1464.144,1464.3939,,0,180,,,,,,,,,,,,,,,,bars/033.png,bars/mask002.png,,,,,,,,,,,,2,2,,,,,,,10,10,10,10,,,,,,,,,,,1463.6466,1464.144,1464.394,1492.4365,space,28.0278,,1492.4365,25,25,1493.4364,1493.4365,1493.4498,,,,0,17,17,17,1,25,155,,,,,,,,
,,652fbbdf61e6b6fcfb879ab0,65af5687f086a38d1a40184c,2024-01-23_07h03.06.503,bars,2023.2.3,MacIntel,59.88023952,657b66ea316d21385b68909f,,,,,,,,,,,1493.4499,1494.4388,,,1494.9409,1495.1901,,90,90,,,,,,,,,,,,,,,,bars/044.png,bars/mask007.png,,,,,,,,,,,,5,1,,,,,,,8,8,9,9,,,,,,,,,,,1494.4388,1494.9407,1495.1902,1503.648,space,8.442,,1503.648,15,65,1504.6486,1504.6488,1504.662,,,,0,18,18,18,1,75,155,,,,,,,,
,,652fbbdf61e6b6fcfb879ab0,65af5687f086a38d1a40184c,2024-01-23_07h03.06.503,bars,2023.2.3,MacIntel,59.88023952,657b66ea316d21385b68909f,,,,,,,,,,,1504.6621,1505.6657,,,1506.1636,1506.4158,,45,45,,,,,,,,,,,,,,,,bars/044.png,bars/mask004.png,,,,,,,,,,,,0,1,,,,,,,6,10,5,10,,,,,,,,,,,1505.6657,1506.1636,1506.4158,1512.3379,space,5.9165,,1512.338,30,70,1513.338,1513.3381,1513.3519,,,,0,19,19,19,1,75,155,,,,,,,,
,,652fbbdf61e6b6fcfb879ab0,65af5687f086a38d1a40184c,2024-01-23_07h03.06.503,bars,2023.2.3,MacIntel,59.88023952,657b66ea316d21385b68909f,,,,,,,,,,,1513.352,1514.3568,,,1514.8568,1515.1077,,0,180,,,,,,,,,,,,,,,,bars/042.png,bars/mask008.png,,,,,,,,,,,,0,1,,,,,,,8,10,7,8,,,,,,,,,,,1514.3569,1514.8567,1515.1077,1528.0672,space,12.9466,,1528.0674,35,75,1529.0685,1529.0685,1529.0827,,,,0,20,20,20,1,145,75,,,,,,,,
,,652fbbdf61e6b6fcfb879ab0,65af5687f086a38d1a40184c,2024-01-23_07h03.06.503,bars,2023.2.3,MacIntel,59.88023952,657b66ea316d21385b68909f,,,,,,,,,,,1529.083,1530.0712,,,1530.5688,1530.8198,,90,90,,,,,,,,,,,,,,,,bars/031.png,bars/mask005.png,,,,,,,,,,,,0,1,,,,,,,6,8,5,8,,,,,,,,,,,1530.0713,1530.5687,1530.8201,1538.327,space,7.5008,,1538.3271,30,55,1539.3285,1539.3285,1539.3412,,,,0,21,21,21,1,120,35,,,,,,,,
,,652fbbdf61e6b6fcfb879ab0,65af5687f086a38d1a40184c,2024-01-23_07h03.06.503,bars,2023.2.3,MacIntel,59.88023952,657b66ea316d21385b68909f,,,,,,,,,,,1539.3414,1540.3291,,,1540.8275,1541.0804,,135,135,,,,,,,,,,,,,,,,bars/009.png,bars/mask005.png,,,,,,,,,,,,0,2,,,,,,,4,10,3,10,,,,,,,,,,,1540.3291,1540.8275,1541.0805,1544.117,space,3.0216,,1544.117,60,30,1545.117,1545.1171,1545.1305,,,,0,22,22,22,1,15,105,,,,,,,,
,,652fbbdf61e6b6fcfb879ab0,65af5687f086a38d1a40184c,2024-01-23_07h03.06.503,bars,2023.2.3,MacIntel,59.88023952,657b66ea316d21385b68909f,,,,,,,,,,,1545.1307,1546.1323,,,1546.6345,1546.8841,,90,90,,,,,,,,,,,,,,,,bars/007.png,bars/mask008.png,,,,,,,,,,,,0,2,,,,,,,2,10,2,10,,,,,,,,,,,1546.1323,1546.6344,1546.8841,1553.5082,space,6.6034,,1553.5083,85,35,1554.5066,1554.5067,1554.5205,,,,0,23,23,23,1,175,55,,,,,,,,
,,652fbbdf61e6b6fcfb879ab0,65af5687f086a38d1a40184c,2024-01-23_07h03.06.503,bars,2023.2.3,MacIntel,59.88023952,657b66ea316d21385b68909f,,,,,,,,,,,1554.5206,1555.5087,,,1556.0074,1556.2607,,135,135,,,,,,,,,,,,,,,,bars/010.png,bars/mask001.png,,,,,,,,,,,,0,1,,,,,,,0,8,0,8,,,,,,,,,,,1555.5087,1556.0074,1556.2607,1560.4801,space,4.2098,,1560.4801,30,80,1561.4797,1561.4797,1561.4925,,,,0,24,24,24,1,165,55,,,,,,,,
,,652fbbdf61e6b6fcfb879ab0,65af5687f086a38d1a40184c,2024-01-23_07h03.06.503,bars,2023.2.3,MacIntel,59.88023952,657b66ea316d21385b68909f,,,,,,,,,,,1561.4928,1562.4811,,,1562.9803,1563.2309,,90,90,,,,,,,,,,,,,,,,bars/001.png,bars/mask000.png,,,,,,,,,,,,3,2,,,,,,,2,6,3,4,,,,,,,,,,,1562.4811,1562.9802,1563.231,1576.1442,space,12.895,,1576.1443,40,5,1577.1451,1577.1451,1577.1598,,,,0,25,25,25,1,130,85,,,,,,,,
,,652fbbdf61e6b6fcfb879ab0,65af5687f086a38d1a40184c,2024-01-23_07h03.06.503,bars,2023.2.3,MacIntel,59.88023952,657b66ea316d21385b68909f,,,,,,,,,,,1577.16,1578.1622,,,1578.6618,1578.9121,,90,90,,,,,,,,,,,,,,,,bars/012.png,bars/mask008.png,,,,,,,,,,,,0,1,,,,,,,0,8,0,6,,,,,,,,,,,1578.1622,1578.6617,1578.9122,1586.0528,space,7.1312,,1586.0528,0,75,1587.0539,1587.054,1587.0688,,,,0,26,26,26,1,90,15,,,,,,,,
,,652fbbdf61e6b6fcfb879ab0,65af5687f086a38d1a40184c,2024-01-23_07h03.06.503,bars,2023.2.3,MacIntel,59.88023952,657b66ea316d21385b68909f,,,,,,,,,,,1587.0691,1588.0683,,,1588.5729,1588.8213,,135,135,,,,,,,,,,,,,,,,bars/013.png,bars/mask000.png,,,,,,,,,,,,0,2,,,,,,,2,10,4,9,,,,,,,,,,,1588.0683,1588.5728,1588.8214,1595.0411,space,6.209,,1595.0412,60,55,1596.0451,1596.0451,1596.0561,,,,0,27,27,27,1,75,10,,,,,,,,
,,652fbbdf61e6b6fcfb879ab0,65af5687f086a38d1a40184c,2024-01-23_07h03.06.503,bars,2023.2.3,MacIntel,59.88023952,657b66ea316d21385b68909f,,,,,,,,,,,1596.0562,1597.045,,,1597.5455,1597.7962,,0,180,,,,,,,,,,,,,,,,bars/044.png,bars/mask005.png,,,,,,,,,,,,1,2,,,,,,,0,8,0,9,,,,,,,,,,,1597.045,1597.5454,1597.7962,1611.6244,space,13.8139,,1611.6245,75,25,1612.6232,1612.6232,1612.6355,,,,0,28,28,28,1,75,155,,,,,,,,
,,652fbbdf61e6b6fcfb879ab0,65af5687f086a38d1a40184c,2024-01-23_07h03.06.503,bars,2023.2.3,MacIntel,59.88023952,657b66ea316d21385b68909f,,,,,,,,,,,1612.6357,1613.6261,,,1614.1246,1614.3757,,0,180,,,,,,,,,,,,,,,,bars/005.png,bars/mask008.png,,,,,,,,,,,,0,1,,,,,,,0,10,0,10,,,,,,,,,,,1613.6262,1614.1246,1614.3757,1618.6283,space,4.2393,,1618.6283,10,40,1619.6311,1619.6311,1619.6445,,,,0,29,29,29,1,10,140,,,,,,,,
,,652fbbdf61e6b6fcfb879ab0,65af5687f086a38d1a40184c,2024-01-23_07h03.06.503,bars,2023.2.3,MacIntel,59.88023952,657b66ea316d21385b68909f,,,,,,,,,,,1619.6448,1620.6491,,,1621.1476,1621.3998,,45,45,,,,,,,,,,,,,,,,bars/046.png,bars/mask007.png,,,,,,,,,,,,0,2,,,,,,,2,8,0,9,,,,,,,,,,,1620.6492,1621.1476,1621.3998,1640.8483,space,19.4335,,1640.8484,70,40,1641.8537,1641.8537,1641.8659,,,,0,30,30,30,1,155,85,,,,,,,,
,,652fbbdf61e6b6fcfb879ab0,65af5687f086a38d1a40184c,2024-01-23_07h03.06.503,bars,2023.2.3,MacIntel,59.88023952,657b66ea316d21385b68909f,,,,,,,,,,,1641.866,1642.8684,,,1643.3677,1643.6171,,135,135,,,,,,,,,,,,,,,,bars/036.png,bars/mask002.png,,,,,,,,,,,,1,1,,,,,,,0,6,1,5,,,,,,,,,,,1642.8684,1643.3677,1643.6172,1648.1055,space,4.471,,1648.1056,10,65,1649.1066,1649.1067,1649.12,,,,0,31,31,31,1,145,20,,,,,,,,
,,652fbbdf61e6b6fcfb879ab0,65af5687f086a38d1a40184c,2024-01-23_07h03.06.503,bars,2023.2.3,MacIntel,59.88023952,657b66ea316d21385b68909f,,,,,,,,,,,1649.1202,1650.1082,,,1650.6088,1650.8567,,90,90,,,,,,,,,,,,,,,,bars/005.png,bars/mask008.png,,,,,,,,,,,,0,2,,,,,,,2,4,2,3,,,,,,,,,,,1650.1083,1650.6088,1650.8568,1656.8635,space,5.9923,,1656.8635,80,50,1657.865,1657.8651,1657.8773,,,,0,32,32,32,1,10,140,,,,,,,,
,,652fbbdf61e6b6fcfb879ab0,65af5687f086a38d1a40184c,2024-01-23_07h03.06.503,bars,2023.2.3,MacIntel,59.88023952,657b66ea316d21385b68909f,,,,,,,,,,,1657.8775,1658.8805,,,1659.3809,1659.6315,,0,180,,,,,,,,,,,,,,,,bars/025.png,bars/mask005.png,,,,,,,,,,,,0,2,,,,,,,4,2,4,2,,,,,,,,,,,1658.8806,1659.3808,1659.6316,1665.705,space,6.0652,,1665.705,75,40,1666.7041,1666.7042,1666.7181,,,,0,33,33,33,1,105,40,,,,,,,,
,,652fbbdf61e6b6fcfb879ab0,65af5687f086a38d1a40184c,2024-01-23_07h03.06.503,bars,2023.2.3,MacIntel,59.88023952,657b66ea316d21385b68909f,,,,,,,,,,,1666.7182,1667.7244,,,1668.225,1668.4741,,45,45,,,,,,,,,,,,,,,,bars/039.png,bars/mask003.png,,,,,,,,,,,,0,1,,,,,,,6,0,5,1,,,,,,,,,,,1667.7245,1668.2249,1668.4741,1678.4982,space,10.0096,,1678.4983,50,60,1679.4997,1679.4997,1679.513,,,,0,34,34,34,1,175,105,,,,,,,,
,,652fbbdf61e6b6fcfb879ab0,65af5687f086a38d1a40184c,2024-01-23_07h03.06.503,bars,2023.2.3,MacIntel,59.88023952,657b66ea316d21385b68909f,,,,,,,,,,,1679.5132,1680.518,,,1681.0186,1681.268,,0,0,,,,,,,,,,,,,,,,bars/016.png,bars/mask009.png,,,,,,,,,,,,2,2,,,,,,,4,2,2,4,,,,,,,,,,,1680.5181,1681.0184,1681.268,1685.0198,space,3.7377,,1685.0198,40,15,1686.021,1686.0211,1686.0334,,,,0,35,35,35,1,40,165,,,,,,,,
,,652fbbdf61e6b6fcfb879ab0,65af5687f086a38d1a40184c,2024-01-23_07h03.06.503,bars,2023.2.3,MacIntel,59.88023952,657b66ea316d21385b68909f,,,,,,,,,,,1686.0335,1687.0238,,,1687.5221,1687.7724,,0,0,,,,,,,,,,,,,,,,bars/000.png,bars/mask003.png,,,,,,,,,,,,0,2,,,,,,,2,4,2,4,,,,,,,,,,,1687.024,1687.522,1687.7724,1692.1757,space,4.3905,,1692.1757,40,35,1693.1633,1693.1633,1693.1749,,,,0,36,36,36,1,40,145,,,,,,,,
,,652fbbdf61e6b6fcfb879ab0,65af5687f086a38d1a40184c,2024-01-23_07h03.06.503,bars,2023.2.3,MacIntel,59.88023952,657b66ea316d21385b68909f,,,,,,,,,,,1693.1751,1694.1637,,,1694.6634,1694.9145,,135,135,,,,,,,,,,,,,,,,bars/008.png,bars/mask009.png,,,,,,,,,,,,1,1,,,,,,,4,2,4,3,,,,,,,,,,,1694.1637,1694.6633,1694.9146,1700.6355,space,5.708,,1700.6356,25,45,1701.6357,1701.6358,1701.6508,,,,0,37,37,37,1,110,0,,,,,,,,
,,652fbbdf61e6b6fcfb879ab0,65af5687f086a38d1a40184c,2024-01-23_07h03.06.503,bars,2023.2.3,MacIntel,59.88023952,657b66ea316d21385b68909f,,,,,,,,,,,1701.6509,1702.6548,,,1703.1545,1703.4035,,0,0,,,,,,,,,,,,,,,,bars/018.png,bars/mask007.png,,,,,,,,,,,,0,1,,,,,,,6,4,6,5,,,,,,,,,,,1702.6549,1703.1545,1703.4036,1715.0492,space,11.6341,,1715.0492,30,90,1716.0499,1716.05,1716.0639,,,,0,38,38,38,1,150,90,,,,,,,,
,,652fbbdf61e6b6fcfb879ab0,65af5687f086a38d1a40184c,2024-01-23_07h03.06.503,bars,2023.2.3,MacIntel,59.88023952,657b66ea316d21385b68909f,,,,,,,,,,,1716.0642,1717.0647,,,1717.5679,1717.8183,,90,90,,,,,,,,,,,,,,,,bars/009.png,bars/mask001.png,,,,,,,,,,,,4,2,,,,,,,4,6,6,7,,,,,,,,,,,1717.0647,1717.5678,1717.8183,1727.4739,space,9.6447,,1727.474,75,15,1728.4775,1728.4776,1728.4925,,,,0,39,39,39,1,15,105,,,,,,,,
,,652fbbdf61e6b6fcfb879ab0,65af5687f086a38d1a40184c,2024-01-23_07h03.06.503,bars,2023.2.3,MacIntel,59.88023952,657b66ea316d21385b68909f,,,,,,,,,,,1728.4927,1729.496,,,1729.9922,1730.2461,,45,45,,,,,,,,,,,,,,,,bars/014.png,bars/mask005.png,,,,,,,,,,,,0,1,,,,,,,6,4,7,4,,,,,,,,,,,1729.4961,1729.9921,1730.2461,1739.7198,space,9.4649,,1739.7199,35,45,1740.7198,1740.7198,1740.734,,,,0,40,40,40,1,80,0,,,,,,,,
,,652fbbdf61e6b6fcfb879ab0,65af5687f086a38d1a40184c,2024-01-23_07h03.06.503,bars,2023.2.3,MacIntel,59.88023952,657b66ea316d21385b68909f,,,,,,,,,,,1740.7342,1741.7362,,,1742.2392,1742.4887,,90,90,,,,,,,,,,,,,,,,bars/003.png,bars/mask003.png,,,,,,,,,,,,0,2,,,,,,,4,2,5,1,,,,,,,,,,,1741.7362,1742.2392,1742.4887,1758.9694,space,16.4662,,1758.9694,65,50,1759.971,1759.9711,1759.981,,,,0,41,41,41,1,25,140,,,,,,,,
,,652fbbdf61e6b6fcfb879ab0,65af5687f086a38d1a40184c,2024-01-23_07h03.06.503,bars,2023.2.3,MacIntel,59.88023952,657b66ea316d21385b68909f,,,,,,,,,,,1759.9813,1760.9727,,,1761.4704,1761.7202,,45,45,,,,,,,,,,,,,,,,bars/025.png,bars/mask006.png,,,,,,,,,,,,3,2,,,,,,,2,4,3,4,,,,,,,,,,,1760.9728,1761.4704,1761.7203,1767.0611,space,5.3333,,1767.0614,60,5,1768.0594,1768.0595,1768.0737,,,,0,42,42,42,1,105,40,,,,,,,,
,,652fbbdf61e6b6fcfb879ab0,65af5687f086a38d1a40184c,2024-01-23_07h03.06.503,bars,2023.2.3,MacIntel,59.88023952,657b66ea316d21385b68909f,,,,,,,,,,,1768.0739,1769.0623,,,1769.5641,1769.8171,,135,135,,,,,,,,,,,,,,,,bars/047.png,bars/mask007.png,,,,,,,,,,,,0,1,,,,,,,4,2,5,1,,,,,,,,,,,1769.0624,1769.5641,1769.8171,1784.0914,space,14.2615,,1784.0915,60,65,1785.0913,1785.0913,1785.106,,,,0,43,43,43,1,15,70,,,,,,,,
,,652fbbdf61e6b6fcfb879ab0,65af5687f086a38d1a40184c,2024-01-23_07h03.06.503,bars,2023.2.3,MacIntel,59.88023952,657b66ea316d21385b68909f,,,,,,,,,,,1785.1062,1786.0952,,,1786.5933,1786.8447,,90,90,,,,,,,,,,,,,,,,bars/007.png,bars/mask004.png,,,,,,,,,,,,0,2,,,,,,,6,0,5,0,,,,,,,,,,,1786.0955,1786.5933,1786.8447,1792.5799,space,5.7248,,1792.58,85,35,1793.5839,1793.5841,1793.5971,,,,0,44,44,44,1,175,55,,,,,,,,
,,652fbbdf61e6b6fcfb879ab0,65af5687f086a38d1a40184c,2024-01-23_07h03.06.503,bars,2023.2.3,MacIntel,59.88023952,657b66ea316d21385b68909f,,,,,,,,,,,1793.5973,1794.5859,,,1795.0839,1795.3364,,0,180,,,,,,,,,,,,,,,,bars/002.png,bars/mask007.png,,,,,,,,,,,,0,1,,,,,,,8,0,9,0,,,,,,,,,,,1794.5859,1795.0838,1795.3365,1804.0759,space,8.7252,,1804.0759,50,85,1805.0771,1805.0772,1805.0912,,,,0,45,45,45,1,130,85,,,,,,,,
,,652fbbdf61e6b6fcfb879ab0,65af5687f086a38d1a40184c,2024-01-23_07h03.06.503,bars,2023.2.3,MacIntel,59.88023952,657b66ea316d21385b68909f,,,,,,,,,,,1805.0914,1806.0957,,,1806.5951,1806.8454,,90,90,,,,,,,,,,,,,,,,bars/045.png,bars/mask009.png,,,,,,,,,,,,5,1,,,,,,,6,0,8,0,,,,,,,,,,,1806.0957,1806.5951,1806.8454,1810.6155,space,3.7557,,1810.6155,10,80,1811.6169,1811.6169,1811.631,,,,0,46,46,46,1,100,10,,,,,,,,
,,652fbbdf61e6b6fcfb879ab0,65af5687f086a38d1a40184c,2024-01-23_07h03.06.503,bars,2023.2.3,MacIntel,59.88023952,657b66ea316d21385b68909f,,,,,,,,,,,1811.6313,1812.6346,,,1813.1319,1813.3817,,0,180,,,,,,,,,,,,,,,,bars/015.png,bars/mask005.png,,,,,,,,,,,,1,2,,,,,,,8,2,8,3,,,,,,,,,,,1812.6346,1813.1319,1813.3818,1825.8597,space,12.4627,,1825.8598,70,20,1826.8637,1826.8637,1826.8778,,,,0,47,47,47,1,110,160,,,,,,,,
,,652fbbdf61e6b6fcfb879ab0,65af5687f086a38d1a40184c,2024-01-23_07h03.06.503,bars,2023.2.3,MacIntel,59.88023952,657b66ea316d21385b68909f,,,,,,,,,,,1826.878,1827.8799,,,1828.3794,1828.6324,,135,135,,,,,,,,,,,,,,,,bars/033.png,bars/mask003.png,,,,,,,,,,,,1,2,,,,,,,10,4,10,3,,,,,,,,,,,1827.8799,1828.3793,1828.6324,1833.9857,space,5.345,,1833.9857,70,20,1834.9862,1834.9862,1834.9999,,,,0,48,48,48,1,25,155,,,,,,,,
,,652fbbdf61e6b6fcfb879ab0,65af5687f086a38d1a40184c,2024-01-23_07h03.06.503,bars,2023.2.3,MacIntel,59.88023952,657b66ea316d21385b68909f,,,,,,,,,,,1835.0001,1835.9879,,,1836.4892,1836.739,,135,135,,,,,,,,,,,,,,,,bars/029.png,bars/mask002.png,,,,,,,,,,,,0,1,,,,,,,10,2,10,2,,,,,,,,,,,1835.9881,1836.4891,1836.739,1847.2794,space,10.5294,,1847.2795,45,90,1848.2795,1848.2796,1848.2938,,,,0,49,49,49,1,90,45,,,,,,,,
,,652fbbdf61e6b6fcfb879ab0,65af5687f086a38d1a40184c,2024-01-23_07h03.06.503,bars,2023.2.3,MacIntel,59.88023952,657b66ea316d21385b68909f,,,,,,,,,,,,,,,,,,,,,,,,,,,,,,,,,,,,,,,,,,,,,,,,,,,,,,,,,,,,,,,,,,,,,,,,,,,,,,,,,,,,,,,,,,,,,1848.2941,1908.3015,0,1,1,3,1,sequence_tables/blk046.csv
,,652fbbdf61e6b6fcfb879ab0,65af5687f086a38d1a40184c,2024-01-23_07h03.06.503,bars,2023.2.3,MacIntel,59.88023952,657b66ea316d21385b68909f,,,,,,,,,,,1925.0129,1925.9989,,,1926.4996,1926.7497,,135,135,,,,,,,,,,,,,,,,bars/007.png,bars/mask002.png,,,,,,,,,,,,0,1,,,,,,,2,9,1,9,,,,,,1908.3145,1924.9971,space,16.676,,1925.999,1926.4996,1926.7498,1937.7585,space,10.9956,,1937.7586,40,80,1938.7591,1938.7592,1938.7714,,,,0,0,0,0,1,175,55,,,,,,,,
,,652fbbdf61e6b6fcfb879ab0,65af5687f086a38d1a40184c,2024-01-23_07h03.06.503,bars,2023.2.3,MacIntel,59.88023952,657b66ea316d21385b68909f,,,,,,,,,,,1938.7717,1939.7609,,,1940.2625,1940.5106,,64,64,,,,,,,,,,,,,,,,bars/043.png,bars/mask004.png,,,,,,,,,,,,0,1,,,,,,,4,7,7,6,,,,,,,,,,,1939.7611,1940.2625,1940.5106,1964.7507,space,24.2205,,1964.7509,34,66,1965.7508,1965.7509,1965.7631,,,,0,1,1,1,1,30,130,,,,,,,,
,,652fbbdf61e6b6fcfb879ab0,65af5687f086a38d1a40184c,2024-01-23_07h03.06.503,bars,2023.2.3,MacIntel,59.88023952,657b66ea316d21385b68909f,,,,,,,,,,,1965.7632,1966.7528,,,1967.2529,1967.5018,,135,135,,,,,,,,,,,,,,,,bars/032.png,bars/mask002.png,,,,,,,,,,,,4,1,,,,,,,6,9,6,8,,,,,,,,,,,1966.7528,1967.2528,1967.5018,1975.977,space,8.4575,,1975.9771,10,65,1976.9793,1976.9794,1976.9932,,,,0,2,2,2,1,125,20,,,,,,,,
,,652fbbdf61e6b6fcfb879ab0,65af5687f086a38d1a40184c,2024-01-23_07h03.06.503,bars,2023.2.3,MacIntel,59.88023952,657b66ea316d21385b68909f,,,,,,,,,,,1976.9933,1977.9916,,,1978.4805,1978.7274,,90,90,,,,,,,,,,,,,,,,bars/039.png,bars/mask004.png,,,,,,,,,,,,4,2,,,,,,,8,7,6,8,,,,,,,,,,,1977.9917,1978.4805,1978.7275,1986.7194,space,7.9741,,1986.7194,85,15,1987.7197,1987.7202,1987.7352,,,,0,3,3,3,1,175,105,,,,,,,,
,,652fbbdf61e6b6fcfb879ab0,65af5687f086a38d1a40184c,2024-01-23_07h03.06.503,bars,2023.2.3,MacIntel,59.88023952,657b66ea316d21385b68909f,,,,,,,,,,,1987.7354,1988.7374,,,1989.2378,1989.4876,,45,45,,,,,,,,,,,,,,,,bars/004.png,bars/mask000.png,,,,,,,,,,,,2,1,,,,,,,6,9,5,9,,,,,,,,,,,1988.7375,1989.2377,1989.4876,2000.1282,space,10.6278,,2000.1282,20,80,2001.132,2001.1326,2001.1475,,,,0,4,4,4,1,25,125,,,,,,,,
,,652fbbdf61e6b6fcfb879ab0,65af5687f086a38d1a40184c,2024-01-23_07h03.06.503,bars,2023.2.3,MacIntel,59.88023952,657b66ea316d21385b68909f,,,,,,,,,,,2001.1477,2002.1487,,,2002.6483,2002.8989,,0,180,,,,,,,,,,,,,,,,bars/025.png,bars/mask004.png,,,,,,,,,,,,0,2,,,,,,,8,7,8,8,,,,,,,,,,,2002.1489,2002.6483,2002.8989,2017.262,space,14.35,,2017.2621,75,40,2018.2622,2018.2624,2018.2761,,,,0,5,5,5,1,105,40,,,,,,,,
,,652fbbdf61e6b6fcfb879ab0,65af5687f086a38d1a40184c,2024-01-23_07h03.06.503,bars,2023.2.3,MacIntel,59.88023952,657b66ea316d21385b68909f,,,,,,,,,,,2018.2763,2019.2792,,,2019.781,2020.0284,,90,90,,,,,,,,,,,,,,,,bars/019.png,bars/mask000.png,,,,,,,,,,,,4,2,,,,,,,6,5,6,7,,,,,,,,,,,2019.2793,2019.7809,2020.0285,2032.2413,space,12.1967,,2032.2414,45,15,2033.2401,2033.2402,2033.2541,,,,0,6,6,6,1,45,105,,,,,,,,
,,652fbbdf61e6b6fcfb879ab0,65af5687f086a38d1a40184c,2024-01-23_07h03.06.503,bars,2023.2.3,MacIntel,59.88023952,657b66ea316d21385b68909f,,,,,,,,,,,2033.2543,2034.2427,,,2034.7424,2034.9917,,45,45,,,,,,,,,,,,,,,,bars/043.png,bars/mask007.png,,,,,,,,,,,,1,1,,,,,,,4,7,2,6,,,,,,,,,,,2034.2428,2034.7423,2034.9918,2054.2097,space,19.2008,,2054.2098,15,85,2055.2093,2055.2093,2055.2237,,,,0,7,7,7,1,30,130,,,,,,,,
,,652fbbdf61e6b6fcfb879ab0,65af5687f086a38d1a40184c,2024-01-23_07h03.06.503,bars,2023.2.3,MacIntel,59.88023952,657b66ea316d21385b68909f,,,,,,,,,,,2055.2239,2056.2123,,,2056.7131,2056.9607,,135,135,,,,,,,,,,,,,,,,bars/038.png,bars/mask008.png,,,,,,,,,,,,0,1,,,,,,,2,9,2,8,,,,,,,,,,,2056.2124,2056.7131,2056.9608,2068.055,space,11.0795,,2068.055,30,65,2069.0567,2069.0568,2069.0688,,,,0,8,8,8,1,165,70,,,,,,,,
,,652fbbdf61e6b6fcfb879ab0,65af5687f086a38d1a40184c,2024-01-23_07h03.06.503,bars,2023.2.3,MacIntel,59.88023952,657b66ea316d21385b68909f,,,,,,,,,,,2069.0689,2070.057,,,2070.5594,2070.8085,,45,45,,,,,,,,,,,,,,,,bars/028.png,bars/mask009.png,,,,,,,,,,,,1,1,,,,,,,0,10,1,10,,,,,,,,,,,2070.057,2070.5594,2070.8086,2091.1091,space,20.2873,,2091.1092,0,75,2092.1081,2092.1082,2092.1224,,,,0,9,9,9,1,45,120,,,,,,,,
,,652fbbdf61e6b6fcfb879ab0,65af5687f086a38d1a40184c,2024-01-23_07h03.06.503,bars,2023.2.3,MacIntel,59.88023952,657b66ea316d21385b68909f,,,,,,,,,,,2092.1226,2093.112,,,2093.6094,2093.8613,,0,0,,,,,,,,,,,,,,,,bars/009.png,bars/mask001.png,,,,,,,,,,,,2,1,,,,,,,2,8,3,7,,,,,,,,,,,2093.1121,2093.6094,2093.8613,2102.2196,space,8.3445,,2102.2196,15,75,2103.2183,2103.2184,2103.2306,,,,0,10,10,10,1,15,105,,,,,,,,
,,652fbbdf61e6b6fcfb879ab0,65af5687f086a38d1a40184c,2024-01-23_07h03.06.503,bars,2023.2.3,MacIntel,59.88023952,657b66ea316d21385b68909f,,,,,,,,,,,2103.2309,2104.2213,,,2104.7194,2104.9712,,0,0,,,,,,,,,,,,,,,,bars/004.png,bars/mask006.png,,,,,,,,,,,,0,1,,,,,,,0,10,0,10,,,,,,,,,,,2104.2213,2104.7193,2104.9713,2116.4154,space,11.4287,,2116.4154,25,55,2117.4144,2117.4144,2117.4271,,,,0,11,11,11,1,25,125,,,,,,,,
,,652fbbdf61e6b6fcfb879ab0,65af5687f086a38d1a40184c,2024-01-23_07h03.06.503,bars,2023.2.3,MacIntel,59.88023952,657b66ea316d21385b68909f,,,,,,,,,,,2117.4273,2118.4323,,,2118.9326,2119.184,,45,45,,,,,,,,,,,,,,,,bars/003.png,bars/mask004.png,,,,,,,,,,,,1,1,,,,,,,2,8,2,6,,,,,,,,,,,2118.4323,2118.9325,2119.1842,2132.6783,space,13.4804,,2132.6784,20,85,2133.6797,2133.6797,2133.6917,,,,0,12,12,12,1,25,140,,,,,,,,
,,652fbbdf61e6b6fcfb879ab0,65af5687f086a38d1a40184c,2024-01-23_07h03.06.503,bars,2023.2.3,MacIntel,59.88023952,657b66ea316d21385b68909f,,,,,,,,,,,2133.6917,2134.6798,,,2135.1791,2135.4315,,0,180,,,,,,,,,,,,,,,,bars/016.png,bars/mask000.png,,,,,,,,,,,,5,2,,,,,,,4,10,5,9,,,,,,,,,,,2134.6799,2135.179,2135.4316,2146.691,space,11.2441,,2146.6911,40,15,2147.6924,2147.6924,2147.7043,,,,0,13,13,13,1,40,165,,,,,,,,
,,652fbbdf61e6b6fcfb879ab0,65af5687f086a38d1a40184c,2024-01-23_07h03.06.503,bars,2023.2.3,MacIntel,59.88023952,657b66ea316d21385b68909f,,,,,,,,,,,2147.7045,2148.6937,,,2149.1933,2149.4437,,135,135,,,,,,,,,,,,,,,,bars/041.png,bars/mask001.png,,,,,,,,,,,,0,2,,,,,,,2,10,2,10,,,,,,,,,,,2148.6938,2149.1932,2149.4437,2165.1065,space,15.6473,,2165.1065,65,50,2166.1086,2166.1087,2166.122,,,,0,14,14,14,1,20,85,,,,,,,,
,,652fbbdf61e6b6fcfb879ab0,65af5687f086a38d1a40184c,2024-01-23_07h03.06.503,bars,2023.2.3,MacIntel,59.88023952,657b66ea316d21385b68909f,,,,,,,,,,,2166.1221,2167.1261,,,2167.6264,2167.8771,,135,135,,,,,,,,,,,,,,,,bars/030.png,bars/mask007.png,,,,,,,,,,,,0,1,,,,,,,0,10,0,10,,,,,,,,,,,2167.1262,2167.6263,2167.8771,2190.6452,space,22.754,,2190.6452,5,70,2191.646,2191.646,2191.6569,,,,0,15,15,15,1,140,65,,,,,,,,
,,652fbbdf61e6b6fcfb879ab0,65af5687f086a38d1a40184c,2024-01-23_07h03.06.503,bars,2023.2.3,MacIntel,59.88023952,657b66ea316d21385b68909f,,,,,,,,,,,2191.657,2192.6475,,,2193.1471,2193.3969,,45,45,,,,,,,,,,,,,,,,bars/004.png,bars/mask006.png,,,,,,,,,,,,1,1,,,,,,,2,10,2,10,,,,,,,,,,,2192.6476,2193.1471,2193.3969,2217.9026,space,24.4946,,2217.9027,20,80,2218.902,2218.902,2218.9155,,,,0,16,16,16,1,25,125,,,,,,,,
,,652fbbdf61e6b6fcfb879ab0,65af5687f086a38d1a40184c,2024-01-23_07h03.06.503,bars,2023.2.3,MacIntel,59.88023952,657b66ea316d21385b68909f,,,,,,,,,,,2218.9157,2219.905,,,2220.4051,2220.6544,,135,135,,,,,,,,,,,,,,,,bars/030.png,bars/mask004.png,,,,,,,,,,,,0,1,,,,,,,0,10,0,8,,,,,,,,,,,2219.9051,2220.4051,2220.6545,2227.4282,space,6.757,,2227.4282,5,70,2228.429,2228.429,2228.4412,,,,0,17,17,17,1,140,65,,,,,,,,
,,652fbbdf61e6b6fcfb879ab0,65af5687f086a38d1a40184c,2024-01-23_07h03.06.503,bars,2023.2.3,MacIntel,59.88023952,657b66ea316d21385b68909f,,,,,,,,,,,2228.4413,2229.4314,,,2229.9297,2230.1809,,45,45,,,,,,,,,,,,,,,,bars/013.png,bars/mask008.png,,,,,,,,,,,,0,1,,,,,,,2,10,2,10,,,,,,,,,,,2229.4316,2229.9296,2230.1809,2248.1633,space,17.9716,,2248.1636,30,35,2249.1613,2249.1614,2249.1744,,,,0,18,18,18,1,75,10,,,,,,,,
,,652fbbdf61e6b6fcfb879ab0,65af5687f086a38d1a40184c,2024-01-23_07h03.06.503,bars,2023.2.3,MacIntel,59.88023952,657b66ea316d21385b68909f,,,,,,,,,,,2249.1747,2250.1647,,,2250.6646,2250.9168,,135,135,,,,,,,,,,,,,,,,bars/018.png,bars/mask001.png,,,,,,,,,,,,1,1,,,,,,,0,10,1,10,,,,,,,,,,,2250.1648,2250.6646,2250.9168,2265.0112,space,14.0782,,2265.0113,15,45,2266.0129,2266.013,2266.0258,,,,0,19,19,19,1,150,90,,,,,,,,
,,652fbbdf61e6b6fcfb879ab0,65af5687f086a38d1a40184c,2024-01-23_07h03.06.503,bars,2023.2.3,MacIntel,59.88023952,657b66ea316d21385b68909f,,,,,,,,,,,2266.026,2267.0287,,,2267.5307,2267.7807,,90,90,,,,,,,,,,,,,,,,bars/045.png,bars/mask009.png,,,,,,,,,,,,1,1,,,,,,,2,10,1,8,,,,,,,,,,,2267.0288,2267.5306,2267.7808,2282.1247,space,14.3311,,2282.1247,10,80,2283.1266,2283.1267,2283.1403,,,,0,20,20,20,1,100,10,,,,,,,,
,,652fbbdf61e6b6fcfb879ab0,65af5687f086a38d1a40184c,2024-01-23_07h03.06.503,bars,2023.2.3,MacIntel,59.88023952,657b66ea316d21385b68909f,,,,,,,,,,,2283.1404,2284.1439,,,2284.6438,2284.8963,,90,90,,,,,,,,,,,,,,,,bars/043.png,bars/mask005.png,,,,,,,,,,,,0,2,,,,,,,4,8,3,8,,,,,,,,,,,2284.144,2284.6438,2284.8964,2291.8844,space,6.9736,,2291.8844,60,40,2292.8857,2292.8858,2292.8941,,,,0,21,21,21,1,30,130,,,,,,,,
,,652fbbdf61e6b6fcfb879ab0,65af5687f086a38d1a40184c,2024-01-23_07h03.06.503,bars,2023.2.3,MacIntel,59.88023952,657b66ea316d21385b68909f,,,,,,,,,,,2292.8943,2293.8854,,,2294.3856,2294.6348,,0,180,,,,,,,,,,,,,,,,bars/024.png,bars/mask003.png,,,,,,,,,,,,7,2,,,,,,,6,10,7,10,,,,,,,,,,,2293.8854,2294.3856,2294.6348,2301.4424,space,6.793,,2301.4424,60,10,2302.4424,2302.4424,2302.455,,,,0,22,22,22,1,120,170,,,,,,,,
,,652fbbdf61e6b6fcfb879ab0,65af5687f086a38d1a40184c,2024-01-23_07h03.06.503,bars,2023.2.3,MacIntel,59.88023952,657b66ea316d21385b68909f,,,,,,,,,,,2302.4553,2303.444,,,2303.9434,2304.195,,45,45,,,,,,,,,,,,,,,,bars/049.png,bars/mask003.png,,,,,,,,,,,,0,1,,,,,,,4,10,4,10,,,,,,,,,,,2303.4441,2303.9433,2304.1951,2313.5361,space,9.3326,,2313.5361,65,70,2314.5374,2314.5375,2314.5523,,,,0,23,23,23,1,160,115,,,,,,,,
,,652fbbdf61e6b6fcfb879ab0,65af5687f086a38d1a40184c,2024-01-23_07h03.06.503,bars,2023.2.3,MacIntel,59.88023952,657b66ea316d21385b68909f,,,,,,,,,,,2314.5525,2315.5544,,,2316.0545,2316.3063,,90,90,,,,,,,,,,,,,,,,bars/046.png,bars/mask008.png,,,,,,,,,,,,8,2,,,,,,,6,8,5,9,,,,,,,,,,,2315.5545,2316.0544,2316.3064,2330.8185,space,14.4963,,2330.8186,65,5,2331.819,2331.8191,2331.8338,,,,0,24,24,24,1,155,85,,,,,,,,
,,652fbbdf61e6b6fcfb879ab0,65af5687f086a38d1a40184c,2024-01-23_07h03.06.503,bars,2023.2.3,MacIntel,59.88023952,657b66ea316d21385b68909f,,,,,,,,,,,2331.834,2332.8375,,,2333.3386,2333.5853,,90,90,,,,,,,,,,,,,,,,bars/021.png,bars/mask009.png,,,,,,,,,,,,2,2,,,,,,,4,6,4,7,,,,,,,,,,,2332.8376,2333.3385,2333.5854,2346.9991,space,13.3982,,2346.9993,65,20,2347.9992,2347.9992,2348.0116,,,,0,25,25,25,1,155,70,,,,,,,,
,,652fbbdf61e6b6fcfb879ab0,65af5687f086a38d1a40184c,2024-01-23_07h03.06.503,bars,2023.2.3,MacIntel,59.88023952,657b66ea316d21385b68909f,,,,,,,,,,,2348.0118,2349.0007,,,2349.502,2349.7518,,135,135,,,,,,,,,,,,,,,,bars/034.png,bars/mask005.png,,,,,,,,,,,,1,1,,,,,,,2,8,1,8,,,,,,,,,,,2349.0008,2349.5019,2349.7519,2363.3796,space,13.6142,,2363.3797,10,70,2364.3799,2364.38,2364.3927,,,,0,26,26,26,1,125,65,,,,,,,,
,,652fbbdf61e6b6fcfb879ab0,65af5687f086a38d1a40184c,2024-01-23_07h03.06.503,bars,2023.2.3,MacIntel,59.88023952,657b66ea316d21385b68909f,,,,,,,,,,,2364.393,2365.396,,,2365.8966,2366.1499,,45,45,,,,,,,,,,,,,,,,bars/012.png,bars/mask008.png,,,,,,,,,,,,0,2,,,,,,,4,10,5,9,,,,,,,,,,,2365.396,2365.8965,2366.1501,2378.8086,space,12.6482,,2378.8087,45,30,2379.8105,2379.8105,2379.8237,,,,0,27,27,27,1,90,15,,,,,,,,
,,652fbbdf61e6b6fcfb879ab0,65af5687f086a38d1a40184c,2024-01-23_07h03.06.503,bars,2023.2.3,MacIntel,59.88023952,657b66ea316d21385b68909f,,,,,,,,,,,2379.8238,2380.8127,,,2381.3122,2381.5624,,135,135,,,,,,,,,,,,,,,,bars/015.png,bars/mask009.png,,,,,,,,,,,,1,2,,,,,,,2,10,2,9,,,,,,,,,,,2380.8128,2381.3122,2381.5624,2390.152,space,8.5763,,2390.1521,25,25,2391.1545,2391.1546,2391.167,,,,0,28,28,28,1,110,160,,,,,,,,
,,652fbbdf61e6b6fcfb879ab0,65af5687f086a38d1a40184c,2024-01-23_07h03.06.503,bars,2023.2.3,MacIntel,59.88023952,657b66ea316d21385b68909f,,,,,,,,,,,2391.1672,2392.1548,,,2392.6548,2392.9063,,0,180,,,,,,,,,,,,,,,,bars/015.png,bars/mask000.png,,,,,,,,,,,,3,2,,,,,,,0,8,0,8,,,,,,,,,,,2392.1549,2392.6548,2392.9064,2404.8159,space,11.893,,2404.816,70,20,2405.8162,2405.8162,2405.8285,,,,0,29,29,29,1,110,160,,,,,,,,
,,652fbbdf61e6b6fcfb879ab0,65af5687f086a38d1a40184c,2024-01-23_07h03.06.503,bars,2023.2.3,MacIntel,59.88023952,657b66ea316d21385b68909f,,,,,,,,,,,2405.8287,2406.8182,,,2407.3186,2407.5686,,135,135,,,,,,,,,,,,,,,,bars/035.png,bars/mask000.png,,,,,,,,,,,,0,1,,,,,,,2,10,2,9,,,,,,,,,,,2406.8183,2407.3186,2407.5687,2424.115,space,16.5348,,2424.1151,40,75,2425.1165,2425.1165,2425.1304,,,,0,30,30,30,1,175,60,,,,,,,,
,,652fbbdf61e6b6fcfb879ab0,65af5687f086a38d1a40184c,2024-01-23_07h03.06.503,bars,2023.2.3,MacIntel,59.88023952,657b66ea316d21385b68909f,,,,,,,,,,,2425.1305,2426.134,,,2426.6367,2426.8842,,45,45,,,,,,,,,,,,,,,,bars/019.png,bars/mask008.png,,,,,,,,,,,,0,1,,,,,,,0,8,0,8,,,,,,,,,,,2426.134,2426.6367,2426.8843,2441.7651,space,14.8628,,2441.7652,0,60,2442.7637,2442.7637,2442.7738,,,,0,31,31,31,1,45,105,,,,,,,,
,,652fbbdf61e6b6fcfb879ab0,65af5687f086a38d1a40184c,2024-01-23_07h03.06.503,bars,2023.2.3,MacIntel,59.88023952,657b66ea316d21385b68909f,,,,,,,,,,,2442.774,2443.7688,,,2444.2672,2444.5178,,45,45,,,,,,,,,,,,,,,,bars/048.png,bars/mask007.png,,,,,,,,,,,,0,1,,,,,,,0,6,0,5,,,,,,,,,,,2443.7689,2444.2671,2444.5178,2466.085,space,21.5529,,2466.085,5,50,2467.0862,2467.0863,2467.0985,,,,0,32,32,32,1,50,175,,,,,,,,
,,652fbbdf61e6b6fcfb879ab0,65af5687f086a38d1a40184c,2024-01-23_07h03.06.503,bars,2023.2.3,MacIntel,59.88023952,657b66ea316d21385b68909f,,,,,,,,,,,2467.0988,2468.0866,,,2468.5888,2468.8367,,135,135,,,,,,,,,,,,,,,,bars/016.png,bars/mask003.png,,,,,,,,,,,,0,2,,,,,,,0,4,1,4,,,,,,,,,,,2468.0866,2468.5888,2468.8368,2474.1924,space,5.3462,,2474.1925,85,30,2475.1946,2475.1947,2475.2098,,,,0,33,33,33,1,40,165,,,,,,,,
,,652fbbdf61e6b6fcfb879ab0,65af5687f086a38d1a40184c,2024-01-23_07h03.06.503,bars,2023.2.3,MacIntel,59.88023952,657b66ea316d21385b68909f,,,,,,,,,,,2475.21,2476.2092,,,2476.7118,2476.964,,45,45,,,,,,,,,,,,,,,,bars/027.png,bars/mask000.png,,,,,,,,,,,,5,2,,,,,,,0,6,1,6,,,,,,,,,,,2476.2092,2476.7117,2476.964,2481.0154,space,4.0395,,2481.0154,65,5,2482.0154,2482.0155,2482.0217,,,,0,34,34,34,1,110,50,,,,,,,,
,,652fbbdf61e6b6fcfb879ab0,65af5687f086a38d1a40184c,2024-01-23_07h03.06.503,bars,2023.2.3,MacIntel,59.88023952,657b66ea316d21385b68909f,,,,,,,,,,,2482.0218,2483.0188,,,2483.5177,2483.7684,,0,180,,,,,,,,,,,,,,,,bars/022.png,bars/mask003.png,,,,,,,,,,,,2,2,,,,,,,2,8,2,7,,,,,,,,,,,2483.0188,2483.5177,2483.7684,2493.7599,space,9.9778,,2493.7601,85,20,2494.7605,2494.7605,2494.773,,,,0,35,35,35,1,95,20,,,,,,,,
,,652fbbdf61e6b6fcfb879ab0,65af5687f086a38d1a40184c,2024-01-23_07h03.06.503,bars,2023.2.3,MacIntel,59.88023952,657b66ea316d21385b68909f,,,,,,,,,,,2494.7732,2495.7619,,,2496.2636,2496.5119,,0,0,,,,,,,,,,,,,,,,bars/012.png,bars/mask000.png,,,,,,,,,,,,3,2,,,,,,,4,6,4,6,,,,,,,,,,,2495.7619,2496.2635,2496.5121,2503.4005,space,6.8756,,2503.4006,90,15,2504.4004,2504.4005,2504.4095,,,,0,36,36,36,1,90,15,,,,,,,,
,,652fbbdf61e6b6fcfb879ab0,65af5687f086a38d1a40184c,2024-01-23_07h03.06.503,bars,2023.2.3,MacIntel,59.88023952,657b66ea316d21385b68909f,,,,,,,,,,,2504.4097,2505.4037,,,2505.9014,2506.1527,,90,90,,,,,,,,,,,,,,,,bars/035.png,bars/mask000.png,,,,,,,,,,,,0,2,,,,,,,6,8,6,8,,,,,,,,,,,2505.4037,2505.9014,2506.1527,2513.1092,space,6.941,,2513.1093,85,30,2514.1105,2514.1105,2514.1245,,,,0,37,37,37,1,175,60,,,,,,,,
,,652fbbdf61e6b6fcfb879ab0,65af5687f086a38d1a40184c,2024-01-23_07h03.06.503,bars,2023.2.3,MacIntel,59.88023952,657b66ea316d21385b68909f,,,,,,,,,,,2514.1247,2515.1285,,,2515.6276,2515.8776,,90,90,,,,,,,,,,,,,,,,bars/026.png,bars/mask007.png,,,,,,,,,,,,5,2,,,,,,,8,6,8,6,,,,,,,,,,,2515.1286,2515.6275,2515.8777,2523.8863,space,7.9958,,2523.8864,55,5,2524.8886,2524.8886,2524.9005,,,,0,38,38,38,1,35,85,,,,,,,,
,,652fbbdf61e6b6fcfb879ab0,65af5687f086a38d1a40184c,2024-01-23_07h03.06.503,bars,2023.2.3,MacIntel,59.88023952,657b66ea316d21385b68909f,,,,,,,,,,,2524.9007,2525.9045,,,2526.4053,2526.6566,,90,90,,,,,,,,,,,,,,,,bars/018.png,bars/mask004.png,,,,,,,,,,,,4,2,,,,,,,6,4,4,4,,,,,,,,,,,2525.9046,2526.4053,2526.6567,2539.1343,space,12.4609,,2539.1344,60,0,2540.1345,2540.1345,2540.1485,,,,0,39,39,39,1,150,90,,,,,,,,
,,652fbbdf61e6b6fcfb879ab0,65af5687f086a38d1a40184c,2024-01-23_07h03.06.503,bars,2023.2.3,MacIntel,59.88023952,657b66ea316d21385b68909f,,,,,,,,,,,2540.1486,2541.1508,,,2541.6516,2541.8949,,90,90,,,,,,,,,,,,,,,,bars/008.png,bars/mask007.png,,,,,,,,,,,,2,1,,,,,,,4,6,5,5,,,,,,,,,,,2541.1509,2541.6516,2541.8955,2546.4236,space,4.5112,,2546.4238,20,90,2547.4238,2547.4239,2547.4366,,,,0,40,40,40,1,110,0,,,,,,,,
,,652fbbdf61e6b6fcfb879ab0,65af5687f086a38d1a40184c,2024-01-23_07h03.06.503,bars,2023.2.3,MacIntel,59.88023952,657b66ea316d21385b68909f,,,,,,,,,,,2547.4368,2548.4256,,,2548.9258,2549.1767,,45,45,,,,,,,,,,,,,,,,bars/019.png,bars/mask008.png,,,,,,,,,,,,8,1,,,,,,,6,8,8,8,,,,,,,,,,,2548.4257,2548.9258,2549.1767,2552.4453,space,3.2566,,2552.4454,0,60,2553.4464,2553.4468,2553.4589,,,,0,41,41,41,1,45,105,,,,,,,,
,,652fbbdf61e6b6fcfb879ab0,65af5687f086a38d1a40184c,2024-01-23_07h03.06.503,bars,2023.2.3,MacIntel,59.88023952,657b66ea316d21385b68909f,,,,,,,,,,,2553.4591,2554.4473,,,2554.9477,2555.1969,,135,135,,,,,,,,,,,,,,,,bars/002.png,bars/mask003.png,,,,,,,,,,,,6,1,,,,,,,8,6,7,7,,,,,,,,,,,2554.4474,2554.9477,2555.197,2564.2716,space,9.0596,,2564.2716,5,50,2565.2729,2565.2731,2565.2858,,,,0,42,42,42,1,130,85,,,,,,,,
,,652fbbdf61e6b6fcfb879ab0,65af5687f086a38d1a40184c,2024-01-23_07h03.06.503,bars,2023.2.3,MacIntel,59.88023952,657b66ea316d21385b68909f,,,,,,,,,,,2565.286,2566.2907,,,2566.7888,2567.0439,,0,180,,,,,,,,,,,,,,,,bars/023.png,bars/mask008.png,,,,,,,,,,,,2,1,,,,,,,6,4,6,5,,,,,,,,,,,2566.2907,2566.7887,2567.0439,2582.8083,space,15.7535,,2582.8083,20,65,2583.8044,2583.8044,2583.8146,,,,0,43,43,43,1,20,115,,,,,,,,
,,652fbbdf61e6b6fcfb879ab0,65af5687f086a38d1a40184c,2024-01-23_07h03.06.503,bars,2023.2.3,MacIntel,59.88023952,657b66ea316d21385b68909f,,,,,,,,,,,2583.8148,2584.8073,,,2585.3073,2585.5577,,90,90,,,,,,,,,,,,,,,,bars/037.png,bars/mask009.png,,,,,,,,,,,,1,2,,,,,,,4,2,5,2,,,,,,,,,,,2584.8073,2585.3072,2585.5578,2591.3625,space,5.7899,,2591.3626,60,15,2592.3647,2592.3647,2592.3781,,,,0,44,44,44,1,150,105,,,,,,,,
,,652fbbdf61e6b6fcfb879ab0,65af5687f086a38d1a40184c,2024-01-23_07h03.06.503,bars,2023.2.3,MacIntel,59.88023952,657b66ea316d21385b68909f,,,,,,,,,,,2592.3783,2593.3818,,,2593.8799,2594.132,,135,135,,,,,,,,,,,,,,,,bars/032.png,bars/mask001.png,,,,,,,,,,,,3,1,,,,,,,2,0,4,0,,,,,,,,,,,2593.3819,2593.8799,2594.132,2610.8114,space,16.668,,2610.8115,10,65,2611.813,2611.8131,2611.8391,,,,0,45,45,45,1,125,20,,,,,,,,
,,652fbbdf61e6b6fcfb879ab0,65af5687f086a38d1a40184c,2024-01-23_07h03.06.503,bars,2023.2.3,MacIntel,59.88023952,657b66ea316d21385b68909f,,,,,,,,,,,2611.8393,2612.8378,,,2613.3312,2613.5804,,135,135,,,,,,,,,,,,,,,,bars/002.png,bars/mask002.png,,,,,,,,,,,,2,1,,,,,,,4,0,2,0,,,,,,,,,,,2612.8379,2613.3312,2613.5805,2621.9221,space,8.3254,,2621.9222,5,50,2622.924,2622.9241,2622.9373,,,,0,46,46,46,1,130,85,,,,,,,,
,,652fbbdf61e6b6fcfb879ab0,65af5687f086a38d1a40184c,2024-01-23_07h03.06.503,bars,2023.2.3,MacIntel,59.88023952,657b66ea316d21385b68909f,,,,,,,,,,,2622.9375,2623.9259,,,2624.4224,2624.6757,,90,90,,,,,,,,,,,,,,,,bars/019.png,bars/mask000.png,,,,,,,,,,,,1,2,,,,,,,2,2,1,1,,,,,,,,,,,2623.9259,2624.4223,2624.6758,2631.681,space,6.9924,,2631.681,45,15,2632.6824,2632.6825,2632.6962,,,,0,47,47,47,1,45,105,,,,,,,,
,,652fbbdf61e6b6fcfb879ab0,65af5687f086a38d1a40184c,2024-01-23_07h03.06.503,bars,2023.2.3,MacIntel,59.88023952,657b66ea316d21385b68909f,,,,,,,,,,,2632.6964,2633.6999,,,2634.1985,2634.4508,,135,135,,,,,,,,,,,,,,,,bars/009.png,bars/mask004.png,,,,,,,,,,,,0,2,,,,,,,4,0,4,0,,,,,,,,,,,2633.7,2634.1984,2634.4508,2655.2199,space,20.7628,,2655.22,60,30,2656.217,2656.2171,2656.2311,,,,0,48,48,48,1,15,105,,,,,,,,
,,652fbbdf61e6b6fcfb879ab0,65af5687f086a38d1a40184c,2024-01-23_07h03.06.503,bars,2023.2.3,MacIntel,59.88023952,657b66ea316d21385b68909f,,,,,,,,,,,2656.2314,2657.2214,,,2657.7216,2657.9708,,0,180,,,,,,,,,,,,,,,,bars/000.png,bars/mask008.png,,,,,,,,,,,,0,2,,,,,,,6,0,6,1,,,,,,,,,,,2657.2215,2657.7215,2657.9709,2662.1071,space,4.1319,,2662.1071,40,35,2663.1083,2663.1084,2663.1235,,,,0,49,49,49,1,40,145,,,,,,,,
,,652fbbdf61e6b6fcfb879ab0,65af5687f086a38d1a40184c,2024-01-23_07h03.06.503,bars,2023.2.3,MacIntel,59.88023952,657b66ea316d21385b68909f,,,,,,,,,,,,,,,,,,,,,,,,,,,,,,,,,,,,,,,,,,,,,,,,,,,,,,,,,,,,,,,,,,,,,,,,,,,,,,,,,,,,,,,,,,,,,2663.1237,2723.1122,0,2,2,4,1,sequence_tables/blk030.csv
,,652fbbdf61e6b6fcfb879ab0,65af5687f086a38d1a40184c,2024-01-23_07h03.06.503,bars,2023.2.3,MacIntel,59.88023952,657b66ea316d21385b68909f,,,,,,,,,,,2725.2509,2726.246,,,2726.7458,2726.9967,,135,135,,,,,,,,,,,,,,,,bars/042.png,bars/mask000.png,,,,,,,,,,,,3,1,,,,,,,5,5,5,2,,,,,,2723.1252,2725.2452,space,2.1127,,2726.246,2726.7458,2726.9968,2742.9279,space,15.9135,,2742.9279,10,60,2743.9274,2743.9275,2743.9425,,,,0,0,0,0,1,145,75,,,,,,,,
,,652fbbdf61e6b6fcfb879ab0,65af5687f086a38d1a40184c,2024-01-23_07h03.06.503,bars,2023.2.3,MacIntel,59.88023952,657b66ea316d21385b68909f,,,,,,,,,,,2743.9427,2744.9464,,,2745.4448,2745.6954,,135,135,,,,,,,,,,,,,,,,bars/034.png,bars/mask005.png,,,,,,,,,,,,5,1,,,,,,,7,3,8,4,,,,,,,,,,,2744.9464,2745.4446,2745.6954,2767.1992,space,21.4874,,2767.1994,10,70,2768.1978,2768.1979,2768.2102,,,,0,1,1,1,1,125,65,,,,,,,,
,,652fbbdf61e6b6fcfb879ab0,65af5687f086a38d1a40184c,2024-01-23_07h03.06.503,bars,2023.2.3,MacIntel,59.88023952,657b66ea316d21385b68909f,,,,,,,,,,,2768.2103,2769.1993,,,2769.7,2769.9519,,90,90,,,,,,,,,,,,,,,,bars/031.png,bars/mask006.png,,,,,,,,,,,,0,1,,,,,,,5,5,4,6,,,,,,,,,,,2769.1994,2769.7,2769.952,2784.1121,space,14.1462,,2784.1123,30,55,2785.1153,2785.1153,2785.1298,,,,0,2,2,2,1,120,35,,,,,,,,
,,652fbbdf61e6b6fcfb879ab0,65af5687f086a38d1a40184c,2024-01-23_07h03.06.503,bars,2023.2.3,MacIntel,59.88023952,657b66ea316d21385b68909f,,,,,,,,,,,2785.13,2786.132,,,2786.6311,2786.8829,,90,90,,,,,,,,,,,,,,,,bars/028.png,bars/mask001.png,,,,,,,,,,,,0,2,,,,,,,7,7,7,7,,,,,,,,,,,2786.132,2786.6311,2786.883,2801.8956,space,14.9983,,2801.8958,45,30,2802.896,2802.896,2802.9086,,,,0,3,3,3,1,45,120,,,,,,,,
,,652fbbdf61e6b6fcfb879ab0,65af5687f086a38d1a40184c,2024-01-23_07h03.06.503,bars,2023.2.3,MacIntel,59.88023952,657b66ea316d21385b68909f,,,,,,,,,,,2802.9088,2803.8988,,,2804.399,2804.6496,,0,180,,,,,,,,,,,,,,,,bars/007.png,bars/mask004.png,,,,,,,,,,,,5,1,,,,,,,5,5,6,4,,,,,,,,,,,2803.8989,2804.399,2804.6496,2816.5894,space,11.9341,,2816.5894,5,55,2817.5949,2817.5951,2817.6084,,,,0,4,4,4,1,175,55,,,,,,,,
,,652fbbdf61e6b6fcfb879ab0,65af5687f086a38d1a40184c,2024-01-23_07h03.06.503,bars,2023.2.3,MacIntel,59.88023952,657b66ea316d21385b68909f,,,,,,,,,,,2817.6087,2818.6115,,,2819.1119,2819.3607,,45,45,,,,,,,,,,,,,,,,bars/012.png,bars/mask009.png,,,,,,,,,,,,0,2,,,,,,,7,7,8,8,,,,,,,,,,,2818.6116,2819.1118,2819.3607,2839.9296,space,20.5528,,2839.9296,45,30,2840.9306,2840.9306,2840.9454,,,,0,5,5,5,1,90,15,,,,,,,,
,,652fbbdf61e6b6fcfb879ab0,65af5687f086a38d1a40184c,2024-01-23_07h03.06.503,bars,2023.2.3,MacIntel,59.88023952,657b66ea316d21385b68909f,,,,,,,,,,,2840.9455,2841.9484,,,2842.448,2842.699,,0,180,,,,,,,,,,,,,,,,bars/026.png,bars/mask002.png,,,,,,,,,,,,0,1,,,,,,,9,9,7,9,,,,,,,,,,,2841.9484,2842.448,2842.6991,2848.5206,space,5.8107,,2848.5207,35,85,2849.5216,2849.5216,2849.5351,,,,0,6,6,6,1,35,85,,,,,,,,
,,652fbbdf61e6b6fcfb879ab0,65af5687f086a38d1a40184c,2024-01-23_07h03.06.503,bars,2023.2.3,MacIntel,59.88023952,657b66ea316d21385b68909f,,,,,,,,,,,2849.5352,2850.5229,,,2851.0204,2851.2718,,0,180,,,,,,,,,,,,,,,,bars/038.png,bars/mask004.png,,,,,,,,,,,,5,1,,,,,,,10,10,10,8,,,,,,,,,,,2850.5229,2851.0203,2851.2722,2865.953,space,14.667,,2865.9531,15,70,2866.9525,2866.9525,2866.9652,,,,0,7,7,7,1,165,70,,,,,,,,
,,652fbbdf61e6b6fcfb879ab0,65af5687f086a38d1a40184c,2024-01-23_07h03.06.503,bars,2023.2.3,MacIntel,59.88023952,657b66ea316d21385b68909f,,,,,,,,,,,2866.9653,2867.9546,,,2868.4545,2868.7057,,0,180,,,,,,,,,,,,,,,,bars/032.png,bars/mask007.png,,,,,,,,,,,,3,2,,,,,,,10,10,10,10,,,,,,,,,,,2867.9546,2868.4544,2868.7057,2883.9847,space,15.2682,,2883.9848,55,20,2884.9859,2884.986,2885.0009,,,,0,8,8,8,1,125,20,,,,,,,,
,,652fbbdf61e6b6fcfb879ab0,65af5687f086a38d1a40184c,2024-01-23_07h03.06.503,bars,2023.2.3,MacIntel,59.88023952,657b66ea316d21385b68909f,,,,,,,,,,,2885.0011,2886.0026,,,2886.5007,2886.7522,,135,135,,,,,,,,,,,,,,,,bars/035.png,bars/mask005.png,,,,,,,,,,,,0,1,,,,,,,8,10,9,10,,,,,,,,,,,2886.0026,2886.5006,2886.7522,2890.4233,space,3.6593,,2890.4234,40,75,2891.4256,2891.4257,2891.4381,,,,0,9,9,9,1,175,60,,,,,,,,
,,652fbbdf61e6b6fcfb879ab0,65af5687f086a38d1a40184c,2024-01-23_07h03.06.503,bars,2023.2.3,MacIntel,59.88023952,657b66ea316d21385b68909f,,,,,,,,,,,2891.4383,2892.4262,,,2892.9261,2893.1767,,0,180,,,,,,,,,,,,,,,,bars/026.png,bars/mask002.png,,,,,,,,,,,,0,1,,,,,,,6,8,7,7,,,,,,,,,,,2892.4263,2892.926,2893.1767,2902.1647,space,8.981,,2902.1649,35,85,2903.168,2903.168,2903.1815,,,,0,10,10,10,1,35,85,,,,,,,,
,,652fbbdf61e6b6fcfb879ab0,65af5687f086a38d1a40184c,2024-01-23_07h03.06.503,bars,2023.2.3,MacIntel,59.88023952,657b66ea316d21385b68909f,,,,,,,,,,,2903.1818,2904.1847,,,2904.685,2904.9335,,0,180,,,,,,,,,,,,,,,,bars/049.png,bars/mask005.png,,,,,,,,,,,,2,1,,,,,,,4,6,5,5,,,,,,,,,,,2904.1847,2904.685,2904.9336,2917.4438,space,12.4999,,2917.4439,20,65,2918.4322,2918.4323,2918.4459,,,,0,11,11,11,1,160,115,,,,,,,,
,,652fbbdf61e6b6fcfb879ab0,65af5687f086a38d1a40184c,2024-01-23_07h03.06.503,bars,2023.2.3,MacIntel,59.88023952,657b66ea316d21385b68909f,,,,,,,,,,,2918.4462,2919.4496,,,2919.9498,2920.2015,,0,180,,,,,,,,,,,,,,,,bars/025.png,bars/mask004.png,,,,,,,,,,,,0,2,,,,,,,6,4,6,3,,,,,,,,,,,2919.4496,2919.9498,2920.2016,2938.9513,space,18.7441,,2938.9513,75,40,2939.9507,2939.9507,2939.9614,,,,0,12,12,12,1,105,40,,,,,,,,
,,652fbbdf61e6b6fcfb879ab0,65af5687f086a38d1a40184c,2024-01-23_07h03.06.503,bars,2023.2.3,MacIntel,59.88023952,657b66ea316d21385b68909f,,,,,,,,,,,2939.9616,2940.9526,,,2941.451,2941.7012,,0,180,,,,,,,,,,,,,,,,bars/004.png,bars/mask003.png,,,,,,,,,,,,1,1,,,,,,,8,6,6,6,,,,,,,,,,,2940.9527,2941.451,2941.7013,2957.3295,space,15.6166,,2957.3295,25,55,2958.3331,2958.3331,2958.348,,,,0,13,13,13,1,25,125,,,,,,,,
,,652fbbdf61e6b6fcfb879ab0,65af5687f086a38d1a40184c,2024-01-23_07h03.06.503,bars,2023.2.3,MacIntel,59.88023952,657b66ea316d21385b68909f,,,,,,,,,,,2958.3481,2959.352,,,2959.8521,2960.1008,,158,158,,,,,,,,,,,,,,,,bars/042.png,bars/mask003.png,,,,,,,,,,,,3,1,,,,,,,6,4,5,4,,,,,,,,,,,2959.3521,2959.8521,2960.1008,2971.0277,space,10.9125,,2971.0279,13,83,2972.0293,2972.0293,2972.0415,,,,0,14,14,14,1,145,75,,,,,,,,
,,652fbbdf61e6b6fcfb879ab0,65af5687f086a38d1a40184c,2024-01-23_07h03.06.503,bars,2023.2.3,MacIntel,59.88023952,657b66ea316d21385b68909f,,,,,,,,,,,2972.0416,2973.0295,,,2973.5306,2973.7809,,0,180,,,,,,,,,,,,,,,,bars/039.png,bars/mask005.png,,,,,,,,,,,,3,1,,,,,,,4,2,3,2,,,,,,,,,,,2973.0295,2973.5306,2973.7809,2989.8773,space,16.0882,,2989.8773,5,75,2990.8783,2990.8784,2990.8906,,,,0,15,15,15,1,175,105,,,,,,,,
,,652fbbdf61e6b6fcfb879ab0,65af5687f086a38d1a40184c,2024-01-23_07h03.06.503,bars,2023.2.3,MacIntel,59.88023952,657b66ea316d21385b68909f,,,,,,,,,,,2990.8908,2991.894,,,2992.3939,2992.6444,,90,90,,,,,,,,,,,,,,,,bars/031.png,bars/mask008.png,,,,,,,,,,,,0,1,,,,,,,2,4,3,5,,,,,,,,,,,2991.894,2992.3939,2992.6445,3004.3232,space,11.6669,,3004.3232,30,55,3005.324,3005.324,3005.3362,,,,0,16,16,16,1,120,35,,,,,,,,
,,652fbbdf61e6b6fcfb879ab0,65af5687f086a38d1a40184c,2024-01-23_07h03.06.503,bars,2023.2.3,MacIntel,59.88023952,657b66ea316d21385b68909f,,,,,,,,,,,3005.3363,3006.3399,,,3006.8421,3007.0932,,45,45,,,,,,,,,,,,,,,,bars/019.png,bars/mask009.png,,,,,,,,,,,,0,1,,,,,,,0,2,0,4,,,,,,,,,,,3006.3399,3006.842,3007.0932,3016.5663,space,9.4594,,3016.5664,0,60,3017.5677,3017.5678,3017.5807,,,,0,17,17,17,1,45,105,,,,,,,,
,,652fbbdf61e6b6fcfb879ab0,65af5687f086a38d1a40184c,2024-01-23_07h03.06.503,bars,2023.2.3,MacIntel,59.88023952,657b66ea316d21385b68909f,,,,,,,,,,,3017.5809,3018.5688,,,3019.0694,3019.3205,,0,0,,,,,,,,,,,,,,,,bars/042.png,bars/mask003.png,,,,,,,,,,,,0,1,,,,,,,0,0,2,1,,,,,,,,,,,3018.5689,3019.0693,3019.3205,3038.6022,space,19.2685,,3038.6024,35,75,3039.6015,3039.6016,3039.6156,,,,0,18,18,18,1,145,75,,,,,,,,
,,652fbbdf61e6b6fcfb879ab0,65af5687f086a38d1a40184c,2024-01-23_07h03.06.503,bars,2023.2.3,MacIntel,59.88023952,657b66ea316d21385b68909f,,,,,,,,,,,3039.6159,3040.6046,,,3041.1041,3041.3557,,90,90,,,,,,,,,,,,,,,,bars/041.png,bars/mask004.png,,,,,,,,,,,,0,2,,,,,,,0,0,1,0,,,,,,,,,,,3040.6046,3041.104,3041.3557,3050.8637,space,9.4968,,3050.8638,70,5,3051.8644,3051.8644,3051.8768,,,,0,19,19,19,1,20,85,,,,,,,,
,,652fbbdf61e6b6fcfb879ab0,65af5687f086a38d1a40184c,2024-01-23_07h03.06.503,bars,2023.2.3,MacIntel,59.88023952,657b66ea316d21385b68909f,,,,,,,,,,,3051.877,3052.8806,,,3053.382,3053.632,,0,180,,,,,,,,,,,,,,,,bars/041.png,bars/mask008.png,,,,,,,,,,,,1,1,,,,,,,2,2,3,2,,,,,,,,,,,3052.8806,3053.3819,3053.6321,3064.7072,space,11.0605,,3064.7073,20,85,3065.7075,3065.7076,3065.7204,,,,0,20,20,20,1,20,85,,,,,,,,
,,652fbbdf61e6b6fcfb879ab0,65af5687f086a38d1a40184c,2024-01-23_07h03.06.503,bars,2023.2.3,MacIntel,59.88023952,657b66ea316d21385b68909f,,,,,,,,,,,3065.7205,3066.7098,,,3067.2088,3067.4605,,57,57,,,,,,,,,,,,,,,,bars/021.png,bars/mask006.png,,,,,,,,,,,,0,2,,,,,,,0,0,0,0,,,,,,,,,,,3066.7098,3067.2087,3067.4606,3072.616,space,5.1382,,3072.6161,82,13,3073.6163,3073.6164,3073.6293,,,,0,21,21,21,1,155,70,,,,,,,,
,,652fbbdf61e6b6fcfb879ab0,65af5687f086a38d1a40184c,2024-01-23_07h03.06.503,bars,2023.2.3,MacIntel,59.88023952,657b66ea316d21385b68909f,,,,,,,,,,,3073.6295,3074.618,,,3075.1179,3075.367,,90,90,,,,,,,,,,,,,,,,bars/015.png,bars/mask009.png,,,,,,,,,,,,0,1,,,,,,,0,2,0,2,,,,,,,,,,,3074.6181,3075.1179,3075.367,3084.9705,space,9.5976,,3084.9707,20,70,3085.9605,3085.9606,3085.9759,,,,0,22,22,22,1,110,160,,,,,,,,
,,652fbbdf61e6b6fcfb879ab0,65af5687f086a38d1a40184c,2024-01-23_07h03.06.503,bars,2023.2.3,MacIntel,59.88023952,657b66ea316d21385b68909f,,,,,,,,,,,3085.9762,3086.9781,,,3087.4781,3087.7273,,0,180,,,,,,,,,,,,,,,,bars/005.png,bars/mask007.png,,,,,,,,,,,,1,1,,,,,,,2,4,2,6,,,,,,,,,,,3086.9781,3087.478,3087.7275,3092.7674,space,5.0228,,3092.7675,10,40,3093.7668,3093.7668,3093.779,,,,0,23,23,23,1,10,140,,,,,,,,
,,652fbbdf61e6b6fcfb879ab0,65af5687f086a38d1a40184c,2024-01-23_07h03.06.503,bars,2023.2.3,MacIntel,59.88023952,657b66ea316d21385b68909f,,,,,,,,,,,3093.7792,3094.7688,,,3095.2681,3095.5192,,45,45,,,,,,,,,,,,,,,,bars/026.png,bars/mask000.png,,,,,,,,,,,,3,1,,,,,,,4,2,5,3,,,,,,,,,,,3094.7688,3095.268,3095.5193,3102.726,space,7.1917,,3102.726,10,40,3103.7265,3103.7267,3103.7413,,,,0,24,24,24,1,35,85,,,,,,,,
,,652fbbdf61e6b6fcfb879ab0,65af5687f086a38d1a40184c,2024-01-23_07h03.06.503,bars,2023.2.3,MacIntel,59.88023952,657b66ea316d21385b68909f,,,,,,,,,,,3103.7416,3104.7451,,,3105.2435,3105.4922,,0,180,,,,,,,,,,,,,,,,bars/040.png,bars/mask000.png,,,,,,,,,,,,3,2,,,,,,,2,4,2,4,,,,,,,,,,,3104.7452,3105.2434,3105.4923,3110.8505,space,5.351,,3110.8506,40,5,3111.8493,3111.8494,3111.863,,,,0,25,25,25,1,140,5,,,,,,,,
,,652fbbdf61e6b6fcfb879ab0,65af5687f086a38d1a40184c,2024-01-23_07h03.06.503,bars,2023.2.3,MacIntel,59.88023952,657b66ea316d21385b68909f,,,,,,,,,,,3111.8633,3112.8661,,,3113.3682,3113.619,,90,90,,,,,,,,,,,,,,,,bars/034.png,bars/mask004.png,,,,,,,,,,,,1,2,,,,,,,0,6,0,7,,,,,,,,,,,3112.8662,3113.368,3113.6191,3123.575,space,9.9464,,3123.5751,35,25,3124.5782,3124.5782,3124.5899,,,,0,26,26,26,1,125,65,,,,,,,,
,,652fbbdf61e6b6fcfb879ab0,65af5687f086a38d1a40184c,2024-01-23_07h03.06.503,bars,2023.2.3,MacIntel,59.88023952,657b66ea316d21385b68909f,,,,,,,,,,,3124.5901,3125.5792,,,3126.0801,3126.3277,,0,180,,,,,,,,,,,,,,,,bars/038.png,bars/mask000.png,,,,,,,,,,,,1,1,,,,,,,2,8,2,9,,,,,,,,,,,3125.5792,3126.0801,3126.3284,3137.3396,space,10.9958,,3137.3396,15,70,3138.3416,3138.3416,3138.3562,,,,0,27,27,27,1,165,70,,,,,,,,
,,652fbbdf61e6b6fcfb879ab0,65af5687f086a38d1a40184c,2024-01-23_07h03.06.503,bars,2023.2.3,MacIntel,59.88023952,657b66ea316d21385b68909f,,,,,,,,,,,3138.3564,3139.3586,,,3139.8596,3140.1083,,45,45,,,,,,,,,,,,,,,,bars/004.png,bars/mask006.png,,,,,,,,,,,,0,1,,,,,,,0,6,0,5,,,,,,,,,,,3139.3587,3139.8594,3140.1084,3148.8158,space,8.6903,,3148.8158,20,80,3149.8177,3149.8178,3149.8293,,,,0,28,28,28,1,25,125,,,,,,,,
,,652fbbdf61e6b6fcfb879ab0,65af5687f086a38d1a40184c,2024-01-23_07h03.06.503,bars,2023.2.3,MacIntel,59.88023952,657b66ea316d21385b68909f,,,,,,,,,,,3149.8295,3150.8184,,,3151.3177,3151.568,,68,68,,,,,,,,,,,,,,,,bars/018.png,bars/mask008.png,,,,,,,,,,,,1,2,,,,,,,0,4,0,4,,,,,,,,,,,3150.8184,3151.3177,3151.5682,3162.8755,space,11.2938,,3162.8755,82,22,3163.8792,3163.8792,3163.8939,,,,0,29,29,29,1,150,90,,,,,,,,
,,652fbbdf61e6b6fcfb879ab0,65af5687f086a38d1a40184c,2024-01-23_07h03.06.503,bars,2023.2.3,MacIntel,59.88023952,657b66ea316d21385b68909f,,,,,,,,,,,3163.8941,3164.8968,,,3165.3976,3165.6482,,90,90,,,,,,,,,,,,,,,,bars/032.png,bars/mask007.png,,,,,,,,,,,,0,1,,,,,,,2,6,2,7,,,,,,,,,,,3164.8969,3165.3976,3165.6483,3179.6096,space,13.9456,,3179.6096,35,70,3180.6111,3180.6111,3180.6242,,,,0,30,30,30,1,125,20,,,,,,,,
,,652fbbdf61e6b6fcfb879ab0,65af5687f086a38d1a40184c,2024-01-23_07h03.06.503,bars,2023.2.3,MacIntel,59.88023952,657b66ea316d21385b68909f,,,,,,,,,,,3180.6244,3181.6258,,,3182.1284,3182.3784,,0,180,,,,,,,,,,,,,,,,bars/031.png,bars/mask002.png,,,,,,,,,,,,0,2,,,,,,,0,4,0,4,,,,,,,,,,,3181.6258,3182.1284,3182.3785,3188.7009,space,6.3061,,3188.701,60,35,3189.7017,3189.7017,3189.7107,,,,0,31,31,31,1,120,35,,,,,,,,
,,652fbbdf61e6b6fcfb879ab0,65af5687f086a38d1a40184c,2024-01-23_07h03.06.503,bars,2023.2.3,MacIntel,59.88023952,657b66ea316d21385b68909f,,,,,,,,,,,3189.7108,3190.7019,,,3191.2027,3191.4516,,90,90,,,,,,,,,,,,,,,,bars/021.png,bars/mask001.png,,,,,,,,,,,,2,2,,,,,,,2,6,2,5,,,,,,,,,,,3190.7019,3191.2025,3191.4517,3203.8479,space,12.3762,,3203.8479,65,20,3204.8475,3204.8476,3204.858,,,,0,32,32,32,1,155,70,,,,,,,,
,,652fbbdf61e6b6fcfb879ab0,65af5687f086a38d1a40184c,2024-01-23_07h03.06.503,bars,2023.2.3,MacIntel,59.88023952,657b66ea316d21385b68909f,,,,,,,,,,,3204.8583,3205.8477,,,3206.3491,3206.6,,135,135,,,,,,,,,,,,,,,,bars/009.png,bars/mask001.png,,,,,,,,,,,,0,2,,,,,,,4,4,4,5,,,,,,,,,,,3205.8477,3206.349,3206.6,3208.8862,space,2.2675,,3208.8862,60,30,3209.885,3209.8851,3209.8971,,,,0,33,33,33,1,15,105,,,,,,,,
,,652fbbdf61e6b6fcfb879ab0,65af5687f086a38d1a40184c,2024-01-23_07h03.06.503,bars,2023.2.3,MacIntel,59.88023952,657b66ea316d21385b68909f,,,,,,,,,,,3209.8974,3210.9008,,,3211.4041,3211.6538,,45,45,,,,,,,,,,,,,,,,bars/029.png,bars/mask000.png,,,,,,,,,,,,2,2,,,,,,,2,2,2,2,,,,,,,,,,,3210.9009,3211.4041,3211.6538,3217.5401,space,5.874,,3217.5402,45,0,3218.5274,3218.5275,3218.5395,,,,0,34,34,34,1,90,45,,,,,,,,
,,652fbbdf61e6b6fcfb879ab0,65af5687f086a38d1a40184c,2024-01-23_07h03.06.503,bars,2023.2.3,MacIntel,59.88023952,657b66ea316d21385b68909f,,,,,,,,,,,3218.5397,3219.5275,,,3220.027,3220.2783,,135,135,,,,,,,,,,,,,,,,bars/017.png,bars/mask000.png,,,,,,,,,,,,0,1,,,,,,,0,0,0,0,,,,,,,,,,,3219.5275,3220.027,3220.2784,3224.9483,space,4.6636,,3224.9483,10,90,3225.9474,3225.9474,3225.9608,,,,0,35,35,35,1,145,45,,,,,,,,
,,652fbbdf61e6b6fcfb879ab0,65af5687f086a38d1a40184c,2024-01-23_07h03.06.503,bars,2023.2.3,MacIntel,59.88023952,657b66ea316d21385b68909f,,,,,,,,,,,3225.961,3226.9495,,,3227.4511,3227.6996,,135,135,,,,,,,,,,,,,,,,bars/011.png,bars/mask006.png,,,,,,,,,,,,0,1,,,,,,,2,2,3,2,,,,,,,,,,,3226.9495,3227.451,3227.6997,3236.8418,space,9.1237,,3236.8418,25,50,3237.844,3237.8441,3237.8556,,,,0,36,36,36,1,160,85,,,,,,,,
,,652fbbdf61e6b6fcfb879ab0,65af5687f086a38d1a40184c,2024-01-23_07h03.06.503,bars,2023.2.3,MacIntel,59.88023952,657b66ea316d21385b68909f,,,,,,,,,,,3237.8558,3238.8451,,,3239.3447,3239.5942,,45,45,,,,,,,,,,,,,,,,bars/018.png,bars/mask000.png,,,,,,,,,,,,0,2,,,,,,,4,0,3,0,,,,,,,,,,,3238.8453,3239.3446,3239.5943,3255.2593,space,15.6479,,3255.2594,75,45,3256.257,3256.2571,3256.272,,,,0,37,37,37,1,150,90,,,,,,,,
,,652fbbdf61e6b6fcfb879ab0,65af5687f086a38d1a40184c,2024-01-23_07h03.06.503,bars,2023.2.3,MacIntel,59.88023952,657b66ea316d21385b68909f,,,,,,,,,,,3256.2722,3257.2767,,,3257.7773,3258.0263,,90,90,,,,,,,,,,,,,,,,bars/015.png,bars/mask008.png,,,,,,,,,,,,1,1,,,,,,,2,2,2,3,,,,,,,,,,,3257.2767,3257.7773,3258.0264,3281.4325,space,23.3887,,3281.4326,20,70,3282.4328,3282.4328,3282.4465,,,,0,38,38,38,1,110,160,,,,,,,,
,,652fbbdf61e6b6fcfb879ab0,65af5687f086a38d1a40184c,2024-01-23_07h03.06.503,bars,2023.2.3,MacIntel,59.88023952,657b66ea316d21385b68909f,,,,,,,,,,,3282.4467,3283.4502,,,3283.951,3284.1997,,90,90,,,,,,,,,,,,,,,,bars/025.png,bars/mask001.png,,,,,,,,,,,,3,1,,,,,,,4,4,5,5,,,,,,,,,,,3283.4503,3283.951,3284.1998,3292.2749,space,8.0631,,3292.275,15,50,3293.2764,3293.2765,3293.2904,,,,0,39,39,39,1,105,40,,,,,,,,
,,652fbbdf61e6b6fcfb879ab0,65af5687f086a38d1a40184c,2024-01-23_07h03.06.503,bars,2023.2.3,MacIntel,59.88023952,657b66ea316d21385b68909f,,,,,,,,,,,3293.2906,3294.2931,,,3294.7933,3295.0437,,90,90,,,,,,,,,,,,,,,,bars/028.png,bars/mask000.png,,,,,,,,,,,,0,2,,,,,,,6,2,6,1,,,,,,,,,,,3294.2933,3294.7933,3295.0438,3302.7646,space,7.7091,,3302.7647,45,30,3303.7672,3303.7672,3303.7802,,,,0,40,40,40,1,45,120,,,,,,,,
,,652fbbdf61e6b6fcfb879ab0,65af5687f086a38d1a40184c,2024-01-23_07h03.06.503,bars,2023.2.3,MacIntel,59.88023952,657b66ea316d21385b68909f,,,,,,,,,,,3303.7804,3304.7697,,,3305.2703,3305.5193,,0,180,,,,,,,,,,,,,,,,bars/040.png,bars/mask008.png,,,,,,,,,,,,3,2,,,,,,,4,4,3,4,,,,,,,,,,,3304.7698,3305.2701,3305.5194,3310.3919,space,4.8543,,3310.3919,40,5,3311.3914,3311.3914,3311.405,,,,0,41,41,41,1,140,5,,,,,,,,
,,652fbbdf61e6b6fcfb879ab0,65af5687f086a38d1a40184c,2024-01-23_07h03.06.503,bars,2023.2.3,MacIntel,59.88023952,657b66ea316d21385b68909f,,,,,,,,,,,3311.4051,3312.3931,,,3312.8906,3313.143,,135,135,,,,,,,,,,,,,,,,bars/047.png,bars/mask009.png,,,,,,,,,,,,0,1,,,,,,,6,2,5,1,,,,,,,,,,,3312.3932,3312.8905,3313.1431,3319.714,space,6.5586,,3319.714,60,65,3320.7161,3320.7162,3320.7289,,,,0,42,42,42,1,15,70,,,,,,,,
,,652fbbdf61e6b6fcfb879ab0,65af5687f086a38d1a40184c,2024-01-23_07h03.06.503,bars,2023.2.3,MacIntel,59.88023952,657b66ea316d21385b68909f,,,,,,,,,,,3320.7291,3321.735,,,3322.2342,3322.4838,,0,180,,,,,,,,,,,,,,,,bars/035.png,bars/mask004.png,,,,,,,,,,,,7,1,,,,,,,8,0,8,0,,,,,,,,,,,3321.735,3322.2339,3322.4838,3327.3717,space,4.8805,,3327.3718,5,60,3328.3717,3328.3718,3328.386,,,,0,43,43,43,1,175,60,,,,,,,,
,,652fbbdf61e6b6fcfb879ab0,65af5687f086a38d1a40184c,2024-01-23_07h03.06.503,bars,2023.2.3,MacIntel,59.88023952,657b66ea316d21385b68909f,,,,,,,,,,,3328.3864,3329.3743,,,3329.8739,3330.1251,,0,180,,,,,,,,,,,,,,,,bars/011.png,bars/mask005.png,,,,,,,,,,,,2,1,,,,,,,6,2,7,0,,,,,,,,,,,3329.3743,3329.8738,3330.1252,3332.4273,space,2.2846,,3332.4273,20,85,3333.4282,3333.4283,3333.4295,,,,0,44,44,44,1,160,85,,,,,,,,
,,652fbbdf61e6b6fcfb879ab0,65af5687f086a38d1a40184c,2024-01-23_07h03.06.503,bars,2023.2.3,MacIntel,59.88023952,657b66ea316d21385b68909f,,,,,,,,,,,3333.43,3334.4253,,,3334.9258,3335.1785,,135,135,,,,,,,,,,,,,,,,bars/007.png,bars/mask004.png,,,,,,,,,,,,0,1,,,,,,,4,4,5,5,,,,,,,,,,,3334.4253,3334.9258,3335.1786,3344.1846,space,8.9999,,3344.1847,40,80,3345.1879,3345.1879,3345.2007,,,,0,45,45,45,1,175,55,,,,,,,,
,,652fbbdf61e6b6fcfb879ab0,65af5687f086a38d1a40184c,2024-01-23_07h03.06.503,bars,2023.2.3,MacIntel,59.88023952,657b66ea316d21385b68909f,,,,,,,,,,,3345.2009,3346.2041,,,3346.7041,3346.9552,,135,135,,,,,,,,,,,,,,,,bars/014.png,bars/mask004.png,,,,,,,,,,,,0,2,,,,,,,6,6,7,4,,,,,,,,,,,3346.2042,3346.704,3346.9552,3355.9614,space,8.9913,,3355.9614,55,45,3356.9643,3356.9643,3356.976,,,,0,46,46,46,1,80,0,,,,,,,,
,,652fbbdf61e6b6fcfb879ab0,65af5687f086a38d1a40184c,2024-01-23_07h03.06.503,bars,2023.2.3,MacIntel,59.88023952,657b66ea316d21385b68909f,,,,,,,,,,,3356.9761,3357.9644,,,3358.4638,3358.715,,0,180,,,,,,,,,,,,,,,,bars/028.png,bars/mask006.png,,,,,,,,,,,,0,1,,,,,,,4,8,3,6,,,,,,,,,,,3357.9645,3358.4637,3358.715,3363.4684,space,4.7392,,3363.4684,45,60,3364.4707,3364.4708,3364.4853,,,,0,47,47,47,1,45,120,,,,,,,,
,,652fbbdf61e6b6fcfb879ab0,65af5687f086a38d1a40184c,2024-01-23_07h03.06.503,bars,2023.2.3,MacIntel,59.88023952,657b66ea316d21385b68909f,,,,,,,,,,,3364.4855,3365.4864,,,3365.988,3366.2393,,0,0,,,,,,,,,,,,,,,,bars/046.png,bars/mask007.png,,,,,,,,,,,,1,1,,,,,,,6,10,7,10,,,,,,,,,,,3365.4865,3365.988,3366.2393,3374.579,space,8.3293,,3374.5791,25,85,3375.5809,3375.581,3375.5947,,,,0,48,48,48,1,155,85,,,,,,,,
,,652fbbdf61e6b6fcfb879ab0,65af5687f086a38d1a40184c,2024-01-23_07h03.06.503,bars,2023.2.3,MacIntel,59.88023952,657b66ea316d21385b68909f,,,,,,,,,,,3375.5949,3376.5983,,,3377.099,3377.3488,,0,180,,,,,,,,,,,,,,,,bars/007.png,bars/mask001.png,,,,,,,,,,,,7,1,,,,,,,8,10,8,10,,,,,,,,,,,3376.5983,3377.099,3377.3488,3391.4451,space,14.0822,,3391.4452,5,55,3392.4443,3392.4444,3392.4589,,,,0,49,49,49,1,175,55,,,,,,,,
,,652fbbdf61e6b6fcfb879ab0,65af5687f086a38d1a40184c,2024-01-23_07h03.06.503,bars,2023.2.3,MacIntel,59.88023952,657b66ea316d21385b68909f,,,,,,,,,,,,,,,,,,,,,,,,,,,,,,,,,,,,,,,,,,,,,,,,,,,,,,,,,,,,,,,,,,,,,,,,,,,,,,,,,,,,,,,,,,,,,3392.4591,3452.4478,0,3,3,1,1,sequence_tables/blk011.csv
,,652fbbdf61e6b6fcfb879ab0,65af5687f086a38d1a40184c,2024-01-23_07h03.06.503,bars,2023.2.3,MacIntel,59.88023952,657b66ea316d21385b68909f,,,,,,,,,,,3461.6187,3462.6061,,,3463.1076,3463.3579,,90,90,,,,,,,,,,,,,,,,bars/042.png,bars/mask007.png,,,,,,,,,,,,3,2,,,,,,,10,7,10,6,,,,,,3452.4618,3461.6034,space,9.132,,3462.6061,3463.1075,3463.3579,3470.0292,space,6.6565,,3470.0293,55,15,3471.0298,3471.0298,3471.0432,,,,0,0,0,0,1,145,75,,,,,,,,
,,652fbbdf61e6b6fcfb879ab0,65af5687f086a38d1a40184c,2024-01-23_07h03.06.503,bars,2023.2.3,MacIntel,59.88023952,657b66ea316d21385b68909f,,,,,,,,,,,3471.0434,3472.0321,,,3472.5316,3472.7808,,90,90,,,,,,,,,,,,,,,,bars/015.png,bars/mask009.png,,,,,,,,,,,,2,1,,,,,,,8,5,5,5,,,,,,,,,,,3472.0321,3472.5315,3472.7808,3479.4871,space,6.6927,,3479.4872,20,70,3480.4889,3480.4889,3480.4988,,,,0,1,1,1,1,110,160,,,,,,,,
,,652fbbdf61e6b6fcfb879ab0,65af5687f086a38d1a40184c,2024-01-23_07h03.06.503,bars,2023.2.3,MacIntel,59.88023952,657b66ea316d21385b68909f,,,,,,,,,,,3480.4991,3481.4903,,,3481.9877,3482.2413,,45,45,,,,,,,,,,,,,,,,bars/010.png,bars/mask007.png,,,,,,,,,,,,2,2,,,,,,,10,3,10,3,,,,,,,,,,,3481.4904,3481.9877,3482.2413,3485.0096,space,2.754,,3485.0097,60,10,3486.0101,3486.0102,3486.0237,,,,0,2,2,2,1,165,55,,,,,,,,
,,652fbbdf61e6b6fcfb879ab0,65af5687f086a38d1a40184c,2024-01-23_07h03.06.503,bars,2023.2.3,MacIntel,59.88023952,657b66ea316d21385b68909f,,,,,,,,,,,3486.024,3487.0117,,,3487.5105,3487.7594,,135,135,,,,,,,,,,,,,,,,bars/041.png,bars/mask008.png,,,,,,,,,,,,0,2,,,,,,,10,1,10,1,,,,,,,,,,,3487.0118,3487.5103,3487.7595,3496.6017,space,8.8269,,3496.6018,65,50,3497.6032,3497.6032,3497.6177,,,,0,3,3,3,1,20,85,,,,,,,,
,,652fbbdf61e6b6fcfb879ab0,65af5687f086a38d1a40184c,2024-01-23_07h03.06.503,bars,2023.2.3,MacIntel,59.88023952,657b66ea316d21385b68909f,,,,,,,,,,,3497.6179,3498.6211,,,3499.1208,3499.3719,,90,90,,,,,,,,,,,,,,,,bars/030.png,bars/mask007.png,,,,,,,,,,,,1,2,,,,,,,8,3,7,4,,,,,,,,,,,3498.6211,3499.1207,3499.372,3514.2006,space,14.8182,,3514.2008,50,25,3515.1998,3515.1998,3515.212,,,,0,4,4,4,1,140,65,,,,,,,,
,,652fbbdf61e6b6fcfb879ab0,65af5687f086a38d1a40184c,2024-01-23_07h03.06.503,bars,2023.2.3,MacIntel,59.88023952,657b66ea316d21385b68909f,,,,,,,,,,,3515.2124,3516.2028,,,3516.7037,3516.954,,45,45,,,,,,,,,,,,,,,,bars/034.png,bars/mask007.png,,,,,,,,,,,,1,2,,,,,,,10,5,9,4,,,,,,,,,,,3516.2028,3516.7037,3516.9541,3525.7934,space,8.8244,,3525.7934,80,20,3526.7955,3526.7955,3526.8021,,,,0,5,5,5,1,125,65,,,,,,,,
,,652fbbdf61e6b6fcfb879ab0,65af5687f086a38d1a40184c,2024-01-23_07h03.06.503,bars,2023.2.3,MacIntel,59.88023952,657b66ea316d21385b68909f,,,,,,,,,,,3526.8022,3527.7969,,,3528.2979,3528.5474,,135,135,,,,,,,,,,,,,,,,bars/004.png,bars/mask008.png,,,,,,,,,,,,5,2,,,,,,,8,7,9,7,,,,,,,,,,,3527.797,3528.2976,3528.5474,3543.7766,space,15.2149,,3543.7767,70,10,3544.7773,3544.7773,3544.7913,,,,0,6,6,6,1,25,125,,,,,,,,
,,652fbbdf61e6b6fcfb879ab0,65af5687f086a38d1a40184c,2024-01-23_07h03.06.503,bars,2023.2.3,MacIntel,59.88023952,657b66ea316d21385b68909f,,,,,,,,,,,3544.7915,3545.7799,,,3546.2788,3546.5308,,0,180,,,,,,,,,,,,,,,,bars/045.png,bars/mask000.png,,,,,,,,,,,,3,2,,,,,,,6,5,6,4,,,,,,,,,,,3545.78,3546.2787,3546.5309,3557.9535,space,11.4114,,3557.9536,80,10,3558.9578,3558.9578,3558.972,,,,0,7,7,7,1,100,10,,,,,,,,
,,652fbbdf61e6b6fcfb879ab0,65af5687f086a38d1a40184c,2024-01-23_07h03.06.503,bars,2023.2.3,MacIntel,59.88023952,657b66ea316d21385b68909f,,,,,,,,,,,3558.9721,3559.9753,,,3560.4739,3560.7233,,45,45,,,,,,,,,,,,,,,,bars/034.png,bars/mask005.png,,,,,,,,,,,,3,2,,,,,,,8,7,9,9,,,,,,,,,,,3559.9753,3560.4738,3560.7234,3570.701,space,9.9601,,3570.7011,80,20,3571.7009,3571.7009,3571.7127,,,,0,8,8,8,1,125,65,,,,,,,,
