init_variables.started,init_variables.stopped,participant,session,date,expName,psychopyVersion,OS,frameRate,study_id,instruction_exp.started,instruction_exp.stopped,key_resp_8.keys,key_resp_8.rt,key_resp_8.duration,instruction_single.started,instruction_single.stopped,key_resp_2.keys,key_resp_2.rt,key_resp_2.duration,interval.started,interval.stopped,cue_single.started,cue_single.stopped,mask.started,mask.stopped,ori_response_single.started,res_ori,res,ori_response_single.stopped,key_resp_single.keys,key_resp_single.rt,key_resp_single.duration,disp_single.started,disp_single.stopped,key_resp.keys,key_resp.rt,key_resp.duration,single.thisRepN,single.thisTrialN,single.thisN,single.thisIndex,single.ran,ori,path,mask_path,instruction_bandit.started,instruction_bandit.stopped,key_resp_6.keys,key_resp_6.rt,key_resp_6.duration,cue_bandit.started,cue_bandit.stopped,bandit_res.keys,bandit_res.rt,bandit_res.duration,outcome_bandit.started,rew,action,outcome_bandit.stopped,bandit.thisRepN,bandit.thisTrialN,bandit.thisN,bandit.thisIndex,bandit.ran,actual_rew1,actual_rew2,rew1,rew2,instruction_task.started,instruction_task.stopped,key_resp_7.keys,key_resp_7.rt,key_resp_7.duration,wait_ready.started,wait_ready.stopped,key_resp_3.keys,key_resp_3.rt,key_resp_3.duration,cue.started,cue.stopped,ori_response.started,ori_response.stopped,key_resp_5.keys,key_resp_5.rt,key_resp_5.duration,outcome.started,diff1,diff2,outcome.stopped,disp_outcome_practice.started,disp_outcome_practice.stopped,key_resp_4.keys,key_resp_4.rt,key_resp_4.duration,trials.thisRepN,trials.thisTrialN,trials.thisN,trials.thisIndex,trials.ran,ori1,ori2,break_blk.started,break_blk.stopped,block.thisRepN,block.thisTrialN,block.thisN,block.thisIndex,block.ran,condition_file
0.0003,0.0004,64971e71ba666687996c6072,65af56a0cf3d8856f5c0ca75,2024-01-23_07h03.22.689,bars,2023.2.3,Win32,59.88023952,657b66ea316d21385b68909f,,,,,,,,,,,,,,,,,,,,,,,,,,,,,,,,,,,,,,,,,,,,,,,,,,,,,,,,,,,,,,,,,,,,,,,,,,,,,,,,,,,,,,,,,,,,,,,,,,,,
,,64971e71ba666687996c6072,65af56a0cf3d8856f5c0ca75,2024-01-23_07h03.22.689,bars,2023.2.3,Win32,59.88023952,657b66ea316d21385b68909f,0.0005,322.0483,y,322.0251,,,,,,,,,,,,,,,,,,,,,,,,,,,,,,,,,,,,,,,,,,,,,,,,,,,,,,,,,,,,,,,,,,,,,,,,,,,,,,,,,,,,,,,,,,,,,,,,
,,64971e71ba666687996c6072,65af56a0cf3d8856f5c0ca75,2024-01-23_07h03.22.689,bars,2023.2.3,Win32,59.88023952,657b66ea316d21385b68909f,,,,,,322.0485,345.7517,space,23.6837,,,,,,,,,,,,,,,,,,,,,,,,,,,,,,,,,,,,,,,,,,,,,,,,,,,,,,,,,,,,,,,,,,,,,,,,,,,,,,,,,,,,,,,,,,,
,,64971e71ba666687996c6072,65af56a0cf3d8856f5c0ca75,2024-01-23_07h03.22.689,bars,2023.2.3,Win32,59.88023952,657b66ea316d21385b68909f,,,,,,,,,,,345.7637,346.7671,346.7671,347.2537,347.2538,347.5,347.5001,45,45,365.787,space,18.2666,,365.7871,376.906,space,11.0927,,0,0,0,5,1,55,bars/single005.png,bars/mask008.png,,,,,,,,,,,,,,,,,,,,,,,,,,,,,,,,,,,,,,,,,,,,,,,,,,,,,,,,,,,,,,,,
,,64971e71ba666687996c6072,65af56a0cf3d8856f5c0ca75,2024-01-23_07h03.22.689,bars,2023.2.3,Win32,59.88023952,657b66ea316d21385b68909f,,,,,,,,,,,376.9138,377.9047,377.9048,378.4041,378.4041,378.6572,378.6572,146,-34,387.1793,space,8.5096,,387.1794,394.5397,space,7.3285,,0,1,1,8,1,160,bars/single008.png,bars/mask004.png,,,,,,,,,,,,,,,,,,,,,,,,,,,,,,,,,,,,,,,,,,,,,,,,,,,,,,,,,,,,,,,,
,,64971e71ba666687996c6072,65af56a0cf3d8856f5c0ca75,2024-01-23_07h03.22.689,bars,2023.2.3,Win32,59.88023952,657b66ea316d21385b68909f,,,,,,,,,,,394.5469,395.5381,395.5381,396.0372,396.0373,396.2873,396.2874,26,206,400.0339,space,3.7189,,400.034,402.9313,space,2.8714,,0,2,2,9,1,20,bars/single009.png,bars/mask006.png,,,,,,,,,,,,,,,,,,,,,,,,,,,,,,,,,,,,,,,,,,,,,,,,,,,,,,,,,,,,,,,,
,,64971e71ba666687996c6072,65af56a0cf3d8856f5c0ca75,2024-01-23_07h03.22.689,bars,2023.2.3,Win32,59.88023952,657b66ea316d21385b68909f,,,,,,,,,,,402.9316,403.9339,403.9339,404.4299,404.4299,404.6796,404.6796,115,115,409.0963,space,4.3968,,409.0963,412.0727,space,2.9528,,0,3,3,4,1,95,bars/single004.png,bars/mask004.png,,,,,,,,,,,,,,,,,,,,,,,,,,,,,,,,,,,,,,,,,,,,,,,,,,,,,,,,,,,,,,,,
,,64971e71ba666687996c6072,65af56a0cf3d8856f5c0ca75,2024-01-23_07h03.22.689,bars,2023.2.3,Win32,59.88023952,657b66ea316d21385b68909f,,,,,,,,,,,412.08,413.0714,413.0716,413.5713,413.5714,413.8211,413.8212,142,142,418.7498,space,4.9128,,418.7498,422.097,space,3.3207,,0,4,4,0,1,150,bars/single000.png,bars/mask006.png,,,,,,,,,,,,,,,,,,,,,,,,,,,,,,,,,,,,,,,,,,,,,,,,,,,,,,,,,,,,,,,,
,,64971e71ba666687996c6072,65af56a0cf3d8856f5c0ca75,2024-01-23_07h03.22.689,bars,2023.2.3,Win32,59.88023952,657b66ea316d21385b68909f,,,,,,,,,,,422.1043,423.0958,423.0958,423.5953,423.5953,423.845,423.845,24,24,425.56,space,1.7039,,425.5601,430.5099,space,4.9297,,0,5,5,3,1,20,bars/single003.png,bars/mask005.png,,,,,,,,,,,,,,,,,,,,,,,,,,,,,,,,,,,,,,,,,,,,,,,,,,,,,,,,,,,,,,,,
,,64971e71ba666687996c6072,65af56a0cf3d8856f5c0ca75,2024-01-23_07h03.22.689,bars,2023.2.3,Win32,59.88023952,657b66ea316d21385b68909f,,,,,,,,,,,430.5169,431.5076,431.5076,432.004,432.004,432.2539,432.2539,145,145,435.3683,space,3.0911,,435.3683,440.2465,space,4.8505,,0,6,6,2,1,145,bars/single002.png,bars/mask003.png,,,,,,,,,,,,,,,,,,,,,,,,,,,,,,,,,,,,,,,,,,,,,,,,,,,,,,,,,,,,,,,,
,,64971e71ba666687996c6072,65af56a0cf3d8856f5c0ca75,2024-01-23_07h03.22.689,bars,2023.2.3,Win32,59.88023952,657b66ea316d21385b68909f,,,,,,,,,,,440.2539,441.249,441.249,441.7449,441.745,441.9948,441.9948,176,-4,444.7423,space,2.7242,,444.7424,450.1873,space,5.4134,,0,7,7,6,1,175,bars/single006.png,bars/mask005.png,,,,,,,,,,,,,,,,,,,,,,,,,,,,,,,,,,,,,,,,,,,,,,,,,,,,,,,,,,,,,,,,
,,64971e71ba666687996c6072,65af56a0cf3d8856f5c0ca75,2024-01-23_07h03.22.689,bars,2023.2.3,Win32,59.88023952,657b66ea316d21385b68909f,,,,,,,,,,,450.1971,451.1862,451.1862,451.6891,451.6891,451.9356,451.9356,29,209,454.6163,space,2.655,,454.6163,457.1139,space,2.4746,,0,8,8,7,1,45,bars/single007.png,bars/mask009.png,,,,,,,,,,,,,,,,,,,,,,,,,,,,,,,,,,,,,,,,,,,,,,,,,,,,,,,,,,,,,,,,
,,64971e71ba666687996c6072,65af56a0cf3d8856f5c0ca75,2024-01-23_07h03.22.689,bars,2023.2.3,Win32,59.88023952,657b66ea316d21385b68909f,,,,,,,,,,,457.1141,458.1128,458.1129,458.6125,458.6125,458.8621,458.8622,2,182,462.4423,space,3.5519,,462.4423,465.6061,space,3.1355,,0,9,9,1,1,20,bars/single001.png,bars/mask006.png,,,,,,,,,,,,,,,,,,,,,,,,,,,,,,,,,,,,,,,,,,,,,,,,,,,,,,,,,,,,,,,,
,,64971e71ba666687996c6072,65af56a0cf3d8856f5c0ca75,2024-01-23_07h03.22.689,bars,2023.2.3,Win32,59.88023952,657b66ea316d21385b68909f,,,,,,,,,,,,,,,,,,,,,,,,,,,,,,,,,,,,,465.6133,482.0575,space,16.4216,,,,,,,,,,,,,,,,,,,,,,,,,,,,,,,,,,,,,,,,,,,,,,,,,,,,,,,,,,,,
,,64971e71ba666687996c6072,65af56a0cf3d8856f5c0ca75,2024-01-23_07h03.22.689,bars,2023.2.3,Win32,59.88023952,657b66ea316d21385b68909f,,,,,,,,,,,,,,,,,,,,,,,,,,,,,,,,,,,,,,,,,,482.0668,486.5712,right,4.4938,,486.5713,2,2,487.5685,0,0,0,0,1,9,1,9,2,,,,,,,,,,,,,,,,,,,,,,,,,,,,,,,,,,,,,,,,,
,,64971e71ba666687996c6072,65af56a0cf3d8856f5c0ca75,2024-01-23_07h03.22.689,bars,2023.2.3,Win32,59.88023952,657b66ea316d21385b68909f,,,,,,,,,,,,,,,,,,,,,,,,,,,,,,,,,,,,,,,,,,487.569,491.9813,right,4.3862,,491.9814,1,2,492.9799,0,1,1,1,1,10,0,10,1,,,,,,,,,,,,,,,,,,,,,,,,,,,,,,,,,,,,,,,,,
,,64971e71ba666687996c6072,65af56a0cf3d8856f5c0ca75,2024-01-23_07h03.22.689,bars,2023.2.3,Win32,59.88023952,657b66ea316d21385b68909f,,,,,,,,,,,,,,,,,,,,,,,,,,,,,,,,,,,,,,,,,,492.9873,494.1165,left,1.1165,,494.1165,10,1,495.1114,0,2,2,2,1,10,2,10,2,,,,,,,,,,,,,,,,,,,,,,,,,,,,,,,,,,,,,,,,,
,,64971e71ba666687996c6072,65af56a0cf3d8856f5c0ca75,2024-01-23_07h03.22.689,bars,2023.2.3,Win32,59.88023952,657b66ea316d21385b68909f,,,,,,,,,,,,,,,,,,,,,,,,,,,,,,,,,,,,,,,,,,495.1119,496.9264,left,1.7827,,496.9266,7,1,497.925,0,3,3,3,1,8,4,7,3,,,,,,,,,,,,,,,,,,,,,,,,,,,,,,,,,,,,,,,,,
,,64971e71ba666687996c6072,65af56a0cf3d8856f5c0ca75,2024-01-23_07h03.22.689,bars,2023.2.3,Win32,59.88023952,657b66ea316d21385b68909f,,,,,,,,,,,,,,,,,,,,,,,,,,,,,,,,,,,,,,,,,,497.9259,500.9763,right,3.0313,,500.9763,1,2,501.9713,0,4,4,4,1,6,2,5,1,,,,,,,,,,,,,,,,,,,,,,,,,,,,,,,,,,,,,,,,,
,,64971e71ba666687996c6072,65af56a0cf3d8856f5c0ca75,2024-01-23_07h03.22.689,bars,2023.2.3,Win32,59.88023952,657b66ea316d21385b68909f,,,,,,,,,,,,,,,,,,,,,,,,,,,,,,,,,,,,,,,,,,501.9795,503.3409,left,1.3492,,503.341,4,1,504.3362,0,5,5,5,1,4,4,4,4,,,,,,,,,,,,,,,,,,,,,,,,,,,,,,,,,,,,,,,,,
,,64971e71ba666687996c6072,65af56a0cf3d8856f5c0ca75,2024-01-23_07h03.22.689,bars,2023.2.3,Win32,59.88023952,657b66ea316d21385b68909f,,,,,,,,,,,,,,,,,,,,,,,,,,,,,,,,,,,,,,,,,,504.3442,505.7553,left,1.399,,505.7553,1,1,506.7501,0,6,6,6,1,2,2,1,2,,,,,,,,,,,,,,,,,,,,,,,,,,,,,,,,,,,,,,,,,
,,64971e71ba666687996c6072,65af56a0cf3d8856f5c0ca75,2024-01-23_07h03.22.689,bars,2023.2.3,Win32,59.88023952,657b66ea316d21385b68909f,,,,,,,,,,,,,,,,,,,,,,,,,,,,,,,,,,,,,,,,,,506.751,507.9659,right,1.1899,,507.966,1,2,508.9653,0,7,7,7,1,0,0,0,1,,,,,,,,,,,,,,,,,,,,,,,,,,,,,,,,,,,,,,,,,
,,64971e71ba666687996c6072,65af56a0cf3d8856f5c0ca75,2024-01-23_07h03.22.689,bars,2023.2.3,Win32,59.88023952,657b66ea316d21385b68909f,,,,,,,,,,,,,,,,,,,,,,,,,,,,,,,,,,,,,,,,,,508.9658,509.864,right,0.8726,,509.8641,0,2,510.866,0,8,8,8,1,0,2,1,0,,,,,,,,,,,,,,,,,,,,,,,,,,,,,,,,,,,,,,,,,
,,64971e71ba666687996c6072,65af56a0cf3d8856f5c0ca75,2024-01-23_07h03.22.689,bars,2023.2.3,Win32,59.88023952,657b66ea316d21385b68909f,,,,,,,,,,,,,,,,,,,,,,,,,,,,,,,,,,,,,,,,,,510.8663,512.4788,left,1.5829,,512.4789,2,1,513.4778,0,9,9,9,1,2,4,2,3,,,,,,,,,,,,,,,,,,,,,,,,,,,,,,,,,,,,,,,,,
,,64971e71ba666687996c6072,65af56a0cf3d8856f5c0ca75,2024-01-23_07h03.22.689,bars,2023.2.3,Win32,59.88023952,657b66ea316d21385b68909f,,,,,,,,,,,,,,,,,,,,,,,,,,,,,,,,,,,,,,,,,,513.4781,515.8252,left,2.3157,,515.8253,0,1,516.8241,0,10,10,10,1,0,2,0,3,,,,,,,,,,,,,,,,,,,,,,,,,,,,,,,,,,,,,,,,,
,,64971e71ba666687996c6072,65af56a0cf3d8856f5c0ca75,2024-01-23_07h03.22.689,bars,2023.2.3,Win32,59.88023952,657b66ea316d21385b68909f,,,,,,,,,,,,,,,,,,,,,,,,,,,,,,,,,,,,,,,,,,516.832,518.1402,left,1.293,,518.1403,0,1,519.1385,0,11,11,11,1,0,4,0,3,,,,,,,,,,,,,,,,,,,,,,,,,,,,,,,,,,,,,,,,,
,,64971e71ba666687996c6072,65af56a0cf3d8856f5c0ca75,2024-01-23_07h03.22.689,bars,2023.2.3,Win32,59.88023952,657b66ea316d21385b68909f,,,,,,,,,,,,,,,,,,,,,,,,,,,,,,,,,,,,,,,,,,519.1392,519.8712,right,0.7074,,519.8712,6,2,520.87,0,12,12,12,1,2,6,1,6,,,,,,,,,,,,,,,,,,,,,,,,,,,,,,,,,,,,,,,,,
,,64971e71ba666687996c6072,65af56a0cf3d8856f5c0ca75,2024-01-23_07h03.22.689,bars,2023.2.3,Win32,59.88023952,657b66ea316d21385b68909f,,,,,,,,,,,,,,,,,,,,,,,,,,,,,,,,,,,,,,,,,,520.8707,522.802,right,1.9048,,522.8022,3,2,523.8047,0,13,13,13,1,0,4,1,3,,,,,,,,,,,,,,,,,,,,,,,,,,,,,,,,,,,,,,,,,
,,64971e71ba666687996c6072,65af56a0cf3d8856f5c0ca75,2024-01-23_07h03.22.689,bars,2023.2.3,Win32,59.88023952,657b66ea316d21385b68909f,,,,,,,,,,,,,,,,,,,,,,,,,,,,,,,,,,,,,,,,,,523.8049,524.4839,left,0.6629,,524.484,2,1,525.4824,0,14,14,14,1,2,6,2,7,,,,,,,,,,,,,,,,,,,,,,,,,,,,,,,,,,,,,,,,,
,,64971e71ba666687996c6072,65af56a0cf3d8856f5c0ca75,2024-01-23_07h03.22.689,bars,2023.2.3,Win32,59.88023952,657b66ea316d21385b68909f,,,,,,,,,,,,,,,,,,,,,,,,,,,,,,,,,,,,,,,,,,525.4832,526.919,right,1.4162,,526.919,9,2,527.9136,0,15,15,15,1,4,8,3,9,,,,,,,,,,,,,,,,,,,,,,,,,,,,,,,,,,,,,,,,,
,,64971e71ba666687996c6072,65af56a0cf3d8856f5c0ca75,2024-01-23_07h03.22.689,bars,2023.2.3,Win32,59.88023952,657b66ea316d21385b68909f,,,,,,,,,,,,,,,,,,,,,,,,,,,,,,,,,,,,,,,,,,527.9146,529.2799,left,1.3445,,529.28,7,1,530.2811,0,16,16,16,1,6,6,7,7,,,,,,,,,,,,,,,,,,,,,,,,,,,,,,,,,,,,,,,,,
,,64971e71ba666687996c6072,65af56a0cf3d8856f5c0ca75,2024-01-23_07h03.22.689,bars,2023.2.3,Win32,59.88023952,657b66ea316d21385b68909f,,,,,,,,,,,,,,,,,,,,,,,,,,,,,,,,,,,,,,,,,,530.2885,531.8606,left,1.5536,,531.8607,9,1,532.8591,0,17,17,17,1,8,4,9,5,,,,,,,,,,,,,,,,,,,,,,,,,,,,,,,,,,,,,,,,,
,,64971e71ba666687996c6072,65af56a0cf3d8856f5c0ca75,2024-01-23_07h03.22.689,bars,2023.2.3,Win32,59.88023952,657b66ea316d21385b68909f,,,,,,,,,,,,,,,,,,,,,,,,,,,,,,,,,,,,,,,,,,532.86,534.025,right,1.14,,534.0251,1,2,535.0239,0,18,18,18,1,6,2,5,1,,,,,,,,,,,,,,,,,,,,,,,,,,,,,,,,,,,,,,,,,
,,64971e71ba666687996c6072,65af56a0cf3d8856f5c0ca75,2024-01-23_07h03.22.689,bars,2023.2.3,Win32,59.88023952,657b66ea316d21385b68909f,,,,,,,,,,,,,,,,,,,,,,,,,,,,,,,,,,,,,,,,,,535.0247,536.5392,left,1.4906,,536.5393,7,1,537.5419,0,19,19,19,1,8,0,7,0,,,,,,,,,,,,,,,,,,,,,,,,,,,,,,,,,,,,,,,,,
,,64971e71ba666687996c6072,65af56a0cf3d8856f5c0ca75,2024-01-23_07h03.22.689,bars,2023.2.3,Win32,59.88023952,657b66ea316d21385b68909f,,,,,,,,,,,,,,,,,,,,,,,,,,,,,,,,,,,,,,,,,,,,,,,,,,,,,,,,,,,,537.5423,555.8555,space,18.2856,,,,,,,,,,,,,,,,,,,,,,,,,,,,,,,,,,,,,
,,64971e71ba666687996c6072,65af56a0cf3d8856f5c0ca75,2024-01-23_07h03.22.689,bars,2023.2.3,Win32,59.88023952,657b66ea316d21385b68909f,,,,,,,,,,,558.9715,559.9675,,,560.4709,560.7164,,40,220,,,,,,,,,,,,,,,,bars/000.png,bars/mask009.png,,,,,,,,,,,,4,1,,,,,,,5,5,4,5,,,,,,555.8664,558.969,space,3.0854,,559.9681,560.4709,560.717,565.2302,space,4.4798,,565.2303,0,75,566.2287,566.2288,575.6201,space,9.3615,,0,0,0,0,1,40,145,,,,,,,,
,,64971e71ba666687996c6072,65af56a0cf3d8856f5c0ca75,2024-01-23_07h03.22.689,bars,2023.2.3,Win32,59.88023952,657b66ea316d21385b68909f,,,,,,,,,,,575.6296,576.6184,,,577.1177,577.3675,,40,220,,,,,,,,,,,,,,,,bars/043.png,bars/mask007.png,,,,,,,,,,,,1,1,,,,,,,3,3,2,2,,,,,,,,,,,576.6187,577.1177,577.3676,582.0802,space,4.6797,,582.0806,10,90,583.0787,583.0787,589.9569,space,6.8541,,0,1,1,1,1,30,130,,,,,,,,
,,64971e71ba666687996c6072,65af56a0cf3d8856f5c0ca75,2024-01-23_07h03.22.689,bars,2023.2.3,Win32,59.88023952,657b66ea316d21385b68909f,,,,,,,,,,,589.965,590.955,,,591.4543,591.7041,,9,9,,,,,,,,,,,,,,,,bars/003.png,bars/mask008.png,,,,,,,,,,,,3,1,,,,,,,5,1,6,1,,,,,,,,,,,590.9552,591.4543,591.7042,593.6903,space,1.9654,,593.6903,16,49,594.6847,594.6847,598.9809,space,4.2701,,0,2,2,2,1,25,140,,,,,,,,
,,64971e71ba666687996c6072,65af56a0cf3d8856f5c0ca75,2024-01-23_07h03.22.689,bars,2023.2.3,Win32,59.88023952,657b66ea316d21385b68909f,,,,,,,,,,,598.9891,599.9798,,,600.4801,600.7298,,2,182,,,,,,,,,,,,,,,,bars/023.png,bars/mask004.png,,,,,,,,,,,,2,1,,,,,,,3,3,5,4,,,,,,,,,,,599.9798,600.4801,600.7298,604.3099,space,3.5483,,604.31,18,67,605.3081,605.3082,608.5422,space,3.2133,,0,3,3,3,1,20,115,,,,,,,,
,,64971e71ba666687996c6072,65af56a0cf3d8856f5c0ca75,2024-01-23_07h03.22.689,bars,2023.2.3,Win32,59.88023952,657b66ea316d21385b68909f,,,,,,,,,,,608.5512,609.5545,,,610.0536,610.3036,,138,138,,,,,,,,,,,,,,,,bars/040.png,bars/mask008.png,,,,,,,,,,,,1,1,,,,,,,1,5,1,5,,,,,,,,,,,609.5548,610.0536,610.3038,615.099,space,4.7718,,615.0992,2,47,616.0981,616.0984,622.5763,space,6.4544,,0,4,4,4,1,140,5,,,,,,,,
,,64971e71ba666687996c6072,65af56a0cf3d8856f5c0ca75,2024-01-23_07h03.22.689,bars,2023.2.3,Win32,59.88023952,657b66ea316d21385b68909f,,,,,,,,,,,622.5841,623.5774,,,624.0746,624.324,,22,202,,,,,,,,,,,,,,,,bars/007.png,bars/mask001.png,,,,,,,,,,,,0,1,,,,,,,0,3,0,2,,,,,,,,,,,623.5774,624.0744,624.3242,626.8217,space,2.4706,,626.8219,27,33,627.8205,627.8206,630.6186,space,2.7688,,0,5,5,5,1,175,55,,,,,,,,
,,64971e71ba666687996c6072,65af56a0cf3d8856f5c0ca75,2024-01-23_07h03.22.689,bars,2023.2.3,Win32,59.88023952,657b66ea316d21385b68909f,,,,,,,,,,,630.6189,631.6173,,,632.1172,632.3705,,92,272,,,,,,,,,,,,,,,,bars/013.png,bars/mask003.png,,,,,,,,,,,,1,1,,,,,,,2,1,3,1,,,,,,,,,,,631.6174,632.1171,632.3705,636.5627,space,4.1823,,636.5629,17,82,637.5646,637.5646,641.1257,space,3.5396,,0,6,6,6,1,75,10,,,,,,,,
,,64971e71ba666687996c6072,65af56a0cf3d8856f5c0ca75,2024-01-23_07h03.22.689,bars,2023.2.3,Win32,59.88023952,657b66ea316d21385b68909f,,,,,,,,,,,641.1328,642.1277,,,642.6236,642.8731,,125,125,,,,,,,,,,,,,,,,bars/008.png,bars/mask001.png,,,,,,,,,,,,3,1,,,,,,,4,3,5,3,,,,,,,,,,,642.1277,642.6234,642.8733,646.3206,space,3.418,,646.3208,15,55,647.3188,647.319,653.1809,space,5.8295,,0,7,7,7,1,110,0,,,,,,,,
,,64971e71ba666687996c6072,65af56a0cf3d8856f5c0ca75,2024-01-23_07h03.22.689,bars,2023.2.3,Win32,59.88023952,657b66ea316d21385b68909f,,,,,,,,,,,653.1877,654.1789,,,654.6803,654.9287,,92,92,,,,,,,,,,,,,,,,bars/012.png,bars/mask003.png,,,,,,,,,,,,1,1,,,,,,,2,5,1,6,,,,,,,,,,,654.179,654.6803,654.9289,657.4811,space,2.5321,,657.4811,2,77,658.4759,658.4761,661.3729,space,2.8711,,0,8,8,8,1,90,15,,,,,,,,
,,64971e71ba666687996c6072,65af56a0cf3d8856f5c0ca75,2024-01-23_07h03.22.689,bars,2023.2.3,Win32,59.88023952,657b66ea316d21385b68909f,,,,,,,,,,,661.3803,662.3757,,,662.8715,663.1209,,138,138,,,,,,,,,,,,,,,,bars/001.png,bars/mask008.png,,,,,,,,,,,,3,1,,,,,,,4,3,4,4,,,,,,,,,,,662.3758,662.8714,663.1211,665.5525,space,2.4069,,665.5525,8,53,666.5516,666.5517,669.3152,space,2.7377,,0,9,9,9,1,130,85,,,,,,,,
,,64971e71ba666687996c6072,65af56a0cf3d8856f5c0ca75,2024-01-23_07h03.22.689,bars,2023.2.3,Win32,59.88023952,657b66ea316d21385b68909f,,,,,,,,,,,669.3229,670.314,,,670.8138,671.0668,,175,175,,,,,,,,,,,,,,,,bars/039.png,bars/mask000.png,,,,,,,,,,,,3,1,,,,,,,2,5,3,5,,,,,,,,,,,670.3141,670.8136,671.0668,674.298,space,3.2141,,674.298,0,70,675.2927,675.2929,680.2217,space,4.9037,,0,10,10,10,1,175,105,,,,,,,,
,,64971e71ba666687996c6072,65af56a0cf3d8856f5c0ca75,2024-01-23_07h03.22.689,bars,2023.2.3,Win32,59.88023952,657b66ea316d21385b68909f,,,,,,,,,,,680.2291,681.2206,,,681.7199,681.9698,,113,113,,,,,,,,,,,,,,,,bars/025.png,bars/mask002.png,,,,,,,,,,,,0,1,,,,,,,0,7,0,6,,,,,,,,,,,681.2208,681.7199,681.9699,684.1222,space,2.1317,,684.1222,8,73,685.12,685.1201,689.5631,space,4.4139,,0,11,11,11,1,105,40,,,,,,,,
,,64971e71ba666687996c6072,65af56a0cf3d8856f5c0ca75,2024-01-23_07h03.22.689,bars,2023.2.3,Win32,59.88023952,657b66ea316d21385b68909f,,,,,,,,,,,689.5703,690.5659,,,691.0615,691.311,,4,184,,,,,,,,,,,,,,,,bars/035.png,bars/mask008.png,,,,,,,,,,,,0,1,,,,,,,0,9,0,8,,,,,,,,,,,690.5659,691.0614,691.311,694.7955,space,3.464,,694.7956,9,56,695.7935,695.7935,698.4884,space,2.6699,,0,12,12,12,1,175,60,,,,,,,,
,,64971e71ba666687996c6072,65af56a0cf3d8856f5c0ca75,2024-01-23_07h03.22.689,bars,2023.2.3,Win32,59.88023952,657b66ea316d21385b68909f,,,,,,,,,,,698.4888,699.4874,,,699.9867,700.236,,44,44,,,,,,,,,,,,,,,,bars/019.png,bars/mask000.png,,,,,,,,,,,,3,1,,,,,,,2,7,3,7,,,,,,,,,,,699.4875,699.9865,700.2361,701.3355,space,1.0676,,701.3357,1,61,702.3342,702.3343,707.151,space,4.7961,,0,13,13,13,1,45,105,,,,,,,,
,,64971e71ba666687996c6072,65af56a0cf3d8856f5c0ca75,2024-01-23_07h03.22.689,bars,2023.2.3,Win32,59.88023952,657b66ea316d21385b68909f,,,,,,,,,,,707.1601,708.1662,,,708.6619,708.9115,,170,-10,,,,,,,,,,,,,,,,bars/035.png,bars/mask006.png,,,,,,,,,,,,0,1,,,,,,,0,9,0,10,,,,,,,,,,,708.1663,708.6617,708.9117,711.7095,space,2.7684,,711.7095,5,70,712.7077,712.7079,714.8562,space,2.1203,,0,14,14,14,1,175,60,,,,,,,,
,,64971e71ba666687996c6072,65af56a0cf3d8856f5c0ca75,2024-01-23_07h03.22.689,bars,2023.2.3,Win32,59.88023952,657b66ea316d21385b68909f,,,,,,,,,,,714.8569,715.8554,,,716.3548,716.6086,,18,198,,,,,,,,,,,,,,,,bars/026.png,bars/mask008.png,,,,,,,,,,,,0,1,,,,,,,0,7,1,7,,,,,,,,,,,715.8554,716.3546,716.6086,719.1063,space,2.4819,,719.1063,17,67,720.1008,720.1009,724.6468,space,4.5167,,0,15,15,15,1,35,85,,,,,,,,
,,64971e71ba666687996c6072,65af56a0cf3d8856f5c0ca75,2024-01-23_07h03.22.689,bars,2023.2.3,Win32,59.88023952,657b66ea316d21385b68909f,,,,,,,,,,,724.6543,725.6462,,,726.1453,726.3993,,171,171,,,,,,,,,,,,,,,,bars/035.png,bars/mask006.png,,,,,,,,,,,,2,1,,,,,,,0,9,2,6,,,,,,,,,,,725.6464,726.1452,726.3993,728.2647,space,1.8613,,728.2647,4,69,729.2589,729.2589,733.9051,space,4.6193,,0,16,16,16,1,175,60,,,,,,,,
,,64971e71ba666687996c6072,65af56a0cf3d8856f5c0ca75,2024-01-23_07h03.22.689,bars,2023.2.3,Win32,59.88023952,657b66ea316d21385b68909f,,,,,,,,,,,733.9132,734.9039,,,735.4035,735.6532,,144,-36,,,,,,,,,,,,,,,,bars/024.png,bars/mask006.png,,,,,,,,,,,,0,1,,,,,,,2,7,2,7,,,,,,,,,,,734.904,735.4035,735.6535,738.0009,space,2.3169,,738.0011,24,26,739,739,743.163,space,4.1342,,0,17,17,17,1,120,170,,,,,,,,
,,64971e71ba666687996c6072,65af56a0cf3d8856f5c0ca75,2024-01-23_07h03.22.689,bars,2023.2.3,Win32,59.88023952,657b66ea316d21385b68909f,,,,,,,,,,,743.172,744.1655,,,744.6619,744.9152,,174,174,,,,,,,,,,,,,,,,bars/026.png,bars/mask004.png,,,,,,,,,,,,0,1,,,,,,,0,5,0,4,,,,,,,,,,,744.1655,744.6617,744.9152,747.1097,space,2.1823,,747.1098,41,89,748.1083,748.1084,752.1049,space,3.9686,,0,18,18,18,1,35,85,,,,,,,,
,,64971e71ba666687996c6072,65af56a0cf3d8856f5c0ca75,2024-01-23_07h03.22.689,bars,2023.2.3,Win32,59.88023952,657b66ea316d21385b68909f,,,,,,,,,,,752.1133,753.1033,,,753.6033,753.8526,,9,9,,,,,,,,,,,,,,,,bars/047.png,bars/mask002.png,,,,,,,,,,,,1,1,,,,,,,2,7,1,8,,,,,,,,,,,753.1034,753.6032,753.8526,756.3842,space,2.519,,756.3844,6,61,757.3832,757.3832,758.9481,space,1.5433,,0,19,19,19,1,15,70,,,,,,,,
,,64971e71ba666687996c6072,65af56a0cf3d8856f5c0ca75,2024-01-23_07h03.22.689,bars,2023.2.3,Win32,59.88023952,657b66ea316d21385b68909f,,,,,,,,,,,758.9489,759.947,,,760.4465,760.6962,,152,-28,,,,,,,,,,,,,,,,bars/038.png,bars/mask004.png,,,,,,,,,,,,0,1,,,,,,,0,5,0,5,,,,,,,,,,,759.9471,760.4464,760.6962,762.8656,space,2.1649,,762.8657,13,82,763.8608,763.8609,769.0228,space,5.1299,,0,20,20,20,1,165,70,,,,,,,,
,,64971e71ba666687996c6072,65af56a0cf3d8856f5c0ca75,2024-01-23_07h03.22.689,bars,2023.2.3,Win32,59.88023952,657b66ea316d21385b68909f,,,,,,,,,,,769.0332,770.0241,,,770.5208,770.7702,,84,84,,,,,,,,,,,,,,,,bars/002.png,bars/mask009.png,,,,,,,,,,,,4,2,,,,,,,2,3,2,4,,,,,,,,,,,770.0241,770.5205,770.7704,773.485,space,2.6857,,773.4851,46,1,774.4835,774.4835,779.3467,space,4.8304,,0,21,21,21,1,130,85,,,,,,,,
,,64971e71ba666687996c6072,65af56a0cf3d8856f5c0ca75,2024-01-23_07h03.22.689,bars,2023.2.3,Win32,59.88023952,657b66ea316d21385b68909f,,,,,,,,,,,779.3553,780.3479,,,780.8449,781.0947,,81,81,,,,,,,,,,,,,,,,bars/026.png,bars/mask009.png,,,,,,,,,,,,3,2,,,,,,,4,5,3,4,,,,,,,,,,,780.3479,780.8448,781.0947,783.8257,space,2.7029,,783.8258,46,4,784.8243,784.8244,788.3381,space,3.4917,,0,22,22,22,1,35,85,,,,,,,,
,,64971e71ba666687996c6072,65af56a0cf3d8856f5c0ca75,2024-01-23_07h03.22.689,bars,2023.2.3,Win32,59.88023952,657b66ea316d21385b68909f,,,,,,,,,,,788.3459,789.3368,,,789.8365,790.0905,,164,-16,,,,,,,,,,,,,,,,bars/024.png,bars/mask001.png,,,,,,,,,,,,2,2,,,,,,,6,3,5,2,,,,,,,,,,,789.3369,789.8364,790.0906,793.9039,space,3.8089,,793.9039,44,6,794.8984,794.8985,797.9291,space,3.0092,,0,23,23,23,1,120,170,,,,,,,,
,,64971e71ba666687996c6072,65af56a0cf3d8856f5c0ca75,2024-01-23_07h03.22.689,bars,2023.2.3,Win32,59.88023952,657b66ea316d21385b68909f,,,,,,,,,,,797.9366,798.928,,,799.4311,799.6773,,107,-73,,,,,,,,,,,,,,,,bars/037.png,bars/mask009.png,,,,,,,,,,,,3,2,,,,,,,4,1,4,3,,,,,,,,,,,798.9282,799.4311,799.6774,802.941,space,3.2558,,802.941,43,2,803.9401,803.9402,806.5253,space,2.5644,,0,24,24,24,1,150,105,,,,,,,,
,,64971e71ba666687996c6072,65af56a0cf3d8856f5c0ca75,2024-01-23_07h03.22.689,bars,2023.2.3,Win32,59.88023952,657b66ea316d21385b68909f,,,,,,,,,,,806.5256,807.5198,,,808.0198,808.2694,,8,8,,,,,,,,,,,,,,,,bars/036.png,bars/mask000.png,,,,,,,,,,,,0,2,,,,,,,2,0,1,0,,,,,,,,,,,807.52,808.0198,808.2696,811.1876,space,2.8984,,811.1877,43,12,812.1823,812.1823,815.3962,space,3.1823,,0,25,25,25,1,145,20,,,,,,,,
,,64971e71ba666687996c6072,65af56a0cf3d8856f5c0ca75,2024-01-23_07h03.22.689,bars,2023.2.3,Win32,59.88023952,657b66ea316d21385b68909f,,,,,,,,,,,815.4046,816.399,,,816.8947,817.1444,,40,220,,,,,,,,,,,,,,,,bars/028.png,bars/mask004.png,,,,,,,,,,,,1,1,,,,,,,0,0,1,1,,,,,,,,,,,816.399,816.8947,817.1445,820.4582,space,3.3019,,820.4583,5,80,821.4568,821.457,826.8897,space,5.4122,,0,26,26,26,1,45,120,,,,,,,,
,,64971e71ba666687996c6072,65af56a0cf3d8856f5c0ca75,2024-01-23_07h03.22.689,bars,2023.2.3,Win32,59.88023952,657b66ea316d21385b68909f,,,,,,,,,,,826.8971,827.8856,,,828.3839,828.6335,,34,34,,,,,,,,,,,,,,,,bars/028.png,bars/mask009.png,,,,,,,,,,,,1,1,,,,,,,0,0,1,0,,,,,,,,,,,827.8857,828.3839,828.6336,832.763,space,4.1159,,832.7631,11,86,833.7622,833.7622,837.8449,space,4.0627,,0,27,27,27,1,45,120,,,,,,,,
,,64971e71ba666687996c6072,65af56a0cf3d8856f5c0ca75,2024-01-23_07h03.22.689,bars,2023.2.3,Win32,59.88023952,657b66ea316d21385b68909f,,,,,,,,,,,837.8523,838.8449,,,839.3442,839.5937,,151,151,,,,,,,,,,,,,,,,bars/016.png,bars/mask001.png,,,,,,,,,,,,0,2,,,,,,,0,0,0,0,,,,,,,,,,,838.8449,839.3441,839.5937,842.9038,space,3.2941,,842.9038,69,14,843.9025,843.9026,848.2685,space,4.3456,,0,28,28,28,1,40,165,,,,,,,,
,,64971e71ba666687996c6072,65af56a0cf3d8856f5c0ca75,2024-01-23_07h03.22.689,bars,2023.2.3,Win32,59.88023952,657b66ea316d21385b68909f,,,,,,,,,,,848.2783,849.2809,,,849.7808,850.0301,,13,13,,,,,,,,,,,,,,,,bars/032.png,bars/mask001.png,,,,,,,,,,,,2,2,,,,,,,0,2,0,2,,,,,,,,,,,849.2811,849.7808,850.0302,853.9936,space,3.9314,,853.9936,68,7,854.9958,854.9958,859.0387,space,4.02,,0,29,29,29,1,125,20,,,,,,,,
,,64971e71ba666687996c6072,65af56a0cf3d8856f5c0ca75,2024-01-23_07h03.22.689,bars,2023.2.3,Win32,59.88023952,657b66ea316d21385b68909f,,,,,,,,,,,859.0457,860.0375,,,860.5371,860.7871,,125,125,,,,,,,,,,,,,,,,bars/043.png,bars/mask005.png,,,,,,,,,,,,3,2,,,,,,,2,4,3,3,,,,,,,,,,,860.0375,860.5371,860.7871,862.4358,space,1.618,,862.4358,85,5,863.4347,863.4347,866.7689,space,3.3145,,0,30,30,30,1,30,130,,,,,,,,
,,64971e71ba666687996c6072,65af56a0cf3d8856f5c0ca75,2024-01-23_07h03.22.689,bars,2023.2.3,Win32,59.88023952,657b66ea316d21385b68909f,,,,,,,,,,,866.776,867.7806,,,868.2801,868.5335,,22,202,,,,,,,,,,,,,,,,bars/012.png,bars/mask002.png,,,,,,,,,,,,2,2,,,,,,,4,2,4,2,,,,,,,,,,,867.7806,868.28,868.5335,871.4939,space,2.9485,,871.4939,68,7,872.4966,872.4966,874.7941,space,2.281,,0,31,31,31,1,90,15,,,,,,,,
,,64971e71ba666687996c6072,65af56a0cf3d8856f5c0ca75,2024-01-23_07h03.22.689,bars,2023.2.3,Win32,59.88023952,657b66ea316d21385b68909f,,,,,,,,,,,874.7943,875.7892,,,876.2896,876.539,,36,36,,,,,,,,,,,,,,,,bars/031.png,bars/mask001.png,,,,,,,,,,,,4,2,,,,,,,6,4,6,4,,,,,,,,,,,875.7893,876.2891,876.5391,878.5914,space,2.0323,,878.5914,84,1,879.5859,879.5862,882.6669,space,3.053,,0,32,32,32,1,120,35,,,,,,,,
,,64971e71ba666687996c6072,65af56a0cf3d8856f5c0ca75,2024-01-23_07h03.22.689,bars,2023.2.3,Win32,59.88023952,657b66ea316d21385b68909f,,,,,,,,,,,882.6671,883.6656,,,884.1655,884.4148,,83,83,,,,,,,,,,,,,,,,bars/002.png,bars/mask004.png,,,,,,,,,,,,5,2,,,,,,,8,6,7,5,,,,,,,,,,,883.6657,884.165,884.4149,886.9672,space,2.5322,,886.9672,47,2,887.9653,887.9653,889.3938,space,1.4098,,0,33,33,33,1,130,85,,,,,,,,
,,64971e71ba666687996c6072,65af56a0cf3d8856f5c0ca75,2024-01-23_07h03.22.689,bars,2023.2.3,Win32,59.88023952,657b66ea316d21385b68909f,,,,,,,,,,,889.3941,890.3924,,,890.896,891.1418,,21,21,,,,,,,,,,,,,,,,bars/029.png,bars/mask002.png,,,,,,,,,,,,1,2,,,,,,,6,4,6,5,,,,,,,,,,,890.3926,890.896,891.142,892.857,space,1.7052,,892.857,69,24,893.8557,893.8559,896.3872,space,2.5031,,0,34,34,34,1,90,45,,,,,,,,
,,64971e71ba666687996c6072,65af56a0cf3d8856f5c0ca75,2024-01-23_07h03.22.689,bars,2023.2.3,Win32,59.88023952,657b66ea316d21385b68909f,,,,,,,,,,,896.3874,897.3863,,,897.8859,898.1357,,57,57,,,,,,,,,,,,,,,,bars/007.png,bars/mask006.png,,,,,,,,,,,,3,2,,,,,,,8,2,7,3,,,,,,,,,,,897.3863,897.8859,898.1358,901.8322,space,3.6659,,901.8322,62,2,902.8311,902.8311,904.0012,space,1.1501,,0,35,35,35,1,175,55,,,,,,,,
,,64971e71ba666687996c6072,65af56a0cf3d8856f5c0ca75,2024-01-23_07h03.22.689,bars,2023.2.3,Win32,59.88023952,657b66ea316d21385b68909f,,,,,,,,,,,904.0015,904.9958,,,905.4957,905.745,,127,127,,,,,,,,,,,,,,,,bars/005.png,bars/mask007.png,,,,,,,,,,,,0,2,,,,,,,6,0,7,0,,,,,,,,,,,904.9958,905.4951,905.745,908.0263,space,2.2654,,908.0264,63,13,909.0251,909.0251,911.7395,space,2.6823,,0,36,36,36,1,10,140,,,,,,,,
,,64971e71ba666687996c6072,65af56a0cf3d8856f5c0ca75,2024-01-23_07h03.22.689,bars,2023.2.3,Win32,59.88023952,657b66ea316d21385b68909f,,,,,,,,,,,911.7496,912.7386,,,913.2381,913.4878,,31,31,,,,,,,,,,,,,,,,bars/029.png,bars/mask009.png,,,,,,,,,,,,1,2,,,,,,,4,2,3,1,,,,,,,,,,,912.7387,913.2381,913.4878,915.8397,space,2.3477,,915.8397,59,14,916.8344,916.8346,918.7496,space,1.8923,,0,37,37,37,1,90,45,,,,,,,,
,,64971e71ba666687996c6072,65af56a0cf3d8856f5c0ca75,2024-01-23_07h03.22.689,bars,2023.2.3,Win32,59.88023952,657b66ea316d21385b68909f,,,,,,,,,,,918.7499,919.7513,,,920.248,920.4978,,170,170,,,,,,,,,,,,,,,,bars/024.png,bars/mask008.png,,,,,,,,,,,,4,2,,,,,,,2,4,1,4,,,,,,,,,,,919.7513,920.248,920.4979,921.9969,space,1.468,,921.9969,50,0,922.9952,922.9954,925.3435,space,2.3193,,0,38,38,38,1,120,170,,,,,,,,
,,64971e71ba666687996c6072,65af56a0cf3d8856f5c0ca75,2024-01-23_07h03.22.689,bars,2023.2.3,Win32,59.88023952,657b66ea316d21385b68909f,,,,,,,,,,,925.3438,926.3419,,,926.8418,927.0916,,179,-1,,,,,,,,,,,,,,,,bars/020.png,bars/mask003.png,,,,,,,,,,,,4,2,,,,,,,4,6,4,6,,,,,,,,,,,926.342,926.8417,927.0917,929.4269,space,2.3153,,929.427,64,9,930.4262,930.4263,933.2861,space,2.834,,0,39,39,39,1,115,170,,,,,,,,
,,64971e71ba666687996c6072,65af56a0cf3d8856f5c0ca75,2024-01-23_07h03.22.689,bars,2023.2.3,Win32,59.88023952,657b66ea316d21385b68909f,,,,,,,,,,,933.2864,934.2846,,,934.7875,935.0342,,1,1,,,,,,,,,,,,,,,,bars/043.png,bars/mask003.png,,,,,,,,,,,,0,1,,,,,,,2,4,2,2,,,,,,,,,,,934.2846,934.7875,935.0343,938.964,space,3.9075,,938.9642,29,51,939.9628,939.9629,941.2164,space,1.2327,,0,40,40,40,1,30,130,,,,,,,,
,,64971e71ba666687996c6072,65af56a0cf3d8856f5c0ca75,2024-01-23_07h03.22.689,bars,2023.2.3,Win32,59.88023952,657b66ea316d21385b68909f,,,,,,,,,,,941.2167,942.2148,,,942.7141,942.9604,,169,169,,,,,,,,,,,,,,,,bars/016.png,bars/mask003.png,,,,,,,,,,,,2,2,,,,,,,4,2,7,2,,,,,,,,,,,942.2148,942.7141,942.9604,944.5091,space,1.5323,,944.5092,51,4,945.5114,945.5114,947.1565,space,1.6267,,0,41,41,41,1,40,165,,,,,,,,
,,64971e71ba666687996c6072,65af56a0cf3d8856f5c0ca75,2024-01-23_07h03.22.689,bars,2023.2.3,Win32,59.88023952,657b66ea316d21385b68909f,,,,,,,,,,,947.1568,948.1555,,,948.6548,948.9047,,121,-59,,,,,,,,,,,,,,,,bars/028.png,bars/mask000.png,,,,,,,,,,,,5,2,,,,,,,6,4,7,5,,,,,,,,,,,948.1555,948.6547,948.9048,953.7004,space,4.7796,,953.7005,76,1,954.6992,954.6992,956.3313,space,1.6114,,0,42,42,42,1,45,120,,,,,,,,
,,64971e71ba666687996c6072,65af56a0cf3d8856f5c0ca75,2024-01-23_07h03.22.689,bars,2023.2.3,Win32,59.88023952,657b66ea316d21385b68909f,,,,,,,,,,,956.3316,957.3301,,,957.8297,958.0808,,30,210,,,,,,,,,,,,,,,,bars/022.png,bars/mask008.png,,,,,,,,,,,,2,2,,,,,,,4,2,4,3,,,,,,,,,,,957.3301,957.8297,958.0808,961.2933,space,3.1965,,961.2934,65,10,962.2923,962.2924,963.0584,space,0.7461,,0,43,43,43,1,95,20,,,,,,,,
,,64971e71ba666687996c6072,65af56a0cf3d8856f5c0ca75,2024-01-23_07h03.22.689,bars,2023.2.3,Win32,59.88023952,657b66ea316d21385b68909f,,,,,,,,,,,963.0586,964.0572,,,964.5565,964.8065,,120,-60,,,,,,,,,,,,,,,,bars/023.png,bars/mask003.png,,,,,,,,,,,,1,2,,,,,,,6,0,5,1,,,,,,,,,,,964.0572,964.5564,964.8065,969.6566,space,4.8297,,969.6566,80,5,970.6538,970.6539,971.8335,space,1.1532,,0,44,44,44,1,20,115,,,,,,,,
,,64971e71ba666687996c6072,65af56a0cf3d8856f5c0ca75,2024-01-23_07h03.22.689,bars,2023.2.3,Win32,59.88023952,657b66ea316d21385b68909f,,,,,,,,,,,971.8337,972.8324,,,973.3356,973.5816,,123,123,,,,,,,,,,,,,,,,bars/037.png,bars/mask000.png,,,,,,,,,,,,0,2,,,,,,,4,0,3,0,,,,,,,,,,,972.8325,973.3355,973.5817,978.4649,space,4.8788,,978.4649,27,18,979.4595,979.4595,980.6252,space,1.1435,,0,45,45,45,1,150,105,,,,,,,,
,,64971e71ba666687996c6072,65af56a0cf3d8856f5c0ca75,2024-01-23_07h03.22.689,bars,2023.2.3,Win32,59.88023952,657b66ea316d21385b68909f,,,,,,,,,,,980.6255,981.6277,,,982.1238,982.3771,,140,140,,,,,,,,,,,,,,,,bars/005.png,bars/mask003.png,,,,,,,,,,,,1,2,,,,,,,6,2,6,1,,,,,,,,,,,981.6277,982.1238,982.3771,985.6576,space,3.2762,,985.6576,50,0,986.6528,986.6528,987.8684,space,1.1905,,0,46,46,46,1,10,140,,,,,,,,
,,64971e71ba666687996c6072,65af56a0cf3d8856f5c0ca75,2024-01-23_07h03.22.689,bars,2023.2.3,Win32,59.88023952,657b66ea316d21385b68909f,,,,,,,,,,,987.8686,988.8674,,,989.3671,989.6164,,129,129,,,,,,,,,,,,,,,,bars/004.png,bars/mask006.png,,,,,,,,,,,,4,2,,,,,,,4,4,3,5,,,,,,,,,,,988.8674,989.367,989.6165,992.9804,space,3.348,,992.9804,76,4,993.9794,993.9795,997.0101,space,2.9985,,0,47,47,47,1,25,125,,,,,,,,
,,64971e71ba666687996c6072,65af56a0cf3d8856f5c0ca75,2024-01-23_07h03.22.689,bars,2023.2.3,Win32,59.88023952,657b66ea316d21385b68909f,,,,,,,,,,,997.0104,998.0123,,,998.508,998.7578,,36,216,,,,,,,,,,,,,,,,bars/022.png,bars/mask009.png,,,,,,,,,,,,1,2,,,,,,,2,2,2,3,,,,,,,,,,,998.0123,998.5079,998.7579,1002.2054,space,3.4171,,1002.2054,59,16,1003.204,1003.2041,1004.4032,space,1.1758,,0,48,48,48,1,95,20,,,,,,,,
,,64971e71ba666687996c6072,65af56a0cf3d8856f5c0ca75,2024-01-23_07h03.22.689,bars,2023.2.3,Win32,59.88023952,657b66ea316d21385b68909f,,,,,,,,,,,1004.4034,1005.4054,,,1005.905,1006.1551,,109,109,,,,,,,,,,,,,,,,bars/019.png,bars/mask007.png,,,,,,,,,,,,0,2,,,,,,,0,0,0,0,,,,,,,,,,,1005.4054,1005.905,1006.1551,1007.7542,space,1.5947,,1007.7542,64,4,1008.7489,1008.7489,1013.6444,space,4.8728,,0,49,49,49,1,45,105,,,,,,,,
,,64971e71ba666687996c6072,65af56a0cf3d8856f5c0ca75,2024-01-23_07h03.22.689,bars,2023.2.3,Win32,59.88023952,657b66ea316d21385b68909f,,,,,,,,,,,,,,,,,,,,,,,,,,,,,,,,,,,,,,,,,,,,,,,,,,,,,,,,,,,,,,,,,,,,,,,,,,,,,,,,,,,,,,,,,,,,,1013.6534,1073.6553,0,0,0,4,1,sequence_tables/blk014.csv
,,64971e71ba666687996c6072,65af56a0cf3d8856f5c0ca75,2024-01-23_07h03.22.689,bars,2023.2.3,Win32,59.88023952,657b66ea316d21385b68909f,,,,,,,,,,,1077.7677,1078.767,,,1079.2664,1079.5156,,133,133,,,,,,,,,,,,,,,,bars/018.png,bars/mask005.png,,,,,,,,,,,,4,1,,,,,,,9,7,10,7,,,,,,1073.6645,1077.7556,space,4.0804,,1078.767,1079.2663,1079.5157,1082.6127,space,3.0908,,1082.6129,17,43,1083.6119,1083.6121,1083.6209,,,,0,0,0,0,1,150,90,,,,,,,,
,,64971e71ba666687996c6072,65af56a0cf3d8856f5c0ca75,2024-01-23_07h03.22.689,bars,2023.2.3,Win32,59.88023952,657b66ea316d21385b68909f,,,,,,,,,,,1083.6212,1084.6147,,,1085.1104,1085.3599,,152,152,,,,,,,,,,,,,,,,bars/038.png,bars/mask001.png,,,,,,,,,,,,4,1,,,,,,,7,5,7,4,,,,,,,,,,,1084.6148,1085.1102,1085.3599,1087.5458,space,2.1814,,1087.5459,13,82,1088.54,1088.54,1088.5477,,,,0,1,1,1,1,165,70,,,,,,,,
,,64971e71ba666687996c6072,65af56a0cf3d8856f5c0ca75,2024-01-23_07h03.22.689,bars,2023.2.3,Win32,59.88023952,657b66ea316d21385b68909f,,,,,,,,,,,1088.5479,1089.5393,,,1090.0393,1090.2889,,132,-48,,,,,,,,,,,,,,,,bars/002.png,bars/mask001.png,,,,,,,,,,,,3,1,,,,,,,5,7,3,7,,,,,,,,,,,1089.5393,1090.0391,1090.2891,1093.6854,space,3.3691,,1093.6854,2,47,1094.6844,1094.6845,1094.6938,,,,0,2,2,2,1,130,85,,,,,,,,
,,64971e71ba666687996c6072,65af56a0cf3d8856f5c0ca75,2024-01-23_07h03.22.689,bars,2023.2.3,Win32,59.88023952,657b66ea316d21385b68909f,,,,,,,,,,,1094.6941,1095.6836,,,1096.1834,1096.4332,,171,-9,,,,,,,,,,,,,,,,bars/046.png,bars/mask004.png,,,,,,,,,,,,3,1,,,,,,,7,5,6,6,,,,,,,,,,,1095.6836,1096.1833,1096.4333,1098.7308,space,2.288,,1098.731,16,86,1099.734,1099.734,1099.7344,,,,0,3,3,3,1,155,85,,,,,,,,
,,64971e71ba666687996c6072,65af56a0cf3d8856f5c0ca75,2024-01-23_07h03.22.689,bars,2023.2.3,Win32,59.88023952,657b66ea316d21385b68909f,,,,,,,,,,,1099.7346,1100.7314,,,1101.2317,1101.4784,,173,-7,,,,,,,,,,,,,,,,bars/033.png,bars/mask009.png,,,,,,,,,,,,3,2,,,,,,,9,7,9,7,,,,,,,,,,,1100.7314,1101.2316,1101.4786,1103.2602,space,1.7546,,1103.2604,32,18,1104.2588,1104.2589,1104.2676,,,,0,4,4,4,1,25,155,,,,,,,,
,,64971e71ba666687996c6072,65af56a0cf3d8856f5c0ca75,2024-01-23_07h03.22.689,bars,2023.2.3,Win32,59.88023952,657b66ea316d21385b68909f,,,,,,,,,,,1104.2678,1105.258,,,1105.7575,1106.0074,,159,159,,,,,,,,,,,,,,,,bars/007.png,bars/mask002.png,,,,,,,,,,,,3,1,,,,,,,7,5,6,5,,,,,,,,,,,1105.2581,1105.7575,1106.0075,1108.5718,space,2.5416,,1108.5719,16,76,1109.5721,1109.5722,1109.5804,,,,0,5,5,5,1,175,55,,,,,,,,
,,64971e71ba666687996c6072,65af56a0cf3d8856f5c0ca75,2024-01-23_07h03.22.689,bars,2023.2.3,Win32,59.88023952,657b66ea316d21385b68909f,,,,,,,,,,,1109.5806,1110.5703,,,1111.0691,1111.3205,,130,130,,,,,,,,,,,,,,,,bars/018.png,bars/mask008.png,,,,,,,,,,,,2,1,,,,,,,5,3,5,3,,,,,,,,,,,1110.5705,1111.069,1111.3205,1114.0168,space,2.675,,1114.0169,20,40,1115.0155,1115.0158,1115.023,,,,0,6,6,6,1,150,90,,,,,,,,
,,64971e71ba666687996c6072,65af56a0cf3d8856f5c0ca75,2024-01-23_07h03.22.689,bars,2023.2.3,Win32,59.88023952,657b66ea316d21385b68909f,,,,,,,,,,,1115.0232,1116.0145,,,1116.5181,1116.7639,,144,144,,,,,,,,,,,,,,,,bars/042.png,bars/mask006.png,,,,,,,,,,,,7,1,,,,,,,7,1,7,2,,,,,,,,,,,1116.0145,1116.5181,1116.7639,1119.3617,space,2.5709,,1119.3618,1,69,1120.3608,1120.3609,1120.3686,,,,0,7,7,7,1,145,75,,,,,,,,
,,64971e71ba666687996c6072,65af56a0cf3d8856f5c0ca75,2024-01-23_07h03.22.689,bars,2023.2.3,Win32,59.88023952,657b66ea316d21385b68909f,,,,,,,,,,,1120.3688,1121.3637,,,1121.8598,1122.1134,,64,64,,,,,,,,,,,,,,,,bars/013.png,bars/mask000.png,,,,,,,,,,,,6,1,,,,,,,9,3,9,3,,,,,,,,,,,1121.3637,1121.8597,1122.1134,1124.6101,space,2.4927,,1124.6101,11,54,1125.6057,1125.6059,1125.6069,,,,0,8,8,8,1,75,10,,,,,,,,
,,64971e71ba666687996c6072,65af56a0cf3d8856f5c0ca75,2024-01-23_07h03.22.689,bars,2023.2.3,Win32,59.88023952,657b66ea316d21385b68909f,,,,,,,,,,,1125.6072,1126.6052,,,1127.105,1127.3542,,122,122,,,,,,,,,,,,,,,,bars/040.png,bars/mask007.png,,,,,,,,,,,,4,1,,,,,,,10,5,10,8,,,,,,,,,,,1126.6053,1127.1048,1127.3543,1128.3202,space,0.933,,1128.3203,18,63,1129.3187,1129.3187,1129.3202,,,,0,9,9,9,1,140,5,,,,,,,,
,,64971e71ba666687996c6072,65af56a0cf3d8856f5c0ca75,2024-01-23_07h03.22.689,bars,2023.2.3,Win32,59.88023952,657b66ea316d21385b68909f,,,,,,,,,,,1129.3204,1130.3178,,,1130.8181,1131.0678,,4,4,,,,,,,,,,,,,,,,bars/035.png,bars/mask000.png,,,,,,,,,,,,5,1,,,,,,,8,7,7,5,,,,,,,,,,,1130.3178,1130.818,1131.0679,1133.0364,space,1.949,,1133.0365,9,56,1134.031,1134.031,1134.0387,,,,0,10,10,10,1,175,60,,,,,,,,
,,64971e71ba666687996c6072,65af56a0cf3d8856f5c0ca75,2024-01-23_07h03.22.689,bars,2023.2.3,Win32,59.88023952,657b66ea316d21385b68909f,,,,,,,,,,,1134.0389,1135.0302,,,1135.5305,1135.7794,,158,-22,,,,,,,,,,,,,,,,bars/039.png,bars/mask002.png,,,,,,,,,,,,4,1,,,,,,,10,5,10,5,,,,,,,,,,,1135.0303,1135.5304,1135.7795,1139.2761,space,3.4889,,1139.2761,17,53,1140.2759,1140.276,1140.2833,,,,0,11,11,11,1,175,105,,,,,,,,
,,64971e71ba666687996c6072,65af56a0cf3d8856f5c0ca75,2024-01-23_07h03.22.689,bars,2023.2.3,Win32,59.88023952,657b66ea316d21385b68909f,,,,,,,,,,,1140.2835,1141.2743,,,1141.7738,1142.0237,,27,207,,,,,,,,,,,,,,,,bars/016.png,bars/mask006.png,,,,,,,,,,,,5,1,,,,,,,10,3,8,2,,,,,,,,,,,1141.2743,1141.7738,1142.0238,1146.3547,space,4.3106,,1146.3547,13,42,1147.352,1147.3521,1147.36,,,,0,12,12,12,1,40,165,,,,,,,,
,,64971e71ba666687996c6072,65af56a0cf3d8856f5c0ca75,2024-01-23_07h03.22.689,bars,2023.2.3,Win32,59.88023952,657b66ea316d21385b68909f,,,,,,,,,,,1147.3602,1148.351,,,1148.8506,1149.1008,,38,218,,,,,,,,,,,,,,,,bars/043.png,bars/mask000.png,,,,,,,,,,,,5,1,,,,,,,8,5,7,5,,,,,,,,,,,1148.3511,1148.8505,1149.101,1153.2011,space,4.0802,,1153.2011,8,88,1154.1958,1154.1959,1154.2045,,,,0,13,13,13,1,30,130,,,,,,,,
,,64971e71ba666687996c6072,65af56a0cf3d8856f5c0ca75,2024-01-23_07h03.22.689,bars,2023.2.3,Win32,59.88023952,657b66ea316d21385b68909f,,,,,,,,,,,1154.2047,1155.195,,,1155.6945,1155.944,,170,170,,,,,,,,,,,,,,,,bars/035.png,bars/mask006.png,,,,,,,,,,,,8,1,,,,,,,10,7,9,6,,,,,,,,,,,1155.1952,1155.6943,1155.9442,1158.3132,space,2.3487,,1158.3132,5,70,1159.3073,1159.3074,1159.3148,,,,0,14,14,14,1,175,60,,,,,,,,
,,64971e71ba666687996c6072,65af56a0cf3d8856f5c0ca75,2024-01-23_07h03.22.689,bars,2023.2.3,Win32,59.88023952,657b66ea316d21385b68909f,,,,,,,,,,,1159.3149,1160.3065,,,1160.8061,1161.0568,,22,22,,,,,,,,,,,,,,,,bars/016.png,bars/mask000.png,,,,,,,,,,,,4,1,,,,,,,8,9,9,10,,,,,,,,,,,1160.3066,1160.806,1161.0569,1162.9418,space,1.8652,,1162.9419,18,37,1163.9362,1163.9363,1163.9374,,,,0,15,15,15,1,40,165,,,,,,,,
,,64971e71ba666687996c6072,65af56a0cf3d8856f5c0ca75,2024-01-23_07h03.22.689,bars,2023.2.3,Win32,59.88023952,657b66ea316d21385b68909f,,,,,,,,,,,1163.9376,1164.9387,,,1165.4391,1165.6849,,128,128,,,,,,,,,,,,,,,,bars/002.png,bars/mask004.png,,,,,,,,,,,,6,1,,,,,,,6,10,6,10,,,,,,,,,,,1164.9387,1165.4391,1165.6849,1167.467,space,1.7536,,1167.4671,2,43,1168.4684,1168.4684,1168.4756,,,,0,16,16,16,1,130,85,,,,,,,,
,,64971e71ba666687996c6072,65af56a0cf3d8856f5c0ca75,2024-01-23_07h03.22.689,bars,2023.2.3,Win32,59.88023952,657b66ea316d21385b68909f,,,,,,,,,,,1168.4757,1169.469,,,1169.9641,1170.214,,101,101,,,,,,,,,,,,,,,,bars/022.png,bars/mask000.png,,,,,,,,,,,,6,1,,,,,,,8,10,8,8,,,,,,,,,,,1169.469,1169.9641,1170.2141,1173.3445,space,3.1019,,1173.3447,6,81,1174.3434,1174.3434,1174.3516,,,,0,17,17,17,1,95,20,,,,,,,,
,,64971e71ba666687996c6072,65af56a0cf3d8856f5c0ca75,2024-01-23_07h03.22.689,bars,2023.2.3,Win32,59.88023952,657b66ea316d21385b68909f,,,,,,,,,,,1174.3518,1175.3424,,,1175.8462,1176.0958,,62,62,,,,,,,,,,,,,,,,bars/044.png,bars/mask006.png,,,,,,,,,,,,6,1,,,,,,,10,10,10,10,,,,,,,,,,,1175.3425,1175.8461,1176.0958,1178.4401,space,2.3374,,1178.4403,13,87,1179.4386,1179.4387,1179.4469,,,,0,18,18,18,1,75,155,,,,,,,,
,,64971e71ba666687996c6072,65af56a0cf3d8856f5c0ca75,2024-01-23_07h03.22.689,bars,2023.2.3,Win32,59.88023952,657b66ea316d21385b68909f,,,,,,,,,,,1179.4471,1180.4376,,,1180.9405,1181.1871,,153,153,,,,,,,,,,,,,,,,bars/042.png,bars/mask002.png,,,,,,,,,,,,6,1,,,,,,,8,10,8,10,,,,,,,,,,,1180.4376,1180.9405,1181.1871,1182.6735,space,1.4659,,1182.6735,8,78,1183.6681,1183.6682,1183.6693,,,,0,19,19,19,1,145,75,,,,,,,,
,,64971e71ba666687996c6072,65af56a0cf3d8856f5c0ca75,2024-01-23_07h03.22.689,bars,2023.2.3,Win32,59.88023952,657b66ea316d21385b68909f,,,,,,,,,,,1183.6695,1184.6708,,,1185.1668,1185.4208,,123,123,,,,,,,,,,,,,,,,bars/008.png,bars/mask008.png,,,,,,,,,,,,3,1,,,,,,,6,10,6,10,,,,,,,,,,,1184.6709,1185.1667,1185.4208,1187.2646,space,1.8242,,1187.2647,13,57,1188.2638,1188.2638,1188.2718,,,,0,20,20,20,1,110,0,,,,,,,,
,,64971e71ba666687996c6072,65af56a0cf3d8856f5c0ca75,2024-01-23_07h03.22.689,bars,2023.2.3,Win32,59.88023952,657b66ea316d21385b68909f,,,,,,,,,,,1188.272,1189.2627,,,1189.7639,1190.0121,,19,19,,,,,,,,,,,,,,,,bars/023.png,bars/mask003.png,,,,,,,,,,,,10,1,,,,,,,8,10,10,10,,,,,,,,,,,1189.2628,1189.7639,1190.0122,1192.161,space,2.1196,,1192.161,1,84,1193.1591,1193.1592,1193.167,,,,0,21,21,21,1,20,115,,,,,,,,
,,64971e71ba666687996c6072,65af56a0cf3d8856f5c0ca75,2024-01-23_07h03.22.689,bars,2023.2.3,Win32,59.88023952,657b66ea316d21385b68909f,,,,,,,,,,,1193.1671,1194.1623,,,1194.6612,1194.9073,,131,131,,,,,,,,,,,,,,,,bars/036.png,bars/mask000.png,,,,,,,,,,,,4,1,,,,,,,6,8,8,8,,,,,,,,,,,1194.1623,1194.6612,1194.9074,1197.3723,space,2.4368,,1197.3725,14,69,1198.3709,1198.3709,1198.3788,,,,0,22,22,22,1,145,20,,,,,,,,
,,64971e71ba666687996c6072,65af56a0cf3d8856f5c0ca75,2024-01-23_07h03.22.689,bars,2023.2.3,Win32,59.88023952,657b66ea316d21385b68909f,,,,,,,,,,,1198.3789,1199.3739,,,1199.8738,1200.1193,,53,53,,,,,,,,,,,,,,,,bars/044.png,bars/mask002.png,,,,,,,,,,,,2,1,,,,,,,8,10,7,9,,,,,,,,,,,1199.374,1199.8737,1200.1194,1201.1901,space,1.0502,,1201.1902,22,78,1202.184,1202.184,1202.1852,,,,0,23,23,23,1,75,155,,,,,,,,
,,64971e71ba666687996c6072,65af56a0cf3d8856f5c0ca75,2024-01-23_07h03.22.689,bars,2023.2.3,Win32,59.88023952,657b66ea316d21385b68909f,,,,,,,,,,,1202.1853,1203.1831,,,1203.6827,1203.9326,,142,142,,,,,,,,,,,,,,,,bars/017.png,bars/mask008.png,,,,,,,,,,,,6,1,,,,,,,6,10,7,10,,,,,,,,,,,1203.1832,1203.6826,1203.9328,1207.1295,space,3.1695,,1207.1295,3,83,1208.1286,1208.1287,1208.1364,,,,0,24,24,24,1,145,45,,,,,,,,
,,64971e71ba666687996c6072,65af56a0cf3d8856f5c0ca75,2024-01-23_07h03.22.689,bars,2023.2.3,Win32,59.88023952,657b66ea316d21385b68909f,,,,,,,,,,,1208.1366,1209.1274,,,1209.6313,1209.8805,,136,136,,,,,,,,,,,,,,,,bars/032.png,bars/mask009.png,,,,,,,,,,,,3,1,,,,,,,4,8,4,8,,,,,,,,,,,1209.1274,1209.6312,1209.8805,1211.8128,space,1.9152,,1211.8128,11,64,1212.8115,1212.8115,1212.8185,,,,0,25,25,25,1,125,20,,,,,,,,
,,64971e71ba666687996c6072,65af56a0cf3d8856f5c0ca75,2024-01-23_07h03.22.689,bars,2023.2.3,Win32,59.88023952,657b66ea316d21385b68909f,,,,,,,,,,,1212.8187,1213.8069,,,1214.3059,1214.5603,,136,136,,,,,,,,,,,,,,,,bars/040.png,bars/mask004.png,,,,,,,,,,,,3,1,,,,,,,2,10,3,10,,,,,,,,,,,1213.8069,1214.3059,1214.5604,1217.22,space,2.6418,,1217.2202,4,49,1218.2191,1218.2192,1218.2267,,,,0,26,26,26,1,140,5,,,,,,,,
,,64971e71ba666687996c6072,65af56a0cf3d8856f5c0ca75,2024-01-23_07h03.22.689,bars,2023.2.3,Win32,59.88023952,657b66ea316d21385b68909f,,,,,,,,,,,1218.2269,1219.2181,,,1219.7179,1219.9708,,162,162,,,,,,,,,,,,,,,,bars/018.png,bars/mask007.png,,,,,,,,,,,,0,1,,,,,,,0,8,0,9,,,,,,,,,,,1219.2182,1219.7178,1219.9708,1223.1355,space,3.1477,,1223.1356,12,72,1224.1302,1224.1302,1224.139,,,,0,27,27,27,1,150,90,,,,,,,,
,,64971e71ba666687996c6072,65af56a0cf3d8856f5c0ca75,2024-01-23_07h03.22.689,bars,2023.2.3,Win32,59.88023952,657b66ea316d21385b68909f,,,,,,,,,,,1224.1392,1225.1294,,,1225.6287,1225.8667,,7,187,,,,,,,,,,,,,,,,bars/007.png,bars/mask008.png,,,,,,,,,,,,0,1,,,,,,,0,10,0,10,,,,,,,,,,,1225.1294,1225.6287,1225.8667,1229.4589,space,3.5686,,1229.4591,12,48,1230.4577,1230.4577,1230.4659,,,,0,28,28,28,1,175,55,,,,,,,,
,,64971e71ba666687996c6072,65af56a0cf3d8856f5c0ca75,2024-01-23_07h03.22.689,bars,2023.2.3,Win32,59.88023952,657b66ea316d21385b68909f,,,,,,,,,,,1230.466,1231.4567,,,1231.9566,1232.2103,,121,-59,,,,,,,,,,,,,,,,bars/049.png,bars/mask009.png,,,,,,,,,,,,7,2,,,,,,,2,10,2,9,,,,,,,,,,,1231.4568,1231.9565,1232.2103,1237.4221,space,5.1955,,1237.4221,39,6,1238.4174,1238.4174,1238.4254,,,,0,29,29,29,1,160,115,,,,,,,,
,,64971e71ba666687996c6072,65af56a0cf3d8856f5c0ca75,2024-01-23_07h03.22.689,bars,2023.2.3,Win32,59.88023952,657b66ea316d21385b68909f,,,,,,,,,,,1238.4255,1239.4158,,,1239.916,1240.1662,,155,-25,,,,,,,,,,,,,,,,bars/033.png,bars/mask005.png,,,,,,,,,,,,8,2,,,,,,,0,8,0,8,,,,,,,,,,,1239.4158,1239.9159,1240.1663,1242.5669,space,2.3809,,1242.5669,50,0,1243.5623,1243.5624,1243.5702,,,,0,30,30,30,1,25,155,,,,,,,,
,,64971e71ba666687996c6072,65af56a0cf3d8856f5c0ca75,2024-01-23_07h03.22.689,bars,2023.2.3,Win32,59.88023952,657b66ea316d21385b68909f,,,,,,,,,,,1243.5704,1244.5641,,,1245.0646,1245.3104,,28,28,,,,,,,,,,,,,,,,bars/025.png,bars/mask004.png,,,,,,,,,,,,5,2,,,,,,,2,10,3,9,,,,,,,,,,,1244.5642,1245.0646,1245.3105,1248.4412,space,3.1093,,1248.4413,77,12,1249.4402,1249.4404,1249.4485,,,,0,31,31,31,1,105,40,,,,,,,,
,,64971e71ba666687996c6072,65af56a0cf3d8856f5c0ca75,2024-01-23_07h03.22.689,bars,2023.2.3,Win32,59.88023952,657b66ea316d21385b68909f,,,,,,,,,,,1249.4486,1250.4395,,,1250.9386,1251.1885,,115,115,,,,,,,,,,,,,,,,bars/019.png,bars/mask005.png,,,,,,,,,,,,7,2,,,,,,,4,10,3,10,,,,,,,,,,,1250.4397,1250.9386,1251.1886,1255.8551,space,4.6461,,1255.8551,70,10,1256.85,1256.8502,1256.8579,,,,0,32,32,32,1,45,105,,,,,,,,
,,64971e71ba666687996c6072,65af56a0cf3d8856f5c0ca75,2024-01-23_07h03.22.689,bars,2023.2.3,Win32,59.88023952,657b66ea316d21385b68909f,,,,,,,,,,,1256.8582,1257.8505,,,1258.3484,1258.5983,,160,-20,,,,,,,,,,,,,,,,bars/044.png,bars/mask001.png,,,,,,,,,,,,8,2,,,,,,,2,10,4,10,,,,,,,,,,,1257.8506,1258.3484,1258.5984,1262.7116,space,4.0881,,1262.7117,85,5,1263.7106,1263.7108,1263.7184,,,,0,33,33,33,1,75,155,,,,,,,,
,,64971e71ba666687996c6072,65af56a0cf3d8856f5c0ca75,2024-01-23_07h03.22.689,bars,2023.2.3,Win32,59.88023952,657b66ea316d21385b68909f,,,,,,,,,,,1263.7185,1264.713,,,1265.2088,1265.4625,,66,66,,,,,,,,,,,,,,,,bars/001.png,bars/mask008.png,,,,,,,,,,,,3,2,,,,,,,0,8,0,8,,,,,,,,,,,1264.7131,1265.2087,1265.4625,1268.4931,space,3.0141,,1268.4932,64,19,1269.4881,1269.4882,1269.4959,,,,0,34,34,34,1,130,85,,,,,,,,
,,64971e71ba666687996c6072,65af56a0cf3d8856f5c0ca75,2024-01-23_07h03.22.689,bars,2023.2.3,Win32,59.88023952,657b66ea316d21385b68909f,,,,,,,,,,,1269.496,1270.4911,,,1270.9865,1271.2245,,27,27,,,,,,,,,,,,,,,,bars/025.png,bars/mask009.png,,,,,,,,,,,,3,2,,,,,,,2,6,2,6,,,,,,,,,,,1270.4911,1270.9864,1271.2245,1272.8228,space,1.5825,,1272.8229,78,13,1273.8173,1273.8173,1273.8184,,,,0,35,35,35,1,105,40,,,,,,,,
,,64971e71ba666687996c6072,65af56a0cf3d8856f5c0ca75,2024-01-23_07h03.22.689,bars,2023.2.3,Win32,59.88023952,657b66ea316d21385b68909f,,,,,,,,,,,1273.8186,1274.816,,,1275.3159,1275.5697,,26,26,,,,,,,,,,,,,,,,bars/036.png,bars/mask006.png,,,,,,,,,,,,3,2,,,,,,,4,4,4,4,,,,,,,,,,,1274.8161,1275.3159,1275.5698,1278.2799,space,2.6902,,1278.28,61,6,1279.2793,1279.2793,1279.2873,,,,0,36,36,36,1,145,20,,,,,,,,
,,64971e71ba666687996c6072,65af56a0cf3d8856f5c0ca75,2024-01-23_07h03.22.689,bars,2023.2.3,Win32,59.88023952,657b66ea316d21385b68909f,,,,,,,,,,,1279.2874,1280.2776,,,1280.7775,1281.0314,,134,134,,,,,,,,,,,,,,,,bars/004.png,bars/mask001.png,,,,,,,,,,,,6,2,,,,,,,2,6,3,8,,,,,,,,,,,1280.2776,1280.7774,1281.0315,1283.1418,space,2.0862,,1283.142,71,9,1284.1412,1284.1413,1284.1492,,,,0,37,37,37,1,25,125,,,,,,,,
,,64971e71ba666687996c6072,65af56a0cf3d8856f5c0ca75,2024-01-23_07h03.22.689,bars,2023.2.3,Win32,59.88023952,657b66ea316d21385b68909f,,,,,,,,,,,1284.1494,1285.1401,,,1285.6393,1285.8899,,37,37,,,,,,,,,,,,,,,,bars/017.png,bars/mask008.png,,,,,,,,,,,,5,2,,,,,,,4,8,4,7,,,,,,,,,,,1285.1401,1285.6393,1285.89,1287.6381,space,1.7172,,1287.6383,72,8,1288.6366,1288.6367,1288.6379,,,,0,38,38,38,1,145,45,,,,,,,,
,,64971e71ba666687996c6072,65af56a0cf3d8856f5c0ca75,2024-01-23_07h03.22.689,bars,2023.2.3,Win32,59.88023952,657b66ea316d21385b68909f,,,,,,,,,,,1288.6381,1289.6357,,,1290.1362,1290.3881,,94,94,,,,,,,,,,,,,,,,bars/002.png,bars/mask002.png,,,,,,,,,,,,7,2,,,,,,,6,10,5,10,,,,,,,,,,,1289.6357,1290.1362,1290.3882,1291.7505,space,1.3547,,1291.7505,36,9,1292.75,1292.7501,1292.7507,,,,0,39,39,39,1,130,85,,,,,,,,
,,64971e71ba666687996c6072,65af56a0cf3d8856f5c0ca75,2024-01-23_07h03.22.689,bars,2023.2.3,Win32,59.88023952,657b66ea316d21385b68909f,,,,,,,,,,,1292.7509,1293.7485,,,1294.25,1294.4987,,105,105,,,,,,,,,,,,,,,,bars/026.png,bars/mask004.png,,,,,,,,,,,,3,2,,,,,,,8,8,6,8,,,,,,,,,,,1293.7485,1294.25,1294.4989,1295.9966,space,1.4776,,1295.9967,70,20,1296.9997,1296.9997,1297.007,,,,0,40,40,40,1,35,85,,,,,,,,
,,64971e71ba666687996c6072,65af56a0cf3d8856f5c0ca75,2024-01-23_07h03.22.689,bars,2023.2.3,Win32,59.88023952,657b66ea316d21385b68909f,,,,,,,,,,,1297.0072,1297.9978,,,1298.4944,1298.7444,,139,139,,,,,,,,,,,,,,,,bars/049.png,bars/mask008.png,,,,,,,,,,,,2,1,,,,,,,6,6,5,6,,,,,,,,,,,1297.9978,1298.4943,1298.7445,1300.3426,space,1.5672,,1300.3428,21,24,1301.3445,1301.3445,1301.3522,,,,0,41,41,41,1,160,115,,,,,,,,
,,64971e71ba666687996c6072,65af56a0cf3d8856f5c0ca75,2024-01-23_07h03.22.689,bars,2023.2.3,Win32,59.88023952,657b66ea316d21385b68909f,,,,,,,,,,,1301.3524,1302.3406,,,1302.8402,1303.0901,,37,37,,,,,,,,,,,,,,,,bars/017.png,bars/mask008.png,,,,,,,,,,,,5,2,,,,,,,4,8,6,7,,,,,,,,,,,1302.3406,1302.8401,1303.0902,1304.8929,space,1.7821,,1304.8929,72,8,1305.8872,1305.8873,1305.8958,,,,0,42,42,42,1,145,45,,,,,,,,
,,64971e71ba666687996c6072,65af56a0cf3d8856f5c0ca75,2024-01-23_07h03.22.689,bars,2023.2.3,Win32,59.88023952,657b66ea316d21385b68909f,,,,,,,,,,,1305.896,1306.8866,,,1307.386,1307.6361,,115,115,,,,,,,,,,,,,,,,bars/023.png,bars/mask001.png,,,,,,,,,,,,9,2,,,,,,,6,10,5,9,,,,,,,,,,,1306.8868,1307.386,1307.6362,1309.3718,space,1.731,,1309.3718,85,0,1310.3705,1310.3705,1310.371,,,,0,43,43,43,1,20,115,,,,,,,,
,,64971e71ba666687996c6072,65af56a0cf3d8856f5c0ca75,2024-01-23_07h03.22.689,bars,2023.2.3,Win32,59.88023952,657b66ea316d21385b68909f,,,,,,,,,,,1310.3712,1311.3664,,,1311.8665,1312.1148,,6,6,,,,,,,,,,,,,,,,bars/016.png,bars/mask007.png,,,,,,,,,,,,2,2,,,,,,,4,8,4,6,,,,,,,,,,,1311.3664,1311.8665,1312.1149,1314.5628,space,2.4158,,1314.563,34,21,1315.5654,1315.5654,1315.5727,,,,0,44,44,44,1,40,165,,,,,,,,
,,64971e71ba666687996c6072,65af56a0cf3d8856f5c0ca75,2024-01-23_07h03.22.689,bars,2023.2.3,Win32,59.88023952,657b66ea316d21385b68909f,,,,,,,,,,,1315.5728,1316.5604,,,1317.0601,1317.3101,,90,90,,,,,,,,,,,,,,,,bars/018.png,bars/mask006.png,,,,,,,,,,,,8,2,,,,,,,6,10,6,8,,,,,,,,,,,1316.5605,1317.06,1317.3102,1319.641,space,2.3002,,1319.6411,60,0,1320.6408,1320.6408,1320.6414,,,,0,45,45,45,1,150,90,,,,,,,,
,,64971e71ba666687996c6072,65af56a0cf3d8856f5c0ca75,2024-01-23_07h03.22.689,bars,2023.2.3,Win32,59.88023952,657b66ea316d21385b68909f,,,,,,,,,,,1320.6416,1321.6395,,,1322.1406,1322.3886,,178,-2,,,,,,,,,,,,,,,,bars/040.png,bars/mask008.png,,,,,,,,,,,,8,2,,,,,,,8,10,9,10,,,,,,,,,,,1321.6397,1322.1406,1322.3886,1324.2538,space,1.8423,,1324.2539,38,7,1325.2525,1325.2527,1325.2602,,,,0,46,46,46,1,140,5,,,,,,,,
,,64971e71ba666687996c6072,65af56a0cf3d8856f5c0ca75,2024-01-23_07h03.22.689,bars,2023.2.3,Win32,59.88023952,657b66ea316d21385b68909f,,,,,,,,,,,1325.2603,1326.2514,,,1326.7516,1327.0048,,113,113,,,,,,,,,,,,,,,,bars/009.png,bars/mask008.png,,,,,,,,,,,,6,2,,,,,,,10,8,10,8,,,,,,,,,,,1326.2514,1326.7515,1327.0048,1330.2354,space,3.2142,,1330.2355,82,8,1331.2311,1331.2312,1331.2384,,,,0,47,47,47,1,15,105,,,,,,,,
,,64971e71ba666687996c6072,65af56a0cf3d8856f5c0ca75,2024-01-23_07h03.22.689,bars,2023.2.3,Win32,59.88023952,657b66ea316d21385b68909f,,,,,,,,,,,1331.2385,1332.2336,,,1332.7297,1332.9785,,91,91,,,,,,,,,,,,,,,,bars/038.png,bars/mask006.png,,,,,,,,,,,,2,2,,,,,,,10,6,10,7,,,,,,,,,,,1332.2336,1332.7292,1332.9785,1336.1301,space,3.1314,,1336.1301,74,21,1337.1253,1337.1256,1337.1334,,,,0,48,48,48,1,165,70,,,,,,,,
,,64971e71ba666687996c6072,65af56a0cf3d8856f5c0ca75,2024-01-23_07h03.22.689,bars,2023.2.3,Win32,59.88023952,657b66ea316d21385b68909f,,,,,,,,,,,1337.1335,1338.1239,,,1338.6252,1338.8733,,117,117,,,,,,,,,,,,,,,,bars/041.png,bars/mask004.png,,,,,,,,,,,,0,2,,,,,,,8,8,8,7,,,,,,,,,,,1338.124,1338.6252,1338.8734,1340.7715,space,1.8686,,1340.7717,83,32,1341.7744,1341.7744,1341.7818,,,,0,49,49,49,1,20,85,,,,,,,,
,,64971e71ba666687996c6072,65af56a0cf3d8856f5c0ca75,2024-01-23_07h03.22.689,bars,2023.2.3,Win32,59.88023952,657b66ea316d21385b68909f,,,,,,,,,,,,,,,,,,,,,,,,,,,,,,,,,,,,,,,,,,,,,,,,,,,,,,,,,,,,,,,,,,,,,,,,,,,,,,,,,,,,,,,,,,,,,1341.7818,1401.7819,0,1,1,0,1,sequence_tables/blk032.csv
,,64971e71ba666687996c6072,65af56a0cf3d8856f5c0ca75,2024-01-23_07h03.22.689,bars,2023.2.3,Win32,59.88023952,657b66ea316d21385b68909f,,,,,,,,,,,1406.1388,1407.1268,,,1407.6266,1407.8799,,65,65,,,,,,,,,,,,,,,,bars/019.png,bars/mask001.png,,,,,,,,,,,,3,1,,,,,,,7,6,8,7,,,,,,1401.79,1406.128,space,4.3221,,1407.127,1407.6266,1407.88,1410.3243,space,2.4162,,1410.3243,20,40,1411.323,1411.323,1411.3315,,,,0,0,0,0,1,45,105,,,,,,,,
,,64971e71ba666687996c6072,65af56a0cf3d8856f5c0ca75,2024-01-23_07h03.22.689,bars,2023.2.3,Win32,59.88023952,657b66ea316d21385b68909f,,,,,,,,,,,1411.3318,1412.3221,,,1412.8212,1413.0712,,10,190,,,,,,,,,,,,,,,,bars/023.png,bars/mask009.png,,,,,,,,,,,,5,1,,,,,,,5,4,7,3,,,,,,,,,,,1412.3221,1412.8211,1413.0713,1414.9198,space,1.8327,,1414.9199,10,75,1415.9185,1415.9186,1415.9262,,,,0,1,1,1,1,20,115,,,,,,,,
,,64971e71ba666687996c6072,65af56a0cf3d8856f5c0ca75,2024-01-23_07h03.22.689,bars,2023.2.3,Win32,59.88023952,657b66ea316d21385b68909f,,,,,,,,,,,1415.9263,1416.9214,,,1417.4172,1417.6669,,133,133,,,,,,,,,,,,,,,,bars/021.png,bars/mask000.png,,,,,,,,,,,,1,1,,,,,,,3,2,2,2,,,,,,,,,,,1416.9215,1417.4171,1417.667,1421.9632,space,4.2684,,1421.9632,22,63,1422.9618,1422.9621,1422.9697,,,,0,2,2,2,1,155,70,,,,,,,,
,,64971e71ba666687996c6072,65af56a0cf3d8856f5c0ca75,2024-01-23_07h03.22.689,bars,2023.2.3,Win32,59.88023952,657b66ea316d21385b68909f,,,,,,,,,,,1422.9698,1423.9611,,,1424.4604,1424.7104,,73,73,,,,,,,,,,,,,,,,bars/044.png,bars/mask009.png,,,,,,,,,,,,0,1,,,,,,,1,0,0,0,,,,,,,,,,,1423.9611,1424.4603,1424.7104,1426.9417,space,2.2227,,1426.9417,2,82,1427.9407,1427.9408,1427.9486,,,,0,3,3,3,1,75,155,,,,,,,,
,,64971e71ba666687996c6072,65af56a0cf3d8856f5c0ca75,2024-01-23_07h03.22.689,bars,2023.2.3,Win32,59.88023952,657b66ea316d21385b68909f,,,,,,,,,,,1427.9488,1428.9398,,,1429.4398,1429.6893,,160,160,,,,,,,,,,,,,,,,bars/046.png,bars/mask000.png,,,,,,,,,,,,3,1,,,,,,,3,0,4,0,,,,,,,,,,,1428.9398,1429.4398,1429.6893,1430.7383,space,1.0176,,1430.7384,5,75,1431.737,1431.737,1431.7377,,,,0,4,4,4,1,155,85,,,,,,,,
,,64971e71ba666687996c6072,65af56a0cf3d8856f5c0ca75,2024-01-23_07h03.22.689,bars,2023.2.3,Win32,59.88023952,657b66ea316d21385b68909f,,,,,,,,,,,1431.7379,1432.7364,,,1433.2386,1433.4892,,159,159,,,,,,,,,,,,,,,,bars/036.png,bars/mask006.png,,,,,,,,,,,,1,1,,,,,,,1,2,2,1,,,,,,,,,,,1432.7364,1433.2386,1433.4892,1434.9342,space,1.4322,,1434.9343,14,41,1435.9333,1435.9333,1435.9409,,,,0,5,5,5,1,145,20,,,,,,,,
,,64971e71ba666687996c6072,65af56a0cf3d8856f5c0ca75,2024-01-23_07h03.22.689,bars,2023.2.3,Win32,59.88023952,657b66ea316d21385b68909f,,,,,,,,,,,1435.9411,1436.9324,,,1437.4345,1437.6813,,148,148,,,,,,,,,,,,,,,,bars/038.png,bars/mask008.png,,,,,,,,,,,,0,1,,,,,,,0,4,0,5,,,,,,,,,,,1436.9324,1437.4345,1437.6814,1439.4798,space,1.7858,,1439.48,17,78,1440.4789,1440.4791,1440.4874,,,,0,6,6,6,1,165,70,,,,,,,,
,,64971e71ba666687996c6072,65af56a0cf3d8856f5c0ca75,2024-01-23_07h03.22.689,bars,2023.2.3,Win32,59.88023952,657b66ea316d21385b68909f,,,,,,,,,,,1440.4875,1441.4817,,,1441.9776,1442.2275,,25,205,,,,,,,,,,,,,,,,bars/041.png,bars/mask006.png,,,,,,,,,,,,1,1,,,,,,,2,6,1,5,,,,,,,,,,,1441.4817,1441.9775,1442.2276,1445.9575,space,3.714,,1445.9576,5,60,1446.9561,1446.9562,1446.9638,,,,0,7,7,7,1,20,85,,,,,,,,
,,64971e71ba666687996c6072,65af56a0cf3d8856f5c0ca75,2024-01-23_07h03.22.689,bars,2023.2.3,Win32,59.88023952,657b66ea316d21385b68909f,,,,,,,,,,,1446.964,1447.9554,,,1448.4548,1448.7075,,28,208,,,,,,,,,,,,,,,,bars/041.png,bars/mask006.png,,,,,,,,,,,,2,1,,,,,,,4,4,3,2,,,,,,,,,,,1447.9555,1448.4546,1448.7075,1452.4513,space,3.7283,,1452.4513,8,57,1453.4502,1453.4503,1453.458,,,,0,8,8,8,1,20,85,,,,,,,,
,,64971e71ba666687996c6072,65af56a0cf3d8856f5c0ca75,2024-01-23_07h03.22.689,bars,2023.2.3,Win32,59.88023952,657b66ea316d21385b68909f,,,,,,,,,,,1453.4581,1454.4494,,,1454.949,1455.1987,,15,15,,,,,,,,,,,,,,,,bars/043.png,bars/mask006.png,,,,,,,,,,,,1,1,,,,,,,2,2,2,1,,,,,,,,,,,1454.4495,1454.9489,1455.1988,1456.531,space,1.3044,,1456.5311,15,65,1457.5298,1457.5298,1457.5303,,,,0,9,9,9,1,30,130,,,,,,,,
,,64971e71ba666687996c6072,65af56a0cf3d8856f5c0ca75,2024-01-23_07h03.22.689,bars,2023.2.3,Win32,59.88023952,657b66ea316d21385b68909f,,,,,,,,,,,1457.5304,1458.5283,,,1459.0283,1459.2778,,122,122,,,,,,,,,,,,,,,,bars/006.png,bars/mask006.png,,,,,,,,,,,,1,2,,,,,,,0,4,0,3,,,,,,,,,,,1458.5284,1459.0282,1459.2779,1461.3136,space,2.0314,,1461.3137,87,22,1462.3086,1462.3086,1462.3171,,,,0,10,10,10,1,35,100,,,,,,,,
,,64971e71ba666687996c6072,65af56a0cf3d8856f5c0ca75,2024-01-23_07h03.22.689,bars,2023.2.3,Win32,59.88023952,657b66ea316d21385b68909f,,,,,,,,,,,1462.3173,1463.3079,,,1463.8071,1464.057,,160,-20,,,,,,,,,,,,,,,,bars/049.png,bars/mask004.png,,,,,,,,,,,,1,1,,,,,,,0,6,1,6,,,,,,,,,,,1463.308,1463.807,1464.0571,1466.9377,space,2.857,,1466.9377,0,45,1467.9366,1467.9367,1467.9448,,,,0,11,11,11,1,160,115,,,,,,,,
,,64971e71ba666687996c6072,65af56a0cf3d8856f5c0ca75,2024-01-23_07h03.22.689,bars,2023.2.3,Win32,59.88023952,657b66ea316d21385b68909f,,,,,,,,,,,1467.945,1468.9357,,,1469.4358,1469.685,,159,159,,,,,,,,,,,,,,,,bars/016.png,bars/mask009.png,,,,,,,,,,,,2,2,,,,,,,0,4,2,3,,,,,,,,,,,1468.9358,1469.4357,1469.6851,1471.1006,space,1.3942,,1471.1006,61,6,1472.103,1472.103,1472.1114,,,,0,12,12,12,1,40,165,,,,,,,,
,,64971e71ba666687996c6072,65af56a0cf3d8856f5c0ca75,2024-01-23_07h03.22.689,bars,2023.2.3,Win32,59.88023952,657b66ea316d21385b68909f,,,,,,,,,,,1472.1116,1473.1149,,,1473.6146,1473.8643,,144,-36,,,,,,,,,,,,,,,,bars/018.png,bars/mask009.png,,,,,,,,,,,,0,1,,,,,,,0,6,0,5,,,,,,,,,,,1473.1151,1473.6145,1473.8644,1475.9333,space,2.0644,,1475.9334,6,54,1476.9283,1476.9284,1476.9365,,,,0,13,13,13,1,150,90,,,,,,,,
,,64971e71ba666687996c6072,65af56a0cf3d8856f5c0ca75,2024-01-23_07h03.22.689,bars,2023.2.3,Win32,59.88023952,657b66ea316d21385b68909f,,,,,,,,,,,1476.9368,1477.9274,,,1478.427,1478.6766,,171,171,,,,,,,,,,,,,,,,bars/048.png,bars/mask007.png,,,,,,,,,,,,7,2,,,,,,,2,8,1,8,,,,,,,,,,,1477.9274,1478.4266,1478.6767,1479.6425,space,0.9358,,1479.6426,59,4,1480.6416,1480.6416,1480.6426,,,,0,14,14,14,1,50,175,,,,,,,,
,,64971e71ba666687996c6072,65af56a0cf3d8856f5c0ca75,2024-01-23_07h03.22.689,bars,2023.2.3,Win32,59.88023952,657b66ea316d21385b68909f,,,,,,,,,,,1480.6428,1481.6441,,,1482.1402,1482.3897,,163,163,,,,,,,,,,,,,,,,bars/003.png,bars/mask000.png,,,,,,,,,,,,1,2,,,,,,,0,6,1,5,,,,,,,,,,,1481.6441,1482.1401,1482.3897,1483.1227,space,0.722,,1483.1227,42,23,1484.1216,1484.1216,1484.122,,,,0,15,15,15,1,25,140,,,,,,,,
,,64971e71ba666687996c6072,65af56a0cf3d8856f5c0ca75,2024-01-23_07h03.22.689,bars,2023.2.3,Win32,59.88023952,657b66ea316d21385b68909f,,,,,,,,,,,1484.1222,1485.1208,,,1485.6202,1485.8699,,41,41,,,,,,,,,,,,,,,,bars/028.png,bars/mask003.png,,,,,,,,,,,,1,1,,,,,,,0,8,1,9,,,,,,,,,,,1485.121,1485.6202,1485.87,1486.7399,space,0.8494,,1486.74,4,79,1487.7349,1487.7349,1487.7365,,,,0,16,16,16,1,45,120,,,,,,,,
,,64971e71ba666687996c6072,65af56a0cf3d8856f5c0ca75,2024-01-23_07h03.22.689,bars,2023.2.3,Win32,59.88023952,657b66ea316d21385b68909f,,,,,,,,,,,1487.7368,1488.7335,,,1489.2336,1489.4831,,53,53,,,,,,,,,,,,,,,,bars/028.png,bars/mask006.png,,,,,,,,,,,,1,1,,,,,,,2,10,1,10,,,,,,,,,,,1488.7336,1489.2336,1489.4833,1491.602,space,2.1142,,1491.602,8,67,1492.597,1492.597,1492.6044,,,,0,17,17,17,1,45,120,,,,,,,,
,,64971e71ba666687996c6072,65af56a0cf3d8856f5c0ca75,2024-01-23_07h03.22.689,bars,2023.2.3,Win32,59.88023952,657b66ea316d21385b68909f,,,,,,,,,,,1492.6045,1493.5963,,,1494.0969,1494.3452,,51,51,,,,,,,,,,,,,,,,bars/014.png,bars/mask006.png,,,,,,,,,,,,0,1,,,,,,,4,10,2,9,,,,,,,,,,,1493.5963,1494.0969,1494.3453,1496.1439,space,1.7719,,1496.144,29,51,1497.1426,1497.1427,1497.1433,,,,0,18,18,18,1,80,0,,,,,,,,
,,64971e71ba666687996c6072,65af56a0cf3d8856f5c0ca75,2024-01-23_07h03.22.689,bars,2023.2.3,Win32,59.88023952,657b66ea316d21385b68909f,,,,,,,,,,,1497.1435,1498.1419,,,1498.6441,1498.8908,,135,135,,,,,,,,,,,,,,,,bars/038.png,bars/mask007.png,,,,,,,,,,,,0,1,,,,,,,2,10,3,10,,,,,,,,,,,1498.1419,1498.6441,1498.8909,1501.139,space,2.2221,,1501.139,30,65,1502.1381,1502.1382,1502.1462,,,,0,19,19,19,1,165,70,,,,,,,,
,,64971e71ba666687996c6072,65af56a0cf3d8856f5c0ca75,2024-01-23_07h03.22.689,bars,2023.2.3,Win32,59.88023952,657b66ea316d21385b68909f,,,,,,,,,,,1502.1463,1503.14,,,1503.6369,1503.8867,,118,118,,,,,,,,,,,,,,,,bars/025.png,bars/mask008.png,,,,,,,,,,,,0,1,,,,,,,0,8,0,8,,,,,,,,,,,1503.14,1503.6368,1503.8867,1508.1162,space,4.2168,,1508.1162,13,78,1509.1149,1509.1149,1509.1227,,,,0,20,20,20,1,105,40,,,,,,,,
,,64971e71ba666687996c6072,65af56a0cf3d8856f5c0ca75,2024-01-23_07h03.22.689,bars,2023.2.3,Win32,59.88023952,657b66ea316d21385b68909f,,,,,,,,,,,1509.1229,1510.1173,,,1510.6135,1510.8632,,54,54,,,,,,,,,,,,,,,,bars/034.png,bars/mask004.png,,,,,,,,,,,,6,2,,,,,,,0,10,3,10,,,,,,,,,,,1510.1174,1510.6133,1510.8633,1511.9832,space,1.1,,1511.9832,71,11,1512.978,1512.978,1512.9792,,,,0,21,21,21,1,125,65,,,,,,,,
,,64971e71ba666687996c6072,65af56a0cf3d8856f5c0ca75,2024-01-23_07h03.22.689,bars,2023.2.3,Win32,59.88023952,657b66ea316d21385b68909f,,,,,,,,,,,1512.9793,1513.977,,,1514.4804,1514.7265,,145,145,,,,,,,,,,,,,,,,bars/001.png,bars/mask003.png,,,,,,,,,,,,2,1,,,,,,,2,10,3,9,,,,,,,,,,,1513.9771,1514.4804,1514.7266,1515.5257,space,0.7849,,1515.5257,15,60,1516.5244,1516.5244,1516.526,,,,0,22,22,22,1,130,85,,,,,,,,
,,64971e71ba666687996c6072,65af56a0cf3d8856f5c0ca75,2024-01-23_07h03.22.689,bars,2023.2.3,Win32,59.88023952,657b66ea316d21385b68909f,,,,,,,,,,,1516.5261,1517.5234,,,1518.0233,1518.2731,,148,148,,,,,,,,,,,,,,,,bars/011.png,bars/mask009.png,,,,,,,,,,,,0,1,,,,,,,0,8,0,8,,,,,,,,,,,1517.5235,1518.0233,1518.2733,1518.8932,space,0.6001,,1518.8933,12,63,1519.8883,1519.8884,1519.889,,,,0,23,23,23,1,160,85,,,,,,,,
,,64971e71ba666687996c6072,65af56a0cf3d8856f5c0ca75,2024-01-23_07h03.22.689,bars,2023.2.3,Win32,59.88023952,657b66ea316d21385b68909f,,,,,,,,,,,1519.8891,1520.8912,,,1521.3869,1521.6363,,126,126,,,,,,,,,,,,,,,,bars/022.png,bars/mask007.png,,,,,,,,,,,,0,1,,,,,,,2,10,1,10,,,,,,,,,,,1520.8912,1521.3868,1521.6364,1523.0227,space,1.3818,,1523.0227,31,74,1524.0176,1524.0176,1524.0181,,,,0,24,24,24,1,95,20,,,,,,,,
,,64971e71ba666687996c6072,65af56a0cf3d8856f5c0ca75,2024-01-23_07h03.22.689,bars,2023.2.3,Win32,59.88023952,657b66ea316d21385b68909f,,,,,,,,,,,1524.0183,1525.0168,,,1525.5165,1525.766,,148,-32,,,,,,,,,,,,,,,,bars/017.png,bars/mask004.png,,,,,,,,,,,,3,1,,,,,,,4,8,3,8,,,,,,,,,,,1525.0169,1525.5164,1525.7661,1527.8478,space,2.0502,,1527.8478,3,77,1528.8467,1528.8467,1528.8543,,,,0,25,25,25,1,145,45,,,,,,,,
,,64971e71ba666687996c6072,65af56a0cf3d8856f5c0ca75,2024-01-23_07h03.22.689,bars,2023.2.3,Win32,59.88023952,657b66ea316d21385b68909f,,,,,,,,,,,1528.8545,1529.8453,,,1530.3463,1530.5988,,157,-23,,,,,,,,,,,,,,,,bars/037.png,bars/mask000.png,,,,,,,,,,,,5,1,,,,,,,6,10,6,9,,,,,,,,,,,1529.8458,1530.3463,1530.5989,1533.459,space,2.8446,,1533.4591,7,52,1534.4575,1534.4575,1534.4661,,,,0,26,26,26,1,150,105,,,,,,,,
,,64971e71ba666687996c6072,65af56a0cf3d8856f5c0ca75,2024-01-23_07h03.22.689,bars,2023.2.3,Win32,59.88023952,657b66ea316d21385b68909f,,,,,,,,,,,1534.4663,1535.4569,,,1535.9565,1536.2063,,142,142,,,,,,,,,,,,,,,,bars/021.png,bars/mask008.png,,,,,,,,,,,,3,1,,,,,,,4,10,5,10,,,,,,,,,,,1535.457,1535.9565,1536.2064,1538.2087,space,1.9829,,1538.2087,13,72,1539.2034,1539.2034,1539.211,,,,0,27,27,27,1,155,70,,,,,,,,
,,64971e71ba666687996c6072,65af56a0cf3d8856f5c0ca75,2024-01-23_07h03.22.689,bars,2023.2.3,Win32,59.88023952,657b66ea316d21385b68909f,,,,,,,,,,,1539.2111,1540.2025,,,1540.7061,1540.9556,,55,55,,,,,,,,,,,,,,,,bars/044.png,bars/mask003.png,,,,,,,,,,,,2,1,,,,,,,6,10,7,10,,,,,,,,,,,1540.2025,1540.7061,1540.9556,1542.6837,space,1.7123,,1542.6838,20,80,1543.6826,1543.6827,1543.6832,,,,0,28,28,28,1,75,155,,,,,,,,
,,64971e71ba666687996c6072,65af56a0cf3d8856f5c0ca75,2024-01-23_07h03.22.689,bars,2023.2.3,Win32,59.88023952,657b66ea316d21385b68909f,,,,,,,,,,,1543.6834,1544.6819,,,1545.1813,1545.431,,154,-26,,,,,,,,,,,,,,,,bars/036.png,bars/mask007.png,,,,,,,,,,,,3,1,,,,,,,4,10,4,9,,,,,,,,,,,1544.6819,1545.1813,1545.4311,1547.0668,space,1.6158,,1547.0668,9,46,1548.0647,1548.0647,1548.0651,,,,0,29,29,29,1,145,20,,,,,,,,
,,64971e71ba666687996c6072,65af56a0cf3d8856f5c0ca75,2024-01-23_07h03.22.689,bars,2023.2.3,Win32,59.88023952,657b66ea316d21385b68909f,,,,,,,,,,,1548.0653,1549.0611,,,1549.5642,1549.8116,,114,114,,,,,,,,,,,,,,,,bars/034.png,bars/mask008.png,,,,,,,,,,,,4,1,,,,,,,6,8,6,8,,,,,,,,,,,1549.0611,1549.5642,1549.8117,1552.458,space,2.6273,,1552.458,11,49,1553.4568,1553.4569,1553.4645,,,,0,30,30,30,1,125,65,,,,,,,,
,,64971e71ba666687996c6072,65af56a0cf3d8856f5c0ca75,2024-01-23_07h03.22.689,bars,2023.2.3,Win32,59.88023952,657b66ea316d21385b68909f,,,,,,,,,,,1553.4647,1554.456,,,1554.9555,1555.2057,,159,159,,,,,,,,,,,,,,,,bars/049.png,bars/mask003.png,,,,,,,,,,,,5,1,,,,,,,4,6,5,6,,,,,,,,,,,1554.456,1554.9553,1555.2057,1556.1752,space,0.9499,,1556.1753,1,44,1557.1702,1557.1703,1557.1707,,,,0,31,31,31,1,160,115,,,,,,,,
,,64971e71ba666687996c6072,65af56a0cf3d8856f5c0ca75,2024-01-23_07h03.22.689,bars,2023.2.3,Win32,59.88023952,657b66ea316d21385b68909f,,,,,,,,,,,1557.1709,1558.1688,,,1558.6725,1558.9186,,116,116,,,,,,,,,,,,,,,,bars/031.png,bars/mask008.png,,,,,,,,,,,,1,1,,,,,,,2,8,1,6,,,,,,,,,,,1558.1689,1558.6725,1558.9186,1560.8001,space,1.8528,,1560.8002,4,81,1561.7991,1561.7991,1561.7998,,,,0,32,32,32,1,120,35,,,,,,,,
,,64971e71ba666687996c6072,65af56a0cf3d8856f5c0ca75,2024-01-23_07h03.22.689,bars,2023.2.3,Win32,59.88023952,657b66ea316d21385b68909f,,,,,,,,,,,1561.8,1562.8016,,,1563.2978,1563.5513,,169,169,,,,,,,,,,,,,,,,bars/023.png,bars/mask005.png,,,,,,,,,,,,0,1,,,,,,,0,6,0,6,,,,,,,,,,,1562.8016,1563.2977,1563.5513,1565.7504,space,2.1947,,1565.7504,31,54,1566.7442,1566.7443,1566.7517,,,,0,33,33,33,1,20,115,,,,,,,,
,,64971e71ba666687996c6072,65af56a0cf3d8856f5c0ca75,2024-01-23_07h03.22.689,bars,2023.2.3,Win32,59.88023952,657b66ea316d21385b68909f,,,,,,,,,,,1566.7519,1567.7435,,,1568.2429,1568.4926,,63,63,,,,,,,,,,,,,,,,bars/029.png,bars/mask001.png,,,,,,,,,,,,4,2,,,,,,,2,8,3,9,,,,,,,,,,,1567.7435,1568.2428,1568.4928,1570.7912,space,2.2679,,1570.7912,27,18,1571.7892,1571.7896,1571.798,,,,0,34,34,34,1,90,45,,,,,,,,
,,64971e71ba666687996c6072,65af56a0cf3d8856f5c0ca75,2024-01-23_07h03.22.689,bars,2023.2.3,Win32,59.88023952,657b66ea316d21385b68909f,,,,,,,,,,,1571.7982,1572.7885,,,1573.2881,1573.5376,,166,166,,,,,,,,,,,,,,,,bars/010.png,bars/mask008.png,,,,,,,,,,,,0,1,,,,,,,0,10,0,9,,,,,,,,,,,1572.7887,1573.288,1573.5378,1574.2374,space,0.6935,,1574.2375,1,69,1575.2366,1575.2367,1575.2379,,,,0,35,35,35,1,165,55,,,,,,,,
,,64971e71ba666687996c6072,65af56a0cf3d8856f5c0ca75,2024-01-23_07h03.22.689,bars,2023.2.3,Win32,59.88023952,657b66ea316d21385b68909f,,,,,,,,,,,1575.2381,1576.2354,,,1576.735,1576.9849,,30,30,,,,,,,,,,,,,,,,bars/000.png,bars/mask006.png,,,,,,,,,,,,0,1,,,,,,,0,8,0,9,,,,,,,,,,,1576.2358,1576.7349,1576.985,1578.6378,space,1.633,,1578.6378,10,65,1579.6324,1579.6325,1579.6329,,,,0,36,36,36,1,40,145,,,,,,,,
,,64971e71ba666687996c6072,65af56a0cf3d8856f5c0ca75,2024-01-23_07h03.22.689,bars,2023.2.3,Win32,59.88023952,657b66ea316d21385b68909f,,,,,,,,,,,1579.6331,1580.6315,,,1581.1309,1581.3808,,140,-40,,,,,,,,,,,,,,,,bars/011.png,bars/mask005.png,,,,,,,,,,,,1,1,,,,,,,2,6,3,6,,,,,,,,,,,1580.6316,1581.1308,1581.3809,1583.733,space,2.3477,,1583.7331,20,55,1584.7277,1584.7277,1584.7352,,,,0,37,37,37,1,160,85,,,,,,,,
,,64971e71ba666687996c6072,65af56a0cf3d8856f5c0ca75,2024-01-23_07h03.22.689,bars,2023.2.3,Win32,59.88023952,657b66ea316d21385b68909f,,,,,,,,,,,1584.7354,1585.7269,,,1586.2265,1586.4798,,109,109,,,,,,,,,,,,,,,,bars/040.png,bars/mask004.png,,,,,,,,,,,,0,1,,,,,,,4,8,4,7,,,,,,,,,,,1585.727,1586.2264,1586.4798,1588.8781,space,2.3939,,1588.8781,31,76,1589.8728,1589.8729,1589.8807,,,,0,38,38,38,1,140,5,,,,,,,,
,,64971e71ba666687996c6072,65af56a0cf3d8856f5c0ca75,2024-01-23_07h03.22.689,bars,2023.2.3,Win32,59.88023952,657b66ea316d21385b68909f,,,,,,,,,,,1589.8809,1590.8714,,,1591.3715,1591.6213,,44,44,,,,,,,,,,,,,,,,bars/004.png,bars/mask005.png,,,,,,,,,,,,0,1,,,,,,,2,6,1,6,,,,,,,,,,,1590.8716,1591.3715,1591.6213,1593.253,space,1.6109,,1593.253,19,81,1594.252,1594.252,1594.2526,,,,0,39,39,39,1,25,125,,,,,,,,
,,64971e71ba666687996c6072,65af56a0cf3d8856f5c0ca75,2024-01-23_07h03.22.689,bars,2023.2.3,Win32,59.88023952,657b66ea316d21385b68909f,,,,,,,,,,,1594.2527,1595.2547,,,1595.7513,1596.0006,,177,-3,,,,,,,,,,,,,,,,bars/023.png,bars/mask006.png,,,,,,,,,,,,0,1,,,,,,,0,4,0,3,,,,,,,,,,,1595.2548,1595.7513,1596.0006,1598.1819,space,2.1714,,1598.182,23,62,1599.185,1599.185,1599.1928,,,,0,40,40,40,1,20,115,,,,,,,,
,,64971e71ba666687996c6072,65af56a0cf3d8856f5c0ca75,2024-01-23_07h03.22.689,bars,2023.2.3,Win32,59.88023952,657b66ea316d21385b68909f,,,,,,,,,,,1599.193,1600.1835,,,1600.6799,1600.9291,,164,164,,,,,,,,,,,,,,,,bars/011.png,bars/mask000.png,,,,,,,,,,,,1,1,,,,,,,2,6,1,5,,,,,,,,,,,1600.1835,1600.6799,1600.9292,1601.7164,space,0.7673,,1601.7164,4,79,1602.7107,1602.7108,1602.7116,,,,0,41,41,41,1,160,85,,,,,,,,
,,64971e71ba666687996c6072,65af56a0cf3d8856f5c0ca75,2024-01-23_07h03.22.689,bars,2023.2.3,Win32,59.88023952,657b66ea316d21385b68909f,,,,,,,,,,,1602.7117,1603.7096,,,1604.2096,1604.4593,,139,139,,,,,,,,,,,,,,,,bars/003.png,bars/mask008.png,,,,,,,,,,,,7,2,,,,,,,4,8,4,7,,,,,,,,,,,1603.7097,1604.2096,1604.4593,1605.7914,space,1.3026,,1605.7915,66,1,1606.7942,1606.7942,1606.8025,,,,0,42,42,42,1,25,140,,,,,,,,
,,64971e71ba666687996c6072,65af56a0cf3d8856f5c0ca75,2024-01-23_07h03.22.689,bars,2023.2.3,Win32,59.88023952,657b66ea316d21385b68909f,,,,,,,,,,,1606.8026,1607.8062,,,1608.3057,1608.559,,72,72,,,,,,,,,,,,,,,,bars/006.png,bars/mask001.png,,,,,,,,,,,,0,2,,,,,,,2,6,3,5,,,,,,,,,,,1607.8063,1608.3057,1608.559,1610.2871,space,1.7194,,1610.2872,37,28,1611.2898,1611.2899,1611.2991,,,,0,43,43,43,1,35,100,,,,,,,,
,,64971e71ba666687996c6072,65af56a0cf3d8856f5c0ca75,2024-01-23_07h03.22.689,bars,2023.2.3,Win32,59.88023952,657b66ea316d21385b68909f,,,,,,,,,,,1611.2993,1612.3019,,,1612.8016,1613.0513,,57,57,,,,,,,,,,,,,,,,bars/044.png,bars/mask000.png,,,,,,,,,,,,2,1,,,,,,,4,8,6,9,,,,,,,,,,,1612.302,1612.8015,1613.0513,1615.4323,space,2.3546,,1615.4324,18,82,1616.4313,1616.4314,1616.4325,,,,0,44,44,44,1,75,155,,,,,,,,
,,64971e71ba666687996c6072,65af56a0cf3d8856f5c0ca75,2024-01-23_07h03.22.689,bars,2023.2.3,Win32,59.88023952,657b66ea316d21385b68909f,,,,,,,,,,,1616.4326,1617.4306,,,1617.9302,1618.1796,,157,-23,,,,,,,,,,,,,,,,bars/021.png,bars/mask006.png,,,,,,,,,,,,1,1,,,,,,,2,6,1,6,,,,,,,,,,,1617.4306,1617.9302,1618.1796,1620.5318,space,2.3479,,1620.5318,2,87,1621.527,1621.5271,1621.5354,,,,0,45,45,45,1,155,70,,,,,,,,
,,64971e71ba666687996c6072,65af56a0cf3d8856f5c0ca75,2024-01-23_07h03.22.689,bars,2023.2.3,Win32,59.88023952,657b66ea316d21385b68909f,,,,,,,,,,,1621.5357,1622.5257,,,1623.0249,1623.275,,48,228,,,,,,,,,,,,,,,,bars/026.png,bars/mask002.png,,,,,,,,,,,,2,1,,,,,,,4,8,4,7,,,,,,,,,,,1622.5257,1623.0248,1623.2751,1628.0253,space,4.7302,,1628.0253,13,37,1629.0198,1629.0198,1629.0273,,,,0,46,46,46,1,35,85,,,,,,,,
,,64971e71ba666687996c6072,65af56a0cf3d8856f5c0ca75,2024-01-23_07h03.22.689,bars,2023.2.3,Win32,59.88023952,657b66ea316d21385b68909f,,,,,,,,,,,1629.0274,1630.0186,,,1630.5182,1630.7713,,136,136,,,,,,,,,,,,,,,,bars/011.png,bars/mask006.png,,,,,,,,,,,,1,1,,,,,,,6,6,7,5,,,,,,,,,,,1630.0187,1630.5182,1630.7714,1632.7164,space,1.9401,,1632.7164,24,51,1633.719,1633.719,1633.7199,,,,0,47,47,47,1,160,85,,,,,,,,
,,64971e71ba666687996c6072,65af56a0cf3d8856f5c0ca75,2024-01-23_07h03.22.689,bars,2023.2.3,Win32,59.88023952,657b66ea316d21385b68909f,,,,,,,,,,,1633.7201,1634.7143,,,1635.2139,1635.4638,,33,33,,,,,,,,,,,,,,,,bars/009.png,bars/mask006.png,,,,,,,,,,,,3,1,,,,,,,8,8,7,10,,,,,,,,,,,1634.7144,1635.2139,1635.4638,1636.929,space,1.4402,,1636.929,18,72,1637.928,1637.9281,1637.9287,,,,0,48,48,48,1,15,105,,,,,,,,
,,64971e71ba666687996c6072,65af56a0cf3d8856f5c0ca75,2024-01-23_07h03.22.689,bars,2023.2.3,Win32,59.88023952,657b66ea316d21385b68909f,,,,,,,,,,,1637.9288,1638.9268,,,1639.4294,1639.6805,,122,122,,,,,,,,,,,,,,,,bars/022.png,bars/mask006.png,,,,,,,,,,,,1,1,,,,,,,10,6,10,6,,,,,,,,,,,1638.927,1639.4293,1639.6805,1640.6257,space,0.9184,,1640.6257,27,78,1641.6244,1641.6245,1641.625,,,,0,49,49,49,1,95,20,,,,,,,,
,,64971e71ba666687996c6072,65af56a0cf3d8856f5c0ca75,2024-01-23_07h03.22.689,bars,2023.2.3,Win32,59.88023952,657b66ea316d21385b68909f,,,,,,,,,,,,,,,,,,,,,,,,,,,,,,,,,,,,,,,,,,,,,,,,,,,,,,,,,,,,,,,,,,,,,,,,,,,,,,,,,,,,,,,,,,,,,1641.625,1701.6177,0,2,2,3,1,sequence_tables/blk049.csv
,,64971e71ba666687996c6072,65af56a0cf3d8856f5c0ca75,2024-01-23_07h03.22.689,bars,2023.2.3,Win32,59.88023952,657b66ea316d21385b68909f,,,,,,,,,,,1704.3851,1705.3811,,,1705.8805,1706.1303,,122,122,,,,,,,,,,,,,,,,bars/037.png,bars/mask003.png,,,,,,,,,,,,4,2,,,,,,,8,8,9,9,,,,,,1701.6287,1704.382,space,2.7322,,1705.3813,1705.8804,1706.1305,1709.7435,space,3.5871,,1709.7435,28,17,1710.7428,1710.7429,1710.7534,,,,0,0,0,0,1,150,105,,,,,,,,
,,64971e71ba666687996c6072,65af56a0cf3d8856f5c0ca75,2024-01-23_07h03.22.689,bars,2023.2.3,Win32,59.88023952,657b66ea316d21385b68909f,,,,,,,,,,,1710.7536,1711.7419,,,1712.2412,1712.4916,,166,-14,,,,,,,,,,,,,,,,bars/011.png,bars/mask007.png,,,,,,,,,,,,6,1,,,,,,,10,6,8,6,,,,,,,,,,,1711.742,1712.2411,1712.4917,1715.0721,space,2.5561,,1715.0722,6,81,1716.0744,1716.0744,1716.0829,,,,0,1,1,1,1,160,85,,,,,,,,
,,64971e71ba666687996c6072,65af56a0cf3d8856f5c0ca75,2024-01-23_07h03.22.689,bars,2023.2.3,Win32,59.88023952,657b66ea316d21385b68909f,,,,,,,,,,,1716.083,1717.0868,,,1717.5863,1717.8361,,176,-4,,,,,,,,,,,,,,,,bars/039.png,bars/mask006.png,,,,,,,,,,,,10,1,,,,,,,8,8,10,8,,,,,,,,,,,1717.0869,1717.5862,1717.8362,1719.4866,space,1.6458,,1719.4866,1,71,1720.4835,1720.4835,1720.4928,,,,0,2,2,2,1,175,105,,,,,,,,
,,64971e71ba666687996c6072,65af56a0cf3d8856f5c0ca75,2024-01-23_07h03.22.689,bars,2023.2.3,Win32,59.88023952,657b66ea316d21385b68909f,,,,,,,,,,,1720.493,1721.4829,,,1721.9825,1722.2358,,18,198,,,,,,,,,,,,,,,,bars/041.png,bars/mask001.png,,,,,,,,,,,,4,1,,,,,,,6,6,4,7,,,,,,,,,,,1721.4829,1721.9824,1722.2358,1726.2659,space,4.0139,,1726.2659,2,67,1727.2603,1727.2603,1727.268,,,,0,3,3,3,1,20,85,,,,,,,,
,,64971e71ba666687996c6072,65af56a0cf3d8856f5c0ca75,2024-01-23_07h03.22.689,bars,2023.2.3,Win32,59.88023952,657b66ea316d21385b68909f,,,,,,,,,,,1727.2682,1728.2597,,,1728.7597,1729.0096,,146,146,,,,,,,,,,,,,,,,bars/001.png,bars/mask006.png,,,,,,,,,,,,2,1,,,,,,,4,8,5,7,,,,,,,,,,,1728.2598,1728.7595,1729.0096,1730.8076,space,1.7749,,1730.8078,16,61,1731.8101,1731.8102,1731.8174,,,,0,4,4,4,1,130,85,,,,,,,,
,,64971e71ba666687996c6072,65af56a0cf3d8856f5c0ca75,2024-01-23_07h03.22.689,bars,2023.2.3,Win32,59.88023952,657b66ea316d21385b68909f,,,,,,,,,,,1731.8175,1732.8054,,,1733.3049,1733.5554,,143,143,,,,,,,,,,,,,,,,bars/046.png,bars/mask003.png,,,,,,,,,,,,1,1,,,,,,,2,6,1,6,,,,,,,,,,,1732.8054,1733.3049,1733.5554,1734.987,space,1.4036,,1734.9871,12,58,1735.9856,1735.9856,1735.9943,,,,0,5,5,5,1,155,85,,,,,,,,
,,64971e71ba666687996c6072,65af56a0cf3d8856f5c0ca75,2024-01-23_07h03.22.689,bars,2023.2.3,Win32,59.88023952,657b66ea316d21385b68909f,,,,,,,,,,,1735.9944,1736.9848,,,1737.4843,1737.7341,,101,101,,,,,,,,,,,,,,,,bars/022.png,bars/mask000.png,,,,,,,,,,,,2,1,,,,,,,4,4,3,6,,,,,,,,,,,1736.9848,1737.4842,1737.7343,1739.8365,space,2.0821,,1739.8366,6,81,1740.8314,1740.8315,1740.8399,,,,0,6,6,6,1,95,20,,,,,,,,
,,64971e71ba666687996c6072,65af56a0cf3d8856f5c0ca75,2024-01-23_07h03.22.689,bars,2023.2.3,Win32,59.88023952,657b66ea316d21385b68909f,,,,,,,,,,,1740.84,1741.8301,,,1742.3306,1742.5795,,109,109,,,,,,,,,,,,,,,,bars/045.png,bars/mask004.png,,,,,,,,,,,,1,1,,,,,,,2,2,1,1,,,,,,,,,,,1741.8301,1742.3305,1742.5795,1744.1452,space,1.5518,,1744.1453,9,81,1745.144,1745.1441,1745.1451,,,,0,7,7,7,1,100,10,,,,,,,,
,,64971e71ba666687996c6072,65af56a0cf3d8856f5c0ca75,2024-01-23_07h03.22.689,bars,2023.2.3,Win32,59.88023952,657b66ea316d21385b68909f,,,,,,,,,,,1745.1452,1746.1429,,,1746.6428,1746.892,,11,191,,,,,,,,,,,,,,,,bars/041.png,bars/mask006.png,,,,,,,,,,,,2,1,,,,,,,4,4,3,3,,,,,,,,,,,1746.1429,1746.6426,1746.892,1748.6285,space,1.7318,,1748.6285,9,74,1749.6229,1749.6231,1749.624,,,,0,8,8,8,1,20,85,,,,,,,,
,,64971e71ba666687996c6072,65af56a0cf3d8856f5c0ca75,2024-01-23_07h03.22.689,bars,2023.2.3,Win32,59.88023952,657b66ea316d21385b68909f,,,,,,,,,,,1749.6241,1750.6223,,,1751.1247,1751.3713,,113,-67,,,,,,,,,,,,,,,,bars/031.png,bars/mask005.png,,,,,,,,,,,,2,1,,,,,,,2,6,3,7,,,,,,,,,,,1750.6225,1751.1247,1751.3713,1754.9849,space,3.5825,,1754.9849,7,78,1755.9836,1755.9836,1755.9941,,,,0,9,9,9,1,120,35,,,,,,,,
,,64971e71ba666687996c6072,65af56a0cf3d8856f5c0ca75,2024-01-23_07h03.22.689,bars,2023.2.3,Win32,59.88023952,657b66ea316d21385b68909f,,,,,,,,,,,1755.9942,1756.9826,,,1757.4862,1757.7323,,148,148,,,,,,,,,,,,,,,,bars/036.png,bars/mask009.png,,,,,,,,,,,,4,1,,,,,,,4,8,4,8,,,,,,,,,,,1756.9827,1757.4861,1757.7324,1759.1475,space,1.3891,,1759.1476,3,52,1760.1509,1760.151,1760.1582,,,,0,10,10,10,1,145,20,,,,,,,,
,,64971e71ba666687996c6072,65af56a0cf3d8856f5c0ca75,2024-01-23_07h03.22.689,bars,2023.2.3,Win32,59.88023952,657b66ea316d21385b68909f,,,,,,,,,,,1760.1583,1761.1624,,,1761.6656,1761.9154,,153,-27,,,,,,,,,,,,,,,,bars/034.png,bars/mask007.png,,,,,,,,,,,,0,1,,,,,,,6,6,6,6,,,,,,,,,,,1761.1626,1761.6656,1761.9155,1765.692,space,3.768,,1765.6921,28,88,1766.6902,1766.6903,1766.6982,,,,0,11,11,11,1,125,65,,,,,,,,
,,64971e71ba666687996c6072,65af56a0cf3d8856f5c0ca75,2024-01-23_07h03.22.689,bars,2023.2.3,Win32,59.88023952,657b66ea316d21385b68909f,,,,,,,,,,,1766.6984,1767.6894,,,1768.1891,1768.4389,,112,112,,,,,,,,,,,,,,,,bars/031.png,bars/mask004.png,,,,,,,,,,,,2,1,,,,,,,4,4,3,3,,,,,,,,,,,1767.6895,1768.189,1768.439,1770.0583,space,1.599,,1770.0583,8,77,1771.0572,1771.0572,1771.0576,,,,0,12,12,12,1,120,35,,,,,,,,
,,64971e71ba666687996c6072,65af56a0cf3d8856f5c0ca75,2024-01-23_07h03.22.689,bars,2023.2.3,Win32,59.88023952,657b66ea316d21385b68909f,,,,,,,,,,,1771.0577,1772.0523,,,1772.5558,1772.8015,,116,116,,,,,,,,,,,,,,,,bars/034.png,bars/mask002.png,,,,,,,,,,,,1,1,,,,,,,2,6,1,6,,,,,,,,,,,1772.0523,1772.5558,1772.8016,1774.4046,space,1.583,,1774.4046,9,51,1775.4006,1775.4006,1775.4014,,,,0,13,13,13,1,125,65,,,,,,,,
,,64971e71ba666687996c6072,65af56a0cf3d8856f5c0ca75,2024-01-23_07h03.22.689,bars,2023.2.3,Win32,59.88023952,657b66ea316d21385b68909f,,,,,,,,,,,1775.4016,1776.3978,,,1776.8973,1777.1472,,133,133,,,,,,,,,,,,,,,,bars/032.png,bars/mask002.png,,,,,,,,,,,,0,1,,,,,,,0,8,0,8,,,,,,,,,,,1776.3979,1776.8973,1777.1472,1778.2631,space,1.1102,,1778.2633,8,67,1779.2624,1779.2626,1779.2632,,,,0,14,14,14,1,125,20,,,,,,,,
,,64971e71ba666687996c6072,65af56a0cf3d8856f5c0ca75,2024-01-23_07h03.22.689,bars,2023.2.3,Win32,59.88023952,657b66ea316d21385b68909f,,,,,,,,,,,1779.2633,1780.2611,,,1780.7621,1781.0131,,111,111,,,,,,,,,,,,,,,,bars/020.png,bars/mask008.png,,,,,,,,,,,,0,1,,,,,,,0,6,0,6,,,,,,,,,,,1780.2611,1780.7621,1781.0131,1785.5403,space,4.5143,,1785.5404,4,59,1786.5385,1786.5386,1786.5467,,,,0,15,15,15,1,115,170,,,,,,,,
,,64971e71ba666687996c6072,65af56a0cf3d8856f5c0ca75,2024-01-23_07h03.22.689,bars,2023.2.3,Win32,59.88023952,657b66ea316d21385b68909f,,,,,,,,,,,1786.5469,1787.5374,,,1788.0375,1788.2906,,160,160,,,,,,,,,,,,,,,,bars/010.png,bars/mask007.png,,,,,,,,,,,,3,1,,,,,,,2,8,3,9,,,,,,,,,,,1787.5374,1788.0374,1788.2906,1789.0075,space,0.7,,1789.0075,5,75,1790.0017,1790.0018,1790.0031,,,,0,16,16,16,1,165,55,,,,,,,,
,,64971e71ba666687996c6072,65af56a0cf3d8856f5c0ca75,2024-01-23_07h03.22.689,bars,2023.2.3,Win32,59.88023952,657b66ea316d21385b68909f,,,,,,,,,,,1790.0033,1791.0014,,,1791.5004,1791.7544,,93,93,,,,,,,,,,,,,,,,bars/034.png,bars/mask007.png,,,,,,,,,,,,1,2,,,,,,,0,10,1,10,,,,,,,,,,,1791.0016,1791.5003,1791.7544,1793.5659,space,1.7834,,1793.5661,32,28,1794.5686,1794.5686,1794.5786,,,,0,17,17,17,1,125,65,,,,,,,,
,,64971e71ba666687996c6072,65af56a0cf3d8856f5c0ca75,2024-01-23_07h03.22.689,bars,2023.2.3,Win32,59.88023952,657b66ea316d21385b68909f,,,,,,,,,,,1794.5789,1795.5673,,,1796.0634,1796.3128,,128,128,,,,,,,,,,,,,,,,bars/018.png,bars/mask006.png,,,,,,,,,,,,0,1,,,,,,,2,8,1,7,,,,,,,,,,,1795.5674,1796.0632,1796.3129,1797.4782,space,1.1412,,1797.4783,22,38,1798.4815,1798.4815,1798.4826,,,,0,18,18,18,1,150,90,,,,,,,,
,,64971e71ba666687996c6072,65af56a0cf3d8856f5c0ca75,2024-01-23_07h03.22.689,bars,2023.2.3,Win32,59.88023952,657b66ea316d21385b68909f,,,,,,,,,,,1798.4828,1799.4796,,,1799.9761,1800.2256,,59,59,,,,,,,,,,,,,,,,bars/003.png,bars/mask004.png,,,,,,,,,,,,0,1,,,,,,,0,6,0,5,,,,,,,,,,,1799.4796,1799.976,1800.2256,1803.5395,space,3.2976,,1803.5397,34,81,1804.5391,1804.5391,1804.5464,,,,0,19,19,19,1,25,140,,,,,,,,
,,64971e71ba666687996c6072,65af56a0cf3d8856f5c0ca75,2024-01-23_07h03.22.689,bars,2023.2.3,Win32,59.88023952,657b66ea316d21385b68909f,,,,,,,,,,,1804.5465,1805.5373,,,1806.0368,1806.2871,,22,22,,,,,,,,,,,,,,,,bars/016.png,bars/mask006.png,,,,,,,,,,,,1,1,,,,,,,2,8,2,8,,,,,,,,,,,1805.5374,1806.0368,1806.2873,1807.023,space,0.7157,,1807.023,18,37,1808.0183,1808.0183,1808.0194,,,,0,20,20,20,1,40,165,,,,,,,,
,,64971e71ba666687996c6072,65af56a0cf3d8856f5c0ca75,2024-01-23_07h03.22.689,bars,2023.2.3,Win32,59.88023952,657b66ea316d21385b68909f,,,,,,,,,,,1808.0196,1809.0209,,,1809.517,1809.7668,,123,123,,,,,,,,,,,,,,,,bars/022.png,bars/mask001.png,,,,,,,,,,,,0,1,,,,,,,4,10,5,10,,,,,,,,,,,1809.0209,1809.5169,1809.7668,1811.5865,space,1.7994,,1811.5865,28,77,1812.5807,1812.5808,1812.5885,,,,0,21,21,21,1,95,20,,,,,,,,
,,64971e71ba666687996c6072,65af56a0cf3d8856f5c0ca75,2024-01-23_07h03.22.689,bars,2023.2.3,Win32,59.88023952,657b66ea316d21385b68909f,,,,,,,,,,,1812.5887,1813.5798,,,1814.0794,1814.329,,47,47,,,,,,,,,,,,,,,,bars/044.png,bars/mask002.png,,,,,,,,,,,,0,1,,,,,,,6,8,6,8,,,,,,,,,,,1813.5799,1814.0793,1814.3291,1817.3931,space,3.0537,,1817.3932,28,72,1818.3919,1818.3919,1818.4008,,,,0,22,22,22,1,75,155,,,,,,,,
,,64971e71ba666687996c6072,65af56a0cf3d8856f5c0ca75,2024-01-23_07h03.22.689,bars,2023.2.3,Win32,59.88023952,657b66ea316d21385b68909f,,,,,,,,,,,1818.4009,1819.391,,,1819.891,1820.1403,,123,123,,,,,,,,,,,,,,,,bars/001.png,bars/mask002.png,,,,,,,,,,,,5,1,,,,,,,8,10,7,10,,,,,,,,,,,1819.3911,1819.8909,1820.1405,1821.7895,space,1.6195,,1821.7895,7,38,1822.7881,1822.7883,1822.7959,,,,0,23,23,23,1,130,85,,,,,,,,
,,64971e71ba666687996c6072,65af56a0cf3d8856f5c0ca75,2024-01-23_07h03.22.689,bars,2023.2.3,Win32,59.88023952,657b66ea316d21385b68909f,,,,,,,,,,,1822.7961,1823.791,,,1824.2865,1824.5403,,30,30,,,,,,,,,,,,,,,,bars/041.png,bars/mask004.png,,,,,,,,,,,,7,1,,,,,,,10,10,10,9,,,,,,,,,,,1823.791,1824.2864,1824.5403,1826.3889,space,1.832,,1826.389,10,55,1827.3842,1827.3843,1827.3851,,,,0,24,24,24,1,20,85,,,,,,,,
,,64971e71ba666687996c6072,65af56a0cf3d8856f5c0ca75,2024-01-23_07h03.22.689,bars,2023.2.3,Win32,59.88023952,657b66ea316d21385b68909f,,,,,,,,,,,1827.3853,1828.383,,,1828.8822,1829.1364,,107,107,,,,,,,,,,,,,,,,bars/048.png,bars/mask006.png,,,,,,,,,,,,0,1,,,,,,,10,10,9,9,,,,,,,,,,,1828.3831,1828.8822,1829.1364,1830.3313,space,1.1677,,1830.3315,57,68,1831.3301,1831.3301,1831.3312,,,,0,25,25,25,1,50,175,,,,,,,,
,,64971e71ba666687996c6072,65af56a0cf3d8856f5c0ca75,2024-01-23_07h03.22.689,bars,2023.2.3,Win32,59.88023952,657b66ea316d21385b68909f,,,,,,,,,,,1831.3314,1832.329,,,1832.8287,1833.0784,,130,130,,,,,,,,,,,,,,,,bars/037.png,bars/mask004.png,,,,,,,,,,,,3,1,,,,,,,8,10,8,10,,,,,,,,,,,1832.3291,1832.8287,1833.0785,1834.4818,space,1.3825,,1834.4818,20,25,1835.4763,1835.4763,1835.4773,,,,0,26,26,26,1,150,105,,,,,,,,
,,64971e71ba666687996c6072,65af56a0cf3d8856f5c0ca75,2024-01-23_07h03.22.689,bars,2023.2.3,Win32,59.88023952,657b66ea316d21385b68909f,,,,,,,,,,,1835.4775,1836.4751,,,1836.9753,1837.2245,,141,141,,,,,,,,,,,,,,,,bars/037.png,bars/mask002.png,,,,,,,,,,,,5,1,,,,,,,6,8,7,8,,,,,,,,,,,1836.4752,1836.9752,1837.2246,1839.2893,space,2.0366,,1839.2898,9,36,1840.2883,1840.2883,1840.2968,,,,0,27,27,27,1,150,105,,,,,,,,
,,64971e71ba666687996c6072,65af56a0cf3d8856f5c0ca75,2024-01-23_07h03.22.689,bars,2023.2.3,Win32,59.88023952,657b66ea316d21385b68909f,,,,,,,,,,,1840.2969,1841.2876,,,1841.7871,1842.0398,,114,114,,,,,,,,,,,,,,,,bars/025.png,bars/mask004.png,,,,,,,,,,,,3,1,,,,,,,4,6,4,6,,,,,,,,,,,1841.2877,1841.787,1842.0398,1843.203,space,1.1537,,1843.203,9,74,1844.2013,1844.2013,1844.211,,,,0,28,28,28,1,105,40,,,,,,,,
,,64971e71ba666687996c6072,65af56a0cf3d8856f5c0ca75,2024-01-23_07h03.22.689,bars,2023.2.3,Win32,59.88023952,657b66ea316d21385b68909f,,,,,,,,,,,1844.2112,1845.2006,,,1845.7004,1845.9499,,142,142,,,,,,,,,,,,,,,,bars/039.png,bars/mask004.png,,,,,,,,,,,,0,1,,,,,,,6,4,6,4,,,,,,,,,,,1845.2008,1845.7002,1845.95,1848.8977,space,2.918,,1848.8977,33,37,1849.8962,1849.8964,1849.9047,,,,0,29,29,29,1,175,105,,,,,,,,
,,64971e71ba666687996c6072,65af56a0cf3d8856f5c0ca75,2024-01-23_07h03.22.689,bars,2023.2.3,Win32,59.88023952,657b66ea316d21385b68909f,,,,,,,,,,,1849.9048,1850.8951,,,1851.3947,1851.646,,166,166,,,,,,,,,,,,,,,,bars/035.png,bars/mask004.png,,,,,,,,,,,,7,1,,,,,,,8,6,10,7,,,,,,,,,,,1850.8951,1851.3946,1851.646,1852.9976,space,1.3327,,1852.9976,9,74,1853.9924,1853.9926,1853.9934,,,,0,30,30,30,1,175,60,,,,,,,,
,,64971e71ba666687996c6072,65af56a0cf3d8856f5c0ca75,2024-01-23_07h03.22.689,bars,2023.2.3,Win32,59.88023952,657b66ea316d21385b68909f,,,,,,,,,,,1853.9936,1854.9912,,,1855.4947,1855.7404,,58,58,,,,,,,,,,,,,,,,bars/016.png,bars/mask006.png,,,,,,,,,,,,2,1,,,,,,,6,4,6,4,,,,,,,,,,,1854.9912,1855.4947,1855.7404,1857.5099,space,1.7646,,1857.5099,18,73,1858.5045,1858.5046,1858.513,,,,0,31,31,31,1,40,165,,,,,,,,
,,64971e71ba666687996c6072,65af56a0cf3d8856f5c0ca75,2024-01-23_07h03.22.689,bars,2023.2.3,Win32,59.88023952,657b66ea316d21385b68909f,,,,,,,,,,,1858.5131,1859.5039,,,1860.0034,1860.253,,149,149,,,,,,,,,,,,,,,,bars/037.png,bars/mask008.png,,,,,,,,,,,,7,1,,,,,,,8,2,7,3,,,,,,,,,,,1859.504,1860.0033,1860.2533,1861.7727,space,1.4991,,1861.7727,1,44,1862.7674,1862.7674,1862.7752,,,,0,32,32,32,1,150,105,,,,,,,,
,,64971e71ba666687996c6072,65af56a0cf3d8856f5c0ca75,2024-01-23_07h03.22.689,bars,2023.2.3,Win32,59.88023952,657b66ea316d21385b68909f,,,,,,,,,,,1862.7754,1863.7663,,,1864.2665,1864.5157,,61,61,,,,,,,,,,,,,,,,bars/023.png,bars/mask003.png,,,,,,,,,,,,0,1,,,,,,,10,4,9,5,,,,,,,,,,,1863.7664,1864.2663,1864.5157,1865.9648,space,1.4204,,1865.965,41,54,1866.9635,1866.9636,1866.9644,,,,0,33,33,33,1,20,115,,,,,,,,
,,64971e71ba666687996c6072,65af56a0cf3d8856f5c0ca75,2024-01-23_07h03.22.689,bars,2023.2.3,Win32,59.88023952,657b66ea316d21385b68909f,,,,,,,,,,,1866.9645,1867.9624,,,1868.4617,1868.715,,166,166,,,,,,,,,,,,,,,,bars/009.png,bars/mask002.png,,,,,,,,,,,,0,1,,,,,,,10,6,10,7,,,,,,,,,,,1867.9624,1868.4617,1868.715,1869.5284,space,0.7849,,1869.5284,29,61,1870.5269,1870.5271,1870.5278,,,,0,34,34,34,1,15,105,,,,,,,,
,,64971e71ba666687996c6072,65af56a0cf3d8856f5c0ca75,2024-01-23_07h03.22.689,bars,2023.2.3,Win32,59.88023952,657b66ea316d21385b68909f,,,,,,,,,,,1870.528,1871.526,,,1872.0292,1872.2752,,17,17,,,,,,,,,,,,,,,,bars/003.png,bars/mask008.png,,,,,,,,,,,,7,1,,,,,,,8,8,9,9,,,,,,,,,,,1871.5261,1872.0292,1872.2753,1873.8772,space,1.5816,,1873.8772,8,57,1874.8729,1874.8731,1874.881,,,,0,35,35,35,1,25,140,,,,,,,,
,,64971e71ba666687996c6072,65af56a0cf3d8856f5c0ca75,2024-01-23_07h03.22.689,bars,2023.2.3,Win32,59.88023952,657b66ea316d21385b68909f,,,,,,,,,,,1874.8811,1875.8718,,,1876.3717,1876.6211,,29,29,,,,,,,,,,,,,,,,bars/006.png,bars/mask006.png,,,,,,,,,,,,8,1,,,,,,,10,6,10,6,,,,,,,,,,,1875.872,1876.3716,1876.6212,1878.0742,space,1.4322,,1878.0742,6,71,1879.0729,1879.0729,1879.0733,,,,0,36,36,36,1,35,100,,,,,,,,
,,64971e71ba666687996c6072,65af56a0cf3d8856f5c0ca75,2024-01-23_07h03.22.689,bars,2023.2.3,Win32,59.88023952,657b66ea316d21385b68909f,,,,,,,,,,,1879.0735,1880.0677,,,1880.5677,1880.8179,,169,-11,,,,,,,,,,,,,,,,bars/039.png,bars/mask003.png,,,,,,,,,,,,8,1,,,,,,,10,8,10,8,,,,,,,,,,,1880.0678,1880.5676,1880.8179,1882.1042,space,1.2666,,1882.1042,6,64,1883.1023,1883.1023,1883.1029,,,,0,37,37,37,1,175,105,,,,,,,,
,,64971e71ba666687996c6072,65af56a0cf3d8856f5c0ca75,2024-01-23_07h03.22.689,bars,2023.2.3,Win32,59.88023952,657b66ea316d21385b68909f,,,,,,,,,,,1883.1032,1884.0978,,,1884.6011,1884.8512,,29,29,,,,,,,,,,,,,,,,bars/003.png,bars/mask006.png,,,,,,,,,,,,7,1,,,,,,,8,10,8,10,,,,,,,,,,,1884.0979,1884.6011,1884.8513,1886.5669,space,1.6998,,1886.5669,4,69,1887.5616,1887.5616,1887.562,,,,0,38,38,38,1,25,140,,,,,,,,
,,64971e71ba666687996c6072,65af56a0cf3d8856f5c0ca75,2024-01-23_07h03.22.689,bars,2023.2.3,Win32,59.88023952,657b66ea316d21385b68909f,,,,,,,,,,,1887.5622,1888.5629,,,1889.0602,1889.3099,,162,162,,,,,,,,,,,,,,,,bars/021.png,bars/mask000.png,,,,,,,,,,,,8,1,,,,,,,10,8,10,9,,,,,,,,,,,1888.5629,1889.0602,1889.3099,1890.0093,space,0.6709,,1890.0093,7,88,1891.0082,1891.0083,1891.0089,,,,0,39,39,39,1,155,70,,,,,,,,
,,64971e71ba666687996c6072,65af56a0cf3d8856f5c0ca75,2024-01-23_07h03.22.689,bars,2023.2.3,Win32,59.88023952,657b66ea316d21385b68909f,,,,,,,,,,,1891.0091,1892.0075,,,1892.5066,1892.7567,,171,-9,,,,,,,,,,,,,,,,bars/011.png,bars/mask003.png,,,,,,,,,,,,6,1,,,,,,,10,6,9,6,,,,,,,,,,,1892.0075,1892.5065,1892.7568,1895.4915,space,2.7154,,1895.4916,11,86,1896.4866,1896.4866,1896.4968,,,,0,40,40,40,1,160,85,,,,,,,,
,,64971e71ba666687996c6072,65af56a0cf3d8856f5c0ca75,2024-01-23_07h03.22.689,bars,2023.2.3,Win32,59.88023952,657b66ea316d21385b68909f,,,,,,,,,,,1896.4969,1897.4852,,,1897.9843,1898.2342,,167,-13,,,,,,,,,,,,,,,,bars/049.png,bars/mask009.png,,,,,,,,,,,,8,1,,,,,,,10,8,10,7,,,,,,,,,,,1897.4853,1897.9842,1898.2342,1899.5537,space,1.299,,1899.5538,7,52,1900.549,1900.549,1900.5603,,,,0,41,41,41,1,160,115,,,,,,,,
,,64971e71ba666687996c6072,65af56a0cf3d8856f5c0ca75,2024-01-23_07h03.22.689,bars,2023.2.3,Win32,59.88023952,657b66ea316d21385b68909f,,,,,,,,,,,1900.5606,1901.5645,,,1902.0641,1902.3139,,147,-33,,,,,,,,,,,,,,,,bars/037.png,bars/mask009.png,,,,,,,,,,,,7,1,,,,,,,8,10,8,10,,,,,,,,,,,1901.5647,1902.0639,1902.314,1905.9321,space,3.598,,1905.9321,3,42,1906.9291,1906.9291,1906.9383,,,,0,42,42,42,1,150,105,,,,,,,,
,,64971e71ba666687996c6072,65af56a0cf3d8856f5c0ca75,2024-01-23_07h03.22.689,bars,2023.2.3,Win32,59.88023952,657b66ea316d21385b68909f,,,,,,,,,,,1906.9384,1907.9418,,,1908.4418,1908.6915,,68,68,,,,,,,,,,,,,,,,bars/013.png,bars/mask002.png,,,,,,,,,,,,4,1,,,,,,,6,8,5,8,,,,,,,,,,,1907.9419,1908.4417,1908.6917,1911.4426,space,2.731,,1911.4426,7,58,1912.4417,1912.4417,1912.4506,,,,0,43,43,43,1,75,10,,,,,,,,
,,64971e71ba666687996c6072,65af56a0cf3d8856f5c0ca75,2024-01-23_07h03.22.689,bars,2023.2.3,Win32,59.88023952,657b66ea316d21385b68909f,,,,,,,,,,,1912.4508,1913.4567,,,1913.9568,1914.2029,,149,-31,,,,,,,,,,,,,,,,bars/032.png,bars/mask003.png,,,,,,,,,,,,1,1,,,,,,,4,10,3,10,,,,,,,,,,,1913.4567,1913.9568,1914.203,1916.2515,space,2.018,,1916.2515,24,51,1917.2506,1917.2507,1917.2592,,,,0,44,44,44,1,125,20,,,,,,,,
,,64971e71ba666687996c6072,65af56a0cf3d8856f5c0ca75,2024-01-23_07h03.22.689,bars,2023.2.3,Win32,59.88023952,657b66ea316d21385b68909f,,,,,,,,,,,1917.2593,1918.2495,,,1918.7488,1918.9989,,22,202,,,,,,,,,,,,,,,,bars/043.png,bars/mask001.png,,,,,,,,,,,,5,1,,,,,,,6,8,7,8,,,,,,,,,,,1918.2497,1918.7487,1918.999,1920.6677,space,1.6645,,1920.6677,8,72,1921.6622,1921.6623,1921.6635,,,,0,45,45,45,1,30,130,,,,,,,,
,,64971e71ba666687996c6072,65af56a0cf3d8856f5c0ca75,2024-01-23_07h03.22.689,bars,2023.2.3,Win32,59.88023952,657b66ea316d21385b68909f,,,,,,,,,,,1921.6637,1922.6657,,,1923.1613,1923.4106,,109,109,,,,,,,,,,,,,,,,bars/008.png,bars/mask002.png,,,,,,,,,,,,4,1,,,,,,,4,6,4,5,,,,,,,,,,,1922.6658,1923.1612,1923.4106,1926.7077,space,3.2722,,1926.7078,1,71,1927.7111,1927.7111,1927.7191,,,,0,46,46,46,1,110,0,,,,,,,,
,,64971e71ba666687996c6072,65af56a0cf3d8856f5c0ca75,2024-01-23_07h03.22.689,bars,2023.2.3,Win32,59.88023952,657b66ea316d21385b68909f,,,,,,,,,,,1927.7193,1928.7223,,,1929.2222,1929.4748,,159,-21,,,,,,,,,,,,,,,,bars/036.png,bars/mask008.png,,,,,,,,,,,,2,1,,,,,,,2,4,3,4,,,,,,,,,,,1928.7223,1929.222,1929.4748,1931.4207,space,1.9299,,1931.4208,14,41,1932.4189,1932.4189,1932.4202,,,,0,47,47,47,1,145,20,,,,,,,,
,,64971e71ba666687996c6072,65af56a0cf3d8856f5c0ca75,2024-01-23_07h03.22.689,bars,2023.2.3,Win32,59.88023952,657b66ea316d21385b68909f,,,,,,,,,,,1932.4205,1933.4179,,,1933.9183,1934.1704,,95,95,,,,,,,,,,,,,,,,bars/029.png,bars/mask003.png,,,,,,,,,,,,0,1,,,,,,,0,2,0,1,,,,,,,,,,,1933.418,1933.9182,1934.1704,1935.9158,space,1.7409,,1935.916,5,50,1936.9153,1936.9154,1936.9244,,,,0,48,48,48,1,90,45,,,,,,,,
,,64971e71ba666687996c6072,65af56a0cf3d8856f5c0ca75,2024-01-23_07h03.22.689,bars,2023.2.3,Win32,59.88023952,657b66ea316d21385b68909f,,,,,,,,,,,1936.9247,1937.9178,,,1938.4138,1938.6674,,47,47,,,,,,,,,,,,,,,,bars/016.png,bars/mask006.png,,,,,,,,,,,,0,1,,,,,,,0,4,0,5,,,,,,,,,,,1937.9179,1938.4138,1938.6674,1941.9147,space,3.2309,,1941.9148,7,62,1942.9096,1942.9098,1942.919,,,,0,49,49,49,1,40,165,,,,,,,,
,,64971e71ba666687996c6072,65af56a0cf3d8856f5c0ca75,2024-01-23_07h03.22.689,bars,2023.2.3,Win32,59.88023952,657b66ea316d21385b68909f,,,,,,,,,,,,,,,,,,,,,,,,,,,,,,,,,,,,,,,,,,,,,,,,,,,,,,,,,,,,,,,,,,,,,,,,,,,,,,,,,,,,,,,,,,,,,1942.9192,2002.924,0,3,3,2,1,sequence_tables/blk047.csv
,,64971e71ba666687996c6072,65af56a0cf3d8856f5c0ca75,2024-01-23_07h03.22.689,bars,2023.2.3,Win32,59.88023952,657b66ea316d21385b68909f,,,,,,,,,,,2005.8417,2006.8334,,,2007.3331,2007.5828,,162,-18,,,,,,,,,,,,,,,,bars/038.png,bars/mask001.png,,,,,,,,,,,,4,1,,,,,,,3,6,4,7,,,,,,2002.9322,2005.8367,space,2.8955,,2006.8336,2007.333,2007.5828,2010.4006,space,2.8134,,2010.4007,3,88,2011.3972,2011.3972,2011.4091,,,,0,0,0,0,1,165,70,,,,,,,,
,,64971e71ba666687996c6072,65af56a0cf3d8856f5c0ca75,2024-01-23_07h03.22.689,bars,2023.2.3,Win32,59.88023952,657b66ea316d21385b68909f,,,,,,,,,,,2011.4094,2012.4116,,,2012.911,2013.161,,151,-29,,,,,,,,,,,,,,,,bars/042.png,bars/mask005.png,,,,,,,,,,,,2,1,,,,,,,5,8,3,7,,,,,,,,,,,2012.4117,2012.9108,2013.1611,2016.1291,space,2.948,,2016.1291,6,76,2017.1239,2017.1241,2017.1318,,,,0,1,1,1,1,145,75,,,,,,,,
,,64971e71ba666687996c6072,65af56a0cf3d8856f5c0ca75,2024-01-23_07h03.22.689,bars,2023.2.3,Win32,59.88023952,657b66ea316d21385b68909f,,,,,,,,,,,2017.1319,2018.1229,,,2018.6224,2018.8725,,161,161,,,,,,,,,,,,,,,,bars/014.png,bars/mask007.png,,,,,,,,,,,,4,2,,,,,,,7,10,8,10,,,,,,,,,,,2018.1229,2018.6223,2018.8725,2020.2046,space,1.3078,,2020.2046,81,19,2021.2035,2021.2035,2021.2122,,,,0,2,2,2,1,80,0,,,,,,,,
,,64971e71ba666687996c6072,65af56a0cf3d8856f5c0ca75,2024-01-23_07h03.22.689,bars,2023.2.3,Win32,59.88023952,657b66ea316d21385b68909f,,,,,,,,,,,2021.2123,2022.2026,,,2022.7054,2022.9517,,158,158,,,,,,,,,,,,,,,,bars/049.png,bars/mask003.png,,,,,,,,,,,,5,1,,,,,,,5,10,5,10,,,,,,,,,,,2022.2027,2022.7054,2022.9517,2024.0342,space,1.0573,,2024.0342,2,43,2025.0334,2025.0335,2025.042,,,,0,3,3,3,1,160,115,,,,,,,,
,,64971e71ba666687996c6072,65af56a0cf3d8856f5c0ca75,2024-01-23_07h03.22.689,bars,2023.2.3,Win32,59.88023952,657b66ea316d21385b68909f,,,,,,,,,,,2025.0421,2026.0359,,,2026.5315,2026.7854,,103,103,,,,,,,,,,,,,,,,bars/008.png,bars/mask008.png,,,,,,,,,,,,2,1,,,,,,,3,10,2,8,,,,,,,,,,,2026.0359,2026.5314,2026.7854,2028.1805,space,1.3831,,2028.1805,7,77,2029.1792,2029.1793,2029.1875,,,,0,4,4,4,1,110,0,,,,,,,,
,,64971e71ba666687996c6072,65af56a0cf3d8856f5c0ca75,2024-01-23_07h03.22.689,bars,2023.2.3,Win32,59.88023952,657b66ea316d21385b68909f,,,,,,,,,,,2029.1877,2030.1784,,,2030.6781,2030.9274,,11,191,,,,,,,,,,,,,,,,bars/007.png,bars/mask004.png,,,,,,,,,,,,0,1,,,,,,,1,10,1,9,,,,,,,,,,,2030.1784,2030.678,2030.9275,2033.212,space,2.2802,,2033.2121,16,44,2034.2082,2034.2082,2034.2165,,,,0,5,5,5,1,175,55,,,,,,,,
,,64971e71ba666687996c6072,65af56a0cf3d8856f5c0ca75,2024-01-23_07h03.22.689,bars,2023.2.3,Win32,59.88023952,657b66ea316d21385b68909f,,,,,,,,,,,2034.2166,2035.2074,,,2035.7065,2035.9566,,66,66,,,,,,,,,,,,,,,,bars/044.png,bars/mask000.png,,,,,,,,,,,,1,1,,,,,,,3,10,1,10,,,,,,,,,,,2035.2074,2035.7065,2035.9566,2038.7539,space,2.7662,,2038.754,9,89,2039.7527,2039.7528,2039.7626,,,,0,6,6,6,1,75,155,,,,,,,,
,,64971e71ba666687996c6072,65af56a0cf3d8856f5c0ca75,2024-01-23_07h03.22.689,bars,2023.2.3,Win32,59.88023952,657b66ea316d21385b68909f,,,,,,,,,,,2039.7628,2040.7519,,,2041.2513,2041.5013,,126,126,,,,,,,,,,,,,,,,bars/018.png,bars/mask007.png,,,,,,,,,,,,1,1,,,,,,,5,10,5,10,,,,,,,,,,,2040.7519,2041.2512,2041.5013,2043.903,space,2.3974,,2043.9031,24,36,2044.898,2044.8981,2044.8986,,,,0,7,7,7,1,150,90,,,,,,,,
,,64971e71ba666687996c6072,65af56a0cf3d8856f5c0ca75,2024-01-23_07h03.22.689,bars,2023.2.3,Win32,59.88023952,657b66ea316d21385b68909f,,,,,,,,,,,2044.8988,2045.897,,,2046.3966,2046.6496,,159,-21,,,,,,,,,,,,,,,,bars/038.png,bars/mask000.png,,,,,,,,,,,,6,1,,,,,,,7,8,7,9,,,,,,,,,,,2045.8971,2046.3964,2046.6497,2049.5978,space,2.9315,,2049.5979,6,89,2050.5925,2050.5927,2050.6004,,,,0,8,8,8,1,165,70,,,,,,,,
,,64971e71ba666687996c6072,65af56a0cf3d8856f5c0ca75,2024-01-23_07h03.22.689,bars,2023.2.3,Win32,59.88023952,657b66ea316d21385b68909f,,,,,,,,,,,2050.6005,2051.5954,,,2052.0912,2052.3445,,29,29,,,,,,,,,,,,,,,,bars/023.png,bars/mask008.png,,,,,,,,,,,,5,1,,,,,,,5,6,7,5,,,,,,,,,,,2051.5955,2052.0911,2052.3445,2054.3889,space,2.0393,,2054.3891,9,86,2055.3883,2055.3884,2055.3983,,,,0,9,9,9,1,20,115,,,,,,,,
,,64971e71ba666687996c6072,65af56a0cf3d8856f5c0ca75,2024-01-23_07h03.22.689,bars,2023.2.3,Win32,59.88023952,657b66ea316d21385b68909f,,,,,,,,,,,2055.3985,2056.387,,,2056.887,2057.14,,114,114,,,,,,,,,,,,,,,,bars/020.png,bars/mask004.png,,,,,,,,,,,,7,1,,,,,,,7,8,7,10,,,,,,,,,,,2056.3871,2056.887,2057.14,2057.8233,space,0.6791,,2057.8233,1,56,2058.8181,2058.8182,2058.8188,,,,0,10,10,10,1,115,170,,,,,,,,
