init_variables.started,init_variables.stopped,participant,session,date,expName,psychopyVersion,OS,frameRate,study_id,instruction_exp.started,instruction_exp.stopped,key_resp_8.keys,key_resp_8.rt,key_resp_8.duration,instruction_single.started,instruction_single.stopped,key_resp_2.keys,key_resp_2.rt,key_resp_2.duration,interval.started,interval.stopped,cue_single.started,cue_single.stopped,mask.started,mask.stopped,ori_response_single.started,res_ori,res,ori_response_single.stopped,key_resp_single.keys,key_resp_single.rt,key_resp_single.duration,disp_single.started,disp_single.stopped,key_resp.keys,key_resp.rt,key_resp.duration,single.thisRepN,single.thisTrialN,single.thisN,single.thisIndex,single.ran,ori,path,mask_path,instruction_bandit.started,instruction_bandit.stopped,key_resp_6.keys,key_resp_6.rt,key_resp_6.duration,cue_bandit.started,cue_bandit.stopped,bandit_res.keys,bandit_res.rt,bandit_res.duration,outcome_bandit.started,rew,action,outcome_bandit.stopped,bandit.thisRepN,bandit.thisTrialN,bandit.thisN,bandit.thisIndex,bandit.ran,actual_rew1,actual_rew2,rew1,rew2,instruction_task.started,instruction_task.stopped,key_resp_7.keys,key_resp_7.rt,key_resp_7.duration,wait_ready.started,wait_ready.stopped,key_resp_3.keys,key_resp_3.rt,key_resp_3.duration,cue.started,cue.stopped,ori_response.started,ori_response.stopped,key_resp_5.keys,key_resp_5.rt,key_resp_5.duration,outcome.started,diff1,diff2,outcome.stopped,disp_outcome_practice.started,disp_outcome_practice.stopped,key_resp_4.keys,key_resp_4.rt,key_resp_4.duration,trials.thisRepN,trials.thisTrialN,trials.thisN,trials.thisIndex,trials.ran,ori1,ori2,break_blk.started,break_blk.stopped,block.thisRepN,block.thisTrialN,block.thisN,block.thisIndex,block.ran,condition_file
0.001,0.001,652871abf3042f76d3105444,65af554b941b6f73074ccf8c,2024-01-23_07h00.06.392,bars,2023.2.3,Win32,16.39344262,657b66ea316d21385b68909f,,,,,,,,,,,,,,,,,,,,,,,,,,,,,,,,,,,,,,,,,,,,,,,,,,,,,,,,,,,,,,,,,,,,,,,,,,,,,,,,,,,,,,,,,,,,,,,,,,,,
,,652871abf3042f76d3105444,65af554b941b6f73074ccf8c,2024-01-23_07h00.06.392,bars,2023.2.3,Win32,16.39344262,657b66ea316d21385b68909f,0.001,7.979,y,7.912,,,,,,,,,,,,,,,,,,,,,,,,,,,,,,,,,,,,,,,,,,,,,,,,,,,,,,,,,,,,,,,,,,,,,,,,,,,,,,,,,,,,,,,,,,,,,,,,
,,652871abf3042f76d3105444,65af554b941b6f73074ccf8c,2024-01-23_07h00.06.392,bars,2023.2.3,Win32,16.39344262,657b66ea316d21385b68909f,,,,,,7.979,27.019,space,18.967,,,,,,,,,,,,,,,,,,,,,,,,,,,,,,,,,,,,,,,,,,,,,,,,,,,,,,,,,,,,,,,,,,,,,,,,,,,,,,,,,,,,,,,,,,,
,,652871abf3042f76d3105444,65af554b941b6f73074ccf8c,2024-01-23_07h00.06.392,bars,2023.2.3,Win32,16.39344262,657b66ea316d21385b68909f,,,,,,,,,,,27.022,27.993,27.993,28.46,28.46,28.7,28.7,90,90,38.417,space,9.659,,38.417,46.915,space,8.438,,0,0,0,6,1,175,bars/single006.png,bars/mask005.png,,,,,,,,,,,,,,,,,,,,,,,,,,,,,,,,,,,,,,,,,,,,,,,,,,,,,,,,,,,,,,,,
,,652871abf3042f76d3105444,65af554b941b6f73074ccf8c,2024-01-23_07h00.06.392,bars,2023.2.3,Win32,16.39344262,657b66ea316d21385b68909f,,,,,,,,,,,46.916,47.888,47.888,48.353,48.353,48.59,48.59,175,175,54.881,space,6.231,,54.881,61.532,space,6.596,,0,1,1,2,1,145,bars/single002.png,bars/mask003.png,,,,,,,,,,,,,,,,,,,,,,,,,,,,,,,,,,,,,,,,,,,,,,,,,,,,,,,,,,,,,,,,
,,652871abf3042f76d3105444,65af554b941b6f73074ccf8c,2024-01-23_07h00.06.392,bars,2023.2.3,Win32,16.39344262,657b66ea316d21385b68909f,,,,,,,,,,,61.536,62.52,62.52,62.985,62.985,63.211,63.211,163,-17,67.708,space,4.439,,67.708,77.504,space,9.736,,0,2,2,4,1,95,bars/single004.png,bars/mask004.png,,,,,,,,,,,,,,,,,,,,,,,,,,,,,,,,,,,,,,,,,,,,,,,,,,,,,,,,,,,,,,,,
,,652871abf3042f76d3105444,65af554b941b6f73074ccf8c,2024-01-23_07h00.06.392,bars,2023.2.3,Win32,16.39344262,657b66ea316d21385b68909f,,,,,,,,,,,77.508,78.506,78.506,78.991,78.991,79.226,79.226,99,99,82.962,space,3.677,,82.962,85.38,space,2.354,,0,3,3,5,1,55,bars/single005.png,bars/mask008.png,,,,,,,,,,,,,,,,,,,,,,,,,,,,,,,,,,,,,,,,,,,,,,,,,,,,,,,,,,,,,,,,
,,652871abf3042f76d3105444,65af554b941b6f73074ccf8c,2024-01-23_07h00.06.392,bars,2023.2.3,Win32,16.39344262,657b66ea316d21385b68909f,,,,,,,,,,,85.38,86.38,86.38,86.864,86.864,87.101,87.101,62,62,91.103,space,3.945,,91.103,137.52,space,46.359,,0,4,4,8,1,160,bars/single008.png,bars/mask004.png,,,,,,,,,,,,,,,,,,,,,,,,,,,,,,,,,,,,,,,,,,,,,,,,,,,,,,,,,,,,,,,,
,,652871abf3042f76d3105444,65af554b941b6f73074ccf8c,2024-01-23_07h00.06.392,bars,2023.2.3,Win32,16.39344262,657b66ea316d21385b68909f,,,,,,,,,,,137.525,138.534,138.534,139.002,139.002,139.242,139.242,65,65,145.548,space,6.25,,145.548,150.764,space,5.156,,0,5,5,3,1,20,bars/single003.png,bars/mask005.png,,,,,,,,,,,,,,,,,,,,,,,,,,,,,,,,,,,,,,,,,,,,,,,,,,,,,,,,,,,,,,,,
,,652871abf3042f76d3105444,65af554b941b6f73074ccf8c,2024-01-23_07h00.06.392,bars,2023.2.3,Win32,16.39344262,657b66ea316d21385b68909f,,,,,,,,,,,150.769,151.735,151.735,152.215,152.215,152.458,152.458,22,22,160.741,space,8.223,,160.741,163.239,space,2.443,,0,6,6,9,1,20,bars/single009.png,bars/mask006.png,,,,,,,,,,,,,,,,,,,,,,,,,,,,,,,,,,,,,,,,,,,,,,,,,,,,,,,,,,,,,,,,
,,652871abf3042f76d3105444,65af554b941b6f73074ccf8c,2024-01-23_07h00.06.392,bars,2023.2.3,Win32,16.39344262,657b66ea316d21385b68909f,,,,,,,,,,,163.24,164.211,164.211,164.701,164.701,164.943,164.943,15,195,168.271,space,3.267,,168.271,171.208,space,2.874,,0,7,7,1,1,20,bars/single001.png,bars/mask006.png,,,,,,,,,,,,,,,,,,,,,,,,,,,,,,,,,,,,,,,,,,,,,,,,,,,,,,,,,,,,,,,,
,,652871abf3042f76d3105444,65af554b941b6f73074ccf8c,2024-01-23_07h00.06.392,bars,2023.2.3,Win32,16.39344262,657b66ea316d21385b68909f,,,,,,,,,,,171.209,172.185,172.185,172.674,172.674,172.917,172.918,27,27,177.627,space,4.651,,177.627,180.146,space,2.459,,0,8,8,7,1,45,bars/single007.png,bars/mask009.png,,,,,,,,,,,,,,,,,,,,,,,,,,,,,,,,,,,,,,,,,,,,,,,,,,,,,,,,,,,,,,,,
,,652871abf3042f76d3105444,65af554b941b6f73074ccf8c,2024-01-23_07h00.06.392,bars,2023.2.3,Win32,16.39344262,657b66ea316d21385b68909f,,,,,,,,,,,180.146,181.135,181.135,181.598,181.598,181.832,181.832,143,143,188.668,space,6.77,,188.668,190.549,space,1.822,,0,9,9,0,1,150,bars/single000.png,bars/mask006.png,,,,,,,,,,,,,,,,,,,,,,,,,,,,,,,,,,,,,,,,,,,,,,,,,,,,,,,,,,,,,,,,
,,652871abf3042f76d3105444,65af554b941b6f73074ccf8c,2024-01-23_07h00.06.392,bars,2023.2.3,Win32,16.39344262,657b66ea316d21385b68909f,,,,,,,,,,,,,,,,,,,,,,,,,,,,,,,,,,,,,190.549,217.529,space,26.918,,,,,,,,,,,,,,,,,,,,,,,,,,,,,,,,,,,,,,,,,,,,,,,,,,,,,,,,,,,,
,,652871abf3042f76d3105444,65af554b941b6f73074ccf8c,2024-01-23_07h00.06.392,bars,2023.2.3,Win32,16.39344262,657b66ea316d21385b68909f,,,,,,,,,,,,,,,,,,,,,,,,,,,,,,,,,,,,,,,,,,217.535,230.789,left,13.194,,230.789,9,1,231.795,0,0,0,0,1,9,1,9,2,,,,,,,,,,,,,,,,,,,,,,,,,,,,,,,,,,,,,,,,,
,,652871abf3042f76d3105444,65af554b941b6f73074ccf8c,2024-01-23_07h00.06.392,bars,2023.2.3,Win32,16.39344262,657b66ea316d21385b68909f,,,,,,,,,,,,,,,,,,,,,,,,,,,,,,,,,,,,,,,,,,231.796,234.379,left,2.526,,234.379,10,1,235.379,0,1,1,1,1,10,0,10,1,,,,,,,,,,,,,,,,,,,,,,,,,,,,,,,,,,,,,,,,,
,,652871abf3042f76d3105444,65af554b941b6f73074ccf8c,2024-01-23_07h00.06.392,bars,2023.2.3,Win32,16.39344262,657b66ea316d21385b68909f,,,,,,,,,,,,,,,,,,,,,,,,,,,,,,,,,,,,,,,,,,235.385,261.873,right,26.421,,261.873,2,2,262.879,0,2,2,2,1,10,2,10,2,,,,,,,,,,,,,,,,,,,,,,,,,,,,,,,,,,,,,,,,,
,,652871abf3042f76d3105444,65af554b941b6f73074ccf8c,2024-01-23_07h00.06.392,bars,2023.2.3,Win32,16.39344262,657b66ea316d21385b68909f,,,,,,,,,,,,,,,,,,,,,,,,,,,,,,,,,,,,,,,,,,262.885,263.386,left,0.441,,263.386,7,1,264.394,0,3,3,3,1,8,4,7,3,,,,,,,,,,,,,,,,,,,,,,,,,,,,,,,,,,,,,,,,,
,,652871abf3042f76d3105444,65af554b941b6f73074ccf8c,2024-01-23_07h00.06.392,bars,2023.2.3,Win32,16.39344262,657b66ea316d21385b68909f,,,,,,,,,,,,,,,,,,,,,,,,,,,,,,,,,,,,,,,,,,264.394,265.401,left,0.955,,265.401,5,1,266.362,0,4,4,4,1,6,2,5,1,,,,,,,,,,,,,,,,,,,,,,,,,,,,,,,,,,,,,,,,,
,,652871abf3042f76d3105444,65af554b941b6f73074ccf8c,2024-01-23_07h00.06.392,bars,2023.2.3,Win32,16.39344262,657b66ea316d21385b68909f,,,,,,,,,,,,,,,,,,,,,,,,,,,,,,,,,,,,,,,,,,266.362,266.727,right,0.295,,266.727,4,2,267.703,0,5,5,5,1,4,4,4,4,,,,,,,,,,,,,,,,,,,,,,,,,,,,,,,,,,,,,,,,,
,,652871abf3042f76d3105444,65af554b941b6f73074ccf8c,2024-01-23_07h00.06.392,bars,2023.2.3,Win32,16.39344262,657b66ea316d21385b68909f,,,,,,,,,,,,,,,,,,,,,,,,,,,,,,,,,,,,,,,,,,267.703,268.418,left,0.662,,268.418,1,1,269.394,0,6,6,6,1,2,2,1,2,,,,,,,,,,,,,,,,,,,,,,,,,,,,,,,,,,,,,,,,,
,,652871abf3042f76d3105444,65af554b941b6f73074ccf8c,2024-01-23_07h00.06.392,bars,2023.2.3,Win32,16.39344262,657b66ea316d21385b68909f,,,,,,,,,,,,,,,,,,,,,,,,,,,,,,,,,,,,,,,,,,269.394,269.873,right,0.424,,269.873,1,2,270.856,0,7,7,7,1,0,0,0,1,,,,,,,,,,,,,,,,,,,,,,,,,,,,,,,,,,,,,,,,,
,,652871abf3042f76d3105444,65af554b941b6f73074ccf8c,2024-01-23_07h00.06.392,bars,2023.2.3,Win32,16.39344262,657b66ea316d21385b68909f,,,,,,,,,,,,,,,,,,,,,,,,,,,,,,,,,,,,,,,,,,270.856,271.544,right,0.631,,271.544,0,2,272.528,0,8,8,8,1,0,2,1,0,,,,,,,,,,,,,,,,,,,,,,,,,,,,,,,,,,,,,,,,,
,,652871abf3042f76d3105444,65af554b941b6f73074ccf8c,2024-01-23_07h00.06.392,bars,2023.2.3,Win32,16.39344262,657b66ea316d21385b68909f,,,,,,,,,,,,,,,,,,,,,,,,,,,,,,,,,,,,,,,,,,272.528,274.029,right,1.447,,274.029,3,2,274.993,0,9,9,9,1,2,4,2,3,,,,,,,,,,,,,,,,,,,,,,,,,,,,,,,,,,,,,,,,,
,,652871abf3042f76d3105444,65af554b941b6f73074ccf8c,2024-01-23_07h00.06.392,bars,2023.2.3,Win32,16.39344262,657b66ea316d21385b68909f,,,,,,,,,,,,,,,,,,,,,,,,,,,,,,,,,,,,,,,,,,274.993,276.803,left,1.744,,276.803,0,1,277.764,0,10,10,10,1,0,2,0,3,,,,,,,,,,,,,,,,,,,,,,,,,,,,,,,,,,,,,,,,,
,,652871abf3042f76d3105444,65af554b941b6f73074ccf8c,2024-01-23_07h00.06.392,bars,2023.2.3,Win32,16.39344262,657b66ea316d21385b68909f,,,,,,,,,,,,,,,,,,,,,,,,,,,,,,,,,,,,,,,,,,277.768,278.133,right,0.305,,278.133,3,2,279.111,0,11,11,11,1,0,4,0,3,,,,,,,,,,,,,,,,,,,,,,,,,,,,,,,,,,,,,,,,,
,,652871abf3042f76d3105444,65af554b941b6f73074ccf8c,2024-01-23_07h00.06.392,bars,2023.2.3,Win32,16.39344262,657b66ea316d21385b68909f,,,,,,,,,,,,,,,,,,,,,,,,,,,,,,,,,,,,,,,,,,279.111,279.663,right,0.499,,279.663,6,2,280.641,0,12,12,12,1,2,6,1,6,,,,,,,,,,,,,,,,,,,,,,,,,,,,,,,,,,,,,,,,,
,,652871abf3042f76d3105444,65af554b941b6f73074ccf8c,2024-01-23_07h00.06.392,bars,2023.2.3,Win32,16.39344262,657b66ea316d21385b68909f,,,,,,,,,,,,,,,,,,,,,,,,,,,,,,,,,,,,,,,,,,280.641,281.059,right,0.355,,281.059,3,2,282.027,0,13,13,13,1,0,4,1,3,,,,,,,,,,,,,,,,,,,,,,,,,,,,,,,,,,,,,,,,,
,,652871abf3042f76d3105444,65af554b941b6f73074ccf8c,2024-01-23_07h00.06.392,bars,2023.2.3,Win32,16.39344262,657b66ea316d21385b68909f,,,,,,,,,,,,,,,,,,,,,,,,,,,,,,,,,,,,,,,,,,282.028,282.39,left,0.304,,282.39,2,1,283.384,0,14,14,14,1,2,6,2,7,,,,,,,,,,,,,,,,,,,,,,,,,,,,,,,,,,,,,,,,,
,,652871abf3042f76d3105444,65af554b941b6f73074ccf8c,2024-01-23_07h00.06.392,bars,2023.2.3,Win32,16.39344262,657b66ea316d21385b68909f,,,,,,,,,,,,,,,,,,,,,,,,,,,,,,,,,,,,,,,,,,283.384,283.756,right,0.319,,283.756,9,2,284.765,0,15,15,15,1,4,8,3,9,,,,,,,,,,,,,,,,,,,,,,,,,,,,,,,,,,,,,,,,,
,,652871abf3042f76d3105444,65af554b941b6f73074ccf8c,2024-01-23_07h00.06.392,bars,2023.2.3,Win32,16.39344262,657b66ea316d21385b68909f,,,,,,,,,,,,,,,,,,,,,,,,,,,,,,,,,,,,,,,,,,284.765,285.208,right,0.385,,285.208,7,2,286.186,0,16,16,16,1,6,6,7,7,,,,,,,,,,,,,,,,,,,,,,,,,,,,,,,,,,,,,,,,,
,,652871abf3042f76d3105444,65af554b941b6f73074ccf8c,2024-01-23_07h00.06.392,bars,2023.2.3,Win32,16.39344262,657b66ea316d21385b68909f,,,,,,,,,,,,,,,,,,,,,,,,,,,,,,,,,,,,,,,,,,286.186,286.555,right,0.313,,286.555,5,2,287.5,0,17,17,17,1,8,4,9,5,,,,,,,,,,,,,,,,,,,,,,,,,,,,,,,,,,,,,,,,,
,,652871abf3042f76d3105444,65af554b941b6f73074ccf8c,2024-01-23_07h00.06.392,bars,2023.2.3,Win32,16.39344262,657b66ea316d21385b68909f,,,,,,,,,,,,,,,,,,,,,,,,,,,,,,,,,,,,,,,,,,287.5,288.052,left,0.497,,288.052,5,1,289.026,0,18,18,18,1,6,2,5,1,,,,,,,,,,,,,,,,,,,,,,,,,,,,,,,,,,,,,,,,,
,,652871abf3042f76d3105444,65af554b941b6f73074ccf8c,2024-01-23_07h00.06.392,bars,2023.2.3,Win32,16.39344262,657b66ea316d21385b68909f,,,,,,,,,,,,,,,,,,,,,,,,,,,,,,,,,,,,,,,,,,289.026,289.494,left,0.414,,289.494,7,1,290.486,0,19,19,19,1,8,0,7,0,,,,,,,,,,,,,,,,,,,,,,,,,,,,,,,,,,,,,,,,,
,,652871abf3042f76d3105444,65af554b941b6f73074ccf8c,2024-01-23_07h00.06.392,bars,2023.2.3,Win32,16.39344262,657b66ea316d21385b68909f,,,,,,,,,,,,,,,,,,,,,,,,,,,,,,,,,,,,,,,,,,,,,,,,,,,,,,,,,,,,290.486,311.48,space,20.935,,,,,,,,,,,,,,,,,,,,,,,,,,,,,,,,,,,,,
,,652871abf3042f76d3105444,65af554b941b6f73074ccf8c,2024-01-23_07h00.06.392,bars,2023.2.3,Win32,16.39344262,657b66ea316d21385b68909f,,,,,,,,,,,312.863,313.871,,,314.339,314.585,,32,32,,,,,,,,,,,,,,,,bars/019.png,bars/mask001.png,,,,,,,,,,,,5,1,,,,,,,7,6,8,7,,,,,,311.486,312.86,space,1.308,,313.871,314.339,314.585,318.617,space,3.973,,318.617,13,73,319.606,319.606,335.93,space,16.263,,0,0,0,0,1,45,105,,,,,,,,
,,652871abf3042f76d3105444,65af554b941b6f73074ccf8c,2024-01-23_07h00.06.392,bars,2023.2.3,Win32,16.39344262,657b66ea316d21385b68909f,,,,,,,,,,,335.934,336.922,,,337.4,337.638,,137,-43,,,,,,,,,,,,,,,,bars/023.png,bars/mask009.png,,,,,,,,,,,,1,2,,,,,,,5,4,7,3,,,,,,,,,,,336.922,337.4,337.638,345.009,space,7.315,,345.01,63,22,345.971,345.971,355.051,space,9.012,,0,1,1,1,1,20,115,,,,,,,,
,,652871abf3042f76d3105444,65af554b941b6f73074ccf8c,2024-01-23_07h00.06.392,bars,2023.2.3,Win32,16.39344262,657b66ea316d21385b68909f,,,,,,,,,,,355.056,356.04,,,356.532,356.782,,52,52,,,,,,,,,,,,,,,,bars/021.png,bars/mask000.png,,,,,,,,,,,,1,2,,,,,,,3,2,2,2,,,,,,,,,,,356.04,356.532,356.782,361.494,space,4.654,,361.494,77,18,362.484,362.484,366.225,space,3.672,,0,2,2,2,1,155,70,,,,,,,,
,,652871abf3042f76d3105444,65af554b941b6f73074ccf8c,2024-01-23_07h00.06.392,bars,2023.2.3,Win32,16.39344262,657b66ea316d21385b68909f,,,,,,,,,,,366.23,367.207,,,367.696,367.933,,82,82,,,,,,,,,,,,,,,,bars/044.png,bars/mask009.png,,,,,,,,,,,,0,1,,,,,,,1,0,0,0,,,,,,,,,,,367.207,367.696,367.933,371.836,space,3.847,,371.836,7,73,372.812,372.812,375.033,space,2.146,,0,3,3,3,1,75,155,,,,,,,,
,,652871abf3042f76d3105444,65af554b941b6f73074ccf8c,2024-01-23_07h00.06.392,bars,2023.2.3,Win32,16.39344262,657b66ea316d21385b68909f,,,,,,,,,,,375.034,375.986,,,376.469,376.706,,122,122,,,,,,,,,,,,,,,,bars/046.png,bars/mask000.png,,,,,,,,,,,,0,1,,,,,,,3,0,4,0,,,,,,,,,,,375.986,376.469,376.706,385.044,space,8.272,,385.044,33,37,386.028,386.028,390.482,space,4.396,,0,4,4,4,1,155,85,,,,,,,,
,,652871abf3042f76d3105444,65af554b941b6f73074ccf8c,2024-01-23_07h00.06.392,bars,2023.2.3,Win32,16.39344262,657b66ea316d21385b68909f,,,,,,,,,,,390.486,391.494,,,391.985,392.241,,75,75,,,,,,,,,,,,,,,,bars/036.png,bars/mask006.png,,,,,,,,,,,,0,2,,,,,,,1,2,2,1,,,,,,,,,,,391.494,391.984,392.241,396.883,space,4.584,,396.883,70,55,397.866,397.866,400.132,space,2.205,,0,5,5,5,1,145,20,,,,,,,,
,,652871abf3042f76d3105444,65af554b941b6f73074ccf8c,2024-01-23_07h00.06.392,bars,2023.2.3,Win32,16.39344262,657b66ea316d21385b68909f,,,,,,,,,,,400.132,401.146,,,401.645,401.882,,32,32,,,,,,,,,,,,,,,,bars/038.png,bars/mask008.png,,,,,,,,,,,,0,2,,,,,,,0,4,0,5,,,,,,,,,,,401.146,401.645,401.882,408.969,space,7.031,,408.969,47,38,409.971,409.971,417.351,space,7.317,,0,6,6,6,1,165,70,,,,,,,,
,,652871abf3042f76d3105444,65af554b941b6f73074ccf8c,2024-01-23_07h00.06.392,bars,2023.2.3,Win32,16.39344262,657b66ea316d21385b68909f,,,,,,,,,,,417.356,418.354,,,418.833,419.074,,8,8,,,,,,,,,,,,,,,,bars/041.png,bars/mask006.png,,,,,,,,,,,,1,1,,,,,,,2,6,1,5,,,,,,,,,,,418.354,418.833,419.074,426.87,space,7.738,,426.87,12,77,427.883,427.883,429.655,space,1.699,,0,7,7,7,1,20,85,,,,,,,,
,,652871abf3042f76d3105444,65af554b941b6f73074ccf8c,2024-01-23_07h00.06.392,bars,2023.2.3,Win32,16.39344262,657b66ea316d21385b68909f,,,,,,,,,,,429.656,430.666,,,431.146,431.384,,30,30,,,,,,,,,,,,,,,,bars/041.png,bars/mask006.png,,,,,,,,,,,,2,1,,,,,,,4,4,3,2,,,,,,,,,,,430.666,431.146,431.384,435.176,space,3.732,,435.176,10,55,436.134,436.134,437.592,space,1.401,,0,8,8,8,1,20,85,,,,,,,,
,,652871abf3042f76d3105444,65af554b941b6f73074ccf8c,2024-01-23_07h00.06.392,bars,2023.2.3,Win32,16.39344262,657b66ea316d21385b68909f,,,,,,,,,,,437.593,438.582,,,439.079,439.318,,164,164,,,,,,,,,,,,,,,,bars/043.png,bars/mask006.png,,,,,,,,,,,,0,2,,,,,,,2,2,2,1,,,,,,,,,,,438.582,439.079,439.318,442.98,space,3.609,,442.98,46,34,443.98,443.98,444.999,space,0.954,,0,9,9,9,1,30,130,,,,,,,,
,,652871abf3042f76d3105444,65af554b941b6f73074ccf8c,2024-01-23_07h00.06.392,bars,2023.2.3,Win32,16.39344262,657b66ea316d21385b68909f,,,,,,,,,,,444.999,445.993,,,446.477,446.713,,37,37,,,,,,,,,,,,,,,,bars/006.png,bars/mask006.png,,,,,,,,,,,,0,1,,,,,,,0,4,0,3,,,,,,,,,,,445.993,446.477,446.713,453.774,space,6.997,,453.774,2,63,454.745,454.745,459.698,space,4.888,,0,10,10,10,1,35,100,,,,,,,,
,,652871abf3042f76d3105444,65af554b941b6f73074ccf8c,2024-01-23_07h00.06.392,bars,2023.2.3,Win32,16.39344262,657b66ea316d21385b68909f,,,,,,,,,,,459.702,460.684,,,461.186,461.434,,163,163,,,,,,,,,,,,,,,,bars/049.png,bars/mask004.png,,,,,,,,,,,,1,1,,,,,,,0,6,1,6,,,,,,,,,,,460.684,461.186,461.434,463.638,space,2.149,,463.638,3,48,464.628,464.628,467.565,space,2.876,,0,11,11,11,1,160,115,,,,,,,,
,,652871abf3042f76d3105444,65af554b941b6f73074ccf8c,2024-01-23_07h00.06.392,bars,2023.2.3,Win32,16.39344262,657b66ea316d21385b68909f,,,,,,,,,,,467.565,468.545,,,469.027,469.267,,109,109,,,,,,,,,,,,,,,,bars/016.png,bars/mask009.png,,,,,,,,,,,,0,2,,,,,,,0,4,2,3,,,,,,,,,,,468.545,469.027,469.267,472.478,space,3.149,,472.478,69,56,473.46,473.46,475.972,space,2.447,,0,12,12,12,1,40,165,,,,,,,,
,,652871abf3042f76d3105444,65af554b941b6f73074ccf8c,2024-01-23_07h00.06.392,bars,2023.2.3,Win32,16.39344262,657b66ea316d21385b68909f,,,,,,,,,,,475.972,476.958,,,477.443,477.694,,131,131,,,,,,,,,,,,,,,,bars/018.png,bars/mask009.png,,,,,,,,,,,,0,1,,,,,,,0,6,0,5,,,,,,,,,,,476.958,477.443,477.694,479.974,space,2.216,,479.974,19,41,480.95,480.95,482.352,space,1.325,,0,13,13,13,1,150,90,,,,,,,,
,,652871abf3042f76d3105444,65af554b941b6f73074ccf8c,2024-01-23_07h00.06.392,bars,2023.2.3,Win32,16.39344262,657b66ea316d21385b68909f,,,,,,,,,,,482.352,483.352,,,483.826,484.087,,9,9,,,,,,,,,,,,,,,,bars/048.png,bars/mask007.png,,,,,,,,,,,,4,2,,,,,,,2,8,1,8,,,,,,,,,,,483.352,483.826,484.087,490.698,space,6.55,,490.698,41,14,491.659,491.66,504.931,space,13.21,,0,14,14,14,1,50,175,,,,,,,,
,,652871abf3042f76d3105444,65af554b941b6f73074ccf8c,2024-01-23_07h00.06.392,bars,2023.2.3,Win32,16.39344262,657b66ea316d21385b68909f,,,,,,,,,,,504.936,505.935,,,506.421,506.673,,167,-13,,,,,,,,,,,,,,,,bars/003.png,bars/mask000.png,,,,,,,,,,,,0,2,,,,,,,0,6,1,5,,,,,,,,,,,505.935,506.421,506.673,510.598,space,3.87,,510.598,38,27,511.607,511.607,514.587,space,2.919,,0,15,15,15,1,25,140,,,,,,,,
,,652871abf3042f76d3105444,65af554b941b6f73074ccf8c,2024-01-23_07h00.06.392,bars,2023.2.3,Win32,16.39344262,657b66ea316d21385b68909f,,,,,,,,,,,514.592,515.614,,,516.09,516.325,,42,42,,,,,,,,,,,,,,,,bars/028.png,bars/mask003.png,,,,,,,,,,,,1,1,,,,,,,0,8,1,9,,,,,,,,,,,515.614,516.09,516.325,519.943,space,3.56,,519.943,3,78,520.935,520.935,523.538,space,2.534,,0,16,16,16,1,45,120,,,,,,,,
,,652871abf3042f76d3105444,65af554b941b6f73074ccf8c,2024-01-23_07h00.06.392,bars,2023.2.3,Win32,16.39344262,657b66ea316d21385b68909f,,,,,,,,,,,523.538,524.523,,,525.007,525.25,,103,103,,,,,,,,,,,,,,,,bars/028.png,bars/mask006.png,,,,,,,,,,,,4,2,,,,,,,2,10,1,10,,,,,,,,,,,524.523,525.007,525.25,533.882,space,8.576,,533.882,58,17,534.876,534.876,541.572,space,6.631,,0,17,17,17,1,45,120,,,,,,,,
,,652871abf3042f76d3105444,65af554b941b6f73074ccf8c,2024-01-23_07h00.06.392,bars,2023.2.3,Win32,16.39344262,657b66ea316d21385b68909f,,,,,,,,,,,541.576,542.576,,,543.068,543.324,,127,307,,,,,,,,,,,,,,,,bars/014.png,bars/mask006.png,,,,,,,,,,,,0,1,,,,,,,4,10,2,9,,,,,,,,,,,542.576,543.068,543.324,552.727,space,9.345,,552.727,47,53,553.701,553.701,554.985,space,1.221,,0,18,18,18,1,80,0,,,,,,,,
,,652871abf3042f76d3105444,65af554b941b6f73074ccf8c,2024-01-23_07h00.06.392,bars,2023.2.3,Win32,16.39344262,657b66ea316d21385b68909f,,,,,,,,,,,554.986,555.97,,,556.451,556.7,,166,166,,,,,,,,,,,,,,,,bars/038.png,bars/mask007.png,,,,,,,,,,,,3,1,,,,,,,2,10,3,10,,,,,,,,,,,555.97,556.451,556.7,562.05,space,5.291,,562.05,1,84,563.044,563.044,565.07,space,1.959,,0,19,19,19,1,165,70,,,,,,,,
,,652871abf3042f76d3105444,65af554b941b6f73074ccf8c,2024-01-23_07h00.06.392,bars,2023.2.3,Win32,16.39344262,657b66ea316d21385b68909f,,,,,,,,,,,565.07,566.083,,,566.554,566.79,,52,52,,,,,,,,,,,,,,,,bars/025.png,bars/mask008.png,,,,,,,,,,,,5,2,,,,,,,0,8,0,8,,,,,,,,,,,566.083,566.554,566.79,568.294,space,1.444,,568.294,53,12,569.29,569.29,570.976,space,1.628,,0,20,20,20,1,105,40,,,,,,,,
,,652871abf3042f76d3105444,65af554b941b6f73074ccf8c,2024-01-23_07h00.06.392,bars,2023.2.3,Win32,16.39344262,657b66ea316d21385b68909f,,,,,,,,,,,570.976,571.972,,,572.459,572.707,,58,58,,,,,,,,,,,,,,,,bars/034.png,bars/mask004.png,,,,,,,,,,,,8,2,,,,,,,0,10,3,10,,,,,,,,,,,571.972,572.459,572.707,575.578,space,2.814,,575.578,67,7,576.555,576.556,578.487,space,1.867,,0,21,21,21,1,125,65,,,,,,,,
,,652871abf3042f76d3105444,65af554b941b6f73074ccf8c,2024-01-23_07h00.06.392,bars,2023.2.3,Win32,16.39344262,657b66ea316d21385b68909f,,,,,,,,,,,578.487,579.489,,,579.959,580.198,,53,53,,,,,,,,,,,,,,,,bars/001.png,bars/mask003.png,,,,,,,,,,,,0,2,,,,,,,2,10,3,9,,,,,,,,,,,579.489,579.959,580.198,582.201,space,1.947,,582.201,77,32,583.209,583.209,584.132,space,0.858,,0,22,22,22,1,130,85,,,,,,,,
,,652871abf3042f76d3105444,65af554b941b6f73074ccf8c,2024-01-23_07h00.06.392,bars,2023.2.3,Win32,16.39344262,657b66ea316d21385b68909f,,,,,,,,,,,584.132,585.132,,,585.625,585.866,,112,112,,,,,,,,,,,,,,,,bars/011.png,bars/mask009.png,,,,,,,,,,,,1,2,,,,,,,0,8,0,8,,,,,,,,,,,585.132,585.625,585.866,588.245,space,2.326,,588.245,48,27,589.246,589.246,591.726,space,2.409,,0,23,23,23,1,160,85,,,,,,,,
,,652871abf3042f76d3105444,65af554b941b6f73074ccf8c,2024-01-23_07h00.06.392,bars,2023.2.3,Win32,16.39344262,657b66ea316d21385b68909f,,,,,,,,,,,591.726,592.708,,,593.2,593.444,,67,67,,,,,,,,,,,,,,,,bars/022.png,bars/mask007.png,,,,,,,,,,,,0,1,,,,,,,2,10,1,10,,,,,,,,,,,592.708,593.2,593.444,601.251,space,7.747,,601.251,28,47,602.236,602.236,605.219,space,2.923,,0,24,24,24,1,95,20,,,,,,,,
,,652871abf3042f76d3105444,65af554b941b6f73074ccf8c,2024-01-23_07h00.06.392,bars,2023.2.3,Win32,16.39344262,657b66ea316d21385b68909f,,,,,,,,,,,605.224,606.189,,,606.679,606.922,,114,114,,,,,,,,,,,,,,,,bars/017.png,bars/mask004.png,,,,,,,,,,,,0,1,,,,,,,4,8,3,8,,,,,,,,,,,606.189,606.679,606.922,608.712,space,1.729,,608.712,31,69,609.709,609.709,613.102,space,3.329,,0,25,25,25,1,145,45,,,,,,,,
,,652871abf3042f76d3105444,65af554b941b6f73074ccf8c,2024-01-23_07h00.06.392,bars,2023.2.3,Win32,16.39344262,657b66ea316d21385b68909f,,,,,,,,,,,613.102,614.093,,,614.581,614.816,,26,206,,,,,,,,,,,,,,,,bars/037.png,bars/mask000.png,,,,,,,,,,,,0,1,,,,,,,6,10,6,9,,,,,,,,,,,614.093,614.581,614.816,617.827,space,2.948,,617.827,56,79,618.816,618.816,623.913,space,5.031,,0,26,26,26,1,150,105,,,,,,,,
,,652871abf3042f76d3105444,65af554b941b6f73074ccf8c,2024-01-23_07h00.06.392,bars,2023.2.3,Win32,16.39344262,657b66ea316d21385b68909f,,,,,,,,,,,623.918,624.928,,,625.435,625.675,,19,199,,,,,,,,,,,,,,,,bars/021.png,bars/mask008.png,,,,,,,,,,,,0,1,,,,,,,4,10,5,10,,,,,,,,,,,624.928,625.435,625.675,630.426,space,4.693,,630.426,44,51,631.437,631.437,634.2,space,2.697,,0,27,27,27,1,155,70,,,,,,,,
,,652871abf3042f76d3105444,65af554b941b6f73074ccf8c,2024-01-23_07h00.06.392,bars,2023.2.3,Win32,16.39344262,657b66ea316d21385b68909f,,,,,,,,,,,634.2,635.204,,,635.682,635.928,,35,215,,,,,,,,,,,,,,,,bars/044.png,bars/mask003.png,,,,,,,,,,,,0,1,,,,,,,6,10,7,10,,,,,,,,,,,635.204,635.682,635.928,641.855,space,5.866,,641.855,40,60,642.852,642.852,647.353,space,4.434,,0,28,28,28,1,75,155,,,,,,,,
,,652871abf3042f76d3105444,65af554b941b6f73074ccf8c,2024-01-23_07h00.06.392,bars,2023.2.3,Win32,16.39344262,657b66ea316d21385b68909f,,,,,,,,,,,647.357,648.312,,,648.795,649.03,,89,89,,,,,,,,,,,,,,,,bars/036.png,bars/mask007.png,,,,,,,,,,,,0,1,,,,,,,4,10,4,9,,,,,,,,,,,648.312,648.795,649.031,650.149,space,1.061,,650.149,56,69,651.133,651.133,652.307,space,1.115,,0,29,29,29,1,145,20,,,,,,,,
,,652871abf3042f76d3105444,65af554b941b6f73074ccf8c,2024-01-23_07h00.06.392,bars,2023.2.3,Win32,16.39344262,657b66ea316d21385b68909f,,,,,,,,,,,652.308,653.316,,,653.814,654.063,,44,44,,,,,,,,,,,,,,,,bars/034.png,bars/mask008.png,,,,,,,,,,,,2,2,,,,,,,6,8,6,8,,,,,,,,,,,653.316,653.814,654.063,656.398,space,2.275,,656.398,81,21,657.363,657.363,658.205,space,0.78,,0,30,30,30,1,125,65,,,,,,,,
,,652871abf3042f76d3105444,65af554b941b6f73074ccf8c,2024-01-23_07h00.06.392,bars,2023.2.3,Win32,16.39344262,657b66ea316d21385b68909f,,,,,,,,,,,658.206,659.201,,,659.684,659.919,,44,44,,,,,,,,,,,,,,,,bars/049.png,bars/mask003.png,,,,,,,,,,,,0,1,,,,,,,4,6,5,6,,,,,,,,,,,659.201,659.684,659.919,663.623,space,3.643,,663.623,64,71,664.625,664.625,665.446,space,0.754,,0,31,31,31,1,160,115,,,,,,,,
,,652871abf3042f76d3105444,65af554b941b6f73074ccf8c,2024-01-23_07h00.06.392,bars,2023.2.3,Win32,16.39344262,657b66ea316d21385b68909f,,,,,,,,,,,665.447,666.462,,,666.97,667.205,,41,221,,,,,,,,,,,,,,,,bars/031.png,bars/mask008.png,,,,,,,,,,,,5,2,,,,,,,2,8,1,6,,,,,,,,,,,666.462,666.97,667.205,671.704,space,4.44,,671.704,79,6,672.697,672.697,673.946,space,1.173,,0,32,32,32,1,120,35,,,,,,,,
,,652871abf3042f76d3105444,65af554b941b6f73074ccf8c,2024-01-23_07h00.06.392,bars,2023.2.3,Win32,16.39344262,657b66ea316d21385b68909f,,,,,,,,,,,673.946,674.955,,,675.439,675.699,,113,113,,,,,,,,,,,,,,,,bars/023.png,bars/mask005.png,,,,,,,,,,,,6,2,,,,,,,0,6,0,6,,,,,,,,,,,674.955,675.439,675.699,678.928,space,3.171,,678.928,87,2,679.936,679.936,684.137,space,4.136,,0,33,33,33,1,20,115,,,,,,,,
,,652871abf3042f76d3105444,65af554b941b6f73074ccf8c,2024-01-23_07h00.06.392,bars,2023.2.3,Win32,16.39344262,657b66ea316d21385b68909f,,,,,,,,,,,684.141,685.149,,,685.65,685.898,,117,117,,,,,,,,,,,,,,,,bars/029.png,bars/mask001.png,,,,,,,,,,,,0,1,,,,,,,2,8,3,9,,,,,,,,,,,685.149,685.65,685.898,687.914,space,1.951,,687.914,27,72,688.875,688.875,691.407,space,2.47,,0,34,34,34,1,90,45,,,,,,,,
,,652871abf3042f76d3105444,65af554b941b6f73074ccf8c,2024-01-23_07h00.06.392,bars,2023.2.3,Win32,16.39344262,657b66ea316d21385b68909f,,,,,,,,,,,691.407,692.384,,,692.884,693.125,,139,139,,,,,,,,,,,,,,,,bars/010.png,bars/mask008.png,,,,,,,,,,,,0,1,,,,,,,0,10,0,9,,,,,,,,,,,692.384,692.884,693.125,698.254,space,5.069,,698.254,26,84,699.244,699.244,700.695,space,1.389,,0,35,35,35,1,165,55,,,,,,,,
,,652871abf3042f76d3105444,65af554b941b6f73074ccf8c,2024-01-23_07h00.06.392,bars,2023.2.3,Win32,16.39344262,657b66ea316d21385b68909f,,,,,,,,,,,700.696,701.666,,,702.155,702.387,,13,193,,,,,,,,,,,,,,,,bars/000.png,bars/mask006.png,,,,,,,,,,,,0,1,,,,,,,0,8,0,9,,,,,,,,,,,701.666,702.155,702.387,706.301,space,3.855,,706.301,27,48,707.304,707.304,707.7,space,0.329,,0,36,36,36,1,40,145,,,,,,,,
,,652871abf3042f76d3105444,65af554b941b6f73074ccf8c,2024-01-23_07h00.06.392,bars,2023.2.3,Win32,16.39344262,657b66ea316d21385b68909f,,,,,,,,,,,707.7,708.674,,,709.172,709.399,,32,32,,,,,,,,,,,,,,,,bars/011.png,bars/mask005.png,,,,,,,,,,,,0,1,,,,,,,2,6,3,6,,,,,,,,,,,708.674,709.172,709.399,711.95,space,2.492,,711.95,52,53,712.94,712.94,713.359,space,0.355,,0,37,37,37,1,160,85,,,,,,,,
,,652871abf3042f76d3105444,65af554b941b6f73074ccf8c,2024-01-23_07h00.06.392,bars,2023.2.3,Win32,16.39344262,657b66ea316d21385b68909f,,,,,,,,,,,713.359,714.362,,,714.86,715.101,,114,114,,,,,,,,,,,,,,,,bars/040.png,bars/mask004.png,,,,,,,,,,,,1,1,,,,,,,4,8,4,7,,,,,,,,,,,714.362,714.86,715.101,719.263,space,4.102,,719.263,26,71,720.265,720.265,720.777,space,0.455,,0,38,38,38,1,140,5,,,,,,,,
,,652871abf3042f76d3105444,65af554b941b6f73074ccf8c,2024-01-23_07h00.06.392,bars,2023.2.3,Win32,16.39344262,657b66ea316d21385b68909f,,,,,,,,,,,720.778,721.766,,,722.249,722.502,,152,152,,,,,,,,,,,,,,,,bars/004.png,bars/mask005.png,,,,,,,,,,,,1,2,,,,,,,2,6,1,6,,,,,,,,,,,721.766,722.249,722.502,726.382,space,3.821,,726.382,53,27,727.349,727.349,746.768,space,19.358,,0,39,39,39,1,25,125,,,,,,,,
,,652871abf3042f76d3105444,65af554b941b6f73074ccf8c,2024-01-23_07h00.06.392,bars,2023.2.3,Win32,16.39344262,657b66ea316d21385b68909f,,,,,,,,,,,746.773,747.785,,,748.245,748.482,,54,54,,,,,,,,,,,,,,,,bars/023.png,bars/mask006.png,,,,,,,,,,,,0,1,,,,,,,0,4,0,3,,,,,,,,,,,747.785,748.245,748.482,751.157,space,2.619,,751.157,34,61,752.122,752.122,754.559,space,2.373,,0,40,40,40,1,20,115,,,,,,,,
,,652871abf3042f76d3105444,65af554b941b6f73074ccf8c,2024-01-23_07h00.06.392,bars,2023.2.3,Win32,16.39344262,657b66ea316d21385b68909f,,,,,,,,,,,754.56,755.563,,,756.036,756.277,,53,53,,,,,,,,,,,,,,,,bars/011.png,bars/mask000.png,,,,,,,,,,,,0,2,,,,,,,2,6,1,5,,,,,,,,,,,755.563,756.036,756.277,762.005,space,5.667,,762.005,73,32,763.01,763.01,764.057,space,0.968,,0,41,41,41,1,160,85,,,,,,,,
,,652871abf3042f76d3105444,65af554b941b6f73074ccf8c,2024-01-23_07h00.06.392,bars,2023.2.3,Win32,16.39344262,657b66ea316d21385b68909f,,,,,,,,,,,764.057,765.033,,,765.519,765.75,,50,50,,,,,,,,,,,,,,,,bars/003.png,bars/mask008.png,,,,,,,,,,,,1,1,,,,,,,4,8,4,7,,,,,,,,,,,765.033,765.519,765.75,767.781,space,1.976,,767.781,25,90,768.787,768.787,770.314,space,1.458,,0,42,42,42,1,25,140,,,,,,,,
,,652871abf3042f76d3105444,65af554b941b6f73074ccf8c,2024-01-23_07h00.06.392,bars,2023.2.3,Win32,16.39344262,657b66ea316d21385b68909f,,,,,,,,,,,770.314,771.298,,,771.776,772.013,,40,40,,,,,,,,,,,,,,,,bars/006.png,bars/mask001.png,,,,,,,,,,,,3,1,,,,,,,2,6,3,5,,,,,,,,,,,771.298,771.776,772.013,774.883,space,2.81,,774.883,5,60,775.873,775.874,776.839,space,0.903,,0,43,43,43,1,35,100,,,,,,,,
,,652871abf3042f76d3105444,65af554b941b6f73074ccf8c,2024-01-23_07h00.06.392,bars,2023.2.3,Win32,16.39344262,657b66ea316d21385b68909f,,,,,,,,,,,776.839,777.822,,,778.29,778.525,,131,131,,,,,,,,,,,,,,,,bars/044.png,bars/mask000.png,,,,,,,,,,,,2,2,,,,,,,4,8,6,9,,,,,,,,,,,777.822,778.29,778.525,780.188,space,1.606,,780.188,56,24,781.185,781.185,781.835,space,0.59,,0,44,44,44,1,75,155,,,,,,,,
,,652871abf3042f76d3105444,65af554b941b6f73074ccf8c,2024-01-23_07h00.06.392,bars,2023.2.3,Win32,16.39344262,657b66ea316d21385b68909f,,,,,,,,,,,781.835,782.824,,,783.314,783.55,,23,203,,,,,,,,,,,,,,,,bars/021.png,bars/mask006.png,,,,,,,,,,,,0,2,,,,,,,2,6,1,6,,,,,,,,,,,782.824,783.314,783.55,786.19,space,2.584,,786.19,48,47,787.182,787.182,787.752,space,0.512,,0,45,45,45,1,155,70,,,,,,,,
,,652871abf3042f76d3105444,65af554b941b6f73074ccf8c,2024-01-23_07h00.06.392,bars,2023.2.3,Win32,16.39344262,657b66ea316d21385b68909f,,,,,,,,,,,787.753,788.725,,,789.209,789.455,,124,124,,,,,,,,,,,,,,,,bars/026.png,bars/mask002.png,,,,,,,,,,,,0,2,,,,,,,4,8,4,7,,,,,,,,,,,788.725,789.209,789.455,791.141,space,1.625,,791.141,89,39,792.129,792.129,792.702,space,0.506,,0,46,46,46,1,35,85,,,,,,,,
,,652871abf3042f76d3105444,65af554b941b6f73074ccf8c,2024-01-23_07h00.06.392,bars,2023.2.3,Win32,16.39344262,657b66ea316d21385b68909f,,,,,,,,,,,792.703,793.68,,,794.159,794.399,,119,119,,,,,,,,,,,,,,,,bars/011.png,bars/mask006.png,,,,,,,,,,,,0,2,,,,,,,6,6,7,5,,,,,,,,,,,793.68,794.159,794.399,796.002,space,1.546,,796.002,41,34,796.991,796.991,797.53,space,0.474,,0,47,47,47,1,160,85,,,,,,,,
,,652871abf3042f76d3105444,65af554b941b6f73074ccf8c,2024-01-23_07h00.06.392,bars,2023.2.3,Win32,16.39344262,657b66ea316d21385b68909f,,,,,,,,,,,797.53,798.523,,,799.002,799.243,,49,49,,,,,,,,,,,,,,,,bars/009.png,bars/mask006.png,,,,,,,,,,,,0,1,,,,,,,8,8,7,10,,,,,,,,,,,798.523,799.002,799.243,801.116,space,1.814,,801.116,34,56,802.134,802.134,802.678,space,0.487,,0,48,48,48,1,15,105,,,,,,,,
,,652871abf3042f76d3105444,65af554b941b6f73074ccf8c,2024-01-23_07h00.06.392,bars,2023.2.3,Win32,16.39344262,657b66ea316d21385b68909f,,,,,,,,,,,802.678,803.635,,,804.096,804.329,,99,99,,,,,,,,,,,,,,,,bars/022.png,bars/mask006.png,,,,,,,,,,,,9,1,,,,,,,10,6,10,6,,,,,,,,,,,803.635,804.096,804.329,807.461,space,3.064,,807.461,4,79,808.44,808.44,809.731,space,1.232,,0,49,49,49,1,95,20,,,,,,,,
,,652871abf3042f76d3105444,65af554b941b6f73074ccf8c,2024-01-23_07h00.06.392,bars,2023.2.3,Win32,16.39344262,657b66ea316d21385b68909f,,,,,,,,,,,,,,,,,,,,,,,,,,,,,,,,,,,,,,,,,,,,,,,,,,,,,,,,,,,,,,,,,,,,,,,,,,,,,,,,,,,,,,,,,,,,,809.731,869.689,0,0,0,1,1,sequence_tables/blk049.csv
,,652871abf3042f76d3105444,65af554b941b6f73074ccf8c,2024-01-23_07h00.06.392,bars,2023.2.3,Win32,16.39344262,657b66ea316d21385b68909f,,,,,,,,,,,889.217,890.199,,,890.695,890.933,,52,52,,,,,,,,,,,,,,,,bars/048.png,bars/mask008.png,,,,,,,,,,,,5,1,,,,,,,5,9,5,7,,,,,,869.694,889.21,space,19.463,,890.199,890.695,890.933,894.202,space,3.213,,894.202,2,57,895.201,895.201,895.207,,,,0,0,0,0,1,50,175,,,,,,,,
,,652871abf3042f76d3105444,65af554b941b6f73074ccf8c,2024-01-23_07h00.06.392,bars,2023.2.3,Win32,16.39344262,657b66ea316d21385b68909f,,,,,,,,,,,895.207,896.196,,,896.682,896.924,,161,161,,,,,,,,,,,,,,,,bars/035.png,bars/mask003.png,,,,,,,,,,,,5,1,,,,,,,7,7,10,5,,,,,,,,,,,896.196,896.682,896.924,899.343,space,2.365,,899.343,14,79,900.345,900.345,900.349,,,,0,1,1,1,1,175,60,,,,,,,,
,,652871abf3042f76d3105444,65af554b941b6f73074ccf8c,2024-01-23_07h00.06.392,bars,2023.2.3,Win32,16.39344262,657b66ea316d21385b68909f,,,,,,,,,,,900.35,901.355,,,901.842,902.08,,156,-24,,,,,,,,,,,,,,,,bars/018.png,bars/mask001.png,,,,,,,,,,,,5,1,,,,,,,5,5,6,3,,,,,,,,,,,901.355,901.842,902.08,907.63,space,5.497,,907.63,6,66,908.617,908.617,908.622,,,,0,2,2,2,1,150,90,,,,,,,,
,,652871abf3042f76d3105444,65af554b941b6f73074ccf8c,2024-01-23_07h00.06.392,bars,2023.2.3,Win32,16.39344262,657b66ea316d21385b68909f,,,,,,,,,,,908.622,909.629,,,910.099,910.333,,54,54,,,,,,,,,,,,,,,,bars/031.png,bars/mask008.png,,,,,,,,,,,,2,2,,,,,,,7,3,6,6,,,,,,,,,,,909.629,910.099,910.333,916.982,space,6.588,,916.982,66,19,917.999,917.999,918.004,,,,0,3,3,3,1,120,35,,,,,,,,
,,652871abf3042f76d3105444,65af554b941b6f73074ccf8c,2024-01-23_07h00.06.392,bars,2023.2.3,Win32,16.39344262,657b66ea316d21385b68909f,,,,,,,,,,,918.004,919.009,,,919.499,919.751,,159,159,,,,,,,,,,,,,,,,bars/040.png,bars/mask007.png,,,,,,,,,,,,3,1,,,,,,,9,5,9,6,,,,,,,,,,,919.009,919.499,919.751,924.101,space,4.294,,924.101,19,26,925.091,925.091,925.096,,,,0,4,4,4,1,140,5,,,,,,,,
,,652871abf3042f76d3105444,65af554b941b6f73074ccf8c,2024-01-23_07h00.06.392,bars,2023.2.3,Win32,16.39344262,657b66ea316d21385b68909f,,,,,,,,,,,925.096,926.094,,,926.577,926.839,,51,51,,,,,,,,,,,,,,,,bars/005.png,bars/mask005.png,,,,,,,,,,,,0,1,,,,,,,10,7,9,6,,,,,,,,,,,926.094,926.577,926.839,930.759,space,3.865,,930.759,41,89,931.764,931.764,931.769,,,,0,5,5,5,1,10,140,,,,,,,,
,,652871abf3042f76d3105444,65af554b941b6f73074ccf8c,2024-01-23_07h00.06.392,bars,2023.2.3,Win32,16.39344262,657b66ea316d21385b68909f,,,,,,,,,,,931.769,932.746,,,933.225,933.456,,63,63,,,,,,,,,,,,,,,,bars/019.png,bars/mask004.png,,,,,,,,,,,,3,1,,,,,,,8,5,7,4,,,,,,,,,,,932.746,933.225,933.456,934.938,space,1.427,,934.938,18,42,935.93,935.931,935.931,,,,0,6,6,6,1,45,105,,,,,,,,
,,652871abf3042f76d3105444,65af554b941b6f73074ccf8c,2024-01-23_07h00.06.392,bars,2023.2.3,Win32,16.39344262,657b66ea316d21385b68909f,,,,,,,,,,,935.931,936.884,,,937.371,937.604,,165,-15,,,,,,,,,,,,,,,,bars/040.png,bars/mask007.png,,,,,,,,,,,,3,2,,,,,,,6,7,6,8,,,,,,,,,,,936.884,937.371,937.604,940.626,space,2.965,,940.626,25,20,941.625,941.625,941.627,,,,0,7,7,7,1,140,5,,,,,,,,
,,652871abf3042f76d3105444,65af554b941b6f73074ccf8c,2024-01-23_07h00.06.392,bars,2023.2.3,Win32,16.39344262,657b66ea316d21385b68909f,,,,,,,,,,,941.627,942.616,,,943.109,943.346,,36,36,,,,,,,,,,,,,,,,bars/007.png,bars/mask009.png,,,,,,,,,,,,2,2,,,,,,,8,5,9,6,,,,,,,,,,,942.616,943.109,943.346,945.565,space,2.163,,945.565,41,19,946.545,946.545,946.545,,,,0,8,8,8,1,175,55,,,,,,,,
,,652871abf3042f76d3105444,65af554b941b6f73074ccf8c,2024-01-23_07h00.06.392,bars,2023.2.3,Win32,16.39344262,657b66ea316d21385b68909f,,,,,,,,,,,946.545,947.524,,,948.024,948.266,,20,20,,,,,,,,,,,,,,,,bars/035.png,bars/mask002.png,,,,,,,,,,,,2,1,,,,,,,10,7,10,8,,,,,,,,,,,947.524,948.024,948.266,950.802,space,2.471,,950.802,25,40,951.81,951.81,951.811,,,,0,9,9,9,1,175,60,,,,,,,,
,,652871abf3042f76d3105444,65af554b941b6f73074ccf8c,2024-01-23_07h00.06.392,bars,2023.2.3,Win32,16.39344262,657b66ea316d21385b68909f,,,,,,,,,,,951.811,952.785,,,953.293,953.529,,9,9,,,,,,,,,,,,,,,,bars/016.png,bars/mask000.png,,,,,,,,,,,,2,2,,,,,,,8,9,8,9,,,,,,,,,,,952.785,953.293,953.529,958.654,space,5.071,,958.654,31,24,959.628,959.628,959.628,,,,0,10,10,10,1,40,165,,,,,,,,
,,652871abf3042f76d3105444,65af554b941b6f73074ccf8c,2024-01-23_07h00.06.392,bars,2023.2.3,Win32,16.39344262,657b66ea316d21385b68909f,,,,,,,,,,,959.628,960.583,,,961.089,961.326,,172,172,,,,,,,,,,,,,,,,bars/038.png,bars/mask008.png,,,,,,,,,,,,4,1,,,,,,,6,10,5,10,,,,,,,,,,,960.583,961.089,961.326,962.489,space,1.108,,962.489,7,78,963.493,963.493,963.494,,,,0,11,11,11,1,165,70,,,,,,,,
,,652871abf3042f76d3105444,65af554b941b6f73074ccf8c,2024-01-23_07h00.06.392,bars,2023.2.3,Win32,16.39344262,657b66ea316d21385b68909f,,,,,,,,,,,963.495,964.5,,,964.993,965.234,,115,115,,,,,,,,,,,,,,,,bars/040.png,bars/mask004.png,,,,,,,,,,,,2,1,,,,,,,8,10,10,8,,,,,,,,,,,964.5,964.993,965.234,969.67,space,4.378,,969.67,25,70,970.659,970.659,970.659,,,,0,12,12,12,1,140,5,,,,,,,,
,,652871abf3042f76d3105444,65af554b941b6f73074ccf8c,2024-01-23_07h00.06.392,bars,2023.2.3,Win32,16.39344262,657b66ea316d21385b68909f,,,,,,,,,,,970.659,971.643,,,972.114,972.358,,158,-22,,,,,,,,,,,,,,,,bars/046.png,bars/mask008.png,,,,,,,,,,,,9,1,,,,,,,10,10,10,8,,,,,,,,,,,971.643,972.114,972.358,976.085,space,3.669,,976.085,3,73,977.088,977.088,977.09,,,,0,13,13,13,1,155,85,,,,,,,,
,,652871abf3042f76d3105444,65af554b941b6f73074ccf8c,2024-01-23_07h00.06.392,bars,2023.2.3,Win32,16.39344262,657b66ea316d21385b68909f,,,,,,,,,,,977.09,978.075,,,978.554,978.805,,16,16,,,,,,,,,,,,,,,,bars/041.png,bars/mask000.png,,,,,,,,,,,,6,1,,,,,,,8,8,7,8,,,,,,,,,,,978.075,978.554,978.805,980.848,space,1.989,,980.848,4,69,981.835,981.835,981.836,,,,0,14,14,14,1,20,85,,,,,,,,
,,652871abf3042f76d3105444,65af554b941b6f73074ccf8c,2024-01-23_07h00.06.392,bars,2023.2.3,Win32,16.39344262,657b66ea316d21385b68909f,,,,,,,,,,,981.836,982.811,,,983.306,983.561,,164,-16,,,,,,,,,,,,,,,,bars/000.png,bars/mask009.png,,,,,,,,,,,,2,2,,,,,,,6,6,7,6,,,,,,,,,,,982.811,983.306,983.561,987.831,space,4.216,,987.832,56,19,988.817,988.817,988.818,,,,0,15,15,15,1,40,145,,,,,,,,
,,652871abf3042f76d3105444,65af554b941b6f73074ccf8c,2024-01-23_07h00.06.392,bars,2023.2.3,Win32,16.39344262,657b66ea316d21385b68909f,,,,,,,,,,,988.818,989.8,,,990.302,990.542,,106,-74,,,,,,,,,,,,,,,,bars/034.png,bars/mask007.png,,,,,,,,,,,,3,1,,,,,,,8,4,7,2,,,,,,,,,,,989.8,990.302,990.542,997.459,space,6.863,,997.459,19,41,998.45,998.45,998.452,,,,0,16,16,16,1,125,65,,,,,,,,
,,652871abf3042f76d3105444,65af554b941b6f73074ccf8c,2024-01-23_07h00.06.392,bars,2023.2.3,Win32,16.39344262,657b66ea316d21385b68909f,,,,,,,,,,,998.452,999.466,,,999.951,1000.189,,171,171,,,,,,,,,,,,,,,,bars/007.png,bars/mask004.png,,,,,,,,,,,,8,1,,,,,,,10,2,9,2,,,,,,,,,,,999.466,999.951,1000.189,1002.219,space,1.975,,1002.219,4,64,1003.228,1003.228,1003.229,,,,0,17,17,17,1,175,55,,,,,,,,
,,652871abf3042f76d3105444,65af554b941b6f73074ccf8c,2024-01-23_07h00.06.392,bars,2023.2.3,Win32,16.39344262,657b66ea316d21385b68909f,,,,,,,,,,,1003.229,1004.211,,,1004.687,1004.919,,33,33,,,,,,,,,,,,,,,,bars/035.png,bars/mask009.png,,,,,,,,,,,,0,2,,,,,,,8,0,6,0,,,,,,,,,,,1004.211,1004.687,1004.919,1007.679,space,2.702,,1007.679,38,27,1008.644,1008.644,1008.644,,,,0,18,18,18,1,175,60,,,,,,,,
,,652871abf3042f76d3105444,65af554b941b6f73074ccf8c,2024-01-23_07h00.06.392,bars,2023.2.3,Win32,16.39344262,657b66ea316d21385b68909f,,,,,,,,,,,1008.644,1009.651,,,1010.137,1010.372,,53,53,,,,,,,,,,,,,,,,bars/006.png,bars/mask005.png,,,,,,,,,,,,4,1,,,,,,,10,0,10,2,,,,,,,,,,,1009.651,1010.137,1010.372,1013.683,space,3.259,,1013.683,18,47,1014.696,1014.696,1014.697,,,,0,19,19,19,1,35,100,,,,,,,,
,,652871abf3042f76d3105444,65af554b941b6f73074ccf8c,2024-01-23_07h00.06.392,bars,2023.2.3,Win32,16.39344262,657b66ea316d21385b68909f,,,,,,,,,,,1014.697,1015.7,,,1016.166,1016.405,,29,29,,,,,,,,,,,,,,,,bars/048.png,bars/mask001.png,,,,,,,,,,,,3,1,,,,,,,10,0,10,0,,,,,,,,,,,1015.7,1016.166,1016.405,1019.596,space,3.136,,1019.596,21,34,1020.609,1020.61,1020.614,,,,0,20,20,20,1,50,175,,,,,,,,
,,652871abf3042f76d3105444,65af554b941b6f73074ccf8c,2024-01-23_07h00.06.392,bars,2023.2.3,Win32,16.39344262,657b66ea316d21385b68909f,,,,,,,,,,,1020.614,1021.582,,,1022.074,1022.331,,40,40,,,,,,,,,,,,,,,,bars/006.png,bars/mask003.png,,,,,,,,,,,,4,1,,,,,,,8,0,5,0,,,,,,,,,,,1021.582,1022.074,1022.331,1024.805,space,2.419,,1024.805,5,60,1025.799,1025.799,1025.799,,,,0,21,21,21,1,35,100,,,,,,,,
,,652871abf3042f76d3105444,65af554b941b6f73074ccf8c,2024-01-23_07h00.06.392,bars,2023.2.3,Win32,16.39344262,657b66ea316d21385b68909f,,,,,,,,,,,1025.799,1026.794,,,1027.276,1027.515,,118,118,,,,,,,,,,,,,,,,bars/034.png,bars/mask001.png,,,,,,,,,,,,7,1,,,,,,,10,0,9,0,,,,,,,,,,,1026.794,1027.276,1027.515,1028.719,space,1.146,0.001,1028.719,7,53,1029.705,1029.705,1029.705,,,,0,22,22,22,1,125,65,,,,,,,,
,,652871abf3042f76d3105444,65af554b941b6f73074ccf8c,2024-01-23_07h00.06.392,bars,2023.2.3,Win32,16.39344262,657b66ea316d21385b68909f,,,,,,,,,,,1029.705,1030.69,,,1031.165,1031.4,,83,83,,,,,,,,,,,,,,,,bars/030.png,bars/mask007.png,,,,,,,,,,,,0,2,,,,,,,10,2,9,1,,,,,,,,,,,1030.69,1031.165,1031.4,1035.375,space,3.918,,1035.375,57,18,1036.356,1036.356,1036.358,,,,0,23,23,23,1,140,65,,,,,,,,
,,652871abf3042f76d3105444,65af554b941b6f73074ccf8c,2024-01-23_07h00.06.392,bars,2023.2.3,Win32,16.39344262,657b66ea316d21385b68909f,,,,,,,,,,,1036.358,1037.349,,,1037.842,1038.081,,130,130,,,,,,,,,,,,,,,,bars/001.png,bars/mask001.png,,,,,,,,,,,,8,1,,,,,,,8,0,8,0,,,,,,,,,,,1037.349,1037.842,1038.081,1039.737,space,1.604,,1039.737,0,45,1040.74,1040.74,1040.746,,,,0,24,24,24,1,130,85,,,,,,,,
,,652871abf3042f76d3105444,65af554b941b6f73074ccf8c,2024-01-23_07h00.06.392,bars,2023.2.3,Win32,16.39344262,657b66ea316d21385b68909f,,,,,,,,,,,1040.746,1041.733,,,1042.214,1042.45,,125,125,,,,,,,,,,,,,,,,bars/034.png,bars/mask009.png,,,,,,,,,,,,4,1,,,,,,,6,0,4,0,,,,,,,,,,,1041.733,1042.214,1042.45,1047.543,space,5.039,,1047.543,0,60,1048.537,1048.537,1048.542,,,,0,25,25,25,1,125,65,,,,,,,,
,,652871abf3042f76d3105444,65af554b941b6f73074ccf8c,2024-01-23_07h00.06.392,bars,2023.2.3,Win32,16.39344262,657b66ea316d21385b68909f,,,,,,,,,,,1048.543,1049.535,,,1050.014,1050.241,,145,145,,,,,,,,,,,,,,,,bars/004.png,bars/mask003.png,,,,,,,,,,,,0,2,,,,,,,4,2,3,1,,,,,,,,,,,1049.535,1050.014,1050.241,1053.188,space,2.893,,1053.188,60,20,1054.147,1054.147,1054.148,,,,0,26,26,26,1,25,125,,,,,,,,
,,652871abf3042f76d3105444,65af554b941b6f73074ccf8c,2024-01-23_07h00.06.392,bars,2023.2.3,Win32,16.39344262,657b66ea316d21385b68909f,,,,,,,,,,,1054.148,1055.098,,,1055.583,1055.819,,62,62,,,,,,,,,,,,,,,,bars/039.png,bars/mask006.png,,,,,,,,,,,,0,2,,,,,,,2,0,2,0,,,,,,,,,,,1055.098,1055.583,1055.819,1056.764,space,0.888,,1056.764,67,43,1057.756,1057.756,1057.756,,,,0,27,27,27,1,175,105,,,,,,,,
,,652871abf3042f76d3105444,65af554b941b6f73074ccf8c,2024-01-23_07h00.06.392,bars,2023.2.3,Win32,16.39344262,657b66ea316d21385b68909f,,,,,,,,,,,1057.756,1058.754,,,1059.235,1059.474,,58,58,,,,,,,,,,,,,,,,bars/023.png,bars/mask000.png,,,,,,,,,,,,0,1,,,,,,,0,2,1,1,,,,,,,,,,,1058.754,1059.235,1059.474,1062.13,space,2.595,,1062.13,38,57,1063.132,1063.132,1063.137,,,,0,28,28,28,1,20,115,,,,,,,,
,,652871abf3042f76d3105444,65af554b941b6f73074ccf8c,2024-01-23_07h00.06.392,bars,2023.2.3,Win32,16.39344262,657b66ea316d21385b68909f,,,,,,,,,,,1063.137,1064.1,,,1064.59,1064.829,,130,130,,,,,,,,,,,,,,,,bars/004.png,bars/mask008.png,,,,,,,,,,,,0,2,,,,,,,2,0,3,0,,,,,,,,,,,1064.1,1064.59,1064.829,1066.947,space,2.058,,1066.947,75,5,1067.927,1067.927,1067.929,,,,0,29,29,29,1,25,125,,,,,,,,
,,652871abf3042f76d3105444,65af554b941b6f73074ccf8c,2024-01-23_07h00.06.392,bars,2023.2.3,Win32,16.39344262,657b66ea316d21385b68909f,,,,,,,,,,,1067.929,1068.915,,,1069.395,1069.634,,69,69,,,,,,,,,,,,,,,,bars/045.png,bars/mask008.png,,,,,,,,,,,,0,1,,,,,,,4,2,3,1,,,,,,,,,,,1068.915,1069.395,1069.634,1072.168,space,2.479,,1072.168,31,59,1073.141,1073.141,1073.142,,,,0,30,30,30,1,100,10,,,,,,,,
,,652871abf3042f76d3105444,65af554b941b6f73074ccf8c,2024-01-23_07h00.06.392,bars,2023.2.3,Win32,16.39344262,657b66ea316d21385b68909f,,,,,,,,,,,1073.142,1074.139,,,1074.592,1074.821,,127,127,,,,,,,,,,,,,,,,bars/045.png,bars/mask004.png,,,,,,,,,,,,0,1,,,,,,,2,4,4,5,,,,,,,,,,,1074.139,1074.592,1074.821,1079.889,space,5.006,,1079.889,27,63,1080.884,1080.884,1080.884,,,,0,31,31,31,1,100,10,,,,,,,,
,,652871abf3042f76d3105444,65af554b941b6f73074ccf8c,2024-01-23_07h00.06.392,bars,2023.2.3,Win32,16.39344262,657b66ea316d21385b68909f,,,,,,,,,,,1080.885,1081.867,,,1082.358,1082.595,,163,-17,,,,,,,,,,,,,,,,bars/025.png,bars/mask008.png,,,,,,,,,,,,0,2,,,,,,,0,6,1,5,,,,,,,,,,,1081.867,1082.358,1082.595,1083.666,space,1.015,,1083.666,58,57,1084.636,1084.636,1084.637,,,,0,32,32,32,1,105,40,,,,,,,,
,,652871abf3042f76d3105444,65af554b941b6f73074ccf8c,2024-01-23_07h00.06.392,bars,2023.2.3,Win32,16.39344262,657b66ea316d21385b68909f,,,,,,,,,,,1084.637,1085.638,,,1086.121,1086.361,,141,-39,,,,,,,,,,,,,,,,bars/037.png,bars/mask000.png,,,,,,,,,,,,0,1,,,,,,,0,8,0,8,,,,,,,,,,,1085.638,1086.121,1086.361,1090.557,space,4.144,,1090.557,9,36,1091.551,1091.551,1091.553,,,,0,33,33,33,1,150,105,,,,,,,,
,,652871abf3042f76d3105444,65af554b941b6f73074ccf8c,2024-01-23_07h00.06.392,bars,2023.2.3,Win32,16.39344262,657b66ea316d21385b68909f,,,,,,,,,,,1091.553,1092.515,,,1092.994,1093.237,,94,94,,,,,,,,,,,,,,,,bars/040.png,bars/mask006.png,,,,,,,,,,,,0,1,,,,,,,0,6,0,6,,,,,,,,,,,1092.516,1092.994,1093.237,1093.838,space,0.545,,1093.838,46,89,1094.837,1094.837,1094.838,,,,0,34,34,34,1,140,5,,,,,,,,
,,652871abf3042f76d3105444,65af554b941b6f73074ccf8c,2024-01-23_07h00.06.392,bars,2023.2.3,Win32,16.39344262,657b66ea316d21385b68909f,,,,,,,,,,,1094.838,1095.838,,,1096.313,1096.548,,31,31,,,,,,,,,,,,,,,,bars/025.png,bars/mask007.png,,,,,,,,,,,,5,2,,,,,,,0,8,0,7,,,,,,,,,,,1095.838,1096.313,1096.548,1099.162,space,2.55,,1099.162,74,9,1100.18,1100.18,1100.186,,,,0,35,35,35,1,105,40,,,,,,,,
,,652871abf3042f76d3105444,65af554b941b6f73074ccf8c,2024-01-23_07h00.06.392,bars,2023.2.3,Win32,16.39344262,657b66ea316d21385b68909f,,,,,,,,,,,1100.186,1101.155,,,1101.645,1101.883,,27,207,,,,,,,,,,,,,,,,bars/029.png,bars/mask000.png,,,,,,,,,,,,2,2,,,,,,,2,6,2,6,,,,,,,,,,,1101.155,1101.645,1101.883,1104.737,space,2.799,,1104.737,63,18,1105.702,1105.702,1105.703,,,,0,36,36,36,1,90,45,,,,,,,,
,,652871abf3042f76d3105444,65af554b941b6f73074ccf8c,2024-01-23_07h00.06.392,bars,2023.2.3,Win32,16.39344262,657b66ea316d21385b68909f,,,,,,,,,,,1105.703,1106.72,,,1107.204,1107.45,,28,28,,,,,,,,,,,,,,,,bars/029.png,bars/mask007.png,,,,,,,,,,,,3,2,,,,,,,0,8,1,7,,,,,,,,,,,1106.72,1107.204,1107.45,1109.333,space,1.825,,1109.333,62,17,1110.291,1110.291,1110.291,,,,0,37,37,37,1,90,45,,,,,,,,
,,652871abf3042f76d3105444,65af554b941b6f73074ccf8c,2024-01-23_07h00.06.392,bars,2023.2.3,Win32,16.39344262,657b66ea316d21385b68909f,,,,,,,,,,,1110.291,1111.283,,,1111.775,1112.008,,90,90,,,,,,,,,,,,,,,,bars/005.png,bars/mask001.png,,,,,,,,,,,,0,2,,,,,,,2,10,5,9,,,,,,,,,,,1111.283,1111.775,1112.008,1114.26,space,2.197,,1114.26,80,50,1115.27,1115.27,1115.27,,,,0,38,38,38,1,10,140,,,,,,,,
,,652871abf3042f76d3105444,65af554b941b6f73074ccf8c,2024-01-23_07h00.06.392,bars,2023.2.3,Win32,16.39344262,657b66ea316d21385b68909f,,,,,,,,,,,1115.27,1116.274,,,1116.768,1117.012,,27,27,,,,,,,,,,,,,,,,bars/016.png,bars/mask001.png,,,,,,,,,,,,0,1,,,,,,,0,10,0,10,,,,,,,,,,,1116.274,1116.768,1117.012,1120.894,space,3.824,,1120.894,13,42,1121.854,1121.854,1121.856,,,,0,39,39,39,1,40,165,,,,,,,,
,,652871abf3042f76d3105444,65af554b941b6f73074ccf8c,2024-01-23_07h00.06.392,bars,2023.2.3,Win32,16.39344262,657b66ea316d21385b68909f,,,,,,,,,,,1121.856,1122.817,,,1123.29,1123.54,,31,211,,,,,,,,,,,,,,,,bars/025.png,bars/mask003.png,,,,,,,,,,,,7,2,,,,,,,2,10,3,10,,,,,,,,,,,1122.817,1123.29,1123.54,1127.565,space,3.971,,1127.565,74,9,1128.52,1128.52,1128.521,,,,0,40,40,40,1,105,40,,,,,,,,
,,652871abf3042f76d3105444,65af554b941b6f73074ccf8c,2024-01-23_07h00.06.392,bars,2023.2.3,Win32,16.39344262,657b66ea316d21385b68909f,,,,,,,,,,,1128.522,1129.535,,,1130.023,1130.268,,30,210,,,,,,,,,,,,,,,,bars/007.png,bars/mask000.png,,,,,,,,,,,,2,2,,,,,,,4,10,6,10,,,,,,,,,,,1129.535,1130.023,1130.268,1132.935,space,2.608,,1132.935,35,25,1133.927,1133.927,1133.927,,,,0,41,41,41,1,175,55,,,,,,,,
,,652871abf3042f76d3105444,65af554b941b6f73074ccf8c,2024-01-23_07h00.06.392,bars,2023.2.3,Win32,16.39344262,657b66ea316d21385b68909f,,,,,,,,,,,1133.927,1134.927,,,1135.406,1135.658,,145,145,,,,,,,,,,,,,,,,bars/040.png,bars/mask006.png,,,,,,,,,,,,2,1,,,,,,,2,10,2,10,,,,,,,,,,,1134.927,1135.406,1135.658,1136.521,space,0.8,,1136.521,5,40,1137.53,1137.53,1137.532,,,,0,42,42,42,1,140,5,,,,,,,,
,,652871abf3042f76d3105444,65af554b941b6f73074ccf8c,2024-01-23_07h00.06.392,bars,2023.2.3,Win32,16.39344262,657b66ea316d21385b68909f,,,,,,,,,,,1137.532,1138.493,,,1138.989,1139.236,,38,38,,,,,,,,,,,,,,,,bars/011.png,bars/mask004.png,,,,,,,,,,,,0,2,,,,,,,4,10,4,9,,,,,,,,,,,1138.493,1138.989,1139.236,1143.209,space,3.909,,1143.209,58,47,1144.204,1144.204,1144.209,,,,0,43,43,43,1,160,85,,,,,,,,
,,652871abf3042f76d3105444,65af554b941b6f73074ccf8c,2024-01-23_07h00.06.392,bars,2023.2.3,Win32,16.39344262,657b66ea316d21385b68909f,,,,,,,,,,,1144.209,1145.189,,,1145.666,1145.921,,44,44,,,,,,,,,,,,,,,,bars/037.png,bars/mask003.png,,,,,,,,,,,,0,2,,,,,,,6,8,7,8,,,,,,,,,,,1145.189,1145.666,1145.921,1149.355,space,3.382,,1149.355,74,61,1150.332,1150.332,1150.332,,,,0,44,44,44,1,150,105,,,,,,,,
,,652871abf3042f76d3105444,65af554b941b6f73074ccf8c,2024-01-23_07h00.06.392,bars,2023.2.3,Win32,16.39344262,657b66ea316d21385b68909f,,,,,,,,,,,1150.332,1151.323,,,1151.793,1152.029,,27,27,,,,,,,,,,,,,,,,bars/031.png,bars/mask005.png,,,,,,,,,,,,7,2,,,,,,,4,10,2,10,,,,,,,,,,,1151.323,1151.793,1152.029,1154.433,space,2.342,,1154.433,87,8,1155.423,1155.423,1155.424,,,,0,45,45,45,1,120,35,,,,,,,,
,,652871abf3042f76d3105444,65af554b941b6f73074ccf8c,2024-01-23_07h00.06.392,bars,2023.2.3,Win32,16.39344262,657b66ea316d21385b68909f,,,,,,,,,,,1155.424,1156.424,,,1156.895,1157.131,,31,31,,,,,,,,,,,,,,,,bars/013.png,bars/mask009.png,,,,,,,,,,,,2,2,,,,,,,2,8,2,6,,,,,,,,,,,1156.424,1156.895,1157.131,1158.91,space,1.715,,1158.91,44,21,1159.916,1159.916,1159.917,,,,0,46,46,46,1,75,10,,,,,,,,
,,652871abf3042f76d3105444,65af554b941b6f73074ccf8c,2024-01-23_07h00.06.392,bars,2023.2.3,Win32,16.39344262,657b66ea316d21385b68909f,,,,,,,,,,,1159.917,1160.9,,,1161.377,1161.625,,63,63,,,,,,,,,,,,,,,,bars/028.png,bars/mask009.png,,,,,,,,,,,,2,1,,,,,,,4,6,4,7,,,,,,,,,,,1160.9,1161.377,1161.626,1164.093,space,2.411,,1164.093,18,57,1165.051,1165.051,1165.053,,,,0,47,47,47,1,45,120,,,,,,,,
,,652871abf3042f76d3105444,65af554b941b6f73074ccf8c,2024-01-23_07h00.06.392,bars,2023.2.3,Win32,16.39344262,657b66ea316d21385b68909f,,,,,,,,,,,1165.053,1166.052,,,1166.525,1166.761,,121,121,,,,,,,,,,,,,,,,bars/013.png,bars/mask000.png,,,,,,,,,,,,0,1,,,,,,,2,8,2,7,,,,,,,,,,,1166.052,1166.525,1166.761,1169.339,space,2.524,,1169.339,46,69,1170.331,1170.331,1170.331,,,,0,48,48,48,1,75,10,,,,,,,,
,,652871abf3042f76d3105444,65af554b941b6f73074ccf8c,2024-01-23_07h00.06.392,bars,2023.2.3,Win32,16.39344262,657b66ea316d21385b68909f,,,,,,,,,,,1170.331,1171.31,,,1171.775,1172.008,,150,-30,,,,,,,,,,,,,,,,bars/023.png,bars/mask005.png,,,,,,,,,,,,0,2,,,,,,,0,10,0,10,,,,,,,,,,,1171.31,1171.775,1172.008,1175.071,space,3.008,,1175.072,50,35,1176.084,1176.084,1176.085,,,,0,49,49,49,1,20,115,,,,,,,,
,,652871abf3042f76d3105444,65af554b941b6f73074ccf8c,2024-01-23_07h00.06.392,bars,2023.2.3,Win32,16.39344262,657b66ea316d21385b68909f,,,,,,,,,,,,,,,,,,,,,,,,,,,,,,,,,,,,,,,,,,,,,,,,,,,,,,,,,,,,,,,,,,,,,,,,,,,,,,,,,,,,,,,,,,,,,1176.085,1290.099,0,1,1,2,1,sequence_tables/blk026.csv
,,652871abf3042f76d3105444,65af554b941b6f73074ccf8c,2024-01-23_07h00.06.392,bars,2023.2.3,Win32,16.39344262,657b66ea316d21385b68909f,,,,,,,,,,,1311.796,1312.765,,,1313.234,1313.472,,111,111,,,,,,,,,,,,,,,,bars/004.png,bars/mask007.png,,,,,,,,,,,,4,2,,,,,,,1,9,1,7,,,,,,1290.105,1311.795,space,21.627,,1312.765,1313.234,1313.472,1315.539,space,2.014,,1315.539,86,14,1316.519,1316.519,1316.519,,,,0,0,0,0,1,25,125,,,,,,,,
,,652871abf3042f76d3105444,65af554b941b6f73074ccf8c,2024-01-23_07h00.06.392,bars,2023.2.3,Win32,16.39344262,657b66ea316d21385b68909f,,,,,,,,,,,1316.519,1317.48,,,1317.949,1318.185,,23,23,,,,,,,,,,,,,,,,bars/008.png,bars/mask004.png,,,,,,,,,,,,1,2,,,,,,,3,7,5,6,,,,,,,,,,,1317.48,1317.949,1318.185,1320.366,space,2.121,,1320.366,87,23,1321.325,1321.325,1321.326,,,,0,1,1,1,1,110,0,,,,,,,,
,,652871abf3042f76d3105444,65af554b941b6f73074ccf8c,2024-01-23_07h00.06.392,bars,2023.2.3,Win32,16.39344262,657b66ea316d21385b68909f,,,,,,,,,,,1321.326,1322.325,,,1322.789,1323.039,,167,-13,,,,,,,,,,,,,,,,bars/032.png,bars/mask001.png,,,,,,,,,,,,0,2,,,,,,,5,9,4,9,,,,,,,,,,,1322.325,1322.789,1323.039,1327.433,space,4.338,,1327.433,42,33,1328.396,1328.396,1328.396,,,,0,2,2,2,1,125,20,,,,,,,,
,,652871abf3042f76d3105444,65af554b941b6f73074ccf8c,2024-01-23_07h00.06.392,bars,2023.2.3,Win32,16.39344262,657b66ea316d21385b68909f,,,,,,,,,,,1328.396,1329.359,,,1329.837,1330.071,,93,93,,,,,,,,,,,,,,,,bars/036.png,bars/mask007.png,,,,,,,,,,,,0,1,,,,,,,3,7,5,10,,,,,,,,,,,1329.359,1329.837,1330.072,1330.943,space,0.817,,1330.943,52,73,1331.914,1331.914,1331.915,,,,0,3,3,3,1,145,20,,,,,,,,
,,652871abf3042f76d3105444,65af554b941b6f73074ccf8c,2024-01-23_07h00.06.392,bars,2023.2.3,Win32,16.39344262,657b66ea316d21385b68909f,,,,,,,,,,,1331.915,1332.929,,,1333.408,1333.646,,170,170,,,,,,,,,,,,,,,,bars/034.png,bars/mask007.png,,,,,,,,,,,,0,1,,,,,,,1,5,1,4,,,,,,,,,,,1332.929,1333.408,1333.646,1335.023,space,1.315,,1335.023,45,75,1335.987,1335.987,1335.991,,,,0,4,4,4,1,125,65,,,,,,,,
,,652871abf3042f76d3105444,65af554b941b6f73074ccf8c,2024-01-23_07h00.06.392,bars,2023.2.3,Win32,16.39344262,657b66ea316d21385b68909f,,,,,,,,,,,1335.991,1336.971,,,1337.43,1337.655,,29,209,,,,,,,,,,,,,,,,bars/023.png,bars/mask000.png,,,,,,,,,,,,4,1,,,,,,,3,3,5,1,,,,,,,,,,,1336.971,1337.43,1337.655,1339.798,space,2.083,,1339.798,9,86,1340.799,1340.799,1340.803,,,,0,5,5,5,1,20,115,,,,,,,,
,,652871abf3042f76d3105444,65af554b941b6f73074ccf8c,2024-01-23_07h00.06.392,bars,2023.2.3,Win32,16.39344262,657b66ea316d21385b68909f,,,,,,,,,,,1340.804,1341.794,,,1342.27,1342.505,,24,204,,,,,,,,,,,,,,,,bars/001.png,bars/mask002.png,,,,,,,,,,,,0,2,,,,,,,5,1,7,2,,,,,,,,,,,1341.794,1342.27,1342.505,1345.79,space,3.226,,1345.79,74,61,1346.754,1346.754,1346.755,,,,0,6,6,6,1,130,85,,,,,,,,
,,652871abf3042f76d3105444,65af554b941b6f73074ccf8c,2024-01-23_07h00.06.392,bars,2023.2.3,Win32,16.39344262,657b66ea316d21385b68909f,,,,,,,,,,,1346.755,1347.744,,,1348.265,1348.515,,67,67,,,,,,,,,,,,,,,,bars/003.png,bars/mask004.png,,,,,,,,,,,,0,1,,,,,,,3,3,3,3,,,,,,,,,,,1347.744,1348.265,1348.515,1350.636,space,2.055,,1350.636,42,73,1351.614,1351.614,1351.616,,,,0,7,7,7,1,25,140,,,,,,,,
,,652871abf3042f76d3105444,65af554b941b6f73074ccf8c,2024-01-23_07h00.06.392,bars,2023.2.3,Win32,16.39344262,657b66ea316d21385b68909f,,,,,,,,,,,1351.616,1352.596,,,1353.087,1353.316,,104,104,,,,,,,,,,,,,,,,bars/007.png,bars/mask008.png,,,,,,,,,,,,0,2,,,,,,,5,1,3,1,,,,,,,,,,,1352.596,1353.087,1353.316,1357.511,space,4.14,,1357.511,71,49,1358.504,1358.504,1358.506,,,,0,8,8,8,1,175,55,,,,,,,,
,,652871abf3042f76d3105444,65af554b941b6f73074ccf8c,2024-01-23_07h00.06.392,bars,2023.2.3,Win32,16.39344262,657b66ea316d21385b68909f,,,,,,,,,,,1358.506,1359.474,,,1359.959,1360.188,,66,66,,,,,,,,,,,,,,,,bars/020.png,bars/mask001.png,,,,,,,,,,,,0,1,,,,,,,3,3,2,5,,,,,,,,,,,1359.474,1359.959,1360.188,1361.852,space,1.605,,1361.852,49,76,1362.815,1362.815,1362.817,,,,0,9,9,9,1,115,170,,,,,,,,
,,652871abf3042f76d3105444,65af554b941b6f73074ccf8c,2024-01-23_07h00.06.392,bars,2023.2.3,Win32,16.39344262,657b66ea316d21385b68909f,,,,,,,,,,,1362.817,1363.808,,,1364.325,1364.572,,144,144,,,,,,,,,,,,,,,,bars/005.png,bars/mask004.png,,,,,,,,,,,,0,2,,,,,,,1,1,0,0,,,,,,,,,,,1363.808,1364.325,1364.572,1365.789,space,1.166,,1365.789,46,4,1366.771,1366.771,1366.772,,,,0,10,10,10,1,10,140,,,,,,,,
,,652871abf3042f76d3105444,65af554b941b6f73074ccf8c,2024-01-23_07h00.06.392,bars,2023.2.3,Win32,16.39344262,657b66ea316d21385b68909f,,,,,,,,,,,1366.772,1367.755,,,1368.23,1368.463,,123,123,,,,,,,,,,,,,,,,bars/000.png,bars/mask003.png,,,,,,,,,,,,0,2,,,,,,,3,0,3,0,,,,,,,,,,,1367.755,1368.23,1368.463,1370.616,space,2.099,,1370.616,83,22,1371.612,1371.612,1371.612,,,,0,11,11,11,1,40,145,,,,,,,,
,,652871abf3042f76d3105444,65af554b941b6f73074ccf8c,2024-01-23_07h00.06.392,bars,2023.2.3,Win32,16.39344262,657b66ea316d21385b68909f,,,,,,,,,,,1371.612,1372.61,,,1373.09,1373.316,,54,54,,,,,,,,,,,,,,,,bars/007.png,bars/mask009.png,,,,,,,,,,,,0,2,,,,,,,5,0,6,0,,,,,,,,,,,1372.61,1373.09,1373.316,1376.744,space,3.375,,1376.745,59,1,1377.742,1377.742,1377.742,,,,0,12,12,12,1,175,55,,,,,,,,
,,652871abf3042f76d3105444,65af554b941b6f73074ccf8c,2024-01-23_07h00.06.392,bars,2023.2.3,Win32,16.39344262,657b66ea316d21385b68909f,,,,,,,,,,,1377.742,1378.715,,,1379.206,1379.452,,47,47,,,,,,,,,,,,,,,,bars/048.png,bars/mask009.png,,,,,,,,,,,,6,1,,,,,,,7,2,7,2,,,,,,,,,,,1378.716,1379.206,1379.452,1380.912,space,1.402,,1380.912,3,52,1381.904,1381.904,1381.905,,,,0,13,13,13,1,50,175,,,,,,,,
,,652871abf3042f76d3105444,65af554b941b6f73074ccf8c,2024-01-23_07h00.06.392,bars,2023.2.3,Win32,16.39344262,657b66ea316d21385b68909f,,,,,,,,,,,1381.905,1382.89,,,1383.357,1383.59,,161,161,,,,,,,,,,,,,,,,bars/001.png,bars/mask004.png,,,,,,,,,,,,0,1,,,,,,,5,4,6,5,,,,,,,,,,,1382.89,1383.357,1383.59,1385.432,space,1.787,,1385.432,31,76,1386.417,1386.417,1386.417,,,,0,14,14,14,1,130,85,,,,,,,,
,,652871abf3042f76d3105444,65af554b941b6f73074ccf8c,2024-01-23_07h00.06.392,bars,2023.2.3,Win32,16.39344262,657b66ea316d21385b68909f,,,,,,,,,,,1386.418,1387.399,,,1387.884,1388.14,,13,13,,,,,,,,,,,,,,,,bars/014.png,bars/mask002.png,,,,,,,,,,,,1,2,,,,,,,3,2,3,1,,,,,,,,,,,1387.399,1387.884,1388.14,1390.016,space,1.822,,1390.016,67,13,1390.989,1390.989,1390.99,,,,0,15,15,15,1,80,0,,,,,,,,
,,652871abf3042f76d3105444,65af554b941b6f73074ccf8c,2024-01-23_07h00.06.392,bars,2023.2.3,Win32,16.39344262,657b66ea316d21385b68909f,,,,,,,,,,,1390.99,1391.964,,,1392.431,1392.674,,30,210,,,,,,,,,,,,,,,,bars/027.png,bars/mask000.png,,,,,,,,,,,,0,2,,,,,,,1,0,3,0,,,,,,,,,,,1391.964,1392.431,1392.674,1396.224,space,3.493,,1396.224,80,20,1397.206,1397.206,1397.206,,,,0,16,16,16,1,110,50,,,,,,,,
,,652871abf3042f76d3105444,65af554b941b6f73074ccf8c,2024-01-23_07h00.06.392,bars,2023.2.3,Win32,16.39344262,657b66ea316d21385b68909f,,,,,,,,,,,1397.206,1398.186,,,1398.668,1398.912,,158,158,,,,,,,,,,,,,,,,bars/006.png,bars/mask006.png,,,,,,,,,,,,0,1,,,,,,,0,2,0,1,,,,,,,,,,,1398.186,1398.668,1398.912,1400.935,space,1.97,,1400.935,57,58,1401.942,1401.942,1401.948,,,,0,17,17,17,1,35,100,,,,,,,,
,,652871abf3042f76d3105444,65af554b941b6f73074ccf8c,2024-01-23_07h00.06.392,bars,2023.2.3,Win32,16.39344262,657b66ea316d21385b68909f,,,,,,,,,,,1401.948,1402.914,,,1403.402,1403.643,,121,121,,,,,,,,,,,,,,,,bars/011.png,bars/mask006.png,,,,,,,,,,,,0,2,,,,,,,2,4,2,5,,,,,,,,,,,1402.914,1403.402,1403.643,1406.38,space,2.68,,1406.38,39,36,1407.372,1407.372,1407.378,,,,0,18,18,18,1,160,85,,,,,,,,
,,652871abf3042f76d3105444,65af554b941b6f73074ccf8c,2024-01-23_07h00.06.392,bars,2023.2.3,Win32,16.39344262,657b66ea316d21385b68909f,,,,,,,,,,,1407.378,1408.359,,,1408.83,1409.068,,80,80,,,,,,,,,,,,,,,,bars/026.png,bars/mask001.png,,,,,,,,,,,,2,2,,,,,,,0,2,0,2,,,,,,,,,,,1408.359,1408.83,1409.068,1410.418,space,1.296,,1410.418,45,5,1411.414,1411.414,1411.415,,,,0,19,19,19,1,35,85,,,,,,,,
,,652871abf3042f76d3105444,65af554b941b6f73074ccf8c,2024-01-23_07h00.06.392,bars,2023.2.3,Win32,16.39344262,657b66ea316d21385b68909f,,,,,,,,,,,1411.415,1412.391,,,1412.893,1413.131,,79,79,,,,,,,,,,,,,,,,bars/029.png,bars/mask004.png,,,,,,,,,,,,0,1,,,,,,,0,4,0,4,,,,,,,,,,,1412.391,1412.893,1413.131,1416.949,space,3.763,,1416.949,11,34,1417.944,1417.944,1417.946,,,,0,20,20,20,1,90,45,,,,,,,,
,,652871abf3042f76d3105444,65af554b941b6f73074ccf8c,2024-01-23_07h00.06.392,bars,2023.2.3,Win32,16.39344262,657b66ea316d21385b68909f,,,,,,,,,,,1417.946,1418.926,,,1419.402,1419.646,,124,124,,,,,,,,,,,,,,,,bars/012.png,bars/mask003.png,,,,,,,,,,,,0,1,,,,,,,0,6,1,7,,,,,,,,,,,1418.926,1419.402,1419.646,1420.889,space,1.184,,1420.889,34,71,1421.868,1421.868,1421.869,,,,0,21,21,21,1,90,15,,,,,,,,
,,652871abf3042f76d3105444,65af554b941b6f73074ccf8c,2024-01-23_07h00.06.392,bars,2023.2.3,Win32,16.39344262,657b66ea316d21385b68909f,,,,,,,,,,,1421.869,1422.863,,,1423.343,1423.58,,13,13,,,,,,,,,,,,,,,,bars/019.png,bars/mask004.png,,,,,,,,,,,,0,1,,,,,,,0,4,0,5,,,,,,,,,,,1422.863,1423.343,1423.58,1425.198,space,1.565,,1425.198,32,88,1426.201,1426.201,1426.202,,,,0,22,22,22,1,45,105,,,,,,,,
,,652871abf3042f76d3105444,65af554b941b6f73074ccf8c,2024-01-23_07h00.06.392,bars,2023.2.3,Win32,16.39344262,657b66ea316d21385b68909f,,,,,,,,,,,1426.202,1427.155,,,1427.638,1427.881,,179,-1,,,,,,,,,,,,,,,,bars/000.png,bars/mask002.png,,,,,,,,,,,,0,2,,,,,,,0,6,1,6,,,,,,,,,,,1427.155,1427.638,1427.881,1430.199,space,2.263,,1430.199,41,34,1431.189,1431.189,1431.191,,,,0,23,23,23,1,40,145,,,,,,,,
,,652871abf3042f76d3105444,65af554b941b6f73074ccf8c,2024-01-23_07h00.06.392,bars,2023.2.3,Win32,16.39344262,657b66ea316d21385b68909f,,,,,,,,,,,1431.191,1432.183,,,1432.686,1432.933,,150,-30,,,,,,,,,,,,,,,,bars/005.png,bars/mask008.png,,,,,,,,,,,,4,2,,,,,,,0,4,1,6,,,,,,,,,,,1432.183,1432.686,1432.933,1435.909,space,2.922,,1435.909,40,10,1436.909,1436.909,1436.914,,,,0,24,24,24,1,10,140,,,,,,,,
,,652871abf3042f76d3105444,65af554b941b6f73074ccf8c,2024-01-23_07h00.06.392,bars,2023.2.3,Win32,16.39344262,657b66ea316d21385b68909f,,,,,,,,,,,1436.915,1437.926,,,1438.395,1438.626,,35,35,,,,,,,,,,,,,,,,bars/020.png,bars/mask002.png,,,,,,,,,,,,0,2,,,,,,,0,2,0,1,,,,,,,,,,,1437.926,1438.395,1438.626,1441.498,space,2.817,,1441.498,80,45,1442.485,1442.485,1442.485,,,,0,25,25,25,1,115,170,,,,,,,,
,,652871abf3042f76d3105444,65af554b941b6f73074ccf8c,2024-01-23_07h00.06.392,bars,2023.2.3,Win32,16.39344262,657b66ea316d21385b68909f,,,,,,,,,,,1442.485,1443.476,,,1443.947,1444.188,,71,71,,,,,,,,,,,,,,,,bars/001.png,bars/mask009.png,,,,,,,,,,,,2,2,,,,,,,2,4,4,4,,,,,,,,,,,1443.476,1443.946,1444.188,1446.018,space,1.775,,1446.018,59,14,1447.02,1447.02,1447.021,,,,0,26,26,26,1,130,85,,,,,,,,
,,652871abf3042f76d3105444,65af554b941b6f73074ccf8c,2024-01-23_07h00.06.392,bars,2023.2.3,Win32,16.39344262,657b66ea316d21385b68909f,,,,,,,,,,,1447.021,1448.025,,,1448.495,1448.74,,161,161,,,,,,,,,,,,,,,,bars/000.png,bars/mask009.png,,,,,,,,,,,,2,2,,,,,,,0,2,0,5,,,,,,,,,,,1448.025,1448.495,1448.74,1450.816,space,2.015,,1450.816,59,16,1451.807,1451.807,1451.807,,,,0,27,27,27,1,40,145,,,,,,,,
,,652871abf3042f76d3105444,65af554b941b6f73074ccf8c,2024-01-23_07h00.06.392,bars,2023.2.3,Win32,16.39344262,657b66ea316d21385b68909f,,,,,,,,,,,1451.807,1452.785,,,1453.285,1453.534,,79,79,,,,,,,,,,,,,,,,bars/004.png,bars/mask008.png,,,,,,,,,,,,0,2,,,,,,,2,4,1,4,,,,,,,,,,,1452.785,1453.285,1453.534,1457.095,space,3.507,,1457.095,54,46,1458.084,1458.084,1458.089,,,,0,28,28,28,1,25,125,,,,,,,,
,,652871abf3042f76d3105444,65af554b941b6f73074ccf8c,2024-01-23_07h00.06.392,bars,2023.2.3,Win32,16.39344262,657b66ea316d21385b68909f,,,,,,,,,,,1458.089,1459.075,,,1459.57,1459.813,,160,160,,,,,,,,,,,,,,,,bars/024.png,bars/mask000.png,,,,,,,,,,,,2,2,,,,,,,0,2,0,3,,,,,,,,,,,1459.075,1459.57,1459.813,1462.736,space,2.867,,1462.736,40,10,1463.728,1463.728,1463.733,,,,0,29,29,29,1,120,170,,,,,,,,
,,652871abf3042f76d3105444,65af554b941b6f73074ccf8c,2024-01-23_07h00.06.392,bars,2023.2.3,Win32,16.39344262,657b66ea316d21385b68909f,,,,,,,,,,,1463.733,1464.719,,,1465.204,1465.437,,126,126,,,,,,,,,,,,,,,,bars/040.png,bars/mask001.png,,,,,,,,,,,,0,1,,,,,,,0,4,0,6,,,,,,,,,,,1464.719,1465.204,1465.437,1467.545,space,2.056,,1467.545,14,59,1468.551,1468.551,1468.557,,,,0,30,30,30,1,140,5,,,,,,,,
,,652871abf3042f76d3105444,65af554b941b6f73074ccf8c,2024-01-23_07h00.06.392,bars,2023.2.3,Win32,16.39344262,657b66ea316d21385b68909f,,,,,,,,,,,1468.557,1469.558,,,1470.042,1470.279,,154,154,,,,,,,,,,,,,,,,bars/046.png,bars/mask003.png,,,,,,,,,,,,1,1,,,,,,,0,2,1,1,,,,,,,,,,,1469.558,1470.042,1470.279,1472.842,space,2.511,,1472.842,1,69,1473.809,1473.809,1473.814,,,,0,31,31,31,1,155,85,,,,,,,,
,,652871abf3042f76d3105444,65af554b941b6f73074ccf8c,2024-01-23_07h00.06.392,bars,2023.2.3,Win32,16.39344262,657b66ea316d21385b68909f,,,,,,,,,,,1473.814,1474.824,,,1475.304,1475.535,,155,-25,,,,,,,,,,,,,,,,bars/045.png,bars/mask003.png,,,,,,,,,,,,0,2,,,,,,,2,4,1,5,,,,,,,,,,,1474.824,1475.304,1475.535,1479.473,space,3.883,,1479.473,55,35,1480.443,1480.443,1480.449,,,,0,32,32,32,1,100,10,,,,,,,,
,,652871abf3042f76d3105444,65af554b941b6f73074ccf8c,2024-01-23_07h00.06.392,bars,2023.2.3,Win32,16.39344262,657b66ea316d21385b68909f,,,,,,,,,,,1480.449,1481.45,,,1481.939,1482.17,,16,16,,,,,,,,,,,,,,,,bars/047.png,bars/mask009.png,,,,,,,,,,,,2,1,,,,,,,4,2,2,4,,,,,,,,,,,1481.45,1481.939,1482.17,1482.862,space,0.637,,1482.862,1,54,1483.859,1483.859,1483.859,,,,0,33,33,33,1,15,70,,,,,,,,
,,652871abf3042f76d3105444,65af554b941b6f73074ccf8c,2024-01-23_07h00.06.392,bars,2023.2.3,Win32,16.39344262,657b66ea316d21385b68909f,,,,,,,,,,,1483.86,1484.855,,,1485.337,1485.57,,115,115,,,,,,,,,,,,,,,,bars/012.png,bars/mask002.png,,,,,,,,,,,,0,1,,,,,,,2,4,0,3,,,,,,,,,,,1484.855,1485.337,1485.57,1487.882,space,2.26,,1487.882,25,80,1488.869,1488.869,1488.875,,,,0,34,34,34,1,90,15,,,,,,,,
,,652871abf3042f76d3105444,65af554b941b6f73074ccf8c,2024-01-23_07h00.06.392,bars,2023.2.3,Win32,16.39344262,657b66ea316d21385b68909f,,,,,,,,,,,1488.875,1489.863,,,1490.354,1490.591,,179,-1,,,,,,,,,,,,,,,,bars/014.png,bars/mask004.png,,,,,,,,,,,,6,2,,,,,,,0,6,0,6,,,,,,,,,,,1489.863,1490.354,1490.591,1491.594,space,0.949,,1491.594,81,1,1492.598,1492.598,1492.599,,,,0,35,35,35,1,80,0,,,,,,,,
,,652871abf3042f76d3105444,65af554b941b6f73074ccf8c,2024-01-23_07h00.06.392,bars,2023.2.3,Win32,16.39344262,657b66ea316d21385b68909f,,,,,,,,,,,1492.599,1493.607,,,1494.084,1494.319,,112,112,,,,,,,,,,,,,,,,bars/000.png,bars/mask001.png,,,,,,,,,,,,0,2,,,,,,,0,4,0,3,,,,,,,,,,,1493.607,1494.084,1494.319,1496.3,space,1.926,,1496.3,72,33,1497.281,1497.281,1497.281,,,,0,36,36,36,1,40,145,,,,,,,,
,,652871abf3042f76d3105444,65af554b941b6f73074ccf8c,2024-01-23_07h00.06.392,bars,2023.2.3,Win32,16.39344262,657b66ea316d21385b68909f,,,,,,,,,,,1497.281,1498.283,,,1498.772,1499.005,,43,43,,,,,,,,,,,,,,,,bars/037.png,bars/mask001.png,,,,,,,,,,,,0,2,,,,,,,0,6,0,5,,,,,,,,,,,1498.283,1498.772,1499.005,1499.358,space,0.291,,1499.358,73,62,1500.341,1500.341,1500.342,,,,0,37,37,37,1,150,105,,,,,,,,
,,652871abf3042f76d3105444,65af554b941b6f73074ccf8c,2024-01-23_07h00.06.392,bars,2023.2.3,Win32,16.39344262,657b66ea316d21385b68909f,,,,,,,,,,,1500.342,1501.354,,,1501.837,1502.078,,145,145,,,,,,,,,,,,,,,,bars/036.png,bars/mask008.png,,,,,,,,,,,,0,1,,,,,,,0,4,0,6,,,,,,,,,,,1501.354,1501.837,1502.078,1502.506,space,0.37,,1502.506,0,55,1503.496,1503.496,1503.498,,,,0,38,38,38,1,145,20,,,,,,,,
,,652871abf3042f76d3105444,65af554b941b6f73074ccf8c,2024-01-23_07h00.06.392,bars,2023.2.3,Win32,16.39344262,657b66ea316d21385b68909f,,,,,,,,,,,1503.498,1504.464,,,1504.954,1505.206,,25,25,,,,,,,,,,,,,,,,bars/030.png,bars/mask005.png,,,,,,,,,,,,0,2,,,,,,,2,2,1,2,,,,,,,,,,,1504.464,1504.954,1505.206,1508.431,space,3.172,,1508.431,65,40,1509.432,1509.432,1509.437,,,,0,39,39,39,1,140,65,,,,,,,,
,,652871abf3042f76d3105444,65af554b941b6f73074ccf8c,2024-01-23_07h00.06.392,bars,2023.2.3,Win32,16.39344262,657b66ea316d21385b68909f,,,,,,,,,,,1509.437,1510.438,,,1510.92,1511.162,,22,22,,,,,,,,,,,,,,,,bars/014.png,bars/mask009.png,,,,,,,,,,,,1,2,,,,,,,4,4,4,3,,,,,,,,,,,1510.438,1510.92,1511.162,1512.96,space,1.743,,1512.96,58,22,1513.966,1513.966,1513.97,,,,0,40,40,40,1,80,0,,,,,,,,
,,652871abf3042f76d3105444,65af554b941b6f73074ccf8c,2024-01-23_07h00.06.392,bars,2023.2.3,Win32,16.39344262,657b66ea316d21385b68909f,,,,,,,,,,,1513.97,1514.927,,,1515.43,1515.676,,19,19,,,,,,,,,,,,,,,,bars/035.png,bars/mask001.png,,,,,,,,,,,,1,1,,,,,,,6,2,5,3,,,,,,,,,,,1514.927,1515.43,1515.676,1519.047,space,3.315,,1519.047,24,41,1520.04,1520.04,1520.045,,,,0,41,41,41,1,175,60,,,,,,,,
,,652871abf3042f76d3105444,65af554b941b6f73074ccf8c,2024-01-23_07h00.06.392,bars,2023.2.3,Win32,16.39344262,657b66ea316d21385b68909f,,,,,,,,,,,1520.046,1521.026,,,1521.522,1521.757,,13,13,,,,,,,,,,,,,,,,bars/024.png,bars/mask005.png,,,,,,,,,,,,1,2,,,,,,,4,4,4,3,,,,,,,,,,,1521.026,1521.522,1521.757,1523.708,space,1.898,,1523.708,73,23,1524.701,1524.702,1524.702,,,,0,42,42,42,1,120,170,,,,,,,,
,,652871abf3042f76d3105444,65af554b941b6f73074ccf8c,2024-01-23_07h00.06.392,bars,2023.2.3,Win32,16.39344262,657b66ea316d21385b68909f,,,,,,,,,,,1524.702,1525.707,,,1526.2,1526.434,,114,114,,,,,,,,,,,,,,,,bars/015.png,bars/mask008.png,,,,,,,,,,,,3,1,,,,,,,2,6,4,6,,,,,,,,,,,1525.707,1526.2,1526.434,1527.621,space,1.13,,1527.621,4,46,1528.633,1528.634,1528.634,,,,0,43,43,43,1,110,160,,,,,,,,
,,652871abf3042f76d3105444,65af554b941b6f73074ccf8c,2024-01-23_07h00.06.392,bars,2023.2.3,Win32,16.39344262,657b66ea316d21385b68909f,,,,,,,,,,,1528.635,1529.628,,,1530.116,1530.373,,81,81,,,,,,,,,,,,,,,,bars/007.png,bars/mask000.png,,,,,,,,,,,,0,2,,,,,,,4,4,5,3,,,,,,,,,,,1529.628,1530.116,1530.373,1531.57,space,1.137,,1531.57,86,26,1532.577,1532.577,1532.579,,,,0,44,44,44,1,175,55,,,,,,,,
,,652871abf3042f76d3105444,65af554b941b6f73074ccf8c,2024-01-23_07h00.06.392,bars,2023.2.3,Win32,16.39344262,657b66ea316d21385b68909f,,,,,,,,,,,1532.579,1533.545,,,1534.034,1534.264,,50,50,,,,,,,,,,,,,,,,bars/047.png,bars/mask008.png,,,,,,,,,,,,2,2,,,,,,,6,6,5,6,,,,,,,,,,,1533.546,1534.034,1534.264,1535.222,space,0.904,,1535.222,35,20,1536.203,1536.203,1536.205,,,,0,45,45,45,1,15,70,,,,,,,,
,,652871abf3042f76d3105444,65af554b941b6f73074ccf8c,2024-01-23_07h00.06.392,bars,2023.2.3,Win32,16.39344262,657b66ea316d21385b68909f,,,,,,,,,,,1536.205,1537.189,,,1537.661,1537.92,,41,41,,,,,,,,,,,,,,,,bars/048.png,bars/mask007.png,,,,,,,,,,,,2,1,,,,,,,4,4,3,5,,,,,,,,,,,1537.189,1537.66,1537.92,1539.431,space,1.455,,1539.431,9,46,1540.387,1540.387,1540.393,,,,0,46,46,46,1,50,175,,,,,,,,
,,652871abf3042f76d3105444,65af554b941b6f73074ccf8c,2024-01-23_07h00.06.392,bars,2023.2.3,Win32,16.39344262,657b66ea316d21385b68909f,,,,,,,,,,,1540.393,1541.384,,,1541.875,1542.107,,85,85,,,,,,,,,,,,,,,,bars/024.png,bars/mask006.png,,,,,,,,,,,,0,1,,,,,,,6,6,6,5,,,,,,,,,,,1541.384,1541.875,1542.107,1544.143,space,1.975,,1544.143,35,85,1545.135,1545.135,1545.141,,,,0,47,47,47,1,120,170,,,,,,,,
,,652871abf3042f76d3105444,65af554b941b6f73074ccf8c,2024-01-23_07h00.06.392,bars,2023.2.3,Win32,16.39344262,657b66ea316d21385b68909f,,,,,,,,,,,1545.141,1546.116,,,1546.599,1546.835,,158,158,,,,,,,,,,,,,,,,bars/042.png,bars/mask006.png,,,,,,,,,,,,3,1,,,,,,,4,8,5,9,,,,,,,,,,,1546.116,1546.599,1546.835,1548.618,space,1.727,,1548.618,13,83,1549.605,1549.605,1549.606,,,,0,48,48,48,1,145,75,,,,,,,,
,,652871abf3042f76d3105444,65af554b941b6f73074ccf8c,2024-01-23_07h00.06.392,bars,2023.2.3,Win32,16.39344262,657b66ea316d21385b68909f,,,,,,,,,,,1549.606,1550.588,,,1551.08,1551.331,,15,15,,,,,,,,,,,,,,,,bars/040.png,bars/mask007.png,,,,,,,,,,,,7,2,,,,,,,2,10,2,10,,,,,,,,,,,1550.588,1551.08,1551.331,1552.79,space,1.401,,1552.79,55,10,1553.754,1553.754,1553.755,,,,0,49,49,49,1,140,5,,,,,,,,
,,652871abf3042f76d3105444,65af554b941b6f73074ccf8c,2024-01-23_07h00.06.392,bars,2023.2.3,Win32,16.39344262,657b66ea316d21385b68909f,,,,,,,,,,,,,,,,,,,,,,,,,,,,,,,,,,,,,,,,,,,,,,,,,,,,,,,,,,,,,,,,,,,,,,,,,,,,,,,,,,,,,,,,,,,,,1553.755,1591.878,0,2,2,0,1,sequence_tables/blk022.csv
,,652871abf3042f76d3105444,65af554b941b6f73074ccf8c,2024-01-23_07h00.06.392,bars,2023.2.3,Win32,16.39344262,657b66ea316d21385b68909f,,,,,,,,,,,1593.287,1594.26,,,1594.721,1594.953,,131,131,,,,,,,,,,,,,,,,bars/001.png,bars/mask001.png,,,,,,,,,,,,1,1,,,,,,,1,9,1,9,,,,,,1591.884,1593.285,space,1.35,,1594.26,1594.721,1594.953,1596.529,space,1.523,,1596.529,1,46,1597.499,1597.499,1597.5,,,,0,0,0,0,1,130,85,,,,,,,,
,,652871abf3042f76d3105444,65af554b941b6f73074ccf8c,2024-01-23_07h00.06.392,bars,2023.2.3,Win32,16.39344262,657b66ea316d21385b68909f,,,,,,,,,,,1597.5,1598.467,,,1598.939,1599.175,,161,161,,,,,,,,,,,,,,,,bars/004.png,bars/mask006.png,,,,,,,,,,,,0,2,,,,,,,0,10,1,10,,,,,,,,,,,1598.467,1598.939,1599.175,1601.681,space,2.451,,1601.681,44,36,1602.689,1602.689,1602.695,,,,0,1,1,1,1,25,125,,,,,,,,
,,652871abf3042f76d3105444,65af554b941b6f73074ccf8c,2024-01-23_07h00.06.392,bars,2023.2.3,Win32,16.39344262,657b66ea316d21385b68909f,,,,,,,,,,,1602.695,1603.688,,,1604.179,1604.426,,129,129,,,,,,,,,,,,,,,,bars/030.png,bars/mask002.png,,,,,,,,,,,,0,1,,,,,,,0,8,0,8,,,,,,,,,,,1603.688,1604.179,1604.426,1606.831,space,2.352,,1606.831,11,64,1607.809,1607.809,1607.814,,,,0,2,2,2,1,140,65,,,,,,,,
,,652871abf3042f76d3105444,65af554b941b6f73074ccf8c,2024-01-23_07h00.06.392,bars,2023.2.3,Win32,16.39344262,657b66ea316d21385b68909f,,,,,,,,,,,1607.814,1608.8,,,1609.26,1609.49,,53,53,,,,,,,,,,,,,,,,bars/011.png,bars/mask006.png,,,,,,,,,,,,0,2,,,,,,,2,10,1,9,,,,,,,,,,,1608.8,1609.26,1609.49,1612.768,space,3.226,,1612.768,73,32,1613.758,1613.758,1613.759,,,,0,3,3,3,1,160,85,,,,,,,,
,,652871abf3042f76d3105444,65af554b941b6f73074ccf8c,2024-01-23_07h00.06.392,bars,2023.2.3,Win32,16.39344262,657b66ea316d21385b68909f,,,,,,,,,,,1613.759,1614.748,,,1615.218,1615.462,,52,52,,,,,,,,,,,,,,,,bars/044.png,bars/mask007.png,,,,,,,,,,,,0,1,,,,,,,0,10,0,10,,,,,,,,,,,1614.748,1615.218,1615.462,1618.96,space,3.448,,1618.96,23,77,1619.942,1619.942,1619.947,,,,0,4,4,4,1,75,155,,,,,,,,
,,652871abf3042f76d3105444,65af554b941b6f73074ccf8c,2024-01-23_07h00.06.392,bars,2023.2.3,Win32,16.39344262,657b66ea316d21385b68909f,,,,,,,,,,,1619.947,1620.92,,,1621.408,1621.642,,35,35,,,,,,,,,,,,,,,,bars/041.png,bars/mask007.png,,,,,,,,,,,,1,1,,,,,,,0,10,1,9,,,,,,,,,,,1620.92,1621.408,1621.642,1627.709,space,6.011,,1627.709,15,50,1628.692,1628.692,1628.692,,,,0,5,5,5,1,20,85,,,,,,,,
,,652871abf3042f76d3105444,65af554b941b6f73074ccf8c,2024-01-23_07h00.06.392,bars,2023.2.3,Win32,16.39344262,657b66ea316d21385b68909f,,,,,,,,,,,1628.692,1629.681,,,1630.151,1630.396,,126,126,,,,,,,,,,,,,,,,bars/015.png,bars/mask009.png,,,,,,,,,,,,1,1,,,,,,,2,10,2,9,,,,,,,,,,,1629.681,1630.151,1630.396,1632.123,space,1.673,,1632.123,16,34,1633.101,1633.101,1633.101,,,,0,6,6,6,1,110,160,,,,,,,,
,,652871abf3042f76d3105444,65af554b941b6f73074ccf8c,2024-01-23_07h00.06.392,bars,2023.2.3,Win32,16.39344262,657b66ea316d21385b68909f,,,,,,,,,,,1633.101,1634.071,,,1634.558,1634.789,,109,109,,,,,,,,,,,,,,,,bars/015.png,bars/mask004.png,,,,,,,,,,,,0,1,,,,,,,0,8,0,8,,,,,,,,,,,1634.071,1634.558,1634.789,1636.436,space,1.589,,1636.436,1,51,1637.416,1637.416,1637.416,,,,0,7,7,7,1,110,160,,,,,,,,
,,652871abf3042f76d3105444,65af554b941b6f73074ccf8c,2024-01-23_07h00.06.392,bars,2023.2.3,Win32,16.39344262,657b66ea316d21385b68909f,,,,,,,,,,,1637.416,1638.394,,,1638.887,1639.127,,115,115,,,,,,,,,,,,,,,,bars/031.png,bars/mask006.png,,,,,,,,,,,,0,1,,,,,,,0,10,0,9,,,,,,,,,,,1638.394,1638.887,1639.127,1645.352,space,6.165,,1645.352,5,80,1646.324,1646.324,1646.324,,,,0,8,8,8,1,120,35,,,,,,,,
,,652871abf3042f76d3105444,65af554b941b6f73074ccf8c,2024-01-23_07h00.06.392,bars,2023.2.3,Win32,16.39344262,657b66ea316d21385b68909f,,,,,,,,,,,1646.324,1647.31,,,1647.793,1648.028,,54,54,,,,,,,,,,,,,,,,bars/037.png,bars/mask008.png,,,,,,,,,,,,0,2,,,,,,,2,10,3,10,,,,,,,,,,,1647.31,1647.793,1648.028,1649.281,space,1.201,,1649.281,84,51,1650.273,1650.273,1650.274,,,,0,9,9,9,1,150,105,,,,,,,,
,,652871abf3042f76d3105444,65af554b941b6f73074ccf8c,2024-01-23_07h00.06.392,bars,2023.2.3,Win32,16.39344262,657b66ea316d21385b68909f,,,,,,,,,,,1650.274,1651.231,,,1651.701,1651.94,,104,104,,,,,,,,,,,,,,,,bars/011.png,bars/mask009.png,,,,,,,,,,,,4,2,,,,,,,4,10,4,10,,,,,,,,,,,1651.231,1651.701,1651.94,1653.454,space,1.458,,1653.454,56,19,1654.438,1654.438,1654.438,,,,0,10,10,10,1,160,85,,,,,,,,
,,652871abf3042f76d3105444,65af554b941b6f73074ccf8c,2024-01-23_07h00.06.392,bars,2023.2.3,Win32,16.39344262,657b66ea316d21385b68909f,,,,,,,,,,,1654.439,1655.422,,,1655.884,1656.125,,100,100,,,,,,,,,,,,,,,,bars/018.png,bars/mask001.png,,,,,,,,,,,,7,2,,,,,,,2,10,3,10,,,,,,,,,,,1655.422,1655.884,1656.125,1662.67,space,6.486,,1662.67,50,10,1663.682,1663.682,1663.682,,,,0,11,11,11,1,150,90,,,,,,,,
,,652871abf3042f76d3105444,65af554b941b6f73074ccf8c,2024-01-23_07h00.06.392,bars,2023.2.3,Win32,16.39344262,657b66ea316d21385b68909f,,,,,,,,,,,1663.682,1664.661,,,1665.138,1665.389,,73,73,,,,,,,,,,,,,,,,bars/047.png,bars/mask004.png,,,,,,,,,,,,7,2,,,,,,,4,8,4,8,,,,,,,,,,,1664.661,1665.138,1665.389,1667.491,space,2.046,,1667.491,58,3,1668.488,1668.488,1668.489,,,,0,12,12,12,1,15,70,,,,,,,,
,,652871abf3042f76d3105444,65af554b941b6f73074ccf8c,2024-01-23_07h00.06.392,bars,2023.2.3,Win32,16.39344262,657b66ea316d21385b68909f,,,,,,,,,,,1668.489,1669.478,,,1669.971,1670.222,,112,112,,,,,,,,,,,,,,,,bars/004.png,bars/mask008.png,,,,,,,,,,,,5,2,,,,,,,2,10,2,9,,,,,,,,,,,1669.478,1669.971,1670.222,1674.234,space,3.958,,1674.234,87,13,1675.234,1675.234,1675.234,,,,0,13,13,13,1,25,125,,,,,,,,
,,652871abf3042f76d3105444,65af554b941b6f73074ccf8c,2024-01-23_07h00.06.392,bars,2023.2.3,Win32,16.39344262,657b66ea316d21385b68909f,,,,,,,,,,,1675.234,1676.24,,,1676.738,1676.971,,72,72,,,,,,,,,,,,,,,,bars/009.png,bars/mask007.png,,,,,,,,,,,,0,2,,,,,,,4,10,5,10,,,,,,,,,,,1676.24,1676.738,1676.971,1680.21,space,3.185,,1680.21,57,33,1681.202,1681.202,1681.202,,,,0,14,14,14,1,15,105,,,,,,,,
,,652871abf3042f76d3105444,65af554b941b6f73074ccf8c,2024-01-23_07h00.06.392,bars,2023.2.3,Win32,16.39344262,657b66ea316d21385b68909f,,,,,,,,,,,1681.202,1682.202,,,1682.682,1682.932,,79,79,,,,,,,,,,,,,,,,bars/021.png,bars/mask002.png,,,,,,,,,,,,6,2,,,,,,,6,8,6,9,,,,,,,,,,,1682.202,1682.682,1682.932,1686.583,space,3.599,,1686.584,76,9,1687.557,1687.557,1687.557,,,,0,15,15,15,1,155,70,,,,,,,,
,,652871abf3042f76d3105444,65af554b941b6f73074ccf8c,2024-01-23_07h00.06.392,bars,2023.2.3,Win32,16.39344262,657b66ea316d21385b68909f,,,,,,,,,,,1687.558,1688.548,,,1689.049,1689.291,,97,97,,,,,,,,,,,,,,,,bars/028.png,bars/mask000.png,,,,,,,,,,,,2,2,,,,,,,4,6,3,7,,,,,,,,,,,1688.548,1689.049,1689.291,1694.044,space,4.698,,1694.044,52,23,1695.05,1695.05,1695.05,,,,0,16,16,16,1,45,120,,,,,,,,
,,652871abf3042f76d3105444,65af554b941b6f73074ccf8c,2024-01-23_07h00.06.392,bars,2023.2.3,Win32,16.39344262,657b66ea316d21385b68909f,,,,,,,,,,,1695.05,1696.038,,,1696.523,1696.763,,33,213,,,,,,,,,,,,,,,,bars/040.png,bars/mask003.png,,,,,,,,,,,,0,2,,,,,,,6,4,7,6,,,,,,,,,,,1696.038,1696.523,1696.763,1702.256,space,5.441,,1702.256,73,28,1703.224,1703.224,1703.225,,,,0,17,17,17,1,140,5,,,,,,,,
,,652871abf3042f76d3105444,65af554b941b6f73074ccf8c,2024-01-23_07h00.06.392,bars,2023.2.3,Win32,16.39344262,657b66ea316d21385b68909f,,,,,,,,,,,1703.225,1704.212,,,1704.709,1704.944,,106,106,,,,,,,,,,,,,,,,bars/018.png,bars/mask005.png,,,,,,,,,,,,1,2,,,,,,,8,2,8,2,,,,,,,,,,,1704.212,1704.709,1704.944,1707.009,space,2.006,,1707.009,44,16,1707.971,1707.971,1707.971,,,,0,18,18,18,1,150,90,,,,,,,,
,,652871abf3042f76d3105444,65af554b941b6f73074ccf8c,2024-01-23_07h00.06.392,bars,2023.2.3,Win32,16.39344262,657b66ea316d21385b68909f,,,,,,,,,,,1707.971,1708.967,,,1709.459,1709.707,,63,63,,,,,,,,,,,,,,,,bars/048.png,bars/mask004.png,,,,,,,,,,,,6,1,,,,,,,10,4,10,3,,,,,,,,,,,1708.967,1709.459,1709.708,1711.335,space,1.569,,1711.335,13,68,1712.341,1712.341,1712.342,,,,0,19,19,19,1,50,175,,,,,,,,
,,652871abf3042f76d3105444,65af554b941b6f73074ccf8c,2024-01-23_07h00.06.392,bars,2023.2.3,Win32,16.39344262,657b66ea316d21385b68909f,,,,,,,,,,,1712.342,1713.337,,,1713.827,1714.077,,147,-33,,,,,,,,,,,,,,,,bars/015.png,bars/mask008.png,,,,,,,,,,,,3,2,,,,,,,10,6,10,6,,,,,,,,,,,1713.337,1713.827,1714.077,1721.92,space,7.781,,1721.92,37,13,1722.904,1722.904,1722.906,,,,0,20,20,20,1,110,160,,,,,,,,
,,652871abf3042f76d3105444,65af554b941b6f73074ccf8c,2024-01-23_07h00.06.392,bars,2023.2.3,Win32,16.39344262,657b66ea316d21385b68909f,,,,,,,,,,,1722.906,1723.892,,,1724.366,1724.611,,118,-62,,,,,,,,,,,,,,,,bars/001.png,bars/mask007.png,,,,,,,,,,,,5,1,,,,,,,10,4,9,4,,,,,,,,,,,1723.892,1724.366,1724.611,1731.289,space,6.623,,1731.289,12,33,1732.29,1732.29,1732.295,,,,0,21,21,21,1,130,85,,,,,,,,
,,652871abf3042f76d3105444,65af554b941b6f73074ccf8c,2024-01-23_07h00.06.392,bars,2023.2.3,Win32,16.39344262,657b66ea316d21385b68909f,,,,,,,,,,,1732.295,1733.288,,,1733.768,1734.002,,83,83,,,,,,,,,,,,,,,,bars/023.png,bars/mask008.png,,,,,,,,,,,,0,2,,,,,,,10,6,10,7,,,,,,,,,,,1733.288,1733.768,1734.002,1735.406,space,1.345,,1735.406,63,32,1736.372,1736.372,1736.374,,,,0,22,22,22,1,20,115,,,,,,,,
,,652871abf3042f76d3105444,65af554b941b6f73074ccf8c,2024-01-23_07h00.06.392,bars,2023.2.3,Win32,16.39344262,657b66ea316d21385b68909f,,,,,,,,,,,1736.374,1737.364,,,1737.854,1738.096,,149,149,,,,,,,,,,,,,,,,bars/048.png,bars/mask006.png,,,,,,,,,,,,1,2,,,,,,,8,4,7,4,,,,,,,,,,,1737.364,1737.854,1738.096,1741.742,space,3.592,,1741.742,81,26,1742.756,1742.756,1742.762,,,,0,23,23,23,1,50,175,,,,,,,,
,,652871abf3042f76d3105444,65af554b941b6f73074ccf8c,2024-01-23_07h00.06.392,bars,2023.2.3,Win32,16.39344262,657b66ea316d21385b68909f,,,,,,,,,,,1742.762,1743.757,,,1744.233,1744.477,,70,70,,,,,,,,,,,,,,,,bars/010.png,bars/mask000.png,,,,,,,,,,,,3,2,,,,,,,6,6,6,6,,,,,,,,,,,1743.758,1744.233,1744.477,1747.341,space,2.811,,1747.341,85,15,1748.347,1748.348,1748.348,,,,0,24,24,24,1,165,55,,,,,,,,
,,652871abf3042f76d3105444,65af554b941b6f73074ccf8c,2024-01-23_07h00.06.392,bars,2023.2.3,Win32,16.39344262,657b66ea316d21385b68909f,,,,,,,,,,,1748.348,1749.32,,,1749.808,1750.044,,118,118,,,,,,,,,,,,,,,,bars/006.png,bars/mask007.png,,,,,,,,,,,,3,2,,,,,,,4,8,4,8,,,,,,,,,,,1749.32,1749.808,1750.044,1756.436,space,6.334,,1756.436,83,18,1757.406,1757.406,1757.406,,,,0,25,25,25,1,35,100,,,,,,,,
,,652871abf3042f76d3105444,65af554b941b6f73074ccf8c,2024-01-23_07h00.06.392,bars,2023.2.3,Win32,16.39344262,657b66ea316d21385b68909f,,,,,,,,,,,1757.406,1758.407,,,1758.888,1759.129,,65,65,,,,,,,,,,,,,,,,bars/042.png,bars/mask002.png,,,,,,,,,,,,4,2,,,,,,,6,6,4,6,,,,,,,,,,,1758.407,1758.888,1759.129,1760.191,space,1.005,,1760.191,80,10,1761.189,1761.189,1761.19,,,,0,26,26,26,1,145,75,,,,,,,,
,,652871abf3042f76d3105444,65af554b941b6f73074ccf8c,2024-01-23_07h00.06.392,bars,2023.2.3,Win32,16.39344262,657b66ea316d21385b68909f,,,,,,,,,,,1761.19,1762.182,,,1762.646,1762.888,,109,109,,,,,,,,,,,,,,,,bars/028.png,bars/mask002.png,,,,,,,,,,,,5,2,,,,,,,4,8,3,8,,,,,,,,,,,1762.182,1762.646,1762.889,1765.891,space,2.947,,1765.891,64,11,1766.869,1766.869,1766.869,,,,0,27,27,27,1,45,120,,,,,,,,
,,652871abf3042f76d3105444,65af554b941b6f73074ccf8c,2024-01-23_07h00.06.392,bars,2023.2.3,Win32,16.39344262,657b66ea316d21385b68909f,,,,,,,,,,,1766.869,1767.882,,,1768.358,1768.599,,60,60,,,,,,,,,,,,,,,,bars/015.png,bars/mask008.png,,,,,,,,,,,,0,1,,,,,,,6,6,7,5,,,,,,,,,,,1767.882,1768.358,1768.599,1770.441,space,1.776,,1770.441,50,80,1771.41,1771.41,1771.411,,,,0,28,28,28,1,110,160,,,,,,,,
,,652871abf3042f76d3105444,65af554b941b6f73074ccf8c,2024-01-23_07h00.06.392,bars,2023.2.3,Win32,16.39344262,657b66ea316d21385b68909f,,,,,,,,,,,1771.411,1772.387,,,1772.875,1773.119,,151,151,,,,,,,,,,,,,,,,bars/024.png,bars/mask001.png,,,,,,,,,,,,3,2,,,,,,,4,8,5,9,,,,,,,,,,,1772.387,1772.875,1773.119,1775.295,space,2.125,,1775.295,31,19,1776.259,1776.259,1776.26,,,,0,29,29,29,1,120,170,,,,,,,,
,,652871abf3042f76d3105444,65af554b941b6f73074ccf8c,2024-01-23_07h00.06.392,bars,2023.2.3,Win32,16.39344262,657b66ea316d21385b68909f,,,,,,,,,,,1776.26,1777.244,,,1777.713,1777.954,,30,210,,,,,,,,,,,,,,,,bars/025.png,bars/mask007.png,,,,,,,,,,,,3,2,,,,,,,6,6,5,5,,,,,,,,,,,1777.244,1777.713,1777.954,1781.398,space,3.388,,1781.398,75,10,1782.359,1782.359,1782.359,,,,0,30,30,30,1,105,40,,,,,,,,
,,652871abf3042f76d3105444,65af554b941b6f73074ccf8c,2024-01-23_07h00.06.392,bars,2023.2.3,Win32,16.39344262,657b66ea316d21385b68909f,,,,,,,,,,,1782.359,1783.339,,,1783.828,1784.069,,47,47,,,,,,,,,,,,,,,,bars/027.png,bars/mask003.png,,,,,,,,,,,,9,2,,,,,,,4,8,3,10,,,,,,,,,,,1783.339,1783.828,1784.069,1785.075,space,0.953,,1785.075,63,3,1786.081,1786.081,1786.081,,,,0,31,31,31,1,110,50,,,,,,,,
,,652871abf3042f76d3105444,65af554b941b6f73074ccf8c,2024-01-23_07h00.06.392,bars,2023.2.3,Win32,16.39344262,657b66ea316d21385b68909f,,,,,,,,,,,1786.081,1787.074,,,1787.565,1787.794,,130,-50,,,,,,,,,,,,,,,,bars/028.png,bars/mask008.png,,,,,,,,,,,,5,2,,,,,,,2,6,4,7,,,,,,,,,,,1787.074,1787.565,1787.794,1795.711,space,7.862,,1795.711,85,10,1796.702,1796.702,1796.702,,,,0,32,32,32,1,45,120,,,,,,,,
,,652871abf3042f76d3105444,65af554b941b6f73074ccf8c,2024-01-23_07h00.06.392,bars,2023.2.3,Win32,16.39344262,657b66ea316d21385b68909f,,,,,,,,,,,1796.703,1797.704,,,1798.197,1798.438,,87,87,,,,,,,,,,,,,,,,bars/046.png,bars/mask002.png,,,,,,,,,,,,7,2,,,,,,,0,8,0,8,,,,,,,,,,,1797.704,1798.197,1798.438,1802.613,space,4.115,,1802.613,68,2,1803.614,1803.614,1803.618,,,,0,33,33,33,1,155,85,,,,,,,,
,,652871abf3042f76d3105444,65af554b941b6f73074ccf8c,2024-01-23_07h00.06.392,bars,2023.2.3,Win32,16.39344262,657b66ea316d21385b68909f,,,,,,,,,,,1803.618,1804.617,,,1805.091,1805.334,,21,201,,,,,,,,,,,,,,,,bars/014.png,bars/mask009.png,,,,,,,,,,,,2,2,,,,,,,2,6,2,7,,,,,,,,,,,1804.617,1805.091,1805.334,1813.423,space,8.031,,1813.423,59,21,1814.432,1814.432,1814.437,,,,0,34,34,34,1,80,0,,,,,,,,
,,652871abf3042f76d3105444,65af554b941b6f73074ccf8c,2024-01-23_07h00.06.392,bars,2023.2.3,Win32,16.39344262,657b66ea316d21385b68909f,,,,,,,,,,,1814.437,1815.434,,,1815.916,1816.16,,73,73,,,,,,,,,,,,,,,,bars/002.png,bars/mask004.png,,,,,,,,,,,,2,2,,,,,,,0,4,1,4,,,,,,,,,,,1815.434,1815.916,1816.16,1818.982,space,2.768,,1818.982,57,12,1819.974,1819.974,1819.979,,,,0,35,35,35,1,130,85,,,,,,,,
,,652871abf3042f76d3105444,65af554b941b6f73074ccf8c,2024-01-23_07h00.06.392,bars,2023.2.3,Win32,16.39344262,657b66ea316d21385b68909f,,,,,,,,,,,1819.979,1820.981,,,1821.481,1821.718,,108,108,,,,,,,,,,,,,,,,bars/046.png,bars/mask008.png,,,,,,,,,,,,1,2,,,,,,,0,6,0,4,,,,,,,,,,,1820.981,1821.481,1821.718,1824.738,space,2.967,,1824.738,47,23,1825.735,1825.735,1825.735,,,,0,36,36,36,1,155,85,,,,,,,,
,,652871abf3042f76d3105444,65af554b941b6f73074ccf8c,2024-01-23_07h00.06.392,bars,2023.2.3,Win32,16.39344262,657b66ea316d21385b68909f,,,,,,,,,,,1825.735,1826.73,,,1827.206,1827.451,,167,167,,,,,,,,,,,,,,,,bars/044.png,bars/mask001.png,,,,,,,,,,,,3,2,,,,,,,2,4,2,5,,,,,,,,,,,1826.73,1827.206,1827.451,1828.173,space,0.667,,1828.173,88,12,1829.174,1829.174,1829.175,,,,0,37,37,37,1,75,155,,,,,,,,
,,652871abf3042f76d3105444,65af554b941b6f73074ccf8c,2024-01-23_07h00.06.392,bars,2023.2.3,Win32,16.39344262,657b66ea316d21385b68909f,,,,,,,,,,,1829.176,1830.176,,,1830.671,1830.908,,71,71,,,,,,,,,,,,,,,,bars/038.png,bars/mask007.png,,,,,,,,,,,,6,2,,,,,,,4,6,5,6,,,,,,,,,,,1830.176,1830.671,1830.908,1837.762,space,6.795,,1837.762,86,1,1838.745,1838.745,1838.75,,,,0,38,38,38,1,165,70,,,,,,,,
,,652871abf3042f76d3105444,65af554b941b6f73074ccf8c,2024-01-23_07h00.06.392,bars,2023.2.3,Win32,16.39344262,657b66ea316d21385b68909f,,,,,,,,,,,1838.75,1839.728,,,1840.218,1840.455,,72,72,,,,,,,,,,,,,,,,bars/006.png,bars/mask003.png,,,,,,,,,,,,1,2,,,,,,,2,8,1,8,,,,,,,,,,,1839.728,1840.218,1840.455,1844.661,space,4.15,,1844.661,37,28,1845.664,1845.664,1845.664,,,,0,39,39,39,1,35,100,,,,,,,,
,,652871abf3042f76d3105444,65af554b941b6f73074ccf8c,2024-01-23_07h00.06.392,bars,2023.2.3,Win32,16.39344262,657b66ea316d21385b68909f,,,,,,,,,,,1845.665,1846.641,,,1847.088,1847.315,,125,125,,,,,,,,,,,,,,,,bars/004.png,bars/mask003.png,,,,,,,,,,,,10,2,,,,,,,0,10,0,10,,,,,,,,,,,1846.641,1847.088,1847.315,1850.315,space,2.947,,1850.315,80,0,1851.324,1851.324,1851.326,,,,0,40,40,40,1,25,125,,,,,,,,
,,652871abf3042f76d3105444,65af554b941b6f73074ccf8c,2024-01-23_07h00.06.392,bars,2023.2.3,Win32,16.39344262,657b66ea316d21385b68909f,,,,,,,,,,,1851.326,1852.312,,,1852.807,1853.045,,116,116,,,,,,,,,,,,,,,,bars/028.png,bars/mask009.png,,,,,,,,,,,,9,2,,,,,,,0,8,1,10,,,,,,,,,,,1852.312,1852.807,1853.045,1856.612,space,3.51,,1856.612,71,4,1857.608,1857.608,1857.613,,,,0,41,41,41,1,45,120,,,,,,,,
,,652871abf3042f76d3105444,65af554b941b6f73074ccf8c,2024-01-23_07h00.06.392,bars,2023.2.3,Win32,16.39344262,657b66ea316d21385b68909f,,,,,,,,,,,1857.613,1858.621,,,1859.11,1859.362,,29,209,,,,,,,,,,,,,,,,bars/012.png,bars/mask008.png,,,,,,,,,,,,5,2,,,,,,,0,10,0,10,,,,,,,,,,,1858.621,1859.11,1859.362,1864.363,space,4.948,,1864.363,61,14,1865.361,1865.361,1865.367,,,,0,42,42,42,1,90,15,,,,,,,,
,,652871abf3042f76d3105444,65af554b941b6f73074ccf8c,2024-01-23_07h00.06.392,bars,2023.2.3,Win32,16.39344262,657b66ea316d21385b68909f,,,,,,,,,,,1865.367,1866.357,,,1866.835,1867.069,,114,114,,,,,,,,,,,,,,,,bars/019.png,bars/mask002.png,,,,,,,,,,,,7,2,,,,,,,2,10,2,10,,,,,,,,,,,1866.358,1866.835,1867.069,1871.558,space,4.434,,1871.558,69,9,1872.551,1872.551,1872.557,,,,0,43,43,43,1,45,105,,,,,,,,
,,652871abf3042f76d3105444,65af554b941b6f73074ccf8c,2024-01-23_07h00.06.392,bars,2023.2.3,Win32,16.39344262,657b66ea316d21385b68909f,,,,,,,,,,,1872.557,1873.54,,,1874.025,1874.267,,64,64,,,,,,,,,,,,,,,,bars/009.png,bars/mask008.png,,,,,,,,,,,,0,2,,,,,,,0,8,1,9,,,,,,,,,,,1873.54,1874.025,1874.267,1878.765,space,4.447,,1878.765,49,41,1879.755,1879.755,1879.756,,,,0,44,44,44,1,15,105,,,,,,,,
,,652871abf3042f76d3105444,65af554b941b6f73074ccf8c,2024-01-23_07h00.06.392,bars,2023.2.3,Win32,16.39344262,657b66ea316d21385b68909f,,,,,,,,,,,1879.756,1880.723,,,1881.217,1881.455,,39,39,,,,,,,,,,,,,,,,bars/045.png,bars/mask006.png,,,,,,,,,,,,0,2,,,,,,,0,10,0,10,,,,,,,,,,,1880.723,1881.217,1881.455,1883.499,space,1.988,,1883.499,61,29,1884.481,1884.481,1884.481,,,,0,45,45,45,1,100,10,,,,,,,,
,,652871abf3042f76d3105444,65af554b941b6f73074ccf8c,2024-01-23_07h00.06.392,bars,2023.2.3,Win32,16.39344262,657b66ea316d21385b68909f,,,,,,,,,,,1884.481,1885.486,,,1885.974,1886.209,,51,51,,,,,,,,,,,,,,,,bars/025.png,bars/mask005.png,,,,,,,,,,,,6,2,,,,,,,0,10,0,10,,,,,,,,,,,1885.486,1885.974,1886.209,1888.105,space,1.843,,1888.105,54,11,1889.091,1889.091,1889.096,,,,0,46,46,46,1,105,40,,,,,,,,
,,652871abf3042f76d3105444,65af554b941b6f73074ccf8c,2024-01-23_07h00.06.392,bars,2023.2.3,Win32,16.39344262,657b66ea316d21385b68909f,,,,,,,,,,,1889.096,1890.096,,,1890.582,1890.827,,85,85,,,,,,,,,,,,,,,,bars/011.png,bars/mask004.png,,,,,,,,,,,,8,2,,,,,,,0,8,0,8,,,,,,,,,,,1890.096,1890.581,1890.827,1895.204,space,4.319,,1895.204,75,0,1896.215,1896.215,1896.22,,,,0,47,47,47,1,160,85,,,,,,,,
,,652871abf3042f76d3105444,65af554b941b6f73074ccf8c,2024-01-23_07h00.06.392,bars,2023.2.3,Win32,16.39344262,657b66ea316d21385b68909f,,,,,,,,,,,1896.221,1897.187,,,1897.661,1897.899,,110,110,,,,,,,,,,,,,,,,bars/028.png,bars/mask004.png,,,,,,,,,,,,5,2,,,,,,,0,6,0,7,,,,,,,,,,,1897.188,1897.661,1897.899,1900.607,space,2.654,,1900.607,65,10,1901.563,1901.563,1901.564,,,,0,48,48,48,1,45,120,,,,,,,,
,,652871abf3042f76d3105444,65af554b941b6f73074ccf8c,2024-01-23_07h00.06.392,bars,2023.2.3,Win32,16.39344262,657b66ea316d21385b68909f,,,,,,,,,,,1901.564,1902.553,,,1903.048,1903.277,,54,54,,,,,,,,,,,,,,,,bars/046.png,bars/mask006.png,,,,,,,,,,,,0,2,,,,,,,2,4,3,5,,,,,,,,,,,1902.553,1903.048,1903.277,1903.874,space,0.54,,1903.874,79,31,1904.878,1904.879,1904.879,,,,0,49,49,49,1,155,85,,,,,,,,
,,652871abf3042f76d3105444,65af554b941b6f73074ccf8c,2024-01-23_07h00.06.392,bars,2023.2.3,Win32,16.39344262,657b66ea316d21385b68909f,,,,,,,,,,,,,,,,,,,,,,,,,,,,,,,,,,,,,,,,,,,,,,,,,,,,,,,,,,,,,,,,,,,,,,,,,,,,,,,,,,,,,,,,,,,,,1904.879,1961.311,0,3,3,4,1,sequence_tables/blk003.csv
,,652871abf3042f76d3105444,65af554b941b6f73074ccf8c,2024-01-23_07h00.06.392,bars,2023.2.3,Win32,16.39344262,657b66ea316d21385b68909f,,,,,,,,,,,1963.163,1964.173,,,1964.684,1964.916,,76,76,,,,,,,,,,,,,,,,bars/030.png,bars/mask007.png,,,,,,,,,,,,3,2,,,,,,,3,6,4,4,,,,,,1961.316,1963.161,space,1.791,,1964.173,1964.684,1964.916,1966.412,space,1.441,,1966.412,64,11,1967.371,1967.371,1967.372,,,,0,0,0,0,1,140,65,,,,,,,,
,,652871abf3042f76d3105444,65af554b941b6f73074ccf8c,2024-01-23_07h00.06.392,bars,2023.2.3,Win32,16.39344262,657b66ea316d21385b68909f,,,,,,,,,,,1967.372,1968.383,,,1968.858,1969.094,,36,36,,,,,,,,,,,,,,,,bars/034.png,bars/mask005.png,,,,,,,,,,,,0,2,,,,,,,1,4,1,2,,,,,,,,,,,1968.383,1968.858,1969.094,1969.677,space,0.524,,1969.677,89,29,1970.637,1970.637,1970.637,,,,0,1,1,1,1,125,65,,,,,,,,
,,652871abf3042f76d3105444,65af554b941b6f73074ccf8c,2024-01-23_07h00.06.392,bars,2023.2.3,Win32,16.39344262,657b66ea316d21385b68909f,,,,,,,,,,,1970.638,1971.597,,,1972.06,1972.291,,155,-25,,,,,,,,,,,,,,,,bars/039.png,bars/mask003.png,,,,,,,,,,,,0,1,,,,,,,0,2,0,3,,,,,,,,,,,1971.597,1972.06,1972.291,1975.513,space,3.168,,1975.513,20,50,1976.476,1976.476,1976.477,,,,0,2,2,2,1,175,105,,,,,,,,
,,652871abf3042f76d3105444,65af554b941b6f73074ccf8c,2024-01-23_07h00.06.392,bars,2023.2.3,Win32,16.39344262,657b66ea316d21385b68909f,,,,,,,,,,,1976.477,1977.482,,,1977.943,1978.176,,23,203,,,,,,,,,,,,,,,,bars/012.png,bars/mask001.png,,,,,,,,,,,,1,2,,,,,,,2,0,1,1,,,,,,,,,,,1977.482,1977.943,1978.176,1980.994,space,2.766,,1980.994,67,8,1981.983,1981.983,1981.984,,,,0,3,3,3,1,90,15,,,,,,,,
,,652871abf3042f76d3105444,65af554b941b6f73074ccf8c,2024-01-23_07h00.06.392,bars,2023.2.3,Win32,16.39344262,657b66ea316d21385b68909f,,,,,,,,,,,1981.984,1982.994,,,1983.483,1983.719,,46,46,,,,,,,,,,,,,,,,bars/048.png,bars/mask001.png,,,,,,,,,,,,0,1,,,,,,,0,0,0,1,,,,,,,,,,,1982.994,1983.483,1983.719,1984.118,space,0.346,,1984.118,4,51,1985.134,1985.134,1985.134,,,,0,4,4,4,1,50,175,,,,,,,,
,,652871abf3042f76d3105444,65af554b941b6f73074ccf8c,2024-01-23_07h00.06.392,bars,2023.2.3,Win32,16.39344262,657b66ea316d21385b68909f,,,,,,,,,,,1985.134,1986.117,,,1986.599,1986.834,,60,60,,,,,,,,,,,,,,,,bars/037.png,bars/mask005.png,,,,,,,,,,,,0,2,,,,,,,0,0,0,0,,,,,,,,,,,1986.117,1986.599,1986.834,1988.166,space,1.275,,1988.166,90,45,1989.164,1989.164,1989.166,,,,0,5,5,5,1,150,105,,,,,,,,
,,652871abf3042f76d3105444,65af554b941b6f73074ccf8c,2024-01-23_07h00.06.392,bars,2023.2.3,Win32,16.39344262,657b66ea316d21385b68909f,,,,,,,,,,,1989.166,1990.153,,,1990.619,1990.854,,92,92,,,,,,,,,,,,,,,,bars/020.png,bars/mask007.png,,,,,,,,,,,,0,1,,,,,,,0,2,2,3,,,,,,,,,,,1990.153,1990.619,1990.854,1994.676,space,3.764,,1994.676,23,78,1995.654,1995.654,1995.656,,,,0,6,6,6,1,115,170,,,,,,,,
,,652871abf3042f76d3105444,65af554b941b6f73074ccf8c,2024-01-23_07h00.06.392,bars,2023.2.3,Win32,16.39344262,657b66ea316d21385b68909f,,,,,,,,,,,1995.656,1996.624,,,1997.088,1997.341,,32,32,,,,,,,,,,,,,,,,bars/010.png,bars/mask006.png,,,,,,,,,,,,0,2,,,,,,,2,0,1,0,,,,,,,,,,,1996.624,1997.088,1997.341,1999.583,space,2.188,,1999.583,47,23,2000.561,2000.561,2000.562,,,,0,7,7,7,1,165,55,,,,,,,,
,,652871abf3042f76d3105444,65af554b941b6f73074ccf8c,2024-01-23_07h00.06.392,bars,2023.2.3,Win32,16.39344262,657b66ea316d21385b68909f,,,,,,,,,,,2000.562,2001.535,,,2002.025,2002.257,,53,53,,,,,,,,,,,,,,,,bars/037.png,bars/mask000.png,,,,,,,,,,,,0,2,,,,,,,4,2,4,1,,,,,,,,,,,2001.535,2002.025,2002.257,2005.66,space,3.337,,2005.66,83,52,2006.648,2006.648,2006.653,,,,0,8,8,8,1,150,105,,,,,,,,
,,652871abf3042f76d3105444,65af554b941b6f73074ccf8c,2024-01-23_07h00.06.392,bars,2023.2.3,Win32,16.39344262,657b66ea316d21385b68909f,,,,,,,,,,,2006.653,2007.628,,,2008.106,2008.349,,49,49,,,,,,,,,,,,,,,,bars/034.png,bars/mask003.png,,,,,,,,,,,,0,2,,,,,,,2,0,2,0,,,,,,,,,,,2007.628,2008.106,2008.349,2011.071,space,2.667,,2011.071,76,16,2012.062,2012.062,2012.068,,,,0,9,9,9,1,125,65,,,,,,,,
,,652871abf3042f76d3105444,65af554b941b6f73074ccf8c,2024-01-23_07h00.06.392,bars,2023.2.3,Win32,16.39344262,657b66ea316d21385b68909f,,,,,,,,,,,2012.068,2013.03,,,2013.512,2013.756,,115,115,,,,,,,,,,,,,,,,bars/017.png,bars/mask008.png,,,,,,,,,,,,0,1,,,,,,,4,0,4,0,,,,,,,,,,,2013.03,2013.512,2013.756,2016.791,space,2.983,,2016.791,30,70,2017.775,2017.775,2017.78,,,,0,10,10,10,1,145,45,,,,,,,,
,,652871abf3042f76d3105444,65af554b941b6f73074ccf8c,2024-01-23_07h00.06.392,bars,2023.2.3,Win32,16.39344262,657b66ea316d21385b68909f,,,,,,,,,,,2017.78,2018.76,,,2019.24,2019.464,,85,85,,,,,,,,,,,,,,,,bars/027.png,bars/mask008.png,,,,,,,,,,,,1,1,,,,,,,6,0,6,0,,,,,,,,,,,2018.761,2019.24,2019.464,2019.585,space,0.069,,2019.585,25,35,2020.548,2020.548,2020.548,,,,0,11,11,11,1,110,50,,,,,,,,
,,652871abf3042f76d3105444,65af554b941b6f73074ccf8c,2024-01-23_07h00.06.392,bars,2023.2.3,Win32,16.39344262,657b66ea316d21385b68909f,,,,,,,,,,,2020.549,2021.53,,,2021.985,2022.223,,20,20,,,,,,,,,,,,,,,,bars/017.png,bars/mask007.png,,,,,,,,,,,,0,2,,,,,,,4,0,5,1,,,,,,,,,,,2021.53,2021.985,2022.223,2022.394,space,0.12,,2022.394,55,25,2023.371,2023.371,2023.372,,,,0,12,12,12,1,145,45,,,,,,,,
,,652871abf3042f76d3105444,65af554b941b6f73074ccf8c,2024-01-23_07h00.06.392,bars,2023.2.3,Win32,16.39344262,657b66ea316d21385b68909f,,,,,,,,,,,2023.372,2024.377,,,2024.847,2025.098,,22,22,,,,,,,,,,,,,,,,bars/048.png,bars/mask004.png,,,,,,,,,,,,0,2,,,,,,,6,0,6,0,,,,,,,,,,,2024.377,2024.847,2025.098,2027.433,space,2.277,,2027.433,28,27,2028.41,2028.41,2028.41,,,,0,13,13,13,1,50,175,,,,,,,,
,,652871abf3042f76d3105444,65af554b941b6f73074ccf8c,2024-01-23_07h00.06.392,bars,2023.2.3,Win32,16.39344262,657b66ea316d21385b68909f,,,,,,,,,,,2028.411,2029.407,,,2029.885,2030.118,,59,59,,,,,,,,,,,,,,,,bars/014.png,bars/mask004.png,,,,,,,,,,,,1,1,,,,,,,4,0,4,0,,,,,,,,,,,2029.407,2029.885,2030.118,2033.459,space,3.284,,2033.459,21,59,2034.463,2034.463,2034.468,,,,0,14,14,14,1,80,0,,,,,,,,
,,652871abf3042f76d3105444,65af554b941b6f73074ccf8c,2024-01-23_07h00.06.392,bars,2023.2.3,Win32,16.39344262,657b66ea316d21385b68909f,,,,,,,,,,,2034.468,2035.459,,,2035.96,2036.203,,171,171,,,,,,,,,,,,,,,,bars/014.png,bars/mask007.png,,,,,,,,,,,,2,2,,,,,,,2,2,1,3,,,,,,,,,,,2035.459,2035.96,2036.203,2037.837,space,1.58,,2037.837,89,9,2038.834,2038.834,2038.835,,,,0,15,15,15,1,80,0,,,,,,,,
,,652871abf3042f76d3105444,65af554b941b6f73074ccf8c,2024-01-23_07h00.06.392,bars,2023.2.3,Win32,16.39344262,657b66ea316d21385b68909f,,,,,,,,,,,2038.835,2039.841,,,2040.313,2040.548,,1,181,,,,,,,,,,,,,,,,bars/042.png,bars/mask005.png,,,,,,,,,,,,0,1,,,,,,,4,4,5,5,,,,,,,,,,,2039.841,2040.313,2040.548,2042.531,space,1.927,,2042.531,36,74,2043.53,2043.53,2043.53,,,,0,16,16,16,1,145,75,,,,,,,,
,,652871abf3042f76d3105444,65af554b941b6f73074ccf8c,2024-01-23_07h00.06.392,bars,2023.2.3,Win32,16.39344262,657b66ea316d21385b68909f,,,,,,,,,,,2043.53,2044.506,,,2045.004,2045.245,,141,141,,,,,,,,,,,,,,,,bars/046.png,bars/mask006.png,,,,,,,,,,,,2,1,,,,,,,6,6,4,6,,,,,,,,,,,2044.506,2045.004,2045.245,2046.738,space,1.436,,2046.738,14,56,2047.752,2047.752,2047.757,,,,0,17,17,17,1,155,85,,,,,,,,
,,652871abf3042f76d3105444,65af554b941b6f73074ccf8c,2024-01-23_07h00.06.392,bars,2023.2.3,Win32,16.39344262,657b66ea316d21385b68909f,,,,,,,,,,,2047.757,2048.718,,,2049.188,2049.441,,92,92,,,,,,,,,,,,,,,,bars/046.png,bars/mask009.png,,,,,,,,,,,,3,2,,,,,,,8,4,9,4,,,,,,,,,,,2048.718,2049.188,2049.441,2051.447,space,1.944,,2051.447,63,7,2052.394,2052.394,2052.399,,,,0,18,18,18,1,155,85,,,,,,,,
,,652871abf3042f76d3105444,65af554b941b6f73074ccf8c,2024-01-23_07h00.06.392,bars,2023.2.3,Win32,16.39344262,657b66ea316d21385b68909f,,,,,,,,,,,2052.4,2053.394,,,2053.899,2054.145,,160,-20,,,,,,,,,,,,,,,,bars/019.png,bars/mask008.png,,,,,,,,,,,,0,2,,,,,,,6,6,6,7,,,,,,,,,,,2053.394,2053.899,2054.145,2056.531,space,2.332,,2056.531,65,55,2057.53,2057.53,2057.53,,,,0,19,19,19,1,45,105,,,,,,,,
