init_variables.started,init_variables.stopped,participant,session,date,expName,psychopyVersion,OS,frameRate,study_id,instruction_exp.started,instruction_exp.stopped,key_resp_8.keys,key_resp_8.rt,key_resp_8.duration,instruction_single.started,instruction_single.stopped,key_resp_2.keys,key_resp_2.rt,key_resp_2.duration,interval.started,interval.stopped,cue_single.started,cue_single.stopped,mask.started,mask.stopped,ori_response_single.started,res_ori,res,ori_response_single.stopped,key_resp_single.keys,key_resp_single.rt,key_resp_single.duration,disp_single.started,disp_single.stopped,key_resp.keys,key_resp.rt,key_resp.duration,single.thisRepN,single.thisTrialN,single.thisN,single.thisIndex,single.ran,ori,path,mask_path,instruction_bandit.started,instruction_bandit.stopped,key_resp_6.keys,key_resp_6.rt,key_resp_6.duration,cue_bandit.started,cue_bandit.stopped,bandit_res.keys,bandit_res.rt,bandit_res.duration,outcome_bandit.started,rew,action,outcome_bandit.stopped,bandit.thisRepN,bandit.thisTrialN,bandit.thisN,bandit.thisIndex,bandit.ran,actual_rew1,actual_rew2,rew1,rew2,instruction_task.started,instruction_task.stopped,key_resp_7.keys,key_resp_7.rt,key_resp_7.duration,wait_ready.started,wait_ready.stopped,key_resp_3.keys,key_resp_3.rt,key_resp_3.duration,cue.started,cue.stopped,ori_response.started,ori_response.stopped,key_resp_5.keys,key_resp_5.rt,key_resp_5.duration,outcome.started,diff1,diff2,outcome.stopped,disp_outcome_practice.started,disp_outcome_practice.stopped,key_resp_4.keys,key_resp_4.rt,key_resp_4.duration,trials.thisRepN,trials.thisTrialN,trials.thisN,trials.thisIndex,trials.ran,ori1,ori2,break_blk.started,break_blk.stopped,block.thisRepN,block.thisTrialN,block.thisN,block.thisIndex,block.ran,condition_file
0.001,0.001,60e00818b935a41dcfb1cccd,65af551fbe6af047326a98a8,2024-01-23_07h57.50.407,bars,2023.2.3,Win32,29.9940012,657b66ea316d21385b68909f,,,,,,,,,,,,,,,,,,,,,,,,,,,,,,,,,,,,,,,,,,,,,,,,,,,,,,,,,,,,,,,,,,,,,,,,,,,,,,,,,,,,,,,,,,,,,,,,,,,,
,,60e00818b935a41dcfb1cccd,65af551fbe6af047326a98a8,2024-01-23_07h57.50.407,bars,2023.2.3,Win32,29.9940012,657b66ea316d21385b68909f,0.002,1231.835,y,1231.332,0.252,,,,,,,,,,,,,,,,,,,,,,,,,,,,,,,,,,,,,,,,,,,,,,,,,,,,,,,,,,,,,,,,,,,,,,,,,,,,,,,,,,,,,,,,,,,,,,,
,,60e00818b935a41dcfb1cccd,65af551fbe6af047326a98a8,2024-01-23_07h57.50.407,bars,2023.2.3,Win32,29.9940012,657b66ea316d21385b68909f,,,,,,1231.868,1246.62,space,14.445,,,,,,,,,,,,,,,,,,,,,,,,,,,,,,,,,,,,,,,,,,,,,,,,,,,,,,,,,,,,,,,,,,,,,,,,,,,,,,,,,,,,,,,,,,,
,,60e00818b935a41dcfb1cccd,65af551fbe6af047326a98a8,2024-01-23_07h57.50.407,bars,2023.2.3,Win32,29.9940012,657b66ea316d21385b68909f,,,,,,,,,,,1246.951,1247.621,1247.622,1248.124,1248.124,1248.335,1248.335,0,0,1262.91,space,14.427,,1262.911,1276.601,space,13.663,,0,0,0,2,1,145,bars/single002.png,bars/mask003.png,,,,,,,,,,,,,,,,,,,,,,,,,,,,,,,,,,,,,,,,,,,,,,,,,,,,,,,,,,,,,,,,
,,60e00818b935a41dcfb1cccd,65af551fbe6af047326a98a8,2024-01-23_07h57.50.407,bars,2023.2.3,Win32,29.9940012,657b66ea316d21385b68909f,,,,,,,,,,,1276.849,1277.622,1277.622,1278.102,1278.102,1278.38,1278.38,14,14,1284.35,space,5.874,,1284.35,1299.179,space,14.78,,0,1,1,5,1,55,bars/single005.png,bars/mask008.png,,,,,,,,,,,,,,,,,,,,,,,,,,,,,,,,,,,,,,,,,,,,,,,,,,,,,,,,,,,,,,,,
,,60e00818b935a41dcfb1cccd,65af551fbe6af047326a98a8,2024-01-23_07h57.50.407,bars,2023.2.3,Win32,29.9940012,657b66ea316d21385b68909f,,,,,,,,,,,1299.185,1300.178,1300.178,1300.527,1300.527,1300.759,1300.759,87,87,1310.133,space,9.345,,1310.133,1315.119,space,4.952,,0,2,2,4,1,95,bars/single004.png,bars/mask004.png,,,,,,,,,,,,,,,,,,,,,,,,,,,,,,,,,,,,,,,,,,,,,,,,,,,,,,,,,,,,,,,,
,,60e00818b935a41dcfb1cccd,65af551fbe6af047326a98a8,2024-01-23_07h57.50.407,bars,2023.2.3,Win32,29.9940012,657b66ea316d21385b68909f,,,,,,,,,,,1315.123,1316.106,1316.106,1316.599,1316.599,1316.767,1316.767,164,-16,1322.373,space,5.593,,1322.374,1329.297,space,6.908,,0,3,3,1,1,20,bars/single001.png,bars/mask006.png,,,,,,,,,,,,,,,,,,,,,,,,,,,,,,,,,,,,,,,,,,,,,,,,,,,,,,,,,,,,,,,,
,,60e00818b935a41dcfb1cccd,65af551fbe6af047326a98a8,2024-01-23_07h57.50.407,bars,2023.2.3,Win32,29.9940012,657b66ea316d21385b68909f,,,,,,,,,,,1329.299,1330.291,1330.291,1330.783,1330.783,1331.029,1331.03,129,129,1336.524,space,4.536,,1336.524,1341.218,space,4.663,,0,4,4,8,1,160,bars/single008.png,bars/mask004.png,,,,,,,,,,,,,,,,,,,,,,,,,,,,,,,,,,,,,,,,,,,,,,,,,,,,,,,,,,,,,,,,
,,60e00818b935a41dcfb1cccd,65af551fbe6af047326a98a8,2024-01-23_07h57.50.407,bars,2023.2.3,Win32,29.9940012,657b66ea316d21385b68909f,,,,,,,,,,,1341.22,1342.229,1342.229,1342.727,1342.727,1342.977,1342.977,13,193,1346.637,space,3.645,,1346.64,1350.886,space,4.162,,0,5,5,6,1,175,bars/single006.png,bars/mask005.png,,,,,,,,,,,,,,,,,,,,,,,,,,,,,,,,,,,,,,,,,,,,,,,,,,,,,,,,,,,,,,,,
,,60e00818b935a41dcfb1cccd,65af551fbe6af047326a98a8,2024-01-23_07h57.50.407,bars,2023.2.3,Win32,29.9940012,657b66ea316d21385b68909f,,,,,,,,,,,1350.889,1351.935,1351.935,1352.402,1352.402,1352.651,1352.651,20,20,1356.524,space,3.857,,1356.524,1363.134,space,6.599,,0,6,6,9,1,20,bars/single009.png,bars/mask006.png,,,,,,,,,,,,,,,,,,,,,,,,,,,,,,,,,,,,,,,,,,,,,,,,,,,,,,,,,,,,,,,,
,,60e00818b935a41dcfb1cccd,65af551fbe6af047326a98a8,2024-01-23_07h57.50.407,bars,2023.2.3,Win32,29.9940012,657b66ea316d21385b68909f,,,,,,,,,,,1363.159,1364.143,1364.143,1364.655,1364.655,1364.905,1364.905,150,150,1370.665,space,5.751,,1370.665,1375.114,space,4.42,,0,7,7,0,1,150,bars/single000.png,bars/mask006.png,,,,,,,,,,,,,,,,,,,,,,,,,,,,,,,,,,,,,,,,,,,,,,,,,,,,,,,,,,,,,,,,
,,60e00818b935a41dcfb1cccd,65af551fbe6af047326a98a8,2024-01-23_07h57.50.407,bars,2023.2.3,Win32,29.9940012,657b66ea316d21385b68909f,,,,,,,,,,,1375.114,1376.099,1376.099,1376.468,1376.468,1376.551,1376.551,40,40,1380.356,space,3.781,,1380.356,1382.631,space,2.196,,0,8,8,3,1,20,bars/single003.png,bars/mask005.png,,,,,,,,,,,,,,,,,,,,,,,,,,,,,,,,,,,,,,,,,,,,,,,,,,,,,,,,,,,,,,,,
,,60e00818b935a41dcfb1cccd,65af551fbe6af047326a98a8,2024-01-23_07h57.50.407,bars,2023.2.3,Win32,29.9940012,657b66ea316d21385b68909f,,,,,,,,,,,1382.632,1383.631,1383.631,1383.968,1383.969,1384.203,1384.203,126,126,1393.52,space,9.297,,1393.52,1399.087,space,4.777,,0,9,9,7,1,45,bars/single007.png,bars/mask009.png,,,,,,,,,,,,,,,,,,,,,,,,,,,,,,,,,,,,,,,,,,,,,,,,,,,,,,,,,,,,,,,,
,,60e00818b935a41dcfb1cccd,65af551fbe6af047326a98a8,2024-01-23_07h57.50.407,bars,2023.2.3,Win32,29.9940012,657b66ea316d21385b68909f,,,,,,,,,,,,,,,,,,,,,,,,,,,,,,,,,,,,,1399.105,1413.778,space,14.639,,,,,,,,,,,,,,,,,,,,,,,,,,,,,,,,,,,,,,,,,,,,,,,,,,,,,,,,,,,,
,,60e00818b935a41dcfb1cccd,65af551fbe6af047326a98a8,2024-01-23_07h57.50.407,bars,2023.2.3,Win32,29.9940012,657b66ea316d21385b68909f,,,,,,,,,,,,,,,,,,,,,,,,,,,,,,,,,,,,,,,,,,1413.817,1415.516,left,1.519,,1415.517,9,1,1416.519,0,0,0,0,1,9,1,9,2,,,,,,,,,,,,,,,,,,,,,,,,,,,,,,,,,,,,,,,,,
,,60e00818b935a41dcfb1cccd,65af551fbe6af047326a98a8,2024-01-23_07h57.50.407,bars,2023.2.3,Win32,29.9940012,657b66ea316d21385b68909f,,,,,,,,,,,,,,,,,,,,,,,,,,,,,,,,,,,,,,,,,,1416.521,1418.954,left,2.421,,1418.954,10,1,1419.948,0,1,1,1,1,10,0,10,1,,,,,,,,,,,,,,,,,,,,,,,,,,,,,,,,,,,,,,,,,
,,60e00818b935a41dcfb1cccd,65af551fbe6af047326a98a8,2024-01-23_07h57.50.407,bars,2023.2.3,Win32,29.9940012,657b66ea316d21385b68909f,,,,,,,,,,,,,,,,,,,,,,,,,,,,,,,,,,,,,,,,,,1419.948,1422.893,left,2.936,,1422.893,10,1,1423.885,0,2,2,2,1,10,2,10,2,,,,,,,,,,,,,,,,,,,,,,,,,,,,,,,,,,,,,,,,,
,,60e00818b935a41dcfb1cccd,65af551fbe6af047326a98a8,2024-01-23_07h57.50.407,bars,2023.2.3,Win32,29.9940012,657b66ea316d21385b68909f,,,,,,,,,,,,,,,,,,,,,,,,,,,,,,,,,,,,,,,,,,1423.885,1425.748,left,1.853,0.001,1425.748,7,1,1426.911,0,3,3,3,1,8,4,7,3,,,,,,,,,,,,,,,,,,,,,,,,,,,,,,,,,,,,,,,,,
,,60e00818b935a41dcfb1cccd,65af551fbe6af047326a98a8,2024-01-23_07h57.50.407,bars,2023.2.3,Win32,29.9940012,657b66ea316d21385b68909f,,,,,,,,,,,,,,,,,,,,,,,,,,,,,,,,,,,,,,,,,,1426.99,1428.434,right,0.864,,1428.434,1,2,1429.438,0,4,4,4,1,6,2,5,1,,,,,,,,,,,,,,,,,,,,,,,,,,,,,,,,,,,,,,,,,
,,60e00818b935a41dcfb1cccd,65af551fbe6af047326a98a8,2024-01-23_07h57.50.407,bars,2023.2.3,Win32,29.9940012,657b66ea316d21385b68909f,,,,,,,,,,,,,,,,,,,,,,,,,,,,,,,,,,,,,,,,,,1429.438,1430.171,left,0.707,,1430.171,4,1,1431.432,0,5,5,5,1,4,4,4,4,,,,,,,,,,,,,,,,,,,,,,,,,,,,,,,,,,,,,,,,,
,,60e00818b935a41dcfb1cccd,65af551fbe6af047326a98a8,2024-01-23_07h57.50.407,bars,2023.2.3,Win32,29.9940012,657b66ea316d21385b68909f,,,,,,,,,,,,,,,,,,,,,,,,,,,,,,,,,,,,,,,,,,1431.438,1432.41,right,0.95,,1432.41,2,2,1433.49,0,6,6,6,1,2,2,1,2,,,,,,,,,,,,,,,,,,,,,,,,,,,,,,,,,,,,,,,,,
,,60e00818b935a41dcfb1cccd,65af551fbe6af047326a98a8,2024-01-23_07h57.50.407,bars,2023.2.3,Win32,29.9940012,657b66ea316d21385b68909f,,,,,,,,,,,,,,,,,,,,,,,,,,,,,,,,,,,,,,,,,,1433.492,1434.686,left,1.171,,1434.686,0,1,1436.884,0,7,7,7,1,0,0,0,1,,,,,,,,,,,,,,,,,,,,,,,,,,,,,,,,,,,,,,,,,
,,60e00818b935a41dcfb1cccd,65af551fbe6af047326a98a8,2024-01-23_07h57.50.407,bars,2023.2.3,Win32,29.9940012,657b66ea316d21385b68909f,,,,,,,,,,,,,,,,,,,,,,,,,,,,,,,,,,,,,,,,,,1436.885,1446.533,left,9.585,,1446.534,1,1,1446.908,0,8,8,8,1,0,2,1,0,,,,,,,,,,,,,,,,,,,,,,,,,,,,,,,,,,,,,,,,,
,,60e00818b935a41dcfb1cccd,65af551fbe6af047326a98a8,2024-01-23_07h57.50.407,bars,2023.2.3,Win32,29.9940012,657b66ea316d21385b68909f,,,,,,,,,,,,,,,,,,,,,,,,,,,,,,,,,,,,,,,,,,1446.919,1447.963,left,0.517,0.16,1447.963,2,1,1458.767,0,9,9,9,1,2,4,2,3,,,,,,,,,,,,,,,,,,,,,,,,,,,,,,,,,,,,,,,,,
,,60e00818b935a41dcfb1cccd,65af551fbe6af047326a98a8,2024-01-23_07h57.50.407,bars,2023.2.3,Win32,29.9940012,657b66ea316d21385b68909f,,,,,,,,,,,,,,,,,,,,,,,,,,,,,,,,,,,,,,,,,,1458.771,1460.569,right,1.779,,1460.569,3,2,1462.159,0,10,10,10,1,0,2,0,3,,,,,,,,,,,,,,,,,,,,,,,,,,,,,,,,,,,,,,,,,
,,60e00818b935a41dcfb1cccd,65af551fbe6af047326a98a8,2024-01-23_07h57.50.407,bars,2023.2.3,Win32,29.9940012,657b66ea316d21385b68909f,,,,,,,,,,,,,,,,,,,,,,,,,,,,,,,,,,,,,,,,,,1462.16,1473.864,right,11.679,0.002,1473.864,3,2,1476.271,0,11,11,11,1,0,4,0,3,,,,,,,,,,,,,,,,,,,,,,,,,,,,,,,,,,,,,,,,,
,,60e00818b935a41dcfb1cccd,65af551fbe6af047326a98a8,2024-01-23_07h57.50.407,bars,2023.2.3,Win32,29.9940012,657b66ea316d21385b68909f,,,,,,,,,,,,,,,,,,,,,,,,,,,,,,,,,,,,,,,,,,1476.272,1477.648,left,1.362,,1477.648,1,1,1478.658,0,12,12,12,1,2,6,1,6,,,,,,,,,,,,,,,,,,,,,,,,,,,,,,,,,,,,,,,,,
,,60e00818b935a41dcfb1cccd,65af551fbe6af047326a98a8,2024-01-23_07h57.50.407,bars,2023.2.3,Win32,29.9940012,657b66ea316d21385b68909f,,,,,,,,,,,,,,,,,,,,,,,,,,,,,,,,,,,,,,,,,,1478.658,1479.342,right,0.662,,1479.342,3,2,1480.331,0,13,13,13,1,0,4,1,3,,,,,,,,,,,,,,,,,,,,,,,,,,,,,,,,,,,,,,,,,
,,60e00818b935a41dcfb1cccd,65af551fbe6af047326a98a8,2024-01-23_07h57.50.407,bars,2023.2.3,Win32,29.9940012,657b66ea316d21385b68909f,,,,,,,,,,,,,,,,,,,,,,,,,,,,,,,,,,,,,,,,,,1480.331,1480.915,right,0.576,,1480.915,7,2,1481.926,0,14,14,14,1,2,6,2,7,,,,,,,,,,,,,,,,,,,,,,,,,,,,,,,,,,,,,,,,,
,,60e00818b935a41dcfb1cccd,65af551fbe6af047326a98a8,2024-01-23_07h57.50.407,bars,2023.2.3,Win32,29.9940012,657b66ea316d21385b68909f,,,,,,,,,,,,,,,,,,,,,,,,,,,,,,,,,,,,,,,,,,1481.926,1483.231,right,1.296,0.001,1483.232,9,2,1484.229,0,15,15,15,1,4,8,3,9,,,,,,,,,,,,,,,,,,,,,,,,,,,,,,,,,,,,,,,,,
,,60e00818b935a41dcfb1cccd,65af551fbe6af047326a98a8,2024-01-23_07h57.50.407,bars,2023.2.3,Win32,29.9940012,657b66ea316d21385b68909f,,,,,,,,,,,,,,,,,,,,,,,,,,,,,,,,,,,,,,,,,,1484.229,1484.983,right,0.732,,1484.983,7,2,1485.994,0,16,16,16,1,6,6,7,7,,,,,,,,,,,,,,,,,,,,,,,,,,,,,,,,,,,,,,,,,
,,60e00818b935a41dcfb1cccd,65af551fbe6af047326a98a8,2024-01-23_07h57.50.407,bars,2023.2.3,Win32,29.9940012,657b66ea316d21385b68909f,,,,,,,,,,,,,,,,,,,,,,,,,,,,,,,,,,,,,,,,,,1485.995,1498.43,right,12.43,0.002,1498.43,5,2,1498.521,0,17,17,17,1,8,4,9,5,,,,,,,,,,,,,,,,,,,,,,,,,,,,,,,,,,,,,,,,,
,,60e00818b935a41dcfb1cccd,65af551fbe6af047326a98a8,2024-01-23_07h57.50.407,bars,2023.2.3,Win32,29.9940012,657b66ea316d21385b68909f,,,,,,,,,,,,,,,,,,,,,,,,,,,,,,,,,,,,,,,,,,1498.523,1501.603,right,2.928,,1501.603,1,2,1502.605,0,18,18,18,1,6,2,5,1,,,,,,,,,,,,,,,,,,,,,,,,,,,,,,,,,,,,,,,,,
,,60e00818b935a41dcfb1cccd,65af551fbe6af047326a98a8,2024-01-23_07h57.50.407,bars,2023.2.3,Win32,29.9940012,657b66ea316d21385b68909f,,,,,,,,,,,,,,,,,,,,,,,,,,,,,,,,,,,,,,,,,,1502.608,1503.17,left,0.543,,1503.17,7,1,1506.009,0,19,19,19,1,8,0,7,0,,,,,,,,,,,,,,,,,,,,,,,,,,,,,,,,,,,,,,,,,
,,60e00818b935a41dcfb1cccd,65af551fbe6af047326a98a8,2024-01-23_07h57.50.407,bars,2023.2.3,Win32,29.9940012,657b66ea316d21385b68909f,,,,,,,,,,,,,,,,,,,,,,,,,,,,,,,,,,,,,,,,,,,,,,,,,,,,,,,,,,,,1506.009,1528.522,space,14.843,0.007,,,,,,,,,,,,,,,,,,,,,,,,,,,,,,,,,,,,
,,60e00818b935a41dcfb1cccd,65af551fbe6af047326a98a8,2024-01-23_07h57.50.407,bars,2023.2.3,Win32,29.9940012,657b66ea316d21385b68909f,,,,,,,,,,,1534.442,1534.909,,,1535.013,1535.018,,8,188,,,,,,,,,,,,,,,,bars/025.png,bars/mask008.png,,,,,,,,,,,,0,2,,,,,,,5,7,6,8,,,,,,1529.784,1533.554,space,2.23,,1534.909,1535.012,1535.018,1543.053,space,7.897,,1543.053,83,32,1544.029,1544.029,1557.452,space,12.228,,0,0,0,0,1,105,40,,,,,,,,
,,60e00818b935a41dcfb1cccd,65af551fbe6af047326a98a8,2024-01-23_07h57.50.407,bars,2023.2.3,Win32,29.9940012,657b66ea316d21385b68909f,,,,,,,,,,,1557.454,1558.452,,,1558.813,1558.997,,67,247,,,,,,,,,,,,,,,,bars/007.png,bars/mask000.png,,,,,,,,,,,,5,2,,,,,,,7,9,5,8,,,,,,,,,,,1558.452,1558.813,1558.997,1564.191,space,5.171,0.002,1564.192,72,12,1565.163,1565.163,1571.06,space,5.863,0.002,0,1,1,1,1,175,55,,,,,,,,
,,60e00818b935a41dcfb1cccd,65af551fbe6af047326a98a8,2024-01-23_07h57.50.407,bars,2023.2.3,Win32,29.9940012,657b66ea316d21385b68909f,,,,,,,,,,,1571.061,1572.054,,,1573.493,1573.956,,38,38,,,,,,,,,,,,,,,,bars/010.png,bars/mask001.png,,,,,,,,,,,,4,2,,,,,,,5,10,4,10,,,,,,,,,,,1572.054,1573.493,1573.956,1587.14,space,13.156,,1587.141,53,17,1587.989,1587.989,1592.195,space,4.162,,0,2,2,2,1,165,55,,,,,,,,
,,60e00818b935a41dcfb1cccd,65af551fbe6af047326a98a8,2024-01-23_07h57.50.407,bars,2023.2.3,Win32,29.9940012,657b66ea316d21385b68909f,,,,,,,,,,,1592.405,1593.293,,,1593.543,1593.549,,94,274,,,,,,,,,,,,,,,,bars/019.png,bars/mask006.png,,,,,,,,,,,,6,2,,,,,,,3,10,2,9,,,,,,,,,,,1593.293,1593.543,1593.55,1634.747,space,35.374,0.001,1634.748,49,11,1635.719,1635.719,1640.195,space,4.43,0.002,0,3,3,3,1,45,105,,,,,,,,
,,60e00818b935a41dcfb1cccd,65af551fbe6af047326a98a8,2024-01-23_07h57.50.407,bars,2023.2.3,Win32,29.9940012,657b66ea316d21385b68909f,,,,,,,,,,,1640.198,1641.514,,,1641.745,1641.749,,107,107,,,,,,,,,,,,,,,,bars/039.png,bars/mask007.png,,,,,,,,,,,,9,2,,,,,,,1,10,0,10,,,,,,,,,,,1641.514,1641.745,1641.749,1648.878,space,6.858,,1648.879,68,2,1649.704,1649.705,1652.531,space,2.515,0,0,4,4,4,1,175,105,,,,,,,,
,,60e00818b935a41dcfb1cccd,65af551fbe6af047326a98a8,2024-01-23_07h57.50.407,bars,2023.2.3,Win32,29.9940012,657b66ea316d21385b68909f,,,,,,,,,,,1652.533,1654.059,,,1654.072,1654.128,,176,-4,,,,,,,,,,,,,,,,bars/049.png,bars/mask004.png,,,,,,,,,,,,0,1,,,,,,,0,10,1,10,,,,,,,,,,,1654.059,1654.072,1654.128,1660.328,space,6.175,0.002,1660.329,16,61,1661.322,1661.322,1664.132,space,2.324,,0,5,5,5,1,160,115,,,,,,,,
,,60e00818b935a41dcfb1cccd,65af551fbe6af047326a98a8,2024-01-23_07h57.50.407,bars,2023.2.3,Win32,29.9940012,657b66ea316d21385b68909f,,,,,,,,,,,1664.184,1665.153,,,1665.74,1665.789,,12,12,,,,,,,,,,,,,,,,bars/032.png,bars/mask009.png,,,,,,,,,,,,7,2,,,,,,,2,8,1,10,,,,,,,,,,,1665.153,1665.74,1665.79,1673.611,space,7.796,,1673.611,67,8,1674.588,1674.588,1676.323,space,1.678,,0,6,6,6,1,125,20,,,,,,,,
,,60e00818b935a41dcfb1cccd,65af551fbe6af047326a98a8,2024-01-23_07h57.50.407,bars,2023.2.3,Win32,29.9940012,657b66ea316d21385b68909f,,,,,,,,,,,1676.326,1677.33,,,1677.84,1678.068,,135,135,,,,,,,,,,,,,,,,bars/036.png,bars/mask004.png,,,,,,,,,,,,0,1,,,,,,,0,6,0,5,,,,,,,,,,,1677.33,1677.84,1678.068,1681.87,space,3.792,,1681.87,10,65,1682.853,1682.854,1686.763,space,3.805,,0,7,7,7,1,145,20,,,,,,,,
,,60e00818b935a41dcfb1cccd,65af551fbe6af047326a98a8,2024-01-23_07h57.50.407,bars,2023.2.3,Win32,29.9940012,657b66ea316d21385b68909f,,,,,,,,,,,1686.763,1687.754,,,1688.245,1688.477,,138,138,,,,,,,,,,,,,,,,bars/016.png,bars/mask009.png,,,,,,,,,,,,1,2,,,,,,,0,8,1,7,,,,,,,,,,,1687.754,1688.245,1688.477,1692.944,space,4.435,,1692.944,82,27,1693.928,1693.928,1696.358,space,2.406,,0,8,8,8,1,40,165,,,,,,,,
,,60e00818b935a41dcfb1cccd,65af551fbe6af047326a98a8,2024-01-23_07h57.50.407,bars,2023.2.3,Win32,29.9940012,657b66ea316d21385b68909f,,,,,,,,,,,1696.359,1697.432,,,1697.941,1697.998,,2,2,,,,,,,,,,,,,,,,bars/045.png,bars/mask003.png,,,,,,,,,,,,4,2,,,,,,,0,6,0,5,,,,,,,,,,,1697.432,1697.941,1697.998,1707.563,space,9.544,,1707.563,82,8,1708.569,1708.57,1710.637,space,1.612,,0,9,9,9,1,100,10,,,,,,,,
,,60e00818b935a41dcfb1cccd,65af551fbe6af047326a98a8,2024-01-23_07h57.50.407,bars,2023.2.3,Win32,29.9940012,657b66ea316d21385b68909f,,,,,,,,,,,1710.64,1711.586,,,1711.981,1712.21,,41,41,,,,,,,,,,,,,,,,bars/003.png,bars/mask009.png,,,,,,,,,,,,0,1,,,,,,,0,8,1,8,,,,,,,,,,,1711.586,1711.981,1712.21,1716.047,space,3.821,,1716.047,16,81,1717.052,1717.053,1718.487,space,1.409,,0,10,10,10,1,25,140,,,,,,,,
,,60e00818b935a41dcfb1cccd,65af551fbe6af047326a98a8,2024-01-23_07h57.50.407,bars,2023.2.3,Win32,29.9940012,657b66ea316d21385b68909f,,,,,,,,,,,1718.488,1719.481,,,1719.984,1720.221,,6,6,,,,,,,,,,,,,,,,bars/013.png,bars/mask009.png,,,,,,,,,,,,9,2,,,,,,,0,10,0,10,,,,,,,,,,,1719.481,1719.984,1720.221,1722.919,space,2.672,,1722.919,69,4,1723.907,1723.907,1725.752,space,1.811,,0,11,11,11,1,75,10,,,,,,,,
,,60e00818b935a41dcfb1cccd,65af551fbe6af047326a98a8,2024-01-23_07h57.50.407,bars,2023.2.3,Win32,29.9940012,657b66ea316d21385b68909f,,,,,,,,,,,1725.752,1726.736,,,1727.237,1727.491,,134,-46,,,,,,,,,,,,,,,,bars/023.png,bars/mask005.png,,,,,,,,,,,,3,2,,,,,,,0,8,0,8,,,,,,,,,,,1726.736,1727.237,1727.491,1731.353,space,3.834,,1731.353,66,19,1732.341,1732.342,1733.659,space,1.292,,0,12,12,12,1,20,115,,,,,,,,
,,60e00818b935a41dcfb1cccd,65af551fbe6af047326a98a8,2024-01-23_07h57.50.407,bars,2023.2.3,Win32,29.9940012,657b66ea316d21385b68909f,,,,,,,,,,,1733.659,1734.672,,,1735.179,1735.427,,132,-48,,,,,,,,,,,,,,,,bars/023.png,bars/mask009.png,,,,,,,,,,,,2,2,,,,,,,2,6,2,5,,,,,,,,,,,1734.672,1735.179,1735.427,1740.363,space,4.924,,1740.364,68,17,1741.363,1741.363,1742.16,space,0.767,,0,13,13,13,1,20,115,,,,,,,,
,,60e00818b935a41dcfb1cccd,65af551fbe6af047326a98a8,2024-01-23_07h57.50.407,bars,2023.2.3,Win32,29.9940012,657b66ea316d21385b68909f,,,,,,,,,,,1742.161,1743.168,,,1743.663,1743.901,,26,26,,,,,,,,,,,,,,,,bars/036.png,bars/mask009.png,,,,,,,,,,,,6,2,,,,,,,0,8,1,8,,,,,,,,,,,1743.168,1743.663,1743.901,1747.865,space,3.951,,1747.865,61,6,1748.866,1748.867,1749.7,space,0.814,,0,14,14,14,1,145,20,,,,,,,,
,,60e00818b935a41dcfb1cccd,65af551fbe6af047326a98a8,2024-01-23_07h57.50.407,bars,2023.2.3,Win32,29.9940012,657b66ea316d21385b68909f,,,,,,,,,,,1749.701,1750.695,,,1751.197,1751.453,,171,-9,,,,,,,,,,,,,,,,bars/013.png,bars/mask002.png,,,,,,,,,,,,4,2,,,,,,,2,10,0,10,,,,,,,,,,,1750.695,1751.197,1751.454,1755.117,space,3.649,,1755.117,84,19,1756.105,1756.105,1757.058,space,0.935,,0,15,15,15,1,75,10,,,,,,,,
,,60e00818b935a41dcfb1cccd,65af551fbe6af047326a98a8,2024-01-23_07h57.50.407,bars,2023.2.3,Win32,29.9940012,657b66ea316d21385b68909f,,,,,,,,,,,1757.059,1758.05,,,1758.559,1758.799,,173,173,,,,,,,,,,,,,,,,bars/012.png,bars/mask004.png,,,,,,,,,,,,3,2,,,,,,,4,10,2,10,,,,,,,,,,,1758.05,1758.559,1758.799,1763.853,space,5.046,,1763.853,83,22,1764.856,1764.856,1765.939,space,1.059,,0,16,16,16,1,90,15,,,,,,,,
,,60e00818b935a41dcfb1cccd,65af551fbe6af047326a98a8,2024-01-23_07h57.50.407,bars,2023.2.3,Win32,29.9940012,657b66ea316d21385b68909f,,,,,,,,,,,1765.939,1766.936,,,1767.424,1767.687,,140,140,,,,,,,,,,,,,,,,bars/037.png,bars/mask001.png,,,,,,,,,,,,1,1,,,,,,,2,8,2,9,,,,,,,,,,,1766.936,1767.424,1767.687,1771.573,space,3.863,,1771.573,10,35,1772.563,1772.563,1773.676,space,1.098,,0,17,17,17,1,150,105,,,,,,,,
,,60e00818b935a41dcfb1cccd,65af551fbe6af047326a98a8,2024-01-23_07h57.50.407,bars,2023.2.3,Win32,29.9940012,657b66ea316d21385b68909f,,,,,,,,,,,1773.676,1774.673,,,1775.176,1775.433,,108,-72,,,,,,,,,,,,,,,,bars/037.png,bars/mask004.png,,,,,,,,,,,,6,2,,,,,,,0,6,0,7,,,,,,,,,,,1774.673,1775.176,1775.433,1780.81,space,5.355,,1780.81,42,3,1781.799,1781.799,1783.001,space,1.18,,0,18,18,18,1,150,105,,,,,,,,
,,60e00818b935a41dcfb1cccd,65af551fbe6af047326a98a8,2024-01-23_07h57.50.407,bars,2023.2.3,Win32,29.9940012,657b66ea316d21385b68909f,,,,,,,,,,,1783.002,1784.002,,,1784.503,1784.752,,75,75,,,,,,,,,,,,,,,,bars/046.png,bars/mask009.png,,,,,,,,,,,,2,2,,,,,,,0,4,2,3,,,,,,,,,,,1784.002,1784.503,1784.752,1788.37,space,3.611,,1788.37,80,10,1789.364,1789.364,1793.765,space,4.382,,0,19,19,19,1,155,85,,,,,,,,
,,60e00818b935a41dcfb1cccd,65af551fbe6af047326a98a8,2024-01-23_07h57.50.407,bars,2023.2.3,Win32,29.9940012,657b66ea316d21385b68909f,,,,,,,,,,,1793.767,1794.774,,,1795.285,1795.521,,98,98,,,,,,,,,,,,,,,,bars/019.png,bars/mask005.png,,,,,,,,,,,,1,2,,,,,,,2,2,1,1,,,,,,,,,,,1794.774,1795.285,1795.521,1797.72,space,2.175,,1797.72,53,7,1798.719,1798.719,1799.624,space,0.888,,0,20,20,20,1,45,105,,,,,,,,
,,60e00818b935a41dcfb1cccd,65af551fbe6af047326a98a8,2024-01-23_07h57.50.407,bars,2023.2.3,Win32,29.9940012,657b66ea316d21385b68909f,,,,,,,,,,,1799.629,1800.626,,,1801.116,1801.36,,71,251,,,,,,,,,,,,,,,,bars/027.png,bars/mask006.png,,,,,,,,,,,,0,2,,,,,,,4,0,4,0,,,,,,,,,,,1800.626,1801.116,1801.36,1805.461,space,4.092,,1805.461,39,21,1806.461,1806.461,1807.757,space,1.275,,0,21,21,21,1,110,50,,,,,,,,
,,60e00818b935a41dcfb1cccd,65af551fbe6af047326a98a8,2024-01-23_07h57.50.407,bars,2023.2.3,Win32,29.9940012,657b66ea316d21385b68909f,,,,,,,,,,,1807.758,1808.757,,,1809.257,1809.511,,54,54,,,,,,,,,,,,,,,,bars/035.png,bars/mask009.png,,,,,,,,,,,,0,2,,,,,,,2,0,3,0,,,,,,,,,,,1808.757,1809.257,1809.511,1812.543,space,3.008,,1812.543,59,6,1813.543,1813.543,1815.361,space,1.787,,0,22,22,22,1,175,60,,,,,,,,
,,60e00818b935a41dcfb1cccd,65af551fbe6af047326a98a8,2024-01-23_07h57.50.407,bars,2023.2.3,Win32,29.9940012,657b66ea316d21385b68909f,,,,,,,,,,,1815.361,1816.354,,,1816.861,1817.128,,172,-8,,,,,,,,,,,,,,,,bars/013.png,bars/mask008.png,,,,,,,,,,,,0,2,,,,,,,0,0,1,0,,,,,,,,,,,1816.354,1816.861,1817.128,1821.369,space,4.224,,1821.369,83,18,1822.38,1822.38,1823.947,space,1.541,,0,23,23,23,1,75,10,,,,,,,,
,,60e00818b935a41dcfb1cccd,65af551fbe6af047326a98a8,2024-01-23_07h57.50.407,bars,2023.2.3,Win32,29.9940012,657b66ea316d21385b68909f,,,,,,,,,,,1823.948,1824.937,,,1825.421,1825.681,,84,84,,,,,,,,,,,,,,,,bars/026.png,bars/mask009.png,,,,,,,,,,,,1,2,,,,,,,2,2,2,1,,,,,,,,,,,1824.937,1825.42,1825.681,1828.66,space,2.974,,1828.66,49,1,1829.666,1829.666,1831.922,space,2.241,,0,24,24,24,1,35,85,,,,,,,,
,,60e00818b935a41dcfb1cccd,65af551fbe6af047326a98a8,2024-01-23_07h57.50.407,bars,2023.2.3,Win32,29.9940012,657b66ea316d21385b68909f,,,,,,,,,,,1831.922,1832.9,,,1833.398,1833.653,,132,132,,,,,,,,,,,,,,,,bars/006.png,bars/mask000.png,,,,,,,,,,,,0,2,,,,,,,0,0,0,0,,,,,,,,,,,1832.9,1833.398,1833.653,1838.218,space,4.545,,1838.218,83,32,1839.222,1839.222,1840.21,space,0.972,,0,25,25,25,1,35,100,,,,,,,,
,,60e00818b935a41dcfb1cccd,65af551fbe6af047326a98a8,2024-01-23_07h57.50.407,bars,2023.2.3,Win32,29.9940012,657b66ea316d21385b68909f,,,,,,,,,,,1840.211,1841.208,,,1841.71,1841.958,,115,115,,,,,,,,,,,,,,,,bars/018.png,bars/mask002.png,,,,,,,,,,,,0,2,,,,,,,0,0,0,0,,,,,,,,,,,1841.208,1841.709,1841.958,1844.99,space,3.017,,1844.99,35,25,1845.967,1845.967,1847.449,space,1.449,,0,26,26,26,1,150,90,,,,,,,,
,,60e00818b935a41dcfb1cccd,65af551fbe6af047326a98a8,2024-01-23_07h57.50.407,bars,2023.2.3,Win32,29.9940012,657b66ea316d21385b68909f,,,,,,,,,,,1847.451,1848.432,,,1848.943,1849.198,,85,85,,,,,,,,,,,,,,,,bars/009.png,bars/mask006.png,,,,,,,,,,,,0,2,,,,,,,2,0,2,1,,,,,,,,,,,1848.432,1848.943,1849.198,1850.993,space,1.783,,1850.993,70,20,1851.982,1851.982,1853.327,space,1.319,,0,27,27,27,1,15,105,,,,,,,,
,,60e00818b935a41dcfb1cccd,65af551fbe6af047326a98a8,2024-01-23_07h57.50.407,bars,2023.2.3,Win32,29.9940012,657b66ea316d21385b68909f,,,,,,,,,,,1853.328,1854.317,,,1854.823,1855.062,,2,182,,,,,,,,,,,,,,,,bars/016.png,bars/mask006.png,,,,,,,,,,,,1,2,,,,,,,0,2,2,2,,,,,,,,,,,1854.317,1854.823,1855.062,1858.829,space,3.75,,1858.829,38,17,1859.818,1859.818,1861.449,space,1.609,,0,28,28,28,1,40,165,,,,,,,,
,,60e00818b935a41dcfb1cccd,65af551fbe6af047326a98a8,2024-01-23_07h57.50.407,bars,2023.2.3,Win32,29.9940012,657b66ea316d21385b68909f,,,,,,,,,,,1861.449,1862.451,,,1862.947,1863.179,,115,115,,,,,,,,,,,,,,,,bars/039.png,bars/mask007.png,,,,,,,,,,,,0,2,,,,,,,2,0,1,0,,,,,,,,,,,1862.451,1862.947,1863.179,1865.502,space,2.313,,1865.502,60,10,1866.501,1866.501,1867.71,space,1.176,,0,29,29,29,1,175,105,,,,,,,,
,,60e00818b935a41dcfb1cccd,65af551fbe6af047326a98a8,2024-01-23_07h57.50.407,bars,2023.2.3,Win32,29.9940012,657b66ea316d21385b68909f,,,,,,,,,,,1867.712,1868.708,,,1869.217,1869.47,,156,-24,,,,,,,,,,,,,,,,bars/024.png,bars/mask006.png,,,,,,,,,,,,2,2,,,,,,,0,2,1,3,,,,,,,,,,,1868.708,1869.217,1869.471,1873.237,space,3.752,,1873.237,36,14,1874.237,1874.237,1876.322,space,2.07,,0,30,30,30,1,120,170,,,,,,,,
,,60e00818b935a41dcfb1cccd,65af551fbe6af047326a98a8,2024-01-23_07h57.50.407,bars,2023.2.3,Win32,29.9940012,657b66ea316d21385b68909f,,,,,,,,,,,1876.322,1877.327,,,1877.82,1878.073,,40,40,,,,,,,,,,,,,,,,bars/035.png,bars/mask000.png,,,,,,,,,,,,0,2,,,,,,,0,0,0,1,,,,,,,,,,,1877.328,1877.82,1878.073,1881.942,space,3.861,,1881.942,45,20,1882.946,1882.946,1884.063,space,1.101,,0,31,31,31,1,175,60,,,,,,,,
,,60e00818b935a41dcfb1cccd,65af551fbe6af047326a98a8,2024-01-23_07h57.50.407,bars,2023.2.3,Win32,29.9940012,657b66ea316d21385b68909f,,,,,,,,,,,1884.064,1885.058,,,1885.549,1885.797,,171,171,,,,,,,,,,,,,,,,bars/012.png,bars/mask005.png,,,,,,,,,,,,0,2,,,,,,,2,2,2,2,,,,,,,,,,,1885.058,1885.548,1885.797,1888.823,space,3.006,,1888.823,81,24,1889.827,1889.828,1890.766,space,0.925,,0,32,32,32,1,90,15,,,,,,,,
,,60e00818b935a41dcfb1cccd,65af551fbe6af047326a98a8,2024-01-23_07h57.50.407,bars,2023.2.3,Win32,29.9940012,657b66ea316d21385b68909f,,,,,,,,,,,1890.767,1891.777,,,1892.285,1892.537,,103,-77,,,,,,,,,,,,,,,,bars/004.png,bars/mask003.png,,,,,,,,,,,,2,2,,,,,,,4,4,4,6,,,,,,,,,,,1891.777,1892.284,1892.537,1899.669,space,7.117,,1899.67,78,22,1900.673,1900.673,1901.707,space,1.017,,0,33,33,33,1,25,125,,,,,,,,
,,60e00818b935a41dcfb1cccd,65af551fbe6af047326a98a8,2024-01-23_07h57.50.407,bars,2023.2.3,Win32,29.9940012,657b66ea316d21385b68909f,,,,,,,,,,,1901.708,1902.701,,,1903.2,1903.448,,40,220,,,,,,,,,,,,,,,,bars/025.png,bars/mask006.png,,,,,,,,,,,,2,2,,,,,,,6,2,7,2,,,,,,,,,,,1902.701,1903.2,1903.448,1909.674,space,6.205,,1909.674,65,0,1910.686,1910.686,1912.844,space,2.14,,0,34,34,34,1,105,40,,,,,,,,
,,60e00818b935a41dcfb1cccd,65af551fbe6af047326a98a8,2024-01-23_07h57.50.407,bars,2023.2.3,Win32,29.9940012,657b66ea316d21385b68909f,,,,,,,,,,,1912.846,1913.843,,,1914.337,1914.577,,3,3,,,,,,,,,,,,,,,,bars/035.png,bars/mask002.png,,,,,,,,,,,,3,1,,,,,,,4,4,4,4,,,,,,,,,,,1913.843,1914.337,1914.577,1919.792,space,5.192,,1919.792,8,57,1920.782,1920.782,1922.009,space,1.206,,0,35,35,35,1,175,60,,,,,,,,
,,60e00818b935a41dcfb1cccd,65af551fbe6af047326a98a8,2024-01-23_07h57.50.407,bars,2023.2.3,Win32,29.9940012,657b66ea316d21385b68909f,,,,,,,,,,,1922.009,1923.01,,,1923.517,1923.777,,15,195,,,,,,,,,,,,,,,,bars/012.png,bars/mask009.png,,,,,,,,,,,,5,2,,,,,,,2,6,3,5,,,,,,,,,,,1923.01,1923.515,1923.777,1926.885,space,3.097,,1926.885,75,0,1927.88,1927.88,1931.615,space,3.716,,0,36,36,36,1,90,15,,,,,,,,
,,60e00818b935a41dcfb1cccd,65af551fbe6af047326a98a8,2024-01-23_07h57.50.407,bars,2023.2.3,Win32,29.9940012,657b66ea316d21385b68909f,,,,,,,,,,,1931.615,1932.603,,,1933.1,1933.351,,36,216,,,,,,,,,,,,,,,,bars/026.png,bars/mask000.png,,,,,,,,,,,,4,1,,,,,,,4,8,4,7,,,,,,,,,,,1932.604,1933.1,1933.352,1936.981,space,3.6,,1936.981,1,49,1937.982,1937.983,1941.523,space,3.514,,0,37,37,37,1,35,85,,,,,,,,
,,60e00818b935a41dcfb1cccd,65af551fbe6af047326a98a8,2024-01-23_07h57.50.407,bars,2023.2.3,Win32,29.9940012,657b66ea316d21385b68909f,,,,,,,,,,,1941.525,1942.523,,,1943.024,1943.268,,139,-41,,,,,,,,,,,,,,,,bars/033.png,bars/mask006.png,,,,,,,,,,,,5,2,,,,,,,6,10,7,10,,,,,,,,,,,1942.523,1943.023,1943.268,1947.689,space,4.413,,1947.689,66,16,1948.689,1948.689,1951.026,space,2.311,,0,38,38,38,1,25,155,,,,,,,,
,,60e00818b935a41dcfb1cccd,65af551fbe6af047326a98a8,2024-01-23_07h57.50.407,bars,2023.2.3,Win32,29.9940012,657b66ea316d21385b68909f,,,,,,,,,,,1951.028,1952.011,,,1952.51,1952.761,,134,134,,,,,,,,,,,,,,,,bars/015.png,bars/mask005.png,,,,,,,,,,,,2,1,,,,,,,8,8,8,8,,,,,,,,,,,1952.011,1952.51,1952.761,1957.343,space,4.575,,1957.343,24,26,1958.331,1958.332,1959.763,space,1.389,,0,39,39,39,1,110,160,,,,,,,,
,,60e00818b935a41dcfb1cccd,65af551fbe6af047326a98a8,2024-01-23_07h57.50.407,bars,2023.2.3,Win32,29.9940012,657b66ea316d21385b68909f,,,,,,,,,,,1959.767,1960.758,,,1961.262,1961.506,,102,-78,,,,,,,,,,,,,,,,bars/023.png,bars/mask006.png,,,,,,,,,,,,3,2,,,,,,,10,6,10,5,,,,,,,,,,,1960.758,1961.262,1961.506,1965.51,space,3.984,,1965.51,82,13,1966.494,1966.494,1967.93,space,1.421,,0,40,40,40,1,20,115,,,,,,,,
,,60e00818b935a41dcfb1cccd,65af551fbe6af047326a98a8,2024-01-23_07h57.50.407,bars,2023.2.3,Win32,29.9940012,657b66ea316d21385b68909f,,,,,,,,,,,1967.93,1968.929,,,1969.42,1969.653,,131,131,,,,,,,,,,,,,,,,bars/005.png,bars/mask003.png,,,,,,,,,,,,5,2,,,,,,,8,8,7,7,,,,,,,,,,,1968.929,1969.42,1969.653,1973.43,space,3.766,,1973.43,59,9,1974.431,1974.431,1977.402,space,2.944,,0,41,41,41,1,10,140,,,,,,,,
,,60e00818b935a41dcfb1cccd,65af551fbe6af047326a98a8,2024-01-23_07h57.50.407,bars,2023.2.3,Win32,29.9940012,657b66ea316d21385b68909f,,,,,,,,,,,1977.421,1978.417,,,1978.916,1979.166,,30,30,,,,,,,,,,,,,,,,bars/016.png,bars/mask002.png,,,,,,,,,,,,7,1,,,,,,,10,10,10,10,,,,,,,,,,,1978.418,1978.916,1979.166,1984.107,space,4.924,,1984.107,10,45,1985.104,1985.104,2097.127,space,112.002,,0,42,42,42,1,40,165,,,,,,,,
,,60e00818b935a41dcfb1cccd,65af551fbe6af047326a98a8,2024-01-23_07h57.50.407,bars,2023.2.3,Win32,29.9940012,657b66ea316d21385b68909f,,,,,,,,,,,2097.13,2098.122,,,2098.627,2098.891,,165,165,,,,,,,,,,,,,,,,bars/008.png,bars/mask005.png,,,,,,,,,,,,5,2,,,,,,,10,10,9,10,,,,,,,,,,,2098.122,2098.627,2098.891,2103.141,space,4.234,,2103.141,55,15,2104.131,2104.132,2105.357,space,1.189,,0,43,43,43,1,110,0,,,,,,,,
,,60e00818b935a41dcfb1cccd,65af551fbe6af047326a98a8,2024-01-23_07h57.50.407,bars,2023.2.3,Win32,29.9940012,657b66ea316d21385b68909f,,,,,,,,,,,2105.357,2106.347,,,2106.843,2107.094,,29,29,,,,,,,,,,,,,,,,bars/035.png,bars/mask000.png,,,,,,,,,,,,0,2,,,,,,,10,10,10,10,,,,,,,,,,,2106.347,2106.843,2107.094,2109.276,space,2.153,,2109.276,34,31,2110.281,2110.282,2111.165,space,0.861,,0,44,44,44,1,175,60,,,,,,,,
,,60e00818b935a41dcfb1cccd,65af551fbe6af047326a98a8,2024-01-23_07h57.50.407,bars,2023.2.3,Win32,29.9940012,657b66ea316d21385b68909f,,,,,,,,,,,2111.166,2112.161,,,2112.658,2112.9,,150,150,,,,,,,,,,,,,,,,bars/048.png,bars/mask006.png,,,,,,,,,,,,1,2,,,,,,,10,8,10,6,,,,,,,,,,,2112.161,2112.658,2112.9,2114.813,space,1.904,,2114.813,80,25,2115.815,2115.816,2117.249,space,1.415,,0,45,45,45,1,50,175,,,,,,,,
,,60e00818b935a41dcfb1cccd,65af551fbe6af047326a98a8,2024-01-23_07h57.50.407,bars,2023.2.3,Win32,29.9940012,657b66ea316d21385b68909f,,,,,,,,,,,2117.255,2118.263,,,2118.75,2118.99,,142,-38,,,,,,,,,,,,,,,,bars/000.png,bars/mask001.png,,,,,,,,,,,,5,2,,,,,,,8,6,6,6,,,,,,,,,,,2118.263,2118.75,2118.99,2122.415,space,3.409,,2122.415,78,3,2123.421,2123.421,2124.283,space,0.833,,0,46,46,46,1,40,145,,,,,,,,
,,60e00818b935a41dcfb1cccd,65af551fbe6af047326a98a8,2024-01-23_07h57.50.407,bars,2023.2.3,Win32,29.9940012,657b66ea316d21385b68909f,,,,,,,,,,,2124.283,2125.284,,,2125.768,2126.006,,179,-1,,,,,,,,,,,,,,,,bars/005.png,bars/mask002.png,,,,,,,,,,,,6,1,,,,,,,10,4,10,4,,,,,,,,,,,2125.284,2125.768,2126.006,2129.922,space,3.902,,2129.922,11,39,2130.948,2130.948,2132.038,space,1.045,,0,47,47,47,1,10,140,,,,,,,,
,,60e00818b935a41dcfb1cccd,65af551fbe6af047326a98a8,2024-01-23_07h57.50.407,bars,2023.2.3,Win32,29.9940012,657b66ea316d21385b68909f,,,,,,,,,,,2132.038,2133.026,,,2133.52,2133.774,,15,195,,,,,,,,,,,,,,,,bars/003.png,bars/mask006.png,,,,,,,,,,,,5,1,,,,,,,8,2,7,2,,,,,,,,,,,2133.026,2133.519,2133.774,2137.426,space,3.633,,2137.427,10,55,2138.428,2138.428,2139.296,space,0.847,,0,48,48,48,1,25,140,,,,,,,,
,,60e00818b935a41dcfb1cccd,65af551fbe6af047326a98a8,2024-01-23_07h57.50.407,bars,2023.2.3,Win32,29.9940012,657b66ea316d21385b68909f,,,,,,,,,,,2139.296,2140.306,,,2140.812,2141.06,,138,138,,,,,,,,,,,,,,,,bars/024.png,bars/mask002.png,,,,,,,,,,,,4,1,,,,,,,10,0,10,0,,,,,,,,,,,2140.307,2140.811,2141.06,2145.011,space,3.918,,2145.011,18,32,2146.01,2146.01,2147.51,space,1.469,,0,49,49,49,1,120,170,,,,,,,,
,,60e00818b935a41dcfb1cccd,65af551fbe6af047326a98a8,2024-01-23_07h57.50.407,bars,2023.2.3,Win32,29.9940012,657b66ea316d21385b68909f,,,,,,,,,,,,,,,,,,,,,,,,,,,,,,,,,,,,,,,,,,,,,,,,,,,,,,,,,,,,,,,,,,,,,,,,,,,,,,,,,,,,,,,,,,,,,2147.511,2207.522,0,0,0,2,1,sequence_tables/blk002.csv
,,60e00818b935a41dcfb1cccd,65af551fbe6af047326a98a8,2024-01-23_07h57.50.407,bars,2023.2.3,Win32,29.9940012,657b66ea316d21385b68909f,,,,,,,,,,,2291.06,2292.06,,,2292.545,2292.805,,139,139,,,,,,,,,,,,,,,,bars/000.png,bars/mask009.png,,,,,,,,,,,,4,2,,,,,,,5,5,4,5,,,,,,2207.526,2291.044,space,83.504,,2292.06,2292.545,2292.805,2301.253,space,8.438,,2301.253,81,6,2302.255,2302.255,2302.268,,,,0,0,0,0,1,40,145,,,,,,,,
,,60e00818b935a41dcfb1cccd,65af551fbe6af047326a98a8,2024-01-23_07h57.50.407,bars,2023.2.3,Win32,29.9940012,657b66ea316d21385b68909f,,,,,,,,,,,2302.27,2303.27,,,2303.784,2304.034,,142,142,,,,,,,,,,,,,,,,bars/043.png,bars/mask007.png,,,,,,,,,,,,1,2,,,,,,,3,3,2,2,,,,,,,,,,,2303.271,2303.783,2304.034,2308.099,space,4.051,,2308.099,68,12,2309.102,2309.102,2309.104,,,,0,1,1,1,1,30,130,,,,,,,,
,,60e00818b935a41dcfb1cccd,65af551fbe6af047326a98a8,2024-01-23_07h57.50.407,bars,2023.2.3,Win32,29.9940012,657b66ea316d21385b68909f,,,,,,,,,,,2309.106,2310.1,,,2310.616,2310.854,,13,193,,,,,,,,,,,,,,,,bars/003.png,bars/mask008.png,,,,,,,,,,,,4,1,,,,,,,5,1,6,1,,,,,,,,,,,2310.101,2310.616,2310.856,2316.07,space,5.201,,2316.07,12,53,2317.073,2317.073,2317.081,,,,0,2,2,2,1,25,140,,,,,,,,
,,60e00818b935a41dcfb1cccd,65af551fbe6af047326a98a8,2024-01-23_07h57.50.407,bars,2023.2.3,Win32,29.9940012,657b66ea316d21385b68909f,,,,,,,,,,,2317.081,2318.059,,,2318.56,2318.821,,133,133,,,,,,,,,,,,,,,,bars/023.png,bars/mask004.png,,,,,,,,,,,,2,2,,,,,,,3,3,5,4,,,,,,,,,,,2318.059,2318.56,2318.821,2324.596,space,5.769,,2324.597,67,18,2325.592,2325.592,2325.602,,,,0,3,3,3,1,20,115,,,,,,,,
,,60e00818b935a41dcfb1cccd,65af551fbe6af047326a98a8,2024-01-23_07h57.50.407,bars,2023.2.3,Win32,29.9940012,657b66ea316d21385b68909f,,,,,,,,,,,2325.603,2326.579,,,2327.077,2327.327,,16,196,,,,,,,,,,,,,,,,bars/040.png,bars/mask008.png,,,,,,,,,,,,3,2,,,,,,,1,5,1,5,,,,,,,,,,,2326.579,2327.077,2327.327,2331.315,space,3.96,,2331.316,56,11,2332.327,2332.327,2332.329,,,,0,4,4,4,1,140,5,,,,,,,,
,,60e00818b935a41dcfb1cccd,65af551fbe6af047326a98a8,2024-01-23_07h57.50.407,bars,2023.2.3,Win32,29.9940012,657b66ea316d21385b68909f,,,,,,,,,,,2332.329,2333.311,,,2333.802,2334.05,,30,30,,,,,,,,,,,,,,,,bars/007.png,bars/mask001.png,,,,,,,,,,,,0,2,,,,,,,0,3,0,2,,,,,,,,,,,2333.311,2333.802,2334.05,2339.37,space,5.304,,2339.37,35,25,2340.346,2340.346,2340.348,,,,0,5,5,5,1,175,55,,,,,,,,
,,60e00818b935a41dcfb1cccd,65af551fbe6af047326a98a8,2024-01-23_07h57.50.407,bars,2023.2.3,Win32,29.9940012,657b66ea316d21385b68909f,,,,,,,,,,,2340.348,2341.338,,,2341.837,2342.071,,178,-2,,,,,,,,,,,,,,,,bars/013.png,bars/mask003.png,,,,,,,,,,,,1,2,,,,,,,2,1,3,1,,,,,,,,,,,2341.338,2341.837,2342.071,2346.109,space,4.013,0.001,2346.109,77,12,2347.101,2347.101,2347.104,,,,0,6,6,6,1,75,10,,,,,,,,
,,60e00818b935a41dcfb1cccd,65af551fbe6af047326a98a8,2024-01-23_07h57.50.407,bars,2023.2.3,Win32,29.9940012,657b66ea316d21385b68909f,,,,,,,,,,,2347.106,2348.101,,,2348.6,2348.916,,3,3,,,,,,,,,,,,,,,,bars/008.png,bars/mask001.png,,,,,,,,,,,,3,2,,,,,,,4,3,5,3,,,,,,,,,,,2348.102,2348.6,2348.916,2353.722,space,4.787,,2353.722,73,3,2354.723,2354.723,2354.724,,,,0,7,7,7,1,110,0,,,,,,,,
,,60e00818b935a41dcfb1cccd,65af551fbe6af047326a98a8,2024-01-23_07h57.50.407,bars,2023.2.3,Win32,29.9940012,657b66ea316d21385b68909f,,,,,,,,,,,2354.726,2355.727,,,2356.232,2356.47,,58,58,,,,,,,,,,,,,,,,bars/012.png,bars/mask003.png,,,,,,,,,,,,0,1,,,,,,,2,5,1,6,,,,,,,,,,,2355.728,2356.232,2356.47,2359.467,space,2.991,,2359.467,32,43,2360.474,2360.474,2360.481,,,,0,8,8,8,1,90,15,,,,,,,,
,,60e00818b935a41dcfb1cccd,65af551fbe6af047326a98a8,2024-01-23_07h57.50.407,bars,2023.2.3,Win32,29.9940012,657b66ea316d21385b68909f,,,,,,,,,,,2360.482,2361.438,,,2361.956,2362.207,,71,71,,,,,,,,,,,,,,,,bars/001.png,bars/mask008.png,,,,,,,,,,,,2,2,,,,,,,4,3,4,4,,,,,,,,,,,2361.439,2361.955,2362.207,2365.035,space,2.818,,2365.035,59,14,2366.025,2366.025,2366.028,,,,0,9,9,9,1,130,85,,,,,,,,
,,60e00818b935a41dcfb1cccd,65af551fbe6af047326a98a8,2024-01-23_07h57.50.407,bars,2023.2.3,Win32,29.9940012,657b66ea316d21385b68909f,,,,,,,,,,,2366.034,2367.032,,,2367.531,2367.776,,112,112,,,,,,,,,,,,,,,,bars/039.png,bars/mask000.png,,,,,,,,,,,,4,2,,,,,,,2,5,3,5,,,,,,,,,,,2367.032,2367.531,2367.776,2371.527,space,3.737,,2371.527,63,7,2372.544,2372.544,2372.546,,,,0,10,10,10,1,175,105,,,,,,,,
,,60e00818b935a41dcfb1cccd,65af551fbe6af047326a98a8,2024-01-23_07h57.50.407,bars,2023.2.3,Win32,29.9940012,657b66ea316d21385b68909f,,,,,,,,,,,2372.546,2373.528,,,2374.032,2374.279,,33,33,,,,,,,,,,,,,,,,bars/025.png,bars/mask002.png,,,,,,,,,,,,5,2,,,,,,,0,7,0,6,,,,,,,,,,,2373.528,2374.032,2374.279,2377.878,space,3.576,,2377.878,72,7,2378.868,2378.868,2378.871,,,,0,11,11,11,1,105,40,,,,,,,,
,,60e00818b935a41dcfb1cccd,65af551fbe6af047326a98a8,2024-01-23_07h57.50.407,bars,2023.2.3,Win32,29.9940012,657b66ea316d21385b68909f,,,,,,,,,,,2378.871,2379.87,,,2380.37,2380.621,,45,45,,,,,,,,,,,,,,,,bars/035.png,bars/mask008.png,,,,,,,,,,,,4,2,,,,,,,0,9,0,8,,,,,,,,,,,2379.87,2380.37,2380.621,2384.922,space,4.291,,2384.922,50,15,2385.918,2385.918,2385.919,,,,0,12,12,12,1,175,60,,,,,,,,
,,60e00818b935a41dcfb1cccd,65af551fbe6af047326a98a8,2024-01-23_07h57.50.407,bars,2023.2.3,Win32,29.9940012,657b66ea316d21385b68909f,,,,,,,,,,,2385.92,2386.923,,,2387.4,2387.64,,111,111,,,,,,,,,,,,,,,,bars/019.png,bars/mask000.png,,,,,,,,,,,,6,2,,,,,,,2,7,3,7,,,,,,,,,,,2386.923,2387.4,2387.64,2392.256,space,4.589,,2392.257,66,6,2393.258,2393.258,2393.264,,,,0,13,13,13,1,45,105,,,,,,,,
,,60e00818b935a41dcfb1cccd,65af551fbe6af047326a98a8,2024-01-23_07h57.50.407,bars,2023.2.3,Win32,29.9940012,657b66ea316d21385b68909f,,,,,,,,,,,2393.266,2394.263,,,2394.772,2395.016,,39,39,,,,,,,,,,,,,,,,bars/035.png,bars/mask006.png,,,,,,,,,,,,3,2,,,,,,,0,9,0,10,,,,,,,,,,,2394.263,2394.772,2395.016,2397.941,space,2.911,,2397.941,44,21,2398.946,2398.946,2398.948,,,,0,14,14,14,1,175,60,,,,,,,,
,,60e00818b935a41dcfb1cccd,65af551fbe6af047326a98a8,2024-01-23_07h57.50.407,bars,2023.2.3,Win32,29.9940012,657b66ea316d21385b68909f,,,,,,,,,,,2398.949,2399.93,,,2400.425,2400.679,,98,98,,,,,,,,,,,,,,,,bars/026.png,bars/mask008.png,,,,,,,,,,,,4,2,,,,,,,0,7,1,7,,,,,,,,,,,2399.93,2400.425,2400.679,2403.193,space,2.487,,2403.193,63,13,2404.194,2404.194,2404.197,,,,0,15,15,15,1,35,85,,,,,,,,
,,60e00818b935a41dcfb1cccd,65af551fbe6af047326a98a8,2024-01-23_07h57.50.407,bars,2023.2.3,Win32,29.9940012,657b66ea316d21385b68909f,,,,,,,,,,,2404.198,2405.209,,,2405.699,2405.943,,38,38,,,,,,,,,,,,,,,,bars/035.png,bars/mask006.png,,,,,,,,,,,,2,2,,,,,,,0,9,2,6,,,,,,,,,,,2405.209,2405.699,2405.943,2408.968,space,3.017,,2408.968,43,22,2409.978,2409.978,2409.98,,,,0,16,16,16,1,175,60,,,,,,,,
,,60e00818b935a41dcfb1cccd,65af551fbe6af047326a98a8,2024-01-23_07h57.50.407,bars,2023.2.3,Win32,29.9940012,657b66ea316d21385b68909f,,,,,,,,,,,2409.98,2410.978,,,2411.467,2411.714,,160,160,,,,,,,,,,,,,,,,bars/024.png,bars/mask006.png,,,,,,,,,,,,5,2,,,,,,,2,7,2,7,,,,,,,,,,,2410.978,2411.467,2411.714,2413.778,space,2.053,,2413.779,40,10,2414.772,2414.772,2414.773,,,,0,17,17,17,1,120,170,,,,,,,,
,,60e00818b935a41dcfb1cccd,65af551fbe6af047326a98a8,2024-01-23_07h57.50.407,bars,2023.2.3,Win32,29.9940012,657b66ea316d21385b68909f,,,,,,,,,,,2414.773,2415.767,,,2416.269,2416.516,,71,71,,,,,,,,,,,,,,,,bars/026.png,bars/mask004.png,,,,,,,,,,,,2,2,,,,,,,0,5,0,4,,,,,,,,,,,2415.767,2416.269,2416.516,2420.601,space,4.079,,2420.601,36,14,2421.6,2421.6,2421.603,,,,0,18,18,18,1,35,85,,,,,,,,
,,60e00818b935a41dcfb1cccd,65af551fbe6af047326a98a8,2024-01-23_07h57.50.407,bars,2023.2.3,Win32,29.9940012,657b66ea316d21385b68909f,,,,,,,,,,,2421.604,2422.606,,,2423.116,2423.359,,39,39,,,,,,,,,,,,,,,,bars/047.png,bars/mask002.png,,,,,,,,,,,,0,1,,,,,,,2,7,1,8,,,,,,,,,,,2422.607,2423.115,2423.359,2426.337,space,2.963,,2426.337,24,31,2427.341,2427.341,2427.346,,,,0,19,19,19,1,15,70,,,,,,,,
,,60e00818b935a41dcfb1cccd,65af551fbe6af047326a98a8,2024-01-23_07h57.50.407,bars,2023.2.3,Win32,29.9940012,657b66ea316d21385b68909f,,,,,,,,,,,2427.347,2428.339,,,2428.84,2429.087,,56,236,,,,,,,,,,,,,,,,bars/038.png,bars/mask004.png,,,,,,,,,,,,3,2,,,,,,,0,5,0,5,,,,,,,,,,,2428.34,2428.84,2429.087,2434.779,space,5.68,,2434.779,71,14,2435.756,2435.757,2435.759,,,,0,20,20,20,1,165,70,,,,,,,,
,,60e00818b935a41dcfb1cccd,65af551fbe6af047326a98a8,2024-01-23_07h57.50.407,bars,2023.2.3,Win32,29.9940012,657b66ea316d21385b68909f,,,,,,,,,,,2435.759,2436.764,,,2437.257,2437.496,,78,78,,,,,,,,,,,,,,,,bars/002.png,bars/mask009.png,,,,,,,,,,,,3,2,,,,,,,2,3,2,4,,,,,,,,,,,2436.764,2437.257,2437.496,2441.683,space,4.168,,2441.684,52,7,2442.682,2442.682,2442.684,,,,0,21,21,21,1,130,85,,,,,,,,
,,60e00818b935a41dcfb1cccd,65af551fbe6af047326a98a8,2024-01-23_07h57.50.407,bars,2023.2.3,Win32,29.9940012,657b66ea316d21385b68909f,,,,,,,,,,,2442.684,2443.659,,,2444.162,2444.426,,113,-67,,,,,,,,,,,,,,,,bars/026.png,bars/mask009.png,,,,,,,,,,,,0,2,,,,,,,4,5,3,4,,,,,,,,,,,2443.659,2444.162,2444.426,2450.23,space,5.782,,2450.231,78,28,2451.219,2451.219,2451.227,,,,0,22,22,22,1,35,85,,,,,,,,
,,60e00818b935a41dcfb1cccd,65af551fbe6af047326a98a8,2024-01-23_07h57.50.407,bars,2023.2.3,Win32,29.9940012,657b66ea316d21385b68909f,,,,,,,,,,,2451.228,2452.217,,,2452.723,2452.981,,163,163,,,,,,,,,,,,,,,,bars/024.png,bars/mask001.png,,,,,,,,,,,,2,2,,,,,,,6,3,5,2,,,,,,,,,,,2452.218,2452.723,2452.981,2455.131,space,2.13,,2455.131,43,7,2456.12,2456.126,2456.127,,,,0,23,23,23,1,120,170,,,,,,,,
,,60e00818b935a41dcfb1cccd,65af551fbe6af047326a98a8,2024-01-23_07h57.50.407,bars,2023.2.3,Win32,29.9940012,657b66ea316d21385b68909f,,,,,,,,,,,2456.128,2457.122,,,2457.607,2457.862,,115,115,,,,,,,,,,,,,,,,bars/037.png,bars/mask009.png,,,,,,,,,,,,2,2,,,,,,,4,1,4,3,,,,,,,,,,,2457.122,2457.607,2457.862,2461.974,space,4.101,,2461.974,35,10,2462.97,2462.97,2462.971,,,,0,24,24,24,1,150,105,,,,,,,,
,,60e00818b935a41dcfb1cccd,65af551fbe6af047326a98a8,2024-01-23_07h57.50.407,bars,2023.2.3,Win32,29.9940012,657b66ea316d21385b68909f,,,,,,,,,,,2462.971,2463.985,,,2464.475,2464.723,,19,199,,,,,,,,,,,,,,,,bars/036.png,bars/mask000.png,,,,,,,,,,,,0,2,,,,,,,2,0,1,0,,,,,,,,,,,2463.985,2464.475,2464.723,2468.153,space,3.408,,2468.153,54,1,2469.141,2469.141,2469.147,,,,0,25,25,25,1,145,20,,,,,,,,
,,60e00818b935a41dcfb1cccd,65af551fbe6af047326a98a8,2024-01-23_07h57.50.407,bars,2023.2.3,Win32,29.9940012,657b66ea316d21385b68909f,,,,,,,,,,,2469.147,2470.141,,,2470.627,2470.861,,135,135,,,,,,,,,,,,,,,,bars/028.png,bars/mask004.png,,,,,,,,,,,,1,2,,,,,,,0,0,1,1,,,,,,,,,,,2470.141,2470.627,2470.861,2473.358,space,2.479,,2473.358,90,15,2474.373,2474.373,2474.374,,,,0,26,26,26,1,45,120,,,,,,,,
,,60e00818b935a41dcfb1cccd,65af551fbe6af047326a98a8,2024-01-23_07h57.50.407,bars,2023.2.3,Win32,29.9940012,657b66ea316d21385b68909f,,,,,,,,,,,2474.374,2475.377,,,2475.88,2476.126,,159,159,,,,,,,,,,,,,,,,bars/028.png,bars/mask009.png,,,,,,,,,,,,0,2,,,,,,,0,0,1,0,,,,,,,,,,,2475.377,2475.88,2476.126,2479.082,space,2.939,,2479.082,66,39,2480.08,2480.081,2480.087,,,,0,27,27,27,1,45,120,,,,,,,,
,,60e00818b935a41dcfb1cccd,65af551fbe6af047326a98a8,2024-01-23_07h57.50.407,bars,2023.2.3,Win32,29.9940012,657b66ea316d21385b68909f,,,,,,,,,,,2480.088,2481.077,,,2481.583,2481.828,,148,-32,,,,,,,,,,,,,,,,bars/016.png,bars/mask001.png,,,,,,,,,,,,0,2,,,,,,,0,0,0,0,,,,,,,,,,,2481.077,2481.582,2481.828,2487.17,space,5.327,,2487.17,72,17,2488.157,2488.157,2488.159,,,,0,28,28,28,1,40,165,,,,,,,,
,,60e00818b935a41dcfb1cccd,65af551fbe6af047326a98a8,2024-01-23_07h57.50.407,bars,2023.2.3,Win32,29.9940012,657b66ea316d21385b68909f,,,,,,,,,,,2488.159,2489.153,,,2489.649,2489.888,,12,12,,,,,,,,,,,,,,,,bars/032.png,bars/mask001.png,,,,,,,,,,,,1,2,,,,,,,0,2,0,2,,,,,,,,,,,2489.153,2489.649,2489.888,2493.223,space,3.322,,2493.223,67,8,2494.221,2494.221,2494.224,,,,0,29,29,29,1,125,20,,,,,,,,
,,60e00818b935a41dcfb1cccd,65af551fbe6af047326a98a8,2024-01-23_07h57.50.407,bars,2023.2.3,Win32,29.9940012,657b66ea316d21385b68909f,,,,,,,,,,,2494.225,2495.221,,,2495.725,2495.968,,138,-42,,,,,,,,,,,,,,,,bars/043.png,bars/mask005.png,,,,,,,,,,,,2,2,,,,,,,2,4,3,3,,,,,,,,,,,2495.222,2495.725,2495.968,2499.12,space,3.129,,2499.12,72,8,2500.12,2500.12,2500.122,,,,0,30,30,30,1,30,130,,,,,,,,
,,60e00818b935a41dcfb1cccd,65af551fbe6af047326a98a8,2024-01-23_07h57.50.407,bars,2023.2.3,Win32,29.9940012,657b66ea316d21385b68909f,,,,,,,,,,,2500.123,2501.123,,,2501.623,2501.874,,8,188,,,,,,,,,,,,,,,,bars/012.png,bars/mask002.png,,,,,,,,,,,,2,2,,,,,,,4,2,4,2,,,,,,,,,,,2501.124,2501.622,2501.874,2504.163,space,2.275,,2504.163,82,7,2505.162,2505.162,2505.163,,,,0,31,31,31,1,90,15,,,,,,,,
,,60e00818b935a41dcfb1cccd,65af551fbe6af047326a98a8,2024-01-23_07h57.50.407,bars,2023.2.3,Win32,29.9940012,657b66ea316d21385b68909f,,,,,,,,,,,2505.163,2506.154,,,2506.648,2506.883,,18,18,,,,,,,,,,,,,,,,bars/031.png,bars/mask001.png,,,,,,,,,,,,2,2,,,,,,,6,4,6,4,,,,,,,,,,,2506.154,2506.647,2506.884,2510.947,space,4.048,,2510.947,78,17,2511.957,2511.957,2511.958,,,,0,32,32,32,1,120,35,,,,,,,,
,,60e00818b935a41dcfb1cccd,65af551fbe6af047326a98a8,2024-01-23_07h57.50.407,bars,2023.2.3,Win32,29.9940012,657b66ea316d21385b68909f,,,,,,,,,,,2511.958,2512.958,,,2513.481,2513.715,,124,-56,,,,,,,,,,,,,,,,bars/002.png,bars/mask004.png,,,,,,,,,,,,6,1,,,,,,,8,6,7,5,,,,,,,,,,,2512.958,2513.481,2513.715,2518.377,space,4.654,,2518.377,6,39,2519.367,2519.367,2519.373,,,,0,33,33,33,1,130,85,,,,,,,,
,,60e00818b935a41dcfb1cccd,65af551fbe6af047326a98a8,2024-01-23_07h57.50.407,bars,2023.2.3,Win32,29.9940012,657b66ea316d21385b68909f,,,,,,,,,,,2519.374,2520.369,,,2520.853,2521.098,,36,36,,,,,,,,,,,,,,,,bars/029.png,bars/mask002.png,,,,,,,,,,,,4,2,,,,,,,6,4,6,5,,,,,,,,,,,2520.369,2520.853,2521.098,2522.962,space,1.858,,2522.963,54,9,2523.952,2523.952,2523.956,,,,0,34,34,34,1,90,45,,,,,,,,
,,60e00818b935a41dcfb1cccd,65af551fbe6af047326a98a8,2024-01-23_07h57.50.407,bars,2023.2.3,Win32,29.9940012,657b66ea316d21385b68909f,,,,,,,,,,,2523.956,2524.949,,,2525.436,2525.679,,36,216,,,,,,,,,,,,,,,,bars/007.png,bars/mask006.png,,,,,,,,,,,,1,2,,,,,,,8,2,7,3,,,,,,,,,,,2524.949,2525.436,2525.679,2527.94,space,2.251,,2527.94,41,19,2528.915,2528.915,2528.916,,,,0,35,35,35,1,175,55,,,,,,,,
,,60e00818b935a41dcfb1cccd,65af551fbe6af047326a98a8,2024-01-23_07h57.50.407,bars,2023.2.3,Win32,29.9940012,657b66ea316d21385b68909f,,,,,,,,,,,2528.917,2529.921,,,2530.42,2530.671,,125,125,,,,,,,,,,,,,,,,bars/005.png,bars/mask007.png,,,,,,,,,,,,0,2,,,,,,,6,0,7,0,,,,,,,,,,,2529.922,2530.42,2530.671,2534.872,space,4.191,,2534.872,65,15,2535.869,2535.869,2535.871,,,,0,36,36,36,1,10,140,,,,,,,,
,,60e00818b935a41dcfb1cccd,65af551fbe6af047326a98a8,2024-01-23_07h57.50.407,bars,2023.2.3,Win32,29.9940012,657b66ea316d21385b68909f,,,,,,,,,,,2535.871,2536.875,,,2537.358,2537.608,,10,10,,,,,,,,,,,,,,,,bars/029.png,bars/mask009.png,,,,,,,,,,,,0,2,,,,,,,4,2,3,1,,,,,,,,,,,2536.876,2537.358,2537.608,2546.363,space,8.734,,2546.364,80,35,2547.357,2547.357,2547.362,,,,0,37,37,37,1,90,45,,,,,,,,
,,60e00818b935a41dcfb1cccd,65af551fbe6af047326a98a8,2024-01-23_07h57.50.407,bars,2023.2.3,Win32,29.9940012,657b66ea316d21385b68909f,,,,,,,,,,,2547.363,2548.371,,,2548.875,2549.116,,158,-22,,,,,,,,,,,,,,,,bars/024.png,bars/mask008.png,,,,,,,,,,,,2,2,,,,,,,2,4,1,4,,,,,,,,,,,2548.371,2548.874,2549.116,2551.032,space,1.904,,2551.032,38,12,2552.027,2552.027,2552.028,,,,0,38,38,38,1,120,170,,,,,,,,
,,60e00818b935a41dcfb1cccd,65af551fbe6af047326a98a8,2024-01-23_07h57.50.407,bars,2023.2.3,Win32,29.9940012,657b66ea316d21385b68909f,,,,,,,,,,,2552.029,2553.017,,,2553.527,2553.778,,149,149,,,,,,,,,,,,,,,,bars/020.png,bars/mask003.png,,,,,,,,,,,,2,2,,,,,,,4,6,4,6,,,,,,,,,,,2553.018,2553.527,2553.778,2555.579,space,1.771,,2555.579,34,21,2556.577,2556.577,2556.579,,,,0,39,39,39,1,115,170,,,,,,,,
,,60e00818b935a41dcfb1cccd,65af551fbe6af047326a98a8,2024-01-23_07h57.50.407,bars,2023.2.3,Win32,29.9940012,657b66ea316d21385b68909f,,,,,,,,,,,2556.579,2557.561,,,2558.065,2558.311,,106,-74,,,,,,,,,,,,,,,,bars/043.png,bars/mask003.png,,,,,,,,,,,,0,2,,,,,,,2,4,2,2,,,,,,,,,,,2557.561,2558.065,2558.311,2562.214,space,3.882,,2562.214,76,24,2563.219,2563.219,2563.223,,,,0,40,40,40,1,30,130,,,,,,,,
,,60e00818b935a41dcfb1cccd,65af551fbe6af047326a98a8,2024-01-23_07h57.50.407,bars,2023.2.3,Win32,29.9940012,657b66ea316d21385b68909f,,,,,,,,,,,2563.223,2564.221,,,2564.714,2564.964,,179,179,,,,,,,,,,,,,,,,bars/016.png,bars/mask003.png,,,,,,,,,,,,1,2,,,,,,,4,2,7,2,,,,,,,,,,,2564.221,2564.714,2564.964,2566.29,space,1.311,,2566.29,41,14,2567.289,2567.289,2567.292,,,,0,41,41,41,1,40,165,,,,,,,,
,,60e00818b935a41dcfb1cccd,65af551fbe6af047326a98a8,2024-01-23_07h57.50.407,bars,2023.2.3,Win32,29.9940012,657b66ea316d21385b68909f,,,,,,,,,,,2567.293,2568.299,,,2568.803,2569.056,,112,112,,,,,,,,,,,,,,,,bars/028.png,bars/mask000.png,,,,,,,,,,,,4,2,,,,,,,6,4,7,5,,,,,,,,,,,2568.299,2568.803,2569.056,2571.75,space,2.688,,2571.751,67,8,2572.739,2572.739,2572.743,,,,0,42,42,42,1,45,120,,,,,,,,
,,60e00818b935a41dcfb1cccd,65af551fbe6af047326a98a8,2024-01-23_07h57.50.407,bars,2023.2.3,Win32,29.9940012,657b66ea316d21385b68909f,,,,,,,,,,,2572.744,2573.735,,,2574.226,2574.476,,26,206,,,,,,,,,,,,,,,,bars/022.png,bars/mask008.png,,,,,,,,,,,,2,2,,,,,,,4,2,4,3,,,,,,,,,,,2573.735,2574.226,2574.476,2577.228,space,2.741,,2577.228,69,6,2578.237,2578.238,2578.246,,,,0,43,43,43,1,95,20,,,,,,,,
,,60e00818b935a41dcfb1cccd,65af551fbe6af047326a98a8,2024-01-23_07h57.50.407,bars,2023.2.3,Win32,29.9940012,657b66ea316d21385b68909f,,,,,,,,,,,2578.248,2579.224,,,2579.71,2579.957,,131,131,,,,,,,,,,,,,,,,bars/023.png,bars/mask003.png,,,,,,,,,,,,0,2,,,,,,,6,0,5,1,,,,,,,,,,,2579.224,2579.71,2579.957,2582.583,space,2.596,,2582.583,69,16,2583.573,2583.573,2583.574,,,,0,44,44,44,1,20,115,,,,,,,,
,,60e00818b935a41dcfb1cccd,65af551fbe6af047326a98a8,2024-01-23_07h57.50.407,bars,2023.2.3,Win32,29.9940012,657b66ea316d21385b68909f,,,,,,,,,,,2583.575,2584.579,,,2585.063,2585.312,,108,108,,,,,,,,,,,,,,,,bars/037.png,bars/mask000.png,,,,,,,,,,,,0,2,,,,,,,4,0,3,0,,,,,,,,,,,2584.579,2585.062,2585.313,2587.162,space,1.83,,2587.162,42,3,2588.175,2588.175,2588.176,,,,0,45,45,45,1,150,105,,,,,,,,
,,60e00818b935a41dcfb1cccd,65af551fbe6af047326a98a8,2024-01-23_07h57.50.407,bars,2023.2.3,Win32,29.9940012,657b66ea316d21385b68909f,,,,,,,,,,,2588.177,2589.161,,,2589.668,2589.915,,121,121,,,,,,,,,,,,,,,,bars/005.png,bars/mask003.png,,,,,,,,,,,,0,2,,,,,,,6,2,6,1,,,,,,,,,,,2589.161,2589.668,2589.915,2594.302,space,4.368,,2594.302,69,19,2595.297,2595.297,2595.3,,,,0,46,46,46,1,10,140,,,,,,,,
,,60e00818b935a41dcfb1cccd,65af551fbe6af047326a98a8,2024-01-23_07h57.50.407,bars,2023.2.3,Win32,29.9940012,657b66ea316d21385b68909f,,,,,,,,,,,2595.303,2596.298,,,2596.797,2597.032,,123,123,,,,,,,,,,,,,,,,bars/004.png,bars/mask006.png,,,,,,,,,,,,5,2,,,,,,,4,4,3,5,,,,,,,,,,,2596.298,2596.796,2597.032,2598.756,space,1.716,,2598.757,82,2,2599.758,2599.758,2599.759,,,,0,47,47,47,1,25,125,,,,,,,,
,,60e00818b935a41dcfb1cccd,65af551fbe6af047326a98a8,2024-01-23_07h57.50.407,bars,2023.2.3,Win32,29.9940012,657b66ea316d21385b68909f,,,,,,,,,,,2599.76,2600.753,,,2601.231,2601.469,,13,13,,,,,,,,,,,,,,,,bars/022.png,bars/mask009.png,,,,,,,,,,,,2,2,,,,,,,2,2,2,3,,,,,,,,,,,2600.753,2601.231,2601.47,2604.246,space,2.766,,2604.246,82,7,2605.25,2605.25,2605.252,,,,0,48,48,48,1,95,20,,,,,,,,
,,60e00818b935a41dcfb1cccd,65af551fbe6af047326a98a8,2024-01-23_07h57.50.407,bars,2023.2.3,Win32,29.9940012,657b66ea316d21385b68909f,,,,,,,,,,,2605.252,2606.252,,,2606.739,2606.991,,115,115,,,,,,,,,,,,,,,,bars/019.png,bars/mask007.png,,,,,,,,,,,,0,2,,,,,,,0,0,0,0,,,,,,,,,,,2606.252,2606.739,2606.991,2611.373,space,4.364,,2611.377,70,10,2612.365,2612.365,2612.369,,,,0,49,49,49,1,45,105,,,,,,,,
,,60e00818b935a41dcfb1cccd,65af551fbe6af047326a98a8,2024-01-23_07h57.50.407,bars,2023.2.3,Win32,29.9940012,657b66ea316d21385b68909f,,,,,,,,,,,,,,,,,,,,,,,,,,,,,,,,,,,,,,,,,,,,,,,,,,,,,,,,,,,,,,,,,,,,,,,,,,,,,,,,,,,,,,,,,,,,,2612.37,2672.35,0,1,1,3,1,sequence_tables/blk014.csv
,,60e00818b935a41dcfb1cccd,65af551fbe6af047326a98a8,2024-01-23_07h57.50.407,bars,2023.2.3,Win32,29.9940012,657b66ea316d21385b68909f,,,,,,,,,,,2682.802,2683.809,,,2684.295,2684.539,,35,35,,,,,,,,,,,,,,,,bars/047.png,bars/mask008.png,,,,,,,,,,,,0,1,,,,,,,1,6,1,7,,,,,,2672.355,2682.794,space,10.429,,2683.809,2684.295,2684.539,2689.229,space,4.68,,2689.229,20,35,2690.239,2690.24,2690.247,,,,0,0,0,0,1,15,70,,,,,,,,
,,60e00818b935a41dcfb1cccd,65af551fbe6af047326a98a8,2024-01-23_07h57.50.407,bars,2023.2.3,Win32,29.9940012,657b66ea316d21385b68909f,,,,,,,,,,,2690.248,2691.24,,,2691.721,2691.961,,130,130,,,,,,,,,,,,,,,,bars/028.png,bars/mask009.png,,,,,,,,,,,,3,2,,,,,,,3,4,2,5,,,,,,,,,,,2691.24,2691.721,2691.961,2694.682,space,2.7,,2694.682,85,10,2695.679,2695.679,2695.684,,,,0,1,1,1,1,45,120,,,,,,,,
,,60e00818b935a41dcfb1cccd,65af551fbe6af047326a98a8,2024-01-23_07h57.50.407,bars,2023.2.3,Win32,29.9940012,657b66ea316d21385b68909f,,,,,,,,,,,2695.684,2696.68,,,2697.158,2697.409,,26,26,,,,,,,,,,,,,,,,bars/031.png,bars/mask001.png,,,,,,,,,,,,4,2,,,,,,,1,6,2,5,,,,,,,,,,,2696.68,2697.158,2697.409,2700.268,space,2.852,,2700.268,86,9,2701.262,2701.262,2701.263,,,,0,2,2,2,1,120,35,,,,,,,,
,,60e00818b935a41dcfb1cccd,65af551fbe6af047326a98a8,2024-01-23_07h57.50.407,bars,2023.2.3,Win32,29.9940012,657b66ea316d21385b68909f,,,,,,,,,,,2701.264,2702.265,,,2702.763,2703.018,,6,6,,,,,,,,,,,,,,,,bars/036.png,bars/mask004.png,,,,,,,,,,,,3,2,,,,,,,3,4,3,5,,,,,,,,,,,2702.266,2702.763,2703.018,2705.849,space,2.819,,2705.849,41,14,2706.845,2706.845,2706.85,,,,0,3,3,3,1,145,20,,,,,,,,
,,60e00818b935a41dcfb1cccd,65af551fbe6af047326a98a8,2024-01-23_07h57.50.407,bars,2023.2.3,Win32,29.9940012,657b66ea316d21385b68909f,,,,,,,,,,,2706.851,2707.852,,,2708.33,2708.571,,29,29,,,,,,,,,,,,,,,,bars/029.png,bars/mask003.png,,,,,,,,,,,,3,2,,,,,,,1,6,1,6,,,,,,,,,,,2707.852,2708.33,2708.571,2710.92,space,2.343,,2710.92,61,16,2711.899,2711.899,2711.901,,,,0,4,4,4,1,90,45,,,,,,,,
,,60e00818b935a41dcfb1cccd,65af551fbe6af047326a98a8,2024-01-23_07h57.50.407,bars,2023.2.3,Win32,29.9940012,657b66ea316d21385b68909f,,,,,,,,,,,2711.901,2712.89,,,2713.387,2713.619,,119,119,,,,,,,,,,,,,,,,bars/021.png,bars/mask003.png,,,,,,,,,,,,0,1,,,,,,,3,4,4,4,,,,,,,,,,,2712.89,2713.387,2713.62,2716.051,space,2.422,,2716.051,36,49,2717.026,2717.026,2717.03,,,,0,5,5,5,1,155,70,,,,,,,,
,,60e00818b935a41dcfb1cccd,65af551fbe6af047326a98a8,2024-01-23_07h57.50.407,bars,2023.2.3,Win32,29.9940012,657b66ea316d21385b68909f,,,,,,,,,,,2717.031,2718.033,,,2718.525,2718.773,,4,4,,,,,,,,,,,,,,,,bars/032.png,bars/mask005.png,,,,,,,,,,,,3,2,,,,,,,5,6,4,6,,,,,,,,,,,2718.033,2718.525,2718.773,2724.343,space,5.557,,2724.343,59,16,2725.34,2725.34,2725.348,,,,0,6,6,6,1,125,20,,,,,,,,
,,60e00818b935a41dcfb1cccd,65af551fbe6af047326a98a8,2024-01-23_07h57.50.407,bars,2023.2.3,Win32,29.9940012,657b66ea316d21385b68909f,,,,,,,,,,,2725.348,2726.34,,,2726.829,2727.076,,31,211,,,,,,,,,,,,,,,,bars/010.png,bars/mask009.png,,,,,,,,,,,,1,2,,,,,,,7,4,9,4,,,,,,,,,,,2726.34,2726.828,2727.076,2729.273,space,2.169,,2729.273,46,24,2730.278,2730.278,2730.28,,,,0,7,7,7,1,165,55,,,,,,,,
,,60e00818b935a41dcfb1cccd,65af551fbe6af047326a98a8,2024-01-23_07h57.50.407,bars,2023.2.3,Win32,29.9940012,657b66ea316d21385b68909f,,,,,,,,,,,2730.28,2731.279,,,2731.785,2732.012,,55,55,,,,,,,,,,,,,,,,bars/017.png,bars/mask008.png,,,,,,,,,,,,5,2,,,,,,,9,6,9,7,,,,,,,,,,,2731.279,2731.785,2732.013,2733.877,space,1.848,,2733.877,90,10,2734.882,2734.882,2734.886,,,,0,8,8,8,1,145,45,,,,,,,,
,,60e00818b935a41dcfb1cccd,65af551fbe6af047326a98a8,2024-01-23_07h57.50.407,bars,2023.2.3,Win32,29.9940012,657b66ea316d21385b68909f,,,,,,,,,,,2734.886,2735.893,,,2736.376,2736.627,,48,48,,,,,,,,,,,,,,,,bars/030.png,bars/mask000.png,,,,,,,,,,,,2,2,,,,,,,10,4,10,5,,,,,,,,,,,2735.893,2736.376,2736.627,2739.894,space,3.24,,2739.894,88,17,2740.883,2740.883,2740.887,,,,0,9,9,9,1,140,65,,,,,,,,
,,60e00818b935a41dcfb1cccd,65af551fbe6af047326a98a8,2024-01-23_07h57.50.407,bars,2023.2.3,Win32,29.9940012,657b66ea316d21385b68909f,,,,,,,,,,,2740.888,2741.893,,,2742.384,2742.631,,43,43,,,,,,,,,,,,,,,,bars/031.png,bars/mask002.png,,,,,,,,,,,,2,2,,,,,,,8,2,9,3,,,,,,,,,,,2741.893,2742.384,2742.631,2747.068,space,4.419,,2747.069,77,8,2748.046,2748.046,2748.048,,,,0,10,10,10,1,120,35,,,,,,,,
,,60e00818b935a41dcfb1cccd,65af551fbe6af047326a98a8,2024-01-23_07h57.50.407,bars,2023.2.3,Win32,29.9940012,657b66ea316d21385b68909f,,,,,,,,,,,2748.048,2749.048,,,2749.554,2749.802,,166,-14,,,,,,,,,,,,,,,,bars/012.png,bars/mask007.png,,,,,,,,,,,,0,2,,,,,,,6,4,6,5,,,,,,,,,,,2749.048,2749.553,2749.802,2753.42,space,3.599,,2753.42,76,29,2754.427,2754.427,2754.428,,,,0,11,11,11,1,90,15,,,,,,,,
,,60e00818b935a41dcfb1cccd,65af551fbe6af047326a98a8,2024-01-23_07h57.50.407,bars,2023.2.3,Win32,29.9940012,657b66ea316d21385b68909f,,,,,,,,,,,2754.428,2755.417,,,2755.915,2756.161,,116,116,,,,,,,,,,,,,,,,bars/011.png,bars/mask000.png,,,,,,,,,,,,0,2,,,,,,,8,6,8,5,,,,,,,,,,,2755.417,2755.915,2756.161,2757.491,space,1.314,,2757.491,44,31,2758.485,2758.485,2758.486,,,,0,12,12,12,1,160,85,,,,,,,,
,,60e00818b935a41dcfb1cccd,65af551fbe6af047326a98a8,2024-01-23_07h57.50.407,bars,2023.2.3,Win32,29.9940012,657b66ea316d21385b68909f,,,,,,,,,,,2758.486,2759.493,,,2759.992,2760.254,,85,85,,,,,,,,,,,,,,,,bars/002.png,bars/mask006.png,,,,,,,,,,,,4,2,,,,,,,6,4,5,4,,,,,,,,,,,2759.493,2759.991,2760.254,2762.376,space,2.104,,2762.376,45,0,2763.376,2763.376,2763.378,,,,0,13,13,13,1,130,85,,,,,,,,
,,60e00818b935a41dcfb1cccd,65af551fbe6af047326a98a8,2024-01-23_07h57.50.407,bars,2023.2.3,Win32,29.9940012,657b66ea316d21385b68909f,,,,,,,,,,,2763.379,2764.354,,,2764.843,2765.092,,3,3,,,,,,,,,,,,,,,,bars/045.png,bars/mask004.png,,,,,,,,,,,,4,2,,,,,,,8,6,7,5,,,,,,,,,,,2764.354,2764.843,2765.092,2768.124,space,3.009,,2768.124,83,7,2769.113,2769.113,2769.117,,,,0,14,14,14,1,100,10,,,,,,,,
,,60e00818b935a41dcfb1cccd,65af551fbe6af047326a98a8,2024-01-23_07h57.50.407,bars,2023.2.3,Win32,29.9940012,657b66ea316d21385b68909f,,,,,,,,,,,2769.118,2770.111,,,2770.61,2770.859,,106,106,,,,,,,,,,,,,,,,bars/041.png,bars/mask008.png,,,,,,,,,,,,3,2,,,,,,,6,8,6,9,,,,,,,,,,,2770.112,2770.61,2770.86,2776.183,space,5.305,,2776.183,86,21,2777.177,2777.177,2777.178,,,,0,15,15,15,1,20,85,,,,,,,,
,,60e00818b935a41dcfb1cccd,65af551fbe6af047326a98a8,2024-01-23_07h57.50.407,bars,2023.2.3,Win32,29.9940012,657b66ea316d21385b68909f,,,,,,,,,,,2777.178,2778.16,,,2778.664,2778.912,,55,55,,,,,,,,,,,,,,,,bars/038.png,bars/mask006.png,,,,,,,,,,,,5,2,,,,,,,8,10,9,10,,,,,,,,,,,2778.16,2778.664,2778.912,2783.468,space,4.549,,2783.468,70,15,2784.465,2784.465,2784.467,,,,0,16,16,16,1,165,70,,,,,,,,
,,60e00818b935a41dcfb1cccd,65af551fbe6af047326a98a8,2024-01-23_07h57.50.407,bars,2023.2.3,Win32,29.9940012,657b66ea316d21385b68909f,,,,,,,,,,,2784.468,2785.482,,,2785.984,2786.232,,168,168,,,,,,,,,,,,,,,,bars/012.png,bars/mask001.png,,,,,,,,,,,,1,2,,,,,,,6,10,5,8,,,,,,,,,,,2785.482,2785.984,2786.232,2787.22,space,0.968,,2787.22,78,27,2788.198,2788.198,2788.199,,,,0,17,17,17,1,90,15,,,,,,,,
,,60e00818b935a41dcfb1cccd,65af551fbe6af047326a98a8,2024-01-23_07h57.50.407,bars,2023.2.3,Win32,29.9940012,657b66ea316d21385b68909f,,,,,,,,,,,2788.2,2789.218,,,2789.716,2789.953,,158,158,,,,,,,,,,,,,,,,bars/015.png,bars/mask009.png,,,,,,,,,,,,9,2,,,,,,,4,10,4,10,,,,,,,,,,,2789.218,2789.716,2789.953,2792.126,space,2.164,,2792.126,48,2,2793.107,2793.107,2793.11,,,,0,18,18,18,1,110,160,,,,,,,,
,,60e00818b935a41dcfb1cccd,65af551fbe6af047326a98a8,2024-01-23_07h57.50.407,bars,2023.2.3,Win32,29.9940012,657b66ea316d21385b68909f,,,,,,,,,,,2793.11,2794.105,,,2794.619,2794.872,,154,-26,,,,,,,,,,,,,,,,bars/004.png,bars/mask007.png,,,,,,,,,,,,0,2,,,,,,,6,8,6,8,,,,,,,,,,,2794.105,2794.619,2794.872,2798.422,space,3.539,,2798.423,51,29,2799.42,2799.42,2799.423,,,,0,19,19,19,1,25,125,,,,,,,,
,,60e00818b935a41dcfb1cccd,65af551fbe6af047326a98a8,2024-01-23_07h57.50.407,bars,2023.2.3,Win32,29.9940012,657b66ea316d21385b68909f,,,,,,,,,,,2799.423,2800.41,,,2800.889,2801.144,,13,193,,,,,,,,,,,,,,,,bars/032.png,bars/mask002.png,,,,,,,,,,,,5,2,,,,,,,4,6,4,6,,,,,,,,,,,2800.41,2800.889,2801.145,2803.197,space,2.046,,2803.197,68,7,2804.173,2804.173,2804.174,,,,0,20,20,20,1,125,20,,,,,,,,
,,60e00818b935a41dcfb1cccd,65af551fbe6af047326a98a8,2024-01-23_07h57.50.407,bars,2023.2.3,Win32,29.9940012,657b66ea316d21385b68909f,,,,,,,,,,,2804.175,2805.19,,,2805.673,2805.907,,1,181,,,,,,,,,,,,,,,,bars/045.png,bars/mask009.png,,,,,,,,,,,,6,2,,,,,,,2,8,3,8,,,,,,,,,,,2805.19,2805.673,2805.907,2809.226,space,3.291,,2809.226,81,9,2810.231,2810.231,2810.234,,,,0,21,21,21,1,100,10,,,,,,,,
,,60e00818b935a41dcfb1cccd,65af551fbe6af047326a98a8,2024-01-23_07h57.50.407,bars,2023.2.3,Win32,29.9940012,657b66ea316d21385b68909f,,,,,,,,,,,2810.235,2811.245,,,2811.742,2811.983,,23,203,,,,,,,,,,,,,,,,bars/007.png,bars/mask000.png,,,,,,,,,,,,0,1,,,,,,,4,6,5,8,,,,,,,,,,,2811.245,2811.742,2811.983,2814.432,space,2.423,,2814.432,28,32,2815.445,2815.445,2815.447,,,,0,22,22,22,1,175,55,,,,,,,,
,,60e00818b935a41dcfb1cccd,65af551fbe6af047326a98a8,2024-01-23_07h57.50.407,bars,2023.2.3,Win32,29.9940012,657b66ea316d21385b68909f,,,,,,,,,,,2815.447,2816.427,,,2816.933,2817.181,,128,-52,,,,,,,,,,,,,,,,bars/023.png,bars/mask001.png,,,,,,,,,,,,5,2,,,,,,,6,8,4,9,,,,,,,,,,,2816.427,2816.933,2817.181,2820.829,space,3.639,,2820.829,72,13,2821.819,2821.819,2821.823,,,,0,23,23,23,1,20,115,,,,,,,,
,,60e00818b935a41dcfb1cccd,65af551fbe6af047326a98a8,2024-01-23_07h57.50.407,bars,2023.2.3,Win32,29.9940012,657b66ea316d21385b68909f,,,,,,,,,,,2821.823,2822.821,,,2823.298,2823.554,,29,29,,,,,,,,,,,,,,,,bars/025.png,bars/mask001.png,,,,,,,,,,,,5,2,,,,,,,8,6,8,8,,,,,,,,,,,2822.821,2823.298,2823.554,2825.81,space,2.249,,2825.81,76,11,2826.799,2826.799,2826.8,,,,0,24,24,24,1,105,40,,,,,,,,
,,60e00818b935a41dcfb1cccd,65af551fbe6af047326a98a8,2024-01-23_07h57.50.407,bars,2023.2.3,Win32,29.9940012,657b66ea316d21385b68909f,,,,,,,,,,,2826.8,2827.8,,,2828.29,2828.541,,106,106,,,,,,,,,,,,,,,,bars/035.png,bars/mask000.png,,,,,,,,,,,,0,2,,,,,,,6,8,7,8,,,,,,,,,,,2827.801,2828.29,2828.541,2832.388,space,3.828,,2832.388,69,46,2833.363,2833.363,2833.365,,,,0,25,25,25,1,175,60,,,,,,,,
,,60e00818b935a41dcfb1cccd,65af551fbe6af047326a98a8,2024-01-23_07h57.50.407,bars,2023.2.3,Win32,29.9940012,657b66ea316d21385b68909f,,,,,,,,,,,2833.367,2834.386,,,2834.87,2835.113,,14,194,,,,,,,,,,,,,,,,bars/012.png,bars/mask001.png,,,,,,,,,,,,5,2,,,,,,,4,6,5,5,,,,,,,,,,,2834.386,2834.869,2835.113,2840.263,space,5.132,,2840.263,76,1,2841.245,2841.245,2841.247,,,,0,26,26,26,1,90,15,,,,,,,,
,,60e00818b935a41dcfb1cccd,65af551fbe6af047326a98a8,2024-01-23_07h57.50.407,bars,2023.2.3,Win32,29.9940012,657b66ea316d21385b68909f,,,,,,,,,,,2841.247,2842.243,,,2842.756,2843.013,,42,42,,,,,,,,,,,,,,,,bars/017.png,bars/mask007.png,,,,,,,,,,,,3,2,,,,,,,6,4,6,3,,,,,,,,,,,2842.243,2842.756,2843.013,2848.746,space,5.723,,2848.746,77,3,2849.712,2849.713,2849.719,,,,0,27,27,27,1,145,45,,,,,,,,
,,60e00818b935a41dcfb1cccd,65af551fbe6af047326a98a8,2024-01-23_07h57.50.407,bars,2023.2.3,Win32,29.9940012,657b66ea316d21385b68909f,,,,,,,,,,,2849.721,2850.714,,,2851.219,2851.444,,122,-58,,,,,,,,,,,,,,,,bars/001.png,bars/mask005.png,,,,,,,,,,,,4,1,,,,,,,8,2,6,2,,,,,,,,,,,2850.714,2851.219,2851.444,2855.864,space,4.409,,2855.864,8,37,2856.846,2856.846,2856.848,,,,0,28,28,28,1,130,85,,,,,,,,
,,60e00818b935a41dcfb1cccd,65af551fbe6af047326a98a8,2024-01-23_07h57.50.407,bars,2023.2.3,Win32,29.9940012,657b66ea316d21385b68909f,,,,,,,,,,,2856.849,2857.849,,,2858.331,2858.569,,169,-11,,,,,,,,,,,,,,,,bars/015.png,bars/mask004.png,,,,,,,,,,,,0,2,,,,,,,6,0,7,0,,,,,,,,,,,2857.849,2858.331,2858.569,2862.833,space,4.252,,2862.833,59,9,2863.815,2863.816,2863.818,,,,0,29,29,29,1,110,160,,,,,,,,
,,60e00818b935a41dcfb1cccd,65af551fbe6af047326a98a8,2024-01-23_07h57.50.407,bars,2023.2.3,Win32,29.9940012,657b66ea316d21385b68909f,,,,,,,,,,,2863.82,2864.817,,,2865.306,2865.555,,143,143,,,,,,,,,,,,,,,,bars/004.png,bars/mask009.png,,,,,,,,,,,,0,2,,,,,,,8,0,9,0,,,,,,,,,,,2864.817,2865.306,2865.556,2868.47,space,2.907,,2868.47,62,18,2869.474,2869.474,2869.476,,,,0,30,30,30,1,25,125,,,,,,,,
,,60e00818b935a41dcfb1cccd,65af551fbe6af047326a98a8,2024-01-23_07h57.50.407,bars,2023.2.3,Win32,29.9940012,657b66ea316d21385b68909f,,,,,,,,,,,2869.476,2870.459,,,2870.959,2871.188,,124,124,,,,,,,,,,,,,,,,bars/043.png,bars/mask003.png,,,,,,,,,,,,2,2,,,,,,,10,0,10,2,,,,,,,,,,,2870.46,2870.959,2871.188,2872.909,space,1.702,,2872.909,86,6,2873.906,2873.906,2873.907,,,,0,31,31,31,1,30,130,,,,,,,,
,,60e00818b935a41dcfb1cccd,65af551fbe6af047326a98a8,2024-01-23_07h57.50.407,bars,2023.2.3,Win32,29.9940012,657b66ea316d21385b68909f,,,,,,,,,,,2873.907,2874.929,,,2875.413,2875.658,,150,150,,,,,,,,,,,,,,,,bars/044.png,bars/mask002.png,,,,,,,,,,,,0,2,,,,,,,10,0,9,0,,,,,,,,,,,2874.929,2875.413,2875.658,2876.942,space,1.269,,2876.942,75,5,2877.941,2877.941,2877.942,,,,0,32,32,32,1,75,155,,,,,,,,
,,60e00818b935a41dcfb1cccd,65af551fbe6af047326a98a8,2024-01-23_07h57.50.407,bars,2023.2.3,Win32,29.9940012,657b66ea316d21385b68909f,,,,,,,,,,,2877.942,2878.943,,,2879.445,2879.696,,152,152,,,,,,,,,,,,,,,,bars/020.png,bars/mask000.png,,,,,,,,,,,,0,2,,,,,,,10,0,10,1,,,,,,,,,,,2878.943,2879.445,2879.696,2885.617,space,5.916,,2885.617,37,18,2886.625,2886.625,2886.626,,,,0,33,33,33,1,115,170,,,,,,,,
,,60e00818b935a41dcfb1cccd,65af551fbe6af047326a98a8,2024-01-23_07h57.50.407,bars,2023.2.3,Win32,29.9940012,657b66ea316d21385b68909f,,,,,,,,,,,2886.627,2887.626,,,2888.111,2888.367,,142,142,,,,,,,,,,,,,,,,bars/000.png,bars/mask005.png,,,,,,,,,,,,2,2,,,,,,,8,2,9,2,,,,,,,,,,,2887.626,2888.111,2888.368,2890.862,space,2.472,,2890.862,78,3,2891.868,2891.869,2891.871,,,,0,34,34,34,1,40,145,,,,,,,,
,,60e00818b935a41dcfb1cccd,65af551fbe6af047326a98a8,2024-01-23_07h57.50.407,bars,2023.2.3,Win32,29.9940012,657b66ea316d21385b68909f,,,,,,,,,,,2891.872,2892.852,,,2893.329,2893.583,,165,-15,,,,,,,,,,,,,,,,bars/045.png,bars/mask002.png,,,,,,,,,,,,1,2,,,,,,,10,4,10,5,,,,,,,,,,,2892.852,2893.329,2893.583,2897.334,space,3.736,,2897.335,65,25,2898.349,2898.349,2898.351,,,,0,35,35,35,1,100,10,,,,,,,,
,,60e00818b935a41dcfb1cccd,65af551fbe6af047326a98a8,2024-01-23_07h57.50.407,bars,2023.2.3,Win32,29.9940012,657b66ea316d21385b68909f,,,,,,,,,,,2898.351,2899.35,,,2899.868,2900.116,,105,105,,,,,,,,,,,,,,,,bars/011.png,bars/mask004.png,,,,,,,,,,,,2,2,,,,,,,8,6,7,5,,,,,,,,,,,2899.35,2899.868,2900.116,2902.787,space,2.656,,2902.788,55,20,2903.79,2903.79,2903.793,,,,0,36,36,36,1,160,85,,,,,,,,
,,60e00818b935a41dcfb1cccd,65af551fbe6af047326a98a8,2024-01-23_07h57.50.407,bars,2023.2.3,Win32,29.9940012,657b66ea316d21385b68909f,,,,,,,,,,,2903.793,2904.802,,,2905.305,2905.554,,69,69,,,,,,,,,,,,,,,,bars/034.png,bars/mask006.png,,,,,,,,,,,,8,2,,,,,,,6,8,7,9,,,,,,,,,,,2904.802,2905.305,2905.554,2907.608,space,2.043,,2907.608,56,4,2908.609,2908.609,2908.611,,,,0,37,37,37,1,125,65,,,,,,,,
,,60e00818b935a41dcfb1cccd,65af551fbe6af047326a98a8,2024-01-23_07h57.50.407,bars,2023.2.3,Win32,29.9940012,657b66ea316d21385b68909f,,,,,,,,,,,2908.612,2909.587,,,2910.093,2910.355,,47,47,,,,,,,,,,,,,,,,bars/025.png,bars/mask000.png,,,,,,,,,,,,5,2,,,,,,,8,6,8,7,,,,,,,,,,,2909.587,2910.092,2910.355,2913.024,space,2.655,,2913.024,58,7,2914.011,2914.011,2914.013,,,,0,38,38,38,1,105,40,,,,,,,,
,,60e00818b935a41dcfb1cccd,65af551fbe6af047326a98a8,2024-01-23_07h57.50.407,bars,2023.2.3,Win32,29.9940012,657b66ea316d21385b68909f,,,,,,,,,,,2914.013,2915.01,,,2915.51,2915.761,,175,-5,,,,,,,,,,,,,,,,bars/012.png,bars/mask005.png,,,,,,,,,,,,1,2,,,,,,,10,4,9,3,,,,,,,,,,,2915.01,2915.51,2915.761,2919.666,space,3.883,,2919.667,85,20,2920.661,2920.661,2920.669,,,,0,39,39,39,1,90,15,,,,,,,,
,,60e00818b935a41dcfb1cccd,65af551fbe6af047326a98a8,2024-01-23_07h57.50.407,bars,2023.2.3,Win32,29.9940012,657b66ea316d21385b68909f,,,,,,,,,,,2920.67,2921.663,,,2922.161,2922.417,,66,246,,,,,,,,,,,,,,,,bars/038.png,bars/mask002.png,,,,,,,,,,,,3,2,,,,,,,10,2,10,3,,,,,,,,,,,2921.663,2922.161,2922.417,2927.136,space,4.71,,2927.136,81,4,2928.129,2928.13,2928.131,,,,0,40,40,40,1,165,70,,,,,,,,
,,60e00818b935a41dcfb1cccd,65af551fbe6af047326a98a8,2024-01-23_07h57.50.407,bars,2023.2.3,Win32,29.9940012,657b66ea316d21385b68909f,,,,,,,,,,,2928.132,2929.121,,,2929.596,2929.839,,120,120,,,,,,,,,,,,,,,,bars/028.png,bars/mask003.png,,,,,,,,,,,,0,2,,,,,,,10,0,10,0,,,,,,,,,,,2929.121,2929.596,2929.839,2932.431,space,2.576,,2932.431,75,0,2933.42,2933.42,2933.422,,,,0,41,41,41,1,45,120,,,,,,,,
,,60e00818b935a41dcfb1cccd,65af551fbe6af047326a98a8,2024-01-23_07h57.50.407,bars,2023.2.3,Win32,29.9940012,657b66ea316d21385b68909f,,,,,,,,,,,2933.422,2934.434,,,2934.923,2935.166,,16,16,,,,,,,,,,,,,,,,bars/014.png,bars/mask004.png,,,,,,,,,,,,1,2,,,,,,,10,2,10,2,,,,,,,,,,,2934.434,2934.923,2935.166,2937.236,space,2.056,,2937.236,64,16,2938.234,2938.234,2938.235,,,,0,42,42,42,1,80,0,,,,,,,,
,,60e00818b935a41dcfb1cccd,65af551fbe6af047326a98a8,2024-01-23_07h57.50.407,bars,2023.2.3,Win32,29.9940012,657b66ea316d21385b68909f,,,,,,,,,,,2938.235,2939.233,,,2939.711,2939.967,,123,123,,,,,,,,,,,,,,,,bars/017.png,bars/mask008.png,,,,,,,,,,,,2,1,,,,,,,8,0,8,0,,,,,,,,,,,2939.234,2939.711,2939.967,2945.643,space,5.647,,2945.643,22,78,2946.642,2946.642,2946.646,,,,0,43,43,43,1,145,45,,,,,,,,
,,60e00818b935a41dcfb1cccd,65af551fbe6af047326a98a8,2024-01-23_07h57.50.407,bars,2023.2.3,Win32,29.9940012,657b66ea316d21385b68909f,,,,,,,,,,,2946.646,2947.621,,,2948.123,2948.377,,59,59,,,,,,,,,,,,,,,,bars/031.png,bars/mask008.png,,,,,,,,,,,,0,2,,,,,,,6,0,6,0,,,,,,,,,,,2947.621,2948.123,2948.377,2951.878,space,3.488,,2951.878,61,24,2952.874,2952.874,2952.88,,,,0,44,44,44,1,120,35,,,,,,,,
,,60e00818b935a41dcfb1cccd,65af551fbe6af047326a98a8,2024-01-23_07h57.50.407,bars,2023.2.3,Win32,29.9940012,657b66ea316d21385b68909f,,,,,,,,,,,2952.881,2953.857,,,2954.356,2954.611,,167,-13,,,,,,,,,,,,,,,,bars/032.png,bars/mask001.png,,,,,,,,,,,,0,2,,,,,,,4,0,4,0,,,,,,,,,,,2953.857,2954.356,2954.611,2957.157,space,2.519,,2957.157,42,33,2958.16,2958.16,2958.161,,,,0,45,45,45,1,125,20,,,,,,,,
,,60e00818b935a41dcfb1cccd,65af551fbe6af047326a98a8,2024-01-23_07h57.50.407,bars,2023.2.3,Win32,29.9940012,657b66ea316d21385b68909f,,,,,,,,,,,2958.161,2959.164,,,2959.659,2959.899,,173,173,,,,,,,,,,,,,,,,bars/040.png,bars/mask000.png,,,,,,,,,,,,1,2,,,,,,,6,2,4,2,,,,,,,,,,,2959.164,2959.659,2959.899,2962.265,space,2.351,,2962.265,33,12,2963.267,2963.267,2963.269,,,,0,46,46,46,1,140,5,,,,,,,,
,,60e00818b935a41dcfb1cccd,65af551fbe6af047326a98a8,2024-01-23_07h57.50.407,bars,2023.2.3,Win32,29.9940012,657b66ea316d21385b68909f,,,,,,,,,,,2963.269,2964.248,,,2964.745,2965.001,,69,249,,,,,,,,,,,,,,,,bars/027.png,bars/mask008.png,,,,,,,,,,,,1,2,,,,,,,4,4,4,4,,,,,,,,,,,2964.248,2964.744,2965.001,2969.1,space,4.088,,2969.1,41,19,2970.098,2970.098,2970.1,,,,0,47,47,47,1,110,50,,,,,,,,
,,60e00818b935a41dcfb1cccd,65af551fbe6af047326a98a8,2024-01-23_07h57.50.407,bars,2023.2.3,Win32,29.9940012,657b66ea316d21385b68909f,,,,,,,,,,,2970.1,2971.114,,,2971.617,2971.852,,25,205,,,,,,,,,,,,,,,,bars/031.png,bars/mask001.png,,,,,,,,,,,,3,2,,,,,,,6,6,7,5,,,,,,,,,,,2971.114,2971.617,2971.852,2975.439,space,3.572,,2975.439,85,10,2976.416,2976.416,2976.417,,,,0,48,48,48,1,120,35,,,,,,,,
,,60e00818b935a41dcfb1cccd,65af551fbe6af047326a98a8,2024-01-23_07h57.50.407,bars,2023.2.3,Win32,29.9940012,657b66ea316d21385b68909f,,,,,,,,,,,2976.417,2977.418,,,2977.919,2978.17,,154,-26,,,,,,,,,,,,,,,,bars/016.png,bars/mask000.png,,,,,,,,,,,,5,2,,,,,,,8,8,9,8,,,,,,,,,,,2977.418,2977.919,2978.17,2981.321,space,3.142,,2981.321,66,11,2982.328,2982.328,2982.333,,,,0,49,49,49,1,40,165,,,,,,,,
,,60e00818b935a41dcfb1cccd,65af551fbe6af047326a98a8,2024-01-23_07h57.50.407,bars,2023.2.3,Win32,29.9940012,657b66ea316d21385b68909f,,,,,,,,,,,,,,,,,,,,,,,,,,,,,,,,,,,,,,,,,,,,,,,,,,,,,,,,,,,,,,,,,,,,,,,,,,,,,,,,,,,,,,,,,,,,,2982.333,3042.331,0,2,2,1,1,sequence_tables/blk034.csv
,,60e00818b935a41dcfb1cccd,65af551fbe6af047326a98a8,2024-01-23_07h57.50.407,bars,2023.2.3,Win32,29.9940012,657b66ea316d21385b68909f,,,,,,,,,,,3135.417,3136.414,,,3136.913,3137.157,,117,117,,,,,,,,,,,,,,,,bars/028.png,bars/mask003.png,,,,,,,,,,,,2,2,,,,,,,10,2,9,2,,,,,,3042.333,3135.407,space,93.04,,3136.414,3136.913,3137.157,3139.341,space,2.164,,3139.341,72,3,3140.347,3140.347,3140.351,,,,0,0,0,0,1,45,120,,,,,,,,
,,60e00818b935a41dcfb1cccd,65af551fbe6af047326a98a8,2024-01-23_07h57.50.407,bars,2023.2.3,Win32,29.9940012,657b66ea316d21385b68909f,,,,,,,,,,,3140.351,3141.348,,,3141.847,3142.094,,96,96,,,,,,,,,,,,,,,,bars/002.png,bars/mask000.png,,,,,,,,,,,,0,2,,,,,,,8,0,8,0,,,,,,,,,,,3141.348,3141.847,3142.094,3146.852,space,4.741,,3146.852,34,11,3147.847,3147.847,3147.847,,,,0,1,1,1,1,130,85,,,,,,,,
,,60e00818b935a41dcfb1cccd,65af551fbe6af047326a98a8,2024-01-23_07h57.50.407,bars,2023.2.3,Win32,29.9940012,657b66ea316d21385b68909f,,,,,,,,,,,3147.848,3148.827,,,3149.33,3149.567,,64,64,,,,,,,,,,,,,,,,bars/027.png,bars/mask003.png,,,,,,,,,,,,1,2,,,,,,,6,2,4,2,,,,,,,,,,,3148.828,3149.33,3149.567,3152.614,space,3.037,,3152.614,46,14,3153.619,3153.619,3153.624,,,,0,2,2,2,1,110,50,,,,,,,,
,,60e00818b935a41dcfb1cccd,65af551fbe6af047326a98a8,2024-01-23_07h57.50.407,bars,2023.2.3,Win32,29.9940012,657b66ea316d21385b68909f,,,,,,,,,,,3153.625,3154.62,,,3155.121,3155.368,,30,30,,,,,,,,,,,,,,,,bars/031.png,bars/mask001.png,,,,,,,,,,,,1,2,,,,,,,8,0,6,1,,,,,,,,,,,3154.62,3155.121,3155.368,3157.703,space,2.316,,3157.703,90,5,3158.701,3158.702,3158.707,,,,0,3,3,3,1,120,35,,,,,,,,
,,60e00818b935a41dcfb1cccd,65af551fbe6af047326a98a8,2024-01-23_07h57.50.407,bars,2023.2.3,Win32,29.9940012,657b66ea316d21385b68909f,,,,,,,,,,,3158.708,3159.705,,,3160.206,3160.434,,136,136,,,,,,,,,,,,,,,,bars/003.png,bars/mask001.png,,,,,,,,,,,,1,2,,,,,,,6,2,8,1,,,,,,,,,,,3159.706,3160.206,3160.434,3163.236,space,2.781,,3163.236,69,4,3164.252,3164.252,3164.253,,,,0,4,4,4,1,25,140,,,,,,,,
,,60e00818b935a41dcfb1cccd,65af551fbe6af047326a98a8,2024-01-23_07h57.50.407,bars,2023.2.3,Win32,29.9940012,657b66ea316d21385b68909f,,,,,,,,,,,3164.254,3165.257,,,3165.758,3166.008,,164,164,,,,,,,,,,,,,,,,bars/008.png,bars/mask008.png,,,,,,,,,,,,0,2,,,,,,,4,0,6,0,,,,,,,,,,,3165.258,3165.758,3166.008,3170.941,space,4.918,,3170.941,54,16,3171.937,3171.937,3171.938,,,,0,5,5,5,1,110,0,,,,,,,,
,,60e00818b935a41dcfb1cccd,65af551fbe6af047326a98a8,2024-01-23_07h57.50.407,bars,2023.2.3,Win32,29.9940012,657b66ea316d21385b68909f,,,,,,,,,,,3171.938,3172.928,,,3173.424,3173.693,,24,204,,,,,,,,,,,,,,,,bars/035.png,bars/mask003.png,,,,,,,,,,,,0,1,,,,,,,2,0,2,1,,,,,,,,,,,3172.928,3173.424,3173.693,3176.082,space,2.369,,3176.082,29,36,3177.078,3177.078,3177.085,,,,0,6,6,6,1,175,60,,,,,,,,
,,60e00818b935a41dcfb1cccd,65af551fbe6af047326a98a8,2024-01-23_07h57.50.407,bars,2023.2.3,Win32,29.9940012,657b66ea316d21385b68909f,,,,,,,,,,,3177.085,3178.092,,,3178.596,3178.852,,125,-55,,,,,,,,,,,,,,,,bars/028.png,bars/mask006.png,,,,,,,,,,,,1,2,,,,,,,4,2,4,1,,,,,,,,,,,3178.092,3178.596,3178.853,3182.28,space,3.401,,3182.28,80,5,3183.269,3183.269,3183.274,,,,0,7,7,7,1,45,120,,,,,,,,
,,60e00818b935a41dcfb1cccd,65af551fbe6af047326a98a8,2024-01-23_07h57.50.407,bars,2023.2.3,Win32,29.9940012,657b66ea316d21385b68909f,,,,,,,,,,,3183.275,3184.266,,,3184.762,3185.014,,44,224,,,,,,,,,,,,,,,,bars/025.png,bars/mask000.png,,,,,,,,,,,,1,2,,,,,,,6,0,6,1,,,,,,,,,,,3184.266,3184.762,3185.014,3187.853,space,2.816,,3187.853,61,4,3188.862,3188.863,3188.864,,,,0,8,8,8,1,105,40,,,,,,,,
,,60e00818b935a41dcfb1cccd,65af551fbe6af047326a98a8,2024-01-23_07h57.50.407,bars,2023.2.3,Win32,29.9940012,657b66ea316d21385b68909f,,,,,,,,,,,3188.865,3189.868,,,3190.367,3190.633,,152,-28,,,,,,,,,,,,,,,,bars/044.png,bars/mask001.png,,,,,,,,,,,,2,2,,,,,,,4,2,5,2,,,,,,,,,,,3189.868,3190.367,3190.633,3194.115,space,3.453,,3194.115,77,3,3195.115,3195.115,3195.117,,,,0,9,9,9,1,75,155,,,,,,,,
,,60e00818b935a41dcfb1cccd,65af551fbe6af047326a98a8,2024-01-23_07h57.50.407,bars,2023.2.3,Win32,29.9940012,657b66ea316d21385b68909f,,,,,,,,,,,3195.117,3196.124,,,3196.619,3196.854,,21,21,,,,,,,,,,,,,,,,bars/010.png,bars/mask008.png,,,,,,,,,,,,0,2,,,,,,,2,0,2,0,,,,,,,,,,,3196.124,3196.619,3196.854,3199.558,space,2.695,,3199.558,36,34,3200.553,3200.554,3200.554,,,,0,10,10,10,1,165,55,,,,,,,,
,,60e00818b935a41dcfb1cccd,65af551fbe6af047326a98a8,2024-01-23_07h57.50.407,bars,2023.2.3,Win32,29.9940012,657b66ea316d21385b68909f,,,,,,,,,,,3200.555,3201.557,,,3202.058,3202.307,,135,135,,,,,,,,,,,,,,,,bars/004.png,bars/mask002.png,,,,,,,,,,,,3,2,,,,,,,0,2,1,4,,,,,,,,,,,3201.557,3202.058,3202.308,3204.46,space,2.122,,3204.461,70,10,3205.452,3205.452,3205.454,,,,0,11,11,11,1,25,125,,,,,,,,
,,60e00818b935a41dcfb1cccd,65af551fbe6af047326a98a8,2024-01-23_07h57.50.407,bars,2023.2.3,Win32,29.9940012,657b66ea316d21385b68909f,,,,,,,,,,,3205.454,3206.443,,,3206.938,3207.191,,79,79,,,,,,,,,,,,,,,,bars/001.png,bars/mask002.png,,,,,,,,,,,,0,2,,,,,,,2,0,2,0,,,,,,,,,,,3206.443,3206.938,3207.191,3209.862,space,2.661,,3209.862,51,6,3210.855,3210.855,3210.857,,,,0,12,12,12,1,130,85,,,,,,,,
,,60e00818b935a41dcfb1cccd,65af551fbe6af047326a98a8,2024-01-23_07h57.50.407,bars,2023.2.3,Win32,29.9940012,657b66ea316d21385b68909f,,,,,,,,,,,3210.857,3211.856,,,3212.358,3212.607,,128,128,,,,,,,,,,,,,,,,bars/023.png,bars/mask001.png,,,,,,,,,,,,1,2,,,,,,,0,2,1,1,,,,,,,,,,,3211.856,3212.358,3212.607,3215.771,space,3.156,,3215.771,72,13,3216.759,3216.759,3216.762,,,,0,13,13,13,1,20,115,,,,,,,,
,,60e00818b935a41dcfb1cccd,65af551fbe6af047326a98a8,2024-01-23_07h57.50.407,bars,2023.2.3,Win32,29.9940012,657b66ea316d21385b68909f,,,,,,,,,,,3216.762,3217.76,,,3218.25,3218.511,,45,45,,,,,,,,,,,,,,,,bars/019.png,bars/mask003.png,,,,,,,,,,,,1,1,,,,,,,2,0,1,0,,,,,,,,,,,3217.76,3218.25,3218.511,3222.878,space,4.358,,3222.878,0,60,3223.882,3223.882,3223.89,,,,0,14,14,14,1,45,105,,,,,,,,
,,60e00818b935a41dcfb1cccd,65af551fbe6af047326a98a8,2024-01-23_07h57.50.407,bars,2023.2.3,Win32,29.9940012,657b66ea316d21385b68909f,,,,,,,,,,,3223.891,3224.88,,,3225.383,3225.648,,150,150,,,,,,,,,,,,,,,,bars/036.png,bars/mask004.png,,,,,,,,,,,,3,1,,,,,,,4,2,4,3,,,,,,,,,,,3224.88,3225.383,3225.648,3229.114,space,3.455,,3229.114,5,50,3230.116,3230.116,3230.117,,,,0,15,15,15,1,145,20,,,,,,,,
,,60e00818b935a41dcfb1cccd,65af551fbe6af047326a98a8,2024-01-23_07h57.50.407,bars,2023.2.3,Win32,29.9940012,657b66ea316d21385b68909f,,,,,,,,,,,3230.117,3231.116,,,3231.6,3231.853,,137,137,,,,,,,,,,,,,,,,bars/037.png,bars/mask004.png,,,,,,,,,,,,1,1,,,,,,,2,4,2,3,,,,,,,,,,,3231.116,3231.6,3231.853,3234.836,space,2.956,,3234.836,13,32,3235.825,3235.825,3235.826,,,,0,16,16,16,1,150,105,,,,,,,,
,,60e00818b935a41dcfb1cccd,65af551fbe6af047326a98a8,2024-01-23_07h57.50.407,bars,2023.2.3,Win32,29.9940012,657b66ea316d21385b68909f,,,,,,,,,,,3235.826,3236.824,,,3237.318,3237.568,,140,140,,,,,,,,,,,,,,,,bars/031.png,bars/mask006.png,,,,,,,,,,,,2,1,,,,,,,4,2,7,4,,,,,,,,,,,3236.824,3237.318,3237.568,3241.586,space,4.001,,3241.586,20,75,3242.587,3242.587,3242.588,,,,0,17,17,17,1,120,35,,,,,,,,
,,60e00818b935a41dcfb1cccd,65af551fbe6af047326a98a8,2024-01-23_07h57.50.407,bars,2023.2.3,Win32,29.9940012,657b66ea316d21385b68909f,,,,,,,,,,,3242.588,3243.587,,,3244.089,3244.321,,139,-41,,,,,,,,,,,,,,,,bars/036.png,bars/mask006.png,,,,,,,,,,,,5,1,,,,,,,6,4,6,4,,,,,,,,,,,3243.587,3244.089,3244.321,3247.514,space,3.186,,3247.514,6,61,3248.507,3248.507,3248.509,,,,0,18,18,18,1,145,20,,,,,,,,
,,60e00818b935a41dcfb1cccd,65af551fbe6af047326a98a8,2024-01-23_07h57.50.407,bars,2023.2.3,Win32,29.9940012,657b66ea316d21385b68909f,,,,,,,,,,,3248.509,3249.51,,,3249.997,3250.243,,120,120,,,,,,,,,,,,,,,,bars/008.png,bars/mask000.png,,,,,,,,,,,,1,1,,,,,,,4,6,1,6,,,,,,,,,,,3249.51,3249.997,3250.243,3252.95,space,2.686,,3252.95,10,60,3253.941,3253.941,3253.942,,,,0,19,19,19,1,110,0,,,,,,,,
,,60e00818b935a41dcfb1cccd,65af551fbe6af047326a98a8,2024-01-23_07h57.50.407,bars,2023.2.3,Win32,29.9940012,657b66ea316d21385b68909f,,,,,,,,,,,3253.943,3254.946,,,3255.446,3255.7,,129,129,,,,,,,,,,,,,,,,bars/042.png,bars/mask008.png,,,,,,,,,,,,2,1,,,,,,,6,4,5,5,,,,,,,,,,,3254.946,3255.446,3255.7,3258.629,space,2.906,,3258.629,16,54,3259.628,3259.628,3259.629,,,,0,20,20,20,1,145,75,,,,,,,,
,,60e00818b935a41dcfb1cccd,65af551fbe6af047326a98a8,2024-01-23_07h57.50.407,bars,2023.2.3,Win32,29.9940012,657b66ea316d21385b68909f,,,,,,,,,,,3259.629,3260.606,,,3261.091,3261.32,,138,138,,,,,,,,,,,,,,,,bars/046.png,bars/mask007.png,,,,,,,,,,,,3,1,,,,,,,8,2,8,3,,,,,,,,,,,3260.606,3261.091,3261.32,3262.752,space,1.417,,3262.752,17,53,3263.753,3263.753,3263.756,,,,0,21,21,21,1,155,85,,,,,,,,
,,60e00818b935a41dcfb1cccd,65af551fbe6af047326a98a8,2024-01-23_07h57.50.407,bars,2023.2.3,Win32,29.9940012,657b66ea316d21385b68909f,,,,,,,,,,,3263.756,3264.75,,,3265.236,3265.461,,167,167,,,,,,,,,,,,,,,,bars/049.png,bars/mask008.png,,,,,,,,,,,,5,1,,,,,,,6,4,6,5,,,,,,,,,,,3264.75,3265.236,3265.461,3267.9,space,2.429,,3267.9,7,52,3268.9,3268.9,3268.901,,,,0,22,22,22,1,160,115,,,,,,,,
,,60e00818b935a41dcfb1cccd,65af551fbe6af047326a98a8,2024-01-23_07h57.50.407,bars,2023.2.3,Win32,29.9940012,657b66ea316d21385b68909f,,,,,,,,,,,3268.901,3269.89,,,3270.389,3270.638,,149,149,,,,,,,,,,,,,,,,bars/042.png,bars/mask003.png,,,,,,,,,,,,6,1,,,,,,,8,2,7,0,,,,,,,,,,,3269.89,3270.389,3270.639,3275.092,space,4.423,,3275.092,4,74,3276.086,3276.086,3276.092,,,,0,23,23,23,1,145,75,,,,,,,,
,,60e00818b935a41dcfb1cccd,65af551fbe6af047326a98a8,2024-01-23_07h57.50.407,bars,2023.2.3,Win32,29.9940012,657b66ea316d21385b68909f,,,,,,,,,,,3276.093,3277.074,,,3277.586,3277.839,,133,133,,,,,,,,,,,,,,,,bars/040.png,bars/mask009.png,,,,,,,,,,,,5,1,,,,,,,6,0,7,0,,,,,,,,,,,3277.074,3277.586,3277.839,3280.074,space,2.209,,3280.074,7,52,3281.073,3281.073,3281.074,,,,0,24,24,24,1,140,5,,,,,,,,
,,60e00818b935a41dcfb1cccd,65af551fbe6af047326a98a8,2024-01-23_07h57.50.407,bars,2023.2.3,Win32,29.9940012,657b66ea316d21385b68909f,,,,,,,,,,,3281.074,3282.089,,,3282.594,3282.841,,114,114,,,,,,,,,,,,,,,,bars/008.png,bars/mask002.png,,,,,,,,,,,,4,1,,,,,,,4,0,5,1,,,,,,,,,,,3282.089,3282.594,3282.841,3286.269,space,3.41,,3286.27,4,66,3287.263,3287.263,3287.266,,,,0,25,25,25,1,110,0,,,,,,,,
,,60e00818b935a41dcfb1cccd,65af551fbe6af047326a98a8,2024-01-23_07h57.50.407,bars,2023.2.3,Win32,29.9940012,657b66ea316d21385b68909f,,,,,,,,,,,3287.266,3288.275,,,3288.781,3289.027,,111,111,,,,,,,,,,,,,,,,bars/025.png,bars/mask005.png,,,,,,,,,,,,6,1,,,,,,,6,2,7,2,,,,,,,,,,,3288.275,3288.781,3289.027,3293.049,space,4.004,,3293.049,6,71,3294.049,3294.049,3294.051,,,,0,26,26,26,1,105,40,,,,,,,,
,,60e00818b935a41dcfb1cccd,65af551fbe6af047326a98a8,2024-01-23_07h57.50.407,bars,2023.2.3,Win32,29.9940012,657b66ea316d21385b68909f,,,,,,,,,,,3294.052,3295.05,,,3295.55,3295.794,,58,58,,,,,,,,,,,,,,,,bars/012.png,bars/mask000.png,,,,,,,,,,,,0,1,,,,,,,8,0,8,0,,,,,,,,,,,3295.05,3295.55,3295.794,3298.399,space,2.579,,3298.399,32,43,3299.412,3299.412,3299.413,,,,0,27,27,27,1,90,15,,,,,,,,
,,60e00818b935a41dcfb1cccd,65af551fbe6af047326a98a8,2024-01-23_07h57.50.407,bars,2023.2.3,Win32,29.9940012,657b66ea316d21385b68909f,,,,,,,,,,,3299.414,3300.404,,,3300.897,3301.136,,8,8,,,,,,,,,,,,,,,,bars/003.png,bars/mask006.png,,,,,,,,,,,,3,1,,,,,,,6,2,7,0,,,,,,,,,,,3300.404,3300.897,3301.136,3304.472,space,3.32,,3304.472,17,48,3305.48,3305.48,3305.483,,,,0,28,28,28,1,25,140,,,,,,,,
,,60e00818b935a41dcfb1cccd,65af551fbe6af047326a98a8,2024-01-23_07h57.50.407,bars,2023.2.3,Win32,29.9940012,657b66ea316d21385b68909f,,,,,,,,,,,3305.484,3306.465,,,3306.954,3307.203,,22,202,,,,,,,,,,,,,,,,bars/023.png,bars/mask002.png,,,,,,,,,,,,7,1,,,,,,,8,4,7,4,,,,,,,,,,,3306.465,3306.954,3307.203,3310.308,space,3.091,,3310.308,2,87,3311.317,3311.317,3311.318,,,,0,29,29,29,1,20,115,,,,,,,,
,,60e00818b935a41dcfb1cccd,65af551fbe6af047326a98a8,2024-01-23_07h57.50.407,bars,2023.2.3,Win32,29.9940012,657b66ea316d21385b68909f,,,,,,,,,,,3311.319,3312.319,,,3312.825,3313.064,,97,97,,,,,,,,,,,,,,,,bars/044.png,bars/mask003.png,,,,,,,,,,,,3,1,,,,,,,10,6,10,6,,,,,,,,,,,3312.319,3312.824,3313.064,3315.956,space,2.869,,3315.957,22,58,3316.961,3316.961,3316.963,,,,0,30,30,30,1,75,155,,,,,,,,
,,60e00818b935a41dcfb1cccd,65af551fbe6af047326a98a8,2024-01-23_07h57.50.407,bars,2023.2.3,Win32,29.9940012,657b66ea316d21385b68909f,,,,,,,,,,,3316.963,3317.96,,,3318.461,3318.709,,112,112,,,,,,,,,,,,,,,,bars/008.png,bars/mask002.png,,,,,,,,,,,,9,1,,,,,,,10,8,10,9,,,,,,,,,,,3317.961,3318.461,3318.709,3321.744,space,3.021,,3321.746,2,68,3322.741,3322.741,3322.742,,,,0,31,31,31,1,110,0,,,,,,,,
,,60e00818b935a41dcfb1cccd,65af551fbe6af047326a98a8,2024-01-23_07h57.50.407,bars,2023.2.3,Win32,29.9940012,657b66ea316d21385b68909f,,,,,,,,,,,3322.742,3323.73,,,3324.23,3324.478,,117,117,,,,,,,,,,,,,,,,bars/027.png,bars/mask006.png,,,,,,,,,,,,7,1,,,,,,,10,10,9,9,,,,,,,,,,,3323.73,3324.229,3324.478,3326.054,space,1.562,,3326.055,7,67,3327.048,3327.048,3327.051,,,,0,32,32,32,1,110,50,,,,,,,,
,,60e00818b935a41dcfb1cccd,65af551fbe6af047326a98a8,2024-01-23_07h57.50.407,bars,2023.2.3,Win32,29.9940012,657b66ea316d21385b68909f,,,,,,,,,,,3327.051,3328.049,,,3328.558,3328.81,,163,-17,,,,,,,,,,,,,,,,bars/035.png,bars/mask001.png,,,,,,,,,,,,5,1,,,,,,,8,10,9,10,,,,,,,,,,,3328.049,3328.558,3328.81,3332.178,space,3.361,,3332.178,12,77,3333.167,3333.167,3333.171,,,,0,33,33,33,1,175,60,,,,,,,,
,,60e00818b935a41dcfb1cccd,65af551fbe6af047326a98a8,2024-01-23_07h57.50.407,bars,2023.2.3,Win32,29.9940012,657b66ea316d21385b68909f,,,,,,,,,,,3333.171,3334.163,,,3334.68,3334.918,,166,-14,,,,,,,,,,,,,,,,bars/007.png,bars/mask007.png,,,,,,,,,,,,7,1,,,,,,,10,8,10,8,,,,,,,,,,,3334.163,3334.679,3334.918,3338.921,space,3.983,,3338.921,9,69,3339.934,3339.934,3339.938,,,,0,34,34,34,1,175,55,,,,,,,,
,,60e00818b935a41dcfb1cccd,65af551fbe6af047326a98a8,2024-01-23_07h57.50.407,bars,2023.2.3,Win32,29.9940012,657b66ea316d21385b68909f,,,,,,,,,,,3339.939,3340.939,,,3341.434,3341.7,,97,97,,,,,,,,,,,,,,,,bars/022.png,bars/mask007.png,,,,,,,,,,,,9,1,,,,,,,10,6,10,7,,,,,,,,,,,3340.939,3341.434,3341.7,3345.92,space,4.196,,3345.92,2,77,3346.921,3346.921,3346.924,,,,0,35,35,35,1,95,20,,,,,,,,
,,60e00818b935a41dcfb1cccd,65af551fbe6af047326a98a8,2024-01-23_07h57.50.407,bars,2023.2.3,Win32,29.9940012,657b66ea316d21385b68909f,,,,,,,,,,,3346.926,3347.934,,,3348.424,3348.687,,6,186,,,,,,,,,,,,,,,,bars/009.png,bars/mask006.png,,,,,,,,,,,,6,1,,,,,,,8,8,8,6,,,,,,,,,,,3347.934,3348.424,3348.687,3352.754,space,4.057,,3352.754,9,81,3353.759,3353.759,3353.763,,,,0,36,36,36,1,15,105,,,,,,,,
,,60e00818b935a41dcfb1cccd,65af551fbe6af047326a98a8,2024-01-23_07h57.50.407,bars,2023.2.3,Win32,29.9940012,657b66ea316d21385b68909f,,,,,,,,,,,3353.763,3354.758,,,3355.244,3355.491,,111,111,,,,,,,,,,,,,,,,bars/025.png,bars/mask003.png,,,,,,,,,,,,7,1,,,,,,,10,10,9,10,,,,,,,,,,,3354.758,3355.244,3355.491,3358.479,space,2.98,,3358.48,6,71,3359.476,3359.476,3359.479,,,,0,37,37,37,1,105,40,,,,,,,,
,,60e00818b935a41dcfb1cccd,65af551fbe6af047326a98a8,2024-01-23_07h57.50.407,bars,2023.2.3,Win32,29.9940012,657b66ea316d21385b68909f,,,,,,,,,,,3359.48,3360.446,,,3360.957,3361.197,,13,193,,,,,,,,,,,,,,,,bars/035.png,bars/mask005.png,,,,,,,,,,,,3,1,,,,,,,10,10,8,10,,,,,,,,,,,3360.446,3360.957,3361.197,3366.235,space,5.022,,3366.235,18,47,3367.233,3367.233,3367.238,,,,0,38,38,38,1,175,60,,,,,,,,
,,60e00818b935a41dcfb1cccd,65af551fbe6af047326a98a8,2024-01-23_07h57.50.407,bars,2023.2.3,Win32,29.9940012,657b66ea316d21385b68909f,,,,,,,,,,,3367.238,3368.217,,,3368.718,3368.966,,148,148,,,,,,,,,,,,,,,,bars/017.png,bars/mask007.png,,,,,,,,,,,,7,1,,,,,,,10,10,8,9,,,,,,,,,,,3368.218,3368.718,3368.966,3371.568,space,2.585,,3371.568,3,77,3372.58,3372.58,3372.582,,,,0,39,39,39,1,145,45,,,,,,,,
,,60e00818b935a41dcfb1cccd,65af551fbe6af047326a98a8,2024-01-23_07h57.50.407,bars,2023.2.3,Win32,29.9940012,657b66ea316d21385b68909f,,,,,,,,,,,3372.582,3373.579,,,3374.071,3374.32,,111,111,,,,,,,,,,,,,,,,bars/002.png,bars/mask001.png,,,,,,,,,,,,4,1,,,,,,,8,10,10,10,,,,,,,,,,,3373.579,3374.071,3374.32,3376.829,space,2.497,,3376.829,19,26,3377.818,3377.818,3377.824,,,,0,40,40,40,1,130,85,,,,,,,,
,,60e00818b935a41dcfb1cccd,65af551fbe6af047326a98a8,2024-01-23_07h57.50.407,bars,2023.2.3,Win32,29.9940012,657b66ea316d21385b68909f,,,,,,,,,,,3377.825,3378.815,,,3379.318,3379.582,,14,194,,,,,,,,,,,,,,,,bars/043.png,bars/mask003.png,,,,,,,,,,,,5,1,,,,,,,10,10,10,10,,,,,,,,,,,3378.815,3379.318,3379.582,3382.651,space,3.054,,3382.651,16,64,3383.651,3383.651,3383.653,,,,0,41,41,41,1,30,130,,,,,,,,
,,60e00818b935a41dcfb1cccd,65af551fbe6af047326a98a8,2024-01-23_07h57.50.407,bars,2023.2.3,Win32,29.9940012,657b66ea316d21385b68909f,,,,,,,,,,,3383.653,3384.652,,,3385.131,3385.378,,60,60,,,,,,,,,,,,,,,,bars/031.png,bars/mask003.png,,,,,,,,,,,,2,2,,,,,,,10,10,9,10,,,,,,,,,,,3384.652,3385.131,3385.378,3389.312,space,3.925,,3389.312,60,25,3390.313,3390.313,3390.317,,,,0,42,42,42,1,120,35,,,,,,,,
,,60e00818b935a41dcfb1cccd,65af551fbe6af047326a98a8,2024-01-23_07h57.50.407,bars,2023.2.3,Win32,29.9940012,657b66ea316d21385b68909f,,,,,,,,,,,3390.318,3391.307,,,3391.825,3392.063,,156,-24,,,,,,,,,,,,,,,,bars/046.png,bars/mask002.png,,,,,,,,,,,,8,1,,,,,,,8,10,8,10,,,,,,,,,,,3391.307,3391.825,3392.063,3394.712,space,2.635,,3394.712,1,71,3395.715,3395.715,3395.723,,,,0,43,43,43,1,155,85,,,,,,,,
,,60e00818b935a41dcfb1cccd,65af551fbe6af047326a98a8,2024-01-23_07h57.50.407,bars,2023.2.3,Win32,29.9940012,657b66ea316d21385b68909f,,,,,,,,,,,3395.724,3396.713,,,3397.195,3397.441,,77,77,,,,,,,,,,,,,,,,bars/044.png,bars/mask001.png,,,,,,,,,,,,6,1,,,,,,,6,8,6,9,,,,,,,,,,,3396.713,3397.195,3397.441,3400.298,space,2.841,,3400.298,2,78,3401.292,3401.292,3401.294,,,,0,44,44,44,1,75,155,,,,,,,,
,,60e00818b935a41dcfb1cccd,65af551fbe6af047326a98a8,2024-01-23_07h57.50.407,bars,2023.2.3,Win32,29.9940012,657b66ea316d21385b68909f,,,,,,,,,,,3401.294,3402.298,,,3402.799,3403.027,,30,30,,,,,,,,,,,,,,,,bars/007.png,bars/mask004.png,,,,,,,,,,,,1,2,,,,,,,4,6,3,7,,,,,,,,,,,3402.298,3402.799,3403.027,3404.878,space,1.832,,3404.878,35,25,3405.867,3405.867,3405.872,,,,0,45,45,45,1,175,55,,,,,,,,
,,60e00818b935a41dcfb1cccd,65af551fbe6af047326a98a8,2024-01-23_07h57.50.407,bars,2023.2.3,Win32,29.9940012,657b66ea316d21385b68909f,,,,,,,,,,,3405.872,3406.864,,,3407.367,3407.629,,37,37,,,,,,,,,,,,,,,,bars/028.png,bars/mask000.png,,,,,,,,,,,,4,1,,,,,,,6,4,5,4,,,,,,,,,,,3406.864,3407.367,3407.629,3411.247,space,3.601,,3411.247,8,83,3412.237,3412.237,3412.241,,,,0,46,46,46,1,45,120,,,,,,,,
,,60e00818b935a41dcfb1cccd,65af551fbe6af047326a98a8,2024-01-23_07h57.50.407,bars,2023.2.3,Win32,29.9940012,657b66ea316d21385b68909f,,,,,,,,,,,3412.242,3413.224,,,3413.72,3413.968,,30,30,,,,,,,,,,,,,,,,bars/019.png,bars/mask005.png,,,,,,,,,,,,4,1,,,,,,,8,2,7,1,,,,,,,,,,,3413.224,3413.72,3413.968,3416.338,space,2.352,,3416.338,15,75,3417.322,3417.322,3417.324,,,,0,47,47,47,1,45,105,,,,,,,,
,,60e00818b935a41dcfb1cccd,65af551fbe6af047326a98a8,2024-01-23_07h57.50.407,bars,2023.2.3,Win32,29.9940012,657b66ea316d21385b68909f,,,,,,,,,,,3417.324,3418.339,,,3418.85,3419.085,,126,126,,,,,,,,,,,,,,,,bars/024.png,bars/mask002.png,,,,,,,,,,,,5,1,,,,,,,6,4,6,4,,,,,,,,,,,3418.339,3418.85,3419.085,3423.418,space,4.306,,3423.418,6,44,3424.418,3424.418,3424.419,,,,0,48,48,48,1,120,170,,,,,,,,
,,60e00818b935a41dcfb1cccd,65af551fbe6af047326a98a8,2024-01-23_07h57.50.407,bars,2023.2.3,Win32,29.9940012,657b66ea316d21385b68909f,,,,,,,,,,,3424.419,3425.41,,,3425.903,3426.16,,149,149,,,,,,,,,,,,,,,,bars/049.png,bars/mask005.png,,,,,,,,,,,,3,1,,,,,,,4,6,4,5,,,,,,,,,,,3425.41,3425.903,3426.16,3428.505,space,2.328,,3428.505,11,34,3429.506,3429.506,3429.507,,,,0,49,49,49,1,160,115,,,,,,,,
,,60e00818b935a41dcfb1cccd,65af551fbe6af047326a98a8,2024-01-23_07h57.50.407,bars,2023.2.3,Win32,29.9940012,657b66ea316d21385b68909f,,,,,,,,,,,,,,,,,,,,,,,,,,,,,,,,,,,,,,,,,,,,,,,,,,,,,,,,,,,,,,,,,,,,,,,,,,,,,,,,,,,,,,,,,,,,,3429.508,3489.502,0,3,3,4,1,sequence_tables/blk033.csv
,,60e00818b935a41dcfb1cccd,65af551fbe6af047326a98a8,2024-01-23_07h57.50.407,bars,2023.2.3,Win32,29.9940012,657b66ea316d21385b68909f,,,,,,,,,,,4060.824,4061.806,,,4062.307,4062.558,,157,157,,,,,,,,,,,,,,,,bars/015.png,bars/mask001.png,,,,,,,,,,,,5,2,,,,,,,7,5,7,6,,,,,,3489.507,4060.782,space,571.264,,4061.806,4062.307,4062.558,4066.412,space,3.844,,4066.412,47,3,4067.411,4067.411,4067.419,,,,0,0,0,0,1,110,160,,,,,,,,
,,60e00818b935a41dcfb1cccd,65af551fbe6af047326a98a8,2024-01-23_07h57.50.407,bars,2023.2.3,Win32,29.9940012,657b66ea316d21385b68909f,,,,,,,,,,,4067.419,4068.417,,,4068.917,4069.166,,20,20,,,,,,,,,,,,,,,,bars/000.png,bars/mask009.png,,,,,,,,,,,,3,1,,,,,,,9,3,10,2,,,,,,,,,,,4068.417,4068.917,4069.166,4072.584,space,3.401,,4072.584,20,55,4073.585,4073.585,4073.589,,,,0,1,1,1,1,40,145,,,,,,,,
,,60e00818b935a41dcfb1cccd,65af551fbe6af047326a98a8,2024-01-23_07h57.50.407,bars,2023.2.3,Win32,29.9940012,657b66ea316d21385b68909f,,,,,,,,,,,4073.589,4074.583,,,4075.066,4075.316,,47,47,,,,,,,,,,,,,,,,bars/043.png,bars/mask003.png,,,,,,,,,,,,3,1,,,,,,,7,1,6,2,,,,,,,,,,,4074.583,4075.065,4075.316,4081.589,space,6.258,,4081.589,17,83,4082.567,4082.567,4082.57,,,,0,2,2,2,1,30,130,,,,,,,,
,,60e00818b935a41dcfb1cccd,65af551fbe6af047326a98a8,2024-01-23_07h57.50.407,bars,2023.2.3,Win32,29.9940012,657b66ea316d21385b68909f,,,,,,,,,,,4082.57,4083.575,,,4084.071,4084.305,,140,140,,,,,,,,,,,,,,,,bars/042.png,bars/mask001.png,,,,,,,,,,,,4,1,,,,,,,5,3,5,2,,,,,,,,,,,4083.575,4084.071,4084.305,4086.651,space,2.317,,4086.651,5,65,4087.656,4087.656,4087.66,,,,0,3,3,3,1,145,75,,,,,,,,
,,60e00818b935a41dcfb1cccd,65af551fbe6af047326a98a8,2024-01-23_07h57.50.407,bars,2023.2.3,Win32,29.9940012,657b66ea316d21385b68909f,,,,,,,,,,,4087.661,4088.636,,,4089.136,4089.369,,136,136,,,,,,,,,,,,,,,,bars/042.png,bars/mask002.png,,,,,,,,,,,,4,1,,,,,,,7,1,6,2,,,,,,,,,,,4088.636,4089.136,4089.369,4092.577,space,3.204,,4092.577,9,61,4093.554,4093.554,4093.555,,,,0,4,4,4,1,145,75,,,,,,,,
,,60e00818b935a41dcfb1cccd,65af551fbe6af047326a98a8,2024-01-23_07h57.50.407,bars,2023.2.3,Win32,29.9940012,657b66ea316d21385b68909f,,,,,,,,,,,4093.555,4094.545,,,4095.04,4095.273,,104,104,,,,,,,,,,,,,,,,bars/029.png,bars/mask004.png,,,,,,,,,,,,3,1,,,,,,,5,0,5,0,,,,,,,,,,,4094.545,4095.04,4095.273,4098.108,space,2.818,,4098.108,14,59,4099.11,4099.11,4099.116,,,,0,5,5,5,1,90,45,,,,,,,,
,,60e00818b935a41dcfb1cccd,65af551fbe6af047326a98a8,2024-01-23_07h57.50.407,bars,2023.2.3,Win32,29.9940012,657b66ea316d21385b68909f,,,,,,,,,,,4099.116,4100.114,,,4100.624,4100.858,,127,127,,,,,,,,,,,,,,,,bars/045.png,bars/mask004.png,,,,,,,,,,,,1,1,,,,,,,7,2,8,3,,,,,,,,,,,4100.114,4100.624,4100.858,4105.548,space,4.685,,4105.549,27,63,4106.525,4106.525,4106.527,,,,0,6,6,6,1,100,10,,,,,,,,
,,60e00818b935a41dcfb1cccd,65af551fbe6af047326a98a8,2024-01-23_07h57.50.407,bars,2023.2.3,Win32,29.9940012,657b66ea316d21385b68909f,,,,,,,,,,,4106.527,4107.53,,,4108.045,4108.276,,90,90,,,,,,,,,,,,,,,,bars/044.png,bars/mask000.png,,,,,,,,,,,,5,1,,,,,,,9,0,10,1,,,,,,,,,,,4107.53,4108.045,4108.276,4110.696,space,2.402,,4110.696,15,65,4111.695,4111.695,4111.698,,,,0,7,7,7,1,75,155,,,,,,,,
,,60e00818b935a41dcfb1cccd,65af551fbe6af047326a98a8,2024-01-23_07h57.50.407,bars,2023.2.3,Win32,29.9940012,657b66ea316d21385b68909f,,,,,,,,,,,4111.699,4112.699,,,4113.203,4113.445,,94,94,,,,,,,,,,,,,,,,bars/012.png,bars/mask009.png,,,,,,,,,,,,5,1,,,,,,,7,0,6,0,,,,,,,,,,,4112.699,4113.203,4113.445,4115.968,space,2.5,,4115.968,4,79,4116.947,4116.947,4116.949,,,,0,8,8,8,1,90,15,,,,,,,,
,,60e00818b935a41dcfb1cccd,65af551fbe6af047326a98a8,2024-01-23_07h57.50.407,bars,2023.2.3,Win32,29.9940012,657b66ea316d21385b68909f,,,,,,,,,,,4116.949,4117.938,,,4118.435,4118.671,,97,97,,,,,,,,,,,,,,,,bars/029.png,bars/mask004.png,,,,,,,,,,,,3,1,,,,,,,5,2,4,1,,,,,,,,,,,4117.938,4118.435,4118.671,4122.068,space,3.387,,4122.068,7,52,4123.057,4123.057,4123.061,,,,0,9,9,9,1,90,45,,,,,,,,
,,60e00818b935a41dcfb1cccd,65af551fbe6af047326a98a8,2024-01-23_07h57.50.407,bars,2023.2.3,Win32,29.9940012,657b66ea316d21385b68909f,,,,,,,,,,,4123.062,4124.057,,,4124.567,4124.817,,119,119,,,,,,,,,,,,,,,,bars/037.png,bars/mask001.png,,,,,,,,,,,,0,2,,,,,,,3,0,4,0,,,,,,,,,,,4124.057,4124.567,4124.817,4129.008,space,4.184,,4129.008,31,14,4129.986,4129.986,4129.989,,,,0,10,10,10,1,150,105,,,,,,,,
,,60e00818b935a41dcfb1cccd,65af551fbe6af047326a98a8,2024-01-23_07h57.50.407,bars,2023.2.3,Win32,29.9940012,657b66ea316d21385b68909f,,,,,,,,,,,4129.989,4130.991,,,4131.496,4131.75,,23,23,,,,,,,,,,,,,,,,bars/041.png,bars/mask003.png,,,,,,,,,,,,1,1,,,,,,,1,0,1,0,,,,,,,,,,,4130.991,4131.496,4131.75,4135.03,space,3.274,,4135.03,3,62,4136.027,4136.027,4136.032,,,,0,11,11,11,1,20,85,,,,,,,,
,,60e00818b935a41dcfb1cccd,65af551fbe6af047326a98a8,2024-01-23_07h57.50.407,bars,2023.2.3,Win32,29.9940012,657b66ea316d21385b68909f,,,,,,,,,,,4136.033,4137.027,,,4137.53,4137.775,,126,-54,,,,,,,,,,,,,,,,bars/027.png,bars/mask001.png,,,,,,,,,,,,1,1,,,,,,,3,0,3,0,,,,,,,,,,,4137.027,4137.53,4137.775,4141.075,space,3.274,,4141.075,16,76,4142.076,4142.076,4142.079,,,,0,12,12,12,1,110,50,,,,,,,,
,,60e00818b935a41dcfb1cccd,65af551fbe6af047326a98a8,2024-01-23_07h57.50.407,bars,2023.2.3,Win32,29.9940012,657b66ea316d21385b68909f,,,,,,,,,,,4142.08,4143.094,,,4143.594,4143.844,,119,119,,,,,,,,,,,,,,,,bars/008.png,bars/mask007.png,,,,,,,,,,,,3,1,,,,,,,5,0,4,0,,,,,,,,,,,4143.094,4143.594,4143.844,4147.448,space,3.598,,4147.448,9,61,4148.462,4148.463,4148.464,,,,0,13,13,13,1,110,0,,,,,,,,
,,60e00818b935a41dcfb1cccd,65af551fbe6af047326a98a8,2024-01-23_07h57.50.407,bars,2023.2.3,Win32,29.9940012,657b66ea316d21385b68909f,,,,,,,,,,,4148.464,4149.469,,,4149.964,4150.219,,14,14,,,,,,,,,,,,,,,,bars/003.png,bars/mask001.png,,,,,,,,,,,,2,1,,,,,,,3,0,3,2,,,,,,,,,,,4149.469,4149.964,4150.219,4152.254,space,2.019,,4152.255,11,54,4153.25,4153.25,4153.252,,,,0,14,14,14,1,25,140,,,,,,,,
,,60e00818b935a41dcfb1cccd,65af551fbe6af047326a98a8,2024-01-23_07h57.50.407,bars,2023.2.3,Win32,29.9940012,657b66ea316d21385b68909f,,,,,,,,,,,4153.252,4154.252,,,4154.75,4155,,17,197,,,,,,,,,,,,,,,,bars/007.png,bars/mask004.png,,,,,,,,,,,,1,1,,,,,,,5,2,4,3,,,,,,,,,,,4154.252,4154.75,4155,4158.752,space,3.729,,4158.752,22,38,4159.769,4159.769,4159.77,,,,0,15,15,15,1,175,55,,,,,,,,
,,60e00818b935a41dcfb1cccd,65af551fbe6af047326a98a8,2024-01-23_07h57.50.407,bars,2023.2.3,Win32,29.9940012,657b66ea316d21385b68909f,,,,,,,,,,,4159.77,4160.771,,,4161.251,4161.492,,157,-23,,,,,,,,,,,,,,,,bars/049.png,bars/mask008.png,,,,,,,,,,,,7,1,,,,,,,7,4,8,3,,,,,,,,,,,4160.771,4161.251,4161.492,4165.742,space,4.244,,4165.742,3,42,4166.756,4166.756,4166.757,,,,0,16,16,16,1,160,115,,,,,,,,
,,60e00818b935a41dcfb1cccd,65af551fbe6af047326a98a8,2024-01-23_07h57.50.407,bars,2023.2.3,Win32,29.9940012,657b66ea316d21385b68909f,,,,,,,,,,,4166.757,4167.738,,,4168.248,4168.476,,141,141,,,,,,,,,,,,,,,,bars/021.png,bars/mask002.png,,,,,,,,,,,,5,1,,,,,,,9,2,9,3,,,,,,,,,,,4167.738,4168.248,4168.476,4169.874,space,1.377,,4169.874,14,71,4170.877,4170.877,4170.882,,,,0,17,17,17,1,155,70,,,,,,,,
