init_variables.started,init_variables.stopped,participant,session,date,expName,psychopyVersion,OS,frameRate,study_id,instruction_exp.started,instruction_exp.stopped,key_resp_8.keys,key_resp_8.rt,key_resp_8.duration,instruction_single.started,instruction_single.stopped,key_resp_2.keys,key_resp_2.rt,key_resp_2.duration,interval.started,interval.stopped,cue_single.started,cue_single.stopped,mask.started,mask.stopped,ori_response_single.started,res_ori,res,ori_response_single.stopped,key_resp_single.keys,key_resp_single.rt,key_resp_single.duration,disp_single.started,disp_single.stopped,key_resp.keys,key_resp.rt,key_resp.duration,single.thisRepN,single.thisTrialN,single.thisN,single.thisIndex,single.ran,ori,path,mask_path,instruction_bandit.started,instruction_bandit.stopped,key_resp_6.keys,key_resp_6.rt,key_resp_6.duration,cue_bandit.started,cue_bandit.stopped,bandit_res.keys,bandit_res.rt,bandit_res.duration,outcome_bandit.started,rew,action,outcome_bandit.stopped,bandit.thisRepN,bandit.thisTrialN,bandit.thisN,bandit.thisIndex,bandit.ran,actual_rew1,actual_rew2,rew1,rew2,instruction_task.started,instruction_task.stopped,key_resp_7.keys,key_resp_7.rt,key_resp_7.duration,wait_ready.started,wait_ready.stopped,key_resp_3.keys,key_resp_3.rt,key_resp_3.duration,cue.started,cue.stopped,ori_response.started,ori_response.stopped,key_resp_5.keys,key_resp_5.rt,key_resp_5.duration,outcome.started,diff1,diff2,outcome.stopped,disp_outcome_practice.started,disp_outcome_practice.stopped,key_resp_4.keys,key_resp_4.rt,key_resp_4.duration,trials.thisRepN,trials.thisTrialN,trials.thisN,trials.thisIndex,trials.ran,ori1,ori2,break_blk.started,break_blk.stopped,block.thisRepN,block.thisTrialN,block.thisN,block.thisIndex,block.ran,condition_file
0.0007,0.0008,615ca96d7640b6c31b9e4462,65af5493ac39215515c25326,2024-01-22_23h58.05.364,bars,2023.2.3,Win32,10,657b66ea316d21385b68909f,,,,,,,,,,,,,,,,,,,,,,,,,,,,,,,,,,,,,,,,,,,,,,,,,,,,,,,,,,,,,,,,,,,,,,,,,,,,,,,,,,,,,,,,,,,,,,,,,,,,
,,615ca96d7640b6c31b9e4462,65af5493ac39215515c25326,2024-01-22_23h58.05.364,bars,2023.2.3,Win32,10,657b66ea316d21385b68909f,0.001,97.571,y,97.4625,,,,,,,,,,,,,,,,,,,,,,,,,,,,,,,,,,,,,,,,,,,,,,,,,,,,,,,,,,,,,,,,,,,,,,,,,,,,,,,,,,,,,,,,,,,,,,,,
,,615ca96d7640b6c31b9e4462,65af5493ac39215515c25326,2024-01-22_23h58.05.364,bars,2023.2.3,Win32,10,657b66ea316d21385b68909f,,,,,,97.5711,112.2584,space,14.5571,,,,,,,,,,,,,,,,,,,,,,,,,,,,,,,,,,,,,,,,,,,,,,,,,,,,,,,,,,,,,,,,,,,,,,,,,,,,,,,,,,,,,,,,,,,
,,615ca96d7640b6c31b9e4462,65af5493ac39215515c25326,2024-01-22_23h58.05.364,bars,2023.2.3,Win32,10,657b66ea316d21385b68909f,,,,,,,,,,,112.2712,113.211,113.2111,113.7061,113.7062,113.9353,113.9353,41,41,125.359,space,11.3044,,125.359,128.8121,space,3.3219,,0,0,0,1,1,20,bars/single001.png,bars/mask006.png,,,,,,,,,,,,,,,,,,,,,,,,,,,,,,,,,,,,,,,,,,,,,,,,,,,,,,,,,,,,,,,,
,,615ca96d7640b6c31b9e4462,65af5493ac39215515c25326,2024-01-22_23h58.05.364,bars,2023.2.3,Win32,10,657b66ea316d21385b68909f,,,,,,,,,,,128.8124,129.817,129.8171,130.321,130.321,130.571,130.571,67,67,140.6138,space,9.9293,,140.6138,146.4472,space,5.727,,0,1,1,5,1,55,bars/single005.png,bars/mask008.png,,,,,,,,,,,,,,,,,,,,,,,,,,,,,,,,,,,,,,,,,,,,,,,,,,,,,,,,,,,,,,,,
,,615ca96d7640b6c31b9e4462,65af5493ac39215515c25326,2024-01-22_23h58.05.364,bars,2023.2.3,Win32,10,657b66ea316d21385b68909f,,,,,,,,,,,146.4552,147.4742,147.4742,147.9562,147.9562,148.2057,148.2058,145,-35,157.2863,space,8.9455,,157.2863,165.0011,space,7.6005,,0,2,2,2,1,145,bars/single002.png,bars/mask003.png,,,,,,,,,,,,,,,,,,,,,,,,,,,,,,,,,,,,,,,,,,,,,,,,,,,,,,,,,,,,,,,,
,,615ca96d7640b6c31b9e4462,65af5493ac39215515c25326,2024-01-22_23h58.05.364,bars,2023.2.3,Win32,10,657b66ea316d21385b68909f,,,,,,,,,,,165.0092,165.9377,165.9378,166.3934,166.3934,166.631,166.631,2,182,174.4495,space,7.6967,,174.4496,182.1195,space,7.5551,,0,3,3,3,1,20,bars/single003.png,bars/mask005.png,,,,,,,,,,,,,,,,,,,,,,,,,,,,,,,,,,,,,,,,,,,,,,,,,,,,,,,,,,,,,,,,
,,615ca96d7640b6c31b9e4462,65af5493ac39215515c25326,2024-01-22_23h58.05.364,bars,2023.2.3,Win32,10,657b66ea316d21385b68909f,,,,,,,,,,,182.128,183.1433,183.1433,183.6153,183.6153,183.8352,183.8352,155,-25,189.7864,space,5.8418,,189.7864,192.6539,space,2.7482,,0,4,4,6,1,175,bars/single006.png,bars/mask005.png,,,,,,,,,,,,,,,,,,,,,,,,,,,,,,,,,,,,,,,,,,,,,,,,,,,,,,,,,,,,,,,,
,,615ca96d7640b6c31b9e4462,65af5493ac39215515c25326,2024-01-22_23h58.05.364,bars,2023.2.3,Win32,10,657b66ea316d21385b68909f,,,,,,,,,,,192.6541,193.6613,193.6613,194.1313,194.1313,194.3761,194.3762,89,89,206.9994,space,12.513,,206.9995,217.6416,space,10.5185,,0,5,5,4,1,95,bars/single004.png,bars/mask004.png,,,,,,,,,,,,,,,,,,,,,,,,,,,,,,,,,,,,,,,,,,,,,,,,,,,,,,,,,,,,,,,,
,,615ca96d7640b6c31b9e4462,65af5493ac39215515c25326,2024-01-22_23h58.05.364,bars,2023.2.3,Win32,10,657b66ea316d21385b68909f,,,,,,,,,,,217.6509,218.62,218.62,219.095,219.095,219.3398,219.3399,18,18,231.6871,space,12.235,,231.6871,237.8944,space,6.0815,,0,6,6,7,1,45,bars/single007.png,bars/mask009.png,,,,,,,,,,,,,,,,,,,,,,,,,,,,,,,,,,,,,,,,,,,,,,,,,,,,,,,,,,,,,,,,
,,615ca96d7640b6c31b9e4462,65af5493ac39215515c25326,2024-01-22_23h58.05.364,bars,2023.2.3,Win32,10,657b66ea316d21385b68909f,,,,,,,,,,,237.9028,238.9183,238.9183,239.4145,239.4146,239.6578,239.6578,138,-42,248.7304,space,8.9542,,248.7305,252.7316,space,3.8981,,0,7,7,8,1,160,bars/single008.png,bars/mask004.png,,,,,,,,,,,,,,,,,,,,,,,,,,,,,,,,,,,,,,,,,,,,,,,,,,,,,,,,,,,,,,,,
,,615ca96d7640b6c31b9e4462,65af5493ac39215515c25326,2024-01-22_23h58.05.364,bars,2023.2.3,Win32,10,657b66ea316d21385b68909f,,,,,,,,,,,252.7399,253.6549,253.655,254.1102,254.1102,254.3427,254.3427,6,6,259.1583,space,4.7032,,259.1583,263.3656,space,4.086,,0,8,8,9,1,20,bars/single009.png,bars/mask006.png,,,,,,,,,,,,,,,,,,,,,,,,,,,,,,,,,,,,,,,,,,,,,,,,,,,,,,,,,,,,,,,,
,,615ca96d7640b6c31b9e4462,65af5493ac39215515c25326,2024-01-22_23h58.05.364,bars,2023.2.3,Win32,10,657b66ea316d21385b68909f,,,,,,,,,,,263.3739,264.293,264.293,264.7873,264.7873,265.0178,265.0178,160,160,272.1272,space,7.0016,,272.1272,274.6126,space,2.3634,0.0001,0,9,9,0,1,150,bars/single000.png,bars/mask006.png,,,,,,,,,,,,,,,,,,,,,,,,,,,,,,,,,,,,,,,,,,,,,,,,,,,,,,,,,,,,,,,,
,,615ca96d7640b6c31b9e4462,65af5493ac39215515c25326,2024-01-22_23h58.05.364,bars,2023.2.3,Win32,10,657b66ea316d21385b68909f,,,,,,,,,,,,,,,,,,,,,,,,,,,,,,,,,,,,,274.6131,287.5245,space,12.7905,,,,,,,,,,,,,,,,,,,,,,,,,,,,,,,,,,,,,,,,,,,,,,,,,,,,,,,,,,,,
,,615ca96d7640b6c31b9e4462,65af5493ac39215515c25326,2024-01-22_23h58.05.364,bars,2023.2.3,Win32,10,657b66ea316d21385b68909f,,,,,,,,,,,,,,,,,,,,,,,,,,,,,,,,,,,,,,,,,,287.5351,291.6754,left,4.0258,,291.6754,9,1,292.6247,0,0,0,0,1,9,1,9,2,,,,,,,,,,,,,,,,,,,,,,,,,,,,,,,,,,,,,,,,,
,,615ca96d7640b6c31b9e4462,65af5493ac39215515c25326,2024-01-22_23h58.05.364,bars,2023.2.3,Win32,10,657b66ea316d21385b68909f,,,,,,,,,,,,,,,,,,,,,,,,,,,,,,,,,,,,,,,,,,292.6251,293.8131,left,1.0703,0,293.8132,10,1,294.7752,0,1,1,1,1,10,0,10,1,,,,,,,,,,,,,,,,,,,,,,,,,,,,,,,,,,,,,,,,,
,,615ca96d7640b6c31b9e4462,65af5493ac39215515c25326,2024-01-22_23h58.05.364,bars,2023.2.3,Win32,10,657b66ea316d21385b68909f,,,,,,,,,,,,,,,,,,,,,,,,,,,,,,,,,,,,,,,,,,294.7754,295.5337,right,0.6365,,295.5337,2,2,296.5371,0,2,2,2,1,10,2,10,2,,,,,,,,,,,,,,,,,,,,,,,,,,,,,,,,,,,,,,,,,
,,615ca96d7640b6c31b9e4462,65af5493ac39215515c25326,2024-01-22_23h58.05.364,bars,2023.2.3,Win32,10,657b66ea316d21385b68909f,,,,,,,,,,,,,,,,,,,,,,,,,,,,,,,,,,,,,,,,,,296.5373,297.2577,left,0.6041,,297.2577,7,1,298.2005,0,3,3,3,1,8,4,7,3,,,,,,,,,,,,,,,,,,,,,,,,,,,,,,,,,,,,,,,,,
,,615ca96d7640b6c31b9e4462,65af5493ac39215515c25326,2024-01-22_23h58.05.364,bars,2023.2.3,Win32,10,657b66ea316d21385b68909f,,,,,,,,,,,,,,,,,,,,,,,,,,,,,,,,,,,,,,,,,,298.2008,299.0688,left,0.7568,0.0001,299.0688,5,1,300.0418,0,4,4,4,1,6,2,5,1,,,,,,,,,,,,,,,,,,,,,,,,,,,,,,,,,,,,,,,,,
,,615ca96d7640b6c31b9e4462,65af5493ac39215515c25326,2024-01-22_23h58.05.364,bars,2023.2.3,Win32,10,657b66ea316d21385b68909f,,,,,,,,,,,,,,,,,,,,,,,,,,,,,,,,,,,,,,,,,,300.042,301.3731,left,1.2242,,301.3731,4,1,302.2913,0,5,5,5,1,4,4,4,4,,,,,,,,,,,,,,,,,,,,,,,,,,,,,,,,,,,,,,,,,
,,615ca96d7640b6c31b9e4462,65af5493ac39215515c25326,2024-01-22_23h58.05.364,bars,2023.2.3,Win32,10,657b66ea316d21385b68909f,,,,,,,,,,,,,,,,,,,,,,,,,,,,,,,,,,,,,,,,,,302.2915,302.7751,right,0.3725,,302.7751,2,2,303.793,0,6,6,6,1,2,2,1,2,,,,,,,,,,,,,,,,,,,,,,,,,,,,,,,,,,,,,,,,,
,,615ca96d7640b6c31b9e4462,65af5493ac39215515c25326,2024-01-22_23h58.05.364,bars,2023.2.3,Win32,10,657b66ea316d21385b68909f,,,,,,,,,,,,,,,,,,,,,,,,,,,,,,,,,,,,,,,,,,303.7932,304.5038,left,0.6011,,304.5038,0,1,305.4438,0,7,7,7,1,0,0,0,1,,,,,,,,,,,,,,,,,,,,,,,,,,,,,,,,,,,,,,,,,
,,615ca96d7640b6c31b9e4462,65af5493ac39215515c25326,2024-01-22_23h58.05.364,bars,2023.2.3,Win32,10,657b66ea316d21385b68909f,,,,,,,,,,,,,,,,,,,,,,,,,,,,,,,,,,,,,,,,,,305.444,305.8911,right,0.3463,,305.8911,0,2,306.8225,0,8,8,8,1,0,2,1,0,,,,,,,,,,,,,,,,,,,,,,,,,,,,,,,,,,,,,,,,,
,,615ca96d7640b6c31b9e4462,65af5493ac39215515c25326,2024-01-22_23h58.05.364,bars,2023.2.3,Win32,10,657b66ea316d21385b68909f,,,,,,,,,,,,,,,,,,,,,,,,,,,,,,,,,,,,,,,,,,306.8227,307.2945,right,0.3661,,307.2945,3,2,308.2515,0,9,9,9,1,2,4,2,3,,,,,,,,,,,,,,,,,,,,,,,,,,,,,,,,,,,,,,,,,
,,615ca96d7640b6c31b9e4462,65af5493ac39215515c25326,2024-01-22_23h58.05.364,bars,2023.2.3,Win32,10,657b66ea316d21385b68909f,,,,,,,,,,,,,,,,,,,,,,,,,,,,,,,,,,,,,,,,,,308.2518,308.7391,right,0.3796,,308.7392,3,2,309.656,0,10,10,10,1,0,2,0,3,,,,,,,,,,,,,,,,,,,,,,,,,,,,,,,,,,,,,,,,,
,,615ca96d7640b6c31b9e4462,65af5493ac39215515c25326,2024-01-22_23h58.05.364,bars,2023.2.3,Win32,10,657b66ea316d21385b68909f,,,,,,,,,,,,,,,,,,,,,,,,,,,,,,,,,,,,,,,,,,309.6563,310.1608,left,0.3739,,310.1608,0,1,311.1973,0,11,11,11,1,0,4,0,3,,,,,,,,,,,,,,,,,,,,,,,,,,,,,,,,,,,,,,,,,
,,615ca96d7640b6c31b9e4462,65af5493ac39215515c25326,2024-01-22_23h58.05.364,bars,2023.2.3,Win32,10,657b66ea316d21385b68909f,,,,,,,,,,,,,,,,,,,,,,,,,,,,,,,,,,,,,,,,,,311.1976,311.6782,left,0.3602,,311.6782,1,1,312.6089,0,12,12,12,1,2,6,1,6,,,,,,,,,,,,,,,,,,,,,,,,,,,,,,,,,,,,,,,,,
,,615ca96d7640b6c31b9e4462,65af5493ac39215515c25326,2024-01-22_23h58.05.364,bars,2023.2.3,Win32,10,657b66ea316d21385b68909f,,,,,,,,,,,,,,,,,,,,,,,,,,,,,,,,,,,,,,,,,,312.6091,313.1184,right,0.3989,,313.1184,3,2,314.0874,0,13,13,13,1,0,4,1,3,,,,,,,,,,,,,,,,,,,,,,,,,,,,,,,,,,,,,,,,,
,,615ca96d7640b6c31b9e4462,65af5493ac39215515c25326,2024-01-22_23h58.05.364,bars,2023.2.3,Win32,10,657b66ea316d21385b68909f,,,,,,,,,,,,,,,,,,,,,,,,,,,,,,,,,,,,,,,,,,314.0876,314.3198,left,0.124,,314.3199,2,1,315.2459,0,14,14,14,1,2,6,2,7,,,,,,,,,,,,,,,,,,,,,,,,,,,,,,,,,,,,,,,,,
,,615ca96d7640b6c31b9e4462,65af5493ac39215515c25326,2024-01-22_23h58.05.364,bars,2023.2.3,Win32,10,657b66ea316d21385b68909f,,,,,,,,,,,,,,,,,,,,,,,,,,,,,,,,,,,,,,,,,,315.2461,315.7301,left,0.3742,,315.7301,3,1,316.6366,0,15,15,15,1,4,8,3,9,,,,,,,,,,,,,,,,,,,,,,,,,,,,,,,,,,,,,,,,,
,,615ca96d7640b6c31b9e4462,65af5493ac39215515c25326,2024-01-22_23h58.05.364,bars,2023.2.3,Win32,10,657b66ea316d21385b68909f,,,,,,,,,,,,,,,,,,,,,,,,,,,,,,,,,,,,,,,,,,316.6368,316.8826,left,0.1348,,316.8826,7,1,317.9014,0,16,16,16,1,6,6,7,7,,,,,,,,,,,,,,,,,,,,,,,,,,,,,,,,,,,,,,,,,
,,615ca96d7640b6c31b9e4462,65af5493ac39215515c25326,2024-01-22_23h58.05.364,bars,2023.2.3,Win32,10,657b66ea316d21385b68909f,,,,,,,,,,,,,,,,,,,,,,,,,,,,,,,,,,,,,,,,,,317.9016,318.3841,left,0.369,,318.3841,9,1,319.3228,0,17,17,17,1,8,4,9,5,,,,,,,,,,,,,,,,,,,,,,,,,,,,,,,,,,,,,,,,,
,,615ca96d7640b6c31b9e4462,65af5493ac39215515c25326,2024-01-22_23h58.05.364,bars,2023.2.3,Win32,10,657b66ea316d21385b68909f,,,,,,,,,,,,,,,,,,,,,,,,,,,,,,,,,,,,,,,,,,319.323,319.6862,left,0.2537,,319.6862,5,1,320.6988,0,18,18,18,1,6,2,5,1,,,,,,,,,,,,,,,,,,,,,,,,,,,,,,,,,,,,,,,,,
,,615ca96d7640b6c31b9e4462,65af5493ac39215515c25326,2024-01-22_23h58.05.364,bars,2023.2.3,Win32,10,657b66ea316d21385b68909f,,,,,,,,,,,,,,,,,,,,,,,,,,,,,,,,,,,,,,,,,,320.699,321.2064,left,0.3872,,321.2064,7,1,322.1363,0,19,19,19,1,8,0,7,0,,,,,,,,,,,,,,,,,,,,,,,,,,,,,,,,,,,,,,,,,
,,615ca96d7640b6c31b9e4462,65af5493ac39215515c25326,2024-01-22_23h58.05.364,bars,2023.2.3,Win32,10,657b66ea316d21385b68909f,,,,,,,,,,,,,,,,,,,,,,,,,,,,,,,,,,,,,,,,,,,,,,,,,,,,,,,,,,,,322.1366,335.6097,space,13.369,,,,,,,,,,,,,,,,,,,,,,,,,,,,,,,,,,,,,
,,615ca96d7640b6c31b9e4462,65af5493ac39215515c25326,2024-01-22_23h58.05.364,bars,2023.2.3,Win32,10,657b66ea316d21385b68909f,,,,,,,,,,,336.7235,337.7009,,,338.1039,338.3515,,74,74,,,,,,,,,,,,,,,,bars/001.png,bars/mask001.png,,,,,,,,,,,,6,2,,,,,,,1,9,1,9,,,,,,335.6197,336.7208,space,0.9934,,337.7011,338.1038,338.3517,347.2663,space,8.8129,,347.2665,56,11,348.2917,348.2919,360.9649,space,12.5647,,0,0,0,0,1,130,85,,,,,,,,
,,615ca96d7640b6c31b9e4462,65af5493ac39215515c25326,2024-01-22_23h58.05.364,bars,2023.2.3,Win32,10,657b66ea316d21385b68909f,,,,,,,,,,,360.9738,361.9382,,,362.4451,362.676,,15,195,,,,,,,,,,,,,,,,bars/004.png,bars/mask006.png,,,,,,,,,,,,1,1,,,,,,,0,10,1,10,,,,,,,,,,,361.9382,362.445,362.676,368.2699,space,5.4812,,368.27,10,70,369.2803,369.2804,376.9059,space,7.4784,,0,1,1,1,1,25,125,,,,,,,,
,,615ca96d7640b6c31b9e4462,65af5493ac39215515c25326,2024-01-22_23h58.05.364,bars,2023.2.3,Win32,10,657b66ea316d21385b68909f,,,,,,,,,,,376.9145,377.8357,,,378.3186,378.5675,,71,71,,,,,,,,,,,,,,,,bars/030.png,bars/mask002.png,,,,,,,,,,,,6,2,,,,,,,0,8,0,8,,,,,,,,,,,377.8357,378.3185,378.5675,384.9315,space,6.252,,384.9315,69,6,385.885,385.885,391.55,space,5.5299,,0,2,2,2,1,140,65,,,,,,,,
,,615ca96d7640b6c31b9e4462,65af5493ac39215515c25326,2024-01-22_23h58.05.364,bars,2023.2.3,Win32,10,657b66ea316d21385b68909f,,,,,,,,,,,391.5585,392.4796,,,392.9372,393.1783,,62,242,,,,,,,,,,,,,,,,bars/011.png,bars/mask006.png,,,,,,,,,,,,2,2,,,,,,,2,10,1,9,,,,,,,,,,,392.4796,392.9372,393.1783,405.7684,space,12.4818,,405.7684,82,23,406.6958,406.6958,410.7568,space,3.9374,,0,3,3,3,1,160,85,,,,,,,,
,,615ca96d7640b6c31b9e4462,65af5493ac39215515c25326,2024-01-22_23h58.05.364,bars,2023.2.3,Win32,10,657b66ea316d21385b68909f,,,,,,,,,,,410.7652,411.7681,,,412.2427,412.4866,,74,74,,,,,,,,,,,,,,,,bars/044.png,bars/mask007.png,,,,,,,,,,,,0,1,,,,,,,0,10,0,10,,,,,,,,,,,411.7681,412.2427,412.4866,417.4125,space,4.8218,,417.4125,1,81,418.379,418.3791,424.5374,space,6.0233,,0,4,4,4,1,75,155,,,,,,,,
,,615ca96d7640b6c31b9e4462,65af5493ac39215515c25326,2024-01-22_23h58.05.364,bars,2023.2.3,Win32,10,657b66ea316d21385b68909f,,,,,,,,,,,424.5462,425.4873,,,425.9992,426.2385,,87,87,,,,,,,,,,,,,,,,bars/041.png,bars/mask007.png,,,,,,,,,,,,8,2,,,,,,,0,10,1,9,,,,,,,,,,,425.4874,425.9992,426.2385,432.7704,space,6.397,,432.7705,67,2,433.7277,433.7277,436.1695,space,2.2931,,0,5,5,5,1,20,85,,,,,,,,
,,615ca96d7640b6c31b9e4462,65af5493ac39215515c25326,2024-01-22_23h58.05.364,bars,2023.2.3,Win32,10,657b66ea316d21385b68909f,,,,,,,,,,,436.1697,437.1026,,,437.6183,437.8859,,173,173,,,,,,,,,,,,,,,,bars/015.png,bars/mask009.png,,,,,,,,,,,,5,2,,,,,,,2,10,2,9,,,,,,,,,,,437.1026,437.6183,437.8859,442.7341,space,4.7206,,442.7341,63,13,443.6827,443.6827,445.6831,space,1.8766,,0,6,6,6,1,110,160,,,,,,,,
,,615ca96d7640b6c31b9e4462,65af5493ac39215515c25326,2024-01-22_23h58.05.364,bars,2023.2.3,Win32,10,657b66ea316d21385b68909f,,,,,,,,,,,445.6834,446.7063,,,447.1679,447.4163,,168,-12,,,,,,,,,,,,,,,,bars/015.png,bars/mask004.png,,,,,,,,,,,,6,2,,,,,,,0,8,0,8,,,,,,,,,,,446.7064,447.1678,447.4163,454.0987,space,6.5698,,454.0987,58,8,455.1215,455.1215,457.9074,space,2.6847,,0,7,7,7,1,110,160,,,,,,,,
,,615ca96d7640b6c31b9e4462,65af5493ac39215515c25326,2024-01-22_23h58.05.364,bars,2023.2.3,Win32,10,657b66ea316d21385b68909f,,,,,,,,,,,457.9076,458.8294,,,459.3104,459.5546,,20,200,,,,,,,,,,,,,,,,bars/031.png,bars/mask006.png,,,,,,,,,,,,5,2,,,,,,,0,10,0,9,,,,,,,,,,,458.8294,459.3103,459.5546,468.2159,space,8.5482,,468.2159,80,15,469.1983,469.1983,471.4872,space,2.1582,,0,8,8,8,1,120,35,,,,,,,,
,,615ca96d7640b6c31b9e4462,65af5493ac39215515c25326,2024-01-22_23h58.05.364,bars,2023.2.3,Win32,10,657b66ea316d21385b68909f,,,,,,,,,,,471.4875,472.5083,,,472.9832,473.2331,,109,109,,,,,,,,,,,,,,,,bars/037.png,bars/mask008.png,,,,,,,,,,,,9,2,,,,,,,2,10,3,10,,,,,,,,,,,472.5083,472.9832,473.2331,480.5083,space,7.1494,,480.5083,41,4,481.4565,481.4565,483.088,space,1.5069,,0,9,9,9,1,150,105,,,,,,,,
,,615ca96d7640b6c31b9e4462,65af5493ac39215515c25326,2024-01-22_23h58.05.364,bars,2023.2.3,Win32,10,657b66ea316d21385b68909f,,,,,,,,,,,483.0883,484.0345,,,484.5627,484.7905,,65,65,,,,,,,,,,,,,,,,bars/011.png,bars/mask009.png,,,,,,,,,,,,3,2,,,,,,,4,10,4,10,,,,,,,,,,,484.0346,484.5627,484.7906,486.2146,space,1.3097,,486.2146,85,20,487.154,487.1541,488.5072,space,1.245,,0,10,10,10,1,160,85,,,,,,,,
,,615ca96d7640b6c31b9e4462,65af5493ac39215515c25326,2024-01-22_23h58.05.364,bars,2023.2.3,Win32,10,657b66ea316d21385b68909f,,,,,,,,,,,488.5074,489.4505,,,489.8796,490.0953,,96,96,,,,,,,,,,,,,,,,bars/018.png,bars/mask001.png,,,,,,,,,,,,8,2,,,,,,,2,10,3,10,,,,,,,,,,,489.4505,489.8796,490.0953,499.0451,space,8.8464,,499.0451,54,6,499.9967,499.9968,501.1383,space,1.0345,,0,11,11,11,1,150,90,,,,,,,,
,,615ca96d7640b6c31b9e4462,65af5493ac39215515c25326,2024-01-22_23h58.05.364,bars,2023.2.3,Win32,10,657b66ea316d21385b68909f,,,,,,,,,,,501.1384,502.0835,,,502.5171,502.7322,,92,92,,,,,,,,,,,,,,,,bars/047.png,bars/mask004.png,,,,,,,,,,,,2,2,,,,,,,4,8,4,8,,,,,,,,,,,502.0835,502.5171,502.7322,513.5492,space,10.7125,,513.5493,77,22,514.4918,514.4918,516.6477,space,2.0483,,0,12,12,12,1,15,70,,,,,,,,
,,615ca96d7640b6c31b9e4462,65af5493ac39215515c25326,2024-01-22_23h58.05.364,bars,2023.2.3,Win32,10,657b66ea316d21385b68909f,,,,,,,,,,,516.6479,517.6153,,,518.0642,518.279,,129,-51,,,,,,,,,,,,,,,,bars/004.png,bars/mask008.png,,,,,,,,,,,,8,2,,,,,,,2,10,2,9,,,,,,,,,,,517.6154,518.0642,518.279,525.6978,space,7.3146,,525.6979,76,4,526.6431,526.6431,528.5546,space,1.8065,,0,13,13,13,1,25,125,,,,,,,,
,,615ca96d7640b6c31b9e4462,65af5493ac39215515c25326,2024-01-22_23h58.05.364,bars,2023.2.3,Win32,10,657b66ea316d21385b68909f,,,,,,,,,,,528.5548,529.522,,,529.9639,530.1779,,103,103,,,,,,,,,,,,,,,,bars/009.png,bars/mask007.png,,,,,,,,,,,,9,2,,,,,,,4,10,5,10,,,,,,,,,,,529.522,529.9639,530.178,538.179,space,7.8976,,538.179,88,2,539.1385,539.1385,540.7163,space,1.471,,0,14,14,14,1,15,105,,,,,,,,
,,615ca96d7640b6c31b9e4462,65af5493ac39215515c25326,2024-01-22_23h58.05.364,bars,2023.2.3,Win32,10,657b66ea316d21385b68909f,,,,,,,,,,,540.7166,541.6727,,,542.1034,542.3186,,63,63,,,,,,,,,,,,,,,,bars/021.png,bars/mask002.png,,,,,,,,,,,,7,2,,,,,,,6,8,6,9,,,,,,,,,,,541.6727,542.1034,542.3187,543.5134,space,1.0911,,543.5135,88,7,544.4588,544.4588,545.5975,space,1.0335,,0,15,15,15,1,155,70,,,,,,,,
,,615ca96d7640b6c31b9e4462,65af5493ac39215515c25326,2024-01-22_23h58.05.364,bars,2023.2.3,Win32,10,657b66ea316d21385b68909f,,,,,,,,,,,545.5977,546.5418,,,546.9712,547.1868,,122,122,,,,,,,,,,,,,,,,bars/028.png,bars/mask000.png,,,,,,,,,,,,7,2,,,,,,,4,6,3,7,,,,,,,,,,,546.5419,546.9711,547.1868,555.2356,space,7.9313,,555.2356,77,2,556.2017,556.2017,557.569,space,1.2462,,0,16,16,16,1,45,120,,,,,,,,
,,615ca96d7640b6c31b9e4462,65af5493ac39215515c25326,2024-01-22_23h58.05.364,bars,2023.2.3,Win32,10,657b66ea316d21385b68909f,,,,,,,,,,,557.5692,558.5221,,,558.955,559.1707,,176,176,,,,,,,,,,,,,,,,bars/040.png,bars/mask003.png,,,,,,,,,,,,4,2,,,,,,,6,4,7,6,,,,,,,,,,,558.5221,558.955,559.1707,562.4802,space,3.2061,,562.4802,36,9,563.3961,563.3961,568.1966,space,4.6934,,0,17,17,17,1,140,5,,,,,,,,
,,615ca96d7640b6c31b9e4462,65af5493ac39215515c25326,2024-01-22_23h58.05.364,bars,2023.2.3,Win32,10,657b66ea316d21385b68909f,,,,,,,,,,,568.205,569.1513,,,569.5849,569.803,,102,102,,,,,,,,,,,,,,,,bars/018.png,bars/mask005.png,,,,,,,,,,,,1,2,,,,,,,8,2,8,2,,,,,,,,,,,569.1513,569.5848,569.803,572.2214,space,2.3144,,572.2215,48,12,573.2026,573.2026,575.0412,space,1.7334,,0,18,18,18,1,150,90,,,,,,,,
,,615ca96d7640b6c31b9e4462,65af5493ac39215515c25326,2024-01-22_23h58.05.364,bars,2023.2.3,Win32,10,657b66ea316d21385b68909f,,,,,,,,,,,575.0415,575.9867,,,576.4162,576.6327,,148,148,,,,,,,,,,,,,,,,bars/048.png,bars/mask004.png,,,,,,,,,,,,0,2,,,,,,,10,4,10,3,,,,,,,,,,,575.9867,576.4162,576.6327,578.3003,space,1.5635,,578.3003,82,27,579.2522,579.2522,581.0822,space,1.7231,,0,19,19,19,1,50,175,,,,,,,,
,,615ca96d7640b6c31b9e4462,65af5493ac39215515c25326,2024-01-22_23h58.05.364,bars,2023.2.3,Win32,10,657b66ea316d21385b68909f,,,,,,,,,,,581.0824,582.0239,,,582.4526,582.6676,,174,174,,,,,,,,,,,,,,,,bars/015.png,bars/mask008.png,,,,,,,,,,,,3,2,,,,,,,10,6,10,6,,,,,,,,,,,582.0239,582.4526,582.6677,594.2656,space,11.4946,9.99999E-05,594.2656,64,14,595.2386,595.2386,596.7034,space,1.3578,,0,20,20,20,1,110,160,,,,,,,,
,,615ca96d7640b6c31b9e4462,65af5493ac39215515c25326,2024-01-22_23h58.05.364,bars,2023.2.3,Win32,10,657b66ea316d21385b68909f,,,,,,,,,,,596.7036,597.6452,,,598.0759,598.2903,,78,78,,,,,,,,,,,,,,,,bars/001.png,bars/mask007.png,,,,,,,,,,,,3,2,,,,,,,10,4,9,4,,,,,,,,,,,597.6452,598.0759,598.2903,599.3967,space,1.0034,,599.3968,52,7,600.3531,600.3531,601.8152,space,1.3573,,0,21,21,21,1,130,85,,,,,,,,
,,615ca96d7640b6c31b9e4462,65af5493ac39215515c25326,2024-01-22_23h58.05.364,bars,2023.2.3,Win32,10,657b66ea316d21385b68909f,,,,,,,,,,,601.8155,602.7579,,,603.2601,603.4957,,129,129,,,,,,,,,,,,,,,,bars/023.png,bars/mask008.png,,,,,,,,,,,,4,2,,,,,,,10,6,10,7,,,,,,,,,,,602.7579,603.26,603.4957,609.7739,space,6.1742,,609.7739,71,14,610.7174,610.7174,611.8522,space,1.0299,,0,22,22,22,1,20,115,,,,,,,,
,,615ca96d7640b6c31b9e4462,65af5493ac39215515c25326,2024-01-22_23h58.05.364,bars,2023.2.3,Win32,10,657b66ea316d21385b68909f,,,,,,,,,,,611.8524,612.799,,,613.2308,613.4464,,160,160,,,,,,,,,,,,,,,,bars/048.png,bars/mask006.png,,,,,,,,,,,,2,2,,,,,,,8,4,7,4,,,,,,,,,,,612.799,613.2308,613.4464,614.6461,space,1.0958,,614.6461,70,15,615.5903,615.5903,616.4902,space,0.7944,,0,23,23,23,1,50,175,,,,,,,,
,,615ca96d7640b6c31b9e4462,65af5493ac39215515c25326,2024-01-22_23h58.05.364,bars,2023.2.3,Win32,10,657b66ea316d21385b68909f,,,,,,,,,,,616.4903,617.4347,,,617.864,618.0824,,53,233,,,,,,,,,,,,,,,,bars/010.png,bars/mask000.png,,,,,,,,,,,,6,2,,,,,,,6,6,6,6,,,,,,,,,,,617.4347,617.864,618.0825,626.9607,space,8.7743,,626.9607,68,2,627.9049,627.9049,628.7017,space,0.684,,0,24,24,24,1,165,55,,,,,,,,
,,615ca96d7640b6c31b9e4462,65af5493ac39215515c25326,2024-01-22_23h58.05.364,bars,2023.2.3,Win32,10,657b66ea316d21385b68909f,,,,,,,,,,,628.7019,629.644,,,630.0789,630.2935,,67,247,,,,,,,,,,,,,,,,bars/006.png,bars/mask007.png,,,,,,,,,,,,0,1,,,,,,,4,8,4,8,,,,,,,,,,,629.644,630.0789,630.2935,640.782,space,10.385,,640.782,32,33,641.7259,641.7259,644.4324,space,2.5985,,0,25,25,25,1,35,100,,,,,,,,
,,615ca96d7640b6c31b9e4462,65af5493ac39215515c25326,2024-01-22_23h58.05.364,bars,2023.2.3,Win32,10,657b66ea316d21385b68909f,,,,,,,,,,,644.4326,645.3882,,,645.8188,646.04,,55,235,,,,,,,,,,,,,,,,bars/042.png,bars/mask002.png,,,,,,,,,,,,2,2,,,,,,,6,6,4,6,,,,,,,,,,,645.3882,645.8188,646.04,653.4073,space,7.2638,,653.4074,90,20,654.3545,654.3546,656.2525,space,1.7925,,0,26,26,26,1,145,75,,,,,,,,
,,615ca96d7640b6c31b9e4462,65af5493ac39215515c25326,2024-01-22_23h58.05.364,bars,2023.2.3,Win32,10,657b66ea316d21385b68909f,,,,,,,,,,,656.2527,657.1958,,,657.6233,657.838,,129,129,,,,,,,,,,,,,,,,bars/028.png,bars/mask002.png,,,,,,,,,,,,6,2,,,,,,,4,8,3,8,,,,,,,,,,,657.1959,657.6233,657.838,667.4738,space,9.5288,,667.4738,84,9,668.4233,668.4233,669.6598,space,1.1296,,0,27,27,27,1,45,120,,,,,,,,
,,615ca96d7640b6c31b9e4462,65af5493ac39215515c25326,2024-01-22_23h58.05.364,bars,2023.2.3,Win32,10,657b66ea316d21385b68909f,,,,,,,,,,,669.6601,670.6079,,,671.0394,671.2541,,6,6,,,,,,,,,,,,,,,,bars/015.png,bars/mask008.png,,,,,,,,,,,,1,2,,,,,,,6,6,7,5,,,,,,,,,,,670.608,671.0393,671.2541,675.7204,space,4.3627,,675.7204,76,26,676.6685,676.6685,678.0205,space,1.2453,,0,28,28,28,1,110,160,,,,,,,,
,,615ca96d7640b6c31b9e4462,65af5493ac39215515c25326,2024-01-22_23h58.05.364,bars,2023.2.3,Win32,10,657b66ea316d21385b68909f,,,,,,,,,,,678.0207,678.9814,,,679.4116,679.6507,,164,-16,,,,,,,,,,,,,,,,bars/024.png,bars/mask001.png,,,,,,,,,,,,7,2,,,,,,,4,8,5,9,,,,,,,,,,,678.9815,679.4115,679.6508,692.3194,space,12.5601,,692.3194,44,6,693.2689,693.2689,694.0935,space,0.7174,,0,29,29,29,1,120,170,,,,,,,,
,,615ca96d7640b6c31b9e4462,65af5493ac39215515c25326,2024-01-22_23h58.05.364,bars,2023.2.3,Win32,10,657b66ea316d21385b68909f,,,,,,,,,,,694.0937,695.0363,,,695.4662,695.6813,,39,39,,,,,,,,,,,,,,,,bars/025.png,bars/mask007.png,,,,,,,,,,,,5,2,,,,,,,6,6,5,5,,,,,,,,,,,695.0363,695.4662,695.6813,698.5458,space,2.7606,,698.5458,66,1,699.4881,699.4882,700.6224,space,1.0275,,0,30,30,30,1,105,40,,,,,,,,
,,615ca96d7640b6c31b9e4462,65af5493ac39215515c25326,2024-01-22_23h58.05.364,bars,2023.2.3,Win32,10,657b66ea316d21385b68909f,,,,,,,,,,,700.6226,701.5676,,,702.0051,702.2233,,63,243,,,,,,,,,,,,,,,,bars/027.png,bars/mask003.png,,,,,,,,,,,,6,2,,,,,,,4,8,3,10,,,,,,,,,,,701.5676,702.0051,702.2233,710.2054,space,7.8783,,710.2055,47,13,711.1494,711.1494,712.1682,space,0.9133,,0,31,31,31,1,110,50,,,,,,,,
,,615ca96d7640b6c31b9e4462,65af5493ac39215515c25326,2024-01-22_23h58.05.364,bars,2023.2.3,Win32,10,657b66ea316d21385b68909f,,,,,,,,,,,712.1683,713.1103,,,713.5405,713.7554,,129,129,,,,,,,,,,,,,,,,bars/028.png,bars/mask008.png,,,,,,,,,,,,5,2,,,,,,,2,6,4,7,,,,,,,,,,,713.1103,713.5405,713.7554,723.6746,space,9.8152,,723.6746,84,9,724.6153,724.6154,725.1808,space,0.4603,,0,32,32,32,1,45,120,,,,,,,,
,,615ca96d7640b6c31b9e4462,65af5493ac39215515c25326,2024-01-22_23h58.05.364,bars,2023.2.3,Win32,10,657b66ea316d21385b68909f,,,,,,,,,,,725.181,726.1342,,,726.564,726.7757,,67,247,,,,,,,,,,,,,,,,bars/046.png,bars/mask002.png,,,,,,,,,,,,3,2,,,,,,,0,8,0,8,,,,,,,,,,,726.1342,726.564,726.7757,736.8252,space,9.9452,,736.8253,88,18,737.7751,737.7751,739.3657,space,1.4836,,0,33,33,33,1,155,85,,,,,,,,
,,615ca96d7640b6c31b9e4462,65af5493ac39215515c25326,2024-01-22_23h58.05.364,bars,2023.2.3,Win32,10,657b66ea316d21385b68909f,,,,,,,,,,,739.3659,740.3183,,,740.751,740.97,,5,5,,,,,,,,,,,,,,,,bars/014.png,bars/mask009.png,,,,,,,,,,,,6,2,,,,,,,2,6,2,7,,,,,,,,,,,740.3184,740.751,740.9701,749.1525,space,8.0789,,749.1526,75,5,750.11,750.1101,751.242,space,1.0253,,0,34,34,34,1,80,0,,,,,,,,
,,615ca96d7640b6c31b9e4462,65af5493ac39215515c25326,2024-01-22_23h58.05.364,bars,2023.2.3,Win32,10,657b66ea316d21385b68909f,,,,,,,,,,,751.2423,752.1841,,,752.6144,752.8292,,72,72,,,,,,,,,,,,,,,,bars/002.png,bars/mask004.png,,,,,,,,,,,,2,2,,,,,,,0,4,1,4,,,,,,,,,,,752.1841,752.6143,752.8292,759.6595,space,6.7259,,759.6595,58,13,760.6065,760.6065,761.5646,space,0.8508,,0,35,35,35,1,130,85,,,,,,,,
,,615ca96d7640b6c31b9e4462,65af5493ac39215515c25326,2024-01-22_23h58.05.364,bars,2023.2.3,Win32,10,657b66ea316d21385b68909f,,,,,,,,,,,761.5649,762.5504,,,762.9821,763.1932,,87,267,,,,,,,,,,,,,,,,bars/046.png,bars/mask008.png,,,,,,,,,,,,4,2,,,,,,,0,6,0,4,,,,,,,,,,,762.5504,762.9821,763.1932,776.1021,space,12.8053,,776.1022,68,2,777.0511,777.0511,778.0674,space,0.907,,0,36,36,36,1,155,85,,,,,,,,
,,615ca96d7640b6c31b9e4462,65af5493ac39215515c25326,2024-01-22_23h58.05.364,bars,2023.2.3,Win32,10,657b66ea316d21385b68909f,,,,,,,,,,,778.0676,779.0239,,,779.4545,779.6691,,155,155,,,,,,,,,,,,,,,,bars/044.png,bars/mask001.png,,,,,,,,,,,,5,2,,,,,,,2,4,2,5,,,,,,,,,,,779.024,779.4545,779.6691,782.9654,space,3.1928,,782.9654,80,0,783.9074,783.9075,784.8192,space,0.7996,,0,37,37,37,1,75,155,,,,,,,,
,,615ca96d7640b6c31b9e4462,65af5493ac39215515c25326,2024-01-22_23h58.05.364,bars,2023.2.3,Win32,10,657b66ea316d21385b68909f,,,,,,,,,,,784.8193,785.7871,,,786.2179,786.4323,,65,65,,,,,,,,,,,,,,,,bars/038.png,bars/mask007.png,,,,,,,,,,,,5,2,,,,,,,4,6,5,6,,,,,,,,,,,785.7871,786.2179,786.4323,794.3105,space,7.7741,,794.3105,80,5,795.2506,795.2506,796.6069,space,1.2493,,0,38,38,38,1,165,70,,,,,,,,
,,615ca96d7640b6c31b9e4462,65af5493ac39215515c25326,2024-01-22_23h58.05.364,bars,2023.2.3,Win32,10,657b66ea316d21385b68909f,,,,,,,,,,,796.607,797.5537,,,797.9849,798.1979,,120,120,,,,,,,,,,,,,,,,bars/006.png,bars/mask003.png,,,,,,,,,,,,3,2,,,,,,,2,8,1,8,,,,,,,,,,,797.5537,797.9849,798.1979,802.4856,space,4.1838,,802.4857,85,20,803.4378,803.4379,804.2286,space,0.6834,,0,39,39,39,1,35,100,,,,,,,,
,,615ca96d7640b6c31b9e4462,65af5493ac39215515c25326,2024-01-22_23h58.05.364,bars,2023.2.3,Win32,10,657b66ea316d21385b68909f,,,,,,,,,,,804.2288,805.17,,,805.6028,805.8172,,148,148,,,,,,,,,,,,,,,,bars/004.png,bars/mask003.png,,,,,,,,,,,,2,2,,,,,,,0,10,0,10,,,,,,,,,,,805.17,805.6028,805.8172,806.9152,space,0.9951,,806.9152,57,23,807.8737,807.8737,808.7702,space,0.7922,,0,40,40,40,1,25,125,,,,,,,,
,,615ca96d7640b6c31b9e4462,65af5493ac39215515c25326,2024-01-22_23h58.05.364,bars,2023.2.3,Win32,10,657b66ea316d21385b68909f,,,,,,,,,,,808.7705,809.7153,,,810.1496,810.3648,,141,141,,,,,,,,,,,,,,,,bars/028.png,bars/mask009.png,,,,,,,,,,,,3,2,,,,,,,0,8,1,10,,,,,,,,,,,809.7153,810.1496,810.3648,814.6209,space,4.1523,,814.621,84,21,815.5688,815.5688,816.8085,space,1.1316,,0,41,41,41,1,45,120,,,,,,,,
,,615ca96d7640b6c31b9e4462,65af5493ac39215515c25326,2024-01-22_23h58.05.364,bars,2023.2.3,Win32,10,657b66ea316d21385b68909f,,,,,,,,,,,816.8087,817.793,,,818.228,818.4423,,20,200,,,,,,,,,,,,,,,,bars/012.png,bars/mask008.png,,,,,,,,,,,,8,2,,,,,,,0,10,0,10,,,,,,,,,,,817.793,818.228,818.4423,826.8626,space,8.3156,,826.8626,70,5,827.8033,827.8034,828.7172,space,0.8084,,0,42,42,42,1,90,15,,,,,,,,
,,615ca96d7640b6c31b9e4462,65af5493ac39215515c25326,2024-01-22_23h58.05.364,bars,2023.2.3,Win32,10,657b66ea316d21385b68909f,,,,,,,,,,,828.7175,829.6812,,,830.1151,830.3301,,104,104,,,,,,,,,,,,,,,,bars/019.png,bars/mask002.png,,,,,,,,,,,,10,2,,,,,,,2,10,2,10,,,,,,,,,,,829.6812,830.1151,830.3301,839.5581,space,9.1245,,839.5581,59,1,840.5028,840.5028,841.2921,space,0.6824,,0,43,43,43,1,45,105,,,,,,,,
,,615ca96d7640b6c31b9e4462,65af5493ac39215515c25326,2024-01-22_23h58.05.364,bars,2023.2.3,Win32,10,657b66ea316d21385b68909f,,,,,,,,,,,841.2923,842.233,,,842.6632,842.8778,,111,111,,,,,,,,,,,,,,,,bars/009.png,bars/mask008.png,,,,,,,,,,,,7,2,,,,,,,0,8,1,9,,,,,,,,,,,842.233,842.6631,842.8778,849.2409,space,6.2585,,849.2409,84,6,850.1818,850.1818,850.8616,space,0.5725,,0,44,44,44,1,15,105,,,,,,,,
,,615ca96d7640b6c31b9e4462,65af5493ac39215515c25326,2024-01-22_23h58.05.364,bars,2023.2.3,Win32,10,657b66ea316d21385b68909f,,,,,,,,,,,850.8619,851.8017,,,852.2353,852.4502,,13,193,,,,,,,,,,,,,,,,bars/045.png,bars/mask006.png,,,,,,,,,,,,9,2,,,,,,,0,10,0,10,,,,,,,,,,,851.8017,852.2353,852.4502,862.6354,space,10.0736,,862.6354,87,3,863.5934,863.5934,864.1603,space,0.4622,,0,45,45,45,1,100,10,,,,,,,,
,,615ca96d7640b6c31b9e4462,65af5493ac39215515c25326,2024-01-22_23h58.05.364,bars,2023.2.3,Win32,10,657b66ea316d21385b68909f,,,,,,,,,,,864.1604,865.1056,,,865.5352,865.7494,,34,34,,,,,,,,,,,,,,,,bars/025.png,bars/mask005.png,,,,,,,,,,,,8,2,,,,,,,0,10,0,10,,,,,,,,,,,865.1056,865.5352,865.7495,867.7394,space,1.886,,867.7394,71,6,868.6828,868.6828,869.2444,space,0.4566,,0,46,46,46,1,105,40,,,,,,,,
,,615ca96d7640b6c31b9e4462,65af5493ac39215515c25326,2024-01-22_23h58.05.364,bars,2023.2.3,Win32,10,657b66ea316d21385b68909f,,,,,,,,,,,869.2446,870.191,,,870.6253,870.8405,,73,73,,,,,,,,,,,,,,,,bars/011.png,bars/mask004.png,,,,,,,,,,,,5,2,,,,,,,0,8,0,8,,,,,,,,,,,870.191,870.6253,870.8406,876.4274,space,5.4792,,876.4274,87,12,877.3724,877.3725,878.1032,space,0.619,,0,47,47,47,1,160,85,,,,,,,,
,,615ca96d7640b6c31b9e4462,65af5493ac39215515c25326,2024-01-22_23h58.05.364,bars,2023.2.3,Win32,10,657b66ea316d21385b68909f,,,,,,,,,,,878.1034,879.045,,,879.4732,879.6864,,116,116,,,,,,,,,,,,,,,,bars/028.png,bars/mask004.png,,,,,,,,,,,,6,2,,,,,,,0,6,0,7,,,,,,,,,,,879.045,879.4731,879.6864,883.1785,space,3.3884,,883.1785,71,4,884.1167,884.1167,885.5093,space,1.2875,,0,48,48,48,1,45,120,,,,,,,,
,,615ca96d7640b6c31b9e4462,65af5493ac39215515c25326,2024-01-22_23h58.05.364,bars,2023.2.3,Win32,10,657b66ea316d21385b68909f,,,,,,,,,,,885.5095,886.4495,,,886.8778,887.0935,,80,80,,,,,,,,,,,,,,,,bars/046.png,bars/mask006.png,,,,,,,,,,,,4,2,,,,,,,2,4,3,5,,,,,,,,,,,886.4495,886.8778,887.0935,896.9836,space,9.7859,,896.9836,75,5,897.9326,897.9326,898.9582,space,0.9181,,0,49,49,49,1,155,85,,,,,,,,
,,615ca96d7640b6c31b9e4462,65af5493ac39215515c25326,2024-01-22_23h58.05.364,bars,2023.2.3,Win32,10,657b66ea316d21385b68909f,,,,,,,,,,,,,,,,,,,,,,,,,,,,,,,,,,,,,,,,,,,,,,,,,,,,,,,,,,,,,,,,,,,,,,,,,,,,,,,,,,,,,,,,,,,,,898.9587,958.8886,0,0,0,2,1,sequence_tables/blk003.csv
,,615ca96d7640b6c31b9e4462,65af5493ac39215515c25326,2024-01-22_23h58.05.364,bars,2023.2.3,Win32,10,657b66ea316d21385b68909f,,,,,,,,,,,961.2228,962.1641,,,962.5931,962.8075,,73,73,,,,,,,,,,,,,,,,bars/010.png,bars/mask007.png,,,,,,,,,,,,4,2,,,,,,,9,9,7,10,,,,,,958.8889,961.2201,space,2.2294,,962.1641,962.5931,962.8076,965.3324,space,2.4239,,965.3324,88,18,966.2904,966.2905,966.2987,,,,0,0,0,0,1,165,55,,,,,,,,
,,615ca96d7640b6c31b9e4462,65af5493ac39215515c25326,2024-01-22_23h58.05.364,bars,2023.2.3,Win32,10,657b66ea316d21385b68909f,,,,,,,,,,,966.2989,967.237,,,967.6682,967.8858,,164,164,,,,,,,,,,,,,,,,bars/033.png,bars/mask007.png,,,,,,,,,,,,7,2,,,,,,,7,10,7,10,,,,,,,,,,,967.237,967.6681,967.8858,969.8935,space,1.9072,,969.8936,41,9,970.8537,970.8537,970.8621,,,,0,1,1,1,1,25,155,,,,,,,,
,,615ca96d7640b6c31b9e4462,65af5493ac39215515c25326,2024-01-22_23h58.05.364,bars,2023.2.3,Win32,10,657b66ea316d21385b68909f,,,,,,,,,,,970.8622,971.7978,,,972.2315,972.4463,,16,196,,,,,,,,,,,,,,,,bars/032.png,bars/mask006.png,,,,,,,,,,,,7,2,,,,,,,9,8,9,8,,,,,,,,,,,971.7978,972.2314,972.4463,982.9565,space,10.3966,,982.9565,71,4,983.8999,983.9,983.9004,,,,0,2,2,2,1,125,20,,,,,,,,
,,615ca96d7640b6c31b9e4462,65af5493ac39215515c25326,2024-01-22_23h58.05.364,bars,2023.2.3,Win32,10,657b66ea316d21385b68909f,,,,,,,,,,,983.9005,984.8734,,,985.3309,985.5516,,47,227,,,,,,,,,,,,,,,,bars/035.png,bars/mask000.png,,,,,,,,,,,,4,2,,,,,,,10,6,8,7,,,,,,,,,,,984.8734,985.3309,985.5516,995.5566,space,9.9044,,995.5566,52,13,996.5002,996.5002,996.5084,,,,0,3,3,3,1,175,60,,,,,,,,
,,615ca96d7640b6c31b9e4462,65af5493ac39215515c25326,2024-01-22_23h58.05.364,bars,2023.2.3,Win32,10,657b66ea316d21385b68909f,,,,,,,,,,,996.5086,997.4446,,,997.9307,998.1625,,164,-16,,,,,,,,,,,,,,,,bars/044.png,bars/mask003.png,,,,,,,,,,,,3,2,,,,,,,10,4,9,4,,,,,,,,,,,997.4446,997.9306,998.1625,1009.9782,space,11.7158,,1009.9782,89,9,1010.9219,1010.9219,1010.9303,,,,0,4,4,4,1,75,155,,,,,,,,
,,615ca96d7640b6c31b9e4462,65af5493ac39215515c25326,2024-01-22_23h58.05.364,bars,2023.2.3,Win32,10,657b66ea316d21385b68909f,,,,,,,,,,,1010.9303,1011.8714,,,1012.3036,1012.5183,,75,75,,,,,,,,,,,,,,,,bars/041.png,bars/mask004.png,,,,,,,,,,,,2,2,,,,,,,8,2,8,3,,,,,,,,,,,1011.8714,1012.3036,1012.5183,1013.6778,space,1.0594,,1013.6778,55,10,1014.6312,1014.6313,1014.6317,,,,0,5,5,5,1,20,85,,,,,,,,
,,615ca96d7640b6c31b9e4462,65af5493ac39215515c25326,2024-01-22_23h58.05.364,bars,2023.2.3,Win32,10,657b66ea316d21385b68909f,,,,,,,,,,,1014.6318,1015.6025,,,1016.034,1016.2482,,72,72,,,,,,,,,,,,,,,,bars/011.png,bars/mask007.png,,,,,,,,,,,,2,2,,,,,,,6,4,6,4,,,,,,,,,,,1015.6025,1016.034,1016.2482,1024.2836,space,7.9353,,1024.2836,88,13,1025.2337,1025.2337,1025.242,,,,0,6,6,6,1,160,85,,,,,,,,
,,615ca96d7640b6c31b9e4462,65af5493ac39215515c25326,2024-01-22_23h58.05.364,bars,2023.2.3,Win32,10,657b66ea316d21385b68909f,,,,,,,,,,,1025.2421,1026.2159,,,1026.6452,1026.8594,,173,173,,,,,,,,,,,,,,,,bars/048.png,bars/mask000.png,,,,,,,,,,,,6,2,,,,,,,8,6,9,6,,,,,,,,,,,1026.2159,1026.6452,1026.8595,1028.7554,space,1.7919,,1028.7554,57,2,1029.7171,1029.7171,1029.7175,,,,0,7,7,7,1,50,175,,,,,,,,
,,615ca96d7640b6c31b9e4462,65af5493ac39215515c25326,2024-01-22_23h58.05.364,bars,2023.2.3,Win32,10,657b66ea316d21385b68909f,,,,,,,,,,,1029.7177,1030.6637,,,1031.0948,1031.3092,,58,58,,,,,,,,,,,,,,,,bars/034.png,bars/mask005.png,,,,,,,,,,,,6,2,,,,,,,10,8,10,8,,,,,,,,,,,1030.6637,1031.0947,1031.3092,1038.6065,space,7.1971,,1038.6065,67,7,1039.5622,1039.5623,1039.5629,,,,0,8,8,8,1,125,65,,,,,,,,
,,615ca96d7640b6c31b9e4462,65af5493ac39215515c25326,2024-01-22_23h58.05.364,bars,2023.2.3,Win32,10,657b66ea316d21385b68909f,,,,,,,,,,,1039.5631,1040.5347,,,1040.9698,1041.1821,,41,41,,,,,,,,,,,,,,,,bars/007.png,bars/mask003.png,,,,,,,,,,,,5,2,,,,,,,8,10,6,10,,,,,,,,,,,1040.5347,1040.9698,1041.1821,1047.4381,space,6.155,,1047.4381,46,14,1048.3858,1048.3858,1048.3863,,,,0,9,9,9,1,175,55,,,,,,,,
,,615ca96d7640b6c31b9e4462,65af5493ac39215515c25326,2024-01-22_23h58.05.364,bars,2023.2.3,Win32,10,657b66ea316d21385b68909f,,,,,,,,,,,1048.3864,1049.3385,,,1049.7679,1049.9865,,95,95,,,,,,,,,,,,,,,,bars/019.png,bars/mask006.png,,,,,,,,,,,,7,2,,,,,,,10,10,10,10,,,,,,,,,,,1049.3385,1049.7679,1049.9865,1054.956,space,4.8714,,1054.956,50,10,1055.8986,1055.8986,1055.899,,,,0,10,10,10,1,45,105,,,,,,,,
,,615ca96d7640b6c31b9e4462,65af5493ac39215515c25326,2024-01-22_23h58.05.364,bars,2023.2.3,Win32,10,657b66ea316d21385b68909f,,,,,,,,,,,1055.8991,1056.8429,,,1057.2764,1057.5098,,170,170,,,,,,,,,,,,,,,,bars/014.png,bars/mask002.png,,,,,,,,,,,,7,2,,,,,,,8,10,9,10,,,,,,,,,,,1056.8429,1057.2763,1057.5098,1065.5752,space,7.9586,,1065.5752,90,10,1066.523,1066.5231,1066.5235,,,,0,11,11,11,1,80,0,,,,,,,,
,,615ca96d7640b6c31b9e4462,65af5493ac39215515c25326,2024-01-22_23h58.05.364,bars,2023.2.3,Win32,10,657b66ea316d21385b68909f,,,,,,,,,,,1066.5236,1067.469,,,1067.898,1068.1135,,106,106,,,,,,,,,,,,,,,,bars/046.png,bars/mask008.png,,,,,,,,,,,,2,2,,,,,,,10,8,8,7,,,,,,,,,,,1067.469,1067.8979,1068.1135,1074.4676,space,6.2536,,1074.4677,49,21,1075.431,1075.431,1075.4315,,,,0,12,12,12,1,155,85,,,,,,,,
,,615ca96d7640b6c31b9e4462,65af5493ac39215515c25326,2024-01-22_23h58.05.364,bars,2023.2.3,Win32,10,657b66ea316d21385b68909f,,,,,,,,,,,1075.4317,1076.3761,,,1076.8047,1077.0215,,148,148,,,,,,,,,,,,,,,,bars/044.png,bars/mask000.png,,,,,,,,,,,,5,2,,,,,,,10,6,10,6,,,,,,,,,,,1076.3762,1076.8046,1077.0215,1078.4998,space,1.3775,,1078.4998,73,7,1079.4628,1079.4628,1079.4632,,,,0,13,13,13,1,75,155,,,,,,,,
,,615ca96d7640b6c31b9e4462,65af5493ac39215515c25326,2024-01-22_23h58.05.364,bars,2023.2.3,Win32,10,657b66ea316d21385b68909f,,,,,,,,,,,1079.4634,1080.4074,,,1080.8487,1081.0702,,105,105,,,,,,,,,,,,,,,,bars/009.png,bars/mask008.png,,,,,,,,,,,,4,2,,,,,,,8,4,9,4,,,,,,,,,,,1080.4074,1080.8487,1081.0702,1086.1433,space,4.9732,,1086.1434,90,0,1087.0914,1087.0914,1087.1,,,,0,14,14,14,1,15,105,,,,,,,,
,,615ca96d7640b6c31b9e4462,65af5493ac39215515c25326,2024-01-22_23h58.05.364,bars,2023.2.3,Win32,10,657b66ea316d21385b68909f,,,,,,,,,,,1087.1001,1088.0378,,,1088.4671,1088.6819,,83,83,,,,,,,,,,,,,,,,bars/001.png,bars/mask008.png,,,,,,,,,,,,2,2,,,,,,,10,2,10,2,,,,,,,,,,,1088.0378,1088.4671,1088.6819,1092.386,space,3.6038,,1092.386,47,2,1093.3573,1093.3573,1093.3578,,,,0,15,15,15,1,130,85,,,,,,,,
,,615ca96d7640b6c31b9e4462,65af5493ac39215515c25326,2024-01-22_23h58.05.364,bars,2023.2.3,Win32,10,657b66ea316d21385b68909f,,,,,,,,,,,1093.3578,1094.3031,,,1094.7292,1094.9448,,111,111,,,,,,,,,,,,,,,,bars/019.png,bars/mask005.png,,,,,,,,,,,,1,2,,,,,,,8,0,9,1,,,,,,,,,,,1094.3031,1094.7292,1094.9448,1100.7903,space,5.7423,,1100.7903,66,6,1101.7358,1101.7359,1101.7362,,,,0,16,16,16,1,45,105,,,,,,,,
,,615ca96d7640b6c31b9e4462,65af5493ac39215515c25326,2024-01-22_23h58.05.364,bars,2023.2.3,Win32,10,657b66ea316d21385b68909f,,,,,,,,,,,1101.7364,1102.6846,,,1103.1167,1103.3368,,28,208,,,,,,,,,,,,,,,,bars/031.png,bars/mask002.png,,,,,,,,,,,,0,2,,,,,,,10,0,10,0,,,,,,,,,,,1102.6846,1103.1167,1103.3368,1108.4036,space,4.966,,1108.4038,88,7,1109.3556,1109.3556,1109.356,,,,0,17,17,17,1,120,35,,,,,,,,
,,615ca96d7640b6c31b9e4462,65af5493ac39215515c25326,2024-01-22_23h58.05.364,bars,2023.2.3,Win32,10,657b66ea316d21385b68909f,,,,,,,,,,,1109.3562,1110.2989,,,1110.729,1110.9434,,167,167,,,,,,,,,,,,,,,,bars/048.png,bars/mask007.png,,,,,,,,,,,,3,2,,,,,,,10,2,10,4,,,,,,,,,,,1110.2989,1110.729,1110.9434,1114.2284,space,3.1829,,1114.2284,63,8,1115.1787,1115.1788,1115.1792,,,,0,18,18,18,1,50,175,,,,,,,,
,,615ca96d7640b6c31b9e4462,65af5493ac39215515c25326,2024-01-22_23h58.05.364,bars,2023.2.3,Win32,10,657b66ea316d21385b68909f,,,,,,,,,,,1115.1794,1116.1224,,,1116.552,1116.768,,104,104,,,,,,,,,,,,,,,,bars/021.png,bars/mask007.png,,,,,,,,,,,,0,2,,,,,,,8,4,8,4,,,,,,,,,,,1116.1224,1116.552,1116.768,1123.1616,space,6.293,,1123.1616,51,34,1124.104,1124.104,1124.1044,,,,0,19,19,19,1,155,70,,,,,,,,
,,615ca96d7640b6c31b9e4462,65af5493ac39215515c25326,2024-01-22_23h58.05.364,bars,2023.2.3,Win32,10,657b66ea316d21385b68909f,,,,,,,,,,,1124.1046,1125.0608,,,1125.4906,1125.7049,,29,29,,,,,,,,,,,,,,,,bars/036.png,bars/mask008.png,,,,,,,,,,,,4,2,,,,,,,10,6,9,5,,,,,,,,,,,1125.0608,1125.4906,1125.7049,1126.7587,space,0.9529,,1126.7587,64,9,1127.7002,1127.7003,1127.7007,,,,0,20,20,20,1,145,20,,,,,,,,
,,615ca96d7640b6c31b9e4462,65af5493ac39215515c25326,2024-01-22_23h58.05.364,bars,2023.2.3,Win32,10,657b66ea316d21385b68909f,,,,,,,,,,,1127.7009,1128.6516,,,1129.0998,1129.316,,130,-50,,,,,,,,,,,,,,,,bars/004.png,bars/mask001.png,,,,,,,,,,,,3,2,,,,,,,8,4,9,4,,,,,,,,,,,1128.6516,1129.0998,1129.3161,1141.177,space,11.7599,,1141.1771,75,5,1142.1306,1142.1306,1142.1393,,,,0,21,21,21,1,25,125,,,,,,,,
,,615ca96d7640b6c31b9e4462,65af5493ac39215515c25326,2024-01-22_23h58.05.364,bars,2023.2.3,Win32,10,657b66ea316d21385b68909f,,,,,,,,,,,1142.1394,1143.0719,,,1143.502,1143.7169,,69,69,,,,,,,,,,,,,,,,bars/042.png,bars/mask002.png,,,,,,,,,,,,4,2,,,,,,,6,6,8,5,,,,,,,,,,,1143.0719,1143.5019,1143.7169,1144.6679,space,0.8504,,1144.668,76,6,1145.63,1145.6301,1145.6305,,,,0,22,22,22,1,145,75,,,,,,,,
,,615ca96d7640b6c31b9e4462,65af5493ac39215515c25326,2024-01-22_23h58.05.364,bars,2023.2.3,Win32,10,657b66ea316d21385b68909f,,,,,,,,,,,1145.6306,1146.5744,,,1147.0096,1147.2246,,25,25,,,,,,,,,,,,,,,,bars/040.png,bars/mask007.png,,,,,,,,,,,,1,2,,,,,,,8,4,8,2,,,,,,,,,,,1146.5744,1147.0096,1147.2246,1156.4045,space,9.0799,,1156.4045,65,20,1157.3502,1157.3503,1157.3587,,,,0,23,23,23,1,140,5,,,,,,,,
,,615ca96d7640b6c31b9e4462,65af5493ac39215515c25326,2024-01-22_23h58.05.364,bars,2023.2.3,Win32,10,657b66ea316d21385b68909f,,,,,,,,,,,1157.3589,1158.299,,,1158.7398,1158.9586,,20,20,,,,,,,,,,,,,,,,bars/040.png,bars/mask003.png,,,,,,,,,,,,3,2,,,,,,,10,6,10,6,,,,,,,,,,,1158.299,1158.7398,1158.9586,1159.9167,space,0.8602,,1159.9167,60,15,1160.8625,1160.8625,1160.8628,,,,0,24,24,24,1,140,5,,,,,,,,
,,615ca96d7640b6c31b9e4462,65af5493ac39215515c25326,2024-01-22_23h58.05.364,bars,2023.2.3,Win32,10,657b66ea316d21385b68909f,,,,,,,,,,,1160.8629,1161.8066,,,1162.2429,1162.4578,,106,106,,,,,,,,,,,,,,,,bars/019.png,bars/mask006.png,,,,,,,,,,,,4,2,,,,,,,8,4,7,4,,,,,,,,,,,1161.8066,1162.2428,1162.4578,1170.5279,space,7.9681,,1170.528,61,1,1171.4767,1171.4767,1171.485,,,,0,25,25,25,1,45,105,,,,,,,,
,,615ca96d7640b6c31b9e4462,65af5493ac39215515c25326,2024-01-22_23h58.05.364,bars,2023.2.3,Win32,10,657b66ea316d21385b68909f,,,,,,,,,,,1171.4851,1172.4257,,,1172.8564,1173.0754,,139,139,,,,,,,,,,,,,,,,bars/003.png,bars/mask003.png,,,,,,,,,,,,6,2,,,,,,,10,6,9,6,,,,,,,,,,,1172.4257,1172.8564,1173.0754,1174.0359,space,0.8571,,1174.036,66,1,1174.9913,1174.9913,1174.9917,,,,0,26,26,26,1,25,140,,,,,,,,
,,615ca96d7640b6c31b9e4462,65af5493ac39215515c25326,2024-01-22_23h58.05.364,bars,2023.2.3,Win32,10,657b66ea316d21385b68909f,,,,,,,,,,,1174.9919,1175.9337,,,1176.3687,1176.5826,,150,150,,,,,,,,,,,,,,,,bars/003.png,bars/mask008.png,,,,,,,,,,,,3,2,,,,,,,8,4,9,4,,,,,,,,,,,1175.9337,1176.3686,1176.5826,1180.7398,space,4.0567,,1180.7398,55,10,1181.681,1181.681,1181.6891,,,,0,27,27,27,1,25,140,,,,,,,,
,,615ca96d7640b6c31b9e4462,65af5493ac39215515c25326,2024-01-22_23h58.05.364,bars,2023.2.3,Win32,10,657b66ea316d21385b68909f,,,,,,,,,,,1181.6893,1182.6288,,,1183.0582,1183.2729,,26,26,,,,,,,,,,,,,,,,bars/022.png,bars/mask000.png,,,,,,,,,,,,5,2,,,,,,,6,6,6,6,,,,,,,,,,,1182.6288,1183.0582,1183.273,1187.7344,space,4.3611,,1187.7344,69,6,1188.6913,1188.6914,1188.6918,,,,0,28,28,28,1,95,20,,,,,,,,
,,615ca96d7640b6c31b9e4462,65af5493ac39215515c25326,2024-01-22_23h58.05.364,bars,2023.2.3,Win32,10,657b66ea316d21385b68909f,,,,,,,,,,,1188.6919,1189.652,,,1190.0862,1190.3016,,122,122,,,,,,,,,,,,,,,,bars/028.png,bars/mask003.png,,,,,,,,,,,,5,2,,,,,,,4,4,3,5,,,,,,,,,,,1189.652,1190.0862,1190.3016,1194.8429,space,4.4411,,1194.8429,77,2,1195.793,1195.793,1195.7934,,,,0,29,29,29,1,45,120,,,,,,,,
,,615ca96d7640b6c31b9e4462,65af5493ac39215515c25326,2024-01-22_23h58.05.364,bars,2023.2.3,Win32,10,657b66ea316d21385b68909f,,,,,,,,,,,1195.7935,1196.7311,,,1197.1617,1197.3759,,90,90,,,,,,,,,,,,,,,,bars/037.png,bars/mask004.png,,,,,,,,,,,,1,2,,,,,,,2,2,1,2,,,,,,,,,,,1196.7312,1197.1617,1197.3759,1199.1887,space,1.7124,,1199.1887,60,15,1200.1329,1200.1329,1200.1335,,,,0,30,30,30,1,150,105,,,,,,,,
,,615ca96d7640b6c31b9e4462,65af5493ac39215515c25326,2024-01-22_23h58.05.364,bars,2023.2.3,Win32,10,657b66ea316d21385b68909f,,,,,,,,,,,1200.1335,1201.0798,,,1201.5088,1201.7231,,166,-14,,,,,,,,,,,,,,,,bars/033.png,bars/mask001.png,,,,,,,,,,,,2,2,,,,,,,4,4,4,3,,,,,,,,,,,1201.0798,1201.5088,1201.7231,1206.5804,space,4.757,,1206.5804,39,11,1207.5266,1207.5266,1207.5271,,,,0,31,31,31,1,25,155,,,,,,,,
,,615ca96d7640b6c31b9e4462,65af5493ac39215515c25326,2024-01-22_23h58.05.364,bars,2023.2.3,Win32,10,657b66ea316d21385b68909f,,,,,,,,,,,1207.5272,1208.4739,,,1208.9024,1209.1176,,156,-24,,,,,,,,,,,,,,,,bars/048.png,bars/mask003.png,,,,,,,,,,,,0,2,,,,,,,2,2,2,1,,,,,,,,,,,1208.4739,1208.9024,1209.1176,1217.5438,space,8.3262,,1217.5438,74,19,1218.4901,1218.4902,1218.4906,,,,0,32,32,32,1,50,175,,,,,,,,
,,615ca96d7640b6c31b9e4462,65af5493ac39215515c25326,2024-01-22_23h58.05.364,bars,2023.2.3,Win32,10,657b66ea316d21385b68909f,,,,,,,,,,,1218.4906,1219.4389,,,1219.882,1220.1004,,9,9,,,,,,,,,,,,,,,,bars/013.png,bars/mask009.png,,,,,,,,,,,,4,2,,,,,,,4,4,4,4,,,,,,,,,,,1219.4389,1219.882,1220.1004,1226.421,space,6.2202,,1226.421,66,1,1227.3791,1227.3791,1227.3795,,,,0,33,33,33,1,75,10,,,,,,,,
,,615ca96d7640b6c31b9e4462,65af5493ac39215515c25326,2024-01-22_23h58.05.364,bars,2023.2.3,Win32,10,657b66ea316d21385b68909f,,,,,,,,,,,1227.3797,1228.3241,,,1228.7527,1228.9712,,70,70,,,,,,,,,,,,,,,,bars/038.png,bars/mask002.png,,,,,,,,,,,,4,2,,,,,,,6,6,5,4,,,,,,,,,,,1228.3242,1228.7526,1228.9712,1231.5076,space,2.4387,,1231.5077,85,0,1232.4518,1232.4518,1232.4523,,,,0,34,34,34,1,165,70,,,,,,,,
,,615ca96d7640b6c31b9e4462,65af5493ac39215515c25326,2024-01-22_23h58.05.364,bars,2023.2.3,Win32,10,657b66ea316d21385b68909f,,,,,,,,,,,1232.4524,1233.3917,,,1233.8498,1234.0686,,77,77,,,,,,,,,,,,,,,,bars/047.png,bars/mask001.png,,,,,,,,,,,,2,2,,,,,,,4,4,5,3,,,,,,,,,,,1233.3918,1233.8498,1234.0686,1236.7093,space,2.54,,1236.7094,62,7,1237.6874,1237.6874,1237.6881,,,,0,35,35,35,1,15,70,,,,,,,,
,,615ca96d7640b6c31b9e4462,65af5493ac39215515c25326,2024-01-22_23h58.05.364,bars,2023.2.3,Win32,10,657b66ea316d21385b68909f,,,,,,,,,,,1237.6883,1238.6764,,,1239.119,1239.3341,,159,159,,,,,,,,,,,,,,,,bars/024.png,bars/mask001.png,,,,,,,,,,,,1,2,,,,,,,2,2,3,2,,,,,,,,,,,1238.6764,1239.119,1239.3343,1247.8172,space,8.3827,,1247.8172,39,11,1248.7869,1248.7869,1248.7874,,,,0,36,36,36,1,120,170,,,,,,,,
,,615ca96d7640b6c31b9e4462,65af5493ac39215515c25326,2024-01-22_23h58.05.364,bars,2023.2.3,Win32,10,657b66ea316d21385b68909f,,,,,,,,,,,1248.7876,1249.7407,,,1250.1734,1250.3881,,126,126,,,,,,,,,,,,,,,,bars/005.png,bars/mask005.png,,,,,,,,,,,,0,2,,,,,,,0,0,0,0,,,,,,,,,,,1249.7407,1250.1734,1250.3881,1260.0772,space,9.5889,,1260.0773,64,14,1261.0239,1261.0239,1261.0244,,,,0,37,37,37,1,10,140,,,,,,,,
,,615ca96d7640b6c31b9e4462,65af5493ac39215515c25326,2024-01-22_23h58.05.364,bars,2023.2.3,Win32,10,657b66ea316d21385b68909f,,,,,,,,,,,1261.0245,1261.9793,,,1262.4099,1262.6243,,117,117,,,,,,,,,,,,,,,,bars/015.png,bars/mask003.png,,,,,,,,,,,,2,1,,,,,,,2,2,2,2,,,,,,,,,,,1261.9793,1262.4099,1262.6243,1269.7894,space,7.0648,,1269.7894,7,43,1270.7378,1270.7378,1270.7388,,,,0,38,38,38,1,110,160,,,,,,,,
,,615ca96d7640b6c31b9e4462,65af5493ac39215515c25326,2024-01-22_23h58.05.364,bars,2023.2.3,Win32,10,657b66ea316d21385b68909f,,,,,,,,,,,1270.739,1271.6805,,,1272.1131,1272.3282,,33,33,,,,,,,,,,,,,,,,bars/013.png,bars/mask001.png,,,,,,,,,,,,1,2,,,,,,,4,4,6,5,,,,,,,,,,,1271.6805,1272.1131,1272.3282,1281.8002,space,9.3713,,1281.8002,42,23,1282.745,1282.745,1282.7461,,,,0,39,39,39,1,75,10,,,,,,,,
,,615ca96d7640b6c31b9e4462,65af5493ac39215515c25326,2024-01-22_23h58.05.364,bars,2023.2.3,Win32,10,657b66ea316d21385b68909f,,,,,,,,,,,1282.7463,1283.699,,,1284.1308,1284.3455,,0,0,,,,,,,,,,,,,,,,bars/014.png,bars/mask000.png,,,,,,,,,,,,2,2,,,,,,,2,2,2,2,,,,,,,,,,,1283.699,1284.1308,1284.3455,1286.251,space,1.8049,,1286.251,80,0,1287.2479,1287.2479,1287.2484,,,,0,40,40,40,1,80,0,,,,,,,,
,,615ca96d7640b6c31b9e4462,65af5493ac39215515c25326,2024-01-22_23h58.05.364,bars,2023.2.3,Win32,10,657b66ea316d21385b68909f,,,,,,,,,,,1287.2487,1288.2217,,,1288.6493,1288.8643,,59,59,,,,,,,,,,,,,,,,bars/030.png,bars/mask005.png,,,,,,,,,,,,2,2,,,,,,,4,4,2,2,,,,,,,,,,,1288.2218,1288.6493,1288.8643,1290.5543,space,1.5865,,1290.5543,81,6,1291.5026,1291.5026,1291.5031,,,,0,41,41,41,1,140,65,,,,,,,,
,,615ca96d7640b6c31b9e4462,65af5493ac39215515c25326,2024-01-22_23h58.05.364,bars,2023.2.3,Win32,10,657b66ea316d21385b68909f,,,,,,,,,,,1291.5032,1292.4453,,,1292.8779,1293.0971,,10,10,,,,,,,,,,,,,,,,bars/013.png,bars/mask000.png,,,,,,,,,,,,7,2,,,,,,,2,6,1,7,,,,,,,,,,,1292.4454,1292.8779,1293.0971,1297.4515,space,4.2487,,1297.4516,65,0,1298.4278,1298.4279,1298.4283,,,,0,42,42,42,1,75,10,,,,,,,,
,,615ca96d7640b6c31b9e4462,65af5493ac39215515c25326,2024-01-22_23h58.05.364,bars,2023.2.3,Win32,10,657b66ea316d21385b68909f,,,,,,,,,,,1298.4284,1299.3733,,,1299.8041,1300.0214,,99,99,,,,,,,,,,,,,,,,bars/037.png,bars/mask008.png,,,,,,,,,,,,6,2,,,,,,,0,8,0,8,,,,,,,,,,,1299.3733,1299.804,1300.0214,1309.5433,space,9.4211,,1309.5434,51,6,1310.4931,1310.4931,1310.4936,,,,0,43,43,43,1,150,105,,,,,,,,
,,615ca96d7640b6c31b9e4462,65af5493ac39215515c25326,2024-01-22_23h58.05.364,bars,2023.2.3,Win32,10,657b66ea316d21385b68909f,,,,,,,,,,,1310.4937,1311.44,,,1311.8768,1312.0914,,15,195,,,,,,,,,,,,,,,,bars/032.png,bars/mask000.png,,,,,,,,,,,,4,2,,,,,,,0,6,1,5,,,,,,,,,,,1311.44,1311.8768,1312.0914,1322.8519,space,10.6611,,1322.8519,70,5,1323.7972,1323.7972,1323.7976,,,,0,44,44,44,1,125,20,,,,,,,,
,,615ca96d7640b6c31b9e4462,65af5493ac39215515c25326,2024-01-22_23h58.05.364,bars,2023.2.3,Win32,10,657b66ea316d21385b68909f,,,,,,,,,,,1323.7978,1324.7329,,,1325.1636,1325.3782,,51,231,,,,,,,,,,,,,,,,bars/035.png,bars/mask003.png,,,,,,,,,,,,4,2,,,,,,,2,4,1,5,,,,,,,,,,,1324.7329,1325.1636,1325.3782,1337.865,space,12.3863,,1337.865,56,9,1338.8092,1338.8092,1338.8175,,,,0,45,45,45,1,175,60,,,,,,,,
,,615ca96d7640b6c31b9e4462,65af5493ac39215515c25326,2024-01-22_23h58.05.364,bars,2023.2.3,Win32,10,657b66ea316d21385b68909f,,,,,,,,,,,1338.8176,1339.7705,,,1340.202,1340.417,,65,65,,,,,,,,,,,,,,,,bars/035.png,bars/mask008.png,,,,,,,,,,,,3,2,,,,,,,4,2,3,3,,,,,,,,,,,1339.7705,1340.202,1340.417,1341.3623,space,0.8446,,1341.3624,70,5,1342.3037,1342.3038,1342.3041,,,,0,46,46,46,1,175,60,,,,,,,,
,,615ca96d7640b6c31b9e4462,65af5493ac39215515c25326,2024-01-22_23h58.05.364,bars,2023.2.3,Win32,10,657b66ea316d21385b68909f,,,,,,,,,,,1342.3043,1343.2529,,,1343.6849,1343.9001,,120,120,,,,,,,,,,,,,,,,bars/028.png,bars/mask006.png,,,,,,,,,,,,4,2,,,,,,,6,4,7,4,,,,,,,,,,,1343.253,1343.6849,1343.9001,1353.063,space,9.0614,,1353.063,75,0,1354.022,1354.022,1354.0304,,,,0,47,47,47,1,45,120,,,,,,,,
,,615ca96d7640b6c31b9e4462,65af5493ac39215515c25326,2024-01-22_23h58.05.364,bars,2023.2.3,Win32,10,657b66ea316d21385b68909f,,,,,,,,,,,1354.0304,1354.9673,,,1355.401,1355.6201,,53,53,,,,,,,,,,,,,,,,bars/029.png,bars/mask009.png,,,,,,,,,,,,1,2,,,,,,,4,2,4,2,,,,,,,,,,,1354.9674,1355.401,1355.6201,1361.4989,space,5.7782,,1361.499,37,8,1362.4401,1362.4401,1362.4406,,,,0,48,48,48,1,90,45,,,,,,,,
,,615ca96d7640b6c31b9e4462,65af5493ac39215515c25326,2024-01-22_23h58.05.364,bars,2023.2.3,Win32,10,657b66ea316d21385b68909f,,,,,,,,,,,1362.4407,1363.3855,,,1363.8143,1364.0302,,165,165,,,,,,,,,,,,,,,,bars/015.png,bars/mask008.png,,,,,,,,,,,,4,2,,,,,,,6,4,6,5,,,,,,,,,,,1363.3855,1363.8143,1364.0302,1372.3214,space,8.1854,,1372.3215,55,5,1373.2621,1373.2622,1373.2705,,,,0,49,49,49,1,110,160,,,,,,,,
,,615ca96d7640b6c31b9e4462,65af5493ac39215515c25326,2024-01-22_23h58.05.364,bars,2023.2.3,Win32,10,657b66ea316d21385b68909f,,,,,,,,,,,,,,,,,,,,,,,,,,,,,,,,,,,,,,,,,,,,,,,,,,,,,,,,,,,,,,,,,,,,,,,,,,,,,,,,,,,,,,,,,,,,,1373.2706,1433.2989,0,1,1,0,1,sequence_tables/blk048.csv
,,615ca96d7640b6c31b9e4462,65af5493ac39215515c25326,2024-01-22_23h58.05.364,bars,2023.2.3,Win32,10,657b66ea316d21385b68909f,,,,,,,,,,,1435.9731,1436.9122,,,1437.3387,1437.5534,,141,-39,,,,,,,,,,,,,,,,bars/004.png,bars/mask002.png,,,,,,,,,,,,2,2,,,,,,,8,4,8,5,,,,,,1433.3078,1435.9702,space,2.5706,,1436.9122,1437.3387,1437.5534,1446.9308,space,9.2773,,1446.9308,64,16,1447.8941,1447.8941,1447.9023,,,,0,0,0,0,1,25,125,,,,,,,,
,,615ca96d7640b6c31b9e4462,65af5493ac39215515c25326,2024-01-22_23h58.05.364,bars,2023.2.3,Win32,10,657b66ea316d21385b68909f,,,,,,,,,,,1447.9024,1448.8562,,,1449.2889,1449.5038,,21,201,,,,,,,,,,,,,,,,bars/013.png,bars/mask008.png,,,,,,,,,,,,5,2,,,,,,,10,6,10,8,,,,,,,,,,,1448.8563,1449.2889,1449.5038,1453.1903,space,3.5865,,1453.1903,54,11,1454.1373,1454.1373,1454.1378,,,,0,1,1,1,1,75,10,,,,,,,,
,,615ca96d7640b6c31b9e4462,65af5493ac39215515c25326,2024-01-22_23h58.05.364,bars,2023.2.3,Win32,10,657b66ea316d21385b68909f,,,,,,,,,,,1454.1379,1455.0831,,,1455.5148,1455.7257,,166,166,,,,,,,,,,,,,,,,bars/015.png,bars/mask009.png,,,,,,,,,,,,4,2,,,,,,,10,4,10,5,,,,,,,,,,,1455.0831,1455.5148,1455.7257,1458.6693,space,2.8432,,1458.6693,56,6,1459.6163,1459.6163,1459.6166,,,,0,2,2,2,1,110,160,,,,,,,,
,,615ca96d7640b6c31b9e4462,65af5493ac39215515c25326,2024-01-22_23h58.05.364,bars,2023.2.3,Win32,10,657b66ea316d21385b68909f,,,,,,,,,,,1459.6169,1460.564,,,1461.0013,1461.2151,,161,-19,,,,,,,,,,,,,,,,bars/024.png,bars/mask001.png,,,,,,,,,,,,4,2,,,,,,,8,6,8,5,,,,,,,,,,,1460.564,1461.0013,1461.2151,1464.1783,space,2.8627,,1464.1783,41,9,1465.1278,1465.1278,1465.1283,,,,0,3,3,3,1,120,170,,,,,,,,
,,615ca96d7640b6c31b9e4462,65af5493ac39215515c25326,2024-01-22_23h58.05.364,bars,2023.2.3,Win32,10,657b66ea316d21385b68909f,,,,,,,,,,,1465.1284,1466.0742,,,1466.5261,1466.7476,,74,74,,,,,,,,,,,,,,,,bars/002.png,bars/mask003.png,,,,,,,,,,,,6,2,,,,,,,10,8,10,9,,,,,,,,,,,1466.0742,1466.5261,1466.7476,1473.6098,space,6.7611,,1473.6099,56,11,1474.571,1474.571,1474.5715,,,,0,4,4,4,1,130,85,,,,,,,,
,,615ca96d7640b6c31b9e4462,65af5493ac39215515c25326,2024-01-22_23h58.05.364,bars,2023.2.3,Win32,10,657b66ea316d21385b68909f,,,,,,,,,,,1474.5716,1475.523,,,1475.959,1476.1733,,49,49,,,,,,,,,,,,,,,,bars/025.png,bars/mask005.png,,,,,,,,,,,,7,2,,,,,,,8,10,8,10,,,,,,,,,,,1475.523,1475.959,1476.1733,1480.2432,space,3.9699,,1480.2434,56,9,1481.1857,1481.1857,1481.1861,,,,0,5,5,5,1,105,40,,,,,,,,
,,615ca96d7640b6c31b9e4462,65af5493ac39215515c25326,2024-01-22_23h58.05.364,bars,2023.2.3,Win32,10,657b66ea316d21385b68909f,,,,,,,,,,,1481.1863,1482.1296,,,1482.5586,1482.7742,,65,65,,,,,,,,,,,,,,,,bars/007.png,bars/mask002.png,,,,,,,,,,,,7,2,,,,,,,10,10,10,10,,,,,,,,,,,1482.1296,1482.5585,1482.7742,1485.8449,space,2.9701,,1485.8449,70,10,1486.786,1486.7861,1486.7865,,,,0,6,6,6,1,175,55,,,,,,,,
,,615ca96d7640b6c31b9e4462,65af5493ac39215515c25326,2024-01-22_23h58.05.364,bars,2023.2.3,Win32,10,657b66ea316d21385b68909f,,,,,,,,,,,1486.7866,1487.7285,,,1488.1581,1488.3745,,9,9,,,,,,,,,,,,,,,,bars/016.png,bars/mask007.png,,,,,,,,,,,,2,2,,,,,,,8,10,7,10,,,,,,,,,,,1487.7285,1488.1581,1488.3745,1498.6504,space,10.1757,,1498.6504,31,24,1499.6011,1499.6011,1499.6095,,,,0,7,7,7,1,40,165,,,,,,,,
,,615ca96d7640b6c31b9e4462,65af5493ac39215515c25326,2024-01-22_23h58.05.364,bars,2023.2.3,Win32,10,657b66ea316d21385b68909f,,,,,,,,,,,1499.6096,1500.5446,,,1500.9778,1501.1918,,103,103,,,,,,,,,,,,,,,,bars/018.png,bars/mask008.png,,,,,,,,,,,,6,2,,,,,,,6,10,6,10,,,,,,,,,,,1500.5446,1500.9778,1501.1918,1505.3123,space,4.0201,,1505.3123,47,13,1506.283,1506.283,1506.2834,,,,0,8,8,8,1,150,90,,,,,,,,
,,615ca96d7640b6c31b9e4462,65af5493ac39215515c25326,2024-01-22_23h58.05.364,bars,2023.2.3,Win32,10,657b66ea316d21385b68909f,,,,,,,,,,,1506.2836,1507.2566,,,1507.6871,1507.903,,98,-82,,,,,,,,,,,,,,,,bars/019.png,bars/mask003.png,,,,,,,,,,,,6,2,,,,,,,8,8,8,8,,,,,,,,,,,1507.2566,1507.6871,1507.903,1517.8163,space,9.8113,,1517.8163,53,7,1518.7642,1518.7643,1518.7647,,,,0,9,9,9,1,45,105,,,,,,,,
,,615ca96d7640b6c31b9e4462,65af5493ac39215515c25326,2024-01-22_23h58.05.364,bars,2023.2.3,Win32,10,657b66ea316d21385b68909f,,,,,,,,,,,1518.7648,1519.7169,,,1520.1487,1520.3618,,166,166,,,,,,,,,,,,,,,,bars/024.png,bars/mask000.png,,,,,,,,,,,,9,2,,,,,,,6,10,4,10,,,,,,,,,,,1519.7169,1520.1487,1520.3619,1526.3192,space,5.8569,,1526.3193,46,4,1527.2996,1527.2996,1527.3001,,,,0,10,10,10,1,120,170,,,,,,,,
,,615ca96d7640b6c31b9e4462,65af5493ac39215515c25326,2024-01-22_23h58.05.364,bars,2023.2.3,Win32,10,657b66ea316d21385b68909f,,,,,,,,,,,1527.3003,1528.2434,,,1528.6723,1528.8909,,165,-15,,,,,,,,,,,,,,,,bars/020.png,bars/mask005.png,,,,,,,,,,,,8,2,,,,,,,4,8,3,10,,,,,,,,,,,1528.2434,1528.6723,1528.8909,1532.5755,space,3.5817,,1532.5755,50,5,1533.5406,1533.5406,1533.5411,,,,0,11,11,11,1,115,170,,,,,,,,
,,615ca96d7640b6c31b9e4462,65af5493ac39215515c25326,2024-01-22_23h58.05.364,bars,2023.2.3,Win32,10,657b66ea316d21385b68909f,,,,,,,,,,,1533.5412,1534.4943,,,1534.9246,1535.1425,,56,56,,,,,,,,,,,,,,,,bars/007.png,bars/mask006.png,,,,,,,,,,,,5,2,,,,,,,6,6,6,5,,,,,,,,,,,1534.4943,1534.9246,1535.1425,1537.3477,space,2.1048,,1537.3477,61,1,1538.3269,1538.3269,1538.3273,,,,0,12,12,12,1,175,55,,,,,,,,
,,615ca96d7640b6c31b9e4462,65af5493ac39215515c25326,2024-01-22_23h58.05.364,bars,2023.2.3,Win32,10,657b66ea316d21385b68909f,,,,,,,,,,,1538.3275,1539.2675,,,1539.6961,1539.9106,,64,64,,,,,,,,,,,,,,,,bars/011.png,bars/mask006.png,,,,,,,,,,,,2,2,,,,,,,8,8,7,7,,,,,,,,,,,1539.2675,1539.696,1539.9106,1542.655,space,2.6421,,1542.655,84,21,1543.6071,1543.6072,1543.6076,,,,0,13,13,13,1,160,85,,,,,,,,
,,615ca96d7640b6c31b9e4462,65af5493ac39215515c25326,2024-01-22_23h58.05.364,bars,2023.2.3,Win32,10,657b66ea316d21385b68909f,,,,,,,,,,,1543.6077,1544.5656,,,1544.9981,1545.2123,,73,73,,,,,,,,,,,,,,,,bars/011.png,bars/mask007.png,,,,,,,,,,,,6,2,,,,,,,6,10,6,10,,,,,,,,,,,1544.5656,1544.9981,1545.2123,1552.197,space,6.8839,,1552.197,87,12,1553.1467,1553.1467,1553.1471,,,,0,14,14,14,1,160,85,,,,,,,,
,,615ca96d7640b6c31b9e4462,65af5493ac39215515c25326,2024-01-22_23h58.05.364,bars,2023.2.3,Win32,10,657b66ea316d21385b68909f,,,,,,,,,,,1553.1473,1554.0902,,,1554.5219,1554.771,,27,27,,,,,,,,,,,,,,,,bars/029.png,bars/mask000.png,,,,,,,,,,,,4,2,,,,,,,4,10,5,10,,,,,,,,,,,1554.0902,1554.5219,1554.771,1557.6284,space,2.7605,,1557.6284,63,18,1558.5764,1558.5764,1558.5768,,,,0,15,15,15,1,90,45,,,,,,,,
,,615ca96d7640b6c31b9e4462,65af5493ac39215515c25326,2024-01-22_23h58.05.364,bars,2023.2.3,Win32,10,657b66ea316d21385b68909f,,,,,,,,,,,1558.577,1559.5256,,,1559.9561,1560.1705,,142,142,,,,,,,,,,,,,,,,bars/000.png,bars/mask003.png,,,,,,,,,,,,6,2,,,,,,,2,8,3,7,,,,,,,,,,,1559.5257,1559.9561,1560.1705,1563.0186,space,2.7478,,1563.0186,78,3,1563.9653,1563.9653,1563.9657,,,,0,16,16,16,1,40,145,,,,,,,,
,,615ca96d7640b6c31b9e4462,65af5493ac39215515c25326,2024-01-22_23h58.05.364,bars,2023.2.3,Win32,10,657b66ea316d21385b68909f,,,,,,,,,,,1563.9659,1564.9047,,,1565.3374,1565.5684,,131,131,,,,,,,,,,,,,,,,bars/023.png,bars/mask009.png,,,,,,,,,,,,3,2,,,,,,,4,6,4,7,,,,,,,,,,,1564.9047,1565.3374,1565.5684,1571.2532,space,5.5834,,1571.2532,69,16,1572.1998,1572.1999,1572.2002,,,,0,17,17,17,1,20,115,,,,,,,,
,,615ca96d7640b6c31b9e4462,65af5493ac39215515c25326,2024-01-22_23h58.05.364,bars,2023.2.3,Win32,10,657b66ea316d21385b68909f,,,,,,,,,,,1572.2005,1573.1526,,,1573.5808,1573.795,,11,11,,,,,,,,,,,,,,,,bars/036.png,bars/mask006.png,,,,,,,,,,,,4,2,,,,,,,6,4,6,5,,,,,,,,,,,1573.1526,1573.5808,1573.795,1581.6979,space,7.8022,,1581.6979,46,9,1582.652,1582.652,1582.6525,,,,0,18,18,18,1,145,20,,,,,,,,
,,615ca96d7640b6c31b9e4462,65af5493ac39215515c25326,2024-01-22_23h58.05.364,bars,2023.2.3,Win32,10,657b66ea316d21385b68909f,,,,,,,,,,,1582.6527,1583.5993,,,1584.0319,1584.2461,,162,-18,,,,,,,,,,,,,,,,bars/048.png,bars/mask006.png,,,,,,,,,,,,2,2,,,,,,,4,2,3,3,,,,,,,,,,,1583.5993,1584.0319,1584.2461,1588.153,space,3.8063,,1588.153,68,13,1589.0931,1589.0931,1589.0935,,,,0,19,19,19,1,50,175,,,,,,,,
,,615ca96d7640b6c31b9e4462,65af5493ac39215515c25326,2024-01-22_23h58.05.364,bars,2023.2.3,Win32,10,657b66ea316d21385b68909f,,,,,,,,,,,1589.0937,1590.0329,,,1590.4614,1590.6755,,103,103,,,,,,,,,,,,,,,,bars/021.png,bars/mask007.png,,,,,,,,,,,,0,2,,,,,,,2,0,1,0,,,,,,,,,,,1590.0329,1590.4614,1590.6755,1594.4645,space,3.6889,,1594.4646,52,33,1595.4188,1595.4188,1595.4192,,,,0,20,20,20,1,155,70,,,,,,,,
,,615ca96d7640b6c31b9e4462,65af5493ac39215515c25326,2024-01-22_23h58.05.364,bars,2023.2.3,Win32,10,657b66ea316d21385b68909f,,,,,,,,,,,1595.4194,1596.361,,,1596.7876,1597.0043,,101,101,,,,,,,,,,,,,,,,bars/002.png,bars/mask009.png,,,,,,,,,,,,0,2,,,,,,,4,0,5,0,,,,,,,,,,,1596.3611,1596.7875,1597.0044,1597.8953,space,0.7859,,1597.8953,29,16,1598.8406,1598.8406,1598.8411,,,,0,21,21,21,1,130,85,,,,,,,,
,,615ca96d7640b6c31b9e4462,65af5493ac39215515c25326,2024-01-22_23h58.05.364,bars,2023.2.3,Win32,10,657b66ea316d21385b68909f,,,,,,,,,,,1598.8412,1599.7862,,,1600.2229,1600.4377,,159,159,,,,,,,,,,,,,,,,bars/008.png,bars/mask005.png,,,,,,,,,,,,0,2,,,,,,,6,0,5,0,,,,,,,,,,,1599.7862,1600.2229,1600.4378,1603.2832,space,2.7453,,1603.2832,49,21,1604.2257,1604.2258,1604.2344,,,,0,22,22,22,1,110,0,,,,,,,,
,,615ca96d7640b6c31b9e4462,65af5493ac39215515c25326,2024-01-22_23h58.05.364,bars,2023.2.3,Win32,10,657b66ea316d21385b68909f,,,,,,,,,,,1604.2345,1605.1892,,,1605.6184,1605.8334,,161,161,,,,,,,,,,,,,,,,bars/049.png,bars/mask000.png,,,,,,,,,,,,8,1,,,,,,,8,0,8,0,,,,,,,,,,,1605.1893,1605.6184,1605.8335,1611.9162,space,5.9823,,1611.9163,1,46,1612.8653,1612.8653,1612.8741,,,,0,23,23,23,1,160,115,,,,,,,,
,,615ca96d7640b6c31b9e4462,65af5493ac39215515c25326,2024-01-22_23h58.05.364,bars,2023.2.3,Win32,10,657b66ea316d21385b68909f,,,,,,,,,,,1612.8743,1613.8115,,,1614.2439,1614.4585,,46,46,,,,,,,,,,,,,,,,bars/048.png,bars/mask004.png,,,,,,,,,,,,9,1,,,,,,,10,0,10,2,,,,,,,,,,,1613.8115,1614.2439,1614.4586,1626.5581,space,11.9991,,1626.5581,4,51,1627.5007,1627.5007,1627.5012,,,,0,24,24,24,1,50,175,,,,,,,,
,,615ca96d7640b6c31b9e4462,65af5493ac39215515c25326,2024-01-22_23h58.05.364,bars,2023.2.3,Win32,10,657b66ea316d21385b68909f,,,,,,,,,,,1627.5014,1628.4458,,,1628.8797,1629.095,,54,54,,,,,,,,,,,,,,,,bars/016.png,bars/mask007.png,,,,,,,,,,,,5,1,,,,,,,10,2,10,3,,,,,,,,,,,1628.4459,1628.8797,1629.095,1640.8256,space,11.6306,,1640.8256,14,69,1641.7715,1641.7715,1641.7719,,,,0,25,25,25,1,40,165,,,,,,,,
,,615ca96d7640b6c31b9e4462,65af5493ac39215515c25326,2024-01-22_23h58.05.364,bars,2023.2.3,Win32,10,657b66ea316d21385b68909f,,,,,,,,,,,1641.772,1642.7103,,,1643.1383,1643.3551,,109,109,,,,,,,,,,,,,,,,bars/025.png,bars/mask005.png,,,,,,,,,,,,6,1,,,,,,,8,4,7,3,,,,,,,,,,,1642.7103,1643.1383,1643.3551,1654.3464,space,10.8892,,1654.3464,4,69,1655.2921,1655.2921,1655.3009,,,,0,26,26,26,1,105,40,,,,,,,,
,,615ca96d7640b6c31b9e4462,65af5493ac39215515c25326,2024-01-22_23h58.05.364,bars,2023.2.3,Win32,10,657b66ea316d21385b68909f,,,,,,,,,,,1655.3009,1656.2384,,,1656.668,1656.8827,,162,162,,,,,,,,,,,,,,,,bars/049.png,bars/mask004.png,,,,,,,,,,,,7,1,,,,,,,6,2,7,2,,,,,,,,,,,1656.2385,1656.6679,1656.8828,1666.9639,space,9.9795,,1666.964,2,47,1667.9053,1667.9053,1667.9058,,,,0,27,27,27,1,160,115,,,,,,,,
,,615ca96d7640b6c31b9e4462,65af5493ac39215515c25326,2024-01-22_23h58.05.364,bars,2023.2.3,Win32,10,657b66ea316d21385b68909f,,,,,,,,,,,1667.906,1668.9223,,,1669.3888,1669.621,,149,-31,,,,,,,,,,,,,,,,bars/038.png,bars/mask005.png,,,,,,,,,,,,1,1,,,,,,,4,0,3,1,,,,,,,,,,,1668.9223,1669.3888,1669.621,1678.8417,space,9.117,,1678.8417,16,79,1679.7876,1679.7876,1679.7882,,,,0,28,28,28,1,165,70,,,,,,,,
,,615ca96d7640b6c31b9e4462,65af5493ac39215515c25326,2024-01-22_23h58.05.364,bars,2023.2.3,Win32,10,657b66ea316d21385b68909f,,,,,,,,,,,1679.7884,1680.7401,,,1681.1721,1681.3864,,143,143,,,,,,,,,,,,,,,,bars/020.png,bars/mask008.png,,,,,,,,,,,,0,2,,,,,,,6,2,6,1,,,,,,,,,,,1680.7401,1681.1721,1681.3864,1690.6632,space,9.176,,1690.6632,28,27,1691.6024,1691.6024,1691.6035,,,,0,29,29,29,1,115,170,,,,,,,,
,,615ca96d7640b6c31b9e4462,65af5493ac39215515c25326,2024-01-22_23h58.05.364,bars,2023.2.3,Win32,10,657b66ea316d21385b68909f,,,,,,,,,,,1691.6037,1692.561,,,1693.0052,1693.2187,,58,58,,,,,,,,,,,,,,,,bars/003.png,bars/mask006.png,,,,,,,,,,,,0,1,,,,,,,4,0,2,1,,,,,,,,,,,1692.561,1693.0052,1693.2187,1695.7292,space,2.4098,,1695.7292,33,82,1696.6727,1696.6727,1696.6738,,,,0,30,30,30,1,25,140,,,,,,,,
,,615ca96d7640b6c31b9e4462,65af5493ac39215515c25326,2024-01-22_23h58.05.364,bars,2023.2.3,Win32,10,657b66ea316d21385b68909f,,,,,,,,,,,1696.6739,1697.6154,,,1698.0502,1698.2648,,51,51,,,,,,,,,,,,,,,,bars/019.png,bars/mask005.png,,,,,,,,,,,,1,1,,,,,,,2,2,1,3,,,,,,,,,,,1697.6154,1698.0502,1698.2649,1705.9075,space,7.542,,1705.9075,6,54,1706.8581,1706.8581,1706.8665,,,,0,31,31,31,1,45,105,,,,,,,,
,,615ca96d7640b6c31b9e4462,65af5493ac39215515c25326,2024-01-22_23h58.05.364,bars,2023.2.3,Win32,10,657b66ea316d21385b68909f,,,,,,,,,,,1706.8667,1707.8033,,,1708.2343,1708.4592,,120,120,,,,,,,,,,,,,,,,bars/032.png,bars/mask004.png,,,,,,,,,,,,3,1,,,,,,,4,4,3,4,,,,,,,,,,,1707.8033,1708.2343,1708.4592,1711.4073,space,2.8477,,1711.4074,5,80,1712.3522,1712.3522,1712.3526,,,,0,32,32,32,1,125,20,,,,,,,,
,,615ca96d7640b6c31b9e4462,65af5493ac39215515c25326,2024-01-22_23h58.05.364,bars,2023.2.3,Win32,10,657b66ea316d21385b68909f,,,,,,,,,,,1712.3528,1713.2965,,,1713.726,1713.9429,,128,128,,,,,,,,,,,,,,,,bars/024.png,bars/mask005.png,,,,,,,,,,,,3,1,,,,,,,6,6,4,4,,,,,,,,,,,1713.2966,1713.726,1713.9429,1718.769,space,4.7254,,1718.769,8,42,1719.7136,1719.7136,1719.7141,,,,0,33,33,33,1,120,170,,,,,,,,
,,615ca96d7640b6c31b9e4462,65af5493ac39215515c25326,2024-01-22_23h58.05.364,bars,2023.2.3,Win32,10,657b66ea316d21385b68909f,,,,,,,,,,,1719.7142,1720.6688,,,1721.0981,1721.3124,,150,150,,,,,,,,,,,,,,,,bars/020.png,bars/mask006.png,,,,,,,,,,,,3,2,,,,,,,4,8,4,8,,,,,,,,,,,1720.6688,1721.0981,1721.3124,1725.9605,space,4.5479,,1725.9605,35,20,1726.8998,1726.8998,1726.901,,,,0,34,34,34,1,115,170,,,,,,,,
,,615ca96d7640b6c31b9e4462,65af5493ac39215515c25326,2024-01-22_23h58.05.364,bars,2023.2.3,Win32,10,657b66ea316d21385b68909f,,,,,,,,,,,1726.9011,1727.8484,,,1728.2808,1728.4965,,132,132,,,,,,,,,,,,,,,,bars/013.png,bars/mask004.png,,,,,,,,,,,,0,1,,,,,,,2,10,1,9,,,,,,,,,,,1727.8484,1728.2808,1728.4965,1731.5001,space,2.8989,,1731.5002,57,58,1732.4486,1732.4486,1732.4574,,,,0,35,35,35,1,75,10,,,,,,,,
,,615ca96d7640b6c31b9e4462,65af5493ac39215515c25326,2024-01-22_23h58.05.364,bars,2023.2.3,Win32,10,657b66ea316d21385b68909f,,,,,,,,,,,1732.4576,1733.3939,,,1733.8238,1734.042,,10,10,,,,,,,,,,,,,,,,bars/033.png,bars/mask000.png,,,,,,,,,,,,2,1,,,,,,,4,8,3,8,,,,,,,,,,,1733.394,1733.8238,1734.042,1741.0398,space,6.8972,,1741.0398,15,35,1741.9891,1741.9892,1741.9975,,,,0,36,36,36,1,25,155,,,,,,,,
,,615ca96d7640b6c31b9e4462,65af5493ac39215515c25326,2024-01-22_23h58.05.364,bars,2023.2.3,Win32,10,657b66ea316d21385b68909f,,,,,,,,,,,1741.9976,1742.9332,,,1743.3628,1743.577,,75,75,,,,,,,,,,,,,,,,bars/034.png,bars/mask009.png,,,,,,,,,,,,3,2,,,,,,,2,6,2,5,,,,,,,,,,,1742.9332,1743.3628,1743.577,1744.5294,space,0.8522,,1744.5295,50,10,1745.4868,1745.4868,1745.4879,,,,0,37,37,37,1,125,65,,,,,,,,
,,615ca96d7640b6c31b9e4462,65af5493ac39215515c25326,2024-01-22_23h58.05.364,bars,2023.2.3,Win32,10,657b66ea316d21385b68909f,,,,,,,,,,,1745.4881,1746.4329,,,1746.8618,1747.077,,121,121,,,,,,,,,,,,,,,,bars/018.png,bars/mask002.png,,,,,,,,,,,,0,1,,,,,,,4,8,4,10,,,,,,,,,,,1746.433,1746.8618,1747.077,1755.4491,space,8.2717,,1755.4492,29,31,1756.3948,1756.3948,1756.4036,,,,0,38,38,38,1,150,90,,,,,,,,
,,615ca96d7640b6c31b9e4462,65af5493ac39215515c25326,2024-01-22_23h58.05.364,bars,2023.2.3,Win32,10,657b66ea316d21385b68909f,,,,,,,,,,,1756.4038,1757.3452,,,1757.7739,1757.9892,,115,115,,,,,,,,,,,,,,,,bars/015.png,bars/mask002.png,,,,,,,,,,,,2,1,,,,,,,2,6,2,5,,,,,,,,,,,1757.3453,1757.7739,1757.9893,1763.4962,space,5.406,,1763.4962,5,45,1764.4459,1764.4459,1764.4464,,,,0,39,39,39,1,110,160,,,,,,,,
,,615ca96d7640b6c31b9e4462,65af5493ac39215515c25326,2024-01-22_23h58.05.364,bars,2023.2.3,Win32,10,657b66ea316d21385b68909f,,,,,,,,,,,1764.4466,1765.3936,,,1765.823,1766.0381,,56,56,,,,,,,,,,,,,,,,bars/046.png,bars/mask001.png,,,,,,,,,,,,0,2,,,,,,,4,8,2,7,,,,,,,,,,,1765.3936,1765.823,1766.0381,1772.9061,space,6.7676,,1772.9061,81,29,1773.887,1773.887,1773.8882,,,,0,40,40,40,1,155,85,,,,,,,,
,,615ca96d7640b6c31b9e4462,65af5493ac39215515c25326,2024-01-22_23h58.05.364,bars,2023.2.3,Win32,10,657b66ea316d21385b68909f,,,,,,,,,,,1773.8884,1774.8285,,,1775.2626,1775.4861,,14,14,,,,,,,,,,,,,,,,bars/041.png,bars/mask004.png,,,,,,,,,,,,4,1,,,,,,,6,10,5,10,,,,,,,,,,,1774.8285,1775.2625,1775.4861,1787.4653,space,11.8782,,1787.4653,6,71,1788.4125,1788.4125,1788.4137,,,,0,41,41,41,1,20,85,,,,,,,,
,,615ca96d7640b6c31b9e4462,65af5493ac39215515c25326,2024-01-22_23h58.05.364,bars,2023.2.3,Win32,10,657b66ea316d21385b68909f,,,,,,,,,,,1788.4137,1789.4031,,,1789.8358,1790.0524,,96,96,,,,,,,,,,,,,,,,bars/022.png,bars/mask004.png,,,,,,,,,,,,8,1,,,,,,,8,8,8,10,,,,,,,,,,,1789.4032,1789.8358,1790.0524,1792.6982,space,2.5451,,1792.6982,1,76,1793.6415,1793.6415,1793.6419,,,,0,42,42,42,1,95,20,,,,,,,,
,,615ca96d7640b6c31b9e4462,65af5493ac39215515c25326,2024-01-22_23h58.05.364,bars,2023.2.3,Win32,10,657b66ea316d21385b68909f,,,,,,,,,,,1793.6421,1794.5965,,,1795.0416,1795.2553,,69,69,,,,,,,,,,,,,,,,bars/042.png,bars/mask002.png,,,,,,,,,,,,5,2,,,,,,,10,6,10,6,,,,,,,,,,,1794.5965,1795.0416,1795.2553,1797.9867,space,2.6307,,1797.9867,76,6,1798.9405,1798.9405,1798.9499,,,,0,43,43,43,1,145,75,,,,,,,,
,,615ca96d7640b6c31b9e4462,65af5493ac39215515c25326,2024-01-22_23h58.05.364,bars,2023.2.3,Win32,10,657b66ea316d21385b68909f,,,,,,,,,,,1798.95,1799.883,,,1800.3136,1800.5276,,105,105,,,,,,,,,,,,,,,,bars/015.png,bars/mask007.png,,,,,,,,,,,,8,1,,,,,,,8,4,10,5,,,,,,,,,,,1799.8831,1800.3136,1800.5276,1806.2053,space,5.5772,,1806.2054,5,55,1807.1478,1807.1478,1807.1567,,,,0,44,44,44,1,110,160,,,,,,,,
,,615ca96d7640b6c31b9e4462,65af5493ac39215515c25326,2024-01-22_23h58.05.364,bars,2023.2.3,Win32,10,657b66ea316d21385b68909f,,,,,,,,,,,1807.1569,1808.0933,,,1808.523,1808.7443,,93,93,,,,,,,,,,,,,,,,bars/044.png,bars/mask007.png,,,,,,,,,,,,3,1,,,,,,,6,2,7,2,,,,,,,,,,,1808.0933,1808.5229,1808.7443,1810.2221,space,1.3772,,1810.2221,18,62,1811.1683,1811.1684,1811.1766,,,,0,45,45,45,1,75,155,,,,,,,,
,,615ca96d7640b6c31b9e4462,65af5493ac39215515c25326,2024-01-22_23h58.05.364,bars,2023.2.3,Win32,10,657b66ea316d21385b68909f,,,,,,,,,,,1811.1768,1812.1405,,,1812.5866,1812.8092,,149,149,,,,,,,,,,,,,,,,bars/037.png,bars/mask007.png,,,,,,,,,,,,5,1,,,,,,,4,0,5,0,,,,,,,,,,,1812.1406,1812.5865,1812.8092,1813.8884,space,0.9788,,1813.8884,1,44,1814.8377,1814.8377,1814.8382,,,,0,46,46,46,1,150,105,,,,,,,,
,,615ca96d7640b6c31b9e4462,65af5493ac39215515c25326,2024-01-22_23h58.05.364,bars,2023.2.3,Win32,10,657b66ea316d21385b68909f,,,,,,,,,,,1814.8383,1815.7799,,,1816.2103,1816.4243,,68,68,,,,,,,,,,,,,,,,bars/044.png,bars/mask005.png,,,,,,,,,,,,2,1,,,,,,,2,2,2,2,,,,,,,,,,,1815.7799,1816.2102,1816.4243,1824.0428,space,7.5181,,1824.0428,7,87,1824.9876,1824.9876,1824.9957,,,,0,47,47,47,1,75,155,,,,,,,,
,,615ca96d7640b6c31b9e4462,65af5493ac39215515c25326,2024-01-22_23h58.05.364,bars,2023.2.3,Win32,10,657b66ea316d21385b68909f,,,,,,,,,,,1824.9958,1825.9295,,,1826.3584,1826.5818,,147,147,,,,,,,,,,,,,,,,bars/017.png,bars/mask004.png,,,,,,,,,,,,1,1,,,,,,,0,4,1,5,,,,,,,,,,,1825.9295,1826.3584,1826.5819,1827.6406,space,0.9526,,1827.6406,2,78,1828.5855,1828.5855,1828.5936,,,,0,48,48,48,1,145,45,,,,,,,,
,,615ca96d7640b6c31b9e4462,65af5493ac39215515c25326,2024-01-22_23h58.05.364,bars,2023.2.3,Win32,10,657b66ea316d21385b68909f,,,,,,,,,,,1828.5937,1829.5509,,,1829.9825,1830.1975,,45,45,,,,,,,,,,,,,,,,bars/029.png,bars/mask004.png,,,,,,,,,,,,2,2,,,,,,,2,2,3,2,,,,,,,,,,,1829.5509,1829.9825,1830.1975,1837.1504,space,6.8525,,1837.1505,45,0,1838.1418,1838.1419,1838.1512,,,,0,49,49,49,1,90,45,,,,,,,,
,,615ca96d7640b6c31b9e4462,65af5493ac39215515c25326,2024-01-22_23h58.05.364,bars,2023.2.3,Win32,10,657b66ea316d21385b68909f,,,,,,,,,,,,,,,,,,,,,,,,,,,,,,,,,,,,,,,,,,,,,,,,,,,,,,,,,,,,,,,,,,,,,,,,,,,,,,,,,,,,,,,,,,,,,1838.1512,1898.1577,0,2,2,4,1,sequence_tables/blk028.csv
,,615ca96d7640b6c31b9e4462,65af5493ac39215515c25326,2024-01-22_23h58.05.364,bars,2023.2.3,Win32,10,657b66ea316d21385b68909f,,,,,,,,,,,1900.9163,1901.8607,,,1902.2944,1902.5091,,14,14,,,,,,,,,,,,,,,,bars/012.png,bars/mask004.png,,,,,,,,,,,,1,2,,,,,,,8,2,9,1,,,,,,1898.1663,1900.9136,space,2.6557,,1901.8608,1902.2944,1902.5092,1903.6699,space,1.0604,,1903.67,76,1,1904.6408,1904.6408,1904.649,,,,0,0,0,0,1,90,15,,,,,,,,
,,615ca96d7640b6c31b9e4462,65af5493ac39215515c25326,2024-01-22_23h58.05.364,bars,2023.2.3,Win32,10,657b66ea316d21385b68909f,,,,,,,,,,,1904.6492,1905.5834,,,1906.0124,1906.2272,,68,68,,,,,,,,,,,,,,,,bars/026.png,bars/mask000.png,,,,,,,,,,,,2,2,,,,,,,6,4,6,4,,,,,,,,,,,1905.5834,1906.0124,1906.2272,1909.8302,space,3.503,,1909.8302,33,17,1910.7778,1910.7778,1910.786,,,,0,1,1,1,1,35,85,,,,,,,,
,,615ca96d7640b6c31b9e4462,65af5493ac39215515c25326,2024-01-22_23h58.05.364,bars,2023.2.3,Win32,10,657b66ea316d21385b68909f,,,,,,,,,,,1910.7861,1911.7226,,,1912.1575,1912.3725,,123,123,,,,,,,,,,,,,,,,bars/034.png,bars/mask003.png,,,,,,,,,,,,7,1,,,,,,,8,2,8,2,,,,,,,,,,,1911.7226,1912.1575,1912.3725,1917.0214,space,4.5488,,1917.0214,2,58,1917.9762,1917.9762,1917.9774,,,,0,2,2,2,1,125,65,,,,,,,,
,,615ca96d7640b6c31b9e4462,65af5493ac39215515c25326,2024-01-22_23h58.05.364,bars,2023.2.3,Win32,10,657b66ea316d21385b68909f,,,,,,,,,,,1917.9776,1918.9228,,,1919.3609,1919.5756,,65,65,,,,,,,,,,,,,,,,bars/028.png,bars/mask004.png,,,,,,,,,,,,2,1,,,,,,,6,4,5,5,,,,,,,,,,,1918.9229,1919.3608,1919.5756,1923.3685,space,3.6915,,1923.3685,20,55,1924.3134,1924.3134,1924.3138,,,,0,3,3,3,1,45,120,,,,,,,,
,,615ca96d7640b6c31b9e4462,65af5493ac39215515c25326,2024-01-22_23h58.05.364,bars,2023.2.3,Win32,10,657b66ea316d21385b68909f,,,,,,,,,,,1924.3139,1925.2616,,,1925.6946,1925.9085,,32,212,,,,,,,,,,,,,,,,bars/023.png,bars/mask004.png,,,,,,,,,,,,3,1,,,,,,,4,2,5,1,,,,,,,,,,,1925.2616,1925.6945,1925.9085,1932.4515,space,6.4393,,1932.4515,12,83,1933.4016,1933.4016,1933.4019,,,,0,4,4,4,1,20,115,,,,,,,,
,,615ca96d7640b6c31b9e4462,65af5493ac39215515c25326,2024-01-22_23h58.05.364,bars,2023.2.3,Win32,10,657b66ea316d21385b68909f,,,,,,,,,,,1933.402,1934.3446,,,1934.7736,1934.9896,,141,-39,,,,,,,,,,,,,,,,bars/017.png,bars/mask000.png,,,,,,,,,,,,3,1,,,,,,,2,0,3,2,,,,,,,,,,,1934.3447,1934.7736,1934.9896,1941.7789,space,6.6882,,1941.779,4,84,1942.724,1942.724,1942.7324,,,,0,5,5,5,1,145,45,,,,,,,,
,,615ca96d7640b6c31b9e4462,65af5493ac39215515c25326,2024-01-22_23h58.05.364,bars,2023.2.3,Win32,10,657b66ea316d21385b68909f,,,,,,,,,,,1942.7325,1943.6675,,,1944.1069,1944.3214,,163,163,,,,,,,,,,,,,,,,bars/049.png,bars/mask009.png,,,,,,,,,,,,1,1,,,,,,,0,2,1,3,,,,,,,,,,,1943.6675,1944.1069,1944.3214,1947.1801,space,2.7586,,1947.1801,3,48,1948.1181,1948.1182,1948.1186,,,,0,6,6,6,1,160,115,,,,,,,,
,,615ca96d7640b6c31b9e4462,65af5493ac39215515c25326,2024-01-22_23h58.05.364,bars,2023.2.3,Win32,10,657b66ea316d21385b68909f,,,,,,,,,,,1948.1187,1949.0654,,,1949.4985,1949.7126,,128,128,,,,,,,,,,,,,,,,bars/023.png,bars/mask007.png,,,,,,,,,,,,0,2,,,,,,,2,0,2,0,,,,,,,,,,,1949.0654,1949.4985,1949.7127,1959.1218,space,9.3086,,1959.1218,72,13,1960.0688,1960.0688,1960.0776,,,,0,7,7,7,1,20,115,,,,,,,,
,,615ca96d7640b6c31b9e4462,65af5493ac39215515c25326,2024-01-22_23h58.05.364,bars,2023.2.3,Win32,10,657b66ea316d21385b68909f,,,,,,,,,,,1960.0778,1961.0209,,,1961.4543,1961.6711,,126,126,,,,,,,,,,,,,,,,bars/037.png,bars/mask007.png,,,,,,,,,,,,1,2,,,,,,,0,2,0,2,,,,,,,,,,,1961.0209,1961.4543,1961.6711,1966.9538,space,5.1819,,1966.9538,24,21,1967.8954,1967.8955,1967.9039,,,,0,8,8,8,1,150,105,,,,,,,,
,,615ca96d7640b6c31b9e4462,65af5493ac39215515c25326,2024-01-22_23h58.05.364,bars,2023.2.3,Win32,10,657b66ea316d21385b68909f,,,,,,,,,,,1967.9041,1968.9069,,,1969.3808,1969.5986,,169,169,,,,,,,,,,,,,,,,bars/007.png,bars/mask002.png,,,,,,,,,,,,0,1,,,,,,,0,4,0,4,,,,,,,,,,,1968.9069,1969.3807,1969.5986,1977.3278,space,7.6283,,1977.3278,6,66,1978.2745,1978.2746,1978.2756,,,,0,9,9,9,1,175,55,,,,,,,,
,,615ca96d7640b6c31b9e4462,65af5493ac39215515c25326,2024-01-22_23h58.05.364,bars,2023.2.3,Win32,10,657b66ea316d21385b68909f,,,,,,,,,,,1978.2758,1979.2563,,,1979.6864,1979.9008,,15,195,,,,,,,,,,,,,,,,bars/040.png,bars/mask005.png,,,,,,,,,,,,3,2,,,,,,,0,6,3,5,,,,,,,,,,,1979.2563,1979.6864,1979.9008,1988.2653,space,8.2623,,1988.2653,55,10,1989.2119,1989.212,1989.213,,,,0,10,10,10,1,140,5,,,,,,,,
,,615ca96d7640b6c31b9e4462,65af5493ac39215515c25326,2024-01-22_23h58.05.364,bars,2023.2.3,Win32,10,657b66ea316d21385b68909f,,,,,,,,,,,1989.2131,1990.1577,,,1990.5885,1990.8043,,63,63,,,,,,,,,,,,,,,,bars/010.png,bars/mask004.png,,,,,,,,,,,,4,2,,,,,,,2,4,3,5,,,,,,,,,,,1990.1577,1990.5885,1990.8043,1997.6822,space,6.7627,,1997.6822,78,8,1998.6305,1998.6305,1998.631,,,,0,11,11,11,1,165,55,,,,,,,,
,,615ca96d7640b6c31b9e4462,65af5493ac39215515c25326,2024-01-22_23h58.05.364,bars,2023.2.3,Win32,10,657b66ea316d21385b68909f,,,,,,,,,,,1998.6311,1999.5875,,,2000.0248,2000.249,,49,49,,,,,,,,,,,,,,,,bars/010.png,bars/mask004.png,,,,,,,,,,,,4,2,,,,,,,0,6,0,5,,,,,,,,,,,1999.5875,2000.0248,2000.249,2002.2571,space,1.9038,,2002.2571,64,6,2003.1992,2003.1992,2003.1996,,,,0,12,12,12,1,165,55,,,,,,,,
,,615ca96d7640b6c31b9e4462,65af5493ac39215515c25326,2024-01-22_23h58.05.364,bars,2023.2.3,Win32,10,657b66ea316d21385b68909f,,,,,,,,,,,2003.1998,2004.1409,,,2004.5696,2004.7834,,101,101,,,,,,,,,,,,,,,,bars/006.png,bars/mask006.png,,,,,,,,,,,,4,2,,,,,,,2,4,2,4,,,,,,,,,,,2004.1409,2004.5696,2004.7835,2011.0394,space,6.156,,2011.0395,66,1,2011.9862,2011.9862,2011.9943,,,,0,13,13,13,1,35,100,,,,,,,,
,,615ca96d7640b6c31b9e4462,65af5493ac39215515c25326,2024-01-22_23h58.05.364,bars,2023.2.3,Win32,10,657b66ea316d21385b68909f,,,,,,,,,,,2011.9944,2012.9312,,,2013.3616,2013.5864,,36,36,,,,,,,,,,,,,,,,bars/036.png,bars/mask003.png,,,,,,,,,,,,3,2,,,,,,,0,6,0,6,,,,,,,,,,,2012.9313,2013.3615,2013.5864,2017.5143,space,3.827,,2017.5144,71,16,2018.494,2018.4941,2018.4944,,,,0,14,14,14,1,145,20,,,,,,,,
,,615ca96d7640b6c31b9e4462,65af5493ac39215515c25326,2024-01-22_23h58.05.364,bars,2023.2.3,Win32,10,657b66ea316d21385b68909f,,,,,,,,,,,2018.4946,2019.4375,,,2019.866,2020.0826,,73,73,,,,,,,,,,,,,,,,bars/044.png,bars/mask006.png,,,,,,,,,,,,1,1,,,,,,,2,8,1,8,,,,,,,,,,,2019.4375,2019.866,2020.0826,2024.2996,space,4.1161,,2024.2996,2,82,2025.2658,2025.2658,2025.2669,,,,0,15,15,15,1,75,155,,,,,,,,
,,615ca96d7640b6c31b9e4462,65af5493ac39215515c25326,2024-01-22_23h58.05.364,bars,2023.2.3,Win32,10,657b66ea316d21385b68909f,,,,,,,,,,,2025.267,2026.2126,,,2026.6437,2026.8583,,36,36,,,,,,,,,,,,,,,,bars/041.png,bars/mask004.png,,,,,,,,,,,,0,1,,,,,,,0,10,0,9,,,,,,,,,,,2026.2126,2026.6437,2026.8583,2033.1125,space,6.1513,,2033.1125,16,49,2034.0572,2034.0573,2034.0577,,,,0,16,16,16,1,20,85,,,,,,,,
,,615ca96d7640b6c31b9e4462,65af5493ac39215515c25326,2024-01-22_23h58.05.364,bars,2023.2.3,Win32,10,657b66ea316d21385b68909f,,,,,,,,,,,2034.0579,2035.0233,,,2035.453,2035.6673,,154,154,,,,,,,,,,,,,,,,bars/040.png,bars/mask000.png,,,,,,,,,,,,0,1,,,,,,,0,10,0,10,,,,,,,,,,,2035.0234,2035.453,2035.6673,2048.3029,space,12.5354,,2048.3031,14,31,2049.2437,2049.2437,2049.2441,,,,0,17,17,17,1,140,5,,,,,,,,
,,615ca96d7640b6c31b9e4462,65af5493ac39215515c25326,2024-01-22_23h58.05.364,bars,2023.2.3,Win32,10,657b66ea316d21385b68909f,,,,,,,,,,,2049.2442,2050.1856,,,2050.6172,2050.8318,,124,124,,,,,,,,,,,,,,,,bars/018.png,bars/mask000.png,,,,,,,,,,,,0,1,,,,,,,0,10,0,9,,,,,,,,,,,2050.1856,2050.6172,2050.8318,2052.9439,space,2.0113,,2052.9439,26,34,2053.8833,2053.8833,2053.8917,,,,0,18,18,18,1,150,90,,,,,,,,
,,615ca96d7640b6c31b9e4462,65af5493ac39215515c25326,2024-01-22_23h58.05.364,bars,2023.2.3,Win32,10,657b66ea316d21385b68909f,,,,,,,,,,,2053.8918,2054.8304,,,2055.2665,2055.4806,,159,159,,,,,,,,,,,,,,,,bars/020.png,bars/mask005.png,,,,,,,,,,,,5,2,,,,,,,2,8,2,8,,,,,,,,,,,2054.8304,2055.2665,2055.4807,2059.4794,space,3.8976,,2059.4794,44,11,2060.4512,2060.4512,2060.4522,,,,0,19,19,19,1,115,170,,,,,,,,
,,615ca96d7640b6c31b9e4462,65af5493ac39215515c25326,2024-01-22_23h58.05.364,bars,2023.2.3,Win32,10,657b66ea316d21385b68909f,,,,,,,,,,,2060.4523,2061.3889,,,2061.8194,2062.037,,95,95,,,,,,,,,,,,,,,,bars/019.png,bars/mask006.png,,,,,,,,,,,,4,2,,,,,,,0,6,1,6,,,,,,,,,,,2061.3889,2061.8193,2062.037,2068.1454,space,6.0078,,2068.1455,50,10,2069.0954,2069.0954,2069.1036,,,,0,20,20,20,1,45,105,,,,,,,,
,,615ca96d7640b6c31b9e4462,65af5493ac39215515c25326,2024-01-22_23h58.05.364,bars,2023.2.3,Win32,10,657b66ea316d21385b68909f,,,,,,,,,,,2069.1038,2070.0487,,,2070.4778,2070.6922,,13,13,,,,,,,,,,,,,,,,bars/044.png,bars/mask000.png,,,,,,,,,,,,0,2,,,,,,,2,8,2,5,,,,,,,,,,,2070.0487,2070.4778,2070.6922,2075.2362,space,4.4436,,2075.2362,62,38,2076.1924,2076.1925,2076.1928,,,,0,21,21,21,1,75,155,,,,,,,,
,,615ca96d7640b6c31b9e4462,65af5493ac39215515c25326,2024-01-22_23h58.05.364,bars,2023.2.3,Win32,10,657b66ea316d21385b68909f,,,,,,,,,,,2076.193,2077.1354,,,2077.5913,2077.8295,,136,136,,,,,,,,,,,,,,,,bars/048.png,bars/mask008.png,,,,,,,,,,,,0,2,,,,,,,4,6,4,7,,,,,,,,,,,2077.1354,2077.5913,2077.8295,2087.3864,space,9.4447,,2087.3864,86,39,2088.3778,2088.3778,2088.3782,,,,0,22,22,22,1,50,175,,,,,,,,
,,615ca96d7640b6c31b9e4462,65af5493ac39215515c25326,2024-01-22_23h58.05.364,bars,2023.2.3,Win32,10,657b66ea316d21385b68909f,,,,,,,,,,,2088.3783,2089.3507,,,2089.7801,2089.9968,,59,59,,,,,,,,,,,,,,,,bars/042.png,bars/mask000.png,,,,,,,,,,,,2,2,,,,,,,2,4,3,4,,,,,,,,,,,2089.3507,2089.7801,2089.9968,2092.849,space,2.7508,,2092.849,86,16,2093.7972,2093.7973,2093.7977,,,,0,23,23,23,1,145,75,,,,,,,,
,,615ca96d7640b6c31b9e4462,65af5493ac39215515c25326,2024-01-22_23h58.05.364,bars,2023.2.3,Win32,10,657b66ea316d21385b68909f,,,,,,,,,,,2093.7978,2094.7462,,,2095.1833,2095.3978,,163,-17,,,,,,,,,,,,,,,,bars/020.png,bars/mask002.png,,,,,,,,,,,,2,2,,,,,,,0,2,1,3,,,,,,,,,,,2094.7462,2095.1832,2095.3978,2100.9152,space,5.4164,,2100.9152,48,7,2101.8659,2101.8659,2101.8663,,,,0,24,24,24,1,115,170,,,,,,,,
,,615ca96d7640b6c31b9e4462,65af5493ac39215515c25326,2024-01-22_23h58.05.364,bars,2023.2.3,Win32,10,657b66ea316d21385b68909f,,,,,,,,,,,2101.8665,2102.8101,,,2103.2422,2103.4574,,20,200,,,,,,,,,,,,,,,,bars/032.png,bars/mask008.png,,,,,,,,,,,,0,2,,,,,,,0,0,2,0,,,,,,,,,,,2102.8101,2103.2422,2103.4575,2107.4725,space,3.9141,,2107.4725,75,0,2108.4226,2108.4227,2108.4231,,,,0,25,25,25,1,125,20,,,,,,,,
,,615ca96d7640b6c31b9e4462,65af5493ac39215515c25326,2024-01-22_23h58.05.364,bars,2023.2.3,Win32,10,657b66ea316d21385b68909f,,,,,,,,,,,2108.4232,2109.3657,,,2109.7935,2110.0082,,91,91,,,,,,,,,,,,,,,,bars/022.png,bars/mask001.png,,,,,,,,,,,,1,1,,,,,,,2,0,1,0,,,,,,,,,,,2109.3657,2109.7934,2110.0082,2118.6703,space,8.5612,,2118.6703,4,71,2119.6509,2119.6509,2119.652,,,,0,26,26,26,1,95,20,,,,,,,,
,,615ca96d7640b6c31b9e4462,65af5493ac39215515c25326,2024-01-22_23h58.05.364,bars,2023.2.3,Win32,10,657b66ea316d21385b68909f,,,,,,,,,,,2119.6522,2120.6,,,2121.0313,2121.2463,,26,206,,,,,,,,,,,,,,,,bars/000.png,bars/mask000.png,,,,,,,,,,,,0,1,,,,,,,0,2,0,2,,,,,,,,,,,2120.6001,2121.0313,2121.2463,2127.302,space,5.9543,,2127.302,14,61,2128.2431,2128.2431,2128.2436,,,,0,27,27,27,1,40,145,,,,,,,,
,,615ca96d7640b6c31b9e4462,65af5493ac39215515c25326,2024-01-22_23h58.05.364,bars,2023.2.3,Win32,10,657b66ea316d21385b68909f,,,,,,,,,,,2128.2438,2129.1903,,,2129.6196,2129.8374,,146,146,,,,,,,,,,,,,,,,bars/049.png,bars/mask003.png,,,,,,,,,,,,0,1,,,,,,,0,0,0,1,,,,,,,,,,,2129.1903,2129.6196,2129.8374,2137.1514,space,7.2138,9.99999E-05,2137.1514,14,31,2138.1182,2138.1182,2138.1268,,,,0,28,28,28,1,160,115,,,,,,,,
,,615ca96d7640b6c31b9e4462,65af5493ac39215515c25326,2024-01-22_23h58.05.364,bars,2023.2.3,Win32,10,657b66ea316d21385b68909f,,,,,,,,,,,2138.127,2139.0658,,,2139.4949,2139.7093,,58,58,,,,,,,,,,,,,,,,bars/038.png,bars/mask009.png,,,,,,,,,,,,0,2,,,,,,,2,0,2,0,,,,,,,,,,,2139.0658,2139.4948,2139.7094,2140.7643,space,0.9542,,2140.7643,73,12,2141.7054,2141.7055,2141.7066,,,,0,29,29,29,1,165,70,,,,,,,,
,,615ca96d7640b6c31b9e4462,65af5493ac39215515c25326,2024-01-22_23h58.05.364,bars,2023.2.3,Win32,10,657b66ea316d21385b68909f,,,,,,,,,,,2141.7067,2142.6497,,,2143.0824,2143.2966,,105,-75,,,,,,,,,,,,,,,,bars/022.png,bars/mask000.png,,,,,,,,,,,,0,1,,,,,,,0,2,0,2,,,,,,,,,,,2142.6497,2143.0824,2143.2966,2156.0929,space,12.6954,,2156.0929,10,85,2157.0401,2157.0401,2157.0489,,,,0,30,30,30,1,95,20,,,,,,,,
,,615ca96d7640b6c31b9e4462,65af5493ac39215515c25326,2024-01-22_23h58.05.364,bars,2023.2.3,Win32,10,657b66ea316d21385b68909f,,,,,,,,,,,2157.0491,2157.9899,,,2158.4155,2158.6353,,62,62,,,,,,,,,,,,,,,,bars/000.png,bars/mask005.png,,,,,,,,,,,,0,1,,,,,,,2,0,1,0,,,,,,,,,,,2157.9899,2158.4155,2158.6353,2166.0232,space,7.2876,,2166.0232,22,83,2166.9723,2166.9723,2166.9804,,,,0,31,31,31,1,40,145,,,,,,,,
,,615ca96d7640b6c31b9e4462,65af5493ac39215515c25326,2024-01-22_23h58.05.364,bars,2023.2.3,Win32,10,657b66ea316d21385b68909f,,,,,,,,,,,2166.9806,2167.9189,,,2168.3539,2168.5688,,49,49,,,,,,,,,,,,,,,,bars/007.png,bars/mask000.png,,,,,,,,,,,,2,2,,,,,,,4,2,5,2,,,,,,,,,,,2167.9189,2168.3538,2168.5688,2172.1544,space,3.4844,,2172.1544,54,6,2173.098,2173.098,2173.0992,,,,0,32,32,32,1,175,55,,,,,,,,
,,615ca96d7640b6c31b9e4462,65af5493ac39215515c25326,2024-01-22_23h58.05.364,bars,2023.2.3,Win32,10,657b66ea316d21385b68909f,,,,,,,,,,,2173.0993,2174.042,,,2174.5744,2174.7886,,144,144,,,,,,,,,,,,,,,,bars/023.png,bars/mask001.png,,,,,,,,,,,,0,2,,,,,,,2,0,3,1,,,,,,,,,,,2174.042,2174.5744,2174.7886,2175.8489,space,0.9599,,2175.8489,56,29,2176.7946,2176.7946,2176.7951,,,,0,33,33,33,1,20,115,,,,,,,,
,,615ca96d7640b6c31b9e4462,65af5493ac39215515c25326,2024-01-22_23h58.05.364,bars,2023.2.3,Win32,10,657b66ea316d21385b68909f,,,,,,,,,,,2176.7952,2177.736,,,2178.1713,2178.3859,,54,54,,,,,,,,,,,,,,,,bars/042.png,bars/mask002.png,,,,,,,,,,,,0,2,,,,,,,0,0,0,0,,,,,,,,,,,2177.736,2178.1712,2178.386,2189.7039,space,11.2176,,2189.704,89,21,2190.6477,2190.6477,2190.6559,,,,0,34,34,34,1,145,75,,,,,,,,
,,615ca96d7640b6c31b9e4462,65af5493ac39215515c25326,2024-01-22_23h58.05.364,bars,2023.2.3,Win32,10,657b66ea316d21385b68909f,,,,,,,,,,,2190.656,2191.5903,,,2192.0196,2192.234,,59,59,,,,,,,,,,,,,,,,bars/031.png,bars/mask002.png,,,,,,,,,,,,0,2,,,,,,,0,2,1,1,,,,,,,,,,,2191.5903,2192.0195,2192.2341,2199.7881,space,7.4532,,2199.7881,61,24,2200.7379,2200.738,2200.7462,,,,0,35,35,35,1,120,35,,,,,,,,
,,615ca96d7640b6c31b9e4462,65af5493ac39215515c25326,2024-01-22_23h58.05.364,bars,2023.2.3,Win32,10,657b66ea316d21385b68909f,,,,,,,,,,,2200.7463,2201.6832,,,2202.1186,2202.3326,,95,95,,,,,,,,,,,,,,,,bars/039.png,bars/mask006.png,,,,,,,,,,,,0,2,,,,,,,0,0,0,0,,,,,,,,,,,2201.6832,2202.1186,2202.3326,2206.8956,space,4.4628,,2206.8956,80,10,2207.8393,2207.8393,2207.8397,,,,0,36,36,36,1,175,105,,,,,,,,
,,615ca96d7640b6c31b9e4462,65af5493ac39215515c25326,2024-01-22_23h58.05.364,bars,2023.2.3,Win32,10,657b66ea316d21385b68909f,,,,,,,,,,,2207.8399,2208.8178,,,2209.2524,2209.4819,,16,196,,,,,,,,,,,,,,,,bars/009.png,bars/mask006.png,,,,,,,,,,,,0,1,,,,,,,0,0,0,0,,,,,,,,,,,2208.8178,2209.2524,2209.4819,2219.9362,space,10.3536,,2219.9362,1,89,2220.8962,2220.8962,2220.8975,,,,0,37,37,37,1,15,105,,,,,,,,
,,615ca96d7640b6c31b9e4462,65af5493ac39215515c25326,2024-01-22_23h58.05.364,bars,2023.2.3,Win32,10,657b66ea316d21385b68909f,,,,,,,,,,,2220.8977,2221.8471,,,2222.2838,2222.4991,,74,74,,,,,,,,,,,,,,,,bars/025.png,bars/mask001.png,,,,,,,,,,,,0,1,,,,,,,0,0,0,1,,,,,,,,,,,2221.8471,2222.2837,2222.4992,2226.1886,space,3.589,,2226.1886,31,34,2227.1794,2227.1794,2227.18,,,,0,38,38,38,1,105,40,,,,,,,,
,,615ca96d7640b6c31b9e4462,65af5493ac39215515c25326,2024-01-22_23h58.05.364,bars,2023.2.3,Win32,10,657b66ea316d21385b68909f,,,,,,,,,,,2227.1802,2228.1645,,,2228.5943,2228.8088,,154,-26,,,,,,,,,,,,,,,,bars/046.png,bars/mask002.png,,,,,,,,,,,,3,1,,,,,,,2,0,3,0,,,,,,,,,,,2228.1645,2228.5943,2228.8089,2238.2138,space,9.3043,,2238.2138,1,69,2239.1659,2239.1659,2239.1663,,,,0,39,39,39,1,155,85,,,,,,,,
,,615ca96d7640b6c31b9e4462,65af5493ac39215515c25326,2024-01-22_23h58.05.364,bars,2023.2.3,Win32,10,657b66ea316d21385b68909f,,,,,,,,,,,2239.1665,2240.1466,,,2240.5751,2240.7897,,117,117,,,,,,,,,,,,,,,,bars/037.png,bars/mask001.png,,,,,,,,,,,,1,2,,,,,,,4,0,4,1,,,,,,,,,,,2240.1466,2240.5751,2240.7897,2245.117,space,4.2268,,2245.117,33,12,2246.0601,2246.0601,2246.0611,,,,0,40,40,40,1,150,105,,,,,,,,
,,615ca96d7640b6c31b9e4462,65af5493ac39215515c25326,2024-01-22_23h58.05.364,bars,2023.2.3,Win32,10,657b66ea316d21385b68909f,,,,,,,,,,,2246.0612,2247.016,,,2247.4444,2247.6587,,172,172,,,,,,,,,,,,,,,,bars/033.png,bars/mask005.png,,,,,,,,,,,,0,2,,,,,,,6,0,4,0,,,,,,,,,,,2247.0161,2247.4444,2247.6587,2253.2323,space,5.4733,,2253.2323,33,17,2254.1993,2254.1993,2254.1998,,,,0,41,41,41,1,25,155,,,,,,,,
,,615ca96d7640b6c31b9e4462,65af5493ac39215515c25326,2024-01-22_23h58.05.364,bars,2023.2.3,Win32,10,657b66ea316d21385b68909f,,,,,,,,,,,2254.1999,2255.1416,,,2255.5696,2255.7845,,10,10,,,,,,,,,,,,,,,,bars/023.png,bars/mask004.png,,,,,,,,,,,,3,1,,,,,,,4,2,5,2,,,,,,,,,,,2255.1417,2255.5696,2255.7845,2263.9638,space,8.0788,,2263.9638,10,75,2264.9174,2264.9174,2264.9185,,,,0,42,42,42,1,20,115,,,,,,,,
,,615ca96d7640b6c31b9e4462,65af5493ac39215515c25326,2024-01-22_23h58.05.364,bars,2023.2.3,Win32,10,657b66ea316d21385b68909f,,,,,,,,,,,2264.9185,2265.8618,,,2266.2927,2266.5068,,126,126,,,,,,,,,,,,,,,,bars/036.png,bars/mask002.png,,,,,,,,,,,,3,1,,,,,,,6,0,7,1,,,,,,,,,,,2265.8618,2266.2927,2266.5068,2272.6337,space,6.0265,,2272.6338,19,74,2273.5758,2273.5758,2273.5762,,,,0,43,43,43,1,145,20,,,,,,,,
,,615ca96d7640b6c31b9e4462,65af5493ac39215515c25326,2024-01-22_23h58.05.364,bars,2023.2.3,Win32,10,657b66ea316d21385b68909f,,,,,,,,,,,2273.5764,2274.5279,,,2274.9846,2275.1992,,26,26,,,,,,,,,,,,,,,,bars/000.png,bars/mask006.png,,,,,,,,,,,,3,1,,,,,,,4,2,6,2,,,,,,,,,,,2274.5279,2274.9846,2275.1993,2277.7192,space,2.4194,,2277.7192,14,61,2278.6928,2278.6928,2278.6932,,,,0,44,44,44,1,40,145,,,,,,,,
,,615ca96d7640b6c31b9e4462,65af5493ac39215515c25326,2024-01-22_23h58.05.364,bars,2023.2.3,Win32,10,657b66ea316d21385b68909f,,,,,,,,,,,2278.6934,2279.6391,,,2280.0699,2280.2846,,104,104,,,,,,,,,,,,,,,,bars/020.png,bars/mask002.png,,,,,,,,,,,,2,1,,,,,,,2,4,3,4,,,,,,,,,,,2279.6391,2280.0698,2280.2846,2282.1814,space,1.7964,,2282.1814,11,66,2283.129,2283.129,2283.1295,,,,0,45,45,45,1,115,170,,,,,,,,
,,615ca96d7640b6c31b9e4462,65af5493ac39215515c25326,2024-01-22_23h58.05.364,bars,2023.2.3,Win32,10,657b66ea316d21385b68909f,,,,,,,,,,,2283.1296,2284.0721,,,2284.5007,2284.7153,,157,157,,,,,,,,,,,,,,,,bars/035.png,bars/mask001.png,,,,,,,,,,,,2,1,,,,,,,4,2,4,1,,,,,,,,,,,2284.0721,2284.5007,2284.7153,2288.1016,space,3.2847,,2288.1017,18,83,2289.0445,2289.0445,2289.0448,,,,0,46,46,46,1,175,60,,,,,,,,
,,615ca96d7640b6c31b9e4462,65af5493ac39215515c25326,2024-01-22_23h58.05.364,bars,2023.2.3,Win32,10,657b66ea316d21385b68909f,,,,,,,,,,,2289.045,2289.9865,,,2290.4176,2290.6327,,12,12,,,,,,,,,,,,,,,,bars/048.png,bars/mask002.png,,,,,,,,,,,,0,2,,,,,,,6,0,6,0,,,,,,,,,,,2289.9865,2290.4176,2290.6327,2296.6452,space,5.9117,,2296.6453,38,17,2297.5913,2297.5913,2297.5923,,,,0,47,47,47,1,50,175,,,,,,,,
,,615ca96d7640b6c31b9e4462,65af5493ac39215515c25326,2024-01-22_23h58.05.364,bars,2023.2.3,Win32,10,657b66ea316d21385b68909f,,,,,,,,,,,2297.5924,2298.5455,,,2298.9789,2299.2042,,55,55,,,,,,,,,,,,,,,,bars/017.png,bars/mask007.png,,,,,,,,,,,,1,2,,,,,,,4,2,5,2,,,,,,,,,,,2298.5455,2298.9789,2299.2042,2302.1775,space,2.8734,,2302.1775,90,10,2303.1262,2303.1262,2303.1267,,,,0,48,48,48,1,145,45,,,,,,,,
,,615ca96d7640b6c31b9e4462,65af5493ac39215515c25326,2024-01-22_23h58.05.364,bars,2023.2.3,Win32,10,657b66ea316d21385b68909f,,,,,,,,,,,2303.1268,2304.0663,,,2304.4954,2304.71,,144,144,,,,,,,,,,,,,,,,bars/003.png,bars/mask001.png,,,,,,,,,,,,3,2,,,,,,,2,4,4,3,,,,,,,,,,,2304.0663,2304.4954,2304.71,2307.5609,space,2.7508,,2307.5609,61,4,2308.5055,2308.5056,2308.506,,,,0,49,49,49,1,25,140,,,,,,,,
,,615ca96d7640b6c31b9e4462,65af5493ac39215515c25326,2024-01-22_23h58.05.364,bars,2023.2.3,Win32,10,657b66ea316d21385b68909f,,,,,,,,,,,,,,,,,,,,,,,,,,,,,,,,,,,,,,,,,,,,,,,,,,,,,,,,,,,,,,,,,,,,,,,,,,,,,,,,,,,,,,,,,,,,,2308.506,2368.4752,0,3,3,3,1,sequence_tables/blk015.csv
,,615ca96d7640b6c31b9e4462,65af5493ac39215515c25326,2024-01-22_23h58.05.364,bars,2023.2.3,Win32,10,657b66ea316d21385b68909f,,,,,,,,,,,2369.86,2370.8165,,,2371.2518,2371.4661,,82,82,,,,,,,,,,,,,,,,bars/006.png,bars/mask003.png,,,,,,,,,,,,4,2,,,,,,,0,10,1,9,,,,,,2368.4835,2369.8566,space,1.2813,,2370.8165,2371.2517,2371.4662,2377.1914,space,5.6242,,2377.1914,47,18,2378.1787,2378.1787,2378.1792,,,,0,0,0,0,1,35,100,,,,,,,,
,,615ca96d7640b6c31b9e4462,65af5493ac39215515c25326,2024-01-22_23h58.05.364,bars,2023.2.3,Win32,10,657b66ea316d21385b68909f,,,,,,,,,,,2378.1793,2379.125,,,2379.5497,2379.764,,80,80,,,,,,,,,,,,,,,,bars/035.png,bars/mask006.png,,,,,,,,,,,,3,2,,,,,,,0,10,0,10,,,,,,,,,,,2379.125,2379.5496,2379.7641,2384.5334,space,4.6685,,2384.5334,85,20,2385.4803,2385.4803,2385.4807,,,,0,1,1,1,1,175,60,,,,,,,,
,,615ca96d7640b6c31b9e4462,65af5493ac39215515c25326,2024-01-22_23h58.05.364,bars,2023.2.3,Win32,10,657b66ea316d21385b68909f,,,,,,,,,,,2385.4809,2386.4314,,,2386.8635,2387.0793,,156,156,,,,,,,,,,,,,,,,bars/008.png,bars/mask003.png,,,,,,,,,,,,2,2,,,,,,,0,10,0,10,,,,,,,,,,,2386.4314,2386.8634,2387.0793,2388.34,space,1.1601,,2388.34,46,24,2389.3256,2389.3256,2389.3261,,,,0,2,2,2,1,110,0,,,,,,,,
,,615ca96d7640b6c31b9e4462,65af5493ac39215515c25326,2024-01-22_23h58.05.364,bars,2023.2.3,Win32,10,657b66ea316d21385b68909f,,,,,,,,,,,2389.3262,2390.271,,,2390.7081,2390.9224,,26,26,,,,,,,,,,,,,,,,bars/000.png,bars/mask003.png,,,,,,,,,,,,0,1,,,,,,,0,8,0,9,,,,,,,,,,,2390.271,2390.7081,2390.9224,2392.1958,space,1.1727,,2392.1958,14,61,2393.141,2393.141,2393.1421,,,,0,3,3,3,1,40,145,,,,,,,,
,,615ca96d7640b6c31b9e4462,65af5493ac39215515c25326,2024-01-22_23h58.05.364,bars,2023.2.3,Win32,10,657b66ea316d21385b68909f,,,,,,,,,,,2393.1423,2394.0836,,,2394.5149,2394.766,,52,52,,,,,,,,,,,,,,,,bars/043.png,bars/mask009.png,,,,,,,,,,,,1,1,,,,,,,2,10,3,10,,,,,,,,,,,2394.0836,2394.5149,2394.766,2399.6377,space,4.7701,,2399.6378,22,78,2400.5845,2400.5846,2400.593,,,,0,4,4,4,1,30,130,,,,,,,,
,,615ca96d7640b6c31b9e4462,65af5493ac39215515c25326,2024-01-22_23h58.05.364,bars,2023.2.3,Win32,10,657b66ea316d21385b68909f,,,,,,,,,,,2400.593,2401.529,,,2401.9606,2402.1744,,135,135,,,,,,,,,,,,,,,,bars/004.png,bars/mask002.png,,,,,,,,,,,,7,2,,,,,,,0,10,0,10,,,,,,,,,,,2401.5291,2401.9605,2402.1744,2406.5084,space,4.2334,,2406.5084,70,10,2407.4775,2407.4775,2407.4789,,,,0,5,5,5,1,25,125,,,,,,,,
,,615ca96d7640b6c31b9e4462,65af5493ac39215515c25326,2024-01-22_23h58.05.364,bars,2023.2.3,Win32,10,657b66ea316d21385b68909f,,,,,,,,,,,2407.479,2408.429,,,2408.8583,2409.0798,,116,116,,,,,,,,,,,,,,,,bars/049.png,bars/mask006.png,,,,,,,,,,,,10,2,,,,,,,2,10,1,10,,,,,,,,,,,2408.429,2408.8583,2409.0798,2413.4071,space,4.2265,,2413.4071,44,1,2414.3558,2414.3558,2414.3563,,,,0,6,6,6,1,160,115,,,,,,,,
,,615ca96d7640b6c31b9e4462,65af5493ac39215515c25326,2024-01-22_23h58.05.364,bars,2023.2.3,Win32,10,657b66ea316d21385b68909f,,,,,,,,,,,2414.3564,2415.3016,,,2415.7308,2415.9462,,40,40,,,,,,,,,,,,,,,,bars/007.png,bars/mask003.png,,,,,,,,,,,,5,2,,,,,,,0,10,0,9,,,,,,,,,,,2415.3016,2415.7308,2415.9462,2418.1575,space,2.1105,,2418.1575,45,15,2419.1073,2419.1073,2419.1078,,,,0,7,7,7,1,175,55,,,,,,,,
,,615ca96d7640b6c31b9e4462,65af5493ac39215515c25326,2024-01-22_23h58.05.364,bars,2023.2.3,Win32,10,657b66ea316d21385b68909f,,,,,,,,,,,2419.108,2420.0523,,,2420.484,2420.6981,,53,53,,,,,,,,,,,,,,,,bars/010.png,bars/mask007.png,,,,,,,,,,,,7,2,,,,,,,2,8,2,7,,,,,,,,,,,2420.0523,2420.4839,2420.6981,2429.1628,space,8.3642,,2429.1628,68,2,2430.1069,2430.1069,2430.1073,,,,0,8,8,8,1,165,55,,,,,,,,
,,615ca96d7640b6c31b9e4462,65af5493ac39215515c25326,2024-01-22_23h58.05.364,bars,2023.2.3,Win32,10,657b66ea316d21385b68909f,,,,,,,,,,,2430.1075,2431.0537,,,2431.4823,2431.697,,47,47,,,,,,,,,,,,,,,,bars/029.png,bars/mask006.png,,,,,,,,,,,,6,2,,,,,,,0,6,1,6,,,,,,,,,,,2431.0537,2431.4823,2431.697,2438.3254,space,6.5277,,2438.3255,43,2,2439.2763,2439.2763,2439.2768,,,,0,9,9,9,1,90,45,,,,,,,,
,,615ca96d7640b6c31b9e4462,65af5493ac39215515c25326,2024-01-22_23h58.05.364,bars,2023.2.3,Win32,10,657b66ea316d21385b68909f,,,,,,,,,,,2439.2769,2440.2186,,,2440.6571,2440.872,,61,241,,,,,,,,,,,,,,,,bars/025.png,bars/mask006.png,,,,,,,,,,,,2,2,,,,,,,2,8,2,7,,,,,,,,,,,2440.2186,2440.6571,2440.872,2452.8229,space,11.8486,,2452.8229,44,21,2453.7674,2453.7675,2453.7679,,,,0,10,10,10,1,105,40,,,,,,,,
,,615ca96d7640b6c31b9e4462,65af5493ac39215515c25326,2024-01-22_23h58.05.364,bars,2023.2.3,Win32,10,657b66ea316d21385b68909f,,,,,,,,,,,2453.7681,2454.7276,,,2455.1732,2455.3878,,164,-16,,,,,,,,,,,,,,,,bars/044.png,bars/mask008.png,,,,,,,,,,,,4,2,,,,,,,0,6,0,6,,,,,,,,,,,2454.7277,2455.1732,2455.3878,2458.9997,space,3.5109,,2458.9997,89,9,2459.9421,2459.9421,2459.9425,,,,0,11,11,11,1,75,155,,,,,,,,
,,615ca96d7640b6c31b9e4462,65af5493ac39215515c25326,2024-01-22_23h58.05.364,bars,2023.2.3,Win32,10,657b66ea316d21385b68909f,,,,,,,,,,,2459.9427,2460.8863,,,2461.3183,2461.5332,,88,88,,,,,,,,,,,,,,,,bars/021.png,bars/mask006.png,,,,,,,,,,,,2,2,,,,,,,0,4,0,5,,,,,,,,,,,2460.8864,2461.3183,2461.5332,2468.4304,space,6.7893,,2468.4304,67,18,2469.3777,2469.3777,2469.3781,,,,0,12,12,12,1,155,70,,,,,,,,
,,615ca96d7640b6c31b9e4462,65af5493ac39215515c25326,2024-01-22_23h58.05.364,bars,2023.2.3,Win32,10,657b66ea316d21385b68909f,,,,,,,,,,,2469.3783,2470.3221,,,2470.7517,2470.9735,,95,95,,,,,,,,,,,,,,,,bars/006.png,bars/mask009.png,,,,,,,,,,,,3,2,,,,,,,2,2,2,3,,,,,,,,,,,2470.3221,2470.7517,2470.9735,2479.3358,space,8.2604,,2479.3358,60,5,2480.3005,2480.3006,2480.3009,,,,0,13,13,13,1,35,100,,,,,,,,
,,615ca96d7640b6c31b9e4462,65af5493ac39215515c25326,2024-01-22_23h58.05.364,bars,2023.2.3,Win32,10,657b66ea316d21385b68909f,,,,,,,,,,,2480.3011,2481.2489,,,2481.6785,2481.8932,,172,172,,,,,,,,,,,,,,,,bars/015.png,bars/mask000.png,,,,,,,,,,,,2,2,,,,,,,4,4,5,4,,,,,,,,,,,2481.2489,2481.6785,2481.8932,2488.3595,space,6.3631,,2488.3595,62,12,2489.2997,2489.2997,2489.3001,,,,0,14,14,14,1,110,160,,,,,,,,
,,615ca96d7640b6c31b9e4462,65af5493ac39215515c25326,2024-01-22_23h58.05.364,bars,2023.2.3,Win32,10,657b66ea316d21385b68909f,,,,,,,,,,,2489.3003,2490.247,,,2490.6788,2490.8935,,42,42,,,,,,,,,,,,,,,,bars/006.png,bars/mask006.png,,,,,,,,,,,,0,1,,,,,,,2,6,0,3,,,,,,,,,,,2490.247,2490.6788,2490.8935,2499.5143,space,8.5163,,2499.5143,7,58,2500.4606,2500.4606,2500.4695,,,,0,15,15,15,1,35,100,,,,,,,,
,,615ca96d7640b6c31b9e4462,65af5493ac39215515c25326,2024-01-22_23h58.05.364,bars,2023.2.3,Win32,10,657b66ea316d21385b68909f,,,,,,,,,,,2500.4696,2501.4018,,,2501.8303,2502.048,,78,78,,,,,,,,,,,,,,,,bars/044.png,bars/mask000.png,,,,,,,,,,,,3,1,,,,,,,4,4,3,4,,,,,,,,,,,2501.4018,2501.8302,2502.048,2508.0601,space,5.9112,,2508.0602,3,77,2509.0298,2509.0298,2509.0381,,,,0,16,16,16,1,75,155,,,,,,,,
