init_variables.started,init_variables.stopped,participant,session,date,expName,psychopyVersion,OS,frameRate,study_id,instruction_exp.started,instruction_exp.stopped,key_resp_8.keys,key_resp_8.rt,key_resp_8.duration,instruction_single.started,instruction_single.stopped,key_resp_2.keys,key_resp_2.rt,key_resp_2.duration,interval.started,interval.stopped,cue_single.started,cue_single.stopped,mask.started,mask.stopped,ori_response_single.started,res_ori,res,ori_response_single.stopped,key_resp_single.keys,key_resp_single.rt,key_resp_single.duration,disp_single.started,disp_single.stopped,key_resp.keys,key_resp.rt,key_resp.duration,single.thisRepN,single.thisTrialN,single.thisN,single.thisIndex,single.ran,ori,path,mask_path,instruction_bandit.started,instruction_bandit.stopped,key_resp_6.keys,key_resp_6.rt,key_resp_6.duration,cue_bandit.started,cue_bandit.stopped,bandit_res.keys,bandit_res.rt,bandit_res.duration,outcome_bandit.started,rew,action,outcome_bandit.stopped,bandit.thisRepN,bandit.thisTrialN,bandit.thisN,bandit.thisIndex,bandit.ran,actual_rew1,actual_rew2,rew1,rew2,instruction_task.started,instruction_task.stopped,key_resp_7.keys,key_resp_7.rt,key_resp_7.duration,wait_ready.started,wait_ready.stopped,key_resp_3.keys,key_resp_3.rt,key_resp_3.duration,cue.started,cue.stopped,ori_response.started,ori_response.stopped,key_resp_5.keys,key_resp_5.rt,key_resp_5.duration,outcome.started,diff1,diff2,outcome.stopped,disp_outcome_practice.started,disp_outcome_practice.stopped,key_resp_4.keys,key_resp_4.rt,key_resp_4.duration,trials.thisRepN,trials.thisTrialN,trials.thisN,trials.thisIndex,trials.ran,ori1,ori2,break_blk.started,break_blk.stopped,block.thisRepN,block.thisTrialN,block.thisN,block.thisIndex,block.ran,condition_file
0.0004,0.0007,6134ec246da4dc93db56e8f8,65b1a122c776755edf0f7664,2024-01-25_01h46.45.223,bars,2023.2.3,Win32,59.88023952,657b66ea316d21385b68909f,,,,,,,,,,,,,,,,,,,,,,,,,,,,,,,,,,,,,,,,,,,,,,,,,,,,,,,,,,,,,,,,,,,,,,,,,,,,,,,,,,,,,,,,,,,,,,,,,,,,
,,6134ec246da4dc93db56e8f8,65b1a122c776755edf0f7664,2024-01-25_01h46.45.223,bars,2023.2.3,Win32,59.88023952,657b66ea316d21385b68909f,0.0009,16.4359,y,16.4021,,,,,,,,,,,,,,,,,,,,,,,,,,,,,,,,,,,,,,,,,,,,,,,,,,,,,,,,,,,,,,,,,,,,,,,,,,,,,,,,,,,,,,,,,,,,,,,,
,,6134ec246da4dc93db56e8f8,65b1a122c776755edf0f7664,2024-01-25_01h46.45.223,bars,2023.2.3,Win32,59.88023952,657b66ea316d21385b68909f,,,,,,16.4362,69.1942,space,52.7354,,,,,,,,,,,,,,,,,,,,,,,,,,,,,,,,,,,,,,,,,,,,,,,,,,,,,,,,,,,,,,,,,,,,,,,,,,,,,,,,,,,,,,,,,,,
,,6134ec246da4dc93db56e8f8,65b1a122c776755edf0f7664,2024-01-25_01h46.45.223,bars,2023.2.3,Win32,59.88023952,657b66ea316d21385b68909f,,,,,,,,,,,69.1998,70.1885,70.1886,70.6891,70.6895,70.9383,70.9384,94,94,85.7535,space,14.7772,,85.754,115.4786,space,29.6844,,0,0,0,1,1,20,bars/single001.png,bars/mask006.png,,,,,,,,,,,,,,,,,,,,,,,,,,,,,,,,,,,,,,,,,,,,,,,,,,,,,,,,,,,,,,,,
,,6134ec246da4dc93db56e8f8,65b1a122c776755edf0f7664,2024-01-25_01h46.45.223,bars,2023.2.3,Win32,59.88023952,657b66ea316d21385b68909f,,,,,,,,,,,115.4932,116.494,116.4941,116.9934,116.9934,117.2433,117.2434,21,21,129.7238,space,12.4671,,129.7238,144.8533,space,15.1061,,0,1,1,7,1,45,bars/single007.png,bars/mask009.png,,,,,,,,,,,,,,,,,,,,,,,,,,,,,,,,,,,,,,,,,,,,,,,,,,,,,,,,,,,,,,,,
,,6134ec246da4dc93db56e8f8,65b1a122c776755edf0f7664,2024-01-25_01h46.45.223,bars,2023.2.3,Win32,59.88023952,657b66ea316d21385b68909f,,,,,,,,,,,144.8624,145.853,145.853,146.3532,146.3533,146.603,146.603,141,141,152.0852,space,5.4687,,152.0852,156.5505,space,4.4347,,0,2,2,0,1,150,bars/single000.png,bars/mask006.png,,,,,,,,,,,,,,,,,,,,,,,,,,,,,,,,,,,,,,,,,,,,,,,,,,,,,,,,,,,,,,,,
,,6134ec246da4dc93db56e8f8,65b1a122c776755edf0f7664,2024-01-25_01h46.45.223,bars,2023.2.3,Win32,59.88023952,657b66ea316d21385b68909f,,,,,,,,,,,156.5621,157.5501,157.5501,158.05,158.05,158.2999,158.3,82,82,162.3991,space,4.083,,162.3992,167.0311,space,4.6035,,0,3,3,4,1,95,bars/single004.png,bars/mask004.png,,,,,,,,,,,,,,,,,,,,,,,,,,,,,,,,,,,,,,,,,,,,,,,,,,,,,,,,,,,,,,,,
,,6134ec246da4dc93db56e8f8,65b1a122c776755edf0f7664,2024-01-25_01h46.45.223,bars,2023.2.3,Win32,59.88023952,657b66ea316d21385b68909f,,,,,,,,,,,167.0396,168.0308,168.0308,168.5314,168.5315,168.7808,168.7808,150,150,172.2632,space,3.456,,172.2632,177.4453,space,5.1493,,0,4,4,8,1,160,bars/single008.png,bars/mask004.png,,,,,,,,,,,,,,,,,,,,,,,,,,,,,,,,,,,,,,,,,,,,,,,,,,,,,,,,,,,,,,,,
,,6134ec246da4dc93db56e8f8,65b1a122c776755edf0f7664,2024-01-25_01h46.45.223,bars,2023.2.3,Win32,59.88023952,657b66ea316d21385b68909f,,,,,,,,,,,177.4551,178.4449,178.4449,178.9457,178.9458,179.1948,179.1948,59,59,184.6821,space,5.4627,,184.6821,190.0337,space,5.3331,,0,5,5,5,1,55,bars/single005.png,bars/mask008.png,,,,,,,,,,,,,,,,,,,,,,,,,,,,,,,,,,,,,,,,,,,,,,,,,,,,,,,,,,,,,,,,
,,6134ec246da4dc93db56e8f8,65b1a122c776755edf0f7664,2024-01-25_01h46.45.223,bars,2023.2.3,Win32,59.88023952,657b66ea316d21385b68909f,,,,,,,,,,,190.0455,191.0419,191.0419,191.5425,191.5426,191.7918,191.7918,151,-29,196.6573,space,4.8396,,196.6574,211.5213,space,14.8379,,0,6,6,3,1,20,bars/single003.png,bars/mask005.png,,,,,,,,,,,,,,,,,,,,,,,,,,,,,,,,,,,,,,,,,,,,,,,,,,,,,,,,,,,,,,,,
,,6134ec246da4dc93db56e8f8,65b1a122c776755edf0f7664,2024-01-25_01h46.45.223,bars,2023.2.3,Win32,59.88023952,657b66ea316d21385b68909f,,,,,,,,,,,211.5367,212.5366,212.5366,213.0367,213.0367,213.2864,213.2864,142,142,216.7606,space,3.4509,,216.7606,220.4346,space,3.6574,,0,7,7,2,1,145,bars/single002.png,bars/mask003.png,,,,,,,,,,,,,,,,,,,,,,,,,,,,,,,,,,,,,,,,,,,,,,,,,,,,,,,,,,,,,,,,
,,6134ec246da4dc93db56e8f8,65b1a122c776755edf0f7664,2024-01-25_01h46.45.223,bars,2023.2.3,Win32,59.88023952,657b66ea316d21385b68909f,,,,,,,,,,,220.4449,221.4345,221.4345,221.9344,221.9345,222.1843,222.1843,73,73,229.1006,space,6.8846,,229.1008,232.1491,space,3.0143,,0,8,8,9,1,20,bars/single009.png,bars/mask006.png,,,,,,,,,,,,,,,,,,,,,,,,,,,,,,,,,,,,,,,,,,,,,,,,,,,,,,,,,,,,,,,,
,,6134ec246da4dc93db56e8f8,65b1a122c776755edf0f7664,2024-01-25_01h46.45.223,bars,2023.2.3,Win32,59.88023952,657b66ea316d21385b68909f,,,,,,,,,,,232.165,233.1658,233.1658,233.6652,233.6653,233.9158,233.9158,5,185,237.8642,space,3.9333,,237.8643,241.2474,space,3.3533,,0,9,9,6,1,175,bars/single006.png,bars/mask005.png,,,,,,,,,,,,,,,,,,,,,,,,,,,,,,,,,,,,,,,,,,,,,,,,,,,,,,,,,,,,,,,,
,,6134ec246da4dc93db56e8f8,65b1a122c776755edf0f7664,2024-01-25_01h46.45.223,bars,2023.2.3,Win32,59.88023952,657b66ea316d21385b68909f,,,,,,,,,,,,,,,,,,,,,,,,,,,,,,,,,,,,,241.2493,288.1873,space,46.9142,,,,,,,,,,,,,,,,,,,,,,,,,,,,,,,,,,,,,,,,,,,,,,,,,,,,,,,,,,,,
,,6134ec246da4dc93db56e8f8,65b1a122c776755edf0f7664,2024-01-25_01h46.45.223,bars,2023.2.3,Win32,59.88023952,657b66ea316d21385b68909f,,,,,,,,,,,,,,,,,,,,,,,,,,,,,,,,,,,,,,,,,,288.202,298.7686,right,10.5416,,298.7691,2,2,299.7667,0,0,0,0,1,9,1,9,2,,,,,,,,,,,,,,,,,,,,,,,,,,,,,,,,,,,,,,,,,
,,6134ec246da4dc93db56e8f8,65b1a122c776755edf0f7664,2024-01-25_01h46.45.223,bars,2023.2.3,Win32,59.88023952,657b66ea316d21385b68909f,,,,,,,,,,,,,,,,,,,,,,,,,,,,,,,,,,,,,,,,,,299.7683,307.6652,right,7.8687,,307.6654,1,2,308.6638,0,1,1,1,1,10,0,10,1,,,,,,,,,,,,,,,,,,,,,,,,,,,,,,,,,,,,,,,,,
,,6134ec246da4dc93db56e8f8,65b1a122c776755edf0f7664,2024-01-25_01h46.45.223,bars,2023.2.3,Win32,59.88023952,657b66ea316d21385b68909f,,,,,,,,,,,,,,,,,,,,,,,,,,,,,,,,,,,,,,,,,,308.6851,314.8796,left,6.1883,,314.8798,10,1,315.8785,0,2,2,2,1,10,2,10,2,,,,,,,,,,,,,,,,,,,,,,,,,,,,,,,,,,,,,,,,,
,,6134ec246da4dc93db56e8f8,65b1a122c776755edf0f7664,2024-01-25_01h46.45.223,bars,2023.2.3,Win32,59.88023952,657b66ea316d21385b68909f,,,,,,,,,,,,,,,,,,,,,,,,,,,,,,,,,,,,,,,,,,315.9008,319.6942,left,3.7842,,319.6943,7,1,320.6942,0,3,3,3,1,8,4,7,3,,,,,,,,,,,,,,,,,,,,,,,,,,,,,,,,,,,,,,,,,
,,6134ec246da4dc93db56e8f8,65b1a122c776755edf0f7664,2024-01-25_01h46.45.223,bars,2023.2.3,Win32,59.88023952,657b66ea316d21385b68909f,,,,,,,,,,,,,,,,,,,,,,,,,,,,,,,,,,,,,,,,,,320.7149,324.4101,left,3.6815,,324.4105,5,1,325.4094,0,4,4,4,1,6,2,5,1,,,,,,,,,,,,,,,,,,,,,,,,,,,,,,,,,,,,,,,,,
,,6134ec246da4dc93db56e8f8,65b1a122c776755edf0f7664,2024-01-25_01h46.45.223,bars,2023.2.3,Win32,59.88023952,657b66ea316d21385b68909f,,,,,,,,,,,,,,,,,,,,,,,,,,,,,,,,,,,,,,,,,,325.4235,328.3759,right,2.9357,,328.376,4,2,329.3759,0,5,5,5,1,4,4,4,4,,,,,,,,,,,,,,,,,,,,,,,,,,,,,,,,,,,,,,,,,
,,6134ec246da4dc93db56e8f8,65b1a122c776755edf0f7664,2024-01-25_01h46.45.223,bars,2023.2.3,Win32,59.88023952,657b66ea316d21385b68909f,,,,,,,,,,,,,,,,,,,,,,,,,,,,,,,,,,,,,,,,,,329.403,330.6415,left,1.2272,,330.6416,1,1,331.641,0,6,6,6,1,2,2,1,2,,,,,,,,,,,,,,,,,,,,,,,,,,,,,,,,,,,,,,,,,
,,6134ec246da4dc93db56e8f8,65b1a122c776755edf0f7664,2024-01-25_01h46.45.223,bars,2023.2.3,Win32,59.88023952,657b66ea316d21385b68909f,,,,,,,,,,,,,,,,,,,,,,,,,,,,,,,,,,,,,,,,,,331.6411,336.1074,left,4.4492,,336.1076,0,1,337.1071,0,7,7,7,1,0,0,0,1,,,,,,,,,,,,,,,,,,,,,,,,,,,,,,,,,,,,,,,,,
,,6134ec246da4dc93db56e8f8,65b1a122c776755edf0f7664,2024-01-25_01h46.45.223,bars,2023.2.3,Win32,59.88023952,657b66ea316d21385b68909f,,,,,,,,,,,,,,,,,,,,,,,,,,,,,,,,,,,,,,,,,,337.132,345.6727,left,8.5261,,345.6731,1,1,346.6709,0,8,8,8,1,0,2,1,0,,,,,,,,,,,,,,,,,,,,,,,,,,,,,,,,,,,,,,,,,
,,6134ec246da4dc93db56e8f8,65b1a122c776755edf0f7664,2024-01-25_01h46.45.223,bars,2023.2.3,Win32,59.88023952,657b66ea316d21385b68909f,,,,,,,,,,,,,,,,,,,,,,,,,,,,,,,,,,,,,,,,,,346.6935,349.6713,right,2.9708,,349.6715,3,2,350.6702,0,9,9,9,1,2,4,2,3,,,,,,,,,,,,,,,,,,,,,,,,,,,,,,,,,,,,,,,,,
,,6134ec246da4dc93db56e8f8,65b1a122c776755edf0f7664,2024-01-25_01h46.45.223,bars,2023.2.3,Win32,59.88023952,657b66ea316d21385b68909f,,,,,,,,,,,,,,,,,,,,,,,,,,,,,,,,,,,,,,,,,,350.702,351.6032,right,0.8853,,351.6033,3,2,352.6027,0,10,10,10,1,0,2,0,3,,,,,,,,,,,,,,,,,,,,,,,,,,,,,,,,,,,,,,,,,
,,6134ec246da4dc93db56e8f8,65b1a122c776755edf0f7664,2024-01-25_01h46.45.223,bars,2023.2.3,Win32,59.88023952,657b66ea316d21385b68909f,,,,,,,,,,,,,,,,,,,,,,,,,,,,,,,,,,,,,,,,,,352.603,354.619,right,2.0051,,354.6191,3,2,355.6191,0,11,11,11,1,0,4,0,3,,,,,,,,,,,,,,,,,,,,,,,,,,,,,,,,,,,,,,,,,
,,6134ec246da4dc93db56e8f8,65b1a122c776755edf0f7664,2024-01-25_01h46.45.223,bars,2023.2.3,Win32,59.88023952,657b66ea316d21385b68909f,,,,,,,,,,,,,,,,,,,,,,,,,,,,,,,,,,,,,,,,,,355.6428,356.5851,right,0.9285,0.0059,356.5853,6,2,357.5854,0,12,12,12,1,2,6,1,6,,,,,,,,,,,,,,,,,,,,,,,,,,,,,,,,,,,,,,,,,
,,6134ec246da4dc93db56e8f8,65b1a122c776755edf0f7664,2024-01-25_01h46.45.223,bars,2023.2.3,Win32,59.88023952,657b66ea316d21385b68909f,,,,,,,,,,,,,,,,,,,,,,,,,,,,,,,,,,,,,,,,,,357.5866,358.2194,right,0.6022,,358.2197,3,2,359.2175,0,13,13,13,1,0,4,1,3,,,,,,,,,,,,,,,,,,,,,,,,,,,,,,,,,,,,,,,,,
,,6134ec246da4dc93db56e8f8,65b1a122c776755edf0f7664,2024-01-25_01h46.45.223,bars,2023.2.3,Win32,59.88023952,657b66ea316d21385b68909f,,,,,,,,,,,,,,,,,,,,,,,,,,,,,,,,,,,,,,,,,,359.2185,363.1006,left,3.8572,,363.1008,2,1,364.1001,0,14,14,14,1,2,6,2,7,,,,,,,,,,,,,,,,,,,,,,,,,,,,,,,,,,,,,,,,,
,,6134ec246da4dc93db56e8f8,65b1a122c776755edf0f7664,2024-01-25_01h46.45.223,bars,2023.2.3,Win32,59.88023952,657b66ea316d21385b68909f,,,,,,,,,,,,,,,,,,,,,,,,,,,,,,,,,,,,,,,,,,364.1259,364.8504,right,0.7092,,364.8505,9,2,365.85,0,15,15,15,1,4,8,3,9,,,,,,,,,,,,,,,,,,,,,,,,,,,,,,,,,,,,,,,,,
,,6134ec246da4dc93db56e8f8,65b1a122c776755edf0f7664,2024-01-25_01h46.45.223,bars,2023.2.3,Win32,59.88023952,657b66ea316d21385b68909f,,,,,,,,,,,,,,,,,,,,,,,,,,,,,,,,,,,,,,,,,,365.8513,366.7158,right,0.8335,,366.716,7,2,367.7156,0,16,16,16,1,6,6,7,7,,,,,,,,,,,,,,,,,,,,,,,,,,,,,,,,,,,,,,,,,
,,6134ec246da4dc93db56e8f8,65b1a122c776755edf0f7664,2024-01-25_01h46.45.223,bars,2023.2.3,Win32,59.88023952,657b66ea316d21385b68909f,,,,,,,,,,,,,,,,,,,,,,,,,,,,,,,,,,,,,,,,,,367.7162,368.5909,right,0.8517,,368.5909,5,2,369.5818,0,17,17,17,1,8,4,9,5,,,,,,,,,,,,,,,,,,,,,,,,,,,,,,,,,,,,,,,,,
,,6134ec246da4dc93db56e8f8,65b1a122c776755edf0f7664,2024-01-25_01h46.45.223,bars,2023.2.3,Win32,59.88023952,657b66ea316d21385b68909f,,,,,,,,,,,,,,,,,,,,,,,,,,,,,,,,,,,,,,,,,,369.582,370.3994,left,0.7926,,370.3996,5,1,371.3986,0,18,18,18,1,6,2,5,1,,,,,,,,,,,,,,,,,,,,,,,,,,,,,,,,,,,,,,,,,
,,6134ec246da4dc93db56e8f8,65b1a122c776755edf0f7664,2024-01-25_01h46.45.223,bars,2023.2.3,Win32,59.88023952,657b66ea316d21385b68909f,,,,,,,,,,,,,,,,,,,,,,,,,,,,,,,,,,,,,,,,,,371.3998,374.3652,right,2.9386,,374.3655,0,2,375.3642,0,19,19,19,1,8,0,7,0,,,,,,,,,,,,,,,,,,,,,,,,,,,,,,,,,,,,,,,,,
,,6134ec246da4dc93db56e8f8,65b1a122c776755edf0f7664,2024-01-25_01h46.45.223,bars,2023.2.3,Win32,59.88023952,657b66ea316d21385b68909f,,,,,,,,,,,,,,,,,,,,,,,,,,,,,,,,,,,,,,,,,,,,,,,,,,,,,,,,,,,,375.3674,397.6959,space,22.3034,,,,,,,,,,,,,,,,,,,,,,,,,,,,,,,,,,,,,
,,6134ec246da4dc93db56e8f8,65b1a122c776755edf0f7664,2024-01-25_01h46.45.223,bars,2023.2.3,Win32,59.88023952,657b66ea316d21385b68909f,,,,,,,,,,,399.5523,400.5417,,,401.0426,401.2903,,120,120,,,,,,,,,,,,,,,,bars/006.png,bars/mask003.png,,,,,,,,,,,,3,2,,,,,,,0,10,1,9,,,,,,397.7241,399.5431,space,1.802,,400.5427,401.0424,401.2905,408.4909,space,7.1656,,408.4917,85,20,409.4901,409.4907,420.8864,space,11.3709,,0,0,0,0,1,35,100,,,,,,,,
,,6134ec246da4dc93db56e8f8,65b1a122c776755edf0f7664,2024-01-25_01h46.45.223,bars,2023.2.3,Win32,59.88023952,657b66ea316d21385b68909f,,,,,,,,,,,420.8959,421.886,,,422.3865,422.6362,,142,142,,,,,,,,,,,,,,,,bars/035.png,bars/mask006.png,,,,,,,,,,,,0,1,,,,,,,0,10,0,10,,,,,,,,,,,421.886,422.3864,422.6362,428.9514,space,6.3,,428.9519,33,82,429.9508,429.9509,433.7176,space,3.7357,,0,1,1,1,1,175,60,,,,,,,,
,,6134ec246da4dc93db56e8f8,65b1a122c776755edf0f7664,2024-01-25_01h46.45.223,bars,2023.2.3,Win32,59.88023952,657b66ea316d21385b68909f,,,,,,,,,,,433.7409,434.7325,,,435.2326,435.483,,123,123,,,,,,,,,,,,,,,,bars/008.png,bars/mask003.png,,,,,,,,,,,,0,1,,,,,,,0,10,0,10,,,,,,,,,,,434.7325,435.2326,435.4831,443.8976,space,8.3989,,443.8977,13,57,444.8972,444.8972,451.8118,space,6.8787,,0,2,2,2,1,110,0,,,,,,,,
,,6134ec246da4dc93db56e8f8,65b1a122c776755edf0f7664,2024-01-25_01h46.45.223,bars,2023.2.3,Win32,59.88023952,657b66ea316d21385b68909f,,,,,,,,,,,451.8227,452.8116,,,453.3119,453.5619,,149,149,,,,,,,,,,,,,,,,bars/000.png,bars/mask003.png,,,,,,,,,,,,8,2,,,,,,,0,8,0,9,,,,,,,,,,,452.8116,453.3118,453.562,459.2936,space,5.7172,,459.2936,71,4,460.2935,460.2936,464.6427,space,4.3064,,0,3,3,3,1,40,145,,,,,,,,
,,6134ec246da4dc93db56e8f8,65b1a122c776755edf0f7664,2024-01-25_01h46.45.223,bars,2023.2.3,Win32,59.88023952,657b66ea316d21385b68909f,,,,,,,,,,,464.6613,465.6589,,,466.1595,466.4091,,3,183,,,,,,,,,,,,,,,,bars/043.png,bars/mask009.png,,,,,,,,,,,,0,1,,,,,,,2,10,3,10,,,,,,,,,,,465.659,466.1593,466.4092,470.9735,space,4.5328,,470.9736,27,53,471.973,471.973,477.7733,space,5.7682,,0,4,4,4,1,30,130,,,,,,,,
,,6134ec246da4dc93db56e8f8,65b1a122c776755edf0f7664,2024-01-25_01h46.45.223,bars,2023.2.3,Win32,59.88023952,657b66ea316d21385b68909f,,,,,,,,,,,477.798,478.7884,,,479.2885,479.5394,,131,131,,,,,,,,,,,,,,,,bars/004.png,bars/mask002.png,,,,,,,,,,,,8,2,,,,,,,0,10,0,10,,,,,,,,,,,478.7884,479.2885,479.5395,485.1871,space,5.6167,,485.1871,74,6,486.1866,486.1866,490.1022,space,3.892,,0,5,5,5,1,25,125,,,,,,,,
,,6134ec246da4dc93db56e8f8,65b1a122c776755edf0f7664,2024-01-25_01h46.45.223,bars,2023.2.3,Win32,59.88023952,657b66ea316d21385b68909f,,,,,,,,,,,490.1112,491.1018,,,491.602,491.8519,,162,-18,,,,,,,,,,,,,,,,bars/049.png,bars/mask006.png,,,,,,,,,,,,1,1,,,,,,,2,10,1,10,,,,,,,,,,,491.1018,491.602,491.8519,502.167,space,10.2998,,502.1672,2,47,503.1662,503.1664,509.9975,space,6.7805,,0,6,6,6,1,160,115,,,,,,,,
,,6134ec246da4dc93db56e8f8,65b1a122c776755edf0f7664,2024-01-25_01h46.45.223,bars,2023.2.3,Win32,59.88023952,657b66ea316d21385b68909f,,,,,,,,,,,510.0133,510.9977,,,511.4974,511.7472,,39,39,,,,,,,,,,,,,,,,bars/007.png,bars/mask003.png,,,,,,,,,,,,4,2,,,,,,,0,10,0,9,,,,,,,,,,,510.9978,511.4973,511.7473,515.797,space,4.0331,,515.7971,44,16,516.796,516.796,521.5449,space,4.7258,,0,7,7,7,1,175,55,,,,,,,,
,,6134ec246da4dc93db56e8f8,65b1a122c776755edf0f7664,2024-01-25_01h46.45.223,bars,2023.2.3,Win32,59.88023952,657b66ea316d21385b68909f,,,,,,,,,,,521.5651,522.5609,,,523.061,523.3113,,58,58,,,,,,,,,,,,,,,,bars/010.png,bars/mask007.png,,,,,,,,,,,,6,2,,,,,,,2,8,2,7,,,,,,,,,,,522.5609,523.0609,523.3115,524.4769,space,1.1547,,524.4769,73,3,525.4767,525.4767,529.2772,space,3.7729,,0,8,8,8,1,165,55,,,,,,,,
,,6134ec246da4dc93db56e8f8,65b1a122c776755edf0f7664,2024-01-25_01h46.45.223,bars,2023.2.3,Win32,59.88023952,657b66ea316d21385b68909f,,,,,,,,,,,529.2981,530.2925,,,530.7931,531.0428,,65,65,,,,,,,,,,,,,,,,bars/029.png,bars/mask006.png,,,,,,,,,,,,2,2,,,,,,,0,6,1,6,,,,,,,,,,,530.2925,530.793,531.043,535.4258,space,4.3553,,535.426,25,20,536.4248,536.425,540.04,space,3.5734,,0,9,9,9,1,90,45,,,,,,,,
,,6134ec246da4dc93db56e8f8,65b1a122c776755edf0f7664,2024-01-25_01h46.45.223,bars,2023.2.3,Win32,59.88023952,657b66ea316d21385b68909f,,,,,,,,,,,540.0508,541.0395,,,541.5396,541.7893,,126,126,,,,,,,,,,,,,,,,bars/025.png,bars/mask006.png,,,,,,,,,,,,1,1,,,,,,,2,8,2,7,,,,,,,,,,,541.0395,541.5396,541.7893,551.2871,space,9.4918,,551.2872,21,86,552.287,552.287,555.5362,space,3.2124,,0,10,10,10,1,105,40,,,,,,,,
,,6134ec246da4dc93db56e8f8,65b1a122c776755edf0f7664,2024-01-25_01h46.45.223,bars,2023.2.3,Win32,59.88023952,657b66ea316d21385b68909f,,,,,,,,,,,555.5365,556.5356,,,557.0358,557.2856,,156,-24,,,,,,,,,,,,,,,,bars/044.png,bars/mask008.png,,,,,,,,,,,,6,2,,,,,,,0,6,0,6,,,,,,,,,,,556.5357,557.0357,557.2856,561.0681,space,3.7631,,561.0681,81,1,562.0679,562.0679,565.3837,space,3.2824,,0,11,11,11,1,75,155,,,,,,,,
,,6134ec246da4dc93db56e8f8,65b1a122c776755edf0f7664,2024-01-25_01h46.45.223,bars,2023.2.3,Win32,59.88023952,657b66ea316d21385b68909f,,,,,,,,,,,565.3939,566.3834,,,566.8833,567.1333,,76,76,,,,,,,,,,,,,,,,bars/021.png,bars/mask006.png,,,,,,,,,,,,4,2,,,,,,,0,4,0,5,,,,,,,,,,,566.3834,566.8833,567.1333,571.9654,space,4.8189,,571.9654,79,6,572.9651,572.9652,576.9976,space,4.0141,,0,12,12,12,1,155,70,,,,,,,,
,,6134ec246da4dc93db56e8f8,65b1a122c776755edf0f7664,2024-01-25_01h46.45.223,bars,2023.2.3,Win32,59.88023952,657b66ea316d21385b68909f,,,,,,,,,,,577.0076,577.9971,,,578.4971,578.7469,,102,102,,,,,,,,,,,,,,,,bars/006.png,bars/mask009.png,,,,,,,,,,,,3,2,,,,,,,2,2,2,3,,,,,,,,,,,577.9971,578.4971,578.747,583.9791,space,5.2242,,583.9791,67,2,584.9788,584.9788,587.8281,space,2.8311,,0,13,13,13,1,35,100,,,,,,,,
,,6134ec246da4dc93db56e8f8,65b1a122c776755edf0f7664,2024-01-25_01h46.45.223,bars,2023.2.3,Win32,59.88023952,657b66ea316d21385b68909f,,,,,,,,,,,587.8283,588.8279,,,589.3278,589.5777,,142,142,,,,,,,,,,,,,,,,bars/015.png,bars/mask000.png,,,,,,,,,,,,2,2,,,,,,,4,4,5,4,,,,,,,,,,,588.8279,589.3278,589.5777,596.8259,space,7.2345,,596.8259,32,18,597.8257,597.8257,600.7584,space,2.9061,,0,14,14,14,1,110,160,,,,,,,,
,,6134ec246da4dc93db56e8f8,65b1a122c776755edf0f7664,2024-01-25_01h46.45.223,bars,2023.2.3,Win32,59.88023952,657b66ea316d21385b68909f,,,,,,,,,,,600.7709,601.7746,,,602.2747,602.5245,,82,82,,,,,,,,,,,,,,,,bars/006.png,bars/mask006.png,,,,,,,,,,,,1,2,,,,,,,2,6,0,3,,,,,,,,,,,601.7746,602.2746,602.5245,605.8238,space,3.2928,,605.8238,47,18,606.8234,606.8234,610.5726,space,3.7249,,0,15,15,15,1,35,100,,,,,,,,
,,6134ec246da4dc93db56e8f8,65b1a122c776755edf0f7664,2024-01-25_01h46.45.223,bars,2023.2.3,Win32,59.88023952,657b66ea316d21385b68909f,,,,,,,,,,,610.5821,611.5722,,,612.0721,612.322,,108,-72,,,,,,,,,,,,,,,,bars/044.png,bars/mask000.png,,,,,,,,,,,,0,1,,,,,,,4,4,3,4,,,,,,,,,,,611.5723,612.072,612.322,618.0374,space,5.7035,,618.0374,33,47,619.0371,619.0371,623.5694,space,4.5097,,0,16,16,16,1,75,155,,,,,,,,
,,6134ec246da4dc93db56e8f8,65b1a122c776755edf0f7664,2024-01-25_01h46.45.223,bars,2023.2.3,Win32,59.88023952,657b66ea316d21385b68909f,,,,,,,,,,,623.5787,624.5691,,,625.0691,625.3188,,93,93,,,,,,,,,,,,,,,,bars/013.png,bars/mask001.png,,,,,,,,,,,,1,1,,,,,,,2,6,3,5,,,,,,,,,,,624.5691,625.0691,625.3189,633.7169,space,8.3881,,633.717,18,83,634.7166,634.7166,639.5488,space,4.8058,,0,17,17,17,1,75,10,,,,,,,,
,,6134ec246da4dc93db56e8f8,65b1a122c776755edf0f7664,2024-01-25_01h46.45.223,bars,2023.2.3,Win32,59.88023952,657b66ea316d21385b68909f,,,,,,,,,,,639.5584,640.5485,,,641.0484,641.2984,,149,-31,,,,,,,,,,,,,,,,bars/008.png,bars/mask004.png,,,,,,,,,,,,0,2,,,,,,,4,8,5,8,,,,,,,,,,,640.5485,641.0484,641.2984,645.214,space,3.8964,,645.2141,39,31,646.2137,646.2137,652.0958,space,5.8537,,0,18,18,18,1,110,0,,,,,,,,
,,6134ec246da4dc93db56e8f8,65b1a122c776755edf0f7664,2024-01-25_01h46.45.223,bars,2023.2.3,Win32,59.88023952,657b66ea316d21385b68909f,,,,,,,,,,,652.107,653.0954,,,653.5954,653.8453,,149,149,,,,,,,,,,,,,,,,bars/045.png,bars/mask006.png,,,,,,,,,,,,0,2,,,,,,,6,10,7,10,,,,,,,,,,,653.0954,653.5954,653.8453,656.4448,space,2.5921,,656.4449,49,41,657.4444,657.4444,662.1432,space,4.6722,,0,19,19,19,1,100,10,,,,,,,,
,,6134ec246da4dc93db56e8f8,65b1a122c776755edf0f7664,2024-01-25_01h46.45.223,bars,2023.2.3,Win32,59.88023952,657b66ea316d21385b68909f,,,,,,,,,,,662.152,663.143,,,663.6428,663.8928,,88,88,,,,,,,,,,,,,,,,bars/006.png,bars/mask007.png,,,,,,,,,,,,6,2,,,,,,,8,10,8,10,,,,,,,,,,,663.143,663.6428,663.8928,667.9918,space,4.0902,,667.9918,53,12,668.9915,668.9915,671.5243,space,2.5133,,0,20,20,20,1,35,100,,,,,,,,
,,6134ec246da4dc93db56e8f8,65b1a122c776755edf0f7664,2024-01-25_01h46.45.223,bars,2023.2.3,Win32,59.88023952,657b66ea316d21385b68909f,,,,,,,,,,,671.5246,672.524,,,673.024,673.2738,,125,125,,,,,,,,,,,,,,,,bars/004.png,bars/mask002.png,,,,,,,,,,,,8,2,,,,,,,10,8,10,8,,,,,,,,,,,672.5241,673.024,673.2738,677.8061,space,4.518,,677.8061,80,0,678.8057,678.8057,683.0381,space,4.2058,,0,21,21,21,1,25,125,,,,,,,,
,,6134ec246da4dc93db56e8f8,65b1a122c776755edf0f7664,2024-01-25_01h46.45.223,bars,2023.2.3,Win32,59.88023952,657b66ea316d21385b68909f,,,,,,,,,,,683.0466,684.0379,,,684.5378,684.7876,,165,165,,,,,,,,,,,,,,,,bars/048.png,bars/mask006.png,,,,,,,,,,,,7,2,,,,,,,10,10,10,10,,,,,,,,,,,684.0379,684.5377,684.7876,687.9037,space,3.1035,,687.9038,65,10,688.9033,688.9033,692.5025,space,3.5806,,0,22,22,22,1,50,175,,,,,,,,
,,6134ec246da4dc93db56e8f8,65b1a122c776755edf0f7664,2024-01-25_01h46.45.223,bars,2023.2.3,Win32,59.88023952,657b66ea316d21385b68909f,,,,,,,,,,,692.5028,693.5022,,,694.0021,694.252,,33,33,,,,,,,,,,,,,,,,bars/014.png,bars/mask000.png,,,,,,,,,,,,0,2,,,,,,,8,8,8,8,,,,,,,,,,,693.5022,694.0021,694.252,712.3477,space,18.0768,,712.3477,47,33,713.3473,713.3473,716.6799,space,3.3089,,0,23,23,23,1,80,0,,,,,,,,
,,6134ec246da4dc93db56e8f8,65b1a122c776755edf0f7664,2024-01-25_01h46.45.223,bars,2023.2.3,Win32,59.88023952,657b66ea316d21385b68909f,,,,,,,,,,,716.6801,717.6797,,,718.1796,718.4294,,153,-27,,,,,,,,,,,,,,,,bars/016.png,bars/mask009.png,,,,,,,,,,,,6,2,,,,,,,6,10,5,10,,,,,,,,,,,717.6798,718.1795,718.4294,722.2619,space,3.8203,,722.262,67,12,723.2615,723.2615,726.3943,space,3.1128,,0,24,24,24,1,40,165,,,,,,,,
,,6134ec246da4dc93db56e8f8,65b1a122c776755edf0f7664,2024-01-25_01h46.45.223,bars,2023.2.3,Win32,59.88023952,657b66ea316d21385b68909f,,,,,,,,,,,726.4049,727.3938,,,727.8938,728.1437,,32,212,,,,,,,,,,,,,,,,bars/008.png,bars/mask003.png,,,,,,,,,,,,0,2,,,,,,,4,10,6,10,,,,,,,,,,,727.3938,727.8938,728.1437,736.8915,space,8.7425,,736.8915,78,32,737.8913,737.8913,741.8737,space,3.9548,,0,25,25,25,1,110,0,,,,,,,,
,,6134ec246da4dc93db56e8f8,65b1a122c776755edf0f7664,2024-01-25_01h46.45.223,bars,2023.2.3,Win32,59.88023952,657b66ea316d21385b68909f,,,,,,,,,,,741.874,742.8735,,,743.3734,743.6233,,129,129,,,,,,,,,,,,,,,,bars/044.png,bars/mask005.png,,,,,,,,,,,,1,2,,,,,,,2,8,1,8,,,,,,,,,,,742.8735,743.3733,743.6233,746.1727,space,2.5359,,746.1727,54,26,747.1724,747.1724,751.3214,space,4.1264,,0,26,26,26,1,75,155,,,,,,,,
,,6134ec246da4dc93db56e8f8,65b1a122c776755edf0f7664,2024-01-25_01h46.45.223,bars,2023.2.3,Win32,59.88023952,657b66ea316d21385b68909f,,,,,,,,,,,751.3303,752.3211,,,752.821,753.0711,,58,58,,,,,,,,,,,,,,,,bars/047.png,bars/mask003.png,,,,,,,,,,,,5,2,,,,,,,4,10,4,8,,,,,,,,,,,752.3211,752.8209,753.0711,757.22,space,4.139,,757.22,43,12,758.2197,758.2197,761.3192,space,3.0811,,0,27,27,27,1,15,70,,,,,,,,
,,6134ec246da4dc93db56e8f8,65b1a122c776755edf0f7664,2024-01-25_01h46.45.223,bars,2023.2.3,Win32,59.88023952,657b66ea316d21385b68909f,,,,,,,,,,,761.3195,762.3188,,,762.8186,763.0685,,25,205,,,,,,,,,,,,,,,,bars/028.png,bars/mask004.png,,,,,,,,,,,,2,1,,,,,,,6,8,7,10,,,,,,,,,,,762.3189,762.8186,763.0685,771.0333,space,7.9487,,771.0334,20,85,772.033,772.033,776.3653,space,4.3023,,0,28,28,28,1,45,120,,,,,,,,
,,6134ec246da4dc93db56e8f8,65b1a122c776755edf0f7664,2024-01-25_01h46.45.223,bars,2023.2.3,Win32,59.88023952,657b66ea316d21385b68909f,,,,,,,,,,,776.3771,777.365,,,777.8649,778.1148,,118,118,,,,,,,,,,,,,,,,bars/039.png,bars/mask000.png,,,,,,,,,,,,3,2,,,,,,,4,6,3,6,,,,,,,,,,,777.365,777.8649,778.1148,781.3473,space,3.2231,,781.3474,57,13,782.3472,782.3472,785.863,space,3.4877,,0,29,29,29,1,175,105,,,,,,,,
,,6134ec246da4dc93db56e8f8,65b1a122c776755edf0f7664,2024-01-25_01h46.45.223,bars,2023.2.3,Win32,59.88023952,657b66ea316d21385b68909f,,,,,,,,,,,785.8633,786.8626,,,787.3626,787.6124,,103,103,,,,,,,,,,,,,,,,bars/019.png,bars/mask005.png,,,,,,,,,,,,7,2,,,,,,,6,8,6,7,,,,,,,,,,,786.8626,787.3625,787.6124,789.1454,space,1.5225,,789.1454,58,2,790.1453,790.1453,794.3109,space,4.1434,,0,30,30,30,1,45,105,,,,,,,,
,,6134ec246da4dc93db56e8f8,65b1a122c776755edf0f7664,2024-01-25_01h46.45.223,bars,2023.2.3,Win32,59.88023952,657b66ea316d21385b68909f,,,,,,,,,,,794.3203,795.3106,,,795.8106,796.0604,,127,127,,,,,,,,,,,,,,,,bars/049.png,bars/mask002.png,,,,,,,,,,,,6,2,,,,,,,8,10,8,10,,,,,,,,,,,795.3106,795.8105,796.0604,800.9592,space,4.8799,,800.9593,33,12,801.9589,801.9589,805.3084,space,3.3325,,0,31,31,31,1,160,115,,,,,,,,
,,6134ec246da4dc93db56e8f8,65b1a122c776755edf0f7664,2024-01-25_01h46.45.223,bars,2023.2.3,Win32,59.88023952,657b66ea316d21385b68909f,,,,,,,,,,,805.319,806.3078,,,806.8079,807.0576,,8,8,,,,,,,,,,,,,,,,bars/032.png,bars/mask006.png,,,,,,,,,,,,4,2,,,,,,,6,8,5,7,,,,,,,,,,,806.3079,806.8079,807.0576,810.6736,space,3.5971,,810.6737,63,12,811.6733,811.6733,813.9394,space,2.2455,,0,32,32,32,1,125,20,,,,,,,,
,,6134ec246da4dc93db56e8f8,65b1a122c776755edf0f7664,2024-01-25_01h46.45.223,bars,2023.2.3,Win32,59.88023952,657b66ea316d21385b68909f,,,,,,,,,,,813.9397,814.939,,,815.439,815.6891,,153,-27,,,,,,,,,,,,,,,,bars/043.png,bars/mask005.png,,,,,,,,,,,,1,2,,,,,,,4,6,2,6,,,,,,,,,,,814.9391,815.439,815.6891,822.0374,space,6.3373,,822.0374,57,23,823.037,823.037,826.6029,space,3.546,,0,33,33,33,1,30,130,,,,,,,,
,,6134ec246da4dc93db56e8f8,65b1a122c776755edf0f7664,2024-01-25_01h46.45.223,bars,2023.2.3,Win32,59.88023952,657b66ea316d21385b68909f,,,,,,,,,,,826.6132,827.6026,,,828.1027,828.3525,,48,228,,,,,,,,,,,,,,,,bars/022.png,bars/mask001.png,,,,,,,,,,,,1,2,,,,,,,6,8,7,8,,,,,,,,,,,827.6027,828.1026,828.3525,833.3348,space,4.9661,,833.3348,47,28,834.3344,834.3344,837.0504,space,2.6922,,0,34,34,34,1,95,20,,,,,,,,
,,6134ec246da4dc93db56e8f8,65b1a122c776755edf0f7664,2024-01-25_01h46.45.223,bars,2023.2.3,Win32,59.88023952,657b66ea316d21385b68909f,,,,,,,,,,,837.0507,838.0501,,,838.5499,838.8,,90,90,,,,,,,,,,,,,,,,bars/006.png,bars/mask009.png,,,,,,,,,,,,3,2,,,,,,,4,6,3,5,,,,,,,,,,,838.0502,838.5499,838.8,842.9991,space,4.1875,,842.9991,55,10,843.9987,843.9987,847.4146,space,3.3876,,0,35,35,35,1,35,100,,,,,,,,
,,6134ec246da4dc93db56e8f8,65b1a122c776755edf0f7664,2024-01-25_01h46.45.223,bars,2023.2.3,Win32,59.88023952,657b66ea316d21385b68909f,,,,,,,,,,,847.4244,848.4143,,,848.9142,849.164,,172,-8,,,,,,,,,,,,,,,,bars/045.png,bars/mask003.png,,,,,,,,,,,,4,2,,,,,,,2,8,0,9,,,,,,,,,,,848.4143,848.9142,849.164,850.847,space,1.6706,,850.847,72,18,851.8467,851.8467,854.9294,space,3.0694,,0,36,36,36,1,100,10,,,,,,,,
,,6134ec246da4dc93db56e8f8,65b1a122c776755edf0f7664,2024-01-25_01h46.45.223,bars,2023.2.3,Win32,59.88023952,657b66ea316d21385b68909f,,,,,,,,,,,854.9385,855.929,,,856.429,856.679,,107,107,,,,,,,,,,,,,,,,bars/009.png,bars/mask007.png,,,,,,,,,,,,5,2,,,,,,,0,6,0,5,,,,,,,,,,,855.929,856.4289,856.679,859.6449,space,2.9505,,859.6449,88,2,860.6447,860.6447,863.8772,space,3.2012,,0,37,37,37,1,15,105,,,,,,,,
,,6134ec246da4dc93db56e8f8,65b1a122c776755edf0f7664,2024-01-25_01h46.45.223,bars,2023.2.3,Win32,59.88023952,657b66ea316d21385b68909f,,,,,,,,,,,863.8775,864.8769,,,865.3767,865.6266,,105,105,,,,,,,,,,,,,,,,bars/009.png,bars/mask009.png,,,,,,,,,,,,5,2,,,,,,,0,4,1,5,,,,,,,,,,,864.8769,865.3767,865.6267,868.726,space,3.0874,,868.7261,90,0,869.7257,869.7257,873.8914,space,4.1421,,0,38,38,38,1,15,105,,,,,,,,
,,6134ec246da4dc93db56e8f8,65b1a122c776755edf0f7664,2024-01-25_01h46.45.223,bars,2023.2.3,Win32,59.88023952,657b66ea316d21385b68909f,,,,,,,,,,,873.9017,874.8913,,,875.3909,875.641,,112,112,,,,,,,,,,,,,,,,bars/026.png,bars/mask002.png,,,,,,,,,,,,0,2,,,,,,,0,2,2,3,,,,,,,,,,,874.8913,875.3909,875.641,879.1067,space,3.4527,,879.1068,77,27,880.1065,880.1065,882.1895,space,2.0566,,0,39,39,39,1,35,85,,,,,,,,
,,6134ec246da4dc93db56e8f8,65b1a122c776755edf0f7664,2024-01-25_01h46.45.223,bars,2023.2.3,Win32,59.88023952,657b66ea316d21385b68909f,,,,,,,,,,,882.2002,883.1892,,,883.6889,883.9389,,52,52,,,,,,,,,,,,,,,,bars/042.png,bars/mask000.png,,,,,,,,,,,,1,2,,,,,,,0,4,0,5,,,,,,,,,,,883.1893,883.6889,883.9389,888.0878,space,4.1405,,888.0879,87,23,889.0877,889.0877,890.7873,space,1.6678,,0,40,40,40,1,145,75,,,,,,,,
,,6134ec246da4dc93db56e8f8,65b1a122c776755edf0f7664,2024-01-25_01h46.45.223,bars,2023.2.3,Win32,59.88023952,657b66ea316d21385b68909f,,,,,,,,,,,890.7876,891.787,,,892.2869,892.5368,,114,114,,,,,,,,,,,,,,,,bars/026.png,bars/mask005.png,,,,,,,,,,,,0,2,,,,,,,0,2,1,2,,,,,,,,,,,891.7871,892.2869,892.5368,898.4521,space,5.896,,898.4521,79,29,899.4517,899.4517,900.5015,space,1.0251,,0,41,41,41,1,35,85,,,,,,,,
,,6134ec246da4dc93db56e8f8,65b1a122c776755edf0f7664,2024-01-25_01h46.45.223,bars,2023.2.3,Win32,59.88023952,657b66ea316d21385b68909f,,,,,,,,,,,900.5018,901.5012,,,902.0011,902.2511,,163,-17,,,,,,,,,,,,,,,,bars/033.png,bars/mask001.png,,,,,,,,,,,,1,2,,,,,,,0,0,0,1,,,,,,,,,,,901.5013,902.0011,902.2511,905.367,space,3.1053,,905.3671,42,8,906.3668,906.3668,907.983,space,1.5971,,0,42,42,42,1,25,155,,,,,,,,
,,6134ec246da4dc93db56e8f8,65b1a122c776755edf0f7664,2024-01-25_01h46.45.223,bars,2023.2.3,Win32,59.88023952,657b66ea316d21385b68909f,,,,,,,,,,,907.9832,908.9828,,,909.4826,909.7327,,59,59,,,,,,,,,,,,,,,,bars/001.png,bars/mask008.png,,,,,,,,,,,,0,2,,,,,,,0,0,2,0,,,,,,,,,,,908.9828,909.4826,909.7327,913.7651,space,4.017,,913.7652,71,26,914.7645,914.7646,916.481,space,1.6898,,0,43,43,43,1,130,85,,,,,,,,
,,6134ec246da4dc93db56e8f8,65b1a122c776755edf0f7664,2024-01-25_01h46.45.223,bars,2023.2.3,Win32,59.88023952,657b66ea316d21385b68909f,,,,,,,,,,,916.4812,917.4808,,,917.9805,918.2305,,46,226,,,,,,,,,,,,,,,,bars/035.png,bars/mask006.png,,,,,,,,,,,,1,2,,,,,,,0,0,0,1,,,,,,,,,,,917.4808,917.9804,918.2306,923.496,space,5.2493,,923.496,51,14,924.4956,924.4957,926.6786,space,2.1586,,0,44,44,44,1,175,60,,,,,,,,
,,6134ec246da4dc93db56e8f8,65b1a122c776755edf0f7664,2024-01-25_01h46.45.223,bars,2023.2.3,Win32,59.88023952,657b66ea316d21385b68909f,,,,,,,,,,,926.6788,927.6782,,,928.1781,928.4279,,68,68,,,,,,,,,,,,,,,,bars/001.png,bars/mask000.png,,,,,,,,,,,,2,2,,,,,,,2,2,1,4,,,,,,,,,,,927.6782,928.178,928.4279,932.2784,space,3.8352,,932.2786,62,17,933.2769,933.2769,935.3763,space,2.0663,,0,45,45,45,1,130,85,,,,,,,,
,,6134ec246da4dc93db56e8f8,65b1a122c776755edf0f7664,2024-01-25_01h46.45.223,bars,2023.2.3,Win32,59.88023952,657b66ea316d21385b68909f,,,,,,,,,,,935.3767,936.376,,,936.8759,937.126,,134,-46,,,,,,,,,,,,,,,,bars/005.png,bars/mask000.png,,,,,,,,,,,,3,2,,,,,,,4,4,5,4,,,,,,,,,,,936.3761,936.8759,937.126,942.8578,space,5.7215,,942.8578,56,6,943.8575,943.8575,945.5739,space,1.6921,,0,46,46,46,1,10,140,,,,,,,,
,,6134ec246da4dc93db56e8f8,65b1a122c776755edf0f7664,2024-01-25_01h46.45.223,bars,2023.2.3,Win32,59.88023952,657b66ea316d21385b68909f,,,,,,,,,,,945.5742,946.5736,,,947.0734,947.3234,,19,199,,,,,,,,,,,,,,,,bars/008.png,bars/mask004.png,,,,,,,,,,,,1,2,,,,,,,2,2,1,2,,,,,,,,,,,946.5736,947.0734,947.3234,951.7889,space,4.4576,,951.7889,89,19,952.7887,952.7888,954.1551,space,1.3395,,0,47,47,47,1,110,0,,,,,,,,
,,6134ec246da4dc93db56e8f8,65b1a122c776755edf0f7664,2024-01-25_01h46.45.223,bars,2023.2.3,Win32,59.88023952,657b66ea316d21385b68909f,,,,,,,,,,,954.1556,955.1549,,,955.6546,955.9046,,104,104,,,,,,,,,,,,,,,,bars/006.png,bars/mask006.png,,,,,,,,,,,,1,2,,,,,,,4,0,4,1,,,,,,,,,,,955.1549,955.6546,955.9046,956.871,space,0.9513,,956.8711,69,4,957.8708,957.8708,963.3862,space,5.4824,,0,48,48,48,1,35,100,,,,,,,,
,,6134ec246da4dc93db56e8f8,65b1a122c776755edf0f7664,2024-01-25_01h46.45.223,bars,2023.2.3,Win32,59.88023952,657b66ea316d21385b68909f,,,,,,,,,,,963.3958,964.3858,,,964.8858,965.1358,,38,38,,,,,,,,,,,,,,,,bars/033.png,bars/mask008.png,,,,,,,,,,,,1,1,,,,,,,2,0,1,0,,,,,,,,,,,964.3858,964.8858,965.1358,971.4016,space,6.252,,971.4018,13,63,972.4007,972.4008,974.9999,space,2.5732,,0,49,49,49,1,25,155,,,,,,,,
,,6134ec246da4dc93db56e8f8,65b1a122c776755edf0f7664,2024-01-25_01h46.45.223,bars,2023.2.3,Win32,59.88023952,657b66ea316d21385b68909f,,,,,,,,,,,,,,,,,,,,,,,,,,,,,,,,,,,,,,,,,,,,,,,,,,,,,,,,,,,,,,,,,,,,,,,,,,,,,,,,,,,,,,,,,,,,,975.0026,1035.0033,0,0,0,1,1,sequence_tables/blk017.csv
,,6134ec246da4dc93db56e8f8,65b1a122c776755edf0f7664,2024-01-25_01h46.45.223,bars,2023.2.3,Win32,59.88023952,657b66ea316d21385b68909f,,,,,,,,,,,1160.1163,1161.1053,,,1161.6051,1161.8548,,52,52,,,,,,,,,,,,,,,,bars/025.png,bars/mask008.png,,,,,,,,,,,,5,2,,,,,,,5,7,6,8,,,,,,1035.0144,1160.0889,space,125.0611,,1161.1054,1161.6049,1161.855,1167.9367,space,6.0709,,1167.937,53,12,1168.9362,1168.9363,1168.9573,,,,0,0,0,0,1,105,40,,,,,,,,
,,6134ec246da4dc93db56e8f8,65b1a122c776755edf0f7664,2024-01-25_01h46.45.223,bars,2023.2.3,Win32,59.88023952,657b66ea316d21385b68909f,,,,,,,,,,,1168.9576,1169.953,,,1170.452,1170.7027,,52,52,,,,,,,,,,,,,,,,bars/007.png,bars/mask000.png,,,,,,,,,,,,7,2,,,,,,,7,9,5,8,,,,,,,,,,,1169.9532,1170.452,1170.7029,1172.3202,space,1.5937,,1172.3204,57,3,1173.3188,1173.3189,1173.3213,,,,0,1,1,1,1,175,55,,,,,,,,
,,6134ec246da4dc93db56e8f8,65b1a122c776755edf0f7664,2024-01-25_01h46.45.223,bars,2023.2.3,Win32,59.88023952,657b66ea316d21385b68909f,,,,,,,,,,,1173.3222,1174.3182,,,1174.8183,1175.0686,,50,230,,,,,,,,,,,,,,,,bars/010.png,bars/mask001.png,,,,,,,,,,,,8,2,,,,,,,5,10,4,10,,,,,,,,,,,1174.3182,1174.8182,1175.0686,1179.3677,space,4.2735,,1179.368,65,5,1180.3664,1180.3664,1180.3811,,,,0,2,2,2,1,165,55,,,,,,,,
,,6134ec246da4dc93db56e8f8,65b1a122c776755edf0f7664,2024-01-25_01h46.45.223,bars,2023.2.3,Win32,59.88023952,657b66ea316d21385b68909f,,,,,,,,,,,1180.3813,1181.3833,,,1181.8837,1182.1335,,111,111,,,,,,,,,,,,,,,,bars/019.png,bars/mask006.png,,,,,,,,,,,,7,2,,,,,,,3,10,2,9,,,,,,,,,,,1181.3836,1181.8835,1182.1336,1184.4834,space,2.3349,,1184.4836,66,6,1185.4824,1185.4827,1185.5107,,,,0,3,3,3,1,45,105,,,,,,,,
,,6134ec246da4dc93db56e8f8,65b1a122c776755edf0f7664,2024-01-25_01h46.45.223,bars,2023.2.3,Win32,59.88023952,657b66ea316d21385b68909f,,,,,,,,,,,1185.511,1186.5154,,,1187.0151,1187.2653,,55,55,,,,,,,,,,,,,,,,bars/039.png,bars/mask007.png,,,,,,,,,,,,0,2,,,,,,,1,10,0,10,,,,,,,,,,,1186.5154,1187.0151,1187.2654,1189.3485,space,2.0675,,1189.3485,60,50,1190.348,1190.348,1190.3696,,,,0,4,4,4,1,175,105,,,,,,,,
,,6134ec246da4dc93db56e8f8,65b1a122c776755edf0f7664,2024-01-25_01h46.45.223,bars,2023.2.3,Win32,59.88023952,657b66ea316d21385b68909f,,,,,,,,,,,1190.3699,1191.3648,,,1191.8645,1192.1142,,122,122,,,,,,,,,,,,,,,,bars/049.png,bars/mask004.png,,,,,,,,,,,,8,2,,,,,,,0,10,1,10,,,,,,,,,,,1191.3649,1191.8644,1192.1143,1195.1808,space,3.0522,,1195.1809,38,7,1196.1795,1196.1795,1196.201,,,,0,5,5,5,1,160,115,,,,,,,,
,,6134ec246da4dc93db56e8f8,65b1a122c776755edf0f7664,2024-01-25_01h46.45.223,bars,2023.2.3,Win32,59.88023952,657b66ea316d21385b68909f,,,,,,,,,,,1196.2013,1197.1962,,,1197.6954,1197.9462,,174,-6,,,,,,,,,,,,,,,,bars/032.png,bars/mask009.png,,,,,,,,,,,,1,2,,,,,,,2,8,1,10,,,,,,,,,,,1197.1964,1197.6954,1197.9463,1201.0281,space,3.0708,,1201.0283,49,26,1202.0277,1202.0277,1202.0431,,,,0,6,6,6,1,125,20,,,,,,,,
,,6134ec246da4dc93db56e8f8,65b1a122c776755edf0f7664,2024-01-25_01h46.45.223,bars,2023.2.3,Win32,59.88023952,657b66ea316d21385b68909f,,,,,,,,,,,1202.0434,1203.0441,,,1203.5438,1203.7946,,13,193,,,,,,,,,,,,,,,,bars/036.png,bars/mask004.png,,,,,,,,,,,,4,2,,,,,,,0,6,0,5,,,,,,,,,,,1203.0441,1203.5438,1203.7946,1208.2262,space,4.4167,,1208.2263,48,7,1209.2259,1209.2259,1209.2375,,,,0,7,7,7,1,145,20,,,,,,,,
,,6134ec246da4dc93db56e8f8,65b1a122c776755edf0f7664,2024-01-25_01h46.45.223,bars,2023.2.3,Win32,59.88023952,657b66ea316d21385b68909f,,,,,,,,,,,1209.2377,1210.2266,,,1210.726,1210.9765,,152,-28,,,,,,,,,,,,,,,,bars/016.png,bars/mask009.png,,,,,,,,,,,,4,2,,,,,,,0,8,1,7,,,,,,,,,,,1210.2266,1210.726,1210.9765,1215.1091,space,4.1174,,1215.1092,68,13,1216.1086,1216.1087,1216.1372,,,,0,8,8,8,1,40,165,,,,,,,,
,,6134ec246da4dc93db56e8f8,65b1a122c776755edf0f7664,2024-01-25_01h46.45.223,bars,2023.2.3,Win32,59.88023952,657b66ea316d21385b68909f,,,,,,,,,,,1216.1374,1217.141,,,1217.6405,1217.8904,,8,188,,,,,,,,,,,,,,,,bars/045.png,bars/mask003.png,,,,,,,,,,,,5,2,,,,,,,0,6,0,5,,,,,,,,,,,1217.141,1217.6404,1217.8904,1218.9736,space,1.0678,,1218.9736,88,2,1219.9735,1219.9736,1219.9743,,,,0,9,9,9,1,100,10,,,,,,,,
,,6134ec246da4dc93db56e8f8,65b1a122c776755edf0f7664,2024-01-25_01h46.45.223,bars,2023.2.3,Win32,59.88023952,657b66ea316d21385b68909f,,,,,,,,,,,1219.9744,1220.9733,,,1221.4737,1221.7236,,158,-22,,,,,,,,,,,,,,,,bars/003.png,bars/mask009.png,,,,,,,,,,,,3,2,,,,,,,0,8,1,8,,,,,,,,,,,1220.9733,1221.4736,1221.7237,1224.223,space,2.4886,,1224.223,47,18,1225.2227,1225.2227,1225.243,,,,0,10,10,10,1,25,140,,,,,,,,
,,6134ec246da4dc93db56e8f8,65b1a122c776755edf0f7664,2024-01-25_01h46.45.223,bars,2023.2.3,Win32,59.88023952,657b66ea316d21385b68909f,,,,,,,,,,,1225.2432,1226.2397,,,1226.7392,1226.9883,,35,35,,,,,,,,,,,,,,,,bars/013.png,bars/mask009.png,,,,,,,,,,,,2,2,,,,,,,0,10,0,10,,,,,,,,,,,1226.2398,1226.739,1226.9883,1228.7223,space,1.7193,,1228.7224,40,25,1229.7216,1229.7217,1229.7244,,,,0,11,11,11,1,75,10,,,,,,,,
,,6134ec246da4dc93db56e8f8,65b1a122c776755edf0f7664,2024-01-25_01h46.45.223,bars,2023.2.3,Win32,59.88023952,657b66ea316d21385b68909f,,,,,,,,,,,1229.7252,1230.7213,,,1231.2214,1231.4707,,95,95,,,,,,,,,,,,,,,,bars/023.png,bars/mask005.png,,,,,,,,,,,,3,2,,,,,,,0,8,0,8,,,,,,,,,,,1230.7214,1231.2213,1231.4708,1235.0363,space,3.5492,,1235.0363,75,20,1236.0361,1236.0361,1236.0521,,,,0,12,12,12,1,20,115,,,,,,,,
,,6134ec246da4dc93db56e8f8,65b1a122c776755edf0f7664,2024-01-25_01h46.45.223,bars,2023.2.3,Win32,59.88023952,657b66ea316d21385b68909f,,,,,,,,,,,1236.0526,1237.0524,,,1237.5533,1237.8033,,103,103,,,,,,,,,,,,,,,,bars/023.png,bars/mask009.png,,,,,,,,,,,,3,2,,,,,,,2,6,2,5,,,,,,,,,,,1237.0524,1237.5531,1237.8034,1239.0194,space,1.2017,,1239.0196,83,12,1240.0183,1240.0184,1240.0193,,,,0,13,13,13,1,20,115,,,,,,,,
,,6134ec246da4dc93db56e8f8,65b1a122c776755edf0f7664,2024-01-25_01h46.45.223,bars,2023.2.3,Win32,59.88023952,657b66ea316d21385b68909f,,,,,,,,,,,1240.0199,1241.0182,,,1241.5196,1241.7686,,158,158,,,,,,,,,,,,,,,,bars/036.png,bars/mask009.png,,,,,,,,,,,,1,1,,,,,,,0,8,1,8,,,,,,,,,,,1241.0182,1241.5194,1241.7686,1244.9684,space,3.184,,1244.9686,13,42,1245.9674,1245.9674,1245.9883,,,,0,14,14,14,1,145,20,,,,,,,,
,,6134ec246da4dc93db56e8f8,65b1a122c776755edf0f7664,2024-01-25_01h46.45.223,bars,2023.2.3,Win32,59.88023952,657b66ea316d21385b68909f,,,,,,,,,,,1245.9885,1246.9842,,,1247.4843,1247.734,,64,64,,,,,,,,,,,,,,,,bars/013.png,bars/mask002.png,,,,,,,,,,,,0,1,,,,,,,2,10,0,10,,,,,,,,,,,1246.9843,1247.4841,1247.734,1252.282,space,4.5402,,1252.282,11,54,1253.2821,1253.2821,1253.2928,,,,0,15,15,15,1,75,10,,,,,,,,
,,6134ec246da4dc93db56e8f8,65b1a122c776755edf0f7664,2024-01-25_01h46.45.223,bars,2023.2.3,Win32,59.88023952,657b66ea316d21385b68909f,,,,,,,,,,,1253.293,1254.2815,,,1254.7824,1255.0324,,11,191,,,,,,,,,,,,,,,,bars/012.png,bars/mask004.png,,,,,,,,,,,,9,2,,,,,,,4,10,2,10,,,,,,,,,,,1254.2815,1254.7823,1255.0325,1258.2472,space,3.2032,,1258.2472,79,4,1259.247,1259.247,1259.2586,,,,0,16,16,16,1,90,15,,,,,,,,
,,6134ec246da4dc93db56e8f8,65b1a122c776755edf0f7664,2024-01-25_01h46.45.223,bars,2023.2.3,Win32,59.88023952,657b66ea316d21385b68909f,,,,,,,,,,,1259.2588,1260.2472,,,1260.747,1260.9973,,94,94,,,,,,,,,,,,,,,,bars/037.png,bars/mask001.png,,,,,,,,,,,,6,2,,,,,,,2,8,2,9,,,,,,,,,,,1260.2472,1260.747,1260.9974,1263.7793,space,2.7651,,1263.7793,56,11,1264.7789,1264.779,1264.7885,,,,0,17,17,17,1,150,105,,,,,,,,
,,6134ec246da4dc93db56e8f8,65b1a122c776755edf0f7664,2024-01-25_01h46.45.223,bars,2023.2.3,Win32,59.88023952,657b66ea316d21385b68909f,,,,,,,,,,,1264.7886,1265.7798,,,1266.2786,1266.5293,,87,87,,,,,,,,,,,,,,,,bars/037.png,bars/mask004.png,,,,,,,,,,,,3,2,,,,,,,0,6,0,7,,,,,,,,,,,1265.7798,1266.2786,1266.5294,1270.2292,space,3.6836,,1270.2293,63,18,1271.2279,1271.228,1271.2539,,,,0,18,18,18,1,150,105,,,,,,,,
,,6134ec246da4dc93db56e8f8,65b1a122c776755edf0f7664,2024-01-25_01h46.45.223,bars,2023.2.3,Win32,59.88023952,657b66ea316d21385b68909f,,,,,,,,,,,1271.2541,1272.2446,,,1272.7449,1272.9947,,74,74,,,,,,,,,,,,,,,,bars/046.png,bars/mask009.png,,,,,,,,,,,,2,2,,,,,,,0,4,2,3,,,,,,,,,,,1272.2447,1272.7448,1272.9948,1276.2438,space,3.2339,,1276.244,81,11,1277.2431,1277.2431,1277.2563,,,,0,19,19,19,1,155,85,,,,,,,,
,,6134ec246da4dc93db56e8f8,65b1a122c776755edf0f7664,2024-01-25_01h46.45.223,bars,2023.2.3,Win32,59.88023952,657b66ea316d21385b68909f,,,,,,,,,,,1277.2565,1278.2591,,,1278.7597,1279.0093,,133,133,,,,,,,,,,,,,,,,bars/019.png,bars/mask005.png,,,,,,,,,,,,0,2,,,,,,,2,2,1,1,,,,,,,,,,,1278.2592,1278.7596,1279.0093,1280.8261,space,1.8029,,1280.8261,88,28,1281.8257,1281.8258,1281.8276,,,,0,20,20,20,1,45,105,,,,,,,,
,,6134ec246da4dc93db56e8f8,65b1a122c776755edf0f7664,2024-01-25_01h46.45.223,bars,2023.2.3,Win32,59.88023952,657b66ea316d21385b68909f,,,,,,,,,,,1281.829,1282.8255,,,1283.3253,1283.575,,16,16,,,,,,,,,,,,,,,,bars/027.png,bars/mask006.png,,,,,,,,,,,,0,2,,,,,,,4,0,4,0,,,,,,,,,,,1282.8256,1283.3253,1283.575,1287.0909,space,3.5012,,1287.0909,86,34,1288.0902,1288.0903,1288.1118,,,,0,21,21,21,1,110,50,,,,,,,,
,,6134ec246da4dc93db56e8f8,65b1a122c776755edf0f7664,2024-01-25_01h46.45.223,bars,2023.2.3,Win32,59.88023952,657b66ea316d21385b68909f,,,,,,,,,,,1288.1119,1289.1068,,,1289.6066,1289.8563,,41,221,,,,,,,,,,,,,,,,bars/035.png,bars/mask009.png,,,,,,,,,,,,0,2,,,,,,,2,0,3,0,,,,,,,,,,,1289.1068,1289.6065,1289.8563,1294.7563,space,4.8861,,1294.7564,46,19,1295.7556,1295.7556,1295.7812,,,,0,22,22,22,1,175,60,,,,,,,,
,,6134ec246da4dc93db56e8f8,65b1a122c776755edf0f7664,2024-01-25_01h46.45.223,bars,2023.2.3,Win32,59.88023952,657b66ea316d21385b68909f,,,,,,,,,,,1295.7815,1296.7719,,,1297.272,1297.5216,,158,-22,,,,,,,,,,,,,,,,bars/013.png,bars/mask008.png,,,,,,,,,,,,0,2,,,,,,,0,0,1,0,,,,,,,,,,,1296.772,1297.272,1297.5217,1300.1045,space,2.5673,,1300.1045,83,32,1301.1042,1301.1042,1301.1259,,,,0,23,23,23,1,75,10,,,,,,,,
,,6134ec246da4dc93db56e8f8,65b1a122c776755edf0f7664,2024-01-25_01h46.45.223,bars,2023.2.3,Win32,59.88023952,657b66ea316d21385b68909f,,,,,,,,,,,1301.126,1302.1205,,,1302.6198,1302.8706,,114,114,,,,,,,,,,,,,,,,bars/026.png,bars/mask009.png,,,,,,,,,,,,0,2,,,,,,,2,2,2,1,,,,,,,,,,,1302.1205,1302.6198,1302.8706,1306.6853,space,3.7978,,1306.6854,79,29,1307.6851,1307.6851,1307.6947,,,,0,24,24,24,1,35,85,,,,,,,,
,,6134ec246da4dc93db56e8f8,65b1a122c776755edf0f7664,2024-01-25_01h46.45.223,bars,2023.2.3,Win32,59.88023952,657b66ea316d21385b68909f,,,,,,,,,,,1307.6948,1308.6849,,,1309.1859,1309.4358,,65,65,,,,,,,,,,,,,,,,bars/006.png,bars/mask000.png,,,,,,,,,,,,0,1,,,,,,,0,0,0,0,,,,,,,,,,,1308.6849,1309.1858,1309.4358,1310.8182,space,1.365,,1310.8182,30,35,1311.818,1311.8181,1311.8222,,,,0,25,25,25,1,35,100,,,,,,,,
,,6134ec246da4dc93db56e8f8,65b1a122c776755edf0f7664,2024-01-25_01h46.45.223,bars,2023.2.3,Win32,59.88023952,657b66ea316d21385b68909f,,,,,,,,,,,1311.8225,1312.8174,,,1313.318,1313.5682,,104,104,,,,,,,,,,,,,,,,bars/018.png,bars/mask002.png,,,,,,,,,,,,0,2,,,,,,,0,0,0,0,,,,,,,,,,,1312.8175,1313.318,1313.5682,1316.9675,space,3.3827,,1316.9676,46,14,1317.967,1317.967,1317.994,,,,0,26,26,26,1,150,90,,,,,,,,
,,6134ec246da4dc93db56e8f8,65b1a122c776755edf0f7664,2024-01-25_01h46.45.223,bars,2023.2.3,Win32,59.88023952,657b66ea316d21385b68909f,,,,,,,,,,,1317.9943,1318.9831,,,1319.4831,1319.7326,,105,105,,,,,,,,,,,,,,,,bars/009.png,bars/mask006.png,,,,,,,,,,,,1,2,,,,,,,2,0,2,1,,,,,,,,,,,1318.9831,1319.483,1319.7327,1323.9987,space,4.2506,,1323.9987,90,0,1324.9982,1324.9982,1325.0204,,,,0,27,27,27,1,15,105,,,,,,,,
,,6134ec246da4dc93db56e8f8,65b1a122c776755edf0f7664,2024-01-25_01h46.45.223,bars,2023.2.3,Win32,59.88023952,657b66ea316d21385b68909f,,,,,,,,,,,1325.0207,1326.014,,,1326.5147,1326.7645,,161,-19,,,,,,,,,,,,,,,,bars/016.png,bars/mask006.png,,,,,,,,,,,,2,2,,,,,,,0,2,2,2,,,,,,,,,,,1326.0141,1326.5147,1326.7647,1331.3304,space,4.5508,,1331.3305,59,4,1332.3295,1332.3296,1332.3513,,,,0,28,28,28,1,40,165,,,,,,,,
,,6134ec246da4dc93db56e8f8,65b1a122c776755edf0f7664,2024-01-25_01h46.45.223,bars,2023.2.3,Win32,59.88023952,657b66ea316d21385b68909f,,,,,,,,,,,1332.3516,1333.3455,,,1333.8454,1334.0954,,125,125,,,,,,,,,,,,,,,,bars/039.png,bars/mask007.png,,,,,,,,,,,,0,2,,,,,,,2,0,1,0,,,,,,,,,,,1333.3455,1333.8454,1334.0954,1339.0608,space,4.949,,1339.0609,50,20,1340.0609,1340.0609,1340.0819,,,,0,29,29,29,1,175,105,,,,,,,,
,,6134ec246da4dc93db56e8f8,65b1a122c776755edf0f7664,2024-01-25_01h46.45.223,bars,2023.2.3,Win32,59.88023952,657b66ea316d21385b68909f,,,,,,,,,,,1340.082,1341.0772,,,1341.578,1341.8277,,123,123,,,,,,,,,,,,,,,,bars/024.png,bars/mask006.png,,,,,,,,,,,,1,1,,,,,,,0,2,1,3,,,,,,,,,,,1341.0772,1341.5779,1341.8279,1347.6596,space,5.8155,,1347.6597,3,47,1348.6599,1348.66,1348.6909,,,,0,30,30,30,1,120,170,,,,,,,,
,,6134ec246da4dc93db56e8f8,65b1a122c776755edf0f7664,2024-01-25_01h46.45.223,bars,2023.2.3,Win32,59.88023952,657b66ea316d21385b68909f,,,,,,,,,,,1348.6912,1349.6925,,,1350.1919,1350.4418,,40,40,,,,,,,,,,,,,,,,bars/035.png,bars/mask000.png,,,,,,,,,,,,0,2,,,,,,,0,0,0,1,,,,,,,,,,,1349.6925,1350.1919,1350.4418,1371.5535,space,21.0975,,1371.5535,45,20,1372.5531,1372.5532,1372.5772,,,,0,31,31,31,1,175,60,,,,,,,,
,,6134ec246da4dc93db56e8f8,65b1a122c776755edf0f7664,2024-01-25_01h46.45.223,bars,2023.2.3,Win32,59.88023952,657b66ea316d21385b68909f,,,,,,,,,,,1372.5775,1373.5694,,,1374.0697,1374.3269,,108,108,,,,,,,,,,,,,,,,bars/012.png,bars/mask005.png,,,,,,,,,,,,1,1,,,,,,,2,2,2,2,,,,,,,,,,,1373.5694,1374.0696,1374.3269,1377.8355,space,3.4926,,1377.8358,18,87,1378.8353,1378.8353,1378.8628,,,,0,32,32,32,1,90,15,,,,,,,,
,,6134ec246da4dc93db56e8f8,65b1a122c776755edf0f7664,2024-01-25_01h46.45.223,bars,2023.2.3,Win32,59.88023952,657b66ea316d21385b68909f,,,,,,,,,,,1378.8631,1379.8513,,,1380.3509,1380.6014,,46,46,,,,,,,,,,,,,,,,bars/004.png,bars/mask003.png,,,,,,,,,,,,1,1,,,,,,,4,4,4,6,,,,,,,,,,,1379.8513,1380.3509,1380.6014,1384.1335,space,3.5173,,1384.1336,21,79,1385.1335,1385.1336,1385.1541,,,,0,33,33,33,1,25,125,,,,,,,,
,,6134ec246da4dc93db56e8f8,65b1a122c776755edf0f7664,2024-01-25_01h46.45.223,bars,2023.2.3,Win32,59.88023952,657b66ea316d21385b68909f,,,,,,,,,,,1385.1544,1386.1492,,,1386.6501,1386.8997,,85,85,,,,,,,,,,,,,,,,bars/025.png,bars/mask006.png,,,,,,,,,,,,2,1,,,,,,,6,2,7,2,,,,,,,,,,,1386.1493,1386.65,1386.8997,1388.9324,space,2.0155,,1388.9324,20,45,1389.9326,1389.9327,1389.9354,,,,0,34,34,34,1,105,40,,,,,,,,
,,6134ec246da4dc93db56e8f8,65b1a122c776755edf0f7664,2024-01-25_01h46.45.223,bars,2023.2.3,Win32,59.88023952,657b66ea316d21385b68909f,,,,,,,,,,,1389.9362,1390.932,,,1391.4312,1391.6815,,58,58,,,,,,,,,,,,,,,,bars/035.png,bars/mask002.png,,,,,,,,,,,,4,2,,,,,,,4,4,4,4,,,,,,,,,,,1390.9321,1391.4311,1391.6815,1397.4314,space,5.7351,,1397.4316,63,2,1398.4295,1398.4296,1398.4428,,,,0,35,35,35,1,175,60,,,,,,,,
,,6134ec246da4dc93db56e8f8,65b1a122c776755edf0f7664,2024-01-25_01h46.45.223,bars,2023.2.3,Win32,59.88023952,657b66ea316d21385b68909f,,,,,,,,,,,1398.4429,1399.4465,,,1399.9458,1400.1966,,115,115,,,,,,,,,,,,,,,,bars/012.png,bars/mask009.png,,,,,,,,,,,,0,1,,,,,,,2,6,3,5,,,,,,,,,,,1399.4466,1399.9458,1400.1966,1404.578,space,4.3663,,1404.578,25,80,1405.5777,1405.5777,1405.5886,,,,0,36,36,36,1,90,15,,,,,,,,
,,6134ec246da4dc93db56e8f8,65b1a122c776755edf0f7664,2024-01-25_01h46.45.223,bars,2023.2.3,Win32,59.88023952,657b66ea316d21385b68909f,,,,,,,,,,,1405.5888,1406.5774,,,1407.0774,1407.3273,,108,108,,,,,,,,,,,,,,,,bars/026.png,bars/mask000.png,,,,,,,,,,,,2,2,,,,,,,4,8,4,7,,,,,,,,,,,1406.5774,1407.0774,1407.3273,1410.8271,space,3.4846,,1410.8273,73,23,1411.8272,1411.8272,1411.8552,,,,0,37,37,37,1,35,85,,,,,,,,
,,6134ec246da4dc93db56e8f8,65b1a122c776755edf0f7664,2024-01-25_01h46.45.223,bars,2023.2.3,Win32,59.88023952,657b66ea316d21385b68909f,,,,,,,,,,,1411.8555,1412.8432,,,1413.3432,1413.5926,,149,-31,,,,,,,,,,,,,,,,bars/033.png,bars/mask006.png,,,,,,,,,,,,8,2,,,,,,,6,10,7,10,,,,,,,,,,,1412.8432,1413.3431,1413.5926,1417.0926,space,3.4918,,1417.0927,56,6,1418.0915,1418.0916,1418.1006,,,,0,38,38,38,1,25,155,,,,,,,,
,,6134ec246da4dc93db56e8f8,65b1a122c776755edf0f7664,2024-01-25_01h46.45.223,bars,2023.2.3,Win32,59.88023952,657b66ea316d21385b68909f,,,,,,,,,,,1418.1008,1419.0913,,,1419.5913,1419.8415,,139,-41,,,,,,,,,,,,,,,,bars/015.png,bars/mask005.png,,,,,,,,,,,,2,2,,,,,,,8,8,8,8,,,,,,,,,,,1419.0913,1419.5913,1419.8416,1424.7234,space,4.8664,,1424.7234,29,21,1425.723,1425.723,1425.7357,,,,0,39,39,39,1,110,160,,,,,,,,
,,6134ec246da4dc93db56e8f8,65b1a122c776755edf0f7664,2024-01-25_01h46.45.223,bars,2023.2.3,Win32,59.88023952,657b66ea316d21385b68909f,,,,,,,,,,,1425.7359,1426.7395,,,1427.2398,1427.4898,,94,94,,,,,,,,,,,,,,,,bars/023.png,bars/mask006.png,,,,,,,,,,,,2,2,,,,,,,10,6,10,5,,,,,,,,,,,1426.7396,1427.2397,1427.4898,1430.2884,space,2.7886,,1430.2885,74,21,1431.2882,1431.2882,1431.299,,,,0,40,40,40,1,20,115,,,,,,,,
,,6134ec246da4dc93db56e8f8,65b1a122c776755edf0f7664,2024-01-25_01h46.45.223,bars,2023.2.3,Win32,59.88023952,657b66ea316d21385b68909f,,,,,,,,,,,1431.2992,1432.2879,,,1432.7878,1433.0378,,176,-4,,,,,,,,,,,,,,,,bars/005.png,bars/mask003.png,,,,,,,,,,,,4,1,,,,,,,8,8,7,7,,,,,,,,,,,1432.2879,1432.7878,1433.0378,1437.9202,space,4.8631,,1437.9203,14,36,1438.9196,1438.9196,1438.9289,,,,0,41,41,41,1,10,140,,,,,,,,
,,6134ec246da4dc93db56e8f8,65b1a122c776755edf0f7664,2024-01-25_01h46.45.223,bars,2023.2.3,Win32,59.88023952,657b66ea316d21385b68909f,,,,,,,,,,,1438.9291,1439.9194,,,1440.42,1440.6697,,1,1,,,,,,,,,,,,,,,,bars/016.png,bars/mask002.png,,,,,,,,,,,,5,2,,,,,,,10,10,10,10,,,,,,,,,,,1439.9194,1440.42,1440.6698,1443.9684,space,3.2871,,1443.9684,39,16,1444.9681,1444.9681,1444.9778,,,,0,42,42,42,1,40,165,,,,,,,,
,,6134ec246da4dc93db56e8f8,65b1a122c776755edf0f7664,2024-01-25_01h46.45.223,bars,2023.2.3,Win32,59.88023952,657b66ea316d21385b68909f,,,,,,,,,,,1444.978,1445.9679,,,1446.4684,1446.7186,,116,116,,,,,,,,,,,,,,,,bars/008.png,bars/mask005.png,,,,,,,,,,,,7,1,,,,,,,10,10,9,10,,,,,,,,,,,1445.968,1446.4684,1446.7186,1450.5678,space,3.8329,,1450.5679,6,64,1451.5673,1451.5674,1451.5899,,,,0,43,43,43,1,110,0,,,,,,,,
,,6134ec246da4dc93db56e8f8,65b1a122c776755edf0f7664,2024-01-25_01h46.45.223,bars,2023.2.3,Win32,59.88023952,657b66ea316d21385b68909f,,,,,,,,,,,1451.5902,1452.5836,,,1453.0832,1453.3337,,24,204,,,,,,,,,,,,,,,,bars/035.png,bars/mask000.png,,,,,,,,,,,,0,1,,,,,,,10,10,10,10,,,,,,,,,,,1452.5838,1453.0832,1453.3338,1457.6664,space,4.3178,,1457.6665,29,36,1458.6648,1458.6648,1458.6765,,,,0,44,44,44,1,175,60,,,,,,,,
,,6134ec246da4dc93db56e8f8,65b1a122c776755edf0f7664,2024-01-25_01h46.45.223,bars,2023.2.3,Win32,59.88023952,657b66ea316d21385b68909f,,,,,,,,,,,1458.6766,1459.6649,,,1460.1645,1460.4144,,170,-10,,,,,,,,,,,,,,,,bars/048.png,bars/mask006.png,,,,,,,,,,,,5,2,,,,,,,10,8,10,6,,,,,,,,,,,1459.6649,1460.1645,1460.4144,1465.6146,space,5.1854,,1465.6148,60,5,1466.6141,1466.6142,1466.6395,,,,0,45,45,45,1,50,175,,,,,,,,
,,6134ec246da4dc93db56e8f8,65b1a122c776755edf0f7664,2024-01-25_01h46.45.223,bars,2023.2.3,Win32,59.88023952,657b66ea316d21385b68909f,,,,,,,,,,,1466.6398,1467.6301,,,1468.1292,1468.3801,,119,119,,,,,,,,,,,,,,,,bars/000.png,bars/mask001.png,,,,,,,,,,,,1,2,,,,,,,8,6,6,6,,,,,,,,,,,1467.6302,1468.1292,1468.3801,1470.1959,space,1.799,,1470.196,79,26,1471.1955,1471.1955,1471.2055,,,,0,46,46,46,1,40,145,,,,,,,,
,,6134ec246da4dc93db56e8f8,65b1a122c776755edf0f7664,2024-01-25_01h46.45.223,bars,2023.2.3,Win32,59.88023952,657b66ea316d21385b68909f,,,,,,,,,,,1471.2056,1472.1949,,,1472.6954,1472.9452,,174,-6,,,,,,,,,,,,,,,,bars/005.png,bars/mask002.png,,,,,,,,,,,,5,1,,,,,,,10,4,10,4,,,,,,,,,,,1472.195,1472.6954,1472.9453,1475.4449,space,2.4899,,1475.445,16,34,1476.4447,1476.4447,1476.4493,,,,0,47,47,47,1,10,140,,,,,,,,
,,6134ec246da4dc93db56e8f8,65b1a122c776755edf0f7664,2024-01-25_01h46.45.223,bars,2023.2.3,Win32,59.88023952,657b66ea316d21385b68909f,,,,,,,,,,,1476.4499,1477.4444,,,1477.9444,1478.1933,,164,164,,,,,,,,,,,,,,,,bars/003.png,bars/mask006.png,,,,,,,,,,,,0,2,,,,,,,8,2,7,2,,,,,,,,,,,1477.4445,1477.9443,1478.1933,1481.5102,space,3.3023,,1481.5103,41,24,1482.5096,1482.5097,1482.5316,,,,0,48,48,48,1,25,140,,,,,,,,
,,6134ec246da4dc93db56e8f8,65b1a122c776755edf0f7664,2024-01-25_01h46.45.223,bars,2023.2.3,Win32,59.88023952,657b66ea316d21385b68909f,,,,,,,,,,,1482.5319,1483.526,,,1484.0263,1484.2757,,139,-41,,,,,,,,,,,,,,,,bars/024.png,bars/mask002.png,,,,,,,,,,,,4,1,,,,,,,10,0,10,0,,,,,,,,,,,1483.5261,1484.0262,1484.2757,1490.2573,space,5.9674,,1490.2574,19,31,1491.2569,1491.2569,1491.2701,,,,0,49,49,49,1,120,170,,,,,,,,
,,6134ec246da4dc93db56e8f8,65b1a122c776755edf0f7664,2024-01-25_01h46.45.223,bars,2023.2.3,Win32,59.88023952,657b66ea316d21385b68909f,,,,,,,,,,,,,,,,,,,,,,,,,,,,,,,,,,,,,,,,,,,,,,,,,,,,,,,,,,,,,,,,,,,,,,,,,,,,,,,,,,,,,,,,,,,,,1491.2702,1551.2598,0,1,1,0,1,sequence_tables/blk002.csv
,,6134ec246da4dc93db56e8f8,65b1a122c776755edf0f7664,2024-01-25_01h46.45.223,bars,2023.2.3,Win32,59.88023952,657b66ea316d21385b68909f,,,,,,,,,,,1643.3177,1644.3039,,,1644.8034,1645.0533,,117,117,,,,,,,,,,,,,,,,bars/040.png,bars/mask001.png,,,,,,,,,,,,2,1,,,,,,,9,4,9,4,,,,,,1551.2797,1643.2874,space,91.9937,,1644.3039,1644.8033,1645.0534,1651.319,space,6.2397,,1651.3193,23,68,1652.3183,1652.3183,1652.3462,,,,0,0,0,0,1,140,5,,,,,,,,
,,6134ec246da4dc93db56e8f8,65b1a122c776755edf0f7664,2024-01-25_01h46.45.223,bars,2023.2.3,Win32,59.88023952,657b66ea316d21385b68909f,,,,,,,,,,,1652.3464,1653.3346,,,1653.8342,1654.0844,,118,118,,,,,,,,,,,,,,,,bars/034.png,bars/mask005.png,,,,,,,,,,,,8,1,,,,,,,10,6,10,6,,,,,,,,,,,1653.3346,1653.8341,1654.0846,1657.3338,space,3.2409,,1657.3341,7,53,1658.3337,1658.3339,1658.3613,,,,0,1,1,1,1,125,65,,,,,,,,
,,6134ec246da4dc93db56e8f8,65b1a122c776755edf0f7664,2024-01-25_01h46.45.223,bars,2023.2.3,Win32,59.88023952,657b66ea316d21385b68909f,,,,,,,,,,,1658.3616,1659.3498,,,1659.8491,1660.0997,,123,123,,,,,,,,,,,,,,,,bars/000.png,bars/mask009.png,,,,,,,,,,,,1,2,,,,,,,8,4,8,5,,,,,,,,,,,1659.3499,1659.849,1660.0997,1666.2142,space,6.1058,,1666.2143,83,22,1667.2143,1667.2143,1667.2369,,,,0,2,2,2,1,40,145,,,,,,,,
,,6134ec246da4dc93db56e8f8,65b1a122c776755edf0f7664,2024-01-25_01h46.45.223,bars,2023.2.3,Win32,59.88023952,657b66ea316d21385b68909f,,,,,,,,,,,1667.2371,1668.2305,,,1668.7307,1668.9807,,40,40,,,,,,,,,,,,,,,,bars/035.png,bars/mask008.png,,,,,,,,,,,,2,2,,,,,,,6,6,6,7,,,,,,,,,,,1668.2305,1668.7306,1668.9807,1672.1126,space,3.1155,,1672.1126,45,20,1673.1127,1673.1128,1673.1338,,,,0,3,3,3,1,175,60,,,,,,,,
,,6134ec246da4dc93db56e8f8,65b1a122c776755edf0f7664,2024-01-25_01h46.45.223,bars,2023.2.3,Win32,59.88023952,657b66ea316d21385b68909f,,,,,,,,,,,1673.1338,1674.1296,,,1674.6292,1674.8784,,102,102,,,,,,,,,,,,,,,,bars/002.png,bars/mask005.png,,,,,,,,,,,,3,2,,,,,,,4,8,3,8,,,,,,,,,,,1674.1296,1674.6292,1674.8784,1680.1281,space,5.2419,,1680.1283,28,17,1681.1278,1681.1278,1681.1505,,,,0,4,4,4,1,130,85,,,,,,,,
,,6134ec246da4dc93db56e8f8,65b1a122c776755edf0f7664,2024-01-25_01h46.45.223,bars,2023.2.3,Win32,59.88023952,657b66ea316d21385b68909f,,,,,,,,,,,1681.1508,1682.1444,,,1682.6439,1682.8934,,171,-9,,,,,,,,,,,,,,,,bars/018.png,bars/mask006.png,,,,,,,,,,,,0,1,,,,,,,2,10,1,10,,,,,,,,,,,1682.1444,1682.6438,1682.8936,1685.6103,space,2.7028,,1685.6105,21,81,1686.61,1686.6101,1686.6426,,,,0,5,5,5,1,150,90,,,,,,,,
,,6134ec246da4dc93db56e8f8,65b1a122c776755edf0f7664,2024-01-25_01h46.45.223,bars,2023.2.3,Win32,59.88023952,657b66ea316d21385b68909f,,,,,,,,,,,1686.6428,1687.6429,,,1688.1419,1688.3924,,146,-34,,,,,,,,,,,,,,,,bars/033.png,bars/mask008.png,,,,,,,,,,,,6,2,,,,,,,4,8,4,8,,,,,,,,,,,1687.6429,1688.1419,1688.3925,1691.9744,space,3.5729,,1691.9744,59,9,1692.9747,1692.9748,1692.9972,,,,0,6,6,6,1,25,155,,,,,,,,
,,6134ec246da4dc93db56e8f8,65b1a122c776755edf0f7664,2024-01-25_01h46.45.223,bars,2023.2.3,Win32,59.88023952,657b66ea316d21385b68909f,,,,,,,,,,,1692.9975,1693.9906,,,1694.4916,1694.7404,,108,108,,,,,,,,,,,,,,,,bars/014.png,bars/mask001.png,,,,,,,,,,,,0,1,,,,,,,2,10,1,10,,,,,,,,,,,1693.9906,1694.4914,1694.7404,1696.6246,space,1.8687,,1696.6247,28,72,1697.6238,1697.6239,1697.6525,,,,0,7,7,7,1,80,0,,,,,,,,
,,6134ec246da4dc93db56e8f8,65b1a122c776755edf0f7664,2024-01-25_01h46.45.223,bars,2023.2.3,Win32,59.88023952,657b66ea316d21385b68909f,,,,,,,,,,,1697.6527,1698.6569,,,1699.1559,1699.4067,,106,106,,,,,,,,,,,,,,,,bars/027.png,bars/mask005.png,,,,,,,,,,,,3,1,,,,,,,4,8,4,7,,,,,,,,,,,1698.6569,1699.1559,1699.4067,1702.1221,space,2.7075,,1702.1221,4,56,1703.1217,1703.1217,1703.1348,,,,0,8,8,8,1,110,50,,,,,,,,
,,6134ec246da4dc93db56e8f8,65b1a122c776755edf0f7664,2024-01-25_01h46.45.223,bars,2023.2.3,Win32,59.88023952,657b66ea316d21385b68909f,,,,,,,,,,,1703.135,1704.138,,,1704.6385,1704.8884,,167,167,,,,,,,,,,,,,,,,bars/003.png,bars/mask006.png,,,,,,,,,,,,1,2,,,,,,,2,6,2,7,,,,,,,,,,,1704.1381,1704.6384,1704.8884,1709.5372,space,4.633,,1709.5373,38,27,1710.5375,1710.5375,1710.5638,,,,0,9,9,9,1,25,140,,,,,,,,
,,6134ec246da4dc93db56e8f8,65b1a122c776755edf0f7664,2024-01-25_01h46.45.223,bars,2023.2.3,Win32,59.88023952,657b66ea316d21385b68909f,,,,,,,,,,,1710.564,1711.5536,,,1712.053,1712.303,,161,-19,,,,,,,,,,,,,,,,bars/045.png,bars/mask006.png,,,,,,,,,,,,0,2,,,,,,,4,8,3,7,,,,,,,,,,,1711.5537,1712.053,1712.303,1716.1027,space,3.7903,,1716.1028,61,29,1717.1022,1717.1022,1717.1227,,,,0,10,10,10,1,100,10,,,,,,,,
,,6134ec246da4dc93db56e8f8,65b1a122c776755edf0f7664,2024-01-25_01h46.45.223,bars,2023.2.3,Win32,59.88023952,657b66ea316d21385b68909f,,,,,,,,,,,1717.123,1718.1187,,,1718.6183,1718.8684,,166,-14,,,,,,,,,,,,,,,,bars/032.png,bars/mask003.png,,,,,,,,,,,,0,2,,,,,,,2,6,1,7,,,,,,,,,,,1718.1188,1718.6182,1718.8685,1721.5011,space,2.6212,,1721.5012,41,34,1722.5006,1722.5006,1722.526,,,,0,11,11,11,1,125,20,,,,,,,,
,,6134ec246da4dc93db56e8f8,65b1a122c776755edf0f7664,2024-01-25_01h46.45.223,bars,2023.2.3,Win32,59.88023952,657b66ea316d21385b68909f,,,,,,,,,,,1722.5262,1723.517,,,1724.018,1724.2672,,33,213,,,,,,,,,,,,,,,,bars/019.png,bars/mask001.png,,,,,,,,,,,,2,1,,,,,,,4,4,4,6,,,,,,,,,,,1723.517,1724.0177,1724.2674,1727.4157,space,3.1326,,1727.4157,12,72,1728.4153,1728.4153,1728.4257,,,,0,12,12,12,1,45,105,,,,,,,,
,,6134ec246da4dc93db56e8f8,65b1a122c776755edf0f7664,2024-01-25_01h46.45.223,bars,2023.2.3,Win32,59.88023952,657b66ea316d21385b68909f,,,,,,,,,,,1728.4258,1729.4152,,,1729.9158,1730.1657,,70,70,,,,,,,,,,,,,,,,bars/002.png,bars/mask003.png,,,,,,,,,,,,3,2,,,,,,,2,6,1,6,,,,,,,,,,,1729.4152,1729.9156,1730.1657,1735.1484,space,4.968,,1735.1486,60,15,1736.1479,1736.148,1736.1759,,,,0,13,13,13,1,130,85,,,,,,,,
,,6134ec246da4dc93db56e8f8,65b1a122c776755edf0f7664,2024-01-25_01h46.45.223,bars,2023.2.3,Win32,59.88023952,657b66ea316d21385b68909f,,,,,,,,,,,1736.1762,1737.1639,,,1737.664,1737.9133,,92,92,,,,,,,,,,,,,,,,bars/030.png,bars/mask007.png,,,,,,,,,,,,0,2,,,,,,,4,4,4,4,,,,,,,,,,,1737.1639,1737.6637,1737.9134,1740.98,space,3.0524,,1740.9801,48,27,1741.9799,1741.9799,1742.0038,,,,0,14,14,14,1,140,65,,,,,,,,
,,6134ec246da4dc93db56e8f8,65b1a122c776755edf0f7664,2024-01-25_01h46.45.223,bars,2023.2.3,Win32,59.88023952,657b66ea316d21385b68909f,,,,,,,,,,,1742.004,1742.9963,,,1743.495,1743.746,,83,83,,,,,,,,,,,,,,,,bars/039.png,bars/mask006.png,,,,,,,,,,,,1,2,,,,,,,6,2,6,3,,,,,,,,,,,1742.9964,1743.495,1743.746,1748.9942,space,5.2345,,1748.9943,88,22,1749.9947,1749.9947,1750.0184,,,,0,15,15,15,1,175,105,,,,,,,,
,,6134ec246da4dc93db56e8f8,65b1a122c776755edf0f7664,2024-01-25_01h46.45.223,bars,2023.2.3,Win32,59.88023952,657b66ea316d21385b68909f,,,,,,,,,,,1750.0186,1751.0105,,,1751.5106,1751.7607,,83,83,,,,,,,,,,,,,,,,bars/002.png,bars/mask004.png,,,,,,,,,,,,0,2,,,,,,,8,0,8,0,,,,,,,,,,,1751.0106,1751.5105,1751.7608,1753.9258,space,2.149,,1753.9258,47,2,1754.9255,1754.9255,1754.9283,,,,0,16,16,16,1,130,85,,,,,,,,
,,6134ec246da4dc93db56e8f8,65b1a122c776755edf0f7664,2024-01-25_01h46.45.223,bars,2023.2.3,Win32,59.88023952,657b66ea316d21385b68909f,,,,,,,,,,,1754.9293,1755.9253,,,1756.4254,1756.6755,,120,120,,,,,,,,,,,,,,,,bars/008.png,bars/mask002.png,,,,,,,,,,,,4,1,,,,,,,6,2,6,3,,,,,,,,,,,1755.9253,1756.4254,1756.6755,1761.6074,space,4.9155,,1761.6074,10,60,1762.6076,1762.6077,1762.6292,,,,0,17,17,17,1,110,0,,,,,,,,
,,6134ec246da4dc93db56e8f8,65b1a122c776755edf0f7664,2024-01-25_01h46.45.223,bars,2023.2.3,Win32,59.88023952,657b66ea316d21385b68909f,,,,,,,,,,,1762.6294,1763.6247,,,1764.1234,1764.3733,,165,-15,,,,,,,,,,,,,,,,bars/018.png,bars/mask007.png,,,,,,,,,,,,1,1,,,,,,,4,4,1,4,,,,,,,,,,,1763.6248,1764.1233,1764.3733,1768.1064,space,3.7163,,1768.1065,15,75,1769.1062,1769.1063,1769.1309,,,,0,18,18,18,1,150,90,,,,,,,,
,,6134ec246da4dc93db56e8f8,65b1a122c776755edf0f7664,2024-01-25_01h46.45.223,bars,2023.2.3,Win32,59.88023952,657b66ea316d21385b68909f,,,,,,,,,,,1769.1311,1770.1226,,,1770.6226,1770.8717,,119,119,,,,,,,,,,,,,,,,bars/037.png,bars/mask009.png,,,,,,,,,,,,2,2,,,,,,,2,2,3,3,,,,,,,,,,,1770.1227,1770.6225,1770.8717,1775.3552,space,4.4684,,1775.3553,31,14,1776.3545,1776.3546,1776.3814,,,,0,19,19,19,1,150,105,,,,,,,,
,,6134ec246da4dc93db56e8f8,65b1a122c776755edf0f7664,2024-01-25_01h46.45.223,bars,2023.2.3,Win32,59.88023952,657b66ea316d21385b68909f,,,,,,,,,,,1776.3817,1777.3705,,,1777.87,1778.1206,,140,140,,,,,,,,,,,,,,,,bars/049.png,bars/mask006.png,,,,,,,,,,,,0,1,,,,,,,0,4,1,3,,,,,,,,,,,1777.3706,1777.8699,1778.1207,1781.4695,space,3.3374,,1781.4695,20,25,1782.4694,1782.4695,1782.4965,,,,0,20,20,20,1,160,115,,,,,,,,
,,6134ec246da4dc93db56e8f8,65b1a122c776755edf0f7664,2024-01-25_01h46.45.223,bars,2023.2.3,Win32,59.88023952,657b66ea316d21385b68909f,,,,,,,,,,,1782.4968,1783.486,,,1783.9856,1784.2356,,147,-33,,,,,,,,,,,,,,,,bars/036.png,bars/mask009.png,,,,,,,,,,,,1,1,,,,,,,0,2,1,4,,,,,,,,,,,1783.4861,1783.9855,1784.2356,1787.6854,space,3.4341,,1787.6855,2,53,1788.6847,1788.6849,1788.7113,,,,0,21,21,21,1,145,20,,,,,,,,
,,6134ec246da4dc93db56e8f8,65b1a122c776755edf0f7664,2024-01-25_01h46.45.223,bars,2023.2.3,Win32,59.88023952,657b66ea316d21385b68909f,,,,,,,,,,,1788.7118,1789.7007,,,1790.2013,1790.4503,,139,139,,,,,,,,,,,,,,,,bars/049.png,bars/mask004.png,,,,,,,,,,,,1,1,,,,,,,2,0,3,1,,,,,,,,,,,1789.7007,1790.2012,1790.4503,1794.5329,space,4.0683,,1794.5329,21,24,1795.5323,1795.5323,1795.5457,,,,0,22,22,22,1,160,115,,,,,,,,
,,6134ec246da4dc93db56e8f8,65b1a122c776755edf0f7664,2024-01-25_01h46.45.223,bars,2023.2.3,Win32,59.88023952,657b66ea316d21385b68909f,,,,,,,,,,,1795.5459,1796.5494,,,1797.0485,1797.2993,,32,32,,,,,,,,,,,,,,,,bars/019.png,bars/mask006.png,,,,,,,,,,,,0,1,,,,,,,0,2,0,4,,,,,,,,,,,1796.5494,1797.0485,1797.2993,1799.2156,space,1.9013,,1799.2157,13,73,1800.2145,1800.2145,1800.2265,,,,0,23,23,23,1,45,105,,,,,,,,
,,6134ec246da4dc93db56e8f8,65b1a122c776755edf0f7664,2024-01-25_01h46.45.223,bars,2023.2.3,Win32,59.88023952,657b66ea316d21385b68909f,,,,,,,,,,,1800.2267,1801.2143,,,1801.7142,1801.9643,,107,107,,,,,,,,,,,,,,,,bars/027.png,bars/mask005.png,,,,,,,,,,,,2,1,,,,,,,2,4,2,4,,,,,,,,,,,1801.2143,1801.7142,1801.9643,1806.1471,space,4.1741,,1806.1473,3,57,1807.1462,1807.1462,1807.157,,,,0,24,24,24,1,110,50,,,,,,,,
,,6134ec246da4dc93db56e8f8,65b1a122c776755edf0f7664,2024-01-25_01h46.45.223,bars,2023.2.3,Win32,59.88023952,657b66ea316d21385b68909f,,,,,,,,,,,1807.1571,1808.1459,,,1808.6463,1808.8964,,114,114,,,,,,,,,,,,,,,,bars/026.png,bars/mask008.png,,,,,,,,,,,,0,2,,,,,,,0,6,0,4,,,,,,,,,,,1808.146,1808.6462,1808.8965,1813.9115,space,5.0012,,1813.9116,79,29,1814.9115,1814.9115,1814.9374,,,,0,25,25,25,1,35,85,,,,,,,,
,,6134ec246da4dc93db56e8f8,65b1a122c776755edf0f7664,2024-01-25_01h46.45.223,bars,2023.2.3,Win32,59.88023952,657b66ea316d21385b68909f,,,,,,,,,,,1814.9377,1815.9282,,,1816.4282,1816.6776,,159,159,,,,,,,,,,,,,,,,bars/024.png,bars/mask003.png,,,,,,,,,,,,5,2,,,,,,,0,8,1,8,,,,,,,,,,,1815.9282,1816.4281,1816.6777,1818.8602,space,2.1725,,1818.8602,39,11,1819.8598,1819.8598,1819.8739,,,,0,26,26,26,1,120,170,,,,,,,,
,,6134ec246da4dc93db56e8f8,65b1a122c776755edf0f7664,2024-01-25_01h46.45.223,bars,2023.2.3,Win32,59.88023952,657b66ea316d21385b68909f,,,,,,,,,,,1819.8742,1820.8771,,,1821.3765,1821.6265,,114,114,,,,,,,,,,,,,,,,bars/044.png,bars/mask009.png,,,,,,,,,,,,0,1,,,,,,,0,6,0,8,,,,,,,,,,,1820.8771,1821.3765,1821.6266,1824.2253,space,2.5899,,1824.2254,39,41,1825.225,1825.225,1825.2361,,,,0,27,27,27,1,75,155,,,,,,,,
,,6134ec246da4dc93db56e8f8,65b1a122c776755edf0f7664,2024-01-25_01h46.45.223,bars,2023.2.3,Win32,59.88023952,657b66ea316d21385b68909f,,,,,,,,,,,1825.2362,1826.2254,,,1826.7255,1826.9755,,171,-9,,,,,,,,,,,,,,,,bars/045.png,bars/mask009.png,,,,,,,,,,,,1,2,,,,,,,2,4,1,3,,,,,,,,,,,1826.2254,1826.7254,1826.9755,1830.0579,space,3.0711,,1830.0581,71,19,1831.0578,1831.0578,1831.0817,,,,0,28,28,28,1,100,10,,,,,,,,
,,6134ec246da4dc93db56e8f8,65b1a122c776755edf0f7664,2024-01-25_01h46.45.223,bars,2023.2.3,Win32,59.88023952,657b66ea316d21385b68909f,,,,,,,,,,,1831.082,1832.0742,,,1832.5742,1832.8241,,117,117,,,,,,,,,,,,,,,,bars/005.png,bars/mask009.png,,,,,,,,,,,,1,2,,,,,,,4,6,3,4,,,,,,,,,,,1832.0742,1832.5741,1832.8242,1835.1735,space,2.3336,,1835.1735,73,23,1836.1731,1836.1732,1836.1986,,,,0,29,29,29,1,10,140,,,,,,,,
,,6134ec246da4dc93db56e8f8,65b1a122c776755edf0f7664,2024-01-25_01h46.45.223,bars,2023.2.3,Win32,59.88023952,657b66ea316d21385b68909f,,,,,,,,,,,1836.1988,1837.1889,,,1837.6892,1837.9394,,108,108,,,,,,,,,,,,,,,,bars/009.png,bars/mask002.png,,,,,,,,,,,,5,2,,,,,,,2,4,1,5,,,,,,,,,,,1837.1889,1837.6892,1837.9394,1841.2559,space,3.3007,,1841.2559,87,3,1842.2551,1842.2552,1842.2804,,,,0,30,30,30,1,15,105,,,,,,,,
,,6134ec246da4dc93db56e8f8,65b1a122c776755edf0f7664,2024-01-25_01h46.45.223,bars,2023.2.3,Win32,59.88023952,657b66ea316d21385b68909f,,,,,,,,,,,1842.2807,1843.2713,,,1843.7714,1844.0203,,159,159,,,,,,,,,,,,,,,,bars/038.png,bars/mask005.png,,,,,,,,,,,,3,1,,,,,,,4,6,4,6,,,,,,,,,,,1843.2713,1843.7714,1844.0204,1848.6199,space,4.5876,,1848.6201,6,89,1849.6193,1849.6193,1849.6389,,,,0,31,31,31,1,165,70,,,,,,,,
,,6134ec246da4dc93db56e8f8,65b1a122c776755edf0f7664,2024-01-25_01h46.45.223,bars,2023.2.3,Win32,59.88023952,657b66ea316d21385b68909f,,,,,,,,,,,1849.6396,1850.6362,,,1851.1362,1851.3863,,121,121,,,,,,,,,,,,,,,,bars/031.png,bars/mask001.png,,,,,,,,,,,,5,1,,,,,,,6,4,5,5,,,,,,,,,,,1850.6362,1851.1362,1851.3864,1854.9017,space,3.4985,,1854.9017,1,86,1855.9016,1855.9016,1855.9223,,,,0,32,32,32,1,120,35,,,,,,,,
,,6134ec246da4dc93db56e8f8,65b1a122c776755edf0f7664,2024-01-25_01h46.45.223,bars,2023.2.3,Win32,59.88023952,657b66ea316d21385b68909f,,,,,,,,,,,1855.9224,1856.9182,,,1857.418,1857.6675,,117,117,,,,,,,,,,,,,,,,bars/012.png,bars/mask003.png,,,,,,,,,,,,1,1,,,,,,,8,6,9,8,,,,,,,,,,,1856.9182,1857.418,1857.6675,1861.5337,space,3.8519,,1861.5338,27,78,1862.5336,1862.5337,1862.5567,,,,0,33,33,33,1,90,15,,,,,,,,
,,6134ec246da4dc93db56e8f8,65b1a122c776755edf0f7664,2024-01-25_01h46.45.223,bars,2023.2.3,Win32,59.88023952,657b66ea316d21385b68909f,,,,,,,,,,,1862.557,1863.5492,,,1864.0496,1864.2996,,152,-28,,,,,,,,,,,,,,,,bars/036.png,bars/mask009.png,,,,,,,,,,,,5,1,,,,,,,6,8,6,7,,,,,,,,,,,1863.5493,1864.0495,1864.2997,1868.3487,space,4.0324,,1868.3488,7,48,1869.3485,1869.3486,1869.3741,,,,0,34,34,34,1,145,20,,,,,,,,
,,6134ec246da4dc93db56e8f8,65b1a122c776755edf0f7664,2024-01-25_01h46.45.223,bars,2023.2.3,Win32,59.88023952,657b66ea316d21385b68909f,,,,,,,,,,,1869.3744,1870.3647,,,1870.8647,1871.1146,,158,-22,,,,,,,,,,,,,,,,bars/045.png,bars/mask003.png,,,,,,,,,,,,0,2,,,,,,,4,10,5,10,,,,,,,,,,,1870.3647,1870.8647,1871.1147,1873.9473,space,2.8229,,1873.9474,58,32,1874.9471,1874.9472,1874.9703,,,,0,35,35,35,1,100,10,,,,,,,,
,,6134ec246da4dc93db56e8f8,65b1a122c776755edf0f7664,2024-01-25_01h46.45.223,bars,2023.2.3,Win32,59.88023952,657b66ea316d21385b68909f,,,,,,,,,,,1874.9705,1875.9635,,,1876.4634,1876.7125,,45,45,,,,,,,,,,,,,,,,bars/043.png,bars/mask004.png,,,,,,,,,,,,3,1,,,,,,,6,10,6,10,,,,,,,,,,,1875.9635,1876.4633,1876.7125,1879.0131,space,2.2856,,1879.0132,15,85,1880.0117,1880.0117,1880.026,,,,0,36,36,36,1,30,130,,,,,,,,
,,6134ec246da4dc93db56e8f8,65b1a122c776755edf0f7664,2024-01-25_01h46.45.223,bars,2023.2.3,Win32,59.88023952,657b66ea316d21385b68909f,,,,,,,,,,,1880.0262,1881.0287,,,1881.5289,1881.7779,,176,176,,,,,,,,,,,,,,,,bars/045.png,bars/mask009.png,,,,,,,,,,,,4,2,,,,,,,8,8,8,7,,,,,,,,,,,1881.0288,1881.5288,1881.7779,1885.4447,space,3.6522,,1885.4448,76,14,1886.4438,1886.4439,1886.4546,,,,0,37,37,37,1,100,10,,,,,,,,
,,6134ec246da4dc93db56e8f8,65b1a122c776755edf0f7664,2024-01-25_01h46.45.223,bars,2023.2.3,Win32,59.88023952,657b66ea316d21385b68909f,,,,,,,,,,,1886.4547,1887.444,,,1887.9434,1888.1939,,63,243,,,,,,,,,,,,,,,,bars/029.png,bars/mask001.png,,,,,,,,,,,,4,2,,,,,,,10,10,10,10,,,,,,,,,,,1887.444,1887.9434,1888.194,1892.0929,space,3.883,,1892.093,27,18,1893.0926,1893.0926,1893.1182,,,,0,38,38,38,1,90,45,,,,,,,,
,,6134ec246da4dc93db56e8f8,65b1a122c776755edf0f7664,2024-01-25_01h46.45.223,bars,2023.2.3,Win32,59.88023952,657b66ea316d21385b68909f,,,,,,,,,,,1893.1184,1894.109,,,1894.6091,1894.858,,145,145,,,,,,,,,,,,,,,,bars/038.png,bars/mask000.png,,,,,,,,,,,,2,1,,,,,,,8,10,7,10,,,,,,,,,,,1894.1091,1894.609,1894.858,1897.8574,space,2.9835,,1897.8574,20,75,1898.857,1898.857,1898.8683,,,,0,39,39,39,1,165,70,,,,,,,,
,,6134ec246da4dc93db56e8f8,65b1a122c776755edf0f7664,2024-01-25_01h46.45.223,bars,2023.2.3,Win32,59.88023952,657b66ea316d21385b68909f,,,,,,,,,,,1898.8684,1899.8577,,,1900.3575,1900.6075,,170,170,,,,,,,,,,,,,,,,bars/011.png,bars/mask005.png,,,,,,,,,,,,5,1,,,,,,,6,10,8,9,,,,,,,,,,,1899.8577,1900.3575,1900.6075,1904.7726,space,4.1562,,1904.7727,10,85,1905.7728,1905.7729,1905.7935,,,,0,40,40,40,1,160,85,,,,,,,,
,,6134ec246da4dc93db56e8f8,65b1a122c776755edf0f7664,2024-01-25_01h46.45.223,bars,2023.2.3,Win32,59.88023952,657b66ea316d21385b68909f,,,,,,,,,,,1905.7937,1906.7894,,,1907.2887,1907.5393,,32,32,,,,,,,,,,,,,,,,bars/014.png,bars/mask007.png,,,,,,,,,,,,0,2,,,,,,,8,10,8,10,,,,,,,,,,,1906.7894,1907.2886,1907.5393,1909.722,space,2.1666,,1909.7222,48,32,1910.7215,1910.7216,1910.7435,,,,0,41,41,41,1,80,0,,,,,,,,
,,6134ec246da4dc93db56e8f8,65b1a122c776755edf0f7664,2024-01-25_01h46.45.223,bars,2023.2.3,Win32,59.88023952,657b66ea316d21385b68909f,,,,,,,,,,,1910.7438,1911.738,,,1912.238,1912.488,,75,255,,,,,,,,,,,,,,,,bars/047.png,bars/mask002.png,,,,,,,,,,,,6,2,,,,,,,6,8,4,7,,,,,,,,,,,1911.738,1912.238,1912.488,1916.5033,space,4.0029,,1916.5034,60,5,1917.5032,1917.5034,1917.5248,,,,0,42,42,42,1,15,70,,,,,,,,
,,6134ec246da4dc93db56e8f8,65b1a122c776755edf0f7664,2024-01-25_01h46.45.223,bars,2023.2.3,Win32,59.88023952,657b66ea316d21385b68909f,,,,,,,,,,,1917.525,1918.5196,,,1919.0194,1919.2693,,115,115,,,,,,,,,,,,,,,,bars/019.png,bars/mask006.png,,,,,,,,,,,,5,2,,,,,,,8,6,10,7,,,,,,,,,,,1918.5196,1919.0194,1919.2693,1921.0193,space,1.7415,,1921.0194,70,10,1922.0186,1922.0187,1922.0406,,,,0,43,43,43,1,45,105,,,,,,,,
,,6134ec246da4dc93db56e8f8,65b1a122c776755edf0f7664,2024-01-25_01h46.45.223,bars,2023.2.3,Win32,59.88023952,657b66ea316d21385b68909f,,,,,,,,,,,1922.0409,1923.0354,,,1923.5353,1923.7846,,168,-12,,,,,,,,,,,,,,,,bars/005.png,bars/mask001.png,,,,,,,,,,,,3,1,,,,,,,10,4,10,3,,,,,,,,,,,1923.0354,1923.5352,1923.7846,1926.1179,space,2.3217,,1926.118,22,28,1927.1176,1927.1177,1927.1457,,,,0,44,44,44,1,10,140,,,,,,,,
,,6134ec246da4dc93db56e8f8,65b1a122c776755edf0f7664,2024-01-25_01h46.45.223,bars,2023.2.3,Win32,59.88023952,657b66ea316d21385b68909f,,,,,,,,,,,1927.1459,1928.1338,,,1928.6339,1928.8838,,154,154,,,,,,,,,,,,,,,,bars/003.png,bars/mask003.png,,,,,,,,,,,,1,2,,,,,,,10,2,10,1,,,,,,,,,,,1928.134,1928.6338,1928.8838,1930.8496,space,1.9512,,1930.8496,51,14,1931.8489,1931.8489,1931.8628,,,,0,45,45,45,1,25,140,,,,,,,,
,,6134ec246da4dc93db56e8f8,65b1a122c776755edf0f7664,2024-01-25_01h46.45.223,bars,2023.2.3,Win32,59.88023952,657b66ea316d21385b68909f,,,,,,,,,,,1931.863,1932.8653,,,1933.3656,1933.6157,,172,172,,,,,,,,,,,,,,,,bars/021.png,bars/mask005.png,,,,,,,,,,,,4,1,,,,,,,8,0,10,0,,,,,,,,,,,1932.8653,1933.3656,1933.6157,1935.0987,space,1.4755,,1935.0988,17,78,1936.0985,1936.0986,1936.1204,,,,0,46,46,46,1,155,70,,,,,,,,
,,6134ec246da4dc93db56e8f8,65b1a122c776755edf0f7664,2024-01-25_01h46.45.223,bars,2023.2.3,Win32,59.88023952,657b66ea316d21385b68909f,,,,,,,,,,,1936.1207,1937.1147,,,1937.615,1937.8648,,50,50,,,,,,,,,,,,,,,,bars/021.png,bars/mask005.png,,,,,,,,,,,,0,2,,,,,,,10,0,10,0,,,,,,,,,,,1937.1147,1937.6149,1937.8649,1939.5474,space,1.6653,,1939.5475,75,20,1940.5469,1940.5469,1940.5605,,,,0,47,47,47,1,155,70,,,,,,,,
,,6134ec246da4dc93db56e8f8,65b1a122c776755edf0f7664,2024-01-25_01h46.45.223,bars,2023.2.3,Win32,59.88023952,657b66ea316d21385b68909f,,,,,,,,,,,1940.5606,1941.5638,,,1942.0637,1942.313,,179,179,,,,,,,,,,,,,,,,bars/018.png,bars/mask003.png,,,,,,,,,,,,0,1,,,,,,,10,0,10,0,,,,,,,,,,,1941.564,1942.0636,1942.313,1945.8133,space,3.4853,,1945.8135,29,89,1946.8118,1946.8119,1946.8246,,,,0,48,48,48,1,150,90,,,,,,,,
,,6134ec246da4dc93db56e8f8,65b1a122c776755edf0f7664,2024-01-25_01h46.45.223,bars,2023.2.3,Win32,59.88023952,657b66ea316d21385b68909f,,,,,,,,,,,1946.8249,1947.8285,,,1948.3294,1948.5793,,74,74,,,,,,,,,,,,,,,,bars/042.png,bars/mask004.png,,,,,,,,,,,,0,2,,,,,,,10,0,10,0,,,,,,,,,,,1947.8286,1948.3293,1948.5794,1951.8776,space,3.2825,,1951.8778,71,1,1952.8776,1952.8777,1952.9027,,,,0,49,49,49,1,145,75,,,,,,,,
,,6134ec246da4dc93db56e8f8,65b1a122c776755edf0f7664,2024-01-25_01h46.45.223,bars,2023.2.3,Win32,59.88023952,657b66ea316d21385b68909f,,,,,,,,,,,,,,,,,,,,,,,,,,,,,,,,,,,,,,,,,,,,,,,,,,,,,,,,,,,,,,,,,,,,,,,,,,,,,,,,,,,,,,,,,,,,,1952.903,2012.8959,0,2,2,2,1,sequence_tables/blk018.csv
,,6134ec246da4dc93db56e8f8,65b1a122c776755edf0f7664,2024-01-25_01h46.45.223,bars,2023.2.3,Win32,59.88023952,657b66ea316d21385b68909f,,,,,,,,,,,2021.1732,2022.1768,,,2022.6608,2022.911,,56,56,,,,,,,,,,,,,,,,bars/042.png,bars/mask007.png,,,,,,,,,,,,2,2,,,,,,,10,7,10,6,,,,,,2012.9128,2021.1604,space,8.2309,,2022.1768,2022.6607,2022.911,2024.4434,space,1.5215,,2024.4434,89,19,2025.4432,2025.4432,2025.4648,,,,0,0,0,0,1,145,75,,,,,,,,
,,6134ec246da4dc93db56e8f8,65b1a122c776755edf0f7664,2024-01-25_01h46.45.223,bars,2023.2.3,Win32,59.88023952,657b66ea316d21385b68909f,,,,,,,,,,,2025.4651,2026.459,,,2026.9591,2027.2089,,139,139,,,,,,,,,,,,,,,,bars/015.png,bars/mask009.png,,,,,,,,,,,,2,2,,,,,,,8,5,5,5,,,,,,,,,,,2026.459,2026.959,2027.2089,2029.2421,space,2.0175,,2029.2421,29,21,2030.2415,2030.2415,2030.2422,,,,0,1,1,1,1,110,160,,,,,,,,
,,6134ec246da4dc93db56e8f8,65b1a122c776755edf0f7664,2024-01-25_01h46.45.223,bars,2023.2.3,Win32,59.88023952,657b66ea316d21385b68909f,,,,,,,,,,,2030.2427,2031.2412,,,2031.7419,2031.9918,,134,-46,,,,,,,,,,,,,,,,bars/010.png,bars/mask007.png,,,,,,,,,,,,0,1,,,,,,,10,3,10,3,,,,,,,,,,,2031.2413,2031.7419,2031.9918,2036.5735,space,4.5649,,2036.5736,31,79,2037.5731,2037.5732,2037.5857,,,,0,2,2,2,1,165,55,,,,,,,,
,,6134ec246da4dc93db56e8f8,65b1a122c776755edf0f7664,2024-01-25_01h46.45.223,bars,2023.2.3,Win32,59.88023952,657b66ea316d21385b68909f,,,,,,,,,,,2037.5859,2038.5735,,,2039.0733,2039.3226,,125,125,,,,,,,,,,,,,,,,bars/041.png,bars/mask008.png,,,,,,,,,,,,0,2,,,,,,,10,1,10,1,,,,,,,,,,,2038.5736,2039.0732,2039.3226,2041.7894,space,2.4585,,2041.7894,75,40,2042.7893,2042.7894,2042.7938,,,,0,3,3,3,1,20,85,,,,,,,,
,,6134ec246da4dc93db56e8f8,65b1a122c776755edf0f7664,2024-01-25_01h46.45.223,bars,2023.2.3,Win32,59.88023952,657b66ea316d21385b68909f,,,,,,,,,,,2042.7945,2043.7889,,,2044.289,2044.5388,,60,240,,,,,,,,,,,,,,,,bars/030.png,bars/mask007.png,,,,,,,,,,,,3,2,,,,,,,8,3,7,4,,,,,,,,,,,2043.7891,2044.2889,2044.5389,2049.7706,space,5.2164,,2049.7707,80,5,2050.7707,2050.7708,2050.7933,,,,0,4,4,4,1,140,65,,,,,,,,
,,6134ec246da4dc93db56e8f8,65b1a122c776755edf0f7664,2024-01-25_01h46.45.223,bars,2023.2.3,Win32,59.88023952,657b66ea316d21385b68909f,,,,,,,,,,,2050.7935,2051.787,,,2052.287,2052.5365,,54,54,,,,,,,,,,,,,,,,bars/034.png,bars/mask007.png,,,,,,,,,,,,3,2,,,,,,,10,5,9,4,,,,,,,,,,,2051.7871,2052.287,2052.5366,2054.2698,space,1.7184,,2054.2698,71,11,2055.2692,2055.2693,2055.2988,,,,0,5,5,5,1,125,65,,,,,,,,
,,6134ec246da4dc93db56e8f8,65b1a122c776755edf0f7664,2024-01-25_01h46.45.223,bars,2023.2.3,Win32,59.88023952,657b66ea316d21385b68909f,,,,,,,,,,,2055.2992,2056.3023,,,2056.8024,2057.0524,,44,44,,,,,,,,,,,,,,,,bars/004.png,bars/mask008.png,,,,,,,,,,,,3,1,,,,,,,8,7,9,7,,,,,,,,,,,2056.3023,2056.8023,2057.0524,2063.1008,space,6.0411,,2063.1009,19,81,2064.1005,2064.1006,2064.1211,,,,0,6,6,6,1,25,125,,,,,,,,
,,6134ec246da4dc93db56e8f8,65b1a122c776755edf0f7664,2024-01-25_01h46.45.223,bars,2023.2.3,Win32,59.88023952,657b66ea316d21385b68909f,,,,,,,,,,,2064.1213,2065.1168,,,2065.6163,2065.8662,,162,-18,,,,,,,,,,,,,,,,bars/045.png,bars/mask000.png,,,,,,,,,,,,0,2,,,,,,,6,5,6,4,,,,,,,,,,,2065.1168,2065.6162,2065.8662,2068.5988,space,2.7247,,2068.5988,62,28,2069.5984,2069.5984,2069.608,,,,0,7,7,7,1,100,10,,,,,,,,
,,6134ec246da4dc93db56e8f8,65b1a122c776755edf0f7664,2024-01-25_01h46.45.223,bars,2023.2.3,Win32,59.88023952,657b66ea316d21385b68909f,,,,,,,,,,,2069.6082,2070.5983,,,2071.0991,2071.3488,,114,114,,,,,,,,,,,,,,,,bars/034.png,bars/mask005.png,,,,,,,,,,,,6,1,,,,,,,8,7,9,9,,,,,,,,,,,2070.5983,2071.099,2071.3489,2076.3972,space,5.0325,,2076.3972,11,49,2077.3975,2077.3975,2077.4198,,,,0,8,8,8,1,125,65,,,,,,,,
,,6134ec246da4dc93db56e8f8,65b1a122c776755edf0f7664,2024-01-25_01h46.45.223,bars,2023.2.3,Win32,59.88023952,657b66ea316d21385b68909f,,,,,,,,,,,2077.4201,2078.4138,,,2078.9141,2079.1639,,41,41,,,,,,,,,,,,,,,,bars/043.png,bars/mask001.png,,,,,,,,,,,,6,1,,,,,,,10,9,10,9,,,,,,,,,,,2078.4139,2078.9139,2079.1639,2083.3631,space,4.1838,,2083.3632,11,89,2084.3624,2084.3625,2084.389,,,,0,9,9,9,1,30,130,,,,,,,,
,,6134ec246da4dc93db56e8f8,65b1a122c776755edf0f7664,2024-01-25_01h46.45.223,bars,2023.2.3,Win32,59.88023952,657b66ea316d21385b68909f,,,,,,,,,,,2084.3892,2085.3786,,,2085.8785,2086.1287,,105,105,,,,,,,,,,,,,,,,bars/023.png,bars/mask008.png,,,,,,,,,,,,7,2,,,,,,,10,10,10,10,,,,,,,,,,,2085.3787,2085.8784,2086.1287,2088.1613,space,2.0243,,2088.1613,85,10,2089.161,2089.161,2089.1837,,,,0,10,10,10,1,20,115,,,,,,,,
,,6134ec246da4dc93db56e8f8,65b1a122c776755edf0f7664,2024-01-25_01h46.45.223,bars,2023.2.3,Win32,59.88023952,657b66ea316d21385b68909f,,,,,,,,,,,2089.1839,2090.1775,,,2090.6774,2090.9268,,82,82,,,,,,,,,,,,,,,,bars/030.png,bars/mask001.png,,,,,,,,,,,,4,2,,,,,,,10,10,10,9,,,,,,,,,,,2090.1775,2090.6773,2090.9268,2093.2937,space,2.3511,,2093.2937,58,17,2094.2936,2094.2937,2094.3148,,,,0,11,11,11,1,140,65,,,,,,,,
,,6134ec246da4dc93db56e8f8,65b1a122c776755edf0f7664,2024-01-25_01h46.45.223,bars,2023.2.3,Win32,59.88023952,657b66ea316d21385b68909f,,,,,,,,,,,2094.315,2095.3099,,,2095.8088,2096.0586,,120,120,,,,,,,,,,,,,,,,bars/034.png,bars/mask001.png,,,,,,,,,,,,6,1,,,,,,,8,8,7,9,,,,,,,,,,,2095.31,2095.8088,2096.0587,2097.5417,space,1.4669,,2097.5418,5,55,2098.5422,2098.5423,2098.5466,,,,0,12,12,12,1,125,65,,,,,,,,
,,6134ec246da4dc93db56e8f8,65b1a122c776755edf0f7664,2024-01-25_01h46.45.223,bars,2023.2.3,Win32,59.88023952,657b66ea316d21385b68909f,,,,,,,,,,,2098.5474,2099.5421,,,2100.0418,2100.2917,,131,-49,,,,,,,,,,,,,,,,bars/024.png,bars/mask003.png,,,,,,,,,,,,6,1,,,,,,,10,10,10,10,,,,,,,,,,,2099.5421,2100.0417,2100.2917,2105.6073,space,5.3003,,2105.6073,11,39,2106.6069,2106.6069,2106.6374,,,,0,13,13,13,1,120,170,,,,,,,,
,,6134ec246da4dc93db56e8f8,65b1a122c776755edf0f7664,2024-01-25_01h46.45.223,bars,2023.2.3,Win32,59.88023952,657b66ea316d21385b68909f,,,,,,,,,,,2106.6377,2107.6392,,,2108.1397,2108.3899,,98,98,,,,,,,,,,,,,,,,bars/028.png,bars/mask007.png,,,,,,,,,,,,3,2,,,,,,,10,10,10,10,,,,,,,,,,,2107.6393,2108.1397,2108.39,2112.4881,space,4.0846,,2112.4881,53,22,2113.4879,2113.4879,2113.5018,,,,0,14,14,14,1,45,120,,,,,,,,
,,6134ec246da4dc93db56e8f8,65b1a122c776755edf0f7664,2024-01-25_01h46.45.223,bars,2023.2.3,Win32,59.88023952,657b66ea316d21385b68909f,,,,,,,,,,,2113.502,2114.5049,,,2115.0047,2115.2548,,42,42,,,,,,,,,,,,,,,,bars/031.png,bars/mask001.png,,,,,,,,,,,,6,2,,,,,,,8,8,8,8,,,,,,,,,,,2114.5049,2115.0046,2115.2548,2119.0871,space,3.8229,,2119.0872,78,7,2120.0871,2120.0871,2120.11,,,,0,15,15,15,1,120,35,,,,,,,,
,,6134ec246da4dc93db56e8f8,65b1a122c776755edf0f7664,2024-01-25_01h46.45.223,bars,2023.2.3,Win32,59.88023952,657b66ea316d21385b68909f,,,,,,,,,,,2120.1103,2121.1029,,,2121.6025,2121.8524,,149,149,,,,,,,,,,,,,,,,bars/014.png,bars/mask004.png,,,,,,,,,,,,0,2,,,,,,,6,10,5,8,,,,,,,,,,,2121.1029,2121.6025,2121.8525,2123.6034,space,1.7217,,2123.6035,69,31,2124.6017,2124.6017,2124.6032,,,,0,16,16,16,1,80,0,,,,,,,,
,,6134ec246da4dc93db56e8f8,65b1a122c776755edf0f7664,2024-01-25_01h46.45.223,bars,2023.2.3,Win32,59.88023952,657b66ea316d21385b68909f,,,,,,,,,,,2124.6046,2125.6017,,,2126.1017,2126.3518,,161,-19,,,,,,,,,,,,,,,,bars/032.png,bars/mask000.png,,,,,,,,,,,,0,1,,,,,,,4,10,5,10,,,,,,,,,,,2125.6017,2126.1016,2126.3519,2132.2066,space,5.8472,,2132.2066,36,39,2133.1997,2133.1998,2133.2139,,,,0,17,17,17,1,125,20,,,,,,,,
,,6134ec246da4dc93db56e8f8,65b1a122c776755edf0f7664,2024-01-25_01h46.45.223,bars,2023.2.3,Win32,59.88023952,657b66ea316d21385b68909f,,,,,,,,,,,2133.2141,2134.2164,,,2134.7175,2134.9663,,53,233,,,,,,,,,,,,,,,,bars/008.png,bars/mask006.png,,,,,,,,,,,,0,2,,,,,,,6,8,5,9,,,,,,,,,,,2134.2164,2134.7174,2134.9665,2139.0323,space,4.038,,2139.0324,57,53,2140.032,2140.0321,2140.0616,,,,0,18,18,18,1,110,0,,,,,,,,
,,6134ec246da4dc93db56e8f8,65b1a122c776755edf0f7664,2024-01-25_01h46.45.223,bars,2023.2.3,Win32,59.88023952,657b66ea316d21385b68909f,,,,,,,,,,,2140.0618,2141.0644,,,2141.5642,2141.8142,,34,34,,,,,,,,,,,,,,,,bars/021.png,bars/mask009.png,,,,,,,,,,,,0,2,,,,,,,8,10,9,10,,,,,,,,,,,2141.0644,2141.5641,2141.8142,2147.2463,space,5.4169,,2147.2464,59,36,2148.2459,2148.2459,2148.2467,,,,0,19,19,19,1,155,70,,,,,,,,
,,6134ec246da4dc93db56e8f8,65b1a122c776755edf0f7664,2024-01-25_01h46.45.223,bars,2023.2.3,Win32,59.88023952,657b66ea316d21385b68909f,,,,,,,,,,,2148.247,2149.2457,,,2149.746,2149.9961,,9,9,,,,,,,,,,,,,,,,bars/005.png,bars/mask002.png,,,,,,,,,,,,10,1,,,,,,,10,10,10,9,,,,,,,,,,,2149.2457,2149.746,2149.9961,2152.3286,space,2.3154,,2152.3286,1,49,2153.3279,2153.328,2153.3378,,,,0,20,20,20,1,10,140,,,,,,,,
,,6134ec246da4dc93db56e8f8,65b1a122c776755edf0f7664,2024-01-25_01h46.45.223,bars,2023.2.3,Win32,59.88023952,657b66ea316d21385b68909f,,,,,,,,,,,2153.3379,2154.3278,,,2154.8279,2155.0783,,175,-5,,,,,,,,,,,,,,,,bars/048.png,bars/mask006.png,,,,,,,,,,,,8,2,,,,,,,10,8,10,8,,,,,,,,,,,2154.3278,2154.8279,2155.0784,2157.7441,space,2.6498,,2157.7443,55,0,2158.7441,2158.7442,2158.7672,,,,0,21,21,21,1,50,175,,,,,,,,
,,6134ec246da4dc93db56e8f8,65b1a122c776755edf0f7664,2024-01-25_01h46.45.223,bars,2023.2.3,Win32,59.88023952,657b66ea316d21385b68909f,,,,,,,,,,,2158.7676,2159.7603,,,2160.2604,2160.5098,,162,-18,,,,,,,,,,,,,,,,bars/036.png,bars/mask002.png,,,,,,,,,,,,3,1,,,,,,,8,6,8,4,,,,,,,,,,,2159.7604,2160.2604,2160.5098,2162.6177,space,2.101,,2162.6178,17,38,2163.6098,2163.61,2163.631,,,,0,22,22,22,1,145,20,,,,,,,,
,,6134ec246da4dc93db56e8f8,65b1a122c776755edf0f7664,2024-01-25_01h46.45.223,bars,2023.2.3,Win32,59.88023952,657b66ea316d21385b68909f,,,,,,,,,,,2163.6312,2164.6258,,,2165.1263,2165.3757,,52,232,,,,,,,,,,,,,,,,bars/017.png,bars/mask003.png,,,,,,,,,,,,3,2,,,,,,,6,4,5,4,,,,,,,,,,,2164.626,2165.1263,2165.3757,2169.726,space,4.3349,,2169.7262,87,7,2170.7243,2170.7244,2170.7468,,,,0,23,23,23,1,145,45,,,,,,,,
,,6134ec246da4dc93db56e8f8,65b1a122c776755edf0f7664,2024-01-25_01h46.45.223,bars,2023.2.3,Win32,59.88023952,657b66ea316d21385b68909f,,,,,,,,,,,2170.747,2171.7409,,,2172.2407,2172.49,,4,184,,,,,,,,,,,,,,,,bars/021.png,bars/mask008.png,,,,,,,,,,,,0,1,,,,,,,8,6,8,7,,,,,,,,,,,2171.741,2172.2406,2172.4901,2175.9409,space,3.4367,,2175.9412,29,66,2176.9397,2176.9399,2176.968,,,,0,24,24,24,1,155,70,,,,,,,,
,,6134ec246da4dc93db56e8f8,65b1a122c776755edf0f7664,2024-01-25_01h46.45.223,bars,2023.2.3,Win32,59.88023952,657b66ea316d21385b68909f,,,,,,,,,,,2176.9683,2177.9563,,,2178.4557,2178.7059,,163,-17,,,,,,,,,,,,,,,,bars/048.png,bars/mask006.png,,,,,,,,,,,,4,2,,,,,,,6,8,7,7,,,,,,,,,,,2177.9564,2178.4556,2178.7059,2183.2215,space,4.5,,2183.2215,67,12,2184.221,2184.2211,2184.2435,,,,0,25,25,25,1,50,175,,,,,,,,
,,6134ec246da4dc93db56e8f8,65b1a122c776755edf0f7664,2024-01-25_01h46.45.223,bars,2023.2.3,Win32,59.88023952,657b66ea316d21385b68909f,,,,,,,,,,,2184.2437,2185.2369,,,2185.7372,2185.9873,,18,18,,,,,,,,,,,,,,,,bars/017.png,bars/mask001.png,,,,,,,,,,,,1,2,,,,,,,8,10,8,10,,,,,,,,,,,2185.2369,2185.7371,2185.9874,2189.9528,space,3.9496,,2189.953,53,27,2190.9522,2190.9522,2190.9648,,,,0,26,26,26,1,145,45,,,,,,,,
,,6134ec246da4dc93db56e8f8,65b1a122c776755edf0f7664,2024-01-25_01h46.45.223,bars,2023.2.3,Win32,59.88023952,657b66ea316d21385b68909f,,,,,,,,,,,2190.965,2191.9696,,,2192.4694,2192.7184,,12,192,,,,,,,,,,,,,,,,bars/040.png,bars/mask007.png,,,,,,,,,,,,8,2,,,,,,,6,10,6,10,,,,,,,,,,,2191.9698,2192.4693,2192.7184,2194.1522,space,1.406,,2194.1524,52,7,2195.1514,2195.1514,2195.1529,,,,0,27,27,27,1,140,5,,,,,,,,
,,6134ec246da4dc93db56e8f8,65b1a122c776755edf0f7664,2024-01-25_01h46.45.223,bars,2023.2.3,Win32,59.88023952,657b66ea316d21385b68909f,,,,,,,,,,,2195.1537,2196.1515,,,2196.6512,2196.9007,,158,-22,,,,,,,,,,,,,,,,bars/003.png,bars/mask002.png,,,,,,,,,,,,4,2,,,,,,,8,10,9,10,,,,,,,,,,,2196.1517,2196.651,2196.9007,2201.8165,space,4.8997,,2201.8165,47,18,2202.8159,2202.8159,2202.8252,,,,0,28,28,28,1,25,140,,,,,,,,
,,6134ec246da4dc93db56e8f8,65b1a122c776755edf0f7664,2024-01-25_01h46.45.223,bars,2023.2.3,Win32,59.88023952,657b66ea316d21385b68909f,,,,,,,,,,,2202.8253,2203.8155,,,2204.3167,2204.5662,,148,-32,,,,,,,,,,,,,,,,bars/045.png,bars/mask004.png,,,,,,,,,,,,0,2,,,,,,,10,10,10,10,,,,,,,,,,,2203.8155,2204.3165,2204.5664,2208.3161,space,3.7164,,2208.3162,48,42,2209.3148,2209.3148,2209.3365,,,,0,29,29,29,1,100,10,,,,,,,,
,,6134ec246da4dc93db56e8f8,65b1a122c776755edf0f7664,2024-01-25_01h46.45.223,bars,2023.2.3,Win32,59.88023952,657b66ea316d21385b68909f,,,,,,,,,,,2209.3368,2210.3314,,,2210.8306,2211.0812,,151,151,,,,,,,,,,,,,,,,bars/024.png,bars/mask005.png,,,,,,,,,,,,3,2,,,,,,,8,8,9,7,,,,,,,,,,,2210.3315,2210.8305,2211.0813,2213.5145,space,2.4245,,2213.5146,31,19,2214.5136,2214.5137,2214.5395,,,,0,30,30,30,1,120,170,,,,,,,,
,,6134ec246da4dc93db56e8f8,65b1a122c776755edf0f7664,2024-01-25_01h46.45.223,bars,2023.2.3,Win32,59.88023952,657b66ea316d21385b68909f,,,,,,,,,,,2214.5397,2215.53,,,2216.0297,2216.2797,,107,107,,,,,,,,,,,,,,,,bars/026.png,bars/mask008.png,,,,,,,,,,,,2,2,,,,,,,10,6,8,8,,,,,,,,,,,2215.5301,2216.0297,2216.2798,2219.5465,space,3.2512,,2219.5466,72,22,2220.5457,2220.5458,2220.568,,,,0,31,31,31,1,35,85,,,,,,,,
,,6134ec246da4dc93db56e8f8,65b1a122c776755edf0f7664,2024-01-25_01h46.45.223,bars,2023.2.3,Win32,59.88023952,657b66ea316d21385b68909f,,,,,,,,,,,2220.5682,2221.5625,,,2222.0613,2222.3123,,133,133,,,,,,,,,,,,,,,,bars/004.png,bars/mask002.png,,,,,,,,,,,,7,2,,,,,,,10,8,10,9,,,,,,,,,,,2221.5627,2222.0613,2222.3125,2225.7776,space,3.4364,,2225.7777,72,8,2226.7776,2226.7777,2226.8051,,,,0,32,32,32,1,25,125,,,,,,,,
,,6134ec246da4dc93db56e8f8,65b1a122c776755edf0f7664,2024-01-25_01h46.45.223,bars,2023.2.3,Win32,59.88023952,657b66ea316d21385b68909f,,,,,,,,,,,2226.8053,2227.7937,,,2228.2939,2228.5437,,134,134,,,,,,,,,,,,,,,,bars/015.png,bars/mask001.png,,,,,,,,,,,,2,1,,,,,,,10,10,10,10,,,,,,,,,,,2227.7937,2228.2939,2228.5437,2232.9593,space,4.3997,,2232.9595,24,26,2233.959,2233.959,2233.9817,,,,0,33,33,33,1,110,160,,,,,,,,
,,6134ec246da4dc93db56e8f8,65b1a122c776755edf0f7664,2024-01-25_01h46.45.223,bars,2023.2.3,Win32,59.88023952,657b66ea316d21385b68909f,,,,,,,,,,,2233.982,2234.9756,,,2235.4756,2235.7257,,24,24,,,,,,,,,,,,,,,,bars/040.png,bars/mask000.png,,,,,,,,,,,,3,2,,,,,,,8,8,7,9,,,,,,,,,,,2234.9756,2235.4754,2235.7258,2237.475,space,1.7332,,2237.4752,64,19,2238.4748,2238.475,2238.4803,,,,0,34,34,34,1,140,5,,,,,,,,
,,6134ec246da4dc93db56e8f8,65b1a122c776755edf0f7664,2024-01-25_01h46.45.223,bars,2023.2.3,Win32,59.88023952,657b66ea316d21385b68909f,,,,,,,,,,,2238.4811,2239.4745,,,2239.9745,2240.2234,,155,155,,,,,,,,,,,,,,,,bars/036.png,bars/mask009.png,,,,,,,,,,,,4,1,,,,,,,6,10,6,9,,,,,,,,,,,2239.4745,2239.9744,2240.2234,2243.6731,space,3.4334,,2243.6734,10,45,2244.6732,2244.6732,2244.6977,,,,0,35,35,35,1,145,20,,,,,,,,
,,6134ec246da4dc93db56e8f8,65b1a122c776755edf0f7664,2024-01-25_01h46.45.223,bars,2023.2.3,Win32,59.88023952,657b66ea316d21385b68909f,,,,,,,,,,,2244.698,2245.6895,,,2246.1886,2246.4389,,78,78,,,,,,,,,,,,,,,,bars/006.png,bars/mask002.png,,,,,,,,,,,,2,2,,,,,,,4,8,3,6,,,,,,,,,,,2245.6896,2246.1886,2246.4391,2249.072,space,2.6211,,2249.0722,43,22,2250.0716,2250.0717,2250.1051,,,,0,36,36,36,1,35,100,,,,,,,,
,,6134ec246da4dc93db56e8f8,65b1a122c776755edf0f7664,2024-01-25_01h46.45.223,bars,2023.2.3,Win32,59.88023952,657b66ea316d21385b68909f,,,,,,,,,,,2250.1055,2251.1048,,,2251.6049,2251.8542,,58,238,,,,,,,,,,,,,,,,bars/010.png,bars/mask008.png,,,,,,,,,,,,9,2,,,,,,,6,10,6,10,,,,,,,,,,,2251.1049,2251.6048,2251.8543,2256.0035,space,4.1346,,2256.0036,73,3,2257.0033,2257.0033,2257.0272,,,,0,37,37,37,1,165,55,,,,,,,,
,,6134ec246da4dc93db56e8f8,65b1a122c776755edf0f7664,2024-01-25_01h46.45.223,bars,2023.2.3,Win32,59.88023952,657b66ea316d21385b68909f,,,,,,,,,,,2257.0275,2258.0195,,,2258.5192,2258.7694,,81,81,,,,,,,,,,,,,,,,bars/021.png,bars/mask008.png,,,,,,,,,,,,6,2,,,,,,,8,10,10,10,,,,,,,,,,,2258.0196,2258.5192,2258.7696,2261.9369,space,3.1583,,2261.937,74,11,2262.9351,2262.9352,2262.9582,,,,0,38,38,38,1,155,70,,,,,,,,
,,6134ec246da4dc93db56e8f8,65b1a122c776755edf0f7664,2024-01-25_01h46.45.223,bars,2023.2.3,Win32,59.88023952,657b66ea316d21385b68909f,,,,,,,,,,,2262.9585,2263.9519,,,2264.4507,2264.7053,,3,3,,,,,,,,,,,,,,,,bars/008.png,bars/mask000.png,,,,,,,,,,,,6,2,,,,,,,10,8,9,7,,,,,,,,,,,2263.9521,2264.4507,2264.7053,2269.4163,space,4.6981,,2269.4163,73,3,2270.4162,2270.4162,2270.4352,,,,0,39,39,39,1,110,0,,,,,,,,
,,6134ec246da4dc93db56e8f8,65b1a122c776755edf0f7664,2024-01-25_01h46.45.223,bars,2023.2.3,Win32,59.88023952,657b66ea316d21385b68909f,,,,,,,,,,,2270.4357,2271.4326,,,2271.9333,2272.1831,,69,69,,,,,,,,,,,,,,,,bars/017.png,bars/mask007.png,,,,,,,,,,,,1,2,,,,,,,10,6,9,5,,,,,,,,,,,2271.4326,2271.9332,2272.1832,2276.1995,space,3.9998,,2276.1996,76,24,2277.198,2277.1981,2277.208,,,,0,40,40,40,1,145,45,,,,,,,,
,,6134ec246da4dc93db56e8f8,65b1a122c776755edf0f7664,2024-01-25_01h46.45.223,bars,2023.2.3,Win32,59.88023952,657b66ea316d21385b68909f,,,,,,,,,,,2277.2081,2278.198,,,2278.6986,2278.9481,,54,54,,,,,,,,,,,,,,,,bars/018.png,bars/mask008.png,,,,,,,,,,,,0,2,,,,,,,10,4,9,5,,,,,,,,,,,2278.1981,2278.6985,2278.9482,2281.4646,space,2.5017,,2281.4648,84,36,2282.4638,2282.4639,2282.4881,,,,0,41,41,41,1,150,90,,,,,,,,
,,6134ec246da4dc93db56e8f8,65b1a122c776755edf0f7664,2024-01-25_01h46.45.223,bars,2023.2.3,Win32,59.88023952,657b66ea316d21385b68909f,,,,,,,,,,,2282.4883,2283.4802,,,2283.9801,2284.2301,,178,178,,,,,,,,,,,,,,,,bars/035.png,bars/mask003.png,,,,,,,,,,,,9,1,,,,,,,8,2,10,2,,,,,,,,,,,2283.4803,2283.9799,2284.2302,2287.0131,space,2.7677,,2287.0133,3,62,2288.0125,2288.0126,2288.0416,,,,0,42,42,42,1,175,60,,,,,,,,
,,6134ec246da4dc93db56e8f8,65b1a122c776755edf0f7664,2024-01-25_01h46.45.223,bars,2023.2.3,Win32,59.88023952,657b66ea316d21385b68909f,,,,,,,,,,,2288.042,2289.0457,,,2289.5457,2289.7951,,99,99,,,,,,,,,,,,,,,,bars/019.png,bars/mask000.png,,,,,,,,,,,,2,2,,,,,,,6,4,6,3,,,,,,,,,,,2289.0457,2289.5456,2289.7951,2292.7781,space,2.9723,,2292.7781,54,6,2293.7773,2293.7774,2293.8013,,,,0,43,43,43,1,45,105,,,,,,,,
,,6134ec246da4dc93db56e8f8,65b1a122c776755edf0f7664,2024-01-25_01h46.45.223,bars,2023.2.3,Win32,59.88023952,657b66ea316d21385b68909f,,,,,,,,,,,2293.8016,2294.7935,,,2295.2941,2295.544,,36,216,,,,,,,,,,,,,,,,bars/012.png,bars/mask006.png,,,,,,,,,,,,1,2,,,,,,,4,2,4,4,,,,,,,,,,,2294.7935,2295.294,2295.5441,2299.4435,space,3.884,,2299.4437,54,21,2300.4429,2300.443,2300.4702,,,,0,44,44,44,1,90,15,,,,,,,,
,,6134ec246da4dc93db56e8f8,65b1a122c776755edf0f7664,2024-01-25_01h46.45.223,bars,2023.2.3,Win32,59.88023952,657b66ea316d21385b68909f,,,,,,,,,,,2300.4705,2301.4593,,,2301.9588,2302.209,,40,40,,,,,,,,,,,,,,,,bars/025.png,bars/mask009.png,,,,,,,,,,,,2,2,,,,,,,2,0,2,2,,,,,,,,,,,2301.4594,2301.9588,2302.2091,2304.4753,space,2.2546,,2304.4754,65,0,2305.4747,2305.4748,2305.4941,,,,0,45,45,45,1,105,40,,,,,,,,
,,6134ec246da4dc93db56e8f8,65b1a122c776755edf0f7664,2024-01-25_01h46.45.223,bars,2023.2.3,Win32,59.88023952,657b66ea316d21385b68909f,,,,,,,,,,,2305.4943,2306.4904,,,2306.9908,2307.2408,,31,31,,,,,,,,,,,,,,,,bars/027.png,bars/mask004.png,,,,,,,,,,,,0,2,,,,,,,4,0,5,0,,,,,,,,,,,2306.4904,2306.9908,2307.2409,2312.9205,space,5.6719,,2312.9206,79,19,2313.922,2313.922,2313.9376,,,,0,46,46,46,1,110,50,,,,,,,,
,,6134ec246da4dc93db56e8f8,65b1a122c776755edf0f7664,2024-01-25_01h46.45.223,bars,2023.2.3,Win32,59.88023952,657b66ea316d21385b68909f,,,,,,,,,,,2313.9378,2314.9388,,,2315.4389,2315.6894,,74,254,,,,,,,,,,,,,,,,bars/022.png,bars/mask007.png,,,,,,,,,,,,1,1,,,,,,,2,2,3,3,,,,,,,,,,,2314.9388,2315.4389,2315.6895,2319.8052,space,4.1073,,2319.8052,21,54,2320.8047,2320.8048,2320.8417,,,,0,47,47,47,1,95,20,,,,,,,,
,,6134ec246da4dc93db56e8f8,65b1a122c776755edf0f7664,2024-01-25_01h46.45.223,bars,2023.2.3,Win32,59.88023952,657b66ea316d21385b68909f,,,,,,,,,,,2320.8421,2321.8376,,,2322.3365,2322.5873,,74,74,,,,,,,,,,,,,,,,bars/025.png,bars/mask002.png,,,,,,,,,,,,0,1,,,,,,,0,4,0,3,,,,,,,,,,,2321.838,2322.3365,2322.5874,2327.9023,space,5.2834,,2327.9023,31,34,2328.9025,2328.9026,2328.9272,,,,0,48,48,48,1,105,40,,,,,,,,
,,6134ec246da4dc93db56e8f8,65b1a122c776755edf0f7664,2024-01-25_01h46.45.223,bars,2023.2.3,Win32,59.88023952,657b66ea316d21385b68909f,,,,,,,,,,,2328.9274,2329.9187,,,2330.4183,2330.6687,,96,96,,,,,,,,,,,,,,,,bars/039.png,bars/mask006.png,,,,,,,,,,,,1,2,,,,,,,0,2,1,2,,,,,,,,,,,2329.9188,2330.4183,2330.6687,2334.8514,space,4.1678,,2334.8515,79,9,2335.8503,2335.8504,2335.8729,,,,0,49,49,49,1,175,105,,,,,,,,
,,6134ec246da4dc93db56e8f8,65b1a122c776755edf0f7664,2024-01-25_01h46.45.223,bars,2023.2.3,Win32,59.88023952,657b66ea316d21385b68909f,,,,,,,,,,,,,,,,,,,,,,,,,,,,,,,,,,,,,,,,,,,,,,,,,,,,,,,,,,,,,,,,,,,,,,,,,,,,,,,,,,,,,,,,,,,,,2335.8732,2395.8692,0,3,3,3,1,sequence_tables/blk039.csv
,,6134ec246da4dc93db56e8f8,65b1a122c776755edf0f7664,2024-01-25_01h46.45.223,bars,2023.2.3,Win32,59.88023952,657b66ea316d21385b68909f,,,,,,,,,,,2408.4968,2409.4824,,,2409.9828,2410.2321,,122,122,,,,,,,,,,,,,,,,bars/000.png,bars/mask009.png,,,,,,,,,,,,1,2,,,,,,,5,5,4,5,,,,,,2395.8901,2408.4665,space,12.5627,,2409.4825,2409.9828,2410.2322,2412.6485,space,2.4014,,2412.6486,82,23,2413.6483,2413.6483,2413.6659,,,,0,0,0,0,1,40,145,,,,,,,,
,,6134ec246da4dc93db56e8f8,65b1a122c776755edf0f7664,2024-01-25_01h46.45.223,bars,2023.2.3,Win32,59.88023952,657b66ea316d21385b68909f,,,,,,,,,,,2413.6663,2414.6646,,,2415.1645,2415.4146,,40,40,,,,,,,,,,,,,,,,bars/043.png,bars/mask007.png,,,,,,,,,,,,1,1,,,,,,,3,3,2,2,,,,,,,,,,,2414.6647,2415.1645,2415.4148,2417.5645,space,2.1374,,2417.5646,10,90,2418.5637,2418.5638,2418.5882,,,,0,1,1,1,1,30,130,,,,,,,,
,,6134ec246da4dc93db56e8f8,65b1a122c776755edf0f7664,2024-01-25_01h46.45.223,bars,2023.2.3,Win32,59.88023952,657b66ea316d21385b68909f,,,,,,,,,,,2418.5883,2419.5794,,,2420.0794,2420.3292,,159,-21,,,,,,,,,,,,,,,,bars/003.png,bars/mask008.png,,,,,,,,,,,,0,2,,,,,,,5,1,6,1,,,,,,,,,,,2419.5794,2420.0793,2420.3292,2422.263,space,1.9233,,2422.2631,46,19,2423.262,2423.2621,2423.2802,,,,0,2,2,2,1,25,140,,,,,,,,
,,6134ec246da4dc93db56e8f8,65b1a122c776755edf0f7664,2024-01-25_01h46.45.223,bars,2023.2.3,Win32,59.88023952,657b66ea316d21385b68909f,,,,,,,,,,,2423.2808,2424.2794,,,2424.7782,2425.0282,,99,99,,,,,,,,,,,,,,,,bars/023.png,bars/mask004.png,,,,,,,,,,,,2,2,,,,,,,3,3,5,4,,,,,,,,,,,2424.2795,2424.7782,2425.0282,2427.3777,space,2.3162,,2427.3778,79,16,2428.3779,2428.378,2428.381,,,,0,3,3,3,1,20,115,,,,,,,,
,,6134ec246da4dc93db56e8f8,65b1a122c776755edf0f7664,2024-01-25_01h46.45.223,bars,2023.2.3,Win32,59.88023952,657b66ea316d21385b68909f,,,,,,,,,,,2428.3816,2429.3775,,,2429.8674,2430.1106,,111,111,,,,,,,,,,,,,,,,bars/040.png,bars/mask008.png,,,,,,,,,,,,0,1,,,,,,,1,5,1,5,,,,,,,,,,,2429.3776,2429.8674,2430.1107,2432.5794,space,2.4588,,2432.5797,29,74,2433.5767,2433.5767,2433.5964,,,,0,4,4,4,1,140,5,,,,,,,,
,,6134ec246da4dc93db56e8f8,65b1a122c776755edf0f7664,2024-01-25_01h46.45.223,bars,2023.2.3,Win32,59.88023952,657b66ea316d21385b68909f,,,,,,,,,,,2433.5966,2434.5923,,,2435.0923,2435.3426,,126,126,,,,,,,,,,,,,,,,bars/007.png,bars/mask001.png,,,,,,,,,,,,0,1,,,,,,,0,3,0,2,,,,,,,,,,,2434.5923,2435.0923,2435.3427,2437.0756,space,1.7167,,2437.0756,49,71,2438.0752,2438.0752,2438.076,,,,0,5,5,5,1,175,55,,,,,,,,
,,6134ec246da4dc93db56e8f8,65b1a122c776755edf0f7664,2024-01-25_01h46.45.223,bars,2023.2.3,Win32,59.88023952,657b66ea316d21385b68909f,,,,,,,,,,,2438.0766,2439.0747,,,2439.5752,2439.8258,,64,244,,,,,,,,,,,,,,,,bars/013.png,bars/mask003.png,,,,,,,,,,,,2,1,,,,,,,2,1,3,1,,,,,,,,,,,2439.0747,2439.5751,2439.8258,2444.7254,space,4.8709,,2444.7256,11,54,2445.7235,2445.7236,2445.7446,,,,0,6,6,6,1,75,10,,,,,,,,
,,6134ec246da4dc93db56e8f8,65b1a122c776755edf0f7664,2024-01-25_01h46.45.223,bars,2023.2.3,Win32,59.88023952,657b66ea316d21385b68909f,,,,,,,,,,,2445.745,2446.7402,,,2447.2398,2447.4897,,51,51,,,,,,,,,,,,,,,,bars/008.png,bars/mask001.png,,,,,,,,,,,,0,2,,,,,,,4,3,5,3,,,,,,,,,,,2446.7404,2447.2398,2447.4897,2451.2051,space,3.7065,,2451.2051,59,51,2452.2047,2452.2048,2452.2148,,,,0,7,7,7,1,110,0,,,,,,,,
,,6134ec246da4dc93db56e8f8,65b1a122c776755edf0f7664,2024-01-25_01h46.45.223,bars,2023.2.3,Win32,59.88023952,657b66ea316d21385b68909f,,,,,,,,,,,2452.215,2453.2046,,,2453.705,2453.9548,,121,121,,,,,,,,,,,,,,,,bars/012.png,bars/mask003.png,,,,,,,,,,,,0,1,,,,,,,2,5,1,6,,,,,,,,,,,2453.2046,2453.705,2453.9549,2458.0869,space,4.1191,,2458.087,31,74,2459.0873,2459.0875,2459.1121,,,,0,8,8,8,1,90,15,,,,,,,,
,,6134ec246da4dc93db56e8f8,65b1a122c776755edf0f7664,2024-01-25_01h46.45.223,bars,2023.2.3,Win32,59.88023952,657b66ea316d21385b68909f,,,,,,,,,,,2459.1123,2460.1031,,,2460.603,2460.853,,54,54,,,,,,,,,,,,,,,,bars/001.png,bars/mask008.png,,,,,,,,,,,,0,2,,,,,,,4,3,4,4,,,,,,,,,,,2460.1032,2460.6029,2460.853,2462.6715,space,1.81,,2462.6718,76,31,2463.6686,2463.6686,2463.6726,,,,0,9,9,9,1,130,85,,,,,,,,
,,6134ec246da4dc93db56e8f8,65b1a122c776755edf0f7664,2024-01-25_01h46.45.223,bars,2023.2.3,Win32,59.88023952,657b66ea316d21385b68909f,,,,,,,,,,,2463.6728,2464.6683,,,2465.1684,2465.4193,,97,97,,,,,,,,,,,,,,,,bars/039.png,bars/mask000.png,,,,,,,,,,,,4,2,,,,,,,2,5,3,5,,,,,,,,,,,2464.6683,2465.1684,2465.4195,2471.0845,space,5.651,,2471.0847,78,8,2472.0835,2472.0836,2472.1159,,,,0,10,10,10,1,175,105,,,,,,,,
