init_variables.started,init_variables.stopped,participant,session,date,expName,psychopyVersion,OS,frameRate,study_id,instruction_exp.started,instruction_exp.stopped,key_resp_8.keys,key_resp_8.rt,key_resp_8.duration,instruction_single.started,instruction_single.stopped,key_resp_2.keys,key_resp_2.rt,key_resp_2.duration,interval.started,interval.stopped,cue_single.started,cue_single.stopped,mask.started,mask.stopped,ori_response_single.started,res_ori,res,ori_response_single.stopped,key_resp_single.keys,key_resp_single.rt,key_resp_single.duration,disp_single.started,disp_single.stopped,key_resp.keys,key_resp.rt,key_resp.duration,single.thisRepN,single.thisTrialN,single.thisN,single.thisIndex,single.ran,ori,path,mask_path,instruction_bandit.started,instruction_bandit.stopped,key_resp_6.keys,key_resp_6.rt,key_resp_6.duration,cue_bandit.started,cue_bandit.stopped,bandit_res.keys,bandit_res.rt,bandit_res.duration,outcome_bandit.started,rew,action,outcome_bandit.stopped,bandit.thisRepN,bandit.thisTrialN,bandit.thisN,bandit.thisIndex,bandit.ran,actual_rew1,actual_rew2,rew1,rew2,instruction_task.started,instruction_task.stopped,key_resp_7.keys,key_resp_7.rt,key_resp_7.duration,wait_ready.started,wait_ready.stopped,key_resp_3.keys,key_resp_3.rt,key_resp_3.duration,cue.started,cue.stopped,ori_response.started,ori_response.stopped,key_resp_5.keys,key_resp_5.rt,key_resp_5.duration,outcome.started,diff1,diff2,outcome.stopped,disp_outcome_practice.started,disp_outcome_practice.stopped,key_resp_4.keys,key_resp_4.rt,key_resp_4.duration,trials.thisRepN,trials.thisTrialN,trials.thisN,trials.thisIndex,trials.ran,ori1,ori2,break_blk.started,break_blk.stopped,block.thisRepN,block.thisTrialN,block.thisN,block.thisIndex,block.ran,condition_file
0.001,0.0014,616a08ba588c5e11354585ce,65af557e2cf40634cd5d70a3,2024-01-23_07h59.47.803,bars,2023.2.3,MacIntel,59.88023952,657b66ea316d21385b68909f,,,,,,,,,,,,,,,,,,,,,,,,,,,,,,,,,,,,,,,,,,,,,,,,,,,,,,,,,,,,,,,,,,,,,,,,,,,,,,,,,,,,,,,,,,,,,,,,,,,,
,,616a08ba588c5e11354585ce,65af557e2cf40634cd5d70a3,2024-01-23_07h59.47.803,bars,2023.2.3,MacIntel,59.88023952,657b66ea316d21385b68909f,0.0016,11.0639,y,11.0349,,,,,,,,,,,,,,,,,,,,,,,,,,,,,,,,,,,,,,,,,,,,,,,,,,,,,,,,,,,,,,,,,,,,,,,,,,,,,,,,,,,,,,,,,,,,,,,,
,,616a08ba588c5e11354585ce,65af557e2cf40634cd5d70a3,2024-01-23_07h59.47.803,bars,2023.2.3,MacIntel,59.88023952,657b66ea316d21385b68909f,,,,,,11.064,39.6835,space,28.5982,,,,,,,,,,,,,,,,,,,,,,,,,,,,,,,,,,,,,,,,,,,,,,,,,,,,,,,,,,,,,,,,,,,,,,,,,,,,,,,,,,,,,,,,,,,
,,616a08ba588c5e11354585ce,65af557e2cf40634cd5d70a3,2024-01-23_07h59.47.803,bars,2023.2.3,MacIntel,59.88023952,657b66ea316d21385b68909f,,,,,,,,,,,39.6891,40.6835,40.6837,41.1832,41.1833,41.4327,41.4328,126,126,48.8698,space,7.4007,,48.8699,64.0103,space,15.0967,,0,0,0,1,1,20,bars/single001.png,bars/mask006.png,,,,,,,,,,,,,,,,,,,,,,,,,,,,,,,,,,,,,,,,,,,,,,,,,,,,,,,,,,,,,,,,
,,616a08ba588c5e11354585ce,65af557e2cf40634cd5d70a3,2024-01-23_07h59.47.803,bars,2023.2.3,MacIntel,59.88023952,657b66ea316d21385b68909f,,,,,,,,,,,64.0221,65.0113,65.0114,65.5109,65.5109,65.7614,65.7614,166,166,69.0592,space,3.2812,,69.0593,80.6025,space,11.5048,,0,1,1,4,1,95,bars/single004.png,bars/mask004.png,,,,,,,,,,,,,,,,,,,,,,,,,,,,,,,,,,,,,,,,,,,,,,,,,,,,,,,,,,,,,,,,
,,616a08ba588c5e11354585ce,65af557e2cf40634cd5d70a3,2024-01-23_07h59.47.803,bars,2023.2.3,MacIntel,59.88023952,657b66ea316d21385b68909f,,,,,,,,,,,80.6029,81.6024,81.6024,82.1025,82.1026,82.3519,82.3519,173,173,97.6271,space,15.2583,,97.6271,106.2814,space,8.633,,0,2,2,0,1,150,bars/single000.png,bars/mask006.png,,,,,,,,,,,,,,,,,,,,,,,,,,,,,,,,,,,,,,,,,,,,,,,,,,,,,,,,,,,,,,,,
,,616a08ba588c5e11354585ce,65af557e2cf40634cd5d70a3,2024-01-23_07h59.47.803,bars,2023.2.3,MacIntel,59.88023952,657b66ea316d21385b68909f,,,,,,,,,,,106.2928,107.281,107.281,107.7813,107.7814,108.0306,108.0307,46,46,118.3528,space,10.3009,,118.3528,120.6529,space,2.2736,,0,3,3,9,1,20,bars/single009.png,bars/mask006.png,,,,,,,,,,,,,,,,,,,,,,,,,,,,,,,,,,,,,,,,,,,,,,,,,,,,,,,,,,,,,,,,
,,616a08ba588c5e11354585ce,65af557e2cf40634cd5d70a3,2024-01-23_07h59.47.803,bars,2023.2.3,MacIntel,59.88023952,657b66ea316d21385b68909f,,,,,,,,,,,120.6532,121.6538,121.6539,122.1547,122.1547,122.4042,122.4042,44,44,129.1598,space,6.7385,,129.1598,133.0772,space,3.8918,,0,4,4,7,1,45,bars/single007.png,bars/mask009.png,,,,,,,,,,,,,,,,,,,,,,,,,,,,,,,,,,,,,,,,,,,,,,,,,,,,,,,,,,,,,,,,
,,616a08ba588c5e11354585ce,65af557e2cf40634cd5d70a3,2024-01-23_07h59.47.803,bars,2023.2.3,MacIntel,59.88023952,657b66ea316d21385b68909f,,,,,,,,,,,133.0779,134.0779,134.0779,134.5775,134.5775,134.8267,134.8268,177,-3,142.8485,space,8.0051,,142.8487,145.6655,space,2.7916,,0,5,5,6,1,175,bars/single006.png,bars/mask005.png,,,,,,,,,,,,,,,,,,,,,,,,,,,,,,,,,,,,,,,,,,,,,,,,,,,,,,,,,,,,,,,,
,,616a08ba588c5e11354585ce,65af557e2cf40634cd5d70a3,2024-01-23_07h59.47.803,bars,2023.2.3,MacIntel,59.88023952,657b66ea316d21385b68909f,,,,,,,,,,,145.6658,146.6656,146.6657,147.1665,147.1665,147.4167,147.4167,30,30,151.1037,space,3.6689,,151.1038,152.9699,space,1.8389,,0,6,6,3,1,20,bars/single003.png,bars/mask005.png,,,,,,,,,,,,,,,,,,,,,,,,,,,,,,,,,,,,,,,,,,,,,,,,,,,,,,,,,,,,,,,,
,,616a08ba588c5e11354585ce,65af557e2cf40634cd5d70a3,2024-01-23_07h59.47.803,bars,2023.2.3,MacIntel,59.88023952,657b66ea316d21385b68909f,,,,,,,,,,,152.9705,153.9707,153.9708,154.4701,154.4701,154.7194,154.7194,143,143,159.5719,space,4.8312,,159.5719,161.4898,space,1.8911,,0,7,7,2,1,145,bars/single002.png,bars/mask003.png,,,,,,,,,,,,,,,,,,,,,,,,,,,,,,,,,,,,,,,,,,,,,,,,,,,,,,,,,,,,,,,,
,,616a08ba588c5e11354585ce,65af557e2cf40634cd5d70a3,2024-01-23_07h59.47.803,bars,2023.2.3,MacIntel,59.88023952,657b66ea316d21385b68909f,,,,,,,,,,,161.4901,162.4893,162.4893,162.9905,162.9906,163.2417,163.2417,151,151,171.7117,space,8.4549,,171.7117,173.0624,space,1.33,,0,8,8,8,1,160,bars/single008.png,bars/mask004.png,,,,,,,,,,,,,,,,,,,,,,,,,,,,,,,,,,,,,,,,,,,,,,,,,,,,,,,,,,,,,,,,
,,616a08ba588c5e11354585ce,65af557e2cf40634cd5d70a3,2024-01-23_07h59.47.803,bars,2023.2.3,MacIntel,59.88023952,657b66ea316d21385b68909f,,,,,,,,,,,173.0627,174.0634,174.0635,174.5633,174.5634,174.8125,174.8125,66,66,183.8834,space,9.0536,,183.8834,185.7011,space,1.7886,,0,9,9,5,1,55,bars/single005.png,bars/mask008.png,,,,,,,,,,,,,,,,,,,,,,,,,,,,,,,,,,,,,,,,,,,,,,,,,,,,,,,,,,,,,,,,
,,616a08ba588c5e11354585ce,65af557e2cf40634cd5d70a3,2024-01-23_07h59.47.803,bars,2023.2.3,MacIntel,59.88023952,657b66ea316d21385b68909f,,,,,,,,,,,,,,,,,,,,,,,,,,,,,,,,,,,,,185.7018,217.3179,space,31.5967,,,,,,,,,,,,,,,,,,,,,,,,,,,,,,,,,,,,,,,,,,,,,,,,,,,,,,,,,,,,
,,616a08ba588c5e11354585ce,65af557e2cf40634cd5d70a3,2024-01-23_07h59.47.803,bars,2023.2.3,MacIntel,59.88023952,657b66ea316d21385b68909f,,,,,,,,,,,,,,,,,,,,,,,,,,,,,,,,,,,,,,,,,,217.3309,224.754,left,7.3929,,224.7542,9,1,225.7533,0,0,0,0,1,9,1,9,2,,,,,,,,,,,,,,,,,,,,,,,,,,,,,,,,,,,,,,,,,
,,616a08ba588c5e11354585ce,65af557e2cf40634cd5d70a3,2024-01-23_07h59.47.803,bars,2023.2.3,MacIntel,59.88023952,657b66ea316d21385b68909f,,,,,,,,,,,,,,,,,,,,,,,,,,,,,,,,,,,,,,,,,,225.7538,229.573,left,3.7971,,229.5731,10,1,230.5728,0,1,1,1,1,10,0,10,1,,,,,,,,,,,,,,,,,,,,,,,,,,,,,,,,,,,,,,,,,
,,616a08ba588c5e11354585ce,65af557e2cf40634cd5d70a3,2024-01-23_07h59.47.803,bars,2023.2.3,MacIntel,59.88023952,657b66ea316d21385b68909f,,,,,,,,,,,,,,,,,,,,,,,,,,,,,,,,,,,,,,,,,,230.5838,231.9565,left,1.3574,,231.9565,10,1,232.9566,0,2,2,2,1,10,2,10,2,,,,,,,,,,,,,,,,,,,,,,,,,,,,,,,,,,,,,,,,,
,,616a08ba588c5e11354585ce,65af557e2cf40634cd5d70a3,2024-01-23_07h59.47.803,bars,2023.2.3,MacIntel,59.88023952,657b66ea316d21385b68909f,,,,,,,,,,,,,,,,,,,,,,,,,,,,,,,,,,,,,,,,,,232.9569,234.3408,right,1.3674,,234.3408,3,2,235.3415,0,3,3,3,1,8,4,7,3,,,,,,,,,,,,,,,,,,,,,,,,,,,,,,,,,,,,,,,,,
,,616a08ba588c5e11354585ce,65af557e2cf40634cd5d70a3,2024-01-23_07h59.47.803,bars,2023.2.3,MacIntel,59.88023952,657b66ea316d21385b68909f,,,,,,,,,,,,,,,,,,,,,,,,,,,,,,,,,,,,,,,,,,235.3538,236.2253,left,0.8609,,236.2254,5,1,237.2257,0,4,4,4,1,6,2,5,1,,,,,,,,,,,,,,,,,,,,,,,,,,,,,,,,,,,,,,,,,
,,616a08ba588c5e11354585ce,65af557e2cf40634cd5d70a3,2024-01-23_07h59.47.803,bars,2023.2.3,MacIntel,59.88023952,657b66ea316d21385b68909f,,,,,,,,,,,,,,,,,,,,,,,,,,,,,,,,,,,,,,,,,,237.226,238.2439,left,1.0018,,238.2439,4,1,239.2438,0,5,5,5,1,4,4,4,4,,,,,,,,,,,,,,,,,,,,,,,,,,,,,,,,,,,,,,,,,
,,616a08ba588c5e11354585ce,65af557e2cf40634cd5d70a3,2024-01-23_07h59.47.803,bars,2023.2.3,MacIntel,59.88023952,657b66ea316d21385b68909f,,,,,,,,,,,,,,,,,,,,,,,,,,,,,,,,,,,,,,,,,,239.2441,239.8267,right,0.5681,,239.8267,2,2,240.8267,0,6,6,6,1,2,2,1,2,,,,,,,,,,,,,,,,,,,,,,,,,,,,,,,,,,,,,,,,,
,,616a08ba588c5e11354585ce,65af557e2cf40634cd5d70a3,2024-01-23_07h59.47.803,bars,2023.2.3,MacIntel,59.88023952,657b66ea316d21385b68909f,,,,,,,,,,,,,,,,,,,,,,,,,,,,,,,,,,,,,,,,,,240.8269,243.7787,right,2.9354,,243.7788,1,2,244.7798,0,7,7,7,1,0,0,0,1,,,,,,,,,,,,,,,,,,,,,,,,,,,,,,,,,,,,,,,,,
,,616a08ba588c5e11354585ce,65af557e2cf40634cd5d70a3,2024-01-23_07h59.47.803,bars,2023.2.3,MacIntel,59.88023952,657b66ea316d21385b68909f,,,,,,,,,,,,,,,,,,,,,,,,,,,,,,,,,,,,,,,,,,244.7908,245.5971,left,0.7967,,245.5972,1,1,246.5971,0,8,8,8,1,0,2,1,0,,,,,,,,,,,,,,,,,,,,,,,,,,,,,,,,,,,,,,,,,
,,616a08ba588c5e11354585ce,65af557e2cf40634cd5d70a3,2024-01-23_07h59.47.803,bars,2023.2.3,MacIntel,59.88023952,657b66ea316d21385b68909f,,,,,,,,,,,,,,,,,,,,,,,,,,,,,,,,,,,,,,,,,,246.5975,248.614,right,1.9989,,248.614,3,2,249.6147,0,9,9,9,1,2,4,2,3,,,,,,,,,,,,,,,,,,,,,,,,,,,,,,,,,,,,,,,,,
,,616a08ba588c5e11354585ce,65af557e2cf40634cd5d70a3,2024-01-23_07h59.47.803,bars,2023.2.3,MacIntel,59.88023952,657b66ea316d21385b68909f,,,,,,,,,,,,,,,,,,,,,,,,,,,,,,,,,,,,,,,,,,249.6275,250.5312,left,0.89,,250.5312,0,1,251.5323,0,10,10,10,1,0,2,0,3,,,,,,,,,,,,,,,,,,,,,,,,,,,,,,,,,,,,,,,,,
,,616a08ba588c5e11354585ce,65af557e2cf40634cd5d70a3,2024-01-23_07h59.47.803,bars,2023.2.3,MacIntel,59.88023952,657b66ea316d21385b68909f,,,,,,,,,,,,,,,,,,,,,,,,,,,,,,,,,,,,,,,,,,251.5326,254.6505,left,3.1017,,254.6505,0,1,255.6513,0,11,11,11,1,0,4,0,3,,,,,,,,,,,,,,,,,,,,,,,,,,,,,,,,,,,,,,,,,
,,616a08ba588c5e11354585ce,65af557e2cf40634cd5d70a3,2024-01-23_07h59.47.803,bars,2023.2.3,MacIntel,59.88023952,657b66ea316d21385b68909f,,,,,,,,,,,,,,,,,,,,,,,,,,,,,,,,,,,,,,,,,,255.6623,259.0615,left,3.3892,,259.0616,1,1,260.0537,0,12,12,12,1,2,6,1,6,,,,,,,,,,,,,,,,,,,,,,,,,,,,,,,,,,,,,,,,,
,,616a08ba588c5e11354585ce,65af557e2cf40634cd5d70a3,2024-01-23_07h59.47.803,bars,2023.2.3,MacIntel,59.88023952,657b66ea316d21385b68909f,,,,,,,,,,,,,,,,,,,,,,,,,,,,,,,,,,,,,,,,,,260.0646,260.7209,right,0.6468,,260.721,3,2,261.7208,0,13,13,13,1,0,4,1,3,,,,,,,,,,,,,,,,,,,,,,,,,,,,,,,,,,,,,,,,,
,,616a08ba588c5e11354585ce,65af557e2cf40634cd5d70a3,2024-01-23_07h59.47.803,bars,2023.2.3,MacIntel,59.88023952,657b66ea316d21385b68909f,,,,,,,,,,,,,,,,,,,,,,,,,,,,,,,,,,,,,,,,,,261.7211,264.3047,right,2.5705,,264.3048,7,2,265.3053,0,14,14,14,1,2,6,2,7,,,,,,,,,,,,,,,,,,,,,,,,,,,,,,,,,,,,,,,,,
,,616a08ba588c5e11354585ce,65af557e2cf40634cd5d70a3,2024-01-23_07h59.47.803,bars,2023.2.3,MacIntel,59.88023952,657b66ea316d21385b68909f,,,,,,,,,,,,,,,,,,,,,,,,,,,,,,,,,,,,,,,,,,265.3056,267.0394,right,1.7137,,267.0394,9,2,268.0421,0,15,15,15,1,4,8,3,9,,,,,,,,,,,,,,,,,,,,,,,,,,,,,,,,,,,,,,,,,
,,616a08ba588c5e11354585ce,65af557e2cf40634cd5d70a3,2024-01-23_07h59.47.803,bars,2023.2.3,MacIntel,59.88023952,657b66ea316d21385b68909f,,,,,,,,,,,,,,,,,,,,,,,,,,,,,,,,,,,,,,,,,,268.0518,268.8085,left,0.745,,268.8086,7,1,269.8079,0,16,16,16,1,6,6,7,7,,,,,,,,,,,,,,,,,,,,,,,,,,,,,,,,,,,,,,,,,
,,616a08ba588c5e11354585ce,65af557e2cf40634cd5d70a3,2024-01-23_07h59.47.803,bars,2023.2.3,MacIntel,59.88023952,657b66ea316d21385b68909f,,,,,,,,,,,,,,,,,,,,,,,,,,,,,,,,,,,,,,,,,,269.8082,270.1093,left,0.2913,,270.1093,9,1,271.1085,0,17,17,17,1,8,4,9,5,,,,,,,,,,,,,,,,,,,,,,,,,,,,,,,,,,,,,,,,,
,,616a08ba588c5e11354585ce,65af557e2cf40634cd5d70a3,2024-01-23_07h59.47.803,bars,2023.2.3,MacIntel,59.88023952,657b66ea316d21385b68909f,,,,,,,,,,,,,,,,,,,,,,,,,,,,,,,,,,,,,,,,,,271.1088,271.4251,left,0.3007,,271.4251,5,1,272.4276,0,18,18,18,1,6,2,5,1,,,,,,,,,,,,,,,,,,,,,,,,,,,,,,,,,,,,,,,,,
,,616a08ba588c5e11354585ce,65af557e2cf40634cd5d70a3,2024-01-23_07h59.47.803,bars,2023.2.3,MacIntel,59.88023952,657b66ea316d21385b68909f,,,,,,,,,,,,,,,,,,,,,,,,,,,,,,,,,,,,,,,,,,272.4283,272.8769,right,0.4308,,272.877,0,2,273.8765,0,19,19,19,1,8,0,7,0,,,,,,,,,,,,,,,,,,,,,,,,,,,,,,,,,,,,,,,,,
,,616a08ba588c5e11354585ce,65af557e2cf40634cd5d70a3,2024-01-23_07h59.47.803,bars,2023.2.3,MacIntel,59.88023952,657b66ea316d21385b68909f,,,,,,,,,,,,,,,,,,,,,,,,,,,,,,,,,,,,,,,,,,,,,,,,,,,,,,,,,,,,273.8771,297.571,space,23.6752,,,,,,,,,,,,,,,,,,,,,,,,,,,,,,,,,,,,,
,,616a08ba588c5e11354585ce,65af557e2cf40634cd5d70a3,2024-01-23_07h59.47.803,bars,2023.2.3,MacIntel,59.88023952,657b66ea316d21385b68909f,,,,,,,,,,,299.2678,300.2595,,,300.7604,301.0101,,53,53,,,,,,,,,,,,,,,,bars/029.png,bars/mask002.png,,,,,,,,,,,,2,2,,,,,,,2,3,5,3,,,,,,297.5846,299.2615,space,1.6565,,300.2601,300.7604,301.011,305.313,space,4.2832,,305.3133,37,8,306.3081,306.3083,322.2015,space,15.8697,,0,0,0,0,1,90,45,,,,,,,,
,,616a08ba588c5e11354585ce,65af557e2cf40634cd5d70a3,2024-01-23_07h59.47.803,bars,2023.2.3,MacIntel,59.88023952,657b66ea316d21385b68909f,,,,,,,,,,,322.2125,323.2165,,,323.7178,323.9666,,165,-15,,,,,,,,,,,,,,,,bars/023.png,bars/mask009.png,,,,,,,,,,,,0,1,,,,,,,4,1,3,1,,,,,,,,,,,323.2165,323.7177,323.9667,332.1719,space,8.1847,,332.1722,35,50,333.1715,333.1715,338.7148,space,5.5089,,0,1,1,1,1,20,115,,,,,,,,
,,616a08ba588c5e11354585ce,65af557e2cf40634cd5d70a3,2024-01-23_07h59.47.803,bars,2023.2.3,MacIntel,59.88023952,657b66ea316d21385b68909f,,,,,,,,,,,338.732,339.7246,,,340.2247,340.4741,,99,99,,,,,,,,,,,,,,,,bars/031.png,bars/mask008.png,,,,,,,,,,,,2,1,,,,,,,6,0,5,0,,,,,,,,,,,339.7246,340.2247,340.4741,346.2936,space,5.7988,,346.2936,21,64,347.2949,347.295,349.7212,space,2.4017,,0,2,2,2,1,120,35,,,,,,,,
,,616a08ba588c5e11354585ce,65af557e2cf40634cd5d70a3,2024-01-23_07h59.47.803,bars,2023.2.3,MacIntel,59.88023952,657b66ea316d21385b68909f,,,,,,,,,,,349.7217,350.7179,,,351.2142,351.4628,,39,39,,,,,,,,,,,,,,,,bars/028.png,bars/mask008.png,,,,,,,,,,,,3,1,,,,,,,4,2,4,2,,,,,,,,,,,350.7179,351.2142,351.4628,358.2166,space,6.7334,,358.2168,6,81,359.217,359.2171,362.8852,space,3.6423,,0,3,3,3,1,45,120,,,,,,,,
,,616a08ba588c5e11354585ce,65af557e2cf40634cd5d70a3,2024-01-23_07h59.47.803,bars,2023.2.3,MacIntel,59.88023952,657b66ea316d21385b68909f,,,,,,,,,,,362.8857,363.8854,,,364.3867,364.6357,,109,109,,,,,,,,,,,,,,,,bars/009.png,bars/mask005.png,,,,,,,,,,,,3,2,,,,,,,6,4,6,4,,,,,,,,,,,363.8855,364.3867,364.6357,370.7885,space,6.1317,,370.7885,86,4,371.7891,371.7892,376.1742,space,4.3464,,0,4,4,4,1,15,105,,,,,,,,
,,616a08ba588c5e11354585ce,65af557e2cf40634cd5d70a3,2024-01-23_07h59.47.803,bars,2023.2.3,MacIntel,59.88023952,657b66ea316d21385b68909f,,,,,,,,,,,376.1865,377.1753,,,377.6765,377.9252,,106,106,,,,,,,,,,,,,,,,bars/014.png,bars/mask001.png,,,,,,,,,,,,0,1,,,,,,,4,2,3,2,,,,,,,,,,,377.1753,377.6764,377.9253,384.78,space,6.8369,,384.78,26,74,385.7792,385.7792,388.6491,space,2.8366,,0,5,5,5,1,80,0,,,,,,,,
,,616a08ba588c5e11354585ce,65af557e2cf40634cd5d70a3,2024-01-23_07h59.47.803,bars,2023.2.3,MacIntel,59.88023952,657b66ea316d21385b68909f,,,,,,,,,,,388.6494,389.6479,,,390.1491,390.3979,,84,84,,,,,,,,,,,,,,,,bars/007.png,bars/mask004.png,,,,,,,,,,,,0,2,,,,,,,2,4,2,5,,,,,,,,,,,389.648,390.1491,390.398,394.3,space,3.8841,,394.3,89,29,395.302,395.3021,399.9544,space,4.6192,,0,6,6,6,1,175,55,,,,,,,,
,,616a08ba588c5e11354585ce,65af557e2cf40634cd5d70a3,2024-01-23_07h59.47.803,bars,2023.2.3,MacIntel,59.88023952,657b66ea316d21385b68909f,,,,,,,,,,,399.9652,400.9546,,,401.4539,401.7044,,107,107,,,,,,,,,,,,,,,,bars/034.png,bars/mask002.png,,,,,,,,,,,,2,1,,,,,,,4,2,5,2,,,,,,,,,,,400.9548,401.4539,401.7045,406.9058,space,5.1819,,406.9058,18,42,407.9069,407.907,425.3811,space,17.4381,,0,7,7,7,1,125,65,,,,,,,,
,,616a08ba588c5e11354585ce,65af557e2cf40634cd5d70a3,2024-01-23_07h59.47.803,bars,2023.2.3,MacIntel,59.88023952,657b66ea316d21385b68909f,,,,,,,,,,,425.3931,426.3817,,,426.8842,427.132,,136,136,,,,,,,,,,,,,,,,bars/004.png,bars/mask004.png,,,,,,,,,,,,4,2,,,,,,,2,4,2,6,,,,,,,,,,,426.3818,426.8842,427.132,432.2516,space,5.096,,432.2517,69,11,433.252,433.252,443.0057,space,9.7264,,0,8,8,8,1,25,125,,,,,,,,
,,616a08ba588c5e11354585ce,65af557e2cf40634cd5d70a3,2024-01-23_07h59.47.803,bars,2023.2.3,MacIntel,59.88023952,657b66ea316d21385b68909f,,,,,,,,,,,443.0181,444.0066,,,444.5089,444.7584,,120,120,,,,,,,,,,,,,,,,bars/040.png,bars/mask005.png,,,,,,,,,,,,0,1,,,,,,,0,2,0,2,,,,,,,,,,,444.0066,444.5088,444.7584,452.0291,space,7.2556,,452.0291,20,65,453.0282,453.0282,461.2696,space,8.2087,,0,9,9,9,1,140,5,,,,,,,,
,,616a08ba588c5e11354585ce,65af557e2cf40634cd5d70a3,2024-01-23_07h59.47.803,bars,2023.2.3,MacIntel,59.88023952,657b66ea316d21385b68909f,,,,,,,,,,,461.28,462.2822,,,462.7822,463.0332,,127,-53,,,,,,,,,,,,,,,,bars/001.png,bars/mask004.png,,,,,,,,,,,,0,1,,,,,,,0,4,0,5,,,,,,,,,,,462.2822,462.7822,463.0332,480.8087,space,17.7651,,480.8087,3,42,481.809,481.809,486.7015,space,4.8698,,0,10,10,10,1,130,85,,,,,,,,
,,616a08ba588c5e11354585ce,65af557e2cf40634cd5d70a3,2024-01-23_07h59.47.803,bars,2023.2.3,MacIntel,59.88023952,657b66ea316d21385b68909f,,,,,,,,,,,486.7189,487.7115,,,488.2122,488.4617,,122,122,,,,,,,,,,,,,,,,bars/002.png,bars/mask008.png,,,,,,,,,,,,1,1,,,,,,,2,2,1,0,,,,,,,,,,,487.7115,488.212,488.4618,493.7816,space,5.3091,,493.7816,8,37,494.7815,494.7815,502.5187,space,7.7129,,0,11,11,11,1,130,85,,,,,,,,
,,616a08ba588c5e11354585ce,65af557e2cf40634cd5d70a3,2024-01-23_07h59.47.803,bars,2023.2.3,MacIntel,59.88023952,657b66ea316d21385b68909f,,,,,,,,,,,502.5308,503.519,,,504.0197,504.2688,,127,-53,,,,,,,,,,,,,,,,bars/037.png,bars/mask005.png,,,,,,,,,,,,1,2,,,,,,,4,4,5,5,,,,,,,,,,,503.519,504.0197,504.2688,512.5902,space,8.3047,,512.5903,23,22,513.5907,513.5907,526.4136,space,12.7988,,0,12,12,12,1,150,105,,,,,,,,
,,616a08ba588c5e11354585ce,65af557e2cf40634cd5d70a3,2024-01-23_07h59.47.803,bars,2023.2.3,MacIntel,59.88023952,657b66ea316d21385b68909f,,,,,,,,,,,526.4243,527.413,,,527.9139,528.163,,113,113,,,,,,,,,,,,,,,,bars/039.png,bars/mask004.png,,,,,,,,,,,,2,2,,,,,,,2,2,0,3,,,,,,,,,,,527.4131,527.9139,528.163,533.2001,space,5.017,,533.2001,62,8,534.2002,534.2003,540.2191,space,5.9942,,0,13,13,13,1,175,105,,,,,,,,
,,616a08ba588c5e11354585ce,65af557e2cf40634cd5d70a3,2024-01-23_07h59.47.803,bars,2023.2.3,MacIntel,59.88023952,657b66ea316d21385b68909f,,,,,,,,,,,540.2315,541.2209,,,541.7206,541.9704,,171,171,,,,,,,,,,,,,,,,bars/039.png,bars/mask006.png,,,,,,,,,,,,4,1,,,,,,,4,4,5,4,,,,,,,,,,,541.2209,541.7206,541.9704,545.8057,space,3.819,,545.8057,4,66,546.8059,546.806,549.4906,space,2.6599,,0,14,14,14,1,175,105,,,,,,,,
,,616a08ba588c5e11354585ce,65af557e2cf40634cd5d70a3,2024-01-23_07h59.47.803,bars,2023.2.3,MacIntel,59.88023952,657b66ea316d21385b68909f,,,,,,,,,,,549.4911,550.4914,,,550.9912,551.242,,89,89,,,,,,,,,,,,,,,,bars/022.png,bars/mask002.png,,,,,,,,,,,,1,1,,,,,,,2,6,1,7,,,,,,,,,,,550.4915,550.9912,551.2421,553.9603,space,2.7027,,553.9604,6,69,554.9598,554.9598,560.6036,space,5.6212,,0,15,15,15,1,95,20,,,,,,,,
,,616a08ba588c5e11354585ce,65af557e2cf40634cd5d70a3,2024-01-23_07h59.47.803,bars,2023.2.3,MacIntel,59.88023952,657b66ea316d21385b68909f,,,,,,,,,,,560.6205,561.6139,,,562.1132,562.3633,,157,157,,,,,,,,,,,,,,,,bars/000.png,bars/mask006.png,,,,,,,,,,,,3,2,,,,,,,4,4,2,5,,,,,,,,,,,561.6139,562.1132,562.3633,568.7494,space,6.3652,,568.7494,63,12,569.7501,569.7502,581.8055,space,12.028,,0,16,16,16,1,40,145,,,,,,,,
,,616a08ba588c5e11354585ce,65af557e2cf40634cd5d70a3,2024-01-23_07h59.47.803,bars,2023.2.3,MacIntel,59.88023952,657b66ea316d21385b68909f,,,,,,,,,,,581.8188,582.8063,,,583.3068,583.5561,,105,105,,,,,,,,,,,,,,,,bars/032.png,bars/mask005.png,,,,,,,,,,,,2,1,,,,,,,6,2,5,2,,,,,,,,,,,582.8064,583.3068,583.5562,585.0754,space,1.5021,,585.0754,20,85,586.0746,586.0746,587.6613,space,1.5537,,0,17,17,17,1,125,20,,,,,,,,
,,616a08ba588c5e11354585ce,65af557e2cf40634cd5d70a3,2024-01-23_07h59.47.803,bars,2023.2.3,MacIntel,59.88023952,657b66ea316d21385b68909f,,,,,,,,,,,587.6617,588.6602,,,589.1602,589.411,,32,212,,,,,,,,,,,,,,,,bars/012.png,bars/mask009.png,,,,,,,,,,,,1,2,,,,,,,8,4,7,3,,,,,,,,,,,588.6602,589.1602,589.4111,597.7298,space,8.2992,,597.7299,58,17,598.7305,598.7306,607.751,space,8.9834,,0,18,18,18,1,90,15,,,,,,,,
,,616a08ba588c5e11354585ce,65af557e2cf40634cd5d70a3,2024-01-23_07h59.47.803,bars,2023.2.3,MacIntel,59.88023952,657b66ea316d21385b68909f,,,,,,,,,,,607.7627,608.7517,,,609.2525,609.5019,,94,94,,,,,,,,,,,,,,,,bars/027.png,bars/mask003.png,,,,,,,,,,,,2,1,,,,,,,6,2,5,3,,,,,,,,,,,608.7517,609.2525,609.5019,613.4548,space,3.9305,,613.4549,16,44,614.4542,614.4542,629.529,space,15.0492,,0,19,19,19,1,110,50,,,,,,,,
,,616a08ba588c5e11354585ce,65af557e2cf40634cd5d70a3,2024-01-23_07h59.47.803,bars,2023.2.3,MacIntel,59.88023952,657b66ea316d21385b68909f,,,,,,,,,,,629.5403,630.5293,,,631.0287,631.2795,,117,-63,,,,,,,,,,,,,,,,bars/039.png,bars/mask004.png,,,,,,,,,,,,1,2,,,,,,,8,4,8,2,,,,,,,,,,,630.5294,631.0286,631.2795,640.1664,space,8.8735,,640.1664,58,12,641.1668,641.1668,889.652,space,248.4467,,0,20,20,20,1,175,105,,,,,,,,
,,616a08ba588c5e11354585ce,65af557e2cf40634cd5d70a3,2024-01-23_07h59.47.803,bars,2023.2.3,MacIntel,59.88023952,657b66ea316d21385b68909f,,,,,,,,,,,889.6637,890.6524,,,891.1523,891.4021,,2,182,,,,,,,,,,,,,,,,bars/008.png,bars/mask005.png,,,,,,,,,,,,6,2,,,,,,,6,6,5,6,,,,,,,,,,,890.6525,891.1523,891.4021,900.4794,space,9.0603,,900.4795,72,2,901.4795,901.4795,905.2263,space,3.7161,,0,21,21,21,1,110,0,,,,,,,,
,,616a08ba588c5e11354585ce,65af557e2cf40634cd5d70a3,2024-01-23_07h59.47.803,bars,2023.2.3,MacIntel,59.88023952,657b66ea316d21385b68909f,,,,,,,,,,,905.2266,906.2266,,,906.7271,906.976,,152,-28,,,,,,,,,,,,,,,,bars/000.png,bars/mask001.png,,,,,,,,,,,,3,2,,,,,,,8,4,9,4,,,,,,,,,,,906.2267,906.7271,906.976,913.6645,space,6.6722,,913.6645,68,7,914.6633,914.6633,917.4659,space,2.7797,,0,22,22,22,1,40,145,,,,,,,,
,,616a08ba588c5e11354585ce,65af557e2cf40634cd5d70a3,2024-01-23_07h59.47.803,bars,2023.2.3,MacIntel,59.88023952,657b66ea316d21385b68909f,,,,,,,,,,,917.4663,918.4657,,,918.9662,919.2153,,120,120,,,,,,,,,,,,,,,,bars/028.png,bars/mask002.png,,,,,,,,,,,,2,2,,,,,,,10,2,10,2,,,,,,,,,,,918.4657,918.9661,919.2153,929.4202,space,10.1873,,929.4203,75,0,930.4229,930.423,950.0111,space,19.5563,,0,23,23,23,1,45,120,,,,,,,,
,,616a08ba588c5e11354585ce,65af557e2cf40634cd5d70a3,2024-01-23_07h59.47.803,bars,2023.2.3,MacIntel,59.88023952,657b66ea316d21385b68909f,,,,,,,,,,,950.0291,951.0147,,,951.5149,951.764,,126,126,,,,,,,,,,,,,,,,bars/020.png,bars/mask009.png,,,,,,,,,,,,6,1,,,,,,,10,4,10,6,,,,,,,,,,,951.0148,951.5149,951.7641,957.5503,space,5.7662,,957.5503,11,44,958.5506,958.5508,966.7075,space,8.1212,,0,24,24,24,1,115,170,,,,,,,,
,,616a08ba588c5e11354585ce,65af557e2cf40634cd5d70a3,2024-01-23_07h59.47.803,bars,2023.2.3,MacIntel,59.88023952,657b66ea316d21385b68909f,,,,,,,,,,,966.7198,967.7218,,,968.2226,968.4735,,82,82,,,,,,,,,,,,,,,,bars/007.png,bars/mask009.png,,,,,,,,,,,,1,2,,,,,,,10,6,9,7,,,,,,,,,,,967.7219,968.2226,968.4735,973.7811,space,5.292,,973.7812,87,27,974.7793,974.7793,978.7787,space,3.9664,,0,25,25,25,1,175,55,,,,,,,,
,,616a08ba588c5e11354585ce,65af557e2cf40634cd5d70a3,2024-01-23_07h59.47.803,bars,2023.2.3,MacIntel,59.88023952,657b66ea316d21385b68909f,,,,,,,,,,,978.779,979.778,,,980.2787,980.5278,,170,170,,,,,,,,,,,,,,,,bars/035.png,bars/mask005.png,,,,,,,,,,,,8,1,,,,,,,10,8,10,8,,,,,,,,,,,979.7781,980.2786,980.5278,990.1001,space,9.5555,,990.1001,5,70,991.1009,991.1009,995.9192,space,4.7798,,0,26,26,26,1,175,60,,,,,,,,
,,616a08ba588c5e11354585ce,65af557e2cf40634cd5d70a3,2024-01-23_07h59.47.803,bars,2023.2.3,MacIntel,59.88023952,657b66ea316d21385b68909f,,,,,,,,,,,995.9317,996.9196,,,997.4204,997.6694,,157,-23,,,,,,,,,,,,,,,,bars/037.png,bars/mask008.png,,,,,,,,,,,,8,1,,,,,,,10,10,10,10,,,,,,,,,,,996.9196,997.4204,997.6694,1006.6241,space,8.9336,,1006.6243,7,52,1007.6238,1007.6238,1354.6888,space,347.0398,,0,27,27,27,1,150,105,,,,,,,,
,,616a08ba588c5e11354585ce,65af557e2cf40634cd5d70a3,2024-01-23_07h59.47.803,bars,2023.2.3,MacIntel,59.88023952,657b66ea316d21385b68909f,,,,,,,,,,,1354.7031,1355.6895,,,1356.1902,1356.4392,,81,81,,,,,,,,,,,,,,,,bars/027.png,bars/mask009.png,,,,,,,,,,,,0,1,,,,,,,10,8,10,8,,,,,,,,,,,1355.6895,1356.1902,1356.4392,1366.4112,space,9.9557,,1366.4112,29,31,1367.4118,1367.4118,1373.3317,space,5.8981,,0,28,28,28,1,110,50,,,,,,,,
,,616a08ba588c5e11354585ce,65af557e2cf40634cd5d70a3,2024-01-23_07h59.47.803,bars,2023.2.3,MacIntel,59.88023952,657b66ea316d21385b68909f,,,,,,,,,,,1373.3418,1374.3309,,,1374.8318,1375.0814,,124,124,,,,,,,,,,,,,,,,bars/034.png,bars/mask000.png,,,,,,,,,,,,8,1,,,,,,,8,10,8,10,,,,,,,,,,,1374.3309,1374.8316,1375.0814,1378.4663,space,3.3661,,1378.4664,1,59,1379.4675,1379.4675,1381.9357,space,2.4402,,0,29,29,29,1,125,65,,,,,,,,
,,616a08ba588c5e11354585ce,65af557e2cf40634cd5d70a3,2024-01-23_07h59.47.803,bars,2023.2.3,MacIntel,59.88023952,657b66ea316d21385b68909f,,,,,,,,,,,1381.9364,1382.9352,,,1383.4361,1383.6871,,101,101,,,,,,,,,,,,,,,,bars/025.png,bars/mask007.png,,,,,,,,,,,,6,1,,,,,,,6,10,7,10,,,,,,,,,,,1382.9352,1383.4361,1383.6871,1387.8708,space,4.1675,,1387.8708,4,61,1388.8712,1388.8712,1416.7371,space,27.8422,,0,30,30,30,1,105,40,,,,,,,,
,,616a08ba588c5e11354585ce,65af557e2cf40634cd5d70a3,2024-01-23_07h59.47.803,bars,2023.2.3,MacIntel,59.88023952,657b66ea316d21385b68909f,,,,,,,,,,,1416.7477,1417.7358,,,1418.2362,1418.4854,,143,143,,,,,,,,,,,,,,,,bars/011.png,bars/mask009.png,,,,,,,,,,,,1,1,,,,,,,4,10,3,10,,,,,,,,,,,1417.7358,1418.2361,1418.4854,1428.9419,space,10.4354,,1428.9419,17,58,1429.9413,1429.9415,1439.6114,space,9.6469,,0,31,31,31,1,160,85,,,,,,,,
,,616a08ba588c5e11354585ce,65af557e2cf40634cd5d70a3,2024-01-23_07h59.47.803,bars,2023.2.3,MacIntel,59.88023952,657b66ea316d21385b68909f,,,,,,,,,,,1439.6249,1440.6123,,,1441.1141,1441.363,,20,200,,,,,,,,,,,,,,,,bars/004.png,bars/mask006.png,,,,,,,,,,,,6,1,,,,,,,6,10,7,10,,,,,,,,,,,1440.6124,1441.1141,1441.3631,1446.3334,space,4.9488,,1446.3335,5,75,1447.3323,1447.3323,1452.3196,space,4.9583,,0,32,32,32,1,25,125,,,,,,,,
,,616a08ba588c5e11354585ce,65af557e2cf40634cd5d70a3,2024-01-23_07h59.47.803,bars,2023.2.3,MacIntel,59.88023952,657b66ea316d21385b68909f,,,,,,,,,,,1452.3308,1453.3188,,,1453.8199,1454.0708,,155,-25,,,,,,,,,,,,,,,,bars/039.png,bars/mask003.png,,,,,,,,,,,,1,1,,,,,,,4,10,3,9,,,,,,,,,,,1453.3189,1453.8199,1454.0708,1463.6924,space,9.6002,,1463.6924,20,50,1464.6925,1464.6926,1476.2819,space,11.568,,0,33,33,33,1,175,105,,,,,,,,
,,616a08ba588c5e11354585ce,65af557e2cf40634cd5d70a3,2024-01-23_07h59.47.803,bars,2023.2.3,MacIntel,59.88023952,657b66ea316d21385b68909f,,,,,,,,,,,1476.2932,1477.2808,,,1477.781,1478.0306,,171,171,,,,,,,,,,,,,,,,bars/036.png,bars/mask000.png,,,,,,,,,,,,1,1,,,,,,,6,8,8,8,,,,,,,,,,,1477.2808,1477.7809,1478.0306,1479.4829,space,1.4361,,1479.4829,26,29,1480.4814,1480.4815,1515.2813,space,34.7753,,0,34,34,34,1,145,20,,,,,,,,
,,616a08ba588c5e11354585ce,65af557e2cf40634cd5d70a3,2024-01-23_07h59.47.803,bars,2023.2.3,MacIntel,59.88023952,657b66ea316d21385b68909f,,,,,,,,,,,1515.2939,1516.2824,,,1516.7828,1517.032,,39,39,,,,,,,,,,,,,,,,bars/026.png,bars/mask004.png,,,,,,,,,,,,3,1,,,,,,,4,6,4,6,,,,,,,,,,,1516.2824,1516.7827,1517.0321,1528.4878,space,11.4338,,1528.4879,4,46,1529.4886,1529.4887,1536.3079,space,6.7942,,0,35,35,35,1,35,85,,,,,,,,
,,616a08ba588c5e11354585ce,65af557e2cf40634cd5d70a3,2024-01-23_07h59.47.803,bars,2023.2.3,MacIntel,59.88023952,657b66ea316d21385b68909f,,,,,,,,,,,1536.3211,1537.3115,,,1537.8094,1538.0588,,113,113,,,,,,,,,,,,,,,,bars/003.png,bars/mask003.png,,,,,,,,,,,,0,2,,,,,,,2,4,1,4,,,,,,,,,,,1537.3115,1537.8094,1538.0588,1547.5974,space,9.5221,,1547.5974,88,27,1548.5974,1548.5975,1554.3997,space,5.7749,,0,36,36,36,1,25,140,,,,,,,,
,,616a08ba588c5e11354585ce,65af557e2cf40634cd5d70a3,2024-01-23_07h59.47.803,bars,2023.2.3,MacIntel,59.88023952,657b66ea316d21385b68909f,,,,,,,,,,,1554.4115,1555.4007,,,1555.9016,1556.1546,,89,89,,,,,,,,,,,,,,,,bars/041.png,bars/mask003.png,,,,,,,,,,,,0,2,,,,,,,0,2,1,0,,,,,,,,,,,1555.4008,1555.9016,1556.1547,1563.5879,space,7.4159,,1563.588,69,4,1564.5878,1564.5878,1569.2639,space,4.6512,,0,37,37,37,1,20,85,,,,,,,,
,,616a08ba588c5e11354585ce,65af557e2cf40634cd5d70a3,2024-01-23_07h59.47.803,bars,2023.2.3,MacIntel,59.88023952,657b66ea316d21385b68909f,,,,,,,,,,,1569.28,1570.2739,,,1570.7741,1571.0243,,12,192,,,,,,,,,,,,,,,,bars/041.png,bars/mask005.png,,,,,,,,,,,,1,1,,,,,,,2,0,2,1,,,,,,,,,,,1570.2739,1570.7741,1571.0243,1577.1271,space,6.0837,,1577.1272,8,73,1578.1277,1578.1277,1584.5812,space,6.4187,,0,38,38,38,1,20,85,,,,,,,,
,,616a08ba588c5e11354585ce,65af557e2cf40634cd5d70a3,2024-01-23_07h59.47.803,bars,2023.2.3,MacIntel,59.88023952,657b66ea316d21385b68909f,,,,,,,,,,,1584.5936,1585.598,,,1586.083,1586.3323,,147,147,,,,,,,,,,,,,,,,bars/032.png,bars/mask007.png,,,,,,,,,,,,1,1,,,,,,,4,2,5,2,,,,,,,,,,,1585.5981,1586.0828,1586.3323,1588.7998,space,2.4526,,1588.7999,22,53,1589.8,1589.8,1595.9877,space,6.1632,,0,39,39,39,1,125,20,,,,,,,,
,,616a08ba588c5e11354585ce,65af557e2cf40634cd5d70a3,2024-01-23_07h59.47.803,bars,2023.2.3,MacIntel,59.88023952,657b66ea316d21385b68909f,,,,,,,,,,,1595.9976,1596.9874,,,1597.4882,1597.7387,,140,140,,,,,,,,,,,,,,,,bars/001.png,bars/mask000.png,,,,,,,,,,,,5,1,,,,,,,6,0,7,1,,,,,,,,,,,1596.9874,1597.4882,1597.7388,1602.9742,space,5.2209,,1602.9743,10,55,1603.9741,1603.9742,1615.8149,space,11.8194,,0,40,40,40,1,130,85,,,,,,,,
,,616a08ba588c5e11354585ce,65af557e2cf40634cd5d70a3,2024-01-23_07h59.47.803,bars,2023.2.3,MacIntel,59.88023952,657b66ea316d21385b68909f,,,,,,,,,,,1615.8251,1616.8132,,,1617.3137,1617.5645,,122,122,,,,,,,,,,,,,,,,bars/020.png,bars/mask007.png,,,,,,,,,,,,3,1,,,,,,,4,2,4,2,,,,,,,,,,,1616.8132,1617.3136,1617.5645,1627.9866,space,10.4067,,1627.9867,7,48,1628.9852,1628.9853,1646.6268,space,17.6158,,0,41,41,41,1,115,170,,,,,,,,
,,616a08ba588c5e11354585ce,65af557e2cf40634cd5d70a3,2024-01-23_07h59.47.803,bars,2023.2.3,MacIntel,59.88023952,657b66ea316d21385b68909f,,,,,,,,,,,1646.6393,1647.6275,,,1648.1286,1648.3778,,124,124,,,,,,,,,,,,,,,,bars/028.png,bars/mask003.png,,,,,,,,,,,,3,2,,,,,,,2,4,1,3,,,,,,,,,,,1647.6276,1648.1286,1648.3778,1657.4654,space,9.0689,,1657.4654,79,4,1658.4657,1658.4657,1773.8373,space,115.334,,0,42,42,42,1,45,120,,,,,,,,
,,616a08ba588c5e11354585ce,65af557e2cf40634cd5d70a3,2024-01-23_07h59.47.803,bars,2023.2.3,MacIntel,59.88023952,657b66ea316d21385b68909f,,,,,,,,,,,1773.8489,1774.8382,,,1775.3389,1775.5893,,121,121,,,,,,,,,,,,,,,,bars/049.png,bars/mask000.png,,,,,,,,,,,,1,2,,,,,,,0,2,1,1,,,,,,,,,,,1774.8382,1775.3388,1775.5893,1778.2907,space,2.6861,,1778.2908,39,6,1779.2904,1779.2905,1786.7099,space,7.3967,,0,43,43,43,1,160,115,,,,,,,,
,,616a08ba588c5e11354585ce,65af557e2cf40634cd5d70a3,2024-01-23_07h59.47.803,bars,2023.2.3,MacIntel,59.88023952,657b66ea316d21385b68909f,,,,,,,,,,,1786.7217,1787.7108,,,1788.2114,1788.4607,,104,104,,,,,,,,,,,,,,,,bars/015.png,bars/mask000.png,,,,,,,,,,,,0,1,,,,,,,0,4,0,4,,,,,,,,,,,1787.7109,1788.2114,1788.4607,1790.3126,space,1.8348,,1790.3126,6,56,1791.3118,1791.3118,1808.7872,space,17.4497,,0,44,44,44,1,110,160,,,,,,,,
,,616a08ba588c5e11354585ce,65af557e2cf40634cd5d70a3,2024-01-23_07h59.47.803,bars,2023.2.3,MacIntel,59.88023952,657b66ea316d21385b68909f,,,,,,,,,,,1808.8001,1809.7887,,,1810.2893,1810.539,,56,56,,,,,,,,,,,,,,,,bars/014.png,bars/mask006.png,,,,,,,,,,,,0,1,,,,,,,0,6,0,9,,,,,,,,,,,1809.7888,1810.2893,1810.5391,1814.2241,space,3.6686,,1814.2241,24,56,1815.2249,1815.2249,1816.674,space,1.4248,,0,45,45,45,1,80,0,,,,,,,,
,,616a08ba588c5e11354585ce,65af557e2cf40634cd5d70a3,2024-01-23_07h59.47.803,bars,2023.2.3,MacIntel,59.88023952,657b66ea316d21385b68909f,,,,,,,,,,,1816.6743,1817.6764,,,1818.1758,1818.4251,,97,97,,,,,,,,,,,,,,,,bars/024.png,bars/mask004.png,,,,,,,,,,,,0,1,,,,,,,2,4,2,3,,,,,,,,,,,1817.6764,1818.1757,1818.4251,1820.1591,space,1.7129,,1820.1591,23,73,1821.1604,1821.1604,1823.1777,space,1.9921,,0,46,46,46,1,120,170,,,,,,,,
,,616a08ba588c5e11354585ce,65af557e2cf40634cd5d70a3,2024-01-23_07h59.47.803,bars,2023.2.3,MacIntel,59.88023952,657b66ea316d21385b68909f,,,,,,,,,,,1823.178,1824.1783,,,1824.6788,1824.9297,,57,57,,,,,,,,,,,,,,,,bars/047.png,bars/mask002.png,,,,,,,,,,,,1,2,,,,,,,0,2,1,2,,,,,,,,,,,1824.1783,1824.6788,1824.9298,1830.099,space,5.1544,,1830.099,42,13,1831.0994,1831.0994,2549.3069,space,718.1756,,0,47,47,47,1,15,70,,,,,,,,
,,616a08ba588c5e11354585ce,65af557e2cf40634cd5d70a3,2024-01-23_07h59.47.803,bars,2023.2.3,MacIntel,59.88023952,657b66ea316d21385b68909f,,,,,,,,,,,2549.317,2550.3061,,,2550.8072,2551.0558,,158,-22,,,,,,,,,,,,,,,,bars/000.png,bars/mask006.png,,,,,,,,,,,,3,2,,,,,,,0,4,2,5,,,,,,,,,,,2550.3062,2550.8071,2551.0558,2555.0091,space,3.9355,,2555.0092,62,13,2556.0083,2556.0083,2569.3594,space,13.3289,,0,48,48,48,1,40,145,,,,,,,,
,,616a08ba588c5e11354585ce,65af557e2cf40634cd5d70a3,2024-01-23_07h59.47.803,bars,2023.2.3,MacIntel,59.88023952,657b66ea316d21385b68909f,,,,,,,,,,,2569.377,2570.3667,,,2570.8656,2571.1167,,68,68,,,,,,,,,,,,,,,,bars/025.png,bars/mask008.png,,,,,,,,,,,,0,2,,,,,,,2,2,1,3,,,,,,,,,,,2570.3667,2570.8655,2571.1167,2573.7511,space,2.6138,,2573.7512,37,28,2574.751,2574.751,2577.0363,space,2.2622,,0,49,49,49,1,105,40,,,,,,,,
,,616a08ba588c5e11354585ce,65af557e2cf40634cd5d70a3,2024-01-23_07h59.47.803,bars,2023.2.3,MacIntel,59.88023952,657b66ea316d21385b68909f,,,,,,,,,,,,,,,,,,,,,,,,,,,,,,,,,,,,,,,,,,,,,,,,,,,,,,,,,,,,,,,,,,,,,,,,,,,,,,,,,,,,,,,,,,,,,2577.0376,2637.0307,0,0,0,4,1,sequence_tables/blk016.csv
,,616a08ba588c5e11354585ce,65af557e2cf40634cd5d70a3,2024-01-23_07h59.47.803,bars,2023.2.3,MacIntel,59.88023952,657b66ea316d21385b68909f,,,,,,,,,,,3144.2872,3145.2875,,,3145.7885,3146.0379,,26,206,,,,,,,,,,,,,,,,bars/013.png,bars/mask001.png,,,,,,,,,,,,0,2,,,,,,,10,2,10,0,,,,,,2637.0426,3144.2722,space,507.2197,,3145.2875,3145.7885,3146.0379,3152.5082,space,6.4542,,3152.5083,49,16,3153.5087,3153.5087,3153.522,,,,0,0,0,0,1,75,10,,,,,,,,
,,616a08ba588c5e11354585ce,65af557e2cf40634cd5d70a3,2024-01-23_07h59.47.803,bars,2023.2.3,MacIntel,59.88023952,657b66ea316d21385b68909f,,,,,,,,,,,3153.5223,3154.5261,,,3155.026,3155.2765,,122,122,,,,,,,,,,,,,,,,bars/028.png,bars/mask002.png,,,,,,,,,,,,1,2,,,,,,,10,0,10,1,,,,,,,,,,,3154.5262,3155.0259,3155.2765,3157.9284,space,2.6364,,3157.9285,77,2,3158.9279,3158.9279,3158.9393,,,,0,1,1,1,1,45,120,,,,,,,,
,,616a08ba588c5e11354585ce,65af557e2cf40634cd5d70a3,2024-01-23_07h59.47.803,bars,2023.2.3,MacIntel,59.88023952,657b66ea316d21385b68909f,,,,,,,,,,,3158.9395,3159.9285,,,3160.4286,3160.678,,73,73,,,,,,,,,,,,,,,,bars/010.png,bars/mask006.png,,,,,,,,,,,,0,2,,,,,,,8,2,8,0,,,,,,,,,,,3159.9286,3160.4285,3160.678,3164.1462,space,3.4505,,3164.1462,88,18,3165.1471,3165.1471,3165.1598,,,,0,2,2,2,1,165,55,,,,,,,,
,,616a08ba588c5e11354585ce,65af557e2cf40634cd5d70a3,2024-01-23_07h59.47.803,bars,2023.2.3,MacIntel,59.88023952,657b66ea316d21385b68909f,,,,,,,,,,,3165.16,3166.1486,,,3166.6483,3166.8975,,14,14,,,,,,,,,,,,,,,,bars/003.png,bars/mask003.png,,,,,,,,,,,,4,1,,,,,,,6,0,6,0,,,,,,,,,,,3166.1486,3166.6483,3166.8975,3174.002,space,7.0831,,3174.002,11,54,3175.0031,3175.0031,3175.0169,,,,0,3,3,3,1,25,140,,,,,,,,
,,616a08ba588c5e11354585ce,65af557e2cf40634cd5d70a3,2024-01-23_07h59.47.803,bars,2023.2.3,MacIntel,59.88023952,657b66ea316d21385b68909f,,,,,,,,,,,3175.0172,3176.0079,,,3176.5021,3176.7535,,139,139,,,,,,,,,,,,,,,,bars/040.png,bars/mask006.png,,,,,,,,,,,,8,1,,,,,,,8,0,8,0,,,,,,,,,,,3176.0079,3176.5021,3176.7535,3179.0718,space,2.3031,,3179.0719,1,46,3180.072,3180.0721,3180.0845,,,,0,4,4,4,1,140,5,,,,,,,,
,,616a08ba588c5e11354585ce,65af557e2cf40634cd5d70a3,2024-01-23_07h59.47.803,bars,2023.2.3,MacIntel,59.88023952,657b66ea316d21385b68909f,,,,,,,,,,,3180.0848,3181.0767,,,3181.5723,3181.8212,,147,147,,,,,,,,,,,,,,,,bars/049.png,bars/mask006.png,,,,,,,,,,,,4,1,,,,,,,6,2,7,3,,,,,,,,,,,3181.0767,3181.5722,3181.8212,3184.7561,space,2.9118,,3184.7562,13,32,3185.7563,3185.7564,3185.7692,,,,0,5,5,5,1,160,115,,,,,,,,
,,616a08ba588c5e11354585ce,65af557e2cf40634cd5d70a3,2024-01-23_07h59.47.803,bars,2023.2.3,MacIntel,59.88023952,657b66ea316d21385b68909f,,,,,,,,,,,3185.7694,3186.7575,,,3187.2584,3187.5072,,73,73,,,,,,,,,,,,,,,,bars/008.png,bars/mask002.png,,,,,,,,,,,,0,1,,,,,,,8,4,6,3,,,,,,,,,,,3186.7575,3187.2584,3187.5072,3192.9931,space,5.4656,,3192.9931,37,73,3193.9937,3193.9937,3194.0065,,,,0,6,6,6,1,110,0,,,,,,,,
,,616a08ba588c5e11354585ce,65af557e2cf40634cd5d70a3,2024-01-23_07h59.47.803,bars,2023.2.3,MacIntel,59.88023952,657b66ea316d21385b68909f,,,,,,,,,,,3194.0067,3194.995,,,3195.4955,3195.753,,175,-5,,,,,,,,,,,,,,,,bars/007.png,bars/mask008.png,,,,,,,,,,,,6,1,,,,,,,6,2,6,3,,,,,,,,,,,3194.995,3195.4954,3195.753,3205.8508,space,10.082,,3205.8509,0,60,3206.8508,3206.8509,3206.8634,,,,0,7,7,7,1,175,55,,,,,,,,
,,616a08ba588c5e11354585ce,65af557e2cf40634cd5d70a3,2024-01-23_07h59.47.803,bars,2023.2.3,MacIntel,59.88023952,657b66ea316d21385b68909f,,,,,,,,,,,3206.8636,3207.8511,,,3208.3515,3208.6015,,11,191,,,,,,,,,,,,,,,,bars/023.png,bars/mask004.png,,,,,,,,,,,,6,1,,,,,,,8,0,8,0,,,,,,,,,,,3207.8512,3208.3515,3208.6015,3216.2563,space,7.639,,3216.2563,9,76,3217.2556,3217.2556,3217.267,,,,0,8,8,8,1,20,115,,,,,,,,
,,616a08ba588c5e11354585ce,65af557e2cf40634cd5d70a3,2024-01-23_07h59.47.803,bars,2023.2.3,MacIntel,59.88023952,657b66ea316d21385b68909f,,,,,,,,,,,3217.2672,3218.2577,,,3218.7564,3219.0076,,89,89,,,,,,,,,,,,,,,,bars/022.png,bars/mask003.png,,,,,,,,,,,,6,1,,,,,,,6,0,7,0,,,,,,,,,,,3218.2577,3218.7564,3219.0076,3223.9079,space,4.8814,,3223.9079,6,69,3224.9086,3224.9087,3224.9205,,,,0,9,9,9,1,95,20,,,,,,,,
,,616a08ba588c5e11354585ce,65af557e2cf40634cd5d70a3,2024-01-23_07h59.47.803,bars,2023.2.3,MacIntel,59.88023952,657b66ea316d21385b68909f,,,,,,,,,,,3224.9206,3225.9093,,,3226.4097,3226.6592,,115,115,,,,,,,,,,,,,,,,bars/015.png,bars/mask004.png,,,,,,,,,,,,6,1,,,,,,,8,2,7,2,,,,,,,,,,,3225.9093,3226.4096,3226.6592,3234.7471,space,8.0713,,3234.7472,5,45,3235.7469,3235.7469,3235.7579,,,,0,10,10,10,1,110,160,,,,,,,,
,,616a08ba588c5e11354585ce,65af557e2cf40634cd5d70a3,2024-01-23_07h59.47.803,bars,2023.2.3,MacIntel,59.88023952,657b66ea316d21385b68909f,,,,,,,,,,,3235.758,3236.7482,,,3237.248,3237.4987,,166,-14,,,,,,,,,,,,,,,,bars/036.png,bars/mask008.png,,,,,,,,,,,,2,1,,,,,,,6,4,6,3,,,,,,,,,,,3236.7482,3237.2479,3237.4987,3243.7006,space,6.1887,,3243.7006,21,34,3244.7012,3244.7012,3244.7144,,,,0,11,11,11,1,145,20,,,,,,,,
,,616a08ba588c5e11354585ce,65af557e2cf40634cd5d70a3,2024-01-23_07h59.47.803,bars,2023.2.3,MacIntel,59.88023952,657b66ea316d21385b68909f,,,,,,,,,,,3244.7145,3245.7184,,,3246.2198,3246.4696,,158,158,,,,,,,,,,,,,,,,bars/021.png,bars/mask000.png,,,,,,,,,,,,4,1,,,,,,,4,2,4,0,,,,,,,,,,,3245.7184,3246.2198,3246.4696,3257.5581,space,11.0726,,3257.5581,3,88,3258.5567,3258.5567,3258.5713,,,,0,12,12,12,1,155,70,,,,,,,,
,,616a08ba588c5e11354585ce,65af557e2cf40634cd5d70a3,2024-01-23_07h59.47.803,bars,2023.2.3,MacIntel,59.88023952,657b66ea316d21385b68909f,,,,,,,,,,,3258.5716,3259.5766,,,3260.0757,3260.3273,,74,74,,,,,,,,,,,,,,,,bars/012.png,bars/mask000.png,,,,,,,,,,,,1,1,,,,,,,2,4,2,4,,,,,,,,,,,3259.5767,3260.0757,3260.3274,3263.6102,space,3.2679,,3263.6102,16,59,3264.6115,3264.6115,3264.6225,,,,0,13,13,13,1,90,15,,,,,,,,
,,616a08ba588c5e11354585ce,65af557e2cf40634cd5d70a3,2024-01-23_07h59.47.803,bars,2023.2.3,MacIntel,59.88023952,657b66ea316d21385b68909f,,,,,,,,,,,3264.6227,3265.6119,,,3266.1119,3266.3619,,164,164,,,,,,,,,,,,,,,,bars/049.png,bars/mask004.png,,,,,,,,,,,,0,1,,,,,,,0,2,0,0,,,,,,,,,,,3265.612,3266.1119,3266.3619,3277.1831,space,10.8024,,3277.1831,4,49,3278.1836,3278.1836,3278.1971,,,,0,14,14,14,1,160,115,,,,,,,,
,,616a08ba588c5e11354585ce,65af557e2cf40634cd5d70a3,2024-01-23_07h59.47.803,bars,2023.2.3,MacIntel,59.88023952,657b66ea316d21385b68909f,,,,,,,,,,,3278.1973,3279.1849,,,3279.6845,3279.9363,,86,86,,,,,,,,,,,,,,,,bars/031.png,bars/mask004.png,,,,,,,,,,,,0,1,,,,,,,0,4,0,3,,,,,,,,,,,3279.1849,3279.6844,3279.9364,3283.6864,space,3.7307,,3283.6865,34,51,3284.6869,3284.6869,3284.6995,,,,0,15,15,15,1,120,35,,,,,,,,
,,616a08ba588c5e11354585ce,65af557e2cf40634cd5d70a3,2024-01-23_07h59.47.803,bars,2023.2.3,MacIntel,59.88023952,657b66ea316d21385b68909f,,,,,,,,,,,3284.6997,3285.6876,,,3286.1884,3286.4276,,65,65,,,,,,,,,,,,,,,,bars/005.png,bars/mask002.png,,,,,,,,,,,,0,1,,,,,,,2,2,3,3,,,,,,,,,,,3285.6877,3286.1884,3286.4278,3291.3234,space,4.8739,,3291.3234,55,75,3292.3236,3292.3236,3292.3368,,,,0,16,16,16,1,10,140,,,,,,,,
,,616a08ba588c5e11354585ce,65af557e2cf40634cd5d70a3,2024-01-23_07h59.47.803,bars,2023.2.3,MacIntel,59.88023952,657b66ea316d21385b68909f,,,,,,,,,,,3292.337,3293.3246,,,3293.8256,3294.0748,,132,132,,,,,,,,,,,,,,,,bars/049.png,bars/mask006.png,,,,,,,,,,,,2,2,,,,,,,4,4,2,4,,,,,,,,,,,3293.3246,3293.8255,3294.0748,3300.3121,space,6.2206,,3300.3121,28,17,3301.3115,3301.3115,3301.3229,,,,0,17,17,17,1,160,115,,,,,,,,
,,616a08ba588c5e11354585ce,65af557e2cf40634cd5d70a3,2024-01-23_07h59.47.803,bars,2023.2.3,MacIntel,59.88023952,657b66ea316d21385b68909f,,,,,,,,,,,3301.3231,3302.3119,,,3302.8138,3303.0629,,167,-13,,,,,,,,,,,,,,,,bars/038.png,bars/mask000.png,,,,,,,,,,,,7,1,,,,,,,6,2,7,3,,,,,,,,,,,3302.3119,3302.8137,3303.0629,3308.065,space,4.9859,,3308.065,2,83,3309.0655,3309.0655,3309.0774,,,,0,18,18,18,1,165,70,,,,,,,,
,,616a08ba588c5e11354585ce,65af557e2cf40634cd5d70a3,2024-01-23_07h59.47.803,bars,2023.2.3,MacIntel,59.88023952,657b66ea316d21385b68909f,,,,,,,,,,,3309.0776,3310.066,,,3310.5669,3310.8165,,121,121,,,,,,,,,,,,,,,,bars/020.png,bars/mask002.png,,,,,,,,,,,,2,1,,,,,,,4,4,3,6,,,,,,,,,,,3310.066,3310.5669,3310.8165,3323.1885,space,12.3528,,3323.1885,6,49,3324.1887,3324.1887,3324.2004,,,,0,19,19,19,1,115,170,,,,,,,,
,,616a08ba588c5e11354585ce,65af557e2cf40634cd5d70a3,2024-01-23_07h59.47.803,bars,2023.2.3,MacIntel,59.88023952,657b66ea316d21385b68909f,,,,,,,,,,,3324.2005,3325.19,,,3325.6895,3325.9404,,117,117,,,,,,,,,,,,,,,,bars/025.png,bars/mask004.png,,,,,,,,,,,,4,1,,,,,,,6,2,6,2,,,,,,,,,,,3325.19,3325.6895,3325.9404,3330.4751,space,4.52,,3330.4751,12,77,3331.4756,3331.4756,3331.4887,,,,0,20,20,20,1,105,40,,,,,,,,
,,616a08ba588c5e11354585ce,65af557e2cf40634cd5d70a3,2024-01-23_07h59.47.803,bars,2023.2.3,MacIntel,59.88023952,657b66ea316d21385b68909f,,,,,,,,,,,3331.4889,3332.4769,,,3332.9774,3333.2264,,56,56,,,,,,,,,,,,,,,,bars/019.png,bars/mask009.png,,,,,,,,,,,,6,1,,,,,,,8,4,10,7,,,,,,,,,,,3332.4769,3332.9773,3333.2264,3340.4151,space,7.1662,,3340.4151,11,49,3341.4171,3341.4171,3341.4302,,,,0,21,21,21,1,45,105,,,,,,,,
,,616a08ba588c5e11354585ce,65af557e2cf40634cd5d70a3,2024-01-23_07h59.47.803,bars,2023.2.3,MacIntel,59.88023952,657b66ea316d21385b68909f,,,,,,,,,,,3341.4305,3342.4327,,,3342.9319,3343.1809,,116,116,,,,,,,,,,,,,,,,bars/040.png,bars/mask007.png,,,,,,,,,,,,2,1,,,,,,,10,6,10,6,,,,,,,,,,,3342.4327,3342.9319,3343.181,3352.8862,space,9.6847,,3352.8863,24,69,3353.8865,3353.8867,3353.8982,,,,0,22,22,22,1,140,5,,,,,,,,
,,616a08ba588c5e11354585ce,65af557e2cf40634cd5d70a3,2024-01-23_07h59.47.803,bars,2023.2.3,MacIntel,59.88023952,657b66ea316d21385b68909f,,,,,,,,,,,3353.8984,3354.8869,,,3355.3876,3355.6369,,166,166,,,,,,,,,,,,,,,,bars/000.png,bars/mask009.png,,,,,,,,,,,,1,2,,,,,,,8,4,8,3,,,,,,,,,,,3354.8869,3355.3876,3355.6369,3359.4931,space,3.8391,,3359.4934,54,21,3360.4896,3360.4896,3360.502,,,,0,23,23,23,1,40,145,,,,,,,,
,,616a08ba588c5e11354585ce,65af557e2cf40634cd5d70a3,2024-01-23_07h59.47.803,bars,2023.2.3,MacIntel,59.88023952,657b66ea316d21385b68909f,,,,,,,,,,,3360.5022,3361.4904,,,3361.9906,3362.2417,,160,160,,,,,,,,,,,,,,,,bars/043.png,bars/mask001.png,,,,,,,,,,,,0,2,,,,,,,6,6,6,8,,,,,,,,,,,3361.4904,3361.9905,3362.2419,3367.9434,space,5.6871,,3367.9435,50,30,3368.944,3368.944,3368.9562,,,,0,24,24,24,1,30,130,,,,,,,,
,,616a08ba588c5e11354585ce,65af557e2cf40634cd5d70a3,2024-01-23_07h59.47.803,bars,2023.2.3,MacIntel,59.88023952,657b66ea316d21385b68909f,,,,,,,,,,,3368.9565,3369.9444,,,3370.4449,3370.6941,,83,83,,,,,,,,,,,,,,,,bars/011.png,bars/mask005.png,,,,,,,,,,,,7,2,,,,,,,4,8,5,8,,,,,,,,,,,3369.9445,3370.4448,3370.6941,3374.3962,space,3.6858,,3374.3963,77,2,3375.397,3375.397,3375.4083,,,,0,25,25,25,1,160,85,,,,,,,,
,,616a08ba588c5e11354585ce,65af557e2cf40634cd5d70a3,2024-01-23_07h59.47.803,bars,2023.2.3,MacIntel,59.88023952,657b66ea316d21385b68909f,,,,,,,,,,,3375.4085,3376.3969,,,3376.8979,3377.1481,,8,188,,,,,,,,,,,,,,,,bars/048.png,bars/mask004.png,,,,,,,,,,,,6,2,,,,,,,6,10,6,10,,,,,,,,,,,3376.3969,3376.8979,3377.1481,3382.7499,space,5.5812,,3382.7499,42,13,3383.7505,3383.7505,3383.7632,,,,0,26,26,26,1,50,175,,,,,,,,
,,616a08ba588c5e11354585ce,65af557e2cf40634cd5d70a3,2024-01-23_07h59.47.803,bars,2023.2.3,MacIntel,59.88023952,657b66ea316d21385b68909f,,,,,,,,,,,3383.7634,3384.768,,,3385.269,3385.5176,,143,143,,,,,,,,,,,,,,,,bars/043.png,bars/mask002.png,,,,,,,,,,,,4,2,,,,,,,4,8,2,7,,,,,,,,,,,3384.768,3385.269,3385.5176,3391.4382,space,5.9037,,3391.4382,67,13,3392.4387,3392.4387,3392.4503,,,,0,27,27,27,1,30,130,,,,,,,,
,,616a08ba588c5e11354585ce,65af557e2cf40634cd5d70a3,2024-01-23_07h59.47.803,bars,2023.2.3,MacIntel,59.88023952,657b66ea316d21385b68909f,,,,,,,,,,,3392.4505,3393.4385,,,3393.94,3394.1885,,10,190,,,,,,,,,,,,,,,,bars/008.png,bars/mask008.png,,,,,,,,,,,,7,2,,,,,,,6,10,8,10,,,,,,,,,,,3393.4385,3393.94,3394.1886,3398.7252,space,4.5143,,3398.7253,80,10,3399.7252,3399.7252,3399.7364,,,,0,28,28,28,1,110,0,,,,,,,,
,,616a08ba588c5e11354585ce,65af557e2cf40634cd5d70a3,2024-01-23_07h59.47.803,bars,2023.2.3,MacIntel,59.88023952,657b66ea316d21385b68909f,,,,,,,,,,,3399.7366,3400.726,,,3401.2264,3401.4754,,170,-10,,,,,,,,,,,,,,,,bars/014.png,bars/mask002.png,,,,,,,,,,,,7,2,,,,,,,8,10,7,10,,,,,,,,,,,3400.726,3401.2264,3401.4755,3405.1448,space,3.6521,,3405.1448,90,10,3406.1453,3406.1453,3406.155,,,,0,29,29,29,1,80,0,,,,,,,,
,,616a08ba588c5e11354585ce,65af557e2cf40634cd5d70a3,2024-01-23_07h59.47.803,bars,2023.2.3,MacIntel,59.88023952,657b66ea316d21385b68909f,,,,,,,,,,,3406.1553,3407.1455,,,3407.6463,3407.8973,,134,134,,,,,,,,,,,,,,,,bars/049.png,bars/mask007.png,,,,,,,,,,,,4,2,,,,,,,6,10,6,10,,,,,,,,,,,3407.1456,3407.6462,3407.8974,3417.5007,space,9.5821,,3417.5007,26,19,3418.5007,3418.5007,3418.5122,,,,0,30,30,30,1,160,115,,,,,,,,
,,616a08ba588c5e11354585ce,65af557e2cf40634cd5d70a3,2024-01-23_07h59.47.803,bars,2023.2.3,MacIntel,59.88023952,657b66ea316d21385b68909f,,,,,,,,,,,3418.5124,3419.5011,,,3420.0013,3420.2521,,127,127,,,,,,,,,,,,,,,,bars/033.png,bars/mask009.png,,,,,,,,,,,,1,2,,,,,,,8,8,10,9,,,,,,,,,,,3419.5012,3420.0013,3420.2521,3429.8229,space,9.5557,,3429.8229,78,28,3430.823,3430.823,3430.8346,,,,0,31,31,31,1,25,155,,,,,,,,
,,616a08ba588c5e11354585ce,65af557e2cf40634cd5d70a3,2024-01-23_07h59.47.803,bars,2023.2.3,MacIntel,59.88023952,657b66ea316d21385b68909f,,,,,,,,,,,3430.8349,3431.8237,,,3432.3244,3432.5753,,5,5,,,,,,,,,,,,,,,,bars/048.png,bars/mask000.png,,,,,,,,,,,,4,2,,,,,,,10,6,10,6,,,,,,,,,,,3431.8237,3432.3243,3432.5755,3436.5086,space,3.9164,,3436.5086,45,10,3437.5096,3437.5096,3437.5212,,,,0,32,32,32,1,50,175,,,,,,,,
,,616a08ba588c5e11354585ce,65af557e2cf40634cd5d70a3,2024-01-23_07h59.47.803,bars,2023.2.3,MacIntel,59.88023952,657b66ea316d21385b68909f,,,,,,,,,,,3437.5214,3438.5105,,,3439.0106,3439.2599,,109,109,,,,,,,,,,,,,,,,bars/009.png,bars/mask000.png,,,,,,,,,,,,6,2,,,,,,,10,8,10,7,,,,,,,,,,,3438.5105,3439.0106,3439.2599,3445.8808,space,6.5992,,3445.8808,86,4,3446.8811,3446.8811,3446.8935,,,,0,33,33,33,1,15,105,,,,,,,,
,,616a08ba588c5e11354585ce,65af557e2cf40634cd5d70a3,2024-01-23_07h59.47.803,bars,2023.2.3,MacIntel,59.88023952,657b66ea316d21385b68909f,,,,,,,,,,,3446.8937,3447.8979,,,3448.3992,3448.6483,,22,22,,,,,,,,,,,,,,,,bars/007.png,bars/mask001.png,,,,,,,,,,,,1,1,,,,,,,8,6,7,6,,,,,,,,,,,3447.8979,3448.3991,3448.6483,3459.1704,space,10.5053,,3459.1705,27,33,3460.1703,3460.1704,3460.1828,,,,0,34,34,34,1,175,55,,,,,,,,
,,616a08ba588c5e11354585ce,65af557e2cf40634cd5d70a3,2024-01-23_07h59.47.803,bars,2023.2.3,MacIntel,59.88023952,657b66ea316d21385b68909f,,,,,,,,,,,3460.1829,3461.171,,,3461.6708,3461.9206,,123,123,,,,,,,,,,,,,,,,bars/017.png,bars/mask004.png,,,,,,,,,,,,3,1,,,,,,,10,4,10,5,,,,,,,,,,,3461.171,3461.6708,3461.9206,3464.6228,space,2.6857,,3464.6228,22,78,3465.6233,3465.6233,3465.6346,,,,0,35,35,35,1,145,45,,,,,,,,
,,616a08ba588c5e11354585ce,65af557e2cf40634cd5d70a3,2024-01-23_07h59.47.803,bars,2023.2.3,MacIntel,59.88023952,657b66ea316d21385b68909f,,,,,,,,,,,3465.635,3466.6229,,,3467.1243,3467.3738,,116,116,,,,,,,,,,,,,,,,bars/001.png,bars/mask004.png,,,,,,,,,,,,5,1,,,,,,,10,6,10,8,,,,,,,,,,,3466.6229,3467.1243,3467.3738,3470.9767,space,3.5931,,3470.9767,14,31,3471.9765,3471.9765,3471.9876,,,,0,36,36,36,1,130,85,,,,,,,,
,,616a08ba588c5e11354585ce,65af557e2cf40634cd5d70a3,2024-01-23_07h59.47.803,bars,2023.2.3,MacIntel,59.88023952,657b66ea316d21385b68909f,,,,,,,,,,,3471.9879,3472.9765,,,3473.4774,3473.7278,,103,103,,,,,,,,,,,,,,,,bars/002.png,bars/mask002.png,,,,,,,,,,,,1,2,,,,,,,10,4,10,3,,,,,,,,,,,3472.9765,3473.4774,3473.7278,3478.5445,space,4.7985,,3478.5445,27,18,3479.5459,3479.5459,3479.5599,,,,0,37,37,37,1,130,85,,,,,,,,
,,616a08ba588c5e11354585ce,65af557e2cf40634cd5d70a3,2024-01-23_07h59.47.803,bars,2023.2.3,MacIntel,59.88023952,657b66ea316d21385b68909f,,,,,,,,,,,3479.56,3480.5628,,,3481.064,3481.315,,88,88,,,,,,,,,,,,,,,,bars/038.png,bars/mask005.png,,,,,,,,,,,,1,2,,,,,,,8,2,7,3,,,,,,,,,,,3480.5629,3481.064,3481.3151,3487.4341,space,6.098,,3487.4341,77,18,3488.4335,3488.4335,3488.4467,,,,0,38,38,38,1,165,70,,,,,,,,
,,616a08ba588c5e11354585ce,65af557e2cf40634cd5d70a3,2024-01-23_07h59.47.803,bars,2023.2.3,MacIntel,59.88023952,657b66ea316d21385b68909f,,,,,,,,,,,3488.4469,3489.4503,,,3489.9507,3490.2018,,76,76,,,,,,,,,,,,,,,,bars/019.png,bars/mask006.png,,,,,,,,,,,,0,2,,,,,,,10,4,8,4,,,,,,,,,,,3489.4503,3489.9507,3490.2018,3497.8219,space,7.6101,,3497.822,31,29,3498.8223,3498.8223,3498.8366,,,,0,39,39,39,1,45,105,,,,,,,,
,,616a08ba588c5e11354585ce,65af557e2cf40634cd5d70a3,2024-01-23_07h59.47.803,bars,2023.2.3,MacIntel,59.88023952,657b66ea316d21385b68909f,,,,,,,,,,,3498.8368,3499.8393,,,3500.3402,3500.5892,,143,143,,,,,,,,,,,,,,,,bars/014.png,bars/mask007.png,,,,,,,,,,,,0,2,,,,,,,8,2,7,3,,,,,,,,,,,3499.8393,3500.3402,3500.5892,3505.7257,space,5.1198,,3505.7257,63,37,3506.7256,3506.7256,3506.7371,,,,0,40,40,40,1,80,0,,,,,,,,
,,616a08ba588c5e11354585ce,65af557e2cf40634cd5d70a3,2024-01-23_07h59.47.803,bars,2023.2.3,MacIntel,59.88023952,657b66ea316d21385b68909f,,,,,,,,,,,3506.7373,3507.7261,,,3508.2267,3508.4763,,72,72,,,,,,,,,,,,,,,,bars/029.png,bars/mask009.png,,,,,,,,,,,,2,1,,,,,,,6,4,6,4,,,,,,,,,,,3507.7261,3508.2267,3508.4765,3517.6865,space,9.193,,3517.6866,18,27,3518.6852,3518.6854,3518.7025,,,,0,41,41,41,1,90,45,,,,,,,,
,,616a08ba588c5e11354585ce,65af557e2cf40634cd5d70a3,2024-01-23_07h59.47.803,bars,2023.2.3,MacIntel,59.88023952,657b66ea316d21385b68909f,,,,,,,,,,,3518.703,3519.6979,,,3520.2001,3520.4485,,90,90,,,,,,,,,,,,,,,,bars/045.png,bars/mask007.png,,,,,,,,,,,,3,1,,,,,,,4,6,5,5,,,,,,,,,,,3519.6979,3520.2,3520.4485,3523.4346,space,2.9695,,3523.4347,10,80,3524.434,3524.434,3524.4453,,,,0,42,42,42,1,100,10,,,,,,,,
,,616a08ba588c5e11354585ce,65af557e2cf40634cd5d70a3,2024-01-23_07h59.47.803,bars,2023.2.3,MacIntel,59.88023952,657b66ea316d21385b68909f,,,,,,,,,,,3524.4454,3525.4346,,,3525.9352,3526.1841,,18,18,,,,,,,,,,,,,,,,bars/007.png,bars/mask004.png,,,,,,,,,,,,0,1,,,,,,,2,4,1,3,,,,,,,,,,,3525.4347,3525.9352,3526.1841,3533.5714,space,7.3669,,3533.5715,23,37,3534.5719,3534.5719,3534.5853,,,,0,43,43,43,1,175,55,,,,,,,,
,,616a08ba588c5e11354585ce,65af557e2cf40634cd5d70a3,2024-01-23_07h59.47.803,bars,2023.2.3,MacIntel,59.88023952,657b66ea316d21385b68909f,,,,,,,,,,,3534.5855,3535.5902,,,3536.0899,3536.3402,,10,190,,,,,,,,,,,,,,,,bars/048.png,bars/mask005.png,,,,,,,,,,,,4,2,,,,,,,0,6,0,7,,,,,,,,,,,3535.5902,3536.0899,3536.3403,3542.5601,space,6.2043,,3542.5602,40,15,3543.5599,3543.5599,3543.5724,,,,0,44,44,44,1,50,175,,,,,,,,
,,616a08ba588c5e11354585ce,65af557e2cf40634cd5d70a3,2024-01-23_07h59.47.803,bars,2023.2.3,MacIntel,59.88023952,657b66ea316d21385b68909f,,,,,,,,,,,3543.5727,3544.5608,,,3545.0611,3545.311,,173,173,,,,,,,,,,,,,,,,bars/032.png,bars/mask000.png,,,,,,,,,,,,1,2,,,,,,,0,8,0,9,,,,,,,,,,,3544.5608,3545.0611,3545.311,3553.0812,space,7.754,,3553.0812,48,27,3554.0819,3554.0819,3554.0934,,,,0,45,45,45,1,125,20,,,,,,,,
,,616a08ba588c5e11354585ce,65af557e2cf40634cd5d70a3,2024-01-23_07h59.47.803,bars,2023.2.3,MacIntel,59.88023952,657b66ea316d21385b68909f,,,,,,,,,,,3554.0935,3555.0819,,,3555.5832,3555.8318,,82,82,,,,,,,,,,,,,,,,bars/038.png,bars/mask001.png,,,,,,,,,,,,4,2,,,,,,,0,6,0,7,,,,,,,,,,,3555.0819,3555.5832,3555.8318,3560.7513,space,4.9028,,3560.7513,83,12,3561.7516,3561.7517,3561.7631,,,,0,46,46,46,1,165,70,,,,,,,,
,,616a08ba588c5e11354585ce,65af557e2cf40634cd5d70a3,2024-01-23_07h59.47.803,bars,2023.2.3,MacIntel,59.88023952,657b66ea316d21385b68909f,,,,,,,,,,,3561.7633,3562.7523,,,3563.2533,3563.5023,,70,70,,,,,,,,,,,,,,,,bars/035.png,bars/mask008.png,,,,,,,,,,,,5,2,,,,,,,2,8,3,7,,,,,,,,,,,3562.7524,3563.2532,3563.5023,3570.939,space,7.4198,,3570.939,75,10,3571.9395,3571.9395,3571.9528,,,,0,47,47,47,1,175,60,,,,,,,,
,,616a08ba588c5e11354585ce,65af557e2cf40634cd5d70a3,2024-01-23_07h59.47.803,bars,2023.2.3,MacIntel,59.88023952,657b66ea316d21385b68909f,,,,,,,,,,,3571.9529,3572.9584,,,3573.4573,3573.7069,,142,142,,,,,,,,,,,,,,,,bars/024.png,bars/mask003.png,,,,,,,,,,,,0,1,,,,,,,0,6,0,5,,,,,,,,,,,3572.9584,3573.4573,3573.707,3577.042,space,3.3137,,3577.042,22,28,3578.0433,3578.0433,3578.0567,,,,0,48,48,48,1,120,170,,,,,,,,
,,616a08ba588c5e11354585ce,65af557e2cf40634cd5d70a3,2024-01-23_07h59.47.803,bars,2023.2.3,MacIntel,59.88023952,657b66ea316d21385b68909f,,,,,,,,,,,3578.057,3579.0601,,,3579.561,3579.81,,123,123,,,,,,,,,,,,,,,,bars/023.png,bars/mask006.png,,,,,,,,,,,,5,2,,,,,,,0,8,1,7,,,,,,,,,,,3579.0601,3579.561,3579.81,3589.9148,space,10.084,,3589.9148,77,8,3590.917,3590.9171,3590.9304,,,,0,49,49,49,1,20,115,,,,,,,,
,,616a08ba588c5e11354585ce,65af557e2cf40634cd5d70a3,2024-01-23_07h59.47.803,bars,2023.2.3,MacIntel,59.88023952,657b66ea316d21385b68909f,,,,,,,,,,,,,,,,,,,,,,,,,,,,,,,,,,,,,,,,,,,,,,,,,,,,,,,,,,,,,,,,,,,,,,,,,,,,,,,,,,,,,,,,,,,,,3590.9305,3650.9276,0,1,1,1,1,sequence_tables/blk013.csv
,,616a08ba588c5e11354585ce,65af557e2cf40634cd5d70a3,2024-01-23_07h59.47.803,bars,2023.2.3,MacIntel,59.88023952,657b66ea316d21385b68909f,,,,,,,,,,,3681.9087,3682.8961,,,3683.3925,3683.6454,,58,58,,,,,,,,,,,,,,,,bars/047.png,bars/mask008.png,,,,,,,,,,,,4,2,,,,,,,1,6,1,7,,,,,,3650.9391,3681.8935,space,30.9446,,3682.8961,3683.3925,3683.6454,3687.6459,space,3.9904,,3687.6459,43,12,3688.6455,3688.6455,3688.657,,,,0,0,0,0,1,15,70,,,,,,,,
,,616a08ba588c5e11354585ce,65af557e2cf40634cd5d70a3,2024-01-23_07h59.47.803,bars,2023.2.3,MacIntel,59.88023952,657b66ea316d21385b68909f,,,,,,,,,,,3688.6573,3689.6461,,,3690.1462,3690.3976,,114,114,,,,,,,,,,,,,,,,bars/028.png,bars/mask009.png,,,,,,,,,,,,4,2,,,,,,,3,4,2,5,,,,,,,,,,,3689.6462,3690.1462,3690.3976,3694.7815,space,4.3691,,3694.7815,69,6,3695.7823,3695.7823,3695.7934,,,,0,1,1,1,1,45,120,,,,,,,,
,,616a08ba588c5e11354585ce,65af557e2cf40634cd5d70a3,2024-01-23_07h59.47.803,bars,2023.2.3,MacIntel,59.88023952,657b66ea316d21385b68909f,,,,,,,,,,,3695.7935,3696.7834,,,3697.2836,3697.5331,,104,104,,,,,,,,,,,,,,,,bars/031.png,bars/mask001.png,,,,,,,,,,,,1,1,,,,,,,1,6,2,5,,,,,,,,,,,3696.7834,3697.2836,3697.5331,3704.3038,space,6.7505,,3704.3039,16,69,3705.3035,3705.3035,3705.3159,,,,0,2,2,2,1,120,35,,,,,,,,
,,616a08ba588c5e11354585ce,65af557e2cf40634cd5d70a3,2024-01-23_07h59.47.803,bars,2023.2.3,MacIntel,59.88023952,657b66ea316d21385b68909f,,,,,,,,,,,3705.3162,3706.3204,,,3706.8208,3707.0702,,34,34,,,,,,,,,,,,,,,,bars/036.png,bars/mask004.png,,,,,,,,,,,,3,2,,,,,,,3,4,3,5,,,,,,,,,,,3706.3204,3706.8207,3707.0702,3711.6234,space,4.5366,,3711.6235,69,14,3712.6234,3712.6235,3712.6355,,,,0,3,3,3,1,145,20,,,,,,,,
,,616a08ba588c5e11354585ce,65af557e2cf40634cd5d70a3,2024-01-23_07h59.47.803,bars,2023.2.3,MacIntel,59.88023952,657b66ea316d21385b68909f,,,,,,,,,,,3712.6357,3713.6233,,,3714.1238,3714.3749,,75,75,,,,,,,,,,,,,,,,bars/029.png,bars/mask003.png,,,,,,,,,,,,1,1,,,,,,,1,6,1,6,,,,,,,,,,,3713.6233,3714.1238,3714.375,3721.3788,space,6.9939,,3721.3788,15,30,3722.3782,3722.3782,3722.3906,,,,0,4,4,4,1,90,45,,,,,,,,
,,616a08ba588c5e11354585ce,65af557e2cf40634cd5d70a3,2024-01-23_07h59.47.803,bars,2023.2.3,MacIntel,59.88023952,657b66ea316d21385b68909f,,,,,,,,,,,3722.3908,3723.379,,,3723.879,3724.1285,,97,97,,,,,,,,,,,,,,,,bars/021.png,bars/mask003.png,,,,,,,,,,,,0,2,,,,,,,3,4,4,4,,,,,,,,,,,3723.379,3723.879,3724.1286,3727.4638,space,3.3162,,3727.4639,58,27,3728.4646,3728.4646,3728.4766,,,,0,5,5,5,1,155,70,,,,,,,,
,,616a08ba588c5e11354585ce,65af557e2cf40634cd5d70a3,2024-01-23_07h59.47.803,bars,2023.2.3,MacIntel,59.88023952,657b66ea316d21385b68909f,,,,,,,,,,,3728.4768,3729.4648,,,3729.9653,3730.2152,,6,6,,,,,,,,,,,,,,,,bars/032.png,bars/mask005.png,,,,,,,,,,,,3,2,,,,,,,5,6,4,6,,,,,,,,,,,3729.4648,3729.9653,3730.2153,3733.767,space,3.5359,,3733.7671,61,14,3734.7674,3734.7675,3734.7788,,,,0,6,6,6,1,125,20,,,,,,,,
,,616a08ba588c5e11354585ce,65af557e2cf40634cd5d70a3,2024-01-23_07h59.47.803,bars,2023.2.3,MacIntel,59.88023952,657b66ea316d21385b68909f,,,,,,,,,,,3734.779,3735.7677,,,3736.2676,3736.5195,,37,37,,,,,,,,,,,,,,,,bars/010.png,bars/mask009.png,,,,,,,,,,,,2,2,,,,,,,7,4,9,4,,,,,,,,,,,3735.7678,3736.2676,3736.5196,3742.5537,space,6.0159,,3742.5537,52,18,3743.5543,3743.5547,3743.5683,,,,0,7,7,7,1,165,55,,,,,,,,
,,616a08ba588c5e11354585ce,65af557e2cf40634cd5d70a3,2024-01-23_07h59.47.803,bars,2023.2.3,MacIntel,59.88023952,657b66ea316d21385b68909f,,,,,,,,,,,3743.5684,3744.572,,,3745.0728,3745.3218,,47,47,,,,,,,,,,,,,,,,bars/017.png,bars/mask008.png,,,,,,,,,,,,7,2,,,,,,,9,6,9,7,,,,,,,,,,,3744.572,3745.0728,3745.3218,3749.1237,space,3.7813,,3749.1237,82,2,3750.1245,3750.1246,3750.1362,,,,0,8,8,8,1,145,45,,,,,,,,
,,616a08ba588c5e11354585ce,65af557e2cf40634cd5d70a3,2024-01-23_07h59.47.803,bars,2023.2.3,MacIntel,59.88023952,657b66ea316d21385b68909f,,,,,,,,,,,3750.1365,3751.1248,,,3751.6249,3751.8758,,95,95,,,,,,,,,,,,,,,,bars/030.png,bars/mask000.png,,,,,,,,,,,,0,2,,,,,,,10,4,10,5,,,,,,,,,,,3751.1248,3751.6249,3751.8758,3759.3142,space,7.421,,3759.3143,45,30,3760.3121,3760.3122,3760.3255,,,,0,9,9,9,1,140,65,,,,,,,,
,,616a08ba588c5e11354585ce,65af557e2cf40634cd5d70a3,2024-01-23_07h59.47.803,bars,2023.2.3,MacIntel,59.88023952,657b66ea316d21385b68909f,,,,,,,,,,,3760.3257,3761.3317,,,3761.831,3762.0796,,17,17,,,,,,,,,,,,,,,,bars/031.png,bars/mask002.png,,,,,,,,,,,,1,2,,,,,,,8,2,9,3,,,,,,,,,,,3761.3317,3761.831,3762.0796,3765.181,space,3.08,,3765.1811,77,18,3766.1819,3766.1819,3766.1932,,,,0,10,10,10,1,120,35,,,,,,,,
,,616a08ba588c5e11354585ce,65af557e2cf40634cd5d70a3,2024-01-23_07h59.47.803,bars,2023.2.3,MacIntel,59.88023952,657b66ea316d21385b68909f,,,,,,,,,,,3766.1935,3767.1839,,,3767.6834,3767.9328,,25,205,,,,,,,,,,,,,,,,bars/012.png,bars/mask007.png,,,,,,,,,,,,3,2,,,,,,,6,4,6,5,,,,,,,,,,,3767.1839,3767.6834,3767.9328,3778.7949,space,10.8454,,3778.795,65,10,3779.7931,3779.7933,3779.8093,,,,0,11,11,11,1,90,15,,,,,,,,
,,616a08ba588c5e11354585ce,65af557e2cf40634cd5d70a3,2024-01-23_07h59.47.803,bars,2023.2.3,MacIntel,59.88023952,657b66ea316d21385b68909f,,,,,,,,,,,3779.8097,3780.8065,,,3781.3062,3781.5555,,93,93,,,,,,,,,,,,,,,,bars/011.png,bars/mask000.png,,,,,,,,,,,,4,2,,,,,,,8,6,8,5,,,,,,,,,,,3780.8065,3781.3062,3781.5555,3788.6418,space,7.0665,,3788.6419,67,8,3789.6431,3789.6432,3789.6552,,,,0,12,12,12,1,160,85,,,,,,,,
,,616a08ba588c5e11354585ce,65af557e2cf40634cd5d70a3,2024-01-23_07h59.47.803,bars,2023.2.3,MacIntel,59.88023952,657b66ea316d21385b68909f,,,,,,,,,,,3789.6554,3790.6437,,,3791.1448,3791.3935,,104,104,,,,,,,,,,,,,,,,bars/002.png,bars/mask006.png,,,,,,,,,,,,1,2,,,,,,,6,4,5,4,,,,,,,,,,,3790.6437,3791.1447,3791.3936,3800.6653,space,9.2553,,3800.6654,26,19,3801.6658,3801.6658,3801.6771,,,,0,13,13,13,1,130,85,,,,,,,,
,,616a08ba588c5e11354585ce,65af557e2cf40634cd5d70a3,2024-01-23_07h59.47.803,bars,2023.2.3,MacIntel,59.88023952,657b66ea316d21385b68909f,,,,,,,,,,,3801.6774,3802.6663,,,3803.167,3803.417,,109,109,,,,,,,,,,,,,,,,bars/045.png,bars/mask004.png,,,,,,,,,,,,5,1,,,,,,,8,6,7,5,,,,,,,,,,,3802.6664,3803.1669,3803.417,3810.0857,space,6.6507,,3810.0857,9,81,3811.0864,3811.0864,3811.1005,,,,0,14,14,14,1,100,10,,,,,,,,
,,616a08ba588c5e11354585ce,65af557e2cf40634cd5d70a3,2024-01-23_07h59.47.803,bars,2023.2.3,MacIntel,59.88023952,657b66ea316d21385b68909f,,,,,,,,,,,3811.1008,3812.1048,,,3812.6044,3812.8548,,82,82,,,,,,,,,,,,,,,,bars/041.png,bars/mask008.png,,,,,,,,,,,,8,2,,,,,,,6,8,6,9,,,,,,,,,,,3812.1048,3812.6044,3812.8548,3820.5241,space,7.648,,3820.5241,62,3,3821.5251,3821.5251,3821.5379,,,,0,15,15,15,1,20,85,,,,,,,,
,,616a08ba588c5e11354585ce,65af557e2cf40634cd5d70a3,2024-01-23_07h59.47.803,bars,2023.2.3,MacIntel,59.88023952,657b66ea316d21385b68909f,,,,,,,,,,,3821.5381,3822.5414,,,3823.042,3823.2928,,78,78,,,,,,,,,,,,,,,,bars/038.png,bars/mask006.png,,,,,,,,,,,,7,2,,,,,,,8,10,9,10,,,,,,,,,,,3822.5415,3823.0419,3823.2928,3826.3602,space,3.0513,,3826.3602,87,8,3827.3613,3827.3613,3827.374,,,,0,16,16,16,1,165,70,,,,,,,,
,,616a08ba588c5e11354585ce,65af557e2cf40634cd5d70a3,2024-01-23_07h59.47.803,bars,2023.2.3,MacIntel,59.88023952,657b66ea316d21385b68909f,,,,,,,,,,,3827.3741,3828.3786,,,3828.8796,3829.1283,,123,123,,,,,,,,,,,,,,,,bars/012.png,bars/mask001.png,,,,,,,,,,,,0,1,,,,,,,6,10,5,8,,,,,,,,,,,3828.3786,3828.8795,3829.1283,3833.6654,space,4.52,,3833.6654,33,72,3834.6645,3834.6645,3834.6764,,,,0,17,17,17,1,90,15,,,,,,,,
,,616a08ba588c5e11354585ce,65af557e2cf40634cd5d70a3,2024-01-23_07h59.47.803,bars,2023.2.3,MacIntel,59.88023952,657b66ea316d21385b68909f,,,,,,,,,,,3834.6766,3835.6652,,,3836.166,3836.4167,,135,135,,,,,,,,,,,,,,,,bars/015.png,bars/mask009.png,,,,,,,,,,,,2,2,,,,,,,4,10,4,10,,,,,,,,,,,3835.6652,3836.1659,3836.4167,3844.8531,space,8.4216,,3844.8532,25,25,3845.8546,3845.8546,3845.8662,,,,0,18,18,18,1,110,160,,,,,,,,
,,616a08ba588c5e11354585ce,65af557e2cf40634cd5d70a3,2024-01-23_07h59.47.803,bars,2023.2.3,MacIntel,59.88023952,657b66ea316d21385b68909f,,,,,,,,,,,3845.8663,3846.854,,,3847.3543,3847.6038,,106,106,,,,,,,,,,,,,,,,bars/004.png,bars/mask007.png,,,,,,,,,,,,3,2,,,,,,,6,8,6,8,,,,,,,,,,,3846.854,3847.3543,3847.6039,3850.6718,space,3.0472,,3850.6718,81,19,3851.6737,3851.6738,3851.6859,,,,0,19,19,19,1,25,125,,,,,,,,
,,616a08ba588c5e11354585ce,65af557e2cf40634cd5d70a3,2024-01-23_07h59.47.803,bars,2023.2.3,MacIntel,59.88023952,657b66ea316d21385b68909f,,,,,,,,,,,3851.6861,3852.6891,,,3853.1916,3853.4408,,44,44,,,,,,,,,,,,,,,,bars/032.png,bars/mask002.png,,,,,,,,,,,,1,2,,,,,,,4,6,4,6,,,,,,,,,,,3852.6892,3853.1915,3853.4408,3859.0271,space,5.5707,,3859.0271,81,24,3860.0277,3860.0277,3860.04,,,,0,20,20,20,1,125,20,,,,,,,,
,,616a08ba588c5e11354585ce,65af557e2cf40634cd5d70a3,2024-01-23_07h59.47.803,bars,2023.2.3,MacIntel,59.88023952,657b66ea316d21385b68909f,,,,,,,,,,,3860.0401,3861.0433,,,3861.5438,3861.7941,,2,182,,,,,,,,,,,,,,,,bars/045.png,bars/mask009.png,,,,,,,,,,,,6,2,,,,,,,2,8,3,8,,,,,,,,,,,3861.0433,3861.5437,3861.7941,3864.3626,space,2.5581,,3864.3626,82,8,3865.3628,3865.3628,3865.3738,,,,0,21,21,21,1,100,10,,,,,,,,
,,616a08ba588c5e11354585ce,65af557e2cf40634cd5d70a3,2024-01-23_07h59.47.803,bars,2023.2.3,MacIntel,59.88023952,657b66ea316d21385b68909f,,,,,,,,,,,3865.3742,3866.3623,,,3866.8638,3867.1127,,81,81,,,,,,,,,,,,,,,,bars/007.png,bars/mask000.png,,,,,,,,,,,,1,2,,,,,,,4,6,5,8,,,,,,,,,,,3866.3623,3866.8638,3867.1127,3870.2995,space,3.1689,,3870.2996,86,26,3871.2987,3871.2988,3871.3101,,,,0,22,22,22,1,175,55,,,,,,,,
,,616a08ba588c5e11354585ce,65af557e2cf40634cd5d70a3,2024-01-23_07h59.47.803,bars,2023.2.3,MacIntel,59.88023952,657b66ea316d21385b68909f,,,,,,,,,,,3871.3104,3872.3003,,,3872.8003,3873.0495,,116,116,,,,,,,,,,,,,,,,bars/023.png,bars/mask001.png,,,,,,,,,,,,9,2,,,,,,,6,8,4,9,,,,,,,,,,,3872.3003,3872.8003,3873.0495,3883.0377,space,9.973,,3883.0377,84,1,3884.0385,3884.0385,3884.0499,,,,0,23,23,23,1,20,115,,,,,,,,
,,616a08ba588c5e11354585ce,65af557e2cf40634cd5d70a3,2024-01-23_07h59.47.803,bars,2023.2.3,MacIntel,59.88023952,657b66ea316d21385b68909f,,,,,,,,,,,3884.0501,3885.038,,,3885.5396,3885.7892,,22,22,,,,,,,,,,,,,,,,bars/025.png,bars/mask001.png,,,,,,,,,,,,3,2,,,,,,,8,6,8,8,,,,,,,,,,,3885.038,3885.5396,3885.7892,3890.4084,space,4.603,,3890.4084,83,18,3891.4088,3891.4089,3891.4184,,,,0,24,24,24,1,105,40,,,,,,,,
,,616a08ba588c5e11354585ce,65af557e2cf40634cd5d70a3,2024-01-23_07h59.47.803,bars,2023.2.3,MacIntel,59.88023952,657b66ea316d21385b68909f,,,,,,,,,,,3891.4185,3892.4103,,,3892.9091,3893.1589,,4,4,,,,,,,,,,,,,,,,bars/035.png,bars/mask000.png,,,,,,,,,,,,5,1,,,,,,,6,8,7,8,,,,,,,,,,,3892.4103,3892.9091,3893.1589,3899.6132,space,6.4385,,3899.6132,9,56,3900.6136,3900.6136,3900.6243,,,,0,25,25,25,1,175,60,,,,,,,,
,,616a08ba588c5e11354585ce,65af557e2cf40634cd5d70a3,2024-01-23_07h59.47.803,bars,2023.2.3,MacIntel,59.88023952,657b66ea316d21385b68909f,,,,,,,,,,,3900.6245,3901.6136,,,3902.1138,3902.3645,,130,130,,,,,,,,,,,,,,,,bars/012.png,bars/mask001.png,,,,,,,,,,,,0,1,,,,,,,4,6,5,5,,,,,,,,,,,3901.6136,3902.1138,3902.3645,3906.6148,space,4.2316,,3906.6149,40,65,3907.6036,3907.6036,3907.6148,,,,0,26,26,26,1,90,15,,,,,,,,
,,616a08ba588c5e11354585ce,65af557e2cf40634cd5d70a3,2024-01-23_07h59.47.803,bars,2023.2.3,MacIntel,59.88023952,657b66ea316d21385b68909f,,,,,,,,,,,3907.6155,3908.6051,,,3909.1062,3909.3534,,41,41,,,,,,,,,,,,,,,,bars/017.png,bars/mask007.png,,,,,,,,,,,,3,2,,,,,,,6,4,6,3,,,,,,,,,,,3908.6053,3909.1061,3909.3535,3913.7763,space,4.4053,,3913.7764,76,4,3914.7738,3914.7738,3914.7868,,,,0,27,27,27,1,145,45,,,,,,,,
,,616a08ba588c5e11354585ce,65af557e2cf40634cd5d70a3,2024-01-23_07h59.47.803,bars,2023.2.3,MacIntel,59.88023952,657b66ea316d21385b68909f,,,,,,,,,,,3914.7876,3915.7913,,,3916.2915,3916.5417,,75,75,,,,,,,,,,,,,,,,bars/001.png,bars/mask005.png,,,,,,,,,,,,1,2,,,,,,,8,2,6,2,,,,,,,,,,,3915.7914,3916.2915,3916.5418,3921.4402,space,4.8832,,3921.4402,55,10,3922.4394,3922.4394,3922.451,,,,0,28,28,28,1,130,85,,,,,,,,
,,616a08ba588c5e11354585ce,65af557e2cf40634cd5d70a3,2024-01-23_07h59.47.803,bars,2023.2.3,MacIntel,59.88023952,657b66ea316d21385b68909f,,,,,,,,,,,3922.4512,3923.4395,,,3923.9406,3924.1907,,118,118,,,,,,,,,,,,,,,,bars/015.png,bars/mask004.png,,,,,,,,,,,,5,1,,,,,,,6,0,7,0,,,,,,,,,,,3923.4396,3923.9405,3924.1907,3928.1083,space,3.8976,,3928.1083,8,42,3929.1089,3929.1089,3929.1226,,,,0,29,29,29,1,110,160,,,,,,,,
,,616a08ba588c5e11354585ce,65af557e2cf40634cd5d70a3,2024-01-23_07h59.47.803,bars,2023.2.3,MacIntel,59.88023952,657b66ea316d21385b68909f,,,,,,,,,,,3929.1227,3930.1276,,,3930.628,3930.8763,,123,123,,,,,,,,,,,,,,,,bars/004.png,bars/mask009.png,,,,,,,,,,,,0,2,,,,,,,8,0,9,0,,,,,,,,,,,3930.1276,3930.628,3930.8763,3937.9798,space,7.0821,,3937.9798,82,2,3938.9808,3938.9808,3938.9946,,,,0,30,30,30,1,25,125,,,,,,,,
,,616a08ba588c5e11354585ce,65af557e2cf40634cd5d70a3,2024-01-23_07h59.47.803,bars,2023.2.3,MacIntel,59.88023952,657b66ea316d21385b68909f,,,,,,,,,,,3938.9947,3939.9974,,,3940.4987,3940.7474,,168,168,,,,,,,,,,,,,,,,bars/043.png,bars/mask003.png,,,,,,,,,,,,0,2,,,,,,,10,0,10,2,,,,,,,,,,,3939.9974,3940.4987,3940.7474,3944.0001,space,3.2358,,3944.0001,42,38,3945.0006,3945.0006,3945.012,,,,0,31,31,31,1,30,130,,,,,,,,
,,616a08ba588c5e11354585ce,65af557e2cf40634cd5d70a3,2024-01-23_07h59.47.803,bars,2023.2.3,MacIntel,59.88023952,657b66ea316d21385b68909f,,,,,,,,,,,3945.0121,3946.0006,,,3946.5011,3946.7508,,57,57,,,,,,,,,,,,,,,,bars/044.png,bars/mask002.png,,,,,,,,,,,,4,1,,,,,,,10,0,9,0,,,,,,,,,,,3946.0007,3946.5011,3946.7508,3960.9252,space,14.1582,,3960.9253,18,82,3961.925,3961.925,3961.9376,,,,0,32,32,32,1,75,155,,,,,,,,
,,616a08ba588c5e11354585ce,65af557e2cf40634cd5d70a3,2024-01-23_07h59.47.803,bars,2023.2.3,MacIntel,59.88023952,657b66ea316d21385b68909f,,,,,,,,,,,3961.9379,3962.9258,,,3963.4266,3963.6785,,128,128,,,,,,,,,,,,,,,,bars/020.png,bars/mask000.png,,,,,,,,,,,,6,1,,,,,,,10,0,10,1,,,,,,,,,,,3962.9259,3963.4266,3963.6785,3967.0124,space,3.3131,,3967.0125,13,42,3968.0107,3968.0107,3968.0237,,,,0,33,33,33,1,115,170,,,,,,,,
,,616a08ba588c5e11354585ce,65af557e2cf40634cd5d70a3,2024-01-23_07h59.47.803,bars,2023.2.3,MacIntel,59.88023952,657b66ea316d21385b68909f,,,,,,,,,,,3968.0238,3969.0116,,,3969.5129,3969.7625,,112,112,,,,,,,,,,,,,,,,bars/000.png,bars/mask005.png,,,,,,,,,,,,0,2,,,,,,,8,2,9,2,,,,,,,,,,,3969.0116,3969.5129,3969.7626,3979.834,space,10.0554,,3979.834,72,33,3980.8332,3980.8332,3980.8356,,,,0,34,34,34,1,40,145,,,,,,,,
,,616a08ba588c5e11354585ce,65af557e2cf40634cd5d70a3,2024-01-23_07h59.47.803,bars,2023.2.3,MacIntel,59.88023952,657b66ea316d21385b68909f,,,,,,,,,,,3980.836,3981.8344,,,3982.3347,3982.5839,,42,42,,,,,,,,,,,,,,,,bars/045.png,bars/mask002.png,,,,,,,,,,,,0,2,,,,,,,10,4,10,5,,,,,,,,,,,3981.8344,3982.3347,3982.584,3988.972,space,6.3681,,3988.9721,58,32,3989.9709,3989.971,3989.9846,,,,0,35,35,35,1,100,10,,,,,,,,
,,616a08ba588c5e11354585ce,65af557e2cf40634cd5d70a3,2024-01-23_07h59.47.803,bars,2023.2.3,MacIntel,59.88023952,657b66ea316d21385b68909f,,,,,,,,,,,3989.9846,3990.9887,,,3991.4886,3991.7395,,97,97,,,,,,,,,,,,,,,,bars/011.png,bars/mask004.png,,,,,,,,,,,,3,2,,,,,,,8,6,7,5,,,,,,,,,,,3990.9887,3991.4885,3991.7395,3993.3392,space,1.5883,,3993.3392,63,12,3994.3426,3994.3427,3994.3546,,,,0,36,36,36,1,160,85,,,,,,,,
,,616a08ba588c5e11354585ce,65af557e2cf40634cd5d70a3,2024-01-23_07h59.47.803,bars,2023.2.3,MacIntel,59.88023952,657b66ea316d21385b68909f,,,,,,,,,,,3994.3548,3995.3441,,,3995.8466,3996.0972,,102,102,,,,,,,,,,,,,,,,bars/034.png,bars/mask006.png,,,,,,,,,,,,2,1,,,,,,,6,8,7,9,,,,,,,,,,,3995.3441,3995.8465,3996.0972,4002.7173,space,6.6053,,4002.7174,23,37,4003.7157,4003.7159,4003.7328,,,,0,37,37,37,1,125,65,,,,,,,,
,,616a08ba588c5e11354585ce,65af557e2cf40634cd5d70a3,2024-01-23_07h59.47.803,bars,2023.2.3,MacIntel,59.88023952,657b66ea316d21385b68909f,,,,,,,,,,,4003.7335,4004.7286,,,4005.2298,4005.4781,,18,198,,,,,,,,,,,,,,,,bars/025.png,bars/mask000.png,,,,,,,,,,,,2,2,,,,,,,8,6,8,7,,,,,,,,,,,4004.7286,4005.2298,4005.4781,4013.0164,space,7.5158,,4013.0164,87,22,4014.0179,4014.0179,4014.0315,,,,0,38,38,38,1,105,40,,,,,,,,
,,616a08ba588c5e11354585ce,65af557e2cf40634cd5d70a3,2024-01-23_07h59.47.803,bars,2023.2.3,MacIntel,59.88023952,657b66ea316d21385b68909f,,,,,,,,,,,4014.0316,4015.0326,,,4015.5332,4015.7848,,0,180,,,,,,,,,,,,,,,,bars/012.png,bars/mask005.png,,,,,,,,,,,,2,2,,,,,,,10,4,9,3,,,,,,,,,,,4015.0326,4015.5332,4015.7848,4018.6846,space,2.8845,,4018.6847,90,15,4019.6864,4019.6864,4019.6972,,,,0,39,39,39,1,90,15,,,,,,,,
,,616a08ba588c5e11354585ce,65af557e2cf40634cd5d70a3,2024-01-23_07h59.47.803,bars,2023.2.3,MacIntel,59.88023952,657b66ea316d21385b68909f,,,,,,,,,,,4019.6973,4020.687,,,4021.1872,4021.4362,,90,90,,,,,,,,,,,,,,,,bars/038.png,bars/mask002.png,,,,,,,,,,,,1,2,,,,,,,10,2,10,3,,,,,,,,,,,4020.687,4021.1871,4021.4362,4023.9881,space,2.535,,4023.9881,75,20,4024.9879,4024.988,4024.9978,,,,0,40,40,40,1,165,70,,,,,,,,
,,616a08ba588c5e11354585ce,65af557e2cf40634cd5d70a3,2024-01-23_07h59.47.803,bars,2023.2.3,MacIntel,59.88023952,657b66ea316d21385b68909f,,,,,,,,,,,4024.998,4025.9894,,,4026.49,4026.739,,125,125,,,,,,,,,,,,,,,,bars/028.png,bars/mask003.png,,,,,,,,,,,,0,2,,,,,,,10,0,10,0,,,,,,,,,,,4025.9894,4026.49,4026.739,4031.6733,space,4.9235,,4031.6733,80,5,4032.6748,4032.6748,4032.6848,,,,0,41,41,41,1,45,120,,,,,,,,
,,616a08ba588c5e11354585ce,65af557e2cf40634cd5d70a3,2024-01-23_07h59.47.803,bars,2023.2.3,MacIntel,59.88023952,657b66ea316d21385b68909f,,,,,,,,,,,4032.685,4033.6757,,,4034.1763,4034.426,,172,-8,,,,,,,,,,,,,,,,bars/014.png,bars/mask004.png,,,,,,,,,,,,1,2,,,,,,,10,2,10,2,,,,,,,,,,,4033.6758,4034.1762,4034.426,4038.629,space,4.1862,,4038.629,88,8,4039.6285,4039.6285,4039.6414,,,,0,42,42,42,1,80,0,,,,,,,,
,,616a08ba588c5e11354585ce,65af557e2cf40634cd5d70a3,2024-01-23_07h59.47.803,bars,2023.2.3,MacIntel,59.88023952,657b66ea316d21385b68909f,,,,,,,,,,,4039.6416,4040.6459,,,4041.1465,4041.396,,19,19,,,,,,,,,,,,,,,,bars/017.png,bars/mask008.png,,,,,,,,,,,,0,2,,,,,,,8,0,8,0,,,,,,,,,,,4040.6459,4041.1465,4041.396,4043.9807,space,2.5636,,4043.9808,54,26,4044.9806,4044.9806,4044.9939,,,,0,43,43,43,1,145,45,,,,,,,,
,,616a08ba588c5e11354585ce,65af557e2cf40634cd5d70a3,2024-01-23_07h59.47.803,bars,2023.2.3,MacIntel,59.88023952,657b66ea316d21385b68909f,,,,,,,,,,,4044.994,4045.9815,,,4046.4821,4046.732,,39,39,,,,,,,,,,,,,,,,bars/031.png,bars/mask008.png,,,,,,,,,,,,0,2,,,,,,,6,0,6,0,,,,,,,,,,,4045.9815,4046.482,4046.732,4049.8182,space,3.0708,,4049.8182,81,4,4050.8165,4050.8165,4050.8296,,,,0,44,44,44,1,120,35,,,,,,,,
,,616a08ba588c5e11354585ce,65af557e2cf40634cd5d70a3,2024-01-23_07h59.47.803,bars,2023.2.3,MacIntel,59.88023952,657b66ea316d21385b68909f,,,,,,,,,,,4050.8298,4051.822,,,4052.3184,4052.5673,,174,-6,,,,,,,,,,,,,,,,bars/032.png,bars/mask001.png,,,,,,,,,,,,0,2,,,,,,,4,0,4,0,,,,,,,,,,,4051.822,4052.3184,4052.5674,4055.9871,space,3.4023,,4055.9872,49,26,4056.9866,4056.9866,4056.998,,,,0,45,45,45,1,125,20,,,,,,,,
,,616a08ba588c5e11354585ce,65af557e2cf40634cd5d70a3,2024-01-23_07h59.47.803,bars,2023.2.3,MacIntel,59.88023952,657b66ea316d21385b68909f,,,,,,,,,,,4056.9982,4057.987,,,4058.4879,4058.7369,,11,11,,,,,,,,,,,,,,,,bars/040.png,bars/mask000.png,,,,,,,,,,,,2,2,,,,,,,6,2,4,2,,,,,,,,,,,4057.987,4058.4879,4058.737,4062.1578,space,3.4039,,4062.1578,51,6,4063.1563,4063.1563,4063.1683,,,,0,46,46,46,1,140,5,,,,,,,,
,,616a08ba588c5e11354585ce,65af557e2cf40634cd5d70a3,2024-01-23_07h59.47.803,bars,2023.2.3,MacIntel,59.88023952,657b66ea316d21385b68909f,,,,,,,,,,,4063.1685,4064.1565,,,4064.6577,4064.9077,,78,78,,,,,,,,,,,,,,,,bars/027.png,bars/mask008.png,,,,,,,,,,,,0,2,,,,,,,4,4,4,4,,,,,,,,,,,4064.1565,4064.6577,4064.9077,4069.593,space,4.6692,,4069.593,32,28,4070.5927,4070.5927,4070.6061,,,,0,47,47,47,1,110,50,,,,,,,,
,,616a08ba588c5e11354585ce,65af557e2cf40634cd5d70a3,2024-01-23_07h59.47.803,bars,2023.2.3,MacIntel,59.88023952,657b66ea316d21385b68909f,,,,,,,,,,,4070.6062,4071.6097,,,4072.11,4072.3604,,136,136,,,,,,,,,,,,,,,,bars/031.png,bars/mask001.png,,,,,,,,,,,,3,1,,,,,,,6,6,7,5,,,,,,,,,,,4071.6097,4072.11,4072.3604,4075.4791,space,3.1085,,4075.4791,16,79,4076.4795,4076.4795,4076.492,,,,0,48,48,48,1,120,35,,,,,,,,
,,616a08ba588c5e11354585ce,65af557e2cf40634cd5d70a3,2024-01-23_07h59.47.803,bars,2023.2.3,MacIntel,59.88023952,657b66ea316d21385b68909f,,,,,,,,,,,4076.4922,4077.4957,,,4077.997,4078.2463,,159,159,,,,,,,,,,,,,,,,bars/016.png,bars/mask000.png,,,,,,,,,,,,6,2,,,,,,,8,8,9,8,,,,,,,,,,,4077.4957,4077.997,4078.2463,4087.4847,space,9.2217,,4087.4847,61,6,4088.4845,4088.4845,4088.4959,,,,0,49,49,49,1,40,165,,,,,,,,
,,616a08ba588c5e11354585ce,65af557e2cf40634cd5d70a3,2024-01-23_07h59.47.803,bars,2023.2.3,MacIntel,59.88023952,657b66ea316d21385b68909f,,,,,,,,,,,,,,,,,,,,,,,,,,,,,,,,,,,,,,,,,,,,,,,,,,,,,,,,,,,,,,,,,,,,,,,,,,,,,,,,,,,,,,,,,,,,,4088.496,4148.4967,0,2,2,2,1,sequence_tables/blk034.csv
,,616a08ba588c5e11354585ce,65af557e2cf40634cd5d70a3,2024-01-23_07h59.47.803,bars,2023.2.3,MacIntel,59.88023952,657b66ea316d21385b68909f,,,,,,,,,,,4349.6221,4350.6087,,,4351.11,4351.3595,,80,80,,,,,,,,,,,,,,,,bars/021.png,bars/mask007.png,,,,,,,,,,,,0,2,,,,,,,6,1,6,0,,,,,,4148.508,4349.6086,space,201.0913,,4350.6088,4351.11,4351.3596,4356.1288,space,4.7589,,4356.1289,75,10,4357.129,4357.1291,4357.1407,,,,0,0,0,0,1,155,70,,,,,,,,
,,616a08ba588c5e11354585ce,65af557e2cf40634cd5d70a3,2024-01-23_07h59.47.803,bars,2023.2.3,MacIntel,59.88023952,657b66ea316d21385b68909f,,,,,,,,,,,4357.1409,4358.1295,,,4358.6304,4358.8794,,57,57,,,,,,,,,,,,,,,,bars/010.png,bars/mask006.png,,,,,,,,,,,,3,2,,,,,,,8,3,8,3,,,,,,,,,,,4358.1295,4358.6304,4358.8794,4365.5829,space,6.6866,,4365.583,72,2,4366.5836,4366.5837,4366.595,,,,0,1,1,1,1,165,55,,,,,,,,
,,616a08ba588c5e11354585ce,65af557e2cf40634cd5d70a3,2024-01-23_07h59.47.803,bars,2023.2.3,MacIntel,59.88023952,657b66ea316d21385b68909f,,,,,,,,,,,4366.5952,4367.5833,,,4368.0845,4368.3342,,119,119,,,,,,,,,,,,,,,,bars/018.png,bars/mask005.png,,,,,,,,,,,,0,2,,,,,,,10,5,10,6,,,,,,,,,,,4367.5834,4368.0845,4368.3342,4373.1198,space,4.7693,,4373.1198,31,29,4374.1209,4374.1209,4374.1333,,,,0,2,2,2,1,150,90,,,,,,,,
,,616a08ba588c5e11354585ce,65af557e2cf40634cd5d70a3,2024-01-23_07h59.47.803,bars,2023.2.3,MacIntel,59.88023952,657b66ea316d21385b68909f,,,,,,,,,,,4374.1335,4375.1252,,,4375.626,4375.8751,,74,74,,,,,,,,,,,,,,,,bars/006.png,bars/mask006.png,,,,,,,,,,,,0,2,,,,,,,10,3,9,2,,,,,,,,,,,4375.1252,4375.6259,4375.8752,4379.2122,space,3.3202,,4379.2123,39,26,4380.2096,4380.2096,4380.2234,,,,0,3,3,3,1,35,100,,,,,,,,
,,616a08ba588c5e11354585ce,65af557e2cf40634cd5d70a3,2024-01-23_07h59.47.803,bars,2023.2.3,MacIntel,59.88023952,657b66ea316d21385b68909f,,,,,,,,,,,4380.2236,4381.2239,,,4381.7244,4381.9743,,58,58,,,,,,,,,,,,,,,,bars/029.png,bars/mask002.png,,,,,,,,,,,,1,2,,,,,,,8,1,7,1,,,,,,,,,,,4381.2239,4381.7244,4381.9743,4386.9258,space,4.9332,,4386.9258,32,13,4387.9264,4387.9264,4387.9396,,,,0,4,4,4,1,90,45,,,,,,,,
,,616a08ba588c5e11354585ce,65af557e2cf40634cd5d70a3,2024-01-23_07h59.47.803,bars,2023.2.3,MacIntel,59.88023952,657b66ea316d21385b68909f,,,,,,,,,,,4387.9398,4388.9274,,,4389.428,4389.6772,,157,157,,,,,,,,,,,,,,,,bars/024.png,bars/mask006.png,,,,,,,,,,,,0,2,,,,,,,6,0,6,0,,,,,,,,,,,4388.9275,4389.4279,4389.6772,4391.6456,space,1.9519,,4391.6457,37,13,4392.6458,4392.6459,4392.6467,,,,0,5,5,5,1,120,170,,,,,,,,
,,616a08ba588c5e11354585ce,65af557e2cf40634cd5d70a3,2024-01-23_07h59.47.803,bars,2023.2.3,MacIntel,59.88023952,657b66ea316d21385b68909f,,,,,,,,,,,4392.647,4393.6466,,,4394.1469,4394.3968,,137,137,,,,,,,,,,,,,,,,bars/009.png,bars/mask007.png,,,,,,,,,,,,0,2,,,,,,,8,0,7,1,,,,,,,,,,,4393.6466,4394.1469,4394.3968,4399.3331,space,4.9201,,4399.3332,58,32,4400.3328,4400.3329,4400.3441,,,,0,6,6,6,1,15,105,,,,,,,,
,,616a08ba588c5e11354585ce,65af557e2cf40634cd5d70a3,2024-01-23_07h59.47.803,bars,2023.2.3,MacIntel,59.88023952,657b66ea316d21385b68909f,,,,,,,,,,,4400.3442,4401.3326,,,4401.8331,4402.0838,,85,85,,,,,,,,,,,,,,,,bars/021.png,bars/mask000.png,,,,,,,,,,,,2,2,,,,,,,10,2,10,3,,,,,,,,,,,4401.3326,4401.8331,4402.0838,4410.4706,space,8.3709,,4410.4706,70,15,4411.4707,4411.4708,4411.484,,,,0,7,7,7,1,155,70,,,,,,,,
,,616a08ba588c5e11354585ce,65af557e2cf40634cd5d70a3,2024-01-23_07h59.47.803,bars,2023.2.3,MacIntel,59.88023952,657b66ea316d21385b68909f,,,,,,,,,,,4411.4842,4412.4719,,,4412.9723,4413.2216,,130,130,,,,,,,,,,,,,,,,bars/049.png,bars/mask000.png,,,,,,,,,,,,0,2,,,,,,,8,0,9,0,,,,,,,,,,,4412.4719,4412.9723,4413.2216,4421.2421,space,8.0027,,4421.2422,30,15,4422.2428,4422.2428,4422.2562,,,,0,8,8,8,1,160,115,,,,,,,,
,,616a08ba588c5e11354585ce,65af557e2cf40634cd5d70a3,2024-01-23_07h59.47.803,bars,2023.2.3,MacIntel,59.88023952,657b66ea316d21385b68909f,,,,,,,,,,,4422.2564,4423.2451,,,4423.7445,4423.9956,,128,128,,,,,,,,,,,,,,,,bars/020.png,bars/mask004.png,,,,,,,,,,,,5,1,,,,,,,6,0,8,0,,,,,,,,,,,4423.2452,4423.7443,4423.9956,4427.8964,space,3.885,,4427.8964,13,42,4428.8959,4428.896,4428.9079,,,,0,9,9,9,1,115,170,,,,,,,,
,,616a08ba588c5e11354585ce,65af557e2cf40634cd5d70a3,2024-01-23_07h59.47.803,bars,2023.2.3,MacIntel,59.88023952,657b66ea316d21385b68909f,,,,,,,,,,,4428.9082,4429.8971,,,4430.3979,4430.647,,67,67,,,,,,,,,,,,,,,,bars/035.png,bars/mask006.png,,,,,,,,,,,,0,2,,,,,,,4,2,3,0,,,,,,,,,,,4429.8971,4430.3979,4430.6471,4436.8015,space,6.1382,,4436.8015,72,7,4437.8007,4437.8007,4437.8129,,,,0,10,10,10,1,175,60,,,,,,,,
,,616a08ba588c5e11354585ce,65af557e2cf40634cd5d70a3,2024-01-23_07h59.47.803,bars,2023.2.3,MacIntel,59.88023952,657b66ea316d21385b68909f,,,,,,,,,,,4437.8131,4438.8025,,,4439.3014,4439.5508,,172,-8,,,,,,,,,,,,,,,,bars/014.png,bars/mask003.png,,,,,,,,,,,,1,2,,,,,,,2,0,2,1,,,,,,,,,,,4438.8026,4439.3014,4439.5508,4444.7207,space,5.1477,,4444.7208,88,8,4445.7223,4445.7224,4445.7345,,,,0,11,11,11,1,80,0,,,,,,,,
,,616a08ba588c5e11354585ce,65af557e2cf40634cd5d70a3,2024-01-23_07h59.47.803,bars,2023.2.3,MacIntel,59.88023952,657b66ea316d21385b68909f,,,,,,,,,,,4445.7346,4446.7268,,,4447.2224,4447.4713,,146,-34,,,,,,,,,,,,,,,,bars/015.png,bars/mask001.png,,,,,,,,,,,,1,2,,,,,,,4,2,6,2,,,,,,,,,,,4446.7268,4447.2223,4447.4713,4455.6919,space,8.198,,4455.692,36,14,4456.6928,4456.6929,4456.7057,,,,0,12,12,12,1,110,160,,,,,,,,
,,616a08ba588c5e11354585ce,65af557e2cf40634cd5d70a3,2024-01-23_07h59.47.803,bars,2023.2.3,MacIntel,59.88023952,657b66ea316d21385b68909f,,,,,,,,,,,4456.7059,4457.6936,,,4458.1943,4458.444,,83,83,,,,,,,,,,,,,,,,bars/037.png,bars/mask002.png,,,,,,,,,,,,1,2,,,,,,,2,0,2,2,,,,,,,,,,,4457.6936,4458.1942,4458.444,4462.0782,space,3.6139,,4462.0782,67,22,4463.0786,4463.0786,4463.0917,,,,0,13,13,13,1,150,105,,,,,,,,
,,616a08ba588c5e11354585ce,65af557e2cf40634cd5d70a3,2024-01-23_07h59.47.803,bars,2023.2.3,MacIntel,59.88023952,657b66ea316d21385b68909f,,,,,,,,,,,4463.0919,4464.0804,,,4464.5801,4464.8306,,74,74,,,,,,,,,,,,,,,,bars/030.png,bars/mask006.png,,,,,,,,,,,,0,2,,,,,,,4,0,6,0,,,,,,,,,,,4464.0804,4464.5801,4464.8306,4473.2002,space,8.3487,,4473.2003,66,9,4474.2005,4474.2006,4474.2138,,,,0,14,14,14,1,140,65,,,,,,,,
,,616a08ba588c5e11354585ce,65af557e2cf40634cd5d70a3,2024-01-23_07h59.47.803,bars,2023.2.3,MacIntel,59.88023952,657b66ea316d21385b68909f,,,,,,,,,,,4474.2141,4475.2177,,,4475.7189,4475.9701,,170,-10,,,,,,,,,,,,,,,,bars/048.png,bars/mask009.png,,,,,,,,,,,,3,2,,,,,,,6,2,6,3,,,,,,,,,,,4475.2177,4475.7189,4475.9702,4484.0052,space,8.0181,,4484.0052,60,5,4485.0056,4485.0056,4485.0175,,,,0,15,15,15,1,50,175,,,,,,,,
,,616a08ba588c5e11354585ce,65af557e2cf40634cd5d70a3,2024-01-23_07h59.47.803,bars,2023.2.3,MacIntel,59.88023952,657b66ea316d21385b68909f,,,,,,,,,,,4485.0176,4486.007,,,4486.507,4486.7573,,77,77,,,,,,,,,,,,,,,,bars/007.png,bars/mask006.png,,,,,,,,,,,,1,2,,,,,,,8,4,9,2,,,,,,,,,,,4486.007,4486.507,4486.7573,4493.4602,space,6.6815,,4493.4603,82,22,4494.4609,4494.4609,4494.4747,,,,0,16,16,16,1,175,55,,,,,,,,
,,616a08ba588c5e11354585ce,65af557e2cf40634cd5d70a3,2024-01-23_07h59.47.803,bars,2023.2.3,MacIntel,59.88023952,657b66ea316d21385b68909f,,,,,,,,,,,4494.4749,4495.4779,,,4495.9784,4496.228,,118,118,,,,,,,,,,,,,,,,bars/009.png,bars/mask004.png,,,,,,,,,,,,1,2,,,,,,,6,2,5,1,,,,,,,,,,,4495.4779,4495.9784,4496.228,4502.2673,space,6.0237,,4502.2674,77,13,4503.265,4503.265,4503.2768,,,,0,17,17,17,1,15,105,,,,,,,,
,,616a08ba588c5e11354585ce,65af557e2cf40634cd5d70a3,2024-01-23_07h59.47.803,bars,2023.2.3,MacIntel,59.88023952,657b66ea316d21385b68909f,,,,,,,,,,,4503.277,4504.2654,,,4504.7654,4505.0154,,83,83,,,,,,,,,,,,,,,,bars/007.png,bars/mask004.png,,,,,,,,,,,,0,2,,,,,,,4,0,4,0,,,,,,,,,,,4504.2654,4504.7654,4505.0154,4510.0342,space,4.9997,,4510.0343,88,28,4511.0348,4511.0348,4511.0477,,,,0,18,18,18,1,175,55,,,,,,,,
,,616a08ba588c5e11354585ce,65af557e2cf40634cd5d70a3,2024-01-23_07h59.47.803,bars,2023.2.3,MacIntel,59.88023952,657b66ea316d21385b68909f,,,,,,,,,,,4511.0478,4512.0356,,,4512.5363,4512.7858,,96,96,,,,,,,,,,,,,,,,bars/026.png,bars/mask005.png,,,,,,,,,,,,1,2,,,,,,,6,2,6,2,,,,,,,,,,,4512.0356,4512.5362,4512.7858,4521.0739,space,8.2656,,4521.0739,61,11,4522.074,4522.074,4522.0858,,,,0,19,19,19,1,35,85,,,,,,,,
,,616a08ba588c5e11354585ce,65af557e2cf40634cd5d70a3,2024-01-23_07h59.47.803,bars,2023.2.3,MacIntel,59.88023952,657b66ea316d21385b68909f,,,,,,,,,,,4522.0861,4523.0747,,,4523.575,4523.824,,109,109,,,,,,,,,,,,,,,,bars/018.png,bars/mask007.png,,,,,,,,,,,,2,2,,,,,,,8,4,7,6,,,,,,,,,,,4523.0748,4523.5749,4523.8241,4530.111,space,6.2703,,4530.111,41,19,4531.1124,4531.1124,4531.123,,,,0,20,20,20,1,150,90,,,,,,,,
,,616a08ba588c5e11354585ce,65af557e2cf40634cd5d70a3,2024-01-23_07h59.47.803,bars,2023.2.3,MacIntel,59.88023952,657b66ea316d21385b68909f,,,,,,,,,,,4531.1232,4532.112,,,4532.6125,4532.8618,,99,99,,,,,,,,,,,,,,,,bars/018.png,bars/mask003.png,,,,,,,,,,,,6,2,,,,,,,10,6,9,8,,,,,,,,,,,4532.112,4532.6125,4532.8619,4535.4474,space,2.5689,,4535.4474,51,9,4536.4475,4536.4475,4536.4586,,,,0,21,21,21,1,150,90,,,,,,,,
,,616a08ba588c5e11354585ce,65af557e2cf40634cd5d70a3,2024-01-23_07h59.47.803,bars,2023.2.3,MacIntel,59.88023952,657b66ea316d21385b68909f,,,,,,,,,,,4536.4588,4537.4484,,,4537.9482,4538.1972,,108,108,,,,,,,,,,,,,,,,bars/041.png,bars/mask006.png,,,,,,,,,,,,1,2,,,,,,,8,4,8,4,,,,,,,,,,,4537.4484,4537.9481,4538.1972,4549.638,space,11.4176,,4549.638,88,23,4550.6377,4550.6377,4550.6492,,,,0,22,22,22,1,20,85,,,,,,,,
,,616a08ba588c5e11354585ce,65af557e2cf40634cd5d70a3,2024-01-23_07h59.47.803,bars,2023.2.3,MacIntel,59.88023952,657b66ea316d21385b68909f,,,,,,,,,,,4550.6494,4551.6372,,,4552.1385,4552.3898,,171,-9,,,,,,,,,,,,,,,,bars/016.png,bars/mask006.png,,,,,,,,,,,,1,2,,,,,,,10,2,10,1,,,,,,,,,,,4551.6372,4552.1385,4552.3899,4555.6733,space,3.2687,,4555.6733,49,6,4556.6749,4556.675,4556.6849,,,,0,23,23,23,1,40,165,,,,,,,,
,,616a08ba588c5e11354585ce,65af557e2cf40634cd5d70a3,2024-01-23_07h59.47.803,bars,2023.2.3,MacIntel,59.88023952,657b66ea316d21385b68909f,,,,,,,,,,,4556.6851,4557.6738,,,4558.1746,4558.4241,,93,93,,,,,,,,,,,,,,,,bars/011.png,bars/mask002.png,,,,,,,,,,,,3,2,,,,,,,10,4,10,4,,,,,,,,,,,4557.6739,4558.1746,4558.4242,4561.1928,space,2.7494,,4561.1929,67,8,4562.1931,4562.1931,4562.2045,,,,0,24,24,24,1,160,85,,,,,,,,
,,616a08ba588c5e11354585ce,65af557e2cf40634cd5d70a3,2024-01-23_07h59.47.803,bars,2023.2.3,MacIntel,59.88023952,657b66ea316d21385b68909f,,,,,,,,,,,4562.2047,4563.1933,,,4563.694,4563.9431,,80,80,,,,,,,,,,,,,,,,bars/007.png,bars/mask009.png,,,,,,,,,,,,1,2,,,,,,,10,6,9,5,,,,,,,,,,,4563.1933,4563.6939,4563.9431,4572.6316,space,8.6718,,4572.6316,85,25,4573.6317,4573.6318,4573.6435,,,,0,25,25,25,1,175,55,,,,,,,,
,,616a08ba588c5e11354585ce,65af557e2cf40634cd5d70a3,2024-01-23_07h59.47.803,bars,2023.2.3,MacIntel,59.88023952,657b66ea316d21385b68909f,,,,,,,,,,,4573.6437,4574.6321,,,4575.1328,4575.3819,,134,-46,,,,,,,,,,,,,,,,bars/002.png,bars/mask008.png,,,,,,,,,,,,9,1,,,,,,,10,8,10,9,,,,,,,,,,,4574.6321,4575.1327,4575.3819,4583.6423,space,8.2422,,4583.6425,4,49,4584.6419,4584.642,4584.6563,,,,0,26,26,26,1,130,85,,,,,,,,
,,616a08ba588c5e11354585ce,65af557e2cf40634cd5d70a3,2024-01-23_07h59.47.803,bars,2023.2.3,MacIntel,59.88023952,657b66ea316d21385b68909f,,,,,,,,,,,4584.6569,4585.6538,,,4586.1548,4586.4038,,5,5,,,,,,,,,,,,,,,,bars/008.png,bars/mask002.png,,,,,,,,,,,,8,2,,,,,,,10,10,10,10,,,,,,,,,,,4585.6538,4586.1547,4586.4038,4595.342,space,8.9203,,4595.342,75,5,4596.3423,4596.3423,4596.355,,,,0,27,27,27,1,110,0,,,,,,,,
,,616a08ba588c5e11354585ce,65af557e2cf40634cd5d70a3,2024-01-23_07h59.47.803,bars,2023.2.3,MacIntel,59.88023952,657b66ea316d21385b68909f,,,,,,,,,,,4596.3552,4597.3436,,,4597.8435,4598.0927,,173,173,,,,,,,,,,,,,,,,bars/024.png,bars/mask000.png,,,,,,,,,,,,8,2,,,,,,,8,10,8,9,,,,,,,,,,,4597.3436,4597.8435,4598.0927,4602.7449,space,4.6309,,4602.7449,53,3,4603.7457,4603.7457,4603.7586,,,,0,28,28,28,1,120,170,,,,,,,,
,,616a08ba588c5e11354585ce,65af557e2cf40634cd5d70a3,2024-01-23_07h59.47.803,bars,2023.2.3,MacIntel,59.88023952,657b66ea316d21385b68909f,,,,,,,,,,,4603.7587,4604.7518,,,4605.2479,4605.4962,,174,174,,,,,,,,,,,,,,,,bars/033.png,bars/mask009.png,,,,,,,,,,,,3,2,,,,,,,6,8,5,8,,,,,,,,,,,4604.7518,4605.2478,4605.4962,4611.6001,space,6.086,,4611.6002,31,19,4612.6022,4612.6022,4612.6126,,,,0,29,29,29,1,25,155,,,,,,,,
,,616a08ba588c5e11354585ce,65af557e2cf40634cd5d70a3,2024-01-23_07h59.47.803,bars,2023.2.3,MacIntel,59.88023952,657b66ea316d21385b68909f,,,,,,,,,,,4612.6129,4613.6166,,,4614.1179,4614.3688,,140,140,,,,,,,,,,,,,,,,bars/004.png,bars/mask004.png,,,,,,,,,,,,5,2,,,,,,,4,10,5,10,,,,,,,,,,,4613.6167,4614.1179,4614.3688,4619.937,space,5.5533,,4619.937,65,15,4620.9375,4620.9375,4620.9472,,,,0,30,30,30,1,25,125,,,,,,,,
,,616a08ba588c5e11354585ce,65af557e2cf40634cd5d70a3,2024-01-23_07h59.47.803,bars,2023.2.3,MacIntel,59.88023952,657b66ea316d21385b68909f,,,,,,,,,,,4620.9474,4621.9378,,,4622.4382,4622.6878,,19,199,,,,,,,,,,,,,,,,bars/012.png,bars/mask004.png,,,,,,,,,,,,8,2,,,,,,,2,8,1,9,,,,,,,,,,,4621.9379,4622.4381,4622.6879,4626.3741,space,3.6696,,4626.3741,71,4,4627.3738,4627.3738,4627.3854,,,,0,31,31,31,1,90,15,,,,,,,,
,,616a08ba588c5e11354585ce,65af557e2cf40634cd5d70a3,2024-01-23_07h59.47.803,bars,2023.2.3,MacIntel,59.88023952,657b66ea316d21385b68909f,,,,,,,,,,,4627.3857,4628.3746,,,4628.8741,4629.1246,,134,134,,,,,,,,,,,,,,,,bars/033.png,bars/mask008.png,,,,,,,,,,,,2,2,,,,,,,0,10,0,7,,,,,,,,,,,4628.3746,4628.8741,4629.1247,4634.8773,space,5.7423,,4634.8774,71,21,4635.8778,4635.8778,4635.8893,,,,0,32,32,32,1,25,155,,,,,,,,
,,616a08ba588c5e11354585ce,65af557e2cf40634cd5d70a3,2024-01-23_07h59.47.803,bars,2023.2.3,MacIntel,59.88023952,657b66ea316d21385b68909f,,,,,,,,,,,4635.8895,4636.8784,,,4637.3783,4637.6301,,75,75,,,,,,,,,,,,,,,,bars/026.png,bars/mask003.png,,,,,,,,,,,,5,2,,,,,,,2,8,2,7,,,,,,,,,,,4636.8785,4637.3783,4637.6301,4644.4407,space,6.796,,4644.4407,40,10,4645.4362,4645.4363,4645.4521,,,,0,33,33,33,1,35,85,,,,,,,,
,,616a08ba588c5e11354585ce,65af557e2cf40634cd5d70a3,2024-01-23_07h59.47.803,bars,2023.2.3,MacIntel,59.88023952,657b66ea316d21385b68909f,,,,,,,,,,,4645.4532,4646.4495,,,4646.9515,4647.1993,,135,135,,,,,,,,,,,,,,,,bars/009.png,bars/mask007.png,,,,,,,,,,,,0,2,,,,,,,0,10,1,10,,,,,,,,,,,4646.4495,4646.9515,4647.1993,4649.6181,space,2.4021,,4649.6182,60,30,4650.6095,4650.6095,4650.6262,,,,0,34,34,34,1,15,105,,,,,,,,
,,616a08ba588c5e11354585ce,65af557e2cf40634cd5d70a3,2024-01-23_07h59.47.803,bars,2023.2.3,MacIntel,59.88023952,657b66ea316d21385b68909f,,,,,,,,,,,4650.6268,4651.6196,,,4652.0949,4652.3415,,121,-59,,,,,,,,,,,,,,,,bars/005.png,bars/mask006.png,,,,,,,,,,,,4,2,,,,,,,2,10,1,10,,,,,,,,,,,4651.6196,4652.0949,4652.3415,4659.7924,space,7.4194,,4659.7924,69,19,4660.7897,4660.7897,4660.8013,,,,0,35,35,35,1,10,140,,,,,,,,
,,616a08ba588c5e11354585ce,65af557e2cf40634cd5d70a3,2024-01-23_07h59.47.803,bars,2023.2.3,MacIntel,59.88023952,657b66ea316d21385b68909f,,,,,,,,,,,4660.8014,4661.7903,,,4662.2903,4662.54,,60,240,,,,,,,,,,,,,,,,bars/013.png,bars/mask005.png,,,,,,,,,,,,2,1,,,,,,,4,10,4,9,,,,,,,,,,,4661.7903,4662.2902,4662.5401,4670.5638,space,8.0074,,4670.5638,15,50,4671.5536,4671.5536,4671.5718,,,,0,36,36,36,1,75,10,,,,,,,,
,,616a08ba588c5e11354585ce,65af557e2cf40634cd5d70a3,2024-01-23_07h59.47.803,bars,2023.2.3,MacIntel,59.88023952,657b66ea316d21385b68909f,,,,,,,,,,,4671.5721,4672.563,,,4673.0625,4673.3116,,85,85,,,,,,,,,,,,,,,,bars/028.png,bars/mask007.png,,,,,,,,,,,,0,2,,,,,,,6,10,6,9,,,,,,,,,,,4672.5631,4673.0625,4673.3116,4706.6821,space,33.3509,,4706.6822,40,35,4707.6782,4707.6782,4707.6905,,,,0,37,37,37,1,45,120,,,,,,,,
,,616a08ba588c5e11354585ce,65af557e2cf40634cd5d70a3,2024-01-23_07h59.47.803,bars,2023.2.3,MacIntel,59.88023952,657b66ea316d21385b68909f,,,,,,,,,,,4707.6907,4708.6791,,,4709.1796,4709.4321,,119,119,,,,,,,,,,,,,,,,bars/024.png,bars/mask004.png,,,,,,,,,,,,9,1,,,,,,,8,10,9,8,,,,,,,,,,,4708.6791,4709.1796,4709.4321,4718.8175,space,9.3708,,4718.8175,1,51,4719.8175,4719.8176,4719.8296,,,,0,38,38,38,1,120,170,,,,,,,,
,,616a08ba588c5e11354585ce,65af557e2cf40634cd5d70a3,2024-01-23_07h59.47.803,bars,2023.2.3,MacIntel,59.88023952,657b66ea316d21385b68909f,,,,,,,,,,,4719.8297,4720.8179,,,4721.3189,4721.5681,,99,99,,,,,,,,,,,,,,,,bars/001.png,bars/mask006.png,,,,,,,,,,,,5,2,,,,,,,6,8,7,9,,,,,,,,,,,4720.8179,4721.3189,4721.5682,4724.7359,space,3.1472,,4724.7359,31,14,4725.7372,4725.7372,4725.7494,,,,0,39,39,39,1,130,85,,,,,,,,
,,616a08ba588c5e11354585ce,65af557e2cf40634cd5d70a3,2024-01-23_07h59.47.803,bars,2023.2.3,MacIntel,59.88023952,657b66ea316d21385b68909f,,,,,,,,,,,4725.7495,4726.7375,,,4727.2384,4727.4896,,102,102,,,,,,,,,,,,,,,,bars/039.png,bars/mask009.png,,,,,,,,,,,,5,2,,,,,,,4,6,4,6,,,,,,,,,,,4726.7376,4727.2383,4727.4897,4730.5556,space,3.0454,,4730.5556,73,3,4731.5558,4731.5558,4731.5686,,,,0,40,40,40,1,175,105,,,,,,,,
,,616a08ba588c5e11354585ce,65af557e2cf40634cd5d70a3,2024-01-23_07h59.47.803,bars,2023.2.3,MacIntel,59.88023952,657b66ea316d21385b68909f,,,,,,,,,,,4731.5688,4732.5564,,,4733.057,4733.3072,,10,190,,,,,,,,,,,,,,,,bars/036.png,bars/mask008.png,,,,,,,,,,,,6,2,,,,,,,6,8,6,9,,,,,,,,,,,4732.5565,4733.057,4733.3072,4754.8673,space,21.5413,,4754.8673,45,10,4755.8674,4755.8674,4755.8811,,,,0,41,41,41,1,145,20,,,,,,,,
,,616a08ba588c5e11354585ce,65af557e2cf40634cd5d70a3,2024-01-23_07h59.47.803,bars,2023.2.3,MacIntel,59.88023952,657b66ea316d21385b68909f,,,,,,,,,,,4755.8813,4756.8855,,,4757.3856,4757.6351,,143,143,,,,,,,,,,,,,,,,bars/020.png,bars/mask003.png,,,,,,,,,,,,1,2,,,,,,,4,10,3,10,,,,,,,,,,,4756.8857,4757.3856,4757.6351,4759.6691,space,2.0159,,4759.6691,28,27,4760.6704,4760.6704,4760.683,,,,0,42,42,42,1,115,170,,,,,,,,
,,616a08ba588c5e11354585ce,65af557e2cf40634cd5d70a3,2024-01-23_07h59.47.803,bars,2023.2.3,MacIntel,59.88023952,657b66ea316d21385b68909f,,,,,,,,,,,4760.6832,4761.6718,,,4762.1722,4762.4206,,40,40,,,,,,,,,,,,,,,,bars/007.png,bars/mask003.png,,,,,,,,,,,,5,2,,,,,,,2,10,2,10,,,,,,,,,,,4761.6718,4762.1722,4762.4206,4765.6733,space,3.2354,,4765.6733,45,15,4766.6728,4766.6728,4766.6842,,,,0,43,43,43,1,175,55,,,,,,,,
,,616a08ba588c5e11354585ce,65af557e2cf40634cd5d70a3,2024-01-23_07h59.47.803,bars,2023.2.3,MacIntel,59.88023952,657b66ea316d21385b68909f,,,,,,,,,,,4766.6843,4767.6741,,,4768.174,4768.4242,,75,75,,,,,,,,,,,,,,,,bars/044.png,bars/mask002.png,,,,,,,,,,,,1,1,,,,,,,0,10,1,10,,,,,,,,,,,4767.6741,4768.174,4768.4242,4770.4921,space,2.0478,,4770.4921,0,80,4771.4922,4771.4922,4771.494,,,,0,44,44,44,1,75,155,,,,,,,,
,,616a08ba588c5e11354585ce,65af557e2cf40634cd5d70a3,2024-01-23_07h59.47.803,bars,2023.2.3,MacIntel,59.88023952,657b66ea316d21385b68909f,,,,,,,,,,,4771.4943,4772.4934,,,4772.9928,4773.2428,,151,151,,,,,,,,,,,,,,,,bars/000.png,bars/mask009.png,,,,,,,,,,,,7,2,,,,,,,2,10,1,9,,,,,,,,,,,4772.4936,4772.9928,4773.2429,4777.0119,space,3.752,,4777.012,69,6,4778.0117,4778.0117,4778.0238,,,,0,45,45,45,1,40,145,,,,,,,,
,,616a08ba588c5e11354585ce,65af557e2cf40634cd5d70a3,2024-01-23_07h59.47.803,bars,2023.2.3,MacIntel,59.88023952,657b66ea316d21385b68909f,,,,,,,,,,,4778.024,4779.0121,,,4779.5129,4779.7622,,172,-8,,,,,,,,,,,,,,,,bars/024.png,bars/mask009.png,,,,,,,,,,,,9,2,,,,,,,0,10,0,10,,,,,,,,,,,4779.0121,4779.5129,4779.7623,4785.0499,space,5.2701,,4785.0499,52,2,4786.0489,4786.0489,4786.0603,,,,0,46,46,46,1,120,170,,,,,,,,
,,616a08ba588c5e11354585ce,65af557e2cf40634cd5d70a3,2024-01-23_07h59.47.803,bars,2023.2.3,MacIntel,59.88023952,657b66ea316d21385b68909f,,,,,,,,,,,4786.0605,4787.0501,,,4787.5501,4787.7994,,143,143,,,,,,,,,,,,,,,,bars/016.png,bars/mask002.png,,,,,,,,,,,,2,2,,,,,,,2,8,3,7,,,,,,,,,,,4787.0501,4787.55,4787.7994,4792.0192,space,4.1974,,4792.0192,77,22,4793.0185,4793.0186,4793.0298,,,,0,47,47,47,1,40,165,,,,,,,,
,,616a08ba588c5e11354585ce,65af557e2cf40634cd5d70a3,2024-01-23_07h59.47.803,bars,2023.2.3,MacIntel,59.88023952,657b66ea316d21385b68909f,,,,,,,,,,,4793.0299,4794.0215,,,4794.5202,4794.7696,,13,193,,,,,,,,,,,,,,,,bars/032.png,bars/mask007.png,,,,,,,,,,,,6,2,,,,,,,4,10,5,8,,,,,,,,,,,4794.0216,4794.5201,4794.7696,4804.8262,space,10.04,,4804.8262,68,7,4805.8248,4805.8249,4805.8366,,,,0,48,48,48,1,125,20,,,,,,,,
,,616a08ba588c5e11354585ce,65af557e2cf40634cd5d70a3,2024-01-23_07h59.47.803,bars,2023.2.3,MacIntel,59.88023952,657b66ea316d21385b68909f,,,,,,,,,,,4805.8368,4806.8268,,,4807.3261,4807.5775,,162,162,,,,,,,,,,,,,,,,bars/024.png,bars/mask007.png,,,,,,,,,,,,7,2,,,,,,,6,8,6,10,,,,,,,,,,,4806.8269,4807.3261,4807.5776,4811.8107,space,4.2155,,4811.8107,42,8,4812.8109,4812.8109,4812.8223,,,,0,49,49,49,1,120,170,,,,,,,,
,,616a08ba588c5e11354585ce,65af557e2cf40634cd5d70a3,2024-01-23_07h59.47.803,bars,2023.2.3,MacIntel,59.88023952,657b66ea316d21385b68909f,,,,,,,,,,,,,,,,,,,,,,,,,,,,,,,,,,,,,,,,,,,,,,,,,,,,,,,,,,,,,,,,,,,,,,,,,,,,,,,,,,,,,,,,,,,,,4812.8224,4872.8118,0,3,3,3,1,sequence_tables/blk045.csv
,,616a08ba588c5e11354585ce,65af557e2cf40634cd5d70a3,2024-01-23_07h59.47.803,bars,2023.2.3,MacIntel,59.88023952,657b66ea316d21385b68909f,,,,,,,,,,,6091.2341,6092.2215,,,6092.7188,6092.968,,56,56,,,,,,,,,,,,,,,,bars/047.png,bars/mask000.png,,,,,,,,,,,,3,2,,,,,,,5,5,5,6,,,,,,4872.8273,6091.2192,space,1218.3781,,6092.2215,6092.7188,6092.9681,6095.6032,space,2.6139,,6095.6032,41,14,6096.6035,6096.6036,6096.615,,,,0,0,0,0,1,15,70,,,,,,,,
,,616a08ba588c5e11354585ce,65af557e2cf40634cd5d70a3,2024-01-23_07h59.47.803,bars,2023.2.3,MacIntel,59.88023952,657b66ea316d21385b68909f,,,,,,,,,,,6096.6152,6097.6055,,,6098.1049,6098.354,,122,122,,,,,,,,,,,,,,,,bars/008.png,bars/mask006.png,,,,,,,,,,,,1,1,,,,,,,3,3,1,3,,,,,,,,,,,6097.6055,6098.1048,6098.354,6113.8626,space,15.4865,,6113.8628,12,58,6114.8622,6114.8622,6114.8747,,,,0,1,1,1,1,110,0,,,,,,,,
,,616a08ba588c5e11354585ce,65af557e2cf40634cd5d70a3,2024-01-23_07h59.47.803,bars,2023.2.3,MacIntel,59.88023952,657b66ea316d21385b68909f,,,,,,,,,,,6114.875,6115.8635,,,6116.3635,6116.6127,,68,68,,,,,,,,,,,,,,,,bars/034.png,bars/mask007.png,,,,,,,,,,,,6,2,,,,,,,1,5,2,7,,,,,,,,,,,6115.8635,6116.3634,6116.6127,6121.0315,space,4.3974,,6121.0315,57,3,6122.0322,6122.0322,6122.0459,,,,0,2,2,2,1,125,65,,,,,,,,
,,616a08ba588c5e11354585ce,65af557e2cf40634cd5d70a3,2024-01-23_07h59.47.803,bars,2023.2.3,MacIntel,59.88023952,657b66ea316d21385b68909f,,,,,,,,,,,6122.0462,6123.0488,,,6123.5498,6123.801,,134,134,,,,,,,,,,,,,,,,bars/000.png,bars/mask008.png,,,,,,,,,,,,6,2,,,,,,,0,7,0,9,,,,,,,,,,,6123.0489,6123.5497,6123.8011,6131.4869,space,7.6713,,6131.487,86,11,6132.4871,6132.4871,6132.4982,,,,0,3,3,3,1,40,145,,,,,,,,
,,616a08ba588c5e11354585ce,65af557e2cf40634cd5d70a3,2024-01-23_07h59.47.803,bars,2023.2.3,MacIntel,59.88023952,657b66ea316d21385b68909f,,,,,,,,,,,6132.4984,6133.4883,,,6133.9883,6134.2396,,66,66,,,,,,,,,,,,,,,,bars/041.png,bars/mask005.png,,,,,,,,,,,,1,2,,,,,,,0,5,2,4,,,,,,,,,,,6133.4883,6133.9882,6134.2397,6142.2081,space,7.949,,6142.2082,46,19,6143.2094,6143.2094,6143.2224,,,,0,4,4,4,1,20,85,,,,,,,,
,,616a08ba588c5e11354585ce,65af557e2cf40634cd5d70a3,2024-01-23_07h59.47.803,bars,2023.2.3,MacIntel,59.88023952,657b66ea316d21385b68909f,,,,,,,,,,,6143.2226,6144.212,,,6144.7094,6144.9606,,79,79,,,,,,,,,,,,,,,,bars/022.png,bars/mask006.png,,,,,,,,,,,,1,1,,,,,,,2,7,3,8,,,,,,,,,,,6144.2123,6144.7094,6144.9606,6154.1481,space,9.1768,,6154.1481,16,59,6155.1475,6155.1475,6155.1612,,,,0,5,5,5,1,95,20,,,,,,,,
,,616a08ba588c5e11354585ce,65af557e2cf40634cd5d70a3,2024-01-23_07h59.47.803,bars,2023.2.3,MacIntel,59.88023952,657b66ea316d21385b68909f,,,,,,,,,,,6155.1614,6156.1494,,,6156.6488,6156.8991,,104,104,,,,,,,,,,,,,,,,bars/041.png,bars/mask005.png,,,,,,,,,,,,4,2,,,,,,,4,9,4,10,,,,,,,,,,,6156.1494,6156.6488,6156.8991,6164.3856,space,7.4711,,6164.3857,84,19,6165.3863,6165.3864,6165.3986,,,,0,6,6,6,1,20,85,,,,,,,,
,,616a08ba588c5e11354585ce,65af557e2cf40634cd5d70a3,2024-01-23_07h59.47.803,bars,2023.2.3,MacIntel,59.88023952,657b66ea316d21385b68909f,,,,,,,,,,,6165.3988,6166.4026,,,6166.9031,6167.1545,,157,157,,,,,,,,,,,,,,,,bars/043.png,bars/mask003.png,,,,,,,,,,,,1,2,,,,,,,2,10,1,9,,,,,,,,,,,6166.4026,6166.9031,6167.1545,6172.8065,space,5.6342,,6172.8066,53,27,6173.8068,6173.8068,6173.8192,,,,0,7,7,7,1,30,130,,,,,,,,
,,616a08ba588c5e11354585ce,65af557e2cf40634cd5d70a3,2024-01-23_07h59.47.803,bars,2023.2.3,MacIntel,59.88023952,657b66ea316d21385b68909f,,,,,,,,,,,6173.8195,6174.8072,,,6175.3069,6175.5572,,109,109,,,,,,,,,,,,,,,,bars/013.png,bars/mask002.png,,,,,,,,,,,,0,1,,,,,,,4,8,2,8,,,,,,,,,,,6174.8073,6175.3069,6175.5573,6178.5093,space,2.9299,,6178.5094,34,81,6179.5095,6179.5095,6179.5214,,,,0,8,8,8,1,75,10,,,,,,,,
