init_variables.started,init_variables.stopped,participant,session,date,expName,psychopyVersion,OS,frameRate,study_id,instruction_exp.started,instruction_exp.stopped,key_resp_8.keys,key_resp_8.rt,key_resp_8.duration,instruction_single.started,instruction_single.stopped,key_resp_2.keys,key_resp_2.rt,key_resp_2.duration,interval.started,interval.stopped,cue_single.started,cue_single.stopped,mask.started,mask.stopped,ori_response_single.started,res_ori,res,ori_response_single.stopped,key_resp_single.keys,key_resp_single.rt,key_resp_single.duration,disp_single.started,disp_single.stopped,key_resp.keys,key_resp.rt,key_resp.duration,single.thisRepN,single.thisTrialN,single.thisN,single.thisIndex,single.ran,ori,path,mask_path,instruction_bandit.started,instruction_bandit.stopped,key_resp_6.keys,key_resp_6.rt,key_resp_6.duration,cue_bandit.started,cue_bandit.stopped,bandit_res.keys,bandit_res.rt,bandit_res.duration,outcome_bandit.started,rew,action,outcome_bandit.stopped,bandit.thisRepN,bandit.thisTrialN,bandit.thisN,bandit.thisIndex,bandit.ran,actual_rew1,actual_rew2,rew1,rew2,instruction_task.started,instruction_task.stopped,key_resp_7.keys,key_resp_7.rt,key_resp_7.duration,wait_ready.started,wait_ready.stopped,key_resp_3.keys,key_resp_3.rt,key_resp_3.duration,cue.started,cue.stopped,ori_response.started,ori_response.stopped,key_resp_5.keys,key_resp_5.rt,key_resp_5.duration,outcome.started,diff1,diff2,outcome.stopped,disp_outcome_practice.started,disp_outcome_practice.stopped,key_resp_4.keys,key_resp_4.rt,key_resp_4.duration,trials.thisRepN,trials.thisTrialN,trials.thisN,trials.thisIndex,trials.ran,ori1,ori2,break_blk.started,break_blk.stopped,block.thisRepN,block.thisTrialN,block.thisN,block.thisIndex,block.ran,condition_file
0.0003,0.0005,654cee478454c59efad0196c,65af558ab1b2d753c0180a0a,2024-01-23_06h00.42.886,bars,2023.2.3,Win32,58.82352941,657b66ea316d21385b68909f,,,,,,,,,,,,,,,,,,,,,,,,,,,,,,,,,,,,,,,,,,,,,,,,,,,,,,,,,,,,,,,,,,,,,,,,,,,,,,,,,,,,,,,,,,,,,,,,,,,,
,,654cee478454c59efad0196c,65af558ab1b2d753c0180a0a,2024-01-23_06h00.42.886,bars,2023.2.3,Win32,58.82352941,657b66ea316d21385b68909f,0.0008,15.6792,y,15.6584,,,,,,,,,,,,,,,,,,,,,,,,,,,,,,,,,,,,,,,,,,,,,,,,,,,,,,,,,,,,,,,,,,,,,,,,,,,,,,,,,,,,,,,,,,,,,,,,
,,654cee478454c59efad0196c,65af558ab1b2d753c0180a0a,2024-01-23_06h00.42.886,bars,2023.2.3,Win32,58.82352941,657b66ea316d21385b68909f,,,,,,15.6795,35.9595,space,20.249,,,,,,,,,,,,,,,,,,,,,,,,,,,,,,,,,,,,,,,,,,,,,,,,,,,,,,,,,,,,,,,,,,,,,,,,,,,,,,,,,,,,,,,,,,,
,,654cee478454c59efad0196c,65af558ab1b2d753c0180a0a,2024-01-23_06h00.42.886,bars,2023.2.3,Win32,58.82352941,657b66ea316d21385b68909f,,,,,,,,,,,35.9677,36.9654,36.9657,37.4647,37.4649,37.7148,37.715,118,118,48.7146,space,10.9598,,48.7148,67.4699,space,18.7162,,0,0,0,4,1,95,bars/single004.png,bars/mask004.png,,,,,,,,,,,,,,,,,,,,,,,,,,,,,,,,,,,,,,,,,,,,,,,,,,,,,,,,,,,,,,,,
,,654cee478454c59efad0196c,65af558ab1b2d753c0180a0a,2024-01-23_06h00.42.886,bars,2023.2.3,Win32,58.82352941,657b66ea316d21385b68909f,,,,,,,,,,,67.4844,68.4857,68.4858,68.9856,68.9856,69.2356,69.2357,91,91,78.4678,space,9.2169,,78.468,84.6837,space,6.1864,,0,1,1,5,1,55,bars/single005.png,bars/mask008.png,,,,,,,,,,,,,,,,,,,,,,,,,,,,,,,,,,,,,,,,,,,,,,,,,,,,,,,,,,,,,,,,
,,654cee478454c59efad0196c,65af558ab1b2d753c0180a0a,2024-01-23_06h00.42.886,bars,2023.2.3,Win32,58.82352941,657b66ea316d21385b68909f,,,,,,,,,,,84.6961,85.7,85.7,86.2,86.2001,86.45,86.4501,90,90,94.3325,space,7.867,,94.3325,102.0494,space,7.6856,,0,2,2,6,1,175,bars/single006.png,bars/mask005.png,,,,,,,,,,,,,,,,,,,,,,,,,,,,,,,,,,,,,,,,,,,,,,,,,,,,,,,,,,,,,,,,
,,654cee478454c59efad0196c,65af558ab1b2d753c0180a0a,2024-01-23_06h00.42.886,bars,2023.2.3,Win32,58.82352941,657b66ea316d21385b68909f,,,,,,,,,,,102.0619,103.066,103.0662,103.5661,103.5665,103.8153,103.8155,90,90,110.0154,space,6.1836,,110.0161,120.7318,space,10.6825,,0,3,3,8,1,160,bars/single008.png,bars/mask004.png,,,,,,,,,,,,,,,,,,,,,,,,,,,,,,,,,,,,,,,,,,,,,,,,,,,,,,,,,,,,,,,,
,,654cee478454c59efad0196c,65af558ab1b2d753c0180a0a,2024-01-23_06h00.42.886,bars,2023.2.3,Win32,58.82352941,657b66ea316d21385b68909f,,,,,,,,,,,120.7437,121.7463,121.7466,122.2471,122.2473,122.4962,122.4963,159,-21,127.38,space,4.8515,,127.3805,132.5352,space,5.1284,,0,4,4,2,1,145,bars/single002.png,bars/mask003.png,,,,,,,,,,,,,,,,,,,,,,,,,,,,,,,,,,,,,,,,,,,,,,,,,,,,,,,,,,,,,,,,
,,654cee478454c59efad0196c,65af558ab1b2d753c0180a0a,2024-01-23_06h00.42.886,bars,2023.2.3,Win32,58.82352941,657b66ea316d21385b68909f,,,,,,,,,,,132.5484,133.5449,133.545,134.0451,134.0453,134.2947,134.2948,145,145,137.3126,space,2.9852,,137.3131,142.8781,space,5.5369,,0,5,5,7,1,45,bars/single007.png,bars/mask009.png,,,,,,,,,,,,,,,,,,,,,,,,,,,,,,,,,,,,,,,,,,,,,,,,,,,,,,,,,,,,,,,,
,,654cee478454c59efad0196c,65af558ab1b2d753c0180a0a,2024-01-23_06h00.42.886,bars,2023.2.3,Win32,58.82352941,657b66ea316d21385b68909f,,,,,,,,,,,142.89,143.8934,143.8935,144.3937,144.3942,144.6438,144.6441,142,-38,151.1432,space,6.468,,151.1436,157.2425,space,6.0663,,0,6,6,3,1,20,bars/single003.png,bars/mask005.png,,,,,,,,,,,,,,,,,,,,,,,,,,,,,,,,,,,,,,,,,,,,,,,,,,,,,,,,,,,,,,,,
,,654cee478454c59efad0196c,65af558ab1b2d753c0180a0a,2024-01-23_06h00.42.886,bars,2023.2.3,Win32,58.82352941,657b66ea316d21385b68909f,,,,,,,,,,,157.2548,158.25,158.25,158.7414,158.7417,158.9914,158.9915,38,218,164.7425,space,5.7224,,164.7428,168.1984,space,3.4301,,0,7,7,0,1,150,bars/single000.png,bars/mask006.png,,,,,,,,,,,,,,,,,,,,,,,,,,,,,,,,,,,,,,,,,,,,,,,,,,,,,,,,,,,,,,,,
,,654cee478454c59efad0196c,65af558ab1b2d753c0180a0a,2024-01-23_06h00.42.886,bars,2023.2.3,Win32,58.82352941,657b66ea316d21385b68909f,,,,,,,,,,,168.2115,169.2068,169.2071,169.707,169.7073,169.9595,169.9595,146,-34,173.5643,space,3.5836,,173.5643,177.3571,space,3.7619,,0,8,8,1,1,20,bars/single001.png,bars/mask006.png,,,,,,,,,,,,,,,,,,,,,,,,,,,,,,,,,,,,,,,,,,,,,,,,,,,,,,,,,,,,,,,,
,,654cee478454c59efad0196c,65af558ab1b2d753c0180a0a,2024-01-23_06h00.42.886,bars,2023.2.3,Win32,58.82352941,657b66ea316d21385b68909f,,,,,,,,,,,177.3697,178.3721,178.3722,178.8721,178.8722,179.1221,179.1222,152,-28,184.8889,space,5.7347,,184.8893,187.4118,space,2.4986,,0,9,9,9,1,20,bars/single009.png,bars/mask006.png,,,,,,,,,,,,,,,,,,,,,,,,,,,,,,,,,,,,,,,,,,,,,,,,,,,,,,,,,,,,,,,,
,,654cee478454c59efad0196c,65af558ab1b2d753c0180a0a,2024-01-23_06h00.42.886,bars,2023.2.3,Win32,58.82352941,657b66ea316d21385b68909f,,,,,,,,,,,,,,,,,,,,,,,,,,,,,,,,,,,,,187.4248,207.7017,space,20.2552,,,,,,,,,,,,,,,,,,,,,,,,,,,,,,,,,,,,,,,,,,,,,,,,,,,,,,,,,,,,
,,654cee478454c59efad0196c,65af558ab1b2d753c0180a0a,2024-01-23_06h00.42.886,bars,2023.2.3,Win32,58.82352941,657b66ea316d21385b68909f,,,,,,,,,,,,,,,,,,,,,,,,,,,,,,,,,,,,,,,,,,207.7183,214.0852,left,6.3271,,214.086,9,1,215.0851,0,0,0,0,1,9,1,9,2,,,,,,,,,,,,,,,,,,,,,,,,,,,,,,,,,,,,,,,,,
,,654cee478454c59efad0196c,65af558ab1b2d753c0180a0a,2024-01-23_06h00.42.886,bars,2023.2.3,Win32,58.82352941,657b66ea316d21385b68909f,,,,,,,,,,,,,,,,,,,,,,,,,,,,,,,,,,,,,,,,,,215.0867,218.7692,left,3.6536,,218.7693,10,1,219.7667,0,1,1,1,1,10,0,10,1,,,,,,,,,,,,,,,,,,,,,,,,,,,,,,,,,,,,,,,,,
,,654cee478454c59efad0196c,65af558ab1b2d753c0180a0a,2024-01-23_06h00.42.886,bars,2023.2.3,Win32,58.82352941,657b66ea316d21385b68909f,,,,,,,,,,,,,,,,,,,,,,,,,,,,,,,,,,,,,,,,,,219.7793,221.0037,left,1.213,,221.0037,10,1,222,0,2,2,2,1,10,2,10,2,,,,,,,,,,,,,,,,,,,,,,,,,,,,,,,,,,,,,,,,,
,,654cee478454c59efad0196c,65af558ab1b2d753c0180a0a,2024-01-23_06h00.42.886,bars,2023.2.3,Win32,58.82352941,657b66ea316d21385b68909f,,,,,,,,,,,,,,,,,,,,,,,,,,,,,,,,,,,,,,,,,,222.0021,224.7909,left,2.7671,,224.791,7,1,225.7826,0,3,3,3,1,8,4,7,3,,,,,,,,,,,,,,,,,,,,,,,,,,,,,,,,,,,,,,,,,
,,654cee478454c59efad0196c,65af558ab1b2d753c0180a0a,2024-01-23_06h00.42.886,bars,2023.2.3,Win32,58.82352941,657b66ea316d21385b68909f,,,,,,,,,,,,,,,,,,,,,,,,,,,,,,,,,,,,,,,,,,225.7957,228.7511,right,2.9347,,228.7513,1,2,229.7489,0,4,4,4,1,6,2,5,1,,,,,,,,,,,,,,,,,,,,,,,,,,,,,,,,,,,,,,,,,
,,654cee478454c59efad0196c,65af558ab1b2d753c0180a0a,2024-01-23_06h00.42.886,bars,2023.2.3,Win32,58.82352941,657b66ea316d21385b68909f,,,,,,,,,,,,,,,,,,,,,,,,,,,,,,,,,,,,,,,,,,229.7616,230.9845,right,1.2019,,230.9845,4,2,231.9819,0,5,5,5,1,4,4,4,4,,,,,,,,,,,,,,,,,,,,,,,,,,,,,,,,,,,,,,,,,
,,654cee478454c59efad0196c,65af558ab1b2d753c0180a0a,2024-01-23_06h00.42.886,bars,2023.2.3,Win32,58.82352941,657b66ea316d21385b68909f,,,,,,,,,,,,,,,,,,,,,,,,,,,,,,,,,,,,,,,,,,231.9835,232.5509,left,0.5382,,232.551,1,1,233.5473,0,6,6,6,1,2,2,1,2,,,,,,,,,,,,,,,,,,,,,,,,,,,,,,,,,,,,,,,,,
,,654cee478454c59efad0196c,65af558ab1b2d753c0180a0a,2024-01-23_06h00.42.886,bars,2023.2.3,Win32,58.82352941,657b66ea316d21385b68909f,,,,,,,,,,,,,,,,,,,,,,,,,,,,,,,,,,,,,,,,,,233.5478,234.7477,right,1.185,,234.7478,1,2,235.7471,0,7,7,7,1,0,0,0,1,,,,,,,,,,,,,,,,,,,,,,,,,,,,,,,,,,,,,,,,,
,,654cee478454c59efad0196c,65af558ab1b2d753c0180a0a,2024-01-23_06h00.42.886,bars,2023.2.3,Win32,58.82352941,657b66ea316d21385b68909f,,,,,,,,,,,,,,,,,,,,,,,,,,,,,,,,,,,,,,,,,,235.7603,236.6974,right,0.9287,,236.6975,0,2,237.6968,0,8,8,8,1,0,2,1,0,,,,,,,,,,,,,,,,,,,,,,,,,,,,,,,,,,,,,,,,,
,,654cee478454c59efad0196c,65af558ab1b2d753c0180a0a,2024-01-23_06h00.42.886,bars,2023.2.3,Win32,58.82352941,657b66ea316d21385b68909f,,,,,,,,,,,,,,,,,,,,,,,,,,,,,,,,,,,,,,,,,,237.6973,239.0471,left,1.3321,,239.0472,2,1,240.0465,0,9,9,9,1,2,4,2,3,,,,,,,,,,,,,,,,,,,,,,,,,,,,,,,,,,,,,,,,,
,,654cee478454c59efad0196c,65af558ab1b2d753c0180a0a,2024-01-23_06h00.42.886,bars,2023.2.3,Win32,58.82352941,657b66ea316d21385b68909f,,,,,,,,,,,,,,,,,,,,,,,,,,,,,,,,,,,,,,,,,,240.0593,243.18,left,3.1062,,243.1801,0,1,244.1793,0,10,10,10,1,0,2,0,3,,,,,,,,,,,,,,,,,,,,,,,,,,,,,,,,,,,,,,,,,
,,654cee478454c59efad0196c,65af558ab1b2d753c0180a0a,2024-01-23_06h00.42.886,bars,2023.2.3,Win32,58.82352941,657b66ea316d21385b68909f,,,,,,,,,,,,,,,,,,,,,,,,,,,,,,,,,,,,,,,,,,244.1915,244.6464,right,0.4435,,244.6466,3,2,245.6458,0,11,11,11,1,0,4,0,3,,,,,,,,,,,,,,,,,,,,,,,,,,,,,,,,,,,,,,,,,
,,654cee478454c59efad0196c,65af558ab1b2d753c0180a0a,2024-01-23_06h00.42.886,bars,2023.2.3,Win32,58.82352941,657b66ea316d21385b68909f,,,,,,,,,,,,,,,,,,,,,,,,,,,,,,,,,,,,,,,,,,245.6461,246.6294,right,0.9696,,246.6295,6,2,247.6288,0,12,12,12,1,2,6,1,6,,,,,,,,,,,,,,,,,,,,,,,,,,,,,,,,,,,,,,,,,
,,654cee478454c59efad0196c,65af558ab1b2d753c0180a0a,2024-01-23_06h00.42.886,bars,2023.2.3,Win32,58.82352941,657b66ea316d21385b68909f,,,,,,,,,,,,,,,,,,,,,,,,,,,,,,,,,,,,,,,,,,247.6294,248.3459,right,0.7008,,248.346,3,2,249.3453,0,13,13,13,1,0,4,1,3,,,,,,,,,,,,,,,,,,,,,,,,,,,,,,,,,,,,,,,,,
,,654cee478454c59efad0196c,65af558ab1b2d753c0180a0a,2024-01-23_06h00.42.886,bars,2023.2.3,Win32,58.82352941,657b66ea316d21385b68909f,,,,,,,,,,,,,,,,,,,,,,,,,,,,,,,,,,,,,,,,,,249.3457,249.7123,left,0.3512,,249.7125,2,1,250.7116,0,14,14,14,1,2,6,2,7,,,,,,,,,,,,,,,,,,,,,,,,,,,,,,,,,,,,,,,,,
,,654cee478454c59efad0196c,65af558ab1b2d753c0180a0a,2024-01-23_06h00.42.886,bars,2023.2.3,Win32,58.82352941,657b66ea316d21385b68909f,,,,,,,,,,,,,,,,,,,,,,,,,,,,,,,,,,,,,,,,,,250.7121,253.3785,right,2.6481,,253.3786,9,2,254.3779,0,15,15,15,1,4,8,3,9,,,,,,,,,,,,,,,,,,,,,,,,,,,,,,,,,,,,,,,,,
,,654cee478454c59efad0196c,65af558ab1b2d753c0180a0a,2024-01-23_06h00.42.886,bars,2023.2.3,Win32,58.82352941,657b66ea316d21385b68909f,,,,,,,,,,,,,,,,,,,,,,,,,,,,,,,,,,,,,,,,,,254.391,257.0118,right,2.6115,,257.0118,7,2,258.0108,0,16,16,16,1,6,6,7,7,,,,,,,,,,,,,,,,,,,,,,,,,,,,,,,,,,,,,,,,,
,,654cee478454c59efad0196c,65af558ab1b2d753c0180a0a,2024-01-23_06h00.42.886,bars,2023.2.3,Win32,58.82352941,657b66ea316d21385b68909f,,,,,,,,,,,,,,,,,,,,,,,,,,,,,,,,,,,,,,,,,,258.0249,258.4125,left,0.3803,,258.4127,9,1,259.4106,0,17,17,17,1,8,4,9,5,,,,,,,,,,,,,,,,,,,,,,,,,,,,,,,,,,,,,,,,,
,,654cee478454c59efad0196c,65af558ab1b2d753c0180a0a,2024-01-23_06h00.42.886,bars,2023.2.3,Win32,58.82352941,657b66ea316d21385b68909f,,,,,,,,,,,,,,,,,,,,,,,,,,,,,,,,,,,,,,,,,,259.411,261.0109,right,1.5843,,261.0109,1,2,262.0103,0,18,18,18,1,6,2,5,1,,,,,,,,,,,,,,,,,,,,,,,,,,,,,,,,,,,,,,,,,
,,654cee478454c59efad0196c,65af558ab1b2d753c0180a0a,2024-01-23_06h00.42.886,bars,2023.2.3,Win32,58.82352941,657b66ea316d21385b68909f,,,,,,,,,,,,,,,,,,,,,,,,,,,,,,,,,,,,,,,,,,262.0234,262.3441,left,0.3047,,262.3442,7,1,263.3434,0,19,19,19,1,8,0,7,0,,,,,,,,,,,,,,,,,,,,,,,,,,,,,,,,,,,,,,,,,
,,654cee478454c59efad0196c,65af558ab1b2d753c0180a0a,2024-01-23_06h00.42.886,bars,2023.2.3,Win32,58.82352941,657b66ea316d21385b68909f,,,,,,,,,,,,,,,,,,,,,,,,,,,,,,,,,,,,,,,,,,,,,,,,,,,,,,,,,,,,263.3443,299.6587,space,36.2821,,,,,,,,,,,,,,,,,,,,,,,,,,,,,,,,,,,,,
,,654cee478454c59efad0196c,65af558ab1b2d753c0180a0a,2024-01-23_06h00.42.886,bars,2023.2.3,Win32,58.82352941,657b66ea316d21385b68909f,,,,,,,,,,,301.2629,302.256,,,302.7571,303.0061,,32,32,,,,,,,,,,,,,,,,bars/030.png,bars/mask007.png,,,,,,,,,,,,0,2,,,,,,,3,6,4,4,,,,,,299.6756,301.258,space,1.5671,,302.2572,302.757,303.0074,311.3648,space,8.3337,,311.3652,72,33,312.3538,312.3542,320.6395,space,8.2478,,0,0,0,0,1,140,65,,,,,,,,
,,654cee478454c59efad0196c,65af558ab1b2d753c0180a0a,2024-01-23_06h00.42.886,bars,2023.2.3,Win32,58.82352941,657b66ea316d21385b68909f,,,,,,,,,,,320.6513,321.6536,,,322.154,322.4033,,63,63,,,,,,,,,,,,,,,,bars/034.png,bars/mask005.png,,,,,,,,,,,,2,2,,,,,,,1,4,1,2,,,,,,,,,,,321.6539,322.1538,322.4035,326.0609,space,3.6337,,326.061,62,2,327.0528,327.053,336.9605,space,9.8828,,0,1,1,1,1,125,65,,,,,,,,
,,654cee478454c59efad0196c,65af558ab1b2d753c0180a0a,2024-01-23_06h00.42.886,bars,2023.2.3,Win32,58.82352941,657b66ea316d21385b68909f,,,,,,,,,,,336.9738,337.968,,,338.4682,338.7178,,50,50,,,,,,,,,,,,,,,,bars/039.png,bars/mask003.png,,,,,,,,,,,,0,2,,,,,,,0,2,0,3,,,,,,,,,,,337.9682,338.468,338.718,341.9686,space,3.2238,,341.9691,55,55,342.9671,342.9674,348.4506,space,5.451,,0,2,2,2,1,175,105,,,,,,,,
,,654cee478454c59efad0196c,65af558ab1b2d753c0180a0a,2024-01-23_06h00.42.886,bars,2023.2.3,Win32,58.82352941,657b66ea316d21385b68909f,,,,,,,,,,,348.4629,349.4679,,,349.967,350.2173,,157,157,,,,,,,,,,,,,,,,bars/012.png,bars/mask001.png,,,,,,,,,,,,0,2,,,,,,,2,0,1,1,,,,,,,,,,,349.4683,349.9667,350.2177,353.8495,space,3.6003,,353.8498,67,38,354.8491,354.8491,363.7826,space,8.9009,,0,3,3,3,1,90,15,,,,,,,,
,,654cee478454c59efad0196c,65af558ab1b2d753c0180a0a,2024-01-23_06h00.42.886,bars,2023.2.3,Win32,58.82352941,657b66ea316d21385b68909f,,,,,,,,,,,363.7954,364.7977,,,365.2982,365.5486,,90,90,,,,,,,,,,,,,,,,bars/048.png,bars/mask001.png,,,,,,,,,,,,0,1,,,,,,,0,0,0,1,,,,,,,,,,,364.7979,365.298,365.5488,368.6727,space,3.1013,,368.6728,40,85,369.6638,369.6641,371.6143,space,1.9199,,0,4,4,4,1,50,175,,,,,,,,
,,654cee478454c59efad0196c,65af558ab1b2d753c0180a0a,2024-01-23_06h00.42.886,bars,2023.2.3,Win32,58.82352941,657b66ea316d21385b68909f,,,,,,,,,,,371.616,372.6136,,,373.1137,373.3633,,2,182,,,,,,,,,,,,,,,,bars/037.png,bars/mask005.png,,,,,,,,,,,,0,1,,,,,,,0,0,0,0,,,,,,,,,,,372.6138,373.1135,373.3636,377.3712,space,3.984,,377.3712,32,77,378.3628,378.3631,383.8296,space,5.4342,,0,5,5,5,1,150,105,,,,,,,,
,,654cee478454c59efad0196c,65af558ab1b2d753c0180a0a,2024-01-23_06h00.42.886,bars,2023.2.3,Win32,58.82352941,657b66ea316d21385b68909f,,,,,,,,,,,383.8418,384.8453,,,385.3457,385.5953,,155,-25,,,,,,,,,,,,,,,,bars/020.png,bars/mask007.png,,,,,,,,,,,,2,2,,,,,,,0,2,2,3,,,,,,,,,,,384.8456,385.3455,385.5956,388.262,space,2.6365,,388.2623,40,15,389.2612,389.2614,392.66,space,3.3539,,0,6,6,6,1,115,170,,,,,,,,
,,654cee478454c59efad0196c,65af558ab1b2d753c0180a0a,2024-01-23_06h00.42.886,bars,2023.2.3,Win32,58.82352941,657b66ea316d21385b68909f,,,,,,,,,,,392.6726,393.6763,,,394.1765,394.4263,,6,186,,,,,,,,,,,,,,,,bars/010.png,bars/mask006.png,,,,,,,,,,,,0,1,,,,,,,2,0,1,0,,,,,,,,,,,393.6764,394.1764,394.4264,397.776,space,3.3338,,397.7761,21,49,398.7758,398.7758,401.1422,space,2.3261,,0,7,7,7,1,165,55,,,,,,,,
,,654cee478454c59efad0196c,65af558ab1b2d753c0180a0a,2024-01-23_06h00.42.886,bars,2023.2.3,Win32,58.82352941,657b66ea316d21385b68909f,,,,,,,,,,,401.1429,402.1419,,,402.6419,402.8918,,160,-20,,,,,,,,,,,,,,,,bars/037.png,bars/mask000.png,,,,,,,,,,,,3,1,,,,,,,4,2,4,1,,,,,,,,,,,402.1419,402.6418,402.8918,405.8083,space,2.9008,,405.8085,10,55,406.808,406.808,411.4076,space,4.5691,,0,8,8,8,1,150,105,,,,,,,,
,,654cee478454c59efad0196c,65af558ab1b2d753c0180a0a,2024-01-23_06h00.42.886,bars,2023.2.3,Win32,58.82352941,657b66ea316d21385b68909f,,,,,,,,,,,411.4207,412.4239,,,412.9244,413.1737,,149,-31,,,,,,,,,,,,,,,,bars/034.png,bars/mask003.png,,,,,,,,,,,,0,1,,,,,,,2,0,2,0,,,,,,,,,,,412.4239,412.9243,413.1738,419.5232,space,6.3397,,419.5233,24,84,420.5229,420.5229,423.356,space,2.8088,,0,9,9,9,1,125,65,,,,,,,,
,,654cee478454c59efad0196c,65af558ab1b2d753c0180a0a,2024-01-23_06h00.42.886,bars,2023.2.3,Win32,58.82352941,657b66ea316d21385b68909f,,,,,,,,,,,423.3566,424.3556,,,424.8556,425.1055,,131,131,,,,,,,,,,,,,,,,bars/017.png,bars/mask008.png,,,,,,,,,,,,2,1,,,,,,,4,0,4,0,,,,,,,,,,,424.3557,424.8556,425.1055,428.0054,space,2.8821,,428.0055,14,86,429.0051,429.0051,431.6383,space,2.6028,,0,10,10,10,1,145,45,,,,,,,,
,,654cee478454c59efad0196c,65af558ab1b2d753c0180a0a,2024-01-23_06h00.42.886,bars,2023.2.3,Win32,58.82352941,657b66ea316d21385b68909f,,,,,,,,,,,431.6388,432.6379,,,433.138,433.3878,,139,139,,,,,,,,,,,,,,,,bars/027.png,bars/mask008.png,,,,,,,,,,,,0,1,,,,,,,6,0,6,0,,,,,,,,,,,432.6379,433.1379,433.3878,437.2541,space,3.8525,,437.2542,29,89,438.2539,438.2539,450.4857,space,12.2026,,0,11,11,11,1,110,50,,,,,,,,
,,654cee478454c59efad0196c,65af558ab1b2d753c0180a0a,2024-01-23_06h00.42.886,bars,2023.2.3,Win32,58.82352941,657b66ea316d21385b68909f,,,,,,,,,,,450.5004,451.502,,,452.0021,452.2521,,115,115,,,,,,,,,,,,,,,,bars/017.png,bars/mask007.png,,,,,,,,,,,,0,1,,,,,,,4,0,5,1,,,,,,,,,,,451.5021,452.0021,452.2522,455.6683,space,3.401,,455.6683,30,70,456.6682,456.6682,458.1681,space,1.4715,,0,12,12,12,1,145,45,,,,,,,,
,,654cee478454c59efad0196c,65af558ab1b2d753c0180a0a,2024-01-23_06h00.42.886,bars,2023.2.3,Win32,58.82352941,657b66ea316d21385b68909f,,,,,,,,,,,458.1687,459.1678,,,459.6677,459.9177,,162,162,,,,,,,,,,,,,,,,bars/048.png,bars/mask004.png,,,,,,,,,,,,0,2,,,,,,,6,0,6,0,,,,,,,,,,,459.1678,459.6677,459.9177,461.6842,space,1.7506,,461.6843,68,13,462.684,462.684,465.0339,space,2.3187,,0,13,13,13,1,50,175,,,,,,,,
,,654cee478454c59efad0196c,65af558ab1b2d753c0180a0a,2024-01-23_06h00.42.886,bars,2023.2.3,Win32,58.82352941,657b66ea316d21385b68909f,,,,,,,,,,,465.0344,466.0339,,,466.5336,466.7837,,0,0,,,,,,,,,,,,,,,,bars/014.png,bars/mask004.png,,,,,,,,,,,,0,2,,,,,,,4,0,4,0,,,,,,,,,,,466.0339,466.5336,466.7837,470.8664,space,4.0653,,470.8664,80,0,471.866,471.8661,477.4155,space,5.5205,,0,14,14,14,1,80,0,,,,,,,,
,,654cee478454c59efad0196c,65af558ab1b2d753c0180a0a,2024-01-23_06h00.42.886,bars,2023.2.3,Win32,58.82352941,657b66ea316d21385b68909f,,,,,,,,,,,477.4285,478.4318,,,478.9319,479.1818,,0,180,,,,,,,,,,,,,,,,bars/014.png,bars/mask007.png,,,,,,,,,,,,3,2,,,,,,,2,2,1,3,,,,,,,,,,,478.4319,478.9318,479.1819,484.8312,space,5.6335,,484.8312,80,0,485.8309,485.8309,488.1975,space,2.3395,,0,15,15,15,1,80,0,,,,,,,,
,,654cee478454c59efad0196c,65af558ab1b2d753c0180a0a,2024-01-23_06h00.42.886,bars,2023.2.3,Win32,58.82352941,657b66ea316d21385b68909f,,,,,,,,,,,488.1981,489.1971,,,489.6971,489.9471,,1,181,,,,,,,,,,,,,,,,bars/042.png,bars/mask005.png,,,,,,,,,,,,0,1,,,,,,,4,4,5,5,,,,,,,,,,,489.1972,489.6971,489.9471,493.3801,space,3.4154,,493.3802,36,74,494.3798,494.3798,496.5887,space,2.1765,,0,16,16,16,1,145,75,,,,,,,,
,,654cee478454c59efad0196c,65af558ab1b2d753c0180a0a,2024-01-23_06h00.42.886,bars,2023.2.3,Win32,58.82352941,657b66ea316d21385b68909f,,,,,,,,,,,496.6019,497.597,,,498.097,498.3471,,150,150,,,,,,,,,,,,,,,,bars/046.png,bars/mask006.png,,,,,,,,,,,,3,1,,,,,,,6,6,4,6,,,,,,,,,,,497.5972,498.0968,498.3474,501.6803,space,3.3021,,501.6806,5,65,502.6796,502.6797,505.1811,space,2.4656,,0,17,17,17,1,155,85,,,,,,,,
,,654cee478454c59efad0196c,65af558ab1b2d753c0180a0a,2024-01-23_06h00.42.886,bars,2023.2.3,Win32,58.82352941,657b66ea316d21385b68909f,,,,,,,,,,,505.182,506.1792,,,506.6793,506.9291,,143,143,,,,,,,,,,,,,,,,bars/046.png,bars/mask009.png,,,,,,,,,,,,5,1,,,,,,,8,4,9,4,,,,,,,,,,,506.1795,506.6791,506.9292,510.9032,space,3.9656,,510.9033,12,58,511.9048,511.9049,515.3939,space,3.4532,,0,18,18,18,1,155,85,,,,,,,,
,,654cee478454c59efad0196c,65af558ab1b2d753c0180a0a,2024-01-23_06h00.42.886,bars,2023.2.3,Win32,58.82352941,657b66ea316d21385b68909f,,,,,,,,,,,515.4068,516.4103,,,516.9103,517.1602,,164,164,,,,,,,,,,,,,,,,bars/019.png,bars/mask008.png,,,,,,,,,,,,0,2,,,,,,,6,6,6,7,,,,,,,,,,,516.4104,516.9102,517.1603,520.3934,space,3.2174,,520.3934,61,59,521.3929,521.393,525.3759,space,3.9448,,0,19,19,19,1,45,105,,,,,,,,
,,654cee478454c59efad0196c,65af558ab1b2d753c0180a0a,2024-01-23_06h00.42.886,bars,2023.2.3,Win32,58.82352941,657b66ea316d21385b68909f,,,,,,,,,,,525.3898,526.3923,,,526.8922,527.1422,,122,122,,,,,,,,,,,,,,,,bars/007.png,bars/mask003.png,,,,,,,,,,,,0,1,,,,,,,4,8,4,6,,,,,,,,,,,526.3923,526.8922,527.1423,532.6583,space,5.5007,,532.6583,53,67,533.658,533.6581,535.1081,space,1.4233,,0,20,20,20,1,175,55,,,,,,,,
,,654cee478454c59efad0196c,65af558ab1b2d753c0180a0a,2024-01-23_06h00.42.886,bars,2023.2.3,Win32,58.82352941,657b66ea316d21385b68909f,,,,,,,,,,,535.1086,536.1077,,,536.6077,536.8576,,172,172,,,,,,,,,,,,,,,,bars/020.png,bars/mask008.png,,,,,,,,,,,,9,2,,,,,,,2,10,2,10,,,,,,,,,,,536.1078,536.6076,536.8577,540.8238,space,3.9544,,540.824,57,2,541.8236,541.8236,549.6394,space,7.7791,,0,21,21,21,1,115,170,,,,,,,,
,,654cee478454c59efad0196c,65af558ab1b2d753c0180a0a,2024-01-23_06h00.42.886,bars,2023.2.3,Win32,58.82352941,657b66ea316d21385b68909f,,,,,,,,,,,549.6545,550.6557,,,551.1558,551.4057,,170,170,,,,,,,,,,,,,,,,bars/024.png,bars/mask007.png,,,,,,,,,,,,8,2,,,,,,,0,8,0,8,,,,,,,,,,,550.6558,551.1557,551.4057,556.5218,space,5.1004,,556.5219,50,0,557.5215,557.5216,561.3711,space,3.8236,,0,22,22,22,1,120,170,,,,,,,,
,,654cee478454c59efad0196c,65af558ab1b2d753c0180a0a,2024-01-23_06h00.42.886,bars,2023.2.3,Win32,58.82352941,657b66ea316d21385b68909f,,,,,,,,,,,561.3836,562.3876,,,562.8876,563.1375,,167,-13,,,,,,,,,,,,,,,,bars/037.png,bars/mask005.png,,,,,,,,,,,,0,1,,,,,,,0,10,0,10,,,,,,,,,,,562.3876,562.8875,563.1375,567.0371,space,3.885,,567.0371,17,62,568.0368,568.0369,572.1201,space,4.0435,,0,23,23,23,1,150,105,,,,,,,,
,,654cee478454c59efad0196c,65af558ab1b2d753c0180a0a,2024-01-23_06h00.42.886,bars,2023.2.3,Win32,58.82352941,657b66ea316d21385b68909f,,,,,,,,,,,572.1326,573.1365,,,573.6363,573.8862,,144,144,,,,,,,,,,,,,,,,bars/023.png,bars/mask001.png,,,,,,,,,,,,0,2,,,,,,,0,10,0,10,,,,,,,,,,,573.1366,573.6363,573.8863,578.2358,space,4.3341,,578.2359,56,29,579.2357,579.2357,581.069,space,1.8027,,0,24,24,24,1,20,115,,,,,,,,
,,654cee478454c59efad0196c,65af558ab1b2d753c0180a0a,2024-01-23_06h00.42.886,bars,2023.2.3,Win32,58.82352941,657b66ea316d21385b68909f,,,,,,,,,,,581.0705,582.0686,,,582.5686,582.8184,,117,117,,,,,,,,,,,,,,,,bars/030.png,bars/mask002.png,,,,,,,,,,,,1,1,,,,,,,2,8,3,7,,,,,,,,,,,582.0686,582.5686,582.8184,584.8043,space,1.9749,,584.8044,23,52,585.8013,585.8013,589.6511,space,3.8073,,0,25,25,25,1,140,65,,,,,,,,
,,654cee478454c59efad0196c,65af558ab1b2d753c0180a0a,2024-01-23_06h00.42.886,bars,2023.2.3,Win32,58.82352941,657b66ea316d21385b68909f,,,,,,,,,,,589.6517,590.6505,,,591.1505,591.4005,,134,134,,,,,,,,,,,,,,,,bars/025.png,bars/mask006.png,,,,,,,,,,,,0,1,,,,,,,0,6,0,6,,,,,,,,,,,590.6505,591.1505,591.4005,596.6499,space,5.2426,,596.65,29,86,597.6496,597.6497,601.4827,space,3.8094,,0,26,26,26,1,105,40,,,,,,,,
,,654cee478454c59efad0196c,65af558ab1b2d753c0180a0a,2024-01-23_06h00.42.886,bars,2023.2.3,Win32,58.82352941,657b66ea316d21385b68909f,,,,,,,,,,,601.4953,602.499,,,602.999,603.2489,,117,117,,,,,,,,,,,,,,,,bars/012.png,bars/mask003.png,,,,,,,,,,,,0,1,,,,,,,2,8,1,6,,,,,,,,,,,602.499,602.9989,603.2489,604.8822,space,1.6172,,604.8822,27,78,605.8819,605.8819,607.5318,space,1.6214,,0,27,27,27,1,90,15,,,,,,,,
,,654cee478454c59efad0196c,65af558ab1b2d753c0180a0a,2024-01-23_06h00.42.886,bars,2023.2.3,Win32,58.82352941,657b66ea316d21385b68909f,,,,,,,,,,,607.5325,608.5316,,,609.0315,609.2815,,90,90,,,,,,,,,,,,,,,,bars/001.png,bars/mask000.png,,,,,,,,,,,,4,2,,,,,,,4,6,3,5,,,,,,,,,,,608.5316,609.0315,609.2816,611.6151,space,2.3239,,611.6151,40,5,612.6143,612.6144,614.1476,space,1.4907,,0,28,28,28,1,130,85,,,,,,,,
,,654cee478454c59efad0196c,65af558ab1b2d753c0180a0a,2024-01-23_06h00.42.886,bars,2023.2.3,Win32,58.82352941,657b66ea316d21385b68909f,,,,,,,,,,,614.1482,615.1473,,,615.6473,615.8972,,88,88,,,,,,,,,,,,,,,,bars/029.png,bars/mask004.png,,,,,,,,,,,,2,1,,,,,,,2,8,2,7,,,,,,,,,,,615.1474,615.6473,615.8973,621.28,space,5.3668,,621.28,2,43,622.2798,622.2798,625.4128,space,3.0968,,0,29,29,29,1,90,45,,,,,,,,
,,654cee478454c59efad0196c,65af558ab1b2d753c0180a0a,2024-01-23_06h00.42.886,bars,2023.2.3,Win32,58.82352941,657b66ea316d21385b68909f,,,,,,,,,,,625.4133,626.4125,,,626.9127,627.1624,,86,86,,,,,,,,,,,,,,,,bars/007.png,bars/mask009.png,,,,,,,,,,,,0,2,,,,,,,0,10,1,10,,,,,,,,,,,626.4126,626.9126,627.1624,632.4452,space,5.2668,,632.4452,89,31,633.445,633.445,634.7454,space,1.261,,0,30,30,30,1,175,55,,,,,,,,
,,654cee478454c59efad0196c,65af558ab1b2d753c0180a0a,2024-01-23_06h00.42.886,bars,2023.2.3,Win32,58.82352941,657b66ea316d21385b68909f,,,,,,,,,,,634.746,635.7447,,,636.2446,636.4946,,33,33,,,,,,,,,,,,,,,,bars/010.png,bars/mask005.png,,,,,,,,,,,,2,2,,,,,,,2,8,1,7,,,,,,,,,,,635.7447,636.2446,636.4947,641.044,space,4.5358,,641.0441,48,22,642.0438,642.0439,644.127,space,2.0523,,0,31,31,31,1,165,55,,,,,,,,
,,654cee478454c59efad0196c,65af558ab1b2d753c0180a0a,2024-01-23_06h00.42.886,bars,2023.2.3,Win32,58.82352941,657b66ea316d21385b68909f,,,,,,,,,,,644.1275,645.1268,,,645.6267,645.8767,,45,225,,,,,,,,,,,,,,,,bars/027.png,bars/mask000.png,,,,,,,,,,,,5,2,,,,,,,0,6,0,6,,,,,,,,,,,645.1268,645.6267,645.8767,649.8429,space,3.9503,,649.8431,65,5,650.8426,650.8427,653.7424,space,2.871,,0,32,32,32,1,110,50,,,,,,,,
,,654cee478454c59efad0196c,65af558ab1b2d753c0180a0a,2024-01-23_06h00.42.886,bars,2023.2.3,Win32,58.82352941,657b66ea316d21385b68909f,,,,,,,,,,,653.7429,654.7422,,,655.2422,655.492,,35,215,,,,,,,,,,,,,,,,bars/032.png,bars/mask000.png,,,,,,,,,,,,4,2,,,,,,,2,8,4,8,,,,,,,,,,,654.7423,655.2421,655.4921,659.4916,space,3.9839,,659.4917,90,15,660.4914,660.4915,662.2413,space,1.7201,,0,33,33,33,1,125,20,,,,,,,,
,,654cee478454c59efad0196c,65af558ab1b2d753c0180a0a,2024-01-23_06h00.42.886,bars,2023.2.3,Win32,58.82352941,657b66ea316d21385b68909f,,,,,,,,,,,662.2419,663.241,,,663.7411,663.991,,24,24,,,,,,,,,,,,,,,,bars/035.png,bars/mask004.png,,,,,,,,,,,,0,1,,,,,,,0,10,0,10,,,,,,,,,,,663.241,663.741,663.991,666.1074,space,2.1007,,666.1075,29,36,667.1072,667.1072,669.0241,space,1.8762,,0,34,34,34,1,175,60,,,,,,,,
,,654cee478454c59efad0196c,65af558ab1b2d753c0180a0a,2024-01-23_06h00.42.886,bars,2023.2.3,Win32,58.82352941,657b66ea316d21385b68909f,,,,,,,,,,,669.0247,670.0235,,,670.5235,670.7734,,166,-14,,,,,,,,,,,,,,,,bars/013.png,bars/mask009.png,,,,,,,,,,,,2,2,,,,,,,0,10,0,8,,,,,,,,,,,670.0235,670.5235,670.7734,673.0399,space,2.2529,,673.04,89,24,674.0396,674.0396,675.191,space,1.1197,,0,35,35,35,1,75,10,,,,,,,,
,,654cee478454c59efad0196c,65af558ab1b2d753c0180a0a,2024-01-23_06h00.42.886,bars,2023.2.3,Win32,58.82352941,657b66ea316d21385b68909f,,,,,,,,,,,675.1929,676.193,,,676.6819,676.9243,,14,194,,,,,,,,,,,,,,,,bars/048.png,bars/mask000.png,,,,,,,,,,,,3,2,,,,,,,0,10,0,9,,,,,,,,,,,676.193,676.6818,676.9245,679.3427,space,2.3939,,679.3427,36,19,680.3397,680.3399,681.6237,space,1.257,,0,36,36,36,1,50,175,,,,,,,,
,,654cee478454c59efad0196c,65af558ab1b2d753c0180a0a,2024-01-23_06h00.42.886,bars,2023.2.3,Win32,58.82352941,657b66ea316d21385b68909f,,,,,,,,,,,681.6254,682.6228,,,683.123,683.3798,,173,173,,,,,,,,,,,,,,,,bars/032.png,bars/mask006.png,,,,,,,,,,,,1,2,,,,,,,2,8,2,8,,,,,,,,,,,682.6229,683.1228,683.3799,685.7728,space,2.3737,,685.7731,48,27,686.7721,686.7723,689.3412,space,2.5351,,0,37,37,37,1,125,20,,,,,,,,
,,654cee478454c59efad0196c,65af558ab1b2d753c0180a0a,2024-01-23_06h00.42.886,bars,2023.2.3,Win32,58.82352941,657b66ea316d21385b68909f,,,,,,,,,,,689.3416,690.3388,,,690.8385,691.0884,,30,210,,,,,,,,,,,,,,,,bars/048.png,bars/mask000.png,,,,,,,,,,,,0,1,,,,,,,0,6,0,7,,,,,,,,,,,690.339,690.8384,691.0886,695.9891,space,4.8681,,695.9896,20,35,696.9876,696.9878,699.7698,space,2.7447,,0,38,38,38,1,50,175,,,,,,,,
,,654cee478454c59efad0196c,65af558ab1b2d753c0180a0a,2024-01-23_06h00.42.886,bars,2023.2.3,Win32,58.82352941,657b66ea316d21385b68909f,,,,,,,,,,,699.7702,700.7695,,,701.2695,701.5194,,43,43,,,,,,,,,,,,,,,,bars/046.png,bars/mask006.png,,,,,,,,,,,,0,2,,,,,,,0,4,1,3,,,,,,,,,,,700.7695,701.2695,701.5194,705.169,space,3.6349,,705.1691,68,42,706.1688,706.1688,707.302,space,1.1002,,0,39,39,39,1,155,85,,,,,,,,
,,654cee478454c59efad0196c,65af558ab1b2d753c0180a0a,2024-01-23_06h00.42.886,bars,2023.2.3,Win32,58.82352941,657b66ea316d21385b68909f,,,,,,,,,,,707.3026,708.3018,,,708.8017,709.0517,,91,91,,,,,,,,,,,,,,,,bars/009.png,bars/mask009.png,,,,,,,,,,,,3,2,,,,,,,0,6,1,6,,,,,,,,,,,708.3018,708.8017,709.0517,712.5514,space,3.4837,,712.5515,76,14,713.5511,713.5511,715.001,space,1.42,,0,40,40,40,1,15,105,,,,,,,,
,,654cee478454c59efad0196c,65af558ab1b2d753c0180a0a,2024-01-23_06h00.42.886,bars,2023.2.3,Win32,58.82352941,657b66ea316d21385b68909f,,,,,,,,,,,715.0018,716.0008,,,716.5008,716.7508,,110,110,,,,,,,,,,,,,,,,bars/040.png,bars/mask001.png,,,,,,,,,,,,0,1,,,,,,,2,4,2,3,,,,,,,,,,,716.0008,716.5008,716.7508,721.467,space,4.7004,,721.4671,30,75,722.4667,722.4668,723.7832,space,1.2816,,0,41,41,41,1,140,5,,,,,,,,
,,654cee478454c59efad0196c,65af558ab1b2d753c0180a0a,2024-01-23_06h00.42.886,bars,2023.2.3,Win32,58.82352941,657b66ea316d21385b68909f,,,,,,,,,,,723.7839,724.783,,,725.283,725.5329,,157,157,,,,,,,,,,,,,,,,bars/014.png,bars/mask006.png,,,,,,,,,,,,2,2,,,,,,,4,6,3,7,,,,,,,,,,,724.783,725.283,725.5329,727.2829,space,1.7355,,727.283,77,23,728.2826,728.2827,730.7158,space,2.4033,,0,42,42,42,1,80,0,,,,,,,,
,,654cee478454c59efad0196c,65af558ab1b2d753c0180a0a,2024-01-23_06h00.42.886,bars,2023.2.3,Win32,58.82352941,657b66ea316d21385b68909f,,,,,,,,,,,730.728,731.732,,,732.232,732.482,,0,180,,,,,,,,,,,,,,,,bars/010.png,bars/mask007.png,,,,,,,,,,,,2,1,,,,,,,2,4,3,4,,,,,,,,,,,731.7321,732.232,732.4821,738.2647,space,5.7706,,738.2648,15,55,739.2644,739.2645,740.7643,space,1.4673,,0,43,43,43,1,165,55,,,,,,,,
,,654cee478454c59efad0196c,65af558ab1b2d753c0180a0a,2024-01-23_06h00.42.886,bars,2023.2.3,Win32,58.82352941,657b66ea316d21385b68909f,,,,,,,,,,,740.7649,741.7641,,,742.2641,742.514,,160,160,,,,,,,,,,,,,,,,bars/028.png,bars/mask001.png,,,,,,,,,,,,0,2,,,,,,,0,2,0,0,,,,,,,,,,,741.7641,742.264,742.514,745.8471,space,3.3178,,745.8471,65,40,746.8468,746.8468,747.9469,space,1.0583,,0,44,44,44,1,45,120,,,,,,,,
,,654cee478454c59efad0196c,65af558ab1b2d753c0180a0a,2024-01-23_06h00.42.886,bars,2023.2.3,Win32,58.82352941,657b66ea316d21385b68909f,,,,,,,,,,,747.9474,748.9465,,,749.4464,749.6963,,136,-44,,,,,,,,,,,,,,,,bars/018.png,bars/mask004.png,,,,,,,,,,,,1,1,,,,,,,2,4,2,3,,,,,,,,,,,748.9465,749.4464,749.6963,754.4959,space,4.7898,,754.496,14,46,755.4957,755.4957,757.0293,space,1.4979,,0,45,45,45,1,150,90,,,,,,,,
,,654cee478454c59efad0196c,65af558ab1b2d753c0180a0a,2024-01-23_06h00.42.886,bars,2023.2.3,Win32,58.82352941,657b66ea316d21385b68909f,,,,,,,,,,,757.0304,758.0286,,,758.5286,758.7785,,150,-30,,,,,,,,,,,,,,,,bars/045.png,bars/mask009.png,,,,,,,,,,,,0,2,,,,,,,4,6,4,6,,,,,,,,,,,758.0286,758.5286,758.7785,764.228,space,5.4324,,764.228,50,40,765.2277,765.2277,767.6776,space,2.4126,,0,46,46,46,1,100,10,,,,,,,,
,,654cee478454c59efad0196c,65af558ab1b2d753c0180a0a,2024-01-23_06h00.42.886,bars,2023.2.3,Win32,58.82352941,657b66ea316d21385b68909f,,,,,,,,,,,767.69,768.6939,,,769.1938,769.4438,,25,25,,,,,,,,,,,,,,,,bars/001.png,bars/mask005.png,,,,,,,,,,,,0,2,,,,,,,2,8,2,7,,,,,,,,,,,768.6939,769.1938,769.4439,771.0604,space,1.6056,,771.0604,75,60,772.0602,772.0602,773.0101,space,0.9217,,0,47,47,47,1,130,85,,,,,,,,
,,654cee478454c59efad0196c,65af558ab1b2d753c0180a0a,2024-01-23_06h00.42.886,bars,2023.2.3,Win32,58.82352941,657b66ea316d21385b68909f,,,,,,,,,,,773.0106,774.0099,,,774.5099,774.7598,,79,79,,,,,,,,,,,,,,,,bars/012.png,bars/mask002.png,,,,,,,,,,,,1,1,,,,,,,4,6,2,5,,,,,,,,,,,774.0099,774.5098,774.7598,780.7758,space,5.9998,,780.776,11,64,781.7755,781.7756,783.0422,space,1.2229,,0,48,48,48,1,90,15,,,,,,,,
,,654cee478454c59efad0196c,65af558ab1b2d753c0180a0a,2024-01-23_06h00.42.886,bars,2023.2.3,Win32,58.82352941,657b66ea316d21385b68909f,,,,,,,,,,,783.0427,784.0418,,,784.5419,784.7918,,91,91,,,,,,,,,,,,,,,,bars/007.png,bars/mask004.png,,,,,,,,,,,,0,2,,,,,,,2,8,1,8,,,,,,,,,,,784.0419,784.5419,784.7918,789.7412,space,4.9339,,789.7413,84,36,790.7412,790.7413,795.0118,space,4.2167,,0,49,49,49,1,175,55,,,,,,,,
,,654cee478454c59efad0196c,65af558ab1b2d753c0180a0a,2024-01-23_06h00.42.886,bars,2023.2.3,Win32,58.82352941,657b66ea316d21385b68909f,,,,,,,,,,,,,,,,,,,,,,,,,,,,,,,,,,,,,,,,,,,,,,,,,,,,,,,,,,,,,,,,,,,,,,,,,,,,,,,,,,,,,,,,,,,,,795.0253,855.0194,0,0,0,4,1,sequence_tables/blk042.csv
,,654cee478454c59efad0196c,65af558ab1b2d753c0180a0a,2024-01-23_06h00.42.886,bars,2023.2.3,Win32,58.82352941,657b66ea316d21385b68909f,,,,,,,,,,,858.2259,859.2164,,,859.7169,859.9664,,142,142,,,,,,,,,,,,,,,,bars/018.png,bars/mask003.png,,,,,,,,,,,,5,1,,,,,,,8,3,7,2,,,,,,855.0316,858.2202,space,3.1789,,859.2168,859.7167,859.9667,868.9494,space,8.957,,868.9498,8,52,869.9483,869.9485,869.9632,,,,0,0,0,0,1,150,90,,,,,,,,
,,654cee478454c59efad0196c,65af558ab1b2d753c0180a0a,2024-01-23_06h00.42.886,bars,2023.2.3,Win32,58.82352941,657b66ea316d21385b68909f,,,,,,,,,,,869.9634,870.9648,,,871.4652,871.7146,,20,20,,,,,,,,,,,,,,,,bars/006.png,bars/mask001.png,,,,,,,,,,,,3,1,,,,,,,6,5,6,4,,,,,,,,,,,870.9649,871.4649,871.7148,879.3308,space,7.5871,,879.3311,15,80,880.3292,880.3293,880.3437,,,,0,1,1,1,1,35,100,,,,,,,,
,,654cee478454c59efad0196c,65af558ab1b2d753c0180a0a,2024-01-23_06h00.42.886,bars,2023.2.3,Win32,58.82352941,657b66ea316d21385b68909f,,,,,,,,,,,880.344,881.346,,,881.8458,882.0957,,33,33,,,,,,,,,,,,,,,,bars/010.png,bars/mask007.png,,,,,,,,,,,,1,2,,,,,,,8,3,8,3,,,,,,,,,,,881.346,881.8457,882.0958,886.7453,space,4.6336,,886.7454,48,22,887.745,887.745,887.7595,,,,0,2,2,2,1,165,55,,,,,,,,
,,654cee478454c59efad0196c,65af558ab1b2d753c0180a0a,2024-01-23_06h00.42.886,bars,2023.2.3,Win32,58.82352941,657b66ea316d21385b68909f,,,,,,,,,,,887.7598,888.7616,,,889.2615,889.5115,,0,180,,,,,,,,,,,,,,,,bars/004.png,bars/mask009.png,,,,,,,,,,,,1,1,,,,,,,6,5,5,5,,,,,,,,,,,888.7616,889.2615,889.5115,892.3279,space,2.8043,,892.3279,25,55,893.3276,893.3277,893.3421,,,,0,3,3,3,1,25,125,,,,,,,,
,,654cee478454c59efad0196c,65af558ab1b2d753c0180a0a,2024-01-23_06h00.42.886,bars,2023.2.3,Win32,58.82352941,657b66ea316d21385b68909f,,,,,,,,,,,893.3425,894.3441,,,894.8441,895.0941,,148,-32,,,,,,,,,,,,,,,,bars/031.png,bars/mask006.png,,,,,,,,,,,,1,1,,,,,,,8,3,9,3,,,,,,,,,,,894.3442,894.844,895.0941,899.9768,space,4.8681,,899.9768,28,67,900.9766,900.9766,900.9891,,,,0,4,4,4,1,120,35,,,,,,,,
,,654cee478454c59efad0196c,65af558ab1b2d753c0180a0a,2024-01-23_06h00.42.886,bars,2023.2.3,Win32,58.82352941,657b66ea316d21385b68909f,,,,,,,,,,,900.9894,901.9931,,,902.493,902.743,,134,134,,,,,,,,,,,,,,,,bars/003.png,bars/mask003.png,,,,,,,,,,,,2,2,,,,,,,6,1,6,2,,,,,,,,,,,901.9932,902.493,902.7431,905.626,space,2.8689,,905.6261,71,6,906.6258,906.6258,906.6398,,,,0,5,5,5,1,25,140,,,,,,,,
,,654cee478454c59efad0196c,65af558ab1b2d753c0180a0a,2024-01-23_06h00.42.886,bars,2023.2.3,Win32,58.82352941,657b66ea316d21385b68909f,,,,,,,,,,,906.6402,907.6424,,,908.1423,908.3924,,152,152,,,,,,,,,,,,,,,,bars/044.png,bars/mask000.png,,,,,,,,,,,,3,2,,,,,,,4,3,3,3,,,,,,,,,,,907.6424,908.1423,908.3924,910.3756,space,1.9733,,910.3757,77,3,911.3753,911.3753,911.3889,,,,0,6,6,6,1,75,155,,,,,,,,
,,654cee478454c59efad0196c,65af558ab1b2d753c0180a0a,2024-01-23_06h00.42.886,bars,2023.2.3,Win32,58.82352941,657b66ea316d21385b68909f,,,,,,,,,,,911.3891,912.3917,,,912.8917,913.1417,,167,167,,,,,,,,,,,,,,,,bars/027.png,bars/mask008.png,,,,,,,,,,,,0,1,,,,,,,6,1,7,1,,,,,,,,,,,912.3918,912.8916,913.1417,919.0076,space,5.8525,,919.0077,57,63,920.0074,920.0074,920.022,,,,0,7,7,7,1,110,50,,,,,,,,
,,654cee478454c59efad0196c,65af558ab1b2d753c0180a0a,2024-01-23_06h00.42.886,bars,2023.2.3,Win32,58.82352941,657b66ea316d21385b68909f,,,,,,,,,,,920.0222,921.0239,,,921.5239,921.7738,,157,-23,,,,,,,,,,,,,,,,bars/032.png,bars/mask003.png,,,,,,,,,,,,0,1,,,,,,,8,3,9,4,,,,,,,,,,,921.024,921.5239,921.7739,925.5735,space,3.7886,,925.5735,32,43,926.5732,926.5733,926.5864,,,,0,8,8,8,1,125,20,,,,,,,,
,,654cee478454c59efad0196c,65af558ab1b2d753c0180a0a,2024-01-23_06h00.42.886,bars,2023.2.3,Win32,58.82352941,657b66ea316d21385b68909f,,,,,,,,,,,926.5867,927.5897,,,928.0897,928.3397,,90,90,,,,,,,,,,,,,,,,bars/009.png,bars/mask005.png,,,,,,,,,,,,1,2,,,,,,,10,1,8,1,,,,,,,,,,,927.5897,928.0897,928.3397,933.2391,space,4.8888,,933.2391,75,15,934.2389,934.239,934.2537,,,,0,9,9,9,1,15,105,,,,,,,,
,,654cee478454c59efad0196c,65af558ab1b2d753c0180a0a,2024-01-23_06h00.42.886,bars,2023.2.3,Win32,58.82352941,657b66ea316d21385b68909f,,,,,,,,,,,934.254,935.2554,,,935.7554,936.0054,,18,198,,,,,,,,,,,,,,,,bars/044.png,bars/mask007.png,,,,,,,,,,,,0,2,,,,,,,8,3,7,1,,,,,,,,,,,935.2555,935.7554,936.0054,937.9885,space,1.9655,,937.9887,57,43,938.9882,938.9883,939.0021,,,,0,10,10,10,1,75,155,,,,,,,,
,,654cee478454c59efad0196c,65af558ab1b2d753c0180a0a,2024-01-23_06h00.42.886,bars,2023.2.3,Win32,58.82352941,657b66ea316d21385b68909f,,,,,,,,,,,939.0023,940.005,,,940.5047,940.7547,,72,72,,,,,,,,,,,,,,,,bars/041.png,bars/mask000.png,,,,,,,,,,,,1,2,,,,,,,10,1,8,2,,,,,,,,,,,940.0051,940.5047,940.7547,943.0045,space,2.2347,,943.0046,52,13,944.0043,944.0044,944.0058,,,,0,11,11,11,1,20,85,,,,,,,,
,,654cee478454c59efad0196c,65af558ab1b2d753c0180a0a,2024-01-23_06h00.42.886,bars,2023.2.3,Win32,58.82352941,657b66ea316d21385b68909f,,,,,,,,,,,944.007,945.0041,,,945.5041,945.754,,8,188,,,,,,,,,,,,,,,,bars/015.png,bars/mask002.png,,,,,,,,,,,,0,2,,,,,,,10,0,10,0,,,,,,,,,,,945.0041,945.5041,945.754,948.8204,space,3.0523,,948.8204,78,28,949.8202,949.8202,949.8338,,,,0,12,12,12,1,110,160,,,,,,,,
,,654cee478454c59efad0196c,65af558ab1b2d753c0180a0a,2024-01-23_06h00.42.886,bars,2023.2.3,Win32,58.82352941,657b66ea316d21385b68909f,,,,,,,,,,,949.834,950.8368,,,951.3367,951.5867,,178,-2,,,,,,,,,,,,,,,,bars/018.png,bars/mask000.png,,,,,,,,,,,,1,1,,,,,,,8,2,9,2,,,,,,,,,,,950.8369,951.3367,951.5867,956.6363,space,5.0347,,956.6364,28,88,957.6358,957.6358,957.6508,,,,0,13,13,13,1,150,90,,,,,,,,
,,654cee478454c59efad0196c,65af558ab1b2d753c0180a0a,2024-01-23_06h00.42.886,bars,2023.2.3,Win32,58.82352941,657b66ea316d21385b68909f,,,,,,,,,,,957.6511,958.6524,,,959.1524,959.4023,,178,-2,,,,,,,,,,,,,,,,bars/029.png,bars/mask005.png,,,,,,,,,,,,0,2,,,,,,,10,4,8,6,,,,,,,,,,,958.6525,959.1524,959.4023,965.6682,space,6.254,,965.6683,88,47,966.668,966.668,966.6839,,,,0,14,14,14,1,90,45,,,,,,,,
,,654cee478454c59efad0196c,65af558ab1b2d753c0180a0a,2024-01-23_06h00.42.886,bars,2023.2.3,Win32,58.82352941,657b66ea316d21385b68909f,,,,,,,,,,,966.6844,967.6845,,,968.1846,968.4345,,137,-43,,,,,,,,,,,,,,,,bars/032.png,bars/mask003.png,,,,,,,,,,,,5,1,,,,,,,8,6,8,6,,,,,,,,,,,967.6845,968.1845,968.4345,973.8005,space,5.3484,,973.8006,12,63,974.8002,974.8003,974.8156,,,,0,15,15,15,1,125,20,,,,,,,,
,,654cee478454c59efad0196c,65af558ab1b2d753c0180a0a,2024-01-23_06h00.42.886,bars,2023.2.3,Win32,58.82352941,657b66ea316d21385b68909f,,,,,,,,,,,974.8159,975.8168,,,976.3167,976.5668,,4,184,,,,,,,,,,,,,,,,bars/022.png,bars/mask004.png,,,,,,,,,,,,4,2,,,,,,,10,8,10,9,,,,,,,,,,,975.8168,976.3167,976.5668,981.5995,space,5.0172,,981.5996,89,16,982.5992,982.5993,982.6135,,,,0,16,16,16,1,95,20,,,,,,,,
,,654cee478454c59efad0196c,65af558ab1b2d753c0180a0a,2024-01-23_06h00.42.886,bars,2023.2.3,Win32,58.82352941,657b66ea316d21385b68909f,,,,,,,,,,,982.6138,983.6158,,,984.1157,984.3657,,0,180,,,,,,,,,,,,,,,,bars/033.png,bars/mask002.png,,,,,,,,,,,,2,2,,,,,,,10,10,10,10,,,,,,,,,,,983.6159,984.1157,984.3657,989.8483,space,5.4704,,989.8484,25,25,990.8481,990.8481,990.8633,,,,0,17,17,17,1,25,155,,,,,,,,
,,654cee478454c59efad0196c,65af558ab1b2d753c0180a0a,2024-01-23_06h00.42.886,bars,2023.2.3,Win32,58.82352941,657b66ea316d21385b68909f,,,,,,,,,,,990.8635,991.8647,,,992.3648,992.6149,,141,141,,,,,,,,,,,,,,,,bars/044.png,bars/mask007.png,,,,,,,,,,,,5,2,,,,,,,8,8,9,9,,,,,,,,,,,991.8647,992.3648,992.6149,997.1475,space,4.5206,,997.1476,66,14,998.1473,998.1473,998.1625,,,,0,18,18,18,1,75,155,,,,,,,,
,,654cee478454c59efad0196c,65af558ab1b2d753c0180a0a,2024-01-23_06h00.42.886,bars,2023.2.3,Win32,58.82352941,657b66ea316d21385b68909f,,,,,,,,,,,998.1628,999.1638,,,999.6638,999.9139,,118,118,,,,,,,,,,,,,,,,bars/044.png,bars/mask004.png,,,,,,,,,,,,0,2,,,,,,,6,10,5,10,,,,,,,,,,,999.1639,999.6637,999.9139,1004.5465,space,4.6161,,1004.5465,43,37,1005.5462,1005.5462,1005.5593,,,,0,19,19,19,1,75,155,,,,,,,,
,,654cee478454c59efad0196c,65af558ab1b2d753c0180a0a,2024-01-23_06h00.42.886,bars,2023.2.3,Win32,58.82352941,657b66ea316d21385b68909f,,,,,,,,,,,1005.5595,1006.5627,,,1007.0627,1007.3126,,90,90,,,,,,,,,,,,,,,,bars/042.png,bars/mask008.png,,,,,,,,,,,,4,2,,,,,,,8,10,7,8,,,,,,,,,,,1006.5628,1007.0627,1007.3126,1010.879,space,3.5489,,1010.879,55,15,1011.8787,1011.8787,1011.8922,,,,0,20,20,20,1,145,75,,,,,,,,
,,654cee478454c59efad0196c,65af558ab1b2d753c0180a0a,2024-01-23_06h00.42.886,bars,2023.2.3,Win32,58.82352941,657b66ea316d21385b68909f,,,,,,,,,,,1011.8924,1012.8955,,,1013.3953,1013.6452,,158,158,,,,,,,,,,,,,,,,bars/031.png,bars/mask005.png,,,,,,,,,,,,0,1,,,,,,,6,8,5,8,,,,,,,,,,,1012.8955,1013.3953,1013.6452,1017.7781,space,4.1168,,1017.7781,38,57,1018.7779,1018.7779,1018.7925,,,,0,21,21,21,1,120,35,,,,,,,,
,,654cee478454c59efad0196c,65af558ab1b2d753c0180a0a,2024-01-23_06h00.42.886,bars,2023.2.3,Win32,58.82352941,657b66ea316d21385b68909f,,,,,,,,,,,1018.7928,1019.7945,,,1020.2944,1020.5443,,91,91,,,,,,,,,,,,,,,,bars/009.png,bars/mask005.png,,,,,,,,,,,,5,2,,,,,,,4,10,3,10,,,,,,,,,,,1019.7946,1020.2943,1020.5443,1024.7605,space,4.2021,,1024.7606,76,14,1025.7602,1025.7603,1025.7754,,,,0,22,22,22,1,15,105,,,,,,,,
,,654cee478454c59efad0196c,65af558ab1b2d753c0180a0a,2024-01-23_06h00.42.886,bars,2023.2.3,Win32,58.82352941,657b66ea316d21385b68909f,,,,,,,,,,,1025.7757,1026.777,,,1027.2768,1027.5267,,89,89,,,,,,,,,,,,,,,,bars/007.png,bars/mask008.png,,,,,,,,,,,,0,2,,,,,,,2,10,2,10,,,,,,,,,,,1026.777,1027.2767,1027.5267,1031.7262,space,4.185,,1031.7262,86,34,1032.726,1032.726,1032.7393,,,,0,23,23,23,1,175,55,,,,,,,,
,,654cee478454c59efad0196c,65af558ab1b2d753c0180a0a,2024-01-23_06h00.42.886,bars,2023.2.3,Win32,58.82352941,657b66ea316d21385b68909f,,,,,,,,,,,1032.7396,1033.7427,,,1034.2425,1034.4925,,34,34,,,,,,,,,,,,,,,,bars/010.png,bars/mask001.png,,,,,,,,,,,,2,2,,,,,,,0,8,0,8,,,,,,,,,,,1033.7427,1034.2425,1034.4925,1036.6923,space,2.1848,,1036.6923,49,21,1037.692,1037.692,1037.7063,,,,0,24,24,24,1,165,55,,,,,,,,
,,654cee478454c59efad0196c,65af558ab1b2d753c0180a0a,2024-01-23_06h00.42.886,bars,2023.2.3,Win32,58.82352941,657b66ea316d21385b68909f,,,,,,,,,,,1037.7066,1038.7087,,,1039.2085,1039.4586,,39,39,,,,,,,,,,,,,,,,bars/001.png,bars/mask000.png,,,,,,,,,,,,0,2,,,,,,,2,6,3,4,,,,,,,,,,,1038.7087,1039.2085,1039.4587,1043.1414,space,3.6651,,1043.1414,89,46,1044.1412,1044.1412,1044.1549,,,,0,25,25,25,1,130,85,,,,,,,,
,,654cee478454c59efad0196c,65af558ab1b2d753c0180a0a,2024-01-23_06h00.42.886,bars,2023.2.3,Win32,58.82352941,657b66ea316d21385b68909f,,,,,,,,,,,1044.1551,1045.1578,,,1045.6576,1045.9076,,12,192,,,,,,,,,,,,,,,,bars/012.png,bars/mask008.png,,,,,,,,,,,,5,2,,,,,,,0,8,0,6,,,,,,,,,,,1045.1578,1045.6576,1045.9076,1048.1074,space,2.1839,,1048.1075,78,3,1049.1072,1049.1072,1049.1205,,,,0,26,26,26,1,90,15,,,,,,,,
,,654cee478454c59efad0196c,65af558ab1b2d753c0180a0a,2024-01-23_06h00.42.886,bars,2023.2.3,Win32,58.82352941,657b66ea316d21385b68909f,,,,,,,,,,,1049.1206,1050.1237,,,1050.6237,1050.8737,,17,17,,,,,,,,,,,,,,,,bars/013.png,bars/mask000.png,,,,,,,,,,,,7,2,,,,,,,2,10,4,9,,,,,,,,,,,1050.1238,1050.6237,1050.8737,1056.573,space,5.6821,,1056.5731,58,7,1057.5727,1057.5728,1057.5877,,,,0,27,27,27,1,75,10,,,,,,,,
,,654cee478454c59efad0196c,65af558ab1b2d753c0180a0a,2024-01-23_06h00.42.886,bars,2023.2.3,Win32,58.82352941,657b66ea316d21385b68909f,,,,,,,,,,,1057.5879,1058.5893,,,1059.0893,1059.3392,,27,207,,,,,,,,,,,,,,,,bars/044.png,bars/mask005.png,,,,,,,,,,,,0,1,,,,,,,0,8,0,9,,,,,,,,,,,1058.5893,1059.0893,1059.3393,1062.8558,space,3.5095,,1062.8559,48,52,1063.8553,1063.8553,1063.8695,,,,0,28,28,28,1,75,155,,,,,,,,
,,654cee478454c59efad0196c,65af558ab1b2d753c0180a0a,2024-01-23_06h00.42.886,bars,2023.2.3,Win32,58.82352941,657b66ea316d21385b68909f,,,,,,,,,,,1063.8697,1064.8718,,,1065.3718,1065.6218,,141,141,,,,,,,,,,,,,,,,bars/005.png,bars/mask008.png,,,,,,,,,,,,10,2,,,,,,,0,10,0,10,,,,,,,,,,,1064.8718,1065.3718,1065.6218,1067.8381,space,2.2034,,1067.8383,49,1,1068.8379,1068.8379,1068.8515,,,,0,29,29,29,1,10,140,,,,,,,,
,,654cee478454c59efad0196c,65af558ab1b2d753c0180a0a,2024-01-23_06h00.42.886,bars,2023.2.3,Win32,58.82352941,657b66ea316d21385b68909f,,,,,,,,,,,1068.8519,1069.8544,,,1070.3545,1070.6044,,93,93,,,,,,,,,,,,,,,,bars/046.png,bars/mask007.png,,,,,,,,,,,,7,2,,,,,,,2,8,0,9,,,,,,,,,,,1069.8545,1070.3544,1070.6044,1074.5373,space,3.9176,,1074.5373,62,8,1075.537,1075.537,1075.5499,,,,0,30,30,30,1,155,85,,,,,,,,
,,654cee478454c59efad0196c,65af558ab1b2d753c0180a0a,2024-01-23_06h00.42.886,bars,2023.2.3,Win32,58.82352941,657b66ea316d21385b68909f,,,,,,,,,,,1075.5501,1076.5537,,,1077.0536,1077.3035,,170,-10,,,,,,,,,,,,,,,,bars/036.png,bars/mask002.png,,,,,,,,,,,,0,1,,,,,,,0,6,1,5,,,,,,,,,,,1076.5538,1077.0535,1077.3035,1081.0198,space,3.7007,,1081.0198,25,30,1082.0195,1082.0195,1082.0339,,,,0,31,31,31,1,145,20,,,,,,,,
,,654cee478454c59efad0196c,65af558ab1b2d753c0180a0a,2024-01-23_06h00.42.886,bars,2023.2.3,Win32,58.82352941,657b66ea316d21385b68909f,,,,,,,,,,,1082.0342,1083.0361,,,1083.5362,1083.786,,158,158,,,,,,,,,,,,,,,,bars/005.png,bars/mask008.png,,,,,,,,,,,,1,2,,,,,,,2,4,2,3,,,,,,,,,,,1083.0362,1083.5362,1083.7861,1085.7025,space,1.907,,1085.7026,32,18,1086.7023,1086.7023,1086.7165,,,,0,32,32,32,1,10,140,,,,,,,,
,,654cee478454c59efad0196c,65af558ab1b2d753c0180a0a,2024-01-23_06h00.42.886,bars,2023.2.3,Win32,58.82352941,657b66ea316d21385b68909f,,,,,,,,,,,1086.7167,1087.7188,,,1088.2188,1088.4686,,89,89,,,,,,,,,,,,,,,,bars/025.png,bars/mask005.png,,,,,,,,,,,,2,1,,,,,,,4,2,4,2,,,,,,,,,,,1087.7188,1088.2188,1088.4687,1091.2018,space,2.7191,,1091.2018,16,49,1092.2015,1092.2015,1092.2156,,,,0,33,33,33,1,105,40,,,,,,,,
,,654cee478454c59efad0196c,65af558ab1b2d753c0180a0a,2024-01-23_06h00.42.886,bars,2023.2.3,Win32,58.82352941,657b66ea316d21385b68909f,,,,,,,,,,,1092.2158,1093.218,,,1093.7181,1093.968,,94,94,,,,,,,,,,,,,,,,bars/039.png,bars/mask003.png,,,,,,,,,,,,1,2,,,,,,,6,0,5,1,,,,,,,,,,,1093.2181,1093.718,1093.968,1096.9012,space,2.9207,,1096.9014,81,11,1097.9008,1097.9008,1097.9165,,,,0,34,34,34,1,175,105,,,,,,,,
,,654cee478454c59efad0196c,65af558ab1b2d753c0180a0a,2024-01-23_06h00.42.886,bars,2023.2.3,Win32,58.82352941,657b66ea316d21385b68909f,,,,,,,,,,,1097.9168,1098.9174,,,1099.4173,1099.6673,,169,-11,,,,,,,,,,,,,,,,bars/016.png,bars/mask009.png,,,,,,,,,,,,3,2,,,,,,,4,2,2,4,,,,,,,,,,,1098.9174,1099.4173,1099.6673,1101.7671,space,2.0899,,1101.7672,51,4,1102.7669,1102.7669,1102.7805,,,,0,35,35,35,1,40,165,,,,,,,,
,,654cee478454c59efad0196c,65af558ab1b2d753c0180a0a,2024-01-23_06h00.42.886,bars,2023.2.3,Win32,58.82352941,657b66ea316d21385b68909f,,,,,,,,,,,1102.7807,1103.7835,,,1104.2833,1104.5333,,145,145,,,,,,,,,,,,,,,,bars/000.png,bars/mask003.png,,,,,,,,,,,,4,2,,,,,,,2,4,2,4,,,,,,,,,,,1103.7836,1104.2833,1104.5334,1108.4828,space,3.935,,1108.483,75,0,1109.4826,1109.4827,1109.4962,,,,0,36,36,36,1,40,145,,,,,,,,
,,654cee478454c59efad0196c,65af558ab1b2d753c0180a0a,2024-01-23_06h00.42.886,bars,2023.2.3,Win32,58.82352941,657b66ea316d21385b68909f,,,,,,,,,,,1109.4964,1110.4992,,,1110.9991,1111.249,,23,23,,,,,,,,,,,,,,,,bars/008.png,bars/mask009.png,,,,,,,,,,,,1,2,,,,,,,4,2,4,3,,,,,,,,,,,1110.4993,1110.999,1111.2491,1113.6822,space,2.4152,,1113.6823,87,23,1114.6822,1114.6823,1114.6956,,,,0,37,37,37,1,110,0,,,,,,,,
,,654cee478454c59efad0196c,65af558ab1b2d753c0180a0a,2024-01-23_06h00.42.886,bars,2023.2.3,Win32,58.82352941,657b66ea316d21385b68909f,,,,,,,,,,,1114.6958,1115.6984,,,1116.1984,1116.4484,,96,96,,,,,,,,,,,,,,,,bars/018.png,bars/mask007.png,,,,,,,,,,,,4,2,,,,,,,6,4,6,5,,,,,,,,,,,1115.6984,1116.1984,1116.4485,1120.9145,space,4.4507,,1120.9146,54,6,1121.9143,1121.9144,1121.9281,,,,0,38,38,38,1,150,90,,,,,,,,
,,654cee478454c59efad0196c,65af558ab1b2d753c0180a0a,2024-01-23_06h00.42.886,bars,2023.2.3,Win32,58.82352941,657b66ea316d21385b68909f,,,,,,,,,,,1121.9285,1122.931,,,1123.4308,1123.6808,,93,93,,,,,,,,,,,,,,,,bars/009.png,bars/mask001.png,,,,,,,,,,,,4,2,,,,,,,4,6,6,7,,,,,,,,,,,1122.931,1123.4308,1123.6808,1125.7307,space,2.04,,1125.7307,78,12,1126.7304,1126.7304,1126.743,,,,0,39,39,39,1,15,105,,,,,,,,
,,654cee478454c59efad0196c,65af558ab1b2d753c0180a0a,2024-01-23_06h00.42.886,bars,2023.2.3,Win32,58.82352941,657b66ea316d21385b68909f,,,,,,,,,,,1126.7432,1127.7468,,,1128.2469,1128.4969,,151,151,,,,,,,,,,,,,,,,bars/014.png,bars/mask005.png,,,,,,,,,,,,0,2,,,,,,,6,4,7,4,,,,,,,,,,,1127.7469,1128.2469,1128.4969,1132.2297,space,3.7158,,1132.2298,71,29,1133.2295,1133.2295,1133.2429,,,,0,40,40,40,1,80,0,,,,,,,,
,,654cee478454c59efad0196c,65af558ab1b2d753c0180a0a,2024-01-23_06h00.42.886,bars,2023.2.3,Win32,58.82352941,657b66ea316d21385b68909f,,,,,,,,,,,1133.2431,1134.2462,,,1134.7461,1134.996,,26,26,,,,,,,,,,,,,,,,bars/003.png,bars/mask003.png,,,,,,,,,,,,5,1,,,,,,,4,2,5,1,,,,,,,,,,,1134.2462,1134.746,1134.996,1137.1624,space,2.1515,,1137.1625,1,66,1138.1621,1138.1622,1138.1766,,,,0,41,41,41,1,25,140,,,,,,,,
,,654cee478454c59efad0196c,65af558ab1b2d753c0180a0a,2024-01-23_06h00.42.886,bars,2023.2.3,Win32,58.82352941,657b66ea316d21385b68909f,,,,,,,,,,,1138.1768,1139.1789,,,1139.6787,1139.9287,,176,-4,,,,,,,,,,,,,,,,bars/025.png,bars/mask006.png,,,,,,,,,,,,0,2,,,,,,,2,4,3,4,,,,,,,,,,,1139.179,1139.6786,1139.9288,1145.2448,space,5.299,,1145.2448,71,44,1146.2454,1146.2456,1146.2595,,,,0,42,42,42,1,105,40,,,,,,,,
,,654cee478454c59efad0196c,65af558ab1b2d753c0180a0a,2024-01-23_06h00.42.886,bars,2023.2.3,Win32,58.82352941,657b66ea316d21385b68909f,,,,,,,,,,,1146.2599,1147.2622,,,1147.7621,1148.0118,,46,46,,,,,,,,,,,,,,,,bars/047.png,bars/mask007.png,,,,,,,,,,,,0,2,,,,,,,4,2,5,1,,,,,,,,,,,1147.2624,1147.762,1148.0118,1149.6458,space,1.6022,,1149.6461,31,24,1150.6446,1150.6448,1150.6475,,,,0,43,43,43,1,15,70,,,,,,,,
,,654cee478454c59efad0196c,65af558ab1b2d753c0180a0a,2024-01-23_06h00.42.886,bars,2023.2.3,Win32,58.82352941,657b66ea316d21385b68909f,,,,,,,,,,,1150.6479,1151.6448,,,1152.1447,1152.3946,,54,54,,,,,,,,,,,,,,,,bars/007.png,bars/mask004.png,,,,,,,,,,,,0,2,,,,,,,6,0,5,0,,,,,,,,,,,1151.6449,1152.1445,1152.3947,1154.8531,space,2.4503,,1154.8532,59,1,1155.8442,1155.8443,1155.8573,,,,0,44,44,44,1,175,55,,,,,,,,
,,654cee478454c59efad0196c,65af558ab1b2d753c0180a0a,2024-01-23_06h00.42.886,bars,2023.2.3,Win32,58.82352941,657b66ea316d21385b68909f,,,,,,,,,,,1155.8576,1156.8618,,,1157.3606,1157.6106,,86,86,,,,,,,,,,,,,,,,bars/002.png,bars/mask007.png,,,,,,,,,,,,0,2,,,,,,,8,0,9,0,,,,,,,,,,,1156.8622,1157.3605,1157.6106,1160.1278,space,2.4893,,1160.1281,44,1,1161.1266,1161.1267,1161.1395,,,,0,45,45,45,1,130,85,,,,,,,,
,,654cee478454c59efad0196c,65af558ab1b2d753c0180a0a,2024-01-23_06h00.42.886,bars,2023.2.3,Win32,58.82352941,657b66ea316d21385b68909f,,,,,,,,,,,1161.1398,1162.1433,,,1162.6433,1162.8932,,9,189,,,,,,,,,,,,,,,,bars/045.png,bars/mask009.png,,,,,,,,,,,,0,2,,,,,,,6,0,8,0,,,,,,,,,,,1162.1434,1162.6432,1162.8933,1166.9932,space,4.0703,,1166.9935,89,1,1167.9924,1167.9925,1168.0055,,,,0,46,46,46,1,100,10,,,,,,,,
,,654cee478454c59efad0196c,65af558ab1b2d753c0180a0a,2024-01-23_06h00.42.886,bars,2023.2.3,Win32,58.82352941,657b66ea316d21385b68909f,,,,,,,,,,,1168.0057,1169.009,,,1169.5094,1169.7589,,145,145,,,,,,,,,,,,,,,,bars/015.png,bars/mask005.png,,,,,,,,,,,,2,2,,,,,,,8,2,8,3,,,,,,,,,,,1169.0092,1169.5092,1169.7589,1172.7089,space,2.9245,,1172.709,35,15,1173.7075,1173.7076,1173.7208,,,,0,47,47,47,1,110,160,,,,,,,,
,,654cee478454c59efad0196c,65af558ab1b2d753c0180a0a,2024-01-23_06h00.42.886,bars,2023.2.3,Win32,58.82352941,657b66ea316d21385b68909f,,,,,,,,,,,1173.721,1174.7245,,,1175.2241,1175.4739,,19,199,,,,,,,,,,,,,,,,bars/033.png,bars/mask003.png,,,,,,,,,,,,8,1,,,,,,,10,4,10,3,,,,,,,,,,,1174.7245,1175.224,1175.474,1177.5737,space,2.0871,,1177.5737,6,44,1178.5736,1178.5736,1178.5878,,,,0,48,48,48,1,25,155,,,,,,,,
,,654cee478454c59efad0196c,65af558ab1b2d753c0180a0a,2024-01-23_06h00.42.886,bars,2023.2.3,Win32,58.82352941,657b66ea316d21385b68909f,,,,,,,,,,,1178.588,1179.5903,,,1180.0901,1180.3429,,42,42,,,,,,,,,,,,,,,,bars/029.png,bars/mask002.png,,,,,,,,,,,,2,2,,,,,,,10,2,10,2,,,,,,,,,,,1179.5903,1180.0901,1180.3431,1182.9065,space,2.5456,,1182.9065,48,3,1183.9062,1183.9062,1183.9114,,,,0,49,49,49,1,90,45,,,,,,,,
,,654cee478454c59efad0196c,65af558ab1b2d753c0180a0a,2024-01-23_06h00.42.886,bars,2023.2.3,Win32,58.82352941,657b66ea316d21385b68909f,,,,,,,,,,,,,,,,,,,,,,,,,,,,,,,,,,,,,,,,,,,,,,,,,,,,,,,,,,,,,,,,,,,,,,,,,,,,,,,,,,,,,,,,,,,,,1183.9116,1243.9151,0,1,1,2,1,sequence_tables/blk046.csv
,,654cee478454c59efad0196c,65af558ab1b2d753c0180a0a,2024-01-23_06h00.42.886,bars,2023.2.3,Win32,58.82352941,657b66ea316d21385b68909f,,,,,,,,,,,1247.357,1248.3478,,,1248.8477,1249.0976,,45,45,,,,,,,,,,,,,,,,bars/047.png,bars/mask000.png,,,,,,,,,,,,1,2,,,,,,,5,5,5,6,,,,,,1243.9295,1247.348,space,3.4042,,1248.3478,1248.8477,1249.0977,1251.1809,space,2.0731,,1251.181,30,25,1252.1811,1252.1812,1252.1987,,,,0,0,0,0,1,15,70,,,,,,,,
,,654cee478454c59efad0196c,65af558ab1b2d753c0180a0a,2024-01-23_06h00.42.886,bars,2023.2.3,Win32,58.82352941,657b66ea316d21385b68909f,,,,,,,,,,,1252.199,1253.1972,,,1253.6971,1253.947,,28,208,,,,,,,,,,,,,,,,bars/008.png,bars/mask006.png,,,,,,,,,,,,0,2,,,,,,,3,3,1,3,,,,,,,,,,,1253.1973,1253.6971,1253.9471,1256.0636,space,2.1012,,1256.0637,82,28,1257.0632,1257.0634,1257.076,,,,0,1,1,1,1,110,0,,,,,,,,
,,654cee478454c59efad0196c,65af558ab1b2d753c0180a0a,2024-01-23_06h00.42.886,bars,2023.2.3,Win32,58.82352941,657b66ea316d21385b68909f,,,,,,,,,,,1257.0763,1258.0799,,,1258.5798,1258.8297,,28,208,,,,,,,,,,,,,,,,bars/034.png,bars/mask007.png,,,,,,,,,,,,0,2,,,,,,,1,5,2,7,,,,,,,,,,,1258.08,1258.5798,1258.8297,1262.1293,space,3.2841,,1262.1295,83,37,1263.1291,1263.1292,1263.1418,,,,0,2,2,2,1,125,65,,,,,,,,
,,654cee478454c59efad0196c,65af558ab1b2d753c0180a0a,2024-01-23_06h00.42.886,bars,2023.2.3,Win32,58.82352941,657b66ea316d21385b68909f,,,,,,,,,,,1263.1421,1264.1457,,,1264.6457,1264.8956,,158,-22,,,,,,,,,,,,,,,,bars/000.png,bars/mask008.png,,,,,,,,,,,,5,2,,,,,,,0,7,0,9,,,,,,,,,,,1264.1457,1264.6457,1264.8956,1267.4787,space,2.5676,,1267.4788,62,13,1268.4785,1268.4785,1268.4912,,,,0,3,3,3,1,40,145,,,,,,,,
,,654cee478454c59efad0196c,65af558ab1b2d753c0180a0a,2024-01-23_06h00.42.886,bars,2023.2.3,Win32,58.82352941,657b66ea316d21385b68909f,,,,,,,,,,,1268.4914,1269.495,,,1269.995,1270.2449,,106,106,,,,,,,,,,,,,,,,bars/041.png,bars/mask005.png,,,,,,,,,,,,1,2,,,,,,,0,5,2,4,,,,,,,,,,,1269.4951,1269.995,1270.2449,1273.7446,space,3.4836,,1273.7447,86,21,1274.7443,1274.7443,1274.7583,,,,0,4,4,4,1,20,85,,,,,,,,
,,654cee478454c59efad0196c,65af558ab1b2d753c0180a0a,2024-01-23_06h00.42.886,bars,2023.2.3,Win32,58.82352941,657b66ea316d21385b68909f,,,,,,,,,,,1274.7585,1275.7609,,,1276.2608,1276.5108,,73,73,,,,,,,,,,,,,,,,bars/022.png,bars/mask006.png,,,,,,,,,,,,1,1,,,,,,,2,7,3,8,,,,,,,,,,,1275.761,1276.2607,1276.5108,1280.177,space,3.6548,,1280.1771,22,53,1281.1767,1281.1769,1281.1913,,,,0,5,5,5,1,95,20,,,,,,,,
,,654cee478454c59efad0196c,65af558ab1b2d753c0180a0a,2024-01-23_06h00.42.886,bars,2023.2.3,Win32,58.82352941,657b66ea316d21385b68909f,,,,,,,,,,,1281.1917,1282.1933,,,1282.6934,1282.9432,,105,105,,,,,,,,,,,,,,,,bars/041.png,bars/mask005.png,,,,,,,,,,,,3,2,,,,,,,4,9,4,10,,,,,,,,,,,1282.1933,1282.6933,1282.9433,1285.693,space,2.7352,,1285.693,85,20,1286.6927,1286.6927,1286.7072,,,,0,6,6,6,1,20,85,,,,,,,,
,,654cee478454c59efad0196c,65af558ab1b2d753c0180a0a,2024-01-23_06h00.42.886,bars,2023.2.3,Win32,58.82352941,657b66ea316d21385b68909f,,,,,,,,,,,1286.7074,1287.7094,,,1288.2092,1288.4591,,164,164,,,,,,,,,,,,,,,,bars/043.png,bars/mask003.png,,,,,,,,,,,,0,2,,,,,,,2,10,1,9,,,,,,,,,,,1287.7095,1288.2092,1288.4591,1289.4759,space,0.9984,,1289.4759,46,34,1290.4756,1290.4756,1290.4775,,,,0,7,7,7,1,30,130,,,,,,,,
,,654cee478454c59efad0196c,65af558ab1b2d753c0180a0a,2024-01-23_06h00.42.886,bars,2023.2.3,Win32,58.82352941,657b66ea316d21385b68909f,,,,,,,,,,,1290.479,1291.4754,,,1291.9754,1292.2253,,111,111,,,,,,,,,,,,,,,,bars/013.png,bars/mask002.png,,,,,,,,,,,,0,1,,,,,,,4,8,2,8,,,,,,,,,,,1291.4754,1291.9754,1292.2254,1294.5585,space,2.3155,,1294.5585,36,79,1295.5583,1295.5583,1295.5718,,,,0,8,8,8,1,75,10,,,,,,,,
,,654cee478454c59efad0196c,65af558ab1b2d753c0180a0a,2024-01-23_06h00.42.886,bars,2023.2.3,Win32,58.82352941,657b66ea316d21385b68909f,,,,,,,,,,,1295.572,1296.5747,,,1297.0748,1297.3246,,31,211,,,,,,,,,,,,,,,,bars/045.png,bars/mask005.png,,,,,,,,,,,,2,2,,,,,,,6,6,7,7,,,,,,,,,,,1296.5748,1297.0747,1297.3248,1300.3577,space,3.0152,,1300.3577,69,21,1301.3575,1301.3575,1301.3719,,,,0,9,9,9,1,100,10,,,,,,,,
,,654cee478454c59efad0196c,65af558ab1b2d753c0180a0a,2024-01-23_06h00.42.886,bars,2023.2.3,Win32,58.82352941,657b66ea316d21385b68909f,,,,,,,,,,,1301.3722,1302.374,,,1302.874,1303.124,,151,151,,,,,,,,,,,,,,,,bars/005.png,bars/mask000.png,,,,,,,,,,,,4,2,,,,,,,4,4,3,6,,,,,,,,,,,1302.374,1302.874,1303.124,1305.4571,space,2.3156,,1305.4571,39,11,1306.4569,1306.4569,1306.471,,,,0,10,10,10,1,10,140,,,,,,,,
,,654cee478454c59efad0196c,65af558ab1b2d753c0180a0a,2024-01-23_06h00.42.886,bars,2023.2.3,Win32,58.82352941,657b66ea316d21385b68909f,,,,,,,,,,,1306.4712,1307.4735,,,1307.9733,1308.2234,,106,106,,,,,,,,,,,,,,,,bars/019.png,bars/mask004.png,,,,,,,,,,,,8,2,,,,,,,6,6,6,8,,,,,,,,,,,1307.4735,1307.9732,1308.2234,1311.2063,space,2.9673,,1311.2065,61,1,1312.2061,1312.2061,1312.2194,,,,0,11,11,11,1,45,105,,,,,,,,
,,654cee478454c59efad0196c,65af558ab1b2d753c0180a0a,2024-01-23_06h00.42.886,bars,2023.2.3,Win32,58.82352941,657b66ea316d21385b68909f,,,,,,,,,,,1312.2198,1313.2227,,,1313.7225,1313.9725,,29,209,,,,,,,,,,,,,,,,bars/022.png,bars/mask006.png,,,,,,,,,,,,5,2,,,,,,,8,8,8,7,,,,,,,,,,,1313.2227,1313.7225,1313.9726,1318.272,space,4.2827,,1318.2721,66,9,1319.2718,1319.2718,1319.2845,,,,0,12,12,12,1,95,20,,,,,,,,
,,654cee478454c59efad0196c,65af558ab1b2d753c0180a0a,2024-01-23_06h00.42.886,bars,2023.2.3,Win32,58.82352941,657b66ea316d21385b68909f,,,,,,,,,,,1319.2848,1320.2884,,,1320.7882,1321.0382,,164,164,,,,,,,,,,,,,,,,bars/020.png,bars/mask000.png,,,,,,,,,,,,2,2,,,,,,,10,6,10,3,,,,,,,,,,,1320.2884,1320.7882,1321.0383,1323.7713,space,2.7208,,1323.7714,49,6,1324.7711,1324.7711,1324.7842,,,,0,13,13,13,1,115,170,,,,,,,,
,,654cee478454c59efad0196c,65af558ab1b2d753c0180a0a,2024-01-23_06h00.42.886,bars,2023.2.3,Win32,58.82352941,657b66ea316d21385b68909f,,,,,,,,,,,1324.7845,1325.7878,,,1326.2877,1326.5375,,161,-19,,,,,,,,,,,,,,,,bars/045.png,bars/mask003.png,,,,,,,,,,,,0,2,,,,,,,10,4,8,5,,,,,,,,,,,1325.7878,1326.2875,1326.5375,1331.3038,space,4.7556,,1331.3038,61,29,1332.3035,1332.3036,1332.3171,,,,0,14,14,14,1,100,10,,,,,,,,
,,654cee478454c59efad0196c,65af558ab1b2d753c0180a0a,2024-01-23_06h00.42.886,bars,2023.2.3,Win32,58.82352941,657b66ea316d21385b68909f,,,,,,,,,,,1332.3174,1333.32,,,1333.8199,1334.07,,10,190,,,,,,,,,,,,,,,,bars/048.png,bars/mask002.png,,,,,,,,,,,,3,2,,,,,,,10,6,10,5,,,,,,,,,,,1333.32,1333.8199,1334.07,1336.6529,space,2.5709,,1336.653,40,15,1337.6527,1337.6527,1337.6661,,,,0,15,15,15,1,50,175,,,,,,,,
,,654cee478454c59efad0196c,65af558ab1b2d753c0180a0a,2024-01-23_06h00.42.886,bars,2023.2.3,Win32,58.82352941,657b66ea316d21385b68909f,,,,,,,,,,,1337.6664,1338.6695,,,1339.1693,1339.4192,,114,114,,,,,,,,,,,,,,,,bars/025.png,bars/mask005.png,,,,,,,,,,,,7,1,,,,,,,10,8,10,9,,,,,,,,,,,1338.6695,1339.1692,1339.4192,1342.0356,space,2.6004,,1342.0357,9,74,1343.0353,1343.0354,1343.0495,,,,0,16,16,16,1,105,40,,,,,,,,
,,654cee478454c59efad0196c,65af558ab1b2d753c0180a0a,2024-01-23_06h00.42.886,bars,2023.2.3,Win32,58.82352941,657b66ea316d21385b68909f,,,,,,,,,,,1343.0498,1344.0519,,,1344.5519,1344.8018,,20,200,,,,,,,,,,,,,,,,bars/020.png,bars/mask000.png,,,,,,,,,,,,0,2,,,,,,,8,10,8,8,,,,,,,,,,,1344.0519,1344.5518,1344.8018,1348.4848,space,3.6657,,1348.4849,85,30,1349.4846,1349.4846,1349.4989,,,,0,17,17,17,1,115,170,,,,,,,,
,,654cee478454c59efad0196c,65af558ab1b2d753c0180a0a,2024-01-23_06h00.42.886,bars,2023.2.3,Win32,58.82352941,657b66ea316d21385b68909f,,,,,,,,,,,1349.4992,1350.5011,,,1351.0011,1351.2509,,25,205,,,,,,,,,,,,,,,,bars/025.png,bars/mask000.png,,,,,,,,,,,,5,2,,,,,,,6,8,4,9,,,,,,,,,,,1350.5011,1351.001,1351.251,1354.6672,space,3.3987,,1354.6673,80,15,1355.6671,1355.6671,1355.6798,,,,0,18,18,18,1,105,40,,,,,,,,
,,654cee478454c59efad0196c,65af558ab1b2d753c0180a0a,2024-01-23_06h00.42.886,bars,2023.2.3,Win32,58.82352941,657b66ea316d21385b68909f,,,,,,,,,,,1355.6799,1356.6837,,,1357.1835,1357.4335,,10,10,,,,,,,,,,,,,,,,bars/014.png,bars/mask008.png,,,,,,,,,,,,3,2,,,,,,,4,6,5,5,,,,,,,,,,,1356.6838,1357.1835,1357.4335,1361.3331,space,3.8853,,1361.3331,70,10,1362.3328,1362.3329,1362.3459,,,,0,19,19,19,1,80,0,,,,,,,,
,,654cee478454c59efad0196c,65af558ab1b2d753c0180a0a,2024-01-23_06h00.42.886,bars,2023.2.3,Win32,58.82352941,657b66ea316d21385b68909f,,,,,,,,,,,1362.3461,1363.3493,,,1363.8493,1364.0993,,112,112,,,,,,,,,,,,,,,,bars/046.png,bars/mask004.png,,,,,,,,,,,,1,2,,,,,,,6,8,7,9,,,,,,,,,,,1363.3494,1363.8493,1364.0993,1366.8657,space,2.7542,,1366.8657,43,27,1367.8654,1367.8654,1367.8788,,,,0,20,20,20,1,155,85,,,,,,,,
,,654cee478454c59efad0196c,65af558ab1b2d753c0180a0a,2024-01-23_06h00.42.886,bars,2023.2.3,Win32,58.82352941,657b66ea316d21385b68909f,,,,,,,,,,,1367.879,1368.882,,,1369.382,1369.6319,,127,127,,,,,,,,,,,,,,,,bars/039.png,bars/mask006.png,,,,,,,,,,,,3,2,,,,,,,4,10,5,10,,,,,,,,,,,1368.882,1369.3819,1369.6319,1374.1314,space,4.4837,,1374.1314,48,22,1375.1312,1375.1312,1375.1449,,,,0,21,21,21,1,175,105,,,,,,,,
,,654cee478454c59efad0196c,65af558ab1b2d753c0180a0a,2024-01-23_06h00.42.886,bars,2023.2.3,Win32,58.82352941,657b66ea316d21385b68909f,,,,,,,,,,,1375.1453,1376.1478,,,1376.6477,1376.8977,,104,104,,,,,,,,,,,,,,,,bars/006.png,bars/mask000.png,,,,,,,,,,,,9,2,,,,,,,2,8,2,10,,,,,,,,,,,1376.1478,1376.6477,1376.8977,1381.0805,space,4.1664,,1381.0805,69,4,1382.0803,1382.0803,1382.0938,,,,0,22,22,22,1,35,100,,,,,,,,
,,654cee478454c59efad0196c,65af558ab1b2d753c0180a0a,2024-01-23_06h00.42.886,bars,2023.2.3,Win32,58.82352941,657b66ea316d21385b68909f,,,,,,,,,,,1382.094,1383.0969,,,1383.5967,1383.8466,,73,73,,,,,,,,,,,,,,,,bars/037.png,bars/mask002.png,,,,,,,,,,,,0,2,,,,,,,0,6,0,6,,,,,,,,,,,1383.097,1383.5967,1383.8467,1386.0131,space,2.1506,,1386.0131,77,32,1387.0129,1387.013,1387.0258,,,,0,23,23,23,1,150,105,,,,,,,,
,,654cee478454c59efad0196c,65af558ab1b2d753c0180a0a,2024-01-23_06h00.42.886,bars,2023.2.3,Win32,58.82352941,657b66ea316d21385b68909f,,,,,,,,,,,1387.026,1388.0296,,,1388.5294,1388.7794,,175,175,,,,,,,,,,,,,,,,bars/032.png,bars/mask003.png,,,,,,,,,,,,1,2,,,,,,,2,8,2,9,,,,,,,,,,,1388.0296,1388.5294,1388.7794,1391.8291,space,3.0342,,1391.8292,50,25,1392.8289,1392.829,1392.8415,,,,0,24,24,24,1,125,20,,,,,,,,
,,654cee478454c59efad0196c,65af558ab1b2d753c0180a0a,2024-01-23_06h00.42.886,bars,2023.2.3,Win32,58.82352941,657b66ea316d21385b68909f,,,,,,,,,,,1392.8419,1393.8454,,,1394.3455,1394.5953,,171,-9,,,,,,,,,,,,,,,,bars/035.png,bars/mask003.png,,,,,,,,,,,,0,1,,,,,,,0,10,0,10,,,,,,,,,,,1393.8454,1394.3454,1394.5953,1397.445,space,2.8352,,1397.4451,4,69,1398.4448,1398.4448,1398.4593,,,,0,25,25,25,1,175,60,,,,,,,,
,,654cee478454c59efad0196c,65af558ab1b2d753c0180a0a,2024-01-23_06h00.42.886,bars,2023.2.3,Win32,58.82352941,657b66ea316d21385b68909f,,,,,,,,,,,1398.4596,1399.4613,,,1399.9613,1400.2112,,163,163,,,,,,,,,,,,,,,,bars/033.png,bars/mask008.png,,,,,,,,,,,,7,2,,,,,,,0,8,0,9,,,,,,,,,,,1399.4613,1399.9612,1400.2113,1405.2941,space,5.0671,,1405.2942,42,8,1406.2937,1406.2938,1406.3099,,,,0,26,26,26,1,25,155,,,,,,,,
,,654cee478454c59efad0196c,65af558ab1b2d753c0180a0a,2024-01-23_06h00.42.886,bars,2023.2.3,Win32,58.82352941,657b66ea316d21385b68909f,,,,,,,,,,,1406.3104,1407.3118,,,1407.814,1408.0614,,149,149,,,,,,,,,,,,,,,,bars/005.png,bars/mask003.png,,,,,,,,,,,,4,2,,,,,,,0,6,3,5,,,,,,,,,,,1407.312,1407.8139,1408.0617,1413.1518,space,5.067,,1413.1518,41,9,1414.1435,1414.1436,1414.1563,,,,0,27,27,27,1,10,140,,,,,,,,
,,654cee478454c59efad0196c,65af558ab1b2d753c0180a0a,2024-01-23_06h00.42.886,bars,2023.2.3,Win32,58.82352941,657b66ea316d21385b68909f,,,,,,,,,,,1414.1566,1415.1602,,,1415.6602,1415.9102,,90,90,,,,,,,,,,,,,,,,bars/030.png,bars/mask001.png,,,,,,,,,,,,1,2,,,,,,,0,8,1,8,,,,,,,,,,,1415.1603,1415.6601,1415.9104,1418.0514,space,2.1174,,1418.0514,50,25,1419.043,1419.0432,1419.056,,,,0,28,28,28,1,140,65,,,,,,,,
,,654cee478454c59efad0196c,65af558ab1b2d753c0180a0a,2024-01-23_06h00.42.886,bars,2023.2.3,Win32,58.82352941,657b66ea316d21385b68909f,,,,,,,,,,,1419.0562,1420.0598,,,1420.5595,1420.8095,,95,95,,,,,,,,,,,,,,,,bars/023.png,bars/mask005.png,,,,,,,,,,,,3,2,,,,,,,0,6,2,8,,,,,,,,,,,1420.0601,1420.5594,1420.8095,1424.4337,space,3.6159,,1424.4337,75,20,1425.4256,1425.4258,1425.4385,,,,0,29,29,29,1,20,115,,,,,,,,
,,654cee478454c59efad0196c,65af558ab1b2d753c0180a0a,2024-01-23_06h00.42.886,bars,2023.2.3,Win32,58.82352941,657b66ea316d21385b68909f,,,,,,,,,,,1425.4387,1426.4423,,,1426.9426,1427.1918,,0,0,,,,,,,,,,,,,,,,bars/025.png,bars/mask007.png,,,,,,,,,,,,0,2,,,,,,,0,8,0,7,,,,,,,,,,,1426.4425,1426.9424,1427.1919,1432.3253,space,5.1174,,1432.3258,75,40,1433.3243,1433.3244,1433.3375,,,,0,30,30,30,1,105,40,,,,,,,,
,,654cee478454c59efad0196c,65af558ab1b2d753c0180a0a,2024-01-23_06h00.42.886,bars,2023.2.3,Win32,58.82352941,657b66ea316d21385b68909f,,,,,,,,,,,1433.3378,1434.3411,,,1434.8411,1435.0984,,94,94,,,,,,,,,,,,,,,,bars/038.png,bars/mask002.png,,,,,,,,,,,,2,2,,,,,,,2,10,0,10,,,,,,,,,,,1434.3413,1434.841,1435.0985,1436.5653,space,1.4507,,1436.5654,71,24,1437.5572,1437.5573,1437.5601,,,,0,31,31,31,1,165,70,,,,,,,,
,,654cee478454c59efad0196c,65af558ab1b2d753c0180a0a,2024-01-23_06h00.42.886,bars,2023.2.3,Win32,58.82352941,657b66ea316d21385b68909f,,,,,,,,,,,1437.5605,1438.557,,,1439.0574,1439.307,,95,95,,,,,,,,,,,,,,,,bars/002.png,bars/mask009.png,,,,,,,,,,,,6,2,,,,,,,4,10,5,9,,,,,,,,,,,1438.5571,1439.0572,1439.3072,1441.2241,space,1.8856,,1441.2246,35,10,1442.2233,1442.2236,1442.2262,,,,0,32,32,32,1,130,85,,,,,,,,
,,654cee478454c59efad0196c,65af558ab1b2d753c0180a0a,2024-01-23_06h00.42.886,bars,2023.2.3,Win32,58.82352941,657b66ea316d21385b68909f,,,,,,,,,,,1442.2266,1443.2232,,,1443.7232,1443.974,,4,184,,,,,,,,,,,,,,,,bars/047.png,bars/mask001.png,,,,,,,,,,,,4,1,,,,,,,6,8,7,8,,,,,,,,,,,1443.2233,1443.7231,1443.9743,1447.881,space,3.8837,,1447.881,11,66,1448.8725,1448.8727,1448.8866,,,,0,33,33,33,1,15,70,,,,,,,,
,,654cee478454c59efad0196c,65af558ab1b2d753c0180a0a,2024-01-23_06h00.42.886,bars,2023.2.3,Win32,58.82352941,657b66ea316d21385b68909f,,,,,,,,,,,1448.8868,1449.8889,,,1450.3892,1450.6389,,91,91,,,,,,,,,,,,,,,,bars/023.png,bars/mask002.png,,,,,,,,,,,,1,2,,,,,,,4,6,4,7,,,,,,,,,,,1449.889,1450.3891,1450.639,1453.2395,space,2.5686,,1453.2399,71,24,1454.2383,1454.2385,1454.2521,,,,0,34,34,34,1,20,115,,,,,,,,
,,654cee478454c59efad0196c,65af558ab1b2d753c0180a0a,2024-01-23_06h00.42.886,bars,2023.2.3,Win32,58.82352941,657b66ea316d21385b68909f,,,,,,,,,,,1454.2523,1455.2552,,,1455.7553,1456.0049,,178,178,,,,,,,,,,,,,,,,bars/039.png,bars/mask000.png,,,,,,,,,,,,5,1,,,,,,,6,8,6,7,,,,,,,,,,,1455.2554,1455.7551,1456.0052,1459.9882,space,3.9579,,1459.9885,3,73,1460.9866,1460.9867,1461.0013,,,,0,35,35,35,1,175,105,,,,,,,,
,,654cee478454c59efad0196c,65af558ab1b2d753c0180a0a,2024-01-23_06h00.42.886,bars,2023.2.3,Win32,58.82352941,657b66ea316d21385b68909f,,,,,,,,,,,1461.0016,1462.0031,,,1462.5032,1462.7531,,93,93,,,,,,,,,,,,,,,,bars/006.png,bars/mask008.png,,,,,,,,,,,,7,2,,,,,,,8,10,7,9,,,,,,,,,,,1462.0031,1462.5032,1462.7531,1464.9362,space,2.1654,,1464.9362,58,7,1465.936,1465.936,1465.9504,,,,0,36,36,36,1,35,100,,,,,,,,
,,654cee478454c59efad0196c,65af558ab1b2d753c0180a0a,2024-01-23_06h00.42.886,bars,2023.2.3,Win32,58.82352941,657b66ea316d21385b68909f,,,,,,,,,,,1465.9506,1466.9527,,,1467.4525,1467.7024,,30,210,,,,,,,,,,,,,,,,bars/033.png,bars/mask006.png,,,,,,,,,,,,8,1,,,,,,,10,10,9,10,,,,,,,,,,,1466.9528,1467.4525,1467.7024,1472.352,space,4.6316,,1472.352,5,55,1473.3516,1473.3516,1473.3661,,,,0,37,37,37,1,25,155,,,,,,,,
,,654cee478454c59efad0196c,65af558ab1b2d753c0180a0a,2024-01-23_06h00.42.886,bars,2023.2.3,Win32,58.82352941,657b66ea316d21385b68909f,,,,,,,,,,,1473.3663,1474.3681,,,1474.8681,1475.1181,,126,126,,,,,,,,,,,,,,,,bars/000.png,bars/mask005.png,,,,,,,,,,,,3,2,,,,,,,10,8,10,8,,,,,,,,,,,1474.3681,1474.8681,1475.1181,1477.2512,space,2.1175,,1477.2512,86,19,1478.251,1478.251,1478.2557,,,,0,38,38,38,1,40,145,,,,,,,,
,,654cee478454c59efad0196c,65af558ab1b2d753c0180a0a,2024-01-23_06h00.42.886,bars,2023.2.3,Win32,58.82352941,657b66ea316d21385b68909f,,,,,,,,,,,1478.256,1479.2509,,,1479.7509,1480.0008,,62,242,,,,,,,,,,,,,,,,bars/014.png,bars/mask005.png,,,,,,,,,,,,4,1,,,,,,,10,10,10,9,,,,,,,,,,,1479.2509,1479.7508,1480.0008,1484.0337,space,4.0179,,1484.0338,18,62,1485.0334,1485.0334,1485.0475,,,,0,39,39,39,1,80,0,,,,,,,,
,,654cee478454c59efad0196c,65af558ab1b2d753c0180a0a,2024-01-23_06h00.42.886,bars,2023.2.3,Win32,58.82352941,657b66ea316d21385b68909f,,,,,,,,,,,1485.0477,1486.0501,,,1486.5499,1486.7999,,157,-23,,,,,,,,,,,,,,,,bars/046.png,bars/mask002.png,,,,,,,,,,,,8,1,,,,,,,10,8,9,8,,,,,,,,,,,1486.0502,1486.5499,1486.7999,1490.033,space,3.217,,1490.033,2,72,1491.0327,1491.0328,1491.046,,,,0,40,40,40,1,155,85,,,,,,,,
,,654cee478454c59efad0196c,65af558ab1b2d753c0180a0a,2024-01-23_06h00.42.886,bars,2023.2.3,Win32,58.82352941,657b66ea316d21385b68909f,,,,,,,,,,,1491.0463,1492.0494,,,1492.5492,1492.7991,,175,-5,,,,,,,,,,,,,,,,bars/048.png,bars/mask000.png,,,,,,,,,,,,7,2,,,,,,,8,6,7,7,,,,,,,,,,,1492.0494,1492.5492,1492.7992,1496.1988,space,3.3878,,1496.1988,55,0,1497.1985,1497.1985,1497.2129,,,,0,41,41,41,1,50,175,,,,,,,,
,,654cee478454c59efad0196c,65af558ab1b2d753c0180a0a,2024-01-23_06h00.42.886,bars,2023.2.3,Win32,58.82352941,657b66ea316d21385b68909f,,,,,,,,,,,1497.2132,1498.2152,,,1498.715,1498.965,,168,-12,,,,,,,,,,,,,,,,bars/018.png,bars/mask007.png,,,,,,,,,,,,4,1,,,,,,,10,4,10,3,,,,,,,,,,,1498.2152,1498.715,1498.9651,1501.7814,space,2.8058,,1501.7814,18,78,1502.7811,1502.7812,1502.7959,,,,0,42,42,42,1,150,90,,,,,,,,
,,654cee478454c59efad0196c,65af558ab1b2d753c0180a0a,2024-01-23_06h00.42.886,bars,2023.2.3,Win32,58.82352941,657b66ea316d21385b68909f,,,,,,,,,,,1502.7962,1503.7976,,,1504.2976,1504.5476,,6,6,,,,,,,,,,,,,,,,bars/025.png,bars/mask004.png,,,,,,,,,,,,0,2,,,,,,,10,6,10,6,,,,,,,,,,,1503.7976,1504.2976,1504.5476,1508.797,space,4.2372,,1508.7971,81,34,1509.7968,1509.7969,1509.8113,,,,0,43,43,43,1,105,40,,,,,,,,
,,654cee478454c59efad0196c,65af558ab1b2d753c0180a0a,2024-01-23_06h00.42.886,bars,2023.2.3,Win32,58.82352941,657b66ea316d21385b68909f,,,,,,,,,,,1509.8115,1510.8134,,,1511.3134,1511.5633,,164,-16,,,,,,,,,,,,,,,,bars/016.png,bars/mask003.png,,,,,,,,,,,,5,2,,,,,,,10,4,9,5,,,,,,,,,,,1510.8135,1511.3134,1511.5633,1515.3629,space,3.7853,,1515.3629,56,1,1516.3627,1516.3627,1516.3756,,,,0,44,44,44,1,40,165,,,,,,,,
,,654cee478454c59efad0196c,65af558ab1b2d753c0180a0a,2024-01-23_06h00.42.886,bars,2023.2.3,Win32,58.82352941,657b66ea316d21385b68909f,,,,,,,,,,,1516.3758,1517.3794,,,1517.8792,1518.1291,,9,189,,,,,,,,,,,,,,,,bars/007.png,bars/mask005.png,,,,,,,,,,,,4,1,,,,,,,8,2,7,0,,,,,,,,,,,1517.3794,1517.8791,1518.1292,1522.5952,space,4.4519,,1522.5953,14,46,1523.595,1523.595,1523.6088,,,,0,45,45,45,1,175,55,,,,,,,,
,,654cee478454c59efad0196c,65af558ab1b2d753c0180a0a,2024-01-23_06h00.42.886,bars,2023.2.3,Win32,58.82352941,657b66ea316d21385b68909f,,,,,,,,,,,1523.6091,1524.6116,,,1525.1116,1525.3615,,149,149,,,,,,,,,,,,,,,,bars/037.png,bars/mask006.png,,,,,,,,,,,,4,1,,,,,,,6,4,4,4,,,,,,,,,,,1524.6117,1525.1116,1525.3616,1529.9444,space,4.5649,,1529.9445,1,44,1530.9442,1530.9442,1530.957,,,,0,46,46,46,1,150,105,,,,,,,,
,,654cee478454c59efad0196c,65af558ab1b2d753c0180a0a,2024-01-23_06h00.42.886,bars,2023.2.3,Win32,58.82352941,657b66ea316d21385b68909f,,,,,,,,,,,1530.9572,1531.9606,,,1532.4606,1532.7105,,113,113,,,,,,,,,,,,,,,,bars/030.png,bars/mask006.png,,,,,,,,,,,,1,1,,,,,,,8,2,9,1,,,,,,,,,,,1531.9606,1532.4605,1532.7106,1534.8272,space,2.1013,,1534.8272,27,48,1535.817,1535.817,1535.8294,,,,0,47,47,47,1,140,65,,,,,,,,
,,654cee478454c59efad0196c,65af558ab1b2d753c0180a0a,2024-01-23_06h00.42.886,bars,2023.2.3,Win32,58.82352941,657b66ea316d21385b68909f,,,,,,,,,,,1535.8297,1536.8267,,,1537.3267,1537.5766,,109,109,,,,,,,,,,,,,,,,bars/049.png,bars/mask007.png,,,,,,,,,,,,0,2,,,,,,,10,0,10,0,,,,,,,,,,,1536.8267,1537.3266,1537.5766,1540.8596,space,3.2702,,1540.8596,51,6,1541.8593,1541.8594,1541.8736,,,,0,48,48,48,1,160,115,,,,,,,,
,,654cee478454c59efad0196c,65af558ab1b2d753c0180a0a,2024-01-23_06h00.42.886,bars,2023.2.3,Win32,58.82352941,657b66ea316d21385b68909f,,,,,,,,,,,1541.8739,1542.876,,,1543.3758,1543.6258,,49,49,,,,,,,,,,,,,,,,bars/031.png,bars/mask005.png,,,,,,,,,,,,2,2,,,,,,,10,2,10,3,,,,,,,,,,,1542.876,1543.3758,1543.6259,1546.9587,space,3.3199,,1546.9589,71,14,1547.9586,1547.9586,1547.9724,,,,0,49,49,49,1,120,35,,,,,,,,
,,654cee478454c59efad0196c,65af558ab1b2d753c0180a0a,2024-01-23_06h00.42.886,bars,2023.2.3,Win32,58.82352941,657b66ea316d21385b68909f,,,,,,,,,,,,,,,,,,,,,,,,,,,,,,,,,,,,,,,,,,,,,,,,,,,,,,,,,,,,,,,,,,,,,,,,,,,,,,,,,,,,,,,,,,,,,1547.9725,1607.9674,0,2,2,0,1,sequence_tables/blk024.csv
,,654cee478454c59efad0196c,65af558ab1b2d753c0180a0a,2024-01-23_06h00.42.886,bars,2023.2.3,Win32,58.82352941,657b66ea316d21385b68909f,,,,,,,,,,,1612.9687,1613.9666,,,1614.4666,1614.7165,,98,98,,,,,,,,,,,,,,,,bars/019.png,bars/mask001.png,,,,,,,,,,,,5,2,,,,,,,7,6,8,7,,,,,,1607.9812,1612.9501,space,4.9591,,1613.9666,1614.4665,1614.7165,1616.1164,space,1.3841,,1616.1164,53,7,1617.1161,1617.1161,1617.1171,,,,0,0,0,0,1,45,105,,,,,,,,
,,654cee478454c59efad0196c,65af558ab1b2d753c0180a0a,2024-01-23_06h00.42.886,bars,2023.2.3,Win32,58.82352941,657b66ea316d21385b68909f,,,,,,,,,,,1617.1184,1618.1161,,,1618.616,1618.866,,112,112,,,,,,,,,,,,,,,,bars/023.png,bars/mask009.png,,,,,,,,,,,,3,2,,,,,,,5,4,7,3,,,,,,,,,,,1618.1161,1618.616,1618.866,1620.9824,space,2.0993,,1620.9825,88,3,1621.9822,1621.9823,1621.9841,,,,0,1,1,1,1,20,115,,,,,,,,
,,654cee478454c59efad0196c,65af558ab1b2d753c0180a0a,2024-01-23_06h00.42.886,bars,2023.2.3,Win32,58.82352941,657b66ea316d21385b68909f,,,,,,,,,,,1621.9854,1622.9821,,,1623.482,1623.732,,99,99,,,,,,,,,,,,,,,,bars/021.png,bars/mask000.png,,,,,,,,,,,,0,2,,,,,,,3,2,2,2,,,,,,,,,,,1622.9821,1623.482,1623.732,1625.3819,space,1.6327,,1625.3819,56,29,1626.3816,1626.3816,1626.3949,,,,0,2,2,2,1,155,70,,,,,,,,
,,654cee478454c59efad0196c,65af558ab1b2d753c0180a0a,2024-01-23_06h00.42.886,bars,2023.2.3,Win32,58.82352941,657b66ea316d21385b68909f,,,,,,,,,,,1626.3951,1627.3982,,,1627.8982,1628.148,,71,251,,,,,,,,,,,,,,,,bars/044.png,bars/mask009.png,,,,,,,,,,,,0,1,,,,,,,1,0,0,0,,,,,,,,,,,1627.3982,1627.8981,1628.1481,1633.3974,space,5.2336,,1633.3975,4,84,1634.3972,1634.3972,1634.4117,,,,0,3,3,3,1,75,155,,,,,,,,
,,654cee478454c59efad0196c,65af558ab1b2d753c0180a0a,2024-01-23_06h00.42.886,bars,2023.2.3,Win32,58.82352941,657b66ea316d21385b68909f,,,,,,,,,,,1634.4119,1635.4138,,,1635.9137,1636.1637,,92,92,,,,,,,,,,,,,,,,bars/046.png,bars/mask000.png,,,,,,,,,,,,0,2,,,,,,,3,0,4,0,,,,,,,,,,,1635.4138,1635.9136,1636.1637,1639.5299,space,3.3513,,1639.5299,63,7,1640.5298,1640.5298,1640.5432,,,,0,4,4,4,1,155,85,,,,,,,,
,,654cee478454c59efad0196c,65af558ab1b2d753c0180a0a,2024-01-23_06h00.42.886,bars,2023.2.3,Win32,58.82352941,657b66ea316d21385b68909f,,,,,,,,,,,1640.5434,1641.5463,,,1642.0462,1642.2961,,169,-11,,,,,,,,,,,,,,,,bars/036.png,bars/mask006.png,,,,,,,,,,,,0,1,,,,,,,1,2,2,1,,,,,,,,,,,1641.5464,1642.0462,1642.2961,1644.3627,space,2.0551,,1644.3628,24,31,1645.3624,1645.3624,1645.3766,,,,0,5,5,5,1,145,20,,,,,,,,
,,654cee478454c59efad0196c,65af558ab1b2d753c0180a0a,2024-01-23_06h00.42.886,bars,2023.2.3,Win32,58.82352941,657b66ea316d21385b68909f,,,,,,,,,,,1645.3769,1646.379,,,1646.8789,1647.1288,,101,101,,,,,,,,,,,,,,,,bars/038.png,bars/mask008.png,,,,,,,,,,,,0,2,,,,,,,0,4,0,5,,,,,,,,,,,1646.379,1646.8789,1647.1289,1650.0786,space,2.939,,1650.0787,64,31,1651.0783,1651.0784,1651.0917,,,,0,6,6,6,1,165,70,,,,,,,,
,,654cee478454c59efad0196c,65af558ab1b2d753c0180a0a,2024-01-23_06h00.42.886,bars,2023.2.3,Win32,58.82352941,657b66ea316d21385b68909f,,,,,,,,,,,1651.092,1652.0949,,,1652.5949,1652.8448,,118,118,,,,,,,,,,,,,,,,bars/041.png,bars/mask006.png,,,,,,,,,,,,0,2,,,,,,,2,6,1,5,,,,,,,,,,,1652.0949,1652.5949,1652.8448,1655.3613,space,2.4988,,1655.3614,82,33,1656.361,1656.361,1656.3621,,,,0,7,7,7,1,20,85,,,,,,,,
,,654cee478454c59efad0196c,65af558ab1b2d753c0180a0a,2024-01-23_06h00.42.886,bars,2023.2.3,Win32,58.82352941,657b66ea316d21385b68909f,,,,,,,,,,,1656.3635,1657.3608,,,1657.8609,1658.1108,,53,53,,,,,,,,,,,,,,,,bars/041.png,bars/mask006.png,,,,,,,,,,,,0,2,,,,,,,4,4,3,2,,,,,,,,,,,1657.3609,1657.8609,1658.1108,1662.7936,space,4.6724,,1662.7936,33,32,1663.7934,1663.7935,1663.806,,,,0,8,8,8,1,20,85,,,,,,,,
,,654cee478454c59efad0196c,65af558ab1b2d753c0180a0a,2024-01-23_06h00.42.886,bars,2023.2.3,Win32,58.82352941,657b66ea316d21385b68909f,,,,,,,,,,,1663.8062,1664.81,,,1665.31,1665.5598,,159,-21,,,,,,,,,,,,,,,,bars/043.png,bars/mask006.png,,,,,,,,,,,,0,2,,,,,,,2,2,2,1,,,,,,,,,,,1664.81,1665.3099,1665.5599,1667.9596,space,2.3817,,1667.9597,51,29,1668.9595,1668.9595,1668.9732,,,,0,9,9,9,1,30,130,,,,,,,,
,,654cee478454c59efad0196c,65af558ab1b2d753c0180a0a,2024-01-23_06h00.42.886,bars,2023.2.3,Win32,58.82352941,657b66ea316d21385b68909f,,,,,,,,,,,1668.9735,1669.9759,,,1670.476,1670.7258,,80,80,,,,,,,,,,,,,,,,bars/006.png,bars/mask006.png,,,,,,,,,,,,1,2,,,,,,,0,4,0,3,,,,,,,,,,,1669.9759,1670.4759,1670.7259,1675.2753,space,4.5347,,1675.2755,45,20,1676.2751,1676.2751,1676.2903,,,,0,10,10,10,1,35,100,,,,,,,,
,,654cee478454c59efad0196c,65af558ab1b2d753c0180a0a,2024-01-23_06h00.42.886,bars,2023.2.3,Win32,58.82352941,657b66ea316d21385b68909f,,,,,,,,,,,1676.2906,1677.2917,,,1677.7915,1678.0415,,136,136,,,,,,,,,,,,,,,,bars/049.png,bars/mask004.png,,,,,,,,,,,,2,2,,,,,,,0,6,1,6,,,,,,,,,,,1677.2918,1677.7915,1678.0416,1683.7574,space,5.7006,,1683.7575,24,21,1684.7573,1684.7573,1684.773,,,,0,11,11,11,1,160,115,,,,,,,,
,,654cee478454c59efad0196c,65af558ab1b2d753c0180a0a,2024-01-23_06h00.42.886,bars,2023.2.3,Win32,58.82352941,657b66ea316d21385b68909f,,,,,,,,,,,1684.7732,1685.774,,,1686.2738,1686.5237,,165,-15,,,,,,,,,,,,,,,,bars/016.png,bars/mask009.png,,,,,,,,,,,,3,2,,,,,,,0,4,2,3,,,,,,,,,,,1685.774,1686.2738,1686.5237,1691.6398,space,5.1062,,1691.64,55,0,1692.6396,1692.6396,1692.6529,,,,0,12,12,12,1,40,165,,,,,,,,
,,654cee478454c59efad0196c,65af558ab1b2d753c0180a0a,2024-01-23_06h00.42.886,bars,2023.2.3,Win32,58.82352941,657b66ea316d21385b68909f,,,,,,,,,,,1692.6531,1693.6561,,,1694.156,1694.406,,56,56,,,,,,,,,,,,,,,,bars/018.png,bars/mask009.png,,,,,,,,,,,,0,2,,,,,,,0,6,0,5,,,,,,,,,,,1693.6561,1694.156,1694.406,1697.2724,space,2.85,,1697.2726,86,34,1698.2722,1698.2722,1698.2868,,,,0,13,13,13,1,150,90,,,,,,,,
,,654cee478454c59efad0196c,65af558ab1b2d753c0180a0a,2024-01-23_06h00.42.886,bars,2023.2.3,Win32,58.82352941,657b66ea316d21385b68909f,,,,,,,,,,,1698.287,1699.2887,,,1699.7887,1700.0386,,169,-11,,,,,,,,,,,,,,,,bars/048.png,bars/mask007.png,,,,,,,,,,,,6,2,,,,,,,2,8,1,8,,,,,,,,,,,1699.2887,1699.7887,1700.0386,1702.8217,space,2.7648,,1702.8217,61,6,1703.8214,1703.8215,1703.8346,,,,0,14,14,14,1,50,175,,,,,,,,
,,654cee478454c59efad0196c,65af558ab1b2d753c0180a0a,2024-01-23_06h00.42.886,bars,2023.2.3,Win32,58.82352941,657b66ea316d21385b68909f,,,,,,,,,,,1703.8349,1704.8381,,,1705.338,1705.5879,,1,1,,,,,,,,,,,,,,,,bars/003.png,bars/mask000.png,,,,,,,,,,,,0,1,,,,,,,0,6,1,5,,,,,,,,,,,1704.8381,1705.3379,1705.588,1709.4542,space,3.8487,,1709.4542,24,41,1710.4539,1710.454,1710.4688,,,,0,15,15,15,1,25,140,,,,,,,,
,,654cee478454c59efad0196c,65af558ab1b2d753c0180a0a,2024-01-23_06h00.42.886,bars,2023.2.3,Win32,58.82352941,657b66ea316d21385b68909f,,,,,,,,,,,1710.4692,1711.4704,,,1711.9704,1712.2203,,22,202,,,,,,,,,,,,,,,,bars/028.png,bars/mask003.png,,,,,,,,,,,,0,1,,,,,,,0,8,1,9,,,,,,,,,,,1711.4704,1711.9704,1712.2205,1714.2369,space,2.0034,,1714.2369,23,82,1715.2366,1715.2367,1715.2503,,,,0,16,16,16,1,45,120,,,,,,,,
,,654cee478454c59efad0196c,65af558ab1b2d753c0180a0a,2024-01-23_06h00.42.886,bars,2023.2.3,Win32,58.82352941,657b66ea316d21385b68909f,,,,,,,,,,,1715.2505,1716.2531,,,1716.7531,1717.003,,118,118,,,,,,,,,,,,,,,,bars/028.png,bars/mask006.png,,,,,,,,,,,,9,2,,,,,,,2,10,1,10,,,,,,,,,,,1716.2532,1716.7531,1717.0031,1720.6362,space,3.6204,,1720.6362,73,2,1721.6358,1721.6358,1721.6502,,,,0,17,17,17,1,45,120,,,,,,,,
,,654cee478454c59efad0196c,65af558ab1b2d753c0180a0a,2024-01-23_06h00.42.886,bars,2023.2.3,Win32,58.82352941,657b66ea316d21385b68909f,,,,,,,,,,,1721.6505,1722.6523,,,1723.1523,1723.4022,,160,160,,,,,,,,,,,,,,,,bars/014.png,bars/mask006.png,,,,,,,,,,,,3,2,,,,,,,4,10,2,9,,,,,,,,,,,1722.6524,1723.1523,1723.4022,1728.185,space,4.7726,,1728.1851,80,20,1729.1848,1729.1848,1729.1992,,,,0,18,18,18,1,80,0,,,,,,,,
,,654cee478454c59efad0196c,65af558ab1b2d753c0180a0a,2024-01-23_06h00.42.886,bars,2023.2.3,Win32,58.82352941,657b66ea316d21385b68909f,,,,,,,,,,,1729.1999,1730.2015,,,1730.7013,1730.9512,,79,79,,,,,,,,,,,,,,,,bars/038.png,bars/mask007.png,,,,,,,,,,,,7,2,,,,,,,2,10,3,10,,,,,,,,,,,1730.2015,1730.7013,1730.9513,1733.601,space,2.6353,,1733.601,86,9,1734.6008,1734.6008,1734.6144,,,,0,19,19,19,1,165,70,,,,,,,,
,,654cee478454c59efad0196c,65af558ab1b2d753c0180a0a,2024-01-23_06h00.42.886,bars,2023.2.3,Win32,58.82352941,657b66ea316d21385b68909f,,,,,,,,,,,1734.6147,1735.6173,,,1736.1173,1736.3672,,131,-49,,,,,,,,,,,,,,,,bars/025.png,bars/mask008.png,,,,,,,,,,,,0,1,,,,,,,0,8,0,8,,,,,,,,,,,1735.6173,1736.1172,1736.3673,1739.8835,space,3.5051,,1739.8835,26,89,1740.8833,1740.8833,1740.8978,,,,0,20,20,20,1,105,40,,,,,,,,
,,654cee478454c59efad0196c,65af558ab1b2d753c0180a0a,2024-01-23_06h00.42.886,bars,2023.2.3,Win32,58.82352941,657b66ea316d21385b68909f,,,,,,,,,,,1740.8981,1741.8998,,,1742.3998,1742.6497,,103,-77,,,,,,,,,,,,,,,,bars/034.png,bars/mask004.png,,,,,,,,,,,,1,1,,,,,,,0,10,3,10,,,,,,,,,,,1741.8998,1742.3998,1742.6497,1747.2992,space,4.6349,,1747.2992,22,38,1748.2989,1748.299,1748.3124,,,,0,21,21,21,1,125,65,,,,,,,,
,,654cee478454c59efad0196c,65af558ab1b2d753c0180a0a,2024-01-23_06h00.42.886,bars,2023.2.3,Win32,58.82352941,657b66ea316d21385b68909f,,,,,,,,,,,1748.3126,1749.3156,,,1749.8154,1750.0654,,82,82,,,,,,,,,,,,,,,,bars/001.png,bars/mask003.png,,,,,,,,,,,,8,2,,,,,,,2,10,3,9,,,,,,,,,,,1749.3157,1749.8154,1750.0655,1755.0315,space,4.9485,,1755.0315,48,3,1756.0312,1756.0313,1756.0454,,,,0,22,22,22,1,130,85,,,,,,,,
,,654cee478454c59efad0196c,65af558ab1b2d753c0180a0a,2024-01-23_06h00.42.886,bars,2023.2.3,Win32,58.82352941,657b66ea316d21385b68909f,,,,,,,,,,,1756.0457,1757.0478,,,1757.5478,1757.7978,,99,99,,,,,,,,,,,,,,,,bars/011.png,bars/mask009.png,,,,,,,,,,,,4,2,,,,,,,0,8,0,8,,,,,,,,,,,1757.0478,1757.5478,1757.7978,1761.3647,space,3.5574,,1761.3647,61,14,1762.3674,1762.3682,1762.3817,,,,0,23,23,23,1,160,85,,,,,,,,
,,654cee478454c59efad0196c,65af558ab1b2d753c0180a0a,2024-01-23_06h00.42.886,bars,2023.2.3,Win32,58.82352941,657b66ea316d21385b68909f,,,,,,,,,,,1762.382,1763.3803,,,1763.8802,1764.1302,,147,-33,,,,,,,,,,,,,,,,bars/022.png,bars/mask007.png,,,,,,,,,,,,0,1,,,,,,,2,10,1,10,,,,,,,,,,,1763.3803,1763.8802,1764.1303,1767.8465,space,3.6987,,1767.8465,52,53,1768.8463,1768.8463,1768.8606,,,,0,24,24,24,1,95,20,,,,,,,,
,,654cee478454c59efad0196c,65af558ab1b2d753c0180a0a,2024-01-23_06h00.42.886,bars,2023.2.3,Win32,58.82352941,657b66ea316d21385b68909f,,,,,,,,,,,1768.8609,1769.8628,,,1770.3628,1770.6127,,24,204,,,,,,,,,,,,,,,,bars/017.png,bars/mask004.png,,,,,,,,,,,,2,2,,,,,,,4,8,3,8,,,,,,,,,,,1769.8628,1770.3628,1770.6127,1774.9289,space,4.303,,1774.929,59,21,1775.9287,1775.9287,1775.9431,,,,0,25,25,25,1,145,45,,,,,,,,
,,654cee478454c59efad0196c,65af558ab1b2d753c0180a0a,2024-01-23_06h00.42.886,bars,2023.2.3,Win32,58.82352941,657b66ea316d21385b68909f,,,,,,,,,,,1775.9433,1776.9452,,,1777.4452,1777.6953,,105,105,,,,,,,,,,,,,,,,bars/037.png,bars/mask000.png,,,,,,,,,,,,9,2,,,,,,,6,10,6,9,,,,,,,,,,,1776.9452,1777.4452,1777.6953,1780.3783,space,2.6676,,1780.3783,45,0,1781.3779,1781.378,1781.3909,,,,0,26,26,26,1,150,105,,,,,,,,
,,654cee478454c59efad0196c,65af558ab1b2d753c0180a0a,2024-01-23_06h00.42.886,bars,2023.2.3,Win32,58.82352941,657b66ea316d21385b68909f,,,,,,,,,,,1781.3911,1782.3945,,,1782.8945,1783.1444,,97,97,,,,,,,,,,,,,,,,bars/021.png,bars/mask008.png,,,,,,,,,,,,1,2,,,,,,,4,10,5,10,,,,,,,,,,,1782.3945,1782.8945,1783.1444,1785.2776,space,2.1248,,1785.2776,58,27,1786.2773,1786.2773,1786.2783,,,,0,27,27,27,1,155,70,,,,,,,,
,,654cee478454c59efad0196c,65af558ab1b2d753c0180a0a,2024-01-23_06h00.42.886,bars,2023.2.3,Win32,58.82352941,657b66ea316d21385b68909f,,,,,,,,,,,1786.2794,1787.2771,,,1787.7772,1788.027,,161,-19,,,,,,,,,,,,,,,,bars/044.png,bars/mask003.png,,,,,,,,,,,,8,2,,,,,,,6,10,7,10,,,,,,,,,,,1787.2772,1787.7772,1788.0271,1791.9434,space,3.8987,,1791.9435,86,6,1792.9432,1792.9432,1792.9561,,,,0,28,28,28,1,75,155,,,,,,,,
,,654cee478454c59efad0196c,65af558ab1b2d753c0180a0a,2024-01-23_06h00.42.886,bars,2023.2.3,Win32,58.82352941,657b66ea316d21385b68909f,,,,,,,,,,,1792.9563,1793.9597,,,1794.4596,1794.7096,,12,192,,,,,,,,,,,,,,,,bars/036.png,bars/mask007.png,,,,,,,,,,,,7,2,,,,,,,4,10,4,9,,,,,,,,,,,1793.9598,1794.4596,1794.7097,1796.3761,space,1.6508,,1796.3762,47,8,1797.3759,1797.3759,1797.3893,,,,0,29,29,29,1,145,20,,,,,,,,
,,654cee478454c59efad0196c,65af558ab1b2d753c0180a0a,2024-01-23_06h00.42.886,bars,2023.2.3,Win32,58.82352941,657b66ea316d21385b68909f,,,,,,,,,,,1797.3895,1798.3925,,,1798.8924,1799.1423,,107,107,,,,,,,,,,,,,,,,bars/034.png,bars/mask008.png,,,,,,,,,,,,2,1,,,,,,,6,8,6,8,,,,,,,,,,,1798.3925,1798.8923,1799.1424,1801.9755,space,2.8232,,1801.9756,18,42,1802.9751,1802.9751,1802.9891,,,,0,30,30,30,1,125,65,,,,,,,,
,,654cee478454c59efad0196c,65af558ab1b2d753c0180a0a,2024-01-23_06h00.42.886,bars,2023.2.3,Win32,58.82352941,657b66ea316d21385b68909f,,,,,,,,,,,1802.9894,1803.9917,,,1804.4917,1804.7416,,115,115,,,,,,,,,,,,,,,,bars/049.png,bars/mask003.png,,,,,,,,,,,,6,2,,,,,,,4,6,5,6,,,,,,,,,,,1803.9918,1804.4916,1804.7417,1807.3914,space,2.6312,,1807.3915,45,0,1808.3911,1808.3911,1808.4055,,,,0,31,31,31,1,160,115,,,,,,,,
,,654cee478454c59efad0196c,65af558ab1b2d753c0180a0a,2024-01-23_06h00.42.886,bars,2023.2.3,Win32,58.82352941,657b66ea316d21385b68909f,,,,,,,,,,,1808.4057,1809.4076,,,1809.9075,1810.1575,,41,41,,,,,,,,,,,,,,,,bars/031.png,bars/mask008.png,,,,,,,,,,,,5,2,,,,,,,2,8,1,6,,,,,,,,,,,1809.4077,1809.9075,1810.1576,1812.6906,space,2.5204,,1812.6906,79,6,1813.6904,1813.6904,1813.7037,,,,0,32,32,32,1,120,35,,,,,,,,
,,654cee478454c59efad0196c,65af558ab1b2d753c0180a0a,2024-01-23_06h00.42.886,bars,2023.2.3,Win32,58.82352941,657b66ea316d21385b68909f,,,,,,,,,,,1813.7039,1814.7071,,,1815.2069,1815.4568,,101,101,,,,,,,,,,,,,,,,bars/023.png,bars/mask005.png,,,,,,,,,,,,3,2,,,,,,,0,6,0,6,,,,,,,,,,,1814.7072,1815.2069,1815.4569,1818.6233,space,3.1517,,1818.6233,81,14,1819.6229,1819.6229,1819.6357,,,,0,33,33,33,1,20,115,,,,,,,,
,,654cee478454c59efad0196c,65af558ab1b2d753c0180a0a,2024-01-23_06h00.42.886,bars,2023.2.3,Win32,58.82352941,657b66ea316d21385b68909f,,,,,,,,,,,1819.6359,1820.6396,,,1821.1395,1821.3893,,79,79,,,,,,,,,,,,,,,,bars/029.png,bars/mask001.png,,,,,,,,,,,,2,1,,,,,,,2,8,3,9,,,,,,,,,,,1820.6396,1821.1394,1821.3894,1823.9225,space,2.5162,,1823.9226,11,34,1824.9223,1824.9223,1824.9364,,,,0,34,34,34,1,90,45,,,,,,,,
,,654cee478454c59efad0196c,65af558ab1b2d753c0180a0a,2024-01-23_06h00.42.886,bars,2023.2.3,Win32,58.82352941,657b66ea316d21385b68909f,,,,,,,,,,,1824.9367,1825.9388,,,1826.4388,1826.6887,,59,59,,,,,,,,,,,,,,,,bars/010.png,bars/mask008.png,,,,,,,,,,,,8,2,,,,,,,0,10,0,9,,,,,,,,,,,1825.9388,1826.4387,1826.6887,1830.5883,space,3.884,,1830.5884,74,4,1831.5881,1831.5881,1831.6025,,,,0,35,35,35,1,165,55,,,,,,,,
,,654cee478454c59efad0196c,65af558ab1b2d753c0180a0a,2024-01-23_06h00.42.886,bars,2023.2.3,Win32,58.82352941,657b66ea316d21385b68909f,,,,,,,,,,,1831.6028,1832.6046,,,1833.1045,1833.3545,,145,145,,,,,,,,,,,,,,,,bars/000.png,bars/mask006.png,,,,,,,,,,,,9,2,,,,,,,0,8,0,9,,,,,,,,,,,1832.6046,1833.1045,1833.3546,1835.3044,space,1.9378,,1835.3044,75,0,1836.3041,1836.3041,1836.3051,,,,0,36,36,36,1,40,145,,,,,,,,
,,654cee478454c59efad0196c,65af558ab1b2d753c0180a0a,2024-01-23_06h00.42.886,bars,2023.2.3,Win32,58.82352941,657b66ea316d21385b68909f,,,,,,,,,,,1836.3066,1837.304,,,1837.8039,1838.0538,,80,80,,,,,,,,,,,,,,,,bars/011.png,bars/mask005.png,,,,,,,,,,,,5,2,,,,,,,2,6,3,6,,,,,,,,,,,1837.304,1837.8039,1838.0539,1841.2702,space,3.2062,,1841.2702,80,5,1842.27,1842.27,1842.2834,,,,0,37,37,37,1,160,85,,,,,,,,
,,654cee478454c59efad0196c,65af558ab1b2d753c0180a0a,2024-01-23_06h00.42.886,bars,2023.2.3,Win32,58.82352941,657b66ea316d21385b68909f,,,,,,,,,,,1842.2837,1843.2867,,,1843.7865,1844.0364,,169,-11,,,,,,,,,,,,,,,,bars/040.png,bars/mask004.png,,,,,,,,,,,,3,2,,,,,,,4,8,4,7,,,,,,,,,,,1843.2867,1843.7864,1844.0364,1847.5194,space,3.4708,,1847.5194,29,16,1848.5191,1848.5191,1848.5316,,,,0,38,38,38,1,140,5,,,,,,,,
,,654cee478454c59efad0196c,65af558ab1b2d753c0180a0a,2024-01-23_06h00.42.886,bars,2023.2.3,Win32,58.82352941,657b66ea316d21385b68909f,,,,,,,,,,,1848.5318,1849.5358,,,1850.0357,1850.2856,,158,158,,,,,,,,,,,,,,,,bars/004.png,bars/mask005.png,,,,,,,,,,,,0,2,,,,,,,2,6,1,6,,,,,,,,,,,1849.5359,1850.0357,1850.2857,1853.2187,space,2.9171,,1853.2187,47,33,1854.2184,1854.2184,1854.2312,,,,0,39,39,39,1,25,125,,,,,,,,
,,654cee478454c59efad0196c,65af558ab1b2d753c0180a0a,2024-01-23_06h00.42.886,bars,2023.2.3,Win32,58.82352941,657b66ea316d21385b68909f,,,,,,,,,,,1854.2314,1855.2351,,,1855.7349,1855.9848,,105,105,,,,,,,,,,,,,,,,bars/023.png,bars/mask006.png,,,,,,,,,,,,2,2,,,,,,,0,4,0,3,,,,,,,,,,,1855.2351,1855.7349,1855.9848,1859.4178,space,3.4207,,1859.418,85,10,1860.4176,1860.4176,1860.4303,,,,0,40,40,40,1,20,115,,,,,,,,
,,654cee478454c59efad0196c,65af558ab1b2d753c0180a0a,2024-01-23_06h00.42.886,bars,2023.2.3,Win32,58.82352941,657b66ea316d21385b68909f,,,,,,,,,,,1860.4306,1861.4342,,,1861.9341,1862.1841,,127,127,,,,,,,,,,,,,,,,bars/011.png,bars/mask000.png,,,,,,,,,,,,0,1,,,,,,,2,6,1,5,,,,,,,,,,,1861.4343,1861.934,1862.1841,1865.6504,space,3.4483,,1865.6504,33,42,1866.6501,1866.6502,1866.6639,,,,0,41,41,41,1,160,85,,,,,,,,
,,654cee478454c59efad0196c,65af558ab1b2d753c0180a0a,2024-01-23_06h00.42.886,bars,2023.2.3,Win32,58.82352941,657b66ea316d21385b68909f,,,,,,,,,,,1866.6642,1867.6669,,,1868.1666,1868.4165,,18,198,,,,,,,,,,,,,,,,bars/003.png,bars/mask008.png,,,,,,,,,,,,3,1,,,,,,,4,8,4,7,,,,,,,,,,,1867.6669,1868.1666,1868.4166,1872.1161,space,3.6872,,1872.1162,7,58,1873.1159,1873.1161,1873.1285,,,,0,42,42,42,1,25,140,,,,,,,,
,,654cee478454c59efad0196c,65af558ab1b2d753c0180a0a,2024-01-23_06h00.42.886,bars,2023.2.3,Win32,58.82352941,657b66ea316d21385b68909f,,,,,,,,,,,1873.1288,1874.1326,,,1874.6324,1874.8824,,89,89,,,,,,,,,,,,,,,,bars/006.png,bars/mask001.png,,,,,,,,,,,,3,2,,,,,,,2,6,3,5,,,,,,,,,,,1874.1327,1874.6324,1874.8825,1879.6818,space,4.7887,,1879.6819,54,11,1880.6817,1880.6817,1880.6952,,,,0,43,43,43,1,35,100,,,,,,,,
,,654cee478454c59efad0196c,65af558ab1b2d753c0180a0a,2024-01-23_06h00.42.886,bars,2023.2.3,Win32,58.82352941,657b66ea316d21385b68909f,,,,,,,,,,,1880.6955,1881.6982,,,1882.1982,1882.448,,142,142,,,,,,,,,,,,,,,,bars/044.png,bars/mask000.png,,,,,,,,,,,,5,2,,,,,,,4,8,6,9,,,,,,,,,,,1881.6982,1882.1981,1882.4481,1885.2311,space,2.7671,,1885.2312,67,13,1886.2309,1886.2309,1886.2445,,,,0,44,44,44,1,75,155,,,,,,,,
,,654cee478454c59efad0196c,65af558ab1b2d753c0180a0a,2024-01-23_06h00.42.886,bars,2023.2.3,Win32,58.82352941,657b66ea316d21385b68909f,,,,,,,,,,,1886.2448,1887.2475,,,1887.7474,1887.9973,,115,115,,,,,,,,,,,,,,,,bars/021.png,bars/mask006.png,,,,,,,,,,,,0,1,,,,,,,2,6,1,6,,,,,,,,,,,1887.2475,1887.7474,1887.9973,1891.9802,space,3.9654,,1891.9802,40,45,1892.98,1892.98,1892.9935,,,,0,45,45,45,1,155,70,,,,,,,,
,,654cee478454c59efad0196c,65af558ab1b2d753c0180a0a,2024-01-23_06h00.42.886,bars,2023.2.3,Win32,58.82352941,657b66ea316d21385b68909f,,,,,,,,,,,1892.9938,1893.9967,,,1894.4966,1894.7464,,5,185,,,,,,,,,,,,,,,,bars/026.png,bars/mask002.png,,,,,,,,,,,,0,1,,,,,,,4,8,4,7,,,,,,,,,,,1893.9967,1894.4965,1894.7465,1899.1127,space,4.353,,1899.1128,30,80,1900.1124,1900.1124,1900.1251,,,,0,46,46,46,1,35,85,,,,,,,,
,,654cee478454c59efad0196c,65af558ab1b2d753c0180a0a,2024-01-23_06h00.42.886,bars,2023.2.3,Win32,58.82352941,657b66ea316d21385b68909f,,,,,,,,,,,1900.1254,1901.1289,,,1901.6289,1901.8788,,61,61,,,,,,,,,,,,,,,,bars/011.png,bars/mask006.png,,,,,,,,,,,,1,2,,,,,,,6,6,7,5,,,,,,,,,,,1901.1289,1901.6289,1901.8789,1905.6785,space,3.7848,,1905.6785,81,24,1906.6782,1906.6782,1906.6925,,,,0,47,47,47,1,160,85,,,,,,,,
,,654cee478454c59efad0196c,65af558ab1b2d753c0180a0a,2024-01-23_06h00.42.886,bars,2023.2.3,Win32,58.82352941,657b66ea316d21385b68909f,,,,,,,,,,,1906.6928,1907.6947,,,1908.1948,1908.4447,,4,184,,,,,,,,,,,,,,,,bars/009.png,bars/mask006.png,,,,,,,,,,,,4,1,,,,,,,8,8,7,10,,,,,,,,,,,1907.6948,1908.1947,1908.4447,1913.8608,space,5.4002,,1913.8608,11,79,1914.8604,1914.8605,1914.8749,,,,0,48,48,48,1,15,105,,,,,,,,
,,654cee478454c59efad0196c,65af558ab1b2d753c0180a0a,2024-01-23_06h00.42.886,bars,2023.2.3,Win32,58.82352941,657b66ea316d21385b68909f,,,,,,,,,,,1914.8751,1915.8772,,,1916.3771,1916.6269,,47,47,,,,,,,,,,,,,,,,bars/022.png,bars/mask006.png,,,,,,,,,,,,1,2,,,,,,,10,6,10,6,,,,,,,,,,,1915.8772,1916.377,1916.627,1920.6598,space,4.017,,1920.6599,48,27,1921.6595,1921.6595,1921.674,,,,0,49,49,49,1,95,20,,,,,,,,
,,654cee478454c59efad0196c,65af558ab1b2d753c0180a0a,2024-01-23_06h00.42.886,bars,2023.2.3,Win32,58.82352941,657b66ea316d21385b68909f,,,,,,,,,,,,,,,,,,,,,,,,,,,,,,,,,,,,,,,,,,,,,,,,,,,,,,,,,,,,,,,,,,,,,,,,,,,,,,,,,,,,,,,,,,,,,1921.6741,1981.6684,0,3,3,1,1,sequence_tables/blk049.csv
,,654cee478454c59efad0196c,65af558ab1b2d753c0180a0a,2024-01-23_06h00.42.886,bars,2023.2.3,Win32,58.82352941,657b66ea316d21385b68909f,,,,,,,,,,,1995.3029,1996.3009,,,1996.8011,1997.0347,,47,47,,,,,,,,,,,,,,,,bars/010.png,bars/mask007.png,,,,,,,,,,,,7,2,,,,,,,9,9,7,10,,,,,,1981.6833,1995.2838,space,13.5864,,1996.301,1996.8008,1997.035,1999.8085,space,2.7506,,1999.8085,62,8,2000.7992,2000.7992,2000.8123,,,,0,0,0,0,1,165,55,,,,,,,,
,,654cee478454c59efad0196c,65af558ab1b2d753c0180a0a,2024-01-23_06h00.42.886,bars,2023.2.3,Win32,58.82352941,657b66ea316d21385b68909f,,,,,,,,,,,2000.8125,2001.8159,,,2002.3158,2002.5657,,151,-29,,,,,,,,,,,,,,,,bars/033.png,bars/mask007.png,,,,,,,,,,,,9,2,,,,,,,7,10,7,10,,,,,,,,,,,2001.816,2002.3157,2002.5657,2007.1153,space,4.5337,,2007.1154,54,4,2008.115,2008.115,2008.1283,,,,0,1,1,1,1,25,155,,,,,,,,
,,654cee478454c59efad0196c,65af558ab1b2d753c0180a0a,2024-01-23_06h00.42.886,bars,2023.2.3,Win32,58.82352941,657b66ea316d21385b68909f,,,,,,,,,,,2008.1285,2009.1317,,,2009.6315,2009.8814,,14,194,,,,,,,,,,,,,,,,bars/032.png,bars/mask006.png,,,,,,,,,,,,6,2,,,,,,,9,8,9,8,,,,,,,,,,,2009.1317,2009.6315,2009.8814,2013.131,space,3.2332,,2013.131,69,6,2014.1308,2014.1309,2014.1443,,,,0,2,2,2,1,125,20,,,,,,,,
,,654cee478454c59efad0196c,65af558ab1b2d753c0180a0a,2024-01-23_06h00.42.886,bars,2023.2.3,Win32,58.82352941,657b66ea316d21385b68909f,,,,,,,,,,,2014.1445,2015.1473,,,2015.6473,2015.8972,,49,49,,,,,,,,,,,,,,,,bars/035.png,bars/mask000.png,,,,,,,,,,,,4,2,,,,,,,10,6,8,7,,,,,,,,,,,2015.1474,2015.6473,2015.8973,2021.1133,space,5.2007,,2021.1133,54,11,2022.1131,2022.1132,2022.1261,,,,0,3,3,3,1,175,60,,,,,,,,
,,654cee478454c59efad0196c,65af558ab1b2d753c0180a0a,2024-01-23_06h00.42.886,bars,2023.2.3,Win32,58.82352941,657b66ea316d21385b68909f,,,,,,,,,,,2022.1264,2023.1296,,,2023.6296,2023.8795,,134,134,,,,,,,,,,,,,,,,bars/044.png,bars/mask003.png,,,,,,,,,,,,1,2,,,,,,,10,4,9,4,,,,,,,,,,,2023.1297,2023.6295,2023.8796,2028.3125,space,4.4157,,2028.3125,59,21,2029.3122,2029.3122,2029.3249,,,,0,4,4,4,1,75,155,,,,,,,,
,,654cee478454c59efad0196c,65af558ab1b2d753c0180a0a,2024-01-23_06h00.42.886,bars,2023.2.3,Win32,58.82352941,657b66ea316d21385b68909f,,,,,,,,,,,2029.3252,2030.3287,,,2030.8287,2031.0786,,68,68,,,,,,,,,,,,,,,,bars/041.png,bars/mask004.png,,,,,,,,,,,,1,2,,,,,,,8,2,8,3,,,,,,,,,,,2030.3287,2030.8286,2031.0786,2033.7617,space,2.6659,,2033.7618,48,17,2034.7615,2034.7615,2034.7743,,,,0,5,5,5,1,20,85,,,,,,,,
,,654cee478454c59efad0196c,65af558ab1b2d753c0180a0a,2024-01-23_06h00.42.886,bars,2023.2.3,Win32,58.82352941,657b66ea316d21385b68909f,,,,,,,,,,,2034.7745,2035.778,,,2036.2779,2036.5279,,63,63,,,,,,,,,,,,,,,,bars/011.png,bars/mask007.png,,,,,,,,,,,,1,2,,,,,,,6,4,6,4,,,,,,,,,,,2035.778,2036.2779,2036.5279,2040.0109,space,3.4678,,2040.0109,83,22,2041.0106,2041.0107,2041.0232,,,,0,6,6,6,1,160,85,,,,,,,,
,,654cee478454c59efad0196c,65af558ab1b2d753c0180a0a,2024-01-23_06h00.42.886,bars,2023.2.3,Win32,58.82352941,657b66ea316d21385b68909f,,,,,,,,,,,2041.0235,2042.0271,,,2042.5273,2042.777,,17,197,,,,,,,,,,,,,,,,bars/048.png,bars/mask000.png,,,,,,,,,,,,2,2,,,,,,,8,6,9,6,,,,,,,,,,,2042.0272,2042.5272,2042.777,2045.2768,space,2.4839,,2045.2769,33,22,2046.2766,2046.2767,2046.2898,,,,0,7,7,7,1,50,175,,,,,,,,
,,654cee478454c59efad0196c,65af558ab1b2d753c0180a0a,2024-01-23_06h00.42.886,bars,2023.2.3,Win32,58.82352941,657b66ea316d21385b68909f,,,,,,,,,,,2046.2899,2047.2933,,,2047.7931,2048.043,,73,73,,,,,,,,,,,,,,,,bars/034.png,bars/mask005.png,,,,,,,,,,,,6,2,,,,,,,10,8,10,8,,,,,,,,,,,2047.2934,2047.7931,2048.043,2051.1927,space,3.1348,,2051.1928,52,8,2052.1925,2052.1926,2052.2053,,,,0,8,8,8,1,125,65,,,,,,,,
,,654cee478454c59efad0196c,65af558ab1b2d753c0180a0a,2024-01-23_06h00.42.886,bars,2023.2.3,Win32,58.82352941,657b66ea316d21385b68909f,,,,,,,,,,,2052.2055,2053.2092,,,2053.709,2053.9589,,88,88,,,,,,,,,,,,,,,,bars/007.png,bars/mask003.png,,,,,,,,,,,,0,2,,,,,,,8,10,6,10,,,,,,,,,,,2053.2092,2053.7089,2053.959,2055.5921,space,1.6188,,2055.5922,87,33,2056.5919,2056.5919,2056.5928,,,,0,9,9,9,1,175,55,,,,,,,,
,,654cee478454c59efad0196c,65af558ab1b2d753c0180a0a,2024-01-23_06h00.42.886,bars,2023.2.3,Win32,58.82352941,657b66ea316d21385b68909f,,,,,,,,,,,2056.594,2057.5918,,,2058.0918,2058.3425,,90,90,,,,,,,,,,,,,,,,bars/019.png,bars/mask006.png,,,,,,,,,,,,5,2,,,,,,,10,10,10,10,,,,,,,,,,,2057.5918,2058.0918,2058.3427,2060.5915,space,2.2318,,2060.5916,45,15,2061.5913,2061.5913,2061.6051,,,,0,10,10,10,1,45,105,,,,,,,,
,,654cee478454c59efad0196c,65af558ab1b2d753c0180a0a,2024-01-23_06h00.42.886,bars,2023.2.3,Win32,58.82352941,657b66ea316d21385b68909f,,,,,,,,,,,2061.6054,2062.6078,,,2063.1078,2063.3577,,1,1,,,,,,,,,,,,,,,,bars/014.png,bars/mask002.png,,,,,,,,,,,,10,2,,,,,,,8,10,9,10,,,,,,,,,,,2062.6078,2063.1077,2063.3577,2065.2409,space,1.8715,,2065.241,79,1,2066.2407,2066.2407,2066.2535,,,,0,11,11,11,1,80,0,,,,,,,,
