init_variables.started,init_variables.stopped,participant,session,date,expName,psychopyVersion,OS,frameRate,study_id,instruction_exp.started,instruction_exp.stopped,key_resp_8.keys,key_resp_8.rt,key_resp_8.duration,instruction_single.started,instruction_single.stopped,key_resp_2.keys,key_resp_2.rt,key_resp_2.duration,interval.started,interval.stopped,cue_single.started,cue_single.stopped,mask.started,mask.stopped,ori_response_single.started,res_ori,res,ori_response_single.stopped,key_resp_single.keys,key_resp_single.rt,key_resp_single.duration,disp_single.started,disp_single.stopped,key_resp.keys,key_resp.rt,key_resp.duration,single.thisRepN,single.thisTrialN,single.thisN,single.thisIndex,single.ran,ori,path,mask_path,instruction_bandit.started,instruction_bandit.stopped,key_resp_6.keys,key_resp_6.rt,key_resp_6.duration,cue_bandit.started,cue_bandit.stopped,bandit_res.keys,bandit_res.rt,bandit_res.duration,outcome_bandit.started,rew,action,outcome_bandit.stopped,bandit.thisRepN,bandit.thisTrialN,bandit.thisN,bandit.thisIndex,bandit.ran,actual_rew1,actual_rew2,rew1,rew2,instruction_task.started,instruction_task.stopped,key_resp_7.keys,key_resp_7.rt,key_resp_7.duration,wait_ready.started,wait_ready.stopped,key_resp_3.keys,key_resp_3.rt,key_resp_3.duration,cue.started,cue.stopped,ori_response.started,ori_response.stopped,key_resp_5.keys,key_resp_5.rt,key_resp_5.duration,outcome.started,diff1,diff2,outcome.stopped,disp_outcome_practice.started,disp_outcome_practice.stopped,key_resp_4.keys,key_resp_4.rt,key_resp_4.duration,trials.thisRepN,trials.thisTrialN,trials.thisN,trials.thisIndex,trials.ran,ori1,ori2,break_blk.started,break_blk.stopped,block.thisRepN,block.thisTrialN,block.thisN,block.thisIndex,block.ran,condition_file
0.0007,0.0008,6132965ccc912bb9b4a5c3e5,65af55cd97d7ed799e101c6b,2024-01-23_08h00.29.891,bars,2023.2.3,Win32,59.17159763,657b66ea316d21385b68909f,,,,,,,,,,,,,,,,,,,,,,,,,,,,,,,,,,,,,,,,,,,,,,,,,,,,,,,,,,,,,,,,,,,,,,,,,,,,,,,,,,,,,,,,,,,,,,,,,,,,
,,6132965ccc912bb9b4a5c3e5,65af55cd97d7ed799e101c6b,2024-01-23_08h00.29.891,bars,2023.2.3,Win32,59.17159763,657b66ea316d21385b68909f,0.0011,10.298,y,10.2704,,,,,,,,,,,,,,,,,,,,,,,,,,,,,,,,,,,,,,,,,,,,,,,,,,,,,,,,,,,,,,,,,,,,,,,,,,,,,,,,,,,,,,,,,,,,,,,,
,,6132965ccc912bb9b4a5c3e5,65af55cd97d7ed799e101c6b,2024-01-23_08h00.29.891,bars,2023.2.3,Win32,59.17159763,657b66ea316d21385b68909f,,,,,,10.2981,53.905,space,43.5895,,,,,,,,,,,,,,,,,,,,,,,,,,,,,,,,,,,,,,,,,,,,,,,,,,,,,,,,,,,,,,,,,,,,,,,,,,,,,,,,,,,,,,,,,,,
,,6132965ccc912bb9b4a5c3e5,65af55cd97d7ed799e101c6b,2024-01-23_08h00.29.891,bars,2023.2.3,Win32,59.17159763,657b66ea316d21385b68909f,,,,,,,,,,,53.9078,54.8979,54.8979,55.3986,55.3988,55.6485,55.6487,90,90,62.3122,space,6.6373,,62.3123,74.4577,space,12.1203,,0,0,0,1,1,20,bars/single001.png,bars/mask006.png,,,,,,,,,,,,,,,,,,,,,,,,,,,,,,,,,,,,,,,,,,,,,,,,,,,,,,,,,,,,,,,,
,,6132965ccc912bb9b4a5c3e5,65af55cd97d7ed799e101c6b,2024-01-23_08h00.29.891,bars,2023.2.3,Win32,59.17159763,657b66ea316d21385b68909f,,,,,,,,,,,74.4644,75.4609,75.4612,75.9598,75.9599,76.2114,76.2114,90,90,81.0445,space,4.8165,,81.0445,85.0977,space,4.0321,,0,1,1,0,1,150,bars/single000.png,bars/mask006.png,,,,,,,,,,,,,,,,,,,,,,,,,,,,,,,,,,,,,,,,,,,,,,,,,,,,,,,,,,,,,,,,
,,6132965ccc912bb9b4a5c3e5,65af55cd97d7ed799e101c6b,2024-01-23_08h00.29.891,bars,2023.2.3,Win32,59.17159763,657b66ea316d21385b68909f,,,,,,,,,,,85.1042,86.0978,86.098,86.5979,86.598,86.8483,86.8483,90,90,89.8318,space,2.9657,,89.8318,93.7483,space,3.8997,,0,2,2,9,1,20,bars/single009.png,bars/mask006.png,,,,,,,,,,,,,,,,,,,,,,,,,,,,,,,,,,,,,,,,,,,,,,,,,,,,,,,,,,,,,,,,
,,6132965ccc912bb9b4a5c3e5,65af55cd97d7ed799e101c6b,2024-01-23_08h00.29.891,bars,2023.2.3,Win32,59.17159763,657b66ea316d21385b68909f,,,,,,,,,,,93.7549,94.7485,94.7486,95.2486,95.2488,95.4988,95.4989,90,90,100.5816,space,5.0682,,100.5818,102.7145,space,2.1106,,0,3,3,5,1,55,bars/single005.png,bars/mask008.png,,,,,,,,,,,,,,,,,,,,,,,,,,,,,,,,,,,,,,,,,,,,,,,,,,,,,,,,,,,,,,,,
,,6132965ccc912bb9b4a5c3e5,65af55cd97d7ed799e101c6b,2024-01-23_08h00.29.891,bars,2023.2.3,Win32,59.17159763,657b66ea316d21385b68909f,,,,,,,,,,,102.7153,103.7146,103.7146,104.2143,104.2144,104.465,104.4651,90,90,110.0481,space,5.5634,,110.0482,114.5817,space,4.5164,,0,4,4,4,1,95,bars/single004.png,bars/mask004.png,,,,,,,,,,,,,,,,,,,,,,,,,,,,,,,,,,,,,,,,,,,,,,,,,,,,,,,,,,,,,,,,
,,6132965ccc912bb9b4a5c3e5,65af55cd97d7ed799e101c6b,2024-01-23_08h00.29.891,bars,2023.2.3,Win32,59.17159763,657b66ea316d21385b68909f,,,,,,,,,,,114.589,115.5809,115.5809,116.0809,116.0809,116.3314,116.3314,90,90,119.1339,space,2.7842,,119.1341,121.2651,space,2.1086,,0,5,5,2,1,145,bars/single002.png,bars/mask003.png,,,,,,,,,,,,,,,,,,,,,,,,,,,,,,,,,,,,,,,,,,,,,,,,,,,,,,,,,,,,,,,,
,,6132965ccc912bb9b4a5c3e5,65af55cd97d7ed799e101c6b,2024-01-23_08h00.29.891,bars,2023.2.3,Win32,59.17159763,657b66ea316d21385b68909f,,,,,,,,,,,121.2658,122.2647,122.2647,122.765,122.7652,123.0151,123.0153,90,90,127.598,space,4.5693,,127.5981,130.298,space,2.679,,0,6,6,8,1,160,bars/single008.png,bars/mask004.png,,,,,,,,,,,,,,,,,,,,,,,,,,,,,,,,,,,,,,,,,,,,,,,,,,,,,,,,,,,,,,,,
,,6132965ccc912bb9b4a5c3e5,65af55cd97d7ed799e101c6b,2024-01-23_08h00.29.891,bars,2023.2.3,Win32,59.17159763,657b66ea316d21385b68909f,,,,,,,,,,,130.2988,131.2983,131.2984,131.798,131.7982,132.0481,132.0481,90,90,135.4486,space,3.3849,,135.4487,140.1478,space,4.68,,0,7,7,7,1,45,bars/single007.png,bars/mask009.png,,,,,,,,,,,,,,,,,,,,,,,,,,,,,,,,,,,,,,,,,,,,,,,,,,,,,,,,,,,,,,,,
,,6132965ccc912bb9b4a5c3e5,65af55cd97d7ed799e101c6b,2024-01-23_08h00.29.891,bars,2023.2.3,Win32,59.17159763,657b66ea316d21385b68909f,,,,,,,,,,,140.1551,141.1494,141.1495,141.6485,141.6486,141.8975,141.8975,90,90,144.6482,space,2.7303,,144.6483,147.798,space,3.1365,,0,8,8,6,1,175,bars/single006.png,bars/mask005.png,,,,,,,,,,,,,,,,,,,,,,,,,,,,,,,,,,,,,,,,,,,,,,,,,,,,,,,,,,,,,,,,
,,6132965ccc912bb9b4a5c3e5,65af55cd97d7ed799e101c6b,2024-01-23_08h00.29.891,bars,2023.2.3,Win32,59.17159763,657b66ea316d21385b68909f,,,,,,,,,,,147.8054,148.7973,148.7974,149.2976,149.2977,149.5474,149.5474,90,90,154.3496,space,4.7885,,154.3496,155.4483,space,1.0787,,0,9,9,3,1,20,bars/single003.png,bars/mask005.png,,,,,,,,,,,,,,,,,,,,,,,,,,,,,,,,,,,,,,,,,,,,,,,,,,,,,,,,,,,,,,,,
,,6132965ccc912bb9b4a5c3e5,65af55cd97d7ed799e101c6b,2024-01-23_08h00.29.891,bars,2023.2.3,Win32,59.17159763,657b66ea316d21385b68909f,,,,,,,,,,,,,,,,,,,,,,,,,,,,,,,,,,,,,155.4496,169.1983,space,13.7307,,,,,,,,,,,,,,,,,,,,,,,,,,,,,,,,,,,,,,,,,,,,,,,,,,,,,,,,,,,,
,,6132965ccc912bb9b4a5c3e5,65af55cd97d7ed799e101c6b,2024-01-23_08h00.29.891,bars,2023.2.3,Win32,59.17159763,657b66ea316d21385b68909f,,,,,,,,,,,,,,,,,,,,,,,,,,,,,,,,,,,,,,,,,,169.2077,174.2314,left,5.0044,,174.2315,9,1,175.2311,0,0,0,0,1,9,1,9,2,,,,,,,,,,,,,,,,,,,,,,,,,,,,,,,,,,,,,,,,,
,,6132965ccc912bb9b4a5c3e5,65af55cd97d7ed799e101c6b,2024-01-23_08h00.29.891,bars,2023.2.3,Win32,59.17159763,657b66ea316d21385b68909f,,,,,,,,,,,,,,,,,,,,,,,,,,,,,,,,,,,,,,,,,,175.2321,180.1977,left,4.9531,,180.1978,10,1,181.1974,0,1,1,1,1,10,0,10,1,,,,,,,,,,,,,,,,,,,,,,,,,,,,,,,,,,,,,,,,,
,,6132965ccc912bb9b4a5c3e5,65af55cd97d7ed799e101c6b,2024-01-23_08h00.29.891,bars,2023.2.3,Win32,59.17159763,657b66ea316d21385b68909f,,,,,,,,,,,,,,,,,,,,,,,,,,,,,,,,,,,,,,,,,,181.2066,183.1471,left,1.9294,,183.1472,10,1,184.1477,0,2,2,2,1,10,2,10,2,,,,,,,,,,,,,,,,,,,,,,,,,,,,,,,,,,,,,,,,,
,,6132965ccc912bb9b4a5c3e5,65af55cd97d7ed799e101c6b,2024-01-23_08h00.29.891,bars,2023.2.3,Win32,59.17159763,657b66ea316d21385b68909f,,,,,,,,,,,,,,,,,,,,,,,,,,,,,,,,,,,,,,,,,,184.1542,185.4647,left,1.2979,,185.4648,7,1,186.4642,0,3,3,3,1,8,4,7,3,,,,,,,,,,,,,,,,,,,,,,,,,,,,,,,,,,,,,,,,,
,,6132965ccc912bb9b4a5c3e5,65af55cd97d7ed799e101c6b,2024-01-23_08h00.29.891,bars,2023.2.3,Win32,59.17159763,657b66ea316d21385b68909f,,,,,,,,,,,,,,,,,,,,,,,,,,,,,,,,,,,,,,,,,,186.4645,188.1978,right,1.7137,,188.1979,1,2,189.1978,0,4,4,4,1,6,2,5,1,,,,,,,,,,,,,,,,,,,,,,,,,,,,,,,,,,,,,,,,,
,,6132965ccc912bb9b4a5c3e5,65af55cd97d7ed799e101c6b,2024-01-23_08h00.29.891,bars,2023.2.3,Win32,59.17159763,657b66ea316d21385b68909f,,,,,,,,,,,,,,,,,,,,,,,,,,,,,,,,,,,,,,,,,,189.1982,190.4645,left,1.2506,,190.4647,4,1,191.4648,0,5,5,5,1,4,4,4,4,,,,,,,,,,,,,,,,,,,,,,,,,,,,,,,,,,,,,,,,,
,,6132965ccc912bb9b4a5c3e5,65af55cd97d7ed799e101c6b,2024-01-23_08h00.29.891,bars,2023.2.3,Win32,59.17159763,657b66ea316d21385b68909f,,,,,,,,,,,,,,,,,,,,,,,,,,,,,,,,,,,,,,,,,,191.4728,192.0811,left,0.5932,,192.0812,1,1,193.0803,0,6,6,6,1,2,2,1,2,,,,,,,,,,,,,,,,,,,,,,,,,,,,,,,,,,,,,,,,,
,,6132965ccc912bb9b4a5c3e5,65af55cd97d7ed799e101c6b,2024-01-23_08h00.29.891,bars,2023.2.3,Win32,59.17159763,657b66ea316d21385b68909f,,,,,,,,,,,,,,,,,,,,,,,,,,,,,,,,,,,,,,,,,,193.0806,193.6502,right,0.5521,,193.6502,1,2,194.6492,0,7,7,7,1,0,0,0,1,,,,,,,,,,,,,,,,,,,,,,,,,,,,,,,,,,,,,,,,,
,,6132965ccc912bb9b4a5c3e5,65af55cd97d7ed799e101c6b,2024-01-23_08h00.29.891,bars,2023.2.3,Win32,59.17159763,657b66ea316d21385b68909f,,,,,,,,,,,,,,,,,,,,,,,,,,,,,,,,,,,,,,,,,,194.65,195.1345,left,0.4721,,195.1346,1,1,196.1307,0,8,8,8,1,0,2,1,0,,,,,,,,,,,,,,,,,,,,,,,,,,,,,,,,,,,,,,,,,
,,6132965ccc912bb9b4a5c3e5,65af55cd97d7ed799e101c6b,2024-01-23_08h00.29.891,bars,2023.2.3,Win32,59.17159763,657b66ea316d21385b68909f,,,,,,,,,,,,,,,,,,,,,,,,,,,,,,,,,,,,,,,,,,196.1311,196.5311,left,0.3805,,196.5311,2,1,197.5314,0,9,9,9,1,2,4,2,3,,,,,,,,,,,,,,,,,,,,,,,,,,,,,,,,,,,,,,,,,
,,6132965ccc912bb9b4a5c3e5,65af55cd97d7ed799e101c6b,2024-01-23_08h00.29.891,bars,2023.2.3,Win32,59.17159763,657b66ea316d21385b68909f,,,,,,,,,,,,,,,,,,,,,,,,,,,,,,,,,,,,,,,,,,197.5325,198.0972,left,0.5502,,198.0973,0,1,199.0974,0,10,10,10,1,0,2,0,3,,,,,,,,,,,,,,,,,,,,,,,,,,,,,,,,,,,,,,,,,
,,6132965ccc912bb9b4a5c3e5,65af55cd97d7ed799e101c6b,2024-01-23_08h00.29.891,bars,2023.2.3,Win32,59.17159763,657b66ea316d21385b68909f,,,,,,,,,,,,,,,,,,,,,,,,,,,,,,,,,,,,,,,,,,199.0975,201.0643,right,1.9517,,201.0643,3,2,202.0644,0,11,11,11,1,0,4,0,3,,,,,,,,,,,,,,,,,,,,,,,,,,,,,,,,,,,,,,,,,
,,6132965ccc912bb9b4a5c3e5,65af55cd97d7ed799e101c6b,2024-01-23_08h00.29.891,bars,2023.2.3,Win32,59.17159763,657b66ea316d21385b68909f,,,,,,,,,,,,,,,,,,,,,,,,,,,,,,,,,,,,,,,,,,202.0725,202.75,right,0.6657,,202.75,6,2,203.7492,0,12,12,12,1,2,6,1,6,,,,,,,,,,,,,,,,,,,,,,,,,,,,,,,,,,,,,,,,,
,,6132965ccc912bb9b4a5c3e5,65af55cd97d7ed799e101c6b,2024-01-23_08h00.29.891,bars,2023.2.3,Win32,59.17159763,657b66ea316d21385b68909f,,,,,,,,,,,,,,,,,,,,,,,,,,,,,,,,,,,,,,,,,,203.7501,204.3144,right,0.5502,,204.3145,3,2,205.3142,0,13,13,13,1,0,4,1,3,,,,,,,,,,,,,,,,,,,,,,,,,,,,,,,,,,,,,,,,,
,,6132965ccc912bb9b4a5c3e5,65af55cd97d7ed799e101c6b,2024-01-23_08h00.29.891,bars,2023.2.3,Win32,59.17159763,657b66ea316d21385b68909f,,,,,,,,,,,,,,,,,,,,,,,,,,,,,,,,,,,,,,,,,,205.3146,205.831,left,0.5003,,205.8312,2,1,206.8308,0,14,14,14,1,2,6,2,7,,,,,,,,,,,,,,,,,,,,,,,,,,,,,,,,,,,,,,,,,
,,6132965ccc912bb9b4a5c3e5,65af55cd97d7ed799e101c6b,2024-01-23_08h00.29.891,bars,2023.2.3,Win32,59.17159763,657b66ea316d21385b68909f,,,,,,,,,,,,,,,,,,,,,,,,,,,,,,,,,,,,,,,,,,206.8321,207.4638,left,0.6141,,207.4638,3,1,208.464,0,15,15,15,1,4,8,3,9,,,,,,,,,,,,,,,,,,,,,,,,,,,,,,,,,,,,,,,,,
,,6132965ccc912bb9b4a5c3e5,65af55cd97d7ed799e101c6b,2024-01-23_08h00.29.891,bars,2023.2.3,Win32,59.17159763,657b66ea316d21385b68909f,,,,,,,,,,,,,,,,,,,,,,,,,,,,,,,,,,,,,,,,,,208.4647,208.8501,left,0.3725,,208.8502,7,1,209.8489,0,16,16,16,1,6,6,7,7,,,,,,,,,,,,,,,,,,,,,,,,,,,,,,,,,,,,,,,,,
,,6132965ccc912bb9b4a5c3e5,65af55cd97d7ed799e101c6b,2024-01-23_08h00.29.891,bars,2023.2.3,Win32,59.17159763,657b66ea316d21385b68909f,,,,,,,,,,,,,,,,,,,,,,,,,,,,,,,,,,,,,,,,,,209.8497,210.9175,right,1.0557,,210.9175,5,2,211.9143,0,17,17,17,1,8,4,9,5,,,,,,,,,,,,,,,,,,,,,,,,,,,,,,,,,,,,,,,,,
,,6132965ccc912bb9b4a5c3e5,65af55cd97d7ed799e101c6b,2024-01-23_08h00.29.891,bars,2023.2.3,Win32,59.17159763,657b66ea316d21385b68909f,,,,,,,,,,,,,,,,,,,,,,,,,,,,,,,,,,,,,,,,,,211.9152,212.6649,right,0.7346,,212.665,1,2,213.664,0,18,18,18,1,6,2,5,1,,,,,,,,,,,,,,,,,,,,,,,,,,,,,,,,,,,,,,,,,
,,6132965ccc912bb9b4a5c3e5,65af55cd97d7ed799e101c6b,2024-01-23_08h00.29.891,bars,2023.2.3,Win32,59.17159763,657b66ea316d21385b68909f,,,,,,,,,,,,,,,,,,,,,,,,,,,,,,,,,,,,,,,,,,213.6648,214.3315,left,0.6518,,214.3315,7,1,215.331,0,19,19,19,1,8,0,7,0,,,,,,,,,,,,,,,,,,,,,,,,,,,,,,,,,,,,,,,,,
,,6132965ccc912bb9b4a5c3e5,65af55cd97d7ed799e101c6b,2024-01-23_08h00.29.891,bars,2023.2.3,Win32,59.17159763,657b66ea316d21385b68909f,,,,,,,,,,,,,,,,,,,,,,,,,,,,,,,,,,,,,,,,,,,,,,,,,,,,,,,,,,,,215.332,227.9982,space,12.646,,,,,,,,,,,,,,,,,,,,,,,,,,,,,,,,,,,,,
,,6132965ccc912bb9b4a5c3e5,65af55cd97d7ed799e101c6b,2024-01-23_08h00.29.891,bars,2023.2.3,Win32,59.17159763,657b66ea316d21385b68909f,,,,,,,,,,,229.538,230.5306,,,231.0312,231.2808,,90,90,,,,,,,,,,,,,,,,bars/001.png,bars/mask001.png,,,,,,,,,,,,8,2,,,,,,,1,9,1,9,,,,,,228.0062,229.5315,space,1.5104,,230.5311,231.0311,231.2814,237.2812,space,5.9817,,237.2814,40,5,238.2819,238.2821,253.5661,space,15.2641,,0,0,0,0,1,130,85,,,,,,,,
,,6132965ccc912bb9b4a5c3e5,65af55cd97d7ed799e101c6b,2024-01-23_08h00.29.891,bars,2023.2.3,Win32,59.17159763,657b66ea316d21385b68909f,,,,,,,,,,,253.5747,254.5642,,,255.0648,255.314,,90,90,,,,,,,,,,,,,,,,bars/004.png,bars/mask006.png,,,,,,,,,,,,0,2,,,,,,,0,10,1,10,,,,,,,,,,,254.5643,255.0646,255.3142,264.0137,space,8.6805,,264.014,65,35,265.0135,265.0136,274.0311,space,8.9936,,0,1,1,1,1,25,125,,,,,,,,
,,6132965ccc912bb9b4a5c3e5,65af55cd97d7ed799e101c6b,2024-01-23_08h00.29.891,bars,2023.2.3,Win32,59.17159763,657b66ea316d21385b68909f,,,,,,,,,,,274.0385,275.0302,,,275.5304,275.7803,,125,125,,,,,,,,,,,,,,,,bars/030.png,bars/mask002.png,,,,,,,,,,,,0,1,,,,,,,0,8,0,8,,,,,,,,,,,275.0302,275.5303,275.7804,279.7635,space,3.9631,,279.7636,15,60,280.7638,280.7639,285.9456,space,5.1594,,0,2,2,2,1,140,65,,,,,,,,
,,6132965ccc912bb9b4a5c3e5,65af55cd97d7ed799e101c6b,2024-01-23_08h00.29.891,bars,2023.2.3,Win32,59.17159763,657b66ea316d21385b68909f,,,,,,,,,,,285.9535,286.9469,,,287.4467,287.6969,,146,146,,,,,,,,,,,,,,,,bars/011.png,bars/mask006.png,,,,,,,,,,,,1,1,,,,,,,2,10,1,9,,,,,,,,,,,286.9469,287.4467,287.6969,294.598,space,6.8807,,294.5981,14,61,295.5977,295.5979,298.7471,space,3.129,,0,3,3,3,1,160,85,,,,,,,,
,,6132965ccc912bb9b4a5c3e5,65af55cd97d7ed799e101c6b,2024-01-23_08h00.29.891,bars,2023.2.3,Win32,59.17159763,657b66ea316d21385b68909f,,,,,,,,,,,298.7477,299.747,,,300.247,300.4973,,168,168,,,,,,,,,,,,,,,,bars/044.png,bars/mask007.png,,,,,,,,,,,,6,2,,,,,,,0,10,0,10,,,,,,,,,,,299.747,300.247,300.4974,306.7135,space,6.1988,,306.7137,87,13,307.7137,307.7138,312.4635,space,4.7273,,0,4,4,4,1,75,155,,,,,,,,
,,6132965ccc912bb9b4a5c3e5,65af55cd97d7ed799e101c6b,2024-01-23_08h00.29.891,bars,2023.2.3,Win32,59.17159763,657b66ea316d21385b68909f,,,,,,,,,,,312.4712,313.4636,,,313.9637,314.2137,,161,161,,,,,,,,,,,,,,,,bars/041.png,bars/mask007.png,,,,,,,,,,,,0,1,,,,,,,0,10,1,9,,,,,,,,,,,313.4637,313.9636,314.2138,317.6807,space,3.4467,,317.6808,39,76,318.6805,318.6805,324.2469,space,5.5443,,0,5,5,5,1,20,85,,,,,,,,
,,6132965ccc912bb9b4a5c3e5,65af55cd97d7ed799e101c6b,2024-01-23_08h00.29.891,bars,2023.2.3,Win32,59.17159763,657b66ea316d21385b68909f,,,,,,,,,,,324.2552,325.2466,,,325.7476,325.9973,,24,24,,,,,,,,,,,,,,,,bars/015.png,bars/mask009.png,,,,,,,,,,,,0,2,,,,,,,2,10,2,9,,,,,,,,,,,325.2466,325.7474,325.9974,331.3141,space,5.3004,,331.3143,86,44,332.3135,332.3136,339.8303,space,7.4928,,0,6,6,6,1,110,160,,,,,,,,
,,6132965ccc912bb9b4a5c3e5,65af55cd97d7ed799e101c6b,2024-01-23_08h00.29.891,bars,2023.2.3,Win32,59.17159763,657b66ea316d21385b68909f,,,,,,,,,,,339.8376,340.83,,,341.3301,341.5803,,165,165,,,,,,,,,,,,,,,,bars/015.png,bars/mask004.png,,,,,,,,,,,,7,2,,,,,,,0,8,0,8,,,,,,,,,,,340.83,341.3301,341.5804,345.5807,space,3.9853,,345.5807,55,5,346.5805,346.5806,350.9319,space,4.3344,,0,7,7,7,1,110,160,,,,,,,,
,,6132965ccc912bb9b4a5c3e5,65af55cd97d7ed799e101c6b,2024-01-23_08h00.29.891,bars,2023.2.3,Win32,59.17159763,657b66ea316d21385b68909f,,,,,,,,,,,350.9381,351.9301,,,352.4302,352.6803,,156,156,,,,,,,,,,,,,,,,bars/031.png,bars/mask006.png,,,,,,,,,,,,0,1,,,,,,,0,10,0,9,,,,,,,,,,,351.9301,352.4302,352.6803,357.347,space,4.652,,357.3472,36,59,358.3475,358.3476,364.197,space,5.83,,0,8,8,8,1,120,35,,,,,,,,
,,6132965ccc912bb9b4a5c3e5,65af55cd97d7ed799e101c6b,2024-01-23_08h00.29.891,bars,2023.2.3,Win32,59.17159763,657b66ea316d21385b68909f,,,,,,,,,,,364.2038,365.1968,,,365.6969,365.9468,,121,121,,,,,,,,,,,,,,,,bars/037.png,bars/mask008.png,,,,,,,,,,,,5,2,,,,,,,2,10,3,10,,,,,,,,,,,365.1969,365.6969,365.9468,370.3638,space,4.4012,,370.3639,29,16,371.3632,371.3633,374.0475,space,2.6598,,0,9,9,9,1,150,105,,,,,,,,
,,6132965ccc912bb9b4a5c3e5,65af55cd97d7ed799e101c6b,2024-01-23_08h00.29.891,bars,2023.2.3,Win32,59.17159763,657b66ea316d21385b68909f,,,,,,,,,,,374.0485,375.0468,,,375.5469,375.7969,,105,105,,,,,,,,,,,,,,,,bars/011.png,bars/mask009.png,,,,,,,,,,,,3,2,,,,,,,4,10,4,10,,,,,,,,,,,375.0469,375.5468,375.797,381.3303,space,5.5175,,381.3303,55,20,382.3297,382.3299,384.9304,space,2.5824,,0,10,10,10,1,160,85,,,,,,,,
,,6132965ccc912bb9b4a5c3e5,65af55cd97d7ed799e101c6b,2024-01-23_08h00.29.891,bars,2023.2.3,Win32,59.17159763,657b66ea316d21385b68909f,,,,,,,,,,,384.9311,385.9303,,,386.4298,386.6801,,82,82,,,,,,,,,,,,,,,,bars/018.png,bars/mask001.png,,,,,,,,,,,,7,2,,,,,,,2,10,3,10,,,,,,,,,,,385.9304,386.4297,386.6802,391.2634,space,4.5679,,391.2634,68,8,392.2641,392.2642,395.7297,space,3.4438,,0,11,11,11,1,150,90,,,,,,,,
,,6132965ccc912bb9b4a5c3e5,65af55cd97d7ed799e101c6b,2024-01-23_08h00.29.891,bars,2023.2.3,Win32,59.17159763,657b66ea316d21385b68909f,,,,,,,,,,,395.7379,396.7298,,,397.2301,397.4796,,94,94,,,,,,,,,,,,,,,,bars/047.png,bars/mask004.png,,,,,,,,,,,,2,2,,,,,,,4,8,4,8,,,,,,,,,,,396.7298,397.23,397.4796,401.1299,space,3.6301,,401.1299,79,24,402.1303,402.1304,404.1964,space,2.0458,,0,12,12,12,1,15,70,,,,,,,,
,,6132965ccc912bb9b4a5c3e5,65af55cd97d7ed799e101c6b,2024-01-23_08h00.29.891,bars,2023.2.3,Win32,59.17159763,657b66ea316d21385b68909f,,,,,,,,,,,404.1972,405.1964,,,405.6962,405.9463,,68,68,,,,,,,,,,,,,,,,bars/004.png,bars/mask008.png,,,,,,,,,,,,0,1,,,,,,,2,10,2,9,,,,,,,,,,,405.1964,405.6962,405.9463,408.7328,space,2.7724,,408.7329,43,57,409.7316,409.7318,412.7135,space,2.9605,,0,13,13,13,1,25,125,,,,,,,,
,,6132965ccc912bb9b4a5c3e5,65af55cd97d7ed799e101c6b,2024-01-23_08h00.29.891,bars,2023.2.3,Win32,59.17159763,657b66ea316d21385b68909f,,,,,,,,,,,412.7144,413.7132,,,414.2136,414.4633,,23,23,,,,,,,,,,,,,,,,bars/009.png,bars/mask007.png,,,,,,,,,,,,4,1,,,,,,,4,10,5,10,,,,,,,,,,,413.7132,414.2135,414.4633,416.6463,space,2.1638,,416.6464,8,82,417.6464,417.6464,419.6668,space,2.0022,,0,14,14,14,1,15,105,,,,,,,,
,,6132965ccc912bb9b4a5c3e5,65af55cd97d7ed799e101c6b,2024-01-23_08h00.29.891,bars,2023.2.3,Win32,59.17159763,657b66ea316d21385b68909f,,,,,,,,,,,419.6674,420.6634,,,421.1634,421.4128,,19,19,,,,,,,,,,,,,,,,bars/021.png,bars/mask002.png,,,,,,,,,,,,0,1,,,,,,,6,8,6,9,,,,,,,,,,,420.6634,421.1633,421.4129,425.1797,space,3.7467,,425.1798,44,51,426.1812,426.1813,433.4133,space,7.2135,,0,15,15,15,1,155,70,,,,,,,,
,,6132965ccc912bb9b4a5c3e5,65af55cd97d7ed799e101c6b,2024-01-23_08h00.29.891,bars,2023.2.3,Win32,59.17159763,657b66ea316d21385b68909f,,,,,,,,,,,433.4205,434.4129,,,434.9132,435.1632,,165,-15,,,,,,,,,,,,,,,,bars/028.png,bars/mask000.png,,,,,,,,,,,,0,2,,,,,,,4,6,3,7,,,,,,,,,,,434.4129,434.9131,435.1632,439.5665,space,4.3901,,439.5666,60,45,440.5635,440.5635,443.3464,space,2.7598,,0,16,16,16,1,45,120,,,,,,,,
,,6132965ccc912bb9b4a5c3e5,65af55cd97d7ed799e101c6b,2024-01-23_08h00.29.891,bars,2023.2.3,Win32,59.17159763,657b66ea316d21385b68909f,,,,,,,,,,,443.3472,444.3463,,,444.8469,445.0971,,138,-42,,,,,,,,,,,,,,,,bars/040.png,bars/mask003.png,,,,,,,,,,,,7,1,,,,,,,6,4,7,6,,,,,,,,,,,444.3464,444.8469,445.0972,448.43,space,3.3181,,448.4301,2,47,449.4294,449.4296,452.8797,space,3.4256,,0,17,17,17,1,140,5,,,,,,,,
,,6132965ccc912bb9b4a5c3e5,65af55cd97d7ed799e101c6b,2024-01-23_08h00.29.891,bars,2023.2.3,Win32,59.17159763,657b66ea316d21385b68909f,,,,,,,,,,,452.8863,453.8795,,,454.3801,454.6296,,141,-39,,,,,,,,,,,,,,,,bars/018.png,bars/mask005.png,,,,,,,,,,,,6,1,,,,,,,8,2,8,2,,,,,,,,,,,453.8795,454.3799,454.6297,458.2961,space,3.6514,,458.2961,9,51,459.2964,459.2965,461.5627,space,2.2423,,0,18,18,18,1,150,90,,,,,,,,
,,6132965ccc912bb9b4a5c3e5,65af55cd97d7ed799e101c6b,2024-01-23_08h00.29.891,bars,2023.2.3,Win32,59.17159763,657b66ea316d21385b68909f,,,,,,,,,,,461.5629,462.5634,,,463.0637,463.3133,,154,154,,,,,,,,,,,,,,,,bars/048.png,bars/mask004.png,,,,,,,,,,,,1,2,,,,,,,10,4,10,3,,,,,,,,,,,462.5635,463.0635,463.3133,465.9629,space,2.6319,,465.9629,76,21,466.963,466.9632,468.3804,space,1.3944,,0,19,19,19,1,50,175,,,,,,,,
,,6132965ccc912bb9b4a5c3e5,65af55cd97d7ed799e101c6b,2024-01-23_08h00.29.891,bars,2023.2.3,Win32,59.17159763,657b66ea316d21385b68909f,,,,,,,,,,,468.3813,469.3793,,,469.8801,470.1296,,14,194,,,,,,,,,,,,,,,,bars/015.png,bars/mask008.png,,,,,,,,,,,,0,2,,,,,,,10,6,10,6,,,,,,,,,,,469.3794,469.8801,470.1298,474.346,space,4.1974,,474.3461,84,34,475.3467,475.3469,477.8629,space,2.4959,,0,20,20,20,1,110,160,,,,,,,,
,,6132965ccc912bb9b4a5c3e5,65af55cd97d7ed799e101c6b,2024-01-23_08h00.29.891,bars,2023.2.3,Win32,59.17159763,657b66ea316d21385b68909f,,,,,,,,,,,477.8702,478.8629,,,479.3626,479.6129,,178,178,,,,,,,,,,,,,,,,bars/001.png,bars/mask007.png,,,,,,,,,,,,0,1,,,,,,,10,4,9,4,,,,,,,,,,,478.863,479.3626,479.6129,482.3488,space,2.7218,,482.3489,48,87,483.3466,483.3466,488.9126,space,5.5428,,0,21,21,21,1,130,85,,,,,,,,
,,6132965ccc912bb9b4a5c3e5,65af55cd97d7ed799e101c6b,2024-01-23_08h00.29.891,bars,2023.2.3,Win32,59.17159763,657b66ea316d21385b68909f,,,,,,,,,,,488.9202,489.9132,,,490.413,490.6628,,125,125,,,,,,,,,,,,,,,,bars/023.png,bars/mask008.png,,,,,,,,,,,,5,2,,,,,,,10,6,10,7,,,,,,,,,,,489.9132,490.413,490.6628,494.064,space,3.3846,,494.0641,75,10,495.0626,495.0627,496.7658,space,1.6797,,0,22,22,22,1,20,115,,,,,,,,
,,6132965ccc912bb9b4a5c3e5,65af55cd97d7ed799e101c6b,2024-01-23_08h00.29.891,bars,2023.2.3,Win32,59.17159763,657b66ea316d21385b68909f,,,,,,,,,,,496.7665,497.7628,,,498.2631,498.5133,,113,113,,,,,,,,,,,,,,,,bars/048.png,bars/mask006.png,,,,,,,,,,,,0,2,,,,,,,8,4,7,4,,,,,,,,,,,497.7628,498.2631,498.5134,502.5653,space,4.0382,,502.5654,63,62,503.5627,503.5627,504.5318,space,0.9521,,0,23,23,23,1,50,175,,,,,,,,
,,6132965ccc912bb9b4a5c3e5,65af55cd97d7ed799e101c6b,2024-01-23_08h00.29.891,bars,2023.2.3,Win32,59.17159763,657b66ea316d21385b68909f,,,,,,,,,,,504.5325,505.531,,,506.0294,506.2793,,175,175,,,,,,,,,,,,,,,,bars/010.png,bars/mask000.png,,,,,,,,,,,,4,1,,,,,,,6,6,6,6,,,,,,,,,,,505.5311,506.0293,506.2794,510.0958,space,3.8016,,510.0959,10,60,511.0965,511.0966,513.9794,space,2.8612,,0,24,24,24,1,165,55,,,,,,,,
,,6132965ccc912bb9b4a5c3e5,65af55cd97d7ed799e101c6b,2024-01-23_08h00.29.891,bars,2023.2.3,Win32,59.17159763,657b66ea316d21385b68909f,,,,,,,,,,,513.9859,514.9799,,,515.4796,515.7294,,168,-12,,,,,,,,,,,,,,,,bars/006.png,bars/mask007.png,,,,,,,,,,,,0,1,,,,,,,4,8,4,8,,,,,,,,,,,514.9799,515.4796,515.7295,517.699,space,1.9538,,517.6991,47,68,518.696,518.696,521.8826,space,3.1687,,0,25,25,25,1,35,100,,,,,,,,
,,6132965ccc912bb9b4a5c3e5,65af55cd97d7ed799e101c6b,2024-01-23_08h00.29.891,bars,2023.2.3,Win32,59.17159763,657b66ea316d21385b68909f,,,,,,,,,,,521.8888,522.8792,,,523.3793,523.6291,,25,205,,,,,,,,,,,,,,,,bars/042.png,bars/mask002.png,,,,,,,,,,,,0,2,,,,,,,6,6,4,6,,,,,,,,,,,522.8794,523.3792,523.6292,526.9487,space,3.3019,,526.9487,60,50,527.9477,527.9479,531.1295,space,3.1615,,0,26,26,26,1,145,75,,,,,,,,
,,6132965ccc912bb9b4a5c3e5,65af55cd97d7ed799e101c6b,2024-01-23_08h00.29.891,bars,2023.2.3,Win32,59.17159763,657b66ea316d21385b68909f,,,,,,,,,,,531.1302,532.129,,,532.6313,532.8802,,59,59,,,,,,,,,,,,,,,,bars/028.png,bars/mask002.png,,,,,,,,,,,,2,1,,,,,,,4,8,3,8,,,,,,,,,,,532.129,532.6311,532.8803,534.7959,space,1.9015,,534.796,14,61,535.796,535.796,537.7314,space,1.9155,,0,27,27,27,1,45,120,,,,,,,,
,,6132965ccc912bb9b4a5c3e5,65af55cd97d7ed799e101c6b,2024-01-23_08h00.29.891,bars,2023.2.3,Win32,59.17159763,657b66ea316d21385b68909f,,,,,,,,,,,537.7322,538.7308,,,539.2289,539.4795,,43,43,,,,,,,,,,,,,,,,bars/015.png,bars/mask008.png,,,,,,,,,,,,0,2,,,,,,,6,6,7,5,,,,,,,,,,,538.7308,539.2289,539.4795,544.8963,space,5.3959,,544.8964,67,63,545.896,545.896,550.5463,space,4.6239,,0,28,28,28,1,110,160,,,,,,,,
,,6132965ccc912bb9b4a5c3e5,65af55cd97d7ed799e101c6b,2024-01-23_08h00.29.891,bars,2023.2.3,Win32,59.17159763,657b66ea316d21385b68909f,,,,,,,,,,,550.5534,551.5459,,,552.046,552.2959,,158,158,,,,,,,,,,,,,,,,bars/024.png,bars/mask001.png,,,,,,,,,,,,5,2,,,,,,,4,8,5,9,,,,,,,,,,,551.546,552.0459,552.2959,558.3792,space,6.0642,,558.3793,38,12,559.3793,559.3794,562.3956,space,2.995,,0,29,29,29,1,120,170,,,,,,,,
,,6132965ccc912bb9b4a5c3e5,65af55cd97d7ed799e101c6b,2024-01-23_08h00.29.891,bars,2023.2.3,Win32,59.17159763,657b66ea316d21385b68909f,,,,,,,,,,,562.4021,563.396,,,563.8969,564.1459,,176,176,,,,,,,,,,,,,,,,bars/025.png,bars/mask007.png,,,,,,,,,,,,0,2,,,,,,,6,6,5,5,,,,,,,,,,,563.3961,563.8969,564.146,568.9962,space,4.8367,,568.9963,71,44,569.9955,569.9955,570.9955,space,0.9752,,0,30,30,30,1,105,40,,,,,,,,
,,6132965ccc912bb9b4a5c3e5,65af55cd97d7ed799e101c6b,2024-01-23_08h00.29.891,bars,2023.2.3,Win32,59.17159763,657b66ea316d21385b68909f,,,,,,,,,,,570.9957,571.9959,,,572.4962,572.7461,,21,21,,,,,,,,,,,,,,,,bars/027.png,bars/mask003.png,,,,,,,,,,,,0,2,,,,,,,4,8,3,10,,,,,,,,,,,571.996,572.4962,572.7462,577.7963,space,5.0355,,577.7964,89,29,578.7982,578.7983,580.2627,space,1.4444,,0,31,31,31,1,110,50,,,,,,,,
,,6132965ccc912bb9b4a5c3e5,65af55cd97d7ed799e101c6b,2024-01-23_08h00.29.891,bars,2023.2.3,Win32,59.17159763,657b66ea316d21385b68909f,,,,,,,,,,,580.2634,581.2623,,,581.7623,582.0125,,30,30,,,,,,,,,,,,,,,,bars/028.png,bars/mask008.png,,,,,,,,,,,,2,1,,,,,,,2,6,4,7,,,,,,,,,,,581.2623,581.7622,582.0125,585.3125,space,3.2852,,585.3125,15,90,586.3124,586.3125,589.6461,space,3.311,,0,32,32,32,1,45,120,,,,,,,,
,,6132965ccc912bb9b4a5c3e5,65af55cd97d7ed799e101c6b,2024-01-23_08h00.29.891,bars,2023.2.3,Win32,59.17159763,657b66ea316d21385b68909f,,,,,,,,,,,589.6467,590.6469,,,591.1465,591.396,,49,49,,,,,,,,,,,,,,,,bars/046.png,bars/mask002.png,,,,,,,,,,,,0,2,,,,,,,0,8,0,8,,,,,,,,,,,590.6471,591.1465,591.3961,594.8629,space,3.4514,,594.8629,74,36,595.8627,595.8628,597.4454,space,1.5598,,0,33,33,33,1,155,85,,,,,,,,
,,6132965ccc912bb9b4a5c3e5,65af55cd97d7ed799e101c6b,2024-01-23_08h00.29.891,bars,2023.2.3,Win32,59.17159763,657b66ea316d21385b68909f,,,,,,,,,,,597.4457,598.4454,,,598.9455,599.1959,,75,75,,,,,,,,,,,,,,,,bars/014.png,bars/mask009.png,,,,,,,,,,,,2,1,,,,,,,2,6,2,7,,,,,,,,,,,598.4455,598.9455,599.196,603.1298,space,3.9189,,603.1299,5,75,604.1295,604.1296,605.413,space,1.2602,,0,34,34,34,1,80,0,,,,,,,,
,,6132965ccc912bb9b4a5c3e5,65af55cd97d7ed799e101c6b,2024-01-23_08h00.29.891,bars,2023.2.3,Win32,59.17159763,657b66ea316d21385b68909f,,,,,,,,,,,605.4143,606.412,,,606.9133,607.1624,,82,82,,,,,,,,,,,,,,,,bars/002.png,bars/mask004.png,,,,,,,,,,,,4,2,,,,,,,0,4,1,4,,,,,,,,,,,606.412,606.9133,607.1624,609.6455,space,2.4696,,609.6455,48,3,610.6468,610.647,611.7489,space,1.0785,,0,35,35,35,1,130,85,,,,,,,,
,,6132965ccc912bb9b4a5c3e5,65af55cd97d7ed799e101c6b,2024-01-23_08h00.29.891,bars,2023.2.3,Win32,59.17159763,657b66ea316d21385b68909f,,,,,,,,,,,611.7496,612.7469,,,613.2465,613.4966,,85,85,,,,,,,,,,,,,,,,bars/046.png,bars/mask008.png,,,,,,,,,,,,4,2,,,,,,,0,6,0,4,,,,,,,,,,,612.7471,613.2464,613.4968,615.6785,space,2.1678,,615.6785,70,0,616.679,616.679,619.3623,space,2.6594,,0,36,36,36,1,155,85,,,,,,,,
,,6132965ccc912bb9b4a5c3e5,65af55cd97d7ed799e101c6b,2024-01-23_08h00.29.891,bars,2023.2.3,Win32,59.17159763,657b66ea316d21385b68909f,,,,,,,,,,,619.3633,620.3627,,,620.8624,621.1128,,81,81,,,,,,,,,,,,,,,,bars/044.png,bars/mask001.png,,,,,,,,,,,,2,1,,,,,,,2,4,2,5,,,,,,,,,,,620.3629,620.8623,621.1129,623.746,space,2.6169,,623.7462,6,74,624.746,624.746,626.3954,space,1.6251,,0,37,37,37,1,75,155,,,,,,,,
,,6132965ccc912bb9b4a5c3e5,65af55cd97d7ed799e101c6b,2024-01-23_08h00.29.891,bars,2023.2.3,Win32,59.17159763,657b66ea316d21385b68909f,,,,,,,,,,,626.3963,627.3957,,,627.8959,628.1459,,67,67,,,,,,,,,,,,,,,,bars/038.png,bars/mask007.png,,,,,,,,,,,,5,2,,,,,,,4,6,5,6,,,,,,,,,,,627.3958,627.8959,628.1459,631.362,space,3.2006,,631.362,82,3,632.3625,632.3625,633.8499,space,1.4672,,0,38,38,38,1,165,70,,,,,,,,
,,6132965ccc912bb9b4a5c3e5,65af55cd97d7ed799e101c6b,2024-01-23_08h00.29.891,bars,2023.2.3,Win32,59.17159763,657b66ea316d21385b68909f,,,,,,,,,,,633.8506,634.8474,,,635.3475,635.5967,,74,74,,,,,,,,,,,,,,,,bars/006.png,bars/mask003.png,,,,,,,,,,,,1,2,,,,,,,2,8,1,8,,,,,,,,,,,634.8476,635.3473,635.5968,636.7788,space,1.1674,,636.7788,39,26,637.779,637.7791,640.3291,space,2.5343,,0,39,39,39,1,35,100,,,,,,,,
,,6132965ccc912bb9b4a5c3e5,65af55cd97d7ed799e101c6b,2024-01-23_08h00.29.891,bars,2023.2.3,Win32,59.17159763,657b66ea316d21385b68909f,,,,,,,,,,,640.3381,641.3305,,,641.8305,642.0807,,105,105,,,,,,,,,,,,,,,,bars/004.png,bars/mask003.png,,,,,,,,,,,,3,2,,,,,,,0,10,0,10,,,,,,,,,,,641.3306,641.8304,642.0808,645.7952,space,3.7009,,645.7953,80,20,646.7964,646.7965,650.4121,space,3.5929,,0,40,40,40,1,25,125,,,,,,,,
,,6132965ccc912bb9b4a5c3e5,65af55cd97d7ed799e101c6b,2024-01-23_08h00.29.891,bars,2023.2.3,Win32,59.17159763,657b66ea316d21385b68909f,,,,,,,,,,,650.4192,651.4122,,,651.9139,652.1617,,133,133,,,,,,,,,,,,,,,,bars/028.png,bars/mask009.png,,,,,,,,,,,,6,2,,,,,,,0,8,1,10,,,,,,,,,,,651.4123,651.9138,652.1618,655.6464,space,3.4683,,655.6466,88,13,656.6458,656.6461,658.0495,space,1.3822,,0,41,41,41,1,45,120,,,,,,,,
,,6132965ccc912bb9b4a5c3e5,65af55cd97d7ed799e101c6b,2024-01-23_08h00.29.891,bars,2023.2.3,Win32,59.17159763,657b66ea316d21385b68909f,,,,,,,,,,,658.0502,659.0455,,,659.5457,659.7951,,130,130,,,,,,,,,,,,,,,,bars/012.png,bars/mask008.png,,,,,,,,,,,,0,1,,,,,,,0,10,0,10,,,,,,,,,,,659.0456,659.5457,659.7951,662.782,space,2.973,,662.7821,40,65,663.7805,663.7806,665.1792,space,1.3781,,0,42,42,42,1,90,15,,,,,,,,
,,6132965ccc912bb9b4a5c3e5,65af55cd97d7ed799e101c6b,2024-01-23_08h00.29.891,bars,2023.2.3,Win32,59.17159763,657b66ea316d21385b68909f,,,,,,,,,,,665.1799,666.1793,,,666.6789,666.9295,,90,90,,,,,,,,,,,,,,,,bars/019.png,bars/mask002.png,,,,,,,,,,,,5,2,,,,,,,2,10,2,10,,,,,,,,,,,666.1793,666.6789,666.9297,671.479,space,4.5352,,671.4791,45,15,672.4791,672.4791,675.1118,space,2.6076,,0,43,43,43,1,45,105,,,,,,,,
,,6132965ccc912bb9b4a5c3e5,65af55cd97d7ed799e101c6b,2024-01-23_08h00.29.891,bars,2023.2.3,Win32,59.17159763,657b66ea316d21385b68909f,,,,,,,,,,,675.1124,676.1119,,,676.6117,676.862,,106,106,,,,,,,,,,,,,,,,bars/009.png,bars/mask008.png,,,,,,,,,,,,9,2,,,,,,,0,8,1,9,,,,,,,,,,,676.1119,676.6116,676.862,680.4984,space,3.6227,,680.4985,89,1,681.4955,681.4956,686.5122,space,4.9944,,0,44,44,44,1,15,105,,,,,,,,
,,6132965ccc912bb9b4a5c3e5,65af55cd97d7ed799e101c6b,2024-01-23_08h00.29.891,bars,2023.2.3,Win32,59.17159763,657b66ea316d21385b68909f,,,,,,,,,,,686.5196,687.5122,,,688.0125,688.2621,,102,102,,,,,,,,,,,,,,,,bars/045.png,bars/mask006.png,,,,,,,,,,,,0,1,,,,,,,0,10,0,10,,,,,,,,,,,687.5122,688.0125,688.2621,691.5788,space,3.2972,,691.579,2,88,692.5785,692.5785,694.4623,space,1.861,,0,45,45,45,1,100,10,,,,,,,,
,,6132965ccc912bb9b4a5c3e5,65af55cd97d7ed799e101c6b,2024-01-23_08h00.29.891,bars,2023.2.3,Win32,59.17159763,657b66ea316d21385b68909f,,,,,,,,,,,694.463,695.4619,,,695.9623,696.2122,,95,95,,,,,,,,,,,,,,,,bars/025.png,bars/mask005.png,,,,,,,,,,,,0,1,,,,,,,0,10,0,10,,,,,,,,,,,695.4619,695.9621,696.2122,699.7622,space,3.5351,,699.7623,10,55,700.762,700.7622,705.1792,space,4.399,,0,46,46,46,1,105,40,,,,,,,,
,,6132965ccc912bb9b4a5c3e5,65af55cd97d7ed799e101c6b,2024-01-23_08h00.29.891,bars,2023.2.3,Win32,59.17159763,657b66ea316d21385b68909f,,,,,,,,,,,705.1863,706.1785,,,706.6784,706.9285,,118,118,,,,,,,,,,,,,,,,bars/011.png,bars/mask004.png,,,,,,,,,,,,0,2,,,,,,,0,8,0,8,,,,,,,,,,,706.1786,706.6784,706.9285,712.1817,space,5.2392,,712.1818,42,33,713.18,713.18,714.3451,space,1.1448,,0,47,47,47,1,160,85,,,,,,,,
,,6132965ccc912bb9b4a5c3e5,65af55cd97d7ed799e101c6b,2024-01-23_08h00.29.891,bars,2023.2.3,Win32,59.17159763,657b66ea316d21385b68909f,,,,,,,,,,,714.3454,715.3453,,,715.8453,716.0951,,76,76,,,,,,,,,,,,,,,,bars/028.png,bars/mask004.png,,,,,,,,,,,,0,1,,,,,,,0,6,0,7,,,,,,,,,,,715.3453,715.8453,716.0951,719.6454,space,3.531,,719.6454,31,44,720.6455,720.6455,722.181,space,1.5145,,0,48,48,48,1,45,120,,,,,,,,
,,6132965ccc912bb9b4a5c3e5,65af55cd97d7ed799e101c6b,2024-01-23_08h00.29.891,bars,2023.2.3,Win32,59.17159763,657b66ea316d21385b68909f,,,,,,,,,,,722.1815,723.1789,,,723.6784,723.9286,,52,52,,,,,,,,,,,,,,,,bars/046.png,bars/mask006.png,,,,,,,,,,,,0,2,,,,,,,2,4,3,5,,,,,,,,,,,723.1791,723.6784,723.9287,728.3802,space,4.4373,,728.3803,77,33,729.3783,729.3783,730.9621,space,1.5591,,0,49,49,49,1,155,85,,,,,,,,
,,6132965ccc912bb9b4a5c3e5,65af55cd97d7ed799e101c6b,2024-01-23_08h00.29.891,bars,2023.2.3,Win32,59.17159763,657b66ea316d21385b68909f,,,,,,,,,,,,,,,,,,,,,,,,,,,,,,,,,,,,,,,,,,,,,,,,,,,,,,,,,,,,,,,,,,,,,,,,,,,,,,,,,,,,,,,,,,,,,730.9633,790.9648,0,0,0,2,1,sequence_tables/blk003.csv
,,6132965ccc912bb9b4a5c3e5,65af55cd97d7ed799e101c6b,2024-01-23_08h00.29.891,bars,2023.2.3,Win32,59.17159763,657b66ea316d21385b68909f,,,,,,,,,,,793.3344,794.3285,,,794.8285,795.0783,,134,134,,,,,,,,,,,,,,,,bars/028.png,bars/mask008.png,,,,,,,,,,,,2,2,,,,,,,9,4,9,4,,,,,,790.9715,793.3282,space,2.3467,,794.3285,794.8285,795.0783,797.6616,space,2.5685,,797.6618,89,14,798.6616,798.6617,798.6712,,,,0,0,0,0,1,45,120,,,,,,,,
,,6132965ccc912bb9b4a5c3e5,65af55cd97d7ed799e101c6b,2024-01-23_08h00.29.891,bars,2023.2.3,Win32,59.17159763,657b66ea316d21385b68909f,,,,,,,,,,,798.6713,799.6615,,,800.1623,800.412,,90,90,,,,,,,,,,,,,,,,bars/034.png,bars/mask000.png,,,,,,,,,,,,0,2,,,,,,,7,2,7,0,,,,,,,,,,,799.6616,800.1622,800.4121,805.3293,space,4.9036,,805.3294,35,25,806.3283,806.3283,806.3379,,,,0,1,1,1,1,125,65,,,,,,,,
,,6132965ccc912bb9b4a5c3e5,65af55cd97d7ed799e101c6b,2024-01-23_08h00.29.891,bars,2023.2.3,Win32,59.17159763,657b66ea316d21385b68909f,,,,,,,,,,,806.338,807.328,,,807.8281,808.078,,51,51,,,,,,,,,,,,,,,,bars/012.png,bars/mask005.png,,,,,,,,,,,,0,2,,,,,,,9,0,8,1,,,,,,,,,,,807.3282,807.8281,808.078,809.6943,space,1.5973,,809.6944,39,36,810.6948,810.6948,810.6965,,,,0,2,2,2,1,90,15,,,,,,,,
,,6132965ccc912bb9b4a5c3e5,65af55cd97d7ed799e101c6b,2024-01-23_08h00.29.891,bars,2023.2.3,Win32,59.17159763,657b66ea316d21385b68909f,,,,,,,,,,,810.6968,811.695,,,812.1954,812.4451,,120,120,,,,,,,,,,,,,,,,bars/018.png,bars/mask003.png,,,,,,,,,,,,0,2,,,,,,,7,2,8,2,,,,,,,,,,,811.695,812.1954,812.4452,815.3626,space,2.9026,,815.3627,30,30,816.3617,816.3617,816.3712,,,,0,3,3,3,1,150,90,,,,,,,,
,,6132965ccc912bb9b4a5c3e5,65af55cd97d7ed799e101c6b,2024-01-23_08h00.29.891,bars,2023.2.3,Win32,59.17159763,657b66ea316d21385b68909f,,,,,,,,,,,816.3714,817.3618,,,817.8618,818.1116,,73,73,,,,,,,,,,,,,,,,bars/003.png,bars/mask005.png,,,,,,,,,,,,0,1,,,,,,,9,4,9,4,,,,,,,,,,,817.3619,817.8618,818.1117,818.9115,space,0.7844,,818.9117,48,67,819.9124,819.9125,819.9163,,,,0,4,4,4,1,25,140,,,,,,,,
,,6132965ccc912bb9b4a5c3e5,65af55cd97d7ed799e101c6b,2024-01-23_08h00.29.891,bars,2023.2.3,Win32,59.17159763,657b66ea316d21385b68909f,,,,,,,,,,,819.9167,820.9113,,,821.4118,821.6616,,73,73,,,,,,,,,,,,,,,,bars/037.png,bars/mask007.png,,,,,,,,,,,,0,2,,,,,,,10,6,10,6,,,,,,,,,,,820.9113,821.4117,821.6616,823.0447,space,1.3674,,823.0447,77,32,824.045,824.045,824.0488,,,,0,5,5,5,1,150,105,,,,,,,,
,,6132965ccc912bb9b4a5c3e5,65af55cd97d7ed799e101c6b,2024-01-23_08h00.29.891,bars,2023.2.3,Win32,59.17159763,657b66ea316d21385b68909f,,,,,,,,,,,824.0492,825.0447,,,825.5453,825.795,,159,159,,,,,,,,,,,,,,,,bars/022.png,bars/mask005.png,,,,,,,,,,,,0,2,,,,,,,8,4,9,6,,,,,,,,,,,825.0447,825.5452,825.7952,828.9951,space,3.186,,828.9952,64,41,829.9947,829.9947,830.0039,,,,0,6,6,6,1,95,20,,,,,,,,
,,6132965ccc912bb9b4a5c3e5,65af55cd97d7ed799e101c6b,2024-01-23_08h00.29.891,bars,2023.2.3,Win32,59.17159763,657b66ea316d21385b68909f,,,,,,,,,,,830.0041,830.9962,,,831.4966,831.7466,,66,66,,,,,,,,,,,,,,,,bars/020.png,bars/mask002.png,,,,,,,,,,,,0,1,,,,,,,10,2,10,2,,,,,,,,,,,830.9962,831.4965,831.7468,835.8276,space,4.0671,,835.8278,49,76,836.828,836.8281,836.8374,,,,0,7,7,7,1,115,170,,,,,,,,
,,6132965ccc912bb9b4a5c3e5,65af55cd97d7ed799e101c6b,2024-01-23_08h00.29.891,bars,2023.2.3,Win32,59.17159763,657b66ea316d21385b68909f,,,,,,,,,,,836.8375,837.829,,,838.3285,838.5783,,118,118,,,,,,,,,,,,,,,,bars/043.png,bars/mask006.png,,,,,,,,,,,,2,2,,,,,,,10,4,10,4,,,,,,,,,,,837.829,838.3285,838.5784,847.6781,space,9.0854,,847.6783,88,12,848.6782,848.6784,848.6865,,,,0,8,8,8,1,30,130,,,,,,,,
,,6132965ccc912bb9b4a5c3e5,65af55cd97d7ed799e101c6b,2024-01-23_08h00.29.891,bars,2023.2.3,Win32,59.17159763,657b66ea316d21385b68909f,,,,,,,,,,,848.6867,849.6803,,,850.1776,850.4281,,58,58,,,,,,,,,,,,,,,,bars/039.png,bars/mask001.png,,,,,,,,,,,,0,2,,,,,,,8,6,6,5,,,,,,,,,,,849.6803,850.1776,850.4282,850.9617,space,0.5136,,850.9618,63,47,851.9615,851.9616,851.9633,,,,0,9,9,9,1,175,105,,,,,,,,
,,6132965ccc912bb9b4a5c3e5,65af55cd97d7ed799e101c6b,2024-01-23_08h00.29.891,bars,2023.2.3,Win32,59.17159763,657b66ea316d21385b68909f,,,,,,,,,,,851.9636,852.9612,,,853.4614,853.7117,,117,117,,,,,,,,,,,,,,,,bars/022.png,bars/mask004.png,,,,,,,,,,,,2,1,,,,,,,6,4,6,5,,,,,,,,,,,852.9612,853.4613,853.7117,854.7282,space,1.001,,854.7283,22,83,855.7285,855.7286,855.7318,,,,0,10,10,10,1,95,20,,,,,,,,
,,6132965ccc912bb9b4a5c3e5,65af55cd97d7ed799e101c6b,2024-01-23_08h00.29.891,bars,2023.2.3,Win32,59.17159763,657b66ea316d21385b68909f,,,,,,,,,,,855.7321,856.7279,,,857.2287,857.4779,,58,58,,,,,,,,,,,,,,,,bars/007.png,bars/mask006.png,,,,,,,,,,,,2,2,,,,,,,4,2,3,2,,,,,,,,,,,856.728,857.2286,857.4781,861.5946,space,4.1022,,861.5946,63,3,862.5948,862.5949,862.6049,,,,0,11,11,11,1,175,55,,,,,,,,
,,6132965ccc912bb9b4a5c3e5,65af55cd97d7ed799e101c6b,2024-01-23_08h00.29.891,bars,2023.2.3,Win32,59.17159763,657b66ea316d21385b68909f,,,,,,,,,,,862.605,863.595,,,864.0946,864.3446,,15,195,,,,,,,,,,,,,,,,bars/043.png,bars/mask005.png,,,,,,,,,,,,2,1,,,,,,,2,0,3,2,,,,,,,,,,,863.595,864.0945,864.3447,867.9469,space,3.5881,,867.9469,15,65,868.9456,868.9456,868.9562,,,,0,12,12,12,1,30,130,,,,,,,,
,,6132965ccc912bb9b4a5c3e5,65af55cd97d7ed799e101c6b,2024-01-23_08h00.29.891,bars,2023.2.3,Win32,59.17159763,657b66ea316d21385b68909f,,,,,,,,,,,868.9564,869.9444,,,870.4444,870.6942,,66,66,,,,,,,,,,,,,,,,bars/039.png,bars/mask007.png,,,,,,,,,,,,0,2,,,,,,,4,0,4,0,,,,,,,,,,,869.9444,870.4444,870.6942,877.211,space,6.5004,,877.211,71,39,878.2111,878.2113,878.2195,,,,0,13,13,13,1,175,105,,,,,,,,
,,6132965ccc912bb9b4a5c3e5,65af55cd97d7ed799e101c6b,2024-01-23_08h00.29.891,bars,2023.2.3,Win32,59.17159763,657b66ea316d21385b68909f,,,,,,,,,,,878.2196,879.2109,,,879.7112,879.9617,,107,107,,,,,,,,,,,,,,,,bars/004.png,bars/mask009.png,,,,,,,,,,,,1,2,,,,,,,6,2,5,2,,,,,,,,,,,879.2111,879.7112,879.9618,883.2612,space,3.2846,,883.2616,82,18,884.2614,884.2615,884.2713,,,,0,14,14,14,1,25,125,,,,,,,,
,,6132965ccc912bb9b4a5c3e5,65af55cd97d7ed799e101c6b,2024-01-23_08h00.29.891,bars,2023.2.3,Win32,59.17159763,657b66ea316d21385b68909f,,,,,,,,,,,884.2714,885.261,,,885.7618,886.011,,140,140,,,,,,,,,,,,,,,,bars/049.png,bars/mask004.png,,,,,,,,,,,,3,1,,,,,,,8,4,10,6,,,,,,,,,,,885.2611,885.7617,886.0111,890.0289,space,4.0025,,890.029,20,25,891.0275,891.0276,891.035,,,,0,15,15,15,1,160,115,,,,,,,,
,,6132965ccc912bb9b4a5c3e5,65af55cd97d7ed799e101c6b,2024-01-23_08h00.29.891,bars,2023.2.3,Win32,59.17159763,657b66ea316d21385b68909f,,,,,,,,,,,891.0351,892.0277,,,892.5278,892.7778,,111,111,,,,,,,,,,,,,,,,bars/034.png,bars/mask002.png,,,,,,,,,,,,5,1,,,,,,,10,6,10,7,,,,,,,,,,,892.0277,892.5278,892.7778,896.0274,space,3.2358,,896.0274,14,46,897.0278,897.0278,897.0377,,,,0,16,16,16,1,125,65,,,,,,,,
,,6132965ccc912bb9b4a5c3e5,65af55cd97d7ed799e101c6b,2024-01-23_08h00.29.891,bars,2023.2.3,Win32,59.17159763,657b66ea316d21385b68909f,,,,,,,,,,,897.0379,898.0274,,,898.5276,898.7775,,86,86,,,,,,,,,,,,,,,,bars/011.png,bars/mask000.png,,,,,,,,,,,,5,2,,,,,,,8,4,8,5,,,,,,,,,,,898.0274,898.5275,898.7775,901.129,space,2.3303,,901.1291,74,1,902.128,902.1281,902.137,,,,0,17,17,17,1,160,85,,,,,,,,
,,6132965ccc912bb9b4a5c3e5,65af55cd97d7ed799e101c6b,2024-01-23_08h00.29.891,bars,2023.2.3,Win32,59.17159763,657b66ea316d21385b68909f,,,,,,,,,,,902.1372,903.1278,,,903.6284,903.878,,95,95,,,,,,,,,,,,,,,,bars/012.png,bars/mask004.png,,,,,,,,,,,,4,1,,,,,,,6,6,5,6,,,,,,,,,,,903.1279,903.6283,903.878,906.5621,space,2.6674,,906.5622,5,80,907.5612,907.5612,907.5705,,,,0,18,18,18,1,90,15,,,,,,,,
,,6132965ccc912bb9b4a5c3e5,65af55cd97d7ed799e101c6b,2024-01-23_08h00.29.891,bars,2023.2.3,Win32,59.17159763,657b66ea316d21385b68909f,,,,,,,,,,,907.5706,908.561,,,909.0619,909.3114,,103,103,,,,,,,,,,,,,,,,bars/007.png,bars/mask005.png,,,,,,,,,,,,0,2,,,,,,,8,8,8,8,,,,,,,,,,,908.5611,909.0618,909.3115,912.2615,space,2.9359,,912.2615,72,48,913.2615,913.2615,913.27,,,,0,19,19,19,1,175,55,,,,,,,,
,,6132965ccc912bb9b4a5c3e5,65af55cd97d7ed799e101c6b,2024-01-23_08h00.29.891,bars,2023.2.3,Win32,59.17159763,657b66ea316d21385b68909f,,,,,,,,,,,913.27,914.2627,,,914.7674,915.0107,,44,44,,,,,,,,,,,,,,,,bars/037.png,bars/mask004.png,,,,,,,,,,,,0,2,,,,,,,10,6,10,5,,,,,,,,,,,914.2629,914.7674,915.0108,917.7187,space,2.6901,,917.7187,74,61,918.7113,918.7114,918.7193,,,,0,20,20,20,1,150,105,,,,,,,,
,,6132965ccc912bb9b4a5c3e5,65af55cd97d7ed799e101c6b,2024-01-23_08h00.29.891,bars,2023.2.3,Win32,59.17159763,657b66ea316d21385b68909f,,,,,,,,,,,918.7194,919.7117,,,920.211,920.4612,,178,178,,,,,,,,,,,,,,,,bars/030.png,bars/mask003.png,,,,,,,,,,,,0,1,,,,,,,8,8,8,8,,,,,,,,,,,919.7118,920.2109,920.4612,922.1274,space,1.6503,,922.1274,38,67,923.1277,923.1277,923.1388,,,,0,21,21,21,1,140,65,,,,,,,,
,,6132965ccc912bb9b4a5c3e5,65af55cd97d7ed799e101c6b,2024-01-23_08h00.29.891,bars,2023.2.3,Win32,59.17159763,657b66ea316d21385b68909f,,,,,,,,,,,923.139,924.1295,,,924.6293,924.8793,,122,122,,,,,,,,,,,,,,,,bars/010.png,bars/mask000.png,,,,,,,,,,,,0,1,,,,,,,6,10,4,10,,,,,,,,,,,924.1296,924.6292,924.8793,928.6446,space,3.7507,,928.6446,43,67,929.6443,929.6444,929.6514,,,,0,22,22,22,1,165,55,,,,,,,,
,,6132965ccc912bb9b4a5c3e5,65af55cd97d7ed799e101c6b,2024-01-23_08h00.29.891,bars,2023.2.3,Win32,59.17159763,657b66ea316d21385b68909f,,,,,,,,,,,929.6515,930.6442,,,931.1441,931.3943,,148,-32,,,,,,,,,,,,,,,,bars/033.png,bars/mask008.png,,,,,,,,,,,,7,2,,,,,,,4,10,4,9,,,,,,,,,,,930.6442,931.1441,931.3945,938.6111,space,7.2018,,938.6111,57,7,939.6124,939.6125,939.6225,,,,0,23,23,23,1,25,155,,,,,,,,
,,6132965ccc912bb9b4a5c3e5,65af55cd97d7ed799e101c6b,2024-01-23_08h00.29.891,bars,2023.2.3,Win32,59.17159763,657b66ea316d21385b68909f,,,,,,,,,,,939.6226,940.6108,,,941.1114,941.361,,39,219,,,,,,,,,,,,,,,,bars/046.png,bars/mask002.png,,,,,,,,,,,,0,2,,,,,,,6,8,7,8,,,,,,,,,,,940.6109,941.1113,941.3612,944.2278,space,2.8522,,944.2278,64,46,945.2276,945.2276,945.2343,,,,0,24,24,24,1,155,85,,,,,,,,
,,6132965ccc912bb9b4a5c3e5,65af55cd97d7ed799e101c6b,2024-01-23_08h00.29.891,bars,2023.2.3,Win32,59.17159763,657b66ea316d21385b68909f,,,,,,,,,,,945.2345,946.228,,,946.728,946.9778,,54,-126,,,,,,,,,,,,,,,,bars/045.png,bars/mask000.png,,,,,,,,,,,,0,2,,,,,,,8,6,9,4,,,,,,,,,,,946.2281,946.7279,946.9778,954.3947,space,7.4016,,954.3947,46,44,955.3944,955.3944,955.4026,,,,0,25,25,25,1,100,10,,,,,,,,
,,6132965ccc912bb9b4a5c3e5,65af55cd97d7ed799e101c6b,2024-01-23_08h00.29.891,bars,2023.2.3,Win32,59.17159763,657b66ea316d21385b68909f,,,,,,,,,,,955.4029,956.3941,,,956.8943,957.1462,,59,59,,,,,,,,,,,,,,,,bars/022.png,bars/mask008.png,,,,,,,,,,,,0,1,,,,,,,10,4,10,5,,,,,,,,,,,956.3941,956.8942,957.1462,961.7778,space,4.6138,,961.7779,36,39,962.7773,962.7773,962.7847,,,,0,26,26,26,1,95,20,,,,,,,,
,,6132965ccc912bb9b4a5c3e5,65af55cd97d7ed799e101c6b,2024-01-23_08h00.29.891,bars,2023.2.3,Win32,59.17159763,657b66ea316d21385b68909f,,,,,,,,,,,962.7848,963.7772,,,964.278,964.5275,,173,-7,,,,,,,,,,,,,,,,bars/031.png,bars/mask006.png,,,,,,,,,,,,0,2,,,,,,,8,6,9,5,,,,,,,,,,,963.7772,964.278,964.5275,966.5463,space,2.0046,,966.5463,53,42,967.5438,967.5438,967.5514,,,,0,27,27,27,1,120,35,,,,,,,,
,,6132965ccc912bb9b4a5c3e5,65af55cd97d7ed799e101c6b,2024-01-23_08h00.29.891,bars,2023.2.3,Win32,59.17159763,657b66ea316d21385b68909f,,,,,,,,,,,967.5516,968.5456,,,969.0449,969.2945,,60,60,,,,,,,,,,,,,,,,bars/038.png,bars/mask009.png,,,,,,,,,,,,7,2,,,,,,,10,8,10,10,,,,,,,,,,,968.5457,969.0448,969.2946,972.2771,space,2.9677,,972.2771,75,10,973.2773,973.2773,973.2843,,,,0,28,28,28,1,165,70,,,,,,,,
,,6132965ccc912bb9b4a5c3e5,65af55cd97d7ed799e101c6b,2024-01-23_08h00.29.891,bars,2023.2.3,Win32,59.17159763,657b66ea316d21385b68909f,,,,,,,,,,,973.2845,974.2776,,,974.7777,975.0275,,51,51,,,,,,,,,,,,,,,,bars/036.png,bars/mask003.png,,,,,,,,,,,,0,2,,,,,,,8,6,10,6,,,,,,,,,,,974.2777,974.7777,975.0276,979.0941,space,4.0529,,979.0941,86,31,980.094,980.0942,980.1009,,,,0,29,29,29,1,145,20,,,,,,,,
,,6132965ccc912bb9b4a5c3e5,65af55cd97d7ed799e101c6b,2024-01-23_08h00.29.891,bars,2023.2.3,Win32,59.17159763,657b66ea316d21385b68909f,,,,,,,,,,,980.101,981.0938,,,981.5939,981.8444,,133,133,,,,,,,,,,,,,,,,bars/008.png,bars/mask001.png,,,,,,,,,,,,2,1,,,,,,,6,8,7,9,,,,,,,,,,,981.0938,981.5939,981.8444,984.0938,space,2.2326,,984.0938,23,47,985.094,985.0941,985.0989,,,,0,30,30,30,1,110,0,,,,,,,,
,,6132965ccc912bb9b4a5c3e5,65af55cd97d7ed799e101c6b,2024-01-23_08h00.29.891,bars,2023.2.3,Win32,59.17159763,657b66ea316d21385b68909f,,,,,,,,,,,985.0994,986.0942,,,986.5952,986.8442,,20,20,,,,,,,,,,,,,,,,bars/012.png,bars/mask001.png,,,,,,,,,,,,5,2,,,,,,,4,6,3,6,,,,,,,,,,,986.0943,986.5951,986.8442,989.144,space,2.2845,,989.144,70,5,990.1437,990.1438,990.1523,,,,0,31,31,31,1,90,15,,,,,,,,
,,6132965ccc912bb9b4a5c3e5,65af55cd97d7ed799e101c6b,2024-01-23_08h00.29.891,bars,2023.2.3,Win32,59.17159763,657b66ea316d21385b68909f,,,,,,,,,,,990.1525,991.1449,,,991.6447,991.8945,,131,131,,,,,,,,,,,,,,,,bars/043.png,bars/mask001.png,,,,,,,,,,,,3,2,,,,,,,6,4,5,3,,,,,,,,,,,991.145,991.6446,991.8945,994.1772,space,2.2681,,994.1772,79,1,995.1787,995.1787,995.1799,,,,0,32,32,32,1,30,130,,,,,,,,
,,6132965ccc912bb9b4a5c3e5,65af55cd97d7ed799e101c6b,2024-01-23_08h00.29.891,bars,2023.2.3,Win32,59.17159763,657b66ea316d21385b68909f,,,,,,,,,,,995.1802,996.1776,,,996.6782,996.927,,118,118,,,,,,,,,,,,,,,,bars/016.png,bars/mask003.png,,,,,,,,,,,,0,2,,,,,,,8,2,10,2,,,,,,,,,,,996.1776,996.6781,996.927,998.4633,space,1.5229,,998.4634,78,47,999.4613,999.4614,999.4629,,,,0,33,33,33,1,40,165,,,,,,,,
,,6132965ccc912bb9b4a5c3e5,65af55cd97d7ed799e101c6b,2024-01-23_08h00.29.891,bars,2023.2.3,Win32,59.17159763,657b66ea316d21385b68909f,,,,,,,,,,,999.4632,1000.4616,,,1000.9624,1001.212,,53,53,,,,,,,,,,,,,,,,bars/004.png,bars/mask004.png,,,,,,,,,,,,0,1,,,,,,,6,0,6,0,,,,,,,,,,,1000.4617,1000.9623,1001.212,1001.8636,space,0.6392,,1001.8637,28,72,1002.8617,1002.8618,1002.8655,,,,0,34,34,34,1,25,125,,,,,,,,
,,6132965ccc912bb9b4a5c3e5,65af55cd97d7ed799e101c6b,2024-01-23_08h00.29.891,bars,2023.2.3,Win32,59.17159763,657b66ea316d21385b68909f,,,,,,,,,,,1002.866,1003.8607,,,1004.3608,1004.6105,,105,105,,,,,,,,,,,,,,,,bars/006.png,bars/mask000.png,,,,,,,,,,,,0,2,,,,,,,4,0,1,0,,,,,,,,,,,1003.8607,1004.3606,1004.6105,1007.5104,space,2.8795,,1007.5105,70,5,1008.5114,1008.5115,1008.52,,,,0,35,35,35,1,35,100,,,,,,,,
,,6132965ccc912bb9b4a5c3e5,65af55cd97d7ed799e101c6b,2024-01-23_08h00.29.891,bars,2023.2.3,Win32,59.17159763,657b66ea316d21385b68909f,,,,,,,,,,,1008.52,1009.5106,,,1010.0109,1010.261,,78,78,,,,,,,,,,,,,,,,bars/031.png,bars/mask001.png,,,,,,,,,,,,0,1,,,,,,,6,2,6,3,,,,,,,,,,,1009.5108,1010.0108,1010.2611,1012.3767,space,2.102,,1012.3767,42,43,1013.3775,1013.3775,1013.381,,,,0,36,36,36,1,120,35,,,,,,,,
,,6132965ccc912bb9b4a5c3e5,65af55cd97d7ed799e101c6b,2024-01-23_08h00.29.891,bars,2023.2.3,Win32,59.17159763,657b66ea316d21385b68909f,,,,,,,,,,,1013.3814,1014.3774,,,1014.8772,1015.1274,,48,48,,,,,,,,,,,,,,,,bars/045.png,bars/mask001.png,,,,,,,,,,,,0,2,,,,,,,4,0,5,1,,,,,,,,,,,1014.3775,1014.8772,1015.1274,1018.5938,space,3.446,,1018.5938,52,38,1019.5938,1019.594,1019.6026,,,,0,37,37,37,1,100,10,,,,,,,,
,,6132965ccc912bb9b4a5c3e5,65af55cd97d7ed799e101c6b,2024-01-23_08h00.29.891,bars,2023.2.3,Win32,59.17159763,657b66ea316d21385b68909f,,,,,,,,,,,1019.6028,1020.5952,,,1021.0949,1021.3441,,23,23,,,,,,,,,,,,,,,,bars/048.png,bars/mask001.png,,,,,,,,,,,,0,1,,,,,,,2,0,1,0,,,,,,,,,,,1020.5954,1021.0948,1021.3441,1021.9771,space,0.6166,,1021.9773,27,28,1022.9772,1022.9773,1022.9808,,,,0,38,38,38,1,50,175,,,,,,,,
,,6132965ccc912bb9b4a5c3e5,65af55cd97d7ed799e101c6b,2024-01-23_08h00.29.891,bars,2023.2.3,Win32,59.17159763,657b66ea316d21385b68909f,,,,,,,,,,,1022.9812,1023.9782,,,1024.4779,1024.7275,,135,-45,,,,,,,,,,,,,,,,bars/017.png,bars/mask004.png,,,,,,,,,,,,0,1,,,,,,,0,2,0,2,,,,,,,,,,,1023.9783,1024.4778,1024.7276,1027.4603,space,2.7173,,1027.4603,10,90,1028.461,1028.461,1028.4707,,,,0,39,39,39,1,145,45,,,,,,,,
,,6132965ccc912bb9b4a5c3e5,65af55cd97d7ed799e101c6b,2024-01-23_08h00.29.891,bars,2023.2.3,Win32,59.17159763,657b66ea316d21385b68909f,,,,,,,,,,,1028.4709,1029.4623,,,1029.9624,1030.2124,,95,95,,,,,,,,,,,,,,,,bars/045.png,bars/mask002.png,,,,,,,,,,,,1,1,,,,,,,0,0,1,2,,,,,,,,,,,1029.4624,1029.9623,1030.2124,1032.9436,space,2.7162,,1032.9436,5,85,1033.9438,1033.9439,1033.9509,,,,0,40,40,40,1,100,10,,,,,,,,
,,6132965ccc912bb9b4a5c3e5,65af55cd97d7ed799e101c6b,2024-01-23_08h00.29.891,bars,2023.2.3,Win32,59.17159763,657b66ea316d21385b68909f,,,,,,,,,,,1033.9512,1034.944,,,1035.4446,1035.6945,,93,93,,,,,,,,,,,,,,,,bars/023.png,bars/mask009.png,,,,,,,,,,,,0,2,,,,,,,0,0,0,0,,,,,,,,,,,1034.9441,1035.4445,1035.6946,1039.7271,space,4.0178,,1039.7273,73,22,1040.7274,1040.7274,1040.7381,,,,0,41,41,41,1,20,115,,,,,,,,
,,6132965ccc912bb9b4a5c3e5,65af55cd97d7ed799e101c6b,2024-01-23_08h00.29.891,bars,2023.2.3,Win32,59.17159763,657b66ea316d21385b68909f,,,,,,,,,,,1040.7383,1041.7273,,,1042.2268,1042.4771,,54,54,,,,,,,,,,,,,,,,bars/014.png,bars/mask005.png,,,,,,,,,,,,0,1,,,,,,,2,0,1,1,,,,,,,,,,,1041.7274,1042.2268,1042.4771,1046.9601,space,4.4695,,1046.9608,26,54,1047.9603,1047.9604,1047.9693,,,,0,42,42,42,1,80,0,,,,,,,,
,,6132965ccc912bb9b4a5c3e5,65af55cd97d7ed799e101c6b,2024-01-23_08h00.29.891,bars,2023.2.3,Win32,59.17159763,657b66ea316d21385b68909f,,,,,,,,,,,1047.9694,1048.9605,,,1049.4604,1049.7103,,100,100,,,,,,,,,,,,,,,,bars/014.png,bars/mask003.png,,,,,,,,,,,,0,1,,,,,,,0,0,0,0,,,,,,,,,,,1048.9605,1049.4604,1049.7104,1050.6605,space,0.935,,1050.6605,20,80,1051.6603,1051.6603,1051.6694,,,,0,43,43,43,1,80,0,,,,,,,,
,,6132965ccc912bb9b4a5c3e5,65af55cd97d7ed799e101c6b,2024-01-23_08h00.29.891,bars,2023.2.3,Win32,59.17159763,657b66ea316d21385b68909f,,,,,,,,,,,1051.6695,1052.6601,,,1053.1602,1053.4104,,88,88,,,,,,,,,,,,,,,,bars/023.png,bars/mask006.png,,,,,,,,,,,,0,2,,,,,,,2,0,2,1,,,,,,,,,,,1052.6601,1053.1601,1053.4105,1057.9103,space,4.4843,,1057.9105,68,27,1058.9102,1058.9102,1058.9176,,,,0,44,44,44,1,20,115,,,,,,,,
,,6132965ccc912bb9b4a5c3e5,65af55cd97d7ed799e101c6b,2024-01-23_08h00.29.891,bars,2023.2.3,Win32,59.17159763,657b66ea316d21385b68909f,,,,,,,,,,,1058.9178,1059.9108,,,1060.4106,1060.6604,,146,146,,,,,,,,,,,,,,,,bars/007.png,bars/mask008.png,,,,,,,,,,,,0,1,,,,,,,4,2,4,2,,,,,,,,,,,1059.9108,1060.4106,1060.6604,1062.6104,space,1.9357,,1062.6105,29,89,1063.6104,1063.6104,1063.6143,,,,0,45,45,45,1,175,55,,,,,,,,
,,6132965ccc912bb9b4a5c3e5,65af55cd97d7ed799e101c6b,2024-01-23_08h00.29.891,bars,2023.2.3,Win32,59.17159763,657b66ea316d21385b68909f,,,,,,,,,,,1063.6146,1064.6106,,,1065.1107,1065.3608,,160,-20,,,,,,,,,,,,,,,,bars/021.png,bars/mask002.png,,,,,,,,,,,,2,1,,,,,,,2,4,2,4,,,,,,,,,,,1064.6106,1065.1106,1065.3608,1068.6805,space,3.3059,,1068.6806,5,90,1069.6771,1069.6771,1069.6853,,,,0,46,46,46,1,155,70,,,,,,,,
,,6132965ccc912bb9b4a5c3e5,65af55cd97d7ed799e101c6b,2024-01-23_08h00.29.891,bars,2023.2.3,Win32,59.17159763,657b66ea316d21385b68909f,,,,,,,,,,,1069.6855,1070.6778,,,1071.1771,1071.4271,,61,61,,,,,,,,,,,,,,,,bars/044.png,bars/mask008.png,,,,,,,,,,,,2,1,,,,,,,4,2,4,2,,,,,,,,,,,1070.6779,1071.177,1071.4271,1073.5271,space,2.0804,,1073.5271,14,86,1074.5268,1074.5268,1074.5368,,,,0,47,47,47,1,75,155,,,,,,,,
,,6132965ccc912bb9b4a5c3e5,65af55cd97d7ed799e101c6b,2024-01-23_08h00.29.891,bars,2023.2.3,Win32,59.17159763,657b66ea316d21385b68909f,,,,,,,,,,,1074.537,1075.5271,,,1076.0271,1076.277,,60,60,,,,,,,,,,,,,,,,bars/023.png,bars/mask008.png,,,,,,,,,,,,0,1,,,,,,,6,0,5,0,,,,,,,,,,,1075.5272,1076.027,1076.277,1079.8769,space,3.5805,,1079.8769,40,55,1080.8784,1080.8786,1080.8864,,,,0,48,48,48,1,20,115,,,,,,,,
,,6132965ccc912bb9b4a5c3e5,65af55cd97d7ed799e101c6b,2024-01-23_08h00.29.891,bars,2023.2.3,Win32,59.17159763,657b66ea316d21385b68909f,,,,,,,,,,,1080.8864,1081.8774,,,1082.3772,1082.6271,,96,96,,,,,,,,,,,,,,,,bars/046.png,bars/mask007.png,,,,,,,,,,,,0,2,,,,,,,4,0,6,0,,,,,,,,,,,1081.8775,1082.3772,1082.6271,1086.7599,space,4.1179,,1086.7599,59,11,1087.7619,1087.7621,1087.7692,,,,0,49,49,49,1,155,85,,,,,,,,
,,6132965ccc912bb9b4a5c3e5,65af55cd97d7ed799e101c6b,2024-01-23_08h00.29.891,bars,2023.2.3,Win32,59.17159763,657b66ea316d21385b68909f,,,,,,,,,,,,,,,,,,,,,,,,,,,,,,,,,,,,,,,,,,,,,,,,,,,,,,,,,,,,,,,,,,,,,,,,,,,,,,,,,,,,,,,,,,,,,1087.7693,1147.7599,0,1,1,3,1,sequence_tables/blk027.csv
,,6132965ccc912bb9b4a5c3e5,65af55cd97d7ed799e101c6b,2024-01-23_08h00.29.891,bars,2023.2.3,Win32,59.17159763,657b66ea316d21385b68909f,,,,,,,,,,,1218.4031,1219.3932,,,1219.8944,1220.1431,,118,118,,,,,,,,,,,,,,,,bars/028.png,bars/mask003.png,,,,,,,,,,,,7,2,,,,,,,2,7,4,8,,,,,,1147.7681,1218.3933,space,70.6129,,1219.3932,1219.8943,1220.1433,1222.4434,space,2.2847,,1222.4435,73,2,1223.4433,1223.4433,1223.4526,,,,0,0,0,0,1,45,120,,,,,,,,
,,6132965ccc912bb9b4a5c3e5,65af55cd97d7ed799e101c6b,2024-01-23_08h00.29.891,bars,2023.2.3,Win32,59.17159763,657b66ea316d21385b68909f,,,,,,,,,,,1223.4528,1224.4441,,,1224.9435,1225.1933,,120,120,,,,,,,,,,,,,,,,bars/044.png,bars/mask000.png,,,,,,,,,,,,0,2,,,,,,,4,5,3,5,,,,,,,,,,,1224.4442,1224.9433,1225.1933,1227.2097,space,2.0016,,1227.2098,45,35,1228.204,1228.2043,1228.2052,,,,0,1,1,1,1,75,155,,,,,,,,
,,6132965ccc912bb9b4a5c3e5,65af55cd97d7ed799e101c6b,2024-01-23_08h00.29.891,bars,2023.2.3,Win32,59.17159763,657b66ea316d21385b68909f,,,,,,,,,,,1228.2054,1229.206,,,1229.7066,1229.9562,,51,51,,,,,,,,,,,,,,,,bars/020.png,bars/mask003.png,,,,,,,,,,,,0,2,,,,,,,6,7,7,8,,,,,,,,,,,1229.2062,1229.7065,1229.9562,1231.3732,space,1.401,,1231.3732,64,61,1232.3697,1232.3698,1232.3707,,,,0,2,2,2,1,115,170,,,,,,,,
,,6132965ccc912bb9b4a5c3e5,65af55cd97d7ed799e101c6b,2024-01-23_08h00.29.891,bars,2023.2.3,Win32,59.17159763,657b66ea316d21385b68909f,,,,,,,,,,,1232.371,1233.3735,,,1233.8704,1234.1227,,67,67,,,,,,,,,,,,,,,,bars/026.png,bars/mask002.png,,,,,,,,,,,,2,2,,,,,,,8,5,7,5,,,,,,,,,,,1233.3736,1233.8704,1234.1227,1235.8586,space,1.7195,,1235.8586,32,18,1236.8567,1236.8569,1236.8664,,,,0,3,3,3,1,35,85,,,,,,,,
,,6132965ccc912bb9b4a5c3e5,65af55cd97d7ed799e101c6b,2024-01-23_08h00.29.891,bars,2023.2.3,Win32,59.17159763,657b66ea316d21385b68909f,,,,,,,,,,,1236.8665,1237.8606,,,1238.3615,1238.6115,,46,46,,,,,,,,,,,,,,,,bars/002.png,bars/mask009.png,,,,,,,,,,,,0,2,,,,,,,6,3,6,2,,,,,,,,,,,1237.8607,1238.3614,1238.6116,1240.8761,space,2.2504,,1240.8761,84,39,1241.8763,1241.8763,1241.8859,,,,0,4,4,4,1,130,85,,,,,,,,
,,6132965ccc912bb9b4a5c3e5,65af55cd97d7ed799e101c6b,2024-01-23_08h00.29.891,bars,2023.2.3,Win32,59.17159763,657b66ea316d21385b68909f,,,,,,,,,,,1241.8861,1242.8763,,,1243.3761,1243.626,,41,221,,,,,,,,,,,,,,,,bars/036.png,bars/mask009.png,,,,,,,,,,,,2,2,,,,,,,4,5,4,6,,,,,,,,,,,1242.8764,1243.3761,1243.6261,1245.4431,space,1.8003,,1245.4432,76,21,1246.4434,1246.4435,1246.4449,,,,0,5,5,5,1,145,20,,,,,,,,
,,6132965ccc912bb9b4a5c3e5,65af55cd97d7ed799e101c6b,2024-01-23_08h00.29.891,bars,2023.2.3,Win32,59.17159763,657b66ea316d21385b68909f,,,,,,,,,,,1246.4452,1247.4433,,,1247.9433,1248.1931,,125,-55,,,,,,,,,,,,,,,,bars/013.png,bars/mask007.png,,,,,,,,,,,,0,1,,,,,,,2,3,3,3,,,,,,,,,,,1247.4433,1247.9432,1248.1931,1252.9612,space,4.7542,,1252.9613,50,65,1253.9602,1253.9604,1253.9697,,,,0,6,6,6,1,75,10,,,,,,,,
,,6132965ccc912bb9b4a5c3e5,65af55cd97d7ed799e101c6b,2024-01-23_08h00.29.891,bars,2023.2.3,Win32,59.17159763,657b66ea316d21385b68909f,,,,,,,,,,,1253.9698,1254.9592,,,1255.4597,1255.71,,63,243,,,,,,,,,,,,,,,,bars/014.png,bars/mask002.png,,,,,,,,,,,,3,1,,,,,,,4,1,6,2,,,,,,,,,,,1254.9592,1255.4596,1255.7101,1258.1429,space,2.4184,,1258.1429,17,63,1259.1432,1259.1432,1259.1521,,,,0,7,7,7,1,80,0,,,,,,,,
,,6132965ccc912bb9b4a5c3e5,65af55cd97d7ed799e101c6b,2024-01-23_08h00.29.891,bars,2023.2.3,Win32,59.17159763,657b66ea316d21385b68909f,,,,,,,,,,,1259.1522,1260.143,,,1260.644,1260.8928,,14,194,,,,,,,,,,,,,,,,bars/022.png,bars/mask005.png,,,,,,,,,,,,3,2,,,,,,,6,3,5,4,,,,,,,,,,,1260.143,1260.6439,1260.893,1264.2768,space,3.3675,,1264.2769,81,6,1265.2763,1265.2763,1265.2858,,,,0,8,8,8,1,95,20,,,,,,,,
,,6132965ccc912bb9b4a5c3e5,65af55cd97d7ed799e101c6b,2024-01-23_08h00.29.891,bars,2023.2.3,Win32,59.17159763,657b66ea316d21385b68909f,,,,,,,,,,,1265.2859,1266.276,,,1266.7763,1267.0265,,121,121,,,,,,,,,,,,,,,,bars/047.png,bars/mask007.png,,,,,,,,,,,,0,2,,,,,,,8,5,7,5,,,,,,,,,,,1266.276,1266.7762,1267.0265,1269.8595,space,2.8176,,1269.8595,74,51,1270.8596,1270.8596,1270.8703,,,,0,9,9,9,1,15,70,,,,,,,,
,,6132965ccc912bb9b4a5c3e5,65af55cd97d7ed799e101c6b,2024-01-23_08h00.29.891,bars,2023.2.3,Win32,59.17159763,657b66ea316d21385b68909f,,,,,,,,,,,1270.8705,1271.8615,,,1272.3612,1272.6111,,40,220,,,,,,,,,,,,,,,,bars/014.png,bars/mask001.png,,,,,,,,,,,,0,2,,,,,,,10,3,10,4,,,,,,,,,,,1271.8615,1272.3611,1272.6111,1276.0595,space,3.4345,,1276.0595,40,40,1277.0602,1277.0603,1277.0691,,,,0,10,10,10,1,80,0,,,,,,,,
,,6132965ccc912bb9b4a5c3e5,65af55cd97d7ed799e101c6b,2024-01-23_08h00.29.891,bars,2023.2.3,Win32,59.17159763,657b66ea316d21385b68909f,,,,,,,,,,,1277.0692,1278.0594,,,1278.5593,1278.8095,,57,57,,,,,,,,,,,,,,,,bars/021.png,bars/mask006.png,,,,,,,,,,,,2,2,,,,,,,10,1,10,4,,,,,,,,,,,1278.0596,1278.5593,1278.8095,1280.8093,space,1.9811,,1280.8093,82,13,1281.8093,1281.8094,1281.8182,,,,0,11,11,11,1,155,70,,,,,,,,
,,6132965ccc912bb9b4a5c3e5,65af55cd97d7ed799e101c6b,2024-01-23_08h00.29.891,bars,2023.2.3,Win32,59.17159763,657b66ea316d21385b68909f,,,,,,,,,,,1281.8183,1282.8111,,,1283.3114,1283.5607,,52,52,,,,,,,,,,,,,,,,bars/006.png,bars/mask001.png,,,,,,,,,,,,4,1,,,,,,,10,3,10,3,,,,,,,,,,,1282.8112,1283.3113,1283.5608,1286.8426,space,3.2666,,1286.8427,17,48,1287.843,1287.8431,1287.8522,,,,0,12,12,12,1,35,100,,,,,,,,
,,6132965ccc912bb9b4a5c3e5,65af55cd97d7ed799e101c6b,2024-01-23_08h00.29.891,bars,2023.2.3,Win32,59.17159763,657b66ea316d21385b68909f,,,,,,,,,,,1287.8524,1288.8427,,,1289.3429,1289.5929,,177,177,,,,,,,,,,,,,,,,bars/025.png,bars/mask001.png,,,,,,,,,,,,0,2,,,,,,,8,5,6,3,,,,,,,,,,,1288.8428,1289.3427,1289.5929,1291.8923,space,2.2806,,1291.8923,72,43,1292.8927,1292.8927,1292.9004,,,,0,13,13,13,1,105,40,,,,,,,,
,,6132965ccc912bb9b4a5c3e5,65af55cd97d7ed799e101c6b,2024-01-23_08h00.29.891,bars,2023.2.3,Win32,59.17159763,657b66ea316d21385b68909f,,,,,,,,,,,1292.9004,1293.893,,,1294.3931,1294.6427,,65,65,,,,,,,,,,,,,,,,bars/042.png,bars/mask009.png,,,,,,,,,,,,5,2,,,,,,,10,7,10,8,,,,,,,,,,,1293.8931,1294.3928,1294.6427,1296.5626,space,1.9022,,1296.5627,80,10,1297.5596,1297.5596,1297.5683,,,,0,14,14,14,1,145,75,,,,,,,,
,,6132965ccc912bb9b4a5c3e5,65af55cd97d7ed799e101c6b,2024-01-23_08h00.29.891,bars,2023.2.3,Win32,59.17159763,657b66ea316d21385b68909f,,,,,,,,,,,1297.5684,1298.5591,,,1299.059,1299.3099,,55,55,,,,,,,,,,,,,,,,bars/024.png,bars/mask005.png,,,,,,,,,,,,0,2,,,,,,,8,5,7,4,,,,,,,,,,,1298.5591,1299.059,1299.31,1302.0605,space,2.7299,,1302.0606,65,65,1303.0593,1303.0594,1303.0676,,,,0,15,15,15,1,120,170,,,,,,,,
,,6132965ccc912bb9b4a5c3e5,65af55cd97d7ed799e101c6b,2024-01-23_08h00.29.891,bars,2023.2.3,Win32,59.17159763,657b66ea316d21385b68909f,,,,,,,,,,,1303.0677,1304.0601,,,1304.5595,1304.8096,,78,78,,,,,,,,,,,,,,,,bars/013.png,bars/mask008.png,,,,,,,,,,,,5,1,,,,,,,6,3,5,5,,,,,,,,,,,1304.0602,1304.5595,1304.8097,1308.5259,space,3.7006,,1308.5262,3,68,1309.526,1309.5261,1309.5358,,,,0,16,16,16,1,75,10,,,,,,,,
,,6132965ccc912bb9b4a5c3e5,65af55cd97d7ed799e101c6b,2024-01-23_08h00.29.891,bars,2023.2.3,Win32,59.17159763,657b66ea316d21385b68909f,,,,,,,,,,,1309.5359,1310.5261,,,1311.0266,1311.2765,,140,140,,,,,,,,,,,,,,,,bars/015.png,bars/mask001.png,,,,,,,,,,,,2,2,,,,,,,8,5,8,5,,,,,,,,,,,1310.5261,1311.0265,1311.2766,1313.3925,space,2.1015,,1313.3927,30,20,1314.3936,1314.3937,1314.3967,,,,0,17,17,17,1,110,160,,,,,,,,
,,6132965ccc912bb9b4a5c3e5,65af55cd97d7ed799e101c6b,2024-01-23_08h00.29.891,bars,2023.2.3,Win32,59.17159763,657b66ea316d21385b68909f,,,,,,,,,,,1314.397,1315.3928,,,1315.8933,1316.1428,,68,68,,,,,,,,,,,,,,,,bars/042.png,bars/mask006.png,,,,,,,,,,,,2,2,,,,,,,6,3,7,3,,,,,,,,,,,1315.3929,1315.8933,1316.1428,1320.1754,space,4.0177,,1320.1755,77,7,1321.176,1321.1761,1321.1842,,,,0,18,18,18,1,145,75,,,,,,,,
,,6132965ccc912bb9b4a5c3e5,65af55cd97d7ed799e101c6b,2024-01-23_08h00.29.891,bars,2023.2.3,Win32,59.17159763,657b66ea316d21385b68909f,,,,,,,,,,,1321.1843,1322.1761,,,1322.6762,1322.9262,,73,73,,,,,,,,,,,,,,,,bars/016.png,bars/mask009.png,,,,,,,,,,,,0,1,,,,,,,8,1,9,1,,,,,,,,,,,1322.1761,1322.6761,1322.9263,1325.1924,space,2.252,,1325.1924,33,88,1326.1939,1326.1939,1326.2042,,,,0,19,19,19,1,40,165,,,,,,,,
,,6132965ccc912bb9b4a5c3e5,65af55cd97d7ed799e101c6b,2024-01-23_08h00.29.891,bars,2023.2.3,Win32,59.17159763,657b66ea316d21385b68909f,,,,,,,,,,,1326.2043,1327.1925,,,1327.693,1327.9428,,101,101,,,,,,,,,,,,,,,,bars/043.png,bars/mask004.png,,,,,,,,,,,,0,2,,,,,,,10,0,10,0,,,,,,,,,,,1327.1926,1327.6929,1327.9429,1330.1769,space,2.2198,,1330.1769,71,29,1331.1758,1331.1758,1331.186,,,,0,20,20,20,1,30,130,,,,,,,,
,,6132965ccc912bb9b4a5c3e5,65af55cd97d7ed799e101c6b,2024-01-23_08h00.29.891,bars,2023.2.3,Win32,59.17159763,657b66ea316d21385b68909f,,,,,,,,,,,1331.1861,1332.176,,,1332.6758,1332.9265,,60,60,,,,,,,,,,,,,,,,bars/043.png,bars/mask002.png,,,,,,,,,,,,0,1,,,,,,,8,0,6,0,,,,,,,,,,,1332.176,1332.6758,1332.9265,1335.3255,space,2.3846,,1335.3255,30,70,1336.3257,1336.3257,1336.3352,,,,0,21,21,21,1,30,130,,,,,,,,
,,6132965ccc912bb9b4a5c3e5,65af55cd97d7ed799e101c6b,2024-01-23_08h00.29.891,bars,2023.2.3,Win32,59.17159763,657b66ea316d21385b68909f,,,,,,,,,,,1336.3354,1337.3261,,,1337.8259,1338.0762,,75,75,,,,,,,,,,,,,,,,bars/045.png,bars/mask004.png,,,,,,,,,,,,1,1,,,,,,,6,0,7,0,,,,,,,,,,,1337.3261,1337.8259,1338.0763,1341.5435,space,3.4541,,1341.5435,25,65,1342.5426,1342.5426,1342.552,,,,0,22,22,22,1,100,10,,,,,,,,
,,6132965ccc912bb9b4a5c3e5,65af55cd97d7ed799e101c6b,2024-01-23_08h00.29.891,bars,2023.2.3,Win32,59.17159763,657b66ea316d21385b68909f,,,,,,,,,,,1342.5521,1343.5443,,,1344.0446,1344.2941,,54,54,,,,,,,,,,,,,,,,bars/021.png,bars/mask001.png,,,,,,,,,,,,0,2,,,,,,,4,2,2,1,,,,,,,,,,,1343.5444,1344.0445,1344.2941,1346.2092,space,1.902,,1346.2093,79,16,1347.2095,1347.2096,1347.2175,,,,0,23,23,23,1,155,70,,,,,,,,
,,6132965ccc912bb9b4a5c3e5,65af55cd97d7ed799e101c6b,2024-01-23_08h00.29.891,bars,2023.2.3,Win32,59.17159763,657b66ea316d21385b68909f,,,,,,,,,,,1347.2177,1348.2095,,,1348.7095,1348.9594,,116,116,,,,,,,,,,,,,,,,bars/018.png,bars/mask008.png,,,,,,,,,,,,1,2,,,,,,,2,4,0,4,,,,,,,,,,,1348.2096,1348.7093,1348.9595,1351.2927,space,2.318,,1351.2928,34,26,1352.2933,1352.2933,1352.3017,,,,0,24,24,24,1,150,90,,,,,,,,
,,6132965ccc912bb9b4a5c3e5,65af55cd97d7ed799e101c6b,2024-01-23_08h00.29.891,bars,2023.2.3,Win32,59.17159763,657b66ea316d21385b68909f,,,,,,,,,,,1352.3018,1353.2943,,,1353.7945,1354.0441,,110,110,,,,,,,,,,,,,,,,bars/048.png,bars/mask004.png,,,,,,,,,,,,0,1,,,,,,,0,6,0,6,,,,,,,,,,,1353.2944,1353.7945,1354.0443,1356.7924,space,2.734,,1356.7925,60,65,1357.7925,1357.7926,1357.8023,,,,0,25,25,25,1,50,175,,,,,,,,
,,6132965ccc912bb9b4a5c3e5,65af55cd97d7ed799e101c6b,2024-01-23_08h00.29.891,bars,2023.2.3,Win32,59.17159763,657b66ea316d21385b68909f,,,,,,,,,,,1357.8025,1358.7925,,,1359.2927,1359.5423,,138,138,,,,,,,,,,,,,,,,bars/000.png,bars/mask006.png,,,,,,,,,,,,6,2,,,,,,,2,8,3,8,,,,,,,,,,,1358.7925,1359.2927,1359.5424,1361.859,space,2.2979,,1361.859,82,7,1362.8593,1362.8593,1362.8632,,,,0,26,26,26,1,40,145,,,,,,,,
,,6132965ccc912bb9b4a5c3e5,65af55cd97d7ed799e101c6b,2024-01-23_08h00.29.891,bars,2023.2.3,Win32,59.17159763,657b66ea316d21385b68909f,,,,,,,,,,,1362.8637,1363.8595,,,1364.3592,1364.6101,,139,-41,,,,,,,,,,,,,,,,bars/011.png,bars/mask001.png,,,,,,,,,,,,0,1,,,,,,,0,6,0,6,,,,,,,,,,,1363.8595,1364.3592,1364.6101,1368.1952,space,3.5709,,1368.1953,21,54,1369.1942,1369.1943,1369.2013,,,,0,27,27,27,1,160,85,,,,,,,,
,,6132965ccc912bb9b4a5c3e5,65af55cd97d7ed799e101c6b,2024-01-23_08h00.29.891,bars,2023.2.3,Win32,59.17159763,657b66ea316d21385b68909f,,,,,,,,,,,1369.2014,1370.1925,,,1370.6922,1370.9422,,48,228,,,,,,,,,,,,,,,,bars/042.png,bars/mask005.png,,,,,,,,,,,,1,2,,,,,,,0,8,0,8,,,,,,,,,,,1370.1926,1370.6922,1370.9422,1375.659,space,4.6971,,1375.6595,83,27,1376.6591,1376.6591,1376.6694,,,,0,28,28,28,1,145,75,,,,,,,,
,,6132965ccc912bb9b4a5c3e5,65af55cd97d7ed799e101c6b,2024-01-23_08h00.29.891,bars,2023.2.3,Win32,59.17159763,657b66ea316d21385b68909f,,,,,,,,,,,1376.6695,1377.6592,,,1378.1594,1378.4093,,111,111,,,,,,,,,,,,,,,,bars/018.png,bars/mask008.png,,,,,,,,,,,,2,2,,,,,,,2,6,2,7,,,,,,,,,,,1377.6593,1378.1594,1378.4094,1382.5089,space,4.0801,,1382.5089,39,21,1383.5089,1383.509,1383.5171,,,,0,29,29,29,1,150,90,,,,,,,,
,,6132965ccc912bb9b4a5c3e5,65af55cd97d7ed799e101c6b,2024-01-23_08h00.29.891,bars,2023.2.3,Win32,59.17159763,657b66ea316d21385b68909f,,,,,,,,,,,1383.5173,1384.5091,,,1385.0088,1385.2593,,68,68,,,,,,,,,,,,,,,,bars/023.png,bars/mask002.png,,,,,,,,,,,,0,2,,,,,,,0,8,0,10,,,,,,,,,,,1384.5091,1385.0087,1385.2595,1386.6091,space,1.335,,1386.6093,48,47,1387.609,1387.6091,1387.6105,,,,0,30,30,30,1,20,115,,,,,,,,
,,6132965ccc912bb9b4a5c3e5,65af55cd97d7ed799e101c6b,2024-01-23_08h00.29.891,bars,2023.2.3,Win32,59.17159763,657b66ea316d21385b68909f,,,,,,,,,,,1387.611,1388.6092,,,1389.1093,1389.3593,,55,235,,,,,,,,,,,,,,,,bars/045.png,bars/mask005.png,,,,,,,,,,,,0,2,,,,,,,0,6,0,6,,,,,,,,,,,1388.6093,1389.1092,1389.3594,1391.9124,space,2.5379,,1391.9125,45,45,1392.9105,1392.9107,1392.9123,,,,0,31,31,31,1,100,10,,,,,,,,
,,6132965ccc912bb9b4a5c3e5,65af55cd97d7ed799e101c6b,2024-01-23_08h00.29.891,bars,2023.2.3,Win32,59.17159763,657b66ea316d21385b68909f,,,,,,,,,,,1392.9127,1393.9091,,,1394.4089,1394.6594,,157,157,,,,,,,,,,,,,,,,bars/033.png,bars/mask008.png,,,,,,,,,,,,7,2,,,,,,,2,8,3,7,,,,,,,,,,,1393.9092,1394.4088,1394.6596,1398.9434,space,4.2709,,1398.9434,48,2,1399.9421,1399.9421,1399.9508,,,,0,32,32,32,1,25,155,,,,,,,,
,,6132965ccc912bb9b4a5c3e5,65af55cd97d7ed799e101c6b,2024-01-23_08h00.29.891,bars,2023.2.3,Win32,59.17159763,657b66ea316d21385b68909f,,,,,,,,,,,1399.951,1400.9422,,,1401.4424,1401.6923,,1,181,,,,,,,,,,,,,,,,bars/017.png,bars/mask003.png,,,,,,,,,,,,0,1,,,,,,,4,10,2,10,,,,,,,,,,,1400.9422,1401.4423,1401.6924,1404.228,space,2.522,,1404.2281,36,44,1405.2268,1405.2269,1405.2346,,,,0,33,33,33,1,145,45,,,,,,,,
,,6132965ccc912bb9b4a5c3e5,65af55cd97d7ed799e101c6b,2024-01-23_08h00.29.891,bars,2023.2.3,Win32,59.17159763,657b66ea316d21385b68909f,,,,,,,,,,,1405.2348,1406.2253,,,1406.7259,1406.9755,,117,-63,,,,,,,,,,,,,,,,bars/014.png,bars/mask000.png,,,,,,,,,,,,0,1,,,,,,,6,10,7,8,,,,,,,,,,,1406.2254,1406.7259,1406.9756,1410.1258,space,3.1315,,1410.1258,37,63,1411.1261,1411.1262,1411.1361,,,,0,34,34,34,1,80,0,,,,,,,,
,,6132965ccc912bb9b4a5c3e5,65af55cd97d7ed799e101c6b,2024-01-23_08h00.29.891,bars,2023.2.3,Win32,59.17159763,657b66ea316d21385b68909f,,,,,,,,,,,1411.1362,1412.1254,,,1412.6259,1412.876,,60,60,,,,,,,,,,,,,,,,bars/046.png,bars/mask005.png,,,,,,,,,,,,1,2,,,,,,,8,8,9,9,,,,,,,,,,,1412.1254,1412.6258,1412.876,1416.2918,space,3.4,,1416.2918,85,25,1417.2932,1417.2933,1417.3029,,,,0,35,35,35,1,155,85,,,,,,,,
,,6132965ccc912bb9b4a5c3e5,65af55cd97d7ed799e101c6b,2024-01-23_08h00.29.891,bars,2023.2.3,Win32,59.17159763,657b66ea316d21385b68909f,,,,,,,,,,,1417.303,1418.2924,,,1418.792,1419.042,,55,235,,,,,,,,,,,,,,,,bars/027.png,bars/mask001.png,,,,,,,,,,,,8,2,,,,,,,6,10,7,10,,,,,,,,,,,1418.2924,1418.792,1419.0421,1422.9784,space,3.9227,,1422.9785,55,5,1423.9755,1423.9755,1423.9835,,,,0,36,36,36,1,110,50,,,,,,,,
,,6132965ccc912bb9b4a5c3e5,65af55cd97d7ed799e101c6b,2024-01-23_08h00.29.891,bars,2023.2.3,Win32,59.17159763,657b66ea316d21385b68909f,,,,,,,,,,,1423.9837,1424.9754,,,1425.4756,1425.7254,,126,126,,,,,,,,,,,,,,,,bars/001.png,bars/mask004.png,,,,,,,,,,,,8,1,,,,,,,8,8,9,8,,,,,,,,,,,1424.9755,1425.4755,1425.7254,1429.1089,space,3.3635,,1429.1089,4,41,1430.1086,1430.1086,1430.1161,,,,0,37,37,37,1,130,85,,,,,,,,
,,6132965ccc912bb9b4a5c3e5,65af55cd97d7ed799e101c6b,2024-01-23_08h00.29.891,bars,2023.2.3,Win32,59.17159763,657b66ea316d21385b68909f,,,,,,,,,,,1430.1162,1431.1084,,,1431.6089,1431.8593,,39,39,,,,,,,,,,,,,,,,bars/006.png,bars/mask007.png,,,,,,,,,,,,9,1,,,,,,,10,10,10,10,,,,,,,,,,,1431.1084,1431.6088,1431.8593,1435.694,space,3.8219,,1435.6941,4,61,1436.6934,1436.6935,1436.7003,,,,0,38,38,38,1,35,100,,,,,,,,
,,6132965ccc912bb9b4a5c3e5,65af55cd97d7ed799e101c6b,2024-01-23_08h00.29.891,bars,2023.2.3,Win32,59.17159763,657b66ea316d21385b68909f,,,,,,,,,,,1436.7004,1437.6924,,,1438.1921,1438.4422,,166,-14,,,,,,,,,,,,,,,,bars/002.png,bars/mask005.png,,,,,,,,,,,,0,1,,,,,,,10,10,10,10,,,,,,,,,,,1437.6924,1438.192,1438.4423,1442.1256,space,3.667,,1442.1257,36,81,1443.1257,1443.1257,1443.1338,,,,0,39,39,39,1,130,85,,,,,,,,
,,6132965ccc912bb9b4a5c3e5,65af55cd97d7ed799e101c6b,2024-01-23_08h00.29.891,bars,2023.2.3,Win32,59.17159763,657b66ea316d21385b68909f,,,,,,,,,,,1443.1339,1444.1251,,,1444.6253,1444.8757,,126,126,,,,,,,,,,,,,,,,bars/020.png,bars/mask000.png,,,,,,,,,,,,4,1,,,,,,,8,8,7,7,,,,,,,,,,,1444.1251,1444.6253,1444.8758,1448.1584,space,3.2698,,1448.1584,11,44,1449.1585,1449.1586,1449.1665,,,,0,40,40,40,1,115,170,,,,,,,,
,,6132965ccc912bb9b4a5c3e5,65af55cd97d7ed799e101c6b,2024-01-23_08h00.29.891,bars,2023.2.3,Win32,59.17159763,657b66ea316d21385b68909f,,,,,,,,,,,1449.1667,1450.1596,,,1450.6589,1450.9087,,1,181,,,,,,,,,,,,,,,,bars/037.png,bars/mask007.png,,,,,,,,,,,,0,1,,,,,,,10,6,10,5,,,,,,,,,,,1450.1599,1450.6587,1450.9088,1452.7752,space,1.8491,,1452.7753,31,76,1453.7754,1453.7755,1453.7856,,,,0,41,41,41,1,150,105,,,,,,,,
,,6132965ccc912bb9b4a5c3e5,65af55cd97d7ed799e101c6b,2024-01-23_08h00.29.891,bars,2023.2.3,Win32,59.17159763,657b66ea316d21385b68909f,,,,,,,,,,,1453.7857,1454.7759,,,1455.2755,1455.5253,,156,-24,,,,,,,,,,,,,,,,bars/039.png,bars/mask002.png,,,,,,,,,,,,3,1,,,,,,,8,8,7,7,,,,,,,,,,,1454.776,1455.2755,1455.5253,1458.1751,space,2.6348,,1458.1751,19,51,1459.1758,1459.1758,1459.1772,,,,0,42,42,42,1,175,105,,,,,,,,
,,6132965ccc912bb9b4a5c3e5,65af55cd97d7ed799e101c6b,2024-01-23_08h00.29.891,bars,2023.2.3,Win32,59.17159763,657b66ea316d21385b68909f,,,,,,,,,,,1459.1778,1460.173,,,1460.6722,1460.9219,,133,133,,,,,,,,,,,,,,,,bars/035.png,bars/mask005.png,,,,,,,,,,,,0,1,,,,,,,6,6,4,5,,,,,,,,,,,1460.1731,1460.6721,1460.922,1464.2556,space,3.3176,,1464.2556,42,73,1465.2553,1465.2553,1465.2661,,,,0,43,43,43,1,175,60,,,,,,,,
,,6132965ccc912bb9b4a5c3e5,65af55cd97d7ed799e101c6b,2024-01-23_08h00.29.891,bars,2023.2.3,Win32,59.17159763,657b66ea316d21385b68909f,,,,,,,,,,,1465.2662,1466.2588,,,1466.7587,1467.0091,,6,6,,,,,,,,,,,,,,,,bars/009.png,bars/mask003.png,,,,,,,,,,,,5,1,,,,,,,8,4,7,4,,,,,,,,,,,1466.2588,1466.7586,1467.0091,1469.2591,space,2.23,,1469.2592,9,81,1470.2585,1470.2585,1470.2668,,,,0,44,44,44,1,15,105,,,,,,,,
,,6132965ccc912bb9b4a5c3e5,65af55cd97d7ed799e101c6b,2024-01-23_08h00.29.891,bars,2023.2.3,Win32,59.17159763,657b66ea316d21385b68909f,,,,,,,,,,,1470.267,1471.2603,,,1471.7599,1472.0105,,56,56,,,,,,,,,,,,,,,,bars/016.png,bars/mask002.png,,,,,,,,,,,,5,1,,,,,,,10,6,10,6,,,,,,,,,,,1471.2604,1471.7598,1472.0106,1474.2922,space,2.2677,,1474.2923,16,71,1475.2924,1475.2925,1475.294,,,,0,45,45,45,1,40,165,,,,,,,,
,,6132965ccc912bb9b4a5c3e5,65af55cd97d7ed799e101c6b,2024-01-23_08h00.29.891,bars,2023.2.3,Win32,59.17159763,657b66ea316d21385b68909f,,,,,,,,,,,1475.2944,1476.2919,,,1476.7932,1477.0431,,68,68,,,,,,,,,,,,,,,,bars/014.png,bars/mask001.png,,,,,,,,,,,,4,1,,,,,,,8,4,7,5,,,,,,,,,,,1476.2919,1476.7932,1477.0432,1479.7584,space,2.7005,,1479.7585,12,68,1480.7586,1480.7588,1480.7666,,,,0,46,46,46,1,80,0,,,,,,,,
,,6132965ccc912bb9b4a5c3e5,65af55cd97d7ed799e101c6b,2024-01-23_08h00.29.891,bars,2023.2.3,Win32,59.17159763,657b66ea316d21385b68909f,,,,,,,,,,,1480.7666,1481.7584,,,1482.2586,1482.5091,,70,70,,,,,,,,,,,,,,,,bars/015.png,bars/mask008.png,,,,,,,,,,,,0,1,,,,,,,10,6,10,5,,,,,,,,,,,1481.7585,1482.2586,1482.5092,1484.8759,space,2.3467,,1484.876,40,90,1485.8754,1485.8755,1485.8834,,,,0,47,47,47,1,110,160,,,,,,,,
,,6132965ccc912bb9b4a5c3e5,65af55cd97d7ed799e101c6b,2024-01-23_08h00.29.891,bars,2023.2.3,Win32,59.17159763,657b66ea316d21385b68909f,,,,,,,,,,,1485.8835,1486.8749,,,1487.3754,1487.6253,,115,115,,,,,,,,,,,,,,,,bars/037.png,bars/mask009.png,,,,,,,,,,,,5,2,,,,,,,8,8,7,8,,,,,,,,,,,1486.8751,1487.3753,1487.6253,1489.9923,space,2.3525,,1489.9924,35,10,1490.9925,1490.9926,1490.9967,,,,0,48,48,48,1,150,105,,,,,,,,
,,6132965ccc912bb9b4a5c3e5,65af55cd97d7ed799e101c6b,2024-01-23_08h00.29.891,bars,2023.2.3,Win32,59.17159763,657b66ea316d21385b68909f,,,,,,,,,,,1490.9972,1491.9922,,,1492.4923,1492.7426,,65,245,,,,,,,,,,,,,,,,bars/044.png,bars/mask009.png,,,,,,,,,,,,5,1,,,,,,,6,10,7,10,,,,,,,,,,,1491.9923,1492.4922,1492.7426,1496.4253,space,3.6677,,1496.4254,10,90,1497.4247,1497.4247,1497.4321,,,,0,49,49,49,1,75,155,,,,,,,,
,,6132965ccc912bb9b4a5c3e5,65af55cd97d7ed799e101c6b,2024-01-23_08h00.29.891,bars,2023.2.3,Win32,59.17159763,657b66ea316d21385b68909f,,,,,,,,,,,,,,,,,,,,,,,,,,,,,,,,,,,,,,,,,,,,,,,,,,,,,,,,,,,,,,,,,,,,,,,,,,,,,,,,,,,,,,,,,,,,,1497.4322,1557.425,0,2,2,4,1,sequence_tables/blk009.csv
,,6132965ccc912bb9b4a5c3e5,65af55cd97d7ed799e101c6b,2024-01-23_08h00.29.891,bars,2023.2.3,Win32,59.17159763,657b66ea316d21385b68909f,,,,,,,,,,,1570.1178,1571.1082,,,1571.6082,1571.8579,,119,119,,,,,,,,,,,,,,,,bars/018.png,bars/mask005.png,,,,,,,,,,,,0,2,,,,,,,9,7,10,7,,,,,,1557.434,1570.1084,space,12.662,,1571.1083,1571.608,1571.858,1574.4418,space,2.5683,,1574.4419,31,29,1575.4417,1575.4417,1575.4524,,,,0,0,0,0,1,150,90,,,,,,,,
,,6132965ccc912bb9b4a5c3e5,65af55cd97d7ed799e101c6b,2024-01-23_08h00.29.891,bars,2023.2.3,Win32,59.17159763,657b66ea316d21385b68909f,,,,,,,,,,,1575.4526,1576.4414,,,1576.9416,1577.1917,,145,-35,,,,,,,,,,,,,,,,bars/038.png,bars/mask001.png,,,,,,,,,,,,2,1,,,,,,,7,5,7,4,,,,,,,,,,,1576.4415,1576.9416,1577.192,1579.258,space,2.0505,,1579.258,20,75,1580.2596,1580.2597,1580.2695,,,,0,1,1,1,1,165,70,,,,,,,,
,,6132965ccc912bb9b4a5c3e5,65af55cd97d7ed799e101c6b,2024-01-23_08h00.29.891,bars,2023.2.3,Win32,59.17159763,657b66ea316d21385b68909f,,,,,,,,,,,1580.2697,1581.2579,,,1581.7581,1582.008,,132,132,,,,,,,,,,,,,,,,bars/002.png,bars/mask001.png,,,,,,,,,,,,3,1,,,,,,,5,7,3,7,,,,,,,,,,,1581.2579,1581.7581,1582.0081,1584.2751,space,2.2512,,1584.2753,2,47,1585.2747,1585.2748,1585.2876,,,,0,2,2,2,1,130,85,,,,,,,,
,,6132965ccc912bb9b4a5c3e5,65af55cd97d7ed799e101c6b,2024-01-23_08h00.29.891,bars,2023.2.3,Win32,59.17159763,657b66ea316d21385b68909f,,,,,,,,,,,1585.2877,1586.2763,,,1586.7764,1587.0262,,76,76,,,,,,,,,,,,,,,,bars/046.png,bars/mask004.png,,,,,,,,,,,,4,2,,,,,,,7,5,6,6,,,,,,,,,,,1586.2763,1586.7763,1587.0264,1590.1582,space,3.1187,,1590.1583,79,9,1591.1583,1591.1584,1591.1696,,,,0,3,3,3,1,155,85,,,,,,,,
,,6132965ccc912bb9b4a5c3e5,65af55cd97d7ed799e101c6b,2024-01-23_08h00.29.891,bars,2023.2.3,Win32,59.17159763,657b66ea316d21385b68909f,,,,,,,,,,,1591.1697,1592.1584,,,1592.6587,1592.9085,,82,82,,,,,,,,,,,,,,,,bars/033.png,bars/mask009.png,,,,,,,,,,,,0,1,,,,,,,9,7,9,7,,,,,,,,,,,1592.1585,1592.6587,1592.9085,1594.9251,space,2.0017,,1594.9251,57,73,1595.9248,1595.9248,1595.9281,,,,0,4,4,4,1,25,155,,,,,,,,
,,6132965ccc912bb9b4a5c3e5,65af55cd97d7ed799e101c6b,2024-01-23_08h00.29.891,bars,2023.2.3,Win32,59.17159763,657b66ea316d21385b68909f,,,,,,,,,,,1595.9284,1596.9262,,,1597.4267,1597.6763,,157,-23,,,,,,,,,,,,,,,,bars/007.png,bars/mask002.png,,,,,,,,,,,,2,1,,,,,,,7,5,6,5,,,,,,,,,,,1596.9263,1597.4266,1597.6764,1600.5579,space,2.8672,,1600.5579,18,78,1601.5578,1601.5578,1601.5659,,,,0,5,5,5,1,175,55,,,,,,,,
,,6132965ccc912bb9b4a5c3e5,65af55cd97d7ed799e101c6b,2024-01-23_08h00.29.891,bars,2023.2.3,Win32,59.17159763,657b66ea316d21385b68909f,,,,,,,,,,,1601.566,1602.5585,,,1603.0582,1603.308,,159,159,,,,,,,,,,,,,,,,bars/018.png,bars/mask008.png,,,,,,,,,,,,4,1,,,,,,,5,3,5,3,,,,,,,,,,,1602.5585,1603.0581,1603.3081,1606.0079,space,2.6855,,1606.0081,9,69,1607.0081,1607.0081,1607.0188,,,,0,6,6,6,1,150,90,,,,,,,,
,,6132965ccc912bb9b4a5c3e5,65af55cd97d7ed799e101c6b,2024-01-23_08h00.29.891,bars,2023.2.3,Win32,59.17159763,657b66ea316d21385b68909f,,,,,,,,,,,1607.019,1608.0094,,,1608.5096,1608.7599,,13,13,,,,,,,,,,,,,,,,bars/042.png,bars/mask006.png,,,,,,,,,,,,0,1,,,,,,,7,1,7,2,,,,,,,,,,,1608.0095,1608.5096,1608.7601,1612.2747,space,3.5013,,1612.2747,48,62,1613.2747,1613.2747,1613.2834,,,,0,7,7,7,1,145,75,,,,,,,,
,,6132965ccc912bb9b4a5c3e5,65af55cd97d7ed799e101c6b,2024-01-23_08h00.29.891,bars,2023.2.3,Win32,59.17159763,657b66ea316d21385b68909f,,,,,,,,,,,1613.2836,1614.2746,,,1614.7752,1615.0248,,47,47,,,,,,,,,,,,,,,,bars/013.png,bars/mask000.png,,,,,,,,,,,,1,1,,,,,,,9,3,9,3,,,,,,,,,,,1614.2746,1614.775,1615.0249,1617.7584,space,2.7137,,1617.7585,28,37,1618.7587,1618.7588,1618.7669,,,,0,8,8,8,1,75,10,,,,,,,,
,,6132965ccc912bb9b4a5c3e5,65af55cd97d7ed799e101c6b,2024-01-23_08h00.29.891,bars,2023.2.3,Win32,59.17159763,657b66ea316d21385b68909f,,,,,,,,,,,1618.7671,1619.758,,,1620.2579,1620.5079,,142,142,,,,,,,,,,,,,,,,bars/040.png,bars/mask007.png,,,,,,,,,,,,9,1,,,,,,,10,5,10,8,,,,,,,,,,,1619.7581,1620.2578,1620.5079,1622.4411,space,1.9136,,1622.4412,2,43,1623.4411,1623.4412,1623.4426,,,,0,9,9,9,1,140,5,,,,,,,,
,,6132965ccc912bb9b4a5c3e5,65af55cd97d7ed799e101c6b,2024-01-23_08h00.29.891,bars,2023.2.3,Win32,59.17159763,657b66ea316d21385b68909f,,,,,,,,,,,1623.4431,1624.4412,,,1624.9411,1625.1911,,17,17,,,,,,,,,,,,,,,,bars/035.png,bars/mask000.png,,,,,,,,,,,,2,1,,,,,,,8,7,7,5,,,,,,,,,,,1624.4413,1624.9411,1625.1911,1627.7747,space,2.5693,,1627.7748,22,43,1628.7753,1628.7753,1628.7843,,,,0,10,10,10,1,175,60,,,,,,,,
,,6132965ccc912bb9b4a5c3e5,65af55cd97d7ed799e101c6b,2024-01-23_08h00.29.891,bars,2023.2.3,Win32,59.17159763,657b66ea316d21385b68909f,,,,,,,,,,,1628.7844,1629.7748,,,1630.2742,1630.5246,,135,135,,,,,,,,,,,,,,,,bars/039.png,bars/mask002.png,,,,,,,,,,,,0,2,,,,,,,10,5,10,5,,,,,,,,,,,1629.7749,1630.2742,1630.5246,1632.4583,space,1.9179,,1632.4584,40,30,1633.4585,1633.4586,1633.4623,,,,0,11,11,11,1,175,105,,,,,,,,
,,6132965ccc912bb9b4a5c3e5,65af55cd97d7ed799e101c6b,2024-01-23_08h00.29.891,bars,2023.2.3,Win32,59.17159763,657b66ea316d21385b68909f,,,,,,,,,,,1633.4627,1634.4583,,,1634.958,1635.2078,,10,10,,,,,,,,,,,,,,,,bars/016.png,bars/mask006.png,,,,,,,,,,,,0,2,,,,,,,10,3,8,2,,,,,,,,,,,1634.4584,1634.9578,1635.2079,1637.9927,space,2.7698,,1637.9928,30,25,1638.9923,1638.9924,1639.0005,,,,0,12,12,12,1,40,165,,,,,,,,
,,6132965ccc912bb9b4a5c3e5,65af55cd97d7ed799e101c6b,2024-01-23_08h00.29.891,bars,2023.2.3,Win32,59.17159763,657b66ea316d21385b68909f,,,,,,,,,,,1639.0006,1639.991,,,1640.4917,1640.7416,,130,130,,,,,,,,,,,,,,,,bars/043.png,bars/mask000.png,,,,,,,,,,,,5,2,,,,,,,8,5,7,5,,,,,,,,,,,1639.991,1640.4916,1640.7417,1643.6915,space,2.9349,,1643.6917,80,0,1644.6914,1644.6915,1644.7011,,,,0,13,13,13,1,30,130,,,,,,,,
,,6132965ccc912bb9b4a5c3e5,65af55cd97d7ed799e101c6b,2024-01-23_08h00.29.891,bars,2023.2.3,Win32,59.17159763,657b66ea316d21385b68909f,,,,,,,,,,,1644.7013,1645.6931,,,1646.1927,1646.443,,157,157,,,,,,,,,,,,,,,,bars/035.png,bars/mask006.png,,,,,,,,,,,,4,1,,,,,,,10,7,9,6,,,,,,,,,,,1645.6931,1646.1927,1646.4431,1650.4411,space,3.9843,,1650.4411,18,83,1651.4417,1651.4417,1651.4522,,,,0,14,14,14,1,175,60,,,,,,,,
,,6132965ccc912bb9b4a5c3e5,65af55cd97d7ed799e101c6b,2024-01-23_08h00.29.891,bars,2023.2.3,Win32,59.17159763,657b66ea316d21385b68909f,,,,,,,,,,,1651.4523,1652.4409,,,1652.9411,1653.191,,129,-51,,,,,,,,,,,,,,,,bars/016.png,bars/mask000.png,,,,,,,,,,,,0,2,,,,,,,8,9,9,10,,,,,,,,,,,1652.4409,1652.941,1653.191,1656.3275,space,3.1232,,1656.3276,89,36,1657.3245,1657.3246,1657.3329,,,,0,15,15,15,1,40,165,,,,,,,,
,,6132965ccc912bb9b4a5c3e5,65af55cd97d7ed799e101c6b,2024-01-23_08h00.29.891,bars,2023.2.3,Win32,59.17159763,657b66ea316d21385b68909f,,,,,,,,,,,1657.333,1658.3244,,,1658.8244,1659.0741,,40,220,,,,,,,,,,,,,,,,bars/002.png,bars/mask004.png,,,,,,,,,,,,0,2,,,,,,,6,10,6,10,,,,,,,,,,,1658.3245,1658.8244,1659.0741,1662.3411,space,3.2507,,1662.3411,90,45,1663.3411,1663.3411,1663.3502,,,,0,16,16,16,1,130,85,,,,,,,,
,,6132965ccc912bb9b4a5c3e5,65af55cd97d7ed799e101c6b,2024-01-23_08h00.29.891,bars,2023.2.3,Win32,59.17159763,657b66ea316d21385b68909f,,,,,,,,,,,1663.3503,1664.3414,,,1664.8412,1665.0911,,44,44,,,,,,,,,,,,,,,,bars/022.png,bars/mask000.png,,,,,,,,,,,,2,2,,,,,,,8,10,8,8,,,,,,,,,,,1664.3415,1664.8411,1665.0912,1667.6248,space,2.514,,1667.6249,51,24,1668.6247,1668.6248,1668.6334,,,,0,17,17,17,1,95,20,,,,,,,,
,,6132965ccc912bb9b4a5c3e5,65af55cd97d7ed799e101c6b,2024-01-23_08h00.29.891,bars,2023.2.3,Win32,59.17159763,657b66ea316d21385b68909f,,,,,,,,,,,1668.6336,1669.6246,,,1670.1244,1670.3744,,69,69,,,,,,,,,,,,,,,,bars/044.png,bars/mask006.png,,,,,,,,,,,,8,1,,,,,,,10,10,10,10,,,,,,,,,,,1669.6246,1670.1244,1670.3745,1673.491,space,3.0958,,1673.491,6,86,1674.4914,1674.4916,1674.5006,,,,0,18,18,18,1,75,155,,,,,,,,
,,6132965ccc912bb9b4a5c3e5,65af55cd97d7ed799e101c6b,2024-01-23_08h00.29.891,bars,2023.2.3,Win32,59.17159763,657b66ea316d21385b68909f,,,,,,,,,,,1674.5007,1675.4929,,,1675.9929,1676.2426,,56,56,,,,,,,,,,,,,,,,bars/042.png,bars/mask002.png,,,,,,,,,,,,4,2,,,,,,,8,10,8,10,,,,,,,,,,,1675.493,1675.9929,1676.2427,1678.2433,space,1.988,,1678.2434,89,19,1679.2435,1679.2436,1679.2503,,,,0,19,19,19,1,145,75,,,,,,,,
,,6132965ccc912bb9b4a5c3e5,65af55cd97d7ed799e101c6b,2024-01-23_08h00.29.891,bars,2023.2.3,Win32,59.17159763,657b66ea316d21385b68909f,,,,,,,,,,,1679.2505,1680.241,,,1680.7409,1680.9908,,49,49,,,,,,,,,,,,,,,,bars/008.png,bars/mask008.png,,,,,,,,,,,,0,2,,,,,,,6,10,6,10,,,,,,,,,,,1680.2411,1680.7409,1680.9909,1685.0748,space,4.0636,,1685.0749,61,49,1686.0744,1686.0744,1686.0822,,,,0,20,20,20,1,110,0,,,,,,,,
,,6132965ccc912bb9b4a5c3e5,65af55cd97d7ed799e101c6b,2024-01-23_08h00.29.891,bars,2023.2.3,Win32,59.17159763,657b66ea316d21385b68909f,,,,,,,,,,,1686.0823,1687.0743,,,1687.5746,1687.8245,,26,206,,,,,,,,,,,,,,,,bars/023.png,bars/mask003.png,,,,,,,,,,,,8,1,,,,,,,8,10,10,10,,,,,,,,,,,1687.0744,1687.5746,1687.8245,1689.9428,space,2.1043,,1689.9429,6,89,1690.941,1690.9411,1690.9483,,,,0,21,21,21,1,20,115,,,,,,,,
,,6132965ccc912bb9b4a5c3e5,65af55cd97d7ed799e101c6b,2024-01-23_08h00.29.891,bars,2023.2.3,Win32,59.17159763,657b66ea316d21385b68909f,,,,,,,,,,,1690.9483,1691.9411,,,1692.4411,1692.6913,,170,170,,,,,,,,,,,,,,,,bars/036.png,bars/mask000.png,,,,,,,,,,,,1,1,,,,,,,6,8,8,8,,,,,,,,,,,1691.9413,1692.4411,1692.6915,1696.3412,space,3.6354,,1696.3413,25,30,1697.3408,1697.3408,1697.3497,,,,0,22,22,22,1,145,20,,,,,,,,
,,6132965ccc912bb9b4a5c3e5,65af55cd97d7ed799e101c6b,2024-01-23_08h00.29.891,bars,2023.2.3,Win32,59.17159763,657b66ea316d21385b68909f,,,,,,,,,,,1697.3499,1698.3409,,,1698.8414,1699.0913,,1,1,,,,,,,,,,,,,,,,bars/044.png,bars/mask002.png,,,,,,,,,,,,1,2,,,,,,,8,10,7,9,,,,,,,,,,,1698.3409,1698.8414,1699.0914,1701.075,space,1.9672,,1701.075,74,26,1702.0753,1702.0754,1702.0785,,,,0,23,23,23,1,75,155,,,,,,,,
,,6132965ccc912bb9b4a5c3e5,65af55cd97d7ed799e101c6b,2024-01-23_08h00.29.891,bars,2023.2.3,Win32,59.17159763,657b66ea316d21385b68909f,,,,,,,,,,,1702.079,1703.0743,,,1703.5746,1703.8244,,169,169,,,,,,,,,,,,,,,,bars/017.png,bars/mask008.png,,,,,,,,,,,,1,1,,,,,,,6,10,7,10,,,,,,,,,,,1703.0743,1703.5746,1703.8244,1706.9408,space,3.0997,,1706.9408,24,56,1707.9407,1707.9407,1707.9494,,,,0,24,24,24,1,145,45,,,,,,,,
,,6132965ccc912bb9b4a5c3e5,65af55cd97d7ed799e101c6b,2024-01-23_08h00.29.891,bars,2023.2.3,Win32,59.17159763,657b66ea316d21385b68909f,,,,,,,,,,,1707.9495,1708.9421,,,1709.4415,1709.691,,1,1,,,,,,,,,,,,,,,,bars/032.png,bars/mask009.png,,,,,,,,,,,,3,2,,,,,,,4,8,4,8,,,,,,,,,,,1708.9421,1709.4413,1709.6913,1712.3241,space,2.6196,,1712.3244,56,19,1713.3252,1713.3252,1713.3343,,,,0,25,25,25,1,125,20,,,,,,,,
,,6132965ccc912bb9b4a5c3e5,65af55cd97d7ed799e101c6b,2024-01-23_08h00.29.891,bars,2023.2.3,Win32,59.17159763,657b66ea316d21385b68909f,,,,,,,,,,,1713.3345,1714.3243,,,1714.8248,1715.0756,,73,73,,,,,,,,,,,,,,,,bars/040.png,bars/mask004.png,,,,,,,,,,,,0,1,,,,,,,2,10,3,10,,,,,,,,,,,1714.3244,1714.8246,1715.0757,1717.2075,space,2.1175,,1717.2076,67,68,1718.2079,1718.2079,1718.2111,,,,0,26,26,26,1,140,5,,,,,,,,
,,6132965ccc912bb9b4a5c3e5,65af55cd97d7ed799e101c6b,2024-01-23_08h00.29.891,bars,2023.2.3,Win32,59.17159763,657b66ea316d21385b68909f,,,,,,,,,,,1718.2115,1719.2076,,,1719.7077,1719.9576,,0,0,,,,,,,,,,,,,,,,bars/018.png,bars/mask007.png,,,,,,,,,,,,0,1,,,,,,,0,8,0,9,,,,,,,,,,,1719.2076,1719.7076,1719.9576,1722.3274,space,2.3539,,1722.3275,30,90,1723.3264,1723.3264,1723.3329,,,,0,27,27,27,1,150,90,,,,,,,,
,,6132965ccc912bb9b4a5c3e5,65af55cd97d7ed799e101c6b,2024-01-23_08h00.29.891,bars,2023.2.3,Win32,59.17159763,657b66ea316d21385b68909f,,,,,,,,,,,1723.3331,1724.3243,,,1724.8249,1725.0743,,172,172,,,,,,,,,,,,,,,,bars/007.png,bars/mask008.png,,,,,,,,,,,,0,1,,,,,,,0,10,0,10,,,,,,,,,,,1724.3245,1724.8249,1725.0744,1726.8579,space,1.7637,,1726.858,3,63,1727.8575,1727.8575,1727.8588,,,,0,28,28,28,1,175,55,,,,,,,,
,,6132965ccc912bb9b4a5c3e5,65af55cd97d7ed799e101c6b,2024-01-23_08h00.29.891,bars,2023.2.3,Win32,59.17159763,657b66ea316d21385b68909f,,,,,,,,,,,1727.8592,1728.8576,,,1729.3581,1729.6077,,143,-37,,,,,,,,,,,,,,,,bars/049.png,bars/mask009.png,,,,,,,,,,,,1,1,,,,,,,2,10,2,9,,,,,,,,,,,1728.8578,1729.358,1729.6077,1732.258,space,2.6344,,1732.2581,17,28,1733.2579,1733.2579,1733.2655,,,,0,29,29,29,1,160,115,,,,,,,,
,,6132965ccc912bb9b4a5c3e5,65af55cd97d7ed799e101c6b,2024-01-23_08h00.29.891,bars,2023.2.3,Win32,59.17159763,657b66ea316d21385b68909f,,,,,,,,,,,1733.2657,1734.2571,,,1734.7576,1735.0074,,41,221,,,,,,,,,,,,,,,,bars/033.png,bars/mask005.png,,,,,,,,,,,,0,1,,,,,,,0,8,0,8,,,,,,,,,,,1734.2572,1734.7575,1735.0075,1737.7078,space,2.6847,,1737.708,16,66,1738.7074,1738.7074,1738.7163,,,,0,30,30,30,1,25,155,,,,,,,,
,,6132965ccc912bb9b4a5c3e5,65af55cd97d7ed799e101c6b,2024-01-23_08h00.29.891,bars,2023.2.3,Win32,59.17159763,657b66ea316d21385b68909f,,,,,,,,,,,1738.7164,1739.7087,,,1740.2083,1740.4591,,121,-59,,,,,,,,,,,,,,,,bars/025.png,bars/mask004.png,,,,,,,,,,,,1,1,,,,,,,2,10,3,9,,,,,,,,,,,1739.7088,1740.2082,1740.4592,1743.4152,space,2.9443,,1743.4152,16,81,1744.4077,1744.4077,1744.4175,,,,0,31,31,31,1,105,40,,,,,,,,
,,6132965ccc912bb9b4a5c3e5,65af55cd97d7ed799e101c6b,2024-01-23_08h00.29.891,bars,2023.2.3,Win32,59.17159763,657b66ea316d21385b68909f,,,,,,,,,,,1744.4177,1745.4078,,,1745.9078,1746.1577,,45,225,,,,,,,,,,,,,,,,bars/019.png,bars/mask005.png,,,,,,,,,,,,3,1,,,,,,,4,10,3,10,,,,,,,,,,,1745.4078,1745.9077,1746.1578,1749.4571,space,3.2807,,1749.4572,0,60,1750.4575,1750.4575,1750.4668,,,,0,32,32,32,1,45,105,,,,,,,,
,,6132965ccc912bb9b4a5c3e5,65af55cd97d7ed799e101c6b,2024-01-23_08h00.29.891,bars,2023.2.3,Win32,59.17159763,657b66ea316d21385b68909f,,,,,,,,,,,1750.4669,1751.4574,,,1751.957,1752.2072,,5,5,,,,,,,,,,,,,,,,bars/044.png,bars/mask001.png,,,,,,,,,,,,0,2,,,,,,,2,10,4,10,,,,,,,,,,,1751.4574,1751.957,1752.2072,1754.7752,space,2.5525,,1754.7754,70,30,1755.7742,1755.7742,1755.785,,,,0,33,33,33,1,75,155,,,,,,,,
,,6132965ccc912bb9b4a5c3e5,65af55cd97d7ed799e101c6b,2024-01-23_08h00.29.891,bars,2023.2.3,Win32,59.17159763,657b66ea316d21385b68909f,,,,,,,,,,,1755.7852,1756.7737,,,1757.2739,1757.5242,,40,220,,,,,,,,,,,,,,,,bars/001.png,bars/mask008.png,,,,,,,,,,,,0,2,,,,,,,0,8,0,8,,,,,,,,,,,1756.7738,1757.2739,1757.5242,1759.8082,space,2.2682,,1759.8082,90,45,1760.8077,1760.8077,1760.8177,,,,0,34,34,34,1,130,85,,,,,,,,
,,6132965ccc912bb9b4a5c3e5,65af55cd97d7ed799e101c6b,2024-01-23_08h00.29.891,bars,2023.2.3,Win32,59.17159763,657b66ea316d21385b68909f,,,,,,,,,,,1760.8178,1761.8085,,,1762.3093,1762.5594,,7,7,,,,,,,,,,,,,,,,bars/025.png,bars/mask009.png,,,,,,,,,,,,0,2,,,,,,,2,6,2,6,,,,,,,,,,,1761.8086,1762.3091,1762.5596,1766.324,space,3.7505,,1766.324,82,33,1767.3245,1767.3246,1767.3323,,,,0,35,35,35,1,105,40,,,,,,,,
,,6132965ccc912bb9b4a5c3e5,65af55cd97d7ed799e101c6b,2024-01-23_08h00.29.891,bars,2023.2.3,Win32,59.17159763,657b66ea316d21385b68909f,,,,,,,,,,,1767.3323,1768.3239,,,1768.8239,1769.074,,45,45,,,,,,,,,,,,,,,,bars/036.png,bars/mask006.png,,,,,,,,,,,,1,2,,,,,,,4,4,4,4,,,,,,,,,,,1768.3239,1768.8239,1769.0742,1771.4574,space,2.3654,,1771.4575,80,25,1772.4574,1772.4574,1772.4584,,,,0,36,36,36,1,145,20,,,,,,,,
,,6132965ccc912bb9b4a5c3e5,65af55cd97d7ed799e101c6b,2024-01-23_08h00.29.891,bars,2023.2.3,Win32,59.17159763,657b66ea316d21385b68909f,,,,,,,,,,,1772.4591,1773.4594,,,1773.9571,1774.2071,,6,6,,,,,,,,,,,,,,,,bars/004.png,bars/mask001.png,,,,,,,,,,,,1,1,,,,,,,2,6,3,8,,,,,,,,,,,1773.4595,1773.9571,1774.2071,1778.5423,space,4.3173,,1778.5424,19,61,1779.5406,1779.5406,1779.5485,,,,0,37,37,37,1,25,125,,,,,,,,
,,6132965ccc912bb9b4a5c3e5,65af55cd97d7ed799e101c6b,2024-01-23_08h00.29.891,bars,2023.2.3,Win32,59.17159763,657b66ea316d21385b68909f,,,,,,,,,,,1779.5486,1780.5408,,,1781.0408,1781.291,,29,209,,,,,,,,,,,,,,,,bars/017.png,bars/mask008.png,,,,,,,,,,,,3,2,,,,,,,4,8,4,7,,,,,,,,,,,1780.5408,1781.0408,1781.291,1783.3241,space,2.019,,1783.3242,64,16,1784.3237,1784.3237,1784.3262,,,,0,38,38,38,1,145,45,,,,,,,,
,,6132965ccc912bb9b4a5c3e5,65af55cd97d7ed799e101c6b,2024-01-23_08h00.29.891,bars,2023.2.3,Win32,59.17159763,657b66ea316d21385b68909f,,,,,,,,,,,1784.3264,1785.3242,,,1785.8248,1786.0739,,4,4,,,,,,,,,,,,,,,,bars/002.png,bars/mask002.png,,,,,,,,,,,,0,1,,,,,,,6,10,5,10,,,,,,,,,,,1785.3243,1785.8248,1786.0739,1790.2239,space,4.1347,,1790.2239,54,81,1791.2252,1791.2253,1791.2345,,,,0,39,39,39,1,130,85,,,,,,,,
,,6132965ccc912bb9b4a5c3e5,65af55cd97d7ed799e101c6b,2024-01-23_08h00.29.891,bars,2023.2.3,Win32,59.17159763,657b66ea316d21385b68909f,,,,,,,,,,,1791.2347,1792.225,,,1792.724,1792.974,,168,168,,,,,,,,,,,,,,,,bars/026.png,bars/mask004.png,,,,,,,,,,,,0,1,,,,,,,8,8,6,8,,,,,,,,,,,1792.2252,1792.724,1792.974,1795.6913,space,2.7027,,1795.6914,47,83,1796.6908,1796.6908,1796.692,,,,0,40,40,40,1,35,85,,,,,,,,
,,6132965ccc912bb9b4a5c3e5,65af55cd97d7ed799e101c6b,2024-01-23_08h00.29.891,bars,2023.2.3,Win32,59.17159763,657b66ea316d21385b68909f,,,,,,,,,,,1796.6923,1797.6911,,,1798.1906,1798.4407,,143,-37,,,,,,,,,,,,,,,,bars/049.png,bars/mask008.png,,,,,,,,,,,,2,1,,,,,,,6,6,5,6,,,,,,,,,,,1797.6912,1798.1906,1798.4407,1800.4407,space,1.983,,1800.4407,17,28,1801.4414,1801.4415,1801.4489,,,,0,41,41,41,1,160,115,,,,,,,,
,,6132965ccc912bb9b4a5c3e5,65af55cd97d7ed799e101c6b,2024-01-23_08h00.29.891,bars,2023.2.3,Win32,59.17159763,657b66ea316d21385b68909f,,,,,,,,,,,1801.449,1802.4403,,,1802.9415,1803.1905,,169,169,,,,,,,,,,,,,,,,bars/017.png,bars/mask008.png,,,,,,,,,,,,1,1,,,,,,,4,8,6,7,,,,,,,,,,,1802.4403,1802.9413,1803.1905,1805.491,space,2.2851,,1805.4911,24,56,1806.4904,1806.4904,1806.4921,,,,0,42,42,42,1,145,45,,,,,,,,
,,6132965ccc912bb9b4a5c3e5,65af55cd97d7ed799e101c6b,2024-01-23_08h00.29.891,bars,2023.2.3,Win32,59.17159763,657b66ea316d21385b68909f,,,,,,,,,,,1806.4925,1807.4923,,,1807.9919,1808.2405,,52,52,,,,,,,,,,,,,,,,bars/023.png,bars/mask001.png,,,,,,,,,,,,0,1,,,,,,,6,10,5,9,,,,,,,,,,,1807.4924,1807.9918,1808.2406,1812.8737,space,4.618,,1812.8737,32,63,1813.8751,1813.8753,1813.8854,,,,0,43,43,43,1,20,115,,,,,,,,
,,6132965ccc912bb9b4a5c3e5,65af55cd97d7ed799e101c6b,2024-01-23_08h00.29.891,bars,2023.2.3,Win32,59.17159763,657b66ea316d21385b68909f,,,,,,,,,,,1813.8854,1814.874,,,1815.374,1815.6238,,174,174,,,,,,,,,,,,,,,,bars/016.png,bars/mask007.png,,,,,,,,,,,,4,2,,,,,,,4,8,4,6,,,,,,,,,,,1814.8741,1815.3739,1815.6238,1818.4571,space,2.8139,,1818.4572,46,9,1819.4576,1819.4577,1819.4668,,,,0,44,44,44,1,40,165,,,,,,,,
,,6132965ccc912bb9b4a5c3e5,65af55cd97d7ed799e101c6b,2024-01-23_08h00.29.891,bars,2023.2.3,Win32,59.17159763,657b66ea316d21385b68909f,,,,,,,,,,,1819.467,1820.457,,,1820.957,1821.2072,,19,19,,,,,,,,,,,,,,,,bars/018.png,bars/mask006.png,,,,,,,,,,,,0,1,,,,,,,6,10,6,8,,,,,,,,,,,1820.457,1820.957,1821.2072,1825.4568,space,4.2345,,1825.4569,49,71,1826.4571,1826.4572,1826.4673,,,,0,45,45,45,1,150,90,,,,,,,,
,,6132965ccc912bb9b4a5c3e5,65af55cd97d7ed799e101c6b,2024-01-23_08h00.29.891,bars,2023.2.3,Win32,59.17159763,657b66ea316d21385b68909f,,,,,,,,,,,1826.4674,1827.4572,,,1827.9577,1828.2079,,48,228,,,,,,,,,,,,,,,,bars/040.png,bars/mask008.png,,,,,,,,,,,,0,2,,,,,,,8,10,9,10,,,,,,,,,,,1827.4572,1827.9577,1828.2081,1831.6942,space,3.4721,,1831.6942,88,43,1832.6906,1832.6906,1832.7016,,,,0,46,46,46,1,140,5,,,,,,,,
,,6132965ccc912bb9b4a5c3e5,65af55cd97d7ed799e101c6b,2024-01-23_08h00.29.891,bars,2023.2.3,Win32,59.17159763,657b66ea316d21385b68909f,,,,,,,,,,,1832.7017,1833.6902,,,1834.1906,1834.4403,,142,-38,,,,,,,,,,,,,,,,bars/009.png,bars/mask008.png,,,,,,,,,,,,0,2,,,,,,,10,8,10,8,,,,,,,,,,,1833.6903,1834.1906,1834.4403,1836.89,space,2.4345,,1836.8902,53,37,1837.8909,1837.8909,1837.8981,,,,0,47,47,47,1,15,105,,,,,,,,
,,6132965ccc912bb9b4a5c3e5,65af55cd97d7ed799e101c6b,2024-01-23_08h00.29.891,bars,2023.2.3,Win32,59.17159763,657b66ea316d21385b68909f,,,,,,,,,,,1837.8983,1838.8906,,,1839.39,1839.6404,,1,1,,,,,,,,,,,,,,,,bars/038.png,bars/mask006.png,,,,,,,,,,,,5,1,,,,,,,10,6,10,7,,,,,,,,,,,1838.8908,1839.39,1839.6405,1844.1903,space,4.5308,,1844.1903,16,69,1845.1906,1845.1907,1845.202,,,,0,48,48,48,1,165,70,,,,,,,,
,,6132965ccc912bb9b4a5c3e5,65af55cd97d7ed799e101c6b,2024-01-23_08h00.29.891,bars,2023.2.3,Win32,59.17159763,657b66ea316d21385b68909f,,,,,,,,,,,1845.2022,1846.1909,,,1846.6905,1846.9409,,109,109,,,,,,,,,,,,,,,,bars/041.png,bars/mask004.png,,,,,,,,,,,,1,2,,,,,,,8,8,8,7,,,,,,,,,,,1846.191,1846.6904,1846.941,1850.6236,space,3.6689,,1850.6238,89,24,1851.6238,1851.6239,1851.6323,,,,0,49,49,49,1,20,85,,,,,,,,
,,6132965ccc912bb9b4a5c3e5,65af55cd97d7ed799e101c6b,2024-01-23_08h00.29.891,bars,2023.2.3,Win32,59.17159763,657b66ea316d21385b68909f,,,,,,,,,,,,,,,,,,,,,,,,,,,,,,,,,,,,,,,,,,,,,,,,,,,,,,,,,,,,,,,,,,,,,,,,,,,,,,,,,,,,,,,,,,,,,1851.6323,1911.6372,0,3,3,0,1,sequence_tables/blk032.csv
,,6132965ccc912bb9b4a5c3e5,65af55cd97d7ed799e101c6b,2024-01-23_08h00.29.891,bars,2023.2.3,Win32,59.17159763,657b66ea316d21385b68909f,,,,,,,,,,,1923.2657,1924.2565,,,1924.7569,1925.0068,,35,35,,,,,,,,,,,,,,,,bars/048.png,bars/mask008.png,,,,,,,,,,,,3,1,,,,,,,5,9,5,7,,,,,,1911.6477,1923.254,space,11.596,,1924.2565,1924.7569,1925.0069,1926.2898,space,1.2678,,1926.2898,15,40,1927.2897,1927.2897,1927.2976,,,,0,0,0,0,1,50,175,,,,,,,,
,,6132965ccc912bb9b4a5c3e5,65af55cd97d7ed799e101c6b,2024-01-23_08h00.29.891,bars,2023.2.3,Win32,59.17159763,657b66ea316d21385b68909f,,,,,,,,,,,1927.2977,1928.2901,,,1928.7798,1929.0193,,117,117,,,,,,,,,,,,,,,,bars/035.png,bars/mask003.png,,,,,,,,,,,,0,2,,,,,,,7,7,10,5,,,,,,,,,,,1928.2902,1928.7797,1929.0194,1930.6716,space,1.6354,,1930.6716,58,57,1931.6675,1931.6675,1931.6793,,,,0,1,1,1,1,175,60,,,,,,,,
,,6132965ccc912bb9b4a5c3e5,65af55cd97d7ed799e101c6b,2024-01-23_08h00.29.891,bars,2023.2.3,Win32,59.17159763,657b66ea316d21385b68909f,,,,,,,,,,,1931.6794,1932.6693,,,1933.1633,1933.4173,,32,32,,,,,,,,,,,,,,,,bars/018.png,bars/mask001.png,,,,,,,,,,,,0,2,,,,,,,5,5,6,3,,,,,,,,,,,1932.6693,1933.1632,1933.4174,1936.7042,space,3.2676,,1936.7042,62,58,1937.7007,1937.7008,1937.712,,,,0,2,2,2,1,150,90,,,,,,,,
,,6132965ccc912bb9b4a5c3e5,65af55cd97d7ed799e101c6b,2024-01-23_08h00.29.891,bars,2023.2.3,Win32,59.17159763,657b66ea316d21385b68909f,,,,,,,,,,,1937.7121,1938.703,,,1939.1951,1939.4359,,74,74,,,,,,,,,,,,,,,,bars/031.png,bars/mask008.png,,,,,,,,,,,,0,2,,,,,,,7,3,6,6,,,,,,,,,,,1938.7031,1939.195,1939.4359,1941.8549,space,2.4049,,1941.8549,46,39,1942.8527,1942.8528,1942.8624,,,,0,3,3,3,1,120,35,,,,,,,,
,,6132965ccc912bb9b4a5c3e5,65af55cd97d7ed799e101c6b,2024-01-23_08h00.29.891,bars,2023.2.3,Win32,59.17159763,657b66ea316d21385b68909f,,,,,,,,,,,1942.8625,1943.8541,,,1944.3524,1944.6036,,90,90,,,,,,,,,,,,,,,,bars/040.png,bars/mask007.png,,,,,,,,,,,,0,1,,,,,,,9,5,9,6,,,,,,,,,,,1943.8543,1944.3523,1944.6037,1946.7867,space,2.1677,,1946.7867,50,85,1947.779,1947.779,1947.7874,,,,0,4,4,4,1,140,5,,,,,,,,
,,6132965ccc912bb9b4a5c3e5,65af55cd97d7ed799e101c6b,2024-01-23_08h00.29.891,bars,2023.2.3,Win32,59.17159763,657b66ea316d21385b68909f,,,,,,,,,,,1947.7876,1948.7844,,,1949.2863,1949.5369,,51,51,,,,,,,,,,,,,,,,bars/005.png,bars/mask005.png,,,,,,,,,,,,0,1,,,,,,,10,7,9,6,,,,,,,,,,,1948.7845,1949.2863,1949.5369,1951.6709,space,2.1183,,1951.6709,41,89,1952.6678,1952.6679,1952.6786,,,,0,5,5,5,1,10,140,,,,,,,,
,,6132965ccc912bb9b4a5c3e5,65af55cd97d7ed799e101c6b,2024-01-23_08h00.29.891,bars,2023.2.3,Win32,59.17159763,657b66ea316d21385b68909f,,,,,,,,,,,1952.6787,1953.6702,,,1954.1698,1954.4201,,86,86,,,,,,,,,,,,,,,,bars/019.png,bars/mask004.png,,,,,,,,,,,,1,2,,,,,,,8,5,7,4,,,,,,,,,,,1953.6703,1954.1695,1954.4201,1957.1535,space,2.718,,1957.1535,41,19,1958.1526,1958.1526,1958.1643,,,,0,6,6,6,1,45,105,,,,,,,,
,,6132965ccc912bb9b4a5c3e5,65af55cd97d7ed799e101c6b,2024-01-23_08h00.29.891,bars,2023.2.3,Win32,59.17159763,657b66ea316d21385b68909f,,,,,,,,,,,1958.1644,1959.1566,,,1959.6567,1959.9066,,175,175,,,,,,,,,,,,,,,,bars/040.png,bars/mask007.png,,,,,,,,,,,,5,2,,,,,,,6,7,6,8,,,,,,,,,,,1959.1568,1959.6567,1959.9067,1962.2396,space,2.3176,,1962.2398,35,10,1963.2396,1963.2396,1963.2472,,,,0,7,7,7,1,140,5,,,,,,,,
,,6132965ccc912bb9b4a5c3e5,65af55cd97d7ed799e101c6b,2024-01-23_08h00.29.891,bars,2023.2.3,Win32,59.17159763,657b66ea316d21385b68909f,,,,,,,,,,,1963.2472,1964.2365,,,1964.7363,1964.9865,,165,165,,,,,,,,,,,,,,,,bars/007.png,bars/mask009.png,,,,,,,,,,,,6,1,,,,,,,8,5,9,6,,,,,,,,,,,1964.2365,1964.7363,1964.9865,1967.6205,space,2.6184,,1967.6205,10,70,1968.6195,1968.6195,1968.6295,,,,0,8,8,8,1,175,55,,,,,,,,
,,6132965ccc912bb9b4a5c3e5,65af55cd97d7ed799e101c6b,2024-01-23_08h00.29.891,bars,2023.2.3,Win32,59.17159763,657b66ea316d21385b68909f,,,,,,,,,,,1968.6297,1969.6197,,,1970.1193,1970.3692,,140,140,,,,,,,,,,,,,,,,bars/035.png,bars/mask002.png,,,,,,,,,,,,0,1,,,,,,,10,7,10,8,,,,,,,,,,,1969.6198,1970.1193,1970.3692,1972.4867,space,2.1031,,1972.4867,35,80,1973.4863,1973.4863,1973.4871,,,,0,9,9,9,1,175,60,,,,,,,,
,,6132965ccc912bb9b4a5c3e5,65af55cd97d7ed799e101c6b,2024-01-23_08h00.29.891,bars,2023.2.3,Win32,59.17159763,657b66ea316d21385b68909f,,,,,,,,,,,1973.4874,1974.4859,,,1974.9865,1975.2306,,61,61,,,,,,,,,,,,,,,,bars/016.png,bars/mask000.png,,,,,,,,,,,,2,1,,,,,,,8,9,8,9,,,,,,,,,,,1974.4859,1974.9865,1975.2307,1977.8706,space,2.6181,,1977.8706,21,76,1978.8691,1978.8691,1978.8792,,,,0,10,10,10,1,40,165,,,,,,,,
,,6132965ccc912bb9b4a5c3e5,65af55cd97d7ed799e101c6b,2024-01-23_08h00.29.891,bars,2023.2.3,Win32,59.17159763,657b66ea316d21385b68909f,,,,,,,,,,,1978.8793,1979.8709,,,1980.3702,1980.6199,,167,167,,,,,,,,,,,,,,,,bars/038.png,bars/mask008.png,,,,,,,,,,,,5,1,,,,,,,6,10,5,10,,,,,,,,,,,1979.8709,1980.3702,1980.6199,1982.6867,space,2.051,,1982.6867,2,83,1983.6837,1983.6838,1983.6843,,,,0,11,11,11,1,165,70,,,,,,,,
