init_variables.started,init_variables.stopped,participant,session,date,expName,psychopyVersion,OS,frameRate,study_id,instruction_exp.started,instruction_exp.stopped,key_resp_8.keys,key_resp_8.rt,key_resp_8.duration,instruction_single.started,instruction_single.stopped,key_resp_2.keys,key_resp_2.rt,key_resp_2.duration,interval.started,interval.stopped,cue_single.started,cue_single.stopped,mask.started,mask.stopped,ori_response_single.started,res_ori,res,ori_response_single.stopped,key_resp_single.keys,key_resp_single.rt,key_resp_single.duration,disp_single.started,disp_single.stopped,key_resp.keys,key_resp.rt,key_resp.duration,single.thisRepN,single.thisTrialN,single.thisN,single.thisIndex,single.ran,ori,path,mask_path,instruction_bandit.started,instruction_bandit.stopped,key_resp_6.keys,key_resp_6.rt,key_resp_6.duration,cue_bandit.started,cue_bandit.stopped,bandit_res.keys,bandit_res.rt,bandit_res.duration,outcome_bandit.started,rew,action,outcome_bandit.stopped,bandit.thisRepN,bandit.thisTrialN,bandit.thisN,bandit.thisIndex,bandit.ran,actual_rew1,actual_rew2,rew1,rew2,instruction_task.started,instruction_task.stopped,key_resp_7.keys,key_resp_7.rt,key_resp_7.duration,wait_ready.started,wait_ready.stopped,key_resp_3.keys,key_resp_3.rt,key_resp_3.duration,cue.started,cue.stopped,ori_response.started,ori_response.stopped,key_resp_5.keys,key_resp_5.rt,key_resp_5.duration,outcome.started,diff1,diff2,outcome.stopped,disp_outcome_practice.started,disp_outcome_practice.stopped,key_resp_4.keys,key_resp_4.rt,key_resp_4.duration,trials.thisRepN,trials.thisTrialN,trials.thisN,trials.thisIndex,trials.ran,ori1,ori2,break_blk.started,break_blk.stopped,block.thisRepN,block.thisTrialN,block.thisN,block.thisIndex,block.ran,condition_file
0.0002,0.0003,5d33ff76f665c6001ab9aa1e,65af538d60bcc53ab4af7bc0,2024-01-23_07h51.23.036,bars,2023.2.3,Win32,59.88023952,657b66ea316d21385b68909f,,,,,,,,,,,,,,,,,,,,,,,,,,,,,,,,,,,,,,,,,,,,,,,,,,,,,,,,,,,,,,,,,,,,,,,,,,,,,,,,,,,,,,,,,,,,,,,,,,,,
,,5d33ff76f665c6001ab9aa1e,65af538d60bcc53ab4af7bc0,2024-01-23_07h51.23.036,bars,2023.2.3,Win32,59.88023952,657b66ea316d21385b68909f,0.0004,8.6111,y,8.6003,,,,,,,,,,,,,,,,,,,,,,,,,,,,,,,,,,,,,,,,,,,,,,,,,,,,,,,,,,,,,,,,,,,,,,,,,,,,,,,,,,,,,,,,,,,,,,,,
,,5d33ff76f665c6001ab9aa1e,65af538d60bcc53ab4af7bc0,2024-01-23_07h51.23.036,bars,2023.2.3,Win32,59.88023952,657b66ea316d21385b68909f,,,,,,8.6113,33.0909,space,24.4576,,,,,,,,,,,,,,,,,,,,,,,,,,,,,,,,,,,,,,,,,,,,,,,,,,,,,,,,,,,,,,,,,,,,,,,,,,,,,,,,,,,,,,,,,,,
,,5d33ff76f665c6001ab9aa1e,65af538d60bcc53ab4af7bc0,2024-01-23_07h51.23.036,bars,2023.2.3,Win32,59.88023952,657b66ea316d21385b68909f,,,,,,,,,,,33.0956,34.0926,34.0929,34.5912,34.5914,34.8414,34.8415,47,47,39.6262,space,4.7516,,39.6262,46.1806,space,6.528,,0,0,0,5,1,55,bars/single005.png,bars/mask008.png,,,,,,,,,,,,,,,,,,,,,,,,,,,,,,,,,,,,,,,,,,,,,,,,,,,,,,,,,,,,,,,,
,,5d33ff76f665c6001ab9aa1e,65af538d60bcc53ab4af7bc0,2024-01-23_07h51.23.036,bars,2023.2.3,Win32,59.88023952,657b66ea316d21385b68909f,,,,,,,,,,,46.2057,47.1955,47.1957,47.6958,47.6958,47.9456,47.9456,47,47,49.6799,space,1.7017,,49.68,51.642,space,1.9351,,0,1,1,7,1,45,bars/single007.png,bars/mask009.png,,,,,,,,,,,,,,,,,,,,,,,,,,,,,,,,,,,,,,,,,,,,,,,,,,,,,,,,,,,,,,,,
,,5d33ff76f665c6001ab9aa1e,65af538d60bcc53ab4af7bc0,2024-01-23_07h51.23.036,bars,2023.2.3,Win32,59.88023952,657b66ea316d21385b68909f,,,,,,,,,,,51.6435,52.647,52.647,53.1404,53.1406,53.3806,53.3807,162,162,55.9815,space,2.572,,55.9815,59.469,space,3.4609,,0,2,2,0,1,150,bars/single000.png,bars/mask006.png,,,,,,,,,,,,,,,,,,,,,,,,,,,,,,,,,,,,,,,,,,,,,,,,,,,,,,,,,,,,,,,,
,,5d33ff76f665c6001ab9aa1e,65af538d60bcc53ab4af7bc0,2024-01-23_07h51.23.036,bars,2023.2.3,Win32,59.88023952,657b66ea316d21385b68909f,,,,,,,,,,,59.4958,60.483,60.483,60.9831,60.9831,61.233,61.233,31,31,64.0176,space,2.752,,64.0177,65.3788,space,1.3205,,0,3,3,3,1,20,bars/single003.png,bars/mask005.png,,,,,,,,,,,,,,,,,,,,,,,,,,,,,,,,,,,,,,,,,,,,,,,,,,,,,,,,,,,,,,,,
,,5d33ff76f665c6001ab9aa1e,65af538d60bcc53ab4af7bc0,2024-01-23_07h51.23.036,bars,2023.2.3,Win32,59.88023952,657b66ea316d21385b68909f,,,,,,,,,,,65.3795,66.3682,66.3682,66.8781,66.8782,67.1184,67.1184,158,158,69.108,space,1.9629,,69.1081,70.2862,space,1.1554,,0,4,4,8,1,160,bars/single008.png,bars/mask004.png,,,,,,,,,,,,,,,,,,,,,,,,,,,,,,,,,,,,,,,,,,,,,,,,,,,,,,,,,,,,,,,,
,,5d33ff76f665c6001ab9aa1e,65af538d60bcc53ab4af7bc0,2024-01-23_07h51.23.036,bars,2023.2.3,Win32,59.88023952,657b66ea316d21385b68909f,,,,,,,,,,,70.2868,71.2856,71.2857,71.7858,71.7859,72.0365,72.0365,91,91,74.4041,space,2.3353,,74.4042,75.482,space,1.051,,0,5,5,4,1,95,bars/single004.png,bars/mask004.png,,,,,,,,,,,,,,,,,,,,,,,,,,,,,,,,,,,,,,,,,,,,,,,,,,,,,,,,,,,,,,,,
,,5d33ff76f665c6001ab9aa1e,65af538d60bcc53ab4af7bc0,2024-01-23_07h51.23.036,bars,2023.2.3,Win32,59.88023952,657b66ea316d21385b68909f,,,,,,,,,,,75.4826,76.4712,76.4712,76.9714,76.9716,77.2215,77.2216,139,139,81.4726,space,4.2186,,81.4727,82.4566,space,0.9517,,0,6,6,2,1,145,bars/single002.png,bars/mask003.png,,,,,,,,,,,,,,,,,,,,,,,,,,,,,,,,,,,,,,,,,,,,,,,,,,,,,,,,,,,,,,,,
,,5d33ff76f665c6001ab9aa1e,65af538d60bcc53ab4af7bc0,2024-01-23_07h51.23.036,bars,2023.2.3,Win32,59.88023952,657b66ea316d21385b68909f,,,,,,,,,,,82.4575,83.4486,83.4486,83.9396,83.9396,84.1903,84.1903,29,29,86.1243,space,1.9017,,86.1243,87.0748,space,0.9179,,0,7,7,1,1,20,bars/single001.png,bars/mask006.png,,,,,,,,,,,,,,,,,,,,,,,,,,,,,,,,,,,,,,,,,,,,,,,,,,,,,,,,,,,,,,,,
,,5d33ff76f665c6001ab9aa1e,65af538d60bcc53ab4af7bc0,2024-01-23_07h51.23.036,bars,2023.2.3,Win32,59.88023952,657b66ea316d21385b68909f,,,,,,,,,,,87.0755,88.0747,88.0748,88.5749,88.575,88.8251,88.8251,24,24,90.1197,space,1.2679,,90.1197,90.9925,space,0.8513,,0,8,8,9,1,20,bars/single009.png,bars/mask006.png,,,,,,,,,,,,,,,,,,,,,,,,,,,,,,,,,,,,,,,,,,,,,,,,,,,,,,,,,,,,,,,,
,,5d33ff76f665c6001ab9aa1e,65af538d60bcc53ab4af7bc0,2024-01-23_07h51.23.036,bars,2023.2.3,Win32,59.88023952,657b66ea316d21385b68909f,,,,,,,,,,,90.9935,91.9926,91.9927,92.4928,92.4929,92.7429,92.7429,0,180,94.4043,space,1.6347,,94.4044,95.1271,space,0.7018,,0,9,9,6,1,175,bars/single006.png,bars/mask005.png,,,,,,,,,,,,,,,,,,,,,,,,,,,,,,,,,,,,,,,,,,,,,,,,,,,,,,,,,,,,,,,,
,,5d33ff76f665c6001ab9aa1e,65af538d60bcc53ab4af7bc0,2024-01-23_07h51.23.036,bars,2023.2.3,Win32,59.88023952,657b66ea316d21385b68909f,,,,,,,,,,,,,,,,,,,,,,,,,,,,,,,,,,,,,95.1288,112.6338,space,17.4728,,,,,,,,,,,,,,,,,,,,,,,,,,,,,,,,,,,,,,,,,,,,,,,,,,,,,,,,,,,,
,,5d33ff76f665c6001ab9aa1e,65af538d60bcc53ab4af7bc0,2024-01-23_07h51.23.036,bars,2023.2.3,Win32,59.88023952,657b66ea316d21385b68909f,,,,,,,,,,,,,,,,,,,,,,,,,,,,,,,,,,,,,,,,,,112.66,114.8678,left,2.1746,,114.8682,9,1,115.8668,0,0,0,0,1,9,1,9,2,,,,,,,,,,,,,,,,,,,,,,,,,,,,,,,,,,,,,,,,,
,,5d33ff76f665c6001ab9aa1e,65af538d60bcc53ab4af7bc0,2024-01-23_07h51.23.036,bars,2023.2.3,Win32,59.88023952,657b66ea316d21385b68909f,,,,,,,,,,,,,,,,,,,,,,,,,,,,,,,,,,,,,,,,,,115.8679,116.6672,left,0.781,,116.6673,10,1,117.6674,0,1,1,1,1,10,0,10,1,,,,,,,,,,,,,,,,,,,,,,,,,,,,,,,,,,,,,,,,,
,,5d33ff76f665c6001ab9aa1e,65af538d60bcc53ab4af7bc0,2024-01-23_07h51.23.036,bars,2023.2.3,Win32,59.88023952,657b66ea316d21385b68909f,,,,,,,,,,,,,,,,,,,,,,,,,,,,,,,,,,,,,,,,,,117.6682,118.3844,right,0.7,,118.3845,2,2,119.3844,0,2,2,2,1,10,2,10,2,,,,,,,,,,,,,,,,,,,,,,,,,,,,,,,,,,,,,,,,,
,,5d33ff76f665c6001ab9aa1e,65af538d60bcc53ab4af7bc0,2024-01-23_07h51.23.036,bars,2023.2.3,Win32,59.88023952,657b66ea316d21385b68909f,,,,,,,,,,,,,,,,,,,,,,,,,,,,,,,,,,,,,,,,,,119.385,119.935,left,0.5348,,119.935,7,1,120.9351,0,3,3,3,1,8,4,7,3,,,,,,,,,,,,,,,,,,,,,,,,,,,,,,,,,,,,,,,,,
,,5d33ff76f665c6001ab9aa1e,65af538d60bcc53ab4af7bc0,2024-01-23_07h51.23.036,bars,2023.2.3,Win32,59.88023952,657b66ea316d21385b68909f,,,,,,,,,,,,,,,,,,,,,,,,,,,,,,,,,,,,,,,,,,120.9357,121.5187,right,0.5642,,121.5188,1,2,122.5187,0,4,4,4,1,6,2,5,1,,,,,,,,,,,,,,,,,,,,,,,,,,,,,,,,,,,,,,,,,
,,5d33ff76f665c6001ab9aa1e,65af538d60bcc53ab4af7bc0,2024-01-23_07h51.23.036,bars,2023.2.3,Win32,59.88023952,657b66ea316d21385b68909f,,,,,,,,,,,,,,,,,,,,,,,,,,,,,,,,,,,,,,,,,,122.5193,123.0523,left,0.5208,,123.0525,4,1,124.0525,0,5,5,5,1,4,4,4,4,,,,,,,,,,,,,,,,,,,,,,,,,,,,,,,,,,,,,,,,,
,,5d33ff76f665c6001ab9aa1e,65af538d60bcc53ab4af7bc0,2024-01-23_07h51.23.036,bars,2023.2.3,Win32,59.88023952,657b66ea316d21385b68909f,,,,,,,,,,,,,,,,,,,,,,,,,,,,,,,,,,,,,,,,,,124.0531,124.6862,left,0.6184,,124.6864,1,1,125.6864,0,6,6,6,1,2,2,1,2,,,,,,,,,,,,,,,,,,,,,,,,,,,,,,,,,,,,,,,,,
,,5d33ff76f665c6001ab9aa1e,65af538d60bcc53ab4af7bc0,2024-01-23_07h51.23.036,bars,2023.2.3,Win32,59.88023952,657b66ea316d21385b68909f,,,,,,,,,,,,,,,,,,,,,,,,,,,,,,,,,,,,,,,,,,125.687,126.1369,right,0.4311,,126.137,1,2,127.1369,0,7,7,7,1,0,0,0,1,,,,,,,,,,,,,,,,,,,,,,,,,,,,,,,,,,,,,,,,,
,,5d33ff76f665c6001ab9aa1e,65af538d60bcc53ab4af7bc0,2024-01-23_07h51.23.036,bars,2023.2.3,Win32,59.88023952,657b66ea316d21385b68909f,,,,,,,,,,,,,,,,,,,,,,,,,,,,,,,,,,,,,,,,,,127.1375,127.5208,left,0.3661,,127.521,1,1,128.5207,0,8,8,8,1,0,2,1,0,,,,,,,,,,,,,,,,,,,,,,,,,,,,,,,,,,,,,,,,,
,,5d33ff76f665c6001ab9aa1e,65af538d60bcc53ab4af7bc0,2024-01-23_07h51.23.036,bars,2023.2.3,Win32,59.88023952,657b66ea316d21385b68909f,,,,,,,,,,,,,,,,,,,,,,,,,,,,,,,,,,,,,,,,,,128.5214,128.7709,left,0.2306,,128.7709,2,1,129.7711,0,9,9,9,1,2,4,2,3,,,,,,,,,,,,,,,,,,,,,,,,,,,,,,,,,,,,,,,,,
,,5d33ff76f665c6001ab9aa1e,65af538d60bcc53ab4af7bc0,2024-01-23_07h51.23.036,bars,2023.2.3,Win32,59.88023952,657b66ea316d21385b68909f,,,,,,,,,,,,,,,,,,,,,,,,,,,,,,,,,,,,,,,,,,129.7717,130.1048,right,0.316,,130.1048,3,2,131.1048,0,10,10,10,1,0,2,0,3,,,,,,,,,,,,,,,,,,,,,,,,,,,,,,,,,,,,,,,,,
,,5d33ff76f665c6001ab9aa1e,65af538d60bcc53ab4af7bc0,2024-01-23_07h51.23.036,bars,2023.2.3,Win32,59.88023952,657b66ea316d21385b68909f,,,,,,,,,,,,,,,,,,,,,,,,,,,,,,,,,,,,,,,,,,131.1054,131.3884,left,0.2703,,131.3886,0,1,132.3884,0,11,11,11,1,0,4,0,3,,,,,,,,,,,,,,,,,,,,,,,,,,,,,,,,,,,,,,,,,
,,5d33ff76f665c6001ab9aa1e,65af538d60bcc53ab4af7bc0,2024-01-23_07h51.23.036,bars,2023.2.3,Win32,59.88023952,657b66ea316d21385b68909f,,,,,,,,,,,,,,,,,,,,,,,,,,,,,,,,,,,,,,,,,,132.389,132.7055,left,0.2979,,132.7056,1,1,133.7055,0,12,12,12,1,2,6,1,6,,,,,,,,,,,,,,,,,,,,,,,,,,,,,,,,,,,,,,,,,
,,5d33ff76f665c6001ab9aa1e,65af538d60bcc53ab4af7bc0,2024-01-23_07h51.23.036,bars,2023.2.3,Win32,59.88023952,657b66ea316d21385b68909f,,,,,,,,,,,,,,,,,,,,,,,,,,,,,,,,,,,,,,,,,,133.7061,134.156,left,0.4307,,134.1561,1,1,135.1554,0,13,13,13,1,0,4,1,3,,,,,,,,,,,,,,,,,,,,,,,,,,,,,,,,,,,,,,,,,
,,5d33ff76f665c6001ab9aa1e,65af538d60bcc53ab4af7bc0,2024-01-23_07h51.23.036,bars,2023.2.3,Win32,59.88023952,657b66ea316d21385b68909f,,,,,,,,,,,,,,,,,,,,,,,,,,,,,,,,,,,,,,,,,,135.1557,135.4221,right,0.2473,,135.4221,7,2,136.423,0,14,14,14,1,2,6,2,7,,,,,,,,,,,,,,,,,,,,,,,,,,,,,,,,,,,,,,,,,
,,5d33ff76f665c6001ab9aa1e,65af538d60bcc53ab4af7bc0,2024-01-23_07h51.23.036,bars,2023.2.3,Win32,59.88023952,657b66ea316d21385b68909f,,,,,,,,,,,,,,,,,,,,,,,,,,,,,,,,,,,,,,,,,,136.4235,136.756,right,0.319,,136.756,9,2,137.7561,0,15,15,15,1,4,8,3,9,,,,,,,,,,,,,,,,,,,,,,,,,,,,,,,,,,,,,,,,,
,,5d33ff76f665c6001ab9aa1e,65af538d60bcc53ab4af7bc0,2024-01-23_07h51.23.036,bars,2023.2.3,Win32,59.88023952,657b66ea316d21385b68909f,,,,,,,,,,,,,,,,,,,,,,,,,,,,,,,,,,,,,,,,,,137.7563,138.0909,right,0.3164,,138.091,7,2,139.09,0,16,16,16,1,6,6,7,7,,,,,,,,,,,,,,,,,,,,,,,,,,,,,,,,,,,,,,,,,
,,5d33ff76f665c6001ab9aa1e,65af538d60bcc53ab4af7bc0,2024-01-23_07h51.23.036,bars,2023.2.3,Win32,59.88023952,657b66ea316d21385b68909f,,,,,,,,,,,,,,,,,,,,,,,,,,,,,,,,,,,,,,,,,,139.0904,139.4908,right,0.3822,,139.4909,5,2,140.4908,0,17,17,17,1,8,4,9,5,,,,,,,,,,,,,,,,,,,,,,,,,,,,,,,,,,,,,,,,,
,,5d33ff76f665c6001ab9aa1e,65af538d60bcc53ab4af7bc0,2024-01-23_07h51.23.036,bars,2023.2.3,Win32,59.88023952,657b66ea316d21385b68909f,,,,,,,,,,,,,,,,,,,,,,,,,,,,,,,,,,,,,,,,,,140.4913,140.7415,left,0.2308,,140.7416,5,1,141.7412,0,18,18,18,1,6,2,5,1,,,,,,,,,,,,,,,,,,,,,,,,,,,,,,,,,,,,,,,,,
,,5d33ff76f665c6001ab9aa1e,65af538d60bcc53ab4af7bc0,2024-01-23_07h51.23.036,bars,2023.2.3,Win32,59.88023952,657b66ea316d21385b68909f,,,,,,,,,,,,,,,,,,,,,,,,,,,,,,,,,,,,,,,,,,141.7418,142.0586,right,0.2979,,142.0588,0,2,143.0586,0,19,19,19,1,8,0,7,0,,,,,,,,,,,,,,,,,,,,,,,,,,,,,,,,,,,,,,,,,
,,5d33ff76f665c6001ab9aa1e,65af538d60bcc53ab4af7bc0,2024-01-23_07h51.23.036,bars,2023.2.3,Win32,59.88023952,657b66ea316d21385b68909f,,,,,,,,,,,,,,,,,,,,,,,,,,,,,,,,,,,,,,,,,,,,,,,,,,,,,,,,,,,,143.0599,162.7826,space,19.7017,,,,,,,,,,,,,,,,,,,,,,,,,,,,,,,,,,,,,
,,5d33ff76f665c6001ab9aa1e,65af538d60bcc53ab4af7bc0,2024-01-23_07h51.23.036,bars,2023.2.3,Win32,59.88023952,657b66ea316d21385b68909f,,,,,,,,,,,164.7583,165.7487,,,166.2493,166.4991,,99,99,,,,,,,,,,,,,,,,bars/041.png,bars/mask001.png,,,,,,,,,,,,1,2,,,,,,,4,2,4,1,,,,,,162.8145,164.749,space,1.9166,,165.7491,166.2492,166.4995,168.3836,space,1.8396,,168.3841,79,14,169.3835,169.3839,179.2878,space,9.8734,,0,0,0,0,1,20,85,,,,,,,,
,,5d33ff76f665c6001ab9aa1e,65af538d60bcc53ab4af7bc0,2024-01-23_07h51.23.036,bars,2023.2.3,Win32,59.88023952,657b66ea316d21385b68909f,,,,,,,,,,,179.3166,180.3032,,,180.8034,181.0535,,70,70,,,,,,,,,,,,,,,,bars/029.png,bars/mask005.png,,,,,,,,,,,,1,1,,,,,,,2,4,3,3,,,,,,,,,,,180.3032,180.8034,181.0536,183.9602,space,2.8803,,183.9604,20,25,184.9546,184.9548,185.8385,space,0.8359,,0,1,1,1,1,90,45,,,,,,,,
,,5d33ff76f665c6001ab9aa1e,65af538d60bcc53ab4af7bc0,2024-01-23_07h51.23.036,bars,2023.2.3,Win32,59.88023952,657b66ea316d21385b68909f,,,,,,,,,,,185.8393,186.8385,,,187.3388,187.577,,127,127,,,,,,,,,,,,,,,,bars/031.png,bars/mask005.png,,,,,,,,,,,,0,1,,,,,,,0,6,0,6,,,,,,,,,,,186.8386,187.3388,187.577,190.8521,space,3.2527,,190.8522,7,88,191.8401,191.8402,193.4751,space,1.5945,,0,2,2,2,1,120,35,,,,,,,,
,,5d33ff76f665c6001ab9aa1e,65af538d60bcc53ab4af7bc0,2024-01-23_07h51.23.036,bars,2023.2.3,Win32,59.88023952,657b66ea316d21385b68909f,,,,,,,,,,,193.4758,194.4743,,,194.9746,195.2246,,149,149,,,,,,,,,,,,,,,,bars/035.png,bars/mask006.png,,,,,,,,,,,,0,1,,,,,,,2,4,0,5,,,,,,,,,,,194.4744,194.9744,195.2246,197.1086,space,1.8559,,197.1086,26,89,198.1088,198.1088,198.8698,space,0.7195,,0,3,3,3,1,175,60,,,,,,,,
,,5d33ff76f665c6001ab9aa1e,65af538d60bcc53ab4af7bc0,2024-01-23_07h51.23.036,bars,2023.2.3,Win32,59.88023952,657b66ea316d21385b68909f,,,,,,,,,,,198.8704,199.8593,,,200.359,200.6095,,150,150,,,,,,,,,,,,,,,,bars/036.png,bars/mask005.png,,,,,,,,,,,,0,1,,,,,,,0,2,0,3,,,,,,,,,,,199.8593,200.3589,200.6096,203.6102,space,2.9792,,203.6102,5,50,204.6106,204.6106,205.7951,space,1.1489,,0,4,4,4,1,145,20,,,,,,,,
,,5d33ff76f665c6001ab9aa1e,65af538d60bcc53ab4af7bc0,2024-01-23_07h51.23.036,bars,2023.2.3,Win32,59.88023952,657b66ea316d21385b68909f,,,,,,,,,,,205.7958,206.7947,,,207.295,207.545,,48,48,,,,,,,,,,,,,,,,bars/005.png,bars/mask008.png,,,,,,,,,,,,0,1,,,,,,,0,4,0,5,,,,,,,,,,,206.7947,207.2949,207.545,210.34,space,2.7685,,210.3401,38,88,211.3295,211.3296,212.3476,space,0.9812,,0,5,5,5,1,10,140,,,,,,,,
,,5d33ff76f665c6001ab9aa1e,65af538d60bcc53ab4af7bc0,2024-01-23_07h51.23.036,bars,2023.2.3,Win32,59.88023952,657b66ea316d21385b68909f,,,,,,,,,,,212.3483,213.3467,,,213.8474,214.097,,114,114,,,,,,,,,,,,,,,,bars/039.png,bars/mask008.png,,,,,,,,,,,,1,2,,,,,,,0,2,0,1,,,,,,,,,,,213.3467,213.8474,214.0971,216.0915,space,1.9676,,216.0915,61,9,217.0807,217.0808,217.8986,space,0.782,,0,6,6,6,1,175,105,,,,,,,,
,,5d33ff76f665c6001ab9aa1e,65af538d60bcc53ab4af7bc0,2024-01-23_07h51.23.036,bars,2023.2.3,Win32,59.88023952,657b66ea316d21385b68909f,,,,,,,,,,,217.8992,218.8984,,,219.3903,219.632,,109,109,,,,,,,,,,,,,,,,bars/037.png,bars/mask009.png,,,,,,,,,,,,1,2,,,,,,,0,0,1,1,,,,,,,,,,,218.8985,219.3902,219.6321,224.0121,space,4.3538,,224.0122,41,4,225.0004,225.0004,225.8842,space,0.8384,,0,7,7,7,1,150,105,,,,,,,,
,,5d33ff76f665c6001ab9aa1e,65af538d60bcc53ab4af7bc0,2024-01-23_07h51.23.036,bars,2023.2.3,Win32,59.88023952,657b66ea316d21385b68909f,,,,,,,,,,,225.8849,226.8773,,,227.3676,227.6179,,160,160,,,,,,,,,,,,,,,,bars/049.png,bars/mask001.png,,,,,,,,,,,,0,1,,,,,,,0,2,0,2,,,,,,,,,,,226.8773,227.3675,227.6179,230.4296,space,2.8018,,230.4298,0,45,231.4192,231.4194,232.8199,space,1.3422,,0,8,8,8,1,160,115,,,,,,,,
,,5d33ff76f665c6001ab9aa1e,65af538d60bcc53ab4af7bc0,2024-01-23_07h51.23.036,bars,2023.2.3,Win32,59.88023952,657b66ea316d21385b68909f,,,,,,,,,,,232.8207,233.8201,,,234.32,234.5698,,91,91,,,,,,,,,,,,,,,,bars/011.png,bars/mask003.png,,,,,,,,,,,,1,2,,,,,,,2,0,1,1,,,,,,,,,,,233.8202,234.3199,234.5699,238.5708,space,3.9687,,238.5708,69,6,239.5715,239.5716,240.422,space,0.8031,,0,9,9,9,1,160,85,,,,,,,,
,,5d33ff76f665c6001ab9aa1e,65af538d60bcc53ab4af7bc0,2024-01-23_07h51.23.036,bars,2023.2.3,Win32,59.88023952,657b66ea316d21385b68909f,,,,,,,,,,,240.423,241.4217,,,241.9223,242.1723,,175,175,,,,,,,,,,,,,,,,bars/040.png,bars/mask003.png,,,,,,,,,,,,0,2,,,,,,,0,0,0,0,,,,,,,,,,,241.4217,241.9223,242.1724,245.6345,space,3.4359,,245.6345,35,10,246.6237,246.6238,247.4575,space,0.7881,,0,10,10,10,1,140,5,,,,,,,,
,,5d33ff76f665c6001ab9aa1e,65af538d60bcc53ab4af7bc0,2024-01-23_07h51.23.036,bars,2023.2.3,Win32,59.88023952,657b66ea316d21385b68909f,,,,,,,,,,,247.4583,248.4576,,,248.9677,249.2077,,158,-22,,,,,,,,,,,,,,,,bars/033.png,bars/mask004.png,,,,,,,,,,,,3,2,,,,,,,2,2,3,3,,,,,,,,,,,248.4576,248.9677,249.2077,252.009,space,2.7867,,252.009,47,3,253.009,253.009,254.4264,space,1.3712,,0,11,11,11,1,25,155,,,,,,,,
,,5d33ff76f665c6001ab9aa1e,65af538d60bcc53ab4af7bc0,2024-01-23_07h51.23.036,bars,2023.2.3,Win32,59.88023952,657b66ea316d21385b68909f,,,,,,,,,,,254.4271,255.4264,,,255.9266,256.1766,,109,109,,,,,,,,,,,,,,,,bars/019.png,bars/mask001.png,,,,,,,,,,,,0,2,,,,,,,0,0,0,0,,,,,,,,,,,255.4265,255.9265,256.1767,258.8134,space,2.6102,,258.8135,64,4,259.811,259.811,260.6283,space,0.7888,,0,12,12,12,1,45,105,,,,,,,,
,,5d33ff76f665c6001ab9aa1e,65af538d60bcc53ab4af7bc0,2024-01-23_07h51.23.036,bars,2023.2.3,Win32,59.88023952,657b66ea316d21385b68909f,,,,,,,,,,,260.629,261.6381,,,262.1285,262.3786,,46,46,,,,,,,,,,,,,,,,bars/019.png,bars/mask003.png,,,,,,,,,,,,0,1,,,,,,,0,2,0,0,,,,,,,,,,,261.6382,262.1285,262.3787,263.6065,space,1.2015,,263.6066,1,59,264.596,264.596,265.7131,space,1.0852,,0,13,13,13,1,45,105,,,,,,,,
,,5d33ff76f665c6001ab9aa1e,65af538d60bcc53ab4af7bc0,2024-01-23_07h51.23.036,bars,2023.2.3,Win32,59.88023952,657b66ea316d21385b68909f,,,,,,,,,,,265.7139,266.7132,,,267.2136,267.4554,,121,121,,,,,,,,,,,,,,,,bars/019.png,bars/mask005.png,,,,,,,,,,,,2,2,,,,,,,0,4,0,4,,,,,,,,,,,266.7132,267.2135,267.4555,270.2479,space,2.7708,,270.2479,76,16,271.2479,271.248,271.9654,space,0.6804,,0,14,14,14,1,45,105,,,,,,,,
,,5d33ff76f665c6001ab9aa1e,65af538d60bcc53ab4af7bc0,2024-01-23_07h51.23.036,bars,2023.2.3,Win32,59.88023952,657b66ea316d21385b68909f,,,,,,,,,,,271.9664,272.9652,,,273.4653,273.7154,,172,172,,,,,,,,,,,,,,,,bars/005.png,bars/mask002.png,,,,,,,,,,,,1,1,,,,,,,2,2,3,2,,,,,,,,,,,272.9652,273.4653,273.7155,275.1768,space,1.4513,,275.1769,18,32,276.1661,276.1662,276.9995,space,0.7809,,0,15,15,15,1,10,140,,,,,,,,
,,5d33ff76f665c6001ab9aa1e,65af538d60bcc53ab4af7bc0,2024-01-23_07h51.23.036,bars,2023.2.3,Win32,59.88023952,657b66ea316d21385b68909f,,,,,,,,,,,277.0003,278.0169,,,278.5002,278.7503,,35,35,,,,,,,,,,,,,,,,bars/022.png,bars/mask007.png,,,,,,,,,,,,0,2,,,,,,,0,0,0,0,,,,,,,,,,,278.0169,278.5001,278.7504,282.0372,space,3.2603,,282.0373,60,15,283.0348,283.0349,283.7353,space,0.6571,,0,16,16,16,1,95,20,,,,,,,,
,,5d33ff76f665c6001ab9aa1e,65af538d60bcc53ab4af7bc0,2024-01-23_07h51.23.036,bars,2023.2.3,Win32,59.88023952,657b66ea316d21385b68909f,,,,,,,,,,,283.7361,284.7354,,,285.2357,285.4857,,98,98,,,,,,,,,,,,,,,,bars/042.png,bars/mask003.png,,,,,,,,,,,,0,2,,,,,,,0,2,0,2,,,,,,,,,,,284.7355,285.2356,285.4857,288.5476,space,3.0352,,288.5476,47,23,289.5368,289.5369,290.2708,space,0.6895,,0,17,17,17,1,145,75,,,,,,,,
,,5d33ff76f665c6001ab9aa1e,65af538d60bcc53ab4af7bc0,2024-01-23_07h51.23.036,bars,2023.2.3,Win32,59.88023952,657b66ea316d21385b68909f,,,,,,,,,,,290.2716,291.2707,,,291.7709,292.021,,157,-23,,,,,,,,,,,,,,,,bars/008.png,bars/mask007.png,,,,,,,,,,,,0,2,,,,,,,0,4,0,2,,,,,,,,,,,291.2708,291.7708,292.021,294.7384,space,2.7075,,294.7385,47,23,295.7387,295.7387,296.4559,space,0.6712,,0,18,18,18,1,110,0,,,,,,,,
,,5d33ff76f665c6001ab9aa1e,65af538d60bcc53ab4af7bc0,2024-01-23_07h51.23.036,bars,2023.2.3,Win32,59.88023952,657b66ea316d21385b68909f,,,,,,,,,,,296.4566,297.4558,,,297.9563,298.2062,,82,82,,,,,,,,,,,,,,,,bars/021.png,bars/mask005.png,,,,,,,,,,,,5,2,,,,,,,2,6,4,8,,,,,,,,,,,297.4559,297.9562,298.2063,301.2905,space,3.0516,,301.2906,73,12,302.291,302.2911,303.0411,space,0.7041,,0,19,19,19,1,155,70,,,,,,,,
,,5d33ff76f665c6001ab9aa1e,65af538d60bcc53ab4af7bc0,2024-01-23_07h51.23.036,bars,2023.2.3,Win32,59.88023952,657b66ea316d21385b68909f,,,,,,,,,,,303.0419,304.0413,,,304.5417,304.7916,,155,-25,,,,,,,,,,,,,,,,bars/048.png,bars/mask009.png,,,,,,,,,,,,1,2,,,,,,,0,4,0,3,,,,,,,,,,,304.0414,304.5416,304.7917,308.02,space,3.2184,,308.02,75,20,309.0096,309.0097,309.6766,space,0.6252,,0,20,20,20,1,50,175,,,,,,,,
,,5d33ff76f665c6001ab9aa1e,65af538d60bcc53ab4af7bc0,2024-01-23_07h51.23.036,bars,2023.2.3,Win32,59.88023952,657b66ea316d21385b68909f,,,,,,,,,,,309.6774,310.6768,,,311.177,311.4238,,8,8,,,,,,,,,,,,,,,,bars/040.png,bars/mask006.png,,,,,,,,,,,,6,2,,,,,,,2,6,3,7,,,,,,,,,,,310.6768,311.1769,311.4239,312.8109,space,1.3685,,312.811,48,3,313.8109,313.811,314.6282,space,0.8015,,0,21,21,21,1,140,5,,,,,,,,
,,5d33ff76f665c6001ab9aa1e,65af538d60bcc53ab4af7bc0,2024-01-23_07h51.23.036,bars,2023.2.3,Win32,59.88023952,657b66ea316d21385b68909f,,,,,,,,,,,314.629,315.6285,,,316.1286,316.3786,,75,75,,,,,,,,,,,,,,,,bars/007.png,bars/mask006.png,,,,,,,,,,,,3,2,,,,,,,0,8,0,9,,,,,,,,,,,315.6286,316.1285,316.3786,320.3633,space,3.972,,320.3634,80,20,321.3634,321.3635,324.5313,space,3.1267,,0,22,22,22,1,175,55,,,,,,,,
,,5d33ff76f665c6001ab9aa1e,65af538d60bcc53ab4af7bc0,2024-01-23_07h51.23.036,bars,2023.2.3,Win32,59.88023952,657b66ea316d21385b68909f,,,,,,,,,,,324.5588,325.5482,,,326.0483,326.2816,,112,112,,,,,,,,,,,,,,,,bars/019.png,bars/mask008.png,,,,,,,,,,,,4,2,,,,,,,0,6,1,5,,,,,,,,,,,325.5482,326.0482,326.2817,327.0328,space,0.7327,,327.0332,67,7,328.0321,328.0321,328.6993,space,0.6466,,0,23,23,23,1,45,105,,,,,,,,
,,5d33ff76f665c6001ab9aa1e,65af538d60bcc53ab4af7bc0,2024-01-23_07h51.23.036,bars,2023.2.3,Win32,59.88023952,657b66ea316d21385b68909f,,,,,,,,,,,328.7,329.6993,,,330.1995,330.4496,,177,177,,,,,,,,,,,,,,,,bars/008.png,bars/mask006.png,,,,,,,,,,,,8,2,,,,,,,2,8,2,9,,,,,,,,,,,329.6993,330.1995,330.4497,330.9333,space,0.4639,,330.9333,67,3,331.9331,331.9332,332.8839,space,0.93,,0,24,24,24,1,110,0,,,,,,,,
,,5d33ff76f665c6001ab9aa1e,65af538d60bcc53ab4af7bc0,2024-01-23_07h51.23.036,bars,2023.2.3,Win32,59.88023952,657b66ea316d21385b68909f,,,,,,,,,,,332.8847,333.8832,,,334.3835,334.6341,,161,161,,,,,,,,,,,,,,,,bars/040.png,bars/mask003.png,,,,,,,,,,,,0,1,,,,,,,0,10,1,10,,,,,,,,,,,333.8832,334.3835,334.6342,335.1676,space,0.5163,,335.1676,21,24,336.1675,336.1675,336.8851,space,0.6988,,0,25,25,25,1,140,5,,,,,,,,
,,5d33ff76f665c6001ab9aa1e,65af538d60bcc53ab4af7bc0,2024-01-23_07h51.23.036,bars,2023.2.3,Win32,59.88023952,657b66ea316d21385b68909f,,,,,,,,,,,336.8858,337.8849,,,338.3855,338.6354,,41,41,,,,,,,,,,,,,,,,bars/035.png,bars/mask000.png,,,,,,,,,,,,3,2,,,,,,,2,8,3,9,,,,,,,,,,,337.8849,338.3854,338.6355,340.8813,space,2.2358,,340.8814,46,19,341.8696,341.8696,342.5035,space,0.6022,,0,26,26,26,1,175,60,,,,,,,,
,,5d33ff76f665c6001ab9aa1e,65af538d60bcc53ab4af7bc0,2024-01-23_07h51.23.036,bars,2023.2.3,Win32,59.88023952,657b66ea316d21385b68909f,,,,,,,,,,,342.5042,343.5036,,,344.0038,344.2539,,159,-21,,,,,,,,,,,,,,,,bars/044.png,bars/mask000.png,,,,,,,,,,,,9,2,,,,,,,0,10,0,10,,,,,,,,,,,343.5037,344.0037,344.2539,346.932,space,2.6566,,346.9321,84,4,347.9215,347.9217,348.5552,space,0.5918,,0,27,27,27,1,75,155,,,,,,,,
,,5d33ff76f665c6001ab9aa1e,65af538d60bcc53ab4af7bc0,2024-01-23_07h51.23.036,bars,2023.2.3,Win32,59.88023952,657b66ea316d21385b68909f,,,,,,,,,,,348.556,349.5554,,,350.0557,350.3057,,62,62,,,,,,,,,,,,,,,,bars/041.png,bars/mask000.png,,,,,,,,,,,,2,2,,,,,,,0,10,0,10,,,,,,,,,,,349.5555,350.0556,350.3057,354.4239,space,4.1023,,354.4239,42,23,355.4239,355.4239,356.0745,space,0.6088,,0,28,28,28,1,20,85,,,,,,,,
,,5d33ff76f665c6001ab9aa1e,65af538d60bcc53ab4af7bc0,2024-01-23_07h51.23.036,bars,2023.2.3,Win32,59.88023952,657b66ea316d21385b68909f,,,,,,,,,,,356.0752,357.0744,,,357.5746,357.8247,,168,168,,,,,,,,,,,,,,,,bars/033.png,bars/mask007.png,,,,,,,,,,,,6,2,,,,,,,0,10,1,10,,,,,,,,,,,357.0744,357.5746,357.8248,361.0759,space,3.2351,,361.0759,37,13,362.0759,362.076,362.793,space,0.6721,,0,29,29,29,1,25,155,,,,,,,,
,,5d33ff76f665c6001ab9aa1e,65af538d60bcc53ab4af7bc0,2024-01-23_07h51.23.036,bars,2023.2.3,Win32,59.88023952,657b66ea316d21385b68909f,,,,,,,,,,,362.7938,363.7931,,,364.2865,364.5267,,125,125,,,,,,,,,,,,,,,,bars/049.png,bars/mask008.png,,,,,,,,,,,,4,2,,,,,,,2,8,2,6,,,,,,,,,,,363.7932,364.2865,364.5269,369.6176,space,5.079,,369.6177,35,10,370.6119,370.612,371.3229,space,0.6691,,0,30,30,30,1,160,115,,,,,,,,
,,5d33ff76f665c6001ab9aa1e,65af538d60bcc53ab4af7bc0,2024-01-23_07h51.23.036,bars,2023.2.3,Win32,59.88023952,657b66ea316d21385b68909f,,,,,,,,,,,371.3235,372.3125,,,372.8127,373.0558,,66,66,,,,,,,,,,,,,,,,bars/038.png,bars/mask001.png,,,,,,,,,,,,6,2,,,,,,,4,6,4,7,,,,,,,,,,,372.3125,372.8127,373.0559,375.2803,space,2.2068,,375.2803,81,4,376.2804,376.2805,377.0307,space,0.7289,,0,31,31,31,1,165,70,,,,,,,,
,,5d33ff76f665c6001ab9aa1e,65af538d60bcc53ab4af7bc0,2024-01-23_07h51.23.036,bars,2023.2.3,Win32,59.88023952,657b66ea316d21385b68909f,,,,,,,,,,,377.0315,378.0303,,,378.5305,378.7806,,142,142,,,,,,,,,,,,,,,,bars/015.png,bars/mask008.png,,,,,,,,,,,,4,2,,,,,,,2,8,1,10,,,,,,,,,,,378.0303,378.5305,378.7806,381.2488,space,2.4539,,381.2488,32,18,382.2488,382.2488,382.916,space,0.6344,,0,32,32,32,1,110,160,,,,,,,,
,,5d33ff76f665c6001ab9aa1e,65af538d60bcc53ab4af7bc0,2024-01-23_07h51.23.036,bars,2023.2.3,Win32,59.88023952,657b66ea316d21385b68909f,,,,,,,,,,,382.9167,383.916,,,384.4163,384.6663,,91,91,,,,,,,,,,,,,,,,bars/021.png,bars/mask001.png,,,,,,,,,,,,2,2,,,,,,,0,10,1,8,,,,,,,,,,,383.9161,384.4162,384.6663,385.8345,space,1.1415,,385.8346,64,21,386.8337,386.8337,387.4002,space,0.5238,,0,33,33,33,1,155,70,,,,,,,,
,,5d33ff76f665c6001ab9aa1e,65af538d60bcc53ab4af7bc0,2024-01-23_07h51.23.036,bars,2023.2.3,Win32,59.88023952,657b66ea316d21385b68909f,,,,,,,,,,,387.4007,388.4007,,,388.9009,389.151,,58,58,,,,,,,,,,,,,,,,bars/017.png,bars/mask006.png,,,,,,,,,,,,5,2,,,,,,,2,8,2,9,,,,,,,,,,,388.4007,388.9009,389.151,392.1855,space,3.002,,392.1856,87,13,393.1856,393.1856,393.7193,space,0.4873,,0,34,34,34,1,145,45,,,,,,,,
,,5d33ff76f665c6001ab9aa1e,65af538d60bcc53ab4af7bc0,2024-01-23_07h51.23.036,bars,2023.2.3,Win32,59.88023952,657b66ea316d21385b68909f,,,,,,,,,,,393.72,394.7194,,,395.2196,395.4697,,15,195,,,,,,,,,,,,,,,,bars/036.png,bars/mask005.png,,,,,,,,,,,,6,2,,,,,,,4,6,4,7,,,,,,,,,,,394.7194,395.2196,395.4697,397.7371,space,2.235,,397.7372,50,5,398.7367,398.7368,399.2709,space,0.502,,0,35,35,35,1,145,20,,,,,,,,
,,5d33ff76f665c6001ab9aa1e,65af538d60bcc53ab4af7bc0,2024-01-23_07h51.23.036,bars,2023.2.3,Win32,59.88023952,657b66ea316d21385b68909f,,,,,,,,,,,399.2717,400.271,,,400.7712,401.0145,,42,42,,,,,,,,,,,,,,,,bars/007.png,bars/mask000.png,,,,,,,,,,,,1,2,,,,,,,6,4,7,2,,,,,,,,,,,400.2711,400.7711,401.0146,403.0389,space,2.0112,,403.0389,47,13,404.0389,404.039,404.7061,space,0.6345,,0,36,36,36,1,175,55,,,,,,,,
,,5d33ff76f665c6001ab9aa1e,65af538d60bcc53ab4af7bc0,2024-01-23_07h51.23.036,bars,2023.2.3,Win32,59.88023952,657b66ea316d21385b68909f,,,,,,,,,,,404.7068,405.7062,,,406.2063,406.4564,,73,73,,,,,,,,,,,,,,,,bars/037.png,bars/mask006.png,,,,,,,,,,,,0,2,,,,,,,4,6,5,6,,,,,,,,,,,405.7063,406.2063,406.4565,409.6182,space,3.1351,,409.6183,77,32,410.6076,410.6076,411.2913,space,0.6422,,0,37,37,37,1,150,105,,,,,,,,
,,5d33ff76f665c6001ab9aa1e,65af538d60bcc53ab4af7bc0,2024-01-23_07h51.23.036,bars,2023.2.3,Win32,59.88023952,657b66ea316d21385b68909f,,,,,,,,,,,411.2921,412.2913,,,412.7916,413.0417,,112,112,,,,,,,,,,,,,,,,bars/023.png,bars/mask007.png,,,,,,,,,,,,8,2,,,,,,,2,8,3,9,,,,,,,,,,,412.2913,412.7916,413.0417,415.6593,space,2.5853,,415.6594,88,3,416.6595,416.6595,417.376,space,0.6839,,0,38,38,38,1,20,115,,,,,,,,
,,5d33ff76f665c6001ab9aa1e,65af538d60bcc53ab4af7bc0,2024-01-23_07h51.23.036,bars,2023.2.3,Win32,59.88023952,657b66ea316d21385b68909f,,,,,,,,,,,417.3765,418.3766,,,418.8769,419.1269,,118,-62,,,,,,,,,,,,,,,,bars/049.png,bars/mask006.png,,,,,,,,,,,,9,2,,,,,,,0,10,1,10,,,,,,,,,,,418.3766,418.8768,419.1269,423.4303,space,4.2935,,423.4304,42,3,424.4285,424.4286,425.029,space,0.556,,0,39,39,39,1,160,115,,,,,,,,
,,5d33ff76f665c6001ab9aa1e,65af538d60bcc53ab4af7bc0,2024-01-23_07h51.23.036,bars,2023.2.3,Win32,59.88023952,657b66ea316d21385b68909f,,,,,,,,,,,425.0297,426.0173,,,426.5125,426.7626,,130,130,,,,,,,,,,,,,,,,bars/046.png,bars/mask008.png,,,,,,,,,,,,0,1,,,,,,,2,10,2,10,,,,,,,,,,,426.0174,426.5125,426.7627,430.7249,space,3.9355,,430.725,25,45,431.7141,431.7142,432.4146,space,0.6511,,0,40,40,40,1,155,85,,,,,,,,
,,5d33ff76f665c6001ab9aa1e,65af538d60bcc53ab4af7bc0,2024-01-23_07h51.23.036,bars,2023.2.3,Win32,59.88023952,657b66ea316d21385b68909f,,,,,,,,,,,432.4153,433.4147,,,433.9149,434.1747,,74,74,,,,,,,,,,,,,,,,bars/041.png,bars/mask008.png,,,,,,,,,,,,4,2,,,,,,,4,8,3,6,,,,,,,,,,,433.4147,433.9149,434.1747,435.4321,space,1.2362,,435.4322,54,11,436.4322,436.4322,437.2105,space,0.7514,,0,41,41,41,1,20,85,,,,,,,,
,,5d33ff76f665c6001ab9aa1e,65af538d60bcc53ab4af7bc0,2024-01-23_07h51.23.036,bars,2023.2.3,Win32,59.88023952,657b66ea316d21385b68909f,,,,,,,,,,,437.2112,438.1995,,,438.6997,438.9495,,71,71,,,,,,,,,,,,,,,,bars/038.png,bars/mask006.png,,,,,,,,,,,,9,2,,,,,,,6,10,5,9,,,,,,,,,,,438.1995,438.6996,438.9495,442.7234,space,3.747,,442.7234,86,1,443.7187,443.7189,444.3182,space,0.5635,,0,42,42,42,1,165,70,,,,,,,,
,,5d33ff76f665c6001ab9aa1e,65af538d60bcc53ab4af7bc0,2024-01-23_07h51.23.036,bars,2023.2.3,Win32,59.88023952,657b66ea316d21385b68909f,,,,,,,,,,,444.319,445.3184,,,445.8187,446.0684,,84,84,,,,,,,,,,,,,,,,bars/023.png,bars/mask005.png,,,,,,,,,,,,0,2,,,,,,,4,10,5,9,,,,,,,,,,,445.3185,445.8186,446.0684,447.9861,space,1.9078,,447.9862,64,31,448.9861,448.9861,449.6198,space,0.5871,,0,43,43,43,1,20,115,,,,,,,,
,,5d33ff76f665c6001ab9aa1e,65af538d60bcc53ab4af7bc0,2024-01-23_07h51.23.036,bars,2023.2.3,Win32,59.88023952,657b66ea316d21385b68909f,,,,,,,,,,,449.6206,450.6199,,,451.1202,451.3702,,107,107,,,,,,,,,,,,,,,,bars/044.png,bars/mask001.png,,,,,,,,,,,,0,1,,,,,,,2,10,3,10,,,,,,,,,,,450.6199,451.1202,451.3702,454.9219,space,3.5419,,454.922,32,48,455.9217,455.9217,458.789,space,2.826,,0,44,44,44,1,75,155,,,,,,,,
,,5d33ff76f665c6001ab9aa1e,65af538d60bcc53ab4af7bc0,2024-01-23_07h51.23.036,bars,2023.2.3,Win32,59.88023952,657b66ea316d21385b68909f,,,,,,,,,,,458.7894,459.7899,,,460.2897,460.5397,,59,239,,,,,,,,,,,,,,,,bars/047.png,bars/mask008.png,,,,,,,,,,,,6,2,,,,,,,0,10,0,10,,,,,,,,,,,459.7899,460.2897,460.5398,465.2412,space,4.6866,,465.2412,44,11,466.2411,466.2412,466.9086,space,0.6207,,0,45,45,45,1,15,70,,,,,,,,
,,5d33ff76f665c6001ab9aa1e,65af538d60bcc53ab4af7bc0,2024-01-23_07h51.23.036,bars,2023.2.3,Win32,59.88023952,657b66ea316d21385b68909f,,,,,,,,,,,466.9094,467.908,,,468.4081,468.659,,67,67,,,,,,,,,,,,,,,,bars/041.png,bars/mask009.png,,,,,,,,,,,,4,2,,,,,,,0,10,1,10,,,,,,,,,,,467.908,468.4081,468.6591,472.1935,space,3.5187,,472.1936,47,18,473.1936,473.1936,473.8609,space,0.6252,,0,46,46,46,1,20,85,,,,,,,,
,,5d33ff76f665c6001ab9aa1e,65af538d60bcc53ab4af7bc0,2024-01-23_07h51.23.036,bars,2023.2.3,Win32,59.88023952,657b66ea316d21385b68909f,,,,,,,,,,,473.8615,474.8608,,,475.3609,475.611,,113,113,,,,,,,,,,,,,,,,bars/019.png,bars/mask002.png,,,,,,,,,,,,7,2,,,,,,,0,10,3,10,,,,,,,,,,,474.8608,475.3609,475.611,479.3397,space,3.7021,,479.3398,68,8,480.3291,480.3291,480.8962,space,0.5215,,0,47,47,47,1,45,105,,,,,,,,
,,5d33ff76f665c6001ab9aa1e,65af538d60bcc53ab4af7bc0,2024-01-23_07h51.23.036,bars,2023.2.3,Win32,59.88023952,657b66ea316d21385b68909f,,,,,,,,,,,480.8969,481.8963,,,482.3965,482.6466,,41,41,,,,,,,,,,,,,,,,bars/007.png,bars/mask007.png,,,,,,,,,,,,5,2,,,,,,,0,10,0,10,,,,,,,,,,,481.8963,482.3965,482.6466,485.2475,space,2.5688,,485.2476,46,14,486.2476,486.2477,486.8981,space,0.6041,,0,48,48,48,1,175,55,,,,,,,,
,,5d33ff76f665c6001ab9aa1e,65af538d60bcc53ab4af7bc0,2024-01-23_07h51.23.036,bars,2023.2.3,Win32,59.88023952,657b66ea316d21385b68909f,,,,,,,,,,,486.8988,487.8981,,,488.3983,488.6483,,92,272,,,,,,,,,,,,,,,,bars/030.png,bars/mask005.png,,,,,,,,,,,,1,2,,,,,,,2,8,1,8,,,,,,,,,,,487.8982,488.3982,488.6484,492.8831,space,4.224,,492.8832,48,27,493.8833,493.8833,494.4837,space,0.558,,0,49,49,49,1,140,65,,,,,,,,
,,5d33ff76f665c6001ab9aa1e,65af538d60bcc53ab4af7bc0,2024-01-23_07h51.23.036,bars,2023.2.3,Win32,59.88023952,657b66ea316d21385b68909f,,,,,,,,,,,,,,,,,,,,,,,,,,,,,,,,,,,,,,,,,,,,,,,,,,,,,,,,,,,,,,,,,,,,,,,,,,,,,,,,,,,,,,,,,,,,,494.4854,554.4866,0,0,0,2,1,sequence_tables/blk012.csv
,,5d33ff76f665c6001ab9aa1e,65af538d60bcc53ab4af7bc0,2024-01-23_07h51.23.036,bars,2023.2.3,Win32,59.88023952,657b66ea316d21385b68909f,,,,,,,,,,,561.1354,562.121,,,562.6046,562.8546,,113,113,,,,,,,,,,,,,,,,bars/028.png,bars/mask003.png,,,,,,,,,,,,6,2,,,,,,,2,7,4,8,,,,,,554.5152,561.1044,space,6.5698,,562.121,562.6046,562.8547,565.7997,space,2.9186,,565.7999,68,7,566.7892,566.7892,566.817,,,,0,0,0,0,1,45,120,,,,,,,,
,,5d33ff76f665c6001ab9aa1e,65af538d60bcc53ab4af7bc0,2024-01-23_07h51.23.036,bars,2023.2.3,Win32,59.88023952,657b66ea316d21385b68909f,,,,,,,,,,,566.8175,567.8061,,,568.3063,568.5563,,163,163,,,,,,,,,,,,,,,,bars/044.png,bars/mask000.png,,,,,,,,,,,,4,2,,,,,,,4,5,3,5,,,,,,,,,,,567.8061,568.3063,568.5565,570.8738,space,2.3057,,570.8741,88,8,571.874,571.8741,571.9016,,,,0,1,1,1,1,75,155,,,,,,,,
,,5d33ff76f665c6001ab9aa1e,65af538d60bcc53ab4af7bc0,2024-01-23_07h51.23.036,bars,2023.2.3,Win32,59.88023952,657b66ea316d21385b68909f,,,,,,,,,,,571.9025,572.8909,,,573.3913,573.6412,,154,154,,,,,,,,,,,,,,,,bars/020.png,bars/mask003.png,,,,,,,,,,,,4,2,,,,,,,6,7,7,8,,,,,,,,,,,572.891,573.3912,573.6412,578.7545,space,5.0869,,578.7545,39,16,579.7478,579.748,579.7756,,,,0,2,2,2,1,115,170,,,,,,,,
,,5d33ff76f665c6001ab9aa1e,65af538d60bcc53ab4af7bc0,2024-01-23_07h51.23.036,bars,2023.2.3,Win32,59.88023952,657b66ea316d21385b68909f,,,,,,,,,,,579.7761,580.7768,,,581.277,581.5271,,125,125,,,,,,,,,,,,,,,,bars/026.png,bars/mask002.png,,,,,,,,,,,,0,2,,,,,,,8,5,7,5,,,,,,,,,,,580.7768,581.2769,581.5271,583.1109,space,1.5566,,583.1109,90,40,584.0992,584.0993,584.1006,,,,0,3,3,3,1,35,85,,,,,,,,
,,5d33ff76f665c6001ab9aa1e,65af538d60bcc53ab4af7bc0,2024-01-23_07h51.23.036,bars,2023.2.3,Win32,59.88023952,657b66ea316d21385b68909f,,,,,,,,,,,584.1012,585.0943,,,585.595,585.845,,62,62,,,,,,,,,,,,,,,,bars/002.png,bars/mask009.png,,,,,,,,,,,,0,2,,,,,,,6,3,6,2,,,,,,,,,,,585.0943,585.595,585.845,588.9483,space,3.0935,,588.9484,68,23,589.9393,589.9393,589.9669,,,,0,4,4,4,1,130,85,,,,,,,,
,,5d33ff76f665c6001ab9aa1e,65af538d60bcc53ab4af7bc0,2024-01-23_07h51.23.036,bars,2023.2.3,Win32,59.88023952,657b66ea316d21385b68909f,,,,,,,,,,,589.9675,590.9729,,,591.4634,591.7135,,43,43,,,,,,,,,,,,,,,,bars/036.png,bars/mask009.png,,,,,,,,,,,,1,2,,,,,,,4,5,4,6,,,,,,,,,,,590.973,591.4634,591.7135,594.5168,space,2.7768,,594.5168,78,23,595.5147,595.5147,595.543,,,,0,5,5,5,1,145,20,,,,,,,,
,,5d33ff76f665c6001ab9aa1e,65af538d60bcc53ab4af7bc0,2024-01-23_07h51.23.036,bars,2023.2.3,Win32,59.88023952,657b66ea316d21385b68909f,,,,,,,,,,,595.5435,596.5477,,,597.048,597.2978,,38,38,,,,,,,,,,,,,,,,bars/013.png,bars/mask007.png,,,,,,,,,,,,0,2,,,,,,,2,3,3,3,,,,,,,,,,,596.5477,597.048,597.2978,600.5168,space,3.1999,,600.5169,37,28,601.5165,601.5166,601.544,,,,0,6,6,6,1,75,10,,,,,,,,
,,5d33ff76f665c6001ab9aa1e,65af538d60bcc53ab4af7bc0,2024-01-23_07h51.23.036,bars,2023.2.3,Win32,59.88023952,657b66ea316d21385b68909f,,,,,,,,,,,601.5445,602.5335,,,603.0337,603.2838,,6,6,,,,,,,,,,,,,,,,bars/014.png,bars/mask002.png,,,,,,,,,,,,2,2,,,,,,,4,1,6,2,,,,,,,,,,,602.5336,603.0336,603.2838,603.8176,space,0.5071,,603.8177,74,6,604.8175,604.8175,604.8189,,,,0,7,7,7,1,80,0,,,,,,,,
,,5d33ff76f665c6001ab9aa1e,65af538d60bcc53ab4af7bc0,2024-01-23_07h51.23.036,bars,2023.2.3,Win32,59.88023952,657b66ea316d21385b68909f,,,,,,,,,,,604.8194,605.8179,,,606.318,606.5683,,1,1,,,,,,,,,,,,,,,,bars/022.png,bars/mask005.png,,,,,,,,,,,,1,2,,,,,,,6,3,5,4,,,,,,,,,,,605.8179,606.318,606.5684,607.7525,space,1.1681,,607.7525,86,19,608.7521,608.7521,608.7801,,,,0,8,8,8,1,95,20,,,,,,,,
,,5d33ff76f665c6001ab9aa1e,65af538d60bcc53ab4af7bc0,2024-01-23_07h51.23.036,bars,2023.2.3,Win32,59.88023952,657b66ea316d21385b68909f,,,,,,,,,,,608.7806,609.769,,,610.2693,610.5193,,52,232,,,,,,,,,,,,,,,,bars/047.png,bars/mask007.png,,,,,,,,,,,,2,2,,,,,,,8,5,7,5,,,,,,,,,,,609.7691,610.2692,610.5194,614.9708,space,4.4389,,614.9709,37,18,615.9709,615.9709,615.9971,,,,0,9,9,9,1,15,70,,,,,,,,
,,5d33ff76f665c6001ab9aa1e,65af538d60bcc53ab4af7bc0,2024-01-23_07h51.23.036,bars,2023.2.3,Win32,59.88023952,657b66ea316d21385b68909f,,,,,,,,,,,615.9974,616.9879,,,617.4885,617.7382,,19,19,,,,,,,,,,,,,,,,bars/014.png,bars/mask001.png,,,,,,,,,,,,1,2,,,,,,,10,3,10,4,,,,,,,,,,,616.988,617.4884,617.7383,621.5894,space,3.8357,,621.5895,61,19,622.5897,622.5897,622.6174,,,,0,10,10,10,1,80,0,,,,,,,,
,,5d33ff76f665c6001ab9aa1e,65af538d60bcc53ab4af7bc0,2024-01-23_07h51.23.036,bars,2023.2.3,Win32,59.88023952,657b66ea316d21385b68909f,,,,,,,,,,,622.6179,623.6066,,,624.1069,624.3569,,94,94,,,,,,,,,,,,,,,,bars/021.png,bars/mask006.png,,,,,,,,,,,,1,2,,,,,,,10,1,10,4,,,,,,,,,,,623.6067,624.1068,624.357,625.2075,space,0.836,,625.2076,61,24,626.2074,626.2075,626.2088,,,,0,11,11,11,1,155,70,,,,,,,,
,,5d33ff76f665c6001ab9aa1e,65af538d60bcc53ab4af7bc0,2024-01-23_07h51.23.036,bars,2023.2.3,Win32,59.88023952,657b66ea316d21385b68909f,,,,,,,,,,,626.2093,627.2078,,,627.7079,627.958,,86,86,,,,,,,,,,,,,,,,bars/006.png,bars/mask001.png,,,,,,,,,,,,2,2,,,,,,,10,3,10,3,,,,,,,,,,,627.2079,627.7078,627.9581,629.7755,space,1.8015,,629.7756,51,14,630.7756,630.7756,630.8031,,,,0,12,12,12,1,35,100,,,,,,,,
,,5d33ff76f665c6001ab9aa1e,65af538d60bcc53ab4af7bc0,2024-01-23_07h51.23.036,bars,2023.2.3,Win32,59.88023952,657b66ea316d21385b68909f,,,,,,,,,,,630.8036,631.7925,,,632.2927,632.5428,,121,121,,,,,,,,,,,,,,,,bars/025.png,bars/mask001.png,,,,,,,,,,,,3,1,,,,,,,8,5,6,3,,,,,,,,,,,631.7925,632.2926,632.5429,635.2438,space,2.6863,,635.2439,16,81,636.2441,636.2441,636.2738,,,,0,13,13,13,1,105,40,,,,,,,,
,,5d33ff76f665c6001ab9aa1e,65af538d60bcc53ab4af7bc0,2024-01-23_07h51.23.036,bars,2023.2.3,Win32,59.88023952,657b66ea316d21385b68909f,,,,,,,,,,,636.2742,637.2776,,,637.7775,638.0277,,58,58,,,,,,,,,,,,,,,,bars/042.png,bars/mask009.png,,,,,,,,,,,,3,2,,,,,,,10,7,10,8,,,,,,,,,,,637.2776,637.7775,638.0278,639.045,space,0.992,,639.045,87,17,640.0451,640.0451,640.0485,,,,0,14,14,14,1,145,75,,,,,,,,
,,5d33ff76f665c6001ab9aa1e,65af538d60bcc53ab4af7bc0,2024-01-23_07h51.23.036,bars,2023.2.3,Win32,59.88023952,657b66ea316d21385b68909f,,,,,,,,,,,640.049,641.0454,,,641.5456,641.7956,,98,98,,,,,,,,,,,,,,,,bars/024.png,bars/mask005.png,,,,,,,,,,,,2,1,,,,,,,8,5,7,4,,,,,,,,,,,641.0454,641.5456,641.7957,643.7797,space,1.9551,,643.7798,22,72,644.7798,644.7798,644.7833,,,,0,15,15,15,1,120,170,,,,,,,,
,,5d33ff76f665c6001ab9aa1e,65af538d60bcc53ab4af7bc0,2024-01-23_07h51.23.036,bars,2023.2.3,Win32,59.88023952,657b66ea316d21385b68909f,,,,,,,,,,,644.7839,645.7801,,,646.2804,646.5238,,84,84,,,,,,,,,,,,,,,,bars/013.png,bars/mask008.png,,,,,,,,,,,,4,1,,,,,,,6,3,5,5,,,,,,,,,,,645.7802,646.2804,646.5238,650.1007,space,3.5605,,650.1008,9,74,651.0983,651.0983,651.1249,,,,0,16,16,16,1,75,10,,,,,,,,
,,5d33ff76f665c6001ab9aa1e,65af538d60bcc53ab4af7bc0,2024-01-23_07h51.23.036,bars,2023.2.3,Win32,59.88023952,657b66ea316d21385b68909f,,,,,,,,,,,651.1251,652.1154,,,652.6151,652.8657,,117,117,,,,,,,,,,,,,,,,bars/015.png,bars/mask001.png,,,,,,,,,,,,6,1,,,,,,,8,5,8,5,,,,,,,,,,,652.1155,652.6151,652.8658,656.1007,space,3.2195,,656.1008,7,43,657.1003,657.1004,657.1289,,,,0,17,17,17,1,110,160,,,,,,,,
,,5d33ff76f665c6001ab9aa1e,65af538d60bcc53ab4af7bc0,2024-01-23_07h51.23.036,bars,2023.2.3,Win32,59.88023952,657b66ea316d21385b68909f,,,,,,,,,,,657.1294,658.1172,,,658.6177,658.8675,,68,68,,,,,,,,,,,,,,,,bars/042.png,bars/mask006.png,,,,,,,,,,,,2,2,,,,,,,6,3,7,3,,,,,,,,,,,658.1173,658.6176,658.8676,661.3516,space,2.4682,,661.3517,77,7,662.3519,662.3519,662.3815,,,,0,18,18,18,1,145,75,,,,,,,,
,,5d33ff76f665c6001ab9aa1e,65af538d60bcc53ab4af7bc0,2024-01-23_07h51.23.036,bars,2023.2.3,Win32,59.88023952,657b66ea316d21385b68909f,,,,,,,,,,,662.382,663.3857,,,663.8858,664.1354,,156,-24,,,,,,,,,,,,,,,,bars/016.png,bars/mask009.png,,,,,,,,,,,,1,2,,,,,,,8,1,9,1,,,,,,,,,,,663.3857,663.8858,664.1354,666.8201,space,2.6708,,666.8203,64,9,667.8203,667.8203,667.8479,,,,0,19,19,19,1,40,165,,,,,,,,
,,5d33ff76f665c6001ab9aa1e,65af538d60bcc53ab4af7bc0,2024-01-23_07h51.23.036,bars,2023.2.3,Win32,59.88023952,657b66ea316d21385b68909f,,,,,,,,,,,667.8483,668.8373,,,669.3374,669.5875,,109,109,,,,,,,,,,,,,,,,bars/043.png,bars/mask004.png,,,,,,,,,,,,0,2,,,,,,,10,0,10,0,,,,,,,,,,,668.8373,669.3374,669.5876,673.4497,space,3.8524,,673.4498,79,21,674.439,674.4391,674.4649,,,,0,20,20,20,1,30,130,,,,,,,,
,,5d33ff76f665c6001ab9aa1e,65af538d60bcc53ab4af7bc0,2024-01-23_07h51.23.036,bars,2023.2.3,Win32,59.88023952,657b66ea316d21385b68909f,,,,,,,,,,,674.4652,675.4562,,,675.9564,676.2064,,153,153,,,,,,,,,,,,,,,,bars/043.png,bars/mask002.png,,,,,,,,,,,,0,2,,,,,,,8,0,6,0,,,,,,,,,,,675.4562,675.9562,676.2064,680.1349,space,3.9177,,680.135,57,23,681.1244,681.1244,681.1521,,,,0,21,21,21,1,30,130,,,,,,,,
,,5d33ff76f665c6001ab9aa1e,65af538d60bcc53ab4af7bc0,2024-01-23_07h51.23.036,bars,2023.2.3,Win32,59.88023952,657b66ea316d21385b68909f,,,,,,,,,,,681.1526,682.1413,,,682.6415,682.8915,,113,113,,,,,,,,,,,,,,,,bars/045.png,bars/mask004.png,,,,,,,,,,,,4,1,,,,,,,6,0,7,0,,,,,,,,,,,682.1414,682.6414,682.8915,685.4094,space,2.4852,,685.4094,13,77,686.4095,686.4095,686.4393,,,,0,22,22,22,1,100,10,,,,,,,,
,,5d33ff76f665c6001ab9aa1e,65af538d60bcc53ab4af7bc0,2024-01-23_07h51.23.036,bars,2023.2.3,Win32,59.88023952,657b66ea316d21385b68909f,,,,,,,,,,,686.4399,687.443,,,687.9433,688.1933,,92,92,,,,,,,,,,,,,,,,bars/021.png,bars/mask001.png,,,,,,,,,,,,0,2,,,,,,,4,2,2,1,,,,,,,,,,,687.4431,687.9432,688.1933,690.9774,space,2.7752,,690.9775,63,22,691.9779,691.978,692.0078,,,,0,23,23,23,1,155,70,,,,,,,,
,,5d33ff76f665c6001ab9aa1e,65af538d60bcc53ab4af7bc0,2024-01-23_07h51.23.036,bars,2023.2.3,Win32,59.88023952,657b66ea316d21385b68909f,,,,,,,,,,,692.0083,693.0114,,,693.5116,693.7617,,65,65,,,,,,,,,,,,,,,,bars/018.png,bars/mask008.png,,,,,,,,,,,,1,2,,,,,,,2,4,0,4,,,,,,,,,,,693.0114,693.5116,693.7617,696.3793,space,2.6034,,696.3794,85,25,697.3794,697.3794,697.4068,,,,0,24,24,24,1,150,90,,,,,,,,
,,5d33ff76f665c6001ab9aa1e,65af538d60bcc53ab4af7bc0,2024-01-23_07h51.23.036,bars,2023.2.3,Win32,59.88023952,657b66ea316d21385b68909f,,,,,,,,,,,697.4074,698.3963,,,698.8966,699.1466,,18,18,,,,,,,,,,,,,,,,bars/048.png,bars/mask004.png,,,,,,,,,,,,1,2,,,,,,,0,6,0,6,,,,,,,,,,,698.3964,698.8965,699.1467,702.648,space,3.486,,702.648,32,23,703.648,703.6481,703.6756,,,,0,25,25,25,1,50,175,,,,,,,,
,,5d33ff76f665c6001ab9aa1e,65af538d60bcc53ab4af7bc0,2024-01-23_07h51.23.036,bars,2023.2.3,Win32,59.88023952,657b66ea316d21385b68909f,,,,,,,,,,,703.6761,704.665,,,705.1653,705.4154,,50,50,,,,,,,,,,,,,,,,bars/000.png,bars/mask006.png,,,,,,,,,,,,2,1,,,,,,,2,8,3,8,,,,,,,,,,,704.6651,705.1652,705.4154,709.3166,space,3.8818,,709.3166,10,85,710.3167,710.3168,710.3459,,,,0,26,26,26,1,40,145,,,,,,,,
,,5d33ff76f665c6001ab9aa1e,65af538d60bcc53ab4af7bc0,2024-01-23_07h51.23.036,bars,2023.2.3,Win32,59.88023952,657b66ea316d21385b68909f,,,,,,,,,,,710.3464,711.3504,,,711.8506,712.1006,,99,99,,,,,,,,,,,,,,,,bars/011.png,bars/mask001.png,,,,,,,,,,,,3,2,,,,,,,0,6,0,6,,,,,,,,,,,711.3504,711.8505,712.1006,715.6518,space,3.5384,,715.6519,61,14,716.6521,716.6521,716.6822,,,,0,27,27,27,1,160,85,,,,,,,,
,,5d33ff76f665c6001ab9aa1e,65af538d60bcc53ab4af7bc0,2024-01-23_07h51.23.036,bars,2023.2.3,Win32,59.88023952,657b66ea316d21385b68909f,,,,,,,,,,,716.6827,717.6857,,,718.1859,718.436,,72,72,,,,,,,,,,,,,,,,bars/042.png,bars/mask005.png,,,,,,,,,,,,7,2,,,,,,,0,8,0,8,,,,,,,,,,,717.6857,718.1859,718.436,719.4364,space,0.9851,,719.4365,73,3,720.4365,720.4366,720.438,,,,0,28,28,28,1,145,75,,,,,,,,
,,5d33ff76f665c6001ab9aa1e,65af538d60bcc53ab4af7bc0,2024-01-23_07h51.23.036,bars,2023.2.3,Win32,59.88023952,657b66ea316d21385b68909f,,,,,,,,,,,720.4386,721.4367,,,721.9372,722.1871,,52,52,,,,,,,,,,,,,,,,bars/018.png,bars/mask008.png,,,,,,,,,,,,0,2,,,,,,,2,6,2,7,,,,,,,,,,,721.4367,721.9371,722.1872,724.288,space,2.0848,,724.2881,82,38,725.288,725.2881,725.3154,,,,0,29,29,29,1,150,90,,,,,,,,
,,5d33ff76f665c6001ab9aa1e,65af538d60bcc53ab4af7bc0,2024-01-23_07h51.23.036,bars,2023.2.3,Win32,59.88023952,657b66ea316d21385b68909f,,,,,,,,,,,725.3159,726.305,,,726.8053,727.0553,,135,135,,,,,,,,,,,,,,,,bars/023.png,bars/mask002.png,,,,,,,,,,,,3,2,,,,,,,0,8,0,10,,,,,,,,,,,726.3051,726.8052,727.0553,727.6223,space,0.5509,,727.6224,65,20,728.6224,728.6224,728.6238,,,,0,30,30,30,1,20,115,,,,,,,,
,,5d33ff76f665c6001ab9aa1e,65af538d60bcc53ab4af7bc0,2024-01-23_07h51.23.036,bars,2023.2.3,Win32,59.88023952,657b66ea316d21385b68909f,,,,,,,,,,,728.6243,729.6222,,,730.1229,730.3729,,45,45,,,,,,,,,,,,,,,,bars/045.png,bars/mask005.png,,,,,,,,,,,,0,2,,,,,,,0,6,0,6,,,,,,,,,,,729.6222,730.1229,730.373,731.6232,space,1.2355,,731.6233,55,35,732.6237,732.6237,732.625,,,,0,31,31,31,1,100,10,,,,,,,,
,,5d33ff76f665c6001ab9aa1e,65af538d60bcc53ab4af7bc0,2024-01-23_07h51.23.036,bars,2023.2.3,Win32,59.88023952,657b66ea316d21385b68909f,,,,,,,,,,,732.6255,733.6241,,,734.1242,734.3742,,139,139,,,,,,,,,,,,,,,,bars/033.png,bars/mask008.png,,,,,,,,,,,,3,2,,,,,,,2,8,3,7,,,,,,,,,,,733.6241,734.1241,734.3743,737.0919,space,2.7062,,737.092,66,16,738.0919,738.092,738.1197,,,,0,32,32,32,1,25,155,,,,,,,,
,,5d33ff76f665c6001ab9aa1e,65af538d60bcc53ab4af7bc0,2024-01-23_07h51.23.036,bars,2023.2.3,Win32,59.88023952,657b66ea316d21385b68909f,,,,,,,,,,,738.1202,739.1089,,,739.6018,739.8473,,48,48,,,,,,,,,,,,,,,,bars/017.png,bars/mask003.png,,,,,,,,,,,,9,2,,,,,,,4,10,2,10,,,,,,,,,,,739.109,739.6018,739.8474,742.9376,space,3.0685,,742.9376,83,3,743.9271,743.9272,743.9544,,,,0,33,33,33,1,145,45,,,,,,,,
,,5d33ff76f665c6001ab9aa1e,65af538d60bcc53ab4af7bc0,2024-01-23_07h51.23.036,bars,2023.2.3,Win32,59.88023952,657b66ea316d21385b68909f,,,,,,,,,,,743.9549,744.9441,,,745.4444,745.6943,,35,35,,,,,,,,,,,,,,,,bars/014.png,bars/mask000.png,,,,,,,,,,,,0,2,,,,,,,6,10,7,8,,,,,,,,,,,744.9442,745.4444,745.6943,747.8118,space,2.0983,,747.8119,45,35,748.812,748.812,748.8134,,,,0,34,34,34,1,80,0,,,,,,,,
,,5d33ff76f665c6001ab9aa1e,65af538d60bcc53ab4af7bc0,2024-01-23_07h51.23.036,bars,2023.2.3,Win32,59.88023952,657b66ea316d21385b68909f,,,,,,,,,,,748.8138,749.8122,,,750.3124,750.5627,,122,122,,,,,,,,,,,,,,,,bars/046.png,bars/mask005.png,,,,,,,,,,,,0,1,,,,,,,8,8,9,9,,,,,,,,,,,749.8123,750.3124,750.5628,754.8307,space,4.2521,,754.8308,33,37,755.8307,755.8307,755.8573,,,,0,35,35,35,1,155,85,,,,,,,,
,,5d33ff76f665c6001ab9aa1e,65af538d60bcc53ab4af7bc0,2024-01-23_07h51.23.036,bars,2023.2.3,Win32,59.88023952,657b66ea316d21385b68909f,,,,,,,,,,,755.8575,756.8478,,,757.348,757.5981,,49,49,,,,,,,,,,,,,,,,bars/027.png,bars/mask001.png,,,,,,,,,,,,10,2,,,,,,,6,10,7,10,,,,,,,,,,,756.8479,757.348,757.5981,760.6991,space,3.0901,,760.6992,61,1,761.6993,761.6993,761.7299,,,,0,36,36,36,1,110,50,,,,,,,,
,,5d33ff76f665c6001ab9aa1e,65af538d60bcc53ab4af7bc0,2024-01-23_07h51.23.036,bars,2023.2.3,Win32,59.88023952,657b66ea316d21385b68909f,,,,,,,,,,,761.7308,762.733,,,763.2333,763.4831,,50,50,,,,,,,,,,,,,,,,bars/001.png,bars/mask004.png,,,,,,,,,,,,0,2,,,,,,,8,8,9,8,,,,,,,,,,,762.7331,763.2332,763.4832,766.3114,space,2.8018,,766.3115,80,35,767.2774,767.2774,767.3051,,,,0,37,37,37,1,130,85,,,,,,,,
,,5d33ff76f665c6001ab9aa1e,65af538d60bcc53ab4af7bc0,2024-01-23_07h51.23.036,bars,2023.2.3,Win32,59.88023952,657b66ea316d21385b68909f,,,,,,,,,,,767.3055,768.3013,,,768.8015,769.0515,,86,86,,,,,,,,,,,,,,,,bars/006.png,bars/mask007.png,,,,,,,,,,,,5,2,,,,,,,10,10,10,10,,,,,,,,,,,768.3014,768.8014,769.0515,772.5634,space,3.4902,,772.5635,51,14,773.553,773.553,773.5813,,,,0,38,38,38,1,35,100,,,,,,,,
,,5d33ff76f665c6001ab9aa1e,65af538d60bcc53ab4af7bc0,2024-01-23_07h51.23.036,bars,2023.2.3,Win32,59.88023952,657b66ea316d21385b68909f,,,,,,,,,,,773.5818,774.5699,,,775.0701,775.3215,,56,56,,,,,,,,,,,,,,,,bars/002.png,bars/mask005.png,,,,,,,,,,,,0,2,,,,,,,10,10,10,10,,,,,,,,,,,774.57,775.0701,775.3216,776.0873,space,0.7489,,776.0873,74,29,777.0874,777.0874,777.0888,,,,0,39,39,39,1,130,85,,,,,,,,
,,5d33ff76f665c6001ab9aa1e,65af538d60bcc53ab4af7bc0,2024-01-23_07h51.23.036,bars,2023.2.3,Win32,59.88023952,657b66ea316d21385b68909f,,,,,,,,,,,777.0892,778.0876,,,778.588,778.8379,,88,88,,,,,,,,,,,,,,,,bars/020.png,bars/mask000.png,,,,,,,,,,,,1,1,,,,,,,8,8,7,7,,,,,,,,,,,778.0877,778.5879,778.8379,781.9558,space,3.0981,,781.9559,27,82,782.9558,782.9559,782.9852,,,,0,40,40,40,1,115,170,,,,,,,,
,,5d33ff76f665c6001ab9aa1e,65af538d60bcc53ab4af7bc0,2024-01-23_07h51.23.036,bars,2023.2.3,Win32,59.88023952,657b66ea316d21385b68909f,,,,,,,,,,,782.9859,783.9895,,,784.4896,784.7398,,113,113,,,,,,,,,,,,,,,,bars/037.png,bars/mask007.png,,,,,,,,,,,,4,2,,,,,,,10,6,10,5,,,,,,,,,,,783.9895,784.4896,784.7398,787.0179,space,2.2517,,787.0179,37,8,788.0074,788.0074,788.0381,,,,0,41,41,41,1,150,105,,,,,,,,
,,5d33ff76f665c6001ab9aa1e,65af538d60bcc53ab4af7bc0,2024-01-23_07h51.23.036,bars,2023.2.3,Win32,59.88023952,657b66ea316d21385b68909f,,,,,,,,,,,788.0387,789.0409,,,789.5412,789.7912,,109,109,,,,,,,,,,,,,,,,bars/039.png,bars/mask002.png,,,,,,,,,,,,6,2,,,,,,,8,8,7,7,,,,,,,,,,,789.0409,789.5412,789.7912,792.3862,space,2.5852,,792.3862,66,4,793.3757,793.3757,793.4038,,,,0,42,42,42,1,175,105,,,,,,,,
,,5d33ff76f665c6001ab9aa1e,65af538d60bcc53ab4af7bc0,2024-01-23_07h51.23.036,bars,2023.2.3,Win32,59.88023952,657b66ea316d21385b68909f,,,,,,,,,,,793.4043,794.3922,,,794.8929,795.1425,,122,122,,,,,,,,,,,,,,,,bars/035.png,bars/mask005.png,,,,,,,,,,,,0,1,,,,,,,6,6,4,5,,,,,,,,,,,794.3922,794.8929,795.1425,797.7771,space,2.6232,,797.7772,53,62,798.7774,798.7774,798.8066,,,,0,43,43,43,1,175,60,,,,,,,,
,,5d33ff76f665c6001ab9aa1e,65af538d60bcc53ab4af7bc0,2024-01-23_07h51.23.036,bars,2023.2.3,Win32,59.88023952,657b66ea316d21385b68909f,,,,,,,,,,,798.8071,799.8109,,,800.3112,800.5612,,77,77,,,,,,,,,,,,,,,,bars/009.png,bars/mask003.png,,,,,,,,,,,,0,2,,,,,,,8,4,7,4,,,,,,,,,,,799.811,800.3112,800.5612,803.0396,space,2.4685,,803.0397,62,28,804.029,804.0291,804.0583,,,,0,44,44,44,1,15,105,,,,,,,,
,,5d33ff76f665c6001ab9aa1e,65af538d60bcc53ab4af7bc0,2024-01-23_07h51.23.036,bars,2023.2.3,Win32,59.88023952,657b66ea316d21385b68909f,,,,,,,,,,,804.0589,805.0626,,,805.5628,805.8129,,161,-19,,,,,,,,,,,,,,,,bars/016.png,bars/mask002.png,,,,,,,,,,,,5,2,,,,,,,10,6,10,6,,,,,,,,,,,805.0626,805.5627,805.8129,809.3808,space,3.5519,,809.3809,59,4,810.3809,810.381,810.4085,,,,0,45,45,45,1,40,165,,,,,,,,
,,5d33ff76f665c6001ab9aa1e,65af538d60bcc53ab4af7bc0,2024-01-23_07h51.23.036,bars,2023.2.3,Win32,59.88023952,657b66ea316d21385b68909f,,,,,,,,,,,810.409,811.398,,,811.8982,812.1482,,148,-32,,,,,,,,,,,,,,,,bars/014.png,bars/mask001.png,,,,,,,,,,,,0,2,,,,,,,8,4,7,5,,,,,,,,,,,811.398,811.8982,812.1482,814.8159,space,2.6551,,814.816,68,32,815.816,815.8161,815.8434,,,,0,46,46,46,1,80,0,,,,,,,,
,,5d33ff76f665c6001ab9aa1e,65af538d60bcc53ab4af7bc0,2024-01-23_07h51.23.036,bars,2023.2.3,Win32,59.88023952,657b66ea316d21385b68909f,,,,,,,,,,,815.844,816.833,,,817.3332,817.5826,,118,118,,,,,,,,,,,,,,,,bars/015.png,bars/mask008.png,,,,,,,,,,,,7,1,,,,,,,10,6,10,5,,,,,,,,,,,816.833,817.3331,817.5826,819.734,space,2.1351,,819.734,8,42,820.7341,820.7341,820.756,,,,0,47,47,47,1,110,160,,,,,,,,
,,5d33ff76f665c6001ab9aa1e,65af538d60bcc53ab4af7bc0,2024-01-23_07h51.23.036,bars,2023.2.3,Win32,59.88023952,657b66ea316d21385b68909f,,,,,,,,,,,820.7564,821.7509,,,822.2512,822.5012,,90,90,,,,,,,,,,,,,,,,bars/037.png,bars/mask009.png,,,,,,,,,,,,4,2,,,,,,,8,8,7,8,,,,,,,,,,,821.751,822.2511,822.5013,825.9299,space,3.407,,825.93,60,15,826.9195,826.9195,826.9487,,,,0,48,48,48,1,150,105,,,,,,,,
,,5d33ff76f665c6001ab9aa1e,65af538d60bcc53ab4af7bc0,2024-01-23_07h51.23.036,bars,2023.2.3,Win32,59.88023952,657b66ea316d21385b68909f,,,,,,,,,,,826.9491,827.953,,,828.4529,828.7033,,92,92,,,,,,,,,,,,,,,,bars/044.png,bars/mask009.png,,,,,,,,,,,,3,1,,,,,,,6,10,7,10,,,,,,,,,,,827.9531,828.4529,828.7033,832.0546,space,3.3368,,832.0547,17,63,833.0545,833.0546,833.0806,,,,0,49,49,49,1,75,155,,,,,,,,
,,5d33ff76f665c6001ab9aa1e,65af538d60bcc53ab4af7bc0,2024-01-23_07h51.23.036,bars,2023.2.3,Win32,59.88023952,657b66ea316d21385b68909f,,,,,,,,,,,,,,,,,,,,,,,,,,,,,,,,,,,,,,,,,,,,,,,,,,,,,,,,,,,,,,,,,,,,,,,,,,,,,,,,,,,,,,,,,,,,,833.0809,893.0731,0,1,1,0,1,sequence_tables/blk009.csv
,,5d33ff76f665c6001ab9aa1e,65af538d60bcc53ab4af7bc0,2024-01-23_07h51.23.036,bars,2023.2.3,Win32,59.88023952,657b66ea316d21385b68909f,,,,,,,,,,,896.7859,897.7746,,,898.2749,898.5249,,59,59,,,,,,,,,,,,,,,,bars/018.png,bars/mask003.png,,,,,,,,,,,,0,2,,,,,,,8,3,7,2,,,,,,893.1023,896.7745,space,3.6593,,897.7747,898.2749,898.5249,901.0259,space,2.4873,,901.0259,89,31,902.0258,902.0259,902.0509,,,,0,0,0,0,1,150,90,,,,,,,,
,,5d33ff76f665c6001ab9aa1e,65af538d60bcc53ab4af7bc0,2024-01-23_07h51.23.036,bars,2023.2.3,Win32,59.88023952,657b66ea316d21385b68909f,,,,,,,,,,,902.0513,903.043,,,903.5437,903.7932,,109,109,,,,,,,,,,,,,,,,bars/006.png,bars/mask001.png,,,,,,,,,,,,3,2,,,,,,,6,5,6,4,,,,,,,,,,,903.043,903.5436,903.7933,906.6443,space,2.8351,,906.6445,74,9,907.6444,907.6445,907.6724,,,,0,1,1,1,1,35,100,,,,,,,,
,,5d33ff76f665c6001ab9aa1e,65af538d60bcc53ab4af7bc0,2024-01-23_07h51.23.036,bars,2023.2.3,Win32,59.88023952,657b66ea316d21385b68909f,,,,,,,,,,,907.6729,908.6612,,,909.1615,909.4115,,43,43,,,,,,,,,,,,,,,,bars/010.png,bars/mask007.png,,,,,,,,,,,,2,2,,,,,,,8,3,8,3,,,,,,,,,,,908.6612,909.1614,909.4116,911.4124,space,1.9885,,911.4125,58,12,912.4124,912.4125,912.4138,,,,0,2,2,2,1,165,55,,,,,,,,
,,5d33ff76f665c6001ab9aa1e,65af538d60bcc53ab4af7bc0,2024-01-23_07h51.23.036,bars,2023.2.3,Win32,59.88023952,657b66ea316d21385b68909f,,,,,,,,,,,912.4142,913.4127,,,913.913,914.1631,,115,115,,,,,,,,,,,,,,,,bars/004.png,bars/mask009.png,,,,,,,,,,,,3,2,,,,,,,6,5,5,5,,,,,,,,,,,913.4127,913.913,914.1631,918.4979,space,4.3187,,918.498,90,10,919.498,919.498,919.5256,,,,0,3,3,3,1,25,125,,,,,,,,
,,5d33ff76f665c6001ab9aa1e,65af538d60bcc53ab4af7bc0,2024-01-23_07h51.23.036,bars,2023.2.3,Win32,59.88023952,657b66ea316d21385b68909f,,,,,,,,,,,919.5261,920.515,,,921.0152,921.2652,,47,47,,,,,,,,,,,,,,,,bars/031.png,bars/mask006.png,,,,,,,,,,,,2,2,,,,,,,8,3,9,3,,,,,,,,,,,920.5151,921.0151,921.2653,924.1163,space,2.8389,,924.1164,73,12,925.1165,925.1165,925.1438,,,,0,4,4,4,1,120,35,,,,,,,,
,,5d33ff76f665c6001ab9aa1e,65af538d60bcc53ab4af7bc0,2024-01-23_07h51.23.036,bars,2023.2.3,Win32,59.88023952,657b66ea316d21385b68909f,,,,,,,,,,,925.1443,926.1333,,,926.6333,926.8836,,133,133,,,,,,,,,,,,,,,,bars/003.png,bars/mask003.png,,,,,,,,,,,,2,2,,,,,,,6,1,6,2,,,,,,,,,,,926.1333,926.6333,926.8836,927.6665,space,0.7618,,927.6666,72,7,928.6674,928.6675,928.6689,,,,0,5,5,5,1,25,140,,,,,,,,
,,5d33ff76f665c6001ab9aa1e,65af538d60bcc53ab4af7bc0,2024-01-23_07h51.23.036,bars,2023.2.3,Win32,59.88023952,657b66ea316d21385b68909f,,,,,,,,,,,928.6694,929.6674,,,930.1679,930.4175,,102,102,,,,,,,,,,,,,,,,bars/044.png,bars/mask000.png,,,,,,,,,,,,0,1,,,,,,,4,3,3,3,,,,,,,,,,,929.6674,930.1679,930.4175,933.1522,space,2.7275,,933.1523,27,53,934.1526,934.1526,934.1816,,,,0,6,6,6,1,75,155,,,,,,,,
,,5d33ff76f665c6001ab9aa1e,65af538d60bcc53ab4af7bc0,2024-01-23_07h51.23.036,bars,2023.2.3,Win32,59.88023952,657b66ea316d21385b68909f,,,,,,,,,,,934.182,935.1861,,,935.6864,935.9364,,59,59,,,,,,,,,,,,,,,,bars/027.png,bars/mask008.png,,,,,,,,,,,,1,2,,,,,,,6,1,7,1,,,,,,,,,,,935.1861,935.6863,935.9365,938.8207,space,2.8683,,938.8208,51,9,939.8209,939.821,939.8477,,,,0,7,7,7,1,110,50,,,,,,,,
,,5d33ff76f665c6001ab9aa1e,65af538d60bcc53ab4af7bc0,2024-01-23_07h51.23.036,bars,2023.2.3,Win32,59.88023952,657b66ea316d21385b68909f,,,,,,,,,,,939.8479,940.8379,,,941.3382,941.5882,,111,111,,,,,,,,,,,,,,,,bars/032.png,bars/mask003.png,,,,,,,,,,,,5,1,,,,,,,8,3,9,4,,,,,,,,,,,940.8379,941.3381,941.5882,944.6991,space,3.1014,,944.6991,14,89,945.6894,945.6894,945.7189,,,,0,8,8,8,1,125,20,,,,,,,,
,,5d33ff76f665c6001ab9aa1e,65af538d60bcc53ab4af7bc0,2024-01-23_07h51.23.036,bars,2023.2.3,Win32,59.88023952,657b66ea316d21385b68909f,,,,,,,,,,,945.7194,946.723,,,947.2352,947.4833,,61,61,,,,,,,,,,,,,,,,bars/009.png,bars/mask005.png,,,,,,,,,,,,0,2,,,,,,,10,1,8,1,,,,,,,,,,,946.7231,947.2352,947.4834,949.6348,space,2.1352,,949.6348,46,44,950.6342,950.6342,950.6668,,,,0,9,9,9,1,15,105,,,,,,,,
,,5d33ff76f665c6001ab9aa1e,65af538d60bcc53ab4af7bc0,2024-01-23_07h51.23.036,bars,2023.2.3,Win32,59.88023952,657b66ea316d21385b68909f,,,,,,,,,,,950.6673,951.6578,,,952.1581,952.4082,,111,111,,,,,,,,,,,,,,,,bars/044.png,bars/mask007.png,,,,,,,,,,,,0,1,,,,,,,8,3,7,1,,,,,,,,,,,951.658,952.1581,952.4083,953.742,space,1.3157,,953.7421,36,44,954.7422,954.7423,954.7453,,,,0,10,10,10,1,75,155,,,,,,,,
,,5d33ff76f665c6001ab9aa1e,65af538d60bcc53ab4af7bc0,2024-01-23_07h51.23.036,bars,2023.2.3,Win32,59.88023952,657b66ea316d21385b68909f,,,,,,,,,,,954.7458,955.7425,,,956.2429,956.4928,,130,-50,,,,,,,,,,,,,,,,bars/041.png,bars/mask000.png,,,,,,,,,,,,0,2,,,,,,,10,1,8,2,,,,,,,,,,,955.7426,956.2428,956.4928,959.3937,space,2.8907,,959.3938,70,45,960.3939,960.3939,960.4231,,,,0,11,11,11,1,20,85,,,,,,,,
,,5d33ff76f665c6001ab9aa1e,65af538d60bcc53ab4af7bc0,2024-01-23_07h51.23.036,bars,2023.2.3,Win32,59.88023952,657b66ea316d21385b68909f,,,,,,,,,,,960.4236,961.4272,,,961.9278,962.1779,,126,126,,,,,,,,,,,,,,,,bars/015.png,bars/mask002.png,,,,,,,,,,,,5,1,,,,,,,10,0,10,0,,,,,,,,,,,961.4272,961.9277,962.1779,964.9955,space,2.798,,964.9955,16,34,965.9957,965.9957,966.0251,,,,0,12,12,12,1,110,160,,,,,,,,
,,5d33ff76f665c6001ab9aa1e,65af538d60bcc53ab4af7bc0,2024-01-23_07h51.23.036,bars,2023.2.3,Win32,59.88023952,657b66ea316d21385b68909f,,,,,,,,,,,966.0256,967.0293,,,967.5295,967.7795,,53,53,,,,,,,,,,,,,,,,bars/018.png,bars/mask000.png,,,,,,,,,,,,0,2,,,,,,,8,2,9,2,,,,,,,,,,,967.0294,967.5295,967.7796,970.3966,space,2.5994,,970.3966,83,37,971.3973,971.3973,971.4269,,,,0,13,13,13,1,150,90,,,,,,,,
,,5d33ff76f665c6001ab9aa1e,65af538d60bcc53ab4af7bc0,2024-01-23_07h51.23.036,bars,2023.2.3,Win32,59.88023952,657b66ea316d21385b68909f,,,,,,,,,,,971.4274,972.4309,,,972.9312,973.1813,,59,59,,,,,,,,,,,,,,,,bars/029.png,bars/mask005.png,,,,,,,,,,,,3,2,,,,,,,10,4,8,6,,,,,,,,,,,972.431,972.931,973.1814,977.0159,space,3.8188,,977.016,31,14,978.0161,978.0161,978.039,,,,0,14,14,14,1,90,45,,,,,,,,
,,5d33ff76f665c6001ab9aa1e,65af538d60bcc53ab4af7bc0,2024-01-23_07h51.23.036,bars,2023.2.3,Win32,59.88023952,657b66ea316d21385b68909f,,,,,,,,,,,978.0394,979.033,,,979.5333,979.7833,,107,107,,,,,,,,,,,,,,,,bars/032.png,bars/mask003.png,,,,,,,,,,,,3,1,,,,,,,8,6,8,6,,,,,,,,,,,979.0331,979.5331,979.7833,981.39,space,1.5967,,981.39,18,87,982.3841,982.3841,982.3873,,,,0,15,15,15,1,125,20,,,,,,,,
,,5d33ff76f665c6001ab9aa1e,65af538d60bcc53ab4af7bc0,2024-01-23_07h51.23.036,bars,2023.2.3,Win32,59.88023952,657b66ea316d21385b68909f,,,,,,,,,,,982.3878,983.3844,,,983.8846,984.1347,,46,46,,,,,,,,,,,,,,,,bars/022.png,bars/mask004.png,,,,,,,,,,,,1,2,,,,,,,10,8,10,9,,,,,,,,,,,983.3844,983.8845,984.1347,986.7522,space,2.5853,,986.7523,49,26,987.7525,987.7525,987.782,,,,0,16,16,16,1,95,20,,,,,,,,
,,5d33ff76f665c6001ab9aa1e,65af538d60bcc53ab4af7bc0,2024-01-23_07h51.23.036,bars,2023.2.3,Win32,59.88023952,657b66ea316d21385b68909f,,,,,,,,,,,987.7825,988.7861,,,989.2863,989.5364,,122,122,,,,,,,,,,,,,,,,bars/033.png,bars/mask002.png,,,,,,,,,,,,0,2,,,,,,,10,10,10,10,,,,,,,,,,,988.7861,989.2862,989.5364,990.9037,space,1.3509,,990.9038,83,33,991.9037,991.9038,991.929,,,,0,17,17,17,1,25,155,,,,,,,,
,,5d33ff76f665c6001ab9aa1e,65af538d60bcc53ab4af7bc0,2024-01-23_07h51.23.036,bars,2023.2.3,Win32,59.88023952,657b66ea316d21385b68909f,,,,,,,,,,,991.9293,992.92,,,993.4207,993.6704,,62,62,,,,,,,,,,,,,,,,bars/044.png,bars/mask007.png,,,,,,,,,,,,5,1,,,,,,,8,8,9,9,,,,,,,,,,,992.9201,993.4207,993.6704,994.7715,space,1.0861,,994.7716,13,87,995.7711,995.7711,995.7725,,,,0,18,18,18,1,75,155,,,,,,,,
,,5d33ff76f665c6001ab9aa1e,65af538d60bcc53ab4af7bc0,2024-01-23_07h51.23.036,bars,2023.2.3,Win32,59.88023952,657b66ea316d21385b68909f,,,,,,,,,,,995.7726,996.7719,,,997.2722,997.5215,,123,123,,,,,,,,,,,,,,,,bars/044.png,bars/mask004.png,,,,,,,,,,,,0,2,,,,,,,6,10,5,10,,,,,,,,,,,996.772,997.2722,997.5215,1000.0732,space,2.5359,,1000.0735,48,32,1001.0733,1001.0733,1001.1025,,,,0,19,19,19,1,75,155,,,,,,,,
,,5d33ff76f665c6001ab9aa1e,65af538d60bcc53ab4af7bc0,2024-01-23_07h51.23.036,bars,2023.2.3,Win32,59.88023952,657b66ea316d21385b68909f,,,,,,,,,,,1001.103,1002.1068,,,1002.6071,1002.857,,76,76,,,,,,,,,,,,,,,,bars/042.png,bars/mask008.png,,,,,,,,,,,,8,2,,,,,,,8,10,7,8,,,,,,,,,,,1002.1069,1002.607,1002.857,1004.1576,space,1.2827,,1004.1577,69,1,1005.1577,1005.1577,1005.1592,,,,0,20,20,20,1,145,75,,,,,,,,
,,5d33ff76f665c6001ab9aa1e,65af538d60bcc53ab4af7bc0,2024-01-23_07h51.23.036,bars,2023.2.3,Win32,59.88023952,657b66ea316d21385b68909f,,,,,,,,,,,1005.1597,1006.158,,,1006.6584,1006.9082,,42,42,,,,,,,,,,,,,,,,bars/031.png,bars/mask005.png,,,,,,,,,,,,6,2,,,,,,,6,8,5,8,,,,,,,,,,,1006.1581,1006.6583,1006.9084,1007.725,space,0.8035,,1007.725,78,7,1008.725,1008.725,1008.7258,,,,0,21,21,21,1,120,35,,,,,,,,
,,5d33ff76f665c6001ab9aa1e,65af538d60bcc53ab4af7bc0,2024-01-23_07h51.23.036,bars,2023.2.3,Win32,59.88023952,657b66ea316d21385b68909f,,,,,,,,,,,1008.7266,1009.7258,,,1010.2263,1010.476,,27,27,,,,,,,,,,,,,,,,bars/009.png,bars/mask005.png,,,,,,,,,,,,2,1,,,,,,,4,10,3,10,,,,,,,,,,,1009.7258,1010.2262,1010.4761,1011.0598,space,0.5642,,1011.0599,12,78,1012.0599,1012.0599,1012.063,,,,0,22,22,22,1,15,105,,,,,,,,
,,5d33ff76f665c6001ab9aa1e,65af538d60bcc53ab4af7bc0,2024-01-23_07h51.23.036,bars,2023.2.3,Win32,59.88023952,657b66ea316d21385b68909f,,,,,,,,,,,1012.0637,1013.06,,,1013.5537,1013.7937,,47,47,,,,,,,,,,,,,,,,bars/007.png,bars/mask008.png,,,,,,,,,,,,7,2,,,,,,,2,10,2,10,,,,,,,,,,,1013.0601,1013.5536,1013.7937,1014.5776,space,0.7518,,1014.5776,52,8,1015.5776,1015.5777,1015.5806,,,,0,23,23,23,1,175,55,,,,,,,,
,,5d33ff76f665c6001ab9aa1e,65af538d60bcc53ab4af7bc0,2024-01-23_07h51.23.036,bars,2023.2.3,Win32,59.88023952,657b66ea316d21385b68909f,,,,,,,,,,,1015.5811,1016.5779,,,1017.0781,1017.3211,,67,67,,,,,,,,,,,,,,,,bars/010.png,bars/mask001.png,,,,,,,,,,,,5,2,,,,,,,0,8,0,8,,,,,,,,,,,1016.5779,1017.078,1017.3212,1018.0283,space,0.6908,,1018.0284,82,12,1019.0287,1019.0287,1019.03,,,,0,24,24,24,1,165,55,,,,,,,,
,,5d33ff76f665c6001ab9aa1e,65af538d60bcc53ab4af7bc0,2024-01-23_07h51.23.036,bars,2023.2.3,Win32,59.88023952,657b66ea316d21385b68909f,,,,,,,,,,,1019.0305,1020.029,,,1020.5292,1020.7792,,35,35,,,,,,,,,,,,,,,,bars/001.png,bars/mask000.png,,,,,,,,,,,,0,2,,,,,,,2,6,3,4,,,,,,,,,,,1020.029,1020.5292,1020.7793,1021.5964,space,0.7859,,1021.5965,85,50,1022.5964,1022.5965,1022.5978,,,,0,25,25,25,1,130,85,,,,,,,,
,,5d33ff76f665c6001ab9aa1e,65af538d60bcc53ab4af7bc0,2024-01-23_07h51.23.036,bars,2023.2.3,Win32,59.88023952,657b66ea316d21385b68909f,,,,,,,,,,,1022.5983,1023.6016,,,1024.097,1024.347,,111,111,,,,,,,,,,,,,,,,bars/012.png,bars/mask008.png,,,,,,,,,,,,0,1,,,,,,,0,8,0,6,,,,,,,,,,,1023.6016,1024.097,1024.347,1026.3416,space,1.9847,,1026.3416,21,84,1027.3311,1027.3312,1027.3344,,,,0,26,26,26,1,90,15,,,,,,,,
,,5d33ff76f665c6001ab9aa1e,65af538d60bcc53ab4af7bc0,2024-01-23_07h51.23.036,bars,2023.2.3,Win32,59.88023952,657b66ea316d21385b68909f,,,,,,,,,,,1027.3349,1028.3314,,,1028.8319,1029.0817,,151,151,,,,,,,,,,,,,,,,bars/013.png,bars/mask000.png,,,,,,,,,,,,0,2,,,,,,,2,10,4,9,,,,,,,,,,,1028.3315,1028.8318,1029.0818,1030.4764,space,1.368,,1030.4764,76,39,1031.4659,1031.4659,1031.4691,,,,0,27,27,27,1,75,10,,,,,,,,
,,5d33ff76f665c6001ab9aa1e,65af538d60bcc53ab4af7bc0,2024-01-23_07h51.23.036,bars,2023.2.3,Win32,59.88023952,657b66ea316d21385b68909f,,,,,,,,,,,1031.4696,1032.4663,,,1032.9664,1033.2164,,116,116,,,,,,,,,,,,,,,,bars/044.png,bars/mask005.png,,,,,,,,,,,,0,2,,,,,,,0,8,0,9,,,,,,,,,,,1032.4663,1032.9663,1033.2165,1036.5344,space,3.2878,,1036.5344,41,39,1037.5344,1037.5344,1037.5621,,,,0,28,28,28,1,75,155,,,,,,,,
,,5d33ff76f665c6001ab9aa1e,65af538d60bcc53ab4af7bc0,2024-01-23_07h51.23.036,bars,2023.2.3,Win32,59.88023952,657b66ea316d21385b68909f,,,,,,,,,,,1037.5625,1038.5514,,,1039.0447,1039.2898,,128,128,,,,,,,,,,,,,,,,bars/005.png,bars/mask008.png,,,,,,,,,,,,6,2,,,,,,,0,10,0,10,,,,,,,,,,,1038.5514,1039.0447,1039.2898,1040.0854,space,0.7685,,1040.0854,62,12,1041.0855,1041.0856,1041.0869,,,,0,29,29,29,1,10,140,,,,,,,,
,,5d33ff76f665c6001ab9aa1e,65af538d60bcc53ab4af7bc0,2024-01-23_07h51.23.036,bars,2023.2.3,Win32,59.88023952,657b66ea316d21385b68909f,,,,,,,,,,,1041.0874,1042.0861,,,1042.586,1042.8361,,38,38,,,,,,,,,,,,,,,,bars/046.png,bars/mask007.png,,,,,,,,,,,,0,2,,,,,,,2,8,0,9,,,,,,,,,,,1042.0862,1042.586,1042.8361,1043.6699,space,0.8191,,1043.67,63,47,1044.6699,1044.67,1044.6714,,,,0,30,30,30,1,155,85,,,,,,,,
,,5d33ff76f665c6001ab9aa1e,65af538d60bcc53ab4af7bc0,2024-01-23_07h51.23.036,bars,2023.2.3,Win32,59.88023952,657b66ea316d21385b68909f,,,,,,,,,,,1044.6719,1045.6702,,,1046.1705,1046.4205,,16,16,,,,,,,,,,,,,,,,bars/036.png,bars/mask002.png,,,,,,,,,,,,4,2,,,,,,,0,6,1,5,,,,,,,,,,,1045.6703,1046.1704,1046.4205,1047.721,space,1.2811,,1047.7211,51,4,1048.721,1048.7211,1048.7224,,,,0,31,31,31,1,145,20,,,,,,,,
,,5d33ff76f665c6001ab9aa1e,65af538d60bcc53ab4af7bc0,2024-01-23_07h51.23.036,bars,2023.2.3,Win32,59.88023952,657b66ea316d21385b68909f,,,,,,,,,,,1048.7229,1049.7214,,,1050.2217,1050.4717,,146,146,,,,,,,,,,,,,,,,bars/005.png,bars/mask008.png,,,,,,,,,,,,2,2,,,,,,,2,4,2,3,,,,,,,,,,,1049.7214,1050.2217,1050.4718,1051.4051,space,0.9127,,1051.4052,44,6,1052.4058,1052.4058,1052.4072,,,,0,32,32,32,1,10,140,,,,,,,,
,,5d33ff76f665c6001ab9aa1e,65af538d60bcc53ab4af7bc0,2024-01-23_07h51.23.036,bars,2023.2.3,Win32,59.88023952,657b66ea316d21385b68909f,,,,,,,,,,,1052.4079,1053.406,,,1053.9062,1054.1565,,28,208,,,,,,,,,,,,,,,,bars/025.png,bars/mask005.png,,,,,,,,,,,,1,2,,,,,,,4,2,4,2,,,,,,,,,,,1053.4061,1053.9061,1054.1566,1058.5078,space,4.3351,,1058.5078,77,12,1059.5078,1059.5079,1059.5354,,,,0,33,33,33,1,105,40,,,,,,,,
,,5d33ff76f665c6001ab9aa1e,65af538d60bcc53ab4af7bc0,2024-01-23_07h51.23.036,bars,2023.2.3,Win32,59.88023952,657b66ea316d21385b68909f,,,,,,,,,,,1059.536,1060.5249,,,1061.0243,1061.2748,,124,-56,,,,,,,,,,,,,,,,bars/039.png,bars/mask003.png,,,,,,,,,,,,0,2,,,,,,,6,0,5,1,,,,,,,,,,,1060.5249,1061.0243,1061.2748,1064.7435,space,3.4501,,1064.7435,51,19,1065.7431,1065.7432,1065.7705,,,,0,34,34,34,1,175,105,,,,,,,,
,,5d33ff76f665c6001ab9aa1e,65af538d60bcc53ab4af7bc0,2024-01-23_07h51.23.036,bars,2023.2.3,Win32,59.88023952,657b66ea316d21385b68909f,,,,,,,,,,,1065.7709,1066.7601,,,1067.2603,1067.5105,,73,73,,,,,,,,,,,,,,,,bars/016.png,bars/mask009.png,,,,,,,,,,,,0,1,,,,,,,4,2,2,4,,,,,,,,,,,1066.7602,1067.2603,1067.5105,1069.0777,space,1.5512,,1069.0778,33,88,1070.0777,1070.0778,1070.1076,,,,0,35,35,35,1,40,165,,,,,,,,
,,5d33ff76f665c6001ab9aa1e,65af538d60bcc53ab4af7bc0,2024-01-23_07h51.23.036,bars,2023.2.3,Win32,59.88023952,657b66ea316d21385b68909f,,,,,,,,,,,1070.1082,1071.1129,,,1071.6115,1071.8714,,0,180,,,,,,,,,,,,,,,,bars/000.png,bars/mask003.png,,,,,,,,,,,,0,2,,,,,,,2,4,2,4,,,,,,,,,,,1071.113,1071.6115,1071.8715,1072.5955,space,0.7012,,1072.5955,40,35,1073.5951,1073.5951,1073.5961,,,,0,36,36,36,1,40,145,,,,,,,,
,,5d33ff76f665c6001ab9aa1e,65af538d60bcc53ab4af7bc0,2024-01-23_07h51.23.036,bars,2023.2.3,Win32,59.88023952,657b66ea316d21385b68909f,,,,,,,,,,,1073.5963,1074.5889,,,1075.0794,1075.3294,,85,85,,,,,,,,,,,,,,,,bars/008.png,bars/mask009.png,,,,,,,,,,,,1,1,,,,,,,4,2,4,3,,,,,,,,,,,1074.5889,1075.0794,1075.3294,1075.7629,space,0.4178,,1075.7629,25,85,1076.7632,1076.7632,1076.7661,,,,0,37,37,37,1,110,0,,,,,,,,
,,5d33ff76f665c6001ab9aa1e,65af538d60bcc53ab4af7bc0,2024-01-23_07h51.23.036,bars,2023.2.3,Win32,59.88023952,657b66ea316d21385b68909f,,,,,,,,,,,1076.7667,1077.7635,,,1078.2636,1078.5137,,118,118,,,,,,,,,,,,,,,,bars/018.png,bars/mask007.png,,,,,,,,,,,,0,2,,,,,,,6,4,6,5,,,,,,,,,,,1077.7635,1078.2636,1078.5138,1080.9087,space,2.3851,,1080.9088,32,28,1081.8981,1081.8981,1081.9254,,,,0,38,38,38,1,150,90,,,,,,,,
,,5d33ff76f665c6001ab9aa1e,65af538d60bcc53ab4af7bc0,2024-01-23_07h51.23.036,bars,2023.2.3,Win32,59.88023952,657b66ea316d21385b68909f,,,,,,,,,,,1081.9256,1082.915,,,1083.4153,1083.6654,,117,117,,,,,,,,,,,,,,,,bars/009.png,bars/mask001.png,,,,,,,,,,,,4,2,,,,,,,4,6,6,7,,,,,,,,,,,1082.915,1083.4152,1083.6654,1086.5163,space,2.8314,,1086.5164,78,12,1087.5165,1087.5165,1087.5438,,,,0,39,39,39,1,15,105,,,,,,,,
,,5d33ff76f665c6001ab9aa1e,65af538d60bcc53ab4af7bc0,2024-01-23_07h51.23.036,bars,2023.2.3,Win32,59.88023952,657b66ea316d21385b68909f,,,,,,,,,,,1087.5443,1088.5333,,,1089.0337,1089.2838,,147,-33,,,,,,,,,,,,,,,,bars/014.png,bars/mask005.png,,,,,,,,,,,,0,2,,,,,,,6,4,7,4,,,,,,,,,,,1088.5334,1089.0336,1089.2839,1092.1513,space,2.8517,,1092.1514,67,33,1093.1515,1093.1516,1093.1769,,,,0,40,40,40,1,80,0,,,,,,,,
,,5d33ff76f665c6001ab9aa1e,65af538d60bcc53ab4af7bc0,2024-01-23_07h51.23.036,bars,2023.2.3,Win32,59.88023952,657b66ea316d21385b68909f,,,,,,,,,,,1093.1772,1094.1687,,,1094.6688,1094.919,,132,132,,,,,,,,,,,,,,,,bars/003.png,bars/mask003.png,,,,,,,,,,,,1,2,,,,,,,4,2,5,1,,,,,,,,,,,1094.1687,1094.6688,1094.9191,1096.4696,space,1.5347,,1096.4696,73,8,1097.4697,1097.4697,1097.471,,,,0,41,41,41,1,25,140,,,,,,,,
,,5d33ff76f665c6001ab9aa1e,65af538d60bcc53ab4af7bc0,2024-01-23_07h51.23.036,bars,2023.2.3,Win32,59.88023952,657b66ea316d21385b68909f,,,,,,,,,,,1097.4714,1098.4701,,,1098.9712,1099.2202,,22,22,,,,,,,,,,,,,,,,bars/025.png,bars/mask006.png,,,,,,,,,,,,2,2,,,,,,,2,4,3,4,,,,,,,,,,,1098.4701,1098.9711,1099.2203,1100.4719,space,1.2405,,1100.4719,83,18,1101.4707,1101.4707,1101.472,,,,0,42,42,42,1,105,40,,,,,,,,
,,5d33ff76f665c6001ab9aa1e,65af538d60bcc53ab4af7bc0,2024-01-23_07h51.23.036,bars,2023.2.3,Win32,59.88023952,657b66ea316d21385b68909f,,,,,,,,,,,1101.4725,1102.4712,,,1102.9715,1103.2219,,42,222,,,,,,,,,,,,,,,,bars/047.png,bars/mask007.png,,,,,,,,,,,,0,1,,,,,,,4,2,5,1,,,,,,,,,,,1102.4712,1102.9714,1103.2221,1106.2069,space,2.9684,,1106.207,27,28,1107.206,1107.206,1107.2352,,,,0,43,43,43,1,15,70,,,,,,,,
,,5d33ff76f665c6001ab9aa1e,65af538d60bcc53ab4af7bc0,2024-01-23_07h51.23.036,bars,2023.2.3,Win32,59.88023952,657b66ea316d21385b68909f,,,,,,,,,,,1107.2357,1108.2395,,,1108.7395,1108.9898,,34,214,,,,,,,,,,,,,,,,bars/007.png,bars/mask004.png,,,,,,,,,,,,0,2,,,,,,,6,0,5,0,,,,,,,,,,,1108.2395,1108.7395,1108.9899,1111.9909,space,2.9889,,1111.9909,39,21,1112.991,1112.991,1113.02,,,,0,44,44,44,1,175,55,,,,,,,,
,,5d33ff76f665c6001ab9aa1e,65af538d60bcc53ab4af7bc0,2024-01-23_07h51.23.036,bars,2023.2.3,Win32,59.88023952,657b66ea316d21385b68909f,,,,,,,,,,,1113.0205,1114.0247,,,1114.5249,1114.775,,51,51,,,,,,,,,,,,,,,,bars/002.png,bars/mask007.png,,,,,,,,,,,,0,2,,,,,,,8,0,9,0,,,,,,,,,,,1114.0247,1114.5249,1114.7751,1117.1925,space,2.3977,,1117.1926,79,34,1118.1926,1118.1927,1118.2201,,,,0,45,45,45,1,130,85,,,,,,,,
,,5d33ff76f665c6001ab9aa1e,65af538d60bcc53ab4af7bc0,2024-01-23_07h51.23.036,bars,2023.2.3,Win32,59.88023952,657b66ea316d21385b68909f,,,,,,,,,,,1118.2205,1119.2097,,,1119.7098,1119.9598,,120,120,,,,,,,,,,,,,,,,bars/045.png,bars/mask009.png,,,,,,,,,,,,3,1,,,,,,,6,0,8,0,,,,,,,,,,,1119.2097,1119.7098,1119.9599,1122.9721,space,3.0026,,1122.9722,20,70,1123.9609,1123.9609,1123.9873,,,,0,46,46,46,1,100,10,,,,,,,,
,,5d33ff76f665c6001ab9aa1e,65af538d60bcc53ab4af7bc0,2024-01-23_07h51.23.036,bars,2023.2.3,Win32,59.88023952,657b66ea316d21385b68909f,,,,,,,,,,,1123.9876,1124.9773,,,1125.4782,1125.7283,,118,118,,,,,,,,,,,,,,,,bars/015.png,bars/mask005.png,,,,,,,,,,,,6,1,,,,,,,8,2,8,3,,,,,,,,,,,1124.9773,1125.4782,1125.7284,1127.4624,space,1.7263,,1127.4624,8,42,1128.4619,1128.4619,1128.4685,,,,0,47,47,47,1,110,160,,,,,,,,
,,5d33ff76f665c6001ab9aa1e,65af538d60bcc53ab4af7bc0,2024-01-23_07h51.23.036,bars,2023.2.3,Win32,59.88023952,657b66ea316d21385b68909f,,,,,,,,,,,1128.4686,1129.4627,,,1129.963,1130.213,,25,25,,,,,,,,,,,,,,,,bars/033.png,bars/mask003.png,,,,,,,,,,,,10,1,,,,,,,10,4,10,3,,,,,,,,,,,1129.4628,1129.963,1130.213,1131.847,space,1.6184,,1131.847,0,50,1132.8471,1132.8472,1132.8485,,,,0,48,48,48,1,25,155,,,,,,,,
,,5d33ff76f665c6001ab9aa1e,65af538d60bcc53ab4af7bc0,2024-01-23_07h51.23.036,bars,2023.2.3,Win32,59.88023952,657b66ea316d21385b68909f,,,,,,,,,,,1132.849,1133.8474,,,1134.3477,1134.5976,,47,47,,,,,,,,,,,,,,,,bars/029.png,bars/mask002.png,,,,,,,,,,,,2,2,,,,,,,10,2,10,2,,,,,,,,,,,1133.8475,1134.3476,1134.5977,1135.8484,space,1.2418,,1135.8485,43,2,1136.8484,1136.8485,1136.8517,,,,0,49,49,49,1,90,45,,,,,,,,
,,5d33ff76f665c6001ab9aa1e,65af538d60bcc53ab4af7bc0,2024-01-23_07h51.23.036,bars,2023.2.3,Win32,59.88023952,657b66ea316d21385b68909f,,,,,,,,,,,,,,,,,,,,,,,,,,,,,,,,,,,,,,,,,,,,,,,,,,,,,,,,,,,,,,,,,,,,,,,,,,,,,,,,,,,,,,,,,,,,,1136.8519,1196.8501,0,2,2,1,1,sequence_tables/blk046.csv
,,5d33ff76f665c6001ab9aa1e,65af538d60bcc53ab4af7bc0,2024-01-23_07h51.23.036,bars,2023.2.3,Win32,59.88023952,657b66ea316d21385b68909f,,,,,,,,,,,1203.57,1204.5359,,,1205.0361,1205.2862,,113,113,,,,,,,,,,,,,,,,bars/028.png,bars/mask003.png,,,,,,,,,,,,2,2,,,,,,,10,2,9,2,,,,,,1196.879,1203.5358,space,6.6403,,1204.536,1205.0361,1205.2863,1206.4868,space,1.1817,,1206.4869,68,7,1207.4868,1207.4868,1207.4882,,,,0,0,0,0,1,45,120,,,,,,,,
,,5d33ff76f665c6001ab9aa1e,65af538d60bcc53ab4af7bc0,2024-01-23_07h51.23.036,bars,2023.2.3,Win32,59.88023952,657b66ea316d21385b68909f,,,,,,,,,,,1207.4887,1208.4872,,,1208.9874,1209.2375,,62,62,,,,,,,,,,,,,,,,bars/002.png,bars/mask000.png,,,,,,,,,,,,0,2,,,,,,,8,0,8,0,,,,,,,,,,,1208.4873,1208.9874,1209.2376,1211.855,space,2.6058,,1211.8552,68,23,1212.8552,1212.8552,1212.8564,,,,0,1,1,1,1,130,85,,,,,,,,
,,5d33ff76f665c6001ab9aa1e,65af538d60bcc53ab4af7bc0,2024-01-23_07h51.23.036,bars,2023.2.3,Win32,59.88023952,657b66ea316d21385b68909f,,,,,,,,,,,1212.8569,1213.8554,,,1214.3557,1214.6057,,112,112,,,,,,,,,,,,,,,,bars/027.png,bars/mask003.png,,,,,,,,,,,,4,1,,,,,,,6,2,4,2,,,,,,,,,,,1213.8555,1214.3556,1214.6057,1217.163,space,2.5473,,1217.1631,2,62,1218.1567,1218.1568,1218.1852,,,,0,2,2,2,1,110,50,,,,,,,,
,,5d33ff76f665c6001ab9aa1e,65af538d60bcc53ab4af7bc0,2024-01-23_07h51.23.036,bars,2023.2.3,Win32,59.88023952,657b66ea316d21385b68909f,,,,,,,,,,,1218.1854,1219.1738,,,1219.674,1219.924,,50,50,,,,,,,,,,,,,,,,bars/031.png,bars/mask001.png,,,,,,,,,,,,1,2,,,,,,,8,0,6,1,,,,,,,,,,,1219.1738,1219.6739,1219.924,1221.8414,space,1.9065,,1221.8415,70,15,1222.8416,1222.8417,1222.8446,,,,0,3,3,3,1,120,35,,,,,,,,
,,5d33ff76f665c6001ab9aa1e,65af538d60bcc53ab4af7bc0,2024-01-23_07h51.23.036,bars,2023.2.3,Win32,59.88023952,657b66ea316d21385b68909f,,,,,,,,,,,1222.8451,1223.8419,,,1224.3421,1224.5922,,118,118,,,,,,,,,,,,,,,,bars/003.png,bars/mask001.png,,,,,,,,,,,,0,2,,,,,,,6,2,8,1,,,,,,,,,,,1223.8419,1224.342,1224.5922,1227.2265,space,2.6225,,1227.2267,87,22,1228.2265,1228.2266,1228.254,,,,0,4,4,4,1,25,140,,,,,,,,
,,5d33ff76f665c6001ab9aa1e,65af538d60bcc53ab4af7bc0,2024-01-23_07h51.23.036,bars,2023.2.3,Win32,59.88023952,657b66ea316d21385b68909f,,,,,,,,,,,1228.2545,1229.2436,,,1229.7438,1229.9938,,144,-36,,,,,,,,,,,,,,,,bars/008.png,bars/mask008.png,,,,,,,,,,,,0,1,,,,,,,4,0,6,0,,,,,,,,,,,1229.2437,1229.7437,1229.9939,1233.0944,space,3.0918,,1233.0944,34,36,1234.095,1234.0951,1234.1249,,,,0,5,5,5,1,110,0,,,,,,,,
,,5d33ff76f665c6001ab9aa1e,65af538d60bcc53ab4af7bc0,2024-01-23_07h51.23.036,bars,2023.2.3,Win32,59.88023952,657b66ea316d21385b68909f,,,,,,,,,,,1234.1255,1235.1287,,,1235.6289,1235.8789,,51,51,,,,,,,,,,,,,,,,bars/035.png,bars/mask003.png,,,,,,,,,,,,1,2,,,,,,,2,0,2,1,,,,,,,,,,,1235.1288,1235.6289,1235.879,1237.3903,space,1.4849,,1237.3904,56,9,1238.3797,1238.3797,1238.3828,,,,0,6,6,6,1,175,60,,,,,,,,
,,5d33ff76f665c6001ab9aa1e,65af538d60bcc53ab4af7bc0,2024-01-23_07h51.23.036,bars,2023.2.3,Win32,59.88023952,657b66ea316d21385b68909f,,,,,,,,,,,1238.3833,1239.38,,,1239.8802,1240.1302,,126,126,,,,,,,,,,,,,,,,bars/028.png,bars/mask006.png,,,,,,,,,,,,1,2,,,,,,,4,2,4,1,,,,,,,,,,,1239.38,1239.8802,1240.1303,1244.9819,space,4.8359,,1244.982,81,6,1245.9821,1245.9821,1246.0098,,,,0,7,7,7,1,45,120,,,,,,,,
,,5d33ff76f665c6001ab9aa1e,65af538d60bcc53ab4af7bc0,2024-01-23_07h51.23.036,bars,2023.2.3,Win32,59.88023952,657b66ea316d21385b68909f,,,,,,,,,,,1246.0103,1246.999,,,1247.4993,1247.7492,,48,48,,,,,,,,,,,,,,,,bars/025.png,bars/mask000.png,,,,,,,,,,,,1,2,,,,,,,6,0,6,1,,,,,,,,,,,1246.999,1247.4992,1247.7493,1250.0169,space,2.2572,,1250.0169,57,8,1251.0169,1251.017,1251.0443,,,,0,8,8,8,1,105,40,,,,,,,,
,,5d33ff76f665c6001ab9aa1e,65af538d60bcc53ab4af7bc0,2024-01-23_07h51.23.036,bars,2023.2.3,Win32,59.88023952,657b66ea316d21385b68909f,,,,,,,,,,,1251.0448,1252.034,,,1252.5343,1252.7841,,121,121,,,,,,,,,,,,,,,,bars/044.png,bars/mask001.png,,,,,,,,,,,,0,2,,,,,,,4,2,5,2,,,,,,,,,,,1252.0341,1252.5342,1252.7842,1255.8353,space,3.0319,,1255.8354,46,34,1256.8348,1256.8348,1256.8427,,,,0,9,9,9,1,75,155,,,,,,,,
,,5d33ff76f665c6001ab9aa1e,65af538d60bcc53ab4af7bc0,2024-01-23_07h51.23.036,bars,2023.2.3,Win32,59.88023952,657b66ea316d21385b68909f,,,,,,,,,,,1256.8428,1257.8451,,,1258.3357,1258.5858,,49,49,,,,,,,,,,,,,,,,bars/010.png,bars/mask008.png,,,,,,,,,,,,0,2,,,,,,,2,0,2,0,,,,,,,,,,,1257.8452,1258.3357,1258.5859,1260.0639,space,1.4517,,1260.0639,64,6,1261.0527,1261.0528,1261.0593,,,,0,10,10,10,1,165,55,,,,,,,,
,,5d33ff76f665c6001ab9aa1e,65af538d60bcc53ab4af7bc0,2024-01-23_07h51.23.036,bars,2023.2.3,Win32,59.88023952,657b66ea316d21385b68909f,,,,,,,,,,,1261.0594,1262.0536,,,1262.5538,1262.7972,,122,122,,,,,,,,,,,,,,,,bars/004.png,bars/mask002.png,,,,,,,,,,,,4,2,,,,,,,0,2,1,4,,,,,,,,,,,1262.0537,1262.5538,1262.7973,1264.6768,space,1.8632,,1264.6769,83,3,1265.6713,1265.6714,1265.7005,,,,0,11,11,11,1,25,125,,,,,,,,
,,5d33ff76f665c6001ab9aa1e,65af538d60bcc53ab4af7bc0,2024-01-23_07h51.23.036,bars,2023.2.3,Win32,59.88023952,657b66ea316d21385b68909f,,,,,,,,,,,1265.7009,1266.6884,,,1267.1887,1267.4387,,50,50,,,,,,,,,,,,,,,,bars/001.png,bars/mask002.png,,,,,,,,,,,,0,2,,,,,,,2,0,2,0,,,,,,,,,,,1266.6885,1267.1886,1267.4388,1269.5563,space,2.1037,,1269.5564,80,35,1270.5563,1270.5563,1270.5576,,,,0,12,12,12,1,130,85,,,,,,,,
,,5d33ff76f665c6001ab9aa1e,65af538d60bcc53ab4af7bc0,2024-01-23_07h51.23.036,bars,2023.2.3,Win32,59.88023952,657b66ea316d21385b68909f,,,,,,,,,,,1270.5581,1271.5566,,,1272.0452,1272.2903,,116,116,,,,,,,,,,,,,,,,bars/023.png,bars/mask001.png,,,,,,,,,,,,1,2,,,,,,,0,2,1,1,,,,,,,,,,,1271.5566,1272.045,1272.2903,1275.703,space,3.3859,,1275.703,84,1,1276.6914,1276.6915,1276.7172,,,,0,13,13,13,1,20,115,,,,,,,,
,,5d33ff76f665c6001ab9aa1e,65af538d60bcc53ab4af7bc0,2024-01-23_07h51.23.036,bars,2023.2.3,Win32,59.88023952,657b66ea316d21385b68909f,,,,,,,,,,,1276.7175,1277.7085,,,1278.2087,1278.4587,,109,109,,,,,,,,,,,,,,,,bars/019.png,bars/mask003.png,,,,,,,,,,,,0,2,,,,,,,2,0,1,0,,,,,,,,,,,1277.7086,1278.2087,1278.4588,1280.6263,space,2.1515,,1280.6264,64,4,1281.6261,1281.6262,1281.643,,,,0,14,14,14,1,45,105,,,,,,,,
,,5d33ff76f665c6001ab9aa1e,65af538d60bcc53ab4af7bc0,2024-01-23_07h51.23.036,bars,2023.2.3,Win32,59.88023952,657b66ea316d21385b68909f,,,,,,,,,,,1281.6434,1282.6433,,,1283.1436,1283.3936,,53,53,,,,,,,,,,,,,,,,bars/036.png,bars/mask004.png,,,,,,,,,,,,0,2,,,,,,,4,2,4,3,,,,,,,,,,,1282.6434,1283.1436,1283.3936,1287.5784,space,4.1687,,1287.5786,88,33,1288.5785,1288.5786,1288.6003,,,,0,15,15,15,1,145,20,,,,,,,,
,,5d33ff76f665c6001ab9aa1e,65af538d60bcc53ab4af7bc0,2024-01-23_07h51.23.036,bars,2023.2.3,Win32,59.88023952,657b66ea316d21385b68909f,,,,,,,,,,,1288.6006,1289.5886,,,1290.0791,1290.3291,,107,107,,,,,,,,,,,,,,,,bars/037.png,bars/mask004.png,,,,,,,,,,,,3,2,,,,,,,2,4,2,3,,,,,,,,,,,1289.5886,1290.0791,1290.3292,1291.657,space,1.3013,,1291.6571,43,2,1292.6478,1292.6478,1292.649,,,,0,16,16,16,1,150,105,,,,,,,,
,,5d33ff76f665c6001ab9aa1e,65af538d60bcc53ab4af7bc0,2024-01-23_07h51.23.036,bars,2023.2.3,Win32,59.88023952,657b66ea316d21385b68909f,,,,,,,,,,,1292.6495,1293.6468,,,1294.147,1294.3905,,41,221,,,,,,,,,,,,,,,,bars/031.png,bars/mask006.png,,,,,,,,,,,,3,2,,,,,,,4,2,7,4,,,,,,,,,,,1293.6468,1294.147,1294.3906,1296.909,space,2.502,,1296.909,79,6,1297.8981,1297.8982,1297.9258,,,,0,17,17,17,1,120,35,,,,,,,,
,,5d33ff76f665c6001ab9aa1e,65af538d60bcc53ab4af7bc0,2024-01-23_07h51.23.036,bars,2023.2.3,Win32,59.88023952,657b66ea316d21385b68909f,,,,,,,,,,,1297.9261,1298.9151,,,1299.4153,1299.6652,,25,25,,,,,,,,,,,,,,,,bars/036.png,bars/mask006.png,,,,,,,,,,,,3,2,,,,,,,6,4,6,4,,,,,,,,,,,1298.9152,1299.4152,1299.6653,1301.2827,space,1.6053,,1301.2828,60,5,1302.2828,1302.2829,1302.2841,,,,0,18,18,18,1,145,20,,,,,,,,
,,5d33ff76f665c6001ab9aa1e,65af538d60bcc53ab4af7bc0,2024-01-23_07h51.23.036,bars,2023.2.3,Win32,59.88023952,657b66ea316d21385b68909f,,,,,,,,,,,1302.2846,1303.2831,,,1303.7832,1304.0333,,14,14,,,,,,,,,,,,,,,,bars/008.png,bars/mask000.png,,,,,,,,,,,,3,2,,,,,,,4,6,1,6,,,,,,,,,,,1303.2831,1303.7832,1304.0334,1305.167,space,1.1251,,1305.1671,84,14,1306.1673,1306.1674,1306.1686,,,,0,19,19,19,1,110,0,,,,,,,,
,,5d33ff76f665c6001ab9aa1e,65af538d60bcc53ab4af7bc0,2024-01-23_07h51.23.036,bars,2023.2.3,Win32,59.88023952,657b66ea316d21385b68909f,,,,,,,,,,,1306.1692,1307.254,,,1307.6846,1307.9191,,129,-51,,,,,,,,,,,,,,,,bars/042.png,bars/mask008.png,,,,,,,,,,,,2,1,,,,,,,6,4,5,5,,,,,,,,,,,1307.2541,1307.6845,1307.9191,1310.9629,space,3.0185,,1310.963,16,54,1311.9574,1311.9575,1311.988,,,,0,20,20,20,1,145,75,,,,,,,,
,,5d33ff76f665c6001ab9aa1e,65af538d60bcc53ab4af7bc0,2024-01-23_07h51.23.036,bars,2023.2.3,Win32,59.88023952,657b66ea316d21385b68909f,,,,,,,,,,,1311.9886,1312.9861,,,1313.4863,1313.7459,,43,43,,,,,,,,,,,,,,,,bars/046.png,bars/mask007.png,,,,,,,,,,,,0,2,,,,,,,8,2,8,3,,,,,,,,,,,1312.9861,1313.4863,1313.746,1315.3811,space,1.618,,1315.3812,68,42,1316.3701,1316.3702,1316.3721,,,,0,21,21,21,1,155,85,,,,,,,,
,,5d33ff76f665c6001ab9aa1e,65af538d60bcc53ab4af7bc0,2024-01-23_07h51.23.036,bars,2023.2.3,Win32,59.88023952,657b66ea316d21385b68909f,,,,,,,,,,,1316.3725,1317.3706,,,1317.871,1318.1209,,134,134,,,,,,,,,,,,,,,,bars/049.png,bars/mask008.png,,,,,,,,,,,,2,2,,,,,,,6,4,6,5,,,,,,,,,,,1317.3706,1317.8709,1318.121,1319.6323,space,1.5013,,1319.6323,26,19,1320.6217,1320.6218,1320.6231,,,,0,22,22,22,1,160,115,,,,,,,,
,,5d33ff76f665c6001ab9aa1e,65af538d60bcc53ab4af7bc0,2024-01-23_07h51.23.036,bars,2023.2.3,Win32,59.88023952,657b66ea316d21385b68909f,,,,,,,,,,,1320.6236,1321.6221,,,1322.1271,1322.3718,,35,35,,,,,,,,,,,,,,,,bars/042.png,bars/mask003.png,,,,,,,,,,,,0,2,,,,,,,8,2,7,0,,,,,,,,,,,1321.6222,1322.127,1322.3718,1323.5228,space,1.1189,,1323.5229,70,40,1324.5224,1324.5225,1324.523,,,,0,23,23,23,1,145,75,,,,,,,,
,,5d33ff76f665c6001ab9aa1e,65af538d60bcc53ab4af7bc0,2024-01-23_07h51.23.036,bars,2023.2.3,Win32,59.88023952,657b66ea316d21385b68909f,,,,,,,,,,,1324.5231,1325.5226,,,1326.0235,1326.2729,,141,-39,,,,,,,,,,,,,,,,bars/040.png,bars/mask009.png,,,,,,,,,,,,7,1,,,,,,,6,0,7,0,,,,,,,,,,,1325.5226,1326.0234,1326.2729,1330.8526,space,4.5533,,1330.8526,1,44,1331.8419,1331.842,1331.8714,,,,0,24,24,24,1,140,5,,,,,,,,
,,5d33ff76f665c6001ab9aa1e,65af538d60bcc53ab4af7bc0,2024-01-23_07h51.23.036,bars,2023.2.3,Win32,59.88023952,657b66ea316d21385b68909f,,,,,,,,,,,1331.8718,1332.8755,,,1333.3757,1333.6258,,35,215,,,,,,,,,,,,,,,,bars/008.png,bars/mask002.png,,,,,,,,,,,,0,2,,,,,,,4,0,5,1,,,,,,,,,,,1332.8755,1333.3757,1333.6258,1336.1768,space,2.5316,,1336.1769,75,35,1337.1769,1337.1769,1337.1799,,,,0,25,25,25,1,110,0,,,,,,,,
,,5d33ff76f665c6001ab9aa1e,65af538d60bcc53ab4af7bc0,2024-01-23_07h51.23.036,bars,2023.2.3,Win32,59.88023952,657b66ea316d21385b68909f,,,,,,,,,,,1337.1805,1338.1772,,,1338.6774,1338.9275,,39,219,,,,,,,,,,,,,,,,bars/025.png,bars/mask005.png,,,,,,,,,,,,2,2,,,,,,,6,2,7,2,,,,,,,,,,,1338.1772,1338.6773,1338.9275,1341.4616,space,2.5221,,1341.4617,66,1,1342.4617,1342.4619,1342.4893,,,,0,26,26,26,1,105,40,,,,,,,,
,,5d33ff76f665c6001ab9aa1e,65af538d60bcc53ab4af7bc0,2024-01-23_07h51.23.036,bars,2023.2.3,Win32,59.88023952,657b66ea316d21385b68909f,,,,,,,,,,,1342.4898,1343.4788,,,1343.9792,1344.2292,,24,204,,,,,,,,,,,,,,,,bars/012.png,bars/mask000.png,,,,,,,,,,,,0,2,,,,,,,8,0,8,0,,,,,,,,,,,1343.4788,1343.979,1344.2292,1348.1806,space,3.9334,,1348.1806,66,9,1349.1804,1349.1805,1349.2079,,,,0,27,27,27,1,90,15,,,,,,,,
,,5d33ff76f665c6001ab9aa1e,65af538d60bcc53ab4af7bc0,2024-01-23_07h51.23.036,bars,2023.2.3,Win32,59.88023952,657b66ea316d21385b68909f,,,,,,,,,,,1349.2084,1350.1977,,,1350.6978,1350.9478,,134,134,,,,,,,,,,,,,,,,bars/003.png,bars/mask006.png,,,,,,,,,,,,0,2,,,,,,,6,2,7,0,,,,,,,,,,,1350.1977,1350.6977,1350.9478,1352.2484,space,1.2904,,1352.2485,71,6,1353.2485,1353.2485,1353.2498,,,,0,28,28,28,1,25,140,,,,,,,,
,,5d33ff76f665c6001ab9aa1e,65af538d60bcc53ab4af7bc0,2024-01-23_07h51.23.036,bars,2023.2.3,Win32,59.88023952,657b66ea316d21385b68909f,,,,,,,,,,,1353.2504,1354.2501,,,1354.7491,1354.9991,,106,106,,,,,,,,,,,,,,,,bars/023.png,bars/mask002.png,,,,,,,,,,,,3,2,,,,,,,8,4,7,4,,,,,,,,,,,1354.2501,1354.7491,1354.9991,1357.65,space,2.6351,,1357.65,86,9,1358.6501,1358.6502,1358.6776,,,,0,29,29,29,1,20,115,,,,,,,,
,,5d33ff76f665c6001ab9aa1e,65af538d60bcc53ab4af7bc0,2024-01-23_07h51.23.036,bars,2023.2.3,Win32,59.88023952,657b66ea316d21385b68909f,,,,,,,,,,,1358.6781,1359.6672,,,1360.1673,1360.4174,,141,-39,,,,,,,,,,,,,,,,bars/044.png,bars/mask003.png,,,,,,,,,,,,3,2,,,,,,,10,6,10,6,,,,,,,,,,,1359.6672,1360.1673,1360.4174,1364.1186,space,3.6928,,1364.1186,66,14,1365.1189,1365.119,1365.1479,,,,0,30,30,30,1,75,155,,,,,,,,
,,5d33ff76f665c6001ab9aa1e,65af538d60bcc53ab4af7bc0,2024-01-23_07h51.23.036,bars,2023.2.3,Win32,59.88023952,657b66ea316d21385b68909f,,,,,,,,,,,1365.1484,1366.1524,,,1366.6526,1366.9027,,123,123,,,,,,,,,,,,,,,,bars/008.png,bars/mask002.png,,,,,,,,,,,,6,1,,,,,,,10,8,10,9,,,,,,,,,,,1366.1524,1366.6526,1366.9028,1369.2869,space,2.3739,,1369.2869,13,57,1370.287,1370.2872,1370.3156,,,,0,31,31,31,1,110,0,,,,,,,,
,,5d33ff76f665c6001ab9aa1e,65af538d60bcc53ab4af7bc0,2024-01-23_07h51.23.036,bars,2023.2.3,Win32,59.88023952,657b66ea316d21385b68909f,,,,,,,,,,,1370.3159,1371.3041,,,1371.8044,1372.0544,,98,98,,,,,,,,,,,,,,,,bars/027.png,bars/mask006.png,,,,,,,,,,,,5,1,,,,,,,10,10,9,9,,,,,,,,,,,1371.3041,1371.8043,1372.0544,1374.1219,space,2.0519,,1374.1219,12,48,1375.122,1375.1221,1375.1234,,,,0,32,32,32,1,110,50,,,,,,,,
,,5d33ff76f665c6001ab9aa1e,65af538d60bcc53ab4af7bc0,2024-01-23_07h51.23.036,bars,2023.2.3,Win32,59.88023952,657b66ea316d21385b68909f,,,,,,,,,,,1375.1239,1376.1223,,,1376.623,1376.8726,,49,49,,,,,,,,,,,,,,,,bars/035.png,bars/mask001.png,,,,,,,,,,,,6,2,,,,,,,8,10,9,10,,,,,,,,,,,1376.1224,1376.6229,1376.8727,1378.9067,space,2.0189,,1378.9067,54,11,1379.9069,1379.9069,1379.936,,,,0,33,33,33,1,175,60,,,,,,,,
,,5d33ff76f665c6001ab9aa1e,65af538d60bcc53ab4af7bc0,2024-01-23_07h51.23.036,bars,2023.2.3,Win32,59.88023952,657b66ea316d21385b68909f,,,,,,,,,,,1379.9365,1380.9404,,,1381.4404,1381.6906,,40,220,,,,,,,,,,,,,,,,bars/007.png,bars/mask007.png,,,,,,,,,,,,4,2,,,,,,,10,8,10,8,,,,,,,,,,,1380.9404,1381.4403,1381.6907,1384.8584,space,3.1518,,1384.8585,45,15,1385.8585,1385.8586,1385.8859,,,,0,34,34,34,1,175,55,,,,,,,,
,,5d33ff76f665c6001ab9aa1e,65af538d60bcc53ab4af7bc0,2024-01-23_07h51.23.036,bars,2023.2.3,Win32,59.88023952,657b66ea316d21385b68909f,,,,,,,,,,,1385.8864,1386.8756,,,1387.3805,1387.6258,,45,45,,,,,,,,,,,,,,,,bars/022.png,bars/mask007.png,,,,,,,,,,,,1,2,,,,,,,10,6,10,7,,,,,,,,,,,1386.8756,1387.3805,1387.6259,1390.271,space,2.6353,,1390.2711,50,25,1391.2603,1391.2604,1391.2618,,,,0,35,35,35,1,95,20,,,,,,,,
,,5d33ff76f665c6001ab9aa1e,65af538d60bcc53ab4af7bc0,2024-01-23_07h51.23.036,bars,2023.2.3,Win32,59.88023952,657b66ea316d21385b68909f,,,,,,,,,,,1391.2624,1392.2605,,,1392.754,1392.9938,,111,111,,,,,,,,,,,,,,,,bars/009.png,bars/mask006.png,,,,,,,,,,,,5,2,,,,,,,8,8,8,6,,,,,,,,,,,1392.2606,1392.754,1392.9938,1395.3786,space,2.3554,,1395.3786,84,6,1396.3834,1396.3834,1396.4109,,,,0,36,36,36,1,15,105,,,,,,,,
,,5d33ff76f665c6001ab9aa1e,65af538d60bcc53ab4af7bc0,2024-01-23_07h51.23.036,bars,2023.2.3,Win32,59.88023952,657b66ea316d21385b68909f,,,,,,,,,,,1396.4115,1397.4121,,,1397.9123,1398.1736,,46,46,,,,,,,,,,,,,,,,bars/025.png,bars/mask003.png,,,,,,,,,,,,8,2,,,,,,,10,10,9,10,,,,,,,,,,,1397.4121,1397.9123,1398.1736,1400.1798,space,1.9858,,1400.18,59,6,1401.1799,1401.18,1401.1813,,,,0,37,37,37,1,105,40,,,,,,,,
,,5d33ff76f665c6001ab9aa1e,65af538d60bcc53ab4af7bc0,2024-01-23_07h51.23.036,bars,2023.2.3,Win32,59.88023952,657b66ea316d21385b68909f,,,,,,,,,,,1401.1818,1402.1802,,,1402.6805,1402.9305,,60,60,,,,,,,,,,,,,,,,bars/035.png,bars/mask005.png,,,,,,,,,,,,10,2,,,,,,,10,10,8,10,,,,,,,,,,,1402.1803,1402.6804,1402.9305,1405.5985,space,2.6562,,1405.5986,65,0,1406.5977,1406.5977,1406.6048,,,,0,38,38,38,1,175,60,,,,,,,,
,,5d33ff76f665c6001ab9aa1e,65af538d60bcc53ab4af7bc0,2024-01-23_07h51.23.036,bars,2023.2.3,Win32,59.88023952,657b66ea316d21385b68909f,,,,,,,,,,,1406.6049,1407.5979,,,1408.0985,1408.3483,,120,120,,,,,,,,,,,,,,,,bars/017.png,bars/mask007.png,,,,,,,,,,,,1,1,,,,,,,10,10,8,9,,,,,,,,,,,1407.598,1408.0984,1408.3483,1410.6331,space,2.2659,,1410.6331,25,75,1411.6332,1411.6332,1411.6585,,,,0,39,39,39,1,145,45,,,,,,,,
,,5d33ff76f665c6001ab9aa1e,65af538d60bcc53ab4af7bc0,2024-01-23_07h51.23.036,bars,2023.2.3,Win32,59.88023952,657b66ea316d21385b68909f,,,,,,,,,,,1411.6587,1412.6503,,,1413.1504,1413.4005,,61,61,,,,,,,,,,,,,,,,bars/002.png,bars/mask001.png,,,,,,,,,,,,2,2,,,,,,,8,10,10,10,,,,,,,,,,,1412.6504,1413.1503,1413.4005,1415.401,space,1.9817,,1415.401,69,24,1416.4012,1416.4013,1416.4276,,,,0,40,40,40,1,130,85,,,,,,,,
,,5d33ff76f665c6001ab9aa1e,65af538d60bcc53ab4af7bc0,2024-01-23_07h51.23.036,bars,2023.2.3,Win32,59.88023952,657b66ea316d21385b68909f,,,,,,,,,,,1416.428,1417.4183,,,1417.9184,1418.1685,,137,-43,,,,,,,,,,,,,,,,bars/043.png,bars/mask003.png,,,,,,,,,,,,8,2,,,,,,,10,10,10,10,,,,,,,,,,,1417.4183,1417.9184,1418.1685,1421.5865,space,3.4041,,1421.5866,73,7,1422.5865,1422.5866,1422.6093,,,,0,41,41,41,1,30,130,,,,,,,,
,,5d33ff76f665c6001ab9aa1e,65af538d60bcc53ab4af7bc0,2024-01-23_07h51.23.036,bars,2023.2.3,Win32,59.88023952,657b66ea316d21385b68909f,,,,,,,,,,,1422.6096,1423.6035,,,1424.1038,1424.3538,,56,236,,,,,,,,,,,,,,,,bars/031.png,bars/mask003.png,,,,,,,,,,,,3,2,,,,,,,10,10,9,10,,,,,,,,,,,1423.6035,1424.1037,1424.3538,1428.2657,space,3.9021,,1428.2658,64,21,1429.2553,1429.2553,1429.283,,,,0,42,42,42,1,120,35,,,,,,,,
,,5d33ff76f665c6001ab9aa1e,65af538d60bcc53ab4af7bc0,2024-01-23_07h51.23.036,bars,2023.2.3,Win32,59.88023952,657b66ea316d21385b68909f,,,,,,,,,,,1429.2834,1430.2721,,,1430.7725,1431.0225,,78,78,,,,,,,,,,,,,,,,bars/046.png,bars/mask002.png,,,,,,,,,,,,8,2,,,,,,,8,10,8,10,,,,,,,,,,,1430.2721,1430.7724,1431.0225,1431.8396,space,0.8072,,1431.8397,77,7,1432.8397,1432.8398,1432.841,,,,0,43,43,43,1,155,85,,,,,,,,
,,5d33ff76f665c6001ab9aa1e,65af538d60bcc53ab4af7bc0,2024-01-23_07h51.23.036,bars,2023.2.3,Win32,59.88023952,657b66ea316d21385b68909f,,,,,,,,,,,1432.8416,1433.84,,,1434.3403,1434.5903,,122,122,,,,,,,,,,,,,,,,bars/044.png,bars/mask001.png,,,,,,,,,,,,0,2,,,,,,,6,8,6,9,,,,,,,,,,,1433.84,1434.3402,1434.5903,1436.6243,space,2.0235,,1436.6245,47,33,1437.6245,1437.6246,1437.6519,,,,0,44,44,44,1,75,155,,,,,,,,
,,5d33ff76f665c6001ab9aa1e,65af538d60bcc53ab4af7bc0,2024-01-23_07h51.23.036,bars,2023.2.3,Win32,59.88023952,657b66ea316d21385b68909f,,,,,,,,,,,1437.6524,1438.6415,,,1439.1417,1439.3918,,50,230,,,,,,,,,,,,,,,,bars/007.png,bars/mask004.png,,,,,,,,,,,,6,2,,,,,,,4,6,3,7,,,,,,,,,,,1438.6415,1439.1417,1439.3919,1442.0428,space,2.6316,,1442.0429,55,5,1443.0429,1443.0429,1443.0702,,,,0,45,45,45,1,175,55,,,,,,,,
,,5d33ff76f665c6001ab9aa1e,65af538d60bcc53ab4af7bc0,2024-01-23_07h51.23.036,bars,2023.2.3,Win32,59.88023952,657b66ea316d21385b68909f,,,,,,,,,,,1443.0707,1444.0598,,,1444.5601,1444.8102,,131,131,,,,,,,,,,,,,,,,bars/028.png,bars/mask000.png,,,,,,,,,,,,3,2,,,,,,,6,4,5,4,,,,,,,,,,,1444.0599,1444.56,1444.8102,1446.2775,space,1.4519,,1446.2777,86,11,1447.2775,1447.2775,1447.2789,,,,0,46,46,46,1,45,120,,,,,,,,
,,5d33ff76f665c6001ab9aa1e,65af538d60bcc53ab4af7bc0,2024-01-23_07h51.23.036,bars,2023.2.3,Win32,59.88023952,657b66ea316d21385b68909f,,,,,,,,,,,1447.2794,1448.2778,,,1448.778,1449.0281,,125,125,,,,,,,,,,,,,,,,bars/019.png,bars/mask005.png,,,,,,,,,,,,0,2,,,,,,,8,2,7,1,,,,,,,,,,,1448.2778,1448.7779,1449.0281,1453.0294,space,3.9859,,1453.0294,80,20,1454.0295,1454.0296,1454.0585,,,,0,47,47,47,1,45,105,,,,,,,,
,,5d33ff76f665c6001ab9aa1e,65af538d60bcc53ab4af7bc0,2024-01-23_07h51.23.036,bars,2023.2.3,Win32,59.88023952,657b66ea316d21385b68909f,,,,,,,,,,,1454.059,1455.0632,,,1455.5733,1455.8131,,110,110,,,,,,,,,,,,,,,,bars/024.png,bars/mask002.png,,,,,,,,,,,,4,1,,,,,,,6,4,6,4,,,,,,,,,,,1455.0632,1455.5733,1455.8131,1458.1143,space,2.2853,,1458.1144,10,60,1459.1145,1459.1145,1459.1175,,,,0,48,48,48,1,120,170,,,,,,,,
,,5d33ff76f665c6001ab9aa1e,65af538d60bcc53ab4af7bc0,2024-01-23_07h51.23.036,bars,2023.2.3,Win32,59.88023952,657b66ea316d21385b68909f,,,,,,,,,,,1459.1181,1460.1148,,,1460.615,1460.865,,116,116,,,,,,,,,,,,,,,,bars/049.png,bars/mask005.png,,,,,,,,,,,,5,2,,,,,,,4,6,4,5,,,,,,,,,,,1460.1148,1460.6149,1460.8651,1463.7329,space,2.8381,,1463.733,44,1,1464.7329,1464.7329,1464.7622,,,,0,49,49,49,1,160,115,,,,,,,,
,,5d33ff76f665c6001ab9aa1e,65af538d60bcc53ab4af7bc0,2024-01-23_07h51.23.036,bars,2023.2.3,Win32,59.88023952,657b66ea316d21385b68909f,,,,,,,,,,,,,,,,,,,,,,,,,,,,,,,,,,,,,,,,,,,,,,,,,,,,,,,,,,,,,,,,,,,,,,,,,,,,,,,,,,,,,,,,,,,,,1464.7626,1524.7508,0,3,3,3,1,sequence_tables/blk033.csv
,,5d33ff76f665c6001ab9aa1e,65af538d60bcc53ab4af7bc0,2024-01-23_07h51.23.036,bars,2023.2.3,Win32,59.88023952,657b66ea316d21385b68909f,,,,,,,,,,,1527.6309,1528.619,,,1529.1195,1529.3695,,75,75,,,,,,,,,,,,,,,,bars/018.png,bars/mask009.png,,,,,,,,,,,,0,2,,,,,,,8,1,8,0,,,,,,1524.7607,1527.6191,space,2.8461,,1528.619,1529.1195,1529.3696,1530.1366,space,0.7523,,1530.1368,75,15,1531.1367,1531.1367,1531.1379,,,,0,0,0,0,1,150,90,,,,,,,,
,,5d33ff76f665c6001ab9aa1e,65af538d60bcc53ab4af7bc0,2024-01-23_07h51.23.036,bars,2023.2.3,Win32,59.88023952,657b66ea316d21385b68909f,,,,,,,,,,,1531.1386,1532.137,,,1532.6375,1532.8873,,149,-31,,,,,,,,,,,,,,,,bars/014.png,bars/mask008.png,,,,,,,,,,,,0,2,,,,,,,6,3,5,3,,,,,,,,,,,1532.1371,1532.6373,1532.8873,1536.8664,space,3.9693,,1536.8664,69,31,1537.8554,1537.8555,1537.8829,,,,0,1,1,1,1,80,0,,,,,,,,
,,5d33ff76f665c6001ab9aa1e,65af538d60bcc53ab4af7bc0,2024-01-23_07h51.23.036,bars,2023.2.3,Win32,59.88023952,657b66ea316d21385b68909f,,,,,,,,,,,1537.8834,1538.8724,,,1539.3727,1539.6227,,56,56,,,,,,,,,,,,,,,,bars/007.png,bars/mask003.png,,,,,,,,,,,,6,2,,,,,,,4,5,5,6,,,,,,,,,,,1538.8725,1539.3727,1539.6227,1543.4741,space,3.8317,,1543.4741,61,1,1544.4741,1544.4742,1544.4988,,,,0,2,2,2,1,175,55,,,,,,,,
,,5d33ff76f665c6001ab9aa1e,65af538d60bcc53ab4af7bc0,2024-01-23_07h51.23.036,bars,2023.2.3,Win32,59.88023952,657b66ea316d21385b68909f,,,,,,,,,,,1544.4991,1545.4911,,,1545.9914,1546.2413,,56,56,,,,,,,,,,,,,,,,bars/007.png,bars/mask008.png,,,,,,,,,,,,2,2,,,,,,,6,3,6,2,,,,,,,,,,,1545.4911,1545.9913,1546.2413,1549.5759,space,3.3188,,1549.576,61,1,1550.5761,1550.5761,1550.6038,,,,0,3,3,3,1,175,55,,,,,,,,
,,5d33ff76f665c6001ab9aa1e,65af538d60bcc53ab4af7bc0,2024-01-23_07h51.23.036,bars,2023.2.3,Win32,59.88023952,657b66ea316d21385b68909f,,,,,,,,,,,1550.6043,1551.5924,,,1552.0926,1552.3432,,146,146,,,,,,,,,,,,,,,,bars/014.png,bars/mask003.png,,,,,,,,,,,,0,2,,,,,,,8,1,6,0,,,,,,,,,,,1551.5924,1552.0926,1552.3433,1553.4438,space,1.0881,,1553.444,66,34,1554.4438,1554.4439,1554.4454,,,,0,4,4,4,1,80,0,,,,,,,,
,,5d33ff76f665c6001ab9aa1e,65af538d60bcc53ab4af7bc0,2024-01-23_07h51.23.036,bars,2023.2.3,Win32,59.88023952,657b66ea316d21385b68909f,,,,,,,,,,,1554.446,1555.4442,,,1555.9444,1556.1945,,42,42,,,,,,,,,,,,,,,,bars/027.png,bars/mask000.png,,,,,,,,,,,,2,2,,,,,,,10,3,10,3,,,,,,,,,,,1555.4443,1555.9444,1556.1946,1558.0452,space,1.8347,,1558.0453,68,8,1559.0454,1559.0454,1559.0727,,,,0,5,5,5,1,110,50,,,,,,,,
,,5d33ff76f665c6001ab9aa1e,65af538d60bcc53ab4af7bc0,2024-01-23_07h51.23.036,bars,2023.2.3,Win32,59.88023952,657b66ea316d21385b68909f,,,,,,,,,,,1559.0731,1560.0623,,,1560.5626,1560.8125,,19,199,,,,,,,,,,,,,,,,bars/032.png,bars/mask005.png,,,,,,,,,,,,0,2,,,,,,,8,1,8,0,,,,,,,,,,,1560.0623,1560.5624,1560.8126,1563.7079,space,2.8687,,1563.7079,74,1,1564.6971,1564.6972,1564.7197,,,,0,6,6,6,1,125,20,,,,,,,,
,,5d33ff76f665c6001ab9aa1e,65af538d60bcc53ab4af7bc0,2024-01-23_07h51.23.036,bars,2023.2.3,Win32,59.88023952,657b66ea316d21385b68909f,,,,,,,,,,,1564.72,1565.7238,,,1566.2143,1566.4643,,150,150,,,,,,,,,,,,,,,,bars/015.png,bars/mask005.png,,,,,,,,,,,,0,2,,,,,,,6,0,6,0,,,,,,,,,,,1565.7239,1566.2143,1566.4643,1570.6598,space,4.169,,1570.6599,40,10,1571.6492,1571.6492,1571.6753,,,,0,7,7,7,1,110,160,,,,,,,,
,,5d33ff76f665c6001ab9aa1e,65af538d60bcc53ab4af7bc0,2024-01-23_07h51.23.036,bars,2023.2.3,Win32,59.88023952,657b66ea316d21385b68909f,,,,,,,,,,,1571.6754,1572.6663,,,1573.1669,1573.4166,,71,71,,,,,,,,,,,,,,,,bars/026.png,bars/mask008.png,,,,,,,,,,,,0,2,,,,,,,4,0,6,0,,,,,,,,,,,1572.6664,1573.1668,1573.4167,1573.9671,space,0.5385,,1573.9672,36,14,1574.9672,1574.9672,1574.9691,,,,0,8,8,8,1,35,85,,,,,,,,
,,5d33ff76f665c6001ab9aa1e,65af538d60bcc53ab4af7bc0,2024-01-23_07h51.23.036,bars,2023.2.3,Win32,59.88023952,657b66ea316d21385b68909f,,,,,,,,,,,1574.9699,1575.9673,,,1576.4676,1576.7174,,55,55,,,,,,,,,,,,,,,,bars/041.png,bars/mask005.png,,,,,,,,,,,,0,2,,,,,,,6,0,6,0,,,,,,,,,,,1575.9673,1576.4675,1576.7176,1579.3372,space,2.6088,,1579.3374,35,30,1580.3353,1580.3353,1580.3626,,,,0,9,9,9,1,20,85,,,,,,,,
,,5d33ff76f665c6001ab9aa1e,65af538d60bcc53ab4af7bc0,2024-01-23_07h51.23.036,bars,2023.2.3,Win32,59.88023952,657b66ea316d21385b68909f,,,,,,,,,,,1580.3631,1581.3522,,,1581.8524,1582.1022,,48,48,,,,,,,,,,,,,,,,bars/038.png,bars/mask000.png,,,,,,,,,,,,1,2,,,,,,,8,2,8,3,,,,,,,,,,,1581.3522,1581.8523,1582.1022,1583.8138,space,1.69,,1583.8138,63,22,1584.8033,1584.8034,1584.8046,,,,0,10,10,10,1,165,70,,,,,,,,
,,5d33ff76f665c6001ab9aa1e,65af538d60bcc53ab4af7bc0,2024-01-23_07h51.23.036,bars,2023.2.3,Win32,59.88023952,657b66ea316d21385b68909f,,,,,,,,,,,1584.8051,1585.8036,,,1586.3033,1586.5534,,151,-29,,,,,,,,,,,,,,,,bars/024.png,bars/mask008.png,,,,,,,,,,,,0,2,,,,,,,6,0,7,0,,,,,,,,,,,1585.8037,1586.3033,1586.5534,1589.2823,space,2.702,,1589.2824,31,19,1590.2716,1590.2717,1590.299,,,,0,11,11,11,1,120,170,,,,,,,,
,,5d33ff76f665c6001ab9aa1e,65af538d60bcc53ab4af7bc0,2024-01-23_07h51.23.036,bars,2023.2.3,Win32,59.88023952,657b66ea316d21385b68909f,,,,,,,,,,,1590.2996,1591.2887,,,1591.7888,1592.0389,,51,231,,,,,,,,,,,,,,,,bars/021.png,bars/mask000.png,,,,,,,,,,,,1,2,,,,,,,4,2,5,2,,,,,,,,,,,1591.2887,1591.7887,1592.0389,1595.5011,space,3.4523,,1595.5012,76,19,1596.4902,1596.4903,1596.516,,,,0,12,12,12,1,155,70,,,,,,,,
,,5d33ff76f665c6001ab9aa1e,65af538d60bcc53ab4af7bc0,2024-01-23_07h51.23.036,bars,2023.2.3,Win32,59.88023952,657b66ea316d21385b68909f,,,,,,,,,,,1596.5163,1597.5072,,,1598.0075,1598.2575,,35,215,,,,,,,,,,,,,,,,bars/002.png,bars/mask003.png,,,,,,,,,,,,0,2,,,,,,,6,0,7,0,,,,,,,,,,,1597.5073,1598.0074,1598.2575,1601.0753,space,2.7999,,1601.0753,85,50,1602.0753,1602.0753,1602.1026,,,,0,13,13,13,1,130,85,,,,,,,,
