init_variables.started,init_variables.stopped,participant,session,date,expName,psychopyVersion,OS,frameRate,study_id,instruction_exp.started,instruction_exp.stopped,key_resp_8.keys,key_resp_8.rt,key_resp_8.duration,instruction_single.started,instruction_single.stopped,key_resp_2.keys,key_resp_2.rt,key_resp_2.duration,interval.started,interval.stopped,cue_single.started,cue_single.stopped,mask.started,mask.stopped,ori_response_single.started,res_ori,res,ori_response_single.stopped,key_resp_single.keys,key_resp_single.rt,key_resp_single.duration,disp_single.started,disp_single.stopped,key_resp.keys,key_resp.rt,key_resp.duration,single.thisRepN,single.thisTrialN,single.thisN,single.thisIndex,single.ran,ori,path,mask_path,instruction_bandit.started,instruction_bandit.stopped,key_resp_6.keys,key_resp_6.rt,key_resp_6.duration,cue_bandit.started,cue_bandit.stopped,bandit_res.keys,bandit_res.rt,bandit_res.duration,outcome_bandit.started,rew,action,outcome_bandit.stopped,bandit.thisRepN,bandit.thisTrialN,bandit.thisN,bandit.thisIndex,bandit.ran,actual_rew1,actual_rew2,rew1,rew2,instruction_task.started,instruction_task.stopped,key_resp_7.keys,key_resp_7.rt,key_resp_7.duration,wait_ready.started,wait_ready.stopped,key_resp_3.keys,key_resp_3.rt,key_resp_3.duration,cue.started,cue.stopped,ori_response.started,ori_response.stopped,key_resp_5.keys,key_resp_5.rt,key_resp_5.duration,outcome.started,diff1,diff2,outcome.stopped,disp_outcome_practice.started,disp_outcome_practice.stopped,key_resp_4.keys,key_resp_4.rt,key_resp_4.duration,trials.thisRepN,trials.thisTrialN,trials.thisN,trials.thisIndex,trials.ran,ori1,ori2,break_blk.started,break_blk.stopped,block.thisRepN,block.thisTrialN,block.thisN,block.thisIndex,block.ran,condition_file
0.0003,0.0006,613a8378db0ae11b02001c49,65af5530986fda920460fb86,2024-01-22_23h57.51.684,bars,2023.2.3,Win32,60.24096386,657b66ea316d21385b68909f,,,,,,,,,,,,,,,,,,,,,,,,,,,,,,,,,,,,,,,,,,,,,,,,,,,,,,,,,,,,,,,,,,,,,,,,,,,,,,,,,,,,,,,,,,,,,,,,,,,,
,,613a8378db0ae11b02001c49,65af5530986fda920460fb86,2024-01-22_23h57.51.684,bars,2023.2.3,Win32,60.24096386,657b66ea316d21385b68909f,0.0008,11.7753,y,11.7592,,,,,,,,,,,,,,,,,,,,,,,,,,,,,,,,,,,,,,,,,,,,,,,,,,,,,,,,,,,,,,,,,,,,,,,,,,,,,,,,,,,,,,,,,,,,,,,,
,,613a8378db0ae11b02001c49,65af5530986fda920460fb86,2024-01-22_23h57.51.684,bars,2023.2.3,Win32,60.24096386,657b66ea316d21385b68909f,,,,,,11.7755,57.2651,space,45.471,,,,,,,,,,,,,,,,,,,,,,,,,,,,,,,,,,,,,,,,,,,,,,,,,,,,,,,,,,,,,,,,,,,,,,,,,,,,,,,,,,,,,,,,,,,
,,613a8378db0ae11b02001c49,65af5530986fda920460fb86,2024-01-22_23h57.51.684,bars,2023.2.3,Win32,60.24096386,657b66ea316d21385b68909f,,,,,,,,,,,57.2739,58.268,58.2682,58.7666,58.7668,59.0151,59.0153,20,20,66.8289,space,7.7741,,66.8292,79.4302,space,12.5666,,0,0,0,9,1,20,bars/single009.png,bars/mask006.png,,,,,,,,,,,,,,,,,,,,,,,,,,,,,,,,,,,,,,,,,,,,,,,,,,,,,,,,,,,,,,,,
,,613a8378db0ae11b02001c49,65af5530986fda920460fb86,2024-01-22_23h57.51.684,bars,2023.2.3,Win32,60.24096386,657b66ea316d21385b68909f,,,,,,,,,,,79.4421,80.4411,80.4413,80.9404,80.9405,81.1908,81.1908,171,171,84.0823,space,2.8782,,84.0823,88.2721,space,4.1592,,0,1,1,8,1,160,bars/single008.png,bars/mask004.png,,,,,,,,,,,,,,,,,,,,,,,,,,,,,,,,,,,,,,,,,,,,,,,,,,,,,,,,,,,,,,,,
,,613a8378db0ae11b02001c49,65af5530986fda920460fb86,2024-01-22_23h57.51.684,bars,2023.2.3,Win32,60.24096386,657b66ea316d21385b68909f,,,,,,,,,,,88.283,89.2845,89.2845,89.7835,89.7835,90.0328,90.0329,4,4,93.3407,space,3.2914,,93.3408,100.2546,space,6.8985,,0,2,2,1,1,20,bars/single001.png,bars/mask006.png,,,,,,,,,,,,,,,,,,,,,,,,,,,,,,,,,,,,,,,,,,,,,,,,,,,,,,,,,,,,,,,,
,,613a8378db0ae11b02001c49,65af5530986fda920460fb86,2024-01-22_23h57.51.684,bars,2023.2.3,Win32,60.24096386,657b66ea316d21385b68909f,,,,,,,,,,,100.2667,101.2689,101.269,101.7673,101.7674,102.0166,102.0167,33,33,105.0256,space,2.9943,,105.0257,110.9279,space,5.8848,,0,3,3,3,1,20,bars/single003.png,bars/mask005.png,,,,,,,,,,,,,,,,,,,,,,,,,,,,,,,,,,,,,,,,,,,,,,,,,,,,,,,,,,,,,,,,
,,613a8378db0ae11b02001c49,65af5530986fda920460fb86,2024-01-22_23h57.51.684,bars,2023.2.3,Win32,60.24096386,657b66ea316d21385b68909f,,,,,,,,,,,110.9396,111.9402,111.9402,112.4304,112.4306,112.6822,112.6823,152,152,118.0746,space,5.3674,,118.0747,121.9115,space,3.8105,,0,4,4,2,1,145,bars/single002.png,bars/mask003.png,,,,,,,,,,,,,,,,,,,,,,,,,,,,,,,,,,,,,,,,,,,,,,,,,,,,,,,,,,,,,,,,
,,613a8378db0ae11b02001c49,65af5530986fda920460fb86,2024-01-22_23h57.51.684,bars,2023.2.3,Win32,60.24096386,657b66ea316d21385b68909f,,,,,,,,,,,121.9225,122.9246,122.9247,123.4397,123.4398,123.6762,123.6762,164,164,126.8675,space,3.1593,,126.8676,129.0953,space,2.1957,,0,5,5,6,1,175,bars/single006.png,bars/mask005.png,,,,,,,,,,,,,,,,,,,,,,,,,,,,,,,,,,,,,,,,,,,,,,,,,,,,,,,,,,,,,,,,
,,613a8378db0ae11b02001c49,65af5530986fda920460fb86,2024-01-22_23h57.51.684,bars,2023.2.3,Win32,60.24096386,657b66ea316d21385b68909f,,,,,,,,,,,129.096,130.093,130.0931,130.5913,130.5913,130.8408,130.8409,170,170,134.2822,space,3.4092,,134.2824,135.9846,space,1.6678,,0,6,6,0,1,150,bars/single000.png,bars/mask006.png,,,,,,,,,,,,,,,,,,,,,,,,,,,,,,,,,,,,,,,,,,,,,,,,,,,,,,,,,,,,,,,,
,,613a8378db0ae11b02001c49,65af5530986fda920460fb86,2024-01-22_23h57.51.684,bars,2023.2.3,Win32,60.24096386,657b66ea316d21385b68909f,,,,,,,,,,,135.9853,136.9736,136.9737,137.4741,137.4741,137.7216,137.7216,60,-120,143.2589,space,5.5235,,143.259,145.636,space,2.3509,,0,7,7,5,1,55,bars/single005.png,bars/mask008.png,,,,,,,,,,,,,,,,,,,,,,,,,,,,,,,,,,,,,,,,,,,,,,,,,,,,,,,,,,,,,,,,
,,613a8378db0ae11b02001c49,65af5530986fda920460fb86,2024-01-22_23h57.51.684,bars,2023.2.3,Win32,60.24096386,657b66ea316d21385b68909f,,,,,,,,,,,145.6372,146.6318,146.6318,147.1297,147.1297,147.3803,147.3804,8,8,148.8307,space,1.4206,,148.8308,150.6386,space,1.7804,,0,8,8,7,1,45,bars/single007.png,bars/mask009.png,,,,,,,,,,,,,,,,,,,,,,,,,,,,,,,,,,,,,,,,,,,,,,,,,,,,,,,,,,,,,,,,
,,613a8378db0ae11b02001c49,65af5530986fda920460fb86,2024-01-22_23h57.51.684,bars,2023.2.3,Win32,60.24096386,657b66ea316d21385b68909f,,,,,,,,,,,150.639,151.6177,151.6177,152.1173,152.1174,152.3777,152.3778,94,94,154.1124,space,1.7132,,154.1126,155.904,space,1.7762,,0,9,9,4,1,95,bars/single004.png,bars/mask004.png,,,,,,,,,,,,,,,,,,,,,,,,,,,,,,,,,,,,,,,,,,,,,,,,,,,,,,,,,,,,,,,,
,,613a8378db0ae11b02001c49,65af5530986fda920460fb86,2024-01-22_23h57.51.684,bars,2023.2.3,Win32,60.24096386,657b66ea316d21385b68909f,,,,,,,,,,,,,,,,,,,,,,,,,,,,,,,,,,,,,155.9052,191.2138,space,35.2862,,,,,,,,,,,,,,,,,,,,,,,,,,,,,,,,,,,,,,,,,,,,,,,,,,,,,,,,,,,,
,,613a8378db0ae11b02001c49,65af5530986fda920460fb86,2024-01-22_23h57.51.684,bars,2023.2.3,Win32,60.24096386,657b66ea316d21385b68909f,,,,,,,,,,,,,,,,,,,,,,,,,,,,,,,,,,,,,,,,,,191.2281,192.6265,right,1.3764,,192.6267,2,2,193.6234,0,0,0,0,1,9,1,9,2,,,,,,,,,,,,,,,,,,,,,,,,,,,,,,,,,,,,,,,,,
,,613a8378db0ae11b02001c49,65af5530986fda920460fb86,2024-01-22_23h57.51.684,bars,2023.2.3,Win32,60.24096386,657b66ea316d21385b68909f,,,,,,,,,,,,,,,,,,,,,,,,,,,,,,,,,,,,,,,,,,193.6242,194.3471,left,0.6944,,194.3471,10,1,195.3353,0,1,1,1,1,10,0,10,1,,,,,,,,,,,,,,,,,,,,,,,,,,,,,,,,,,,,,,,,,
,,613a8378db0ae11b02001c49,65af5530986fda920460fb86,2024-01-22_23h57.51.684,bars,2023.2.3,Win32,60.24096386,657b66ea316d21385b68909f,,,,,,,,,,,,,,,,,,,,,,,,,,,,,,,,,,,,,,,,,,195.3359,195.7936,left,0.4286,,195.7937,10,1,196.798,0,2,2,2,1,10,2,10,2,,,,,,,,,,,,,,,,,,,,,,,,,,,,,,,,,,,,,,,,,
,,613a8378db0ae11b02001c49,65af5530986fda920460fb86,2024-01-22_23h57.51.684,bars,2023.2.3,Win32,60.24096386,657b66ea316d21385b68909f,,,,,,,,,,,,,,,,,,,,,,,,,,,,,,,,,,,,,,,,,,196.7986,197.2216,left,0.3934,,197.2218,7,1,198.2102,0,3,3,3,1,8,4,7,3,,,,,,,,,,,,,,,,,,,,,,,,,,,,,,,,,,,,,,,,,
,,613a8378db0ae11b02001c49,65af5530986fda920460fb86,2024-01-22_23h57.51.684,bars,2023.2.3,Win32,60.24096386,657b66ea316d21385b68909f,,,,,,,,,,,,,,,,,,,,,,,,,,,,,,,,,,,,,,,,,,198.2109,198.5092,left,0.269,,198.5094,5,1,199.5068,0,4,4,4,1,6,2,5,1,,,,,,,,,,,,,,,,,,,,,,,,,,,,,,,,,,,,,,,,,
,,613a8378db0ae11b02001c49,65af5530986fda920460fb86,2024-01-22_23h57.51.684,bars,2023.2.3,Win32,60.24096386,657b66ea316d21385b68909f,,,,,,,,,,,,,,,,,,,,,,,,,,,,,,,,,,,,,,,,,,199.5073,200.0493,right,0.5117,,200.0493,4,2,201.0523,0,5,5,5,1,4,4,4,4,,,,,,,,,,,,,,,,,,,,,,,,,,,,,,,,,,,,,,,,,
,,613a8378db0ae11b02001c49,65af5530986fda920460fb86,2024-01-22_23h57.51.684,bars,2023.2.3,Win32,60.24096386,657b66ea316d21385b68909f,,,,,,,,,,,,,,,,,,,,,,,,,,,,,,,,,,,,,,,,,,201.0529,201.3688,left,0.3004,,201.3688,1,1,202.3657,0,6,6,6,1,2,2,1,2,,,,,,,,,,,,,,,,,,,,,,,,,,,,,,,,,,,,,,,,,
,,613a8378db0ae11b02001c49,65af5530986fda920460fb86,2024-01-22_23h57.51.684,bars,2023.2.3,Win32,60.24096386,657b66ea316d21385b68909f,,,,,,,,,,,,,,,,,,,,,,,,,,,,,,,,,,,,,,,,,,202.3664,202.5499,left,0.1674,,202.5501,0,1,203.5466,0,7,7,7,1,0,0,0,1,,,,,,,,,,,,,,,,,,,,,,,,,,,,,,,,,,,,,,,,,
,,613a8378db0ae11b02001c49,65af5530986fda920460fb86,2024-01-22_23h57.51.684,bars,2023.2.3,Win32,60.24096386,657b66ea316d21385b68909f,,,,,,,,,,,,,,,,,,,,,,,,,,,,,,,,,,,,,,,,,,203.5472,204.6209,right,1.0441,,204.621,0,2,205.6243,0,8,8,8,1,0,2,1,0,,,,,,,,,,,,,,,,,,,,,,,,,,,,,,,,,,,,,,,,,
,,613a8378db0ae11b02001c49,65af5530986fda920460fb86,2024-01-22_23h57.51.684,bars,2023.2.3,Win32,60.24096386,657b66ea316d21385b68909f,,,,,,,,,,,,,,,,,,,,,,,,,,,,,,,,,,,,,,,,,,205.625,206.1155,right,0.4605,,206.1156,3,2,207.1049,0,9,9,9,1,2,4,2,3,,,,,,,,,,,,,,,,,,,,,,,,,,,,,,,,,,,,,,,,,
,,613a8378db0ae11b02001c49,65af5530986fda920460fb86,2024-01-22_23h57.51.684,bars,2023.2.3,Win32,60.24096386,657b66ea316d21385b68909f,,,,,,,,,,,,,,,,,,,,,,,,,,,,,,,,,,,,,,,,,,207.106,208.0025,right,0.8633,,208.0026,3,2,208.9981,0,10,10,10,1,0,2,0,3,,,,,,,,,,,,,,,,,,,,,,,,,,,,,,,,,,,,,,,,,
,,613a8378db0ae11b02001c49,65af5530986fda920460fb86,2024-01-22_23h57.51.684,bars,2023.2.3,Win32,60.24096386,657b66ea316d21385b68909f,,,,,,,,,,,,,,,,,,,,,,,,,,,,,,,,,,,,,,,,,,208.9985,209.3311,left,0.3163,,209.3312,0,1,210.3286,0,11,11,11,1,0,4,0,3,,,,,,,,,,,,,,,,,,,,,,,,,,,,,,,,,,,,,,,,,
,,613a8378db0ae11b02001c49,65af5530986fda920460fb86,2024-01-22_23h57.51.684,bars,2023.2.3,Win32,60.24096386,657b66ea316d21385b68909f,,,,,,,,,,,,,,,,,,,,,,,,,,,,,,,,,,,,,,,,,,210.329,210.7111,right,0.3656,,210.7112,6,2,211.7081,0,12,12,12,1,2,6,1,6,,,,,,,,,,,,,,,,,,,,,,,,,,,,,,,,,,,,,,,,,
,,613a8378db0ae11b02001c49,65af5530986fda920460fb86,2024-01-22_23h57.51.684,bars,2023.2.3,Win32,60.24096386,657b66ea316d21385b68909f,,,,,,,,,,,,,,,,,,,,,,,,,,,,,,,,,,,,,,,,,,211.7085,212.7886,right,1.0637,,212.7887,3,2,213.787,0,13,13,13,1,0,4,1,3,,,,,,,,,,,,,,,,,,,,,,,,,,,,,,,,,,,,,,,,,
,,613a8378db0ae11b02001c49,65af5530986fda920460fb86,2024-01-22_23h57.51.684,bars,2023.2.3,Win32,60.24096386,657b66ea316d21385b68909f,,,,,,,,,,,,,,,,,,,,,,,,,,,,,,,,,,,,,,,,,,213.7874,214.0685,left,0.2675,,214.0686,2,1,215.0652,0,14,14,14,1,2,6,2,7,,,,,,,,,,,,,,,,,,,,,,,,,,,,,,,,,,,,,,,,,
,,613a8378db0ae11b02001c49,65af5530986fda920460fb86,2024-01-22_23h57.51.684,bars,2023.2.3,Win32,60.24096386,657b66ea316d21385b68909f,,,,,,,,,,,,,,,,,,,,,,,,,,,,,,,,,,,,,,,,,,215.0658,215.1983,left,0.1163,,215.1983,3,1,216.197,0,15,15,15,1,4,8,3,9,,,,,,,,,,,,,,,,,,,,,,,,,,,,,,,,,,,,,,,,,
,,613a8378db0ae11b02001c49,65af5530986fda920460fb86,2024-01-22_23h57.51.684,bars,2023.2.3,Win32,60.24096386,657b66ea316d21385b68909f,,,,,,,,,,,,,,,,,,,,,,,,,,,,,,,,,,,,,,,,,,216.1974,217.2926,right,1.0825,,217.2927,7,2,218.29,0,16,16,16,1,6,6,7,7,,,,,,,,,,,,,,,,,,,,,,,,,,,,,,,,,,,,,,,,,
,,613a8378db0ae11b02001c49,65af5530986fda920460fb86,2024-01-22_23h57.51.684,bars,2023.2.3,Win32,60.24096386,657b66ea316d21385b68909f,,,,,,,,,,,,,,,,,,,,,,,,,,,,,,,,,,,,,,,,,,218.2904,218.822,left,0.5146,,218.8222,9,1,219.8194,0,17,17,17,1,8,4,9,5,,,,,,,,,,,,,,,,,,,,,,,,,,,,,,,,,,,,,,,,,
,,613a8378db0ae11b02001c49,65af5530986fda920460fb86,2024-01-22_23h57.51.684,bars,2023.2.3,Win32,60.24096386,657b66ea316d21385b68909f,,,,,,,,,,,,,,,,,,,,,,,,,,,,,,,,,,,,,,,,,,219.8199,220.9336,left,1.0972,,220.9336,5,1,221.9301,0,18,18,18,1,6,2,5,1,,,,,,,,,,,,,,,,,,,,,,,,,,,,,,,,,,,,,,,,,
,,613a8378db0ae11b02001c49,65af5530986fda920460fb86,2024-01-22_23h57.51.684,bars,2023.2.3,Win32,60.24096386,657b66ea316d21385b68909f,,,,,,,,,,,,,,,,,,,,,,,,,,,,,,,,,,,,,,,,,,221.9308,224.7563,right,2.8099,,224.7564,0,2,225.7541,0,19,19,19,1,8,0,7,0,,,,,,,,,,,,,,,,,,,,,,,,,,,,,,,,,,,,,,,,,
,,613a8378db0ae11b02001c49,65af5530986fda920460fb86,2024-01-22_23h57.51.684,bars,2023.2.3,Win32,60.24096386,657b66ea316d21385b68909f,,,,,,,,,,,,,,,,,,,,,,,,,,,,,,,,,,,,,,,,,,,,,,,,,,,,,,,,,,,,225.7551,245.8016,space,20.0269,,,,,,,,,,,,,,,,,,,,,,,,,,,,,,,,,,,,,
,,613a8378db0ae11b02001c49,65af5530986fda920460fb86,2024-01-22_23h57.51.684,bars,2023.2.3,Win32,60.24096386,657b66ea316d21385b68909f,,,,,,,,,,,246.9868,247.9897,,,248.4935,248.7558,,64,64,,,,,,,,,,,,,,,,bars/000.png,bars/mask009.png,,,,,,,,,,,,1,1,,,,,,,5,5,4,5,,,,,,245.8147,246.9812,space,1.1497,,247.99,248.4934,248.7561,251.8181,space,3.045,,251.8184,24,81,252.8161,252.8164,255.6417,space,2.8017,,0,0,0,0,1,40,145,,,,,,,,
,,613a8378db0ae11b02001c49,65af5530986fda920460fb86,2024-01-22_23h57.51.684,bars,2023.2.3,Win32,60.24096386,657b66ea316d21385b68909f,,,,,,,,,,,255.6426,256.6373,,,257.1367,257.3868,,158,-22,,,,,,,,,,,,,,,,bars/043.png,bars/mask007.png,,,,,,,,,,,,0,2,,,,,,,3,3,2,2,,,,,,,,,,,256.6374,257.1366,257.3868,261.8074,space,4.3906,,261.8077,52,28,262.804,262.8042,266.379,space,3.5412,,0,1,1,1,1,30,130,,,,,,,,
,,613a8378db0ae11b02001c49,65af5530986fda920460fb86,2024-01-22_23h57.51.684,bars,2023.2.3,Win32,60.24096386,657b66ea316d21385b68909f,,,,,,,,,,,266.3901,267.3919,,,267.8915,268.1406,,52,52,,,,,,,,,,,,,,,,bars/003.png,bars/mask008.png,,,,,,,,,,,,1,1,,,,,,,5,1,6,1,,,,,,,,,,,267.392,267.8914,268.1406,269.7477,space,1.5931,,269.7478,27,88,270.7506,270.7506,271.8451,space,1.0638,,0,2,2,2,1,25,140,,,,,,,,
,,613a8378db0ae11b02001c49,65af5530986fda920460fb86,2024-01-22_23h57.51.684,bars,2023.2.3,Win32,60.24096386,657b66ea316d21385b68909f,,,,,,,,,,,271.8453,272.835,,,273.3262,273.5754,,118,118,,,,,,,,,,,,,,,,bars/023.png,bars/mask004.png,,,,,,,,,,,,4,2,,,,,,,3,3,5,4,,,,,,,,,,,272.8352,273.3262,273.5755,275.0655,space,1.4755,,275.0656,82,3,276.0687,276.0688,277.3171,space,1.2152,,0,3,3,3,1,20,115,,,,,,,,
,,613a8378db0ae11b02001c49,65af5530986fda920460fb86,2024-01-22_23h57.51.684,bars,2023.2.3,Win32,60.24096386,657b66ea316d21385b68909f,,,,,,,,,,,277.3177,278.3252,,,278.8192,279.0704,,17,197,,,,,,,,,,,,,,,,bars/040.png,bars/mask008.png,,,,,,,,,,,,3,2,,,,,,,1,5,1,5,,,,,,,,,,,278.3252,278.8191,279.0705,281.6381,space,2.5425,,281.6381,57,12,282.6348,282.635,283.7383,space,1.0726,,0,4,4,4,1,140,5,,,,,,,,
,,613a8378db0ae11b02001c49,65af5530986fda920460fb86,2024-01-22_23h57.51.684,bars,2023.2.3,Win32,60.24096386,657b66ea316d21385b68909f,,,,,,,,,,,283.7393,284.7289,,,285.2239,285.477,,158,158,,,,,,,,,,,,,,,,bars/007.png,bars/mask001.png,,,,,,,,,,,,0,1,,,,,,,0,3,0,2,,,,,,,,,,,284.729,285.2239,285.477,287.4391,space,1.9477,,287.4392,17,77,288.4363,288.4365,289.2351,space,0.7691,,0,5,5,5,1,175,55,,,,,,,,
,,613a8378db0ae11b02001c49,65af5530986fda920460fb86,2024-01-22_23h57.51.684,bars,2023.2.3,Win32,60.24096386,657b66ea316d21385b68909f,,,,,,,,,,,289.2358,290.2319,,,290.7203,290.9638,,155,-25,,,,,,,,,,,,,,,,bars/013.png,bars/mask003.png,,,,,,,,,,,,0,2,,,,,,,2,1,3,1,,,,,,,,,,,290.232,290.7202,290.9639,294.5533,space,3.5595,,294.5534,80,35,295.5477,295.5478,303.3979,space,7.8139,,0,6,6,6,1,75,10,,,,,,,,
,,613a8378db0ae11b02001c49,65af5530986fda920460fb86,2024-01-22_23h57.51.684,bars,2023.2.3,Win32,60.24096386,657b66ea316d21385b68909f,,,,,,,,,,,303.4162,304.4061,,,304.8954,305.1414,,135,135,,,,,,,,,,,,,,,,bars/008.png,bars/mask001.png,,,,,,,,,,,,1,1,,,,,,,4,3,5,3,,,,,,,,,,,304.4063,304.8953,305.1415,306.4521,space,1.2975,,306.4522,25,45,307.4518,307.4518,308.6817,space,1.1988,,0,7,7,7,1,110,0,,,,,,,,
,,613a8378db0ae11b02001c49,65af5530986fda920460fb86,2024-01-22_23h57.51.684,bars,2023.2.3,Win32,60.24096386,657b66ea316d21385b68909f,,,,,,,,,,,308.6822,309.6779,,,310.1756,310.4234,,9,189,,,,,,,,,,,,,,,,bars/012.png,bars/mask003.png,,,,,,,,,,,,5,2,,,,,,,2,5,1,6,,,,,,,,,,,309.678,310.1754,310.4234,313.3209,space,2.8786,,313.3211,81,6,314.3178,314.318,315.2986,space,0.9469,,0,8,8,8,1,90,15,,,,,,,,
,,613a8378db0ae11b02001c49,65af5530986fda920460fb86,2024-01-22_23h57.51.684,bars,2023.2.3,Win32,60.24096386,657b66ea316d21385b68909f,,,,,,,,,,,315.2991,316.2923,,,316.7943,317.0401,,101,101,,,,,,,,,,,,,,,,bars/001.png,bars/mask008.png,,,,,,,,,,,,2,2,,,,,,,4,3,4,4,,,,,,,,,,,316.2924,316.7943,317.0402,318.6868,space,1.6293,,318.6868,29,16,319.6857,319.6857,320.7766,space,1.0599,,0,9,9,9,1,130,85,,,,,,,,
,,613a8378db0ae11b02001c49,65af5530986fda920460fb86,2024-01-22_23h57.51.684,bars,2023.2.3,Win32,60.24096386,657b66ea316d21385b68909f,,,,,,,,,,,320.7773,321.7809,,,322.2796,322.5257,,161,-19,,,,,,,,,,,,,,,,bars/039.png,bars/mask000.png,,,,,,,,,,,,2,1,,,,,,,2,5,3,5,,,,,,,,,,,321.781,322.2795,322.5257,325.4017,space,2.8594,,325.4018,14,56,326.402,326.4021,327.28,space,0.8477,,0,10,10,10,1,175,105,,,,,,,,
,,613a8378db0ae11b02001c49,65af5530986fda920460fb86,2024-01-22_23h57.51.684,bars,2023.2.3,Win32,60.24096386,657b66ea316d21385b68909f,,,,,,,,,,,327.2803,328.2765,,,328.779,329.029,,19,199,,,,,,,,,,,,,,,,bars/025.png,bars/mask002.png,,,,,,,,,,,,2,2,,,,,,,0,7,0,6,,,,,,,,,,,328.2765,328.779,329.0291,332.0207,space,2.9727,,332.0208,86,21,333.0177,333.0178,333.8324,space,0.7818,,0,11,11,11,1,105,40,,,,,,,,
,,613a8378db0ae11b02001c49,65af5530986fda920460fb86,2024-01-22_23h57.51.684,bars,2023.2.3,Win32,60.24096386,657b66ea316d21385b68909f,,,,,,,,,,,333.8329,334.8259,,,335.3274,335.5769,,58,58,,,,,,,,,,,,,,,,bars/035.png,bars/mask008.png,,,,,,,,,,,,7,2,,,,,,,0,9,0,8,,,,,,,,,,,334.8259,335.3273,335.5769,339.9821,space,4.3908,,339.9822,63,2,340.9789,340.979,343.3641,space,2.3565,,0,12,12,12,1,175,60,,,,,,,,
,,613a8378db0ae11b02001c49,65af5530986fda920460fb86,2024-01-22_23h57.51.684,bars,2023.2.3,Win32,60.24096386,657b66ea316d21385b68909f,,,,,,,,,,,343.3647,344.3537,,,344.8532,345.0943,,57,57,,,,,,,,,,,,,,,,bars/019.png,bars/mask000.png,,,,,,,,,,,,2,1,,,,,,,2,7,3,7,,,,,,,,,,,344.3538,344.8532,345.0945,348.4765,space,3.3639,,348.4765,12,48,349.4735,349.4736,350.422,space,0.9139,,0,13,13,13,1,45,105,,,,,,,,
,,613a8378db0ae11b02001c49,65af5530986fda920460fb86,2024-01-22_23h57.51.684,bars,2023.2.3,Win32,60.24096386,657b66ea316d21385b68909f,,,,,,,,,,,350.4224,351.4182,,,351.9164,352.1666,,159,159,,,,,,,,,,,,,,,,bars/035.png,bars/mask006.png,,,,,,,,,,,,0,1,,,,,,,0,9,0,10,,,,,,,,,,,351.4183,351.9164,352.1667,354.5048,space,2.3077,,354.5048,16,81,355.5073,355.5073,356.4663,space,0.9285,,0,14,14,14,1,175,60,,,,,,,,
,,613a8378db0ae11b02001c49,65af5530986fda920460fb86,2024-01-22_23h57.51.684,bars,2023.2.3,Win32,60.24096386,657b66ea316d21385b68909f,,,,,,,,,,,356.4669,357.4689,,,357.9639,358.2171,,73,73,,,,,,,,,,,,,,,,bars/026.png,bars/mask008.png,,,,,,,,,,,,4,2,,,,,,,0,7,1,7,,,,,,,,,,,357.4689,357.9639,358.2171,359.513,space,1.2616,,359.5131,38,12,360.5108,360.5108,361.5491,space,1.0179,,0,15,15,15,1,35,85,,,,,,,,
,,613a8378db0ae11b02001c49,65af5530986fda920460fb86,2024-01-22_23h57.51.684,bars,2023.2.3,Win32,60.24096386,657b66ea316d21385b68909f,,,,,,,,,,,361.5496,362.5381,,,363.0369,363.2869,,169,169,,,,,,,,,,,,,,,,bars/035.png,bars/mask006.png,,,,,,,,,,,,2,1,,,,,,,0,9,2,6,,,,,,,,,,,362.5382,363.0367,363.287,364.8986,space,1.5805,,364.8988,6,71,365.8961,365.8962,366.7539,space,0.8391,,0,16,16,16,1,175,60,,,,,,,,
,,613a8378db0ae11b02001c49,65af5530986fda920460fb86,2024-01-22_23h57.51.684,bars,2023.2.3,Win32,60.24096386,657b66ea316d21385b68909f,,,,,,,,,,,366.7545,367.7479,,,368.2403,368.489,,121,121,,,,,,,,,,,,,,,,bars/024.png,bars/mask006.png,,,,,,,,,,,,2,1,,,,,,,2,7,2,7,,,,,,,,,,,367.7481,368.2401,368.489,371.1455,space,2.6431,,371.1455,1,49,372.1462,372.1462,373.7592,space,1.5806,,0,17,17,17,1,120,170,,,,,,,,
,,613a8378db0ae11b02001c49,65af5530986fda920460fb86,2024-01-22_23h57.51.684,bars,2023.2.3,Win32,60.24096386,657b66ea316d21385b68909f,,,,,,,,,,,373.7599,374.7579,,,375.2543,375.4946,,57,237,,,,,,,,,,,,,,,,bars/026.png,bars/mask004.png,,,,,,,,,,,,0,1,,,,,,,0,5,0,4,,,,,,,,,,,374.758,375.2542,375.4948,379.8422,space,4.3217,,379.8423,22,28,380.839,380.8392,381.921,space,1.0481,,0,18,18,18,1,35,85,,,,,,,,
,,613a8378db0ae11b02001c49,65af5530986fda920460fb86,2024-01-22_23h57.51.684,bars,2023.2.3,Win32,60.24096386,657b66ea316d21385b68909f,,,,,,,,,,,381.9216,382.9168,,,383.4157,383.6649,,58,58,,,,,,,,,,,,,,,,bars/047.png,bars/mask002.png,,,,,,,,,,,,5,2,,,,,,,2,7,1,8,,,,,,,,,,,382.9169,383.4157,383.665,385.4947,space,1.8163,,385.4948,43,12,386.4915,386.4915,388.0368,space,1.5246,,0,19,19,19,1,15,70,,,,,,,,
,,613a8378db0ae11b02001c49,65af5530986fda920460fb86,2024-01-22_23h57.51.684,bars,2023.2.3,Win32,60.24096386,657b66ea316d21385b68909f,,,,,,,,,,,388.0374,389.0307,,,389.5336,389.7827,,179,179,,,,,,,,,,,,,,,,bars/038.png,bars/mask004.png,,,,,,,,,,,,0,1,,,,,,,0,5,0,5,,,,,,,,,,,389.0308,389.5334,389.7828,391.4872,space,1.6903,,391.4872,14,71,392.4754,392.4755,393.8224,space,1.3148,,0,20,20,20,1,165,70,,,,,,,,
,,613a8378db0ae11b02001c49,65af5530986fda920460fb86,2024-01-22_23h57.51.684,bars,2023.2.3,Win32,60.24096386,657b66ea316d21385b68909f,,,,,,,,,,,393.823,394.819,,,395.3172,395.563,,106,-74,,,,,,,,,,,,,,,,bars/002.png,bars/mask009.png,,,,,,,,,,,,1,2,,,,,,,2,3,2,4,,,,,,,,,,,394.819,395.3171,395.5631,400.2556,space,4.6743,,400.2556,24,21,401.2527,401.2527,403.4142,space,2.1294,,0,21,21,21,1,130,85,,,,,,,,
,,613a8378db0ae11b02001c49,65af5530986fda920460fb86,2024-01-22_23h57.51.684,bars,2023.2.3,Win32,60.24096386,657b66ea316d21385b68909f,,,,,,,,,,,403.4147,404.4109,,,404.9052,405.1547,,118,118,,,,,,,,,,,,,,,,bars/026.png,bars/mask009.png,,,,,,,,,,,,0,2,,,,,,,4,5,3,4,,,,,,,,,,,404.411,404.905,405.1548,406.0039,space,0.8331,,406.0039,83,33,407.004,407.0041,407.8314,space,0.7984,,0,22,22,22,1,35,85,,,,,,,,
,,613a8378db0ae11b02001c49,65af5530986fda920460fb86,2024-01-22_23h57.51.684,bars,2023.2.3,Win32,60.24096386,657b66ea316d21385b68909f,,,,,,,,,,,407.8321,408.8317,,,409.3217,409.5763,,178,178,,,,,,,,,,,,,,,,bars/024.png,bars/mask001.png,,,,,,,,,,,,1,2,,,,,,,6,3,5,2,,,,,,,,,,,408.8317,409.3216,409.5764,410.8592,space,1.2653,,410.8594,58,8,411.8577,411.8577,412.555,space,0.6776,,0,23,23,23,1,120,170,,,,,,,,
,,613a8378db0ae11b02001c49,65af5530986fda920460fb86,2024-01-22_23h57.51.684,bars,2023.2.3,Win32,60.24096386,657b66ea316d21385b68909f,,,,,,,,,,,412.5555,413.5527,,,414.0509,414.3001,,110,110,,,,,,,,,,,,,,,,bars/037.png,bars/mask009.png,,,,,,,,,,,,3,2,,,,,,,4,1,4,3,,,,,,,,,,,413.5528,414.0508,414.3001,415.68,space,1.3629,,415.6801,40,5,416.6771,416.6771,417.5763,space,0.8814,,0,24,24,24,1,150,105,,,,,,,,
,,613a8378db0ae11b02001c49,65af5530986fda920460fb86,2024-01-22_23h57.51.684,bars,2023.2.3,Win32,60.24096386,657b66ea316d21385b68909f,,,,,,,,,,,417.5767,418.5724,,,419.0705,419.3205,,119,119,,,,,,,,,,,,,,,,bars/036.png,bars/mask000.png,,,,,,,,,,,,0,1,,,,,,,2,0,1,0,,,,,,,,,,,418.5725,419.0705,419.3206,422.0628,space,2.7268,,422.0629,26,81,423.0601,423.0601,423.9249,space,0.8354,,0,25,25,25,1,145,20,,,,,,,,
,,613a8378db0ae11b02001c49,65af5530986fda920460fb86,2024-01-22_23h57.51.684,bars,2023.2.3,Win32,60.24096386,657b66ea316d21385b68909f,,,,,,,,,,,423.9254,424.9221,,,425.4212,425.6697,,161,-19,,,,,,,,,,,,,,,,bars/028.png,bars/mask004.png,,,,,,,,,,,,0,2,,,,,,,0,0,1,1,,,,,,,,,,,424.9221,425.4211,425.6698,431.2058,space,5.5191,,431.2058,64,41,432.2025,432.2026,433.318,space,1.0856,,0,26,26,26,1,45,120,,,,,,,,
,,613a8378db0ae11b02001c49,65af5530986fda920460fb86,2024-01-22_23h57.51.684,bars,2023.2.3,Win32,60.24096386,657b66ea316d21385b68909f,,,,,,,,,,,433.3191,434.3132,,,434.8124,435.0618,,33,213,,,,,,,,,,,,,,,,bars/028.png,bars/mask009.png,,,,,,,,,,,,1,1,,,,,,,0,0,1,0,,,,,,,,,,,434.3133,434.8123,435.0619,437.0736,space,1.9953,,437.0737,12,87,438.0698,438.0698,438.9593,space,0.859,,0,27,27,27,1,45,120,,,,,,,,
,,613a8378db0ae11b02001c49,65af5530986fda920460fb86,2024-01-22_23h57.51.684,bars,2023.2.3,Win32,60.24096386,657b66ea316d21385b68909f,,,,,,,,,,,438.9605,439.9652,,,440.4635,440.7128,,35,35,,,,,,,,,,,,,,,,bars/016.png,bars/mask001.png,,,,,,,,,,,,0,1,,,,,,,0,0,0,0,,,,,,,,,,,439.9653,440.4634,440.7129,442.6677,space,1.9405,,442.6678,5,50,443.6556,443.6557,447.7113,space,4.0237,,0,28,28,28,1,40,165,,,,,,,,
,,613a8378db0ae11b02001c49,65af5530986fda920460fb86,2024-01-22_23h57.51.684,bars,2023.2.3,Win32,60.24096386,657b66ea316d21385b68909f,,,,,,,,,,,447.7225,448.7213,,,449.2238,449.4735,,124,124,,,,,,,,,,,,,,,,bars/032.png,bars/mask001.png,,,,,,,,,,,,0,1,,,,,,,0,2,0,2,,,,,,,,,,,448.7214,449.2237,449.4735,450.6498,space,1.1608,,450.65,1,76,451.6501,451.6502,456.2721,space,4.5906,,0,29,29,29,1,125,20,,,,,,,,
,,613a8378db0ae11b02001c49,65af5530986fda920460fb86,2024-01-22_23h57.51.684,bars,2023.2.3,Win32,60.24096386,657b66ea316d21385b68909f,,,,,,,,,,,456.2827,457.286,,,457.7849,458.0341,,151,151,,,,,,,,,,,,,,,,bars/043.png,bars/mask005.png,,,,,,,,,,,,1,2,,,,,,,2,4,3,3,,,,,,,,,,,457.2861,457.7848,458.0342,459.7472,space,1.6981,,459.7473,59,21,460.7427,460.7428,461.7915,space,1.0314,,0,30,30,30,1,30,130,,,,,,,,
,,613a8378db0ae11b02001c49,65af5530986fda920460fb86,2024-01-22_23h57.51.684,bars,2023.2.3,Win32,60.24096386,657b66ea316d21385b68909f,,,,,,,,,,,461.7919,462.7878,,,463.2863,463.5362,,66,66,,,,,,,,,,,,,,,,bars/012.png,bars/mask002.png,,,,,,,,,,,,1,1,,,,,,,4,2,4,2,,,,,,,,,,,462.7878,463.2862,463.5362,466.1137,space,2.5638,,466.1137,24,51,467.1091,467.1091,468.3064,space,1.1678,,0,31,31,31,1,90,15,,,,,,,,
,,613a8378db0ae11b02001c49,65af5530986fda920460fb86,2024-01-22_23h57.51.684,bars,2023.2.3,Win32,60.24096386,657b66ea316d21385b68909f,,,,,,,,,,,468.3069,469.3037,,,469.802,470.0544,,143,143,,,,,,,,,,,,,,,,bars/031.png,bars/mask001.png,,,,,,,,,,,,1,1,,,,,,,6,4,6,4,,,,,,,,,,,469.3038,469.802,470.0545,471.1658,space,1.0956,,471.1659,23,72,472.1628,472.1628,473.0277,space,0.8475,,0,32,32,32,1,120,35,,,,,,,,
,,613a8378db0ae11b02001c49,65af5530986fda920460fb86,2024-01-22_23h57.51.684,bars,2023.2.3,Win32,60.24096386,657b66ea316d21385b68909f,,,,,,,,,,,473.0283,474.0246,,,474.5231,474.7746,,122,122,,,,,,,,,,,,,,,,bars/002.png,bars/mask004.png,,,,,,,,,,,,5,1,,,,,,,8,6,7,5,,,,,,,,,,,474.0247,474.523,474.7747,476.9829,space,2.19,,476.9829,8,37,477.9802,477.9803,479.3442,space,1.3366,,0,33,33,33,1,130,85,,,,,,,,
,,613a8378db0ae11b02001c49,65af5530986fda920460fb86,2024-01-22_23h57.51.684,bars,2023.2.3,Win32,60.24096386,657b66ea316d21385b68909f,,,,,,,,,,,479.3446,480.3408,,,480.8397,481.09,,56,56,,,,,,,,,,,,,,,,bars/029.png,bars/mask002.png,,,,,,,,,,,,3,2,,,,,,,6,4,6,5,,,,,,,,,,,480.3408,480.8396,481.0901,484.5797,space,3.4752,,484.5797,34,11,485.5764,485.5765,486.7573,space,1.1516,,0,34,34,34,1,90,45,,,,,,,,
,,613a8378db0ae11b02001c49,65af5530986fda920460fb86,2024-01-22_23h57.51.684,bars,2023.2.3,Win32,60.24096386,657b66ea316d21385b68909f,,,,,,,,,,,486.7578,487.7539,,,488.2525,488.5021,,130,130,,,,,,,,,,,,,,,,bars/007.png,bars/mask006.png,,,,,,,,,,,,0,1,,,,,,,8,2,7,3,,,,,,,,,,,487.7539,488.2525,488.5021,490.5978,space,2.0794,,490.5978,45,75,491.5936,491.5936,492.9077,space,1.2936,,0,35,35,35,1,175,55,,,,,,,,
,,613a8378db0ae11b02001c49,65af5530986fda920460fb86,2024-01-22_23h57.51.684,bars,2023.2.3,Win32,60.24096386,657b66ea316d21385b68909f,,,,,,,,,,,492.9082,493.9049,,,494.4035,494.6528,,153,153,,,,,,,,,,,,,,,,bars/005.png,bars/mask007.png,,,,,,,,,,,,0,2,,,,,,,6,0,7,0,,,,,,,,,,,493.9049,494.4034,494.6529,498.0284,space,3.3576,,498.0284,37,13,499.0244,499.0245,501.6675,space,2.6143,,0,36,36,36,1,10,140,,,,,,,,
,,613a8378db0ae11b02001c49,65af5530986fda920460fb86,2024-01-22_23h57.51.684,bars,2023.2.3,Win32,60.24096386,657b66ea316d21385b68909f,,,,,,,,,,,501.6681,502.6642,,,503.166,503.4126,,67,67,,,,,,,,,,,,,,,,bars/029.png,bars/mask009.png,,,,,,,,,,,,0,2,,,,,,,4,2,3,1,,,,,,,,,,,502.6643,503.166,503.4126,505.7734,space,2.3444,,505.7734,23,22,506.7705,506.7706,508.2,space,1.4017,,0,37,37,37,1,90,45,,,,,,,,
,,613a8378db0ae11b02001c49,65af5530986fda920460fb86,2024-01-22_23h57.51.684,bars,2023.2.3,Win32,60.24096386,657b66ea316d21385b68909f,,,,,,,,,,,508.2006,509.1973,,,509.6959,509.9447,,147,147,,,,,,,,,,,,,,,,bars/024.png,bars/mask008.png,,,,,,,,,,,,1,2,,,,,,,2,4,1,4,,,,,,,,,,,509.1973,509.6959,509.9447,514.9315,space,4.9698,,514.9316,27,23,515.9296,515.9296,516.8933,space,0.9327,,0,38,38,38,1,120,170,,,,,,,,
,,613a8378db0ae11b02001c49,65af5530986fda920460fb86,2024-01-22_23h57.51.684,bars,2023.2.3,Win32,60.24096386,657b66ea316d21385b68909f,,,,,,,,,,,516.8938,517.8904,,,518.3896,518.6387,,165,165,,,,,,,,,,,,,,,,bars/020.png,bars/mask003.png,,,,,,,,,,,,5,2,,,,,,,4,6,4,6,,,,,,,,,,,517.8904,518.3896,518.6388,520.7993,space,2.1457,,520.7994,50,5,521.7979,521.7981,523.5759,space,1.761,,0,39,39,39,1,115,170,,,,,,,,
,,613a8378db0ae11b02001c49,65af5530986fda920460fb86,2024-01-22_23h57.51.684,bars,2023.2.3,Win32,60.24096386,657b66ea316d21385b68909f,,,,,,,,,,,523.5764,524.5753,,,525.0715,525.322,,20,200,,,,,,,,,,,,,,,,bars/043.png,bars/mask003.png,,,,,,,,,,,,1,1,,,,,,,2,4,2,2,,,,,,,,,,,524.5753,525.0714,525.322,527.997,space,2.6602,,527.9971,10,70,528.9939,528.9939,531.2387,space,2.214,,0,40,40,40,1,30,130,,,,,,,,
,,613a8378db0ae11b02001c49,65af5530986fda920460fb86,2024-01-22_23h57.51.684,bars,2023.2.3,Win32,60.24096386,657b66ea316d21385b68909f,,,,,,,,,,,531.2396,532.2352,,,532.7312,532.9762,,132,132,,,,,,,,,,,,,,,,bars/016.png,bars/mask003.png,,,,,,,,,,,,0,2,,,,,,,4,2,7,2,,,,,,,,,,,532.2353,532.7311,532.9763,534.4109,space,1.4136,,534.4109,88,33,535.4072,535.4073,535.9826,space,0.5507,,0,41,41,41,1,40,165,,,,,,,,
,,613a8378db0ae11b02001c49,65af5530986fda920460fb86,2024-01-22_23h57.51.684,bars,2023.2.3,Win32,60.24096386,657b66ea316d21385b68909f,,,,,,,,,,,535.9835,536.9738,,,537.472,537.721,,108,108,,,,,,,,,,,,,,,,bars/028.png,bars/mask000.png,,,,,,,,,,,,3,2,,,,,,,6,4,7,5,,,,,,,,,,,536.9738,537.4719,537.721,539.4636,space,1.7279,,539.4637,63,12,540.4637,540.4638,542.1015,space,1.607,,0,42,42,42,1,45,120,,,,,,,,
,,613a8378db0ae11b02001c49,65af5530986fda920460fb86,2024-01-22_23h57.51.684,bars,2023.2.3,Win32,60.24096386,657b66ea316d21385b68909f,,,,,,,,,,,542.1024,543.0902,,,543.5889,543.8384,,15,195,,,,,,,,,,,,,,,,bars/022.png,bars/mask008.png,,,,,,,,,,,,3,2,,,,,,,4,2,4,3,,,,,,,,,,,543.0903,543.5887,543.8385,547.2786,space,3.4209,,547.2786,80,5,548.277,548.2771,551.6664,space,3.3605,,0,43,43,43,1,95,20,,,,,,,,
,,613a8378db0ae11b02001c49,65af5530986fda920460fb86,2024-01-22_23h57.51.684,bars,2023.2.3,Win32,60.24096386,657b66ea316d21385b68909f,,,,,,,,,,,551.6669,552.6661,,,553.1665,553.409,,130,130,,,,,,,,,,,,,,,,bars/023.png,bars/mask003.png,,,,,,,,,,,,1,2,,,,,,,6,0,5,1,,,,,,,,,,,552.6662,553.1664,553.409,556.0058,space,2.5795,,556.0059,70,15,557.0025,557.0025,558.5491,space,1.5183,,0,44,44,44,1,20,115,,,,,,,,
,,613a8378db0ae11b02001c49,65af5530986fda920460fb86,2024-01-22_23h57.51.684,bars,2023.2.3,Win32,60.24096386,657b66ea316d21385b68909f,,,,,,,,,,,558.5496,559.5461,,,560.0443,560.2936,,119,119,,,,,,,,,,,,,,,,bars/037.png,bars/mask000.png,,,,,,,,,,,,0,2,,,,,,,4,0,3,0,,,,,,,,,,,559.5462,560.0442,560.2937,563.4527,space,3.1414,,563.4528,31,14,564.4494,564.4494,566.5445,space,2.0658,,0,45,45,45,1,150,105,,,,,,,,
,,613a8378db0ae11b02001c49,65af5530986fda920460fb86,2024-01-22_23h57.51.684,bars,2023.2.3,Win32,60.24096386,657b66ea316d21385b68909f,,,,,,,,,,,566.5449,567.5411,,,568.0397,568.2897,,101,101,,,,,,,,,,,,,,,,bars/005.png,bars/mask003.png,,,,,,,,,,,,0,2,,,,,,,6,2,6,1,,,,,,,,,,,567.5411,568.0397,568.2897,569.5527,space,1.2465,,569.5528,89,39,570.5497,570.5498,571.2314,space,0.6522,,0,46,46,46,1,10,140,,,,,,,,
,,613a8378db0ae11b02001c49,65af5530986fda920460fb86,2024-01-22_23h57.51.684,bars,2023.2.3,Win32,60.24096386,657b66ea316d21385b68909f,,,,,,,,,,,571.2318,572.2301,,,572.7289,572.9769,,160,160,,,,,,,,,,,,,,,,bars/004.png,bars/mask006.png,,,,,,,,,,,,0,2,,,,,,,4,4,3,5,,,,,,,,,,,572.2301,572.7288,572.9769,574.5896,space,1.597,,574.5897,45,35,575.5871,575.5871,576.2862,space,0.6781,,0,47,47,47,1,25,125,,,,,,,,
,,613a8378db0ae11b02001c49,65af5530986fda920460fb86,2024-01-22_23h57.51.684,bars,2023.2.3,Win32,60.24096386,657b66ea316d21385b68909f,,,,,,,,,,,576.287,577.2817,,,577.7812,578.03,,116,116,,,,,,,,,,,,,,,,bars/022.png,bars/mask009.png,,,,,,,,,,,,1,1,,,,,,,2,2,2,3,,,,,,,,,,,577.2818,577.7812,578.0301,578.6948,space,0.6483,,578.6949,21,84,579.692,579.692,580.5398,space,0.8285,,0,48,48,48,1,95,20,,,,,,,,
,,613a8378db0ae11b02001c49,65af5530986fda920460fb86,2024-01-22_23h57.51.684,bars,2023.2.3,Win32,60.24096386,657b66ea316d21385b68909f,,,,,,,,,,,580.5404,581.5392,,,582.0363,582.285,,48,48,,,,,,,,,,,,,,,,bars/019.png,bars/mask007.png,,,,,,,,,,,,0,1,,,,,,,0,0,0,0,,,,,,,,,,,581.5393,582.0363,582.285,584.2138,space,1.9123,,584.2139,3,57,585.2111,585.2111,587.405,space,2.1677,,0,49,49,49,1,45,105,,,,,,,,
,,613a8378db0ae11b02001c49,65af5530986fda920460fb86,2024-01-22_23h57.51.684,bars,2023.2.3,Win32,60.24096386,657b66ea316d21385b68909f,,,,,,,,,,,,,,,,,,,,,,,,,,,,,,,,,,,,,,,,,,,,,,,,,,,,,,,,,,,,,,,,,,,,,,,,,,,,,,,,,,,,,,,,,,,,,587.4059,647.3972,0,0,0,0,1,sequence_tables/blk014.csv
,,613a8378db0ae11b02001c49,65af5530986fda920460fb86,2024-01-22_23h57.51.684,bars,2023.2.3,Win32,60.24096386,657b66ea316d21385b68909f,,,,,,,,,,,647.7022,648.6919,,,649.1899,649.4391,,153,153,,,,,,,,,,,,,,,,bars/018.png,bars/mask009.png,,,,,,,,,,,,7,1,,,,,,,8,1,8,0,,,,,,647.3983,647.6944,space,0.2839,,648.6919,649.1899,649.4391,652.2816,space,2.8256,,652.2818,3,63,653.2787,653.2788,653.2895,,,,0,0,0,0,1,150,90,,,,,,,,
,,613a8378db0ae11b02001c49,65af5530986fda920460fb86,2024-01-22_23h57.51.684,bars,2023.2.3,Win32,60.24096386,657b66ea316d21385b68909f,,,,,,,,,,,653.2897,654.2934,,,654.7915,655.0412,,11,11,,,,,,,,,,,,,,,,bars/014.png,bars/mask008.png,,,,,,,,,,,,2,2,,,,,,,6,3,5,3,,,,,,,,,,,654.2935,654.7914,655.0413,656.504,space,1.4468,,656.504,69,11,657.5012,657.5013,657.5136,,,,0,1,1,1,1,80,0,,,,,,,,
,,613a8378db0ae11b02001c49,65af5530986fda920460fb86,2024-01-22_23h57.51.684,bars,2023.2.3,Win32,60.24096386,657b66ea316d21385b68909f,,,,,,,,,,,657.5139,658.5166,,,659.0142,659.2635,,137,137,,,,,,,,,,,,,,,,bars/007.png,bars/mask003.png,,,,,,,,,,,,0,1,,,,,,,4,5,5,6,,,,,,,,,,,658.5167,659.0142,659.2635,660.7928,space,1.5128,,660.7928,38,82,661.7899,661.7899,661.7926,,,,0,2,2,2,1,175,55,,,,,,,,
,,613a8378db0ae11b02001c49,65af5530986fda920460fb86,2024-01-22_23h57.51.684,bars,2023.2.3,Win32,60.24096386,657b66ea316d21385b68909f,,,,,,,,,,,661.7931,662.7872,,,663.287,663.5368,,149,149,,,,,,,,,,,,,,,,bars/007.png,bars/mask008.png,,,,,,,,,,,,1,1,,,,,,,6,3,6,2,,,,,,,,,,,662.7872,663.287,663.5368,665.5969,space,2.0454,,665.5969,26,86,666.5934,666.5934,666.5941,,,,0,3,3,3,1,175,55,,,,,,,,
,,613a8378db0ae11b02001c49,65af5530986fda920460fb86,2024-01-22_23h57.51.684,bars,2023.2.3,Win32,60.24096386,657b66ea316d21385b68909f,,,,,,,,,,,666.5945,667.5921,,,668.0893,668.3394,,16,196,,,,,,,,,,,,,,,,bars/014.png,bars/mask003.png,,,,,,,,,,,,0,2,,,,,,,8,1,6,0,,,,,,,,,,,667.5921,668.0893,668.3395,670.6493,space,2.2956,,670.6494,64,16,671.6466,671.6466,671.6589,,,,0,4,4,4,1,80,0,,,,,,,,
,,613a8378db0ae11b02001c49,65af5530986fda920460fb86,2024-01-22_23h57.51.684,bars,2023.2.3,Win32,60.24096386,657b66ea316d21385b68909f,,,,,,,,,,,671.6592,672.6606,,,673.1598,673.4092,,45,45,,,,,,,,,,,,,,,,bars/027.png,bars/mask000.png,,,,,,,,,,,,3,2,,,,,,,10,3,10,3,,,,,,,,,,,672.6606,673.1598,673.4092,675.2705,space,1.8446,,675.2706,65,5,676.2678,676.2678,676.2687,,,,0,5,5,5,1,110,50,,,,,,,,
,,613a8378db0ae11b02001c49,65af5530986fda920460fb86,2024-01-22_23h57.51.684,bars,2023.2.3,Win32,60.24096386,657b66ea316d21385b68909f,,,,,,,,,,,676.2691,677.2653,,,677.7636,678.0134,,31,31,,,,,,,,,,,,,,,,bars/032.png,bars/mask005.png,,,,,,,,,,,,0,2,,,,,,,8,1,8,0,,,,,,,,,,,677.2653,677.7635,678.0134,683.1828,space,5.1538,,683.1829,86,11,684.1796,684.1797,684.1907,,,,0,6,6,6,1,125,20,,,,,,,,
,,613a8378db0ae11b02001c49,65af5530986fda920460fb86,2024-01-22_23h57.51.684,bars,2023.2.3,Win32,60.24096386,657b66ea316d21385b68909f,,,,,,,,,,,684.1909,685.195,,,685.6926,685.9422,,119,119,,,,,,,,,,,,,,,,bars/015.png,bars/mask005.png,,,,,,,,,,,,4,1,,,,,,,6,0,6,0,,,,,,,,,,,685.1951,685.6926,685.9423,687.6207,space,1.6623,,687.6209,9,41,688.6206,688.6207,688.626,,,,0,7,7,7,1,110,160,,,,,,,,
,,613a8378db0ae11b02001c49,65af5530986fda920460fb86,2024-01-22_23h57.51.684,bars,2023.2.3,Win32,60.24096386,657b66ea316d21385b68909f,,,,,,,,,,,688.6265,689.6166,,,690.114,690.3638,,60,60,,,,,,,,,,,,,,,,bars/026.png,bars/mask008.png,,,,,,,,,,,,0,2,,,,,,,4,0,6,0,,,,,,,,,,,689.6166,690.1139,690.3638,692.9566,space,2.5771,,692.9567,25,25,693.9536,693.9536,693.9655,,,,0,8,8,8,1,35,85,,,,,,,,
,,613a8378db0ae11b02001c49,65af5530986fda920460fb86,2024-01-22_23h57.51.684,bars,2023.2.3,Win32,60.24096386,657b66ea316d21385b68909f,,,,,,,,,,,693.9658,694.9674,,,695.4679,695.7157,,45,45,,,,,,,,,,,,,,,,bars/041.png,bars/mask005.png,,,,,,,,,,,,1,1,,,,,,,6,0,6,0,,,,,,,,,,,694.9675,695.4679,695.7158,697.1953,space,1.4624,,697.1953,25,40,698.1928,698.1928,698.1956,,,,0,9,9,9,1,20,85,,,,,,,,
,,613a8378db0ae11b02001c49,65af5530986fda920460fb86,2024-01-22_23h57.51.684,bars,2023.2.3,Win32,60.24096386,657b66ea316d21385b68909f,,,,,,,,,,,698.1964,699.1896,,,699.6889,699.9378,,124,124,,,,,,,,,,,,,,,,bars/038.png,bars/mask000.png,,,,,,,,,,,,0,1,,,,,,,8,2,8,3,,,,,,,,,,,699.1897,699.6889,699.9379,703.8777,space,3.9229,,703.8777,41,54,704.8744,704.8744,704.885,,,,0,10,10,10,1,165,70,,,,,,,,
,,613a8378db0ae11b02001c49,65af5530986fda920460fb86,2024-01-22_23h57.51.684,bars,2023.2.3,Win32,60.24096386,657b66ea316d21385b68909f,,,,,,,,,,,704.8852,705.8733,,,706.3719,706.6198,,167,167,,,,,,,,,,,,,,,,bars/024.png,bars/mask008.png,,,,,,,,,,,,0,2,,,,,,,6,0,7,0,,,,,,,,,,,705.8734,706.3718,706.6199,708.1998,space,1.5625,,708.1999,47,3,709.1963,709.1964,709.2012,,,,0,11,11,11,1,120,170,,,,,,,,
,,613a8378db0ae11b02001c49,65af5530986fda920460fb86,2024-01-22_23h57.51.684,bars,2023.2.3,Win32,60.24096386,657b66ea316d21385b68909f,,,,,,,,,,,709.2022,710.1937,,,710.6925,710.942,,102,102,,,,,,,,,,,,,,,,bars/021.png,bars/mask000.png,,,,,,,,,,,,0,2,,,,,,,4,2,5,2,,,,,,,,,,,710.1938,710.6924,710.942,711.8421,space,0.8847,,711.8423,53,32,712.837,712.837,712.8381,,,,0,12,12,12,1,155,70,,,,,,,,
,,613a8378db0ae11b02001c49,65af5530986fda920460fb86,2024-01-22_23h57.51.684,bars,2023.2.3,Win32,60.24096386,657b66ea316d21385b68909f,,,,,,,,,,,712.8384,713.8343,,,714.3325,714.5821,,127,127,,,,,,,,,,,,,,,,bars/002.png,bars/mask003.png,,,,,,,,,,,,6,1,,,,,,,6,0,7,0,,,,,,,,,,,713.8344,714.3325,714.5822,717.7071,space,3.109,,717.7071,3,42,718.7046,718.7048,718.7162,,,,0,13,13,13,1,130,85,,,,,,,,
,,613a8378db0ae11b02001c49,65af5530986fda920460fb86,2024-01-22_23h57.51.684,bars,2023.2.3,Win32,60.24096386,657b66ea316d21385b68909f,,,,,,,,,,,718.7164,719.7186,,,720.2177,720.4668,,54,54,,,,,,,,,,,,,,,,bars/041.png,bars/mask000.png,,,,,,,,,,,,0,2,,,,,,,8,2,7,2,,,,,,,,,,,719.7187,720.2176,720.4668,722.5273,space,2.0441,,722.5273,34,31,723.5253,723.5253,723.537,,,,0,14,14,14,1,20,85,,,,,,,,
,,613a8378db0ae11b02001c49,65af5530986fda920460fb86,2024-01-22_23h57.51.684,bars,2023.2.3,Win32,60.24096386,657b66ea316d21385b68909f,,,,,,,,,,,723.5372,724.5386,,,725.0378,725.2883,,66,66,,,,,,,,,,,,,,,,bars/002.png,bars/mask007.png,,,,,,,,,,,,2,2,,,,,,,10,4,10,6,,,,,,,,,,,724.5386,725.0378,725.2883,727.0171,space,1.7136,,727.0171,64,19,728.0133,728.0133,728.024,,,,0,15,15,15,1,130,85,,,,,,,,
,,613a8378db0ae11b02001c49,65af5530986fda920460fb86,2024-01-22_23h57.51.684,bars,2023.2.3,Win32,60.24096386,657b66ea316d21385b68909f,,,,,,,,,,,728.0243,729.0279,,,729.5261,729.7764,,121,121,,,,,,,,,,,,,,,,bars/038.png,bars/mask000.png,,,,,,,,,,,,0,1,,,,,,,10,2,10,2,,,,,,,,,,,729.028,729.526,729.7765,731.7201,space,1.9298,,731.7201,44,51,732.7167,732.7168,732.7191,,,,0,16,16,16,1,165,70,,,,,,,,
,,613a8378db0ae11b02001c49,65af5530986fda920460fb86,2024-01-22_23h57.51.684,bars,2023.2.3,Win32,60.24096386,657b66ea316d21385b68909f,,,,,,,,,,,732.7197,733.7139,,,734.2135,734.4638,,151,151,,,,,,,,,,,,,,,,bars/026.png,bars/mask009.png,,,,,,,,,,,,0,1,,,,,,,8,0,6,0,,,,,,,,,,,733.714,734.2135,734.4639,736.3243,space,1.8469,,736.3243,64,66,737.3211,737.3211,737.3222,,,,0,17,17,17,1,35,85,,,,,,,,
,,613a8378db0ae11b02001c49,65af5530986fda920460fb86,2024-01-22_23h57.51.684,bars,2023.2.3,Win32,60.24096386,657b66ea316d21385b68909f,,,,,,,,,,,737.3226,738.3191,,,738.8178,739.0696,,21,201,,,,,,,,,,,,,,,,bars/002.png,bars/mask008.png,,,,,,,,,,,,0,2,,,,,,,10,2,10,3,,,,,,,,,,,738.3191,738.8178,739.0696,740.6135,space,1.5285,,740.6135,71,64,741.6106,741.6106,741.6227,,,,0,18,18,18,1,130,85,,,,,,,,
,,613a8378db0ae11b02001c49,65af5530986fda920460fb86,2024-01-22_23h57.51.684,bars,2023.2.3,Win32,60.24096386,657b66ea316d21385b68909f,,,,,,,,,,,741.623,742.625,,,743.1242,743.3722,,121,121,,,,,,,,,,,,,,,,bars/008.png,bars/mask008.png,,,,,,,,,,,,6,1,,,,,,,10,4,10,7,,,,,,,,,,,742.625,743.1241,743.3722,745.7161,space,2.3277,,745.7161,11,59,746.7129,746.713,746.7278,,,,0,19,19,19,1,110,0,,,,,,,,
,,613a8378db0ae11b02001c49,65af5530986fda920460fb86,2024-01-22_23h57.51.684,bars,2023.2.3,Win32,60.24096386,657b66ea316d21385b68909f,,,,,,,,,,,746.7282,747.7234,,,748.2226,748.4632,,37,37,,,,,,,,,,,,,,,,bars/034.png,bars/mask007.png,,,,,,,,,,,,0,2,,,,,,,8,6,8,5,,,,,,,,,,,747.7235,748.2226,748.4632,750.4342,space,1.9458,,750.4343,88,28,751.4306,751.4306,751.4337,,,,0,20,20,20,1,125,65,,,,,,,,
,,613a8378db0ae11b02001c49,65af5530986fda920460fb86,2024-01-22_23h57.51.684,bars,2023.2.3,Win32,60.24096386,657b66ea316d21385b68909f,,,,,,,,,,,751.4341,752.431,,,752.9303,753.1788,,48,48,,,,,,,,,,,,,,,,bars/029.png,bars/mask006.png,,,,,,,,,,,,7,2,,,,,,,6,8,6,8,,,,,,,,,,,752.4311,752.9302,753.179,755.3942,space,2.2014,,755.3942,42,3,756.3876,756.3877,756.3995,,,,0,21,21,21,1,90,45,,,,,,,,
,,613a8378db0ae11b02001c49,65af5530986fda920460fb86,2024-01-22_23h57.51.684,bars,2023.2.3,Win32,60.24096386,657b66ea316d21385b68909f,,,,,,,,,,,756.3998,757.3936,,,757.8842,758.1246,,120,120,,,,,,,,,,,,,,,,bars/007.png,bars/mask005.png,,,,,,,,,,,,0,1,,,,,,,4,6,4,7,,,,,,,,,,,757.3937,757.8842,758.1247,760.4405,space,2.2946,,760.4405,55,65,761.4306,761.4308,761.4353,,,,0,22,22,22,1,175,55,,,,,,,,
,,613a8378db0ae11b02001c49,65af5530986fda920460fb86,2024-01-22_23h57.51.684,bars,2023.2.3,Win32,60.24096386,657b66ea316d21385b68909f,,,,,,,,,,,761.4355,762.4372,,,762.9368,763.1989,,137,137,,,,,,,,,,,,,,,,bars/025.png,bars/mask002.png,,,,,,,,,,,,0,1,,,,,,,6,4,7,4,,,,,,,,,,,762.4372,762.9367,763.199,766.8262,space,3.609,,766.8262,32,83,767.823,767.823,767.8352,,,,0,23,23,23,1,105,40,,,,,,,,
,,613a8378db0ae11b02001c49,65af5530986fda920460fb86,2024-01-22_23h57.51.684,bars,2023.2.3,Win32,60.24096386,657b66ea316d21385b68909f,,,,,,,,,,,767.8353,768.8375,,,769.3363,769.582,,45,225,,,,,,,,,,,,,,,,bars/010.png,bars/mask009.png,,,,,,,,,,,,3,2,,,,,,,4,6,4,5,,,,,,,,,,,768.8375,769.3362,769.582,774.5021,space,4.9033,,774.5021,60,10,775.5024,775.5024,775.5145,,,,0,24,24,24,1,165,55,,,,,,,,
,,613a8378db0ae11b02001c49,65af5530986fda920460fb86,2024-01-22_23h57.51.684,bars,2023.2.3,Win32,60.24096386,657b66ea316d21385b68909f,,,,,,,,,,,775.5147,776.5173,,,777.0121,777.2644,,59,59,,,,,,,,,,,,,,,,bars/049.png,bars/mask008.png,,,,,,,,,,,,0,2,,,,,,,6,8,5,7,,,,,,,,,,,776.5174,777.0121,777.2644,780.1435,space,2.8647,,780.1435,79,56,781.1382,781.1383,781.1497,,,,0,25,25,25,1,160,115,,,,,,,,
,,613a8378db0ae11b02001c49,65af5530986fda920460fb86,2024-01-22_23h57.51.684,bars,2023.2.3,Win32,60.24096386,657b66ea316d21385b68909f,,,,,,,,,,,781.15,782.14,,,782.6283,782.8674,,133,133,,,,,,,,,,,,,,,,bars/029.png,bars/mask003.png,,,,,,,,,,,,0,1,,,,,,,4,10,4,9,,,,,,,,,,,782.1402,782.6282,782.8674,786.4487,space,3.5666,,786.4488,43,88,787.4372,787.4373,787.4503,,,,0,26,26,26,1,90,45,,,,,,,,
,,613a8378db0ae11b02001c49,65af5530986fda920460fb86,2024-01-22_23h57.51.684,bars,2023.2.3,Win32,60.24096386,657b66ea316d21385b68909f,,,,,,,,,,,787.4504,788.4427,,,788.934,789.173,,23,23,,,,,,,,,,,,,,,,bars/046.png,bars/mask007.png,,,,,,,,,,,,0,1,,,,,,,6,10,6,10,,,,,,,,,,,788.4428,788.9339,789.1731,792.6707,space,3.4743,,792.6707,48,62,793.6707,793.6708,793.6823,,,,0,27,27,27,1,155,85,,,,,,,,
,,613a8378db0ae11b02001c49,65af5530986fda920460fb86,2024-01-22_23h57.51.684,bars,2023.2.3,Win32,60.24096386,657b66ea316d21385b68909f,,,,,,,,,,,793.6825,794.6818,,,795.1833,795.4329,,110,110,,,,,,,,,,,,,,,,bars/030.png,bars/mask001.png,,,,,,,,,,,,0,1,,,,,,,4,8,4,9,,,,,,,,,,,794.6819,795.1832,795.433,796.3281,space,0.8822,,796.3282,30,45,797.3242,797.3242,797.3255,,,,0,28,28,28,1,140,65,,,,,,,,
,,613a8378db0ae11b02001c49,65af5530986fda920460fb86,2024-01-22_23h57.51.684,bars,2023.2.3,Win32,60.24096386,657b66ea316d21385b68909f,,,,,,,,,,,797.3258,798.3221,,,798.8235,799.0741,,39,39,,,,,,,,,,,,,,,,bars/018.png,bars/mask003.png,,,,,,,,,,,,0,2,,,,,,,6,10,6,10,,,,,,,,,,,798.3222,798.8234,799.0741,802.4149,space,3.3096,,802.415,69,51,803.4123,803.4123,803.4299,,,,0,29,29,29,1,150,90,,,,,,,,
,,613a8378db0ae11b02001c49,65af5530986fda920460fb86,2024-01-22_23h57.51.684,bars,2023.2.3,Win32,60.24096386,657b66ea316d21385b68909f,,,,,,,,,,,803.4303,804.4235,,,804.9207,805.159,,155,155,,,,,,,,,,,,,,,,bars/023.png,bars/mask006.png,,,,,,,,,,,,0,2,,,,,,,8,8,7,7,,,,,,,,,,,804.4235,804.9206,805.159,806.5002,space,1.3289,,806.5002,45,40,807.4936,807.4937,807.4954,,,,0,30,30,30,1,20,115,,,,,,,,
,,613a8378db0ae11b02001c49,65af5530986fda920460fb86,2024-01-22_23h57.51.684,bars,2023.2.3,Win32,60.24096386,657b66ea316d21385b68909f,,,,,,,,,,,807.496,808.499,,,808.9878,809.2291,,27,27,,,,,,,,,,,,,,,,bars/023.png,bars/mask006.png,,,,,,,,,,,,8,1,,,,,,,10,6,10,8,,,,,,,,,,,808.499,808.9877,809.2291,811.3242,space,2.0763,,811.3242,7,88,812.3127,812.3129,812.3259,,,,0,31,31,31,1,20,115,,,,,,,,
,,613a8378db0ae11b02001c49,65af5530986fda920460fb86,2024-01-22_23h57.51.684,bars,2023.2.3,Win32,60.24096386,657b66ea316d21385b68909f,,,,,,,,,,,812.3262,813.3193,,,813.814,814.0662,,48,228,,,,,,,,,,,,,,,,bars/034.png,bars/mask002.png,,,,,,,,,,,,3,2,,,,,,,8,8,8,8,,,,,,,,,,,813.3195,813.8139,814.0663,816.9928,space,2.9101,,816.9928,77,17,817.9897,817.9897,818.0027,,,,0,32,32,32,1,125,65,,,,,,,,
,,613a8378db0ae11b02001c49,65af5530986fda920460fb86,2024-01-22_23h57.51.684,bars,2023.2.3,Win32,60.24096386,657b66ea316d21385b68909f,,,,,,,,,,,818.0029,818.9997,,,819.5019,819.7513,,141,141,,,,,,,,,,,,,,,,bars/033.png,bars/mask008.png,,,,,,,,,,,,4,2,,,,,,,6,10,6,8,,,,,,,,,,,818.9997,819.5018,819.7513,821.8265,space,2.0614,,821.8265,64,14,822.8269,822.827,822.8382,,,,0,33,33,33,1,25,155,,,,,,,,
,,613a8378db0ae11b02001c49,65af5530986fda920460fb86,2024-01-22_23h57.51.684,bars,2023.2.3,Win32,60.24096386,657b66ea316d21385b68909f,,,,,,,,,,,822.8385,823.8337,,,824.3221,824.5624,,158,158,,,,,,,,,,,,,,,,bars/041.png,bars/mask007.png,,,,,,,,,,,,0,1,,,,,,,4,10,3,8,,,,,,,,,,,823.8339,824.3221,824.5625,825.7884,space,1.2135,,825.7884,42,73,826.7822,826.7824,826.7949,,,,0,34,34,34,1,20,85,,,,,,,,
,,613a8378db0ae11b02001c49,65af5530986fda920460fb86,2024-01-22_23h57.51.684,bars,2023.2.3,Win32,60.24096386,657b66ea316d21385b68909f,,,,,,,,,,,826.7951,827.796,,,828.3071,828.5516,,138,138,,,,,,,,,,,,,,,,bars/043.png,bars/mask004.png,,,,,,,,,,,,6,2,,,,,,,6,8,5,8,,,,,,,,,,,827.7961,828.307,828.5517,830.2072,space,1.6415,,830.2072,72,8,831.2045,831.2047,831.217,,,,0,35,35,35,1,30,130,,,,,,,,
,,613a8378db0ae11b02001c49,65af5530986fda920460fb86,2024-01-22_23h57.51.684,bars,2023.2.3,Win32,60.24096386,657b66ea316d21385b68909f,,,,,,,,,,,831.2172,832.206,,,832.6971,832.9465,,77,77,,,,,,,,,,,,,,,,bars/031.png,bars/mask006.png,,,,,,,,,,,,0,2,,,,,,,8,10,9,10,,,,,,,,,,,832.2061,832.697,832.9465,838.1372,space,5.1746,,838.1373,43,42,839.1289,839.129,839.1416,,,,0,36,36,36,1,120,35,,,,,,,,
,,613a8378db0ae11b02001c49,65af5530986fda920460fb86,2024-01-22_23h57.51.684,bars,2023.2.3,Win32,60.24096386,657b66ea316d21385b68909f,,,,,,,,,,,839.1419,840.1306,,,840.6387,840.8778,,45,45,,,,,,,,,,,,,,,,bars/043.png,bars/mask009.png,,,,,,,,,,,,5,1,,,,,,,10,10,10,10,,,,,,,,,,,840.1306,840.6387,840.8779,842.2376,space,1.3449,,842.2377,15,85,843.2381,843.2382,843.2413,,,,0,37,37,37,1,30,130,,,,,,,,
,,613a8378db0ae11b02001c49,65af5530986fda920460fb86,2024-01-22_23h57.51.684,bars,2023.2.3,Win32,60.24096386,657b66ea316d21385b68909f,,,,,,,,,,,843.2418,844.2327,,,844.7353,844.9838,,52,52,,,,,,,,,,,,,,,,bars/004.png,bars/mask005.png,,,,,,,,,,,,1,1,,,,,,,8,10,7,10,,,,,,,,,,,844.2327,844.7352,844.9838,851.9157,space,6.916,,851.9158,27,73,852.9125,852.9125,852.9249,,,,0,38,38,38,1,25,125,,,,,,,,
,,613a8378db0ae11b02001c49,65af5530986fda920460fb86,2024-01-22_23h57.51.684,bars,2023.2.3,Win32,60.24096386,657b66ea316d21385b68909f,,,,,,,,,,,852.9252,853.9264,,,854.4389,854.68,,32,32,,,,,,,,,,,,,,,,bars/037.png,bars/mask007.png,,,,,,,,,,,,0,1,,,,,,,10,8,9,9,,,,,,,,,,,853.9264,854.4389,854.6801,855.6554,space,0.9456,,855.6555,62,73,856.6493,856.6493,856.6608,,,,0,39,39,39,1,150,105,,,,,,,,
,,613a8378db0ae11b02001c49,65af5530986fda920460fb86,2024-01-22_23h57.51.684,bars,2023.2.3,Win32,60.24096386,657b66ea316d21385b68909f,,,,,,,,,,,856.661,857.6515,,,858.1503,858.3979,,116,116,,,,,,,,,,,,,,,,bars/005.png,bars/mask005.png,,,,,,,,,,,,1,2,,,,,,,8,6,7,6,,,,,,,,,,,857.6515,858.1502,858.398,860.145,space,1.7303,,860.1451,74,24,861.1404,861.1405,861.1529,,,,0,40,40,40,1,10,140,,,,,,,,
,,613a8378db0ae11b02001c49,65af5530986fda920460fb86,2024-01-22_23h57.51.684,bars,2023.2.3,Win32,60.24096386,657b66ea316d21385b68909f,,,,,,,,,,,861.1532,862.1554,,,862.651,862.8928,,122,122,,,,,,,,,,,,,,,,bars/034.png,bars/mask001.png,,,,,,,,,,,,5,1,,,,,,,6,4,6,4,,,,,,,,,,,862.1555,862.651,862.8928,864.596,space,1.6796,,864.596,3,57,865.5959,865.596,865.6082,,,,0,41,41,41,1,125,65,,,,,,,,
,,613a8378db0ae11b02001c49,65af5530986fda920460fb86,2024-01-22_23h57.51.684,bars,2023.2.3,Win32,60.24096386,657b66ea316d21385b68909f,,,,,,,,,,,865.6084,866.599,,,867.0914,867.3379,,54,54,,,,,,,,,,,,,,,,bars/011.png,bars/mask006.png,,,,,,,,,,,,0,2,,,,,,,4,2,3,3,,,,,,,,,,,866.5992,867.0914,867.3379,868.738,space,1.378,,868.738,74,31,869.735,869.735,869.738,,,,0,42,42,42,1,160,85,,,,,,,,
,,613a8378db0ae11b02001c49,65af5530986fda920460fb86,2024-01-22_23h57.51.684,bars,2023.2.3,Win32,60.24096386,657b66ea316d21385b68909f,,,,,,,,,,,869.7387,870.7314,,,871.2306,871.4851,,162,-18,,,,,,,,,,,,,,,,bars/041.png,bars/mask007.png,,,,,,,,,,,,0,1,,,,,,,6,0,6,0,,,,,,,,,,,870.7315,871.2305,871.4852,872.9066,space,1.3969,,872.9066,38,77,873.9071,873.9073,873.9126,,,,0,43,43,43,1,20,85,,,,,,,,
,,613a8378db0ae11b02001c49,65af5530986fda920460fb86,2024-01-22_23h57.51.684,bars,2023.2.3,Win32,60.24096386,657b66ea316d21385b68909f,,,,,,,,,,,873.913,874.9044,,,875.4025,875.6427,,43,43,,,,,,,,,,,,,,,,bars/005.png,bars/mask009.png,,,,,,,,,,,,0,1,,,,,,,4,2,2,2,,,,,,,,,,,874.9045,875.4024,875.6428,877.8048,space,2.1473,,877.8049,33,83,878.8028,878.8028,878.8049,,,,0,44,44,44,1,10,140,,,,,,,,
,,613a8378db0ae11b02001c49,65af5530986fda920460fb86,2024-01-22_23h57.51.684,bars,2023.2.3,Win32,60.24096386,657b66ea316d21385b68909f,,,,,,,,,,,878.8057,879.8199,,,880.3194,880.5632,,126,126,,,,,,,,,,,,,,,,bars/020.png,bars/mask005.png,,,,,,,,,,,,1,1,,,,,,,2,0,1,1,,,,,,,,,,,879.82,880.3193,880.5633,883.1164,space,2.5353,,883.1164,11,44,884.1061,884.1062,884.119,,,,0,45,45,45,1,115,170,,,,,,,,
,,613a8378db0ae11b02001c49,65af5530986fda920460fb86,2024-01-22_23h57.51.684,bars,2023.2.3,Win32,60.24096386,657b66ea316d21385b68909f,,,,,,,,,,,884.1192,885.1108,,,885.6019,885.8538,,157,157,,,,,,,,,,,,,,,,bars/014.png,bars/mask008.png,,,,,,,,,,,,0,2,,,,,,,0,2,0,2,,,,,,,,,,,885.1109,885.6018,885.8538,887.2556,space,1.3798,,887.2557,77,23,888.253,888.2531,888.2563,,,,0,46,46,46,1,80,0,,,,,,,,
,,613a8378db0ae11b02001c49,65af5530986fda920460fb86,2024-01-22_23h57.51.684,bars,2023.2.3,Win32,60.24096386,657b66ea316d21385b68909f,,,,,,,,,,,888.2567,889.249,,,889.7483,889.9975,,142,-38,,,,,,,,,,,,,,,,bars/046.png,bars/mask005.png,,,,,,,,,,,,2,1,,,,,,,2,4,3,4,,,,,,,,,,,889.249,889.7483,889.9975,892.9398,space,2.9252,,892.9399,13,57,893.9368,893.9369,893.9492,,,,0,47,47,47,1,155,85,,,,,,,,
,,613a8378db0ae11b02001c49,65af5530986fda920460fb86,2024-01-22_23h57.51.684,bars,2023.2.3,Win32,60.24096386,657b66ea316d21385b68909f,,,,,,,,,,,893.9495,894.951,,,895.4491,895.6983,,27,207,,,,,,,,,,,,,,,,bars/014.png,bars/mask007.png,,,,,,,,,,,,0,2,,,,,,,4,2,4,4,,,,,,,,,,,894.951,895.449,895.6984,899.1726,space,3.4579,,899.1727,53,27,900.1706,900.1707,900.1825,,,,0,48,48,48,1,80,0,,,,,,,,
,,613a8378db0ae11b02001c49,65af5530986fda920460fb86,2024-01-22_23h57.51.684,bars,2023.2.3,Win32,60.24096386,657b66ea316d21385b68909f,,,,,,,,,,,900.1828,901.1843,,,901.683,901.9317,,141,141,,,,,,,,,,,,,,,,bars/008.png,bars/mask009.png,,,,,,,,,,,,0,1,,,,,,,6,4,7,3,,,,,,,,,,,901.1844,901.6829,901.9318,903.3946,space,1.4447,,903.3947,31,39,904.392,904.3921,904.3944,,,,0,49,49,49,1,110,0,,,,,,,,
,,613a8378db0ae11b02001c49,65af5530986fda920460fb86,2024-01-22_23h57.51.684,bars,2023.2.3,Win32,60.24096386,657b66ea316d21385b68909f,,,,,,,,,,,,,,,,,,,,,,,,,,,,,,,,,,,,,,,,,,,,,,,,,,,,,,,,,,,,,,,,,,,,,,,,,,,,,,,,,,,,,,,,,,,,,904.3947,964.3837,0,1,1,4,1,sequence_tables/blk025.csv
,,613a8378db0ae11b02001c49,65af5530986fda920460fb86,2024-01-22_23h57.51.684,bars,2023.2.3,Win32,60.24096386,657b66ea316d21385b68909f,,,,,,,,,,,1054.2151,1055.2059,,,1055.7053,1055.9546,,15,195,,,,,,,,,,,,,,,,bars/034.png,bars/mask002.png,,,,,,,,,,,,0,2,,,,,,,7,2,8,3,,,,,,964.396,1054.1932,space,89.7823,,1055.206,1055.7052,1055.9546,1058.6304,space,2.641,,1058.6304,70,50,1059.6287,1059.6288,1059.6405,,,,0,0,0,0,1,125,65,,,,,,,,
,,613a8378db0ae11b02001c49,65af5530986fda920460fb86,2024-01-22_23h57.51.684,bars,2023.2.3,Win32,60.24096386,657b66ea316d21385b68909f,,,,,,,,,,,1059.6408,1060.6419,,,1061.1367,1061.3894,,129,129,,,,,,,,,,,,,,,,bars/033.png,bars/mask008.png,,,,,,,,,,,,1,2,,,,,,,9,4,8,5,,,,,,,,,,,1060.6419,1061.1367,1061.3895,1062.6641,space,1.2605,,1062.6642,76,26,1063.6553,1063.6556,1063.6575,,,,0,1,1,1,1,25,155,,,,,,,,
,,613a8378db0ae11b02001c49,65af5530986fda920460fb86,2024-01-22_23h57.51.684,bars,2023.2.3,Win32,60.24096386,657b66ea316d21385b68909f,,,,,,,,,,,1063.6582,1064.6472,,,1065.1473,1065.3963,,121,121,,,,,,,,,,,,,,,,bars/032.png,bars/mask009.png,,,,,,,,,,,,5,1,,,,,,,7,6,6,6,,,,,,,,,,,1064.6473,1065.1473,1065.3964,1066.8587,space,1.4463,,1066.8588,4,79,1067.856,1067.8561,1067.8591,,,,0,2,2,2,1,125,20,,,,,,,,
,,613a8378db0ae11b02001c49,65af5530986fda920460fb86,2024-01-22_23h57.51.684,bars,2023.2.3,Win32,60.24096386,657b66ea316d21385b68909f,,,,,,,,,,,1067.8598,1068.8539,,,1069.3435,1069.5842,,114,114,,,,,,,,,,,,,,,,bars/030.png,bars/mask004.png,,,,,,,,,,,,1,1,,,,,,,5,8,6,9,,,,,,,,,,,1068.8539,1069.3433,1069.5843,1071.6931,space,2.0959,,1071.6932,26,49,1072.6923,1072.6924,1072.7034,,,,0,3,3,3,1,140,65,,,,,,,,
,,613a8378db0ae11b02001c49,65af5530986fda920460fb86,2024-01-22_23h57.51.684,bars,2023.2.3,Win32,60.24096386,657b66ea316d21385b68909f,,,,,,,,,,,1072.7036,1073.6962,,,1074.189,1074.439,,39,39,,,,,,,,,,,,,,,,bars/012.png,bars/mask003.png,,,,,,,,,,,,1,2,,,,,,,3,6,2,6,,,,,,,,,,,1073.6965,1074.1889,1074.439,1076.0021,space,1.5314,,1076.0022,51,24,1076.9983,1076.9984,1077.0108,,,,0,4,4,4,1,90,15,,,,,,,,
,,613a8378db0ae11b02001c49,65af5530986fda920460fb86,2024-01-22_23h57.51.684,bars,2023.2.3,Win32,60.24096386,657b66ea316d21385b68909f,,,,,,,,,,,1077.0109,1078.0115,,,1078.5109,1078.76,,67,67,,,,,,,,,,,,,,,,bars/015.png,bars/mask007.png,,,,,,,,,,,,0,1,,,,,,,5,4,4,5,,,,,,,,,,,1078.0116,1078.5108,1078.7602,1080.852,space,2.0781,,1080.8521,43,87,1081.8513,1081.8513,1081.8544,,,,0,5,5,5,1,110,160,,,,,,,,
,,613a8378db0ae11b02001c49,65af5530986fda920460fb86,2024-01-22_23h57.51.684,bars,2023.2.3,Win32,60.24096386,657b66ea316d21385b68909f,,,,,,,,,,,1081.855,1082.8499,,,1083.3448,1083.5939,,32,32,,,,,,,,,,,,,,,,bars/012.png,bars/mask003.png,,,,,,,,,,,,1,2,,,,,,,3,2,3,3,,,,,,,,,,,1082.8499,1083.3447,1083.594,1084.709,space,1.0986,,1084.709,58,17,1085.7048,1085.7049,1085.7073,,,,0,6,6,6,1,90,15,,,,,,,,
,,613a8378db0ae11b02001c49,65af5530986fda920460fb86,2024-01-22_23h57.51.684,bars,2023.2.3,Win32,60.24096386,657b66ea316d21385b68909f,,,,,,,,,,,1085.7077,1086.6985,,,1087.1882,1087.4502,,145,145,,,,,,,,,,,,,,,,bars/014.png,bars/mask006.png,,,,,,,,,,,,0,2,,,,,,,1,4,2,3,,,,,,,,,,,1086.6985,1087.188,1087.4502,1089.3412,space,1.873,,1089.3412,65,35,1090.3294,1090.3295,1090.3306,,,,0,7,7,7,1,80,0,,,,,,,,
,,613a8378db0ae11b02001c49,65af5530986fda920460fb86,2024-01-22_23h57.51.684,bars,2023.2.3,Win32,60.24096386,657b66ea316d21385b68909f,,,,,,,,,,,1090.3309,1091.3268,,,1091.8254,1092.0744,,32,32,,,,,,,,,,,,,,,,bars/035.png,bars/mask000.png,,,,,,,,,,,,0,2,,,,,,,0,2,0,3,,,,,,,,,,,1091.3269,1091.8253,1092.0744,1093.8864,space,1.797,,1093.8865,37,28,1094.8831,1094.8832,1094.8951,,,,0,8,8,8,1,175,60,,,,,,,,
,,613a8378db0ae11b02001c49,65af5530986fda920460fb86,2024-01-22_23h57.51.684,bars,2023.2.3,Win32,60.24096386,657b66ea316d21385b68909f,,,,,,,,,,,1094.8953,1095.8983,,,1096.4084,1096.6452,,120,120,,,,,,,,,,,,,,,,bars/021.png,bars/mask000.png,,,,,,,,,,,,0,1,,,,,,,0,4,0,5,,,,,,,,,,,1095.8983,1096.4083,1096.6452,1098.7702,space,2.1113,,1098.7702,35,50,1099.7824,1099.7824,1099.7949,,,,0,9,9,9,1,155,70,,,,,,,,
,,613a8378db0ae11b02001c49,65af5530986fda920460fb86,2024-01-22_23h57.51.684,bars,2023.2.3,Win32,60.24096386,657b66ea316d21385b68909f,,,,,,,,,,,1099.7952,1100.7851,,,1101.2842,1101.5461,,25,25,,,,,,,,,,,,,,,,bars/001.png,bars/mask001.png,,,,,,,,,,,,0,2,,,,,,,0,6,0,6,,,,,,,,,,,1100.7851,1101.2842,1101.5462,1103.7081,space,2.145,,1103.7082,75,60,1104.7069,1104.707,1104.72,,,,0,10,10,10,1,130,85,,,,,,,,
,,613a8378db0ae11b02001c49,65af5530986fda920460fb86,2024-01-22_23h57.51.684,bars,2023.2.3,Win32,60.24096386,657b66ea316d21385b68909f,,,,,,,,,,,1104.7203,1105.7213,,,1106.2201,1106.4689,,35,35,,,,,,,,,,,,,,,,bars/018.png,bars/mask006.png,,,,,,,,,,,,0,2,,,,,,,2,8,2,8,,,,,,,,,,,1105.7213,1106.22,1106.4691,1107.5002,space,1.0128,,1107.5002,65,55,1108.4968,1108.4969,1108.4983,,,,0,11,11,11,1,150,90,,,,,,,,
,,613a8378db0ae11b02001c49,65af5530986fda920460fb86,2024-01-22_23h57.51.684,bars,2023.2.3,Win32,60.24096386,657b66ea316d21385b68909f,,,,,,,,,,,1108.4988,1109.4943,,,1109.9935,1110.2392,,123,123,,,,,,,,,,,,,,,,bars/033.png,bars/mask003.png,,,,,,,,,,,,0,2,,,,,,,4,6,5,6,,,,,,,,,,,1109.4943,1109.9934,1110.2392,1110.9222,space,0.666,,1110.9222,82,32,1111.9217,1111.9218,1111.9231,,,,0,12,12,12,1,25,155,,,,,,,,
,,613a8378db0ae11b02001c49,65af5530986fda920460fb86,2024-01-22_23h57.51.684,bars,2023.2.3,Win32,60.24096386,657b66ea316d21385b68909f,,,,,,,,,,,1111.9234,1112.9158,,,1113.4063,1113.6555,,59,59,,,,,,,,,,,,,,,,bars/015.png,bars/mask009.png,,,,,,,,,,,,0,1,,,,,,,2,8,1,8,,,,,,,,,,,1112.9158,1113.4062,1113.6557,1115.0137,space,1.3443,,1115.0137,51,79,1116.01,1116.01,1116.0131,,,,0,13,13,13,1,110,160,,,,,,,,
,,613a8378db0ae11b02001c49,65af5530986fda920460fb86,2024-01-22_23h57.51.684,bars,2023.2.3,Win32,60.24096386,657b66ea316d21385b68909f,,,,,,,,,,,1116.0136,1117.0075,,,1117.5071,1117.7561,,69,69,,,,,,,,,,,,,,,,bars/006.png,bars/mask005.png,,,,,,,,,,,,0,2,,,,,,,4,10,3,10,,,,,,,,,,,1117.0076,1117.5069,1117.7562,1118.122,space,0.3503,,1118.122,34,31,1119.1156,1119.1157,1119.1188,,,,0,14,14,14,1,35,100,,,,,,,,
,,613a8378db0ae11b02001c49,65af5530986fda920460fb86,2024-01-22_23h57.51.684,bars,2023.2.3,Win32,60.24096386,657b66ea316d21385b68909f,,,,,,,,,,,1119.1195,1120.1092,,,1120.6033,1120.8478,,163,163,,,,,,,,,,,,,,,,bars/024.png,bars/mask009.png,,,,,,,,,,,,7,2,,,,,,,2,10,3,9,,,,,,,,,,,1120.1093,1120.6033,1120.8478,1122.51,space,1.6486,,1122.5101,43,7,1123.5081,1123.5082,1123.5219,,,,0,15,15,15,1,120,170,,,,,,,,
,,613a8378db0ae11b02001c49,65af5530986fda920460fb86,2024-01-22_23h57.51.684,bars,2023.2.3,Win32,60.24096386,657b66ea316d21385b68909f,,,,,,,,,,,1123.5223,1124.5175,,,1125.0168,1125.2688,,67,67,,,,,,,,,,,,,,,,bars/026.png,bars/mask002.png,,,,,,,,,,,,3,2,,,,,,,0,10,0,8,,,,,,,,,,,1124.5175,1125.0167,1125.2689,1127.1147,space,1.8317,,1127.1148,32,18,1128.1106,1128.1107,1128.1122,,,,0,16,16,16,1,35,85,,,,,,,,
,,613a8378db0ae11b02001c49,65af5530986fda920460fb86,2024-01-22_23h57.51.684,bars,2023.2.3,Win32,60.24096386,657b66ea316d21385b68909f,,,,,,,,,,,1128.1129,1129.1087,,,1129.6083,1129.8521,,163,163,,,,,,,,,,,,,,,,bars/040.png,bars/mask004.png,,,,,,,,,,,,3,2,,,,,,,2,8,2,10,,,,,,,,,,,1129.1088,1129.6082,1129.8521,1131.7828,space,1.9122,,1131.7828,23,22,1132.7791,1132.7792,1132.7804,,,,0,17,17,17,1,140,5,,,,,,,,
,,613a8378db0ae11b02001c49,65af5530986fda920460fb86,2024-01-22_23h57.51.684,bars,2023.2.3,Win32,60.24096386,657b66ea316d21385b68909f,,,,,,,,,,,1132.7807,1133.7759,,,1134.2791,1134.5274,,59,59,,,,,,,,,,,,,,,,bars/016.png,bars/mask004.png,,,,,,,,,,,,2,1,,,,,,,4,10,5,10,,,,,,,,,,,1133.776,1134.279,1134.5274,1136.2833,space,1.7423,,1136.2833,19,74,1137.2882,1137.2883,1137.3067,,,,0,18,18,18,1,40,165,,,,,,,,
,,613a8378db0ae11b02001c49,65af5530986fda920460fb86,2024-01-22_23h57.51.684,bars,2023.2.3,Win32,60.24096386,657b66ea316d21385b68909f,,,,,,,,,,,1137.3076,1138.3014,,,1138.8,1139.0629,,97,97,,,,,,,,,,,,,,,,bars/011.png,bars/mask009.png,,,,,,,,,,,,6,2,,,,,,,6,10,5,10,,,,,,,,,,,1138.3015,1138.7999,1139.0629,1141.3261,space,2.2455,,1141.3263,63,12,1142.3247,1142.3248,1142.3379,,,,0,19,19,19,1,160,85,,,,,,,,
,,613a8378db0ae11b02001c49,65af5530986fda920460fb86,2024-01-22_23h57.51.684,bars,2023.2.3,Win32,60.24096386,657b66ea316d21385b68909f,,,,,,,,,,,1142.338,1143.3383,,,1143.8368,1144.082,,43,43,,,,,,,,,,,,,,,,bars/009.png,bars/mask002.png,,,,,,,,,,,,1,1,,,,,,,8,10,9,10,,,,,,,,,,,1143.3384,1143.8368,1144.082,1147.1919,space,3.0931,,1147.192,28,62,1148.1918,1148.1918,1148.2045,,,,0,20,20,20,1,15,105,,,,,,,,
,,613a8378db0ae11b02001c49,65af5530986fda920460fb86,2024-01-22_23h57.51.684,bars,2023.2.3,Win32,60.24096386,657b66ea316d21385b68909f,,,,,,,,,,,1148.2048,1149.1955,,,1149.6877,1149.9362,,116,116,,,,,,,,,,,,,,,,bars/040.png,bars/mask002.png,,,,,,,,,,,,1,1,,,,,,,6,8,6,10,,,,,,,,,,,1149.1957,1149.6876,1149.9362,1152.9755,space,3.0255,,1152.9756,24,69,1153.9755,1153.9755,1153.9872,,,,0,21,21,21,1,140,5,,,,,,,,
,,613a8378db0ae11b02001c49,65af5530986fda920460fb86,2024-01-22_23h57.51.684,bars,2023.2.3,Win32,60.24096386,657b66ea316d21385b68909f,,,,,,,,,,,1153.9875,1154.9912,,,1155.4903,1155.7393,,146,146,,,,,,,,,,,,,,,,bars/011.png,bars/mask001.png,,,,,,,,,,,,3,1,,,,,,,4,6,6,5,,,,,,,,,,,1154.9913,1155.4903,1155.7393,1158.2145,space,2.4455,,1158.2147,14,61,1159.2113,1159.2114,1159.2227,,,,0,22,22,22,1,160,85,,,,,,,,
,,613a8378db0ae11b02001c49,65af5530986fda920460fb86,2024-01-22_23h57.51.684,bars,2023.2.3,Win32,60.24096386,657b66ea316d21385b68909f,,,,,,,,,,,1159.2229,1160.2141,,,1160.7141,1160.9699,,96,96,,,,,,,,,,,,,,,,bars/040.png,bars/mask008.png,,,,,,,,,,,,0,1,,,,,,,2,8,2,8,,,,,,,,,,,1160.2143,1160.7141,1160.97,1162.9996,space,2.0121,,1162.9996,44,89,1163.9959,1163.9961,1164.0104,,,,0,23,23,23,1,140,5,,,,,,,,
,,613a8378db0ae11b02001c49,65af5530986fda920460fb86,2024-01-22_23h57.51.684,bars,2023.2.3,Win32,60.24096386,657b66ea316d21385b68909f,,,,,,,,,,,1164.0108,1165.0133,,,1165.5246,1165.762,,109,109,,,,,,,,,,,,,,,,bars/039.png,bars/mask008.png,,,,,,,,,,,,9,2,,,,,,,4,10,4,10,,,,,,,,,,,1165.0134,1165.5245,1165.7621,1169.152,space,3.3641,,1169.1521,66,4,1170.1491,1170.1492,1170.1618,,,,0,24,24,24,1,175,105,,,,,,,,
,,613a8378db0ae11b02001c49,65af5530986fda920460fb86,2024-01-22_23h57.51.684,bars,2023.2.3,Win32,60.24096386,657b66ea316d21385b68909f,,,,,,,,,,,1170.1622,1171.1604,,,1171.6596,1171.9078,,165,165,,,,,,,,,,,,,,,,bars/035.png,bars/mask003.png,,,,,,,,,,,,2,1,,,,,,,2,8,3,7,,,,,,,,,,,1171.1604,1171.6593,1171.9079,1175.1868,space,3.2619,,1175.1869,10,75,1176.1785,1176.1785,1176.1905,,,,0,25,25,25,1,175,60,,,,,,,,
,,613a8378db0ae11b02001c49,65af5530986fda920460fb86,2024-01-22_23h57.51.684,bars,2023.2.3,Win32,60.24096386,657b66ea316d21385b68909f,,,,,,,,,,,1176.1907,1177.181,,,1177.6795,1177.929,,102,102,,,,,,,,,,,,,,,,bars/026.png,bars/mask000.png,,,,,,,,,,,,4,2,,,,,,,0,10,0,10,,,,,,,,,,,1177.181,1177.6795,1177.9291,1180.955,space,3.0002,,1180.955,67,17,1181.9479,1181.948,1181.9613,,,,0,26,26,26,1,35,85,,,,,,,,
,,613a8378db0ae11b02001c49,65af5530986fda920460fb86,2024-01-22_23h57.51.684,bars,2023.2.3,Win32,60.24096386,657b66ea316d21385b68909f,,,,,,,,,,,1181.9616,1182.9647,,,1183.4646,1183.7087,,140,140,,,,,,,,,,,,,,,,bars/020.png,bars/mask007.png,,,,,,,,,,,,0,1,,,,,,,2,10,2,10,,,,,,,,,,,1182.9647,1183.4646,1183.7088,1186.834,space,3.1065,,1186.8341,25,30,1187.8358,1187.8359,1187.8482,,,,0,27,27,27,1,115,170,,,,,,,,
,,613a8378db0ae11b02001c49,65af5530986fda920460fb86,2024-01-22_23h57.51.684,bars,2023.2.3,Win32,60.24096386,657b66ea316d21385b68909f,,,,,,,,,,,1187.8484,1188.8493,,,1189.3488,1189.5876,,47,47,,,,,,,,,,,,,,,,bars/009.png,bars/mask009.png,,,,,,,,,,,,0,1,,,,,,,0,10,1,10,,,,,,,,,,,1188.8495,1189.3488,1189.5877,1191.7323,space,2.1205,,1191.7324,32,58,1192.723,1192.7232,1192.7343,,,,0,28,28,28,1,15,105,,,,,,,,
,,613a8378db0ae11b02001c49,65af5530986fda920460fb86,2024-01-22_23h57.51.684,bars,2023.2.3,Win32,60.24096386,657b66ea316d21385b68909f,,,,,,,,,,,1192.7344,1193.7333,,,1194.2474,1194.485,,85,85,,,,,,,,,,,,,,,,bars/026.png,bars/mask002.png,,,,,,,,,,,,8,2,,,,,,,0,8,2,8,,,,,,,,,,,1193.7333,1194.2474,1194.485,1196.7626,space,2.2484,,1196.7627,50,0,1197.7598,1197.7598,1197.7789,,,,0,29,29,29,1,35,85,,,,,,,,
,,613a8378db0ae11b02001c49,65af5530986fda920460fb86,2024-01-22_23h57.51.684,bars,2023.2.3,Win32,60.24096386,657b66ea316d21385b68909f,,,,,,,,,,,1197.7792,1198.7689,,,1199.2681,1199.5265,,106,106,,,,,,,,,,,,,,,,bars/042.png,bars/mask000.png,,,,,,,,,,,,0,2,,,,,,,0,10,0,10,,,,,,,,,,,1198.7689,1199.2679,1199.5266,1201.7869,space,2.2432,,1201.787,39,31,1202.7795,1202.7796,1202.7952,,,,0,30,30,30,1,145,75,,,,,,,,
,,613a8378db0ae11b02001c49,65af5530986fda920460fb86,2024-01-22_23h57.51.684,bars,2023.2.3,Win32,60.24096386,657b66ea316d21385b68909f,,,,,,,,,,,1202.7959,1203.7886,,,1204.2831,1204.5366,,125,125,,,,,,,,,,,,,,,,bars/029.png,bars/mask006.png,,,,,,,,,,,,0,1,,,,,,,0,10,0,9,,,,,,,,,,,1203.7887,1204.2829,1204.5367,1207.0388,space,2.4853,,1207.0389,35,80,1208.0281,1208.0282,1208.0476,,,,0,31,31,31,1,90,45,,,,,,,,
,,613a8378db0ae11b02001c49,65af5530986fda920460fb86,2024-01-22_23h57.51.684,bars,2023.2.3,Win32,60.24096386,657b66ea316d21385b68909f,,,,,,,,,,,1208.0479,1209.0424,,,1209.5309,1209.7732,,26,26,,,,,,,,,,,,,,,,bars/031.png,bars/mask001.png,,,,,,,,,,,,6,2,,,,,,,0,8,0,8,,,,,,,,,,,1209.0425,1209.5307,1209.7732,1212.5709,space,2.778,,1212.5709,86,9,1213.5595,1213.5596,1213.5764,,,,0,32,32,32,1,120,35,,,,,,,,
,,613a8378db0ae11b02001c49,65af5530986fda920460fb86,2024-01-22_23h57.51.684,bars,2023.2.3,Win32,60.24096386,657b66ea316d21385b68909f,,,,,,,,,,,1213.5767,1214.5653,,,1215.0551,1215.3029,,10,10,,,,,,,,,,,,,,,,bars/030.png,bars/mask004.png,,,,,,,,,,,,0,1,,,,,,,0,6,0,6,,,,,,,,,,,1214.5653,1215.055,1215.3031,1216.2909,space,0.9661,,1216.2909,50,55,1217.2913,1217.2914,1217.296,,,,0,33,33,33,1,140,65,,,,,,,,
,,613a8378db0ae11b02001c49,65af5530986fda920460fb86,2024-01-22_23h57.51.684,bars,2023.2.3,Win32,60.24096386,657b66ea316d21385b68909f,,,,,,,,,,,1217.2964,1218.289,,,1218.7868,1219.0295,,87,87,,,,,,,,,,,,,,,,bars/047.png,bars/mask002.png,,,,,,,,,,,,1,2,,,,,,,0,4,0,3,,,,,,,,,,,1218.2892,1218.7868,1219.0296,1220.7162,space,1.669,,1220.7163,72,17,1221.7132,1221.7133,1221.7165,,,,0,34,34,34,1,15,70,,,,,,,,
,,613a8378db0ae11b02001c49,65af5530986fda920460fb86,2024-01-22_23h57.51.684,bars,2023.2.3,Win32,60.24096386,657b66ea316d21385b68909f,,,,,,,,,,,1221.7169,1222.7221,,,1223.22,1223.475,,25,25,,,,,,,,,,,,,,,,bars/007.png,bars/mask002.png,,,,,,,,,,,,0,2,,,,,,,2,2,4,1,,,,,,,,,,,1222.7222,1223.22,1223.475,1226.0806,space,2.577,,1226.0807,30,30,1227.0817,1227.0817,1227.0933,,,,0,35,35,35,1,175,55,,,,,,,,
,,613a8378db0ae11b02001c49,65af5530986fda920460fb86,2024-01-22_23h57.51.684,bars,2023.2.3,Win32,60.24096386,657b66ea316d21385b68909f,,,,,,,,,,,1227.0935,1228.0834,,,1228.5749,1228.8229,,95,95,,,,,,,,,,,,,,,,bars/025.png,bars/mask001.png,,,,,,,,,,,,1,1,,,,,,,0,0,2,0,,,,,,,,,,,1228.0836,1228.5749,1228.823,1231.3839,space,2.5446,,1231.384,10,55,1232.3798,1232.3799,1232.393,,,,0,36,36,36,1,105,40,,,,,,,,
,,613a8378db0ae11b02001c49,65af5530986fda920460fb86,2024-01-22_23h57.51.684,bars,2023.2.3,Win32,60.24096386,657b66ea316d21385b68909f,,,,,,,,,,,1232.3932,1233.3811,,,1233.8796,1234.1253,,167,167,,,,,,,,,,,,,,,,bars/026.png,bars/mask000.png,,,,,,,,,,,,0,1,,,,,,,0,2,0,1,,,,,,,,,,,1233.3812,1233.8795,1234.1254,1237.0116,space,2.868,,1237.0117,48,82,1238.0027,1238.0027,1238.0139,,,,0,37,37,37,1,35,85,,,,,,,,
,,613a8378db0ae11b02001c49,65af5530986fda920460fb86,2024-01-22_23h57.51.684,bars,2023.2.3,Win32,60.24096386,657b66ea316d21385b68909f,,,,,,,,,,,1238.0141,1239.0047,,,1239.505,1239.7464,,57,57,,,,,,,,,,,,,,,,bars/041.png,bars/mask009.png,,,,,,,,,,,,0,2,,,,,,,2,4,3,2,,,,,,,,,,,1239.0048,1239.5049,1239.7465,1242.2046,space,2.4442,,1242.2046,37,28,1243.2042,1243.2042,1243.2165,,,,0,38,38,38,1,20,85,,,,,,,,
,,613a8378db0ae11b02001c49,65af5530986fda920460fb86,2024-01-22_23h57.51.684,bars,2023.2.3,Win32,60.24096386,657b66ea316d21385b68909f,,,,,,,,,,,1243.2168,1244.2179,,,1244.7167,1244.9662,,89,89,,,,,,,,,,,,,,,,bars/037.png,bars/mask000.png,,,,,,,,,,,,0,2,,,,,,,4,2,3,1,,,,,,,,,,,1244.2179,1244.7166,1244.9662,1246.2478,space,1.265,,1246.2479,61,16,1247.2441,1247.2441,1247.2453,,,,0,39,39,39,1,150,105,,,,,,,,
,,613a8378db0ae11b02001c49,65af5530986fda920460fb86,2024-01-22_23h57.51.684,bars,2023.2.3,Win32,60.24096386,657b66ea316d21385b68909f,,,,,,,,,,,1247.2456,1248.2416,,,1248.7401,1248.9893,,73,73,,,,,,,,,,,,,,,,bars/005.png,bars/mask004.png,,,,,,,,,,,,0,1,,,,,,,6,0,5,0,,,,,,,,,,,1248.2417,1248.7401,1248.9893,1252.6244,space,3.6214,,1252.6245,63,67,1253.626,1253.6261,1253.6389,,,,0,40,40,40,1,10,140,,,,,,,,
,,613a8378db0ae11b02001c49,65af5530986fda920460fb86,2024-01-22_23h57.51.684,bars,2023.2.3,Win32,60.24096386,657b66ea316d21385b68909f,,,,,,,,,,,1253.6391,1254.6406,,,1255.1364,1255.3886,,17,17,,,,,,,,,,,,,,,,bars/040.png,bars/mask009.png,,,,,,,,,,,,2,2,,,,,,,8,2,10,3,,,,,,,,,,,1254.6407,1255.1363,1255.3886,1257.9838,space,2.5813,,1257.9838,57,12,1258.9787,1258.9788,1258.9913,,,,0,41,41,41,1,140,5,,,,,,,,
,,613a8378db0ae11b02001c49,65af5530986fda920460fb86,2024-01-22_23h57.51.684,bars,2023.2.3,Win32,60.24096386,657b66ea316d21385b68909f,,,,,,,,,,,1258.9915,1259.9801,,,1260.4801,1260.7245,,75,75,,,,,,,,,,,,,,,,bars/045.png,bars/mask005.png,,,,,,,,,,,,1,1,,,,,,,6,4,7,4,,,,,,,,,,,1259.9803,1260.48,1260.7246,1262.4546,space,1.7167,,1262.4546,25,65,1263.4513,1263.4513,1263.4555,,,,0,42,42,42,1,100,10,,,,,,,,
,,613a8378db0ae11b02001c49,65af5530986fda920460fb86,2024-01-22_23h57.51.684,bars,2023.2.3,Win32,60.24096386,657b66ea316d21385b68909f,,,,,,,,,,,1263.4563,1264.4447,,,1264.9475,1265.1955,,44,44,,,,,,,,,,,,,,,,bars/028.png,bars/mask008.png,,,,,,,,,,,,4,1,,,,,,,4,6,4,6,,,,,,,,,,,1264.4448,1264.9475,1265.1957,1266.9858,space,1.776,,1266.9858,1,76,1267.998,1267.9981,1267.9991,,,,0,43,43,43,1,45,120,,,,,,,,
,,613a8378db0ae11b02001c49,65af5530986fda920460fb86,2024-01-22_23h57.51.684,bars,2023.2.3,Win32,60.24096386,657b66ea316d21385b68909f,,,,,,,,,,,1267.9998,1268.9875,,,1269.4838,1269.734,,169,-11,,,,,,,,,,,,,,,,bars/023.png,bars/mask002.png,,,,,,,,,,,,0,1,,,,,,,6,8,5,9,,,,,,,,,,,1268.9876,1269.4838,1269.734,1271.5432,space,1.7966,,1271.5432,31,54,1272.5395,1272.5395,1272.5514,,,,0,44,44,44,1,20,115,,,,,,,,
,,613a8378db0ae11b02001c49,65af5530986fda920460fb86,2024-01-22_23h57.51.684,bars,2023.2.3,Win32,60.24096386,657b66ea316d21385b68909f,,,,,,,,,,,1272.5515,1273.5407,,,1274.0395,1274.2848,,36,36,,,,,,,,,,,,,,,,bars/032.png,bars/mask006.png,,,,,,,,,,,,5,2,,,,,,,8,10,7,10,,,,,,,,,,,1273.5408,1274.0394,1274.2848,1275.9672,space,1.6632,,1275.9672,89,16,1276.9763,1276.9764,1276.989,,,,0,45,45,45,1,125,20,,,,,,,,
,,613a8378db0ae11b02001c49,65af5530986fda920460fb86,2024-01-22_23h57.51.684,bars,2023.2.3,Win32,60.24096386,657b66ea316d21385b68909f,,,,,,,,,,,1276.9893,1277.9787,,,1278.4773,1278.7259,,80,80,,,,,,,,,,,,,,,,bars/015.png,bars/mask009.png,,,,,,,,,,,,0,1,,,,,,,6,8,5,9,,,,,,,,,,,1277.9787,1278.4773,1278.726,1280.0901,space,1.3455,,1280.0901,30,80,1281.0861,1281.0862,1281.0899,,,,0,46,46,46,1,110,160,,,,,,,,
,,613a8378db0ae11b02001c49,65af5530986fda920460fb86,2024-01-22_23h57.51.684,bars,2023.2.3,Win32,60.24096386,657b66ea316d21385b68909f,,,,,,,,,,,1281.0904,1282.0909,,,1282.5849,1282.8241,,44,44,,,,,,,,,,,,,,,,bars/029.png,bars/mask008.png,,,,,,,,,,,,7,2,,,,,,,4,6,3,7,,,,,,,,,,,1282.091,1282.5848,1282.8242,1285.5566,space,2.7183,,1285.5566,46,1,1286.5524,1286.5524,1286.5649,,,,0,47,47,47,1,90,45,,,,,,,,
,,613a8378db0ae11b02001c49,65af5530986fda920460fb86,2024-01-22_23h57.51.684,bars,2023.2.3,Win32,60.24096386,657b66ea316d21385b68909f,,,,,,,,,,,1286.565,1287.5528,,,1288.0427,1288.2836,,98,98,,,,,,,,,,,,,,,,bars/027.png,bars/mask001.png,,,,,,,,,,,,2,1,,,,,,,6,8,3,8,,,,,,,,,,,1287.5529,1288.0427,1288.2837,1291.4421,space,3.1418,,1291.4422,12,48,1292.4397,1292.4398,1292.4519,,,,0,48,48,48,1,110,50,,,,,,,,
,,613a8378db0ae11b02001c49,65af5530986fda920460fb86,2024-01-22_23h57.51.684,bars,2023.2.3,Win32,60.24096386,657b66ea316d21385b68909f,,,,,,,,,,,1292.4522,1293.4541,,,1293.965,1294.2153,,6,6,,,,,,,,,,,,,,,,bars/029.png,bars/mask006.png,,,,,,,,,,,,0,2,,,,,,,4,10,4,10,,,,,,,,,,,1293.4542,1293.965,1294.2154,1300.525,space,6.2922,,1300.5251,84,39,1301.5151,1301.5151,1301.5287,,,,0,49,49,49,1,90,45,,,,,,,,
,,613a8378db0ae11b02001c49,65af5530986fda920460fb86,2024-01-22_23h57.51.684,bars,2023.2.3,Win32,60.24096386,657b66ea316d21385b68909f,,,,,,,,,,,,,,,,,,,,,,,,,,,,,,,,,,,,,,,,,,,,,,,,,,,,,,,,,,,,,,,,,,,,,,,,,,,,,,,,,,,,,,,,,,,,,1301.5289,1361.5221,0,2,2,3,1,sequence_tables/blk010.csv
,,613a8378db0ae11b02001c49,65af5530986fda920460fb86,2024-01-22_23h57.51.684,bars,2023.2.3,Win32,60.24096386,657b66ea316d21385b68909f,,,,,,,,,,,1375.272,1376.2663,,,1376.7642,1377.0141,,33,33,,,,,,,,,,,,,,,,bars/012.png,bars/mask001.png,,,,,,,,,,,,3,2,,,,,,,5,8,5,7,,,,,,1361.5344,1375.2527,space,13.7032,,1376.2664,1376.7642,1377.0141,1378.8232,space,1.7968,,1378.8233,57,18,1379.8226,1379.8227,1379.8343,,,,0,0,0,0,1,90,15,,,,,,,,
,,613a8378db0ae11b02001c49,65af5530986fda920460fb86,2024-01-22_23h57.51.684,bars,2023.2.3,Win32,60.24096386,657b66ea316d21385b68909f,,,,,,,,,,,1379.8345,1380.8372,,,1381.3355,1381.5853,,92,92,,,,,,,,,,,,,,,,bars/034.png,bars/mask001.png,,,,,,,,,,,,1,2,,,,,,,3,6,4,8,,,,,,,,,,,1380.8372,1381.3354,1381.5854,1383.3444,space,1.7458,,1383.3445,33,27,1384.3445,1384.3446,1384.346,,,,0,1,1,1,1,125,65,,,,,,,,
,,613a8378db0ae11b02001c49,65af5530986fda920460fb86,2024-01-22_23h57.51.684,bars,2023.2.3,Win32,60.24096386,657b66ea316d21385b68909f,,,,,,,,,,,1384.3464,1385.3418,,,1385.8426,1386.0917,,71,71,,,,,,,,,,,,,,,,bars/013.png,bars/mask002.png,,,,,,,,,,,,4,1,,,,,,,5,8,5,9,,,,,,,,,,,1385.3419,1385.8426,1386.0917,1388.4926,space,2.3876,,1388.4926,4,61,1389.4875,1389.4876,1389.5021,,,,0,2,2,2,1,75,10,,,,,,,,
,,613a8378db0ae11b02001c49,65af5530986fda920460fb86,2024-01-22_23h57.51.684,bars,2023.2.3,Win32,60.24096386,657b66ea316d21385b68909f,,,,,,,,,,,1389.5023,1390.4942,,,1390.9843,1391.2383,,162,-18,,,,,,,,,,,,,,,,bars/049.png,bars/mask009.png,,,,,,,,,,,,7,1,,,,,,,7,6,7,5,,,,,,,,,,,1390.4942,1390.9842,1391.2383,1395.2982,space,4.0392,,1395.2982,2,47,1396.2921,1396.2922,1396.3089,,,,0,3,3,3,1,160,115,,,,,,,,
,,613a8378db0ae11b02001c49,65af5530986fda920460fb86,2024-01-22_23h57.51.684,bars,2023.2.3,Win32,60.24096386,657b66ea316d21385b68909f,,,,,,,,,,,1396.3092,1397.3105,,,1397.8081,1398.0573,,28,208,,,,,,,,,,,,,,,,bars/046.png,bars/mask000.png,,,,,,,,,,,,0,1,,,,,,,9,4,8,2,,,,,,,,,,,1397.3106,1397.8081,1398.0573,1401.8977,space,3.8247,,1401.8978,53,57,1402.8963,1402.8964,1402.9077,,,,0,4,4,4,1,155,85,,,,,,,,
,,613a8378db0ae11b02001c49,65af5530986fda920460fb86,2024-01-22_23h57.51.684,bars,2023.2.3,Win32,60.24096386,657b66ea316d21385b68909f,,,,,,,,,,,1402.9079,1403.9086,,,1404.4078,1404.657,,160,160,,,,,,,,,,,,,,,,bars/016.png,bars/mask006.png,,,,,,,,,,,,3,2,,,,,,,7,6,8,4,,,,,,,,,,,1403.9087,1404.4078,1404.6571,1408.563,space,3.8898,,1408.5631,60,5,1409.5604,1409.5604,1409.5728,,,,0,5,5,5,1,40,165,,,,,,,,
,,613a8378db0ae11b02001c49,65af5530986fda920460fb86,2024-01-22_23h57.51.684,bars,2023.2.3,Win32,60.24096386,657b66ea316d21385b68909f,,,,,,,,,,,1409.573,1410.5754,,,1411.0729,1411.3229,,76,76,,,,,,,,,,,,,,,,bars/027.png,bars/mask006.png,,,,,,,,,,,,1,2,,,,,,,9,8,9,7,,,,,,,,,,,1410.5755,1411.0728,1411.323,1413.4833,space,2.1448,,1413.4833,34,26,1414.4805,1414.4805,1414.4917,,,,0,6,6,6,1,110,50,,,,,,,,
,,613a8378db0ae11b02001c49,65af5530986fda920460fb86,2024-01-22_23h57.51.684,bars,2023.2.3,Win32,60.24096386,657b66ea316d21385b68909f,,,,,,,,,,,1414.4919,1415.4951,,,1415.9936,1416.2439,,35,35,,,,,,,,,,,,,,,,bars/015.png,bars/mask006.png,,,,,,,,,,,,0,2,,,,,,,7,10,7,10,,,,,,,,,,,1415.4952,1415.9936,1416.2439,1418.7531,space,2.4937,,1418.7531,75,55,1419.7505,1419.7506,1419.7618,,,,0,7,7,7,1,110,160,,,,,,,,
,,613a8378db0ae11b02001c49,65af5530986fda920460fb86,2024-01-22_23h57.51.684,bars,2023.2.3,Win32,60.24096386,657b66ea316d21385b68909f,,,,,,,,,,,1419.7619,1420.7639,,,1421.2623,1421.5124,,160,160,,,,,,,,,,,,,,,,bars/046.png,bars/mask006.png,,,,,,,,,,,,3,1,,,,,,,5,10,4,9,,,,,,,,,,,1420.7639,1421.2623,1421.5124,1423.9061,space,2.3778,,1423.9061,5,75,1424.9034,1424.9034,1424.9155,,,,0,8,8,8,1,155,85,,,,,,,,
,,613a8378db0ae11b02001c49,65af5530986fda920460fb86,2024-01-22_23h57.51.684,bars,2023.2.3,Win32,60.24096386,657b66ea316d21385b68909f,,,,,,,,,,,1424.9158,1425.9169,,,1426.4151,1426.6651,,115,115,,,,,,,,,,,,,,,,bars/022.png,bars/mask007.png,,,,,,,,,,,,2,1,,,,,,,7,8,7,8,,,,,,,,,,,1425.9169,1426.415,1426.6651,1427.5465,space,0.8657,,1427.5465,20,85,1428.5429,1428.543,1428.5439,,,,0,9,9,9,1,95,20,,,,,,,,
,,613a8378db0ae11b02001c49,65af5530986fda920460fb86,2024-01-22_23h57.51.684,bars,2023.2.3,Win32,60.24096386,657b66ea316d21385b68909f,,,,,,,,,,,1428.5442,1429.5405,,,1430.0394,1430.2889,,67,67,,,,,,,,,,,,,,,,bars/020.png,bars/mask001.png,,,,,,,,,,,,0,1,,,,,,,9,6,10,6,,,,,,,,,,,1429.5406,1430.0394,1430.2889,1432.6003,space,2.2947,,1432.6004,48,77,1433.5974,1433.5975,1433.5983,,,,0,10,10,10,1,115,170,,,,,,,,
,,613a8378db0ae11b02001c49,65af5530986fda920460fb86,2024-01-22_23h57.51.684,bars,2023.2.3,Win32,60.24096386,657b66ea316d21385b68909f,,,,,,,,,,,1433.5989,1434.594,,,1435.092,1435.3418,,163,163,,,,,,,,,,,,,,,,bars/043.png,bars/mask001.png,,,,,,,,,,,,0,2,,,,,,,10,8,10,7,,,,,,,,,,,1434.5941,1435.092,1435.3419,1436.4553,space,1.0975,,1436.4553,47,33,1437.4527,1437.4527,1437.455,,,,0,11,11,11,1,30,130,,,,,,,,
,,613a8378db0ae11b02001c49,65af5530986fda920460fb86,2024-01-22_23h57.51.684,bars,2023.2.3,Win32,60.24096386,657b66ea316d21385b68909f,,,,,,,,,,,1437.4557,1438.4498,,,1438.949,1439.1979,,100,100,,,,,,,,,,,,,,,,bars/004.png,bars/mask005.png,,,,,,,,,,,,2,2,,,,,,,8,10,10,10,,,,,,,,,,,1438.4499,1438.9489,1439.1979,1440.446,space,1.2295,,1440.4461,75,25,1441.4418,1441.4418,1441.4427,,,,0,12,12,12,1,25,125,,,,,,,,
,,613a8378db0ae11b02001c49,65af5530986fda920460fb86,2024-01-22_23h57.51.684,bars,2023.2.3,Win32,60.24096386,657b66ea316d21385b68909f,,,,,,,,,,,1441.4431,1442.4391,,,1442.9383,1443.1878,,71,71,,,,,,,,,,,,,,,,bars/002.png,bars/mask001.png,,,,,,,,,,,,4,2,,,,,,,6,8,7,8,,,,,,,,,,,1442.4391,1442.9383,1443.1878,1445.9304,space,2.7262,,1445.9305,59,14,1446.9272,1446.9272,1446.9386,,,,0,13,13,13,1,130,85,,,,,,,,
,,613a8378db0ae11b02001c49,65af5530986fda920460fb86,2024-01-22_23h57.51.684,bars,2023.2.3,Win32,60.24096386,657b66ea316d21385b68909f,,,,,,,,,,,1446.9388,1447.9415,,,1448.4406,1448.6894,,81,81,,,,,,,,,,,,,,,,bars/046.png,bars/mask003.png,,,,,,,,,,,,9,2,,,,,,,4,10,1,10,,,,,,,,,,,1447.9415,1448.4405,1448.6894,1450.8169,space,2.1111,,1450.817,74,4,1451.814,1451.8141,1451.8151,,,,0,14,14,14,1,155,85,,,,,,,,
,,613a8378db0ae11b02001c49,65af5530986fda920460fb86,2024-01-22_23h57.51.684,bars,2023.2.3,Win32,60.24096386,657b66ea316d21385b68909f,,,,,,,,,,,1451.8155,1452.8114,,,1453.3102,1453.5598,,106,106,,,,,,,,,,,,,,,,bars/048.png,bars/mask000.png,,,,,,,,,,,,0,1,,,,,,,6,8,7,7,,,,,,,,,,,1452.8114,1453.3102,1453.5599,1455.356,space,1.7809,,1455.356,56,69,1456.352,1456.352,1456.364,,,,0,15,15,15,1,50,175,,,,,,,,
,,613a8378db0ae11b02001c49,65af5530986fda920460fb86,2024-01-22_23h57.51.684,bars,2023.2.3,Win32,60.24096386,657b66ea316d21385b68909f,,,,,,,,,,,1456.3643,1457.366,,,1457.8646,1458.114,,161,161,,,,,,,,,,,,,,,,bars/026.png,bars/mask007.png,,,,,,,,,,,,0,1,,,,,,,4,6,3,5,,,,,,,,,,,1457.366,1457.8646,1458.1141,1459.5441,space,1.4135,,1459.5441,54,76,1460.5416,1460.5417,1460.5425,,,,0,16,16,16,1,35,85,,,,,,,,
,,613a8378db0ae11b02001c49,65af5530986fda920460fb86,2024-01-22_23h57.51.684,bars,2023.2.3,Win32,60.24096386,657b66ea316d21385b68909f,,,,,,,,,,,1460.5428,1461.5395,,,1462.0374,1462.2865,,74,74,,,,,,,,,,,,,,,,bars/038.png,bars/mask001.png,,,,,,,,,,,,7,2,,,,,,,6,8,6,8,,,,,,,,,,,1461.5395,1462.0374,1462.2866,1465.0972,space,2.7927,,1465.0973,89,4,1466.093,1466.093,1466.1051,,,,0,17,17,17,1,165,70,,,,,,,,
,,613a8378db0ae11b02001c49,65af5530986fda920460fb86,2024-01-22_23h57.51.684,bars,2023.2.3,Win32,60.24096386,657b66ea316d21385b68909f,,,,,,,,,,,1466.1053,1467.1066,,,1467.6071,1467.8551,,158,-22,,,,,,,,,,,,,,,,bars/009.png,bars/mask008.png,,,,,,,,,,,,0,1,,,,,,,8,10,6,8,,,,,,,,,,,1467.1066,1467.6071,1467.8552,1471.5454,space,3.6746,,1471.5455,37,53,1472.5426,1472.5427,1472.5548,,,,0,18,18,18,1,15,105,,,,,,,,
,,613a8378db0ae11b02001c49,65af5530986fda920460fb86,2024-01-22_23h57.51.684,bars,2023.2.3,Win32,60.24096386,657b66ea316d21385b68909f,,,,,,,,,,,1472.5551,1473.556,,,1474.0553,1474.3047,,149,149,,,,,,,,,,,,,,,,bars/004.png,bars/mask003.png,,,,,,,,,,,,2,2,,,,,,,6,8,6,9,,,,,,,,,,,1473.556,1474.0553,1474.3047,1478.2444,space,3.923,,1478.2444,56,24,1479.2408,1479.2408,1479.2535,,,,0,19,19,19,1,25,125,,,,,,,,
,,613a8378db0ae11b02001c49,65af5530986fda920460fb86,2024-01-22_23h57.51.684,bars,2023.2.3,Win32,60.24096386,657b66ea316d21385b68909f,,,,,,,,,,,1479.2537,1480.2553,,,1480.754,1481.0029,,81,81,,,,,,,,,,,,,,,,bars/033.png,bars/mask006.png,,,,,,,,,,,,0,1,,,,,,,4,10,5,10,,,,,,,,,,,1480.2553,1480.754,1481.003,1483.015,space,1.9944,,1483.0151,56,74,1484.0115,1484.0115,1484.0234,,,,0,20,20,20,1,25,155,,,,,,,,
,,613a8378db0ae11b02001c49,65af5530986fda920460fb86,2024-01-22_23h57.51.684,bars,2023.2.3,Win32,60.24096386,657b66ea316d21385b68909f,,,,,,,,,,,1484.0237,1485.0271,,,1485.5249,1485.7738,,115,115,,,,,,,,,,,,,,,,bars/033.png,bars/mask001.png,,,,,,,,,,,,0,2,,,,,,,2,10,1,9,,,,,,,,,,,1485.0271,1485.5248,1485.7738,1487.4363,space,1.6466,,1487.4363,90,40,1488.4331,1488.4331,1488.4455,,,,0,21,21,21,1,25,155,,,,,,,,
,,613a8378db0ae11b02001c49,65af5530986fda920460fb86,2024-01-22_23h57.51.684,bars,2023.2.3,Win32,60.24096386,657b66ea316d21385b68909f,,,,,,,,,,,1488.4457,1489.4482,,,1489.9461,1490.1951,,96,96,,,,,,,,,,,,,,,,bars/043.png,bars/mask009.png,,,,,,,,,,,,0,2,,,,,,,4,8,4,8,,,,,,,,,,,1489.4483,1489.9461,1490.1951,1491.8914,space,1.678,,1491.8915,66,34,1492.8883,1492.8883,1492.8996,,,,0,22,22,22,1,30,130,,,,,,,,
,,613a8378db0ae11b02001c49,65af5530986fda920460fb86,2024-01-22_23h57.51.684,bars,2023.2.3,Win32,60.24096386,657b66ea316d21385b68909f,,,,,,,,,,,1492.8997,1493.9063,,,1494.401,1494.6497,,73,73,,,,,,,,,,,,,,,,bars/013.png,bars/mask007.png,,,,,,,,,,,,5,1,,,,,,,6,6,5,6,,,,,,,,,,,1493.9064,1494.401,1494.6498,1496.8621,space,2.1933,,1496.8621,2,63,1497.858,1497.8581,1497.8602,,,,0,23,23,23,1,75,10,,,,,,,,
,,613a8378db0ae11b02001c49,65af5530986fda920460fb86,2024-01-22_23h57.51.684,bars,2023.2.3,Win32,60.24096386,657b66ea316d21385b68909f,,,,,,,,,,,1497.8608,1498.8558,,,1499.3543,1499.6032,,21,21,,,,,,,,,,,,,,,,bars/049.png,bars/mask006.png,,,,,,,,,,,,0,1,,,,,,,4,8,2,10,,,,,,,,,,,1498.8559,1499.3543,1499.6032,1502.1638,space,2.5429,,1502.1638,41,86,1503.1618,1503.1619,1503.1729,,,,0,24,24,24,1,160,115,,,,,,,,
,,613a8378db0ae11b02001c49,65af5530986fda920460fb86,2024-01-22_23h57.51.684,bars,2023.2.3,Win32,60.24096386,657b66ea316d21385b68909f,,,,,,,,,,,1503.173,1504.1759,,,1504.6737,1504.9244,,103,103,,,,,,,,,,,,,,,,bars/036.png,bars/mask007.png,,,,,,,,,,,,0,1,,,,,,,6,10,6,10,,,,,,,,,,,1504.176,1504.6736,1504.9245,1506.3359,space,1.3983,,1506.3359,42,83,1507.3325,1507.3325,1507.3336,,,,0,25,25,25,1,145,20,,,,,,,,
,,613a8378db0ae11b02001c49,65af5530986fda920460fb86,2024-01-22_23h57.51.684,bars,2023.2.3,Win32,60.24096386,657b66ea316d21385b68909f,,,,,,,,,,,1507.334,1508.3307,,,1508.8292,1509.0782,,52,52,,,,,,,,,,,,,,,,bars/033.png,bars/mask002.png,,,,,,,,,,,,0,1,,,,,,,4,10,4,9,,,,,,,,,,,1508.3307,1508.8292,1509.0783,1510.4269,space,1.3331,,1510.4269,27,77,1511.4225,1511.4225,1511.4234,,,,0,26,26,26,1,25,155,,,,,,,,
,,613a8378db0ae11b02001c49,65af5530986fda920460fb86,2024-01-22_23h57.51.684,bars,2023.2.3,Win32,60.24096386,657b66ea316d21385b68909f,,,,,,,,,,,1511.4237,1512.4195,,,1512.9193,1513.1672,,23,23,,,,,,,,,,,,,,,,bars/035.png,bars/mask003.png,,,,,,,,,,,,0,1,,,,,,,6,8,6,8,,,,,,,,,,,1512.4195,1512.9192,1513.1672,1514.1148,space,0.9309,,1514.1149,28,37,1515.1118,1515.1118,1515.1127,,,,0,27,27,27,1,175,60,,,,,,,,
,,613a8378db0ae11b02001c49,65af5530986fda920460fb86,2024-01-22_23h57.51.684,bars,2023.2.3,Win32,60.24096386,657b66ea316d21385b68909f,,,,,,,,,,,1515.1132,1516.1093,,,1516.6085,1516.8578,,20,200,,,,,,,,,,,,,,,,bars/030.png,bars/mask004.png,,,,,,,,,,,,0,2,,,,,,,8,6,9,7,,,,,,,,,,,1516.1094,1516.6084,1516.8579,1518.5029,space,1.6302,,1518.5031,60,45,1519.5009,1519.501,1519.5047,,,,0,28,28,28,1,140,65,,,,,,,,
,,613a8378db0ae11b02001c49,65af5530986fda920460fb86,2024-01-22_23h57.51.684,bars,2023.2.3,Win32,60.24096386,657b66ea316d21385b68909f,,,,,,,,,,,1519.5053,1520.4981,,,1520.9971,1521.2463,,85,85,,,,,,,,,,,,,,,,bars/040.png,bars/mask009.png,,,,,,,,,,,,0,1,,,,,,,10,8,9,8,,,,,,,,,,,1520.4982,1520.9971,1521.2463,1522.8749,space,1.6127,,1522.875,55,80,1523.8725,1523.8725,1523.8759,,,,0,29,29,29,1,140,5,,,,,,,,
,,613a8378db0ae11b02001c49,65af5530986fda920460fb86,2024-01-22_23h57.51.684,bars,2023.2.3,Win32,60.24096386,657b66ea316d21385b68909f,,,,,,,,,,,1523.8764,1524.8695,,,1525.3685,1525.6176,,128,128,,,,,,,,,,,,,,,,bars/043.png,bars/mask004.png,,,,,,,,,,,,9,2,,,,,,,8,10,7,10,,,,,,,,,,,1524.8695,1525.3685,1525.6176,1527.5796,space,1.9466,,1527.5797,82,2,1528.5759,1528.5759,1528.5882,,,,0,30,30,30,1,30,130,,,,,,,,
,,613a8378db0ae11b02001c49,65af5530986fda920460fb86,2024-01-22_23h57.51.684,bars,2023.2.3,Win32,60.24096386,657b66ea316d21385b68909f,,,,,,,,,,,1528.5885,1529.5904,,,1530.0892,1530.3382,,29,29,,,,,,,,,,,,,,,,bars/008.png,bars/mask002.png,,,,,,,,,,,,0,2,,,,,,,10,10,9,10,,,,,,,,,,,1529.5904,1530.0892,1530.3383,1532.2661,space,1.9114,,1532.2662,81,29,1533.2638,1533.2639,1533.2749,,,,0,31,31,31,1,110,0,,,,,,,,
,,613a8378db0ae11b02001c49,65af5530986fda920460fb86,2024-01-22_23h57.51.684,bars,2023.2.3,Win32,60.24096386,657b66ea316d21385b68909f,,,,,,,,,,,1533.275,1534.278,,,1534.7777,1535.0258,,139,-41,,,,,,,,,,,,,,,,bars/020.png,bars/mask003.png,,,,,,,,,,,,2,1,,,,,,,10,10,10,8,,,,,,,,,,,1534.278,1534.7777,1535.026,1537.9693,space,2.9251,,1537.9693,24,31,1538.9647,1538.9648,1538.9769,,,,0,32,32,32,1,115,170,,,,,,,,
,,613a8378db0ae11b02001c49,65af5530986fda920460fb86,2024-01-22_23h57.51.684,bars,2023.2.3,Win32,60.24096386,657b66ea316d21385b68909f,,,,,,,,,,,1538.9771,1539.9802,,,1540.4774,1540.7268,,38,218,,,,,,,,,,,,,,,,bars/044.png,bars/mask000.png,,,,,,,,,,,,0,1,,,,,,,8,8,7,10,,,,,,,,,,,1539.9803,1540.4774,1540.7268,1545.049,space,4.3052,,1545.0491,37,63,1546.0459,1546.046,1546.0572,,,,0,33,33,33,1,75,155,,,,,,,,
,,613a8378db0ae11b02001c49,65af5530986fda920460fb86,2024-01-22_23h57.51.684,bars,2023.2.3,Win32,60.24096386,657b66ea316d21385b68909f,,,,,,,,,,,1546.0575,1547.0599,,,1547.5593,1547.8078,,138,138,,,,,,,,,,,,,,,,bars/003.png,bars/mask004.png,,,,,,,,,,,,6,2,,,,,,,6,6,8,6,,,,,,,,,,,1547.0599,1547.5592,1547.8078,1549.2706,space,1.4458,,1549.2706,67,2,1550.2696,1550.2698,1550.2731,,,,0,34,34,34,1,25,140,,,,,,,,
,,613a8378db0ae11b02001c49,65af5530986fda920460fb86,2024-01-22_23h57.51.684,bars,2023.2.3,Win32,60.24096386,657b66ea316d21385b68909f,,,,,,,,,,,1550.2734,1551.2659,,,1551.7648,1552.0138,,131,131,,,,,,,,,,,,,,,,bars/015.png,bars/mask000.png,,,,,,,,,,,,1,1,,,,,,,4,8,3,9,,,,,,,,,,,1551.2659,1551.7648,1552.0138,1552.6956,space,0.6645,,1552.6957,21,29,1553.6923,1553.6924,1553.6945,,,,0,35,35,35,1,110,160,,,,,,,,
,,613a8378db0ae11b02001c49,65af5530986fda920460fb86,2024-01-22_23h57.51.684,bars,2023.2.3,Win32,60.24096386,657b66ea316d21385b68909f,,,,,,,,,,,1553.695,1554.6899,,,1555.1928,1555.4408,,70,70,,,,,,,,,,,,,,,,bars/049.png,bars/mask006.png,,,,,,,,,,,,0,2,,,,,,,6,6,8,5,,,,,,,,,,,1554.6899,1555.1927,1555.4409,1557.4991,space,2.0421,,1557.4992,90,45,1558.4959,1558.4959,1558.508,,,,0,36,36,36,1,160,115,,,,,,,,
,,613a8378db0ae11b02001c49,65af5530986fda920460fb86,2024-01-22_23h57.51.684,bars,2023.2.3,Win32,60.24096386,657b66ea316d21385b68909f,,,,,,,,,,,1558.5082,1559.5106,,,1560.0093,1560.258,,129,129,,,,,,,,,,,,,,,,bars/025.png,bars/mask004.png,,,,,,,,,,,,1,1,,,,,,,4,8,4,10,,,,,,,,,,,1559.5107,1560.0093,1560.258,1561.9872,space,1.7116,,1561.9872,24,89,1562.9752,1562.9754,1562.9899,,,,0,37,37,37,1,105,40,,,,,,,,
,,613a8378db0ae11b02001c49,65af5530986fda920460fb86,2024-01-22_23h57.51.684,bars,2023.2.3,Win32,60.24096386,657b66ea316d21385b68909f,,,,,,,,,,,1562.9901,1563.982,,,1564.4814,1564.7294,,43,223,,,,,,,,,,,,,,,,bars/041.png,bars/mask006.png,,,,,,,,,,,,1,1,,,,,,,2,6,3,5,,,,,,,,,,,1563.9822,1564.4813,1564.7294,1567.8716,space,3.1254,,1567.8717,23,42,1568.869,1568.8691,1568.8803,,,,0,38,38,38,1,20,85,,,,,,,,
,,613a8378db0ae11b02001c49,65af5530986fda920460fb86,2024-01-22_23h57.51.684,bars,2023.2.3,Win32,60.24096386,657b66ea316d21385b68909f,,,,,,,,,,,1568.8805,1569.8823,,,1570.3811,1570.6317,,85,85,,,,,,,,,,,,,,,,bars/004.png,bars/mask005.png,,,,,,,,,,,,0,2,,,,,,,0,4,0,3,,,,,,,,,,,1569.8823,1570.381,1570.6318,1571.8605,space,1.2132,,1571.8605,60,40,1572.8581,1572.8581,1572.8701,,,,0,39,39,39,1,25,125,,,,,,,,
,,613a8378db0ae11b02001c49,65af5530986fda920460fb86,2024-01-22_23h57.51.684,bars,2023.2.3,Win32,60.24096386,657b66ea316d21385b68909f,,,,,,,,,,,1572.8704,1573.8717,,,1574.3712,1574.6196,,129,129,,,,,,,,,,,,,,,,bars/005.png,bars/mask007.png,,,,,,,,,,,,1,2,,,,,,,2,2,1,2,,,,,,,,,,,1573.8717,1574.3711,1574.6196,1575.4018,space,0.7646,,1575.4018,61,11,1576.3986,1576.3986,1576.3995,,,,0,40,40,40,1,10,140,,,,,,,,
,,613a8378db0ae11b02001c49,65af5530986fda920460fb86,2024-01-22_23h57.51.684,bars,2023.2.3,Win32,60.24096386,657b66ea316d21385b68909f,,,,,,,,,,,1576.3998,1577.3955,,,1577.8942,1578.144,,123,123,,,,,,,,,,,,,,,,bars/039.png,bars/mask004.png,,,,,,,,,,,,1,2,,,,,,,4,4,4,3,,,,,,,,,,,1577.3956,1577.8942,1578.1441,1578.9916,space,0.832,,1578.9917,52,18,1579.9892,1579.9893,1579.9902,,,,0,41,41,41,1,175,105,,,,,,,,
,,613a8378db0ae11b02001c49,65af5530986fda920460fb86,2024-01-22_23h57.51.684,bars,2023.2.3,Win32,60.24096386,657b66ea316d21385b68909f,,,,,,,,,,,1579.9906,1580.9868,,,1581.485,1581.7338,,78,78,,,,,,,,,,,,,,,,bars/011.png,bars/mask005.png,,,,,,,,,,,,4,2,,,,,,,2,6,3,5,,,,,,,,,,,1580.9868,1581.485,1581.7338,1583.546,space,1.7945,,1583.546,82,7,1584.5436,1584.5436,1584.5445,,,,0,42,42,42,1,160,85,,,,,,,,
,,613a8378db0ae11b02001c49,65af5530986fda920460fb86,2024-01-22_23h57.51.684,bars,2023.2.3,Win32,60.24096386,657b66ea316d21385b68909f,,,,,,,,,,,1584.5448,1585.5411,,,1586.0393,1586.289,,113,113,,,,,,,,,,,,,,,,bars/010.png,bars/mask004.png,,,,,,,,,,,,0,1,,,,,,,0,4,0,3,,,,,,,,,,,1585.5412,1586.0392,1586.289,1588.3182,space,2.0127,,1588.3183,52,58,1589.3144,1589.3145,1589.3268,,,,0,43,43,43,1,165,55,,,,,,,,
,,613a8378db0ae11b02001c49,65af5530986fda920460fb86,2024-01-22_23h57.51.684,bars,2023.2.3,Win32,60.24096386,657b66ea316d21385b68909f,,,,,,,,,,,1589.327,1590.328,,,1590.8265,1591.0763,,94,94,,,,,,,,,,,,,,,,bars/029.png,bars/mask002.png,,,,,,,,,,,,0,1,,,,,,,2,2,0,2,,,,,,,,,,,1590.328,1590.8265,1591.0764,1592.9216,space,1.8297,,1592.9216,4,49,1593.9181,1593.9182,1593.9191,,,,0,44,44,44,1,90,45,,,,,,,,
,,613a8378db0ae11b02001c49,65af5530986fda920460fb86,2024-01-22_23h57.51.684,bars,2023.2.3,Win32,60.24096386,657b66ea316d21385b68909f,,,,,,,,,,,1593.9195,1594.9171,,,1595.4149,1595.6641,,156,156,,,,,,,,,,,,,,,,bars/033.png,bars/mask001.png,,,,,,,,,,,,1,2,,,,,,,4,0,5,1,,,,,,,,,,,1594.9171,1595.4148,1595.6642,1600.0191,space,4.3396,,1600.0191,49,1,1601.0158,1601.0158,1601.0279,,,,0,45,45,45,1,25,155,,,,,,,,
,,613a8378db0ae11b02001c49,65af5530986fda920460fb86,2024-01-22_23h57.51.684,bars,2023.2.3,Win32,60.24096386,657b66ea316d21385b68909f,,,,,,,,,,,1601.0282,1602.03,,,1602.5289,1602.7783,,169,169,,,,,,,,,,,,,,,,bars/039.png,bars/mask002.png,,,,,,,,,,,,2,1,,,,,,,2,0,2,1,,,,,,,,,,,1602.03,1602.5288,1602.7784,1607.2006,space,4.406,,1607.2006,6,64,1608.197,1608.1971,1608.2091,,,,0,46,46,46,1,175,105,,,,,,,,
,,613a8378db0ae11b02001c49,65af5530986fda920460fb86,2024-01-22_23h57.51.684,bars,2023.2.3,Win32,60.24096386,657b66ea316d21385b68909f,,,,,,,,,,,1608.2094,1609.2107,,,1609.71,1609.9587,,140,140,,,,,,,,,,,,,,,,bars/041.png,bars/mask004.png,,,,,,,,,,,,0,2,,,,,,,0,2,1,2,,,,,,,,,,,1609.2107,1609.7099,1609.9588,1612.4871,space,2.5101,,1612.4871,60,55,1613.4825,1613.4826,1613.4947,,,,0,47,47,47,1,20,85,,,,,,,,
,,613a8378db0ae11b02001c49,65af5530986fda920460fb86,2024-01-22_23h57.51.684,bars,2023.2.3,Win32,60.24096386,657b66ea316d21385b68909f,,,,,,,,,,,1613.495,1614.4969,,,1614.9952,1615.2444,,67,67,,,,,,,,,,,,,,,,bars/047.png,bars/mask003.png,,,,,,,,,,,,0,2,,,,,,,2,0,2,0,,,,,,,,,,,1614.4969,1614.9952,1615.2445,1617.9876,space,2.7268,,1617.9877,52,3,1618.9862,1618.9862,1618.9972,,,,0,48,48,48,1,15,70,,,,,,,,
,,613a8378db0ae11b02001c49,65af5530986fda920460fb86,2024-01-22_23h57.51.684,bars,2023.2.3,Win32,60.24096386,657b66ea316d21385b68909f,,,,,,,,,,,1618.9974,1619.9989,,,1620.4973,1620.7464,,17,17,,,,,,,,,,,,,,,,bars/023.png,bars/mask003.png,,,,,,,,,,,,4,1,,,,,,,4,0,4,0,,,,,,,,,,,1619.9989,1620.4972,1620.7465,1622.0099,space,1.247,,1622.0099,3,82,1623.0076,1623.0077,1623.0199,,,,0,49,49,49,1,20,115,,,,,,,,
,,613a8378db0ae11b02001c49,65af5530986fda920460fb86,2024-01-22_23h57.51.684,bars,2023.2.3,Win32,60.24096386,657b66ea316d21385b68909f,,,,,,,,,,,,,,,,,,,,,,,,,,,,,,,,,,,,,,,,,,,,,,,,,,,,,,,,,,,,,,,,,,,,,,,,,,,,,,,,,,,,,,,,,,,,,1623.0201,1683.0136,0,3,3,1,1,sequence_tables/blk001.csv
,,613a8378db0ae11b02001c49,65af5530986fda920460fb86,2024-01-22_23h57.51.684,bars,2023.2.3,Win32,60.24096386,657b66ea316d21385b68909f,,,,,,,,,,,1699.1723,1700.1683,,,1700.6672,1700.9158,,166,166,,,,,,,,,,,,,,,,bars/018.png,bars/mask001.png,,,,,,,,,,,,3,1,,,,,,,7,5,7,6,,,,,,1683.0259,1699.1559,space,16.1152,,1700.1684,1700.6671,1700.9158,1702.5801,space,1.6455,,1702.5803,16,76,1703.5755,1703.5755,1703.5868,,,,0,0,0,0,1,150,90,,,,,,,,
,,613a8378db0ae11b02001c49,65af5530986fda920460fb86,2024-01-22_23h57.51.684,bars,2023.2.3,Win32,60.24096386,657b66ea316d21385b68909f,,,,,,,,,,,1703.5869,1704.5893,,,1705.0881,1705.338,,76,76,,,,,,,,,,,,,,,,bars/010.png,bars/mask009.png,,,,,,,,,,,,2,2,,,,,,,5,7,5,7,,,,,,,,,,,1704.5894,1705.0881,1705.3381,1706.4684,space,1.1141,,1706.4685,89,21,1707.4669,1707.467,1707.4791,,,,0,1,1,1,1,165,55,,,,,,,,
,,613a8378db0ae11b02001c49,65af5530986fda920460fb86,2024-01-22_23h57.51.684,bars,2023.2.3,Win32,60.24096386,657b66ea316d21385b68909f,,,,,,,,,,,1707.4792,1708.479,,,1708.9782,1709.2286,,142,142,,,,,,,,,,,,,,,,bars/034.png,bars/mask002.png,,,,,,,,,,,,2,1,,,,,,,3,5,4,4,,,,,,,,,,,1708.479,1708.9782,1709.2287,1710.3915,space,1.1483,,1710.3915,17,77,1711.3888,1711.3888,1711.4007,,,,0,2,2,2,1,125,65,,,,,,,,
,,613a8378db0ae11b02001c49,65af5530986fda920460fb86,2024-01-22_23h57.51.684,bars,2023.2.3,Win32,60.24096386,657b66ea316d21385b68909f,,,,,,,,,,,1711.401,1712.4016,,,1712.9021,1713.1502,,30,30,,,,,,,,,,,,,,,,bars/040.png,bars/mask003.png,,,,,,,,,,,,0,2,,,,,,,1,3,2,3,,,,,,,,,,,1712.4016,1712.9021,1713.1503,1714.231,space,1.0643,,1714.2311,70,25,1715.2275,1715.2275,1715.2298,,,,0,3,3,3,1,140,5,,,,,,,,
,,613a8378db0ae11b02001c49,65af5530986fda920460fb86,2024-01-22_23h57.51.684,bars,2023.2.3,Win32,60.24096386,657b66ea316d21385b68909f,,,,,,,,,,,1715.2301,1716.2251,,,1716.7241,1716.9734,,126,126,,,,,,,,,,,,,,,,bars/029.png,bars/mask002.png,,,,,,,,,,,,0,1,,,,,,,3,5,2,6,,,,,,,,,,,1716.2251,1716.7241,1716.9734,1718.8518,space,1.8624,,1718.8518,36,81,1719.8491,1719.8492,1719.8617,,,,0,4,4,4,1,90,45,,,,,,,,
,,613a8378db0ae11b02001c49,65af5530986fda920460fb86,2024-01-22_23h57.51.684,bars,2023.2.3,Win32,60.24096386,657b66ea316d21385b68909f,,,,,,,,,,,1719.8619,1720.8626,,,1721.3613,1721.6112,,154,154,,,,,,,,,,,,,,,,bars/030.png,bars/mask005.png,,,,,,,,,,,,2,1,,,,,,,1,3,3,2,,,,,,,,,,,1720.8626,1721.3613,1721.6112,1723.0569,space,1.4286,,1723.057,14,89,1724.0541,1724.0541,1724.0551,,,,0,5,5,5,1,140,65,,,,,,,,
,,613a8378db0ae11b02001c49,65af5530986fda920460fb86,2024-01-22_23h57.51.684,bars,2023.2.3,Win32,60.24096386,657b66ea316d21385b68909f,,,,,,,,,,,1724.0555,1725.0515,,,1725.5502,1725.8001,,32,32,,,,,,,,,,,,,,,,bars/010.png,bars/mask008.png,,,,,,,,,,,,0,2,,,,,,,3,1,2,1,,,,,,,,,,,1725.0515,1725.5502,1725.8001,1726.6312,space,0.8146,,1726.6313,47,23,1727.6279,1727.6279,1727.6302,,,,0,6,6,6,1,165,55,,,,,,,,
,,613a8378db0ae11b02001c49,65af5530986fda920460fb86,2024-01-22_23h57.51.684,bars,2023.2.3,Win32,60.24096386,657b66ea316d21385b68909f,,,,,,,,,,,1727.6304,1728.6256,,,1729.1243,1729.3732,,143,143,,,,,,,,,,,,,,,,bars/022.png,bars/mask007.png,,,,,,,,,,,,0,1,,,,,,,5,0,6,0,,,,,,,,,,,1728.6257,1729.1242,1729.3733,1731.5348,space,2.1443,,1731.5348,48,57,1732.532,1732.532,1732.544,,,,0,7,7,7,1,95,20,,,,,,,,
,,613a8378db0ae11b02001c49,65af5530986fda920460fb86,2024-01-22_23h57.51.684,bars,2023.2.3,Win32,60.24096386,657b66ea316d21385b68909f,,,,,,,,,,,1732.5442,1733.547,,,1734.0448,1734.2941,,57,57,,,,,,,,,,,,,,,,bars/035.png,bars/mask001.png,,,,,,,,,,,,0,2,,,,,,,7,0,7,0,,,,,,,,,,,1733.547,1734.0447,1734.2941,1735.9562,space,1.6465,,1735.9563,62,3,1736.953,1736.953,1736.9552,,,,0,8,8,8,1,175,60,,,,,,,,
,,613a8378db0ae11b02001c49,65af5530986fda920460fb86,2024-01-22_23h57.51.684,bars,2023.2.3,Win32,60.24096386,657b66ea316d21385b68909f,,,,,,,,,,,1736.9555,1737.9507,,,1738.45,1738.6993,,160,-20,,,,,,,,,,,,,,,,bars/005.png,bars/mask004.png,,,,,,,,,,,,0,2,,,,,,,9,0,9,1,,,,,,,,,,,1737.9507,1738.45,1738.6994,1740.2283,space,1.5108,,1740.2283,30,20,1741.2256,1741.2257,1741.2267,,,,0,9,9,9,1,10,140,,,,,,,,
,,613a8378db0ae11b02001c49,65af5530986fda920460fb86,2024-01-22_23h57.51.684,bars,2023.2.3,Win32,60.24096386,657b66ea316d21385b68909f,,,,,,,,,,,1741.227,1742.2221,,,1742.7221,1742.9703,,118,118,,,,,,,,,,,,,,,,bars/002.png,bars/mask001.png,,,,,,,,,,,,5,1,,,,,,,10,2,9,1,,,,,,,,,,,1742.2221,1742.722,1742.9704,1744.5999,space,1.6118,,1744.5999,12,33,1745.5986,1745.5986,1745.6105,,,,0,10,10,10,1,130,85,,,,,,,,
,,613a8378db0ae11b02001c49,65af5530986fda920460fb86,2024-01-22_23h57.51.684,bars,2023.2.3,Win32,60.24096386,657b66ea316d21385b68909f,,,,,,,,,,,1745.6108,1746.6117,,,1747.1109,1747.3598,,37,37,,,,,,,,,,,,,,,,bars/047.png,bars/mask002.png,,,,,,,,,,,,2,1,,,,,,,8,4,8,4,,,,,,,,,,,1746.6118,1747.1108,1747.3598,1749.3038,space,1.9293,,1749.304,22,33,1750.3014,1750.3015,1750.3125,,,,0,11,11,11,1,15,70,,,,,,,,
,,613a8378db0ae11b02001c49,65af5530986fda920460fb86,2024-01-22_23h57.51.684,bars,2023.2.3,Win32,60.24096386,657b66ea316d21385b68909f,,,,,,,,,,,1750.3128,1751.3147,,,1751.8154,1752.0633,,112,112,,,,,,,,,,,,,,,,bars/003.png,bars/mask006.png,,,,,,,,,,,,0,2,,,,,,,6,6,6,7,,,,,,,,,,,1751.3147,1751.8153,1752.0633,1753.3094,space,1.2307,,1753.3094,87,28,1754.3067,1754.3067,1754.3095,,,,0,12,12,12,1,25,140,,,,,,,,
