init_variables.started,init_variables.stopped,participant,session,date,expName,psychopyVersion,OS,frameRate,study_id,instruction_exp.started,instruction_exp.stopped,key_resp_8.keys,key_resp_8.rt,key_resp_8.duration,instruction_single.started,instruction_single.stopped,key_resp_2.keys,key_resp_2.rt,key_resp_2.duration,interval.started,interval.stopped,cue_single.started,cue_single.stopped,mask.started,mask.stopped,ori_response_single.started,res_ori,res,ori_response_single.stopped,key_resp_single.keys,key_resp_single.rt,key_resp_single.duration,disp_single.started,disp_single.stopped,key_resp.keys,key_resp.rt,key_resp.duration,single.thisRepN,single.thisTrialN,single.thisN,single.thisIndex,single.ran,ori,path,mask_path,instruction_bandit.started,instruction_bandit.stopped,key_resp_6.keys,key_resp_6.rt,key_resp_6.duration,cue_bandit.started,cue_bandit.stopped,bandit_res.keys,bandit_res.rt,bandit_res.duration,outcome_bandit.started,rew,action,outcome_bandit.stopped,bandit.thisRepN,bandit.thisTrialN,bandit.thisN,bandit.thisIndex,bandit.ran,actual_rew1,actual_rew2,rew1,rew2,instruction_task.started,instruction_task.stopped,key_resp_7.keys,key_resp_7.rt,key_resp_7.duration,wait_ready.started,wait_ready.stopped,key_resp_3.keys,key_resp_3.rt,key_resp_3.duration,cue.started,cue.stopped,ori_response.started,ori_response.stopped,key_resp_5.keys,key_resp_5.rt,key_resp_5.duration,outcome.started,diff1,diff2,outcome.stopped,disp_outcome_practice.started,disp_outcome_practice.stopped,key_resp_4.keys,key_resp_4.rt,key_resp_4.duration,trials.thisRepN,trials.thisTrialN,trials.thisN,trials.thisIndex,trials.ran,ori1,ori2,break_blk.started,break_blk.stopped,block.thisRepN,block.thisTrialN,block.thisN,block.thisIndex,block.ran,condition_file
0.0013,0.0016,60a0dfc6f9936b0d30dfea15,65af578aca620457d06d5905,2024-01-23_08h08.14.064,bars,2023.2.3,Win32,59.88023952,657b66ea316d21385b68909f,,,,,,,,,,,,,,,,,,,,,,,,,,,,,,,,,,,,,,,,,,,,,,,,,,,,,,,,,,,,,,,,,,,,,,,,,,,,,,,,,,,,,,,,,,,,,,,,,,,,
,,60a0dfc6f9936b0d30dfea15,65af578aca620457d06d5905,2024-01-23_08h08.14.064,bars,2023.2.3,Win32,59.88023952,657b66ea316d21385b68909f,0.0019,6.7002,y,6.6691,,,,,,,,,,,,,,,,,,,,,,,,,,,,,,,,,,,,,,,,,,,,,,,,,,,,,,,,,,,,,,,,,,,,,,,,,,,,,,,,,,,,,,,,,,,,,,,,
,,60a0dfc6f9936b0d30dfea15,65af578aca620457d06d5905,2024-01-23_08h08.14.064,bars,2023.2.3,Win32,59.88023952,657b66ea316d21385b68909f,,,,,,6.7005,827.6652,space,820.9465,,,,,,,,,,,,,,,,,,,,,,,,,,,,,,,,,,,,,,,,,,,,,,,,,,,,,,,,,,,,,,,,,,,,,,,,,,,,,,,,,,,,,,,,,,,
,,60a0dfc6f9936b0d30dfea15,65af578aca620457d06d5905,2024-01-23_08h08.14.064,bars,2023.2.3,Win32,59.88023952,657b66ea316d21385b68909f,,,,,,,,,,,827.6756,828.6793,828.6794,829.1793,829.1794,829.4293,829.4295,52,52,833.9969,space,4.5458,,833.9971,841.3808,space,7.3464,,0,0,0,9,1,20,bars/single009.png,bars/mask006.png,,,,,,,,,,,,,,,,,,,,,,,,,,,,,,,,,,,,,,,,,,,,,,,,,,,,,,,,,,,,,,,,
,,60a0dfc6f9936b0d30dfea15,65af578aca620457d06d5905,2024-01-23_08h08.14.064,bars,2023.2.3,Win32,59.88023952,657b66ea316d21385b68909f,,,,,,,,,,,841.3976,842.3963,842.3965,842.8963,842.8963,843.1464,843.1464,145,145,844.8633,space,1.7054,,844.8634,846.9467,space,2.073,,0,1,1,0,1,150,bars/single000.png,bars/mask006.png,,,,,,,,,,,,,,,,,,,,,,,,,,,,,,,,,,,,,,,,,,,,,,,,,,,,,,,,,,,,,,,,
,,60a0dfc6f9936b0d30dfea15,65af578aca620457d06d5905,2024-01-23_08h08.14.064,bars,2023.2.3,Win32,59.88023952,657b66ea316d21385b68909f,,,,,,,,,,,846.9473,847.9467,847.9467,848.4464,848.4464,848.6964,848.6964,26,206,851.63,space,2.9171,,851.6301,852.9135,space,1.2675,,0,2,2,1,1,20,bars/single001.png,bars/mask006.png,,,,,,,,,,,,,,,,,,,,,,,,,,,,,,,,,,,,,,,,,,,,,,,,,,,,,,,,,,,,,,,,
,,60a0dfc6f9936b0d30dfea15,65af578aca620457d06d5905,2024-01-23_08h08.14.064,bars,2023.2.3,Win32,59.88023952,657b66ea316d21385b68909f,,,,,,,,,,,852.9138,853.9132,853.9133,854.4133,854.4134,854.6633,854.6634,41,41,857.2967,space,2.628,,857.2967,858.5306,space,1.2253,,0,3,3,3,1,20,bars/single003.png,bars/mask005.png,,,,,,,,,,,,,,,,,,,,,,,,,,,,,,,,,,,,,,,,,,,,,,,,,,,,,,,,,,,,,,,,
,,60a0dfc6f9936b0d30dfea15,65af578aca620457d06d5905,2024-01-23_08h08.14.064,bars,2023.2.3,Win32,59.88023952,657b66ea316d21385b68909f,,,,,,,,,,,858.5312,859.5301,859.5302,860.0303,860.0305,860.2802,860.2802,148,-32,863.1304,space,2.8435,,863.1304,864.4641,space,1.3189,,0,4,4,6,1,175,bars/single006.png,bars/mask005.png,,,,,,,,,,,,,,,,,,,,,,,,,,,,,,,,,,,,,,,,,,,,,,,,,,,,,,,,,,,,,,,,
,,60a0dfc6f9936b0d30dfea15,65af578aca620457d06d5905,2024-01-23_08h08.14.064,bars,2023.2.3,Win32,59.88023952,657b66ea316d21385b68909f,,,,,,,,,,,864.4646,865.4639,865.4639,865.9637,865.9637,866.2136,866.2136,78,78,869.3982,space,3.1681,,869.3983,871.4477,space,2.0422,,0,5,5,5,1,55,bars/single005.png,bars/mask008.png,,,,,,,,,,,,,,,,,,,,,,,,,,,,,,,,,,,,,,,,,,,,,,,,,,,,,,,,,,,,,,,,
,,60a0dfc6f9936b0d30dfea15,65af578aca620457d06d5905,2024-01-23_08h08.14.064,bars,2023.2.3,Win32,59.88023952,657b66ea316d21385b68909f,,,,,,,,,,,871.4482,872.4475,872.4476,872.9475,872.9476,873.1975,873.1976,145,-35,875.6479,space,2.4379,,875.6479,878.0976,space,2.4322,,0,6,6,8,1,160,bars/single008.png,bars/mask004.png,,,,,,,,,,,,,,,,,,,,,,,,,,,,,,,,,,,,,,,,,,,,,,,,,,,,,,,,,,,,,,,,
,,60a0dfc6f9936b0d30dfea15,65af578aca620457d06d5905,2024-01-23_08h08.14.064,bars,2023.2.3,Win32,59.88023952,657b66ea316d21385b68909f,,,,,,,,,,,878.1047,879.0976,879.0976,879.5978,879.5979,879.8478,879.8478,134,134,882.3481,space,2.4841,,882.3482,887.7315,space,5.3484,,0,7,7,2,1,145,bars/single002.png,bars/mask003.png,,,,,,,,,,,,,,,,,,,,,,,,,,,,,,,,,,,,,,,,,,,,,,,,,,,,,,,,,,,,,,,,
,,60a0dfc6f9936b0d30dfea15,65af578aca620457d06d5905,2024-01-23_08h08.14.064,bars,2023.2.3,Win32,59.88023952,657b66ea316d21385b68909f,,,,,,,,,,,887.7483,888.7478,888.7479,889.2317,889.2317,889.4813,889.4814,68,68,893.4652,space,3.9785,,893.4652,899.2321,space,5.7502,,0,8,8,7,1,45,bars/single007.png,bars/mask009.png,,,,,,,,,,,,,,,,,,,,,,,,,,,,,,,,,,,,,,,,,,,,,,,,,,,,,,,,,,,,,,,,
,,60a0dfc6f9936b0d30dfea15,65af578aca620457d06d5905,2024-01-23_08h08.14.064,bars,2023.2.3,Win32,59.88023952,657b66ea316d21385b68909f,,,,,,,,,,,899.2484,900.2483,900.2483,900.7482,900.7482,900.9982,900.9983,95,95,903.1654,space,2.1516,,903.1655,912.0991,space,8.915,,0,9,9,4,1,95,bars/single004.png,bars/mask004.png,,,,,,,,,,,,,,,,,,,,,,,,,,,,,,,,,,,,,,,,,,,,,,,,,,,,,,,,,,,,,,,,
,,60a0dfc6f9936b0d30dfea15,65af578aca620457d06d5905,2024-01-23_08h08.14.064,bars,2023.2.3,Win32,59.88023952,657b66ea316d21385b68909f,,,,,,,,,,,,,,,,,,,,,,,,,,,,,,,,,,,,,912.1169,929.0164,space,16.8863,,,,,,,,,,,,,,,,,,,,,,,,,,,,,,,,,,,,,,,,,,,,,,,,,,,,,,,,,,,,
,,60a0dfc6f9936b0d30dfea15,65af578aca620457d06d5905,2024-01-23_08h08.14.064,bars,2023.2.3,Win32,59.88023952,657b66ea316d21385b68909f,,,,,,,,,,,,,,,,,,,,,,,,,,,,,,,,,,,,,,,,,,929.0263,931.8835,right,2.8412,,931.8837,2,2,932.8829,0,0,0,0,1,9,1,9,2,,,,,,,,,,,,,,,,,,,,,,,,,,,,,,,,,,,,,,,,,
,,60a0dfc6f9936b0d30dfea15,65af578aca620457d06d5905,2024-01-23_08h08.14.064,bars,2023.2.3,Win32,59.88023952,657b66ea316d21385b68909f,,,,,,,,,,,,,,,,,,,,,,,,,,,,,,,,,,,,,,,,,,932.8834,934.6,left,1.7045,,934.6001,10,1,935.5997,0,1,1,1,1,10,0,10,1,,,,,,,,,,,,,,,,,,,,,,,,,,,,,,,,,,,,,,,,,
,,60a0dfc6f9936b0d30dfea15,65af578aca620457d06d5905,2024-01-23_08h08.14.064,bars,2023.2.3,Win32,59.88023952,657b66ea316d21385b68909f,,,,,,,,,,,,,,,,,,,,,,,,,,,,,,,,,,,,,,,,,,935.6001,936.1497,right,0.5328,,936.1497,2,2,937.1497,0,2,2,2,1,10,2,10,2,,,,,,,,,,,,,,,,,,,,,,,,,,,,,,,,,,,,,,,,,
,,60a0dfc6f9936b0d30dfea15,65af578aca620457d06d5905,2024-01-23_08h08.14.064,bars,2023.2.3,Win32,59.88023952,657b66ea316d21385b68909f,,,,,,,,,,,,,,,,,,,,,,,,,,,,,,,,,,,,,,,,,,937.1499,937.5164,left,0.3505,,937.5164,7,1,938.5163,0,3,3,3,1,8,4,7,3,,,,,,,,,,,,,,,,,,,,,,,,,,,,,,,,,,,,,,,,,
,,60a0dfc6f9936b0d30dfea15,65af578aca620457d06d5905,2024-01-23_08h08.14.064,bars,2023.2.3,Win32,59.88023952,657b66ea316d21385b68909f,,,,,,,,,,,,,,,,,,,,,,,,,,,,,,,,,,,,,,,,,,938.5165,938.9498,left,0.4308,,938.9498,5,1,939.9498,0,4,4,4,1,6,2,5,1,,,,,,,,,,,,,,,,,,,,,,,,,,,,,,,,,,,,,,,,,
,,60a0dfc6f9936b0d30dfea15,65af578aca620457d06d5905,2024-01-23_08h08.14.064,bars,2023.2.3,Win32,59.88023952,657b66ea316d21385b68909f,,,,,,,,,,,,,,,,,,,,,,,,,,,,,,,,,,,,,,,,,,939.9504,940.1336,right,0.1669,,940.1337,4,2,941.1333,0,5,5,5,1,4,4,4,4,,,,,,,,,,,,,,,,,,,,,,,,,,,,,,,,,,,,,,,,,
,,60a0dfc6f9936b0d30dfea15,65af578aca620457d06d5905,2024-01-23_08h08.14.064,bars,2023.2.3,Win32,59.88023952,657b66ea316d21385b68909f,,,,,,,,,,,,,,,,,,,,,,,,,,,,,,,,,,,,,,,,,,941.1337,941.7168,left,0.5681,,941.7169,1,1,942.7165,0,6,6,6,1,2,2,1,2,,,,,,,,,,,,,,,,,,,,,,,,,,,,,,,,,,,,,,,,,
,,60a0dfc6f9936b0d30dfea15,65af578aca620457d06d5905,2024-01-23_08h08.14.064,bars,2023.2.3,Win32,59.88023952,657b66ea316d21385b68909f,,,,,,,,,,,,,,,,,,,,,,,,,,,,,,,,,,,,,,,,,,942.7169,943.1331,right,0.4065,,943.1332,1,2,944.1333,0,7,7,7,1,0,0,0,1,,,,,,,,,,,,,,,,,,,,,,,,,,,,,,,,,,,,,,,,,
,,60a0dfc6f9936b0d30dfea15,65af578aca620457d06d5905,2024-01-23_08h08.14.064,bars,2023.2.3,Win32,59.88023952,657b66ea316d21385b68909f,,,,,,,,,,,,,,,,,,,,,,,,,,,,,,,,,,,,,,,,,,944.1335,944.5166,right,0.3737,,944.5167,0,2,945.5167,0,8,8,8,1,0,2,1,0,,,,,,,,,,,,,,,,,,,,,,,,,,,,,,,,,,,,,,,,,
,,60a0dfc6f9936b0d30dfea15,65af578aca620457d06d5905,2024-01-23_08h08.14.064,bars,2023.2.3,Win32,59.88023952,657b66ea316d21385b68909f,,,,,,,,,,,,,,,,,,,,,,,,,,,,,,,,,,,,,,,,,,945.5169,945.8,left,0.2703,,945.8001,2,1,946.7998,0,9,9,9,1,2,4,2,3,,,,,,,,,,,,,,,,,,,,,,,,,,,,,,,,,,,,,,,,,
,,60a0dfc6f9936b0d30dfea15,65af578aca620457d06d5905,2024-01-23_08h08.14.064,bars,2023.2.3,Win32,59.88023952,657b66ea316d21385b68909f,,,,,,,,,,,,,,,,,,,,,,,,,,,,,,,,,,,,,,,,,,946.8002,947.1667,left,0.3631,,947.1669,0,1,948.1666,0,10,10,10,1,0,2,0,3,,,,,,,,,,,,,,,,,,,,,,,,,,,,,,,,,,,,,,,,,
,,60a0dfc6f9936b0d30dfea15,65af578aca620457d06d5905,2024-01-23_08h08.14.064,bars,2023.2.3,Win32,59.88023952,657b66ea316d21385b68909f,,,,,,,,,,,,,,,,,,,,,,,,,,,,,,,,,,,,,,,,,,948.1669,948.5168,right,0.3404,,948.5168,3,2,949.5169,0,11,11,11,1,0,4,0,3,,,,,,,,,,,,,,,,,,,,,,,,,,,,,,,,,,,,,,,,,
,,60a0dfc6f9936b0d30dfea15,65af578aca620457d06d5905,2024-01-23_08h08.14.064,bars,2023.2.3,Win32,59.88023952,657b66ea316d21385b68909f,,,,,,,,,,,,,,,,,,,,,,,,,,,,,,,,,,,,,,,,,,949.5173,949.7168,right,0.1828,,949.7168,6,2,950.7168,0,12,12,12,1,2,6,1,6,,,,,,,,,,,,,,,,,,,,,,,,,,,,,,,,,,,,,,,,,
,,60a0dfc6f9936b0d30dfea15,65af578aca620457d06d5905,2024-01-23_08h08.14.064,bars,2023.2.3,Win32,59.88023952,657b66ea316d21385b68909f,,,,,,,,,,,,,,,,,,,,,,,,,,,,,,,,,,,,,,,,,,950.7171,950.9336,right,0.2064,,950.9336,3,2,951.9335,0,13,13,13,1,0,4,1,3,,,,,,,,,,,,,,,,,,,,,,,,,,,,,,,,,,,,,,,,,
,,60a0dfc6f9936b0d30dfea15,65af578aca620457d06d5905,2024-01-23_08h08.14.064,bars,2023.2.3,Win32,59.88023952,657b66ea316d21385b68909f,,,,,,,,,,,,,,,,,,,,,,,,,,,,,,,,,,,,,,,,,,951.934,952.3338,left,0.3889,,952.3339,2,1,953.3336,0,14,14,14,1,2,6,2,7,,,,,,,,,,,,,,,,,,,,,,,,,,,,,,,,,,,,,,,,,
,,60a0dfc6f9936b0d30dfea15,65af578aca620457d06d5905,2024-01-23_08h08.14.064,bars,2023.2.3,Win32,59.88023952,657b66ea316d21385b68909f,,,,,,,,,,,,,,,,,,,,,,,,,,,,,,,,,,,,,,,,,,953.3342,953.484,right,0.1413,,953.4841,9,2,954.4837,0,15,15,15,1,4,8,3,9,,,,,,,,,,,,,,,,,,,,,,,,,,,,,,,,,,,,,,,,,
,,60a0dfc6f9936b0d30dfea15,65af578aca620457d06d5905,2024-01-23_08h08.14.064,bars,2023.2.3,Win32,59.88023952,657b66ea316d21385b68909f,,,,,,,,,,,,,,,,,,,,,,,,,,,,,,,,,,,,,,,,,,954.484,954.8838,right,0.3833,,954.8839,7,2,955.8837,0,16,16,16,1,6,6,7,7,,,,,,,,,,,,,,,,,,,,,,,,,,,,,,,,,,,,,,,,,
,,60a0dfc6f9936b0d30dfea15,65af578aca620457d06d5905,2024-01-23_08h08.14.064,bars,2023.2.3,Win32,59.88023952,657b66ea316d21385b68909f,,,,,,,,,,,,,,,,,,,,,,,,,,,,,,,,,,,,,,,,,,955.8839,956.1173,right,0.2174,,956.1174,5,2,957.1171,0,17,17,17,1,8,4,9,5,,,,,,,,,,,,,,,,,,,,,,,,,,,,,,,,,,,,,,,,,
,,60a0dfc6f9936b0d30dfea15,65af578aca620457d06d5905,2024-01-23_08h08.14.064,bars,2023.2.3,Win32,59.88023952,657b66ea316d21385b68909f,,,,,,,,,,,,,,,,,,,,,,,,,,,,,,,,,,,,,,,,,,957.1174,957.317,left,0.1835,,957.3171,5,1,958.317,0,18,18,18,1,6,2,5,1,,,,,,,,,,,,,,,,,,,,,,,,,,,,,,,,,,,,,,,,,
,,60a0dfc6f9936b0d30dfea15,65af578aca620457d06d5905,2024-01-23_08h08.14.064,bars,2023.2.3,Win32,59.88023952,657b66ea316d21385b68909f,,,,,,,,,,,,,,,,,,,,,,,,,,,,,,,,,,,,,,,,,,958.3173,958.5004,left,0.1739,,958.5005,7,1,959.5005,0,19,19,19,1,8,0,7,0,,,,,,,,,,,,,,,,,,,,,,,,,,,,,,,,,,,,,,,,,
,,60a0dfc6f9936b0d30dfea15,65af578aca620457d06d5905,2024-01-23_08h08.14.064,bars,2023.2.3,Win32,59.88023952,657b66ea316d21385b68909f,,,,,,,,,,,,,,,,,,,,,,,,,,,,,,,,,,,,,,,,,,,,,,,,,,,,,,,,,,,,959.5013,970.568,space,11.045,,,,,,,,,,,,,,,,,,,,,,,,,,,,,,,,,,,,,
,,60a0dfc6f9936b0d30dfea15,65af578aca620457d06d5905,2024-01-23_08h08.14.064,bars,2023.2.3,Win32,59.88023952,657b66ea316d21385b68909f,,,,,,,,,,,971.5042,972.501,,,973.0011,973.2507,,94,94,,,,,,,,,,,,,,,,bars/006.png,bars/mask006.png,,,,,,,,,,,,6,2,,,,,,,4,7,3,7,,,,,,970.5772,971.5011,space,0.911,,972.5012,973.0011,973.2509,977.0514,space,3.7887,,977.0516,59,6,978.0512,978.0514,986.2193,space,8.1524,,0,0,0,0,1,35,100,,,,,,,,
,,60a0dfc6f9936b0d30dfea15,65af578aca620457d06d5905,2024-01-23_08h08.14.064,bars,2023.2.3,Win32,59.88023952,657b66ea316d21385b68909f,,,,,,,,,,,986.2362,987.2349,,,987.7349,987.9849,,99,99,,,,,,,,,,,,,,,,bars/026.png,bars/mask009.png,,,,,,,,,,,,3,2,,,,,,,6,5,7,5,,,,,,,,,,,987.2349,987.7349,987.985,991.4022,space,3.4018,,991.4025,64,14,992.402,992.4021,995.4689,space,3.0403,,0,1,1,1,1,35,85,,,,,,,,
,,60a0dfc6f9936b0d30dfea15,65af578aca620457d06d5905,2024-01-23_08h08.14.064,bars,2023.2.3,Win32,59.88023952,657b66ea316d21385b68909f,,,,,,,,,,,995.4852,996.4852,,,996.9852,997.2353,,105,105,,,,,,,,,,,,,,,,bars/025.png,bars/mask000.png,,,,,,,,,,,,4,1,,,,,,,4,3,4,4,,,,,,,,,,,996.4853,996.9852,997.2353,1000.6687,space,3.4164,,1000.6688,0,65,1001.6686,1001.6686,1002.3691,space,0.6786,,0,2,2,2,1,105,40,,,,,,,,
,,60a0dfc6f9936b0d30dfea15,65af578aca620457d06d5905,2024-01-23_08h08.14.064,bars,2023.2.3,Win32,59.88023952,657b66ea316d21385b68909f,,,,,,,,,,,1002.3697,1003.3688,,,1003.8689,1004.119,,78,78,,,,,,,,,,,,,,,,bars/022.png,bars/mask001.png,,,,,,,,,,,,1,1,,,,,,,2,5,2,5,,,,,,,,,,,1003.3688,1003.8689,1004.119,1007.0523,space,2.9166,,1007.0523,17,58,1008.0523,1008.0524,1009.1027,space,1.0203,,0,3,3,3,1,95,20,,,,,,,,
,,60a0dfc6f9936b0d30dfea15,65af578aca620457d06d5905,2024-01-23_08h08.14.064,bars,2023.2.3,Win32,59.88023952,657b66ea316d21385b68909f,,,,,,,,,,,1009.1033,1010.1022,,,1010.6026,1010.8524,,158,158,,,,,,,,,,,,,,,,bars/035.png,bars/mask006.png,,,,,,,,,,,,0,1,,,,,,,0,3,1,4,,,,,,,,,,,1010.1023,1010.6025,1010.8525,1012.486,space,1.6302,,1012.4861,17,82,1013.4859,1013.4859,1014.086,space,0.5857,,0,4,4,4,1,175,60,,,,,,,,
,,60a0dfc6f9936b0d30dfea15,65af578aca620457d06d5905,2024-01-23_08h08.14.064,bars,2023.2.3,Win32,59.88023952,657b66ea316d21385b68909f,,,,,,,,,,,1014.0865,1015.086,,,1015.586,1015.8359,,106,106,,,,,,,,,,,,,,,,bars/014.png,bars/mask009.png,,,,,,,,,,,,0,1,,,,,,,0,5,0,2,,,,,,,,,,,1015.086,1015.5859,1015.836,1018.0698,space,2.2305,,1018.0698,26,74,1019.0693,1019.0695,1019.7864,space,0.6822,,0,5,5,5,1,80,0,,,,,,,,
,,60a0dfc6f9936b0d30dfea15,65af578aca620457d06d5905,2024-01-23_08h08.14.064,bars,2023.2.3,Win32,59.88023952,657b66ea316d21385b68909f,,,,,,,,,,,1019.7869,1020.7861,,,1021.2862,1021.5362,,137,137,,,,,,,,,,,,,,,,bars/037.png,bars/mask002.png,,,,,,,,,,,,2,1,,,,,,,2,7,3,6,,,,,,,,,,,1020.7861,1021.2862,1021.5362,1023.1864,space,1.6341,,1023.1865,13,32,1024.1861,1024.1862,1024.8537,space,0.6616,,0,6,6,6,1,150,105,,,,,,,,
,,60a0dfc6f9936b0d30dfea15,65af578aca620457d06d5905,2024-01-23_08h08.14.064,bars,2023.2.3,Win32,59.88023952,657b66ea316d21385b68909f,,,,,,,,,,,1024.8542,1025.8529,,,1026.3531,1026.6029,,138,138,,,,,,,,,,,,,,,,bars/031.png,bars/mask007.png,,,,,,,,,,,,0,1,,,,,,,0,9,0,9,,,,,,,,,,,1025.853,1026.3531,1026.6029,1028.253,space,1.6338,,1028.253,18,77,1029.2529,1029.253,1029.9197,space,0.6417,,0,7,7,7,1,120,35,,,,,,,,
,,60a0dfc6f9936b0d30dfea15,65af578aca620457d06d5905,2024-01-23_08h08.14.064,bars,2023.2.3,Win32,59.88023952,657b66ea316d21385b68909f,,,,,,,,,,,1029.9199,1030.9195,,,1031.42,1031.6697,,112,112,,,,,,,,,,,,,,,,bars/002.png,bars/mask009.png,,,,,,,,,,,,0,1,,,,,,,0,10,0,10,,,,,,,,,,,1030.9195,1031.42,1031.6697,1035.0865,space,3.4127,,1035.0866,18,27,1036.0866,1036.0866,1037.2036,space,1.0828,,0,8,8,8,1,130,85,,,,,,,,
,,60a0dfc6f9936b0d30dfea15,65af578aca620457d06d5905,2024-01-23_08h08.14.064,bars,2023.2.3,Win32,59.88023952,657b66ea316d21385b68909f,,,,,,,,,,,1037.2042,1038.2034,,,1038.7034,1038.9534,,36,36,,,,,,,,,,,,,,,,bars/017.png,bars/mask007.png,,,,,,,,,,,,7,2,,,,,,,2,10,2,10,,,,,,,,,,,1038.2034,1038.7034,1038.9535,1040.5367,space,1.5686,,1040.5367,71,9,1041.5368,1041.5369,1044.6369,space,3.0818,,0,9,9,9,1,145,45,,,,,,,,
,,60a0dfc6f9936b0d30dfea15,65af578aca620457d06d5905,2024-01-23_08h08.14.064,bars,2023.2.3,Win32,59.88023952,657b66ea316d21385b68909f,,,,,,,,,,,1044.644,1045.6368,,,1046.1368,1046.387,,173,-7,,,,,,,,,,,,,,,,bars/012.png,bars/mask008.png,,,,,,,,,,,,3,2,,,,,,,4,10,4,10,,,,,,,,,,,1045.6368,1046.1368,1046.387,1048.5705,space,2.1677,,1048.5706,83,22,1049.5704,1049.5704,1059.6209,space,10.021,,0,10,10,10,1,90,15,,,,,,,,
,,60a0dfc6f9936b0d30dfea15,65af578aca620457d06d5905,2024-01-23_08h08.14.064,bars,2023.2.3,Win32,59.88023952,657b66ea316d21385b68909f,,,,,,,,,,,1059.6383,1060.6374,,,1061.1376,1061.3876,,135,135,,,,,,,,,,,,,,,,bars/001.png,bars/mask004.png,,,,,,,,,,,,0,1,,,,,,,2,10,0,10,,,,,,,,,,,1060.6374,1061.1375,1061.3876,1063.9544,space,2.5509,,1063.9545,5,50,1064.9543,1064.9543,1065.3879,space,0.3938,,0,11,11,11,1,130,85,,,,,,,,
,,60a0dfc6f9936b0d30dfea15,65af578aca620457d06d5905,2024-01-23_08h08.14.064,bars,2023.2.3,Win32,59.88023952,657b66ea316d21385b68909f,,,,,,,,,,,1065.3881,1066.3877,,,1066.8878,1067.1378,,134,134,,,,,,,,,,,,,,,,bars/004.png,bars/mask003.png,,,,,,,,,,,,7,2,,,,,,,4,10,4,10,,,,,,,,,,,1066.3877,1066.8878,1067.1379,1069.4214,space,2.2811,,1069.4215,71,9,1070.4212,1070.4212,1071.1214,space,0.6716,,0,12,12,12,1,25,125,,,,,,,,
,,60a0dfc6f9936b0d30dfea15,65af578aca620457d06d5905,2024-01-23_08h08.14.064,bars,2023.2.3,Win32,59.88023952,657b66ea316d21385b68909f,,,,,,,,,,,1071.1219,1072.1212,,,1072.6213,1072.8711,,143,143,,,,,,,,,,,,,,,,bars/004.png,bars/mask002.png,,,,,,,,,,,,3,2,,,,,,,6,8,5,7,,,,,,,,,,,1072.1213,1072.6212,1072.8712,1074.8714,space,1.9953,,1074.8715,62,18,1075.8713,1075.8714,1076.2879,space,0.3932,,0,13,13,13,1,25,125,,,,,,,,
,,60a0dfc6f9936b0d30dfea15,65af578aca620457d06d5905,2024-01-23_08h08.14.064,bars,2023.2.3,Win32,59.88023952,657b66ea316d21385b68909f,,,,,,,,,,,1076.2883,1077.2881,,,1077.7884,1078.0382,,61,61,,,,,,,,,,,,,,,,bars/047.png,bars/mask009.png,,,,,,,,,,,,7,2,,,,,,,4,10,4,10,,,,,,,,,,,1077.2881,1077.7883,1078.0383,1079.9716,space,1.9174,,1079.9717,46,9,1080.9716,1080.9717,1081.3899,space,0.4118,,0,14,14,14,1,15,70,,,,,,,,
,,60a0dfc6f9936b0d30dfea15,65af578aca620457d06d5905,2024-01-23_08h08.14.064,bars,2023.2.3,Win32,59.88023952,657b66ea316d21385b68909f,,,,,,,,,,,1081.3904,1082.3882,,,1082.8884,1083.1385,,139,139,,,,,,,,,,,,,,,,bars/005.png,bars/mask003.png,,,,,,,,,,,,10,2,,,,,,,2,10,2,10,,,,,,,,,,,1082.3883,1082.8884,1083.1385,1085.1051,space,1.9593,,1085.1051,51,1,1086.1052,1086.1052,1086.5386,space,0.4056,,0,15,15,15,1,10,140,,,,,,,,
,,60a0dfc6f9936b0d30dfea15,65af578aca620457d06d5905,2024-01-23_08h08.14.064,bars,2023.2.3,Win32,59.88023952,657b66ea316d21385b68909f,,,,,,,,,,,1086.5391,1087.5383,,,1088.0383,1088.2883,,102,102,,,,,,,,,,,,,,,,bars/041.png,bars/mask008.png,,,,,,,,,,,,3,2,,,,,,,4,10,5,8,,,,,,,,,,,1087.5383,1088.0383,1088.2883,1091.0888,space,2.7861,,1091.0889,82,17,1092.0884,1092.0884,1092.5889,space,0.4761,,0,16,16,16,1,20,85,,,,,,,,
,,60a0dfc6f9936b0d30dfea15,65af578aca620457d06d5905,2024-01-23_08h08.14.064,bars,2023.2.3,Win32,59.88023952,657b66ea316d21385b68909f,,,,,,,,,,,1092.5893,1093.5888,,,1094.0887,1094.3387,,70,70,,,,,,,,,,,,,,,,bars/011.png,bars/mask005.png,,,,,,,,,,,,5,2,,,,,,,6,10,9,9,,,,,,,,,,,1093.5889,1094.0887,1094.3388,1096.4058,space,2.0549,,1096.4058,90,15,1097.4056,1097.4057,1097.9223,space,0.4983,,0,17,17,17,1,160,85,,,,,,,,
,,60a0dfc6f9936b0d30dfea15,65af578aca620457d06d5905,2024-01-23_08h08.14.064,bars,2023.2.3,Win32,59.88023952,657b66ea316d21385b68909f,,,,,,,,,,,1097.9226,1098.9223,,,1099.4227,1099.6722,,112,-68,,,,,,,,,,,,,,,,bars/001.png,bars/mask000.png,,,,,,,,,,,,3,1,,,,,,,8,8,7,9,,,,,,,,,,,1098.9223,1099.4227,1099.6722,1103.1557,space,3.4664,,1103.1557,18,27,1104.1555,1104.1555,1104.8227,space,0.6492,,0,18,18,18,1,130,85,,,,,,,,
,,60a0dfc6f9936b0d30dfea15,65af578aca620457d06d5905,2024-01-23_08h08.14.064,bars,2023.2.3,Win32,59.88023952,657b66ea316d21385b68909f,,,,,,,,,,,1104.8233,1105.8224,,,1106.3225,1106.5725,,9,9,,,,,,,,,,,,,,,,bars/032.png,bars/mask008.png,,,,,,,,,,,,6,2,,,,,,,6,10,7,9,,,,,,,,,,,1105.8225,1106.3224,1106.5725,1109.756,space,3.1676,,1109.7561,64,11,1110.7557,1110.7558,1111.1394,space,0.3635,,0,19,19,19,1,125,20,,,,,,,,
,,60a0dfc6f9936b0d30dfea15,65af578aca620457d06d5905,2024-01-23_08h08.14.064,bars,2023.2.3,Win32,59.88023952,657b66ea316d21385b68909f,,,,,,,,,,,1111.14,1112.1393,,,1112.6392,1112.8892,,55,55,,,,,,,,,,,,,,,,bars/010.png,bars/mask008.png,,,,,,,,,,,,9,2,,,,,,,4,8,4,9,,,,,,,,,,,1112.1394,1112.6391,1112.8893,1114.1395,space,1.2348,,1114.1395,70,0,1115.1395,1115.1395,1115.173,space,0.0194,,0,20,20,20,1,165,55,,,,,,,,
,,60a0dfc6f9936b0d30dfea15,65af578aca620457d06d5905,2024-01-23_08h08.14.064,bars,2023.2.3,Win32,59.88023952,657b66ea316d21385b68909f,,,,,,,,,,,1115.1734,1116.1727,,,1116.6729,1116.9227,,57,57,,,,,,,,,,,,,,,,bars/047.png,bars/mask000.png,,,,,,,,,,,,6,2,,,,,,,2,10,3,10,,,,,,,,,,,1116.1727,1116.6728,1116.9228,1117.7896,space,0.863,,1117.7897,42,13,1118.7896,1118.7896,1119.0233,space,0.2178,,0,21,21,21,1,15,70,,,,,,,,
,,60a0dfc6f9936b0d30dfea15,65af578aca620457d06d5905,2024-01-23_08h08.14.064,bars,2023.2.3,Win32,59.88023952,657b66ea316d21385b68909f,,,,,,,,,,,1119.0238,1120.0229,,,1120.5229,1120.7729,,68,68,,,,,,,,,,,,,,,,bars/047.png,bars/mask006.png,,,,,,,,,,,,8,2,,,,,,,4,10,4,9,,,,,,,,,,,1120.0229,1120.5229,1120.773,1122.4899,space,1.7089,,1122.4899,53,2,1123.4897,1123.4898,1123.5564,space,0.0548,,0,22,22,22,1,15,70,,,,,,,,
,,60a0dfc6f9936b0d30dfea15,65af578aca620457d06d5905,2024-01-23_08h08.14.064,bars,2023.2.3,Win32,59.88023952,657b66ea316d21385b68909f,,,,,,,,,,,1123.5567,1124.5563,,,1125.0563,1125.3062,,50,50,,,,,,,,,,,,,,,,bars/034.png,bars/mask007.png,,,,,,,,,,,,4,2,,,,,,,6,8,5,8,,,,,,,,,,,1124.5563,1125.0563,1125.3064,1126.0063,space,0.6956,,1126.0065,75,15,1127.0064,1127.0064,1127.4732,space,0.4578,,0,23,23,23,1,125,65,,,,,,,,
,,60a0dfc6f9936b0d30dfea15,65af578aca620457d06d5905,2024-01-23_08h08.14.064,bars,2023.2.3,Win32,59.88023952,657b66ea316d21385b68909f,,,,,,,,,,,1127.4735,1128.4732,,,1128.9731,1129.2234,,137,137,,,,,,,,,,,,,,,,bars/008.png,bars/mask006.png,,,,,,,,,,,,0,1,,,,,,,4,10,2,10,,,,,,,,,,,1128.4732,1128.9731,1129.2234,1131.9903,space,2.7622,,1131.9903,27,43,1132.99,1132.99,1133.2899,space,0.2685,,0,24,24,24,1,110,0,,,,,,,,
,,60a0dfc6f9936b0d30dfea15,65af578aca620457d06d5905,2024-01-23_08h08.14.064,bars,2023.2.3,Win32,59.88023952,657b66ea316d21385b68909f,,,,,,,,,,,1133.2903,1134.2902,,,1134.7902,1135.0402,,178,178,,,,,,,,,,,,,,,,bars/033.png,bars/mask004.png,,,,,,,,,,,,2,2,,,,,,,2,8,2,9,,,,,,,,,,,1134.2903,1134.7902,1135.0402,1137.0569,space,2.0092,,1137.0569,27,23,1138.0568,1138.0568,1138.4071,space,0.333,,0,25,25,25,1,25,155,,,,,,,,
,,60a0dfc6f9936b0d30dfea15,65af578aca620457d06d5905,2024-01-23_08h08.14.064,bars,2023.2.3,Win32,59.88023952,657b66ea316d21385b68909f,,,,,,,,,,,1138.4074,1139.4071,,,1139.9071,1140.1571,,80,80,,,,,,,,,,,,,,,,bars/021.png,bars/mask008.png,,,,,,,,,,,,7,2,,,,,,,4,10,4,10,,,,,,,,,,,1139.4072,1139.907,1140.1571,1143.6072,space,3.4359,,1143.6072,75,10,1144.6071,1144.6071,1144.8907,space,0.2481,,0,26,26,26,1,155,70,,,,,,,,
,,60a0dfc6f9936b0d30dfea15,65af578aca620457d06d5905,2024-01-23_08h08.14.064,bars,2023.2.3,Win32,59.88023952,657b66ea316d21385b68909f,,,,,,,,,,,1144.8913,1145.8905,,,1146.403,1146.6408,,126,126,,,,,,,,,,,,,,,,bars/043.png,bars/mask008.png,,,,,,,,,,,,6,2,,,,,,,6,8,5,7,,,,,,,,,,,1145.8905,1146.4028,1146.6409,1147.6573,space,1.001,,1147.6574,84,4,1148.6571,1148.6571,1149.3409,space,0.6792,,0,27,27,27,1,30,130,,,,,,,,
,,60a0dfc6f9936b0d30dfea15,65af578aca620457d06d5905,2024-01-23_08h08.14.064,bars,2023.2.3,Win32,59.88023952,657b66ea316d21385b68909f,,,,,,,,,,,1149.3414,1150.3406,,,1150.8408,1151.0907,,46,46,,,,,,,,,,,,,,,,bars/025.png,bars/mask002.png,,,,,,,,,,,,8,2,,,,,,,8,10,7,10,,,,,,,,,,,1150.3407,1150.8408,1151.0907,1153.2407,space,2.1425,,1153.2407,59,6,1154.2409,1154.2409,1155.5908,space,1.3177,,0,28,28,28,1,105,40,,,,,,,,
,,60a0dfc6f9936b0d30dfea15,65af578aca620457d06d5905,2024-01-23_08h08.14.064,bars,2023.2.3,Win32,59.88023952,657b66ea316d21385b68909f,,,,,,,,,,,1155.5911,1156.5908,,,1157.0908,1157.3408,,80,80,,,,,,,,,,,,,,,,bars/023.png,bars/mask005.png,,,,,,,,,,,,0,2,,,,,,,10,8,10,7,,,,,,,,,,,1156.5909,1157.0908,1157.3409,1159.0575,space,1.7006,,1159.0576,60,35,1160.0575,1160.0576,1160.241,space,0.1588,,0,29,29,29,1,20,115,,,,,,,,
,,60a0dfc6f9936b0d30dfea15,65af578aca620457d06d5905,2024-01-23_08h08.14.064,bars,2023.2.3,Win32,59.88023952,657b66ea316d21385b68909f,,,,,,,,,,,1160.2413,1161.241,,,1161.7411,1161.9913,,72,72,,,,,,,,,,,,,,,,bars/041.png,bars/mask002.png,,,,,,,,,,,,4,2,,,,,,,8,6,8,7,,,,,,,,,,,1161.241,1161.7411,1161.9914,1165.3912,space,3.394,,1165.3913,52,13,1166.3912,1166.3912,1166.7412,space,0.3361,,0,30,30,30,1,20,85,,,,,,,,
,,60a0dfc6f9936b0d30dfea15,65af578aca620457d06d5905,2024-01-23_08h08.14.064,bars,2023.2.3,Win32,59.88023952,657b66ea316d21385b68909f,,,,,,,,,,,1166.7415,1167.7414,,,1168.2414,1168.4914,,137,137,,,,,,,,,,,,,,,,bars/019.png,bars/mask007.png,,,,,,,,,,,,0,2,,,,,,,10,4,10,5,,,,,,,,,,,1167.7415,1168.2413,1168.4914,1169.8916,space,1.3845,,1169.8917,88,32,1170.8913,1170.8913,1171.3081,space,0.4044,,0,31,31,31,1,45,105,,,,,,,,
,,60a0dfc6f9936b0d30dfea15,65af578aca620457d06d5905,2024-01-23_08h08.14.064,bars,2023.2.3,Win32,59.88023952,657b66ea316d21385b68909f,,,,,,,,,,,1171.3085,1172.308,,,1172.8081,1173.058,,110,110,,,,,,,,,,,,,,,,bars/009.png,bars/mask003.png,,,,,,,,,,,,2,2,,,,,,,10,2,10,2,,,,,,,,,,,1172.308,1172.8081,1173.0582,1174.675,space,1.6077,,1174.6751,85,5,1175.6752,1175.6752,1176.1586,space,0.4677,,0,32,32,32,1,15,105,,,,,,,,
,,60a0dfc6f9936b0d30dfea15,65af578aca620457d06d5905,2024-01-23_08h08.14.064,bars,2023.2.3,Win32,59.88023952,657b66ea316d21385b68909f,,,,,,,,,,,1176.1591,1177.1583,,,1177.6585,1177.9084,,124,124,,,,,,,,,,,,,,,,bars/005.png,bars/mask004.png,,,,,,,,,,,,3,2,,,,,,,10,4,10,6,,,,,,,,,,,1177.1583,1177.6584,1177.9084,1180.2925,space,2.381,,1180.2925,66,16,1181.2916,1181.2916,1181.7921,space,0.474,,0,33,33,33,1,10,140,,,,,,,,
,,60a0dfc6f9936b0d30dfea15,65af578aca620457d06d5905,2024-01-23_08h08.14.064,bars,2023.2.3,Win32,59.88023952,657b66ea316d21385b68909f,,,,,,,,,,,1181.7926,1182.7918,,,1183.292,1183.542,,76,76,,,,,,,,,,,,,,,,bars/011.png,bars/mask009.png,,,,,,,,,,,,5,2,,,,,,,8,6,6,7,,,,,,,,,,,1182.7919,1183.2919,1183.5421,1186.6254,space,3.0752,,1186.6255,84,9,1187.6263,1187.6263,1188.092,space,0.4415,,0,34,34,34,1,160,85,,,,,,,,
,,60a0dfc6f9936b0d30dfea15,65af578aca620457d06d5905,2024-01-23_08h08.14.064,bars,2023.2.3,Win32,59.88023952,657b66ea316d21385b68909f,,,,,,,,,,,1188.0923,1189.092,,,1189.5927,1189.8422,,101,101,,,,,,,,,,,,,,,,bars/021.png,bars/mask001.png,,,,,,,,,,,,0,2,,,,,,,6,8,7,7,,,,,,,,,,,1189.092,1189.5926,1189.8424,1194.0924,space,4.2388,,1194.0924,54,31,1195.0922,1195.0923,1195.6095,space,0.4815,,0,35,35,35,1,155,70,,,,,,,,
,,60a0dfc6f9936b0d30dfea15,65af578aca620457d06d5905,2024-01-23_08h08.14.064,bars,2023.2.3,Win32,59.88023952,657b66ea316d21385b68909f,,,,,,,,,,,1195.6098,1196.6088,,,1197.109,1197.3587,,152,152,,,,,,,,,,,,,,,,bars/004.png,bars/mask006.png,,,,,,,,,,,,1,2,,,,,,,8,10,9,10,,,,,,,,,,,1196.6089,1197.109,1197.3587,1198.0758,space,0.7011,,1198.076,53,27,1199.0757,1199.0757,1199.1426,space,0.0516,,0,36,36,36,1,25,125,,,,,,,,
,,60a0dfc6f9936b0d30dfea15,65af578aca620457d06d5905,2024-01-23_08h08.14.064,bars,2023.2.3,Win32,59.88023952,657b66ea316d21385b68909f,,,,,,,,,,,1199.1431,1200.1425,,,1200.6424,1200.8923,,71,71,,,,,,,,,,,,,,,,bars/002.png,bars/mask001.png,,,,,,,,,,,,4,2,,,,,,,10,8,10,8,,,,,,,,,,,1200.1425,1200.6424,1200.8923,1202.7758,space,1.8689,,1202.7758,59,14,1203.7759,1203.776,1204.1263,space,0.3255,,0,37,37,37,1,130,85,,,,,,,,
,,60a0dfc6f9936b0d30dfea15,65af578aca620457d06d5905,2024-01-23_08h08.14.064,bars,2023.2.3,Win32,59.88023952,657b66ea316d21385b68909f,,,,,,,,,,,1204.1268,1205.126,,,1205.626,1205.8759,,130,130,,,,,,,,,,,,,,,,bars/005.png,bars/mask003.png,,,,,,,,,,,,7,2,,,,,,,8,10,9,10,,,,,,,,,,,1205.1261,1205.626,1205.8759,1206.626,space,0.7414,,1206.626,60,10,1207.6261,1207.6261,1208.0429,space,0.4046,,0,38,38,38,1,10,140,,,,,,,,
,,60a0dfc6f9936b0d30dfea15,65af578aca620457d06d5905,2024-01-23_08h08.14.064,bars,2023.2.3,Win32,59.88023952,657b66ea316d21385b68909f,,,,,,,,,,,1208.0434,1209.0426,,,1209.5427,1209.7929,,63,63,,,,,,,,,,,,,,,,bars/018.png,bars/mask007.png,,,,,,,,,,,,1,2,,,,,,,6,8,5,9,,,,,,,,,,,1209.0427,1209.5427,1209.7929,1212.393,space,2.5841,,1212.3931,87,27,1213.393,1213.393,1213.7599,space,0.341,,0,39,39,39,1,150,90,,,,,,,,
,,60a0dfc6f9936b0d30dfea15,65af578aca620457d06d5905,2024-01-23_08h08.14.064,bars,2023.2.3,Win32,59.88023952,657b66ea316d21385b68909f,,,,,,,,,,,1213.7603,1214.7594,,,1215.2595,1215.5094,,2,2,,,,,,,,,,,,,,,,bars/040.png,bars/mask000.png,,,,,,,,,,,,5,2,,,,,,,4,6,4,6,,,,,,,,,,,1214.7595,1215.2594,1215.5095,1218.2598,space,2.7477,,1218.26,42,3,1219.2598,1219.2598,1219.7102,space,0.418,,0,40,40,40,1,140,5,,,,,,,,
,,60a0dfc6f9936b0d30dfea15,65af578aca620457d06d5905,2024-01-23_08h08.14.064,bars,2023.2.3,Win32,59.88023952,657b66ea316d21385b68909f,,,,,,,,,,,1219.7108,1220.7099,,,1221.2099,1221.4599,,132,132,,,,,,,,,,,,,,,,bars/026.png,bars/mask005.png,,,,,,,,,,,,0,2,,,,,,,2,8,2,8,,,,,,,,,,,1220.7101,1221.2098,1221.4599,1222.9599,space,1.4929,,1222.96,83,47,1223.9601,1223.9602,1224.26,space,0.2779,,0,41,41,41,1,35,85,,,,,,,,
,,60a0dfc6f9936b0d30dfea15,65af578aca620457d06d5905,2024-01-23_08h08.14.064,bars,2023.2.3,Win32,59.88023952,657b66ea316d21385b68909f,,,,,,,,,,,1224.2603,1225.2602,,,1225.7602,1226.0098,,9,9,,,,,,,,,,,,,,,,bars/045.png,bars/mask002.png,,,,,,,,,,,,10,2,,,,,,,4,10,2,10,,,,,,,,,,,1225.2602,1225.7602,1226.0098,1228.4768,space,2.4551,,1228.4769,89,1,1229.4769,1229.4769,1229.9105,space,0.4171,,0,42,42,42,1,100,10,,,,,,,,
,,60a0dfc6f9936b0d30dfea15,65af578aca620457d06d5905,2024-01-23_08h08.14.064,bars,2023.2.3,Win32,59.88023952,657b66ea316d21385b68909f,,,,,,,,,,,1229.911,1230.9104,,,1231.4103,1231.6603,,40,40,,,,,,,,,,,,,,,,bars/025.png,bars/mask006.png,,,,,,,,,,,,8,2,,,,,,,6,8,6,8,,,,,,,,,,,1230.9104,1231.4103,1231.6603,1234.0269,space,2.3505,,1234.027,65,0,1235.027,1235.0271,1236.0273,space,0.9758,,0,43,43,43,1,105,40,,,,,,,,
,,60a0dfc6f9936b0d30dfea15,65af578aca620457d06d5905,2024-01-23_08h08.14.064,bars,2023.2.3,Win32,59.88023952,657b66ea316d21385b68909f,,,,,,,,,,,1236.0278,1237.0271,,,1237.5272,1237.7772,,75,75,,,,,,,,,,,,,,,,bars/002.png,bars/mask002.png,,,,,,,,,,,,7,2,,,,,,,4,10,5,10,,,,,,,,,,,1237.0271,1237.5271,1237.7773,1240.1606,space,2.3753,,1240.1606,55,10,1241.1608,1241.1608,1241.4442,space,0.2612,,0,44,44,44,1,130,85,,,,,,,,
,,60a0dfc6f9936b0d30dfea15,65af578aca620457d06d5905,2024-01-23_08h08.14.064,bars,2023.2.3,Win32,59.88023952,657b66ea316d21385b68909f,,,,,,,,,,,1241.4448,1242.444,,,1242.9441,1243.194,,55,55,,,,,,,,,,,,,,,,bars/031.png,bars/mask008.png,,,,,,,,,,,,3,2,,,,,,,2,8,2,8,,,,,,,,,,,1242.444,1242.944,1243.1941,1245.6107,space,2.4065,,1245.6108,65,20,1246.6106,1246.6107,1247.2111,space,0.5819,,0,45,45,45,1,120,35,,,,,,,,
,,60a0dfc6f9936b0d30dfea15,65af578aca620457d06d5905,2024-01-23_08h08.14.064,bars,2023.2.3,Win32,59.88023952,657b66ea316d21385b68909f,,,,,,,,,,,1247.2115,1248.2108,,,1248.7108,1248.9608,,1,1,,,,,,,,,,,,,,,,bars/040.png,bars/mask002.png,,,,,,,,,,,,9,2,,,,,,,0,10,0,10,,,,,,,,,,,1248.2109,1248.7108,1248.9608,1251.4777,space,2.5125,,1251.4777,41,4,1252.4778,1252.4778,1252.8945,space,0.3918,,0,46,46,46,1,140,5,,,,,,,,
,,60a0dfc6f9936b0d30dfea15,65af578aca620457d06d5905,2024-01-23_08h08.14.064,bars,2023.2.3,Win32,59.88023952,657b66ea316d21385b68909f,,,,,,,,,,,1252.895,1253.8943,,,1254.3947,1254.6444,,53,53,,,,,,,,,,,,,,,,bars/031.png,bars/mask008.png,,,,,,,,,,,,3,2,,,,,,,0,8,0,7,,,,,,,,,,,1253.8943,1254.3946,1254.6445,1257.8111,space,3.1506,,1257.8112,67,18,1258.811,1258.8111,1258.9781,space,0.1467,,0,47,47,47,1,120,35,,,,,,,,
,,60a0dfc6f9936b0d30dfea15,65af578aca620457d06d5905,2024-01-23_08h08.14.064,bars,2023.2.3,Win32,59.88023952,657b66ea316d21385b68909f,,,,,,,,,,,1258.9785,1259.9779,,,1260.4781,1260.728,,145,145,,,,,,,,,,,,,,,,bars/031.png,bars/mask008.png,,,,,,,,,,,,0,1,,,,,,,0,10,0,10,,,,,,,,,,,1259.9779,1260.4781,1260.7281,1261.5281,space,0.7928,,1261.5282,25,70,1262.5281,1262.5281,1262.7116,space,0.1711,,0,48,48,48,1,120,35,,,,,,,,
,,60a0dfc6f9936b0d30dfea15,65af578aca620457d06d5905,2024-01-23_08h08.14.064,bars,2023.2.3,Win32,59.88023952,657b66ea316d21385b68909f,,,,,,,,,,,1262.7121,1263.7114,,,1264.2128,1264.4614,,66,66,,,,,,,,,,,,,,,,bars/004.png,bars/mask006.png,,,,,,,,,,,,0,1,,,,,,,2,8,2,10,,,,,,,,,,,1263.7114,1264.2128,1264.4614,1265.5781,space,1.1072,,1265.5782,41,59,1266.5781,1266.5782,1266.6617,space,0.0653,,0,49,49,49,1,25,125,,,,,,,,
,,60a0dfc6f9936b0d30dfea15,65af578aca620457d06d5905,2024-01-23_08h08.14.064,bars,2023.2.3,Win32,59.88023952,657b66ea316d21385b68909f,,,,,,,,,,,,,,,,,,,,,,,,,,,,,,,,,,,,,,,,,,,,,,,,,,,,,,,,,,,,,,,,,,,,,,,,,,,,,,,,,,,,,,,,,,,,,1266.6627,1326.6659,0,0,0,3,1,sequence_tables/blk037.csv
,,60a0dfc6f9936b0d30dfea15,65af578aca620457d06d5905,2024-01-23_08h08.14.064,bars,2023.2.3,Win32,59.88023952,657b66ea316d21385b68909f,,,,,,,,,,,1329.5195,1330.5152,,,1331.0155,1331.2656,,111,111,,,,,,,,,,,,,,,,bars/001.png,bars/mask001.png,,,,,,,,,,,,0,1,,,,,,,1,9,1,9,,,,,,1326.6734,1329.5158,space,2.8337,,1330.5153,1331.0155,1331.2656,1334.2162,space,2.9343,,1334.2163,19,26,1335.2156,1335.2156,1335.2234,,,,0,0,0,0,1,130,85,,,,,,,,
,,60a0dfc6f9936b0d30dfea15,65af578aca620457d06d5905,2024-01-23_08h08.14.064,bars,2023.2.3,Win32,59.88023952,657b66ea316d21385b68909f,,,,,,,,,,,1335.2237,1336.2157,,,1336.7161,1336.9659,,153,-27,,,,,,,,,,,,,,,,bars/004.png,bars/mask006.png,,,,,,,,,,,,1,2,,,,,,,0,10,1,10,,,,,,,,,,,1336.2158,1336.7161,1336.9659,1341.2328,space,4.2503,,1341.2328,52,28,1342.2326,1342.2326,1342.2412,,,,0,1,1,1,1,25,125,,,,,,,,
,,60a0dfc6f9936b0d30dfea15,65af578aca620457d06d5905,2024-01-23_08h08.14.064,bars,2023.2.3,Win32,59.88023952,657b66ea316d21385b68909f,,,,,,,,,,,1342.2414,1343.2326,,,1343.7329,1343.9835,,74,74,,,,,,,,,,,,,,,,bars/030.png,bars/mask002.png,,,,,,,,,,,,6,2,,,,,,,0,8,0,8,,,,,,,,,,,1343.2326,1343.7329,1343.9836,1345.9496,space,1.9499,,1345.9496,66,9,1346.9501,1346.9501,1346.9583,,,,0,2,2,2,1,140,65,,,,,,,,
,,60a0dfc6f9936b0d30dfea15,65af578aca620457d06d5905,2024-01-23_08h08.14.064,bars,2023.2.3,Win32,59.88023952,657b66ea316d21385b68909f,,,,,,,,,,,1346.9584,1347.9493,,,1348.4493,1348.6994,,98,98,,,,,,,,,,,,,,,,bars/011.png,bars/mask006.png,,,,,,,,,,,,5,2,,,,,,,2,10,1,9,,,,,,,,,,,1347.9493,1348.4493,1348.6995,1351.4667,space,2.7507,,1351.4667,62,13,1352.4662,1352.4663,1352.4743,,,,0,3,3,3,1,160,85,,,,,,,,
,,60a0dfc6f9936b0d30dfea15,65af578aca620457d06d5905,2024-01-23_08h08.14.064,bars,2023.2.3,Win32,59.88023952,657b66ea316d21385b68909f,,,,,,,,,,,1352.4745,1353.4661,,,1353.9665,1354.2166,,168,168,,,,,,,,,,,,,,,,bars/044.png,bars/mask007.png,,,,,,,,,,,,6,2,,,,,,,0,10,0,10,,,,,,,,,,,1353.4661,1353.9665,1354.2166,1355.8509,space,1.6178,,1355.8509,87,13,1356.8498,1356.8498,1356.8504,,,,0,4,4,4,1,75,155,,,,,,,,
,,60a0dfc6f9936b0d30dfea15,65af578aca620457d06d5905,2024-01-23_08h08.14.064,bars,2023.2.3,Win32,59.88023952,657b66ea316d21385b68909f,,,,,,,,,,,1356.8505,1357.8496,,,1358.3499,1358.5998,,109,109,,,,,,,,,,,,,,,,bars/041.png,bars/mask007.png,,,,,,,,,,,,2,2,,,,,,,0,10,1,9,,,,,,,,,,,1357.8496,1358.3499,1358.5998,1361.6669,space,3.0505,,1361.6669,89,24,1362.6666,1362.6667,1362.6752,,,,0,5,5,5,1,20,85,,,,,,,,
,,60a0dfc6f9936b0d30dfea15,65af578aca620457d06d5905,2024-01-23_08h08.14.064,bars,2023.2.3,Win32,59.88023952,657b66ea316d21385b68909f,,,,,,,,,,,1362.6754,1363.6664,,,1364.1667,1364.4173,,148,148,,,,,,,,,,,,,,,,bars/015.png,bars/mask009.png,,,,,,,,,,,,5,2,,,,,,,2,10,2,9,,,,,,,,,,,1363.6664,1364.1667,1364.4173,1368.2672,space,3.8337,,1368.2673,38,12,1369.2667,1369.2668,1369.2744,,,,0,6,6,6,1,110,160,,,,,,,,
,,60a0dfc6f9936b0d30dfea15,65af578aca620457d06d5905,2024-01-23_08h08.14.064,bars,2023.2.3,Win32,59.88023952,657b66ea316d21385b68909f,,,,,,,,,,,1369.2746,1370.2669,,,1370.7671,1371.0169,,159,159,,,,,,,,,,,,,,,,bars/015.png,bars/mask004.png,,,,,,,,,,,,8,2,,,,,,,0,8,0,8,,,,,,,,,,,1370.2669,1370.767,1371.0169,1372.7173,space,1.6838,,1372.7175,49,1,1373.7169,1373.7169,1373.7242,,,,0,7,7,7,1,110,160,,,,,,,,
,,60a0dfc6f9936b0d30dfea15,65af578aca620457d06d5905,2024-01-23_08h08.14.064,bars,2023.2.3,Win32,59.88023952,657b66ea316d21385b68909f,,,,,,,,,,,1373.7245,1374.717,,,1375.2173,1375.4672,,44,44,,,,,,,,,,,,,,,,bars/031.png,bars/mask006.png,,,,,,,,,,,,6,2,,,,,,,0,10,0,9,,,,,,,,,,,1374.717,1375.2173,1375.4673,1376.784,space,1.3,,1376.784,76,9,1377.7842,1377.7842,1377.7919,,,,0,8,8,8,1,120,35,,,,,,,,
,,60a0dfc6f9936b0d30dfea15,65af578aca620457d06d5905,2024-01-23_08h08.14.064,bars,2023.2.3,Win32,59.88023952,657b66ea316d21385b68909f,,,,,,,,,,,1377.7921,1378.7841,,,1379.284,1379.534,,120,120,,,,,,,,,,,,,,,,bars/037.png,bars/mask008.png,,,,,,,,,,,,5,2,,,,,,,2,10,3,10,,,,,,,,,,,1378.7841,1379.2839,1379.534,1381.3676,space,1.8172,,1381.3677,30,15,1382.3673,1382.3673,1382.3747,,,,0,9,9,9,1,150,105,,,,,,,,
,,60a0dfc6f9936b0d30dfea15,65af578aca620457d06d5905,2024-01-23_08h08.14.064,bars,2023.2.3,Win32,59.88023952,657b66ea316d21385b68909f,,,,,,,,,,,1382.3748,1383.3674,,,1383.868,1384.1176,,107,107,,,,,,,,,,,,,,,,bars/011.png,bars/mask009.png,,,,,,,,,,,,3,2,,,,,,,4,10,4,10,,,,,,,,,,,1383.3674,1383.8679,1384.1176,1387.4343,space,3.3002,,1387.4343,53,22,1388.4346,1388.4346,1388.4422,,,,0,10,10,10,1,160,85,,,,,,,,
,,60a0dfc6f9936b0d30dfea15,65af578aca620457d06d5905,2024-01-23_08h08.14.064,bars,2023.2.3,Win32,59.88023952,657b66ea316d21385b68909f,,,,,,,,,,,1388.4423,1389.4344,,,1389.9345,1390.1842,,96,96,,,,,,,,,,,,,,,,bars/018.png,bars/mask001.png,,,,,,,,,,,,8,2,,,,,,,2,10,3,10,,,,,,,,,,,1389.4344,1389.9345,1390.1842,1392.802,space,2.6013,,1392.802,54,6,1393.8013,1393.8013,1393.809,,,,0,11,11,11,1,150,90,,,,,,,,
,,60a0dfc6f9936b0d30dfea15,65af578aca620457d06d5905,2024-01-23_08h08.14.064,bars,2023.2.3,Win32,59.88023952,657b66ea316d21385b68909f,,,,,,,,,,,1393.8092,1394.8016,,,1395.3014,1395.551,,74,74,,,,,,,,,,,,,,,,bars/047.png,bars/mask004.png,,,,,,,,,,,,7,2,,,,,,,4,8,4,8,,,,,,,,,,,1394.8016,1395.3014,1395.551,1397.0515,space,1.4839,,1397.0516,59,4,1398.0509,1398.0509,1398.0587,,,,0,12,12,12,1,15,70,,,,,,,,
,,60a0dfc6f9936b0d30dfea15,65af578aca620457d06d5905,2024-01-23_08h08.14.064,bars,2023.2.3,Win32,59.88023952,657b66ea316d21385b68909f,,,,,,,,,,,1398.0589,1399.051,,,1399.5513,1399.8017,,116,116,,,,,,,,,,,,,,,,bars/004.png,bars/mask008.png,,,,,,,,,,,,6,2,,,,,,,2,10,2,9,,,,,,,,,,,1399.051,1399.5513,1399.8017,1402.0351,space,2.2171,,1402.0351,89,9,1403.0345,1403.0347,1403.0421,,,,0,13,13,13,1,25,125,,,,,,,,
,,60a0dfc6f9936b0d30dfea15,65af578aca620457d06d5905,2024-01-23_08h08.14.064,bars,2023.2.3,Win32,59.88023952,657b66ea316d21385b68909f,,,,,,,,,,,1403.0423,1404.0346,,,1404.5349,1404.785,,101,101,,,,,,,,,,,,,,,,bars/009.png,bars/mask007.png,,,,,,,,,,,,9,2,,,,,,,4,10,5,10,,,,,,,,,,,1404.0346,1404.5348,1404.785,1408.1851,space,3.3836,,1408.1851,86,4,1409.1851,1409.1851,1409.1924,,,,0,14,14,14,1,15,105,,,,,,,,
,,60a0dfc6f9936b0d30dfea15,65af578aca620457d06d5905,2024-01-23_08h08.14.064,bars,2023.2.3,Win32,59.88023952,657b66ea316d21385b68909f,,,,,,,,,,,1409.1926,1410.1849,,,1410.6852,1410.935,,97,97,,,,,,,,,,,,,,,,bars/021.png,bars/mask002.png,,,,,,,,,,,,1,2,,,,,,,6,8,6,9,,,,,,,,,,,1410.1849,1410.6852,1410.935,1412.5023,space,1.5508,,1412.5024,58,27,1413.502,1413.502,1413.5025,,,,0,15,15,15,1,155,70,,,,,,,,
,,60a0dfc6f9936b0d30dfea15,65af578aca620457d06d5905,2024-01-23_08h08.14.064,bars,2023.2.3,Win32,59.88023952,657b66ea316d21385b68909f,,,,,,,,,,,1413.5027,1414.5016,,,1415.002,1415.2525,,120,120,,,,,,,,,,,,,,,,bars/028.png,bars/mask000.png,,,,,,,,,,,,7,2,,,,,,,4,6,3,7,,,,,,,,,,,1414.5016,1415.0019,1415.2525,1417.2688,space,2.0004,,1417.2688,75,0,1418.2685,1418.2686,1418.2758,,,,0,16,16,16,1,45,120,,,,,,,,
,,60a0dfc6f9936b0d30dfea15,65af578aca620457d06d5905,2024-01-23_08h08.14.064,bars,2023.2.3,Win32,59.88023952,657b66ea316d21385b68909f,,,,,,,,,,,1418.2759,1419.2686,,,1419.7695,1420.0189,,3,183,,,,,,,,,,,,,,,,bars/040.png,bars/mask003.png,,,,,,,,,,,,6,2,,,,,,,6,4,7,6,,,,,,,,,,,1419.2686,1419.7695,1420.019,1423.4862,space,3.4509,,1423.4862,43,2,1424.4853,1424.4853,1424.4929,,,,0,17,17,17,1,140,5,,,,,,,,
,,60a0dfc6f9936b0d30dfea15,65af578aca620457d06d5905,2024-01-23_08h08.14.064,bars,2023.2.3,Win32,59.88023952,657b66ea316d21385b68909f,,,,,,,,,,,1424.4931,1425.4854,,,1425.9856,1426.2358,,70,70,,,,,,,,,,,,,,,,bars/018.png,bars/mask005.png,,,,,,,,,,,,1,2,,,,,,,8,2,8,2,,,,,,,,,,,1425.4855,1425.9856,1426.2358,1428.2201,space,1.9674,,1428.2201,80,20,1429.219,1429.2191,1429.2196,,,,0,18,18,18,1,150,90,,,,,,,,
,,60a0dfc6f9936b0d30dfea15,65af578aca620457d06d5905,2024-01-23_08h08.14.064,bars,2023.2.3,Win32,59.88023952,657b66ea316d21385b68909f,,,,,,,,,,,1429.2197,1430.219,,,1430.7192,1430.9697,,166,166,,,,,,,,,,,,,,,,bars/048.png,bars/mask004.png,,,,,,,,,,,,2,2,,,,,,,10,4,10,3,,,,,,,,,,,1430.219,1430.7192,1430.9698,1435.1363,space,4.1507,,1435.1364,64,9,1436.1358,1436.1359,1436.1434,,,,0,19,19,19,1,50,175,,,,,,,,
,,60a0dfc6f9936b0d30dfea15,65af578aca620457d06d5905,2024-01-23_08h08.14.064,bars,2023.2.3,Win32,59.88023952,657b66ea316d21385b68909f,,,,,,,,,,,1436.1435,1437.1365,,,1437.6362,1437.8861,,145,145,,,,,,,,,,,,,,,,bars/015.png,bars/mask008.png,,,,,,,,,,,,3,2,,,,,,,10,6,10,6,,,,,,,,,,,1437.1366,1437.6362,1437.8861,1440.3698,space,2.467,,1440.3698,35,15,1441.3694,1441.3694,1441.3773,,,,0,20,20,20,1,110,160,,,,,,,,
,,60a0dfc6f9936b0d30dfea15,65af578aca620457d06d5905,2024-01-23_08h08.14.064,bars,2023.2.3,Win32,59.88023952,657b66ea316d21385b68909f,,,,,,,,,,,1441.3775,1442.3696,,,1442.8701,1443.1197,,82,82,,,,,,,,,,,,,,,,bars/001.png,bars/mask007.png,,,,,,,,,,,,4,2,,,,,,,10,4,9,4,,,,,,,,,,,1442.3697,1442.87,1443.1197,1446.8202,space,3.684,,1446.8202,48,3,1447.8203,1447.8203,1447.8377,,,,0,21,21,21,1,130,85,,,,,,,,
,,60a0dfc6f9936b0d30dfea15,65af578aca620457d06d5905,2024-01-23_08h08.14.064,bars,2023.2.3,Win32,59.88023952,657b66ea316d21385b68909f,,,,,,,,,,,1447.8381,1448.8345,,,1449.3347,1449.5847,,97,97,,,,,,,,,,,,,,,,bars/023.png,bars/mask008.png,,,,,,,,,,,,3,2,,,,,,,10,6,10,7,,,,,,,,,,,1448.8345,1449.3347,1449.5848,1452.5017,space,2.9109,,1452.5017,77,18,1453.5013,1453.5013,1453.5095,,,,0,22,22,22,1,20,115,,,,,,,,
,,60a0dfc6f9936b0d30dfea15,65af578aca620457d06d5905,2024-01-23_08h08.14.064,bars,2023.2.3,Win32,59.88023952,657b66ea316d21385b68909f,,,,,,,,,,,1453.5096,1454.5014,,,1455.0015,1455.2516,,7,187,,,,,,,,,,,,,,,,bars/048.png,bars/mask006.png,,,,,,,,,,,,2,2,,,,,,,8,4,7,4,,,,,,,,,,,1454.5014,1455.0015,1455.2516,1457.9351,space,2.6542,,1457.9352,43,12,1458.935,1458.9351,1458.9523,,,,0,23,23,23,1,50,175,,,,,,,,
,,60a0dfc6f9936b0d30dfea15,65af578aca620457d06d5905,2024-01-23_08h08.14.064,bars,2023.2.3,Win32,59.88023952,657b66ea316d21385b68909f,,,,,,,,,,,1458.9527,1459.9518,,,1460.4519,1460.7037,,38,218,,,,,,,,,,,,,,,,bars/010.png,bars/mask000.png,,,,,,,,,,,,3,2,,,,,,,6,6,6,6,,,,,,,,,,,1459.9518,1460.4519,1460.7038,1463.2703,space,2.5502,,1463.2703,53,17,1464.2683,1464.2684,1464.2759,,,,0,24,24,24,1,165,55,,,,,,,,
,,60a0dfc6f9936b0d30dfea15,65af578aca620457d06d5905,2024-01-23_08h08.14.064,bars,2023.2.3,Win32,59.88023952,657b66ea316d21385b68909f,,,,,,,,,,,1464.2761,1465.2685,,,1465.7687,1466.0185,,108,108,,,,,,,,,,,,,,,,bars/006.png,bars/mask007.png,,,,,,,,,,,,6,2,,,,,,,4,8,4,8,,,,,,,,,,,1465.2686,1465.7686,1466.0185,1468.0855,space,2.0448,,1468.0856,73,8,1469.0853,1469.0853,1469.0936,,,,0,25,25,25,1,35,100,,,,,,,,
,,60a0dfc6f9936b0d30dfea15,65af578aca620457d06d5905,2024-01-23_08h08.14.064,bars,2023.2.3,Win32,59.88023952,657b66ea316d21385b68909f,,,,,,,,,,,1469.0937,1470.0872,,,1470.5854,1470.8355,,68,68,,,,,,,,,,,,,,,,bars/042.png,bars/mask002.png,,,,,,,,,,,,5,2,,,,,,,6,6,4,6,,,,,,,,,,,1470.0873,1470.5854,1470.8355,1474.2212,space,3.3673,,1474.2213,77,7,1475.2189,1475.219,1475.2269,,,,0,26,26,26,1,145,75,,,,,,,,
,,60a0dfc6f9936b0d30dfea15,65af578aca620457d06d5905,2024-01-23_08h08.14.064,bars,2023.2.3,Win32,59.88023952,657b66ea316d21385b68909f,,,,,,,,,,,1475.2271,1476.2189,,,1476.719,1476.9687,,115,115,,,,,,,,,,,,,,,,bars/028.png,bars/mask002.png,,,,,,,,,,,,7,2,,,,,,,4,8,3,8,,,,,,,,,,,1476.2189,1476.719,1476.9688,1478.0025,space,1.0148,,1478.0026,70,5,1479.0024,1479.0025,1479.0033,,,,0,27,27,27,1,45,120,,,,,,,,
,,60a0dfc6f9936b0d30dfea15,65af578aca620457d06d5905,2024-01-23_08h08.14.064,bars,2023.2.3,Win32,59.88023952,657b66ea316d21385b68909f,,,,,,,,,,,1479.0036,1480.0025,,,1480.5025,1480.7525,,149,-31,,,,,,,,,,,,,,,,bars/015.png,bars/mask008.png,,,,,,,,,,,,3,2,,,,,,,6,6,7,5,,,,,,,,,,,1480.0025,1480.5025,1480.7525,1484.4859,space,3.7103,,1484.486,39,11,1485.4861,1485.4861,1485.5032,,,,0,28,28,28,1,110,160,,,,,,,,
,,60a0dfc6f9936b0d30dfea15,65af578aca620457d06d5905,2024-01-23_08h08.14.064,bars,2023.2.3,Win32,59.88023952,657b66ea316d21385b68909f,,,,,,,,,,,1485.5035,1486.5027,,,1487.0027,1487.2553,,164,164,,,,,,,,,,,,,,,,bars/024.png,bars/mask001.png,,,,,,,,,,,,7,2,,,,,,,4,8,5,9,,,,,,,,,,,1486.5028,1487.0027,1487.2553,1490.7553,space,3.4841,,1490.7553,44,6,1491.7528,1491.7528,1491.767,,,,0,29,29,29,1,120,170,,,,,,,,
,,60a0dfc6f9936b0d30dfea15,65af578aca620457d06d5905,2024-01-23_08h08.14.064,bars,2023.2.3,Win32,59.88023952,657b66ea316d21385b68909f,,,,,,,,,,,1491.7672,1492.7546,,,1493.2547,1493.5029,,37,37,,,,,,,,,,,,,,,,bars/025.png,bars/mask007.png,,,,,,,,,,,,5,2,,,,,,,6,6,5,5,,,,,,,,,,,1492.7547,1493.2547,1493.503,1494.853,space,1.3437,,1494.853,68,3,1495.853,1495.8531,1495.8539,,,,0,30,30,30,1,105,40,,,,,,,,
,,60a0dfc6f9936b0d30dfea15,65af578aca620457d06d5905,2024-01-23_08h08.14.064,bars,2023.2.3,Win32,59.88023952,657b66ea316d21385b68909f,,,,,,,,,,,1495.8541,1496.8528,,,1497.3533,1497.603,,48,48,,,,,,,,,,,,,,,,bars/027.png,bars/mask003.png,,,,,,,,,,,,9,2,,,,,,,4,8,3,10,,,,,,,,,,,1496.8528,1497.3532,1497.6031,1498.8532,space,1.2283,,1498.8533,62,2,1499.8532,1499.8532,1499.854,,,,0,31,31,31,1,110,50,,,,,,,,
,,60a0dfc6f9936b0d30dfea15,65af578aca620457d06d5905,2024-01-23_08h08.14.064,bars,2023.2.3,Win32,59.88023952,657b66ea316d21385b68909f,,,,,,,,,,,1499.8543,1500.8531,,,1501.3553,1501.6032,,127,-53,,,,,,,,,,,,,,,,bars/028.png,bars/mask008.png,,,,,,,,,,,,5,2,,,,,,,2,6,4,7,,,,,,,,,,,1500.8531,1501.3552,1501.6033,1504.52,space,2.8837,,1504.52,82,7,1505.52,1505.52,1505.5281,,,,0,32,32,32,1,45,120,,,,,,,,
,,60a0dfc6f9936b0d30dfea15,65af578aca620457d06d5905,2024-01-23_08h08.14.064,bars,2023.2.3,Win32,59.88023952,657b66ea316d21385b68909f,,,,,,,,,,,1505.5282,1506.5199,,,1507.0201,1507.27,,64,64,,,,,,,,,,,,,,,,bars/046.png,bars/mask002.png,,,,,,,,,,,,2,2,,,,,,,0,8,0,8,,,,,,,,,,,1506.5199,1507.0201,1507.27,1508.6203,space,1.3214,,1508.6204,89,21,1509.6202,1509.6202,1509.6211,,,,0,33,33,33,1,155,85,,,,,,,,
,,60a0dfc6f9936b0d30dfea15,65af578aca620457d06d5905,2024-01-23_08h08.14.064,bars,2023.2.3,Win32,59.88023952,657b66ea316d21385b68909f,,,,,,,,,,,1509.6214,1510.6202,,,1511.1203,1511.3702,,6,186,,,,,,,,,,,,,,,,bars/014.png,bars/mask009.png,,,,,,,,,,,,6,2,,,,,,,2,6,2,7,,,,,,,,,,,1510.6203,1511.1203,1511.3702,1514.8391,space,3.4504,,1514.8391,74,6,1515.8369,1515.837,1515.8451,,,,0,34,34,34,1,80,0,,,,,,,,
,,60a0dfc6f9936b0d30dfea15,65af578aca620457d06d5905,2024-01-23_08h08.14.064,bars,2023.2.3,Win32,59.88023952,657b66ea316d21385b68909f,,,,,,,,,,,1515.8453,1516.8372,,,1517.337,1517.5868,,55,55,,,,,,,,,,,,,,,,bars/002.png,bars/mask004.png,,,,,,,,,,,,0,2,,,,,,,0,4,1,4,,,,,,,,,,,1516.8372,1517.3369,1517.5869,1522.7401,space,5.1344,,1522.7402,75,30,1523.7373,1523.7373,1523.7542,,,,0,35,35,35,1,130,85,,,,,,,,
,,60a0dfc6f9936b0d30dfea15,65af578aca620457d06d5905,2024-01-23_08h08.14.064,bars,2023.2.3,Win32,59.88023952,657b66ea316d21385b68909f,,,,,,,,,,,1523.7545,1524.754,,,1525.254,1525.5059,,73,73,,,,,,,,,,,,,,,,bars/046.png,bars/mask008.png,,,,,,,,,,,,2,2,,,,,,,0,6,0,4,,,,,,,,,,,1524.7541,1525.254,1525.5059,1529.9224,space,4.4,,1529.9224,82,12,1530.9206,1530.9207,1530.9283,,,,0,36,36,36,1,155,85,,,,,,,,
,,60a0dfc6f9936b0d30dfea15,65af578aca620457d06d5905,2024-01-23_08h08.14.064,bars,2023.2.3,Win32,59.88023952,657b66ea316d21385b68909f,,,,,,,,,,,1530.9286,1531.9232,,,1532.4209,1532.6708,,150,-30,,,,,,,,,,,,,,,,bars/044.png,bars/mask001.png,,,,,,,,,,,,4,2,,,,,,,2,4,2,5,,,,,,,,,,,1531.9232,1532.4209,1532.6709,1537.341,space,4.6514,,1537.341,75,5,1538.3378,1538.3379,1538.3555,,,,0,37,37,37,1,75,155,,,,,,,,
,,60a0dfc6f9936b0d30dfea15,65af578aca620457d06d5905,2024-01-23_08h08.14.064,bars,2023.2.3,Win32,59.88023952,657b66ea316d21385b68909f,,,,,,,,,,,1538.3559,1539.3544,,,1539.8546,1540.1046,,75,75,,,,,,,,,,,,,,,,bars/038.png,bars/mask007.png,,,,,,,,,,,,5,2,,,,,,,4,6,5,6,,,,,,,,,,,1539.3545,1539.8545,1540.1046,1544.0215,space,3.9024,,1544.0216,90,5,1545.0214,1545.0214,1545.029,,,,0,38,38,38,1,165,70,,,,,,,,
,,60a0dfc6f9936b0d30dfea15,65af578aca620457d06d5905,2024-01-23_08h08.14.064,bars,2023.2.3,Win32,59.88023952,657b66ea316d21385b68909f,,,,,,,,,,,1545.0292,1546.0216,,,1546.5215,1546.7715,,110,110,,,,,,,,,,,,,,,,bars/006.png,bars/mask003.png,,,,,,,,,,,,5,2,,,,,,,2,8,1,8,,,,,,,,,,,1546.0217,1546.5215,1546.7715,1550.1386,space,3.3633,,1550.1386,75,10,1551.1395,1551.1395,1551.1562,,,,0,39,39,39,1,35,100,,,,,,,,
,,60a0dfc6f9936b0d30dfea15,65af578aca620457d06d5905,2024-01-23_08h08.14.064,bars,2023.2.3,Win32,59.88023952,657b66ea316d21385b68909f,,,,,,,,,,,1551.1565,1552.1552,,,1552.6562,1552.905,,127,127,,,,,,,,,,,,,,,,bars/004.png,bars/mask003.png,,,,,,,,,,,,9,2,,,,,,,0,10,0,10,,,,,,,,,,,1552.1552,1552.6562,1552.905,1555.8399,space,2.9167,,1555.8399,78,2,1556.8383,1556.8384,1556.8467,,,,0,40,40,40,1,25,125,,,,,,,,
,,60a0dfc6f9936b0d30dfea15,65af578aca620457d06d5905,2024-01-23_08h08.14.064,bars,2023.2.3,Win32,59.88023952,657b66ea316d21385b68909f,,,,,,,,,,,1556.8469,1557.8385,,,1558.3387,1558.5886,,131,131,,,,,,,,,,,,,,,,bars/028.png,bars/mask009.png,,,,,,,,,,,,6,2,,,,,,,0,8,1,10,,,,,,,,,,,1557.8385,1558.3387,1558.5887,1560.7575,space,2.1503,,1560.7576,86,11,1561.7555,1561.7555,1561.7726,,,,0,41,41,41,1,45,120,,,,,,,,
,,60a0dfc6f9936b0d30dfea15,65af578aca620457d06d5905,2024-01-23_08h08.14.064,bars,2023.2.3,Win32,59.88023952,657b66ea316d21385b68909f,,,,,,,,,,,1561.7731,1562.7721,,,1563.2719,1563.5242,,12,12,,,,,,,,,,,,,,,,bars/012.png,bars/mask008.png,,,,,,,,,,,,9,2,,,,,,,0,10,0,10,,,,,,,,,,,1562.7721,1563.2719,1563.5242,1565.4724,space,1.9181,,1565.4725,78,3,1566.4723,1566.4723,1566.4732,,,,0,42,42,42,1,90,15,,,,,,,,
,,60a0dfc6f9936b0d30dfea15,65af578aca620457d06d5905,2024-01-23_08h08.14.064,bars,2023.2.3,Win32,59.88023952,657b66ea316d21385b68909f,,,,,,,,,,,1566.4735,1567.4722,,,1567.9724,1568.2223,,106,106,,,,,,,,,,,,,,,,bars/019.png,bars/mask002.png,,,,,,,,,,,,10,2,,,,,,,2,10,2,10,,,,,,,,,,,1567.4722,1567.9723,1568.2223,1569.2892,space,1.0346,,1569.2892,61,1,1570.291,1570.2911,1570.2919,,,,0,43,43,43,1,45,105,,,,,,,,
,,60a0dfc6f9936b0d30dfea15,65af578aca620457d06d5905,2024-01-23_08h08.14.064,bars,2023.2.3,Win32,59.88023952,657b66ea316d21385b68909f,,,,,,,,,,,1570.2923,1571.2889,,,1571.7889,1572.039,,111,-69,,,,,,,,,,,,,,,,bars/009.png,bars/mask008.png,,,,,,,,,,,,7,2,,,,,,,0,8,1,9,,,,,,,,,,,1571.2889,1571.7889,1572.039,1575.3415,space,3.2841,,1575.3415,84,6,1576.3391,1576.3391,1576.3466,,,,0,44,44,44,1,15,105,,,,,,,,
,,60a0dfc6f9936b0d30dfea15,65af578aca620457d06d5905,2024-01-23_08h08.14.064,bars,2023.2.3,Win32,59.88023952,657b66ea316d21385b68909f,,,,,,,,,,,1576.3467,1577.3393,,,1577.8394,1578.0893,,8,8,,,,,,,,,,,,,,,,bars/045.png,bars/mask006.png,,,,,,,,,,,,9,2,,,,,,,0,10,0,10,,,,,,,,,,,1577.3394,1577.8394,1578.0894,1581.9397,space,3.8452,,1581.9397,88,2,1582.9395,1582.9396,1582.9564,,,,0,45,45,45,1,100,10,,,,,,,,
,,60a0dfc6f9936b0d30dfea15,65af578aca620457d06d5905,2024-01-23_08h08.14.064,bars,2023.2.3,Win32,59.88023952,657b66ea316d21385b68909f,,,,,,,,,,,1582.9567,1583.9562,,,1584.4562,1584.7063,,45,45,,,,,,,,,,,,,,,,bars/025.png,bars/mask005.png,,,,,,,,,,,,8,2,,,,,,,0,10,0,10,,,,,,,,,,,1583.9562,1584.4562,1584.7063,1586.4736,space,1.7486,,1586.4736,60,5,1587.473,1587.473,1587.4898,,,,0,46,46,46,1,105,40,,,,,,,,
,,60a0dfc6f9936b0d30dfea15,65af578aca620457d06d5905,2024-01-23_08h08.14.064,bars,2023.2.3,Win32,59.88023952,657b66ea316d21385b68909f,,,,,,,,,,,1587.4902,1588.4915,,,1588.9897,1589.2397,,65,65,,,,,,,,,,,,,,,,bars/011.png,bars/mask004.png,,,,,,,,,,,,3,2,,,,,,,0,8,0,8,,,,,,,,,,,1588.4915,1588.9897,1589.2397,1593.0425,space,3.7845,,1593.0426,85,20,1594.0398,1594.0399,1594.0567,,,,0,47,47,47,1,160,85,,,,,,,,
,,60a0dfc6f9936b0d30dfea15,65af578aca620457d06d5905,2024-01-23_08h08.14.064,bars,2023.2.3,Win32,59.88023952,657b66ea316d21385b68909f,,,,,,,,,,,1594.057,1595.0583,,,1595.5565,1595.8067,,119,119,,,,,,,,,,,,,,,,bars/028.png,bars/mask004.png,,,,,,,,,,,,7,2,,,,,,,0,6,0,7,,,,,,,,,,,1595.0584,1595.5564,1595.8067,1597.6236,space,1.7855,,1597.6236,74,1,1598.6232,1598.6232,1598.6325,,,,0,48,48,48,1,45,120,,,,,,,,
,,60a0dfc6f9936b0d30dfea15,65af578aca620457d06d5905,2024-01-23_08h08.14.064,bars,2023.2.3,Win32,59.88023952,657b66ea316d21385b68909f,,,,,,,,,,,1598.6327,1599.6234,,,1600.1235,1600.3733,,121,121,,,,,,,,,,,,,,,,bars/046.png,bars/mask006.png,,,,,,,,,,,,0,1,,,,,,,2,4,3,5,,,,,,,,,,,1599.6234,1600.1235,1600.3734,1601.157,space,0.7533,,1601.1571,34,36,1602.157,1602.157,1602.1598,,,,0,49,49,49,1,155,85,,,,,,,,
,,60a0dfc6f9936b0d30dfea15,65af578aca620457d06d5905,2024-01-23_08h08.14.064,bars,2023.2.3,Win32,59.88023952,657b66ea316d21385b68909f,,,,,,,,,,,,,,,,,,,,,,,,,,,,,,,,,,,,,,,,,,,,,,,,,,,,,,,,,,,,,,,,,,,,,,,,,,,,,,,,,,,,,,,,,,,,,1602.16,1662.1591,0,1,1,2,1,sequence_tables/blk003.csv
,,60a0dfc6f9936b0d30dfea15,65af578aca620457d06d5905,2024-01-23_08h08.14.064,bars,2023.2.3,Win32,59.88023952,657b66ea316d21385b68909f,,,,,,,,,,,1663.9842,1664.9758,,,1665.4758,1665.7272,,69,69,,,,,,,,,,,,,,,,bars/042.png,bars/mask000.png,,,,,,,,,,,,2,2,,,,,,,5,5,5,2,,,,,,1662.1764,1663.9758,space,1.7885,,1664.9758,1665.4757,1665.7273,1667.4949,space,1.7511,,1667.495,76,6,1668.4926,1668.4926,1668.511,,,,0,0,0,0,1,145,75,,,,,,,,
,,60a0dfc6f9936b0d30dfea15,65af578aca620457d06d5905,2024-01-23_08h08.14.064,bars,2023.2.3,Win32,59.88023952,657b66ea316d21385b68909f,,,,,,,,,,,1668.5113,1669.5094,,,1670.0094,1670.2593,,56,56,,,,,,,,,,,,,,,,bars/034.png,bars/mask005.png,,,,,,,,,,,,3,2,,,,,,,7,3,8,4,,,,,,,,,,,1669.5094,1670.0093,1670.2593,1672.0786,space,1.8007,,1672.0787,69,9,1673.0761,1673.0762,1673.0909,,,,0,1,1,1,1,125,65,,,,,,,,
,,60a0dfc6f9936b0d30dfea15,65af578aca620457d06d5905,2024-01-23_08h08.14.064,bars,2023.2.3,Win32,59.88023952,657b66ea316d21385b68909f,,,,,,,,,,,1673.0912,1674.0928,,,1674.5928,1674.8428,,37,37,,,,,,,,,,,,,,,,bars/031.png,bars/mask006.png,,,,,,,,,,,,6,2,,,,,,,5,5,4,6,,,,,,,,,,,1674.0928,1674.5927,1674.8428,1676.4262,space,1.5546,,1676.4262,83,2,1677.4262,1677.4263,1677.427,,,,0,2,2,2,1,120,35,,,,,,,,
,,60a0dfc6f9936b0d30dfea15,65af578aca620457d06d5905,2024-01-23_08h08.14.064,bars,2023.2.3,Win32,59.88023952,657b66ea316d21385b68909f,,,,,,,,,,,1677.4273,1678.4263,,,1678.9263,1679.1763,,123,123,,,,,,,,,,,,,,,,bars/028.png,bars/mask001.png,,,,,,,,,,,,6,2,,,,,,,7,7,7,7,,,,,,,,,,,1678.4263,1678.9263,1679.1763,1681.4765,space,2.2856,,1681.4765,78,3,1682.4764,1682.4764,1682.4932,,,,0,3,3,3,1,45,120,,,,,,,,
,,60a0dfc6f9936b0d30dfea15,65af578aca620457d06d5905,2024-01-23_08h08.14.064,bars,2023.2.3,Win32,59.88023952,657b66ea316d21385b68909f,,,,,,,,,,,1682.4935,1683.4932,,,1683.9932,1684.243,,47,47,,,,,,,,,,,,,,,,bars/007.png,bars/mask004.png,,,,,,,,,,,,3,2,,,,,,,5,5,6,4,,,,,,,,,,,1683.4932,1683.9932,1684.2431,1689.1128,space,4.8513,,1689.1128,52,8,1690.1101,1690.1101,1690.1273,,,,0,4,4,4,1,175,55,,,,,,,,
,,60a0dfc6f9936b0d30dfea15,65af578aca620457d06d5905,2024-01-23_08h08.14.064,bars,2023.2.3,Win32,59.88023952,657b66ea316d21385b68909f,,,,,,,,,,,1690.1276,1691.1267,,,1691.6268,1691.8768,,14,194,,,,,,,,,,,,,,,,bars/012.png,bars/mask009.png,,,,,,,,,,,,8,2,,,,,,,7,7,8,8,,,,,,,,,,,1691.1268,1691.6267,1691.8768,1693.4602,space,1.5527,,1693.4603,76,1,1694.4601,1694.4602,1694.4772,,,,0,5,5,5,1,90,15,,,,,,,,
,,60a0dfc6f9936b0d30dfea15,65af578aca620457d06d5905,2024-01-23_08h08.14.064,bars,2023.2.3,Win32,59.88023952,657b66ea316d21385b68909f,,,,,,,,,,,1694.4776,1695.4767,,,1695.9769,1696.227,,70,70,,,,,,,,,,,,,,,,bars/026.png,bars/mask002.png,,,,,,,,,,,,5,2,,,,,,,9,9,7,9,,,,,,,,,,,1695.4767,1695.9769,1696.227,1698.8272,space,2.5709,,1698.8273,35,15,1699.8271,1699.8271,1699.8439,,,,0,6,6,6,1,35,85,,,,,,,,
,,60a0dfc6f9936b0d30dfea15,65af578aca620457d06d5905,2024-01-23_08h08.14.064,bars,2023.2.3,Win32,59.88023952,657b66ea316d21385b68909f,,,,,,,,,,,1699.8442,1700.8437,,,1701.3453,1701.5959,,100,100,,,,,,,,,,,,,,,,bars/038.png,bars/mask004.png,,,,,,,,,,,,0,2,,,,,,,10,10,10,8,,,,,,,,,,,1700.8438,1701.3452,1701.596,1702.9959,space,1.3836,,1702.9959,65,30,1703.9936,1703.9936,1703.9943,,,,0,7,7,7,1,165,70,,,,,,,,
,,60a0dfc6f9936b0d30dfea15,65af578aca620457d06d5905,2024-01-23_08h08.14.064,bars,2023.2.3,Win32,59.88023952,657b66ea316d21385b68909f,,,,,,,,,,,1703.9945,1704.9937,,,1705.494,1705.7438,,8,188,,,,,,,,,,,,,,,,bars/032.png,bars/mask007.png,,,,,,,,,,,,6,2,,,,,,,10,10,10,10,,,,,,,,,,,1704.9937,1705.4939,1705.7438,1708.3466,space,2.5999,,1708.3466,63,12,1709.3439,1709.3439,1709.3515,,,,0,8,8,8,1,125,20,,,,,,,,
,,60a0dfc6f9936b0d30dfea15,65af578aca620457d06d5905,2024-01-23_08h08.14.064,bars,2023.2.3,Win32,59.88023952,657b66ea316d21385b68909f,,,,,,,,,,,1709.3517,1710.3441,,,1710.8442,1711.0942,,59,59,,,,,,,,,,,,,,,,bars/035.png,bars/mask005.png,,,,,,,,,,,,10,2,,,,,,,8,10,9,10,,,,,,,,,,,1710.3441,1710.8442,1711.0943,1712.5278,space,1.4015,,1712.5278,64,1,1713.5275,1713.5275,1713.5285,,,,0,9,9,9,1,175,60,,,,,,,,
,,60a0dfc6f9936b0d30dfea15,65af578aca620457d06d5905,2024-01-23_08h08.14.064,bars,2023.2.3,Win32,59.88023952,657b66ea316d21385b68909f,,,,,,,,,,,1713.5288,1714.5275,,,1715.0277,1715.2774,,109,109,,,,,,,,,,,,,,,,bars/026.png,bars/mask002.png,,,,,,,,,,,,1,2,,,,,,,6,8,7,7,,,,,,,,,,,1714.5275,1715.0277,1715.2774,1718.6612,space,3.36,,1718.6613,74,24,1719.6612,1719.6612,1719.6687,,,,0,10,10,10,1,35,85,,,,,,,,
,,60a0dfc6f9936b0d30dfea15,65af578aca620457d06d5905,2024-01-23_08h08.14.064,bars,2023.2.3,Win32,59.88023952,657b66ea316d21385b68909f,,,,,,,,,,,1719.669,1720.661,,,1721.1611,1721.4112,,129,-51,,,,,,,,,,,,,,,,bars/049.png,bars/mask005.png,,,,,,,,,,,,3,2,,,,,,,4,6,5,5,,,,,,,,,,,1720.661,1721.1611,1721.4113,1724.6633,space,3.2335,,1724.6634,31,14,1725.6613,1725.6614,1725.6786,,,,0,11,11,11,1,160,115,,,,,,,,
,,60a0dfc6f9936b0d30dfea15,65af578aca620457d06d5905,2024-01-23_08h08.14.064,bars,2023.2.3,Win32,59.88023952,657b66ea316d21385b68909f,,,,,,,,,,,1725.679,1726.6778,,,1727.1778,1727.4298,,37,37,,,,,,,,,,,,,,,,bars/025.png,bars/mask004.png,,,,,,,,,,,,3,2,,,,,,,6,4,6,3,,,,,,,,,,,1726.6778,1727.1778,1727.4298,1729.3613,space,1.9132,,1729.3614,68,3,1730.3613,1730.3613,1730.3619,,,,0,12,12,12,1,105,40,,,,,,,,
,,60a0dfc6f9936b0d30dfea15,65af578aca620457d06d5905,2024-01-23_08h08.14.064,bars,2023.2.3,Win32,59.88023952,657b66ea316d21385b68909f,,,,,,,,,,,1730.362,1731.3614,,,1731.8615,1732.1114,,142,142,,,,,,,,,,,,,,,,bars/004.png,bars/mask003.png,,,,,,,,,,,,3,2,,,,,,,8,6,6,6,,,,,,,,,,,1731.3614,1731.8614,1732.1114,1733.4282,space,1.2857,,1733.4283,63,17,1734.4282,1734.4283,1734.4291,,,,0,13,13,13,1,25,125,,,,,,,,
,,60a0dfc6f9936b0d30dfea15,65af578aca620457d06d5905,2024-01-23_08h08.14.064,bars,2023.2.3,Win32,59.88023952,657b66ea316d21385b68909f,,,,,,,,,,,1734.4294,1735.4281,,,1735.9285,1736.1784,,60,60,,,,,,,,,,,,,,,,bars/042.png,bars/mask003.png,,,,,,,,,,,,2,2,,,,,,,6,4,5,4,,,,,,,,,,,1735.4281,1735.9284,1736.1785,1738.0951,space,1.8838,,1738.0952,85,15,1739.0951,1739.0951,1739.1121,,,,0,14,14,14,1,145,75,,,,,,,,
,,60a0dfc6f9936b0d30dfea15,65af578aca620457d06d5905,2024-01-23_08h08.14.064,bars,2023.2.3,Win32,59.88023952,657b66ea316d21385b68909f,,,,,,,,,,,1739.1125,1740.1119,,,1740.6117,1740.8618,,117,117,,,,,,,,,,,,,,,,bars/039.png,bars/mask005.png,,,,,,,,,,,,1,2,,,,,,,4,2,3,2,,,,,,,,,,,1740.1119,1740.6116,1740.8618,1741.5951,space,0.7115,,1741.5952,58,12,1742.5951,1742.5951,1742.5956,,,,0,15,15,15,1,175,105,,,,,,,,
,,60a0dfc6f9936b0d30dfea15,65af578aca620457d06d5905,2024-01-23_08h08.14.064,bars,2023.2.3,Win32,59.88023952,657b66ea316d21385b68909f,,,,,,,,,,,1742.5959,1743.5952,,,1744.0954,1744.3454,,45,225,,,,,,,,,,,,,,,,bars/031.png,bars/mask008.png,,,,,,,,,,,,3,2,,,,,,,2,4,3,5,,,,,,,,,,,1743.5952,1744.0954,1744.3454,1747.6956,space,3.3242,,1747.6956,75,10,1748.6954,1748.6954,1748.7121,,,,0,16,16,16,1,120,35,,,,,,,,
,,60a0dfc6f9936b0d30dfea15,65af578aca620457d06d5905,2024-01-23_08h08.14.064,bars,2023.2.3,Win32,59.88023952,657b66ea316d21385b68909f,,,,,,,,,,,1748.7124,1749.7122,,,1750.2123,1750.4622,,120,-60,,,,,,,,,,,,,,,,bars/019.png,bars/mask009.png,,,,,,,,,,,,2,2,,,,,,,0,2,0,4,,,,,,,,,,,1749.7122,1750.2122,1750.4622,1754.7125,space,4.2311,,1754.7125,75,15,1755.7124,1755.7124,1755.7292,,,,0,17,17,17,1,45,105,,,,,,,,
,,60a0dfc6f9936b0d30dfea15,65af578aca620457d06d5905,2024-01-23_08h08.14.064,bars,2023.2.3,Win32,59.88023952,657b66ea316d21385b68909f,,,,,,,,,,,1755.7296,1756.729,,,1757.229,1757.4791,,60,60,,,,,,,,,,,,,,,,bars/042.png,bars/mask003.png,,,,,,,,,,,,1,2,,,,,,,0,0,2,1,,,,,,,,,,,1756.729,1757.229,1757.4791,1759.7479,space,2.2502,,1759.748,85,15,1760.7459,1760.7459,1760.763,,,,0,18,18,18,1,145,75,,,,,,,,
,,60a0dfc6f9936b0d30dfea15,65af578aca620457d06d5905,2024-01-23_08h08.14.064,bars,2023.2.3,Win32,59.88023952,657b66ea316d21385b68909f,,,,,,,,,,,1760.7634,1761.7626,,,1762.2648,1762.5126,,114,114,,,,,,,,,,,,,,,,bars/041.png,bars/mask004.png,,,,,,,,,,,,0,2,,,,,,,0,0,1,0,,,,,,,,,,,1761.7626,1762.2648,1762.5127,1763.9629,space,1.4207,,1763.9629,86,29,1764.9625,1764.9625,1764.9704,,,,0,19,19,19,1,20,85,,,,,,,,
,,60a0dfc6f9936b0d30dfea15,65af578aca620457d06d5905,2024-01-23_08h08.14.064,bars,2023.2.3,Win32,59.88023952,657b66ea316d21385b68909f,,,,,,,,,,,1764.9706,1765.9628,,,1766.4629,1766.7127,,17,197,,,,,,,,,,,,,,,,bars/041.png,bars/mask008.png,,,,,,,,,,,,3,1,,,,,,,2,2,3,2,,,,,,,,,,,1765.9628,1766.4628,1766.7127,1768.4796,space,1.7351,,1768.4797,3,68,1769.4795,1769.4796,1769.4818,,,,0,20,20,20,1,20,85,,,,,,,,
,,60a0dfc6f9936b0d30dfea15,65af578aca620457d06d5905,2024-01-23_08h08.14.064,bars,2023.2.3,Win32,59.88023952,657b66ea316d21385b68909f,,,,,,,,,,,1769.4821,1770.4795,,,1770.9795,1771.2296,,154,-26,,,,,,,,,,,,,,,,bars/021.png,bars/mask006.png,,,,,,,,,,,,0,1,,,,,,,0,0,0,0,,,,,,,,,,,1770.4795,1770.9795,1771.2297,1773.9657,space,2.7174,,1773.9657,1,84,1774.9631,1774.9631,1774.98,,,,0,21,21,21,1,155,70,,,,,,,,
,,60a0dfc6f9936b0d30dfea15,65af578aca620457d06d5905,2024-01-23_08h08.14.064,bars,2023.2.3,Win32,59.88023952,657b66ea316d21385b68909f,,,,,,,,,,,1774.9804,1775.9796,,,1776.4796,1776.7297,,107,107,,,,,,,,,,,,,,,,bars/015.png,bars/mask009.png,,,,,,,,,,,,0,1,,,,,,,0,2,0,2,,,,,,,,,,,1775.9797,1776.4796,1776.7297,1777.7821,space,1.0337,,1777.7821,3,53,1778.7798,1778.7798,1778.7981,,,,0,22,22,22,1,110,160,,,,,,,,
,,60a0dfc6f9936b0d30dfea15,65af578aca620457d06d5905,2024-01-23_08h08.14.064,bars,2023.2.3,Win32,59.88023952,657b66ea316d21385b68909f,,,,,,,,,,,1778.7985,1779.7966,,,1780.2965,1780.5465,,16,196,,,,,,,,,,,,,,,,bars/005.png,bars/mask007.png,,,,,,,,,,,,2,1,,,,,,,2,4,2,6,,,,,,,,,,,1779.7966,1780.2964,1780.5465,1782.2301,space,1.6589,,1782.2301,6,56,1783.2301,1783.2301,1783.2474,,,,0,23,23,23,1,10,140,,,,,,,,
,,60a0dfc6f9936b0d30dfea15,65af578aca620457d06d5905,2024-01-23_08h08.14.064,bars,2023.2.3,Win32,59.88023952,657b66ea316d21385b68909f,,,,,,,,,,,1783.2477,1784.2467,,,1784.7468,1784.9968,,21,201,,,,,,,,,,,,,,,,bars/026.png,bars/mask000.png,,,,,,,,,,,,3,1,,,,,,,4,2,5,3,,,,,,,,,,,1784.2467,1784.7468,1784.9969,1787.0663,space,2.0509,,1787.0664,14,64,1788.0637,1788.0637,1788.0646,,,,0,24,24,24,1,35,85,,,,,,,,
,,60a0dfc6f9936b0d30dfea15,65af578aca620457d06d5905,2024-01-23_08h08.14.064,bars,2023.2.3,Win32,59.88023952,657b66ea316d21385b68909f,,,,,,,,,,,1788.065,1789.0638,,,1789.5658,1789.8136,,144,144,,,,,,,,,,,,,,,,bars/040.png,bars/mask000.png,,,,,,,,,,,,2,1,,,,,,,2,4,2,4,,,,,,,,,,,1789.0638,1789.5658,1789.8136,1792.7639,space,2.9286,,1792.7639,4,41,1793.7636,1793.7636,1793.7714,,,,0,25,25,25,1,140,5,,,,,,,,
,,60a0dfc6f9936b0d30dfea15,65af578aca620457d06d5905,2024-01-23_08h08.14.064,bars,2023.2.3,Win32,59.88023952,657b66ea316d21385b68909f,,,,,,,,,,,1793.7716,1794.7638,,,1795.2638,1795.5139,,154,-26,,,,,,,,,,,,,,,,bars/034.png,bars/mask004.png,,,,,,,,,,,,0,1,,,,,,,0,6,0,7,,,,,,,,,,,1794.7638,1795.2637,1795.5139,1797.666,space,2.1344,,1797.6661,29,89,1798.6639,1798.6639,1798.6808,,,,0,26,26,26,1,125,65,,,,,,,,
,,60a0dfc6f9936b0d30dfea15,65af578aca620457d06d5905,2024-01-23_08h08.14.064,bars,2023.2.3,Win32,59.88023952,657b66ea316d21385b68909f,,,,,,,,,,,1798.6812,1799.6806,,,1800.1807,1800.4308,,142,142,,,,,,,,,,,,,,,,bars/038.png,bars/mask000.png,,,,,,,,,,,,0,1,,,,,,,2,8,2,9,,,,,,,,,,,1799.6806,1800.1807,1800.4309,1801.9335,space,1.4841,,1801.9336,23,72,1802.9306,1802.9306,1802.9382,,,,0,27,27,27,1,165,70,,,,,,,,
,,60a0dfc6f9936b0d30dfea15,65af578aca620457d06d5905,2024-01-23_08h08.14.064,bars,2023.2.3,Win32,59.88023952,657b66ea316d21385b68909f,,,,,,,,,,,1802.9384,1803.9307,,,1804.4308,1804.6808,,135,135,,,,,,,,,,,,,,,,bars/004.png,bars/mask006.png,,,,,,,,,,,,3,2,,,,,,,0,6,0,5,,,,,,,,,,,1803.9308,1804.4307,1804.6808,1805.5644,space,0.8763,,1805.5644,70,10,1806.5642,1806.5642,1806.5823,,,,0,28,28,28,1,25,125,,,,,,,,
,,60a0dfc6f9936b0d30dfea15,65af578aca620457d06d5905,2024-01-23_08h08.14.064,bars,2023.2.3,Win32,59.88023952,657b66ea316d21385b68909f,,,,,,,,,,,1806.5826,1807.5809,,,1808.0812,1808.3309,,75,75,,,,,,,,,,,,,,,,bars/018.png,bars/mask008.png,,,,,,,,,,,,2,2,,,,,,,0,4,0,4,,,,,,,,,,,1807.5809,1808.0812,1808.3309,1810.3313,space,1.9942,,1810.3314,75,15,1811.331,1811.331,1811.348,,,,0,29,29,29,1,150,90,,,,,,,,
,,60a0dfc6f9936b0d30dfea15,65af578aca620457d06d5905,2024-01-23_08h08.14.064,bars,2023.2.3,Win32,59.88023952,657b66ea316d21385b68909f,,,,,,,,,,,1811.3484,1812.3478,,,1812.8499,1813.0978,,6,6,,,,,,,,,,,,,,,,bars/032.png,bars/mask007.png,,,,,,,,,,,,4,2,,,,,,,2,6,2,7,,,,,,,,,,,1812.3478,1812.8499,1813.0978,1816.5674,space,3.4509,,1816.5674,61,14,1817.5645,1817.5646,1817.5744,,,,0,30,30,30,1,125,20,,,,,,,,
,,60a0dfc6f9936b0d30dfea15,65af578aca620457d06d5905,2024-01-23_08h08.14.064,bars,2023.2.3,Win32,59.88023952,657b66ea316d21385b68909f,,,,,,,,,,,1817.5746,1818.5646,,,1819.0647,1819.3147,,52,52,,,,,,,,,,,,,,,,bars/031.png,bars/mask002.png,,,,,,,,,,,,2,2,,,,,,,0,4,0,4,,,,,,,,,,,1818.5646,1819.0647,1819.3147,1823.1984,space,3.8515,,1823.1984,68,17,1824.1982,1824.1982,1824.2167,,,,0,31,31,31,1,120,35,,,,,,,,
,,60a0dfc6f9936b0d30dfea15,65af578aca620457d06d5905,2024-01-23_08h08.14.064,bars,2023.2.3,Win32,59.88023952,657b66ea316d21385b68909f,,,,,,,,,,,1824.2171,1825.2148,,,1825.7149,1825.9648,,101,101,,,,,,,,,,,,,,,,bars/021.png,bars/mask001.png,,,,,,,,,,,,0,2,,,,,,,2,6,2,5,,,,,,,,,,,1825.2148,1825.7149,1825.9648,1829.3338,space,3.3505,,1829.3338,54,31,1830.3317,1830.3317,1830.3488,,,,0,32,32,32,1,155,70,,,,,,,,
,,60a0dfc6f9936b0d30dfea15,65af578aca620457d06d5905,2024-01-23_08h08.14.064,bars,2023.2.3,Win32,59.88023952,657b66ea316d21385b68909f,,,,,,,,,,,1830.3492,1831.3484,,,1831.8485,1832.0999,,141,141,,,,,,,,,,,,,,,,bars/009.png,bars/mask001.png,,,,,,,,,,,,0,2,,,,,,,4,4,4,5,,,,,,,,,,,1831.3485,1831.8485,1832.1,1833.0845,space,0.9673,,1833.0846,54,36,1834.0819,1834.0819,1834.0831,,,,0,33,33,33,1,15,105,,,,,,,,
,,60a0dfc6f9936b0d30dfea15,65af578aca620457d06d5905,2024-01-23_08h08.14.064,bars,2023.2.3,Win32,59.88023952,657b66ea316d21385b68909f,,,,,,,,,,,1834.0834,1835.0818,,,1835.582,1835.832,,116,116,,,,,,,,,,,,,,,,bars/029.png,bars/mask000.png,,,,,,,,,,,,0,1,,,,,,,2,2,2,2,,,,,,,,,,,1835.0819,1835.582,1835.832,1838.4017,space,2.5518,,1838.4017,26,71,1839.3987,1839.3989,1839.4176,,,,0,34,34,34,1,90,45,,,,,,,,
,,60a0dfc6f9936b0d30dfea15,65af578aca620457d06d5905,2024-01-23_08h08.14.064,bars,2023.2.3,Win32,59.88023952,657b66ea316d21385b68909f,,,,,,,,,,,1839.418,1840.4152,,,1840.9154,1841.1654,,59,59,,,,,,,,,,,,,,,,bars/017.png,bars/mask000.png,,,,,,,,,,,,0,2,,,,,,,0,0,0,0,,,,,,,,,,,1840.4152,1840.9154,1841.1654,1842.3489,space,1.1596,,1842.3489,86,14,1843.3487,1843.3487,1843.3503,,,,0,35,35,35,1,145,45,,,,,,,,
,,60a0dfc6f9936b0d30dfea15,65af578aca620457d06d5905,2024-01-23_08h08.14.064,bars,2023.2.3,Win32,59.88023952,657b66ea316d21385b68909f,,,,,,,,,,,1843.3504,1844.3487,,,1844.8509,1845.0989,,145,-35,,,,,,,,,,,,,,,,bars/011.png,bars/mask006.png,,,,,,,,,,,,2,1,,,,,,,2,2,3,2,,,,,,,,,,,1844.3488,1844.8509,1845.099,1848.0159,space,2.8904,,1848.0159,15,60,1849.0172,1849.0172,1849.0355,,,,0,36,36,36,1,160,85,,,,,,,,
,,60a0dfc6f9936b0d30dfea15,65af578aca620457d06d5905,2024-01-23_08h08.14.064,bars,2023.2.3,Win32,59.88023952,657b66ea316d21385b68909f,,,,,,,,,,,1849.0359,1850.0323,,,1850.5326,1850.7825,,146,-34,,,,,,,,,,,,,,,,bars/018.png,bars/mask000.png,,,,,,,,,,,,3,1,,,,,,,4,0,3,0,,,,,,,,,,,1850.0324,1850.5325,1850.7825,1853.2189,space,2.4336,,1853.2189,4,56,1854.216,1854.216,1854.2328,,,,0,37,37,37,1,150,90,,,,,,,,
,,60a0dfc6f9936b0d30dfea15,65af578aca620457d06d5905,2024-01-23_08h08.14.064,bars,2023.2.3,Win32,59.88023952,657b66ea316d21385b68909f,,,,,,,,,,,1854.2334,1855.2327,,,1855.7327,1855.9827,,122,122,,,,,,,,,,,,,,,,bars/015.png,bars/mask008.png,,,,,,,,,,,,1,1,,,,,,,2,2,2,3,,,,,,,,,,,1855.2328,1855.7326,1855.9827,1857.8493,space,1.8457,,1857.8494,12,38,1858.8494,1858.8494,1858.8661,,,,0,38,38,38,1,110,160,,,,,,,,
,,60a0dfc6f9936b0d30dfea15,65af578aca620457d06d5905,2024-01-23_08h08.14.064,bars,2023.2.3,Win32,59.88023952,657b66ea316d21385b68909f,,,,,,,,,,,1858.8665,1859.866,,,1860.3661,1860.6161,,109,109,,,,,,,,,,,,,,,,bars/025.png,bars/mask001.png,,,,,,,,,,,,4,1,,,,,,,4,4,5,5,,,,,,,,,,,1859.8661,1860.3661,1860.6161,1863.169,space,2.5341,,1863.169,4,69,1864.1663,1864.1664,1864.1833,,,,0,39,39,39,1,105,40,,,,,,,,
,,60a0dfc6f9936b0d30dfea15,65af578aca620457d06d5905,2024-01-23_08h08.14.064,bars,2023.2.3,Win32,59.88023952,657b66ea316d21385b68909f,,,,,,,,,,,1864.1837,1865.183,,,1865.6831,1865.933,,56,56,,,,,,,,,,,,,,,,bars/028.png,bars/mask000.png,,,,,,,,,,,,4,1,,,,,,,6,2,6,1,,,,,,,,,,,1865.183,1865.683,1865.933,1868.9194,space,2.984,,1868.9195,11,64,1869.9166,1869.9166,1869.9339,,,,0,40,40,40,1,45,120,,,,,,,,
,,60a0dfc6f9936b0d30dfea15,65af578aca620457d06d5905,2024-01-23_08h08.14.064,bars,2023.2.3,Win32,59.88023952,657b66ea316d21385b68909f,,,,,,,,,,,1869.9342,1870.9346,,,1871.4333,1871.6831,,130,130,,,,,,,,,,,,,,,,bars/040.png,bars/mask008.png,,,,,,,,,,,,2,1,,,,,,,4,4,3,4,,,,,,,,,,,1870.9347,1871.4332,1871.6832,1873.4693,space,1.7675,,1873.4694,10,55,1874.4667,1874.4667,1874.4677,,,,0,41,41,41,1,140,5,,,,,,,,
,,60a0dfc6f9936b0d30dfea15,65af578aca620457d06d5905,2024-01-23_08h08.14.064,bars,2023.2.3,Win32,59.88023952,657b66ea316d21385b68909f,,,,,,,,,,,1874.4681,1875.4665,,,1875.9667,1876.2166,,5,5,,,,,,,,,,,,,,,,bars/047.png,bars/mask009.png,,,,,,,,,,,,3,1,,,,,,,6,2,5,1,,,,,,,,,,,1875.4665,1875.9667,1876.2167,1878.6197,space,2.4006,,1878.6197,10,65,1879.6189,1879.6189,1879.6331,,,,0,42,42,42,1,15,70,,,,,,,,
,,60a0dfc6f9936b0d30dfea15,65af578aca620457d06d5905,2024-01-23_08h08.14.064,bars,2023.2.3,Win32,59.88023952,657b66ea316d21385b68909f,,,,,,,,,,,1879.6333,1880.6334,,,1881.1336,1881.3836,,149,149,,,,,,,,,,,,,,,,bars/035.png,bars/mask004.png,,,,,,,,,,,,1,1,,,,,,,8,0,8,0,,,,,,,,,,,1880.6334,1881.1336,1881.3836,1882.9692,space,1.583,,1882.9692,26,89,1883.967,1883.967,1883.9678,,,,0,43,43,43,1,175,60,,,,,,,,
,,60a0dfc6f9936b0d30dfea15,65af578aca620457d06d5905,2024-01-23_08h08.14.064,bars,2023.2.3,Win32,59.88023952,657b66ea316d21385b68909f,,,,,,,,,,,1883.9681,1884.967,,,1885.467,1885.717,,154,154,,,,,,,,,,,,,,,,bars/011.png,bars/mask005.png,,,,,,,,,,,,6,1,,,,,,,6,2,7,0,,,,,,,,,,,1884.9671,1885.467,1885.717,1888.1691,space,2.4494,,1888.1691,6,69,1889.1671,1889.1671,1889.1758,,,,0,44,44,44,1,160,85,,,,,,,,
,,60a0dfc6f9936b0d30dfea15,65af578aca620457d06d5905,2024-01-23_08h08.14.064,bars,2023.2.3,Win32,59.88023952,657b66ea316d21385b68909f,,,,,,,,,,,1889.1759,1890.1671,,,1890.6673,1890.9173,,167,167,,,,,,,,,,,,,,,,bars/007.png,bars/mask004.png,,,,,,,,,,,,4,1,,,,,,,4,4,5,5,,,,,,,,,,,1890.1671,1890.6673,1890.9173,1892.3862,space,1.4505,,1892.3862,8,68,1893.3863,1893.3864,1893.4031,,,,0,45,45,45,1,175,55,,,,,,,,
,,60a0dfc6f9936b0d30dfea15,65af578aca620457d06d5905,2024-01-23_08h08.14.064,bars,2023.2.3,Win32,59.88023952,657b66ea316d21385b68909f,,,,,,,,,,,1893.4034,1894.4027,,,1894.9029,1895.1508,,62,62,,,,,,,,,,,,,,,,bars/014.png,bars/mask004.png,,,,,,,,,,,,3,1,,,,,,,6,6,7,4,,,,,,,,,,,1894.4028,1894.9029,1895.1509,1896.4008,space,1.2293,,1896.4008,18,62,1897.4023,1897.4025,1897.4034,,,,0,46,46,46,1,80,0,,,,,,,,
,,60a0dfc6f9936b0d30dfea15,65af578aca620457d06d5905,2024-01-23_08h08.14.064,bars,2023.2.3,Win32,59.88023952,657b66ea316d21385b68909f,,,,,,,,,,,1897.4036,1898.4011,,,1898.9009,1899.151,,56,56,,,,,,,,,,,,,,,,bars/028.png,bars/mask006.png,,,,,,,,,,,,2,1,,,,,,,4,8,3,6,,,,,,,,,,,1898.4012,1898.9009,1899.151,1900.9373,space,1.768,,1900.9374,11,64,1901.9342,1901.9343,1901.9352,,,,0,47,47,47,1,45,120,,,,,,,,
,,60a0dfc6f9936b0d30dfea15,65af578aca620457d06d5905,2024-01-23_08h08.14.064,bars,2023.2.3,Win32,59.88023952,657b66ea316d21385b68909f,,,,,,,,,,,1901.9355,1902.9342,,,1903.4344,1903.6856,,148,148,,,,,,,,,,,,,,,,bars/046.png,bars/mask007.png,,,,,,,,,,,,5,1,,,,,,,6,10,7,10,,,,,,,,,,,1902.9342,1903.4343,1903.6856,1904.7345,space,1.0241,,1904.7345,7,63,1905.7344,1905.7344,1905.7352,,,,0,48,48,48,1,155,85,,,,,,,,
,,60a0dfc6f9936b0d30dfea15,65af578aca620457d06d5905,2024-01-23_08h08.14.064,bars,2023.2.3,Win32,59.88023952,657b66ea316d21385b68909f,,,,,,,,,,,1905.7355,1906.7346,,,1907.2362,1907.4844,,161,-19,,,,,,,,,,,,,,,,bars/007.png,bars/mask001.png,,,,,,,,,,,,4,1,,,,,,,8,10,8,10,,,,,,,,,,,1906.7346,1907.2361,1907.4844,1910.6541,space,3.1514,,1910.6541,14,74,1911.6511,1911.6512,1911.6589,,,,0,49,49,49,1,175,55,,,,,,,,
,,60a0dfc6f9936b0d30dfea15,65af578aca620457d06d5905,2024-01-23_08h08.14.064,bars,2023.2.3,Win32,59.88023952,657b66ea316d21385b68909f,,,,,,,,,,,,,,,,,,,,,,,,,,,,,,,,,,,,,,,,,,,,,,,,,,,,,,,,,,,,,,,,,,,,,,,,,,,,,,,,,,,,,,,,,,,,,1911.659,1971.6535,0,2,2,0,1,sequence_tables/blk011.csv
,,60a0dfc6f9936b0d30dfea15,65af578aca620457d06d5905,2024-01-23_08h08.14.064,bars,2023.2.3,Win32,59.88023952,657b66ea316d21385b68909f,,,,,,,,,,,1974.1947,1975.1869,,,1975.6871,1975.9371,,163,163,,,,,,,,,,,,,,,,bars/048.png,bars/mask003.png,,,,,,,,,,,,5,2,,,,,,,8,7,10,8,,,,,,1971.6687,1974.1871,space,2.5104,,1975.187,1975.687,1975.9371,1977.6539,space,1.6915,,1977.654,67,12,1978.6538,1978.6538,1978.6561,,,,0,0,0,0,1,50,175,,,,,,,,
,,60a0dfc6f9936b0d30dfea15,65af578aca620457d06d5905,2024-01-23_08h08.14.064,bars,2023.2.3,Win32,59.88023952,657b66ea316d21385b68909f,,,,,,,,,,,1978.6565,1979.6538,,,1980.1538,1980.4037,,57,57,,,,,,,,,,,,,,,,bars/038.png,bars/mask006.png,,,,,,,,,,,,2,2,,,,,,,6,5,6,4,,,,,,,,,,,1979.6538,1980.1538,1980.4037,1982.5394,space,2.1172,,1982.5395,72,13,1983.5373,1983.5373,1983.5382,,,,0,1,1,1,1,165,70,,,,,,,,
,,60a0dfc6f9936b0d30dfea15,65af578aca620457d06d5905,2024-01-23_08h08.14.064,bars,2023.2.3,Win32,59.88023952,657b66ea316d21385b68909f,,,,,,,,,,,1983.5385,1984.5375,,,1985.0398,1985.2872,,147,147,,,,,,,,,,,,,,,,bars/000.png,bars/mask008.png,,,,,,,,,,,,8,2,,,,,,,8,7,8,9,,,,,,,,,,,1984.5375,1985.0398,1985.2872,1989.6043,space,4.2859,,1989.6043,73,2,1990.6042,1990.6042,1990.621,,,,0,2,2,2,1,40,145,,,,,,,,
,,60a0dfc6f9936b0d30dfea15,65af578aca620457d06d5905,2024-01-23_08h08.14.064,bars,2023.2.3,Win32,59.88023952,657b66ea316d21385b68909f,,,,,,,,,,,1990.6214,1991.6209,,,1992.1209,1992.371,,122,122,,,,,,,,,,,,,,,,bars/004.png,bars/mask005.png,,,,,,,,,,,,4,2,,,,,,,10,5,9,4,,,,,,,,,,,1991.6209,1992.1209,1992.371,1995.0542,space,2.6563,,1995.0543,83,3,1996.0541,1996.0542,1996.0621,,,,0,3,3,3,1,25,125,,,,,,,,
,,60a0dfc6f9936b0d30dfea15,65af578aca620457d06d5905,2024-01-23_08h08.14.064,bars,2023.2.3,Win32,59.88023952,657b66ea316d21385b68909f,,,,,,,,,,,1996.0623,1997.0545,,,1997.5543,1997.8045,,167,167,,,,,,,,,,,,,,,,bars/020.png,bars/mask008.png,,,,,,,,,,,,7,2,,,,,,,10,7,10,8,,,,,,,,,,,1997.0545,1997.5543,1997.8045,1999.2584,space,1.4351,,1999.2584,52,3,2000.2545,2000.2545,2000.2618,,,,0,4,4,4,1,115,170,,,,,,,,
,,60a0dfc6f9936b0d30dfea15,65af578aca620457d06d5905,2024-01-23_08h08.14.064,bars,2023.2.3,Win32,59.88023952,657b66ea316d21385b68909f,,,,,,,,,,,2000.262,2001.2546,,,2001.7547,2002.0068,,155,155,,,,,,,,,,,,,,,,bars/016.png,bars/mask005.png,,,,,,,,,,,,4,2,,,,,,,10,5,10,6,,,,,,,,,,,2001.2546,2001.7546,2002.0068,2004.0742,space,2.0515,,2004.0743,65,10,2005.0713,2005.0713,2005.0722,,,,0,5,5,5,1,40,165,,,,,,,,
,,60a0dfc6f9936b0d30dfea15,65af578aca620457d06d5905,2024-01-23_08h08.14.064,bars,2023.2.3,Win32,59.88023952,657b66ea316d21385b68909f,,,,,,,,,,,2005.0724,2006.0714,,,2006.5715,2006.8215,,131,-49,,,,,,,,,,,,,,,,bars/003.png,bars/mask002.png,,,,,,,,,,,,5,2,,,,,,,10,7,10,7,,,,,,,,,,,2006.0714,2006.5715,2006.8215,2009.555,space,2.7107,,2009.5551,74,9,2010.5549,2010.5549,2010.5719,,,,0,6,6,6,1,25,140,,,,,,,,
,,60a0dfc6f9936b0d30dfea15,65af578aca620457d06d5905,2024-01-23_08h08.14.064,bars,2023.2.3,Win32,59.88023952,657b66ea316d21385b68909f,,,,,,,,,,,2010.5722,2011.5717,,,2012.0717,2012.3217,,113,-67,,,,,,,,,,,,,,,,bars/011.png,bars/mask005.png,,,,,,,,,,,,0,2,,,,,,,10,5,9,7,,,,,,,,,,,2011.5717,2012.0716,2012.3217,2016.2387,space,3.8904,,2016.2387,47,28,2017.2385,2017.2386,2017.2472,,,,0,7,7,7,1,160,85,,,,,,,,
,,60a0dfc6f9936b0d30dfea15,65af578aca620457d06d5905,2024-01-23_08h08.14.064,bars,2023.2.3,Win32,59.88023952,657b66ea316d21385b68909f,,,,,,,,,,,2017.2474,2018.2382,,,2018.7384,2018.9883,,125,125,,,,,,,,,,,,,,,,bars/023.png,bars/mask009.png,,,,,,,,,,,,2,2,,,,,,,8,3,9,3,,,,,,,,,,,2018.2382,2018.7384,2018.9884,2020.972,space,1.9593,,2020.972,75,10,2021.9718,2021.9718,2021.9792,,,,0,8,8,8,1,20,115,,,,,,,,
,,60a0dfc6f9936b0d30dfea15,65af578aca620457d06d5905,2024-01-23_08h08.14.064,bars,2023.2.3,Win32,59.88023952,657b66ea316d21385b68909f,,,,,,,,,,,2021.9794,2022.9719,,,2023.4719,2023.722,,53,53,,,,,,,,,,,,,,,,bars/022.png,bars/mask000.png,,,,,,,,,,,,0,2,,,,,,,6,1,7,0,,,,,,,,,,,2022.9719,2023.4719,2023.722,2025.8221,space,2.0811,,2025.8221,42,33,2026.822,2026.822,2026.8296,,,,0,9,9,9,1,95,20,,,,,,,,
,,60a0dfc6f9936b0d30dfea15,65af578aca620457d06d5905,2024-01-23_08h08.14.064,bars,2023.2.3,Win32,59.88023952,657b66ea316d21385b68909f,,,,,,,,,,,2026.8297,2027.8221,,,2028.3221,2028.5721,,110,-70,,,,,,,,,,,,,,,,bars/006.png,bars/mask002.png,,,,,,,,,,,,3,2,,,,,,,4,3,5,4,,,,,,,,,,,2027.8221,2028.3221,2028.5721,2031.7913,space,3.2007,,2031.7913,75,10,2032.7889,2032.7889,2032.7982,,,,0,10,10,10,1,35,100,,,,,,,,
,,60a0dfc6f9936b0d30dfea15,65af578aca620457d06d5905,2024-01-23_08h08.14.064,bars,2023.2.3,Win32,59.88023952,657b66ea316d21385b68909f,,,,,,,,,,,2032.7984,2033.7889,,,2034.2891,2034.539,,24,24,,,,,,,,,,,,,,,,bars/031.png,bars/mask001.png,,,,,,,,,,,,0,2,,,,,,,6,1,5,0,,,,,,,,,,,2033.7889,2034.2891,2034.539,2036.6891,space,2.12,,2036.6892,84,11,2037.689,2037.6891,2037.6896,,,,0,11,11,11,1,120,35,,,,,,,,
,,60a0dfc6f9936b0d30dfea15,65af578aca620457d06d5905,2024-01-23_08h08.14.064,bars,2023.2.3,Win32,59.88023952,657b66ea316d21385b68909f,,,,,,,,,,,2037.6899,2038.6891,,,2039.1892,2039.4392,,107,107,,,,,,,,,,,,,,,,bars/006.png,bars/mask000.png,,,,,,,,,,,,1,2,,,,,,,8,0,9,1,,,,,,,,,,,2038.6892,2039.1892,2039.4392,2042.9086,space,3.4511,,2042.9086,72,7,2043.906,2043.9061,2043.9137,,,,0,12,12,12,1,35,100,,,,,,,,
,,60a0dfc6f9936b0d30dfea15,65af578aca620457d06d5905,2024-01-23_08h08.14.064,bars,2023.2.3,Win32,59.88023952,657b66ea316d21385b68909f,,,,,,,,,,,2043.914,2044.9061,,,2045.4062,2045.6574,,68,68,,,,,,,,,,,,,,,,bars/002.png,bars/mask002.png,,,,,,,,,,,,0,2,,,,,,,10,0,8,0,,,,,,,,,,,2044.9061,2045.4062,2045.6574,2047.3086,space,1.634,,2047.3086,62,17,2048.3061,2048.3061,2048.3146,,,,0,13,13,13,1,130,85,,,,,,,,
,,60a0dfc6f9936b0d30dfea15,65af578aca620457d06d5905,2024-01-23_08h08.14.064,bars,2023.2.3,Win32,59.88023952,657b66ea316d21385b68909f,,,,,,,,,,,2048.3148,2049.3062,,,2049.8063,2050.0562,,69,69,,,,,,,,,,,,,,,,bars/006.png,bars/mask000.png,,,,,,,,,,,,0,2,,,,,,,8,0,9,0,,,,,,,,,,,2049.3062,2049.8062,2050.0562,2051.3086,space,1.2339,,2051.3086,34,31,2052.3062,2052.3063,2052.3141,,,,0,14,14,14,1,35,100,,,,,,,,
,,60a0dfc6f9936b0d30dfea15,65af578aca620457d06d5905,2024-01-23_08h08.14.064,bars,2023.2.3,Win32,59.88023952,657b66ea316d21385b68909f,,,,,,,,,,,2052.3142,2053.3064,,,2053.8065,2054.0564,,16,16,,,,,,,,,,,,,,,,bars/032.png,bars/mask006.png,,,,,,,,,,,,1,2,,,,,,,6,0,5,1,,,,,,,,,,,2053.3064,2053.8064,2054.0565,2056.3232,space,2.2346,,2056.3233,71,4,2057.3232,2057.3232,2057.331,,,,0,15,15,15,1,125,20,,,,,,,,
,,60a0dfc6f9936b0d30dfea15,65af578aca620457d06d5905,2024-01-23_08h08.14.064,bars,2023.2.3,Win32,59.88023952,657b66ea316d21385b68909f,,,,,,,,,,,2057.3312,2058.3232,,,2058.8233,2059.0733,,101,101,,,,,,,,,,,,,,,,bars/026.png,bars/mask005.png,,,,,,,,,,,,1,2,,,,,,,4,2,3,2,,,,,,,,,,,2058.3232,2058.8233,2059.0733,2060.3921,space,1.3005,,2060.3922,66,16,2061.39,2061.3901,2061.3907,,,,0,16,16,16,1,35,85,,,,,,,,
,,60a0dfc6f9936b0d30dfea15,65af578aca620457d06d5905,2024-01-23_08h08.14.064,bars,2023.2.3,Win32,59.88023952,657b66ea316d21385b68909f,,,,,,,,,,,2061.3909,2062.3901,,,2062.8901,2063.14,,170,170,,,,,,,,,,,,,,,,bars/037.png,bars/mask005.png,,,,,,,,,,,,1,1,,,,,,,2,0,4,1,,,,,,,,,,,2062.3901,2062.8901,2063.1401,2064.0425,space,0.8837,,2064.0425,20,65,2065.0401,2065.0402,2065.0419,,,,0,17,17,17,1,150,105,,,,,,,,
,,60a0dfc6f9936b0d30dfea15,65af578aca620457d06d5905,2024-01-23_08h08.14.064,bars,2023.2.3,Win32,59.88023952,657b66ea316d21385b68909f,,,,,,,,,,,2065.042,2066.0402,,,2066.5402,2066.7902,,8,188,,,,,,,,,,,,,,,,bars/004.png,bars/mask004.png,,,,,,,,,,,,0,1,,,,,,,0,0,1,1,,,,,,,,,,,2066.0402,2066.5401,2066.7902,2069.3426,space,2.534,,2069.3426,17,63,2070.3403,2070.3403,2070.3481,,,,0,18,18,18,1,25,125,,,,,,,,
,,60a0dfc6f9936b0d30dfea15,65af578aca620457d06d5905,2024-01-23_08h08.14.064,bars,2023.2.3,Win32,59.88023952,657b66ea316d21385b68909f,,,,,,,,,,,2070.3483,2071.3423,,,2071.8405,2072.0922,,142,-38,,,,,,,,,,,,,,,,bars/017.png,bars/mask008.png,,,,,,,,,,,,3,1,,,,,,,2,0,3,0,,,,,,,,,,,2071.3424,2071.8404,2072.0923,2074.4406,space,2.3283,,2074.4406,3,83,2075.4405,2075.4406,2075.4485,,,,0,19,19,19,1,145,45,,,,,,,,
,,60a0dfc6f9936b0d30dfea15,65af578aca620457d06d5905,2024-01-23_08h08.14.064,bars,2023.2.3,Win32,59.88023952,657b66ea316d21385b68909f,,,,,,,,,,,2075.4487,2076.4405,,,2076.9405,2077.1925,,77,77,,,,,,,,,,,,,,,,bars/000.png,bars/mask003.png,,,,,,,,,,,,0,1,,,,,,,4,2,2,1,,,,,,,,,,,2076.4405,2076.9404,2077.1925,2078.2907,space,1.0759,,2078.2907,37,68,2079.2906,2079.2907,2079.2914,,,,0,20,20,20,1,40,145,,,,,,,,
,,60a0dfc6f9936b0d30dfea15,65af578aca620457d06d5905,2024-01-23_08h08.14.064,bars,2023.2.3,Win32,59.88023952,657b66ea316d21385b68909f,,,,,,,,,,,2079.2916,2080.2906,,,2080.7908,2081.0407,,136,136,,,,,,,,,,,,,,,,bars/049.png,bars/mask004.png,,,,,,,,,,,,1,2,,,,,,,2,4,4,4,,,,,,,,,,,2080.2907,2080.7908,2081.0407,2083.1432,space,2.1002,,2083.1433,24,21,2084.1409,2084.1409,2084.1496,,,,0,21,21,21,1,160,115,,,,,,,,
,,60a0dfc6f9936b0d30dfea15,65af578aca620457d06d5905,2024-01-23_08h08.14.064,bars,2023.2.3,Win32,59.88023952,657b66ea316d21385b68909f,,,,,,,,,,,2084.1498,2085.1408,,,2085.6408,2085.8908,,120,120,,,,,,,,,,,,,,,,bars/008.png,bars/mask008.png,,,,,,,,,,,,0,1,,,,,,,0,2,0,2,,,,,,,,,,,2085.1409,2085.6408,2085.8908,2089.3437,space,3.4343,,2089.3437,10,60,2090.3411,2090.3411,2090.3496,,,,0,22,22,22,1,110,0,,,,,,,,
,,60a0dfc6f9936b0d30dfea15,65af578aca620457d06d5905,2024-01-23_08h08.14.064,bars,2023.2.3,Win32,59.88023952,657b66ea316d21385b68909f,,,,,,,,,,,2090.3497,2091.3411,,,2091.8412,2092.091,,15,15,,,,,,,,,,,,,,,,bars/045.png,bars/mask009.png,,,,,,,,,,,,0,2,,,,,,,2,0,3,0,,,,,,,,,,,2091.3411,2091.8412,2092.0911,2093.3265,space,1.2171,,2093.3266,85,5,2094.3244,2094.3245,2094.3329,,,,0,23,23,23,1,100,10,,,,,,,,
,,60a0dfc6f9936b0d30dfea15,65af578aca620457d06d5905,2024-01-23_08h08.14.064,bars,2023.2.3,Win32,59.88023952,657b66ea316d21385b68909f,,,,,,,,,,,2094.3331,2095.3245,,,2095.8246,2096.0747,,49,49,,,,,,,,,,,,,,,,bars/028.png,bars/mask007.png,,,,,,,,,,,,0,1,,,,,,,0,2,0,3,,,,,,,,,,,2095.3246,2095.8246,2096.0747,2097.6269,space,1.5339,,2097.627,4,71,2098.6246,2098.6247,2098.6334,,,,0,24,24,24,1,45,120,,,,,,,,
,,60a0dfc6f9936b0d30dfea15,65af578aca620457d06d5905,2024-01-23_08h08.14.064,bars,2023.2.3,Win32,59.88023952,657b66ea316d21385b68909f,,,,,,,,,,,2098.6336,2099.6247,,,2100.1247,2100.3747,,58,58,,,,,,,,,,,,,,,,bars/034.png,bars/mask008.png,,,,,,,,,,,,3,2,,,,,,,0,4,0,4,,,,,,,,,,,2099.6247,2100.1247,2100.3747,2101.5249,space,1.124,,2101.525,67,7,2102.5249,2102.5249,2102.5334,,,,0,25,25,25,1,125,65,,,,,,,,
,,60a0dfc6f9936b0d30dfea15,65af578aca620457d06d5905,2024-01-23_08h08.14.064,bars,2023.2.3,Win32,59.88023952,657b66ea316d21385b68909f,,,,,,,,,,,2102.5337,2103.5248,,,2104.0267,2104.275,,39,219,,,,,,,,,,,,,,,,bars/027.png,bars/mask002.png,,,,,,,,,,,,1,2,,,,,,,2,2,4,1,,,,,,,,,,,2103.5249,2104.0267,2104.2751,2106.3919,space,2.0956,,2106.3921,71,11,2107.3918,2107.3918,2107.3992,,,,0,26,26,26,1,110,50,,,,,,,,
,,60a0dfc6f9936b0d30dfea15,65af578aca620457d06d5905,2024-01-23_08h08.14.064,bars,2023.2.3,Win32,59.88023952,657b66ea316d21385b68909f,,,,,,,,,,,2107.3994,2108.3917,,,2108.8918,2109.1439,,12,12,,,,,,,,,,,,,,,,bars/032.png,bars/mask008.png,,,,,,,,,,,,3,2,,,,,,,0,4,0,4,,,,,,,,,,,2108.3917,2108.8918,2109.1439,2111.3609,space,2.2148,,2111.3609,67,8,2112.3584,2112.3584,2112.3663,,,,0,27,27,27,1,125,20,,,,,,,,
,,60a0dfc6f9936b0d30dfea15,65af578aca620457d06d5905,2024-01-23_08h08.14.064,bars,2023.2.3,Win32,59.88023952,657b66ea316d21385b68909f,,,,,,,,,,,2112.3665,2113.3585,,,2113.8585,2114.1086,,50,50,,,,,,,,,,,,,,,,bars/034.png,bars/mask001.png,,,,,,,,,,,,2,2,,,,,,,0,6,0,4,,,,,,,,,,,2113.3585,2113.8584,2114.1086,2115.6107,space,1.4838,,2115.6107,75,15,2116.6086,2116.6087,2116.6193,,,,0,28,28,28,1,125,65,,,,,,,,
,,60a0dfc6f9936b0d30dfea15,65af578aca620457d06d5905,2024-01-23_08h08.14.064,bars,2023.2.3,Win32,59.88023952,657b66ea316d21385b68909f,,,,,,,,,,,2116.6195,2117.6087,,,2118.1086,2118.3605,,2,2,,,,,,,,,,,,,,,,bars/032.png,bars/mask001.png,,,,,,,,,,,,3,2,,,,,,,2,8,2,8,,,,,,,,,,,2117.6088,2118.1085,2118.3605,2119.4272,space,1.0502,,2119.4273,57,18,2120.4254,2120.4255,2120.4356,,,,0,29,29,29,1,125,20,,,,,,,,
,,60a0dfc6f9936b0d30dfea15,65af578aca620457d06d5905,2024-01-23_08h08.14.064,bars,2023.2.3,Win32,59.88023952,657b66ea316d21385b68909f,,,,,,,,,,,2120.4358,2121.4253,,,2121.9255,2122.1753,,62,62,,,,,,,,,,,,,,,,bars/011.png,bars/mask004.png,,,,,,,,,,,,2,2,,,,,,,4,10,5,9,,,,,,,,,,,2121.4254,2121.9254,2122.1753,2122.9089,space,0.707,,2122.9089,82,23,2123.9105,2123.9105,2123.9111,,,,0,30,30,30,1,160,85,,,,,,,,
,,60a0dfc6f9936b0d30dfea15,65af578aca620457d06d5905,2024-01-23_08h08.14.064,bars,2023.2.3,Win32,59.88023952,657b66ea316d21385b68909f,,,,,,,,,,,2123.9114,2124.9089,,,2125.409,2125.6589,,61,241,,,,,,,,,,,,,,,,bars/038.png,bars/mask000.png,,,,,,,,,,,,7,2,,,,,,,2,10,3,10,,,,,,,,,,,2124.909,2125.409,2125.6589,2128.6957,space,3.018,,2128.6957,76,9,2129.6925,2129.6925,2129.7009,,,,0,31,31,31,1,165,70,,,,,,,,
,,60a0dfc6f9936b0d30dfea15,65af578aca620457d06d5905,2024-01-23_08h08.14.064,bars,2023.2.3,Win32,59.88023952,657b66ea316d21385b68909f,,,,,,,,,,,2129.7011,2130.6926,,,2131.1927,2131.4427,,147,-33,,,,,,,,,,,,,,,,bars/020.png,bars/mask000.png,,,,,,,,,,,,2,2,,,,,,,4,8,4,7,,,,,,,,,,,2130.6926,2131.1926,2131.4427,2133.3759,space,1.9124,,2133.3759,32,23,2134.376,2134.3761,2134.3932,,,,0,32,32,32,1,115,170,,,,,,,,
,,60a0dfc6f9936b0d30dfea15,65af578aca620457d06d5905,2024-01-23_08h08.14.064,bars,2023.2.3,Win32,59.88023952,657b66ea316d21385b68909f,,,,,,,,,,,2134.3936,2135.3927,,,2135.8925,2136.1449,,110,110,,,,,,,,,,,,,,,,bars/019.png,bars/mask005.png,,,,,,,,,,,,5,2,,,,,,,2,6,2,6,,,,,,,,,,,2135.3927,2135.8925,2136.145,2137.4096,space,1.2575,,2137.4096,65,5,2138.4094,2138.4094,2138.4171,,,,0,33,33,33,1,45,105,,,,,,,,
,,60a0dfc6f9936b0d30dfea15,65af578aca620457d06d5905,2024-01-23_08h08.14.064,bars,2023.2.3,Win32,59.88023952,657b66ea316d21385b68909f,,,,,,,,,,,2138.4173,2139.4106,,,2139.9119,2140.1619,,118,118,,,,,,,,,,,,,,,,bars/037.png,bars/mask005.png,,,,,,,,,,,,1,2,,,,,,,0,4,0,1,,,,,,,,,,,2139.4107,2139.9118,2140.1619,2143.3265,space,3.1608,,2143.3266,32,13,2144.3263,2144.3263,2144.3337,,,,0,34,34,34,1,150,105,,,,,,,,
,,60a0dfc6f9936b0d30dfea15,65af578aca620457d06d5905,2024-01-23_08h08.14.064,bars,2023.2.3,Win32,59.88023952,657b66ea316d21385b68909f,,,,,,,,,,,2144.3339,2145.3264,,,2145.8266,2146.0765,,123,123,,,,,,,,,,,,,,,,bars/028.png,bars/mask004.png,,,,,,,,,,,,2,2,,,,,,,2,2,2,2,,,,,,,,,,,2145.3265,2145.8265,2146.0765,2149.3599,space,3.2699,,2149.3601,78,3,2150.3599,2150.3599,2150.3677,,,,0,35,35,35,1,45,120,,,,,,,,
,,60a0dfc6f9936b0d30dfea15,65af578aca620457d06d5905,2024-01-23_08h08.14.064,bars,2023.2.3,Win32,59.88023952,657b66ea316d21385b68909f,,,,,,,,,,,2150.3678,2151.3598,,,2151.86,2152.11,,83,83,,,,,,,,,,,,,,,,bars/046.png,bars/mask002.png,,,,,,,,,,,,1,2,,,,,,,0,0,0,1,,,,,,,,,,,2151.3599,2151.86,2152.11,2153.9435,space,1.8044,,2153.9436,72,2,2154.9432,2154.9432,2154.9517,,,,0,36,36,36,1,155,85,,,,,,,,
,,60a0dfc6f9936b0d30dfea15,65af578aca620457d06d5905,2024-01-23_08h08.14.064,bars,2023.2.3,Win32,59.88023952,657b66ea316d21385b68909f,,,,,,,,,,,2154.9518,2155.9434,,,2156.4436,2156.6934,,65,65,,,,,,,,,,,,,,,,bars/035.png,bars/mask006.png,,,,,,,,,,,,1,2,,,,,,,2,2,2,1,,,,,,,,,,,2155.9435,2156.4436,2156.6934,2159.3935,space,2.6686,,2159.3936,70,5,2160.3934,2160.3935,2160.4027,,,,0,37,37,37,1,175,60,,,,,,,,
,,60a0dfc6f9936b0d30dfea15,65af578aca620457d06d5905,2024-01-23_08h08.14.064,bars,2023.2.3,Win32,59.88023952,657b66ea316d21385b68909f,,,,,,,,,,,2160.403,2161.3937,,,2161.8937,2162.1438,,26,206,,,,,,,,,,,,,,,,bars/036.png,bars/mask000.png,,,,,,,,,,,,0,2,,,,,,,4,0,3,0,,,,,,,,,,,2161.3938,2161.8937,2162.1439,2164.9274,space,2.7626,,2164.9275,61,6,2165.9271,2165.9272,2165.944,,,,0,38,38,38,1,145,20,,,,,,,,
,,60a0dfc6f9936b0d30dfea15,65af578aca620457d06d5905,2024-01-23_08h08.14.064,bars,2023.2.3,Win32,59.88023952,657b66ea316d21385b68909f,,,,,,,,,,,2165.9445,2166.9439,,,2167.4456,2167.694,,46,46,,,,,,,,,,,,,,,,bars/031.png,bars/mask008.png,,,,,,,,,,,,1,2,,,,,,,2,2,3,1,,,,,,,,,,,2166.9439,2167.4456,2167.694,2169.9775,space,2.2604,,2169.9775,74,11,2170.9772,2170.9772,2170.9847,,,,0,39,39,39,1,120,35,,,,,,,,
,,60a0dfc6f9936b0d30dfea15,65af578aca620457d06d5905,2024-01-23_08h08.14.064,bars,2023.2.3,Win32,59.88023952,657b66ea316d21385b68909f,,,,,,,,,,,2170.9848,2171.9775,,,2172.4772,2172.7273,,110,110,,,,,,,,,,,,,,,,bars/006.png,bars/mask007.png,,,,,,,,,,,,0,2,,,,,,,0,0,0,0,,,,,,,,,,,2171.9775,2172.4772,2172.7273,2173.7274,space,0.9784,,2173.7274,75,10,2174.729,2174.729,2174.7297,,,,0,40,40,40,1,35,100,,,,,,,,
,,60a0dfc6f9936b0d30dfea15,65af578aca620457d06d5905,2024-01-23_08h08.14.064,bars,2023.2.3,Win32,59.88023952,657b66ea316d21385b68909f,,,,,,,,,,,2174.7301,2175.7275,,,2176.2274,2176.4774,,114,114,,,,,,,,,,,,,,,,bars/008.png,bars/mask000.png,,,,,,,,,,,,2,1,,,,,,,2,0,2,0,,,,,,,,,,,2175.7275,2176.2273,2176.4774,2179.2945,space,2.7964,,2179.2945,4,66,2180.2964,2180.2965,2180.3144,,,,0,41,41,41,1,110,0,,,,,,,,
,,60a0dfc6f9936b0d30dfea15,65af578aca620457d06d5905,2024-01-23_08h08.14.064,bars,2023.2.3,Win32,59.88023952,657b66ea316d21385b68909f,,,,,,,,,,,2180.3148,2181.3111,,,2181.8122,2182.0611,,110,110,,,,,,,,,,,,,,,,bars/005.png,bars/mask003.png,,,,,,,,,,,,0,2,,,,,,,0,2,1,0,,,,,,,,,,,2181.3111,2181.8121,2182.0612,2183.2139,space,1.1341,,2183.214,80,30,2184.2111,2184.2112,2184.2137,,,,0,42,42,42,1,10,140,,,,,,,,
,,60a0dfc6f9936b0d30dfea15,65af578aca620457d06d5905,2024-01-23_08h08.14.064,bars,2023.2.3,Win32,59.88023952,657b66ea316d21385b68909f,,,,,,,,,,,2184.214,2185.2111,,,2185.7134,2185.9614,,115,115,,,,,,,,,,,,,,,,bars/018.png,bars/mask008.png,,,,,,,,,,,,0,2,,,,,,,0,0,0,0,,,,,,,,,,,2185.2112,2185.7133,2185.9615,2187.4114,space,1.4404,,2187.4115,35,25,2188.4112,2188.4113,2188.4188,,,,0,43,43,43,1,150,90,,,,,,,,
,,60a0dfc6f9936b0d30dfea15,65af578aca620457d06d5905,2024-01-23_08h08.14.064,bars,2023.2.3,Win32,59.88023952,657b66ea316d21385b68909f,,,,,,,,,,,2188.419,2189.4133,,,2189.9137,2190.1613,,14,14,,,,,,,,,,,,,,,,bars/026.png,bars/mask006.png,,,,,,,,,,,,0,1,,,,,,,2,0,0,1,,,,,,,,,,,2189.4133,2189.9137,2190.1613,2190.9949,space,0.8012,,2190.995,21,71,2191.9948,2191.9949,2191.997,,,,0,44,44,44,1,35,85,,,,,,,,
,,60a0dfc6f9936b0d30dfea15,65af578aca620457d06d5905,2024-01-23_08h08.14.064,bars,2023.2.3,Win32,59.88023952,657b66ea316d21385b68909f,,,,,,,,,,,2191.9974,2192.9947,,,2193.495,2193.7448,,59,59,,,,,,,,,,,,,,,,bars/025.png,bars/mask003.png,,,,,,,,,,,,1,2,,,,,,,0,2,1,2,,,,,,,,,,,2192.9947,2193.4949,2193.7449,2194.695,space,0.9214,,2194.695,46,19,2195.6948,2195.6948,2195.6961,,,,0,45,45,45,1,105,40,,,,,,,,
,,60a0dfc6f9936b0d30dfea15,65af578aca620457d06d5905,2024-01-23_08h08.14.064,bars,2023.2.3,Win32,59.88023952,657b66ea316d21385b68909f,,,,,,,,,,,2195.6964,2196.6947,,,2197.1949,2197.4449,,43,223,,,,,,,,,,,,,,,,bars/022.png,bars/mask003.png,,,,,,,,,,,,1,2,,,,,,,0,4,1,5,,,,,,,,,,,2196.6948,2197.1949,2197.445,2200.4474,space,2.9841,,2200.4474,52,23,2201.445,2201.4451,2201.4543,,,,0,46,46,46,1,95,20,,,,,,,,
,,60a0dfc6f9936b0d30dfea15,65af578aca620457d06d5905,2024-01-23_08h08.14.064,bars,2023.2.3,Win32,59.88023952,657b66ea316d21385b68909f,,,,,,,,,,,2201.4545,2202.4452,,,2202.9453,2203.1952,,56,236,,,,,,,,,,,,,,,,bars/017.png,bars/mask001.png,,,,,,,,,,,,1,2,,,,,,,0,2,0,2,,,,,,,,,,,2202.4453,2202.9452,2203.1953,2205.8476,space,2.634,,2205.8476,89,11,2206.8453,2206.8453,2206.8622,,,,0,47,47,47,1,145,45,,,,,,,,
,,60a0dfc6f9936b0d30dfea15,65af578aca620457d06d5905,2024-01-23_08h08.14.064,bars,2023.2.3,Win32,59.88023952,657b66ea316d21385b68909f,,,,,,,,,,,2206.8625,2207.862,,,2208.3639,2208.6119,,65,65,,,,,,,,,,,,,,,,bars/044.png,bars/mask009.png,,,,,,,,,,,,1,1,,,,,,,0,0,1,0,,,,,,,,,,,2207.8621,2208.3639,2208.6119,2210.0454,space,1.4134,,2210.0454,10,90,2211.0454,2211.0455,2211.0668,,,,0,48,48,48,1,75,155,,,,,,,,
,,60a0dfc6f9936b0d30dfea15,65af578aca620457d06d5905,2024-01-23_08h08.14.064,bars,2023.2.3,Win32,59.88023952,657b66ea316d21385b68909f,,,,,,,,,,,2211.0671,2212.0622,,,2212.5622,2212.8122,,10,10,,,,,,,,,,,,,,,,bars/032.png,bars/mask001.png,,,,,,,,,,,,1,2,,,,,,,2,2,4,1,,,,,,,,,,,2212.0622,2212.5621,2212.8122,2215.2149,space,2.4,,2215.2149,65,10,2216.2123,2216.2123,2216.2147,,,,0,49,49,49,1,125,20,,,,,,,,
,,60a0dfc6f9936b0d30dfea15,65af578aca620457d06d5905,2024-01-23_08h08.14.064,bars,2023.2.3,Win32,59.88023952,657b66ea316d21385b68909f,,,,,,,,,,,,,,,,,,,,,,,,,,,,,,,,,,,,,,,,,,,,,,,,,,,,,,,,,,,,,,,,,,,,,,,,,,,,,,,,,,,,,,,,,,,,,2216.2148,2276.2148,0,3,3,1,1,sequence_tables/blk044.csv
,,60a0dfc6f9936b0d30dfea15,65af578aca620457d06d5905,2024-01-23_08h08.14.064,bars,2023.2.3,Win32,59.88023952,657b66ea316d21385b68909f,,,,,,,,,,,2284.1221,2285.1149,,,2285.6147,2285.865,,133,133,,,,,,,,,,,,,,,,bars/000.png,bars/mask009.png,,,,,,,,,,,,3,2,,,,,,,5,5,4,5,,,,,,2276.2316,2284.101,space,7.8663,,2285.1149,2285.6146,2285.865,2287.9484,space,2.0575,,2287.9485,87,12,2288.9484,2288.9484,2288.9667,,,,0,0,0,0,1,40,145,,,,,,,,
,,60a0dfc6f9936b0d30dfea15,65af578aca620457d06d5905,2024-01-23_08h08.14.064,bars,2023.2.3,Win32,59.88023952,657b66ea316d21385b68909f,,,,,,,,,,,2288.9671,2289.9648,,,2290.4648,2290.7151,,139,139,,,,,,,,,,,,,,,,bars/043.png,bars/mask007.png,,,,,,,,,,,,1,2,,,,,,,3,3,2,2,,,,,,,,,,,2289.9648,2290.4648,2290.7151,2294.132,space,3.4142,,2294.132,71,9,2295.1317,2295.1317,2295.1394,,,,0,1,1,1,1,30,130,,,,,,,,
,,60a0dfc6f9936b0d30dfea15,65af578aca620457d06d5905,2024-01-23_08h08.14.064,bars,2023.2.3,Win32,59.88023952,657b66ea316d21385b68909f,,,,,,,,,,,2295.1396,2296.1318,,,2296.6321,2296.882,,139,139,,,,,,,,,,,,,,,,bars/003.png,bars/mask008.png,,,,,,,,,,,,1,2,,,,,,,5,1,6,1,,,,,,,,,,,2296.1319,2296.632,2296.882,2298.5821,space,1.6876,,2298.5821,66,1,2299.582,2299.5821,2299.5828,,,,0,2,2,2,1,25,140,,,,,,,,
,,60a0dfc6f9936b0d30dfea15,65af578aca620457d06d5905,2024-01-23_08h08.14.064,bars,2023.2.3,Win32,59.88023952,657b66ea316d21385b68909f,,,,,,,,,,,2299.5832,2300.5821,,,2301.0821,2301.3319,,122,122,,,,,,,,,,,,,,,,bars/023.png,bars/mask004.png,,,,,,,,,,,,3,2,,,,,,,3,3,5,4,,,,,,,,,,,2300.5821,2301.0821,2301.332,2305.0987,space,3.7409,,2305.0988,78,7,2306.0987,2306.0987,2306.1065,,,,0,3,3,3,1,20,115,,,,,,,,
,,60a0dfc6f9936b0d30dfea15,65af578aca620457d06d5905,2024-01-23_08h08.14.064,bars,2023.2.3,Win32,59.88023952,657b66ea316d21385b68909f,,,,,,,,,,,2306.1067,2307.099,,,2307.6009,2307.8487,,21,21,,,,,,,,,,,,,,,,bars/040.png,bars/mask008.png,,,,,,,,,,,,2,2,,,,,,,1,5,1,5,,,,,,,,,,,2307.0991,2307.6009,2307.8487,2310.7324,space,2.8643,,2310.7325,61,16,2311.7326,2311.7326,2311.7504,,,,0,4,4,4,1,140,5,,,,,,,,
,,60a0dfc6f9936b0d30dfea15,65af578aca620457d06d5905,2024-01-23_08h08.14.064,bars,2023.2.3,Win32,59.88023952,657b66ea316d21385b68909f,,,,,,,,,,,2311.7507,2312.7491,,,2313.2492,2313.4991,,48,48,,,,,,,,,,,,,,,,bars/007.png,bars/mask001.png,,,,,,,,,,,,2,2,,,,,,,0,3,0,2,,,,,,,,,,,2312.7492,2313.2492,2313.4992,2315.8494,space,2.3421,,2315.8494,53,7,2316.8495,2316.8495,2316.8696,,,,0,5,5,5,1,175,55,,,,,,,,
,,60a0dfc6f9936b0d30dfea15,65af578aca620457d06d5905,2024-01-23_08h08.14.064,bars,2023.2.3,Win32,59.88023952,657b66ea316d21385b68909f,,,,,,,,,,,2316.87,2317.866,,,2318.3661,2318.616,,36,36,,,,,,,,,,,,,,,,bars/013.png,bars/mask003.png,,,,,,,,,,,,0,2,,,,,,,2,1,3,1,,,,,,,,,,,2317.866,2318.366,2318.6161,2319.933,space,1.3133,,2319.9331,39,26,2320.9329,2320.9329,2320.9337,,,,0,6,6,6,1,75,10,,,,,,,,
,,60a0dfc6f9936b0d30dfea15,65af578aca620457d06d5905,2024-01-23_08h08.14.064,bars,2023.2.3,Win32,59.88023952,657b66ea316d21385b68909f,,,,,,,,,,,2320.9341,2321.9328,,,2322.4329,2322.6829,,149,149,,,,,,,,,,,,,,,,bars/008.png,bars/mask001.png,,,,,,,,,,,,0,2,,,,,,,4,3,5,3,,,,,,,,,,,2321.9328,2322.4329,2322.6829,2325.7831,space,3.0942,,2325.7832,39,31,2326.783,2326.783,2326.7905,,,,0,7,7,7,1,110,0,,,,,,,,
,,60a0dfc6f9936b0d30dfea15,65af578aca620457d06d5905,2024-01-23_08h08.14.064,bars,2023.2.3,Win32,59.88023952,657b66ea316d21385b68909f,,,,,,,,,,,2326.7907,2327.783,,,2328.283,2328.533,,164,164,,,,,,,,,,,,,,,,bars/012.png,bars/mask003.png,,,,,,,,,,,,0,2,,,,,,,2,5,1,6,,,,,,,,,,,2327.783,2328.283,2328.533,2332.6999,space,4.14,,2332.6999,74,31,2333.6997,2333.6998,2333.7071,,,,0,8,8,8,1,90,15,,,,,,,,
,,60a0dfc6f9936b0d30dfea15,65af578aca620457d06d5905,2024-01-23_08h08.14.064,bars,2023.2.3,Win32,59.88023952,657b66ea316d21385b68909f,,,,,,,,,,,2333.7073,2334.6998,,,2335.1998,2335.4498,,156,156,,,,,,,,,,,,,,,,bars/001.png,bars/mask008.png,,,,,,,,,,,,1,1,,,,,,,4,3,4,4,,,,,,,,,,,2334.6998,2335.1998,2335.4498,2337.5168,space,2.0391,,2337.5168,26,71,2338.5166,2338.5166,2338.5249,,,,0,9,9,9,1,130,85,,,,,,,,
