init_variables.started,init_variables.stopped,participant,session,date,expName,psychopyVersion,OS,frameRate,study_id,instruction_exp.started,instruction_exp.stopped,key_resp_8.keys,key_resp_8.rt,key_resp_8.duration,instruction_single.started,instruction_single.stopped,key_resp_2.keys,key_resp_2.rt,key_resp_2.duration,interval.started,interval.stopped,cue_single.started,cue_single.stopped,mask.started,mask.stopped,ori_response_single.started,res_ori,res,ori_response_single.stopped,key_resp_single.keys,key_resp_single.rt,key_resp_single.duration,disp_single.started,disp_single.stopped,key_resp.keys,key_resp.rt,key_resp.duration,single.thisRepN,single.thisTrialN,single.thisN,single.thisIndex,single.ran,ori,path,mask_path,instruction_bandit.started,instruction_bandit.stopped,key_resp_6.keys,key_resp_6.rt,key_resp_6.duration,cue_bandit.started,cue_bandit.stopped,bandit_res.keys,bandit_res.rt,bandit_res.duration,outcome_bandit.started,rew,action,outcome_bandit.stopped,bandit.thisRepN,bandit.thisTrialN,bandit.thisN,bandit.thisIndex,bandit.ran,actual_rew1,actual_rew2,rew1,rew2,instruction_task.started,instruction_task.stopped,key_resp_7.keys,key_resp_7.rt,key_resp_7.duration,wait_ready.started,wait_ready.stopped,key_resp_3.keys,key_resp_3.rt,key_resp_3.duration,cue.started,cue.stopped,ori_response.started,ori_response.stopped,key_resp_5.keys,key_resp_5.rt,key_resp_5.duration,outcome.started,diff1,diff2,outcome.stopped,disp_outcome_practice.started,disp_outcome_practice.stopped,key_resp_4.keys,key_resp_4.rt,key_resp_4.duration,trials.thisRepN,trials.thisTrialN,trials.thisN,trials.thisIndex,trials.ran,ori1,ori2,break_blk.started,break_blk.stopped,block.thisRepN,block.thisTrialN,block.thisN,block.thisIndex,block.ran,condition_file
0.005,0.0057,60d3b726feef642a15b86870,65af572ea12c3b109d6ba408,2024-01-23_07h06.05.976,bars,2023.2.3,Win32,59.88023952,657b66ea316d21385b68909f,,,,,,,,,,,,,,,,,,,,,,,,,,,,,,,,,,,,,,,,,,,,,,,,,,,,,,,,,,,,,,,,,,,,,,,,,,,,,,,,,,,,,,,,,,,,,,,,,,,,
,,60d3b726feef642a15b86870,65af572ea12c3b109d6ba408,2024-01-23_07h06.05.976,bars,2023.2.3,Win32,59.88023952,657b66ea316d21385b68909f,0.0067,9.9897,y,9.9542,,,,,,,,,,,,,,,,,,,,,,,,,,,,,,,,,,,,,,,,,,,,,,,,,,,,,,,,,,,,,,,,,,,,,,,,,,,,,,,,,,,,,,,,,,,,,,,,
,,60d3b726feef642a15b86870,65af572ea12c3b109d6ba408,2024-01-23_07h06.05.976,bars,2023.2.3,Win32,59.88023952,657b66ea316d21385b68909f,,,,,,9.9906,17.371,space,7.3535,,,,,,,,,,,,,,,,,,,,,,,,,,,,,,,,,,,,,,,,,,,,,,,,,,,,,,,,,,,,,,,,,,,,,,,,,,,,,,,,,,,,,,,,,,,
,,60d3b726feef642a15b86870,65af572ea12c3b109d6ba408,2024-01-23_07h06.05.976,bars,2023.2.3,Win32,59.88023952,657b66ea316d21385b68909f,,,,,,,,,,,17.3968,18.3872,18.3882,18.8872,18.8878,19.1376,19.1384,0,0,31.9201,space,12.7397,,31.9213,38.7186,space,6.7589,,0,0,0,8,1,160,bars/single008.png,bars/mask004.png,,,,,,,,,,,,,,,,,,,,,,,,,,,,,,,,,,,,,,,,,,,,,,,,,,,,,,,,,,,,,,,,
,,60d3b726feef642a15b86870,65af572ea12c3b109d6ba408,2024-01-23_07h06.05.976,bars,2023.2.3,Win32,59.88023952,657b66ea316d21385b68909f,,,,,,,,,,,38.721,39.7176,39.7177,40.2175,40.2176,40.4675,40.4676,27,207,48.5008,space,8.0185,,48.5018,55.2333,space,6.6897,,0,1,1,0,1,150,bars/single000.png,bars/mask006.png,,,,,,,,,,,,,,,,,,,,,,,,,,,,,,,,,,,,,,,,,,,,,,,,,,,,,,,,,,,,,,,,
,,60d3b726feef642a15b86870,65af572ea12c3b109d6ba408,2024-01-23_07h06.05.976,bars,2023.2.3,Win32,59.88023952,657b66ea316d21385b68909f,,,,,,,,,,,55.2461,56.2495,56.2495,56.7495,56.7496,56.9994,56.9995,147,147,62.5326,space,5.5177,,62.5326,64.5327,space,1.9702,,0,2,2,1,1,20,bars/single001.png,bars/mask006.png,,,,,,,,,,,,,,,,,,,,,,,,,,,,,,,,,,,,,,,,,,,,,,,,,,,,,,,,,,,,,,,,
,,60d3b726feef642a15b86870,65af572ea12c3b109d6ba408,2024-01-23_07h06.05.976,bars,2023.2.3,Win32,59.88023952,657b66ea316d21385b68909f,,,,,,,,,,,64.5339,65.5322,65.5322,66.0322,66.0323,66.2823,66.2824,147,147,70.132,space,3.837,,70.1322,72.5986,space,2.4371,,0,3,3,2,1,145,bars/single002.png,bars/mask003.png,,,,,,,,,,,,,,,,,,,,,,,,,,,,,,,,,,,,,,,,,,,,,,,,,,,,,,,,,,,,,,,,
,,60d3b726feef642a15b86870,65af572ea12c3b109d6ba408,2024-01-23_07h06.05.976,bars,2023.2.3,Win32,59.88023952,657b66ea316d21385b68909f,,,,,,,,,,,72.5996,73.5982,73.5983,74.0982,74.0982,74.3483,74.3483,146,146,80.3985,space,6.0377,,80.3986,83.6978,space,3.2544,,0,4,4,6,1,175,bars/single006.png,bars/mask005.png,,,,,,,,,,,,,,,,,,,,,,,,,,,,,,,,,,,,,,,,,,,,,,,,,,,,,,,,,,,,,,,,
,,60d3b726feef642a15b86870,65af572ea12c3b109d6ba408,2024-01-23_07h06.05.976,bars,2023.2.3,Win32,59.88023952,657b66ea316d21385b68909f,,,,,,,,,,,83.7134,84.7141,84.7141,85.2141,85.2141,85.4642,85.4642,169,169,87.2312,space,1.7509,,87.2315,88.7317,space,1.492,,0,5,5,9,1,20,bars/single009.png,bars/mask006.png,,,,,,,,,,,,,,,,,,,,,,,,,,,,,,,,,,,,,,,,,,,,,,,,,,,,,,,,,,,,,,,,
,,60d3b726feef642a15b86870,65af572ea12c3b109d6ba408,2024-01-23_07h06.05.976,bars,2023.2.3,Win32,59.88023952,657b66ea316d21385b68909f,,,,,,,,,,,88.734,89.7309,89.7311,90.2312,90.2312,90.4812,90.4814,2,2,91.8477,space,1.3582,,91.8479,93.8977,space,2.0378,,0,6,6,5,1,55,bars/single005.png,bars/mask008.png,,,,,,,,,,,,,,,,,,,,,,,,,,,,,,,,,,,,,,,,,,,,,,,,,,,,,,,,,,,,,,,,
,,60d3b726feef642a15b86870,65af572ea12c3b109d6ba408,2024-01-23_07h06.05.976,bars,2023.2.3,Win32,59.88023952,657b66ea316d21385b68909f,,,,,,,,,,,93.8988,94.897,94.8971,95.3973,95.3973,95.6472,95.6473,32,212,99.2303,space,3.5759,,99.2303,101.8797,space,2.6234,,0,7,7,7,1,45,bars/single007.png,bars/mask009.png,,,,,,,,,,,,,,,,,,,,,,,,,,,,,,,,,,,,,,,,,,,,,,,,,,,,,,,,,,,,,,,,
,,60d3b726feef642a15b86870,65af572ea12c3b109d6ba408,2024-01-23_07h06.05.976,bars,2023.2.3,Win32,59.88023952,657b66ea316d21385b68909f,,,,,,,,,,,101.8803,102.8797,102.8797,103.3796,103.3796,103.6298,103.6298,35,215,107.0135,space,3.37,,107.0136,108.4139,space,1.3801,,0,8,8,4,1,95,bars/single004.png,bars/mask004.png,,,,,,,,,,,,,,,,,,,,,,,,,,,,,,,,,,,,,,,,,,,,,,,,,,,,,,,,,,,,,,,,
,,60d3b726feef642a15b86870,65af572ea12c3b109d6ba408,2024-01-23_07h06.05.976,bars,2023.2.3,Win32,59.88023952,657b66ea316d21385b68909f,,,,,,,,,,,108.4161,109.413,109.413,109.9127,109.9127,110.1628,110.1628,161,-19,115.2642,space,5.0886,,115.2645,116.4625,space,1.1545,,0,9,9,3,1,20,bars/single003.png,bars/mask005.png,,,,,,,,,,,,,,,,,,,,,,,,,,,,,,,,,,,,,,,,,,,,,,,,,,,,,,,,,,,,,,,,
,,60d3b726feef642a15b86870,65af572ea12c3b109d6ba408,2024-01-23_07h06.05.976,bars,2023.2.3,Win32,59.88023952,657b66ea316d21385b68909f,,,,,,,,,,,,,,,,,,,,,,,,,,,,,,,,,,,,,116.4659,128.9137,space,12.4272,,,,,,,,,,,,,,,,,,,,,,,,,,,,,,,,,,,,,,,,,,,,,,,,,,,,,,,,,,,,
,,60d3b726feef642a15b86870,65af572ea12c3b109d6ba408,2024-01-23_07h06.05.976,bars,2023.2.3,Win32,59.88023952,657b66ea316d21385b68909f,,,,,,,,,,,,,,,,,,,,,,,,,,,,,,,,,,,,,,,,,,128.9474,131.8135,left,2.845,,131.8142,9,1,132.8115,0,0,0,0,1,9,1,9,2,,,,,,,,,,,,,,,,,,,,,,,,,,,,,,,,,,,,,,,,,
,,60d3b726feef642a15b86870,65af572ea12c3b109d6ba408,2024-01-23_07h06.05.976,bars,2023.2.3,Win32,59.88023952,657b66ea316d21385b68909f,,,,,,,,,,,,,,,,,,,,,,,,,,,,,,,,,,,,,,,,,,132.8138,134.9779,right,2.1538,,134.9779,1,2,135.9773,0,1,1,1,1,10,0,10,1,,,,,,,,,,,,,,,,,,,,,,,,,,,,,,,,,,,,,,,,,
,,60d3b726feef642a15b86870,65af572ea12c3b109d6ba408,2024-01-23_07h06.05.976,bars,2023.2.3,Win32,59.88023952,657b66ea316d21385b68909f,,,,,,,,,,,,,,,,,,,,,,,,,,,,,,,,,,,,,,,,,,136.001,136.3445,left,0.3276,,136.3447,10,1,137.344,0,2,2,2,1,10,2,10,2,,,,,,,,,,,,,,,,,,,,,,,,,,,,,,,,,,,,,,,,,
,,60d3b726feef642a15b86870,65af572ea12c3b109d6ba408,2024-01-23_07h06.05.976,bars,2023.2.3,Win32,59.88023952,657b66ea316d21385b68909f,,,,,,,,,,,,,,,,,,,,,,,,,,,,,,,,,,,,,,,,,,137.346,137.8945,left,0.5336,,137.8948,7,1,138.8939,0,3,3,3,1,8,4,7,3,,,,,,,,,,,,,,,,,,,,,,,,,,,,,,,,,,,,,,,,,
,,60d3b726feef642a15b86870,65af572ea12c3b109d6ba408,2024-01-23_07h06.05.976,bars,2023.2.3,Win32,59.88023952,657b66ea316d21385b68909f,,,,,,,,,,,,,,,,,,,,,,,,,,,,,,,,,,,,,,,,,,138.8949,139.3776,right,0.4737,,139.3777,1,2,140.377,0,4,4,4,1,6,2,5,1,,,,,,,,,,,,,,,,,,,,,,,,,,,,,,,,,,,,,,,,,
,,60d3b726feef642a15b86870,65af572ea12c3b109d6ba408,2024-01-23_07h06.05.976,bars,2023.2.3,Win32,59.88023952,657b66ea316d21385b68909f,,,,,,,,,,,,,,,,,,,,,,,,,,,,,,,,,,,,,,,,,,140.378,140.7442,left,0.3487,,140.7444,4,1,141.7436,0,5,5,5,1,4,4,4,4,,,,,,,,,,,,,,,,,,,,,,,,,,,,,,,,,,,,,,,,,
,,60d3b726feef642a15b86870,65af572ea12c3b109d6ba408,2024-01-23_07h06.05.976,bars,2023.2.3,Win32,59.88023952,657b66ea316d21385b68909f,,,,,,,,,,,,,,,,,,,,,,,,,,,,,,,,,,,,,,,,,,141.7447,142.2609,left,0.4997,,142.2611,1,1,143.2603,0,6,6,6,1,2,2,1,2,,,,,,,,,,,,,,,,,,,,,,,,,,,,,,,,,,,,,,,,,
,,60d3b726feef642a15b86870,65af572ea12c3b109d6ba408,2024-01-23_07h06.05.976,bars,2023.2.3,Win32,59.88023952,657b66ea316d21385b68909f,,,,,,,,,,,,,,,,,,,,,,,,,,,,,,,,,,,,,,,,,,143.2613,143.7438,right,0.4673,,143.7438,1,2,144.7435,0,7,7,7,1,0,0,0,1,,,,,,,,,,,,,,,,,,,,,,,,,,,,,,,,,,,,,,,,,
,,60d3b726feef642a15b86870,65af572ea12c3b109d6ba408,2024-01-23_07h06.05.976,bars,2023.2.3,Win32,59.88023952,657b66ea316d21385b68909f,,,,,,,,,,,,,,,,,,,,,,,,,,,,,,,,,,,,,,,,,,144.7443,145.044,left,0.2811,,145.044,1,1,146.0433,0,8,8,8,1,0,2,1,0,,,,,,,,,,,,,,,,,,,,,,,,,,,,,,,,,,,,,,,,,
,,60d3b726feef642a15b86870,65af572ea12c3b109d6ba408,2024-01-23_07h06.05.976,bars,2023.2.3,Win32,59.88023952,657b66ea316d21385b68909f,,,,,,,,,,,,,,,,,,,,,,,,,,,,,,,,,,,,,,,,,,146.0443,146.6936,left,0.6337,,146.6937,2,1,147.693,0,9,9,9,1,2,4,2,3,,,,,,,,,,,,,,,,,,,,,,,,,,,,,,,,,,,,,,,,,
,,60d3b726feef642a15b86870,65af572ea12c3b109d6ba408,2024-01-23_07h06.05.976,bars,2023.2.3,Win32,59.88023952,657b66ea316d21385b68909f,,,,,,,,,,,,,,,,,,,,,,,,,,,,,,,,,,,,,,,,,,147.6942,148.2268,left,0.5247,,148.227,0,1,149.2264,0,10,10,10,1,0,2,0,3,,,,,,,,,,,,,,,,,,,,,,,,,,,,,,,,,,,,,,,,,
,,60d3b726feef642a15b86870,65af572ea12c3b109d6ba408,2024-01-23_07h06.05.976,bars,2023.2.3,Win32,59.88023952,657b66ea316d21385b68909f,,,,,,,,,,,,,,,,,,,,,,,,,,,,,,,,,,,,,,,,,,149.2274,149.6272,left,0.3847,,149.6273,0,1,150.6263,0,11,11,11,1,0,4,0,3,,,,,,,,,,,,,,,,,,,,,,,,,,,,,,,,,,,,,,,,,
,,60d3b726feef642a15b86870,65af572ea12c3b109d6ba408,2024-01-23_07h06.05.976,bars,2023.2.3,Win32,59.88023952,657b66ea316d21385b68909f,,,,,,,,,,,,,,,,,,,,,,,,,,,,,,,,,,,,,,,,,,150.6274,150.8602,right,0.2149,,150.8603,6,2,151.8597,0,12,12,12,1,2,6,1,6,,,,,,,,,,,,,,,,,,,,,,,,,,,,,,,,,,,,,,,,,
,,60d3b726feef642a15b86870,65af572ea12c3b109d6ba408,2024-01-23_07h06.05.976,bars,2023.2.3,Win32,59.88023952,657b66ea316d21385b68909f,,,,,,,,,,,,,,,,,,,,,,,,,,,,,,,,,,,,,,,,,,151.8606,152.9768,right,1.104,,152.977,3,2,153.9762,0,13,13,13,1,0,4,1,3,,,,,,,,,,,,,,,,,,,,,,,,,,,,,,,,,,,,,,,,,
,,60d3b726feef642a15b86870,65af572ea12c3b109d6ba408,2024-01-23_07h06.05.976,bars,2023.2.3,Win32,59.88023952,657b66ea316d21385b68909f,,,,,,,,,,,,,,,,,,,,,,,,,,,,,,,,,,,,,,,,,,153.9778,154.2598,left,0.2653,,154.2598,2,1,155.2592,0,14,14,14,1,2,6,2,7,,,,,,,,,,,,,,,,,,,,,,,,,,,,,,,,,,,,,,,,,
,,60d3b726feef642a15b86870,65af572ea12c3b109d6ba408,2024-01-23_07h06.05.976,bars,2023.2.3,Win32,59.88023952,657b66ea316d21385b68909f,,,,,,,,,,,,,,,,,,,,,,,,,,,,,,,,,,,,,,,,,,155.2604,155.5263,right,0.2564,,155.5263,9,2,156.5257,0,15,15,15,1,4,8,3,9,,,,,,,,,,,,,,,,,,,,,,,,,,,,,,,,,,,,,,,,,
,,60d3b726feef642a15b86870,65af572ea12c3b109d6ba408,2024-01-23_07h06.05.976,bars,2023.2.3,Win32,59.88023952,657b66ea316d21385b68909f,,,,,,,,,,,,,,,,,,,,,,,,,,,,,,,,,,,,,,,,,,156.5269,156.9766,right,0.4397,,156.9768,7,2,157.9757,0,16,16,16,1,6,6,7,7,,,,,,,,,,,,,,,,,,,,,,,,,,,,,,,,,,,,,,,,,
,,60d3b726feef642a15b86870,65af572ea12c3b109d6ba408,2024-01-23_07h06.05.976,bars,2023.2.3,Win32,59.88023952,657b66ea316d21385b68909f,,,,,,,,,,,,,,,,,,,,,,,,,,,,,,,,,,,,,,,,,,157.9768,158.2596,right,0.2684,,158.2597,5,2,159.259,0,17,17,17,1,8,4,9,5,,,,,,,,,,,,,,,,,,,,,,,,,,,,,,,,,,,,,,,,,
,,60d3b726feef642a15b86870,65af572ea12c3b109d6ba408,2024-01-23_07h06.05.976,bars,2023.2.3,Win32,59.88023952,657b66ea316d21385b68909f,,,,,,,,,,,,,,,,,,,,,,,,,,,,,,,,,,,,,,,,,,159.2601,159.576,left,0.308,,159.5763,5,1,160.5755,0,18,18,18,1,6,2,5,1,,,,,,,,,,,,,,,,,,,,,,,,,,,,,,,,,,,,,,,,,
,,60d3b726feef642a15b86870,65af572ea12c3b109d6ba408,2024-01-23_07h06.05.976,bars,2023.2.3,Win32,59.88023952,657b66ea316d21385b68909f,,,,,,,,,,,,,,,,,,,,,,,,,,,,,,,,,,,,,,,,,,160.5765,160.827,right,0.2382,,160.8271,0,2,161.8253,0,19,19,19,1,8,0,7,0,,,,,,,,,,,,,,,,,,,,,,,,,,,,,,,,,,,,,,,,,
,,60d3b726feef642a15b86870,65af572ea12c3b109d6ba408,2024-01-23_07h06.05.976,bars,2023.2.3,Win32,59.88023952,657b66ea316d21385b68909f,,,,,,,,,,,,,,,,,,,,,,,,,,,,,,,,,,,,,,,,,,,,,,,,,,,,,,,,,,,,161.8276,173.4275,space,11.5815,,,,,,,,,,,,,,,,,,,,,,,,,,,,,,,,,,,,,
,,60d3b726feef642a15b86870,65af572ea12c3b109d6ba408,2024-01-23_07h06.05.976,bars,2023.2.3,Win32,59.88023952,657b66ea316d21385b68909f,,,,,,,,,,,174.7013,175.6913,,,176.1922,176.4411,,8,188,,,,,,,,,,,,,,,,bars/032.png,bars/mask004.png,,,,,,,,,,,,5,2,,,,,,,9,8,9,9,,,,,,173.4569,174.6919,space,1.2158,,175.6923,176.1921,176.4417,181.6933,space,5.2343,,181.6944,63,12,182.6908,182.6914,185.8083,space,3.0919,,0,0,0,0,1,125,20,,,,,,,,
,,60d3b726feef642a15b86870,65af572ea12c3b109d6ba408,2024-01-23_07h06.05.976,bars,2023.2.3,Win32,59.88023952,657b66ea316d21385b68909f,,,,,,,,,,,185.8107,186.8068,,,187.307,187.557,,161,-19,,,,,,,,,,,,,,,,bars/049.png,bars/mask000.png,,,,,,,,,,,,7,1,,,,,,,7,10,7,10,,,,,,,,,,,186.8069,187.3069,187.557,191.6236,space,4.0585,,191.6242,1,46,192.6233,192.6233,192.7404,space,0.0819,,0,1,1,1,1,160,115,,,,,,,,
,,60d3b726feef642a15b86870,65af572ea12c3b109d6ba408,2024-01-23_07h06.05.976,bars,2023.2.3,Win32,59.88023952,657b66ea316d21385b68909f,,,,,,,,,,,192.7416,193.7397,,,194.2401,194.4901,,9,189,,,,,,,,,,,,,,,,bars/020.png,bars/mask006.png,,,,,,,,,,,,4,2,,,,,,,9,10,9,10,,,,,,,,,,,193.7399,194.24,194.4902,198.3228,space,3.816,,198.3228,74,19,199.3225,199.3225,200.7559,space,1.4005,,0,2,2,2,1,115,170,,,,,,,,
,,60d3b726feef642a15b86870,65af572ea12c3b109d6ba408,2024-01-23_07h06.05.976,bars,2023.2.3,Win32,59.88023952,657b66ea316d21385b68909f,,,,,,,,,,,200.7568,201.7555,,,202.2556,202.5056,,161,161,,,,,,,,,,,,,,,,bars/009.png,bars/mask006.png,,,,,,,,,,,,0,1,,,,,,,7,8,8,6,,,,,,,,,,,201.7556,202.2556,202.5057,206.9931,space,4.4761,,206.9933,34,56,207.9887,207.9888,211.9391,space,3.907,,0,3,3,3,1,15,105,,,,,,,,
,,60d3b726feef642a15b86870,65af572ea12c3b109d6ba408,2024-01-23_07h06.05.976,bars,2023.2.3,Win32,59.88023952,657b66ea316d21385b68909f,,,,,,,,,,,211.9414,212.9386,,,213.4385,213.6884,,166,-14,,,,,,,,,,,,,,,,bars/047.png,bars/mask003.png,,,,,,,,,,,,0,1,,,,,,,5,10,6,10,,,,,,,,,,,212.9387,213.4385,213.6886,218.6387,space,4.9353,,218.6391,29,84,219.638,219.6381,220.6724,space,0.9861,,0,4,4,4,1,15,70,,,,,,,,
,,60d3b726feef642a15b86870,65af572ea12c3b109d6ba408,2024-01-23_07h06.05.976,bars,2023.2.3,Win32,59.88023952,657b66ea316d21385b68909f,,,,,,,,,,,220.6735,221.671,,,222.1714,222.4214,,93,93,,,,,,,,,,,,,,,,bars/020.png,bars/mask006.png,,,,,,,,,,,,2,1,,,,,,,7,8,7,8,,,,,,,,,,,221.6711,222.1713,222.4215,226.2541,space,3.8202,,226.2542,22,77,227.2537,227.2538,228.6547,space,1.3769,,0,5,5,5,1,115,170,,,,,,,,
,,60d3b726feef642a15b86870,65af572ea12c3b109d6ba408,2024-01-23_07h06.05.976,bars,2023.2.3,Win32,59.88023952,657b66ea316d21385b68909f,,,,,,,,,,,228.6564,229.6539,,,230.154,230.404,,17,17,,,,,,,,,,,,,,,,bars/006.png,bars/mask007.png,,,,,,,,,,,,4,1,,,,,,,9,6,9,5,,,,,,,,,,,229.654,230.1539,230.4041,232.8543,space,2.4394,,232.8546,18,83,233.8536,233.8536,235.7877,space,1.8964,,0,6,6,6,1,35,100,,,,,,,,
,,60d3b726feef642a15b86870,65af572ea12c3b109d6ba408,2024-01-23_07h06.05.976,bars,2023.2.3,Win32,59.88023952,657b66ea316d21385b68909f,,,,,,,,,,,235.7899,236.7866,,,237.2869,237.5365,,30,30,,,,,,,,,,,,,,,,bars/031.png,bars/mask007.png,,,,,,,,,,,,2,2,,,,,,,7,4,7,2,,,,,,,,,,,236.7867,237.2868,237.5366,239.6701,space,2.1169,,239.6702,90,5,240.6701,240.6702,242.7872,space,2.0672,,0,7,7,7,1,120,35,,,,,,,,
,,60d3b726feef642a15b86870,65af572ea12c3b109d6ba408,2024-01-23_07h06.05.976,bars,2023.2.3,Win32,59.88023952,657b66ea316d21385b68909f,,,,,,,,,,,242.7893,243.7862,,,244.2864,244.5361,,33,33,,,,,,,,,,,,,,,,bars/047.png,bars/mask000.png,,,,,,,,,,,,2,1,,,,,,,5,2,6,3,,,,,,,,,,,243.7863,244.2862,244.5361,244.5698,space,0.026,,244.5701,18,37,245.5691,245.5692,249.9545,space,4.3603,,0,8,8,8,1,15,70,,,,,,,,
,,60d3b726feef642a15b86870,65af572ea12c3b109d6ba408,2024-01-23_07h06.05.976,bars,2023.2.3,Win32,59.88023952,657b66ea316d21385b68909f,,,,,,,,,,,249.9814,250.9688,,,251.4687,251.7187,,20,20,,,,,,,,,,,,,,,,bars/039.png,bars/mask002.png,,,,,,,,,,,,1,1,,,,,,,7,4,8,4,,,,,,,,,,,250.9688,251.4686,251.7188,254.8851,space,3.1503,,254.8853,25,85,255.8848,255.885,257.4516,space,1.5441,,0,9,9,9,1,175,105,,,,,,,,
,,60d3b726feef642a15b86870,65af572ea12c3b109d6ba408,2024-01-23_07h06.05.976,bars,2023.2.3,Win32,59.88023952,657b66ea316d21385b68909f,,,,,,,,,,,257.4529,258.4513,,,258.9514,259.2013,,24,204,,,,,,,,,,,,,,,,bars/046.png,bars/mask004.png,,,,,,,,,,,,0,1,,,,,,,9,2,10,2,,,,,,,,,,,258.4514,258.9514,259.2014,263.1186,space,3.9047,,263.1187,49,61,264.1183,264.1184,264.9181,space,0.7579,,0,10,10,10,1,155,85,,,,,,,,
,,60d3b726feef642a15b86870,65af572ea12c3b109d6ba408,2024-01-23_07h06.05.976,bars,2023.2.3,Win32,59.88023952,657b66ea316d21385b68909f,,,,,,,,,,,264.9194,265.918,,,266.418,266.6681,,132,132,,,,,,,,,,,,,,,,bars/003.png,bars/mask009.png,,,,,,,,,,,,0,2,,,,,,,7,0,7,0,,,,,,,,,,,265.918,266.4179,266.6682,269.0511,space,2.3695,,269.0515,73,8,270.0509,270.0511,271.5016,space,1.4014,,0,11,11,11,1,25,140,,,,,,,,
,,60d3b726feef642a15b86870,65af572ea12c3b109d6ba408,2024-01-23_07h06.05.976,bars,2023.2.3,Win32,59.88023952,657b66ea316d21385b68909f,,,,,,,,,,,271.5031,272.5007,,,273.001,273.2509,,26,206,,,,,,,,,,,,,,,,bars/022.png,bars/mask008.png,,,,,,,,,,,,0,2,,,,,,,9,0,9,0,,,,,,,,,,,272.5009,273.0008,273.2509,275.9179,space,2.6515,,275.9181,69,6,276.9172,276.9174,278.3846,space,1.4191,,0,12,12,12,1,95,20,,,,,,,,
,,60d3b726feef642a15b86870,65af572ea12c3b109d6ba408,2024-01-23_07h06.05.976,bars,2023.2.3,Win32,59.88023952,657b66ea316d21385b68909f,,,,,,,,,,,278.3872,279.3838,,,279.8841,280.134,,43,43,,,,,,,,,,,,,,,,bars/037.png,bars/mask002.png,,,,,,,,,,,,0,2,,,,,,,10,0,10,2,,,,,,,,,,,279.3839,279.884,280.1341,281.5009,space,1.3502,,281.501,73,62,282.5004,282.5005,283.2357,space,0.6816,,0,13,13,13,1,150,105,,,,,,,,
,,60d3b726feef642a15b86870,65af572ea12c3b109d6ba408,2024-01-23_07h06.05.976,bars,2023.2.3,Win32,59.88023952,657b66ea316d21385b68909f,,,,,,,,,,,283.2378,284.2337,,,284.7339,284.9835,,163,-17,,,,,,,,,,,,,,,,bars/028.png,bars/mask005.png,,,,,,,,,,,,0,2,,,,,,,10,2,8,0,,,,,,,,,,,284.2339,284.7338,284.9836,290.1838,space,5.1842,,290.184,62,43,291.1831,291.1832,292.0171,space,0.7856,,0,14,14,14,1,45,120,,,,,,,,
,,60d3b726feef642a15b86870,65af572ea12c3b109d6ba408,2024-01-23_07h06.05.976,bars,2023.2.3,Win32,59.88023952,657b66ea316d21385b68909f,,,,,,,,,,,292.0187,293.0164,,,293.5164,293.7663,,9,9,,,,,,,,,,,,,,,,bars/018.png,bars/mask004.png,,,,,,,,,,,,0,1,,,,,,,8,4,8,4,,,,,,,,,,,293.0166,293.5162,293.7665,296.2346,space,2.4492,,296.2348,39,81,297.232,297.2322,298.7994,space,1.5297,,0,15,15,15,1,150,90,,,,,,,,
,,60d3b726feef642a15b86870,65af572ea12c3b109d6ba408,2024-01-23_07h06.05.976,bars,2023.2.3,Win32,59.88023952,657b66ea316d21385b68909f,,,,,,,,,,,298.801,299.7987,,,300.2992,300.549,,173,173,,,,,,,,,,,,,,,,bars/039.png,bars/mask002.png,,,,,,,,,,,,9,1,,,,,,,10,2,10,2,,,,,,,,,,,299.7989,300.299,300.5492,302.366,space,1.8019,,302.3662,2,68,303.3653,303.3655,305.3512,space,1.9442,,0,16,16,16,1,175,105,,,,,,,,
,,60d3b726feef642a15b86870,65af572ea12c3b109d6ba408,2024-01-23_07h06.05.976,bars,2023.2.3,Win32,59.88023952,657b66ea316d21385b68909f,,,,,,,,,,,305.352,306.3483,,,306.8489,307.0987,,155,155,,,,,,,,,,,,,,,,bars/021.png,bars/mask003.png,,,,,,,,,,,,8,1,,,,,,,8,0,8,1,,,,,,,,,,,306.3485,306.8486,307.0988,309.6988,space,2.584,,309.699,0,85,310.6981,310.6983,312.5494,space,1.8088,,0,17,17,17,1,155,70,,,,,,,,
,,60d3b726feef642a15b86870,65af572ea12c3b109d6ba408,2024-01-23_07h06.05.976,bars,2023.2.3,Win32,59.88023952,657b66ea316d21385b68909f,,,,,,,,,,,312.5511,313.5479,,,314.0482,314.298,,10,10,,,,,,,,,,,,,,,,bars/002.png,bars/mask002.png,,,,,,,,,,,,0,1,,,,,,,6,0,5,0,,,,,,,,,,,313.5481,314.048,314.2981,316.9492,space,2.636,,316.9495,60,75,317.9477,317.9479,318.9815,space,0.9888,,0,18,18,18,1,130,85,,,,,,,,
,,60d3b726feef642a15b86870,65af572ea12c3b109d6ba408,2024-01-23_07h06.05.976,bars,2023.2.3,Win32,59.88023952,657b66ea316d21385b68909f,,,,,,,,,,,318.9835,319.9807,,,320.4811,320.731,,139,139,,,,,,,,,,,,,,,,bars/000.png,bars/mask000.png,,,,,,,,,,,,0,2,,,,,,,8,0,9,0,,,,,,,,,,,319.9809,320.4809,320.7313,325.2476,space,4.5005,,325.248,81,6,326.2472,326.2473,327.1146,space,0.8132,,0,19,19,19,1,40,145,,,,,,,,
,,60d3b726feef642a15b86870,65af572ea12c3b109d6ba408,2024-01-23_07h06.05.976,bars,2023.2.3,Win32,59.88023952,657b66ea316d21385b68909f,,,,,,,,,,,327.1163,328.1135,,,328.614,328.8637,,157,157,,,,,,,,,,,,,,,,bars/008.png,bars/mask002.png,,,,,,,,,,,,0,2,,,,,,,6,2,5,1,,,,,,,,,,,328.1137,328.6137,328.864,332.1641,space,3.2841,,332.1642,47,23,333.1632,333.1634,334.3971,space,1.1925,,0,20,20,20,1,110,0,,,,,,,,
,,60d3b726feef642a15b86870,65af572ea12c3b109d6ba408,2024-01-23_07h06.05.976,bars,2023.2.3,Win32,59.88023952,657b66ea316d21385b68909f,,,,,,,,,,,334.3988,335.3963,,,335.8969,336.1463,,15,15,,,,,,,,,,,,,,,,bars/028.png,bars/mask001.png,,,,,,,,,,,,0,1,,,,,,,4,0,4,0,,,,,,,,,,,335.3966,335.8968,336.1465,338.5982,space,2.4418,,338.5983,30,75,339.5959,339.5961,340.447,space,0.7974,,0,21,21,21,1,45,120,,,,,,,,
,,60d3b726feef642a15b86870,65af572ea12c3b109d6ba408,2024-01-23_07h06.05.976,bars,2023.2.3,Win32,59.88023952,657b66ea316d21385b68909f,,,,,,,,,,,340.45,341.4463,,,341.9463,342.1962,,30,210,,,,,,,,,,,,,,,,bars/029.png,bars/mask000.png,,,,,,,,,,,,0,2,,,,,,,6,0,5,0,,,,,,,,,,,341.4464,341.9461,342.1963,345.7795,space,3.5694,,345.7797,60,15,346.7789,346.7791,348.2466,space,1.414,,0,22,22,22,1,90,45,,,,,,,,
,,60d3b726feef642a15b86870,65af572ea12c3b109d6ba408,2024-01-23_07h06.05.976,bars,2023.2.3,Win32,59.88023952,657b66ea316d21385b68909f,,,,,,,,,,,348.2486,349.2455,,,349.7454,349.9954,,12,192,,,,,,,,,,,,,,,,bars/040.png,bars/mask009.png,,,,,,,,,,,,0,2,,,,,,,4,0,4,0,,,,,,,,,,,349.2456,349.7453,349.9956,353.7459,space,3.734,,353.7466,52,7,354.7451,354.7452,355.5124,space,0.7225,,0,23,23,23,1,140,5,,,,,,,,
,,60d3b726feef642a15b86870,65af572ea12c3b109d6ba408,2024-01-23_07h06.05.976,bars,2023.2.3,Win32,59.88023952,657b66ea316d21385b68909f,,,,,,,,,,,355.5142,356.5114,,,357.0116,357.2616,,147,-33,,,,,,,,,,,,,,,,bars/038.png,bars/mask008.png,,,,,,,,,,,,2,1,,,,,,,6,0,5,0,,,,,,,,,,,356.5115,357.0115,357.2617,360.2449,space,2.9689,,360.2451,18,77,361.2445,361.2447,362.3446,space,1.0494,,0,24,24,24,1,165,70,,,,,,,,
,,60d3b726feef642a15b86870,65af572ea12c3b109d6ba408,2024-01-23_07h06.05.976,bars,2023.2.3,Win32,59.88023952,657b66ea316d21385b68909f,,,,,,,,,,,362.3465,363.3443,,,363.8443,364.0943,,136,-44,,,,,,,,,,,,,,,,bars/038.png,bars/mask000.png,,,,,,,,,,,,0,1,,,,,,,8,2,7,2,,,,,,,,,,,363.3445,363.8443,364.0945,366.7612,space,2.6515,,366.7614,29,66,367.7605,367.7608,377.0108,space,9.1994,,0,25,25,25,1,165,70,,,,,,,,
,,60d3b726feef642a15b86870,65af572ea12c3b109d6ba408,2024-01-23_07h06.05.976,bars,2023.2.3,Win32,59.88023952,657b66ea316d21385b68909f,,,,,,,,,,,377.0419,378.0268,,,378.5265,378.7766,,172,172,,,,,,,,,,,,,,,,bars/028.png,bars/mask008.png,,,,,,,,,,,,0,2,,,,,,,10,4,10,4,,,,,,,,,,,378.0286,378.5265,378.7768,380.7605,space,1.9686,,380.7608,53,52,381.7596,381.7598,383.1941,space,1.3789,,0,26,26,26,1,45,120,,,,,,,,
,,60d3b726feef642a15b86870,65af572ea12c3b109d6ba408,2024-01-23_07h06.05.976,bars,2023.2.3,Win32,59.88023952,657b66ea316d21385b68909f,,,,,,,,,,,383.1959,384.1929,,,384.6938,384.943,,40,40,,,,,,,,,,,,,,,,bars/021.png,bars/mask003.png,,,,,,,,,,,,0,2,,,,,,,10,6,9,8,,,,,,,,,,,384.1931,384.6935,384.943,387.0139,space,2.0623,,387.014,65,30,388.0092,388.0093,388.9264,space,0.8738,,0,27,27,27,1,155,70,,,,,,,,
,,60d3b726feef642a15b86870,65af572ea12c3b109d6ba408,2024-01-23_07h06.05.976,bars,2023.2.3,Win32,59.88023952,657b66ea316d21385b68909f,,,,,,,,,,,388.9282,389.9257,,,390.426,390.6758,,4,4,,,,,,,,,,,,,,,,bars/041.png,bars/mask009.png,,,,,,,,,,,,3,1,,,,,,,8,4,6,5,,,,,,,,,,,389.9259,390.4259,390.6759,391.2597,space,0.5693,,391.2599,16,81,392.2589,392.2591,393.2603,space,0.9764,,0,28,28,28,1,20,85,,,,,,,,
,,60d3b726feef642a15b86870,65af572ea12c3b109d6ba408,2024-01-23_07h06.05.976,bars,2023.2.3,Win32,59.88023952,657b66ea316d21385b68909f,,,,,,,,,,,393.2624,394.2589,,,394.759,395.0086,,146,146,,,,,,,,,,,,,,,,bars/045.png,bars/mask005.png,,,,,,,,,,,,0,2,,,,,,,10,2,10,2,,,,,,,,,,,394.259,394.7589,395.0087,397.1591,space,2.1344,,397.1597,46,44,398.1585,398.1587,398.709,space,0.5037,,0,29,29,29,1,100,10,,,,,,,,
,,60d3b726feef642a15b86870,65af572ea12c3b109d6ba408,2024-01-23_07h06.05.976,bars,2023.2.3,Win32,59.88023952,657b66ea316d21385b68909f,,,,,,,,,,,398.7106,399.7081,,,400.208,400.4584,,1,181,,,,,,,,,,,,,,,,bars/031.png,bars/mask008.png,,,,,,,,,,,,0,2,,,,,,,10,0,10,0,,,,,,,,,,,399.7082,400.2079,400.4585,404.0419,space,3.5686,,404.0421,61,34,405.0412,405.0413,415.0584,space,9.9695,,0,30,30,30,1,120,35,,,,,,,,
,,60d3b726feef642a15b86870,65af572ea12c3b109d6ba408,2024-01-23_07h06.05.976,bars,2023.2.3,Win32,59.88023952,657b66ea316d21385b68909f,,,,,,,,,,,415.0903,416.0736,,,416.5738,416.8234,,146,-34,,,,,,,,,,,,,,,,bars/029.png,bars/mask009.png,,,,,,,,,,,,0,1,,,,,,,8,0,7,0,,,,,,,,,,,416.0738,416.5737,416.8235,420.0241,space,3.1851,,420.0245,56,79,421.0232,421.0234,421.9444,space,0.8594,,0,31,31,31,1,90,45,,,,,,,,
,,60d3b726feef642a15b86870,65af572ea12c3b109d6ba408,2024-01-23_07h06.05.976,bars,2023.2.3,Win32,59.88023952,657b66ea316d21385b68909f,,,,,,,,,,,421.9456,422.9397,,,423.4399,423.6902,,77,77,,,,,,,,,,,,,,,,bars/039.png,bars/mask007.png,,,,,,,,,,,,0,2,,,,,,,6,2,6,4,,,,,,,,,,,422.9398,423.4397,423.6902,425.2582,space,1.5605,,425.2584,82,28,426.2562,426.2564,427.3907,space,1.1066,,0,32,32,32,1,175,105,,,,,,,,
,,60d3b726feef642a15b86870,65af572ea12c3b109d6ba408,2024-01-23_07h06.05.976,bars,2023.2.3,Win32,59.88023952,657b66ea316d21385b68909f,,,,,,,,,,,427.3919,428.3897,,,428.89,429.1394,,171,171,,,,,,,,,,,,,,,,bars/040.png,bars/mask005.png,,,,,,,,,,,,3,2,,,,,,,4,4,5,5,,,,,,,,,,,428.3899,428.8897,429.1397,431.7566,space,2.6083,,431.7567,31,14,432.7557,432.7559,433.4069,space,0.6106,,0,33,33,33,1,140,5,,,,,,,,
,,60d3b726feef642a15b86870,65af572ea12c3b109d6ba408,2024-01-23_07h06.05.976,bars,2023.2.3,Win32,59.88023952,657b66ea316d21385b68909f,,,,,,,,,,,433.4087,434.4058,,,434.906,435.1558,,63,63,,,,,,,,,,,,,,,,bars/006.png,bars/mask005.png,,,,,,,,,,,,0,1,,,,,,,6,2,7,3,,,,,,,,,,,434.406,434.9058,435.1559,437.5396,space,2.368,,437.5402,28,37,438.5389,438.5391,439.4731,space,0.8812,,0,34,34,34,1,35,100,,,,,,,,
,,60d3b726feef642a15b86870,65af572ea12c3b109d6ba408,2024-01-23_07h06.05.976,bars,2023.2.3,Win32,59.88023952,657b66ea316d21385b68909f,,,,,,,,,,,439.4746,440.4721,,,440.9723,441.2221,,82,82,,,,,,,,,,,,,,,,bars/028.png,bars/mask008.png,,,,,,,,,,,,0,1,,,,,,,4,0,3,0,,,,,,,,,,,440.4722,440.9721,441.2223,449.5551,space,8.3168,,449.5554,37,38,450.5544,450.5546,452.8217,space,2.214,,0,35,35,35,1,45,120,,,,,,,,
,,60d3b726feef642a15b86870,65af572ea12c3b109d6ba408,2024-01-23_07h06.05.976,bars,2023.2.3,Win32,59.88023952,657b66ea316d21385b68909f,,,,,,,,,,,452.824,453.8209,,,454.3212,454.5706,,149,149,,,,,,,,,,,,,,,,bars/004.png,bars/mask000.png,,,,,,,,,,,,0,2,,,,,,,6,0,6,1,,,,,,,,,,,453.8212,454.3211,454.5708,456.1889,space,1.6024,,456.1897,56,24,457.1872,457.1873,457.7881,space,0.5522,,0,36,36,36,1,25,125,,,,,,,,
,,60d3b726feef642a15b86870,65af572ea12c3b109d6ba408,2024-01-23_07h06.05.976,bars,2023.2.3,Win32,59.88023952,657b66ea316d21385b68909f,,,,,,,,,,,457.7898,458.7872,,,459.2875,459.54,,38,218,,,,,,,,,,,,,,,,bars/015.png,bars/mask001.png,,,,,,,,,,,,0,2,,,,,,,4,2,3,4,,,,,,,,,,,458.7873,459.2873,459.5401,463.3544,space,3.8039,,463.3549,72,58,464.3537,464.3538,465.4209,space,1.0182,,0,37,37,37,1,110,160,,,,,,,,
,,60d3b726feef642a15b86870,65af572ea12c3b109d6ba408,2024-01-23_07h06.05.976,bars,2023.2.3,Win32,59.88023952,657b66ea316d21385b68909f,,,,,,,,,,,465.4226,466.4201,,,466.9203,467.1705,,128,308,,,,,,,,,,,,,,,,bars/030.png,bars/mask008.png,,,,,,,,,,,,1,1,,,,,,,2,4,2,4,,,,,,,,,,,466.4202,466.9203,467.1705,472.1386,space,4.9593,,472.1388,12,63,473.1363,473.1365,474.5202,space,1.3297,,0,38,38,38,1,140,65,,,,,,,,
,,60d3b726feef642a15b86870,65af572ea12c3b109d6ba408,2024-01-23_07h06.05.976,bars,2023.2.3,Win32,59.88023952,657b66ea316d21385b68909f,,,,,,,,,,,474.5217,475.52,,,476.0218,476.2698,,6,186,,,,,,,,,,,,,,,,bars/023.png,bars/mask004.png,,,,,,,,,,,,0,1,,,,,,,0,2,0,2,,,,,,,,,,,475.52,476.0217,476.27,478.9859,space,2.7011,,478.9861,14,71,479.9859,479.9861,482.0702,space,2.0345,,0,39,39,39,1,20,115,,,,,,,,
,,60d3b726feef642a15b86870,65af572ea12c3b109d6ba408,2024-01-23_07h06.05.976,bars,2023.2.3,Win32,59.88023952,657b66ea316d21385b68909f,,,,,,,,,,,482.0718,483.069,,,483.5691,483.819,,51,51,,,,,,,,,,,,,,,,bars/024.png,bars/mask002.png,,,,,,,,,,,,0,2,,,,,,,2,4,3,5,,,,,,,,,,,483.0691,483.5688,483.8191,491.4205,space,7.5923,,491.4206,69,61,492.4183,492.4184,494.8854,space,2.4062,,0,40,40,40,1,120,170,,,,,,,,
,,60d3b726feef642a15b86870,65af572ea12c3b109d6ba408,2024-01-23_07h06.05.976,bars,2023.2.3,Win32,59.88023952,657b66ea316d21385b68909f,,,,,,,,,,,494.916,495.9011,,,496.4017,496.6514,,139,139,,,,,,,,,,,,,,,,bars/047.png,bars/mask008.png,,,,,,,,,,,,0,1,,,,,,,4,2,2,2,,,,,,,,,,,495.9012,496.4014,496.6515,500.4021,space,3.736,,500.4025,56,69,501.4008,501.401,502.2513,space,0.7978,,0,41,41,41,1,15,70,,,,,,,,
,,60d3b726feef642a15b86870,65af572ea12c3b109d6ba408,2024-01-23_07h06.05.976,bars,2023.2.3,Win32,59.88023952,657b66ea316d21385b68909f,,,,,,,,,,,502.2534,503.2506,,,503.7512,504.0007,,34,214,,,,,,,,,,,,,,,,bars/020.png,bars/mask006.png,,,,,,,,,,,,0,2,,,,,,,6,0,5,0,,,,,,,,,,,503.2508,503.7511,504.0012,507.0348,space,3.0212,,507.0349,81,44,508.0338,508.0339,508.5175,space,0.4297,,0,42,42,42,1,115,170,,,,,,,,
,,60d3b726feef642a15b86870,65af572ea12c3b109d6ba408,2024-01-23_07h06.05.976,bars,2023.2.3,Win32,59.88023952,657b66ea316d21385b68909f,,,,,,,,,,,508.5191,509.517,,,510.0171,510.2667,,60,60,,,,,,,,,,,,,,,,bars/045.png,bars/mask009.png,,,,,,,,,,,,0,1,,,,,,,8,0,8,0,,,,,,,,,,,509.5172,510.017,510.2667,518.6332,space,8.356,,518.6333,40,50,519.6327,519.633,519.9671,space,0.2776,,0,43,43,43,1,100,10,,,,,,,,
,,60d3b726feef642a15b86870,65af572ea12c3b109d6ba408,2024-01-23_07h06.05.976,bars,2023.2.3,Win32,59.88023952,657b66ea316d21385b68909f,,,,,,,,,,,519.9686,520.966,,,521.4664,521.7162,,44,44,,,,,,,,,,,,,,,,bars/043.png,bars/mask007.png,,,,,,,,,,,,4,1,,,,,,,6,0,7,0,,,,,,,,,,,520.9661,521.4662,521.7165,522.1663,space,0.4386,,522.1664,14,86,523.1659,523.1661,523.9668,space,0.7775,,0,44,44,44,1,30,130,,,,,,,,
,,60d3b726feef642a15b86870,65af572ea12c3b109d6ba408,2024-01-23_07h06.05.976,bars,2023.2.3,Win32,59.88023952,657b66ea316d21385b68909f,,,,,,,,,,,523.9687,524.9658,,,525.4658,525.7159,,43,43,,,,,,,,,,,,,,,,bars/041.png,bars/mask001.png,,,,,,,,,,,,2,1,,,,,,,8,0,9,0,,,,,,,,,,,524.966,525.4658,525.716,526.2331,space,0.508,,526.2332,23,42,527.232,527.2321,529.3825,space,2.1298,,0,45,45,45,1,20,85,,,,,,,,
,,60d3b726feef642a15b86870,65af572ea12c3b109d6ba408,2024-01-23_07h06.05.976,bars,2023.2.3,Win32,59.88023952,657b66ea316d21385b68909f,,,,,,,,,,,529.3843,530.3819,,,530.8824,531.132,,174,174,,,,,,,,,,,,,,,,bars/039.png,bars/mask001.png,,,,,,,,,,,,8,1,,,,,,,10,2,8,2,,,,,,,,,,,530.382,530.8823,531.1322,532.3155,space,1.1694,,532.3157,1,69,533.3153,533.3154,546.0655,space,12.7319,,0,46,46,46,1,175,105,,,,,,,,
,,60d3b726feef642a15b86870,65af572ea12c3b109d6ba408,2024-01-23_07h06.05.976,bars,2023.2.3,Win32,59.88023952,657b66ea316d21385b68909f,,,,,,,,,,,546.0978,547.0807,,,547.5813,547.8309,,72,72,,,,,,,,,,,,,,,,bars/005.png,bars/mask008.png,,,,,,,,,,,,0,1,,,,,,,8,4,7,4,,,,,,,,,,,547.0809,547.5811,547.8311,550.0309,space,2.1837,,550.0311,62,68,551.0305,551.0306,551.1835,space,0.1037,,0,47,47,47,1,10,140,,,,,,,,
,,60d3b726feef642a15b86870,65af572ea12c3b109d6ba408,2024-01-23_07h06.05.976,bars,2023.2.3,Win32,59.88023952,657b66ea316d21385b68909f,,,,,,,,,,,551.185,552.1805,,,552.6807,552.9307,,111,111,,,,,,,,,,,,,,,,bars/023.png,bars/mask002.png,,,,,,,,,,,,4,2,,,,,,,6,6,5,5,,,,,,,,,,,552.1806,552.6804,552.9308,578.6131,space,25.6663,,578.6133,89,4,579.6118,579.6121,581.7458,space,2.0863,,0,48,48,48,1,20,115,,,,,,,,
,,60d3b726feef642a15b86870,65af572ea12c3b109d6ba408,2024-01-23_07h06.05.976,bars,2023.2.3,Win32,59.88023952,657b66ea316d21385b68909f,,,,,,,,,,,581.7475,582.7449,,,583.245,583.4951,,121,121,,,,,,,,,,,,,,,,bars/021.png,bars/mask005.png,,,,,,,,,,,,0,1,,,,,,,4,4,4,5,,,,,,,,,,,582.7451,583.2449,583.4952,585.6958,space,2.1848,,585.696,34,51,586.6945,586.6947,587.6789,space,0.9317,,0,49,49,49,1,155,70,,,,,,,,
,,60d3b726feef642a15b86870,65af572ea12c3b109d6ba408,2024-01-23_07h06.05.976,bars,2023.2.3,Win32,59.88023952,657b66ea316d21385b68909f,,,,,,,,,,,,,,,,,,,,,,,,,,,,,,,,,,,,,,,,,,,,,,,,,,,,,,,,,,,,,,,,,,,,,,,,,,,,,,,,,,,,,,,,,,,,,587.6823,647.6762,0,0,0,2,1,sequence_tables/blk000.csv
,,60d3b726feef642a15b86870,65af572ea12c3b109d6ba408,2024-01-23_07h06.05.976,bars,2023.2.3,Win32,59.88023952,657b66ea316d21385b68909f,,,,,,,,,,,669.0302,669.9886,,,670.4888,670.7385,,56,56,,,,,,,,,,,,,,,,bars/006.png,bars/mask006.png,,,,,,,,,,,,1,1,,,,,,,4,7,3,7,,,,,,647.7163,668.9721,space,21.243,,669.9888,670.4887,670.7386,672.3391,space,1.5868,,672.3393,21,44,673.3384,673.3385,673.3691,,,,0,0,0,0,1,35,100,,,,,,,,
,,60d3b726feef642a15b86870,65af572ea12c3b109d6ba408,2024-01-23_07h06.05.976,bars,2023.2.3,Win32,59.88023952,657b66ea316d21385b68909f,,,,,,,,,,,673.3697,674.3714,,,674.8719,675.1215,,152,152,,,,,,,,,,,,,,,,bars/026.png,bars/mask009.png,,,,,,,,,,,,0,1,,,,,,,6,5,7,5,,,,,,,,,,,674.3716,674.8719,675.1216,676.5719,space,1.4389,,676.5727,63,67,677.5712,677.5714,677.6025,,,,0,1,1,1,1,35,85,,,,,,,,
,,60d3b726feef642a15b86870,65af572ea12c3b109d6ba408,2024-01-23_07h06.05.976,bars,2023.2.3,Win32,59.88023952,657b66ea316d21385b68909f,,,,,,,,,,,677.6029,678.6046,,,679.1047,679.3547,,124,124,,,,,,,,,,,,,,,,bars/025.png,bars/mask000.png,,,,,,,,,,,,1,1,,,,,,,4,3,4,4,,,,,,,,,,,678.6047,679.1045,679.3547,679.5222,space,0.1532,,679.5224,19,84,680.5212,680.5213,680.5242,,,,0,2,2,2,1,105,40,,,,,,,,
,,60d3b726feef642a15b86870,65af572ea12c3b109d6ba408,2024-01-23_07h06.05.976,bars,2023.2.3,Win32,59.88023952,657b66ea316d21385b68909f,,,,,,,,,,,680.5256,681.5209,,,682.0211,682.271,,15,15,,,,,,,,,,,,,,,,bars/022.png,bars/mask001.png,,,,,,,,,,,,4,2,,,,,,,2,5,2,5,,,,,,,,,,,681.521,682.0209,682.2711,683.8055,space,1.5203,,683.8056,80,5,684.8039,684.804,684.8108,,,,0,3,3,3,1,95,20,,,,,,,,
,,60d3b726feef642a15b86870,65af572ea12c3b109d6ba408,2024-01-23_07h06.05.976,bars,2023.2.3,Win32,59.88023952,657b66ea316d21385b68909f,,,,,,,,,,,684.8114,685.8039,,,686.304,686.5542,,42,42,,,,,,,,,,,,,,,,bars/035.png,bars/mask006.png,,,,,,,,,,,,2,2,,,,,,,0,3,1,4,,,,,,,,,,,685.8041,686.3039,686.5543,688.8719,space,2.3016,,688.8721,47,18,689.8705,689.8706,689.9009,,,,0,4,4,4,1,175,60,,,,,,,,
,,60d3b726feef642a15b86870,65af572ea12c3b109d6ba408,2024-01-23_07h06.05.976,bars,2023.2.3,Win32,59.88023952,657b66ea316d21385b68909f,,,,,,,,,,,689.9014,690.9038,,,691.4037,691.6538,,2,2,,,,,,,,,,,,,,,,bars/014.png,bars/mask009.png,,,,,,,,,,,,2,2,,,,,,,0,5,0,2,,,,,,,,,,,690.9039,691.4036,691.6538,694.0555,space,2.3861,,694.0556,78,2,695.0533,695.0534,695.0848,,,,0,5,5,5,1,80,0,,,,,,,,
,,60d3b726feef642a15b86870,65af572ea12c3b109d6ba408,2024-01-23_07h06.05.976,bars,2023.2.3,Win32,59.88023952,657b66ea316d21385b68909f,,,,,,,,,,,695.0853,696.0865,,,696.5864,696.8363,,106,106,,,,,,,,,,,,,,,,bars/037.png,bars/mask002.png,,,,,,,,,,,,6,2,,,,,,,2,7,3,6,,,,,,,,,,,696.0866,696.5864,696.8363,697.6201,space,0.7683,,697.6204,44,1,698.6196,698.6197,698.6226,,,,0,6,6,6,1,150,105,,,,,,,,
,,60d3b726feef642a15b86870,65af572ea12c3b109d6ba408,2024-01-23_07h06.05.976,bars,2023.2.3,Win32,59.88023952,657b66ea316d21385b68909f,,,,,,,,,,,698.6238,699.6196,,,700.1197,700.3696,,69,69,,,,,,,,,,,,,,,,bars/031.png,bars/mask007.png,,,,,,,,,,,,0,2,,,,,,,0,9,0,9,,,,,,,,,,,699.6198,700.1197,700.3697,700.9703,space,0.5843,,700.9704,51,34,701.9695,701.9696,701.9723,,,,0,7,7,7,1,120,35,,,,,,,,
,,60d3b726feef642a15b86870,65af572ea12c3b109d6ba408,2024-01-23_07h06.05.976,bars,2023.2.3,Win32,59.88023952,657b66ea316d21385b68909f,,,,,,,,,,,701.9734,702.9692,,,703.4693,703.7195,,162,162,,,,,,,,,,,,,,,,bars/002.png,bars/mask009.png,,,,,,,,,,,,0,1,,,,,,,0,10,0,10,,,,,,,,,,,702.9693,703.4693,703.7195,706.2358,space,2.4993,,706.2361,32,77,707.2354,707.2355,707.2614,,,,0,8,8,8,1,130,85,,,,,,,,
,,60d3b726feef642a15b86870,65af572ea12c3b109d6ba408,2024-01-23_07h06.05.976,bars,2023.2.3,Win32,59.88023952,657b66ea316d21385b68909f,,,,,,,,,,,707.2618,708.2523,,,708.7526,709.0022,,174,174,,,,,,,,,,,,,,,,bars/017.png,bars/mask007.png,,,,,,,,,,,,0,1,,,,,,,2,10,2,10,,,,,,,,,,,708.2524,708.7525,709.0023,710.4378,space,1.4267,,710.4381,29,51,711.4355,711.4356,711.4771,,,,0,9,9,9,1,145,45,,,,,,,,
,,60d3b726feef642a15b86870,65af572ea12c3b109d6ba408,2024-01-23_07h06.05.976,bars,2023.2.3,Win32,59.88023952,657b66ea316d21385b68909f,,,,,,,,,,,711.4779,712.4686,,,712.9687,713.2187,,63,63,,,,,,,,,,,,,,,,bars/012.png,bars/mask008.png,,,,,,,,,,,,0,1,,,,,,,4,10,4,10,,,,,,,,,,,712.4687,712.9686,713.2187,714.6521,space,1.4255,,714.6522,27,48,715.6516,715.6517,715.6932,,,,0,10,10,10,1,90,15,,,,,,,,
,,60d3b726feef642a15b86870,65af572ea12c3b109d6ba408,2024-01-23_07h06.05.976,bars,2023.2.3,Win32,59.88023952,657b66ea316d21385b68909f,,,,,,,,,,,715.694,716.6848,,,717.1853,717.435,,102,102,,,,,,,,,,,,,,,,bars/001.png,bars/mask004.png,,,,,,,,,,,,4,2,,,,,,,2,10,0,10,,,,,,,,,,,716.685,717.185,717.4351,725.0349,space,7.5841,,725.0354,28,17,726.0341,726.0343,726.0677,,,,0,11,11,11,1,130,85,,,,,,,,
,,60d3b726feef642a15b86870,65af572ea12c3b109d6ba408,2024-01-23_07h06.05.976,bars,2023.2.3,Win32,59.88023952,657b66ea316d21385b68909f,,,,,,,,,,,726.0683,727.0674,,,727.5677,727.8176,,6,6,,,,,,,,,,,,,,,,bars/004.png,bars/mask003.png,,,,,,,,,,,,1,1,,,,,,,4,10,4,10,,,,,,,,,,,727.0676,727.5677,727.8177,728.0017,space,0.1704,,728.0019,19,61,729.0009,729.0011,729.0075,,,,0,12,12,12,1,25,125,,,,,,,,
,,60d3b726feef642a15b86870,65af572ea12c3b109d6ba408,2024-01-23_07h06.05.976,bars,2023.2.3,Win32,59.88023952,657b66ea316d21385b68909f,,,,,,,,,,,729.0082,730.0008,,,730.501,730.7508,,178,-2,,,,,,,,,,,,,,,,bars/004.png,bars/mask002.png,,,,,,,,,,,,0,1,,,,,,,6,8,5,7,,,,,,,,,,,730.0009,730.5009,730.7509,732.5677,space,1.8011,,732.5678,27,53,733.5673,733.5674,733.6006,,,,0,13,13,13,1,25,125,,,,,,,,
,,60d3b726feef642a15b86870,65af572ea12c3b109d6ba408,2024-01-23_07h06.05.976,bars,2023.2.3,Win32,59.88023952,657b66ea316d21385b68909f,,,,,,,,,,,733.6012,734.6006,,,735.1006,735.3504,,124,124,,,,,,,,,,,,,,,,bars/047.png,bars/mask009.png,,,,,,,,,,,,0,2,,,,,,,4,10,4,10,,,,,,,,,,,734.6006,735.1006,735.3504,743.4345,space,8.0754,,743.4346,71,54,744.433,744.4332,744.4665,,,,0,14,14,14,1,15,70,,,,,,,,
,,60d3b726feef642a15b86870,65af572ea12c3b109d6ba408,2024-01-23_07h06.05.976,bars,2023.2.3,Win32,59.88023952,657b66ea316d21385b68909f,,,,,,,,,,,744.4671,745.4661,,,745.9665,746.2165,,140,140,,,,,,,,,,,,,,,,bars/005.png,bars/mask003.png,,,,,,,,,,,,10,2,,,,,,,2,10,2,10,,,,,,,,,,,745.4663,745.9664,746.2165,747.7165,space,1.4857,,747.7167,50,0,748.716,748.7162,748.7186,,,,0,15,15,15,1,10,140,,,,,,,,
,,60d3b726feef642a15b86870,65af572ea12c3b109d6ba408,2024-01-23_07h06.05.976,bars,2023.2.3,Win32,59.88023952,657b66ea316d21385b68909f,,,,,,,,,,,748.7196,749.716,,,750.2162,750.4662,,150,150,,,,,,,,,,,,,,,,bars/041.png,bars/mask008.png,,,,,,,,,,,,0,1,,,,,,,4,10,5,8,,,,,,,,,,,749.7161,750.2161,750.4663,751.5666,space,1.0847,,751.5669,50,65,752.5661,752.5662,752.5728,,,,0,16,16,16,1,20,85,,,,,,,,
,,60d3b726feef642a15b86870,65af572ea12c3b109d6ba408,2024-01-23_07h06.05.976,bars,2023.2.3,Win32,59.88023952,657b66ea316d21385b68909f,,,,,,,,,,,752.5735,753.5654,,,754.0657,754.3158,,154,154,,,,,,,,,,,,,,,,bars/011.png,bars/mask005.png,,,,,,,,,,,,7,1,,,,,,,6,10,9,9,,,,,,,,,,,753.5656,754.0657,754.3159,756.3328,space,2.0024,,756.3329,6,69,757.3322,757.3324,757.3626,,,,0,17,17,17,1,160,85,,,,,,,,
,,60d3b726feef642a15b86870,65af572ea12c3b109d6ba408,2024-01-23_07h06.05.976,bars,2023.2.3,Win32,59.88023952,657b66ea316d21385b68909f,,,,,,,,,,,757.3631,758.3654,,,758.8657,759.1152,,173,173,,,,,,,,,,,,,,,,bars/001.png,bars/mask000.png,,,,,,,,,,,,0,1,,,,,,,8,8,7,9,,,,,,,,,,,758.3655,758.8656,759.1154,760.0995,space,0.968,,760.0998,43,88,761.0986,761.0987,761.1304,,,,0,18,18,18,1,130,85,,,,,,,,
,,60d3b726feef642a15b86870,65af572ea12c3b109d6ba408,2024-01-23_07h06.05.976,bars,2023.2.3,Win32,59.88023952,657b66ea316d21385b68909f,,,,,,,,,,,761.1329,762.1318,,,762.6322,762.8819,,142,142,,,,,,,,,,,,,,,,bars/032.png,bars/mask008.png,,,,,,,,,,,,3,1,,,,,,,6,10,7,9,,,,,,,,,,,762.132,762.632,762.8819,767.8324,space,4.9372,,767.8327,17,58,768.8314,768.8314,768.8619,,,,0,19,19,19,1,125,20,,,,,,,,
,,60d3b726feef642a15b86870,65af572ea12c3b109d6ba408,2024-01-23_07h06.05.976,bars,2023.2.3,Win32,59.88023952,657b66ea316d21385b68909f,,,,,,,,,,,768.8624,769.8646,,,770.3646,770.6149,,23,23,,,,,,,,,,,,,,,,bars/010.png,bars/mask008.png,,,,,,,,,,,,0,2,,,,,,,4,8,4,9,,,,,,,,,,,769.8647,770.3645,770.6149,774.798,space,4.1748,,774.7989,38,32,775.8027,775.8027,775.8469,,,,0,20,20,20,1,165,55,,,,,,,,
,,60d3b726feef642a15b86870,65af572ea12c3b109d6ba408,2024-01-23_07h06.05.976,bars,2023.2.3,Win32,59.88023952,657b66ea316d21385b68909f,,,,,,,,,,,775.8475,776.8472,,,777.3473,777.5973,,87,87,,,,,,,,,,,,,,,,bars/047.png,bars/mask000.png,,,,,,,,,,,,4,2,,,,,,,2,10,3,10,,,,,,,,,,,776.8474,777.3473,777.5973,782.8142,space,5.2055,,782.8144,72,17,783.8134,783.8136,783.8573,,,,0,21,21,21,1,15,70,,,,,,,,
,,60d3b726feef642a15b86870,65af572ea12c3b109d6ba408,2024-01-23_07h06.05.976,bars,2023.2.3,Win32,59.88023952,657b66ea316d21385b68909f,,,,,,,,,,,783.858,784.8465,,,785.3468,785.5969,,138,138,,,,,,,,,,,,,,,,bars/047.png,bars/mask006.png,,,,,,,,,,,,0,1,,,,,,,4,10,4,9,,,,,,,,,,,784.8468,785.3467,785.597,794.2967,space,8.6845,,794.297,57,68,795.2959,795.2961,795.3318,,,,0,22,22,22,1,15,70,,,,,,,,
,,60d3b726feef642a15b86870,65af572ea12c3b109d6ba408,2024-01-23_07h06.05.976,bars,2023.2.3,Win32,59.88023952,657b66ea316d21385b68909f,,,,,,,,,,,795.3323,796.3296,,,796.8294,797.0793,,27,27,,,,,,,,,,,,,,,,bars/034.png,bars/mask007.png,,,,,,,,,,,,0,2,,,,,,,6,8,5,8,,,,,,,,,,,796.3297,796.8293,797.0794,800.9797,space,3.8843,,800.98,82,38,801.979,801.9792,802.0124,,,,0,23,23,23,1,125,65,,,,,,,,
,,60d3b726feef642a15b86870,65af572ea12c3b109d6ba408,2024-01-23_07h06.05.976,bars,2023.2.3,Win32,59.88023952,657b66ea316d21385b68909f,,,,,,,,,,,802.013,803.0119,,,803.5123,803.7621,,39,39,,,,,,,,,,,,,,,,bars/008.png,bars/mask006.png,,,,,,,,,,,,0,2,,,,,,,4,10,2,10,,,,,,,,,,,803.012,803.5122,803.7622,806.0964,space,2.3178,,806.0966,71,39,807.0955,807.0956,807.0987,,,,0,24,24,24,1,110,0,,,,,,,,
,,60d3b726feef642a15b86870,65af572ea12c3b109d6ba408,2024-01-23_07h06.05.976,bars,2023.2.3,Win32,59.88023952,657b66ea316d21385b68909f,,,,,,,,,,,807.1006,808.0952,,,808.595,808.845,,9,9,,,,,,,,,,,,,,,,bars/033.png,bars/mask004.png,,,,,,,,,,,,1,1,,,,,,,2,8,2,9,,,,,,,,,,,808.0953,808.5949,808.8451,810.1787,space,1.3181,,810.1788,16,34,811.178,811.1782,811.1845,,,,0,25,25,25,1,25,155,,,,,,,,
,,60d3b726feef642a15b86870,65af572ea12c3b109d6ba408,2024-01-23_07h06.05.976,bars,2023.2.3,Win32,59.88023952,657b66ea316d21385b68909f,,,,,,,,,,,811.185,812.1779,,,812.6788,812.9278,,172,172,,,,,,,,,,,,,,,,bars/021.png,bars/mask008.png,,,,,,,,,,,,2,1,,,,,,,4,10,4,10,,,,,,,,,,,812.178,812.6786,812.9279,814.3951,space,1.457,,814.3956,17,78,815.3945,815.3947,815.4281,,,,0,26,26,26,1,155,70,,,,,,,,
,,60d3b726feef642a15b86870,65af572ea12c3b109d6ba408,2024-01-23_07h06.05.976,bars,2023.2.3,Win32,59.88023952,657b66ea316d21385b68909f,,,,,,,,,,,815.4286,816.4276,,,816.9284,817.1778,,79,79,,,,,,,,,,,,,,,,bars/043.png,bars/mask008.png,,,,,,,,,,,,0,1,,,,,,,6,8,5,7,,,,,,,,,,,816.4277,816.9282,817.1779,823.1112,space,5.917,,823.1116,49,51,824.1108,824.111,824.1505,,,,0,27,27,27,1,30,130,,,,,,,,
,,60d3b726feef642a15b86870,65af572ea12c3b109d6ba408,2024-01-23_07h06.05.976,bars,2023.2.3,Win32,59.88023952,657b66ea316d21385b68909f,,,,,,,,,,,824.1515,825.1438,,,825.6443,825.8939,,84,84,,,,,,,,,,,,,,,,bars/025.png,bars/mask002.png,,,,,,,,,,,,2,1,,,,,,,8,10,7,10,,,,,,,,,,,825.144,825.6442,825.894,826.9776,space,1.0721,,826.9782,21,44,827.9767,827.9769,827.9801,,,,0,28,28,28,1,105,40,,,,,,,,
,,60d3b726feef642a15b86870,65af572ea12c3b109d6ba408,2024-01-23_07h06.05.976,bars,2023.2.3,Win32,59.88023952,657b66ea316d21385b68909f,,,,,,,,,,,827.9811,828.9768,,,829.4769,829.7268,,89,89,,,,,,,,,,,,,,,,bars/023.png,bars/mask005.png,,,,,,,,,,,,1,2,,,,,,,10,8,10,7,,,,,,,,,,,828.9769,829.4768,829.7269,830.461,space,0.723,,830.4613,69,26,831.46,831.4602,831.4667,,,,0,29,29,29,1,20,115,,,,,,,,
,,60d3b726feef642a15b86870,65af572ea12c3b109d6ba408,2024-01-23_07h06.05.976,bars,2023.2.3,Win32,59.88023952,657b66ea316d21385b68909f,,,,,,,,,,,831.4675,832.4599,,,832.9602,833.2097,,148,148,,,,,,,,,,,,,,,,bars/041.png,bars/mask002.png,,,,,,,,,,,,0,1,,,,,,,8,6,8,7,,,,,,,,,,,832.4601,832.9601,833.2098,834.2938,space,1.0692,,834.294,52,63,835.2931,835.2933,835.3007,,,,0,30,30,30,1,20,85,,,,,,,,
,,60d3b726feef642a15b86870,65af572ea12c3b109d6ba408,2024-01-23_07h06.05.976,bars,2023.2.3,Win32,59.88023952,657b66ea316d21385b68909f,,,,,,,,,,,835.3016,836.2929,,,836.793,837.0429,,115,115,,,,,,,,,,,,,,,,bars/019.png,bars/mask007.png,,,,,,,,,,,,3,2,,,,,,,10,4,10,5,,,,,,,,,,,836.293,836.7929,837.043,846.0263,space,8.9713,,846.0269,70,10,847.0256,847.0257,847.0607,,,,0,31,31,31,1,45,105,,,,,,,,
,,60d3b726feef642a15b86870,65af572ea12c3b109d6ba408,2024-01-23_07h06.05.976,bars,2023.2.3,Win32,59.88023952,657b66ea316d21385b68909f,,,,,,,,,,,847.0613,848.0588,,,848.559,848.8088,,164,164,,,,,,,,,,,,,,,,bars/009.png,bars/mask003.png,,,,,,,,,,,,0,1,,,,,,,10,2,10,2,,,,,,,,,,,848.059,848.5589,848.809,854.7426,space,5.9171,,854.7429,31,59,855.7414,855.7415,855.7771,,,,0,32,32,32,1,15,105,,,,,,,,
,,60d3b726feef642a15b86870,65af572ea12c3b109d6ba408,2024-01-23_07h06.05.976,bars,2023.2.3,Win32,59.88023952,657b66ea316d21385b68909f,,,,,,,,,,,855.7777,856.7745,,,857.275,857.5248,,80,80,,,,,,,,,,,,,,,,bars/005.png,bars/mask004.png,,,,,,,,,,,,0,2,,,,,,,10,4,10,6,,,,,,,,,,,856.7747,857.2749,857.5249,866.2079,space,8.667,,866.2084,70,60,867.2072,867.2074,867.2405,,,,0,33,33,33,1,10,140,,,,,,,,
,,60d3b726feef642a15b86870,65af572ea12c3b109d6ba408,2024-01-23_07h06.05.976,bars,2023.2.3,Win32,59.88023952,657b66ea316d21385b68909f,,,,,,,,,,,867.2412,868.2404,,,868.7409,868.9908,,45,45,,,,,,,,,,,,,,,,bars/011.png,bars/mask009.png,,,,,,,,,,,,0,2,,,,,,,8,6,6,7,,,,,,,,,,,868.2405,868.7408,868.991,874.0073,space,5.0001,,874.0074,65,40,875.0066,875.0067,875.0402,,,,0,34,34,34,1,160,85,,,,,,,,
,,60d3b726feef642a15b86870,65af572ea12c3b109d6ba408,2024-01-23_07h06.05.976,bars,2023.2.3,Win32,59.88023952,657b66ea316d21385b68909f,,,,,,,,,,,875.041,876.0402,,,876.5403,876.7903,,22,22,,,,,,,,,,,,,,,,bars/021.png,bars/mask001.png,,,,,,,,,,,,0,1,,,,,,,6,8,7,7,,,,,,,,,,,876.0403,876.5402,876.7904,886.5735,space,9.7744,,886.5735,47,48,887.5726,887.5728,887.6085,,,,0,35,35,35,1,155,70,,,,,,,,
,,60d3b726feef642a15b86870,65af572ea12c3b109d6ba408,2024-01-23_07h06.05.976,bars,2023.2.3,Win32,59.88023952,657b66ea316d21385b68909f,,,,,,,,,,,887.609,888.6058,,,889.106,889.3559,,66,66,,,,,,,,,,,,,,,,bars/004.png,bars/mask006.png,,,,,,,,,,,,0,1,,,,,,,8,10,9,10,,,,,,,,,,,888.6059,889.1059,889.356,891.9585,space,2.5934,,891.9587,41,59,892.9554,892.9556,892.9865,,,,0,36,36,36,1,25,125,,,,,,,,
,,60d3b726feef642a15b86870,65af572ea12c3b109d6ba408,2024-01-23_07h06.05.976,bars,2023.2.3,Win32,59.88023952,657b66ea316d21385b68909f,,,,,,,,,,,892.9869,893.9888,,,894.4889,894.7388,,4,4,,,,,,,,,,,,,,,,bars/002.png,bars/mask001.png,,,,,,,,,,,,0,1,,,,,,,10,8,10,8,,,,,,,,,,,893.9889,894.4887,894.7389,916.3877,space,21.6352,,916.3879,54,81,917.3871,917.3871,917.4209,,,,0,37,37,37,1,130,85,,,,,,,,
,,60d3b726feef642a15b86870,65af572ea12c3b109d6ba408,2024-01-23_07h06.05.976,bars,2023.2.3,Win32,59.88023952,657b66ea316d21385b68909f,,,,,,,,,,,917.4215,918.42,,,918.9205,919.1703,,123,123,,,,,,,,,,,,,,,,bars/005.png,bars/mask003.png,,,,,,,,,,,,4,2,,,,,,,8,10,9,10,,,,,,,,,,,918.4202,918.9204,919.1704,928.9203,space,9.7352,,928.9206,67,17,929.9205,929.9206,929.9618,,,,0,38,38,38,1,10,140,,,,,,,,
,,60d3b726feef642a15b86870,65af572ea12c3b109d6ba408,2024-01-23_07h06.05.976,bars,2023.2.3,Win32,59.88023952,657b66ea316d21385b68909f,,,,,,,,,,,929.9624,930.9525,,,931.4527,931.7029,,169,169,,,,,,,,,,,,,,,,bars/018.png,bars/mask007.png,,,,,,,,,,,,2,1,,,,,,,6,8,5,9,,,,,,,,,,,930.9526,931.4527,931.703,944.9692,space,13.2508,,944.9695,19,79,945.9682,945.9684,946.003,,,,0,39,39,39,1,150,90,,,,,,,,
,,60d3b726feef642a15b86870,65af572ea12c3b109d6ba408,2024-01-23_07h06.05.976,bars,2023.2.3,Win32,59.88023952,657b66ea316d21385b68909f,,,,,,,,,,,946.0036,947.0016,,,947.5015,947.7516,,108,108,,,,,,,,,,,,,,,,bars/040.png,bars/mask000.png,,,,,,,,,,,,0,1,,,,,,,4,6,4,6,,,,,,,,,,,947.0018,947.5013,947.7516,952.7209,space,4.9601,,952.7209,32,77,953.7179,953.718,953.748,,,,0,40,40,40,1,140,5,,,,,,,,
,,60d3b726feef642a15b86870,65af572ea12c3b109d6ba408,2024-01-23_07h06.05.976,bars,2023.2.3,Win32,59.88023952,657b66ea316d21385b68909f,,,,,,,,,,,953.7486,954.7509,,,955.2516,955.5016,,60,60,,,,,,,,,,,,,,,,bars/026.png,bars/mask005.png,,,,,,,,,,,,1,2,,,,,,,2,8,2,8,,,,,,,,,,,954.7511,955.2516,955.5017,967.7842,space,12.2722,,967.7845,25,25,968.7829,968.7832,968.8202,,,,0,41,41,41,1,35,85,,,,,,,,
,,60d3b726feef642a15b86870,65af572ea12c3b109d6ba408,2024-01-23_07h06.05.976,bars,2023.2.3,Win32,59.88023952,657b66ea316d21385b68909f,,,,,,,,,,,968.821,969.8185,,,970.3167,970.5666,,126,126,,,,,,,,,,,,,,,,bars/045.png,bars/mask002.png,,,,,,,,,,,,0,1,,,,,,,4,10,2,10,,,,,,,,,,,969.8187,970.3166,970.5667,975.4668,space,4.886,,975.4669,26,64,976.466,976.4661,976.4998,,,,0,42,42,42,1,100,10,,,,,,,,
,,60d3b726feef642a15b86870,65af572ea12c3b109d6ba408,2024-01-23_07h06.05.976,bars,2023.2.3,Win32,59.88023952,657b66ea316d21385b68909f,,,,,,,,,,,976.5004,977.4989,,,977.9995,978.2494,,159,159,,,,,,,,,,,,,,,,bars/025.png,bars/mask006.png,,,,,,,,,,,,0,1,,,,,,,6,8,6,8,,,,,,,,,,,977.4991,977.9994,978.2494,979.9498,space,1.6867,,979.9501,54,61,980.949,980.9492,980.9796,,,,0,43,43,43,1,105,40,,,,,,,,
,,60d3b726feef642a15b86870,65af572ea12c3b109d6ba408,2024-01-23_07h06.05.976,bars,2023.2.3,Win32,59.88023952,657b66ea316d21385b68909f,,,,,,,,,,,980.98,981.9823,,,982.4825,982.7324,,5,5,,,,,,,,,,,,,,,,bars/002.png,bars/mask002.png,,,,,,,,,,,,0,1,,,,,,,4,10,5,10,,,,,,,,,,,981.9825,982.4824,982.7325,984.8012,space,2.0603,,984.8013,55,80,985.7987,985.7987,985.8288,,,,0,44,44,44,1,130,85,,,,,,,,
,,60d3b726feef642a15b86870,65af572ea12c3b109d6ba408,2024-01-23_07h06.05.976,bars,2023.2.3,Win32,59.88023952,657b66ea316d21385b68909f,,,,,,,,,,,985.8294,986.8319,,,987.3331,987.5829,,63,63,,,,,,,,,,,,,,,,bars/031.png,bars/mask008.png,,,,,,,,,,,,1,2,,,,,,,2,8,2,8,,,,,,,,,,,986.832,987.3331,987.583,987.6004,space,0.0065,,987.6006,57,28,988.5985,988.5989,988.6051,,,,0,45,45,45,1,120,35,,,,,,,,
,,60d3b726feef642a15b86870,65af572ea12c3b109d6ba408,2024-01-23_07h06.05.976,bars,2023.2.3,Win32,59.88023952,657b66ea316d21385b68909f,,,,,,,,,,,988.6057,989.5984,,,990.0983,990.3485,,6,6,,,,,,,,,,,,,,,,bars/040.png,bars/mask002.png,,,,,,,,,,,,10,2,,,,,,,0,10,0,10,,,,,,,,,,,989.5986,990.0982,990.3486,991.2484,space,0.8885,,991.2488,46,1,992.2481,992.2483,992.2519,,,,0,46,46,46,1,140,5,,,,,,,,
,,60d3b726feef642a15b86870,65af572ea12c3b109d6ba408,2024-01-23_07h06.05.976,bars,2023.2.3,Win32,59.88023952,657b66ea316d21385b68909f,,,,,,,,,,,992.2534,993.2482,,,993.7484,993.9982,,148,148,,,,,,,,,,,,,,,,bars/031.png,bars/mask008.png,,,,,,,,,,,,0,1,,,,,,,0,8,0,7,,,,,,,,,,,993.2483,993.7482,993.9983,994.6484,space,0.6334,,994.6488,28,67,995.6483,995.6484,995.6574,,,,0,47,47,47,1,120,35,,,,,,,,
,,60d3b726feef642a15b86870,65af572ea12c3b109d6ba408,2024-01-23_07h06.05.976,bars,2023.2.3,Win32,59.88023952,657b66ea316d21385b68909f,,,,,,,,,,,995.6586,996.6477,,,997.1479,997.3977,,171,171,,,,,,,,,,,,,,,,bars/031.png,bars/mask008.png,,,,,,,,,,,,0,2,,,,,,,0,10,0,10,,,,,,,,,,,996.6479,997.1478,997.3979,998.2655,space,0.8513,,998.2657,51,44,999.2641,999.2643,999.2703,,,,0,48,48,48,1,120,35,,,,,,,,
,,60d3b726feef642a15b86870,65af572ea12c3b109d6ba408,2024-01-23_07h06.05.976,bars,2023.2.3,Win32,59.88023952,657b66ea316d21385b68909f,,,,,,,,,,,999.2709,1000.2642,,,1000.7646,1001.0144,,80,80,,,,,,,,,,,,,,,,bars/004.png,bars/mask006.png,,,,,,,,,,,,0,2,,,,,,,2,8,2,10,,,,,,,,,,,1000.2643,1000.7645,1001.0145,1003.0308,space,2.0001,,1003.031,55,45,1004.0305,1004.0307,1004.0576,,,,0,49,49,49,1,25,125,,,,,,,,
,,60d3b726feef642a15b86870,65af572ea12c3b109d6ba408,2024-01-23_07h06.05.976,bars,2023.2.3,Win32,59.88023952,657b66ea316d21385b68909f,,,,,,,,,,,,,,,,,,,,,,,,,,,,,,,,,,,,,,,,,,,,,,,,,,,,,,,,,,,,,,,,,,,,,,,,,,,,,,,,,,,,,,,,,,,,,1004.0579,1064.0606,0,1,1,4,1,sequence_tables/blk037.csv
,,60d3b726feef642a15b86870,65af572ea12c3b109d6ba408,2024-01-23_07h06.05.976,bars,2023.2.3,Win32,59.88023952,657b66ea316d21385b68909f,,,,,,,,,,,1069.5455,1070.5092,,,1071.0093,1071.2595,,62,62,,,,,,,,,,,,,,,,bars/049.png,bars/mask001.png,,,,,,,,,,,,0,2,,,,,,,4,1,4,1,,,,,,1064.0932,1069.4934,space,5.3858,,1070.5093,1071.0091,1071.2595,1085.1087,space,13.8323,,1085.1095,82,53,1086.1082,1086.1083,1086.1444,,,,0,0,0,0,1,160,115,,,,,,,,
,,60d3b726feef642a15b86870,65af572ea12c3b109d6ba408,2024-01-23_07h06.05.976,bars,2023.2.3,Win32,59.88023952,657b66ea316d21385b68909f,,,,,,,,,,,1086.1449,1087.1414,,,1087.6418,1087.8912,,58,58,,,,,,,,,,,,,,,,bars/002.png,bars/mask000.png,,,,,,,,,,,,0,2,,,,,,,6,0,8,0,,,,,,,,,,,1087.1415,1087.6417,1087.8914,1088.4773,space,0.5764,,1088.4774,72,27,1089.4746,1089.4748,1089.4778,,,,0,1,1,1,1,130,85,,,,,,,,
,,60d3b726feef642a15b86870,65af572ea12c3b109d6ba408,2024-01-23_07h06.05.976,bars,2023.2.3,Win32,59.88023952,657b66ea316d21385b68909f,,,,,,,,,,,1089.479,1090.4742,,,1090.9746,1091.2243,,123,123,,,,,,,,,,,,,,,,bars/022.png,bars/mask006.png,,,,,,,,,,,,0,1,,,,,,,4,2,2,2,,,,,,,,,,,1090.4743,1090.9744,1091.2244,1092.175,space,0.9367,,1092.1753,28,77,1093.174,1093.1742,1093.1805,,,,0,2,2,2,1,95,20,,,,,,,,
,,60d3b726feef642a15b86870,65af572ea12c3b109d6ba408,2024-01-23_07h06.05.976,bars,2023.2.3,Win32,59.88023952,657b66ea316d21385b68909f,,,,,,,,,,,1093.1811,1094.1741,,,1094.6742,1094.9242,,112,112,,,,,,,,,,,,,,,,bars/014.png,bars/mask002.png,,,,,,,,,,,,0,1,,,,,,,2,0,2,0,,,,,,,,,,,1094.1742,1094.6742,1094.9242,1101.374,space,6.4388,,1101.3745,32,68,1102.3733,1102.3735,1102.4038,,,,0,3,3,3,1,80,0,,,,,,,,
,,60d3b726feef642a15b86870,65af572ea12c3b109d6ba408,2024-01-23_07h06.05.976,bars,2023.2.3,Win32,59.88023952,657b66ea316d21385b68909f,,,,,,,,,,,1102.4043,1103.4066,,,1103.9066,1104.1565,,126,126,,,,,,,,,,,,,,,,bars/018.png,bars/mask007.png,,,,,,,,,,,,1,1,,,,,,,4,0,4,0,,,,,,,,,,,1103.4067,1103.9064,1104.1567,1106.2239,space,2.0507,,1106.2242,24,36,1107.2229,1107.223,1107.2542,,,,0,4,4,4,1,150,90,,,,,,,,
,,60d3b726feef642a15b86870,65af572ea12c3b109d6ba408,2024-01-23_07h06.05.976,bars,2023.2.3,Win32,59.88023952,657b66ea316d21385b68909f,,,,,,,,,,,1107.2548,1108.2563,,,1108.7565,1109.0061,,76,76,,,,,,,,,,,,,,,,bars/000.png,bars/mask008.png,,,,,,,,,,,,0,1,,,,,,,2,2,3,1,,,,,,,,,,,1108.2564,1108.7564,1109.0062,1111.0565,space,2.0352,,1111.0569,36,69,1112.0563,1112.0564,1112.059,,,,0,5,5,5,1,40,145,,,,,,,,
,,60d3b726feef642a15b86870,65af572ea12c3b109d6ba408,2024-01-23_07h06.05.976,bars,2023.2.3,Win32,59.88023952,657b66ea316d21385b68909f,,,,,,,,,,,1112.0603,1113.0561,,,1113.556,1113.8063,,119,119,,,,,,,,,,,,,,,,bars/018.png,bars/mask009.png,,,,,,,,,,,,0,2,,,,,,,0,4,1,3,,,,,,,,,,,1113.0562,1113.5559,1113.8064,1115.7065,space,1.8844,,1115.7068,31,29,1116.7056,1116.7058,1116.7404,,,,0,6,6,6,1,150,90,,,,,,,,
,,60d3b726feef642a15b86870,65af572ea12c3b109d6ba408,2024-01-23_07h06.05.976,bars,2023.2.3,Win32,59.88023952,657b66ea316d21385b68909f,,,,,,,,,,,1116.7412,1117.739,,,1118.2392,1118.4891,,133,133,,,,,,,,,,,,,,,,bars/035.png,bars/mask002.png,,,,,,,,,,,,0,1,,,,,,,0,6,0,7,,,,,,,,,,,1117.7392,1118.2392,1118.4892,1120.2391,space,1.7356,,1120.2394,42,73,1121.2385,1121.2386,1121.2481,,,,0,7,7,7,1,175,60,,,,,,,,
,,60d3b726feef642a15b86870,65af572ea12c3b109d6ba408,2024-01-23_07h06.05.976,bars,2023.2.3,Win32,59.88023952,657b66ea316d21385b68909f,,,,,,,,,,,1121.249,1122.2387,,,1122.7389,1122.9886,,178,178,,,,,,,,,,,,,,,,bars/025.png,bars/mask005.png,,,,,,,,,,,,0,2,,,,,,,2,8,2,8,,,,,,,,,,,1122.2388,1122.7388,1122.9886,1123.8889,space,0.8875,,1123.889,73,42,1124.8887,1124.8889,1124.895,,,,0,8,8,8,1,105,40,,,,,,,,
,,60d3b726feef642a15b86870,65af572ea12c3b109d6ba408,2024-01-23_07h06.05.976,bars,2023.2.3,Win32,59.88023952,657b66ea316d21385b68909f,,,,,,,,,,,1124.8957,1125.8888,,,1126.3886,1126.6387,,150,150,,,,,,,,,,,,,,,,bars/045.png,bars/mask007.png,,,,,,,,,,,,0,2,,,,,,,4,6,4,7,,,,,,,,,,,1125.889,1126.3886,1126.6389,1127.8553,space,1.2017,,1127.8557,50,40,1128.8547,1128.8549,1128.8583,,,,0,9,9,9,1,100,10,,,,,,,,
,,60d3b726feef642a15b86870,65af572ea12c3b109d6ba408,2024-01-23_07h06.05.976,bars,2023.2.3,Win32,59.88023952,657b66ea316d21385b68909f,,,,,,,,,,,1128.8593,1129.8547,,,1130.355,1130.6047,,158,158,,,,,,,,,,,,,,,,bars/049.png,bars/mask008.png,,,,,,,,,,,,0,1,,,,,,,2,8,0,8,,,,,,,,,,,1129.8549,1130.3548,1130.6049,1131.9884,space,1.3673,,1131.9887,2,43,1132.9881,1132.9882,1132.9943,,,,0,10,10,10,1,160,115,,,,,,,,
,,60d3b726feef642a15b86870,65af572ea12c3b109d6ba408,2024-01-23_07h06.05.976,bars,2023.2.3,Win32,59.88023952,657b66ea316d21385b68909f,,,,,,,,,,,1132.995,1133.9878,,,1134.4878,1134.7376,,101,101,,,,,,,,,,,,,,,,bars/048.png,bars/mask001.png,,,,,,,,,,,,0,1,,,,,,,4,10,4,8,,,,,,,,,,,1133.988,1134.4878,1134.7376,1135.2214,space,0.4747,,1135.2216,51,74,1136.2208,1136.2209,1136.2238,,,,0,11,11,11,1,50,175,,,,,,,,
,,60d3b726feef642a15b86870,65af572ea12c3b109d6ba408,2024-01-23_07h06.05.976,bars,2023.2.3,Win32,59.88023952,657b66ea316d21385b68909f,,,,,,,,,,,1136.2253,1137.2207,,,1137.7209,1137.9713,,141,141,,,,,,,,,,,,,,,,bars/006.png,bars/mask009.png,,,,,,,,,,,,0,2,,,,,,,2,8,3,10,,,,,,,,,,,1137.2209,1137.7208,1137.9717,1138.4544,space,0.4672,,1138.4544,74,41,1139.4539,1139.454,1139.4614,,,,0,12,12,12,1,35,100,,,,,,,,
,,60d3b726feef642a15b86870,65af572ea12c3b109d6ba408,2024-01-23_07h06.05.976,bars,2023.2.3,Win32,59.88023952,657b66ea316d21385b68909f,,,,,,,,,,,1139.462,1140.454,,,1140.9542,1141.2039,,34,34,,,,,,,,,,,,,,,,bars/035.png,bars/mask008.png,,,,,,,,,,,,1,2,,,,,,,0,10,0,9,,,,,,,,,,,1140.4541,1140.9541,1141.204,1141.9209,space,0.7021,,1141.9213,39,26,1142.9206,1142.9207,1142.9245,,,,0,13,13,13,1,175,60,,,,,,,,
,,60d3b726feef642a15b86870,65af572ea12c3b109d6ba408,2024-01-23_07h06.05.976,bars,2023.2.3,Win32,59.88023952,657b66ea316d21385b68909f,,,,,,,,,,,1142.9256,1143.9205,,,1144.4212,1144.6701,,48,48,,,,,,,,,,,,,,,,bars/033.png,bars/mask003.png,,,,,,,,,,,,0,1,,,,,,,2,10,1,10,,,,,,,,,,,1143.9207,1144.4208,1144.6703,1145.1215,space,0.4405,,1145.1217,23,73,1146.1203,1146.1204,1146.1273,,,,0,14,14,14,1,25,155,,,,,,,,
,,60d3b726feef642a15b86870,65af572ea12c3b109d6ba408,2024-01-23_07h06.05.976,bars,2023.2.3,Win32,59.88023952,657b66ea316d21385b68909f,,,,,,,,,,,1146.128,1147.1201,,,1147.6204,1147.8703,,26,26,,,,,,,,,,,,,,,,bars/028.png,bars/mask002.png,,,,,,,,,,,,0,1,,,,,,,0,8,0,6,,,,,,,,,,,1147.1202,1147.6203,1147.8703,1147.9711,space,0.091,,1147.9714,19,86,1148.9701,1148.9703,1148.9746,,,,0,15,15,15,1,45,120,,,,,,,,
,,60d3b726feef642a15b86870,65af572ea12c3b109d6ba408,2024-01-23_07h06.05.976,bars,2023.2.3,Win32,59.88023952,657b66ea316d21385b68909f,,,,,,,,,,,1148.9753,1149.9699,,,1150.4702,1150.7202,,67,67,,,,,,,,,,,,,,,,bars/025.png,bars/mask001.png,,,,,,,,,,,,0,2,,,,,,,0,6,1,5,,,,,,,,,,,1149.9702,1150.4701,1150.7202,1151.2871,space,0.5511,,1151.2874,38,27,1152.2865,1152.2867,1152.2929,,,,0,16,16,16,1,105,40,,,,,,,,
,,60d3b726feef642a15b86870,65af572ea12c3b109d6ba408,2024-01-23_07h06.05.976,bars,2023.2.3,Win32,59.88023952,657b66ea316d21385b68909f,,,,,,,,,,,1152.2936,1153.2863,,,1153.7864,1154.0363,,136,136,,,,,,,,,,,,,,,,bars/039.png,bars/mask005.png,,,,,,,,,,,,0,2,,,,,,,0,8,0,8,,,,,,,,,,,1153.2865,1153.7863,1154.0364,1156.9202,space,2.8706,,1156.9204,39,31,1157.9194,1157.9196,1157.9504,,,,0,17,17,17,1,175,105,,,,,,,,
,,60d3b726feef642a15b86870,65af572ea12c3b109d6ba408,2024-01-23_07h06.05.976,bars,2023.2.3,Win32,59.88023952,657b66ea316d21385b68909f,,,,,,,,,,,1157.9509,1158.9526,,,1159.4534,1159.7026,,174,174,,,,,,,,,,,,,,,,bars/026.png,bars/mask007.png,,,,,,,,,,,,0,1,,,,,,,0,10,0,10,,,,,,,,,,,1158.9528,1159.4533,1159.7027,1160.8033,space,1.0838,,1160.8038,41,89,1161.8027,1161.8029,1161.8133,,,,0,18,18,18,1,35,85,,,,,,,,
,,60d3b726feef642a15b86870,65af572ea12c3b109d6ba408,2024-01-23_07h06.05.976,bars,2023.2.3,Win32,59.88023952,657b66ea316d21385b68909f,,,,,,,,,,,1161.8141,1162.8022,,,1163.3025,1163.5525,,70,70,,,,,,,,,,,,,,,,bars/033.png,bars/mask007.png,,,,,,,,,,,,0,1,,,,,,,2,8,2,9,,,,,,,,,,,1162.8025,1163.3023,1163.5525,1164.3191,space,0.7511,,1164.3194,45,85,1165.3187,1165.319,1165.3221,,,,0,19,19,19,1,25,155,,,,,,,,
,,60d3b726feef642a15b86870,65af572ea12c3b109d6ba408,2024-01-23_07h06.05.976,bars,2023.2.3,Win32,59.88023952,657b66ea316d21385b68909f,,,,,,,,,,,1165.3233,1166.319,,,1166.819,1167.069,,22,22,,,,,,,,,,,,,,,,bars/027.png,bars/mask003.png,,,,,,,,,,,,0,2,,,,,,,4,6,4,7,,,,,,,,,,,1166.3191,1166.8189,1167.0691,1167.8024,space,0.7199,,1167.8025,88,28,1168.8018,1168.802,1168.8091,,,,0,20,20,20,1,110,50,,,,,,,,
,,60d3b726feef642a15b86870,65af572ea12c3b109d6ba408,2024-01-23_07h06.05.976,bars,2023.2.3,Win32,59.88023952,657b66ea316d21385b68909f,,,,,,,,,,,1168.8098,1169.8018,,,1170.3021,1170.5522,,115,115,,,,,,,,,,,,,,,,bars/020.png,bars/mask007.png,,,,,,,,,,,,7,1,,,,,,,6,8,7,7,,,,,,,,,,,1169.802,1170.302,1170.5524,1171.087,space,0.525,,1171.0876,0,55,1172.085,1172.0851,1172.0913,,,,0,21,21,21,1,115,170,,,,,,,,
,,60d3b726feef642a15b86870,65af572ea12c3b109d6ba408,2024-01-23_07h06.05.976,bars,2023.2.3,Win32,59.88023952,657b66ea316d21385b68909f,,,,,,,,,,,1172.0921,1173.0849,,,1173.5851,1173.8351,,72,72,,,,,,,,,,,,,,,,bars/016.png,bars/mask006.png,,,,,,,,,,,,0,1,,,,,,,4,10,5,10,,,,,,,,,,,1173.0851,1173.5851,1173.8352,1174.402,space,0.5537,,1174.4022,32,87,1175.4013,1175.4015,1175.4046,,,,0,22,22,22,1,40,165,,,,,,,,
,,60d3b726feef642a15b86870,65af572ea12c3b109d6ba408,2024-01-23_07h06.05.976,bars,2023.2.3,Win32,59.88023952,657b66ea316d21385b68909f,,,,,,,,,,,1175.4059,1176.4014,,,1176.9017,1177.1513,,39,39,,,,,,,,,,,,,,,,bars/004.png,bars/mask006.png,,,,,,,,,,,,4,1,,,,,,,6,8,7,9,,,,,,,,,,,1176.4015,1176.9017,1177.1515,1184.2013,space,7.0337,,1184.2015,14,86,1185.2007,1185.2009,1185.2351,,,,0,23,23,23,1,25,125,,,,,,,,
,,60d3b726feef642a15b86870,65af572ea12c3b109d6ba408,2024-01-23_07h06.05.976,bars,2023.2.3,Win32,59.88023952,657b66ea316d21385b68909f,,,,,,,,,,,1185.2357,1186.2342,,,1186.7341,1186.9842,,106,106,,,,,,,,,,,,,,,,bars/033.png,bars/mask008.png,,,,,,,,,,,,0,2,,,,,,,8,10,9,10,,,,,,,,,,,1186.2342,1186.7341,1186.9842,1200.0839,space,13.0829,,1200.0842,81,49,1201.0828,1201.0829,1201.1173,,,,0,24,24,24,1,25,155,,,,,,,,
,,60d3b726feef642a15b86870,65af572ea12c3b109d6ba408,2024-01-23_07h06.05.976,bars,2023.2.3,Win32,59.88023952,657b66ea316d21385b68909f,,,,,,,,,,,1201.1178,1202.116,,,1202.6162,1202.8661,,14,14,,,,,,,,,,,,,,,,bars/034.png,bars/mask004.png,,,,,,,,,,,,0,2,,,,,,,10,8,10,9,,,,,,,,,,,1202.1161,1202.6161,1202.8662,1202.9502,space,0.0687,,1202.9504,69,51,1203.9493,1203.9495,1203.9523,,,,0,25,25,25,1,125,65,,,,,,,,
,,60d3b726feef642a15b86870,65af572ea12c3b109d6ba408,2024-01-23_07h06.05.976,bars,2023.2.3,Win32,59.88023952,657b66ea316d21385b68909f,,,,,,,,,,,1203.9536,1204.9494,,,1205.4493,1205.6994,,166,166,,,,,,,,,,,,,,,,bars/049.png,bars/mask007.png,,,,,,,,,,,,8,1,,,,,,,10,10,10,10,,,,,,,,,,,1204.9494,1205.4493,1205.6995,1208.3333,space,2.6183,,1208.3337,6,51,1209.3322,1209.3323,1209.3662,,,,0,26,26,26,1,160,115,,,,,,,,
,,60d3b726feef642a15b86870,65af572ea12c3b109d6ba408,2024-01-23_07h06.05.976,bars,2023.2.3,Win32,59.88023952,657b66ea316d21385b68909f,,,,,,,,,,,1209.3667,1210.3655,,,1210.8658,1211.1154,,18,18,,,,,,,,,,,,,,,,bars/030.png,bars/mask002.png,,,,,,,,,,,,0,2,,,,,,,8,10,7,10,,,,,,,,,,,1210.3656,1210.8657,1211.1156,1212.8825,space,1.7572,,1212.8827,58,47,1213.8817,1213.882,1213.9139,,,,0,27,27,27,1,140,65,,,,,,,,
,,60d3b726feef642a15b86870,65af572ea12c3b109d6ba408,2024-01-23_07h06.05.976,bars,2023.2.3,Win32,59.88023952,657b66ea316d21385b68909f,,,,,,,,,,,1213.9149,1214.9152,,,1215.4153,1215.6651,,63,63,,,,,,,,,,,,,,,,bars/025.png,bars/mask003.png,,,,,,,,,,,,2,2,,,,,,,10,8,10,7,,,,,,,,,,,1214.9154,1215.4153,1215.6652,1220.5155,space,4.8386,,1220.5156,42,23,1221.5147,1221.5148,1221.545,,,,0,28,28,28,1,105,40,,,,,,,,
,,60d3b726feef642a15b86870,65af572ea12c3b109d6ba408,2024-01-23_07h06.05.976,bars,2023.2.3,Win32,59.88023952,657b66ea316d21385b68909f,,,,,,,,,,,1221.5454,1222.548,,,1223.0485,1223.298,,31,31,,,,,,,,,,,,,,,,bars/043.png,bars/mask008.png,,,,,,,,,,,,10,1,,,,,,,10,6,10,5,,,,,,,,,,,1222.5482,1223.0483,1223.2981,1224.9819,space,1.668,,1224.9829,1,81,1225.9812,1225.9813,1226.0204,,,,0,29,29,29,1,30,130,,,,,,,,
,,60d3b726feef642a15b86870,65af572ea12c3b109d6ba408,2024-01-23_07h06.05.976,bars,2023.2.3,Win32,59.88023952,657b66ea316d21385b68909f,,,,,,,,,,,1226.0208,1227.0142,,,1227.5143,1227.7642,,27,27,,,,,,,,,,,,,,,,bars/043.png,bars/mask009.png,,,,,,,,,,,,6,1,,,,,,,8,8,7,8,,,,,,,,,,,1227.0143,1227.5141,1227.7643,1229.0147,space,1.2391,,1229.0151,3,77,1230.0138,1230.014,1230.0163,,,,0,30,30,30,1,30,130,,,,,,,,
,,60d3b726feef642a15b86870,65af572ea12c3b109d6ba408,2024-01-23_07h06.05.976,bars,2023.2.3,Win32,59.88023952,657b66ea316d21385b68909f,,,,,,,,,,,1230.0176,1231.0138,,,1231.5142,1231.7643,,79,79,,,,,,,,,,,,,,,,bars/034.png,bars/mask008.png,,,,,,,,,,,,5,2,,,,,,,6,10,5,10,,,,,,,,,,,1231.014,1231.5141,1231.7644,1232.9974,space,1.2163,,1232.9977,46,14,1233.997,1233.9971,1234.0035,,,,0,31,31,31,1,125,65,,,,,,,,
,,60d3b726feef642a15b86870,65af572ea12c3b109d6ba408,2024-01-23_07h06.05.976,bars,2023.2.3,Win32,59.88023952,657b66ea316d21385b68909f,,,,,,,,,,,1234.0041,1234.9968,,,1235.4972,1235.747,,36,36,,,,,,,,,,,,,,,,bars/025.png,bars/mask006.png,,,,,,,,,,,,9,2,,,,,,,4,10,4,10,,,,,,,,,,,1234.997,1235.4971,1235.7471,1241.847,space,6.0913,,1241.847,69,4,1242.8465,1242.8466,1242.8767,,,,0,32,32,32,1,105,40,,,,,,,,
,,60d3b726feef642a15b86870,65af572ea12c3b109d6ba408,2024-01-23_07h06.05.976,bars,2023.2.3,Win32,59.88023952,657b66ea316d21385b68909f,,,,,,,,,,,1242.8772,1243.8799,,,1244.3802,1244.6299,,41,41,,,,,,,,,,,,,,,,bars/042.png,bars/mask009.png,,,,,,,,,,,,0,2,,,,,,,6,10,5,10,,,,,,,,,,,1243.8799,1244.38,1244.63,1246.3131,space,1.6687,,1246.3134,76,34,1247.3129,1247.313,1247.3433,,,,0,33,33,33,1,145,75,,,,,,,,
,,60d3b726feef642a15b86870,65af572ea12c3b109d6ba408,2024-01-23_07h06.05.976,bars,2023.2.3,Win32,59.88023952,657b66ea316d21385b68909f,,,,,,,,,,,1247.3438,1248.3459,,,1248.8461,1249.0961,,152,152,,,,,,,,,,,,,,,,bars/048.png,bars/mask009.png,,,,,,,,,,,,2,2,,,,,,,4,10,3,10,,,,,,,,,,,1248.3461,1248.8461,1249.0961,1250.0801,space,0.9713,,1250.0804,78,23,1251.0792,1251.0794,1251.0826,,,,0,34,34,34,1,50,175,,,,,,,,
,,60d3b726feef642a15b86870,65af572ea12c3b109d6ba408,2024-01-23_07h06.05.976,bars,2023.2.3,Win32,59.88023952,657b66ea316d21385b68909f,,,,,,,,,,,1251.0839,1252.0791,,,1252.5794,1252.8293,,12,12,,,,,,,,,,,,,,,,bars/017.png,bars/mask004.png,,,,,,,,,,,,0,2,,,,,,,6,8,6,7,,,,,,,,,,,1252.0793,1252.5793,1252.8293,1255.046,space,2.2081,,1255.0465,47,33,1256.0453,1256.0455,1256.0853,,,,0,35,35,35,1,145,45,,,,,,,,
,,60d3b726feef642a15b86870,65af572ea12c3b109d6ba408,2024-01-23_07h06.05.976,bars,2023.2.3,Win32,59.88023952,657b66ea316d21385b68909f,,,,,,,,,,,1256.0862,1257.0786,,,1257.5788,1257.8285,,25,25,,,,,,,,,,,,,,,,bars/019.png,bars/mask002.png,,,,,,,,,,,,3,1,,,,,,,8,10,9,10,,,,,,,,,,,1257.0787,1257.5788,1257.8287,1259.9789,space,2.1353,,1259.9794,20,80,1260.9786,1260.9787,1260.9848,,,,0,36,36,36,1,45,105,,,,,,,,
,,60d3b726feef642a15b86870,65af572ea12c3b109d6ba408,2024-01-23_07h06.05.976,bars,2023.2.3,Win32,59.88023952,657b66ea316d21385b68909f,,,,,,,,,,,1260.9854,1261.9787,,,1262.4786,1262.7284,,32,32,,,,,,,,,,,,,,,,bars/044.png,bars/mask001.png,,,,,,,,,,,,0,1,,,,,,,10,8,10,9,,,,,,,,,,,1261.9787,1262.4785,1262.7285,1264.4123,space,1.6679,,1264.4129,43,57,1265.4115,1265.4117,1265.442,,,,0,37,37,37,1,75,155,,,,,,,,
,,60d3b726feef642a15b86870,65af572ea12c3b109d6ba408,2024-01-23_07h06.05.976,bars,2023.2.3,Win32,59.88023952,657b66ea316d21385b68909f,,,,,,,,,,,1265.4426,1266.4446,,,1266.945,1267.1949,,36,36,,,,,,,,,,,,,,,,bars/012.png,bars/mask001.png,,,,,,,,,,,,3,2,,,,,,,8,10,7,10,,,,,,,,,,,1266.4448,1266.9449,1267.195,1268.6646,space,1.4607,,1268.6647,54,21,1269.661,1269.6612,1269.6928,,,,0,38,38,38,1,90,15,,,,,,,,
,,60d3b726feef642a15b86870,65af572ea12c3b109d6ba408,2024-01-23_07h06.05.976,bars,2023.2.3,Win32,59.88023952,657b66ea316d21385b68909f,,,,,,,,,,,1269.6934,1270.6944,,,1271.1946,1271.4445,,126,126,,,,,,,,,,,,,,,,bars/041.png,bars/mask000.png,,,,,,,,,,,,0,2,,,,,,,6,10,5,10,,,,,,,,,,,1270.6945,1271.1946,1271.4446,1273.8115,space,2.3514,,1273.8119,74,41,1274.8111,1274.8112,1274.8143,,,,0,39,39,39,1,20,85,,,,,,,,
,,60d3b726feef642a15b86870,65af572ea12c3b109d6ba408,2024-01-23_07h06.05.976,bars,2023.2.3,Win32,59.88023952,657b66ea316d21385b68909f,,,,,,,,,,,1274.8154,1275.8108,,,1276.3107,1276.5611,,15,15,,,,,,,,,,,,,,,,bars/036.png,bars/mask000.png,,,,,,,,,,,,8,2,,,,,,,4,10,2,10,,,,,,,,,,,1275.8109,1276.3106,1276.5612,1279.3782,space,2.808,,1279.3784,50,5,1280.3771,1280.3772,1280.4071,,,,0,40,40,40,1,145,20,,,,,,,,
,,60d3b726feef642a15b86870,65af572ea12c3b109d6ba408,2024-01-23_07h06.05.976,bars,2023.2.3,Win32,59.88023952,657b66ea316d21385b68909f,,,,,,,,,,,1280.4076,1281.4104,,,1281.9102,1282.1604,,131,131,,,,,,,,,,,,,,,,bars/016.png,bars/mask006.png,,,,,,,,,,,,0,2,,,,,,,6,10,5,10,,,,,,,,,,,1281.4106,1281.9102,1282.1605,1284.8273,space,2.651,,1284.8278,89,34,1285.8266,1285.8267,1285.861,,,,0,41,41,41,1,40,165,,,,,,,,
,,60d3b726feef642a15b86870,65af572ea12c3b109d6ba408,2024-01-23_07h06.05.976,bars,2023.2.3,Win32,59.88023952,657b66ea316d21385b68909f,,,,,,,,,,,1285.8615,1286.8605,,,1287.3601,1287.6099,,164,164,,,,,,,,,,,,,,,,bars/048.png,bars/mask000.png,,,,,,,,,,,,6,2,,,,,,,4,10,4,10,,,,,,,,,,,1286.8606,1287.3601,1287.6099,1293.8266,space,6.2015,,1293.8268,66,11,1294.8262,1294.8262,1294.8563,,,,0,42,42,42,1,50,175,,,,,,,,
,,60d3b726feef642a15b86870,65af572ea12c3b109d6ba408,2024-01-23_07h06.05.976,bars,2023.2.3,Win32,59.88023952,657b66ea316d21385b68909f,,,,,,,,,,,1294.8568,1295.8593,,,1296.3594,1296.6093,,128,128,,,,,,,,,,,,,,,,bars/035.png,bars/mask000.png,,,,,,,,,,,,0,1,,,,,,,2,10,1,9,,,,,,,,,,,1295.8594,1296.3593,1296.6095,1298.9429,space,2.3184,,1298.9433,47,68,1299.9421,1299.9422,1299.9754,,,,0,43,43,43,1,175,60,,,,,,,,
,,60d3b726feef642a15b86870,65af572ea12c3b109d6ba408,2024-01-23_07h06.05.976,bars,2023.2.3,Win32,59.88023952,657b66ea316d21385b68909f,,,,,,,,,,,1299.976,1300.9753,,,1301.4757,1301.7256,,28,28,,,,,,,,,,,,,,,,bars/004.png,bars/mask005.png,,,,,,,,,,,,0,1,,,,,,,0,8,0,6,,,,,,,,,,,1300.9754,1301.4756,1301.7257,1304.6588,space,2.9228,,1304.6592,3,83,1305.6583,1305.6584,1305.6924,,,,0,44,44,44,1,25,125,,,,,,,,
,,60d3b726feef642a15b86870,65af572ea12c3b109d6ba408,2024-01-23_07h06.05.976,bars,2023.2.3,Win32,59.88023952,657b66ea316d21385b68909f,,,,,,,,,,,1305.6929,1306.6915,,,1307.1921,1307.4417,,19,19,,,,,,,,,,,,,,,,bars/032.png,bars/mask005.png,,,,,,,,,,,,10,2,,,,,,,0,10,1,10,,,,,,,,,,,1306.6916,1307.192,1307.4417,1309.7755,space,2.3169,,1309.7758,74,1,1310.7747,1310.7749,1310.8078,,,,0,45,45,45,1,125,20,,,,,,,,
,,60d3b726feef642a15b86870,65af572ea12c3b109d6ba408,2024-01-23_07h06.05.976,bars,2023.2.3,Win32,59.88023952,657b66ea316d21385b68909f,,,,,,,,,,,1310.8083,1311.8079,,,1312.3084,1312.5581,,38,38,,,,,,,,,,,,,,,,bars/004.png,bars/mask005.png,,,,,,,,,,,,1,1,,,,,,,2,10,2,10,,,,,,,,,,,1311.808,1312.3083,1312.5581,1314.5583,space,1.9843,,1314.5586,13,87,1315.5577,1315.5577,1315.6064,,,,0,46,46,46,1,25,125,,,,,,,,
,,60d3b726feef642a15b86870,65af572ea12c3b109d6ba408,2024-01-23_07h06.05.976,bars,2023.2.3,Win32,59.88023952,657b66ea316d21385b68909f,,,,,,,,,,,1315.6079,1316.6075,,,1317.1077,1317.3577,,30,30,,,,,,,,,,,,,,,,bars/027.png,bars/mask002.png,,,,,,,,,,,,3,2,,,,,,,0,10,1,10,,,,,,,,,,,1316.6076,1317.1076,1317.3577,1319.5272,space,2.1604,,1319.5272,80,20,1320.524,1320.5242,1320.5574,,,,0,47,47,47,1,110,50,,,,,,,,
,,60d3b726feef642a15b86870,65af572ea12c3b109d6ba408,2024-01-23_07h06.05.976,bars,2023.2.3,Win32,59.88023952,657b66ea316d21385b68909f,,,,,,,,,,,1320.558,1321.5575,,,1322.0571,1322.3071,,20,20,,,,,,,,,,,,,,,,bars/044.png,bars/mask003.png,,,,,,,,,,,,0,2,,,,,,,2,10,2,10,,,,,,,,,,,1321.5575,1322.0571,1322.3071,1325.1907,space,2.8681,,1325.191,55,45,1326.1902,1326.1904,1326.2197,,,,0,48,48,48,1,75,155,,,,,,,,
,,60d3b726feef642a15b86870,65af572ea12c3b109d6ba408,2024-01-23_07h06.05.976,bars,2023.2.3,Win32,59.88023952,657b66ea316d21385b68909f,,,,,,,,,,,1326.2201,1327.2235,,,1327.7238,1327.9734,,26,26,,,,,,,,,,,,,,,,bars/045.png,bars/mask008.png,,,,,,,,,,,,4,2,,,,,,,0,10,0,8,,,,,,,,,,,1327.2237,1327.7236,1327.9736,1330.892,space,2.9094,,1330.8922,74,16,1331.8902,1331.8903,1331.9206,,,,0,49,49,49,1,100,10,,,,,,,,
,,60d3b726feef642a15b86870,65af572ea12c3b109d6ba408,2024-01-23_07h06.05.976,bars,2023.2.3,Win32,59.88023952,657b66ea316d21385b68909f,,,,,,,,,,,,,,,,,,,,,,,,,,,,,,,,,,,,,,,,,,,,,,,,,,,,,,,,,,,,,,,,,,,,,,,,,,,,,,,,,,,,,,,,,,,,,1331.9207,1391.9194,0,2,2,3,1,sequence_tables/blk031.csv
,,60d3b726feef642a15b86870,65af572ea12c3b109d6ba408,2024-01-23_07h06.05.976,bars,2023.2.3,Win32,59.88023952,657b66ea316d21385b68909f,,,,,,,,,,,1405.1773,1406.1512,,,1406.6514,1406.9013,,144,144,,,,,,,,,,,,,,,,bars/037.png,bars/mask003.png,,,,,,,,,,,,7,1,,,,,,,8,8,9,9,,,,,,1391.9518,1405.1355,space,13.1702,,1406.1512,1406.6512,1406.9014,1408.3523,space,1.4348,,1408.3525,6,39,1409.3507,1409.3508,1409.3828,,,,0,0,0,0,1,150,105,,,,,,,,
,,60d3b726feef642a15b86870,65af572ea12c3b109d6ba408,2024-01-23_07h06.05.976,bars,2023.2.3,Win32,59.88023952,657b66ea316d21385b68909f,,,,,,,,,,,1409.3839,1410.3842,,,1410.8844,1411.1342,,63,63,,,,,,,,,,,,,,,,bars/011.png,bars/mask007.png,,,,,,,,,,,,2,2,,,,,,,10,6,8,6,,,,,,,,,,,1410.3844,1410.8843,1411.1343,1411.8179,space,0.6677,,1411.8183,83,22,1412.8174,1412.8176,1412.8238,,,,0,1,1,1,1,160,85,,,,,,,,
,,60d3b726feef642a15b86870,65af572ea12c3b109d6ba408,2024-01-23_07h06.05.976,bars,2023.2.3,Win32,59.88023952,657b66ea316d21385b68909f,,,,,,,,,,,1412.8244,1413.8173,,,1414.3181,1414.5673,,19,19,,,,,,,,,,,,,,,,bars/039.png,bars/mask006.png,,,,,,,,,,,,2,1,,,,,,,8,8,10,8,,,,,,,,,,,1413.8175,1414.318,1414.5674,1416.4012,space,1.8233,,1416.4016,24,86,1417.4002,1417.4003,1417.4323,,,,0,2,2,2,1,175,105,,,,,,,,
,,60d3b726feef642a15b86870,65af572ea12c3b109d6ba408,2024-01-23_07h06.05.976,bars,2023.2.3,Win32,59.88023952,657b66ea316d21385b68909f,,,,,,,,,,,1417.4333,1418.4336,,,1418.9337,1419.1838,,25,25,,,,,,,,,,,,,,,,bars/041.png,bars/mask001.png,,,,,,,,,,,,3,1,,,,,,,6,6,4,7,,,,,,,,,,,1418.4338,1418.9336,1419.184,1421.8499,space,2.6559,,1421.8501,5,60,1422.8497,1422.8498,1422.874,,,,0,3,3,3,1,20,85,,,,,,,,
,,60d3b726feef642a15b86870,65af572ea12c3b109d6ba408,2024-01-23_07h06.05.976,bars,2023.2.3,Win32,59.88023952,657b66ea316d21385b68909f,,,,,,,,,,,1422.8744,1423.8665,,,1424.3666,1424.6162,,28,28,,,,,,,,,,,,,,,,bars/001.png,bars/mask006.png,,,,,,,,,,,,0,2,,,,,,,4,8,5,7,,,,,,,,,,,1423.8665,1424.3664,1424.6164,1431.5669,space,6.9426,,1431.567,78,57,1432.5659,1432.5661,1432.6001,,,,0,4,4,4,1,130,85,,,,,,,,
,,60d3b726feef642a15b86870,65af572ea12c3b109d6ba408,2024-01-23_07h06.05.976,bars,2023.2.3,Win32,59.88023952,657b66ea316d21385b68909f,,,,,,,,,,,1432.6006,1433.599,,,1434.0992,1434.3491,,47,47,,,,,,,,,,,,,,,,bars/046.png,bars/mask003.png,,,,,,,,,,,,0,2,,,,,,,2,6,1,6,,,,,,,,,,,1433.5991,1434.0991,1434.3492,1436.2999,space,1.9343,,1436.3001,72,38,1437.2987,1437.2989,1437.3287,,,,0,5,5,5,1,155,85,,,,,,,,
,,60d3b726feef642a15b86870,65af572ea12c3b109d6ba408,2024-01-23_07h06.05.976,bars,2023.2.3,Win32,59.88023952,657b66ea316d21385b68909f,,,,,,,,,,,1437.3292,1438.332,,,1438.8322,1439.082,,126,126,,,,,,,,,,,,,,,,bars/022.png,bars/mask000.png,,,,,,,,,,,,0,1,,,,,,,4,4,3,6,,,,,,,,,,,1438.3322,1438.8321,1439.082,1441.7485,space,2.6507,,1441.7486,31,74,1442.7483,1442.7484,1442.7812,,,,0,6,6,6,1,95,20,,,,,,,,
,,60d3b726feef642a15b86870,65af572ea12c3b109d6ba408,2024-01-23_07h06.05.976,bars,2023.2.3,Win32,59.88023952,657b66ea316d21385b68909f,,,,,,,,,,,1442.7819,1443.7816,,,1444.2817,1444.5317,,57,57,,,,,,,,,,,,,,,,bars/045.png,bars/mask004.png,,,,,,,,,,,,0,1,,,,,,,2,2,1,1,,,,,,,,,,,1443.7816,1444.2817,1444.5317,1452.0316,space,7.4857,,1452.0319,43,47,1453.0313,1453.0313,1453.0624,,,,0,7,7,7,1,100,10,,,,,,,,
,,60d3b726feef642a15b86870,65af572ea12c3b109d6ba408,2024-01-23_07h06.05.976,bars,2023.2.3,Win32,59.88023952,657b66ea316d21385b68909f,,,,,,,,,,,1453.0628,1454.0644,,,1454.5644,1454.8141,,164,164,,,,,,,,,,,,,,,,bars/041.png,bars/mask006.png,,,,,,,,,,,,0,1,,,,,,,4,4,3,3,,,,,,,,,,,1454.0645,1454.5642,1454.8143,1457.1645,space,2.3348,,1457.1652,36,79,1458.1638,1458.1639,1458.1935,,,,0,8,8,8,1,20,85,,,,,,,,
,,60d3b726feef642a15b86870,65af572ea12c3b109d6ba408,2024-01-23_07h06.05.976,bars,2023.2.3,Win32,59.88023952,657b66ea316d21385b68909f,,,,,,,,,,,1458.1939,1459.197,,,1459.6972,1459.947,,51,51,,,,,,,,,,,,,,,,bars/031.png,bars/mask005.png,,,,,,,,,,,,3,2,,,,,,,2,6,3,7,,,,,,,,,,,1459.1971,1459.6972,1459.9471,1461.2649,space,1.3041,,1461.2651,69,16,1462.2637,1462.2639,1462.2703,,,,0,9,9,9,1,120,35,,,,,,,,
,,60d3b726feef642a15b86870,65af572ea12c3b109d6ba408,2024-01-23_07h06.05.976,bars,2023.2.3,Win32,59.88023952,657b66ea316d21385b68909f,,,,,,,,,,,1462.2708,1463.2638,,,1463.7638,1464.0138,,62,62,,,,,,,,,,,,,,,,bars/036.png,bars/mask009.png,,,,,,,,,,,,0,2,,,,,,,4,8,4,8,,,,,,,,,,,1463.2638,1463.7637,1464.0139,1477.7964,space,13.7703,,1477.7966,83,42,1478.7958,1478.7959,1478.8275,,,,0,10,10,10,1,145,20,,,,,,,,
,,60d3b726feef642a15b86870,65af572ea12c3b109d6ba408,2024-01-23_07h06.05.976,bars,2023.2.3,Win32,59.88023952,657b66ea316d21385b68909f,,,,,,,,,,,1478.828,1479.8293,,,1480.3291,1480.5789,,129,129,,,,,,,,,,,,,,,,bars/034.png,bars/mask007.png,,,,,,,,,,,,5,1,,,,,,,6,6,6,6,,,,,,,,,,,1479.8294,1480.329,1480.579,1485.3791,space,4.7851,,1485.3793,4,64,1486.3786,1486.3787,1486.4113,,,,0,11,11,11,1,125,65,,,,,,,,
,,60d3b726feef642a15b86870,65af572ea12c3b109d6ba408,2024-01-23_07h06.05.976,bars,2023.2.3,Win32,59.88023952,657b66ea316d21385b68909f,,,,,,,,,,,1486.412,1487.4118,,,1487.912,1488.1619,,1,1,,,,,,,,,,,,,,,,bars/031.png,bars/mask004.png,,,,,,,,,,,,0,2,,,,,,,4,4,3,3,,,,,,,,,,,1487.412,1487.9118,1488.162,1494.0949,space,5.923,,1494.0952,61,34,1495.0944,1495.0946,1495.1314,,,,0,12,12,12,1,120,35,,,,,,,,
,,60d3b726feef642a15b86870,65af572ea12c3b109d6ba408,2024-01-23_07h06.05.976,bars,2023.2.3,Win32,59.88023952,657b66ea316d21385b68909f,,,,,,,,,,,1495.1321,1496.1278,,,1496.628,1496.8779,,136,136,,,,,,,,,,,,,,,,bars/034.png,bars/mask002.png,,,,,,,,,,,,1,1,,,,,,,2,6,1,6,,,,,,,,,,,1496.1279,1496.6278,1496.8779,1502.2614,space,5.3692,,1502.262,11,71,1503.2607,1503.2609,1503.2939,,,,0,13,13,13,1,125,65,,,,,,,,
,,60d3b726feef642a15b86870,65af572ea12c3b109d6ba408,2024-01-23_07h06.05.976,bars,2023.2.3,Win32,59.88023952,657b66ea316d21385b68909f,,,,,,,,,,,1503.2944,1504.2941,,,1504.7946,1505.044,,152,152,,,,,,,,,,,,,,,,bars/032.png,bars/mask002.png,,,,,,,,,,,,0,1,,,,,,,0,8,0,8,,,,,,,,,,,1504.2941,1504.7945,1505.0442,1515.8766,space,10.8239,,1515.8767,27,48,1516.8761,1516.8762,1516.9069,,,,0,14,14,14,1,125,20,,,,,,,,
,,60d3b726feef642a15b86870,65af572ea12c3b109d6ba408,2024-01-23_07h06.05.976,bars,2023.2.3,Win32,59.88023952,657b66ea316d21385b68909f,,,,,,,,,,,1516.9074,1517.9097,,,1518.4099,1518.6597,,113,113,,,,,,,,,,,,,,,,bars/020.png,bars/mask008.png,,,,,,,,,,,,0,1,,,,,,,0,6,0,6,,,,,,,,,,,1517.9099,1518.4097,1518.6613,1521.3599,space,2.6888,,1521.3605,2,57,1522.3593,1522.3594,1522.3898,,,,0,15,15,15,1,115,170,,,,,,,,
,,60d3b726feef642a15b86870,65af572ea12c3b109d6ba408,2024-01-23_07h06.05.976,bars,2023.2.3,Win32,59.88023952,657b66ea316d21385b68909f,,,,,,,,,,,1522.3903,1523.3927,,,1523.8928,1524.1427,,98,98,,,,,,,,,,,,,,,,bars/010.png,bars/mask007.png,,,,,,,,,,,,0,2,,,,,,,2,8,3,9,,,,,,,,,,,1523.3928,1523.8927,1524.1429,1575.1225,space,50.9673,,1575.1229,67,43,1576.1221,1576.1222,1576.1567,,,,0,16,16,16,1,165,55,,,,,,,,
,,60d3b726feef642a15b86870,65af572ea12c3b109d6ba408,2024-01-23_07h06.05.976,bars,2023.2.3,Win32,59.88023952,657b66ea316d21385b68909f,,,,,,,,,,,1576.1572,1577.1555,,,1577.6555,1577.9052,,64,64,,,,,,,,,,,,,,,,bars/034.png,bars/mask007.png,,,,,,,,,,,,10,2,,,,,,,0,10,1,10,,,,,,,,,,,1577.1556,1577.6554,1577.9054,1584.6552,space,6.7338,,1584.6556,61,1,1585.6546,1585.6548,1585.6855,,,,0,17,17,17,1,125,65,,,,,,,,
,,60d3b726feef642a15b86870,65af572ea12c3b109d6ba408,2024-01-23_07h06.05.976,bars,2023.2.3,Win32,59.88023952,657b66ea316d21385b68909f,,,,,,,,,,,1585.686,1586.6879,,,1587.188,1587.441,,161,161,,,,,,,,,,,,,,,,bars/018.png,bars/mask006.png,,,,,,,,,,,,1,1,,,,,,,2,8,1,7,,,,,,,,,,,1586.6881,1587.1879,1587.4412,1613.3363,space,25.8804,,1613.3368,11,71,1614.336,1614.3361,1614.3702,,,,0,18,18,18,1,150,90,,,,,,,,
,,60d3b726feef642a15b86870,65af572ea12c3b109d6ba408,2024-01-23_07h06.05.976,bars,2023.2.3,Win32,59.88023952,657b66ea316d21385b68909f,,,,,,,,,,,1614.3706,1615.3694,,,1615.8691,1616.119,,30,30,,,,,,,,,,,,,,,,bars/003.png,bars/mask004.png,,,,,,,,,,,,0,1,,,,,,,0,6,0,5,,,,,,,,,,,1615.3696,1615.869,1616.1191,1621.9522,space,5.8178,,1621.9526,5,70,1622.9519,1622.952,1622.9817,,,,0,19,19,19,1,25,140,,,,,,,,
,,60d3b726feef642a15b86870,65af572ea12c3b109d6ba408,2024-01-23_07h06.05.976,bars,2023.2.3,Win32,59.88023952,657b66ea316d21385b68909f,,,,,,,,,,,1622.9821,1623.9852,,,1624.4853,1624.7352,,163,163,,,,,,,,,,,,,,,,bars/016.png,bars/mask006.png,,,,,,,,,,,,7,2,,,,,,,2,8,2,8,,,,,,,,,,,1623.9853,1624.4852,1624.7353,1627.0853,space,2.3351,,1627.0857,57,2,1628.0849,1628.0851,1628.0913,,,,0,20,20,20,1,40,165,,,,,,,,
,,60d3b726feef642a15b86870,65af572ea12c3b109d6ba408,2024-01-23_07h06.05.976,bars,2023.2.3,Win32,59.88023952,657b66ea316d21385b68909f,,,,,,,,,,,1628.0919,1629.0849,,,1629.5849,1629.8349,,12,12,,,,,,,,,,,,,,,,bars/022.png,bars/mask001.png,,,,,,,,,,,,7,2,,,,,,,4,10,5,10,,,,,,,,,,,1629.085,1629.5847,1629.835,1632.3018,space,2.4514,,1632.3024,83,8,1633.3011,1633.3013,1633.3308,,,,0,21,21,21,1,95,20,,,,,,,,
,,60d3b726feef642a15b86870,65af572ea12c3b109d6ba408,2024-01-23_07h06.05.976,bars,2023.2.3,Win32,59.88023952,657b66ea316d21385b68909f,,,,,,,,,,,1633.3312,1634.3342,,,1634.8345,1635.0845,,45,45,,,,,,,,,,,,,,,,bars/044.png,bars/mask002.png,,,,,,,,,,,,0,1,,,,,,,6,8,6,8,,,,,,,,,,,1634.3343,1634.8343,1635.0846,1658.5833,space,23.4827,,1658.5837,30,70,1659.5826,1659.5828,1659.6175,,,,0,22,22,22,1,75,155,,,,,,,,
,,60d3b726feef642a15b86870,65af572ea12c3b109d6ba408,2024-01-23_07h06.05.976,bars,2023.2.3,Win32,59.88023952,657b66ea316d21385b68909f,,,,,,,,,,,1659.618,1660.616,,,1661.1161,1661.3657,,22,22,,,,,,,,,,,,,,,,bars/001.png,bars/mask002.png,,,,,,,,,,,,0,2,,,,,,,8,10,7,10,,,,,,,,,,,1660.6161,1661.116,1661.3659,1666.6159,space,5.2344,,1666.6166,72,63,1667.6153,1667.6156,1667.6488,,,,0,23,23,23,1,130,85,,,,,,,,
,,60d3b726feef642a15b86870,65af572ea12c3b109d6ba408,2024-01-23_07h06.05.976,bars,2023.2.3,Win32,59.88023952,657b66ea316d21385b68909f,,,,,,,,,,,1667.6494,1668.6485,,,1669.1485,1669.3986,,56,56,,,,,,,,,,,,,,,,bars/041.png,bars/mask004.png,,,,,,,,,,,,0,2,,,,,,,10,10,10,9,,,,,,,,,,,1668.6487,1669.1484,1669.3987,1674.9986,space,5.5835,,1674.999,36,29,1675.9983,1675.9983,1676.0355,,,,0,24,24,24,1,20,85,,,,,,,,
,,60d3b726feef642a15b86870,65af572ea12c3b109d6ba408,2024-01-23_07h06.05.976,bars,2023.2.3,Win32,59.88023952,657b66ea316d21385b68909f,,,,,,,,,,,1676.036,1677.0311,,,1677.5313,1677.7812,,38,38,,,,,,,,,,,,,,,,bars/048.png,bars/mask006.png,,,,,,,,,,,,5,1,,,,,,,10,10,9,9,,,,,,,,,,,1677.0313,1677.5313,1677.7812,1679.7648,space,1.9694,,1679.765,12,43,1680.7642,1680.7644,1680.796,,,,0,25,25,25,1,50,175,,,,,,,,
,,60d3b726feef642a15b86870,65af572ea12c3b109d6ba408,2024-01-23_07h06.05.976,bars,2023.2.3,Win32,59.88023952,657b66ea316d21385b68909f,,,,,,,,,,,1680.7965,1681.7974,,,1682.2981,1682.5474,,116,116,,,,,,,,,,,,,,,,bars/037.png,bars/mask004.png,,,,,,,,,,,,6,2,,,,,,,8,10,8,10,,,,,,,,,,,1681.7977,1682.2979,1682.5475,1684.7648,space,2.1989,,1684.7649,34,11,1685.764,1685.7642,1685.7972,,,,0,26,26,26,1,150,105,,,,,,,,
,,60d3b726feef642a15b86870,65af572ea12c3b109d6ba408,2024-01-23_07h06.05.976,bars,2023.2.3,Win32,59.88023952,657b66ea316d21385b68909f,,,,,,,,,,,1685.7977,1686.7972,,,1687.2975,1687.5473,,163,163,,,,,,,,,,,,,,,,bars/037.png,bars/mask002.png,,,,,,,,,,,,4,1,,,,,,,6,8,7,8,,,,,,,,,,,1686.7973,1687.2974,1687.5473,1690.1807,space,2.6194,,1690.1808,13,58,1691.1802,1691.1803,1691.2112,,,,0,27,27,27,1,150,105,,,,,,,,
,,60d3b726feef642a15b86870,65af572ea12c3b109d6ba408,2024-01-23_07h06.05.976,bars,2023.2.3,Win32,59.88023952,657b66ea316d21385b68909f,,,,,,,,,,,1691.2118,1692.2135,,,1692.7138,1692.9637,,21,21,,,,,,,,,,,,,,,,bars/025.png,bars/mask004.png,,,,,,,,,,,,2,2,,,,,,,4,6,4,6,,,,,,,,,,,1692.2136,1692.7137,1692.9638,1713.962,space,20.9867,,1713.9624,84,19,1714.9615,1714.9616,1714.9914,,,,0,28,28,28,1,105,40,,,,,,,,
,,60d3b726feef642a15b86870,65af572ea12c3b109d6ba408,2024-01-23_07h06.05.976,bars,2023.2.3,Win32,59.88023952,657b66ea316d21385b68909f,,,,,,,,,,,1714.9919,1715.9947,,,1716.4947,1716.7447,,126,126,,,,,,,,,,,,,,,,bars/039.png,bars/mask004.png,,,,,,,,,,,,1,2,,,,,,,6,4,6,4,,,,,,,,,,,1715.9947,1716.4947,1716.7448,1718.7114,space,1.9564,,1718.7118,49,21,1719.7112,1719.7112,1719.7354,,,,0,29,29,29,1,175,105,,,,,,,,
,,60d3b726feef642a15b86870,65af572ea12c3b109d6ba408,2024-01-23_07h06.05.976,bars,2023.2.3,Win32,59.88023952,657b66ea316d21385b68909f,,,,,,,,,,,1719.7357,1720.7275,,,1721.2277,1721.4777,,38,38,,,,,,,,,,,,,,,,bars/035.png,bars/mask004.png,,,,,,,,,,,,2,2,,,,,,,8,6,10,7,,,,,,,,,,,1720.7277,1721.2276,1721.4778,1724.7947,space,3.3031,,1724.7951,43,22,1725.7942,1725.7943,1725.825,,,,0,30,30,30,1,175,60,,,,,,,,
,,60d3b726feef642a15b86870,65af572ea12c3b109d6ba408,2024-01-23_07h06.05.976,bars,2023.2.3,Win32,59.88023952,657b66ea316d21385b68909f,,,,,,,,,,,1725.8254,1726.8275,,,1727.3275,1727.5774,,168,168,,,,,,,,,,,,,,,,bars/016.png,bars/mask006.png,,,,,,,,,,,,4,2,,,,,,,6,4,6,4,,,,,,,,,,,1726.8276,1727.3274,1727.5775,1731.5944,space,4.0074,,1731.5949,52,3,1732.594,1732.5941,1732.6241,,,,0,31,31,31,1,40,165,,,,,,,,
,,60d3b726feef642a15b86870,65af572ea12c3b109d6ba408,2024-01-23_07h06.05.976,bars,2023.2.3,Win32,59.88023952,657b66ea316d21385b68909f,,,,,,,,,,,1732.6245,1733.6269,,,1734.1271,1734.3772,,166,166,,,,,,,,,,,,,,,,bars/037.png,bars/mask008.png,,,,,,,,,,,,3,1,,,,,,,8,2,7,3,,,,,,,,,,,1733.6271,1734.1269,1734.3773,1742.3435,space,7.9554,,1742.3436,16,61,1743.343,1743.3431,1743.3777,,,,0,32,32,32,1,150,105,,,,,,,,
,,60d3b726feef642a15b86870,65af572ea12c3b109d6ba408,2024-01-23_07h06.05.976,bars,2023.2.3,Win32,59.88023952,657b66ea316d21385b68909f,,,,,,,,,,,1743.3783,1744.3762,,,1744.8765,1745.1264,,157,157,,,,,,,,,,,,,,,,bars/023.png,bars/mask003.png,,,,,,,,,,,,0,2,,,,,,,10,4,9,5,,,,,,,,,,,1744.3763,1744.8764,1745.1265,1748.7765,space,3.6346,,1748.7767,43,42,1749.7757,1749.7757,1749.8182,,,,0,33,33,33,1,20,115,,,,,,,,
,,60d3b726feef642a15b86870,65af572ea12c3b109d6ba408,2024-01-23_07h06.05.976,bars,2023.2.3,Win32,59.88023952,657b66ea316d21385b68909f,,,,,,,,,,,1749.8189,1750.8095,,,1751.3093,1751.5591,,160,160,,,,,,,,,,,,,,,,bars/009.png,bars/mask002.png,,,,,,,,,,,,0,1,,,,,,,10,6,10,7,,,,,,,,,,,1750.8096,1751.3092,1751.5592,1757.4449,space,5.8765,,1757.445,35,55,1758.4419,1758.442,1758.4755,,,,0,34,34,34,1,15,105,,,,,,,,
,,60d3b726feef642a15b86870,65af572ea12c3b109d6ba408,2024-01-23_07h06.05.976,bars,2023.2.3,Win32,59.88023952,657b66ea316d21385b68909f,,,,,,,,,,,1758.4761,1759.475,,,1759.9751,1760.2254,,135,135,,,,,,,,,,,,,,,,bars/003.png,bars/mask008.png,,,,,,,,,,,,8,2,,,,,,,8,8,9,9,,,,,,,,,,,1759.4751,1759.975,1760.2255,1764.5751,space,4.3354,,1764.5755,70,5,1765.5747,1765.5749,1765.6175,,,,0,35,35,35,1,25,140,,,,,,,,
,,60d3b726feef642a15b86870,65af572ea12c3b109d6ba408,2024-01-23_07h06.05.976,bars,2023.2.3,Win32,59.88023952,657b66ea316d21385b68909f,,,,,,,,,,,1765.6183,1766.6087,,,1767.1106,1767.3586,,92,92,,,,,,,,,,,,,,,,bars/006.png,bars/mask006.png,,,,,,,,,,,,4,2,,,,,,,10,6,10,6,,,,,,,,,,,1766.6088,1767.1106,1767.3587,1768.5417,space,1.17,,1768.542,57,8,1769.5414,1769.5415,1769.5729,,,,0,36,36,36,1,35,100,,,,,,,,
,,60d3b726feef642a15b86870,65af572ea12c3b109d6ba408,2024-01-23_07h06.05.976,bars,2023.2.3,Win32,59.88023952,657b66ea316d21385b68909f,,,,,,,,,,,1769.574,1770.5741,,,1771.0743,1771.324,,32,32,,,,,,,,,,,,,,,,bars/039.png,bars/mask003.png,,,,,,,,,,,,0,1,,,,,,,10,8,10,8,,,,,,,,,,,1770.5742,1771.0741,1771.3242,1772.4078,space,1.0675,,1772.4082,37,73,1773.4072,1773.4075,1773.4499,,,,0,37,37,37,1,175,105,,,,,,,,
,,60d3b726feef642a15b86870,65af572ea12c3b109d6ba408,2024-01-23_07h06.05.976,bars,2023.2.3,Win32,59.88023952,657b66ea316d21385b68909f,,,,,,,,,,,1773.4508,1774.4405,,,1774.9408,1775.1908,,107,107,,,,,,,,,,,,,,,,bars/003.png,bars/mask006.png,,,,,,,,,,,,0,2,,,,,,,8,10,8,10,,,,,,,,,,,1774.4408,1774.9408,1775.1908,1798.9897,space,23.7828,,1798.9902,82,33,1799.9888,1799.9889,1800.0239,,,,0,38,38,38,1,25,140,,,,,,,,
,,60d3b726feef642a15b86870,65af572ea12c3b109d6ba408,2024-01-23_07h06.05.976,bars,2023.2.3,Win32,59.88023952,657b66ea316d21385b68909f,,,,,,,,,,,1800.0245,1801.0223,,,1801.5222,1801.7722,,145,145,,,,,,,,,,,,,,,,bars/021.png,bars/mask000.png,,,,,,,,,,,,7,1,,,,,,,10,8,10,9,,,,,,,,,,,1801.0224,1801.5222,1801.7723,1807.322,space,5.5353,,1807.3221,10,75,1808.3217,1808.3219,1808.356,,,,0,39,39,39,1,155,70,,,,,,,,
,,60d3b726feef642a15b86870,65af572ea12c3b109d6ba408,2024-01-23_07h06.05.976,bars,2023.2.3,Win32,59.88023952,657b66ea316d21385b68909f,,,,,,,,,,,1808.3565,1809.355,,,1809.8558,1810.105,,148,148,,,,,,,,,,,,,,,,bars/011.png,bars/mask003.png,,,,,,,,,,,,5,1,,,,,,,10,6,9,6,,,,,,,,,,,1809.3551,1809.8555,1810.1051,1812.2384,space,2.1242,,1812.2387,12,63,1813.238,1813.2381,1813.2685,,,,0,40,40,40,1,160,85,,,,,,,,
,,60d3b726feef642a15b86870,65af572ea12c3b109d6ba408,2024-01-23_07h06.05.976,bars,2023.2.3,Win32,59.88023952,657b66ea316d21385b68909f,,,,,,,,,,,1813.2689,1814.2712,,,1814.7712,1815.0212,,148,148,,,,,,,,,,,,,,,,bars/049.png,bars/mask009.png,,,,,,,,,,,,6,1,,,,,,,10,8,10,7,,,,,,,,,,,1814.2714,1814.771,1815.0212,1817.5549,space,2.5177,,1817.5553,12,33,1818.5542,1818.5544,1818.5947,,,,0,41,41,41,1,160,115,,,,,,,,
,,60d3b726feef642a15b86870,65af572ea12c3b109d6ba408,2024-01-23_07h06.05.976,bars,2023.2.3,Win32,59.88023952,657b66ea316d21385b68909f,,,,,,,,,,,1818.5955,1819.5875,,,1820.0876,1820.3376,,162,162,,,,,,,,,,,,,,,,bars/037.png,bars/mask009.png,,,,,,,,,,,,5,1,,,,,,,8,10,8,10,,,,,,,,,,,1819.5877,1820.0875,1820.3377,1822.3883,space,2.0358,,1822.3885,12,57,1823.3874,1823.3874,1823.3909,,,,0,42,42,42,1,150,105,,,,,,,,
,,60d3b726feef642a15b86870,65af572ea12c3b109d6ba408,2024-01-23_07h06.05.976,bars,2023.2.3,Win32,59.88023952,657b66ea316d21385b68909f,,,,,,,,,,,1823.3918,1824.387,,,1824.8873,1825.1372,,158,158,,,,,,,,,,,,,,,,bars/013.png,bars/mask002.png,,,,,,,,,,,,0,2,,,,,,,6,8,5,8,,,,,,,,,,,1824.3871,1824.8872,1825.1374,1827.4043,space,2.2509,,1827.4046,83,32,1828.4037,1828.4039,1828.4358,,,,0,43,43,43,1,75,10,,,,,,,,
,,60d3b726feef642a15b86870,65af572ea12c3b109d6ba408,2024-01-23_07h06.05.976,bars,2023.2.3,Win32,59.88023952,657b66ea316d21385b68909f,,,,,,,,,,,1828.4368,1829.4366,,,1829.9369,1830.1871,,143,143,,,,,,,,,,,,,,,,bars/032.png,bars/mask003.png,,,,,,,,,,,,1,1,,,,,,,4,10,3,10,,,,,,,,,,,1829.4368,1829.9368,1830.1873,1832.3872,space,2.1914,,1832.3874,18,57,1833.3867,1833.3868,1833.4192,,,,0,44,44,44,1,125,20,,,,,,,,
,,60d3b726feef642a15b86870,65af572ea12c3b109d6ba408,2024-01-23_07h06.05.976,bars,2023.2.3,Win32,59.88023952,657b66ea316d21385b68909f,,,,,,,,,,,1833.4198,1834.4197,,,1834.9202,1835.1698,,37,37,,,,,,,,,,,,,,,,bars/043.png,bars/mask001.png,,,,,,,,,,,,5,1,,,,,,,6,8,7,8,,,,,,,,,,,1834.4198,1834.9201,1835.1699,1841.036,space,5.8542,,1841.036,7,87,1842.0357,1842.0358,1842.067,,,,0,45,45,45,1,30,130,,,,,,,,
,,60d3b726feef642a15b86870,65af572ea12c3b109d6ba408,2024-01-23_07h06.05.976,bars,2023.2.3,Win32,59.88023952,657b66ea316d21385b68909f,,,,,,,,,,,1842.0675,1843.0693,,,1843.5694,1843.8193,,40,40,,,,,,,,,,,,,,,,bars/008.png,bars/mask002.png,,,,,,,,,,,,0,2,,,,,,,4,6,4,5,,,,,,,,,,,1843.0694,1843.5693,1843.8194,1852.4687,space,8.6344,,1852.469,70,40,1853.4681,1853.4682,1853.5028,,,,0,46,46,46,1,110,0,,,,,,,,
,,60d3b726feef642a15b86870,65af572ea12c3b109d6ba408,2024-01-23_07h06.05.976,bars,2023.2.3,Win32,59.88023952,657b66ea316d21385b68909f,,,,,,,,,,,1853.5033,1854.5013,,,1855.0018,1855.2518,,99,99,,,,,,,,,,,,,,,,bars/036.png,bars/mask008.png,,,,,,,,,,,,0,1,,,,,,,2,4,3,4,,,,,,,,,,,1854.5015,1855.0017,1855.252,1859.0196,space,3.758,,1859.0198,46,79,1860.0176,1860.0178,1860.051,,,,0,47,47,47,1,145,20,,,,,,,,
,,60d3b726feef642a15b86870,65af572ea12c3b109d6ba408,2024-01-23_07h06.05.976,bars,2023.2.3,Win32,59.88023952,657b66ea316d21385b68909f,,,,,,,,,,,1860.0516,1861.051,,,1861.5511,1861.8012,,32,32,,,,,,,,,,,,,,,,bars/029.png,bars/mask003.png,,,,,,,,,,,,1,2,,,,,,,0,2,0,1,,,,,,,,,,,1861.0512,1861.551,1861.8013,1863.7016,space,1.8841,,1863.702,58,13,1864.7008,1864.701,1864.7065,,,,0,48,48,48,1,90,45,,,,,,,,
,,60d3b726feef642a15b86870,65af572ea12c3b109d6ba408,2024-01-23_07h06.05.976,bars,2023.2.3,Win32,59.88023952,657b66ea316d21385b68909f,,,,,,,,,,,1864.7069,1865.7006,,,1866.201,1866.4508,,133,133,,,,,,,,,,,,,,,,bars/016.png,bars/mask006.png,,,,,,,,,,,,0,2,,,,,,,0,4,0,5,,,,,,,,,,,1865.7008,1866.201,1866.451,1866.6182,space,0.1515,,1866.6186,87,32,1867.6171,1867.6172,1867.62,,,,0,49,49,49,1,40,165,,,,,,,,
,,60d3b726feef642a15b86870,65af572ea12c3b109d6ba408,2024-01-23_07h06.05.976,bars,2023.2.3,Win32,59.88023952,657b66ea316d21385b68909f,,,,,,,,,,,,,,,,,,,,,,,,,,,,,,,,,,,,,,,,,,,,,,,,,,,,,,,,,,,,,,,,,,,,,,,,,,,,,,,,,,,,,,,,,,,,,1867.621,1927.6133,0,3,3,1,1,sequence_tables/blk047.csv
,,60d3b726feef642a15b86870,65af572ea12c3b109d6ba408,2024-01-23_07h06.05.976,bars,2023.2.3,Win32,59.88023952,657b66ea316d21385b68909f,,,,,,,,,,,1948.2749,1949.2448,,,1949.7447,1949.9946,,95,95,,,,,,,,,,,,,,,,bars/002.png,bars/mask004.png,,,,,,,,,,,,3,2,,,,,,,3,2,6,4,,,,,,1927.6447,1948.2287,space,20.5666,,1949.2449,1949.7446,1949.9946,1970.5274,space,20.5201,,1970.5277,35,10,1971.5262,1971.5264,1971.5593,,,,0,0,0,0,1,130,85,,,,,,,,
,,60d3b726feef642a15b86870,65af572ea12c3b109d6ba408,2024-01-23_07h06.05.976,bars,2023.2.3,Win32,59.88023952,657b66ea316d21385b68909f,,,,,,,,,,,1971.5599,1972.5598,,,1973.0599,1973.3098,,136,136,,,,,,,,,,,,,,,,bars/042.png,bars/mask004.png,,,,,,,,,,,,1,1,,,,,,,1,4,1,4,,,,,,,,,,,1972.5599,1973.0596,1973.3099,1975.3941,space,2.0758,,1975.3944,9,61,1976.3924,1976.3925,1976.4323,,,,0,1,1,1,1,145,75,,,,,,,,
,,60d3b726feef642a15b86870,65af572ea12c3b109d6ba408,2024-01-23_07h06.05.976,bars,2023.2.3,Win32,59.88023952,657b66ea316d21385b68909f,,,,,,,,,,,1976.433,1977.4257,,,1977.926,1978.1758,,169,169,,,,,,,,,,,,,,,,bars/000.png,bars/mask005.png,,,,,,,,,,,,1,2,,,,,,,3,6,4,5,,,,,,,,,,,1977.4257,1977.9259,1978.1759,1984.3596,space,6.1728,,1984.3598,51,24,1985.3587,1985.3588,1985.393,,,,0,2,2,2,1,40,145,,,,,,,,
,,60d3b726feef642a15b86870,65af572ea12c3b109d6ba408,2024-01-23_07h06.05.976,bars,2023.2.3,Win32,59.88023952,657b66ea316d21385b68909f,,,,,,,,,,,1985.3935,1986.3918,,,1986.8921,1987.1421,,49,49,,,,,,,,,,,,,,,,bars/041.png,bars/mask004.png,,,,,,,,,,,,0,1,,,,,,,5,4,5,4,,,,,,,,,,,1986.3919,1986.892,1987.1421,1990.3779,space,3.227,,1990.378,29,36,1991.3748,1991.375,1991.4083,,,,0,3,3,3,1,20,85,,,,,,,,
,,60d3b726feef642a15b86870,65af572ea12c3b109d6ba408,2024-01-23_07h06.05.976,bars,2023.2.3,Win32,59.88023952,657b66ea316d21385b68909f,,,,,,,,,,,1991.4089,1992.4083,,,1992.9081,1993.1581,,130,130,,,,,,,,,,,,,,,,bars/017.png,bars/mask000.png,,,,,,,,,,,,2,1,,,,,,,3,6,3,6,,,,,,,,,,,1992.4085,1992.9081,1993.1582,1995.7414,space,2.5686,,1995.7415,15,85,1996.7417,1996.7419,1996.7723,,,,0,4,4,4,1,145,45,,,,,,,,
,,60d3b726feef642a15b86870,65af572ea12c3b109d6ba408,2024-01-23_07h06.05.976,bars,2023.2.3,Win32,59.88023952,657b66ea316d21385b68909f,,,,,,,,,,,1996.7726,1997.7744,,,1998.2745,1998.5243,,19,19,,,,,,,,,,,,,,,,bars/033.png,bars/mask009.png,,,,,,,,,,,,3,1,,,,,,,5,8,4,8,,,,,,,,,,,1997.7745,1998.2745,1998.5245,2002.4914,space,3.9559,,2002.492,6,44,2003.4907,2003.4909,2003.5211,,,,0,5,5,5,1,25,155,,,,,,,,
,,60d3b726feef642a15b86870,65af572ea12c3b109d6ba408,2024-01-23_07h06.05.976,bars,2023.2.3,Win32,59.88023952,657b66ea316d21385b68909f,,,,,,,,,,,2003.5215,2004.5239,,,2005.0239,2005.2737,,68,68,,,,,,,,,,,,,,,,bars/031.png,bars/mask004.png,,,,,,,,,,,,0,2,,,,,,,3,6,2,6,,,,,,,,,,,2004.5241,2005.0238,2005.2738,2010.0241,space,4.7339,,2010.0242,52,33,2011.0236,2011.0237,2011.0554,,,,0,6,6,6,1,120,35,,,,,,,,
,,60d3b726feef642a15b86870,65af572ea12c3b109d6ba408,2024-01-23_07h06.05.976,bars,2023.2.3,Win32,59.88023952,657b66ea316d21385b68909f,,,,,,,,,,,2011.0564,2012.0565,,,2012.559,2012.8067,,162,162,,,,,,,,,,,,,,,,bars/026.png,bars/mask000.png,,,,,,,,,,,,0,1,,,,,,,1,4,2,4,,,,,,,,,,,2012.0566,2012.5567,2012.8068,2017.8405,space,5.0178,,2017.8408,53,77,2018.8396,2018.8398,2018.8725,,,,0,7,7,7,1,35,85,,,,,,,,
,,60d3b726feef642a15b86870,65af572ea12c3b109d6ba408,2024-01-23_07h06.05.976,bars,2023.2.3,Win32,59.88023952,657b66ea316d21385b68909f,,,,,,,,,,,2018.8731,2019.8726,,,2020.373,2020.6225,,32,32,,,,,,,,,,,,,,,,bars/027.png,bars/mask005.png,,,,,,,,,,,,1,2,,,,,,,0,2,0,2,,,,,,,,,,,2019.8727,2020.3729,2020.6227,2021.3902,space,0.7515,,2021.3903,78,18,2022.3893,2022.3893,2022.3949,,,,0,8,8,8,1,110,50,,,,,,,,
,,60d3b726feef642a15b86870,65af572ea12c3b109d6ba408,2024-01-23_07h06.05.976,bars,2023.2.3,Win32,59.88023952,657b66ea316d21385b68909f,,,,,,,,,,,2022.3956,2023.3892,,,2023.8895,2024.1393,,172,172,,,,,,,,,,,,,,,,bars/013.png,bars/mask003.png,,,,,,,,,,,,1,2,,,,,,,0,4,0,3,,,,,,,,,,,2023.3894,2023.8893,2024.1394,2027.2235,space,3.068,,2027.2236,83,18,2028.2222,2028.2224,2028.2529,,,,0,9,9,9,1,75,10,,,,,,,,
,,60d3b726feef642a15b86870,65af572ea12c3b109d6ba408,2024-01-23_07h06.05.976,bars,2023.2.3,Win32,59.88023952,657b66ea316d21385b68909f,,,,,,,,,,,2028.2534,2029.2556,,,2029.7557,2030.0053,,134,134,,,,,,,,,,,,,,,,bars/039.png,bars/mask007.png,,,,,,,,,,,,0,2,,,,,,,0,6,0,5,,,,,,,,,,,2029.2557,2029.7556,2030.0055,2041.372,space,11.3487,,2041.3723,41,29,2042.3711,2042.3713,2042.4047,,,,0,10,10,10,1,175,105,,,,,,,,
,,60d3b726feef642a15b86870,65af572ea12c3b109d6ba408,2024-01-23_07h06.05.976,bars,2023.2.3,Win32,59.88023952,657b66ea316d21385b68909f,,,,,,,,,,,2042.4052,2043.4042,,,2043.9048,2044.1544,,166,166,,,,,,,,,,,,,,,,bars/035.png,bars/mask005.png,,,,,,,,,,,,0,1,,,,,,,0,8,0,9,,,,,,,,,,,2043.4043,2043.9047,2044.1546,2047.9385,space,3.7724,,2047.9387,9,74,2048.9373,2048.9373,2048.9713,,,,0,11,11,11,1,175,60,,,,,,,,
,,60d3b726feef642a15b86870,65af572ea12c3b109d6ba408,2024-01-23_07h06.05.976,bars,2023.2.3,Win32,59.88023952,657b66ea316d21385b68909f,,,,,,,,,,,2048.9718,2049.9706,,,2050.4708,2050.7206,,128,128,,,,,,,,,,,,,,,,bars/010.png,bars/mask005.png,,,,,,,,,,,,0,1,,,,,,,2,10,2,9,,,,,,,,,,,2049.9708,2050.4707,2050.7207,2051.5873,space,0.8519,,2051.5874,37,73,2052.5872,2052.5873,2052.5901,,,,0,12,12,12,1,165,55,,,,,,,,
