init_variables.started,init_variables.stopped,participant,session,date,expName,psychopyVersion,OS,frameRate,study_id,instruction_exp.started,instruction_exp.stopped,key_resp_8.keys,key_resp_8.rt,key_resp_8.duration,instruction_single.started,instruction_single.stopped,key_resp_2.keys,key_resp_2.rt,key_resp_2.duration,interval.started,interval.stopped,cue_single.started,cue_single.stopped,mask.started,mask.stopped,ori_response_single.started,res_ori,res,ori_response_single.stopped,key_resp_single.keys,key_resp_single.rt,key_resp_single.duration,disp_single.started,disp_single.stopped,key_resp.keys,key_resp.rt,key_resp.duration,single.thisRepN,single.thisTrialN,single.thisN,single.thisIndex,single.ran,ori,path,mask_path,instruction_bandit.started,instruction_bandit.stopped,key_resp_6.keys,key_resp_6.rt,key_resp_6.duration,cue_bandit.started,cue_bandit.stopped,bandit_res.keys,bandit_res.rt,bandit_res.duration,outcome_bandit.started,rew,action,outcome_bandit.stopped,bandit.thisRepN,bandit.thisTrialN,bandit.thisN,bandit.thisIndex,bandit.ran,actual_rew1,actual_rew2,rew1,rew2,instruction_task.started,instruction_task.stopped,key_resp_7.keys,key_resp_7.rt,key_resp_7.duration,wait_ready.started,wait_ready.stopped,key_resp_3.keys,key_resp_3.rt,key_resp_3.duration,cue.started,cue.stopped,ori_response.started,ori_response.stopped,key_resp_5.keys,key_resp_5.rt,key_resp_5.duration,outcome.started,diff1,diff2,outcome.stopped,disp_outcome_practice.started,disp_outcome_practice.stopped,key_resp_4.keys,key_resp_4.rt,key_resp_4.duration,trials.thisRepN,trials.thisTrialN,trials.thisN,trials.thisIndex,trials.ran,ori1,ori2,break_blk.started,break_blk.stopped,block.thisRepN,block.thisTrialN,block.thisN,block.thisIndex,block.ran,condition_file
0.001,0.0014,615a10906193d263fd02c670,65af560bac39215515c2535c,2024-01-23_08h58.02.093,bars,2023.2.3,Linux armv81,15.03759398,657b66ea316d21385b68909f,,,,,,,,,,,,,,,,,,,,,,,,,,,,,,,,,,,,,,,,,,,,,,,,,,,,,,,,,,,,,,,,,,,,,,,,,,,,,,,,,,,,,,,,,,,,,,,,,,,,
,,615a10906193d263fd02c670,65af560bac39215515c2535c,2024-01-23_08h58.02.093,bars,2023.2.3,Linux armv81,15.03759398,657b66ea316d21385b68909f,0.0019,7.1095,y,7.0292,0.0039,,,,,,,,,,,,,,,,,,,,,,,,,,,,,,,,,,,,,,,,,,,,,,,,,,,,,,,,,,,,,,,,,,,,,,,,,,,,,,,,,,,,,,,,,,,,,,,
,,615a10906193d263fd02c670,65af560bac39215515c2535c,2024-01-23_08h58.02.093,bars,2023.2.3,Linux armv81,15.03759398,657b66ea316d21385b68909f,,,,,,7.11,8.8359,space,1.689,0.0027,,,,,,,,,,,,,,,,,,,,,,,,,,,,,,,,,,,,,,,,,,,,,,,,,,,,,,,,,,,,,,,,,,,,,,,,,,,,,,,,,,,,,,,,,,
,,615a10906193d263fd02c670,65af560bac39215515c2535c,2024-01-23_08h58.02.093,bars,2023.2.3,Linux armv81,15.03759398,657b66ea316d21385b68909f,,,,,,,,,,,8.8668,9.8476,9.848,10.3469,10.3473,10.5977,10.5987,39,39,12.3626,space,1.6862,0.0019,12.3633,13.2635,space,0.8376,0.0012,0,0,0,4,1,95,bars/single004.png,bars/mask004.png,,,,,,,,,,,,,,,,,,,,,,,,,,,,,,,,,,,,,,,,,,,,,,,,,,,,,,,,,,,,,,,,
,,615a10906193d263fd02c670,65af560bac39215515c2535c,2024-01-23_08h58.02.093,bars,2023.2.3,Linux armv81,15.03759398,657b66ea316d21385b68909f,,,,,,,,,,,13.2656,14.2665,14.2676,14.7695,14.7697,15.0185,15.0185,118,118,15.3672,space,0.3298,0.0008,15.3673,15.7331,space,0.3466,0.0011,0,1,1,3,1,20,bars/single003.png,bars/mask005.png,,,,,,,,,,,,,,,,,,,,,,,,,,,,,,,,,,,,,,,,,,,,,,,,,,,,,,,,,,,,,,,,
,,615a10906193d263fd02c670,65af560bac39215515c2535c,2024-01-23_08h58.02.093,bars,2023.2.3,Linux armv81,15.03759398,657b66ea316d21385b68909f,,,,,,,,,,,15.7345,16.7307,16.7308,17.2298,17.2299,17.4812,17.4814,52,52,17.7966,space,0.3018,0.0013,17.7967,18.1439,space,0.3281,0.0009,0,2,2,1,1,20,bars/single001.png,bars/mask006.png,,,,,,,,,,,,,,,,,,,,,,,,,,,,,,,,,,,,,,,,,,,,,,,,,,,,,,,,,,,,,,,,
,,615a10906193d263fd02c670,65af560bac39215515c2535c,2024-01-23_08h58.02.093,bars,2023.2.3,Linux armv81,15.03759398,657b66ea316d21385b68909f,,,,,,,,,,,18.1448,19.1416,19.1417,19.6416,19.6417,19.8903,19.8905,40,40,20.0233,space,0.1151,0.0006,20.0234,20.3229,space,0.282,0.0009,0,3,3,2,1,145,bars/single002.png,bars/mask003.png,,,,,,,,,,,,,,,,,,,,,,,,,,,,,,,,,,,,,,,,,,,,,,,,,,,,,,,,,,,,,,,,
,,615a10906193d263fd02c670,65af560bac39215515c2535c,2024-01-23_08h58.02.093,bars,2023.2.3,Linux armv81,15.03759398,657b66ea316d21385b68909f,,,,,,,,,,,20.3244,21.3203,21.3203,21.8191,21.8192,22.0693,22.0693,19,19,22.0855,space,0.0027,0.0015,22.0857,22.3346,space,0.2295,0.0011,0,4,4,5,1,55,bars/single005.png,bars/mask008.png,,,,,,,,,,,,,,,,,,,,,,,,,,,,,,,,,,,,,,,,,,,,,,,,,,,,,,,,,,,,,,,,
,,615a10906193d263fd02c670,65af560bac39215515c2535c,2024-01-23_08h58.02.093,bars,2023.2.3,Linux armv81,15.03759398,657b66ea316d21385b68909f,,,,,,,,,,,22.3361,23.3325,23.3327,23.8316,23.8317,24.0809,24.081,94,94,24.3305,space,0.2326,0.0014,24.3312,24.6151,space,0.2648,0.0022,0,5,5,6,1,175,bars/single006.png,bars/mask005.png,,,,,,,,,,,,,,,,,,,,,,,,,,,,,,,,,,,,,,,,,,,,,,,,,,,,,,,,,,,,,,,,
,,615a10906193d263fd02c670,65af560bac39215515c2535c,2024-01-23_08h58.02.093,bars,2023.2.3,Linux armv81,15.03759398,657b66ea316d21385b68909f,,,,,,,,,,,24.6164,25.6098,25.6099,26.1096,26.1097,26.3585,26.3586,154,154,26.4424,space,0.0713,0.001,26.4425,26.6755,space,0.2163,0.0014,0,6,6,0,1,150,bars/single000.png,bars/mask006.png,,,,,,,,,,,,,,,,,,,,,,,,,,,,,,,,,,,,,,,,,,,,,,,,,,,,,,,,,,,,,,,,
,,615a10906193d263fd02c670,65af560bac39215515c2535c,2024-01-23_08h58.02.093,bars,2023.2.3,Linux armv81,15.03759398,657b66ea316d21385b68909f,,,,,,,,,,,26.6773,27.672,27.6722,28.1717,28.1719,28.4202,28.4204,59,59,28.5872,space,0.1467,0.001,28.5873,28.8216,space,0.2152,0.0012,0,7,7,8,1,160,bars/single008.png,bars/mask004.png,,,,,,,,,,,,,,,,,,,,,,,,,,,,,,,,,,,,,,,,,,,,,,,,,,,,,,,,,,,,,,,,
,,615a10906193d263fd02c670,65af560bac39215515c2535c,2024-01-23_08h58.02.093,bars,2023.2.3,Linux armv81,15.03759398,657b66ea316d21385b68909f,,,,,,,,,,,28.8231,29.8176,29.8178,30.3159,30.3161,30.5595,30.5596,118,118,30.6821,space,0.109,0.0005,30.6823,30.9278,space,0.2325,0.001,0,8,8,7,1,45,bars/single007.png,bars/mask009.png,,,,,,,,,,,,,,,,,,,,,,,,,,,,,,,,,,,,,,,,,,,,,,,,,,,,,,,,,,,,,,,,
,,615a10906193d263fd02c670,65af560bac39215515c2535c,2024-01-23_08h58.02.093,bars,2023.2.3,Linux armv81,15.03759398,657b66ea316d21385b68909f,,,,,,,,,,,30.9292,31.9399,31.9399,32.4327,32.4329,32.6777,32.6779,104,104,32.8609,space,0.155,0.0009,32.861,33.0932,space,0.2023,0.0011,0,9,9,9,1,20,bars/single009.png,bars/mask006.png,,,,,,,,,,,,,,,,,,,,,,,,,,,,,,,,,,,,,,,,,,,,,,,,,,,,,,,,,,,,,,,,
,,615a10906193d263fd02c670,65af560bac39215515c2535c,2024-01-23_08h58.02.093,bars,2023.2.3,Linux armv81,15.03759398,657b66ea316d21385b68909f,,,,,,,,,,,,,,,,,,,,,,,,,,,,,,,,,,,,,33.096,33.3612,space,0.2281,0.0009,,,,,,,,,,,,,,,,,,,,,,,,,,,,,,,,,,,,,,,,,,,,,,,,,,,,,,,,,,,
,,615a10906193d263fd02c670,65af560bac39215515c2535c,2024-01-23_08h58.02.093,bars,2023.2.3,Linux armv81,15.03759398,657b66ea316d21385b68909f,,,,,,,,,,,,,,,,,,,,,,,,,,,,,,,,,,,,,,,,,,33.3725,40.3235,right,6.9053,0.0015,40.3241,2,2,41.3352,0,0,0,0,1,9,1,9,2,,,,,,,,,,,,,,,,,,,,,,,,,,,,,,,,,,,,,,,,,
,,615a10906193d263fd02c670,65af560bac39215515c2535c,2024-01-23_08h58.02.093,bars,2023.2.3,Linux armv81,15.03759398,657b66ea316d21385b68909f,,,,,,,,,,,,,,,,,,,,,,,,,,,,,,,,,,,,,,,,,,41.338,41.4788,right,0.1297,0.0008,41.4789,1,2,42.4812,0,1,1,1,1,10,0,10,1,,,,,,,,,,,,,,,,,,,,,,,,,,,,,,,,,,,,,,,,,
,,615a10906193d263fd02c670,65af560bac39215515c2535c,2024-01-23_08h58.02.093,bars,2023.2.3,Linux armv81,15.03759398,657b66ea316d21385b68909f,,,,,,,,,,,,,,,,,,,,,,,,,,,,,,,,,,,,,,,,,,42.4825,42.5709,right,0.0783,0.0005,42.571,2,2,43.5644,0,2,2,2,1,10,2,10,2,,,,,,,,,,,,,,,,,,,,,,,,,,,,,,,,,,,,,,,,,
,,615a10906193d263fd02c670,65af560bac39215515c2535c,2024-01-23_08h58.02.093,bars,2023.2.3,Linux armv81,15.03759398,657b66ea316d21385b68909f,,,,,,,,,,,,,,,,,,,,,,,,,,,,,,,,,,,,,,,,,,43.5664,43.7824,right,0.2034,0.0007,43.7825,3,2,44.7824,0,3,3,3,1,8,4,7,3,,,,,,,,,,,,,,,,,,,,,,,,,,,,,,,,,,,,,,,,,
,,615a10906193d263fd02c670,65af560bac39215515c2535c,2024-01-23_08h58.02.093,bars,2023.2.3,Linux armv81,15.03759398,657b66ea316d21385b68909f,,,,,,,,,,,,,,,,,,,,,,,,,,,,,,,,,,,,,,,,,,44.7837,45.0826,right,0.2845,0.0004,45.0831,1,2,46.0891,0,4,4,4,1,6,2,5,1,,,,,,,,,,,,,,,,,,,,,,,,,,,,,,,,,,,,,,,,,
,,615a10906193d263fd02c670,65af560bac39215515c2535c,2024-01-23_08h58.02.093,bars,2023.2.3,Linux armv81,15.03759398,657b66ea316d21385b68909f,,,,,,,,,,,,,,,,,,,,,,,,,,,,,,,,,,,,,,,,,,46.0908,46.1326,right,0.0269,0.0004,46.1328,4,2,47.1346,0,5,5,5,1,4,4,4,4,,,,,,,,,,,,,,,,,,,,,,,,,,,,,,,,,,,,,,,,,
,,615a10906193d263fd02c670,65af560bac39215515c2535c,2024-01-23_08h58.02.093,bars,2023.2.3,Linux armv81,15.03759398,657b66ea316d21385b68909f,,,,,,,,,,,,,,,,,,,,,,,,,,,,,,,,,,,,,,,,,,47.1361,47.1865,right,0.0377,0.0005,47.1866,2,2,48.1846,0,6,6,6,1,2,2,1,2,,,,,,,,,,,,,,,,,,,,,,,,,,,,,,,,,,,,,,,,,
,,615a10906193d263fd02c670,65af560bac39215515c2535c,2024-01-23_08h58.02.093,bars,2023.2.3,Linux armv81,15.03759398,657b66ea316d21385b68909f,,,,,,,,,,,,,,,,,,,,,,,,,,,,,,,,,,,,,,,,,,48.1861,48.3995,right,0.1993,0.0008,48.3997,1,2,49.388,0,7,7,7,1,0,0,0,1,,,,,,,,,,,,,,,,,,,,,,,,,,,,,,,,,,,,,,,,,
,,615a10906193d263fd02c670,65af560bac39215515c2535c,2024-01-23_08h58.02.093,bars,2023.2.3,Linux armv81,15.03759398,657b66ea316d21385b68909f,,,,,,,,,,,,,,,,,,,,,,,,,,,,,,,,,,,,,,,,,,49.3896,51.2005,right,1.7867,0.0006,51.2016,0,2,52.1982,0,8,8,8,1,0,2,1,0,,,,,,,,,,,,,,,,,,,,,,,,,,,,,,,,,,,,,,,,,
,,615a10906193d263fd02c670,65af560bac39215515c2535c,2024-01-23_08h58.02.093,bars,2023.2.3,Linux armv81,15.03759398,657b66ea316d21385b68909f,,,,,,,,,,,,,,,,,,,,,,,,,,,,,,,,,,,,,,,,,,52.1993,52.5635,left,0.341,0.0005,52.5637,2,1,53.5606,0,9,9,9,1,2,4,2,3,,,,,,,,,,,,,,,,,,,,,,,,,,,,,,,,,,,,,,,,,
,,615a10906193d263fd02c670,65af560bac39215515c2535c,2024-01-23_08h58.02.093,bars,2023.2.3,Linux armv81,15.03759398,657b66ea316d21385b68909f,,,,,,,,,,,,,,,,,,,,,,,,,,,,,,,,,,,,,,,,,,53.5616,53.7911,left,0.2059,0.0006,53.7913,0,1,54.8026,0,10,10,10,1,0,2,0,3,,,,,,,,,,,,,,,,,,,,,,,,,,,,,,,,,,,,,,,,,
,,615a10906193d263fd02c670,65af560bac39215515c2535c,2024-01-23_08h58.02.093,bars,2023.2.3,Linux armv81,15.03759398,657b66ea316d21385b68909f,,,,,,,,,,,,,,,,,,,,,,,,,,,,,,,,,,,,,,,,,,54.8037,54.9575,right,0.1447,0.0004,54.9576,3,2,55.9488,0,11,11,11,1,0,4,0,3,,,,,,,,,,,,,,,,,,,,,,,,,,,,,,,,,,,,,,,,,
,,615a10906193d263fd02c670,65af560bac39215515c2535c,2024-01-23_08h58.02.093,bars,2023.2.3,Linux armv81,15.03759398,657b66ea316d21385b68909f,,,,,,,,,,,,,,,,,,,,,,,,,,,,,,,,,,,,,,,,,,55.9501,56.2282,right,0.2682,0.0008,56.2283,6,2,57.2191,0,12,12,12,1,2,6,1,6,,,,,,,,,,,,,,,,,,,,,,,,,,,,,,,,,,,,,,,,,
,,615a10906193d263fd02c670,65af560bac39215515c2535c,2024-01-23_08h58.02.093,bars,2023.2.3,Linux armv81,15.03759398,657b66ea316d21385b68909f,,,,,,,,,,,,,,,,,,,,,,,,,,,,,,,,,,,,,,,,,,57.22,57.6018,right,0.3573,0.0004,57.6019,3,2,58.5934,0,13,13,13,1,0,4,1,3,,,,,,,,,,,,,,,,,,,,,,,,,,,,,,,,,,,,,,,,,
,,615a10906193d263fd02c670,65af560bac39215515c2535c,2024-01-23_08h58.02.093,bars,2023.2.3,Linux armv81,15.03759398,657b66ea316d21385b68909f,,,,,,,,,,,,,,,,,,,,,,,,,,,,,,,,,,,,,,,,,,58.5949,58.8653,right,0.2578,0.0005,58.8655,7,2,59.8719,0,14,14,14,1,2,6,2,7,,,,,,,,,,,,,,,,,,,,,,,,,,,,,,,,,,,,,,,,,
,,615a10906193d263fd02c670,65af560bac39215515c2535c,2024-01-23_08h58.02.093,bars,2023.2.3,Linux armv81,15.03759398,657b66ea316d21385b68909f,,,,,,,,,,,,,,,,,,,,,,,,,,,,,,,,,,,,,,,,,,59.8736,59.9418,right,0.06,0.0005,59.9419,9,2,60.944,0,15,15,15,1,4,8,3,9,,,,,,,,,,,,,,,,,,,,,,,,,,,,,,,,,,,,,,,,,
,,615a10906193d263fd02c670,65af560bac39215515c2535c,2024-01-23_08h58.02.093,bars,2023.2.3,Linux armv81,15.03759398,657b66ea316d21385b68909f,,,,,,,,,,,,,,,,,,,,,,,,,,,,,,,,,,,,,,,,,,60.9454,61.0703,right,0.1021,0.0005,61.0704,7,2,62.0634,0,16,16,16,1,6,6,7,7,,,,,,,,,,,,,,,,,,,,,,,,,,,,,,,,,,,,,,,,,
,,615a10906193d263fd02c670,65af560bac39215515c2535c,2024-01-23_08h58.02.093,bars,2023.2.3,Linux armv81,15.03759398,657b66ea316d21385b68909f,,,,,,,,,,,,,,,,,,,,,,,,,,,,,,,,,,,,,,,,,,62.0641,62.4311,right,0.3494,0.0007,62.4312,5,2,63.4319,0,17,17,17,1,8,4,9,5,,,,,,,,,,,,,,,,,,,,,,,,,,,,,,,,,,,,,,,,,
,,615a10906193d263fd02c670,65af560bac39215515c2535c,2024-01-23_08h58.02.093,bars,2023.2.3,Linux armv81,15.03759398,657b66ea316d21385b68909f,,,,,,,,,,,,,,,,,,,,,,,,,,,,,,,,,,,,,,,,,,63.4331,63.7889,right,0.3338,0.0009,63.7891,1,2,64.7784,0,18,18,18,1,6,2,5,1,,,,,,,,,,,,,,,,,,,,,,,,,,,,,,,,,,,,,,,,,
,,615a10906193d263fd02c670,65af560bac39215515c2535c,2024-01-23_08h58.02.093,bars,2023.2.3,Linux armv81,15.03759398,657b66ea316d21385b68909f,,,,,,,,,,,,,,,,,,,,,,,,,,,,,,,,,,,,,,,,,,64.7794,65.0777,right,0.2834,0.0005,65.0779,0,2,66.067,0,19,19,19,1,8,0,7,0,,,,,,,,,,,,,,,,,,,,,,,,,,,,,,,,,,,,,,,,,
,,615a10906193d263fd02c670,65af560bac39215515c2535c,2024-01-23_08h58.02.093,bars,2023.2.3,Linux armv81,15.03759398,657b66ea316d21385b68909f,,,,,,,,,,,,,,,,,,,,,,,,,,,,,,,,,,,,,,,,,,,,,,,,,,,,,,,,,,,,66.0695,67.9628,space,1.8599,0.0015,,,,,,,,,,,,,,,,,,,,,,,,,,,,,,,,,,,,
,,615a10906193d263fd02c670,65af560bac39215515c2535c,2024-01-23_08h58.02.093,bars,2023.2.3,Linux armv81,15.03759398,657b66ea316d21385b68909f,,,,,,,,,,,72.5071,73.4849,,,73.9809,74.2306,,143,143,,,,,,,,,,,,,,,,bars/021.png,bars/mask007.png,,,,,,,,,,,,1,1,,,,,,,2,4,2,5,,,,,,67.9995,72.4841,space,4.4635,0.001,73.4854,73.9806,74.2312,74.5069,space,0.256,0.0005,74.5076,12,73,75.5092,75.5096,75.6777,space,0.1327,0.0015,0,0,0,0,1,155,70,,,,,,,,
,,615a10906193d263fd02c670,65af560bac39215515c2535c,2024-01-23_08h58.02.093,bars,2023.2.3,Linux armv81,15.03759398,657b66ea316d21385b68909f,,,,,,,,,,,75.6803,76.6725,,,77.1735,77.4216,,55,55,,,,,,,,,,,,,,,,bars/024.png,bars/mask006.png,,,,,,,,,,,,0,2,,,,,,,4,6,4,7,,,,,,,,,,,76.6726,77.1733,77.4218,77.6897,space,0.2555,0.0017,77.69,65,65,78.6852,78.6854,78.7151,space,0.0023,0.0006,0,1,1,1,1,120,170,,,,,,,,
,,615a10906193d263fd02c670,65af560bac39215515c2535c,2024-01-23_08h58.02.093,bars,2023.2.3,Linux armv81,15.03759398,657b66ea316d21385b68909f,,,,,,,,,,,78.7159,79.7153,,,80.2153,80.4641,,40,40,,,,,,,,,,,,,,,,bars/003.png,bars/mask000.png,,,,,,,,,,,,3,1,,,,,,,6,8,5,8,,,,,,,,,,,79.7154,80.2151,80.4642,80.614,space,0.136,0.0009,80.6143,15,80,81.6117,81.6121,81.8285,space,0.1964,0.0011,0,2,2,2,1,25,140,,,,,,,,
,,615a10906193d263fd02c670,65af560bac39215515c2535c,2024-01-23_08h58.02.093,bars,2023.2.3,Linux armv81,15.03759398,657b66ea316d21385b68909f,,,,,,,,,,,81.8305,82.8246,,,83.3267,83.5755,,47,47,,,,,,,,,,,,,,,,bars/032.png,bars/mask003.png,,,,,,,,,,,,1,2,,,,,,,4,6,2,7,,,,,,,,,,,82.8247,83.3266,83.5757,83.7729,space,0.1826,0.001,83.7731,78,27,84.7705,84.7706,84.8202,space,0.0281,0.0006,0,3,3,3,1,125,20,,,,,,,,
,,615a10906193d263fd02c670,65af560bac39215515c2535c,2024-01-23_08h58.02.093,bars,2023.2.3,Linux armv81,15.03759398,657b66ea316d21385b68909f,,,,,,,,,,,84.8213,85.8183,,,86.3071,86.5495,,128,128,,,,,,,,,,,,,,,,bars/031.png,bars/mask008.png,,,,,,,,,,,,4,1,,,,,,,6,4,6,4,,,,,,,,,,,85.8183,86.3069,86.5497,86.601,space,0.025,0.0007,86.6012,8,87,87.5977,87.5978,87.6555,space,0.0222,0.0012,0,4,4,4,1,120,35,,,,,,,,
,,615a10906193d263fd02c670,65af560bac39215515c2535c,2024-01-23_08h58.02.093,bars,2023.2.3,Linux armv81,15.03759398,657b66ea316d21385b68909f,,,,,,,,,,,87.6576,88.6611,,,89.1608,89.4101,,117,117,,,,,,,,,,,,,,,,bars/009.png,bars/mask003.png,,,,,,,,,,,,2,2,,,,,,,8,2,9,3,,,,,,,,,,,88.6612,89.1607,89.4102,89.6261,space,0.2025,0.0006,89.6265,78,12,90.6231,90.6232,90.7239,space,0.0747,0.0011,0,5,5,5,1,15,105,,,,,,,,
,,615a10906193d263fd02c670,65af560bac39215515c2535c,2024-01-23_08h58.02.093,bars,2023.2.3,Linux armv81,15.03759398,657b66ea316d21385b68909f,,,,,,,,,,,90.7255,91.7205,,,92.2196,92.4591,,126,126,,,,,,,,,,,,,,,,bars/049.png,bars/mask006.png,,,,,,,,,,,,0,2,,,,,,,6,0,7,0,,,,,,,,,,,91.7205,92.2195,92.4593,92.5862,space,0.1019,0.0013,92.5865,34,11,93.5826,93.5828,93.6998,space,0.0973,0.0011,0,6,6,6,1,160,115,,,,,,,,
,,615a10906193d263fd02c670,65af560bac39215515c2535c,2024-01-23_08h58.02.093,bars,2023.2.3,Linux armv81,15.03759398,657b66ea316d21385b68909f,,,,,,,,,,,93.7015,94.6972,,,95.1963,95.4448,,36,36,,,,,,,,,,,,,,,,bars/047.png,bars/mask005.png,,,,,,,,,,,,1,1,,,,,,,4,2,4,2,,,,,,,,,,,94.6975,95.1962,95.4449,95.4953,space,0.0334,0.0005,95.4956,21,34,96.4974,96.4976,96.5624,space,0.0434,0.0005,0,7,7,7,1,15,70,,,,,,,,
,,615a10906193d263fd02c670,65af560bac39215515c2535c,2024-01-23_08h58.02.093,bars,2023.2.3,Linux armv81,15.03759398,657b66ea316d21385b68909f,,,,,,,,,,,96.5635,97.5614,,,98.0561,98.3001,,122,122,,,,,,,,,,,,,,,,bars/016.png,bars/mask003.png,,,,,,,,,,,,0,2,,,,,,,2,4,2,5,,,,,,,,,,,97.5615,98.0559,98.3002,98.389,space,0.078,0.0019,98.3893,82,43,99.3793,99.3794,99.444,space,0.0422,0.001,0,8,8,8,1,40,165,,,,,,,,
,,615a10906193d263fd02c670,65af560bac39215515c2535c,2024-01-23_08h58.02.093,bars,2023.2.3,Linux armv81,15.03759398,657b66ea316d21385b68909f,,,,,,,,,,,99.4449,100.4355,,,100.9335,101.186,,133,133,,,,,,,,,,,,,,,,bars/019.png,bars/mask005.png,,,,,,,,,,,,0,2,,,,,,,4,2,5,2,,,,,,,,,,,100.4355,100.9332,101.1862,101.6161,space,0.4068,0.0012,101.6163,88,28,102.6205,102.6206,102.7125,space,0.0802,0.0012,0,9,9,9,1,45,105,,,,,,,,
,,615a10906193d263fd02c670,65af560bac39215515c2535c,2024-01-23_08h58.02.093,bars,2023.2.3,Linux armv81,15.03759398,657b66ea316d21385b68909f,,,,,,,,,,,102.7146,103.7206,,,104.2095,104.4657,,25,25,,,,,,,,,,,,,,,,bars/025.png,bars/mask001.png,,,,,,,,,,,,2,2,,,,,,,6,4,9,4,,,,,,,,,,,103.7207,104.2094,104.4658,104.5686,space,0.0961,0.0012,104.5688,80,15,105.5733,105.5738,106.8269,space,1.2319,0.0006,0,10,10,10,1,105,40,,,,,,,,
,,615a10906193d263fd02c670,65af560bac39215515c2535c,2024-01-23_08h58.02.093,bars,2023.2.3,Linux armv81,15.03759398,657b66ea316d21385b68909f,,,,,,,,,,,106.828,107.8208,,,108.3153,108.5653,,73,73,,,,,,,,,,,,,,,,bars/014.png,bars/mask004.png,,,,,,,,,,,,6,1,,,,,,,8,2,8,0,,,,,,,,,,,107.821,108.3152,108.5654,108.6741,space,0.099,0.0013,108.6742,7,73,109.6754,109.6757,109.9689,space,0.2661,0.0009,0,11,11,11,1,80,0,,,,,,,,
,,615a10906193d263fd02c670,65af560bac39215515c2535c,2024-01-23_08h58.02.093,bars,2023.2.3,Linux armv81,15.03759398,657b66ea316d21385b68909f,,,,,,,,,,,109.9703,110.9635,,,111.4575,111.7068,,88,88,,,,,,,,,,,,,,,,bars/031.png,bars/mask003.png,,,,,,,,,,,,0,1,,,,,,,10,4,10,4,,,,,,,,,,,110.9637,111.4574,111.7069,111.8583,space,0.1307,0.0007,111.8586,32,53,112.8543,112.8545,112.8873,space,0.0182,0.0006,0,12,12,12,1,120,35,,,,,,,,
,,615a10906193d263fd02c670,65af560bac39215515c2535c,2024-01-23_08h58.02.093,bars,2023.2.3,Linux armv81,15.03759398,657b66ea316d21385b68909f,,,,,,,,,,,112.8888,113.8798,,,114.3692,114.6174,,70,70,,,,,,,,,,,,,,,,bars/001.png,bars/mask002.png,,,,,,,,,,,,1,2,,,,,,,8,2,8,1,,,,,,,,,,,113.8799,114.3691,114.6176,114.8799,space,0.2565,0.0007,114.88,60,15,115.8811,115.8812,115.9129,space,0.0025,0.0012,0,13,13,13,1,130,85,,,,,,,,
,,615a10906193d263fd02c670,65af560bac39215515c2535c,2024-01-23_08h58.02.093,bars,2023.2.3,Linux armv81,15.03759398,657b66ea316d21385b68909f,,,,,,,,,,,115.9148,116.9116,,,117.4126,117.6692,,161,161,,,,,,,,,,,,,,,,bars/030.png,bars/mask003.png,,,,,,,,,,,,3,1,,,,,,,10,4,10,4,,,,,,,,,,,116.9117,117.4124,117.6694,117.8869,space,0.1978,0.0007,117.8871,21,84,118.8823,118.8824,118.9581,space,0.0569,0.0007,0,14,14,14,1,140,65,,,,,,,,
,,615a10906193d263fd02c670,65af560bac39215515c2535c,2024-01-23_08h58.02.093,bars,2023.2.3,Linux armv81,15.03759398,657b66ea316d21385b68909f,,,,,,,,,,,118.9601,119.9564,,,120.4531,120.7029,,99,99,,,,,,,,,,,,,,,,bars/028.png,bars/mask007.png,,,,,,,,,,,,2,2,,,,,,,8,6,6,5,,,,,,,,,,,119.9565,120.453,120.7031,120.8848,space,0.1692,0.0006,120.8849,54,21,121.8937,121.8938,121.9234,space,0.003,0.0012,0,15,15,15,1,45,120,,,,,,,,
,,615a10906193d263fd02c670,65af560bac39215515c2535c,2024-01-23_08h58.02.093,bars,2023.2.3,Linux armv81,15.03759398,657b66ea316d21385b68909f,,,,,,,,,,,121.925,122.9143,,,123.4059,123.6535,,22,22,,,,,,,,,,,,,,,,bars/022.png,bars/mask009.png,,,,,,,,,,,,6,2,,,,,,,6,8,6,6,,,,,,,,,,,122.9145,123.4057,123.6536,123.9026,space,0.2303,0.0011,123.9028,73,2,124.8932,124.8934,124.9438,space,0.0261,0.0009,0,16,16,16,1,95,20,,,,,,,,
,,615a10906193d263fd02c670,65af560bac39215515c2535c,2024-01-23_08h58.02.093,bars,2023.2.3,Linux armv81,15.03759398,657b66ea316d21385b68909f,,,,,,,,,,,124.9457,125.9356,,,126.4319,126.681,,95,95,,,,,,,,,,,,,,,,bars/016.png,bars/mask002.png,,,,,,,,,,,,0,1,,,,,,,4,6,4,6,,,,,,,,,,,125.9357,126.4317,126.6812,126.8014,space,0.1077,0.0009,126.8015,55,70,127.7951,127.7952,127.8561,space,0.0295,0.0006,0,17,17,17,1,40,165,,,,,,,,
,,615a10906193d263fd02c670,65af560bac39215515c2535c,2024-01-23_08h58.02.093,bars,2023.2.3,Linux armv81,15.03759398,657b66ea316d21385b68909f,,,,,,,,,,,127.857,128.8507,,,129.3434,129.5881,,121,121,,,,,,,,,,,,,,,,bars/002.png,bars/mask000.png,,,,,,,,,,,,1,1,,,,,,,2,4,2,5,,,,,,,,,,,128.8509,129.3433,129.5883,129.759,space,0.1497,0.0009,129.7591,9,36,130.7494,130.7495,130.9805,space,0.2147,0.0012,0,18,18,18,1,130,85,,,,,,,,
,,615a10906193d263fd02c670,65af560bac39215515c2535c,2024-01-23_08h58.02.093,bars,2023.2.3,Linux armv81,15.03759398,657b66ea316d21385b68909f,,,,,,,,,,,130.9821,131.9821,,,132.4768,132.7244,,70,70,,,,,,,,,,,,,,,,bars/018.png,bars/mask005.png,,,,,,,,,,,,1,2,,,,,,,0,2,0,3,,,,,,,,,,,131.9823,132.4766,132.7245,132.7694,space,0.0221,0.0011,132.7695,80,20,133.7616,133.7618,133.7885,space,0.0028,0.0006,0,19,19,19,1,150,90,,,,,,,,
,,615a10906193d263fd02c670,65af560bac39215515c2535c,2024-01-23_08h58.02.093,bars,2023.2.3,Linux armv81,15.03759398,657b66ea316d21385b68909f,,,,,,,,,,,133.7894,134.7868,,,135.2854,135.5433,,122,122,,,,,,,,,,,,,,,,bars/016.png,bars/mask008.png,,,,,,,,,,,,0,2,,,,,,,2,0,0,1,,,,,,,,,,,134.7869,135.2853,135.5434,135.6188,space,0.0662,0.0026,135.6191,82,43,136.6154,136.6156,136.6939,space,0.0537,0.0012,0,20,20,20,1,40,165,,,,,,,,
,,615a10906193d263fd02c670,65af560bac39215515c2535c,2024-01-23_08h58.02.093,bars,2023.2.3,Linux armv81,15.03759398,657b66ea316d21385b68909f,,,,,,,,,,,136.6958,137.6966,,,138.2041,138.4443,,171,171,,,,,,,,,,,,,,,,bars/027.png,bars/mask006.png,,,,,,,,,,,,0,2,,,,,,,4,2,7,2,,,,,,,,,,,137.6968,138.2041,138.4445,138.4969,space,0.0376,0.0015,138.4972,61,59,139.4924,139.4926,139.7754,space,0.2635,0.0015,0,21,21,21,1,110,50,,,,,,,,
,,615a10906193d263fd02c670,65af560bac39215515c2535c,2024-01-23_08h58.02.093,bars,2023.2.3,Linux armv81,15.03759398,657b66ea316d21385b68909f,,,,,,,,,,,139.7768,140.7723,,,141.2709,141.5203,,86,86,,,,,,,,,,,,,,,,bars/046.png,bars/mask008.png,,,,,,,,,,,,0,2,,,,,,,2,0,1,0,,,,,,,,,,,140.7724,141.2708,141.5204,141.6043,space,0.0739,0.0012,141.6048,69,1,142.6009,142.6011,142.6684,space,0.0454,0.0012,0,22,22,22,1,155,85,,,,,,,,
,,615a10906193d263fd02c670,65af560bac39215515c2535c,2024-01-23_08h58.02.093,bars,2023.2.3,Linux armv81,15.03759398,657b66ea316d21385b68909f,,,,,,,,,,,142.6696,143.6655,,,144.1639,144.4136,,52,52,,,,,,,,,,,,,,,,bars/036.png,bars/mask006.png,,,,,,,,,,,,0,2,,,,,,,0,0,0,3,,,,,,,,,,,143.6657,144.1638,144.4137,144.5533,space,0.1312,0.0026,144.5534,87,32,145.5443,145.5445,145.5624,space,0.0026,0.0012,0,23,23,23,1,145,20,,,,,,,,
,,615a10906193d263fd02c670,65af560bac39215515c2535c,2024-01-23_08h58.02.093,bars,2023.2.3,Linux armv81,15.03759398,657b66ea316d21385b68909f,,,,,,,,,,,145.5637,146.5588,,,147.0586,147.3076,,41,41,,,,,,,,,,,,,,,,bars/014.png,bars/mask008.png,,,,,,,,,,,,0,1,,,,,,,2,2,2,2,,,,,,,,,,,146.559,147.0583,147.3079,147.9889,space,0.6717,0.001,147.989,39,41,148.9862,148.9864,149.0457,space,0.0355,0.0012,0,24,24,24,1,80,0,,,,,,,,
,,615a10906193d263fd02c670,65af560bac39215515c2535c,2024-01-23_08h58.02.093,bars,2023.2.3,Linux armv81,15.03759398,657b66ea316d21385b68909f,,,,,,,,,,,149.0477,150.0502,,,150.5489,150.7985,,11,11,,,,,,,,,,,,,,,,bars/013.png,bars/mask001.png,,,,,,,,,,,,0,2,,,,,,,4,0,2,0,,,,,,,,,,,150.0503,150.5488,150.7987,150.9345,space,0.1229,0.0006,150.9351,64,1,151.9302,151.9303,152.1467,space,0.1874,0.0005,0,25,25,25,1,75,10,,,,,,,,
,,615a10906193d263fd02c670,65af560bac39215515c2535c,2024-01-23_08h58.02.093,bars,2023.2.3,Linux armv81,15.03759398,657b66ea316d21385b68909f,,,,,,,,,,,152.1481,153.1429,,,153.6419,153.8914,,120,120,,,,,,,,,,,,,,,,bars/029.png,bars/mask008.png,,,,,,,,,,,,0,1,,,,,,,2,2,2,2,,,,,,,,,,,153.143,153.6419,153.8915,153.9934,space,0.0895,0.0012,153.9937,30,75,154.9885,154.9887,155.0558,space,0.0429,0.0014,0,26,26,26,1,90,45,,,,,,,,
,,615a10906193d263fd02c670,65af560bac39215515c2535c,2024-01-23_08h58.02.093,bars,2023.2.3,Linux armv81,15.03759398,657b66ea316d21385b68909f,,,,,,,,,,,155.0573,156.0534,,,156.5522,156.8011,,91,91,,,,,,,,,,,,,,,,bars/025.png,bars/mask003.png,,,,,,,,,,,,0,1,,,,,,,0,4,0,6,,,,,,,,,,,156.054,156.552,156.8012,156.8849,space,0.0644,0.0018,156.8851,14,51,157.8824,157.8831,158.1486,space,0.2449,0.0008,0,27,27,27,1,105,40,,,,,,,,
,,615a10906193d263fd02c670,65af560bac39215515c2535c,2024-01-23_08h58.02.093,bars,2023.2.3,Linux armv81,15.03759398,657b66ea316d21385b68909f,,,,,,,,,,,158.151,159.1458,,,159.6442,159.8939,,57,57,,,,,,,,,,,,,,,,bars/009.png,bars/mask006.png,,,,,,,,,,,,0,1,,,,,,,2,2,1,3,,,,,,,,,,,159.146,159.6442,159.894,159.995,space,0.0873,0.0006,159.9951,42,48,160.9921,160.9922,161.0583,space,0.0472,0.0009,0,28,28,28,1,15,105,,,,,,,,
,,615a10906193d263fd02c670,65af560bac39215515c2535c,2024-01-23_08h58.02.093,bars,2023.2.3,Linux armv81,15.03759398,657b66ea316d21385b68909f,,,,,,,,,,,161.0596,162.056,,,162.5551,162.8037,,143,143,,,,,,,,,,,,,,,,bars/007.png,bars/mask001.png,,,,,,,,,,,,0,1,,,,,,,0,0,0,1,,,,,,,,,,,162.0561,162.5549,162.8039,162.9874,space,0.1687,0.0009,162.9875,32,88,163.9846,163.9849,164.1844,space,0.1803,0.0011,0,29,29,29,1,175,55,,,,,,,,
,,615a10906193d263fd02c670,65af560bac39215515c2535c,2024-01-23_08h58.02.093,bars,2023.2.3,Linux armv81,15.03759398,657b66ea316d21385b68909f,,,,,,,,,,,164.186,165.1818,,,165.6808,165.9303,,139,139,,,,,,,,,,,,,,,,bars/033.png,bars/mask002.png,,,,,,,,,,,,0,2,,,,,,,2,2,3,1,,,,,,,,,,,165.182,165.6805,165.9306,166.1463,space,0.2049,0.001,166.1464,66,16,167.1442,167.1443,167.1676,space,0.0024,0.0006,0,30,30,30,1,25,155,,,,,,,,
,,615a10906193d263fd02c670,65af560bac39215515c2535c,2024-01-23_08h58.02.093,bars,2023.2.3,Linux armv81,15.03759398,657b66ea316d21385b68909f,,,,,,,,,,,167.1685,168.1579,,,168.6564,168.9058,,25,25,,,,,,,,,,,,,,,,bars/000.png,bars/mask004.png,,,,,,,,,,,,0,1,,,,,,,0,0,0,0,,,,,,,,,,,168.1581,168.6563,168.9058,168.9891,space,0.0683,0.0011,168.9893,15,60,169.9947,169.9948,170.0197,space,0.0023,0.0007,0,31,31,31,1,40,145,,,,,,,,
,,615a10906193d263fd02c670,65af560bac39215515c2535c,2024-01-23_08h58.02.093,bars,2023.2.3,Linux armv81,15.03759398,657b66ea316d21385b68909f,,,,,,,,,,,170.0213,171.0181,,,171.5169,171.7661,,155,155,,,,,,,,,,,,,,,,bars/003.png,bars/mask008.png,,,,,,,,,,,,0,2,,,,,,,0,0,1,0,,,,,,,,,,,171.0182,171.5166,171.7662,171.8162,space,0.033,0.0005,171.8164,50,15,172.8135,172.8138,172.8426,space,0.0028,0.0012,0,32,32,32,1,25,140,,,,,,,,
,,615a10906193d263fd02c670,65af560bac39215515c2535c,2024-01-23_08h58.02.093,bars,2023.2.3,Linux armv81,15.03759398,657b66ea316d21385b68909f,,,,,,,,,,,172.8433,173.8449,,,174.3432,174.5928,,45,45,,,,,,,,,,,,,,,,bars/012.png,bars/mask005.png,,,,,,,,,,,,0,2,,,,,,,2,0,1,2,,,,,,,,,,,173.8451,174.3431,174.593,174.6113,space,0.0032,0.0016,174.6114,45,30,175.6068,175.6069,175.6569,space,0.0334,0.0011,0,33,33,33,1,90,15,,,,,,,,
,,615a10906193d263fd02c670,65af560bac39215515c2535c,2024-01-23_08h58.02.093,bars,2023.2.3,Linux armv81,15.03759398,657b66ea316d21385b68909f,,,,,,,,,,,175.6582,176.6542,,,177.1534,177.4022,,14,14,,,,,,,,,,,,,,,,bars/044.png,bars/mask007.png,,,,,,,,,,,,0,2,,,,,,,0,0,0,0,,,,,,,,,,,176.6543,177.1532,177.4023,177.4878,space,0.0708,0.0014,177.488,61,39,178.4834,178.4835,178.5331,space,0.0295,0.0005,0,34,34,34,1,75,155,,,,,,,,
,,615a10906193d263fd02c670,65af560bac39215515c2535c,2024-01-23_08h58.02.093,bars,2023.2.3,Linux armv81,15.03759398,657b66ea316d21385b68909f,,,,,,,,,,,178.5342,179.5313,,,180.0298,180.2844,,14,14,,,,,,,,,,,,,,,,bars/002.png,bars/mask000.png,,,,,,,,,,,,0,1,,,,,,,2,2,2,2,,,,,,,,,,,179.5318,180.0298,180.2845,180.3686,space,0.06,0.0016,180.3687,64,71,181.3695,181.3695,181.4165,space,0.0048,0.0007,0,35,35,35,1,130,85,,,,,,,,
,,615a10906193d263fd02c670,65af560bac39215515c2535c,2024-01-23_08h58.02.093,bars,2023.2.3,Linux armv81,15.03759398,657b66ea316d21385b68909f,,,,,,,,,,,181.4175,182.4188,,,182.9244,183.1791,,172,172,,,,,,,,,,,,,,,,bars/037.png,bars/mask006.png,,,,,,,,,,,,0,1,,,,,,,0,0,0,0,,,,,,,,,,,182.419,182.9241,183.1792,183.2,space,0.0026,0.0014,183.2003,22,67,184.1964,184.1966,184.3989,space,0.1811,0.0012,0,36,36,36,1,150,105,,,,,,,,
,,615a10906193d263fd02c670,65af560bac39215515c2535c,2024-01-23_08h58.02.093,bars,2023.2.3,Linux armv81,15.03759398,657b66ea316d21385b68909f,,,,,,,,,,,184.4001,185.4012,,,185.9002,186.1488,,164,164,,,,,,,,,,,,,,,,bars/032.png,bars/mask007.png,,,,,,,,,,,,0,2,,,,,,,0,0,0,0,,,,,,,,,,,185.4013,185.9,186.1489,186.4989,space,0.3351,0.0014,186.499,39,36,187.4956,187.4958,187.5955,space,0.0739,0.0011,0,37,37,37,1,125,20,,,,,,,,
,,615a10906193d263fd02c670,65af560bac39215515c2535c,2024-01-23_08h58.02.093,bars,2023.2.3,Linux armv81,15.03759398,657b66ea316d21385b68909f,,,,,,,,,,,187.5967,188.5928,,,189.092,189.3409,,82,82,,,,,,,,,,,,,,,,bars/023.png,bars/mask007.png,,,,,,,,,,,,0,2,,,,,,,0,0,0,0,,,,,,,,,,,188.5929,189.0919,189.341,189.409,space,0.0469,0.0011,189.4092,62,33,190.4057,190.4063,190.6884,space,0.2579,0.0014,0,38,38,38,1,20,115,,,,,,,,
,,615a10906193d263fd02c670,65af560bac39215515c2535c,2024-01-23_08h58.02.093,bars,2023.2.3,Linux armv81,15.03759398,657b66ea316d21385b68909f,,,,,,,,,,,190.6895,191.6858,,,192.1847,192.4344,,46,46,,,,,,,,,,,,,,,,bars/008.png,bars/mask004.png,,,,,,,,,,,,0,2,,,,,,,0,2,0,3,,,,,,,,,,,191.6862,192.1845,192.4345,192.568,space,0.1161,0.0008,192.5683,64,46,193.5645,193.5647,193.699,space,0.1235,0.0009,0,39,39,39,1,110,0,,,,,,,,
,,615a10906193d263fd02c670,65af560bac39215515c2535c,2024-01-23_08h58.02.093,bars,2023.2.3,Linux armv81,15.03759398,657b66ea316d21385b68909f,,,,,,,,,,,193.7003,194.6969,,,195.1948,195.4442,,159,159,,,,,,,,,,,,,,,,bars/042.png,bars/mask009.png,,,,,,,,,,,,1,1,,,,,,,2,0,1,1,,,,,,,,,,,194.6971,195.1947,195.4445,195.4939,space,0.0375,0.0009,195.4942,14,84,196.4918,196.4919,196.7078,space,0.1799,0.001,0,40,40,40,1,145,75,,,,,,,,
,,615a10906193d263fd02c670,65af560bac39215515c2535c,2024-01-23_08h58.02.093,bars,2023.2.3,Linux armv81,15.03759398,657b66ea316d21385b68909f,,,,,,,,,,,196.7099,197.7054,,,198.1981,198.4382,,100,100,,,,,,,,,,,,,,,,bars/034.png,bars/mask007.png,,,,,,,,,,,,1,1,,,,,,,4,2,5,3,,,,,,,,,,,197.7055,198.1979,198.4385,198.6035,space,0.139,0.001,198.6036,25,35,199.5936,199.5939,199.7933,space,0.1825,0.0013,0,41,41,41,1,125,65,,,,,,,,
,,615a10906193d263fd02c670,65af560bac39215515c2535c,2024-01-23_08h58.02.093,bars,2023.2.3,Linux armv81,15.03759398,657b66ea316d21385b68909f,,,,,,,,,,,199.7952,200.7978,,,201.2998,201.539,,5,5,,,,,,,,,,,,,,,,bars/040.png,bars/mask005.png,,,,,,,,,,,,5,2,,,,,,,2,4,2,5,,,,,,,,,,,200.7982,201.2997,201.5392,201.7441,space,0.1903,0.0012,201.7443,45,0,202.743,202.7432,203.0191,space,0.2459,0.0012,0,42,42,42,1,140,5,,,,,,,,
,,615a10906193d263fd02c670,65af560bac39215515c2535c,2024-01-23_08h58.02.093,bars,2023.2.3,Linux armv81,15.03759398,657b66ea316d21385b68909f,,,,,,,,,,,203.0204,204.0234,,,204.5223,204.7714,,172,172,,,,,,,,,,,,,,,,bars/014.png,bars/mask006.png,,,,,,,,,,,,1,2,,,,,,,4,2,3,2,,,,,,,,,,,204.0236,204.5222,204.7716,204.8308,space,0.0364,0.001,204.831,88,8,205.8191,205.8192,205.9023,space,0.0681,0.0011,0,43,43,43,1,80,0,,,,,,,,
,,615a10906193d263fd02c670,65af560bac39215515c2535c,2024-01-23_08h58.02.093,bars,2023.2.3,Linux armv81,15.03759398,657b66ea316d21385b68909f,,,,,,,,,,,205.9032,206.9001,,,207.3994,207.6487,,48,48,,,,,,,,,,,,,,,,bars/043.png,bars/mask007.png,,,,,,,,,,,,0,1,,,,,,,2,0,1,0,,,,,,,,,,,206.9005,207.3992,207.6489,207.7084,space,0.0372,0.0016,207.7085,18,82,208.7006,208.7007,208.7773,space,0.0534,0.0013,0,44,44,44,1,30,130,,,,,,,,
,,615a10906193d263fd02c670,65af560bac39215515c2535c,2024-01-23_08h58.02.093,bars,2023.2.3,Linux armv81,15.03759398,657b66ea316d21385b68909f,,,,,,,,,,,208.7787,209.7765,,,210.2752,210.5286,,144,144,,,,,,,,,,,,,,,,bars/020.png,bars/mask006.png,,,,,,,,,,,,0,2,,,,,,,0,2,0,2,,,,,,,,,,,209.7766,210.2751,210.5286,210.6344,space,0.0876,0.0011,210.6345,29,26,211.6224,211.6226,211.7593,space,0.1048,0.0025,0,45,45,45,1,115,170,,,,,,,,
,,615a10906193d263fd02c670,65af560bac39215515c2535c,2024-01-23_08h58.02.093,bars,2023.2.3,Linux armv81,15.03759398,657b66ea316d21385b68909f,,,,,,,,,,,211.761,212.7533,,,213.2524,213.5017,,45,45,,,,,,,,,,,,,,,,bars/011.png,bars/mask009.png,,,,,,,,,,,,0,2,,,,,,,2,0,2,0,,,,,,,,,,,212.7535,213.2521,213.502,214.7817,space,1.2643,0.0014,214.7819,65,40,215.7793,215.7795,216.0294,space,0.2331,0.0011,0,46,46,46,1,160,85,,,,,,,,
,,615a10906193d263fd02c670,65af560bac39215515c2535c,2024-01-23_08h58.02.093,bars,2023.2.3,Linux armv81,15.03759398,657b66ea316d21385b68909f,,,,,,,,,,,216.0314,217.0264,,,217.5149,217.7585,,159,159,,,,,,,,,,,,,,,,bars/001.png,bars/mask008.png,,,,,,,,,,,,0,1,,,,,,,4,2,3,2,,,,,,,,,,,217.0266,217.5147,217.7587,218.3421,space,0.57,0.0011,218.3423,29,74,219.3368,219.3369,219.4238,space,0.0676,0.0013,0,47,47,47,1,130,85,,,,,,,,
,,615a10906193d263fd02c670,65af560bac39215515c2535c,2024-01-23_08h58.02.093,bars,2023.2.3,Linux armv81,15.03759398,657b66ea316d21385b68909f,,,,,,,,,,,219.4255,220.4184,,,220.9175,221.1666,,74,74,,,,,,,,,,,,,,,,bars/028.png,bars/mask004.png,,,,,,,,,,,,0,1,,,,,,,6,0,5,2,,,,,,,,,,,220.4185,220.9173,221.1668,221.2034,space,0.0228,0.0015,221.2037,29,46,222.1974,222.1976,222.2977,space,0.0856,0.0014,0,48,48,48,1,45,120,,,,,,,,
,,615a10906193d263fd02c670,65af560bac39215515c2535c,2024-01-23_08h58.02.093,bars,2023.2.3,Linux armv81,15.03759398,657b66ea316d21385b68909f,,,,,,,,,,,222.299,223.2945,,,223.7932,224.0428,,130,130,,,,,,,,,,,,,,,,bars/043.png,bars/mask006.png,,,,,,,,,,,,1,2,,,,,,,4,0,4,1,,,,,,,,,,,223.2946,223.7931,224.0429,224.129,space,0.0701,0.0011,224.1291,80,0,225.1241,225.1242,225.1511,space,0.0032,0.0012,0,49,49,49,1,30,130,,,,,,,,
,,615a10906193d263fd02c670,65af560bac39215515c2535c,2024-01-23_08h58.02.093,bars,2023.2.3,Linux armv81,15.03759398,657b66ea316d21385b68909f,,,,,,,,,,,,,,,,,,,,,,,,,,,,,,,,,,,,,,,,,,,,,,,,,,,,,,,,,,,,,,,,,,,,,,,,,,,,,,,,,,,,,,,,,,,,,225.1534,285.1513,0,0,0,0,1,sequence_tables/blk040.csv
,,615a10906193d263fd02c670,65af560bac39215515c2535c,2024-01-23_08h58.02.093,bars,2023.2.3,Linux armv81,15.03759398,657b66ea316d21385b68909f,,,,,,,,,,,286.5398,287.543,,,288.0423,288.2921,,22,22,,,,,,,,,,,,,,,,bars/032.png,bars/mask004.png,,,,,,,,,,,,8,2,,,,,,,9,8,9,9,,,,,,285.1827,286.5291,space,1.328,0.0009,287.543,288.042,288.2923,288.4578,space,0.1517,0.0005,288.458,77,2,289.4564,289.4564,289.4591,,,,0,0,0,0,1,125,20,,,,,,,,
,,615a10906193d263fd02c670,65af560bac39215515c2535c,2024-01-23_08h58.02.093,bars,2023.2.3,Linux armv81,15.03759398,657b66ea316d21385b68909f,,,,,,,,,,,289.461,290.4549,,,290.9519,291.1898,,66,66,,,,,,,,,,,,,,,,bars/049.png,bars/mask000.png,,,,,,,,,,,,0,2,,,,,,,7,10,7,10,,,,,,,,,,,290.455,290.9518,291.1899,291.3846,space,0.1752,0.0007,291.3849,86,49,292.3837,292.3838,292.3862,,,,0,1,1,1,1,160,115,,,,,,,,
,,615a10906193d263fd02c670,65af560bac39215515c2535c,2024-01-23_08h58.02.093,bars,2023.2.3,Linux armv81,15.03759398,657b66ea316d21385b68909f,,,,,,,,,,,292.3899,293.3795,,,293.8782,294.1278,,95,95,,,,,,,,,,,,,,,,bars/020.png,bars/mask006.png,,,,,,,,,,,,3,1,,,,,,,9,10,9,10,,,,,,,,,,,293.3796,293.8781,294.1279,294.1448,space,0.0015,0.0005,294.1451,20,75,295.1426,295.1427,295.1475,,,,0,2,2,2,1,115,170,,,,,,,,
,,615a10906193d263fd02c670,65af560bac39215515c2535c,2024-01-23_08h58.02.093,bars,2023.2.3,Linux armv81,15.03759398,657b66ea316d21385b68909f,,,,,,,,,,,295.1481,296.1397,,,296.6385,296.8879,,59,59,,,,,,,,,,,,,,,,bars/009.png,bars/mask006.png,,,,,,,,,,,,0,1,,,,,,,7,8,8,6,,,,,,,,,,,296.1398,296.6384,296.888,296.9565,space,0.0483,0.001,296.9567,44,46,297.952,297.952,297.9539,,,,0,3,3,3,1,15,105,,,,,,,,
,,615a10906193d263fd02c670,65af560bac39215515c2535c,2024-01-23_08h58.02.093,bars,2023.2.3,Linux armv81,15.03759398,657b66ea316d21385b68909f,,,,,,,,,,,297.9547,298.9515,,,299.4487,299.6977,,127,127,,,,,,,,,,,,,,,,bars/047.png,bars/mask003.png,,,,,,,,,,,,0,2,,,,,,,5,10,6,10,,,,,,,,,,,298.9516,299.4485,299.6979,299.7482,space,0.0369,0.0009,299.7483,68,57,300.7459,300.7461,300.7513,,,,0,4,4,4,1,15,70,,,,,,,,
,,615a10906193d263fd02c670,65af560bac39215515c2535c,2024-01-23_08h58.02.093,bars,2023.2.3,Linux armv81,15.03759398,657b66ea316d21385b68909f,,,,,,,,,,,300.7521,301.7434,,,302.2425,302.4913,,116,116,,,,,,,,,,,,,,,,bars/020.png,bars/mask006.png,,,,,,,,,,,,7,1,,,,,,,7,8,7,8,,,,,,,,,,,301.7437,302.2423,302.4914,302.5929,space,0.0938,0.0012,302.5932,1,54,303.5887,303.5888,303.5941,,,,0,5,5,5,1,115,170,,,,,,,,
,,615a10906193d263fd02c670,65af560bac39215515c2535c,2024-01-23_08h58.02.093,bars,2023.2.3,Linux armv81,15.03759398,657b66ea316d21385b68909f,,,,,,,,,,,303.595,304.5875,,,305.0853,305.3349,,132,132,,,,,,,,,,,,,,,,bars/006.png,bars/mask007.png,,,,,,,,,,,,0,2,,,,,,,9,6,9,5,,,,,,,,,,,304.5877,305.0852,305.3352,305.385,space,0.0385,0.0011,305.3855,83,32,306.3821,306.3822,306.3875,,,,0,6,6,6,1,35,100,,,,,,,,
,,615a10906193d263fd02c670,65af560bac39215515c2535c,2024-01-23_08h58.02.093,bars,2023.2.3,Linux armv81,15.03759398,657b66ea316d21385b68909f,,,,,,,,,,,306.3884,307.38,,,307.8795,308.1279,,136,136,,,,,,,,,,,,,,,,bars/031.png,bars/mask007.png,,,,,,,,,,,,3,1,,,,,,,7,4,7,2,,,,,,,,,,,307.3805,307.8793,308.128,308.2801,space,0.1372,0.0011,308.2803,16,79,309.2753,309.2754,309.2803,,,,0,7,7,7,1,120,35,,,,,,,,
,,615a10906193d263fd02c670,65af560bac39215515c2535c,2024-01-23_08h58.02.093,bars,2023.2.3,Linux armv81,15.03759398,657b66ea316d21385b68909f,,,,,,,,,,,309.2811,310.273,,,310.7733,311.0216,,92,92,,,,,,,,,,,,,,,,bars/047.png,bars/mask000.png,,,,,,,,,,,,1,2,,,,,,,5,2,6,3,,,,,,,,,,,310.2732,310.7731,311.0218,311.0387,space,0.0024,0.001,311.0389,77,22,312.036,312.0362,312.047,,,,0,8,8,8,1,15,70,,,,,,,,
,,615a10906193d263fd02c670,65af560bac39215515c2535c,2024-01-23_08h58.02.093,bars,2023.2.3,Linux armv81,15.03759398,657b66ea316d21385b68909f,,,,,,,,,,,312.0485,313.0503,,,313.5495,313.7978,,98,98,,,,,,,,,,,,,,,,bars/039.png,bars/mask002.png,,,,,,,,,,,,3,2,,,,,,,7,4,8,4,,,,,,,,,,,313.0504,313.5493,313.7979,313.9482,space,0.132,0.0012,313.9488,77,7,314.945,314.9452,314.9474,,,,0,9,9,9,1,175,105,,,,,,,,
,,615a10906193d263fd02c670,65af560bac39215515c2535c,2024-01-23_08h58.02.093,bars,2023.2.3,Linux armv81,15.03759398,657b66ea316d21385b68909f,,,,,,,,,,,314.9482,315.9444,,,316.4426,316.6913,,164,164,,,,,,,,,,,,,,,,bars/046.png,bars/mask004.png,,,,,,,,,,,,7,1,,,,,,,9,2,10,2,,,,,,,,,,,315.9445,316.4424,316.6914,316.7917,space,0.0863,0.001,316.792,9,79,317.7888,317.7888,317.7941,,,,0,10,10,10,1,155,85,,,,,,,,
,,615a10906193d263fd02c670,65af560bac39215515c2535c,2024-01-23_08h58.02.093,bars,2023.2.3,Linux armv81,15.03759398,657b66ea316d21385b68909f,,,,,,,,,,,317.7952,318.7872,,,319.2859,319.5348,,159,159,,,,,,,,,,,,,,,,bars/003.png,bars/mask009.png,,,,,,,,,,,,0,2,,,,,,,7,0,7,0,,,,,,,,,,,318.7873,319.2855,319.5349,319.6853,space,0.1275,0.001,319.6857,46,19,320.6823,320.6824,320.688,,,,0,11,11,11,1,25,140,,,,,,,,
,,615a10906193d263fd02c670,65af560bac39215515c2535c,2024-01-23_08h58.02.093,bars,2023.2.3,Linux armv81,15.03759398,657b66ea316d21385b68909f,,,,,,,,,,,320.6891,321.6798,,,322.1789,322.429,,63,63,,,,,,,,,,,,,,,,bars/022.png,bars/mask008.png,,,,,,,,,,,,0,1,,,,,,,9,0,9,0,,,,,,,,,,,321.68,322.1787,322.4291,322.5955,space,0.1504,0.001,322.5958,32,43,323.5923,323.5927,323.6052,,,,0,12,12,12,1,95,20,,,,,,,,
,,615a10906193d263fd02c670,65af560bac39215515c2535c,2024-01-23_08h58.02.093,bars,2023.2.3,Linux armv81,15.03759398,657b66ea316d21385b68909f,,,,,,,,,,,323.6064,324.6062,,,325.1054,325.3546,,96,96,,,,,,,,,,,,,,,,bars/037.png,bars/mask002.png,,,,,,,,,,,,1,2,,,,,,,10,0,10,2,,,,,,,,,,,324.6062,325.1054,325.3547,325.5711,space,0.2032,0.0012,325.5713,54,9,326.5682,326.5683,326.5739,,,,0,13,13,13,1,150,105,,,,,,,,
,,615a10906193d263fd02c670,65af560bac39215515c2535c,2024-01-23_08h58.02.093,bars,2023.2.3,Linux armv81,15.03759398,657b66ea316d21385b68909f,,,,,,,,,,,326.5754,327.5695,,,328.0651,328.3142,,37,37,,,,,,,,,,,,,,,,bars/028.png,bars/mask005.png,,,,,,,,,,,,6,1,,,,,,,10,2,8,0,,,,,,,,,,,327.5697,328.065,328.3142,328.4312,space,0.1037,0.0011,328.4317,8,83,329.428,329.4282,329.4335,,,,0,14,14,14,1,45,120,,,,,,,,
,,615a10906193d263fd02c670,65af560bac39215515c2535c,2024-01-23_08h58.02.093,bars,2023.2.3,Linux armv81,15.03759398,657b66ea316d21385b68909f,,,,,,,,,,,329.4344,330.4265,,,330.9251,331.175,,26,26,,,,,,,,,,,,,,,,bars/018.png,bars/mask004.png,,,,,,,,,,,,0,1,,,,,,,8,4,8,4,,,,,,,,,,,330.4267,330.925,331.1752,331.3249,space,0.1386,0.0011,331.3252,56,64,332.3222,332.3224,332.3244,,,,0,15,15,15,1,150,90,,,,,,,,
,,615a10906193d263fd02c670,65af560bac39215515c2535c,2024-01-23_08h58.02.093,bars,2023.2.3,Linux armv81,15.03759398,657b66ea316d21385b68909f,,,,,,,,,,,332.3252,333.3193,,,333.8187,334.0679,,4,4,,,,,,,,,,,,,,,,bars/039.png,bars/mask002.png,,,,,,,,,,,,7,1,,,,,,,10,2,10,2,,,,,,,,,,,333.3195,333.8185,334.0683,334.3172,space,0.2341,0.0011,334.3175,9,79,335.3144,335.3147,335.3176,,,,0,16,16,16,1,175,105,,,,,,,,
,,615a10906193d263fd02c670,65af560bac39215515c2535c,2024-01-23_08h58.02.093,bars,2023.2.3,Linux armv81,15.03759398,657b66ea316d21385b68909f,,,,,,,,,,,335.3188,336.3182,,,336.8103,337.0602,,13,13,,,,,,,,,,,,,,,,bars/021.png,bars/mask003.png,,,,,,,,,,,,0,1,,,,,,,8,0,8,1,,,,,,,,,,,336.3182,336.8102,337.0603,337.0949,space,0.0187,0.001,337.0951,38,57,338.0912,338.0913,338.0935,,,,0,17,17,17,1,155,70,,,,,,,,
,,615a10906193d263fd02c670,65af560bac39215515c2535c,2024-01-23_08h58.02.093,bars,2023.2.3,Linux armv81,15.03759398,657b66ea316d21385b68909f,,,,,,,,,,,338.0945,339.0883,,,339.588,339.8366,,64,64,,,,,,,,,,,,,,,,bars/002.png,bars/mask002.png,,,,,,,,,,,,0,2,,,,,,,6,0,5,0,,,,,,,,,,,339.0884,339.5879,339.8367,339.9704,space,0.1172,0.0011,339.9706,66,21,340.9671,340.9672,340.9727,,,,0,18,18,18,1,130,85,,,,,,,,
,,615a10906193d263fd02c670,65af560bac39215515c2535c,2024-01-23_08h58.02.093,bars,2023.2.3,Linux armv81,15.03759398,657b66ea316d21385b68909f,,,,,,,,,,,340.9735,341.9651,,,342.4668,342.7143,,75,75,,,,,,,,,,,,,,,,bars/000.png,bars/mask000.png,,,,,,,,,,,,0,1,,,,,,,8,0,9,0,,,,,,,,,,,341.9653,342.4653,342.7146,342.9513,space,0.2222,0.0013,342.9516,35,70,343.9434,343.9435,343.9485,,,,0,19,19,19,1,40,145,,,,,,,,
,,615a10906193d263fd02c670,65af560bac39215515c2535c,2024-01-23_08h58.02.093,bars,2023.2.3,Linux armv81,15.03759398,657b66ea316d21385b68909f,,,,,,,,,,,343.9495,344.9417,,,345.4403,345.6905,,28,28,,,,,,,,,,,,,,,,bars/008.png,bars/mask002.png,,,,,,,,,,,,0,2,,,,,,,6,2,5,1,,,,,,,,,,,344.9418,345.4402,345.6907,345.8573,space,0.1505,0.0012,345.8576,82,28,346.8535,346.8535,346.8588,,,,0,20,20,20,1,110,0,,,,,,,,
,,615a10906193d263fd02c670,65af560bac39215515c2535c,2024-01-23_08h58.02.093,bars,2023.2.3,Linux armv81,15.03759398,657b66ea316d21385b68909f,,,,,,,,,,,346.8595,347.8513,,,348.3511,348.6001,,120,120,,,,,,,,,,,,,,,,bars/028.png,bars/mask001.png,,,,,,,,,,,,0,2,,,,,,,4,0,4,0,,,,,,,,,,,347.8514,348.351,348.6002,348.7499,space,0.1347,0.0011,348.7502,75,0,349.7468,349.7469,349.7486,,,,0,21,21,21,1,45,120,,,,,,,,
,,615a10906193d263fd02c670,65af560bac39215515c2535c,2024-01-23_08h58.02.093,bars,2023.2.3,Linux armv81,15.03759398,657b66ea316d21385b68909f,,,,,,,,,,,349.7494,350.7449,,,351.2446,351.4926,,63,63,,,,,,,,,,,,,,,,bars/029.png,bars/mask000.png,,,,,,,,,,,,0,2,,,,,,,6,0,5,0,,,,,,,,,,,350.745,351.2444,351.4926,351.6107,space,0.1031,0.0012,351.611,27,18,352.6066,352.6069,352.609,,,,0,22,22,22,1,90,45,,,,,,,,
,,615a10906193d263fd02c670,65af560bac39215515c2535c,2024-01-23_08h58.02.093,bars,2023.2.3,Linux armv81,15.03759398,657b66ea316d21385b68909f,,,,,,,,,,,352.6097,353.6045,,,354.1044,354.3529,,35,35,,,,,,,,,,,,,,,,bars/040.png,bars/mask009.png,,,,,,,,,,,,0,2,,,,,,,4,0,4,0,,,,,,,,,,,353.6047,354.1042,354.3533,354.5363,space,0.1687,0.0005,354.5366,75,30,355.5341,355.5343,355.5365,,,,0,23,23,23,1,140,5,,,,,,,,
,,615a10906193d263fd02c670,65af560bac39215515c2535c,2024-01-23_08h58.02.093,bars,2023.2.3,Linux armv81,15.03759398,657b66ea316d21385b68909f,,,,,,,,,,,355.5373,356.5311,,,357.0305,357.2788,,43,43,,,,,,,,,,,,,,,,bars/038.png,bars/mask008.png,,,,,,,,,,,,0,2,,,,,,,6,0,5,0,,,,,,,,,,,356.5311,357.0304,357.2789,357.3464,space,0.0504,0.001,357.3468,58,27,358.3436,358.3437,358.3469,,,,0,24,24,24,1,165,70,,,,,,,,
,,615a10906193d263fd02c670,65af560bac39215515c2535c,2024-01-23_08h58.02.093,bars,2023.2.3,Linux armv81,15.03759398,657b66ea316d21385b68909f,,,,,,,,,,,358.3489,359.3416,,,359.8403,360.0893,,131,131,,,,,,,,,,,,,,,,bars/038.png,bars/mask000.png,,,,,,,,,,,,0,1,,,,,,,8,2,7,2,,,,,,,,,,,359.3418,359.8402,360.0895,360.175,space,0.0731,0.0014,360.1752,34,61,361.1712,361.1714,361.1801,,,,0,25,25,25,1,165,70,,,,,,,,
,,615a10906193d263fd02c670,65af560bac39215515c2535c,2024-01-23_08h58.02.093,bars,2023.2.3,Linux armv81,15.03759398,657b66ea316d21385b68909f,,,,,,,,,,,361.1815,362.1838,,,362.6837,362.9324,,156,156,,,,,,,,,,,,,,,,bars/028.png,bars/mask008.png,,,,,,,,,,,,0,2,,,,,,,10,4,10,4,,,,,,,,,,,362.1839,362.6833,362.9325,363.0334,space,0.0886,0.0012,363.0336,69,36,364.0299,364.0301,364.0361,,,,0,26,26,26,1,45,120,,,,,,,,
,,615a10906193d263fd02c670,65af560bac39215515c2535c,2024-01-23_08h58.02.093,bars,2023.2.3,Linux armv81,15.03759398,657b66ea316d21385b68909f,,,,,,,,,,,364.0372,365.0278,,,365.5268,365.7765,,87,87,,,,,,,,,,,,,,,,bars/021.png,bars/mask003.png,,,,,,,,,,,,3,2,,,,,,,10,6,9,8,,,,,,,,,,,365.028,365.5266,365.777,365.9596,space,0.1662,0.0011,365.9598,68,17,366.9564,366.9565,366.9611,,,,0,27,27,27,1,155,70,,,,,,,,
,,615a10906193d263fd02c670,65af560bac39215515c2535c,2024-01-23_08h58.02.093,bars,2023.2.3,Linux armv81,15.03759398,657b66ea316d21385b68909f,,,,,,,,,,,366.9626,367.9541,,,368.4538,368.7021,,43,43,,,,,,,,,,,,,,,,bars/041.png,bars/mask009.png,,,,,,,,,,,,1,1,,,,,,,8,4,6,5,,,,,,,,,,,367.9545,368.4535,368.7022,368.8366,space,0.1262,0.0016,368.837,23,42,369.8334,369.8337,369.8429,,,,0,28,28,28,1,20,85,,,,,,,,
,,615a10906193d263fd02c670,65af560bac39215515c2535c,2024-01-23_08h58.02.093,bars,2023.2.3,Linux armv81,15.03759398,657b66ea316d21385b68909f,,,,,,,,,,,369.844,370.8471,,,371.3456,371.5953,,124,124,,,,,,,,,,,,,,,,bars/045.png,bars/mask005.png,,,,,,,,,,,,2,1,,,,,,,10,2,10,2,,,,,,,,,,,370.8473,371.3455,371.5953,371.6626,space,0.0562,0.0011,371.6628,24,66,372.6598,372.66,372.6637,,,,0,29,29,29,1,100,10,,,,,,,,
,,615a10906193d263fd02c670,65af560bac39215515c2535c,2024-01-23_08h58.02.093,bars,2023.2.3,Linux armv81,15.03759398,657b66ea316d21385b68909f,,,,,,,,,,,372.6649,373.6604,,,374.1566,374.4066,,55,55,,,,,,,,,,,,,,,,bars/031.png,bars/mask008.png,,,,,,,,,,,,0,2,,,,,,,10,0,10,0,,,,,,,,,,,373.6606,374.1564,374.4067,374.6063,space,0.1873,0.0016,374.6066,65,20,375.6023,375.6023,375.6078,,,,0,30,30,30,1,120,35,,,,,,,,
,,615a10906193d263fd02c670,65af560bac39215515c2535c,2024-01-23_08h58.02.093,bars,2023.2.3,Linux armv81,15.03759398,657b66ea316d21385b68909f,,,,,,,,,,,375.6085,376.601,,,377.1,377.3485,,107,107,,,,,,,,,,,,,,,,bars/029.png,bars/mask009.png,,,,,,,,,,,,3,1,,,,,,,8,0,7,0,,,,,,,,,,,376.6012,377.0998,377.3488,377.4989,space,0.1279,0.0012,377.4993,17,62,378.496,378.4963,378.5059,,,,0,31,31,31,1,90,45,,,,,,,,
,,615a10906193d263fd02c670,65af560bac39215515c2535c,2024-01-23_08h58.02.093,bars,2023.2.3,Linux armv81,15.03759398,657b66ea316d21385b68909f,,,,,,,,,,,378.507,379.5117,,,380.0093,380.2585,,94,94,,,,,,,,,,,,,,,,bars/039.png,bars/mask007.png,,,,,,,,,,,,3,2,,,,,,,6,2,6,4,,,,,,,,,,,379.5118,380.0091,380.2587,380.2762,space,0.0029,0.0012,380.2765,81,11,381.2723,381.2724,381.2778,,,,0,32,32,32,1,175,105,,,,,,,,
,,615a10906193d263fd02c670,65af560bac39215515c2535c,2024-01-23_08h58.02.093,bars,2023.2.3,Linux armv81,15.03759398,657b66ea316d21385b68909f,,,,,,,,,,,381.2786,382.2704,,,382.7698,383.019,,63,63,,,,,,,,,,,,,,,,bars/040.png,bars/mask005.png,,,,,,,,,,,,0,2,,,,,,,4,4,5,5,,,,,,,,,,,382.2706,382.7696,383.0193,383.2531,space,0.2178,0.0015,383.2533,77,58,384.2485,384.2486,384.2508,,,,0,33,33,33,1,140,5,,,,,,,,
,,615a10906193d263fd02c670,65af560bac39215515c2535c,2024-01-23_08h58.02.093,bars,2023.2.3,Linux armv81,15.03759398,657b66ea316d21385b68909f,,,,,,,,,,,384.2517,385.2465,,,385.7458,385.9948,,159,159,,,,,,,,,,,,,,,,bars/006.png,bars/mask005.png,,,,,,,,,,,,0,1,,,,,,,6,2,7,3,,,,,,,,,,,385.2466,385.7457,385.995,386.2611,space,0.2516,0.0016,386.2618,56,59,387.2579,387.2579,387.2629,,,,0,34,34,34,1,35,100,,,,,,,,
,,615a10906193d263fd02c670,65af560bac39215515c2535c,2024-01-23_08h58.02.093,bars,2023.2.3,Linux armv81,15.03759398,657b66ea316d21385b68909f,,,,,,,,,,,387.2636,388.2559,,,388.7548,389.0046,,103,103,,,,,,,,,,,,,,,,bars/028.png,bars/mask008.png,,,,,,,,,,,,0,2,,,,,,,4,0,3,0,,,,,,,,,,,388.256,388.7546,389.0048,389.0726,space,0.0489,0.0011,389.0731,58,17,390.0685,390.0687,390.078,,,,0,35,35,35,1,45,120,,,,,,,,
,,615a10906193d263fd02c670,65af560bac39215515c2535c,2024-01-23_08h58.02.093,bars,2023.2.3,Linux armv81,15.03759398,657b66ea316d21385b68909f,,,,,,,,,,,390.0796,391.0831,,,391.5825,391.8321,,42,42,,,,,,,,,,,,,,,,bars/004.png,bars/mask000.png,,,,,,,,,,,,3,1,,,,,,,6,0,6,1,,,,,,,,,,,391.0834,391.5823,391.8323,392.0172,space,0.1761,0.0014,392.0174,17,83,393.012,393.0122,393.0173,,,,0,36,36,36,1,25,125,,,,,,,,
,,615a10906193d263fd02c670,65af560bac39215515c2535c,2024-01-23_08h58.02.093,bars,2023.2.3,Linux armv81,15.03759398,657b66ea316d21385b68909f,,,,,,,,,,,393.0182,394.009,,,394.5086,394.7576,,56,56,,,,,,,,,,,,,,,,bars/015.png,bars/mask001.png,,,,,,,,,,,,0,1,,,,,,,4,2,3,4,,,,,,,,,,,394.0091,394.5085,394.7578,394.8079,space,0.037,0.0013,394.8082,54,76,395.8048,395.8049,395.8072,,,,0,37,37,37,1,110,160,,,,,,,,
,,615a10906193d263fd02c670,65af560bac39215515c2535c,2024-01-23_08h58.02.093,bars,2023.2.3,Linux armv81,15.03759398,657b66ea316d21385b68909f,,,,,,,,,,,395.808,396.8033,,,397.303,397.5506,,4,4,,,,,,,,,,,,,,,,bars/030.png,bars/mask008.png,,,,,,,,,,,,0,1,,,,,,,2,4,2,4,,,,,,,,,,,396.8034,397.3028,397.5507,397.6847,space,0.1262,0.0012,397.6851,44,61,398.6816,398.6817,398.6837,,,,0,38,38,38,1,140,65,,,,,,,,
,,615a10906193d263fd02c670,65af560bac39215515c2535c,2024-01-23_08h58.02.093,bars,2023.2.3,Linux armv81,15.03759398,657b66ea316d21385b68909f,,,,,,,,,,,398.6846,399.68,,,400.179,400.4281,,126,126,,,,,,,,,,,,,,,,bars/023.png,bars/mask004.png,,,,,,,,,,,,1,2,,,,,,,0,2,0,2,,,,,,,,,,,399.6801,400.179,400.4285,400.6452,space,0.2001,0.0014,400.6456,74,11,401.6422,401.6424,401.6522,,,,0,39,39,39,1,20,115,,,,,,,,
,,615a10906193d263fd02c670,65af560bac39215515c2535c,2024-01-23_08h58.02.093,bars,2023.2.3,Linux armv81,15.03759398,657b66ea316d21385b68909f,,,,,,,,,,,401.6536,402.6566,,,403.1548,403.4049,,46,46,,,,,,,,,,,,,,,,bars/024.png,bars/mask002.png,,,,,,,,,,,,0,2,,,,,,,2,4,3,5,,,,,,,,,,,402.6569,403.1546,403.4051,403.6544,space,0.2393,0.0012,403.6547,74,56,404.6511,404.6512,404.653,,,,0,40,40,40,1,120,170,,,,,,,,
,,615a10906193d263fd02c670,65af560bac39215515c2535c,2024-01-23_08h58.02.093,bars,2023.2.3,Linux armv81,15.03759398,657b66ea316d21385b68909f,,,,,,,,,,,404.6538,405.6488,,,406.1492,406.3971,,130,130,,,,,,,,,,,,,,,,bars/047.png,bars/mask008.png,,,,,,,,,,,,0,2,,,,,,,4,2,2,2,,,,,,,,,,,405.6489,406.149,406.3972,406.4145,space,0.0061,0.0012,406.4148,65,60,407.411,407.4112,407.4133,,,,0,41,41,41,1,15,70,,,,,,,,
,,615a10906193d263fd02c670,65af560bac39215515c2535c,2024-01-23_08h58.02.093,bars,2023.2.3,Linux armv81,15.03759398,657b66ea316d21385b68909f,,,,,,,,,,,407.4142,408.409,,,408.9083,409.1575,,26,26,,,,,,,,,,,,,,,,bars/020.png,bars/mask006.png,,,,,,,,,,,,0,2,,,,,,,6,0,5,0,,,,,,,,,,,408.4091,408.9081,409.1577,409.3235,space,0.155,0.0011,409.324,89,36,410.3209,410.3211,410.323,,,,0,42,42,42,1,115,170,,,,,,,,
,,615a10906193d263fd02c670,65af560bac39215515c2535c,2024-01-23_08h58.02.093,bars,2023.2.3,Linux armv81,15.03759398,657b66ea316d21385b68909f,,,,,,,,,,,410.3239,411.3191,,,411.8185,412.0733,,175,175,,,,,,,,,,,,,,,,bars/045.png,bars/mask009.png,,,,,,,,,,,,0,2,,,,,,,8,0,8,0,,,,,,,,,,,411.3192,411.8184,412.0735,412.1031,space,0.0172,0.0011,412.1034,75,15,413.0979,413.0981,413.1012,,,,0,43,43,43,1,100,10,,,,,,,,
,,615a10906193d263fd02c670,65af560bac39215515c2535c,2024-01-23_08h58.02.093,bars,2023.2.3,Linux armv81,15.03759398,657b66ea316d21385b68909f,,,,,,,,,,,413.1026,414.0956,,,414.5946,414.8445,,13,13,,,,,,,,,,,,,,,,bars/043.png,bars/mask007.png,,,,,,,,,,,,3,1,,,,,,,6,0,7,0,,,,,,,,,,,414.0957,414.5945,414.8446,415.044,space,0.1815,0.0012,415.0442,17,63,416.0409,416.041,416.0494,,,,0,44,44,44,1,30,130,,,,,,,,
,,615a10906193d263fd02c670,65af560bac39215515c2535c,2024-01-23_08h58.02.093,bars,2023.2.3,Linux armv81,15.03759398,657b66ea316d21385b68909f,,,,,,,,,,,416.0508,417.039,,,417.5378,417.7868,,98,98,,,,,,,,,,,,,,,,bars/041.png,bars/mask001.png,,,,,,,,,,,,0,2,,,,,,,8,0,9,0,,,,,,,,,,,417.0391,417.5374,417.787,418.0706,space,0.2682,0.0012,418.0709,78,13,419.0668,419.0669,419.0717,,,,0,45,45,45,1,20,85,,,,,,,,
,,615a10906193d263fd02c670,65af560bac39215515c2535c,2024-01-23_08h58.02.093,bars,2023.2.3,Linux armv81,15.03759398,657b66ea316d21385b68909f,,,,,,,,,,,419.0725,420.0648,,,420.564,420.8146,,153,153,,,,,,,,,,,,,,,,bars/039.png,bars/mask001.png,,,,,,,,,,,,2,1,,,,,,,10,2,8,2,,,,,,,,,,,420.065,420.5636,420.8148,425.0541,space,4.2217,0.0014,425.0543,22,48,426.0512,426.0515,426.0726,,,,0,46,46,46,1,175,105,,,,,,,,
,,615a10906193d263fd02c670,65af560bac39215515c2535c,2024-01-23_08h58.02.093,bars,2023.2.3,Linux armv81,15.03759398,657b66ea316d21385b68909f,,,,,,,,,,,426.0733,427.0652,,,427.5635,427.8132,,163,163,,,,,,,,,,,,,,,,bars/005.png,bars/mask008.png,,,,,,,,,,,,1,2,,,,,,,8,4,7,4,,,,,,,,,,,427.0655,427.5634,427.8134,427.9957,space,0.1736,0.0014,427.9958,27,23,428.9939,428.9941,429.0018,,,,0,47,47,47,1,10,140,,,,,,,,
,,615a10906193d263fd02c670,65af560bac39215515c2535c,2024-01-23_08h58.02.093,bars,2023.2.3,Linux armv81,15.03759398,657b66ea316d21385b68909f,,,,,,,,,,,429.0026,429.9909,,,430.4901,430.7395,,40,40,,,,,,,,,,,,,,,,bars/023.png,bars/mask002.png,,,,,,,,,,,,2,1,,,,,,,6,6,5,5,,,,,,,,,,,429.9911,430.4899,430.7396,430.8087,space,0.0599,0.0013,430.809,20,75,431.8039,431.804,431.8124,,,,0,48,48,48,1,20,115,,,,,,,,
,,615a10906193d263fd02c670,65af560bac39215515c2535c,2024-01-23_08h58.02.093,bars,2023.2.3,Linux armv81,15.03759398,657b66ea316d21385b68909f,,,,,,,,,,,431.8134,432.8013,,,433.2998,433.5492,,9,9,,,,,,,,,,,,,,,,bars/021.png,bars/mask005.png,,,,,,,,,,,,0,1,,,,,,,4,4,4,5,,,,,,,,,,,432.8015,433.2996,433.5493,433.6828,space,0.1231,0.001,433.683,34,61,434.6799,434.6801,434.6827,,,,0,49,49,49,1,155,70,,,,,,,,
,,615a10906193d263fd02c670,65af560bac39215515c2535c,2024-01-23_08h58.02.093,bars,2023.2.3,Linux armv81,15.03759398,657b66ea316d21385b68909f,,,,,,,,,,,,,,,,,,,,,,,,,,,,,,,,,,,,,,,,,,,,,,,,,,,,,,,,,,,,,,,,,,,,,,,,,,,,,,,,,,,,,,,,,,,,,434.6831,494.6745,0,1,1,2,1,sequence_tables/blk000.csv
,,615a10906193d263fd02c670,65af560bac39215515c2535c,2024-01-23_08h58.02.093,bars,2023.2.3,Linux armv81,15.03759398,657b66ea316d21385b68909f,,,,,,,,,,,499.0945,500.0609,,,500.5634,500.8079,,10,10,,,,,,,,,,,,,,,,bars/012.png,bars/mask001.png,,,,,,,,,,,,6,2,,,,,,,5,8,5,7,,,,,,494.7102,499.0442,space,4.315,0.0013,500.0612,500.5632,500.8081,500.9414,space,0.1083,0.0005,500.9417,80,5,501.9384,501.9385,501.9438,,,,0,0,0,0,1,90,15,,,,,,,,
,,615a10906193d263fd02c670,65af560bac39215515c2535c,2024-01-23_08h58.02.093,bars,2023.2.3,Linux armv81,15.03759398,657b66ea316d21385b68909f,,,,,,,,,,,501.9447,502.9403,,,503.4307,503.6855,,17,17,,,,,,,,,,,,,,,,bars/034.png,bars/mask001.png,,,,,,,,,,,,0,2,,,,,,,3,6,4,8,,,,,,,,,,,502.9406,503.4305,503.6857,503.8101,space,0.1038,,503.8103,72,48,504.7988,504.799,504.8005,,,,0,1,1,1,1,125,65,,,,,,,,
,,615a10906193d263fd02c670,65af560bac39215515c2535c,2024-01-23_08h58.02.093,bars,2023.2.3,Linux armv81,15.03759398,657b66ea316d21385b68909f,,,,,,,,,,,504.8013,505.7964,,,506.3073,506.5517,,164,164,,,,,,,,,,,,,,,,bars/013.png,bars/mask002.png,,,,,,,,,,,,1,2,,,,,,,5,8,5,9,,,,,,,,,,,505.7966,506.3071,506.5519,506.7,space,0.1331,0.0013,506.7002,89,26,507.6918,507.6919,507.6937,,,,0,2,2,2,1,75,10,,,,,,,,
,,615a10906193d263fd02c670,65af560bac39215515c2535c,2024-01-23_08h58.02.093,bars,2023.2.3,Linux armv81,15.03759398,657b66ea316d21385b68909f,,,,,,,,,,,507.6946,508.6993,,,509.2018,509.4531,,174,174,,,,,,,,,,,,,,,,bars/049.png,bars/mask009.png,,,,,,,,,,,,4,1,,,,,,,7,6,7,5,,,,,,,,,,,508.6993,509.2018,509.4533,509.6412,space,0.1752,0.0021,509.6415,14,59,510.6443,510.6443,510.6493,,,,0,3,3,3,1,160,115,,,,,,,,
,,615a10906193d263fd02c670,65af560bac39215515c2535c,2024-01-23_08h58.02.093,bars,2023.2.3,Linux armv81,15.03759398,657b66ea316d21385b68909f,,,,,,,,,,,510.6501,511.6493,,,512.1496,512.3983,,70,70,,,,,,,,,,,,,,,,bars/046.png,bars/mask000.png,,,,,,,,,,,,1,2,,,,,,,9,4,8,2,,,,,,,,,,,511.6494,512.1495,512.3986,512.5471,space,0.1315,0.0011,512.5473,85,15,513.5506,513.5509,513.5589,,,,0,4,4,4,1,155,85,,,,,,,,
,,615a10906193d263fd02c670,65af560bac39215515c2535c,2024-01-23_08h58.02.093,bars,2023.2.3,Linux armv81,15.03759398,657b66ea316d21385b68909f,,,,,,,,,,,513.5597,514.5591,,,515.0584,515.3079,,146,146,,,,,,,,,,,,,,,,bars/016.png,bars/mask006.png,,,,,,,,,,,,1,2,,,,,,,7,6,8,4,,,,,,,,,,,514.5592,515.0583,515.308,515.5069,space,0.1785,0.0014,515.507,74,19,516.5043,516.5044,516.5066,,,,0,5,5,5,1,40,165,,,,,,,,
,,615a10906193d263fd02c670,65af560bac39215515c2535c,2024-01-23_08h58.02.093,bars,2023.2.3,Linux armv81,15.03759398,657b66ea316d21385b68909f,,,,,,,,,,,516.5075,517.502,,,518.001,518.2506,,17,17,,,,,,,,,,,,,,,,bars/027.png,bars/mask006.png,,,,,,,,,,,,0,2,,,,,,,9,8,9,7,,,,,,,,,,,517.502,518.0009,518.2506,518.451,space,0.1875,0.0012,518.4513,87,33,519.4474,519.4476,519.4507,,,,0,6,6,6,1,110,50,,,,,,,,
,,615a10906193d263fd02c670,65af560bac39215515c2535c,2024-01-23_08h58.02.093,bars,2023.2.3,Linux armv81,15.03759398,657b66ea316d21385b68909f,,,,,,,,,,,519.4514,520.445,,,520.9335,521.177,,2,2,,,,,,,,,,,,,,,,bars/015.png,bars/mask006.png,,,,,,,,,,,,3,2,,,,,,,7,10,7,10,,,,,,,,,,,520.4452,520.9333,521.1771,521.3757,space,0.1709,0.0012,521.3759,72,22,522.3669,522.3671,522.3703,,,,0,7,7,7,1,110,160,,,,,,,,
,,615a10906193d263fd02c670,65af560bac39215515c2535c,2024-01-23_08h58.02.093,bars,2023.2.3,Linux armv81,15.03759398,657b66ea316d21385b68909f,,,,,,,,,,,522.3719,523.3646,,,523.8545,524.1044,,166,166,,,,,,,,,,,,,,,,bars/046.png,bars/mask006.png,,,,,,,,,,,,3,1,,,,,,,5,10,4,9,,,,,,,,,,,523.3646,523.8544,524.1046,524.2665,space,0.1362,0.0012,524.2667,11,81,525.2776,525.2778,525.2847,,,,0,8,8,8,1,155,85,,,,,,,,
,,615a10906193d263fd02c670,65af560bac39215515c2535c,2024-01-23_08h58.02.093,bars,2023.2.3,Linux armv81,15.03759398,657b66ea316d21385b68909f,,,,,,,,,,,525.2864,526.2755,,,526.7639,527.0132,,120,120,,,,,,,,,,,,,,,,bars/022.png,bars/mask007.png,,,,,,,,,,,,1,1,,,,,,,7,8,7,8,,,,,,,,,,,526.2756,526.7638,527.0134,527.0634,space,0.0377,0.0011,527.0636,25,80,528.0613,528.0616,528.0638,,,,0,9,9,9,1,95,20,,,,,,,,
,,615a10906193d263fd02c670,65af560bac39215515c2535c,2024-01-23_08h58.02.093,bars,2023.2.3,Linux armv81,15.03759398,657b66ea316d21385b68909f,,,,,,,,,,,528.0645,529.0629,,,529.5576,529.8071,,34,34,,,,,,,,,,,,,,,,bars/020.png,bars/mask001.png,,,,,,,,,,,,0,2,,,,,,,9,6,10,6,,,,,,,,,,,529.064,529.5573,529.8072,529.9733,space,0.1551,0.0009,529.9734,81,44,530.9705,530.9709,530.9773,,,,0,10,10,10,1,115,170,,,,,,,,
,,615a10906193d263fd02c670,65af560bac39215515c2535c,2024-01-23_08h58.02.093,bars,2023.2.3,Linux armv81,15.03759398,657b66ea316d21385b68909f,,,,,,,,,,,530.9784,531.9678,,,532.4674,532.7163,,58,58,,,,,,,,,,,,,,,,bars/043.png,bars/mask001.png,,,,,,,,,,,,1,1,,,,,,,10,8,10,7,,,,,,,,,,,531.9679,532.4671,532.7165,533.8637,space,1.1348,0.0011,533.8639,28,72,534.8614,534.8616,534.8699,,,,0,11,11,11,1,30,130,,,,,,,,
,,615a10906193d263fd02c670,65af560bac39215515c2535c,2024-01-23_08h58.02.093,bars,2023.2.3,Linux armv81,15.03759398,657b66ea316d21385b68909f,,,,,,,,,,,534.8712,535.8596,,,536.3587,536.6068,,156,156,,,,,,,,,,,,,,,,bars/004.png,bars/mask005.png,,,,,,,,,,,,0,2,,,,,,,8,10,10,10,,,,,,,,,,,535.8597,536.3587,536.6069,536.66,space,0.0452,0.0012,536.6601,49,31,537.6556,537.6558,537.666,,,,0,12,12,12,1,25,125,,,,,,,,
,,615a10906193d263fd02c670,65af560bac39215515c2535c,2024-01-23_08h58.02.093,bars,2023.2.3,Linux armv81,15.03759398,657b66ea316d21385b68909f,,,,,,,,,,,537.6677,538.6692,,,539.1677,539.4172,,22,22,,,,,,,,,,,,,,,,bars/002.png,bars/mask001.png,,,,,,,,,,,,0,2,,,,,,,6,8,7,8,,,,,,,,,,,538.6694,539.1676,539.4174,539.5405,space,0.1088,0.0011,539.5408,72,63,540.5328,540.533,540.5373,,,,0,13,13,13,1,130,85,,,,,,,,
,,615a10906193d263fd02c670,65af560bac39215515c2535c,2024-01-23_08h58.02.093,bars,2023.2.3,Linux armv81,15.03759398,657b66ea316d21385b68909f,,,,,,,,,,,540.5398,541.5292,,,542.0281,542.2768,,65,65,,,,,,,,,,,,,,,,bars/046.png,bars/mask003.png,,,,,,,,,,,,3,2,,,,,,,4,10,1,10,,,,,,,,,,,541.5298,542.028,542.2769,542.3445,space,0.0562,0.0013,542.3446,90,20,543.3416,543.342,543.3452,,,,0,14,14,14,1,155,85,,,,,,,,
,,615a10906193d263fd02c670,65af560bac39215515c2535c,2024-01-23_08h58.02.093,bars,2023.2.3,Linux armv81,15.03759398,657b66ea316d21385b68909f,,,,,,,,,,,543.3468,544.339,,,544.8382,545.0875,,70,70,,,,,,,,,,,,,,,,bars/048.png,bars/mask000.png,,,,,,,,,,,,2,1,,,,,,,6,8,7,7,,,,,,,,,,,544.3391,544.838,545.0878,545.1046,space,0.0033,0.0014,545.1048,20,75,546.1012,546.1013,546.1068,,,,0,15,15,15,1,50,175,,,,,,,,
,,615a10906193d263fd02c670,65af560bac39215515c2535c,2024-01-23_08h58.02.093,bars,2023.2.3,Linux armv81,15.03759398,657b66ea316d21385b68909f,,,,,,,,,,,546.1077,547.0996,,,547.5979,547.8477,,156,156,,,,,,,,,,,,,,,,bars/026.png,bars/mask007.png,,,,,,,,,,,,0,1,,,,,,,4,6,3,5,,,,,,,,,,,547.0999,547.5978,547.8481,547.8978,space,0.0347,0.0008,547.898,59,71,548.895,548.8951,548.8971,,,,0,16,16,16,1,35,85,,,,,,,,
,,615a10906193d263fd02c670,65af560bac39215515c2535c,2024-01-23_08h58.02.093,bars,2023.2.3,Linux armv81,15.03759398,657b66ea316d21385b68909f,,,,,,,,,,,548.8979,549.8927,,,550.392,550.6408,,46,46,,,,,,,,,,,,,,,,bars/038.png,bars/mask001.png,,,,,,,,,,,,2,2,,,,,,,6,8,6,8,,,,,,,,,,,549.8929,550.3918,550.6409,550.7425,space,0.0886,0.0014,550.7427,61,24,551.7382,551.7383,551.7438,,,,0,17,17,17,1,165,70,,,,,,,,
,,615a10906193d263fd02c670,65af560bac39215515c2535c,2024-01-23_08h58.02.093,bars,2023.2.3,Linux armv81,15.03759398,657b66ea316d21385b68909f,,,,,,,,,,,551.7447,552.7366,,,553.2344,553.4841,,159,159,,,,,,,,,,,,,,,,bars/009.png,bars/mask008.png,,,,,,,,,,,,0,1,,,,,,,8,10,6,8,,,,,,,,,,,552.7367,553.2343,553.4843,553.5347,space,0.0382,0.001,553.535,36,54,554.5319,554.5319,554.538,,,,0,18,18,18,1,15,105,,,,,,,,
,,615a10906193d263fd02c670,65af560bac39215515c2535c,2024-01-23_08h58.02.093,bars,2023.2.3,Linux armv81,15.03759398,657b66ea316d21385b68909f,,,,,,,,,,,554.539,555.5295,,,556.0281,556.2773,,5,5,,,,,,,,,,,,,,,,bars/004.png,bars/mask003.png,,,,,,,,,,,,2,1,,,,,,,6,8,6,9,,,,,,,,,,,555.5301,556.028,556.2774,556.3946,space,0.0955,0.0007,556.3949,20,60,557.3916,557.3917,557.3941,,,,0,19,19,19,1,25,125,,,,,,,,
,,615a10906193d263fd02c670,65af560bac39215515c2535c,2024-01-23_08h58.02.093,bars,2023.2.3,Linux armv81,15.03759398,657b66ea316d21385b68909f,,,,,,,,,,,557.3951,558.3897,,,558.8879,559.1378,,91,91,,,,,,,,,,,,,,,,bars/033.png,bars/mask006.png,,,,,,,,,,,,0,2,,,,,,,4,10,5,10,,,,,,,,,,,558.3913,558.8878,559.1379,559.1717,space,0.0214,0.0013,559.1726,66,64,560.1689,560.1691,560.1804,,,,0,20,20,20,1,25,155,,,,,,,,
,,615a10906193d263fd02c670,65af560bac39215515c2535c,2024-01-23_08h58.02.093,bars,2023.2.3,Linux armv81,15.03759398,657b66ea316d21385b68909f,,,,,,,,,,,560.1827,561.1826,,,561.6827,561.9305,,132,132,,,,,,,,,,,,,,,,bars/033.png,bars/mask001.png,,,,,,,,,,,,2,2,,,,,,,2,10,1,9,,,,,,,,,,,561.1827,561.6825,561.9307,561.9815,space,0.0375,0.001,561.982,73,23,562.9785,562.9786,562.9804,,,,0,21,21,21,1,25,155,,,,,,,,
,,615a10906193d263fd02c670,65af560bac39215515c2535c,2024-01-23_08h58.02.093,bars,2023.2.3,Linux armv81,15.03759398,657b66ea316d21385b68909f,,,,,,,,,,,562.9815,563.9764,,,564.477,564.7253,,117,117,,,,,,,,,,,,,,,,bars/043.png,bars/mask009.png,,,,,,,,,,,,5,2,,,,,,,4,8,4,8,,,,,,,,,,,563.9767,564.4769,564.7256,565.5065,space,0.7669,0.0011,565.5068,87,13,566.5032,566.5033,566.505,,,,0,22,22,22,1,30,130,,,,,,,,
,,615a10906193d263fd02c670,65af560bac39215515c2535c,2024-01-23_08h58.02.093,bars,2023.2.3,Linux armv81,15.03759398,657b66ea316d21385b68909f,,,,,,,,,,,566.5058,567.5013,,,568.0005,568.2495,,119,119,,,,,,,,,,,,,,,,bars/013.png,bars/mask007.png,,,,,,,,,,,,0,1,,,,,,,6,6,5,6,,,,,,,,,,,567.5015,568.0003,568.2496,568.3508,space,0.0808,0.0016,568.351,44,71,569.3475,569.3477,569.3546,,,,0,23,23,23,1,75,10,,,,,,,,
,,615a10906193d263fd02c670,65af560bac39215515c2535c,2024-01-23_08h58.02.093,bars,2023.2.3,Linux armv81,15.03759398,657b66ea316d21385b68909f,,,,,,,,,,,569.3556,570.3447,,,570.8431,571.0926,,156,156,,,,,,,,,,,,,,,,bars/049.png,bars/mask006.png,,,,,,,,,,,,2,1,,,,,,,4,8,2,10,,,,,,,,,,,570.3449,570.843,571.0927,571.1933,space,0.092,0.001,571.1937,4,41,572.19,572.1901,572.1934,,,,0,24,24,24,1,160,115,,,,,,,,
,,615a10906193d263fd02c670,65af560bac39215515c2535c,2024-01-23_08h58.02.093,bars,2023.2.3,Linux armv81,15.03759398,657b66ea316d21385b68909f,,,,,,,,,,,572.1942,573.1881,,,573.6874,573.9372,,30,30,,,,,,,,,,,,,,,,bars/036.png,bars/mask007.png,,,,,,,,,,,,7,2,,,,,,,6,10,6,10,,,,,,,,,,,573.1883,573.6872,573.9374,574.1193,space,0.1647,0.0012,574.1194,65,10,575.1169,575.117,575.1255,,,,0,25,25,25,1,145,20,,,,,,,,
,,615a10906193d263fd02c670,65af560bac39215515c2535c,2024-01-23_08h58.02.093,bars,2023.2.3,Linux armv81,15.03759398,657b66ea316d21385b68909f,,,,,,,,,,,575.127,576.1312,,,576.6305,576.8796,,71,71,,,,,,,,,,,,,,,,bars/033.png,bars/mask002.png,,,,,,,,,,,,0,1,,,,,,,4,10,4,9,,,,,,,,,,,576.1315,576.6305,576.8798,577.0456,space,0.1463,0.0011,577.0456,46,84,578.0432,578.0435,578.0517,,,,0,26,26,26,1,25,155,,,,,,,,
,,615a10906193d263fd02c670,65af560bac39215515c2535c,2024-01-23_08h58.02.093,bars,2023.2.3,Linux armv81,15.03759398,657b66ea316d21385b68909f,,,,,,,,,,,578.053,579.0414,,,579.5416,579.7893,,51,51,,,,,,,,,,,,,,,,bars/035.png,bars/mask003.png,,,,,,,,,,,,6,2,,,,,,,6,8,6,8,,,,,,,,,,,579.0417,579.5413,579.7895,580.0059,space,0.2044,0.001,580.0063,56,9,581.0027,581.0029,581.0096,,,,0,27,27,27,1,175,60,,,,,,,,
,,615a10906193d263fd02c670,65af560bac39215515c2535c,2024-01-23_08h58.02.093,bars,2023.2.3,Linux armv81,15.03759398,657b66ea316d21385b68909f,,,,,,,,,,,581.0109,582,,,582.4997,582.7488,,117,117,,,,,,,,,,,,,,,,bars/030.png,bars/mask004.png,,,,,,,,,,,,2,1,,,,,,,8,6,9,7,,,,,,,,,,,582.0002,582.4995,582.7489,582.7662,space,0.0024,0.0012,582.7664,23,52,583.7624,583.7625,583.7698,,,,0,28,28,28,1,140,65,,,,,,,,
,,615a10906193d263fd02c670,65af560bac39215515c2535c,2024-01-23_08h58.02.093,bars,2023.2.3,Linux armv81,15.03759398,657b66ea316d21385b68909f,,,,,,,,,,,583.7709,584.7607,,,585.2604,585.5086,,122,122,,,,,,,,,,,,,,,,bars/040.png,bars/mask009.png,,,,,,,,,,,,4,1,,,,,,,10,8,9,8,,,,,,,,,,,584.7609,585.2603,585.5089,585.6591,space,0.1409,0.0013,585.6592,18,63,586.6564,586.6568,586.6612,,,,0,29,29,29,1,140,5,,,,,,,,
,,615a10906193d263fd02c670,65af560bac39215515c2535c,2024-01-23_08h58.02.093,bars,2023.2.3,Linux armv81,15.03759398,657b66ea316d21385b68909f,,,,,,,,,,,586.6632,587.6546,,,588.1533,588.4032,,61,61,,,,,,,,,,,,,,,,bars/043.png,bars/mask004.png,,,,,,,,,,,,0,1,,,,,,,8,10,7,10,,,,,,,,,,,587.6547,588.153,588.4037,588.719,space,0.299,0.001,588.7195,31,69,589.7162,589.7176,589.7202,,,,0,30,30,30,1,30,130,,,,,,,,
,,615a10906193d263fd02c670,65af560bac39215515c2535c,2024-01-23_08h58.02.093,bars,2023.2.3,Linux armv81,15.03759398,657b66ea316d21385b68909f,,,,,,,,,,,589.7209,590.7136,,,591.2124,591.4615,,147,147,,,,,,,,,,,,,,,,bars/008.png,bars/mask002.png,,,,,,,,,,,,0,2,,,,,,,10,10,9,10,,,,,,,,,,,590.7138,591.2123,591.4616,591.5298,space,0.0552,0.0012,591.5301,37,33,592.5253,592.5254,592.5326,,,,0,31,31,31,1,110,0,,,,,,,,
,,615a10906193d263fd02c670,65af560bac39215515c2535c,2024-01-23_08h58.02.093,bars,2023.2.3,Linux armv81,15.03759398,657b66ea316d21385b68909f,,,,,,,,,,,592.5335,593.5231,,,594.0223,594.2715,,108,108,,,,,,,,,,,,,,,,bars/020.png,bars/mask003.png,,,,,,,,,,,,8,1,,,,,,,10,10,10,8,,,,,,,,,,,593.5232,594.0222,594.2716,594.4886,space,0.1997,0.0012,594.489,7,62,595.4852,595.4854,595.493,,,,0,32,32,32,1,115,170,,,,,,,,
,,615a10906193d263fd02c670,65af560bac39215515c2535c,2024-01-23_08h58.02.093,bars,2023.2.3,Linux armv81,15.03759398,657b66ea316d21385b68909f,,,,,,,,,,,595.4943,596.4838,,,596.9834,597.2312,,46,46,,,,,,,,,,,,,,,,bars/044.png,bars/mask000.png,,,,,,,,,,,,0,1,,,,,,,8,8,7,10,,,,,,,,,,,596.484,596.9832,597.2315,597.3975,space,0.1459,0.001,597.3976,29,71,598.3947,598.3948,598.397,,,,0,33,33,33,1,75,155,,,,,,,,
,,615a10906193d263fd02c670,65af560bac39215515c2535c,2024-01-23_08h58.02.093,bars,2023.2.3,Linux armv81,15.03759398,657b66ea316d21385b68909f,,,,,,,,,,,598.3979,599.3927,,,599.8921,600.1423,,119,119,,,,,,,,,,,,,,,,bars/003.png,bars/mask004.png,,,,,,,,,,,,2,2,,,,,,,6,6,8,6,,,,,,,,,,,599.3929,599.892,600.1425,600.1638,space,0.0036,0.0021,600.164,86,21,601.1548,601.1549,601.1601,,,,0,34,34,34,1,25,140,,,,,,,,
,,615a10906193d263fd02c670,65af560bac39215515c2535c,2024-01-23_08h58.02.093,bars,2023.2.3,Linux armv81,15.03759398,657b66ea316d21385b68909f,,,,,,,,,,,601.1613,602.1528,,,602.6525,602.901,,85,85,,,,,,,,,,,,,,,,bars/015.png,bars/mask000.png,,,,,,,,,,,,0,1,,,,,,,4,8,3,9,,,,,,,,,,,602.1529,602.6523,602.901,603.0858,space,0.1678,0.0014,603.0863,25,75,604.0815,604.0817,604.0874,,,,0,35,35,35,1,110,160,,,,,,,,
,,615a10906193d263fd02c670,65af560bac39215515c2535c,2024-01-23_08h58.02.093,bars,2023.2.3,Linux armv81,15.03759398,657b66ea316d21385b68909f,,,,,,,,,,,604.0882,605.0793,,,605.5788,605.8291,,87,87,,,,,,,,,,,,,,,,bars/049.png,bars/mask006.png,,,,,,,,,,,,0,2,,,,,,,6,6,8,5,,,,,,,,,,,605.0795,605.5785,605.8305,605.9776,space,0.1284,0.0008,605.9779,73,28,606.9742,606.9744,606.981,,,,0,36,36,36,1,160,115,,,,,,,,
,,615a10906193d263fd02c670,65af560bac39215515c2535c,2024-01-23_08h58.02.093,bars,2023.2.3,Linux armv81,15.03759398,657b66ea316d21385b68909f,,,,,,,,,,,606.9819,607.972,,,608.4713,608.7209,,46,46,,,,,,,,,,,,,,,,bars/025.png,bars/mask004.png,,,,,,,,,,,,8,2,,,,,,,4,8,4,10,,,,,,,,,,,607.9722,608.4712,608.721,608.8879,space,0.145,0.0012,608.8882,59,6,609.8845,609.8845,609.8865,,,,0,37,37,37,1,105,40,,,,,,,,
,,615a10906193d263fd02c670,65af560bac39215515c2535c,2024-01-23_08h58.02.093,bars,2023.2.3,Linux armv81,15.03759398,657b66ea316d21385b68909f,,,,,,,,,,,609.8874,610.8824,,,611.3825,611.6307,,81,81,,,,,,,,,,,,,,,,bars/041.png,bars/mask006.png,,,,,,,,,,,,4,2,,,,,,,2,6,3,5,,,,,,,,,,,610.8825,611.3823,611.6308,611.7638,space,0.1208,0.0012,611.7639,61,4,612.7608,612.7609,612.7628,,,,0,38,38,38,1,20,85,,,,,,,,
,,615a10906193d263fd02c670,65af560bac39215515c2535c,2024-01-23_08h58.02.093,bars,2023.2.3,Linux armv81,15.03759398,657b66ea316d21385b68909f,,,,,,,,,,,612.7636,613.7591,,,614.2575,614.5066,,69,69,,,,,,,,,,,,,,,,bars/004.png,bars/mask005.png,,,,,,,,,,,,0,1,,,,,,,0,4,0,3,,,,,,,,,,,613.7592,614.2575,614.5068,614.6572,space,0.1298,0.0012,614.6574,44,56,615.654,615.6541,615.6594,,,,0,39,39,39,1,25,125,,,,,,,,
,,615a10906193d263fd02c670,65af560bac39215515c2535c,2024-01-23_08h58.02.093,bars,2023.2.3,Linux armv81,15.03759398,657b66ea316d21385b68909f,,,,,,,,,,,615.6602,616.652,,,617.1502,617.4,,59,59,,,,,,,,,,,,,,,,bars/005.png,bars/mask007.png,,,,,,,,,,,,0,1,,,,,,,2,2,1,2,,,,,,,,,,,616.6521,617.15,617.4002,617.5676,space,0.1534,0.0012,617.5678,49,81,618.5643,618.5646,618.5673,,,,0,40,40,40,1,10,140,,,,,,,,
,,615a10906193d263fd02c670,65af560bac39215515c2535c,2024-01-23_08h58.02.093,bars,2023.2.3,Linux armv81,15.03759398,657b66ea316d21385b68909f,,,,,,,,,,,618.5682,619.5615,,,620.0608,620.3106,,161,161,,,,,,,,,,,,,,,,bars/039.png,bars/mask004.png,,,,,,,,,,,,2,1,,,,,,,4,4,4,3,,,,,,,,,,,619.5616,620.0607,620.3108,620.5109,space,0.1873,0.0013,620.5111,14,56,621.5069,621.5069,621.5096,,,,0,41,41,41,1,175,105,,,,,,,,
,,615a10906193d263fd02c670,65af560bac39215515c2535c,2024-01-23_08h58.02.093,bars,2023.2.3,Linux armv81,15.03759398,657b66ea316d21385b68909f,,,,,,,,,,,621.5107,622.5044,,,623.0036,623.2535,,112,112,,,,,,,,,,,,,,,,bars/011.png,bars/mask005.png,,,,,,,,,,,,0,2,,,,,,,2,6,3,5,,,,,,,,,,,622.5045,623.0036,623.2535,623.3546,space,0.0899,0.001,623.355,48,27,624.3508,624.351,624.3586,,,,0,42,42,42,1,160,85,,,,,,,,
,,615a10906193d263fd02c670,65af560bac39215515c2535c,2024-01-23_08h58.02.093,bars,2023.2.3,Linux armv81,15.03759398,657b66ea316d21385b68909f,,,,,,,,,,,624.3597,625.3481,,,625.8473,626.0965,,79,79,,,,,,,,,,,,,,,,bars/010.png,bars/mask004.png,,,,,,,,,,,,1,2,,,,,,,0,4,0,3,,,,,,,,,,,625.3483,625.8472,626.0969,626.1644,space,0.053,0.0013,626.1645,86,24,627.1614,627.1616,627.1637,,,,0,43,43,43,1,165,55,,,,,,,,
,,615a10906193d263fd02c670,65af560bac39215515c2535c,2024-01-23_08h58.02.093,bars,2023.2.3,Linux armv81,15.03759398,657b66ea316d21385b68909f,,,,,,,,,,,627.1646,628.1587,,,628.6573,628.9063,,90,90,,,,,,,,,,,,,,,,bars/029.png,bars/mask002.png,,,,,,,,,,,,0,1,,,,,,,2,2,0,2,,,,,,,,,,,628.1587,628.6572,628.9064,628.9905,space,0.0643,0.0012,628.9908,0,45,629.9881,629.9884,630,,,,0,44,44,44,1,90,45,,,,,,,,
,,615a10906193d263fd02c670,65af560bac39215515c2535c,2024-01-23_08h58.02.093,bars,2023.2.3,Linux armv81,15.03759398,657b66ea316d21385b68909f,,,,,,,,,,,630.0018,631.0013,,,631.5005,631.75,,50,50,,,,,,,,,,,,,,,,bars/033.png,bars/mask001.png,,,,,,,,,,,,1,1,,,,,,,4,0,5,1,,,,,,,,,,,631.0014,631.5004,631.7503,631.7681,space,0.0025,0.0009,631.7683,25,75,632.7642,632.7644,632.7681,,,,0,45,45,45,1,25,155,,,,,,,,
,,615a10906193d263fd02c670,65af560bac39215515c2535c,2024-01-23_08h58.02.093,bars,2023.2.3,Linux armv81,15.03759398,657b66ea316d21385b68909f,,,,,,,,,,,632.7699,633.7619,,,634.2606,634.5173,,54,54,,,,,,,,,,,,,,,,bars/039.png,bars/mask002.png,,,,,,,,,,,,0,2,,,,,,,2,0,2,1,,,,,,,,,,,633.7621,634.2605,634.5175,634.5968,space,0.0683,0.0015,634.5972,59,51,635.591,635.5912,635.6003,,,,0,46,46,46,1,175,105,,,,,,,,
,,615a10906193d263fd02c670,65af560bac39215515c2535c,2024-01-23_08h58.02.093,bars,2023.2.3,Linux armv81,15.03759398,657b66ea316d21385b68909f,,,,,,,,,,,635.6016,636.6051,,,637.107,637.3531,,127,127,,,,,,,,,,,,,,,,bars/041.png,bars/mask004.png,,,,,,,,,,,,0,2,,,,,,,0,2,1,2,,,,,,,,,,,636.6052,637.1069,637.3531,637.4708,space,0.1103,0.0008,637.471,73,42,638.4691,638.4701,638.4743,,,,0,47,47,47,1,20,85,,,,,,,,
,,615a10906193d263fd02c670,65af560bac39215515c2535c,2024-01-23_08h58.02.093,bars,2023.2.3,Linux armv81,15.03759398,657b66ea316d21385b68909f,,,,,,,,,,,638.4759,639.4648,,,639.964,640.2132,,123,123,,,,,,,,,,,,,,,,bars/047.png,bars/mask003.png,,,,,,,,,,,,0,2,,,,,,,2,0,2,0,,,,,,,,,,,639.4649,639.9637,640.2133,640.2475,space,0.0186,0.0013,640.2479,72,53,641.2442,641.2443,641.2465,,,,0,48,48,48,1,15,70,,,,,,,,
,,615a10906193d263fd02c670,65af560bac39215515c2535c,2024-01-23_08h58.02.093,bars,2023.2.3,Linux armv81,15.03759398,657b66ea316d21385b68909f,,,,,,,,,,,641.2473,642.2415,,,642.7412,643,,18,18,,,,,,,,,,,,,,,,bars/023.png,bars/mask003.png,,,,,,,,,,,,4,1,,,,,,,4,0,4,0,,,,,,,,,,,642.2416,642.741,643.0001,643.1899,space,0.1646,0.001,643.1901,2,83,644.187,644.1873,644.1942,,,,0,49,49,49,1,20,115,,,,,,,,
,,615a10906193d263fd02c670,65af560bac39215515c2535c,2024-01-23_08h58.02.093,bars,2023.2.3,Linux armv81,15.03759398,657b66ea316d21385b68909f,,,,,,,,,,,,,,,,,,,,,,,,,,,,,,,,,,,,,,,,,,,,,,,,,,,,,,,,,,,,,,,,,,,,,,,,,,,,,,,,,,,,,,,,,,,,,644.1945,704.1968,0,2,2,1,1,sequence_tables/blk001.csv
,,615a10906193d263fd02c670,65af560bac39215515c2535c,2024-01-23_08h58.02.093,bars,2023.2.3,Linux armv81,15.03759398,657b66ea316d21385b68909f,,,,,,,,,,,708.284,709.2738,,,709.7662,710.015,,51,51,,,,,,,,,,,,,,,,bars/012.png,bars/mask004.png,,,,,,,,,,,,0,2,,,,,,,8,2,9,1,,,,,,704.2323,708.2651,space,4.0234,0.001,709.2739,709.7661,710.0152,710.0568,space,0.0276,0.0007,710.0569,39,36,711.0555,711.0556,711.0602,,,,0,0,0,0,1,90,15,,,,,,,,
,,615a10906193d263fd02c670,65af560bac39215515c2535c,2024-01-23_08h58.02.093,bars,2023.2.3,Linux armv81,15.03759398,657b66ea316d21385b68909f,,,,,,,,,,,711.061,712.0544,,,712.5432,712.7837,,100,100,,,,,,,,,,,,,,,,bars/026.png,bars/mask000.png,,,,,,,,,,,,2,2,,,,,,,6,4,6,4,,,,,,,,,,,712.0546,712.543,712.784,712.8395,space,0.0466,0.0016,712.8397,65,15,713.8399,713.8399,713.8419,,,,0,1,1,1,1,35,85,,,,,,,,
,,615a10906193d263fd02c670,65af560bac39215515c2535c,2024-01-23_08h58.02.093,bars,2023.2.3,Linux armv81,15.03759398,657b66ea316d21385b68909f,,,,,,,,,,,713.8428,714.8372,,,715.3361,715.5857,,18,18,,,,,,,,,,,,,,,,bars/034.png,bars/mask003.png,,,,,,,,,,,,0,2,,,,,,,8,2,8,2,,,,,,,,,,,714.8373,715.3361,715.5858,715.6032,space,0.0031,0.0014,715.6036,73,47,716.6007,716.6008,716.6067,,,,0,2,2,2,1,125,65,,,,,,,,
,,615a10906193d263fd02c670,65af560bac39215515c2535c,2024-01-23_08h58.02.093,bars,2023.2.3,Linux armv81,15.03759398,657b66ea316d21385b68909f,,,,,,,,,,,716.6084,717.5975,,,718.0961,718.3455,,73,73,,,,,,,,,,,,,,,,bars/028.png,bars/mask004.png,,,,,,,,,,,,0,1,,,,,,,6,4,5,5,,,,,,,,,,,717.5977,718.096,718.3456,718.413,space,0.0601,0.001,718.4131,28,47,719.4096,719.4096,719.4149,,,,0,3,3,3,1,45,120,,,,,,,,
,,615a10906193d263fd02c670,65af560bac39215515c2535c,2024-01-23_08h58.02.093,bars,2023.2.3,Linux armv81,15.03759398,657b66ea316d21385b68909f,,,,,,,,,,,719.4158,720.4082,,,720.9068,721.156,,133,133,,,,,,,,,,,,,,,,bars/023.png,bars/mask004.png,,,,,,,,,,,,0,2,,,,,,,4,2,5,1,,,,,,,,,,,720.4083,720.9067,721.1561,721.2474,space,0.0833,0.001,721.2476,67,18,722.2365,722.2367,722.2453,,,,0,4,4,4,1,20,115,,,,,,,,
,,615a10906193d263fd02c670,65af560bac39215515c2535c,2024-01-23_08h58.02.093,bars,2023.2.3,Linux armv81,15.03759398,657b66ea316d21385b68909f,,,,,,,,,,,722.246,723.2349,,,723.7334,723.9821,,45,45,,,,,,,,,,,,,,,,bars/017.png,bars/mask000.png,,,,,,,,,,,,2,2,,,,,,,2,0,3,2,,,,,,,,,,,723.2351,723.7333,723.9822,724.0494,space,0.0485,0.0006,724.0505,80,0,725.0471,725.0472,725.0493,,,,0,5,5,5,1,145,45,,,,,,,,
,,615a10906193d263fd02c670,65af560bac39215515c2535c,2024-01-23_08h58.02.093,bars,2023.2.3,Linux armv81,15.03759398,657b66ea316d21385b68909f,,,,,,,,,,,725.0503,726.0441,,,726.5435,726.7928,,105,105,,,,,,,,,,,,,,,,bars/049.png,bars/mask009.png,,,,,,,,,,,,2,2,,,,,,,0,2,1,3,,,,,,,,,,,726.0442,726.5434,726.793,726.9921,space,0.1806,0.0016,726.9922,55,10,727.9894,727.9894,727.9916,,,,0,6,6,6,1,160,115,,,,,,,,
,,615a10906193d263fd02c670,65af560bac39215515c2535c,2024-01-23_08h58.02.093,bars,2023.2.3,Linux armv81,15.03759398,657b66ea316d21385b68909f,,,,,,,,,,,727.9924,728.9876,,,729.4859,729.736,,151,151,,,,,,,,,,,,,,,,bars/023.png,bars/mask007.png,,,,,,,,,,,,0,2,,,,,,,2,0,2,0,,,,,,,,,,,728.9877,729.4858,729.7362,729.7533,space,0.0025,0.0009,729.7537,49,36,730.7497,730.7498,730.7517,,,,0,7,7,7,1,20,115,,,,,,,,
,,615a10906193d263fd02c670,65af560bac39215515c2535c,2024-01-23_08h58.02.093,bars,2023.2.3,Linux armv81,15.03759398,657b66ea316d21385b68909f,,,,,,,,,,,730.7524,731.7473,,,732.2468,732.4961,,171,171,,,,,,,,,,,,,,,,bars/037.png,bars/mask007.png,,,,,,,,,,,,0,1,,,,,,,0,2,0,2,,,,,,,,,,,731.7473,732.2466,732.4964,732.7626,space,0.2522,0.0011,732.763,21,66,733.7594,733.7595,733.765,,,,0,8,8,8,1,150,105,,,,,,,,
,,615a10906193d263fd02c670,65af560bac39215515c2535c,2024-01-23_08h58.02.093,bars,2023.2.3,Linux armv81,15.03759398,657b66ea316d21385b68909f,,,,,,,,,,,733.766,734.7577,,,735.2572,735.5061,,68,68,,,,,,,,,,,,,,,,bars/007.png,bars/mask002.png,,,,,,,,,,,,2,2,,,,,,,0,4,0,4,,,,,,,,,,,734.7585,735.2571,735.5065,735.5737,space,0.0494,0.0013,735.5742,73,13,736.5703,736.5705,736.5777,,,,0,9,9,9,1,175,55,,,,,,,,
,,615a10906193d263fd02c670,65af560bac39215515c2535c,2024-01-23_08h58.02.093,bars,2023.2.3,Linux armv81,15.03759398,657b66ea316d21385b68909f,,,,,,,,,,,736.5788,737.5673,,,738.0664,738.316,,17,17,,,,,,,,,,,,,,,,bars/040.png,bars/mask005.png,,,,,,,,,,,,3,2,,,,,,,0,6,3,5,,,,,,,,,,,737.5675,738.0663,738.3162,738.3332,space,0.0023,0.0009,738.3337,57,12,739.3303,739.3304,739.3337,,,,0,10,10,10,1,140,5,,,,,,,,
,,615a10906193d263fd02c670,65af560bac39215515c2535c,2024-01-23_08h58.02.093,bars,2023.2.3,Linux armv81,15.03759398,657b66ea316d21385b68909f,,,,,,,,,,,739.3352,740.3275,,,740.8269,741.0766,,57,57,,,,,,,,,,,,,,,,bars/010.png,bars/mask004.png,,,,,,,,,,,,5,2,,,,,,,2,4,3,5,,,,,,,,,,,740.3275,740.8268,741.0768,741.2767,space,0.1841,0.0005,741.2771,72,2,742.2741,742.2744,742.2776,,,,0,11,11,11,1,165,55,,,,,,,,
,,615a10906193d263fd02c670,65af560bac39215515c2535c,2024-01-23_08h58.02.093,bars,2023.2.3,Linux armv81,15.03759398,657b66ea316d21385b68909f,,,,,,,,,,,742.2792,743.2708,,,743.7693,744.0201,,176,176,,,,,,,,,,,,,,,,bars/010.png,bars/mask004.png,,,,,,,,,,,,0,1,,,,,,,0,6,0,5,,,,,,,,,,,743.2709,743.7692,744.0203,744.0711,space,0.038,0.0011,744.0714,11,59,745.0669,745.0672,745.0731,,,,0,12,12,12,1,165,55,,,,,,,,
,,615a10906193d263fd02c670,65af560bac39215515c2535c,2024-01-23_08h58.02.093,bars,2023.2.3,Linux armv81,15.03759398,657b66ea316d21385b68909f,,,,,,,,,,,745.0741,746.0641,,,746.5636,746.8135,,107,107,,,,,,,,,,,,,,,,bars/006.png,bars/mask006.png,,,,,,,,,,,,3,2,,,,,,,2,4,2,4,,,,,,,,,,,746.0642,746.5634,746.8137,747.029,space,0.1991,0.0012,747.0294,72,7,748.0269,748.0274,748.034,,,,0,13,13,13,1,35,100,,,,,,,,
,,615a10906193d263fd02c670,65af560bac39215515c2535c,2024-01-23_08h58.02.093,bars,2023.2.3,Linux armv81,15.03759398,657b66ea316d21385b68909f,,,,,,,,,,,748.0352,749.0241,,,749.5226,749.7725,,65,65,,,,,,,,,,,,,,,,bars/036.png,bars/mask003.png,,,,,,,,,,,,0,2,,,,,,,0,6,0,6,,,,,,,,,,,749.0242,749.5225,749.7729,750.0557,space,0.2698,0.0013,750.0559,80,45,751.053,751.0531,751.0555,,,,0,14,14,14,1,145,20,,,,,,,,
,,615a10906193d263fd02c670,65af560bac39215515c2535c,2024-01-23_08h58.02.093,bars,2023.2.3,Linux armv81,15.03759398,657b66ea316d21385b68909f,,,,,,,,,,,751.0563,752.0502,,,752.549,752.7995,,100,100,,,,,,,,,,,,,,,,bars/044.png,bars/mask006.png,,,,,,,,,,,,0,1,,,,,,,2,8,1,8,,,,,,,,,,,752.0503,752.5488,752.7999,752.9995,space,0.186,0.0014,752.9998,25,55,753.9952,753.9953,754.0002,,,,0,15,15,15,1,75,155,,,,,,,,
,,615a10906193d263fd02c670,65af560bac39215515c2535c,2024-01-23_08h58.02.093,bars,2023.2.3,Linux armv81,15.03759398,657b66ea316d21385b68909f,,,,,,,,,,,754.001,754.993,,,755.4928,755.7415,,75,75,,,,,,,,,,,,,,,,bars/041.png,bars/mask004.png,,,,,,,,,,,,6,2,,,,,,,0,10,0,9,,,,,,,,,,,754.9931,755.4926,755.7417,755.9251,space,0.168,0.001,755.9255,55,10,756.9233,756.9235,756.9327,,,,0,16,16,16,1,20,85,,,,,,,,
,,615a10906193d263fd02c670,65af560bac39215515c2535c,2024-01-23_08h58.02.093,bars,2023.2.3,Linux armv81,15.03759398,657b66ea316d21385b68909f,,,,,,,,,,,756.9341,757.9364,,,758.4351,758.6845,,130,130,,,,,,,,,,,,,,,,bars/040.png,bars/mask000.png,,,,,,,,,,,,0,1,,,,,,,0,10,0,10,,,,,,,,,,,757.9364,758.435,758.6847,758.7846,space,0.0842,0.0011,758.7848,10,55,759.7824,759.7826,759.7924,,,,0,17,17,17,1,140,5,,,,,,,,
,,615a10906193d263fd02c670,65af560bac39215515c2535c,2024-01-23_08h58.02.093,bars,2023.2.3,Linux armv81,15.03759398,657b66ea316d21385b68909f,,,,,,,,,,,759.7938,760.7957,,,761.2951,761.5448,,110,110,,,,,,,,,,,,,,,,bars/018.png,bars/mask000.png,,,,,,,,,,,,3,2,,,,,,,0,10,0,9,,,,,,,,,,,760.7957,761.2949,761.545,761.5951,space,0.035,0.0014,761.5955,40,20,762.5918,762.592,762.5983,,,,0,18,18,18,1,150,90,,,,,,,,
,,615a10906193d263fd02c670,65af560bac39215515c2535c,2024-01-23_08h58.02.093,bars,2023.2.3,Linux armv81,15.03759398,657b66ea316d21385b68909f,,,,,,,,,,,762.5991,763.5896,,,764.0905,764.3381,,118,118,,,,,,,,,,,,,,,,bars/020.png,bars/mask005.png,,,,,,,,,,,,2,1,,,,,,,2,8,2,8,,,,,,,,,,,763.5898,764.0903,764.3387,764.4544,space,0.1053,0.0012,764.4545,3,52,765.4518,765.4519,765.4582,,,,0,19,19,19,1,115,170,,,,,,,,
,,615a10906193d263fd02c670,65af560bac39215515c2535c,2024-01-23_08h58.02.093,bars,2023.2.3,Linux armv81,15.03759398,657b66ea316d21385b68909f,,,,,,,,,,,765.4594,766.4495,,,766.9489,767.1983,,88,88,,,,,,,,,,,,,,,,bars/019.png,bars/mask006.png,,,,,,,,,,,,3,2,,,,,,,0,6,1,6,,,,,,,,,,,766.4496,766.9487,767.1985,767.3644,space,0.1509,0.0013,767.3647,43,17,768.3617,768.3619,768.3696,,,,0,20,20,20,1,45,105,,,,,,,,
,,615a10906193d263fd02c670,65af560bac39215515c2535c,2024-01-23_08h58.02.093,bars,2023.2.3,Linux armv81,15.03759398,657b66ea316d21385b68909f,,,,,,,,,,,768.3708,769.3596,,,769.8589,770.1079,,157,157,,,,,,,,,,,,,,,,bars/044.png,bars/mask000.png,,,,,,,,,,,,5,2,,,,,,,2,8,2,5,,,,,,,,,,,769.3598,769.8587,770.108,770.1587,space,0.0312,0.0012,770.1592,82,2,771.1552,771.1554,771.1579,,,,0,21,21,21,1,75,155,,,,,,,,
,,615a10906193d263fd02c670,65af560bac39215515c2535c,2024-01-23_08h58.02.093,bars,2023.2.3,Linux armv81,15.03759398,657b66ea316d21385b68909f,,,,,,,,,,,771.1591,772.1526,,,772.6524,772.9021,,165,165,,,,,,,,,,,,,,,,bars/048.png,bars/mask008.png,,,,,,,,,,,,5,2,,,,,,,4,6,4,7,,,,,,,,,,,772.1527,772.6521,772.9023,773.7833,space,0.8613,0.0013,773.7838,65,10,774.7817,774.782,774.7869,,,,0,22,22,22,1,50,175,,,,,,,,
,,615a10906193d263fd02c670,65af560bac39215515c2535c,2024-01-23_08h58.02.093,bars,2023.2.3,Linux armv81,15.03759398,657b66ea316d21385b68909f,,,,,,,,,,,774.7885,775.7774,,,776.2779,776.5254,,25,25,,,,,,,,,,,,,,,,bars/042.png,bars/mask000.png,,,,,,,,,,,,0,2,,,,,,,2,4,3,4,,,,,,,,,,,775.7776,776.2778,776.5255,776.6257,space,0.0881,0.0013,776.6259,60,50,777.6234,777.6236,777.6252,,,,0,23,23,23,1,145,75,,,,,,,,
,,615a10906193d263fd02c670,65af560bac39215515c2535c,2024-01-23_08h58.02.093,bars,2023.2.3,Linux armv81,15.03759398,657b66ea316d21385b68909f,,,,,,,,,,,777.6259,778.621,,,779.1204,779.3694,,9,9,,,,,,,,,,,,,,,,bars/020.png,bars/mask002.png,,,,,,,,,,,,1,2,,,,,,,0,2,1,3,,,,,,,,,,,778.6213,779.1202,779.3695,779.5603,space,0.1797,0.0011,779.5605,74,19,780.5498,780.55,780.5536,,,,0,24,24,24,1,115,170,,,,,,,,
,,615a10906193d263fd02c670,65af560bac39215515c2535c,2024-01-23_08h58.02.093,bars,2023.2.3,Linux armv81,15.03759398,657b66ea316d21385b68909f,,,,,,,,,,,780.5554,781.5471,,,782.0464,782.296,,139,139,,,,,,,,,,,,,,,,bars/032.png,bars/mask008.png,,,,,,,,,,,,1,1,,,,,,,0,0,2,0,,,,,,,,,,,781.5472,782.0463,782.2962,782.3623,space,0.0518,0.0012,782.3625,14,61,783.3603,783.3605,783.3717,,,,0,25,25,25,1,125,20,,,,,,,,
,,615a10906193d263fd02c670,65af560bac39215515c2535c,2024-01-23_08h58.02.093,bars,2023.2.3,Linux armv81,15.03759398,657b66ea316d21385b68909f,,,,,,,,,,,783.3726,784.3734,,,784.873,785.1221,,93,93,,,,,,,,,,,,,,,,bars/022.png,bars/mask001.png,,,,,,,,,,,,1,1,,,,,,,2,0,1,0,,,,,,,,,,,784.3735,784.8729,785.1223,785.3381,space,0.1955,0.0014,785.3382,2,73,786.3367,786.3369,786.3396,,,,0,26,26,26,1,95,20,,,,,,,,
,,615a10906193d263fd02c670,65af560bac39215515c2535c,2024-01-23_08h58.02.093,bars,2023.2.3,Linux armv81,15.03759398,657b66ea316d21385b68909f,,,,,,,,,,,786.341,787.3333,,,787.832,788.0814,,106,106,,,,,,,,,,,,,,,,bars/000.png,bars/mask000.png,,,,,,,,,,,,0,2,,,,,,,0,2,0,2,,,,,,,,,,,787.3337,787.8319,788.0815,788.1491,space,0.0526,0.0018,788.1493,66,39,789.1483,789.1488,789.1598,,,,0,27,27,27,1,40,145,,,,,,,,
,,615a10906193d263fd02c670,65af560bac39215515c2535c,2024-01-23_08h58.02.093,bars,2023.2.3,Linux armv81,15.03759398,657b66ea316d21385b68909f,,,,,,,,,,,789.1619,790.1609,,,790.6664,790.91,,114,114,,,,,,,,,,,,,,,,bars/049.png,bars/mask003.png,,,,,,,,,,,,1,2,,,,,,,0,0,0,1,,,,,,,,,,,790.1613,790.6662,790.9102,791.1615,space,0.2378,0.0011,791.1617,46,1,792.1568,792.1571,792.1611,,,,0,28,28,28,1,160,115,,,,,,,,
,,615a10906193d263fd02c670,65af560bac39215515c2535c,2024-01-23_08h58.02.093,bars,2023.2.3,Linux armv81,15.03759398,657b66ea316d21385b68909f,,,,,,,,,,,792.163,793.1537,,,793.6534,793.9025,,68,68,,,,,,,,,,,,,,,,bars/038.png,bars/mask009.png,,,,,,,,,,,,0,2,,,,,,,2,0,2,0,,,,,,,,,,,793.154,793.6527,793.9027,795.7304,space,1.8088,0.0007,795.7305,83,2,796.728,796.728,796.7478,,,,0,29,29,29,1,165,70,,,,,,,,
,,615a10906193d263fd02c670,65af560bac39215515c2535c,2024-01-23_08h58.02.093,bars,2023.2.3,Linux armv81,15.03759398,657b66ea316d21385b68909f,,,,,,,,,,,796.7487,797.7427,,,798.2415,798.4909,,124,124,,,,,,,,,,,,,,,,bars/022.png,bars/mask000.png,,,,,,,,,,,,0,1,,,,,,,0,2,0,2,,,,,,,,,,,797.7433,798.2414,798.4914,798.7075,space,0.2022,0.0009,798.7079,29,76,799.7043,799.7044,799.7097,,,,0,30,30,30,1,95,20,,,,,,,,
,,615a10906193d263fd02c670,65af560bac39215515c2535c,2024-01-23_08h58.02.093,bars,2023.2.3,Linux armv81,15.03759398,657b66ea316d21385b68909f,,,,,,,,,,,799.7106,800.7024,,,801.2029,801.4507,,48,48,,,,,,,,,,,,,,,,bars/000.png,bars/mask005.png,,,,,,,,,,,,1,1,,,,,,,2,0,1,0,,,,,,,,,,,800.7027,801.2028,801.4509,801.6169,space,0.1464,0.0011,801.617,8,83,802.6145,802.6147,802.6179,,,,0,31,31,31,1,40,145,,,,,,,,
,,615a10906193d263fd02c670,65af560bac39215515c2535c,2024-01-23_08h58.02.093,bars,2023.2.3,Linux armv81,15.03759398,657b66ea316d21385b68909f,,,,,,,,,,,802.6195,803.6118,,,804.1104,804.3604,,135,135,,,,,,,,,,,,,,,,bars/007.png,bars/mask000.png,,,,,,,,,,,,0,1,,,,,,,4,2,5,2,,,,,,,,,,,803.6119,804.1103,804.3606,804.3779,space,0.0024,0.0011,804.3782,40,80,805.3752,805.3754,805.381,,,,0,32,32,32,1,175,55,,,,,,,,
,,615a10906193d263fd02c670,65af560bac39215515c2535c,2024-01-23_08h58.02.093,bars,2023.2.3,Linux armv81,15.03759398,657b66ea316d21385b68909f,,,,,,,,,,,805.3826,806.3723,,,806.8714,807.1202,,178,178,,,,,,,,,,,,,,,,bars/023.png,bars/mask001.png,,,,,,,,,,,,1,1,,,,,,,2,0,3,1,,,,,,,,,,,806.3725,806.8712,807.1204,807.237,space,0.1057,0.0008,807.2377,22,63,808.2349,808.235,808.2397,,,,0,33,33,33,1,20,115,,,,,,,,
,,615a10906193d263fd02c670,65af560bac39215515c2535c,2024-01-23_08h58.02.093,bars,2023.2.3,Linux armv81,15.03759398,657b66ea316d21385b68909f,,,,,,,,,,,808.2413,809.2349,,,809.7323,809.9806,,142,142,,,,,,,,,,,,,,,,bars/042.png,bars/mask002.png,,,,,,,,,,,,0,1,,,,,,,0,0,0,0,,,,,,,,,,,809.2352,809.7322,809.9807,810.2635,space,0.2656,0.0008,810.2638,3,67,811.2607,811.2608,811.2636,,,,0,34,34,34,1,145,75,,,,,,,,
,,615a10906193d263fd02c670,65af560bac39215515c2535c,2024-01-23_08h58.02.093,bars,2023.2.3,Linux armv81,15.03759398,657b66ea316d21385b68909f,,,,,,,,,,,811.2644,812.2601,,,812.757,813.0065,,6,6,,,,,,,,,,,,,,,,bars/031.png,bars/mask002.png,,,,,,,,,,,,0,2,,,,,,,0,2,1,1,,,,,,,,,,,812.2603,812.7569,813.0066,813.09,space,0.0622,0.001,813.0903,66,29,814.0878,814.088,814.0949,,,,0,35,35,35,1,120,35,,,,,,,,
,,615a10906193d263fd02c670,65af560bac39215515c2535c,2024-01-23_08h58.02.093,bars,2023.2.3,Linux armv81,15.03759398,657b66ea316d21385b68909f,,,,,,,,,,,814.096,815.0845,,,815.5837,815.8331,,156,156,,,,,,,,,,,,,,,,bars/039.png,bars/mask006.png,,,,,,,,,,,,0,1,,,,,,,0,0,0,0,,,,,,,,,,,815.0846,815.5836,815.8333,815.8683,space,0.0227,0.001,815.8685,19,51,816.864,816.864,816.8691,,,,0,36,36,36,1,175,105,,,,,,,,
,,615a10906193d263fd02c670,65af560bac39215515c2535c,2024-01-23_08h58.02.093,bars,2023.2.3,Linux armv81,15.03759398,657b66ea316d21385b68909f,,,,,,,,,,,816.8699,817.8617,,,818.3606,818.6102,,170,170,,,,,,,,,,,,,,,,bars/009.png,bars/mask006.png,,,,,,,,,,,,0,1,,,,,,,0,0,0,0,,,,,,,,,,,817.8617,818.3605,818.6103,818.6269,space,0.0023,0.0012,818.6271,25,65,819.6238,819.6239,819.6257,,,,0,37,37,37,1,15,105,,,,,,,,
,,615a10906193d263fd02c670,65af560bac39215515c2535c,2024-01-23_08h58.02.093,bars,2023.2.3,Linux armv81,15.03759398,657b66ea316d21385b68909f,,,,,,,,,,,819.6266,820.6217,,,821.1209,821.3711,,18,18,,,,,,,,,,,,,,,,bars/025.png,bars/mask001.png,,,,,,,,,,,,0,2,,,,,,,0,0,0,1,,,,,,,,,,,820.6218,821.1207,821.3713,821.5878,space,0.2059,0.0009,821.588,87,22,822.5847,822.5849,822.5905,,,,0,38,38,38,1,105,40,,,,,,,,
,,615a10906193d263fd02c670,65af560bac39215515c2535c,2024-01-23_08h58.02.093,bars,2023.2.3,Linux armv81,15.03759398,657b66ea316d21385b68909f,,,,,,,,,,,822.5914,823.5812,,,824.0813,824.3293,,108,108,,,,,,,,,,,,,,,,bars/046.png,bars/mask002.png,,,,,,,,,,,,0,2,,,,,,,2,0,3,0,,,,,,,,,,,823.5813,824.0807,824.3294,824.4645,space,0.1202,0.0014,824.4659,47,23,825.4611,825.4612,825.4641,,,,0,39,39,39,1,155,85,,,,,,,,
,,615a10906193d263fd02c670,65af560bac39215515c2535c,2024-01-23_08h58.02.093,bars,2023.2.3,Linux armv81,15.03759398,657b66ea316d21385b68909f,,,,,,,,,,,825.4652,826.4582,,,826.9571,827.2067,,119,119,,,,,,,,,,,,,,,,bars/037.png,bars/mask001.png,,,,,,,,,,,,1,2,,,,,,,4,0,4,1,,,,,,,,,,,826.4583,826.957,827.2068,827.258,space,0.0352,0.0017,827.2583,31,14,828.2543,828.2544,828.2562,,,,0,40,40,40,1,150,105,,,,,,,,
,,615a10906193d263fd02c670,65af560bac39215515c2535c,2024-01-23_08h58.02.093,bars,2023.2.3,Linux armv81,15.03759398,657b66ea316d21385b68909f,,,,,,,,,,,828.257,829.2517,,,829.7502,830.0007,,118,118,,,,,,,,,,,,,,,,bars/033.png,bars/mask005.png,,,,,,,,,,,,0,2,,,,,,,6,0,4,0,,,,,,,,,,,829.2519,829.7501,830.0008,830.0501,space,0.0362,0.001,830.0512,87,37,831.0471,831.0472,831.049,,,,0,41,41,41,1,25,155,,,,,,,,
,,615a10906193d263fd02c670,65af560bac39215515c2535c,2024-01-23_08h58.02.093,bars,2023.2.3,Linux armv81,15.03759398,657b66ea316d21385b68909f,,,,,,,,,,,831.0498,832.0457,,,832.5441,832.7939,,53,53,,,,,,,,,,,,,,,,bars/023.png,bars/mask004.png,,,,,,,,,,,,0,1,,,,,,,4,2,5,2,,,,,,,,,,,832.0459,832.5439,832.7943,832.9603,space,0.149,0.001,832.9605,33,62,833.9583,833.9585,833.9647,,,,0,42,42,42,1,20,115,,,,,,,,
,,615a10906193d263fd02c670,65af560bac39215515c2535c,2024-01-23_08h58.02.093,bars,2023.2.3,Linux armv81,15.03759398,657b66ea316d21385b68909f,,,,,,,,,,,833.9655,834.9554,,,835.4537,835.7031,,49,49,,,,,,,,,,,,,,,,bars/036.png,bars/mask002.png,,,,,,,,,,,,0,2,,,,,,,6,0,7,1,,,,,,,,,,,834.9556,835.4536,835.7033,835.8538,space,0.1327,0.0013,835.8541,84,29,836.8504,836.8505,836.8555,,,,0,43,43,43,1,145,20,,,,,,,,
,,615a10906193d263fd02c670,65af560bac39215515c2535c,2024-01-23_08h58.02.093,bars,2023.2.3,Linux armv81,15.03759398,657b66ea316d21385b68909f,,,,,,,,,,,836.8564,837.8483,,,838.3475,838.5968,,86,86,,,,,,,,,,,,,,,,bars/000.png,bars/mask006.png,,,,,,,,,,,,0,1,,,,,,,4,2,6,2,,,,,,,,,,,837.8486,838.3473,838.5969,838.7799,space,0.1714,0.0012,838.7803,46,59,839.7766,839.7767,839.7822,,,,0,44,44,44,1,40,145,,,,,,,,
,,615a10906193d263fd02c670,65af560bac39215515c2535c,2024-01-23_08h58.02.093,bars,2023.2.3,Linux armv81,15.03759398,657b66ea316d21385b68909f,,,,,,,,,,,839.783,840.7749,,,841.2752,841.5232,,147,147,,,,,,,,,,,,,,,,bars/020.png,bars/mask002.png,,,,,,,,,,,,1,2,,,,,,,2,4,3,4,,,,,,,,,,,840.7751,841.2749,841.5234,841.7396,space,0.2028,0.0009,841.7397,32,23,842.7371,842.7372,842.7438,,,,0,45,45,45,1,115,170,,,,,,,,
,,615a10906193d263fd02c670,65af560bac39215515c2535c,2024-01-23_08h58.02.093,bars,2023.2.3,Linux armv81,15.03759398,657b66ea316d21385b68909f,,,,,,,,,,,842.7447,843.7346,,,844.2339,844.4827,,163,163,,,,,,,,,,,,,,,,bars/035.png,bars/mask001.png,,,,,,,,,,,,2,1,,,,,,,4,2,4,1,,,,,,,,,,,843.7349,844.2337,844.4828,844.5659,space,0.0671,0.0011,844.5662,12,77,845.5632,845.5633,845.5681,,,,0,46,46,46,1,175,60,,,,,,,,
,,615a10906193d263fd02c670,65af560bac39215515c2535c,2024-01-23_08h58.02.093,bars,2023.2.3,Linux armv81,15.03759398,657b66ea316d21385b68909f,,,,,,,,,,,845.5689,846.5613,,,847.0603,847.3096,,135,135,,,,,,,,,,,,,,,,bars/048.png,bars/mask002.png,,,,,,,,,,,,0,2,,,,,,,6,0,6,0,,,,,,,,,,,846.5615,847.0601,847.3097,847.4767,space,0.1457,0.0008,847.4772,85,40,848.4741,848.4743,848.4812,,,,0,47,47,47,1,50,175,,,,,,,,
,,615a10906193d263fd02c670,65af560bac39215515c2535c,2024-01-23_08h58.02.093,bars,2023.2.3,Linux armv81,15.03759398,657b66ea316d21385b68909f,,,,,,,,,,,848.4822,849.4708,,,849.97,850.2191,,56,56,,,,,,,,,,,,,,,,bars/017.png,bars/mask007.png,,,,,,,,,,,,1,2,,,,,,,4,2,5,2,,,,,,,,,,,849.4709,849.9699,850.2192,850.2538,space,0.0149,0.0011,850.2541,89,11,851.2504,851.2505,851.2527,,,,0,48,48,48,1,145,45,,,,,,,,
,,615a10906193d263fd02c670,65af560bac39215515c2535c,2024-01-23_08h58.02.093,bars,2023.2.3,Linux armv81,15.03759398,657b66ea316d21385b68909f,,,,,,,,,,,851.2539,852.2483,,,852.748,852.9965,,163,163,,,,,,,,,,,,,,,,bars/003.png,bars/mask001.png,,,,,,,,,,,,1,2,,,,,,,2,4,4,3,,,,,,,,,,,852.2486,852.7476,852.9967,855.127,space,2.1165,0.0012,855.1273,42,23,856.1221,856.1224,856.1244,,,,0,49,49,49,1,25,140,,,,,,,,
,,615a10906193d263fd02c670,65af560bac39215515c2535c,2024-01-23_08h58.02.093,bars,2023.2.3,Linux armv81,15.03759398,657b66ea316d21385b68909f,,,,,,,,,,,,,,,,,,,,,,,,,,,,,,,,,,,,,,,,,,,,,,,,,,,,,,,,,,,,,,,,,,,,,,,,,,,,,,,,,,,,,,,,,,,,,856.1248,916.1145,0,3,3,4,1,sequence_tables/blk015.csv
,,615a10906193d263fd02c670,65af560bac39215515c2535c,2024-01-23_08h58.02.093,bars,2023.2.3,Linux armv81,15.03759398,657b66ea316d21385b68909f,,,,,,,,,,,921.043,922.0171,,,922.5154,922.7649,,99,99,,,,,,,,,,,,,,,,bars/019.png,bars/mask001.png,,,,,,,,,,,,6,2,,,,,,,7,6,8,7,,,,,,916.1498,921.0084,space,4.8513,0.0009,922.0171,922.5154,922.7649,922.8817,space,0.097,0.0006,922.882,54,6,923.8791,923.8792,923.8811,,,,0,0,0,0,1,45,105,,,,,,,,
,,615a10906193d263fd02c670,65af560bac39215515c2535c,2024-01-23_08h58.02.093,bars,2023.2.3,Linux armv81,15.03759398,657b66ea316d21385b68909f,,,,,,,,,,,923.882,924.8768,,,925.3657,925.614,,20,20,,,,,,,,,,,,,,,,bars/023.png,bars/mask009.png,,,,,,,,,,,,7,1,,,,,,,5,4,7,3,,,,,,,,,,,924.877,925.3656,925.6142,925.7659,space,0.1345,0.0011,925.7663,0,85,926.756,926.7561,926.7647,,,,0,1,1,1,1,20,115,,,,,,,,
,,615a10906193d263fd02c670,65af560bac39215515c2535c,2024-01-23_08h58.02.093,bars,2023.2.3,Linux armv81,15.03759398,657b66ea316d21385b68909f,,,,,,,,,,,926.766,927.7574,,,928.2629,928.5016,,178,178,,,,,,,,,,,,,,,,bars/021.png,bars/mask000.png,,,,,,,,,,,,0,1,,,,,,,3,2,2,2,,,,,,,,,,,927.7574,928.2626,928.5017,928.6511,space,0.1232,0.0039,928.6513,23,72,929.6495,929.6496,929.6518,,,,0,2,2,2,1,155,70,,,,,,,,
,,615a10906193d263fd02c670,65af560bac39215515c2535c,2024-01-23_08h58.02.093,bars,2023.2.3,Linux armv81,15.03759398,657b66ea316d21385b68909f,,,,,,,,,,,929.6526,930.6468,,,931.1465,931.3943,,139,139,,,,,,,,,,,,,,,,bars/044.png,bars/mask009.png,,,,,,,,,,,,0,2,,,,,,,1,0,0,0,,,,,,,,,,,930.6469,931.1463,931.3944,931.5726,space,0.1706,0.0004,931.5727,64,16,932.5757,932.5759,932.582,,,,0,3,3,3,1,75,155,,,,,,,,
,,615a10906193d263fd02c670,65af560bac39215515c2535c,2024-01-23_08h58.02.093,bars,2023.2.3,Linux armv81,15.03759398,657b66ea316d21385b68909f,,,,,,,,,,,932.5826,933.5728,,,934.0771,934.3213,,76,76,,,,,,,,,,,,,,,,bars/046.png,bars/mask000.png,,,,,,,,,,,,0,2,,,,,,,3,0,4,0,,,,,,,,,,,933.5728,934.077,934.3213,934.3722,space,0.0353,0.0005,934.3724,79,9,935.3742,935.3742,935.3758,,,,0,4,4,4,1,155,85,,,,,,,,
,,615a10906193d263fd02c670,65af560bac39215515c2535c,2024-01-23_08h58.02.093,bars,2023.2.3,Linux armv81,15.03759398,657b66ea316d21385b68909f,,,,,,,,,,,935.3765,936.3664,,,936.8662,937.116,,106,106,,,,,,,,,,,,,,,,bars/036.png,bars/mask006.png,,,,,,,,,,,,0,1,,,,,,,1,2,2,1,,,,,,,,,,,936.3665,936.866,937.1163,937.2554,space,0.1181,0.0009,937.2555,39,86,938.2499,938.2501,938.2558,,,,0,5,5,5,1,145,20,,,,,,,,
,,615a10906193d263fd02c670,65af560bac39215515c2535c,2024-01-23_08h58.02.093,bars,2023.2.3,Linux armv81,15.03759398,657b66ea316d21385b68909f,,,,,,,,,,,938.2567,939.2491,,,939.7456,939.9917,,32,32,,,,,,,,,,,,,,,,bars/038.png,bars/mask008.png,,,,,,,,,,,,0,2,,,,,,,0,4,0,5,,,,,,,,,,,939.2492,939.7455,939.9917,940.2098,space,0.208,0.0015,940.2099,47,38,941.2051,941.2051,941.2122,,,,0,6,6,6,1,165,70,,,,,,,,
,,615a10906193d263fd02c670,65af560bac39215515c2535c,2024-01-23_08h58.02.093,bars,2023.2.3,Linux armv81,15.03759398,657b66ea316d21385b68909f,,,,,,,,,,,941.2133,942.2027,,,942.7029,942.9548,,95,95,,,,,,,,,,,,,,,,bars/041.png,bars/mask006.png,,,,,,,,,,,,3,2,,,,,,,2,6,1,5,,,,,,,,,,,942.2029,942.7028,942.9548,943.0103,space,0.0358,0.0005,943.0104,75,10,944.0049,944.0051,944.0083,,,,0,7,7,7,1,20,85,,,,,,,,
