init_variables.started,init_variables.stopped,participant,session,date,expName,psychopyVersion,OS,frameRate,study_id,instruction_exp.started,instruction_exp.stopped,key_resp_8.keys,key_resp_8.rt,key_resp_8.duration,instruction_single.started,instruction_single.stopped,key_resp_2.keys,key_resp_2.rt,key_resp_2.duration,interval.started,interval.stopped,cue_single.started,cue_single.stopped,mask.started,mask.stopped,ori_response_single.started,res_ori,res,ori_response_single.stopped,key_resp_single.keys,key_resp_single.rt,key_resp_single.duration,disp_single.started,disp_single.stopped,key_resp.keys,key_resp.rt,key_resp.duration,single.thisRepN,single.thisTrialN,single.thisN,single.thisIndex,single.ran,ori,path,mask_path,instruction_bandit.started,instruction_bandit.stopped,key_resp_6.keys,key_resp_6.rt,key_resp_6.duration,cue_bandit.started,cue_bandit.stopped,bandit_res.keys,bandit_res.rt,bandit_res.duration,outcome_bandit.started,rew,action,outcome_bandit.stopped,bandit.thisRepN,bandit.thisTrialN,bandit.thisN,bandit.thisIndex,bandit.ran,actual_rew1,actual_rew2,rew1,rew2,instruction_task.started,instruction_task.stopped,key_resp_7.keys,key_resp_7.rt,key_resp_7.duration,wait_ready.started,wait_ready.stopped,key_resp_3.keys,key_resp_3.rt,key_resp_3.duration,cue.started,cue.stopped,ori_response.started,ori_response.stopped,key_resp_5.keys,key_resp_5.rt,key_resp_5.duration,outcome.started,diff1,diff2,outcome.stopped,disp_outcome_practice.started,disp_outcome_practice.stopped,key_resp_4.keys,key_resp_4.rt,key_resp_4.duration,trials.thisRepN,trials.thisTrialN,trials.thisN,trials.thisIndex,trials.ran,ori1,ori2,break_blk.started,break_blk.stopped,block.thisRepN,block.thisTrialN,block.thisN,block.thisIndex,block.ran,condition_file
0.0004,0.0004,612c95f4a142b9dc63cc45a0,65af55fe4abd09284145a17a,2024-01-23_08h09.23.155,bars,2023.2.3,Win32,60.24096386,657b66ea316d21385b68909f,,,,,,,,,,,,,,,,,,,,,,,,,,,,,,,,,,,,,,,,,,,,,,,,,,,,,,,,,,,,,,,,,,,,,,,,,,,,,,,,,,,,,,,,,,,,,,,,,,,,
,,612c95f4a142b9dc63cc45a0,65af55fe4abd09284145a17a,2024-01-23_08h09.23.155,bars,2023.2.3,Win32,60.24096386,657b66ea316d21385b68909f,0.0007,3.1253,y,3.1092,,,,,,,,,,,,,,,,,,,,,,,,,,,,,,,,,,,,,,,,,,,,,,,,,,,,,,,,,,,,,,,,,,,,,,,,,,,,,,,,,,,,,,,,,,,,,,,,
,,612c95f4a142b9dc63cc45a0,65af55fe4abd09284145a17a,2024-01-23_08h09.23.155,bars,2023.2.3,Win32,60.24096386,657b66ea316d21385b68909f,,,,,,3.126,14.123,space,10.9706,,,,,,,,,,,,,,,,,,,,,,,,,,,,,,,,,,,,,,,,,,,,,,,,,,,,,,,,,,,,,,,,,,,,,,,,,,,,,,,,,,,,,,,,,,,
,,612c95f4a142b9dc63cc45a0,65af55fe4abd09284145a17a,2024-01-23_08h09.23.155,bars,2023.2.3,Win32,60.24096386,657b66ea316d21385b68909f,,,,,,,,,,,14.128,15.1233,15.1236,15.6252,15.6258,15.8763,15.8768,1,181,19.9937,space,4.0661,,19.9941,23.9256,space,3.8961,,0,0,0,9,1,20,bars/single009.png,bars/mask006.png,,,,,,,,,,,,,,,,,,,,,,,,,,,,,,,,,,,,,,,,,,,,,,,,,,,,,,,,,,,,,,,,
,,612c95f4a142b9dc63cc45a0,65af55fe4abd09284145a17a,2024-01-23_08h09.23.155,bars,2023.2.3,Win32,60.24096386,657b66ea316d21385b68909f,,,,,,,,,,,23.9272,24.9235,24.9242,25.4233,25.4234,25.6722,25.6722,144,144,27.1408,space,1.4538,,27.1412,29.6232,space,2.4595,,0,1,1,7,1,45,bars/single007.png,bars/mask009.png,,,,,,,,,,,,,,,,,,,,,,,,,,,,,,,,,,,,,,,,,,,,,,,,,,,,,,,,,,,,,,,,
,,612c95f4a142b9dc63cc45a0,65af55fe4abd09284145a17a,2024-01-23_08h09.23.155,bars,2023.2.3,Win32,60.24096386,657b66ea316d21385b68909f,,,,,,,,,,,29.6243,30.6218,30.6219,31.1223,31.1224,31.3723,31.3724,49,229,39.4555,space,8.0729,,39.4557,44.4895,space,5.0192,,0,2,2,6,1,175,bars/single006.png,bars/mask005.png,,,,,,,,,,,,,,,,,,,,,,,,,,,,,,,,,,,,,,,,,,,,,,,,,,,,,,,,,,,,,,,,
,,612c95f4a142b9dc63cc45a0,65af55fe4abd09284145a17a,2024-01-23_08h09.23.155,bars,2023.2.3,Win32,60.24096386,657b66ea316d21385b68909f,,,,,,,,,,,44.4907,45.4892,45.4892,45.9875,45.9876,46.2385,46.2385,136,136,47.5751,space,1.3282,,47.5753,49.3913,space,1.7932,,0,3,3,5,1,55,bars/single005.png,bars/mask008.png,,,,,,,,,,,,,,,,,,,,,,,,,,,,,,,,,,,,,,,,,,,,,,,,,,,,,,,,,,,,,,,,
,,612c95f4a142b9dc63cc45a0,65af55fe4abd09284145a17a,2024-01-23_08h09.23.155,bars,2023.2.3,Win32,60.24096386,657b66ea316d21385b68909f,,,,,,,,,,,49.3925,50.3874,50.3875,50.8888,50.8889,51.1385,51.1385,143,-37,59.52,space,8.3643,,59.52,65.2723,space,5.7257,,0,4,4,8,1,160,bars/single008.png,bars/mask004.png,,,,,,,,,,,,,,,,,,,,,,,,,,,,,,,,,,,,,,,,,,,,,,,,,,,,,,,,,,,,,,,,
,,612c95f4a142b9dc63cc45a0,65af55fe4abd09284145a17a,2024-01-23_08h09.23.155,bars,2023.2.3,Win32,60.24096386,657b66ea316d21385b68909f,,,,,,,,,,,65.3028,66.287,66.2872,66.7873,66.7874,67.0228,67.023,1,181,83.3197,space,16.2889,,83.32,85.5537,space,2.1889,,0,5,5,1,1,20,bars/single001.png,bars/mask006.png,,,,,,,,,,,,,,,,,,,,,,,,,,,,,,,,,,,,,,,,,,,,,,,,,,,,,,,,,,,,,,,,
,,612c95f4a142b9dc63cc45a0,65af55fe4abd09284145a17a,2024-01-23_08h09.23.155,bars,2023.2.3,Win32,60.24096386,657b66ea316d21385b68909f,,,,,,,,,,,85.5549,86.5539,86.5541,87.0529,87.0532,87.3035,87.3039,128,128,88.654,space,1.3348,,88.6541,90.0561,space,1.3871,,0,6,6,3,1,20,bars/single003.png,bars/mask005.png,,,,,,,,,,,,,,,,,,,,,,,,,,,,,,,,,,,,,,,,,,,,,,,,,,,,,,,,,,,,,,,,
,,612c95f4a142b9dc63cc45a0,65af55fe4abd09284145a17a,2024-01-23_08h09.23.155,bars,2023.2.3,Win32,60.24096386,657b66ea316d21385b68909f,,,,,,,,,,,90.0571,91.0523,91.0527,91.5525,91.5529,91.8025,91.8026,3,183,98.7864,space,6.9687,,98.7865,102.7349,space,3.9077,,0,7,7,2,1,145,bars/single002.png,bars/mask003.png,,,,,,,,,,,,,,,,,,,,,,,,,,,,,,,,,,,,,,,,,,,,,,,,,,,,,,,,,,,,,,,,
,,612c95f4a142b9dc63cc45a0,65af55fe4abd09284145a17a,2024-01-23_08h09.23.155,bars,2023.2.3,Win32,60.24096386,657b66ea316d21385b68909f,,,,,,,,,,,102.7454,103.7355,103.7357,104.2367,104.2368,104.4851,104.4853,23,23,105.5359,space,1.034,,105.5363,107.3705,space,1.8201,,0,8,8,4,1,95,bars/single004.png,bars/mask004.png,,,,,,,,,,,,,,,,,,,,,,,,,,,,,,,,,,,,,,,,,,,,,,,,,,,,,,,,,,,,,,,,
,,612c95f4a142b9dc63cc45a0,65af55fe4abd09284145a17a,2024-01-23_08h09.23.155,bars,2023.2.3,Win32,60.24096386,657b66ea316d21385b68909f,,,,,,,,,,,107.3718,108.3674,108.3675,108.8684,108.8684,109.1177,109.1178,179,-1,113.5846,space,4.4547,,113.5847,118.4005,space,4.7848,,0,9,9,0,1,150,bars/single000.png,bars/mask006.png,,,,,,,,,,,,,,,,,,,,,,,,,,,,,,,,,,,,,,,,,,,,,,,,,,,,,,,,,,,,,,,,
,,612c95f4a142b9dc63cc45a0,65af55fe4abd09284145a17a,2024-01-23_08h09.23.155,bars,2023.2.3,Win32,60.24096386,657b66ea316d21385b68909f,,,,,,,,,,,,,,,,,,,,,,,,,,,,,,,,,,,,,118.4114,128.9552,space,10.5222,,,,,,,,,,,,,,,,,,,,,,,,,,,,,,,,,,,,,,,,,,,,,,,,,,,,,,,,,,,,
,,612c95f4a142b9dc63cc45a0,65af55fe4abd09284145a17a,2024-01-23_08h09.23.155,bars,2023.2.3,Win32,60.24096386,657b66ea316d21385b68909f,,,,,,,,,,,,,,,,,,,,,,,,,,,,,,,,,,,,,,,,,,128.9912,130.9351,right,1.9224,,130.9358,2,2,131.9345,0,0,0,0,1,9,1,9,2,,,,,,,,,,,,,,,,,,,,,,,,,,,,,,,,,,,,,,,,,
,,612c95f4a142b9dc63cc45a0,65af55fe4abd09284145a17a,2024-01-23_08h09.23.155,bars,2023.2.3,Win32,60.24096386,657b66ea316d21385b68909f,,,,,,,,,,,,,,,,,,,,,,,,,,,,,,,,,,,,,,,,,,131.9381,133.185,left,1.2386,,133.1852,10,1,134.1837,0,1,1,1,1,10,0,10,1,,,,,,,,,,,,,,,,,,,,,,,,,,,,,,,,,,,,,,,,,
,,612c95f4a142b9dc63cc45a0,65af55fe4abd09284145a17a,2024-01-23_08h09.23.155,bars,2023.2.3,Win32,60.24096386,657b66ea316d21385b68909f,,,,,,,,,,,,,,,,,,,,,,,,,,,,,,,,,,,,,,,,,,134.185,135.7014,left,1.5022,,135.7019,10,1,136.6997,0,2,2,2,1,10,2,10,2,,,,,,,,,,,,,,,,,,,,,,,,,,,,,,,,,,,,,,,,,
,,612c95f4a142b9dc63cc45a0,65af55fe4abd09284145a17a,2024-01-23_08h09.23.155,bars,2023.2.3,Win32,60.24096386,657b66ea316d21385b68909f,,,,,,,,,,,,,,,,,,,,,,,,,,,,,,,,,,,,,,,,,,136.7009,137.5025,right,0.7875,,137.5029,3,2,138.5009,0,3,3,3,1,8,4,7,3,,,,,,,,,,,,,,,,,,,,,,,,,,,,,,,,,,,,,,,,,
,,612c95f4a142b9dc63cc45a0,65af55fe4abd09284145a17a,2024-01-23_08h09.23.155,bars,2023.2.3,Win32,60.24096386,657b66ea316d21385b68909f,,,,,,,,,,,,,,,,,,,,,,,,,,,,,,,,,,,,,,,,,,138.5025,139.5184,left,1.0002,,139.5188,5,1,140.5175,0,4,4,4,1,6,2,5,1,,,,,,,,,,,,,,,,,,,,,,,,,,,,,,,,,,,,,,,,,
,,612c95f4a142b9dc63cc45a0,65af55fe4abd09284145a17a,2024-01-23_08h09.23.155,bars,2023.2.3,Win32,60.24096386,657b66ea316d21385b68909f,,,,,,,,,,,,,,,,,,,,,,,,,,,,,,,,,,,,,,,,,,140.5184,141.9679,right,1.4358,,141.9681,4,2,142.9666,0,5,5,5,1,4,4,4,4,,,,,,,,,,,,,,,,,,,,,,,,,,,,,,,,,,,,,,,,,
,,612c95f4a142b9dc63cc45a0,65af55fe4abd09284145a17a,2024-01-23_08h09.23.155,bars,2023.2.3,Win32,60.24096386,657b66ea316d21385b68909f,,,,,,,,,,,,,,,,,,,,,,,,,,,,,,,,,,,,,,,,,,142.9963,144.021,right,1.0189,,144.0211,2,2,145.017,0,6,6,6,1,2,2,1,2,,,,,,,,,,,,,,,,,,,,,,,,,,,,,,,,,,,,,,,,,
,,612c95f4a142b9dc63cc45a0,65af55fe4abd09284145a17a,2024-01-23_08h09.23.155,bars,2023.2.3,Win32,60.24096386,657b66ea316d21385b68909f,,,,,,,,,,,,,,,,,,,,,,,,,,,,,,,,,,,,,,,,,,145.0188,147.6671,left,2.6395,,147.6673,0,1,148.6663,0,7,7,7,1,0,0,0,1,,,,,,,,,,,,,,,,,,,,,,,,,,,,,,,,,,,,,,,,,
,,612c95f4a142b9dc63cc45a0,65af55fe4abd09284145a17a,2024-01-23_08h09.23.155,bars,2023.2.3,Win32,60.24096386,657b66ea316d21385b68909f,,,,,,,,,,,,,,,,,,,,,,,,,,,,,,,,,,,,,,,,,,148.6686,149.9343,left,1.2515,,149.9346,1,1,150.9326,0,8,8,8,1,0,2,1,0,,,,,,,,,,,,,,,,,,,,,,,,,,,,,,,,,,,,,,,,,
,,612c95f4a142b9dc63cc45a0,65af55fe4abd09284145a17a,2024-01-23_08h09.23.155,bars,2023.2.3,Win32,60.24096386,657b66ea316d21385b68909f,,,,,,,,,,,,,,,,,,,,,,,,,,,,,,,,,,,,,,,,,,150.9338,151.9506,right,1.0019,,151.9508,3,2,152.9518,0,9,9,9,1,2,4,2,3,,,,,,,,,,,,,,,,,,,,,,,,,,,,,,,,,,,,,,,,,
,,612c95f4a142b9dc63cc45a0,65af55fe4abd09284145a17a,2024-01-23_08h09.23.155,bars,2023.2.3,Win32,60.24096386,657b66ea316d21385b68909f,,,,,,,,,,,,,,,,,,,,,,,,,,,,,,,,,,,,,,,,,,152.9532,154.068,left,1.1069,,154.0681,0,1,155.0681,0,10,10,10,1,0,2,0,3,,,,,,,,,,,,,,,,,,,,,,,,,,,,,,,,,,,,,,,,,
,,612c95f4a142b9dc63cc45a0,65af55fe4abd09284145a17a,2024-01-23_08h09.23.155,bars,2023.2.3,Win32,60.24096386,657b66ea316d21385b68909f,,,,,,,,,,,,,,,,,,,,,,,,,,,,,,,,,,,,,,,,,,155.1019,156.5332,left,1.4175,,156.5336,0,1,157.5321,0,11,11,11,1,0,4,0,3,,,,,,,,,,,,,,,,,,,,,,,,,,,,,,,,,,,,,,,,,
,,612c95f4a142b9dc63cc45a0,65af55fe4abd09284145a17a,2024-01-23_08h09.23.155,bars,2023.2.3,Win32,60.24096386,657b66ea316d21385b68909f,,,,,,,,,,,,,,,,,,,,,,,,,,,,,,,,,,,,,,,,,,157.5339,159.0488,left,1.5098,,159.0489,1,1,160.0486,0,12,12,12,1,2,6,1,6,,,,,,,,,,,,,,,,,,,,,,,,,,,,,,,,,,,,,,,,,
,,612c95f4a142b9dc63cc45a0,65af55fe4abd09284145a17a,2024-01-23_08h09.23.155,bars,2023.2.3,Win32,60.24096386,657b66ea316d21385b68909f,,,,,,,,,,,,,,,,,,,,,,,,,,,,,,,,,,,,,,,,,,160.0496,161.4169,right,1.3553,,161.4171,3,2,162.4153,0,13,13,13,1,0,4,1,3,,,,,,,,,,,,,,,,,,,,,,,,,,,,,,,,,,,,,,,,,
,,612c95f4a142b9dc63cc45a0,65af55fe4abd09284145a17a,2024-01-23_08h09.23.155,bars,2023.2.3,Win32,60.24096386,657b66ea316d21385b68909f,,,,,,,,,,,,,,,,,,,,,,,,,,,,,,,,,,,,,,,,,,162.4165,163.0671,left,0.6355,,163.0672,2,1,164.0653,0,14,14,14,1,2,6,2,7,,,,,,,,,,,,,,,,,,,,,,,,,,,,,,,,,,,,,,,,,
,,612c95f4a142b9dc63cc45a0,65af55fe4abd09284145a17a,2024-01-23_08h09.23.155,bars,2023.2.3,Win32,60.24096386,657b66ea316d21385b68909f,,,,,,,,,,,,,,,,,,,,,,,,,,,,,,,,,,,,,,,,,,164.0663,164.5694,left,0.4972,,164.5696,3,1,165.5664,0,15,15,15,1,4,8,3,9,,,,,,,,,,,,,,,,,,,,,,,,,,,,,,,,,,,,,,,,,
,,612c95f4a142b9dc63cc45a0,65af55fe4abd09284145a17a,2024-01-23_08h09.23.155,bars,2023.2.3,Win32,60.24096386,657b66ea316d21385b68909f,,,,,,,,,,,,,,,,,,,,,,,,,,,,,,,,,,,,,,,,,,165.5697,166.2331,left,0.655,,166.2334,7,1,167.2318,0,16,16,16,1,6,6,7,7,,,,,,,,,,,,,,,,,,,,,,,,,,,,,,,,,,,,,,,,,
,,612c95f4a142b9dc63cc45a0,65af55fe4abd09284145a17a,2024-01-23_08h09.23.155,bars,2023.2.3,Win32,60.24096386,657b66ea316d21385b68909f,,,,,,,,,,,,,,,,,,,,,,,,,,,,,,,,,,,,,,,,,,167.2326,167.8502,right,0.6086,,167.8503,5,2,168.8479,0,17,17,17,1,8,4,9,5,,,,,,,,,,,,,,,,,,,,,,,,,,,,,,,,,,,,,,,,,
,,612c95f4a142b9dc63cc45a0,65af55fe4abd09284145a17a,2024-01-23_08h09.23.155,bars,2023.2.3,Win32,60.24096386,657b66ea316d21385b68909f,,,,,,,,,,,,,,,,,,,,,,,,,,,,,,,,,,,,,,,,,,168.8487,169.5347,left,0.6799,,169.5349,5,1,170.5319,0,18,18,18,1,6,2,5,1,,,,,,,,,,,,,,,,,,,,,,,,,,,,,,,,,,,,,,,,,
,,612c95f4a142b9dc63cc45a0,65af55fe4abd09284145a17a,2024-01-23_08h09.23.155,bars,2023.2.3,Win32,60.24096386,657b66ea316d21385b68909f,,,,,,,,,,,,,,,,,,,,,,,,,,,,,,,,,,,,,,,,,,170.534,171.017,right,0.4674,,171.0174,0,2,172.0188,0,19,19,19,1,8,0,7,0,,,,,,,,,,,,,,,,,,,,,,,,,,,,,,,,,,,,,,,,,
,,612c95f4a142b9dc63cc45a0,65af55fe4abd09284145a17a,2024-01-23_08h09.23.155,bars,2023.2.3,Win32,60.24096386,657b66ea316d21385b68909f,,,,,,,,,,,,,,,,,,,,,,,,,,,,,,,,,,,,,,,,,,,,,,,,,,,,,,,,,,,,172.0215,175.9504,space,3.9083,,,,,,,,,,,,,,,,,,,,,,,,,,,,,,,,,,,,,
,,612c95f4a142b9dc63cc45a0,65af55fe4abd09284145a17a,2024-01-23_08h09.23.155,bars,2023.2.3,Win32,60.24096386,657b66ea316d21385b68909f,,,,,,,,,,,176.8021,177.7984,,,178.3015,178.5487,,176,-4,,,,,,,,,,,,,,,,bars/019.png,bars/mask001.png,,,,,,,,,,,,0,1,,,,,,,7,6,8,7,,,,,,175.98,176.7982,space,0.8,,177.7999,178.3014,178.5497,182.6512,space,4.0748,,182.6521,49,71,183.6481,183.6487,188.6161,space,4.9433,,0,0,0,0,1,45,105,,,,,,,,
,,612c95f4a142b9dc63cc45a0,65af55fe4abd09284145a17a,2024-01-23_08h09.23.155,bars,2023.2.3,Win32,60.24096386,657b66ea316d21385b68909f,,,,,,,,,,,188.632,189.631,,,190.1313,190.3814,,144,-36,,,,,,,,,,,,,,,,bars/023.png,bars/mask009.png,,,,,,,,,,,,0,2,,,,,,,5,4,7,3,,,,,,,,,,,189.631,190.1313,190.3816,194.6321,space,4.233,,194.6327,56,29,195.6301,195.6302,197.5324,space,1.8783,,0,1,1,1,1,20,115,,,,,,,,
,,612c95f4a142b9dc63cc45a0,65af55fe4abd09284145a17a,2024-01-23_08h09.23.155,bars,2023.2.3,Win32,60.24096386,657b66ea316d21385b68909f,,,,,,,,,,,197.5339,198.5307,,,199.031,199.2806,,70,250,,,,,,,,,,,,,,,,bars/021.png,bars/mask000.png,,,,,,,,,,,,2,2,,,,,,,3,2,2,2,,,,,,,,,,,198.531,199.0308,199.2808,204.3801,space,5.0804,,204.3802,85,0,205.3833,205.3834,206.6647,space,1.2404,,0,2,2,2,1,155,70,,,,,,,,
,,612c95f4a142b9dc63cc45a0,65af55fe4abd09284145a17a,2024-01-23_08h09.23.155,bars,2023.2.3,Win32,60.24096386,657b66ea316d21385b68909f,,,,,,,,,,,206.6661,207.6629,,,208.1639,208.4136,,170,170,,,,,,,,,,,,,,,,bars/044.png,bars/mask009.png,,,,,,,,,,,,0,2,,,,,,,1,0,0,0,,,,,,,,,,,207.663,208.1637,208.4139,210.1997,space,1.7756,,210.2,85,15,211.1974,211.1976,213.9651,space,2.72,,0,3,3,3,1,75,155,,,,,,,,
,,612c95f4a142b9dc63cc45a0,65af55fe4abd09284145a17a,2024-01-23_08h09.23.155,bars,2023.2.3,Win32,60.24096386,657b66ea316d21385b68909f,,,,,,,,,,,213.9674,214.9632,,,215.4642,215.7139,,73,73,,,,,,,,,,,,,,,,bars/046.png,bars/mask000.png,,,,,,,,,,,,0,2,,,,,,,3,0,4,0,,,,,,,,,,,214.9635,215.464,215.714,217.0971,space,1.3695,,217.0974,82,12,218.0968,218.0969,220.6482,space,2.5295,,0,4,4,4,1,155,85,,,,,,,,
,,612c95f4a142b9dc63cc45a0,65af55fe4abd09284145a17a,2024-01-23_08h09.23.155,bars,2023.2.3,Win32,60.24096386,657b66ea316d21385b68909f,,,,,,,,,,,220.6496,221.6466,,,222.1466,222.3972,,88,88,,,,,,,,,,,,,,,,bars/036.png,bars/mask006.png,,,,,,,,,,,,0,1,,,,,,,1,2,2,1,,,,,,,,,,,221.6468,222.1464,222.3973,225.5978,space,3.1841,,225.598,57,68,226.5974,226.5979,228.1807,space,1.5336,,0,5,5,5,1,145,20,,,,,,,,
,,612c95f4a142b9dc63cc45a0,65af55fe4abd09284145a17a,2024-01-23_08h09.23.155,bars,2023.2.3,Win32,60.24096386,657b66ea316d21385b68909f,,,,,,,,,,,228.1821,229.1791,,,229.6796,229.9293,,170,-10,,,,,,,,,,,,,,,,bars/038.png,bars/mask008.png,,,,,,,,,,,,0,1,,,,,,,0,4,0,5,,,,,,,,,,,229.1792,229.6795,229.9295,231.9804,space,2.0355,,231.9808,5,80,232.9794,232.9795,234.6804,space,1.6781,,0,6,6,6,1,165,70,,,,,,,,
,,612c95f4a142b9dc63cc45a0,65af55fe4abd09284145a17a,2024-01-23_08h09.23.155,bars,2023.2.3,Win32,60.24096386,657b66ea316d21385b68909f,,,,,,,,,,,234.6819,235.679,,,236.1785,236.429,,156,-24,,,,,,,,,,,,,,,,bars/041.png,bars/mask006.png,,,,,,,,,,,,0,1,,,,,,,2,6,1,5,,,,,,,,,,,235.6793,236.1785,236.4292,239.6453,space,3.2017,,239.6453,44,71,240.6447,240.6447,241.7468,space,1.0805,,0,7,7,7,1,20,85,,,,,,,,
,,612c95f4a142b9dc63cc45a0,65af55fe4abd09284145a17a,2024-01-23_08h09.23.155,bars,2023.2.3,Win32,60.24096386,657b66ea316d21385b68909f,,,,,,,,,,,241.7483,242.7444,,,243.2447,243.4949,,6,186,,,,,,,,,,,,,,,,bars/041.png,bars/mask006.png,,,,,,,,,,,,2,1,,,,,,,4,4,3,2,,,,,,,,,,,242.7445,243.2446,243.4951,246.5282,space,3.0232,,246.5283,14,79,247.531,247.5312,248.1628,space,0.5976,,0,8,8,8,1,20,85,,,,,,,,
,,612c95f4a142b9dc63cc45a0,65af55fe4abd09284145a17a,2024-01-23_08h09.23.155,bars,2023.2.3,Win32,60.24096386,657b66ea316d21385b68909f,,,,,,,,,,,248.1646,249.1617,,,249.6613,249.9144,,21,201,,,,,,,,,,,,,,,,bars/043.png,bars/mask006.png,,,,,,,,,,,,1,1,,,,,,,2,2,2,1,,,,,,,,,,,249.1619,249.6612,249.9144,256.0125,space,6.0887,,256.0128,9,71,257.0111,257.0112,259.5455,space,2.4928,,0,9,9,9,1,30,130,,,,,,,,
,,612c95f4a142b9dc63cc45a0,65af55fe4abd09284145a17a,2024-01-23_08h09.23.155,bars,2023.2.3,Win32,60.24096386,657b66ea316d21385b68909f,,,,,,,,,,,259.5797,260.5645,,,261.061,261.3113,,3,3,,,,,,,,,,,,,,,,bars/006.png,bars/mask006.png,,,,,,,,,,,,0,1,,,,,,,0,4,0,3,,,,,,,,,,,260.5646,261.0609,261.3116,265.8474,space,4.5257,,265.8477,32,83,266.8445,266.8446,267.428,space,0.5377,,0,10,10,10,1,35,100,,,,,,,,
,,612c95f4a142b9dc63cc45a0,65af55fe4abd09284145a17a,2024-01-23_08h09.23.155,bars,2023.2.3,Win32,60.24096386,657b66ea316d21385b68909f,,,,,,,,,,,267.4293,268.4267,,,268.9272,269.177,,84,84,,,,,,,,,,,,,,,,bars/049.png,bars/mask004.png,,,,,,,,,,,,0,2,,,,,,,0,6,1,6,,,,,,,,,,,268.4269,268.9272,269.1771,276.5946,space,7.4039,,276.5946,76,31,277.5939,277.594,577.0639,space,299.4274,,0,11,11,11,1,160,115,,,,,,,,
,,612c95f4a142b9dc63cc45a0,65af55fe4abd09284145a17a,2024-01-23_08h09.23.155,bars,2023.2.3,Win32,60.24096386,657b66ea316d21385b68909f,,,,,,,,,,,577.0655,578.0621,,,578.5626,578.8131,,175,175,,,,,,,,,,,,,,,,bars/016.png,bars/mask009.png,,,,,,,,,,,,2,2,,,,,,,0,4,2,3,,,,,,,,,,,578.0623,578.5626,578.8133,582.0807,space,3.2493,,582.081,45,10,583.0794,583.0797,587.0132,space,3.8838,,0,12,12,12,1,40,165,,,,,,,,
,,612c95f4a142b9dc63cc45a0,65af55fe4abd09284145a17a,2024-01-23_08h09.23.155,bars,2023.2.3,Win32,60.24096386,657b66ea316d21385b68909f,,,,,,,,,,,587.0414,588.0291,,,588.5294,588.7791,,86,86,,,,,,,,,,,,,,,,bars/018.png,bars/mask009.png,,,,,,,,,,,,4,2,,,,,,,0,6,0,5,,,,,,,,,,,588.0293,588.5293,588.7793,593.3628,space,4.5687,,593.3632,64,4,594.3623,594.3624,597.5965,space,3.1817,,0,13,13,13,1,150,90,,,,,,,,
,,612c95f4a142b9dc63cc45a0,65af55fe4abd09284145a17a,2024-01-23_08h09.23.155,bars,2023.2.3,Win32,60.24096386,657b66ea316d21385b68909f,,,,,,,,,,,597.6266,598.6118,,,599.0983,599.3468,,4,4,,,,,,,,,,,,,,,,bars/048.png,bars/mask007.png,,,,,,,,,,,,6,2,,,,,,,2,8,1,8,,,,,,,,,,,598.612,599.0977,599.3469,600.5467,space,1.1909,,600.5468,46,9,601.5461,601.5464,602.8149,space,1.25,,0,14,14,14,1,50,175,,,,,,,,
,,612c95f4a142b9dc63cc45a0,65af55fe4abd09284145a17a,2024-01-23_08h09.23.155,bars,2023.2.3,Win32,60.24096386,657b66ea316d21385b68909f,,,,,,,,,,,602.816,603.8118,,,604.3111,604.5617,,29,29,,,,,,,,,,,,,,,,bars/003.png,bars/mask000.png,,,,,,,,,,,,1,1,,,,,,,0,6,1,5,,,,,,,,,,,603.8121,604.311,604.5618,610.1281,space,5.5502,,610.1281,4,69,611.1282,611.1283,614.4127,space,3.229,,0,15,15,15,1,25,140,,,,,,,,
,,612c95f4a142b9dc63cc45a0,65af55fe4abd09284145a17a,2024-01-23_08h09.23.155,bars,2023.2.3,Win32,60.24096386,657b66ea316d21385b68909f,,,,,,,,,,,614.4413,615.4278,,,615.931,616.1778,,168,168,,,,,,,,,,,,,,,,bars/028.png,bars/mask003.png,,,,,,,,,,,,0,2,,,,,,,0,8,1,9,,,,,,,,,,,615.428,615.9308,616.179,619.8783,space,3.684,,619.8785,57,48,620.8788,620.8788,621.712,space,0.7844,,0,16,16,16,1,45,120,,,,,,,,
,,612c95f4a142b9dc63cc45a0,65af55fe4abd09284145a17a,2024-01-23_08h09.23.155,bars,2023.2.3,Win32,60.24096386,657b66ea316d21385b68909f,,,,,,,,,,,621.7127,622.7109,,,623.2111,623.461,,52,52,,,,,,,,,,,,,,,,bars/028.png,bars/mask006.png,,,,,,,,,,,,1,1,,,,,,,2,10,1,10,,,,,,,,,,,622.711,623.211,623.4612,629.2965,space,5.8169,,629.2967,7,68,630.2951,630.2953,634.1128,space,3.7718,,0,17,17,17,1,45,120,,,,,,,,
,,612c95f4a142b9dc63cc45a0,65af55fe4abd09284145a17a,2024-01-23_08h09.23.155,bars,2023.2.3,Win32,60.24096386,657b66ea316d21385b68909f,,,,,,,,,,,634.1413,635.1268,,,635.6269,635.877,,128,128,,,,,,,,,,,,,,,,bars/014.png,bars/mask006.png,,,,,,,,,,,,0,1,,,,,,,4,10,2,9,,,,,,,,,,,635.127,635.6267,635.8771,639.9607,space,4.0716,,639.9609,48,52,640.9611,640.9612,721.4239,space,80.4175,,0,18,18,18,1,80,0,,,,,,,,
,,612c95f4a142b9dc63cc45a0,65af55fe4abd09284145a17a,2024-01-23_08h09.23.155,bars,2023.2.3,Win32,60.24096386,657b66ea316d21385b68909f,,,,,,,,,,,721.4503,722.4405,,,722.9393,723.1752,,52,52,,,,,,,,,,,,,,,,bars/038.png,bars/mask007.png,,,,,,,,,,,,4,2,,,,,,,2,10,3,10,,,,,,,,,,,722.4406,722.9392,723.1754,730.7747,space,7.5828,,730.7749,67,18,731.773,731.7732,737.3556,space,5.5305,,0,19,19,19,1,165,70,,,,,,,,
,,612c95f4a142b9dc63cc45a0,65af55fe4abd09284145a17a,2024-01-23_08h09.23.155,bars,2023.2.3,Win32,60.24096386,657b66ea316d21385b68909f,,,,,,,,,,,737.3717,738.3748,,,738.8723,739.1222,,12,12,,,,,,,,,,,,,,,,bars/025.png,bars/mask008.png,,,,,,,,,,,,1,2,,,,,,,0,8,0,8,,,,,,,,,,,738.3749,738.872,739.1224,750.9577,space,11.8248,,750.9578,87,28,751.9542,751.9543,752.9737,space,0.9933,,0,20,20,20,1,105,40,,,,,,,,
,,612c95f4a142b9dc63cc45a0,65af55fe4abd09284145a17a,2024-01-23_08h09.23.155,bars,2023.2.3,Win32,60.24096386,657b66ea316d21385b68909f,,,,,,,,,,,752.9749,753.9715,,,754.4728,754.7237,,2,182,,,,,,,,,,,,,,,,bars/034.png,bars/mask004.png,,,,,,,,,,,,0,1,,,,,,,0,10,3,10,,,,,,,,,,,753.9718,754.4727,754.7237,759.0886,space,4.3537,,759.0889,57,63,760.0883,760.0884,768.4057,space,8.2683,,0,21,21,21,1,125,65,,,,,,,,
,,612c95f4a142b9dc63cc45a0,65af55fe4abd09284145a17a,2024-01-23_08h09.23.155,bars,2023.2.3,Win32,60.24096386,657b66ea316d21385b68909f,,,,,,,,,,,768.4359,769.4212,,,769.9215,770.1715,,120,120,,,,,,,,,,,,,,,,bars/001.png,bars/mask003.png,,,,,,,,,,,,2,1,,,,,,,2,10,3,9,,,,,,,,,,,769.4213,769.9214,770.1716,776.5393,space,6.3568,,776.5395,10,35,777.5378,777.5378,778.8897,space,1.3026,,0,22,22,22,1,130,85,,,,,,,,
,,612c95f4a142b9dc63cc45a0,65af55fe4abd09284145a17a,2024-01-23_08h09.23.155,bars,2023.2.3,Win32,60.24096386,657b66ea316d21385b68909f,,,,,,,,,,,778.8904,779.887,,,780.3868,780.6366,,39,39,,,,,,,,,,,,,,,,bars/011.png,bars/mask009.png,,,,,,,,,,,,0,2,,,,,,,0,8,0,8,,,,,,,,,,,779.887,780.3865,780.6367,784.1895,space,3.54,,784.1897,59,46,785.1869,785.187,788.1037,space,2.8675,,0,23,23,23,1,160,85,,,,,,,,
,,612c95f4a142b9dc63cc45a0,65af55fe4abd09284145a17a,2024-01-23_08h09.23.155,bars,2023.2.3,Win32,60.24096386,657b66ea316d21385b68909f,,,,,,,,,,,788.1261,789.1196,,,789.6223,789.8692,,153,153,,,,,,,,,,,,,,,,bars/022.png,bars/mask007.png,,,,,,,,,,,,0,2,,,,,,,2,10,1,10,,,,,,,,,,,789.1198,789.6222,789.8693,792.4539,space,2.5704,,792.4545,58,47,793.4537,793.4538,798.4203,space,4.9232,,0,24,24,24,1,95,20,,,,,,,,
,,612c95f4a142b9dc63cc45a0,65af55fe4abd09284145a17a,2024-01-23_08h09.23.155,bars,2023.2.3,Win32,60.24096386,657b66ea316d21385b68909f,,,,,,,,,,,798.448,799.4369,,,799.9363,800.1852,,10,190,,,,,,,,,,,,,,,,bars/017.png,bars/mask004.png,,,,,,,,,,,,0,2,,,,,,,4,8,3,8,,,,,,,,,,,799.437,799.9362,800.1852,807.3722,space,7.1805,,807.3724,45,35,808.3693,808.3694,854.6025,space,46.1911,,0,25,25,25,1,145,45,,,,,,,,
,,612c95f4a142b9dc63cc45a0,65af55fe4abd09284145a17a,2024-01-23_08h09.23.155,bars,2023.2.3,Win32,60.24096386,657b66ea316d21385b68909f,,,,,,,,,,,854.6292,855.6185,,,856.1194,856.3671,,36,36,,,,,,,,,,,,,,,,bars/037.png,bars/mask000.png,,,,,,,,,,,,0,1,,,,,,,6,10,6,9,,,,,,,,,,,855.6191,856.1194,856.3671,861.2671,space,4.8878,,861.2672,66,69,862.267,862.2671,865.317,space,2.989,,0,26,26,26,1,150,105,,,,,,,,
,,612c95f4a142b9dc63cc45a0,65af55fe4abd09284145a17a,2024-01-23_08h09.23.155,bars,2023.2.3,Win32,60.24096386,657b66ea316d21385b68909f,,,,,,,,,,,865.3459,866.3326,,,866.833,867.083,,5,185,,,,,,,,,,,,,,,,bars/021.png,bars/mask008.png,,,,,,,,,,,,0,1,,,,,,,4,10,5,10,,,,,,,,,,,866.3328,866.8328,867.0832,873.2016,space,6.1017,,873.202,30,65,874.1992,874.1994,879.5991,space,5.3522,,0,27,27,27,1,155,70,,,,,,,,
,,612c95f4a142b9dc63cc45a0,65af55fe4abd09284145a17a,2024-01-23_08h09.23.155,bars,2023.2.3,Win32,60.24096386,657b66ea316d21385b68909f,,,,,,,,,,,879.6276,880.6149,,,881.1159,881.3666,,40,40,,,,,,,,,,,,,,,,bars/044.png,bars/mask003.png,,,,,,,,,,,,0,1,,,,,,,6,10,7,10,,,,,,,,,,,880.615,881.1156,881.3667,884.1647,space,2.7879,,884.1648,35,65,885.166,885.1661,890.315,space,5.0981,,0,28,28,28,1,75,155,,,,,,,,
,,612c95f4a142b9dc63cc45a0,65af55fe4abd09284145a17a,2024-01-23_08h09.23.155,bars,2023.2.3,Win32,60.24096386,657b66ea316d21385b68909f,,,,,,,,,,,890.3226,891.3176,,,891.8143,892.0653,,126,-54,,,,,,,,,,,,,,,,bars/036.png,bars/mask007.png,,,,,,,,,,,,1,1,,,,,,,4,10,4,9,,,,,,,,,,,891.3177,891.8142,892.0656,897.2992,space,5.2223,,897.2996,19,74,898.2987,898.2989,903.3152,space,4.9688,,0,29,29,29,1,145,20,,,,,,,,
,,612c95f4a142b9dc63cc45a0,65af55fe4abd09284145a17a,2024-01-23_08h09.23.155,bars,2023.2.3,Win32,60.24096386,657b66ea316d21385b68909f,,,,,,,,,,,903.3452,904.3311,,,904.8312,905.0811,,31,31,,,,,,,,,,,,,,,,bars/034.png,bars/mask008.png,,,,,,,,,,,,0,2,,,,,,,6,8,6,8,,,,,,,,,,,904.3312,904.8311,905.0812,912.9839,space,7.8841,,912.9841,86,34,913.9806,913.9808,922.865,space,8.8326,,0,30,30,30,1,125,65,,,,,,,,
,,612c95f4a142b9dc63cc45a0,65af55fe4abd09284145a17a,2024-01-23_08h09.23.155,bars,2023.2.3,Win32,60.24096386,657b66ea316d21385b68909f,,,,,,,,,,,922.8969,923.8807,,,924.3821,924.6307,,128,128,,,,,,,,,,,,,,,,bars/049.png,bars/mask003.png,,,,,,,,,,,,3,2,,,,,,,4,6,5,6,,,,,,,,,,,923.8808,924.3821,924.6308,926.2001,space,1.5607,,926.2003,32,13,927.1965,927.1969,928.5809,space,1.3346,,0,31,31,31,1,160,115,,,,,,,,
,,612c95f4a142b9dc63cc45a0,65af55fe4abd09284145a17a,2024-01-23_08h09.23.155,bars,2023.2.3,Win32,60.24096386,657b66ea316d21385b68909f,,,,,,,,,,,928.5823,929.5801,,,930.0832,930.3305,,30,210,,,,,,,,,,,,,,,,bars/031.png,bars/mask008.png,,,,,,,,,,,,5,2,,,,,,,2,8,1,6,,,,,,,,,,,929.5801,930.0831,930.3306,936.2306,space,5.8845,,936.2307,90,5,937.2289,937.2291,940.9148,space,3.652,,0,32,32,32,1,120,35,,,,,,,,
,,612c95f4a142b9dc63cc45a0,65af55fe4abd09284145a17a,2024-01-23_08h09.23.155,bars,2023.2.3,Win32,60.24096386,657b66ea316d21385b68909f,,,,,,,,,,,940.94,941.9301,,,942.4296,942.6797,,153,153,,,,,,,,,,,,,,,,bars/023.png,bars/mask005.png,,,,,,,,,,,,0,2,,,,,,,0,6,0,6,,,,,,,,,,,941.9303,942.4295,942.6798,947.7152,space,5.0201,,947.7152,47,38,948.7125,948.7125,951.1805,space,2.4348,,0,33,33,33,1,20,115,,,,,,,,
,,612c95f4a142b9dc63cc45a0,65af55fe4abd09284145a17a,2024-01-23_08h09.23.155,bars,2023.2.3,Win32,60.24096386,657b66ea316d21385b68909f,,,,,,,,,,,951.2086,952.1955,,,952.6975,952.9457,,34,214,,,,,,,,,,,,,,,,bars/029.png,bars/mask001.png,,,,,,,,,,,,6,2,,,,,,,2,8,3,9,,,,,,,,,,,952.1957,952.6974,952.9458,960.7821,space,7.826,,960.7823,56,11,961.7788,961.7788,962.9453,space,1.1242,,0,34,34,34,1,90,45,,,,,,,,
,,612c95f4a142b9dc63cc45a0,65af55fe4abd09284145a17a,2024-01-23_08h09.23.155,bars,2023.2.3,Win32,60.24096386,657b66ea316d21385b68909f,,,,,,,,,,,962.9464,963.945,,,964.4448,964.6946,,29,209,,,,,,,,,,,,,,,,bars/010.png,bars/mask008.png,,,,,,,,,,,,1,2,,,,,,,0,10,0,9,,,,,,,,,,,963.9451,964.4447,964.6947,970.9963,space,6.2911,,970.9965,44,26,971.9946,971.9947,989.0295,space,17.0059,,0,35,35,35,1,165,55,,,,,,,,
,,612c95f4a142b9dc63cc45a0,65af55fe4abd09284145a17a,2024-01-23_08h09.23.155,bars,2023.2.3,Win32,60.24096386,657b66ea316d21385b68909f,,,,,,,,,,,989.0615,990.044,,,990.5463,990.7938,,58,238,,,,,,,,,,,,,,,,bars/000.png,bars/mask006.png,,,,,,,,,,,,0,1,,,,,,,0,8,0,9,,,,,,,,,,,990.0441,990.546,990.7939,998.0121,space,7.2021,,998.0124,18,87,999.0106,999.0108,999.9615,space,0.8947,,0,36,36,36,1,40,145,,,,,,,,
,,612c95f4a142b9dc63cc45a0,65af55fe4abd09284145a17a,2024-01-23_08h09.23.155,bars,2023.2.3,Win32,60.24096386,657b66ea316d21385b68909f,,,,,,,,,,,999.9627,1000.9596,,,1001.4594,1001.7098,,119,119,,,,,,,,,,,,,,,,bars/011.png,bars/mask005.png,,,,,,,,,,,,0,2,,,,,,,2,6,3,6,,,,,,,,,,,1000.9596,1001.4593,1001.71,1002.8108,space,1.0855,,1002.811,41,34,1003.8097,1003.8099,1005.1108,space,1.277,,0,37,37,37,1,160,85,,,,,,,,
,,612c95f4a142b9dc63cc45a0,65af55fe4abd09284145a17a,2024-01-23_08h09.23.155,bars,2023.2.3,Win32,60.24096386,657b66ea316d21385b68909f,,,,,,,,,,,1005.1122,1006.1097,,,1006.6098,1006.8613,,105,105,,,,,,,,,,,,,,,,bars/040.png,bars/mask004.png,,,,,,,,,,,,0,1,,,,,,,4,8,4,7,,,,,,,,,,,1006.1098,1006.6096,1006.8615,1008.4592,space,1.5868,,1008.4593,35,80,1009.4598,1009.46,1010.4104,space,0.9073,,0,38,38,38,1,140,5,,,,,,,,
,,612c95f4a142b9dc63cc45a0,65af55fe4abd09284145a17a,2024-01-23_08h09.23.155,bars,2023.2.3,Win32,60.24096386,657b66ea316d21385b68909f,,,,,,,,,,,1010.4121,1011.4093,,,1011.9097,1012.1594,,142,142,,,,,,,,,,,,,,,,bars/004.png,bars/mask005.png,,,,,,,,,,,,3,2,,,,,,,2,6,1,6,,,,,,,,,,,1011.4095,1011.9096,1012.1595,1012.8266,space,0.6573,,1012.8272,63,17,1013.8255,1013.8256,1014.543,space,0.7035,,0,39,39,39,1,25,125,,,,,,,,
,,612c95f4a142b9dc63cc45a0,65af55fe4abd09284145a17a,2024-01-23_08h09.23.155,bars,2023.2.3,Win32,60.24096386,657b66ea316d21385b68909f,,,,,,,,,,,1014.544,1015.5431,,,1016.0426,1016.2927,,120,120,,,,,,,,,,,,,,,,bars/023.png,bars/mask006.png,,,,,,,,,,,,3,2,,,,,,,0,4,0,3,,,,,,,,,,,1015.5433,1016.0425,1016.2945,1019.043,space,2.7344,,1019.0433,80,5,1020.0417,1020.0417,1021.1086,space,1.0514,,0,40,40,40,1,20,115,,,,,,,,
,,612c95f4a142b9dc63cc45a0,65af55fe4abd09284145a17a,2024-01-23_08h09.23.155,bars,2023.2.3,Win32,60.24096386,657b66ea316d21385b68909f,,,,,,,,,,,1021.1093,1022.1109,,,1022.6099,1022.8587,,126,126,,,,,,,,,,,,,,,,bars/011.png,bars/mask000.png,,,,,,,,,,,,0,1,,,,,,,2,6,1,5,,,,,,,,,,,1022.1109,1022.6096,1022.859,1026.7759,space,3.9027,,1026.7765,34,41,1027.7749,1027.775,1029.7918,space,1.9768,,0,41,41,41,1,160,85,,,,,,,,
,,612c95f4a142b9dc63cc45a0,65af55fe4abd09284145a17a,2024-01-23_08h09.23.155,bars,2023.2.3,Win32,60.24096386,657b66ea316d21385b68909f,,,,,,,,,,,1029.7923,1030.7945,,,1031.2943,1031.5419,,178,178,,,,,,,,,,,,,,,,bars/003.png,bars/mask008.png,,,,,,,,,,,,0,1,,,,,,,4,8,4,7,,,,,,,,,,,1030.7945,1031.2942,1031.542,1033.3425,space,1.7861,,1033.3428,27,38,1034.3415,1034.3418,1035.5442,space,1.1804,,0,42,42,42,1,25,140,,,,,,,,
,,612c95f4a142b9dc63cc45a0,65af55fe4abd09284145a17a,2024-01-23_08h09.23.155,bars,2023.2.3,Win32,60.24096386,657b66ea316d21385b68909f,,,,,,,,,,,1035.5454,1036.5414,,,1037.0415,1037.2921,,140,140,,,,,,,,,,,,,,,,bars/006.png,bars/mask001.png,,,,,,,,,,,,0,2,,,,,,,2,6,3,5,,,,,,,,,,,1036.5415,1037.0415,1037.2921,1043.2253,space,5.9196,,1043.2258,75,40,1044.2246,1044.2246,1046.3101,space,2.0367,,0,43,43,43,1,35,100,,,,,,,,
,,612c95f4a142b9dc63cc45a0,65af55fe4abd09284145a17a,2024-01-23_08h09.23.155,bars,2023.2.3,Win32,60.24096386,657b66ea316d21385b68909f,,,,,,,,,,,1046.311,1047.3077,,,1047.8087,1048.0579,,178,178,,,,,,,,,,,,,,,,bars/044.png,bars/mask000.png,,,,,,,,,,,,2,2,,,,,,,4,8,6,9,,,,,,,,,,,1047.3077,1047.8086,1048.058,1050.6077,space,2.533,,1050.6079,77,23,1051.6101,1051.6101,1052.3087,space,0.665,,0,44,44,44,1,75,155,,,,,,,,
,,612c95f4a142b9dc63cc45a0,65af55fe4abd09284145a17a,2024-01-23_08h09.23.155,bars,2023.2.3,Win32,60.24096386,657b66ea316d21385b68909f,,,,,,,,,,,1052.3104,1053.307,,,1053.8091,1054.0581,,45,225,,,,,,,,,,,,,,,,bars/021.png,bars/mask006.png,,,,,,,,,,,,1,2,,,,,,,2,6,1,6,,,,,,,,,,,1053.3071,1053.809,1054.0581,1061.4286,space,7.3531,,1061.4287,70,25,1062.4231,1062.4231,1063.3235,space,0.8755,,0,45,45,45,1,155,70,,,,,,,,
,,612c95f4a142b9dc63cc45a0,65af55fe4abd09284145a17a,2024-01-23_08h09.23.155,bars,2023.2.3,Win32,60.24096386,657b66ea316d21385b68909f,,,,,,,,,,,1063.3242,1064.3228,,,1064.8231,1065.0729,,121,121,,,,,,,,,,,,,,,,bars/026.png,bars/mask002.png,,,,,,,,,,,,0,2,,,,,,,4,8,4,7,,,,,,,,,,,1064.3229,1064.823,1065.073,1066.1922,space,1.1056,,1066.1924,86,36,1067.1898,1067.19,1067.8256,space,0.5854,,0,46,46,46,1,35,85,,,,,,,,
,,612c95f4a142b9dc63cc45a0,65af55fe4abd09284145a17a,2024-01-23_08h09.23.155,bars,2023.2.3,Win32,60.24096386,657b66ea316d21385b68909f,,,,,,,,,,,1067.8269,1068.8236,,,1069.3258,1069.5756,,46,46,,,,,,,,,,,,,,,,bars/011.png,bars/mask006.png,,,,,,,,,,,,0,2,,,,,,,6,6,7,5,,,,,,,,,,,1068.8238,1069.3257,1069.5757,1073.2424,space,3.6594,,1073.2427,66,39,1074.2404,1074.2405,1075.0079,space,0.7225,,0,47,47,47,1,160,85,,,,,,,,
,,612c95f4a142b9dc63cc45a0,65af55fe4abd09284145a17a,2024-01-23_08h09.23.155,bars,2023.2.3,Win32,60.24096386,657b66ea316d21385b68909f,,,,,,,,,,,1075.0099,1076.008,,,1076.5065,1076.7556,,172,172,,,,,,,,,,,,,,,,bars/009.png,bars/mask006.png,,,,,,,,,,,,2,1,,,,,,,8,8,7,10,,,,,,,,,,,1076.0085,1076.5064,1076.7557,1079.3904,space,2.6221,,1079.3906,23,67,1080.3897,1080.3898,1081.3572,space,0.9111,,0,48,48,48,1,15,105,,,,,,,,
,,612c95f4a142b9dc63cc45a0,65af55fe4abd09284145a17a,2024-01-23_08h09.23.155,bars,2023.2.3,Win32,60.24096386,657b66ea316d21385b68909f,,,,,,,,,,,1081.3589,1082.3561,,,1082.8557,1083.1068,,174,-6,,,,,,,,,,,,,,,,bars/022.png,bars/mask006.png,,,,,,,,,,,,1,2,,,,,,,10,6,10,6,,,,,,,,,,,1082.3563,1082.8555,1083.1069,1089.1388,space,6.0173,,1089.139,79,26,1090.1394,1090.1395,1095.4567,space,5.2646,,0,49,49,49,1,95,20,,,,,,,,
,,612c95f4a142b9dc63cc45a0,65af55fe4abd09284145a17a,2024-01-23_08h09.23.155,bars,2023.2.3,Win32,60.24096386,657b66ea316d21385b68909f,,,,,,,,,,,,,,,,,,,,,,,,,,,,,,,,,,,,,,,,,,,,,,,,,,,,,,,,,,,,,,,,,,,,,,,,,,,,,,,,,,,,,,,,,,,,,1095.488,1155.4703,0,0,0,2,1,sequence_tables/blk049.csv
,,612c95f4a142b9dc63cc45a0,65af55fe4abd09284145a17a,2024-01-23_08h09.23.155,bars,2023.2.3,Win32,60.24096386,657b66ea316d21385b68909f,,,,,,,,,,,1266.4658,1267.4481,,,1267.9472,1268.1975,,167,167,,,,,,,,,,,,,,,,bars/047.png,bars/mask000.png,,,,,,,,,,,,0,1,,,,,,,5,5,5,6,,,,,,1155.4803,1266.433,space,110.9398,,1267.4483,1267.9469,1268.1975,1270.2816,space,2.0702,,1270.2817,28,83,1271.2804,1271.2806,1271.3141,,,,0,0,0,0,1,15,70,,,,,,,,
,,612c95f4a142b9dc63cc45a0,65af55fe4abd09284145a17a,2024-01-23_08h09.23.155,bars,2023.2.3,Win32,60.24096386,657b66ea316d21385b68909f,,,,,,,,,,,1271.3146,1272.3137,,,1272.8138,1273.0639,,39,39,,,,,,,,,,,,,,,,bars/008.png,bars/mask006.png,,,,,,,,,,,,0,2,,,,,,,3,3,1,3,,,,,,,,,,,1272.3137,1272.8137,1273.0641,1274.4984,space,1.4202,,1274.4989,71,39,1275.4986,1275.4988,1275.5034,,,,0,1,1,1,1,110,0,,,,,,,,
,,612c95f4a142b9dc63cc45a0,65af55fe4abd09284145a17a,2024-01-23_08h09.23.155,bars,2023.2.3,Win32,60.24096386,657b66ea316d21385b68909f,,,,,,,,,,,1275.5039,1276.5005,,,1277.0015,1277.2484,,91,91,,,,,,,,,,,,,,,,bars/034.png,bars/mask007.png,,,,,,,,,,,,1,2,,,,,,,1,5,2,7,,,,,,,,,,,1276.5006,1277.0014,1277.2485,1280.0971,space,2.834,,1280.0975,34,26,1281.0964,1281.0965,1281.1167,,,,0,2,2,2,1,125,65,,,,,,,,
,,612c95f4a142b9dc63cc45a0,65af55fe4abd09284145a17a,2024-01-23_08h09.23.155,bars,2023.2.3,Win32,60.24096386,657b66ea316d21385b68909f,,,,,,,,,,,1281.117,1282.1132,,,1282.6143,1282.8643,,113,113,,,,,,,,,,,,,,,,bars/000.png,bars/mask008.png,,,,,,,,,,,,0,2,,,,,,,0,7,0,9,,,,,,,,,,,1282.1142,1282.6142,1282.8644,1284.3817,space,1.5102,,1284.3819,73,32,1285.3807,1285.3807,1285.3833,,,,0,3,3,3,1,40,145,,,,,,,,
,,612c95f4a142b9dc63cc45a0,65af55fe4abd09284145a17a,2024-01-23_08h09.23.155,bars,2023.2.3,Win32,60.24096386,657b66ea316d21385b68909f,,,,,,,,,,,1285.3837,1286.3798,,,1286.8793,1287.1299,,134,134,,,,,,,,,,,,,,,,bars/041.png,bars/mask005.png,,,,,,,,,,,,0,2,,,,,,,0,5,2,4,,,,,,,,,,,1286.3799,1286.8792,1287.1299,1288.7966,space,1.649,,1288.7967,66,49,1289.7968,1289.7968,1289.7988,,,,0,4,4,4,1,20,85,,,,,,,,
,,612c95f4a142b9dc63cc45a0,65af55fe4abd09284145a17a,2024-01-23_08h09.23.155,bars,2023.2.3,Win32,60.24096386,657b66ea316d21385b68909f,,,,,,,,,,,1289.7992,1290.7963,,,1291.2966,1291.547,,55,55,,,,,,,,,,,,,,,,bars/022.png,bars/mask006.png,,,,,,,,,,,,0,2,,,,,,,2,7,3,8,,,,,,,,,,,1290.7964,1291.2965,1291.5473,1293.248,space,1.6857,,1293.2481,40,35,1294.2457,1294.2457,1294.2477,,,,0,5,5,5,1,95,20,,,,,,,,
,,612c95f4a142b9dc63cc45a0,65af55fe4abd09284145a17a,2024-01-23_08h09.23.155,bars,2023.2.3,Win32,60.24096386,657b66ea316d21385b68909f,,,,,,,,,,,1294.2488,1295.2458,,,1295.7471,1295.9975,,97,97,,,,,,,,,,,,,,,,bars/041.png,bars/mask005.png,,,,,,,,,,,,6,2,,,,,,,4,9,4,10,,,,,,,,,,,1295.2458,1295.7471,1295.9975,1314.4963,space,18.485,,1314.4966,77,12,1315.4952,1315.4954,1315.526,,,,0,6,6,6,1,20,85,,,,,,,,
,,612c95f4a142b9dc63cc45a0,65af55fe4abd09284145a17a,2024-01-23_08h09.23.155,bars,2023.2.3,Win32,60.24096386,657b66ea316d21385b68909f,,,,,,,,,,,1315.5264,1316.5296,,,1317.0293,1317.2786,,172,172,,,,,,,,,,,,,,,,bars/043.png,bars/mask003.png,,,,,,,,,,,,0,1,,,,,,,2,10,1,9,,,,,,,,,,,1316.5298,1317.0292,1317.2786,1371.7112,space,54.4163,,1371.7114,38,42,1372.7099,1372.7099,1372.7472,,,,0,7,7,7,1,30,130,,,,,,,,
,,612c95f4a142b9dc63cc45a0,65af55fe4abd09284145a17a,2024-01-23_08h09.23.155,bars,2023.2.3,Win32,60.24096386,657b66ea316d21385b68909f,,,,,,,,,,,1372.7478,1373.7431,,,1374.2431,1374.4928,,52,232,,,,,,,,,,,,,,,,bars/013.png,bars/mask002.png,,,,,,,,,,,,0,1,,,,,,,4,8,2,8,,,,,,,,,,,1373.7431,1374.2429,1374.4928,1380.5099,space,6.0012,,1380.51,23,42,1381.5093,1381.5094,1381.5386,,,,0,8,8,8,1,75,10,,,,,,,,
,,612c95f4a142b9dc63cc45a0,65af55fe4abd09284145a17a,2024-01-23_08h09.23.155,bars,2023.2.3,Win32,60.24096386,657b66ea316d21385b68909f,,,,,,,,,,,1381.5389,1382.5416,,,1383.0423,1383.2922,,139,139,,,,,,,,,,,,,,,,bars/045.png,bars/mask005.png,,,,,,,,,,,,0,1,,,,,,,6,6,7,7,,,,,,,,,,,1382.5417,1383.0422,1383.2923,1385.7093,space,2.4004,,1385.7096,39,51,1386.7085,1386.7087,1386.7124,,,,0,9,9,9,1,100,10,,,,,,,,
,,612c95f4a142b9dc63cc45a0,65af55fe4abd09284145a17a,2024-01-23_08h09.23.155,bars,2023.2.3,Win32,60.24096386,657b66ea316d21385b68909f,,,,,,,,,,,1386.7133,1387.7084,,,1388.2084,1388.4585,,59,59,,,,,,,,,,,,,,,,bars/005.png,bars/mask000.png,,,,,,,,,,,,0,1,,,,,,,4,4,3,6,,,,,,,,,,,1387.7086,1388.2084,1388.4587,1391.1937,space,2.7186,,1391.1938,49,81,1392.1917,1392.1918,1392.2235,,,,0,10,10,10,1,10,140,,,,,,,,
,,612c95f4a142b9dc63cc45a0,65af55fe4abd09284145a17a,2024-01-23_08h09.23.155,bars,2023.2.3,Win32,60.24096386,657b66ea316d21385b68909f,,,,,,,,,,,1392.2242,1393.225,,,1393.7249,1393.976,,70,70,,,,,,,,,,,,,,,,bars/019.png,bars/mask004.png,,,,,,,,,,,,1,1,,,,,,,6,6,6,8,,,,,,,,,,,1393.2251,1393.7249,1393.9761,1395.3627,space,1.378,,1395.3628,25,35,1396.3582,1396.3584,1396.3615,,,,0,11,11,11,1,45,105,,,,,,,,
,,612c95f4a142b9dc63cc45a0,65af55fe4abd09284145a17a,2024-01-23_08h09.23.155,bars,2023.2.3,Win32,60.24096386,657b66ea316d21385b68909f,,,,,,,,,,,1396.3625,1397.3586,,,1397.8584,1398.108,,89,89,,,,,,,,,,,,,,,,bars/022.png,bars/mask006.png,,,,,,,,,,,,6,1,,,,,,,8,8,8,7,,,,,,,,,,,1397.3588,1397.8582,1398.1082,1400.2579,space,2.1309,,1400.258,6,69,1401.2472,1401.2472,1401.2669,,,,0,12,12,12,1,95,20,,,,,,,,
,,612c95f4a142b9dc63cc45a0,65af55fe4abd09284145a17a,2024-01-23_08h09.23.155,bars,2023.2.3,Win32,60.24096386,657b66ea316d21385b68909f,,,,,,,,,,,1401.2672,1402.2597,,,1402.7621,1403.0088,,27,27,,,,,,,,,,,,,,,,bars/020.png,bars/mask000.png,,,,,,,,,,,,0,2,,,,,,,10,6,10,3,,,,,,,,,,,1402.2599,1402.7621,1403.0091,1407.3418,space,4.3181,,1407.3421,88,37,1408.3414,1408.3414,1408.3743,,,,0,13,13,13,1,115,170,,,,,,,,
,,612c95f4a142b9dc63cc45a0,65af55fe4abd09284145a17a,2024-01-23_08h09.23.155,bars,2023.2.3,Win32,60.24096386,657b66ea316d21385b68909f,,,,,,,,,,,1408.3747,1409.3742,,,1409.8744,1410.125,,83,83,,,,,,,,,,,,,,,,bars/045.png,bars/mask003.png,,,,,,,,,,,,3,1,,,,,,,10,4,8,5,,,,,,,,,,,1409.3743,1409.8742,1410.1254,1423.5591,space,13.4179,,1423.5593,17,73,1424.5564,1424.5565,1424.5758,,,,0,14,14,14,1,100,10,,,,,,,,
,,612c95f4a142b9dc63cc45a0,65af55fe4abd09284145a17a,2024-01-23_08h09.23.155,bars,2023.2.3,Win32,60.24096386,657b66ea316d21385b68909f,,,,,,,,,,,1424.5762,1425.5738,,,1426.0737,1426.3253,,153,153,,,,,,,,,,,,,,,,bars/048.png,bars/mask002.png,,,,,,,,,,,,1,2,,,,,,,10,6,10,5,,,,,,,,,,,1425.5739,1426.0736,1426.3254,1432.2903,space,5.9532,,1432.2906,77,22,1433.2898,1433.2898,1433.3245,,,,0,15,15,15,1,50,175,,,,,,,,
,,612c95f4a142b9dc63cc45a0,65af55fe4abd09284145a17a,2024-01-23_08h09.23.155,bars,2023.2.3,Win32,60.24096386,657b66ea316d21385b68909f,,,,,,,,,,,1433.3251,1434.3233,,,1434.8227,1435.0734,,164,164,,,,,,,,,,,,,,,,bars/025.png,bars/mask005.png,,,,,,,,,,,,0,2,,,,,,,10,8,10,9,,,,,,,,,,,1434.3233,1434.8226,1435.0735,1438.2567,space,3.1681,,1438.2572,59,56,1439.2553,1439.2554,1439.269,,,,0,16,16,16,1,105,40,,,,,,,,
,,612c95f4a142b9dc63cc45a0,65af55fe4abd09284145a17a,2024-01-23_08h09.23.155,bars,2023.2.3,Win32,60.24096386,657b66ea316d21385b68909f,,,,,,,,,,,1439.2692,1440.2733,,,1440.7739,1441.0243,,126,126,,,,,,,,,,,,,,,,bars/020.png,bars/mask000.png,,,,,,,,,,,,5,1,,,,,,,8,10,8,8,,,,,,,,,,,1440.2734,1440.7739,1441.0244,1913.0839,space,472.0471,,1913.084,11,44,1914.0835,1914.0836,1914.0889,,,,0,17,17,17,1,115,170,,,,,,,,
,,612c95f4a142b9dc63cc45a0,65af55fe4abd09284145a17a,2024-01-23_08h09.23.155,bars,2023.2.3,Win32,60.24096386,657b66ea316d21385b68909f,,,,,,,,,,,1914.0892,1915.0842,,,1915.5843,1915.8167,,29,29,,,,,,,,,,,,,,,,bars/025.png,bars/mask000.png,,,,,,,,,,,,6,2,,,,,,,6,8,4,9,,,,,,,,,,,1915.0845,1915.584,1915.8167,1919.9167,space,4.0892,,1919.9168,76,11,1920.9174,1920.9175,1920.9396,,,,0,18,18,18,1,105,40,,,,,,,,
,,612c95f4a142b9dc63cc45a0,65af55fe4abd09284145a17a,2024-01-23_08h09.23.155,bars,2023.2.3,Win32,60.24096386,657b66ea316d21385b68909f,,,,,,,,,,,1920.94,1921.9337,,,1922.4341,1922.6832,,136,136,,,,,,,,,,,,,,,,bars/014.png,bars/mask008.png,,,,,,,,,,,,0,2,,,,,,,4,6,5,5,,,,,,,,,,,1921.9338,1922.434,1922.6833,1926.6165,space,3.9215,,1926.6167,56,44,1927.6165,1927.6166,1927.6441,,,,0,19,19,19,1,80,0,,,,,,,,
,,612c95f4a142b9dc63cc45a0,65af55fe4abd09284145a17a,2024-01-23_08h09.23.155,bars,2023.2.3,Win32,60.24096386,657b66ea316d21385b68909f,,,,,,,,,,,1927.6445,1928.6335,,,1929.134,1929.3841,,7,187,,,,,,,,,,,,,,,,bars/046.png,bars/mask004.png,,,,,,,,,,,,0,1,,,,,,,6,8,7,9,,,,,,,,,,,1928.6336,1929.134,1929.3841,1931.0173,space,1.6239,,1931.0174,32,78,1932.0164,1932.0164,1932.0189,,,,0,20,20,20,1,155,85,,,,,,,,
,,612c95f4a142b9dc63cc45a0,65af55fe4abd09284145a17a,2024-01-23_08h09.23.155,bars,2023.2.3,Win32,60.24096386,657b66ea316d21385b68909f,,,,,,,,,,,1932.019,1933.018,,,1933.5189,1933.7694,,122,122,,,,,,,,,,,,,,,,bars/039.png,bars/mask006.png,,,,,,,,,,,,4,2,,,,,,,4,10,5,10,,,,,,,,,,,1933.0181,1933.5187,1933.7694,1934.936,space,1.1501,,1934.9361,53,17,1935.9338,1935.9339,1935.9369,,,,0,21,21,21,1,175,105,,,,,,,,
,,612c95f4a142b9dc63cc45a0,65af55fe4abd09284145a17a,2024-01-23_08h09.23.155,bars,2023.2.3,Win32,60.24096386,657b66ea316d21385b68909f,,,,,,,,,,,1935.9372,1936.9366,,,1937.4367,1937.6847,,89,89,,,,,,,,,,,,,,,,bars/006.png,bars/mask000.png,,,,,,,,,,,,6,2,,,,,,,2,8,2,10,,,,,,,,,,,1936.9366,1937.4366,1937.6848,1941.6002,space,3.9015,,1941.6003,54,11,1942.6012,1942.6012,1942.6249,,,,0,22,22,22,1,35,100,,,,,,,,
,,612c95f4a142b9dc63cc45a0,65af55fe4abd09284145a17a,2024-01-23_08h09.23.155,bars,2023.2.3,Win32,60.24096386,657b66ea316d21385b68909f,,,,,,,,,,,1942.6253,1943.6164,,,1944.1181,1944.3675,,21,201,,,,,,,,,,,,,,,,bars/037.png,bars/mask002.png,,,,,,,,,,,,0,1,,,,,,,0,6,0,6,,,,,,,,,,,1943.6165,1944.1181,1944.3678,1946.0341,space,1.6513,,1946.0346,51,84,1947.0332,1947.0333,1947.0685,,,,0,23,23,23,1,150,105,,,,,,,,
,,612c95f4a142b9dc63cc45a0,65af55fe4abd09284145a17a,2024-01-23_08h09.23.155,bars,2023.2.3,Win32,60.24096386,657b66ea316d21385b68909f,,,,,,,,,,,1947.0692,1948.0696,,,1948.5653,1948.8159,,136,136,,,,,,,,,,,,,,,,bars/032.png,bars/mask003.png,,,,,,,,,,,,1,1,,,,,,,2,8,2,9,,,,,,,,,,,1948.0697,1948.5651,1948.816,1951.2353,space,2.4027,,1951.2354,11,64,1952.2317,1952.2318,1952.2538,,,,0,24,24,24,1,125,20,,,,,,,,
,,612c95f4a142b9dc63cc45a0,65af55fe4abd09284145a17a,2024-01-23_08h09.23.155,bars,2023.2.3,Win32,60.24096386,657b66ea316d21385b68909f,,,,,,,,,,,1952.2541,1953.2493,,,1953.7487,1953.9984,,143,143,,,,,,,,,,,,,,,,bars/035.png,bars/mask003.png,,,,,,,,,,,,0,1,,,,,,,0,10,0,10,,,,,,,,,,,1953.2494,1953.7486,1953.9984,1959.9653,space,5.9616,,1959.9655,32,83,1960.9648,1960.9649,1960.9952,,,,0,25,25,25,1,175,60,,,,,,,,
,,612c95f4a142b9dc63cc45a0,65af55fe4abd09284145a17a,2024-01-23_08h09.23.155,bars,2023.2.3,Win32,60.24096386,657b66ea316d21385b68909f,,,,,,,,,,,1960.9956,1961.9993,,,1962.4986,1962.7487,,59,59,,,,,,,,,,,,,,,,bars/033.png,bars/mask008.png,,,,,,,,,,,,0,1,,,,,,,0,8,0,9,,,,,,,,,,,1961.9994,1962.4986,1962.7488,1964.7148,space,1.958,,1964.7149,34,84,1965.7147,1965.7148,1965.7313,,,,0,26,26,26,1,25,155,,,,,,,,
,,612c95f4a142b9dc63cc45a0,65af55fe4abd09284145a17a,2024-01-23_08h09.23.155,bars,2023.2.3,Win32,60.24096386,657b66ea316d21385b68909f,,,,,,,,,,,1965.7317,1966.7315,,,1967.231,1967.4814,,155,155,,,,,,,,,,,,,,,,bars/005.png,bars/mask003.png,,,,,,,,,,,,3,2,,,,,,,0,6,3,5,,,,,,,,,,,1966.7316,1967.231,1967.4814,1975.1818,space,7.6863,,1975.1819,35,15,1976.1814,1976.1814,1976.2039,,,,0,27,27,27,1,10,140,,,,,,,,
,,612c95f4a142b9dc63cc45a0,65af55fe4abd09284145a17a,2024-01-23_08h09.23.155,bars,2023.2.3,Win32,60.24096386,657b66ea316d21385b68909f,,,,,,,,,,,1976.2044,1977.1977,,,1977.6979,1977.95,,148,148,,,,,,,,,,,,,,,,bars/030.png,bars/mask001.png,,,,,,,,,,,,1,1,,,,,,,0,8,1,8,,,,,,,,,,,1977.1978,1977.6979,1977.9501,1980.5338,space,2.5685,,1980.5341,8,83,1981.5321,1981.5322,1981.5726,,,,0,28,28,28,1,140,65,,,,,,,,
,,612c95f4a142b9dc63cc45a0,65af55fe4abd09284145a17a,2024-01-23_08h09.23.155,bars,2023.2.3,Win32,60.24096386,657b66ea316d21385b68909f,,,,,,,,,,,1981.5729,1982.5642,,,1983.065,1983.3143,,90,90,,,,,,,,,,,,,,,,bars/023.png,bars/mask005.png,,,,,,,,,,,,1,2,,,,,,,0,6,2,8,,,,,,,,,,,1982.5644,1983.0649,1983.3144,1984.9833,space,1.6611,,1984.9834,70,25,1985.9803,1985.9803,1985.9849,,,,0,29,29,29,1,20,115,,,,,,,,
,,612c95f4a142b9dc63cc45a0,65af55fe4abd09284145a17a,2024-01-23_08h09.23.155,bars,2023.2.3,Win32,60.24096386,657b66ea316d21385b68909f,,,,,,,,,,,1985.9853,1986.9808,,,1987.484,1987.7305,,74,74,,,,,,,,,,,,,,,,bars/025.png,bars/mask007.png,,,,,,,,,,,,0,1,,,,,,,0,8,0,7,,,,,,,,,,,1986.9811,1987.4838,1987.7307,2004.1797,space,16.4348,,2004.1797,31,34,2005.1804,2005.1805,2005.2168,,,,0,30,30,30,1,105,40,,,,,,,,
,,612c95f4a142b9dc63cc45a0,65af55fe4abd09284145a17a,2024-01-23_08h09.23.155,bars,2023.2.3,Win32,60.24096386,657b66ea316d21385b68909f,,,,,,,,,,,2005.2174,2006.213,,,2006.7136,2006.9635,,78,78,,,,,,,,,,,,,,,,bars/038.png,bars/mask002.png,,,,,,,,,,,,7,2,,,,,,,2,10,0,10,,,,,,,,,,,2006.2131,2006.7135,2006.9636,2009.9837,space,3.0111,,2009.9838,87,8,2010.9795,2010.9796,2011.0154,,,,0,31,31,31,1,165,70,,,,,,,,
,,612c95f4a142b9dc63cc45a0,65af55fe4abd09284145a17a,2024-01-23_08h09.23.155,bars,2023.2.3,Win32,60.24096386,657b66ea316d21385b68909f,,,,,,,,,,,2011.0159,2012.0128,,,2012.5126,2012.7624,,119,119,,,,,,,,,,,,,,,,bars/002.png,bars/mask009.png,,,,,,,,,,,,3,1,,,,,,,4,10,5,9,,,,,,,,,,,2012.0129,2012.5124,2012.7626,2015.9294,space,3.1598,,2015.9295,11,34,2016.9292,2016.9293,2016.9713,,,,0,32,32,32,1,130,85,,,,,,,,
,,612c95f4a142b9dc63cc45a0,65af55fe4abd09284145a17a,2024-01-23_08h09.23.155,bars,2023.2.3,Win32,60.24096386,657b66ea316d21385b68909f,,,,,,,,,,,2016.9719,2017.9631,,,2018.4626,2018.7126,,111,111,,,,,,,,,,,,,,,,bars/047.png,bars/mask001.png,,,,,,,,,,,,0,2,,,,,,,6,8,7,8,,,,,,,,,,,2017.9631,2018.4626,2018.7127,2021.9997,space,3.2778,,2021.9999,84,41,2022.9949,2022.995,2023.0086,,,,0,33,33,33,1,15,70,,,,,,,,
,,612c95f4a142b9dc63cc45a0,65af55fe4abd09284145a17a,2024-01-23_08h09.23.155,bars,2023.2.3,Win32,60.24096386,657b66ea316d21385b68909f,,,,,,,,,,,2023.0088,2024.0129,,,2024.5114,2024.7614,,154,154,,,,,,,,,,,,,,,,bars/023.png,bars/mask002.png,,,,,,,,,,,,0,2,,,,,,,4,6,4,7,,,,,,,,,,,2024.013,2024.5113,2024.7614,2031.8119,space,7.043,,2031.8123,46,39,2032.8119,2032.812,2032.8458,,,,0,34,34,34,1,20,115,,,,,,,,
,,612c95f4a142b9dc63cc45a0,65af55fe4abd09284145a17a,2024-01-23_08h09.23.155,bars,2023.2.3,Win32,60.24096386,657b66ea316d21385b68909f,,,,,,,,,,,2032.8463,2033.8452,,,2034.3446,2034.5979,,11,191,,,,,,,,,,,,,,,,bars/039.png,bars/mask000.png,,,,,,,,,,,,3,1,,,,,,,6,8,6,7,,,,,,,,,,,2033.8453,2034.3445,2034.5979,2038.2455,space,3.633,,2038.2468,16,86,2039.2449,2039.245,2039.28,,,,0,35,35,35,1,175,105,,,,,,,,
,,612c95f4a142b9dc63cc45a0,65af55fe4abd09284145a17a,2024-01-23_08h09.23.155,bars,2023.2.3,Win32,60.24096386,657b66ea316d21385b68909f,,,,,,,,,,,2039.2805,2040.2787,,,2040.7788,2041.0278,,134,134,,,,,,,,,,,,,,,,bars/006.png,bars/mask008.png,,,,,,,,,,,,0,2,,,,,,,8,10,7,9,,,,,,,,,,,2040.2788,2040.7787,2041.028,2045.4943,space,4.4557,,2045.4943,81,34,2046.4946,2046.4955,2046.5217,,,,0,36,36,36,1,35,100,,,,,,,,
,,612c95f4a142b9dc63cc45a0,65af55fe4abd09284145a17a,2024-01-23_08h09.23.155,bars,2023.2.3,Win32,60.24096386,657b66ea316d21385b68909f,,,,,,,,,,,2046.5221,2047.5102,,,2048.0113,2048.2603,,79,79,,,,,,,,,,,,,,,,bars/033.png,bars/mask006.png,,,,,,,,,,,,0,1,,,,,,,10,10,9,10,,,,,,,,,,,2047.5103,2048.0112,2048.2603,2054.027,space,5.7588,,2054.0272,54,76,2055.0276,2055.0277,2055.0397,,,,0,37,37,37,1,25,155,,,,,,,,
,,612c95f4a142b9dc63cc45a0,65af55fe4abd09284145a17a,2024-01-23_08h09.23.155,bars,2023.2.3,Win32,60.24096386,657b66ea316d21385b68909f,,,,,,,,,,,2055.0401,2056.044,,,2056.5445,2056.795,,63,63,,,,,,,,,,,,,,,,bars/000.png,bars/mask005.png,,,,,,,,,,,,2,1,,,,,,,10,8,10,8,,,,,,,,,,,2056.0441,2056.5444,2056.7951,2059.3778,space,2.5692,,2059.3781,23,82,2060.3796,2060.3797,2060.4108,,,,0,38,38,38,1,40,145,,,,,,,,
,,612c95f4a142b9dc63cc45a0,65af55fe4abd09284145a17a,2024-01-23_08h09.23.155,bars,2023.2.3,Win32,60.24096386,657b66ea316d21385b68909f,,,,,,,,,,,2060.4111,2061.4106,,,2061.9107,2062.1602,,70,70,,,,,,,,,,,,,,,,bars/014.png,bars/mask005.png,,,,,,,,,,,,7,1,,,,,,,10,10,10,9,,,,,,,,,,,2061.4107,2061.9105,2062.1604,2087.3948,space,25.2165,,2087.3949,10,70,2088.3929,2088.393,2088.4286,,,,0,39,39,39,1,80,0,,,,,,,,
,,612c95f4a142b9dc63cc45a0,65af55fe4abd09284145a17a,2024-01-23_08h09.23.155,bars,2023.2.3,Win32,60.24096386,657b66ea316d21385b68909f,,,,,,,,,,,2088.4291,2089.4264,,,2089.926,2090.1761,,118,118,,,,,,,,,,,,,,,,bars/046.png,bars/mask002.png,,,,,,,,,,,,0,2,,,,,,,10,8,9,8,,,,,,,,,,,2089.4264,2089.9259,2090.1761,2092.1096,space,1.92,,2092.1097,37,33,2093.109,2093.1091,2093.1459,,,,0,40,40,40,1,155,85,,,,,,,,
,,612c95f4a142b9dc63cc45a0,65af55fe4abd09284145a17a,2024-01-23_08h09.23.155,bars,2023.2.3,Win32,60.24096386,657b66ea316d21385b68909f,,,,,,,,,,,2093.1467,2094.1417,,,2094.6442,2094.8941,,41,41,,,,,,,,,,,,,,,,bars/048.png,bars/mask000.png,,,,,,,,,,,,5,1,,,,,,,8,6,7,7,,,,,,,,,,,2094.1419,2094.6441,2094.8942,2095.309,space,0.4004,,2095.3091,9,46,2096.3095,2096.3096,2096.3153,,,,0,41,41,41,1,50,175,,,,,,,,
,,612c95f4a142b9dc63cc45a0,65af55fe4abd09284145a17a,2024-01-23_08h09.23.155,bars,2023.2.3,Win32,60.24096386,657b66ea316d21385b68909f,,,,,,,,,,,2096.3159,2097.3084,,,2097.8089,2098.0588,,2,182,,,,,,,,,,,,,,,,bars/018.png,bars/mask007.png,,,,,,,,,,,,0,1,,,,,,,10,4,10,3,,,,,,,,,,,2097.3084,2097.8089,2098.0589,2101.4923,space,3.4197,,2101.4924,32,88,2102.4916,2102.4918,2102.5115,,,,0,42,42,42,1,150,90,,,,,,,,
,,612c95f4a142b9dc63cc45a0,65af55fe4abd09284145a17a,2024-01-23_08h09.23.155,bars,2023.2.3,Win32,60.24096386,657b66ea316d21385b68909f,,,,,,,,,,,2102.5118,2103.5089,,,2104.0088,2104.2584,,68,68,,,,,,,,,,,,,,,,bars/025.png,bars/mask004.png,,,,,,,,,,,,0,2,,,,,,,10,6,10,6,,,,,,,,,,,2103.5089,2104.0086,2104.2585,2105.6919,space,1.4224,,2105.6922,37,28,2106.6916,2106.6917,2106.7266,,,,0,43,43,43,1,105,40,,,,,,,,
,,612c95f4a142b9dc63cc45a0,65af55fe4abd09284145a17a,2024-01-23_08h09.23.155,bars,2023.2.3,Win32,60.24096386,657b66ea316d21385b68909f,,,,,,,,,,,2106.7272,2107.7249,,,2108.2251,2108.4753,,90,270,,,,,,,,,,,,,,,,bars/016.png,bars/mask003.png,,,,,,,,,,,,0,1,,,,,,,10,4,9,5,,,,,,,,,,,2107.725,2108.225,2108.4754,2113.0084,space,4.5214,,2113.0085,50,75,2114.0081,2114.0082,2114.0342,,,,0,44,44,44,1,40,165,,,,,,,,
,,612c95f4a142b9dc63cc45a0,65af55fe4abd09284145a17a,2024-01-23_08h09.23.155,bars,2023.2.3,Win32,60.24096386,657b66ea316d21385b68909f,,,,,,,,,,,2114.0346,2115.0275,,,2115.525,2115.7747,,66,66,,,,,,,,,,,,,,,,bars/007.png,bars/mask005.png,,,,,,,,,,,,0,2,,,,,,,8,2,7,0,,,,,,,,,,,2115.0276,2115.5247,2115.7748,2119.0748,space,3.2841,,2119.0751,71,11,2120.0764,2120.0766,2120.1117,,,,0,45,45,45,1,175,55,,,,,,,,
,,612c95f4a142b9dc63cc45a0,65af55fe4abd09284145a17a,2024-01-23_08h09.23.155,bars,2023.2.3,Win32,60.24096386,657b66ea316d21385b68909f,,,,,,,,,,,2120.1121,2121.1079,,,2121.6087,2121.8577,,59,239,,,,,,,,,,,,,,,,bars/037.png,bars/mask006.png,,,,,,,,,,,,0,2,,,,,,,6,4,4,4,,,,,,,,,,,2121.1081,2121.6086,2121.858,2127.8256,space,5.9512,,2127.8257,89,46,2128.8236,2128.8236,2128.8337,,,,0,46,46,46,1,150,105,,,,,,,,
,,612c95f4a142b9dc63cc45a0,65af55fe4abd09284145a17a,2024-01-23_08h09.23.155,bars,2023.2.3,Win32,60.24096386,657b66ea316d21385b68909f,,,,,,,,,,,2128.8339,2129.824,,,2130.3234,2130.5743,,114,-66,,,,,,,,,,,,,,,,bars/030.png,bars/mask006.png,,,,,,,,,,,,1,1,,,,,,,8,2,9,1,,,,,,,,,,,2129.824,2130.3234,2130.5744,2135.9075,space,5.3246,,2135.9076,26,49,2136.9068,2136.9069,2136.9236,,,,0,47,47,47,1,140,65,,,,,,,,
,,612c95f4a142b9dc63cc45a0,65af55fe4abd09284145a17a,2024-01-23_08h09.23.155,bars,2023.2.3,Win32,60.24096386,657b66ea316d21385b68909f,,,,,,,,,,,2136.9241,2137.9227,,,2138.4239,2138.6736,,61,61,,,,,,,,,,,,,,,,bars/049.png,bars/mask007.png,,,,,,,,,,,,0,2,,,,,,,10,0,10,0,,,,,,,,,,,2137.9227,2138.4238,2138.6737,2142.7569,space,4.072,,2142.7572,81,54,2143.7568,2143.757,2143.7942,,,,0,48,48,48,1,160,115,,,,,,,,
,,612c95f4a142b9dc63cc45a0,65af55fe4abd09284145a17a,2024-01-23_08h09.23.155,bars,2023.2.3,Win32,60.24096386,657b66ea316d21385b68909f,,,,,,,,,,,2143.7946,2144.7919,,,2145.2901,2145.5392,,83,83,,,,,,,,,,,,,,,,bars/031.png,bars/mask005.png,,,,,,,,,,,,0,1,,,,,,,10,2,10,3,,,,,,,,,,,2144.792,2145.2899,2145.5392,2182.2578,space,36.7047,,2182.258,37,48,2183.2548,2183.2549,2183.2881,,,,0,49,49,49,1,120,35,,,,,,,,
,,612c95f4a142b9dc63cc45a0,65af55fe4abd09284145a17a,2024-01-23_08h09.23.155,bars,2023.2.3,Win32,60.24096386,657b66ea316d21385b68909f,,,,,,,,,,,,,,,,,,,,,,,,,,,,,,,,,,,,,,,,,,,,,,,,,,,,,,,,,,,,,,,,,,,,,,,,,,,,,,,,,,,,,,,,,,,,,2183.2883,2243.286,0,1,1,3,1,sequence_tables/blk024.csv
,,612c95f4a142b9dc63cc45a0,65af55fe4abd09284145a17a,2024-01-23_08h09.23.155,bars,2023.2.3,Win32,60.24096386,657b66ea316d21385b68909f,,,,,,,,,,,2252.9349,2253.9362,,,2254.4352,2254.6842,,51,51,,,,,,,,,,,,,,,,bars/021.png,bars/mask007.png,,,,,,,,,,,,2,2,,,,,,,2,4,2,5,,,,,,2243.3173,2252.9189,space,9.5895,,2253.9362,2254.4349,2254.6843,2257.3352,space,2.6392,,2257.3355,76,19,2258.3352,2258.3352,2258.3543,,,,0,0,0,0,1,155,70,,,,,,,,
,,612c95f4a142b9dc63cc45a0,65af55fe4abd09284145a17a,2024-01-23_08h09.23.155,bars,2023.2.3,Win32,60.24096386,657b66ea316d21385b68909f,,,,,,,,,,,2258.3548,2259.3515,,,2259.8514,2260.1009,,64,64,,,,,,,,,,,,,,,,bars/024.png,bars/mask006.png,,,,,,,,,,,,0,1,,,,,,,4,6,4,7,,,,,,,,,,,2259.3516,2259.8513,2260.1009,2266.4187,space,6.3006,,2266.419,56,74,2267.4174,2267.4177,2267.4481,,,,0,1,1,1,1,120,170,,,,,,,,
,,612c95f4a142b9dc63cc45a0,65af55fe4abd09284145a17a,2024-01-23_08h09.23.155,bars,2023.2.3,Win32,60.24096386,657b66ea316d21385b68909f,,,,,,,,,,,2267.4484,2268.4517,,,2268.9511,2269.2015,,159,159,,,,,,,,,,,,,,,,bars/003.png,bars/mask000.png,,,,,,,,,,,,3,2,,,,,,,6,8,5,8,,,,,,,,,,,2268.452,2268.9508,2269.2015,2272.3519,space,3.1361,,2272.3524,46,19,2273.3508,2273.3509,2273.3836,,,,0,2,2,2,1,25,140,,,,,,,,
,,612c95f4a142b9dc63cc45a0,65af55fe4abd09284145a17a,2024-01-23_08h09.23.155,bars,2023.2.3,Win32,60.24096386,657b66ea316d21385b68909f,,,,,,,,,,,2273.3841,2274.3837,,,2274.8855,2275.1339,,19,199,,,,,,,,,,,,,,,,bars/032.png,bars/mask003.png,,,,,,,,,,,,7,2,,,,,,,4,6,2,7,,,,,,,,,,,2274.3838,2274.8853,2275.134,2305.7486,space,30.607,,2305.7486,74,1,2306.7486,2306.7486,2306.7652,,,,0,3,3,3,1,125,20,,,,,,,,
,,612c95f4a142b9dc63cc45a0,65af55fe4abd09284145a17a,2024-01-23_08h09.23.155,bars,2023.2.3,Win32,60.24096386,657b66ea316d21385b68909f,,,,,,,,,,,2306.7654,2307.7658,,,2308.2649,2308.5153,,59,59,,,,,,,,,,,,,,,,bars/031.png,bars/mask008.png,,,,,,,,,,,,1,2,,,,,,,6,4,6,4,,,,,,,,,,,2307.7659,2308.2648,2308.5154,2314.866,space,6.3383,,2314.866,61,24,2315.8653,2315.8653,2315.8966,,,,0,4,4,4,1,120,35,,,,,,,,
,,612c95f4a142b9dc63cc45a0,65af55fe4abd09284145a17a,2024-01-23_08h09.23.155,bars,2023.2.3,Win32,60.24096386,657b66ea316d21385b68909f,,,,,,,,,,,2315.8972,2316.8991,,,2317.3991,2317.6487,,176,176,,,,,,,,,,,,,,,,bars/009.png,bars/mask003.png,,,,,,,,,,,,3,1,,,,,,,8,2,9,3,,,,,,,,,,,2316.8992,2317.3991,2317.6488,2322.3988,space,4.7386,,2322.3996,19,71,2323.3975,2323.3977,2323.407,,,,0,5,5,5,1,15,105,,,,,,,,
,,612c95f4a142b9dc63cc45a0,65af55fe4abd09284145a17a,2024-01-23_08h09.23.155,bars,2023.2.3,Win32,60.24096386,657b66ea316d21385b68909f,,,,,,,,,,,2323.4072,2324.4025,,,2324.8983,2325.1488,,48,48,,,,,,,,,,,,,,,,bars/049.png,bars/mask006.png,,,,,,,,,,,,0,2,,,,,,,6,0,7,0,,,,,,,,,,,2324.4026,2324.8981,2325.1488,2328.8824,space,3.7223,,2328.8825,68,67,2329.8824,2329.8824,2329.8993,,,,0,6,6,6,1,160,115,,,,,,,,
,,612c95f4a142b9dc63cc45a0,65af55fe4abd09284145a17a,2024-01-23_08h09.23.155,bars,2023.2.3,Win32,60.24096386,657b66ea316d21385b68909f,,,,,,,,,,,2329.8996,2330.8985,,,2331.3983,2331.648,,44,44,,,,,,,,,,,,,,,,bars/047.png,bars/mask005.png,,,,,,,,,,,,0,2,,,,,,,4,2,4,2,,,,,,,,,,,2330.8987,2331.3981,2331.6482,2334.6663,space,3.0004,,2334.6665,29,26,2335.6643,2335.6645,2335.6973,,,,0,7,7,7,1,15,70,,,,,,,,
,,612c95f4a142b9dc63cc45a0,65af55fe4abd09284145a17a,2024-01-23_08h09.23.155,bars,2023.2.3,Win32,60.24096386,657b66ea316d21385b68909f,,,,,,,,,,,2335.6978,2336.6977,,,2337.1981,2337.4507,,18,18,,,,,,,,,,,,,,,,bars/016.png,bars/mask003.png,,,,,,,,,,,,1,1,,,,,,,2,4,2,5,,,,,,,,,,,2336.6978,2337.1979,2337.4509,2339.747,space,2.2847,,2339.7472,22,33,2340.7484,2340.7485,2340.7521,,,,0,8,8,8,1,40,165,,,,,,,,
,,612c95f4a142b9dc63cc45a0,65af55fe4abd09284145a17a,2024-01-23_08h09.23.155,bars,2023.2.3,Win32,60.24096386,657b66ea316d21385b68909f,,,,,,,,,,,2340.7525,2341.7467,,,2342.2477,2342.4979,,141,141,,,,,,,,,,,,,,,,bars/019.png,bars/mask005.png,,,,,,,,,,,,0,2,,,,,,,4,2,5,2,,,,,,,,,,,2341.7467,2342.2474,2342.498,2344.099,space,1.583,,2344.099,84,36,2345.0983,2345.0983,2345.1137,,,,0,9,9,9,1,45,105,,,,,,,,
,,612c95f4a142b9dc63cc45a0,65af55fe4abd09284145a17a,2024-01-23_08h09.23.155,bars,2023.2.3,Win32,60.24096386,657b66ea316d21385b68909f,,,,,,,,,,,2345.1145,2346.1139,,,2346.6152,2346.8658,,29,29,,,,,,,,,,,,,,,,bars/025.png,bars/mask001.png,,,,,,,,,,,,3,2,,,,,,,6,4,9,4,,,,,,,,,,,2346.114,2346.6148,2346.8659,2353.9629,space,7.0792,,2353.9629,76,11,2354.9627,2354.9629,2354.9721,,,,0,10,10,10,1,105,40,,,,,,,,
,,612c95f4a142b9dc63cc45a0,65af55fe4abd09284145a17a,2024-01-23_08h09.23.155,bars,2023.2.3,Win32,60.24096386,657b66ea316d21385b68909f,,,,,,,,,,,2354.9723,2355.9629,,,2356.4642,2356.7139,,69,69,,,,,,,,,,,,,,,,bars/014.png,bars/mask004.png,,,,,,,,,,,,5,1,,,,,,,8,2,8,0,,,,,,,,,,,2355.963,2356.4642,2356.7141,2385.5949,space,28.8624,,2385.5951,11,69,2386.5981,2386.5981,2386.6353,,,,0,11,11,11,1,80,0,,,,,,,,
,,612c95f4a142b9dc63cc45a0,65af55fe4abd09284145a17a,2024-01-23_08h09.23.155,bars,2023.2.3,Win32,60.24096386,657b66ea316d21385b68909f,,,,,,,,,,,2386.6357,2387.6302,,,2388.1289,2388.3794,,52,52,,,,,,,,,,,,,,,,bars/031.png,bars/mask003.png,,,,,,,,,,,,2,2,,,,,,,10,4,10,4,,,,,,,,,,,2387.6302,2388.1287,2388.3794,2390.0791,space,1.6843,,2390.0793,68,17,2391.0779,2391.0781,2391.1038,,,,0,12,12,12,1,120,35,,,,,,,,
,,612c95f4a142b9dc63cc45a0,65af55fe4abd09284145a17a,2024-01-23_08h09.23.155,bars,2023.2.3,Win32,60.24096386,657b66ea316d21385b68909f,,,,,,,,,,,2391.1042,2392.0971,,,2392.595,2392.8449,,138,138,,,,,,,,,,,,,,,,bars/001.png,bars/mask002.png,,,,,,,,,,,,6,1,,,,,,,8,2,8,1,,,,,,,,,,,2392.0972,2392.5948,2392.845,2416.58,space,23.7194,,2416.5802,8,53,2417.5773,2417.5775,2417.6149,,,,0,13,13,13,1,130,85,,,,,,,,
,,612c95f4a142b9dc63cc45a0,65af55fe4abd09284145a17a,2024-01-23_08h09.23.155,bars,2023.2.3,Win32,60.24096386,657b66ea316d21385b68909f,,,,,,,,,,,2417.6155,2418.6102,,,2419.1108,2419.3622,,89,89,,,,,,,,,,,,,,,,bars/030.png,bars/mask003.png,,,,,,,,,,,,1,2,,,,,,,10,4,10,4,,,,,,,,,,,2418.6103,2419.1106,2419.3623,2422.3446,space,2.9696,,2422.3454,51,24,2423.3433,2423.3435,2423.3766,,,,0,14,14,14,1,140,65,,,,,,,,
,,612c95f4a142b9dc63cc45a0,65af55fe4abd09284145a17a,2024-01-23_08h09.23.155,bars,2023.2.3,Win32,60.24096386,657b66ea316d21385b68909f,,,,,,,,,,,2423.3772,2424.3772,,,2424.8764,2425.1279,,79,79,,,,,,,,,,,,,,,,bars/028.png,bars/mask007.png,,,,,,,,,,,,0,1,,,,,,,8,6,6,5,,,,,,,,,,,2424.3772,2424.8764,2425.128,2429.7271,space,4.5807,,2429.7271,34,41,2430.7265,2430.7266,2430.7554,,,,0,15,15,15,1,45,120,,,,,,,,
,,612c95f4a142b9dc63cc45a0,65af55fe4abd09284145a17a,2024-01-23_08h09.23.155,bars,2023.2.3,Win32,60.24096386,657b66ea316d21385b68909f,,,,,,,,,,,2430.7557,2431.7598,,,2432.2593,2432.5101,,25,25,,,,,,,,,,,,,,,,bars/022.png,bars/mask009.png,,,,,,,,,,,,5,2,,,,,,,6,8,6,6,,,,,,,,,,,2431.7599,2432.2592,2432.5102,2440.1112,space,7.589,,2440.1114,70,5,2441.1116,2441.1117,2441.135,,,,0,16,16,16,1,95,20,,,,,,,,
,,612c95f4a142b9dc63cc45a0,65af55fe4abd09284145a17a,2024-01-23_08h09.23.155,bars,2023.2.3,Win32,60.24096386,657b66ea316d21385b68909f,,,,,,,,,,,2441.1353,2442.1279,,,2442.6261,2442.8758,,157,157,,,,,,,,,,,,,,,,bars/016.png,bars/mask002.png,,,,,,,,,,,,4,2,,,,,,,4,6,4,6,,,,,,,,,,,2442.1282,2442.6261,2442.8759,2446.1758,space,3.2837,,2446.176,63,8,2447.1784,2447.1785,2447.211,,,,0,17,17,17,1,40,165,,,,,,,,
,,612c95f4a142b9dc63cc45a0,65af55fe4abd09284145a17a,2024-01-23_08h09.23.155,bars,2023.2.3,Win32,60.24096386,657b66ea316d21385b68909f,,,,,,,,,,,2447.2114,2448.2092,,,2448.7107,2448.9609,,96,96,,,,,,,,,,,,,,,,bars/002.png,bars/mask000.png,,,,,,,,,,,,3,2,,,,,,,2,4,2,5,,,,,,,,,,,2448.2094,2448.7105,2448.9609,2454.309,space,5.3338,,2454.3092,34,11,2455.3088,2455.3088,2455.317,,,,0,18,18,18,1,130,85,,,,,,,,
,,612c95f4a142b9dc63cc45a0,65af55fe4abd09284145a17a,2024-01-23_08h09.23.155,bars,2023.2.3,Win32,60.24096386,657b66ea316d21385b68909f,,,,,,,,,,,2455.3172,2456.3085,,,2456.8106,2457.0586,,140,140,,,,,,,,,,,,,,,,bars/018.png,bars/mask005.png,,,,,,,,,,,,0,1,,,,,,,0,2,0,3,,,,,,,,,,,2456.3086,2456.8105,2457.0587,2459.2751,space,2.2069,,2459.2751,10,50,2460.2744,2460.2745,2460.2859,,,,0,19,19,19,1,150,90,,,,,,,,
,,612c95f4a142b9dc63cc45a0,65af55fe4abd09284145a17a,2024-01-23_08h09.23.155,bars,2023.2.3,Win32,60.24096386,657b66ea316d21385b68909f,,,,,,,,,,,2460.2861,2461.2745,,,2461.7753,2462.0243,,150,150,,,,,,,,,,,,,,,,bars/016.png,bars/mask008.png,,,,,,,,,,,,1,2,,,,,,,2,0,0,1,,,,,,,,,,,2461.2746,2461.7752,2462.0243,2465.4077,space,3.3674,,2465.4078,70,15,2466.4074,2466.4074,2466.4183,,,,0,20,20,20,1,40,165,,,,,,,,
,,612c95f4a142b9dc63cc45a0,65af55fe4abd09284145a17a,2024-01-23_08h09.23.155,bars,2023.2.3,Win32,60.24096386,657b66ea316d21385b68909f,,,,,,,,,,,2466.4185,2467.4073,,,2467.9078,2468.1583,,38,38,,,,,,,,,,,,,,,,bars/027.png,bars/mask006.png,,,,,,,,,,,,1,2,,,,,,,4,2,7,2,,,,,,,,,,,2467.4073,2467.9078,2468.1585,2471.1741,space,3.0011,,2471.1741,72,12,2472.1743,2472.1743,2472.1839,,,,0,21,21,21,1,110,50,,,,,,,,
,,612c95f4a142b9dc63cc45a0,65af55fe4abd09284145a17a,2024-01-23_08h09.23.155,bars,2023.2.3,Win32,60.24096386,657b66ea316d21385b68909f,,,,,,,,,,,2472.1842,2473.1737,,,2473.6738,2473.9241,,114,114,,,,,,,,,,,,,,,,bars/046.png,bars/mask008.png,,,,,,,,,,,,0,2,,,,,,,2,0,1,0,,,,,,,,,,,2473.1739,2473.6738,2473.9241,2478.6914,space,4.759,,2478.6916,41,29,2479.6915,2479.6918,2479.7192,,,,0,22,22,22,1,155,85,,,,,,,,
,,612c95f4a142b9dc63cc45a0,65af55fe4abd09284145a17a,2024-01-23_08h09.23.155,bars,2023.2.3,Win32,60.24096386,657b66ea316d21385b68909f,,,,,,,,,,,2479.7196,2480.7102,,,2481.2076,2481.4582,,177,177,,,,,,,,,,,,,,,,bars/036.png,bars/mask006.png,,,,,,,,,,,,1,2,,,,,,,0,0,0,3,,,,,,,,,,,2480.7104,2481.2075,2481.4582,2486.3101,space,4.8359,,2486.3102,32,23,2487.3078,2487.3079,2487.3368,,,,0,23,23,23,1,145,20,,,,,,,,
,,612c95f4a142b9dc63cc45a0,65af55fe4abd09284145a17a,2024-01-23_08h09.23.155,bars,2023.2.3,Win32,60.24096386,657b66ea316d21385b68909f,,,,,,,,,,,2487.3374,2488.3421,,,2488.8409,2489.0901,,134,134,,,,,,,,,,,,,,,,bars/014.png,bars/mask008.png,,,,,,,,,,,,0,2,,,,,,,2,2,2,2,,,,,,,,,,,2488.3422,2488.8408,2489.0902,2490.8925,space,1.7866,,2490.8926,54,46,2491.8903,2491.8905,2491.921,,,,0,24,24,24,1,80,0,,,,,,,,
,,612c95f4a142b9dc63cc45a0,65af55fe4abd09284145a17a,2024-01-23_08h09.23.155,bars,2023.2.3,Win32,60.24096386,657b66ea316d21385b68909f,,,,,,,,,,,2491.9215,2492.9243,,,2493.4241,2493.6745,,61,61,,,,,,,,,,,,,,,,bars/013.png,bars/mask001.png,,,,,,,,,,,,1,1,,,,,,,4,0,2,0,,,,,,,,,,,2492.9248,2493.424,2493.6757,2495.5078,space,1.8191,,2495.5078,14,51,2496.5065,2496.5068,2496.5351,,,,0,25,25,25,1,75,10,,,,,,,,
,,612c95f4a142b9dc63cc45a0,65af55fe4abd09284145a17a,2024-01-23_08h09.23.155,bars,2023.2.3,Win32,60.24096386,657b66ea316d21385b68909f,,,,,,,,,,,2496.5356,2497.5396,,,2498.0401,2498.29,,28,28,,,,,,,,,,,,,,,,bars/029.png,bars/mask008.png,,,,,,,,,,,,1,2,,,,,,,2,2,2,2,,,,,,,,,,,2497.5396,2498.04,2498.2901,2498.4401,space,0.1357,,2498.4404,62,17,2499.44,2499.4402,2499.4454,,,,0,26,26,26,1,90,45,,,,,,,,
,,612c95f4a142b9dc63cc45a0,65af55fe4abd09284145a17a,2024-01-23_08h09.23.155,bars,2023.2.3,Win32,60.24096386,657b66ea316d21385b68909f,,,,,,,,,,,2499.4459,2500.4402,,,2500.9406,2501.1912,,138,-42,,,,,,,,,,,,,,,,bars/025.png,bars/mask003.png,,,,,,,,,,,,0,1,,,,,,,0,4,0,6,,,,,,,,,,,2500.4403,2500.9401,2501.1912,2506.9239,space,5.7202,,2506.9244,33,82,2507.9226,2507.9227,2507.9435,,,,0,27,27,27,1,105,40,,,,,,,,
,,612c95f4a142b9dc63cc45a0,65af55fe4abd09284145a17a,2024-01-23_08h09.23.155,bars,2023.2.3,Win32,60.24096386,657b66ea316d21385b68909f,,,,,,,,,,,2507.9438,2508.9424,,,2509.4391,2509.6916,,45,45,,,,,,,,,,,,,,,,bars/009.png,bars/mask006.png,,,,,,,,,,,,0,1,,,,,,,2,2,1,3,,,,,,,,,,,2508.9426,2509.439,2509.6918,2512.1405,space,2.4363,,2512.1408,30,60,2513.1394,2513.1396,2513.1686,,,,0,28,28,28,1,15,105,,,,,,,,
,,612c95f4a142b9dc63cc45a0,65af55fe4abd09284145a17a,2024-01-23_08h09.23.155,bars,2023.2.3,Win32,60.24096386,657b66ea316d21385b68909f,,,,,,,,,,,2513.1691,2514.1737,,,2514.6727,2514.9228,,85,85,,,,,,,,,,,,,,,,bars/007.png,bars/mask001.png,,,,,,,,,,,,0,2,,,,,,,0,0,0,1,,,,,,,,,,,2514.1738,2514.6727,2514.923,2517.807,space,2.8746,,2517.8075,90,30,2518.8065,2518.8066,2518.8343,,,,0,29,29,29,1,175,55,,,,,,,,
,,612c95f4a142b9dc63cc45a0,65af55fe4abd09284145a17a,2024-01-23_08h09.23.155,bars,2023.2.3,Win32,60.24096386,657b66ea316d21385b68909f,,,,,,,,,,,2518.8348,2519.8382,,,2520.3393,2520.5897,,29,209,,,,,,,,,,,,,,,,bars/033.png,bars/mask002.png,,,,,,,,,,,,3,1,,,,,,,2,2,3,1,,,,,,,,,,,2519.8382,2520.3392,2520.5897,2522.9724,space,2.3743,,2522.973,4,54,2523.9717,2523.9718,2523.9919,,,,0,30,30,30,1,25,155,,,,,,,,
,,612c95f4a142b9dc63cc45a0,65af55fe4abd09284145a17a,2024-01-23_08h09.23.155,bars,2023.2.3,Win32,60.24096386,657b66ea316d21385b68909f,,,,,,,,,,,2523.9922,2524.9885,,,2525.4887,2525.7408,,115,115,,,,,,,,,,,,,,,,bars/000.png,bars/mask004.png,,,,,,,,,,,,0,2,,,,,,,0,0,0,0,,,,,,,,,,,2524.9887,2525.4885,2525.7408,2532.7899,space,7.0347,,2532.7902,75,30,2533.7884,2533.7884,2533.8238,,,,0,31,31,31,1,40,145,,,,,,,,
,,612c95f4a142b9dc63cc45a0,65af55fe4abd09284145a17a,2024-01-23_08h09.23.155,bars,2023.2.3,Win32,60.24096386,657b66ea316d21385b68909f,,,,,,,,,,,2533.8244,2534.8218,,,2535.3213,2535.5712,,88,88,,,,,,,,,,,,,,,,bars/003.png,bars/mask008.png,,,,,,,,,,,,0,2,,,,,,,0,0,1,0,,,,,,,,,,,2534.8218,2535.3213,2535.5712,2538.9048,space,3.3171,,2538.9048,63,52,2539.9052,2539.9052,2539.9157,,,,0,32,32,32,1,25,140,,,,,,,,
,,612c95f4a142b9dc63cc45a0,65af55fe4abd09284145a17a,2024-01-23_08h09.23.155,bars,2023.2.3,Win32,60.24096386,657b66ea316d21385b68909f,,,,,,,,,,,2539.9159,2540.9048,,,2541.405,2541.6547,,37,37,,,,,,,,,,,,,,,,bars/012.png,bars/mask005.png,,,,,,,,,,,,1,2,,,,,,,2,0,1,2,,,,,,,,,,,2540.9049,2541.4049,2541.655,2547.8371,space,6.1637,,2547.8372,53,22,2548.8373,2548.8373,2548.8482,,,,0,33,33,33,1,90,15,,,,,,,,
,,612c95f4a142b9dc63cc45a0,65af55fe4abd09284145a17a,2024-01-23_08h09.23.155,bars,2023.2.3,Win32,60.24096386,657b66ea316d21385b68909f,,,,,,,,,,,2548.8485,2549.8369,,,2550.3372,2550.5868,,39,39,,,,,,,,,,,,,,,,bars/044.png,bars/mask007.png,,,,,,,,,,,,0,1,,,,,,,0,0,0,0,,,,,,,,,,,2549.8369,2550.3371,2550.5868,2554.1703,space,3.5777,,2554.1704,36,64,2555.1701,2555.1701,2555.182,,,,0,34,34,34,1,75,155,,,,,,,,
,,612c95f4a142b9dc63cc45a0,65af55fe4abd09284145a17a,2024-01-23_08h09.23.155,bars,2023.2.3,Win32,60.24096386,657b66ea316d21385b68909f,,,,,,,,,,,2555.1823,2556.1869,,,2556.6867,2556.9365,,83,83,,,,,,,,,,,,,,,,bars/002.png,bars/mask000.png,,,,,,,,,,,,2,2,,,,,,,2,2,2,2,,,,,,,,,,,2556.1869,2556.6867,2556.9365,2560.3367,space,3.3842,,2560.3367,47,2,2561.3368,2561.3369,2561.3602,,,,0,35,35,35,1,130,85,,,,,,,,
,,612c95f4a142b9dc63cc45a0,65af55fe4abd09284145a17a,2024-01-23_08h09.23.155,bars,2023.2.3,Win32,60.24096386,657b66ea316d21385b68909f,,,,,,,,,,,2561.3605,2562.3535,,,2562.8543,2563.1037,,91,91,,,,,,,,,,,,,,,,bars/037.png,bars/mask006.png,,,,,,,,,,,,0,2,,,,,,,0,0,0,0,,,,,,,,,,,2562.3551,2562.8541,2563.1038,2582.64,space,19.5263,,2582.6404,59,14,2583.6361,2583.6362,2583.6679,,,,0,36,36,36,1,150,105,,,,,,,,
,,612c95f4a142b9dc63cc45a0,65af55fe4abd09284145a17a,2024-01-23_08h09.23.155,bars,2023.2.3,Win32,60.24096386,657b66ea316d21385b68909f,,,,,,,,,,,2583.6688,2584.6693,,,2585.1696,2585.4192,,135,135,,,,,,,,,,,,,,,,bars/032.png,bars/mask007.png,,,,,,,,,,,,0,1,,,,,,,0,0,0,0,,,,,,,,,,,2584.6694,2585.1695,2585.4193,2588.7216,space,3.2894,,2588.7216,10,65,2589.7189,2589.719,2589.7466,,,,0,37,37,37,1,125,20,,,,,,,,
,,612c95f4a142b9dc63cc45a0,65af55fe4abd09284145a17a,2024-01-23_08h09.23.155,bars,2023.2.3,Win32,60.24096386,657b66ea316d21385b68909f,,,,,,,,,,,2589.7469,2590.7354,,,2591.2358,2591.4851,,68,68,,,,,,,,,,,,,,,,bars/023.png,bars/mask007.png,,,,,,,,,,,,0,2,,,,,,,0,0,0,0,,,,,,,,,,,2590.7355,2591.2357,2591.4851,2594.487,space,2.9893,,2594.487,48,47,2595.4854,2595.4854,2595.4995,,,,0,38,38,38,1,20,115,,,,,,,,
,,612c95f4a142b9dc63cc45a0,65af55fe4abd09284145a17a,2024-01-23_08h09.23.155,bars,2023.2.3,Win32,60.24096386,657b66ea316d21385b68909f,,,,,,,,,,,2595.4998,2596.5019,,,2597.0031,2597.2531,,60,60,,,,,,,,,,,,,,,,bars/008.png,bars/mask004.png,,,,,,,,,,,,0,1,,,,,,,0,2,0,3,,,,,,,,,,,2596.502,2597.0028,2597.2534,2604.2182,space,6.9482,,2604.2184,50,60,2605.2184,2605.2184,2605.2326,,,,0,39,39,39,1,110,0,,,,,,,,
,,612c95f4a142b9dc63cc45a0,65af55fe4abd09284145a17a,2024-01-23_08h09.23.155,bars,2023.2.3,Win32,60.24096386,657b66ea316d21385b68909f,,,,,,,,,,,2605.233,2606.2346,,,2606.7362,2606.9846,,102,102,,,,,,,,,,,,,,,,bars/042.png,bars/mask009.png,,,,,,,,,,,,0,2,,,,,,,2,0,1,1,,,,,,,,,,,2606.2346,2606.7361,2606.9848,2620.3853,space,13.3895,,2620.3855,43,27,2621.3835,2621.3835,2621.3955,,,,0,40,40,40,1,145,75,,,,,,,,
,,612c95f4a142b9dc63cc45a0,65af55fe4abd09284145a17a,2024-01-23_08h09.23.155,bars,2023.2.3,Win32,60.24096386,657b66ea316d21385b68909f,,,,,,,,,,,2621.3957,2622.384,,,2622.8843,2623.1346,,138,138,,,,,,,,,,,,,,,,bars/034.png,bars/mask007.png,,,,,,,,,,,,3,1,,,,,,,4,2,5,3,,,,,,,,,,,2622.384,2622.8843,2623.1348,2627.839,space,4.6963,,2627.8391,13,73,2628.8341,2628.8342,2628.8553,,,,0,41,41,41,1,125,65,,,,,,,,
,,612c95f4a142b9dc63cc45a0,65af55fe4abd09284145a17a,2024-01-23_08h09.23.155,bars,2023.2.3,Win32,60.24096386,657b66ea316d21385b68909f,,,,,,,,,,,2628.8558,2629.8504,,,2630.3502,2630.6007,,123,123,,,,,,,,,,,,,,,,bars/040.png,bars/mask005.png,,,,,,,,,,,,1,1,,,,,,,2,4,2,5,,,,,,,,,,,2629.8505,2630.3501,2630.6007,2635.6844,space,5.0702,,2635.685,17,62,2636.683,2636.683,2636.6916,,,,0,42,42,42,1,140,5,,,,,,,,
,,612c95f4a142b9dc63cc45a0,65af55fe4abd09284145a17a,2024-01-23_08h09.23.155,bars,2023.2.3,Win32,60.24096386,657b66ea316d21385b68909f,,,,,,,,,,,2636.6917,2637.6843,,,2638.184,2638.4336,,95,95,,,,,,,,,,,,,,,,bars/014.png,bars/mask006.png,,,,,,,,,,,,2,1,,,,,,,4,2,3,2,,,,,,,,,,,2637.6844,2638.1838,2638.4338,2643.4516,space,5.0037,,2643.4518,15,85,2644.4497,2644.4498,2644.4778,,,,0,43,43,43,1,80,0,,,,,,,,
,,612c95f4a142b9dc63cc45a0,65af55fe4abd09284145a17a,2024-01-23_08h09.23.155,bars,2023.2.3,Win32,60.24096386,657b66ea316d21385b68909f,,,,,,,,,,,2644.4781,2645.4663,,,2645.9664,2646.2164,,132,132,,,,,,,,,,,,,,,,bars/043.png,bars/mask007.png,,,,,,,,,,,,0,2,,,,,,,2,0,1,0,,,,,,,,,,,2645.4663,2645.9662,2646.2165,2651.5006,space,5.2681,,2651.5008,78,2,2652.4993,2652.4994,2652.526,,,,0,44,44,44,1,30,130,,,,,,,,
,,612c95f4a142b9dc63cc45a0,65af55fe4abd09284145a17a,2024-01-23_08h09.23.155,bars,2023.2.3,Win32,60.24096386,657b66ea316d21385b68909f,,,,,,,,,,,2652.5263,2653.5159,,,2654.0194,2654.2692,,110,110,,,,,,,,,,,,,,,,bars/020.png,bars/mask006.png,,,,,,,,,,,,0,1,,,,,,,0,2,0,2,,,,,,,,,,,2653.516,2654.0191,2654.2694,2659.3665,space,5.0846,,2659.3669,5,60,2660.3659,2660.366,2660.4027,,,,0,45,45,45,1,115,170,,,,,,,,
,,612c95f4a142b9dc63cc45a0,65af55fe4abd09284145a17a,2024-01-23_08h09.23.155,bars,2023.2.3,Win32,60.24096386,657b66ea316d21385b68909f,,,,,,,,,,,2660.4031,2661.3991,,,2661.8991,2662.1497,,22,22,,,,,,,,,,,,,,,,bars/011.png,bars/mask009.png,,,,,,,,,,,,0,1,,,,,,,2,0,2,0,,,,,,,,,,,2661.3992,2661.8991,2662.1498,2664.8341,space,2.6675,,2664.8342,42,63,2665.8324,2665.8326,2665.867,,,,0,46,46,46,1,160,85,,,,,,,,
,,612c95f4a142b9dc63cc45a0,65af55fe4abd09284145a17a,2024-01-23_08h09.23.155,bars,2023.2.3,Win32,60.24096386,657b66ea316d21385b68909f,,,,,,,,,,,2665.8675,2666.865,,,2667.3657,2667.6157,,96,96,,,,,,,,,,,,,,,,bars/001.png,bars/mask008.png,,,,,,,,,,,,1,2,,,,,,,4,2,3,2,,,,,,,,,,,2666.8652,2667.3657,2667.6158,2671.3839,space,3.7516,,2671.384,34,11,2672.3827,2672.3828,2672.4175,,,,0,47,47,47,1,130,85,,,,,,,,
,,612c95f4a142b9dc63cc45a0,65af55fe4abd09284145a17a,2024-01-23_08h09.23.155,bars,2023.2.3,Win32,60.24096386,657b66ea316d21385b68909f,,,,,,,,,,,2672.4181,2673.4155,,,2673.916,2674.1652,,27,207,,,,,,,,,,,,,,,,bars/028.png,bars/mask004.png,,,,,,,,,,,,2,1,,,,,,,6,0,5,2,,,,,,,,,,,2673.4157,2673.9157,2674.1654,2677.0655,space,2.8813,,2677.0655,18,87,2678.0662,2678.0665,2678.1018,,,,0,48,48,48,1,45,120,,,,,,,,
,,612c95f4a142b9dc63cc45a0,65af55fe4abd09284145a17a,2024-01-23_08h09.23.155,bars,2023.2.3,Win32,60.24096386,657b66ea316d21385b68909f,,,,,,,,,,,2678.1023,2679.0986,,,2679.5986,2679.8491,,93,93,,,,,,,,,,,,,,,,bars/043.png,bars/mask006.png,,,,,,,,,,,,0,2,,,,,,,4,0,4,1,,,,,,,,,,,2679.0987,2679.5984,2679.8492,2684.5324,space,4.6653,,2684.5326,63,37,2685.5318,2685.5318,2685.549,,,,0,49,49,49,1,30,130,,,,,,,,
,,612c95f4a142b9dc63cc45a0,65af55fe4abd09284145a17a,2024-01-23_08h09.23.155,bars,2023.2.3,Win32,60.24096386,657b66ea316d21385b68909f,,,,,,,,,,,,,,,,,,,,,,,,,,,,,,,,,,,,,,,,,,,,,,,,,,,,,,,,,,,,,,,,,,,,,,,,,,,,,,,,,,,,,,,,,,,,,2685.5492,2745.5457,0,2,2,0,1,sequence_tables/blk040.csv
,,612c95f4a142b9dc63cc45a0,65af55fe4abd09284145a17a,2024-01-23_08h09.23.155,bars,2023.2.3,Win32,60.24096386,657b66ea316d21385b68909f,,,,,,,,,,,2786.2421,2787.2432,,,2787.7269,2787.9768,,131,131,,,,,,,,,,,,,,,,bars/038.png,bars/mask001.png,,,,,,,,,,,,0,1,,,,,,,3,6,4,7,,,,,,2745.5808,2786.2263,space,40.6243,,2787.2432,2787.7268,2787.9769,2792.0449,space,4.0522,,2792.0452,34,61,2793.0431,2793.0431,2793.0761,,,,0,0,0,0,1,165,70,,,,,,,,
,,612c95f4a142b9dc63cc45a0,65af55fe4abd09284145a17a,2024-01-23_08h09.23.155,bars,2023.2.3,Win32,60.24096386,657b66ea316d21385b68909f,,,,,,,,,,,2793.0766,2794.0773,,,2794.5767,2794.8292,,144,144,,,,,,,,,,,,,,,,bars/042.png,bars/mask005.png,,,,,,,,,,,,3,1,,,,,,,5,8,3,7,,,,,,,,,,,2794.0776,2794.5765,2794.8292,2799.0105,space,4.1721,,2799.011,1,69,2800.0093,2800.0095,2800.0432,,,,0,1,1,1,1,145,75,,,,,,,,
,,612c95f4a142b9dc63cc45a0,65af55fe4abd09284145a17a,2024-01-23_08h09.23.155,bars,2023.2.3,Win32,60.24096386,657b66ea316d21385b68909f,,,,,,,,,,,2800.0435,2801.0429,,,2801.5424,2801.7932,,93,93,,,,,,,,,,,,,,,,bars/014.png,bars/mask007.png,,,,,,,,,,,,5,1,,,,,,,7,10,8,10,,,,,,,,,,,2801.0429,2801.5422,2801.7935,2805.0433,space,3.2349,,2805.0441,13,87,2806.0423,2806.0424,2806.0809,,,,0,2,2,2,1,80,0,,,,,,,,
,,612c95f4a142b9dc63cc45a0,65af55fe4abd09284145a17a,2024-01-23_08h09.23.155,bars,2023.2.3,Win32,60.24096386,657b66ea316d21385b68909f,,,,,,,,,,,2806.0814,2807.0759,,,2807.5759,2807.8263,,56,56,,,,,,,,,,,,,,,,bars/049.png,bars/mask003.png,,,,,,,,,,,,0,2,,,,,,,5,10,5,10,,,,,,,,,,,2807.0761,2807.5758,2807.8265,2809.7761,space,1.9346,,2809.7766,76,59,2810.7759,2810.7761,2810.8088,,,,0,3,3,3,1,160,115,,,,,,,,
,,612c95f4a142b9dc63cc45a0,65af55fe4abd09284145a17a,2024-01-23_08h09.23.155,bars,2023.2.3,Win32,60.24096386,657b66ea316d21385b68909f,,,,,,,,,,,2810.8095,2811.8115,,,2812.3081,2812.5583,,173,173,,,,,,,,,,,,,,,,bars/008.png,bars/mask008.png,,,,,,,,,,,,6,2,,,,,,,3,10,2,8,,,,,,,,,,,2811.8116,2812.3081,2812.5584,2813.6275,space,1.0624,,2813.6276,63,7,2814.625,2814.6251,2814.6274,,,,0,4,4,4,1,110,0,,,,,,,,
,,612c95f4a142b9dc63cc45a0,65af55fe4abd09284145a17a,2024-01-23_08h09.23.155,bars,2023.2.3,Win32,60.24096386,657b66ea316d21385b68909f,,,,,,,,,,,2814.6284,2815.6279,,,2816.1255,2816.3749,,91,91,,,,,,,,,,,,,,,,bars/007.png,bars/mask004.png,,,,,,,,,,,,0,2,,,,,,,1,10,1,9,,,,,,,,,,,2815.628,2816.1253,2816.3749,2819.3766,space,2.986,,2819.3769,84,36,2820.3749,2820.375,2820.4029,,,,0,5,5,5,1,175,55,,,,,,,,
,,612c95f4a142b9dc63cc45a0,65af55fe4abd09284145a17a,2024-01-23_08h09.23.155,bars,2023.2.3,Win32,60.24096386,657b66ea316d21385b68909f,,,,,,,,,,,2820.4031,2821.3917,,,2821.8925,2822.142,,159,159,,,,,,,,,,,,,,,,bars/044.png,bars/mask000.png,,,,,,,,,,,,9,2,,,,,,,3,10,1,10,,,,,,,,,,,2821.3918,2821.8925,2822.1421,2824.6282,space,2.4783,,2824.6283,84,4,2825.6245,2825.6246,2825.6359,,,,0,6,6,6,1,75,155,,,,,,,,
,,612c95f4a142b9dc63cc45a0,65af55fe4abd09284145a17a,2024-01-23_08h09.23.155,bars,2023.2.3,Win32,60.24096386,657b66ea316d21385b68909f,,,,,,,,,,,2825.6361,2826.6252,,,2827.1277,2827.3749,,70,70,,,,,,,,,,,,,,,,bars/018.png,bars/mask007.png,,,,,,,,,,,,3,2,,,,,,,5,10,5,10,,,,,,,,,,,2826.6253,2827.1276,2827.3752,2830.242,space,2.855,,2830.2431,80,20,2831.2416,2831.2432,2831.2706,,,,0,7,7,7,1,150,90,,,,,,,,
,,612c95f4a142b9dc63cc45a0,65af55fe4abd09284145a17a,2024-01-23_08h09.23.155,bars,2023.2.3,Win32,60.24096386,657b66ea316d21385b68909f,,,,,,,,,,,2831.271,2832.2749,,,2832.7742,2833.0243,,145,145,,,,,,,,,,,,,,,,bars/038.png,bars/mask000.png,,,,,,,,,,,,2,1,,,,,,,7,8,7,9,,,,,,,,,,,2832.2749,2832.7741,2833.0244,2834.5274,space,1.4871,,2834.5275,20,75,2835.524,2835.5242,2835.5291,,,,0,8,8,8,1,165,70,,,,,,,,
,,612c95f4a142b9dc63cc45a0,65af55fe4abd09284145a17a,2024-01-23_08h09.23.155,bars,2023.2.3,Win32,60.24096386,657b66ea316d21385b68909f,,,,,,,,,,,2835.5296,2836.5236,,,2837.0246,2837.279,,144,144,,,,,,,,,,,,,,,,bars/023.png,bars/mask008.png,,,,,,,,,,,,0,2,,,,,,,5,6,7,5,,,,,,,,,,,2836.5238,2837.0244,2837.2791,2841.8746,space,4.5812,,2841.8756,56,29,2842.8741,2842.8742,2842.9089,,,,0,9,9,9,1,20,115,,,,,,,,
,,612c95f4a142b9dc63cc45a0,65af55fe4abd09284145a17a,2024-01-23_08h09.23.155,bars,2023.2.3,Win32,60.24096386,657b66ea316d21385b68909f,,,,,,,,,,,2842.9093,2843.9075,,,2844.4068,2844.6577,,170,170,,,,,,,,,,,,,,,,bars/020.png,bars/mask004.png,,,,,,,,,,,,10,2,,,,,,,7,8,7,10,,,,,,,,,,,2843.9076,2844.4068,2844.6577,2847.8591,space,3.1864,,2847.8592,55,0,2848.8581,2848.8583,2848.8919,,,,0,10,10,10,1,115,170,,,,,,,,
,,612c95f4a142b9dc63cc45a0,65af55fe4abd09284145a17a,2024-01-23_08h09.23.155,bars,2023.2.3,Win32,60.24096386,657b66ea316d21385b68909f,,,,,,,,,,,2848.8923,2849.8926,,,2850.3908,2850.6419,,129,129,,,,,,,,,,,,,,,,bars/023.png,bars/mask000.png,,,,,,,,,,,,5,2,,,,,,,9,10,8,9,,,,,,,,,,,2849.8927,2850.3906,2850.6421,2916.2217,space,65.5601,,2916.222,71,14,2917.2208,2917.2209,2917.2566,,,,0,11,11,11,1,20,115,,,,,,,,
,,612c95f4a142b9dc63cc45a0,65af55fe4abd09284145a17a,2024-01-23_08h09.23.155,bars,2023.2.3,Win32,60.24096386,657b66ea316d21385b68909f,,,,,,,,,,,2917.2571,2918.2536,,,2918.7542,2919.004,,162,162,,,,,,,,,,,,,,,,bars/043.png,bars/mask008.png,,,,,,,,,,,,0,2,,,,,,,10,10,9,10,,,,,,,,,,,2918.2537,2918.754,2919.0043,2922.4223,space,3.406,,2922.4224,48,32,2923.4203,2923.4225,2923.4565,,,,0,12,12,12,1,30,130,,,,,,,,
,,612c95f4a142b9dc63cc45a0,65af55fe4abd09284145a17a,2024-01-23_08h09.23.155,bars,2023.2.3,Win32,60.24096386,657b66ea316d21385b68909f,,,,,,,,,,,2923.4574,2924.455,,,2924.9553,2925.2033,,27,27,,,,,,,,,,,,,,,,bars/039.png,bars/mask005.png,,,,,,,,,,,,0,1,,,,,,,8,8,8,8,,,,,,,,,,,2924.4551,2924.9552,2925.2034,2928.1716,space,2.9546,,2928.1717,32,78,2929.1694,2929.1695,2929.1801,,,,0,13,13,13,1,175,105,,,,,,,,
,,612c95f4a142b9dc63cc45a0,65af55fe4abd09284145a17a,2024-01-23_08h09.23.155,bars,2023.2.3,Win32,60.24096386,657b66ea316d21385b68909f,,,,,,,,,,,2929.1803,2930.1697,,,2930.6722,2930.9236,,153,153,,,,,,,,,,,,,,,,bars/004.png,bars/mask006.png,,,,,,,,,,,,1,2,,,,,,,10,10,10,10,,,,,,,,,,,2930.1698,2930.6722,2930.9237,2935.104,space,4.1648,,2935.1043,52,28,2936.1029,2936.103,2936.135,,,,0,14,14,14,1,25,125,,,,,,,,
,,612c95f4a142b9dc63cc45a0,65af55fe4abd09284145a17a,2024-01-23_08h09.23.155,bars,2023.2.3,Win32,60.24096386,657b66ea316d21385b68909f,,,,,,,,,,,2936.1358,2937.1362,,,2937.6372,2937.8864,,65,65,,,,,,,,,,,,,,,,bars/045.png,bars/mask001.png,,,,,,,,,,,,0,1,,,,,,,8,10,6,10,,,,,,,,,,,2937.1363,2937.6371,2937.8864,2943.5869,space,5.6828,,2943.5874,35,55,2944.5851,2944.5851,2944.5959,,,,0,15,15,15,1,100,10,,,,,,,,
,,612c95f4a142b9dc63cc45a0,65af55fe4abd09284145a17a,2024-01-23_08h09.23.155,bars,2023.2.3,Win32,60.24096386,657b66ea316d21385b68909f,,,,,,,,,,,2944.5962,2945.5879,,,2946.0867,2946.3371,,45,45,,,,,,,,,,,,,,,,bars/012.png,bars/mask009.png,,,,,,,,,,,,0,2,,,,,,,10,10,10,9,,,,,,,,,,,2945.588,2946.0867,2946.3373,2950.0708,space,3.716,,2950.0711,45,30,2951.0694,2951.0694,2951.0808,,,,0,16,16,16,1,90,15,,,,,,,,
,,612c95f4a142b9dc63cc45a0,65af55fe4abd09284145a17a,2024-01-23_08h09.23.155,bars,2023.2.3,Win32,60.24096386,657b66ea316d21385b68909f,,,,,,,,,,,2951.081,2952.0689,,,2952.5694,2952.819,,140,140,,,,,,,,,,,,,,,,bars/042.png,bars/mask004.png,,,,,,,,,,,,8,1,,,,,,,10,10,10,10,,,,,,,,,,,2952.069,2952.5691,2952.8193,2959.2692,space,6.4355,,2959.27,5,65,2960.2691,2960.2692,2960.3043,,,,0,17,17,17,1,145,75,,,,,,,,
,,612c95f4a142b9dc63cc45a0,65af55fe4abd09284145a17a,2024-01-23_08h09.23.155,bars,2023.2.3,Win32,60.24096386,657b66ea316d21385b68909f,,,,,,,,,,,2960.3047,2961.3028,,,2961.8021,2962.0517,,115,115,,,,,,,,,,,,,,,,bars/021.png,bars/mask000.png,,,,,,,,,,,,0,1,,,,,,,10,10,9,10,,,,,,,,,,,2961.303,2961.8019,2962.0518,2967.1185,space,5.0512,,2967.1191,40,45,2968.1182,2968.1183,2968.1498,,,,0,18,18,18,1,155,70,,,,,,,,
,,612c95f4a142b9dc63cc45a0,65af55fe4abd09284145a17a,2024-01-23_08h09.23.155,bars,2023.2.3,Win32,60.24096386,657b66ea316d21385b68909f,,,,,,,,,,,2968.1502,2969.138,,,2969.6344,2969.8856,,62,62,,,,,,,,,,,,,,,,bars/014.png,bars/mask001.png,,,,,,,,,,,,4,1,,,,,,,8,8,10,8,,,,,,,,,,,2969.138,2969.6343,2969.8872,2972.3692,space,2.4718,,2972.3692,18,62,2973.3686,2973.3686,2973.4026,,,,0,19,19,19,1,80,0,,,,,,,,
,,612c95f4a142b9dc63cc45a0,65af55fe4abd09284145a17a,2024-01-23_08h09.23.155,bars,2023.2.3,Win32,60.24096386,657b66ea316d21385b68909f,,,,,,,,,,,2973.403,2974.4016,,,2974.9018,2975.1507,,152,-28,,,,,,,,,,,,,,,,bars/005.png,bars/mask003.png,,,,,,,,,,,,3,2,,,,,,,10,6,10,5,,,,,,,,,,,2974.4019,2974.9016,2975.1507,2979.5009,space,4.3332,,2979.5009,38,12,2980.5039,2980.504,2980.5335,,,,0,20,20,20,1,10,140,,,,,,,,
,,612c95f4a142b9dc63cc45a0,65af55fe4abd09284145a17a,2024-01-23_08h09.23.155,bars,2023.2.3,Win32,60.24096386,657b66ea316d21385b68909f,,,,,,,,,,,2980.534,2981.5337,,,2982.0348,2982.2843,,136,136,,,,,,,,,,,,,,,,bars/006.png,bars/mask008.png,,,,,,,,,,,,0,2,,,,,,,10,4,10,5,,,,,,,,,,,2981.5338,2982.0346,2982.2846,2986.0515,space,3.7507,,2986.0515,79,36,2987.0535,2987.0536,2987.0832,,,,0,21,21,21,1,35,100,,,,,,,,
,,612c95f4a142b9dc63cc45a0,65af55fe4abd09284145a17a,2024-01-23_08h09.23.155,bars,2023.2.3,Win32,60.24096386,657b66ea316d21385b68909f,,,,,,,,,,,2987.0836,2988.0841,,,2988.5838,2988.8341,,150,150,,,,,,,,,,,,,,,,bars/042.png,bars/mask003.png,,,,,,,,,,,,8,1,,,,,,,8,2,9,0,,,,,,,,,,,2988.0842,2988.5836,2988.8343,2993.967,space,5.1234,,2993.9673,5,75,2994.9669,2994.967,2994.9981,,,,0,22,22,22,1,145,75,,,,,,,,
,,612c95f4a142b9dc63cc45a0,65af55fe4abd09284145a17a,2024-01-23_08h09.23.155,bars,2023.2.3,Win32,60.24096386,657b66ea316d21385b68909f,,,,,,,,,,,2994.9986,2996.0002,,,2996.5009,2996.7503,,116,116,,,,,,,,,,,,,,,,bars/013.png,bars/mask005.png,,,,,,,,,,,,0,1,,,,,,,6,4,6,3,,,,,,,,,,,2996.0003,2996.5007,2996.7504,2999.933,space,3.1631,,2999.9331,41,74,3000.9334,3000.9335,3000.9639,,,,0,23,23,23,1,75,10,,,,,,,,
,,612c95f4a142b9dc63cc45a0,65af55fe4abd09284145a17a,2024-01-23_08h09.23.155,bars,2023.2.3,Win32,60.24096386,657b66ea316d21385b68909f,,,,,,,,,,,3000.9643,3001.9665,,,3002.4673,3002.7172,,135,135,,,,,,,,,,,,,,,,bars/044.png,bars/mask008.png,,,,,,,,,,,,2,2,,,,,,,8,6,8,6,,,,,,,,,,,3001.9666,3002.4672,3002.7173,3010.5166,space,7.7833,,3010.5176,60,20,3011.5154,3011.5154,3011.5247,,,,0,24,24,24,1,75,155,,,,,,,,
,,612c95f4a142b9dc63cc45a0,65af55fe4abd09284145a17a,2024-01-23_08h09.23.155,bars,2023.2.3,Win32,60.24096386,657b66ea316d21385b68909f,,,,,,,,,,,3011.5249,3012.5162,,,3013.0168,3013.2663,,33,33,,,,,,,,,,,,,,,,bars/039.png,bars/mask001.png,,,,,,,,,,,,0,1,,,,,,,10,4,10,5,,,,,,,,,,,3012.5162,3013.0168,3013.2666,3018.7351,space,5.4578,,3018.7353,38,72,3019.7326,3019.7327,3019.77,,,,0,25,25,25,1,175,105,,,,,,,,
,,612c95f4a142b9dc63cc45a0,65af55fe4abd09284145a17a,2024-01-23_08h09.23.155,bars,2023.2.3,Win32,60.24096386,657b66ea316d21385b68909f,,,,,,,,,,,3019.7705,3020.7658,,,3021.2659,3021.5159,,25,25,,,,,,,,,,,,,,,,bars/044.png,bars/mask008.png,,,,,,,,,,,,0,2,,,,,,,10,2,10,2,,,,,,,,,,,3020.7659,3021.2659,3021.5162,3028.5006,space,6.9673,,3028.5007,50,50,3029.4994,3029.4996,3029.5248,,,,0,26,26,26,1,75,155,,,,,,,,
,,612c95f4a142b9dc63cc45a0,65af55fe4abd09284145a17a,2024-01-23_08h09.23.155,bars,2023.2.3,Win32,60.24096386,657b66ea316d21385b68909f,,,,,,,,,,,3029.5252,3030.5158,,,3031.0157,3031.2654,,169,169,,,,,,,,,,,,,,,,bars/029.png,bars/mask004.png,,,,,,,,,,,,0,2,,,,,,,8,4,7,4,,,,,,,,,,,3030.5158,3031.0155,3031.2655,3032.5827,space,1.3048,,3032.5837,79,56,3033.582,3033.5821,3033.6124,,,,0,27,27,27,1,90,45,,,,,,,,
,,612c95f4a142b9dc63cc45a0,65af55fe4abd09284145a17a,2024-01-23_08h09.23.155,bars,2023.2.3,Win32,60.24096386,657b66ea316d21385b68909f,,,,,,,,,,,3033.6127,3034.6151,,,3035.1155,3035.3653,,27,207,,,,,,,,,,,,,,,,bars/029.png,bars/mask000.png,,,,,,,,,,,,3,2,,,,,,,6,6,4,7,,,,,,,,,,,3034.6152,3035.1153,3035.3654,3044.2341,space,8.8528,,3044.2341,63,18,3045.2317,3045.2318,3045.2477,,,,0,28,28,28,1,90,45,,,,,,,,
,,612c95f4a142b9dc63cc45a0,65af55fe4abd09284145a17a,2024-01-23_08h09.23.155,bars,2023.2.3,Win32,60.24096386,657b66ea316d21385b68909f,,,,,,,,,,,3045.2481,3046.2486,,,3046.7489,3046.9999,,166,166,,,,,,,,,,,,,,,,bars/014.png,bars/mask004.png,,,,,,,,,,,,2,2,,,,,,,4,4,3,4,,,,,,,,,,,3046.2486,3046.7487,3046.9999,3049.8832,space,2.8724,,3049.8834,86,14,3050.8808,3050.881,3050.9112,,,,0,29,29,29,1,80,0,,,,,,,,
,,612c95f4a142b9dc63cc45a0,65af55fe4abd09284145a17a,2024-01-23_08h09.23.155,bars,2023.2.3,Win32,60.24096386,657b66ea316d21385b68909f,,,,,,,,,,,3050.9116,3051.9139,,,3052.4143,3052.6649,,33,213,,,,,,,,,,,,,,,,bars/044.png,bars/mask001.png,,,,,,,,,,,,0,1,,,,,,,6,2,6,3,,,,,,,,,,,3051.914,3052.4139,3052.6649,3055.5641,space,2.887,,3055.5645,42,58,3056.5642,3056.5643,3056.5979,,,,0,30,30,30,1,75,155,,,,,,,,
,,612c95f4a142b9dc63cc45a0,65af55fe4abd09284145a17a,2024-01-23_08h09.23.155,bars,2023.2.3,Win32,60.24096386,657b66ea316d21385b68909f,,,,,,,,,,,3056.5982,3057.5971,,,3058.0969,3058.3482,,115,115,,,,,,,,,,,,,,,,bars/043.png,bars/mask000.png,,,,,,,,,,,,0,2,,,,,,,4,0,5,0,,,,,,,,,,,3057.5972,3058.0968,3058.3483,3061.7974,space,3.4363,,3061.7977,85,15,3062.7969,3062.797,3062.8301,,,,0,31,31,31,1,30,130,,,,,,,,
,,612c95f4a142b9dc63cc45a0,65af55fe4abd09284145a17a,2024-01-23_08h09.23.155,bars,2023.2.3,Win32,60.24096386,657b66ea316d21385b68909f,,,,,,,,,,,3062.8307,3063.8317,,,3064.3303,3064.5827,,150,150,,,,,,,,,,,,,,,,bars/007.png,bars/mask001.png,,,,,,,,,,,,1,1,,,,,,,6,2,6,2,,,,,,,,,,,3063.8319,3064.3301,3064.5828,3070.8808,space,6.2861,,3070.8809,25,85,3071.8799,3071.88,3071.8908,,,,0,32,32,32,1,175,55,,,,,,,,
,,612c95f4a142b9dc63cc45a0,65af55fe4abd09284145a17a,2024-01-23_08h09.23.155,bars,2023.2.3,Win32,60.24096386,657b66ea316d21385b68909f,,,,,,,,,,,3071.8912,3072.8794,,,3073.3799,3073.6295,,115,115,,,,,,,,,,,,,,,,bars/036.png,bars/mask004.png,,,,,,,,,,,,0,1,,,,,,,8,4,10,5,,,,,,,,,,,3072.8795,3073.3798,3073.6297,3076.7132,space,3.0658,,3076.7133,30,85,3077.7127,3077.7128,3077.7235,,,,0,33,33,33,1,145,20,,,,,,,,
,,612c95f4a142b9dc63cc45a0,65af55fe4abd09284145a17a,2024-01-23_08h09.23.155,bars,2023.2.3,Win32,60.24096386,657b66ea316d21385b68909f,,,,,,,,,,,3077.7237,3078.7127,,,3079.213,3079.4625,,95,95,,,,,,,,,,,,,,,,bars/030.png,bars/mask000.png,,,,,,,,,,,,0,2,,,,,,,10,6,8,5,,,,,,,,,,,3078.7129,3079.2127,3079.4627,3082.4474,space,2.9688,,3082.4476,45,30,3083.4461,3083.4462,3083.4801,,,,0,34,34,34,1,140,65,,,,,,,,
,,612c95f4a142b9dc63cc45a0,65af55fe4abd09284145a17a,2024-01-23_08h09.23.155,bars,2023.2.3,Win32,60.24096386,657b66ea316d21385b68909f,,,,,,,,,,,3083.4808,3084.48,,,3084.9818,3085.2293,,62,62,,,,,,,,,,,,,,,,bars/042.png,bars/mask000.png,,,,,,,,,,,,5,2,,,,,,,10,8,10,8,,,,,,,,,,,3084.4801,3084.9813,3085.2294,3087.2975,space,2.0594,,3087.2976,83,13,3088.2954,3088.2959,3088.3155,,,,0,35,35,35,1,145,75,,,,,,,,
,,612c95f4a142b9dc63cc45a0,65af55fe4abd09284145a17a,2024-01-23_08h09.23.155,bars,2023.2.3,Win32,60.24096386,657b66ea316d21385b68909f,,,,,,,,,,,3088.3158,3089.3132,,,3089.813,3090.0622,,92,92,,,,,,,,,,,,,,,,bars/040.png,bars/mask005.png,,,,,,,,,,,,0,1,,,,,,,8,10,8,10,,,,,,,,,,,3089.3133,3089.8128,3090.0625,3092.4794,space,2.4056,,3092.4796,48,87,3093.4786,3093.4787,3093.4944,,,,0,36,36,36,1,140,5,,,,,,,,
,,612c95f4a142b9dc63cc45a0,65af55fe4abd09284145a17a,2024-01-23_08h09.23.155,bars,2023.2.3,Win32,60.24096386,657b66ea316d21385b68909f,,,,,,,,,,,3093.495,3096.2636,,,3096.265,3096.2658,,30,30,,,,,,,,,,,,,,,,bars/005.png,bars/mask002.png,,,,,,,,,,,,2,1,,,,,,,6,10,5,9,,,,,,,,,,,3096.2637,3096.2649,3096.2658,3099.8949,space,3.6189,,3099.8949,20,70,3100.895,3100.895,3100.914,,,,0,37,37,37,1,10,140,,,,,,,,
,,612c95f4a142b9dc63cc45a0,65af55fe4abd09284145a17a,2024-01-23_08h09.23.155,bars,2023.2.3,Win32,60.24096386,657b66ea316d21385b68909f,,,,,,,,,,,3100.9143,3101.913,,,3102.413,3102.6618,,103,103,,,,,,,,,,,,,,,,bars/019.png,bars/mask007.png,,,,,,,,,,,,7,2,,,,,,,4,8,4,8,,,,,,,,,,,3101.9132,3102.4127,3102.6618,3108.3463,space,5.6702,,3108.3466,58,2,3109.3443,3109.3444,3109.3538,,,,0,38,38,38,1,45,105,,,,,,,,
,,612c95f4a142b9dc63cc45a0,65af55fe4abd09284145a17a,2024-01-23_08h09.23.155,bars,2023.2.3,Win32,60.24096386,657b66ea316d21385b68909f,,,,,,,,,,,3109.3543,3110.3449,,,3110.8461,3111.0947,,22,202,,,,,,,,,,,,,,,,bars/024.png,bars/mask008.png,,,,,,,,,,,,0,2,,,,,,,2,6,2,5,,,,,,,,,,,3110.3451,3110.846,3111.0949,3117.58,space,6.469,,3117.5801,82,32,3118.5793,3118.5795,3118.6083,,,,0,39,39,39,1,120,170,,,,,,,,
,,612c95f4a142b9dc63cc45a0,65af55fe4abd09284145a17a,2024-01-23_08h09.23.155,bars,2023.2.3,Win32,60.24096386,657b66ea316d21385b68909f,,,,,,,,,,,3118.6087,3119.6108,,,3120.111,3120.3606,,103,103,,,,,,,,,,,,,,,,bars/029.png,bars/mask003.png,,,,,,,,,,,,3,1,,,,,,,4,8,5,7,,,,,,,,,,,3119.6108,3120.1107,3120.3607,3122.1446,space,1.7728,,3122.1448,13,58,3123.1448,3123.145,3123.147,,,,0,40,40,40,1,90,45,,,,,,,,
,,612c95f4a142b9dc63cc45a0,65af55fe4abd09284145a17a,2024-01-23_08h09.23.155,bars,2023.2.3,Win32,60.24096386,657b66ea316d21385b68909f,,,,,,,,,,,3123.1472,3124.144,,,3124.6444,3124.8945,,125,125,,,,,,,,,,,,,,,,bars/011.png,bars/mask006.png,,,,,,,,,,,,0,1,,,,,,,2,6,2,5,,,,,,,,,,,3124.1442,3124.6442,3124.8946,3134.8265,space,9.9251,,3134.8266,35,40,3135.8271,3135.8271,3135.8581,,,,0,41,41,41,1,160,85,,,,,,,,
,,612c95f4a142b9dc63cc45a0,65af55fe4abd09284145a17a,2024-01-23_08h09.23.155,bars,2023.2.3,Win32,60.24096386,657b66ea316d21385b68909f,,,,,,,,,,,3135.8583,3136.8633,,,3137.3603,3137.6099,,100,100,,,,,,,,,,,,,,,,bars/048.png,bars/mask005.png,,,,,,,,,,,,0,1,,,,,,,0,4,0,3,,,,,,,,,,,3136.8634,3137.3602,3137.61,3139.8114,space,2.1885,,3139.8119,50,75,3140.8103,3140.8103,3140.8433,,,,0,42,42,42,1,50,175,,,,,,,,
,,612c95f4a142b9dc63cc45a0,65af55fe4abd09284145a17a,2024-01-23_08h09.23.155,bars,2023.2.3,Win32,60.24096386,657b66ea316d21385b68909f,,,,,,,,,,,3140.8438,3141.8458,,,3142.3436,3142.5936,,39,219,,,,,,,,,,,,,,,,bars/017.png,bars/mask006.png,,,,,,,,,,,,2,2,,,,,,,2,2,1,3,,,,,,,,,,,3141.8459,3142.3434,3142.5936,3148.7616,space,6.1515,,3148.7619,74,6,3149.7597,3149.7598,3149.7943,,,,0,43,43,43,1,145,45,,,,,,,,
,,612c95f4a142b9dc63cc45a0,65af55fe4abd09284145a17a,2024-01-23_08h09.23.155,bars,2023.2.3,Win32,60.24096386,657b66ea316d21385b68909f,,,,,,,,,,,3149.7949,3150.7929,,,3151.2931,3151.5428,,67,67,,,,,,,,,,,,,,,,bars/038.png,bars/mask004.png,,,,,,,,,,,,4,2,,,,,,,4,4,5,4,,,,,,,,,,,3150.793,3151.293,3151.5429,3155.6266,space,4.0766,,3155.6266,82,3,3156.629,3156.6291,3156.6614,,,,0,44,44,44,1,165,70,,,,,,,,
,,612c95f4a142b9dc63cc45a0,65af55fe4abd09284145a17a,2024-01-23_08h09.23.155,bars,2023.2.3,Win32,60.24096386,657b66ea316d21385b68909f,,,,,,,,,,,3156.6619,3157.6586,,,3158.1588,3158.4092,,49,49,,,,,,,,,,,,,,,,bars/017.png,bars/mask004.png,,,,,,,,,,,,2,2,,,,,,,6,2,5,2,,,,,,,,,,,3157.6586,3158.1588,3158.4094,3208.7741,space,50.3509,,3208.7745,84,4,3209.7731,3209.7732,3209.785,,,,0,45,45,45,1,145,45,,,,,,,,
,,612c95f4a142b9dc63cc45a0,65af55fe4abd09284145a17a,2024-01-23_08h09.23.155,bars,2023.2.3,Win32,60.24096386,657b66ea316d21385b68909f,,,,,,,,,,,3209.7852,3210.7744,,,3211.2738,3211.5243,,71,71,,,,,,,,,,,,,,,,bars/043.png,bars/mask006.png,,,,,,,,,,,,0,1,,,,,,,4,4,5,2,,,,,,,,,,,3210.7749,3211.2736,3211.5244,3213.9907,space,2.4529,,3213.991,41,59,3214.9895,3214.9896,3215.0098,,,,0,46,46,46,1,30,130,,,,,,,,
,,612c95f4a142b9dc63cc45a0,65af55fe4abd09284145a17a,2024-01-23_08h09.23.155,bars,2023.2.3,Win32,60.24096386,657b66ea316d21385b68909f,,,,,,,,,,,3215.01,3216.0066,,,3216.5083,3216.7562,,64,64,,,,,,,,,,,,,,,,bars/009.png,bars/mask006.png,,,,,,,,,,,,0,2,,,,,,,6,2,7,2,,,,,,,,,,,3216.0067,3216.5081,3216.7562,3220.9402,space,4.1751,,3220.9406,49,41,3221.9412,3221.9414,3221.9729,,,,0,47,47,47,1,15,105,,,,,,,,
,,612c95f4a142b9dc63cc45a0,65af55fe4abd09284145a17a,2024-01-23_08h09.23.155,bars,2023.2.3,Win32,60.24096386,657b66ea316d21385b68909f,,,,,,,,,,,3221.9735,3222.9732,,,3223.4733,3223.7225,,92,92,,,,,,,,,,,,,,,,bars/033.png,bars/mask009.png,,,,,,,,,,,,0,2,,,,,,,4,4,3,3,,,,,,,,,,,3222.9734,3223.4732,3223.7225,3227.2434,space,3.5158,,3227.2434,67,63,3228.239,3228.239,3228.265,,,,0,48,48,48,1,25,155,,,,,,,,
,,612c95f4a142b9dc63cc45a0,65af55fe4abd09284145a17a,2024-01-23_08h09.23.155,bars,2023.2.3,Win32,60.24096386,657b66ea316d21385b68909f,,,,,,,,,,,3228.2654,3229.2556,,,3229.7572,3230.0067,,99,99,,,,,,,,,,,,,,,,bars/017.png,bars/mask008.png,,,,,,,,,,,,0,1,,,,,,,2,2,1,2,,,,,,,,,,,3229.2558,3229.7571,3230.0068,3233.9559,space,3.9334,,3233.9561,46,54,3234.9555,3234.9556,3234.9844,,,,0,49,49,49,1,145,45,,,,,,,,
,,612c95f4a142b9dc63cc45a0,65af55fe4abd09284145a17a,2024-01-23_08h09.23.155,bars,2023.2.3,Win32,60.24096386,657b66ea316d21385b68909f,,,,,,,,,,,,,,,,,,,,,,,,,,,,,,,,,,,,,,,,,,,,,,,,,,,,,,,,,,,,,,,,,,,,,,,,,,,,,,,,,,,,,,,,,,,,,3234.9848,3294.9875,0,3,3,1,1,sequence_tables/blk020.csv
,,612c95f4a142b9dc63cc45a0,65af55fe4abd09284145a17a,2024-01-23_08h09.23.155,bars,2023.2.3,Win32,60.24096386,657b66ea316d21385b68909f,,,,,,,,,,,3970.4127,3971.3882,,,3971.8883,3972.1372,,27,27,,,,,,,,,,,,,,,,bars/034.png,bars/mask002.png,,,,,,,,,,,,0,2,,,,,,,7,2,8,3,,,,,,3295.0191,3970.3747,space,675.3402,,3971.3889,3971.8882,3972.1373,3975.1548,space,3.0072,,3975.1549,82,38,3976.1537,3976.1538,3976.1629,,,,0,0,0,0,1,125,65,,,,,,,,
,,612c95f4a142b9dc63cc45a0,65af55fe4abd09284145a17a,2024-01-23_08h09.23.155,bars,2023.2.3,Win32,60.24096386,657b66ea316d21385b68909f,,,,,,,,,,,3976.1631,3977.1545,,,3977.6574,3977.9049,,78,78,,,,,,,,,,,,,,,,bars/033.png,bars/mask008.png,,,,,,,,,,,,0,1,,,,,,,9,4,8,5,,,,,,,,,,,3977.1548,3977.6573,3977.905,3979.1549,space,1.2375,,3979.1558,53,77,3980.1537,3980.1537,3980.1562,,,,0,1,1,1,1,25,155,,,,,,,,
,,612c95f4a142b9dc63cc45a0,65af55fe4abd09284145a17a,2024-01-23_08h09.23.155,bars,2023.2.3,Win32,60.24096386,657b66ea316d21385b68909f,,,,,,,,,,,3980.1565,3981.1551,,,3981.6555,3981.9082,,33,33,,,,,,,,,,,,,,,,bars/032.png,bars/mask009.png,,,,,,,,,,,,3,2,,,,,,,7,6,6,6,,,,,,,,,,,3981.1558,3981.6553,3981.9082,3983.6047,space,1.6802,,3983.6048,88,13,3984.6042,3984.6043,3984.6419,,,,0,2,2,2,1,125,20,,,,,,,,
,,612c95f4a142b9dc63cc45a0,65af55fe4abd09284145a17a,2024-01-23_08h09.23.155,bars,2023.2.3,Win32,60.24096386,657b66ea316d21385b68909f,,,,,,,,,,,3984.6422,3985.638,,,3986.1377,3986.3877,,47,47,,,,,,,,,,,,,,,,bars/030.png,bars/mask004.png,,,,,,,,,,,,4,2,,,,,,,5,8,6,9,,,,,,,,,,,3985.6381,3986.1377,3986.3879,3989.2897,space,2.8926,,3989.2898,87,18,3990.288,3990.2883,3990.3211,,,,0,3,3,3,1,140,65,,,,,,,,
,,612c95f4a142b9dc63cc45a0,65af55fe4abd09284145a17a,2024-01-23_08h09.23.155,bars,2023.2.3,Win32,60.24096386,657b66ea316d21385b68909f,,,,,,,,,,,3990.3216,3991.3201,,,3991.8223,3992.0712,,49,49,,,,,,,,,,,,,,,,bars/012.png,bars/mask003.png,,,,,,,,,,,,0,2,,,,,,,3,6,2,6,,,,,,,,,,,3991.3202,3991.821,3992.0716,4000.1378,space,8.0553,,4000.1381,41,34,4001.1364,4001.1365,4001.165,,,,0,4,4,4,1,90,15,,,,,,,,
,,612c95f4a142b9dc63cc45a0,65af55fe4abd09284145a17a,2024-01-23_08h09.23.155,bars,2023.2.3,Win32,60.24096386,657b66ea316d21385b68909f,,,,,,,,,,,4001.1652,4002.1539,,,4002.6539,4002.9029,,123,123,,,,,,,,,,,,,,,,bars/015.png,bars/mask007.png,,,,,,,,,,,,2,1,,,,,,,5,4,4,5,,,,,,,,,,,4002.154,4002.6537,4002.9033,4010.6363,space,7.716,,4010.6366,13,37,4011.6364,4011.6365,4011.6714,,,,0,5,5,5,1,110,160,,,,,,,,
,,612c95f4a142b9dc63cc45a0,65af55fe4abd09284145a17a,2024-01-23_08h09.23.155,bars,2023.2.3,Win32,60.24096386,657b66ea316d21385b68909f,,,,,,,,,,,4011.6719,4012.671,,,4013.1689,4013.4206,,127,127,,,,,,,,,,,,,,,,bars/012.png,bars/mask003.png,,,,,,,,,,,,0,1,,,,,,,3,2,3,3,,,,,,,,,,,4012.6711,4013.1688,4013.4207,4016.6217,space,3.1941,,4016.6218,37,68,4017.6193,4017.6194,4017.6525,,,,0,6,6,6,1,90,15,,,,,,,,
,,612c95f4a142b9dc63cc45a0,65af55fe4abd09284145a17a,2024-01-23_08h09.23.155,bars,2023.2.3,Win32,60.24096386,657b66ea316d21385b68909f,,,,,,,,,,,4017.6532,4018.6522,,,4019.1528,4019.4017,,175,175,,,,,,,,,,,,,,,,bars/014.png,bars/mask006.png,,,,,,,,,,,,3,2,,,,,,,1,4,2,3,,,,,,,,,,,4018.6523,4019.1526,4019.4017,4020.8366,space,1.4286,,4020.8368,85,5,4021.8348,4021.8349,4021.8453,,,,0,7,7,7,1,80,0,,,,,,,,
,,612c95f4a142b9dc63cc45a0,65af55fe4abd09284145a17a,2024-01-23_08h09.23.155,bars,2023.2.3,Win32,60.24096386,657b66ea316d21385b68909f,,,,,,,,,,,4021.8456,4022.8349,,,4023.335,4023.5854,,66,66,,,,,,,,,,,,,,,,bars/035.png,bars/mask000.png,,,,,,,,,,,,2,2,,,,,,,0,2,0,3,,,,,,,,,,,4022.8349,4023.335,4023.5854,4024.5684,space,0.9787,,4024.5684,71,6,4025.5681,4025.5681,4025.5695,,,,0,8,8,8,1,175,60,,,,,,,,
,,612c95f4a142b9dc63cc45a0,65af55fe4abd09284145a17a,2024-01-23_08h09.23.155,bars,2023.2.3,Win32,60.24096386,657b66ea316d21385b68909f,,,,,,,,,,,4025.5703,4027.3554,,,4027.356,4027.3564,,136,136,,,,,,,,,,,,,,,,bars/021.png,bars/mask000.png,,,,,,,,,,,,0,1,,,,,,,0,4,0,5,,,,,,,,,,,4027.3554,4027.356,4027.3564,4029.5513,space,2.1751,,4029.5513,19,66,4030.5512,4030.5512,4030.5611,,,,0,9,9,9,1,155,70,,,,,,,,
,,612c95f4a142b9dc63cc45a0,65af55fe4abd09284145a17a,2024-01-23_08h09.23.155,bars,2023.2.3,Win32,60.24096386,657b66ea316d21385b68909f,,,,,,,,,,,4030.5613,4031.5511,,,4032.051,4032.3011,,123,123,,,,,,,,,,,,,,,,bars/001.png,bars/mask001.png,,,,,,,,,,,,0,1,,,,,,,0,6,0,6,,,,,,,,,,,4031.5512,4032.051,4032.3011,4034.551,space,2.2365,,4034.551,7,38,4035.5508,4035.5508,4035.5516,,,,0,10,10,10,1,130,85,,,,,,,,
