init_variables.started,init_variables.stopped,participant,session,date,expName,psychopyVersion,OS,frameRate,study_id,instruction_exp.started,instruction_exp.stopped,key_resp_8.keys,key_resp_8.rt,key_resp_8.duration,instruction_single.started,instruction_single.stopped,key_resp_2.keys,key_resp_2.rt,key_resp_2.duration,interval.started,interval.stopped,cue_single.started,cue_single.stopped,mask.started,mask.stopped,ori_response_single.started,res_ori,res,ori_response_single.stopped,key_resp_single.keys,key_resp_single.rt,key_resp_single.duration,disp_single.started,disp_single.stopped,key_resp.keys,key_resp.rt,key_resp.duration,single.thisRepN,single.thisTrialN,single.thisN,single.thisIndex,single.ran,ori,path,mask_path,instruction_bandit.started,instruction_bandit.stopped,key_resp_6.keys,key_resp_6.rt,key_resp_6.duration,cue_bandit.started,cue_bandit.stopped,bandit_res.keys,bandit_res.rt,bandit_res.duration,outcome_bandit.started,rew,action,outcome_bandit.stopped,bandit.thisRepN,bandit.thisTrialN,bandit.thisN,bandit.thisIndex,bandit.ran,actual_rew1,actual_rew2,rew1,rew2,instruction_task.started,instruction_task.stopped,key_resp_7.keys,key_resp_7.rt,key_resp_7.duration,wait_ready.started,wait_ready.stopped,key_resp_3.keys,key_resp_3.rt,key_resp_3.duration,cue.started,cue.stopped,ori_response.started,ori_response.stopped,key_resp_5.keys,key_resp_5.rt,key_resp_5.duration,outcome.started,diff1,diff2,outcome.stopped,disp_outcome_practice.started,disp_outcome_practice.stopped,key_resp_4.keys,key_resp_4.rt,key_resp_4.duration,trials.thisRepN,trials.thisTrialN,trials.thisN,trials.thisIndex,trials.ran,ori1,ori2,break_blk.started,break_blk.stopped,block.thisRepN,block.thisTrialN,block.thisN,block.thisIndex,block.ran,condition_file
0.0002,0.0003,610bb066fa8d2a5647a40c77,65af534e3f5fcc7f4ffca766,2024-01-23_07h50.50.927,bars,2023.2.3,Win32,59.88023952,657b66ea316d21385b68909f,,,,,,,,,,,,,,,,,,,,,,,,,,,,,,,,,,,,,,,,,,,,,,,,,,,,,,,,,,,,,,,,,,,,,,,,,,,,,,,,,,,,,,,,,,,,,,,,,,,,
,,610bb066fa8d2a5647a40c77,65af534e3f5fcc7f4ffca766,2024-01-23_07h50.50.927,bars,2023.2.3,Win32,59.88023952,657b66ea316d21385b68909f,0.0005,9.463,y,9.4442,,,,,,,,,,,,,,,,,,,,,,,,,,,,,,,,,,,,,,,,,,,,,,,,,,,,,,,,,,,,,,,,,,,,,,,,,,,,,,,,,,,,,,,,,,,,,,,,
,,610bb066fa8d2a5647a40c77,65af534e3f5fcc7f4ffca766,2024-01-23_07h50.50.927,bars,2023.2.3,Win32,59.88023952,657b66ea316d21385b68909f,,,,,,9.4632,24.6635,space,15.1803,,,,,,,,,,,,,,,,,,,,,,,,,,,,,,,,,,,,,,,,,,,,,,,,,,,,,,,,,,,,,,,,,,,,,,,,,,,,,,,,,,,,,,,,,,,
,,610bb066fa8d2a5647a40c77,65af534e3f5fcc7f4ffca766,2024-01-23_07h50.50.927,bars,2023.2.3,Win32,59.88023952,657b66ea316d21385b68909f,,,,,,,,,,,24.6688,25.6614,25.6616,26.1631,26.1633,26.4144,26.4145,90,90,33.8061,space,7.3609,,33.8063,41.0675,space,7.23,,0,0,0,2,1,145,bars/single002.png,bars/mask003.png,,,,,,,,,,,,,,,,,,,,,,,,,,,,,,,,,,,,,,,,,,,,,,,,,,,,,,,,,,,,,,,,
,,610bb066fa8d2a5647a40c77,65af534e3f5fcc7f4ffca766,2024-01-23_07h50.50.927,bars,2023.2.3,Win32,59.88023952,657b66ea316d21385b68909f,,,,,,,,,,,41.0844,42.0684,42.0685,42.571,42.5711,42.8184,42.8185,0,180,52.8061,space,9.9528,,52.8061,57.2401,space,4.4054,,0,1,1,6,1,175,bars/single006.png,bars/mask005.png,,,,,,,,,,,,,,,,,,,,,,,,,,,,,,,,,,,,,,,,,,,,,,,,,,,,,,,,,,,,,,,,
,,610bb066fa8d2a5647a40c77,65af534e3f5fcc7f4ffca766,2024-01-23_07h50.50.927,bars,2023.2.3,Win32,59.88023952,657b66ea316d21385b68909f,,,,,,,,,,,57.2495,58.2402,58.2403,58.7377,58.7378,58.9745,58.9745,157,157,64.3812,space,5.3716,,64.3813,104.9731,space,40.5652,,0,2,2,9,1,20,bars/single009.png,bars/mask006.png,,,,,,,,,,,,,,,,,,,,,,,,,,,,,,,,,,,,,,,,,,,,,,,,,,,,,,,,,,,,,,,,
,,610bb066fa8d2a5647a40c77,65af534e3f5fcc7f4ffca766,2024-01-23_07h50.50.927,bars,2023.2.3,Win32,59.88023952,657b66ea316d21385b68909f,,,,,,,,,,,104.9845,105.9764,105.9764,106.4576,106.4577,106.7101,106.7102,156,156,109.1548,space,2.4268,,109.1548,111.1675,space,1.9848,,0,3,3,4,1,95,bars/single004.png,bars/mask004.png,,,,,,,,,,,,,,,,,,,,,,,,,,,,,,,,,,,,,,,,,,,,,,,,,,,,,,,,,,,,,,,,
,,610bb066fa8d2a5647a40c77,65af534e3f5fcc7f4ffca766,2024-01-23_07h50.50.927,bars,2023.2.3,Win32,59.88023952,657b66ea316d21385b68909f,,,,,,,,,,,111.1679,112.1608,112.1609,112.6492,112.6492,112.8988,112.8988,162,162,114.9427,space,2.0267,,114.9427,115.8729,space,0.915,,0,4,4,3,1,20,bars/single003.png,bars/mask005.png,,,,,,,,,,,,,,,,,,,,,,,,,,,,,,,,,,,,,,,,,,,,,,,,,,,,,,,,,,,,,,,,
,,610bb066fa8d2a5647a40c77,65af534e3f5fcc7f4ffca766,2024-01-23_07h50.50.927,bars,2023.2.3,Win32,59.88023952,657b66ea316d21385b68909f,,,,,,,,,,,115.8732,116.8632,116.8632,117.3509,117.3509,117.5993,117.5993,110,110,119.3568,space,1.7418,,119.3569,121.8015,space,2.4276,,0,5,5,5,1,55,bars/single005.png,bars/mask008.png,,,,,,,,,,,,,,,,,,,,,,,,,,,,,,,,,,,,,,,,,,,,,,,,,,,,,,,,,,,,,,,,
,,610bb066fa8d2a5647a40c77,65af534e3f5fcc7f4ffca766,2024-01-23_07h50.50.927,bars,2023.2.3,Win32,59.88023952,657b66ea316d21385b68909f,,,,,,,,,,,121.8019,122.7833,122.7833,123.27,123.27,123.5358,123.5358,65,65,127.4342,space,3.8804,,127.4342,130.5447,space,3.0809,,0,6,6,7,1,45,bars/single007.png,bars/mask009.png,,,,,,,,,,,,,,,,,,,,,,,,,,,,,,,,,,,,,,,,,,,,,,,,,,,,,,,,,,,,,,,,
,,610bb066fa8d2a5647a40c77,65af534e3f5fcc7f4ffca766,2024-01-23_07h50.50.927,bars,2023.2.3,Win32,59.88023952,657b66ea316d21385b68909f,,,,,,,,,,,130.5451,131.5491,131.5492,132.0351,132.0351,132.2682,132.2682,153,153,134.9599,space,2.6602,,134.9599,136.2626,space,1.2834,,0,7,7,0,1,150,bars/single000.png,bars/mask006.png,,,,,,,,,,,,,,,,,,,,,,,,,,,,,,,,,,,,,,,,,,,,,,,,,,,,,,,,,,,,,,,,
,,610bb066fa8d2a5647a40c77,65af534e3f5fcc7f4ffca766,2024-01-23_07h50.50.927,bars,2023.2.3,Win32,59.88023952,657b66ea316d21385b68909f,,,,,,,,,,,136.2629,137.2675,137.2675,137.7708,137.7709,138.0207,138.0208,171,-9,143.726,space,5.6882,,143.7261,144.6447,space,0.8894,,0,8,8,1,1,20,bars/single001.png,bars/mask006.png,,,,,,,,,,,,,,,,,,,,,,,,,,,,,,,,,,,,,,,,,,,,,,,,,,,,,,,,,,,,,,,,
,,610bb066fa8d2a5647a40c77,65af534e3f5fcc7f4ffca766,2024-01-23_07h50.50.927,bars,2023.2.3,Win32,59.88023952,657b66ea316d21385b68909f,,,,,,,,,,,144.6452,145.6473,145.6474,146.1508,146.1509,146.4017,146.4017,153,-27,148.709,space,2.2756,,148.709,150.5645,space,1.8386,,0,9,9,8,1,160,bars/single008.png,bars/mask004.png,,,,,,,,,,,,,,,,,,,,,,,,,,,,,,,,,,,,,,,,,,,,,,,,,,,,,,,,,,,,,,,,
,,610bb066fa8d2a5647a40c77,65af534e3f5fcc7f4ffca766,2024-01-23_07h50.50.927,bars,2023.2.3,Win32,59.88023952,657b66ea316d21385b68909f,,,,,,,,,,,,,,,,,,,,,,,,,,,,,,,,,,,,,150.5655,188.5822,space,37.9991,,,,,,,,,,,,,,,,,,,,,,,,,,,,,,,,,,,,,,,,,,,,,,,,,,,,,,,,,,,,
,,610bb066fa8d2a5647a40c77,65af534e3f5fcc7f4ffca766,2024-01-23_07h50.50.927,bars,2023.2.3,Win32,59.88023952,657b66ea316d21385b68909f,,,,,,,,,,,,,,,,,,,,,,,,,,,,,,,,,,,,,,,,,,188.5943,189.5542,left,0.9406,,189.5545,9,1,190.555,0,0,0,0,1,9,1,9,2,,,,,,,,,,,,,,,,,,,,,,,,,,,,,,,,,,,,,,,,,
,,610bb066fa8d2a5647a40c77,65af534e3f5fcc7f4ffca766,2024-01-23_07h50.50.927,bars,2023.2.3,Win32,59.88023952,657b66ea316d21385b68909f,,,,,,,,,,,,,,,,,,,,,,,,,,,,,,,,,,,,,,,,,,190.5558,191.5944,left,1.0215,,191.5944,10,1,192.5971,0,1,1,1,1,10,0,10,1,,,,,,,,,,,,,,,,,,,,,,,,,,,,,,,,,,,,,,,,,
,,610bb066fa8d2a5647a40c77,65af534e3f5fcc7f4ffca766,2024-01-23_07h50.50.927,bars,2023.2.3,Win32,59.88023952,657b66ea316d21385b68909f,,,,,,,,,,,,,,,,,,,,,,,,,,,,,,,,,,,,,,,,,,192.5977,193.249,right,0.6345,,193.249,2,2,194.2486,0,2,2,2,1,10,2,10,2,,,,,,,,,,,,,,,,,,,,,,,,,,,,,,,,,,,,,,,,,
,,610bb066fa8d2a5647a40c77,65af534e3f5fcc7f4ffca766,2024-01-23_07h50.50.927,bars,2023.2.3,Win32,59.88023952,657b66ea316d21385b68909f,,,,,,,,,,,,,,,,,,,,,,,,,,,,,,,,,,,,,,,,,,194.2493,194.804,right,0.5203,,194.804,3,2,195.8053,0,3,3,3,1,8,4,7,3,,,,,,,,,,,,,,,,,,,,,,,,,,,,,,,,,,,,,,,,,
,,610bb066fa8d2a5647a40c77,65af534e3f5fcc7f4ffca766,2024-01-23_07h50.50.927,bars,2023.2.3,Win32,59.88023952,657b66ea316d21385b68909f,,,,,,,,,,,,,,,,,,,,,,,,,,,,,,,,,,,,,,,,,,195.8057,196.3756,right,0.552,,196.3756,1,2,197.3947,0,4,4,4,1,6,2,5,1,,,,,,,,,,,,,,,,,,,,,,,,,,,,,,,,,,,,,,,,,
,,610bb066fa8d2a5647a40c77,65af534e3f5fcc7f4ffca766,2024-01-23_07h50.50.927,bars,2023.2.3,Win32,59.88023952,657b66ea316d21385b68909f,,,,,,,,,,,,,,,,,,,,,,,,,,,,,,,,,,,,,,,,,,197.3953,197.6979,right,0.2844,,197.698,4,2,198.6987,0,5,5,5,1,4,4,4,4,,,,,,,,,,,,,,,,,,,,,,,,,,,,,,,,,,,,,,,,,
,,610bb066fa8d2a5647a40c77,65af534e3f5fcc7f4ffca766,2024-01-23_07h50.50.927,bars,2023.2.3,Win32,59.88023952,657b66ea316d21385b68909f,,,,,,,,,,,,,,,,,,,,,,,,,,,,,,,,,,,,,,,,,,198.6992,198.988,left,0.2701,,198.988,1,1,199.9891,0,6,6,6,1,2,2,1,2,,,,,,,,,,,,,,,,,,,,,,,,,,,,,,,,,,,,,,,,,
,,610bb066fa8d2a5647a40c77,65af534e3f5fcc7f4ffca766,2024-01-23_07h50.50.927,bars,2023.2.3,Win32,59.88023952,657b66ea316d21385b68909f,,,,,,,,,,,,,,,,,,,,,,,,,,,,,,,,,,,,,,,,,,199.9896,200.2045,right,0.1832,,200.2045,1,2,201.2072,0,7,7,7,1,0,0,0,1,,,,,,,,,,,,,,,,,,,,,,,,,,,,,,,,,,,,,,,,,
,,610bb066fa8d2a5647a40c77,65af534e3f5fcc7f4ffca766,2024-01-23_07h50.50.927,bars,2023.2.3,Win32,59.88023952,657b66ea316d21385b68909f,,,,,,,,,,,,,,,,,,,,,,,,,,,,,,,,,,,,,,,,,,201.2078,201.5929,right,0.352,,201.5929,0,2,202.5971,0,8,8,8,1,0,2,1,0,,,,,,,,,,,,,,,,,,,,,,,,,,,,,,,,,,,,,,,,,
,,610bb066fa8d2a5647a40c77,65af534e3f5fcc7f4ffca766,2024-01-23_07h50.50.927,bars,2023.2.3,Win32,59.88023952,657b66ea316d21385b68909f,,,,,,,,,,,,,,,,,,,,,,,,,,,,,,,,,,,,,,,,,,202.5978,203.1305,right,0.5015,,203.1306,3,2,204.1191,0,9,9,9,1,2,4,2,3,,,,,,,,,,,,,,,,,,,,,,,,,,,,,,,,,,,,,,,,,
,,610bb066fa8d2a5647a40c77,65af534e3f5fcc7f4ffca766,2024-01-23_07h50.50.927,bars,2023.2.3,Win32,59.88023952,657b66ea316d21385b68909f,,,,,,,,,,,,,,,,,,,,,,,,,,,,,,,,,,,,,,,,,,204.1195,204.5185,left,0.3825,,204.5185,0,1,205.5079,0,10,10,10,1,0,2,0,3,,,,,,,,,,,,,,,,,,,,,,,,,,,,,,,,,,,,,,,,,
,,610bb066fa8d2a5647a40c77,65af534e3f5fcc7f4ffca766,2024-01-23_07h50.50.927,bars,2023.2.3,Win32,59.88023952,657b66ea316d21385b68909f,,,,,,,,,,,,,,,,,,,,,,,,,,,,,,,,,,,,,,,,,,205.5084,205.8079,right,0.2683,,205.808,3,2,206.812,0,11,11,11,1,0,4,0,3,,,,,,,,,,,,,,,,,,,,,,,,,,,,,,,,,,,,,,,,,
,,610bb066fa8d2a5647a40c77,65af534e3f5fcc7f4ffca766,2024-01-23_07h50.50.927,bars,2023.2.3,Win32,59.88023952,657b66ea316d21385b68909f,,,,,,,,,,,,,,,,,,,,,,,,,,,,,,,,,,,,,,,,,,206.8125,206.9589,right,0.1302,,206.9589,6,2,207.9641,0,12,12,12,1,2,6,1,6,,,,,,,,,,,,,,,,,,,,,,,,,,,,,,,,,,,,,,,,,
,,610bb066fa8d2a5647a40c77,65af534e3f5fcc7f4ffca766,2024-01-23_07h50.50.927,bars,2023.2.3,Win32,59.88023952,657b66ea316d21385b68909f,,,,,,,,,,,,,,,,,,,,,,,,,,,,,,,,,,,,,,,,,,207.9644,208.3157,right,0.3339,,208.3157,3,2,209.3045,0,13,13,13,1,0,4,1,3,,,,,,,,,,,,,,,,,,,,,,,,,,,,,,,,,,,,,,,,,
,,610bb066fa8d2a5647a40c77,65af534e3f5fcc7f4ffca766,2024-01-23_07h50.50.927,bars,2023.2.3,Win32,59.88023952,657b66ea316d21385b68909f,,,,,,,,,,,,,,,,,,,,,,,,,,,,,,,,,,,,,,,,,,209.305,209.571,right,0.2353,,209.571,7,2,210.5595,0,14,14,14,1,2,6,2,7,,,,,,,,,,,,,,,,,,,,,,,,,,,,,,,,,,,,,,,,,
,,610bb066fa8d2a5647a40c77,65af534e3f5fcc7f4ffca766,2024-01-23_07h50.50.927,bars,2023.2.3,Win32,59.88023952,657b66ea316d21385b68909f,,,,,,,,,,,,,,,,,,,,,,,,,,,,,,,,,,,,,,,,,,210.5597,210.9122,left,0.3361,,210.9122,3,1,211.9104,0,15,15,15,1,4,8,3,9,,,,,,,,,,,,,,,,,,,,,,,,,,,,,,,,,,,,,,,,,
,,610bb066fa8d2a5647a40c77,65af534e3f5fcc7f4ffca766,2024-01-23_07h50.50.927,bars,2023.2.3,Win32,59.88023952,657b66ea316d21385b68909f,,,,,,,,,,,,,,,,,,,,,,,,,,,,,,,,,,,,,,,,,,211.9109,212.1814,left,0.235,,212.1814,7,1,213.18,0,16,16,16,1,6,6,7,7,,,,,,,,,,,,,,,,,,,,,,,,,,,,,,,,,,,,,,,,,
,,610bb066fa8d2a5647a40c77,65af534e3f5fcc7f4ffca766,2024-01-23_07h50.50.927,bars,2023.2.3,Win32,59.88023952,657b66ea316d21385b68909f,,,,,,,,,,,,,,,,,,,,,,,,,,,,,,,,,,,,,,,,,,213.1803,213.9368,left,0.7361,,213.9369,9,1,214.9249,0,17,17,17,1,8,4,9,5,,,,,,,,,,,,,,,,,,,,,,,,,,,,,,,,,,,,,,,,,
,,610bb066fa8d2a5647a40c77,65af534e3f5fcc7f4ffca766,2024-01-23_07h50.50.927,bars,2023.2.3,Win32,59.88023952,657b66ea316d21385b68909f,,,,,,,,,,,,,,,,,,,,,,,,,,,,,,,,,,,,,,,,,,214.9253,215.2586,right,0.3024,,215.2586,1,2,216.273,0,18,18,18,1,6,2,5,1,,,,,,,,,,,,,,,,,,,,,,,,,,,,,,,,,,,,,,,,,
,,610bb066fa8d2a5647a40c77,65af534e3f5fcc7f4ffca766,2024-01-23_07h50.50.927,bars,2023.2.3,Win32,59.88023952,657b66ea316d21385b68909f,,,,,,,,,,,,,,,,,,,,,,,,,,,,,,,,,,,,,,,,,,216.2733,216.6156,left,0.3211,,216.6157,7,1,217.612,0,19,19,19,1,8,0,7,0,,,,,,,,,,,,,,,,,,,,,,,,,,,,,,,,,,,,,,,,,
,,610bb066fa8d2a5647a40c77,65af534e3f5fcc7f4ffca766,2024-01-23_07h50.50.927,bars,2023.2.3,Win32,59.88023952,657b66ea316d21385b68909f,,,,,,,,,,,,,,,,,,,,,,,,,,,,,,,,,,,,,,,,,,,,,,,,,,,,,,,,,,,,217.6127,239.761,space,22.1276,,,,,,,,,,,,,,,,,,,,,,,,,,,,,,,,,,,,,
,,610bb066fa8d2a5647a40c77,65af534e3f5fcc7f4ffca766,2024-01-23_07h50.50.927,bars,2023.2.3,Win32,59.88023952,657b66ea316d21385b68909f,,,,,,,,,,,241.0029,242.0025,,,242.5191,242.7508,,146,146,,,,,,,,,,,,,,,,bars/038.png,bars/mask000.png,,,,,,,,,,,,0,1,,,,,,,2,7,0,6,,,,,,239.7731,240.9984,space,1.2072,,242.0027,242.5191,242.7511,245.3985,space,2.6279,,245.3987,19,76,246.4018,246.402,249.4643,space,3.0304,,0,0,0,0,1,165,70,,,,,,,,
,,610bb066fa8d2a5647a40c77,65af534e3f5fcc7f4ffca766,2024-01-23_07h50.50.927,bars,2023.2.3,Win32,59.88023952,657b66ea316d21385b68909f,,,,,,,,,,,249.4648,250.4816,,,250.9835,251.2195,,149,-31,,,,,,,,,,,,,,,,bars/049.png,bars/mask005.png,,,,,,,,,,,,1,1,,,,,,,0,9,1,10,,,,,,,,,,,250.4818,250.9834,251.2195,254.6306,space,3.3952,,254.6306,11,34,255.6328,255.6328,259.2444,space,3.5784,,0,1,1,1,1,160,115,,,,,,,,
,,610bb066fa8d2a5647a40c77,65af534e3f5fcc7f4ffca766,2024-01-23_07h50.50.927,bars,2023.2.3,Win32,59.88023952,657b66ea316d21385b68909f,,,,,,,,,,,259.2538,260.2503,,,260.7522,261.0006,,119,119,,,,,,,,,,,,,,,,bars/026.png,bars/mask009.png,,,,,,,,,,,,0,2,,,,,,,0,7,1,7,,,,,,,,,,,260.2503,260.7521,261.0007,264.8097,space,3.7922,,264.8097,84,34,265.8009,265.8009,267.677,space,1.8459,,0,2,2,2,1,35,85,,,,,,,,
,,610bb066fa8d2a5647a40c77,65af534e3f5fcc7f4ffca766,2024-01-23_07h50.50.927,bars,2023.2.3,Win32,59.88023952,657b66ea316d21385b68909f,,,,,,,,,,,267.6775,268.6774,,,269.1807,269.4328,,16,16,,,,,,,,,,,,,,,,bars/041.png,bars/mask009.png,,,,,,,,,,,,1,1,,,,,,,2,9,1,9,,,,,,,,,,,268.6775,269.1807,269.4329,270.7184,space,1.2691,,270.7185,4,69,271.7065,271.7065,272.9951,space,1.2562,,0,3,3,3,1,20,85,,,,,,,,
,,610bb066fa8d2a5647a40c77,65af534e3f5fcc7f4ffca766,2024-01-23_07h50.50.927,bars,2023.2.3,Win32,59.88023952,657b66ea316d21385b68909f,,,,,,,,,,,272.9954,273.9972,,,274.4994,274.751,,13,193,,,,,,,,,,,,,,,,bars/024.png,bars/mask000.png,,,,,,,,,,,,2,2,,,,,,,4,10,4,10,,,,,,,,,,,273.9972,274.4993,274.751,278.6149,space,3.8475,,278.6149,73,23,279.6176,279.6176,280.9069,space,1.2562,,0,4,4,4,1,120,170,,,,,,,,
,,610bb066fa8d2a5647a40c77,65af534e3f5fcc7f4ffca766,2024-01-23_07h50.50.927,bars,2023.2.3,Win32,59.88023952,657b66ea316d21385b68909f,,,,,,,,,,,280.9073,281.9236,,,282.4088,282.677,,90,90,,,,,,,,,,,,,,,,bars/028.png,bars/mask003.png,,,,,,,,,,,,0,2,,,,,,,2,10,0,10,,,,,,,,,,,281.9236,282.4088,282.6771,285.6396,space,2.9445,,285.6397,45,30,286.6399,286.6401,287.2437,space,0.5805,,0,5,5,5,1,45,120,,,,,,,,
,,610bb066fa8d2a5647a40c77,65af534e3f5fcc7f4ffca766,2024-01-23_07h50.50.927,bars,2023.2.3,Win32,59.88023952,657b66ea316d21385b68909f,,,,,,,,,,,287.2442,288.2469,,,288.7485,288.9987,,161,-19,,,,,,,,,,,,,,,,bars/035.png,bars/mask007.png,,,,,,,,,,,,3,1,,,,,,,4,10,5,9,,,,,,,,,,,288.2469,288.7484,288.9988,291.3098,space,2.2926,,291.3098,14,79,292.3112,292.3112,293.0855,space,0.7409,,0,6,6,6,1,175,60,,,,,,,,
,,610bb066fa8d2a5647a40c77,65af534e3f5fcc7f4ffca766,2024-01-23_07h50.50.927,bars,2023.2.3,Win32,59.88023952,657b66ea316d21385b68909f,,,,,,,,,,,293.0858,294.0835,,,294.5875,294.8369,,39,39,,,,,,,,,,,,,,,,bars/038.png,bars/mask006.png,,,,,,,,,,,,0,2,,,,,,,2,8,2,8,,,,,,,,,,,294.0836,294.5874,294.837,295.8587,space,1.0055,,295.8587,54,31,296.8414,296.8414,297.6149,space,0.7376,,0,7,7,7,1,165,70,,,,,,,,
,,610bb066fa8d2a5647a40c77,65af534e3f5fcc7f4ffca766,2024-01-23_07h50.50.927,bars,2023.2.3,Win32,59.88023952,657b66ea316d21385b68909f,,,,,,,,,,,297.6152,298.6012,,,299.1172,299.3507,,162,162,,,,,,,,,,,,,,,,bars/029.png,bars/mask009.png,,,,,,,,,,,,0,2,,,,,,,0,10,0,10,,,,,,,,,,,298.6012,299.1172,299.3507,301.763,space,2.3775,,301.7631,72,63,302.7604,302.7605,308.2836,space,5.4862,,0,8,8,8,1,90,45,,,,,,,,
,,610bb066fa8d2a5647a40c77,65af534e3f5fcc7f4ffca766,2024-01-23_07h50.50.927,bars,2023.2.3,Win32,59.88023952,657b66ea316d21385b68909f,,,,,,,,,,,308.2935,309.2716,,,309.7725,310.0386,,35,35,,,,,,,,,,,,,,,,bars/016.png,bars/mask005.png,,,,,,,,,,,,2,1,,,,,,,2,8,2,8,,,,,,,,,,,309.2716,309.7725,310.0387,311.9986,space,1.9421,,311.9986,5,50,313.0002,313.0002,313.7218,space,0.6883,,0,9,9,9,1,40,165,,,,,,,,
,,610bb066fa8d2a5647a40c77,65af534e3f5fcc7f4ffca766,2024-01-23_07h50.50.927,bars,2023.2.3,Win32,59.88023952,657b66ea316d21385b68909f,,,,,,,,,,,313.7224,314.7032,,,315.2078,315.4549,,31,31,,,,,,,,,,,,,,,,bars/035.png,bars/mask003.png,,,,,,,,,,,,0,2,,,,,,,0,10,0,10,,,,,,,,,,,314.7033,315.2078,315.455,317.617,space,2.1396,,317.617,36,29,318.6199,318.62,320.1275,space,1.4744,,0,10,10,10,1,175,60,,,,,,,,
,,610bb066fa8d2a5647a40c77,65af534e3f5fcc7f4ffca766,2024-01-23_07h50.50.927,bars,2023.2.3,Win32,59.88023952,657b66ea316d21385b68909f,,,,,,,,,,,320.128,321.1269,,,321.6272,321.8664,,164,164,,,,,,,,,,,,,,,,bars/006.png,bars/mask002.png,,,,,,,,,,,,0,1,,,,,,,0,8,1,8,,,,,,,,,,,321.127,321.6271,321.8664,324.0223,space,2.1395,,324.0224,51,64,325.0101,325.0101,341.7,space,16.6609,,0,11,11,11,1,35,100,,,,,,,,
,,610bb066fa8d2a5647a40c77,65af534e3f5fcc7f4ffca766,2024-01-23_07h50.50.927,bars,2023.2.3,Win32,59.88023952,657b66ea316d21385b68909f,,,,,,,,,,,341.7127,342.7052,,,343.2071,343.4583,,47,47,,,,,,,,,,,,,,,,bars/010.png,bars/mask001.png,,,,,,,,,,,,4,2,,,,,,,0,6,1,5,,,,,,,,,,,342.7053,343.2071,343.4583,344.4795,space,0.989,,344.4795,62,8,345.4796,345.4796,346.1849,space,0.6859,,0,12,12,12,1,165,55,,,,,,,,
,,610bb066fa8d2a5647a40c77,65af534e3f5fcc7f4ffca766,2024-01-23_07h50.50.927,bars,2023.2.3,Win32,59.88023952,657b66ea316d21385b68909f,,,,,,,,,,,346.1854,347.1885,,,347.6699,347.9225,,47,47,,,,,,,,,,,,,,,,bars/009.png,bars/mask005.png,,,,,,,,,,,,0,1,,,,,,,2,4,3,2,,,,,,,,,,,347.1886,347.6699,347.9225,349.7641,space,1.8249,,349.7642,32,58,350.7506,350.7507,354.1983,space,3.4158,,0,13,13,13,1,15,105,,,,,,,,
,,610bb066fa8d2a5647a40c77,65af534e3f5fcc7f4ffca766,2024-01-23_07h50.50.927,bars,2023.2.3,Win32,59.88023952,657b66ea316d21385b68909f,,,,,,,,,,,354.2138,355.1986,,,355.6992,355.9518,,42,42,,,,,,,,,,,,,,,,bars/026.png,bars/mask000.png,,,,,,,,,,,,0,1,,,,,,,0,2,0,1,,,,,,,,,,,355.1987,355.6992,355.9519,359.2137,space,3.2303,,359.2138,7,43,360.2161,360.2162,362.7748,space,2.5252,,0,14,14,14,1,35,85,,,,,,,,
,,610bb066fa8d2a5647a40c77,65af534e3f5fcc7f4ffca766,2024-01-23_07h50.50.927,bars,2023.2.3,Win32,59.88023952,657b66ea316d21385b68909f,,,,,,,,,,,362.7751,363.7801,,,364.2803,364.5329,,165,165,,,,,,,,,,,,,,,,bars/016.png,bars/mask006.png,,,,,,,,,,,,1,2,,,,,,,2,0,2,1,,,,,,,,,,,363.7801,364.2802,364.5329,365.5867,space,1.0228,,365.5867,55,0,366.5858,366.5859,367.306,space,0.6842,,0,15,15,15,1,40,165,,,,,,,,
,,610bb066fa8d2a5647a40c77,65af534e3f5fcc7f4ffca766,2024-01-23_07h50.50.927,bars,2023.2.3,Win32,59.88023952,657b66ea316d21385b68909f,,,,,,,,,,,367.3063,368.2954,,,368.7967,369.0445,,51,51,,,,,,,,,,,,,,,,bars/003.png,bars/mask001.png,,,,,,,,,,,,0,1,,,,,,,0,2,0,3,,,,,,,,,,,368.2955,368.7966,369.0445,371.4386,space,2.359,,371.4386,26,89,372.4268,372.4268,373.1623,space,0.7018,,0,16,16,16,1,25,140,,,,,,,,
,,610bb066fa8d2a5647a40c77,65af534e3f5fcc7f4ffca766,2024-01-23_07h50.50.927,bars,2023.2.3,Win32,59.88023952,657b66ea316d21385b68909f,,,,,,,,,,,373.1629,374.1665,,,374.6833,374.9179,,10,10,,,,,,,,,,,,,,,,bars/026.png,bars/mask003.png,,,,,,,,,,,,0,1,,,,,,,2,0,2,0,,,,,,,,,,,374.1665,374.6833,374.9179,375.4547,space,0.5198,,375.4547,25,75,376.4358,376.4359,376.9905,space,0.5346,,0,17,17,17,1,35,85,,,,,,,,
,,610bb066fa8d2a5647a40c77,65af534e3f5fcc7f4ffca766,2024-01-23_07h50.50.927,bars,2023.2.3,Win32,59.88023952,657b66ea316d21385b68909f,,,,,,,,,,,376.9909,377.9785,,,378.4644,378.7119,,50,50,,,,,,,,,,,,,,,,bars/044.png,bars/mask001.png,,,,,,,,,,,,1,1,,,,,,,4,2,5,1,,,,,,,,,,,377.9787,378.4643,378.712,379.2659,space,0.519,,379.2659,25,75,380.2539,380.2539,381.2678,space,0.9957,,0,18,18,18,1,75,155,,,,,,,,
,,610bb066fa8d2a5647a40c77,65af534e3f5fcc7f4ffca766,2024-01-23_07h50.50.927,bars,2023.2.3,Win32,59.88023952,657b66ea316d21385b68909f,,,,,,,,,,,381.2681,382.2591,,,382.7469,382.9951,,149,149,,,,,,,,,,,,,,,,bars/017.png,bars/mask002.png,,,,,,,,,,,,3,1,,,,,,,2,4,3,5,,,,,,,,,,,382.2592,382.7468,382.9951,383.9678,space,0.9555,,383.9678,4,76,384.9689,384.969,385.4701,space,0.4666,,0,19,19,19,1,145,45,,,,,,,,
,,610bb066fa8d2a5647a40c77,65af534e3f5fcc7f4ffca766,2024-01-23_07h50.50.927,bars,2023.2.3,Win32,59.88023952,657b66ea316d21385b68909f,,,,,,,,,,,385.4703,386.4598,,,386.9542,387.194,,92,92,,,,,,,,,,,,,,,,bars/037.png,bars/mask009.png,,,,,,,,,,,,5,2,,,,,,,4,6,4,8,,,,,,,,,,,386.4599,386.9542,387.1941,388.6347,space,1.4234,,388.6348,58,13,389.6342,389.6342,390.5069,space,0.8536,,0,20,20,20,1,150,105,,,,,,,,
,,610bb066fa8d2a5647a40c77,65af534e3f5fcc7f4ffca766,2024-01-23_07h50.50.927,bars,2023.2.3,Win32,59.88023952,657b66ea316d21385b68909f,,,,,,,,,,,390.5073,391.5081,,,392.0086,392.2466,,1,1,,,,,,,,,,,,,,,,bars/032.png,bars/mask009.png,,,,,,,,,,,,1,2,,,,,,,2,4,3,4,,,,,,,,,,,391.5082,392.0086,392.2466,394.0341,space,1.7567,,394.0342,56,19,395.0382,395.0384,395.8929,space,0.8216,,0,21,21,21,1,125,20,,,,,,,,
,,610bb066fa8d2a5647a40c77,65af534e3f5fcc7f4ffca766,2024-01-23_07h50.50.927,bars,2023.2.3,Win32,59.88023952,657b66ea316d21385b68909f,,,,,,,,,,,395.8931,396.8919,,,397.3954,397.6466,,85,85,,,,,,,,,,,,,,,,bars/025.png,bars/mask002.png,,,,,,,,,,,,1,1,,,,,,,4,2,3,2,,,,,,,,,,,396.8921,397.3954,397.6466,399.1718,space,1.5072,,399.1718,20,45,400.1887,400.1888,400.6439,space,0.4347,,0,22,22,22,1,105,40,,,,,,,,
,,610bb066fa8d2a5647a40c77,65af534e3f5fcc7f4ffca766,2024-01-23_07h50.50.927,bars,2023.2.3,Win32,59.88023952,657b66ea316d21385b68909f,,,,,,,,,,,400.6443,401.6436,,,402.1472,402.398,,86,86,,,,,,,,,,,,,,,,bars/030.png,bars/mask003.png,,,,,,,,,,,,1,2,,,,,,,2,4,1,3,,,,,,,,,,,401.6436,402.1471,402.3981,405.0919,space,2.677,,405.092,54,21,406.0951,406.0951,406.4809,space,0.3545,,0,23,23,23,1,140,65,,,,,,,,
,,610bb066fa8d2a5647a40c77,65af534e3f5fcc7f4ffca766,2024-01-23_07h50.50.927,bars,2023.2.3,Win32,59.88023952,657b66ea316d21385b68909f,,,,,,,,,,,406.4814,407.4651,,,407.9662,408.1986,,108,108,,,,,,,,,,,,,,,,bars/016.png,bars/mask003.png,,,,,,,,,,,,0,2,,,,,,,0,2,0,3,,,,,,,,,,,407.4651,407.9661,408.1987,413.4385,space,5.2043,,413.4386,68,57,414.4402,414.4402,414.8041,space,0.3314,,0,24,24,24,1,40,165,,,,,,,,
,,610bb066fa8d2a5647a40c77,65af534e3f5fcc7f4ffca766,2024-01-23_07h50.50.927,bars,2023.2.3,Win32,59.88023952,657b66ea316d21385b68909f,,,,,,,,,,,414.8045,415.7953,,,416.3126,416.5648,,129,129,,,,,,,,,,,,,,,,bars/029.png,bars/mask003.png,,,,,,,,,,,,0,1,,,,,,,2,0,4,0,,,,,,,,,,,415.7954,416.3125,416.5649,417.2279,space,0.6463,,417.2279,39,84,418.2194,418.2195,418.6373,space,0.3848,,0,25,25,25,1,90,45,,,,,,,,
,,610bb066fa8d2a5647a40c77,65af534e3f5fcc7f4ffca766,2024-01-23_07h50.50.927,bars,2023.2.3,Win32,59.88023952,657b66ea316d21385b68909f,,,,,,,,,,,418.6377,419.6416,,,420.1443,420.3937,,118,118,,,,,,,,,,,,,,,,bars/021.png,bars/mask009.png,,,,,,,,,,,,0,1,,,,,,,0,0,1,1,,,,,,,,,,,419.6418,420.1443,420.3938,421.8667,space,1.4549,,421.8667,37,48,422.8639,422.864,423.5065,space,0.6049,,0,26,26,26,1,155,70,,,,,,,,
,,610bb066fa8d2a5647a40c77,65af534e3f5fcc7f4ffca766,2024-01-23_07h50.50.927,bars,2023.2.3,Win32,59.88023952,657b66ea316d21385b68909f,,,,,,,,,,,423.5068,424.507,,,425.0096,425.262,,47,47,,,,,,,,,,,,,,,,bars/009.png,bars/mask002.png,,,,,,,,,,,,0,1,,,,,,,2,0,3,0,,,,,,,,,,,424.5071,425.0095,425.262,427.5535,space,2.2603,,427.5535,32,58,428.5538,428.5538,430.1123,space,1.5392,,0,27,27,27,1,15,105,,,,,,,,
,,610bb066fa8d2a5647a40c77,65af534e3f5fcc7f4ffca766,2024-01-23_07h50.50.927,bars,2023.2.3,Win32,59.88023952,657b66ea316d21385b68909f,,,,,,,,,,,430.1127,431.0993,,,431.6162,431.882,,53,53,,,,,,,,,,,,,,,,bars/003.png,bars/mask004.png,,,,,,,,,,,,0,1,,,,,,,0,2,0,2,,,,,,,,,,,431.0994,431.6161,431.8821,433.993,space,2.0923,,433.993,28,87,434.9952,434.9953,435.7158,space,0.6877,,0,28,28,28,1,25,140,,,,,,,,
,,610bb066fa8d2a5647a40c77,65af534e3f5fcc7f4ffca766,2024-01-23_07h50.50.927,bars,2023.2.3,Win32,59.88023952,657b66ea316d21385b68909f,,,,,,,,,,,435.7163,436.7169,,,437.2217,437.4702,,146,146,,,,,,,,,,,,,,,,bars/007.png,bars/mask003.png,,,,,,,,,,,,0,1,,,,,,,0,0,0,0,,,,,,,,,,,436.717,437.2215,437.4702,439.8982,space,2.4113,,439.8983,29,89,440.9133,440.9134,447.5415,space,6.6024,,0,29,29,29,1,175,55,,,,,,,,
,,610bb066fa8d2a5647a40c77,65af534e3f5fcc7f4ffca766,2024-01-23_07h50.50.927,bars,2023.2.3,Win32,59.88023952,657b66ea316d21385b68909f,,,,,,,,,,,447.5569,448.5416,,,449.0446,449.2915,,158,158,,,,,,,,,,,,,,,,bars/036.png,bars/mask009.png,,,,,,,,,,,,1,1,,,,,,,0,0,1,0,,,,,,,,,,,448.5416,449.0446,449.2915,452.5216,space,3.2098,,452.5216,13,42,453.5257,453.5257,458.5388,space,4.9798,,0,30,30,30,1,145,20,,,,,,,,
,,610bb066fa8d2a5647a40c77,65af534e3f5fcc7f4ffca766,2024-01-23_07h50.50.927,bars,2023.2.3,Win32,59.88023952,657b66ea316d21385b68909f,,,,,,,,,,,458.5483,459.5469,,,460.0499,460.3001,,150,150,,,,,,,,,,,,,,,,bars/018.png,bars/mask004.png,,,,,,,,,,,,2,1,,,,,,,2,0,2,2,,,,,,,,,,,459.547,460.0498,460.3002,468.4617,space,8.1449,,468.4617,0,60,469.4494,469.4495,477.8824,space,8.403,,0,31,31,31,1,150,90,,,,,,,,
,,610bb066fa8d2a5647a40c77,65af534e3f5fcc7f4ffca766,2024-01-23_07h50.50.927,bars,2023.2.3,Win32,59.88023952,657b66ea316d21385b68909f,,,,,,,,,,,477.899,478.8984,,,479.3996,479.6337,,97,97,,,,,,,,,,,,,,,,bars/033.png,bars/mask000.png,,,,,,,,,,,,0,2,,,,,,,4,2,4,1,,,,,,,,,,,478.8985,479.3995,479.6338,483.1634,space,3.5128,,483.1635,72,58,484.1647,484.1647,490.9759,space,6.7759,,0,32,32,32,1,25,155,,,,,,,,
,,610bb066fa8d2a5647a40c77,65af534e3f5fcc7f4ffca766,2024-01-23_07h50.50.927,bars,2023.2.3,Win32,59.88023952,657b66ea316d21385b68909f,,,,,,,,,,,490.9852,491.9755,,,492.4777,492.7299,,34,34,,,,,,,,,,,,,,,,bars/035.png,bars/mask003.png,,,,,,,,,,,,1,2,,,,,,,6,4,7,4,,,,,,,,,,,491.9756,492.4776,492.73,495.8091,space,3.0607,,495.8091,39,26,496.8106,496.8106,499.7898,space,2.9457,,0,33,33,33,1,175,60,,,,,,,,
,,610bb066fa8d2a5647a40c77,65af534e3f5fcc7f4ffca766,2024-01-23_07h50.50.927,bars,2023.2.3,Win32,59.88023952,657b66ea316d21385b68909f,,,,,,,,,,,499.7902,500.7931,,,501.278,501.5433,,127,127,,,,,,,,,,,,,,,,bars/043.png,bars/mask000.png,,,,,,,,,,,,2,2,,,,,,,8,2,8,2,,,,,,,,,,,500.7932,501.2779,501.5433,502.7655,space,1.2042,,502.7655,83,3,503.7537,503.7537,513.1143,space,9.3286,,0,34,34,34,1,30,130,,,,,,,,
,,610bb066fa8d2a5647a40c77,65af534e3f5fcc7f4ffca766,2024-01-23_07h50.50.927,bars,2023.2.3,Win32,59.88023952,657b66ea316d21385b68909f,,,,,,,,,,,513.1248,514.121,,,514.6254,514.8756,,114,114,,,,,,,,,,,,,,,,bars/028.png,bars/mask001.png,,,,,,,,,,,,0,2,,,,,,,10,0,10,0,,,,,,,,,,,514.121,514.6254,514.8757,516.867,space,1.9597,,516.8671,69,6,517.8656,517.8657,518.9572,space,1.0551,,0,35,35,35,1,45,120,,,,,,,,
,,610bb066fa8d2a5647a40c77,65af534e3f5fcc7f4ffca766,2024-01-23_07h50.50.927,bars,2023.2.3,Win32,59.88023952,657b66ea316d21385b68909f,,,,,,,,,,,518.9575,519.9401,,,520.445,520.6957,,152,152,,,,,,,,,,,,,,,,bars/047.png,bars/mask005.png,,,,,,,,,,,,0,1,,,,,,,8,0,9,0,,,,,,,,,,,519.9402,520.445,520.6958,522.8711,space,2.1552,,522.8712,43,82,523.8547,523.8547,526.05,space,2.161,,0,36,36,36,1,15,70,,,,,,,,
,,610bb066fa8d2a5647a40c77,65af534e3f5fcc7f4ffca766,2024-01-23_07h50.50.927,bars,2023.2.3,Win32,59.88023952,657b66ea316d21385b68909f,,,,,,,,,,,526.0504,527.0519,,,527.5684,527.8187,,19,19,,,,,,,,,,,,,,,,bars/017.png,bars/mask001.png,,,,,,,,,,,,0,2,,,,,,,10,2,9,3,,,,,,,,,,,527.052,527.5683,527.8187,528.7248,space,0.888,,528.7248,54,26,529.7266,529.7266,532.6901,space,2.9292,,0,37,37,37,1,145,45,,,,,,,,
,,610bb066fa8d2a5647a40c77,65af534e3f5fcc7f4ffca766,2024-01-23_07h50.50.927,bars,2023.2.3,Win32,59.88023952,657b66ea316d21385b68909f,,,,,,,,,,,532.6905,533.6752,,,534.1757,534.4425,,104,104,,,,,,,,,,,,,,,,bars/002.png,bars/mask003.png,,,,,,,,,,,,0,2,,,,,,,8,0,9,0,,,,,,,,,,,533.6752,534.1756,534.4426,535.9836,space,1.5222,,535.9836,26,19,536.9704,536.9705,537.2154,space,0.2134,,0,38,38,38,1,130,85,,,,,,,,
,,610bb066fa8d2a5647a40c77,65af534e3f5fcc7f4ffca766,2024-01-23_07h50.50.927,bars,2023.2.3,Win32,59.88023952,657b66ea316d21385b68909f,,,,,,,,,,,537.2158,538.2058,,,538.7085,538.9603,,108,108,,,,,,,,,,,,,,,,bars/042.png,bars/mask006.png,,,,,,,,,,,,0,2,,,,,,,10,0,10,0,,,,,,,,,,,538.2059,538.7084,538.9604,540.2332,space,1.2411,,540.2332,37,33,541.2351,541.2351,541.3537,space,0.0999,,0,39,39,39,1,145,75,,,,,,,,
,,610bb066fa8d2a5647a40c77,65af534e3f5fcc7f4ffca766,2024-01-23_07h50.50.927,bars,2023.2.3,Win32,59.88023952,657b66ea316d21385b68909f,,,,,,,,,,,541.3541,542.3546,,,542.851,543.1018,,179,179,,,,,,,,,,,,,,,,bars/015.png,bars/mask005.png,,,,,,,,,,,,0,2,,,,,,,10,0,10,0,,,,,,,,,,,542.3547,542.851,543.1019,543.8446,space,0.7216,,543.8446,69,19,544.8628,544.8628,545.6176,space,0.7327,,0,40,40,40,1,110,160,,,,,,,,
,,610bb066fa8d2a5647a40c77,65af534e3f5fcc7f4ffca766,2024-01-23_07h50.50.927,bars,2023.2.3,Win32,59.88023952,657b66ea316d21385b68909f,,,,,,,,,,,545.618,546.6157,,,547.105,547.3675,,26,26,,,,,,,,,,,,,,,,bars/018.png,bars/mask004.png,,,,,,,,,,,,0,1,,,,,,,8,0,6,0,,,,,,,,,,,546.6158,547.1049,547.3675,548.6417,space,1.2538,,548.6418,56,64,549.6307,549.6307,549.8319,space,0.1687,,0,41,41,41,1,150,90,,,,,,,,
,,610bb066fa8d2a5647a40c77,65af534e3f5fcc7f4ffca766,2024-01-23_07h50.50.927,bars,2023.2.3,Win32,59.88023952,657b66ea316d21385b68909f,,,,,,,,,,,549.8325,550.8332,,,551.3202,551.5694,,9,9,,,,,,,,,,,,,,,,bars/023.png,bars/mask005.png,,,,,,,,,,,,6,1,,,,,,,10,2,10,3,,,,,,,,,,,550.8333,551.3202,551.5694,553.5274,space,1.939,,553.5274,11,74,554.5461,554.5461,555.553,space,0.983,,0,42,42,42,1,20,115,,,,,,,,
,,610bb066fa8d2a5647a40c77,65af534e3f5fcc7f4ffca766,2024-01-23_07h50.50.927,bars,2023.2.3,Win32,59.88023952,657b66ea316d21385b68909f,,,,,,,,,,,555.5533,556.5526,,,557.0721,557.3082,,31,31,,,,,,,,,,,,,,,,bars/004.png,bars/mask008.png,,,,,,,,,,,,7,1,,,,,,,8,4,9,4,,,,,,,,,,,556.5526,557.072,557.3083,557.8444,space,0.5195,,557.8445,6,86,558.8462,558.8462,559.5668,space,0.6885,,0,43,43,43,1,25,125,,,,,,,,
,,610bb066fa8d2a5647a40c77,65af534e3f5fcc7f4ffca766,2024-01-23_07h50.50.927,bars,2023.2.3,Win32,59.88023952,657b66ea316d21385b68909f,,,,,,,,,,,559.5672,560.5673,,,561.0865,561.321,,65,65,,,,,,,,,,,,,,,,bars/031.png,bars/mask004.png,,,,,,,,,,,,0,2,,,,,,,10,2,9,1,,,,,,,,,,,560.5674,561.0863,561.321,561.9071,space,0.5685,,561.9071,55,30,562.9068,562.9068,563.2985,space,0.3713,,0,44,44,44,1,120,35,,,,,,,,
,,610bb066fa8d2a5647a40c77,65af534e3f5fcc7f4ffca766,2024-01-23_07h50.50.927,bars,2023.2.3,Win32,59.88023952,657b66ea316d21385b68909f,,,,,,,,,,,563.2989,564.2973,,,564.7955,565.034,,29,29,,,,,,,,,,,,,,,,bars/032.png,bars/mask003.png,,,,,,,,,,,,0,2,,,,,,,8,0,8,0,,,,,,,,,,,564.2974,564.7955,565.034,567.5745,space,2.5237,,567.5746,84,9,568.5638,568.5638,571.2075,space,2.6113,,0,45,45,45,1,125,20,,,,,,,,
,,610bb066fa8d2a5647a40c77,65af534e3f5fcc7f4ffca766,2024-01-23_07h50.50.927,bars,2023.2.3,Win32,59.88023952,657b66ea316d21385b68909f,,,,,,,,,,,571.208,572.2247,,,572.7124,572.9467,,147,147,,,,,,,,,,,,,,,,bars/031.png,bars/mask005.png,,,,,,,,,,,,1,1,,,,,,,6,0,8,1,,,,,,,,,,,572.2248,572.7124,572.9467,574.3672,space,1.404,,574.3673,27,68,575.3711,575.3711,575.9406,space,0.537,,0,46,46,46,1,120,35,,,,,,,,
,,610bb066fa8d2a5647a40c77,65af534e3f5fcc7f4ffca766,2024-01-23_07h50.50.927,bars,2023.2.3,Win32,59.88023952,657b66ea316d21385b68909f,,,,,,,,,,,575.941,576.9434,,,577.429,577.6794,,114,114,,,,,,,,,,,,,,,,bars/003.png,bars/mask006.png,,,,,,,,,,,,0,2,,,,,,,8,0,7,0,,,,,,,,,,,576.9434,577.4289,577.6794,579.9043,space,2.2081,,579.9044,89,26,580.9064,580.9065,583.966,space,3.0266,,0,47,47,47,1,25,140,,,,,,,,
,,610bb066fa8d2a5647a40c77,65af534e3f5fcc7f4ffca766,2024-01-23_07h50.50.927,bars,2023.2.3,Win32,59.88023952,657b66ea316d21385b68909f,,,,,,,,,,,583.9666,584.97,,,585.4706,585.7222,,88,88,,,,,,,,,,,,,,,,bars/040.png,bars/mask000.png,,,,,,,,,,,,0,1,,,,,,,6,2,6,3,,,,,,,,,,,584.9701,585.4705,585.7223,586.2583,space,0.5183,,586.2583,52,83,587.2464,587.2465,588.4855,space,1.2065,,0,48,48,48,1,140,5,,,,,,,,
,,610bb066fa8d2a5647a40c77,65af534e3f5fcc7f4ffca766,2024-01-23_07h50.50.927,bars,2023.2.3,Win32,59.88023952,657b66ea316d21385b68909f,,,,,,,,,,,588.486,589.4854,,,589.9895,590.2402,,84,84,,,,,,,,,,,,,,,,bars/005.png,bars/mask000.png,,,,,,,,,,,,0,2,,,,,,,4,4,4,3,,,,,,,,,,,589.4854,589.9895,590.2403,592.6792,space,2.4222,,592.6793,74,56,593.6995,593.6995,594.1017,space,0.3725,,0,49,49,49,1,10,140,,,,,,,,
,,610bb066fa8d2a5647a40c77,65af534e3f5fcc7f4ffca766,2024-01-23_07h50.50.927,bars,2023.2.3,Win32,59.88023952,657b66ea316d21385b68909f,,,,,,,,,,,,,,,,,,,,,,,,,,,,,,,,,,,,,,,,,,,,,,,,,,,,,,,,,,,,,,,,,,,,,,,,,,,,,,,,,,,,,,,,,,,,,594.1025,654.0959,0,0,0,1,1,sequence_tables/blk019.csv
,,610bb066fa8d2a5647a40c77,65af534e3f5fcc7f4ffca766,2024-01-23_07h50.50.927,bars,2023.2.3,Win32,59.88023952,657b66ea316d21385b68909f,,,,,,,,,,,669.5633,670.5556,,,671.0532,671.2911,,120,120,,,,,,,,,,,,,,,,bars/028.png,bars/mask003.png,,,,,,,,,,,,2,2,,,,,,,10,2,9,2,,,,,,654.1067,669.5498,space,15.4275,,670.5556,671.0532,671.2911,672.7296,space,1.4074,,672.7296,75,0,673.7309,673.7309,673.7414,,,,0,0,0,0,1,45,120,,,,,,,,
,,610bb066fa8d2a5647a40c77,65af534e3f5fcc7f4ffca766,2024-01-23_07h50.50.927,bars,2023.2.3,Win32,59.88023952,657b66ea316d21385b68909f,,,,,,,,,,,673.7416,674.7504,,,675.2548,675.5052,,79,79,,,,,,,,,,,,,,,,bars/002.png,bars/mask000.png,,,,,,,,,,,,0,2,,,,,,,8,0,8,0,,,,,,,,,,,674.7504,675.2546,675.5052,676.2253,space,0.7031,,676.2253,51,6,677.2277,677.2278,677.2286,,,,0,1,1,1,1,130,85,,,,,,,,
,,610bb066fa8d2a5647a40c77,65af534e3f5fcc7f4ffca766,2024-01-23_07h50.50.927,bars,2023.2.3,Win32,59.88023952,657b66ea316d21385b68909f,,,,,,,,,,,677.2289,678.231,,,678.7315,678.981,,118,118,,,,,,,,,,,,,,,,bars/027.png,bars/mask003.png,,,,,,,,,,,,3,1,,,,,,,6,2,4,2,,,,,,,,,,,678.2311,678.7315,678.981,681.5436,space,2.5279,,681.5436,8,68,682.5431,682.5431,682.5538,,,,0,2,2,2,1,110,50,,,,,,,,
,,610bb066fa8d2a5647a40c77,65af534e3f5fcc7f4ffca766,2024-01-23_07h50.50.927,bars,2023.2.3,Win32,59.88023952,657b66ea316d21385b68909f,,,,,,,,,,,682.554,683.5641,,,684.0525,684.3032,,118,118,,,,,,,,,,,,,,,,bars/031.png,bars/mask001.png,,,,,,,,,,,,6,1,,,,,,,8,0,6,1,,,,,,,,,,,683.5641,684.0524,684.3033,686.1241,space,1.7897,,686.1242,2,83,687.111,687.1111,687.1121,,,,0,3,3,3,1,120,35,,,,,,,,
,,610bb066fa8d2a5647a40c77,65af534e3f5fcc7f4ffca766,2024-01-23_07h50.50.927,bars,2023.2.3,Win32,59.88023952,657b66ea316d21385b68909f,,,,,,,,,,,687.1124,688.1267,,,688.6181,688.8846,,96,96,,,,,,,,,,,,,,,,bars/003.png,bars/mask001.png,,,,,,,,,,,,0,2,,,,,,,6,2,8,1,,,,,,,,,,,688.1267,688.6181,688.8847,690.6758,space,1.7736,,690.6758,71,44,691.6759,691.6759,691.6779,,,,0,4,4,4,1,25,140,,,,,,,,
,,610bb066fa8d2a5647a40c77,65af534e3f5fcc7f4ffca766,2024-01-23_07h50.50.927,bars,2023.2.3,Win32,59.88023952,657b66ea316d21385b68909f,,,,,,,,,,,691.6782,692.6777,,,693.1669,693.4013,,99,99,,,,,,,,,,,,,,,,bars/008.png,bars/mask008.png,,,,,,,,,,,,4,1,,,,,,,4,0,6,0,,,,,,,,,,,692.6777,693.1668,693.4014,697.2459,space,3.8277,,697.246,11,81,698.2482,698.2483,698.2591,,,,0,5,5,5,1,110,0,,,,,,,,
,,610bb066fa8d2a5647a40c77,65af534e3f5fcc7f4ffca766,2024-01-23_07h50.50.927,bars,2023.2.3,Win32,59.88023952,657b66ea316d21385b68909f,,,,,,,,,,,698.2592,699.2365,,,699.7356,699.9879,,51,51,,,,,,,,,,,,,,,,bars/035.png,bars/mask003.png,,,,,,,,,,,,1,2,,,,,,,2,0,2,1,,,,,,,,,,,699.2365,699.7356,699.988,703.2179,space,3.1953,,703.218,56,9,704.2058,704.2059,704.2168,,,,0,6,6,6,1,175,60,,,,,,,,
,,610bb066fa8d2a5647a40c77,65af534e3f5fcc7f4ffca766,2024-01-23_07h50.50.927,bars,2023.2.3,Win32,59.88023952,657b66ea316d21385b68909f,,,,,,,,,,,704.217,705.2241,,,705.7262,705.9771,,117,117,,,,,,,,,,,,,,,,bars/028.png,bars/mask006.png,,,,,,,,,,,,1,2,,,,,,,4,2,4,1,,,,,,,,,,,705.2241,705.7262,705.9772,707.8356,space,1.8413,,707.8357,72,3,708.8226,708.8227,708.8383,,,,0,7,7,7,1,45,120,,,,,,,,
,,610bb066fa8d2a5647a40c77,65af534e3f5fcc7f4ffca766,2024-01-23_07h50.50.927,bars,2023.2.3,Win32,59.88023952,657b66ea316d21385b68909f,,,,,,,,,,,708.8387,709.8406,,,710.3425,710.6101,,66,66,,,,,,,,,,,,,,,,bars/025.png,bars/mask000.png,,,,,,,,,,,,0,2,,,,,,,6,0,6,1,,,,,,,,,,,709.8406,710.3424,710.6103,712.5324,space,1.9042,,712.5324,39,26,713.5203,713.5203,713.5212,,,,0,8,8,8,1,105,40,,,,,,,,
,,610bb066fa8d2a5647a40c77,65af534e3f5fcc7f4ffca766,2024-01-23_07h50.50.927,bars,2023.2.3,Win32,59.88023952,657b66ea316d21385b68909f,,,,,,,,,,,713.5215,714.5236,,,715.0249,715.2738,,50,50,,,,,,,,,,,,,,,,bars/044.png,bars/mask001.png,,,,,,,,,,,,1,1,,,,,,,4,2,5,2,,,,,,,,,,,714.5236,715.0248,715.2739,720.2277,space,4.9349,,720.2278,25,75,721.2248,721.2248,721.2355,,,,0,9,9,9,1,75,155,,,,,,,,
,,610bb066fa8d2a5647a40c77,65af534e3f5fcc7f4ffca766,2024-01-23_07h50.50.927,bars,2023.2.3,Win32,59.88023952,657b66ea316d21385b68909f,,,,,,,,,,,721.2358,722.2336,,,722.7358,722.9888,,20,20,,,,,,,,,,,,,,,,bars/010.png,bars/mask008.png,,,,,,,,,,,,0,2,,,,,,,2,0,2,0,,,,,,,,,,,722.2337,722.7357,722.9888,723.81,space,0.7894,,723.8101,35,35,724.7952,724.7952,724.7969,,,,0,10,10,10,1,165,55,,,,,,,,
,,610bb066fa8d2a5647a40c77,65af534e3f5fcc7f4ffca766,2024-01-23_07h50.50.927,bars,2023.2.3,Win32,59.88023952,657b66ea316d21385b68909f,,,,,,,,,,,724.7971,725.8139,,,726.2976,726.5511,,73,73,,,,,,,,,,,,,,,,bars/004.png,bars/mask002.png,,,,,,,,,,,,0,1,,,,,,,0,2,1,4,,,,,,,,,,,725.8139,726.2975,726.5511,728.0907,space,1.5075,,728.0908,48,52,729.0911,729.0911,729.1023,,,,0,11,11,11,1,25,125,,,,,,,,
,,610bb066fa8d2a5647a40c77,65af534e3f5fcc7f4ffca766,2024-01-23_07h50.50.927,bars,2023.2.3,Win32,59.88023952,657b66ea316d21385b68909f,,,,,,,,,,,729.1024,730.0942,,,730.5964,730.8481,,113,113,,,,,,,,,,,,,,,,bars/001.png,bars/mask002.png,,,,,,,,,,,,1,1,,,,,,,2,0,2,0,,,,,,,,,,,730.0942,730.5964,730.8482,732.7392,space,1.8748,,732.7393,17,28,733.7383,733.7383,733.7392,,,,0,12,12,12,1,130,85,,,,,,,,
,,610bb066fa8d2a5647a40c77,65af534e3f5fcc7f4ffca766,2024-01-23_07h50.50.927,bars,2023.2.3,Win32,59.88023952,657b66ea316d21385b68909f,,,,,,,,,,,733.7396,734.7278,,,735.2464,735.4982,,162,162,,,,,,,,,,,,,,,,bars/023.png,bars/mask001.png,,,,,,,,,,,,0,1,,,,,,,0,2,1,1,,,,,,,,,,,734.7279,735.2464,735.4982,736.7201,space,1.1896,,736.7201,38,47,737.7389,737.739,737.74,,,,0,13,13,13,1,20,115,,,,,,,,
,,610bb066fa8d2a5647a40c77,65af534e3f5fcc7f4ffca766,2024-01-23_07h50.50.927,bars,2023.2.3,Win32,59.88023952,657b66ea316d21385b68909f,,,,,,,,,,,737.7403,738.7435,,,739.2459,739.4958,,121,121,,,,,,,,,,,,,,,,bars/019.png,bars/mask003.png,,,,,,,,,,,,0,2,,,,,,,2,0,1,0,,,,,,,,,,,738.7435,739.2458,739.4958,741.7544,space,2.2244,,741.7545,76,16,742.7576,742.7577,742.7684,,,,0,14,14,14,1,45,105,,,,,,,,
,,610bb066fa8d2a5647a40c77,65af534e3f5fcc7f4ffca766,2024-01-23_07h50.50.927,bars,2023.2.3,Win32,59.88023952,657b66ea316d21385b68909f,,,,,,,,,,,742.7686,743.7563,,,744.2455,744.4953,,31,31,,,,,,,,,,,,,,,,bars/036.png,bars/mask004.png,,,,,,,,,,,,2,2,,,,,,,4,2,4,3,,,,,,,,,,,743.7564,744.2454,744.4953,747.0074,space,2.4928,,747.0074,66,11,747.9931,747.9931,748.0092,,,,0,15,15,15,1,145,20,,,,,,,,
,,610bb066fa8d2a5647a40c77,65af534e3f5fcc7f4ffca766,2024-01-23_07h50.50.927,bars,2023.2.3,Win32,59.88023952,657b66ea316d21385b68909f,,,,,,,,,,,748.0095,749.0102,,,749.5121,749.7497,,90,90,,,,,,,,,,,,,,,,bars/037.png,bars/mask004.png,,,,,,,,,,,,2,2,,,,,,,2,4,2,3,,,,,,,,,,,749.0102,749.5121,749.7498,753.9807,space,4.2148,,753.9807,60,15,754.9808,754.9808,754.9915,,,,0,16,16,16,1,150,105,,,,,,,,
,,610bb066fa8d2a5647a40c77,65af534e3f5fcc7f4ffca766,2024-01-23_07h50.50.927,bars,2023.2.3,Win32,59.88023952,657b66ea316d21385b68909f,,,,,,,,,,,754.9917,755.9858,,,756.469,756.707,,53,53,,,,,,,,,,,,,,,,bars/031.png,bars/mask006.png,,,,,,,,,,,,2,2,,,,,,,4,2,7,4,,,,,,,,,,,755.9859,756.4689,756.7071,758.3135,space,1.5758,,758.3136,67,18,759.3261,759.3262,759.3364,,,,0,17,17,17,1,120,35,,,,,,,,
,,610bb066fa8d2a5647a40c77,65af534e3f5fcc7f4ffca766,2024-01-23_07h50.50.927,bars,2023.2.3,Win32,59.88023952,657b66ea316d21385b68909f,,,,,,,,,,,759.3366,760.3342,,,760.8362,761.0853,,173,173,,,,,,,,,,,,,,,,bars/036.png,bars/mask006.png,,,,,,,,,,,,0,2,,,,,,,6,4,6,4,,,,,,,,,,,760.3342,760.8361,761.0853,763.4806,space,2.3606,,763.4806,28,27,764.4632,764.4632,764.464,,,,0,18,18,18,1,145,20,,,,,,,,
,,610bb066fa8d2a5647a40c77,65af534e3f5fcc7f4ffca766,2024-01-23_07h50.50.927,bars,2023.2.3,Win32,59.88023952,657b66ea316d21385b68909f,,,,,,,,,,,764.4642,765.4503,,,765.9399,766.1899,,154,154,,,,,,,,,,,,,,,,bars/008.png,bars/mask000.png,,,,,,,,,,,,1,2,,,,,,,4,6,1,6,,,,,,,,,,,765.4505,765.9398,766.1899,774.503,space,8.2816,,774.5031,44,26,775.4982,775.4982,775.51,,,,0,19,19,19,1,110,0,,,,,,,,
,,610bb066fa8d2a5647a40c77,65af534e3f5fcc7f4ffca766,2024-01-23_07h50.50.927,bars,2023.2.3,Win32,59.88023952,657b66ea316d21385b68909f,,,,,,,,,,,775.5103,776.5078,,,777.0099,777.2612,,100,100,,,,,,,,,,,,,,,,bars/042.png,bars/mask008.png,,,,,,,,,,,,1,2,,,,,,,6,4,5,5,,,,,,,,,,,776.5078,777.0098,777.2613,780.9761,space,3.6826,,780.9763,45,25,781.9782,781.9782,781.9879,,,,0,20,20,20,1,145,75,,,,,,,,
,,610bb066fa8d2a5647a40c77,65af534e3f5fcc7f4ffca766,2024-01-23_07h50.50.927,bars,2023.2.3,Win32,59.88023952,657b66ea316d21385b68909f,,,,,,,,,,,781.9881,782.9822,,,783.4639,783.7181,,107,107,,,,,,,,,,,,,,,,bars/046.png,bars/mask007.png,,,,,,,,,,,,1,2,,,,,,,8,2,8,3,,,,,,,,,,,782.9822,783.4639,783.7181,786.6937,space,2.9595,,786.6937,48,22,787.6781,787.6782,787.688,,,,0,21,21,21,1,155,85,,,,,,,,
,,610bb066fa8d2a5647a40c77,65af534e3f5fcc7f4ffca766,2024-01-23_07h50.50.927,bars,2023.2.3,Win32,59.88023952,657b66ea316d21385b68909f,,,,,,,,,,,787.6882,788.6851,,,789.1853,789.4379,,77,77,,,,,,,,,,,,,,,,bars/049.png,bars/mask008.png,,,,,,,,,,,,0,2,,,,,,,6,4,6,5,,,,,,,,,,,788.6851,789.1853,789.438,790.609,space,1.1546,,790.6091,83,38,791.6127,791.6127,791.6135,,,,0,22,22,22,1,160,115,,,,,,,,
,,610bb066fa8d2a5647a40c77,65af534e3f5fcc7f4ffca766,2024-01-23_07h50.50.927,bars,2023.2.3,Win32,59.88023952,657b66ea316d21385b68909f,,,,,,,,,,,791.6137,792.5985,,,793.0999,793.3509,,68,68,,,,,,,,,,,,,,,,bars/042.png,bars/mask003.png,,,,,,,,,,,,0,2,,,,,,,8,2,7,0,,,,,,,,,,,792.5986,793.0998,793.3509,796.2285,space,2.861,,796.2286,77,7,797.2301,797.2301,797.2411,,,,0,23,23,23,1,145,75,,,,,,,,
,,610bb066fa8d2a5647a40c77,65af534e3f5fcc7f4ffca766,2024-01-23_07h50.50.927,bars,2023.2.3,Win32,59.88023952,657b66ea316d21385b68909f,,,,,,,,,,,797.2412,798.2355,,,798.7171,798.9692,,4,4,,,,,,,,,,,,,,,,bars/040.png,bars/mask009.png,,,,,,,,,,,,0,2,,,,,,,6,0,7,0,,,,,,,,,,,798.2355,798.7171,798.9692,801.8157,space,2.8295,,801.8157,44,1,802.8148,802.8148,802.8248,,,,0,24,24,24,1,140,5,,,,,,,,
,,610bb066fa8d2a5647a40c77,65af534e3f5fcc7f4ffca766,2024-01-23_07h50.50.927,bars,2023.2.3,Win32,59.88023952,657b66ea316d21385b68909f,,,,,,,,,,,802.825,803.8159,,,804.322,804.5582,,49,49,,,,,,,,,,,,,,,,bars/008.png,bars/mask002.png,,,,,,,,,,,,0,2,,,,,,,4,0,5,1,,,,,,,,,,,803.816,804.3218,804.5583,808.1875,space,3.6129,,808.1876,61,49,809.1904,809.1904,809.2008,,,,0,25,25,25,1,110,0,,,,,,,,
,,610bb066fa8d2a5647a40c77,65af534e3f5fcc7f4ffca766,2024-01-23_07h50.50.927,bars,2023.2.3,Win32,59.88023952,657b66ea316d21385b68909f,,,,,,,,,,,809.201,810.1775,,,810.6944,810.9457,,2,182,,,,,,,,,,,,,,,,bars/025.png,bars/mask005.png,,,,,,,,,,,,0,2,,,,,,,6,2,7,2,,,,,,,,,,,810.1775,810.6943,810.9458,812.4531,space,1.4897,,812.4531,77,38,813.456,813.4561,813.457,,,,0,26,26,26,1,105,40,,,,,,,,
,,610bb066fa8d2a5647a40c77,65af534e3f5fcc7f4ffca766,2024-01-23_07h50.50.927,bars,2023.2.3,Win32,59.88023952,657b66ea316d21385b68909f,,,,,,,,,,,813.4573,814.457,,,814.942,815.193,,11,11,,,,,,,,,,,,,,,,bars/012.png,bars/mask000.png,,,,,,,,,,,,0,2,,,,,,,8,0,8,0,,,,,,,,,,,814.457,814.942,815.1931,816.5679,space,1.3577,,816.568,79,4,817.5672,817.5672,817.5682,,,,0,27,27,27,1,90,15,,,,,,,,
,,610bb066fa8d2a5647a40c77,65af534e3f5fcc7f4ffca766,2024-01-23_07h50.50.927,bars,2023.2.3,Win32,59.88023952,657b66ea316d21385b68909f,,,,,,,,,,,817.5686,818.557,,,819.0591,819.307,,61,61,,,,,,,,,,,,,,,,bars/003.png,bars/mask006.png,,,,,,,,,,,,0,1,,,,,,,6,2,7,0,,,,,,,,,,,818.5571,819.059,819.307,821.6167,space,2.2909,,821.6167,36,79,822.6044,822.6044,822.6156,,,,0,28,28,28,1,25,140,,,,,,,,
,,610bb066fa8d2a5647a40c77,65af534e3f5fcc7f4ffca766,2024-01-23_07h50.50.927,bars,2023.2.3,Win32,59.88023952,657b66ea316d21385b68909f,,,,,,,,,,,822.6157,823.6074,,,824.1077,824.3401,,92,92,,,,,,,,,,,,,,,,bars/023.png,bars/mask002.png,,,,,,,,,,,,1,2,,,,,,,8,4,7,4,,,,,,,,,,,823.6074,824.1076,824.3401,826.1166,space,1.7419,,826.1167,72,23,827.1192,827.1192,827.1305,,,,0,29,29,29,1,20,115,,,,,,,,
,,610bb066fa8d2a5647a40c77,65af534e3f5fcc7f4ffca766,2024-01-23_07h50.50.927,bars,2023.2.3,Win32,59.88023952,657b66ea316d21385b68909f,,,,,,,,,,,827.1307,828.1228,,,828.6251,828.8741,,146,146,,,,,,,,,,,,,,,,bars/044.png,bars/mask003.png,,,,,,,,,,,,4,2,,,,,,,10,6,10,6,,,,,,,,,,,828.1228,828.6251,828.8741,830.2477,space,1.3558,,830.2478,71,9,831.2493,831.2494,831.2501,,,,0,30,30,30,1,75,155,,,,,,,,
,,610bb066fa8d2a5647a40c77,65af534e3f5fcc7f4ffca766,2024-01-23_07h50.50.927,bars,2023.2.3,Win32,59.88023952,657b66ea316d21385b68909f,,,,,,,,,,,831.2504,832.2528,,,832.7521,833.007,,147,147,,,,,,,,,,,,,,,,bars/008.png,bars/mask002.png,,,,,,,,,,,,0,2,,,,,,,10,8,10,9,,,,,,,,,,,832.2528,832.752,833.007,834.8975,space,1.874,,834.8975,37,33,835.8997,835.8998,835.9004,,,,0,31,31,31,1,110,0,,,,,,,,
,,610bb066fa8d2a5647a40c77,65af534e3f5fcc7f4ffca766,2024-01-23_07h50.50.927,bars,2023.2.3,Win32,59.88023952,657b66ea316d21385b68909f,,,,,,,,,,,835.9007,836.9022,,,837.4058,837.6551,,24,24,,,,,,,,,,,,,,,,bars/027.png,bars/mask006.png,,,,,,,,,,,,1,2,,,,,,,10,10,9,9,,,,,,,,,,,836.9022,837.4058,837.6551,838.3732,space,0.7013,,838.3733,86,26,839.361,839.361,839.3618,,,,0,32,32,32,1,110,50,,,,,,,,
,,610bb066fa8d2a5647a40c77,65af534e3f5fcc7f4ffca766,2024-01-23_07h50.50.927,bars,2023.2.3,Win32,59.88023952,657b66ea316d21385b68909f,,,,,,,,,,,839.3619,840.3648,,,840.8664,841.1175,,22,22,,,,,,,,,,,,,,,,bars/035.png,bars/mask001.png,,,,,,,,,,,,1,1,,,,,,,8,10,9,10,,,,,,,,,,,840.3649,840.8664,841.1175,843.2435,space,2.1091,,843.2435,27,38,844.2442,844.2442,844.2472,,,,0,33,33,33,1,175,60,,,,,,,,
,,610bb066fa8d2a5647a40c77,65af534e3f5fcc7f4ffca766,2024-01-23_07h50.50.927,bars,2023.2.3,Win32,59.88023952,657b66ea316d21385b68909f,,,,,,,,,,,844.2478,845.2361,,,845.7511,846.0032,,54,54,,,,,,,,,,,,,,,,bars/007.png,bars/mask007.png,,,,,,,,,,,,8,2,,,,,,,10,8,10,8,,,,,,,,,,,845.2362,845.751,846.0033,848.8614,space,2.8414,,848.8615,59,1,849.8644,849.8644,849.8753,,,,0,34,34,34,1,175,55,,,,,,,,
,,610bb066fa8d2a5647a40c77,65af534e3f5fcc7f4ffca766,2024-01-23_07h50.50.927,bars,2023.2.3,Win32,59.88023952,657b66ea316d21385b68909f,,,,,,,,,,,849.8755,850.8848,,,851.3874,851.6547,,35,215,,,,,,,,,,,,,,,,bars/022.png,bars/mask007.png,,,,,,,,,,,,4,2,,,,,,,10,6,10,7,,,,,,,,,,,850.8849,851.3874,851.6548,854.8821,space,3.2094,,854.8821,60,15,855.8673,855.8673,855.878,,,,0,35,35,35,1,95,20,,,,,,,,
,,610bb066fa8d2a5647a40c77,65af534e3f5fcc7f4ffca766,2024-01-23_07h50.50.927,bars,2023.2.3,Win32,59.88023952,657b66ea316d21385b68909f,,,,,,,,,,,855.8782,856.8757,,,857.3735,857.6425,,168,-12,,,,,,,,,,,,,,,,bars/009.png,bars/mask006.png,,,,,,,,,,,,1,1,,,,,,,8,8,8,6,,,,,,,,,,,856.8758,857.3735,857.6425,859.9854,space,2.3248,,859.9854,27,63,860.9861,860.9861,861.0033,,,,0,36,36,36,1,15,105,,,,,,,,
,,610bb066fa8d2a5647a40c77,65af534e3f5fcc7f4ffca766,2024-01-23_07h50.50.927,bars,2023.2.3,Win32,59.88023952,657b66ea316d21385b68909f,,,,,,,,,,,861.0036,861.9927,,,862.4943,862.7606,,63,63,,,,,,,,,,,,,,,,bars/025.png,bars/mask003.png,,,,,,,,,,,,2,2,,,,,,,10,10,9,10,,,,,,,,,,,861.9927,862.4943,862.7606,866.0739,space,3.2955,,866.0739,42,23,867.0749,867.075,867.086,,,,0,37,37,37,1,105,40,,,,,,,,
,,610bb066fa8d2a5647a40c77,65af534e3f5fcc7f4ffca766,2024-01-23_07h50.50.927,bars,2023.2.3,Win32,59.88023952,657b66ea316d21385b68909f,,,,,,,,,,,867.0861,868.0784,,,868.5979,868.8499,,32,32,,,,,,,,,,,,,,,,bars/035.png,bars/mask005.png,,,,,,,,,,,,1,2,,,,,,,10,10,8,10,,,,,,,,,,,868.0785,868.5979,868.8499,871.1427,space,2.2754,,871.1428,37,28,872.1433,872.1433,872.1593,,,,0,38,38,38,1,175,60,,,,,,,,
,,610bb066fa8d2a5647a40c77,65af534e3f5fcc7f4ffca766,2024-01-23_07h50.50.927,bars,2023.2.3,Win32,59.88023952,657b66ea316d21385b68909f,,,,,,,,,,,872.1596,873.1481,,,873.6488,873.8969,,3,3,,,,,,,,,,,,,,,,bars/017.png,bars/mask007.png,,,,,,,,,,,,0,1,,,,,,,10,10,8,9,,,,,,,,,,,873.1482,873.6488,873.8969,875.2546,space,1.3385,,875.2547,38,42,876.2588,876.2589,876.261,,,,0,39,39,39,1,145,45,,,,,,,,
,,610bb066fa8d2a5647a40c77,65af534e3f5fcc7f4ffca766,2024-01-23_07h50.50.927,bars,2023.2.3,Win32,59.88023952,657b66ea316d21385b68909f,,,,,,,,,,,876.2612,877.2618,,,877.7441,877.9954,,73,73,,,,,,,,,,,,,,,,bars/002.png,bars/mask001.png,,,,,,,,,,,,6,2,,,,,,,8,10,10,10,,,,,,,,,,,877.2619,877.7441,877.9954,880.7921,space,2.7624,,880.7922,57,12,881.7951,881.7952,881.8125,,,,0,40,40,40,1,130,85,,,,,,,,
,,610bb066fa8d2a5647a40c77,65af534e3f5fcc7f4ffca766,2024-01-23_07h50.50.927,bars,2023.2.3,Win32,59.88023952,657b66ea316d21385b68909f,,,,,,,,,,,881.813,882.8135,,,883.3153,883.5678,,42,42,,,,,,,,,,,,,,,,bars/043.png,bars/mask003.png,,,,,,,,,,,,6,1,,,,,,,10,10,10,10,,,,,,,,,,,882.8135,883.3152,883.5679,886.8795,space,3.2947,,886.8796,12,88,887.8968,887.8968,887.908,,,,0,41,41,41,1,30,130,,,,,,,,
,,610bb066fa8d2a5647a40c77,65af534e3f5fcc7f4ffca766,2024-01-23_07h50.50.927,bars,2023.2.3,Win32,59.88023952,657b66ea316d21385b68909f,,,,,,,,,,,887.9081,888.9024,,,889.4014,889.6537,,56,56,,,,,,,,,,,,,,,,bars/031.png,bars/mask003.png,,,,,,,,,,,,3,2,,,,,,,10,10,9,10,,,,,,,,,,,888.9026,889.4014,889.6537,891.6944,space,2.0231,,891.6944,64,21,892.698,892.698,892.7,,,,0,42,42,42,1,120,35,,,,,,,,
,,610bb066fa8d2a5647a40c77,65af534e3f5fcc7f4ffca766,2024-01-23_07h50.50.927,bars,2023.2.3,Win32,59.88023952,657b66ea316d21385b68909f,,,,,,,,,,,892.7006,893.7016,,,894.2048,894.4557,,69,69,,,,,,,,,,,,,,,,bars/046.png,bars/mask002.png,,,,,,,,,,,,5,2,,,,,,,8,10,8,10,,,,,,,,,,,893.7016,894.2048,894.4558,898.4368,space,3.9645,,898.4368,86,16,899.4397,899.4397,899.4497,,,,0,43,43,43,1,155,85,,,,,,,,
,,610bb066fa8d2a5647a40c77,65af534e3f5fcc7f4ffca766,2024-01-23_07h50.50.927,bars,2023.2.3,Win32,59.88023952,657b66ea316d21385b68909f,,,,,,,,,,,899.4498,900.4437,,,900.9604,901.1944,,62,62,,,,,,,,,,,,,,,,bars/044.png,bars/mask001.png,,,,,,,,,,,,3,1,,,,,,,6,8,6,9,,,,,,,,,,,900.4437,900.9604,901.1945,905.2175,space,4.005,,905.2175,13,87,906.2083,906.2083,906.2193,,,,0,44,44,44,1,75,155,,,,,,,,
,,610bb066fa8d2a5647a40c77,65af534e3f5fcc7f4ffca766,2024-01-23_07h50.50.927,bars,2023.2.3,Win32,59.88023952,657b66ea316d21385b68909f,,,,,,,,,,,906.2195,907.2009,,,907.7025,907.9485,,41,41,,,,,,,,,,,,,,,,bars/007.png,bars/mask004.png,,,,,,,,,,,,4,2,,,,,,,4,6,3,7,,,,,,,,,,,907.201,907.7025,907.9486,909.2749,space,1.3069,,909.275,46,14,910.2771,910.2771,910.2798,,,,0,45,45,45,1,175,55,,,,,,,,
,,610bb066fa8d2a5647a40c77,65af534e3f5fcc7f4ffca766,2024-01-23_07h50.50.927,bars,2023.2.3,Win32,59.88023952,657b66ea316d21385b68909f,,,,,,,,,,,910.2801,911.2818,,,911.7993,912.0498,,114,114,,,,,,,,,,,,,,,,bars/028.png,bars/mask000.png,,,,,,,,,,,,3,2,,,,,,,6,4,5,4,,,,,,,,,,,911.2819,911.7992,912.0498,915.9988,space,3.9309,,915.9988,69,6,917.0014,917.0014,917.0112,,,,0,46,46,46,1,45,120,,,,,,,,
,,610bb066fa8d2a5647a40c77,65af534e3f5fcc7f4ffca766,2024-01-23_07h50.50.927,bars,2023.2.3,Win32,59.88023952,657b66ea316d21385b68909f,,,,,,,,,,,917.0114,918.0048,,,918.5039,918.756,,107,107,,,,,,,,,,,,,,,,bars/019.png,bars/mask005.png,,,,,,,,,,,,1,2,,,,,,,8,2,7,1,,,,,,,,,,,918.0049,918.5039,918.7561,921.3336,space,2.5595,,921.3336,62,2,922.3353,922.3353,922.3459,,,,0,47,47,47,1,45,105,,,,,,,,
,,610bb066fa8d2a5647a40c77,65af534e3f5fcc7f4ffca766,2024-01-23_07h50.50.927,bars,2023.2.3,Win32,59.88023952,657b66ea316d21385b68909f,,,,,,,,,,,922.3461,923.3388,,,923.8422,924.0937,,14,14,,,,,,,,,,,,,,,,bars/024.png,bars/mask002.png,,,,,,,,,,,,1,2,,,,,,,6,4,6,4,,,,,,,,,,,923.3388,923.8421,924.0937,926.8702,space,2.7602,,926.8702,74,24,927.8721,927.8722,927.8822,,,,0,48,48,48,1,120,170,,,,,,,,
,,610bb066fa8d2a5647a40c77,65af534e3f5fcc7f4ffca766,2024-01-23_07h50.50.927,bars,2023.2.3,Win32,59.88023952,657b66ea316d21385b68909f,,,,,,,,,,,927.8824,928.8764,,,929.3768,929.6232,,110,110,,,,,,,,,,,,,,,,bars/049.png,bars/mask005.png,,,,,,,,,,,,4,2,,,,,,,4,6,4,5,,,,,,,,,,,928.8765,929.3767,929.6232,930.7999,space,1.1546,,930.7999,50,5,931.8019,931.8019,931.8123,,,,0,49,49,49,1,160,115,,,,,,,,
,,610bb066fa8d2a5647a40c77,65af534e3f5fcc7f4ffca766,2024-01-23_07h50.50.927,bars,2023.2.3,Win32,59.88023952,657b66ea316d21385b68909f,,,,,,,,,,,,,,,,,,,,,,,,,,,,,,,,,,,,,,,,,,,,,,,,,,,,,,,,,,,,,,,,,,,,,,,,,,,,,,,,,,,,,,,,,,,,,931.8125,991.8145,0,1,1,2,1,sequence_tables/blk033.csv
,,610bb066fa8d2a5647a40c77,65af534e3f5fcc7f4ffca766,2024-01-23_07h50.50.927,bars,2023.2.3,Win32,59.88023952,657b66ea316d21385b68909f,,,,,,,,,,,1001.5589,1002.5625,,,1003.068,1003.3024,,124,-56,,,,,,,,,,,,,,,,bars/006.png,bars/mask003.png,,,,,,,,,,,,2,2,,,,,,,0,10,1,9,,,,,,991.8314,1001.5455,space,9.7005,,1002.5626,1003.068,1003.3025,1006.7142,space,3.3951,,1006.7143,89,24,1007.7175,1007.7175,1007.7275,,,,0,0,0,0,1,35,100,,,,,,,,
,,610bb066fa8d2a5647a40c77,65af534e3f5fcc7f4ffca766,2024-01-23_07h50.50.927,bars,2023.2.3,Win32,59.88023952,657b66ea316d21385b68909f,,,,,,,,,,,1007.7277,1008.7226,,,1009.2274,1009.4759,,66,66,,,,,,,,,,,,,,,,bars/035.png,bars/mask006.png,,,,,,,,,,,,8,2,,,,,,,0,10,0,10,,,,,,,,,,,1008.7228,1009.2274,1009.4759,1010.9984,space,1.506,,1010.9984,71,6,1011.9995,1011.9995,1012.0003,,,,0,1,1,1,1,175,60,,,,,,,,
,,610bb066fa8d2a5647a40c77,65af534e3f5fcc7f4ffca766,2024-01-23_07h50.50.927,bars,2023.2.3,Win32,59.88023952,657b66ea316d21385b68909f,,,,,,,,,,,1012.0007,1012.9821,,,1013.4574,1013.6913,,31,31,,,,,,,,,,,,,,,,bars/008.png,bars/mask003.png,,,,,,,,,,,,0,2,,,,,,,0,10,0,10,,,,,,,,,,,1012.9821,1013.4573,1013.6913,1015.5973,space,1.8747,,1015.5974,79,31,1016.6153,1016.6153,1016.6259,,,,0,2,2,2,1,110,0,,,,,,,,
,,610bb066fa8d2a5647a40c77,65af534e3f5fcc7f4ffca766,2024-01-23_07h50.50.927,bars,2023.2.3,Win32,59.88023952,657b66ea316d21385b68909f,,,,,,,,,,,1016.6261,1017.6356,,,1018.1545,1018.3895,,119,119,,,,,,,,,,,,,,,,bars/000.png,bars/mask003.png,,,,,,,,,,,,1,2,,,,,,,0,8,0,9,,,,,,,,,,,1017.6357,1018.1545,1018.3896,1021.5688,space,3.1624,,1021.5689,79,26,1022.5715,1022.5716,1022.5818,,,,0,3,3,3,1,40,145,,,,,,,,
,,610bb066fa8d2a5647a40c77,65af534e3f5fcc7f4ffca766,2024-01-23_07h50.50.927,bars,2023.2.3,Win32,59.88023952,657b66ea316d21385b68909f,,,,,,,,,,,1022.582,1023.5729,,,1024.0708,1024.3108,,70,70,,,,,,,,,,,,,,,,bars/043.png,bars/mask009.png,,,,,,,,,,,,0,1,,,,,,,2,10,3,10,,,,,,,,,,,1023.5729,1024.0708,1024.3109,1025.0418,space,0.7142,,1025.0418,40,60,1026.0177,1026.0177,1026.0195,,,,0,4,4,4,1,30,130,,,,,,,,
,,610bb066fa8d2a5647a40c77,65af534e3f5fcc7f4ffca766,2024-01-23_07h50.50.927,bars,2023.2.3,Win32,59.88023952,657b66ea316d21385b68909f,,,,,,,,,,,1026.0196,1027.0147,,,1027.5056,1027.7571,,30,210,,,,,,,,,,,,,,,,bars/004.png,bars/mask002.png,,,,,,,,,,,,0,1,,,,,,,0,10,0,10,,,,,,,,,,,1027.0147,1027.5055,1027.7572,1031.2532,space,3.4796,,1031.2532,5,85,1032.2556,1032.2556,1032.2714,,,,0,5,5,5,1,25,125,,,,,,,,
,,610bb066fa8d2a5647a40c77,65af534e3f5fcc7f4ffca766,2024-01-23_07h50.50.927,bars,2023.2.3,Win32,59.88023952,657b66ea316d21385b68909f,,,,,,,,,,,1032.2718,1033.2558,,,1033.7448,1033.9932,,106,106,,,,,,,,,,,,,,,,bars/049.png,bars/mask006.png,,,,,,,,,,,,7,2,,,,,,,2,10,1,10,,,,,,,,,,,1033.2558,1033.7448,1033.9932,1037.2506,space,3.2237,,1037.2507,54,9,1038.2417,1038.2418,1038.253,,,,0,6,6,6,1,160,115,,,,,,,,
,,610bb066fa8d2a5647a40c77,65af534e3f5fcc7f4ffca766,2024-01-23_07h50.50.927,bars,2023.2.3,Win32,59.88023952,657b66ea316d21385b68909f,,,,,,,,,,,1038.2532,1039.2456,,,1039.7467,1039.9997,,50,50,,,,,,,,,,,,,,,,bars/007.png,bars/mask003.png,,,,,,,,,,,,8,2,,,,,,,0,10,0,9,,,,,,,,,,,1039.2457,1039.7467,1039.9997,1044.9831,space,4.9523,,1044.9832,55,5,1045.987,1045.987,1045.9968,,,,0,7,7,7,1,175,55,,,,,,,,
,,610bb066fa8d2a5647a40c77,65af534e3f5fcc7f4ffca766,2024-01-23_07h50.50.927,bars,2023.2.3,Win32,59.88023952,657b66ea316d21385b68909f,,,,,,,,,,,1045.9971,1046.9872,,,1047.4756,1047.7228,,160,160,,,,,,,,,,,,,,,,bars/010.png,bars/mask007.png,,,,,,,,,,,,2,1,,,,,,,2,8,2,7,,,,,,,,,,,1046.9872,1047.4756,1047.7229,1048.9461,space,1.1881,,1048.9461,5,75,1049.9339,1049.9339,1049.9358,,,,0,8,8,8,1,165,55,,,,,,,,
,,610bb066fa8d2a5647a40c77,65af534e3f5fcc7f4ffca766,2024-01-23_07h50.50.927,bars,2023.2.3,Win32,59.88023952,657b66ea316d21385b68909f,,,,,,,,,,,1049.936,1050.9198,,,1051.4219,1051.6739,,28,208,,,,,,,,,,,,,,,,bars/029.png,bars/mask006.png,,,,,,,,,,,,3,2,,,,,,,0,6,1,6,,,,,,,,,,,1050.9199,1051.4218,1051.674,1054.9018,space,3.1964,,1054.9018,62,17,1055.9028,1055.9029,1055.9152,,,,0,9,9,9,1,90,45,,,,,,,,
,,610bb066fa8d2a5647a40c77,65af534e3f5fcc7f4ffca766,2024-01-23_07h50.50.927,bars,2023.2.3,Win32,59.88023952,657b66ea316d21385b68909f,,,,,,,,,,,1055.9153,1056.9235,,,1057.4429,1057.6784,,168,168,,,,,,,,,,,,,,,,bars/025.png,bars/mask006.png,,,,,,,,,,,,0,2,,,,,,,2,8,2,7,,,,,,,,,,,1056.9236,1057.4428,1057.6787,1058.9827,space,1.2725,,1058.9828,63,52,1059.9826,1059.9826,1059.9835,,,,0,10,10,10,1,105,40,,,,,,,,
,,610bb066fa8d2a5647a40c77,65af534e3f5fcc7f4ffca766,2024-01-23_07h50.50.927,bars,2023.2.3,Win32,59.88023952,657b66ea316d21385b68909f,,,,,,,,,,,1059.9838,1060.9697,,,1061.4729,1061.7207,,162,162,,,,,,,,,,,,,,,,bars/044.png,bars/mask008.png,,,,,,,,,,,,5,2,,,,,,,0,6,0,6,,,,,,,,,,,1060.9697,1061.4729,1061.7208,1064.2847,space,2.5443,,1064.2848,87,7,1065.2846,1065.2846,1065.2947,,,,0,11,11,11,1,75,155,,,,,,,,
,,610bb066fa8d2a5647a40c77,65af534e3f5fcc7f4ffca766,2024-01-23_07h50.50.927,bars,2023.2.3,Win32,59.88023952,657b66ea316d21385b68909f,,,,,,,,,,,1065.2949,1066.2914,,,1066.7925,1067.0445,,78,78,,,,,,,,,,,,,,,,bars/021.png,bars/mask006.png,,,,,,,,,,,,4,2,,,,,,,0,4,0,5,,,,,,,,,,,1066.2914,1066.7925,1067.0445,1071.6286,space,4.5668,,1071.6286,77,8,1072.6137,1072.6137,1072.6235,,,,0,12,12,12,1,155,70,,,,,,,,
,,610bb066fa8d2a5647a40c77,65af534e3f5fcc7f4ffca766,2024-01-23_07h50.50.927,bars,2023.2.3,Win32,59.88023952,657b66ea316d21385b68909f,,,,,,,,,,,1072.6237,1073.616,,,1074.1167,1074.3665,,75,75,,,,,,,,,,,,,,,,bars/006.png,bars/mask009.png,,,,,,,,,,,,0,2,,,,,,,2,2,2,3,,,,,,,,,,,1073.6161,1074.1166,1074.3666,1076.9095,space,2.508,,1076.9095,40,25,1077.9107,1077.9107,1077.9213,,,,0,13,13,13,1,35,100,,,,,,,,
,,610bb066fa8d2a5647a40c77,65af534e3f5fcc7f4ffca766,2024-01-23_07h50.50.927,bars,2023.2.3,Win32,59.88023952,657b66ea316d21385b68909f,,,,,,,,,,,1077.9215,1078.9191,,,1079.4217,1079.6724,,145,145,,,,,,,,,,,,,,,,bars/015.png,bars/mask000.png,,,,,,,,,,,,2,2,,,,,,,4,4,5,4,,,,,,,,,,,1078.9192,1079.4217,1079.6724,1084.5725,space,4.8839,,1084.5725,35,15,1085.5739,1085.5739,1085.5838,,,,0,14,14,14,1,110,160,,,,,,,,
,,610bb066fa8d2a5647a40c77,65af534e3f5fcc7f4ffca766,2024-01-23_07h50.50.927,bars,2023.2.3,Win32,59.88023952,657b66ea316d21385b68909f,,,,,,,,,,,1085.584,1086.5783,,,1087.0786,1087.3323,,85,85,,,,,,,,,,,,,,,,bars/006.png,bars/mask006.png,,,,,,,,,,,,2,2,,,,,,,2,6,0,3,,,,,,,,,,,1086.5784,1087.0785,1087.3324,1090.1759,space,2.827,,1090.1759,50,15,1091.1768,1091.1769,1091.1867,,,,0,15,15,15,1,35,100,,,,,,,,
,,610bb066fa8d2a5647a40c77,65af534e3f5fcc7f4ffca766,2024-01-23_07h50.50.927,bars,2023.2.3,Win32,59.88023952,657b66ea316d21385b68909f,,,,,,,,,,,1091.1869,1092.1821,,,1092.6826,1092.9345,,6,186,,,,,,,,,,,,,,,,bars/044.png,bars/mask000.png,,,,,,,,,,,,0,2,,,,,,,4,4,3,4,,,,,,,,,,,1092.1823,1092.6826,1092.9346,1097.1499,space,4.1829,,1097.1499,69,31,1098.15,1098.1501,1098.1601,,,,0,16,16,16,1,75,155,,,,,,,,
,,610bb066fa8d2a5647a40c77,65af534e3f5fcc7f4ffca766,2024-01-23_07h50.50.927,bars,2023.2.3,Win32,59.88023952,657b66ea316d21385b68909f,,,,,,,,,,,1098.1602,1099.1571,,,1099.6588,1099.9073,,171,171,,,,,,,,,,,,,,,,bars/013.png,bars/mask001.png,,,,,,,,,,,,2,2,,,,,,,2,6,3,5,,,,,,,,,,,1099.1571,1099.6587,1099.9073,1101.1977,space,1.2728,,1101.1977,84,19,1102.1957,1102.1957,1102.1964,,,,0,17,17,17,1,75,10,,,,,,,,
,,610bb066fa8d2a5647a40c77,65af534e3f5fcc7f4ffca766,2024-01-23_07h50.50.927,bars,2023.2.3,Win32,59.88023952,657b66ea316d21385b68909f,,,,,,,,,,,1102.1966,1103.1879,,,1103.6895,1103.9203,,62,62,,,,,,,,,,,,,,,,bars/008.png,bars/mask004.png,,,,,,,,,,,,0,1,,,,,,,4,8,5,8,,,,,,,,,,,1103.188,1103.6894,1103.9203,1107.2666,space,3.3115,,1107.2666,48,62,1108.2553,1108.2554,1108.2728,,,,0,18,18,18,1,110,0,,,,,,,,
,,610bb066fa8d2a5647a40c77,65af534e3f5fcc7f4ffca766,2024-01-23_07h50.50.927,bars,2023.2.3,Win32,59.88023952,657b66ea316d21385b68909f,,,,,,,,,,,1108.2732,1109.2697,,,1109.7608,1109.9952,,10,10,,,,,,,,,,,,,,,,bars/045.png,bars/mask006.png,,,,,,,,,,,,10,2,,,,,,,6,10,7,10,,,,,,,,,,,1109.2697,1109.7607,1109.9952,1111.0642,space,1.0381,,1111.0642,90,0,1112.0666,1112.0667,1112.0687,,,,0,19,19,19,1,100,10,,,,,,,,
,,610bb066fa8d2a5647a40c77,65af534e3f5fcc7f4ffca766,2024-01-23_07h50.50.927,bars,2023.2.3,Win32,59.88023952,657b66ea316d21385b68909f,,,,,,,,,,,1112.0691,1113.0716,,,1113.5735,1113.8202,,104,104,,,,,,,,,,,,,,,,bars/006.png,bars/mask007.png,,,,,,,,,,,,9,2,,,,,,,8,10,8,10,,,,,,,,,,,1113.0716,1113.5735,1113.8203,1117.1199,space,3.2803,,1117.12,69,4,1118.0985,1118.0986,1118.1093,,,,0,20,20,20,1,35,100,,,,,,,,
,,610bb066fa8d2a5647a40c77,65af534e3f5fcc7f4ffca766,2024-01-23_07h50.50.927,bars,2023.2.3,Win32,59.88023952,657b66ea316d21385b68909f,,,,,,,,,,,1118.1096,1119.1081,,,1119.5933,1119.8453,,110,110,,,,,,,,,,,,,,,,bars/004.png,bars/mask002.png,,,,,,,,,,,,4,2,,,,,,,10,8,10,8,,,,,,,,,,,1119.1082,1119.5932,1119.8454,1123.6259,space,3.7636,,1123.6259,85,15,1124.6273,1124.6273,1124.6373,,,,0,21,21,21,1,25,125,,,,,,,,
,,610bb066fa8d2a5647a40c77,65af534e3f5fcc7f4ffca766,2024-01-23_07h50.50.927,bars,2023.2.3,Win32,59.88023952,657b66ea316d21385b68909f,,,,,,,,,,,1124.6377,1125.6157,,,1126.0982,1126.3489,,29,29,,,,,,,,,,,,,,,,bars/048.png,bars/mask006.png,,,,,,,,,,,,3,1,,,,,,,10,10,10,10,,,,,,,,,,,1125.6158,1126.0981,1126.3489,1128.5271,space,2.1432,,1128.5271,21,34,1129.5121,1129.5122,1129.5139,,,,0,22,22,22,1,50,175,,,,,,,,
,,610bb066fa8d2a5647a40c77,65af534e3f5fcc7f4ffca766,2024-01-23_07h50.50.927,bars,2023.2.3,Win32,59.88023952,657b66ea316d21385b68909f,,,,,,,,,,,1129.5141,1130.5152,,,1131.0152,1131.2678,,24,24,,,,,,,,,,,,,,,,bars/014.png,bars/mask000.png,,,,,,,,,,,,2,2,,,,,,,8,8,8,8,,,,,,,,,,,1130.5153,1131.0152,1131.2678,1133.074,space,1.7894,,1133.074,56,24,1134.0761,1134.0761,1134.0877,,,,0,23,23,23,1,80,0,,,,,,,,
,,610bb066fa8d2a5647a40c77,65af534e3f5fcc7f4ffca766,2024-01-23_07h50.50.927,bars,2023.2.3,Win32,59.88023952,657b66ea316d21385b68909f,,,,,,,,,,,1134.0879,1135.0964,,,1135.5991,1135.8501,,17,17,,,,,,,,,,,,,,,,bars/016.png,bars/mask009.png,,,,,,,,,,,,1,1,,,,,,,6,10,5,10,,,,,,,,,,,1135.0965,1135.599,1135.8502,1138.1768,space,2.3086,,1138.1769,23,32,1139.1786,1139.1786,1139.1896,,,,0,24,24,24,1,40,165,,,,,,,,
,,610bb066fa8d2a5647a40c77,65af534e3f5fcc7f4ffca766,2024-01-23_07h50.50.927,bars,2023.2.3,Win32,59.88023952,657b66ea316d21385b68909f,,,,,,,,,,,1139.1898,1140.1823,,,1140.6858,1140.9335,,175,175,,,,,,,,,,,,,,,,bars/008.png,bars/mask003.png,,,,,,,,,,,,8,2,,,,,,,4,10,6,10,,,,,,,,,,,1140.1824,1140.6858,1140.9335,1141.9251,space,0.957,,1141.9251,65,5,1142.9273,1142.9274,1142.9296,,,,0,25,25,25,1,110,0,,,,,,,,
,,610bb066fa8d2a5647a40c77,65af534e3f5fcc7f4ffca766,2024-01-23_07h50.50.927,bars,2023.2.3,Win32,59.88023952,657b66ea316d21385b68909f,,,,,,,,,,,1142.93,1143.9307,,,1144.4322,1144.6987,,146,146,,,,,,,,,,,,,,,,bars/044.png,bars/mask005.png,,,,,,,,,,,,6,2,,,,,,,2,8,1,8,,,,,,,,,,,1143.9307,1144.4321,1144.6987,1147.1412,space,2.4246,,1147.1414,71,9,1148.1393,1148.1394,1148.1495,,,,0,26,26,26,1,75,155,,,,,,,,
,,610bb066fa8d2a5647a40c77,65af534e3f5fcc7f4ffca766,2024-01-23_07h50.50.927,bars,2023.2.3,Win32,59.88023952,657b66ea316d21385b68909f,,,,,,,,,,,1148.1497,1149.1462,,,1149.6477,1149.901,,57,57,,,,,,,,,,,,,,,,bars/047.png,bars/mask003.png,,,,,,,,,,,,5,2,,,,,,,4,10,4,8,,,,,,,,,,,1149.1463,1149.6477,1149.901,1153.3116,space,3.3941,,1153.3117,42,13,1154.3151,1154.3152,1154.3258,,,,0,27,27,27,1,15,70,,,,,,,,
,,610bb066fa8d2a5647a40c77,65af534e3f5fcc7f4ffca766,2024-01-23_07h50.50.927,bars,2023.2.3,Win32,59.88023952,657b66ea316d21385b68909f,,,,,,,,,,,1154.326,1155.3181,,,1155.8218,1156.0655,,126,126,,,,,,,,,,,,,,,,bars/028.png,bars/mask004.png,,,,,,,,,,,,8,2,,,,,,,6,8,7,10,,,,,,,,,,,1155.3182,1155.8217,1156.0656,1157.3089,space,1.2212,,1157.3089,81,6,1158.3287,1158.3288,1158.3387,,,,0,28,28,28,1,45,120,,,,,,,,
,,610bb066fa8d2a5647a40c77,65af534e3f5fcc7f4ffca766,2024-01-23_07h50.50.927,bars,2023.2.3,Win32,59.88023952,657b66ea316d21385b68909f,,,,,,,,,,,1158.3389,1159.334,,,1159.8507,1160.1186,,102,102,,,,,,,,,,,,,,,,bars/039.png,bars/mask000.png,,,,,,,,,,,,5,2,,,,,,,4,6,3,6,,,,,,,,,,,1159.334,1159.8507,1160.1186,1160.8883,space,0.7519,,1160.8883,73,3,1161.8922,1161.8922,1161.893,,,,0,29,29,29,1,175,105,,,,,,,,
,,610bb066fa8d2a5647a40c77,65af534e3f5fcc7f4ffca766,2024-01-23_07h50.50.927,bars,2023.2.3,Win32,59.88023952,657b66ea316d21385b68909f,,,,,,,,,,,1161.8933,1162.8904,,,1163.3976,1163.6474,,107,107,,,,,,,,,,,,,,,,bars/019.png,bars/mask005.png,,,,,,,,,,,,7,2,,,,,,,6,8,6,7,,,,,,,,,,,1162.8905,1163.3975,1163.6474,1166.0743,space,2.4086,,1166.0744,62,2,1167.0758,1167.0758,1167.0858,,,,0,30,30,30,1,45,105,,,,,,,,
,,610bb066fa8d2a5647a40c77,65af534e3f5fcc7f4ffca766,2024-01-23_07h50.50.927,bars,2023.2.3,Win32,59.88023952,657b66ea316d21385b68909f,,,,,,,,,,,1167.0861,1168.0797,,,1168.5834,1168.8314,,163,-17,,,,,,,,,,,,,,,,bars/049.png,bars/mask002.png,,,,,,,,,,,,7,1,,,,,,,8,10,8,10,,,,,,,,,,,1168.0797,1168.5833,1168.8314,1172.5145,space,3.6488,,1172.5145,3,48,1173.5174,1173.5174,1173.5285,,,,0,31,31,31,1,160,115,,,,,,,,
,,610bb066fa8d2a5647a40c77,65af534e3f5fcc7f4ffca766,2024-01-23_07h50.50.927,bars,2023.2.3,Win32,59.88023952,657b66ea316d21385b68909f,,,,,,,,,,,1173.5286,1174.5354,,,1175.0388,1175.2901,,15,15,,,,,,,,,,,,,,,,bars/032.png,bars/mask006.png,,,,,,,,,,,,6,2,,,,,,,6,8,5,7,,,,,,,,,,,1174.5355,1175.0388,1175.2901,1177.8827,space,2.5611,,1177.8827,70,5,1178.8854,1178.8855,1178.8967,,,,0,32,32,32,1,125,20,,,,,,,,
,,610bb066fa8d2a5647a40c77,65af534e3f5fcc7f4ffca766,2024-01-23_07h50.50.927,bars,2023.2.3,Win32,59.88023952,657b66ea316d21385b68909f,,,,,,,,,,,1178.8969,1179.8986,,,1180.3896,1180.6257,,45,225,,,,,,,,,,,,,,,,bars/043.png,bars/mask005.png,,,,,,,,,,,,1,1,,,,,,,4,6,2,6,,,,,,,,,,,1179.8987,1180.3896,1180.6257,1183.5373,space,2.88,,1183.5373,15,85,1184.5375,1184.5375,1184.5488,,,,0,33,33,33,1,30,130,,,,,,,,
,,610bb066fa8d2a5647a40c77,65af534e3f5fcc7f4ffca766,2024-01-23_07h50.50.927,bars,2023.2.3,Win32,59.88023952,657b66ea316d21385b68909f,,,,,,,,,,,1184.5489,1185.5411,,,1186.0587,1186.3123,,8,8,,,,,,,,,,,,,,,,bars/022.png,bars/mask001.png,,,,,,,,,,,,5,2,,,,,,,6,8,7,8,,,,,,,,,,,1185.5411,1186.0587,1186.3124,1188.1471,space,1.8183,,1188.1472,87,12,1189.1228,1189.1228,1189.1334,,,,0,34,34,34,1,95,20,,,,,,,,
,,610bb066fa8d2a5647a40c77,65af534e3f5fcc7f4ffca766,2024-01-23_07h50.50.927,bars,2023.2.3,Win32,59.88023952,657b66ea316d21385b68909f,,,,,,,,,,,1189.1336,1190.1253,,,1190.6256,1190.8614,,107,107,,,,,,,,,,,,,,,,bars/006.png,bars/mask009.png,,,,,,,,,,,,4,2,,,,,,,4,6,3,5,,,,,,,,,,,1190.1253,1190.6256,1190.8614,1210.8976,space,20.0194,,1210.8976,72,7,1211.8974,1211.8975,1211.9078,,,,0,35,35,35,1,35,100,,,,,,,,
,,610bb066fa8d2a5647a40c77,65af534e3f5fcc7f4ffca766,2024-01-23_07h50.50.927,bars,2023.2.3,Win32,59.88023952,657b66ea316d21385b68909f,,,,,,,,,,,1211.9079,1212.8884,,,1213.3871,1213.6393,,167,-13,,,,,,,,,,,,,,,,bars/045.png,bars/mask003.png,,,,,,,,,,,,2,2,,,,,,,2,8,0,9,,,,,,,,,,,1212.8884,1213.387,1213.6393,1217.0036,space,3.3478,,1217.0036,67,23,1217.9903,1217.9903,1218.0061,,,,0,36,36,36,1,100,10,,,,,,,,
,,610bb066fa8d2a5647a40c77,65af534e3f5fcc7f4ffca766,2024-01-23_07h50.50.927,bars,2023.2.3,Win32,59.88023952,657b66ea316d21385b68909f,,,,,,,,,,,1218.0064,1219.0051,,,1219.4956,1219.7616,,111,111,,,,,,,,,,,,,,,,bars/009.png,bars/mask007.png,,,,,,,,,,,,4,2,,,,,,,0,6,0,5,,,,,,,,,,,1219.0052,1219.4956,1219.7616,1224.0785,space,4.2989,,1224.0785,84,6,1225.0814,1225.0814,1225.0905,,,,0,37,37,37,1,15,105,,,,,,,,
,,610bb066fa8d2a5647a40c77,65af534e3f5fcc7f4ffca766,2024-01-23_07h50.50.927,bars,2023.2.3,Win32,59.88023952,657b66ea316d21385b68909f,,,,,,,,,,,1225.0907,1226.0988,,,1226.5868,1226.8344,,9,9,,,,,,,,,,,,,,,,bars/009.png,bars/mask009.png,,,,,,,,,,,,1,1,,,,,,,0,4,1,5,,,,,,,,,,,1226.0988,1226.5867,1226.8345,1227.6743,space,0.8053,,1227.6743,6,84,1228.6768,1228.6769,1228.6785,,,,0,38,38,38,1,15,105,,,,,,,,
,,610bb066fa8d2a5647a40c77,65af534e3f5fcc7f4ffca766,2024-01-23_07h50.50.927,bars,2023.2.3,Win32,59.88023952,657b66ea316d21385b68909f,,,,,,,,,,,1228.6788,1229.6808,,,1230.1793,1230.4322,,56,56,,,,,,,,,,,,,,,,bars/026.png,bars/mask002.png,,,,,,,,,,,,1,1,,,,,,,0,2,2,3,,,,,,,,,,,1229.6808,1230.1792,1230.4324,1231.72,space,1.2713,,1231.72,21,29,1232.708,1232.7081,1232.7091,,,,0,39,39,39,1,35,85,,,,,,,,
,,610bb066fa8d2a5647a40c77,65af534e3f5fcc7f4ffca766,2024-01-23_07h50.50.927,bars,2023.2.3,Win32,59.88023952,657b66ea316d21385b68909f,,,,,,,,,,,1232.7095,1233.7108,,,1234.2132,1234.4642,,49,49,,,,,,,,,,,,,,,,bars/042.png,bars/mask000.png,,,,,,,,,,,,1,2,,,,,,,0,4,0,5,,,,,,,,,,,1233.7108,1234.2132,1234.4642,1235.1298,space,0.6343,,1235.1298,84,26,1236.1181,1236.1182,1236.1201,,,,0,40,40,40,1,145,75,,,,,,,,
,,610bb066fa8d2a5647a40c77,65af534e3f5fcc7f4ffca766,2024-01-23_07h50.50.927,bars,2023.2.3,Win32,59.88023952,657b66ea316d21385b68909f,,,,,,,,,,,1236.1205,1237.1216,,,1237.6249,1237.8762,,73,73,,,,,,,,,,,,,,,,bars/026.png,bars/mask005.png,,,,,,,,,,,,1,2,,,,,,,0,2,1,2,,,,,,,,,,,1237.1216,1237.6249,1237.8762,1239.7313,space,1.8238,,1239.7313,38,12,1240.7336,1240.7336,1240.7497,,,,0,41,41,41,1,35,85,,,,,,,,
,,610bb066fa8d2a5647a40c77,65af534e3f5fcc7f4ffca766,2024-01-23_07h50.50.927,bars,2023.2.3,Win32,59.88023952,657b66ea316d21385b68909f,,,,,,,,,,,1240.7498,1241.7397,,,1242.242,1242.492,,2,2,,,,,,,,,,,,,,,,bars/033.png,bars/mask001.png,,,,,,,,,,,,0,1,,,,,,,0,0,0,1,,,,,,,,,,,1241.7398,1242.242,1242.4921,1244.7671,space,2.2427,,1244.7672,23,27,1245.7704,1245.7704,1245.7874,,,,0,42,42,42,1,25,155,,,,,,,,
,,610bb066fa8d2a5647a40c77,65af534e3f5fcc7f4ffca766,2024-01-23_07h50.50.927,bars,2023.2.3,Win32,59.88023952,657b66ea316d21385b68909f,,,,,,,,,,,1245.7876,1246.7858,,,1247.2721,1247.5259,,34,34,,,,,,,,,,,,,,,,bars/001.png,bars/mask008.png,,,,,,,,,,,,0,2,,,,,,,0,0,2,0,,,,,,,,,,,1246.7858,1247.2721,1247.5259,1248.5115,space,0.9689,,1248.5116,84,51,1249.5146,1249.5146,1249.5167,,,,0,43,43,43,1,130,85,,,,,,,,
,,610bb066fa8d2a5647a40c77,65af534e3f5fcc7f4ffca766,2024-01-23_07h50.50.927,bars,2023.2.3,Win32,59.88023952,657b66ea316d21385b68909f,,,,,,,,,,,1249.517,1250.5203,,,1251.0223,1251.2729,,38,38,,,,,,,,,,,,,,,,bars/035.png,bars/mask006.png,,,,,,,,,,,,0,2,,,,,,,0,0,0,1,,,,,,,,,,,1250.5204,1251.0223,1251.273,1251.9764,space,0.6721,,1251.9765,43,22,1252.9776,1252.9776,1252.9786,,,,0,44,44,44,1,175,60,,,,,,,,
,,610bb066fa8d2a5647a40c77,65af534e3f5fcc7f4ffca766,2024-01-23_07h50.50.927,bars,2023.2.3,Win32,59.88023952,657b66ea316d21385b68909f,,,,,,,,,,,1252.9788,1253.9642,,,1254.4619,1254.7002,,58,58,,,,,,,,,,,,,,,,bars/001.png,bars/mask000.png,,,,,,,,,,,,0,2,,,,,,,2,2,1,4,,,,,,,,,,,1253.9643,1254.4619,1254.7002,1257.3777,space,2.6605,,1257.3777,72,27,1258.3961,1258.3961,1258.4061,,,,0,45,45,45,1,130,85,,,,,,,,
,,610bb066fa8d2a5647a40c77,65af534e3f5fcc7f4ffca766,2024-01-23_07h50.50.927,bars,2023.2.3,Win32,59.88023952,657b66ea316d21385b68909f,,,,,,,,,,,1258.4063,1259.4007,,,1259.9035,1260.1541,,160,-20,,,,,,,,,,,,,,,,bars/005.png,bars/mask000.png,,,,,,,,,,,,1,2,,,,,,,4,4,5,4,,,,,,,,,,,1259.4007,1259.9034,1260.1541,1262.7771,space,2.5911,,1262.7771,30,20,1263.7821,1263.7821,1263.7924,,,,0,46,46,46,1,10,140,,,,,,,,
,,610bb066fa8d2a5647a40c77,65af534e3f5fcc7f4ffca766,2024-01-23_07h50.50.927,bars,2023.2.3,Win32,59.88023952,657b66ea316d21385b68909f,,,,,,,,,,,1263.7926,1264.7858,,,1265.304,1265.5547,,152,152,,,,,,,,,,,,,,,,bars/008.png,bars/mask004.png,,,,,,,,,,,,0,2,,,,,,,2,2,1,2,,,,,,,,,,,1264.7858,1265.3039,1265.5547,1266.3604,space,0.7885,,1266.3604,42,28,1267.3588,1267.3588,1267.3597,,,,0,47,47,47,1,110,0,,,,,,,,
,,610bb066fa8d2a5647a40c77,65af534e3f5fcc7f4ffca766,2024-01-23_07h50.50.927,bars,2023.2.3,Win32,59.88023952,657b66ea316d21385b68909f,,,,,,,,,,,1267.36,1268.3495,,,1268.8441,1269.0836,,110,110,,,,,,,,,,,,,,,,bars/006.png,bars/mask006.png,,,,,,,,,,,,1,2,,,,,,,4,0,4,1,,,,,,,,,,,1268.3495,1268.8441,1269.0837,1273.4348,space,4.3328,,1273.4348,75,10,1274.4344,1274.4344,1274.4444,,,,0,48,48,48,1,35,100,,,,,,,,
,,610bb066fa8d2a5647a40c77,65af534e3f5fcc7f4ffca766,2024-01-23_07h50.50.927,bars,2023.2.3,Win32,59.88023952,657b66ea316d21385b68909f,,,,,,,,,,,1274.4447,1275.4392,,,1275.9417,1276.1921,,51,51,,,,,,,,,,,,,,,,bars/033.png,bars/mask008.png,,,,,,,,,,,,0,1,,,,,,,2,0,1,0,,,,,,,,,,,1275.4392,1275.9417,1276.1921,1280.4572,space,4.2452,,1280.4573,26,76,1281.4422,1281.4423,1281.4528,,,,0,49,49,49,1,25,155,,,,,,,,
,,610bb066fa8d2a5647a40c77,65af534e3f5fcc7f4ffca766,2024-01-23_07h50.50.927,bars,2023.2.3,Win32,59.88023952,657b66ea316d21385b68909f,,,,,,,,,,,,,,,,,,,,,,,,,,,,,,,,,,,,,,,,,,,,,,,,,,,,,,,,,,,,,,,,,,,,,,,,,,,,,,,,,,,,,,,,,,,,,1281.4529,1341.4537,0,2,2,0,1,sequence_tables/blk017.csv
,,610bb066fa8d2a5647a40c77,65af534e3f5fcc7f4ffca766,2024-01-23_07h50.50.927,bars,2023.2.3,Win32,59.88023952,657b66ea316d21385b68909f,,,,,,,,,,,1355.979,1356.958,,,1357.4603,1357.7091,,48,48,,,,,,,,,,,,,,,,bars/010.png,bars/mask007.png,,,,,,,,,,,,8,2,,,,,,,9,9,7,10,,,,,,1341.4635,1355.9563,space,14.4818,,1356.9581,1357.4602,1357.7091,1361.9447,space,4.2163,,1361.9448,63,7,1362.9461,1362.9462,1362.9575,,,,0,0,0,0,1,165,55,,,,,,,,
,,610bb066fa8d2a5647a40c77,65af534e3f5fcc7f4ffca766,2024-01-23_07h50.50.927,bars,2023.2.3,Win32,59.88023952,657b66ea316d21385b68909f,,,,,,,,,,,1362.9578,1363.9495,,,1364.4516,1364.7021,,170,-10,,,,,,,,,,,,,,,,bars/033.png,bars/mask007.png,,,,,,,,,,,,5,2,,,,,,,7,10,7,10,,,,,,,,,,,1363.9495,1364.4515,1364.7021,1366.7282,space,2.008,,1366.7283,35,15,1367.7311,1367.7311,1367.7319,,,,0,1,1,1,1,25,155,,,,,,,,
,,610bb066fa8d2a5647a40c77,65af534e3f5fcc7f4ffca766,2024-01-23_07h50.50.927,bars,2023.2.3,Win32,59.88023952,657b66ea316d21385b68909f,,,,,,,,,,,1367.7321,1368.7147,,,1369.2165,1369.4666,,16,196,,,,,,,,,,,,,,,,bars/032.png,bars/mask006.png,,,,,,,,,,,,7,2,,,,,,,9,8,9,8,,,,,,,,,,,1368.7148,1369.2165,1369.4666,1372.8646,space,3.3625,,1372.8646,71,4,1373.8588,1373.859,1373.8688,,,,0,2,2,2,1,125,20,,,,,,,,
,,610bb066fa8d2a5647a40c77,65af534e3f5fcc7f4ffca766,2024-01-23_07h50.50.927,bars,2023.2.3,Win32,59.88023952,657b66ea316d21385b68909f,,,,,,,,,,,1373.869,1374.873,,,1375.3549,1375.5926,,21,201,,,,,,,,,,,,,,,,bars/035.png,bars/mask000.png,,,,,,,,,,,,1,1,,,,,,,10,6,8,7,,,,,,,,,,,1374.873,1375.3549,1375.5927,1379.019,space,3.4102,,1379.0191,26,39,1380.0076,1380.0077,1380.018,,,,0,3,3,3,1,175,60,,,,,,,,
,,610bb066fa8d2a5647a40c77,65af534e3f5fcc7f4ffca766,2024-01-23_07h50.50.927,bars,2023.2.3,Win32,59.88023952,657b66ea316d21385b68909f,,,,,,,,,,,1380.0182,1381.0094,,,1381.5116,1381.7742,,43,43,,,,,,,,,,,,,,,,bars/044.png,bars/mask003.png,,,,,,,,,,,,0,1,,,,,,,10,4,9,4,,,,,,,,,,,1381.0095,1381.5116,1381.7742,1383.6216,space,1.8261,,1383.6218,32,68,1384.6229,1384.6229,1384.6389,,,,0,4,4,4,1,75,155,,,,,,,,
,,610bb066fa8d2a5647a40c77,65af534e3f5fcc7f4ffca766,2024-01-23_07h50.50.927,bars,2023.2.3,Win32,59.88023952,657b66ea316d21385b68909f,,,,,,,,,,,1384.6392,1385.6425,,,1386.1456,1386.3951,,121,121,,,,,,,,,,,,,,,,bars/041.png,bars/mask004.png,,,,,,,,,,,,0,2,,,,,,,8,2,8,3,,,,,,,,,,,1385.6425,1386.1454,1386.3952,1387.8192,space,1.4073,,1387.8192,79,36,1388.8364,1388.8364,1388.8475,,,,0,5,5,5,1,20,85,,,,,,,,
,,610bb066fa8d2a5647a40c77,65af534e3f5fcc7f4ffca766,2024-01-23_07h50.50.927,bars,2023.2.3,Win32,59.88023952,657b66ea316d21385b68909f,,,,,,,,,,,1388.8477,1389.8409,,,1390.3421,1390.5922,,60,60,,,,,,,,,,,,,,,,bars/011.png,bars/mask007.png,,,,,,,,,,,,1,2,,,,,,,6,4,6,4,,,,,,,,,,,1389.8411,1390.3421,1390.5922,1391.5819,space,0.9556,,1391.5819,80,25,1392.5812,1392.5812,1392.5912,,,,0,6,6,6,1,160,85,,,,,,,,
,,610bb066fa8d2a5647a40c77,65af534e3f5fcc7f4ffca766,2024-01-23_07h50.50.927,bars,2023.2.3,Win32,59.88023952,657b66ea316d21385b68909f,,,,,,,,,,,1392.5914,1393.5887,,,1394.0899,1394.3375,,43,223,,,,,,,,,,,,,,,,bars/048.png,bars/mask000.png,,,,,,,,,,,,7,1,,,,,,,8,6,9,6,,,,,,,,,,,1393.5887,1394.0899,1394.3375,1398.4894,space,4.1328,,1398.4895,7,48,1399.4931,1399.4932,1399.511,,,,0,7,7,7,1,50,175,,,,,,,,
,,610bb066fa8d2a5647a40c77,65af534e3f5fcc7f4ffca766,2024-01-23_07h50.50.927,bars,2023.2.3,Win32,59.88023952,657b66ea316d21385b68909f,,,,,,,,,,,1399.5114,1400.5094,,,1400.9978,1401.2455,,43,43,,,,,,,,,,,,,,,,bars/034.png,bars/mask005.png,,,,,,,,,,,,2,2,,,,,,,10,8,10,8,,,,,,,,,,,1400.5094,1400.9978,1401.2456,1403.2365,space,1.9561,,1403.2366,82,22,1404.2392,1404.2393,1404.2416,,,,0,8,8,8,1,125,65,,,,,,,,
,,610bb066fa8d2a5647a40c77,65af534e3f5fcc7f4ffca766,2024-01-23_07h50.50.927,bars,2023.2.3,Win32,59.88023952,657b66ea316d21385b68909f,,,,,,,,,,,1404.2419,1405.2399,,,1405.7458,1405.9968,,76,76,,,,,,,,,,,,,,,,bars/007.png,bars/mask003.png,,,,,,,,,,,,3,2,,,,,,,8,10,6,10,,,,,,,,,,,1405.24,1405.7457,1405.9969,1407.3871,space,1.3735,,1407.3871,81,21,1408.391,1408.391,1408.3918,,,,0,9,9,9,1,175,55,,,,,,,,
,,610bb066fa8d2a5647a40c77,65af534e3f5fcc7f4ffca766,2024-01-23_07h50.50.927,bars,2023.2.3,Win32,59.88023952,657b66ea316d21385b68909f,,,,,,,,,,,1408.392,1409.3905,,,1409.8945,1410.1434,,143,-37,,,,,,,,,,,,,,,,bars/019.png,bars/mask006.png,,,,,,,,,,,,0,2,,,,,,,10,10,10,10,,,,,,,,,,,1409.3907,1409.8945,1410.1434,1413.0742,space,2.8962,,1413.0742,82,38,1414.0703,1414.0703,1414.0861,,,,0,10,10,10,1,45,105,,,,,,,,
,,610bb066fa8d2a5647a40c77,65af534e3f5fcc7f4ffca766,2024-01-23_07h50.50.927,bars,2023.2.3,Win32,59.88023952,657b66ea316d21385b68909f,,,,,,,,,,,1414.0864,1415.0804,,,1415.5806,1415.8329,,24,204,,,,,,,,,,,,,,,,bars/014.png,bars/mask002.png,,,,,,,,,,,,2,2,,,,,,,8,10,9,10,,,,,,,,,,,1415.0804,1415.5805,1415.8329,1419.9645,space,4.0996,,1419.9645,56,24,1420.9681,1420.9681,1420.9836,,,,0,11,11,11,1,80,0,,,,,,,,
,,610bb066fa8d2a5647a40c77,65af534e3f5fcc7f4ffca766,2024-01-23_07h50.50.927,bars,2023.2.3,Win32,59.88023952,657b66ea316d21385b68909f,,,,,,,,,,,1420.9841,1421.986,,,1422.5047,1422.7425,,152,152,,,,,,,,,,,,,,,,bars/046.png,bars/mask008.png,,,,,,,,,,,,7,1,,,,,,,10,8,8,7,,,,,,,,,,,1421.9861,1422.5046,1422.7426,1424.5142,space,1.7422,,1424.5142,3,67,1425.5153,1425.5153,1425.5267,,,,0,12,12,12,1,155,85,,,,,,,,
,,610bb066fa8d2a5647a40c77,65af534e3f5fcc7f4ffca766,2024-01-23_07h50.50.927,bars,2023.2.3,Win32,59.88023952,657b66ea316d21385b68909f,,,,,,,,,,,1425.5269,1426.5205,,,1427.023,1427.2732,,157,-23,,,,,,,,,,,,,,,,bars/044.png,bars/mask000.png,,,,,,,,,,,,6,2,,,,,,,10,6,10,6,,,,,,,,,,,1426.5206,1427.023,1427.2734,1431.4213,space,4.1159,,1431.4213,82,2,1432.4249,1432.425,1432.442,,,,0,13,13,13,1,75,155,,,,,,,,
,,610bb066fa8d2a5647a40c77,65af534e3f5fcc7f4ffca766,2024-01-23_07h50.50.927,bars,2023.2.3,Win32,59.88023952,657b66ea316d21385b68909f,,,,,,,,,,,1432.4423,1433.4414,,,1433.9444,1434.1972,,72,72,,,,,,,,,,,,,,,,bars/009.png,bars/mask008.png,,,,,,,,,,,,0,2,,,,,,,8,4,9,4,,,,,,,,,,,1433.4415,1433.9444,1434.1972,1437.3593,space,3.1449,,1437.3594,57,33,1438.3761,1438.3761,1438.3864,,,,0,14,14,14,1,15,105,,,,,,,,
,,610bb066fa8d2a5647a40c77,65af534e3f5fcc7f4ffca766,2024-01-23_07h50.50.927,bars,2023.2.3,Win32,59.88023952,657b66ea316d21385b68909f,,,,,,,,,,,1438.3866,1439.3812,,,1439.8834,1440.1339,,103,103,,,,,,,,,,,,,,,,bars/001.png,bars/mask008.png,,,,,,,,,,,,1,2,,,,,,,10,2,10,2,,,,,,,,,,,1439.3813,1439.8833,1440.1339,1441.8415,space,1.691,,1441.8415,27,18,1442.8427,1442.8429,1442.8435,,,,0,15,15,15,1,130,85,,,,,,,,
,,610bb066fa8d2a5647a40c77,65af534e3f5fcc7f4ffca766,2024-01-23_07h50.50.927,bars,2023.2.3,Win32,59.88023952,657b66ea316d21385b68909f,,,,,,,,,,,1442.8438,1443.8477,,,1444.3498,1444.6004,,121,121,,,,,,,,,,,,,,,,bars/019.png,bars/mask005.png,,,,,,,,,,,,0,2,,,,,,,8,0,9,1,,,,,,,,,,,1443.8478,1444.3498,1444.6005,1445.6883,space,1.0712,,1445.6884,76,16,1446.6892,1446.6892,1446.69,,,,0,16,16,16,1,45,105,,,,,,,,
,,610bb066fa8d2a5647a40c77,65af534e3f5fcc7f4ffca766,2024-01-23_07h50.50.927,bars,2023.2.3,Win32,59.88023952,657b66ea316d21385b68909f,,,,,,,,,,,1446.6902,1447.6936,,,1448.1965,1448.4309,,19,199,,,,,,,,,,,,,,,,bars/031.png,bars/mask002.png,,,,,,,,,,,,0,2,,,,,,,10,0,10,0,,,,,,,,,,,1447.6938,1448.1965,1448.4309,1451.877,space,3.4144,,1451.8771,79,16,1452.8792,1452.8792,1452.8893,,,,0,17,17,17,1,120,35,,,,,,,,
,,610bb066fa8d2a5647a40c77,65af534e3f5fcc7f4ffca766,2024-01-23_07h50.50.927,bars,2023.2.3,Win32,59.88023952,657b66ea316d21385b68909f,,,,,,,,,,,1452.8895,1453.8783,,,1454.3651,1454.6185,,147,147,,,,,,,,,,,,,,,,bars/048.png,bars/mask007.png,,,,,,,,,,,,0,2,,,,,,,10,2,10,4,,,,,,,,,,,1453.8784,1454.365,1454.6186,1458.3662,space,3.7281,,1458.3662,83,28,1459.3692,1459.3692,1459.3791,,,,0,18,18,18,1,50,175,,,,,,,,
,,610bb066fa8d2a5647a40c77,65af534e3f5fcc7f4ffca766,2024-01-23_07h50.50.927,bars,2023.2.3,Win32,59.88023952,657b66ea316d21385b68909f,,,,,,,,,,,1459.3792,1460.3699,,,1460.8579,1461.1101,,102,102,,,,,,,,,,,,,,,,bars/021.png,bars/mask007.png,,,,,,,,,,,,0,2,,,,,,,8,4,8,4,,,,,,,,,,,1460.37,1460.8579,1461.1101,1461.8616,space,0.7182,,1461.8617,53,32,1462.861,1462.861,1462.8619,,,,0,19,19,19,1,155,70,,,,,,,,
,,610bb066fa8d2a5647a40c77,65af534e3f5fcc7f4ffca766,2024-01-23_07h50.50.927,bars,2023.2.3,Win32,59.88023952,657b66ea316d21385b68909f,,,,,,,,,,,1462.8621,1463.8508,,,1464.3516,1464.5839,,66,66,,,,,,,,,,,,,,,,bars/036.png,bars/mask008.png,,,,,,,,,,,,0,2,,,,,,,10,6,9,5,,,,,,,,,,,1463.8509,1464.3515,1464.584,1466.8795,space,2.2606,,1466.8795,79,46,1467.8815,1467.8816,1467.8916,,,,0,20,20,20,1,145,20,,,,,,,,
,,610bb066fa8d2a5647a40c77,65af534e3f5fcc7f4ffca766,2024-01-23_07h50.50.927,bars,2023.2.3,Win32,59.88023952,657b66ea316d21385b68909f,,,,,,,,,,,1467.8919,1468.8801,,,1469.3859,1469.6369,,132,132,,,,,,,,,,,,,,,,bars/004.png,bars/mask001.png,,,,,,,,,,,,3,2,,,,,,,8,4,9,4,,,,,,,,,,,1468.8802,1469.3859,1469.637,1470.574,space,0.9202,,1470.574,73,7,1471.5787,1471.5787,1471.5943,,,,0,21,21,21,1,25,125,,,,,,,,
,,610bb066fa8d2a5647a40c77,65af534e3f5fcc7f4ffca766,2024-01-23_07h50.50.927,bars,2023.2.3,Win32,59.88023952,657b66ea316d21385b68909f,,,,,,,,,,,1471.5948,1472.5825,,,1473.0828,1473.3331,,23,203,,,,,,,,,,,,,,,,bars/042.png,bars/mask002.png,,,,,,,,,,,,0,2,,,,,,,6,6,8,5,,,,,,,,,,,1472.5825,1473.0827,1473.3331,1477.199,space,3.849,,1477.199,58,52,1478.1998,1478.1999,1478.2099,,,,0,22,22,22,1,145,75,,,,,,,,
,,610bb066fa8d2a5647a40c77,65af534e3f5fcc7f4ffca766,2024-01-23_07h50.50.927,bars,2023.2.3,Win32,59.88023952,657b66ea316d21385b68909f,,,,,,,,,,,1478.2102,1479.2037,,,1479.7048,1479.9578,,42,42,,,,,,,,,,,,,,,,bars/040.png,bars/mask007.png,,,,,,,,,,,,0,2,,,,,,,8,4,8,2,,,,,,,,,,,1479.2037,1479.7048,1479.9578,1481.5808,space,1.6064,,1481.5808,82,37,1482.5839,1482.5839,1482.5847,,,,0,23,23,23,1,140,5,,,,,,,,
,,610bb066fa8d2a5647a40c77,65af534e3f5fcc7f4ffca766,2024-01-23_07h50.50.927,bars,2023.2.3,Win32,59.88023952,657b66ea316d21385b68909f,,,,,,,,,,,1482.585,1483.587,,,1484.0695,1484.32,,46,46,,,,,,,,,,,,,,,,bars/040.png,bars/mask003.png,,,,,,,,,,,,0,2,,,,,,,10,6,10,6,,,,,,,,,,,1483.587,1484.0695,1484.3201,1486.0738,space,1.7189,,1486.0738,86,41,1487.0491,1487.0491,1487.0498,,,,0,24,24,24,1,140,5,,,,,,,,
,,610bb066fa8d2a5647a40c77,65af534e3f5fcc7f4ffca766,2024-01-23_07h50.50.927,bars,2023.2.3,Win32,59.88023952,657b66ea316d21385b68909f,,,,,,,,,,,1487.0501,1488.036,,,1488.5362,1488.7867,,132,132,,,,,,,,,,,,,,,,bars/019.png,bars/mask006.png,,,,,,,,,,,,0,2,,,,,,,8,4,7,4,,,,,,,,,,,1488.036,1488.5361,1488.7867,1489.6708,space,0.8697,,1489.6708,87,27,1490.6628,1490.6628,1490.664,,,,0,25,25,25,1,45,105,,,,,,,,
,,610bb066fa8d2a5647a40c77,65af534e3f5fcc7f4ffca766,2024-01-23_07h50.50.927,bars,2023.2.3,Win32,59.88023952,657b66ea316d21385b68909f,,,,,,,,,,,1490.6643,1491.6634,,,1492.1653,1492.4175,,45,45,,,,,,,,,,,,,,,,bars/003.png,bars/mask003.png,,,,,,,,,,,,3,1,,,,,,,10,6,9,6,,,,,,,,,,,1491.6635,1492.1652,1492.4175,1493.8435,space,1.4096,,1493.8436,20,85,1494.8398,1494.8398,1494.8416,,,,0,26,26,26,1,25,140,,,,,,,,
,,610bb066fa8d2a5647a40c77,65af534e3f5fcc7f4ffca766,2024-01-23_07h50.50.927,bars,2023.2.3,Win32,59.88023952,657b66ea316d21385b68909f,,,,,,,,,,,1494.8418,1495.8296,,,1496.327,1496.5657,,48,48,,,,,,,,,,,,,,,,bars/003.png,bars/mask008.png,,,,,,,,,,,,2,1,,,,,,,8,4,9,4,,,,,,,,,,,1495.8296,1496.3269,1496.5657,1498.0045,space,1.4236,,1498.0045,23,88,1499.0075,1499.0075,1499.0081,,,,0,27,27,27,1,25,140,,,,,,,,
,,610bb066fa8d2a5647a40c77,65af534e3f5fcc7f4ffca766,2024-01-23_07h50.50.927,bars,2023.2.3,Win32,59.88023952,657b66ea316d21385b68909f,,,,,,,,,,,1499.0084,1500.008,,,1500.4974,1500.7273,,21,201,,,,,,,,,,,,,,,,bars/022.png,bars/mask000.png,,,,,,,,,,,,6,2,,,,,,,6,6,6,6,,,,,,,,,,,1500.008,1500.4974,1500.7273,1504.8938,space,4.1317,,1504.8938,74,1,1505.8823,1505.8823,1505.8935,,,,0,28,28,28,1,95,20,,,,,,,,
,,610bb066fa8d2a5647a40c77,65af534e3f5fcc7f4ffca766,2024-01-23_07h50.50.927,bars,2023.2.3,Win32,59.88023952,657b66ea316d21385b68909f,,,,,,,,,,,1505.8936,1506.8839,,,1507.3857,1507.6374,,63,63,,,,,,,,,,,,,,,,bars/028.png,bars/mask003.png,,,,,,,,,,,,1,1,,,,,,,4,4,3,5,,,,,,,,,,,1506.884,1507.3857,1507.6374,1511.2846,space,3.6301,,1511.2847,18,57,1512.2877,1512.2877,1512.298,,,,0,29,29,29,1,45,120,,,,,,,,
,,610bb066fa8d2a5647a40c77,65af534e3f5fcc7f4ffca766,2024-01-23_07h50.50.927,bars,2023.2.3,Win32,59.88023952,657b66ea316d21385b68909f,,,,,,,,,,,1512.2982,1513.2882,,,1513.7764,1514.0257,,169,169,,,,,,,,,,,,,,,,bars/037.png,bars/mask004.png,,,,,,,,,,,,0,1,,,,,,,2,2,1,2,,,,,,,,,,,1513.2883,1513.7763,1514.0258,1514.9648,space,0.9201,,1514.965,19,64,1515.9656,1515.9657,1515.9665,,,,0,30,30,30,1,150,105,,,,,,,,
,,610bb066fa8d2a5647a40c77,65af534e3f5fcc7f4ffca766,2024-01-23_07h50.50.927,bars,2023.2.3,Win32,59.88023952,657b66ea316d21385b68909f,,,,,,,,,,,1515.9667,1516.9701,,,1517.4734,1517.7221,,107,107,,,,,,,,,,,,,,,,bars/033.png,bars/mask001.png,,,,,,,,,,,,0,2,,,,,,,4,4,4,3,,,,,,,,,,,1516.9701,1517.4734,1517.7221,1518.9788,space,1.239,,1518.9788,82,48,1519.9797,1519.9797,1519.982,,,,0,31,31,31,1,25,155,,,,,,,,
,,610bb066fa8d2a5647a40c77,65af534e3f5fcc7f4ffca766,2024-01-23_07h50.50.927,bars,2023.2.3,Win32,59.88023952,657b66ea316d21385b68909f,,,,,,,,,,,1519.9823,1520.9645,,,1521.4529,1521.7044,,166,-14,,,,,,,,,,,,,,,,bars/048.png,bars/mask003.png,,,,,,,,,,,,1,2,,,,,,,2,2,2,1,,,,,,,,,,,1520.9647,1521.4529,1521.7045,1526.202,space,4.4666,,1526.2022,64,9,1527.1898,1527.1899,1527.1994,,,,0,32,32,32,1,50,175,,,,,,,,
,,610bb066fa8d2a5647a40c77,65af534e3f5fcc7f4ffca766,2024-01-23_07h50.50.927,bars,2023.2.3,Win32,59.88023952,657b66ea316d21385b68909f,,,,,,,,,,,1527.1996,1528.1904,,,1528.6912,1528.9447,,69,69,,,,,,,,,,,,,,,,bars/013.png,bars/mask009.png,,,,,,,,,,,,3,1,,,,,,,4,4,4,4,,,,,,,,,,,1528.1904,1528.6912,1528.9449,1531.004,space,2.042,,1531.0042,6,59,1532.0072,1532.0072,1532.0089,,,,0,33,33,33,1,75,10,,,,,,,,
,,610bb066fa8d2a5647a40c77,65af534e3f5fcc7f4ffca766,2024-01-23_07h50.50.927,bars,2023.2.3,Win32,59.88023952,657b66ea316d21385b68909f,,,,,,,,,,,1532.0091,1533.0102,,,1533.5101,1533.7632,,111,111,,,,,,,,,,,,,,,,bars/038.png,bars/mask002.png,,,,,,,,,,,,0,2,,,,,,,6,6,5,4,,,,,,,,,,,1533.0103,1533.5101,1533.7632,1536.7066,space,2.9117,,1536.7066,54,41,1537.7085,1537.7085,1537.7194,,,,0,34,34,34,1,165,70,,,,,,,,
,,610bb066fa8d2a5647a40c77,65af534e3f5fcc7f4ffca766,2024-01-23_07h50.50.927,bars,2023.2.3,Win32,59.88023952,657b66ea316d21385b68909f,,,,,,,,,,,1537.7196,1538.7062,,,1539.197,1539.4311,,54,54,,,,,,,,,,,,,,,,bars/047.png,bars/mask001.png,,,,,,,,,,,,1,2,,,,,,,4,4,5,3,,,,,,,,,,,1538.7063,1539.1969,1539.4311,1540.6014,space,1.1525,,1540.6015,39,16,1541.5901,1541.5902,1541.5909,,,,0,35,35,35,1,15,70,,,,,,,,
,,610bb066fa8d2a5647a40c77,65af534e3f5fcc7f4ffca766,2024-01-23_07h50.50.927,bars,2023.2.3,Win32,59.88023952,657b66ea316d21385b68909f,,,,,,,,,,,1541.5915,1542.5929,,,1543.0962,1543.3418,,169,-11,,,,,,,,,,,,,,,,bars/024.png,bars/mask001.png,,,,,,,,,,,,2,2,,,,,,,2,2,3,2,,,,,,,,,,,1542.593,1543.0961,1543.3418,1545.3362,space,1.9717,,1545.3363,49,1,1546.3547,1546.3547,1546.3552,,,,0,36,36,36,1,120,170,,,,,,,,
,,610bb066fa8d2a5647a40c77,65af534e3f5fcc7f4ffca766,2024-01-23_07h50.50.927,bars,2023.2.3,Win32,59.88023952,657b66ea316d21385b68909f,,,,,,,,,,,1546.3554,1547.3448,,,1547.8439,1548.0949,,134,134,,,,,,,,,,,,,,,,bars/005.png,bars/mask005.png,,,,,,,,,,,,0,2,,,,,,,0,0,0,0,,,,,,,,,,,1547.3449,1547.8439,1548.095,1549.2343,space,1.1225,,1549.2343,56,6,1550.2374,1550.2374,1550.2382,,,,0,37,37,37,1,10,140,,,,,,,,
,,610bb066fa8d2a5647a40c77,65af534e3f5fcc7f4ffca766,2024-01-23_07h50.50.927,bars,2023.2.3,Win32,59.88023952,657b66ea316d21385b68909f,,,,,,,,,,,1550.2384,1551.2375,,,1551.7572,1552.0086,,148,148,,,,,,,,,,,,,,,,bars/015.png,bars/mask003.png,,,,,,,,,,,,1,2,,,,,,,2,2,2,2,,,,,,,,,,,1551.2375,1551.7572,1552.0086,1552.6794,space,0.6504,,1552.6794,38,12,1553.6836,1553.6836,1553.6843,,,,0,38,38,38,1,110,160,,,,,,,,
,,610bb066fa8d2a5647a40c77,65af534e3f5fcc7f4ffca766,2024-01-23_07h50.50.927,bars,2023.2.3,Win32,59.88023952,657b66ea316d21385b68909f,,,,,,,,,,,1553.6846,1554.6828,,,1555.1865,1555.4382,,57,57,,,,,,,,,,,,,,,,bars/013.png,bars/mask001.png,,,,,,,,,,,,2,1,,,,,,,4,4,6,5,,,,,,,,,,,1554.6829,1555.1865,1555.4383,1559.1697,space,3.7143,,1559.1697,18,47,1560.1689,1560.169,1560.18,,,,0,39,39,39,1,75,10,,,,,,,,
,,610bb066fa8d2a5647a40c77,65af534e3f5fcc7f4ffca766,2024-01-23_07h50.50.927,bars,2023.2.3,Win32,59.88023952,657b66ea316d21385b68909f,,,,,,,,,,,1560.1802,1561.1557,,,1561.6578,1561.8951,,142,142,,,,,,,,,,,,,,,,bars/014.png,bars/mask000.png,,,,,,,,,,,,0,2,,,,,,,2,2,2,2,,,,,,,,,,,1561.1557,1561.6577,1561.8951,1562.5783,space,0.6665,,1562.5783,62,38,1563.5661,1563.5662,1563.5683,,,,0,40,40,40,1,80,0,,,,,,,,
,,610bb066fa8d2a5647a40c77,65af534e3f5fcc7f4ffca766,2024-01-23_07h50.50.927,bars,2023.2.3,Win32,59.88023952,657b66ea316d21385b68909f,,,,,,,,,,,1563.5686,1564.5693,,,1565.0712,1565.3243,,57,57,,,,,,,,,,,,,,,,bars/030.png,bars/mask005.png,,,,,,,,,,,,1,2,,,,,,,4,4,2,2,,,,,,,,,,,1564.5693,1565.0712,1565.3243,1567.4987,space,2.1434,,1567.4987,83,8,1568.5003,1568.5004,1568.5014,,,,0,41,41,41,1,140,65,,,,,,,,
,,610bb066fa8d2a5647a40c77,65af534e3f5fcc7f4ffca766,2024-01-23_07h50.50.927,bars,2023.2.3,Win32,59.88023952,657b66ea316d21385b68909f,,,,,,,,,,,1568.5016,1569.5048,,,1570.0052,1570.2724,,38,218,,,,,,,,,,,,,,,,bars/013.png,bars/mask000.png,,,,,,,,,,,,0,2,,,,,,,2,6,1,7,,,,,,,,,,,1569.5048,1570.0052,1570.2724,1573.4024,space,3.1118,,1573.4024,37,28,1574.4203,1574.4203,1574.4306,,,,0,42,42,42,1,75,10,,,,,,,,
,,610bb066fa8d2a5647a40c77,65af534e3f5fcc7f4ffca766,2024-01-23_07h50.50.927,bars,2023.2.3,Win32,59.88023952,657b66ea316d21385b68909f,,,,,,,,,,,1574.4308,1575.4201,,,1575.9267,1576.1649,,105,105,,,,,,,,,,,,,,,,bars/037.png,bars/mask008.png,,,,,,,,,,,,8,2,,,,,,,0,8,0,8,,,,,,,,,,,1575.4201,1575.9266,1576.1649,1578.7363,space,2.5582,,1578.7363,45,0,1579.7242,1579.7243,1579.7343,,,,0,43,43,43,1,150,105,,,,,,,,
,,610bb066fa8d2a5647a40c77,65af534e3f5fcc7f4ffca766,2024-01-23_07h50.50.927,bars,2023.2.3,Win32,59.88023952,657b66ea316d21385b68909f,,,,,,,,,,,1579.7346,1580.7243,,,1581.2273,1581.4806,,11,191,,,,,,,,,,,,,,,,bars/032.png,bars/mask000.png,,,,,,,,,,,,4,2,,,,,,,0,6,1,5,,,,,,,,,,,1580.7244,1581.2273,1581.4806,1585.863,space,4.3512,,1585.863,66,9,1586.8669,1586.8669,1586.8763,,,,0,44,44,44,1,125,20,,,,,,,,
,,610bb066fa8d2a5647a40c77,65af534e3f5fcc7f4ffca766,2024-01-23_07h50.50.927,bars,2023.2.3,Win32,59.88023952,657b66ea316d21385b68909f,,,,,,,,,,,1586.8764,1587.8692,,,1588.3712,1588.6212,,38,38,,,,,,,,,,,,,,,,bars/035.png,bars/mask003.png,,,,,,,,,,,,1,2,,,,,,,2,4,1,5,,,,,,,,,,,1587.8692,1588.3712,1588.6212,1589.8078,space,1.1699,,1589.8078,43,22,1590.8115,1590.8116,1590.8122,,,,0,45,45,45,1,175,60,,,,,,,,
,,610bb066fa8d2a5647a40c77,65af534e3f5fcc7f4ffca766,2024-01-23_07h50.50.927,bars,2023.2.3,Win32,59.88023952,657b66ea316d21385b68909f,,,,,,,,,,,1590.8124,1591.8146,,,1592.3171,1592.569,,63,63,,,,,,,,,,,,,,,,bars/035.png,bars/mask008.png,,,,,,,,,,,,3,2,,,,,,,4,2,3,3,,,,,,,,,,,1591.8146,1592.3171,1592.569,1595.179,space,2.5772,,1595.179,68,3,1596.1823,1596.1823,1596.192,,,,0,46,46,46,1,175,60,,,,,,,,
,,610bb066fa8d2a5647a40c77,65af534e3f5fcc7f4ffca766,2024-01-23_07h50.50.927,bars,2023.2.3,Win32,59.88023952,657b66ea316d21385b68909f,,,,,,,,,,,1596.1922,1597.1846,,,1597.6819,1597.9316,,112,112,,,,,,,,,,,,,,,,bars/028.png,bars/mask006.png,,,,,,,,,,,,3,2,,,,,,,6,4,7,4,,,,,,,,,,,1597.1846,1597.6818,1597.9316,1598.7389,space,0.786,,1598.7389,67,8,1599.7276,1599.7276,1599.7284,,,,0,47,47,47,1,45,120,,,,,,,,
,,610bb066fa8d2a5647a40c77,65af534e3f5fcc7f4ffca766,2024-01-23_07h50.50.927,bars,2023.2.3,Win32,59.88023952,657b66ea316d21385b68909f,,,,,,,,,,,1599.7286,1600.7283,,,1601.2189,1601.4654,,147,147,,,,,,,,,,,,,,,,bars/029.png,bars/mask009.png,,,,,,,,,,,,0,1,,,,,,,4,2,4,2,,,,,,,,,,,1600.7285,1601.2189,1601.4654,1602.4552,space,0.9727,,1602.4554,57,78,1603.4415,1603.4415,1603.4433,,,,0,48,48,48,1,90,45,,,,,,,,
,,610bb066fa8d2a5647a40c77,65af534e3f5fcc7f4ffca766,2024-01-23_07h50.50.927,bars,2023.2.3,Win32,59.88023952,657b66ea316d21385b68909f,,,,,,,,,,,1603.4434,1604.4443,,,1604.9409,1605.1806,,119,119,,,,,,,,,,,,,,,,bars/015.png,bars/mask008.png,,,,,,,,,,,,4,1,,,,,,,6,4,6,5,,,,,,,,,,,1604.4443,1604.9408,1605.1806,1608.4586,space,3.2469,,1608.4586,9,41,1609.4615,1609.4615,1609.4715,,,,0,49,49,49,1,110,160,,,,,,,,
,,610bb066fa8d2a5647a40c77,65af534e3f5fcc7f4ffca766,2024-01-23_07h50.50.927,bars,2023.2.3,Win32,59.88023952,657b66ea316d21385b68909f,,,,,,,,,,,,,,,,,,,,,,,,,,,,,,,,,,,,,,,,,,,,,,,,,,,,,,,,,,,,,,,,,,,,,,,,,,,,,,,,,,,,,,,,,,,,,1609.4718,1669.456,0,3,3,4,1,sequence_tables/blk048.csv
,,610bb066fa8d2a5647a40c77,65af534e3f5fcc7f4ffca766,2024-01-23_07h50.50.927,bars,2023.2.3,Win32,59.88023952,657b66ea316d21385b68909f,,,,,,,,,,,1687.315,1688.3048,,,1688.8018,1689.0554,,121,121,,,,,,,,,,,,,,,,bars/018.png,bars/mask003.png,,,,,,,,,,,,0,1,,,,,,,8,3,7,2,,,,,,1669.4725,1687.3023,space,17.8162,,1688.3048,1688.8017,1689.0554,1692.7208,space,3.6477,,1692.7209,29,31,1693.7205,1693.7205,1693.7304,,,,0,0,0,0,1,150,90,,,,,,,,
,,610bb066fa8d2a5647a40c77,65af534e3f5fcc7f4ffca766,2024-01-23_07h50.50.927,bars,2023.2.3,Win32,59.88023952,657b66ea316d21385b68909f,,,,,,,,,,,1693.7307,1694.7272,,,1695.2279,1695.4807,,141,141,,,,,,,,,,,,,,,,bars/006.png,bars/mask001.png,,,,,,,,,,,,0,2,,,,,,,6,5,6,4,,,,,,,,,,,1694.7272,1695.2278,1695.4808,1695.9825,space,0.4715,,1695.9826,74,41,1697,1697.0001,1697.0022,,,,0,1,1,1,1,35,100,,,,,,,,
,,610bb066fa8d2a5647a40c77,65af534e3f5fcc7f4ffca766,2024-01-23_07h50.50.927,bars,2023.2.3,Win32,59.88023952,657b66ea316d21385b68909f,,,,,,,,,,,1697.0026,1697.9854,,,1698.4887,1698.7562,,147,147,,,,,,,,,,,,,,,,bars/010.png,bars/mask007.png,,,,,,,,,,,,3,1,,,,,,,8,3,8,3,,,,,,,,,,,1697.9854,1698.4887,1698.7563,1700.5311,space,1.7568,,1700.5311,18,88,1701.5327,1701.5327,1701.5436,,,,0,2,2,2,1,165,55,,,,,,,,
,,610bb066fa8d2a5647a40c77,65af534e3f5fcc7f4ffca766,2024-01-23_07h50.50.927,bars,2023.2.3,Win32,59.88023952,657b66ea316d21385b68909f,,,,,,,,,,,1701.5437,1702.5485,,,1703.0365,1703.2721,,118,118,,,,,,,,,,,,,,,,bars/004.png,bars/mask009.png,,,,,,,,,,,,4,2,,,,,,,6,5,5,5,,,,,,,,,,,1702.5485,1703.0365,1703.2721,1706.7537,space,3.4639,,1706.7537,87,7,1707.7555,1707.7556,1707.7722,,,,0,3,3,3,1,25,125,,,,,,,,
,,610bb066fa8d2a5647a40c77,65af534e3f5fcc7f4ffca766,2024-01-23_07h50.50.927,bars,2023.2.3,Win32,59.88023952,657b66ea316d21385b68909f,,,,,,,,,,,1707.7724,1708.7601,,,1709.2481,1709.494,,24,24,,,,,,,,,,,,,,,,bars/031.png,bars/mask006.png,,,,,,,,,,,,2,2,,,,,,,8,3,9,3,,,,,,,,,,,1708.7602,1709.2481,1709.494,1710.4338,space,0.9207,,1710.4338,84,11,1711.4339,1711.434,1711.4347,,,,0,4,4,4,1,120,35,,,,,,,,
,,610bb066fa8d2a5647a40c77,65af534e3f5fcc7f4ffca766,2024-01-23_07h50.50.927,bars,2023.2.3,Win32,59.88023952,657b66ea316d21385b68909f,,,,,,,,,,,1711.435,1712.4374,,,1712.956,1713.1869,,122,122,,,,,,,,,,,,,,,,bars/003.png,bars/mask003.png,,,,,,,,,,,,1,2,,,,,,,6,1,6,2,,,,,,,,,,,1712.4374,1712.956,1713.187,1717.4237,space,4.216,,1717.4237,83,18,1718.4263,1718.4263,1718.437,,,,0,5,5,5,1,25,140,,,,,,,,
,,610bb066fa8d2a5647a40c77,65af534e3f5fcc7f4ffca766,2024-01-23_07h50.50.927,bars,2023.2.3,Win32,59.88023952,657b66ea316d21385b68909f,,,,,,,,,,,1718.4371,1719.4296,,,1719.9158,1720.1614,,172,172,,,,,,,,,,,,,,,,bars/044.png,bars/mask000.png,,,,,,,,,,,,1,2,,,,,,,4,3,3,3,,,,,,,,,,,1719.4297,1719.9157,1720.1614,1721.2694,space,1.0878,,1721.2694,83,17,1722.2578,1722.2579,1722.259,,,,0,6,6,6,1,75,155,,,,,,,,
,,610bb066fa8d2a5647a40c77,65af534e3f5fcc7f4ffca766,2024-01-23_07h50.50.927,bars,2023.2.3,Win32,59.88023952,657b66ea316d21385b68909f,,,,,,,,,,,1722.2593,1723.2581,,,1723.7605,1724.0231,,19,199,,,,,,,,,,,,,,,,bars/027.png,bars/mask008.png,,,,,,,,,,,,0,2,,,,,,,6,1,7,1,,,,,,,,,,,1723.2582,1723.7604,1724.0231,1726.9734,space,2.9287,,1726.9734,89,31,1727.9926,1727.9926,1728.0083,,,,0,7,7,7,1,110,50,,,,,,,,
,,610bb066fa8d2a5647a40c77,65af534e3f5fcc7f4ffca766,2024-01-23_07h50.50.927,bars,2023.2.3,Win32,59.88023952,657b66ea316d21385b68909f,,,,,,,,,,,1728.0085,1728.9963,,,1729.4994,1729.75,,48,48,,,,,,,,,,,,,,,,bars/032.png,bars/mask003.png,,,,,,,,,,,,0,2,,,,,,,8,3,9,4,,,,,,,,,,,1728.9964,1729.4993,1729.75,1732.7933,space,3.0263,,1732.7933,77,28,1733.7973,1733.7974,1733.8135,,,,0,8,8,8,1,125,20,,,,,,,,
,,610bb066fa8d2a5647a40c77,65af534e3f5fcc7f4ffca766,2024-01-23_07h50.50.927,bars,2023.2.3,Win32,59.88023952,657b66ea316d21385b68909f,,,,,,,,,,,1733.8138,1734.8333,,,1735.32,1735.5708,,111,111,,,,,,,,,,,,,,,,bars/009.png,bars/mask005.png,,,,,,,,,,,,1,2,,,,,,,10,1,8,1,,,,,,,,,,,1734.8333,1735.3199,1735.5708,1738.6137,space,3.0262,,1738.6137,84,6,1739.6174,1739.6174,1739.6283,,,,0,9,9,9,1,15,105,,,,,,,,
,,610bb066fa8d2a5647a40c77,65af534e3f5fcc7f4ffca766,2024-01-23_07h50.50.927,bars,2023.2.3,Win32,59.88023952,657b66ea316d21385b68909f,,,,,,,,,,,1739.6284,1740.6211,,,1741.1182,1741.3565,,141,141,,,,,,,,,,,,,,,,bars/044.png,bars/mask007.png,,,,,,,,,,,,1,2,,,,,,,8,3,7,1,,,,,,,,,,,1740.6211,1741.1182,1741.3566,1743.8999,space,2.5263,,1743.9,66,14,1744.9184,1744.9185,1744.9345,,,,0,10,10,10,1,75,155,,,,,,,,
,,610bb066fa8d2a5647a40c77,65af534e3f5fcc7f4ffca766,2024-01-23_07h50.50.927,bars,2023.2.3,Win32,59.88023952,657b66ea316d21385b68909f,,,,,,,,,,,1744.9347,1745.9238,,,1746.409,1746.6596,,115,115,,,,,,,,,,,,,,,,bars/041.png,bars/mask000.png,,,,,,,,,,,,0,2,,,,,,,10,1,8,2,,,,,,,,,,,1745.9238,1746.409,1746.6596,1749.7548,space,3.0632,,1749.7549,85,30,1750.7557,1750.7558,1750.7713,,,,0,11,11,11,1,20,85,,,,,,,,
,,610bb066fa8d2a5647a40c77,65af534e3f5fcc7f4ffca766,2024-01-23_07h50.50.927,bars,2023.2.3,Win32,59.88023952,657b66ea316d21385b68909f,,,,,,,,,,,1750.7716,1751.7605,,,1752.2769,1752.51,,124,124,,,,,,,,,,,,,,,,bars/015.png,bars/mask002.png,,,,,,,,,,,,5,1,,,,,,,10,0,10,0,,,,,,,,,,,1751.7606,1752.2769,1752.51,1753.0488,space,0.5045,,1753.0488,14,36,1754.0336,1754.0336,1754.0358,,,,0,12,12,12,1,110,160,,,,,,,,
