init_variables.started,init_variables.stopped,participant,session,date,expName,psychopyVersion,OS,frameRate,study_id,instruction_exp.started,instruction_exp.stopped,key_resp_8.keys,key_resp_8.rt,key_resp_8.duration,instruction_single.started,instruction_single.stopped,key_resp_2.keys,key_resp_2.rt,key_resp_2.duration,interval.started,interval.stopped,cue_single.started,cue_single.stopped,mask.started,mask.stopped,ori_response_single.started,res_ori,res,ori_response_single.stopped,key_resp_single.keys,key_resp_single.rt,key_resp_single.duration,disp_single.started,disp_single.stopped,key_resp.keys,key_resp.rt,key_resp.duration,single.thisRepN,single.thisTrialN,single.thisN,single.thisIndex,single.ran,ori,path,mask_path,instruction_bandit.started,instruction_bandit.stopped,key_resp_6.keys,key_resp_6.rt,key_resp_6.duration,cue_bandit.started,cue_bandit.stopped,bandit_res.keys,bandit_res.rt,bandit_res.duration,outcome_bandit.started,rew,action,outcome_bandit.stopped,bandit.thisRepN,bandit.thisTrialN,bandit.thisN,bandit.thisIndex,bandit.ran,actual_rew1,actual_rew2,rew1,rew2,instruction_task.started,instruction_task.stopped,key_resp_7.keys,key_resp_7.rt,key_resp_7.duration,wait_ready.started,wait_ready.stopped,key_resp_3.keys,key_resp_3.rt,key_resp_3.duration,cue.started,cue.stopped,ori_response.started,ori_response.stopped,key_resp_5.keys,key_resp_5.rt,key_resp_5.duration,outcome.started,diff1,diff2,outcome.stopped,disp_outcome_practice.started,disp_outcome_practice.stopped,key_resp_4.keys,key_resp_4.rt,key_resp_4.duration,trials.thisRepN,trials.thisTrialN,trials.thisN,trials.thisIndex,trials.ran,ori1,ori2,break_blk.started,break_blk.stopped,block.thisRepN,block.thisTrialN,block.thisN,block.thisIndex,block.ran,condition_file
0.0002,0.0003,656696c9ea15de5f69b6ddfa,65af53973f5fcc7f4ffca76f,2024-01-23_24h00.47.517,bars,2023.2.3,Win32,59.88023952,657b66ea316d21385b68909f,,,,,,,,,,,,,,,,,,,,,,,,,,,,,,,,,,,,,,,,,,,,,,,,,,,,,,,,,,,,,,,,,,,,,,,,,,,,,,,,,,,,,,,,,,,,,,,,,,,,
,,656696c9ea15de5f69b6ddfa,65af53973f5fcc7f4ffca76f,2024-01-23_24h00.47.517,bars,2023.2.3,Win32,59.88023952,657b66ea316d21385b68909f,0.0004,184.5458,y,184.5273,,,,,,,,,,,,,,,,,,,,,,,,,,,,,,,,,,,,,,,,,,,,,,,,,,,,,,,,,,,,,,,,,,,,,,,,,,,,,,,,,,,,,,,,,,,,,,,,
,,656696c9ea15de5f69b6ddfa,65af53973f5fcc7f4ffca76f,2024-01-23_24h00.47.517,bars,2023.2.3,Win32,59.88023952,657b66ea316d21385b68909f,,,,,,184.5461,206.0269,space,21.4597,,,,,,,,,,,,,,,,,,,,,,,,,,,,,,,,,,,,,,,,,,,,,,,,,,,,,,,,,,,,,,,,,,,,,,,,,,,,,,,,,,,,,,,,,,,
,,656696c9ea15de5f69b6ddfa,65af53973f5fcc7f4ffca76f,2024-01-23_24h00.47.517,bars,2023.2.3,Win32,59.88023952,657b66ea316d21385b68909f,,,,,,,,,,,206.0464,207.0411,207.0414,207.5406,207.5411,207.7879,207.7882,141,141,225.5357,space,17.7087,,225.5363,231.4961,space,5.9159,,0,0,0,9,1,20,bars/single009.png,bars/mask006.png,,,,,,,,,,,,,,,,,,,,,,,,,,,,,,,,,,,,,,,,,,,,,,,,,,,,,,,,,,,,,,,,
,,656696c9ea15de5f69b6ddfa,65af53973f5fcc7f4ffca76f,2024-01-23_24h00.47.517,bars,2023.2.3,Win32,59.88023952,657b66ea316d21385b68909f,,,,,,,,,,,231.516,232.5002,232.5007,233.0003,233.0005,233.2503,233.2503,172,172,241.41,space,8.143,,241.4102,246.7386,space,5.296,,0,1,1,1,1,20,bars/single001.png,bars/mask006.png,,,,,,,,,,,,,,,,,,,,,,,,,,,,,,,,,,,,,,,,,,,,,,,,,,,,,,,,,,,,,,,,
,,656696c9ea15de5f69b6ddfa,65af53973f5fcc7f4ffca76f,2024-01-23_24h00.47.517,bars,2023.2.3,Win32,59.88023952,657b66ea316d21385b68909f,,,,,,,,,,,246.76,247.7469,247.747,248.2466,248.2467,248.4966,248.4966,172,172,255.341,space,6.828,,255.3412,260.3689,space,4.9892,,0,2,2,6,1,175,bars/single006.png,bars/mask005.png,,,,,,,,,,,,,,,,,,,,,,,,,,,,,,,,,,,,,,,,,,,,,,,,,,,,,,,,,,,,,,,,
,,656696c9ea15de5f69b6ddfa,65af53973f5fcc7f4ffca76f,2024-01-23_24h00.47.517,bars,2023.2.3,Win32,59.88023952,657b66ea316d21385b68909f,,,,,,,,,,,260.3905,261.3738,261.3739,261.8729,261.873,262.1225,262.1225,156,-24,269.0224,space,6.8828,,269.0225,271.6934,space,2.6344,,0,3,3,2,1,145,bars/single002.png,bars/mask003.png,,,,,,,,,,,,,,,,,,,,,,,,,,,,,,,,,,,,,,,,,,,,,,,,,,,,,,,,,,,,,,,,
,,656696c9ea15de5f69b6ddfa,65af53973f5fcc7f4ffca76f,2024-01-23_24h00.47.517,bars,2023.2.3,Win32,59.88023952,657b66ea316d21385b68909f,,,,,,,,,,,271.7157,272.6968,272.6969,273.1964,273.1964,273.441,273.4411,93,93,281.3564,space,7.8933,,281.3565,286.003,space,4.6092,,0,4,4,4,1,95,bars/single004.png,bars/mask004.png,,,,,,,,,,,,,,,,,,,,,,,,,,,,,,,,,,,,,,,,,,,,,,,,,,,,,,,,,,,,,,,,
,,656696c9ea15de5f69b6ddfa,65af53973f5fcc7f4ffca76f,2024-01-23_24h00.47.517,bars,2023.2.3,Win32,59.88023952,657b66ea316d21385b68909f,,,,,,,,,,,286.0283,287.0093,287.0094,287.5096,287.5097,287.7597,287.76,15,195,294.1382,space,6.3615,,294.1384,298.0184,space,3.8429,,0,5,5,3,1,20,bars/single003.png,bars/mask005.png,,,,,,,,,,,,,,,,,,,,,,,,,,,,,,,,,,,,,,,,,,,,,,,,,,,,,,,,,,,,,,,,
,,656696c9ea15de5f69b6ddfa,65af53973f5fcc7f4ffca76f,2024-01-23_24h00.47.517,bars,2023.2.3,Win32,59.88023952,657b66ea316d21385b68909f,,,,,,,,,,,298.0387,299.0222,299.0223,299.5227,299.5229,299.7714,299.7714,128,128,336.1489,space,36.3527,,336.1493,343.009,space,6.823,,0,6,6,8,1,160,bars/single008.png,bars/mask004.png,,,,,,,,,,,,,,,,,,,,,,,,,,,,,,,,,,,,,,,,,,,,,,,,,,,,,,,,,,,,,,,,
,,656696c9ea15de5f69b6ddfa,65af53973f5fcc7f4ffca76f,2024-01-23_24h00.47.517,bars,2023.2.3,Win32,59.88023952,657b66ea316d21385b68909f,,,,,,,,,,,343.0293,344.0304,344.0306,344.5131,344.5131,344.7577,344.7578,22,22,351.0573,space,6.2784,,351.0573,353.3494,space,2.2533,,0,7,7,7,1,45,bars/single007.png,bars/mask009.png,,,,,,,,,,,,,,,,,,,,,,,,,,,,,,,,,,,,,,,,,,,,,,,,,,,,,,,,,,,,,,,,
,,656696c9ea15de5f69b6ddfa,65af53973f5fcc7f4ffca76f,2024-01-23_24h00.47.517,bars,2023.2.3,Win32,59.88023952,657b66ea316d21385b68909f,,,,,,,,,,,353.3503,354.3482,354.3482,354.8465,354.8466,355.0969,355.097,43,43,360.2096,space,5.0967,,360.2096,362.191,space,1.9436,,0,8,8,5,1,55,bars/single005.png,bars/mask008.png,,,,,,,,,,,,,,,,,,,,,,,,,,,,,,,,,,,,,,,,,,,,,,,,,,,,,,,,,,,,,,,,
,,656696c9ea15de5f69b6ddfa,65af53973f5fcc7f4ffca76f,2024-01-23_24h00.47.517,bars,2023.2.3,Win32,59.88023952,657b66ea316d21385b68909f,,,,,,,,,,,362.1917,363.1896,363.1896,363.6889,363.689,363.9387,363.9388,134,-46,378.9932,space,15.0446,,378.9932,380.8895,space,1.8581,,0,9,9,0,1,150,bars/single000.png,bars/mask006.png,,,,,,,,,,,,,,,,,,,,,,,,,,,,,,,,,,,,,,,,,,,,,,,,,,,,,,,,,,,,,,,,
,,656696c9ea15de5f69b6ddfa,65af53973f5fcc7f4ffca76f,2024-01-23_24h00.47.517,bars,2023.2.3,Win32,59.88023952,657b66ea316d21385b68909f,,,,,,,,,,,,,,,,,,,,,,,,,,,,,,,,,,,,,380.891,390.7986,space,9.8846,,,,,,,,,,,,,,,,,,,,,,,,,,,,,,,,,,,,,,,,,,,,,,,,,,,,,,,,,,,,
,,656696c9ea15de5f69b6ddfa,65af53973f5fcc7f4ffca76f,2024-01-23_24h00.47.517,bars,2023.2.3,Win32,59.88023952,657b66ea316d21385b68909f,,,,,,,,,,,,,,,,,,,,,,,,,,,,,,,,,,,,,,,,,,390.8221,394.6452,left,3.7996,,394.6457,9,1,395.6437,0,0,0,0,1,9,1,9,2,,,,,,,,,,,,,,,,,,,,,,,,,,,,,,,,,,,,,,,,,
,,656696c9ea15de5f69b6ddfa,65af53973f5fcc7f4ffca76f,2024-01-23_24h00.47.517,bars,2023.2.3,Win32,59.88023952,657b66ea316d21385b68909f,,,,,,,,,,,,,,,,,,,,,,,,,,,,,,,,,,,,,,,,,,395.6448,399.9958,left,4.3306,,399.9959,10,1,400.989,0,1,1,1,1,10,0,10,1,,,,,,,,,,,,,,,,,,,,,,,,,,,,,,,,,,,,,,,,,
,,656696c9ea15de5f69b6ddfa,65af53973f5fcc7f4ffca76f,2024-01-23_24h00.47.517,bars,2023.2.3,Win32,59.88023952,657b66ea316d21385b68909f,,,,,,,,,,,,,,,,,,,,,,,,,,,,,,,,,,,,,,,,,,401.0099,402.6759,right,1.6593,,402.676,2,2,403.6697,0,2,2,2,1,10,2,10,2,,,,,,,,,,,,,,,,,,,,,,,,,,,,,,,,,,,,,,,,,
,,656696c9ea15de5f69b6ddfa,65af53973f5fcc7f4ffca76f,2024-01-23_24h00.47.517,bars,2023.2.3,Win32,59.88023952,657b66ea316d21385b68909f,,,,,,,,,,,,,,,,,,,,,,,,,,,,,,,,,,,,,,,,,,403.6705,406.2394,right,2.5485,,406.2395,3,2,407.237,0,3,3,3,1,8,4,7,3,,,,,,,,,,,,,,,,,,,,,,,,,,,,,,,,,,,,,,,,,
,,656696c9ea15de5f69b6ddfa,65af53973f5fcc7f4ffca76f,2024-01-23_24h00.47.517,bars,2023.2.3,Win32,59.88023952,657b66ea316d21385b68909f,,,,,,,,,,,,,,,,,,,,,,,,,,,,,,,,,,,,,,,,,,407.2588,410.4298,right,3.1567,,410.4298,1,2,411.4281,0,4,4,4,1,6,2,5,1,,,,,,,,,,,,,,,,,,,,,,,,,,,,,,,,,,,,,,,,,
,,656696c9ea15de5f69b6ddfa,65af53973f5fcc7f4ffca76f,2024-01-23_24h00.47.517,bars,2023.2.3,Win32,59.88023952,657b66ea316d21385b68909f,,,,,,,,,,,,,,,,,,,,,,,,,,,,,,,,,,,,,,,,,,411.4487,412.8992,left,1.4431,,412.8996,4,1,413.894,0,5,5,5,1,4,4,4,4,,,,,,,,,,,,,,,,,,,,,,,,,,,,,,,,,,,,,,,,,
,,656696c9ea15de5f69b6ddfa,65af53973f5fcc7f4ffca76f,2024-01-23_24h00.47.517,bars,2023.2.3,Win32,59.88023952,657b66ea316d21385b68909f,,,,,,,,,,,,,,,,,,,,,,,,,,,,,,,,,,,,,,,,,,413.8947,415.6149,left,1.6997,,415.615,1,1,416.6074,0,6,6,6,1,2,2,1,2,,,,,,,,,,,,,,,,,,,,,,,,,,,,,,,,,,,,,,,,,
,,656696c9ea15de5f69b6ddfa,65af53973f5fcc7f4ffca76f,2024-01-23_24h00.47.517,bars,2023.2.3,Win32,59.88023952,657b66ea316d21385b68909f,,,,,,,,,,,,,,,,,,,,,,,,,,,,,,,,,,,,,,,,,,416.6081,417.626,right,0.9979,,417.6261,1,2,418.6264,0,7,7,7,1,0,0,0,1,,,,,,,,,,,,,,,,,,,,,,,,,,,,,,,,,,,,,,,,,
,,656696c9ea15de5f69b6ddfa,65af53973f5fcc7f4ffca76f,2024-01-23_24h00.47.517,bars,2023.2.3,Win32,59.88023952,657b66ea316d21385b68909f,,,,,,,,,,,,,,,,,,,,,,,,,,,,,,,,,,,,,,,,,,418.6275,419.7769,right,1.1332,,419.7771,0,2,420.7707,0,8,8,8,1,0,2,1,0,,,,,,,,,,,,,,,,,,,,,,,,,,,,,,,,,,,,,,,,,
,,656696c9ea15de5f69b6ddfa,65af53973f5fcc7f4ffca76f,2024-01-23_24h00.47.517,bars,2023.2.3,Win32,59.88023952,657b66ea316d21385b68909f,,,,,,,,,,,,,,,,,,,,,,,,,,,,,,,,,,,,,,,,,,420.7717,421.7419,left,0.9498,,421.7419,2,1,422.7401,0,9,9,9,1,2,4,2,3,,,,,,,,,,,,,,,,,,,,,,,,,,,,,,,,,,,,,,,,,
,,656696c9ea15de5f69b6ddfa,65af53973f5fcc7f4ffca76f,2024-01-23_24h00.47.517,bars,2023.2.3,Win32,59.88023952,657b66ea316d21385b68909f,,,,,,,,,,,,,,,,,,,,,,,,,,,,,,,,,,,,,,,,,,422.7416,426.0335,left,3.2732,,426.0336,0,1,427.031,0,10,10,10,1,0,2,0,3,,,,,,,,,,,,,,,,,,,,,,,,,,,,,,,,,,,,,,,,,
,,656696c9ea15de5f69b6ddfa,65af53973f5fcc7f4ffca76f,2024-01-23_24h00.47.517,bars,2023.2.3,Win32,59.88023952,657b66ea316d21385b68909f,,,,,,,,,,,,,,,,,,,,,,,,,,,,,,,,,,,,,,,,,,427.0526,430.1334,right,3.0745,,430.1335,3,2,431.1324,0,11,11,11,1,0,4,0,3,,,,,,,,,,,,,,,,,,,,,,,,,,,,,,,,,,,,,,,,,
,,656696c9ea15de5f69b6ddfa,65af53973f5fcc7f4ffca76f,2024-01-23_24h00.47.517,bars,2023.2.3,Win32,59.88023952,657b66ea316d21385b68909f,,,,,,,,,,,,,,,,,,,,,,,,,,,,,,,,,,,,,,,,,,431.1553,433.4252,left,2.2549,,433.4252,1,1,434.4226,0,12,12,12,1,2,6,1,6,,,,,,,,,,,,,,,,,,,,,,,,,,,,,,,,,,,,,,,,,
,,656696c9ea15de5f69b6ddfa,65af53973f5fcc7f4ffca76f,2024-01-23_24h00.47.517,bars,2023.2.3,Win32,59.88023952,657b66ea316d21385b68909f,,,,,,,,,,,,,,,,,,,,,,,,,,,,,,,,,,,,,,,,,,434.4432,436.3121,right,1.8618,,436.3122,3,2,437.3052,0,13,13,13,1,0,4,1,3,,,,,,,,,,,,,,,,,,,,,,,,,,,,,,,,,,,,,,,,,
,,656696c9ea15de5f69b6ddfa,65af53973f5fcc7f4ffca76f,2024-01-23_24h00.47.517,bars,2023.2.3,Win32,59.88023952,657b66ea316d21385b68909f,,,,,,,,,,,,,,,,,,,,,,,,,,,,,,,,,,,,,,,,,,437.3294,438.9693,right,1.6238,,438.9693,7,2,439.9673,0,14,14,14,1,2,6,2,7,,,,,,,,,,,,,,,,,,,,,,,,,,,,,,,,,,,,,,,,,
,,656696c9ea15de5f69b6ddfa,65af53973f5fcc7f4ffca76f,2024-01-23_24h00.47.517,bars,2023.2.3,Win32,59.88023952,657b66ea316d21385b68909f,,,,,,,,,,,,,,,,,,,,,,,,,,,,,,,,,,,,,,,,,,439.968,441.2004,right,1.2215,,441.2005,9,2,442.1993,0,15,15,15,1,4,8,3,9,,,,,,,,,,,,,,,,,,,,,,,,,,,,,,,,,,,,,,,,,
,,656696c9ea15de5f69b6ddfa,65af53973f5fcc7f4ffca76f,2024-01-23_24h00.47.517,bars,2023.2.3,Win32,59.88023952,657b66ea316d21385b68909f,,,,,,,,,,,,,,,,,,,,,,,,,,,,,,,,,,,,,,,,,,442.2004,443.5154,right,1.2988,,443.5155,7,2,444.5137,0,16,16,16,1,6,6,7,7,,,,,,,,,,,,,,,,,,,,,,,,,,,,,,,,,,,,,,,,,
,,656696c9ea15de5f69b6ddfa,65af53973f5fcc7f4ffca76f,2024-01-23_24h00.47.517,bars,2023.2.3,Win32,59.88023952,657b66ea316d21385b68909f,,,,,,,,,,,,,,,,,,,,,,,,,,,,,,,,,,,,,,,,,,444.515,445.1965,left,0.6683,,445.1966,9,1,446.1957,0,17,17,17,1,8,4,9,5,,,,,,,,,,,,,,,,,,,,,,,,,,,,,,,,,,,,,,,,,
,,656696c9ea15de5f69b6ddfa,65af53973f5fcc7f4ffca76f,2024-01-23_24h00.47.517,bars,2023.2.3,Win32,59.88023952,657b66ea316d21385b68909f,,,,,,,,,,,,,,,,,,,,,,,,,,,,,,,,,,,,,,,,,,446.1966,447.1272,left,0.9181,,447.1272,5,1,448.1266,0,18,18,18,1,6,2,5,1,,,,,,,,,,,,,,,,,,,,,,,,,,,,,,,,,,,,,,,,,
,,656696c9ea15de5f69b6ddfa,65af53973f5fcc7f4ffca76f,2024-01-23_24h00.47.517,bars,2023.2.3,Win32,59.88023952,657b66ea316d21385b68909f,,,,,,,,,,,,,,,,,,,,,,,,,,,,,,,,,,,,,,,,,,448.1274,449.3928,right,1.2509,,449.3929,0,2,450.3923,0,19,19,19,1,8,0,7,0,,,,,,,,,,,,,,,,,,,,,,,,,,,,,,,,,,,,,,,,,
,,656696c9ea15de5f69b6ddfa,65af53973f5fcc7f4ffca76f,2024-01-23_24h00.47.517,bars,2023.2.3,Win32,59.88023952,657b66ea316d21385b68909f,,,,,,,,,,,,,,,,,,,,,,,,,,,,,,,,,,,,,,,,,,,,,,,,,,,,,,,,,,,,450.3941,467.5122,space,17.0931,,,,,,,,,,,,,,,,,,,,,,,,,,,,,,,,,,,,,
,,656696c9ea15de5f69b6ddfa,65af53973f5fcc7f4ffca76f,2024-01-23_24h00.47.517,bars,2023.2.3,Win32,59.88023952,657b66ea316d21385b68909f,,,,,,,,,,,468.9765,469.9781,,,470.4783,470.7235,,19,199,,,,,,,,,,,,,,,,bars/042.png,bars/mask000.png,,,,,,,,,,,,0,1,,,,,,,5,5,5,2,,,,,,467.5419,468.9652,space,1.4114,,469.9786,470.4783,470.7243,477.8853,space,7.1341,,477.8857,54,56,478.8823,478.883,489.4128,space,10.5045,,0,0,0,0,1,145,75,,,,,,,,
,,656696c9ea15de5f69b6ddfa,65af53973f5fcc7f4ffca76f,2024-01-23_24h00.47.517,bars,2023.2.3,Win32,59.88023952,657b66ea316d21385b68909f,,,,,,,,,,,489.4404,490.426,,,490.9263,491.172,,137,-43,,,,,,,,,,,,,,,,bars/034.png,bars/mask005.png,,,,,,,,,,,,5,1,,,,,,,7,3,8,4,,,,,,,,,,,490.4261,490.9262,491.1722,497.4827,space,6.2846,,497.483,12,72,498.4815,498.4815,503.6933,space,5.1707,,0,1,1,1,1,125,65,,,,,,,,
,,656696c9ea15de5f69b6ddfa,65af53973f5fcc7f4ffca76f,2024-01-23_24h00.47.517,bars,2023.2.3,Win32,59.88023952,657b66ea316d21385b68909f,,,,,,,,,,,503.7147,504.7078,,,505.2095,505.4579,,40,220,,,,,,,,,,,,,,,,bars/031.png,bars/mask006.png,,,,,,,,,,,,5,2,,,,,,,5,5,4,6,,,,,,,,,,,504.7079,505.2093,505.4583,514.2507,space,8.7762,,514.2507,80,5,515.2482,515.2486,520.0113,space,4.7177,,0,2,2,2,1,120,35,,,,,,,,
,,656696c9ea15de5f69b6ddfa,65af53973f5fcc7f4ffca76f,2024-01-23_24h00.47.517,bars,2023.2.3,Win32,59.88023952,657b66ea316d21385b68909f,,,,,,,,,,,520.0312,521.0315,,,521.5308,521.763,,104,104,,,,,,,,,,,,,,,,bars/028.png,bars/mask001.png,,,,,,,,,,,,3,2,,,,,,,7,7,7,7,,,,,,,,,,,521.0315,521.5308,521.7632,526.0945,space,4.3243,,526.0946,59,16,527.0876,527.0879,529.2383,space,2.116,,0,3,3,3,1,45,120,,,,,,,,
,,656696c9ea15de5f69b6ddfa,65af53973f5fcc7f4ffca76f,2024-01-23_24h00.47.517,bars,2023.2.3,Win32,59.88023952,657b66ea316d21385b68909f,,,,,,,,,,,529.2395,530.2342,,,530.7332,530.9834,,30,210,,,,,,,,,,,,,,,,bars/007.png,bars/mask004.png,,,,,,,,,,,,1,2,,,,,,,5,5,6,4,,,,,,,,,,,530.2345,530.7331,530.9834,537.7437,space,6.7441,,537.7439,35,25,538.7429,538.7429,546.737,space,7.9548,,0,4,4,4,1,175,55,,,,,,,,
,,656696c9ea15de5f69b6ddfa,65af53973f5fcc7f4ffca76f,2024-01-23_24h00.47.517,bars,2023.2.3,Win32,59.88023952,657b66ea316d21385b68909f,,,,,,,,,,,546.7577,547.7507,,,548.2516,548.5002,,118,118,,,,,,,,,,,,,,,,bars/012.png,bars/mask009.png,,,,,,,,,,,,1,1,,,,,,,7,7,8,8,,,,,,,,,,,547.7509,548.2514,548.5005,557.3116,space,8.8023,,557.3118,28,77,558.3075,558.3077,564.1691,space,5.8186,,0,5,5,5,1,90,15,,,,,,,,
,,656696c9ea15de5f69b6ddfa,65af53973f5fcc7f4ffca76f,2024-01-23_24h00.47.517,bars,2023.2.3,Win32,59.88023952,657b66ea316d21385b68909f,,,,,,,,,,,564.1891,565.1894,,,565.673,565.9199,,33,213,,,,,,,,,,,,,,,,bars/026.png,bars/mask002.png,,,,,,,,,,,,7,1,,,,,,,9,9,7,9,,,,,,,,,,,565.1895,565.6728,565.9201,571.6364,space,5.6965,,571.6365,2,52,572.6329,572.633,578.7292,space,6.0636,,0,6,6,6,1,35,85,,,,,,,,
,,656696c9ea15de5f69b6ddfa,65af53973f5fcc7f4ffca76f,2024-01-23_24h00.47.517,bars,2023.2.3,Win32,59.88023952,657b66ea316d21385b68909f,,,,,,,,,,,578.7516,579.7379,,,580.2375,580.4862,,57,57,,,,,,,,,,,,,,,,bars/038.png,bars/mask004.png,,,,,,,,,,,,5,2,,,,,,,10,10,10,8,,,,,,,,,,,579.7379,580.2374,580.4864,588.3806,space,7.8796,,588.3808,72,13,589.3791,589.3791,600.6509,space,11.2311,,0,7,7,7,1,165,70,,,,,,,,
,,656696c9ea15de5f69b6ddfa,65af53973f5fcc7f4ffca76f,2024-01-23_24h00.47.517,bars,2023.2.3,Win32,59.88023952,657b66ea316d21385b68909f,,,,,,,,,,,600.6708,601.6563,,,602.151,602.401,,15,15,,,,,,,,,,,,,,,,bars/032.png,bars/mask007.png,,,,,,,,,,,,8,2,,,,,,,10,10,10,10,,,,,,,,,,,601.6563,602.1509,602.401,607.1315,space,4.7097,,607.1316,70,5,608.1323,608.1323,612.0247,space,3.8537,,0,8,8,8,1,125,20,,,,,,,,
,,656696c9ea15de5f69b6ddfa,65af53973f5fcc7f4ffca76f,2024-01-23_24h00.47.517,bars,2023.2.3,Win32,59.88023952,657b66ea316d21385b68909f,,,,,,,,,,,612.0447,613.0287,,,613.524,613.7778,,36,36,,,,,,,,,,,,,,,,bars/035.png,bars/mask005.png,,,,,,,,,,,,2,2,,,,,,,8,10,9,10,,,,,,,,,,,613.0288,613.5239,613.7779,618.3412,space,4.5466,,618.3413,41,24,619.339,619.339,626.6776,space,7.3004,,0,9,9,9,1,175,60,,,,,,,,
,,656696c9ea15de5f69b6ddfa,65af53973f5fcc7f4ffca76f,2024-01-23_24h00.47.517,bars,2023.2.3,Win32,59.88023952,657b66ea316d21385b68909f,,,,,,,,,,,626.6979,627.6811,,,628.2047,628.4301,,77,77,,,,,,,,,,,,,,,,bars/026.png,bars/mask002.png,,,,,,,,,,,,5,2,,,,,,,6,8,7,7,,,,,,,,,,,627.6813,628.2046,628.4302,634.8064,space,6.359,,634.8066,42,8,635.8034,635.8034,640.0658,space,4.2223,,0,10,10,10,1,35,85,,,,,,,,
,,656696c9ea15de5f69b6ddfa,65af53973f5fcc7f4ffca76f,2024-01-23_24h00.47.517,bars,2023.2.3,Win32,59.88023952,657b66ea316d21385b68909f,,,,,,,,,,,640.0871,641.0686,,,641.5646,641.8188,,124,124,,,,,,,,,,,,,,,,bars/049.png,bars/mask005.png,,,,,,,,,,,,4,2,,,,,,,4,6,5,5,,,,,,,,,,,641.0686,641.5645,641.8189,646.1154,space,4.28,,646.1155,36,9,647.1099,647.11,650.0085,space,2.8566,,0,11,11,11,1,160,115,,,,,,,,
,,656696c9ea15de5f69b6ddfa,65af53973f5fcc7f4ffca76f,2024-01-23_24h00.47.517,bars,2023.2.3,Win32,59.88023952,657b66ea316d21385b68909f,,,,,,,,,,,650.0293,651.0208,,,651.5206,651.7705,,74,74,,,,,,,,,,,,,,,,bars/025.png,bars/mask004.png,,,,,,,,,,,,0,1,,,,,,,6,4,6,3,,,,,,,,,,,651.021,651.5205,651.7706,657.5666,space,5.781,,657.5669,31,34,658.5632,658.5632,662.9264,space,4.3219,,0,12,12,12,1,105,40,,,,,,,,
,,656696c9ea15de5f69b6ddfa,65af53973f5fcc7f4ffca76f,2024-01-23_24h00.47.517,bars,2023.2.3,Win32,59.88023952,657b66ea316d21385b68909f,,,,,,,,,,,662.9482,663.9271,,,664.4265,664.6755,,131,131,,,,,,,,,,,,,,,,bars/004.png,bars/mask003.png,,,,,,,,,,,,5,2,,,,,,,8,6,6,6,,,,,,,,,,,663.9271,664.4264,664.6757,672.5334,space,7.8321,,672.5335,74,6,673.5317,673.5319,680.3639,space,6.7948,,0,13,13,13,1,25,125,,,,,,,,
,,656696c9ea15de5f69b6ddfa,65af53973f5fcc7f4ffca76f,2024-01-23_24h00.47.517,bars,2023.2.3,Win32,59.88023952,657b66ea316d21385b68909f,,,,,,,,,,,680.385,681.3763,,,681.877,682.1254,,42,222,,,,,,,,,,,,,,,,bars/042.png,bars/mask003.png,,,,,,,,,,,,0,2,,,,,,,6,4,5,4,,,,,,,,,,,681.3763,681.8767,682.1256,687.3716,space,5.2302,,687.3717,77,33,688.3696,688.3698,694.6824,space,6.271,,0,14,14,14,1,145,75,,,,,,,,
,,656696c9ea15de5f69b6ddfa,65af53973f5fcc7f4ffca76f,2024-01-23_24h00.47.517,bars,2023.2.3,Win32,59.88023952,657b66ea316d21385b68909f,,,,,,,,,,,694.7079,695.6955,,,696.1953,696.4446,,139,-41,,,,,,,,,,,,,,,,bars/039.png,bars/mask005.png,,,,,,,,,,,,0,2,,,,,,,4,2,3,2,,,,,,,,,,,695.6956,696.1952,696.4447,704.7714,space,8.3108,,704.7715,36,34,705.7688,705.769,711.5217,space,5.722,,0,15,15,15,1,175,105,,,,,,,,
,,656696c9ea15de5f69b6ddfa,65af53973f5fcc7f4ffca76f,2024-01-23_24h00.47.517,bars,2023.2.3,Win32,59.88023952,657b66ea316d21385b68909f,,,,,,,,,,,711.5476,712.5358,,,713.0306,713.2849,,38,38,,,,,,,,,,,,,,,,bars/031.png,bars/mask008.png,,,,,,,,,,,,5,2,,,,,,,2,4,3,5,,,,,,,,,,,712.5359,713.0306,713.2849,718.332,space,5.0303,,718.332,82,3,719.3286,719.3288,721.9915,space,2.6309,,0,16,16,16,1,120,35,,,,,,,,
,,656696c9ea15de5f69b6ddfa,65af53973f5fcc7f4ffca76f,2024-01-23_24h00.47.517,bars,2023.2.3,Win32,59.88023952,657b66ea316d21385b68909f,,,,,,,,,,,722.0139,723.0031,,,723.503,723.7535,,117,117,,,,,,,,,,,,,,,,bars/019.png,bars/mask009.png,,,,,,,,,,,,2,2,,,,,,,0,2,0,4,,,,,,,,,,,723.0032,723.503,723.7536,729.8973,space,6.1286,,729.8973,72,12,730.8965,730.8965,736.9923,space,6.059,,0,17,17,17,1,45,105,,,,,,,,
,,656696c9ea15de5f69b6ddfa,65af53973f5fcc7f4ffca76f,2024-01-23_24h00.47.517,bars,2023.2.3,Win32,59.88023952,657b66ea316d21385b68909f,,,,,,,,,,,737.0134,738.0068,,,738.5074,738.7562,,60,60,,,,,,,,,,,,,,,,bars/042.png,bars/mask003.png,,,,,,,,,,,,1,2,,,,,,,0,0,2,1,,,,,,,,,,,738.0073,738.5073,738.7565,742.7035,space,3.9304,,742.7037,85,15,743.7007,743.7009,745.7997,space,2.0616,,0,18,18,18,1,145,75,,,,,,,,
,,656696c9ea15de5f69b6ddfa,65af53973f5fcc7f4ffca76f,2024-01-23_24h00.47.517,bars,2023.2.3,Win32,59.88023952,657b66ea316d21385b68909f,,,,,,,,,,,745.8007,746.7984,,,747.2981,747.5481,,47,47,,,,,,,,,,,,,,,,bars/041.png,bars/mask004.png,,,,,,,,,,,,0,1,,,,,,,0,0,1,0,,,,,,,,,,,746.7984,747.298,747.5483,752.2939,space,4.7337,,752.294,27,38,753.2921,753.2922,757.7712,space,4.4419,,0,19,19,19,1,20,85,,,,,,,,
,,656696c9ea15de5f69b6ddfa,65af53973f5fcc7f4ffca76f,2024-01-23_24h00.47.517,bars,2023.2.3,Win32,59.88023952,657b66ea316d21385b68909f,,,,,,,,,,,757.7916,758.7721,,,759.2691,759.5205,,71,71,,,,,,,,,,,,,,,,bars/041.png,bars/mask008.png,,,,,,,,,,,,1,2,,,,,,,2,2,3,2,,,,,,,,,,,758.7723,759.2689,759.5205,764.0989,space,4.5628,,764.099,51,14,765.0975,765.0975,766.9957,space,1.8647,,0,20,20,20,1,20,85,,,,,,,,
,,656696c9ea15de5f69b6ddfa,65af53973f5fcc7f4ffca76f,2024-01-23_24h00.47.517,bars,2023.2.3,Win32,59.88023952,657b66ea316d21385b68909f,,,,,,,,,,,766.9965,767.9945,,,768.4946,768.7441,,101,101,,,,,,,,,,,,,,,,bars/021.png,bars/mask006.png,,,,,,,,,,,,0,2,,,,,,,0,0,0,0,,,,,,,,,,,767.9945,768.4944,768.7444,772.7742,space,4.0136,,772.7742,54,31,773.7727,773.7728,779.6089,space,5.8059,,0,21,21,21,1,155,70,,,,,,,,
,,656696c9ea15de5f69b6ddfa,65af53973f5fcc7f4ffca76f,2024-01-23_24h00.47.517,bars,2023.2.3,Win32,59.88023952,657b66ea316d21385b68909f,,,,,,,,,,,779.6311,780.616,,,781.1158,781.3659,,141,141,,,,,,,,,,,,,,,,bars/015.png,bars/mask009.png,,,,,,,,,,,,1,2,,,,,,,0,2,0,2,,,,,,,,,,,780.6161,781.1158,781.366,785.4958,space,4.1128,,785.4959,31,19,786.4941,786.4942,790.233,space,3.7097,,0,22,22,22,1,110,160,,,,,,,,
,,656696c9ea15de5f69b6ddfa,65af53973f5fcc7f4ffca76f,2024-01-23_24h00.47.517,bars,2023.2.3,Win32,59.88023952,657b66ea316d21385b68909f,,,,,,,,,,,790.2584,791.2388,,,791.7394,791.9887,,43,43,,,,,,,,,,,,,,,,bars/005.png,bars/mask007.png,,,,,,,,,,,,0,1,,,,,,,2,4,2,6,,,,,,,,,,,791.2389,791.7389,791.9888,795.5528,space,3.5527,,795.5528,33,83,796.5519,796.5521,800.4316,space,3.8374,,0,23,23,23,1,10,140,,,,,,,,
,,656696c9ea15de5f69b6ddfa,65af53973f5fcc7f4ffca76f,2024-01-23_24h00.47.517,bars,2023.2.3,Win32,59.88023952,657b66ea316d21385b68909f,,,,,,,,,,,800.4528,801.4524,,,801.9352,802.1838,,116,116,,,,,,,,,,,,,,,,bars/026.png,bars/mask000.png,,,,,,,,,,,,0,2,,,,,,,4,2,5,3,,,,,,,,,,,801.4524,801.9351,802.1839,805.9331,space,3.7316,,805.9333,81,31,806.9303,806.9303,811.8253,space,4.8595,,0,24,24,24,1,35,85,,,,,,,,
,,656696c9ea15de5f69b6ddfa,65af53973f5fcc7f4ffca76f,2024-01-23_24h00.47.517,bars,2023.2.3,Win32,59.88023952,657b66ea316d21385b68909f,,,,,,,,,,,811.8537,812.8424,,,813.3381,813.5875,,140,140,,,,,,,,,,,,,,,,bars/040.png,bars/mask000.png,,,,,,,,,,,,2,1,,,,,,,2,4,2,4,,,,,,,,,,,812.8425,813.338,813.5876,817.7725,space,4.165,,817.7725,0,45,818.7671,818.7673,827.596,space,8.7908,,0,25,25,25,1,140,5,,,,,,,,
,,656696c9ea15de5f69b6ddfa,65af53973f5fcc7f4ffca76f,2024-01-23_24h00.47.517,bars,2023.2.3,Win32,59.88023952,657b66ea316d21385b68909f,,,,,,,,,,,827.6168,828.6055,,,829.1052,829.3546,,137,137,,,,,,,,,,,,,,,,bars/034.png,bars/mask004.png,,,,,,,,,,,,0,1,,,,,,,0,6,0,7,,,,,,,,,,,828.6057,829.1051,829.3547,834.4333,space,5.0654,,834.4336,12,72,835.4319,835.432,839.0023,space,3.5405,,0,26,26,26,1,125,65,,,,,,,,
,,656696c9ea15de5f69b6ddfa,65af53973f5fcc7f4ffca76f,2024-01-23_24h00.47.517,bars,2023.2.3,Win32,59.88023952,657b66ea316d21385b68909f,,,,,,,,,,,839.0234,840.0116,,,840.5103,840.7612,,69,69,,,,,,,,,,,,,,,,bars/038.png,bars/mask000.png,,,,,,,,,,,,9,2,,,,,,,2,8,2,9,,,,,,,,,,,840.0117,840.5103,840.7613,845.077,space,4.3054,,845.077,84,1,846.0718,846.0718,849.0198,space,2.9074,,0,27,27,27,1,165,70,,,,,,,,
,,656696c9ea15de5f69b6ddfa,65af53973f5fcc7f4ffca76f,2024-01-23_24h00.47.517,bars,2023.2.3,Win32,59.88023952,657b66ea316d21385b68909f,,,,,,,,,,,849.0211,850.0185,,,850.5183,850.7678,,120,120,,,,,,,,,,,,,,,,bars/004.png,bars/mask006.png,,,,,,,,,,,,4,2,,,,,,,0,6,0,5,,,,,,,,,,,850.0188,850.5183,850.7678,855.3305,space,4.547,,855.3306,85,5,856.3292,856.3293,857.8508,space,1.4912,,0,28,28,28,1,25,125,,,,,,,,
,,656696c9ea15de5f69b6ddfa,65af53973f5fcc7f4ffca76f,2024-01-23_24h00.47.517,bars,2023.2.3,Win32,59.88023952,657b66ea316d21385b68909f,,,,,,,,,,,857.8515,858.8445,,,859.3484,859.598,,86,86,,,,,,,,,,,,,,,,bars/018.png,bars/mask008.png,,,,,,,,,,,,3,2,,,,,,,0,4,0,4,,,,,,,,,,,858.8446,859.3484,859.5981,868.6083,space,8.9935,,868.6084,64,4,869.6069,869.6072,872.237,space,2.594,,0,29,29,29,1,150,90,,,,,,,,
,,656696c9ea15de5f69b6ddfa,65af53973f5fcc7f4ffca76f,2024-01-23_24h00.47.517,bars,2023.2.3,Win32,59.88023952,657b66ea316d21385b68909f,,,,,,,,,,,872.2376,873.2308,,,873.7346,873.9843,,13,13,,,,,,,,,,,,,,,,bars/032.png,bars/mask007.png,,,,,,,,,,,,5,2,,,,,,,2,6,2,7,,,,,,,,,,,873.2309,873.7346,873.9845,880.4136,space,6.4119,,880.4137,68,7,881.4106,881.4107,883.2381,space,1.793,,0,30,30,30,1,125,20,,,,,,,,
,,656696c9ea15de5f69b6ddfa,65af53973f5fcc7f4ffca76f,2024-01-23_24h00.47.517,bars,2023.2.3,Win32,59.88023952,657b66ea316d21385b68909f,,,,,,,,,,,883.239,884.2363,,,884.7361,884.9852,,30,30,,,,,,,,,,,,,,,,bars/031.png,bars/mask002.png,,,,,,,,,,,,3,2,,,,,,,0,4,0,4,,,,,,,,,,,884.2365,884.7361,884.9852,889.6321,space,4.6312,,889.6324,90,5,890.6301,890.6301,892.9983,space,2.3399,,0,31,31,31,1,120,35,,,,,,,,
,,656696c9ea15de5f69b6ddfa,65af53973f5fcc7f4ffca76f,2024-01-23_24h00.47.517,bars,2023.2.3,Win32,59.88023952,657b66ea316d21385b68909f,,,,,,,,,,,892.9991,893.9953,,,894.4992,894.7487,,110,290,,,,,,,,,,,,,,,,bars/021.png,bars/mask001.png,,,,,,,,,,,,0,2,,,,,,,2,6,2,5,,,,,,,,,,,893.9954,894.4992,894.7488,902.143,space,7.3776,,902.1432,45,40,903.1357,903.1359,905.9503,space,2.7758,,0,32,32,32,1,155,70,,,,,,,,
,,656696c9ea15de5f69b6ddfa,65af53973f5fcc7f4ffca76f,2024-01-23_24h00.47.517,bars,2023.2.3,Win32,59.88023952,657b66ea316d21385b68909f,,,,,,,,,,,905.9512,906.9478,,,907.4478,907.6978,,112,112,,,,,,,,,,,,,,,,bars/009.png,bars/mask001.png,,,,,,,,,,,,4,2,,,,,,,4,4,4,5,,,,,,,,,,,906.948,907.4477,907.6979,912.0223,space,4.3155,,912.0224,83,7,913.0114,913.0116,914.3419,space,1.2907,,0,33,33,33,1,15,105,,,,,,,,
,,656696c9ea15de5f69b6ddfa,65af53973f5fcc7f4ffca76f,2024-01-23_24h00.47.517,bars,2023.2.3,Win32,59.88023952,657b66ea316d21385b68909f,,,,,,,,,,,914.3428,915.3403,,,915.8399,916.0905,,62,62,,,,,,,,,,,,,,,,bars/029.png,bars/mask000.png,,,,,,,,,,,,1,2,,,,,,,2,2,2,2,,,,,,,,,,,915.3405,915.8398,916.0906,920.9359,space,4.8335,,920.936,28,17,921.9348,921.9349,924.2168,space,2.2466,,0,34,34,34,1,90,45,,,,,,,,
,,656696c9ea15de5f69b6ddfa,65af53973f5fcc7f4ffca76f,2024-01-23_24h00.47.517,bars,2023.2.3,Win32,59.88023952,657b66ea316d21385b68909f,,,,,,,,,,,924.2176,925.2198,,,925.7199,925.9696,,44,44,,,,,,,,,,,,,,,,bars/017.png,bars/mask000.png,,,,,,,,,,,,0,2,,,,,,,0,0,0,0,,,,,,,,,,,925.2199,925.7199,925.9698,931.0829,space,5.0971,,931.083,79,1,932.08,932.08,936.7217,space,4.6018,,0,35,35,35,1,145,45,,,,,,,,
,,656696c9ea15de5f69b6ddfa,65af53973f5fcc7f4ffca76f,2024-01-23_24h00.47.517,bars,2023.2.3,Win32,59.88023952,657b66ea316d21385b68909f,,,,,,,,,,,936.7412,937.742,,,938.2251,938.4751,,56,56,,,,,,,,,,,,,,,,bars/011.png,bars/mask006.png,,,,,,,,,,,,0,2,,,,,,,2,2,3,2,,,,,,,,,,,937.742,938.225,938.4751,942.4727,space,3.981,,942.4728,76,29,943.4703,943.4703,945.5691,space,2.0639,,0,36,36,36,1,160,85,,,,,,,,
,,656696c9ea15de5f69b6ddfa,65af53973f5fcc7f4ffca76f,2024-01-23_24h00.47.517,bars,2023.2.3,Win32,59.88023952,657b66ea316d21385b68909f,,,,,,,,,,,945.5697,946.5635,,,947.066,947.3177,,111,111,,,,,,,,,,,,,,,,bars/018.png,bars/mask000.png,,,,,,,,,,,,0,2,,,,,,,4,0,3,0,,,,,,,,,,,946.5636,947.0659,947.3178,950.6415,space,3.3015,,950.6417,39,21,951.6402,951.6403,953.024,space,1.3493,,0,37,37,37,1,150,90,,,,,,,,
,,656696c9ea15de5f69b6ddfa,65af53973f5fcc7f4ffca76f,2024-01-23_24h00.47.517,bars,2023.2.3,Win32,59.88023952,657b66ea316d21385b68909f,,,,,,,,,,,953.0249,954.0264,,,954.5217,954.7715,,123,123,,,,,,,,,,,,,,,,bars/015.png,bars/mask008.png,,,,,,,,,,,,1,1,,,,,,,2,2,2,3,,,,,,,,,,,954.0265,954.5215,954.7718,957.975,space,3.1817,,957.9751,13,37,958.9665,958.967,960.3316,space,1.3214,,0,38,38,38,1,110,160,,,,,,,,
,,656696c9ea15de5f69b6ddfa,65af53973f5fcc7f4ffca76f,2024-01-23_24h00.47.517,bars,2023.2.3,Win32,59.88023952,657b66ea316d21385b68909f,,,,,,,,,,,960.3325,961.332,,,961.8316,962.0803,,46,46,,,,,,,,,,,,,,,,bars/025.png,bars/mask001.png,,,,,,,,,,,,4,2,,,,,,,4,4,5,5,,,,,,,,,,,961.3321,961.8315,962.0804,967.4104,space,5.3142,,967.4107,59,6,968.4081,968.4082,971.039,space,2.5869,,0,39,39,39,1,105,40,,,,,,,,
,,656696c9ea15de5f69b6ddfa,65af53973f5fcc7f4ffca76f,2024-01-23_24h00.47.517,bars,2023.2.3,Win32,59.88023952,657b66ea316d21385b68909f,,,,,,,,,,,971.04,972.0366,,,972.5371,972.7873,,108,108,,,,,,,,,,,,,,,,bars/028.png,bars/mask000.png,,,,,,,,,,,,1,2,,,,,,,6,2,6,1,,,,,,,,,,,972.0367,972.5371,972.7874,977.3337,space,4.5305,,977.3338,63,12,978.3326,978.3329,980.1318,space,1.7556,,0,40,40,40,1,45,120,,,,,,,,
,,656696c9ea15de5f69b6ddfa,65af53973f5fcc7f4ffca76f,2024-01-23_24h00.47.517,bars,2023.2.3,Win32,59.88023952,657b66ea316d21385b68909f,,,,,,,,,,,980.1336,981.1295,,,981.6284,981.8783,,154,-26,,,,,,,,,,,,,,,,bars/040.png,bars/mask008.png,,,,,,,,,,,,2,1,,,,,,,4,4,3,4,,,,,,,,,,,981.1296,981.6283,981.8784,988.1399,space,6.2451,,988.1401,14,31,989.1383,989.1384,991.1773,space,2.006,,0,41,41,41,1,140,5,,,,,,,,
,,656696c9ea15de5f69b6ddfa,65af53973f5fcc7f4ffca76f,2024-01-23_24h00.47.517,bars,2023.2.3,Win32,59.88023952,657b66ea316d21385b68909f,,,,,,,,,,,991.1781,992.174,,,992.6694,992.924,,64,244,,,,,,,,,,,,,,,,bars/047.png,bars/mask009.png,,,,,,,,,,,,1,2,,,,,,,6,2,5,1,,,,,,,,,,,992.1741,992.6693,992.9242,999.117,space,6.1758,,999.117,49,6,1000.1168,1000.1168,1001.4773,space,1.3184,,0,42,42,42,1,15,70,,,,,,,,
,,656696c9ea15de5f69b6ddfa,65af53973f5fcc7f4ffca76f,2024-01-23_24h00.47.517,bars,2023.2.3,Win32,59.88023952,657b66ea316d21385b68909f,,,,,,,,,,,1001.4783,1002.4754,,,1002.9757,1003.2253,,47,227,,,,,,,,,,,,,,,,bars/035.png,bars/mask004.png,,,,,,,,,,,,0,2,,,,,,,8,0,8,0,,,,,,,,,,,1002.4754,1002.9756,1003.2254,1009.3699,space,6.129,,1009.3701,52,13,1010.3683,1010.3683,1011.7239,space,1.3253,,0,43,43,43,1,175,60,,,,,,,,
,,656696c9ea15de5f69b6ddfa,65af53973f5fcc7f4ffca76f,2024-01-23_24h00.47.517,bars,2023.2.3,Win32,59.88023952,657b66ea316d21385b68909f,,,,,,,,,,,1011.7245,1012.7179,,,1013.2218,1013.4715,,79,79,,,,,,,,,,,,,,,,bars/011.png,bars/mask005.png,,,,,,,,,,,,0,2,,,,,,,6,2,7,0,,,,,,,,,,,1012.7181,1013.2218,1013.4715,1018.3518,space,4.8729,,1018.3519,81,6,1019.3452,1019.3453,1021.109,space,1.7246,,0,44,44,44,1,160,85,,,,,,,,
,,656696c9ea15de5f69b6ddfa,65af53973f5fcc7f4ffca76f,2024-01-23_24h00.47.517,bars,2023.2.3,Win32,59.88023952,657b66ea316d21385b68909f,,,,,,,,,,,1021.11,1022.1077,,,1022.607,1022.8572,,165,165,,,,,,,,,,,,,,,,bars/007.png,bars/mask004.png,,,,,,,,,,,,3,1,,,,,,,4,4,5,5,,,,,,,,,,,1022.1078,1022.6069,1022.8572,1029.2345,space,6.3661,,1029.2345,10,70,1030.2335,1030.2336,1031.2827,space,1.007,,0,45,45,45,1,175,55,,,,,,,,
,,656696c9ea15de5f69b6ddfa,65af53973f5fcc7f4ffca76f,2024-01-23_24h00.47.517,bars,2023.2.3,Win32,59.88023952,657b66ea316d21385b68909f,,,,,,,,,,,1031.2835,1032.282,,,1032.7812,1033.0306,,148,-32,,,,,,,,,,,,,,,,bars/014.png,bars/mask004.png,,,,,,,,,,,,0,2,,,,,,,6,6,7,4,,,,,,,,,,,1032.282,1032.7811,1033.0307,1036.8602,space,3.8185,,1036.8604,68,32,1037.86,1037.86,1045.4198,space,7.5165,,0,46,46,46,1,80,0,,,,,,,,
,,656696c9ea15de5f69b6ddfa,65af53973f5fcc7f4ffca76f,2024-01-23_24h00.47.517,bars,2023.2.3,Win32,59.88023952,657b66ea316d21385b68909f,,,,,,,,,,,1045.4395,1046.4397,,,1046.9222,1047.1692,,104,104,,,,,,,,,,,,,,,,bars/028.png,bars/mask006.png,,,,,,,,,,,,3,2,,,,,,,4,8,3,6,,,,,,,,,,,1046.4397,1046.9221,1047.1693,1052.6356,space,5.4453,,1052.6357,59,16,1053.6293,1053.6295,1054.7281,space,1.0597,,0,47,47,47,1,45,120,,,,,,,,
,,656696c9ea15de5f69b6ddfa,65af53973f5fcc7f4ffca76f,2024-01-23_24h00.47.517,bars,2023.2.3,Win32,59.88023952,657b66ea316d21385b68909f,,,,,,,,,,,1054.7289,1055.7268,,,1056.2268,1056.4755,,159,-21,,,,,,,,,,,,,,,,bars/046.png,bars/mask007.png,,,,,,,,,,,,6,1,,,,,,,6,10,7,10,,,,,,,,,,,1055.727,1056.2265,1056.4757,1061.5888,space,5.1046,,1061.5891,4,74,1062.5869,1062.587,1063.6596,space,1.0269,,0,48,48,48,1,155,85,,,,,,,,
,,656696c9ea15de5f69b6ddfa,65af53973f5fcc7f4ffca76f,2024-01-23_24h00.47.517,bars,2023.2.3,Win32,59.88023952,657b66ea316d21385b68909f,,,,,,,,,,,1063.6603,1064.6574,,,1065.1523,1065.3899,,44,44,,,,,,,,,,,,,,,,bars/007.png,bars/mask001.png,,,,,,,,,,,,6,2,,,,,,,8,10,8,10,,,,,,,,,,,1064.6575,1065.1523,1065.3899,1069.8209,space,4.4142,,1069.8209,49,11,1070.8181,1070.8182,1071.8483,space,0.9857,,0,49,49,49,1,175,55,,,,,,,,
,,656696c9ea15de5f69b6ddfa,65af53973f5fcc7f4ffca76f,2024-01-23_24h00.47.517,bars,2023.2.3,Win32,59.88023952,657b66ea316d21385b68909f,,,,,,,,,,,,,,,,,,,,,,,,,,,,,,,,,,,,,,,,,,,,,,,,,,,,,,,,,,,,,,,,,,,,,,,,,,,,,,,,,,,,,,,,,,,,,1071.8503,1131.8433,0,0,0,4,1,sequence_tables/blk011.csv
,,656696c9ea15de5f69b6ddfa,65af53973f5fcc7f4ffca76f,2024-01-23_24h00.47.517,bars,2023.2.3,Win32,59.88023952,657b66ea316d21385b68909f,,,,,,,,,,,1136.2108,1137.1833,,,1137.6832,1137.9323,,15,15,,,,,,,,,,,,,,,,bars/007.png,bars/mask002.png,,,,,,,,,,,,0,1,,,,,,,2,9,1,9,,,,,,1131.867,1136.1701,space,4.2879,,1137.1835,1137.6832,1137.9325,1143.2118,space,5.2634,,1143.2121,20,40,1144.2103,1144.2104,1144.2331,,,,0,0,0,0,1,175,55,,,,,,,,
,,656696c9ea15de5f69b6ddfa,65af53973f5fcc7f4ffca76f,2024-01-23_24h00.47.517,bars,2023.2.3,Win32,59.88023952,657b66ea316d21385b68909f,,,,,,,,,,,1144.2335,1145.2271,,,1145.7151,1145.9645,,26,206,,,,,,,,,,,,,,,,bars/043.png,bars/mask004.png,,,,,,,,,,,,6,1,,,,,,,4,7,7,6,,,,,,,,,,,1145.2272,1145.7151,1145.9646,1151.559,space,5.5789,,1151.559,4,76,1152.5579,1152.558,1152.5797,,,,0,1,1,1,1,30,130,,,,,,,,
,,656696c9ea15de5f69b6ddfa,65af53973f5fcc7f4ffca76f,2024-01-23_24h00.47.517,bars,2023.2.3,Win32,59.88023952,657b66ea316d21385b68909f,,,,,,,,,,,1152.5801,1153.5688,,,1154.067,1154.3173,,18,18,,,,,,,,,,,,,,,,bars/032.png,bars/mask002.png,,,,,,,,,,,,7,2,,,,,,,6,9,6,8,,,,,,,,,,,1153.5688,1154.0669,1154.3174,1159.662,space,5.3298,,1159.6622,73,2,1160.6616,1160.6617,1160.6839,,,,0,2,2,2,1,125,20,,,,,,,,
,,656696c9ea15de5f69b6ddfa,65af53973f5fcc7f4ffca76f,2024-01-23_24h00.47.517,bars,2023.2.3,Win32,59.88023952,657b66ea316d21385b68909f,,,,,,,,,,,1160.6843,1161.6782,,,1162.1825,1162.4319,,122,122,,,,,,,,,,,,,,,,bars/039.png,bars/mask004.png,,,,,,,,,,,,3,2,,,,,,,8,7,6,8,,,,,,,,,,,1161.6782,1162.1824,1162.432,1167.8291,space,5.3803,,1167.8292,53,17,1168.8213,1168.8214,1168.8432,,,,0,3,3,3,1,175,105,,,,,,,,
,,656696c9ea15de5f69b6ddfa,65af53973f5fcc7f4ffca76f,2024-01-23_24h00.47.517,bars,2023.2.3,Win32,59.88023952,657b66ea316d21385b68909f,,,,,,,,,,,1168.8436,1169.8386,,,1170.338,1170.5912,,128,128,,,,,,,,,,,,,,,,bars/004.png,bars/mask000.png,,,,,,,,,,,,8,2,,,,,,,6,9,5,9,,,,,,,,,,,1169.8386,1170.338,1170.5913,1175.2385,space,4.6306,,1175.2387,77,3,1176.2345,1176.2347,1176.2577,,,,0,4,4,4,1,25,125,,,,,,,,
,,656696c9ea15de5f69b6ddfa,65af53973f5fcc7f4ffca76f,2024-01-23_24h00.47.517,bars,2023.2.3,Win32,59.88023952,657b66ea316d21385b68909f,,,,,,,,,,,1176.258,1177.2468,,,1177.7458,1177.9955,,27,27,,,,,,,,,,,,,,,,bars/025.png,bars/mask004.png,,,,,,,,,,,,5,2,,,,,,,8,7,8,8,,,,,,,,,,,1177.2469,1177.7458,1177.9955,1183.4904,space,5.4792,,1183.4905,78,13,1184.4886,1184.4886,1184.5102,,,,0,5,5,5,1,105,40,,,,,,,,
,,656696c9ea15de5f69b6ddfa,65af53973f5fcc7f4ffca76f,2024-01-23_24h00.47.517,bars,2023.2.3,Win32,59.88023952,657b66ea316d21385b68909f,,,,,,,,,,,1184.5104,1185.5067,,,1186.0104,1186.2616,,98,98,,,,,,,,,,,,,,,,bars/019.png,bars/mask000.png,,,,,,,,,,,,5,2,,,,,,,6,5,6,7,,,,,,,,,,,1185.5067,1186.0104,1186.2616,1189.3588,space,3.0818,,1189.359,53,7,1190.3566,1190.3567,1190.3792,,,,0,6,6,6,1,45,105,,,,,,,,
,,656696c9ea15de5f69b6ddfa,65af53973f5fcc7f4ffca76f,2024-01-23_24h00.47.517,bars,2023.2.3,Win32,59.88023952,657b66ea316d21385b68909f,,,,,,,,,,,1190.3796,1191.3827,,,1191.8831,1192.1325,,139,139,,,,,,,,,,,,,,,,bars/043.png,bars/mask007.png,,,,,,,,,,,,4,2,,,,,,,4,7,2,6,,,,,,,,,,,1191.3828,1191.883,1192.1325,1196.4123,space,4.2643,,1196.4125,71,9,1197.4105,1197.4106,1197.4324,,,,0,7,7,7,1,30,130,,,,,,,,
,,656696c9ea15de5f69b6ddfa,65af53973f5fcc7f4ffca76f,2024-01-23_24h00.47.517,bars,2023.2.3,Win32,59.88023952,657b66ea316d21385b68909f,,,,,,,,,,,1197.4327,1198.4268,,,1198.9313,1199.1829,,111,291,,,,,,,,,,,,,,,,bars/038.png,bars/mask008.png,,,,,,,,,,,,0,2,,,,,,,2,9,2,8,,,,,,,,,,,1198.4269,1198.9312,1199.183,1206.5192,space,7.3162,,1206.5193,54,41,1207.5175,1207.5175,1207.5394,,,,0,8,8,8,1,165,70,,,,,,,,
,,656696c9ea15de5f69b6ddfa,65af53973f5fcc7f4ffca76f,2024-01-23_24h00.47.517,bars,2023.2.3,Win32,59.88023952,657b66ea316d21385b68909f,,,,,,,,,,,1207.5398,1208.5392,,,1209.0383,1209.2901,,115,115,,,,,,,,,,,,,,,,bars/028.png,bars/mask009.png,,,,,,,,,,,,8,2,,,,,,,0,10,1,10,,,,,,,,,,,1208.5392,1209.0383,1209.2903,1215.484,space,6.1786,,1215.4841,70,5,1216.4777,1216.4777,1216.501,,,,0,9,9,9,1,45,120,,,,,,,,
,,656696c9ea15de5f69b6ddfa,65af53973f5fcc7f4ffca76f,2024-01-23_24h00.47.517,bars,2023.2.3,Win32,59.88023952,657b66ea316d21385b68909f,,,,,,,,,,,1216.5014,1217.4923,,,1217.9919,1218.2414,,112,112,,,,,,,,,,,,,,,,bars/009.png,bars/mask001.png,,,,,,,,,,,,5,2,,,,,,,2,8,3,7,,,,,,,,,,,1217.4924,1217.9918,1218.2414,1223.1045,space,4.8465,,1223.1045,83,7,1224.1027,1224.1028,1224.1234,,,,0,10,10,10,1,15,105,,,,,,,,
,,656696c9ea15de5f69b6ddfa,65af53973f5fcc7f4ffca76f,2024-01-23_24h00.47.517,bars,2023.2.3,Win32,59.88023952,657b66ea316d21385b68909f,,,,,,,,,,,1224.1238,1225.1203,,,1225.6229,1225.8726,,116,-64,,,,,,,,,,,,,,,,bars/004.png,bars/mask006.png,,,,,,,,,,,,7,2,,,,,,,0,10,0,10,,,,,,,,,,,1225.1203,1225.6229,1225.8727,1233.0472,space,7.1525,,1233.0474,89,9,1234.0445,1234.0445,1234.0666,,,,0,11,11,11,1,25,125,,,,,,,,
,,656696c9ea15de5f69b6ddfa,65af53973f5fcc7f4ffca76f,2024-01-23_24h00.47.517,bars,2023.2.3,Win32,59.88023952,657b66ea316d21385b68909f,,,,,,,,,,,1234.0671,1235.065,,,1235.5637,1235.8098,,126,126,,,,,,,,,,,,,,,,bars/003.png,bars/mask004.png,,,,,,,,,,,,3,2,,,,,,,2,8,2,6,,,,,,,,,,,1235.0651,1235.5637,1235.8099,1241.5272,space,5.6973,,1241.5273,79,14,1242.5203,1242.5204,1242.542,,,,0,12,12,12,1,25,140,,,,,,,,
,,656696c9ea15de5f69b6ddfa,65af53973f5fcc7f4ffca76f,2024-01-23_24h00.47.517,bars,2023.2.3,Win32,59.88023952,657b66ea316d21385b68909f,,,,,,,,,,,1242.5422,1243.5357,,,1244.035,1244.2847,,154,154,,,,,,,,,,,,,,,,bars/016.png,bars/mask000.png,,,,,,,,,,,,6,2,,,,,,,4,10,5,9,,,,,,,,,,,1243.5358,1244.0348,1244.2848,1247.5485,space,3.2477,,1247.5486,66,11,1248.5464,1248.5466,1248.5693,,,,0,13,13,13,1,40,165,,,,,,,,
,,656696c9ea15de5f69b6ddfa,65af53973f5fcc7f4ffca76f,2024-01-23_24h00.47.517,bars,2023.2.3,Win32,59.88023952,657b66ea316d21385b68909f,,,,,,,,,,,1248.5697,1249.5623,,,1250.0625,1250.312,,122,122,,,,,,,,,,,,,,,,bars/041.png,bars/mask001.png,,,,,,,,,,,,0,2,,,,,,,2,10,2,10,,,,,,,,,,,1249.5624,1250.0622,1250.3123,1254.3758,space,4.0464,,1254.3758,78,37,1255.374,1255.3742,1255.401,,,,0,14,14,14,1,20,85,,,,,,,,
,,656696c9ea15de5f69b6ddfa,65af53973f5fcc7f4ffca76f,2024-01-23_24h00.47.517,bars,2023.2.3,Win32,59.88023952,657b66ea316d21385b68909f,,,,,,,,,,,1255.4013,1256.3892,,,1256.8901,1257.138,,39,39,,,,,,,,,,,,,,,,bars/030.png,bars/mask007.png,,,,,,,,,,,,1,2,,,,,,,0,10,0,10,,,,,,,,,,,1256.3892,1256.8898,1257.1381,1260.37,space,3.2228,,1260.3701,79,26,1261.3683,1261.3685,1261.3907,,,,0,15,15,15,1,140,65,,,,,,,,
,,656696c9ea15de5f69b6ddfa,65af53973f5fcc7f4ffca76f,2024-01-23_24h00.47.517,bars,2023.2.3,Win32,59.88023952,657b66ea316d21385b68909f,,,,,,,,,,,1261.391,1262.3887,,,1262.8881,1263.1336,,118,118,,,,,,,,,,,,,,,,bars/004.png,bars/mask006.png,,,,,,,,,,,,8,2,,,,,,,2,10,2,10,,,,,,,,,,,1262.3888,1262.888,1263.1337,1267.6186,space,4.4636,,1267.6186,87,7,1268.6172,1268.6173,1268.6403,,,,0,16,16,16,1,25,125,,,,,,,,
,,656696c9ea15de5f69b6ddfa,65af53973f5fcc7f4ffca76f,2024-01-23_24h00.47.517,bars,2023.2.3,Win32,59.88023952,657b66ea316d21385b68909f,,,,,,,,,,,1268.6406,1269.6434,,,1270.143,1270.3928,,71,71,,,,,,,,,,,,,,,,bars/030.png,bars/mask004.png,,,,,,,,,,,,6,2,,,,,,,0,10,0,8,,,,,,,,,,,1269.6436,1270.1429,1270.3928,1275.3716,space,4.9623,,1275.3717,69,6,1276.3705,1276.3705,1276.3946,,,,0,17,17,17,1,140,65,,,,,,,,
,,656696c9ea15de5f69b6ddfa,65af53973f5fcc7f4ffca76f,2024-01-23_24h00.47.517,bars,2023.2.3,Win32,59.88023952,657b66ea316d21385b68909f,,,,,,,,,,,1276.3948,1277.3872,,,1277.8856,1278.136,,21,21,,,,,,,,,,,,,,,,bars/013.png,bars/mask008.png,,,,,,,,,,,,6,2,,,,,,,2,10,2,10,,,,,,,,,,,1277.3873,1277.8855,1278.1361,1282.948,space,4.7963,,1282.9481,54,11,1283.9463,1283.9464,1283.9668,,,,0,18,18,18,1,75,10,,,,,,,,
,,656696c9ea15de5f69b6ddfa,65af53973f5fcc7f4ffca76f,2024-01-23_24h00.47.517,bars,2023.2.3,Win32,59.88023952,657b66ea316d21385b68909f,,,,,,,,,,,1283.9671,1284.9681,,,1285.4641,1285.7129,,100,100,,,,,,,,,,,,,,,,bars/018.png,bars/mask001.png,,,,,,,,,,,,7,2,,,,,,,0,10,1,10,,,,,,,,,,,1284.9682,1285.4639,1285.7129,1290.4797,space,4.7462,,1290.4798,50,10,1291.4743,1291.4744,1291.4987,,,,0,19,19,19,1,150,90,,,,,,,,
,,656696c9ea15de5f69b6ddfa,65af53973f5fcc7f4ffca76f,2024-01-23_24h00.47.517,bars,2023.2.3,Win32,59.88023952,657b66ea316d21385b68909f,,,,,,,,,,,1291.499,1292.4892,,,1292.9887,1293.2383,,109,109,,,,,,,,,,,,,,,,bars/045.png,bars/mask009.png,,,,,,,,,,,,1,1,,,,,,,2,10,1,8,,,,,,,,,,,1292.4894,1292.9886,1293.2383,1297.5706,space,4.322,,1297.5707,9,81,1298.5667,1298.5668,1298.5897,,,,0,20,20,20,1,100,10,,,,,,,,
,,656696c9ea15de5f69b6ddfa,65af53973f5fcc7f4ffca76f,2024-01-23_24h00.47.517,bars,2023.2.3,Win32,59.88023952,657b66ea316d21385b68909f,,,,,,,,,,,1298.59,1299.5819,,,1300.0819,1300.3316,,122,122,,,,,,,,,,,,,,,,bars/043.png,bars/mask005.png,,,,,,,,,,,,6,2,,,,,,,4,8,3,8,,,,,,,,,,,1299.5821,1300.0818,1300.3316,1305.0141,space,4.6725,,1305.0142,88,8,1306.0096,1306.0097,1306.0318,,,,0,21,21,21,1,30,130,,,,,,,,
,,656696c9ea15de5f69b6ddfa,65af53973f5fcc7f4ffca76f,2024-01-23_24h00.47.517,bars,2023.2.3,Win32,59.88023952,657b66ea316d21385b68909f,,,,,,,,,,,1306.0323,1307.0252,,,1307.524,1307.7747,,121,-59,,,,,,,,,,,,,,,,bars/024.png,bars/mask003.png,,,,,,,,,,,,7,1,,,,,,,6,10,7,10,,,,,,,,,,,1307.0253,1307.5239,1307.7747,1313.1537,space,5.3706,,1313.1537,1,49,1314.1518,1314.1518,1314.1745,,,,0,22,22,22,1,120,170,,,,,,,,
,,656696c9ea15de5f69b6ddfa,65af53973f5fcc7f4ffca76f,2024-01-23_24h00.47.517,bars,2023.2.3,Win32,59.88023952,657b66ea316d21385b68909f,,,,,,,,,,,1314.1749,1315.1694,,,1315.6672,1315.9167,,132,-48,,,,,,,,,,,,,,,,bars/049.png,bars/mask003.png,,,,,,,,,,,,4,2,,,,,,,4,10,4,10,,,,,,,,,,,1315.1696,1315.667,1315.9169,1326.5756,space,10.642,,1326.5757,28,17,1327.5733,1327.5736,1327.5979,,,,0,23,23,23,1,160,115,,,,,,,,
,,656696c9ea15de5f69b6ddfa,65af53973f5fcc7f4ffca76f,2024-01-23_24h00.47.517,bars,2023.2.3,Win32,59.88023952,657b66ea316d21385b68909f,,,,,,,,,,,1327.5983,1328.5887,,,1329.0881,1329.3374,,131,131,,,,,,,,,,,,,,,,bars/046.png,bars/mask008.png,,,,,,,,,,,,1,1,,,,,,,6,8,5,9,,,,,,,,,,,1328.5888,1329.0881,1329.3375,1335.9319,space,6.5801,,1335.9319,24,46,1336.9307,1336.9308,1336.9529,,,,0,24,24,24,1,155,85,,,,,,,,
,,656696c9ea15de5f69b6ddfa,65af53973f5fcc7f4ffca76f,2024-01-23_24h00.47.517,bars,2023.2.3,Win32,59.88023952,657b66ea316d21385b68909f,,,,,,,,,,,1336.9533,1337.9513,,,1338.4468,1338.7005,,102,102,,,,,,,,,,,,,,,,bars/021.png,bars/mask009.png,,,,,,,,,,,,0,2,,,,,,,4,6,4,7,,,,,,,,,,,1337.9513,1338.4467,1338.7006,1344.3973,space,5.683,,1344.3975,53,32,1345.3945,1345.3946,1345.418,,,,0,25,25,25,1,155,70,,,,,,,,
,,656696c9ea15de5f69b6ddfa,65af53973f5fcc7f4ffca76f,2024-01-23_24h00.47.517,bars,2023.2.3,Win32,59.88023952,657b66ea316d21385b68909f,,,,,,,,,,,1345.4183,1346.4215,,,1346.9211,1347.1709,,125,125,,,,,,,,,,,,,,,,bars/034.png,bars/mask005.png,,,,,,,,,,,,1,1,,,,,,,2,8,1,8,,,,,,,,,,,1346.4216,1346.9209,1347.171,1352.0339,space,4.8465,,1352.034,0,60,1353.0325,1353.0326,1353.0553,,,,0,26,26,26,1,125,65,,,,,,,,
,,656696c9ea15de5f69b6ddfa,65af53973f5fcc7f4ffca76f,2024-01-23_24h00.47.517,bars,2023.2.3,Win32,59.88023952,657b66ea316d21385b68909f,,,,,,,,,,,1353.0556,1354.0497,,,1354.5473,1354.798,,3,3,,,,,,,,,,,,,,,,bars/012.png,bars/mask008.png,,,,,,,,,,,,5,2,,,,,,,4,10,5,9,,,,,,,,,,,1354.0498,1354.5472,1354.7982,1361.2256,space,6.416,,1361.2258,87,12,1362.2243,1362.2243,1362.249,,,,0,27,27,27,1,90,15,,,,,,,,
,,656696c9ea15de5f69b6ddfa,65af53973f5fcc7f4ffca76f,2024-01-23_24h00.47.517,bars,2023.2.3,Win32,59.88023952,657b66ea316d21385b68909f,,,,,,,,,,,1362.2494,1363.239,,,1363.7387,1363.9885,,128,128,,,,,,,,,,,,,,,,bars/015.png,bars/mask009.png,,,,,,,,,,,,1,1,,,,,,,2,10,2,9,,,,,,,,,,,1363.2391,1363.7386,1363.9885,1367.9505,space,3.9472,,1367.9506,18,32,1368.9505,1368.9506,1368.9735,,,,0,28,28,28,1,110,160,,,,,,,,
,,656696c9ea15de5f69b6ddfa,65af53973f5fcc7f4ffca76f,2024-01-23_24h00.47.517,bars,2023.2.3,Win32,59.88023952,657b66ea316d21385b68909f,,,,,,,,,,,1368.9739,1369.9718,,,1370.4673,1370.7171,,110,110,,,,,,,,,,,,,,,,bars/015.png,bars/mask000.png,,,,,,,,,,,,0,1,,,,,,,0,8,0,8,,,,,,,,,,,1369.9719,1370.4671,1370.7172,1376.2508,space,5.5127,,1376.2509,0,50,1377.2443,1377.2443,1377.268,,,,0,29,29,29,1,110,160,,,,,,,,
,,656696c9ea15de5f69b6ddfa,65af53973f5fcc7f4ffca76f,2024-01-23_24h00.47.517,bars,2023.2.3,Win32,59.88023952,657b66ea316d21385b68909f,,,,,,,,,,,1377.2684,1378.2586,,,1378.7582,1379.0072,,44,44,,,,,,,,,,,,,,,,bars/035.png,bars/mask000.png,,,,,,,,,,,,4,2,,,,,,,2,10,2,9,,,,,,,,,,,1378.2586,1378.7581,1379.0073,1384.9865,space,5.9639,,1384.9867,49,16,1385.985,1385.9851,1386.0079,,,,0,30,30,30,1,175,60,,,,,,,,
,,656696c9ea15de5f69b6ddfa,65af53973f5fcc7f4ffca76f,2024-01-23_24h00.47.517,bars,2023.2.3,Win32,59.88023952,657b66ea316d21385b68909f,,,,,,,,,,,1386.0084,1387.0006,,,1387.5016,1387.7511,,114,114,,,,,,,,,,,,,,,,bars/019.png,bars/mask008.png,,,,,,,,,,,,6,2,,,,,,,0,8,0,8,,,,,,,,,,,1387.0009,1387.5013,1387.7511,1391.066,space,3.2986,,1391.066,69,9,1392.0622,1392.0625,1392.0849,,,,0,31,31,31,1,45,105,,,,,,,,
,,656696c9ea15de5f69b6ddfa,65af53973f5fcc7f4ffca76f,2024-01-23_24h00.47.517,bars,2023.2.3,Win32,59.88023952,657b66ea316d21385b68909f,,,,,,,,,,,1392.0852,1393.0786,,,1393.5795,1393.8283,,31,31,,,,,,,,,,,,,,,,bars/048.png,bars/mask007.png,,,,,,,,,,,,0,1,,,,,,,0,6,0,5,,,,,,,,,,,1393.0788,1393.5794,1393.8285,1398.2079,space,4.3671,,1398.208,19,36,1399.2062,1399.2067,1399.2317,,,,0,32,32,32,1,50,175,,,,,,,,
,,656696c9ea15de5f69b6ddfa,65af53973f5fcc7f4ffca76f,2024-01-23_24h00.47.517,bars,2023.2.3,Win32,59.88023952,657b66ea316d21385b68909f,,,,,,,,,,,1399.232,1400.2215,,,1400.7212,1400.9704,,25,25,,,,,,,,,,,,,,,,bars/016.png,bars/mask003.png,,,,,,,,,,,,1,1,,,,,,,0,4,1,4,,,,,,,,,,,1400.2216,1400.7211,1400.9705,1406.5991,space,5.613,,1406.5992,15,40,1407.598,1407.5981,1407.6191,,,,0,33,33,33,1,40,165,,,,,,,,
,,656696c9ea15de5f69b6ddfa,65af53973f5fcc7f4ffca76f,2024-01-23_24h00.47.517,bars,2023.2.3,Win32,59.88023952,657b66ea316d21385b68909f,,,,,,,,,,,1407.6195,1408.6189,,,1409.1187,1409.3686,,115,115,,,,,,,,,,,,,,,,bars/027.png,bars/mask000.png,,,,,,,,,,,,1,1,,,,,,,0,6,1,6,,,,,,,,,,,1408.6189,1409.1187,1409.3686,1413.2157,space,3.8304,,1413.2158,5,65,1414.2142,1414.2142,1414.2379,,,,0,34,34,34,1,110,50,,,,,,,,
,,656696c9ea15de5f69b6ddfa,65af53973f5fcc7f4ffca76f,2024-01-23_24h00.47.517,bars,2023.2.3,Win32,59.88023952,657b66ea316d21385b68909f,,,,,,,,,,,1414.2382,1415.2408,,,1415.7407,1415.9902,,15,15,,,,,,,,,,,,,,,,bars/022.png,bars/mask003.png,,,,,,,,,,,,6,2,,,,,,,2,8,2,7,,,,,,,,,,,1415.2409,1415.7406,1415.9903,1424.5162,space,8.5106,,1424.5163,80,5,1425.5148,1425.5149,1425.5364,,,,0,35,35,35,1,95,20,,,,,,,,
,,656696c9ea15de5f69b6ddfa,65af53973f5fcc7f4ffca76f,2024-01-23_24h00.47.517,bars,2023.2.3,Win32,59.88023952,657b66ea316d21385b68909f,,,,,,,,,,,1425.5368,1426.5311,,,1427.0306,1427.2689,,61,61,,,,,,,,,,,,,,,,bars/012.png,bars/mask000.png,,,,,,,,,,,,0,1,,,,,,,4,6,4,6,,,,,,,,,,,1426.5312,1427.0305,1427.269,1431.9459,space,4.6613,,1431.9459,29,46,1432.9471,1432.9472,1432.9703,,,,0,36,36,36,1,90,15,,,,,,,,
,,656696c9ea15de5f69b6ddfa,65af53973f5fcc7f4ffca76f,2024-01-23_24h00.47.517,bars,2023.2.3,Win32,59.88023952,657b66ea316d21385b68909f,,,,,,,,,,,1432.9708,1433.9735,,,1434.4728,1434.7224,,49,49,,,,,,,,,,,,,,,,bars/035.png,bars/mask000.png,,,,,,,,,,,,5,2,,,,,,,6,8,6,8,,,,,,,,,,,1433.9736,1434.4727,1434.7224,1439.1688,space,4.4359,,1439.169,54,11,1440.1673,1440.1674,1440.1894,,,,0,37,37,37,1,175,60,,,,,,,,
,,656696c9ea15de5f69b6ddfa,65af53973f5fcc7f4ffca76f,2024-01-23_24h00.47.517,bars,2023.2.3,Win32,59.88023952,657b66ea316d21385b68909f,,,,,,,,,,,1440.1898,1441.1844,,,1441.6887,1441.9392,,123,123,,,,,,,,,,,,,,,,bars/026.png,bars/mask007.png,,,,,,,,,,,,0,2,,,,,,,8,6,8,6,,,,,,,,,,,1441.1846,1441.6887,1441.9393,1448.0011,space,6.0461,,1448.0012,88,38,1448.9939,1448.9939,1449.0149,,,,0,38,38,38,1,35,85,,,,,,,,
,,656696c9ea15de5f69b6ddfa,65af53973f5fcc7f4ffca76f,2024-01-23_24h00.47.517,bars,2023.2.3,Win32,59.88023952,657b66ea316d21385b68909f,,,,,,,,,,,1449.0152,1450.0132,,,1450.5128,1450.7588,,112,112,,,,,,,,,,,,,,,,bars/018.png,bars/mask004.png,,,,,,,,,,,,1,2,,,,,,,6,4,4,4,,,,,,,,,,,1450.0134,1450.5128,1450.7589,1454.8364,space,4.0521,,1454.8364,38,22,1455.8357,1455.8357,1455.8555,,,,0,39,39,39,1,150,90,,,,,,,,
,,656696c9ea15de5f69b6ddfa,65af53973f5fcc7f4ffca76f,2024-01-23_24h00.47.517,bars,2023.2.3,Win32,59.88023952,657b66ea316d21385b68909f,,,,,,,,,,,1455.8558,1456.8569,,,1457.3575,1457.6054,,11,11,,,,,,,,,,,,,,,,bars/008.png,bars/mask007.png,,,,,,,,,,,,3,2,,,,,,,4,6,5,5,,,,,,,,,,,1456.857,1457.3574,1457.6056,1461.3374,space,3.7143,,1461.3374,81,11,1462.3356,1462.3357,1462.3587,,,,0,40,40,40,1,110,0,,,,,,,,
,,656696c9ea15de5f69b6ddfa,65af53973f5fcc7f4ffca76f,2024-01-23_24h00.47.517,bars,2023.2.3,Win32,59.88023952,657b66ea316d21385b68909f,,,,,,,,,,,1462.3593,1463.3619,,,1463.8633,1464.1114,,111,111,,,,,,,,,,,,,,,,bars/019.png,bars/mask008.png,,,,,,,,,,,,6,2,,,,,,,6,8,8,8,,,,,,,,,,,1463.362,1463.8631,1464.1115,1466.9776,space,2.8561,,1466.9778,66,6,1467.9744,1467.9744,1467.9951,,,,0,41,41,41,1,45,105,,,,,,,,
,,656696c9ea15de5f69b6ddfa,65af53973f5fcc7f4ffca76f,2024-01-23_24h00.47.517,bars,2023.2.3,Win32,59.88023952,657b66ea316d21385b68909f,,,,,,,,,,,1467.9954,1468.9924,,,1469.4957,1469.7405,,86,86,,,,,,,,,,,,,,,,bars/002.png,bars/mask003.png,,,,,,,,,,,,7,2,,,,,,,8,6,7,7,,,,,,,,,,,1468.9924,1469.4957,1469.7406,1473.6249,space,3.8629,,1473.625,44,1,1474.6191,1474.6196,1474.6423,,,,0,42,42,42,1,130,85,,,,,,,,
,,656696c9ea15de5f69b6ddfa,65af53973f5fcc7f4ffca76f,2024-01-23_24h00.47.517,bars,2023.2.3,Win32,59.88023952,657b66ea316d21385b68909f,,,,,,,,,,,1474.6428,1475.6349,,,1476.134,1476.3828,,105,105,,,,,,,,,,,,,,,,bars/023.png,bars/mask008.png,,,,,,,,,,,,3,2,,,,,,,6,4,6,5,,,,,,,,,,,1475.635,1476.1338,1476.3828,1481.7622,space,5.363,,1481.7623,85,10,1482.7606,1482.7608,1482.7811,,,,0,43,43,43,1,20,115,,,,,,,,
,,656696c9ea15de5f69b6ddfa,65af53973f5fcc7f4ffca76f,2024-01-23_24h00.47.517,bars,2023.2.3,Win32,59.88023952,657b66ea316d21385b68909f,,,,,,,,,,,1482.7814,1483.7786,,,1484.2767,1484.5145,,103,103,,,,,,,,,,,,,,,,bars/037.png,bars/mask009.png,,,,,,,,,,,,2,2,,,,,,,4,2,5,2,,,,,,,,,,,1483.7787,1484.2766,1484.5145,1488.6555,space,4.1174,,1488.6556,47,2,1489.6545,1489.6546,1489.6757,,,,0,44,44,44,1,150,105,,,,,,,,
,,656696c9ea15de5f69b6ddfa,65af53973f5fcc7f4ffca76f,2024-01-23_24h00.47.517,bars,2023.2.3,Win32,59.88023952,657b66ea316d21385b68909f,,,,,,,,,,,1489.6761,1490.676,,,1491.1748,1491.4255,,23,203,,,,,,,,,,,,,,,,bars/032.png,bars/mask001.png,,,,,,,,,,,,0,2,,,,,,,2,0,4,0,,,,,,,,,,,1490.676,1491.1748,1491.4256,1497.6032,space,6.1613,,1497.6033,78,3,1498.5971,1498.5973,1498.6193,,,,0,45,45,45,1,125,20,,,,,,,,
,,656696c9ea15de5f69b6ddfa,65af53973f5fcc7f4ffca76f,2024-01-23_24h00.47.517,bars,2023.2.3,Win32,59.88023952,657b66ea316d21385b68909f,,,,,,,,,,,1498.6198,1499.6171,,,1500.1127,1500.3635,,104,104,,,,,,,,,,,,,,,,bars/002.png,bars/mask002.png,,,,,,,,,,,,0,2,,,,,,,4,0,2,0,,,,,,,,,,,1499.6171,1500.1124,1500.3636,1506.4786,space,6.095,,1506.4786,26,19,1507.4764,1507.4765,1507.4974,,,,0,46,46,46,1,130,85,,,,,,,,
,,656696c9ea15de5f69b6ddfa,65af53973f5fcc7f4ffca76f,2024-01-23_24h00.47.517,bars,2023.2.3,Win32,59.88023952,657b66ea316d21385b68909f,,,,,,,,,,,1507.4978,1508.4869,,,1508.9864,1509.235,,108,108,,,,,,,,,,,,,,,,bars/019.png,bars/mask000.png,,,,,,,,,,,,1,2,,,,,,,2,2,1,1,,,,,,,,,,,1508.4869,1508.9863,1509.2358,1514.9476,space,5.6993,,1514.9476,63,3,1515.9451,1515.9451,1515.9649,,,,0,47,47,47,1,45,105,,,,,,,,
,,656696c9ea15de5f69b6ddfa,65af53973f5fcc7f4ffca76f,2024-01-23_24h00.47.517,bars,2023.2.3,Win32,59.88023952,657b66ea316d21385b68909f,,,,,,,,,,,1515.9652,1516.9676,,,1517.4622,1517.7128,,109,109,,,,,,,,,,,,,,,,bars/009.png,bars/mask004.png,,,,,,,,,,,,0,2,,,,,,,4,0,4,0,,,,,,,,,,,1516.9677,1517.4621,1517.7129,1520.4334,space,2.6987,,1520.4334,86,4,1521.4255,1521.4256,1521.4472,,,,0,48,48,48,1,15,105,,,,,,,,
,,656696c9ea15de5f69b6ddfa,65af53973f5fcc7f4ffca76f,2024-01-23_24h00.47.517,bars,2023.2.3,Win32,59.88023952,657b66ea316d21385b68909f,,,,,,,,,,,1521.4475,1522.4456,,,1522.9407,1523.1956,,113,113,,,,,,,,,,,,,,,,bars/000.png,bars/mask008.png,,,,,,,,,,,,0,2,,,,,,,6,0,6,1,,,,,,,,,,,1522.4457,1522.9406,1523.1958,1526.0558,space,2.8421,,1526.0561,73,32,1527.0531,1527.0531,1527.0756,,,,0,49,49,49,1,40,145,,,,,,,,
,,656696c9ea15de5f69b6ddfa,65af53973f5fcc7f4ffca76f,2024-01-23_24h00.47.517,bars,2023.2.3,Win32,59.88023952,657b66ea316d21385b68909f,,,,,,,,,,,,,,,,,,,,,,,,,,,,,,,,,,,,,,,,,,,,,,,,,,,,,,,,,,,,,,,,,,,,,,,,,,,,,,,,,,,,,,,,,,,,,1527.076,1587.0638,0,1,1,0,1,sequence_tables/blk030.csv
,,656696c9ea15de5f69b6ddfa,65af53973f5fcc7f4ffca76f,2024-01-23_24h00.47.517,bars,2023.2.3,Win32,59.88023952,657b66ea316d21385b68909f,,,,,,,,,,,1599.4689,1600.4509,,,1600.951,1601.2019,,112,112,,,,,,,,,,,,,,,,bars/041.png,bars/mask001.png,,,,,,,,,,,,0,2,,,,,,,4,2,4,1,,,,,,1587.0842,1599.4371,space,12.3396,,1600.4511,1600.951,1601.202,1605.8805,space,4.6636,,1605.8806,88,27,1606.8795,1606.8798,1606.9044,,,,0,0,0,0,1,20,85,,,,,,,,
,,656696c9ea15de5f69b6ddfa,65af53973f5fcc7f4ffca76f,2024-01-23_24h00.47.517,bars,2023.2.3,Win32,59.88023952,657b66ea316d21385b68909f,,,,,,,,,,,1606.9047,1607.8945,,,1608.3942,1608.6431,,50,50,,,,,,,,,,,,,,,,bars/029.png,bars/mask005.png,,,,,,,,,,,,3,2,,,,,,,2,4,3,3,,,,,,,,,,,1607.8946,1608.3941,1608.6434,1613.9569,space,5.2997,,1613.9571,40,5,1614.9544,1614.9545,1614.9748,,,,0,1,1,1,1,90,45,,,,,,,,
,,656696c9ea15de5f69b6ddfa,65af53973f5fcc7f4ffca76f,2024-01-23_24h00.47.517,bars,2023.2.3,Win32,59.88023952,657b66ea316d21385b68909f,,,,,,,,,,,1614.975,1615.9761,,,1616.4757,1616.7235,,105,105,,,,,,,,,,,,,,,,bars/031.png,bars/mask005.png,,,,,,,,,,,,0,1,,,,,,,0,6,0,6,,,,,,,,,,,1615.9762,1616.4756,1616.7236,1621.1889,space,4.4506,,1621.189,15,70,1622.1858,1622.1859,1622.2092,,,,0,2,2,2,1,120,35,,,,,,,,
,,656696c9ea15de5f69b6ddfa,65af53973f5fcc7f4ffca76f,2024-01-23_24h00.47.517,bars,2023.2.3,Win32,59.88023952,657b66ea316d21385b68909f,,,,,,,,,,,1622.2097,1623.2131,,,1623.7132,1623.9625,,61,61,,,,,,,,,,,,,,,,bars/035.png,bars/mask006.png,,,,,,,,,,,,5,2,,,,,,,2,4,0,5,,,,,,,,,,,1623.2132,1623.7131,1623.9625,1627.2292,space,3.257,,1627.2293,66,1,1628.2239,1628.224,1628.2332,,,,0,3,3,3,1,175,60,,,,,,,,
,,656696c9ea15de5f69b6ddfa,65af53973f5fcc7f4ffca76f,2024-01-23_24h00.47.517,bars,2023.2.3,Win32,59.88023952,657b66ea316d21385b68909f,,,,,,,,,,,1628.2334,1629.2232,,,1629.7245,1629.9741,,25,25,,,,,,,,,,,,,,,,bars/036.png,bars/mask005.png,,,,,,,,,,,,3,2,,,,,,,0,2,0,3,,,,,,,,,,,1629.2232,1629.7243,1629.9743,1633.6724,space,3.6892,,1633.6726,60,5,1634.6708,1634.6709,1634.6935,,,,0,4,4,4,1,145,20,,,,,,,,
,,656696c9ea15de5f69b6ddfa,65af53973f5fcc7f4ffca76f,2024-01-23_24h00.47.517,bars,2023.2.3,Win32,59.88023952,657b66ea316d21385b68909f,,,,,,,,,,,1634.6938,1635.6867,,,1636.1856,1636.4343,,114,114,,,,,,,,,,,,,,,,bars/005.png,bars/mask008.png,,,,,,,,,,,,1,2,,,,,,,0,4,0,5,,,,,,,,,,,1635.6869,1636.1853,1636.4344,1639.1502,space,2.704,,1639.1502,76,26,1640.1473,1640.1473,1640.1701,,,,0,5,5,5,1,10,140,,,,,,,,
,,656696c9ea15de5f69b6ddfa,65af53973f5fcc7f4ffca76f,2024-01-23_24h00.47.517,bars,2023.2.3,Win32,59.88023952,657b66ea316d21385b68909f,,,,,,,,,,,1640.1706,1641.1635,,,1641.6643,1641.912,,108,108,,,,,,,,,,,,,,,,bars/039.png,bars/mask008.png,,,,,,,,,,,,1,2,,,,,,,0,2,0,1,,,,,,,,,,,1641.1636,1641.6641,1641.9122,1647.0258,space,5.101,,1647.0259,67,3,1648.0234,1648.0237,1648.0466,,,,0,6,6,6,1,175,105,,,,,,,,
,,656696c9ea15de5f69b6ddfa,65af53973f5fcc7f4ffca76f,2024-01-23_24h00.47.517,bars,2023.2.3,Win32,59.88023952,657b66ea316d21385b68909f,,,,,,,,,,,1648.0471,1649.04,,,1649.5387,1649.7888,,98,98,,,,,,,,,,,,,,,,bars/037.png,bars/mask009.png,,,,,,,,,,,,1,2,,,,,,,0,0,1,1,,,,,,,,,,,1649.0401,1649.5385,1649.7888,1656.3007,space,6.4961,,1656.3009,52,7,1657.2985,1657.2987,1657.3215,,,,0,7,7,7,1,150,105,,,,,,,,
,,656696c9ea15de5f69b6ddfa,65af53973f5fcc7f4ffca76f,2024-01-23_24h00.47.517,bars,2023.2.3,Win32,59.88023952,657b66ea316d21385b68909f,,,,,,,,,,,1657.3218,1658.3136,,,1658.8133,1659.0637,,106,106,,,,,,,,,,,,,,,,bars/049.png,bars/mask001.png,,,,,,,,,,,,1,2,,,,,,,0,2,0,2,,,,,,,,,,,1658.3138,1658.8132,1659.0638,1665.0929,space,6.0124,,1665.0929,54,9,1666.0902,1666.0904,1666.113,,,,0,8,8,8,1,160,115,,,,,,,,
,,656696c9ea15de5f69b6ddfa,65af53973f5fcc7f4ffca76f,2024-01-23_24h00.47.517,bars,2023.2.3,Win32,59.88023952,657b66ea316d21385b68909f,,,,,,,,,,,1666.1133,1667.1059,,,1667.6057,1667.8549,,60,60,,,,,,,,,,,,,,,,bars/011.png,bars/mask003.png,,,,,,,,,,,,0,2,,,,,,,2,0,1,1,,,,,,,,,,,1667.1061,1667.6053,1667.855,1684.6907,space,16.8183,,1684.6908,80,25,1685.6886,1685.6889,1685.7154,,,,0,9,9,9,1,160,85,,,,,,,,
,,656696c9ea15de5f69b6ddfa,65af53973f5fcc7f4ffca76f,2024-01-23_24h00.47.517,bars,2023.2.3,Win32,59.88023952,657b66ea316d21385b68909f,,,,,,,,,,,1685.7159,1686.7044,,,1687.2035,1687.4536,,112,112,,,,,,,,,,,,,,,,bars/040.png,bars/mask003.png,,,,,,,,,,,,0,1,,,,,,,0,0,0,0,,,,,,,,,,,1686.7045,1687.2035,1687.4537,1697.8336,space,10.3706,,1697.8338,28,73,1698.8272,1698.8273,1698.8515,,,,0,10,10,10,1,140,5,,,,,,,,
,,656696c9ea15de5f69b6ddfa,65af53973f5fcc7f4ffca76f,2024-01-23_24h00.47.517,bars,2023.2.3,Win32,59.88023952,657b66ea316d21385b68909f,,,,,,,,,,,1698.8519,1699.8423,,,1700.3417,1700.5914,,174,-6,,,,,,,,,,,,,,,,bars/033.png,bars/mask004.png,,,,,,,,,,,,1,2,,,,,,,2,2,3,3,,,,,,,,,,,1699.8424,1700.3416,1700.5915,1706.6866,space,6.0863,,1706.6867,31,19,1707.6842,1707.6843,1707.7055,,,,0,11,11,11,1,25,155,,,,,,,,
,,656696c9ea15de5f69b6ddfa,65af53973f5fcc7f4ffca76f,2024-01-23_24h00.47.517,bars,2023.2.3,Win32,59.88023952,657b66ea316d21385b68909f,,,,,,,,,,,1707.7059,1708.7063,,,1709.2024,1709.4556,,37,37,,,,,,,,,,,,,,,,bars/019.png,bars/mask001.png,,,,,,,,,,,,0,1,,,,,,,0,0,0,0,,,,,,,,,,,1708.7065,1709.2024,1709.4556,1713.9139,space,4.4359,,1713.914,8,68,1714.9125,1714.9125,1714.9359,,,,0,12,12,12,1,45,105,,,,,,,,
,,656696c9ea15de5f69b6ddfa,65af53973f5fcc7f4ffca76f,2024-01-23_24h00.47.517,bars,2023.2.3,Win32,59.88023952,657b66ea316d21385b68909f,,,,,,,,,,,1714.9362,1715.9265,,,1716.4264,1716.6765,,108,108,,,,,,,,,,,,,,,,bars/019.png,bars/mask003.png,,,,,,,,,,,,0,2,,,,,,,0,2,0,0,,,,,,,,,,,1715.9266,1716.4263,1716.6765,1719.8568,space,3.1684,,1719.8569,63,3,1720.8555,1720.8555,1720.8766,,,,0,13,13,13,1,45,105,,,,,,,,
,,656696c9ea15de5f69b6ddfa,65af53973f5fcc7f4ffca76f,2024-01-23_24h00.47.517,bars,2023.2.3,Win32,59.88023952,657b66ea316d21385b68909f,,,,,,,,,,,1720.8768,1721.877,,,1722.3762,1722.6253,,97,97,,,,,,,,,,,,,,,,bars/019.png,bars/mask005.png,,,,,,,,,,,,3,2,,,,,,,0,4,0,4,,,,,,,,,,,1721.8771,1722.3759,1722.6254,1726.7517,space,4.1049,,1726.7519,52,8,1727.7546,1727.7547,1727.7847,,,,0,14,14,14,1,45,105,,,,,,,,
,,656696c9ea15de5f69b6ddfa,65af53973f5fcc7f4ffca76f,2024-01-23_24h00.47.517,bars,2023.2.3,Win32,59.88023952,657b66ea316d21385b68909f,,,,,,,,,,,1727.7852,1728.7866,,,1729.2872,1729.5358,,115,115,,,,,,,,,,,,,,,,bars/005.png,bars/mask002.png,,,,,,,,,,,,0,2,,,,,,,2,2,3,2,,,,,,,,,,,1728.7867,1729.2871,1729.5359,1737.2964,space,7.7439,,1737.2964,75,25,1738.291,1738.2912,1738.3143,,,,0,15,15,15,1,10,140,,,,,,,,
,,656696c9ea15de5f69b6ddfa,65af53973f5fcc7f4ffca76f,2024-01-23_24h00.47.517,bars,2023.2.3,Win32,59.88023952,657b66ea316d21385b68909f,,,,,,,,,,,1738.3146,1739.3051,,,1739.8038,1740.0544,,128,128,,,,,,,,,,,,,,,,bars/022.png,bars/mask007.png,,,,,,,,,,,,0,1,,,,,,,0,0,0,0,,,,,,,,,,,1739.3052,1739.8038,1740.0545,1746.5833,space,6.5203,,1746.5836,33,72,1747.5807,1747.5808,1747.6023,,,,0,16,16,16,1,95,20,,,,,,,,
,,656696c9ea15de5f69b6ddfa,65af53973f5fcc7f4ffca76f,2024-01-23_24h00.47.517,bars,2023.2.3,Win32,59.88023952,657b66ea316d21385b68909f,,,,,,,,,,,1747.6026,1748.602,,,1749.1012,1749.3512,,55,-125,,,,,,,,,,,,,,,,bars/042.png,bars/mask003.png,,,,,,,,,,,,1,2,,,,,,,0,2,0,2,,,,,,,,,,,1748.6021,1749.1011,1749.3513,1755.308,space,5.9364,,1755.3082,90,20,1756.3114,1756.3115,1756.3386,,,,0,17,17,17,1,145,75,,,,,,,,
,,656696c9ea15de5f69b6ddfa,65af53973f5fcc7f4ffca76f,2024-01-23_24h00.47.517,bars,2023.2.3,Win32,59.88023952,657b66ea316d21385b68909f,,,,,,,,,,,1756.3391,1757.3374,,,1757.8377,1758.0872,,4,4,,,,,,,,,,,,,,,,bars/008.png,bars/mask007.png,,,,,,,,,,,,2,2,,,,,,,0,4,0,2,,,,,,,,,,,1757.3374,1757.8376,1758.0874,1764.7481,space,6.6461,,1764.7481,74,4,1765.7472,1765.7472,1765.7681,,,,0,18,18,18,1,110,0,,,,,,,,
,,656696c9ea15de5f69b6ddfa,65af53973f5fcc7f4ffca76f,2024-01-23_24h00.47.517,bars,2023.2.3,Win32,59.88023952,657b66ea316d21385b68909f,,,,,,,,,,,1765.7684,1766.7568,,,1767.2454,1767.4956,,99,99,,,,,,,,,,,,,,,,bars/021.png,bars/mask005.png,,,,,,,,,,,,0,2,,,,,,,2,6,4,8,,,,,,,,,,,1766.7569,1767.2453,1767.4957,1770.114,space,2.6087,,1770.1141,56,29,1771.1084,1771.1085,1771.1288,,,,0,19,19,19,1,155,70,,,,,,,,
,,656696c9ea15de5f69b6ddfa,65af53973f5fcc7f4ffca76f,2024-01-23_24h00.47.517,bars,2023.2.3,Win32,59.88023952,657b66ea316d21385b68909f,,,,,,,,,,,1771.1292,1772.1292,,,1772.6248,1772.8625,,24,24,,,,,,,,,,,,,,,,bars/048.png,bars/mask009.png,,,,,,,,,,,,0,1,,,,,,,0,4,0,3,,,,,,,,,,,1772.1292,1772.6246,1772.8625,1776.8767,space,3.9969,,1776.8767,26,29,1777.8712,1777.8713,1777.8964,,,,0,20,20,20,1,50,175,,,,,,,,
,,656696c9ea15de5f69b6ddfa,65af53973f5fcc7f4ffca76f,2024-01-23_24h00.47.517,bars,2023.2.3,Win32,59.88023952,657b66ea316d21385b68909f,,,,,,,,,,,1777.8969,1778.9009,,,1779.4,1779.6501,,119,119,,,,,,,,,,,,,,,,bars/040.png,bars/mask006.png,,,,,,,,,,,,1,1,,,,,,,2,6,3,7,,,,,,,,,,,1778.9009,1779.3999,1779.6501,1785.0115,space,5.3459,,1785.0116,21,66,1786.0106,1786.0107,1786.0313,,,,0,21,21,21,1,140,5,,,,,,,,
,,656696c9ea15de5f69b6ddfa,65af53973f5fcc7f4ffca76f,2024-01-23_24h00.47.517,bars,2023.2.3,Win32,59.88023952,657b66ea316d21385b68909f,,,,,,,,,,,1786.0317,1787.0273,,,1787.5166,1787.7653,,48,48,,,,,,,,,,,,,,,,bars/007.png,bars/mask006.png,,,,,,,,,,,,7,2,,,,,,,0,8,0,9,,,,,,,,,,,1787.0274,1787.5165,1787.7654,1797.9691,space,10.1915,,1797.9691,53,7,1798.9709,1798.971,1798.9958,,,,0,22,22,22,1,175,55,,,,,,,,
,,656696c9ea15de5f69b6ddfa,65af53973f5fcc7f4ffca76f,2024-01-23_24h00.47.517,bars,2023.2.3,Win32,59.88023952,657b66ea316d21385b68909f,,,,,,,,,,,1798.9974,1799.9985,,,1800.4979,1800.7475,,45,45,,,,,,,,,,,,,,,,bars/019.png,bars/mask008.png,,,,,,,,,,,,1,1,,,,,,,0,6,1,5,,,,,,,,,,,1799.9986,1800.4978,1800.7475,1823.3439,space,22.5807,,1823.344,0,60,1824.3421,1824.3422,1824.364,,,,0,23,23,23,1,45,105,,,,,,,,
,,656696c9ea15de5f69b6ddfa,65af53973f5fcc7f4ffca76f,2024-01-23_24h00.47.517,bars,2023.2.3,Win32,59.88023952,657b66ea316d21385b68909f,,,,,,,,,,,1824.3643,1825.3641,,,1825.8631,1826.1129,,27,27,,,,,,,,,,,,,,,,bars/008.png,bars/mask006.png,,,,,,,,,,,,1,2,,,,,,,2,8,2,9,,,,,,,,,,,1825.3641,1825.863,1826.113,1830.2741,space,4.1535,,1830.2741,83,27,1831.2687,1831.2688,1831.2906,,,,0,24,24,24,1,110,0,,,,,,,,
,,656696c9ea15de5f69b6ddfa,65af53973f5fcc7f4ffca76f,2024-01-23_24h00.47.517,bars,2023.2.3,Win32,59.88023952,657b66ea316d21385b68909f,,,,,,,,,,,1831.2908,1832.2896,,,1832.7904,1833.0351,,130,130,,,,,,,,,,,,,,,,bars/040.png,bars/mask003.png,,,,,,,,,,,,1,1,,,,,,,0,10,1,10,,,,,,,,,,,1832.2896,1832.7902,1833.0351,1839.7507,space,6.6941,,1839.7508,10,55,1840.7487,1840.7488,1840.7716,,,,0,25,25,25,1,140,5,,,,,,,,
,,656696c9ea15de5f69b6ddfa,65af53973f5fcc7f4ffca76f,2024-01-23_24h00.47.517,bars,2023.2.3,Win32,59.88023952,657b66ea316d21385b68909f,,,,,,,,,,,1840.7719,1841.776,,,1842.2803,1842.5303,,56,56,,,,,,,,,,,,,,,,bars/035.png,bars/mask000.png,,,,,,,,,,,,8,2,,,,,,,2,8,3,9,,,,,,,,,,,1841.7761,1842.2803,1842.5304,1846.8712,space,4.3182,,1846.8714,61,4,1847.8701,1847.8703,1847.8922,,,,0,26,26,26,1,175,60,,,,,,,,
,,656696c9ea15de5f69b6ddfa,65af53973f5fcc7f4ffca76f,2024-01-23_24h00.47.517,bars,2023.2.3,Win32,59.88023952,657b66ea316d21385b68909f,,,,,,,,,,,1847.8927,1848.8907,,,1849.387,1849.6413,,46,46,,,,,,,,,,,,,,,,bars/044.png,bars/mask000.png,,,,,,,,,,,,0,1,,,,,,,0,10,0,10,,,,,,,,,,,1848.8907,1849.3869,1849.6413,1853.4887,space,3.8309,,1853.4888,29,71,1854.4864,1854.4864,1854.5105,,,,0,27,27,27,1,75,155,,,,,,,,
,,656696c9ea15de5f69b6ddfa,65af53973f5fcc7f4ffca76f,2024-01-23_24h00.47.517,bars,2023.2.3,Win32,59.88023952,657b66ea316d21385b68909f,,,,,,,,,,,1854.5127,1855.5128,,,1856.0125,1856.2623,,107,107,,,,,,,,,,,,,,,,bars/041.png,bars/mask000.png,,,,,,,,,,,,3,2,,,,,,,0,10,0,10,,,,,,,,,,,1855.5129,1856.0124,1856.2623,1863.0587,space,6.7862,,1863.0587,87,22,1864.0554,1864.0554,1864.0774,,,,0,28,28,28,1,20,85,,,,,,,,
,,656696c9ea15de5f69b6ddfa,65af53973f5fcc7f4ffca76f,2024-01-23_24h00.47.517,bars,2023.2.3,Win32,59.88023952,657b66ea316d21385b68909f,,,,,,,,,,,1864.0778,1865.0762,,,1865.5761,1865.824,,152,-28,,,,,,,,,,,,,,,,bars/033.png,bars/mask007.png,,,,,,,,,,,,9,2,,,,,,,0,10,1,10,,,,,,,,,,,1865.0763,1865.5761,1865.824,1871.7045,space,5.8616,,1871.7047,53,3,1872.6964,1872.6966,1872.7201,,,,0,29,29,29,1,25,155,,,,,,,,
,,656696c9ea15de5f69b6ddfa,65af53973f5fcc7f4ffca76f,2024-01-23_24h00.47.517,bars,2023.2.3,Win32,59.88023952,657b66ea316d21385b68909f,,,,,,,,,,,1872.7204,1873.7145,,,1874.2134,1874.4614,,120,-60,,,,,,,,,,,,,,,,bars/049.png,bars/mask008.png,,,,,,,,,,,,5,2,,,,,,,2,8,2,6,,,,,,,,,,,1873.7146,1874.2134,1874.4616,1881.8617,space,7.378,,1881.8618,40,5,1882.859,1882.8591,1882.8812,,,,0,30,30,30,1,160,115,,,,,,,,
,,656696c9ea15de5f69b6ddfa,65af53973f5fcc7f4ffca76f,2024-01-23_24h00.47.517,bars,2023.2.3,Win32,59.88023952,657b66ea316d21385b68909f,,,,,,,,,,,1882.8815,1883.8703,,,1884.3698,1884.6196,,77,77,,,,,,,,,,,,,,,,bars/038.png,bars/mask001.png,,,,,,,,,,,,5,2,,,,,,,4,6,4,7,,,,,,,,,,,1883.8705,1884.3698,1884.6196,1887.8837,space,3.2482,,1887.8838,88,7,1888.8822,1888.8823,1888.902,,,,0,31,31,31,1,165,70,,,,,,,,
,,656696c9ea15de5f69b6ddfa,65af53973f5fcc7f4ffca76f,2024-01-23_24h00.47.517,bars,2023.2.3,Win32,59.88023952,657b66ea316d21385b68909f,,,,,,,,,,,1888.9023,1889.8991,,,1890.4015,1890.6474,,120,120,,,,,,,,,,,,,,,,bars/015.png,bars/mask008.png,,,,,,,,,,,,1,1,,,,,,,2,8,1,10,,,,,,,,,,,1889.8992,1890.4015,1890.6475,1897.8141,space,7.1453,,1897.8142,10,40,1898.8071,1898.8072,1898.8301,,,,0,32,32,32,1,110,160,,,,,,,,
,,656696c9ea15de5f69b6ddfa,65af53973f5fcc7f4ffca76f,2024-01-23_24h00.47.517,bars,2023.2.3,Win32,59.88023952,657b66ea316d21385b68909f,,,,,,,,,,,1898.8304,1899.8214,,,1900.3212,1900.5716,,95,95,,,,,,,,,,,,,,,,bars/021.png,bars/mask001.png,,,,,,,,,,,,1,2,,,,,,,0,10,1,8,,,,,,,,,,,1899.8215,1900.3211,1900.5717,1906.0515,space,5.4705,,1906.0517,60,25,1907.0486,1907.0487,1907.0708,,,,0,33,33,33,1,155,70,,,,,,,,
,,656696c9ea15de5f69b6ddfa,65af53973f5fcc7f4ffca76f,2024-01-23_24h00.47.517,bars,2023.2.3,Win32,59.88023952,657b66ea316d21385b68909f,,,,,,,,,,,1907.0712,1908.0642,,,1908.5639,1908.8126,,80,80,,,,,,,,,,,,,,,,bars/017.png,bars/mask006.png,,,,,,,,,,,,0,2,,,,,,,2,8,2,9,,,,,,,,,,,1908.0643,1908.5638,1908.8126,1915.3929,space,6.57,,1915.3931,65,35,1916.3886,1916.3887,1916.4101,,,,0,34,34,34,1,145,45,,,,,,,,
,,656696c9ea15de5f69b6ddfa,65af53973f5fcc7f4ffca76f,2024-01-23_24h00.47.517,bars,2023.2.3,Win32,59.88023952,657b66ea316d21385b68909f,,,,,,,,,,,1916.4105,1917.4111,,,1917.9298,1918.1711,,157,157,,,,,,,,,,,,,,,,bars/036.png,bars/mask005.png,,,,,,,,,,,,2,1,,,,,,,4,6,4,7,,,,,,,,,,,1917.4111,1917.9298,1918.1711,1922.0543,space,3.8739,,1922.0545,12,43,1923.0501,1923.0501,1923.0716,,,,0,35,35,35,1,145,20,,,,,,,,
,,656696c9ea15de5f69b6ddfa,65af53973f5fcc7f4ffca76f,2024-01-23_24h00.47.517,bars,2023.2.3,Win32,59.88023952,657b66ea316d21385b68909f,,,,,,,,,,,1923.072,1924.0707,,,1924.57,1924.8196,,59,59,,,,,,,,,,,,,,,,bars/007.png,bars/mask000.png,,,,,,,,,,,,2,2,,,,,,,6,4,7,2,,,,,,,,,,,1924.0708,1924.5699,1924.8196,1928.8187,space,3.9831,,1928.8188,64,4,1929.8119,1929.812,1929.8359,,,,0,36,36,36,1,175,55,,,,,,,,
,,656696c9ea15de5f69b6ddfa,65af53973f5fcc7f4ffca76f,2024-01-23_24h00.47.517,bars,2023.2.3,Win32,59.88023952,657b66ea316d21385b68909f,,,,,,,,,,,1929.8362,1930.8262,,,1931.3253,1931.5754,,113,113,,,,,,,,,,,,,,,,bars/037.png,bars/mask006.png,,,,,,,,,,,,4,2,,,,,,,4,6,5,6,,,,,,,,,,,1930.8262,1931.3253,1931.5755,1934.357,space,2.7664,,1934.3571,37,8,1935.3538,1935.3538,1935.3764,,,,0,37,37,37,1,150,105,,,,,,,,
,,656696c9ea15de5f69b6ddfa,65af53973f5fcc7f4ffca76f,2024-01-23_24h00.47.517,bars,2023.2.3,Win32,59.88023952,657b66ea316d21385b68909f,,,,,,,,,,,1935.3769,1936.3761,,,1936.8759,1937.1218,,121,121,,,,,,,,,,,,,,,,bars/023.png,bars/mask007.png,,,,,,,,,,,,7,2,,,,,,,2,8,3,9,,,,,,,,,,,1936.3762,1936.8759,1937.1218,1942.4677,space,5.3257,,1942.4678,79,6,1943.4698,1943.4699,1943.4944,,,,0,38,38,38,1,20,115,,,,,,,,
,,656696c9ea15de5f69b6ddfa,65af53973f5fcc7f4ffca76f,2024-01-23_24h00.47.517,bars,2023.2.3,Win32,59.88023952,657b66ea316d21385b68909f,,,,,,,,,,,1943.497,1944.4966,,,1944.9959,1945.2459,,112,112,,,,,,,,,,,,,,,,bars/049.png,bars/mask006.png,,,,,,,,,,,,9,2,,,,,,,0,10,1,10,,,,,,,,,,,1944.4966,1944.9958,1945.246,1949.4925,space,4.2299,,1949.4927,48,3,1950.4913,1950.4913,1950.5118,,,,0,39,39,39,1,160,115,,,,,,,,
,,656696c9ea15de5f69b6ddfa,65af53973f5fcc7f4ffca76f,2024-01-23_24h00.47.517,bars,2023.2.3,Win32,59.88023952,657b66ea316d21385b68909f,,,,,,,,,,,1950.512,1951.5081,,,1952.0074,1952.2616,,117,-63,,,,,,,,,,,,,,,,bars/046.png,bars/mask008.png,,,,,,,,,,,,0,2,,,,,,,2,10,2,10,,,,,,,,,,,1951.5083,1952.0074,1952.2616,1959.8221,space,7.5444,,1959.8222,38,32,1960.8165,1960.8165,1960.8387,,,,0,40,40,40,1,155,85,,,,,,,,
,,656696c9ea15de5f69b6ddfa,65af53973f5fcc7f4ffca76f,2024-01-23_24h00.47.517,bars,2023.2.3,Win32,59.88023952,657b66ea316d21385b68909f,,,,,,,,,,,1960.8391,1961.8315,,,1962.3308,1962.5796,,114,114,,,,,,,,,,,,,,,,bars/041.png,bars/mask008.png,,,,,,,,,,,,0,2,,,,,,,4,8,3,6,,,,,,,,,,,1961.8317,1962.3305,1962.5797,1967.9586,space,5.3661,,1967.9587,86,29,1968.9574,1968.9574,1968.9785,,,,0,41,41,41,1,20,85,,,,,,,,
,,656696c9ea15de5f69b6ddfa,65af53973f5fcc7f4ffca76f,2024-01-23_24h00.47.517,bars,2023.2.3,Win32,59.88023952,657b66ea316d21385b68909f,,,,,,,,,,,1968.9788,1969.9743,,,1970.4778,1970.7245,,98,98,,,,,,,,,,,,,,,,bars/038.png,bars/mask006.png,,,,,,,,,,,,1,2,,,,,,,6,10,5,9,,,,,,,,,,,1969.9744,1970.4778,1970.7245,1974.3229,space,3.5785,,1974.3229,67,28,1975.3195,1975.3196,1975.3423,,,,0,42,42,42,1,165,70,,,,,,,,
,,656696c9ea15de5f69b6ddfa,65af53973f5fcc7f4ffca76f,2024-01-23_24h00.47.517,bars,2023.2.3,Win32,59.88023952,657b66ea316d21385b68909f,,,,,,,,,,,1975.3426,1976.3335,,,1976.8335,1977.0825,,113,113,,,,,,,,,,,,,,,,bars/023.png,bars/mask005.png,,,,,,,,,,,,8,2,,,,,,,4,10,5,9,,,,,,,,,,,1976.3338,1976.8334,1977.0827,1980.8797,space,3.7821,,1980.8798,87,2,1981.8785,1981.8787,1981.902,,,,0,43,43,43,1,20,115,,,,,,,,
,,656696c9ea15de5f69b6ddfa,65af53973f5fcc7f4ffca76f,2024-01-23_24h00.47.517,bars,2023.2.3,Win32,59.88023952,657b66ea316d21385b68909f,,,,,,,,,,,1981.9025,1982.8943,,,1983.3934,1983.6435,,54,234,,,,,,,,,,,,,,,,bars/044.png,bars/mask001.png,,,,,,,,,,,,1,1,,,,,,,2,10,3,10,,,,,,,,,,,1982.8944,1983.3934,1983.6435,1989.9884,space,6.3354,,1989.9886,21,79,1990.9867,1990.9867,1991.0098,,,,0,44,44,44,1,75,155,,,,,,,,
,,656696c9ea15de5f69b6ddfa,65af53973f5fcc7f4ffca76f,2024-01-23_24h00.47.517,bars,2023.2.3,Win32,59.88023952,657b66ea316d21385b68909f,,,,,,,,,,,1991.0102,1992.0025,,,1992.5019,1992.7512,,59,239,,,,,,,,,,,,,,,,bars/047.png,bars/mask008.png,,,,,,,,,,,,6,2,,,,,,,0,10,0,10,,,,,,,,,,,1992.0026,1992.5018,1992.7513,1998.3166,space,5.5546,,1998.3167,44,11,1999.3126,1999.3128,1999.3371,,,,0,45,45,45,1,15,70,,,,,,,,
,,656696c9ea15de5f69b6ddfa,65af53973f5fcc7f4ffca76f,2024-01-23_24h00.47.517,bars,2023.2.3,Win32,59.88023952,657b66ea316d21385b68909f,,,,,,,,,,,1999.3374,2000.3277,,,2000.8274,2001.0773,,61,61,,,,,,,,,,,,,,,,bars/041.png,bars/mask009.png,,,,,,,,,,,,2,2,,,,,,,0,10,1,10,,,,,,,,,,,2000.3278,2000.8273,2001.0773,2005.7732,space,4.6801,,2005.7732,41,24,2006.7718,2006.7718,2006.7927,,,,0,46,46,46,1,20,85,,,,,,,,
,,656696c9ea15de5f69b6ddfa,65af53973f5fcc7f4ffca76f,2024-01-23_24h00.47.517,bars,2023.2.3,Win32,59.88023952,657b66ea316d21385b68909f,,,,,,,,,,,2006.7931,2007.7938,,,2008.2935,2008.5379,,115,115,,,,,,,,,,,,,,,,bars/019.png,bars/mask002.png,,,,,,,,,,,,7,2,,,,,,,0,10,3,10,,,,,,,,,,,2007.7938,2008.2935,2008.538,2013.9216,space,5.3621,,2013.9217,70,10,2014.9198,2014.92,2014.948,,,,0,47,47,47,1,45,105,,,,,,,,
,,656696c9ea15de5f69b6ddfa,65af53973f5fcc7f4ffca76f,2024-01-23_24h00.47.517,bars,2023.2.3,Win32,59.88023952,657b66ea316d21385b68909f,,,,,,,,,,,2014.9484,2015.9466,,,2016.4463,2016.6955,,52,52,,,,,,,,,,,,,,,,bars/007.png,bars/mask007.png,,,,,,,,,,,,9,2,,,,,,,0,10,0,10,,,,,,,,,,,2015.9467,2016.4461,2016.6956,2021.3747,space,4.663,,2021.3749,57,3,2022.3737,2022.3737,2022.3954,,,,0,48,48,48,1,175,55,,,,,,,,
,,656696c9ea15de5f69b6ddfa,65af53973f5fcc7f4ffca76f,2024-01-23_24h00.47.517,bars,2023.2.3,Win32,59.88023952,657b66ea316d21385b68909f,,,,,,,,,,,2022.3957,2023.3959,,,2023.8953,2024.14,,51,231,,,,,,,,,,,,,,,,bars/030.png,bars/mask005.png,,,,,,,,,,,,4,2,,,,,,,2,8,1,8,,,,,,,,,,,2023.3959,2023.8952,2024.1401,2029.0577,space,4.8964,,2029.0577,89,14,2030.0561,2030.0563,2030.0814,,,,0,49,49,49,1,140,65,,,,,,,,
,,656696c9ea15de5f69b6ddfa,65af53973f5fcc7f4ffca76f,2024-01-23_24h00.47.517,bars,2023.2.3,Win32,59.88023952,657b66ea316d21385b68909f,,,,,,,,,,,,,,,,,,,,,,,,,,,,,,,,,,,,,,,,,,,,,,,,,,,,,,,,,,,,,,,,,,,,,,,,,,,,,,,,,,,,,,,,,,,,,2030.0825,2077.762,0,2,2,1,1,sequence_tables/blk012.csv
,,656696c9ea15de5f69b6ddfa,65af53973f5fcc7f4ffca76f,2024-01-23_24h00.47.517,bars,2023.2.3,Win32,59.88023952,657b66ea316d21385b68909f,,,,,,,,,,,2081.0572,2082.0529,,,2082.5534,2082.806,,127,127,,,,,,,,,,,,,,,,bars/000.png,bars/mask001.png,,,,,,,,,,,,3,2,,,,,,,10,7,10,7,,,,,,2077.7898,2081.0425,space,3.2416,,2082.053,2082.5533,2082.8061,2086.5156,space,3.6873,,2086.5158,87,18,2087.5186,2087.5186,2087.5418,,,,0,0,0,0,1,40,145,,,,,,,,
,,656696c9ea15de5f69b6ddfa,65af53973f5fcc7f4ffca76f,2024-01-23_24h00.47.517,bars,2023.2.3,Win32,59.88023952,657b66ea316d21385b68909f,,,,,,,,,,,2087.5421,2088.5458,,,2089.0451,2089.2949,,73,253,,,,,,,,,,,,,,,,bars/047.png,bars/mask004.png,,,,,,,,,,,,7,2,,,,,,,8,9,8,8,,,,,,,,,,,2088.5459,2089.0448,2089.295,2095.0904,space,5.7811,,2095.0905,58,3,2096.0887,2096.0888,2096.1102,,,,0,1,1,1,1,15,70,,,,,,,,
,,656696c9ea15de5f69b6ddfa,65af53973f5fcc7f4ffca76f,2024-01-23_24h00.47.517,bars,2023.2.3,Win32,59.88023952,657b66ea316d21385b68909f,,,,,,,,,,,2096.1106,2097.1091,,,2097.605,2097.8584,,101,101,,,,,,,,,,,,,,,,bars/026.png,bars/mask008.png,,,,,,,,,,,,3,2,,,,,,,6,7,4,7,,,,,,,,,,,2097.1091,2097.605,2097.8585,2102.0501,space,4.1676,,2102.0502,66,16,2103.0487,2103.0487,2103.0697,,,,0,2,2,2,1,35,85,,,,,,,,
,,656696c9ea15de5f69b6ddfa,65af53973f5fcc7f4ffca76f,2024-01-23_24h00.47.517,bars,2023.2.3,Win32,59.88023952,657b66ea316d21385b68909f,,,,,,,,,,,2103.0699,2104.0704,,,2104.5657,2104.8189,,139,139,,,,,,,,,,,,,,,,bars/036.png,bars/mask001.png,,,,,,,,,,,,6,1,,,,,,,8,9,8,10,,,,,,,,,,,2104.0706,2104.5656,2104.819,2110.0266,space,5.1856,,2110.0267,6,61,2111.0259,2111.0259,2111.0498,,,,0,3,3,3,1,145,20,,,,,,,,
,,656696c9ea15de5f69b6ddfa,65af53973f5fcc7f4ffca76f,2024-01-23_24h00.47.517,bars,2023.2.3,Win32,59.88023952,657b66ea316d21385b68909f,,,,,,,,,,,2111.0502,2112.0404,,,2112.5403,2112.7889,,113,113,,,,,,,,,,,,,,,,bars/043.png,bars/mask006.png,,,,,,,,,,,,3,2,,,,,,,10,7,9,7,,,,,,,,,,,2112.0404,2112.5402,2112.789,2118.7207,space,5.9152,,2118.7208,83,17,2119.7163,2119.7163,2119.7379,,,,0,4,4,4,1,30,130,,,,,,,,
,,656696c9ea15de5f69b6ddfa,65af53973f5fcc7f4ffca76f,2024-01-23_24h00.47.517,bars,2023.2.3,Win32,59.88023952,657b66ea316d21385b68909f,,,,,,,,,,,2119.7382,2120.7334,,,2121.237,2121.4865,,106,106,,,,,,,,,,,,,,,,bars/001.png,bars/mask000.png,,,,,,,,,,,,2,2,,,,,,,8,5,8,7,,,,,,,,,,,2120.7334,2121.237,2121.4866,2127.0114,space,5.5035,,2127.0114,24,21,2128.01,2128.0102,2128.0335,,,,0,5,5,5,1,130,85,,,,,,,,
,,656696c9ea15de5f69b6ddfa,65af53973f5fcc7f4ffca76f,2024-01-23_24h00.47.517,bars,2023.2.3,Win32,59.88023952,657b66ea316d21385b68909f,,,,,,,,,,,2128.0338,2129.0248,,,2129.5245,2129.7741,,132,-48,,,,,,,,,,,,,,,,bars/033.png,bars/mask007.png,,,,,,,,,,,,1,2,,,,,,,10,3,10,3,,,,,,,,,,,2129.0249,2129.5244,2129.7741,2134.1368,space,4.3498,,2134.1369,73,23,2135.1349,2135.135,2135.1551,,,,0,6,6,6,1,25,155,,,,,,,,
,,656696c9ea15de5f69b6ddfa,65af53973f5fcc7f4ffca76f,2024-01-23_24h00.47.517,bars,2023.2.3,Win32,59.88023952,657b66ea316d21385b68909f,,,,,,,,,,,2135.1554,2136.1565,,,2136.6518,2136.9054,,110,110,,,,,,,,,,,,,,,,bars/012.png,bars/mask001.png,,,,,,,,,,,,2,1,,,,,,,8,5,6,2,,,,,,,,,,,2136.1566,2136.6516,2136.9055,2139.3019,space,2.3795,,2139.302,20,85,2140.2983,2140.2985,2140.3017,,,,0,7,7,7,1,90,15,,,,,,,,
,,656696c9ea15de5f69b6ddfa,65af53973f5fcc7f4ffca76f,2024-01-23_24h00.47.517,bars,2023.2.3,Win32,59.88023952,657b66ea316d21385b68909f,,,,,,,,,,,2140.3021,2141.2971,,,2141.8016,2142.0511,,124,124,,,,,,,,,,,,,,,,bars/024.png,bars/mask003.png,,,,,,,,,,,,9,1,,,,,,,10,3,10,2,,,,,,,,,,,2141.2973,2141.8015,2142.0512,2147.0304,space,4.963,,2147.0305,4,46,2148.0243,2148.0244,2148.0462,,,,0,8,8,8,1,120,170,,,,,,,,
,,656696c9ea15de5f69b6ddfa,65af53973f5fcc7f4ffca76f,2024-01-23_24h00.47.517,bars,2023.2.3,Win32,59.88023952,657b66ea316d21385b68909f,,,,,,,,,,,2148.0467,2149.0454,,,2149.5401,2149.7909,,113,113,,,,,,,,,,,,,,,,bars/018.png,bars/mask008.png,,,,,,,,,,,,1,2,,,,,,,10,1,10,3,,,,,,,,,,,2149.0454,2149.54,2149.7909,2152.4257,space,2.6145,,2152.4257,37,23,2153.4191,2153.4192,2153.4428,,,,0,9,9,9,1,150,90,,,,,,,,
,,656696c9ea15de5f69b6ddfa,65af53973f5fcc7f4ffca76f,2024-01-23_24h00.47.517,bars,2023.2.3,Win32,59.88023952,657b66ea316d21385b68909f,,,,,,,,,,,2153.4432,2154.4342,,,2154.9335,2155.1838,,125,125,,,,,,,,,,,,,,,,bars/000.png,bars/mask005.png,,,,,,,,,,,,0,2,,,,,,,8,0,9,0,,,,,,,,,,,2154.4343,2154.9333,2155.1838,2157.448,space,2.2474,,2157.4481,85,20,2158.4471,2158.4473,2158.4487,,,,0,10,10,10,1,40,145,,,,,,,,
,,656696c9ea15de5f69b6ddfa,65af53973f5fcc7f4ffca76f,2024-01-23_24h00.47.517,bars,2023.2.3,Win32,59.88023952,657b66ea316d21385b68909f,,,,,,,,,,,2158.4499,2159.4461,,,2159.9458,2160.1955,,135,-45,,,,,,,,,,,,,,,,bars/017.png,bars/mask008.png,,,,,,,,,,,,5,1,,,,,,,6,2,7,2,,,,,,,,,,,2159.4461,2159.9457,2160.1956,2165.6907,space,5.48,,2165.6908,10,90,2166.6887,2166.6889,2166.7102,,,,0,11,11,11,1,145,45,,,,,,,,
,,656696c9ea15de5f69b6ddfa,65af53973f5fcc7f4ffca76f,2024-01-23_24h00.47.517,bars,2023.2.3,Win32,59.88023952,657b66ea316d21385b68909f,,,,,,,,,,,2166.7106,2167.7097,,,2168.2028,2168.4538,,56,56,,,,,,,,,,,,,,,,bars/036.png,bars/mask007.png,,,,,,,,,,,,0,2,,,,,,,8,0,9,0,,,,,,,,,,,2167.7098,2168.2028,2168.4539,2172.5546,space,4.0898,,2172.5546,89,36,2173.5498,2173.55,2173.5727,,,,0,12,12,12,1,145,20,,,,,,,,
,,656696c9ea15de5f69b6ddfa,65af53973f5fcc7f4ffca76f,2024-01-23_24h00.47.517,bars,2023.2.3,Win32,59.88023952,657b66ea316d21385b68909f,,,,,,,,,,,2173.5731,2174.565,,,2175.0655,2175.3146,,99,99,,,,,,,,,,,,,,,,bars/021.png,bars/mask009.png,,,,,,,,,,,,0,2,,,,,,,10,2,9,0,,,,,,,,,,,2174.565,2175.0654,2175.3146,2178.3282,space,2.9986,,2178.3283,56,29,2179.3267,2179.3268,2179.3468,,,,0,13,13,13,1,155,70,,,,,,,,
,,656696c9ea15de5f69b6ddfa,65af53973f5fcc7f4ffca76f,2024-01-23_24h00.47.517,bars,2023.2.3,Win32,59.88023952,657b66ea316d21385b68909f,,,,,,,,,,,2179.3471,2180.3441,,,2180.8479,2181.0942,,64,64,,,,,,,,,,,,,,,,bars/046.png,bars/mask002.png,,,,,,,,,,,,2,2,,,,,,,8,4,10,6,,,,,,,,,,,2180.3442,2180.8478,2181.0943,2184.0753,space,2.9529,,2184.0754,89,21,2185.077,2185.077,2185.0993,,,,0,14,14,14,1,155,85,,,,,,,,
,,656696c9ea15de5f69b6ddfa,65af53973f5fcc7f4ffca76f,2024-01-23_24h00.47.517,bars,2023.2.3,Win32,59.88023952,657b66ea316d21385b68909f,,,,,,,,,,,2185.0996,2186.088,,,2186.5871,2186.8372,,165,-15,,,,,,,,,,,,,,,,bars/023.png,bars/mask000.png,,,,,,,,,,,,0,1,,,,,,,10,2,10,3,,,,,,,,,,,2186.0881,2186.5871,2186.8373,2192.0492,space,5.196,,2192.0493,35,50,2193.0477,2193.0478,2193.0703,,,,0,15,15,15,1,20,115,,,,,,,,
,,656696c9ea15de5f69b6ddfa,65af53973f5fcc7f4ffca76f,2024-01-23_24h00.47.517,bars,2023.2.3,Win32,59.88023952,657b66ea316d21385b68909f,,,,,,,,,,,2193.0707,2194.0685,,,2194.5688,2194.8139,,31,31,,,,,,,,,,,,,,,,bars/022.png,bars/mask002.png,,,,,,,,,,,,0,2,,,,,,,8,0,7,0,,,,,,,,,,,2194.0686,2194.5688,2194.814,2198.6495,space,3.8145,,2198.6495,64,11,2199.6432,2199.6432,2199.6668,,,,0,16,16,16,1,95,20,,,,,,,,
,,656696c9ea15de5f69b6ddfa,65af53973f5fcc7f4ffca76f,2024-01-23_24h00.47.517,bars,2023.2.3,Win32,59.88023952,657b66ea316d21385b68909f,,,,,,,,,,,2199.6671,2200.6575,,,2201.1576,2201.4053,,149,149,,,,,,,,,,,,,,,,bars/043.png,bars/mask000.png,,,,,,,,,,,,0,2,,,,,,,10,0,10,0,,,,,,,,,,,2200.6575,2201.1575,2201.4054,2204.9206,space,3.5045,,2204.9206,61,19,2205.9195,2205.9196,2205.94,,,,0,17,17,17,1,30,130,,,,,,,,
,,656696c9ea15de5f69b6ddfa,65af53973f5fcc7f4ffca76f,2024-01-23_24h00.47.517,bars,2023.2.3,Win32,59.88023952,657b66ea316d21385b68909f,,,,,,,,,,,2205.9403,2206.9399,,,2207.4393,2207.6859,,51,51,,,,,,,,,,,,,,,,bars/010.png,bars/mask005.png,,,,,,,,,,,,3,2,,,,,,,10,2,9,4,,,,,,,,,,,2206.94,2207.4393,2207.686,2212.9192,space,5.2132,,2212.9193,66,4,2213.9177,2213.9177,2213.9413,,,,0,18,18,18,1,165,55,,,,,,,,
,,656696c9ea15de5f69b6ddfa,65af53973f5fcc7f4ffca76f,2024-01-23_24h00.47.517,bars,2023.2.3,Win32,59.88023952,657b66ea316d21385b68909f,,,,,,,,,,,2213.9417,2214.9336,,,2215.4288,2215.6827,,133,133,,,,,,,,,,,,,,,,bars/005.png,bars/mask006.png,,,,,,,,,,,,3,2,,,,,,,10,4,10,4,,,,,,,,,,,2214.9337,2215.4287,2215.6828,2221.5731,space,5.8677,,2221.5732,57,7,2222.5715,2222.5717,2222.5933,,,,0,19,19,19,1,10,140,,,,,,,,
,,656696c9ea15de5f69b6ddfa,65af53973f5fcc7f4ffca76f,2024-01-23_24h00.47.517,bars,2023.2.3,Win32,59.88023952,657b66ea316d21385b68909f,,,,,,,,,,,2222.5937,2223.5911,,,2224.0871,2224.3413,,39,39,,,,,,,,,,,,,,,,bars/040.png,bars/mask003.png,,,,,,,,,,,,0,2,,,,,,,10,6,9,6,,,,,,,,,,,2223.5911,2224.0869,2224.3414,2227.0893,space,2.7312,,2227.0894,79,34,2228.0832,2228.0833,2228.1041,,,,0,20,20,20,1,140,5,,,,,,,,
,,656696c9ea15de5f69b6ddfa,65af53973f5fcc7f4ffca76f,2024-01-23_24h00.47.517,bars,2023.2.3,Win32,59.88023952,657b66ea316d21385b68909f,,,,,,,,,,,2228.1045,2229.1031,,,2229.6033,2229.848,,159,159,,,,,,,,,,,,,,,,bars/013.png,bars/mask005.png,,,,,,,,,,,,0,2,,,,,,,8,4,7,2,,,,,,,,,,,2229.1032,2229.6033,2229.8481,2235.1826,space,5.3131,,2235.1827,84,31,2236.1805,2236.1806,2236.204,,,,0,21,21,21,1,75,10,,,,,,,,
,,656696c9ea15de5f69b6ddfa,65af53973f5fcc7f4ffca76f,2024-01-23_24h00.47.517,bars,2023.2.3,Win32,59.88023952,657b66ea316d21385b68909f,,,,,,,,,,,2236.2046,2237.2061,,,2237.7063,2237.9563,,33,33,,,,,,,,,,,,,,,,bars/045.png,bars/mask008.png,,,,,,,,,,,,2,2,,,,,,,10,6,9,8,,,,,,,,,,,2237.2061,2237.7062,2237.9564,2241.3365,space,3.3648,,2241.3366,67,23,2242.335,2242.335,2242.3562,,,,0,22,22,22,1,100,10,,,,,,,,
,,656696c9ea15de5f69b6ddfa,65af53973f5fcc7f4ffca76f,2024-01-23_24h00.47.517,bars,2023.2.3,Win32,59.88023952,657b66ea316d21385b68909f,,,,,,,,,,,2242.3565,2243.3528,,,2243.8565,2244.1017,,119,119,,,,,,,,,,,,,,,,bars/049.png,bars/mask007.png,,,,,,,,,,,,2,2,,,,,,,10,4,10,2,,,,,,,,,,,2243.3528,2243.8565,2244.1018,2249.3527,space,5.2304,,2249.3528,41,4,2250.3498,2250.3498,2250.3796,,,,0,23,23,23,1,160,115,,,,,,,,
,,656696c9ea15de5f69b6ddfa,65af53973f5fcc7f4ffca76f,2024-01-23_24h00.47.517,bars,2023.2.3,Win32,59.88023952,657b66ea316d21385b68909f,,,,,,,,,,,2250.3799,2251.3825,,,2251.8773,2252.1273,,60,60,,,,,,,,,,,,,,,,bars/017.png,bars/mask005.png,,,,,,,,,,,,1,2,,,,,,,10,2,10,2,,,,,,,,,,,2251.3826,2251.8773,2252.1274,2255.3578,space,3.2052,,2255.3582,85,15,2256.3614,2256.3615,2256.3882,,,,0,24,24,24,1,145,45,,,,,,,,
,,656696c9ea15de5f69b6ddfa,65af53973f5fcc7f4ffca76f,2024-01-23_24h00.47.517,bars,2023.2.3,Win32,59.88023952,657b66ea316d21385b68909f,,,,,,,,,,,2256.3888,2257.3767,,,2257.872,2258.1219,,128,-52,,,,,,,,,,,,,,,,bars/003.png,bars/mask006.png,,,,,,,,,,,,2,2,,,,,,,8,4,7,4,,,,,,,,,,,2257.3768,2257.8719,2258.122,2263.2393,space,5.0972,,2263.2394,77,12,2264.2375,2264.2376,2264.2607,,,,0,25,25,25,1,25,140,,,,,,,,
,,656696c9ea15de5f69b6ddfa,65af53973f5fcc7f4ffca76f,2024-01-23_24h00.47.517,bars,2023.2.3,Win32,59.88023952,657b66ea316d21385b68909f,,,,,,,,,,,2264.261,2265.2649,,,2265.7639,2266.0133,,156,156,,,,,,,,,,,,,,,,bars/036.png,bars/mask000.png,,,,,,,,,,,,6,1,,,,,,,10,6,10,6,,,,,,,,,,,2265.2649,2265.7638,2266.0133,2269.9102,space,3.8813,,2269.9105,11,44,2270.9087,2270.9089,2270.9312,,,,0,26,26,26,1,145,20,,,,,,,,
,,656696c9ea15de5f69b6ddfa,65af53973f5fcc7f4ffca76f,2024-01-23_24h00.47.517,bars,2023.2.3,Win32,59.88023952,657b66ea316d21385b68909f,,,,,,,,,,,2270.9315,2271.9265,,,2272.4247,2272.6783,,58,58,,,,,,,,,,,,,,,,bars/029.png,bars/mask000.png,,,,,,,,,,,,5,2,,,,,,,10,8,10,8,,,,,,,,,,,2271.9265,2272.4246,2272.6784,2277.2231,space,4.5377,,2277.2231,32,13,2278.2234,2278.2234,2278.2463,,,,0,27,27,27,1,90,45,,,,,,,,
,,656696c9ea15de5f69b6ddfa,65af53973f5fcc7f4ffca76f,2024-01-23_24h00.47.517,bars,2023.2.3,Win32,59.88023952,657b66ea316d21385b68909f,,,,,,,,,,,2278.2467,2279.2347,,,2279.7343,2279.9834,,110,110,,,,,,,,,,,,,,,,bars/037.png,bars/mask009.png,,,,,,,,,,,,8,2,,,,,,,8,10,10,9,,,,,,,,,,,2279.235,2279.7343,2279.9834,2284.4131,space,4.4134,,2284.4132,40,5,2285.412,2285.4122,2285.4325,,,,0,28,28,28,1,150,105,,,,,,,,
,,656696c9ea15de5f69b6ddfa,65af53973f5fcc7f4ffca76f,2024-01-23_24h00.47.517,bars,2023.2.3,Win32,59.88023952,657b66ea316d21385b68909f,,,,,,,,,,,2285.4329,2286.43,,,2286.9316,2287.1815,,164,-16,,,,,,,,,,,,,,,,bars/045.png,bars/mask003.png,,,,,,,,,,,,1,2,,,,,,,10,10,10,10,,,,,,,,,,,2286.4301,2286.9315,2287.1816,2292.4738,space,5.2699,,2292.4739,64,26,2293.4756,2293.4756,2293.4975,,,,0,29,29,29,1,100,10,,,,,,,,
,,656696c9ea15de5f69b6ddfa,65af53973f5fcc7f4ffca76f,2024-01-23_24h00.47.517,bars,2023.2.3,Win32,59.88023952,657b66ea316d21385b68909f,,,,,,,,,,,2293.4978,2294.4869,,,2294.9853,2295.2358,,106,106,,,,,,,,,,,,,,,,bars/018.png,bars/mask008.png,,,,,,,,,,,,5,2,,,,,,,8,10,6,10,,,,,,,,,,,2294.4869,2294.9853,2295.2358,2300.8476,space,5.5985,,2300.8476,44,16,2301.8472,2301.8473,2301.8729,,,,0,30,30,30,1,150,90,,,,,,,,
,,656696c9ea15de5f69b6ddfa,65af53973f5fcc7f4ffca76f,2024-01-23_24h00.47.517,bars,2023.2.3,Win32,59.88023952,657b66ea316d21385b68909f,,,,,,,,,,,2301.8732,2302.8627,,,2303.3608,2303.611,,57,57,,,,,,,,,,,,,,,,bars/044.png,bars/mask009.png,,,,,,,,,,,,3,1,,,,,,,6,8,8,9,,,,,,,,,,,2302.8627,2303.3608,2303.6111,2309.4231,space,5.7961,,2309.4233,18,82,2310.4215,2310.4216,2310.4473,,,,0,31,31,31,1,75,155,,,,,,,,
,,656696c9ea15de5f69b6ddfa,65af53973f5fcc7f4ffca76f,2024-01-23_24h00.47.517,bars,2023.2.3,Win32,59.88023952,657b66ea316d21385b68909f,,,,,,,,,,,2310.4477,2311.4372,,,2311.9369,2312.1865,,116,116,,,,,,,,,,,,,,,,bars/015.png,bars/mask006.png,,,,,,,,,,,,3,1,,,,,,,4,10,4,10,,,,,,,,,,,2311.4373,2311.9368,2312.1865,2314.2854,space,2.0842,,2314.2854,6,44,2315.2843,2315.2845,2315.3099,,,,0,32,32,32,1,110,160,,,,,,,,
,,656696c9ea15de5f69b6ddfa,65af53973f5fcc7f4ffca76f,2024-01-23_24h00.47.517,bars,2023.2.3,Win32,59.88023952,657b66ea316d21385b68909f,,,,,,,,,,,2315.3103,2316.2995,,,2316.7991,2317.0487,,52,232,,,,,,,,,,,,,,,,bars/025.png,bars/mask003.png,,,,,,,,,,,,5,2,,,,,,,2,8,2,8,,,,,,,,,,,2316.2996,2316.7991,2317.0488,2323.1619,space,6.1039,,2323.162,53,12,2324.159,2324.1592,2324.1812,,,,0,33,33,33,1,105,40,,,,,,,,
,,656696c9ea15de5f69b6ddfa,65af53973f5fcc7f4ffca76f,2024-01-23_24h00.47.517,bars,2023.2.3,Win32,59.88023952,657b66ea316d21385b68909f,,,,,,,,,,,2324.1816,2325.1756,,,2325.6765,2325.925,,107,107,,,,,,,,,,,,,,,,bars/046.png,bars/mask006.png,,,,,,,,,,,,2,2,,,,,,,4,6,5,6,,,,,,,,,,,2325.1757,2325.6763,2325.9251,2329.5437,space,3.5987,,2329.5438,48,22,2330.5359,2330.5364,2330.5588,,,,0,34,34,34,1,155,85,,,,,,,,
,,656696c9ea15de5f69b6ddfa,65af53973f5fcc7f4ffca76f,2024-01-23_24h00.47.517,bars,2023.2.3,Win32,59.88023952,657b66ea316d21385b68909f,,,,,,,,,,,2330.5592,2331.5571,,,2332.0565,2332.3024,,160,-20,,,,,,,,,,,,,,,,bars/033.png,bars/mask000.png,,,,,,,,,,,,3,2,,,,,,,2,4,2,4,,,,,,,,,,,2331.5572,2332.0564,2332.3024,2335.2334,space,2.9062,,2335.2335,45,5,2336.2321,2336.2322,2336.2537,,,,0,35,35,35,1,25,155,,,,,,,,
,,656696c9ea15de5f69b6ddfa,65af53973f5fcc7f4ffca76f,2024-01-23_24h00.47.517,bars,2023.2.3,Win32,59.88023952,657b66ea316d21385b68909f,,,,,,,,,,,2336.2541,2337.252,,,2337.7477,2338.0005,,138,-42,,,,,,,,,,,,,,,,bars/000.png,bars/mask001.png,,,,,,,,,,,,1,2,,,,,,,4,2,4,1,,,,,,,,,,,2337.2521,2337.7476,2338.0006,2342.9144,space,4.8965,,2342.9144,82,7,2343.9123,2343.9124,2343.9341,,,,0,36,36,36,1,40,145,,,,,,,,
,,656696c9ea15de5f69b6ddfa,65af53973f5fcc7f4ffca76f,2024-01-23_24h00.47.517,bars,2023.2.3,Win32,59.88023952,657b66ea316d21385b68909f,,,,,,,,,,,2343.9345,2344.9238,,,2345.4223,2345.6724,,63,63,,,,,,,,,,,,,,,,bars/042.png,bars/mask002.png,,,,,,,,,,,,0,2,,,,,,,2,0,0,0,,,,,,,,,,,2344.9239,2345.4223,2345.6724,2349.3361,space,3.6471,,2349.3362,82,12,2350.334,2350.3341,2350.3546,,,,0,37,37,37,1,145,75,,,,,,,,
,,656696c9ea15de5f69b6ddfa,65af53973f5fcc7f4ffca76f,2024-01-23_24h00.47.517,bars,2023.2.3,Win32,59.88023952,657b66ea316d21385b68909f,,,,,,,,,,,2350.3549,2351.3559,,,2351.8557,2352.1047,,121,121,,,,,,,,,,,,,,,,bars/004.png,bars/mask008.png,,,,,,,,,,,,2,2,,,,,,,0,0,0,2,,,,,,,,,,,2351.356,2351.8554,2352.1047,2355.3979,space,3.2709,,2355.3979,84,4,2356.3968,2356.3968,2356.421,,,,0,38,38,38,1,25,125,,,,,,,,
,,656696c9ea15de5f69b6ddfa,65af53973f5fcc7f4ffca76f,2024-01-23_24h00.47.517,bars,2023.2.3,Win32,59.88023952,657b66ea316d21385b68909f,,,,,,,,,,,2356.4213,2357.412,,,2357.9109,2358.1605,,68,68,,,,,,,,,,,,,,,,bars/028.png,bars/mask001.png,,,,,,,,,,,,0,1,,,,,,,2,0,2,0,,,,,,,,,,,2357.4121,2357.9108,2358.1605,2364.1556,space,5.9794,,2364.1557,23,52,2365.154,2365.1541,2365.1759,,,,0,39,39,39,1,45,120,,,,,,,,
,,656696c9ea15de5f69b6ddfa,65af53973f5fcc7f4ffca76f,2024-01-23_24h00.47.517,bars,2023.2.3,Win32,59.88023952,657b66ea316d21385b68909f,,,,,,,,,,,2365.1763,2366.175,,,2366.6755,2366.9239,,53,53,,,,,,,,,,,,,,,,bars/010.png,bars/mask007.png,,,,,,,,,,,,0,2,,,,,,,4,0,3,0,,,,,,,,,,,2366.175,2366.6755,2366.9239,2369.9076,space,2.9673,,2369.9076,68,2,2370.8999,2370.9,2370.926,,,,0,40,40,40,1,165,55,,,,,,,,
,,656696c9ea15de5f69b6ddfa,65af53973f5fcc7f4ffca76f,2024-01-23_24h00.47.517,bars,2023.2.3,Win32,59.88023952,657b66ea316d21385b68909f,,,,,,,,,,,2370.9264,2371.9236,,,2372.4132,2372.6637,,79,79,,,,,,,,,,,,,,,,bars/038.png,bars/mask006.png,,,,,,,,,,,,0,2,,,,,,,2,0,3,0,,,,,,,,,,,2371.9238,2372.4131,2372.6638,2376.2607,space,3.5822,,2376.2608,86,9,2377.2599,2377.2599,2377.2802,,,,0,41,41,41,1,165,70,,,,,,,,
,,656696c9ea15de5f69b6ddfa,65af53973f5fcc7f4ffca76f,2024-01-23_24h00.47.517,bars,2023.2.3,Win32,59.88023952,657b66ea316d21385b68909f,,,,,,,,,,,2377.2805,2378.2794,,,2378.7796,2379.0249,,86,86,,,,,,,,,,,,,,,,bars/034.png,bars/mask000.png,,,,,,,,,,,,0,2,,,,,,,0,0,1,0,,,,,,,,,,,2378.2795,2378.7795,2379.0249,2386.8529,space,7.7986,,2386.8531,39,21,2387.8481,2387.8482,2387.8684,,,,0,42,42,42,1,125,65,,,,,,,,
,,656696c9ea15de5f69b6ddfa,65af53973f5fcc7f4ffca76f,2024-01-23_24h00.47.517,bars,2023.2.3,Win32,59.88023952,657b66ea316d21385b68909f,,,,,,,,,,,2387.8687,2388.8646,,,2389.3542,2389.5994,,66,246,,,,,,,,,,,,,,,,bars/046.png,bars/mask004.png,,,,,,,,,,,,1,2,,,,,,,2,2,1,2,,,,,,,,,,,2388.865,2389.3541,2389.5995,2395.9945,space,6.3751,,2395.9945,89,19,2396.9918,2396.9919,2397.0137,,,,0,43,43,43,1,155,85,,,,,,,,
,,656696c9ea15de5f69b6ddfa,65af53973f5fcc7f4ffca76f,2024-01-23_24h00.47.517,bars,2023.2.3,Win32,59.88023952,657b66ea316d21385b68909f,,,,,,,,,,,2397.014,2398.008,,,2398.5069,2398.7448,,153,153,,,,,,,,,,,,,,,,bars/033.png,bars/mask001.png,,,,,,,,,,,,3,2,,,,,,,4,4,4,3,,,,,,,,,,,2398.008,2398.5069,2398.7448,2402.5766,space,3.8147,,2402.5766,52,2,2403.5696,2403.5697,2403.5922,,,,0,44,44,44,1,25,155,,,,,,,,
,,656696c9ea15de5f69b6ddfa,65af53973f5fcc7f4ffca76f,2024-01-23_24h00.47.517,bars,2023.2.3,Win32,59.88023952,657b66ea316d21385b68909f,,,,,,,,,,,2403.5926,2404.5841,,,2405.0838,2405.3331,,30,30,,,,,,,,,,,,,,,,bars/022.png,bars/mask001.png,,,,,,,,,,,,1,2,,,,,,,6,2,6,2,,,,,,,,,,,2404.5841,2405.0838,2405.3331,2408.1971,space,2.8469,,2408.1972,65,10,2409.1965,2409.1965,2409.2169,,,,0,45,45,45,1,95,20,,,,,,,,
,,656696c9ea15de5f69b6ddfa,65af53973f5fcc7f4ffca76f,2024-01-23_24h00.47.517,bars,2023.2.3,Win32,59.88023952,657b66ea316d21385b68909f,,,,,,,,,,,2409.2173,2410.2136,,,2410.717,2410.9655,,46,46,,,,,,,,,,,,,,,,bars/028.png,bars/mask007.png,,,,,,,,,,,,8,1,,,,,,,8,0,8,0,,,,,,,,,,,2410.2137,2410.7169,2410.9655,2416.6633,space,5.6807,,2416.6633,1,74,2417.6611,2417.6611,2417.6883,,,,0,46,46,46,1,45,120,,,,,,,,
,,656696c9ea15de5f69b6ddfa,65af53973f5fcc7f4ffca76f,2024-01-23_24h00.47.517,bars,2023.2.3,Win32,59.88023952,657b66ea316d21385b68909f,,,,,,,,,,,2417.6888,2418.6873,,,2419.187,2419.4366,,74,74,,,,,,,,,,,,,,,,bars/011.png,bars/mask003.png,,,,,,,,,,,,1,2,,,,,,,10,2,9,2,,,,,,,,,,,2418.6873,2419.187,2419.4366,2423.967,space,4.5143,,2423.9671,86,11,2424.9645,2424.9646,2424.9874,,,,0,47,47,47,1,160,85,,,,,,,,
,,656696c9ea15de5f69b6ddfa,65af53973f5fcc7f4ffca76f,2024-01-23_24h00.47.517,bars,2023.2.3,Win32,59.88023952,657b66ea316d21385b68909f,,,,,,,,,,,2424.9877,2425.9861,,,2426.4863,2426.731,,158,-22,,,,,,,,,,,,,,,,bars/008.png,bars/mask009.png,,,,,,,,,,,,0,2,,,,,,,8,0,9,0,,,,,,,,,,,2425.9862,2426.4863,2426.7311,2431.6993,space,4.9476,,2431.6993,48,22,2432.6916,2432.6917,2432.7149,,,,0,48,48,48,1,110,0,,,,,,,,
,,656696c9ea15de5f69b6ddfa,65af53973f5fcc7f4ffca76f,2024-01-23_24h00.47.517,bars,2023.2.3,Win32,59.88023952,657b66ea316d21385b68909f,,,,,,,,,,,2432.7153,2433.707,,,2434.206,2434.4562,,90,90,,,,,,,,,,,,,,,,bars/001.png,bars/mask008.png,,,,,,,,,,,,1,2,,,,,,,10,2,9,1,,,,,,,,,,,2433.707,2434.206,2434.4564,2439.0856,space,4.6138,,2439.0859,40,5,2440.0836,2440.0836,2440.1049,,,,0,49,49,49,1,130,85,,,,,,,,
,,656696c9ea15de5f69b6ddfa,65af53973f5fcc7f4ffca76f,2024-01-23_24h00.47.517,bars,2023.2.3,Win32,59.88023952,657b66ea316d21385b68909f,,,,,,,,,,,,,,,,,,,,,,,,,,,,,,,,,,,,,,,,,,,,,,,,,,,,,,,,,,,,,,,,,,,,,,,,,,,,,,,,,,,,,,,,,,,,,2440.1053,2502.2891,0,3,3,2,1,sequence_tables/blk006.csv
,,656696c9ea15de5f69b6ddfa,65af53973f5fcc7f4ffca76f,2024-01-23_24h00.47.517,bars,2023.2.3,Win32,59.88023952,657b66ea316d21385b68909f,,,,,,,,,,,2503.6596,2504.6619,,,2505.1574,2505.4114,,77,77,,,,,,,,,,,,,,,,bars/002.png,bars/mask008.png,,,,,,,,,,,,0,2,,,,,,,4,1,3,0,,,,,,2502.347,2503.6481,space,1.2913,,2504.662,2505.1573,2505.4115,2510.3376,space,4.8995,,2510.3378,53,8,2511.3362,2511.3363,2511.3604,,,,0,0,0,0,1,130,85,,,,,,,,
,,656696c9ea15de5f69b6ddfa,65af53973f5fcc7f4ffca76f,2024-01-23_24h00.47.517,bars,2023.2.3,Win32,59.88023952,657b66ea316d21385b68909f,,,,,,,,,,,2511.3609,2512.3503,,,2512.8495,2513.0992,,76,76,,,,,,,,,,,,,,,,bars/034.png,bars/mask002.png,,,,,,,,,,,,0,2,,,,,,,6,0,5,0,,,,,,,,,,,2512.3504,2512.8495,2513.0993,2514.8672,space,1.758,,2514.8676,49,11,2515.8629,2515.863,2515.8651,,,,0,1,1,1,1,125,65,,,,,,,,
,,656696c9ea15de5f69b6ddfa,65af53973f5fcc7f4ffca76f,2024-01-23_24h00.47.517,bars,2023.2.3,Win32,59.88023952,657b66ea316d21385b68909f,,,,,,,,,,,2515.866,2516.8617,,,2517.362,2517.6117,,64,64,,,,,,,,,,,,,,,,bars/007.png,bars/mask004.png,,,,,,,,,,,,2,2,,,,,,,4,0,4,3,,,,,,,,,,,2516.8618,2517.362,2517.6117,2520.7594,space,3.1334,,2520.7596,69,9,2521.7583,2521.7584,2521.7798,,,,0,2,2,2,1,175,55,,,,,,,,
,,656696c9ea15de5f69b6ddfa,65af53973f5fcc7f4ffca76f,2024-01-23_24h00.47.517,bars,2023.2.3,Win32,59.88023952,657b66ea316d21385b68909f,,,,,,,,,,,2521.7801,2522.776,,,2523.2748,2523.529,,70,70,,,,,,,,,,,,,,,,bars/030.png,bars/mask009.png,,,,,,,,,,,,1,2,,,,,,,2,2,3,1,,,,,,,,,,,2522.776,2523.2748,2523.5291,2526.5264,space,2.9811,,2526.5264,70,5,2527.5232,2527.5233,2527.5467,,,,0,3,3,3,1,140,65,,,,,,,,
,,656696c9ea15de5f69b6ddfa,65af53973f5fcc7f4ffca76f,2024-01-23_24h00.47.517,bars,2023.2.3,Win32,59.88023952,657b66ea316d21385b68909f,,,,,,,,,,,2527.5471,2528.5357,,,2529.0347,2529.2843,,83,83,,,,,,,,,,,,,,,,bars/028.png,bars/mask006.png,,,,,,,,,,,,0,2,,,,,,,4,4,4,4,,,,,,,,,,,2528.5357,2529.0346,2529.2844,2533.9638,space,4.6624,,2533.9638,38,37,2534.9669,2534.967,2534.9897,,,,0,4,4,4,1,45,120,,,,,,,,
,,656696c9ea15de5f69b6ddfa,65af53973f5fcc7f4ffca76f,2024-01-23_24h00.47.517,bars,2023.2.3,Win32,59.88023952,657b66ea316d21385b68909f,,,,,,,,,,,2534.99,2535.9933,,,2536.4937,2536.7432,,113,113,,,,,,,,,,,,,,,,bars/009.png,bars/mask004.png,,,,,,,,,,,,4,2,,,,,,,2,6,2,6,,,,,,,,,,,2535.9933,2536.4936,2536.7432,2541.2592,space,4.4982,,2541.2595,82,8,2542.2553,2542.2554,2542.2784,,,,0,5,5,5,1,15,105,,,,,,,,
,,656696c9ea15de5f69b6ddfa,65af53973f5fcc7f4ffca76f,2024-01-23_24h00.47.517,bars,2023.2.3,Win32,59.88023952,657b66ea316d21385b68909f,,,,,,,,,,,2542.2788,2543.2726,,,2543.7774,2544.0213,,105,105,,,,,,,,,,,,,,,,bars/009.png,bars/mask009.png,,,,,,,,,,,,4,2,,,,,,,4,4,5,4,,,,,,,,,,,2543.2727,2543.7774,2544.0213,2549.6558,space,5.6135,,2549.6559,90,0,2550.6484,2550.6484,2550.67,,,,0,6,6,6,1,15,105,,,,,,,,
,,656696c9ea15de5f69b6ddfa,65af53973f5fcc7f4ffca76f,2024-01-23_24h00.47.517,bars,2023.2.3,Win32,59.88023952,657b66ea316d21385b68909f,,,,,,,,,,,2550.6704,2551.6685,,,2552.1682,2552.4176,,138,138,,,,,,,,,,,,,,,,bars/016.png,bars/mask002.png,,,,,,,,,,,,0,2,,,,,,,2,6,1,5,,,,,,,,,,,2551.6686,2552.168,2552.4176,2555.8776,space,3.4375,,2555.8777,82,27,2556.8763,2556.8764,2556.8981,,,,0,7,7,7,1,40,165,,,,,,,,
,,656696c9ea15de5f69b6ddfa,65af53973f5fcc7f4ffca76f,2024-01-23_24h00.47.517,bars,2023.2.3,Win32,59.88023952,657b66ea316d21385b68909f,,,,,,,,,,,2556.8983,2557.8928,,,2558.3912,2558.6412,,107,107,,,,,,,,,,,,,,,,bars/002.png,bars/mask000.png,,,,,,,,,,,,1,2,,,,,,,0,4,0,5,,,,,,,,,,,2557.8929,2558.3912,2558.6413,2564.0246,space,5.363,,2564.0248,23,22,2565.0225,2565.0226,2565.0451,,,,0,8,8,8,1,130,85,,,,,,,,
,,656696c9ea15de5f69b6ddfa,65af53973f5fcc7f4ffca76f,2024-01-23_24h00.47.517,bars,2023.2.3,Win32,59.88023952,657b66ea316d21385b68909f,,,,,,,,,,,2565.0455,2566.0495,,,2566.5494,2566.7993,,116,116,,,,,,,,,,,,,,,,bars/039.png,bars/mask009.png,,,,,,,,,,,,3,2,,,,,,,2,6,3,5,,,,,,,,,,,2566.0496,2566.5494,2566.7994,2568.7478,space,1.9326,,2568.748,59,11,2569.7459,2569.7459,2569.7683,,,,0,9,9,9,1,175,105,,,,,,,,
,,656696c9ea15de5f69b6ddfa,65af53973f5fcc7f4ffca76f,2024-01-23_24h00.47.517,bars,2023.2.3,Win32,59.88023952,657b66ea316d21385b68909f,,,,,,,,,,,2569.7688,2570.7631,,,2571.2662,2571.5169,,33,213,,,,,,,,,,,,,,,,bars/016.png,bars/mask008.png,,,,,,,,,,,,5,1,,,,,,,4,8,7,8,,,,,,,,,,,2570.7632,2571.2662,2571.5169,2578.8553,space,7.3153,,2578.8554,7,48,2579.8537,2579.8539,2579.8788,,,,0,10,10,10,1,40,165,,,,,,,,
