init_variables.started,init_variables.stopped,participant,session,date,expName,psychopyVersion,OS,frameRate,study_id,instruction_exp.started,instruction_exp.stopped,key_resp_8.keys,key_resp_8.rt,key_resp_8.duration,instruction_single.started,instruction_single.stopped,key_resp_2.keys,key_resp_2.rt,key_resp_2.duration,interval.started,interval.stopped,cue_single.started,cue_single.stopped,mask.started,mask.stopped,ori_response_single.started,res_ori,res,ori_response_single.stopped,key_resp_single.keys,key_resp_single.rt,key_resp_single.duration,disp_single.started,disp_single.stopped,key_resp.keys,key_resp.rt,key_resp.duration,single.thisRepN,single.thisTrialN,single.thisN,single.thisIndex,single.ran,ori,path,mask_path,instruction_bandit.started,instruction_bandit.stopped,key_resp_6.keys,key_resp_6.rt,key_resp_6.duration,cue_bandit.started,cue_bandit.stopped,bandit_res.keys,bandit_res.rt,bandit_res.duration,outcome_bandit.started,rew,action,outcome_bandit.stopped,bandit.thisRepN,bandit.thisTrialN,bandit.thisN,bandit.thisIndex,bandit.ran,actual_rew1,actual_rew2,rew1,rew2,instruction_task.started,instruction_task.stopped,key_resp_7.keys,key_resp_7.rt,key_resp_7.duration,wait_ready.started,wait_ready.stopped,key_resp_3.keys,key_resp_3.rt,key_resp_3.duration,cue.started,cue.stopped,ori_response.started,ori_response.stopped,key_resp_5.keys,key_resp_5.rt,key_resp_5.duration,outcome.started,diff1,diff2,outcome.stopped,disp_outcome_practice.started,disp_outcome_practice.stopped,key_resp_4.keys,key_resp_4.rt,key_resp_4.duration,trials.thisRepN,trials.thisTrialN,trials.thisN,trials.thisIndex,trials.ran,ori1,ori2,break_blk.started,break_blk.stopped,block.thisRepN,block.thisTrialN,block.thisN,block.thisIndex,block.ran,condition_file
0.0002,0.0003,6124ce846b7b3c7bab41bbb5,65af54bb8ebdf7e17d6d572b,2024-01-23_07h56.51.824,bars,2023.2.3,Win32,60.01680471,657b66ea316d21385b68909f,,,,,,,,,,,,,,,,,,,,,,,,,,,,,,,,,,,,,,,,,,,,,,,,,,,,,,,,,,,,,,,,,,,,,,,,,,,,,,,,,,,,,,,,,,,,,,,,,,,,
,,6124ce846b7b3c7bab41bbb5,65af54bb8ebdf7e17d6d572b,2024-01-23_07h56.51.824,bars,2023.2.3,Win32,60.01680471,657b66ea316d21385b68909f,0.0004,30.6639,y,30.655,,,,,,,,,,,,,,,,,,,,,,,,,,,,,,,,,,,,,,,,,,,,,,,,,,,,,,,,,,,,,,,,,,,,,,,,,,,,,,,,,,,,,,,,,,,,,,,,
,,6124ce846b7b3c7bab41bbb5,65af54bb8ebdf7e17d6d572b,2024-01-23_07h56.51.824,bars,2023.2.3,Win32,60.01680471,657b66ea316d21385b68909f,,,,,,30.6639,61.5618,space,30.8876,,,,,,,,,,,,,,,,,,,,,,,,,,,,,,,,,,,,,,,,,,,,,,,,,,,,,,,,,,,,,,,,,,,,,,,,,,,,,,,,,,,,,,,,,,,
,,6124ce846b7b3c7bab41bbb5,65af54bb8ebdf7e17d6d572b,2024-01-23_07h56.51.824,bars,2023.2.3,Win32,60.01680471,657b66ea316d21385b68909f,,,,,,,,,,,61.5688,62.5691,62.5693,63.0692,63.0695,63.3193,63.3196,92,92,74.619,space,11.2668,,74.6191,86.5356,space,11.8871,,0,0,0,6,1,175,bars/single006.png,bars/mask005.png,,,,,,,,,,,,,,,,,,,,,,,,,,,,,,,,,,,,,,,,,,,,,,,,,,,,,,,,,,,,,,,,
,,6124ce846b7b3c7bab41bbb5,65af54bb8ebdf7e17d6d572b,2024-01-23_07h56.51.824,bars,2023.2.3,Win32,60.01680471,657b66ea316d21385b68909f,,,,,,,,,,,86.5425,87.5348,87.5349,88.0349,88.0349,88.285,88.285,96,96,94.985,space,6.6852,,94.9851,98.4349,space,3.4253,,0,1,1,7,1,45,bars/single007.png,bars/mask009.png,,,,,,,,,,,,,,,,,,,,,,,,,,,,,,,,,,,,,,,,,,,,,,,,,,,,,,,,,,,,,,,,
,,6124ce846b7b3c7bab41bbb5,65af54bb8ebdf7e17d6d572b,2024-01-23_07h56.51.824,bars,2023.2.3,Win32,60.01680471,657b66ea316d21385b68909f,,,,,,,,,,,98.4355,99.4348,99.4349,99.9349,99.9349,100.1848,100.1848,108,108,103.9859,space,3.7777,,103.9859,106.0691,space,2.0528,,0,2,2,9,1,20,bars/single009.png,bars/mask006.png,,,,,,,,,,,,,,,,,,,,,,,,,,,,,,,,,,,,,,,,,,,,,,,,,,,,,,,,,,,,,,,,
,,6124ce846b7b3c7bab41bbb5,65af54bb8ebdf7e17d6d572b,2024-01-23_07h56.51.824,bars,2023.2.3,Win32,60.01680471,657b66ea316d21385b68909f,,,,,,,,,,,106.0698,107.0688,107.0688,107.5688,107.5688,107.8188,107.8189,131,131,112.3026,space,4.4677,,112.3027,116.6356,space,4.2963,,0,3,3,0,1,150,bars/single000.png,bars/mask006.png,,,,,,,,,,,,,,,,,,,,,,,,,,,,,,,,,,,,,,,,,,,,,,,,,,,,,,,,,,,,,,,,
,,6124ce846b7b3c7bab41bbb5,65af54bb8ebdf7e17d6d572b,2024-01-23_07h56.51.824,bars,2023.2.3,Win32,60.01680471,657b66ea316d21385b68909f,,,,,,,,,,,116.6562,117.6519,117.6519,118.1523,118.1524,118.4024,118.4024,152,152,122.7353,space,4.3274,,122.7354,125.5854,space,2.8281,,0,4,4,3,1,20,bars/single003.png,bars/mask005.png,,,,,,,,,,,,,,,,,,,,,,,,,,,,,,,,,,,,,,,,,,,,,,,,,,,,,,,,,,,,,,,,
,,6124ce846b7b3c7bab41bbb5,65af54bb8ebdf7e17d6d572b,2024-01-23_07h56.51.824,bars,2023.2.3,Win32,60.01680471,657b66ea316d21385b68909f,,,,,,,,,,,125.6067,126.5856,126.5857,127.0858,127.0858,127.3355,127.3356,143,143,132.1191,space,4.7715,,132.1193,134.5191,space,2.3651,,0,5,5,5,1,55,bars/single005.png,bars/mask008.png,,,,,,,,,,,,,,,,,,,,,,,,,,,,,,,,,,,,,,,,,,,,,,,,,,,,,,,,,,,,,,,,
,,6124ce846b7b3c7bab41bbb5,65af54bb8ebdf7e17d6d572b,2024-01-23_07h56.51.824,bars,2023.2.3,Win32,60.01680471,657b66ea316d21385b68909f,,,,,,,,,,,134.5199,135.5188,135.5188,136.0186,136.0186,136.2688,136.2689,127,127,139.6187,space,3.3416,,139.6187,142.019,space,2.376,,0,6,6,4,1,95,bars/single004.png,bars/mask004.png,,,,,,,,,,,,,,,,,,,,,,,,,,,,,,,,,,,,,,,,,,,,,,,,,,,,,,,,,,,,,,,,
,,6124ce846b7b3c7bab41bbb5,65af54bb8ebdf7e17d6d572b,2024-01-23_07h56.51.824,bars,2023.2.3,Win32,60.01680471,657b66ea316d21385b68909f,,,,,,,,,,,142.0196,143.0189,143.0189,143.5191,143.5192,143.769,143.769,124,-56,147.7523,space,3.9697,,147.7524,152.3351,space,4.5466,,0,7,7,1,1,20,bars/single001.png,bars/mask006.png,,,,,,,,,,,,,,,,,,,,,,,,,,,,,,,,,,,,,,,,,,,,,,,,,,,,,,,,,,,,,,,,
,,6124ce846b7b3c7bab41bbb5,65af54bb8ebdf7e17d6d572b,2024-01-23_07h56.51.824,bars,2023.2.3,Win32,60.01680471,657b66ea316d21385b68909f,,,,,,,,,,,152.3416,153.3357,153.3357,153.8356,153.8358,154.0856,154.0857,140,140,160.1858,space,6.085,,160.1859,162.5526,space,2.3335,,0,8,8,2,1,145,bars/single002.png,bars/mask003.png,,,,,,,,,,,,,,,,,,,,,,,,,,,,,,,,,,,,,,,,,,,,,,,,,,,,,,,,,,,,,,,,
,,6124ce846b7b3c7bab41bbb5,65af54bb8ebdf7e17d6d572b,2024-01-23_07h56.51.824,bars,2023.2.3,Win32,60.01680471,657b66ea316d21385b68909f,,,,,,,,,,,162.5532,163.552,163.5521,164.0521,164.0522,164.3021,164.3021,140,140,168.9022,space,4.5886,,168.9022,170.219,space,1.2841,,0,9,9,8,1,160,bars/single008.png,bars/mask004.png,,,,,,,,,,,,,,,,,,,,,,,,,,,,,,,,,,,,,,,,,,,,,,,,,,,,,,,,,,,,,,,,
,,6124ce846b7b3c7bab41bbb5,65af54bb8ebdf7e17d6d572b,2024-01-23_07h56.51.824,bars,2023.2.3,Win32,60.01680471,657b66ea316d21385b68909f,,,,,,,,,,,,,,,,,,,,,,,,,,,,,,,,,,,,,170.2206,182.0036,space,11.7605,,,,,,,,,,,,,,,,,,,,,,,,,,,,,,,,,,,,,,,,,,,,,,,,,,,,,,,,,,,,
,,6124ce846b7b3c7bab41bbb5,65af54bb8ebdf7e17d6d572b,2024-01-23_07h56.51.824,bars,2023.2.3,Win32,60.01680471,657b66ea316d21385b68909f,,,,,,,,,,,,,,,,,,,,,,,,,,,,,,,,,,,,,,,,,,182.025,188.4533,right,6.4136,,188.4536,2,2,189.4517,0,0,0,0,1,9,1,9,2,,,,,,,,,,,,,,,,,,,,,,,,,,,,,,,,,,,,,,,,,
,,6124ce846b7b3c7bab41bbb5,65af54bb8ebdf7e17d6d572b,2024-01-23_07h56.51.824,bars,2023.2.3,Win32,60.01680471,657b66ea316d21385b68909f,,,,,,,,,,,,,,,,,,,,,,,,,,,,,,,,,,,,,,,,,,189.4521,190.7517,right,1.2782,,190.7517,1,2,191.7516,0,1,1,1,1,10,0,10,1,,,,,,,,,,,,,,,,,,,,,,,,,,,,,,,,,,,,,,,,,
,,6124ce846b7b3c7bab41bbb5,65af54bb8ebdf7e17d6d572b,2024-01-23_07h56.51.824,bars,2023.2.3,Win32,60.01680471,657b66ea316d21385b68909f,,,,,,,,,,,,,,,,,,,,,,,,,,,,,,,,,,,,,,,,,,191.7518,192.985,left,1.2023,,192.985,10,1,193.985,0,2,2,2,1,10,2,10,2,,,,,,,,,,,,,,,,,,,,,,,,,,,,,,,,,,,,,,,,,
,,6124ce846b7b3c7bab41bbb5,65af54bb8ebdf7e17d6d572b,2024-01-23_07h56.51.824,bars,2023.2.3,Win32,60.01680471,657b66ea316d21385b68909f,,,,,,,,,,,,,,,,,,,,,,,,,,,,,,,,,,,,,,,,,,193.9853,195.7065,left,1.7004,,195.7065,7,1,196.7016,0,3,3,3,1,8,4,7,3,,,,,,,,,,,,,,,,,,,,,,,,,,,,,,,,,,,,,,,,,
,,6124ce846b7b3c7bab41bbb5,65af54bb8ebdf7e17d6d572b,2024-01-23_07h56.51.824,bars,2023.2.3,Win32,60.01680471,657b66ea316d21385b68909f,,,,,,,,,,,,,,,,,,,,,,,,,,,,,,,,,,,,,,,,,,196.708,197.7517,right,1.0212,,197.7517,1,2,198.7516,0,4,4,4,1,6,2,5,1,,,,,,,,,,,,,,,,,,,,,,,,,,,,,,,,,,,,,,,,,
,,6124ce846b7b3c7bab41bbb5,65af54bb8ebdf7e17d6d572b,2024-01-23_07h56.51.824,bars,2023.2.3,Win32,60.01680471,657b66ea316d21385b68909f,,,,,,,,,,,,,,,,,,,,,,,,,,,,,,,,,,,,,,,,,,198.7519,200.0016,left,1.2263,,200.0017,4,1,201.0016,0,5,5,5,1,4,4,4,4,,,,,,,,,,,,,,,,,,,,,,,,,,,,,,,,,,,,,,,,,
,,6124ce846b7b3c7bab41bbb5,65af54bb8ebdf7e17d6d572b,2024-01-23_07h56.51.824,bars,2023.2.3,Win32,60.01680471,657b66ea316d21385b68909f,,,,,,,,,,,,,,,,,,,,,,,,,,,,,,,,,,,,,,,,,,201.0018,202.3183,right,1.2845,,202.3183,2,2,203.3183,0,6,6,6,1,2,2,1,2,,,,,,,,,,,,,,,,,,,,,,,,,,,,,,,,,,,,,,,,,
,,6124ce846b7b3c7bab41bbb5,65af54bb8ebdf7e17d6d572b,2024-01-23_07h56.51.824,bars,2023.2.3,Win32,60.01680471,657b66ea316d21385b68909f,,,,,,,,,,,,,,,,,,,,,,,,,,,,,,,,,,,,,,,,,,203.3186,204.3183,left,0.9677,,204.3184,0,1,205.3182,0,7,7,7,1,0,0,0,1,,,,,,,,,,,,,,,,,,,,,,,,,,,,,,,,,,,,,,,,,
,,6124ce846b7b3c7bab41bbb5,65af54bb8ebdf7e17d6d572b,2024-01-23_07h56.51.824,bars,2023.2.3,Win32,60.01680471,657b66ea316d21385b68909f,,,,,,,,,,,,,,,,,,,,,,,,,,,,,,,,,,,,,,,,,,205.3183,206.185,left,0.8355,,206.185,1,1,207.185,0,8,8,8,1,0,2,1,0,,,,,,,,,,,,,,,,,,,,,,,,,,,,,,,,,,,,,,,,,
,,6124ce846b7b3c7bab41bbb5,65af54bb8ebdf7e17d6d572b,2024-01-23_07h56.51.824,bars,2023.2.3,Win32,60.01680471,657b66ea316d21385b68909f,,,,,,,,,,,,,,,,,,,,,,,,,,,,,,,,,,,,,,,,,,207.1853,208.2184,left,1.0012,,208.2184,2,1,209.2183,0,9,9,9,1,2,4,2,3,,,,,,,,,,,,,,,,,,,,,,,,,,,,,,,,,,,,,,,,,
,,6124ce846b7b3c7bab41bbb5,65af54bb8ebdf7e17d6d572b,2024-01-23_07h56.51.824,bars,2023.2.3,Win32,60.01680471,657b66ea316d21385b68909f,,,,,,,,,,,,,,,,,,,,,,,,,,,,,,,,,,,,,,,,,,209.2188,210.0851,right,0.8398,,210.0851,3,2,211.085,0,10,10,10,1,0,2,0,3,,,,,,,,,,,,,,,,,,,,,,,,,,,,,,,,,,,,,,,,,
,,6124ce846b7b3c7bab41bbb5,65af54bb8ebdf7e17d6d572b,2024-01-23_07h56.51.824,bars,2023.2.3,Win32,60.01680471,657b66ea316d21385b68909f,,,,,,,,,,,,,,,,,,,,,,,,,,,,,,,,,,,,,,,,,,211.0853,211.9565,left,0.8501,,211.9565,0,1,212.9516,0,11,11,11,1,0,4,0,3,,,,,,,,,,,,,,,,,,,,,,,,,,,,,,,,,,,,,,,,,
,,6124ce846b7b3c7bab41bbb5,65af54bb8ebdf7e17d6d572b,2024-01-23_07h56.51.824,bars,2023.2.3,Win32,60.01680471,657b66ea316d21385b68909f,,,,,,,,,,,,,,,,,,,,,,,,,,,,,,,,,,,,,,,,,,212.9519,213.7016,right,0.7222,,213.7017,6,2,214.7016,0,12,12,12,1,2,6,1,6,,,,,,,,,,,,,,,,,,,,,,,,,,,,,,,,,,,,,,,,,
,,6124ce846b7b3c7bab41bbb5,65af54bb8ebdf7e17d6d572b,2024-01-23_07h56.51.824,bars,2023.2.3,Win32,60.01680471,657b66ea316d21385b68909f,,,,,,,,,,,,,,,,,,,,,,,,,,,,,,,,,,,,,,,,,,214.7019,215.5684,right,0.8444,,215.5684,3,2,216.5683,0,13,13,13,1,0,4,1,3,,,,,,,,,,,,,,,,,,,,,,,,,,,,,,,,,,,,,,,,,
,,6124ce846b7b3c7bab41bbb5,65af54bb8ebdf7e17d6d572b,2024-01-23_07h56.51.824,bars,2023.2.3,Win32,60.01680471,657b66ea316d21385b68909f,,,,,,,,,,,,,,,,,,,,,,,,,,,,,,,,,,,,,,,,,,216.5685,217.2518,right,0.6575,,217.2518,7,2,218.2516,0,14,14,14,1,2,6,2,7,,,,,,,,,,,,,,,,,,,,,,,,,,,,,,,,,,,,,,,,,
,,6124ce846b7b3c7bab41bbb5,65af54bb8ebdf7e17d6d572b,2024-01-23_07h56.51.824,bars,2023.2.3,Win32,60.01680471,657b66ea316d21385b68909f,,,,,,,,,,,,,,,,,,,,,,,,,,,,,,,,,,,,,,,,,,218.2517,218.9683,right,0.6863,,218.9683,9,2,219.9683,0,15,15,15,1,4,8,3,9,,,,,,,,,,,,,,,,,,,,,,,,,,,,,,,,,,,,,,,,,
,,6124ce846b7b3c7bab41bbb5,65af54bb8ebdf7e17d6d572b,2024-01-23_07h56.51.824,bars,2023.2.3,Win32,60.01680471,657b66ea316d21385b68909f,,,,,,,,,,,,,,,,,,,,,,,,,,,,,,,,,,,,,,,,,,219.9686,220.6868,right,0.6838,,220.6869,7,2,221.6849,0,16,16,16,1,6,6,7,7,,,,,,,,,,,,,,,,,,,,,,,,,,,,,,,,,,,,,,,,,
,,6124ce846b7b3c7bab41bbb5,65af54bb8ebdf7e17d6d572b,2024-01-23_07h56.51.824,bars,2023.2.3,Win32,60.01680471,657b66ea316d21385b68909f,,,,,,,,,,,,,,,,,,,,,,,,,,,,,,,,,,,,,,,,,,221.6853,222.2852,right,0.5675,,222.2852,5,2,223.2853,0,17,17,17,1,8,4,9,5,,,,,,,,,,,,,,,,,,,,,,,,,,,,,,,,,,,,,,,,,
,,6124ce846b7b3c7bab41bbb5,65af54bb8ebdf7e17d6d572b,2024-01-23_07h56.51.824,bars,2023.2.3,Win32,60.01680471,657b66ea316d21385b68909f,,,,,,,,,,,,,,,,,,,,,,,,,,,,,,,,,,,,,,,,,,223.2857,223.8855,left,0.568,,223.8855,5,1,224.8852,0,18,18,18,1,6,2,5,1,,,,,,,,,,,,,,,,,,,,,,,,,,,,,,,,,,,,,,,,,
,,6124ce846b7b3c7bab41bbb5,65af54bb8ebdf7e17d6d572b,2024-01-23_07h56.51.824,bars,2023.2.3,Win32,60.01680471,657b66ea316d21385b68909f,,,,,,,,,,,,,,,,,,,,,,,,,,,,,,,,,,,,,,,,,,224.886,225.5689,left,0.6619,,225.569,7,1,226.5682,0,19,19,19,1,8,0,7,0,,,,,,,,,,,,,,,,,,,,,,,,,,,,,,,,,,,,,,,,,
,,6124ce846b7b3c7bab41bbb5,65af54bb8ebdf7e17d6d572b,2024-01-23_07h56.51.824,bars,2023.2.3,Win32,60.01680471,657b66ea316d21385b68909f,,,,,,,,,,,,,,,,,,,,,,,,,,,,,,,,,,,,,,,,,,,,,,,,,,,,,,,,,,,,226.5687,255.4523,space,28.8512,,,,,,,,,,,,,,,,,,,,,,,,,,,,,,,,,,,,,
,,6124ce846b7b3c7bab41bbb5,65af54bb8ebdf7e17d6d572b,2024-01-23_07h56.51.824,bars,2023.2.3,Win32,60.01680471,657b66ea316d21385b68909f,,,,,,,,,,,257.3049,258.3022,,,258.8019,259.0522,,93,93,,,,,,,,,,,,,,,,bars/019.png,bars/mask002.png,,,,,,,,,,,,5,2,,,,,,,10,7,10,8,,,,,,255.4603,257.3019,space,1.8288,,258.3025,258.8018,259.0527,266.9688,space,7.8947,,266.9689,48,12,267.9686,267.9687,275.4532,space,7.4622,,0,0,0,0,1,45,105,,,,,,,,
,,6124ce846b7b3c7bab41bbb5,65af54bb8ebdf7e17d6d572b,2024-01-23_07h56.51.824,bars,2023.2.3,Win32,60.01680471,657b66ea316d21385b68909f,,,,,,,,,,,275.4715,276.4691,,,276.9684,277.2184,,99,99,,,,,,,,,,,,,,,,bars/039.png,bars/mask008.png,,,,,,,,,,,,5,2,,,,,,,10,5,10,6,,,,,,,,,,,276.4691,276.9684,277.2184,280.7859,space,3.5615,,280.7862,76,6,281.7851,281.7852,284.0524,space,2.2501,,0,1,1,1,1,175,105,,,,,,,,
,,6124ce846b7b3c7bab41bbb5,65af54bb8ebdf7e17d6d572b,2024-01-23_07h56.51.824,bars,2023.2.3,Win32,60.01680471,657b66ea316d21385b68909f,,,,,,,,,,,284.0529,285.0523,,,285.5525,285.8025,,101,101,,,,,,,,,,,,,,,,bars/009.png,bars/mask009.png,,,,,,,,,,,,3,2,,,,,,,10,3,9,3,,,,,,,,,,,285.0524,285.5523,285.8026,288.1691,space,2.352,,288.1692,86,4,289.1692,289.1692,291.2193,space,2.0267,,0,2,2,2,1,15,105,,,,,,,,
,,6124ce846b7b3c7bab41bbb5,65af54bb8ebdf7e17d6d572b,2024-01-23_07h56.51.824,bars,2023.2.3,Win32,60.01680471,657b66ea316d21385b68909f,,,,,,,,,,,291.22,292.219,,,292.7186,292.9688,,113,113,,,,,,,,,,,,,,,,bars/034.png,bars/mask009.png,,,,,,,,,,,,4,1,,,,,,,8,1,6,0,,,,,,,,,,,292.2191,292.7185,292.9689,297.2193,space,4.2423,,297.2193,12,48,298.2184,298.2184,300.4359,space,2.1924,,0,3,3,3,1,125,65,,,,,,,,
,,6124ce846b7b3c7bab41bbb5,65af54bb8ebdf7e17d6d572b,2024-01-23_07h56.51.824,bars,2023.2.3,Win32,60.01680471,657b66ea316d21385b68909f,,,,,,,,,,,300.4368,301.4357,,,301.9358,302.185,,113,113,,,,,,,,,,,,,,,,bars/013.png,bars/mask005.png,,,,,,,,,,,,0,1,,,,,,,10,0,10,1,,,,,,,,,,,301.4357,301.9358,302.185,305.3026,space,3.1067,,305.3027,38,77,306.3024,306.3024,307.8192,space,1.4769,,0,4,4,4,1,75,10,,,,,,,,
,,6124ce846b7b3c7bab41bbb5,65af54bb8ebdf7e17d6d572b,2024-01-23_07h56.51.824,bars,2023.2.3,Win32,60.01680471,657b66ea316d21385b68909f,,,,,,,,,,,307.8198,308.8189,,,309.3184,309.5683,,104,104,,,,,,,,,,,,,,,,bars/018.png,bars/mask008.png,,,,,,,,,,,,1,2,,,,,,,8,0,9,1,,,,,,,,,,,308.819,309.3184,309.5683,312.8353,space,3.2578,,312.8353,46,14,313.8351,313.8351,315.0683,space,1.2003,,0,5,5,5,1,150,90,,,,,,,,
,,6124ce846b7b3c7bab41bbb5,65af54bb8ebdf7e17d6d572b,2024-01-23_07h56.51.824,bars,2023.2.3,Win32,60.01680471,657b66ea316d21385b68909f,,,,,,,,,,,315.0686,316.0684,,,316.5684,316.8184,,108,108,,,,,,,,,,,,,,,,bars/003.png,bars/mask005.png,,,,,,,,,,,,0,2,,,,,,,6,2,7,2,,,,,,,,,,,316.0684,316.5684,316.8184,319.4185,space,2.584,,319.4186,83,32,320.4184,320.4184,324.085,space,3.6392,,0,6,6,6,1,25,140,,,,,,,,
,,6124ce846b7b3c7bab41bbb5,65af54bb8ebdf7e17d6d572b,2024-01-23_07h56.51.824,bars,2023.2.3,Win32,60.01680471,657b66ea316d21385b68909f,,,,,,,,,,,324.0914,325.085,,,325.585,325.835,,100,100,,,,,,,,,,,,,,,,bars/021.png,bars/mask003.png,,,,,,,,,,,,0,2,,,,,,,8,0,9,0,,,,,,,,,,,325.0851,325.585,325.835,329.485,space,3.634,,329.485,55,30,330.4851,330.4852,332.585,space,2.0686,,0,7,7,7,1,155,70,,,,,,,,
,,6124ce846b7b3c7bab41bbb5,65af54bb8ebdf7e17d6d572b,2024-01-23_07h56.51.824,bars,2023.2.3,Win32,60.01680471,657b66ea316d21385b68909f,,,,,,,,,,,332.5854,333.585,,,334.0851,334.335,,66,66,,,,,,,,,,,,,,,,bars/044.png,bars/mask008.png,,,,,,,,,,,,4,1,,,,,,,6,2,6,2,,,,,,,,,,,333.585,334.0851,334.335,338.1851,space,3.8351,,338.1852,9,89,339.1851,339.1851,341.7851,space,2.5687,,0,8,8,8,1,75,155,,,,,,,,
,,6124ce846b7b3c7bab41bbb5,65af54bb8ebdf7e17d6d572b,2024-01-23_07h56.51.824,bars,2023.2.3,Win32,60.01680471,657b66ea316d21385b68909f,,,,,,,,,,,341.7915,342.7849,,,343.285,343.5359,,155,155,,,,,,,,,,,,,,,,bars/014.png,bars/mask001.png,,,,,,,,,,,,0,2,,,,,,,8,0,6,0,,,,,,,,,,,342.7849,343.285,343.536,344.4359,space,0.8914,,344.4359,75,25,345.4351,345.4351,347.6855,space,2.2228,,0,9,9,9,1,80,0,,,,,,,,
,,6124ce846b7b3c7bab41bbb5,65af54bb8ebdf7e17d6d572b,2024-01-23_07h56.51.824,bars,2023.2.3,Win32,60.01680471,657b66ea316d21385b68909f,,,,,,,,,,,347.6987,348.6858,,,349.1856,349.4358,,138,138,,,,,,,,,,,,,,,,bars/001.png,bars/mask006.png,,,,,,,,,,,,7,1,,,,,,,10,2,10,1,,,,,,,,,,,348.6859,349.1856,349.4358,352.6688,space,3.2168,,352.6689,8,53,353.6684,353.6684,355.3192,space,1.622,,0,10,10,10,1,130,85,,,,,,,,
,,6124ce846b7b3c7bab41bbb5,65af54bb8ebdf7e17d6d572b,2024-01-23_07h56.51.824,bars,2023.2.3,Win32,60.01680471,657b66ea316d21385b68909f,,,,,,,,,,,355.3199,356.3191,,,356.8191,357.074,,126,126,,,,,,,,,,,,,,,,bars/007.png,bars/mask006.png,,,,,,,,,,,,0,1,,,,,,,10,4,10,4,,,,,,,,,,,356.3192,356.819,357.074,359.7859,space,2.6969,,359.7859,49,71,360.7857,360.7858,362.1691,space,1.3458,,0,11,11,11,1,175,55,,,,,,,,
,,6124ce846b7b3c7bab41bbb5,65af54bb8ebdf7e17d6d572b,2024-01-23_07h56.51.824,bars,2023.2.3,Win32,60.01680471,657b66ea316d21385b68909f,,,,,,,,,,,362.1697,363.1689,,,363.6688,363.919,,134,134,,,,,,,,,,,,,,,,bars/044.png,bars/mask006.png,,,,,,,,,,,,1,2,,,,,,,10,2,8,2,,,,,,,,,,,363.1691,363.6688,363.9191,368.5185,space,4.5865,,368.5185,59,21,369.519,369.519,370.5691,space,1.0136,,0,12,12,12,1,75,155,,,,,,,,
,,6124ce846b7b3c7bab41bbb5,65af54bb8ebdf7e17d6d572b,2024-01-23_07h56.51.824,bars,2023.2.3,Win32,60.01680471,657b66ea316d21385b68909f,,,,,,,,,,,370.5698,371.569,,,372.0692,372.3189,,124,124,,,,,,,,,,,,,,,,bars/012.png,bars/mask000.png,,,,,,,,,,,,0,1,,,,,,,8,4,8,4,,,,,,,,,,,371.5691,372.0691,372.319,375.3024,space,2.9722,,375.3025,34,71,376.3024,376.3024,379.2859,space,2.9482,,0,13,13,13,1,90,15,,,,,,,,
,,6124ce846b7b3c7bab41bbb5,65af54bb8ebdf7e17d6d572b,2024-01-23_07h56.51.824,bars,2023.2.3,Win32,60.01680471,657b66ea316d21385b68909f,,,,,,,,,,,379.2866,380.2858,,,380.7857,381.0355,,107,107,,,,,,,,,,,,,,,,bars/044.png,bars/mask002.png,,,,,,,,,,,,0,1,,,,,,,10,6,9,7,,,,,,,,,,,380.2858,380.7856,381.0356,383.6853,space,2.6381,,383.6853,32,48,384.6857,384.6858,385.7862,space,1.0647,,0,14,14,14,1,75,155,,,,,,,,
,,6124ce846b7b3c7bab41bbb5,65af54bb8ebdf7e17d6d572b,2024-01-23_07h56.51.824,bars,2023.2.3,Win32,60.01680471,657b66ea316d21385b68909f,,,,,,,,,,,385.7872,386.7853,,,387.2854,387.5356,,64,64,,,,,,,,,,,,,,,,bars/005.png,bars/mask008.png,,,,,,,,,,,,0,1,,,,,,,8,8,9,8,,,,,,,,,,,386.7854,387.2854,387.5357,391.3023,space,3.756,,391.3024,54,76,392.302,392.3021,395.7524,space,3.4211,,0,15,15,15,1,10,140,,,,,,,,
,,6124ce846b7b3c7bab41bbb5,65af54bb8ebdf7e17d6d572b,2024-01-23_07h56.51.824,bars,2023.2.3,Win32,60.01680471,657b66ea316d21385b68909f,,,,,,,,,,,395.7707,396.769,,,397.2689,397.5187,,72,72,,,,,,,,,,,,,,,,bars/033.png,bars/mask009.png,,,,,,,,,,,,0,1,,,,,,,6,10,8,9,,,,,,,,,,,396.769,397.2689,397.5188,399.5686,space,2.0432,,399.5687,47,83,400.5688,400.5688,402.469,space,1.8738,,0,16,16,16,1,25,155,,,,,,,,
,,6124ce846b7b3c7bab41bbb5,65af54bb8ebdf7e17d6d572b,2024-01-23_07h56.51.824,bars,2023.2.3,Win32,60.01680471,657b66ea316d21385b68909f,,,,,,,,,,,402.4698,403.4687,,,403.969,404.219,,60,60,,,,,,,,,,,,,,,,bars/011.png,bars/mask007.png,,,,,,,,,,,,2,2,,,,,,,4,10,3,10,,,,,,,,,,,403.4688,403.9689,404.2191,408.6688,space,4.4326,,408.6689,80,25,409.6691,409.6691,411.3693,space,1.6628,,0,17,17,17,1,160,85,,,,,,,,
,,6124ce846b7b3c7bab41bbb5,65af54bb8ebdf7e17d6d572b,2024-01-23_07h56.51.824,bars,2023.2.3,Win32,60.01680471,657b66ea316d21385b68909f,,,,,,,,,,,411.3701,412.3691,,,412.8694,413.1189,,54,54,,,,,,,,,,,,,,,,bars/024.png,bars/mask008.png,,,,,,,,,,,,0,2,,,,,,,2,10,1,9,,,,,,,,,,,412.3691,412.8693,413.1189,415.8358,space,2.7007,,415.8358,66,64,416.8398,416.8398,418.2024,space,1.3352,,0,18,18,18,1,120,170,,,,,,,,
,,6124ce846b7b3c7bab41bbb5,65af54bb8ebdf7e17d6d572b,2024-01-23_07h56.51.824,bars,2023.2.3,Win32,60.01680471,657b66ea316d21385b68909f,,,,,,,,,,,418.2028,419.2026,,,419.7025,419.9523,,73,73,,,,,,,,,,,,,,,,bars/045.png,bars/mask002.png,,,,,,,,,,,,0,1,,,,,,,0,8,0,8,,,,,,,,,,,419.2027,419.7025,419.9524,422.2358,space,2.2672,,422.2359,27,63,423.2358,423.2359,424.4692,space,1.1982,,0,19,19,19,1,100,10,,,,,,,,
,,6124ce846b7b3c7bab41bbb5,65af54bb8ebdf7e17d6d572b,2024-01-23_07h56.51.824,bars,2023.2.3,Win32,60.01680471,657b66ea316d21385b68909f,,,,,,,,,,,424.4699,425.4689,,,425.9693,426.219,,62,62,,,,,,,,,,,,,,,,bars/003.png,bars/mask001.png,,,,,,,,,,,,0,1,,,,,,,0,10,1,10,,,,,,,,,,,425.469,425.9692,426.219,429.1185,space,2.8829,,429.1185,37,78,430.1183,430.1184,431.4018,space,1.2511,,0,20,20,20,1,25,140,,,,,,,,
,,6124ce846b7b3c7bab41bbb5,65af54bb8ebdf7e17d6d572b,2024-01-23_07h56.51.824,bars,2023.2.3,Win32,60.01680471,657b66ea316d21385b68909f,,,,,,,,,,,431.4021,432.4017,,,432.9063,433.1517,,64,64,,,,,,,,,,,,,,,,bars/003.png,bars/mask006.png,,,,,,,,,,,,0,1,,,,,,,0,10,0,9,,,,,,,,,,,432.4017,432.9063,433.1517,438.1184,space,4.9545,,438.1185,39,76,439.1063,439.1063,441.185,space,2.0603,,0,21,21,21,1,25,140,,,,,,,,
,,6124ce846b7b3c7bab41bbb5,65af54bb8ebdf7e17d6d572b,2024-01-23_07h56.51.824,bars,2023.2.3,Win32,60.01680471,657b66ea316d21385b68909f,,,,,,,,,,,441.1854,442.1852,,,442.6851,442.923,,63,63,,,,,,,,,,,,,,,,bars/028.png,bars/mask008.png,,,,,,,,,,,,1,1,,,,,,,2,10,2,10,,,,,,,,,,,442.1852,442.6851,442.923,446.7184,space,3.7676,,446.7185,18,57,447.7184,447.7184,448.6684,space,0.9168,,0,22,22,22,1,45,120,,,,,,,,
,,6124ce846b7b3c7bab41bbb5,65af54bb8ebdf7e17d6d572b,2024-01-23_07h56.51.824,bars,2023.2.3,Win32,60.01680471,657b66ea316d21385b68909f,,,,,,,,,,,448.6687,449.6684,,,450.1684,450.4184,,65,65,,,,,,,,,,,,,,,,bars/015.png,bars/mask008.png,,,,,,,,,,,,0,1,,,,,,,4,10,3,9,,,,,,,,,,,449.6684,450.1684,450.4184,453.0851,space,2.6502,,453.0851,45,85,454.085,454.085,457.0018,space,2.8845,,0,23,23,23,1,110,160,,,,,,,,
,,6124ce846b7b3c7bab41bbb5,65af54bb8ebdf7e17d6d572b,2024-01-23_07h56.51.824,bars,2023.2.3,Win32,60.01680471,657b66ea316d21385b68909f,,,,,,,,,,,457.0021,458.0017,,,458.5016,458.7517,,116,116,,,,,,,,,,,,,,,,bars/028.png,bars/mask001.png,,,,,,,,,,,,7,2,,,,,,,2,10,2,8,,,,,,,,,,,458.0018,458.5016,458.7517,461.9851,space,3.2267,,461.9851,71,4,462.9856,462.9857,465.5358,space,2.5122,,0,24,24,24,1,45,120,,,,,,,,
,,6124ce846b7b3c7bab41bbb5,65af54bb8ebdf7e17d6d572b,2024-01-23_07h56.51.824,bars,2023.2.3,Win32,60.01680471,657b66ea316d21385b68909f,,,,,,,,,,,465.5365,466.5357,,,467.0359,467.2853,,119,119,,,,,,,,,,,,,,,,bars/012.png,bars/mask004.png,,,,,,,,,,,,0,1,,,,,,,0,10,0,10,,,,,,,,,,,466.5357,467.0358,467.2854,472.7688,space,5.478,,472.769,29,76,473.7691,473.7691,475.1357,space,1.3242,,0,25,25,25,1,90,15,,,,,,,,
,,6124ce846b7b3c7bab41bbb5,65af54bb8ebdf7e17d6d572b,2024-01-23_07h56.51.824,bars,2023.2.3,Win32,60.01680471,657b66ea316d21385b68909f,,,,,,,,,,,475.1362,476.1356,,,476.6359,476.8858,,114,114,,,,,,,,,,,,,,,,bars/034.png,bars/mask005.png,,,,,,,,,,,,0,1,,,,,,,0,10,0,10,,,,,,,,,,,476.1356,476.6358,476.8859,481.9695,space,5.0674,,481.9696,11,49,482.969,482.9691,484.3527,space,1.3467,,0,26,26,26,1,125,65,,,,,,,,
,,6124ce846b7b3c7bab41bbb5,65af54bb8ebdf7e17d6d572b,2024-01-23_07h56.51.824,bars,2023.2.3,Win32,60.01680471,657b66ea316d21385b68909f,,,,,,,,,,,484.3535,485.3523,,,485.8526,486.1026,,126,126,,,,,,,,,,,,,,,,bars/020.png,bars/mask002.png,,,,,,,,,,,,0,1,,,,,,,0,8,0,6,,,,,,,,,,,485.3524,485.8525,486.1027,520.369,space,34.2594,,520.3691,11,44,521.3689,521.3689,523.5365,space,2.1384,,0,27,27,27,1,115,170,,,,,,,,
,,6124ce846b7b3c7bab41bbb5,65af54bb8ebdf7e17d6d572b,2024-01-23_07h56.51.824,bars,2023.2.3,Win32,60.01680471,657b66ea316d21385b68909f,,,,,,,,,,,523.5371,524.5358,,,525.0359,525.2856,,114,114,,,,,,,,,,,,,,,,bars/011.png,bars/mask008.png,,,,,,,,,,,,0,2,,,,,,,2,6,2,5,,,,,,,,,,,524.5359,525.0359,525.2858,529.4027,space,4.1012,,529.4027,46,29,530.4025,530.4025,531.9028,space,1.459,,0,28,28,28,1,160,85,,,,,,,,
,,6124ce846b7b3c7bab41bbb5,65af54bb8ebdf7e17d6d572b,2024-01-23_07h56.51.824,bars,2023.2.3,Win32,60.01680471,657b66ea316d21385b68909f,,,,,,,,,,,531.9032,532.9022,,,533.4025,533.6526,,113,113,,,,,,,,,,,,,,,,bars/040.png,bars/mask000.png,,,,,,,,,,,,0,1,,,,,,,0,8,0,8,,,,,,,,,,,532.9022,533.4025,533.6526,537.5192,space,3.8506,,537.5193,27,72,538.5185,538.5185,540.1027,space,1.5645,,0,29,29,29,1,140,5,,,,,,,,
,,6124ce846b7b3c7bab41bbb5,65af54bb8ebdf7e17d6d572b,2024-01-23_07h56.51.824,bars,2023.2.3,Win32,60.01680471,657b66ea316d21385b68909f,,,,,,,,,,,540.1032,541.1026,,,541.6025,541.8526,,108,108,,,,,,,,,,,,,,,,bars/025.png,bars/mask004.png,,,,,,,,,,,,0,1,,,,,,,0,6,0,7,,,,,,,,,,,541.1026,541.6024,541.8526,548.7185,space,6.8489,,548.7186,3,68,549.7184,549.7185,550.6351,space,0.8935,,0,30,30,30,1,105,40,,,,,,,,
,,6124ce846b7b3c7bab41bbb5,65af54bb8ebdf7e17d6d572b,2024-01-23_07h56.51.824,bars,2023.2.3,Win32,60.01680471,657b66ea316d21385b68909f,,,,,,,,,,,550.6354,551.6352,,,552.1352,552.3852,,107,107,,,,,,,,,,,,,,,,bars/029.png,bars/mask009.png,,,,,,,,,,,,0,1,,,,,,,0,8,1,10,,,,,,,,,,,551.6352,552.1352,552.3852,564.2019,space,11.8005,,564.202,17,62,565.2019,565.2019,567.4353,space,2.2102,,0,31,31,31,1,90,45,,,,,,,,
,,6124ce846b7b3c7bab41bbb5,65af54bb8ebdf7e17d6d572b,2024-01-23_07h56.51.824,bars,2023.2.3,Win32,60.01680471,657b66ea316d21385b68909f,,,,,,,,,,,567.4354,568.4352,,,568.9352,569.1852,,111,111,,,,,,,,,,,,,,,,bars/010.png,bars/mask000.png,,,,,,,,,,,,0,1,,,,,,,0,10,0,10,,,,,,,,,,,568.4353,568.9352,569.1852,575.3519,space,6.1527,,575.352,54,56,576.3519,576.3519,578.2353,space,1.8603,,0,32,32,32,1,165,55,,,,,,,,
,,6124ce846b7b3c7bab41bbb5,65af54bb8ebdf7e17d6d572b,2024-01-23_07h56.51.824,bars,2023.2.3,Win32,60.01680471,657b66ea316d21385b68909f,,,,,,,,,,,578.2355,579.2352,,,579.7352,579.9852,,116,116,,,,,,,,,,,,,,,,bars/010.png,bars/mask006.png,,,,,,,,,,,,0,1,,,,,,,0,10,0,9,,,,,,,,,,,579.2352,579.7352,579.9852,584.7363,space,4.7355,,584.7363,49,61,585.7358,585.7358,590.5521,space,4.7868,,0,33,33,33,1,165,55,,,,,,,,
,,6124ce846b7b3c7bab41bbb5,65af54bb8ebdf7e17d6d572b,2024-01-23_07h56.51.824,bars,2023.2.3,Win32,60.01680471,657b66ea316d21385b68909f,,,,,,,,,,,590.5628,591.5526,,,592.0526,592.3027,,120,120,,,,,,,,,,,,,,,,bars/046.png,bars/mask001.png,,,,,,,,,,,,0,2,,,,,,,2,8,1,7,,,,,,,,,,,591.5526,592.0525,592.3028,596.5686,space,4.2503,,596.5687,35,35,597.5691,597.5692,606.6862,space,9.0765,,0,34,34,34,1,155,85,,,,,,,,
,,6124ce846b7b3c7bab41bbb5,65af54bb8ebdf7e17d6d572b,2024-01-23_07h56.51.824,bars,2023.2.3,Win32,60.01680471,657b66ea316d21385b68909f,,,,,,,,,,,606.7082,607.7026,,,608.2019,608.4519,,113,113,,,,,,,,,,,,,,,,bars/027.png,bars/mask002.png,,,,,,,,,,,,0,1,,,,,,,0,6,0,7,,,,,,,,,,,607.7027,608.2019,608.4519,615.0029,space,6.5349,,615.0029,3,63,616.0026,616.0026,620.4191,space,4.3802,,0,35,35,35,1,110,50,,,,,,,,
,,6124ce846b7b3c7bab41bbb5,65af54bb8ebdf7e17d6d572b,2024-01-23_07h56.51.824,bars,2023.2.3,Win32,60.01680471,657b66ea316d21385b68909f,,,,,,,,,,,620.4398,621.4358,,,621.9359,622.1858,,130,-50,,,,,,,,,,,,,,,,bars/011.png,bars/mask006.png,,,,,,,,,,,,0,1,,,,,,,0,8,2,8,,,,,,,,,,,621.4359,621.9359,622.1859,626.0525,space,3.8572,,626.0526,30,45,627.0523,627.0524,628.636,space,1.5431,,0,36,36,36,1,160,85,,,,,,,,
,,6124ce846b7b3c7bab41bbb5,65af54bb8ebdf7e17d6d572b,2024-01-23_07h56.51.824,bars,2023.2.3,Win32,60.01680471,657b66ea316d21385b68909f,,,,,,,,,,,628.6367,629.6359,,,630.1355,630.3855,,129,129,,,,,,,,,,,,,,,,bars/028.png,bars/mask007.png,,,,,,,,,,,,5,2,,,,,,,0,6,0,7,,,,,,,,,,,629.6359,630.1354,630.3855,632.7024,space,2.3012,,632.7024,84,9,633.7023,633.7024,635.6193,space,1.8921,,0,37,37,37,1,45,120,,,,,,,,
,,6124ce846b7b3c7bab41bbb5,65af54bb8ebdf7e17d6d572b,2024-01-23_07h56.51.824,bars,2023.2.3,Win32,60.01680471,657b66ea316d21385b68909f,,,,,,,,,,,635.62,636.6193,,,637.1192,637.3687,,139,139,,,,,,,,,,,,,,,,bars/049.png,bars/mask005.png,,,,,,,,,,,,0,1,,,,,,,0,8,1,9,,,,,,,,,,,636.6194,637.1191,637.3687,640.4692,space,3.0902,,640.4693,21,24,641.4691,641.4692,642.8524,space,1.3498,,0,38,38,38,1,160,115,,,,,,,,
,,6124ce846b7b3c7bab41bbb5,65af54bb8ebdf7e17d6d572b,2024-01-23_07h56.51.824,bars,2023.2.3,Win32,60.01680471,657b66ea316d21385b68909f,,,,,,,,,,,642.853,643.8526,,,644.3523,644.6025,,132,132,,,,,,,,,,,,,,,,bars/004.png,bars/mask001.png,,,,,,,,,,,,5,2,,,,,,,2,6,2,7,,,,,,,,,,,643.8526,644.3523,644.6025,647.8526,space,3.2336,,647.8527,73,7,648.8522,648.8522,660.3859,space,11.5101,,0,39,39,39,1,25,125,,,,,,,,
,,6124ce846b7b3c7bab41bbb5,65af54bb8ebdf7e17d6d572b,2024-01-23_07h56.51.824,bars,2023.2.3,Win32,60.01680471,657b66ea316d21385b68909f,,,,,,,,,,,660.3986,661.4026,,,661.9018,662.1528,,134,134,,,,,,,,,,,,,,,,bars/041.png,bars/mask007.png,,,,,,,,,,,,0,2,,,,,,,4,4,5,3,,,,,,,,,,,661.4027,661.9018,662.1528,665.2354,space,3.073,,665.2355,66,49,666.2356,666.2358,667.4419,space,1.1766,,0,40,40,40,1,20,85,,,,,,,,
,,6124ce846b7b3c7bab41bbb5,65af54bb8ebdf7e17d6d572b,2024-01-23_07h56.51.824,bars,2023.2.3,Win32,60.01680471,657b66ea316d21385b68909f,,,,,,,,,,,667.4425,668.4399,,,668.9399,669.1898,,117,117,,,,,,,,,,,,,,,,bars/045.png,bars/mask002.png,,,,,,,,,,,,0,1,,,,,,,2,6,1,7,,,,,,,,,,,668.4399,668.9399,669.1899,674.607,space,5.4006,,674.607,17,73,675.6066,675.6066,677.5069,space,1.8835,,0,41,41,41,1,100,10,,,,,,,,
,,6124ce846b7b3c7bab41bbb5,65af54bb8ebdf7e17d6d572b,2024-01-23_07h56.51.824,bars,2023.2.3,Win32,60.01680471,657b66ea316d21385b68909f,,,,,,,,,,,677.5071,678.5066,,,679.0067,679.2565,,125,125,,,,,,,,,,,,,,,,bars/017.png,bars/mask005.png,,,,,,,,,,,,1,1,,,,,,,4,4,3,3,,,,,,,,,,,678.5066,679.0066,679.2565,682.7068,space,3.4339,,682.7068,20,80,683.7066,683.7067,685.4236,space,1.7004,,0,42,42,42,1,145,45,,,,,,,,
,,6124ce846b7b3c7bab41bbb5,65af54bb8ebdf7e17d6d572b,2024-01-23_07h56.51.824,bars,2023.2.3,Win32,60.01680471,657b66ea316d21385b68909f,,,,,,,,,,,685.4238,686.4232,,,686.9232,687.1732,,124,124,,,,,,,,,,,,,,,,bars/019.png,bars/mask009.png,,,,,,,,,,,,2,2,,,,,,,2,6,4,6,,,,,,,,,,,686.4232,686.9232,687.1732,690.8735,space,3.6837,,690.8735,79,19,691.8734,691.8734,693.1235,space,1.2336,,0,43,43,43,1,45,105,,,,,,,,
,,6124ce846b7b3c7bab41bbb5,65af54bb8ebdf7e17d6d572b,2024-01-23_07h56.51.824,bars,2023.2.3,Win32,60.01680471,657b66ea316d21385b68909f,,,,,,,,,,,693.1237,694.1231,,,694.6233,694.8733,,136,-44,,,,,,,,,,,,,,,,bars/024.png,bars/mask002.png,,,,,,,,,,,,0,1,,,,,,,0,8,0,8,,,,,,,,,,,694.1231,694.6233,694.8733,698.2903,space,3.4006,,698.2903,16,34,699.2899,699.2899,702.3581,space,3.0509,,0,44,44,44,1,120,170,,,,,,,,
,,6124ce846b7b3c7bab41bbb5,65af54bb8ebdf7e17d6d572b,2024-01-23_07h56.51.824,bars,2023.2.3,Win32,60.01680471,657b66ea316d21385b68909f,,,,,,,,,,,702.3586,703.3567,,,703.8575,704.1072,,141,141,,,,,,,,,,,,,,,,bars/049.png,bars/mask008.png,,,,,,,,,,,,0,1,,,,,,,2,6,1,7,,,,,,,,,,,703.3567,703.8574,704.1072,707.4916,space,3.3676,,707.4917,19,26,708.4908,708.4908,740.7194,space,32.1857,,0,45,45,45,1,160,115,,,,,,,,
,,6124ce846b7b3c7bab41bbb5,65af54bb8ebdf7e17d6d572b,2024-01-23_07h56.51.824,bars,2023.2.3,Win32,60.01680471,657b66ea316d21385b68909f,,,,,,,,,,,740.7443,741.7358,,,742.241,742.4859,,128,128,,,,,,,,,,,,,,,,bars/009.png,bars/mask003.png,,,,,,,,,,,,1,2,,,,,,,0,4,0,4,,,,,,,,,,,741.7359,742.2409,742.486,746.2861,space,3.7837,,746.2862,67,23,747.2859,747.2859,748.9185,space,1.5922,,0,46,46,46,1,15,105,,,,,,,,
,,6124ce846b7b3c7bab41bbb5,65af54bb8ebdf7e17d6d572b,2024-01-23_07h56.51.824,bars,2023.2.3,Win32,60.01680471,657b66ea316d21385b68909f,,,,,,,,,,,748.9187,749.9187,,,750.4189,750.6694,,127,127,,,,,,,,,,,,,,,,bars/006.png,bars/mask000.png,,,,,,,,,,,,1,2,,,,,,,2,6,2,6,,,,,,,,,,,749.9187,750.4189,750.6694,756.2022,space,5.5155,,756.2022,88,27,757.2024,757.2024,768.7691,space,11.5375,,0,47,47,47,1,35,100,,,,,,,,
,,6124ce846b7b3c7bab41bbb5,65af54bb8ebdf7e17d6d572b,2024-01-23_07h56.51.824,bars,2023.2.3,Win32,60.01680471,657b66ea316d21385b68909f,,,,,,,,,,,768.7879,769.7859,,,770.2854,770.5358,,127,127,,,,,,,,,,,,,,,,bars/000.png,bars/mask004.png,,,,,,,,,,,,1,2,,,,,,,0,4,0,3,,,,,,,,,,,769.786,770.2854,770.5358,772.3526,space,1.8113,,772.3526,87,18,773.3523,773.3523,779.4855,space,6.1002,,0,48,48,48,1,40,145,,,,,,,,
,,6124ce846b7b3c7bab41bbb5,65af54bb8ebdf7e17d6d572b,2024-01-23_07h56.51.824,bars,2023.2.3,Win32,60.01680471,657b66ea316d21385b68909f,,,,,,,,,,,779.4985,780.5022,,,780.986,781.2357,,126,306,,,,,,,,,,,,,,,,bars/025.png,bars/mask003.png,,,,,,,,,,,,1,1,,,,,,,2,2,2,3,,,,,,,,,,,780.5022,780.986,781.2358,787.8361,space,6.5839,,787.8362,21,86,788.8352,788.8353,790.7186,space,1.8506,,0,49,49,49,1,105,40,,,,,,,,
,,6124ce846b7b3c7bab41bbb5,65af54bb8ebdf7e17d6d572b,2024-01-23_07h56.51.824,bars,2023.2.3,Win32,60.01680471,657b66ea316d21385b68909f,,,,,,,,,,,,,,,,,,,,,,,,,,,,,,,,,,,,,,,,,,,,,,,,,,,,,,,,,,,,,,,,,,,,,,,,,,,,,,,,,,,,,,,,,,,,,790.7193,850.7203,0,0,0,4,1,sequence_tables/blk043.csv
,,6124ce846b7b3c7bab41bbb5,65af54bb8ebdf7e17d6d572b,2024-01-23_07h56.51.824,bars,2023.2.3,Win32,60.01680471,657b66ea316d21385b68909f,,,,,,,,,,,937.4615,938.452,,,938.952,939.202,,102,102,,,,,,,,,,,,,,,,bars/002.png,bars/mask004.png,,,,,,,,,,,,2,2,,,,,,,3,2,6,4,,,,,,850.7385,937.452,space,86.6973,,938.452,938.952,939.202,942.8861,space,3.6732,,942.8862,28,17,943.886,943.8861,943.9073,,,,0,0,0,0,1,130,85,,,,,,,,
,,6124ce846b7b3c7bab41bbb5,65af54bb8ebdf7e17d6d572b,2024-01-23_07h56.51.824,bars,2023.2.3,Win32,60.01680471,657b66ea316d21385b68909f,,,,,,,,,,,943.9075,944.9021,,,945.4028,945.6525,,112,112,,,,,,,,,,,,,,,,bars/042.png,bars/mask004.png,,,,,,,,,,,,0,1,,,,,,,1,4,1,4,,,,,,,,,,,944.9022,945.4027,945.6526,950.5029,space,4.8381,,950.5029,33,37,951.5025,951.5026,951.5254,,,,0,1,1,1,1,145,75,,,,,,,,
,,6124ce846b7b3c7bab41bbb5,65af54bb8ebdf7e17d6d572b,2024-01-23_07h56.51.824,bars,2023.2.3,Win32,60.01680471,657b66ea316d21385b68909f,,,,,,,,,,,951.5256,952.5193,,,953.019,953.2696,,159,-21,,,,,,,,,,,,,,,,bars/000.png,bars/mask005.png,,,,,,,,,,,,3,2,,,,,,,3,6,4,5,,,,,,,,,,,952.5194,953.019,953.2696,958.7188,space,5.4339,,958.7189,61,14,959.7191,959.7191,959.7406,,,,0,2,2,2,1,40,145,,,,,,,,
,,6124ce846b7b3c7bab41bbb5,65af54bb8ebdf7e17d6d572b,2024-01-23_07h56.51.824,bars,2023.2.3,Win32,60.01680471,657b66ea316d21385b68909f,,,,,,,,,,,959.741,960.7359,,,961.2362,961.486,,70,70,,,,,,,,,,,,,,,,bars/041.png,bars/mask004.png,,,,,,,,,,,,2,2,,,,,,,5,4,5,4,,,,,,,,,,,960.7359,961.2361,961.486,974.4362,space,12.9404,,974.4363,50,15,975.436,975.4361,975.459,,,,0,3,3,3,1,20,85,,,,,,,,
,,6124ce846b7b3c7bab41bbb5,65af54bb8ebdf7e17d6d572b,2024-01-23_07h56.51.824,bars,2023.2.3,Win32,60.01680471,657b66ea316d21385b68909f,,,,,,,,,,,975.4592,976.4528,,,976.9527,977.2026,,65,65,,,,,,,,,,,,,,,,bars/017.png,bars/mask000.png,,,,,,,,,,,,2,2,,,,,,,3,6,3,6,,,,,,,,,,,976.4528,976.9527,977.2027,983.7031,space,6.4874,,983.7031,80,20,984.7025,984.7025,984.7225,,,,0,4,4,4,1,145,45,,,,,,,,
,,6124ce846b7b3c7bab41bbb5,65af54bb8ebdf7e17d6d572b,2024-01-23_07h56.51.824,bars,2023.2.3,Win32,60.01680471,657b66ea316d21385b68909f,,,,,,,,,,,984.7227,985.7192,,,986.2192,986.4687,,107,107,,,,,,,,,,,,,,,,bars/033.png,bars/mask009.png,,,,,,,,,,,,0,2,,,,,,,5,8,4,8,,,,,,,,,,,985.7193,986.2192,986.4687,994.7694,space,8.2948,,994.7694,82,48,995.7693,995.7694,995.7953,,,,0,5,5,5,1,25,155,,,,,,,,
,,6124ce846b7b3c7bab41bbb5,65af54bb8ebdf7e17d6d572b,2024-01-23_07h56.51.824,bars,2023.2.3,Win32,60.01680471,657b66ea316d21385b68909f,,,,,,,,,,,995.7957,996.7861,,,997.2857,997.5359,,116,116,,,,,,,,,,,,,,,,bars/031.png,bars/mask004.png,,,,,,,,,,,,2,1,,,,,,,3,6,2,6,,,,,,,,,,,996.7862,997.2856,997.5359,1001.0198,space,3.4676,,1001.0198,4,81,1002.0192,1002.0192,1002.0436,,,,0,6,6,6,1,120,35,,,,,,,,
,,6124ce846b7b3c7bab41bbb5,65af54bb8ebdf7e17d6d572b,2024-01-23_07h56.51.824,bars,2023.2.3,Win32,60.01680471,657b66ea316d21385b68909f,,,,,,,,,,,1002.0439,1003.0359,,,1003.5361,1003.7858,,123,123,,,,,,,,,,,,,,,,bars/026.png,bars/mask000.png,,,,,,,,,,,,0,2,,,,,,,1,4,2,4,,,,,,,,,,,1003.0359,1003.536,1003.7859,1870.5442,space,866.7508,,1870.5442,88,38,1871.5329,1871.5329,1871.5402,,,,0,7,7,7,1,35,85,,,,,,,,
,,6124ce846b7b3c7bab41bbb5,65af54bb8ebdf7e17d6d572b,2024-01-23_07h56.51.824,bars,2023.2.3,Win32,60.01680471,657b66ea316d21385b68909f,,,,,,,,,,,1871.5403,1872.5321,,,1873.0273,1873.2776,,86,86,,,,,,,,,,,,,,,,bars/027.png,bars/mask005.png,,,,,,,,,,,,0,1,,,,,,,0,2,0,2,,,,,,,,,,,1872.5322,1873.0272,1873.2777,1876.0109,space,2.7166,,1876.011,24,36,1877.0106,1877.0106,1877.0197,,,,0,8,8,8,1,110,50,,,,,,,,
,,6124ce846b7b3c7bab41bbb5,65af54bb8ebdf7e17d6d572b,2024-01-23_07h56.51.824,bars,2023.2.3,Win32,60.01680471,657b66ea316d21385b68909f,,,,,,,,,,,1877.0198,1878.0106,,,1878.5107,1878.7606,,137,-43,,,,,,,,,,,,,,,,bars/013.png,bars/mask003.png,,,,,,,,,,,,0,2,,,,,,,0,4,0,3,,,,,,,,,,,1878.0106,1878.5107,1878.7606,1883.844,space,5.056,,1883.844,62,53,1884.832,1884.832,1884.8402,,,,0,9,9,9,1,75,10,,,,,,,,
,,6124ce846b7b3c7bab41bbb5,65af54bb8ebdf7e17d6d572b,2024-01-23_07h56.51.824,bars,2023.2.3,Win32,60.01680471,657b66ea316d21385b68909f,,,,,,,,,,,1884.8403,1885.8518,,,1886.3442,1896.1358,,82,82,,,,,,,,,,,,,,,,bars/039.png,bars/mask007.png,,,,,,,,,,,,1,2,,,,,,,0,6,0,5,,,,,,,,,,,1885.8518,1886.3442,1896.1359,1897.2107,space,1.0571,,1897.2107,87,23,1898.2107,1898.2107,1898.2177,,,,0,10,10,10,1,175,105,,,,,,,,
,,6124ce846b7b3c7bab41bbb5,65af54bb8ebdf7e17d6d572b,2024-01-23_07h56.51.824,bars,2023.2.3,Win32,60.01680471,657b66ea316d21385b68909f,,,,,,,,,,,1898.2178,1899.2107,,,1899.7107,1899.9607,,50,50,,,,,,,,,,,,,,,,bars/035.png,bars/mask005.png,,,,,,,,,,,,6,2,,,,,,,0,8,0,9,,,,,,,,,,,1899.2107,1899.7107,1899.9607,1900.9941,space,1.0231,,1900.9941,55,10,1901.9941,1901.9941,1901.9945,,,,0,11,11,11,1,175,60,,,,,,,,
,,6124ce846b7b3c7bab41bbb5,65af54bb8ebdf7e17d6d572b,2024-01-23_07h56.51.824,bars,2023.2.3,Win32,60.01680471,657b66ea316d21385b68909f,,,,,,,,,,,1901.9947,1902.9942,,,1903.4945,1903.7447,,75,75,,,,,,,,,,,,,,,,bars/010.png,bars/mask005.png,,,,,,,,,,,,3,2,,,,,,,2,10,2,9,,,,,,,,,,,1902.9942,1903.4945,1903.7447,1905.1781,space,1.4174,,1905.1781,90,20,1906.1775,1906.1776,1906.1784,,,,0,12,12,12,1,165,55,,,,,,,,
,,6124ce846b7b3c7bab41bbb5,65af54bb8ebdf7e17d6d572b,2024-01-23_07h56.51.824,bars,2023.2.3,Win32,60.01680471,657b66ea316d21385b68909f,,,,,,,,,,,1906.1789,1907.1777,,,1907.6778,1907.9277,,25,25,,,,,,,,,,,,,,,,bars/043.png,bars/mask005.png,,,,,,,,,,,,0,1,,,,,,,0,10,0,10,,,,,,,,,,,1907.1777,1907.6778,1907.9277,1910.1781,space,2.2407,,1910.1781,5,75,1911.1779,1911.1779,1911.1989,,,,0,13,13,13,1,30,130,,,,,,,,
,,6124ce846b7b3c7bab41bbb5,65af54bb8ebdf7e17d6d572b,2024-01-23_07h56.51.824,bars,2023.2.3,Win32,60.01680471,657b66ea316d21385b68909f,,,,,,,,,,,1911.199,1912.1944,,,1912.6946,1912.9443,,135,135,,,,,,,,,,,,,,,,bars/010.png,bars/mask002.png,,,,,,,,,,,,0,1,,,,,,,0,10,0,10,,,,,,,,,,,1912.1945,1912.6946,1912.9443,1913.5278,space,0.5677,,1913.5278,30,80,1914.5276,1914.5276,1914.5285,,,,0,14,14,14,1,165,55,,,,,,,,
,,6124ce846b7b3c7bab41bbb5,65af54bb8ebdf7e17d6d572b,2024-01-23_07h56.51.824,bars,2023.2.3,Win32,60.01680471,657b66ea316d21385b68909f,,,,,,,,,,,1914.5289,1915.5277,,,1916.0281,1916.2781,,37,37,,,,,,,,,,,,,,,,bars/044.png,bars/mask007.png,,,,,,,,,,,,0,1,,,,,,,2,8,3,8,,,,,,,,,,,1915.5277,1916.0281,1916.2781,1918.1115,space,1.8171,,1918.1116,38,62,1919.1111,1919.1111,1919.1279,,,,0,15,15,15,1,75,155,,,,,,,,
,,6124ce846b7b3c7bab41bbb5,65af54bb8ebdf7e17d6d572b,2024-01-23_07h56.51.824,bars,2023.2.3,Win32,60.01680471,657b66ea316d21385b68909f,,,,,,,,,,,1919.1282,1920.1281,,,1920.628,1920.8782,,96,96,,,,,,,,,,,,,,,,bars/025.png,bars/mask000.png,,,,,,,,,,,,0,1,,,,,,,0,6,0,5,,,,,,,,,,,1920.1281,1920.6279,1920.8783,1924.9277,space,4.0403,,1924.9277,9,56,1925.928,1925.9281,1925.949,,,,0,16,16,16,1,105,40,,,,,,,,
,,6124ce846b7b3c7bab41bbb5,65af54bb8ebdf7e17d6d572b,2024-01-23_07h56.51.824,bars,2023.2.3,Win32,60.01680471,657b66ea316d21385b68909f,,,,,,,,,,,1925.9506,1926.9448,,,1927.4449,1927.6948,,56,56,,,,,,,,,,,,,,,,bars/027.png,bars/mask004.png,,,,,,,,,,,,2,2,,,,,,,2,4,2,3,,,,,,,,,,,1926.9449,1927.4448,1927.6948,1930.4447,space,2.7339,,1930.4448,54,6,1931.4445,1931.4446,1931.4642,,,,0,17,17,17,1,110,50,,,,,,,,
,,6124ce846b7b3c7bab41bbb5,65af54bb8ebdf7e17d6d572b,2024-01-23_07h56.51.824,bars,2023.2.3,Win32,60.01680471,657b66ea316d21385b68909f,,,,,,,,,,,1931.4644,1932.4611,,,1932.9614,1933.2111,,111,111,,,,,,,,,,,,,,,,bars/018.png,bars/mask009.png,,,,,,,,,,,,2,2,,,,,,,0,6,1,7,,,,,,,,,,,1932.4612,1932.9614,1933.2111,1936.0116,space,2.7848,,1936.0117,39,21,1936.9997,1936.9998,1937.0174,,,,0,18,18,18,1,150,90,,,,,,,,
,,6124ce846b7b3c7bab41bbb5,65af54bb8ebdf7e17d6d572b,2024-01-23_07h56.51.824,bars,2023.2.3,Win32,60.01680471,657b66ea316d21385b68909f,,,,,,,,,,,1937.0176,1938.0109,,,1938.5114,1938.7611,,99,99,,,,,,,,,,,,,,,,bars/011.png,bars/mask000.png,,,,,,,,,,,,4,2,,,,,,,2,8,2,8,,,,,,,,,,,1938.011,1938.5113,1938.7611,1939.7613,space,0.9858,,1939.7614,61,14,1940.7608,1940.7608,1940.7616,,,,0,19,19,19,1,160,85,,,,,,,,
,,6124ce846b7b3c7bab41bbb5,65af54bb8ebdf7e17d6d572b,2024-01-23_07h56.51.824,bars,2023.2.3,Win32,60.01680471,657b66ea316d21385b68909f,,,,,,,,,,,1940.7619,1941.7615,,,1942.2613,1942.5112,,102,102,,,,,,,,,,,,,,,,bars/023.png,bars/mask003.png,,,,,,,,,,,,5,2,,,,,,,4,6,4,8,,,,,,,,,,,1941.7615,1942.2612,1942.5113,1943.1447,space,0.6185,,1943.1448,82,13,1944.1447,1944.1448,1944.1463,,,,0,20,20,20,1,20,115,,,,,,,,
,,6124ce846b7b3c7bab41bbb5,65af54bb8ebdf7e17d6d572b,2024-01-23_07h56.51.824,bars,2023.2.3,Win32,60.01680471,657b66ea316d21385b68909f,,,,,,,,,,,1944.1468,1945.149,,,1945.6447,1945.8945,,178,178,,,,,,,,,,,,,,,,bars/045.png,bars/mask007.png,,,,,,,,,,,,2,2,,,,,,,6,4,6,4,,,,,,,,,,,1945.149,1945.6446,1945.8946,1948.0616,space,2.135,,1948.0617,78,12,1949.0612,1949.0612,1949.0799,,,,0,21,21,21,1,100,10,,,,,,,,
,,6124ce846b7b3c7bab41bbb5,65af54bb8ebdf7e17d6d572b,2024-01-23_07h56.51.824,bars,2023.2.3,Win32,60.01680471,657b66ea316d21385b68909f,,,,,,,,,,,1949.0802,1950.0778,,,1950.5774,1950.8277,,37,37,,,,,,,,,,,,,,,,bars/027.png,bars/mask003.png,,,,,,,,,,,,1,2,,,,,,,8,2,8,2,,,,,,,,,,,1950.0779,1950.5774,1950.8277,1952.0282,space,1.1851,,1952.0284,73,13,1953.0278,1953.0279,1953.0292,,,,0,22,22,22,1,110,50,,,,,,,,
,,6124ce846b7b3c7bab41bbb5,65af54bb8ebdf7e17d6d572b,2024-01-23_07h56.51.824,bars,2023.2.3,Win32,60.01680471,657b66ea316d21385b68909f,,,,,,,,,,,1953.0298,1954.028,,,1954.5274,1954.7779,,45,45,,,,,,,,,,,,,,,,bars/044.png,bars/mask004.png,,,,,,,,,,,,0,1,,,,,,,6,4,6,6,,,,,,,,,,,1954.028,1954.5274,1954.7779,1958.5948,space,3.8089,,1958.5948,30,70,1959.5949,1959.5949,1959.6166,,,,0,23,23,23,1,75,155,,,,,,,,
,,6124ce846b7b3c7bab41bbb5,65af54bb8ebdf7e17d6d572b,2024-01-23_07h56.51.824,bars,2023.2.3,Win32,60.01680471,657b66ea316d21385b68909f,,,,,,,,,,,1959.6168,1960.6109,,,1961.1115,1961.3611,,6,6,,,,,,,,,,,,,,,,bars/009.png,bars/mask006.png,,,,,,,,,,,,2,1,,,,,,,4,2,3,1,,,,,,,,,,,1960.6109,1961.1113,1961.3611,1961.9783,space,0.585,,1961.9784,9,81,1962.978,1962.978,1962.9793,,,,0,24,24,24,1,15,105,,,,,,,,
,,6124ce846b7b3c7bab41bbb5,65af54bb8ebdf7e17d6d572b,2024-01-23_07h56.51.824,bars,2023.2.3,Win32,60.01680471,657b66ea316d21385b68909f,,,,,,,,,,,1962.9798,1963.9778,,,1964.4781,1964.7322,,157,157,,,,,,,,,,,,,,,,bars/033.png,bars/mask004.png,,,,,,,,,,,,2,2,,,,,,,2,4,2,2,,,,,,,,,,,1963.978,1964.478,1964.7322,1967.2115,space,2.4642,,1967.2115,48,2,1968.2114,1968.2114,1968.2193,,,,0,25,25,25,1,25,155,,,,,,,,
,,6124ce846b7b3c7bab41bbb5,65af54bb8ebdf7e17d6d572b,2024-01-23_07h56.51.824,bars,2023.2.3,Win32,60.01680471,657b66ea316d21385b68909f,,,,,,,,,,,1968.2197,1969.2113,,,1969.7113,1969.9614,,30,30,,,,,,,,,,,,,,,,bars/046.png,bars/mask009.png,,,,,,,,,,,,0,2,,,,,,,4,6,4,6,,,,,,,,,,,1969.2114,1969.7112,1969.9614,1970.9615,space,0.9927,,1970.9616,55,55,1971.9613,1971.9613,1971.9625,,,,0,26,26,26,1,155,85,,,,,,,,
,,6124ce846b7b3c7bab41bbb5,65af54bb8ebdf7e17d6d572b,2024-01-23_07h56.51.824,bars,2023.2.3,Win32,60.01680471,657b66ea316d21385b68909f,,,,,,,,,,,1971.963,1972.9614,,,1973.4613,1973.7114,,66,66,,,,,,,,,,,,,,,,bars/007.png,bars/mask006.png,,,,,,,,,,,,1,2,,,,,,,2,4,1,1,,,,,,,,,,,1972.9615,1973.4613,1973.7114,1978.1118,space,4.3946,,1978.1118,71,11,1979.1112,1979.1113,1979.1324,,,,0,27,27,27,1,175,55,,,,,,,,
,,6124ce846b7b3c7bab41bbb5,65af54bb8ebdf7e17d6d572b,2024-01-23_07h56.51.824,bars,2023.2.3,Win32,60.01680471,657b66ea316d21385b68909f,,,,,,,,,,,1979.1326,1980.1277,,,1980.6277,1980.8778,,63,63,,,,,,,,,,,,,,,,bars/026.png,bars/mask002.png,,,,,,,,,,,,1,2,,,,,,,4,2,5,3,,,,,,,,,,,1980.1277,1980.6277,1980.878,1986.1171,space,5.2178,,1986.1172,28,22,1987.1114,1987.1115,1987.1312,,,,0,28,28,28,1,35,85,,,,,,,,
,,6124ce846b7b3c7bab41bbb5,65af54bb8ebdf7e17d6d572b,2024-01-23_07h56.51.824,bars,2023.2.3,Win32,60.01680471,657b66ea316d21385b68909f,,,,,,,,,,,1987.1314,1988.1273,,,1988.6273,1988.8774,,106,106,,,,,,,,,,,,,,,,bars/035.png,bars/mask008.png,,,,,,,,,,,,0,2,,,,,,,2,0,3,0,,,,,,,,,,,1988.1273,1988.6273,1988.8774,1989.9274,space,1.0353,,1989.9274,69,46,1990.9274,1990.9274,1990.9282,,,,0,29,29,29,1,175,60,,,,,,,,
,,6124ce846b7b3c7bab41bbb5,65af54bb8ebdf7e17d6d572b,2024-01-23_07h56.51.824,bars,2023.2.3,Win32,60.01680471,657b66ea316d21385b68909f,,,,,,,,,,,1990.9285,1991.9273,,,1992.4274,1992.6774,,172,172,,,,,,,,,,,,,,,,bars/001.png,bars/mask002.png,,,,,,,,,,,,0,1,,,,,,,0,0,2,0,,,,,,,,,,,1991.9274,1992.4273,1992.6774,1993.6774,space,0.9839,,1993.6774,42,87,1994.6773,1994.6773,1994.681,,,,0,30,30,30,1,130,85,,,,,,,,
,,6124ce846b7b3c7bab41bbb5,65af54bb8ebdf7e17d6d572b,2024-01-23_07h56.51.824,bars,2023.2.3,Win32,60.01680471,657b66ea316d21385b68909f,,,,,,,,,,,1994.6811,1995.6774,,,1996.1774,1996.4274,,90,90,,,,,,,,,,,,,,,,bars/023.png,bars/mask007.png,,,,,,,,,,,,0,2,,,,,,,2,0,1,0,,,,,,,,,,,1995.6774,1996.1774,1996.4274,1998.3773,space,1.9341,,1998.3773,70,25,1999.3774,1999.3774,1999.3861,,,,0,31,31,31,1,20,115,,,,,,,,
,,6124ce846b7b3c7bab41bbb5,65af54bb8ebdf7e17d6d572b,2024-01-23_07h56.51.824,bars,2023.2.3,Win32,60.01680471,657b66ea316d21385b68909f,,,,,,,,,,,1999.3863,2000.3774,,,2000.8654,2001.1107,,60,60,,,,,,,,,,,,,,,,bars/033.png,bars/mask005.png,,,,,,,,,,,,0,1,,,,,,,0,0,0,0,,,,,,,,,,,2000.3774,2000.8653,2001.1107,2002.9273,space,1.8102,,2002.9273,35,85,2003.9273,2003.9273,2003.9309,,,,0,32,32,32,1,25,155,,,,,,,,
,,6124ce846b7b3c7bab41bbb5,65af54bb8ebdf7e17d6d572b,2024-01-23_07h56.51.824,bars,2023.2.3,Win32,60.01680471,657b66ea316d21385b68909f,,,,,,,,,,,2003.931,2004.9274,,,2005.4273,2005.6773,,52,52,,,,,,,,,,,,,,,,bars/009.png,bars/mask001.png,,,,,,,,,,,,0,1,,,,,,,0,2,0,2,,,,,,,,,,,2004.9274,2005.4273,2005.6773,2007.5607,space,1.8707,,2007.5607,37,53,2008.5652,2008.5652,2008.5715,,,,0,33,33,33,1,15,105,,,,,,,,
,,6124ce846b7b3c7bab41bbb5,65af54bb8ebdf7e17d6d572b,2024-01-23_07h56.51.824,bars,2023.2.3,Win32,60.01680471,657b66ea316d21385b68909f,,,,,,,,,,,2008.5716,2009.5606,,,2032.6999,2032.7082,,179,179,,,,,,,,,,,,,,,,bars/006.png,bars/mask002.png,,,,,,,,,,,,0,1,,,,,,,2,0,2,1,,,,,,,,,,,2009.5606,2032.6999,2032.7082,2034.9951,space,2.2706,,2034.9952,36,79,2035.9945,2035.9946,2035.996,,,,0,34,34,34,1,35,100,,,,,,,,
,,6124ce846b7b3c7bab41bbb5,65af54bb8ebdf7e17d6d572b,2024-01-23_07h56.51.824,bars,2023.2.3,Win32,60.01680471,657b66ea316d21385b68909f,,,,,,,,,,,2035.9965,2036.9948,,,2037.495,2037.7445,,118,118,,,,,,,,,,,,,,,,bars/049.png,bars/mask004.png,,,,,,,,,,,,1,2,,,,,,,0,2,0,1,,,,,,,,,,,2036.9948,2037.495,2037.7445,2041.0447,space,3.2731,,2041.0448,42,3,2042.0445,2042.0445,2042.0515,,,,0,35,35,35,1,160,115,,,,,,,,
,,6124ce846b7b3c7bab41bbb5,65af54bb8ebdf7e17d6d572b,2024-01-23_07h56.51.824,bars,2023.2.3,Win32,60.01680471,657b66ea316d21385b68909f,,,,,,,,,,,2042.0516,2043.0441,,,2043.545,2043.7945,,124,124,,,,,,,,,,,,,,,,bars/049.png,bars/mask001.png,,,,,,,,,,,,0,2,,,,,,,2,0,3,0,,,,,,,,,,,2043.0441,2043.5448,2043.7945,2046.7116,space,2.9044,,2046.7117,36,9,2047.7113,2047.7114,2047.7316,,,,0,36,36,36,1,160,115,,,,,,,,
,,6124ce846b7b3c7bab41bbb5,65af54bb8ebdf7e17d6d572b,2024-01-23_07h56.51.824,bars,2023.2.3,Win32,60.01680471,657b66ea316d21385b68909f,,,,,,,,,,,2047.7319,2048.7274,,,2049.2274,2049.4782,,48,48,,,,,,,,,,,,,,,,bars/030.png,bars/mask006.png,,,,,,,,,,,,0,2,,,,,,,4,2,5,1,,,,,,,,,,,2048.7275,2049.2274,2049.4783,2054.6116,space,5.1236,,2054.6116,88,17,2055.6114,2055.6114,2055.6331,,,,0,37,37,37,1,140,65,,,,,,,,
,,6124ce846b7b3c7bab41bbb5,65af54bb8ebdf7e17d6d572b,2024-01-23_07h56.51.824,bars,2023.2.3,Win32,60.01680471,657b66ea316d21385b68909f,,,,,,,,,,,2055.6333,2056.6281,,,2057.1282,2057.3778,,70,70,,,,,,,,,,,,,,,,bars/022.png,bars/mask000.png,,,,,,,,,,,,0,1,,,,,,,2,4,2,5,,,,,,,,,,,2056.6281,2057.1282,2057.3778,2058.3615,space,0.9525,,2058.3616,25,50,2059.3615,2059.3615,2059.3696,,,,0,38,38,38,1,95,20,,,,,,,,
,,6124ce846b7b3c7bab41bbb5,65af54bb8ebdf7e17d6d572b,2024-01-23_07h56.51.824,bars,2023.2.3,Win32,60.01680471,657b66ea316d21385b68909f,,,,,,,,,,,2059.3699,2060.3615,,,2060.8614,2061.1112,,81,81,,,,,,,,,,,,,,,,bars/023.png,bars/mask006.png,,,,,,,,,,,,0,2,,,,,,,4,6,3,6,,,,,,,,,,,2060.3615,2060.8613,2061.1113,2067.0443,space,5.9221,,2067.0443,61,34,2068.0447,2068.0447,2068.0709,,,,0,39,39,39,1,20,115,,,,,,,,
,,6124ce846b7b3c7bab41bbb5,65af54bb8ebdf7e17d6d572b,2024-01-23_07h56.51.824,bars,2023.2.3,Win32,60.01680471,657b66ea316d21385b68909f,,,,,,,,,,,2068.0712,2069.0614,,,2069.5616,2069.8116,,46,226,,,,,,,,,,,,,,,,bars/047.png,bars/mask002.png,,,,,,,,,,,,1,2,,,,,,,2,4,1,3,,,,,,,,,,,2069.0615,2069.5615,2069.8116,2073.2774,space,3.4491,,2073.2774,31,24,2074.278,2074.278,2074.2988,,,,0,40,40,40,1,15,70,,,,,,,,
,,6124ce846b7b3c7bab41bbb5,65af54bb8ebdf7e17d6d572b,2024-01-23_07h56.51.824,bars,2023.2.3,Win32,60.01680471,657b66ea316d21385b68909f,,,,,,,,,,,2074.2991,2075.295,,,2075.7948,2076.0448,,84,84,,,,,,,,,,,,,,,,bars/007.png,bars/mask008.png,,,,,,,,,,,,0,2,,,,,,,4,2,3,2,,,,,,,,,,,2075.2951,2075.7947,2076.0448,2078.8117,space,2.7508,,2078.8118,89,29,2079.8114,2079.8115,2079.8332,,,,0,41,41,41,1,175,55,,,,,,,,
,,6124ce846b7b3c7bab41bbb5,65af54bb8ebdf7e17d6d572b,2024-01-23_07h56.51.824,bars,2023.2.3,Win32,60.01680471,657b66ea316d21385b68909f,,,,,,,,,,,2079.8334,2080.8282,,,2081.3275,2081.5777,,62,62,,,,,,,,,,,,,,,,bars/029.png,bars/mask009.png,,,,,,,,,,,,0,2,,,,,,,6,0,7,1,,,,,,,,,,,2080.8283,2081.3275,2081.5778,2088.4443,space,6.8502,,2088.4443,28,17,2089.4447,2089.4447,2089.4658,,,,0,42,42,42,1,90,45,,,,,,,,
,,6124ce846b7b3c7bab41bbb5,65af54bb8ebdf7e17d6d572b,2024-01-23_07h56.51.824,bars,2023.2.3,Win32,60.01680471,657b66ea316d21385b68909f,,,,,,,,,,,2089.466,2090.4614,,,2090.9616,2091.2114,,88,88,,,,,,,,,,,,,,,,bars/012.png,bars/mask003.png,,,,,,,,,,,,6,1,,,,,,,4,0,6,0,,,,,,,,,,,2090.4614,2090.9616,2091.2114,2092.3108,space,1.0848,,2092.3109,2,73,2093.3113,2093.3114,2093.314,,,,0,43,43,43,1,90,15,,,,,,,,
,,6124ce846b7b3c7bab41bbb5,65af54bb8ebdf7e17d6d572b,2024-01-23_07h56.51.824,bars,2023.2.3,Win32,60.01680471,657b66ea316d21385b68909f,,,,,,,,,,,2093.3144,2094.3116,,,2094.8116,2095.0613,,81,81,,,,,,,,,,,,,,,,bars/018.png,bars/mask003.png,,,,,,,,,,,,0,2,,,,,,,2,0,2,0,,,,,,,,,,,2094.3117,2094.8116,2095.0613,2097.6275,space,2.5489,,2097.6275,69,9,2098.6276,2098.6276,2098.6347,,,,0,44,44,44,1,150,90,,,,,,,,
,,6124ce846b7b3c7bab41bbb5,65af54bb8ebdf7e17d6d572b,2024-01-23_07h56.51.824,bars,2023.2.3,Win32,60.01680471,657b66ea316d21385b68909f,,,,,,,,,,,2098.6348,2099.6281,,,2100.1281,2100.3781,,114,114,,,,,,,,,,,,,,,,bars/013.png,bars/mask001.png,,,,,,,,,,,,0,1,,,,,,,0,0,0,2,,,,,,,,,,,2099.6281,2100.1281,2100.3781,2103.2781,space,2.8836,,2103.2781,39,76,2104.2781,2104.2782,2104.3006,,,,0,45,45,45,1,75,10,,,,,,,,
,,6124ce846b7b3c7bab41bbb5,65af54bb8ebdf7e17d6d572b,2024-01-23_07h56.51.824,bars,2023.2.3,Win32,60.01680471,657b66ea316d21385b68909f,,,,,,,,,,,2104.3008,2105.2946,,,2105.7948,2106.0446,,81,81,,,,,,,,,,,,,,,,bars/047.png,bars/mask008.png,,,,,,,,,,,,1,2,,,,,,,2,2,2,1,,,,,,,,,,,2105.2947,2105.7948,2106.0446,2109.3942,space,3.3396,,2109.3942,66,11,2110.3941,2110.3941,2110.4011,,,,0,46,46,46,1,15,70,,,,,,,,
,,6124ce846b7b3c7bab41bbb5,65af54bb8ebdf7e17d6d572b,2024-01-23_07h56.51.824,bars,2023.2.3,Win32,60.01680471,657b66ea316d21385b68909f,,,,,,,,,,,2110.4012,2111.3941,,,2111.8941,2112.1441,,106,106,,,,,,,,,,,,,,,,bars/031.png,bars/mask005.png,,,,,,,,,,,,3,1,,,,,,,4,0,5,1,,,,,,,,,,,2111.3941,2111.8941,2112.1441,2118.5776,space,6.4249,,2118.5776,14,71,2119.5774,2119.5775,2119.5847,,,,0,47,47,47,1,120,35,,,,,,,,
,,6124ce846b7b3c7bab41bbb5,65af54bb8ebdf7e17d6d572b,2024-01-23_07h56.51.824,bars,2023.2.3,Win32,60.01680471,657b66ea316d21385b68909f,,,,,,,,,,,2119.5848,2120.5775,,,2121.0775,2121.3274,,128,128,,,,,,,,,,,,,,,,bars/022.png,bars/mask006.png,,,,,,,,,,,,0,1,,,,,,,6,2,7,3,,,,,,,,,,,2120.5775,2121.0775,2121.3275,2124.4608,space,3.1169,,2124.4608,33,72,2125.4607,2125.4608,2125.4672,,,,0,48,48,48,1,95,20,,,,,,,,
,,6124ce846b7b3c7bab41bbb5,65af54bb8ebdf7e17d6d572b,2024-01-23_07h56.51.824,bars,2023.2.3,Win32,60.01680471,657b66ea316d21385b68909f,,,,,,,,,,,2125.4673,2126.4608,,,2126.9608,2127.2107,,75,75,,,,,,,,,,,,,,,,bars/025.png,bars/mask003.png,,,,,,,,,,,,0,1,,,,,,,4,4,3,4,,,,,,,,,,,2126.4608,2126.9608,2127.2107,2132.4441,space,5.2193,,2132.4441,30,35,2133.4442,2133.4442,2133.4507,,,,0,49,49,49,1,105,40,,,,,,,,
,,6124ce846b7b3c7bab41bbb5,65af54bb8ebdf7e17d6d572b,2024-01-23_07h56.51.824,bars,2023.2.3,Win32,60.01680471,657b66ea316d21385b68909f,,,,,,,,,,,,,,,,,,,,,,,,,,,,,,,,,,,,,,,,,,,,,,,,,,,,,,,,,,,,,,,,,,,,,,,,,,,,,,,,,,,,,,,,,,,,,2133.4508,2225.1533,0,1,1,0,1,sequence_tables/blk023.csv
,,6124ce846b7b3c7bab41bbb5,65af54bb8ebdf7e17d6d572b,2024-01-23_07h56.51.824,bars,2023.2.3,Win32,60.01680471,657b66ea316d21385b68909f,,,,,,,,,,,2227.3568,2228.3443,,,2228.8442,2229.0941,,132,132,,,,,,,,,,,,,,,,bars/015.png,bars/mask003.png,,,,,,,,,,,,2,1,,,,,,,7,3,7,3,,,,,,2225.1606,2227.3447,space,2.1657,,2228.3443,2228.8442,2229.0942,2230.1609,space,1.0579,,2230.1609,22,28,2231.1608,2231.1608,2231.1612,,,,0,0,0,0,1,110,160,,,,,,,,
,,6124ce846b7b3c7bab41bbb5,65af54bb8ebdf7e17d6d572b,2024-01-23_07h56.51.824,bars,2023.2.3,Win32,60.01680471,657b66ea316d21385b68909f,,,,,,,,,,,2231.1614,2232.1609,,,2232.6608,2232.9108,,24,24,,,,,,,,,,,,,,,,bars/007.png,bars/mask006.png,,,,,,,,,,,,0,1,,,,,,,5,1,7,0,,,,,,,,,,,2232.1609,2232.6608,2232.9108,2233.6442,space,0.7181,,2233.6442,29,31,2234.6441,2234.6442,2234.6446,,,,0,1,1,1,1,175,55,,,,,,,,
,,6124ce846b7b3c7bab41bbb5,65af54bb8ebdf7e17d6d572b,2024-01-23_07h56.51.824,bars,2023.2.3,Win32,60.01680471,657b66ea316d21385b68909f,,,,,,,,,,,2234.6447,2235.6441,,,2236.1442,2236.3942,,116,116,,,,,,,,,,,,,,,,bars/034.png,bars/mask005.png,,,,,,,,,,,,3,1,,,,,,,7,3,4,2,,,,,,,,,,,2235.6441,2236.1442,2236.3942,2244.3441,space,7.9164,,2244.3442,9,51,2245.3441,2245.3442,2245.3518,,,,0,2,2,2,1,125,65,,,,,,,,
,,6124ce846b7b3c7bab41bbb5,65af54bb8ebdf7e17d6d572b,2024-01-23_07h56.51.824,bars,2023.2.3,Win32,60.01680471,657b66ea316d21385b68909f,,,,,,,,,,,2245.352,2246.3442,,,2246.8442,2247.0821,,72,72,,,,,,,,,,,,,,,,bars/001.png,bars/mask000.png,,,,,,,,,,,,3,2,,,,,,,9,5,10,5,,,,,,,,,,,2246.3442,2246.8442,2247.0821,2248.8275,space,1.7176,,2248.8275,58,13,2249.8275,2249.8275,2249.8366,,,,0,3,3,3,1,130,85,,,,,,,,
,,6124ce846b7b3c7bab41bbb5,65af54bb8ebdf7e17d6d572b,2024-01-23_07h56.51.824,bars,2023.2.3,Win32,60.01680471,657b66ea316d21385b68909f,,,,,,,,,,,2249.8366,2250.8321,,,2251.3275,2251.5777,,57,57,,,,,,,,,,,,,,,,bars/035.png,bars/mask006.png,,,,,,,,,,,,5,2,,,,,,,10,7,10,6,,,,,,,,,,,2250.8321,2251.3275,2251.5777,2253.1275,space,1.5191,,2253.1275,62,3,2254.1274,2254.1274,2254.1339,,,,0,4,4,4,1,175,60,,,,,,,,
,,6124ce846b7b3c7bab41bbb5,65af54bb8ebdf7e17d6d572b,2024-01-23_07h56.51.824,bars,2023.2.3,Win32,60.01680471,657b66ea316d21385b68909f,,,,,,,,,,,2254.134,2255.1276,,,2255.6274,2255.8775,,105,105,,,,,,,,,,,,,,,,bars/035.png,bars/mask001.png,,,,,,,,,,,,0,2,,,,,,,10,5,10,5,,,,,,,,,,,2255.1276,2255.6274,2255.8775,2267.395,space,11.5087,,2267.395,70,45,2268.3942,2268.3942,2268.4014,,,,0,5,5,5,1,175,60,,,,,,,,
,,6124ce846b7b3c7bab41bbb5,65af54bb8ebdf7e17d6d572b,2024-01-23_07h56.51.824,bars,2023.2.3,Win32,60.01680471,657b66ea316d21385b68909f,,,,,,,,,,,2268.4015,2269.3949,,,2269.8948,2270.1447,,73,73,,,,,,,,,,,,,,,,bars/041.png,bars/mask000.png,,,,,,,,,,,,4,2,,,,,,,10,7,10,7,,,,,,,,,,,2269.3949,2269.8948,2270.1449,2272.7781,space,2.6173,,2272.7782,53,12,2273.7778,2273.7778,2273.7913,,,,0,6,6,6,1,20,85,,,,,,,,
,,6124ce846b7b3c7bab41bbb5,65af54bb8ebdf7e17d6d572b,2024-01-23_07h56.51.824,bars,2023.2.3,Win32,60.01680471,657b66ea316d21385b68909f,,,,,,,,,,,2273.7914,2274.7943,,,2275.2948,2275.5447,,100,100,,,,,,,,,,,,,,,,bars/026.png,bars/mask002.png,,,,,,,,,,,,3,2,,,,,,,8,5,8,6,,,,,,,,,,,2274.7943,2275.2948,2275.5448,2279.2618,space,3.7007,,2279.2619,65,15,2280.2616,2280.2616,2280.2826,,,,0,7,7,7,1,35,85,,,,,,,,
,,6124ce846b7b3c7bab41bbb5,65af54bb8ebdf7e17d6d572b,2024-01-23_07h56.51.824,bars,2023.2.3,Win32,60.01680471,657b66ea316d21385b68909f,,,,,,,,,,,2280.2828,2281.278,,,2281.7783,2282.0281,,81,81,,,,,,,,,,,,,,,,bars/004.png,bars/mask002.png,,,,,,,,,,,,0,2,,,,,,,6,7,4,7,,,,,,,,,,,2281.2781,2281.7781,2282.0281,2287.0114,space,4.9734,,2287.0114,56,44,2288.0113,2288.0114,2288.0321,,,,0,8,8,8,1,25,125,,,,,,,,
,,6124ce846b7b3c7bab41bbb5,65af54bb8ebdf7e17d6d572b,2024-01-23_07h56.51.824,bars,2023.2.3,Win32,60.01680471,657b66ea316d21385b68909f,,,,,,,,,,,2288.0323,2289.0275,,,2289.5168,2289.7615,,110,110,,,,,,,,,,,,,,,,bars/004.png,bars/mask007.png,,,,,,,,,,,,5,2,,,,,,,4,9,4,9,,,,,,,,,,,2289.0275,2289.5167,2289.7615,2292.0968,space,2.33,,2292.0969,85,15,2293.0946,2293.0946,2293.1136,,,,0,9,9,9,1,25,125,,,,,,,,
,,6124ce846b7b3c7bab41bbb5,65af54bb8ebdf7e17d6d572b,2024-01-23_07h56.51.824,bars,2023.2.3,Win32,60.01680471,657b66ea316d21385b68909f,,,,,,,,,,,2293.114,2294.1114,,,2294.6169,2294.861,,130,130,,,,,,,,,,,,,,,,bars/026.png,bars/mask001.png,,,,,,,,,,,,0,2,,,,,,,2,7,3,5,,,,,,,,,,,2294.1114,2294.6169,2294.861,2297.2449,space,2.3683,,2297.2449,85,45,2298.2444,2298.2444,2298.245,,,,0,10,10,10,1,35,85,,,,,,,,
,,6124ce846b7b3c7bab41bbb5,65af54bb8ebdf7e17d6d572b,2024-01-23_07h56.51.824,bars,2023.2.3,Win32,60.01680471,657b66ea316d21385b68909f,,,,,,,,,,,2298.2452,2299.2447,,,2299.7449,2299.9945,,39,39,,,,,,,,,,,,,,,,bars/049.png,bars/mask001.png,,,,,,,,,,,,0,1,,,,,,,0,5,0,6,,,,,,,,,,,2299.2447,2299.7449,2299.9945,2301.1287,space,1.1198,,2301.1288,59,76,2302.1283,2302.1283,2302.1367,,,,0,11,11,11,1,160,115,,,,,,,,
,,6124ce846b7b3c7bab41bbb5,65af54bb8ebdf7e17d6d572b,2024-01-23_07h56.51.824,bars,2023.2.3,Win32,60.01680471,657b66ea316d21385b68909f,,,,,,,,,,,2302.1372,2303.128,,,2303.6281,2303.8779,,108,108,,,,,,,,,,,,,,,,bars/011.png,bars/mask007.png,,,,,,,,,,,,0,2,,,,,,,0,3,1,2,,,,,,,,,,,2303.1281,2303.628,2303.878,2307.0616,space,3.1715,,2307.0617,52,23,2308.0616,2308.0616,2308.0869,,,,0,12,12,12,1,160,85,,,,,,,,
,,6124ce846b7b3c7bab41bbb5,65af54bb8ebdf7e17d6d572b,2024-01-23_07h56.51.824,bars,2023.2.3,Win32,60.01680471,657b66ea316d21385b68909f,,,,,,,,,,,2308.0871,2309.0781,,,2309.5782,2309.828,,115,115,,,,,,,,,,,,,,,,bars/002.png,bars/mask002.png,,,,,,,,,,,,0,1,,,,,,,0,1,0,1,,,,,,,,,,,2309.0782,2309.5781,2309.828,2312.295,space,2.4533,,2312.295,15,30,2313.2949,2313.295,2313.3209,,,,0,13,13,13,1,130,85,,,,,,,,
,,6124ce846b7b3c7bab41bbb5,65af54bb8ebdf7e17d6d572b,2024-01-23_07h56.51.824,bars,2023.2.3,Win32,60.01680471,657b66ea316d21385b68909f,,,,,,,,,,,2313.3212,2314.3114,,,2314.8119,2315.0615,,16,16,,,,,,,,,,,,,,,,bars/013.png,bars/mask003.png,,,,,,,,,,,,3,2,,,,,,,2,3,4,4,,,,,,,,,,,2314.3116,2314.8117,2315.0616,2327.6448,space,12.5668,,2327.6448,59,6,2328.6443,2328.6444,2328.6565,,,,0,14,14,14,1,75,10,,,,,,,,
,,6124ce846b7b3c7bab41bbb5,65af54bb8ebdf7e17d6d572b,2024-01-23_07h56.51.824,bars,2023.2.3,Win32,60.01680471,657b66ea316d21385b68909f,,,,,,,,,,,2328.6568,2329.6449,,,2330.1446,2330.3949,,70,70,,,,,,,,,,,,,,,,bars/045.png,bars/mask003.png,,,,,,,,,,,,0,1,,,,,,,4,5,4,5,,,,,,,,,,,2329.6449,2330.1446,2330.3949,2336.3118,space,5.9026,,2336.3118,30,60,2337.3115,2337.3115,2337.3342,,,,0,15,15,15,1,100,10,,,,,,,,
,,6124ce846b7b3c7bab41bbb5,65af54bb8ebdf7e17d6d572b,2024-01-23_07h56.51.824,bars,2023.2.3,Win32,60.01680471,657b66ea316d21385b68909f,,,,,,,,,,,2337.3346,2338.3282,,,2338.8281,2339.0782,,49,49,,,,,,,,,,,,,,,,bars/010.png,bars/mask001.png,,,,,,,,,,,,5,2,,,,,,,6,7,4,6,,,,,,,,,,,2338.3282,2338.828,2339.0783,2346.3951,space,7.3004,,2346.3952,64,6,2347.3949,2347.395,2347.4161,,,,0,16,16,16,1,165,55,,,,,,,,
,,6124ce846b7b3c7bab41bbb5,65af54bb8ebdf7e17d6d572b,2024-01-23_07h56.51.824,bars,2023.2.3,Win32,60.01680471,657b66ea316d21385b68909f,,,,,,,,,,,2347.4163,2348.4109,,,2348.9109,2349.1608,,73,73,,,,,,,,,,,,,,,,bars/021.png,bars/mask001.png,,,,,,,,,,,,5,2,,,,,,,4,5,5,5,,,,,,,,,,,2348.4109,2348.9109,2349.1608,2362.8944,space,13.7285,,2362.8944,82,3,2363.8943,2363.8943,2363.9013,,,,0,17,17,17,1,155,70,,,,,,,,
,,6124ce846b7b3c7bab41bbb5,65af54bb8ebdf7e17d6d572b,2024-01-23_07h56.51.824,bars,2023.2.3,Win32,60.01680471,657b66ea316d21385b68909f,,,,,,,,,,,2363.9014,2364.8942,,,2365.3942,2365.6442,,136,136,,,,,,,,,,,,,,,,bars/019.png,bars/mask009.png,,,,,,,,,,,,0,2,,,,,,,6,3,5,3,,,,,,,,,,,2364.8942,2365.3942,2365.6442,2382.4282,space,16.7683,,2382.4283,89,31,2383.4276,2383.4276,2383.4346,,,,0,18,18,18,1,45,105,,,,,,,,
,,6124ce846b7b3c7bab41bbb5,65af54bb8ebdf7e17d6d572b,2024-01-23_07h56.51.824,bars,2023.2.3,Win32,60.01680471,657b66ea316d21385b68909f,,,,,,,,,,,2383.4347,2384.4281,,,2384.9282,2385.1783,,26,26,,,,,,,,,,,,,,,,bars/008.png,bars/mask007.png,,,,,,,,,,,,0,2,,,,,,,4,1,5,0,,,,,,,,,,,2384.4282,2384.9282,2385.1783,2420.4446,space,35.249,,2420.4446,84,26,2421.4449,2421.4449,2421.4653,,,,0,19,19,19,1,110,0,,,,,,,,
,,6124ce846b7b3c7bab41bbb5,65af54bb8ebdf7e17d6d572b,2024-01-23_07h56.51.824,bars,2023.2.3,Win32,60.01680471,657b66ea316d21385b68909f,,,,,,,,,,,2421.4655,2422.4616,,,2422.9617,2423.2113,,110,110,,,,,,,,,,,,,,,,bars/012.png,bars/mask005.png,,,,,,,,,,,,1,1,,,,,,,2,3,2,3,,,,,,,,,,,2422.4616,2422.9616,2423.2113,2428.8784,space,5.6349,,2428.8784,20,85,2429.8783,2429.8783,2429.9002,,,,0,20,20,20,1,90,15,,,,,,,,
,,6124ce846b7b3c7bab41bbb5,65af54bb8ebdf7e17d6d572b,2024-01-23_07h56.51.824,bars,2023.2.3,Win32,60.01680471,657b66ea316d21385b68909f,,,,,,,,,,,2429.9004,2430.8951,,,2431.3949,2431.645,,124,124,,,,,,,,,,,,,,,,bars/039.png,bars/mask002.png,,,,,,,,,,,,1,2,,,,,,,4,5,4,4,,,,,,,,,,,2430.8952,2431.3949,2431.645,2435.6114,space,3.9494,,2435.6114,51,19,2436.6115,2436.6116,2436.6352,,,,0,21,21,21,1,175,105,,,,,,,,
,,6124ce846b7b3c7bab41bbb5,65af54bb8ebdf7e17d6d572b,2024-01-23_07h56.51.824,bars,2023.2.3,Win32,60.01680471,657b66ea316d21385b68909f,,,,,,,,,,,2436.6355,2437.6283,,,2438.1282,2438.3777,,108,108,,,,,,,,,,,,,,,,bars/008.png,bars/mask007.png,,,,,,,,,,,,3,1,,,,,,,2,3,3,2,,,,,,,,,,,2437.6283,2438.1282,2438.3777,2442.4816,space,4.099,,2442.4817,2,72,2443.4776,2443.4776,2443.485,,,,0,22,22,22,1,110,0,,,,,,,,
,,6124ce846b7b3c7bab41bbb5,65af54bb8ebdf7e17d6d572b,2024-01-23_07h56.51.824,bars,2023.2.3,Win32,60.01680471,657b66ea316d21385b68909f,,,,,,,,,,,2443.4852,2444.4777,,,2444.9783,2445.2281,,115,115,,,,,,,,,,,,,,,,bars/013.png,bars/mask001.png,,,,,,,,,,,,0,1,,,,,,,0,1,1,0,,,,,,,,,,,2444.4778,2444.9781,2445.2282,2447.7951,space,2.5576,,2447.7952,40,75,2448.7949,2448.7949,2448.8176,,,,0,23,23,23,1,75,10,,,,,,,,
,,6124ce846b7b3c7bab41bbb5,65af54bb8ebdf7e17d6d572b,2024-01-23_07h56.51.824,bars,2023.2.3,Win32,60.01680471,657b66ea316d21385b68909f,,,,,,,,,,,2448.8179,2449.8116,,,2450.3115,2450.5611,,126,126,,,,,,,,,,,,,,,,bars/021.png,bars/mask002.png,,,,,,,,,,,,0,1,,,,,,,0,0,0,1,,,,,,,,,,,2449.8116,2450.3114,2450.5611,2452.5614,space,1.9932,,2452.5614,29,56,2453.5613,2453.5613,2453.5627,,,,0,24,24,24,1,155,70,,,,,,,,
,,6124ce846b7b3c7bab41bbb5,65af54bb8ebdf7e17d6d572b,2024-01-23_07h56.51.824,bars,2023.2.3,Win32,60.01680471,657b66ea316d21385b68909f,,,,,,,,,,,2453.5631,2454.5611,,,2455.0617,2455.3114,,68,68,,,,,,,,,,,,,,,,bars/022.png,bars/mask000.png,,,,,,,,,,,,0,1,,,,,,,0,0,0,1,,,,,,,,,,,2454.5611,2455.0616,2455.3115,2462.3617,space,7.0344,,2462.3618,27,48,2463.3616,2463.3616,2463.3843,,,,0,25,25,25,1,95,20,,,,,,,,
,,6124ce846b7b3c7bab41bbb5,65af54bb8ebdf7e17d6d572b,2024-01-23_07h56.51.824,bars,2023.2.3,Win32,60.01680471,657b66ea316d21385b68909f,,,,,,,,,,,2463.3846,2464.3782,,,2464.878,2465.1283,,51,51,,,,,,,,,,,,,,,,bars/015.png,bars/mask003.png,,,,,,,,,,,,0,1,,,,,,,0,0,1,0,,,,,,,,,,,2464.3782,2464.8779,2465.1283,2470.2109,space,5.0719,,2470.211,59,71,2471.211,2471.211,2471.218,,,,0,26,26,26,1,110,160,,,,,,,,
,,6124ce846b7b3c7bab41bbb5,65af54bb8ebdf7e17d6d572b,2024-01-23_07h56.51.824,bars,2023.2.3,Win32,60.01680471,657b66ea316d21385b68909f,,,,,,,,,,,2471.2181,2472.211,,,2472.711,2472.9608,,138,138,,,,,,,,,,,,,,,,bars/003.png,bars/mask008.png,,,,,,,,,,,,2,2,,,,,,,0,2,1,2,,,,,,,,,,,2472.211,2472.7109,2472.9609,2475.7609,space,2.7919,,2475.761,67,2,2476.7609,2476.7609,2476.7679,,,,0,27,27,27,1,25,140,,,,,,,,
,,6124ce846b7b3c7bab41bbb5,65af54bb8ebdf7e17d6d572b,2024-01-23_07h56.51.824,bars,2023.2.3,Win32,60.01680471,657b66ea316d21385b68909f,,,,,,,,,,,2476.768,2477.761,,,2478.2609,2478.511,,98,98,,,,,,,,,,,,,,,,bars/030.png,bars/mask002.png,,,,,,,,,,,,0,2,,,,,,,2,4,1,6,,,,,,,,,,,2477.761,2478.2609,2478.511,2481.0277,space,2.5058,,2481.0277,42,33,2482.0277,2482.0277,2482.0346,,,,0,28,28,28,1,140,65,,,,,,,,
,,6124ce846b7b3c7bab41bbb5,65af54bb8ebdf7e17d6d572b,2024-01-23_07h56.51.824,bars,2023.2.3,Win32,60.01680471,657b66ea316d21385b68909f,,,,,,,,,,,2482.0347,2483.0276,,,2483.5276,2483.7776,,107,107,,,,,,,,,,,,,,,,bars/039.png,bars/mask002.png,,,,,,,,,,,,2,2,,,,,,,0,2,0,2,,,,,,,,,,,2483.0276,2483.5276,2483.7777,2486.6276,space,2.8227,,2486.6276,68,2,2487.6276,2487.6276,2487.6344,,,,0,29,29,29,1,175,105,,,,,,,,
,,6124ce846b7b3c7bab41bbb5,65af54bb8ebdf7e17d6d572b,2024-01-23_07h56.51.824,bars,2023.2.3,Win32,60.01680471,657b66ea316d21385b68909f,,,,,,,,,,,2487.6345,2488.6275,,,2489.1276,2489.3775,,99,99,,,,,,,,,,,,,,,,bars/000.png,bars/mask008.png,,,,,,,,,,,,0,2,,,,,,,0,4,1,6,,,,,,,,,,,2488.6276,2489.1276,2489.3775,2492.6609,space,3.2713,,2492.6609,59,46,2493.6609,2493.6609,2493.6674,,,,0,30,30,30,1,40,145,,,,,,,,
,,6124ce846b7b3c7bab41bbb5,65af54bb8ebdf7e17d6d572b,2024-01-23_07h56.51.824,bars,2023.2.3,Win32,60.01680471,657b66ea316d21385b68909f,,,,,,,,,,,2493.6676,2494.6609,,,2495.161,2495.4109,,129,129,,,,,,,,,,,,,,,,bars/043.png,bars/mask005.png,,,,,,,,,,,,2,2,,,,,,,2,2,2,2,,,,,,,,,,,2494.6609,2495.161,2495.411,2498.2943,space,2.8693,,2498.2944,81,1,2499.2943,2499.2943,2499.3008,,,,0,31,31,31,1,30,130,,,,,,,,
,,6124ce846b7b3c7bab41bbb5,65af54bb8ebdf7e17d6d572b,2024-01-23_07h56.51.824,bars,2023.2.3,Win32,60.01680471,657b66ea316d21385b68909f,,,,,,,,,,,2499.3011,2500.2943,,,2500.7942,2501.0442,,129,129,,,,,,,,,,,,,,,,bars/012.png,bars/mask007.png,,,,,,,,,,,,0,1,,,,,,,4,4,4,3,,,,,,,,,,,2500.2943,2500.7942,2501.0443,2505.4283,space,4.3731,,2505.4284,39,66,2506.4282,2506.4283,2506.4502,,,,0,32,32,32,1,90,15,,,,,,,,
,,6124ce846b7b3c7bab41bbb5,65af54bb8ebdf7e17d6d572b,2024-01-23_07h56.51.824,bars,2023.2.3,Win32,60.01680471,657b66ea316d21385b68909f,,,,,,,,,,,2506.4504,2507.4448,,,2507.9444,2508.1947,,127,127,,,,,,,,,,,,,,,,bars/034.png,bars/mask007.png,,,,,,,,,,,,6,1,,,,,,,6,6,6,5,,,,,,,,,,,2507.4448,2507.9444,2508.1948,2514.8619,space,6.6506,,2514.8619,2,62,2515.861,2515.861,2515.8679,,,,0,33,33,33,1,125,65,,,,,,,,
,,6124ce846b7b3c7bab41bbb5,65af54bb8ebdf7e17d6d572b,2024-01-23_07h56.51.824,bars,2023.2.3,Win32,60.01680471,657b66ea316d21385b68909f,,,,,,,,,,,2515.8681,2516.8614,,,2517.3615,2517.6115,,148,148,,,,,,,,,,,,,,,,bars/006.png,bars/mask009.png,,,,,,,,,,,,0,2,,,,,,,8,8,7,7,,,,,,,,,,,2516.8614,2517.3615,2517.6115,2521.2452,space,3.6176,,2521.2453,67,48,2522.2449,2522.245,2522.2657,,,,0,34,34,34,1,35,100,,,,,,,,
,,6124ce846b7b3c7bab41bbb5,65af54bb8ebdf7e17d6d572b,2024-01-23_07h56.51.824,bars,2023.2.3,Win32,60.01680471,657b66ea316d21385b68909f,,,,,,,,,,,2522.2659,2523.2617,,,2523.7618,2524.0115,,107,107,,,,,,,,,,,,,,,,bars/025.png,bars/mask008.png,,,,,,,,,,,,6,1,,,,,,,6,10,6,10,,,,,,,,,,,2523.2617,2523.7617,2524.0115,2526.5282,space,2.5098,,2526.5283,2,67,2527.5283,2527.5283,2527.5478,,,,0,35,35,35,1,105,40,,,,,,,,
,,6124ce846b7b3c7bab41bbb5,65af54bb8ebdf7e17d6d572b,2024-01-23_07h56.51.824,bars,2023.2.3,Win32,60.01680471,657b66ea316d21385b68909f,,,,,,,,,,,2527.5481,2528.5443,,,2529.0442,2529.2942,,62,62,,,,,,,,,,,,,,,,bars/018.png,bars/mask006.png,,,,,,,,,,,,1,2,,,,,,,8,10,7,8,,,,,,,,,,,2528.5443,2529.0442,2529.2942,2531.6452,space,2.3352,,2531.6452,88,28,2532.6444,2532.6444,2532.6513,,,,0,36,36,36,1,150,90,,,,,,,,
,,6124ce846b7b3c7bab41bbb5,65af54bb8ebdf7e17d6d572b,2024-01-23_07h56.51.824,bars,2023.2.3,Win32,60.01680471,657b66ea316d21385b68909f,,,,,,,,,,,2532.6514,2533.6449,,,2534.1451,2534.3952,,51,51,,,,,,,,,,,,,,,,bars/028.png,bars/mask008.png,,,,,,,,,,,,5,1,,,,,,,6,10,6,10,,,,,,,,,,,2533.645,2534.145,2534.3952,2554.2781,space,19.8548,,2554.2782,6,69,2555.2782,2555.2782,2555.299,,,,0,37,37,37,1,45,120,,,,,,,,
,,6124ce846b7b3c7bab41bbb5,65af54bb8ebdf7e17d6d572b,2024-01-23_07h56.51.824,bars,2023.2.3,Win32,60.01680471,657b66ea316d21385b68909f,,,,,,,,,,,2555.2991,2556.295,,,2556.795,2557.0449,,123,123,,,,,,,,,,,,,,,,bars/004.png,bars/mask001.png,,,,,,,,,,,,9,2,,,,,,,8,10,7,10,,,,,,,,,,,2556.295,2556.795,2557.0449,2558.961,space,1.9074,,2558.961,82,2,2559.9616,2559.9617,2559.9838,,,,0,38,38,38,1,25,125,,,,,,,,
,,6124ce846b7b3c7bab41bbb5,65af54bb8ebdf7e17d6d572b,2024-01-23_07h56.51.824,bars,2023.2.3,Win32,60.01680471,657b66ea316d21385b68909f,,,,,,,,,,,2559.9841,2560.9782,,,2561.4785,2561.728,,102,102,,,,,,,,,,,,,,,,bars/020.png,bars/mask004.png,,,,,,,,,,,,3,1,,,,,,,6,10,6,10,,,,,,,,,,,2560.9782,2561.4784,2561.7281,2563.6662,space,1.9329,,2563.6663,13,68,2564.6615,2564.6615,2564.6646,,,,0,39,39,39,1,115,170,,,,,,,,
,,6124ce846b7b3c7bab41bbb5,65af54bb8ebdf7e17d6d572b,2024-01-23_07h56.51.824,bars,2023.2.3,Win32,60.01680471,657b66ea316d21385b68909f,,,,,,,,,,,2564.665,2565.6611,,,2566.1616,2566.4117,,120,120,,,,,,,,,,,,,,,,bars/002.png,bars/mask009.png,,,,,,,,,,,,6,1,,,,,,,8,10,9,10,,,,,,,,,,,2565.6612,2566.1616,2566.4117,2568.6953,space,2.2697,,2568.6953,10,35,2569.6951,2569.6952,2569.7052,,,,0,40,40,40,1,130,85,,,,,,,,
,,6124ce846b7b3c7bab41bbb5,65af54bb8ebdf7e17d6d572b,2024-01-23_07h56.51.824,bars,2023.2.3,Win32,60.01680471,657b66ea316d21385b68909f,,,,,,,,,,,2569.7052,2570.695,,,2571.195,2571.4448,,104,104,,,,,,,,,,,,,,,,bars/040.png,bars/mask009.png,,,,,,,,,,,,0,1,,,,,,,6,8,5,7,,,,,,,,,,,2570.6951,2571.195,2571.4448,2574.2783,space,2.8194,,2574.2783,36,81,2575.2781,2575.2782,2575.2976,,,,0,41,41,41,1,140,5,,,,,,,,
,,6124ce846b7b3c7bab41bbb5,65af54bb8ebdf7e17d6d572b,2024-01-23_07h56.51.824,bars,2023.2.3,Win32,60.01680471,657b66ea316d21385b68909f,,,,,,,,,,,2575.2978,2576.2948,,,2576.7945,2577.045,,90,90,,,,,,,,,,,,,,,,bars/003.png,bars/mask007.png,,,,,,,,,,,,0,2,,,,,,,8,10,9,8,,,,,,,,,,,2576.2949,2576.7944,2577.045,2581.1284,space,4.0685,,2581.1285,65,50,2582.1282,2582.1282,2582.1478,,,,0,42,42,42,1,25,140,,,,,,,,
,,6124ce846b7b3c7bab41bbb5,65af54bb8ebdf7e17d6d572b,2024-01-23_07h56.51.824,bars,2023.2.3,Win32,60.01680471,657b66ea316d21385b68909f,,,,,,,,,,,2582.148,2583.145,,,2583.6451,2583.8946,,105,105,,,,,,,,,,,,,,,,bars/038.png,bars/mask000.png,,,,,,,,,,,,0,2,,,,,,,10,8,8,8,,,,,,,,,,,2583.1451,2583.645,2583.8946,2589.4778,space,5.5702,,2589.4778,60,35,2590.4776,2590.4777,2590.4842,,,,0,43,43,43,1,165,70,,,,,,,,
,,6124ce846b7b3c7bab41bbb5,65af54bb8ebdf7e17d6d572b,2024-01-23_07h56.51.824,bars,2023.2.3,Win32,60.01680471,657b66ea316d21385b68909f,,,,,,,,,,,2590.4843,2591.4777,,,2591.9823,2592.2277,,97,97,,,,,,,,,,,,,,,,bars/044.png,bars/mask001.png,,,,,,,,,,,,2,1,,,,,,,10,6,9,8,,,,,,,,,,,2591.4777,2591.9823,2592.2277,2595.7277,space,3.4929,,2595.7278,22,58,2596.7277,2596.7277,2596.7347,,,,0,44,44,44,1,75,155,,,,,,,,
,,6124ce846b7b3c7bab41bbb5,65af54bb8ebdf7e17d6d572b,2024-01-23_07h56.51.824,bars,2023.2.3,Win32,60.01680471,657b66ea316d21385b68909f,,,,,,,,,,,2596.7348,2597.7276,,,2598.2277,2598.4776,,104,104,,,,,,,,,,,,,,,,bars/048.png,bars/mask000.png,,,,,,,,,,,,0,1,,,,,,,10,4,10,7,,,,,,,,,,,2597.7276,2598.2277,2598.4776,2603.561,space,5.0672,,2603.561,54,71,2604.561,2604.561,2604.5676,,,,0,45,45,45,1,50,175,,,,,,,,
,,6124ce846b7b3c7bab41bbb5,65af54bb8ebdf7e17d6d572b,2024-01-23_07h56.51.824,bars,2023.2.3,Win32,60.01680471,657b66ea316d21385b68909f,,,,,,,,,,,2604.5678,2605.5611,,,2606.061,2606.3109,,77,77,,,,,,,,,,,,,,,,bars/049.png,bars/mask000.png,,,,,,,,,,,,0,2,,,,,,,8,2,9,1,,,,,,,,,,,2605.5611,2606.0609,2606.3109,2608.9111,space,2.5937,,2608.9111,83,38,2609.9109,2609.9109,2609.9203,,,,0,46,46,46,1,160,115,,,,,,,,
,,6124ce846b7b3c7bab41bbb5,65af54bb8ebdf7e17d6d572b,2024-01-23_07h56.51.824,bars,2023.2.3,Win32,60.01680471,657b66ea316d21385b68909f,,,,,,,,,,,2609.9204,2610.911,,,2611.4109,2611.661,,51,51,,,,,,,,,,,,,,,,bars/039.png,bars/mask008.png,,,,,,,,,,,,0,2,,,,,,,6,4,7,5,,,,,,,,,,,2610.911,2611.4109,2611.6611,2614.0109,space,2.3335,,2614.011,56,54,2615.011,2615.0111,2615.0118,,,,0,47,47,47,1,175,105,,,,,,,,
,,6124ce846b7b3c7bab41bbb5,65af54bb8ebdf7e17d6d572b,2024-01-23_07h56.51.824,bars,2023.2.3,Win32,60.01680471,657b66ea316d21385b68909f,,,,,,,,,,,2615.0119,2616.0109,,,2616.5111,2616.761,,117,117,,,,,,,,,,,,,,,,bars/048.png,bars/mask006.png,,,,,,,,,,,,0,2,,,,,,,4,2,1,2,,,,,,,,,,,2616.0109,2616.5111,2616.761,2618.0443,space,1.267,,2618.0443,67,58,2619.0444,2619.0444,2619.0451,,,,0,48,48,48,1,50,175,,,,,,,,
,,6124ce846b7b3c7bab41bbb5,65af54bb8ebdf7e17d6d572b,2024-01-23_07h56.51.824,bars,2023.2.3,Win32,60.01680471,657b66ea316d21385b68909f,,,,,,,,,,,2619.0452,2620.0443,,,2620.5444,2620.7943,,43,43,,,,,,,,,,,,,,,,bars/046.png,bars/mask000.png,,,,,,,,,,,,0,2,,,,,,,6,0,5,0,,,,,,,,,,,2620.0443,2620.5444,2620.7943,2626.4949,space,5.6851,,2626.495,68,42,2627.4946,2627.4946,2627.5039,,,,0,49,49,49,1,155,85,,,,,,,,
,,6124ce846b7b3c7bab41bbb5,65af54bb8ebdf7e17d6d572b,2024-01-23_07h56.51.824,bars,2023.2.3,Win32,60.01680471,657b66ea316d21385b68909f,,,,,,,,,,,,,,,,,,,,,,,,,,,,,,,,,,,,,,,,,,,,,,,,,,,,,,,,,,,,,,,,,,,,,,,,,,,,,,,,,,,,,,,,,,,,,2627.504,2687.4952,0,2,2,1,1,sequence_tables/blk021.csv
,,6124ce846b7b3c7bab41bbb5,65af54bb8ebdf7e17d6d572b,2024-01-23_07h56.51.824,bars,2023.2.3,Win32,60.01680471,657b66ea316d21385b68909f,,,,,,,,,,,2721.0037,2721.9944,,,2722.4944,2722.7445,,50,50,,,,,,,,,,,,,,,,bars/034.png,bars/mask002.png,,,,,,,,,,,,2,2,,,,,,,7,2,8,3,,,,,,2687.5141,2720.9944,space,33.4684,,2721.9944,2722.4944,2722.7445,2725.0444,space,2.288,,2725.0445,75,15,2726.0444,2726.0444,2726.0508,,,,0,0,0,0,1,125,65,,,,,,,,
,,6124ce846b7b3c7bab41bbb5,65af54bb8ebdf7e17d6d572b,2024-01-23_07h56.51.824,bars,2023.2.3,Win32,60.01680471,657b66ea316d21385b68909f,,,,,,,,,,,2726.051,2727.0444,,,2727.5444,2727.7944,,131,131,,,,,,,,,,,,,,,,bars/033.png,bars/mask008.png,,,,,,,,,,,,1,2,,,,,,,9,4,8,5,,,,,,,,,,,2727.0444,2727.5444,2727.7944,2729.9778,space,2.1669,,2729.9778,74,24,2730.9778,2730.9778,2730.9781,,,,0,1,1,1,1,25,155,,,,,,,,
,,6124ce846b7b3c7bab41bbb5,65af54bb8ebdf7e17d6d572b,2024-01-23_07h56.51.824,bars,2023.2.3,Win32,60.01680471,657b66ea316d21385b68909f,,,,,,,,,,,2730.9783,2731.9777,,,2732.4777,2732.7278,,19,19,,,,,,,,,,,,,,,,bars/032.png,bars/mask009.png,,,,,,,,,,,,6,2,,,,,,,7,6,6,6,,,,,,,,,,,2731.9777,2732.4777,2732.7278,2735.4279,space,2.6886,,2735.4279,74,1,2736.4277,2736.4277,2736.4343,,,,0,2,2,2,1,125,20,,,,,,,,
,,6124ce846b7b3c7bab41bbb5,65af54bb8ebdf7e17d6d572b,2024-01-23_07h56.51.824,bars,2023.2.3,Win32,60.01680471,657b66ea316d21385b68909f,,,,,,,,,,,2736.4343,2737.4277,,,2737.9278,2738.1778,,101,101,,,,,,,,,,,,,,,,bars/030.png,bars/mask004.png,,,,,,,,,,,,0,2,,,,,,,5,8,6,9,,,,,,,,,,,2737.4277,2737.9278,2738.1778,2740.6445,space,2.4547,,2740.6445,39,36,2741.6444,2741.6444,2741.6509,,,,0,3,3,3,1,140,65,,,,,,,,
,,6124ce846b7b3c7bab41bbb5,65af54bb8ebdf7e17d6d572b,2024-01-23_07h56.51.824,bars,2023.2.3,Win32,60.01680471,657b66ea316d21385b68909f,,,,,,,,,,,2741.651,2742.645,,,2743.1456,2743.3952,,123,123,,,,,,,,,,,,,,,,bars/012.png,bars/mask003.png,,,,,,,,,,,,0,1,,,,,,,3,6,2,6,,,,,,,,,,,2742.645,2743.1455,2743.3953,2746.0611,space,2.6489,,2746.0612,33,72,2747.0617,2747.0618,2747.0965,,,,0,4,4,4,1,90,15,,,,,,,,
,,6124ce846b7b3c7bab41bbb5,65af54bb8ebdf7e17d6d572b,2024-01-23_07h56.51.824,bars,2023.2.3,Win32,60.01680471,657b66ea316d21385b68909f,,,,,,,,,,,2747.0969,2748.0951,,,2748.5952,2748.8448,,112,112,,,,,,,,,,,,,,,,bars/015.png,bars/mask007.png,,,,,,,,,,,,4,1,,,,,,,5,4,4,5,,,,,,,,,,,2748.0951,2748.5952,2748.8449,2751.0779,space,2.2197,,2751.0779,2,48,2752.0778,2752.0778,2752.0842,,,,0,5,5,5,1,110,160,,,,,,,,
,,6124ce846b7b3c7bab41bbb5,65af54bb8ebdf7e17d6d572b,2024-01-23_07h56.51.824,bars,2023.2.3,Win32,60.01680471,657b66ea316d21385b68909f,,,,,,,,,,,2752.0843,2753.0778,,,2753.5784,2753.8278,,145,145,,,,,,,,,,,,,,,,bars/012.png,bars/mask003.png,,,,,,,,,,,,0,2,,,,,,,3,2,3,3,,,,,,,,,,,2753.0778,2753.5784,2753.8278,2756.3951,space,2.5524,,2756.3952,55,50,2757.3944,2757.3944,2757.4012,,,,0,6,6,6,1,90,15,,,,,,,,
,,6124ce846b7b3c7bab41bbb5,65af54bb8ebdf7e17d6d572b,2024-01-23_07h56.51.824,bars,2023.2.3,Win32,60.01680471,657b66ea316d21385b68909f,,,,,,,,,,,2757.4013,2758.3946,,,2758.8951,2759.1452,,82,82,,,,,,,,,,,,,,,,bars/014.png,bars/mask006.png,,,,,,,,,,,,2,1,,,,,,,1,4,2,3,,,,,,,,,,,2758.3947,2758.8951,2759.1452,2761.4779,space,2.3192,,2761.4779,2,82,2762.4781,2762.4781,2762.4946,,,,0,7,7,7,1,80,0,,,,,,,,
,,6124ce846b7b3c7bab41bbb5,65af54bb8ebdf7e17d6d572b,2024-01-23_07h56.51.824,bars,2023.2.3,Win32,60.01680471,657b66ea316d21385b68909f,,,,,,,,,,,2762.4949,2763.4949,,,2763.9949,2764.2445,,97,97,,,,,,,,,,,,,,,,bars/035.png,bars/mask000.png,,,,,,,,,,,,0,2,,,,,,,0,2,0,3,,,,,,,,,,,2763.495,2763.9949,2764.2445,2766.362,space,2.1023,,2766.362,78,37,2767.3613,2767.3613,2767.3756,,,,0,8,8,8,1,175,60,,,,,,,,
,,6124ce846b7b3c7bab41bbb5,65af54bb8ebdf7e17d6d572b,2024-01-23_07h56.51.824,bars,2023.2.3,Win32,60.01680471,657b66ea316d21385b68909f,,,,,,,,,,,2767.3759,2768.3781,,,2768.8777,2769.1277,,104,104,,,,,,,,,,,,,,,,bars/021.png,bars/mask000.png,,,,,,,,,,,,0,2,,,,,,,0,4,0,5,,,,,,,,,,,2768.3781,2768.8777,2769.1277,2770.8612,space,1.7296,,2770.8613,51,34,2771.8617,2771.8617,2771.881,,,,0,9,9,9,1,155,70,,,,,,,,
,,6124ce846b7b3c7bab41bbb5,65af54bb8ebdf7e17d6d572b,2024-01-23_07h56.51.824,bars,2023.2.3,Win32,60.01680471,657b66ea316d21385b68909f,,,,,,,,,,,2771.8812,2772.8783,,,2773.3778,2773.6284,,101,101,,,,,,,,,,,,,,,,bars/001.png,bars/mask001.png,,,,,,,,,,,,3,2,,,,,,,0,6,0,6,,,,,,,,,,,2772.8783,2773.3778,2773.6284,2776.1452,space,2.509,,2776.1453,29,16,2777.1448,2777.1449,2777.165,,,,0,10,10,10,1,130,85,,,,,,,,
,,6124ce846b7b3c7bab41bbb5,65af54bb8ebdf7e17d6d572b,2024-01-23_07h56.51.824,bars,2023.2.3,Win32,60.01680471,657b66ea316d21385b68909f,,,,,,,,,,,2777.1653,2778.1616,,,2778.6615,2778.9115,,139,139,,,,,,,,,,,,,,,,bars/018.png,bars/mask006.png,,,,,,,,,,,,1,1,,,,,,,2,8,2,8,,,,,,,,,,,2778.1616,2778.6614,2778.9117,2781.0118,space,2.0901,,2781.0118,11,49,2782.0117,2782.0118,2782.0343,,,,0,11,11,11,1,150,90,,,,,,,,
,,6124ce846b7b3c7bab41bbb5,65af54bb8ebdf7e17d6d572b,2024-01-23_07h56.51.824,bars,2023.2.3,Win32,60.01680471,657b66ea316d21385b68909f,,,,,,,,,,,2782.0345,2783.0285,,,2783.528,2783.7783,,114,114,,,,,,,,,,,,,,,,bars/033.png,bars/mask003.png,,,,,,,,,,,,0,2,,,,,,,4,6,5,6,,,,,,,,,,,2783.0285,2783.528,2783.7783,2786.0448,space,2.2491,,2786.0448,89,41,2787.0451,2787.0451,2787.0477,,,,0,12,12,12,1,25,155,,,,,,,,
,,6124ce846b7b3c7bab41bbb5,65af54bb8ebdf7e17d6d572b,2024-01-23_07h56.51.824,bars,2023.2.3,Win32,60.01680471,657b66ea316d21385b68909f,,,,,,,,,,,2787.0481,2788.0446,,,2788.5445,2788.7946,,120,120,,,,,,,,,,,,,,,,bars/015.png,bars/mask009.png,,,,,,,,,,,,1,1,,,,,,,2,8,1,8,,,,,,,,,,,2788.0446,2788.5445,2788.7946,2790.9619,space,2.1601,,2790.9619,10,40,2791.9618,2791.9619,2791.9819,,,,0,13,13,13,1,110,160,,,,,,,,
,,6124ce846b7b3c7bab41bbb5,65af54bb8ebdf7e17d6d572b,2024-01-23_07h56.51.824,bars,2023.2.3,Win32,60.01680471,657b66ea316d21385b68909f,,,,,,,,,,,2791.9821,2792.9781,,,2793.4778,2793.7283,,47,47,,,,,,,,,,,,,,,,bars/006.png,bars/mask005.png,,,,,,,,,,,,2,1,,,,,,,4,10,3,10,,,,,,,,,,,2792.9781,2793.4778,2793.7284,2796.4953,space,2.7614,,2796.4956,12,53,2797.4949,2797.4949,2797.5127,,,,0,14,14,14,1,35,100,,,,,,,,
,,6124ce846b7b3c7bab41bbb5,65af54bb8ebdf7e17d6d572b,2024-01-23_07h56.51.824,bars,2023.2.3,Win32,60.01680471,657b66ea316d21385b68909f,,,,,,,,,,,2797.513,2798.5115,,,2799.0116,2799.2617,,23,23,,,,,,,,,,,,,,,,bars/024.png,bars/mask009.png,,,,,,,,,,,,0,2,,,,,,,2,10,3,9,,,,,,,,,,,2798.5116,2799.0115,2799.2617,2801.1617,space,1.884,,2801.1618,83,33,2802.161,2802.161,2802.1677,,,,0,15,15,15,1,120,170,,,,,,,,
,,6124ce846b7b3c7bab41bbb5,65af54bb8ebdf7e17d6d572b,2024-01-23_07h56.51.824,bars,2023.2.3,Win32,60.01680471,657b66ea316d21385b68909f,,,,,,,,,,,2802.1679,2803.1618,,,2803.6617,2803.9115,,61,61,,,,,,,,,,,,,,,,bars/026.png,bars/mask002.png,,,,,,,,,,,,2,2,,,,,,,0,10,0,8,,,,,,,,,,,2803.1618,2803.6616,2803.9115,2805.5782,space,1.6521,,2805.5782,26,24,2806.5781,2806.5781,2806.5791,,,,0,16,16,16,1,35,85,,,,,,,,
,,6124ce846b7b3c7bab41bbb5,65af54bb8ebdf7e17d6d572b,2024-01-23_07h56.51.824,bars,2023.2.3,Win32,60.01680471,657b66ea316d21385b68909f,,,,,,,,,,,2806.5794,2807.5785,,,2808.0785,2808.3284,,122,122,,,,,,,,,,,,,,,,bars/040.png,bars/mask004.png,,,,,,,,,,,,1,1,,,,,,,2,8,2,10,,,,,,,,,,,2807.5785,2808.0785,2808.3284,2810.7454,space,2.4007,,2810.7455,18,63,2811.7449,2811.745,2811.763,,,,0,17,17,17,1,140,5,,,,,,,,
,,6124ce846b7b3c7bab41bbb5,65af54bb8ebdf7e17d6d572b,2024-01-23_07h56.51.824,bars,2023.2.3,Win32,60.01680471,657b66ea316d21385b68909f,,,,,,,,,,,2811.7633,2812.7612,,,2813.2613,2813.5117,,128,128,,,,,,,,,,,,,,,,bars/016.png,bars/mask004.png,,,,,,,,,,,,0,2,,,,,,,4,10,5,10,,,,,,,,,,,2812.7613,2813.2613,2813.5117,2815.6779,space,2.1609,,2815.6779,88,37,2816.6779,2816.678,2816.6793,,,,0,18,18,18,1,40,165,,,,,,,,
,,6124ce846b7b3c7bab41bbb5,65af54bb8ebdf7e17d6d572b,2024-01-23_07h56.51.824,bars,2023.2.3,Win32,60.01680471,657b66ea316d21385b68909f,,,,,,,,,,,2816.6796,2817.6778,,,2818.1782,2818.4279,,104,104,,,,,,,,,,,,,,,,bars/011.png,bars/mask009.png,,,,,,,,,,,,4,2,,,,,,,6,10,5,10,,,,,,,,,,,2817.6778,2818.1782,2818.4279,2820.6617,space,2.2223,,2820.6618,56,19,2821.6618,2821.6618,2821.685,,,,0,19,19,19,1,160,85,,,,,,,,
,,6124ce846b7b3c7bab41bbb5,65af54bb8ebdf7e17d6d572b,2024-01-23_07h56.51.824,bars,2023.2.3,Win32,60.01680471,657b66ea316d21385b68909f,,,,,,,,,,,2821.6852,2822.6833,,,2823.1783,2823.4286,,106,106,,,,,,,,,,,,,,,,bars/009.png,bars/mask002.png,,,,,,,,,,,,10,2,,,,,,,8,10,9,10,,,,,,,,,,,2822.6834,2823.1783,2823.4287,2825.4455,space,2.0045,,2825.4455,89,1,2826.4449,2826.4449,2826.4463,,,,0,20,20,20,1,15,105,,,,,,,,
,,6124ce846b7b3c7bab41bbb5,65af54bb8ebdf7e17d6d572b,2024-01-23_07h56.51.824,bars,2023.2.3,Win32,60.01680471,657b66ea316d21385b68909f,,,,,,,,,,,2826.4466,2827.4452,,,2827.9452,2828.1947,,78,78,,,,,,,,,,,,,,,,bars/040.png,bars/mask002.png,,,,,,,,,,,,0,1,,,,,,,6,8,6,10,,,,,,,,,,,2827.4452,2827.9452,2828.1947,2828.9113,space,0.71,,2828.9113,62,73,2829.9111,2829.9111,2829.9131,,,,0,21,21,21,1,140,5,,,,,,,,
,,6124ce846b7b3c7bab41bbb5,65af54bb8ebdf7e17d6d572b,2024-01-23_07h56.51.824,bars,2023.2.3,Win32,60.01680471,657b66ea316d21385b68909f,,,,,,,,,,,2829.9132,2830.9111,,,2831.4111,2831.661,,93,93,,,,,,,,,,,,,,,,bars/011.png,bars/mask001.png,,,,,,,,,,,,4,2,,,,,,,4,6,6,5,,,,,,,,,,,2830.9111,2831.4111,2831.661,2833.4945,space,1.8194,,2833.4945,67,8,2834.4944,2834.4944,2834.4967,,,,0,22,22,22,1,160,85,,,,,,,,
,,6124ce846b7b3c7bab41bbb5,65af54bb8ebdf7e17d6d572b,2024-01-23_07h56.51.824,bars,2023.2.3,Win32,60.01680471,657b66ea316d21385b68909f,,,,,,,,,,,2834.4969,2835.4944,,,2835.9944,2836.249,,91,91,,,,,,,,,,,,,,,,bars/040.png,bars/mask008.png,,,,,,,,,,,,0,1,,,,,,,2,8,2,8,,,,,,,,,,,2835.4944,2835.9944,2836.249,2838.7944,space,2.5302,,2838.7944,49,86,2839.7944,2839.7944,2839.8017,,,,0,23,23,23,1,140,5,,,,,,,,
,,6124ce846b7b3c7bab41bbb5,65af54bb8ebdf7e17d6d572b,2024-01-23_07h56.51.824,bars,2023.2.3,Win32,60.01680471,657b66ea316d21385b68909f,,,,,,,,,,,2839.8019,2840.7944,,,2841.2944,2841.5445,,83,83,,,,,,,,,,,,,,,,bars/039.png,bars/mask008.png,,,,,,,,,,,,3,2,,,,,,,4,10,4,10,,,,,,,,,,,2840.7945,2841.2944,2841.5445,2843.3778,space,1.8242,,2843.3778,88,22,2844.3777,2844.3777,2844.3796,,,,0,24,24,24,1,175,105,,,,,,,,
,,6124ce846b7b3c7bab41bbb5,65af54bb8ebdf7e17d6d572b,2024-01-23_07h56.51.824,bars,2023.2.3,Win32,60.01680471,657b66ea316d21385b68909f,,,,,,,,,,,2844.3797,2845.3777,,,2845.8778,2846.1278,,100,100,,,,,,,,,,,,,,,,bars/035.png,bars/mask003.png,,,,,,,,,,,,0,2,,,,,,,2,8,3,7,,,,,,,,,,,2845.3777,2845.8778,2846.1278,2848.2611,space,2.1206,,2848.2612,75,40,2849.2611,2849.2611,2849.2682,,,,0,25,25,25,1,175,60,,,,,,,,
,,6124ce846b7b3c7bab41bbb5,65af54bb8ebdf7e17d6d572b,2024-01-23_07h56.51.824,bars,2023.2.3,Win32,60.01680471,657b66ea316d21385b68909f,,,,,,,,,,,2849.2683,2850.2611,,,2850.7612,2851.0112,,125,125,,,,,,,,,,,,,,,,bars/026.png,bars/mask000.png,,,,,,,,,,,,0,2,,,,,,,0,10,0,10,,,,,,,,,,,2850.2611,2850.7612,2851.0112,2854.0778,space,3.0612,,2854.0778,90,40,2855.0778,2855.0778,2855.0846,,,,0,26,26,26,1,35,85,,,,,,,,
,,6124ce846b7b3c7bab41bbb5,65af54bb8ebdf7e17d6d572b,2024-01-23_07h56.51.824,bars,2023.2.3,Win32,60.01680471,657b66ea316d21385b68909f,,,,,,,,,,,2855.0847,2856.0777,,,2856.5778,2856.8279,,118,118,,,,,,,,,,,,,,,,bars/020.png,bars/mask007.png,,,,,,,,,,,,2,1,,,,,,,2,10,2,10,,,,,,,,,,,2856.0777,2856.5778,2856.8279,2859.2445,space,2.3842,,2859.2445,3,52,2860.2444,2860.2444,2860.2527,,,,0,27,27,27,1,115,170,,,,,,,,
,,6124ce846b7b3c7bab41bbb5,65af54bb8ebdf7e17d6d572b,2024-01-23_07h56.51.824,bars,2023.2.3,Win32,60.01680471,657b66ea316d21385b68909f,,,,,,,,,,,2860.2528,2861.2444,,,2861.7445,2861.9944,,122,122,,,,,,,,,,,,,,,,bars/009.png,bars/mask009.png,,,,,,,,,,,,4,2,,,,,,,0,10,1,10,,,,,,,,,,,2861.2444,2861.7445,2861.9944,2864.5946,space,2.5905,,2864.5946,73,17,2865.5947,2865.5947,2865.6025,,,,0,28,28,28,1,15,105,,,,,,,,
,,6124ce846b7b3c7bab41bbb5,65af54bb8ebdf7e17d6d572b,2024-01-23_07h56.51.824,bars,2023.2.3,Win32,60.01680471,657b66ea316d21385b68909f,,,,,,,,,,,2865.6026,2866.5952,,,2867.0951,2867.3446,,69,69,,,,,,,,,,,,,,,,bars/026.png,bars/mask002.png,,,,,,,,,,,,4,2,,,,,,,0,8,2,8,,,,,,,,,,,2866.5953,2867.0951,2867.3447,2870.3287,space,2.9527,,2870.3287,34,16,2871.3284,2871.3284,2871.3513,,,,0,29,29,29,1,35,85,,,,,,,,
,,6124ce846b7b3c7bab41bbb5,65af54bb8ebdf7e17d6d572b,2024-01-23_07h56.51.824,bars,2023.2.3,Win32,60.01680471,657b66ea316d21385b68909f,,,,,,,,,,,2871.3516,2872.3451,,,2872.8452,2873.095,,122,122,,,,,,,,,,,,,,,,bars/042.png,bars/mask000.png,,,,,,,,,,,,0,1,,,,,,,0,10,0,10,,,,,,,,,,,2872.3452,2872.8451,2873.0951,2875.4786,space,2.3699,,2875.4786,23,47,2876.4784,2876.4784,2876.5003,,,,0,30,30,30,1,145,75,,,,,,,,
,,6124ce846b7b3c7bab41bbb5,65af54bb8ebdf7e17d6d572b,2024-01-23_07h56.51.824,bars,2023.2.3,Win32,60.01680471,657b66ea316d21385b68909f,,,,,,,,,,,2876.5005,2877.4952,,,2877.9956,2878.2445,,124,124,,,,,,,,,,,,,,,,bars/029.png,bars/mask006.png,,,,,,,,,,,,0,1,,,,,,,0,10,0,9,,,,,,,,,,,2877.4952,2877.9956,2878.2445,2880.5786,space,2.325,,2880.5787,34,79,2881.5782,2881.5784,2881.5977,,,,0,31,31,31,1,90,45,,,,,,,,
,,6124ce846b7b3c7bab41bbb5,65af54bb8ebdf7e17d6d572b,2024-01-23_07h56.51.824,bars,2023.2.3,Win32,60.01680471,657b66ea316d21385b68909f,,,,,,,,,,,2881.598,2882.5944,,,2883.0947,2883.3452,,130,130,,,,,,,,,,,,,,,,bars/031.png,bars/mask001.png,,,,,,,,,,,,0,1,,,,,,,0,8,0,8,,,,,,,,,,,2882.5945,2883.0947,2883.3452,2885.928,space,2.5669,,2885.928,10,85,2886.9278,2886.9278,2886.935,,,,0,32,32,32,1,120,35,,,,,,,,
,,6124ce846b7b3c7bab41bbb5,65af54bb8ebdf7e17d6d572b,2024-01-23_07h56.51.824,bars,2023.2.3,Win32,60.01680471,657b66ea316d21385b68909f,,,,,,,,,,,2886.9351,2887.9278,,,2888.4286,2888.6778,,73,73,,,,,,,,,,,,,,,,bars/030.png,bars/mask004.png,,,,,,,,,,,,4,2,,,,,,,0,6,0,6,,,,,,,,,,,2887.9278,2888.4286,2888.6778,2891.2779,space,2.5948,,2891.2779,67,8,2892.2785,2892.2785,2892.3003,,,,0,33,33,33,1,140,65,,,,,,,,
,,6124ce846b7b3c7bab41bbb5,65af54bb8ebdf7e17d6d572b,2024-01-23_07h56.51.824,bars,2023.2.3,Win32,60.01680471,657b66ea316d21385b68909f,,,,,,,,,,,2892.3005,2893.2949,,,2893.7949,2894.0445,,89,89,,,,,,,,,,,,,,,,bars/047.png,bars/mask002.png,,,,,,,,,,,,1,2,,,,,,,0,4,0,3,,,,,,,,,,,2893.2949,2893.7949,2894.0445,2896.7951,space,2.7356,,2896.7951,74,19,2897.7948,2897.7948,2897.8035,,,,0,34,34,34,1,15,70,,,,,,,,
,,6124ce846b7b3c7bab41bbb5,65af54bb8ebdf7e17d6d572b,2024-01-23_07h56.51.824,bars,2023.2.3,Win32,60.01680471,657b66ea316d21385b68909f,,,,,,,,,,,2897.8036,2898.7947,,,2899.2944,2899.5451,,78,78,,,,,,,,,,,,,,,,bars/007.png,bars/mask002.png,,,,,,,,,,,,0,2,,,,,,,2,2,4,1,,,,,,,,,,,2898.7948,2899.2944,2899.5452,2901.5445,space,1.9833,,2901.5445,83,23,2902.5452,2902.5452,2902.5464,,,,0,35,35,35,1,175,55,,,,,,,,
,,6124ce846b7b3c7bab41bbb5,65af54bb8ebdf7e17d6d572b,2024-01-23_07h56.51.824,bars,2023.2.3,Win32,60.01680471,657b66ea316d21385b68909f,,,,,,,,,,,2902.5469,2903.5446,,,2904.0329,2904.2779,,61,61,,,,,,,,,,,,,,,,bars/025.png,bars/mask001.png,,,,,,,,,,,,0,2,,,,,,,0,0,2,0,,,,,,,,,,,2903.5446,2904.0329,2904.2779,2906.5279,space,2.2428,,2906.5279,44,21,2907.5279,2907.5279,2907.5349,,,,0,36,36,36,1,105,40,,,,,,,,
,,6124ce846b7b3c7bab41bbb5,65af54bb8ebdf7e17d6d572b,2024-01-23_07h56.51.824,bars,2023.2.3,Win32,60.01680471,657b66ea316d21385b68909f,,,,,,,,,,,2907.5349,2908.5278,,,2909.0278,2909.2784,,22,22,,,,,,,,,,,,,,,,bars/026.png,bars/mask000.png,,,,,,,,,,,,0,1,,,,,,,0,2,0,1,,,,,,,,,,,2908.5278,2909.0278,2909.2784,2910.8786,space,1.5844,,2910.8787,13,63,2911.8784,2911.8784,2911.9075,,,,0,37,37,37,1,35,85,,,,,,,,
,,6124ce846b7b3c7bab41bbb5,65af54bb8ebdf7e17d6d572b,2024-01-23_07h56.51.824,bars,2023.2.3,Win32,60.01680471,657b66ea316d21385b68909f,,,,,,,,,,,2911.9078,2912.9118,,,2913.4115,2913.6615,,73,73,,,,,,,,,,,,,,,,bars/041.png,bars/mask009.png,,,,,,,,,,,,1,2,,,,,,,2,4,3,2,,,,,,,,,,,2912.9118,2913.4114,2913.6615,2916.1788,space,2.5086,,2916.1788,53,12,2917.1783,2917.1784,2917.1811,,,,0,38,38,38,1,20,85,,,,,,,,
,,6124ce846b7b3c7bab41bbb5,65af54bb8ebdf7e17d6d572b,2024-01-23_07h56.51.824,bars,2023.2.3,Win32,60.01680471,657b66ea316d21385b68909f,,,,,,,,,,,2917.1818,2918.1783,,,2918.678,2918.9279,,121,121,,,,,,,,,,,,,,,,bars/037.png,bars/mask000.png,,,,,,,,,,,,0,2,,,,,,,4,2,3,1,,,,,,,,,,,2918.1784,2918.6779,2918.9279,2921.0451,space,2.1065,,2921.0452,29,16,2922.0446,2922.0446,2922.0527,,,,0,39,39,39,1,150,105,,,,,,,,
,,6124ce846b7b3c7bab41bbb5,65af54bb8ebdf7e17d6d572b,2024-01-23_07h56.51.824,bars,2023.2.3,Win32,60.01680471,657b66ea316d21385b68909f,,,,,,,,,,,2922.0529,2923.0446,,,2923.5452,2923.7953,,80,80,,,,,,,,,,,,,,,,bars/005.png,bars/mask004.png,,,,,,,,,,,,0,2,,,,,,,6,0,5,0,,,,,,,,,,,2923.0446,2923.5451,2923.7954,2926.0283,space,2.2158,,2926.0283,70,60,2927.0279,2927.0279,2927.0283,,,,0,40,40,40,1,10,140,,,,,,,,
,,6124ce846b7b3c7bab41bbb5,65af54bb8ebdf7e17d6d572b,2024-01-23_07h56.51.824,bars,2023.2.3,Win32,60.01680471,657b66ea316d21385b68909f,,,,,,,,,,,2927.0285,2928.0279,,,2928.5287,2928.7779,,74,74,,,,,,,,,,,,,,,,bars/040.png,bars/mask009.png,,,,,,,,,,,,0,1,,,,,,,8,2,10,3,,,,,,,,,,,2928.0279,2928.5286,2928.7779,2931.5446,space,2.7521,,2931.5446,66,69,2932.545,2932.5451,2932.5708,,,,0,41,41,41,1,140,5,,,,,,,,
,,6124ce846b7b3c7bab41bbb5,65af54bb8ebdf7e17d6d572b,2024-01-23_07h56.51.824,bars,2023.2.3,Win32,60.01680471,657b66ea316d21385b68909f,,,,,,,,,,,2932.571,2933.5618,,,2934.0616,2934.3118,,46,46,,,,,,,,,,,,,,,,bars/045.png,bars/mask005.png,,,,,,,,,,,,0,2,,,,,,,6,4,7,4,,,,,,,,,,,2933.5619,2934.0616,2934.3118,2937.8612,space,3.5361,,2937.8612,54,36,2938.8612,2938.8612,2938.8715,,,,0,42,42,42,1,100,10,,,,,,,,
,,6124ce846b7b3c7bab41bbb5,65af54bb8ebdf7e17d6d572b,2024-01-23_07h56.51.824,bars,2023.2.3,Win32,60.01680471,657b66ea316d21385b68909f,,,,,,,,,,,2938.8716,2939.8612,,,2940.3612,2940.6111,,60,60,,,,,,,,,,,,,,,,bars/028.png,bars/mask008.png,,,,,,,,,,,,2,1,,,,,,,4,6,4,6,,,,,,,,,,,2939.8612,2940.3612,2940.6111,2943.2446,space,2.6175,,2943.2446,15,60,2944.2445,2944.2445,2944.2516,,,,0,43,43,43,1,45,120,,,,,,,,
,,6124ce846b7b3c7bab41bbb5,65af54bb8ebdf7e17d6d572b,2024-01-23_07h56.51.824,bars,2023.2.3,Win32,60.01680471,657b66ea316d21385b68909f,,,,,,,,,,,2944.2517,2945.2445,,,2945.7445,2945.9945,,46,226,,,,,,,,,,,,,,,,bars/023.png,bars/mask002.png,,,,,,,,,,,,1,1,,,,,,,6,8,5,9,,,,,,,,,,,2945.2445,2945.7445,2945.9945,2949.4945,space,3.486,,2949.4946,26,69,2950.4945,2950.4945,2950.5014,,,,0,44,44,44,1,20,115,,,,,,,,
,,6124ce846b7b3c7bab41bbb5,65af54bb8ebdf7e17d6d572b,2024-01-23_07h56.51.824,bars,2023.2.3,Win32,60.01680471,657b66ea316d21385b68909f,,,,,,,,,,,2950.5016,2951.4944,,,2951.9945,2952.2444,,21,201,,,,,,,,,,,,,,,,bars/032.png,bars/mask006.png,,,,,,,,,,,,10,2,,,,,,,8,10,7,10,,,,,,,,,,,2951.4945,2951.9944,2952.2444,2955.4111,space,3.1562,,2955.4112,76,1,2956.4112,2956.4112,2956.4201,,,,0,45,45,45,1,125,20,,,,,,,,
,,6124ce846b7b3c7bab41bbb5,65af54bb8ebdf7e17d6d572b,2024-01-23_07h56.51.824,bars,2023.2.3,Win32,60.01680471,657b66ea316d21385b68909f,,,,,,,,,,,2956.4202,2957.4112,,,2957.9111,2958.1611,,40,40,,,,,,,,,,,,,,,,bars/015.png,bars/mask009.png,,,,,,,,,,,,0,2,,,,,,,6,8,5,9,,,,,,,,,,,2957.4112,2957.9111,2958.1611,2960.5111,space,2.3434,,2960.5112,70,60,2961.5112,2961.5112,2961.5181,,,,0,46,46,46,1,110,160,,,,,,,,
,,6124ce846b7b3c7bab41bbb5,65af54bb8ebdf7e17d6d572b,2024-01-23_07h56.51.824,bars,2023.2.3,Win32,60.01680471,657b66ea316d21385b68909f,,,,,,,,,,,2961.5181,2962.5111,,,2963.0112,2963.2611,,172,172,,,,,,,,,,,,,,,,bars/029.png,bars/mask008.png,,,,,,,,,,,,0,2,,,,,,,4,6,3,7,,,,,,,,,,,2962.5111,2963.0112,2963.2611,2976.6113,space,13.3395,,2976.6113,82,53,2977.6111,2977.6112,2977.6183,,,,0,47,47,47,1,90,45,,,,,,,,
,,6124ce846b7b3c7bab41bbb5,65af54bb8ebdf7e17d6d572b,2024-01-23_07h56.51.824,bars,2023.2.3,Win32,60.01680471,657b66ea316d21385b68909f,,,,,,,,,,,2977.6184,2978.6111,,,2979.1112,2979.3612,,13,193,,,,,,,,,,,,,,,,bars/027.png,bars/mask001.png,,,,,,,,,,,,0,2,,,,,,,6,8,3,8,,,,,,,,,,,2978.6111,2979.1112,2979.3612,2987.8954,space,8.5203,,2987.8955,83,37,2988.895,2988.895,2988.9146,,,,0,48,48,48,1,110,50,,,,,,,,
,,6124ce846b7b3c7bab41bbb5,65af54bb8ebdf7e17d6d572b,2024-01-23_07h56.51.824,bars,2023.2.3,Win32,60.01680471,657b66ea316d21385b68909f,,,,,,,,,,,2988.9148,2989.9116,,,2990.4119,2990.6614,,37,37,,,,,,,,,,,,,,,,bars/029.png,bars/mask006.png,,,,,,,,,,,,7,2,,,,,,,4,10,4,10,,,,,,,,,,,2989.9118,2990.4118,2990.6614,2992.6621,space,1.9881,,2992.6621,53,8,2993.6618,2993.6618,2993.6807,,,,0,49,49,49,1,90,45,,,,,,,,
,,6124ce846b7b3c7bab41bbb5,65af54bb8ebdf7e17d6d572b,2024-01-23_07h56.51.824,bars,2023.2.3,Win32,60.01680471,657b66ea316d21385b68909f,,,,,,,,,,,,,,,,,,,,,,,,,,,,,,,,,,,,,,,,,,,,,,,,,,,,,,,,,,,,,,,,,,,,,,,,,,,,,,,,,,,,,,,,,,,,,2993.6809,3053.6783,0,3,3,3,1,sequence_tables/blk010.csv
,,6124ce846b7b3c7bab41bbb5,65af54bb8ebdf7e17d6d572b,2024-01-23_07h56.51.824,bars,2023.2.3,Win32,60.01680471,657b66ea316d21385b68909f,,,,,,,,,,,3122.9384,3123.9287,,,3124.4122,3124.6617,,98,98,,,,,,,,,,,,,,,,bars/024.png,bars/mask003.png,,,,,,,,,,,,1,1,,,,,,,1,3,2,3,,,,,,3053.6909,3122.912,space,69.2117,,3123.9287,3124.4122,3124.6617,3127.7287,space,3.0595,,3127.7288,22,72,3128.7279,3128.7279,3128.7353,,,,0,0,0,0,1,120,170,,,,,,,,
,,6124ce846b7b3c7bab41bbb5,65af54bb8ebdf7e17d6d572b,2024-01-23_07h56.51.824,bars,2023.2.3,Win32,60.01680471,657b66ea316d21385b68909f,,,,,,,,,,,3128.7354,3129.7284,,,3130.2281,3130.4784,,58,58,,,,,,,,,,,,,,,,bars/047.png,bars/mask000.png,,,,,,,,,,,,4,2,,,,,,,3,5,4,6,,,,,,,,,,,3129.7284,3130.2281,3130.4785,3132.9452,space,2.4589,,3132.9453,43,12,3133.9447,3133.9447,3133.9543,,,,0,1,1,1,1,15,70,,,,,,,,
,,6124ce846b7b3c7bab41bbb5,65af54bb8ebdf7e17d6d572b,2024-01-23_07h56.51.824,bars,2023.2.3,Win32,60.01680471,657b66ea316d21385b68909f,,,,,,,,,,,3133.9545,3134.9453,,,3135.4452,3135.6954,,21,201,,,,,,,,,,,,,,,,bars/046.png,bars/mask000.png,,,,,,,,,,,,0,1,,,,,,,1,3,2,3,,,,,,,,,,,3134.9453,3135.4452,3135.6954,3143.5506,space,7.8496,,3143.5506,46,64,3144.5452,3144.5452,3144.5645,,,,0,2,2,2,1,155,85,,,,,,,,
,,6124ce846b7b3c7bab41bbb5,65af54bb8ebdf7e17d6d572b,2024-01-23_07h56.51.824,bars,2023.2.3,Win32,60.01680471,657b66ea316d21385b68909f,,,,,,,,,,,3144.5647,3145.5616,,,3146.062,3146.3115,,101,101,,,,,,,,,,,,,,,,bars/032.png,bars/mask001.png,,,,,,,,,,,,0,1,,,,,,,0,1,1,1,,,,,,,,,,,3145.5616,3146.0619,3146.3115,3147.995,space,1.6673,,3147.9951,24,81,3148.9953,3148.9953,3149.0142,,,,0,3,3,3,1,125,20,,,,,,,,
,,6124ce846b7b3c7bab41bbb5,65af54bb8ebdf7e17d6d572b,2024-01-23_07h56.51.824,bars,2023.2.3,Win32,60.01680471,657b66ea316d21385b68909f,,,,,,,,,,,3149.0144,3150.0117,,,3150.5115,3150.7613,,37,217,,,,,,,,,,,,,,,,bars/007.png,bars/mask002.png,,,,,,,,,,,,1,2,,,,,,,2,3,1,3,,,,,,,,,,,3150.0117,3150.5114,3150.7614,3152.4953,space,1.7184,,3152.4953,42,18,3153.4947,3153.4948,3153.5114,,,,0,4,4,4,1,175,55,,,,,,,,
,,6124ce846b7b3c7bab41bbb5,65af54bb8ebdf7e17d6d572b,2024-01-23_07h56.51.824,bars,2023.2.3,Win32,60.01680471,657b66ea316d21385b68909f,,,,,,,,,,,3153.5116,3154.5118,,,3155.0116,3155.2619,,130,130,,,,,,,,,,,,,,,,bars/001.png,bars/mask001.png,,,,,,,,,,,,3,1,,,,,,,4,1,3,1,,,,,,,,,,,3154.5118,3155.0115,3155.262,3156.2287,space,0.9551,,3156.2288,0,45,3157.2286,3157.2286,3157.2403,,,,0,5,5,5,1,130,85,,,,,,,,
,,6124ce846b7b3c7bab41bbb5,65af54bb8ebdf7e17d6d572b,2024-01-23_07h56.51.824,bars,2023.2.3,Win32,60.01680471,657b66ea316d21385b68909f,,,,,,,,,,,3157.2408,3158.2285,,,3158.7286,3158.978,,142,142,,,,,,,,,,,,,,,,bars/038.png,bars/mask004.png,,,,,,,,,,,,1,1,,,,,,,6,3,5,2,,,,,,,,,,,3158.2285,3158.7286,3158.978,3160.3122,space,1.3194,,3160.3124,23,72,3161.3118,3161.3119,3161.313,,,,0,6,6,6,1,165,70,,,,,,,,
,,6124ce846b7b3c7bab41bbb5,65af54bb8ebdf7e17d6d572b,2024-01-23_07h56.51.824,bars,2023.2.3,Win32,60.01680471,657b66ea316d21385b68909f,,,,,,,,,,,3161.3135,3162.3119,,,3162.8117,3163.0623,,66,66,,,,,,,,,,,,,,,,bars/048.png,bars/mask007.png,,,,,,,,,,,,2,1,,,,,,,4,5,5,4,,,,,,,,,,,3162.312,3162.8116,3163.0623,3164.3956,space,1.3167,,3164.3956,16,71,3165.3953,3165.3954,3165.3966,,,,0,7,7,7,1,50,175,,,,,,,,
,,6124ce846b7b3c7bab41bbb5,65af54bb8ebdf7e17d6d572b,2024-01-23_07h56.51.824,bars,2023.2.3,Win32,60.01680471,657b66ea316d21385b68909f,,,,,,,,,,,3165.3971,3166.3952,,,3166.8952,3167.1452,,63,63,,,,,,,,,,,,,,,,bars/031.png,bars/mask004.png,,,,,,,,,,,,1,2,,,,,,,6,7,7,8,,,,,,,,,,,3166.3952,3166.8952,3167.1452,3168.0622,space,0.9116,,3168.0623,57,28,3169.0613,3169.0613,3169.0637,,,,0,8,8,8,1,120,35,,,,,,,,
,,6124ce846b7b3c7bab41bbb5,65af54bb8ebdf7e17d6d572b,2024-01-23_07h56.51.824,bars,2023.2.3,Win32,60.01680471,657b66ea316d21385b68909f,,,,,,,,,,,3169.0638,3170.062,,,3170.5614,3170.812,,174,174,,,,,,,,,,,,,,,,bars/026.png,bars/mask003.png,,,,,,,,,,,,0,1,,,,,,,4,9,5,8,,,,,,,,,,,3170.062,3170.5614,3170.812,3171.795,space,0.9723,,3171.795,41,89,3172.7947,3172.7947,3172.8018,,,,0,9,9,9,1,35,85,,,,,,,,
,,6124ce846b7b3c7bab41bbb5,65af54bb8ebdf7e17d6d572b,2024-01-23_07h56.51.824,bars,2023.2.3,Win32,60.01680471,657b66ea316d21385b68909f,,,,,,,,,,,3172.802,3173.7949,,,3174.2953,3174.545,,130,130,,,,,,,,,,,,,,,,bars/042.png,bars/mask006.png,,,,,,,,,,,,3,1,,,,,,,6,10,6,10,,,,,,,,,,,3173.795,3174.2952,3174.5451,3176.078,space,1.5276,,3176.078,15,55,3177.0788,3177.0788,3177.0991,,,,0,10,10,10,1,145,75,,,,,,,,
