init_variables.started,init_variables.stopped,participant,session,date,expName,psychopyVersion,OS,frameRate,study_id,instruction_exp.started,instruction_exp.stopped,key_resp_8.keys,key_resp_8.rt,key_resp_8.duration,instruction_single.started,instruction_single.stopped,key_resp_2.keys,key_resp_2.rt,key_resp_2.duration,interval.started,interval.stopped,cue_single.started,cue_single.stopped,mask.started,mask.stopped,ori_response_single.started,res_ori,res,ori_response_single.stopped,key_resp_single.keys,key_resp_single.rt,key_resp_single.duration,disp_single.started,disp_single.stopped,key_resp.keys,key_resp.rt,key_resp.duration,single.thisRepN,single.thisTrialN,single.thisN,single.thisIndex,single.ran,ori,path,mask_path,instruction_bandit.started,instruction_bandit.stopped,key_resp_6.keys,key_resp_6.rt,key_resp_6.duration,cue_bandit.started,cue_bandit.stopped,bandit_res.keys,bandit_res.rt,bandit_res.duration,outcome_bandit.started,rew,action,outcome_bandit.stopped,bandit.thisRepN,bandit.thisTrialN,bandit.thisN,bandit.thisIndex,bandit.ran,actual_rew1,actual_rew2,rew1,rew2,instruction_task.started,instruction_task.stopped,key_resp_7.keys,key_resp_7.rt,key_resp_7.duration,wait_ready.started,wait_ready.stopped,key_resp_3.keys,key_resp_3.rt,key_resp_3.duration,cue.started,cue.stopped,ori_response.started,ori_response.stopped,key_resp_5.keys,key_resp_5.rt,key_resp_5.duration,outcome.started,diff1,diff2,outcome.stopped,disp_outcome_practice.started,disp_outcome_practice.stopped,key_resp_4.keys,key_resp_4.rt,key_resp_4.duration,trials.thisRepN,trials.thisTrialN,trials.thisN,trials.thisIndex,trials.ran,ori1,ori2,break_blk.started,break_blk.stopped,block.thisRepN,block.thisTrialN,block.thisN,block.thisIndex,block.ran,condition_file
0.0002,0.0002,65ae78fc9cd81e8e26612cb2,65af5e862cf40634cd5d71c7,2024-01-23_07h41.46.030,bars,2023.2.3,Win32,142.8571429,657b66ea316d21385b68909f,,,,,,,,,,,,,,,,,,,,,,,,,,,,,,,,,,,,,,,,,,,,,,,,,,,,,,,,,,,,,,,,,,,,,,,,,,,,,,,,,,,,,,,,,,,,,,,,,,,,
,,65ae78fc9cd81e8e26612cb2,65af5e862cf40634cd5d71c7,2024-01-23_07h41.46.030,bars,2023.2.3,Win32,142.8571429,657b66ea316d21385b68909f,0.0004,35.595,y,35.584,,,,,,,,,,,,,,,,,,,,,,,,,,,,,,,,,,,,,,,,,,,,,,,,,,,,,,,,,,,,,,,,,,,,,,,,,,,,,,,,,,,,,,,,,,,,,,,,
,,65ae78fc9cd81e8e26612cb2,65af5e862cf40634cd5d71c7,2024-01-23_07h41.46.030,bars,2023.2.3,Win32,142.8571429,657b66ea316d21385b68909f,,,,,,35.5951,54.2628,space,18.6569,,,,,,,,,,,,,,,,,,,,,,,,,,,,,,,,,,,,,,,,,,,,,,,,,,,,,,,,,,,,,,,,,,,,,,,,,,,,,,,,,,,,,,,,,,,
,,65ae78fc9cd81e8e26612cb2,65af5e862cf40634cd5d71c7,2024-01-23_07h41.46.030,bars,2023.2.3,Win32,142.8571429,657b66ea316d21385b68909f,,,,,,,,,,,54.2705,55.2695,55.2696,55.7696,55.7696,56.0196,56.0196,0,0,61.784,space,5.7472,,61.7841,69.1039,space,7.3055,,0,0,0,1,1,20,bars/single001.png,bars/mask006.png,,,,,,,,,,,,,,,,,,,,,,,,,,,,,,,,,,,,,,,,,,,,,,,,,,,,,,,,,,,,,,,,
,,65ae78fc9cd81e8e26612cb2,65af5e862cf40634cd5d71c7,2024-01-23_07h41.46.030,bars,2023.2.3,Win32,142.8571429,657b66ea316d21385b68909f,,,,,,,,,,,69.109,70.1055,70.1055,70.6036,70.6036,70.8537,70.8537,22,202,76.1179,space,5.2598,,76.1179,85.9448,space,9.8139,,0,1,1,2,1,145,bars/single002.png,bars/mask003.png,,,,,,,,,,,,,,,,,,,,,,,,,,,,,,,,,,,,,,,,,,,,,,,,,,,,,,,,,,,,,,,,
,,65ae78fc9cd81e8e26612cb2,65af5e862cf40634cd5d71c7,2024-01-23_07h41.46.030,bars,2023.2.3,Win32,142.8571429,657b66ea316d21385b68909f,,,,,,,,,,,85.9499,86.9517,86.9517,87.4448,87.4448,87.6948,87.6948,20,200,90.4728,space,2.7706,,90.4728,93.6466,space,3.1625,,0,2,2,3,1,20,bars/single003.png,bars/mask005.png,,,,,,,,,,,,,,,,,,,,,,,,,,,,,,,,,,,,,,,,,,,,,,,,,,,,,,,,,,,,,,,,
,,65ae78fc9cd81e8e26612cb2,65af5e862cf40634cd5d71c7,2024-01-23_07h41.46.030,bars,2023.2.3,Win32,142.8571429,657b66ea316d21385b68909f,,,,,,,,,,,93.6467,94.6466,94.6466,95.1466,95.1466,95.3966,95.3966,168,168,99.7928,space,4.3889,,99.7928,102.7304,space,2.9238,,0,3,3,6,1,175,bars/single006.png,bars/mask005.png,,,,,,,,,,,,,,,,,,,,,,,,,,,,,,,,,,,,,,,,,,,,,,,,,,,,,,,,,,,,,,,,
,,65ae78fc9cd81e8e26612cb2,65af5e862cf40634cd5d71c7,2024-01-23_07h41.46.030,bars,2023.2.3,Win32,142.8571429,657b66ea316d21385b68909f,,,,,,,,,,,102.7352,103.7304,103.7305,104.2306,104.2306,104.4804,104.4804,171,171,109.6544,space,5.169,,109.6544,111.5018,space,1.8369,,0,4,4,0,1,150,bars/single000.png,bars/mask006.png,,,,,,,,,,,,,,,,,,,,,,,,,,,,,,,,,,,,,,,,,,,,,,,,,,,,,,,,,,,,,,,,
,,65ae78fc9cd81e8e26612cb2,65af5e862cf40634cd5d71c7,2024-01-23_07h41.46.030,bars,2023.2.3,Win32,142.8571429,657b66ea316d21385b68909f,,,,,,,,,,,111.502,112.5017,112.5017,113.0017,113.0018,113.2517,113.2517,51,51,116.5298,space,3.2701,,116.5298,118.7591,space,2.2182,,0,5,5,5,1,55,bars/single005.png,bars/mask008.png,,,,,,,,,,,,,,,,,,,,,,,,,,,,,,,,,,,,,,,,,,,,,,,,,,,,,,,,,,,,,,,,
,,65ae78fc9cd81e8e26612cb2,65af5e862cf40634cd5d71c7,2024-01-23_07h41.46.030,bars,2023.2.3,Win32,142.8571429,657b66ea316d21385b68909f,,,,,,,,,,,118.7592,119.759,119.759,120.2592,120.2592,120.5091,120.5091,48,48,122.7871,space,2.27,,122.7871,124.0232,space,1.2301,,0,6,6,7,1,45,bars/single007.png,bars/mask009.png,,,,,,,,,,,,,,,,,,,,,,,,,,,,,,,,,,,,,,,,,,,,,,,,,,,,,,,,,,,,,,,,
,,65ae78fc9cd81e8e26612cb2,65af5e862cf40634cd5d71c7,2024-01-23_07h41.46.030,bars,2023.2.3,Win32,142.8571429,657b66ea316d21385b68909f,,,,,,,,,,,124.0234,125.0232,125.0232,125.5233,125.5233,125.7733,125.7733,3,3,127.9054,space,2.1242,,127.9054,130.1208,space,2.2075,,0,7,7,9,1,20,bars/single009.png,bars/mask006.png,,,,,,,,,,,,,,,,,,,,,,,,,,,,,,,,,,,,,,,,,,,,,,,,,,,,,,,,,,,,,,,,
,,65ae78fc9cd81e8e26612cb2,65af5e862cf40634cd5d71c7,2024-01-23_07h41.46.030,bars,2023.2.3,Win32,142.8571429,657b66ea316d21385b68909f,,,,,,,,,,,130.1259,131.1277,131.1277,131.6208,131.6208,131.8708,131.8709,170,170,134.4127,space,2.5387,,134.4127,135.4892,space,1.0628,,0,8,8,8,1,160,bars/single008.png,bars/mask004.png,,,,,,,,,,,,,,,,,,,,,,,,,,,,,,,,,,,,,,,,,,,,,,,,,,,,,,,,,,,,,,,,
,,65ae78fc9cd81e8e26612cb2,65af5e862cf40634cd5d71c7,2024-01-23_07h41.46.030,bars,2023.2.3,Win32,142.8571429,657b66ea316d21385b68909f,,,,,,,,,,,135.4893,136.4892,136.4892,136.9892,136.9892,137.2392,137.2392,91,91,139.9755,space,2.7302,,139.9755,140.9965,space,1.0118,,0,9,9,4,1,95,bars/single004.png,bars/mask004.png,,,,,,,,,,,,,,,,,,,,,,,,,,,,,,,,,,,,,,,,,,,,,,,,,,,,,,,,,,,,,,,,
,,65ae78fc9cd81e8e26612cb2,65af5e862cf40634cd5d71c7,2024-01-23_07h41.46.030,bars,2023.2.3,Win32,142.8571429,657b66ea316d21385b68909f,,,,,,,,,,,,,,,,,,,,,,,,,,,,,,,,,,,,,140.9969,165.3105,space,24.3065,,,,,,,,,,,,,,,,,,,,,,,,,,,,,,,,,,,,,,,,,,,,,,,,,,,,,,,,,,,,
,,65ae78fc9cd81e8e26612cb2,65af5e862cf40634cd5d71c7,2024-01-23_07h41.46.030,bars,2023.2.3,Win32,142.8571429,657b66ea316d21385b68909f,,,,,,,,,,,,,,,,,,,,,,,,,,,,,,,,,,,,,,,,,,165.3175,168.2411,right,2.9118,,168.2411,2,2,169.241,0,0,0,0,1,9,1,9,2,,,,,,,,,,,,,,,,,,,,,,,,,,,,,,,,,,,,,,,,,
,,65ae78fc9cd81e8e26612cb2,65af5e862cf40634cd5d71c7,2024-01-23_07h41.46.030,bars,2023.2.3,Win32,142.8571429,657b66ea316d21385b68909f,,,,,,,,,,,,,,,,,,,,,,,,,,,,,,,,,,,,,,,,,,169.2412,170.2965,left,1.0487,,170.2967,10,1,171.2966,0,1,1,1,1,10,0,10,1,,,,,,,,,,,,,,,,,,,,,,,,,,,,,,,,,,,,,,,,,
,,65ae78fc9cd81e8e26612cb2,65af5e862cf40634cd5d71c7,2024-01-23_07h41.46.030,bars,2023.2.3,Win32,142.8571429,657b66ea316d21385b68909f,,,,,,,,,,,,,,,,,,,,,,,,,,,,,,,,,,,,,,,,,,171.2968,171.9286,left,0.6248,,171.9287,10,1,172.9286,0,2,2,2,1,10,2,10,2,,,,,,,,,,,,,,,,,,,,,,,,,,,,,,,,,,,,,,,,,
,,65ae78fc9cd81e8e26612cb2,65af5e862cf40634cd5d71c7,2024-01-23_07h41.46.030,bars,2023.2.3,Win32,142.8571429,657b66ea316d21385b68909f,,,,,,,,,,,,,,,,,,,,,,,,,,,,,,,,,,,,,,,,,,172.9288,173.5051,left,0.5689,,173.5051,7,1,174.5051,0,3,3,3,1,8,4,7,3,,,,,,,,,,,,,,,,,,,,,,,,,,,,,,,,,,,,,,,,,
,,65ae78fc9cd81e8e26612cb2,65af5e862cf40634cd5d71c7,2024-01-23_07h41.46.030,bars,2023.2.3,Win32,142.8571429,657b66ea316d21385b68909f,,,,,,,,,,,,,,,,,,,,,,,,,,,,,,,,,,,,,,,,,,174.5053,174.9774,left,0.4644,,174.9774,5,1,175.9773,0,4,4,4,1,6,2,5,1,,,,,,,,,,,,,,,,,,,,,,,,,,,,,,,,,,,,,,,,,
,,65ae78fc9cd81e8e26612cb2,65af5e862cf40634cd5d71c7,2024-01-23_07h41.46.030,bars,2023.2.3,Win32,142.8571429,657b66ea316d21385b68909f,,,,,,,,,,,,,,,,,,,,,,,,,,,,,,,,,,,,,,,,,,175.9776,176.2692,right,0.2882,,176.2692,4,2,177.2691,0,5,5,5,1,4,4,4,4,,,,,,,,,,,,,,,,,,,,,,,,,,,,,,,,,,,,,,,,,
,,65ae78fc9cd81e8e26612cb2,65af5e862cf40634cd5d71c7,2024-01-23_07h41.46.030,bars,2023.2.3,Win32,142.8571429,657b66ea316d21385b68909f,,,,,,,,,,,,,,,,,,,,,,,,,,,,,,,,,,,,,,,,,,177.2693,177.679,left,0.4042,,177.679,1,1,178.679,0,6,6,6,1,2,2,1,2,,,,,,,,,,,,,,,,,,,,,,,,,,,,,,,,,,,,,,,,,
,,65ae78fc9cd81e8e26612cb2,65af5e862cf40634cd5d71c7,2024-01-23_07h41.46.030,bars,2023.2.3,Win32,142.8571429,657b66ea316d21385b68909f,,,,,,,,,,,,,,,,,,,,,,,,,,,,,,,,,,,,,,,,,,178.6791,179.1374,right,0.4507,,179.1374,1,2,180.1373,0,7,7,7,1,0,0,0,1,,,,,,,,,,,,,,,,,,,,,,,,,,,,,,,,,,,,,,,,,
,,65ae78fc9cd81e8e26612cb2,65af5e862cf40634cd5d71c7,2024-01-23_07h41.46.030,bars,2023.2.3,Win32,142.8571429,657b66ea316d21385b68909f,,,,,,,,,,,,,,,,,,,,,,,,,,,,,,,,,,,,,,,,,,180.1375,180.5818,right,0.44,,180.5819,0,2,181.5818,0,8,8,8,1,0,2,1,0,,,,,,,,,,,,,,,,,,,,,,,,,,,,,,,,,,,,,,,,,
,,65ae78fc9cd81e8e26612cb2,65af5e862cf40634cd5d71c7,2024-01-23_07h41.46.030,bars,2023.2.3,Win32,142.8571429,657b66ea316d21385b68909f,,,,,,,,,,,,,,,,,,,,,,,,,,,,,,,,,,,,,,,,,,181.5821,182.0472,left,0.4596,,182.0472,2,1,183.0472,0,9,9,9,1,2,4,2,3,,,,,,,,,,,,,,,,,,,,,,,,,,,,,,,,,,,,,,,,,
,,65ae78fc9cd81e8e26612cb2,65af5e862cf40634cd5d71c7,2024-01-23_07h41.46.030,bars,2023.2.3,Win32,142.8571429,657b66ea316d21385b68909f,,,,,,,,,,,,,,,,,,,,,,,,,,,,,,,,,,,,,,,,,,183.0474,183.464,left,0.4102,,183.464,0,1,184.4639,0,10,10,10,1,0,2,0,3,,,,,,,,,,,,,,,,,,,,,,,,,,,,,,,,,,,,,,,,,
,,65ae78fc9cd81e8e26612cb2,65af5e862cf40634cd5d71c7,2024-01-23_07h41.46.030,bars,2023.2.3,Win32,142.8571429,657b66ea316d21385b68909f,,,,,,,,,,,,,,,,,,,,,,,,,,,,,,,,,,,,,,,,,,184.4641,184.8737,right,0.4019,,184.8737,3,2,185.8745,0,11,11,11,1,0,4,0,3,,,,,,,,,,,,,,,,,,,,,,,,,,,,,,,,,,,,,,,,,
,,65ae78fc9cd81e8e26612cb2,65af5e862cf40634cd5d71c7,2024-01-23_07h41.46.030,bars,2023.2.3,Win32,142.8571429,657b66ea316d21385b68909f,,,,,,,,,,,,,,,,,,,,,,,,,,,,,,,,,,,,,,,,,,185.8747,186.1517,right,0.2712,,186.1517,6,2,187.1516,0,12,12,12,1,2,6,1,6,,,,,,,,,,,,,,,,,,,,,,,,,,,,,,,,,,,,,,,,,
,,65ae78fc9cd81e8e26612cb2,65af5e862cf40634cd5d71c7,2024-01-23_07h41.46.030,bars,2023.2.3,Win32,142.8571429,657b66ea316d21385b68909f,,,,,,,,,,,,,,,,,,,,,,,,,,,,,,,,,,,,,,,,,,187.1518,187.4573,right,0.2979,,187.4573,3,2,188.4572,0,13,13,13,1,0,4,1,3,,,,,,,,,,,,,,,,,,,,,,,,,,,,,,,,,,,,,,,,,
,,65ae78fc9cd81e8e26612cb2,65af5e862cf40634cd5d71c7,2024-01-23_07h41.46.030,bars,2023.2.3,Win32,142.8571429,657b66ea316d21385b68909f,,,,,,,,,,,,,,,,,,,,,,,,,,,,,,,,,,,,,,,,,,188.4574,188.7976,right,0.3363,,188.7976,7,2,189.7976,0,14,14,14,1,2,6,2,7,,,,,,,,,,,,,,,,,,,,,,,,,,,,,,,,,,,,,,,,,
,,65ae78fc9cd81e8e26612cb2,65af5e862cf40634cd5d71c7,2024-01-23_07h41.46.030,bars,2023.2.3,Win32,142.8571429,657b66ea316d21385b68909f,,,,,,,,,,,,,,,,,,,,,,,,,,,,,,,,,,,,,,,,,,189.7978,190.3324,right,0.5319,,190.3324,9,2,191.3324,0,15,15,15,1,4,8,3,9,,,,,,,,,,,,,,,,,,,,,,,,,,,,,,,,,,,,,,,,,
,,65ae78fc9cd81e8e26612cb2,65af5e862cf40634cd5d71c7,2024-01-23_07h41.46.030,bars,2023.2.3,Win32,142.8571429,657b66ea316d21385b68909f,,,,,,,,,,,,,,,,,,,,,,,,,,,,,,,,,,,,,,,,,,191.3325,191.777,right,0.437,,191.777,7,2,192.777,0,16,16,16,1,6,6,7,7,,,,,,,,,,,,,,,,,,,,,,,,,,,,,,,,,,,,,,,,,
,,65ae78fc9cd81e8e26612cb2,65af5e862cf40634cd5d71c7,2024-01-23_07h41.46.030,bars,2023.2.3,Win32,142.8571429,657b66ea316d21385b68909f,,,,,,,,,,,,,,,,,,,,,,,,,,,,,,,,,,,,,,,,,,192.7771,193.2562,right,0.4726,,193.2562,5,2,194.2562,0,17,17,17,1,8,4,9,5,,,,,,,,,,,,,,,,,,,,,,,,,,,,,,,,,,,,,,,,,
,,65ae78fc9cd81e8e26612cb2,65af5e862cf40634cd5d71c7,2024-01-23_07h41.46.030,bars,2023.2.3,Win32,142.8571429,657b66ea316d21385b68909f,,,,,,,,,,,,,,,,,,,,,,,,,,,,,,,,,,,,,,,,,,194.2563,195.1035,right,0.8414,,195.1035,1,2,196.1036,0,18,18,18,1,6,2,5,1,,,,,,,,,,,,,,,,,,,,,,,,,,,,,,,,,,,,,,,,,
,,65ae78fc9cd81e8e26612cb2,65af5e862cf40634cd5d71c7,2024-01-23_07h41.46.030,bars,2023.2.3,Win32,142.8571429,657b66ea316d21385b68909f,,,,,,,,,,,,,,,,,,,,,,,,,,,,,,,,,,,,,,,,,,196.1037,196.3605,left,0.2498,,196.3605,7,1,197.3605,0,19,19,19,1,8,0,7,0,,,,,,,,,,,,,,,,,,,,,,,,,,,,,,,,,,,,,,,,,
,,65ae78fc9cd81e8e26612cb2,65af5e862cf40634cd5d71c7,2024-01-23_07h41.46.030,bars,2023.2.3,Win32,142.8571429,657b66ea316d21385b68909f,,,,,,,,,,,,,,,,,,,,,,,,,,,,,,,,,,,,,,,,,,,,,,,,,,,,,,,,,,,,197.3608,219.7926,space,22.4235,,,,,,,,,,,,,,,,,,,,,,,,,,,,,,,,,,,,,
,,65ae78fc9cd81e8e26612cb2,65af5e862cf40634cd5d71c7,2024-01-23_07h41.46.030,bars,2023.2.3,Win32,142.8571429,657b66ea316d21385b68909f,,,,,,,,,,,221.4753,222.473,,,222.9731,223.223,,29,209,,,,,,,,,,,,,,,,bars/030.png,bars/mask007.png,,,,,,,,,,,,0,2,,,,,,,3,6,4,4,,,,,,219.7993,221.4731,space,1.6652,,222.4731,222.9731,223.2231,228.6055,space,5.3708,,228.6056,69,36,229.6054,229.6055,232.2585,space,2.6383,,0,0,0,0,1,140,65,,,,,,,,
,,65ae78fc9cd81e8e26612cb2,65af5e862cf40634cd5d71c7,2024-01-23_07h41.46.030,bars,2023.2.3,Win32,142.8571429,657b66ea316d21385b68909f,,,,,,,,,,,232.2634,233.2653,,,233.7653,234.0101,,40,40,,,,,,,,,,,,,,,,bars/034.png,bars/mask005.png,,,,,,,,,,,,0,2,,,,,,,1,4,1,2,,,,,,,,,,,233.2653,233.7653,234.0101,236.0471,space,2.0301,,236.0471,85,25,237.0432,237.0433,239.3006,space,2.2464,,0,1,1,1,1,125,65,,,,,,,,
,,65ae78fc9cd81e8e26612cb2,65af5e862cf40634cd5d71c7,2024-01-23_07h41.46.030,bars,2023.2.3,Win32,142.8571429,657b66ea316d21385b68909f,,,,,,,,,,,239.3008,240.3003,,,240.8004,241.0503,,35,215,,,,,,,,,,,,,,,,bars/039.png,bars/mask003.png,,,,,,,,,,,,0,1,,,,,,,0,2,0,3,,,,,,,,,,,240.3003,240.8004,241.0503,244.5645,space,3.5036,,244.5646,40,70,245.5645,245.5646,247.5995,space,2.0208,,0,2,2,2,1,175,105,,,,,,,,
,,65ae78fc9cd81e8e26612cb2,65af5e862cf40634cd5d71c7,2024-01-23_07h41.46.030,bars,2023.2.3,Win32,142.8571429,657b66ea316d21385b68909f,,,,,,,,,,,247.5997,248.5993,,,249.0994,249.346,,2,2,,,,,,,,,,,,,,,,bars/012.png,bars/mask001.png,,,,,,,,,,,,1,2,,,,,,,2,0,1,1,,,,,,,,,,,248.5994,249.0994,249.346,253.9471,space,4.5899,,253.9471,88,13,254.9469,254.9469,257.0166,space,2.0561,,0,3,3,3,1,90,15,,,,,,,,
,,65ae78fc9cd81e8e26612cb2,65af5e862cf40634cd5d71c7,2024-01-23_07h41.46.030,bars,2023.2.3,Win32,142.8571429,657b66ea316d21385b68909f,,,,,,,,,,,257.0167,258.0166,,,258.5166,258.7666,,69,69,,,,,,,,,,,,,,,,bars/048.png,bars/mask001.png,,,,,,,,,,,,0,1,,,,,,,0,0,0,1,,,,,,,,,,,258.0166,258.5166,258.7666,261.4612,space,2.6852,,261.4613,19,74,262.4612,262.4612,263.9336,space,1.4604,,0,4,4,4,1,50,175,,,,,,,,
,,65ae78fc9cd81e8e26612cb2,65af5e862cf40634cd5d71c7,2024-01-23_07h41.46.030,bars,2023.2.3,Win32,142.8571429,657b66ea316d21385b68909f,,,,,,,,,,,263.9337,264.9336,,,265.4337,265.6837,,107,107,,,,,,,,,,,,,,,,bars/037.png,bars/mask005.png,,,,,,,,,,,,0,2,,,,,,,0,0,0,0,,,,,,,,,,,264.9336,265.4337,265.6837,268.0172,space,2.3181,,268.0172,43,2,269.0172,269.0172,271.2187,space,2.1852,,0,5,5,5,1,150,105,,,,,,,,
,,65ae78fc9cd81e8e26612cb2,65af5e862cf40634cd5d71c7,2024-01-23_07h41.46.030,bars,2023.2.3,Win32,142.8571429,657b66ea316d21385b68909f,,,,,,,,,,,271.2189,272.2188,,,272.7188,272.9688,,165,165,,,,,,,,,,,,,,,,bars/020.png,bars/mask007.png,,,,,,,,,,,,3,2,,,,,,,0,2,2,3,,,,,,,,,,,272.2188,272.7187,272.9688,277.3194,space,4.3402,,277.3194,50,5,278.3163,278.3164,279.6012,space,1.2698,,0,6,6,6,1,115,170,,,,,,,,
,,65ae78fc9cd81e8e26612cb2,65af5e862cf40634cd5d71c7,2024-01-23_07h41.46.030,bars,2023.2.3,Win32,142.8571429,657b66ea316d21385b68909f,,,,,,,,,,,279.6013,280.6012,,,281.1012,281.3511,,152,152,,,,,,,,,,,,,,,,bars/010.png,bars/mask006.png,,,,,,,,,,,,1,1,,,,,,,2,0,1,0,,,,,,,,,,,280.6012,281.1011,281.3511,285.407,space,4.0427,,285.407,13,83,286.407,286.407,287.3029,space,0.8825,,0,7,7,7,1,165,55,,,,,,,,
,,65ae78fc9cd81e8e26612cb2,65af5e862cf40634cd5d71c7,2024-01-23_07h41.46.030,bars,2023.2.3,Win32,142.8571429,657b66ea316d21385b68909f,,,,,,,,,,,287.3031,288.303,,,288.803,289.053,,131,131,,,,,,,,,,,,,,,,bars/037.png,bars/mask000.png,,,,,,,,,,,,1,1,,,,,,,4,2,4,1,,,,,,,,,,,288.303,288.803,289.053,293.4005,space,4.3351,,293.4006,19,26,294.4005,294.4005,295.2965,space,0.8811,,0,8,8,8,1,150,105,,,,,,,,
,,65ae78fc9cd81e8e26612cb2,65af5e862cf40634cd5d71c7,2024-01-23_07h41.46.030,bars,2023.2.3,Win32,142.8571429,657b66ea316d21385b68909f,,,,,,,,,,,295.2967,296.2964,,,296.7965,297.0464,,66,66,,,,,,,,,,,,,,,,bars/034.png,bars/mask003.png,,,,,,,,,,,,0,2,,,,,,,2,0,2,0,,,,,,,,,,,296.2964,296.7965,297.0464,301.0884,space,4.0274,,301.0884,59,1,302.0884,302.0884,303.6163,space,1.513,,0,9,9,9,1,125,65,,,,,,,,
,,65ae78fc9cd81e8e26612cb2,65af5e862cf40634cd5d71c7,2024-01-23_07h41.46.030,bars,2023.2.3,Win32,142.8571429,657b66ea316d21385b68909f,,,,,,,,,,,303.6165,304.6163,,,305.1164,305.3664,,115,115,,,,,,,,,,,,,,,,bars/017.png,bars/mask008.png,,,,,,,,,,,,0,1,,,,,,,4,0,4,0,,,,,,,,,,,304.6163,305.1164,305.3664,307.1096,space,1.7314,,307.1096,30,70,308.1095,308.1095,309.2903,space,1.1665,,0,10,10,10,1,145,45,,,,,,,,
,,65ae78fc9cd81e8e26612cb2,65af5e862cf40634cd5d71c7,2024-01-23_07h41.46.030,bars,2023.2.3,Win32,142.8571429,657b66ea316d21385b68909f,,,,,,,,,,,309.2904,310.2902,,,310.7903,311.0403,,95,95,,,,,,,,,,,,,,,,bars/027.png,bars/mask008.png,,,,,,,,,,,,3,1,,,,,,,6,0,6,0,,,,,,,,,,,310.2903,310.7903,311.0403,313.6794,space,2.6257,,313.6795,15,45,314.6793,314.6794,315.4989,space,0.8049,,0,11,11,11,1,110,50,,,,,,,,
,,65ae78fc9cd81e8e26612cb2,65af5e862cf40634cd5d71c7,2024-01-23_07h41.46.030,bars,2023.2.3,Win32,142.8571429,657b66ea316d21385b68909f,,,,,,,,,,,315.4991,316.4989,,,316.999,317.2489,,135,-45,,,,,,,,,,,,,,,,bars/017.png,bars/mask007.png,,,,,,,,,,,,3,1,,,,,,,4,0,5,1,,,,,,,,,,,316.4989,316.9989,317.249,320.6936,space,3.4347,,320.6937,10,90,321.6937,321.6937,322.4507,space,0.7446,,0,12,12,12,1,145,45,,,,,,,,
,,65ae78fc9cd81e8e26612cb2,65af5e862cf40634cd5d71c7,2024-01-23_07h41.46.030,bars,2023.2.3,Win32,142.8571429,657b66ea316d21385b68909f,,,,,,,,,,,322.4509,323.4507,,,323.9507,324.2007,,58,58,,,,,,,,,,,,,,,,bars/048.png,bars/mask004.png,,,,,,,,,,,,4,1,,,,,,,6,0,6,0,,,,,,,,,,,323.4507,323.9507,324.2007,327.0481,space,2.8333,,327.0481,8,63,328.0482,328.0482,329.1038,space,1.0415,,0,13,13,13,1,50,175,,,,,,,,
,,65ae78fc9cd81e8e26612cb2,65af5e862cf40634cd5d71c7,2024-01-23_07h41.46.030,bars,2023.2.3,Win32,142.8571429,657b66ea316d21385b68909f,,,,,,,,,,,329.104,330.1038,,,330.604,330.8539,,60,60,,,,,,,,,,,,,,,,bars/014.png,bars/mask004.png,,,,,,,,,,,,1,1,,,,,,,4,0,4,0,,,,,,,,,,,330.1039,330.6039,330.8539,333.111,space,2.2439,,333.111,20,60,334.106,334.106,334.6875,space,0.5703,,0,14,14,14,1,80,0,,,,,,,,
,,65ae78fc9cd81e8e26612cb2,65af5e862cf40634cd5d71c7,2024-01-23_07h41.46.030,bars,2023.2.3,Win32,142.8571429,657b66ea316d21385b68909f,,,,,,,,,,,334.6877,335.6875,,,336.1875,336.4375,,14,14,,,,,,,,,,,,,,,,bars/014.png,bars/mask007.png,,,,,,,,,,,,2,2,,,,,,,2,2,1,3,,,,,,,,,,,335.6875,336.1875,336.4375,339.6877,space,3.2364,,339.6878,66,14,340.6877,340.6877,341.4726,space,0.7701,,0,15,15,15,1,80,0,,,,,,,,
,,65ae78fc9cd81e8e26612cb2,65af5e862cf40634cd5d71c7,2024-01-23_07h41.46.030,bars,2023.2.3,Win32,142.8571429,657b66ea316d21385b68909f,,,,,,,,,,,341.4727,342.4726,,,342.9726,343.2225,,93,93,,,,,,,,,,,,,,,,bars/042.png,bars/mask005.png,,,,,,,,,,,,2,2,,,,,,,4,4,5,5,,,,,,,,,,,342.4726,342.9726,343.2226,347.2576,space,4.0209,,347.2576,52,18,348.2576,348.2576,348.9522,space,0.6801,,0,16,16,16,1,145,75,,,,,,,,
,,65ae78fc9cd81e8e26612cb2,65af5e862cf40634cd5d71c7,2024-01-23_07h41.46.030,bars,2023.2.3,Win32,142.8571429,657b66ea316d21385b68909f,,,,,,,,,,,348.9523,349.9521,,,350.4522,350.7022,,174,-6,,,,,,,,,,,,,,,,bars/046.png,bars/mask006.png,,,,,,,,,,,,1,1,,,,,,,6,6,4,6,,,,,,,,,,,349.9521,350.4522,350.7022,355.7511,space,5.0375,,355.7511,19,89,356.7511,356.7511,357.3069,space,0.5416,,0,17,17,17,1,155,85,,,,,,,,
,,65ae78fc9cd81e8e26612cb2,65af5e862cf40634cd5d71c7,2024-01-23_07h41.46.030,bars,2023.2.3,Win32,142.8571429,657b66ea316d21385b68909f,,,,,,,,,,,357.307,358.3068,,,358.8068,359.0568,,175,-5,,,,,,,,,,,,,,,,bars/046.png,bars/mask009.png,,,,,,,,,,,,3,1,,,,,,,8,4,9,4,,,,,,,,,,,358.3068,358.8068,359.0568,362.4529,space,3.3853,,362.4529,20,90,363.4528,363.4528,364.9045,space,1.4371,,0,18,18,18,1,155,85,,,,,,,,
,,65ae78fc9cd81e8e26612cb2,65af5e862cf40634cd5d71c7,2024-01-23_07h41.46.030,bars,2023.2.3,Win32,142.8571429,657b66ea316d21385b68909f,,,,,,,,,,,364.9046,365.9044,,,366.4051,366.6544,,90,90,,,,,,,,,,,,,,,,bars/019.png,bars/mask008.png,,,,,,,,,,,,4,2,,,,,,,6,6,6,7,,,,,,,,,,,365.9044,366.4051,366.6544,370.0505,space,3.3819,,370.0505,45,15,371.0505,371.0505,371.74,space,0.6785,,0,19,19,19,1,45,105,,,,,,,,
,,65ae78fc9cd81e8e26612cb2,65af5e862cf40634cd5d71c7,2024-01-23_07h41.46.030,bars,2023.2.3,Win32,142.8571429,657b66ea316d21385b68909f,,,,,,,,,,,371.7402,372.738,,,373.2382,373.4882,,13,13,,,,,,,,,,,,,,,,bars/007.png,bars/mask003.png,,,,,,,,,,,,2,1,,,,,,,4,8,4,6,,,,,,,,,,,372.7381,373.2381,373.4882,376.2731,space,2.7698,,376.2731,18,42,377.2731,377.2731,378.1204,space,0.8345,,0,20,20,20,1,175,55,,,,,,,,
,,65ae78fc9cd81e8e26612cb2,65af5e862cf40634cd5d71c7,2024-01-23_07h41.46.030,bars,2023.2.3,Win32,142.8571429,657b66ea316d21385b68909f,,,,,,,,,,,378.1205,379.1204,,,379.6204,379.8704,,96,96,,,,,,,,,,,,,,,,bars/020.png,bars/mask008.png,,,,,,,,,,,,1,1,,,,,,,2,10,2,10,,,,,,,,,,,379.1204,379.6204,379.8705,383.2873,space,3.4052,,383.2873,19,74,384.2873,384.2873,385.2389,space,0.9385,,0,21,21,21,1,115,170,,,,,,,,
,,65ae78fc9cd81e8e26612cb2,65af5e862cf40634cd5d71c7,2024-01-23_07h41.46.030,bars,2023.2.3,Win32,142.8571429,657b66ea316d21385b68909f,,,,,,,,,,,385.2391,386.2388,,,386.7389,386.9888,,3,183,,,,,,,,,,,,,,,,bars/024.png,bars/mask007.png,,,,,,,,,,,,5,2,,,,,,,0,8,0,8,,,,,,,,,,,386.2388,386.7388,386.9889,389.6418,space,2.6405,,389.6418,63,13,390.6418,390.6418,391.128,space,0.4737,,0,22,22,22,1,120,170,,,,,,,,
,,65ae78fc9cd81e8e26612cb2,65af5e862cf40634cd5d71c7,2024-01-23_07h41.46.030,bars,2023.2.3,Win32,142.8571429,657b66ea316d21385b68909f,,,,,,,,,,,391.1282,392.1281,,,392.6281,392.878,,106,106,,,,,,,,,,,,,,,,bars/037.png,bars/mask005.png,,,,,,,,,,,,10,2,,,,,,,0,10,0,10,,,,,,,,,,,392.1281,392.628,392.878,394.6977,space,1.8038,,394.6977,44,1,395.6977,395.6977,396.538,space,0.828,,0,23,23,23,1,150,105,,,,,,,,
,,65ae78fc9cd81e8e26612cb2,65af5e862cf40634cd5d71c7,2024-01-23_07h41.46.030,bars,2023.2.3,Win32,142.8571429,657b66ea316d21385b68909f,,,,,,,,,,,396.5383,397.5381,,,398.0381,398.2881,,16,196,,,,,,,,,,,,,,,,bars/023.png,bars/mask001.png,,,,,,,,,,,,0,1,,,,,,,0,10,0,10,,,,,,,,,,,397.5381,398.038,398.2881,400.2276,space,1.9292,,400.2276,4,81,401.2257,401.2257,402.0244,space,0.7839,,0,24,24,24,1,20,115,,,,,,,,
,,65ae78fc9cd81e8e26612cb2,65af5e862cf40634cd5d71c7,2024-01-23_07h41.46.030,bars,2023.2.3,Win32,142.8571429,657b66ea316d21385b68909f,,,,,,,,,,,402.0246,403.0244,,,403.5245,403.7762,,91,91,,,,,,,,,,,,,,,,bars/030.png,bars/mask002.png,,,,,,,,,,,,1,2,,,,,,,2,8,3,7,,,,,,,,,,,403.0245,403.5245,403.7762,405.351,space,1.567,,405.3511,49,26,406.3511,406.3511,406.7052,space,0.3397,,0,25,25,25,1,140,65,,,,,,,,
,,65ae78fc9cd81e8e26612cb2,65af5e862cf40634cd5d71c7,2024-01-23_07h41.46.030,bars,2023.2.3,Win32,142.8571429,657b66ea316d21385b68909f,,,,,,,,,,,406.7054,407.7053,,,408.2053,408.4553,,96,96,,,,,,,,,,,,,,,,bars/025.png,bars/mask006.png,,,,,,,,,,,,0,1,,,,,,,0,6,0,6,,,,,,,,,,,407.7053,408.2053,408.4554,410.9416,space,2.4763,,410.9416,9,56,411.9416,411.9416,412.8167,space,0.8596,,0,26,26,26,1,105,40,,,,,,,,
,,65ae78fc9cd81e8e26612cb2,65af5e862cf40634cd5d71c7,2024-01-23_07h41.46.030,bars,2023.2.3,Win32,142.8571429,657b66ea316d21385b68909f,,,,,,,,,,,412.8169,413.8167,,,414.3167,414.5667,,10,190,,,,,,,,,,,,,,,,bars/012.png,bars/mask003.png,,,,,,,,,,,,5,2,,,,,,,2,8,1,6,,,,,,,,,,,413.8167,414.3167,414.5667,419.1365,space,4.5557,,419.1365,80,5,420.1365,420.1365,420.9353,space,0.7866,,0,27,27,27,1,90,15,,,,,,,,
,,65ae78fc9cd81e8e26612cb2,65af5e862cf40634cd5d71c7,2024-01-23_07h41.46.030,bars,2023.2.3,Win32,142.8571429,657b66ea316d21385b68909f,,,,,,,,,,,420.9355,421.9352,,,422.4352,422.6853,,106,106,,,,,,,,,,,,,,,,bars/001.png,bars/mask000.png,,,,,,,,,,,,2,2,,,,,,,4,6,3,5,,,,,,,,,,,421.9352,422.4352,422.6853,426.0188,space,3.3195,,426.0189,24,21,427.0188,427.0189,427.3175,space,0.287,,0,28,28,28,1,130,85,,,,,,,,
,,65ae78fc9cd81e8e26612cb2,65af5e862cf40634cd5d71c7,2024-01-23_07h41.46.030,bars,2023.2.3,Win32,142.8571429,657b66ea316d21385b68909f,,,,,,,,,,,427.3177,428.3175,,,428.8176,429.0676,,66,66,,,,,,,,,,,,,,,,bars/029.png,bars/mask004.png,,,,,,,,,,,,2,2,,,,,,,2,8,2,7,,,,,,,,,,,428.3175,428.8175,429.0676,430.7621,space,1.6821,,430.7621,24,21,431.7622,431.7622,432.04,space,0.2634,,0,29,29,29,1,90,45,,,,,,,,
,,65ae78fc9cd81e8e26612cb2,65af5e862cf40634cd5d71c7,2024-01-23_07h41.46.030,bars,2023.2.3,Win32,142.8571429,657b66ea316d21385b68909f,,,,,,,,,,,432.0402,433.0399,,,433.54,433.79,,3,3,,,,,,,,,,,,,,,,bars/007.png,bars/mask009.png,,,,,,,,,,,,1,1,,,,,,,0,10,1,10,,,,,,,,,,,433.04,433.54,433.7901,437.9361,space,4.1337,,437.9361,8,52,438.9362,438.9362,439.2348,space,0.2841,,0,30,30,30,1,175,55,,,,,,,,
,,65ae78fc9cd81e8e26612cb2,65af5e862cf40634cd5d71c7,2024-01-23_07h41.46.030,bars,2023.2.3,Win32,142.8571429,657b66ea316d21385b68909f,,,,,,,,,,,439.235,440.2348,,,440.7349,440.9848,,8,8,,,,,,,,,,,,,,,,bars/010.png,bars/mask005.png,,,,,,,,,,,,0,1,,,,,,,2,8,1,7,,,,,,,,,,,440.2348,440.7348,440.9848,444.4573,space,3.4584,,444.4573,23,47,445.4608,445.4608,446.2908,space,0.8173,,0,31,31,31,1,165,55,,,,,,,,
,,65ae78fc9cd81e8e26612cb2,65af5e862cf40634cd5d71c7,2024-01-23_07h41.46.030,bars,2023.2.3,Win32,142.8571429,657b66ea316d21385b68909f,,,,,,,,,,,446.2909,447.2908,,,447.7908,448.0444,,96,96,,,,,,,,,,,,,,,,bars/027.png,bars/mask000.png,,,,,,,,,,,,0,1,,,,,,,0,6,0,6,,,,,,,,,,,447.2908,447.7908,448.0444,448.7978,space,0.75,,448.7978,14,46,449.7979,449.7979,450.9855,space,1.1739,,0,32,32,32,1,110,50,,,,,,,,
,,65ae78fc9cd81e8e26612cb2,65af5e862cf40634cd5d71c7,2024-01-23_07h41.46.030,bars,2023.2.3,Win32,142.8571429,657b66ea316d21385b68909f,,,,,,,,,,,450.9856,451.9854,,,452.4855,452.7355,,8,8,,,,,,,,,,,,,,,,bars/032.png,bars/mask000.png,,,,,,,,,,,,5,2,,,,,,,2,8,4,8,,,,,,,,,,,451.9855,452.4855,452.7355,454.6107,space,1.8595,,454.6107,63,12,455.6106,455.6106,456.201,space,0.578,,0,33,33,33,1,125,20,,,,,,,,
,,65ae78fc9cd81e8e26612cb2,65af5e862cf40634cd5d71c7,2024-01-23_07h41.46.030,bars,2023.2.3,Win32,142.8571429,657b66ea316d21385b68909f,,,,,,,,,,,456.2012,457.201,,,457.7011,457.9511,,20,200,,,,,,,,,,,,,,,,bars/035.png,bars/mask004.png,,,,,,,,,,,,0,1,,,,,,,0,10,0,10,,,,,,,,,,,457.201,457.7011,457.9511,460.5763,space,2.6111,,460.5763,25,40,461.5762,461.5762,462.2083,space,0.6181,,0,34,34,34,1,175,60,,,,,,,,
,,65ae78fc9cd81e8e26612cb2,65af5e862cf40634cd5d71c7,2024-01-23_07h41.46.030,bars,2023.2.3,Win32,142.8571429,657b66ea316d21385b68909f,,,,,,,,,,,462.2085,463.2083,,,463.7084,463.9583,,77,77,,,,,,,,,,,,,,,,bars/013.png,bars/mask009.png,,,,,,,,,,,,0,1,,,,,,,0,10,0,8,,,,,,,,,,,463.2083,463.7083,463.9583,466.3613,space,2.3895,,466.3613,2,67,467.3613,467.3613,468.6879,space,1.3144,,0,35,35,35,1,75,10,,,,,,,,
,,65ae78fc9cd81e8e26612cb2,65af5e862cf40634cd5d71c7,2024-01-23_07h41.46.030,bars,2023.2.3,Win32,142.8571429,657b66ea316d21385b68909f,,,,,,,,,,,468.6881,469.6878,,,470.1878,470.4378,,170,170,,,,,,,,,,,,,,,,bars/048.png,bars/mask000.png,,,,,,,,,,,,8,2,,,,,,,0,10,0,9,,,,,,,,,,,469.6878,470.1878,470.4378,471.8476,space,1.3977,,471.8477,60,5,472.8477,472.8477,473.8547,space,0.9939,,0,36,36,36,1,50,175,,,,,,,,
,,65ae78fc9cd81e8e26612cb2,65af5e862cf40634cd5d71c7,2024-01-23_07h41.46.030,bars,2023.2.3,Win32,142.8571429,657b66ea316d21385b68909f,,,,,,,,,,,473.8549,474.8547,,,475.3549,475.6048,,176,176,,,,,,,,,,,,,,,,bars/032.png,bars/mask006.png,,,,,,,,,,,,2,2,,,,,,,2,8,2,8,,,,,,,,,,,474.8547,475.3548,475.6048,477.9175,space,2.301,,477.9175,51,24,478.9175,478.9175,479.4593,space,0.5277,,0,37,37,37,1,125,20,,,,,,,,
,,65ae78fc9cd81e8e26612cb2,65af5e862cf40634cd5d71c7,2024-01-23_07h41.46.030,bars,2023.2.3,Win32,142.8571429,657b66ea316d21385b68909f,,,,,,,,,,,479.4594,480.4593,,,480.9593,481.2093,,8,8,,,,,,,,,,,,,,,,bars/048.png,bars/mask000.png,,,,,,,,,,,,4,2,,,,,,,0,6,0,7,,,,,,,,,,,480.4593,480.9593,481.2093,483.4941,space,2.2723,,483.4942,42,13,484.4942,484.4942,484.7859,space,0.2772,,0,38,38,38,1,50,175,,,,,,,,
,,65ae78fc9cd81e8e26612cb2,65af5e862cf40634cd5d71c7,2024-01-23_07h41.46.030,bars,2023.2.3,Win32,142.8571429,657b66ea316d21385b68909f,,,,,,,,,,,484.7861,485.7859,,,486.2859,486.536,,109,109,,,,,,,,,,,,,,,,bars/046.png,bars/mask006.png,,,,,,,,,,,,1,2,,,,,,,0,4,1,3,,,,,,,,,,,485.7859,486.2859,486.536,488.3903,space,1.8435,,488.3903,46,24,489.3903,489.3903,489.7693,space,0.368,,0,39,39,39,1,155,85,,,,,,,,
,,65ae78fc9cd81e8e26612cb2,65af5e862cf40634cd5d71c7,2024-01-23_07h41.46.030,bars,2023.2.3,Win32,142.8571429,657b66ea316d21385b68909f,,,,,,,,,,,489.7695,490.7653,,,491.2654,491.5154,,168,168,,,,,,,,,,,,,,,,bars/009.png,bars/mask009.png,,,,,,,,,,,,0,1,,,,,,,0,6,1,6,,,,,,,,,,,490.7653,491.2653,491.5154,494.7587,space,3.2321,,494.7587,27,63,495.7587,495.7587,496.0226,space,0.2527,,0,40,40,40,1,15,105,,,,,,,,
,,65ae78fc9cd81e8e26612cb2,65af5e862cf40634cd5d71c7,2024-01-23_07h41.46.030,bars,2023.2.3,Win32,142.8571429,657b66ea316d21385b68909f,,,,,,,,,,,496.0228,497.0226,,,497.5227,497.7727,,118,118,,,,,,,,,,,,,,,,bars/040.png,bars/mask001.png,,,,,,,,,,,,1,1,,,,,,,2,4,2,3,,,,,,,,,,,497.0227,497.5227,497.7727,498.4533,space,0.6692,,498.4534,22,67,499.4533,499.4534,500.6826,space,1.2153,,0,41,41,41,1,140,5,,,,,,,,
,,65ae78fc9cd81e8e26612cb2,65af5e862cf40634cd5d71c7,2024-01-23_07h41.46.030,bars,2023.2.3,Win32,142.8571429,657b66ea316d21385b68909f,,,,,,,,,,,500.6828,501.6826,,,502.1827,502.4327,,5,5,,,,,,,,,,,,,,,,bars/014.png,bars/mask006.png,,,,,,,,,,,,6,2,,,,,,,4,6,3,7,,,,,,,,,,,501.6826,502.1827,502.4327,504.5022,space,2.0571,,504.5023,75,5,505.4989,505.4989,506.1412,space,0.6342,,0,42,42,42,1,80,0,,,,,,,,
,,65ae78fc9cd81e8e26612cb2,65af5e862cf40634cd5d71c7,2024-01-23_07h41.46.030,bars,2023.2.3,Win32,142.8571429,657b66ea316d21385b68909f,,,,,,,,,,,506.1414,507.1412,,,507.6413,507.8913,,53,53,,,,,,,,,,,,,,,,bars/010.png,bars/mask007.png,,,,,,,,,,,,4,2,,,,,,,2,4,3,4,,,,,,,,,,,507.1412,507.6413,507.8913,510.079,space,2.1764,,510.079,68,2,511.0754,511.0754,511.4511,space,0.3675,,0,43,43,43,1,165,55,,,,,,,,
,,65ae78fc9cd81e8e26612cb2,65af5e862cf40634cd5d71c7,2024-01-23_07h41.46.030,bars,2023.2.3,Win32,142.8571429,657b66ea316d21385b68909f,,,,,,,,,,,511.4513,512.4471,,,512.9471,513.1971,,116,-64,,,,,,,,,,,,,,,,bars/028.png,bars/mask001.png,,,,,,,,,,,,0,2,,,,,,,0,2,0,0,,,,,,,,,,,512.4471,512.9471,513.1972,517.6349,space,4.4254,,517.635,71,4,518.6349,518.6349,519.2322,space,0.5828,,0,44,44,44,1,45,120,,,,,,,,
,,65ae78fc9cd81e8e26612cb2,65af5e862cf40634cd5d71c7,2024-01-23_07h41.46.030,bars,2023.2.3,Win32,142.8571429,657b66ea316d21385b68909f,,,,,,,,,,,519.2324,520.2322,,,520.7323,520.9823,,177,-3,,,,,,,,,,,,,,,,bars/018.png,bars/mask004.png,,,,,,,,,,,,0,1,,,,,,,2,4,2,3,,,,,,,,,,,520.2322,520.7323,520.9823,524.2395,space,3.2455,,524.2395,27,87,525.2395,525.2395,525.7673,space,0.5152,,0,45,45,45,1,150,90,,,,,,,,
,,65ae78fc9cd81e8e26612cb2,65af5e862cf40634cd5d71c7,2024-01-23_07h41.46.030,bars,2023.2.3,Win32,142.8571429,657b66ea316d21385b68909f,,,,,,,,,,,525.7675,526.7673,,,527.2674,527.5174,,102,102,,,,,,,,,,,,,,,,bars/045.png,bars/mask009.png,,,,,,,,,,,,4,1,,,,,,,4,6,4,6,,,,,,,,,,,526.7673,527.2673,527.5174,530.7993,space,3.2714,,530.7993,2,88,531.7954,531.7954,532.4899,space,0.6792,,0,46,46,46,1,100,10,,,,,,,,
,,65ae78fc9cd81e8e26612cb2,65af5e862cf40634cd5d71c7,2024-01-23_07h41.46.030,bars,2023.2.3,Win32,142.8571429,657b66ea316d21385b68909f,,,,,,,,,,,532.4901,533.4899,,,533.99,534.2399,,101,101,,,,,,,,,,,,,,,,bars/001.png,bars/mask005.png,,,,,,,,,,,,3,2,,,,,,,2,8,2,7,,,,,,,,,,,533.4899,533.99,534.2399,536.1429,space,1.8917,,536.1429,29,16,537.1429,537.1429,537.4624,space,0.3067,,0,47,47,47,1,130,85,,,,,,,,
,,65ae78fc9cd81e8e26612cb2,65af5e862cf40634cd5d71c7,2024-01-23_07h41.46.030,bars,2023.2.3,Win32,142.8571429,657b66ea316d21385b68909f,,,,,,,,,,,537.4626,538.4624,,,538.9624,539.2124,,169,169,,,,,,,,,,,,,,,,bars/012.png,bars/mask002.png,,,,,,,,,,,,1,2,,,,,,,4,6,2,5,,,,,,,,,,,538.4624,538.9624,539.2124,542.1501,space,2.9252,,542.1502,79,26,543.1502,543.1502,543.3727,space,0.2137,,0,48,48,48,1,90,15,,,,,,,,
,,65ae78fc9cd81e8e26612cb2,65af5e862cf40634cd5d71c7,2024-01-23_07h41.46.030,bars,2023.2.3,Win32,142.8571429,657b66ea316d21385b68909f,,,,,,,,,,,543.3729,544.3724,,,544.8725,545.1225,,5,5,,,,,,,,,,,,,,,,bars/007.png,bars/mask004.png,,,,,,,,,,,,1,1,,,,,,,2,8,1,8,,,,,,,,,,,544.3725,544.8725,545.1225,545.9698,space,0.8315,,545.9698,10,50,546.9698,546.9698,547.2893,space,0.3056,,0,49,49,49,1,175,55,,,,,,,,
,,65ae78fc9cd81e8e26612cb2,65af5e862cf40634cd5d71c7,2024-01-23_07h41.46.030,bars,2023.2.3,Win32,142.8571429,657b66ea316d21385b68909f,,,,,,,,,,,,,,,,,,,,,,,,,,,,,,,,,,,,,,,,,,,,,,,,,,,,,,,,,,,,,,,,,,,,,,,,,,,,,,,,,,,,,,,,,,,,,547.2897,607.2859,0,0,0,4,1,sequence_tables/blk042.csv
,,65ae78fc9cd81e8e26612cb2,65af5e862cf40634cd5d71c7,2024-01-23_07h41.46.030,bars,2023.2.3,Win32,142.8571429,657b66ea316d21385b68909f,,,,,,,,,,,653.7677,654.7604,,,655.2605,655.5104,,105,-75,,,,,,,,,,,,,,,,bars/021.png,bars/mask007.png,,,,,,,,,,,,0,2,,,,,,,6,1,6,0,,,,,,607.291,653.7604,space,46.4622,,654.7604,655.2605,655.5104,659.5662,space,4.0437,,659.5663,50,35,660.5663,660.5663,660.5718,,,,0,0,0,0,1,155,70,,,,,,,,
,,65ae78fc9cd81e8e26612cb2,65af5e862cf40634cd5d71c7,2024-01-23_07h41.46.030,bars,2023.2.3,Win32,142.8571429,657b66ea316d21385b68909f,,,,,,,,,,,660.5719,661.5733,,,662.0734,662.3234,,171,-9,,,,,,,,,,,,,,,,bars/010.png,bars/mask006.png,,,,,,,,,,,,6,1,,,,,,,8,3,8,3,,,,,,,,,,,661.5733,662.0734,662.3234,665.8445,space,3.5123,,665.8445,6,64,666.8444,666.8444,666.8499,,,,0,1,1,1,1,165,55,,,,,,,,
,,65ae78fc9cd81e8e26612cb2,65af5e862cf40634cd5d71c7,2024-01-23_07h41.46.030,bars,2023.2.3,Win32,142.8571429,657b66ea316d21385b68909f,,,,,,,,,,,666.85,667.8514,,,668.3514,668.6015,,175,-5,,,,,,,,,,,,,,,,bars/018.png,bars/mask005.png,,,,,,,,,,,,2,1,,,,,,,10,5,10,6,,,,,,,,,,,667.8514,668.3514,668.6015,670.8933,space,2.2822,,670.8933,25,85,671.8933,671.8933,671.8983,,,,0,2,2,2,1,150,90,,,,,,,,
,,65ae78fc9cd81e8e26612cb2,65af5e862cf40634cd5d71c7,2024-01-23_07h41.46.030,bars,2023.2.3,Win32,142.8571429,657b66ea316d21385b68909f,,,,,,,,,,,671.8985,672.8934,,,673.3934,673.6433,,113,113,,,,,,,,,,,,,,,,bars/006.png,bars/mask006.png,,,,,,,,,,,,1,2,,,,,,,10,3,9,2,,,,,,,,,,,672.8934,673.3934,673.6433,677.2894,space,3.6337,,677.2894,78,13,678.2894,678.2894,678.2953,,,,0,3,3,3,1,35,100,,,,,,,,
,,65ae78fc9cd81e8e26612cb2,65af5e862cf40634cd5d71c7,2024-01-23_07h41.46.030,bars,2023.2.3,Win32,142.8571429,657b66ea316d21385b68909f,,,,,,,,,,,678.2953,679.2965,,,679.7966,680.0465,,73,73,,,,,,,,,,,,,,,,bars/029.png,bars/mask002.png,,,,,,,,,,,,3,1,,,,,,,8,1,7,1,,,,,,,,,,,679.2965,679.7965,680.0465,682.5537,space,2.4946,,682.5537,17,28,683.5537,683.5537,683.5544,,,,0,4,4,4,1,90,45,,,,,,,,
,,65ae78fc9cd81e8e26612cb2,65af5e862cf40634cd5d71c7,2024-01-23_07h41.46.030,bars,2023.2.3,Win32,142.8571429,657b66ea316d21385b68909f,,,,,,,,,,,683.5545,684.5537,,,685.0537,685.3037,,161,161,,,,,,,,,,,,,,,,bars/024.png,bars/mask006.png,,,,,,,,,,,,0,2,,,,,,,6,0,6,0,,,,,,,,,,,684.5537,685.0537,685.3038,686.1896,space,0.8774,,686.1896,41,9,687.1858,687.1858,687.1866,,,,0,5,5,5,1,120,170,,,,,,,,
,,65ae78fc9cd81e8e26612cb2,65af5e862cf40634cd5d71c7,2024-01-23_07h41.46.030,bars,2023.2.3,Win32,142.8571429,657b66ea316d21385b68909f,,,,,,,,,,,687.1866,688.1858,,,688.6858,688.936,,104,104,,,,,,,,,,,,,,,,bars/009.png,bars/mask007.png,,,,,,,,,,,,1,2,,,,,,,8,0,7,1,,,,,,,,,,,688.1858,688.6858,688.936,690.8527,space,1.9077,,690.8527,89,1,691.8527,691.8527,691.8579,,,,0,6,6,6,1,15,105,,,,,,,,
,,65ae78fc9cd81e8e26612cb2,65af5e862cf40634cd5d71c7,2024-01-23_07h41.46.030,bars,2023.2.3,Win32,142.8571429,657b66ea316d21385b68909f,,,,,,,,,,,691.858,692.8597,,,693.3597,693.6098,,172,172,,,,,,,,,,,,,,,,bars/021.png,bars/mask000.png,,,,,,,,,,,,4,1,,,,,,,10,2,10,3,,,,,,,,,,,692.8597,693.3597,693.6098,694.2419,space,0.6182,,694.2419,17,78,695.2418,695.2418,695.2426,,,,0,7,7,7,1,155,70,,,,,,,,
,,65ae78fc9cd81e8e26612cb2,65af5e862cf40634cd5d71c7,2024-01-23_07h41.46.030,bars,2023.2.3,Win32,142.8571429,657b66ea316d21385b68909f,,,,,,,,,,,695.2426,696.2418,,,696.7419,696.9888,,149,149,,,,,,,,,,,,,,,,bars/049.png,bars/mask000.png,,,,,,,,,,,,6,1,,,,,,,8,0,9,0,,,,,,,,,,,696.2419,696.7419,696.9888,699.6529,space,2.6576,,699.6529,11,34,700.6518,700.6518,700.6568,,,,0,8,8,8,1,160,115,,,,,,,,
,,65ae78fc9cd81e8e26612cb2,65af5e862cf40634cd5d71c7,2024-01-23_07h41.46.030,bars,2023.2.3,Win32,142.8571429,657b66ea316d21385b68909f,,,,,,,,,,,700.657,701.6519,,,702.1519,702.4019,,110,-70,,,,,,,,,,,,,,,,bars/020.png,bars/mask004.png,,,,,,,,,,,,7,1,,,,,,,6,0,8,0,,,,,,,,,,,701.6519,702.1518,702.4019,706.149,space,3.7368,,706.149,5,60,707.1452,707.1452,707.1502,,,,0,9,9,9,1,115,170,,,,,,,,
,,65ae78fc9cd81e8e26612cb2,65af5e862cf40634cd5d71c7,2024-01-23_07h41.46.030,bars,2023.2.3,Win32,142.8571429,657b66ea316d21385b68909f,,,,,,,,,,,707.1503,708.1453,,,708.6453,708.8953,,60,60,,,,,,,,,,,,,,,,bars/035.png,bars/mask006.png,,,,,,,,,,,,0,2,,,,,,,4,2,3,0,,,,,,,,,,,708.1453,708.6453,708.8953,710.4788,space,1.5723,,710.4788,65,0,711.4788,711.4788,711.4796,,,,0,10,10,10,1,175,60,,,,,,,,
,,65ae78fc9cd81e8e26612cb2,65af5e862cf40634cd5d71c7,2024-01-23_07h41.46.030,bars,2023.2.3,Win32,142.8571429,657b66ea316d21385b68909f,,,,,,,,,,,711.4796,712.4789,,,712.9789,713.2288,,66,66,,,,,,,,,,,,,,,,bars/014.png,bars/mask003.png,,,,,,,,,,,,1,1,,,,,,,2,0,2,1,,,,,,,,,,,712.4789,712.9789,713.2288,716.2221,space,2.9827,,716.2222,14,66,717.2221,717.2221,717.2276,,,,0,11,11,11,1,80,0,,,,,,,,
,,65ae78fc9cd81e8e26612cb2,65af5e862cf40634cd5d71c7,2024-01-23_07h41.46.030,bars,2023.2.3,Win32,142.8571429,657b66ea316d21385b68909f,,,,,,,,,,,717.2277,718.2291,,,718.7259,718.9722,,125,125,,,,,,,,,,,,,,,,bars/015.png,bars/mask001.png,,,,,,,,,,,,3,1,,,,,,,4,2,6,2,,,,,,,,,,,718.2292,718.7258,718.9722,720.8335,space,1.8492,,720.8335,15,35,721.8335,721.8335,721.8386,,,,0,12,12,12,1,110,160,,,,,,,,
,,65ae78fc9cd81e8e26612cb2,65af5e862cf40634cd5d71c7,2024-01-23_07h41.46.030,bars,2023.2.3,Win32,142.8571429,657b66ea316d21385b68909f,,,,,,,,,,,721.8388,722.8405,,,723.3411,723.5906,,119,119,,,,,,,,,,,,,,,,bars/037.png,bars/mask002.png,,,,,,,,,,,,1,2,,,,,,,2,0,2,2,,,,,,,,,,,722.8406,723.3411,723.5906,725.3615,space,1.7585,,725.3615,31,14,726.3554,726.3554,726.3611,,,,0,13,13,13,1,150,105,,,,,,,,
,,65ae78fc9cd81e8e26612cb2,65af5e862cf40634cd5d71c7,2024-01-23_07h41.46.030,bars,2023.2.3,Win32,142.8571429,657b66ea316d21385b68909f,,,,,,,,,,,726.3612,727.3616,,,727.8616,728.1116,,111,111,,,,,,,,,,,,,,,,bars/030.png,bars/mask006.png,,,,,,,,,,,,0,1,,,,,,,4,0,6,0,,,,,,,,,,,727.3616,727.8616,728.1116,730.6643,space,2.5441,,730.6643,29,46,731.6604,731.6605,731.6612,,,,0,14,14,14,1,140,65,,,,,,,,
,,65ae78fc9cd81e8e26612cb2,65af5e862cf40634cd5d71c7,2024-01-23_07h41.46.030,bars,2023.2.3,Win32,142.8571429,657b66ea316d21385b68909f,,,,,,,,,,,731.6613,732.6605,,,733.1605,733.4105,,175,-5,,,,,,,,,,,,,,,,bars/048.png,bars/mask009.png,,,,,,,,,,,,3,2,,,,,,,6,2,6,3,,,,,,,,,,,732.6605,733.1605,733.4105,735.3424,space,1.9192,,735.3424,55,0,736.3413,736.3413,736.3468,,,,0,15,15,15,1,50,175,,,,,,,,
,,65ae78fc9cd81e8e26612cb2,65af5e862cf40634cd5d71c7,2024-01-23_07h41.46.030,bars,2023.2.3,Win32,142.8571429,657b66ea316d21385b68909f,,,,,,,,,,,736.347,737.3432,,,737.8414,738.0913,,16,196,,,,,,,,,,,,,,,,bars/007.png,bars/mask006.png,,,,,,,,,,,,3,1,,,,,,,8,4,9,2,,,,,,,,,,,737.3432,737.8414,738.0913,739.9943,space,1.8903,,739.9943,21,39,740.9943,740.9943,740.9951,,,,0,16,16,16,1,175,55,,,,,,,,
,,65ae78fc9cd81e8e26612cb2,65af5e862cf40634cd5d71c7,2024-01-23_07h41.46.030,bars,2023.2.3,Win32,142.8571429,657b66ea316d21385b68909f,,,,,,,,,,,740.9953,741.9943,,,742.4944,742.7444,,108,108,,,,,,,,,,,,,,,,bars/009.png,bars/mask004.png,,,,,,,,,,,,1,2,,,,,,,6,2,5,1,,,,,,,,,,,741.9943,742.4944,742.7444,745.0084,space,2.2515,,745.0084,87,3,746.0084,746.0084,746.014,,,,0,17,17,17,1,15,105,,,,,,,,
,,65ae78fc9cd81e8e26612cb2,65af5e862cf40634cd5d71c7,2024-01-23_07h41.46.030,bars,2023.2.3,Win32,142.8571429,657b66ea316d21385b68909f,,,,,,,,,,,746.014,747.0154,,,747.5156,747.7655,,161,161,,,,,,,,,,,,,,,,bars/007.png,bars/mask004.png,,,,,,,,,,,,2,1,,,,,,,4,0,4,0,,,,,,,,,,,747.0154,747.5156,747.7655,752.4603,space,4.6861,,752.4603,14,74,753.4602,753.4602,753.4657,,,,0,18,18,18,1,175,55,,,,,,,,
,,65ae78fc9cd81e8e26612cb2,65af5e862cf40634cd5d71c7,2024-01-23_07h41.46.030,bars,2023.2.3,Win32,142.8571429,657b66ea316d21385b68909f,,,,,,,,,,,753.4658,754.4672,,,754.9673,755.2173,,75,75,,,,,,,,,,,,,,,,bars/026.png,bars/mask005.png,,,,,,,,,,,,1,2,,,,,,,6,2,6,2,,,,,,,,,,,754.4673,754.9672,755.2173,758.7383,space,3.5066,,758.7383,40,10,759.7383,759.7383,759.7439,,,,0,19,19,19,1,35,85,,,,,,,,
,,65ae78fc9cd81e8e26612cb2,65af5e862cf40634cd5d71c7,2024-01-23_07h41.46.030,bars,2023.2.3,Win32,142.8571429,657b66ea316d21385b68909f,,,,,,,,,,,759.7439,760.7453,,,761.2454,761.4954,,151,151,,,,,,,,,,,,,,,,bars/018.png,bars/mask007.png,,,,,,,,,,,,7,1,,,,,,,8,4,7,6,,,,,,,,,,,760.7453,761.2454,761.4954,762.2942,space,0.7885,,762.2942,1,61,763.2907,763.2907,763.2914,,,,0,20,20,20,1,150,90,,,,,,,,
,,65ae78fc9cd81e8e26612cb2,65af5e862cf40634cd5d71c7,2024-01-23_07h41.46.030,bars,2023.2.3,Win32,142.8571429,657b66ea316d21385b68909f,,,,,,,,,,,763.2915,764.2872,,,764.7873,765.0373,,132,132,,,,,,,,,,,,,,,,bars/018.png,bars/mask003.png,,,,,,,,,,,,4,1,,,,,,,10,6,9,8,,,,,,,,,,,764.2872,764.7873,765.0373,767.5027,space,2.4543,,767.5027,18,42,768.5027,768.5027,768.5076,,,,0,21,21,21,1,150,90,,,,,,,,
,,65ae78fc9cd81e8e26612cb2,65af5e862cf40634cd5d71c7,2024-01-23_07h41.46.030,bars,2023.2.3,Win32,142.8571429,657b66ea316d21385b68909f,,,,,,,,,,,768.5077,769.5028,,,770.0029,770.2529,,50,50,,,,,,,,,,,,,,,,bars/041.png,bars/mask006.png,,,,,,,,,,,,0,1,,,,,,,8,4,8,4,,,,,,,,,,,769.5028,770.0029,770.2529,771.7599,space,1.4928,,771.7599,30,35,772.7635,772.7635,772.7639,,,,0,22,22,22,1,20,85,,,,,,,,
,,65ae78fc9cd81e8e26612cb2,65af5e862cf40634cd5d71c7,2024-01-23_07h41.46.030,bars,2023.2.3,Win32,142.8571429,657b66ea316d21385b68909f,,,,,,,,,,,772.764,773.7599,,,774.26,774.51,,175,-5,,,,,,,,,,,,,,,,bars/016.png,bars/mask006.png,,,,,,,,,,,,1,2,,,,,,,10,2,10,1,,,,,,,,,,,773.76,774.26,774.51,778.2464,space,3.7247,,778.2465,45,10,779.2463,779.2464,779.2518,,,,0,23,23,23,1,40,165,,,,,,,,
,,65ae78fc9cd81e8e26612cb2,65af5e862cf40634cd5d71c7,2024-01-23_07h41.46.030,bars,2023.2.3,Win32,142.8571429,657b66ea316d21385b68909f,,,,,,,,,,,779.252,780.2534,,,780.7535,781.0034,,121,121,,,,,,,,,,,,,,,,bars/011.png,bars/mask002.png,,,,,,,,,,,,0,2,,,,,,,10,4,10,4,,,,,,,,,,,780.2534,780.7535,781.0034,783.823,space,2.8082,,783.8231,39,36,784.8231,784.8231,784.8281,,,,0,24,24,24,1,160,85,,,,,,,,
,,65ae78fc9cd81e8e26612cb2,65af5e862cf40634cd5d71c7,2024-01-23_07h41.46.030,bars,2023.2.3,Win32,142.8571429,657b66ea316d21385b68909f,,,,,,,,,,,784.8281,785.8232,,,786.3232,786.5731,,70,70,,,,,,,,,,,,,,,,bars/007.png,bars/mask009.png,,,,,,,,,,,,3,2,,,,,,,10,6,9,5,,,,,,,,,,,785.8232,786.3232,786.5731,787.9204,space,1.3325,,787.9205,75,15,788.9206,788.9206,788.9209,,,,0,25,25,25,1,175,55,,,,,,,,
,,65ae78fc9cd81e8e26612cb2,65af5e862cf40634cd5d71c7,2024-01-23_07h41.46.030,bars,2023.2.3,Win32,142.8571429,657b66ea316d21385b68909f,,,,,,,,,,,788.9209,789.9206,,,790.4206,790.6707,,107,107,,,,,,,,,,,,,,,,bars/002.png,bars/mask008.png,,,,,,,,,,,,2,2,,,,,,,10,8,10,9,,,,,,,,,,,789.9206,790.4206,790.6707,793.3305,space,2.6476,,793.3305,23,22,794.3306,794.3306,794.3356,,,,0,26,26,26,1,130,85,,,,,,,,
,,65ae78fc9cd81e8e26612cb2,65af5e862cf40634cd5d71c7,2024-01-23_07h41.46.030,bars,2023.2.3,Win32,142.8571429,657b66ea316d21385b68909f,,,,,,,,,,,794.3358,795.3384,,,795.8376,796.0875,,170,-10,,,,,,,,,,,,,,,,bars/008.png,bars/mask002.png,,,,,,,,,,,,7,2,,,,,,,10,10,10,10,,,,,,,,,,,795.3384,795.8376,796.0875,799.9281,space,3.8281,,799.9281,60,10,800.9281,800.9281,800.933,,,,0,27,27,27,1,110,0,,,,,,,,
,,65ae78fc9cd81e8e26612cb2,65af5e862cf40634cd5d71c7,2024-01-23_07h41.46.030,bars,2023.2.3,Win32,142.8571429,657b66ea316d21385b68909f,,,,,,,,,,,800.9332,801.9281,,,802.4282,802.6782,,110,110,,,,,,,,,,,,,,,,bars/024.png,bars/mask000.png,,,,,,,,,,,,5,1,,,,,,,8,10,8,9,,,,,,,,,,,801.9281,802.4282,802.6782,805.0464,space,2.3572,,805.0464,10,60,806.0465,806.0465,806.0522,,,,0,28,28,28,1,120,170,,,,,,,,
,,65ae78fc9cd81e8e26612cb2,65af5e862cf40634cd5d71c7,2024-01-23_07h41.46.030,bars,2023.2.3,Win32,142.8571429,657b66ea316d21385b68909f,,,,,,,,,,,806.0523,807.0534,,,807.5535,807.8036,,12,12,,,,,,,,,,,,,,,,bars/033.png,bars/mask009.png,,,,,,,,,,,,3,1,,,,,,,6,8,5,8,,,,,,,,,,,807.0535,807.5535,807.8036,809.2064,space,1.3923,,809.2065,13,37,810.2064,810.2064,810.2115,,,,0,29,29,29,1,25,155,,,,,,,,
,,65ae78fc9cd81e8e26612cb2,65af5e862cf40634cd5d71c7,2024-01-23_07h41.46.030,bars,2023.2.3,Win32,142.8571429,657b66ea316d21385b68909f,,,,,,,,,,,810.2115,811.2065,,,811.7065,811.9565,,107,107,,,,,,,,,,,,,,,,bars/004.png,bars/mask004.png,,,,,,,,,,,,4,2,,,,,,,4,10,5,10,,,,,,,,,,,811.2065,811.7065,811.9565,813.9427,space,1.9732,,813.9428,82,18,814.9428,814.9428,814.9482,,,,0,30,30,30,1,25,125,,,,,,,,
,,65ae78fc9cd81e8e26612cb2,65af5e862cf40634cd5d71c7,2024-01-23_07h41.46.030,bars,2023.2.3,Win32,142.8571429,657b66ea316d21385b68909f,,,,,,,,,,,814.9483,815.9497,,,816.4498,816.6998,,2,2,,,,,,,,,,,,,,,,bars/012.png,bars/mask004.png,,,,,,,,,,,,5,2,,,,,,,2,8,1,9,,,,,,,,,,,815.9497,816.4498,816.6998,818.5333,space,1.8237,,818.5333,88,13,819.5333,819.5334,819.5338,,,,0,31,31,31,1,90,15,,,,,,,,
,,65ae78fc9cd81e8e26612cb2,65af5e862cf40634cd5d71c7,2024-01-23_07h41.46.030,bars,2023.2.3,Win32,142.8571429,657b66ea316d21385b68909f,,,,,,,,,,,819.5338,820.5333,,,821.0358,821.2834,,51,51,,,,,,,,,,,,,,,,bars/033.png,bars/mask008.png,,,,,,,,,,,,0,1,,,,,,,0,10,0,7,,,,,,,,,,,820.5333,821.0358,821.2834,823.0474,space,1.7519,,823.0474,26,76,824.0443,824.0443,824.0499,,,,0,32,32,32,1,25,155,,,,,,,,
,,65ae78fc9cd81e8e26612cb2,65af5e862cf40634cd5d71c7,2024-01-23_07h41.46.030,bars,2023.2.3,Win32,142.8571429,657b66ea316d21385b68909f,,,,,,,,,,,824.05,825.0475,,,825.5475,825.7976,,126,-54,,,,,,,,,,,,,,,,bars/026.png,bars/mask003.png,,,,,,,,,,,,0,2,,,,,,,2,8,2,7,,,,,,,,,,,825.0475,825.5475,825.7976,829.1728,space,3.3726,,829.1728,89,41,830.1727,830.1727,830.1783,,,,0,33,33,33,1,35,85,,,,,,,,
,,65ae78fc9cd81e8e26612cb2,65af5e862cf40634cd5d71c7,2024-01-23_07h41.46.030,bars,2023.2.3,Win32,142.8571429,657b66ea316d21385b68909f,,,,,,,,,,,830.1784,831.1797,,,831.6798,831.9298,,13,13,,,,,,,,,,,,,,,,bars/009.png,bars/mask007.png,,,,,,,,,,,,1,1,,,,,,,0,10,1,10,,,,,,,,,,,831.1798,831.6798,831.9298,832.7007,space,0.7619,,832.7008,2,88,833.7007,833.7007,833.7016,,,,0,34,34,34,1,15,105,,,,,,,,
,,65ae78fc9cd81e8e26612cb2,65af5e862cf40634cd5d71c7,2024-01-23_07h41.46.030,bars,2023.2.3,Win32,142.8571429,657b66ea316d21385b68909f,,,,,,,,,,,833.7016,834.7008,,,835.2008,835.4508,,157,-23,,,,,,,,,,,,,,,,bars/005.png,bars/mask006.png,,,,,,,,,,,,4,2,,,,,,,2,10,1,10,,,,,,,,,,,834.7008,835.2008,835.4509,837.6802,space,2.215,,837.6802,33,17,838.6802,838.6802,838.6857,,,,0,35,35,35,1,10,140,,,,,,,,
,,65ae78fc9cd81e8e26612cb2,65af5e862cf40634cd5d71c7,2024-01-23_07h41.46.030,bars,2023.2.3,Win32,142.8571429,657b66ea316d21385b68909f,,,,,,,,,,,838.6859,839.6872,,,840.1872,840.4372,,80,80,,,,,,,,,,,,,,,,bars/013.png,bars/mask005.png,,,,,,,,,,,,3,1,,,,,,,4,10,4,9,,,,,,,,,,,839.6872,840.1872,840.4372,843.8472,space,3.3984,,843.8472,5,70,844.8472,844.8472,844.8534,,,,0,36,36,36,1,75,10,,,,,,,,
,,65ae78fc9cd81e8e26612cb2,65af5e862cf40634cd5d71c7,2024-01-23_07h41.46.030,bars,2023.2.3,Win32,142.8571429,657b66ea316d21385b68909f,,,,,,,,,,,844.8534,845.8542,,,846.3554,846.6042,,67,67,,,,,,,,,,,,,,,,bars/028.png,bars/mask007.png,,,,,,,,,,,,2,1,,,,,,,6,10,6,9,,,,,,,,,,,845.8542,846.3554,846.6042,851.2088,space,4.5896,,851.2088,22,53,852.2086,852.2087,852.2139,,,,0,37,37,37,1,45,120,,,,,,,,
,,65ae78fc9cd81e8e26612cb2,65af5e862cf40634cd5d71c7,2024-01-23_07h41.46.030,bars,2023.2.3,Win32,142.8571429,657b66ea316d21385b68909f,,,,,,,,,,,852.214,853.2123,,,853.7088,853.9588,,84,84,,,,,,,,,,,,,,,,bars/024.png,bars/mask004.png,,,,,,,,,,,,0,1,,,,,,,8,10,9,8,,,,,,,,,,,853.2123,853.7087,853.9588,857.202,space,3.2289,,857.2021,36,86,858.2021,858.2021,858.2073,,,,0,38,38,38,1,120,170,,,,,,,,
,,65ae78fc9cd81e8e26612cb2,65af5e862cf40634cd5d71c7,2024-01-23_07h41.46.030,bars,2023.2.3,Win32,142.8571429,657b66ea316d21385b68909f,,,,,,,,,,,858.2074,859.2091,,,859.7092,859.9592,,116,116,,,,,,,,,,,,,,,,bars/001.png,bars/mask006.png,,,,,,,,,,,,4,1,,,,,,,6,8,7,9,,,,,,,,,,,859.2091,859.7091,859.9592,860.5425,space,0.5727,,860.5426,14,31,861.5425,861.5425,861.5429,,,,0,39,39,39,1,130,85,,,,,,,,
,,65ae78fc9cd81e8e26612cb2,65af5e862cf40634cd5d71c7,2024-01-23_07h41.46.030,bars,2023.2.3,Win32,142.8571429,657b66ea316d21385b68909f,,,,,,,,,,,861.543,862.5426,,,863.0463,863.2962,,131,131,,,,,,,,,,,,,,,,bars/039.png,bars/mask009.png,,,,,,,,,,,,1,2,,,,,,,4,6,4,6,,,,,,,,,,,862.5426,863.0463,863.2963,865.5984,space,2.2928,,865.5984,44,26,866.5983,866.5984,866.6039,,,,0,40,40,40,1,175,105,,,,,,,,
,,65ae78fc9cd81e8e26612cb2,65af5e862cf40634cd5d71c7,2024-01-23_07h41.46.030,bars,2023.2.3,Win32,142.8571429,657b66ea316d21385b68909f,,,,,,,,,,,866.604,867.6054,,,868.1054,868.3554,,6,186,,,,,,,,,,,,,,,,bars/036.png,bars/mask008.png,,,,,,,,,,,,5,2,,,,,,,6,8,6,9,,,,,,,,,,,867.6054,868.1054,868.3554,871.8557,space,3.4864,,871.8557,41,14,872.8556,872.8557,872.8607,,,,0,41,41,41,1,145,20,,,,,,,,
,,65ae78fc9cd81e8e26612cb2,65af5e862cf40634cd5d71c7,2024-01-23_07h41.46.030,bars,2023.2.3,Win32,142.8571429,657b66ea316d21385b68909f,,,,,,,,,,,872.8608,873.8558,,,874.3558,874.6072,,133,133,,,,,,,,,,,,,,,,bars/020.png,bars/mask003.png,,,,,,,,,,,,1,1,,,,,,,4,10,3,10,,,,,,,,,,,873.8558,874.3558,874.6072,876.7309,space,2.1128,,876.731,18,37,877.7309,877.7309,877.7317,,,,0,42,42,42,1,115,170,,,,,,,,
,,65ae78fc9cd81e8e26612cb2,65af5e862cf40634cd5d71c7,2024-01-23_07h41.46.030,bars,2023.2.3,Win32,142.8571429,657b66ea316d21385b68909f,,,,,,,,,,,877.7318,878.731,,,879.231,879.481,,7,7,,,,,,,,,,,,,,,,bars/007.png,bars/mask003.png,,,,,,,,,,,,1,1,,,,,,,2,10,2,10,,,,,,,,,,,878.731,879.231,879.481,880.5922,space,1.0984,,880.5922,12,48,881.5923,881.5923,881.5926,,,,0,43,43,43,1,175,55,,,,,,,,
,,65ae78fc9cd81e8e26612cb2,65af5e862cf40634cd5d71c7,2024-01-23_07h41.46.030,bars,2023.2.3,Win32,142.8571429,657b66ea316d21385b68909f,,,,,,,,,,,881.5927,882.5923,,,883.0923,883.344,,50,230,,,,,,,,,,,,,,,,bars/044.png,bars/mask002.png,,,,,,,,,,,,0,1,,,,,,,0,10,1,10,,,,,,,,,,,882.5924,883.0923,883.344,885.7662,space,2.4111,,885.7662,25,75,886.7662,886.7662,886.7712,,,,0,44,44,44,1,75,155,,,,,,,,
,,65ae78fc9cd81e8e26612cb2,65af5e862cf40634cd5d71c7,2024-01-23_07h41.46.030,bars,2023.2.3,Win32,142.8571429,657b66ea316d21385b68909f,,,,,,,,,,,886.7712,887.7662,,,888.2662,888.5162,,141,-39,,,,,,,,,,,,,,,,bars/000.png,bars/mask009.png,,,,,,,,,,,,8,2,,,,,,,2,10,1,9,,,,,,,,,,,887.7662,888.2662,888.5162,891.9818,space,3.4535,,891.9818,79,4,892.9818,892.9818,892.9871,,,,0,45,45,45,1,40,145,,,,,,,,
,,65ae78fc9cd81e8e26612cb2,65af5e862cf40634cd5d71c7,2024-01-23_07h41.46.030,bars,2023.2.3,Win32,142.8571429,657b66ea316d21385b68909f,,,,,,,,,,,892.9872,893.9887,,,894.4888,894.7388,,132,-48,,,,,,,,,,,,,,,,bars/024.png,bars/mask009.png,,,,,,,,,,,,0,1,,,,,,,0,10,0,10,,,,,,,,,,,893.9888,894.4888,894.7388,898.0098,space,3.2568,,898.0099,12,38,899.0099,899.0099,899.0152,,,,0,46,46,46,1,120,170,,,,,,,,
,,65ae78fc9cd81e8e26612cb2,65af5e862cf40634cd5d71c7,2024-01-23_07h41.46.030,bars,2023.2.3,Win32,142.8571429,657b66ea316d21385b68909f,,,,,,,,,,,899.0153,900.0168,,,900.5169,900.7669,,12,192,,,,,,,,,,,,,,,,bars/016.png,bars/mask002.png,,,,,,,,,,,,1,2,,,,,,,2,8,3,7,,,,,,,,,,,900.0169,900.5169,900.7669,903.6768,space,2.9006,,903.6769,28,27,904.6768,904.6768,904.6822,,,,0,47,47,47,1,40,165,,,,,,,,
,,65ae78fc9cd81e8e26612cb2,65af5e862cf40634cd5d71c7,2024-01-23_07h41.46.030,bars,2023.2.3,Win32,142.8571429,657b66ea316d21385b68909f,,,,,,,,,,,904.6823,905.6839,,,906.1839,906.4338,,161,-19,,,,,,,,,,,,,,,,bars/032.png,bars/mask007.png,,,,,,,,,,,,0,1,,,,,,,4,10,5,8,,,,,,,,,,,905.6839,906.1839,906.4339,908.6979,space,2.2516,,908.698,36,39,909.694,909.694,909.6947,,,,0,48,48,48,1,125,20,,,,,,,,
,,65ae78fc9cd81e8e26612cb2,65af5e862cf40634cd5d71c7,2024-01-23_07h41.46.030,bars,2023.2.3,Win32,142.8571429,657b66ea316d21385b68909f,,,,,,,,,,,909.6948,910.6939,,,911.1941,911.4442,,178,-2,,,,,,,,,,,,,,,,bars/024.png,bars/mask007.png,,,,,,,,,,,,7,2,,,,,,,6,8,6,10,,,,,,,,,,,910.694,911.1941,911.4442,914.6655,space,3.2143,,914.6655,58,8,915.6667,915.6667,915.6722,,,,0,49,49,49,1,120,170,,,,,,,,
,,65ae78fc9cd81e8e26612cb2,65af5e862cf40634cd5d71c7,2024-01-23_07h41.46.030,bars,2023.2.3,Win32,142.8571429,657b66ea316d21385b68909f,,,,,,,,,,,,,,,,,,,,,,,,,,,,,,,,,,,,,,,,,,,,,,,,,,,,,,,,,,,,,,,,,,,,,,,,,,,,,,,,,,,,,,,,,,,,,915.6724,975.6738,0,1,1,0,1,sequence_tables/blk045.csv
,,65ae78fc9cd81e8e26612cb2,65af5e862cf40634cd5d71c7,2024-01-23_07h41.46.030,bars,2023.2.3,Win32,142.8571429,657b66ea316d21385b68909f,,,,,,,,,,,983.8002,984.7993,,,985.2994,985.5424,,41,221,,,,,,,,,,,,,,,,bars/047.png,bars/mask000.png,,,,,,,,,,,,1,1,,,,,,,5,5,5,6,,,,,,975.6791,983.7924,space,8.1057,,984.7993,985.2994,985.5424,989.4386,space,3.8851,,989.4386,26,29,990.4385,990.4385,990.4439,,,,0,0,0,0,1,15,70,,,,,,,,
,,65ae78fc9cd81e8e26612cb2,65af5e862cf40634cd5d71c7,2024-01-23_07h41.46.030,bars,2023.2.3,Win32,142.8571429,657b66ea316d21385b68909f,,,,,,,,,,,990.4441,991.4454,,,991.9455,992.1955,,144,144,,,,,,,,,,,,,,,,bars/008.png,bars/mask006.png,,,,,,,,,,,,0,1,,,,,,,3,3,1,3,,,,,,,,,,,991.4454,991.9455,992.1955,996.0985,space,3.8907,,996.0986,34,36,997.0985,997.0986,997.1037,,,,0,1,1,1,1,110,0,,,,,,,,
,,65ae78fc9cd81e8e26612cb2,65af5e862cf40634cd5d71c7,2024-01-23_07h41.46.030,bars,2023.2.3,Win32,142.8571429,657b66ea316d21385b68909f,,,,,,,,,,,997.1038,998.0986,,,998.5987,998.8486,,113,113,,,,,,,,,,,,,,,,bars/034.png,bars/mask007.png,,,,,,,,,,,,1,1,,,,,,,1,5,2,7,,,,,,,,,,,998.0987,998.5986,998.8487,1001.9808,space,3.1212,,1001.9808,12,48,1002.9808,1002.9808,1002.9859,,,,0,2,2,2,1,125,65,,,,,,,,
,,65ae78fc9cd81e8e26612cb2,65af5e862cf40634cd5d71c7,2024-01-23_07h41.46.030,bars,2023.2.3,Win32,142.8571429,657b66ea316d21385b68909f,,,,,,,,,,,1002.9861,1003.9878,,,1004.4879,1004.7378,,35,35,,,,,,,,,,,,,,,,bars/000.png,bars/mask008.png,,,,,,,,,,,,0,1,,,,,,,0,7,0,9,,,,,,,,,,,1003.9878,1004.4878,1004.7379,1007.7936,space,3.0433,,1007.7936,5,70,1008.7936,1008.7936,1008.7986,,,,0,3,3,3,1,40,145,,,,,,,,
,,65ae78fc9cd81e8e26612cb2,65af5e862cf40634cd5d71c7,2024-01-23_07h41.46.030,bars,2023.2.3,Win32,142.8571429,657b66ea316d21385b68909f,,,,,,,,,,,1008.7988,1009.7938,,,1010.2938,1010.5438,,17,17,,,,,,,,,,,,,,,,bars/041.png,bars/mask005.png,,,,,,,,,,,,2,1,,,,,,,0,5,2,4,,,,,,,,,,,1009.7938,1010.2938,1010.5438,1012.3772,space,1.821,,1012.3772,3,68,1013.3772,1013.3772,1013.3776,,,,0,4,4,4,1,20,85,,,,,,,,
,,65ae78fc9cd81e8e26612cb2,65af5e862cf40634cd5d71c7,2024-01-23_07h41.46.030,bars,2023.2.3,Win32,142.8571429,657b66ea316d21385b68909f,,,,,,,,,,,1013.3777,1014.3772,,,1014.8774,1015.1273,,18,18,,,,,,,,,,,,,,,,bars/022.png,bars/mask006.png,,,,,,,,,,,,7,2,,,,,,,2,7,3,8,,,,,,,,,,,1014.3773,1014.8774,1015.1273,1018.5164,space,3.3802,,1018.5164,77,2,1019.5131,1019.5131,1019.5186,,,,0,5,5,5,1,95,20,,,,,,,,
,,65ae78fc9cd81e8e26612cb2,65af5e862cf40634cd5d71c7,2024-01-23_07h41.46.030,bars,2023.2.3,Win32,142.8571429,657b66ea316d21385b68909f,,,,,,,,,,,1019.5186,1020.5165,,,1021.0165,1021.2627,,66,66,,,,,,,,,,,,,,,,bars/041.png,bars/mask005.png,,,,,,,,,,,,4,2,,,,,,,4,9,4,10,,,,,,,,,,,1020.5165,1021.0165,1021.2628,1025.0099,space,3.736,,1025.0099,46,19,1026.0098,1026.0099,1026.0148,,,,0,6,6,6,1,20,85,,,,,,,,
,,65ae78fc9cd81e8e26612cb2,65af5e862cf40634cd5d71c7,2024-01-23_07h41.46.030,bars,2023.2.3,Win32,142.8571429,657b66ea316d21385b68909f,,,,,,,,,,,1026.0149,1027.0099,,,1027.5099,1027.76,,48,48,,,,,,,,,,,,,,,,bars/043.png,bars/mask003.png,,,,,,,,,,,,0,1,,,,,,,2,10,1,9,,,,,,,,,,,1027.01,1027.5099,1027.76,1030.149,space,2.3795,,1030.149,18,82,1031.149,1031.149,1031.1544,,,,0,7,7,7,1,30,130,,,,,,,,
,,65ae78fc9cd81e8e26612cb2,65af5e862cf40634cd5d71c7,2024-01-23_07h41.46.030,bars,2023.2.3,Win32,142.8571429,657b66ea316d21385b68909f,,,,,,,,,,,1031.1545,1032.1597,,,1032.6561,1032.9061,,60,60,,,,,,,,,,,,,,,,bars/013.png,bars/mask002.png,,,,,,,,,,,,1,1,,,,,,,4,8,2,8,,,,,,,,,,,1032.1597,1032.6561,1032.9061,1034.9062,space,1.9876,,1034.9062,15,50,1035.9062,1035.9063,1035.9113,,,,0,8,8,8,1,75,10,,,,,,,,
,,65ae78fc9cd81e8e26612cb2,65af5e862cf40634cd5d71c7,2024-01-23_07h41.46.030,bars,2023.2.3,Win32,142.8571429,657b66ea316d21385b68909f,,,,,,,,,,,1035.9114,1036.9063,,,1037.4064,1037.6564,,114,114,,,,,,,,,,,,,,,,bars/045.png,bars/mask005.png,,,,,,,,,,,,4,1,,,,,,,6,6,7,7,,,,,,,,,,,1036.9063,1037.4064,1037.6564,1041.3192,space,3.6525,,1041.3193,14,76,1042.3164,1042.3164,1042.3214,,,,0,9,9,9,1,100,10,,,,,,,,
,,65ae78fc9cd81e8e26612cb2,65af5e862cf40634cd5d71c7,2024-01-23_07h41.46.030,bars,2023.2.3,Win32,142.8571429,657b66ea316d21385b68909f,,,,,,,,,,,1042.3215,1043.3164,,,1043.8164,1044.0664,,148,148,,,,,,,,,,,,,,,,bars/005.png,bars/mask000.png,,,,,,,,,,,,4,2,,,,,,,4,4,3,6,,,,,,,,,,,1043.3164,1043.8164,1044.0664,1047.6083,space,3.5293,,1047.6083,42,8,1048.6083,1048.6083,1048.6138,,,,0,10,10,10,1,10,140,,,,,,,,
,,65ae78fc9cd81e8e26612cb2,65af5e862cf40634cd5d71c7,2024-01-23_07h41.46.030,bars,2023.2.3,Win32,142.8571429,657b66ea316d21385b68909f,,,,,,,,,,,1048.6139,1049.6153,,,1050.1154,1050.3653,,68,68,,,,,,,,,,,,,,,,bars/019.png,bars/mask004.png,,,,,,,,,,,,1,1,,,,,,,6,6,6,8,,,,,,,,,,,1049.6153,1050.1154,1050.3654,1053.185,space,2.8066,,1053.185,23,37,1054.1851,1054.1851,1054.1904,,,,0,11,11,11,1,45,105,,,,,,,,
,,65ae78fc9cd81e8e26612cb2,65af5e862cf40634cd5d71c7,2024-01-23_07h41.46.030,bars,2023.2.3,Win32,142.8571429,657b66ea316d21385b68909f,,,,,,,,,,,1054.1905,1055.192,,,1055.692,1055.9421,,17,197,,,,,,,,,,,,,,,,bars/022.png,bars/mask006.png,,,,,,,,,,,,6,2,,,,,,,8,8,8,7,,,,,,,,,,,1055.1921,1055.692,1055.9421,1059.3661,space,3.4134,,1059.3661,78,3,1060.366,1060.366,1060.3715,,,,0,12,12,12,1,95,20,,,,,,,,
,,65ae78fc9cd81e8e26612cb2,65af5e862cf40634cd5d71c7,2024-01-23_07h41.46.030,bars,2023.2.3,Win32,142.8571429,657b66ea316d21385b68909f,,,,,,,,,,,1060.3716,1061.3694,,,1061.866,1062.116,,132,132,,,,,,,,,,,,,,,,bars/020.png,bars/mask000.png,,,,,,,,,,,,4,1,,,,,,,10,6,10,3,,,,,,,,,,,1061.3695,1061.866,1062.116,1064.3453,space,2.2151,,1064.3454,17,38,1065.3453,1065.3454,1065.3461,,,,0,13,13,13,1,115,170,,,,,,,,
,,65ae78fc9cd81e8e26612cb2,65af5e862cf40634cd5d71c7,2024-01-23_07h41.46.030,bars,2023.2.3,Win32,142.8571429,657b66ea316d21385b68909f,,,,,,,,,,,1065.3461,1066.3454,,,1066.8455,1067.0973,,100,100,,,,,,,,,,,,,,,,bars/045.png,bars/mask003.png,,,,,,,,,,,,8,1,,,,,,,10,4,8,5,,,,,,,,,,,1066.3454,1066.8454,1067.0973,1068.1252,space,1.021,,1068.1252,0,90,1069.1233,1069.1233,1069.1236,,,,0,14,14,14,1,100,10,,,,,,,,
,,65ae78fc9cd81e8e26612cb2,65af5e862cf40634cd5d71c7,2024-01-23_07h41.46.030,bars,2023.2.3,Win32,142.8571429,657b66ea316d21385b68909f,,,,,,,,,,,1069.1238,1070.1234,,,1070.6235,1070.8735,,102,102,,,,,,,,,,,,,,,,bars/048.png,bars/mask002.png,,,,,,,,,,,,0,1,,,,,,,10,6,10,5,,,,,,,,,,,1070.1234,1070.6235,1070.8735,1073.4222,space,2.538,,1073.4223,52,73,1074.4222,1074.4222,1074.4272,,,,0,15,15,15,1,50,175,,,,,,,,
,,65ae78fc9cd81e8e26612cb2,65af5e862cf40634cd5d71c7,2024-01-23_07h41.46.030,bars,2023.2.3,Win32,142.8571429,657b66ea316d21385b68909f,,,,,,,,,,,1074.4273,1075.4223,,,1075.9223,1076.1724,,39,219,,,,,,,,,,,,,,,,bars/025.png,bars/mask005.png,,,,,,,,,,,,9,2,,,,,,,10,8,10,9,,,,,,,,,,,1075.4223,1075.9223,1076.1724,1080.36,space,4.1737,,1080.3601,66,1,1081.3601,1081.3601,1081.3655,,,,0,16,16,16,1,105,40,,,,,,,,
,,65ae78fc9cd81e8e26612cb2,65af5e862cf40634cd5d71c7,2024-01-23_07h41.46.030,bars,2023.2.3,Win32,142.8571429,657b66ea316d21385b68909f,,,,,,,,,,,1081.3656,1082.3672,,,1082.8672,1083.1171,,160,-20,,,,,,,,,,,,,,,,bars/020.png,bars/mask000.png,,,,,,,,,,,,5,2,,,,,,,8,10,8,8,,,,,,,,,,,1082.3672,1082.8672,1083.1172,1087.2772,space,4.1503,,1087.2772,45,10,1088.2772,1088.2772,1088.2822,,,,0,17,17,17,1,115,170,,,,,,,,
,,65ae78fc9cd81e8e26612cb2,65af5e862cf40634cd5d71c7,2024-01-23_07h41.46.030,bars,2023.2.3,Win32,142.8571429,657b66ea316d21385b68909f,,,,,,,,,,,1088.2824,1089.2841,,,1089.7842,1090.0342,,44,44,,,,,,,,,,,,,,,,bars/025.png,bars/mask000.png,,,,,,,,,,,,8,2,,,,,,,6,8,4,9,,,,,,,,,,,1089.2842,1089.7841,1090.0342,1090.8815,space,0.8333,,1090.8815,61,4,1091.8815,1091.8816,1091.8819,,,,0,18,18,18,1,105,40,,,,,,,,
,,65ae78fc9cd81e8e26612cb2,65af5e862cf40634cd5d71c7,2024-01-23_07h41.46.030,bars,2023.2.3,Win32,142.8571429,657b66ea316d21385b68909f,,,,,,,,,,,1091.8819,1092.8816,,,1093.3851,1093.6316,,162,162,,,,,,,,,,,,,,,,bars/014.png,bars/mask008.png,,,,,,,,,,,,2,2,,,,,,,4,6,5,5,,,,,,,,,,,1092.8816,1093.3851,1093.6317,1095.104,space,1.4581,,1095.104,82,18,1096.104,1096.104,1096.109,,,,0,19,19,19,1,80,0,,,,,,,,
,,65ae78fc9cd81e8e26612cb2,65af5e862cf40634cd5d71c7,2024-01-23_07h41.46.030,bars,2023.2.3,Win32,142.8571429,657b66ea316d21385b68909f,,,,,,,,,,,1096.109,1097.104,,,1097.6041,1097.8541,,151,-29,,,,,,,,,,,,,,,,bars/046.png,bars/mask004.png,,,,,,,,,,,,6,1,,,,,,,6,8,7,9,,,,,,,,,,,1097.104,1097.6041,1097.8541,1101.4325,space,3.568,,1101.4325,4,66,1102.4307,1102.4307,1102.4361,,,,0,20,20,20,1,155,85,,,,,,,,
,,65ae78fc9cd81e8e26612cb2,65af5e862cf40634cd5d71c7,2024-01-23_07h41.46.030,bars,2023.2.3,Win32,142.8571429,657b66ea316d21385b68909f,,,,,,,,,,,1102.4362,1103.4377,,,1103.9377,1104.1877,,58,58,,,,,,,,,,,,,,,,bars/039.png,bars/mask006.png,,,,,,,,,,,,0,2,,,,,,,4,10,5,10,,,,,,,,,,,1103.4377,1103.9377,1104.1877,1105.9309,space,1.7281,,1105.9309,63,47,1106.931,1106.931,1106.9317,,,,0,21,21,21,1,175,105,,,,,,,,
,,65ae78fc9cd81e8e26612cb2,65af5e862cf40634cd5d71c7,2024-01-23_07h41.46.030,bars,2023.2.3,Win32,142.8571429,657b66ea316d21385b68909f,,,,,,,,,,,1106.9318,1107.931,,,1108.431,1108.6811,,116,116,,,,,,,,,,,,,,,,bars/006.png,bars/mask000.png,,,,,,,,,,,,5,2,,,,,,,2,8,2,10,,,,,,,,,,,1107.931,1108.431,1108.6811,1112.4383,space,3.7442,,1112.4383,81,16,1113.4342,1113.4343,1113.4393,,,,0,22,22,22,1,35,100,,,,,,,,
,,65ae78fc9cd81e8e26612cb2,65af5e862cf40634cd5d71c7,2024-01-23_07h41.46.030,bars,2023.2.3,Win32,142.8571429,657b66ea316d21385b68909f,,,,,,,,,,,1113.4393,1114.4383,,,1114.9383,1115.1883,,139,139,,,,,,,,,,,,,,,,bars/037.png,bars/mask002.png,,,,,,,,,,,,0,1,,,,,,,0,6,0,6,,,,,,,,,,,1114.4384,1114.9383,1115.1884,1120.1192,space,4.9174,,1120.1193,11,34,1121.1193,1121.1193,1121.1246,,,,0,23,23,23,1,150,105,,,,,,,,
,,65ae78fc9cd81e8e26612cb2,65af5e862cf40634cd5d71c7,2024-01-23_07h41.46.030,bars,2023.2.3,Win32,142.8571429,657b66ea316d21385b68909f,,,,,,,,,,,1121.1247,1122.1263,,,1122.6263,1122.8763,,149,149,,,,,,,,,,,,,,,,bars/032.png,bars/mask003.png,,,,,,,,,,,,0,1,,,,,,,2,8,2,9,,,,,,,,,,,1122.1263,1122.6263,1122.8763,1125.0986,space,2.2103,,1125.0987,24,51,1126.0989,1126.0989,1126.104,,,,0,24,24,24,1,125,20,,,,,,,,
,,65ae78fc9cd81e8e26612cb2,65af5e862cf40634cd5d71c7,2024-01-23_07h41.46.030,bars,2023.2.3,Win32,142.8571429,657b66ea316d21385b68909f,,,,,,,,,,,1126.1041,1127.1057,,,1127.6057,1127.8557,,37,37,,,,,,,,,,,,,,,,bars/035.png,bars/mask003.png,,,,,,,,,,,,2,2,,,,,,,0,10,0,10,,,,,,,,,,,1127.1057,1127.6057,1127.8558,1129.9809,space,2.1158,,1129.9809,42,23,1130.9809,1130.9809,1130.9867,,,,0,25,25,25,1,175,60,,,,,,,,
,,65ae78fc9cd81e8e26612cb2,65af5e862cf40634cd5d71c7,2024-01-23_07h41.46.030,bars,2023.2.3,Win32,142.8571429,657b66ea316d21385b68909f,,,,,,,,,,,1130.9868,1131.9879,,,1132.4879,1132.738,,8,8,,,,,,,,,,,,,,,,bars/033.png,bars/mask008.png,,,,,,,,,,,,0,1,,,,,,,0,8,0,9,,,,,,,,,,,1131.9879,1132.4879,1132.738,1136.6826,space,3.9305,,1136.6826,17,33,1137.6827,1137.6827,1137.6881,,,,0,26,26,26,1,25,155,,,,,,,,
,,65ae78fc9cd81e8e26612cb2,65af5e862cf40634cd5d71c7,2024-01-23_07h41.46.030,bars,2023.2.3,Win32,142.8571429,657b66ea316d21385b68909f,,,,,,,,,,,1137.6882,1138.6896,,,1139.1897,1139.4397,,18,18,,,,,,,,,,,,,,,,bars/005.png,bars/mask003.png,,,,,,,,,,,,2,1,,,,,,,0,6,3,5,,,,,,,,,,,1138.6897,1139.1897,1139.4397,1142.9816,space,3.5316,,1142.9816,8,58,1143.9816,1143.9816,1143.9866,,,,0,27,27,27,1,10,140,,,,,,,,
,,65ae78fc9cd81e8e26612cb2,65af5e862cf40634cd5d71c7,2024-01-23_07h41.46.030,bars,2023.2.3,Win32,142.8571429,657b66ea316d21385b68909f,,,,,,,,,,,1143.9866,1144.9816,,,1145.4817,1145.7317,,97,97,,,,,,,,,,,,,,,,bars/030.png,bars/mask001.png,,,,,,,,,,,,0,2,,,,,,,0,8,1,8,,,,,,,,,,,1144.9817,1145.4817,1145.7317,1147.6763,space,1.9357,,1147.6763,43,32,1148.6763,1148.6763,1148.6817,,,,0,28,28,28,1,140,65,,,,,,,,
,,65ae78fc9cd81e8e26612cb2,65af5e862cf40634cd5d71c7,2024-01-23_07h41.46.030,bars,2023.2.3,Win32,142.8571429,657b66ea316d21385b68909f,,,,,,,,,,,1148.6818,1149.6833,,,1150.1834,1150.4333,,10,190,,,,,,,,,,,,,,,,bars/023.png,bars/mask005.png,,,,,,,,,,,,1,1,,,,,,,0,6,2,8,,,,,,,,,,,1149.6833,1150.1833,1150.4333,1153.9128,space,3.4669,,1153.9128,10,75,1154.9127,1154.9128,1154.9182,,,,0,29,29,29,1,20,115,,,,,,,,
,,65ae78fc9cd81e8e26612cb2,65af5e862cf40634cd5d71c7,2024-01-23_07h41.46.030,bars,2023.2.3,Win32,142.8571429,657b66ea316d21385b68909f,,,,,,,,,,,1154.9183,1155.9197,,,1156.4198,1156.6698,,90,90,,,,,,,,,,,,,,,,bars/025.png,bars/mask007.png,,,,,,,,,,,,0,1,,,,,,,0,8,0,7,,,,,,,,,,,1155.9198,1156.4198,1156.6698,1157.3018,space,0.6201,,1157.3018,15,50,1158.3019,1158.3019,1158.3022,,,,0,30,30,30,1,105,40,,,,,,,,
,,65ae78fc9cd81e8e26612cb2,65af5e862cf40634cd5d71c7,2024-01-23_07h41.46.030,bars,2023.2.3,Win32,142.8571429,657b66ea316d21385b68909f,,,,,,,,,,,1158.3023,1159.2984,,,1159.798,1160.045,,171,171,,,,,,,,,,,,,,,,bars/038.png,bars/mask002.png,,,,,,,,,,,,0,1,,,,,,,2,10,0,10,,,,,,,,,,,1159.2985,1159.798,1160.045,1161.2881,space,1.2305,,1161.2881,6,79,1162.2881,1162.2881,1162.2932,,,,0,31,31,31,1,165,70,,,,,,,,
,,65ae78fc9cd81e8e26612cb2,65af5e862cf40634cd5d71c7,2024-01-23_07h41.46.030,bars,2023.2.3,Win32,142.8571429,657b66ea316d21385b68909f,,,,,,,,,,,1162.2933,1163.2882,,,1163.7883,1164.0382,,93,93,,,,,,,,,,,,,,,,bars/002.png,bars/mask009.png,,,,,,,,,,,,7,2,,,,,,,4,10,5,9,,,,,,,,,,,1163.2883,1163.7883,1164.0382,1166.6843,space,2.6353,,1166.6844,37,8,1167.6843,1167.6843,1167.6897,,,,0,32,32,32,1,130,85,,,,,,,,
,,65ae78fc9cd81e8e26612cb2,65af5e862cf40634cd5d71c7,2024-01-23_07h41.46.030,bars,2023.2.3,Win32,142.8571429,657b66ea316d21385b68909f,,,,,,,,,,,1167.6898,1168.6879,,,1169.1844,1169.4344,,67,67,,,,,,,,,,,,,,,,bars/047.png,bars/mask001.png,,,,,,,,,,,,7,2,,,,,,,6,8,7,8,,,,,,,,,,,1168.6879,1169.1844,1169.4344,1170.7054,space,1.2568,,1170.7054,52,3,1171.7053,1171.7053,1171.7057,,,,0,33,33,33,1,15,70,,,,,,,,
,,65ae78fc9cd81e8e26612cb2,65af5e862cf40634cd5d71c7,2024-01-23_07h41.46.030,bars,2023.2.3,Win32,142.8571429,657b66ea316d21385b68909f,,,,,,,,,,,1171.7058,1172.7054,,,1173.2072,1173.4554,,179,-1,,,,,,,,,,,,,,,,bars/023.png,bars/mask002.png,,,,,,,,,,,,1,1,,,,,,,4,6,4,7,,,,,,,,,,,1172.7054,1173.2072,1173.4554,1176.1083,space,2.642,,1176.1084,21,64,1177.1084,1177.1084,1177.1138,,,,0,34,34,34,1,20,115,,,,,,,,
,,65ae78fc9cd81e8e26612cb2,65af5e862cf40634cd5d71c7,2024-01-23_07h41.46.030,bars,2023.2.3,Win32,142.8571429,657b66ea316d21385b68909f,,,,,,,,,,,1177.1139,1178.1154,,,1178.6154,1178.8655,,176,176,,,,,,,,,,,,,,,,bars/039.png,bars/mask000.png,,,,,,,,,,,,6,1,,,,,,,6,8,6,7,,,,,,,,,,,1178.1154,1178.6154,1178.8655,1182.4559,space,3.578,,1182.4559,1,71,1183.456,1183.456,1183.461,,,,0,35,35,35,1,175,105,,,,,,,,
,,65ae78fc9cd81e8e26612cb2,65af5e862cf40634cd5d71c7,2024-01-23_07h41.46.030,bars,2023.2.3,Win32,142.8571429,657b66ea316d21385b68909f,,,,,,,,,,,1183.4611,1184.456,,,1184.956,1185.2061,,107,107,,,,,,,,,,,,,,,,bars/006.png,bars/mask008.png,,,,,,,,,,,,7,2,,,,,,,8,10,7,9,,,,,,,,,,,1184.456,1184.956,1185.2061,1187.4771,space,2.2594,,1187.4771,72,7,1188.4771,1188.4771,1188.4824,,,,0,36,36,36,1,35,100,,,,,,,,
,,65ae78fc9cd81e8e26612cb2,65af5e862cf40634cd5d71c7,2024-01-23_07h41.46.030,bars,2023.2.3,Win32,142.8571429,657b66ea316d21385b68909f,,,,,,,,,,,1188.4825,1189.484,,,1189.9841,1190.2341,,31,211,,,,,,,,,,,,,,,,bars/033.png,bars/mask006.png,,,,,,,,,,,,7,1,,,,,,,10,10,9,10,,,,,,,,,,,1189.484,1189.9841,1190.2341,1193.8455,space,3.5997,,1193.8455,6,56,1194.8455,1194.8455,1194.851,,,,0,37,37,37,1,25,155,,,,,,,,
,,65ae78fc9cd81e8e26612cb2,65af5e862cf40634cd5d71c7,2024-01-23_07h41.46.030,bars,2023.2.3,Win32,142.8571429,657b66ea316d21385b68909f,,,,,,,,,,,1194.8511,1195.8524,,,1196.3475,1196.5956,,27,27,,,,,,,,,,,,,,,,bars/000.png,bars/mask005.png,,,,,,,,,,,,6,1,,,,,,,10,8,10,8,,,,,,,,,,,1195.8525,1196.3475,1196.5956,1198.5333,space,1.926,,1198.5333,13,62,1199.5333,1199.5333,1199.5336,,,,0,38,38,38,1,40,145,,,,,,,,
,,65ae78fc9cd81e8e26612cb2,65af5e862cf40634cd5d71c7,2024-01-23_07h41.46.030,bars,2023.2.3,Win32,142.8571429,657b66ea316d21385b68909f,,,,,,,,,,,1199.5336,1200.5333,,,1201.0334,1201.2833,,80,80,,,,,,,,,,,,,,,,bars/014.png,bars/mask005.png,,,,,,,,,,,,10,1,,,,,,,10,10,10,9,,,,,,,,,,,1200.5333,1201.0333,1201.2834,1203.3498,space,2.056,,1203.3498,0,80,1204.346,1204.3461,1204.351,,,,0,39,39,39,1,80,0,,,,,,,,
,,65ae78fc9cd81e8e26612cb2,65af5e862cf40634cd5d71c7,2024-01-23_07h41.46.030,bars,2023.2.3,Win32,142.8571429,657b66ea316d21385b68909f,,,,,,,,,,,1204.3512,1205.3461,,,1205.8461,1206.0962,,124,124,,,,,,,,,,,,,,,,bars/046.png,bars/mask002.png,,,,,,,,,,,,0,1,,,,,,,10,8,9,8,,,,,,,,,,,1205.3461,1205.8461,1206.0962,1209.3046,space,3.1944,,1209.3047,31,39,1210.3047,1210.3051,1210.3101,,,,0,40,40,40,1,155,85,,,,,,,,
,,65ae78fc9cd81e8e26612cb2,65af5e862cf40634cd5d71c7,2024-01-23_07h41.46.030,bars,2023.2.3,Win32,142.8571429,657b66ea316d21385b68909f,,,,,,,,,,,1210.3102,1211.3118,,,1211.8117,1212.0617,,6,186,,,,,,,,,,,,,,,,bars/048.png,bars/mask000.png,,,,,,,,,,,,4,2,,,,,,,8,6,7,7,,,,,,,,,,,1211.3118,1211.8117,1212.0617,1214.4091,space,2.3349,,1214.4091,44,11,1215.4091,1215.4092,1215.4145,,,,0,41,41,41,1,50,175,,,,,,,,
,,65ae78fc9cd81e8e26612cb2,65af5e862cf40634cd5d71c7,2024-01-23_07h41.46.030,bars,2023.2.3,Win32,142.8571429,657b66ea316d21385b68909f,,,,,,,,,,,1215.4146,1216.4161,,,1216.9161,1217.1661,,175,175,,,,,,,,,,,,,,,,bars/018.png,bars/mask007.png,,,,,,,,,,,,2,1,,,,,,,10,4,10,3,,,,,,,,,,,1216.4161,1216.9161,1217.1661,1220.6802,space,3.5016,,1220.6802,25,85,1221.6803,1221.6803,1221.6857,,,,0,42,42,42,1,150,90,,,,,,,,
,,65ae78fc9cd81e8e26612cb2,65af5e862cf40634cd5d71c7,2024-01-23_07h41.46.030,bars,2023.2.3,Win32,142.8571429,657b66ea316d21385b68909f,,,,,,,,,,,1221.6858,1222.6873,,,1223.1874,1223.4373,,70,70,,,,,,,,,,,,,,,,bars/025.png,bars/mask004.png,,,,,,,,,,,,0,2,,,,,,,10,6,10,6,,,,,,,,,,,1222.6873,1223.1874,1223.4373,1226.2153,space,2.7662,,1226.2153,35,30,1227.2153,1227.2153,1227.2207,,,,0,43,43,43,1,105,40,,,,,,,,
,,65ae78fc9cd81e8e26612cb2,65af5e862cf40634cd5d71c7,2024-01-23_07h41.46.030,bars,2023.2.3,Win32,142.8571429,657b66ea316d21385b68909f,,,,,,,,,,,1227.2208,1228.2223,,,1228.7224,1228.9724,,166,-14,,,,,,,,,,,,,,,,bars/016.png,bars/mask003.png,,,,,,,,,,,,5,2,,,,,,,10,4,9,5,,,,,,,,,,,1228.2223,1228.7224,1228.9724,1231.8129,space,2.831,,1231.8129,54,1,1232.8128,1232.8128,1232.8179,,,,0,44,44,44,1,40,165,,,,,,,,
,,65ae78fc9cd81e8e26612cb2,65af5e862cf40634cd5d71c7,2024-01-23_07h41.46.030,bars,2023.2.3,Win32,142.8571429,657b66ea316d21385b68909f,,,,,,,,,,,1232.8179,1233.813,,,1234.313,1234.563,,16,196,,,,,,,,,,,,,,,,bars/007.png,bars/mask005.png,,,,,,,,,,,,2,1,,,,,,,8,2,7,0,,,,,,,,,,,1233.813,1234.3129,1234.563,1237.9729,space,3.4005,,1237.9729,21,39,1238.9729,1238.9729,1238.9784,,,,0,45,45,45,1,175,55,,,,,,,,
,,65ae78fc9cd81e8e26612cb2,65af5e862cf40634cd5d71c7,2024-01-23_07h41.46.030,bars,2023.2.3,Win32,142.8571429,657b66ea316d21385b68909f,,,,,,,,,,,1238.9784,1239.9799,,,1240.48,1240.7299,,128,128,,,,,,,,,,,,,,,,bars/037.png,bars/mask006.png,,,,,,,,,,,,1,1,,,,,,,6,4,4,4,,,,,,,,,,,1239.9799,1240.48,1240.7299,1243.9038,space,3.1616,,1243.9038,22,23,1244.9038,1244.9038,1244.9087,,,,0,46,46,46,1,150,105,,,,,,,,
,,65ae78fc9cd81e8e26612cb2,65af5e862cf40634cd5d71c7,2024-01-23_07h41.46.030,bars,2023.2.3,Win32,142.8571429,657b66ea316d21385b68909f,,,,,,,,,,,1244.9088,1245.9038,,,1246.4038,1246.6539,,123,123,,,,,,,,,,,,,,,,bars/030.png,bars/mask006.png,,,,,,,,,,,,4,1,,,,,,,8,2,9,1,,,,,,,,,,,1245.9038,1246.4038,1246.6539,1249.3486,space,2.6856,,1249.3486,17,58,1250.3486,1250.3486,1250.3539,,,,0,47,47,47,1,140,65,,,,,,,,
,,65ae78fc9cd81e8e26612cb2,65af5e862cf40634cd5d71c7,2024-01-23_07h41.46.030,bars,2023.2.3,Win32,142.8571429,657b66ea316d21385b68909f,,,,,,,,,,,1250.3539,1251.3511,,,1251.8487,1252.0986,,126,126,,,,,,,,,,,,,,,,bars/049.png,bars/mask007.png,,,,,,,,,,,,0,2,,,,,,,10,0,10,0,,,,,,,,,,,1251.3511,1251.8487,1252.0986,1252.7445,space,0.6334,,1252.7446,34,11,1253.7445,1253.7446,1253.7453,,,,0,48,48,48,1,160,115,,,,,,,,
,,65ae78fc9cd81e8e26612cb2,65af5e862cf40634cd5d71c7,2024-01-23_07h41.46.030,bars,2023.2.3,Win32,142.8571429,657b66ea316d21385b68909f,,,,,,,,,,,1253.7454,1254.7446,,,1255.2447,1255.4946,,124,124,,,,,,,,,,,,,,,,bars/031.png,bars/mask005.png,,,,,,,,,,,,9,1,,,,,,,10,2,10,3,,,,,,,,,,,1254.7446,1255.2447,1255.4947,1257.7379,space,2.2307,,1257.7379,4,89,1258.7379,1258.7379,1258.7432,,,,0,49,49,49,1,120,35,,,,,,,,
,,65ae78fc9cd81e8e26612cb2,65af5e862cf40634cd5d71c7,2024-01-23_07h41.46.030,bars,2023.2.3,Win32,142.8571429,657b66ea316d21385b68909f,,,,,,,,,,,,,,,,,,,,,,,,,,,,,,,,,,,,,,,,,,,,,,,,,,,,,,,,,,,,,,,,,,,,,,,,,,,,,,,,,,,,,,,,,,,,,1258.7433,1318.7412,0,2,2,1,1,sequence_tables/blk024.csv
,,65ae78fc9cd81e8e26612cb2,65af5e862cf40634cd5d71c7,2024-01-23_07h41.46.030,bars,2023.2.3,Win32,142.8571429,657b66ea316d21385b68909f,,,,,,,,,,,1325.2417,1326.2416,,,1326.7347,1326.9846,,123,123,,,,,,,,,,,,,,,,bars/037.png,bars/mask003.png,,,,,,,,,,,,4,2,,,,,,,8,8,9,9,,,,,,1318.7464,1325.2347,space,6.4808,,1326.2416,1326.7347,1326.9847,1329.0404,space,2.0408,,1329.0404,27,18,1330.0404,1330.0405,1330.0458,,,,0,0,0,0,1,150,105,,,,,,,,
,,65ae78fc9cd81e8e26612cb2,65af5e862cf40634cd5d71c7,2024-01-23_07h41.46.030,bars,2023.2.3,Win32,142.8571429,657b66ea316d21385b68909f,,,,,,,,,,,1330.0459,1331.0474,,,1331.5474,1331.7974,,161,161,,,,,,,,,,,,,,,,bars/011.png,bars/mask007.png,,,,,,,,,,,,8,1,,,,,,,10,6,8,6,,,,,,,,,,,1331.0474,1331.5474,1331.7974,1333.0058,space,1.1967,,1333.0058,1,76,1334.0059,1334.0059,1334.0066,,,,0,1,1,1,1,160,85,,,,,,,,
,,65ae78fc9cd81e8e26612cb2,65af5e862cf40634cd5d71c7,2024-01-23_07h41.46.030,bars,2023.2.3,Win32,142.8571429,657b66ea316d21385b68909f,,,,,,,,,,,1334.0068,1335.0059,,,1335.506,1335.7597,,87,87,,,,,,,,,,,,,,,,bars/039.png,bars/mask006.png,,,,,,,,,,,,3,2,,,,,,,8,8,10,8,,,,,,,,,,,1335.006,1335.506,1335.7597,1336.6311,space,0.862,,1336.6311,88,18,1337.6311,1337.6311,1337.6317,,,,0,2,2,2,1,175,105,,,,,,,,
,,65ae78fc9cd81e8e26612cb2,65af5e862cf40634cd5d71c7,2024-01-23_07h41.46.030,bars,2023.2.3,Win32,142.8571429,657b66ea316d21385b68909f,,,,,,,,,,,1337.6319,1338.6311,,,1339.1311,1339.3812,,23,203,,,,,,,,,,,,,,,,bars/041.png,bars/mask001.png,,,,,,,,,,,,4,1,,,,,,,6,6,4,7,,,,,,,,,,,1338.6311,1339.1311,1339.3812,1342.9963,space,3.6064,,1342.9963,3,62,1343.9925,1343.9925,1343.998,,,,0,3,3,3,1,20,85,,,,,,,,
,,65ae78fc9cd81e8e26612cb2,65af5e862cf40634cd5d71c7,2024-01-23_07h41.46.030,bars,2023.2.3,Win32,142.8571429,657b66ea316d21385b68909f,,,,,,,,,,,1343.9981,1344.9996,,,1345.4995,1345.7496,,150,-30,,,,,,,,,,,,,,,,bars/001.png,bars/mask006.png,,,,,,,,,,,,2,1,,,,,,,4,8,5,7,,,,,,,,,,,1344.9996,1345.4995,1345.7496,1348.8956,space,3.1319,,1348.8956,20,65,1349.8957,1349.8957,1349.9006,,,,0,4,4,4,1,130,85,,,,,,,,
,,65ae78fc9cd81e8e26612cb2,65af5e862cf40634cd5d71c7,2024-01-23_07h41.46.030,bars,2023.2.3,Win32,142.8571429,657b66ea316d21385b68909f,,,,,,,,,,,1349.9007,1350.8957,,,1351.3957,1351.6458,,141,141,,,,,,,,,,,,,,,,bars/046.png,bars/mask003.png,,,,,,,,,,,,1,1,,,,,,,2,6,1,6,,,,,,,,,,,1350.8957,1351.3957,1351.6458,1353,space,1.3399,,1353,14,56,1354,1354,1354.0004,,,,0,5,5,5,1,155,85,,,,,,,,
,,65ae78fc9cd81e8e26612cb2,65af5e862cf40634cd5d71c7,2024-01-23_07h41.46.030,bars,2023.2.3,Win32,142.8571429,657b66ea316d21385b68909f,,,,,,,,,,,1354.0004,1355,,,1355.5001,1355.7501,,162,-18,,,,,,,,,,,,,,,,bars/022.png,bars/mask000.png,,,,,,,,,,,,0,2,,,,,,,4,4,3,6,,,,,,,,,,,1355,1355.5001,1355.7502,1357.3198,space,1.5573,,1357.3198,67,38,1358.3197,1358.3197,1358.3205,,,,0,6,6,6,1,95,20,,,,,,,,
,,65ae78fc9cd81e8e26612cb2,65af5e862cf40634cd5d71c7,2024-01-23_07h41.46.030,bars,2023.2.3,Win32,142.8571429,657b66ea316d21385b68909f,,,,,,,,,,,1358.3207,1359.3198,,,1359.8198,1360.0699,,2,2,,,,,,,,,,,,,,,,bars/045.png,bars/mask004.png,,,,,,,,,,,,1,2,,,,,,,2,2,1,1,,,,,,,,,,,1359.3198,1359.8198,1360.0699,1361.1046,space,1.0224,,1361.1047,82,8,1362.1046,1362.1046,1362.105,,,,0,7,7,7,1,100,10,,,,,,,,
,,65ae78fc9cd81e8e26612cb2,65af5e862cf40634cd5d71c7,2024-01-23_07h41.46.030,bars,2023.2.3,Win32,142.8571429,657b66ea316d21385b68909f,,,,,,,,,,,1362.105,1363.1047,,,1363.6047,1363.8566,,102,102,,,,,,,,,,,,,,,,bars/041.png,bars/mask006.png,,,,,,,,,,,,1,2,,,,,,,4,4,3,3,,,,,,,,,,,1363.1047,1363.6047,1363.8566,1366.0991,space,2.2306,,1366.0991,82,17,1367.1017,1367.1017,1367.1067,,,,0,8,8,8,1,20,85,,,,,,,,
,,65ae78fc9cd81e8e26612cb2,65af5e862cf40634cd5d71c7,2024-01-23_07h41.46.030,bars,2023.2.3,Win32,142.8571429,657b66ea316d21385b68909f,,,,,,,,,,,1367.1068,1368.1049,,,1368.605,1368.855,,37,37,,,,,,,,,,,,,,,,bars/031.png,bars/mask005.png,,,,,,,,,,,,7,2,,,,,,,2,6,3,7,,,,,,,,,,,1368.1049,1368.605,1368.8551,1370.227,space,1.3634,,1370.227,83,2,1371.2232,1371.2232,1371.2283,,,,0,9,9,9,1,120,35,,,,,,,,
,,65ae78fc9cd81e8e26612cb2,65af5e862cf40634cd5d71c7,2024-01-23_07h41.46.030,bars,2023.2.3,Win32,142.8571429,657b66ea316d21385b68909f,,,,,,,,,,,1371.2284,1372.2233,,,1372.7233,1372.9733,,111,111,,,,,,,,,,,,,,,,bars/036.png,bars/mask009.png,,,,,,,,,,,,0,1,,,,,,,4,8,4,8,,,,,,,,,,,1372.2233,1372.7233,1372.9733,1376.2722,space,3.2864,,1376.2722,34,89,1377.2721,1377.2721,1377.2775,,,,0,10,10,10,1,145,20,,,,,,,,
,,65ae78fc9cd81e8e26612cb2,65af5e862cf40634cd5d71c7,2024-01-23_07h41.46.030,bars,2023.2.3,Win32,142.8571429,657b66ea316d21385b68909f,,,,,,,,,,,1377.2776,1378.2791,,,1378.7791,1379.0292,,131,131,,,,,,,,,,,,,,,,bars/034.png,bars/mask007.png,,,,,,,,,,,,5,1,,,,,,,6,6,6,6,,,,,,,,,,,1378.2791,1378.7791,1379.0292,1381.4044,space,2.3663,,1381.4044,6,66,1382.4044,1382.4044,1382.4093,,,,0,11,11,11,1,125,65,,,,,,,,
,,65ae78fc9cd81e8e26612cb2,65af5e862cf40634cd5d71c7,2024-01-23_07h41.46.030,bars,2023.2.3,Win32,142.8571429,657b66ea316d21385b68909f,,,,,,,,,,,1382.4094,1383.4045,,,1383.9044,1384.1545,,64,64,,,,,,,,,,,,,,,,bars/031.png,bars/mask004.png,,,,,,,,,,,,0,2,,,,,,,4,4,3,3,,,,,,,,,,,1383.4045,1383.9044,1384.1545,1387.1616,space,2.9931,,1387.1616,56,29,1388.1616,1388.1616,1388.167,,,,0,12,12,12,1,120,35,,,,,,,,
,,65ae78fc9cd81e8e26612cb2,65af5e862cf40634cd5d71c7,2024-01-23_07h41.46.030,bars,2023.2.3,Win32,142.8571429,657b66ea316d21385b68909f,,,,,,,,,,,1388.1672,1389.1686,,,1389.6687,1389.9187,,79,79,,,,,,,,,,,,,,,,bars/034.png,bars/mask002.png,,,,,,,,,,,,3,2,,,,,,,2,6,1,6,,,,,,,,,,,1389.1686,1389.6687,1389.9187,1392.912,space,2.9808,,1392.912,46,14,1393.9119,1393.9119,1393.9169,,,,0,13,13,13,1,125,65,,,,,,,,
,,65ae78fc9cd81e8e26612cb2,65af5e862cf40634cd5d71c7,2024-01-23_07h41.46.030,bars,2023.2.3,Win32,142.8571429,657b66ea316d21385b68909f,,,,,,,,,,,1393.917,1394.912,,,1395.412,1395.662,,102,102,,,,,,,,,,,,,,,,bars/032.png,bars/mask002.png,,,,,,,,,,,,0,1,,,,,,,0,8,0,8,,,,,,,,,,,1394.912,1395.412,1395.662,1398.7109,space,3.0372,,1398.7109,23,82,1399.7109,1399.7109,1399.7163,,,,0,14,14,14,1,125,20,,,,,,,,
,,65ae78fc9cd81e8e26612cb2,65af5e862cf40634cd5d71c7,2024-01-23_07h41.46.030,bars,2023.2.3,Win32,142.8571429,657b66ea316d21385b68909f,,,,,,,,,,,1399.7164,1400.7143,,,1401.211,1401.4609,,109,109,,,,,,,,,,,,,,,,bars/020.png,bars/mask008.png,,,,,,,,,,,,0,1,,,,,,,0,6,0,6,,,,,,,,,,,1400.7143,1401.211,1401.461,1403.6764,space,2.2135,,1403.6764,6,61,1404.6764,1404.6765,1404.6767,,,,0,15,15,15,1,115,170,,,,,,,,
,,65ae78fc9cd81e8e26612cb2,65af5e862cf40634cd5d71c7,2024-01-23_07h41.46.030,bars,2023.2.3,Win32,142.8571429,657b66ea316d21385b68909f,,,,,,,,,,,1404.6768,1405.6765,,,1406.1765,1406.4265,,55,55,,,,,,,,,,,,,,,,bars/010.png,bars/mask007.png,,,,,,,,,,,,9,2,,,,,,,2,8,3,9,,,,,,,,,,,1405.6765,1406.1765,1406.4265,1408.7461,space,2.3072,,1408.7461,70,0,1409.7462,1409.7462,1409.7516,,,,0,16,16,16,1,165,55,,,,,,,,
,,65ae78fc9cd81e8e26612cb2,65af5e862cf40634cd5d71c7,2024-01-23_07h41.46.030,bars,2023.2.3,Win32,142.8571429,657b66ea316d21385b68909f,,,,,,,,,,,1409.7516,1410.7531,,,1411.2532,1411.5031,,117,117,,,,,,,,,,,,,,,,bars/034.png,bars/mask007.png,,,,,,,,,,,,1,1,,,,,,,0,10,1,10,,,,,,,,,,,1410.7531,1411.2532,1411.5032,1414.4618,space,2.9465,,1414.4618,8,52,1415.4617,1415.4617,1415.4672,,,,0,17,17,17,1,125,65,,,,,,,,
,,65ae78fc9cd81e8e26612cb2,65af5e862cf40634cd5d71c7,2024-01-23_07h41.46.030,bars,2023.2.3,Win32,142.8571429,657b66ea316d21385b68909f,,,,,,,,,,,1415.4672,1416.4687,,,1416.9688,1417.2188,,169,169,,,,,,,,,,,,,,,,bars/018.png,bars/mask006.png,,,,,,,,,,,,0,1,,,,,,,2,8,1,7,,,,,,,,,,,1416.4687,1416.9688,1417.2188,1421.476,space,4.2469,,1421.476,19,79,1422.476,1422.476,1422.481,,,,0,18,18,18,1,150,90,,,,,,,,
,,65ae78fc9cd81e8e26612cb2,65af5e862cf40634cd5d71c7,2024-01-23_07h41.46.030,bars,2023.2.3,Win32,142.8571429,657b66ea316d21385b68909f,,,,,,,,,,,1422.4811,1423.476,,,1423.9761,1424.2209,,139,139,,,,,,,,,,,,,,,,bars/003.png,bars/mask004.png,,,,,,,,,,,,5,2,,,,,,,0,6,0,5,,,,,,,,,,,1423.476,1423.9761,1424.2209,1425.5526,space,1.3204,,1425.5526,66,1,1426.5526,1426.5526,1426.5533,,,,0,19,19,19,1,25,140,,,,,,,,
,,65ae78fc9cd81e8e26612cb2,65af5e862cf40634cd5d71c7,2024-01-23_07h41.46.030,bars,2023.2.3,Win32,142.8571429,657b66ea316d21385b68909f,,,,,,,,,,,1426.5534,1427.5527,,,1428.0527,1428.3027,,22,22,,,,,,,,,,,,,,,,bars/016.png,bars/mask006.png,,,,,,,,,,,,1,1,,,,,,,2,8,2,8,,,,,,,,,,,1427.5527,1428.0527,1428.3027,1428.9208,space,0.6045,,1428.9208,18,37,1429.9209,1429.9209,1429.9215,,,,0,20,20,20,1,40,165,,,,,,,,
,,65ae78fc9cd81e8e26612cb2,65af5e862cf40634cd5d71c7,2024-01-23_07h41.46.030,bars,2023.2.3,Win32,142.8571429,657b66ea316d21385b68909f,,,,,,,,,,,1429.9216,1430.9209,,,1431.421,1431.6709,,94,94,,,,,,,,,,,,,,,,bars/022.png,bars/mask001.png,,,,,,,,,,,,5,1,,,,,,,4,10,5,10,,,,,,,,,,,1430.9209,1431.4209,1431.6709,1434.9698,space,3.285,,1434.9698,1,74,1435.9698,1435.9698,1435.975,,,,0,21,21,21,1,95,20,,,,,,,,
,,65ae78fc9cd81e8e26612cb2,65af5e862cf40634cd5d71c7,2024-01-23_07h41.46.030,bars,2023.2.3,Win32,142.8571429,657b66ea316d21385b68909f,,,,,,,,,,,1435.9751,1436.9699,,,1437.4699,1437.7199,,100,100,,,,,,,,,,,,,,,,bars/044.png,bars/mask002.png,,,,,,,,,,,,1,1,,,,,,,6,8,6,8,,,,,,,,,,,1436.9699,1437.4699,1437.72,1439.2548,space,1.5215,,1439.2548,25,55,1440.2547,1440.2548,1440.2551,,,,0,22,22,22,1,75,155,,,,,,,,
,,65ae78fc9cd81e8e26612cb2,65af5e862cf40634cd5d71c7,2024-01-23_07h41.46.030,bars,2023.2.3,Win32,142.8571429,657b66ea316d21385b68909f,,,,,,,,,,,1440.2553,1441.2549,,,1441.7549,1442.0048,,104,104,,,,,,,,,,,,,,,,bars/001.png,bars/mask002.png,,,,,,,,,,,,4,2,,,,,,,8,10,7,10,,,,,,,,,,,1441.2549,1441.7549,1442.0048,1444.1855,space,2.1683,,1444.1856,26,19,1445.1856,1445.1856,1445.191,,,,0,23,23,23,1,130,85,,,,,,,,
,,65ae78fc9cd81e8e26612cb2,65af5e862cf40634cd5d71c7,2024-01-23_07h41.46.030,bars,2023.2.3,Win32,142.8571429,657b66ea316d21385b68909f,,,,,,,,,,,1445.1911,1446.1925,,,1446.6926,1446.9426,,116,116,,,,,,,,,,,,,,,,bars/041.png,bars/mask004.png,,,,,,,,,,,,0,2,,,,,,,10,10,10,9,,,,,,,,,,,1446.1926,1446.6926,1446.9426,1449.3741,space,2.4207,,1449.3741,84,31,1450.3734,1450.3734,1450.3784,,,,0,24,24,24,1,20,85,,,,,,,,
,,65ae78fc9cd81e8e26612cb2,65af5e862cf40634cd5d71c7,2024-01-23_07h41.46.030,bars,2023.2.3,Win32,142.8571429,657b66ea316d21385b68909f,,,,,,,,,,,1450.3785,1451.3735,,,1451.8734,1452.1234,,46,46,,,,,,,,,,,,,,,,bars/048.png,bars/mask006.png,,,,,,,,,,,,8,1,,,,,,,10,10,9,9,,,,,,,,,,,1451.3735,1451.8734,1452.1234,1455.3611,space,3.2241,,1455.3611,4,51,1456.3598,1456.3598,1456.3652,,,,0,25,25,25,1,50,175,,,,,,,,
,,65ae78fc9cd81e8e26612cb2,65af5e862cf40634cd5d71c7,2024-01-23_07h41.46.030,bars,2023.2.3,Win32,142.8571429,657b66ea316d21385b68909f,,,,,,,,,,,1456.3653,1457.3668,,,1457.8668,1458.1169,,121,121,,,,,,,,,,,,,,,,bars/037.png,bars/mask004.png,,,,,,,,,,,,5,2,,,,,,,8,10,8,10,,,,,,,,,,,1457.3668,1457.8668,1458.1169,1461.6588,space,3.5278,,1461.6588,29,16,1462.6587,1462.6587,1462.6641,,,,0,26,26,26,1,150,105,,,,,,,,
,,65ae78fc9cd81e8e26612cb2,65af5e862cf40634cd5d71c7,2024-01-23_07h41.46.030,bars,2023.2.3,Win32,142.8571429,657b66ea316d21385b68909f,,,,,,,,,,,1462.6642,1463.6657,,,1464.1658,1464.4158,,153,153,,,,,,,,,,,,,,,,bars/037.png,bars/mask002.png,,,,,,,,,,,,6,1,,,,,,,6,8,7,8,,,,,,,,,,,1463.6657,1464.1658,1464.4158,1465.7839,space,1.3541,,1465.7839,3,48,1466.784,1466.784,1466.7847,,,,0,27,27,27,1,150,105,,,,,,,,
,,65ae78fc9cd81e8e26612cb2,65af5e862cf40634cd5d71c7,2024-01-23_07h41.46.030,bars,2023.2.3,Win32,142.8571429,657b66ea316d21385b68909f,,,,,,,,,,,1466.7848,1467.784,,,1468.284,1468.5341,,122,122,,,,,,,,,,,,,,,,bars/025.png,bars/mask004.png,,,,,,,,,,,,2,1,,,,,,,4,6,4,6,,,,,,,,,,,1467.784,1468.284,1468.5341,1474.6873,space,6.1413,,1474.6873,17,82,1475.6872,1475.6872,1475.6926,,,,0,28,28,28,1,105,40,,,,,,,,
,,65ae78fc9cd81e8e26612cb2,65af5e862cf40634cd5d71c7,2024-01-23_07h41.46.030,bars,2023.2.3,Win32,142.8571429,657b66ea316d21385b68909f,,,,,,,,,,,1475.6926,1476.6942,,,1477.1943,1477.4443,,14,14,,,,,,,,,,,,,,,,bars/039.png,bars/mask004.png,,,,,,,,,,,,2,1,,,,,,,6,4,6,4,,,,,,,,,,,1476.6943,1477.1943,1477.4443,1479.3402,space,1.8853,,1479.3403,19,89,1480.3414,1480.3414,1480.3418,,,,0,29,29,29,1,175,105,,,,,,,,
,,65ae78fc9cd81e8e26612cb2,65af5e862cf40634cd5d71c7,2024-01-23_07h41.46.030,bars,2023.2.3,Win32,142.8571429,657b66ea316d21385b68909f,,,,,,,,,,,1480.3419,1481.3404,,,1481.8404,1482.0904,,50,50,,,,,,,,,,,,,,,,bars/035.png,bars/mask004.png,,,,,,,,,,,,5,2,,,,,,,8,6,10,7,,,,,,,,,,,1481.3404,1481.8404,1482.0904,1485.1253,space,3.023,,1485.1253,55,10,1486.1253,1486.1254,1486.1307,,,,0,30,30,30,1,175,60,,,,,,,,
,,65ae78fc9cd81e8e26612cb2,65af5e862cf40634cd5d71c7,2024-01-23_07h41.46.030,bars,2023.2.3,Win32,142.8571429,657b66ea316d21385b68909f,,,,,,,,,,,1486.1308,1487.1323,,,1487.6327,1487.8823,,152,-28,,,,,,,,,,,,,,,,bars/016.png,bars/mask006.png,,,,,,,,,,,,2,2,,,,,,,6,4,6,4,,,,,,,,,,,1487.1323,1487.6327,1487.8824,1493.3618,space,5.4653,,1493.3618,68,13,1494.362,1494.362,1494.3671,,,,0,31,31,31,1,40,165,,,,,,,,
,,65ae78fc9cd81e8e26612cb2,65af5e862cf40634cd5d71c7,2024-01-23_07h41.46.030,bars,2023.2.3,Win32,142.8571429,657b66ea316d21385b68909f,,,,,,,,,,,1494.3671,1495.3689,,,1495.869,1496.1189,,113,113,,,,,,,,,,,,,,,,bars/037.png,bars/mask008.png,,,,,,,,,,,,2,2,,,,,,,8,2,7,3,,,,,,,,,,,1495.3689,1495.8689,1496.1189,1499.258,space,3.1266,,1499.2581,37,8,1500.258,1500.2581,1500.263,,,,0,32,32,32,1,150,105,,,,,,,,
,,65ae78fc9cd81e8e26612cb2,65af5e862cf40634cd5d71c7,2024-01-23_07h41.46.030,bars,2023.2.3,Win32,142.8571429,657b66ea316d21385b68909f,,,,,,,,,,,1500.2631,1501.2581,,,1501.7581,1502.0081,,125,125,,,,,,,,,,,,,,,,bars/023.png,bars/mask003.png,,,,,,,,,,,,3,2,,,,,,,10,4,9,5,,,,,,,,,,,1501.2581,1501.7581,1502.0082,1505.2653,space,3.2446,,1505.2653,75,10,1506.2689,1506.2689,1506.2738,,,,0,33,33,33,1,20,115,,,,,,,,
,,65ae78fc9cd81e8e26612cb2,65af5e862cf40634cd5d71c7,2024-01-23_07h41.46.030,bars,2023.2.3,Win32,142.8571429,657b66ea316d21385b68909f,,,,,,,,,,,1506.2739,1507.2759,,,1507.7723,1508.0224,,35,215,,,,,,,,,,,,,,,,bars/009.png,bars/mask002.png,,,,,,,,,,,,3,1,,,,,,,10,6,10,7,,,,,,,,,,,1507.276,1507.7723,1508.0224,1513.5019,space,5.469,,1513.5019,20,70,1514.5018,1514.5018,1514.5073,,,,0,34,34,34,1,15,105,,,,,,,,
,,65ae78fc9cd81e8e26612cb2,65af5e862cf40634cd5d71c7,2024-01-23_07h41.46.030,bars,2023.2.3,Win32,142.8571429,657b66ea316d21385b68909f,,,,,,,,,,,1514.5074,1515.5037,,,1516.0038,1516.2519,,146,-34,,,,,,,,,,,,,,,,bars/003.png,bars/mask008.png,,,,,,,,,,,,7,2,,,,,,,8,8,9,9,,,,,,,,,,,1515.5037,1516.0038,1516.2519,1521.7802,space,5.5195,,1521.7802,59,6,1522.7801,1522.7801,1522.7856,,,,0,35,35,35,1,25,140,,,,,,,,
,,65ae78fc9cd81e8e26612cb2,65af5e862cf40634cd5d71c7,2024-01-23_07h41.46.030,bars,2023.2.3,Win32,142.8571429,657b66ea316d21385b68909f,,,,,,,,,,,1522.7856,1523.7871,,,1524.2872,1524.5372,,89,89,,,,,,,,,,,,,,,,bars/006.png,bars/mask006.png,,,,,,,,,,,,4,2,,,,,,,10,6,10,6,,,,,,,,,,,1523.7871,1524.2871,1524.5372,1528.4749,space,3.9234,,1528.4749,54,11,1529.4749,1529.475,1529.4799,,,,0,36,36,36,1,35,100,,,,,,,,
,,65ae78fc9cd81e8e26612cb2,65af5e862cf40634cd5d71c7,2024-01-23_07h41.46.030,bars,2023.2.3,Win32,142.8571429,657b66ea316d21385b68909f,,,,,,,,,,,1529.48,1530.475,,,1530.975,1531.225,,83,83,,,,,,,,,,,,,,,,bars/039.png,bars/mask003.png,,,,,,,,,,,,2,2,,,,,,,10,8,10,8,,,,,,,,,,,1530.475,1530.975,1531.225,1534.1974,space,2.9623,,1534.1974,88,22,1535.1974,1535.1974,1535.2025,,,,0,37,37,37,1,175,105,,,,,,,,
,,65ae78fc9cd81e8e26612cb2,65af5e862cf40634cd5d71c7,2024-01-23_07h41.46.030,bars,2023.2.3,Win32,142.8571429,657b66ea316d21385b68909f,,,,,,,,,,,1535.2026,1536.1975,,,1536.6976,1536.9475,,165,-15,,,,,,,,,,,,,,,,bars/003.png,bars/mask006.png,,,,,,,,,,,,2,2,,,,,,,8,10,8,10,,,,,,,,,,,1536.1975,1536.6975,1536.9475,1540.6006,space,3.6407,,1540.6006,40,25,1541.6006,1541.6006,1541.6056,,,,0,38,38,38,1,25,140,,,,,,,,
,,65ae78fc9cd81e8e26612cb2,65af5e862cf40634cd5d71c7,2024-01-23_07h41.46.030,bars,2023.2.3,Win32,142.8571429,657b66ea316d21385b68909f,,,,,,,,,,,1541.6056,1542.6006,,,1543.1007,1543.3506,,20,200,,,,,,,,,,,,,,,,bars/021.png,bars/mask000.png,,,,,,,,,,,,0,1,,,,,,,10,8,10,9,,,,,,,,,,,1542.6006,1543.1007,1543.3506,1547.9413,space,4.5808,,1547.9413,45,50,1548.9412,1548.9412,1548.9467,,,,0,39,39,39,1,155,70,,,,,,,,
,,65ae78fc9cd81e8e26612cb2,65af5e862cf40634cd5d71c7,2024-01-23_07h41.46.030,bars,2023.2.3,Win32,142.8571429,657b66ea316d21385b68909f,,,,,,,,,,,1548.9468,1549.9482,,,1550.4483,1550.6982,,101,101,,,,,,,,,,,,,,,,bars/011.png,bars/mask003.png,,,,,,,,,,,,3,2,,,,,,,10,6,9,6,,,,,,,,,,,1549.9482,1550.4483,1550.6983,1552.3555,space,1.6486,,1552.3556,59,16,1553.3512,1553.3512,1553.3566,,,,0,40,40,40,1,160,85,,,,,,,,
,,65ae78fc9cd81e8e26612cb2,65af5e862cf40634cd5d71c7,2024-01-23_07h41.46.030,bars,2023.2.3,Win32,142.8571429,657b66ea316d21385b68909f,,,,,,,,,,,1553.3566,1554.353,,,1554.8513,1555.1013,,171,-9,,,,,,,,,,,,,,,,bars/049.png,bars/mask009.png,,,,,,,,,,,,6,1,,,,,,,10,8,10,7,,,,,,,,,,,1554.353,1554.8513,1555.1013,1557.1917,space,2.0746,,1557.1917,11,56,1558.1917,1558.1917,1558.1975,,,,0,41,41,41,1,160,115,,,,,,,,
,,65ae78fc9cd81e8e26612cb2,65af5e862cf40634cd5d71c7,2024-01-23_07h41.46.030,bars,2023.2.3,Win32,142.8571429,657b66ea316d21385b68909f,,,,,,,,,,,1558.1976,1559.1988,,,1559.6988,1559.9488,,120,120,,,,,,,,,,,,,,,,bars/037.png,bars/mask009.png,,,,,,,,,,,,5,2,,,,,,,8,10,8,10,,,,,,,,,,,1559.1988,1559.6988,1559.9488,1563.1365,space,3.1728,,1563.1365,30,15,1564.1365,1564.1365,1564.1419,,,,0,42,42,42,1,150,105,,,,,,,,
,,65ae78fc9cd81e8e26612cb2,65af5e862cf40634cd5d71c7,2024-01-23_07h41.46.030,bars,2023.2.3,Win32,142.8571429,657b66ea316d21385b68909f,,,,,,,,,,,1564.1421,1565.1435,,,1565.6436,1565.8936,,61,61,,,,,,,,,,,,,,,,bars/013.png,bars/mask002.png,,,,,,,,,,,,3,1,,,,,,,6,8,5,8,,,,,,,,,,,1565.1436,1565.6435,1565.8936,1569.4562,space,3.5481,,1569.4563,14,51,1570.4599,1570.4599,1570.4653,,,,0,43,43,43,1,75,10,,,,,,,,
,,65ae78fc9cd81e8e26612cb2,65af5e862cf40634cd5d71c7,2024-01-23_07h41.46.030,bars,2023.2.3,Win32,142.8571429,657b66ea316d21385b68909f,,,,,,,,,,,1570.4654,1571.4633,,,1571.9634,1572.2134,,8,8,,,,,,,,,,,,,,,,bars/032.png,bars/mask003.png,,,,,,,,,,,,6,2,,,,,,,4,10,3,10,,,,,,,,,,,1571.4634,1571.9634,1572.2134,1573.8315,space,1.6118,,1573.8316,63,12,1574.8315,1574.8316,1574.8323,,,,0,44,44,44,1,125,20,,,,,,,,
,,65ae78fc9cd81e8e26612cb2,65af5e862cf40634cd5d71c7,2024-01-23_07h41.46.030,bars,2023.2.3,Win32,142.8571429,657b66ea316d21385b68909f,,,,,,,,,,,1574.8324,1575.8316,,,1576.3317,1576.5816,,48,48,,,,,,,,,,,,,,,,bars/043.png,bars/mask001.png,,,,,,,,,,,,3,1,,,,,,,6,8,7,8,,,,,,,,,,,1575.8316,1576.3316,1576.5817,1578.2484,space,1.6525,,1578.2484,18,82,1579.2485,1579.2485,1579.2539,,,,0,45,45,45,1,30,130,,,,,,,,
,,65ae78fc9cd81e8e26612cb2,65af5e862cf40634cd5d71c7,2024-01-23_07h41.46.030,bars,2023.2.3,Win32,142.8571429,657b66ea316d21385b68909f,,,,,,,,,,,1579.254,1580.2554,,,1580.7555,1581.0055,,35,35,,,,,,,,,,,,,,,,bars/008.png,bars/mask002.png,,,,,,,,,,,,0,2,,,,,,,4,6,4,5,,,,,,,,,,,1580.2555,1580.7555,1581.0055,1586.0613,space,5.0459,,1586.0614,75,35,1587.0614,1587.0614,1587.0672,,,,0,46,46,46,1,110,0,,,,,,,,
,,65ae78fc9cd81e8e26612cb2,65af5e862cf40634cd5d71c7,2024-01-23_07h41.46.030,bars,2023.2.3,Win32,142.8571429,657b66ea316d21385b68909f,,,,,,,,,,,1587.0673,1588.0684,,,1588.5684,1588.8184,,169,169,,,,,,,,,,,,,,,,bars/036.png,bars/mask008.png,,,,,,,,,,,,1,1,,,,,,,2,4,3,4,,,,,,,,,,,1588.0684,1588.5684,1588.8184,1591.2145,space,2.3853,,1591.2145,24,31,1592.2145,1592.2145,1592.22,,,,0,47,47,47,1,145,20,,,,,,,,
,,65ae78fc9cd81e8e26612cb2,65af5e862cf40634cd5d71c7,2024-01-23_07h41.46.030,bars,2023.2.3,Win32,142.8571429,657b66ea316d21385b68909f,,,,,,,,,,,1592.22,1593.2215,,,1593.7216,1593.9715,,74,74,,,,,,,,,,,,,,,,bars/029.png,bars/mask003.png,,,,,,,,,,,,0,1,,,,,,,0,2,0,1,,,,,,,,,,,1593.2215,1593.7215,1593.9715,1596.7287,space,2.7446,,1596.7287,16,29,1597.7286,1597.7286,1597.7336,,,,0,48,48,48,1,90,45,,,,,,,,
,,65ae78fc9cd81e8e26612cb2,65af5e862cf40634cd5d71c7,2024-01-23_07h41.46.030,bars,2023.2.3,Win32,142.8571429,657b66ea316d21385b68909f,,,,,,,,,,,1597.7337,1598.7287,,,1599.2287,1599.4787,,173,173,,,,,,,,,,,,,,,,bars/016.png,bars/mask006.png,,,,,,,,,,,,4,2,,,,,,,0,4,0,5,,,,,,,,,,,1598.7287,1599.2287,1599.4788,1601.5414,space,2.0507,,1601.5414,47,8,1602.5414,1602.5415,1602.5422,,,,0,49,49,49,1,40,165,,,,,,,,
,,65ae78fc9cd81e8e26612cb2,65af5e862cf40634cd5d71c7,2024-01-23_07h41.46.030,bars,2023.2.3,Win32,142.8571429,657b66ea316d21385b68909f,,,,,,,,,,,,,,,,,,,,,,,,,,,,,,,,,,,,,,,,,,,,,,,,,,,,,,,,,,,,,,,,,,,,,,,,,,,,,,,,,,,,,,,,,,,,,1602.5422,1662.5378,0,3,3,2,1,sequence_tables/blk047.csv
,,65ae78fc9cd81e8e26612cb2,65af5e862cf40634cd5d71c7,2024-01-23_07h41.46.030,bars,2023.2.3,Win32,142.8571429,657b66ea316d21385b68909f,,,,,,,,,,,1663.8044,1664.8018,,,1665.3018,1665.5518,,108,108,,,,,,,,,,,,,,,,bars/028.png,bars/mask003.png,,,,,,,,,,,,5,2,,,,,,,2,7,4,8,,,,,,1662.543,1663.8018,space,1.2494,,1664.8018,1665.3018,1665.5519,1667.4131,space,1.8515,,1667.4131,63,12,1668.4131,1668.4131,1668.4134,,,,0,0,0,0,1,45,120,,,,,,,,
,,65ae78fc9cd81e8e26612cb2,65af5e862cf40634cd5d71c7,2024-01-23_07h41.46.030,bars,2023.2.3,Win32,142.8571429,657b66ea316d21385b68909f,,,,,,,,,,,1668.4136,1669.4131,,,1669.9131,1670.1632,,169,169,,,,,,,,,,,,,,,,bars/044.png,bars/mask000.png,,,,,,,,,,,,3,2,,,,,,,4,5,3,5,,,,,,,,,,,1669.4131,1669.9131,1670.1632,1670.8924,space,0.7203,,1670.8925,86,14,1671.8959,1671.8959,1671.8962,,,,0,1,1,1,1,75,155,,,,,,,,
,,65ae78fc9cd81e8e26612cb2,65af5e862cf40634cd5d71c7,2024-01-23_07h41.46.030,bars,2023.2.3,Win32,142.8571429,657b66ea316d21385b68909f,,,,,,,,,,,1671.8963,1672.8924,,,1673.3925,1673.6425,,107,-73,,,,,,,,,,,,,,,,bars/020.png,bars/mask003.png,,,,,,,,,,,,5,1,,,,,,,6,7,7,8,,,,,,,,,,,1672.8925,1673.3925,1673.6425,1676.858,space,3.1998,,1676.858,8,63,1677.853,1677.853,1677.8584,,,,0,2,2,2,1,115,170,,,,,,,,
,,65ae78fc9cd81e8e26612cb2,65af5e862cf40634cd5d71c7,2024-01-23_07h41.46.030,bars,2023.2.3,Win32,142.8571429,657b66ea316d21385b68909f,,,,,,,,,,,1677.8584,1678.8581,,,1679.3581,1679.6081,,61,61,,,,,,,,,,,,,,,,bars/026.png,bars/mask002.png,,,,,,,,,,,,1,2,,,,,,,8,5,7,5,,,,,,,,,,,1678.8582,1679.3581,1679.6081,1682.2889,space,2.6654,,1682.289,26,24,1683.2888,1683.2888,1683.2945,,,,0,3,3,3,1,35,85,,,,,,,,
,,65ae78fc9cd81e8e26612cb2,65af5e862cf40634cd5d71c7,2024-01-23_07h41.46.030,bars,2023.2.3,Win32,142.8571429,657b66ea316d21385b68909f,,,,,,,,,,,1683.2945,1684.2959,,,1684.796,1685.0459,,138,-42,,,,,,,,,,,,,,,,bars/002.png,bars/mask009.png,,,,,,,,,,,,4,1,,,,,,,6,3,6,2,,,,,,,,,,,1684.2959,1684.796,1685.0459,1687.7058,space,2.6443,,1687.7058,8,53,1688.7059,1688.7059,1688.7113,,,,0,4,4,4,1,130,85,,,,,,,,
,,65ae78fc9cd81e8e26612cb2,65af5e862cf40634cd5d71c7,2024-01-23_07h41.46.030,bars,2023.2.3,Win32,142.8571429,657b66ea316d21385b68909f,,,,,,,,,,,1688.7114,1689.7129,,,1690.2129,1690.4629,,166,166,,,,,,,,,,,,,,,,bars/036.png,bars/mask009.png,,,,,,,,,,,,1,1,,,,,,,4,5,4,6,,,,,,,,,,,1689.7129,1690.2129,1690.4629,1693.0463,space,2.5705,,1693.0464,21,34,1694.0464,1694.0464,1694.0513,,,,0,5,5,5,1,145,20,,,,,,,,
,,65ae78fc9cd81e8e26612cb2,65af5e862cf40634cd5d71c7,2024-01-23_07h41.46.030,bars,2023.2.3,Win32,142.8571429,657b66ea316d21385b68909f,,,,,,,,,,,1694.0515,1695.0464,,,1695.5465,1695.7965,,26,206,,,,,,,,,,,,,,,,bars/013.png,bars/mask007.png,,,,,,,,,,,,1,2,,,,,,,2,3,3,3,,,,,,,,,,,1695.0464,1695.5465,1695.7965,1698.6856,space,2.8772,,1698.6856,49,16,1699.6856,1699.6856,1699.691,,,,0,6,6,6,1,75,10,,,,,,,,
,,65ae78fc9cd81e8e26612cb2,65af5e862cf40634cd5d71c7,2024-01-23_07h41.46.030,bars,2023.2.3,Win32,142.8571429,657b66ea316d21385b68909f,,,,,,,,,,,1699.6911,1700.6926,,,1701.1926,1701.4426,,17,197,,,,,,,,,,,,,,,,bars/014.png,bars/mask002.png,,,,,,,,,,,,1,2,,,,,,,4,1,6,2,,,,,,,,,,,1700.6926,1701.1926,1701.4426,1703.8041,space,2.3508,,1703.8041,63,17,1704.8039,1704.8039,1704.8091,,,,0,7,7,7,1,80,0,,,,,,,,
,,65ae78fc9cd81e8e26612cb2,65af5e862cf40634cd5d71c7,2024-01-23_07h41.46.030,bars,2023.2.3,Win32,142.8571429,657b66ea316d21385b68909f,,,,,,,,,,,1704.8093,1705.8109,,,1706.311,1706.561,,91,91,,,,,,,,,,,,,,,,bars/022.png,bars/mask005.png,,,,,,,,,,,,4,1,,,,,,,6,3,5,4,,,,,,,,,,,1705.8109,1706.311,1706.561,1708.9779,space,2.4043,,1708.9779,4,71,1709.9778,1709.9778,1709.9833,,,,0,8,8,8,1,95,20,,,,,,,,
,,65ae78fc9cd81e8e26612cb2,65af5e862cf40634cd5d71c7,2024-01-23_07h41.46.030,bars,2023.2.3,Win32,142.8571429,657b66ea316d21385b68909f,,,,,,,,,,,1709.9833,1710.9848,,,1711.4848,1711.7349,,22,202,,,,,,,,,,,,,,,,bars/047.png,bars/mask007.png,,,,,,,,,,,,5,1,,,,,,,8,5,7,5,,,,,,,,,,,1710.9848,1711.4848,1711.7349,1713.7351,space,1.9884,,1713.7351,7,48,1714.7351,1714.7351,1714.74,,,,0,9,9,9,1,15,70,,,,,,,,
,,65ae78fc9cd81e8e26612cb2,65af5e862cf40634cd5d71c7,2024-01-23_07h41.46.030,bars,2023.2.3,Win32,142.8571429,657b66ea316d21385b68909f,,,,,,,,,,,1714.7402,1715.7351,,,1716.2352,1716.4852,,170,170,,,,,,,,,,,,,,,,bars/014.png,bars/mask001.png,,,,,,,,,,,,3,2,,,,,,,10,3,10,4,,,,,,,,,,,1715.7351,1716.2352,1716.4852,1717.6937,space,1.1983,,1717.6937,90,10,1718.6936,1718.6936,1718.699,,,,0,10,10,10,1,80,0,,,,,,,,
,,65ae78fc9cd81e8e26612cb2,65af5e862cf40634cd5d71c7,2024-01-23_07h41.46.030,bars,2023.2.3,Win32,142.8571429,657b66ea316d21385b68909f,,,,,,,,,,,1718.6991,1719.7006,,,1720.2007,1720.4506,,9,9,,,,,,,,,,,,,,,,bars/021.png,bars/mask006.png,,,,,,,,,,,,0,1,,,,,,,10,1,10,4,,,,,,,,,,,1719.7006,1720.2006,1720.4507,1722.3327,space,1.8728,,1722.3328,34,61,1723.3357,1723.3357,1723.3413,,,,0,11,11,11,1,155,70,,,,,,,,
,,65ae78fc9cd81e8e26612cb2,65af5e862cf40634cd5d71c7,2024-01-23_07h41.46.030,bars,2023.2.3,Win32,142.8571429,657b66ea316d21385b68909f,,,,,,,,,,,1723.3414,1724.3397,,,1724.8398,1725.0898,,98,98,,,,,,,,,,,,,,,,bars/006.png,bars/mask001.png,,,,,,,,,,,,3,2,,,,,,,10,3,10,3,,,,,,,,,,,1724.3397,1724.8398,1725.0898,1727.8021,space,2.7038,,1727.8022,63,2,1728.7984,1728.7984,1728.8039,,,,0,12,12,12,1,35,100,,,,,,,,
