init_variables.started,init_variables.stopped,participant,session,date,expName,psychopyVersion,OS,frameRate,study_id,instruction_exp.started,instruction_exp.stopped,key_resp_8.keys,key_resp_8.rt,key_resp_8.duration,instruction_single.started,instruction_single.stopped,key_resp_2.keys,key_resp_2.rt,key_resp_2.duration,interval.started,interval.stopped,cue_single.started,cue_single.stopped,mask.started,mask.stopped,ori_response_single.started,res_ori,res,ori_response_single.stopped,key_resp_single.keys,key_resp_single.rt,key_resp_single.duration,disp_single.started,disp_single.stopped,key_resp.keys,key_resp.rt,key_resp.duration,single.thisRepN,single.thisTrialN,single.thisN,single.thisIndex,single.ran,ori,path,mask_path,instruction_bandit.started,instruction_bandit.stopped,key_resp_6.keys,key_resp_6.rt,key_resp_6.duration,cue_bandit.started,cue_bandit.stopped,bandit_res.keys,bandit_res.rt,bandit_res.duration,outcome_bandit.started,rew,action,outcome_bandit.stopped,bandit.thisRepN,bandit.thisTrialN,bandit.thisN,bandit.thisIndex,bandit.ran,actual_rew1,actual_rew2,rew1,rew2,instruction_task.started,instruction_task.stopped,key_resp_7.keys,key_resp_7.rt,key_resp_7.duration,wait_ready.started,wait_ready.stopped,key_resp_3.keys,key_resp_3.rt,key_resp_3.duration,cue.started,cue.stopped,ori_response.started,ori_response.stopped,key_resp_5.keys,key_resp_5.rt,key_resp_5.duration,outcome.started,diff1,diff2,outcome.stopped,disp_outcome_practice.started,disp_outcome_practice.stopped,key_resp_4.keys,key_resp_4.rt,key_resp_4.duration,trials.thisRepN,trials.thisTrialN,trials.thisN,trials.thisIndex,trials.ran,ori1,ori2,break_blk.started,break_blk.stopped,block.thisRepN,block.thisTrialN,block.thisN,block.thisIndex,block.ran,condition_file
0.0004,0.0006,6047238e77116b1a263b6dfd,65af554fb1b2d753c0180a06,2024-01-22_23h59.05.379,bars,2023.2.3,Linux x86_64,59.52380952,657b66ea316d21385b68909f,,,,,,,,,,,,,,,,,,,,,,,,,,,,,,,,,,,,,,,,,,,,,,,,,,,,,,,,,,,,,,,,,,,,,,,,,,,,,,,,,,,,,,,,,,,,,,,,,,,,
,,6047238e77116b1a263b6dfd,65af554fb1b2d753c0180a06,2024-01-22_23h59.05.379,bars,2023.2.3,Linux x86_64,59.52380952,657b66ea316d21385b68909f,0.0007,576.7704,y,576.7539,,,,,,,,,,,,,,,,,,,,,,,,,,,,,,,,,,,,,,,,,,,,,,,,,,,,,,,,,,,,,,,,,,,,,,,,,,,,,,,,,,,,,,,,,,,,,,,,
,,6047238e77116b1a263b6dfd,65af554fb1b2d753c0180a06,2024-01-22_23h59.05.379,bars,2023.2.3,Linux x86_64,59.52380952,657b66ea316d21385b68909f,,,,,,576.7706,607.3199,space,30.5287,,,,,,,,,,,,,,,,,,,,,,,,,,,,,,,,,,,,,,,,,,,,,,,,,,,,,,,,,,,,,,,,,,,,,,,,,,,,,,,,,,,,,,,,,,,
,,6047238e77116b1a263b6dfd,65af554fb1b2d753c0180a06,2024-01-22_23h59.05.379,bars,2023.2.3,Linux x86_64,59.52380952,657b66ea316d21385b68909f,,,,,,,,,,,607.3392,608.3356,608.3358,608.8364,608.8369,609.0852,609.0854,42,42,614.4028,space,5.2853,,614.4033,622.0362,space,7.6049,,0,0,0,3,1,20,bars/single003.png,bars/mask005.png,,,,,,,,,,,,,,,,,,,,,,,,,,,,,,,,,,,,,,,,,,,,,,,,,,,,,,,,,,,,,,,,
,,6047238e77116b1a263b6dfd,65af554fb1b2d753c0180a06,2024-01-22_23h59.05.379,bars,2023.2.3,Linux x86_64,59.52380952,657b66ea316d21385b68909f,,,,,,,,,,,622.0469,623.035,623.0352,623.535,623.535,623.7846,623.7847,88,88,628.2188,space,4.4216,,628.219,631.9017,space,3.6627,,0,1,1,4,1,95,bars/single004.png,bars/mask004.png,,,,,,,,,,,,,,,,,,,,,,,,,,,,,,,,,,,,,,,,,,,,,,,,,,,,,,,,,,,,,,,,
,,6047238e77116b1a263b6dfd,65af554fb1b2d753c0180a06,2024-01-22_23h59.05.379,bars,2023.2.3,Linux x86_64,59.52380952,657b66ea316d21385b68909f,,,,,,,,,,,631.9126,632.9014,632.9014,633.4012,633.4012,633.6518,633.6519,163,163,636.2346,space,2.5772,,636.2348,642.7014,space,6.4474,,0,2,2,0,1,150,bars/single000.png,bars/mask006.png,,,,,,,,,,,,,,,,,,,,,,,,,,,,,,,,,,,,,,,,,,,,,,,,,,,,,,,,,,,,,,,,
,,6047238e77116b1a263b6dfd,65af554fb1b2d753c0180a06,2024-01-22_23h59.05.379,bars,2023.2.3,Linux x86_64,59.52380952,657b66ea316d21385b68909f,,,,,,,,,,,642.713,643.7012,643.7012,644.2013,644.2013,644.4507,644.4508,31,211,649.5014,space,5.0337,,649.5015,650.9509,space,1.4194,,0,3,3,9,1,20,bars/single009.png,bars/mask006.png,,,,,,,,,,,,,,,,,,,,,,,,,,,,,,,,,,,,,,,,,,,,,,,,,,,,,,,,,,,,,,,,
,,6047238e77116b1a263b6dfd,65af554fb1b2d753c0180a06,2024-01-22_23h59.05.379,bars,2023.2.3,Linux x86_64,59.52380952,657b66ea316d21385b68909f,,,,,,,,,,,650.9515,651.9512,651.9514,652.451,652.4511,652.7013,652.7014,155,155,657.3513,space,4.6326,,657.3516,658.6845,space,1.313,,0,4,4,8,1,160,bars/single008.png,bars/mask004.png,,,,,,,,,,,,,,,,,,,,,,,,,,,,,,,,,,,,,,,,,,,,,,,,,,,,,,,,,,,,,,,,
,,6047238e77116b1a263b6dfd,65af554fb1b2d753c0180a06,2024-01-22_23h59.05.379,bars,2023.2.3,Linux x86_64,59.52380952,657b66ea316d21385b68909f,,,,,,,,,,,658.6856,659.685,659.6851,660.1839,660.1839,660.4341,660.4341,142,142,665.4341,space,4.9859,,665.4341,668.017,space,2.5543,,0,5,5,2,1,145,bars/single002.png,bars/mask003.png,,,,,,,,,,,,,,,,,,,,,,,,,,,,,,,,,,,,,,,,,,,,,,,,,,,,,,,,,,,,,,,,
,,6047238e77116b1a263b6dfd,65af554fb1b2d753c0180a06,2024-01-22_23h59.05.379,bars,2023.2.3,Linux x86_64,59.52380952,657b66ea316d21385b68909f,,,,,,,,,,,668.0173,669.0167,669.0168,669.5172,669.5173,669.7678,669.7678,37,217,673.9671,space,4.1812,,673.9672,676.3185,space,2.3236,,0,6,6,5,1,55,bars/single005.png,bars/mask008.png,,,,,,,,,,,,,,,,,,,,,,,,,,,,,,,,,,,,,,,,,,,,,,,,,,,,,,,,,,,,,,,,
,,6047238e77116b1a263b6dfd,65af554fb1b2d753c0180a06,2024-01-22_23h59.05.379,bars,2023.2.3,Linux x86_64,59.52380952,657b66ea316d21385b68909f,,,,,,,,,,,676.3189,677.3165,677.3165,677.8168,677.8168,678.0666,678.0666,4,184,682.4177,space,4.3347,,682.4178,684.984,space,2.5358,,0,7,7,6,1,175,bars/single006.png,bars/mask005.png,,,,,,,,,,,,,,,,,,,,,,,,,,,,,,,,,,,,,,,,,,,,,,,,,,,,,,,,,,,,,,,,
,,6047238e77116b1a263b6dfd,65af554fb1b2d753c0180a06,2024-01-22_23h59.05.379,bars,2023.2.3,Linux x86_64,59.52380952,657b66ea316d21385b68909f,,,,,,,,,,,684.9847,685.9834,685.9835,686.4836,686.4836,686.7334,686.7335,27,207,691.1664,space,4.423,,691.1664,695.0342,space,3.8512,,0,8,8,1,1,20,bars/single001.png,bars/mask006.png,,,,,,,,,,,,,,,,,,,,,,,,,,,,,,,,,,,,,,,,,,,,,,,,,,,,,,,,,,,,,,,,
,,6047238e77116b1a263b6dfd,65af554fb1b2d753c0180a06,2024-01-22_23h59.05.379,bars,2023.2.3,Linux x86_64,59.52380952,657b66ea316d21385b68909f,,,,,,,,,,,695.0454,696.0333,696.0334,696.5333,696.5334,696.7838,696.7839,28,28,700.1665,space,3.3667,,700.1666,701.8333,space,1.651,,0,9,9,7,1,45,bars/single007.png,bars/mask009.png,,,,,,,,,,,,,,,,,,,,,,,,,,,,,,,,,,,,,,,,,,,,,,,,,,,,,,,,,,,,,,,,
,,6047238e77116b1a263b6dfd,65af554fb1b2d753c0180a06,2024-01-22_23h59.05.379,bars,2023.2.3,Linux x86_64,59.52380952,657b66ea316d21385b68909f,,,,,,,,,,,,,,,,,,,,,,,,,,,,,,,,,,,,,701.8348,710.617,space,8.7664,,,,,,,,,,,,,,,,,,,,,,,,,,,,,,,,,,,,,,,,,,,,,,,,,,,,,,,,,,,,
,,6047238e77116b1a263b6dfd,65af554fb1b2d753c0180a06,2024-01-22_23h59.05.379,bars,2023.2.3,Linux x86_64,59.52380952,657b66ea316d21385b68909f,,,,,,,,,,,,,,,,,,,,,,,,,,,,,,,,,,,,,,,,,,710.6311,713.6503,left,3,,713.6509,9,1,714.6511,0,0,0,0,1,9,1,9,2,,,,,,,,,,,,,,,,,,,,,,,,,,,,,,,,,,,,,,,,,
,,6047238e77116b1a263b6dfd,65af554fb1b2d753c0180a06,2024-01-22_23h59.05.379,bars,2023.2.3,Linux x86_64,59.52380952,657b66ea316d21385b68909f,,,,,,,,,,,,,,,,,,,,,,,,,,,,,,,,,,,,,,,,,,714.6516,715.6165,right,0.9492,,715.6167,1,2,716.6159,0,1,1,1,1,10,0,10,1,,,,,,,,,,,,,,,,,,,,,,,,,,,,,,,,,,,,,,,,,
,,6047238e77116b1a263b6dfd,65af554fb1b2d753c0180a06,2024-01-22_23h59.05.379,bars,2023.2.3,Linux x86_64,59.52380952,657b66ea316d21385b68909f,,,,,,,,,,,,,,,,,,,,,,,,,,,,,,,,,,,,,,,,,,716.6164,717.1163,left,0.4913,,717.1163,10,1,718.116,0,2,2,2,1,10,2,10,2,,,,,,,,,,,,,,,,,,,,,,,,,,,,,,,,,,,,,,,,,
,,6047238e77116b1a263b6dfd,65af554fb1b2d753c0180a06,2024-01-22_23h59.05.379,bars,2023.2.3,Linux x86_64,59.52380952,657b66ea316d21385b68909f,,,,,,,,,,,,,,,,,,,,,,,,,,,,,,,,,,,,,,,,,,718.1164,718.6165,left,0.4861,,718.6165,7,1,719.6163,0,3,3,3,1,8,4,7,3,,,,,,,,,,,,,,,,,,,,,,,,,,,,,,,,,,,,,,,,,
,,6047238e77116b1a263b6dfd,65af554fb1b2d753c0180a06,2024-01-22_23h59.05.379,bars,2023.2.3,Linux x86_64,59.52380952,657b66ea316d21385b68909f,,,,,,,,,,,,,,,,,,,,,,,,,,,,,,,,,,,,,,,,,,719.617,720.6164,right,0.9866,,720.6165,1,2,721.6163,0,4,4,4,1,6,2,5,1,,,,,,,,,,,,,,,,,,,,,,,,,,,,,,,,,,,,,,,,,
,,6047238e77116b1a263b6dfd,65af554fb1b2d753c0180a06,2024-01-22_23h59.05.379,bars,2023.2.3,Linux x86_64,59.52380952,657b66ea316d21385b68909f,,,,,,,,,,,,,,,,,,,,,,,,,,,,,,,,,,,,,,,,,,721.6172,721.8331,left,0.2109,,721.8331,4,1,722.8327,0,5,5,5,1,4,4,4,4,,,,,,,,,,,,,,,,,,,,,,,,,,,,,,,,,,,,,,,,,
,,6047238e77116b1a263b6dfd,65af554fb1b2d753c0180a06,2024-01-22_23h59.05.379,bars,2023.2.3,Linux x86_64,59.52380952,657b66ea316d21385b68909f,,,,,,,,,,,,,,,,,,,,,,,,,,,,,,,,,,,,,,,,,,722.8331,723.2494,left,0.4102,,723.2495,1,1,724.2495,0,6,6,6,1,2,2,1,2,,,,,,,,,,,,,,,,,,,,,,,,,,,,,,,,,,,,,,,,,
,,6047238e77116b1a263b6dfd,65af554fb1b2d753c0180a06,2024-01-22_23h59.05.379,bars,2023.2.3,Linux x86_64,59.52380952,657b66ea316d21385b68909f,,,,,,,,,,,,,,,,,,,,,,,,,,,,,,,,,,,,,,,,,,724.2501,724.3492,right,0.0895,,724.3493,1,2,725.3504,0,7,7,7,1,0,0,0,1,,,,,,,,,,,,,,,,,,,,,,,,,,,,,,,,,,,,,,,,,
,,6047238e77116b1a263b6dfd,65af554fb1b2d753c0180a06,2024-01-22_23h59.05.379,bars,2023.2.3,Linux x86_64,59.52380952,657b66ea316d21385b68909f,,,,,,,,,,,,,,,,,,,,,,,,,,,,,,,,,,,,,,,,,,725.3508,725.8826,right,0.517,,725.8827,0,2,726.8832,0,8,8,8,1,0,2,1,0,,,,,,,,,,,,,,,,,,,,,,,,,,,,,,,,,,,,,,,,,
,,6047238e77116b1a263b6dfd,65af554fb1b2d753c0180a06,2024-01-22_23h59.05.379,bars,2023.2.3,Linux x86_64,59.52380952,657b66ea316d21385b68909f,,,,,,,,,,,,,,,,,,,,,,,,,,,,,,,,,,,,,,,,,,726.8841,727.217,left,0.3198,,727.2171,2,1,728.2161,0,9,9,9,1,2,4,2,3,,,,,,,,,,,,,,,,,,,,,,,,,,,,,,,,,,,,,,,,,
,,6047238e77116b1a263b6dfd,65af554fb1b2d753c0180a06,2024-01-22_23h59.05.379,bars,2023.2.3,Linux x86_64,59.52380952,657b66ea316d21385b68909f,,,,,,,,,,,,,,,,,,,,,,,,,,,,,,,,,,,,,,,,,,728.2165,728.4997,left,0.267,,728.4999,0,1,729.499,0,10,10,10,1,0,2,0,3,,,,,,,,,,,,,,,,,,,,,,,,,,,,,,,,,,,,,,,,,
,,6047238e77116b1a263b6dfd,65af554fb1b2d753c0180a06,2024-01-22_23h59.05.379,bars,2023.2.3,Linux x86_64,59.52380952,657b66ea316d21385b68909f,,,,,,,,,,,,,,,,,,,,,,,,,,,,,,,,,,,,,,,,,,729.4995,729.5995,right,0.0879,,729.5995,3,2,730.599,0,11,11,11,1,0,4,0,3,,,,,,,,,,,,,,,,,,,,,,,,,,,,,,,,,,,,,,,,,
,,6047238e77116b1a263b6dfd,65af554fb1b2d753c0180a06,2024-01-22_23h59.05.379,bars,2023.2.3,Linux x86_64,59.52380952,657b66ea316d21385b68909f,,,,,,,,,,,,,,,,,,,,,,,,,,,,,,,,,,,,,,,,,,730.5993,730.8828,right,0.2691,,730.8829,6,2,731.8829,0,12,12,12,1,2,6,1,6,,,,,,,,,,,,,,,,,,,,,,,,,,,,,,,,,,,,,,,,,
,,6047238e77116b1a263b6dfd,65af554fb1b2d753c0180a06,2024-01-22_23h59.05.379,bars,2023.2.3,Linux x86_64,59.52380952,657b66ea316d21385b68909f,,,,,,,,,,,,,,,,,,,,,,,,,,,,,,,,,,,,,,,,,,731.8833,731.9659,right,0.0649,,731.966,3,2,732.9659,0,13,13,13,1,0,4,1,3,,,,,,,,,,,,,,,,,,,,,,,,,,,,,,,,,,,,,,,,,
,,6047238e77116b1a263b6dfd,65af554fb1b2d753c0180a06,2024-01-22_23h59.05.379,bars,2023.2.3,Linux x86_64,59.52380952,657b66ea316d21385b68909f,,,,,,,,,,,,,,,,,,,,,,,,,,,,,,,,,,,,,,,,,,732.9663,733.0993,right,0.1256,,733.0994,7,2,734.0992,0,14,14,14,1,2,6,2,7,,,,,,,,,,,,,,,,,,,,,,,,,,,,,,,,,,,,,,,,,
,,6047238e77116b1a263b6dfd,65af554fb1b2d753c0180a06,2024-01-22_23h59.05.379,bars,2023.2.3,Linux x86_64,59.52380952,657b66ea316d21385b68909f,,,,,,,,,,,,,,,,,,,,,,,,,,,,,,,,,,,,,,,,,,734.0999,734.8495,right,0.7436,,734.8495,9,2,735.8492,0,15,15,15,1,4,8,3,9,,,,,,,,,,,,,,,,,,,,,,,,,,,,,,,,,,,,,,,,,
,,6047238e77116b1a263b6dfd,65af554fb1b2d753c0180a06,2024-01-22_23h59.05.379,bars,2023.2.3,Linux x86_64,59.52380952,657b66ea316d21385b68909f,,,,,,,,,,,,,,,,,,,,,,,,,,,,,,,,,,,,,,,,,,735.8496,736.0004,right,0.1398,,736.0004,7,2,736.9992,0,16,16,16,1,6,6,7,7,,,,,,,,,,,,,,,,,,,,,,,,,,,,,,,,,,,,,,,,,
,,6047238e77116b1a263b6dfd,65af554fb1b2d753c0180a06,2024-01-22_23h59.05.379,bars,2023.2.3,Linux x86_64,59.52380952,657b66ea316d21385b68909f,,,,,,,,,,,,,,,,,,,,,,,,,,,,,,,,,,,,,,,,,,737.0003,737.1494,right,0.1395,,737.1496,5,2,738.149,0,17,17,17,1,8,4,9,5,,,,,,,,,,,,,,,,,,,,,,,,,,,,,,,,,,,,,,,,,
,,6047238e77116b1a263b6dfd,65af554fb1b2d753c0180a06,2024-01-22_23h59.05.379,bars,2023.2.3,Linux x86_64,59.52380952,657b66ea316d21385b68909f,,,,,,,,,,,,,,,,,,,,,,,,,,,,,,,,,,,,,,,,,,738.1494,738.2661,right,0.1014,,738.2662,1,2,739.2656,0,18,18,18,1,6,2,5,1,,,,,,,,,,,,,,,,,,,,,,,,,,,,,,,,,,,,,,,,,
,,6047238e77116b1a263b6dfd,65af554fb1b2d753c0180a06,2024-01-22_23h59.05.379,bars,2023.2.3,Linux x86_64,59.52380952,657b66ea316d21385b68909f,,,,,,,,,,,,,,,,,,,,,,,,,,,,,,,,,,,,,,,,,,739.266,740.4657,right,1.1925,,740.4658,0,2,741.4653,0,19,19,19,1,8,0,7,0,,,,,,,,,,,,,,,,,,,,,,,,,,,,,,,,,,,,,,,,,
,,6047238e77116b1a263b6dfd,65af554fb1b2d753c0180a06,2024-01-22_23h59.05.379,bars,2023.2.3,Linux x86_64,59.52380952,657b66ea316d21385b68909f,,,,,,,,,,,,,,,,,,,,,,,,,,,,,,,,,,,,,,,,,,,,,,,,,,,,,,,,,,,,741.4662,767.6494,space,26.1731,,,,,,,,,,,,,,,,,,,,,,,,,,,,,,,,,,,,,
,,6047238e77116b1a263b6dfd,65af554fb1b2d753c0180a06,2024-01-22_23h59.05.379,bars,2023.2.3,Linux x86_64,59.52380952,657b66ea316d21385b68909f,,,,,,,,,,,770.3046,771.2981,,,771.799,772.0488,,33,33,,,,,,,,,,,,,,,,bars/034.png,bars/mask002.png,,,,,,,,,,,,0,2,,,,,,,7,2,8,3,,,,,,767.6612,770.2989,space,2.6199,,771.2984,771.7989,772.0491,776.7992,space,4.7442,,776.7995,88,32,777.7987,777.7989,785.8659,space,8.0547,,0,0,0,0,1,125,65,,,,,,,,
,,6047238e77116b1a263b6dfd,65af554fb1b2d753c0180a06,2024-01-22_23h59.05.379,bars,2023.2.3,Linux x86_64,59.52380952,657b66ea316d21385b68909f,,,,,,,,,,,785.8782,786.8817,,,787.3811,787.6316,,23,23,,,,,,,,,,,,,,,,bars/033.png,bars/mask008.png,,,,,,,,,,,,7,1,,,,,,,9,4,8,5,,,,,,,,,,,786.8817,787.3811,787.6317,792.4811,space,4.8434,,792.4813,2,48,793.4812,793.4813,798.6642,space,5.1629,,0,1,1,1,1,25,155,,,,,,,,
,,6047238e77116b1a263b6dfd,65af554fb1b2d753c0180a06,2024-01-22_23h59.05.379,bars,2023.2.3,Linux x86_64,59.52380952,657b66ea316d21385b68909f,,,,,,,,,,,798.6737,799.6647,,,800.1647,800.4144,,131,131,,,,,,,,,,,,,,,,bars/032.png,bars/mask009.png,,,,,,,,,,,,5,1,,,,,,,7,6,6,6,,,,,,,,,,,799.6647,800.1647,800.4144,804.2309,space,3.8127,,804.2311,6,69,805.2317,805.2317,808.049,space,2.7971,,0,2,2,2,1,125,20,,,,,,,,
,,6047238e77116b1a263b6dfd,65af554fb1b2d753c0180a06,2024-01-22_23h59.05.379,bars,2023.2.3,Linux x86_64,59.52380952,657b66ea316d21385b68909f,,,,,,,,,,,808.0603,809.0641,,,809.5643,809.8141,,130,130,,,,,,,,,,,,,,,,bars/030.png,bars/mask004.png,,,,,,,,,,,,4,1,,,,,,,5,8,6,9,,,,,,,,,,,809.0642,809.5642,809.8141,813.8481,space,4.0205,,813.8482,10,65,814.8474,814.8475,819.3816,space,4.5034,,0,3,3,3,1,140,65,,,,,,,,
,,6047238e77116b1a263b6dfd,65af554fb1b2d753c0180a06,2024-01-22_23h59.05.379,bars,2023.2.3,Linux x86_64,59.52380952,657b66ea316d21385b68909f,,,,,,,,,,,819.3938,820.398,,,820.8973,821.1473,,86,86,,,,,,,,,,,,,,,,bars/012.png,bars/mask003.png,,,,,,,,,,,,2,1,,,,,,,3,6,2,6,,,,,,,,,,,820.3982,820.8972,821.1473,825.6639,space,4.5103,,825.6639,4,71,826.6642,826.6642,828.5816,space,1.8954,,0,4,4,4,1,90,15,,,,,,,,
,,6047238e77116b1a263b6dfd,65af554fb1b2d753c0180a06,2024-01-22_23h59.05.379,bars,2023.2.3,Linux x86_64,59.52380952,657b66ea316d21385b68909f,,,,,,,,,,,828.5824,829.5807,,,830.0813,830.3314,,163,-17,,,,,,,,,,,,,,,,bars/015.png,bars/mask007.png,,,,,,,,,,,,5,2,,,,,,,5,4,4,5,,,,,,,,,,,829.5808,830.0813,830.3316,835.1975,space,4.8545,,835.1976,53,3,836.1972,836.1972,841.1985,space,4.9708,,0,5,5,5,1,110,160,,,,,,,,
,,6047238e77116b1a263b6dfd,65af554fb1b2d753c0180a06,2024-01-22_23h59.05.379,bars,2023.2.3,Linux x86_64,59.52380952,657b66ea316d21385b68909f,,,,,,,,,,,841.2103,842.2137,,,842.714,842.9637,,14,14,,,,,,,,,,,,,,,,bars/012.png,bars/mask003.png,,,,,,,,,,,,3,2,,,,,,,3,2,3,3,,,,,,,,,,,842.2138,842.714,842.9637,846.8811,space,3.901,,846.8814,76,1,847.8805,847.8806,852.3968,space,4.494,,0,6,6,6,1,90,15,,,,,,,,
,,6047238e77116b1a263b6dfd,65af554fb1b2d753c0180a06,2024-01-22_23h59.05.379,bars,2023.2.3,Linux x86_64,59.52380952,657b66ea316d21385b68909f,,,,,,,,,,,852.4064,853.3969,,,853.8969,854.1476,,15,15,,,,,,,,,,,,,,,,bars/014.png,bars/mask006.png,,,,,,,,,,,,2,2,,,,,,,1,4,2,3,,,,,,,,,,,853.3969,853.8968,854.1476,860.6645,space,6.5011,,860.6645,65,15,861.6636,861.6636,866.6636,space,4.9759,,0,7,7,7,1,80,0,,,,,,,,
,,6047238e77116b1a263b6dfd,65af554fb1b2d753c0180a06,2024-01-22_23h59.05.379,bars,2023.2.3,Linux x86_64,59.52380952,657b66ea316d21385b68909f,,,,,,,,,,,866.6741,867.6635,,,868.1632,868.4132,,164,164,,,,,,,,,,,,,,,,bars/035.png,bars/mask000.png,,,,,,,,,,,,0,1,,,,,,,0,2,0,3,,,,,,,,,,,867.6636,868.1632,868.4132,870.7146,space,2.2931,,870.7147,11,76,871.7137,871.7138,874.1967,space,2.4582,,0,8,8,8,1,175,60,,,,,,,,
,,6047238e77116b1a263b6dfd,65af554fb1b2d753c0180a06,2024-01-22_23h59.05.379,bars,2023.2.3,Linux x86_64,59.52380952,657b66ea316d21385b68909f,,,,,,,,,,,874.1971,875.1971,,,875.6965,875.9465,,166,166,,,,,,,,,,,,,,,,bars/021.png,bars/mask000.png,,,,,,,,,,,,0,1,,,,,,,0,4,0,5,,,,,,,,,,,875.1972,875.6964,875.9465,880.0298,space,4.0793,,880.0299,11,84,881.0302,881.0303,882.2965,space,1.2486,,0,9,9,9,1,155,70,,,,,,,,
,,6047238e77116b1a263b6dfd,65af554fb1b2d753c0180a06,2024-01-22_23h59.05.379,bars,2023.2.3,Linux x86_64,59.52380952,657b66ea316d21385b68909f,,,,,,,,,,,882.2971,883.297,,,883.7962,884.0464,,167,-13,,,,,,,,,,,,,,,,bars/001.png,bars/mask001.png,,,,,,,,,,,,0,1,,,,,,,0,6,0,6,,,,,,,,,,,883.2971,883.7961,884.0465,890.5136,space,6.4584,,890.5138,37,82,891.5132,891.5133,894.4141,space,2.8842,,0,10,10,10,1,130,85,,,,,,,,
,,6047238e77116b1a263b6dfd,65af554fb1b2d753c0180a06,2024-01-22_23h59.05.379,bars,2023.2.3,Linux x86_64,59.52380952,657b66ea316d21385b68909f,,,,,,,,,,,894.4247,895.4126,,,895.9134,896.163,,134,134,,,,,,,,,,,,,,,,bars/018.png,bars/mask006.png,,,,,,,,,,,,1,1,,,,,,,2,8,2,8,,,,,,,,,,,895.4127,895.9132,896.163,901.9294,space,5.7575,,901.9295,16,44,902.9291,902.9291,904.0126,space,1.0566,,0,11,11,11,1,150,90,,,,,,,,
,,6047238e77116b1a263b6dfd,65af554fb1b2d753c0180a06,2024-01-22_23h59.05.379,bars,2023.2.3,Linux x86_64,59.52380952,657b66ea316d21385b68909f,,,,,,,,,,,904.013,905.0136,,,905.5137,905.763,,31,31,,,,,,,,,,,,,,,,bars/033.png,bars/mask003.png,,,,,,,,,,,,4,1,,,,,,,4,6,5,6,,,,,,,,,,,905.0137,905.5135,905.763,911.5466,space,5.7673,,911.5466,6,56,912.5466,912.5467,914.2971,space,1.724,,0,12,12,12,1,25,155,,,,,,,,
,,6047238e77116b1a263b6dfd,65af554fb1b2d753c0180a06,2024-01-22_23h59.05.379,bars,2023.2.3,Linux x86_64,59.52380952,657b66ea316d21385b68909f,,,,,,,,,,,914.2975,915.2959,,,915.7959,916.0465,,103,103,,,,,,,,,,,,,,,,bars/015.png,bars/mask009.png,,,,,,,,,,,,1,1,,,,,,,2,8,1,8,,,,,,,,,,,915.296,915.7958,916.0467,919.946,space,3.8835,,919.9461,7,57,920.946,920.946,923.0294,space,2.0678,,0,13,13,13,1,110,160,,,,,,,,
,,6047238e77116b1a263b6dfd,65af554fb1b2d753c0180a06,2024-01-22_23h59.05.379,bars,2023.2.3,Linux x86_64,59.52380952,657b66ea316d21385b68909f,,,,,,,,,,,923.0299,924.0296,,,924.5303,924.7799,,105,105,,,,,,,,,,,,,,,,bars/006.png,bars/mask005.png,,,,,,,,,,,,8,2,,,,,,,4,10,3,10,,,,,,,,,,,924.0297,924.5303,924.78,928.7464,space,3.9495,,928.7465,70,5,929.7459,929.7459,930.5968,space,0.8199,,0,14,14,14,1,35,100,,,,,,,,
,,6047238e77116b1a263b6dfd,65af554fb1b2d753c0180a06,2024-01-22_23h59.05.379,bars,2023.2.3,Linux x86_64,59.52380952,657b66ea316d21385b68909f,,,,,,,,,,,930.5973,931.5965,,,932.0959,932.3465,,147,-33,,,,,,,,,,,,,,,,bars/024.png,bars/mask009.png,,,,,,,,,,,,2,2,,,,,,,2,10,3,9,,,,,,,,,,,931.5965,932.0958,932.3465,935.3631,space,3.001,,935.3631,27,23,936.363,936.3631,937.6466,space,1.2571,,0,15,15,15,1,120,170,,,,,,,,
,,6047238e77116b1a263b6dfd,65af554fb1b2d753c0180a06,2024-01-22_23h59.05.379,bars,2023.2.3,Linux x86_64,59.52380952,657b66ea316d21385b68909f,,,,,,,,,,,937.647,938.6456,,,939.1459,939.3966,,97,97,,,,,,,,,,,,,,,,bars/026.png,bars/mask002.png,,,,,,,,,,,,5,2,,,,,,,0,10,0,8,,,,,,,,,,,938.6456,939.1458,939.3966,946.7795,space,7.372,,946.7796,62,12,947.7795,947.7796,949.4791,space,1.6734,,0,16,16,16,1,35,85,,,,,,,,
,,6047238e77116b1a263b6dfd,65af554fb1b2d753c0180a06,2024-01-22_23h59.05.379,bars,2023.2.3,Linux x86_64,59.52380952,657b66ea316d21385b68909f,,,,,,,,,,,949.4796,950.4804,,,950.9788,951.2297,,9,9,,,,,,,,,,,,,,,,bars/040.png,bars/mask004.png,,,,,,,,,,,,9,2,,,,,,,2,8,2,10,,,,,,,,,,,950.4804,950.9787,951.2297,955.5628,space,4.3165,,955.5628,49,4,956.5622,956.5623,959.1463,space,2.5626,,0,17,17,17,1,140,5,,,,,,,,
,,6047238e77116b1a263b6dfd,65af554fb1b2d753c0180a06,2024-01-22_23h59.05.379,bars,2023.2.3,Linux x86_64,59.52380952,657b66ea316d21385b68909f,,,,,,,,,,,959.1468,960.1453,,,960.6459,960.8957,,149,-31,,,,,,,,,,,,,,,,bars/016.png,bars/mask004.png,,,,,,,,,,,,5,2,,,,,,,4,10,5,10,,,,,,,,,,,960.1455,960.6459,960.8957,965.7288,space,4.8176,,965.7288,71,16,966.7286,966.7287,969.1791,space,2.4215,,0,18,18,18,1,40,165,,,,,,,,
,,6047238e77116b1a263b6dfd,65af554fb1b2d753c0180a06,2024-01-22_23h59.05.379,bars,2023.2.3,Linux x86_64,59.52380952,657b66ea316d21385b68909f,,,,,,,,,,,969.1795,970.1791,,,970.6794,970.9292,,91,91,,,,,,,,,,,,,,,,bars/011.png,bars/mask009.png,,,,,,,,,,,,8,2,,,,,,,6,10,5,10,,,,,,,,,,,970.1791,970.6794,970.9293,974.2128,space,3.2786,,974.2128,69,6,975.2125,975.2126,976.262,space,1.0311,,0,19,19,19,1,160,85,,,,,,,,
,,6047238e77116b1a263b6dfd,65af554fb1b2d753c0180a06,2024-01-22_23h59.05.379,bars,2023.2.3,Linux x86_64,59.52380952,657b66ea316d21385b68909f,,,,,,,,,,,976.2628,977.2617,,,977.762,978.0115,,100,-80,,,,,,,,,,,,,,,,bars/009.png,bars/mask002.png,,,,,,,,,,,,8,2,,,,,,,8,10,9,10,,,,,,,,,,,977.2618,977.762,978.0115,988.745,space,10.7183,,988.7452,85,5,989.7447,989.7447,995.4614,space,5.6902,,0,20,20,20,1,15,105,,,,,,,,
,,6047238e77116b1a263b6dfd,65af554fb1b2d753c0180a06,2024-01-22_23h59.05.379,bars,2023.2.3,Linux x86_64,59.52380952,657b66ea316d21385b68909f,,,,,,,,,,,995.4711,996.4615,,,996.9622,997.2116,,17,197,,,,,,,,,,,,,,,,bars/040.png,bars/mask002.png,,,,,,,,,,,,6,2,,,,,,,6,8,6,10,,,,,,,,,,,996.4616,996.9621,997.2117,1000.7124,space,3.4836,,1000.7125,57,12,1001.7121,1001.7122,1006.7955,space,5.0588,,0,21,21,21,1,140,5,,,,,,,,
,,6047238e77116b1a263b6dfd,65af554fb1b2d753c0180a06,2024-01-22_23h59.05.379,bars,2023.2.3,Linux x86_64,59.52380952,657b66ea316d21385b68909f,,,,,,,,,,,1006.8056,1007.7949,,,1008.2955,1008.5448,,92,92,,,,,,,,,,,,,,,,bars/011.png,bars/mask001.png,,,,,,,,,,,,4,2,,,,,,,4,6,6,5,,,,,,,,,,,1007.795,1008.2955,1008.5449,1012.5956,space,4.0388,,1012.5956,68,7,1013.5947,1013.5947,1015.1623,space,1.5388,,0,22,22,22,1,160,85,,,,,,,,
,,6047238e77116b1a263b6dfd,65af554fb1b2d753c0180a06,2024-01-22_23h59.05.379,bars,2023.2.3,Linux x86_64,59.52380952,657b66ea316d21385b68909f,,,,,,,,,,,1015.1627,1016.1621,,,1016.6622,1016.9119,,9,189,,,,,,,,,,,,,,,,bars/040.png,bars/mask008.png,,,,,,,,,,,,7,2,,,,,,,2,8,2,8,,,,,,,,,,,1016.1621,1016.6622,1016.9121,1022.8787,space,5.9508,,1022.8788,49,4,1023.8784,1023.8785,1027.8449,space,3.94,,0,23,23,23,1,140,5,,,,,,,,
,,6047238e77116b1a263b6dfd,65af554fb1b2d753c0180a06,2024-01-22_23h59.05.379,bars,2023.2.3,Linux x86_64,59.52380952,657b66ea316d21385b68909f,,,,,,,,,,,1027.8564,1028.8453,,,1029.3441,1029.5953,,105,105,,,,,,,,,,,,,,,,bars/039.png,bars/mask008.png,,,,,,,,,,,,10,2,,,,,,,4,10,4,10,,,,,,,,,,,1028.8454,1029.344,1029.5953,1034.1455,space,4.54,,1034.1455,70,0,1035.1438,1035.1439,1053.2111,space,18.0392,,0,24,24,24,1,175,105,,,,,,,,
,,6047238e77116b1a263b6dfd,65af554fb1b2d753c0180a06,2024-01-22_23h59.05.379,bars,2023.2.3,Linux x86_64,59.52380952,657b66ea316d21385b68909f,,,,,,,,,,,1053.2123,1054.2107,,,1054.7112,1054.9608,,21,21,,,,,,,,,,,,,,,,bars/035.png,bars/mask003.png,,,,,,,,,,,,0,1,,,,,,,2,8,3,7,,,,,,,,,,,1054.2108,1054.711,1054.9609,1057.1772,space,2.2042,,1057.1773,26,39,1058.1784,1058.1786,1060.3107,space,2.1216,,0,25,25,25,1,175,60,,,,,,,,
,,6047238e77116b1a263b6dfd,65af554fb1b2d753c0180a06,2024-01-22_23h59.05.379,bars,2023.2.3,Linux x86_64,59.52380952,657b66ea316d21385b68909f,,,,,,,,,,,1060.3113,1061.3108,,,1061.811,1062.0605,,59,59,,,,,,,,,,,,,,,,bars/026.png,bars/mask000.png,,,,,,,,,,,,0,1,,,,,,,0,10,0,10,,,,,,,,,,,1061.3108,1061.8109,1062.0605,1065.4445,space,3.3773,,1065.4448,24,26,1066.4439,1066.444,1069.2274,space,2.7647,,0,26,26,26,1,35,85,,,,,,,,
,,6047238e77116b1a263b6dfd,65af554fb1b2d753c0180a06,2024-01-22_23h59.05.379,bars,2023.2.3,Linux x86_64,59.52380952,657b66ea316d21385b68909f,,,,,,,,,,,1069.2402,1070.2438,,,1070.744,1070.9939,,30,30,,,,,,,,,,,,,,,,bars/020.png,bars/mask007.png,,,,,,,,,,,,0,2,,,,,,,2,10,2,10,,,,,,,,,,,1070.2439,1070.744,1070.9939,1074.327,space,3.3196,,1074.3271,85,40,1075.3269,1075.327,1079.544,space,4.1869,,0,27,27,27,1,115,170,,,,,,,,
,,6047238e77116b1a263b6dfd,65af554fb1b2d753c0180a06,2024-01-22_23h59.05.379,bars,2023.2.3,Linux x86_64,59.52380952,657b66ea316d21385b68909f,,,,,,,,,,,1079.5546,1080.5438,,,1081.0435,1081.2942,,101,101,,,,,,,,,,,,,,,,bars/009.png,bars/mask009.png,,,,,,,,,,,,9,2,,,,,,,0,10,1,10,,,,,,,,,,,1080.5439,1081.0435,1081.2943,1084.8942,space,3.591,,1084.8944,86,4,1085.8936,1085.8936,1087.1604,space,1.2379,,0,28,28,28,1,15,105,,,,,,,,
,,6047238e77116b1a263b6dfd,65af554fb1b2d753c0180a06,2024-01-22_23h59.05.379,bars,2023.2.3,Linux x86_64,59.52380952,657b66ea316d21385b68909f,,,,,,,,,,,1087.1614,1088.1607,,,1088.6604,1088.9101,,92,92,,,,,,,,,,,,,,,,bars/026.png,bars/mask002.png,,,,,,,,,,,,6,2,,,,,,,0,8,2,8,,,,,,,,,,,1088.1609,1088.6604,1088.9103,1094.2439,space,5.3204,,1094.244,57,7,1095.2434,1095.2434,1097.7771,space,2.5109,,0,29,29,29,1,35,85,,,,,,,,
,,6047238e77116b1a263b6dfd,65af554fb1b2d753c0180a06,2024-01-22_23h59.05.379,bars,2023.2.3,Linux x86_64,59.52380952,657b66ea316d21385b68909f,,,,,,,,,,,1097.7781,1098.7772,,,1099.2771,1099.5271,,74,74,,,,,,,,,,,,,,,,bars/042.png,bars/mask000.png,,,,,,,,,,,,10,2,,,,,,,0,10,0,10,,,,,,,,,,,1098.7772,1099.277,1099.5272,1104.327,space,4.7911,,1104.3271,71,1,1105.3269,1105.327,1107.0772,space,1.7311,,0,30,30,30,1,145,75,,,,,,,,
,,6047238e77116b1a263b6dfd,65af554fb1b2d753c0180a06,2024-01-22_23h59.05.379,bars,2023.2.3,Linux x86_64,59.52380952,657b66ea316d21385b68909f,,,,,,,,,,,1107.0785,1108.0768,,,1108.5767,1108.8271,,38,38,,,,,,,,,,,,,,,,bars/029.png,bars/mask006.png,,,,,,,,,,,,7,2,,,,,,,0,10,0,9,,,,,,,,,,,1108.0769,1108.5766,1108.8271,1112.877,space,4.0416,,1112.877,52,7,1113.8765,1113.8765,1116.2611,space,2.3651,,0,31,31,31,1,90,45,,,,,,,,
,,6047238e77116b1a263b6dfd,65af554fb1b2d753c0180a06,2024-01-22_23h59.05.379,bars,2023.2.3,Linux x86_64,59.52380952,657b66ea316d21385b68909f,,,,,,,,,,,1116.2615,1117.2604,,,1117.7598,1118.0094,,34,34,,,,,,,,,,,,,,,,bars/031.png,bars/mask001.png,,,,,,,,,,,,8,2,,,,,,,0,8,0,8,,,,,,,,,,,1117.2604,1117.7597,1118.0095,1125.2271,space,7.2028,,1125.2272,86,1,1126.2269,1126.227,1131.4262,space,5.1751,,0,32,32,32,1,120,35,,,,,,,,
,,6047238e77116b1a263b6dfd,65af554fb1b2d753c0180a06,2024-01-22_23h59.05.379,bars,2023.2.3,Linux x86_64,59.52380952,657b66ea316d21385b68909f,,,,,,,,,,,1131.4359,1132.4267,,,1132.9262,1133.1767,,53,53,,,,,,,,,,,,,,,,bars/030.png,bars/mask004.png,,,,,,,,,,,,4,2,,,,,,,0,6,0,6,,,,,,,,,,,1132.4268,1132.9262,1133.1768,1137.4096,space,4.2159,,1137.4097,87,12,1138.4102,1138.4104,1142.2597,space,3.832,,0,33,33,33,1,140,65,,,,,,,,
,,6047238e77116b1a263b6dfd,65af554fb1b2d753c0180a06,2024-01-22_23h59.05.379,bars,2023.2.3,Linux x86_64,59.52380952,657b66ea316d21385b68909f,,,,,,,,,,,1142.2699,1143.2592,,,1143.76,1144.0093,,56,56,,,,,,,,,,,,,,,,bars/047.png,bars/mask002.png,,,,,,,,,,,,2,2,,,,,,,0,4,0,3,,,,,,,,,,,1143.2592,1143.7599,1144.0093,1148.8263,space,4.8041,,1148.8264,41,14,1149.8261,1149.8262,1152.1433,space,2.2952,,0,34,34,34,1,15,70,,,,,,,,
,,6047238e77116b1a263b6dfd,65af554fb1b2d753c0180a06,2024-01-22_23h59.05.379,bars,2023.2.3,Linux x86_64,59.52380952,657b66ea316d21385b68909f,,,,,,,,,,,1152.1437,1153.1428,,,1153.6431,1153.8924,,161,161,,,,,,,,,,,,,,,,bars/007.png,bars/mask002.png,,,,,,,,,,,,2,1,,,,,,,2,2,4,1,,,,,,,,,,,1153.1428,1153.643,1153.8924,1157.1091,space,3.2007,,1157.1092,14,74,1158.1095,1158.1096,1161.7931,space,3.6591,,0,35,35,35,1,175,55,,,,,,,,
,,6047238e77116b1a263b6dfd,65af554fb1b2d753c0180a06,2024-01-22_23h59.05.379,bars,2023.2.3,Linux x86_64,59.52380952,657b66ea316d21385b68909f,,,,,,,,,,,1161.8039,1162.7927,,,1163.2924,1163.5428,,118,118,,,,,,,,,,,,,,,,bars/025.png,bars/mask001.png,,,,,,,,,,,,1,1,,,,,,,0,0,2,0,,,,,,,,,,,1162.7927,1163.2924,1163.5429,1166.3927,space,2.8388,,1166.3928,13,78,1167.3922,1167.3923,1171.4931,space,4.0728,,0,36,36,36,1,105,40,,,,,,,,
,,6047238e77116b1a263b6dfd,65af554fb1b2d753c0180a06,2024-01-22_23h59.05.379,bars,2023.2.3,Linux x86_64,59.52380952,657b66ea316d21385b68909f,,,,,,,,,,,1171.5045,1172.4926,,,1172.993,1173.2424,,99,99,,,,,,,,,,,,,,,,bars/026.png,bars/mask000.png,,,,,,,,,,,,1,2,,,,,,,0,2,0,1,,,,,,,,,,,1172.4927,1172.9929,1173.2425,1175.3592,space,2.1056,,1175.3593,64,14,1176.3592,1176.3592,1178.9927,space,2.6174,,0,37,37,37,1,35,85,,,,,,,,
,,6047238e77116b1a263b6dfd,65af554fb1b2d753c0180a06,2024-01-22_23h59.05.379,bars,2023.2.3,Linux x86_64,59.52380952,657b66ea316d21385b68909f,,,,,,,,,,,1179.0046,1180.0091,,,1180.5091,1180.7429,,17,17,,,,,,,,,,,,,,,,bars/041.png,bars/mask009.png,,,,,,,,,,,,3,1,,,,,,,2,4,3,2,,,,,,,,,,,1180.0092,1180.5091,1180.7429,1184.0101,space,3.2541,,1184.0102,3,68,1185.0097,1185.0099,1186.1594,space,1.1257,,0,38,38,38,1,20,85,,,,,,,,
,,6047238e77116b1a263b6dfd,65af554fb1b2d753c0180a06,2024-01-22_23h59.05.379,bars,2023.2.3,Linux x86_64,59.52380952,657b66ea316d21385b68909f,,,,,,,,,,,1186.16,1187.1591,,,1187.6591,1187.9097,,169,-11,,,,,,,,,,,,,,,,bars/037.png,bars/mask000.png,,,,,,,,,,,,1,1,,,,,,,4,2,3,1,,,,,,,,,,,1187.1591,1187.659,1187.9098,1193.6929,space,5.7663,0.0076,1193.693,19,64,1194.6928,1194.6929,1195.4924,space,0.7714,,0,39,39,39,1,150,105,,,,,,,,
,,6047238e77116b1a263b6dfd,65af554fb1b2d753c0180a06,2024-01-22_23h59.05.379,bars,2023.2.3,Linux x86_64,59.52380952,657b66ea316d21385b68909f,,,,,,,,,,,1195.4928,1196.4926,,,1196.9929,1197.2422,,148,148,,,,,,,,,,,,,,,,bars/005.png,bars/mask004.png,,,,,,,,,,,,0,2,,,,,,,6,0,5,0,,,,,,,,,,,1196.4926,1196.9928,1197.2422,1202.4753,space,5.2269,,1202.4754,42,8,1203.4754,1203.4754,1206.7599,space,3.2591,,0,40,40,40,1,10,140,,,,,,,,
,,6047238e77116b1a263b6dfd,65af554fb1b2d753c0180a06,2024-01-22_23h59.05.379,bars,2023.2.3,Linux x86_64,59.52380952,657b66ea316d21385b68909f,,,,,,,,,,,1206.7705,1207.7584,,,1208.259,1208.509,,114,114,,,,,,,,,,,,,,,,bars/040.png,bars/mask009.png,,,,,,,,,,,,1,1,,,,,,,8,2,10,3,,,,,,,,,,,1207.7585,1208.2589,1208.5091,1210.5092,space,1.9909,,1210.5095,26,71,1211.5087,1211.5088,1213.5255,space,1.9873,,0,41,41,41,1,140,5,,,,,,,,
,,6047238e77116b1a263b6dfd,65af554fb1b2d753c0180a06,2024-01-22_23h59.05.379,bars,2023.2.3,Linux x86_64,59.52380952,657b66ea316d21385b68909f,,,,,,,,,,,1213.5259,1214.5252,,,1215.026,1215.2756,,99,99,,,,,,,,,,,,,,,,bars/045.png,bars/mask005.png,,,,,,,,,,,,7,1,,,,,,,6,4,7,4,,,,,,,,,,,1214.5252,1215.0259,1215.2756,1217.5753,space,2.2847,,1217.5754,1,89,1218.5754,1218.5755,1219.7257,space,1.1322,,0,42,42,42,1,100,10,,,,,,,,
,,6047238e77116b1a263b6dfd,65af554fb1b2d753c0180a06,2024-01-22_23h59.05.379,bars,2023.2.3,Linux x86_64,59.52380952,657b66ea316d21385b68909f,,,,,,,,,,,1219.7266,1220.7251,,,1221.2259,1221.4753,,60,60,,,,,,,,,,,,,,,,bars/028.png,bars/mask008.png,,,,,,,,,,,,2,1,,,,,,,4,6,4,6,,,,,,,,,,,1220.7251,1221.2258,1221.4753,1223.5925,space,2.0996,,1223.5926,15,60,1224.5914,1224.5914,1225.6751,space,1.0757,,0,43,43,43,1,45,120,,,,,,,,
,,6047238e77116b1a263b6dfd,65af554fb1b2d753c0180a06,2024-01-22_23h59.05.379,bars,2023.2.3,Linux x86_64,59.52380952,657b66ea316d21385b68909f,,,,,,,,,,,1225.6757,1226.6758,,,1227.1758,1227.4256,,31,31,,,,,,,,,,,,,,,,bars/023.png,bars/mask002.png,,,,,,,,,,,,3,1,,,,,,,6,8,5,9,,,,,,,,,,,1226.6758,1227.1757,1227.4256,1233.7583,space,6.3161,,1233.7583,11,84,1234.7588,1234.7588,1237.3096,space,2.5282,,0,44,44,44,1,20,115,,,,,,,,
,,6047238e77116b1a263b6dfd,65af554fb1b2d753c0180a06,2024-01-22_23h59.05.379,bars,2023.2.3,Linux x86_64,59.52380952,657b66ea316d21385b68909f,,,,,,,,,,,1237.3103,1238.3085,,,1238.8086,1239.0588,,130,130,,,,,,,,,,,,,,,,bars/032.png,bars/mask006.png,,,,,,,,,,,,6,1,,,,,,,8,10,7,10,,,,,,,,,,,1238.3085,1238.8086,1239.0588,1243.9089,space,4.8351,,1243.9089,5,70,1244.9086,1244.9087,1245.842,space,0.9147,,0,45,45,45,1,125,20,,,,,,,,
,,6047238e77116b1a263b6dfd,65af554fb1b2d753c0180a06,2024-01-22_23h59.05.379,bars,2023.2.3,Linux x86_64,59.52380952,657b66ea316d21385b68909f,,,,,,,,,,,1245.8424,1246.8418,,,1247.3416,1247.5921,,110,110,,,,,,,,,,,,,,,,bars/015.png,bars/mask009.png,,,,,,,,,,,,5,1,,,,,,,6,8,5,9,,,,,,,,,,,1246.8418,1247.3415,1247.5922,1250.5261,space,2.9166,,1250.5262,0,50,1251.5252,1251.5253,1256.7247,space,5.1695,,0,46,46,46,1,110,160,,,,,,,,
,,6047238e77116b1a263b6dfd,65af554fb1b2d753c0180a06,2024-01-22_23h59.05.379,bars,2023.2.3,Linux x86_64,59.52380952,657b66ea316d21385b68909f,,,,,,,,,,,1256.7343,1257.7253,,,1258.2248,1258.4756,,70,70,,,,,,,,,,,,,,,,bars/029.png,bars/mask008.png,,,,,,,,,,,,1,1,,,,,,,4,6,3,7,,,,,,,,,,,1257.7255,1258.2248,1258.4756,1264.0416,space,5.5535,,1264.0416,20,25,1265.0421,1265.0423,1266.2581,space,1.1982,,0,47,47,47,1,90,45,,,,,,,,
,,6047238e77116b1a263b6dfd,65af554fb1b2d753c0180a06,2024-01-22_23h59.05.379,bars,2023.2.3,Linux x86_64,59.52380952,657b66ea316d21385b68909f,,,,,,,,,,,1266.2586,1267.2577,,,1267.7578,1268.0077,,107,107,,,,,,,,,,,,,,,,bars/027.png,bars/mask001.png,,,,,,,,,,,,3,1,,,,,,,6,8,3,8,,,,,,,,,,,1267.2578,1267.7577,1268.0077,1269.8915,space,1.8768,,1269.8915,3,57,1270.891,1270.8911,1271.7412,space,0.8297,,0,48,48,48,1,110,50,,,,,,,,
,,6047238e77116b1a263b6dfd,65af554fb1b2d753c0180a06,2024-01-22_23h59.05.379,bars,2023.2.3,Linux x86_64,59.52380952,657b66ea316d21385b68909f,,,,,,,,,,,1271.7417,1272.7419,,,1273.2411,1273.4919,,34,34,,,,,,,,,,,,,,,,bars/029.png,bars/mask006.png,,,,,,,,,,,,6,2,,,,,,,4,10,4,10,,,,,,,,,,,1272.7419,1273.241,1273.492,1276.9585,space,3.4547,,1276.9585,56,11,1277.9578,1277.9578,1278.9086,space,0.9288,,0,49,49,49,1,90,45,,,,,,,,
,,6047238e77116b1a263b6dfd,65af554fb1b2d753c0180a06,2024-01-22_23h59.05.379,bars,2023.2.3,Linux x86_64,59.52380952,657b66ea316d21385b68909f,,,,,,,,,,,,,,,,,,,,,,,,,,,,,,,,,,,,,,,,,,,,,,,,,,,,,,,,,,,,,,,,,,,,,,,,,,,,,,,,,,,,,,,,,,,,,1278.9093,1338.9082,0,0,0,4,1,sequence_tables/blk010.csv
,,6047238e77116b1a263b6dfd,65af554fb1b2d753c0180a06,2024-01-22_23h59.05.379,bars,2023.2.3,Linux x86_64,59.52380952,657b66ea316d21385b68909f,,,,,,,,,,,1340.379,1341.3739,,,1341.8739,1342.1238,,48,48,,,,,,,,,,,,,,,,bars/030.png,bars/mask007.png,,,,,,,,,,,,2,2,,,,,,,3,6,4,4,,,,,,1338.9199,1340.3737,space,1.4432,,1341.3739,1341.8738,1342.1238,1344.3407,space,2.201,,1344.3408,88,17,1345.3414,1345.3414,1345.3541,,,,0,0,0,0,1,140,65,,,,,,,,
,,6047238e77116b1a263b6dfd,65af554fb1b2d753c0180a06,2024-01-22_23h59.05.379,bars,2023.2.3,Linux x86_64,59.52380952,657b66ea316d21385b68909f,,,,,,,,,,,1345.3545,1346.3578,,,1346.857,1347.1072,,44,44,,,,,,,,,,,,,,,,bars/034.png,bars/mask005.png,,,,,,,,,,,,1,2,,,,,,,1,4,1,2,,,,,,,,,,,1346.3578,1346.857,1347.1073,1354.5251,space,7.3984,,1354.5252,81,21,1355.5242,1355.5244,1355.5372,,,,0,1,1,1,1,125,65,,,,,,,,
,,6047238e77116b1a263b6dfd,65af554fb1b2d753c0180a06,2024-01-22_23h59.05.379,bars,2023.2.3,Linux x86_64,59.52380952,657b66ea316d21385b68909f,,,,,,,,,,,1355.5374,1356.5407,,,1357.041,1357.291,,118,118,,,,,,,,,,,,,,,,bars/039.png,bars/mask003.png,,,,,,,,,,,,2,2,,,,,,,0,2,0,3,,,,,,,,,,,1356.5407,1357.041,1357.291,1363.757,space,6.4501,,1363.7572,57,13,1364.7575,1364.7575,1364.7675,,,,0,2,2,2,1,175,105,,,,,,,,
,,6047238e77116b1a263b6dfd,65af554fb1b2d753c0180a06,2024-01-22_23h59.05.379,bars,2023.2.3,Linux x86_64,59.52380952,657b66ea316d21385b68909f,,,,,,,,,,,1364.7677,1365.7577,,,1366.2576,1366.5074,,29,29,,,,,,,,,,,,,,,,bars/012.png,bars/mask001.png,,,,,,,,,,,,1,2,,,,,,,2,0,1,1,,,,,,,,,,,1365.758,1366.2575,1366.5075,1368.8068,space,2.2879,,1368.8069,61,14,1369.8068,1369.8069,1369.8175,,,,0,3,3,3,1,90,15,,,,,,,,
,,6047238e77116b1a263b6dfd,65af554fb1b2d753c0180a06,2024-01-22_23h59.05.379,bars,2023.2.3,Linux x86_64,59.52380952,657b66ea316d21385b68909f,,,,,,,,,,,1369.8177,1370.8066,,,1371.3072,1371.5569,,36,36,,,,,,,,,,,,,,,,bars/048.png,bars/mask001.png,,,,,,,,,,,,0,1,,,,,,,0,0,0,1,,,,,,,,,,,1370.8067,1371.3072,1371.5569,1374.1237,space,2.5513,,1374.1237,14,41,1375.1237,1375.1238,1375.1359,,,,0,4,4,4,1,50,175,,,,,,,,
,,6047238e77116b1a263b6dfd,65af554fb1b2d753c0180a06,2024-01-22_23h59.05.379,bars,2023.2.3,Linux x86_64,59.52380952,657b66ea316d21385b68909f,,,,,,,,,,,1375.1362,1376.124,,,1376.6241,1376.8738,,154,-26,,,,,,,,,,,,,,,,bars/037.png,bars/mask005.png,,,,,,,,,,,,0,1,,,,,,,0,0,0,0,,,,,,,,,,,1376.1242,1376.6241,1376.8738,1381.3571,space,4.4666,,1381.3571,4,49,1382.3569,1382.3569,1382.3693,,,,0,5,5,5,1,150,105,,,,,,,,
,,6047238e77116b1a263b6dfd,65af554fb1b2d753c0180a06,2024-01-22_23h59.05.379,bars,2023.2.3,Linux x86_64,59.52380952,657b66ea316d21385b68909f,,,,,,,,,,,1382.3695,1383.3737,,,1383.8734,1384.1241,,163,-17,,,,,,,,,,,,,,,,bars/020.png,bars/mask007.png,,,,,,,,,,,,2,2,,,,,,,0,2,2,3,,,,,,,,,,,1383.3737,1383.8734,1384.1243,1390.1581,space,6.016,,1390.1582,48,7,1391.1564,1391.1565,1391.1706,,,,0,6,6,6,1,115,170,,,,,,,,
,,6047238e77116b1a263b6dfd,65af554fb1b2d753c0180a06,2024-01-22_23h59.05.379,bars,2023.2.3,Linux x86_64,59.52380952,657b66ea316d21385b68909f,,,,,,,,,,,1391.1708,1392.1732,,,1392.6736,1392.9233,,48,48,,,,,,,,,,,,,,,,bars/010.png,bars/mask006.png,,,,,,,,,,,,0,2,,,,,,,2,0,1,0,,,,,,,,,,,1392.1732,1392.6735,1392.9234,1397.0404,space,4.1111,,1397.0405,63,7,1398.0399,1398.04,1398.0521,,,,0,7,7,7,1,165,55,,,,,,,,
,,6047238e77116b1a263b6dfd,65af554fb1b2d753c0180a06,2024-01-22_23h59.05.379,bars,2023.2.3,Linux x86_64,59.52380952,657b66ea316d21385b68909f,,,,,,,,,,,1398.0523,1399.0563,,,1399.5579,1399.8065,,71,71,,,,,,,,,,,,,,,,bars/037.png,bars/mask000.png,,,,,,,,,,,,0,2,,,,,,,4,2,4,1,,,,,,,,,,,1399.0564,1399.5578,1399.8066,1406.4238,space,6.6033,,1406.4239,79,34,1407.4237,1407.4238,1407.4347,,,,0,8,8,8,1,150,105,,,,,,,,
,,6047238e77116b1a263b6dfd,65af554fb1b2d753c0180a06,2024-01-22_23h59.05.379,bars,2023.2.3,Linux x86_64,59.52380952,657b66ea316d21385b68909f,,,,,,,,,,,1407.4349,1408.4239,,,1408.9238,1409.1736,,150,150,,,,,,,,,,,,,,,,bars/034.png,bars/mask003.png,,,,,,,,,,,,0,1,,,,,,,2,0,2,0,,,,,,,,,,,1408.4239,1408.9238,1409.1736,1412.9234,space,3.7335,,1412.9235,25,85,1413.9235,1413.9235,1413.9361,,,,0,9,9,9,1,125,65,,,,,,,,
,,6047238e77116b1a263b6dfd,65af554fb1b2d753c0180a06,2024-01-22_23h59.05.379,bars,2023.2.3,Linux x86_64,59.52380952,657b66ea316d21385b68909f,,,,,,,,,,,1413.9363,1414.9396,,,1415.4395,1415.6895,,152,152,,,,,,,,,,,,,,,,bars/017.png,bars/mask008.png,,,,,,,,,,,,3,1,,,,,,,4,0,4,0,,,,,,,,,,,1414.9397,1415.4395,1415.6896,1418.64,space,2.936,,1418.6401,7,73,1419.6399,1419.6399,1419.6508,,,,0,10,10,10,1,145,45,,,,,,,,
,,6047238e77116b1a263b6dfd,65af554fb1b2d753c0180a06,2024-01-22_23h59.05.379,bars,2023.2.3,Linux x86_64,59.52380952,657b66ea316d21385b68909f,,,,,,,,,,,1419.651,1420.6401,,,1421.1396,1421.39,,107,107,,,,,,,,,,,,,,,,bars/027.png,bars/mask008.png,,,,,,,,,,,,5,1,,,,,,,6,0,6,0,,,,,,,,,,,1420.6402,1421.1396,1421.39,1425.4066,space,4.0131,,1425.4067,3,57,1426.4066,1426.4066,1426.4181,,,,0,11,11,11,1,110,50,,,,,,,,
,,6047238e77116b1a263b6dfd,65af554fb1b2d753c0180a06,2024-01-22_23h59.05.379,bars,2023.2.3,Linux x86_64,59.52380952,657b66ea316d21385b68909f,,,,,,,,,,,1426.4183,1427.4067,,,1427.9063,1428.1569,,140,140,,,,,,,,,,,,,,,,bars/017.png,bars/mask007.png,,,,,,,,,,,,4,1,,,,,,,4,0,5,1,,,,,,,,,,,1427.4068,1427.9063,1428.1569,1433.39,space,5.2206,,1433.39,5,85,1434.3901,1434.3902,1434.4016,,,,0,12,12,12,1,145,45,,,,,,,,
,,6047238e77116b1a263b6dfd,65af554fb1b2d753c0180a06,2024-01-22_23h59.05.379,bars,2023.2.3,Linux x86_64,59.52380952,657b66ea316d21385b68909f,,,,,,,,,,,1434.4019,1435.4069,,,1435.9065,1436.1562,,44,44,,,,,,,,,,,,,,,,bars/048.png,bars/mask004.png,,,,,,,,,,,,5,1,,,,,,,6,0,6,0,,,,,,,,,,,1435.407,1435.9065,1436.1562,1440.7227,space,4.5573,,1440.7227,6,49,1441.7227,1441.7227,1441.7335,,,,0,13,13,13,1,50,175,,,,,,,,
,,6047238e77116b1a263b6dfd,65af554fb1b2d753c0180a06,2024-01-22_23h59.05.379,bars,2023.2.3,Linux x86_64,59.52380952,657b66ea316d21385b68909f,,,,,,,,,,,1441.7337,1442.7227,,,1443.2241,1443.473,,60,60,,,,,,,,,,,,,,,,bars/014.png,bars/mask004.png,,,,,,,,,,,,1,1,,,,,,,4,0,4,0,,,,,,,,,,,1442.7228,1443.2241,1443.473,1450.4736,space,6.993,,1450.4736,20,60,1451.4733,1451.4733,1451.4837,,,,0,14,14,14,1,80,0,,,,,,,,
,,6047238e77116b1a263b6dfd,65af554fb1b2d753c0180a06,2024-01-22_23h59.05.379,bars,2023.2.3,Linux x86_64,59.52380952,657b66ea316d21385b68909f,,,,,,,,,,,1451.4839,1452.4724,,,1452.9729,1453.2228,,65,65,,,,,,,,,,,,,,,,bars/014.png,bars/mask007.png,,,,,,,,,,,,1,1,,,,,,,2,2,1,3,,,,,,,,,,,1452.4725,1452.9728,1453.2228,1458.6399,space,5.4125,,1458.64,15,65,1459.6399,1459.64,1459.6529,,,,0,15,15,15,1,80,0,,,,,,,,
,,6047238e77116b1a263b6dfd,65af554fb1b2d753c0180a06,2024-01-22_23h59.05.379,bars,2023.2.3,Linux x86_64,59.52380952,657b66ea316d21385b68909f,,,,,,,,,,,1459.653,1460.6559,,,1461.1559,1461.4064,,171,171,,,,,,,,,,,,,,,,bars/042.png,bars/mask005.png,,,,,,,,,,,,1,1,,,,,,,4,4,5,5,,,,,,,,,,,1460.656,1461.1558,1461.4065,1465.2727,space,3.8521,,1465.2727,26,84,1466.2726,1466.2726,1466.2827,,,,0,16,16,16,1,145,75,,,,,,,,
,,6047238e77116b1a263b6dfd,65af554fb1b2d753c0180a06,2024-01-22_23h59.05.379,bars,2023.2.3,Linux x86_64,59.52380952,657b66ea316d21385b68909f,,,,,,,,,,,1466.2829,1467.2725,,,1467.7729,1468.0226,,177,177,,,,,,,,,,,,,,,,bars/046.png,bars/mask006.png,,,,,,,,,,,,1,1,,,,,,,6,6,4,6,,,,,,,,,,,1467.2725,1467.7729,1468.0227,1473.9895,space,5.9495,,1473.9896,22,88,1474.9893,1474.9894,1475.0008,,,,0,17,17,17,1,155,85,,,,,,,,
,,6047238e77116b1a263b6dfd,65af554fb1b2d753c0180a06,2024-01-22_23h59.05.379,bars,2023.2.3,Linux x86_64,59.52380952,657b66ea316d21385b68909f,,,,,,,,,,,1475.0011,1475.9895,,,1476.4891,1476.7388,,54,54,,,,,,,,,,,,,,,,bars/046.png,bars/mask009.png,,,,,,,,,,,,0,2,,,,,,,8,4,9,4,,,,,,,,,,,1475.9895,1476.489,1476.739,1480.4734,space,3.7194,,1480.4736,79,31,1481.473,1481.4731,1481.4848,,,,0,18,18,18,1,155,85,,,,,,,,
,,6047238e77116b1a263b6dfd,65af554fb1b2d753c0180a06,2024-01-22_23h59.05.379,bars,2023.2.3,Linux x86_64,59.52380952,657b66ea316d21385b68909f,,,,,,,,,,,1481.4851,1482.4889,,,1482.989,1483.2394,,96,96,,,,,,,,,,,,,,,,bars/019.png,bars/mask008.png,,,,,,,,,,,,5,2,,,,,,,6,6,6,7,,,,,,,,,,,1482.4889,1482.9889,1483.2395,1488.6559,space,5.4032,,1488.6559,51,9,1489.6555,1489.6556,1489.6659,,,,0,19,19,19,1,45,105,,,,,,,,
,,6047238e77116b1a263b6dfd,65af554fb1b2d753c0180a06,2024-01-22_23h59.05.379,bars,2023.2.3,Linux x86_64,59.52380952,657b66ea316d21385b68909f,,,,,,,,,,,1489.6662,1490.6555,,,1491.1567,1491.4068,,34,214,,,,,,,,,,,,,,,,bars/007.png,bars/mask003.png,,,,,,,,,,,,2,2,,,,,,,4,8,4,6,,,,,,,,,,,1490.6555,1491.1565,1491.4069,1498.3058,space,6.8909,,1498.3058,39,21,1499.3055,1499.3055,1499.3175,,,,0,20,20,20,1,175,55,,,,,,,,
,,6047238e77116b1a263b6dfd,65af554fb1b2d753c0180a06,2024-01-22_23h59.05.379,bars,2023.2.3,Linux x86_64,59.52380952,657b66ea316d21385b68909f,,,,,,,,,,,1499.3177,1500.3053,,,1500.806,1501.0557,,152,152,,,,,,,,,,,,,,,,bars/020.png,bars/mask008.png,,,,,,,,,,,,4,2,,,,,,,2,10,2,10,,,,,,,,,,,1500.3053,1500.806,1501.0557,1503.856,space,2.7928,,1503.8561,37,18,1504.8555,1504.8555,1504.8684,,,,0,21,21,21,1,115,170,,,,,,,,
,,6047238e77116b1a263b6dfd,65af554fb1b2d753c0180a06,2024-01-22_23h59.05.379,bars,2023.2.3,Linux x86_64,59.52380952,657b66ea316d21385b68909f,,,,,,,,,,,1504.8686,1505.8721,,,1506.3724,1506.6224,,175,175,,,,,,,,,,,,,,,,bars/024.png,bars/mask007.png,,,,,,,,,,,,7,2,,,,,,,0,8,0,8,,,,,,,,,,,1505.8722,1506.3723,1506.6224,1510.0555,space,3.4196,,1510.0557,55,5,1511.0562,1511.0563,1511.069,,,,0,22,22,22,1,120,170,,,,,,,,
,,6047238e77116b1a263b6dfd,65af554fb1b2d753c0180a06,2024-01-22_23h59.05.379,bars,2023.2.3,Linux x86_64,59.52380952,657b66ea316d21385b68909f,,,,,,,,,,,1511.0693,1512.0721,,,1512.5723,1512.8222,,106,-74,,,,,,,,,,,,,,,,bars/037.png,bars/mask005.png,,,,,,,,,,,,10,2,,,,,,,0,10,0,10,,,,,,,,,,,1512.0721,1512.5723,1512.8222,1517.7227,space,4.8918,,1517.7228,44,1,1518.7219,1518.7219,1518.7328,,,,0,23,23,23,1,150,105,,,,,,,,
,,6047238e77116b1a263b6dfd,65af554fb1b2d753c0180a06,2024-01-22_23h59.05.379,bars,2023.2.3,Linux x86_64,59.52380952,657b66ea316d21385b68909f,,,,,,,,,,,1518.7329,1519.7226,,,1520.2218,1520.4727,,113,113,,,,,,,,,,,,,,,,bars/023.png,bars/mask001.png,,,,,,,,,,,,9,2,,,,,,,0,10,0,10,,,,,,,,,,,1519.7226,1520.2218,1520.4727,1523.7228,space,3.2344,,1523.7228,87,2,1524.7221,1524.7221,1524.7341,,,,0,24,24,24,1,20,115,,,,,,,,
,,6047238e77116b1a263b6dfd,65af554fb1b2d753c0180a06,2024-01-22_23h59.05.379,bars,2023.2.3,Linux x86_64,59.52380952,657b66ea316d21385b68909f,,,,,,,,,,,1524.7344,1525.7221,,,1526.2227,1526.4721,,55,55,,,,,,,,,,,,,,,,bars/030.png,bars/mask002.png,,,,,,,,,,,,5,2,,,,,,,2,8,3,7,,,,,,,,,,,1525.7222,1526.2227,1526.4722,1529.9387,space,3.4565,,1529.9387,85,10,1530.9386,1530.9386,1530.9491,,,,0,25,25,25,1,140,65,,,,,,,,
,,6047238e77116b1a263b6dfd,65af554fb1b2d753c0180a06,2024-01-22_23h59.05.379,bars,2023.2.3,Linux x86_64,59.52380952,657b66ea316d21385b68909f,,,,,,,,,,,1530.9493,1531.9389,,,1532.4394,1532.6896,,35,35,,,,,,,,,,,,,,,,bars/025.png,bars/mask006.png,,,,,,,,,,,,5,2,,,,,,,0,6,0,6,,,,,,,,,,,1531.9389,1532.4393,1532.6898,1538.1061,space,5.4,,1538.1062,70,5,1539.1058,1539.1058,1539.1158,,,,0,26,26,26,1,105,40,,,,,,,,
,,6047238e77116b1a263b6dfd,65af554fb1b2d753c0180a06,2024-01-22_23h59.05.379,bars,2023.2.3,Linux x86_64,59.52380952,657b66ea316d21385b68909f,,,,,,,,,,,1539.116,1540.1052,,,1540.6058,1540.8556,,22,22,,,,,,,,,,,,,,,,bars/012.png,bars/mask003.png,,,,,,,,,,,,5,2,,,,,,,2,8,1,6,,,,,,,,,,,1540.1052,1540.6058,1540.8556,1544.672,space,3.8114,,1544.6721,68,7,1545.6723,1545.6725,1545.6831,,,,0,27,27,27,1,90,15,,,,,,,,
,,6047238e77116b1a263b6dfd,65af554fb1b2d753c0180a06,2024-01-22_23h59.05.379,bars,2023.2.3,Linux x86_64,59.52380952,657b66ea316d21385b68909f,,,,,,,,,,,1545.6835,1546.6725,,,1547.1715,1547.4216,,83,83,,,,,,,,,,,,,,,,bars/001.png,bars/mask000.png,,,,,,,,,,,,5,2,,,,,,,4,6,3,5,,,,,,,,,,,1546.6728,1547.1715,1547.4217,1552.7231,space,5.2911,,1552.7232,47,2,1553.7229,1553.723,1553.7329,,,,0,28,28,28,1,130,85,,,,,,,,
,,6047238e77116b1a263b6dfd,65af554fb1b2d753c0180a06,2024-01-22_23h59.05.379,bars,2023.2.3,Linux x86_64,59.52380952,657b66ea316d21385b68909f,,,,,,,,,,,1553.7332,1554.7217,,,1555.2221,1555.472,,73,73,,,,,,,,,,,,,,,,bars/029.png,bars/mask004.png,,,,,,,,,,,,1,1,,,,,,,2,8,2,7,,,,,,,,,,,1554.7217,1555.222,1555.472,1560.655,space,5.1782,,1560.6551,17,28,1561.6547,1561.6547,1561.6668,,,,0,29,29,29,1,90,45,,,,,,,,
,,6047238e77116b1a263b6dfd,65af554fb1b2d753c0180a06,2024-01-22_23h59.05.379,bars,2023.2.3,Linux x86_64,59.52380952,657b66ea316d21385b68909f,,,,,,,,,,,1561.667,1562.6548,,,1563.1553,1563.4056,,156,156,,,,,,,,,,,,,,,,bars/007.png,bars/mask009.png,,,,,,,,,,,,0,1,,,,,,,0,10,1,10,,,,,,,,,,,1562.6548,1563.1553,1563.4056,1567.4049,space,3.9971,,1567.405,19,79,1568.4055,1568.4056,1568.4156,,,,0,30,30,30,1,175,55,,,,,,,,
,,6047238e77116b1a263b6dfd,65af554fb1b2d753c0180a06,2024-01-22_23h59.05.379,bars,2023.2.3,Linux x86_64,59.52380952,657b66ea316d21385b68909f,,,,,,,,,,,1568.4158,1569.405,,,1569.9049,1570.1549,,178,178,,,,,,,,,,,,,,,,bars/010.png,bars/mask005.png,,,,,,,,,,,,1,1,,,,,,,2,8,1,7,,,,,,,,,,,1569.405,1569.9048,1570.1549,1575.2555,space,5.0957,,1575.2556,13,57,1576.2545,1576.2545,1576.2663,,,,0,31,31,31,1,165,55,,,,,,,,
,,6047238e77116b1a263b6dfd,65af554fb1b2d753c0180a06,2024-01-22_23h59.05.379,bars,2023.2.3,Linux x86_64,59.52380952,657b66ea316d21385b68909f,,,,,,,,,,,1576.2666,1577.2547,,,1577.7554,1578.0046,,109,109,,,,,,,,,,,,,,,,bars/027.png,bars/mask000.png,,,,,,,,,,,,0,1,,,,,,,0,6,0,6,,,,,,,,,,,1577.2547,1577.7554,1578.0046,1582.0882,space,4.0687,,1582.0883,1,59,1583.0883,1583.0884,1583.0989,,,,0,32,32,32,1,110,50,,,,,,,,
,,6047238e77116b1a263b6dfd,65af554fb1b2d753c0180a06,2024-01-22_23h59.05.379,bars,2023.2.3,Linux x86_64,59.52380952,657b66ea316d21385b68909f,,,,,,,,,,,1583.0991,1584.0882,,,1584.5884,1584.8378,,175,-5,,,,,,,,,,,,,,,,bars/032.png,bars/mask000.png,,,,,,,,,,,,1,2,,,,,,,2,8,4,8,,,,,,,,,,,1584.0882,1584.5884,1584.8379,1591.8382,space,6.9948,,1591.8384,50,25,1592.8382,1592.8383,1592.8502,,,,0,33,33,33,1,125,20,,,,,,,,
,,6047238e77116b1a263b6dfd,65af554fb1b2d753c0180a06,2024-01-22_23h59.05.379,bars,2023.2.3,Linux x86_64,59.52380952,657b66ea316d21385b68909f,,,,,,,,,,,1592.8505,1593.8386,,,1594.3385,1594.588,,39,39,,,,,,,,,,,,,,,,bars/035.png,bars/mask004.png,,,,,,,,,,,,3,2,,,,,,,0,10,0,10,,,,,,,,,,,1593.8387,1594.3384,1594.588,1597.3389,space,2.7413,,1597.339,44,21,1598.3382,1598.3383,1598.35,,,,0,34,34,34,1,175,60,,,,,,,,
,,6047238e77116b1a263b6dfd,65af554fb1b2d753c0180a06,2024-01-22_23h59.05.379,bars,2023.2.3,Linux x86_64,59.52380952,657b66ea316d21385b68909f,,,,,,,,,,,1598.3503,1599.3382,,,1599.8389,1600.0884,,1,181,,,,,,,,,,,,,,,,bars/013.png,bars/mask009.png,,,,,,,,,,,,6,2,,,,,,,0,10,0,8,,,,,,,,,,,1599.3382,1599.8388,1600.0885,1604.0887,space,3.9839,,1604.0888,74,9,1605.0882,1605.0882,1605.0997,,,,0,35,35,35,1,75,10,,,,,,,,
,,6047238e77116b1a263b6dfd,65af554fb1b2d753c0180a06,2024-01-22_23h59.05.379,bars,2023.2.3,Linux x86_64,59.52380952,657b66ea316d21385b68909f,,,,,,,,,,,1605.1001,1606.0882,,,1606.5881,1606.838,,0,180,,,,,,,,,,,,,,,,bars/048.png,bars/mask000.png,,,,,,,,,,,,8,2,,,,,,,0,10,0,9,,,,,,,,,,,1606.0883,1606.5881,1606.838,1611.6717,space,4.818,,1611.6719,50,5,1612.6712,1612.6713,1612.6819,,,,0,36,36,36,1,50,175,,,,,,,,
,,6047238e77116b1a263b6dfd,65af554fb1b2d753c0180a06,2024-01-22_23h59.05.379,bars,2023.2.3,Linux x86_64,59.52380952,657b66ea316d21385b68909f,,,,,,,,,,,1612.6821,1613.6708,,,1614.1723,1614.4211,,6,186,,,,,,,,,,,,,,,,bars/032.png,bars/mask006.png,,,,,,,,,,,,4,2,,,,,,,2,8,2,8,,,,,,,,,,,1613.6708,1614.1722,1614.4211,1617.6713,space,3.236,,1617.6714,61,14,1618.6719,1618.6719,1618.6841,,,,0,37,37,37,1,125,20,,,,,,,,
,,6047238e77116b1a263b6dfd,65af554fb1b2d753c0180a06,2024-01-22_23h59.05.379,bars,2023.2.3,Linux x86_64,59.52380952,657b66ea316d21385b68909f,,,,,,,,,,,1618.6843,1619.6877,,,1620.1888,1620.438,,179,179,,,,,,,,,,,,,,,,bars/048.png,bars/mask000.png,,,,,,,,,,,,6,2,,,,,,,0,6,0,7,,,,,,,,,,,1619.6877,1620.1887,1620.4381,1624.0212,space,3.5712,,1624.0212,51,4,1625.0214,1625.0215,1625.0326,,,,0,38,38,38,1,50,175,,,,,,,,
,,6047238e77116b1a263b6dfd,65af554fb1b2d753c0180a06,2024-01-22_23h59.05.379,bars,2023.2.3,Linux x86_64,59.52380952,657b66ea316d21385b68909f,,,,,,,,,,,1625.0329,1626.0212,,,1626.5219,1626.772,,76,76,,,,,,,,,,,,,,,,bars/046.png,bars/mask006.png,,,,,,,,,,,,2,2,,,,,,,0,4,1,3,,,,,,,,,,,1626.0212,1626.5218,1626.7721,1630.5382,space,3.7493,,1630.5384,79,9,1631.538,1631.538,1631.5497,,,,0,39,39,39,1,155,85,,,,,,,,
,,6047238e77116b1a263b6dfd,65af554fb1b2d753c0180a06,2024-01-22_23h59.05.379,bars,2023.2.3,Linux x86_64,59.52380952,657b66ea316d21385b68909f,,,,,,,,,,,1631.55,1632.5382,,,1633.0388,1633.2882,,110,110,,,,,,,,,,,,,,,,bars/009.png,bars/mask009.png,,,,,,,,,,,,5,2,,,,,,,0,6,1,6,,,,,,,,,,,1632.5383,1633.0387,1633.2884,1637.2379,space,3.9358,,1637.2381,85,5,1638.2377,1638.2377,1638.2491,,,,0,40,40,40,1,15,105,,,,,,,,
,,6047238e77116b1a263b6dfd,65af554fb1b2d753c0180a06,2024-01-22_23h59.05.379,bars,2023.2.3,Linux x86_64,59.52380952,657b66ea316d21385b68909f,,,,,,,,,,,1638.2494,1639.2386,,,1639.7387,1639.9876,,32,212,,,,,,,,,,,,,,,,bars/040.png,bars/mask001.png,,,,,,,,,,,,0,2,,,,,,,2,4,2,3,,,,,,,,,,,1639.2387,1639.7387,1639.9876,1644.5719,space,4.5672,,1644.572,72,27,1645.5711,1645.5717,1645.5818,,,,0,41,41,41,1,140,5,,,,,,,,
,,6047238e77116b1a263b6dfd,65af554fb1b2d753c0180a06,2024-01-22_23h59.05.379,bars,2023.2.3,Linux x86_64,59.52380952,657b66ea316d21385b68909f,,,,,,,,,,,1645.582,1646.571,,,1647.0711,1647.3219,,179,179,,,,,,,,,,,,,,,,bars/014.png,bars/mask006.png,,,,,,,,,,,,7,2,,,,,,,4,6,3,7,,,,,,,,,,,1646.571,1647.0711,1647.3219,1651.3544,space,4.0237,,1651.3545,81,1,1652.3542,1652.3542,1652.3661,,,,0,42,42,42,1,80,0,,,,,,,,
,,6047238e77116b1a263b6dfd,65af554fb1b2d753c0180a06,2024-01-22_23h59.05.379,bars,2023.2.3,Linux x86_64,59.52380952,657b66ea316d21385b68909f,,,,,,,,,,,1652.3664,1653.3542,,,1653.8546,1654.1041,,57,57,,,,,,,,,,,,,,,,bars/010.png,bars/mask007.png,,,,,,,,,,,,4,2,,,,,,,2,4,3,4,,,,,,,,,,,1653.3543,1653.8546,1654.1042,1657.3047,space,3.1928,,1657.3048,72,2,1658.305,1658.305,1658.3153,,,,0,43,43,43,1,165,55,,,,,,,,
,,6047238e77116b1a263b6dfd,65af554fb1b2d753c0180a06,2024-01-22_23h59.05.379,bars,2023.2.3,Linux x86_64,59.52380952,657b66ea316d21385b68909f,,,,,,,,,,,1658.3156,1659.3041,,,1659.805,1660.054,,116,116,,,,,,,,,,,,,,,,bars/028.png,bars/mask001.png,,,,,,,,,,,,0,2,,,,,,,0,2,0,0,,,,,,,,,,,1659.3042,1659.8049,1660.0541,1663.3719,space,3.3069,,1663.372,71,4,1664.3717,1664.3718,1664.3819,,,,0,44,44,44,1,45,120,,,,,,,,
,,6047238e77116b1a263b6dfd,65af554fb1b2d753c0180a06,2024-01-22_23h59.05.379,bars,2023.2.3,Linux x86_64,59.52380952,657b66ea316d21385b68909f,,,,,,,,,,,1664.3823,1665.3712,,,1665.8708,1666.1207,,168,-12,,,,,,,,,,,,,,,,bars/018.png,bars/mask004.png,,,,,,,,,,,,1,1,,,,,,,2,4,2,3,,,,,,,,,,,1665.3712,1665.8708,1666.1208,1669.0551,space,2.9208,,1669.0552,18,78,1670.0544,1670.0545,1670.066,,,,0,45,45,45,1,150,90,,,,,,,,
,,6047238e77116b1a263b6dfd,65af554fb1b2d753c0180a06,2024-01-22_23h59.05.379,bars,2023.2.3,Linux x86_64,59.52380952,657b66ea316d21385b68909f,,,,,,,,,,,1670.0662,1671.0542,,,1671.5543,1671.805,,87,87,,,,,,,,,,,,,,,,bars/045.png,bars/mask009.png,,,,,,,,,,,,2,1,,,,,,,4,6,4,6,,,,,,,,,,,1671.0542,1671.5543,1671.805,1674.2206,space,2.4032,,1674.2207,13,77,1675.2208,1675.2208,1675.2318,,,,0,46,46,46,1,100,10,,,,,,,,
,,6047238e77116b1a263b6dfd,65af554fb1b2d753c0180a06,2024-01-22_23h59.05.379,bars,2023.2.3,Linux x86_64,59.52380952,657b66ea316d21385b68909f,,,,,,,,,,,1675.2321,1676.2214,,,1676.7215,1676.9708,,151,151,,,,,,,,,,,,,,,,bars/001.png,bars/mask005.png,,,,,,,,,,,,1,1,,,,,,,2,8,2,7,,,,,,,,,,,1676.2215,1676.7215,1676.9709,1681.0378,space,4.0604,,1681.0378,21,66,1682.0373,1682.0375,1682.0496,,,,0,47,47,47,1,130,85,,,,,,,,
,,6047238e77116b1a263b6dfd,65af554fb1b2d753c0180a06,2024-01-22_23h59.05.379,bars,2023.2.3,Linux x86_64,59.52380952,657b66ea316d21385b68909f,,,,,,,,,,,1682.0499,1683.0381,,,1683.5383,1683.7875,,26,206,,,,,,,,,,,,,,,,bars/012.png,bars/mask002.png,,,,,,,,,,,,3,2,,,,,,,4,6,2,5,,,,,,,,,,,1683.0381,1683.5382,1683.7876,1689.0883,space,5.2936,,1689.0884,64,11,1690.0879,1690.088,1690.1018,,,,0,48,48,48,1,90,15,,,,,,,,
,,6047238e77116b1a263b6dfd,65af554fb1b2d753c0180a06,2024-01-22_23h59.05.379,bars,2023.2.3,Linux x86_64,59.52380952,657b66ea316d21385b68909f,,,,,,,,,,,1690.1021,1691.1047,,,1691.6045,1691.8543,,48,48,,,,,,,,,,,,,,,,bars/007.png,bars/mask004.png,,,,,,,,,,,,6,2,,,,,,,2,8,1,8,,,,,,,,,,,1691.1048,1691.6043,1691.8544,1694.5044,space,2.6334,,1694.5044,53,7,1695.5042,1695.5042,1695.5054,,,,0,49,49,49,1,175,55,,,,,,,,
,,6047238e77116b1a263b6dfd,65af554fb1b2d753c0180a06,2024-01-22_23h59.05.379,bars,2023.2.3,Linux x86_64,59.52380952,657b66ea316d21385b68909f,,,,,,,,,,,,,,,,,,,,,,,,,,,,,,,,,,,,,,,,,,,,,,,,,,,,,,,,,,,,,,,,,,,,,,,,,,,,,,,,,,,,,,,,,,,,,1695.5057,1755.5033,0,1,1,1,1,sequence_tables/blk042.csv
,,6047238e77116b1a263b6dfd,65af554fb1b2d753c0180a06,2024-01-22_23h59.05.379,bars,2023.2.3,Linux x86_64,59.52380952,657b66ea316d21385b68909f,,,,,,,,,,,1814.8524,1815.853,,,1816.3534,1816.5864,,32,32,,,,,,,,,,,,,,,,bars/029.png,bars/mask002.png,,,,,,,,,,,,2,2,,,,,,,2,3,5,3,,,,,,1755.5138,1814.8363,space,59.3172,,1815.8531,1816.3533,1816.5864,1820.1199,space,3.5179,,1820.1201,58,13,1821.1192,1821.1192,1821.1328,,,,0,0,0,0,1,90,45,,,,,,,,
,,6047238e77116b1a263b6dfd,65af554fb1b2d753c0180a06,2024-01-22_23h59.05.379,bars,2023.2.3,Linux x86_64,59.52380952,657b66ea316d21385b68909f,,,,,,,,,,,1821.133,1822.1363,,,1822.6369,1822.8863,,27,27,,,,,,,,,,,,,,,,bars/023.png,bars/mask009.png,,,,,,,,,,,,2,1,,,,,,,4,1,3,1,,,,,,,,,,,1822.1363,1822.6367,1822.8864,1829.0374,space,6.1363,,1829.0375,7,88,1830.0361,1830.0362,1830.0516,,,,0,1,1,1,1,20,115,,,,,,,,
,,6047238e77116b1a263b6dfd,65af554fb1b2d753c0180a06,2024-01-22_23h59.05.379,bars,2023.2.3,Linux x86_64,59.52380952,657b66ea316d21385b68909f,,,,,,,,,,,1830.0521,1831.0527,,,1831.5532,1831.8029,,127,127,,,,,,,,,,,,,,,,bars/031.png,bars/mask008.png,,,,,,,,,,,,4,1,,,,,,,6,0,5,0,,,,,,,,,,,1831.0527,1831.5531,1831.803,1834.5028,space,2.6923,,1834.5029,7,88,1835.5031,1835.5032,1835.5149,,,,0,2,2,2,1,120,35,,,,,,,,
,,6047238e77116b1a263b6dfd,65af554fb1b2d753c0180a06,2024-01-22_23h59.05.379,bars,2023.2.3,Linux x86_64,59.52380952,657b66ea316d21385b68909f,,,,,,,,,,,1835.5151,1836.5192,,,1837.0196,1837.2695,,41,41,,,,,,,,,,,,,,,,bars/028.png,bars/mask008.png,,,,,,,,,,,,3,1,,,,,,,4,2,4,2,,,,,,,,,,,1836.5192,1837.0196,1837.2696,1840.9363,space,3.6572,,1840.9364,4,79,1841.9358,1841.9359,1841.9472,,,,0,3,3,3,1,45,120,,,,,,,,
,,6047238e77116b1a263b6dfd,65af554fb1b2d753c0180a06,2024-01-22_23h59.05.379,bars,2023.2.3,Linux x86_64,59.52380952,657b66ea316d21385b68909f,,,,,,,,,,,1841.9474,1842.9362,,,1843.4361,1843.6864,,23,23,,,,,,,,,,,,,,,,bars/009.png,bars/mask005.png,,,,,,,,,,,,4,1,,,,,,,6,4,6,4,,,,,,,,,,,1842.9362,1843.4361,1843.6865,1847.2359,space,3.5433,,1847.236,8,82,1848.2359,1848.2359,1848.2463,,,,0,4,4,4,1,15,105,,,,,,,,
,,6047238e77116b1a263b6dfd,65af554fb1b2d753c0180a06,2024-01-22_23h59.05.379,bars,2023.2.3,Linux x86_64,59.52380952,657b66ea316d21385b68909f,,,,,,,,,,,1848.2464,1849.2362,,,1849.736,1849.9858,,45,45,,,,,,,,,,,,,,,,bars/014.png,bars/mask001.png,,,,,,,,,,,,0,1,,,,,,,4,2,3,2,,,,,,,,,,,1849.2362,1849.736,1849.9859,1856.3695,space,6.3731,,1856.3695,35,45,1857.3691,1857.3691,1857.3813,,,,0,5,5,5,1,80,0,,,,,,,,
,,6047238e77116b1a263b6dfd,65af554fb1b2d753c0180a06,2024-01-22_23h59.05.379,bars,2023.2.3,Linux x86_64,59.52380952,657b66ea316d21385b68909f,,,,,,,,,,,1857.3815,1858.3694,,,1858.8695,1859.119,,165,-15,,,,,,,,,,,,,,,,bars/007.png,bars/mask004.png,,,,,,,,,,,,1,1,,,,,,,2,4,2,5,,,,,,,,,,,1858.3694,1858.8695,1859.1191,1863.3698,space,4.2391,,1863.3698,10,70,1864.3689,1864.3689,1864.3789,,,,0,6,6,6,1,175,55,,,,,,,,
,,6047238e77116b1a263b6dfd,65af554fb1b2d753c0180a06,2024-01-22_23h59.05.379,bars,2023.2.3,Linux x86_64,59.52380952,657b66ea316d21385b68909f,,,,,,,,,,,1864.3791,1865.3689,,,1865.8696,1866.1191,,59,59,,,,,,,,,,,,,,,,bars/034.png,bars/mask002.png,,,,,,,,,,,,2,2,,,,,,,4,2,5,2,,,,,,,,,,,1865.3689,1865.8695,1866.1191,1870.7192,space,4.5927,,1870.7194,66,6,1871.7201,1871.7202,1871.7312,,,,0,7,7,7,1,125,65,,,,,,,,
,,6047238e77116b1a263b6dfd,65af554fb1b2d753c0180a06,2024-01-22_23h59.05.379,bars,2023.2.3,Linux x86_64,59.52380952,657b66ea316d21385b68909f,,,,,,,,,,,1871.7315,1872.72,,,1873.2195,1873.4694,,138,138,,,,,,,,,,,,,,,,bars/004.png,bars/mask004.png,,,,,,,,,,,,3,2,,,,,,,2,4,2,6,,,,,,,,,,,1872.7201,1873.2195,1873.4694,1876.153,space,2.6676,,1876.153,67,13,1877.1531,1877.1532,1877.1631,,,,0,8,8,8,1,25,125,,,,,,,,
,,6047238e77116b1a263b6dfd,65af554fb1b2d753c0180a06,2024-01-22_23h59.05.379,bars,2023.2.3,Linux x86_64,59.52380952,657b66ea316d21385b68909f,,,,,,,,,,,1877.1634,1878.1554,,,1878.6533,1878.9031,,15,195,,,,,,,,,,,,,,,,bars/040.png,bars/mask005.png,,,,,,,,,,,,1,2,,,,,,,0,2,0,2,,,,,,,,,,,1878.1554,1878.6533,1878.9031,1882.9203,space,4.0086,,1882.9203,55,10,1883.9202,1883.9202,1883.9314,,,,0,9,9,9,1,140,5,,,,,,,,
,,6047238e77116b1a263b6dfd,65af554fb1b2d753c0180a06,2024-01-22_23h59.05.379,bars,2023.2.3,Linux x86_64,59.52380952,657b66ea316d21385b68909f,,,,,,,,,,,1883.9317,1884.9201,,,1885.4197,1885.6698,,154,-26,,,,,,,,,,,,,,,,bars/001.png,bars/mask004.png,,,,,,,,,,,,0,1,,,,,,,0,4,0,5,,,,,,,,,,,1884.9202,1885.4197,1885.6698,1891.2375,space,5.5551,,1891.2376,24,69,1892.237,1892.2371,1892.2494,,,,0,10,10,10,1,130,85,,,,,,,,
,,6047238e77116b1a263b6dfd,65af554fb1b2d753c0180a06,2024-01-22_23h59.05.379,bars,2023.2.3,Linux x86_64,59.52380952,657b66ea316d21385b68909f,,,,,,,,,,,1892.2497,1893.254,,,1893.7536,1894.0039,,155,155,,,,,,,,,,,,,,,,bars/002.png,bars/mask008.png,,,,,,,,,,,,0,1,,,,,,,2,2,1,0,,,,,,,,,,,1893.254,1893.7535,1894.0039,1898.5715,space,4.5566,,1898.5717,25,70,1899.5707,1899.5707,1899.5828,,,,0,11,11,11,1,130,85,,,,,,,,
,,6047238e77116b1a263b6dfd,65af554fb1b2d753c0180a06,2024-01-22_23h59.05.379,bars,2023.2.3,Linux x86_64,59.52380952,657b66ea316d21385b68909f,,,,,,,,,,,1899.5831,1900.5873,,,1901.0874,1901.3376,,118,-62,,,,,,,,,,,,,,,,bars/037.png,bars/mask005.png,,,,,,,,,,,,3,2,,,,,,,4,4,5,5,,,,,,,,,,,1900.5873,1901.0873,1901.3377,1905.8876,space,4.543,,1905.8877,32,13,1906.8889,1906.8889,1906.9014,,,,0,12,12,12,1,150,105,,,,,,,,
,,6047238e77116b1a263b6dfd,65af554fb1b2d753c0180a06,2024-01-22_23h59.05.379,bars,2023.2.3,Linux x86_64,59.52380952,657b66ea316d21385b68909f,,,,,,,,,,,1906.9018,1907.9045,,,1908.4044,1908.6545,,107,107,,,,,,,,,,,,,,,,bars/039.png,bars/mask004.png,,,,,,,,,,,,3,2,,,,,,,2,2,0,3,,,,,,,,,,,1907.9045,1908.4044,1908.6545,1912.8052,space,4.1466,,1912.8055,68,2,1913.8046,1913.8046,1913.8147,,,,0,13,13,13,1,175,105,,,,,,,,
,,6047238e77116b1a263b6dfd,65af554fb1b2d753c0180a06,2024-01-22_23h59.05.379,bars,2023.2.3,Linux x86_64,59.52380952,657b66ea316d21385b68909f,,,,,,,,,,,1913.8151,1914.8045,,,1915.3044,1915.5549,,109,109,,,,,,,,,,,,,,,,bars/039.png,bars/mask006.png,,,,,,,,,,,,3,2,,,,,,,4,4,5,4,,,,,,,,,,,1914.8046,1915.3043,1915.5549,1918.0385,space,2.471,,1918.0387,66,4,1919.0381,1919.0382,1919.0503,,,,0,14,14,14,1,175,105,,,,,,,,
,,6047238e77116b1a263b6dfd,65af554fb1b2d753c0180a06,2024-01-22_23h59.05.379,bars,2023.2.3,Linux x86_64,59.52380952,657b66ea316d21385b68909f,,,,,,,,,,,1919.0505,1920.0383,,,1920.5384,1920.7884,,20,20,,,,,,,,,,,,,,,,bars/022.png,bars/mask002.png,,,,,,,,,,,,7,2,,,,,,,2,6,1,7,,,,,,,,,,,1920.0383,1920.5384,1920.7884,1925.005,space,4.2059,,1925.005,75,0,1926.0046,1926.0047,1926.0175,,,,0,15,15,15,1,95,20,,,,,,,,
,,6047238e77116b1a263b6dfd,65af554fb1b2d753c0180a06,2024-01-22_23h59.05.379,bars,2023.2.3,Linux x86_64,59.52380952,657b66ea316d21385b68909f,,,,,,,,,,,1926.0177,1927.022,,,1927.5221,1927.7722,,154,-26,,,,,,,,,,,,,,,,bars/000.png,bars/mask006.png,,,,,,,,,,,,4,2,,,,,,,4,4,2,5,,,,,,,,,,,1927.022,1927.5221,1927.7722,1932.8224,space,5.046,,1932.8224,66,9,1933.8221,1933.8222,1933.8344,,,,0,16,16,16,1,40,145,,,,,,,,
,,6047238e77116b1a263b6dfd,65af554fb1b2d753c0180a06,2024-01-22_23h59.05.379,bars,2023.2.3,Linux x86_64,59.52380952,657b66ea316d21385b68909f,,,,,,,,,,,1933.8347,1934.8387,,,1935.3389,1935.5888,,24,24,,,,,,,,,,,,,,,,bars/032.png,bars/mask005.png,,,,,,,,,,,,2,2,,,,,,,6,2,5,2,,,,,,,,,,,1934.8388,1935.3389,1935.5888,1941.7557,space,6.1576,,1941.7559,79,4,1942.7558,1942.7558,1942.7658,,,,0,17,17,17,1,125,20,,,,,,,,
,,6047238e77116b1a263b6dfd,65af554fb1b2d753c0180a06,2024-01-22_23h59.05.379,bars,2023.2.3,Linux x86_64,59.52380952,657b66ea316d21385b68909f,,,,,,,,,,,1942.7661,1943.756,,,1944.2561,1944.506,,21,21,,,,,,,,,,,,,,,,bars/012.png,bars/mask009.png,,,,,,,,,,,,2,2,,,,,,,8,4,7,3,,,,,,,,,,,1943.756,1944.2561,1944.506,1950.8892,space,6.3693,,1950.8893,69,6,1951.8894,1951.8894,1951.9011,,,,0,18,18,18,1,90,15,,,,,,,,
,,6047238e77116b1a263b6dfd,65af554fb1b2d753c0180a06,2024-01-22_23h59.05.379,bars,2023.2.3,Linux x86_64,59.52380952,657b66ea316d21385b68909f,,,,,,,,,,,1951.9013,1952.8899,,,1953.3897,1953.639,,35,35,,,,,,,,,,,,,,,,bars/027.png,bars/mask003.png,,,,,,,,,,,,2,2,,,,,,,6,2,5,3,,,,,,,,,,,1952.89,1953.3897,1953.639,1960.5066,space,6.8521,,1960.5067,75,15,1961.5066,1961.5066,1961.5177,,,,0,19,19,19,1,110,50,,,,,,,,
,,6047238e77116b1a263b6dfd,65af554fb1b2d753c0180a06,2024-01-22_23h59.05.379,bars,2023.2.3,Linux x86_64,59.52380952,657b66ea316d21385b68909f,,,,,,,,,,,1961.5179,1962.5068,,,1963.0061,1963.2562,,169,169,,,,,,,,,,,,,,,,bars/039.png,bars/mask004.png,,,,,,,,,,,,6,1,,,,,,,8,4,8,2,,,,,,,,,,,1962.5068,1963.006,1963.2563,1966.123,space,2.8574,,1966.1231,6,64,1967.1235,1967.1236,1967.1375,,,,0,20,20,20,1,175,105,,,,,,,,
,,6047238e77116b1a263b6dfd,65af554fb1b2d753c0180a06,2024-01-22_23h59.05.379,bars,2023.2.3,Linux x86_64,59.52380952,657b66ea316d21385b68909f,,,,,,,,,,,1967.1378,1968.1397,,,1968.6404,1968.8904,,124,124,,,,,,,,,,,,,,,,bars/008.png,bars/mask005.png,,,,,,,,,,,,3,1,,,,,,,6,6,5,6,,,,,,,,,,,1968.1397,1968.6403,1968.8905,1975.4069,space,6.4993,,1975.407,14,56,1976.4068,1976.4069,1976.4201,,,,0,21,21,21,1,110,0,,,,,,,,
,,6047238e77116b1a263b6dfd,65af554fb1b2d753c0180a06,2024-01-22_23h59.05.379,bars,2023.2.3,Linux x86_64,59.52380952,657b66ea316d21385b68909f,,,,,,,,,,,1976.4205,1977.4237,,,1977.9238,1978.1736,,47,47,,,,,,,,,,,,,,,,bars/000.png,bars/mask001.png,,,,,,,,,,,,7,1,,,,,,,8,4,9,4,,,,,,,,,,,1977.4238,1977.9238,1978.1736,1981.4071,space,3.2206,,1981.4071,7,82,1982.4074,1982.4076,1982.4203,,,,0,22,22,22,1,40,145,,,,,,,,
,,6047238e77116b1a263b6dfd,65af554fb1b2d753c0180a06,2024-01-22_23h59.05.379,bars,2023.2.3,Linux x86_64,59.52380952,657b66ea316d21385b68909f,,,,,,,,,,,1982.4205,1983.4239,,,1983.9234,1984.1742,,37,37,,,,,,,,,,,,,,,,bars/028.png,bars/mask002.png,,,,,,,,,,,,7,1,,,,,,,10,2,10,2,,,,,,,,,,,1983.4239,1983.9233,1984.1742,1988.2073,space,4.0287,,1988.2073,8,83,1989.207,1989.2071,1989.2176,,,,0,23,23,23,1,45,120,,,,,,,,
,,6047238e77116b1a263b6dfd,65af554fb1b2d753c0180a06,2024-01-22_23h59.05.379,bars,2023.2.3,Linux x86_64,59.52380952,657b66ea316d21385b68909f,,,,,,,,,,,1989.2178,1990.2071,,,1990.7069,1990.9573,,108,108,,,,,,,,,,,,,,,,bars/020.png,bars/mask009.png,,,,,,,,,,,,8,1,,,,,,,10,4,10,6,,,,,,,,,,,1990.2072,1990.7069,1990.9573,1992.5412,space,1.5672,,1992.5413,7,62,1993.5408,1993.5409,1993.5532,,,,0,24,24,24,1,115,170,,,,,,,,
,,6047238e77116b1a263b6dfd,65af554fb1b2d753c0180a06,2024-01-22_23h59.05.379,bars,2023.2.3,Linux x86_64,59.52380952,657b66ea316d21385b68909f,,,,,,,,,,,1993.5534,1994.5571,,,1995.0576,1995.3077,,158,158,,,,,,,,,,,,,,,,bars/007.png,bars/mask009.png,,,,,,,,,,,,4,1,,,,,,,10,6,9,7,,,,,,,,,,,1994.5571,1995.0576,1995.3078,1997.2407,space,1.9283,,1997.2408,17,77,1998.2405,1998.2406,1998.242,,,,0,25,25,25,1,175,55,,,,,,,,
,,6047238e77116b1a263b6dfd,65af554fb1b2d753c0180a06,2024-01-22_23h59.05.379,bars,2023.2.3,Linux x86_64,59.52380952,657b66ea316d21385b68909f,,,,,,,,,,,1998.2423,1999.2405,,,1999.7414,1999.9907,,159,159,,,,,,,,,,,,,,,,bars/035.png,bars/mask005.png,,,,,,,,,,,,5,1,,,,,,,10,8,10,8,,,,,,,,,,,1999.2406,1999.7413,1999.9907,2001.7411,space,1.7328,,2001.7412,16,81,2002.7414,2002.7414,2002.7427,,,,0,26,26,26,1,175,60,,,,,,,,
,,6047238e77116b1a263b6dfd,65af554fb1b2d753c0180a06,2024-01-22_23h59.05.379,bars,2023.2.3,Linux x86_64,59.52380952,657b66ea316d21385b68909f,,,,,,,,,,,2002.7431,2003.7414,,,2004.2415,2004.4911,,161,-19,,,,,,,,,,,,,,,,bars/037.png,bars/mask008.png,,,,,,,,,,,,6,1,,,,,,,10,10,10,10,,,,,,,,,,,2003.7414,2004.2415,2004.4911,2007.4752,space,2.9693,,2007.4753,11,56,2008.4748,2008.4749,2008.4853,,,,0,27,27,27,1,150,105,,,,,,,,
,,6047238e77116b1a263b6dfd,65af554fb1b2d753c0180a06,2024-01-22_23h59.05.379,bars,2023.2.3,Linux x86_64,59.52380952,657b66ea316d21385b68909f,,,,,,,,,,,2008.4856,2009.4746,,,2009.9743,2010.225,,111,-69,,,,,,,,,,,,,,,,bars/027.png,bars/mask009.png,,,,,,,,,,,,10,1,,,,,,,10,8,10,8,,,,,,,,,,,2009.4747,2009.9743,2010.225,2016.0749,space,5.8428,,2016.075,1,61,2017.0752,2017.0752,2017.0868,,,,0,28,28,28,1,110,50,,,,,,,,
,,6047238e77116b1a263b6dfd,65af554fb1b2d753c0180a06,2024-01-22_23h59.05.379,bars,2023.2.3,Linux x86_64,59.52380952,657b66ea316d21385b68909f,,,,,,,,,,,2017.087,2018.0752,,,2018.5746,2018.8243,,143,143,,,,,,,,,,,,,,,,bars/034.png,bars/mask000.png,,,,,,,,,,,,3,1,,,,,,,8,10,8,10,,,,,,,,,,,2018.0752,2018.5745,2018.8243,2022.8085,space,3.981,,2022.8086,18,78,2023.8088,2023.8089,2023.8213,,,,0,29,29,29,1,125,65,,,,,,,,
,,6047238e77116b1a263b6dfd,65af554fb1b2d753c0180a06,2024-01-22_23h59.05.379,bars,2023.2.3,Linux x86_64,59.52380952,657b66ea316d21385b68909f,,,,,,,,,,,2023.8216,2024.8259,,,2025.325,2025.5749,,115,-65,,,,,,,,,,,,,,,,bars/025.png,bars/mask007.png,,,,,,,,,,,,5,1,,,,,,,6,10,7,10,,,,,,,,,,,2024.8259,2025.325,2025.5749,2030.8584,space,5.2771,,2030.8584,10,75,2031.8584,2031.8584,2031.8693,,,,0,30,30,30,1,105,40,,,,,,,,
,,6047238e77116b1a263b6dfd,65af554fb1b2d753c0180a06,2024-01-22_23h59.05.379,bars,2023.2.3,Linux x86_64,59.52380952,657b66ea316d21385b68909f,,,,,,,,,,,2031.8694,2032.8591,,,2033.3591,2033.6091,,12,12,,,,,,,,,,,,,,,,bars/011.png,bars/mask009.png,,,,,,,,,,,,0,1,,,,,,,4,10,3,10,,,,,,,,,,,2032.8591,2033.3591,2033.6091,2035.3086,space,1.6834,,2035.3087,32,73,2036.3085,2036.3085,2036.3101,,,,0,31,31,31,1,160,85,,,,,,,,
,,6047238e77116b1a263b6dfd,65af554fb1b2d753c0180a06,2024-01-22_23h59.05.379,bars,2023.2.3,Linux x86_64,59.52380952,657b66ea316d21385b68909f,,,,,,,,,,,2036.3106,2037.3085,,,2037.8089,2038.0592,,27,27,,,,,,,,,,,,,,,,bars/004.png,bars/mask006.png,,,,,,,,,,,,7,1,,,,,,,6,10,7,10,,,,,,,,,,,2037.3087,2037.8089,2038.0593,2040.8418,space,2.7781,,2040.8419,2,82,2041.8426,2041.8426,2041.8542,,,,0,32,32,32,1,25,125,,,,,,,,
,,6047238e77116b1a263b6dfd,65af554fb1b2d753c0180a06,2024-01-22_23h59.05.379,bars,2023.2.3,Linux x86_64,59.52380952,657b66ea316d21385b68909f,,,,,,,,,,,2041.8544,2042.8424,,,2043.3424,2043.5923,,6,6,,,,,,,,,,,,,,,,bars/039.png,bars/mask003.png,,,,,,,,,,,,2,1,,,,,,,4,10,3,9,,,,,,,,,,,2042.8424,2043.3423,2043.5924,2045.7254,space,2.118,,2045.7256,11,81,2046.7255,2046.7255,2046.7271,,,,0,33,33,33,1,175,105,,,,,,,,
,,6047238e77116b1a263b6dfd,65af554fb1b2d753c0180a06,2024-01-22_23h59.05.379,bars,2023.2.3,Linux x86_64,59.52380952,657b66ea316d21385b68909f,,,,,,,,,,,2046.7274,2047.7255,,,2048.2254,2048.4755,,173,173,,,,,,,,,,,,,,,,bars/036.png,bars/mask000.png,,,,,,,,,,,,1,2,,,,,,,6,8,8,8,,,,,,,,,,,2047.7255,2048.2253,2048.4755,2051.4094,space,2.922,,2051.4095,28,27,2052.4092,2052.4092,2052.4228,,,,0,34,34,34,1,145,20,,,,,,,,
,,6047238e77116b1a263b6dfd,65af554fb1b2d753c0180a06,2024-01-22_23h59.05.379,bars,2023.2.3,Linux x86_64,59.52380952,657b66ea316d21385b68909f,,,,,,,,,,,2052.4231,2053.4263,,,2053.9264,2054.1755,,90,90,,,,,,,,,,,,,,,,bars/026.png,bars/mask004.png,,,,,,,,,,,,5,2,,,,,,,4,6,4,6,,,,,,,,,,,2053.4263,2053.9262,2054.1756,2057.1929,space,3.0064,,2057.193,55,5,2058.193,2058.193,2058.2058,,,,0,35,35,35,1,35,85,,,,,,,,
,,6047238e77116b1a263b6dfd,65af554fb1b2d753c0180a06,2024-01-22_23h59.05.379,bars,2023.2.3,Linux x86_64,59.52380952,657b66ea316d21385b68909f,,,,,,,,,,,2058.2062,2059.2098,,,2059.7099,2059.9596,,147,147,,,,,,,,,,,,,,,,bars/003.png,bars/mask003.png,,,,,,,,,,,,3,2,,,,,,,2,4,1,4,,,,,,,,,,,2059.2099,2059.7099,2059.9597,2061.2095,space,1.2352,,2061.2095,58,7,2062.2092,2062.2092,2062.2103,,,,0,36,36,36,1,25,140,,,,,,,,
,,6047238e77116b1a263b6dfd,65af554fb1b2d753c0180a06,2024-01-22_23h59.05.379,bars,2023.2.3,Linux x86_64,59.52380952,657b66ea316d21385b68909f,,,,,,,,,,,2062.2107,2063.2096,,,2063.7099,2063.9594,,97,97,,,,,,,,,,,,,,,,bars/041.png,bars/mask003.png,,,,,,,,,,,,0,2,,,,,,,0,2,1,0,,,,,,,,,,,2063.2096,2063.7099,2063.9594,2068.6596,space,4.6931,,2068.6597,77,12,2069.6592,2069.6593,2069.669,,,,0,37,37,37,1,20,85,,,,,,,,
,,6047238e77116b1a263b6dfd,65af554fb1b2d753c0180a06,2024-01-22_23h59.05.379,bars,2023.2.3,Linux x86_64,59.52380952,657b66ea316d21385b68909f,,,,,,,,,,,2069.6692,2070.6595,,,2071.1598,2071.4107,,24,204,,,,,,,,,,,,,,,,bars/041.png,bars/mask005.png,,,,,,,,,,,,2,1,,,,,,,2,0,2,1,,,,,,,,,,,2070.6595,2071.1598,2071.4108,2074.1262,space,2.7071,,2074.1263,4,61,2075.1258,2075.1258,2075.1368,,,,0,38,38,38,1,20,85,,,,,,,,
,,6047238e77116b1a263b6dfd,65af554fb1b2d753c0180a06,2024-01-22_23h59.05.379,bars,2023.2.3,Linux x86_64,59.52380952,657b66ea316d21385b68909f,,,,,,,,,,,2075.137,2076.1263,,,2076.6262,2076.8764,,120,120,,,,,,,,,,,,,,,,bars/032.png,bars/mask007.png,,,,,,,,,,,,4,1,,,,,,,4,2,5,2,,,,,,,,,,,2076.1263,2076.626,2076.8765,2080.261,space,3.3783,,2080.2611,5,80,2081.2597,2081.2597,2081.2722,,,,0,39,39,39,1,125,20,,,,,,,,
,,6047238e77116b1a263b6dfd,65af554fb1b2d753c0180a06,2024-01-22_23h59.05.379,bars,2023.2.3,Linux x86_64,59.52380952,657b66ea316d21385b68909f,,,,,,,,,,,2081.2725,2082.261,,,2082.7611,2083.0099,,145,-35,,,,,,,,,,,,,,,,bars/001.png,bars/mask000.png,,,,,,,,,,,,4,1,,,,,,,6,0,7,1,,,,,,,,,,,2082.261,2082.761,2083.0099,2087.1934,space,4.1674,,2087.1934,15,60,2088.1933,2088.1934,2088.2046,,,,0,40,40,40,1,130,85,,,,,,,,
,,6047238e77116b1a263b6dfd,65af554fb1b2d753c0180a06,2024-01-22_23h59.05.379,bars,2023.2.3,Linux x86_64,59.52380952,657b66ea316d21385b68909f,,,,,,,,,,,2088.2049,2089.1939,,,2089.6946,2089.9434,,105,105,,,,,,,,,,,,,,,,bars/020.png,bars/mask007.png,,,,,,,,,,,,3,1,,,,,,,4,2,4,2,,,,,,,,,,,2089.1939,2089.6945,2089.9435,2092.2104,space,2.2642,,2092.2105,10,65,2093.2099,2093.21,2093.2201,,,,0,41,41,41,1,115,170,,,,,,,,
,,6047238e77116b1a263b6dfd,65af554fb1b2d753c0180a06,2024-01-22_23h59.05.379,bars,2023.2.3,Linux x86_64,59.52380952,657b66ea316d21385b68909f,,,,,,,,,,,2093.2203,2094.2101,,,2094.7109,2094.9602,,116,116,,,,,,,,,,,,,,,,bars/028.png,bars/mask003.png,,,,,,,,,,,,3,2,,,,,,,2,4,1,3,,,,,,,,,,,2094.2102,2094.7109,2094.9602,2098.1438,space,3.1664,,2098.1439,71,4,2099.1442,2099.1443,2099.1564,,,,0,42,42,42,1,45,120,,,,,,,,
,,6047238e77116b1a263b6dfd,65af554fb1b2d753c0180a06,2024-01-22_23h59.05.379,bars,2023.2.3,Linux x86_64,59.52380952,657b66ea316d21385b68909f,,,,,,,,,,,2099.1567,2100.1443,,,2100.6443,2100.8935,,166,166,,,,,,,,,,,,,,,,bars/049.png,bars/mask000.png,,,,,,,,,,,,1,1,,,,,,,0,2,1,1,,,,,,,,,,,2100.1444,2100.6442,2100.8936,2104.7105,space,3.8084,,2104.7105,6,51,2105.7111,2105.7112,2105.7247,,,,0,43,43,43,1,160,115,,,,,,,,
,,6047238e77116b1a263b6dfd,65af554fb1b2d753c0180a06,2024-01-22_23h59.05.379,bars,2023.2.3,Linux x86_64,59.52380952,657b66ea316d21385b68909f,,,,,,,,,,,2105.725,2106.7274,,,2107.2271,2107.4777,,10,190,,,,,,,,,,,,,,,,bars/015.png,bars/mask000.png,,,,,,,,,,,,0,2,,,,,,,0,4,0,4,,,,,,,,,,,2106.7274,2107.227,2107.4777,2111.7774,space,4.2898,,2111.7775,80,30,2112.7777,2112.7778,2112.7912,,,,0,44,44,44,1,110,160,,,,,,,,
,,6047238e77116b1a263b6dfd,65af554fb1b2d753c0180a06,2024-01-22_23h59.05.379,bars,2023.2.3,Linux x86_64,59.52380952,657b66ea316d21385b68909f,,,,,,,,,,,2112.7915,2113.7951,,,2114.294,2114.5439,,9,189,,,,,,,,,,,,,,,,bars/014.png,bars/mask006.png,,,,,,,,,,,,6,2,,,,,,,0,6,0,9,,,,,,,,,,,2113.7952,2114.294,2114.544,2119.9945,space,5.4384,,2119.9946,71,9,2120.9947,2120.9947,2121.005,,,,0,45,45,45,1,80,0,,,,,,,,
,,6047238e77116b1a263b6dfd,65af554fb1b2d753c0180a06,2024-01-22_23h59.05.379,bars,2023.2.3,Linux x86_64,59.52380952,657b66ea316d21385b68909f,,,,,,,,,,,2121.0052,2121.9941,,,2122.4946,2122.7445,,175,175,,,,,,,,,,,,,,,,bars/024.png,bars/mask004.png,,,,,,,,,,,,3,2,,,,,,,2,4,2,3,,,,,,,,,,,2121.9941,2122.4946,2122.7445,2126.4111,space,3.6619,,2126.4111,55,5,2127.4115,2127.4116,2127.4219,,,,0,46,46,46,1,120,170,,,,,,,,
,,6047238e77116b1a263b6dfd,65af554fb1b2d753c0180a06,2024-01-22_23h59.05.379,bars,2023.2.3,Linux x86_64,59.52380952,657b66ea316d21385b68909f,,,,,,,,,,,2127.4222,2128.4114,,,2128.9117,2129.1617,,61,61,,,,,,,,,,,,,,,,bars/047.png,bars/mask002.png,,,,,,,,,,,,1,2,,,,,,,0,2,1,2,,,,,,,,,,,2128.4114,2128.9117,2129.1618,2132.7447,space,3.5649,,2132.7448,46,9,2133.7452,2133.7454,2133.7567,,,,0,47,47,47,1,15,70,,,,,,,,
,,6047238e77116b1a263b6dfd,65af554fb1b2d753c0180a06,2024-01-22_23h59.05.379,bars,2023.2.3,Linux x86_64,59.52380952,657b66ea316d21385b68909f,,,,,,,,,,,2133.757,2134.7452,,,2135.2457,2135.4946,,165,165,,,,,,,,,,,,,,,,bars/000.png,bars/mask006.png,,,,,,,,,,,,2,2,,,,,,,0,4,2,5,,,,,,,,,,,2134.7453,2135.2455,2135.4947,2137.0443,space,1.5453,,2137.0444,55,20,2138.0445,2138.0446,2138.0453,,,,0,48,48,48,1,40,145,,,,,,,,
,,6047238e77116b1a263b6dfd,65af554fb1b2d753c0180a06,2024-01-22_23h59.05.379,bars,2023.2.3,Linux x86_64,59.52380952,657b66ea316d21385b68909f,,,,,,,,,,,2138.0457,2139.0451,,,2139.5447,2139.7949,,106,106,,,,,,,,,,,,,,,,bars/025.png,bars/mask008.png,,,,,,,,,,,,1,1,,,,,,,2,2,1,3,,,,,,,,,,,2139.0452,2139.5446,2139.7949,2140.9112,space,1.1003,,2140.9112,1,66,2141.9116,2141.9116,2141.9139,,,,0,49,49,49,1,105,40,,,,,,,,
,,6047238e77116b1a263b6dfd,65af554fb1b2d753c0180a06,2024-01-22_23h59.05.379,bars,2023.2.3,Linux x86_64,59.52380952,657b66ea316d21385b68909f,,,,,,,,,,,,,,,,,,,,,,,,,,,,,,,,,,,,,,,,,,,,,,,,,,,,,,,,,,,,,,,,,,,,,,,,,,,,,,,,,,,,,,,,,,,,,2141.9142,2201.9124,0,2,2,2,1,sequence_tables/blk016.csv
,,6047238e77116b1a263b6dfd,65af554fb1b2d753c0180a06,2024-01-22_23h59.05.379,bars,2023.2.3,Linux x86_64,59.52380952,657b66ea316d21385b68909f,,,,,,,,,,,2252.3958,2253.3975,,,2253.8976,2254.1476,,120,120,,,,,,,,,,,,,,,,bars/037.png,bars/mask003.png,,,,,,,,,,,,5,2,,,,,,,8,8,9,9,,,,,,2201.9231,2252.3813,space,50.4479,,2253.3976,2253.8976,2254.1477,2256.4975,space,2.3335,,2256.4976,30,15,2257.4975,2257.4975,2257.5105,,,,0,0,0,0,1,150,105,,,,,,,,
,,6047238e77116b1a263b6dfd,65af554fb1b2d753c0180a06,2024-01-22_23h59.05.379,bars,2023.2.3,Linux x86_64,59.52380952,657b66ea316d21385b68909f,,,,,,,,,,,2257.5109,2258.5138,,,2259.0141,2259.265,,83,83,,,,,,,,,,,,,,,,bars/011.png,bars/mask007.png,,,,,,,,,,,,6,2,,,,,,,10,6,8,6,,,,,,,,,,,2258.5138,2259.014,2259.2651,2263.1808,space,3.9057,,2263.1808,77,2,2264.1809,2264.1809,2264.1927,,,,0,1,1,1,1,160,85,,,,,,,,
,,6047238e77116b1a263b6dfd,65af554fb1b2d753c0180a06,2024-01-22_23h59.05.379,bars,2023.2.3,Linux x86_64,59.52380952,657b66ea316d21385b68909f,,,,,,,,,,,2264.193,2265.1983,,,2265.698,2265.9472,,102,102,,,,,,,,,,,,,,,,bars/039.png,bars/mask006.png,,,,,,,,,,,,7,2,,,,,,,8,8,10,8,,,,,,,,,,,2265.1983,2265.6979,2265.9472,2271.0975,space,5.1353,,2271.0976,73,3,2272.0983,2272.0983,2272.1104,,,,0,2,2,2,1,175,105,,,,,,,,
,,6047238e77116b1a263b6dfd,65af554fb1b2d753c0180a06,2024-01-22_23h59.05.379,bars,2023.2.3,Linux x86_64,59.52380952,657b66ea316d21385b68909f,,,,,,,,,,,2272.1107,2273.1138,,,2273.614,2273.8643,,91,91,,,,,,,,,,,,,,,,bars/041.png,bars/mask001.png,,,,,,,,,,,,6,2,,,,,,,6,6,4,7,,,,,,,,,,,2273.1138,2273.6139,2273.8643,2278.3141,space,4.4434,,2278.3141,71,6,2279.3154,2279.3155,2279.3257,,,,0,3,3,3,1,20,85,,,,,,,,
,,6047238e77116b1a263b6dfd,65af554fb1b2d753c0180a06,2024-01-22_23h59.05.379,bars,2023.2.3,Linux x86_64,59.52380952,657b66ea316d21385b68909f,,,,,,,,,,,2279.3259,2280.3142,,,2280.8148,2281.0645,,46,226,,,,,,,,,,,,,,,,bars/001.png,bars/mask006.png,,,,,,,,,,,,0,2,,,,,,,4,8,5,7,,,,,,,,,,,2280.3142,2280.8147,2281.0645,2284.6157,space,3.5372,,2284.6157,84,39,2285.6143,2285.6143,2285.6248,,,,0,4,4,4,1,130,85,,,,,,,,
,,6047238e77116b1a263b6dfd,65af554fb1b2d753c0180a06,2024-01-22_23h59.05.379,bars,2023.2.3,Linux x86_64,59.52380952,657b66ea316d21385b68909f,,,,,,,,,,,2285.6251,2286.6145,,,2287.1142,2287.3645,,82,82,,,,,,,,,,,,,,,,bars/046.png,bars/mask003.png,,,,,,,,,,,,5,2,,,,,,,2,6,1,6,,,,,,,,,,,2286.6145,2287.1141,2287.3645,2288.4811,space,1.1097,,2288.4812,73,3,2289.4814,2289.4815,2289.4829,,,,0,5,5,5,1,155,85,,,,,,,,
,,6047238e77116b1a263b6dfd,65af554fb1b2d753c0180a06,2024-01-22_23h59.05.379,bars,2023.2.3,Linux x86_64,59.52380952,657b66ea316d21385b68909f,,,,,,,,,,,2289.4832,2290.4808,,,2290.9815,2291.2312,,23,203,,,,,,,,,,,,,,,,bars/022.png,bars/mask000.png,,,,,,,,,,,,5,2,,,,,,,4,4,3,6,,,,,,,,,,,2290.4809,2290.9813,2291.2312,2295.1484,space,3.9074,,2295.1484,72,3,2296.1478,2296.1479,2296.1583,,,,0,6,6,6,1,95,20,,,,,,,,
,,6047238e77116b1a263b6dfd,65af554fb1b2d753c0180a06,2024-01-22_23h59.05.379,bars,2023.2.3,Linux x86_64,59.52380952,657b66ea316d21385b68909f,,,,,,,,,,,2296.1586,2297.1482,,,2297.6483,2297.8979,,0,180,,,,,,,,,,,,,,,,bars/045.png,bars/mask004.png,,,,,,,,,,,,1,2,,,,,,,2,2,1,1,,,,,,,,,,,2297.1485,2297.6482,2297.898,2302.0813,space,4.1679,,2302.0813,80,10,2303.0821,2303.0821,2303.0925,,,,0,7,7,7,1,100,10,,,,,,,,
,,6047238e77116b1a263b6dfd,65af554fb1b2d753c0180a06,2024-01-22_23h59.05.379,bars,2023.2.3,Linux x86_64,59.52380952,657b66ea316d21385b68909f,,,,,,,,,,,2303.0926,2304.0812,,,2304.5819,2304.832,,94,94,,,,,,,,,,,,,,,,bars/041.png,bars/mask006.png,,,,,,,,,,,,2,2,,,,,,,4,4,3,3,,,,,,,,,,,2304.0812,2304.5819,2304.8321,2309.582,space,4.7382,,2309.582,74,9,2310.5815,2310.5815,2310.5913,,,,0,8,8,8,1,20,85,,,,,,,,
,,6047238e77116b1a263b6dfd,65af554fb1b2d753c0180a06,2024-01-22_23h59.05.379,bars,2023.2.3,Linux x86_64,59.52380952,657b66ea316d21385b68909f,,,,,,,,,,,2310.5916,2311.5823,,,2312.0815,2312.3316,,120,120,,,,,,,,,,,,,,,,bars/031.png,bars/mask005.png,,,,,,,,,,,,3,1,,,,,,,2,6,3,7,,,,,,,,,,,2311.5823,2312.0815,2312.3318,2314.7488,space,2.4005,,2314.7488,0,85,2315.7482,2315.7483,2315.7592,,,,0,9,9,9,1,120,35,,,,,,,,
,,6047238e77116b1a263b6dfd,65af554fb1b2d753c0180a06,2024-01-22_23h59.05.379,bars,2023.2.3,Linux x86_64,59.52380952,657b66ea316d21385b68909f,,,,,,,,,,,2315.7596,2316.7481,,,2317.2491,2317.4991,,132,132,,,,,,,,,,,,,,,,bars/036.png,bars/mask009.png,,,,,,,,,,,,2,1,,,,,,,4,8,4,8,,,,,,,,,,,2316.7482,2317.2491,2317.4991,2319.7994,space,2.2974,,2319.7995,13,68,2320.7979,2320.7979,2320.8081,,,,0,10,10,10,1,145,20,,,,,,,,
,,6047238e77116b1a263b6dfd,65af554fb1b2d753c0180a06,2024-01-22_23h59.05.379,bars,2023.2.3,Linux x86_64,59.52380952,657b66ea316d21385b68909f,,,,,,,,,,,2320.8084,2321.799,,,2322.2985,2322.5489,,23,23,,,,,,,,,,,,,,,,bars/034.png,bars/mask007.png,,,,,,,,,,,,0,2,,,,,,,6,6,6,6,,,,,,,,,,,2321.799,2322.2984,2322.5489,2327.132,space,4.574,,2327.132,78,42,2328.1318,2328.1319,2328.1432,,,,0,11,11,11,1,125,65,,,,,,,,
,,6047238e77116b1a263b6dfd,65af554fb1b2d753c0180a06,2024-01-22_23h59.05.379,bars,2023.2.3,Linux x86_64,59.52380952,657b66ea316d21385b68909f,,,,,,,,,,,2328.1434,2329.1322,,,2329.632,2329.8823,,38,38,,,,,,,,,,,,,,,,bars/031.png,bars/mask004.png,,,,,,,,,,,,3,2,,,,,,,4,4,3,3,,,,,,,,,,,2329.1323,2329.632,2329.8825,2332.7319,space,2.8329,,2332.732,82,3,2333.7327,2333.7327,2333.7428,,,,0,12,12,12,1,120,35,,,,,,,,
,,6047238e77116b1a263b6dfd,65af554fb1b2d753c0180a06,2024-01-22_23h59.05.379,bars,2023.2.3,Linux x86_64,59.52380952,657b66ea316d21385b68909f,,,,,,,,,,,2333.7431,2334.7319,,,2335.232,2335.4822,,144,144,,,,,,,,,,,,,,,,bars/034.png,bars/mask002.png,,,,,,,,,,,,0,1,,,,,,,2,6,1,6,,,,,,,,,,,2334.732,2335.2319,2335.4822,2340.8651,space,5.3775,,2340.8652,19,79,2341.8653,2341.8653,2341.8769,,,,0,13,13,13,1,125,65,,,,,,,,
,,6047238e77116b1a263b6dfd,65af554fb1b2d753c0180a06,2024-01-22_23h59.05.379,bars,2023.2.3,Linux x86_64,59.52380952,657b66ea316d21385b68909f,,,,,,,,,,,2341.8771,2342.8653,,,2343.3654,2343.6153,,133,-47,,,,,,,,,,,,,,,,bars/032.png,bars/mask002.png,,,,,,,,,,,,0,1,,,,,,,0,8,0,8,,,,,,,,,,,2342.8654,2343.3654,2343.6153,2347.3827,space,3.7575,,2347.3828,8,67,2348.382,2348.382,2348.3935,,,,0,14,14,14,1,125,20,,,,,,,,
,,6047238e77116b1a263b6dfd,65af554fb1b2d753c0180a06,2024-01-22_23h59.05.379,bars,2023.2.3,Linux x86_64,59.52380952,657b66ea316d21385b68909f,,,,,,,,,,,2348.3937,2349.382,,,2349.882,2350.1319,,156,-24,,,,,,,,,,,,,,,,bars/020.png,bars/mask008.png,,,,,,,,,,,,3,2,,,,,,,0,6,0,6,,,,,,,,,,,2349.382,2349.8819,2350.132,2352.5988,space,2.4565,,2352.5989,41,14,2353.5989,2353.599,2353.6099,,,,0,15,15,15,1,115,170,,,,,,,,
,,6047238e77116b1a263b6dfd,65af554fb1b2d753c0180a06,2024-01-22_23h59.05.379,bars,2023.2.3,Linux x86_64,59.52380952,657b66ea316d21385b68909f,,,,,,,,,,,2353.6102,2354.5996,,,2355.0984,2355.3494,,51,51,,,,,,,,,,,,,,,,bars/010.png,bars/mask007.png,,,,,,,,,,,,8,2,,,,,,,2,8,3,9,,,,,,,,,,,2354.5997,2355.0984,2355.3494,2358.0485,space,2.6959,,2358.0486,66,4,2359.0484,2359.0485,2359.0586,,,,0,16,16,16,1,165,55,,,,,,,,
,,6047238e77116b1a263b6dfd,65af554fb1b2d753c0180a06,2024-01-22_23h59.05.379,bars,2023.2.3,Linux x86_64,59.52380952,657b66ea316d21385b68909f,,,,,,,,,,,2359.0588,2360.049,,,2360.5485,2360.7987,,35,35,,,,,,,,,,,,,,,,bars/034.png,bars/mask007.png,,,,,,,,,,,,0,2,,,,,,,0,10,1,10,,,,,,,,,,,2360.0491,2360.5485,2360.7988,2364.166,space,3.3514,,2364.1663,90,30,2365.1658,2365.1659,2365.1781,,,,0,17,17,17,1,125,65,,,,,,,,
,,6047238e77116b1a263b6dfd,65af554fb1b2d753c0180a06,2024-01-22_23h59.05.379,bars,2023.2.3,Linux x86_64,59.52380952,657b66ea316d21385b68909f,,,,,,,,,,,2365.1782,2366.1826,,,2366.6825,2366.9328,,95,95,,,,,,,,,,,,,,,,bars/018.png,bars/mask006.png,,,,,,,,,,,,6,2,,,,,,,2,8,1,7,,,,,,,,,,,2366.1827,2366.6825,2366.9329,2368.5335,space,1.582,,2368.5336,55,5,2369.5325,2369.5326,2369.5336,,,,0,18,18,18,1,150,90,,,,,,,,
,,6047238e77116b1a263b6dfd,65af554fb1b2d753c0180a06,2024-01-22_23h59.05.379,bars,2023.2.3,Linux x86_64,59.52380952,657b66ea316d21385b68909f,,,,,,,,,,,2369.5338,2370.5321,,,2371.0332,2371.2832,,153,153,,,,,,,,,,,,,,,,bars/003.png,bars/mask004.png,,,,,,,,,,,,3,2,,,,,,,0,6,0,5,,,,,,,,,,,2370.5322,2371.0331,2371.2834,2375.983,space,4.6884,,2375.9831,52,13,2376.9829,2376.9829,2376.993,,,,0,19,19,19,1,25,140,,,,,,,,
,,6047238e77116b1a263b6dfd,65af554fb1b2d753c0180a06,2024-01-22_23h59.05.379,bars,2023.2.3,Linux x86_64,59.52380952,657b66ea316d21385b68909f,,,,,,,,,,,2376.9933,2377.9834,,,2378.483,2378.7323,,165,165,,,,,,,,,,,,,,,,bars/016.png,bars/mask006.png,,,,,,,,,,,,8,2,,,,,,,2,8,2,8,,,,,,,,,,,2377.9835,2378.483,2378.7324,2385.4164,space,6.6685,,2385.4164,55,0,2386.4163,2386.4163,2386.429,,,,0,20,20,20,1,40,165,,,,,,,,
,,6047238e77116b1a263b6dfd,65af554fb1b2d753c0180a06,2024-01-22_23h59.05.379,bars,2023.2.3,Linux x86_64,59.52380952,657b66ea316d21385b68909f,,,,,,,,,,,2386.4293,2387.433,,,2387.9332,2388.1831,,29,209,,,,,,,,,,,,,,,,bars/022.png,bars/mask001.png,,,,,,,,,,,,7,2,,,,,,,4,10,5,10,,,,,,,,,,,2387.4331,2387.9331,2388.1832,2392.2836,space,4.086,,2392.2837,66,9,2393.2833,2393.2835,2393.2955,,,,0,21,21,21,1,95,20,,,,,,,,
,,6047238e77116b1a263b6dfd,65af554fb1b2d753c0180a06,2024-01-22_23h59.05.379,bars,2023.2.3,Linux x86_64,59.52380952,657b66ea316d21385b68909f,,,,,,,,,,,2393.2958,2394.2993,,,2394.7995,2395.0496,,163,-17,,,,,,,,,,,,,,,,bars/044.png,bars/mask002.png,,,,,,,,,,,,6,2,,,,,,,6,8,6,8,,,,,,,,,,,2394.2994,2394.7995,2395.0496,2398.4671,space,3.4104,,2398.4671,88,8,2399.466,2399.4661,2399.4786,,,,0,22,22,22,1,75,155,,,,,,,,
,,6047238e77116b1a263b6dfd,65af554fb1b2d753c0180a06,2024-01-22_23h59.05.379,bars,2023.2.3,Linux x86_64,59.52380952,657b66ea316d21385b68909f,,,,,,,,,,,2399.4789,2400.4666,,,2400.967,2401.2172,,87,87,,,,,,,,,,,,,,,,bars/001.png,bars/mask002.png,,,,,,,,,,,,9,2,,,,,,,8,10,7,10,,,,,,,,,,,2400.4669,2400.9669,2401.2173,2404.4165,space,3.1883,,2404.4165,43,2,2405.416,2405.416,2405.4259,,,,0,23,23,23,1,130,85,,,,,,,,
,,6047238e77116b1a263b6dfd,65af554fb1b2d753c0180a06,2024-01-22_23h59.05.379,bars,2023.2.3,Linux x86_64,59.52380952,657b66ea316d21385b68909f,,,,,,,,,,,2405.4261,2406.4166,,,2406.9165,2407.1674,,78,78,,,,,,,,,,,,,,,,bars/041.png,bars/mask004.png,,,,,,,,,,,,7,2,,,,,,,10,10,10,9,,,,,,,,,,,2406.4166,2406.9163,2407.1674,2411.4009,space,4.2216,,2411.401,58,7,2412.4,2412.4,2412.4143,,,,0,24,24,24,1,20,85,,,,,,,,
,,6047238e77116b1a263b6dfd,65af554fb1b2d753c0180a06,2024-01-22_23h59.05.379,bars,2023.2.3,Linux x86_64,59.52380952,657b66ea316d21385b68909f,,,,,,,,,,,2412.4148,2413.4166,,,2413.9168,2414.1667,,171,171,,,,,,,,,,,,,,,,bars/048.png,bars/mask006.png,,,,,,,,,,,,8,2,,,,,,,10,10,9,9,,,,,,,,,,,2413.4166,2413.9166,2414.1667,2418.0498,space,3.8784,,2418.0499,59,4,2419.0494,2419.0495,2419.0614,,,,0,25,25,25,1,50,175,,,,,,,,
,,6047238e77116b1a263b6dfd,65af554fb1b2d753c0180a06,2024-01-22_23h59.05.379,bars,2023.2.3,Linux x86_64,59.52380952,657b66ea316d21385b68909f,,,,,,,,,,,2419.0617,2420.0504,,,2420.5499,2420.8012,,108,108,,,,,,,,,,,,,,,,bars/037.png,bars/mask004.png,,,,,,,,,,,,9,2,,,,,,,8,10,8,10,,,,,,,,,,,2420.0507,2420.5499,2420.8012,2422.7498,space,1.9388,,2422.75,42,3,2423.75,2423.75,2423.7516,,,,0,26,26,26,1,150,105,,,,,,,,
,,6047238e77116b1a263b6dfd,65af554fb1b2d753c0180a06,2024-01-22_23h59.05.379,bars,2023.2.3,Linux x86_64,59.52380952,657b66ea316d21385b68909f,,,,,,,,,,,2423.7519,2424.7513,,,2425.25,2425.4999,,118,118,,,,,,,,,,,,,,,,bars/037.png,bars/mask002.png,,,,,,,,,,,,5,2,,,,,,,6,8,7,8,,,,,,,,,,,2424.7514,2425.25,2425.5,2429.917,space,4.4019,,2429.917,32,13,2430.9164,2430.9164,2430.9265,,,,0,27,27,27,1,150,105,,,,,,,,
,,6047238e77116b1a263b6dfd,65af554fb1b2d753c0180a06,2024-01-22_23h59.05.379,bars,2023.2.3,Linux x86_64,59.52380952,657b66ea316d21385b68909f,,,,,,,,,,,2430.9267,2431.9161,,,2432.4165,2432.6671,,33,33,,,,,,,,,,,,,,,,bars/025.png,bars/mask004.png,,,,,,,,,,,,5,2,,,,,,,4,6,4,6,,,,,,,,,,,2431.9162,2432.4164,2432.6671,2434.9166,space,2.2407,,2434.9166,72,7,2435.9166,2435.9166,2435.9288,,,,0,28,28,28,1,105,40,,,,,,,,
,,6047238e77116b1a263b6dfd,65af554fb1b2d753c0180a06,2024-01-22_23h59.05.379,bars,2023.2.3,Linux x86_64,59.52380952,657b66ea316d21385b68909f,,,,,,,,,,,2435.929,2436.9332,,,2437.4335,2437.6833,,107,107,,,,,,,,,,,,,,,,bars/039.png,bars/mask004.png,,,,,,,,,,,,4,2,,,,,,,6,4,6,4,,,,,,,,,,,2436.9333,2437.4334,2437.6834,2440.9169,space,3.2256,,2440.917,68,2,2441.917,2441.917,2441.9272,,,,0,29,29,29,1,175,105,,,,,,,,
,,6047238e77116b1a263b6dfd,65af554fb1b2d753c0180a06,2024-01-22_23h59.05.379,bars,2023.2.3,Linux x86_64,59.52380952,657b66ea316d21385b68909f,,,,,,,,,,,2441.9274,2442.9169,,,2443.4166,2443.6665,,51,51,,,,,,,,,,,,,,,,bars/035.png,bars/mask004.png,,,,,,,,,,,,5,2,,,,,,,8,6,10,7,,,,,,,,,,,2442.9169,2443.4165,2443.6665,2446.4002,space,2.7182,,2446.4002,56,9,2447.4,2447.4001,2447.4111,,,,0,30,30,30,1,175,60,,,,,,,,
,,6047238e77116b1a263b6dfd,65af554fb1b2d753c0180a06,2024-01-22_23h59.05.379,bars,2023.2.3,Linux x86_64,59.52380952,657b66ea316d21385b68909f,,,,,,,,,,,2447.4114,2448.4,,,2448.9004,2449.1506,,164,164,,,,,,,,,,,,,,,,bars/016.png,bars/mask006.png,,,,,,,,,,,,4,2,,,,,,,6,4,6,4,,,,,,,,,,,2448.4,2448.9003,2449.1508,2453.634,space,4.4691,,2453.634,56,1,2454.6336,2454.6336,2454.6447,,,,0,31,31,31,1,40,165,,,,,,,,
,,6047238e77116b1a263b6dfd,65af554fb1b2d753c0180a06,2024-01-22_23h59.05.379,bars,2023.2.3,Linux x86_64,59.52380952,657b66ea316d21385b68909f,,,,,,,,,,,2454.6448,2455.6334,,,2456.1336,2456.3837,,120,120,,,,,,,,,,,,,,,,bars/037.png,bars/mask008.png,,,,,,,,,,,,2,2,,,,,,,8,2,7,3,,,,,,,,,,,2455.6335,2456.1335,2456.3838,2460.5339,space,4.1418,,2460.5339,30,15,2461.5338,2461.5339,2461.5445,,,,0,32,32,32,1,150,105,,,,,,,,
,,6047238e77116b1a263b6dfd,65af554fb1b2d753c0180a06,2024-01-22_23h59.05.379,bars,2023.2.3,Linux x86_64,59.52380952,657b66ea316d21385b68909f,,,,,,,,,,,2461.5447,2462.5339,,,2463.0347,2463.2837,,125,125,,,,,,,,,,,,,,,,bars/023.png,bars/mask003.png,,,,,,,,,,,,3,2,,,,,,,10,4,9,5,,,,,,,,,,,2462.5339,2463.0344,2463.2838,2465.801,space,2.5054,,2465.801,75,10,2466.8003,2466.8003,2466.8109,,,,0,33,33,33,1,20,115,,,,,,,,
,,6047238e77116b1a263b6dfd,65af554fb1b2d753c0180a06,2024-01-22_23h59.05.379,bars,2023.2.3,Linux x86_64,59.52380952,657b66ea316d21385b68909f,,,,,,,,,,,2466.8112,2467.8007,,,2468.3005,2468.5506,,1,1,,,,,,,,,,,,,,,,bars/009.png,bars/mask002.png,,,,,,,,,,,,5,1,,,,,,,10,6,10,7,,,,,,,,,,,2467.8008,2468.3005,2468.5506,2472.7504,space,4.192,,2472.7504,14,76,2473.7507,2473.7507,2473.7615,,,,0,34,34,34,1,15,105,,,,,,,,
,,6047238e77116b1a263b6dfd,65af554fb1b2d753c0180a06,2024-01-22_23h59.05.379,bars,2023.2.3,Linux x86_64,59.52380952,657b66ea316d21385b68909f,,,,,,,,,,,2473.7617,2474.7501,,,2475.2503,2475.5002,,15,195,,,,,,,,,,,,,,,,bars/003.png,bars/mask008.png,,,,,,,,,,,,6,1,,,,,,,8,8,9,9,,,,,,,,,,,2474.7502,2475.2503,2475.5003,2478.7672,space,3.2581,,2478.7672,10,55,2479.7677,2479.7677,2479.7775,,,,0,35,35,35,1,25,140,,,,,,,,
,,6047238e77116b1a263b6dfd,65af554fb1b2d753c0180a06,2024-01-22_23h59.05.379,bars,2023.2.3,Linux x86_64,59.52380952,657b66ea316d21385b68909f,,,,,,,,,,,2479.7778,2480.7669,,,2481.2674,2481.5171,,24,204,,,,,,,,,,,,,,,,bars/006.png,bars/mask006.png,,,,,,,,,,,,6,1,,,,,,,10,6,10,6,,,,,,,,,,,2480.7669,2481.2673,2481.5172,2484.9173,space,3.3838,,2484.9174,11,76,2485.9171,2485.9172,2485.9282,,,,0,36,36,36,1,35,100,,,,,,,,
,,6047238e77116b1a263b6dfd,65af554fb1b2d753c0180a06,2024-01-22_23h59.05.379,bars,2023.2.3,Linux x86_64,59.52380952,657b66ea316d21385b68909f,,,,,,,,,,,2485.9285,2486.917,,,2487.4173,2487.6673,,0,0,,,,,,,,,,,,,,,,bars/039.png,bars/mask003.png,,,,,,,,,,,,8,1,,,,,,,10,8,10,8,,,,,,,,,,,2486.9171,2487.4172,2487.6674,2490.9681,space,3.2846,,2490.9681,5,75,2491.9676,2491.9676,2491.9785,,,,0,37,37,37,1,175,105,,,,,,,,
,,6047238e77116b1a263b6dfd,65af554fb1b2d753c0180a06,2024-01-22_23h59.05.379,bars,2023.2.3,Linux x86_64,59.52380952,657b66ea316d21385b68909f,,,,,,,,,,,2491.9786,2492.9683,,,2493.4677,2493.7177,,12,12,,,,,,,,,,,,,,,,bars/003.png,bars/mask006.png,,,,,,,,,,,,5,1,,,,,,,8,10,8,10,,,,,,,,,,,2492.9686,2493.4677,2493.7177,2496.6178,space,2.8829,,2496.6178,13,52,2497.6174,2497.6174,2497.6284,,,,0,38,38,38,1,25,140,,,,,,,,
,,6047238e77116b1a263b6dfd,65af554fb1b2d753c0180a06,2024-01-22_23h59.05.379,bars,2023.2.3,Linux x86_64,59.52380952,657b66ea316d21385b68909f,,,,,,,,,,,2497.6287,2498.6174,,,2499.1183,2499.3674,,11,11,,,,,,,,,,,,,,,,bars/021.png,bars/mask000.png,,,,,,,,,,,,0,1,,,,,,,10,8,10,9,,,,,,,,,,,2498.6175,2499.1181,2499.3675,2501.7011,space,2.3184,,2501.7013,36,59,2502.7008,2502.7008,2502.7112,,,,0,39,39,39,1,155,70,,,,,,,,
,,6047238e77116b1a263b6dfd,65af554fb1b2d753c0180a06,2024-01-22_23h59.05.379,bars,2023.2.3,Linux x86_64,59.52380952,657b66ea316d21385b68909f,,,,,,,,,,,2502.7113,2503.701,,,2504.2012,2504.4513,,4,184,,,,,,,,,,,,,,,,bars/011.png,bars/mask003.png,,,,,,,,,,,,2,1,,,,,,,10,6,9,6,,,,,,,,,,,2503.701,2504.2011,2504.4514,2507.1684,space,2.7053,,2507.1685,24,81,2508.1678,2508.1679,2508.1787,,,,0,40,40,40,1,160,85,,,,,,,,
,,6047238e77116b1a263b6dfd,65af554fb1b2d753c0180a06,2024-01-22_23h59.05.379,bars,2023.2.3,Linux x86_64,59.52380952,657b66ea316d21385b68909f,,,,,,,,,,,2508.1789,2509.1677,,,2509.6679,2509.9176,,169,169,,,,,,,,,,,,,,,,bars/049.png,bars/mask009.png,,,,,,,,,,,,7,1,,,,,,,10,8,10,7,,,,,,,,,,,2509.1678,2509.6678,2509.9177,2511.3848,space,1.4514,,2511.3849,9,54,2512.3841,2512.3842,2512.3853,,,,0,41,41,41,1,160,115,,,,,,,,
,,6047238e77116b1a263b6dfd,65af554fb1b2d753c0180a06,2024-01-22_23h59.05.379,bars,2023.2.3,Linux x86_64,59.52380952,657b66ea316d21385b68909f,,,,,,,,,,,2512.3862,2513.3848,,,2513.8842,2514.1339,,170,170,,,,,,,,,,,,,,,,bars/037.png,bars/mask009.png,,,,,,,,,,,,3,1,,,,,,,8,10,8,10,,,,,,,,,,,2513.3849,2513.884,2514.134,2517.4346,space,3.2968,,2517.4347,20,65,2518.4341,2518.4341,2518.4458,,,,0,42,42,42,1,150,105,,,,,,,,
,,6047238e77116b1a263b6dfd,65af554fb1b2d753c0180a06,2024-01-22_23h59.05.379,bars,2023.2.3,Linux x86_64,59.52380952,657b66ea316d21385b68909f,,,,,,,,,,,2518.446,2519.4341,,,2519.9347,2520.1848,,95,95,,,,,,,,,,,,,,,,bars/013.png,bars/mask002.png,,,,,,,,,,,,2,1,,,,,,,6,8,5,8,,,,,,,,,,,2519.4341,2519.9346,2520.1849,2522.3349,space,2.1349,,2522.335,20,85,2523.3346,2523.3347,2523.3467,,,,0,43,43,43,1,75,10,,,,,,,,
,,6047238e77116b1a263b6dfd,65af554fb1b2d753c0180a06,2024-01-22_23h59.05.379,bars,2023.2.3,Linux x86_64,59.52380952,657b66ea316d21385b68909f,,,,,,,,,,,2523.347,2524.3509,,,2524.8511,2525.1011,,21,21,,,,,,,,,,,,,,,,bars/032.png,bars/mask003.png,,,,,,,,,,,,10,2,,,,,,,4,10,3,10,,,,,,,,,,,2524.351,2524.8511,2525.1012,2527.4514,space,2.3352,,2527.4514,76,1,2528.4513,2528.4513,2528.455,,,,0,44,44,44,1,125,20,,,,,,,,
,,6047238e77116b1a263b6dfd,65af554fb1b2d753c0180a06,2024-01-22_23h59.05.379,bars,2023.2.3,Linux x86_64,59.52380952,657b66ea316d21385b68909f,,,,,,,,,,,2528.4553,2529.4511,,,2529.9508,2530.2012,,122,122,,,,,,,,,,,,,,,,bars/043.png,bars/mask001.png,,,,,,,,,,,,6,2,,,,,,,6,8,7,8,,,,,,,,,,,2529.4511,2529.9508,2530.2012,2531.5511,space,1.3395,,2531.5511,88,8,2532.551,2532.5511,2532.5636,,,,0,45,45,45,1,30,130,,,,,,,,
,,6047238e77116b1a263b6dfd,65af554fb1b2d753c0180a06,2024-01-22_23h59.05.379,bars,2023.2.3,Linux x86_64,59.52380952,657b66ea316d21385b68909f,,,,,,,,,,,2532.5638,2533.5682,,,2534.0677,2534.3182,,0,0,,,,,,,,,,,,,,,,bars/008.png,bars/mask002.png,,,,,,,,,,,,5,2,,,,,,,4,6,4,5,,,,,,,,,,,2533.5682,2534.0677,2534.3182,2538.0345,space,3.7122,,2538.0346,70,0,2539.0356,2539.0357,2539.0462,,,,0,46,46,46,1,110,0,,,,,,,,
,,6047238e77116b1a263b6dfd,65af554fb1b2d753c0180a06,2024-01-22_23h59.05.379,bars,2023.2.3,Linux x86_64,59.52380952,657b66ea316d21385b68909f,,,,,,,,,,,2539.0464,2540.0342,,,2540.5348,2540.7858,,25,25,,,,,,,,,,,,,,,,bars/036.png,bars/mask008.png,,,,,,,,,,,,3,2,,,,,,,2,4,3,4,,,,,,,,,,,2540.0342,2540.5348,2540.7859,2542.8181,space,2.0198,,2542.8182,60,5,2543.8179,2543.818,2543.8195,,,,0,47,47,47,1,145,20,,,,,,,,
,,6047238e77116b1a263b6dfd,65af554fb1b2d753c0180a06,2024-01-22_23h59.05.379,bars,2023.2.3,Linux x86_64,59.52380952,657b66ea316d21385b68909f,,,,,,,,,,,2543.8202,2544.8182,,,2545.3183,2545.5678,,32,32,,,,,,,,,,,,,,,,bars/029.png,bars/mask003.png,,,,,,,,,,,,1,2,,,,,,,0,2,0,1,,,,,,,,,,,2544.8183,2545.3182,2545.5678,2549.4018,space,3.8181,,2549.4018,58,13,2550.4014,2550.4014,2550.4121,,,,0,48,48,48,1,90,45,,,,,,,,
,,6047238e77116b1a263b6dfd,65af554fb1b2d753c0180a06,2024-01-22_23h59.05.379,bars,2023.2.3,Linux x86_64,59.52380952,657b66ea316d21385b68909f,,,,,,,,,,,2550.4123,2551.4012,,,2551.9012,2552.1515,,159,159,,,,,,,,,,,,,,,,bars/016.png,bars/mask006.png,,,,,,,,,,,,4,2,,,,,,,0,4,0,5,,,,,,,,,,,2551.4012,2551.9011,2552.1515,2553.535,space,1.3676,,2553.5351,61,6,2554.5347,2554.5348,2554.5454,,,,0,49,49,49,1,40,165,,,,,,,,
,,6047238e77116b1a263b6dfd,65af554fb1b2d753c0180a06,2024-01-22_23h59.05.379,bars,2023.2.3,Linux x86_64,59.52380952,657b66ea316d21385b68909f,,,,,,,,,,,,,,,,,,,,,,,,,,,,,,,,,,,,,,,,,,,,,,,,,,,,,,,,,,,,,,,,,,,,,,,,,,,,,,,,,,,,,,,,,,,,,2554.5455,2614.5356,0,3,3,0,1,sequence_tables/blk047.csv
,,6047238e77116b1a263b6dfd,65af554fb1b2d753c0180a06,2024-01-22_23h59.05.379,bars,2023.2.3,Linux x86_64,59.52380952,657b66ea316d21385b68909f,,,,,,,,,,,2642.2829,2643.2852,,,2643.7689,2644.0187,,17,17,,,,,,,,,,,,,,,,bars/032.png,bars/mask004.png,,,,,,,,,,,,8,2,,,,,,,9,8,9,9,,,,,,2614.5469,2642.2685,space,27.7072,,2643.2852,2643.7688,2644.0187,2647.3522,space,3.3164,,2647.3523,72,3,2648.3523,2648.3523,2648.3645,,,,0,0,0,0,1,125,20,,,,,,,,
,,6047238e77116b1a263b6dfd,65af554fb1b2d753c0180a06,2024-01-22_23h59.05.379,bars,2023.2.3,Linux x86_64,59.52380952,657b66ea316d21385b68909f,,,,,,,,,,,2648.3649,2649.3693,,,2649.8686,2650.1187,,135,135,,,,,,,,,,,,,,,,bars/049.png,bars/mask000.png,,,,,,,,,,,,3,2,,,,,,,7,10,7,10,,,,,,,,,,,2649.3694,2649.8686,2650.1187,2651.7523,space,1.624,,2651.7524,25,20,2652.7527,2652.7527,2652.7626,,,,0,1,1,1,1,160,115,,,,,,,,
,,6047238e77116b1a263b6dfd,65af554fb1b2d753c0180a06,2024-01-22_23h59.05.379,bars,2023.2.3,Linux x86_64,59.52380952,657b66ea316d21385b68909f,,,,,,,,,,,2652.7628,2653.7525,,,2654.2524,2654.5026,,141,141,,,,,,,,,,,,,,,,bars/020.png,bars/mask006.png,,,,,,,,,,,,1,1,,,,,,,9,10,9,10,,,,,,,,,,,2653.7525,2654.2524,2654.5027,2656.1529,space,1.6389,,2656.1529,26,29,2657.1526,2657.1526,2657.1656,,,,0,2,2,2,1,115,170,,,,,,,,
,,6047238e77116b1a263b6dfd,65af554fb1b2d753c0180a06,2024-01-22_23h59.05.379,bars,2023.2.3,Linux x86_64,59.52380952,657b66ea316d21385b68909f,,,,,,,,,,,2657.1659,2658.1687,,,2658.669,2658.9188,,126,126,,,,,,,,,,,,,,,,bars/009.png,bars/mask006.png,,,,,,,,,,,,2,2,,,,,,,7,8,8,6,,,,,,,,,,,2658.1688,2658.669,2658.9188,2661.9528,space,3.0156,,2661.9529,69,21,2662.9525,2662.9526,2662.9654,,,,0,3,3,3,1,15,105,,,,,,,,
,,6047238e77116b1a263b6dfd,65af554fb1b2d753c0180a06,2024-01-22_23h59.05.379,bars,2023.2.3,Linux x86_64,59.52380952,657b66ea316d21385b68909f,,,,,,,,,,,2662.9657,2663.9687,,,2664.4689,2664.7194,,175,175,,,,,,,,,,,,,,,,bars/047.png,bars/mask003.png,,,,,,,,,,,,2,1,,,,,,,5,10,6,10,,,,,,,,,,,2663.9688,2664.4688,2664.7194,2665.869,space,1.1444,,2665.8691,20,75,2666.8691,2666.8691,2666.8723,,,,0,4,4,4,1,15,70,,,,,,,,
,,6047238e77116b1a263b6dfd,65af554fb1b2d753c0180a06,2024-01-22_23h59.05.379,bars,2023.2.3,Linux x86_64,59.52380952,657b66ea316d21385b68909f,,,,,,,,,,,2666.8726,2667.869,,,2668.3691,2668.619,,99,99,,,,,,,,,,,,,,,,bars/020.png,bars/mask006.png,,,,,,,,,,,,3,1,,,,,,,7,8,7,8,,,,,,,,,,,2667.8691,2668.369,2668.619,2672.3188,space,3.6832,,2672.3189,16,71,2673.319,2673.3191,2673.3304,,,,0,5,5,5,1,115,170,,,,,,,,
