init_variables.started,init_variables.stopped,participant,session,date,expName,psychopyVersion,OS,frameRate,study_id,instruction_exp.started,instruction_exp.stopped,key_resp_8.keys,key_resp_8.rt,key_resp_8.duration,instruction_single.started,instruction_single.stopped,key_resp_2.keys,key_resp_2.rt,key_resp_2.duration,interval.started,interval.stopped,cue_single.started,cue_single.stopped,mask.started,mask.stopped,ori_response_single.started,res_ori,res,ori_response_single.stopped,key_resp_single.keys,key_resp_single.rt,key_resp_single.duration,disp_single.started,disp_single.stopped,key_resp.keys,key_resp.rt,key_resp.duration,single.thisRepN,single.thisTrialN,single.thisN,single.thisIndex,single.ran,ori,path,mask_path,instruction_bandit.started,instruction_bandit.stopped,key_resp_6.keys,key_resp_6.rt,key_resp_6.duration,cue_bandit.started,cue_bandit.stopped,bandit_res.keys,bandit_res.rt,bandit_res.duration,outcome_bandit.started,rew,action,outcome_bandit.stopped,bandit.thisRepN,bandit.thisTrialN,bandit.thisN,bandit.thisIndex,bandit.ran,actual_rew1,actual_rew2,rew1,rew2,instruction_task.started,instruction_task.stopped,key_resp_7.keys,key_resp_7.rt,key_resp_7.duration,wait_ready.started,wait_ready.stopped,key_resp_3.keys,key_resp_3.rt,key_resp_3.duration,cue.started,cue.stopped,ori_response.started,ori_response.stopped,key_resp_5.keys,key_resp_5.rt,key_resp_5.duration,outcome.started,diff1,diff2,outcome.stopped,disp_outcome_practice.started,disp_outcome_practice.stopped,key_resp_4.keys,key_resp_4.rt,key_resp_4.duration,trials.thisRepN,trials.thisTrialN,trials.thisN,trials.thisIndex,trials.ran,ori1,ori2,break_blk.started,break_blk.stopped,block.thisRepN,block.thisTrialN,block.thisN,block.thisIndex,block.ran,condition_file
0.0024,0.003,653b4e65dac7febe5e91cd70,65af5630f086a38d1a401828,2024-01-23_08h04.32.351,bars,2023.2.3,Win32,59.88023952,657b66ea316d21385b68909f,,,,,,,,,,,,,,,,,,,,,,,,,,,,,,,,,,,,,,,,,,,,,,,,,,,,,,,,,,,,,,,,,,,,,,,,,,,,,,,,,,,,,,,,,,,,,,,,,,,,
,,653b4e65dac7febe5e91cd70,65af5630f086a38d1a401828,2024-01-23_08h04.32.351,bars,2023.2.3,Win32,59.88023952,657b66ea316d21385b68909f,0.0037,7.5285,y,7.4724,,,,,,,,,,,,,,,,,,,,,,,,,,,,,,,,,,,,,,,,,,,,,,,,,,,,,,,,,,,,,,,,,,,,,,,,,,,,,,,,,,,,,,,,,,,,,,,,
,,653b4e65dac7febe5e91cd70,65af5630f086a38d1a401828,2024-01-23_08h04.32.351,bars,2023.2.3,Win32,59.88023952,657b66ea316d21385b68909f,,,,,,7.5287,74.193,space,66.6368,,,,,,,,,,,,,,,,,,,,,,,,,,,,,,,,,,,,,,,,,,,,,,,,,,,,,,,,,,,,,,,,,,,,,,,,,,,,,,,,,,,,,,,,,,,
,,653b4e65dac7febe5e91cd70,65af5630f086a38d1a401828,2024-01-23_08h04.32.351,bars,2023.2.3,Win32,59.88023952,657b66ea316d21385b68909f,,,,,,,,,,,74.2284,75.2031,75.2042,75.6955,75.6958,75.9348,75.9352,0,0,86.0302,space,10.0386,,86.0305,95.7244,space,9.6295,,0,0,0,5,1,55,bars/single005.png,bars/mask008.png,,,,,,,,,,,,,,,,,,,,,,,,,,,,,,,,,,,,,,,,,,,,,,,,,,,,,,,,,,,,,,,,
,,653b4e65dac7febe5e91cd70,65af5630f086a38d1a401828,2024-01-23_08h04.32.351,bars,2023.2.3,Win32,59.88023952,657b66ea316d21385b68909f,,,,,,,,,,,95.7476,96.7344,96.7346,97.235,97.2352,97.4774,97.4774,0,180,104.2452,space,6.7516,,104.2453,116.0186,space,11.7332,,0,1,1,6,1,175,bars/single006.png,bars/mask005.png,,,,,,,,,,,,,,,,,,,,,,,,,,,,,,,,,,,,,,,,,,,,,,,,,,,,,,,,,,,,,,,,
,,653b4e65dac7febe5e91cd70,65af5630f086a38d1a401828,2024-01-23_08h04.32.351,bars,2023.2.3,Win32,59.88023952,657b66ea316d21385b68909f,,,,,,,,,,,116.0435,117.0342,117.0343,117.5345,117.5348,117.7845,117.7845,0,0,125.1187,space,7.3035,,125.1189,130.5536,space,5.382,,0,2,2,9,1,20,bars/single009.png,bars/mask006.png,,,,,,,,,,,,,,,,,,,,,,,,,,,,,,,,,,,,,,,,,,,,,,,,,,,,,,,,,,,,,,,,
,,653b4e65dac7febe5e91cd70,65af5630f086a38d1a401828,2024-01-23_08h04.32.351,bars,2023.2.3,Win32,59.88023952,657b66ea316d21385b68909f,,,,,,,,,,,130.5758,131.5683,131.5685,132.0684,132.0685,132.318,132.318,0,0,140.6346,space,8.3049,,140.6347,149.6183,space,8.9351,,0,3,3,8,1,160,bars/single008.png,bars/mask004.png,,,,,,,,,,,,,,,,,,,,,,,,,,,,,,,,,,,,,,,,,,,,,,,,,,,,,,,,,,,,,,,,
,,653b4e65dac7febe5e91cd70,65af5630f086a38d1a401828,2024-01-23_08h04.32.351,bars,2023.2.3,Win32,59.88023952,657b66ea316d21385b68909f,,,,,,,,,,,149.6434,150.6343,150.6344,151.1344,151.1346,151.3855,151.3859,145,145,173.0522,space,21.6351,,173.0525,177.67,space,4.5673,,0,4,4,3,1,20,bars/single003.png,bars/mask005.png,,,,,,,,,,,,,,,,,,,,,,,,,,,,,,,,,,,,,,,,,,,,,,,,,,,,,,,,,,,,,,,,
,,653b4e65dac7febe5e91cd70,65af5630f086a38d1a401828,2024-01-23_08h04.32.351,bars,2023.2.3,Win32,59.88023952,657b66ea316d21385b68909f,,,,,,,,,,,177.6923,178.6846,178.6847,179.1845,179.1846,179.4344,179.4345,88,88,185.9683,space,6.5172,,185.9684,190.0573,space,4.0507,,0,5,5,4,1,95,bars/single004.png,bars/mask004.png,,,,,,,,,,,,,,,,,,,,,,,,,,,,,,,,,,,,,,,,,,,,,,,,,,,,,,,,,,,,,,,,
,,653b4e65dac7febe5e91cd70,65af5630f086a38d1a401828,2024-01-23_08h04.32.351,bars,2023.2.3,Win32,59.88023952,657b66ea316d21385b68909f,,,,,,,,,,,190.0803,191.0684,191.0686,191.5695,191.5696,191.8183,191.8184,22,22,195.3241,space,3.4803,,195.3241,198.9183,space,3.5474,,0,6,6,1,1,20,bars/single001.png,bars/mask006.png,,,,,,,,,,,,,,,,,,,,,,,,,,,,,,,,,,,,,,,,,,,,,,,,,,,,,,,,,,,,,,,,
,,653b4e65dac7febe5e91cd70,65af5630f086a38d1a401828,2024-01-23_08h04.32.351,bars,2023.2.3,Win32,59.88023952,657b66ea316d21385b68909f,,,,,,,,,,,198.9192,199.918,199.9181,200.4181,200.4182,200.6678,200.6678,173,-7,205.9681,space,5.2889,,205.9685,210.1845,space,4.1592,,0,7,7,0,1,150,bars/single000.png,bars/mask006.png,,,,,,,,,,,,,,,,,,,,,,,,,,,,,,,,,,,,,,,,,,,,,,,,,,,,,,,,,,,,,,,,
,,653b4e65dac7febe5e91cd70,65af5630f086a38d1a401828,2024-01-23_08h04.32.351,bars,2023.2.3,Win32,59.88023952,657b66ea316d21385b68909f,,,,,,,,,,,210.2065,211.2013,211.2014,211.7022,211.7024,211.9527,211.9529,155,-25,216.9844,space,5.0001,,216.9846,224.2015,space,7.1722,,0,8,8,2,1,145,bars/single002.png,bars/mask003.png,,,,,,,,,,,,,,,,,,,,,,,,,,,,,,,,,,,,,,,,,,,,,,,,,,,,,,,,,,,,,,,,
,,653b4e65dac7febe5e91cd70,65af5630f086a38d1a401828,2024-01-23_08h04.32.351,bars,2023.2.3,Win32,59.88023952,657b66ea316d21385b68909f,,,,,,,,,,,224.2242,225.2022,225.2025,225.7012,225.7014,225.9513,225.9515,68,68,230.9286,space,4.9506,,230.9287,236.4019,space,5.4348,,0,9,9,7,1,45,bars/single007.png,bars/mask009.png,,,,,,,,,,,,,,,,,,,,,,,,,,,,,,,,,,,,,,,,,,,,,,,,,,,,,,,,,,,,,,,,
,,653b4e65dac7febe5e91cd70,65af5630f086a38d1a401828,2024-01-23_08h04.32.351,bars,2023.2.3,Win32,59.88023952,657b66ea316d21385b68909f,,,,,,,,,,,,,,,,,,,,,,,,,,,,,,,,,,,,,236.4238,269.487,space,33.0233,,,,,,,,,,,,,,,,,,,,,,,,,,,,,,,,,,,,,,,,,,,,,,,,,,,,,,,,,,,,
,,653b4e65dac7febe5e91cd70,65af5630f086a38d1a401828,2024-01-23_08h04.32.351,bars,2023.2.3,Win32,59.88023952,657b66ea316d21385b68909f,,,,,,,,,,,,,,,,,,,,,,,,,,,,,,,,,,,,,,,,,,269.5144,277.2538,right,7.6973,,277.2545,2,2,278.2519,0,0,0,0,1,9,1,9,2,,,,,,,,,,,,,,,,,,,,,,,,,,,,,,,,,,,,,,,,,
,,653b4e65dac7febe5e91cd70,65af5630f086a38d1a401828,2024-01-23_08h04.32.351,bars,2023.2.3,Win32,59.88023952,657b66ea316d21385b68909f,,,,,,,,,,,,,,,,,,,,,,,,,,,,,,,,,,,,,,,,,,278.2546,283.6365,right,5.3533,,283.6367,1,2,284.6351,0,1,1,1,1,10,0,10,1,,,,,,,,,,,,,,,,,,,,,,,,,,,,,,,,,,,,,,,,,
,,653b4e65dac7febe5e91cd70,65af5630f086a38d1a401828,2024-01-23_08h04.32.351,bars,2023.2.3,Win32,59.88023952,657b66ea316d21385b68909f,,,,,,,,,,,,,,,,,,,,,,,,,,,,,,,,,,,,,,,,,,284.6601,286.4843,left,1.8124,,286.4845,10,1,287.4933,0,2,2,2,1,10,2,10,2,,,,,,,,,,,,,,,,,,,,,,,,,,,,,,,,,,,,,,,,,
,,653b4e65dac7febe5e91cd70,65af5630f086a38d1a401828,2024-01-23_08h04.32.351,bars,2023.2.3,Win32,59.88023952,657b66ea316d21385b68909f,,,,,,,,,,,,,,,,,,,,,,,,,,,,,,,,,,,,,,,,,,287.494,299.4276,left,11.9177,,299.4278,7,1,300.4181,0,3,3,3,1,8,4,7,3,,,,,,,,,,,,,,,,,,,,,,,,,,,,,,,,,,,,,,,,,
,,653b4e65dac7febe5e91cd70,65af5630f086a38d1a401828,2024-01-23_08h04.32.351,bars,2023.2.3,Win32,59.88023952,657b66ea316d21385b68909f,,,,,,,,,,,,,,,,,,,,,,,,,,,,,,,,,,,,,,,,,,300.4415,301.2682,left,0.8129,,301.2683,5,1,302.2676,0,4,4,4,1,6,2,5,1,,,,,,,,,,,,,,,,,,,,,,,,,,,,,,,,,,,,,,,,,
,,653b4e65dac7febe5e91cd70,65af5630f086a38d1a401828,2024-01-23_08h04.32.351,bars,2023.2.3,Win32,59.88023952,657b66ea316d21385b68909f,,,,,,,,,,,,,,,,,,,,,,,,,,,,,,,,,,,,,,,,,,302.2686,302.9349,right,0.6505,,302.935,4,2,303.9341,0,5,5,5,1,4,4,4,4,,,,,,,,,,,,,,,,,,,,,,,,,,,,,,,,,,,,,,,,,
,,653b4e65dac7febe5e91cd70,65af5630f086a38d1a401828,2024-01-23_08h04.32.351,bars,2023.2.3,Win32,59.88023952,657b66ea316d21385b68909f,,,,,,,,,,,,,,,,,,,,,,,,,,,,,,,,,,,,,,,,,,303.935,306.1348,right,2.1878,,306.1349,2,2,307.1346,0,6,6,6,1,2,2,1,2,,,,,,,,,,,,,,,,,,,,,,,,,,,,,,,,,,,,,,,,,
,,653b4e65dac7febe5e91cd70,65af5630f086a38d1a401828,2024-01-23_08h04.32.351,bars,2023.2.3,Win32,59.88023952,657b66ea316d21385b68909f,,,,,,,,,,,,,,,,,,,,,,,,,,,,,,,,,,,,,,,,,,307.1574,309.1018,right,1.9321,,309.1019,1,2,310.101,0,7,7,7,1,0,0,0,1,,,,,,,,,,,,,,,,,,,,,,,,,,,,,,,,,,,,,,,,,
,,653b4e65dac7febe5e91cd70,65af5630f086a38d1a401828,2024-01-23_08h04.32.351,bars,2023.2.3,Win32,59.88023952,657b66ea316d21385b68909f,,,,,,,,,,,,,,,,,,,,,,,,,,,,,,,,,,,,,,,,,,310.1021,310.4685,right,0.3504,,310.4687,0,2,311.4677,0,8,8,8,1,0,2,1,0,,,,,,,,,,,,,,,,,,,,,,,,,,,,,,,,,,,,,,,,,
,,653b4e65dac7febe5e91cd70,65af5630f086a38d1a401828,2024-01-23_08h04.32.351,bars,2023.2.3,Win32,59.88023952,657b66ea316d21385b68909f,,,,,,,,,,,,,,,,,,,,,,,,,,,,,,,,,,,,,,,,,,311.4685,329.302,right,17.8175,,329.3021,3,2,330.301,0,9,9,9,1,2,4,2,3,,,,,,,,,,,,,,,,,,,,,,,,,,,,,,,,,,,,,,,,,
,,653b4e65dac7febe5e91cd70,65af5630f086a38d1a401828,2024-01-23_08h04.32.351,bars,2023.2.3,Win32,59.88023952,657b66ea316d21385b68909f,,,,,,,,,,,,,,,,,,,,,,,,,,,,,,,,,,,,,,,,,,330.3304,330.7865,right,0.4465,,330.7866,3,2,331.7799,0,10,10,10,1,0,2,0,3,,,,,,,,,,,,,,,,,,,,,,,,,,,,,,,,,,,,,,,,,
,,653b4e65dac7febe5e91cd70,65af5630f086a38d1a401828,2024-01-23_08h04.32.351,bars,2023.2.3,Win32,59.88023952,657b66ea316d21385b68909f,,,,,,,,,,,,,,,,,,,,,,,,,,,,,,,,,,,,,,,,,,331.7806,333.1732,right,1.3645,,333.1732,3,2,334.1689,0,11,11,11,1,0,4,0,3,,,,,,,,,,,,,,,,,,,,,,,,,,,,,,,,,,,,,,,,,
,,653b4e65dac7febe5e91cd70,65af5630f086a38d1a401828,2024-01-23_08h04.32.351,bars,2023.2.3,Win32,59.88023952,657b66ea316d21385b68909f,,,,,,,,,,,,,,,,,,,,,,,,,,,,,,,,,,,,,,,,,,334.1698,334.7184,right,0.5316,,334.7184,6,2,335.7173,0,12,12,12,1,2,6,1,6,,,,,,,,,,,,,,,,,,,,,,,,,,,,,,,,,,,,,,,,,
,,653b4e65dac7febe5e91cd70,65af5630f086a38d1a401828,2024-01-23_08h04.32.351,bars,2023.2.3,Win32,59.88023952,657b66ea316d21385b68909f,,,,,,,,,,,,,,,,,,,,,,,,,,,,,,,,,,,,,,,,,,335.7182,336.0013,left,0.271,,336.0014,1,1,337.0007,0,13,13,13,1,0,4,1,3,,,,,,,,,,,,,,,,,,,,,,,,,,,,,,,,,,,,,,,,,
,,653b4e65dac7febe5e91cd70,65af5630f086a38d1a401828,2024-01-23_08h04.32.351,bars,2023.2.3,Win32,59.88023952,657b66ea316d21385b68909f,,,,,,,,,,,,,,,,,,,,,,,,,,,,,,,,,,,,,,,,,,337.0015,337.3348,right,0.3241,,337.3349,7,2,338.3341,0,14,14,14,1,2,6,2,7,,,,,,,,,,,,,,,,,,,,,,,,,,,,,,,,,,,,,,,,,
,,653b4e65dac7febe5e91cd70,65af5630f086a38d1a401828,2024-01-23_08h04.32.351,bars,2023.2.3,Win32,59.88023952,657b66ea316d21385b68909f,,,,,,,,,,,,,,,,,,,,,,,,,,,,,,,,,,,,,,,,,,338.3349,338.7349,left,0.3843,,338.7351,3,1,339.7343,0,15,15,15,1,4,8,3,9,,,,,,,,,,,,,,,,,,,,,,,,,,,,,,,,,,,,,,,,,
,,653b4e65dac7febe5e91cd70,65af5630f086a38d1a401828,2024-01-23_08h04.32.351,bars,2023.2.3,Win32,59.88023952,657b66ea316d21385b68909f,,,,,,,,,,,,,,,,,,,,,,,,,,,,,,,,,,,,,,,,,,339.7352,340.0181,right,0.272,,340.0182,7,2,341.0173,0,16,16,16,1,6,6,7,7,,,,,,,,,,,,,,,,,,,,,,,,,,,,,,,,,,,,,,,,,
,,653b4e65dac7febe5e91cd70,65af5630f086a38d1a401828,2024-01-23_08h04.32.351,bars,2023.2.3,Win32,59.88023952,657b66ea316d21385b68909f,,,,,,,,,,,,,,,,,,,,,,,,,,,,,,,,,,,,,,,,,,341.0182,341.3532,left,0.3273,,341.3532,9,1,342.3506,0,17,17,17,1,8,4,9,5,,,,,,,,,,,,,,,,,,,,,,,,,,,,,,,,,,,,,,,,,
,,653b4e65dac7febe5e91cd70,65af5630f086a38d1a401828,2024-01-23_08h04.32.351,bars,2023.2.3,Win32,59.88023952,657b66ea316d21385b68909f,,,,,,,,,,,,,,,,,,,,,,,,,,,,,,,,,,,,,,,,,,342.3515,342.6681,left,0.2916,,342.6683,5,1,343.6672,0,18,18,18,1,6,2,5,1,,,,,,,,,,,,,,,,,,,,,,,,,,,,,,,,,,,,,,,,,
,,653b4e65dac7febe5e91cd70,65af5630f086a38d1a401828,2024-01-23_08h04.32.351,bars,2023.2.3,Win32,59.88023952,657b66ea316d21385b68909f,,,,,,,,,,,,,,,,,,,,,,,,,,,,,,,,,,,,,,,,,,343.6687,344.6681,left,0.9705,,344.6683,7,1,345.657,0,19,19,19,1,8,0,7,0,,,,,,,,,,,,,,,,,,,,,,,,,,,,,,,,,,,,,,,,,
,,653b4e65dac7febe5e91cd70,65af5630f086a38d1a401828,2024-01-23_08h04.32.351,bars,2023.2.3,Win32,59.88023952,657b66ea316d21385b68909f,,,,,,,,,,,,,,,,,,,,,,,,,,,,,,,,,,,,,,,,,,,,,,,,,,,,,,,,,,,,345.6586,372.9858,space,27.2902,,,,,,,,,,,,,,,,,,,,,,,,,,,,,,,,,,,,,
,,653b4e65dac7febe5e91cd70,65af5630f086a38d1a401828,2024-01-23_08h04.32.351,bars,2023.2.3,Win32,59.88023952,657b66ea316d21385b68909f,,,,,,,,,,,374.9169,375.9174,,,376.4178,376.6684,,76,76,,,,,,,,,,,,,,,,bars/038.png,bars/mask000.png,,,,,,,,,,,,5,2,,,,,,,2,7,0,6,,,,,,373.0192,374.9029,space,1.8533,,375.9189,376.4177,376.6696,382.8031,space,6.0984,,382.8037,89,6,383.8024,383.8034,395.2886,space,11.378,,0,0,0,0,1,165,70,,,,,,,,
,,653b4e65dac7febe5e91cd70,65af5630f086a38d1a401828,2024-01-23_08h04.32.351,bars,2023.2.3,Win32,59.88023952,657b66ea316d21385b68909f,,,,,,,,,,,395.3137,396.3005,,,396.8015,397.0516,,74,74,,,,,,,,,,,,,,,,bars/049.png,bars/mask005.png,,,,,,,,,,,,0,2,,,,,,,0,9,1,10,,,,,,,,,,,396.3006,396.8013,397.0518,401.503,space,4.4222,,401.5037,86,41,402.5017,402.502,408.4184,space,5.8677,,0,1,1,1,1,160,115,,,,,,,,
,,653b4e65dac7febe5e91cd70,65af5630f086a38d1a401828,2024-01-23_08h04.32.351,bars,2023.2.3,Win32,59.88023952,657b66ea316d21385b68909f,,,,,,,,,,,408.4475,409.4349,,,411.8658,411.8678,,0,180,,,,,,,,,,,,,,,,bars/026.png,bars/mask009.png,,,,,,,,,,,,0,1,,,,,,,0,7,1,7,,,,,,,,,,,409.4351,411.8657,411.868,417.9513,space,6.0701,,417.9515,35,85,418.9509,418.9511,431.0698,space,12.002,,0,2,2,2,1,35,85,,,,,,,,
,,653b4e65dac7febe5e91cd70,65af5630f086a38d1a401828,2024-01-23_08h04.32.351,bars,2023.2.3,Win32,59.88023952,657b66ea316d21385b68909f,,,,,,,,,,,431.1004,432.0843,,,432.5843,432.8344,,38,38,,,,,,,,,,,,,,,,bars/041.png,bars/mask009.png,,,,,,,,,,,,0,1,,,,,,,2,9,1,9,,,,,,,,,,,432.0845,432.5842,432.8347,436.6866,space,3.8197,,436.6868,18,47,437.6848,437.6849,443.0695,space,5.3289,,0,3,3,3,1,20,85,,,,,,,,
,,653b4e65dac7febe5e91cd70,65af5630f086a38d1a401828,2024-01-23_08h04.32.351,bars,2023.2.3,Win32,59.88023952,657b66ea316d21385b68909f,,,,,,,,,,,443.0942,444.0843,,,444.5841,444.8341,,162,162,,,,,,,,,,,,,,,,bars/024.png,bars/mask000.png,,,,,,,,,,,,7,2,,,,,,,4,10,4,10,,,,,,,,,,,444.0848,444.584,444.8342,448.8947,space,4.0486,,448.8949,42,8,449.8846,449.8848,459.0187,space,9.0734,,0,4,4,4,1,120,170,,,,,,,,
,,653b4e65dac7febe5e91cd70,65af5630f086a38d1a401828,2024-01-23_08h04.32.351,bars,2023.2.3,Win32,59.88023952,657b66ea316d21385b68909f,,,,,,,,,,,459.0436,460.0337,,,460.8723,460.8749,,62,62,,,,,,,,,,,,,,,,bars/028.png,bars/mask003.png,,,,,,,,,,,,0,1,,,,,,,2,10,0,10,,,,,,,,,,,460.0337,460.8722,460.8751,465.8841,space,4.9904,,465.8844,17,58,466.885,466.8853,477.8353,space,10.8852,,0,5,5,5,1,45,120,,,,,,,,
,,653b4e65dac7febe5e91cd70,65af5630f086a38d1a401828,2024-01-23_08h04.32.351,bars,2023.2.3,Win32,59.88023952,657b66ea316d21385b68909f,,,,,,,,,,,477.8589,478.8504,,,479.3521,479.6003,,148,148,,,,,,,,,,,,,,,,bars/035.png,bars/mask007.png,,,,,,,,,,,,0,1,,,,,,,4,10,5,9,,,,,,,,,,,478.8504,479.3519,479.6004,481.0178,space,1.3976,,481.018,27,88,482.0171,482.0172,486.8021,space,4.7356,,0,6,6,6,1,175,60,,,,,,,,
,,653b4e65dac7febe5e91cd70,65af5630f086a38d1a401828,2024-01-23_08h04.32.351,bars,2023.2.3,Win32,59.88023952,657b66ea316d21385b68909f,,,,,,,,,,,486.8262,487.8169,,,488.3181,488.5671,,141,-39,,,,,,,,,,,,,,,,bars/038.png,bars/mask006.png,,,,,,,,,,,,0,1,,,,,,,2,8,2,8,,,,,,,,,,,487.817,488.3179,488.5672,493.9278,space,5.3462,,493.928,24,71,494.918,494.9181,498.8511,space,3.8808,,0,7,7,7,1,165,70,,,,,,,,
,,653b4e65dac7febe5e91cd70,65af5630f086a38d1a401828,2024-01-23_08h04.32.351,bars,2023.2.3,Win32,59.88023952,657b66ea316d21385b68909f,,,,,,,,,,,498.8734,499.8676,,,500.3522,500.6006,,45,45,,,,,,,,,,,,,,,,bars/029.png,bars/mask009.png,,,,,,,,,,,,10,2,,,,,,,0,10,0,10,,,,,,,,,,,499.8676,500.352,500.6007,505.4176,space,4.7905,,505.4178,45,0,506.4176,506.4177,511.1611,space,4.6893,,0,8,8,8,1,90,45,,,,,,,,
,,653b4e65dac7febe5e91cd70,65af5630f086a38d1a401828,2024-01-23_08h04.32.351,bars,2023.2.3,Win32,59.88023952,657b66ea316d21385b68909f,,,,,,,,,,,511.1795,512.1674,,,512.6672,512.9174,,177,177,,,,,,,,,,,,,,,,bars/016.png,bars/mask005.png,,,,,,,,,,,,5,2,,,,,,,2,8,2,8,,,,,,,,,,,512.1675,512.6672,512.9175,516.6339,space,3.7018,,516.634,43,12,517.6338,517.6341,521.5851,space,3.9078,,0,9,9,9,1,40,165,,,,,,,,
,,653b4e65dac7febe5e91cd70,65af5630f086a38d1a401828,2024-01-23_08h04.32.351,bars,2023.2.3,Win32,59.88023952,657b66ea316d21385b68909f,,,,,,,,,,,521.6073,522.6018,,,523.101,523.3508,,30,30,,,,,,,,,,,,,,,,bars/035.png,bars/mask003.png,,,,,,,,,,,,0,2,,,,,,,0,10,0,10,,,,,,,,,,,522.602,523.1009,523.3509,524.7027,space,1.3191,,524.7029,35,30,525.7007,525.7008,528.202,space,2.4695,,0,10,10,10,1,175,60,,,,,,,,
,,653b4e65dac7febe5e91cd70,65af5630f086a38d1a401828,2024-01-23_08h04.32.351,bars,2023.2.3,Win32,59.88023952,657b66ea316d21385b68909f,,,,,,,,,,,528.2235,529.2173,,,529.7177,529.967,,106,106,,,,,,,,,,,,,,,,bars/006.png,bars/mask002.png,,,,,,,,,,,,6,2,,,,,,,0,8,1,8,,,,,,,,,,,529.2174,529.7175,529.9672,533.4183,space,3.4194,,533.4185,71,6,534.4173,534.4176,539.7172,space,5.262,,0,11,11,11,1,35,100,,,,,,,,
,,653b4e65dac7febe5e91cd70,65af5630f086a38d1a401828,2024-01-23_08h04.32.351,bars,2023.2.3,Win32,59.88023952,657b66ea316d21385b68909f,,,,,,,,,,,539.7369,540.7344,,,541.2338,541.4838,,27,207,,,,,,,,,,,,,,,,bars/010.png,bars/mask001.png,,,,,,,,,,,,0,2,,,,,,,0,6,1,5,,,,,,,,,,,540.7347,541.2337,541.4839,546.0774,space,4.5676,,546.0776,42,28,547.0668,547.0669,550.0345,space,2.9241,,0,12,12,12,1,165,55,,,,,,,,
,,653b4e65dac7febe5e91cd70,65af5630f086a38d1a401828,2024-01-23_08h04.32.351,bars,2023.2.3,Win32,59.88023952,657b66ea316d21385b68909f,,,,,,,,,,,550.0361,551.034,,,551.5354,551.7846,,102,102,,,,,,,,,,,,,,,,bars/009.png,bars/mask005.png,,,,,,,,,,,,2,2,,,,,,,2,4,3,2,,,,,,,,,,,551.0343,551.5352,551.7848,556.0132,space,4.2033,,556.0134,87,3,557.0119,557.0128,562.4717,space,5.4038,,0,13,13,13,1,15,105,,,,,,,,
,,653b4e65dac7febe5e91cd70,65af5630f086a38d1a401828,2024-01-23_08h04.32.351,bars,2023.2.3,Win32,59.88023952,657b66ea316d21385b68909f,,,,,,,,,,,562.4947,563.4834,,,563.9851,564.2427,,57,57,,,,,,,,,,,,,,,,bars/026.png,bars/mask000.png,,,,,,,,,,,,0,1,,,,,,,0,2,0,1,,,,,,,,,,,563.4836,563.985,564.2428,567.7603,space,3.5006,,567.7603,22,28,568.7502,568.7503,573.1839,space,4.3742,,0,14,14,14,1,35,85,,,,,,,,
,,653b4e65dac7febe5e91cd70,65af5630f086a38d1a401828,2024-01-23_08h04.32.351,bars,2023.2.3,Win32,59.88023952,657b66ea316d21385b68909f,,,,,,,,,,,573.2029,574.1847,,,574.6849,574.9337,,148,-32,,,,,,,,,,,,,,,,bars/016.png,bars/mask006.png,,,,,,,,,,,,0,2,,,,,,,2,0,2,1,,,,,,,,,,,574.185,574.6847,574.934,580.4179,space,5.4526,,580.418,72,17,581.4171,581.4174,585.2176,space,3.7424,,0,15,15,15,1,40,165,,,,,,,,
,,653b4e65dac7febe5e91cd70,65af5630f086a38d1a401828,2024-01-23_08h04.32.351,bars,2023.2.3,Win32,59.88023952,657b66ea316d21385b68909f,,,,,,,,,,,585.2379,586.2335,,,586.7337,586.984,,164,-16,,,,,,,,,,,,,,,,bars/003.png,bars/mask001.png,,,,,,,,,,,,1,2,,,,,,,0,2,0,3,,,,,,,,,,,586.2336,586.7337,586.9842,593.3671,space,6.3527,,593.3673,41,24,594.3675,594.3679,596.5519,space,2.1303,,0,16,16,16,1,25,140,,,,,,,,
,,653b4e65dac7febe5e91cd70,65af5630f086a38d1a401828,2024-01-23_08h04.32.351,bars,2023.2.3,Win32,59.88023952,657b66ea316d21385b68909f,,,,,,,,,,,596.5538,597.56,,,598.05,598.3002,,64,244,,,,,,,,,,,,,,,,bars/026.png,bars/mask003.png,,,,,,,,,,,,0,2,,,,,,,2,0,2,0,,,,,,,,,,,597.5601,598.0499,598.3003,603.4506,space,5.1354,,603.4509,29,21,604.4502,604.4504,607.7274,space,3.2208,,0,17,17,17,1,35,85,,,,,,,,
,,653b4e65dac7febe5e91cd70,65af5630f086a38d1a401828,2024-01-23_08h04.32.351,bars,2023.2.3,Win32,59.88023952,657b66ea316d21385b68909f,,,,,,,,,,,607.7281,608.7171,,,609.2171,609.467,,42,42,,,,,,,,,,,,,,,,bars/044.png,bars/mask001.png,,,,,,,,,,,,0,1,,,,,,,4,2,5,1,,,,,,,,,,,608.7173,609.217,609.4671,614.1346,space,4.6535,,614.1348,33,67,615.1341,615.1344,618.3837,space,3.1794,,0,18,18,18,1,75,155,,,,,,,,
,,653b4e65dac7febe5e91cd70,65af5630f086a38d1a401828,2024-01-23_08h04.32.351,bars,2023.2.3,Win32,59.88023952,657b66ea316d21385b68909f,,,,,,,,,,,618.4072,619.4004,,,619.8846,620.1333,,63,63,,,,,,,,,,,,,,,,bars/017.png,bars/mask002.png,,,,,,,,,,,,2,2,,,,,,,2,4,3,5,,,,,,,,,,,619.4005,619.8843,620.1334,622.7434,space,2.5993,,622.7435,82,18,623.7335,623.7335,625.9671,space,2.1771,,0,19,19,19,1,145,45,,,,,,,,
,,653b4e65dac7febe5e91cd70,65af5630f086a38d1a401828,2024-01-23_08h04.32.351,bars,2023.2.3,Win32,59.88023952,657b66ea316d21385b68909f,,,,,,,,,,,625.9681,626.9671,,,627.4667,627.717,,127,127,,,,,,,,,,,,,,,,bars/037.png,bars/mask009.png,,,,,,,,,,,,2,2,,,,,,,4,6,4,8,,,,,,,,,,,626.9672,627.4666,627.7172,633.2939,space,5.5495,,633.294,23,22,634.2836,634.2839,641.1341,space,6.8003,,0,20,20,20,1,150,105,,,,,,,,
,,653b4e65dac7febe5e91cd70,65af5630f086a38d1a401828,2024-01-23_08h04.32.351,bars,2023.2.3,Win32,59.88023952,657b66ea316d21385b68909f,,,,,,,,,,,641.162,642.1506,,,642.6521,642.9002,,10,10,,,,,,,,,,,,,,,,bars/032.png,bars/mask009.png,,,,,,,,,,,,3,2,,,,,,,2,4,3,4,,,,,,,,,,,642.1506,642.6519,642.9004,647.1838,space,4.2568,,647.184,65,10,648.1935,648.1936,655.0949,space,6.8577,,0,21,21,21,1,125,20,,,,,,,,
,,653b4e65dac7febe5e91cd70,65af5630f086a38d1a401828,2024-01-23_08h04.32.351,bars,2023.2.3,Win32,59.88023952,657b66ea316d21385b68909f,,,,,,,,,,,655.1515,656.1002,,,656.6003,656.85,,108,108,,,,,,,,,,,,,,,,bars/025.png,bars/mask002.png,,,,,,,,,,,,3,1,,,,,,,4,2,3,2,,,,,,,,,,,656.1003,656.6003,656.85,659.2,space,2.3378,,659.2001,3,68,660.2004,660.2005,663.5014,space,3.2633,,0,22,22,22,1,105,40,,,,,,,,
,,653b4e65dac7febe5e91cd70,65af5630f086a38d1a401828,2024-01-23_08h04.32.351,bars,2023.2.3,Win32,59.88023952,657b66ea316d21385b68909f,,,,,,,,,,,663.5226,664.517,,,665.017,665.2674,,133,-47,,,,,,,,,,,,,,,,bars/030.png,bars/mask003.png,,,,,,,,,,,,1,1,,,,,,,2,4,1,3,,,,,,,,,,,664.517,665.0169,665.2677,670.7124,space,5.4181,,670.7124,7,68,671.7093,671.7094,677.8867,space,6.131,,0,23,23,23,1,140,65,,,,,,,,
,,653b4e65dac7febe5e91cd70,65af5630f086a38d1a401828,2024-01-23_08h04.32.351,bars,2023.2.3,Win32,59.88023952,657b66ea316d21385b68909f,,,,,,,,,,,677.9109,678.9001,,,679.4008,679.6511,,56,56,,,,,,,,,,,,,,,,bars/016.png,bars/mask003.png,,,,,,,,,,,,0,1,,,,,,,0,2,0,3,,,,,,,,,,,678.9004,679.4005,679.6512,684.6107,space,4.9347,,684.6108,16,71,685.6004,685.6006,689.5672,space,3.9208,,0,24,24,24,1,40,165,,,,,,,,
,,653b4e65dac7febe5e91cd70,65af5630f086a38d1a401828,2024-01-23_08h04.32.351,bars,2023.2.3,Win32,59.88023952,657b66ea316d21385b68909f,,,,,,,,,,,689.5858,690.5846,,,691.0675,691.3171,,45,45,,,,,,,,,,,,,,,,bars/029.png,bars/mask003.png,,,,,,,,,,,,0,2,,,,,,,2,0,4,0,,,,,,,,,,,690.5848,691.0674,691.3172,693.5002,space,2.1705,,693.5003,45,0,694.5005,694.5006,699.2518,space,4.7157,,0,25,25,25,1,90,45,,,,,,,,
,,653b4e65dac7febe5e91cd70,65af5630f086a38d1a401828,2024-01-23_08h04.32.351,bars,2023.2.3,Win32,59.88023952,657b66ea316d21385b68909f,,,,,,,,,,,699.2756,700.2672,,,700.7672,701.0169,,97,97,,,,,,,,,,,,,,,,bars/021.png,bars/mask009.png,,,,,,,,,,,,0,2,,,,,,,0,0,1,1,,,,,,,,,,,700.2672,700.7671,701.0169,703.5836,space,2.5482,,703.5837,58,27,704.5835,704.5836,715.5177,space,10.8948,,0,26,26,26,1,155,70,,,,,,,,
,,653b4e65dac7febe5e91cd70,65af5630f086a38d1a401828,2024-01-23_08h04.32.351,bars,2023.2.3,Win32,59.88023952,657b66ea316d21385b68909f,,,,,,,,,,,715.5881,716.5338,,,717.0338,717.2764,,122,122,,,,,,,,,,,,,,,,bars/009.png,bars/mask002.png,,,,,,,,,,,,0,2,,,,,,,2,0,3,0,,,,,,,,,,,716.5339,717.0338,717.2765,719.4188,space,2.1194,,719.419,73,17,720.4171,720.4174,722.684,space,2.2262,,0,27,27,27,1,15,105,,,,,,,,
,,653b4e65dac7febe5e91cd70,65af5630f086a38d1a401828,2024-01-23_08h04.32.351,bars,2023.2.3,Win32,59.88023952,657b66ea316d21385b68909f,,,,,,,,,,,722.6855,723.6835,,,724.184,724.4337,,55,55,,,,,,,,,,,,,,,,bars/003.png,bars/mask004.png,,,,,,,,,,,,0,1,,,,,,,0,2,0,2,,,,,,,,,,,723.6837,724.1836,724.4337,728.717,space,4.2685,,728.7172,30,85,729.7167,729.7169,731.2334,space,1.4596,,0,28,28,28,1,25,140,,,,,,,,
,,653b4e65dac7febe5e91cd70,65af5630f086a38d1a401828,2024-01-23_08h04.32.351,bars,2023.2.3,Win32,59.88023952,657b66ea316d21385b68909f,,,,,,,,,,,731.2343,732.2333,,,732.7338,732.9835,,38,38,,,,,,,,,,,,,,,,bars/007.png,bars/mask003.png,,,,,,,,,,,,0,2,,,,,,,0,0,0,0,,,,,,,,,,,732.2334,732.7336,732.9839,735.906,space,2.8975,,735.9061,43,17,736.8999,736.8999,738.917,space,1.9638,,0,29,29,29,1,175,55,,,,,,,,
,,653b4e65dac7febe5e91cd70,65af5630f086a38d1a401828,2024-01-23_08h04.32.351,bars,2023.2.3,Win32,59.88023952,657b66ea316d21385b68909f,,,,,,,,,,,738.918,739.9168,,,740.4166,740.6671,,62,62,,,,,,,,,,,,,,,,bars/036.png,bars/mask009.png,,,,,,,,,,,,0,2,,,,,,,0,0,1,0,,,,,,,,,,,739.9169,740.4165,740.6673,746.2679,space,5.5698,,746.2681,83,42,747.2666,747.2667,750.3506,space,3.0383,,0,30,30,30,1,145,20,,,,,,,,
,,653b4e65dac7febe5e91cd70,65af5630f086a38d1a401828,2024-01-23_08h04.32.351,bars,2023.2.3,Win32,59.88023952,657b66ea316d21385b68909f,,,,,,,,,,,750.3714,751.3665,,,751.8683,752.1166,,92,92,,,,,,,,,,,,,,,,bars/018.png,bars/mask004.png,,,,,,,,,,,,2,2,,,,,,,2,0,2,2,,,,,,,,,,,751.3667,751.8681,752.1167,755.9511,space,3.8022,,755.9513,58,2,756.9498,756.9499,759.15,space,2.1629,,0,31,31,31,1,150,90,,,,,,,,
,,653b4e65dac7febe5e91cd70,65af5630f086a38d1a401828,2024-01-23_08h04.32.351,bars,2023.2.3,Win32,59.88023952,657b66ea316d21385b68909f,,,,,,,,,,,759.1508,760.1499,,,760.6502,760.9009,,22,202,,,,,,,,,,,,,,,,bars/033.png,bars/mask000.png,,,,,,,,,,,,4,1,,,,,,,4,2,4,1,,,,,,,,,,,760.15,760.6501,760.9012,767.3498,space,6.4186,,767.35,3,47,768.3499,768.35,777.6349,space,9.2369,,0,32,32,32,1,25,155,,,,,,,,
,,653b4e65dac7febe5e91cd70,65af5630f086a38d1a401828,2024-01-23_08h04.32.351,bars,2023.2.3,Win32,59.88023952,657b66ea316d21385b68909f,,,,,,,,,,,777.6581,778.6501,,,779.1501,779.3999,,38,38,,,,,,,,,,,,,,,,bars/035.png,bars/mask003.png,,,,,,,,,,,,1,2,,,,,,,6,4,7,4,,,,,,,,,,,778.6502,779.15,779.4,782.3338,space,2.9195,,782.3339,43,22,783.3338,783.3339,785.6174,space,2.2354,,0,33,33,33,1,175,60,,,,,,,,
,,653b4e65dac7febe5e91cd70,65af5630f086a38d1a401828,2024-01-23_08h04.32.351,bars,2023.2.3,Win32,59.88023952,657b66ea316d21385b68909f,,,,,,,,,,,785.6191,786.6168,,,787.1171,787.367,,37,37,,,,,,,,,,,,,,,,bars/043.png,bars/mask000.png,,,,,,,,,,,,6,1,,,,,,,8,2,8,2,,,,,,,,,,,786.6171,787.1169,787.3672,790.7172,space,3.3214,,790.7174,7,87,791.717,791.7171,793.8175,space,2.0498,,0,34,34,34,1,30,130,,,,,,,,
,,653b4e65dac7febe5e91cd70,65af5630f086a38d1a401828,2024-01-23_08h04.32.351,bars,2023.2.3,Win32,59.88023952,657b66ea316d21385b68909f,,,,,,,,,,,793.8193,794.8174,,,795.3167,795.5668,,37,217,,,,,,,,,,,,,,,,bars/028.png,bars/mask001.png,,,,,,,,,,,,7,1,,,,,,,10,0,10,0,,,,,,,,,,,794.8175,795.3167,795.5669,800.9666,space,5.3808,,800.9667,8,83,801.9667,801.9668,804.5845,space,2.584,,0,35,35,35,1,45,120,,,,,,,,
,,653b4e65dac7febe5e91cd70,65af5630f086a38d1a401828,2024-01-23_08h04.32.351,bars,2023.2.3,Win32,59.88023952,657b66ea316d21385b68909f,,,,,,,,,,,804.5854,805.5834,,,806.0835,806.3341,,154,-26,,,,,,,,,,,,,,,,bars/047.png,bars/mask005.png,,,,,,,,,,,,0,1,,,,,,,8,0,9,0,,,,,,,,,,,805.5835,806.0833,806.3342,811.1172,space,4.7518,,811.1175,41,84,812.1164,812.1164,817.0836,space,4.9268,,0,36,36,36,1,15,70,,,,,,,,
,,653b4e65dac7febe5e91cd70,65af5630f086a38d1a401828,2024-01-23_08h04.32.351,bars,2023.2.3,Win32,59.88023952,657b66ea316d21385b68909f,,,,,,,,,,,817.1031,818.1001,,,818.5844,818.8333,,51,51,,,,,,,,,,,,,,,,bars/017.png,bars/mask001.png,,,,,,,,,,,,2,2,,,,,,,10,2,9,3,,,,,,,,,,,818.1003,818.5842,818.8334,823.5835,space,4.7206,,823.5837,86,6,824.5833,824.5835,827.6335,space,2.9937,,0,37,37,37,1,145,45,,,,,,,,
,,653b4e65dac7febe5e91cd70,65af5630f086a38d1a401828,2024-01-23_08h04.32.351,bars,2023.2.3,Win32,59.88023952,657b66ea316d21385b68909f,,,,,,,,,,,827.6349,828.6331,,,829.133,829.3831,,101,101,,,,,,,,,,,,,,,,bars/002.png,bars/mask003.png,,,,,,,,,,,,0,2,,,,,,,8,0,9,0,,,,,,,,,,,828.6332,829.1329,829.3832,833.7166,space,4.3204,,833.7168,29,16,834.7171,834.7173,838.4946,space,3.7351,,0,38,38,38,1,130,85,,,,,,,,
,,653b4e65dac7febe5e91cd70,65af5630f086a38d1a401828,2024-01-23_08h04.32.351,bars,2023.2.3,Win32,59.88023952,657b66ea316d21385b68909f,,,,,,,,,,,838.5178,839.5002,,,839.9996,840.2502,,75,75,,,,,,,,,,,,,,,,bars/042.png,bars/mask006.png,,,,,,,,,,,,0,2,,,,,,,10,0,10,0,,,,,,,,,,,839.5006,839.9995,840.2504,842.3836,space,2.1155,,842.3838,70,0,843.3832,843.3833,846.8831,space,3.4659,,0,39,39,39,1,145,75,,,,,,,,
,,653b4e65dac7febe5e91cd70,65af5630f086a38d1a401828,2024-01-23_08h04.32.351,bars,2023.2.3,Win32,59.88023952,657b66ea316d21385b68909f,,,,,,,,,,,846.9034,847.8836,,,848.3838,848.6333,,117,117,,,,,,,,,,,,,,,,bars/015.png,bars/mask005.png,,,,,,,,,,,,8,1,,,,,,,10,0,10,0,,,,,,,,,,,847.8837,848.3835,848.6334,852.4505,space,3.7875,,852.4508,7,43,853.4504,853.4507,858.9443,space,5.4504,,0,40,40,40,1,110,160,,,,,,,,
,,653b4e65dac7febe5e91cd70,65af5630f086a38d1a401828,2024-01-23_08h04.32.351,bars,2023.2.3,Win32,59.88023952,657b66ea316d21385b68909f,,,,,,,,,,,858.9659,859.9501,,,860.4509,860.7001,,111,111,,,,,,,,,,,,,,,,bars/018.png,bars/mask004.png,,,,,,,,,,,,0,2,,,,,,,8,0,6,0,,,,,,,,,,,859.9503,860.4507,860.7003,864.5515,space,3.8224,,864.5518,39,21,865.5507,865.5508,867.0106,space,1.4176,,0,41,41,41,1,150,90,,,,,,,,
,,653b4e65dac7febe5e91cd70,65af5630f086a38d1a401828,2024-01-23_08h04.32.351,bars,2023.2.3,Win32,59.88023952,657b66ea316d21385b68909f,,,,,,,,,,,867.0115,867.9998,,,868.4999,868.7502,,34,34,,,,,,,,,,,,,,,,bars/023.png,bars/mask005.png,,,,,,,,,,,,5,1,,,,,,,10,2,10,3,,,,,,,,,,,867.9998,868.4999,868.7503,871.7671,space,3.003,,871.7672,14,81,872.7674,872.7676,874.6339,space,1.8169,,0,42,42,42,1,20,115,,,,,,,,
,,653b4e65dac7febe5e91cd70,65af5630f086a38d1a401828,2024-01-23_08h04.32.351,bars,2023.2.3,Win32,59.88023952,657b66ea316d21385b68909f,,,,,,,,,,,874.6354,875.6334,,,876.1333,876.383,,129,129,,,,,,,,,,,,,,,,bars/004.png,bars/mask008.png,,,,,,,,,,,,3,2,,,,,,,8,4,9,4,,,,,,,,,,,875.6335,876.1332,876.383,880.685,space,4.2896,,880.6851,76,4,881.6842,881.6843,886.4246,space,4.6908,,0,43,43,43,1,25,125,,,,,,,,
,,653b4e65dac7febe5e91cd70,65af5630f086a38d1a401828,2024-01-23_08h04.32.351,bars,2023.2.3,Win32,59.88023952,657b66ea316d21385b68909f,,,,,,,,,,,886.4437,887.4329,,,887.9331,888.1834,,95,95,,,,,,,,,,,,,,,,bars/031.png,bars/mask004.png,,,,,,,,,,,,1,1,,,,,,,10,2,9,1,,,,,,,,,,,887.4329,887.9331,888.1837,892.9109,space,4.702,,892.911,25,60,893.8996,893.8998,898.4841,space,4.5356,,0,44,44,44,1,120,35,,,,,,,,
,,653b4e65dac7febe5e91cd70,65af5630f086a38d1a401828,2024-01-23_08h04.32.351,bars,2023.2.3,Win32,59.88023952,657b66ea316d21385b68909f,,,,,,,,,,,898.5057,899.5006,,,899.9921,900.234,,25,205,,,,,,,,,,,,,,,,bars/032.png,bars/mask003.png,,,,,,,,,,,,0,2,,,,,,,8,0,8,0,,,,,,,,,,,899.5007,899.992,900.2341,905.8103,space,5.5516,,905.8103,80,5,906.7998,906.7999,909.5961,space,2.738,,0,45,45,45,1,125,20,,,,,,,,
,,653b4e65dac7febe5e91cd70,65af5630f086a38d1a401828,2024-01-23_08h04.32.351,bars,2023.2.3,Win32,59.88023952,657b66ea316d21385b68909f,,,,,,,,,,,909.5971,910.5996,,,911.1002,911.3505,,31,31,,,,,,,,,,,,,,,,bars/031.png,bars/mask005.png,,,,,,,,,,,,1,2,,,,,,,6,0,8,1,,,,,,,,,,,910.5998,911.1,911.3507,912.9843,space,1.6192,,912.9845,89,4,913.983,913.9831,915.5342,space,1.5199,,0,46,46,46,1,120,35,,,,,,,,
,,653b4e65dac7febe5e91cd70,65af5630f086a38d1a401828,2024-01-23_08h04.32.351,bars,2023.2.3,Win32,59.88023952,657b66ea316d21385b68909f,,,,,,,,,,,915.5361,916.5329,,,917.0331,917.2841,,131,131,,,,,,,,,,,,,,,,bars/003.png,bars/mask006.png,,,,,,,,,,,,0,2,,,,,,,8,0,7,0,,,,,,,,,,,916.533,917.033,917.2843,919.0004,space,1.686,,919.0007,74,9,920.0002,920.0003,921.3508,space,1.3202,,0,47,47,47,1,25,140,,,,,,,,
,,653b4e65dac7febe5e91cd70,65af5630f086a38d1a401828,2024-01-23_08h04.32.351,bars,2023.2.3,Win32,59.88023952,657b66ea316d21385b68909f,,,,,,,,,,,921.3525,922.3509,,,922.8505,923.1027,,14,194,,,,,,,,,,,,,,,,bars/040.png,bars/mask000.png,,,,,,,,,,,,2,2,,,,,,,6,2,6,3,,,,,,,,,,,922.3512,922.8504,923.103,927.1836,space,4.051,,927.1839,54,9,928.183,928.1831,931.1166,space,2.8953,,0,48,48,48,1,140,5,,,,,,,,
,,653b4e65dac7febe5e91cd70,65af5630f086a38d1a401828,2024-01-23_08h04.32.351,bars,2023.2.3,Win32,59.88023952,657b66ea316d21385b68909f,,,,,,,,,,,931.1387,932.1342,,,932.6342,932.8672,,135,135,,,,,,,,,,,,,,,,bars/005.png,bars/mask000.png,,,,,,,,,,,,3,2,,,,,,,4,4,4,3,,,,,,,,,,,932.1344,932.6339,932.8673,935.3346,space,2.4372,,935.3347,55,5,936.3338,936.3339,937.5679,space,1.2071,,0,49,49,49,1,10,140,,,,,,,,
,,653b4e65dac7febe5e91cd70,65af5630f086a38d1a401828,2024-01-23_08h04.32.351,bars,2023.2.3,Win32,59.88023952,657b66ea316d21385b68909f,,,,,,,,,,,,,,,,,,,,,,,,,,,,,,,,,,,,,,,,,,,,,,,,,,,,,,,,,,,,,,,,,,,,,,,,,,,,,,,,,,,,,,,,,,,,,937.5816,997.5713,0,0,0,4,1,sequence_tables/blk019.csv
,,653b4e65dac7febe5e91cd70,65af5630f086a38d1a401828,2024-01-23_08h04.32.351,bars,2023.2.3,Win32,59.88023952,657b66ea316d21385b68909f,,,,,,,,,,,1028.7893,1029.7663,,,1030.2672,1030.5168,,25,205,,,,,,,,,,,,,,,,bars/029.png,bars/mask002.png,,,,,,,,,,,,1,2,,,,,,,2,3,5,3,,,,,,997.5991,1028.7511,space,31.1325,,1029.7666,1030.2669,1030.517,1033.5095,space,2.9676,,1033.5096,65,20,1034.5,1034.5003,1034.5293,,,,0,0,0,0,1,90,45,,,,,,,,
,,653b4e65dac7febe5e91cd70,65af5630f086a38d1a401828,2024-01-23_08h04.32.351,bars,2023.2.3,Win32,59.88023952,657b66ea316d21385b68909f,,,,,,,,,,,1034.5301,1035.5371,,,1036.0331,1036.2711,,121,121,,,,,,,,,,,,,,,,bars/023.png,bars/mask009.png,,,,,,,,,,,,1,2,,,,,,,4,1,3,1,,,,,,,,,,,1035.5373,1036.0328,1036.2712,1038.9768,space,2.6846,,1038.9769,79,6,1039.9661,1039.9663,1039.9919,,,,0,1,1,1,1,20,115,,,,,,,,
,,653b4e65dac7febe5e91cd70,65af5630f086a38d1a401828,2024-01-23_08h04.32.351,bars,2023.2.3,Win32,59.88023952,657b66ea316d21385b68909f,,,,,,,,,,,1039.9925,1040.9828,,,1041.4829,1041.7326,,45,45,,,,,,,,,,,,,,,,bars/031.png,bars/mask008.png,,,,,,,,,,,,0,2,,,,,,,6,0,5,0,,,,,,,,,,,1040.9829,1041.4828,1041.7327,1043.6831,space,1.9317,,1043.6831,75,10,1044.684,1044.6841,1044.6877,,,,0,2,2,2,1,120,35,,,,,,,,
,,653b4e65dac7febe5e91cd70,65af5630f086a38d1a401828,2024-01-23_08h04.32.351,bars,2023.2.3,Win32,59.88023952,657b66ea316d21385b68909f,,,,,,,,,,,1044.6884,1045.6829,,,1046.183,1046.4338,,50,50,,,,,,,,,,,,,,,,bars/028.png,bars/mask008.png,,,,,,,,,,,,3,1,,,,,,,4,2,4,2,,,,,,,,,,,1045.683,1046.1829,1046.434,1050.5606,space,4.1012,,1050.5607,5,70,1051.5494,1051.5495,1051.5713,,,,0,3,3,3,1,45,120,,,,,,,,
,,653b4e65dac7febe5e91cd70,65af5630f086a38d1a401828,2024-01-23_08h04.32.351,bars,2023.2.3,Win32,59.88023952,657b66ea316d21385b68909f,,,,,,,,,,,1051.5719,1052.5666,,,1053.0666,1053.3161,,108,108,,,,,,,,,,,,,,,,bars/009.png,bars/mask005.png,,,,,,,,,,,,4,2,,,,,,,6,4,6,4,,,,,,,,,,,1052.5668,1053.0664,1053.3162,1057.1334,space,3.7902,,1057.1337,87,3,1058.133,1058.1332,1058.1612,,,,0,4,4,4,1,15,105,,,,,,,,
,,653b4e65dac7febe5e91cd70,65af5630f086a38d1a401828,2024-01-23_08h04.32.351,bars,2023.2.3,Win32,59.88023952,657b66ea316d21385b68909f,,,,,,,,,,,1058.162,1059.1664,,,1059.666,1059.916,,32,212,,,,,,,,,,,,,,,,bars/014.png,bars/mask001.png,,,,,,,,,,,,0,2,,,,,,,4,2,3,2,,,,,,,,,,,1059.1665,1059.666,1059.9161,1066.4508,space,6.519,,1066.451,48,32,1067.4501,1067.4504,1067.4812,,,,0,5,5,5,1,80,0,,,,,,,,
,,653b4e65dac7febe5e91cd70,65af5630f086a38d1a401828,2024-01-23_08h04.32.351,bars,2023.2.3,Win32,59.88023952,657b66ea316d21385b68909f,,,,,,,,,,,1067.4818,1068.4829,,,1068.983,1069.2341,,74,74,,,,,,,,,,,,,,,,bars/007.png,bars/mask004.png,,,,,,,,,,,,2,2,,,,,,,2,4,2,5,,,,,,,,,,,1068.483,1068.9828,1069.2342,1074.3675,space,5.1038,,1074.3678,79,19,1075.3661,1075.3663,1075.3889,,,,0,6,6,6,1,175,55,,,,,,,,
,,653b4e65dac7febe5e91cd70,65af5630f086a38d1a401828,2024-01-23_08h04.32.351,bars,2023.2.3,Win32,59.88023952,657b66ea316d21385b68909f,,,,,,,,,,,1075.3894,1076.3827,,,1076.8833,1077.1336,,113,113,,,,,,,,,,,,,,,,bars/034.png,bars/mask002.png,,,,,,,,,,,,3,1,,,,,,,4,2,5,2,,,,,,,,,,,1076.3828,1076.8831,1077.1339,1078.8002,space,1.6346,,1078.8005,12,48,1079.7996,1079.7998,1079.8283,,,,0,7,7,7,1,125,65,,,,,,,,
,,653b4e65dac7febe5e91cd70,65af5630f086a38d1a401828,2024-01-23_08h04.32.351,bars,2023.2.3,Win32,59.88023952,657b66ea316d21385b68909f,,,,,,,,,,,1079.8289,1080.8326,,,1081.3328,1081.5827,,125,125,,,,,,,,,,,,,,,,bars/004.png,bars/mask004.png,,,,,,,,,,,,6,2,,,,,,,2,4,2,6,,,,,,,,,,,1080.8327,1081.3326,1081.5828,1086.5833,space,4.9819,,1086.5835,80,0,1087.5827,1087.5828,1087.609,,,,0,8,8,8,1,25,125,,,,,,,,
,,653b4e65dac7febe5e91cd70,65af5630f086a38d1a401828,2024-01-23_08h04.32.351,bars,2023.2.3,Win32,59.88023952,657b66ea316d21385b68909f,,,,,,,,,,,1087.6096,1088.5995,,,1089.0995,1089.3495,,140,140,,,,,,,,,,,,,,,,bars/040.png,bars/mask005.png,,,,,,,,,,,,0,1,,,,,,,0,2,0,2,,,,,,,,,,,1088.5996,1089.0995,1089.3498,1095.301,space,5.9206,,1095.3012,0,45,1096.2997,1096.2998,1096.3278,,,,0,9,9,9,1,140,5,,,,,,,,
,,653b4e65dac7febe5e91cd70,65af5630f086a38d1a401828,2024-01-23_08h04.32.351,bars,2023.2.3,Win32,59.88023952,657b66ea316d21385b68909f,,,,,,,,,,,1096.3284,1097.3326,,,1097.8341,1098.0831,,94,94,,,,,,,,,,,,,,,,bars/001.png,bars/mask004.png,,,,,,,,,,,,4,2,,,,,,,0,4,0,5,,,,,,,,,,,1097.3326,1097.8339,1098.0833,1099.4515,space,1.3368,,1099.4516,36,9,1100.4499,1100.45,1100.4563,,,,0,10,10,10,1,130,85,,,,,,,,
,,653b4e65dac7febe5e91cd70,65af5630f086a38d1a401828,2024-01-23_08h04.32.351,bars,2023.2.3,Win32,59.88023952,657b66ea316d21385b68909f,,,,,,,,,,,1100.457,1101.4498,,,1101.9501,1102.2001,,65,65,,,,,,,,,,,,,,,,bars/002.png,bars/mask008.png,,,,,,,,,,,,0,2,,,,,,,2,2,1,0,,,,,,,,,,,1101.45,1101.9499,1102.2003,1106.2829,space,4.0541,,1106.2831,65,20,1107.2827,1107.2828,1107.3038,,,,0,11,11,11,1,130,85,,,,,,,,
,,653b4e65dac7febe5e91cd70,65af5630f086a38d1a401828,2024-01-23_08h04.32.351,bars,2023.2.3,Win32,59.88023952,657b66ea316d21385b68909f,,,,,,,,,,,1107.3045,1108.3008,,,1108.7997,1109.0493,,125,125,,,,,,,,,,,,,,,,bars/037.png,bars/mask005.png,,,,,,,,,,,,2,2,,,,,,,4,4,5,5,,,,,,,,,,,1108.301,1108.7997,1109.0493,1110.6162,space,1.5509,,1110.6164,25,20,1111.6164,1111.6166,1111.6415,,,,0,12,12,12,1,150,105,,,,,,,,
,,653b4e65dac7febe5e91cd70,65af5630f086a38d1a401828,2024-01-23_08h04.32.351,bars,2023.2.3,Win32,59.88023952,657b66ea316d21385b68909f,,,,,,,,,,,1111.6419,1112.6328,,,1113.1326,1113.383,,127,127,,,,,,,,,,,,,,,,bars/039.png,bars/mask004.png,,,,,,,,,,,,1,2,,,,,,,2,2,0,3,,,,,,,,,,,1112.6328,1113.1326,1113.3831,1114.4829,space,1.0842,,1114.4829,48,22,1115.4825,1115.4826,1115.4845,,,,0,13,13,13,1,175,105,,,,,,,,
,,653b4e65dac7febe5e91cd70,65af5630f086a38d1a401828,2024-01-23_08h04.32.351,bars,2023.2.3,Win32,59.88023952,657b66ea316d21385b68909f,,,,,,,,,,,1115.4852,1116.4826,,,1116.9827,1117.2327,,148,148,,,,,,,,,,,,,,,,bars/039.png,bars/mask006.png,,,,,,,,,,,,0,1,,,,,,,4,4,5,4,,,,,,,,,,,1116.4826,1116.9827,1117.2328,1123.3662,space,6.118,,1123.3664,27,43,1124.3658,1124.3659,1124.3893,,,,0,14,14,14,1,175,105,,,,,,,,
,,653b4e65dac7febe5e91cd70,65af5630f086a38d1a401828,2024-01-23_08h04.32.351,bars,2023.2.3,Win32,59.88023952,657b66ea316d21385b68909f,,,,,,,,,,,1124.3899,1125.3828,,,1125.8829,1126.1327,,77,77,,,,,,,,,,,,,,,,bars/022.png,bars/mask002.png,,,,,,,,,,,,0,1,,,,,,,2,6,1,7,,,,,,,,,,,1125.3828,1125.8828,1126.1328,1128.7333,space,2.5829,,1128.7334,18,57,1129.7325,1129.7326,1129.7566,,,,0,15,15,15,1,95,20,,,,,,,,
,,653b4e65dac7febe5e91cd70,65af5630f086a38d1a401828,2024-01-23_08h04.32.351,bars,2023.2.3,Win32,59.88023952,657b66ea316d21385b68909f,,,,,,,,,,,1129.7574,1130.7494,,,1131.2493,1131.4993,,144,-36,,,,,,,,,,,,,,,,bars/000.png,bars/mask006.png,,,,,,,,,,,,5,2,,,,,,,4,4,2,5,,,,,,,,,,,1130.7496,1131.2492,1131.4994,1138.3,space,6.7833,,1138.3003,76,1,1139.3006,1139.3008,1139.3275,,,,0,16,16,16,1,40,145,,,,,,,,
,,653b4e65dac7febe5e91cd70,65af5630f086a38d1a401828,2024-01-23_08h04.32.351,bars,2023.2.3,Win32,59.88023952,657b66ea316d21385b68909f,,,,,,,,,,,1139.328,1140.3161,,,1140.8165,1141.0663,,9,189,,,,,,,,,,,,,,,,bars/032.png,bars/mask005.png,,,,,,,,,,,,1,2,,,,,,,6,2,5,2,,,,,,,,,,,1140.3162,1140.8163,1141.0663,1145.4003,space,4.3042,,1145.4006,64,11,1146.3996,1146.3997,1146.4224,,,,0,17,17,17,1,125,20,,,,,,,,
,,653b4e65dac7febe5e91cd70,65af5630f086a38d1a401828,2024-01-23_08h04.32.351,bars,2023.2.3,Win32,59.88023952,657b66ea316d21385b68909f,,,,,,,,,,,1146.423,1147.4163,,,1147.9163,1148.166,,20,20,,,,,,,,,,,,,,,,bars/012.png,bars/mask009.png,,,,,,,,,,,,3,2,,,,,,,8,4,7,3,,,,,,,,,,,1147.4165,1147.9162,1148.1661,1152.9169,space,4.7352,,1152.917,70,5,1153.9164,1153.9164,1153.9378,,,,0,18,18,18,1,90,15,,,,,,,,
,,653b4e65dac7febe5e91cd70,65af5630f086a38d1a401828,2024-01-23_08h04.32.351,bars,2023.2.3,Win32,59.88023952,657b66ea316d21385b68909f,,,,,,,,,,,1153.9384,1154.9331,,,1155.4335,1155.6829,,64,64,,,,,,,,,,,,,,,,bars/027.png,bars/mask003.png,,,,,,,,,,,,2,2,,,,,,,6,2,5,3,,,,,,,,,,,1154.9332,1155.4334,1155.6831,1159.117,space,3.4066,,1159.1171,46,14,1160.1164,1160.1165,1160.1387,,,,0,19,19,19,1,110,50,,,,,,,,
,,653b4e65dac7febe5e91cd70,65af5630f086a38d1a401828,2024-01-23_08h04.32.351,bars,2023.2.3,Win32,59.88023952,657b66ea316d21385b68909f,,,,,,,,,,,1160.1392,1161.1329,,,1161.6251,1161.8673,,102,102,,,,,,,,,,,,,,,,bars/039.png,bars/mask004.png,,,,,,,,,,,,2,2,,,,,,,8,4,8,2,,,,,,,,,,,1161.1332,1161.6251,1161.8675,1164.4007,space,2.5026,,1164.4009,73,3,1165.3996,1165.3999,1165.4235,,,,0,20,20,20,1,175,105,,,,,,,,
,,653b4e65dac7febe5e91cd70,65af5630f086a38d1a401828,2024-01-23_08h04.32.351,bars,2023.2.3,Win32,59.88023952,657b66ea316d21385b68909f,,,,,,,,,,,1165.4239,1166.416,,,1166.916,1167.1664,,21,201,,,,,,,,,,,,,,,,bars/008.png,bars/mask005.png,,,,,,,,,,,,2,2,,,,,,,6,6,5,6,,,,,,,,,,,1166.416,1166.9159,1167.1664,1172.4727,space,5.2949,,1172.4728,89,21,1173.4678,1173.4683,1173.4955,,,,0,21,21,21,1,110,0,,,,,,,,
,,653b4e65dac7febe5e91cd70,65af5630f086a38d1a401828,2024-01-23_08h04.32.351,bars,2023.2.3,Win32,59.88023952,657b66ea316d21385b68909f,,,,,,,,,,,1173.496,1174.4996,,,1175.0002,1175.2497,,48,48,,,,,,,,,,,,,,,,bars/000.png,bars/mask001.png,,,,,,,,,,,,7,1,,,,,,,8,4,9,4,,,,,,,,,,,1174.4998,1175.0001,1175.2497,1177.4604,space,2.1853,,1177.4606,8,83,1178.4496,1178.4497,1178.4757,,,,0,22,22,22,1,40,145,,,,,,,,
,,653b4e65dac7febe5e91cd70,65af5630f086a38d1a401828,2024-01-23_08h04.32.351,bars,2023.2.3,Win32,59.88023952,657b66ea316d21385b68909f,,,,,,,,,,,1178.4768,1179.4767,,,1179.9664,1180.2158,,136,-44,,,,,,,,,,,,,,,,bars/028.png,bars/mask002.png,,,,,,,,,,,,1,2,,,,,,,10,2,10,2,,,,,,,,,,,1179.4769,1179.9663,1180.2159,1184.9164,space,4.685,,1184.9166,89,16,1185.9159,1185.916,1185.9382,,,,0,23,23,23,1,45,120,,,,,,,,
,,653b4e65dac7febe5e91cd70,65af5630f086a38d1a401828,2024-01-23_08h04.32.351,bars,2023.2.3,Win32,59.88023952,657b66ea316d21385b68909f,,,,,,,,,,,1185.9391,1186.9326,,,1187.4334,1187.6828,,45,45,,,,,,,,,,,,,,,,bars/020.png,bars/mask009.png,,,,,,,,,,,,0,2,,,,,,,10,4,10,6,,,,,,,,,,,1186.9327,1187.4332,1187.683,1190.3839,space,2.6844,,1190.3841,70,55,1191.3828,1191.383,1191.406,,,,0,24,24,24,1,115,170,,,,,,,,
,,653b4e65dac7febe5e91cd70,65af5630f086a38d1a401828,2024-01-23_08h04.32.351,bars,2023.2.3,Win32,59.88023952,657b66ea316d21385b68909f,,,,,,,,,,,1191.4066,1192.4008,,,1192.8998,1193.1498,,149,149,,,,,,,,,,,,,,,,bars/007.png,bars/mask009.png,,,,,,,,,,,,1,1,,,,,,,10,6,9,7,,,,,,,,,,,1192.4009,1192.8995,1193.15,1196.8264,space,3.6515,,1196.8264,26,86,1197.8161,1197.8162,1197.8418,,,,0,25,25,25,1,175,55,,,,,,,,
,,653b4e65dac7febe5e91cd70,65af5630f086a38d1a401828,2024-01-23_08h04.32.351,bars,2023.2.3,Win32,59.88023952,657b66ea316d21385b68909f,,,,,,,,,,,1197.8424,1198.8329,,,1199.3331,1199.5833,,48,48,,,,,,,,,,,,,,,,bars/035.png,bars/mask005.png,,,,,,,,,,,,5,2,,,,,,,10,8,10,8,,,,,,,,,,,1198.8329,1199.3329,1199.5834,1204.8678,space,5.2523,,1204.8679,53,12,1205.8665,1205.8666,1205.8924,,,,0,26,26,26,1,175,60,,,,,,,,
,,653b4e65dac7febe5e91cd70,65af5630f086a38d1a401828,2024-01-23_08h04.32.351,bars,2023.2.3,Win32,59.88023952,657b66ea316d21385b68909f,,,,,,,,,,,1205.893,1206.8829,,,1207.383,1207.6326,,129,129,,,,,,,,,,,,,,,,bars/037.png,bars/mask008.png,,,,,,,,,,,,3,1,,,,,,,10,10,10,10,,,,,,,,,,,1206.8829,1207.3829,1207.6327,1209.1665,space,1.5147,,1209.1666,21,24,1210.1658,1210.1661,1210.1752,,,,0,27,27,27,1,150,105,,,,,,,,
,,653b4e65dac7febe5e91cd70,65af5630f086a38d1a401828,2024-01-23_08h04.32.351,bars,2023.2.3,Win32,59.88023952,657b66ea316d21385b68909f,,,,,,,,,,,1210.176,1211.1661,,,1211.6662,1211.916,,63,63,,,,,,,,,,,,,,,,bars/027.png,bars/mask009.png,,,,,,,,,,,,5,2,,,,,,,10,8,10,8,,,,,,,,,,,1211.1662,1211.6661,1211.916,1213.7493,space,1.8204,,1213.7495,47,13,1214.749,1214.7492,1214.7567,,,,0,28,28,28,1,110,50,,,,,,,,
,,653b4e65dac7febe5e91cd70,65af5630f086a38d1a401828,2024-01-23_08h04.32.351,bars,2023.2.3,Win32,59.88023952,657b66ea316d21385b68909f,,,,,,,,,,,1214.7574,1215.7492,,,1216.2497,1216.4994,,144,-36,,,,,,,,,,,,,,,,bars/034.png,bars/mask000.png,,,,,,,,,,,,3,1,,,,,,,8,10,8,10,,,,,,,,,,,1215.7492,1216.2496,1216.4995,1221.2327,space,4.7179,,1221.2328,19,79,1222.2334,1222.2336,1222.2628,,,,0,29,29,29,1,125,65,,,,,,,,
,,653b4e65dac7febe5e91cd70,65af5630f086a38d1a401828,2024-01-23_08h04.32.351,bars,2023.2.3,Win32,59.88023952,657b66ea316d21385b68909f,,,,,,,,,,,1222.2633,1223.2657,,,1223.766,1224.0159,,54,54,,,,,,,,,,,,,,,,bars/025.png,bars/mask007.png,,,,,,,,,,,,5,2,,,,,,,6,10,7,10,,,,,,,,,,,1223.2657,1223.766,1224.016,1229.4505,space,5.4232,,1229.4505,51,14,1230.4496,1230.4498,1230.4754,,,,0,30,30,30,1,105,40,,,,,,,,
,,653b4e65dac7febe5e91cd70,65af5630f086a38d1a401828,2024-01-23_08h04.32.351,bars,2023.2.3,Win32,59.88023952,657b66ea316d21385b68909f,,,,,,,,,,,1230.4761,1231.4656,,,1231.9658,1232.2157,,76,76,,,,,,,,,,,,,,,,bars/011.png,bars/mask009.png,,,,,,,,,,,,7,2,,,,,,,4,10,3,10,,,,,,,,,,,1231.4656,1231.9657,1232.2157,1237.4333,space,5.2006,,1237.4335,84,9,1238.4249,1238.425,1238.446,,,,0,31,31,31,1,160,85,,,,,,,,
,,653b4e65dac7febe5e91cd70,65af5630f086a38d1a401828,2024-01-23_08h04.32.351,bars,2023.2.3,Win32,59.88023952,657b66ea316d21385b68909f,,,,,,,,,,,1238.4465,1239.4489,,,1239.9492,1240.199,,51,51,,,,,,,,,,,,,,,,bars/004.png,bars/mask006.png,,,,,,,,,,,,1,1,,,,,,,6,10,7,10,,,,,,,,,,,1239.449,1239.9491,1240.1991,1242.483,space,2.2679,,1242.4831,26,74,1243.4822,1243.4823,1243.5062,,,,0,32,32,32,1,25,125,,,,,,,,
,,653b4e65dac7febe5e91cd70,65af5630f086a38d1a401828,2024-01-23_08h04.32.351,bars,2023.2.3,Win32,59.88023952,657b66ea316d21385b68909f,,,,,,,,,,,1243.5067,1244.4991,,,1244.9992,1245.2495,,108,108,,,,,,,,,,,,,,,,bars/039.png,bars/mask003.png,,,,,,,,,,,,8,2,,,,,,,4,10,3,9,,,,,,,,,,,1244.4992,1244.9991,1245.2495,1249.5825,space,4.3191,,1249.5827,67,3,1250.5825,1250.5826,1250.6076,,,,0,33,33,33,1,175,105,,,,,,,,
,,653b4e65dac7febe5e91cd70,65af5630f086a38d1a401828,2024-01-23_08h04.32.351,bars,2023.2.3,Win32,59.88023952,657b66ea316d21385b68909f,,,,,,,,,,,1250.6083,1251.599,,,1252.0992,1252.35,,48,48,,,,,,,,,,,,,,,,bars/036.png,bars/mask000.png,,,,,,,,,,,,1,2,,,,,,,6,8,8,8,,,,,,,,,,,1251.5991,1252.0992,1252.3501,1255.7331,space,3.3557,,1255.7334,83,28,1256.7323,1256.7325,1256.7551,,,,0,34,34,34,1,145,20,,,,,,,,
,,653b4e65dac7febe5e91cd70,65af5630f086a38d1a401828,2024-01-23_08h04.32.351,bars,2023.2.3,Win32,59.88023952,657b66ea316d21385b68909f,,,,,,,,,,,1256.7556,1257.7505,,,1258.2508,1258.4993,,58,58,,,,,,,,,,,,,,,,bars/026.png,bars/mask004.png,,,,,,,,,,,,1,1,,,,,,,4,6,4,6,,,,,,,,,,,1257.7508,1258.2507,1258.4993,1264.0333,space,5.5046,,1264.0335,23,27,1265.0332,1265.0334,1265.0597,,,,0,35,35,35,1,35,85,,,,,,,,
,,653b4e65dac7febe5e91cd70,65af5630f086a38d1a401828,2024-01-23_08h04.32.351,bars,2023.2.3,Win32,59.88023952,657b66ea316d21385b68909f,,,,,,,,,,,1265.0603,1266.0494,,,1266.5497,1266.8009,,131,131,,,,,,,,,,,,,,,,bars/003.png,bars/mask003.png,,,,,,,,,,,,3,2,,,,,,,2,4,1,4,,,,,,,,,,,1266.0494,1266.5495,1266.8011,1270.543,space,3.7178,,1270.5431,74,9,1271.5327,1271.5327,1271.5567,,,,0,36,36,36,1,25,140,,,,,,,,
,,653b4e65dac7febe5e91cd70,65af5630f086a38d1a401828,2024-01-23_08h04.32.351,bars,2023.2.3,Win32,59.88023952,657b66ea316d21385b68909f,,,,,,,,,,,1271.5573,1272.5492,,,1273.042,1273.2846,,65,65,,,,,,,,,,,,,,,,bars/041.png,bars/mask003.png,,,,,,,,,,,,0,2,,,,,,,0,2,1,0,,,,,,,,,,,1272.5493,1273.0418,1273.2848,1275.4503,space,2.1361,,1275.4505,45,20,1276.449,1276.4491,1276.4733,,,,0,37,37,37,1,20,85,,,,,,,,
,,653b4e65dac7febe5e91cd70,65af5630f086a38d1a401828,2024-01-23_08h04.32.351,bars,2023.2.3,Win32,59.88023952,657b66ea316d21385b68909f,,,,,,,,,,,1276.4739,1277.4655,,,1277.9661,1278.2156,,53,233,,,,,,,,,,,,,,,,bars/041.png,bars/mask005.png,,,,,,,,,,,,0,2,,,,,,,2,0,2,1,,,,,,,,,,,1277.4657,1277.966,1278.2158,1283.283,space,5.0536,,1283.2832,33,32,1284.2826,1284.2826,1284.3032,,,,0,38,38,38,1,20,85,,,,,,,,
,,653b4e65dac7febe5e91cd70,65af5630f086a38d1a401828,2024-01-23_08h04.32.351,bars,2023.2.3,Win32,59.88023952,657b66ea316d21385b68909f,,,,,,,,,,,1284.3037,1285.3004,,,1285.7999,1286.0493,,13,13,,,,,,,,,,,,,,,,bars/032.png,bars/mask007.png,,,,,,,,,,,,2,2,,,,,,,4,2,5,2,,,,,,,,,,,1285.3006,1285.7997,1286.0495,1290.1102,space,4.0352,,1290.1103,68,7,1291.0995,1291.0995,1291.123,,,,0,39,39,39,1,125,20,,,,,,,,
,,653b4e65dac7febe5e91cd70,65af5630f086a38d1a401828,2024-01-23_08h04.32.351,bars,2023.2.3,Win32,59.88023952,657b66ea316d21385b68909f,,,,,,,,,,,1291.1234,1292.1157,,,1292.616,1292.8658,,107,107,,,,,,,,,,,,,,,,bars/001.png,bars/mask000.png,,,,,,,,,,,,0,2,,,,,,,6,0,7,1,,,,,,,,,,,1292.1158,1292.6159,1292.8659,1296.2499,space,3.368,,1296.25,23,22,1297.249,1297.2491,1297.2711,,,,0,40,40,40,1,130,85,,,,,,,,
,,653b4e65dac7febe5e91cd70,65af5630f086a38d1a401828,2024-01-23_08h04.32.351,bars,2023.2.3,Win32,59.88023952,657b66ea316d21385b68909f,,,,,,,,,,,1297.2719,1298.2658,,,1298.7659,1299.0158,,132,132,,,,,,,,,,,,,,,,bars/020.png,bars/mask007.png,,,,,,,,,,,,2,1,,,,,,,4,2,4,2,,,,,,,,,,,1298.2658,1298.7658,1299.0158,1300.7995,space,1.7692,,1300.7998,17,38,1301.8011,1301.8012,1301.8271,,,,0,41,41,41,1,115,170,,,,,,,,
,,653b4e65dac7febe5e91cd70,65af5630f086a38d1a401828,2024-01-23_08h04.32.351,bars,2023.2.3,Win32,59.88023952,657b66ea316d21385b68909f,,,,,,,,,,,1301.8276,1302.8156,,,1303.3159,1303.5655,,126,126,,,,,,,,,,,,,,,,bars/028.png,bars/mask003.png,,,,,,,,,,,,2,2,,,,,,,2,4,1,3,,,,,,,,,,,1302.8157,1303.3158,1303.5656,1307.5494,space,3.9693,,1307.5495,81,6,1308.5491,1308.5492,1308.5755,,,,0,42,42,42,1,45,120,,,,,,,,
,,653b4e65dac7febe5e91cd70,65af5630f086a38d1a401828,2024-01-23_08h04.32.351,bars,2023.2.3,Win32,59.88023952,657b66ea316d21385b68909f,,,,,,,,,,,1308.576,1309.567,,,1310.0672,1310.3164,,150,150,,,,,,,,,,,,,,,,bars/049.png,bars/mask000.png,,,,,,,,,,,,1,1,,,,,,,0,2,1,1,,,,,,,,,,,1309.5673,1310.067,1310.3165,1313.1164,space,2.7683,,1313.1167,10,35,1314.1159,1314.116,1314.1411,,,,0,43,43,43,1,160,115,,,,,,,,
,,653b4e65dac7febe5e91cd70,65af5630f086a38d1a401828,2024-01-23_08h04.32.351,bars,2023.2.3,Win32,59.88023952,657b66ea316d21385b68909f,,,,,,,,,,,1314.1417,1315.1324,,,1315.6251,1315.8662,,127,127,,,,,,,,,,,,,,,,bars/015.png,bars/mask000.png,,,,,,,,,,,,0,1,,,,,,,0,4,0,4,,,,,,,,,,,1315.1324,1315.6251,1315.8663,1317.9666,space,2.071,,1317.9668,17,33,1318.9663,1318.9666,1318.9892,,,,0,44,44,44,1,110,160,,,,,,,,
,,653b4e65dac7febe5e91cd70,65af5630f086a38d1a401828,2024-01-23_08h04.32.351,bars,2023.2.3,Win32,59.88023952,657b66ea316d21385b68909f,,,,,,,,,,,1318.9897,1319.9835,,,1320.4839,1320.7324,,52,52,,,,,,,,,,,,,,,,bars/014.png,bars/mask006.png,,,,,,,,,,,,0,1,,,,,,,0,6,0,9,,,,,,,,,,,1319.9838,1320.4837,1320.7326,1324.7845,space,4.019,,1324.7846,28,52,1325.7828,1325.7831,1325.8059,,,,0,45,45,45,1,80,0,,,,,,,,
,,653b4e65dac7febe5e91cd70,65af5630f086a38d1a401828,2024-01-23_08h04.32.351,bars,2023.2.3,Win32,59.88023952,657b66ea316d21385b68909f,,,,,,,,,,,1325.8065,1326.7989,,,1327.2988,1327.5489,,125,125,,,,,,,,,,,,,,,,bars/024.png,bars/mask004.png,,,,,,,,,,,,2,1,,,,,,,2,4,2,3,,,,,,,,,,,1326.7991,1327.2987,1327.5489,1330.5492,space,2.9858,,1330.5493,5,45,1331.5494,1331.5496,1331.5705,,,,0,46,46,46,1,120,170,,,,,,,,
,,653b4e65dac7febe5e91cd70,65af5630f086a38d1a401828,2024-01-23_08h04.32.351,bars,2023.2.3,Win32,59.88023952,657b66ea316d21385b68909f,,,,,,,,,,,1331.5711,1332.566,,,1333.0664,1333.316,,45,45,,,,,,,,,,,,,,,,bars/047.png,bars/mask002.png,,,,,,,,,,,,0,2,,,,,,,0,2,1,2,,,,,,,,,,,1332.5662,1333.0661,1333.316,1334.717,space,1.3703,,1334.7172,30,25,1335.7161,1335.7163,1335.7226,,,,0,47,47,47,1,15,70,,,,,,,,
,,653b4e65dac7febe5e91cd70,65af5630f086a38d1a401828,2024-01-23_08h04.32.351,bars,2023.2.3,Win32,59.88023952,657b66ea316d21385b68909f,,,,,,,,,,,1335.7231,1336.7157,,,1337.2174,1337.4659,,157,-23,,,,,,,,,,,,,,,,bars/000.png,bars/mask006.png,,,,,,,,,,,,3,2,,,,,,,0,4,2,5,,,,,,,,,,,1336.7159,1337.2172,1337.4659,1342.2331,space,4.7343,,1342.2333,63,12,1343.233,1343.2332,1343.2557,,,,0,48,48,48,1,40,145,,,,,,,,
,,653b4e65dac7febe5e91cd70,65af5630f086a38d1a401828,2024-01-23_08h04.32.351,bars,2023.2.3,Win32,59.88023952,657b66ea316d21385b68909f,,,,,,,,,,,1343.2562,1344.2503,,,1344.7496,1344.9993,,59,59,,,,,,,,,,,,,,,,bars/025.png,bars/mask008.png,,,,,,,,,,,,1,2,,,,,,,2,2,1,3,,,,,,,,,,,1344.2505,1344.7495,1344.9995,1348.2492,space,3.2229,,1348.2494,46,19,1349.2489,1349.2491,1349.2719,,,,0,49,49,49,1,105,40,,,,,,,,
,,653b4e65dac7febe5e91cd70,65af5630f086a38d1a401828,2024-01-23_08h04.32.351,bars,2023.2.3,Win32,59.88023952,657b66ea316d21385b68909f,,,,,,,,,,,,,,,,,,,,,,,,,,,,,,,,,,,,,,,,,,,,,,,,,,,,,,,,,,,,,,,,,,,,,,,,,,,,,,,,,,,,,,,,,,,,,1349.2724,1409.2669,0,1,1,0,1,sequence_tables/blk016.csv
,,653b4e65dac7febe5e91cd70,65af5630f086a38d1a401828,2024-01-23_08h04.32.351,bars,2023.2.3,Win32,59.88023952,657b66ea316d21385b68909f,,,,,,,,,,,1411.919,1412.9159,,,1413.4158,1413.6668,,77,77,,,,,,,,,,,,,,,,bars/018.png,bars/mask009.png,,,,,,,,,,,,0,2,,,,,,,8,1,8,0,,,,,,1409.294,1411.899,space,2.5893,,1412.9162,1413.4158,1413.6671,1417.1606,space,3.4685,,1417.1607,73,13,1418.1487,1418.1488,1418.1705,,,,0,0,0,0,1,150,90,,,,,,,,
,,653b4e65dac7febe5e91cd70,65af5630f086a38d1a401828,2024-01-23_08h04.32.351,bars,2023.2.3,Win32,59.88023952,657b66ea316d21385b68909f,,,,,,,,,,,1418.171,1419.1654,,,1419.666,1419.9163,,104,104,,,,,,,,,,,,,,,,bars/014.png,bars/mask008.png,,,,,,,,,,,,1,1,,,,,,,6,3,5,3,,,,,,,,,,,1419.1656,1419.6658,1419.9165,1421.7331,space,1.7857,,1421.7332,24,76,1422.7323,1422.7324,1422.7391,,,,0,1,1,1,1,80,0,,,,,,,,
,,653b4e65dac7febe5e91cd70,65af5630f086a38d1a401828,2024-01-23_08h04.32.351,bars,2023.2.3,Win32,59.88023952,657b66ea316d21385b68909f,,,,,,,,,,,1422.7398,1423.7323,,,1424.2323,1424.483,,67,67,,,,,,,,,,,,,,,,bars/007.png,bars/mask003.png,,,,,,,,,,,,4,2,,,,,,,4,5,5,6,,,,,,,,,,,1423.7325,1424.2321,1424.4832,1429.1822,space,4.6739,,1429.1824,72,12,1430.1822,1430.1823,1430.2083,,,,0,2,2,2,1,175,55,,,,,,,,
,,653b4e65dac7febe5e91cd70,65af5630f086a38d1a401828,2024-01-23_08h04.32.351,bars,2023.2.3,Win32,59.88023952,657b66ea316d21385b68909f,,,,,,,,,,,1430.2089,1431.1991,,,1431.6994,1431.9503,,42,42,,,,,,,,,,,,,,,,bars/007.png,bars/mask008.png,,,,,,,,,,,,1,2,,,,,,,6,3,6,2,,,,,,,,,,,1431.1992,1431.6992,1431.9506,1433.659,space,1.6843,,1433.659,47,13,1434.6488,1434.6489,1434.6512,,,,0,3,3,3,1,175,55,,,,,,,,
,,653b4e65dac7febe5e91cd70,65af5630f086a38d1a401828,2024-01-23_08h04.32.351,bars,2023.2.3,Win32,59.88023952,657b66ea316d21385b68909f,,,,,,,,,,,1434.6524,1435.6491,,,1436.1495,1436.3992,,149,-31,,,,,,,,,,,,,,,,bars/014.png,bars/mask003.png,,,,,,,,,,,,0,2,,,,,,,8,1,6,0,,,,,,,,,,,1435.6494,1436.1493,1436.3994,1440.7831,space,4.3537,,1440.7833,69,31,1441.7826,1441.7828,1441.805,,,,0,4,4,4,1,80,0,,,,,,,,
,,653b4e65dac7febe5e91cd70,65af5630f086a38d1a401828,2024-01-23_08h04.32.351,bars,2023.2.3,Win32,59.88023952,657b66ea316d21385b68909f,,,,,,,,,,,1441.8055,1442.7993,,,1443.3041,1443.5493,,62,62,,,,,,,,,,,,,,,,bars/027.png,bars/mask000.png,,,,,,,,,,,,2,2,,,,,,,10,3,10,3,,,,,,,,,,,1442.7994,1443.3041,1443.5495,1445.2336,space,1.656,,1445.2338,48,12,1446.2331,1446.2333,1446.255,,,,0,5,5,5,1,110,50,,,,,,,,
,,653b4e65dac7febe5e91cd70,65af5630f086a38d1a401828,2024-01-23_08h04.32.351,bars,2023.2.3,Win32,59.88023952,657b66ea316d21385b68909f,,,,,,,,,,,1446.2556,1447.2489,,,1447.7493,1447.9988,,17,17,,,,,,,,,,,,,,,,bars/032.png,bars/mask005.png,,,,,,,,,,,,0,2,,,,,,,8,1,8,0,,,,,,,,,,,1447.2489,1447.7491,1447.9989,1455.0326,space,7.0031,,1455.0328,72,3,1456.0341,1456.0343,1456.0569,,,,0,6,6,6,1,125,20,,,,,,,,
,,653b4e65dac7febe5e91cd70,65af5630f086a38d1a401828,2024-01-23_08h04.32.351,bars,2023.2.3,Win32,59.88023952,657b66ea316d21385b68909f,,,,,,,,,,,1456.0574,1457.0485,,,1457.5489,1457.799,,29,29,,,,,,,,,,,,,,,,bars/015.png,bars/mask005.png,,,,,,,,,,,,0,2,,,,,,,6,0,6,0,,,,,,,,,,,1457.0486,1457.5489,1457.7991,1459.6323,space,1.8197,,1459.6325,81,49,1460.6324,1460.6325,1460.6343,,,,0,7,7,7,1,110,160,,,,,,,,
,,653b4e65dac7febe5e91cd70,65af5630f086a38d1a401828,2024-01-23_08h04.32.351,bars,2023.2.3,Win32,59.88023952,657b66ea316d21385b68909f,,,,,,,,,,,1460.6355,1461.6323,,,1462.1325,1462.3836,,65,65,,,,,,,,,,,,,,,,bars/026.png,bars/mask008.png,,,,,,,,,,,,0,2,,,,,,,4,0,6,0,,,,,,,,,,,1461.6324,1462.1323,1462.3838,1464.4995,space,2.0876,,1464.4997,30,20,1465.4919,1465.492,1465.5155,,,,0,8,8,8,1,35,85,,,,,,,,
,,653b4e65dac7febe5e91cd70,65af5630f086a38d1a401828,2024-01-23_08h04.32.351,bars,2023.2.3,Win32,59.88023952,657b66ea316d21385b68909f,,,,,,,,,,,1465.5161,1466.5157,,,1467.0153,1467.2656,,56,56,,,,,,,,,,,,,,,,bars/041.png,bars/mask005.png,,,,,,,,,,,,0,2,,,,,,,6,0,6,0,,,,,,,,,,,1466.5159,1467.0152,1467.2657,1471.7659,space,4.4721,,1471.7661,36,29,1472.7654,1472.7657,1472.7883,,,,0,9,9,9,1,20,85,,,,,,,,
,,653b4e65dac7febe5e91cd70,65af5630f086a38d1a401828,2024-01-23_08h04.32.351,bars,2023.2.3,Win32,59.88023952,657b66ea316d21385b68909f,,,,,,,,,,,1472.7887,1473.7824,,,1474.282,1474.5325,,86,86,,,,,,,,,,,,,,,,bars/038.png,bars/mask000.png,,,,,,,,,,,,1,2,,,,,,,8,2,8,3,,,,,,,,,,,1473.7827,1474.282,1474.5325,1475.7822,space,1.2338,,1475.7823,79,16,1476.7822,1476.7822,1476.784,,,,0,10,10,10,1,165,70,,,,,,,,
,,653b4e65dac7febe5e91cd70,65af5630f086a38d1a401828,2024-01-23_08h04.32.351,bars,2023.2.3,Win32,59.88023952,657b66ea316d21385b68909f,,,,,,,,,,,1476.7847,1477.7819,,,1478.2824,1478.5323,,137,137,,,,,,,,,,,,,,,,bars/024.png,bars/mask008.png,,,,,,,,,,,,3,1,,,,,,,6,0,7,0,,,,,,,,,,,1477.782,1478.2823,1478.5325,1479.9656,space,1.4141,,1479.9657,17,33,1480.9652,1480.9652,1480.9711,,,,0,11,11,11,1,120,170,,,,,,,,
,,653b4e65dac7febe5e91cd70,65af5630f086a38d1a401828,2024-01-23_08h04.32.351,bars,2023.2.3,Win32,59.88023952,657b66ea316d21385b68909f,,,,,,,,,,,1480.9719,1481.9651,,,1482.4665,1482.7154,,73,73,,,,,,,,,,,,,,,,bars/021.png,bars/mask000.png,,,,,,,,,,,,2,2,,,,,,,4,2,5,2,,,,,,,,,,,1481.9651,1482.4663,1482.7156,1485.192,space,2.4516,,1485.1921,82,3,1486.1825,1486.1827,1486.2076,,,,0,12,12,12,1,155,70,,,,,,,,
,,653b4e65dac7febe5e91cd70,65af5630f086a38d1a401828,2024-01-23_08h04.32.351,bars,2023.2.3,Win32,59.88023952,657b66ea316d21385b68909f,,,,,,,,,,,1486.2083,1487.1989,,,1487.6987,1487.9488,,55,55,,,,,,,,,,,,,,,,bars/002.png,bars/mask003.png,,,,,,,,,,,,0,2,,,,,,,6,0,7,0,,,,,,,,,,,1487.199,1487.6987,1487.9489,1491.1748,space,3.2004,,1491.1749,75,30,1492.1652,1492.1652,1492.185,,,,0,13,13,13,1,130,85,,,,,,,,
,,653b4e65dac7febe5e91cd70,65af5630f086a38d1a401828,2024-01-23_08h04.32.351,bars,2023.2.3,Win32,59.88023952,657b66ea316d21385b68909f,,,,,,,,,,,1492.1855,1493.1823,,,1493.6825,1493.9321,,56,236,,,,,,,,,,,,,,,,bars/041.png,bars/mask000.png,,,,,,,,,,,,0,2,,,,,,,8,2,7,2,,,,,,,,,,,1493.1825,1493.682,1493.9323,1498.5431,space,4.5856,,1498.5432,36,29,1499.5326,1499.5329,1499.5549,,,,0,14,14,14,1,20,85,,,,,,,,
,,653b4e65dac7febe5e91cd70,65af5630f086a38d1a401828,2024-01-23_08h04.32.351,bars,2023.2.3,Win32,59.88023952,657b66ea316d21385b68909f,,,,,,,,,,,1499.5553,1500.5493,,,1501.0492,1501.2915,,110,110,,,,,,,,,,,,,,,,bars/002.png,bars/mask007.png,,,,,,,,,,,,3,1,,,,,,,10,4,10,6,,,,,,,,,,,1500.5496,1501.049,1501.2917,1503.7031,space,2.3942,,1503.7033,20,25,1504.6992,1504.6995,1504.7242,,,,0,15,15,15,1,130,85,,,,,,,,
,,653b4e65dac7febe5e91cd70,65af5630f086a38d1a401828,2024-01-23_08h04.32.351,bars,2023.2.3,Win32,59.88023952,657b66ea316d21385b68909f,,,,,,,,,,,1504.7249,1505.7152,,,1506.2153,1506.4651,,67,67,,,,,,,,,,,,,,,,bars/038.png,bars/mask000.png,,,,,,,,,,,,2,2,,,,,,,10,2,10,2,,,,,,,,,,,1505.7152,1506.2152,1506.4651,1508.9819,space,2.5013,,1508.9821,82,3,1509.9827,1509.983,1510.0084,,,,0,16,16,16,1,165,70,,,,,,,,
,,653b4e65dac7febe5e91cd70,65af5630f086a38d1a401828,2024-01-23_08h04.32.351,bars,2023.2.3,Win32,59.88023952,657b66ea316d21385b68909f,,,,,,,,,,,1510.0091,1510.9984,,,1511.4985,1511.749,,76,76,,,,,,,,,,,,,,,,bars/026.png,bars/mask009.png,,,,,,,,,,,,0,2,,,,,,,8,0,6,0,,,,,,,,,,,1510.9986,1511.4984,1511.7491,1513.4993,space,1.7306,,1513.4993,41,9,1514.4985,1514.4986,1514.5201,,,,0,17,17,17,1,35,85,,,,,,,,
,,653b4e65dac7febe5e91cd70,65af5630f086a38d1a401828,2024-01-23_08h04.32.351,bars,2023.2.3,Win32,59.88023952,657b66ea316d21385b68909f,,,,,,,,,,,1514.5206,1515.5166,,,1516.0159,1516.266,,54,54,,,,,,,,,,,,,,,,bars/002.png,bars/mask008.png,,,,,,,,,,,,0,2,,,,,,,10,2,10,3,,,,,,,,,,,1515.5166,1516.0158,1516.2662,1520.2847,space,3.9921,,1520.2849,76,31,1521.2818,1521.2821,1521.3041,,,,0,18,18,18,1,130,85,,,,,,,,
,,653b4e65dac7febe5e91cd70,65af5630f086a38d1a401828,2024-01-23_08h04.32.351,bars,2023.2.3,Win32,59.88023952,657b66ea316d21385b68909f,,,,,,,,,,,1521.3044,1522.2991,,,1522.8003,1523.0494,,27,207,,,,,,,,,,,,,,,,bars/008.png,bars/mask008.png,,,,,,,,,,,,1,2,,,,,,,10,4,10,7,,,,,,,,,,,1522.2993,1522.8001,1523.0497,1527.4501,space,4.3709,,1527.4503,83,27,1528.4494,1528.4496,1528.4731,,,,0,19,19,19,1,110,0,,,,,,,,
,,653b4e65dac7febe5e91cd70,65af5630f086a38d1a401828,2024-01-23_08h04.32.351,bars,2023.2.3,Win32,59.88023952,657b66ea316d21385b68909f,,,,,,,,,,,1528.4736,1529.4653,,,1529.9653,1530.2152,,138,138,,,,,,,,,,,,,,,,bars/034.png,bars/mask007.png,,,,,,,,,,,,5,1,,,,,,,8,6,8,5,,,,,,,,,,,1529.4654,1529.9652,1530.2153,1535.0496,space,4.8237,,1535.0497,13,73,1536.0485,1536.0485,1536.073,,,,0,20,20,20,1,125,65,,,,,,,,
,,653b4e65dac7febe5e91cd70,65af5630f086a38d1a401828,2024-01-23_08h04.32.351,bars,2023.2.3,Win32,59.88023952,657b66ea316d21385b68909f,,,,,,,,,,,1536.0737,1537.0651,,,1537.5653,1537.8155,,153,153,,,,,,,,,,,,,,,,bars/029.png,bars/mask006.png,,,,,,,,,,,,0,1,,,,,,,6,8,6,8,,,,,,,,,,,1537.0652,1537.5651,1537.8156,1542.0172,space,4.1696,,1542.0176,63,72,1543.0162,1543.0164,1543.0426,,,,0,21,21,21,1,90,45,,,,,,,,
,,653b4e65dac7febe5e91cd70,65af5630f086a38d1a401828,2024-01-23_08h04.32.351,bars,2023.2.3,Win32,59.88023952,657b66ea316d21385b68909f,,,,,,,,,,,1543.0436,1544.0326,,,1544.5329,1544.782,,29,209,,,,,,,,,,,,,,,,bars/007.png,bars/mask005.png,,,,,,,,,,,,1,2,,,,,,,4,6,4,7,,,,,,,,,,,1544.0328,1544.5326,1544.7821,1548.3672,space,3.5542,,1548.3674,34,26,1549.3658,1549.3659,1549.3954,,,,0,22,22,22,1,175,55,,,,,,,,
,,653b4e65dac7febe5e91cd70,65af5630f086a38d1a401828,2024-01-23_08h04.32.351,bars,2023.2.3,Win32,59.88023952,657b66ea316d21385b68909f,,,,,,,,,,,1549.3961,1550.399,,,1550.8992,1551.1493,,46,46,,,,,,,,,,,,,,,,bars/025.png,bars/mask002.png,,,,,,,,,,,,3,2,,,,,,,6,4,7,4,,,,,,,,,,,1550.3991,1550.8989,1551.1495,1554.5661,space,3.3859,,1554.5663,59,6,1555.5652,1555.5653,1555.5882,,,,0,23,23,23,1,105,40,,,,,,,,
,,653b4e65dac7febe5e91cd70,65af5630f086a38d1a401828,2024-01-23_08h04.32.351,bars,2023.2.3,Win32,59.88023952,657b66ea316d21385b68909f,,,,,,,,,,,1555.5888,1556.5819,,,1557.0822,1557.3326,,42,222,,,,,,,,,,,,,,,,bars/010.png,bars/mask009.png,,,,,,,,,,,,3,2,,,,,,,4,6,4,5,,,,,,,,,,,1556.5821,1557.0821,1557.3328,1561.2827,space,3.9199,,1561.2831,57,13,1562.2818,1562.282,1562.3068,,,,0,24,24,24,1,165,55,,,,,,,,
,,653b4e65dac7febe5e91cd70,65af5630f086a38d1a401828,2024-01-23_08h04.32.351,bars,2023.2.3,Win32,59.88023952,657b66ea316d21385b68909f,,,,,,,,,,,1562.3074,1563.2984,,,1563.7986,1564.0495,,155,-25,,,,,,,,,,,,,,,,bars/049.png,bars/mask008.png,,,,,,,,,,,,4,1,,,,,,,6,8,5,7,,,,,,,,,,,1563.2985,1563.7985,1564.0497,1567.8676,space,3.7911,,1567.8678,5,40,1568.8652,1568.8655,1568.8934,,,,0,25,25,25,1,160,115,,,,,,,,
,,653b4e65dac7febe5e91cd70,65af5630f086a38d1a401828,2024-01-23_08h04.32.351,bars,2023.2.3,Win32,59.88023952,657b66ea316d21385b68909f,,,,,,,,,,,1568.894,1569.8817,,,1570.3826,1570.6325,,36,36,,,,,,,,,,,,,,,,bars/029.png,bars/mask003.png,,,,,,,,,,,,6,2,,,,,,,4,10,4,9,,,,,,,,,,,1569.8818,1570.3823,1570.6327,1572.5322,space,1.8697,,1572.5325,54,9,1573.5317,1573.5318,1573.5382,,,,0,26,26,26,1,90,45,,,,,,,,
,,653b4e65dac7febe5e91cd70,65af5630f086a38d1a401828,2024-01-23_08h04.32.351,bars,2023.2.3,Win32,59.88023952,657b66ea316d21385b68909f,,,,,,,,,,,1573.5388,1574.5322,,,1575.0316,1575.2819,,114,114,,,,,,,,,,,,,,,,bars/046.png,bars/mask007.png,,,,,,,,,,,,0,2,,,,,,,6,10,6,10,,,,,,,,,,,1574.5324,1575.0316,1575.2819,1579.7488,space,4.4522,,1579.749,41,29,1580.7489,1580.7491,1580.7722,,,,0,27,27,27,1,155,85,,,,,,,,
,,653b4e65dac7febe5e91cd70,65af5630f086a38d1a401828,2024-01-23_08h04.32.351,bars,2023.2.3,Win32,59.88023952,657b66ea316d21385b68909f,,,,,,,,,,,1580.7728,1581.7654,,,1582.266,1582.508,,53,53,,,,,,,,,,,,,,,,bars/030.png,bars/mask001.png,,,,,,,,,,,,5,2,,,,,,,4,8,4,9,,,,,,,,,,,1581.7655,1582.2658,1582.508,1584.1673,space,1.6364,,1584.1675,87,12,1585.1661,1585.1663,1585.1702,,,,0,28,28,28,1,140,65,,,,,,,,
,,653b4e65dac7febe5e91cd70,65af5630f086a38d1a401828,2024-01-23_08h04.32.351,bars,2023.2.3,Win32,59.88023952,657b66ea316d21385b68909f,,,,,,,,,,,1585.1713,1586.1663,,,1586.6657,1586.9157,,70,70,,,,,,,,,,,,,,,,bars/018.png,bars/mask003.png,,,,,,,,,,,,3,2,,,,,,,6,10,6,10,,,,,,,,,,,1586.1664,1586.6656,1586.9159,1590.2678,space,3.3248,,1590.2679,80,20,1591.2656,1591.2656,1591.2949,,,,0,29,29,29,1,150,90,,,,,,,,
,,653b4e65dac7febe5e91cd70,65af5630f086a38d1a401828,2024-01-23_08h04.32.351,bars,2023.2.3,Win32,59.88023952,657b66ea316d21385b68909f,,,,,,,,,,,1591.2956,1592.299,,,1592.8,1593.0489,,129,129,,,,,,,,,,,,,,,,bars/023.png,bars/mask006.png,,,,,,,,,,,,4,2,,,,,,,8,8,7,7,,,,,,,,,,,1592.2993,1592.7998,1593.049,1596.5661,space,3.5039,,1596.5663,71,14,1597.566,1597.5662,1597.5946,,,,0,30,30,30,1,20,115,,,,,,,,
,,653b4e65dac7febe5e91cd70,65af5630f086a38d1a401828,2024-01-23_08h04.32.351,bars,2023.2.3,Win32,59.88023952,657b66ea316d21385b68909f,,,,,,,,,,,1597.5955,1598.6,,,1599.0999,1599.3494,,76,76,,,,,,,,,,,,,,,,bars/023.png,bars/mask006.png,,,,,,,,,,,,0,2,,,,,,,10,6,10,8,,,,,,,,,,,1598.6001,1599.0996,1599.3497,1602.3838,space,3.0033,,1602.3841,56,39,1603.3821,1603.3823,1603.4112,,,,0,31,31,31,1,20,115,,,,,,,,
,,653b4e65dac7febe5e91cd70,65af5630f086a38d1a401828,2024-01-23_08h04.32.351,bars,2023.2.3,Win32,59.88023952,657b66ea316d21385b68909f,,,,,,,,,,,1603.4121,1604.4222,,,1604.9188,1605.1656,,67,67,,,,,,,,,,,,,,,,bars/034.png,bars/mask002.png,,,,,,,,,,,,7,2,,,,,,,8,8,8,8,,,,,,,,,,,1604.4223,1604.9185,1605.1658,1606.7165,space,1.5372,,1606.7167,58,2,1607.7155,1607.7157,1607.7195,,,,0,32,32,32,1,125,65,,,,,,,,
,,653b4e65dac7febe5e91cd70,65af5630f086a38d1a401828,2024-01-23_08h04.32.351,bars,2023.2.3,Win32,59.88023952,657b66ea316d21385b68909f,,,,,,,,,,,1607.7206,1608.7156,,,1609.2163,1609.4656,,156,156,,,,,,,,,,,,,,,,bars/033.png,bars/mask008.png,,,,,,,,,,,,8,2,,,,,,,6,10,6,8,,,,,,,,,,,1608.7158,1609.2161,1609.4656,1611.9839,space,2.4873,,1611.9841,49,1,1612.9824,1612.9827,1613.0078,,,,0,33,33,33,1,25,155,,,,,,,,
,,653b4e65dac7febe5e91cd70,65af5630f086a38d1a401828,2024-01-23_08h04.32.351,bars,2023.2.3,Win32,59.88023952,657b66ea316d21385b68909f,,,,,,,,,,,1613.0084,1613.9986,,,1614.4997,1614.7493,,31,31,,,,,,,,,,,,,,,,bars/041.png,bars/mask007.png,,,,,,,,,,,,2,1,,,,,,,4,10,3,8,,,,,,,,,,,1613.9987,1614.4995,1614.7497,1617.8838,space,3.1072,,1617.8841,11,54,1618.883,1618.8831,1618.914,,,,0,34,34,34,1,20,85,,,,,,,,
,,653b4e65dac7febe5e91cd70,65af5630f086a38d1a401828,2024-01-23_08h04.32.351,bars,2023.2.3,Win32,59.88023952,657b66ea316d21385b68909f,,,,,,,,,,,1618.9152,1619.9154,,,1620.416,1620.6664,,121,121,,,,,,,,,,,,,,,,bars/043.png,bars/mask004.png,,,,,,,,,,,,6,2,,,,,,,6,8,5,8,,,,,,,,,,,1619.9157,1620.4159,1620.6666,1623.7004,space,3.0047,,1623.7006,89,9,1624.6992,1624.6994,1624.7248,,,,0,35,35,35,1,30,130,,,,,,,,
,,653b4e65dac7febe5e91cd70,65af5630f086a38d1a401828,2024-01-23_08h04.32.351,bars,2023.2.3,Win32,59.88023952,657b66ea316d21385b68909f,,,,,,,,,,,1624.7255,1625.715,,,1626.2155,1626.4655,,46,46,,,,,,,,,,,,,,,,bars/031.png,bars/mask006.png,,,,,,,,,,,,6,2,,,,,,,8,10,9,10,,,,,,,,,,,1625.7151,1626.2153,1626.4655,1629.9495,space,3.4522,,1629.9496,74,11,1630.9488,1630.9491,1630.9721,,,,0,36,36,36,1,120,35,,,,,,,,
,,653b4e65dac7febe5e91cd70,65af5630f086a38d1a401828,2024-01-23_08h04.32.351,bars,2023.2.3,Win32,59.88023952,657b66ea316d21385b68909f,,,,,,,,,,,1630.9727,1631.9651,,,1632.4653,1632.7152,,120,120,,,,,,,,,,,,,,,,bars/043.png,bars/mask009.png,,,,,,,,,,,,7,2,,,,,,,10,10,10,10,,,,,,,,,,,1631.9651,1632.4652,1632.7153,1636.5988,space,3.8683,,1636.5988,90,10,1637.5988,1637.5989,1637.6229,,,,0,37,37,37,1,30,130,,,,,,,,
,,653b4e65dac7febe5e91cd70,65af5630f086a38d1a401828,2024-01-23_08h04.32.351,bars,2023.2.3,Win32,59.88023952,657b66ea316d21385b68909f,,,,,,,,,,,1637.6234,1638.6154,,,1639.1164,1639.3561,,40,40,,,,,,,,,,,,,,,,bars/004.png,bars/mask005.png,,,,,,,,,,,,4,1,,,,,,,8,10,7,10,,,,,,,,,,,1638.6154,1639.1163,1639.3562,1642.4576,space,3.0831,,1642.4577,15,85,1643.4488,1643.4489,1643.4737,,,,0,38,38,38,1,25,125,,,,,,,,
,,653b4e65dac7febe5e91cd70,65af5630f086a38d1a401828,2024-01-23_08h04.32.351,bars,2023.2.3,Win32,59.88023952,657b66ea316d21385b68909f,,,,,,,,,,,1643.4743,1644.4653,,,1644.9574,1645.199,,92,92,,,,,,,,,,,,,,,,bars/037.png,bars/mask007.png,,,,,,,,,,,,5,2,,,,,,,10,8,9,9,,,,,,,,,,,1644.4653,1644.9574,1645.1992,1646.8166,space,1.5869,,1646.8168,58,13,1647.8157,1647.8159,1647.8228,,,,0,39,39,39,1,150,105,,,,,,,,
,,653b4e65dac7febe5e91cd70,65af5630f086a38d1a401828,2024-01-23_08h04.32.351,bars,2023.2.3,Win32,59.88023952,657b66ea316d21385b68909f,,,,,,,,,,,1647.8236,1648.8156,,,1649.3149,1649.5649,,109,109,,,,,,,,,,,,,,,,bars/005.png,bars/mask005.png,,,,,,,,,,,,0,2,,,,,,,8,6,7,6,,,,,,,,,,,1648.8157,1649.3149,1649.5649,1653.2157,space,3.6313,,1653.2159,81,31,1654.2151,1654.2152,1654.2366,,,,0,40,40,40,1,10,140,,,,,,,,
,,653b4e65dac7febe5e91cd70,65af5630f086a38d1a401828,2024-01-23_08h04.32.351,bars,2023.2.3,Win32,59.88023952,657b66ea316d21385b68909f,,,,,,,,,,,1654.2372,1655.2326,,,1655.7326,1655.9823,,103,103,,,,,,,,,,,,,,,,bars/034.png,bars/mask001.png,,,,,,,,,,,,2,1,,,,,,,6,4,6,4,,,,,,,,,,,1655.2327,1655.7325,1655.9825,1658.6162,space,2.6025,,1658.6165,22,38,1659.6152,1659.6154,1659.6401,,,,0,41,41,41,1,125,65,,,,,,,,
,,653b4e65dac7febe5e91cd70,65af5630f086a38d1a401828,2024-01-23_08h04.32.351,bars,2023.2.3,Win32,59.88023952,657b66ea316d21385b68909f,,,,,,,,,,,1659.6408,1660.6318,,,1661.1323,1661.3821,,77,77,,,,,,,,,,,,,,,,bars/011.png,bars/mask006.png,,,,,,,,,,,,2,2,,,,,,,4,2,3,3,,,,,,,,,,,1660.6319,1661.1321,1661.3822,1666.666,space,5.2535,,1666.6663,83,8,1667.6649,1667.665,1667.6889,,,,0,42,42,42,1,160,85,,,,,,,,
,,653b4e65dac7febe5e91cd70,65af5630f086a38d1a401828,2024-01-23_08h04.32.351,bars,2023.2.3,Win32,59.88023952,657b66ea316d21385b68909f,,,,,,,,,,,1667.6895,1668.6815,,,1669.1816,1669.4315,,115,115,,,,,,,,,,,,,,,,bars/041.png,bars/mask007.png,,,,,,,,,,,,0,2,,,,,,,6,0,6,0,,,,,,,,,,,1668.6815,1669.1816,1669.4316,1673.2317,space,3.7837,,1673.2319,85,30,1674.2315,1674.2315,1674.2498,,,,0,43,43,43,1,20,85,,,,,,,,
,,653b4e65dac7febe5e91cd70,65af5630f086a38d1a401828,2024-01-23_08h04.32.351,bars,2023.2.3,Win32,59.88023952,657b66ea316d21385b68909f,,,,,,,,,,,1674.2503,1675.2485,,,1675.7487,1675.9868,,128,128,,,,,,,,,,,,,,,,bars/005.png,bars/mask009.png,,,,,,,,,,,,1,2,,,,,,,4,2,2,2,,,,,,,,,,,1675.2487,1675.7484,1675.9869,1680.8001,space,4.7914,,1680.8003,62,12,1681.7982,1681.7983,1681.8211,,,,0,44,44,44,1,10,140,,,,,,,,
,,653b4e65dac7febe5e91cd70,65af5630f086a38d1a401828,2024-01-23_08h04.32.351,bars,2023.2.3,Win32,59.88023952,657b66ea316d21385b68909f,,,,,,,,,,,1681.8216,1682.8153,,,1683.3159,1683.5649,,169,169,,,,,,,,,,,,,,,,bars/020.png,bars/mask005.png,,,,,,,,,,,,1,2,,,,,,,2,0,1,1,,,,,,,,,,,1682.8155,1683.3157,1683.565,1685.1993,space,1.6031,,1685.1995,54,1,1686.1988,1686.199,1686.2021,,,,0,45,45,45,1,115,170,,,,,,,,
,,653b4e65dac7febe5e91cd70,65af5630f086a38d1a401828,2024-01-23_08h04.32.351,bars,2023.2.3,Win32,59.88023952,657b66ea316d21385b68909f,,,,,,,,,,,1686.2034,1687.199,,,1687.6993,1687.9485,,170,-10,,,,,,,,,,,,,,,,bars/014.png,bars/mask008.png,,,,,,,,,,,,1,2,,,,,,,0,2,0,2,,,,,,,,,,,1687.1991,1687.6991,1687.9488,1691.4326,space,3.455,,1691.4328,90,10,1692.4324,1692.4326,1692.455,,,,0,46,46,46,1,80,0,,,,,,,,
,,653b4e65dac7febe5e91cd70,65af5630f086a38d1a401828,2024-01-23_08h04.32.351,bars,2023.2.3,Win32,59.88023952,657b66ea316d21385b68909f,,,,,,,,,,,1692.4556,1693.4485,,,1693.9484,1694.1992,,122,122,,,,,,,,,,,,,,,,bars/046.png,bars/mask005.png,,,,,,,,,,,,0,1,,,,,,,2,4,3,4,,,,,,,,,,,1693.4486,1693.9484,1694.1994,1696.6489,space,2.4351,,1696.6491,33,37,1697.6484,1697.6485,1697.674,,,,0,47,47,47,1,155,85,,,,,,,,
,,653b4e65dac7febe5e91cd70,65af5630f086a38d1a401828,2024-01-23_08h04.32.351,bars,2023.2.3,Win32,59.88023952,657b66ea316d21385b68909f,,,,,,,,,,,1697.6748,1698.665,,,1699.1653,1699.4161,,15,15,,,,,,,,,,,,,,,,bars/014.png,bars/mask007.png,,,,,,,,,,,,2,2,,,,,,,4,2,4,4,,,,,,,,,,,1698.6651,1699.1652,1699.4162,1701.3158,space,1.8726,,1701.316,65,15,1702.3151,1702.3151,1702.3212,,,,0,48,48,48,1,80,0,,,,,,,,
,,653b4e65dac7febe5e91cd70,65af5630f086a38d1a401828,2024-01-23_08h04.32.351,bars,2023.2.3,Win32,59.88023952,657b66ea316d21385b68909f,,,,,,,,,,,1702.3218,1703.3156,,,1703.8154,1704.0656,,162,-18,,,,,,,,,,,,,,,,bars/008.png,bars/mask009.png,,,,,,,,,,,,1,2,,,,,,,6,4,7,3,,,,,,,,,,,1703.3157,1703.8151,1704.0658,1709.0824,space,4.9846,,1709.0827,52,18,1710.0818,1710.0821,1710.1058,,,,0,49,49,49,1,110,0,,,,,,,,
,,653b4e65dac7febe5e91cd70,65af5630f086a38d1a401828,2024-01-23_08h04.32.351,bars,2023.2.3,Win32,59.88023952,657b66ea316d21385b68909f,,,,,,,,,,,,,,,,,,,,,,,,,,,,,,,,,,,,,,,,,,,,,,,,,,,,,,,,,,,,,,,,,,,,,,,,,,,,,,,,,,,,,,,,,,,,,1710.106,1770.0989,0,2,2,2,1,sequence_tables/blk025.csv
,,653b4e65dac7febe5e91cd70,65af5630f086a38d1a401828,2024-01-23_08h04.32.351,bars,2023.2.3,Win32,59.88023952,657b66ea316d21385b68909f,,,,,,,,,,,1778.5361,1779.5151,,,1780.016,1780.2493,,122,122,,,,,,,,,,,,,,,,bars/034.png,bars/mask002.png,,,,,,,,,,,,7,1,,,,,,,7,2,8,3,,,,,,1770.1212,1778.4984,space,8.3568,,1779.5154,1780.0159,1780.2494,1783.7324,space,3.4513,,1783.7327,3,57,1784.733,1784.7331,1784.7566,,,,0,0,0,0,1,125,65,,,,,,,,
,,653b4e65dac7febe5e91cd70,65af5630f086a38d1a401828,2024-01-23_08h04.32.351,bars,2023.2.3,Win32,59.88023952,657b66ea316d21385b68909f,,,,,,,,,,,1784.7573,1785.7484,,,1786.2481,1786.4982,,160,-20,,,,,,,,,,,,,,,,bars/033.png,bars/mask008.png,,,,,,,,,,,,4,2,,,,,,,9,4,8,5,,,,,,,,,,,1785.7485,1786.2481,1786.4982,1790.0822,space,3.564,,1790.0823,45,5,1791.0821,1791.0823,1791.1066,,,,0,1,1,1,1,25,155,,,,,,,,
,,653b4e65dac7febe5e91cd70,65af5630f086a38d1a401828,2024-01-23_08h04.32.351,bars,2023.2.3,Win32,59.88023952,657b66ea316d21385b68909f,,,,,,,,,,,1791.1073,1792.0982,,,1792.5998,1792.8486,,17,197,,,,,,,,,,,,,,,,bars/032.png,bars/mask009.png,,,,,,,,,,,,5,2,,,,,,,7,6,6,6,,,,,,,,,,,1792.0983,1792.5997,1792.8487,1797.466,space,4.5859,,1797.4662,72,3,1798.465,1798.465,1798.4875,,,,0,2,2,2,1,125,20,,,,,,,,
,,653b4e65dac7febe5e91cd70,65af5630f086a38d1a401828,2024-01-23_08h04.32.351,bars,2023.2.3,Win32,59.88023952,657b66ea316d21385b68909f,,,,,,,,,,,1798.488,1799.4819,,,1799.982,1800.2327,,109,109,,,,,,,,,,,,,,,,bars/030.png,bars/mask004.png,,,,,,,,,,,,0,1,,,,,,,5,8,6,9,,,,,,,,,,,1799.482,1799.9819,1800.2328,1801.1004,space,0.839,,1801.1005,31,44,1802.0996,1802.0998,1802.1057,,,,0,3,3,3,1,140,65,,,,,,,,
,,653b4e65dac7febe5e91cd70,65af5630f086a38d1a401828,2024-01-23_08h04.32.351,bars,2023.2.3,Win32,59.88023952,657b66ea316d21385b68909f,,,,,,,,,,,1802.1064,1803.0986,,,1803.5908,1803.8322,,13,13,,,,,,,,,,,,,,,,bars/012.png,bars/mask003.png,,,,,,,,,,,,6,2,,,,,,,3,6,2,6,,,,,,,,,,,1803.0987,1803.5907,1803.8324,1806.0488,space,2.1864,,1806.0491,77,2,1807.0482,1807.0483,1807.0737,,,,0,4,4,4,1,90,15,,,,,,,,
,,653b4e65dac7febe5e91cd70,65af5630f086a38d1a401828,2024-01-23_08h04.32.351,bars,2023.2.3,Win32,59.88023952,657b66ea316d21385b68909f,,,,,,,,,,,1807.0744,1808.065,,,1808.5653,1808.8151,,148,-32,,,,,,,,,,,,,,,,bars/015.png,bars/mask007.png,,,,,,,,,,,,3,2,,,,,,,5,4,4,5,,,,,,,,,,,1808.0651,1808.5652,1808.8153,1813.2328,space,4.3858,,1813.233,38,12,1814.2318,1814.2321,1814.2547,,,,0,5,5,5,1,110,160,,,,,,,,
,,653b4e65dac7febe5e91cd70,65af5630f086a38d1a401828,2024-01-23_08h04.32.351,bars,2023.2.3,Win32,59.88023952,657b66ea316d21385b68909f,,,,,,,,,,,1814.2553,1815.2486,,,1815.7487,1815.9989,,45,45,,,,,,,,,,,,,,,,bars/012.png,bars/mask003.png,,,,,,,,,,,,0,2,,,,,,,3,2,3,3,,,,,,,,,,,1815.2487,1815.7485,1815.9991,1818.2157,space,2.1862,,1818.216,45,30,1819.2149,1819.2149,1819.237,,,,0,6,6,6,1,90,15,,,,,,,,
,,653b4e65dac7febe5e91cd70,65af5630f086a38d1a401828,2024-01-23_08h04.32.351,bars,2023.2.3,Win32,59.88023952,657b66ea316d21385b68909f,,,,,,,,,,,1819.2375,1820.232,,,1820.732,1820.9827,,29,29,,,,,,,,,,,,,,,,bars/014.png,bars/mask006.png,,,,,,,,,,,,0,2,,,,,,,1,4,2,3,,,,,,,,,,,1820.232,1820.7319,1820.9828,1822.3164,space,1.3017,,1822.3165,51,29,1823.3153,1823.3156,1823.3193,,,,0,7,7,7,1,80,0,,,,,,,,
,,653b4e65dac7febe5e91cd70,65af5630f086a38d1a401828,2024-01-23_08h04.32.351,bars,2023.2.3,Win32,59.88023952,657b66ea316d21385b68909f,,,,,,,,,,,1823.3202,1824.3149,,,1824.8166,1825.0652,,37,37,,,,,,,,,,,,,,,,bars/035.png,bars/mask000.png,,,,,,,,,,,,1,2,,,,,,,0,2,0,3,,,,,,,,,,,1824.3152,1824.8165,1825.0654,1827.0093,space,1.9184,,1827.0094,42,23,1827.9992,1827.9993,1828.0026,,,,0,8,8,8,1,175,60,,,,,,,,
,,653b4e65dac7febe5e91cd70,65af5630f086a38d1a401828,2024-01-23_08h04.32.351,bars,2023.2.3,Win32,59.88023952,657b66ea316d21385b68909f,,,,,,,,,,,1828.0034,1828.9988,,,1829.4988,1829.7496,,82,82,,,,,,,,,,,,,,,,bars/021.png,bars/mask000.png,,,,,,,,,,,,3,2,,,,,,,0,4,0,5,,,,,,,,,,,1828.9991,1829.4987,1829.7498,1834.8492,space,5.0689,,1834.8494,73,12,1835.8484,1835.8486,1835.8712,,,,0,9,9,9,1,155,70,,,,,,,,
,,653b4e65dac7febe5e91cd70,65af5630f086a38d1a401828,2024-01-23_08h04.32.351,bars,2023.2.3,Win32,59.88023952,657b66ea316d21385b68909f,,,,,,,,,,,1835.8717,1836.8652,,,1837.366,1837.6148,,46,226,,,,,,,,,,,,,,,,bars/001.png,bars/mask001.png,,,,,,,,,,,,0,2,,,,,,,0,6,0,6,,,,,,,,,,,1836.8652,1837.3659,1837.6149,1842.4591,space,4.818,,1842.4592,84,39,1843.4486,1843.4488,1843.4713,,,,0,10,10,10,1,130,85,,,,,,,,
,,653b4e65dac7febe5e91cd70,65af5630f086a38d1a401828,2024-01-23_08h04.32.351,bars,2023.2.3,Win32,59.88023952,657b66ea316d21385b68909f,,,,,,,,,,,1843.4718,1844.4656,,,1844.9659,1845.2154,,117,117,,,,,,,,,,,,,,,,bars/018.png,bars/mask006.png,,,,,,,,,,,,1,2,,,,,,,2,8,2,8,,,,,,,,,,,1844.4657,1844.9659,1845.2155,1847.0487,space,1.8176,,1847.0488,33,27,1848.0485,1848.0485,1848.0504,,,,0,11,11,11,1,150,90,,,,,,,,
,,653b4e65dac7febe5e91cd70,65af5630f086a38d1a401828,2024-01-23_08h04.32.351,bars,2023.2.3,Win32,59.88023952,657b66ea316d21385b68909f,,,,,,,,,,,1848.0513,1849.0484,,,1849.5485,1849.7986,,11,191,,,,,,,,,,,,,,,,bars/033.png,bars/mask003.png,,,,,,,,,,,,3,1,,,,,,,4,6,5,6,,,,,,,,,,,1849.0485,1849.5484,1849.7987,1854.7655,space,4.9517,,1854.7656,14,36,1855.765,1855.7655,1855.791,,,,0,12,12,12,1,25,155,,,,,,,,
,,653b4e65dac7febe5e91cd70,65af5630f086a38d1a401828,2024-01-23_08h04.32.351,bars,2023.2.3,Win32,59.88023952,657b66ea316d21385b68909f,,,,,,,,,,,1855.7916,1856.7815,,,1857.2818,1857.5318,,124,124,,,,,,,,,,,,,,,,bars/015.png,bars/mask009.png,,,,,,,,,,,,1,1,,,,,,,2,8,1,8,,,,,,,,,,,1856.7816,1857.2817,1857.532,1861.4487,space,3.9013,,1861.4488,14,36,1862.4484,1862.4485,1862.4687,,,,0,13,13,13,1,110,160,,,,,,,,
,,653b4e65dac7febe5e91cd70,65af5630f086a38d1a401828,2024-01-23_08h04.32.351,bars,2023.2.3,Win32,59.88023952,657b66ea316d21385b68909f,,,,,,,,,,,1862.4692,1863.4651,,,1863.9652,1864.2148,,123,123,,,,,,,,,,,,,,,,bars/006.png,bars/mask005.png,,,,,,,,,,,,2,2,,,,,,,4,10,3,10,,,,,,,,,,,1863.4652,1863.9651,1864.2149,1867.2819,space,3.0512,,1867.282,88,23,1868.2816,1868.2816,1868.3032,,,,0,14,14,14,1,35,100,,,,,,,,
,,653b4e65dac7febe5e91cd70,65af5630f086a38d1a401828,2024-01-23_08h04.32.351,bars,2023.2.3,Win32,59.88023952,657b66ea316d21385b68909f,,,,,,,,,,,1868.3038,1869.2981,,,1869.7988,1870.0487,,25,25,,,,,,,,,,,,,,,,bars/024.png,bars/mask009.png,,,,,,,,,,,,0,2,,,,,,,2,10,3,9,,,,,,,,,,,1869.2982,1869.7986,1870.0488,1874.9825,space,4.9016,,1874.9826,85,35,1875.9818,1875.9819,1876.004,,,,0,15,15,15,1,120,170,,,,,,,,
,,653b4e65dac7febe5e91cd70,65af5630f086a38d1a401828,2024-01-23_08h04.32.351,bars,2023.2.3,Win32,59.88023952,657b66ea316d21385b68909f,,,,,,,,,,,1876.0045,1876.9982,,,1877.4998,1877.7485,,75,75,,,,,,,,,,,,,,,,bars/026.png,bars/mask002.png,,,,,,,,,,,,5,2,,,,,,,0,10,0,8,,,,,,,,,,,1876.9983,1877.4996,1877.7488,1880.0597,space,2.2852,,1880.0597,40,10,1881.0487,1881.0488,1881.0727,,,,0,16,16,16,1,35,85,,,,,,,,
,,653b4e65dac7febe5e91cd70,65af5630f086a38d1a401828,2024-01-23_08h04.32.351,bars,2023.2.3,Win32,59.88023952,657b66ea316d21385b68909f,,,,,,,,,,,1881.0732,1882.0649,,,1882.5654,1882.8155,,23,203,,,,,,,,,,,,,,,,bars/040.png,bars/mask004.png,,,,,,,,,,,,4,2,,,,,,,2,8,2,10,,,,,,,,,,,1882.065,1882.5652,1882.8156,1885.1991,space,2.3535,,1885.1992,63,18,1886.1988,1886.199,1886.2215,,,,0,17,17,17,1,140,5,,,,,,,,
,,653b4e65dac7febe5e91cd70,65af5630f086a38d1a401828,2024-01-23_08h04.32.351,bars,2023.2.3,Win32,59.88023952,657b66ea316d21385b68909f,,,,,,,,,,,1886.222,1887.2148,,,1887.7148,1887.9651,,138,138,,,,,,,,,,,,,,,,bars/016.png,bars/mask004.png,,,,,,,,,,,,1,2,,,,,,,4,10,5,10,,,,,,,,,,,1887.2149,1887.7147,1887.9652,1892.2819,space,4.3006,,1892.2821,82,27,1893.2819,1893.2821,1893.3048,,,,0,18,18,18,1,40,165,,,,,,,,
,,653b4e65dac7febe5e91cd70,65af5630f086a38d1a401828,2024-01-23_08h04.32.351,bars,2023.2.3,Win32,59.88023952,657b66ea316d21385b68909f,,,,,,,,,,,1893.3054,1894.2981,,,1894.7988,1895.0489,,59,59,,,,,,,,,,,,,,,,bars/011.png,bars/mask009.png,,,,,,,,,,,,1,2,,,,,,,6,10,5,10,,,,,,,,,,,1894.2982,1894.7988,1895.049,1898.7483,space,3.6867,,1898.7484,79,26,1899.749,1899.749,1899.7722,,,,0,19,19,19,1,160,85,,,,,,,,
,,653b4e65dac7febe5e91cd70,65af5630f086a38d1a401828,2024-01-23_08h04.32.351,bars,2023.2.3,Win32,59.88023952,657b66ea316d21385b68909f,,,,,,,,,,,1899.7728,1900.7646,,,1901.2647,1901.5147,,114,114,,,,,,,,,,,,,,,,bars/009.png,bars/mask002.png,,,,,,,,,,,,7,2,,,,,,,8,10,9,10,,,,,,,,,,,1900.7647,1901.2647,1901.5148,1905.165,space,3.6357,,1905.1652,81,9,1906.1646,1906.1647,1906.1881,,,,0,20,20,20,1,15,105,,,,,,,,
,,653b4e65dac7febe5e91cd70,65af5630f086a38d1a401828,2024-01-23_08h04.32.351,bars,2023.2.3,Win32,59.88023952,657b66ea316d21385b68909f,,,,,,,,,,,1906.1888,1907.1814,,,1907.6818,1907.9316,,15,15,,,,,,,,,,,,,,,,bars/040.png,bars/mask002.png,,,,,,,,,,,,7,2,,,,,,,6,8,6,10,,,,,,,,,,,1907.1815,1907.6817,1907.9316,1912.7486,space,4.8012,,1912.7487,55,10,1913.7483,1913.7483,1913.7724,,,,0,21,21,21,1,140,5,,,,,,,,
,,653b4e65dac7febe5e91cd70,65af5630f086a38d1a401828,2024-01-23_08h04.32.351,bars,2023.2.3,Win32,59.88023952,657b66ea316d21385b68909f,,,,,,,,,,,1913.7729,1914.7646,,,1915.265,1915.5149,,73,73,,,,,,,,,,,,,,,,bars/011.png,bars/mask001.png,,,,,,,,,,,,3,2,,,,,,,4,6,6,5,,,,,,,,,,,1914.7648,1915.2649,1915.515,1920.9649,space,5.4358,,1920.965,87,12,1921.9661,1921.9663,1921.9882,,,,0,22,22,22,1,160,85,,,,,,,,
,,653b4e65dac7febe5e91cd70,65af5630f086a38d1a401828,2024-01-23_08h04.32.351,bars,2023.2.3,Win32,59.88023952,657b66ea316d21385b68909f,,,,,,,,,,,1921.9886,1922.9818,,,1923.488,1923.7317,,33,213,,,,,,,,,,,,,,,,bars/040.png,bars/mask008.png,,,,,,,,,,,,1,2,,,,,,,2,8,2,8,,,,,,,,,,,1922.9819,1923.4879,1923.7319,1928.8588,space,5.1013,,1928.8589,73,28,1929.8482,1929.8484,1929.871,,,,0,23,23,23,1,140,5,,,,,,,,
,,653b4e65dac7febe5e91cd70,65af5630f086a38d1a401828,2024-01-23_08h04.32.351,bars,2023.2.3,Win32,59.88023952,657b66ea316d21385b68909f,,,,,,,,,,,1929.8714,1930.8657,,,1931.3652,1931.6153,,109,109,,,,,,,,,,,,,,,,bars/039.png,bars/mask008.png,,,,,,,,,,,,9,2,,,,,,,4,10,4,10,,,,,,,,,,,1930.8658,1931.3651,1931.6155,1937.1751,space,5.5342,,1937.1753,66,4,1938.1648,1938.1649,1938.1874,,,,0,24,24,24,1,175,105,,,,,,,,
,,653b4e65dac7febe5e91cd70,65af5630f086a38d1a401828,2024-01-23_08h04.32.351,bars,2023.2.3,Win32,59.88023952,657b66ea316d21385b68909f,,,,,,,,,,,1938.1879,1939.1817,,,1939.6817,1939.932,,65,65,,,,,,,,,,,,,,,,bars/035.png,bars/mask003.png,,,,,,,,,,,,6,2,,,,,,,2,8,3,7,,,,,,,,,,,1939.1819,1939.6816,1939.9322,1943.3153,space,3.3567,,1943.3154,70,5,1944.3147,1944.3151,1944.3379,,,,0,25,25,25,1,175,60,,,,,,,,
,,653b4e65dac7febe5e91cd70,65af5630f086a38d1a401828,2024-01-23_08h04.32.351,bars,2023.2.3,Win32,59.88023952,657b66ea316d21385b68909f,,,,,,,,,,,1944.3384,1945.3322,,,1945.8322,1946.0817,,119,119,,,,,,,,,,,,,,,,bars/026.png,bars/mask000.png,,,,,,,,,,,,0,2,,,,,,,0,10,0,10,,,,,,,,,,,1945.3322,1945.8318,1946.0818,1949.382,space,3.273,,1949.3823,84,34,1950.3817,1950.3818,1950.404,,,,0,26,26,26,1,35,85,,,,,,,,
,,653b4e65dac7febe5e91cd70,65af5630f086a38d1a401828,2024-01-23_08h04.32.351,bars,2023.2.3,Win32,59.88023952,657b66ea316d21385b68909f,,,,,,,,,,,1950.4045,1951.3984,,,1951.8987,1952.1486,,147,147,,,,,,,,,,,,,,,,bars/020.png,bars/mask007.png,,,,,,,,,,,,2,2,,,,,,,2,10,2,10,,,,,,,,,,,1951.3986,1951.8985,1952.1488,1955.4746,space,3.3009,,1955.4747,32,23,1956.4659,1956.4662,1956.4875,,,,0,27,27,27,1,115,170,,,,,,,,
,,653b4e65dac7febe5e91cd70,65af5630f086a38d1a401828,2024-01-23_08h04.32.351,bars,2023.2.3,Win32,59.88023952,657b66ea316d21385b68909f,,,,,,,,,,,1956.488,1957.4818,,,1957.9821,1958.2317,,79,79,,,,,,,,,,,,,,,,bars/009.png,bars/mask009.png,,,,,,,,,,,,1,2,,,,,,,0,10,1,10,,,,,,,,,,,1957.482,1957.9819,1958.232,1962.1658,space,3.9025,,1962.1661,64,26,1963.1646,1963.1647,1963.1874,,,,0,28,28,28,1,15,105,,,,,,,,
,,653b4e65dac7febe5e91cd70,65af5630f086a38d1a401828,2024-01-23_08h04.32.351,bars,2023.2.3,Win32,59.88023952,657b66ea316d21385b68909f,,,,,,,,,,,1963.1879,1964.1817,,,1964.6817,1964.9317,,61,61,,,,,,,,,,,,,,,,bars/026.png,bars/mask002.png,,,,,,,,,,,,2,2,,,,,,,0,8,2,8,,,,,,,,,,,1964.1818,1964.6817,1964.932,1970.1987,space,5.2365,,1970.1989,26,24,1971.1983,1971.1986,1971.2229,,,,0,29,29,29,1,35,85,,,,,,,,
,,653b4e65dac7febe5e91cd70,65af5630f086a38d1a401828,2024-01-23_08h04.32.351,bars,2023.2.3,Win32,59.88023952,657b66ea316d21385b68909f,,,,,,,,,,,1971.2235,1972.2143,,,1972.7153,1972.9661,,75,75,,,,,,,,,,,,,,,,bars/042.png,bars/mask000.png,,,,,,,,,,,,10,2,,,,,,,0,10,0,10,,,,,,,,,,,1972.2144,1972.7151,1972.9662,1977.5491,space,4.5523,,1977.5493,70,0,1978.5485,1978.5487,1978.5714,,,,0,30,30,30,1,145,75,,,,,,,,
,,653b4e65dac7febe5e91cd70,65af5630f086a38d1a401828,2024-01-23_08h04.32.351,bars,2023.2.3,Win32,59.88023952,657b66ea316d21385b68909f,,,,,,,,,,,1978.5719,1979.5647,,,1980.0652,1980.3151,,40,220,,,,,,,,,,,,,,,,bars/029.png,bars/mask006.png,,,,,,,,,,,,8,2,,,,,,,0,10,0,9,,,,,,,,,,,1979.5648,1980.0652,1980.3152,1986.3153,space,5.9847,,1986.3154,50,5,1987.3151,1987.3151,1987.339,,,,0,31,31,31,1,90,45,,,,,,,,
,,653b4e65dac7febe5e91cd70,65af5630f086a38d1a401828,2024-01-23_08h04.32.351,bars,2023.2.3,Win32,59.88023952,657b66ea316d21385b68909f,,,,,,,,,,,1987.3394,1988.3314,,,1988.8323,1989.0817,,48,228,,,,,,,,,,,,,,,,bars/031.png,bars/mask001.png,,,,,,,,,,,,5,2,,,,,,,0,8,0,8,,,,,,,,,,,1988.3315,1988.8321,1989.0818,1992.4986,space,3.3894,,1992.4987,72,13,1993.4981,1993.4983,1993.5206,,,,0,32,32,32,1,120,35,,,,,,,,
,,653b4e65dac7febe5e91cd70,65af5630f086a38d1a401828,2024-01-23_08h04.32.351,bars,2023.2.3,Win32,59.88023952,657b66ea316d21385b68909f,,,,,,,,,,,1993.5211,1994.5153,,,1995.0148,1995.2648,,39,219,,,,,,,,,,,,,,,,bars/030.png,bars/mask004.png,,,,,,,,,,,,1,2,,,,,,,0,6,0,6,,,,,,,,,,,1994.5156,1995.0147,1995.265,1999.6322,space,4.3351,,1999.6324,79,26,2000.6312,2000.6313,2000.6539,,,,0,33,33,33,1,140,65,,,,,,,,
,,653b4e65dac7febe5e91cd70,65af5630f086a38d1a401828,2024-01-23_08h04.32.351,bars,2023.2.3,Win32,59.88023952,657b66ea316d21385b68909f,,,,,,,,,,,2000.6544,2001.6483,,,2002.1484,2002.3997,,51,231,,,,,,,,,,,,,,,,bars/047.png,bars/mask002.png,,,,,,,,,,,,1,2,,,,,,,0,4,0,3,,,,,,,,,,,2001.6484,2002.1483,2002.3998,2007.0487,space,4.621,,2007.0489,36,19,2008.0482,2008.0484,2008.0703,,,,0,34,34,34,1,15,70,,,,,,,,
,,653b4e65dac7febe5e91cd70,65af5630f086a38d1a401828,2024-01-23_08h04.32.351,bars,2023.2.3,Win32,59.88023952,657b66ea316d21385b68909f,,,,,,,,,,,2008.0709,2009.0656,,,2009.5651,2009.8147,,60,60,,,,,,,,,,,,,,,,bars/007.png,bars/mask002.png,,,,,,,,,,,,1,2,,,,,,,2,2,4,1,,,,,,,,,,,2009.0659,2009.565,2009.8148,2017.082,space,7.2391,,2017.0822,65,5,2018.0817,2018.082,2018.1054,,,,0,35,35,35,1,175,55,,,,,,,,
,,653b4e65dac7febe5e91cd70,65af5630f086a38d1a401828,2024-01-23_08h04.32.351,bars,2023.2.3,Win32,59.88023952,657b66ea316d21385b68909f,,,,,,,,,,,2018.1058,2019.0983,,,2019.5985,2019.8488,,51,51,,,,,,,,,,,,,,,,bars/025.png,bars/mask001.png,,,,,,,,,,,,0,2,,,,,,,0,0,2,0,,,,,,,,,,,2019.0983,2019.5985,2019.8489,2023.1319,space,3.2672,,2023.132,54,11,2024.1313,2024.1313,2024.1524,,,,0,36,36,36,1,105,40,,,,,,,,
,,653b4e65dac7febe5e91cd70,65af5630f086a38d1a401828,2024-01-23_08h04.32.351,bars,2023.2.3,Win32,59.88023952,657b66ea316d21385b68909f,,,,,,,,,,,2024.1534,2025.1485,,,2025.6486,2025.8981,,44,44,,,,,,,,,,,,,,,,bars/026.png,bars/mask000.png,,,,,,,,,,,,0,1,,,,,,,0,2,0,1,,,,,,,,,,,2025.1486,2025.6484,2025.8982,2031.0821,space,5.1689,,2031.0822,9,41,2032.0814,2032.0815,2032.1077,,,,0,37,37,37,1,35,85,,,,,,,,
,,653b4e65dac7febe5e91cd70,65af5630f086a38d1a401828,2024-01-23_08h04.32.351,bars,2023.2.3,Win32,59.88023952,657b66ea316d21385b68909f,,,,,,,,,,,2032.1083,2033.0983,,,2033.5987,2033.8483,,42,222,,,,,,,,,,,,,,,,bars/041.png,bars/mask009.png,,,,,,,,,,,,1,1,,,,,,,2,4,3,2,,,,,,,,,,,2033.0983,2033.5984,2033.8485,2037.7146,space,3.8405,,2037.7147,22,43,2038.7157,2038.7159,2038.7379,,,,0,38,38,38,1,20,85,,,,,,,,
,,653b4e65dac7febe5e91cd70,65af5630f086a38d1a401828,2024-01-23_08h04.32.351,bars,2023.2.3,Win32,59.88023952,657b66ea316d21385b68909f,,,,,,,,,,,2038.7384,2039.7327,,,2040.2328,2040.4817,,124,124,,,,,,,,,,,,,,,,bars/037.png,bars/mask000.png,,,,,,,,,,,,0,2,,,,,,,4,2,3,1,,,,,,,,,,,2039.7327,2040.2326,2040.4819,2044.9254,space,4.4177,,2044.9256,26,19,2045.9145,2045.9145,2045.9394,,,,0,39,39,39,1,150,105,,,,,,,,
,,653b4e65dac7febe5e91cd70,65af5630f086a38d1a401828,2024-01-23_08h04.32.351,bars,2023.2.3,Win32,59.88023952,657b66ea316d21385b68909f,,,,,,,,,,,2045.94,2046.9312,,,2047.4318,2047.6827,,30,30,,,,,,,,,,,,,,,,bars/005.png,bars/mask004.png,,,,,,,,,,,,2,1,,,,,,,6,0,5,0,,,,,,,,,,,2046.9313,2047.4315,2047.6829,2050.0998,space,2.3852,,2050.1,20,70,2051.0981,2051.0982,2051.1045,,,,0,40,40,40,1,10,140,,,,,,,,
,,653b4e65dac7febe5e91cd70,65af5630f086a38d1a401828,2024-01-23_08h04.32.351,bars,2023.2.3,Win32,59.88023952,657b66ea316d21385b68909f,,,,,,,,,,,2051.1052,2052.0981,,,2052.5991,2052.8493,,159,-21,,,,,,,,,,,,,,,,bars/040.png,bars/mask009.png,,,,,,,,,,,,4,1,,,,,,,8,2,10,3,,,,,,,,,,,2052.0983,2052.5988,2052.8494,2056.2211,space,3.3471,,2056.2211,19,26,2057.2147,2057.2149,2057.2376,,,,0,41,41,41,1,140,5,,,,,,,,
,,653b4e65dac7febe5e91cd70,65af5630f086a38d1a401828,2024-01-23_08h04.32.351,bars,2023.2.3,Win32,59.88023952,657b66ea316d21385b68909f,,,,,,,,,,,2057.2382,2058.2316,,,2058.7315,2058.9812,,152,152,,,,,,,,,,,,,,,,bars/045.png,bars/mask005.png,,,,,,,,,,,,0,2,,,,,,,6,4,7,4,,,,,,,,,,,2058.2318,2058.7314,2058.9813,2062.2817,space,3.2812,,2062.2819,52,38,2063.2812,2063.2813,2063.3029,,,,0,42,42,42,1,100,10,,,,,,,,
,,653b4e65dac7febe5e91cd70,65af5630f086a38d1a401828,2024-01-23_08h04.32.351,bars,2023.2.3,Win32,59.88023952,657b66ea316d21385b68909f,,,,,,,,,,,2063.3035,2064.2988,,,2064.7982,2065.0492,,45,45,,,,,,,,,,,,,,,,bars/028.png,bars/mask008.png,,,,,,,,,,,,4,1,,,,,,,4,6,4,6,,,,,,,,,,,2064.2991,2064.7981,2065.0493,2066.8654,space,1.7898,,2066.8657,0,75,2067.8652,2067.8654,2067.8893,,,,0,43,43,43,1,45,120,,,,,,,,
,,653b4e65dac7febe5e91cd70,65af5630f086a38d1a401828,2024-01-23_08h04.32.351,bars,2023.2.3,Win32,59.88023952,657b66ea316d21385b68909f,,,,,,,,,,,2067.8898,2068.8811,,,2069.3819,2069.6318,,95,95,,,,,,,,,,,,,,,,bars/023.png,bars/mask002.png,,,,,,,,,,,,3,2,,,,,,,6,8,5,9,,,,,,,,,,,2068.8812,2069.3818,2069.632,2070.8155,space,1.1518,,2070.8157,75,20,2071.8158,2071.816,2071.8217,,,,0,44,44,44,1,20,115,,,,,,,,
,,653b4e65dac7febe5e91cd70,65af5630f086a38d1a401828,2024-01-23_08h04.32.351,bars,2023.2.3,Win32,59.88023952,657b66ea316d21385b68909f,,,,,,,,,,,2071.8223,2072.8147,,,2073.3155,2073.5579,,15,15,,,,,,,,,,,,,,,,bars/032.png,bars/mask006.png,,,,,,,,,,,,8,2,,,,,,,8,10,7,10,,,,,,,,,,,2072.8148,2073.3153,2073.558,2075.6997,space,2.1223,,2075.7,70,5,2076.699,2076.6992,2076.7215,,,,0,45,45,45,1,125,20,,,,,,,,
,,653b4e65dac7febe5e91cd70,65af5630f086a38d1a401828,2024-01-23_08h04.32.351,bars,2023.2.3,Win32,59.88023952,657b66ea316d21385b68909f,,,,,,,,,,,2076.7219,2077.7146,,,2078.2145,2078.4645,,118,118,,,,,,,,,,,,,,,,bars/015.png,bars/mask009.png,,,,,,,,,,,,4,1,,,,,,,6,8,5,9,,,,,,,,,,,2077.7148,2078.2144,2078.4645,2080.9985,space,2.5187,,2080.9986,8,42,2081.9983,2081.9983,2082.0241,,,,0,46,46,46,1,110,160,,,,,,,,
,,653b4e65dac7febe5e91cd70,65af5630f086a38d1a401828,2024-01-23_08h04.32.351,bars,2023.2.3,Win32,59.88023952,657b66ea316d21385b68909f,,,,,,,,,,,2082.0247,2083.0144,,,2083.5145,2083.7645,,62,62,,,,,,,,,,,,,,,,bars/029.png,bars/mask008.png,,,,,,,,,,,,3,2,,,,,,,4,6,3,7,,,,,,,,,,,2083.0146,2083.5143,2083.7645,2086.8822,space,3.1062,,2086.8823,28,17,2087.8814,2087.8814,2087.9044,,,,0,47,47,47,1,90,45,,,,,,,,
,,653b4e65dac7febe5e91cd70,65af5630f086a38d1a401828,2024-01-23_08h04.32.351,bars,2023.2.3,Win32,59.88023952,657b66ea316d21385b68909f,,,,,,,,,,,2087.9049,2088.8977,,,2089.3984,2089.648,,73,73,,,,,,,,,,,,,,,,bars/027.png,bars/mask001.png,,,,,,,,,,,,2,2,,,,,,,6,8,3,8,,,,,,,,,,,2088.8978,2089.3983,2089.6482,2097.5654,space,7.9031,,2097.5655,37,23,2098.5643,2098.5644,2098.5888,,,,0,48,48,48,1,110,50,,,,,,,,
,,653b4e65dac7febe5e91cd70,65af5630f086a38d1a401828,2024-01-23_08h04.32.351,bars,2023.2.3,Win32,59.88023952,657b66ea316d21385b68909f,,,,,,,,,,,2098.5892,2099.5814,,,2100.0816,2100.3315,,51,51,,,,,,,,,,,,,,,,bars/029.png,bars/mask006.png,,,,,,,,,,,,8,2,,,,,,,4,10,4,10,,,,,,,,,,,2099.5815,2100.0815,2100.3316,2103.2147,space,2.8678,,2103.2149,39,6,2104.2143,2104.2144,2104.2361,,,,0,49,49,49,1,90,45,,,,,,,,
,,653b4e65dac7febe5e91cd70,65af5630f086a38d1a401828,2024-01-23_08h04.32.351,bars,2023.2.3,Win32,59.88023952,657b66ea316d21385b68909f,,,,,,,,,,,,,,,,,,,,,,,,,,,,,,,,,,,,,,,,,,,,,,,,,,,,,,,,,,,,,,,,,,,,,,,,,,,,,,,,,,,,,,,,,,,,,2104.2366,2164.2313,0,3,3,3,1,sequence_tables/blk010.csv
,,653b4e65dac7febe5e91cd70,65af5630f086a38d1a401828,2024-01-23_08h04.32.351,bars,2023.2.3,Win32,59.88023952,657b66ea316d21385b68909f,,,,,,,,,,,2172.9837,2173.9642,,,2174.4645,2174.7149,,24,204,,,,,,,,,,,,,,,,bars/047.png,bars/mask002.png,,,,,,,,,,,,4,1,,,,,,,5,1,6,1,,,,,,2164.2555,2172.9497,space,8.6766,,2173.9643,2174.4643,2174.7151,2178.5819,space,3.8358,,2178.5822,9,46,2179.5812,2179.5815,2179.6062,,,,0,0,0,0,1,15,70,,,,,,,,
,,653b4e65dac7febe5e91cd70,65af5630f086a38d1a401828,2024-01-23_08h04.32.351,bars,2023.2.3,Win32,59.88023952,657b66ea316d21385b68909f,,,,,,,,,,,2179.6069,2180.5979,,,2181.098,2181.3481,,30,210,,,,,,,,,,,,,,,,bars/025.png,bars/mask002.png,,,,,,,,,,,,0,2,,,,,,,3,0,3,0,,,,,,,,,,,2180.598,2181.0978,2181.3481,2185.0981,space,3.7345,,2185.0983,75,10,2186.0979,2186.098,2186.1207,,,,0,1,1,1,1,105,40,,,,,,,,
,,653b4e65dac7febe5e91cd70,65af5630f086a38d1a401828,2024-01-23_08h04.32.351,bars,2023.2.3,Win32,59.88023952,657b66ea316d21385b68909f,,,,,,,,,,,2186.1212,2187.1143,,,2187.6148,2187.8645,,69,69,,,,,,,,,,,,,,,,bars/012.png,bars/mask007.png,,,,,,,,,,,,1,1,,,,,,,5,0,4,1,,,,,,,,,,,2187.1144,2187.6147,2187.8645,2189.3322,space,1.4508,,2189.3323,21,54,2190.3308,2190.331,2190.3568,,,,0,2,2,2,1,90,15,,,,,,,,
,,653b4e65dac7febe5e91cd70,65af5630f086a38d1a401828,2024-01-23_08h04.32.351,bars,2023.2.3,Win32,59.88023952,657b66ea316d21385b68909f,,,,,,,,,,,2190.3573,2191.3479,,,2191.8476,2192.0979,,139,139,,,,,,,,,,,,,,,,bars/045.png,bars/mask005.png,,,,,,,,,,,,0,1,,,,,,,3,0,3,2,,,,,,,,,,,2191.348,2191.8475,2192.0979,2194.0643,space,1.951,,2194.0645,39,51,2195.0641,2195.0642,2195.0848,,,,0,3,3,3,1,100,10,,,,,,,,
,,653b4e65dac7febe5e91cd70,65af5630f086a38d1a401828,2024-01-23_08h04.32.351,bars,2023.2.3,Win32,59.88023952,657b66ea316d21385b68909f,,,,,,,,,,,2195.0854,2196.0816,,,2196.5815,2196.8312,,128,128,,,,,,,,,,,,,,,,bars/034.png,bars/mask003.png,,,,,,,,,,,,2,1,,,,,,,1,0,2,1,,,,,,,,,,,2196.0818,2196.5813,2196.8313,2198.9645,space,2.1036,,2198.9647,3,63,2199.9643,2199.9643,2199.9671,,,,0,4,4,4,1,125,65,,,,,,,,
,,653b4e65dac7febe5e91cd70,65af5630f086a38d1a401828,2024-01-23_08h04.32.351,bars,2023.2.3,Win32,59.88023952,657b66ea316d21385b68909f,,,,,,,,,,,2199.9683,2200.9641,,,2201.4643,2201.7148,,64,64,,,,,,,,,,,,,,,,bars/000.png,bars/mask005.png,,,,,,,,,,,,0,1,,,,,,,0,2,0,2,,,,,,,,,,,2200.9643,2201.4641,2201.715,2203.5257,space,1.7852,,2203.5257,24,81,2204.5145,2204.5149,2204.5373,,,,0,5,5,5,1,40,145,,,,,,,,
,,653b4e65dac7febe5e91cd70,65af5630f086a38d1a401828,2024-01-23_08h04.32.351,bars,2023.2.3,Win32,59.88023952,657b66ea316d21385b68909f,,,,,,,,,,,2204.5379,2205.5313,,,2206.0317,2206.2816,,139,-41,,,,,,,,,,,,,,,,bars/024.png,bars/mask002.png,,,,,,,,,,,,1,1,,,,,,,0,0,2,0,,,,,,,,,,,2205.5314,2206.0317,2206.2818,2209.5484,space,3.2511,,2209.5486,19,31,2210.5475,2210.5477,2210.5696,,,,0,6,6,6,1,120,170,,,,,,,,
,,653b4e65dac7febe5e91cd70,65af5630f086a38d1a401828,2024-01-23_08h04.32.351,bars,2023.2.3,Win32,59.88023952,657b66ea316d21385b68909f,,,,,,,,,,,2210.5702,2211.5644,,,2212.0645,2212.3144,,61,61,,,,,,,,,,,,,,,,bars/049.png,bars/mask002.png,,,,,,,,,,,,0,2,,,,,,,0,2,0,3,,,,,,,,,,,2211.5645,2212.0644,2212.3146,2213.8323,space,1.5074,,2213.8324,81,54,2214.8311,2214.8313,2214.8556,,,,0,7,7,7,1,160,115,,,,,,,,
,,653b4e65dac7febe5e91cd70,65af5630f086a38d1a401828,2024-01-23_08h04.32.351,bars,2023.2.3,Win32,59.88023952,657b66ea316d21385b68909f,,,,,,,,,,,2214.8562,2215.848,,,2216.3481,2216.5981,,132,132,,,,,,,,,,,,,,,,bars/017.png,bars/mask003.png,,,,,,,,,,,,1,1,,,,,,,0,0,1,0,,,,,,,,,,,2215.8481,2216.348,2216.5983,2218.8255,space,2.2014,,2218.8255,13,87,2219.8141,2219.8142,2219.8361,,,,0,8,8,8,1,145,45,,,,,,,,
,,653b4e65dac7febe5e91cd70,65af5630f086a38d1a401828,2024-01-23_08h04.32.351,bars,2023.2.3,Win32,59.88023952,657b66ea316d21385b68909f,,,,,,,,,,,2219.8366,2220.8325,,,2221.3325,2221.5812,,125,125,,,,,,,,,,,,,,,,bars/037.png,bars/mask005.png,,,,,,,,,,,,0,2,,,,,,,2,0,4,1,,,,,,,,,,,2220.8327,2221.3323,2221.5815,2223.4489,space,1.8364,,2223.4491,25,20,2224.4481,2224.4483,2224.454,,,,0,9,9,9,1,150,105,,,,,,,,
,,653b4e65dac7febe5e91cd70,65af5630f086a38d1a401828,2024-01-23_08h04.32.351,bars,2023.2.3,Win32,59.88023952,657b66ea316d21385b68909f,,,,,,,,,,,2224.4546,2225.449,,,2225.9481,2226.198,,37,37,,,,,,,,,,,,,,,,bars/007.png,bars/mask002.png,,,,,,,,,,,,0,2,,,,,,,4,0,3,0,,,,,,,,,,,2225.4492,2225.948,2226.1982,2227.8246,space,1.6004,,2227.8246,42,18,2228.8151,2228.8152,2228.837,,,,0,10,10,10,1,175,55,,,,,,,,
