init_variables.started,init_variables.stopped,participant,session,date,expName,psychopyVersion,OS,frameRate,study_id,instruction_exp.started,instruction_exp.stopped,key_resp_8.keys,key_resp_8.rt,key_resp_8.duration,instruction_single.started,instruction_single.stopped,key_resp_2.keys,key_resp_2.rt,key_resp_2.duration,interval.started,interval.stopped,cue_single.started,cue_single.stopped,mask.started,mask.stopped,ori_response_single.started,res_ori,res,ori_response_single.stopped,key_resp_single.keys,key_resp_single.rt,key_resp_single.duration,disp_single.started,disp_single.stopped,key_resp.keys,key_resp.rt,key_resp.duration,single.thisRepN,single.thisTrialN,single.thisN,single.thisIndex,single.ran,ori,path,mask_path,instruction_bandit.started,instruction_bandit.stopped,key_resp_6.keys,key_resp_6.rt,key_resp_6.duration,cue_bandit.started,cue_bandit.stopped,bandit_res.keys,bandit_res.rt,bandit_res.duration,outcome_bandit.started,rew,action,outcome_bandit.stopped,bandit.thisRepN,bandit.thisTrialN,bandit.thisN,bandit.thisIndex,bandit.ran,actual_rew1,actual_rew2,rew1,rew2,instruction_task.started,instruction_task.stopped,key_resp_7.keys,key_resp_7.rt,key_resp_7.duration,wait_ready.started,wait_ready.stopped,key_resp_3.keys,key_resp_3.rt,key_resp_3.duration,cue.started,cue.stopped,ori_response.started,ori_response.stopped,key_resp_5.keys,key_resp_5.rt,key_resp_5.duration,outcome.started,diff1,diff2,outcome.stopped,disp_outcome_practice.started,disp_outcome_practice.stopped,key_resp_4.keys,key_resp_4.rt,key_resp_4.duration,trials.thisRepN,trials.thisTrialN,trials.thisN,trials.thisIndex,trials.ran,ori1,ori2,break_blk.started,break_blk.stopped,block.thisRepN,block.thisTrialN,block.thisN,block.thisIndex,block.ran,condition_file
0.0002,0.0003,6159d36b31fe01e003282538,65af568a91bb652b9495bacd,2024-01-23_08h04.51.677,bars,2023.2.3,Win32,58.82352941,657b66ea316d21385b68909f,,,,,,,,,,,,,,,,,,,,,,,,,,,,,,,,,,,,,,,,,,,,,,,,,,,,,,,,,,,,,,,,,,,,,,,,,,,,,,,,,,,,,,,,,,,,,,,,,,,,
,,6159d36b31fe01e003282538,65af568a91bb652b9495bacd,2024-01-23_08h04.51.677,bars,2023.2.3,Win32,58.82352941,657b66ea316d21385b68909f,0.0004,13.892,y,13.8759,,,,,,,,,,,,,,,,,,,,,,,,,,,,,,,,,,,,,,,,,,,,,,,,,,,,,,,,,,,,,,,,,,,,,,,,,,,,,,,,,,,,,,,,,,,,,,,,
,,6159d36b31fe01e003282538,65af568a91bb652b9495bacd,2024-01-23_08h04.51.677,bars,2023.2.3,Win32,58.82352941,657b66ea316d21385b68909f,,,,,,13.8922,25.4754,space,11.5543,,,,,,,,,,,,,,,,,,,,,,,,,,,,,,,,,,,,,,,,,,,,,,,,,,,,,,,,,,,,,,,,,,,,,,,,,,,,,,,,,,,,,,,,,,,
,,6159d36b31fe01e003282538,65af568a91bb652b9495bacd,2024-01-23_08h04.51.677,bars,2023.2.3,Win32,58.82352941,657b66ea316d21385b68909f,,,,,,,,,,,25.4801,26.4795,26.4796,26.9798,26.9799,27.23,27.2301,71,71,36.0089,space,8.7496,,36.009,42.675,space,6.6375,,0,0,0,8,1,160,bars/single008.png,bars/mask004.png,,,,,,,,,,,,,,,,,,,,,,,,,,,,,,,,,,,,,,,,,,,,,,,,,,,,,,,,,,,,,,,,
,,6159d36b31fe01e003282538,65af568a91bb652b9495bacd,2024-01-23_08h04.51.677,bars,2023.2.3,Win32,58.82352941,657b66ea316d21385b68909f,,,,,,,,,,,42.6824,43.6747,43.6748,44.1749,44.1749,44.4132,44.4132,7,187,61.5417,space,17.1017,,61.5417,64.2965,space,2.7334,,0,1,1,0,1,150,bars/single000.png,bars/mask006.png,,,,,,,,,,,,,,,,,,,,,,,,,,,,,,,,,,,,,,,,,,,,,,,,,,,,,,,,,,,,,,,,
,,6159d36b31fe01e003282538,65af568a91bb652b9495bacd,2024-01-23_08h04.51.677,bars,2023.2.3,Win32,58.82352941,657b66ea316d21385b68909f,,,,,,,,,,,64.2969,65.2966,65.2966,65.7918,65.7918,66.0299,66.0299,166,-14,74.3798,space,8.3337,,74.3798,83.5251,space,9.1208,,0,2,2,2,1,145,bars/single002.png,bars/mask003.png,,,,,,,,,,,,,,,,,,,,,,,,,,,,,,,,,,,,,,,,,,,,,,,,,,,,,,,,,,,,,,,,
,,6159d36b31fe01e003282538,65af568a91bb652b9495bacd,2024-01-23_08h04.51.677,bars,2023.2.3,Win32,58.82352941,657b66ea316d21385b68909f,,,,,,,,,,,83.5321,84.5247,84.5247,85.0251,85.0251,85.263,85.2631,137,-43,92.6417,space,7.3561,,92.6418,96.5748,space,3.9005,,0,3,3,7,1,45,bars/single007.png,bars/mask009.png,,,,,,,,,,,,,,,,,,,,,,,,,,,,,,,,,,,,,,,,,,,,,,,,,,,,,,,,,,,,,,,,
,,6159d36b31fe01e003282538,65af568a91bb652b9495bacd,2024-01-23_08h04.51.677,bars,2023.2.3,Win32,58.82352941,657b66ea316d21385b68909f,,,,,,,,,,,96.575,97.5748,97.5748,98.075,98.075,98.325,98.3251,144,144,102.725,space,4.3934,,102.7251,107.8084,space,5.0573,,0,4,4,4,1,95,bars/single004.png,bars/mask004.png,,,,,,,,,,,,,,,,,,,,,,,,,,,,,,,,,,,,,,,,,,,,,,,,,,,,,,,,,,,,,,,,
,,6159d36b31fe01e003282538,65af568a91bb652b9495bacd,2024-01-23_08h04.51.677,bars,2023.2.3,Win32,58.82352941,657b66ea316d21385b68909f,,,,,,,,,,,107.8156,108.8081,108.8081,109.3128,109.3129,109.5583,109.5584,31,211,117.7418,space,8.152,,117.7418,123.1746,space,5.4085,,0,5,5,6,1,175,bars/single006.png,bars/mask005.png,,,,,,,,,,,,,,,,,,,,,,,,,,,,,,,,,,,,,,,,,,,,,,,,,,,,,,,,,,,,,,,,
,,6159d36b31fe01e003282538,65af568a91bb652b9495bacd,2024-01-23_08h04.51.677,bars,2023.2.3,Win32,58.82352941,657b66ea316d21385b68909f,,,,,,,,,,,123.1817,124.1748,124.1749,124.6751,124.6751,124.9129,124.913,1,181,128.2584,space,3.3216,,128.2584,129.6629,space,1.3833,,0,6,6,1,1,20,bars/single001.png,bars/mask006.png,,,,,,,,,,,,,,,,,,,,,,,,,,,,,,,,,,,,,,,,,,,,,,,,,,,,,,,,,,,,,,,,
,,6159d36b31fe01e003282538,65af568a91bb652b9495bacd,2024-01-23_08h04.51.677,bars,2023.2.3,Win32,58.82352941,657b66ea316d21385b68909f,,,,,,,,,,,129.6631,130.658,130.658,131.1584,131.1584,131.4082,131.4082,145,145,136.0133,space,4.6002,,136.0133,139.1914,space,3.1577,,0,7,7,9,1,20,bars/single009.png,bars/mask006.png,,,,,,,,,,,,,,,,,,,,,,,,,,,,,,,,,,,,,,,,,,,,,,,,,,,,,,,,,,,,,,,,
,,6159d36b31fe01e003282538,65af568a91bb652b9495bacd,2024-01-23_08h04.51.677,bars,2023.2.3,Win32,58.82352941,657b66ea316d21385b68909f,,,,,,,,,,,139.1918,140.1916,140.1917,140.6913,140.6913,140.9413,140.9413,173,173,147.4583,space,6.5045,,147.4583,149.6913,space,2.2002,,0,8,8,3,1,20,bars/single003.png,bars/mask005.png,,,,,,,,,,,,,,,,,,,,,,,,,,,,,,,,,,,,,,,,,,,,,,,,,,,,,,,,,,,,,,,,
,,6159d36b31fe01e003282538,65af568a91bb652b9495bacd,2024-01-23_08h04.51.677,bars,2023.2.3,Win32,58.82352941,657b66ea316d21385b68909f,,,,,,,,,,,149.6916,150.6915,150.6915,151.1912,151.1913,151.4416,151.4416,29,209,154.3916,space,2.9341,,154.3916,157.4582,space,3.038,,0,9,9,5,1,55,bars/single005.png,bars/mask008.png,,,,,,,,,,,,,,,,,,,,,,,,,,,,,,,,,,,,,,,,,,,,,,,,,,,,,,,,,,,,,,,,
,,6159d36b31fe01e003282538,65af568a91bb652b9495bacd,2024-01-23_08h04.51.677,bars,2023.2.3,Win32,58.82352941,657b66ea316d21385b68909f,,,,,,,,,,,,,,,,,,,,,,,,,,,,,,,,,,,,,157.4589,168.1587,space,10.6751,,,,,,,,,,,,,,,,,,,,,,,,,,,,,,,,,,,,,,,,,,,,,,,,,,,,,,,,,,,,
,,6159d36b31fe01e003282538,65af568a91bb652b9495bacd,2024-01-23_08h04.51.677,bars,2023.2.3,Win32,58.82352941,657b66ea316d21385b68909f,,,,,,,,,,,,,,,,,,,,,,,,,,,,,,,,,,,,,,,,,,168.167,172.5584,left,4.3754,,172.5585,9,1,173.5581,0,0,0,0,1,9,1,9,2,,,,,,,,,,,,,,,,,,,,,,,,,,,,,,,,,,,,,,,,,
,,6159d36b31fe01e003282538,65af568a91bb652b9495bacd,2024-01-23_08h04.51.677,bars,2023.2.3,Win32,58.82352941,657b66ea316d21385b68909f,,,,,,,,,,,,,,,,,,,,,,,,,,,,,,,,,,,,,,,,,,173.5584,175.3582,left,1.7758,,175.3582,10,1,176.3582,0,1,1,1,1,10,0,10,1,,,,,,,,,,,,,,,,,,,,,,,,,,,,,,,,,,,,,,,,,
,,6159d36b31fe01e003282538,65af568a91bb652b9495bacd,2024-01-23_08h04.51.677,bars,2023.2.3,Win32,58.82352941,657b66ea316d21385b68909f,,,,,,,,,,,,,,,,,,,,,,,,,,,,,,,,,,,,,,,,,,176.3649,177.5749,right,1.1923,,177.5749,2,2,178.5748,0,2,2,2,1,10,2,10,2,,,,,,,,,,,,,,,,,,,,,,,,,,,,,,,,,,,,,,,,,
,,6159d36b31fe01e003282538,65af568a91bb652b9495bacd,2024-01-23_08h04.51.677,bars,2023.2.3,Win32,58.82352941,657b66ea316d21385b68909f,,,,,,,,,,,,,,,,,,,,,,,,,,,,,,,,,,,,,,,,,,178.575,179.558,left,0.9592,,179.558,7,1,180.5582,0,3,3,3,1,8,4,7,3,,,,,,,,,,,,,,,,,,,,,,,,,,,,,,,,,,,,,,,,,
,,6159d36b31fe01e003282538,65af568a91bb652b9495bacd,2024-01-23_08h04.51.677,bars,2023.2.3,Win32,58.82352941,657b66ea316d21385b68909f,,,,,,,,,,,,,,,,,,,,,,,,,,,,,,,,,,,,,,,,,,180.5584,181.7747,left,1.1843,,181.7747,5,1,182.7748,0,4,4,4,1,6,2,5,1,,,,,,,,,,,,,,,,,,,,,,,,,,,,,,,,,,,,,,,,,
,,6159d36b31fe01e003282538,65af568a91bb652b9495bacd,2024-01-23_08h04.51.677,bars,2023.2.3,Win32,58.82352941,657b66ea316d21385b68909f,,,,,,,,,,,,,,,,,,,,,,,,,,,,,,,,,,,,,,,,,,182.775,183.6412,right,0.8392,,183.6412,4,2,184.6412,0,5,5,5,1,4,4,4,4,,,,,,,,,,,,,,,,,,,,,,,,,,,,,,,,,,,,,,,,,
,,6159d36b31fe01e003282538,65af568a91bb652b9495bacd,2024-01-23_08h04.51.677,bars,2023.2.3,Win32,58.82352941,657b66ea316d21385b68909f,,,,,,,,,,,,,,,,,,,,,,,,,,,,,,,,,,,,,,,,,,184.6414,185.2082,left,0.5405,,185.2082,1,1,186.2081,0,6,6,6,1,2,2,1,2,,,,,,,,,,,,,,,,,,,,,,,,,,,,,,,,,,,,,,,,,
,,6159d36b31fe01e003282538,65af568a91bb652b9495bacd,2024-01-23_08h04.51.677,bars,2023.2.3,Win32,58.82352941,657b66ea316d21385b68909f,,,,,,,,,,,,,,,,,,,,,,,,,,,,,,,,,,,,,,,,,,186.2083,186.6415,left,0.4058,,186.6415,0,1,187.6413,0,7,7,7,1,0,0,0,1,,,,,,,,,,,,,,,,,,,,,,,,,,,,,,,,,,,,,,,,,
,,6159d36b31fe01e003282538,65af568a91bb652b9495bacd,2024-01-23_08h04.51.677,bars,2023.2.3,Win32,58.82352941,657b66ea316d21385b68909f,,,,,,,,,,,,,,,,,,,,,,,,,,,,,,,,,,,,,,,,,,187.6415,188.6748,left,1.012,,188.6749,1,1,189.6749,0,8,8,8,1,0,2,1,0,,,,,,,,,,,,,,,,,,,,,,,,,,,,,,,,,,,,,,,,,
,,6159d36b31fe01e003282538,65af568a91bb652b9495bacd,2024-01-23_08h04.51.677,bars,2023.2.3,Win32,58.82352941,657b66ea316d21385b68909f,,,,,,,,,,,,,,,,,,,,,,,,,,,,,,,,,,,,,,,,,,189.6753,190.2082,right,0.5005,,190.2082,3,2,191.2081,0,9,9,9,1,2,4,2,3,,,,,,,,,,,,,,,,,,,,,,,,,,,,,,,,,,,,,,,,,
,,6159d36b31fe01e003282538,65af568a91bb652b9495bacd,2024-01-23_08h04.51.677,bars,2023.2.3,Win32,58.82352941,657b66ea316d21385b68909f,,,,,,,,,,,,,,,,,,,,,,,,,,,,,,,,,,,,,,,,,,191.2084,191.5414,left,0.3013,,191.5414,0,1,192.5414,0,10,10,10,1,0,2,0,3,,,,,,,,,,,,,,,,,,,,,,,,,,,,,,,,,,,,,,,,,
,,6159d36b31fe01e003282538,65af568a91bb652b9495bacd,2024-01-23_08h04.51.677,bars,2023.2.3,Win32,58.82352941,657b66ea316d21385b68909f,,,,,,,,,,,,,,,,,,,,,,,,,,,,,,,,,,,,,,,,,,192.5418,192.9746,right,0.4003,,192.9746,3,2,193.9747,0,11,11,11,1,0,4,0,3,,,,,,,,,,,,,,,,,,,,,,,,,,,,,,,,,,,,,,,,,
,,6159d36b31fe01e003282538,65af568a91bb652b9495bacd,2024-01-23_08h04.51.677,bars,2023.2.3,Win32,58.82352941,657b66ea316d21385b68909f,,,,,,,,,,,,,,,,,,,,,,,,,,,,,,,,,,,,,,,,,,193.9751,194.8081,right,0.8004,,194.8082,6,2,195.8082,0,12,12,12,1,2,6,1,6,,,,,,,,,,,,,,,,,,,,,,,,,,,,,,,,,,,,,,,,,
,,6159d36b31fe01e003282538,65af568a91bb652b9495bacd,2024-01-23_08h04.51.677,bars,2023.2.3,Win32,58.82352941,657b66ea316d21385b68909f,,,,,,,,,,,,,,,,,,,,,,,,,,,,,,,,,,,,,,,,,,195.8083,196.175,right,0.3337,,196.1751,3,2,197.1748,0,13,13,13,1,0,4,1,3,,,,,,,,,,,,,,,,,,,,,,,,,,,,,,,,,,,,,,,,,
,,6159d36b31fe01e003282538,65af568a91bb652b9495bacd,2024-01-23_08h04.51.677,bars,2023.2.3,Win32,58.82352941,657b66ea316d21385b68909f,,,,,,,,,,,,,,,,,,,,,,,,,,,,,,,,,,,,,,,,,,197.1749,197.4913,left,0.2949,,197.4913,2,1,198.4914,0,14,14,14,1,2,6,2,7,,,,,,,,,,,,,,,,,,,,,,,,,,,,,,,,,,,,,,,,,
,,6159d36b31fe01e003282538,65af568a91bb652b9495bacd,2024-01-23_08h04.51.677,bars,2023.2.3,Win32,58.82352941,657b66ea316d21385b68909f,,,,,,,,,,,,,,,,,,,,,,,,,,,,,,,,,,,,,,,,,,198.4916,198.8415,right,0.3224,,198.8416,9,2,199.8414,0,15,15,15,1,4,8,3,9,,,,,,,,,,,,,,,,,,,,,,,,,,,,,,,,,,,,,,,,,
,,6159d36b31fe01e003282538,65af568a91bb652b9495bacd,2024-01-23_08h04.51.677,bars,2023.2.3,Win32,58.82352941,657b66ea316d21385b68909f,,,,,,,,,,,,,,,,,,,,,,,,,,,,,,,,,,,,,,,,,,199.8415,200.2132,left,0.3502,,200.2132,7,1,201.2081,0,16,16,16,1,6,6,7,7,,,,,,,,,,,,,,,,,,,,,,,,,,,,,,,,,,,,,,,,,
,,6159d36b31fe01e003282538,65af568a91bb652b9495bacd,2024-01-23_08h04.51.677,bars,2023.2.3,Win32,58.82352941,657b66ea316d21385b68909f,,,,,,,,,,,,,,,,,,,,,,,,,,,,,,,,,,,,,,,,,,201.2084,201.5963,right,0.3668,,201.5963,5,2,202.5914,0,17,17,17,1,8,4,9,5,,,,,,,,,,,,,,,,,,,,,,,,,,,,,,,,,,,,,,,,,
,,6159d36b31fe01e003282538,65af568a91bb652b9495bacd,2024-01-23_08h04.51.677,bars,2023.2.3,Win32,58.82352941,657b66ea316d21385b68909f,,,,,,,,,,,,,,,,,,,,,,,,,,,,,,,,,,,,,,,,,,202.5916,202.9412,left,0.3263,,202.9413,5,1,203.9415,0,18,18,18,1,6,2,5,1,,,,,,,,,,,,,,,,,,,,,,,,,,,,,,,,,,,,,,,,,
,,6159d36b31fe01e003282538,65af568a91bb652b9495bacd,2024-01-23_08h04.51.677,bars,2023.2.3,Win32,58.82352941,657b66ea316d21385b68909f,,,,,,,,,,,,,,,,,,,,,,,,,,,,,,,,,,,,,,,,,,203.9418,204.7961,right,0.8336,,204.7961,0,2,205.7914,0,19,19,19,1,8,0,7,0,,,,,,,,,,,,,,,,,,,,,,,,,,,,,,,,,,,,,,,,,
,,6159d36b31fe01e003282538,65af568a91bb652b9495bacd,2024-01-23_08h04.51.677,bars,2023.2.3,Win32,58.82352941,657b66ea316d21385b68909f,,,,,,,,,,,,,,,,,,,,,,,,,,,,,,,,,,,,,,,,,,,,,,,,,,,,,,,,,,,,205.7919,217.4585,space,11.6337,,,,,,,,,,,,,,,,,,,,,,,,,,,,,,,,,,,,,
,,6159d36b31fe01e003282538,65af568a91bb652b9495bacd,2024-01-23_08h04.51.677,bars,2023.2.3,Win32,58.82352941,657b66ea316d21385b68909f,,,,,,,,,,,219.294,220.2915,,,220.7918,221.0412,,26,206,,,,,,,,,,,,,,,,bars/047.png,bars/mask002.png,,,,,,,,,,,,4,1,,,,,,,5,1,6,1,,,,,,217.4668,219.2916,space,1.8034,,220.2919,220.7918,221.0414,226.8419,space,5.7666,,226.842,11,44,227.8413,227.8414,234.78,space,6.9164,,0,0,0,0,1,15,70,,,,,,,,
,,6159d36b31fe01e003282538,65af568a91bb652b9495bacd,2024-01-23_08h04.51.677,bars,2023.2.3,Win32,58.82352941,657b66ea316d21385b68909f,,,,,,,,,,,234.7868,235.7748,,,236.2746,236.527,,148,148,,,,,,,,,,,,,,,,bars/025.png,bars/mask002.png,,,,,,,,,,,,0,1,,,,,,,3,0,3,0,,,,,,,,,,,235.7748,236.2746,236.527,239.7129,space,3.1817,,239.713,43,72,240.708,240.708,242.3747,space,1.6338,,0,1,1,1,1,105,40,,,,,,,,
,,6159d36b31fe01e003282538,65af568a91bb652b9495bacd,2024-01-23_08h04.51.677,bars,2023.2.3,Win32,58.82352941,657b66ea316d21385b68909f,,,,,,,,,,,242.3751,243.3745,,,243.8749,244.1245,,61,61,,,,,,,,,,,,,,,,bars/012.png,bars/mask007.png,,,,,,,,,,,,0,1,,,,,,,5,0,4,1,,,,,,,,,,,243.3746,243.8748,244.1245,249.4748,space,5.3211,,249.4748,29,46,250.4747,250.4747,254.2748,space,3.7707,,0,2,2,2,1,90,15,,,,,,,,
,,6159d36b31fe01e003282538,65af568a91bb652b9495bacd,2024-01-23_08h04.51.677,bars,2023.2.3,Win32,58.82352941,657b66ea316d21385b68909f,,,,,,,,,,,254.2816,255.2747,,,255.7746,256.0246,,117,117,,,,,,,,,,,,,,,,bars/045.png,bars/mask005.png,,,,,,,,,,,,1,1,,,,,,,3,0,3,2,,,,,,,,,,,255.2747,255.7745,256.0246,259.3247,space,3.2854,,259.3247,17,73,260.3245,260.3245,263.0748,space,2.7177,,0,3,3,3,1,100,10,,,,,,,,
,,6159d36b31fe01e003282538,65af568a91bb652b9495bacd,2024-01-23_08h04.51.677,bars,2023.2.3,Win32,58.82352941,657b66ea316d21385b68909f,,,,,,,,,,,263.0753,264.0791,,,264.5748,264.8247,,94,94,,,,,,,,,,,,,,,,bars/034.png,bars/mask003.png,,,,,,,,,,,,0,2,,,,,,,1,0,2,1,,,,,,,,,,,264.0791,264.5748,264.8247,268.2749,space,3.4339,,268.2749,31,29,269.2747,269.2748,270.8747,space,1.5709,,0,4,4,4,1,125,65,,,,,,,,
,,6159d36b31fe01e003282538,65af568a91bb652b9495bacd,2024-01-23_08h04.51.677,bars,2023.2.3,Win32,58.82352941,657b66ea316d21385b68909f,,,,,,,,,,,270.8749,271.8745,,,272.3794,272.6247,,126,126,,,,,,,,,,,,,,,,bars/000.png,bars/mask005.png,,,,,,,,,,,,1,2,,,,,,,0,2,0,2,,,,,,,,,,,271.8745,272.3794,272.6248,279.1412,space,6.5012,,279.1412,86,19,280.1412,280.1413,282.1465,space,1.9836,,0,5,5,5,1,40,145,,,,,,,,
,,6159d36b31fe01e003282538,65af568a91bb652b9495bacd,2024-01-23_08h04.51.677,bars,2023.2.3,Win32,58.82352941,657b66ea316d21385b68909f,,,,,,,,,,,282.1468,283.1413,,,283.6414,283.8911,,51,51,,,,,,,,,,,,,,,,bars/024.png,bars/mask002.png,,,,,,,,,,,,0,2,,,,,,,0,0,2,0,,,,,,,,,,,283.1413,283.6413,283.8911,307.7747,space,23.8585,,307.7748,69,61,308.7747,308.7747,315.8628,space,7.0667,,0,6,6,6,1,120,170,,,,,,,,
,,6159d36b31fe01e003282538,65af568a91bb652b9495bacd,2024-01-23_08h04.51.677,bars,2023.2.3,Win32,58.82352941,657b66ea316d21385b68909f,,,,,,,,,,,315.8693,316.8577,,,317.3582,317.608,,34,214,,,,,,,,,,,,,,,,bars/049.png,bars/mask002.png,,,,,,,,,,,,0,1,,,,,,,0,2,0,3,,,,,,,,,,,316.8578,317.3582,317.6081,321.4415,space,3.8168,,321.4415,54,81,322.4411,322.4411,324.613,space,2.1504,,0,7,7,7,1,160,115,,,,,,,,
,,6159d36b31fe01e003282538,65af568a91bb652b9495bacd,2024-01-23_08h04.51.677,bars,2023.2.3,Win32,58.82352941,657b66ea316d21385b68909f,,,,,,,,,,,324.6133,325.6078,,,326.1078,326.3578,,159,159,,,,,,,,,,,,,,,,bars/017.png,bars/mask003.png,,,,,,,,,,,,1,1,,,,,,,0,0,1,0,,,,,,,,,,,325.6078,326.1078,326.3578,326.8915,space,0.52,,326.8915,14,66,327.8913,327.8913,329.2415,space,1.3173,,0,8,8,8,1,145,45,,,,,,,,
,,6159d36b31fe01e003282538,65af568a91bb652b9495bacd,2024-01-23_08h04.51.677,bars,2023.2.3,Win32,58.82352941,657b66ea316d21385b68909f,,,,,,,,,,,329.2419,330.2413,,,330.7412,330.9911,,151,151,,,,,,,,,,,,,,,,bars/037.png,bars/mask005.png,,,,,,,,,,,,4,1,,,,,,,2,0,4,1,,,,,,,,,,,330.2413,330.7412,330.9911,334.691,space,3.6868,,334.691,1,46,335.6913,335.6913,337.7911,space,2.0743,,0,9,9,9,1,150,105,,,,,,,,
,,6159d36b31fe01e003282538,65af568a91bb652b9495bacd,2024-01-23_08h04.51.677,bars,2023.2.3,Win32,58.82352941,657b66ea316d21385b68909f,,,,,,,,,,,337.7914,338.791,,,339.291,339.541,,91,91,,,,,,,,,,,,,,,,bars/007.png,bars/mask002.png,,,,,,,,,,,,0,2,,,,,,,4,0,3,0,,,,,,,,,,,338.791,339.291,339.5411,343.6577,space,4.0883,,343.6577,84,36,344.6579,344.6579,346.091,space,1.4033,,0,10,10,10,1,175,55,,,,,,,,
,,6159d36b31fe01e003282538,65af568a91bb652b9495bacd,2024-01-23_08h04.51.677,bars,2023.2.3,Win32,58.82352941,657b66ea316d21385b68909f,,,,,,,,,,,346.0913,347.091,,,347.5913,347.8413,,115,115,,,,,,,,,,,,,,,,bars/044.png,bars/mask005.png,,,,,,,,,,,,0,2,,,,,,,6,2,6,2,,,,,,,,,,,347.091,347.5913,347.8414,353.1247,space,5.2684,,353.1248,40,40,354.1246,354.1246,355.091,space,0.9449,,0,11,11,11,1,75,155,,,,,,,,
,,6159d36b31fe01e003282538,65af568a91bb652b9495bacd,2024-01-23_08h04.51.677,bars,2023.2.3,Win32,58.82352941,657b66ea316d21385b68909f,,,,,,,,,,,355.0912,356.091,,,356.591,356.841,,27,27,,,,,,,,,,,,,,,,bars/014.png,bars/mask004.png,,,,,,,,,,,,0,2,,,,,,,8,0,7,0,,,,,,,,,,,356.091,356.5909,356.841,362.1462,space,5.3003,,362.1463,53,27,363.1412,363.1412,367.5912,space,4.4238,,0,12,12,12,1,80,0,,,,,,,,
,,6159d36b31fe01e003282538,65af568a91bb652b9495bacd,2024-01-23_08h04.51.677,bars,2023.2.3,Win32,58.82352941,657b66ea316d21385b68909f,,,,,,,,,,,367.598,368.591,,,369.0913,369.341,,9,9,,,,,,,,,,,,,,,,bars/027.png,bars/mask001.png,,,,,,,,,,,,0,2,,,,,,,10,0,10,2,,,,,,,,,,,368.591,369.0912,369.3411,372.258,space,2.9007,,372.258,79,41,373.2577,373.2577,374.5297,space,1.2504,,0,13,13,13,1,110,50,,,,,,,,
,,6159d36b31fe01e003282538,65af568a91bb652b9495bacd,2024-01-23_08h04.51.677,bars,2023.2.3,Win32,58.82352941,657b66ea316d21385b68909f,,,,,,,,,,,374.53,375.5246,,,376.0245,376.2746,,25,25,,,,,,,,,,,,,,,,bars/038.png,bars/mask002.png,,,,,,,,,,,,0,1,,,,,,,8,2,8,3,,,,,,,,,,,375.5246,376.0245,376.2746,379.558,space,3.2677,,379.558,40,45,380.5577,380.5577,382.7415,space,2.151,,0,14,14,14,1,165,70,,,,,,,,
,,6159d36b31fe01e003282538,65af568a91bb652b9495bacd,2024-01-23_08h04.51.677,bars,2023.2.3,Win32,58.82352941,657b66ea316d21385b68909f,,,,,,,,,,,382.7418,383.741,,,384.2293,384.4742,,159,159,,,,,,,,,,,,,,,,bars/022.png,bars/mask002.png,,,,,,,,,,,,0,2,,,,,,,10,0,10,0,,,,,,,,,,,383.741,384.2293,384.4742,386.0413,space,1.5506,,386.0413,64,41,387.0413,387.0413,387.6129,space,0.5501,,0,15,15,15,1,95,20,,,,,,,,
,,6159d36b31fe01e003282538,65af568a91bb652b9495bacd,2024-01-23_08h04.51.677,bars,2023.2.3,Win32,58.82352941,657b66ea316d21385b68909f,,,,,,,,,,,387.6132,388.6076,,,389.1078,389.3576,,106,106,,,,,,,,,,,,,,,,bars/034.png,bars/mask000.png,,,,,,,,,,,,3,1,,,,,,,8,0,8,1,,,,,,,,,,,388.6077,389.1078,389.3576,390.8745,space,1.5006,,390.8746,19,41,391.8743,391.8743,392.7579,space,0.8584,,0,16,16,16,1,125,65,,,,,,,,
,,6159d36b31fe01e003282538,65af568a91bb652b9495bacd,2024-01-23_08h04.51.677,bars,2023.2.3,Win32,58.82352941,657b66ea316d21385b68909f,,,,,,,,,,,392.7582,393.7579,,,394.2576,394.5079,,152,152,,,,,,,,,,,,,,,,bars/040.png,bars/mask003.png,,,,,,,,,,,,4,1,,,,,,,6,0,6,1,,,,,,,,,,,393.758,394.2576,394.5079,396.0912,space,1.5698,,396.0913,12,33,397.079,397.079,398.2746,space,1.1708,,0,17,17,17,1,140,5,,,,,,,,
,,6159d36b31fe01e003282538,65af568a91bb652b9495bacd,2024-01-23_08h04.51.677,bars,2023.2.3,Win32,58.82352941,657b66ea316d21385b68909f,,,,,,,,,,,398.275,399.2743,,,399.7744,400.0289,,43,43,,,,,,,,,,,,,,,,bars/024.png,bars/mask006.png,,,,,,,,,,,,0,2,,,,,,,8,2,8,2,,,,,,,,,,,399.2743,399.7744,400.0289,403.8077,space,3.7568,,403.8077,77,53,404.8075,404.8075,407.4746,space,2.6342,,0,18,18,18,1,120,170,,,,,,,,
,,6159d36b31fe01e003282538,65af568a91bb652b9495bacd,2024-01-23_08h04.51.677,bars,2023.2.3,Win32,58.82352941,657b66ea316d21385b68909f,,,,,,,,,,,407.4819,408.4743,,,408.9743,409.2291,,118,118,,,,,,,,,,,,,,,,bars/033.png,bars/mask002.png,,,,,,,,,,,,0,2,,,,,,,6,4,8,5,,,,,,,,,,,408.4744,408.9743,409.2292,412.8913,space,3.6571,,412.8913,87,37,413.8912,413.8912,415.9247,space,2.0104,,0,19,19,19,1,25,155,,,,,,,,
,,6159d36b31fe01e003282538,65af568a91bb652b9495bacd,2024-01-23_08h04.51.677,bars,2023.2.3,Win32,58.82352941,657b66ea316d21385b68909f,,,,,,,,,,,415.9249,416.9246,,,417.4245,417.6745,,163,-17,,,,,,,,,,,,,,,,bars/022.png,bars/mask003.png,,,,,,,,,,,,0,2,,,,,,,8,2,8,0,,,,,,,,,,,416.9246,417.4245,417.6745,421.0576,space,3.3674,,421.0577,68,37,422.0578,422.0578,422.958,space,0.8672,,0,20,20,20,1,95,20,,,,,,,,
,,6159d36b31fe01e003282538,65af568a91bb652b9495bacd,2024-01-23_08h04.51.677,bars,2023.2.3,Win32,58.82352941,657b66ea316d21385b68909f,,,,,,,,,,,422.9583,423.9624,,,424.4576,424.6958,,34,214,,,,,,,,,,,,,,,,bars/010.png,bars/mask006.png,,,,,,,,,,,,1,2,,,,,,,10,4,10,2,,,,,,,,,,,423.9624,424.4576,424.6958,428.3628,space,3.6506,,428.3629,49,21,429.3578,429.3579,432.291,space,2.9035,,0,21,21,21,1,165,55,,,,,,,,
,,6159d36b31fe01e003282538,65af568a91bb652b9495bacd,2024-01-23_08h04.51.677,bars,2023.2.3,Win32,58.82352941,657b66ea316d21385b68909f,,,,,,,,,,,432.2913,433.2909,,,433.7909,434.0409,,44,44,,,,,,,,,,,,,,,,bars/010.png,bars/mask007.png,,,,,,,,,,,,1,2,,,,,,,10,2,10,2,,,,,,,,,,,433.2909,433.7909,434.0409,435.4577,space,1.3836,,435.4579,59,11,436.4576,436.4576,438.7078,space,2.2275,,0,22,22,22,1,165,55,,,,,,,,
,,6159d36b31fe01e003282538,65af568a91bb652b9495bacd,2024-01-23_08h04.51.677,bars,2023.2.3,Win32,58.82352941,657b66ea316d21385b68909f,,,,,,,,,,,438.708,439.7077,,,440.2076,440.4576,,22,22,,,,,,,,,,,,,,,,bars/010.png,bars/mask002.png,,,,,,,,,,,,0,2,,,,,,,10,4,8,4,,,,,,,,,,,439.7078,440.2076,440.4576,442.3577,space,1.8923,,442.3577,37,33,443.3576,443.3576,444.1744,space,0.7914,,0,23,23,23,1,165,55,,,,,,,,
,,6159d36b31fe01e003282538,65af568a91bb652b9495bacd,2024-01-23_08h04.51.677,bars,2023.2.3,Win32,58.82352941,657b66ea316d21385b68909f,,,,,,,,,,,444.1748,445.1743,,,445.6745,445.9245,,39,39,,,,,,,,,,,,,,,,bars/049.png,bars/mask007.png,,,,,,,,,,,,0,1,,,,,,,8,6,7,6,,,,,,,,,,,445.1743,445.6745,445.9245,449.4243,space,3.4888,,449.4243,59,76,450.4245,450.4245,452.541,space,2.0846,,0,24,24,24,1,160,115,,,,,,,,
,,6159d36b31fe01e003282538,65af568a91bb652b9495bacd,2024-01-23_08h04.51.677,bars,2023.2.3,Win32,58.82352941,657b66ea316d21385b68909f,,,,,,,,,,,452.5413,453.5408,,,454.0408,454.2956,,172,172,,,,,,,,,,,,,,,,bars/036.png,bars/mask008.png,,,,,,,,,,,,0,1,,,,,,,6,8,4,8,,,,,,,,,,,453.5408,454.0408,454.2956,457.1411,space,2.8307,,457.1411,27,28,458.1409,458.1409,459.3747,space,1.2008,,0,25,25,25,1,145,20,,,,,,,,
,,6159d36b31fe01e003282538,65af568a91bb652b9495bacd,2024-01-23_08h04.51.677,bars,2023.2.3,Win32,58.82352941,657b66ea316d21385b68909f,,,,,,,,,,,459.375,460.3745,,,460.8743,461.1289,,52,52,,,,,,,,,,,,,,,,bars/014.png,bars/mask008.png,,,,,,,,,,,,1,1,,,,,,,8,10,8,10,,,,,,,,,,,460.3745,460.8742,461.1289,464.5578,space,3.4215,,464.5578,28,52,465.5578,465.5578,469.1746,space,3.5914,,0,26,26,26,1,80,0,,,,,,,,
,,6159d36b31fe01e003282538,65af568a91bb652b9495bacd,2024-01-23_08h04.51.677,bars,2023.2.3,Win32,58.82352941,657b66ea316d21385b68909f,,,,,,,,,,,469.1751,470.1742,,,470.6744,470.9292,,36,36,,,,,,,,,,,,,,,,bars/015.png,bars/mask000.png,,,,,,,,,,,,0,2,,,,,,,10,10,10,9,,,,,,,,,,,470.1742,470.6744,470.9292,475.0627,space,4.1293,,475.0627,74,56,476.0576,476.0576,479.0579,space,2.971,,0,27,27,27,1,110,160,,,,,,,,
,,6159d36b31fe01e003282538,65af568a91bb652b9495bacd,2024-01-23_08h04.51.677,bars,2023.2.3,Win32,58.82352941,657b66ea316d21385b68909f,,,,,,,,,,,479.0582,480.0577,,,480.5577,480.8123,,73,73,,,,,,,,,,,,,,,,bars/019.png,bars/mask009.png,,,,,,,,,,,,1,1,,,,,,,10,10,10,9,,,,,,,,,,,480.0578,480.5577,480.8123,484.3079,space,3.4712,,484.3079,28,32,485.3078,485.3078,486.8245,space,1.4887,,0,28,28,28,1,45,105,,,,,,,,
,,6159d36b31fe01e003282538,65af568a91bb652b9495bacd,2024-01-23_08h04.51.677,bars,2023.2.3,Win32,58.82352941,657b66ea316d21385b68909f,,,,,,,,,,,486.8248,487.8243,,,488.3244,488.5626,,75,75,,,,,,,,,,,,,,,,bars/039.png,bars/mask008.png,,,,,,,,,,,,0,2,,,,,,,10,10,10,8,,,,,,,,,,,487.8243,488.3244,488.5626,492.2578,space,3.6672,,492.2578,80,30,493.2455,493.2456,498.7742,space,5.5079,,0,29,29,29,1,175,105,,,,,,,,
,,6159d36b31fe01e003282538,65af568a91bb652b9495bacd,2024-01-23_08h04.51.677,bars,2023.2.3,Win32,58.82352941,657b66ea316d21385b68909f,,,,,,,,,,,498.7815,499.7744,,,500.2744,500.5245,,118,118,,,,,,,,,,,,,,,,bars/019.png,bars/mask000.png,,,,,,,,,,,,5,2,,,,,,,8,8,9,8,,,,,,,,,,,499.7744,500.2744,500.5245,502.9075,space,2.3771,,502.9075,73,13,503.9075,503.9075,508.6575,space,4.7172,,0,30,30,30,1,45,105,,,,,,,,
,,6159d36b31fe01e003282538,65af568a91bb652b9495bacd,2024-01-23_08h04.51.677,bars,2023.2.3,Win32,58.82352941,657b66ea316d21385b68909f,,,,,,,,,,,508.6642,509.6576,,,510.158,510.4077,,18,198,,,,,,,,,,,,,,,,bars/035.png,bars/mask006.png,,,,,,,,,,,,2,1,,,,,,,10,6,7,5,,,,,,,,,,,509.6576,510.158,510.4077,512.8578,space,2.4376,,512.8578,23,42,513.8577,513.8577,519.2746,space,5.384,,0,31,31,31,1,175,60,,,,,,,,
,,6159d36b31fe01e003282538,65af568a91bb652b9495bacd,2024-01-23_08h04.51.677,bars,2023.2.3,Win32,58.82352941,657b66ea316d21385b68909f,,,,,,,,,,,519.2819,520.2743,,,520.7744,521.0123,,123,123,,,,,,,,,,,,,,,,bars/016.png,bars/mask009.png,,,,,,,,,,,,0,2,,,,,,,10,4,10,6,,,,,,,,,,,520.2744,520.7744,521.0123,524.5075,space,3.4688,,524.5076,83,42,525.5076,525.5076,525.9575,space,0.4251,,0,32,32,32,1,40,165,,,,,,,,
,,6159d36b31fe01e003282538,65af568a91bb652b9495bacd,2024-01-23_08h04.51.677,bars,2023.2.3,Win32,58.82352941,657b66ea316d21385b68909f,,,,,,,,,,,525.9577,526.9578,,,527.4579,527.7077,,108,108,,,,,,,,,,,,,,,,bars/004.png,bars/mask000.png,,,,,,,,,,,,3,2,,,,,,,8,6,8,8,,,,,,,,,,,526.9578,527.4578,527.7077,530.8244,space,3.1058,,530.8246,83,17,531.829,531.829,542.841,space,10.9836,,0,33,33,33,1,25,125,,,,,,,,
,,6159d36b31fe01e003282538,65af568a91bb652b9495bacd,2024-01-23_08h04.51.677,bars,2023.2.3,Win32,58.82352941,657b66ea316d21385b68909f,,,,,,,,,,,542.8487,543.8407,,,544.3456,544.5907,,135,-45,,,,,,,,,,,,,,,,bars/010.png,bars/mask008.png,,,,,,,,,,,,0,1,,,,,,,10,4,9,3,,,,,,,,,,,543.8407,544.3455,544.5908,547.641,space,3.0175,,547.641,30,80,548.6408,548.6408,549.4743,space,0.8037,,0,34,34,34,1,165,55,,,,,,,,
,,6159d36b31fe01e003282538,65af568a91bb652b9495bacd,2024-01-23_08h04.51.677,bars,2023.2.3,Win32,58.82352941,657b66ea316d21385b68909f,,,,,,,,,,,549.4745,550.4741,,,550.9744,551.2245,,105,-75,,,,,,,,,,,,,,,,bars/005.png,bars/mask001.png,,,,,,,,,,,,0,2,,,,,,,10,2,10,3,,,,,,,,,,,550.4741,550.9744,551.2245,555.3077,space,4.0527,,555.3078,85,35,556.3075,556.3075,557.6243,space,1.2886,,0,35,35,35,1,10,140,,,,,,,,
,,6159d36b31fe01e003282538,65af568a91bb652b9495bacd,2024-01-23_08h04.51.677,bars,2023.2.3,Win32,58.82352941,657b66ea316d21385b68909f,,,,,,,,,,,557.6246,558.6243,,,559.1243,559.3623,,149,-31,,,,,,,,,,,,,,,,bars/038.png,bars/mask004.png,,,,,,,,,,,,5,1,,,,,,,10,0,10,1,,,,,,,,,,,558.6243,559.1243,559.3623,561.8291,space,2.4626,,561.8291,16,79,562.8243,562.8243,565.8294,space,2.9836,,0,36,36,36,1,165,70,,,,,,,,
,,6159d36b31fe01e003282538,65af568a91bb652b9495bacd,2024-01-23_08h04.51.677,bars,2023.2.3,Win32,58.82352941,657b66ea316d21385b68909f,,,,,,,,,,,565.836,566.8243,,,567.3244,567.5789,,112,112,,,,,,,,,,,,,,,,bars/012.png,bars/mask000.png,,,,,,,,,,,,3,1,,,,,,,10,2,10,3,,,,,,,,,,,566.8243,567.3244,567.5789,569.7744,space,2.1745,,569.7745,22,83,570.7786,570.7787,572.9077,space,2.1025,,0,37,37,37,1,90,15,,,,,,,,
,,6159d36b31fe01e003282538,65af568a91bb652b9495bacd,2024-01-23_08h04.51.677,bars,2023.2.3,Win32,58.82352941,657b66ea316d21385b68909f,,,,,,,,,,,572.9148,573.9076,,,574.4123,574.6577,,36,36,,,,,,,,,,,,,,,,bars/017.png,bars/mask005.png,,,,,,,,,,,,4,2,,,,,,,8,4,9,5,,,,,,,,,,,573.9077,574.4123,574.6577,576.8577,space,2.1673,,576.8577,71,9,577.8623,577.8623,588.7128,space,10.8337,,0,38,38,38,1,145,45,,,,,,,,
,,6159d36b31fe01e003282538,65af568a91bb652b9495bacd,2024-01-23_08h04.51.677,bars,2023.2.3,Win32,58.82352941,657b66ea316d21385b68909f,,,,,,,,,,,588.72,589.7076,,,590.2078,590.4573,,159,-21,,,,,,,,,,,,,,,,bars/026.png,bars/mask005.png,,,,,,,,,,,,0,1,,,,,,,10,6,10,6,,,,,,,,,,,589.7076,590.2078,590.4573,593.9408,space,3.4677,,593.9408,56,74,594.9409,594.9409,608.1745,space,13.2077,,0,39,39,39,1,35,85,,,,,,,,
,,6159d36b31fe01e003282538,65af568a91bb652b9495bacd,2024-01-23_08h04.51.677,bars,2023.2.3,Win32,58.82352941,657b66ea316d21385b68909f,,,,,,,,,,,608.1821,609.1743,,,609.6743,609.9241,,44,44,,,,,,,,,,,,,,,,bars/045.png,bars/mask000.png,,,,,,,,,,,,0,2,,,,,,,10,8,10,8,,,,,,,,,,,609.1743,609.6742,609.9241,613.4744,space,3.534,,613.4744,56,34,614.4741,614.4741,616.274,space,1.7782,,0,40,40,40,1,100,10,,,,,,,,
,,6159d36b31fe01e003282538,65af568a91bb652b9495bacd,2024-01-23_08h04.51.677,bars,2023.2.3,Win32,58.82352941,657b66ea316d21385b68909f,,,,,,,,,,,616.2742,617.2742,,,617.7746,618.024,,157,-23,,,,,,,,,,,,,,,,bars/014.png,bars/mask004.png,,,,,,,,,,,,2,2,,,,,,,8,10,8,10,,,,,,,,,,,617.2742,617.7745,618.0241,621.4907,space,3.4526,,621.4907,77,23,622.4908,622.4908,627.2409,space,4.7219,,0,41,41,41,1,80,0,,,,,,,,
,,6159d36b31fe01e003282538,65af568a91bb652b9495bacd,2024-01-23_08h04.51.677,bars,2023.2.3,Win32,58.82352941,657b66ea316d21385b68909f,,,,,,,,,,,627.2476,628.2406,,,628.7406,628.9909,,70,70,,,,,,,,,,,,,,,,bars/004.png,bars/mask003.png,,,,,,,,,,,,0,1,,,,,,,10,8,9,7,,,,,,,,,,,628.2406,628.7406,628.991,631.2576,space,2.2506,,631.2576,45,55,632.2576,632.2576,634.3407,space,2.0591,,0,42,42,42,1,25,125,,,,,,,,
,,6159d36b31fe01e003282538,65af568a91bb652b9495bacd,2024-01-23_08h04.51.677,bars,2023.2.3,Win32,58.82352941,657b66ea316d21385b68909f,,,,,,,,,,,634.3475,635.3409,,,635.8408,636.091,,123,123,,,,,,,,,,,,,,,,bars/024.png,bars/mask002.png,,,,,,,,,,,,8,1,,,,,,,8,10,9,10,,,,,,,,,,,635.341,635.8408,636.091,637.5907,space,1.4838,,637.5907,3,47,638.5908,638.5908,640.8076,space,2.1835,,0,43,43,43,1,120,170,,,,,,,,
,,6159d36b31fe01e003282538,65af568a91bb652b9495bacd,2024-01-23_08h04.51.677,bars,2023.2.3,Win32,58.82352941,657b66ea316d21385b68909f,,,,,,,,,,,640.8079,641.8073,,,642.3075,642.5574,,121,-59,,,,,,,,,,,,,,,,bars/034.png,bars/mask001.png,,,,,,,,,,,,5,1,,,,,,,6,8,6,5,,,,,,,,,,,641.8073,642.3075,642.5575,646.191,space,3.6011,,646.191,4,56,647.1907,647.1907,649.4575,space,2.2337,,0,44,44,44,1,125,65,,,,,,,,
,,6159d36b31fe01e003282538,65af568a91bb652b9495bacd,2024-01-23_08h04.51.677,bars,2023.2.3,Win32,58.82352941,657b66ea316d21385b68909f,,,,,,,,,,,649.4578,650.4574,,,650.9456,651.1906,,144,-36,,,,,,,,,,,,,,,,bars/041.png,bars/mask002.png,,,,,,,,,,,,0,1,,,,,,,4,10,3,10,,,,,,,,,,,650.4574,650.9456,651.1906,654.1074,space,2.8861,,654.1074,56,59,655.1074,655.1074,655.574,space,0.4408,,0,45,45,45,1,20,85,,,,,,,,
,,6159d36b31fe01e003282538,65af568a91bb652b9495bacd,2024-01-23_08h04.51.677,bars,2023.2.3,Win32,58.82352941,657b66ea316d21385b68909f,,,,,,,,,,,655.5742,656.5621,,,657.0575,657.3075,,119,119,,,,,,,,,,,,,,,,bars/002.png,bars/mask009.png,,,,,,,,,,,,4,1,,,,,,,6,10,6,10,,,,,,,,,,,656.5621,657.0575,657.3075,659.6407,space,2.3219,,659.6407,11,34,660.6405,660.6405,661.9124,space,1.2505,,0,46,46,46,1,130,85,,,,,,,,
,,6159d36b31fe01e003282538,65af568a91bb652b9495bacd,2024-01-23_08h04.51.677,bars,2023.2.3,Win32,58.82352941,657b66ea316d21385b68909f,,,,,,,,,,,661.9126,662.9072,,,663.4077,663.6617,,131,-49,,,,,,,,,,,,,,,,bars/015.png,bars/mask002.png,,,,,,,,,,,,2,1,,,,,,,8,8,7,8,,,,,,,,,,,662.9072,663.4077,663.6618,666.8123,space,3.1337,,666.8123,21,29,667.8074,667.8074,669.3072,space,1.4771,,0,47,47,47,1,110,160,,,,,,,,
,,6159d36b31fe01e003282538,65af568a91bb652b9495bacd,2024-01-23_08h04.51.677,bars,2023.2.3,Win32,58.82352941,657b66ea316d21385b68909f,,,,,,,,,,,669.3075,670.3075,,,670.8075,671.0575,,41,41,,,,,,,,,,,,,,,,bars/022.png,bars/mask000.png,,,,,,,,,,,,2,2,,,,,,,6,6,8,6,,,,,,,,,,,670.3075,670.8075,671.0575,673.2075,space,2.1334,,673.2075,54,21,674.1954,674.1954,675.0575,space,0.8337,,0,48,48,48,1,95,20,,,,,,,,
,,6159d36b31fe01e003282538,65af568a91bb652b9495bacd,2024-01-23_08h04.51.677,bars,2023.2.3,Win32,58.82352941,657b66ea316d21385b68909f,,,,,,,,,,,675.0578,676.0576,,,676.5576,676.8073,,20,20,,,,,,,,,,,,,,,,bars/001.png,bars/mask000.png,,,,,,,,,,,,0,2,,,,,,,4,8,5,8,,,,,,,,,,,676.0576,676.5576,676.8073,679.6911,space,2.8636,,679.6912,70,65,680.6909,680.691,685.9909,space,5.274,,0,49,49,49,1,130,85,,,,,,,,
,,6159d36b31fe01e003282538,65af568a91bb652b9495bacd,2024-01-23_08h04.51.677,bars,2023.2.3,Win32,58.82352941,657b66ea316d21385b68909f,,,,,,,,,,,,,,,,,,,,,,,,,,,,,,,,,,,,,,,,,,,,,,,,,,,,,,,,,,,,,,,,,,,,,,,,,,,,,,,,,,,,,,,,,,,,,685.9979,745.991,0,0,0,3,1,sequence_tables/blk035.csv
,,6159d36b31fe01e003282538,65af568a91bb652b9495bacd,2024-01-23_08h04.51.677,bars,2023.2.3,Win32,58.82352941,657b66ea316d21385b68909f,,,,,,,,,,,807.6673,808.6618,,,809.1571,809.4071,,75,75,,,,,,,,,,,,,,,,bars/029.png,bars/mask002.png,,,,,,,,,,,,3,1,,,,,,,2,3,5,3,,,,,,745.9981,807.6574,space,61.6376,,808.6618,809.157,809.4072,812.7405,space,3.3259,,812.7405,15,30,813.7406,813.7407,813.7484,,,,0,0,0,0,1,90,45,,,,,,,,
,,6159d36b31fe01e003282538,65af568a91bb652b9495bacd,2024-01-23_08h04.51.677,bars,2023.2.3,Win32,58.82352941,657b66ea316d21385b68909f,,,,,,,,,,,813.7486,814.7406,,,815.2406,815.4907,,139,139,,,,,,,,,,,,,,,,bars/023.png,bars/mask009.png,,,,,,,,,,,,0,2,,,,,,,4,1,3,1,,,,,,,,,,,814.7406,815.2406,815.4907,818.4405,space,2.934,,818.4405,61,24,819.4406,819.4407,819.4483,,,,0,1,1,1,1,20,115,,,,,,,,
,,6159d36b31fe01e003282538,65af568a91bb652b9495bacd,2024-01-23_08h04.51.677,bars,2023.2.3,Win32,58.82352941,657b66ea316d21385b68909f,,,,,,,,,,,819.4485,820.4403,,,820.9451,821.1906,,147,-33,,,,,,,,,,,,,,,,bars/031.png,bars/mask008.png,,,,,,,,,,,,0,1,,,,,,,6,0,5,0,,,,,,,,,,,820.4404,820.9451,821.1906,825.6407,space,4.438,,825.6407,27,68,826.6403,826.6403,826.649,,,,0,2,2,2,1,120,35,,,,,,,,
,,6159d36b31fe01e003282538,65af568a91bb652b9495bacd,2024-01-23_08h04.51.677,bars,2023.2.3,Win32,58.82352941,657b66ea316d21385b68909f,,,,,,,,,,,826.6491,827.6404,,,828.1287,828.3739,,72,72,,,,,,,,,,,,,,,,bars/028.png,bars/mask008.png,,,,,,,,,,,,0,1,,,,,,,4,2,4,2,,,,,,,,,,,827.6404,828.1287,828.3739,831.2907,space,2.9107,,831.2908,27,48,832.2906,832.2906,832.2977,,,,0,3,3,3,1,45,120,,,,,,,,
,,6159d36b31fe01e003282538,65af568a91bb652b9495bacd,2024-01-23_08h04.51.677,bars,2023.2.3,Win32,58.82352941,657b66ea316d21385b68909f,,,,,,,,,,,832.2978,833.2904,,,833.7907,834.0452,,42,42,,,,,,,,,,,,,,,,bars/009.png,bars/mask005.png,,,,,,,,,,,,1,1,,,,,,,6,4,6,4,,,,,,,,,,,833.2905,833.7906,834.0452,838.0074,space,3.94,,838.0074,27,63,839.0073,839.0073,839.0142,,,,0,4,4,4,1,15,105,,,,,,,,
,,6159d36b31fe01e003282538,65af568a91bb652b9495bacd,2024-01-23_08h04.51.677,bars,2023.2.3,Win32,58.82352941,657b66ea316d21385b68909f,,,,,,,,,,,839.0144,840.0071,,,840.5074,840.7573,,169,-11,,,,,,,,,,,,,,,,bars/014.png,bars/mask001.png,,,,,,,,,,,,1,2,,,,,,,4,2,3,2,,,,,,,,,,,840.0071,840.5074,840.7573,844.5741,space,3.8074,,844.5741,89,11,845.5738,845.5738,845.5816,,,,0,5,5,5,1,80,0,,,,,,,,
,,6159d36b31fe01e003282538,65af568a91bb652b9495bacd,2024-01-23_08h04.51.677,bars,2023.2.3,Win32,58.82352941,657b66ea316d21385b68909f,,,,,,,,,,,845.5817,846.5739,,,847.0736,847.3239,,20,20,,,,,,,,,,,,,,,,bars/007.png,bars/mask004.png,,,,,,,,,,,,0,1,,,,,,,2,4,2,5,,,,,,,,,,,846.5739,847.0736,847.3239,884.7404,space,37.4088,,884.7405,25,35,885.7403,885.7403,885.7485,,,,0,6,6,6,1,175,55,,,,,,,,
,,6159d36b31fe01e003282538,65af568a91bb652b9495bacd,2024-01-23_08h04.51.677,bars,2023.2.3,Win32,58.82352941,657b66ea316d21385b68909f,,,,,,,,,,,885.7487,886.7405,,,887.2401,887.4784,,173,-7,,,,,,,,,,,,,,,,bars/034.png,bars/mask002.png,,,,,,,,,,,,0,1,,,,,,,4,2,5,2,,,,,,,,,,,886.7405,887.2401,887.4785,888.7622,space,1.2671,,888.7622,48,72,889.757,889.7571,889.7641,,,,0,7,7,7,1,125,65,,,,,,,,
,,6159d36b31fe01e003282538,65af568a91bb652b9495bacd,2024-01-23_08h04.51.677,bars,2023.2.3,Win32,58.82352941,657b66ea316d21385b68909f,,,,,,,,,,,889.7643,890.7571,,,891.2573,891.5073,,62,62,,,,,,,,,,,,,,,,bars/004.png,bars/mask004.png,,,,,,,,,,,,0,1,,,,,,,2,4,2,6,,,,,,,,,,,890.7571,891.2573,891.5074,893.0736,space,1.5451,,893.0736,37,63,894.0738,894.0738,894.0809,,,,0,8,8,8,1,25,125,,,,,,,,
,,6159d36b31fe01e003282538,65af568a91bb652b9495bacd,2024-01-23_08h04.51.677,bars,2023.2.3,Win32,58.82352941,657b66ea316d21385b68909f,,,,,,,,,,,894.0811,895.0784,,,895.5738,895.8239,,50,230,,,,,,,,,,,,,,,,bars/040.png,bars/mask005.png,,,,,,,,,,,,0,2,,,,,,,0,2,0,2,,,,,,,,,,,895.0784,895.5738,895.8239,898.657,space,2.8008,,898.657,90,45,899.6568,899.6568,899.665,,,,0,9,9,9,1,140,5,,,,,,,,
,,6159d36b31fe01e003282538,65af568a91bb652b9495bacd,2024-01-23_08h04.51.677,bars,2023.2.3,Win32,58.82352941,657b66ea316d21385b68909f,,,,,,,,,,,899.6651,900.6569,,,901.157,901.4069,,84,84,,,,,,,,,,,,,,,,bars/001.png,bars/mask004.png,,,,,,,,,,,,5,2,,,,,,,0,4,0,5,,,,,,,,,,,900.6569,901.1569,901.4069,906.5739,space,5.1501,,906.5739,46,1,907.5737,907.5738,907.5809,,,,0,10,10,10,1,130,85,,,,,,,,
,,6159d36b31fe01e003282538,65af568a91bb652b9495bacd,2024-01-23_08h04.51.677,bars,2023.2.3,Win32,58.82352941,657b66ea316d21385b68909f,,,,,,,,,,,907.581,908.5738,,,909.0619,909.3071,,117,117,,,,,,,,,,,,,,,,bars/002.png,bars/mask008.png,,,,,,,,,,,,1,1,,,,,,,2,2,1,0,,,,,,,,,,,908.5738,909.0619,909.3071,911.4735,space,2.1616,,911.4736,13,32,912.4784,912.4784,912.4859,,,,0,11,11,11,1,130,85,,,,,,,,
,,6159d36b31fe01e003282538,65af568a91bb652b9495bacd,2024-01-23_08h04.51.677,bars,2023.2.3,Win32,58.82352941,657b66ea316d21385b68909f,,,,,,,,,,,912.486,913.4738,,,913.9738,914.2236,,4,4,,,,,,,,,,,,,,,,bars/037.png,bars/mask005.png,,,,,,,,,,,,0,1,,,,,,,4,4,5,5,,,,,,,,,,,913.4739,913.9737,914.2236,929.0407,space,14.7839,,929.0408,34,79,930.0285,930.0285,930.0356,,,,0,12,12,12,1,150,105,,,,,,,,
,,6159d36b31fe01e003282538,65af568a91bb652b9495bacd,2024-01-23_08h04.51.677,bars,2023.2.3,Win32,58.82352941,657b66ea316d21385b68909f,,,,,,,,,,,930.0358,931.0236,,,931.5236,931.7784,,110,110,,,,,,,,,,,,,,,,bars/039.png,bars/mask004.png,,,,,,,,,,,,3,2,,,,,,,2,2,0,3,,,,,,,,,,,931.0237,931.5236,931.7784,935.2071,space,3.4131,,935.2072,65,5,936.207,936.207,936.2147,,,,0,13,13,13,1,175,105,,,,,,,,
,,6159d36b31fe01e003282538,65af568a91bb652b9495bacd,2024-01-23_08h04.51.677,bars,2023.2.3,Win32,58.82352941,657b66ea316d21385b68909f,,,,,,,,,,,936.2149,937.2072,,,937.7073,937.9569,,128,-52,,,,,,,,,,,,,,,,bars/039.png,bars/mask006.png,,,,,,,,,,,,1,2,,,,,,,4,4,5,4,,,,,,,,,,,937.2072,937.7072,937.9569,946.6071,space,8.6341,,946.6071,47,23,947.6069,947.6069,947.6148,,,,0,14,14,14,1,175,105,,,,,,,,
,,6159d36b31fe01e003282538,65af568a91bb652b9495bacd,2024-01-23_08h04.51.677,bars,2023.2.3,Win32,58.82352941,657b66ea316d21385b68909f,,,,,,,,,,,947.6149,948.6116,,,949.107,949.345,,133,133,,,,,,,,,,,,,,,,bars/022.png,bars/mask002.png,,,,,,,,,,,,0,1,,,,,,,2,6,1,7,,,,,,,,,,,948.6116,949.107,949.345,960.6406,space,11.2715,,960.6406,38,67,961.6402,961.6402,961.6483,,,,0,15,15,15,1,95,20,,,,,,,,
,,6159d36b31fe01e003282538,65af568a91bb652b9495bacd,2024-01-23_08h04.51.677,bars,2023.2.3,Win32,58.82352941,657b66ea316d21385b68909f,,,,,,,,,,,961.6485,962.6447,,,963.1402,963.3784,,132,132,,,,,,,,,,,,,,,,bars/000.png,bars/mask006.png,,,,,,,,,,,,3,2,,,,,,,4,4,2,5,,,,,,,,,,,962.6448,963.1402,963.3784,965.9574,space,2.5502,,965.9574,88,13,966.9571,966.9571,966.9645,,,,0,16,16,16,1,40,145,,,,,,,,
,,6159d36b31fe01e003282538,65af568a91bb652b9495bacd,2024-01-23_08h04.51.677,bars,2023.2.3,Win32,58.82352941,657b66ea316d21385b68909f,,,,,,,,,,,966.9646,967.9572,,,968.4615,968.7071,,149,149,,,,,,,,,,,,,,,,bars/032.png,bars/mask005.png,,,,,,,,,,,,1,1,,,,,,,6,2,5,2,,,,,,,,,,,967.9572,968.4615,968.7072,976.7235,space,8.0093,,976.7235,24,51,977.7235,977.7235,977.7313,,,,0,17,17,17,1,125,20,,,,,,,,
,,6159d36b31fe01e003282538,65af568a91bb652b9495bacd,2024-01-23_08h04.51.677,bars,2023.2.3,Win32,58.82352941,657b66ea316d21385b68909f,,,,,,,,,,,977.7315,978.7284,,,979.2237,979.4616,,126,126,,,,,,,,,,,,,,,,bars/012.png,bars/mask009.png,,,,,,,,,,,,0,1,,,,,,,8,4,7,3,,,,,,,,,,,978.7284,979.2237,979.4616,1042.6902,space,63.2024,,1042.6902,36,69,1043.6903,1043.6903,1043.6976,,,,0,18,18,18,1,90,15,,,,,,,,
,,6159d36b31fe01e003282538,65af568a91bb652b9495bacd,2024-01-23_08h04.51.677,bars,2023.2.3,Win32,58.82352941,657b66ea316d21385b68909f,,,,,,,,,,,1043.6978,1044.6903,,,1045.1902,1045.4399,,33,213,,,,,,,,,,,,,,,,bars/027.png,bars/mask003.png,,,,,,,,,,,,1,2,,,,,,,6,2,5,3,,,,,,,,,,,1044.6903,1045.1901,1045.44,1053.7568,space,8.3084,,1053.7568,77,17,1054.757,1054.7571,1054.7649,,,,0,19,19,19,1,110,50,,,,,,,,
,,6159d36b31fe01e003282538,65af568a91bb652b9495bacd,2024-01-23_08h04.51.677,bars,2023.2.3,Win32,58.82352941,657b66ea316d21385b68909f,,,,,,,,,,,1054.765,1055.757,,,1056.2569,1056.5067,,33,213,,,,,,,,,,,,,,,,bars/039.png,bars/mask004.png,,,,,,,,,,,,0,1,,,,,,,8,4,8,2,,,,,,,,,,,1055.757,1056.2569,1056.5067,1059.5284,space,3.017,,1059.5284,38,72,1060.5234,1060.5234,1060.5311,,,,0,20,20,20,1,175,105,,,,,,,,
,,6159d36b31fe01e003282538,65af568a91bb652b9495bacd,2024-01-23_08h04.51.677,bars,2023.2.3,Win32,58.82352941,657b66ea316d21385b68909f,,,,,,,,,,,1060.5312,1061.5238,,,1062.0237,1062.2614,,12,12,,,,,,,,,,,,,,,,bars/008.png,bars/mask005.png,,,,,,,,,,,,4,2,,,,,,,6,6,5,6,,,,,,,,,,,1061.5238,1062.0237,1062.2615,1093.3569,space,31.0746,,1093.3569,82,12,1094.3567,1094.3567,1094.3644,,,,0,21,21,21,1,110,0,,,,,,,,
,,6159d36b31fe01e003282538,65af568a91bb652b9495bacd,2024-01-23_08h04.51.677,bars,2023.2.3,Win32,58.82352941,657b66ea316d21385b68909f,,,,,,,,,,,1094.3646,1095.3569,,,1095.8613,1096.1071,,37,37,,,,,,,,,,,,,,,,bars/000.png,bars/mask001.png,,,,,,,,,,,,8,1,,,,,,,8,4,9,4,,,,,,,,,,,1095.3569,1095.8613,1096.1071,1098.2571,space,2.1336,,1098.2571,3,72,1099.257,1099.257,1099.2643,,,,0,22,22,22,1,40,145,,,,,,,,
,,6159d36b31fe01e003282538,65af568a91bb652b9495bacd,2024-01-23_08h04.51.677,bars,2023.2.3,Win32,58.82352941,657b66ea316d21385b68909f,,,,,,,,,,,1099.2645,1100.2566,,,1100.7569,1101.0068,,48,48,,,,,,,,,,,,,,,,bars/028.png,bars/mask002.png,,,,,,,,,,,,9,1,,,,,,,10,2,10,2,,,,,,,,,,,1100.2566,1100.7569,1101.0068,1107.0071,space,5.9894,,1107.0071,3,72,1108.0067,1108.0067,1108.0137,,,,0,23,23,23,1,45,120,,,,,,,,
,,6159d36b31fe01e003282538,65af568a91bb652b9495bacd,2024-01-23_08h04.51.677,bars,2023.2.3,Win32,58.82352941,657b66ea316d21385b68909f,,,,,,,,,,,1108.0138,1109.0069,,,1109.507,1109.7567,,67,67,,,,,,,,,,,,,,,,bars/020.png,bars/mask009.png,,,,,,,,,,,,0,1,,,,,,,10,4,10,6,,,,,,,,,,,1109.0069,1109.507,1109.7568,1112.907,space,3.1353,,1112.907,48,77,1113.9113,1113.9113,1113.9184,,,,0,24,24,24,1,115,170,,,,,,,,
,,6159d36b31fe01e003282538,65af568a91bb652b9495bacd,2024-01-23_08h04.51.677,bars,2023.2.3,Win32,58.82352941,657b66ea316d21385b68909f,,,,,,,,,,,1113.9185,1114.9069,,,1115.4069,1115.6567,,35,215,,,,,,,,,,,,,,,,bars/007.png,bars/mask009.png,,,,,,,,,,,,2,2,,,,,,,10,6,9,7,,,,,,,,,,,1114.9069,1115.4069,1115.6567,1121.1901,space,5.5173,,1121.1901,40,20,1122.1904,1122.1904,1122.1979,,,,0,25,25,25,1,175,55,,,,,,,,
,,6159d36b31fe01e003282538,65af568a91bb652b9495bacd,2024-01-23_08h04.51.677,bars,2023.2.3,Win32,58.82352941,657b66ea316d21385b68909f,,,,,,,,,,,1122.1981,1123.1898,,,1123.6781,1123.9234,,47,47,,,,,,,,,,,,,,,,bars/035.png,bars/mask005.png,,,,,,,,,,,,5,2,,,,,,,10,8,10,8,,,,,,,,,,,1123.1898,1123.678,1123.9234,1126.3404,space,2.4086,,1126.3405,52,13,1127.34,1127.34,1127.3475,,,,0,26,26,26,1,175,60,,,,,,,,
,,6159d36b31fe01e003282538,65af568a91bb652b9495bacd,2024-01-23_08h04.51.677,bars,2023.2.3,Win32,58.82352941,657b66ea316d21385b68909f,,,,,,,,,,,1127.3476,1128.3399,,,1128.8402,1129.0949,,37,217,,,,,,,,,,,,,,,,bars/037.png,bars/mask008.png,,,,,,,,,,,,0,1,,,,,,,10,10,10,10,,,,,,,,,,,1128.3399,1128.8402,1129.095,1131.7234,space,2.6217,,1131.7234,67,68,1132.7236,1132.7236,1132.7311,,,,0,27,27,27,1,150,105,,,,,,,,
,,6159d36b31fe01e003282538,65af568a91bb652b9495bacd,2024-01-23_08h04.51.677,bars,2023.2.3,Win32,58.82352941,657b66ea316d21385b68909f,,,,,,,,,,,1132.7313,1133.7235,,,1134.2235,1134.4735,,146,-34,,,,,,,,,,,,,,,,bars/027.png,bars/mask009.png,,,,,,,,,,,,0,1,,,,,,,10,8,10,8,,,,,,,,,,,1133.7235,1134.2235,1134.4735,1136.7569,space,2.2673,,1136.7569,36,84,1137.7566,1137.7566,1137.764,,,,0,28,28,28,1,110,50,,,,,,,,
,,6159d36b31fe01e003282538,65af568a91bb652b9495bacd,2024-01-23_08h04.51.677,bars,2023.2.3,Win32,58.82352941,657b66ea316d21385b68909f,,,,,,,,,,,1137.7641,1138.757,,,1139.2616,1139.5065,,167,167,,,,,,,,,,,,,,,,bars/034.png,bars/mask000.png,,,,,,,,,,,,0,1,,,,,,,8,10,8,10,,,,,,,,,,,1138.757,1139.2616,1139.5066,1143.0069,space,3.4893,,1143.0069,42,78,1143.9948,1143.9948,1144.0016,,,,0,29,29,29,1,125,65,,,,,,,,
,,6159d36b31fe01e003282538,65af568a91bb652b9495bacd,2024-01-23_08h04.51.677,bars,2023.2.3,Win32,58.82352941,657b66ea316d21385b68909f,,,,,,,,,,,1144.0018,1144.9947,,,1145.4902,1145.728,,147,-33,,,,,,,,,,,,,,,,bars/025.png,bars/mask007.png,,,,,,,,,,,,0,1,,,,,,,6,10,7,10,,,,,,,,,,,1144.9948,1145.4902,1145.728,1147.9569,space,2.2007,,1147.9569,42,73,1148.9569,1148.9569,1148.9638,,,,0,30,30,30,1,105,40,,,,,,,,
,,6159d36b31fe01e003282538,65af568a91bb652b9495bacd,2024-01-23_08h04.51.677,bars,2023.2.3,Win32,58.82352941,657b66ea316d21385b68909f,,,,,,,,,,,1148.9639,1149.9566,,,1150.4568,1150.7067,,136,136,,,,,,,,,,,,,,,,bars/011.png,bars/mask009.png,,,,,,,,,,,,1,1,,,,,,,4,10,3,10,,,,,,,,,,,1149.9566,1150.4568,1150.7068,1153.3736,space,2.6572,,1153.3736,24,51,1154.3733,1154.3734,1154.3739,,,,0,31,31,31,1,160,85,,,,,,,,
,,6159d36b31fe01e003282538,65af568a91bb652b9495bacd,2024-01-23_08h04.51.677,bars,2023.2.3,Win32,58.82352941,657b66ea316d21385b68909f,,,,,,,,,,,1154.3741,1155.3736,,,1155.8615,1156.1067,,92,92,,,,,,,,,,,,,,,,bars/004.png,bars/mask006.png,,,,,,,,,,,,0,2,,,,,,,6,10,7,10,,,,,,,,,,,1155.3736,1155.8615,1156.1068,1178.1734,space,22.0573,,1178.1734,67,33,1179.1732,1179.1732,1179.1813,,,,0,32,32,32,1,25,125,,,,,,,,
,,6159d36b31fe01e003282538,65af568a91bb652b9495bacd,2024-01-23_08h04.51.677,bars,2023.2.3,Win32,58.82352941,657b66ea316d21385b68909f,,,,,,,,,,,1179.1815,1180.1784,,,1180.6736,1180.9113,,32,32,,,,,,,,,,,,,,,,bars/039.png,bars/mask003.png,,,,,,,,,,,,0,1,,,,,,,4,10,3,9,,,,,,,,,,,1180.1784,1180.6735,1180.9114,1183.6068,space,2.6673,,1183.6068,37,73,1184.6066,1184.6066,1184.6143,,,,0,33,33,33,1,175,105,,,,,,,,
,,6159d36b31fe01e003282538,65af568a91bb652b9495bacd,2024-01-23_08h04.51.677,bars,2023.2.3,Win32,58.82352941,657b66ea316d21385b68909f,,,,,,,,,,,1184.6144,1185.6066,,,1186.1068,1186.3569,,149,-31,,,,,,,,,,,,,,,,bars/036.png,bars/mask000.png,,,,,,,,,,,,7,1,,,,,,,6,8,8,8,,,,,,,,,,,1185.6066,1186.1068,1186.3569,1192.7902,space,6.4167,,1192.7902,4,51,1193.7899,1193.7899,1193.797,,,,0,34,34,34,1,145,20,,,,,,,,
,,6159d36b31fe01e003282538,65af568a91bb652b9495bacd,2024-01-23_08h04.51.677,bars,2023.2.3,Win32,58.82352941,657b66ea316d21385b68909f,,,,,,,,,,,1193.7971,1194.7898,,,1195.2901,1195.5398,,24,24,,,,,,,,,,,,,,,,bars/026.png,bars/mask004.png,,,,,,,,,,,,3,1,,,,,,,4,6,4,6,,,,,,,,,,,1194.7898,1195.2901,1195.5398,1221.4117,space,25.8671,,1221.4118,11,61,1222.4066,1222.4066,1222.4142,,,,0,35,35,35,1,35,85,,,,,,,,
,,6159d36b31fe01e003282538,65af568a91bb652b9495bacd,2024-01-23_08h04.51.677,bars,2023.2.3,Win32,58.82352941,657b66ea316d21385b68909f,,,,,,,,,,,1222.4144,1223.4121,,,1223.9065,1224.1568,,4,4,,,,,,,,,,,,,,,,bars/003.png,bars/mask003.png,,,,,,,,,,,,0,1,,,,,,,2,4,1,4,,,,,,,,,,,1223.4121,1223.9065,1224.1569,1225.89,space,1.7107,,1225.8901,21,44,1226.89,1226.89,1226.8968,,,,0,36,36,36,1,25,140,,,,,,,,
,,6159d36b31fe01e003282538,65af568a91bb652b9495bacd,2024-01-23_08h04.51.677,bars,2023.2.3,Win32,58.82352941,657b66ea316d21385b68909f,,,,,,,,,,,1226.8969,1227.8899,,,1228.3901,1228.64,,101,101,,,,,,,,,,,,,,,,bars/041.png,bars/mask003.png,,,,,,,,,,,,0,2,,,,,,,0,2,1,0,,,,,,,,,,,1227.89,1228.3901,1228.64,1233.0736,space,4.4198,,1233.0736,81,16,1234.0733,1234.0733,1234.0812,,,,0,37,37,37,1,20,85,,,,,,,,
,,6159d36b31fe01e003282538,65af568a91bb652b9495bacd,2024-01-23_08h04.51.677,bars,2023.2.3,Win32,58.82352941,657b66ea316d21385b68909f,,,,,,,,,,,1234.0814,1235.0734,,,1235.5735,1235.828,,105,105,,,,,,,,,,,,,,,,bars/041.png,bars/mask005.png,,,,,,,,,,,,0,2,,,,,,,2,0,2,1,,,,,,,,,,,1235.0734,1235.5734,1235.828,1238.3567,space,2.5128,,1238.3567,85,20,1239.3446,1239.3446,1239.3515,,,,0,38,38,38,1,20,85,,,,,,,,
,,6159d36b31fe01e003282538,65af568a91bb652b9495bacd,2024-01-23_08h04.51.677,bars,2023.2.3,Win32,58.82352941,657b66ea316d21385b68909f,,,,,,,,,,,1239.3516,1240.3401,,,1240.8399,1241.0947,,114,114,,,,,,,,,,,,,,,,bars/032.png,bars/mask007.png,,,,,,,,,,,,3,1,,,,,,,4,2,5,2,,,,,,,,,,,1240.3401,1240.8399,1241.0947,1244.3899,space,3.2733,,1244.39,11,86,1245.3901,1245.3901,1245.3976,,,,0,39,39,39,1,125,20,,,,,,,,
,,6159d36b31fe01e003282538,65af568a91bb652b9495bacd,2024-01-23_08h04.51.677,bars,2023.2.3,Win32,58.82352941,657b66ea316d21385b68909f,,,,,,,,,,,1245.3977,1246.3901,,,1246.8899,1247.1281,,149,149,,,,,,,,,,,,,,,,bars/001.png,bars/mask000.png,,,,,,,,,,,,3,1,,,,,,,6,0,7,1,,,,,,,,,,,1246.3901,1246.8899,1247.1281,1250.1235,space,2.9759,,1250.1235,19,64,1251.1233,1251.1233,1251.1298,,,,0,40,40,40,1,130,85,,,,,,,,
,,6159d36b31fe01e003282538,65af568a91bb652b9495bacd,2024-01-23_08h04.51.677,bars,2023.2.3,Win32,58.82352941,657b66ea316d21385b68909f,,,,,,,,,,,1251.13,1252.1234,,,1252.6234,1252.8613,,123,123,,,,,,,,,,,,,,,,bars/020.png,bars/mask007.png,,,,,,,,,,,,3,1,,,,,,,4,2,4,2,,,,,,,,,,,1252.1234,1252.6234,1252.8613,1254.99,space,2.1186,,1254.9901,8,47,1255.9778,1255.9778,1255.9783,,,,0,41,41,41,1,115,170,,,,,,,,
,,6159d36b31fe01e003282538,65af568a91bb652b9495bacd,2024-01-23_08h04.51.677,bars,2023.2.3,Win32,58.82352941,657b66ea316d21385b68909f,,,,,,,,,,,1255.9784,1256.9732,,,1257.4734,1257.7232,,27,207,,,,,,,,,,,,,,,,bars/028.png,bars/mask003.png,,,,,,,,,,,,0,1,,,,,,,2,4,1,3,,,,,,,,,,,1256.9732,1257.4733,1257.7232,1263.8614,space,6.1334,,1263.8614,18,87,1264.8567,1264.8567,1264.864,,,,0,42,42,42,1,45,120,,,,,,,,
,,6159d36b31fe01e003282538,65af568a91bb652b9495bacd,2024-01-23_08h04.51.677,bars,2023.2.3,Win32,58.82352941,657b66ea316d21385b68909f,,,,,,,,,,,1264.864,1265.8567,,,1266.3612,1266.6064,,0,0,,,,,,,,,,,,,,,,bars/049.png,bars/mask000.png,,,,,,,,,,,,0,1,,,,,,,0,2,1,1,,,,,,,,,,,1265.8567,1266.3612,1266.6065,1291.2235,space,24.6047,,1291.2235,20,65,1292.2234,1292.2234,1292.2307,,,,0,43,43,43,1,160,115,,,,,,,,
,,6159d36b31fe01e003282538,65af568a91bb652b9495bacd,2024-01-23_08h04.51.677,bars,2023.2.3,Win32,58.82352941,657b66ea316d21385b68909f,,,,,,,,,,,1292.2308,1293.2234,,,1293.7234,1293.9778,,91,91,,,,,,,,,,,,,,,,bars/015.png,bars/mask000.png,,,,,,,,,,,,0,1,,,,,,,0,4,0,4,,,,,,,,,,,1293.2234,1293.7234,1293.9779,1297.2401,space,3.2341,,1297.2401,19,69,1298.2399,1298.2399,1298.247,,,,0,44,44,44,1,110,160,,,,,,,,
,,6159d36b31fe01e003282538,65af568a91bb652b9495bacd,2024-01-23_08h04.51.677,bars,2023.2.3,Win32,58.82352941,657b66ea316d21385b68909f,,,,,,,,,,,1298.2471,1299.24,,,1299.7445,1299.99,,2,2,,,,,,,,,,,,,,,,bars/014.png,bars/mask006.png,,,,,,,,,,,,8,2,,,,,,,0,6,0,9,,,,,,,,,,,1299.24,1299.7445,1299.99,1301.9069,space,1.9095,,1301.9069,78,2,1302.911,1302.911,1302.9184,,,,0,45,45,45,1,80,0,,,,,,,,
,,6159d36b31fe01e003282538,65af568a91bb652b9495bacd,2024-01-23_08h04.51.677,bars,2023.2.3,Win32,58.82352941,657b66ea316d21385b68909f,,,,,,,,,,,1302.9186,1303.9066,,,1304.4064,1304.6566,,176,-4,,,,,,,,,,,,,,,,bars/024.png,bars/mask004.png,,,,,,,,,,,,2,2,,,,,,,2,4,2,3,,,,,,,,,,,1303.9066,1304.4064,1304.6567,1307.6735,space,3.0105,,1307.6735,56,6,1308.6731,1308.6731,1308.6799,,,,0,46,46,46,1,120,170,,,,,,,,
,,6159d36b31fe01e003282538,65af568a91bb652b9495bacd,2024-01-23_08h04.51.677,bars,2023.2.3,Win32,58.82352941,657b66ea316d21385b68909f,,,,,,,,,,,1308.68,1309.6732,,,1310.161,1310.4068,,170,-10,,,,,,,,,,,,,,,,bars/047.png,bars/mask002.png,,,,,,,,,,,,0,1,,,,,,,0,2,1,2,,,,,,,,,,,1309.6732,1310.161,1310.4068,1326.8234,space,16.4046,,1326.8235,25,80,1327.8231,1327.8231,1327.8306,,,,0,47,47,47,1,15,70,,,,,,,,
,,6159d36b31fe01e003282538,65af568a91bb652b9495bacd,2024-01-23_08h04.51.677,bars,2023.2.3,Win32,58.82352941,657b66ea316d21385b68909f,,,,,,,,,,,1327.8308,1328.8232,,,1329.3231,1329.5734,,93,93,,,,,,,,,,,,,,,,bars/000.png,bars/mask006.png,,,,,,,,,,,,0,2,,,,,,,0,4,2,5,,,,,,,,,,,1328.8232,1329.323,1329.5734,1331.4568,space,1.8699,,1331.4569,53,52,1332.4566,1332.4566,1332.464,,,,0,48,48,48,1,40,145,,,,,,,,
,,6159d36b31fe01e003282538,65af568a91bb652b9495bacd,2024-01-23_08h04.51.677,bars,2023.2.3,Win32,58.82352941,657b66ea316d21385b68909f,,,,,,,,,,,1332.4642,1333.4564,,,1333.9567,1334.2067,,157,-23,,,,,,,,,,,,,,,,bars/025.png,bars/mask008.png,,,,,,,,,,,,0,1,,,,,,,2,2,1,3,,,,,,,,,,,1333.4565,1333.9567,1334.2067,1337.3735,space,3.1335,,1337.3735,52,63,1338.373,1338.373,1338.3806,,,,0,49,49,49,1,105,40,,,,,,,,
,,6159d36b31fe01e003282538,65af568a91bb652b9495bacd,2024-01-23_08h04.51.677,bars,2023.2.3,Win32,58.82352941,657b66ea316d21385b68909f,,,,,,,,,,,,,,,,,,,,,,,,,,,,,,,,,,,,,,,,,,,,,,,,,,,,,,,,,,,,,,,,,,,,,,,,,,,,,,,,,,,,,,,,,,,,,1338.3808,1398.373,0,1,1,1,1,sequence_tables/blk016.csv
,,6159d36b31fe01e003282538,65af568a91bb652b9495bacd,2024-01-23_08h04.51.677,bars,2023.2.3,Win32,58.82352941,657b66ea316d21385b68909f,,,,,,,,,,,1531.8661,1532.8564,,,1533.3443,1533.5896,,164,-16,,,,,,,,,,,,,,,,bars/007.png,bars/mask002.png,,,,,,,,,,,,1,1,,,,,,,2,9,1,9,,,,,,1398.3803,1531.8563,space,133.45,,1532.8565,1533.3442,1533.5896,1539.3064,space,5.7012,,1539.3064,11,71,1540.3106,1540.3106,1540.3179,,,,0,0,0,0,1,175,55,,,,,,,,
,,6159d36b31fe01e003282538,65af568a91bb652b9495bacd,2024-01-23_08h04.51.677,bars,2023.2.3,Win32,58.82352941,657b66ea316d21385b68909f,,,,,,,,,,,1540.3181,1541.3062,,,1541.806,1542.0561,,112,112,,,,,,,,,,,,,,,,bars/043.png,bars/mask004.png,,,,,,,,,,,,2,2,,,,,,,4,7,7,6,,,,,,,,,,,1541.3062,1541.806,1542.0561,1544.0064,space,1.934,,1544.0064,82,18,1545.0062,1545.0062,1545.0141,,,,0,1,1,1,1,30,130,,,,,,,,
,,6159d36b31fe01e003282538,65af568a91bb652b9495bacd,2024-01-23_08h04.51.677,bars,2023.2.3,Win32,58.82352941,657b66ea316d21385b68909f,,,,,,,,,,,1545.0141,1546.0063,,,1546.5063,1546.7563,,21,201,,,,,,,,,,,,,,,,bars/032.png,bars/mask002.png,,,,,,,,,,,,8,2,,,,,,,6,9,6,8,,,,,,,,,,,1546.0063,1546.5063,1546.7563,1548.6398,space,1.8671,,1548.6398,76,1,1549.6396,1549.6397,1549.6403,,,,0,2,2,2,1,125,20,,,,,,,,
,,6159d36b31fe01e003282538,65af568a91bb652b9495bacd,2024-01-23_08h04.51.677,bars,2023.2.3,Win32,58.82352941,657b66ea316d21385b68909f,,,,,,,,,,,1549.6405,1550.6397,,,1551.1397,1551.3896,,65,65,,,,,,,,,,,,,,,,bars/039.png,bars/mask004.png,,,,,,,,,,,,0,2,,,,,,,8,7,6,8,,,,,,,,,,,1550.6397,1551.1397,1551.3896,1613.2229,space,61.8209,,1613.2229,70,40,1614.2227,1614.2227,1614.2302,,,,0,3,3,3,1,175,105,,,,,,,,
,,6159d36b31fe01e003282538,65af568a91bb652b9495bacd,2024-01-23_08h04.51.677,bars,2023.2.3,Win32,58.82352941,657b66ea316d21385b68909f,,,,,,,,,,,1614.2303,1615.2227,,,1615.7109,1615.9562,,40,40,,,,,,,,,,,,,,,,bars/004.png,bars/mask000.png,,,,,,,,,,,,3,1,,,,,,,6,9,5,9,,,,,,,,,,,1615.2228,1615.7109,1615.9563,1617.9729,space,2.0004,,1617.9729,15,85,1618.9728,1618.9728,1618.9806,,,,0,4,4,4,1,25,125,,,,,,,,
,,6159d36b31fe01e003282538,65af568a91bb652b9495bacd,2024-01-23_08h04.51.677,bars,2023.2.3,Win32,58.82352941,657b66ea316d21385b68909f,,,,,,,,,,,1618.9807,1619.9773,,,1620.4729,1620.7106,,151,151,,,,,,,,,,,,,,,,bars/025.png,bars/mask004.png,,,,,,,,,,,,0,1,,,,,,,8,7,8,8,,,,,,,,,,,1619.9774,1620.4728,1620.7106,1622.2564,space,1.5326,,1622.2564,46,69,1623.2563,1623.2563,1623.2567,,,,0,5,5,5,1,105,40,,,,,,,,
,,6159d36b31fe01e003282538,65af568a91bb652b9495bacd,2024-01-23_08h04.51.677,bars,2023.2.3,Win32,58.82352941,657b66ea316d21385b68909f,,,,,,,,,,,1623.2568,1624.2562,,,1624.7445,1624.9896,,92,92,,,,,,,,,,,,,,,,bars/019.png,bars/mask000.png,,,,,,,,,,,,4,2,,,,,,,6,5,6,7,,,,,,,,,,,1624.2562,1624.7444,1624.9896,1626.5059,space,1.5091,,1626.5059,47,13,1627.5107,1627.5107,1627.5118,,,,0,6,6,6,1,45,105,,,,,,,,
,,6159d36b31fe01e003282538,65af568a91bb652b9495bacd,2024-01-23_08h04.51.677,bars,2023.2.3,Win32,58.82352941,657b66ea316d21385b68909f,,,,,,,,,,,1627.5119,1628.506,,,1629.0059,1629.256,,22,22,,,,,,,,,,,,,,,,bars/043.png,bars/mask007.png,,,,,,,,,,,,1,1,,,,,,,4,7,2,6,,,,,,,,,,,1628.506,1629.0059,1629.256,1630.6896,space,1.4266,,1630.6896,8,72,1631.6895,1631.6895,1631.6908,,,,0,7,7,7,1,30,130,,,,,,,,
,,6159d36b31fe01e003282538,65af568a91bb652b9495bacd,2024-01-23_08h04.51.677,bars,2023.2.3,Win32,58.82352941,657b66ea316d21385b68909f,,,,,,,,,,,1631.691,1632.6896,,,1633.1774,1633.4229,,134,134,,,,,,,,,,,,,,,,bars/038.png,bars/mask008.png,,,,,,,,,,,,0,1,,,,,,,2,9,2,8,,,,,,,,,,,1632.6896,1633.1774,1633.4229,1635.0397,space,1.584,,1635.0397,31,64,1636.0395,1636.0395,1636.0401,,,,0,8,8,8,1,165,70,,,,,,,,
,,6159d36b31fe01e003282538,65af568a91bb652b9495bacd,2024-01-23_08h04.51.677,bars,2023.2.3,Win32,58.82352941,657b66ea316d21385b68909f,,,,,,,,,,,1636.0402,1637.0395,,,1637.5395,1637.7894,,31,31,,,,,,,,,,,,,,,,bars/028.png,bars/mask009.png,,,,,,,,,,,,1,1,,,,,,,0,10,1,10,,,,,,,,,,,1637.0395,1637.5395,1637.7894,1639.8893,space,2.0851,,1639.8894,14,89,1640.8896,1640.8896,1640.896,,,,0,9,9,9,1,45,120,,,,,,,,
,,6159d36b31fe01e003282538,65af568a91bb652b9495bacd,2024-01-23_08h04.51.677,bars,2023.2.3,Win32,58.82352941,657b66ea316d21385b68909f,,,,,,,,,,,1640.8962,1641.8895,,,1642.3776,1642.6279,,57,57,,,,,,,,,,,,,,,,bars/009.png,bars/mask001.png,,,,,,,,,,,,0,1,,,,,,,2,8,3,7,,,,,,,,,,,1641.8895,1642.3775,1642.6279,1645.0727,space,2.4273,,1645.0727,42,48,1646.0728,1646.0729,1646.0732,,,,0,10,10,10,1,15,105,,,,,,,,
,,6159d36b31fe01e003282538,65af568a91bb652b9495bacd,2024-01-23_08h04.51.677,bars,2023.2.3,Win32,58.82352941,657b66ea316d21385b68909f,,,,,,,,,,,1646.0733,1647.0727,,,1647.5775,1647.8225,,20,200,,,,,,,,,,,,,,,,bars/004.png,bars/mask006.png,,,,,,,,,,,,0,1,,,,,,,0,10,0,10,,,,,,,,,,,1647.0728,1647.5775,1647.8225,1650.773,space,2.9339,,1650.773,5,75,1651.7728,1651.7728,1651.7801,,,,0,11,11,11,1,25,125,,,,,,,,
,,6159d36b31fe01e003282538,65af568a91bb652b9495bacd,2024-01-23_08h04.51.677,bars,2023.2.3,Win32,58.82352941,657b66ea316d21385b68909f,,,,,,,,,,,1651.7802,1652.7726,,,1653.2728,1653.5107,,20,20,,,,,,,,,,,,,,,,bars/003.png,bars/mask004.png,,,,,,,,,,,,2,1,,,,,,,2,8,2,6,,,,,,,,,,,1652.7726,1653.2728,1653.5107,1655.6063,space,2.0748,,1655.6063,5,60,1656.6059,1656.6059,1656.6126,,,,0,12,12,12,1,25,140,,,,,,,,
,,6159d36b31fe01e003282538,65af568a91bb652b9495bacd,2024-01-23_08h04.51.677,bars,2023.2.3,Win32,58.82352941,657b66ea316d21385b68909f,,,,,,,,,,,1656.6128,1657.6059,,,1658.1063,1658.356,,25,25,,,,,,,,,,,,,,,,bars/016.png,bars/mask000.png,,,,,,,,,,,,3,1,,,,,,,4,10,5,9,,,,,,,,,,,1657.6059,1658.1063,1658.356,1660.8728,space,2.5025,,1660.8728,15,40,1661.8725,1661.8725,1661.8796,,,,0,13,13,13,1,40,165,,,,,,,,
,,6159d36b31fe01e003282538,65af568a91bb652b9495bacd,2024-01-23_08h04.51.677,bars,2023.2.3,Win32,58.82352941,657b66ea316d21385b68909f,,,,,,,,,,,1661.8797,1662.8729,,,1663.3779,1663.6229,,102,102,,,,,,,,,,,,,,,,bars/041.png,bars/mask001.png,,,,,,,,,,,,4,2,,,,,,,2,10,2,10,,,,,,,,,,,1662.8729,1663.3779,1663.6229,1665.3228,space,1.6918,,1665.3228,82,17,1666.3228,1666.3228,1666.3303,,,,0,14,14,14,1,20,85,,,,,,,,
,,6159d36b31fe01e003282538,65af568a91bb652b9495bacd,2024-01-23_08h04.51.677,bars,2023.2.3,Win32,58.82352941,657b66ea316d21385b68909f,,,,,,,,,,,1666.3303,1667.3228,,,1667.8226,1668.0728,,7,7,,,,,,,,,,,,,,,,bars/030.png,bars/mask007.png,,,,,,,,,,,,0,1,,,,,,,0,10,0,10,,,,,,,,,,,1667.3228,1667.8225,1668.0729,1704.3059,space,36.2175,,1704.306,47,58,1705.2939,1705.2939,1705.3016,,,,0,15,15,15,1,140,65,,,,,,,,
,,6159d36b31fe01e003282538,65af568a91bb652b9495bacd,2024-01-23_08h04.51.677,bars,2023.2.3,Win32,58.82352941,657b66ea316d21385b68909f,,,,,,,,,,,1705.3018,1706.2894,,,1706.7894,1707.0441,,96,96,,,,,,,,,,,,,,,,bars/004.png,bars/mask006.png,,,,,,,,,,,,0,2,,,,,,,2,10,2,10,,,,,,,,,,,1706.2894,1706.7894,1707.0441,1710.5562,space,3.4906,,1710.5562,71,29,1711.5561,1711.5562,1711.5638,,,,0,16,16,16,1,25,125,,,,,,,,
,,6159d36b31fe01e003282538,65af568a91bb652b9495bacd,2024-01-23_08h04.51.677,bars,2023.2.3,Win32,58.82352941,657b66ea316d21385b68909f,,,,,,,,,,,1711.5639,1712.5559,,,1713.0607,1713.3061,,16,196,,,,,,,,,,,,,,,,bars/030.png,bars/mask004.png,,,,,,,,,,,,0,2,,,,,,,0,10,0,8,,,,,,,,,,,1712.5559,1713.0606,1713.3061,1716.2562,space,2.9197,,1716.2562,56,49,1717.2562,1717.2562,1717.2627,,,,0,17,17,17,1,140,65,,,,,,,,
,,6159d36b31fe01e003282538,65af568a91bb652b9495bacd,2024-01-23_08h04.51.677,bars,2023.2.3,Win32,58.82352941,657b66ea316d21385b68909f,,,,,,,,,,,1717.2629,1718.2558,,,1718.7561,1719.0058,,34,34,,,,,,,,,,,,,,,,bars/013.png,bars/mask008.png,,,,,,,,,,,,2,2,,,,,,,2,10,2,10,,,,,,,,,,,1718.2558,1718.7561,1719.0059,1727.2061,space,8.1839,,1727.2061,41,24,1728.2061,1728.2061,1728.2136,,,,0,18,18,18,1,75,10,,,,,,,,
,,6159d36b31fe01e003282538,65af568a91bb652b9495bacd,2024-01-23_08h04.51.677,bars,2023.2.3,Win32,58.82352941,657b66ea316d21385b68909f,,,,,,,,,,,1728.2138,1729.206,,,1729.7061,1729.9561,,153,153,,,,,,,,,,,,,,,,bars/018.png,bars/mask001.png,,,,,,,,,,,,1,1,,,,,,,0,10,1,10,,,,,,,,,,,1729.206,1729.706,1729.9561,1732.0726,space,2.1101,,1732.0726,3,63,1733.0605,1733.0605,1733.0678,,,,0,19,19,19,1,150,90,,,,,,,,
,,6159d36b31fe01e003282538,65af568a91bb652b9495bacd,2024-01-23_08h04.51.677,bars,2023.2.3,Win32,58.82352941,657b66ea316d21385b68909f,,,,,,,,,,,1733.0679,1734.056,,,1734.556,1734.806,,30,210,,,,,,,,,,,,,,,,bars/045.png,bars/mask009.png,,,,,,,,,,,,3,2,,,,,,,2,10,1,8,,,,,,,,,,,1734.056,1734.556,1734.806,1758.1443,space,23.3338,,1758.1444,70,20,1759.1393,1759.1393,1759.1478,,,,0,20,20,20,1,100,10,,,,,,,,
,,6159d36b31fe01e003282538,65af568a91bb652b9495bacd,2024-01-23_08h04.51.677,bars,2023.2.3,Win32,58.82352941,657b66ea316d21385b68909f,,,,,,,,,,,1759.148,1760.1439,,,1760.639,1760.8773,,124,124,,,,,,,,,,,,,,,,bars/043.png,bars/mask005.png,,,,,,,,,,,,6,2,,,,,,,4,8,3,8,,,,,,,,,,,1760.1439,1760.639,1760.8773,1771.2774,space,10.3959,,1771.2775,86,6,1772.2724,1772.2724,1772.2799,,,,0,21,21,21,1,30,130,,,,,,,,
,,6159d36b31fe01e003282538,65af568a91bb652b9495bacd,2024-01-23_08h04.51.677,bars,2023.2.3,Win32,58.82352941,657b66ea316d21385b68909f,,,,,,,,,,,1772.2801,1773.2724,,,1773.7726,1774.0105,,144,-36,,,,,,,,,,,,,,,,bars/024.png,bars/mask003.png,,,,,,,,,,,,1,1,,,,,,,6,10,7,10,,,,,,,,,,,1773.2724,1773.7725,1774.0105,1790.4945,space,16.4673,,1790.4945,24,26,1791.489,1791.489,1791.4967,,,,0,22,22,22,1,120,170,,,,,,,,
,,6159d36b31fe01e003282538,65af568a91bb652b9495bacd,2024-01-23_08h04.51.677,bars,2023.2.3,Win32,58.82352941,657b66ea316d21385b68909f,,,,,,,,,,,1791.4969,1792.4936,,,1792.9893,1793.239,,111,111,,,,,,,,,,,,,,,,bars/049.png,bars/mask003.png,,,,,,,,,,,,9,2,,,,,,,4,10,4,10,,,,,,,,,,,1792.4936,1792.9893,1793.239,1819.344,space,26.1003,,1819.3441,49,4,1820.3394,1820.3394,1820.3474,,,,0,23,23,23,1,160,115,,,,,,,,
,,6159d36b31fe01e003282538,65af568a91bb652b9495bacd,2024-01-23_08h04.51.677,bars,2023.2.3,Win32,58.82352941,657b66ea316d21385b68909f,,,,,,,,,,,1820.3476,1821.3393,,,1821.8394,1822.077,,97,97,,,,,,,,,,,,,,,,bars/046.png,bars/mask008.png,,,,,,,,,,,,5,2,,,,,,,6,8,5,9,,,,,,,,,,,1821.3394,1821.8393,1822.077,1833.6394,space,11.5336,,1833.6394,58,12,1834.6391,1834.6392,1834.647,,,,0,24,24,24,1,155,85,,,,,,,,
,,6159d36b31fe01e003282538,65af568a91bb652b9495bacd,2024-01-23_08h04.51.677,bars,2023.2.3,Win32,58.82352941,657b66ea316d21385b68909f,,,,,,,,,,,1834.6471,1835.639,,,1836.1392,1836.3893,,97,97,,,,,,,,,,,,,,,,bars/021.png,bars/mask009.png,,,,,,,,,,,,1,2,,,,,,,4,6,4,7,,,,,,,,,,,1835.639,1836.1392,1836.3893,1840.8726,space,4.4709,,1840.8726,58,27,1841.8725,1841.8725,1841.8798,,,,0,25,25,25,1,155,70,,,,,,,,
,,6159d36b31fe01e003282538,65af568a91bb652b9495bacd,2024-01-23_08h04.51.677,bars,2023.2.3,Win32,58.82352941,657b66ea316d21385b68909f,,,,,,,,,,,1841.8799,1842.8724,,,1843.3723,1843.6226,,23,203,,,,,,,,,,,,,,,,bars/034.png,bars/mask005.png,,,,,,,,,,,,0,2,,,,,,,2,8,1,8,,,,,,,,,,,1842.8724,1843.3723,1843.6226,1846.439,space,2.8115,,1846.439,78,42,1847.4393,1847.4393,1847.4464,,,,0,26,26,26,1,125,65,,,,,,,,
,,6159d36b31fe01e003282538,65af568a91bb652b9495bacd,2024-01-23_08h04.51.677,bars,2023.2.3,Win32,58.82352941,657b66ea316d21385b68909f,,,,,,,,,,,1847.4465,1848.439,,,1848.9302,1849.1725,,55,55,,,,,,,,,,,,,,,,bars/012.png,bars/mask008.png,,,,,,,,,,,,0,1,,,,,,,4,10,5,9,,,,,,,,,,,1848.439,1848.9302,1849.1726,1851.5394,space,2.3411,,1851.5394,35,40,1852.539,1852.539,1852.5402,,,,0,27,27,27,1,90,15,,,,,,,,
,,6159d36b31fe01e003282538,65af568a91bb652b9495bacd,2024-01-23_08h04.51.677,bars,2023.2.3,Win32,58.82352941,657b66ea316d21385b68909f,,,,,,,,,,,1852.5406,1853.5439,,,1854.0391,1854.2893,,133,133,,,,,,,,,,,,,,,,bars/015.png,bars/mask009.png,,,,,,,,,,,,0,1,,,,,,,2,10,2,9,,,,,,,,,,,1853.5439,1854.0391,1854.2893,1856.5941,space,2.3003,,1856.5941,23,27,1857.5892,1857.5892,1857.5962,,,,0,28,28,28,1,110,160,,,,,,,,
,,6159d36b31fe01e003282538,65af568a91bb652b9495bacd,2024-01-23_08h04.51.677,bars,2023.2.3,Win32,58.82352941,657b66ea316d21385b68909f,,,,,,,,,,,1857.5962,1858.5892,,,1859.089,1859.339,,3,183,,,,,,,,,,,,,,,,bars/015.png,bars/mask000.png,,,,,,,,,,,,2,2,,,,,,,0,8,0,8,,,,,,,,,,,1858.5892,1859.089,1859.339,1875.439,space,16.0948,,1875.439,73,23,1876.4391,1876.4391,1876.4472,,,,0,29,29,29,1,110,160,,,,,,,,
,,6159d36b31fe01e003282538,65af568a91bb652b9495bacd,2024-01-23_08h04.51.677,bars,2023.2.3,Win32,58.82352941,657b66ea316d21385b68909f,,,,,,,,,,,1876.4473,1877.439,,,1877.939,1878.1892,,78,78,,,,,,,,,,,,,,,,bars/035.png,bars/mask000.png,,,,,,,,,,,,4,2,,,,,,,2,10,2,9,,,,,,,,,,,1877.439,1877.9389,1878.1892,1879.4892,space,1.2929,,1879.4892,83,18,1880.4891,1880.4891,1880.496,,,,0,30,30,30,1,175,60,,,,,,,,
,,6159d36b31fe01e003282538,65af568a91bb652b9495bacd,2024-01-23_08h04.51.677,bars,2023.2.3,Win32,58.82352941,657b66ea316d21385b68909f,,,,,,,,,,,1880.4962,1881.4893,,,1881.9891,1882.244,,77,77,,,,,,,,,,,,,,,,bars/019.png,bars/mask008.png,,,,,,,,,,,,1,2,,,,,,,0,8,0,8,,,,,,,,,,,1881.4893,1881.989,1882.244,1883.6556,space,1.387,,1883.6556,32,28,1884.6437,1884.6437,1884.6507,,,,0,31,31,31,1,45,105,,,,,,,,
,,6159d36b31fe01e003282538,65af568a91bb652b9495bacd,2024-01-23_08h04.51.677,bars,2023.2.3,Win32,58.82352941,657b66ea316d21385b68909f,,,,,,,,,,,1884.6508,1885.6389,,,1886.1393,1886.3892,,23,203,,,,,,,,,,,,,,,,bars/048.png,bars/mask007.png,,,,,,,,,,,,0,1,,,,,,,0,6,0,5,,,,,,,,,,,1885.6389,1886.1392,1886.3892,1888.5057,space,2.0844,,1888.5057,27,28,1889.5057,1889.5057,1889.5135,,,,0,32,32,32,1,50,175,,,,,,,,
,,6159d36b31fe01e003282538,65af568a91bb652b9495bacd,2024-01-23_08h04.51.677,bars,2023.2.3,Win32,58.82352941,657b66ea316d21385b68909f,,,,,,,,,,,1889.5135,1890.5058,,,1891.0058,1891.2605,,150,-30,,,,,,,,,,,,,,,,bars/016.png,bars/mask003.png,,,,,,,,,,,,2,2,,,,,,,0,4,1,4,,,,,,,,,,,1890.5059,1891.0058,1891.2606,1893.9225,space,2.6463,,1893.9226,70,15,1894.9223,1894.9223,1894.9297,,,,0,33,33,33,1,40,165,,,,,,,,
,,6159d36b31fe01e003282538,65af568a91bb652b9495bacd,2024-01-23_08h04.51.677,bars,2023.2.3,Win32,58.82352941,657b66ea316d21385b68909f,,,,,,,,,,,1894.9298,1895.9225,,,1896.4224,1896.6772,,48,228,,,,,,,,,,,,,,,,bars/027.png,bars/mask000.png,,,,,,,,,,,,6,2,,,,,,,0,6,1,6,,,,,,,,,,,1895.9225,1896.4224,1896.6772,1898.8889,space,2.1846,,1898.8889,62,2,1899.8892,1899.8892,1899.8962,,,,0,34,34,34,1,110,50,,,,,,,,
,,6159d36b31fe01e003282538,65af568a91bb652b9495bacd,2024-01-23_08h04.51.677,bars,2023.2.3,Win32,58.82352941,657b66ea316d21385b68909f,,,,,,,,,,,1899.8964,1900.8891,,,1901.377,1901.6223,,55,55,,,,,,,,,,,,,,,,bars/022.png,bars/mask003.png,,,,,,,,,,,,0,2,,,,,,,2,8,2,7,,,,,,,,,,,1900.8891,1901.377,1901.6223,1945.5224,space,43.8917,,1945.5225,40,35,1946.5225,1946.5225,1946.5298,,,,0,35,35,35,1,95,20,,,,,,,,
,,6159d36b31fe01e003282538,65af568a91bb652b9495bacd,2024-01-23_08h04.51.677,bars,2023.2.3,Win32,58.82352941,657b66ea316d21385b68909f,,,,,,,,,,,1946.5299,1947.5223,,,1948.0105,1948.2558,,35,215,,,,,,,,,,,,,,,,bars/012.png,bars/mask000.png,,,,,,,,,,,,2,2,,,,,,,4,6,4,6,,,,,,,,,,,1947.5223,1948.0104,1948.2559,1950.2558,space,1.9857,,1950.2559,55,20,1951.2555,1951.2555,1951.2623,,,,0,36,36,36,1,90,15,,,,,,,,
,,6159d36b31fe01e003282538,65af568a91bb652b9495bacd,2024-01-23_08h04.51.677,bars,2023.2.3,Win32,58.82352941,657b66ea316d21385b68909f,,,,,,,,,,,1951.2624,1952.2607,,,1952.7558,1953.0057,,151,151,,,,,,,,,,,,,,,,bars/035.png,bars/mask000.png,,,,,,,,,,,,1,1,,,,,,,6,8,6,8,,,,,,,,,,,1952.2607,1952.7557,1953.0058,1954.1558,space,1.1403,,1954.1558,24,89,1955.1559,1955.1559,1955.1569,,,,0,37,37,37,1,175,60,,,,,,,,
,,6159d36b31fe01e003282538,65af568a91bb652b9495bacd,2024-01-23_08h04.51.677,bars,2023.2.3,Win32,58.82352941,657b66ea316d21385b68909f,,,,,,,,,,,1955.1571,1956.1558,,,1956.6604,1956.9057,,115,115,,,,,,,,,,,,,,,,bars/026.png,bars/mask007.png,,,,,,,,,,,,0,2,,,,,,,8,6,8,6,,,,,,,,,,,1956.1558,1956.6604,1956.9058,1959.9892,space,3.0718,,1959.9893,80,30,1960.9891,1960.9891,1960.9964,,,,0,38,38,38,1,35,85,,,,,,,,
,,6159d36b31fe01e003282538,65af568a91bb652b9495bacd,2024-01-23_08h04.51.677,bars,2023.2.3,Win32,58.82352941,657b66ea316d21385b68909f,,,,,,,,,,,1960.9965,1961.9891,,,1962.4891,1962.7388,,2,182,,,,,,,,,,,,,,,,bars/018.png,bars/mask004.png,,,,,,,,,,,,0,1,,,,,,,6,4,4,4,,,,,,,,,,,1961.9891,1962.4891,1962.7388,1964.9224,space,2.1751,,1964.9225,32,88,1965.9223,1965.9224,1965.9294,,,,0,39,39,39,1,150,90,,,,,,,,
,,6159d36b31fe01e003282538,65af568a91bb652b9495bacd,2024-01-23_08h04.51.677,bars,2023.2.3,Win32,58.82352941,657b66ea316d21385b68909f,,,,,,,,,,,1965.9295,1966.9221,,,1967.4105,1967.6555,,96,96,,,,,,,,,,,,,,,,bars/008.png,bars/mask007.png,,,,,,,,,,,,3,1,,,,,,,4,6,5,5,,,,,,,,,,,1966.9221,1967.4105,1967.6555,1970.2556,space,2.5943,,1970.2556,14,84,1971.2603,1971.2603,1971.267,,,,0,40,40,40,1,110,0,,,,,,,,
,,6159d36b31fe01e003282538,65af568a91bb652b9495bacd,2024-01-23_08h04.51.677,bars,2023.2.3,Win32,58.82352941,657b66ea316d21385b68909f,,,,,,,,,,,1971.2671,1972.2558,,,1972.7554,1973.0101,,57,237,,,,,,,,,,,,,,,,bars/019.png,bars/mask008.png,,,,,,,,,,,,5,1,,,,,,,6,8,8,8,,,,,,,,,,,1972.2558,1972.7554,1973.0102,1975.6892,space,2.6513,,1975.6892,12,48,1976.677,1976.677,1976.684,,,,0,41,41,41,1,45,105,,,,,,,,
,,6159d36b31fe01e003282538,65af568a91bb652b9495bacd,2024-01-23_08h04.51.677,bars,2023.2.3,Win32,58.82352941,657b66ea316d21385b68909f,,,,,,,,,,,1976.6841,1977.6723,,,1978.1723,1978.4104,,48,48,,,,,,,,,,,,,,,,bars/002.png,bars/mask003.png,,,,,,,,,,,,0,2,,,,,,,8,6,7,7,,,,,,,,,,,1977.6723,1978.1722,1978.4104,1981.0389,space,2.6003,,1981.0389,82,37,1982.039,1982.039,1982.0469,,,,0,42,42,42,1,130,85,,,,,,,,
,,6159d36b31fe01e003282538,65af568a91bb652b9495bacd,2024-01-23_08h04.51.677,bars,2023.2.3,Win32,58.82352941,657b66ea316d21385b68909f,,,,,,,,,,,1982.047,1983.0391,,,1983.527,1983.7721,,123,123,,,,,,,,,,,,,,,,bars/023.png,bars/mask008.png,,,,,,,,,,,,4,2,,,,,,,6,4,6,5,,,,,,,,,,,1983.0391,1983.5269,1983.7721,1987.0391,space,3.2537,,1987.0391,77,8,1988.039,1988.039,1988.0461,,,,0,43,43,43,1,20,115,,,,,,,,
,,6159d36b31fe01e003282538,65af568a91bb652b9495bacd,2024-01-23_08h04.51.677,bars,2023.2.3,Win32,58.82352941,657b66ea316d21385b68909f,,,,,,,,,,,1988.0462,1989.0391,,,1989.5391,1989.789,,28,28,,,,,,,,,,,,,,,,bars/037.png,bars/mask009.png,,,,,,,,,,,,0,1,,,,,,,4,2,5,2,,,,,,,,,,,1989.0391,1989.5391,1989.789,2015.9056,space,26.0923,,2015.9056,58,77,2016.9055,2016.9055,2016.9139,,,,0,44,44,44,1,150,105,,,,,,,,
,,6159d36b31fe01e003282538,65af568a91bb652b9495bacd,2024-01-23_08h04.51.677,bars,2023.2.3,Win32,58.82352941,657b66ea316d21385b68909f,,,,,,,,,,,2016.914,2017.9054,,,2018.394,2018.639,,29,209,,,,,,,,,,,,,,,,bars/032.png,bars/mask001.png,,,,,,,,,,,,0,2,,,,,,,2,0,4,0,,,,,,,,,,,2017.9055,2018.394,2018.639,2020.6889,space,2.0346,,2020.6889,84,9,2021.689,2021.689,2021.6963,,,,0,45,45,45,1,125,20,,,,,,,,
,,6159d36b31fe01e003282538,65af568a91bb652b9495bacd,2024-01-23_08h04.51.677,bars,2023.2.3,Win32,58.82352941,657b66ea316d21385b68909f,,,,,,,,,,,2021.6964,2022.6888,,,2023.1889,2023.439,,33,33,,,,,,,,,,,,,,,,bars/002.png,bars/mask002.png,,,,,,,,,,,,0,2,,,,,,,4,0,2,0,,,,,,,,,,,2022.6888,2023.1889,2023.439,2026.189,space,2.7337,,2026.1891,83,52,2027.1887,2027.1887,2027.196,,,,0,46,46,46,1,130,85,,,,,,,,
,,6159d36b31fe01e003282538,65af568a91bb652b9495bacd,2024-01-23_08h04.51.677,bars,2023.2.3,Win32,58.82352941,657b66ea316d21385b68909f,,,,,,,,,,,2027.1961,2028.1937,,,2028.6888,2028.9388,,8,188,,,,,,,,,,,,,,,,bars/019.png,bars/mask000.png,,,,,,,,,,,,0,1,,,,,,,2,2,1,1,,,,,,,,,,,2028.1937,2028.6887,2028.9388,2030.1058,space,1.1509,,2030.1058,37,83,2031.1055,2031.1055,2031.1131,,,,0,47,47,47,1,45,105,,,,,,,,
,,6159d36b31fe01e003282538,65af568a91bb652b9495bacd,2024-01-23_08h04.51.677,bars,2023.2.3,Win32,58.82352941,657b66ea316d21385b68909f,,,,,,,,,,,2031.1133,2032.1054,,,2032.5936,2032.8385,,53,53,,,,,,,,,,,,,,,,bars/009.png,bars/mask004.png,,,,,,,,,,,,0,1,,,,,,,4,0,4,0,,,,,,,,,,,2032.1054,2032.5936,2032.8385,2033.9558,space,1.1072,,2033.9558,38,52,2034.9556,2034.9556,2034.956,,,,0,48,48,48,1,15,105,,,,,,,,
,,6159d36b31fe01e003282538,65af568a91bb652b9495bacd,2024-01-23_08h04.51.677,bars,2023.2.3,Win32,58.82352941,657b66ea316d21385b68909f,,,,,,,,,,,2034.9562,2035.9557,,,2036.4435,2036.6888,,9,9,,,,,,,,,,,,,,,,bars/000.png,bars/mask008.png,,,,,,,,,,,,0,1,,,,,,,6,0,6,1,,,,,,,,,,,2035.9557,2036.4435,2036.6889,2038.5556,space,1.8569,,2038.5557,31,44,2039.5554,2039.5554,2039.5622,,,,0,49,49,49,1,40,145,,,,,,,,
,,6159d36b31fe01e003282538,65af568a91bb652b9495bacd,2024-01-23_08h04.51.677,bars,2023.2.3,Win32,58.82352941,657b66ea316d21385b68909f,,,,,,,,,,,,,,,,,,,,,,,,,,,,,,,,,,,,,,,,,,,,,,,,,,,,,,,,,,,,,,,,,,,,,,,,,,,,,,,,,,,,,,,,,,,,,2039.5623,2099.5555,0,2,2,2,1,sequence_tables/blk030.csv
,,6159d36b31fe01e003282538,65af568a91bb652b9495bacd,2024-01-23_08h04.51.677,bars,2023.2.3,Win32,58.82352941,657b66ea316d21385b68909f,,,,,,,,,,,2255.9991,2256.9886,,,2257.4888,2257.7386,,71,71,,,,,,,,,,,,,,,,bars/034.png,bars/mask002.png,,,,,,,,,,,,2,2,,,,,,,7,2,8,3,,,,,,2099.5629,2255.9888,space,156.4003,,2256.9886,2257.4887,2257.7386,2259.1054,space,1.3589,,2259.1055,54,6,2260.1051,2260.1051,2260.1142,,,,0,0,0,0,1,125,65,,,,,,,,
,,6159d36b31fe01e003282538,65af568a91bb652b9495bacd,2024-01-23_08h04.51.677,bars,2023.2.3,Win32,58.82352941,657b66ea316d21385b68909f,,,,,,,,,,,2260.1145,2261.1053,,,2261.6054,2261.8551,,144,-36,,,,,,,,,,,,,,,,bars/033.png,bars/mask008.png,,,,,,,,,,,,3,2,,,,,,,9,4,8,5,,,,,,,,,,,2261.1054,2261.6053,2261.8552,2263.4053,space,1.5378,,2263.4054,61,11,2264.3933,2264.3934,2264.4002,,,,0,1,1,1,1,25,155,,,,,,,,
,,6159d36b31fe01e003282538,65af568a91bb652b9495bacd,2024-01-23_08h04.51.677,bars,2023.2.3,Win32,58.82352941,657b66ea316d21385b68909f,,,,,,,,,,,2264.4003,2265.3886,,,2265.8887,2266.1433,,132,132,,,,,,,,,,,,,,,,bars/032.png,bars/mask009.png,,,,,,,,,,,,5,1,,,,,,,7,6,6,6,,,,,,,,,,,2265.3887,2265.8887,2266.1434,2268.2384,space,2.0698,,2268.2385,7,68,2269.2264,2269.2264,2269.2337,,,,0,2,2,2,1,125,20,,,,,,,,
,,6159d36b31fe01e003282538,65af568a91bb652b9495bacd,2024-01-23_08h04.51.677,bars,2023.2.3,Win32,58.82352941,657b66ea316d21385b68909f,,,,,,,,,,,2269.2337,2270.2218,,,2270.722,2270.9764,,112,112,,,,,,,,,,,,,,,,bars/030.png,bars/mask004.png,,,,,,,,,,,,0,1,,,,,,,5,8,6,9,,,,,,,,,,,2270.2218,2270.722,2270.9764,2273.022,space,2.0288,,2273.0221,28,47,2274.0215,2274.0215,2274.0224,,,,0,3,3,3,1,140,65,,,,,,,,
,,6159d36b31fe01e003282538,65af568a91bb652b9495bacd,2024-01-23_08h04.51.677,bars,2023.2.3,Win32,58.82352941,657b66ea316d21385b68909f,,,,,,,,,,,2274.0226,2275.0217,,,2275.5221,2275.76,,152,-28,,,,,,,,,,,,,,,,bars/012.png,bars/mask003.png,,,,,,,,,,,,0,2,,,,,,,3,6,2,6,,,,,,,,,,,2275.0217,2275.522,2275.76,2277.8218,space,2.0457,,2277.8219,62,43,2278.8219,2278.8219,2278.8292,,,,0,4,4,4,1,90,15,,,,,,,,
,,6159d36b31fe01e003282538,65af568a91bb652b9495bacd,2024-01-23_08h04.51.677,bars,2023.2.3,Win32,58.82352941,657b66ea316d21385b68909f,,,,,,,,,,,2278.8294,2279.8217,,,2280.3102,2280.555,,147,147,,,,,,,,,,,,,,,,bars/015.png,bars/mask007.png,,,,,,,,,,,,3,2,,,,,,,5,4,4,5,,,,,,,,,,,2279.8217,2280.3102,2280.555,2282.56,space,2.0002,,2282.5601,37,13,2283.5553,2283.5553,2283.5558,,,,0,5,5,5,1,110,160,,,,,,,,
,,6159d36b31fe01e003282538,65af568a91bb652b9495bacd,2024-01-23_08h04.51.677,bars,2023.2.3,Win32,58.82352941,657b66ea316d21385b68909f,,,,,,,,,,,2283.556,2284.56,,,2285.0553,2285.3052,,1,1,,,,,,,,,,,,,,,,bars/012.png,bars/mask003.png,,,,,,,,,,,,2,2,,,,,,,3,2,3,3,,,,,,,,,,,2284.56,2285.0553,2285.3053,2286.9601,space,1.6498,,2286.9601,89,14,2287.9552,2287.9553,2287.9559,,,,0,6,6,6,1,90,15,,,,,,,,
,,6159d36b31fe01e003282538,65af568a91bb652b9495bacd,2024-01-23_08h04.51.677,bars,2023.2.3,Win32,58.82352941,657b66ea316d21385b68909f,,,,,,,,,,,2287.9559,2288.9602,,,2289.4554,2289.6935,,166,166,,,,,,,,,,,,,,,,bars/014.png,bars/mask006.png,,,,,,,,,,,,2,2,,,,,,,1,4,2,3,,,,,,,,,,,2288.9603,2289.4554,2289.6935,2292.4554,space,2.7439,,2292.4554,86,14,2293.4552,2293.4552,2293.462,,,,0,7,7,7,1,80,0,,,,,,,,
,,6159d36b31fe01e003282538,65af568a91bb652b9495bacd,2024-01-23_08h04.51.677,bars,2023.2.3,Win32,58.82352941,657b66ea316d21385b68909f,,,,,,,,,,,2293.4621,2294.455,,,2294.9551,2295.2051,,159,-21,,,,,,,,,,,,,,,,bars/035.png,bars/mask000.png,,,,,,,,,,,,0,1,,,,,,,0,2,0,3,,,,,,,,,,,2294.455,2294.9551,2295.2051,2310.4219,space,15.1838,,2310.4219,16,81,2311.4219,2311.4219,2311.4297,,,,0,8,8,8,1,175,60,,,,,,,,
,,6159d36b31fe01e003282538,65af568a91bb652b9495bacd,2024-01-23_08h04.51.677,bars,2023.2.3,Win32,58.82352941,657b66ea316d21385b68909f,,,,,,,,,,,2311.4298,2312.4219,,,2312.9218,2313.1714,,33,33,,,,,,,,,,,,,,,,bars/021.png,bars/mask000.png,,,,,,,,,,,,0,2,,,,,,,0,4,0,5,,,,,,,,,,,2312.4219,2312.9218,2313.1714,2355.2219,space,42.0336,,2355.222,58,37,2356.2216,2356.2216,2356.2296,,,,0,9,9,9,1,155,70,,,,,,,,
,,6159d36b31fe01e003282538,65af568a91bb652b9495bacd,2024-01-23_08h04.51.677,bars,2023.2.3,Win32,58.82352941,657b66ea316d21385b68909f,,,,,,,,,,,2356.2297,2357.222,,,2357.7217,2357.9719,,73,73,,,,,,,,,,,,,,,,bars/001.png,bars/mask001.png,,,,,,,,,,,,4,2,,,,,,,0,6,0,6,,,,,,,,,,,2357.222,2357.7216,2357.9719,2359.6884,space,1.7088,,2359.6884,57,12,2360.693,2360.693,2360.6998,,,,0,10,10,10,1,130,85,,,,,,,,
,,6159d36b31fe01e003282538,65af568a91bb652b9495bacd,2024-01-23_08h04.51.677,bars,2023.2.3,Win32,58.82352941,657b66ea316d21385b68909f,,,,,,,,,,,2360.7,2361.6884,,,2362.1886,2362.4435,,55,55,,,,,,,,,,,,,,,,bars/018.png,bars/mask006.png,,,,,,,,,,,,0,2,,,,,,,2,8,2,8,,,,,,,,,,,2361.6884,2362.1886,2362.4435,2364.372,space,1.9055,,2364.372,85,35,2365.3719,2365.3719,2365.3793,,,,0,11,11,11,1,150,90,,,,,,,,
,,6159d36b31fe01e003282538,65af568a91bb652b9495bacd,2024-01-23_08h04.51.677,bars,2023.2.3,Win32,58.82352941,657b66ea316d21385b68909f,,,,,,,,,,,2365.3795,2366.372,,,2366.8717,2367.1217,,170,170,,,,,,,,,,,,,,,,bars/033.png,bars/mask003.png,,,,,,,,,,,,3,2,,,,,,,4,6,5,6,,,,,,,,,,,2366.372,2366.8716,2367.1217,2370.3386,space,3.2003,,2370.3386,35,15,2371.3381,2371.3381,2371.3454,,,,0,12,12,12,1,25,155,,,,,,,,
,,6159d36b31fe01e003282538,65af568a91bb652b9495bacd,2024-01-23_08h04.51.677,bars,2023.2.3,Win32,58.82352941,657b66ea316d21385b68909f,,,,,,,,,,,2371.3455,2372.3385,,,2372.8385,2373.0883,,15,15,,,,,,,,,,,,,,,,bars/015.png,bars/mask009.png,,,,,,,,,,,,0,2,,,,,,,2,8,1,8,,,,,,,,,,,2372.3385,2372.8385,2373.0883,2374.7052,space,1.6087,,2374.7052,85,35,2375.7048,2375.7048,2375.7053,,,,0,13,13,13,1,110,160,,,,,,,,
,,6159d36b31fe01e003282538,65af568a91bb652b9495bacd,2024-01-23_08h04.51.677,bars,2023.2.3,Win32,58.82352941,657b66ea316d21385b68909f,,,,,,,,,,,2375.7054,2376.7048,,,2377.2047,2377.4548,,146,146,,,,,,,,,,,,,,,,bars/006.png,bars/mask005.png,,,,,,,,,,,,0,2,,,,,,,4,10,3,10,,,,,,,,,,,2376.7048,2377.2047,2377.4548,2379.7435,space,2.2672,,2379.7436,69,46,2380.7382,2380.7383,2380.7453,,,,0,14,14,14,1,35,100,,,,,,,,
,,6159d36b31fe01e003282538,65af568a91bb652b9495bacd,2024-01-23_08h04.51.677,bars,2023.2.3,Win32,58.82352941,657b66ea316d21385b68909f,,,,,,,,,,,2380.7455,2381.7383,,,2382.2435,2382.4885,,19,19,,,,,,,,,,,,,,,,bars/024.png,bars/mask009.png,,,,,,,,,,,,0,2,,,,,,,2,10,3,9,,,,,,,,,,,2381.7383,2382.2435,2382.4886,2384.5216,space,2.0244,,2384.5216,79,29,2385.5216,2385.5216,2385.5284,,,,0,15,15,15,1,120,170,,,,,,,,
,,6159d36b31fe01e003282538,65af568a91bb652b9495bacd,2024-01-23_08h04.51.677,bars,2023.2.3,Win32,58.82352941,657b66ea316d21385b68909f,,,,,,,,,,,2385.5286,2386.5218,,,2387.0218,2387.2599,,164,164,,,,,,,,,,,,,,,,bars/026.png,bars/mask002.png,,,,,,,,,,,,0,1,,,,,,,0,10,0,8,,,,,,,,,,,2386.5218,2387.0217,2387.2599,2389.6385,space,2.3612,,2389.6385,51,79,2390.6265,2390.6265,2390.6339,,,,0,16,16,16,1,35,85,,,,,,,,
,,6159d36b31fe01e003282538,65af568a91bb652b9495bacd,2024-01-23_08h04.51.677,bars,2023.2.3,Win32,58.82352941,657b66ea316d21385b68909f,,,,,,,,,,,2390.634,2391.6265,,,2392.1221,2392.3716,,48,48,,,,,,,,,,,,,,,,bars/040.png,bars/mask004.png,,,,,,,,,,,,0,2,,,,,,,2,8,2,10,,,,,,,,,,,2391.6265,2392.122,2392.3716,2395.2218,space,2.8171,,2395.2218,88,43,2396.2218,2396.2218,2396.229,,,,0,17,17,17,1,140,5,,,,,,,,
,,6159d36b31fe01e003282538,65af568a91bb652b9495bacd,2024-01-23_08h04.51.677,bars,2023.2.3,Win32,58.82352941,657b66ea316d21385b68909f,,,,,,,,,,,2396.2291,2397.2218,,,2397.7098,2397.955,,34,214,,,,,,,,,,,,,,,,bars/016.png,bars/mask004.png,,,,,,,,,,,,4,1,,,,,,,4,10,5,10,,,,,,,,,,,2397.2218,2397.7098,2397.955,2401.0434,space,3.0837,,2401.0434,6,49,2402.0385,2402.0385,2402.0465,,,,0,18,18,18,1,40,165,,,,,,,,
,,6159d36b31fe01e003282538,65af568a91bb652b9495bacd,2024-01-23_08h04.51.677,bars,2023.2.3,Win32,58.82352941,657b66ea316d21385b68909f,,,,,,,,,,,2402.0467,2403.0434,,,2403.5386,2403.7764,,83,83,,,,,,,,,,,,,,,,bars/011.png,bars/mask009.png,,,,,,,,,,,,9,2,,,,,,,6,10,5,10,,,,,,,,,,,2403.0434,2403.5385,2403.7764,2406.2548,space,2.4599,,2406.2548,77,2,2407.2549,2407.2549,2407.2627,,,,0,19,19,19,1,160,85,,,,,,,,
,,6159d36b31fe01e003282538,65af568a91bb652b9495bacd,2024-01-23_08h04.51.677,bars,2023.2.3,Win32,58.82352941,657b66ea316d21385b68909f,,,,,,,,,,,2407.2628,2408.2552,,,2408.7552,2409.0102,,93,93,,,,,,,,,,,,,,,,bars/009.png,bars/mask002.png,,,,,,,,,,,,6,2,,,,,,,8,10,9,10,,,,,,,,,,,2408.2552,2408.7552,2409.0102,2411.7052,space,2.6751,,2411.7052,78,12,2412.7097,2412.7097,2412.7165,,,,0,20,20,20,1,15,105,,,,,,,,
,,6159d36b31fe01e003282538,65af568a91bb652b9495bacd,2024-01-23_08h04.51.677,bars,2023.2.3,Win32,58.82352941,657b66ea316d21385b68909f,,,,,,,,,,,2412.7165,2413.7052,,,2414.2051,2414.4552,,123,123,,,,,,,,,,,,,,,,bars/040.png,bars/mask002.png,,,,,,,,,,,,3,1,,,,,,,6,8,6,10,,,,,,,,,,,2413.7053,2414.2051,2414.4552,2418.1385,space,3.6506,,2418.1386,17,62,2419.1384,2419.1384,2419.1462,,,,0,21,21,21,1,140,5,,,,,,,,
,,6159d36b31fe01e003282538,65af568a91bb652b9495bacd,2024-01-23_08h04.51.677,bars,2023.2.3,Win32,58.82352941,657b66ea316d21385b68909f,,,,,,,,,,,2419.1464,2420.1384,,,2420.6386,2420.8885,,174,174,,,,,,,,,,,,,,,,bars/011.png,bars/mask001.png,,,,,,,,,,,,3,1,,,,,,,4,6,6,5,,,,,,,,,,,2420.1384,2420.6385,2420.8885,2453.5885,space,32.667,,2453.5885,14,89,2454.5882,2454.5883,2454.5952,,,,0,22,22,22,1,160,85,,,,,,,,
,,6159d36b31fe01e003282538,65af568a91bb652b9495bacd,2024-01-23_08h04.51.677,bars,2023.2.3,Win32,58.82352941,657b66ea316d21385b68909f,,,,,,,,,,,2454.5953,2455.5885,,,2456.0882,2456.3385,,38,218,,,,,,,,,,,,,,,,bars/040.png,bars/mask008.png,,,,,,,,,,,,0,2,,,,,,,2,8,2,8,,,,,,,,,,,2455.5885,2456.0882,2456.3385,2458.3601,space,2.0006,,2458.3602,78,33,2459.3548,2459.3548,2459.3621,,,,0,23,23,23,1,140,5,,,,,,,,
,,6159d36b31fe01e003282538,65af568a91bb652b9495bacd,2024-01-23_08h04.51.677,bars,2023.2.3,Win32,58.82352941,657b66ea316d21385b68909f,,,,,,,,,,,2459.3623,2460.3548,,,2460.8553,2461.093,,143,143,,,,,,,,,,,,,,,,bars/039.png,bars/mask008.png,,,,,,,,,,,,0,1,,,,,,,4,10,4,10,,,,,,,,,,,2460.3548,2460.8552,2461.0932,2463.2885,space,2.1756,,2463.2885,32,38,2464.2884,2464.2884,2464.2895,,,,0,24,24,24,1,175,105,,,,,,,,
,,6159d36b31fe01e003282538,65af568a91bb652b9495bacd,2024-01-23_08h04.51.677,bars,2023.2.3,Win32,58.82352941,657b66ea316d21385b68909f,,,,,,,,,,,2464.2896,2465.2932,,,2465.7884,2466.0383,,61,61,,,,,,,,,,,,,,,,bars/035.png,bars/mask003.png,,,,,,,,,,,,7,2,,,,,,,2,8,3,7,,,,,,,,,,,2465.2933,2465.7884,2466.0384,2469.0051,space,2.9501,,2469.0052,66,1,2470.0049,2470.0049,2470.0126,,,,0,25,25,25,1,175,60,,,,,,,,
,,6159d36b31fe01e003282538,65af568a91bb652b9495bacd,2024-01-23_08h04.51.677,bars,2023.2.3,Win32,58.82352941,657b66ea316d21385b68909f,,,,,,,,,,,2470.0127,2471.0047,,,2471.5052,2471.7551,,141,141,,,,,,,,,,,,,,,,bars/026.png,bars/mask000.png,,,,,,,,,,,,0,2,,,,,,,0,10,0,10,,,,,,,,,,,2471.0048,2471.5052,2471.7551,2477.5717,space,5.8053,,2477.5717,74,56,2478.5715,2478.5715,2478.5787,,,,0,26,26,26,1,35,85,,,,,,,,
,,6159d36b31fe01e003282538,65af568a91bb652b9495bacd,2024-01-23_08h04.51.677,bars,2023.2.3,Win32,58.82352941,657b66ea316d21385b68909f,,,,,,,,,,,2478.5789,2479.5716,,,2480.0715,2480.3214,,52,52,,,,,,,,,,,,,,,,bars/020.png,bars/mask007.png,,,,,,,,,,,,0,2,,,,,,,2,10,2,10,,,,,,,,,,,2479.5716,2480.0715,2480.3214,2483.6549,space,3.3268,,2483.655,63,62,2484.6549,2484.6549,2484.6618,,,,0,27,27,27,1,115,170,,,,,,,,
,,6159d36b31fe01e003282538,65af568a91bb652b9495bacd,2024-01-23_08h04.51.677,bars,2023.2.3,Win32,58.82352941,657b66ea316d21385b68909f,,,,,,,,,,,2484.6619,2485.655,,,2486.155,2486.4048,,151,151,,,,,,,,,,,,,,,,bars/009.png,bars/mask009.png,,,,,,,,,,,,0,1,,,,,,,0,10,1,10,,,,,,,,,,,2485.655,2486.155,2486.4048,2490.4553,space,4.0438,,2490.4553,44,46,2491.4549,2491.455,2491.4621,,,,0,28,28,28,1,15,105,,,,,,,,
,,6159d36b31fe01e003282538,65af568a91bb652b9495bacd,2024-01-23_08h04.51.677,bars,2023.2.3,Win32,58.82352941,657b66ea316d21385b68909f,,,,,,,,,,,2491.4623,2492.4548,,,2492.9597,2493.2049,,105,105,,,,,,,,,,,,,,,,bars/026.png,bars/mask002.png,,,,,,,,,,,,3,2,,,,,,,0,8,2,8,,,,,,,,,,,2492.4548,2492.9597,2493.205,2495.2099,space,2.0003,,2495.2099,70,20,2496.2047,2496.2047,2496.2065,,,,0,29,29,29,1,35,85,,,,,,,,
,,6159d36b31fe01e003282538,65af568a91bb652b9495bacd,2024-01-23_08h04.51.677,bars,2023.2.3,Win32,58.82352941,657b66ea316d21385b68909f,,,,,,,,,,,2496.2067,2497.2096,,,2497.7048,2497.955,,32,212,,,,,,,,,,,,,,,,bars/042.png,bars/mask000.png,,,,,,,,,,,,0,2,,,,,,,0,10,0,10,,,,,,,,,,,2497.2096,2497.7048,2497.955,2500.4551,space,2.4854,,2500.4552,67,43,2501.455,2501.455,2501.4618,,,,0,30,30,30,1,145,75,,,,,,,,
,,6159d36b31fe01e003282538,65af568a91bb652b9495bacd,2024-01-23_08h04.51.677,bars,2023.2.3,Win32,58.82352941,657b66ea316d21385b68909f,,,,,,,,,,,2501.4619,2502.4598,,,2502.9548,2503.205,,18,198,,,,,,,,,,,,,,,,bars/029.png,bars/mask006.png,,,,,,,,,,,,1,2,,,,,,,0,10,0,9,,,,,,,,,,,2502.4598,2502.9547,2503.205,2505.6216,space,2.4005,,2505.6216,72,27,2506.6263,2506.6263,2506.6267,,,,0,31,31,31,1,90,45,,,,,,,,
,,6159d36b31fe01e003282538,65af568a91bb652b9495bacd,2024-01-23_08h04.51.677,bars,2023.2.3,Win32,58.82352941,657b66ea316d21385b68909f,,,,,,,,,,,2506.6269,2507.6216,,,2508.1218,2508.3762,,95,95,,,,,,,,,,,,,,,,bars/031.png,bars/mask001.png,,,,,,,,,,,,0,1,,,,,,,0,8,0,8,,,,,,,,,,,2507.6216,2508.1218,2508.3762,2514.2096,space,5.8166,,2514.2096,25,60,2515.2049,2515.205,2515.2131,,,,0,32,32,32,1,120,35,,,,,,,,
,,6159d36b31fe01e003282538,65af568a91bb652b9495bacd,2024-01-23_08h04.51.677,bars,2023.2.3,Win32,58.82352941,657b66ea316d21385b68909f,,,,,,,,,,,2515.2133,2516.2097,,,2516.7049,2516.9433,,154,154,,,,,,,,,,,,,,,,bars/030.png,bars/mask004.png,,,,,,,,,,,,0,1,,,,,,,0,6,0,6,,,,,,,,,,,2516.2097,2516.7049,2516.9433,2518.6717,space,1.7012,,2518.6717,14,89,2519.6597,2519.6597,2519.6664,,,,0,33,33,33,1,140,65,,,,,,,,
,,6159d36b31fe01e003282538,65af568a91bb652b9495bacd,2024-01-23_08h04.51.677,bars,2023.2.3,Win32,58.82352941,657b66ea316d21385b68909f,,,,,,,,,,,2519.6666,2520.655,,,2521.1551,2521.4048,,4,4,,,,,,,,,,,,,,,,bars/047.png,bars/mask002.png,,,,,,,,,,,,0,1,,,,,,,0,4,0,3,,,,,,,,,,,2520.655,2521.155,2521.4049,2530.1883,space,8.7715,,2530.1883,11,66,2531.1927,2531.1927,2531.1999,,,,0,34,34,34,1,15,70,,,,,,,,
,,6159d36b31fe01e003282538,65af568a91bb652b9495bacd,2024-01-23_08h04.51.677,bars,2023.2.3,Win32,58.82352941,657b66ea316d21385b68909f,,,,,,,,,,,2531.2001,2532.1881,,,2532.6882,2532.9382,,34,214,,,,,,,,,,,,,,,,bars/007.png,bars/mask002.png,,,,,,,,,,,,0,2,,,,,,,2,2,4,1,,,,,,,,,,,2532.1882,2532.6882,2532.9382,2538.5883,space,5.6174,,2538.5884,39,21,2539.588,2539.588,2539.5958,,,,0,35,35,35,1,175,55,,,,,,,,
,,6159d36b31fe01e003282538,65af568a91bb652b9495bacd,2024-01-23_08h04.51.677,bars,2023.2.3,Win32,58.82352941,657b66ea316d21385b68909f,,,,,,,,,,,2539.596,2540.5883,,,2541.0882,2541.3382,,10,190,,,,,,,,,,,,,,,,bars/025.png,bars/mask001.png,,,,,,,,,,,,0,2,,,,,,,0,0,2,0,,,,,,,,,,,2540.5883,2541.0882,2541.3383,2612.7382,space,71.39,,2612.7382,85,30,2613.7379,2613.7379,2613.7453,,,,0,36,36,36,1,105,40,,,,,,,,
,,6159d36b31fe01e003282538,65af568a91bb652b9495bacd,2024-01-23_08h04.51.677,bars,2023.2.3,Win32,58.82352941,657b66ea316d21385b68909f,,,,,,,,,,,2613.7454,2614.7379,,,2615.2379,2615.4881,,172,172,,,,,,,,,,,,,,,,bars/026.png,bars/mask000.png,,,,,,,,,,,,0,1,,,,,,,0,2,0,1,,,,,,,,,,,2614.7379,2615.2379,2615.4881,2621.0096,space,5.5168,,2621.0096,43,87,2622.0048,2622.0048,2622.0129,,,,0,37,37,37,1,35,85,,,,,,,,
,,6159d36b31fe01e003282538,65af568a91bb652b9495bacd,2024-01-23_08h04.51.677,bars,2023.2.3,Win32,58.82352941,657b66ea316d21385b68909f,,,,,,,,,,,2622.013,2623.0045,,,2623.4929,2623.7382,,171,171,,,,,,,,,,,,,,,,bars/041.png,bars/mask009.png,,,,,,,,,,,,0,1,,,,,,,2,4,3,2,,,,,,,,,,,2623.0045,2623.4929,2623.7382,2625.8049,space,2.0507,,2625.8049,29,86,2626.8045,2626.8046,2626.8117,,,,0,38,38,38,1,20,85,,,,,,,,
,,6159d36b31fe01e003282538,65af568a91bb652b9495bacd,2024-01-23_08h04.51.677,bars,2023.2.3,Win32,58.82352941,657b66ea316d21385b68909f,,,,,,,,,,,2626.8119,2627.8048,,,2628.3095,2628.5549,,96,276,,,,,,,,,,,,,,,,bars/037.png,bars/mask000.png,,,,,,,,,,,,1,2,,,,,,,4,2,3,1,,,,,,,,,,,2627.8048,2628.3094,2628.5549,2658.5715,space,30.0006,,2658.5715,54,9,2659.5714,2659.5714,2659.5794,,,,0,39,39,39,1,150,105,,,,,,,,
,,6159d36b31fe01e003282538,65af568a91bb652b9495bacd,2024-01-23_08h04.51.677,bars,2023.2.3,Win32,58.82352941,657b66ea316d21385b68909f,,,,,,,,,,,2659.5796,2660.5712,,,2661.0716,2661.3211,,0,180,,,,,,,,,,,,,,,,bars/005.png,bars/mask004.png,,,,,,,,,,,,3,1,,,,,,,6,0,5,0,,,,,,,,,,,2660.5712,2661.0716,2661.3212,2667.4263,space,6.1,,2667.4264,10,40,2668.4214,2668.4214,2668.4292,,,,0,40,40,40,1,10,140,,,,,,,,
,,6159d36b31fe01e003282538,65af568a91bb652b9495bacd,2024-01-23_08h04.51.677,bars,2023.2.3,Win32,58.82352941,657b66ea316d21385b68909f,,,,,,,,,,,2668.4293,2669.4211,,,2669.9213,2670.1715,,34,394,,,,,,,,,,,,,,,,bars/040.png,bars/mask009.png,,,,,,,,,,,,0,2,,,,,,,8,2,10,3,,,,,,,,,,,2669.4211,2669.9212,2670.1715,2687.1546,space,16.9724,,2687.1546,74,29,2688.1548,2688.1549,2688.1625,,,,0,41,41,41,1,140,5,,,,,,,,
,,6159d36b31fe01e003282538,65af568a91bb652b9495bacd,2024-01-23_08h04.51.677,bars,2023.2.3,Win32,58.82352941,657b66ea316d21385b68909f,,,,,,,,,,,2688.1627,2689.1547,,,2689.6596,2689.9046,,97,97,,,,,,,,,,,,,,,,bars/045.png,bars/mask005.png,,,,,,,,,,,,6,1,,,,,,,6,4,7,4,,,,,,,,,,,2689.1547,2689.6596,2689.9047,2691.6381,space,1.7196,,2691.6381,3,87,2692.6379,2692.638,2692.6458,,,,0,42,42,42,1,100,10,,,,,,,,
,,6159d36b31fe01e003282538,65af568a91bb652b9495bacd,2024-01-23_08h04.51.677,bars,2023.2.3,Win32,58.82352941,657b66ea316d21385b68909f,,,,,,,,,,,2692.646,2693.6381,,,2694.1379,2694.388,,81,81,,,,,,,,,,,,,,,,bars/028.png,bars/mask008.png,,,,,,,,,,,,0,1,,,,,,,4,6,4,6,,,,,,,,,,,2693.6381,2694.1379,2694.3881,2696.6547,space,2.2353,,2696.6548,36,39,2697.6544,2697.6544,2697.6613,,,,0,43,43,43,1,45,120,,,,,,,,
,,6159d36b31fe01e003282538,65af568a91bb652b9495bacd,2024-01-23_08h04.51.677,bars,2023.2.3,Win32,58.82352941,657b66ea316d21385b68909f,,,,,,,,,,,2697.6615,2698.6547,,,2699.1548,2699.4045,,122,122,,,,,,,,,,,,,,,,bars/023.png,bars/mask002.png,,,,,,,,,,,,7,2,,,,,,,6,8,5,9,,,,,,,,,,,2698.6547,2699.1547,2699.4045,2701.5097,space,2.1003,,2701.5097,78,7,2702.5046,2702.5046,2702.5122,,,,0,44,44,44,1,20,115,,,,,,,,
,,6159d36b31fe01e003282538,65af568a91bb652b9495bacd,2024-01-23_08h04.51.677,bars,2023.2.3,Win32,58.82352941,657b66ea316d21385b68909f,,,,,,,,,,,2702.5123,2703.5047,,,2704.0045,2704.2548,,24,204,,,,,,,,,,,,,,,,bars/032.png,bars/mask006.png,,,,,,,,,,,,9,2,,,,,,,8,10,7,10,,,,,,,,,,,2703.5047,2704.0045,2704.2548,2706.6712,space,2.4008,,2706.6712,79,4,2707.6713,2707.6714,2707.6783,,,,0,45,45,45,1,125,20,,,,,,,,
,,6159d36b31fe01e003282538,65af568a91bb652b9495bacd,2024-01-23_08h04.51.677,bars,2023.2.3,Win32,58.82352941,657b66ea316d21385b68909f,,,,,,,,,,,2707.6784,2708.6711,,,2709.171,2709.4212,,161,-19,,,,,,,,,,,,,,,,bars/015.png,bars/mask009.png,,,,,,,,,,,,9,2,,,,,,,6,8,5,9,,,,,,,,,,,2708.6711,2709.171,2709.4212,2781.2046,space,71.7669,,2781.2047,51,1,2782.2046,2782.2047,2782.2126,,,,0,46,46,46,1,110,160,,,,,,,,
,,6159d36b31fe01e003282538,65af568a91bb652b9495bacd,2024-01-23_08h04.51.677,bars,2023.2.3,Win32,58.82352941,657b66ea316d21385b68909f,,,,,,,,,,,2782.2127,2783.2045,,,2783.7045,2783.9546,,178,-2,,,,,,,,,,,,,,,,bars/029.png,bars/mask008.png,,,,,,,,,,,,0,2,,,,,,,4,6,3,7,,,,,,,,,,,2783.2045,2783.7045,2783.9546,2798.8212,space,14.8613,,2798.8212,88,47,2799.8211,2799.8211,2799.8279,,,,0,47,47,47,1,90,45,,,,,,,,
,,6159d36b31fe01e003282538,65af568a91bb652b9495bacd,2024-01-23_08h04.51.677,bars,2023.2.3,Win32,58.82352941,657b66ea316d21385b68909f,,,,,,,,,,,2799.828,2800.8212,,,2801.3213,2801.5762,,156,156,,,,,,,,,,,,,,,,bars/027.png,bars/mask001.png,,,,,,,,,,,,0,1,,,,,,,6,8,3,8,,,,,,,,,,,2800.8212,2801.3213,2801.5762,2803.9377,space,2.333,,2803.9377,46,74,2804.9424,2804.9424,2804.9498,,,,0,48,48,48,1,110,50,,,,,,,,
,,6159d36b31fe01e003282538,65af568a91bb652b9495bacd,2024-01-23_08h04.51.677,bars,2023.2.3,Win32,58.82352941,657b66ea316d21385b68909f,,,,,,,,,,,2804.9499,2805.9376,,,2806.4376,2806.6876,,45,225,,,,,,,,,,,,,,,,bars/029.png,bars/mask006.png,,,,,,,,,,,,10,2,,,,,,,4,10,4,10,,,,,,,,,,,2805.9376,2806.4376,2806.6876,2809.6044,space,2.9122,,2809.6044,45,0,2810.6091,2810.6091,2810.6168,,,,0,49,49,49,1,90,45,,,,,,,,
,,6159d36b31fe01e003282538,65af568a91bb652b9495bacd,2024-01-23_08h04.51.677,bars,2023.2.3,Win32,58.82352941,657b66ea316d21385b68909f,,,,,,,,,,,,,,,,,,,,,,,,,,,,,,,,,,,,,,,,,,,,,,,,,,,,,,,,,,,,,,,,,,,,,,,,,,,,,,,,,,,,,,,,,,,,,2810.6168,2870.6046,0,3,3,4,1,sequence_tables/blk010.csv
,,6159d36b31fe01e003282538,65af568a91bb652b9495bacd,2024-01-23_08h04.51.677,bars,2023.2.3,Win32,58.82352941,657b66ea316d21385b68909f,,,,,,,,,,,2872.2242,2873.2212,,,2873.721,2873.9712,,2,2,,,,,,,,,,,,,,,,bars/006.png,bars/mask003.png,,,,,,,,,,,,0,1,,,,,,,0,10,1,9,,,,,,2870.6125,2872.221,space,1.5946,,2873.2212,2873.7209,2873.9713,2876.9379,space,2.9338,,2876.9379,33,82,2877.9377,2877.9378,2877.9454,,,,0,0,0,0,1,35,100,,,,,,,,
,,6159d36b31fe01e003282538,65af568a91bb652b9495bacd,2024-01-23_08h04.51.677,bars,2023.2.3,Win32,58.82352941,657b66ea316d21385b68909f,,,,,,,,,,,2877.9455,2878.9376,,,2879.4377,2879.6878,,34,214,,,,,,,,,,,,,,,,bars/035.png,bars/mask006.png,,,,,,,,,,,,1,2,,,,,,,0,10,0,10,,,,,,,,,,,2878.9376,2879.4377,2879.6878,2881.8545,space,2.1595,,2881.8545,39,26,2882.8543,2882.8543,2882.8616,,,,0,1,1,1,1,175,60,,,,,,,,
,,6159d36b31fe01e003282538,65af568a91bb652b9495bacd,2024-01-23_08h04.51.677,bars,2023.2.3,Win32,58.82352941,657b66ea316d21385b68909f,,,,,,,,,,,2882.8618,2883.8544,,,2884.3545,2884.6045,,155,155,,,,,,,,,,,,,,,,bars/008.png,bars/mask003.png,,,,,,,,,,,,2,2,,,,,,,0,10,0,10,,,,,,,,,,,2883.8545,2884.3545,2884.6045,2887.2046,space,2.5869,,2887.2046,45,25,2888.2087,2888.2087,2888.2155,,,,0,2,2,2,1,110,0,,,,,,,,
,,6159d36b31fe01e003282538,65af568a91bb652b9495bacd,2024-01-23_08h04.51.677,bars,2023.2.3,Win32,58.82352941,657b66ea316d21385b68909f,,,,,,,,,,,2888.2156,2889.2045,,,2889.7045,2889.9542,,170,170,,,,,,,,,,,,,,,,bars/000.png,bars/mask003.png,,,,,,,,,,,,1,2,,,,,,,0,8,0,9,,,,,,,,,,,2889.2045,2889.7045,2889.9542,2892.8212,space,2.861,,2892.8213,50,25,2893.8209,2893.821,2893.8277,,,,0,3,3,3,1,40,145,,,,,,,,
,,6159d36b31fe01e003282538,65af568a91bb652b9495bacd,2024-01-23_08h04.51.677,bars,2023.2.3,Win32,58.82352941,657b66ea316d21385b68909f,,,,,,,,,,,2893.8278,2894.8208,,,2895.3255,2895.571,,4,4,,,,,,,,,,,,,,,,bars/043.png,bars/mask009.png,,,,,,,,,,,,0,1,,,,,,,2,10,3,10,,,,,,,,,,,2894.8208,2895.3255,2895.571,2918.1879,space,22.6,,2918.1879,26,54,2919.1756,2919.1756,2919.1834,,,,0,4,4,4,1,30,130,,,,,,,,
,,6159d36b31fe01e003282538,65af568a91bb652b9495bacd,2024-01-23_08h04.51.677,bars,2023.2.3,Win32,58.82352941,657b66ea316d21385b68909f,,,,,,,,,,,2919.1836,2920.1926,,,2920.6878,2920.9256,,65,65,,,,,,,,,,,,,,,,bars/004.png,bars/mask002.png,,,,,,,,,,,,0,1,,,,,,,0,10,0,10,,,,,,,,,,,2920.1927,2920.6878,2920.9257,2939.4759,space,18.5336,,2939.476,40,60,2940.4708,2940.4709,2940.4785,,,,0,5,5,5,1,25,125,,,,,,,,
,,6159d36b31fe01e003282538,65af568a91bb652b9495bacd,2024-01-23_08h04.51.677,bars,2023.2.3,Win32,58.82352941,657b66ea316d21385b68909f,,,,,,,,,,,2940.4787,2941.4709,,,2941.9709,2942.2091,,55,55,,,,,,,,,,,,,,,,bars/049.png,bars/mask006.png,,,,,,,,,,,,0,2,,,,,,,2,10,1,10,,,,,,,,,,,2941.471,2941.9709,2942.2091,2943.8377,space,1.6102,,2943.8377,75,60,2944.8375,2944.8375,2944.8458,,,,0,6,6,6,1,160,115,,,,,,,,
,,6159d36b31fe01e003282538,65af568a91bb652b9495bacd,2024-01-23_08h04.51.677,bars,2023.2.3,Win32,58.82352941,657b66ea316d21385b68909f,,,,,,,,,,,2944.846,2945.8376,,,2946.3422,2946.5877,,132,-48,,,,,,,,,,,,,,,,bars/007.png,bars/mask003.png,,,,,,,,,,,,0,1,,,,,,,0,10,0,9,,,,,,,,,,,2945.8376,2946.3422,2946.5877,3029.4377,space,82.8436,,3029.4377,43,77,3030.4376,3030.4376,3030.4465,,,,0,7,7,7,1,175,55,,,,,,,,
,,6159d36b31fe01e003282538,65af568a91bb652b9495bacd,2024-01-23_08h04.51.677,bars,2023.2.3,Win32,58.82352941,657b66ea316d21385b68909f,,,,,,,,,,,3030.4466,3031.4373,,,3031.9377,3032.1877,,81,81,,,,,,,,,,,,,,,,bars/010.png,bars/mask007.png,,,,,,,,,,,,1,2,,,,,,,2,8,2,7,,,,,,,,,,,3031.4373,3031.9376,3032.1877,3034.2545,space,2.0504,,3034.2546,84,26,3035.254,3035.254,3035.2615,,,,0,8,8,8,1,165,55,,,,,,,,
,,6159d36b31fe01e003282538,65af568a91bb652b9495bacd,2024-01-23_08h04.51.677,bars,2023.2.3,Win32,58.82352941,657b66ea316d21385b68909f,,,,,,,,,,,3035.2617,3036.2544,,,3036.7545,3037.0043,,3,183,,,,,,,,,,,,,,,,bars/029.png,bars/mask006.png,,,,,,,,,,,,0,2,,,,,,,0,6,1,6,,,,,,,,,,,3036.2544,3036.7543,3037.0043,3041.2542,space,4.2337,,3041.2542,87,42,3042.2541,3042.2542,3042.2609,,,,0,9,9,9,1,90,45,,,,,,,,
,,6159d36b31fe01e003282538,65af568a91bb652b9495bacd,2024-01-23_08h04.51.677,bars,2023.2.3,Win32,58.82352941,657b66ea316d21385b68909f,,,,,,,,,,,3042.261,3043.2542,,,3043.7545,3044.0042,,104,104,,,,,,,,,,,,,,,,bars/025.png,bars/mask006.png,,,,,,,,,,,,2,1,,,,,,,2,8,2,7,,,,,,,,,,,3043.2543,3043.7545,3044.0043,3045.4043,space,1.3821,,3045.4044,1,64,3046.4041,3046.4042,3046.4056,,,,0,10,10,10,1,105,40,,,,,,,,
,,6159d36b31fe01e003282538,65af568a91bb652b9495bacd,2024-01-23_08h04.51.677,bars,2023.2.3,Win32,58.82352941,657b66ea316d21385b68909f,,,,,,,,,,,3046.4058,3047.4042,,,3047.904,3048.1544,,157,157,,,,,,,,,,,,,,,,bars/044.png,bars/mask008.png,,,,,,,,,,,,6,2,,,,,,,0,6,0,6,,,,,,,,,,,3047.4043,3047.9039,3048.1544,3049.8712,space,1.7076,,3049.8712,82,2,3050.8708,3050.8708,3050.8788,,,,0,11,11,11,1,75,155,,,,,,,,
