init_variables.started,init_variables.stopped,participant,session,date,expName,psychopyVersion,OS,frameRate,study_id,instruction_exp.started,instruction_exp.stopped,key_resp_8.keys,key_resp_8.rt,key_resp_8.duration,instruction_single.started,instruction_single.stopped,key_resp_2.keys,key_resp_2.rt,key_resp_2.duration,interval.started,interval.stopped,cue_single.started,cue_single.stopped,mask.started,mask.stopped,ori_response_single.started,res_ori,res,ori_response_single.stopped,key_resp_single.keys,key_resp_single.rt,key_resp_single.duration,disp_single.started,disp_single.stopped,key_resp.keys,key_resp.rt,key_resp.duration,single.thisRepN,single.thisTrialN,single.thisN,single.thisIndex,single.ran,ori,path,mask_path,instruction_bandit.started,instruction_bandit.stopped,key_resp_6.keys,key_resp_6.rt,key_resp_6.duration,cue_bandit.started,cue_bandit.stopped,bandit_res.keys,bandit_res.rt,bandit_res.duration,outcome_bandit.started,rew,action,outcome_bandit.stopped,bandit.thisRepN,bandit.thisTrialN,bandit.thisN,bandit.thisIndex,bandit.ran,actual_rew1,actual_rew2,rew1,rew2,instruction_task.started,instruction_task.stopped,key_resp_7.keys,key_resp_7.rt,key_resp_7.duration,wait_ready.started,wait_ready.stopped,key_resp_3.keys,key_resp_3.rt,key_resp_3.duration,cue.started,cue.stopped,ori_response.started,ori_response.stopped,key_resp_5.keys,key_resp_5.rt,key_resp_5.duration,outcome.started,diff1,diff2,outcome.stopped,disp_outcome_practice.started,disp_outcome_practice.stopped,key_resp_4.keys,key_resp_4.rt,key_resp_4.duration,trials.thisRepN,trials.thisTrialN,trials.thisN,trials.thisIndex,trials.ran,ori1,ori2,break_blk.started,break_blk.stopped,block.thisRepN,block.thisTrialN,block.thisN,block.thisIndex,block.ran,condition_file
1E-04,0.0003,659973d85dffc3c84fb51ec4,65af7207ca620457d06d5d1f,2024-01-23_13h02.49.442,bars,2023.2.3,Win32,166.6666667,657b66ea316d21385b68909f,,,,,,,,,,,,,,,,,,,,,,,,,,,,,,,,,,,,,,,,,,,,,,,,,,,,,,,,,,,,,,,,,,,,,,,,,,,,,,,,,,,,,,,,,,,,,,,,,,,,
,,659973d85dffc3c84fb51ec4,65af7207ca620457d06d5d1f,2024-01-23_13h02.49.442,bars,2023.2.3,Win32,166.6666667,657b66ea316d21385b68909f,0.0004,6.0197,y,6.0119,,,,,,,,,,,,,,,,,,,,,,,,,,,,,,,,,,,,,,,,,,,,,,,,,,,,,,,,,,,,,,,,,,,,,,,,,,,,,,,,,,,,,,,,,,,,,,,,
,,659973d85dffc3c84fb51ec4,65af7207ca620457d06d5d1f,2024-01-23_13h02.49.442,bars,2023.2.3,Win32,166.6666667,657b66ea316d21385b68909f,,,,,,6.0197,16.6534,space,10.601,,,,,,,,,,,,,,,,,,,,,,,,,,,,,,,,,,,,,,,,,,,,,,,,,,,,,,,,,,,,,,,,,,,,,,,,,,,,,,,,,,,,,,,,,,,
,,659973d85dffc3c84fb51ec4,65af7207ca620457d06d5d1f,2024-01-23_13h02.49.442,bars,2023.2.3,Win32,166.6666667,657b66ea316d21385b68909f,,,,,,,,,,,16.6562,17.6528,17.6529,18.1523,18.1523,18.4022,18.4024,18,18,21.1525,space,2.7277,,21.1526,26.8857,space,5.7166,,0,0,0,3,1,20,bars/single003.png,bars/mask005.png,,,,,,,,,,,,,,,,,,,,,,,,,,,,,,,,,,,,,,,,,,,,,,,,,,,,,,,,,,,,,,,,
,,659973d85dffc3c84fb51ec4,65af7207ca620457d06d5d1f,2024-01-23_13h02.49.442,bars,2023.2.3,Win32,166.6666667,657b66ea316d21385b68909f,,,,,,,,,,,26.8859,27.8744,27.8744,28.3691,28.3691,28.6356,28.6356,163,-17,30.2523,space,1.6002,,30.2523,31.5359,space,1.267,,0,1,1,8,1,160,bars/single008.png,bars/mask004.png,,,,,,,,,,,,,,,,,,,,,,,,,,,,,,,,,,,,,,,,,,,,,,,,,,,,,,,,,,,,,,,,
,,659973d85dffc3c84fb51ec4,65af7207ca620457d06d5d1f,2024-01-23_13h02.49.442,bars,2023.2.3,Win32,166.6666667,657b66ea316d21385b68909f,,,,,,,,,,,31.5362,32.5359,32.5359,33.0356,33.0356,33.2856,33.2856,76,256,36.9356,space,3.617,,36.9356,37.9024,space,0.9501,,0,2,2,5,1,55,bars/single005.png,bars/mask008.png,,,,,,,,,,,,,,,,,,,,,,,,,,,,,,,,,,,,,,,,,,,,,,,,,,,,,,,,,,,,,,,,
,,659973d85dffc3c84fb51ec4,65af7207ca620457d06d5d1f,2024-01-23_13h02.49.442,bars,2023.2.3,Win32,166.6666667,657b66ea316d21385b68909f,,,,,,,,,,,37.9025,38.9022,38.9022,39.3893,39.3893,39.6357,39.6357,94,94,42.6524,space,2.9839,,42.6524,43.7693,space,1.0838,,0,3,3,4,1,95,bars/single004.png,bars/mask004.png,,,,,,,,,,,,,,,,,,,,,,,,,,,,,,,,,,,,,,,,,,,,,,,,,,,,,,,,,,,,,,,,
,,659973d85dffc3c84fb51ec4,65af7207ca620457d06d5d1f,2024-01-23_13h02.49.442,bars,2023.2.3,Win32,166.6666667,657b66ea316d21385b68909f,,,,,,,,,,,43.7694,44.7854,44.7854,45.2697,45.2697,45.5189,45.5189,147,147,47.5191,space,1.9671,,47.5191,48.3691,space,0.817,,0,4,4,2,1,145,bars/single002.png,bars/mask003.png,,,,,,,,,,,,,,,,,,,,,,,,,,,,,,,,,,,,,,,,,,,,,,,,,,,,,,,,,,,,,,,,
,,659973d85dffc3c84fb51ec4,65af7207ca620457d06d5d1f,2024-01-23_13h02.49.442,bars,2023.2.3,Win32,166.6666667,657b66ea316d21385b68909f,,,,,,,,,,,48.3692,49.3688,49.3688,49.8689,49.8689,50.1189,50.1189,29,29,51.8694,space,1.7174,,51.8695,52.6359,space,0.7504,,0,5,5,9,1,20,bars/single009.png,bars/mask006.png,,,,,,,,,,,,,,,,,,,,,,,,,,,,,,,,,,,,,,,,,,,,,,,,,,,,,,,,,,,,,,,,
,,659973d85dffc3c84fb51ec4,65af7207ca620457d06d5d1f,2024-01-23_13h02.49.442,bars,2023.2.3,Win32,166.6666667,657b66ea316d21385b68909f,,,,,,,,,,,52.6361,53.6354,53.6354,54.1365,54.1365,54.3855,54.3855,31,211,57.9362,space,3.5174,,57.9362,58.7857,space,0.8171,,0,6,6,7,1,45,bars/single007.png,bars/mask009.png,,,,,,,,,,,,,,,,,,,,,,,,,,,,,,,,,,,,,,,,,,,,,,,,,,,,,,,,,,,,,,,,
,,659973d85dffc3c84fb51ec4,65af7207ca620457d06d5d1f,2024-01-23_13h02.49.442,bars,2023.2.3,Win32,166.6666667,657b66ea316d21385b68909f,,,,,,,,,,,58.7858,59.7855,59.7855,60.3022,60.3022,60.5359,60.5359,165,165,63.4697,space,2.9011,,63.4698,64.0859,space,0.5836,,0,7,7,6,1,175,bars/single006.png,bars/mask005.png,,,,,,,,,,,,,,,,,,,,,,,,,,,,,,,,,,,,,,,,,,,,,,,,,,,,,,,,,,,,,,,,
,,659973d85dffc3c84fb51ec4,65af7207ca620457d06d5d1f,2024-01-23_13h02.49.442,bars,2023.2.3,Win32,166.6666667,657b66ea316d21385b68909f,,,,,,,,,,,64.0861,65.0854,65.0854,65.5854,65.5855,65.8358,65.8358,6,6,69.4027,space,3.534,,69.4027,70.0027,space,0.5672,,0,8,8,1,1,20,bars/single001.png,bars/mask006.png,,,,,,,,,,,,,,,,,,,,,,,,,,,,,,,,,,,,,,,,,,,,,,,,,,,,,,,,,,,,,,,,
,,659973d85dffc3c84fb51ec4,65af7207ca620457d06d5d1f,2024-01-23_13h02.49.442,bars,2023.2.3,Win32,166.6666667,657b66ea316d21385b68909f,,,,,,,,,,,70.0028,71.0028,71.0028,71.5024,71.5025,71.7523,71.7523,165,-15,74.0522,space,2.2669,,74.0523,74.7023,space,0.617,,0,9,9,0,1,150,bars/single000.png,bars/mask006.png,,,,,,,,,,,,,,,,,,,,,,,,,,,,,,,,,,,,,,,,,,,,,,,,,,,,,,,,,,,,,,,,
,,659973d85dffc3c84fb51ec4,65af7207ca620457d06d5d1f,2024-01-23_13h02.49.442,bars,2023.2.3,Win32,166.6666667,657b66ea316d21385b68909f,,,,,,,,,,,,,,,,,,,,,,,,,,,,,,,,,,,,,74.7026,147.6048,space,72.8692,,,,,,,,,,,,,,,,,,,,,,,,,,,,,,,,,,,,,,,,,,,,,,,,,,,,,,,,,,,,
,,659973d85dffc3c84fb51ec4,65af7207ca620457d06d5d1f,2024-01-23_13h02.49.442,bars,2023.2.3,Win32,166.6666667,657b66ea316d21385b68909f,,,,,,,,,,,,,,,,,,,,,,,,,,,,,,,,,,,,,,,,,,147.6111,151.4887,right,3.8492,,151.4889,2,2,152.4881,0,0,0,0,1,9,1,9,2,,,,,,,,,,,,,,,,,,,,,,,,,,,,,,,,,,,,,,,,,
,,659973d85dffc3c84fb51ec4,65af7207ca620457d06d5d1f,2024-01-23_13h02.49.442,bars,2023.2.3,Win32,166.6666667,657b66ea316d21385b68909f,,,,,,,,,,,,,,,,,,,,,,,,,,,,,,,,,,,,,,,,,,152.4883,153.7892,left,1.2665,,153.7892,10,1,154.7889,0,1,1,1,1,10,0,10,1,,,,,,,,,,,,,,,,,,,,,,,,,,,,,,,,,,,,,,,,,
,,659973d85dffc3c84fb51ec4,65af7207ca620457d06d5d1f,2024-01-23_13h02.49.442,bars,2023.2.3,Win32,166.6666667,657b66ea316d21385b68909f,,,,,,,,,,,,,,,,,,,,,,,,,,,,,,,,,,,,,,,,,,154.789,155.1891,left,0.3665,,155.1891,10,1,156.1891,0,2,2,2,1,10,2,10,2,,,,,,,,,,,,,,,,,,,,,,,,,,,,,,,,,,,,,,,,,
,,659973d85dffc3c84fb51ec4,65af7207ca620457d06d5d1f,2024-01-23_13h02.49.442,bars,2023.2.3,Win32,166.6666667,657b66ea316d21385b68909f,,,,,,,,,,,,,,,,,,,,,,,,,,,,,,,,,,,,,,,,,,156.1893,156.6045,left,0.382,,156.6045,7,1,157.6043,0,3,3,3,1,8,4,7,3,,,,,,,,,,,,,,,,,,,,,,,,,,,,,,,,,,,,,,,,,
,,659973d85dffc3c84fb51ec4,65af7207ca620457d06d5d1f,2024-01-23_13h02.49.442,bars,2023.2.3,Win32,166.6666667,657b66ea316d21385b68909f,,,,,,,,,,,,,,,,,,,,,,,,,,,,,,,,,,,,,,,,,,157.6044,158.0222,left,0.3823,,158.0222,5,1,159.0214,0,4,4,4,1,6,2,5,1,,,,,,,,,,,,,,,,,,,,,,,,,,,,,,,,,,,,,,,,,
,,659973d85dffc3c84fb51ec4,65af7207ca620457d06d5d1f,2024-01-23_13h02.49.442,bars,2023.2.3,Win32,166.6666667,657b66ea316d21385b68909f,,,,,,,,,,,,,,,,,,,,,,,,,,,,,,,,,,,,,,,,,,159.0215,159.9736,right,0.9175,,159.9737,4,2,160.9734,0,5,5,5,1,4,4,4,4,,,,,,,,,,,,,,,,,,,,,,,,,,,,,,,,,,,,,,,,,
,,659973d85dffc3c84fb51ec4,65af7207ca620457d06d5d1f,2024-01-23_13h02.49.442,bars,2023.2.3,Win32,166.6666667,657b66ea316d21385b68909f,,,,,,,,,,,,,,,,,,,,,,,,,,,,,,,,,,,,,,,,,,160.9736,161.2402,left,0.2356,,161.2402,1,1,162.2405,0,6,6,6,1,2,2,1,2,,,,,,,,,,,,,,,,,,,,,,,,,,,,,,,,,,,,,,,,,
,,659973d85dffc3c84fb51ec4,65af7207ca620457d06d5d1f,2024-01-23_13h02.49.442,bars,2023.2.3,Win32,166.6666667,657b66ea316d21385b68909f,,,,,,,,,,,,,,,,,,,,,,,,,,,,,,,,,,,,,,,,,,162.2407,162.4055,right,0.1342,,162.4055,1,2,163.4044,0,7,7,7,1,0,0,0,1,,,,,,,,,,,,,,,,,,,,,,,,,,,,,,,,,,,,,,,,,
,,659973d85dffc3c84fb51ec4,65af7207ca620457d06d5d1f,2024-01-23_13h02.49.442,bars,2023.2.3,Win32,166.6666667,657b66ea316d21385b68909f,,,,,,,,,,,,,,,,,,,,,,,,,,,,,,,,,,,,,,,,,,163.4045,163.4888,left,0.0488,,163.4889,1,1,164.4879,0,8,8,8,1,0,2,1,0,,,,,,,,,,,,,,,,,,,,,,,,,,,,,,,,,,,,,,,,,
,,659973d85dffc3c84fb51ec4,65af7207ca620457d06d5d1f,2024-01-23_13h02.49.442,bars,2023.2.3,Win32,166.6666667,657b66ea316d21385b68909f,,,,,,,,,,,,,,,,,,,,,,,,,,,,,,,,,,,,,,,,,,164.488,164.5549,right,0.032,,164.5549,3,2,165.5554,0,9,9,9,1,2,4,2,3,,,,,,,,,,,,,,,,,,,,,,,,,,,,,,,,,,,,,,,,,
,,659973d85dffc3c84fb51ec4,65af7207ca620457d06d5d1f,2024-01-23_13h02.49.442,bars,2023.2.3,Win32,166.6666667,657b66ea316d21385b68909f,,,,,,,,,,,,,,,,,,,,,,,,,,,,,,,,,,,,,,,,,,165.5556,165.7736,right,0.1831,,165.7736,3,2,166.7711,0,10,10,10,1,0,2,0,3,,,,,,,,,,,,,,,,,,,,,,,,,,,,,,,,,,,,,,,,,
,,659973d85dffc3c84fb51ec4,65af7207ca620457d06d5d1f,2024-01-23_13h02.49.442,bars,2023.2.3,Win32,166.6666667,657b66ea316d21385b68909f,,,,,,,,,,,,,,,,,,,,,,,,,,,,,,,,,,,,,,,,,,166.7713,167.0559,right,0.2502,,167.056,3,2,168.0433,0,11,11,11,1,0,4,0,3,,,,,,,,,,,,,,,,,,,,,,,,,,,,,,,,,,,,,,,,,
,,659973d85dffc3c84fb51ec4,65af7207ca620457d06d5d1f,2024-01-23_13h02.49.442,bars,2023.2.3,Win32,166.6666667,657b66ea316d21385b68909f,,,,,,,,,,,,,,,,,,,,,,,,,,,,,,,,,,,,,,,,,,168.0434,168.2399,left,0.1687,,168.2399,1,1,169.2566,0,12,12,12,1,2,6,1,6,,,,,,,,,,,,,,,,,,,,,,,,,,,,,,,,,,,,,,,,,
,,659973d85dffc3c84fb51ec4,65af7207ca620457d06d5d1f,2024-01-23_13h02.49.442,bars,2023.2.3,Win32,166.6666667,657b66ea316d21385b68909f,,,,,,,,,,,,,,,,,,,,,,,,,,,,,,,,,,,,,,,,,,169.2567,169.2883,left,0.0171,,169.2883,1,1,170.2878,0,13,13,13,1,0,4,1,3,,,,,,,,,,,,,,,,,,,,,,,,,,,,,,,,,,,,,,,,,
,,659973d85dffc3c84fb51ec4,65af7207ca620457d06d5d1f,2024-01-23_13h02.49.442,bars,2023.2.3,Win32,166.6666667,657b66ea316d21385b68909f,,,,,,,,,,,,,,,,,,,,,,,,,,,,,,,,,,,,,,,,,,170.288,170.4044,left,0.0815,,170.4044,2,1,171.4044,0,14,14,14,1,2,6,2,7,,,,,,,,,,,,,,,,,,,,,,,,,,,,,,,,,,,,,,,,,
,,659973d85dffc3c84fb51ec4,65af7207ca620457d06d5d1f,2024-01-23_13h02.49.442,bars,2023.2.3,Win32,166.6666667,657b66ea316d21385b68909f,,,,,,,,,,,,,,,,,,,,,,,,,,,,,,,,,,,,,,,,,,171.4045,171.4879,left,0.0481,,171.4879,3,1,172.4887,0,15,15,15,1,4,8,3,9,,,,,,,,,,,,,,,,,,,,,,,,,,,,,,,,,,,,,,,,,
,,659973d85dffc3c84fb51ec4,65af7207ca620457d06d5d1f,2024-01-23_13h02.49.442,bars,2023.2.3,Win32,166.6666667,657b66ea316d21385b68909f,,,,,,,,,,,,,,,,,,,,,,,,,,,,,,,,,,,,,,,,,,172.4887,172.8401,left,0.3169,,172.8401,7,1,173.84,0,16,16,16,1,6,6,7,7,,,,,,,,,,,,,,,,,,,,,,,,,,,,,,,,,,,,,,,,,
,,659973d85dffc3c84fb51ec4,65af7207ca620457d06d5d1f,2024-01-23_13h02.49.442,bars,2023.2.3,Win32,166.6666667,657b66ea316d21385b68909f,,,,,,,,,,,,,,,,,,,,,,,,,,,,,,,,,,,,,,,,,,173.8401,174.0395,left,0.1683,,174.0395,9,1,175.0399,0,17,17,17,1,8,4,9,5,,,,,,,,,,,,,,,,,,,,,,,,,,,,,,,,,,,,,,,,,
,,659973d85dffc3c84fb51ec4,65af7207ca620457d06d5d1f,2024-01-23_13h02.49.442,bars,2023.2.3,Win32,166.6666667,657b66ea316d21385b68909f,,,,,,,,,,,,,,,,,,,,,,,,,,,,,,,,,,,,,,,,,,175.04,175.1736,left,0.1024,,175.1737,5,1,176.1731,0,18,18,18,1,6,2,5,1,,,,,,,,,,,,,,,,,,,,,,,,,,,,,,,,,,,,,,,,,
,,659973d85dffc3c84fb51ec4,65af7207ca620457d06d5d1f,2024-01-23_13h02.49.442,bars,2023.2.3,Win32,166.6666667,657b66ea316d21385b68909f,,,,,,,,,,,,,,,,,,,,,,,,,,,,,,,,,,,,,,,,,,176.1733,176.3382,right,0.1336,,176.3382,0,2,177.3377,0,19,19,19,1,8,0,7,0,,,,,,,,,,,,,,,,,,,,,,,,,,,,,,,,,,,,,,,,,
,,659973d85dffc3c84fb51ec4,65af7207ca620457d06d5d1f,2024-01-23_13h02.49.442,bars,2023.2.3,Win32,166.6666667,657b66ea316d21385b68909f,,,,,,,,,,,,,,,,,,,,,,,,,,,,,,,,,,,,,,,,,,,,,,,,,,,,,,,,,,,,177.338,188.5047,space,11.131,,,,,,,,,,,,,,,,,,,,,,,,,,,,,,,,,,,,,
,,659973d85dffc3c84fb51ec4,65af7207ca620457d06d5d1f,2024-01-23_13h02.49.442,bars,2023.2.3,Win32,166.6666667,657b66ea316d21385b68909f,,,,,,,,,,,189.5256,190.5237,,,191.0211,191.2581,,74,74,,,,,,,,,,,,,,,,bars/034.png,bars/mask002.png,,,,,,,,,,,,2,2,,,,,,,7,2,8,3,,,,,,188.5108,189.5239,space,0.9859,,190.5238,191.0211,191.2582,194.1739,space,2.8847,,194.1739,51,9,195.1728,195.1729,201.6044,space,6.398,,0,0,0,0,1,125,65,,,,,,,,
,,659973d85dffc3c84fb51ec4,65af7207ca620457d06d5d1f,2024-01-23_13h02.49.442,bars,2023.2.3,Win32,166.6666667,657b66ea316d21385b68909f,,,,,,,,,,,201.6098,202.6044,,,203.1058,203.3554,,172,172,,,,,,,,,,,,,,,,bars/033.png,bars/mask008.png,,,,,,,,,,,,2,2,,,,,,,9,4,8,5,,,,,,,,,,,202.6045,203.1058,203.3555,207.1719,space,3.7824,,207.172,33,17,208.1714,208.1715,212.4569,space,4.2518,,0,1,1,1,1,25,155,,,,,,,,
,,659973d85dffc3c84fb51ec4,65af7207ca620457d06d5d1f,2024-01-23_13h02.49.442,bars,2023.2.3,Win32,166.6666667,657b66ea316d21385b68909f,,,,,,,,,,,212.4621,213.456,,,213.9544,214.2044,,160,-20,,,,,,,,,,,,,,,,bars/032.png,bars/mask009.png,,,,,,,,,,,,0,1,,,,,,,7,6,6,6,,,,,,,,,,,213.456,213.9544,214.2044,217.2877,space,3.0491,,217.2877,35,40,218.2887,218.2887,221.0567,space,2.7312,,0,2,2,2,1,125,20,,,,,,,,
,,659973d85dffc3c84fb51ec4,65af7207ca620457d06d5d1f,2024-01-23_13h02.49.442,bars,2023.2.3,Win32,166.6666667,657b66ea316d21385b68909f,,,,,,,,,,,221.0619,222.0566,,,222.554,222.8057,,121,121,,,,,,,,,,,,,,,,bars/030.png,bars/mask004.png,,,,,,,,,,,,2,1,,,,,,,5,8,6,9,,,,,,,,,,,222.0566,222.554,222.8057,225.3546,space,2.5155,,225.3547,19,56,226.3544,226.3544,227.3896,space,1.001,,0,3,3,3,1,140,65,,,,,,,,
,,659973d85dffc3c84fb51ec4,65af7207ca620457d06d5d1f,2024-01-23_13h02.49.442,bars,2023.2.3,Win32,166.6666667,657b66ea316d21385b68909f,,,,,,,,,,,227.3898,228.3879,,,228.8874,229.1389,,11,11,,,,,,,,,,,,,,,,bars/012.png,bars/mask003.png,,,,,,,,,,,,5,2,,,,,,,3,6,2,6,,,,,,,,,,,228.3879,228.8874,229.139,230.9901,space,1.8361,,230.9901,79,4,231.9876,231.9876,233.0209,space,0.9993,,0,4,4,4,1,90,15,,,,,,,,
,,659973d85dffc3c84fb51ec4,65af7207ca620457d06d5d1f,2024-01-23_13h02.49.442,bars,2023.2.3,Win32,166.6666667,657b66ea316d21385b68909f,,,,,,,,,,,233.021,234.0209,,,234.5234,234.7713,,165,165,,,,,,,,,,,,,,,,bars/015.png,bars/mask007.png,,,,,,,,,,,,4,2,,,,,,,5,4,4,5,,,,,,,,,,,234.0209,234.5234,234.7713,238.3542,space,3.5482,,238.3542,55,5,239.3541,239.3541,240.3376,space,0.9473,,0,5,5,5,1,110,160,,,,,,,,
,,659973d85dffc3c84fb51ec4,65af7207ca620457d06d5d1f,2024-01-23_13h02.49.442,bars,2023.2.3,Win32,166.6666667,657b66ea316d21385b68909f,,,,,,,,,,,240.3378,241.3389,,,241.8378,242.0875,,10,190,,,,,,,,,,,,,,,,bars/012.png,bars/mask003.png,,,,,,,,,,,,3,2,,,,,,,3,2,3,3,,,,,,,,,,,241.3389,241.8378,242.0875,247.2727,space,5.1493,,247.2727,80,5,248.2601,248.2601,249.0376,space,0.7495,,0,6,6,6,1,90,15,,,,,,,,
,,659973d85dffc3c84fb51ec4,65af7207ca620457d06d5d1f,2024-01-23_13h02.49.442,bars,2023.2.3,Win32,166.6666667,657b66ea316d21385b68909f,,,,,,,,,,,249.0378,250.0379,,,250.5388,250.7891,,7,7,,,,,,,,,,,,,,,,bars/014.png,bars/mask006.png,,,,,,,,,,,,2,2,,,,,,,1,4,2,3,,,,,,,,,,,250.0379,250.5388,250.7891,252.8724,space,2.0514,,252.8724,73,7,253.8721,253.8722,254.6056,space,0.7006,,0,7,7,7,1,80,0,,,,,,,,
,,659973d85dffc3c84fb51ec4,65af7207ca620457d06d5d1f,2024-01-23_13h02.49.442,bars,2023.2.3,Win32,166.6666667,657b66ea316d21385b68909f,,,,,,,,,,,254.6057,255.6055,,,256.1055,256.3544,,176,176,,,,,,,,,,,,,,,,bars/035.png,bars/mask000.png,,,,,,,,,,,,0,1,,,,,,,0,2,0,3,,,,,,,,,,,255.6056,256.1055,256.3544,257.5047,space,1.1156,,257.5047,1,64,258.5042,258.5043,259.4185,space,0.8787,,0,8,8,8,1,175,60,,,,,,,,
,,659973d85dffc3c84fb51ec4,65af7207ca620457d06d5d1f,2024-01-23_13h02.49.442,bars,2023.2.3,Win32,166.6666667,657b66ea316d21385b68909f,,,,,,,,,,,259.4187,260.4183,,,260.9185,261.1684,,142,142,,,,,,,,,,,,,,,,bars/021.png,bars/mask000.png,,,,,,,,,,,,0,1,,,,,,,0,4,0,5,,,,,,,,,,,260.4184,260.9184,261.1684,263.5204,space,2.3357,,263.5204,13,72,264.5221,264.5221,267.2688,space,2.7128,,0,9,9,9,1,155,70,,,,,,,,
,,659973d85dffc3c84fb51ec4,65af7207ca620457d06d5d1f,2024-01-23_13h02.49.442,bars,2023.2.3,Win32,166.6666667,657b66ea316d21385b68909f,,,,,,,,,,,267.2744,268.2688,,,268.7685,269.0196,,93,93,,,,,,,,,,,,,,,,bars/001.png,bars/mask001.png,,,,,,,,,,,,4,2,,,,,,,0,6,0,6,,,,,,,,,,,268.2688,268.7685,269.0196,272.4526,space,3.4012,,272.4526,37,8,273.4516,273.4517,275.3685,space,1.8836,,0,10,10,10,1,130,85,,,,,,,,
,,659973d85dffc3c84fb51ec4,65af7207ca620457d06d5d1f,2024-01-23_13h02.49.442,bars,2023.2.3,Win32,166.6666667,657b66ea316d21385b68909f,,,,,,,,,,,275.3686,276.3683,,,276.8694,277.1184,,71,71,,,,,,,,,,,,,,,,bars/018.png,bars/mask006.png,,,,,,,,,,,,3,2,,,,,,,2,8,2,8,,,,,,,,,,,276.3683,276.8694,277.1185,280.786,space,3.6502,,280.786,79,19,281.786,281.786,282.6193,space,0.8004,,0,11,11,11,1,150,90,,,,,,,,
,,659973d85dffc3c84fb51ec4,65af7207ca620457d06d5d1f,2024-01-23_13h02.49.442,bars,2023.2.3,Win32,166.6666667,657b66ea316d21385b68909f,,,,,,,,,,,282.6194,283.6191,,,284.1194,284.3535,,157,-23,,,,,,,,,,,,,,,,bars/033.png,bars/mask003.png,,,,,,,,,,,,6,2,,,,,,,4,6,5,6,,,,,,,,,,,283.6191,284.1194,284.3535,286.0186,space,1.6341,,286.0187,48,2,287.0195,287.0195,287.6188,space,0.5668,,0,12,12,12,1,25,155,,,,,,,,
,,659973d85dffc3c84fb51ec4,65af7207ca620457d06d5d1f,2024-01-23_13h02.49.442,bars,2023.2.3,Win32,166.6666667,657b66ea316d21385b68909f,,,,,,,,,,,287.6192,288.6186,,,289.1049,289.3516,,171,-9,,,,,,,,,,,,,,,,bars/015.png,bars/mask009.png,,,,,,,,,,,,5,2,,,,,,,2,8,1,8,,,,,,,,,,,288.6186,289.1049,289.3516,291.3018,space,1.9491,,291.3019,61,11,292.3017,292.3017,292.8688,space,0.5338,,0,13,13,13,1,110,160,,,,,,,,
,,659973d85dffc3c84fb51ec4,65af7207ca620457d06d5d1f,2024-01-23_13h02.49.442,bars,2023.2.3,Win32,166.6666667,657b66ea316d21385b68909f,,,,,,,,,,,292.8689,293.8689,,,294.3531,294.6023,,11,11,,,,,,,,,,,,,,,,bars/006.png,bars/mask005.png,,,,,,,,,,,,1,1,,,,,,,4,10,3,10,,,,,,,,,,,293.8689,294.3531,294.6023,296.8031,space,2.1834,,296.8032,24,89,297.8018,297.8019,298.5525,space,0.7174,,0,14,14,14,1,35,100,,,,,,,,
,,659973d85dffc3c84fb51ec4,65af7207ca620457d06d5d1f,2024-01-23_13h02.49.442,bars,2023.2.3,Win32,166.6666667,657b66ea316d21385b68909f,,,,,,,,,,,298.5527,299.5528,,,300.0379,300.2861,,157,-23,,,,,,,,,,,,,,,,bars/024.png,bars/mask009.png,,,,,,,,,,,,5,2,,,,,,,2,10,3,9,,,,,,,,,,,299.5528,300.0379,300.2861,302.2851,space,1.9832,,302.2851,37,13,303.2848,303.2848,304.352,space,1.0338,,0,15,15,15,1,120,170,,,,,,,,
,,659973d85dffc3c84fb51ec4,65af7207ca620457d06d5d1f,2024-01-23_13h02.49.442,bars,2023.2.3,Win32,166.6666667,657b66ea316d21385b68909f,,,,,,,,,,,304.3521,305.3515,,,305.8515,306.1022,,87,87,,,,,,,,,,,,,,,,bars/026.png,bars/mask002.png,,,,,,,,,,,,7,2,,,,,,,0,10,0,8,,,,,,,,,,,305.3515,305.8515,306.1022,309.9682,space,3.8499,,309.9682,52,2,310.9691,310.9691,311.7687,space,0.767,,0,16,16,16,1,35,85,,,,,,,,
,,659973d85dffc3c84fb51ec4,65af7207ca620457d06d5d1f,2024-01-23_13h02.49.442,bars,2023.2.3,Win32,166.6666667,657b66ea316d21385b68909f,,,,,,,,,,,311.7689,312.7683,,,313.2684,313.5184,,10,190,,,,,,,,,,,,,,,,bars/040.png,bars/mask004.png,,,,,,,,,,,,8,2,,,,,,,2,8,2,10,,,,,,,,,,,312.7684,313.2684,313.5184,315.702,space,2.1673,,315.7021,50,5,316.7024,316.7024,317.4525,space,0.7162,,0,17,17,17,1,140,5,,,,,,,,
,,659973d85dffc3c84fb51ec4,65af7207ca620457d06d5d1f,2024-01-23_13h02.49.442,bars,2023.2.3,Win32,166.6666667,657b66ea316d21385b68909f,,,,,,,,,,,317.4527,318.4518,,,318.9524,319.2029,,161,161,,,,,,,,,,,,,,,,bars/016.png,bars/mask004.png,,,,,,,,,,,,9,2,,,,,,,4,10,5,10,,,,,,,,,,,318.4518,318.9524,319.2029,320.3514,space,1.1167,,320.3514,59,4,321.3524,321.3524,322.1042,space,0.7184,,0,18,18,18,1,40,165,,,,,,,,
,,659973d85dffc3c84fb51ec4,65af7207ca620457d06d5d1f,2024-01-23_13h02.49.442,bars,2023.2.3,Win32,166.6666667,657b66ea316d21385b68909f,,,,,,,,,,,322.1043,323.1015,,,323.6017,323.8521,,1,1,,,,,,,,,,,,,,,,bars/011.png,bars/mask009.png,,,,,,,,,,,,2,1,,,,,,,6,10,5,10,,,,,,,,,,,323.1015,323.6016,323.8521,326.3014,space,2.4166,,326.3015,21,84,327.3019,327.3019,327.9529,space,0.6172,,0,19,19,19,1,160,85,,,,,,,,
,,659973d85dffc3c84fb51ec4,65af7207ca620457d06d5d1f,2024-01-23_13h02.49.442,bars,2023.2.3,Win32,166.6666667,657b66ea316d21385b68909f,,,,,,,,,,,327.9531,328.9681,,,329.4695,329.7192,,111,111,,,,,,,,,,,,,,,,bars/009.png,bars/mask002.png,,,,,,,,,,,,8,2,,,,,,,8,10,9,10,,,,,,,,,,,328.9681,329.4695,329.7193,334.5517,space,4.8003,,334.5517,84,6,335.5517,335.5517,336.3683,space,0.7836,,0,20,20,20,1,15,105,,,,,,,,
,,659973d85dffc3c84fb51ec4,65af7207ca620457d06d5d1f,2024-01-23_13h02.49.442,bars,2023.2.3,Win32,166.6666667,657b66ea316d21385b68909f,,,,,,,,,,,336.3684,337.3692,,,337.8681,338.1193,,6,186,,,,,,,,,,,,,,,,bars/040.png,bars/mask002.png,,,,,,,,,,,,10,2,,,,,,,6,8,6,10,,,,,,,,,,,337.3692,337.8681,338.1193,343.8181,space,5.6669,,343.8181,46,1,344.8188,344.8189,346.4515,space,1.6001,,0,21,21,21,1,140,5,,,,,,,,
,,659973d85dffc3c84fb51ec4,65af7207ca620457d06d5d1f,2024-01-23_13h02.49.442,bars,2023.2.3,Win32,166.6666667,657b66ea316d21385b68909f,,,,,,,,,,,346.4516,347.4517,,,347.9518,348.2181,,81,81,,,,,,,,,,,,,,,,bars/011.png,bars/mask001.png,,,,,,,,,,,,4,2,,,,,,,4,6,6,5,,,,,,,,,,,347.4518,347.9518,348.2181,350.9516,space,2.717,,350.9516,79,4,351.9514,351.9514,352.6523,space,0.6843,,0,22,22,22,1,160,85,,,,,,,,
,,659973d85dffc3c84fb51ec4,65af7207ca620457d06d5d1f,2024-01-23_13h02.49.442,bars,2023.2.3,Win32,166.6666667,657b66ea316d21385b68909f,,,,,,,,,,,352.6524,353.6524,,,354.1521,354.3883,,3,3,,,,,,,,,,,,,,,,bars/040.png,bars/mask008.png,,,,,,,,,,,,7,2,,,,,,,2,8,2,8,,,,,,,,,,,353.6524,354.1521,354.3883,356.6352,space,2.2172,,356.6353,43,2,357.6351,357.6351,358.27,space,0.6005,,0,23,23,23,1,140,5,,,,,,,,
,,659973d85dffc3c84fb51ec4,65af7207ca620457d06d5d1f,2024-01-23_13h02.49.442,bars,2023.2.3,Win32,166.6666667,657b66ea316d21385b68909f,,,,,,,,,,,358.2702,359.2696,,,359.7685,360.0192,,81,81,,,,,,,,,,,,,,,,bars/039.png,bars/mask008.png,,,,,,,,,,,,2,2,,,,,,,4,10,4,10,,,,,,,,,,,359.2697,359.7685,360.0192,361.8182,space,1.7828,,361.8183,86,24,362.8184,362.8184,363.3848,space,0.5336,,0,24,24,24,1,175,105,,,,,,,,
,,659973d85dffc3c84fb51ec4,65af7207ca620457d06d5d1f,2024-01-23_13h02.49.442,bars,2023.2.3,Win32,166.6666667,657b66ea316d21385b68909f,,,,,,,,,,,363.385,364.3849,,,364.885,365.1358,,53,53,,,,,,,,,,,,,,,,bars/035.png,bars/mask003.png,,,,,,,,,,,,5,2,,,,,,,2,8,3,7,,,,,,,,,,,364.385,364.885,365.1358,368.5525,space,3.3845,,368.5525,58,7,369.5525,369.5526,370.3521,space,0.7664,,0,25,25,25,1,175,60,,,,,,,,
,,659973d85dffc3c84fb51ec4,65af7207ca620457d06d5d1f,2024-01-23_13h02.49.442,bars,2023.2.3,Win32,166.6666667,657b66ea316d21385b68909f,,,,,,,,,,,370.3522,371.368,,,371.8524,372.1023,,96,96,,,,,,,,,,,,,,,,bars/026.png,bars/mask000.png,,,,,,,,,,,,6,2,,,,,,,0,10,0,10,,,,,,,,,,,371.368,371.8524,372.1023,375.9015,space,3.7834,,375.9015,61,11,376.9017,376.9017,377.4852,space,0.5503,,0,26,26,26,1,35,85,,,,,,,,
,,659973d85dffc3c84fb51ec4,65af7207ca620457d06d5d1f,2024-01-23_13h02.49.442,bars,2023.2.3,Win32,166.6666667,657b66ea316d21385b68909f,,,,,,,,,,,377.4854,378.485,,,378.9857,379.2357,,143,-37,,,,,,,,,,,,,,,,bars/020.png,bars/mask007.png,,,,,,,,,,,,1,2,,,,,,,2,10,2,10,,,,,,,,,,,378.485,378.9857,379.2357,383.8194,space,4.5677,,383.8194,28,27,384.8189,384.819,385.7188,space,0.8668,,0,27,27,27,1,115,170,,,,,,,,
,,659973d85dffc3c84fb51ec4,65af7207ca620457d06d5d1f,2024-01-23_13h02.49.442,bars,2023.2.3,Win32,166.6666667,657b66ea316d21385b68909f,,,,,,,,,,,385.7191,386.7189,,,387.2184,387.4689,,93,-87,,,,,,,,,,,,,,,,bars/009.png,bars/mask009.png,,,,,,,,,,,,6,2,,,,,,,0,10,1,10,,,,,,,,,,,386.7189,387.2183,387.4689,391.9517,space,4.467,,391.9517,78,12,392.9526,392.9526,393.7854,space,0.8007,,0,28,28,28,1,15,105,,,,,,,,
,,659973d85dffc3c84fb51ec4,65af7207ca620457d06d5d1f,2024-01-23_13h02.49.442,bars,2023.2.3,Win32,166.6666667,657b66ea316d21385b68909f,,,,,,,,,,,393.7856,394.7845,,,395.2848,395.5355,,85,85,,,,,,,,,,,,,,,,bars/026.png,bars/mask002.png,,,,,,,,,,,,8,2,,,,,,,0,8,2,8,,,,,,,,,,,394.7846,395.2847,395.5355,397.985,space,2.4172,,397.985,50,0,398.985,398.985,399.9358,space,0.9164,,0,29,29,29,1,35,85,,,,,,,,
,,659973d85dffc3c84fb51ec4,65af7207ca620457d06d5d1f,2024-01-23_13h02.49.442,bars,2023.2.3,Win32,166.6666667,657b66ea316d21385b68909f,,,,,,,,,,,399.936,400.9348,,,401.435,401.6856,,81,81,,,,,,,,,,,,,,,,bars/042.png,bars/mask000.png,,,,,,,,,,,,8,2,,,,,,,0,10,0,10,,,,,,,,,,,400.9348,401.4349,401.6857,405.5204,space,3.8181,,405.5205,64,6,406.5179,406.5179,408.0861,space,1.5341,,0,30,30,30,1,145,75,,,,,,,,
,,659973d85dffc3c84fb51ec4,65af7207ca620457d06d5d1f,2024-01-23_13h02.49.442,bars,2023.2.3,Win32,166.6666667,657b66ea316d21385b68909f,,,,,,,,,,,408.0863,409.0865,,,409.5851,409.8359,,38,38,,,,,,,,,,,,,,,,bars/029.png,bars/mask006.png,,,,,,,,,,,,7,2,,,,,,,0,10,0,9,,,,,,,,,,,409.0865,409.5851,409.8359,411.0851,space,1.2171,,411.0851,52,7,412.085,412.085,412.8193,space,0.7014,,0,31,31,31,1,90,45,,,,,,,,
,,659973d85dffc3c84fb51ec4,65af7207ca620457d06d5d1f,2024-01-23_13h02.49.442,bars,2023.2.3,Win32,166.6666667,657b66ea316d21385b68909f,,,,,,,,,,,412.8195,413.819,,,414.3188,414.5681,,39,219,,,,,,,,,,,,,,,,bars/031.png,bars/mask001.png,,,,,,,,,,,,7,2,,,,,,,0,8,0,8,,,,,,,,,,,413.819,414.3188,414.5681,419.1848,space,4.5993,,419.1848,81,4,420.1848,420.1848,425.5354,space,5.317,,0,32,32,32,1,120,35,,,,,,,,
,,659973d85dffc3c84fb51ec4,65af7207ca620457d06d5d1f,2024-01-23_13h02.49.442,bars,2023.2.3,Win32,166.6666667,657b66ea316d21385b68909f,,,,,,,,,,,425.5407,426.5346,,,427.0356,427.2852,,59,59,,,,,,,,,,,,,,,,bars/030.png,bars/mask004.png,,,,,,,,,,,,5,2,,,,,,,0,6,0,6,,,,,,,,,,,426.5346,427.0355,427.2852,428.7518,space,1.4339,,428.7518,81,6,429.7529,429.7529,430.353,space,0.5684,,0,33,33,33,1,140,65,,,,,,,,
,,659973d85dffc3c84fb51ec4,65af7207ca620457d06d5d1f,2024-01-23_13h02.49.442,bars,2023.2.3,Win32,166.6666667,657b66ea316d21385b68909f,,,,,,,,,,,430.3532,431.3523,,,431.852,432.1178,,72,72,,,,,,,,,,,,,,,,bars/047.png,bars/mask002.png,,,,,,,,,,,,3,2,,,,,,,0,4,0,3,,,,,,,,,,,431.3523,431.852,432.1179,433.2515,space,1.1316,,433.2515,57,2,434.2514,434.2514,434.9188,space,0.6337,,0,34,34,34,1,15,70,,,,,,,,
,,659973d85dffc3c84fb51ec4,65af7207ca620457d06d5d1f,2024-01-23_13h02.49.442,bars,2023.2.3,Win32,166.6666667,657b66ea316d21385b68909f,,,,,,,,,,,434.919,435.918,,,436.4183,436.6679,,44,224,,,,,,,,,,,,,,,,bars/007.png,bars/mask002.png,,,,,,,,,,,,1,2,,,,,,,2,2,4,1,,,,,,,,,,,435.918,436.4183,436.6679,440.385,space,3.7002,,440.385,49,11,441.3848,441.3848,441.9355,space,0.5166,,0,35,35,35,1,175,55,,,,,,,,
,,659973d85dffc3c84fb51ec4,65af7207ca620457d06d5d1f,2024-01-23_13h02.49.442,bars,2023.2.3,Win32,166.6666667,657b66ea316d21385b68909f,,,,,,,,,,,441.9357,442.9345,,,443.4355,443.685,,130,130,,,,,,,,,,,,,,,,bars/025.png,bars/mask001.png,,,,,,,,,,,,0,1,,,,,,,0,0,2,0,,,,,,,,,,,442.9346,443.4355,443.685,445.3516,space,1.6652,,445.3516,25,90,446.3525,446.3525,446.9704,space,0.5857,,0,36,36,36,1,105,40,,,,,,,,
,,659973d85dffc3c84fb51ec4,65af7207ca620457d06d5d1f,2024-01-23_13h02.49.442,bars,2023.2.3,Win32,166.6666667,657b66ea316d21385b68909f,,,,,,,,,,,446.9705,447.9689,,,448.468,448.7183,,69,69,,,,,,,,,,,,,,,,bars/026.png,bars/mask000.png,,,,,,,,,,,,0,2,,,,,,,0,2,0,1,,,,,,,,,,,447.9689,448.468,448.7183,452.6352,space,3.8991,,452.6352,34,16,453.6347,453.6347,454.7682,space,1.1005,,0,37,37,37,1,35,85,,,,,,,,
,,659973d85dffc3c84fb51ec4,65af7207ca620457d06d5d1f,2024-01-23_13h02.49.442,bars,2023.2.3,Win32,166.6666667,657b66ea316d21385b68909f,,,,,,,,,,,454.7684,455.768,,,456.268,456.5345,,86,86,,,,,,,,,,,,,,,,bars/041.png,bars/mask009.png,,,,,,,,,,,,2,2,,,,,,,2,4,3,2,,,,,,,,,,,455.768,456.268,456.5345,458.7512,space,2.2157,,458.7513,66,1,459.7373,459.7374,460.3358,space,0.5682,,0,38,38,38,1,20,85,,,,,,,,
,,659973d85dffc3c84fb51ec4,65af7207ca620457d06d5d1f,2024-01-23_13h02.49.442,bars,2023.2.3,Win32,166.6666667,657b66ea316d21385b68909f,,,,,,,,,,,460.3359,461.3349,,,461.8364,462.0852,,104,104,,,,,,,,,,,,,,,,bars/037.png,bars/mask000.png,,,,,,,,,,,,1,2,,,,,,,4,2,3,1,,,,,,,,,,,461.3349,461.8364,462.0852,464.8013,space,2.6836,,464.8013,46,1,465.8019,465.8019,466.2359,space,0.4017,,0,39,39,39,1,150,105,,,,,,,,
,,659973d85dffc3c84fb51ec4,65af7207ca620457d06d5d1f,2024-01-23_13h02.49.442,bars,2023.2.3,Win32,166.6666667,657b66ea316d21385b68909f,,,,,,,,,,,466.2361,467.2358,,,467.7352,467.9845,,4,4,,,,,,,,,,,,,,,,bars/005.png,bars/mask004.png,,,,,,,,,,,,4,1,,,,,,,6,0,5,0,,,,,,,,,,,467.2358,467.7351,467.9845,470.7846,space,2.799,,470.7846,6,44,471.8011,471.8011,472.7014,space,0.8827,,0,40,40,40,1,10,140,,,,,,,,
,,659973d85dffc3c84fb51ec4,65af7207ca620457d06d5d1f,2024-01-23_13h02.49.442,bars,2023.2.3,Win32,166.6666667,657b66ea316d21385b68909f,,,,,,,,,,,472.7017,473.7025,,,474.2012,474.4512,,156,-24,,,,,,,,,,,,,,,,bars/040.png,bars/mask009.png,,,,,,,,,,,,5,1,,,,,,,8,2,10,3,,,,,,,,,,,473.7025,474.2012,474.4512,477.5348,space,3.0671,,477.5348,16,29,478.5348,478.5348,479.2857,space,0.7164,,0,41,41,41,1,140,5,,,,,,,,
,,659973d85dffc3c84fb51ec4,65af7207ca620457d06d5d1f,2024-01-23_13h02.49.442,bars,2023.2.3,Win32,166.6666667,657b66ea316d21385b68909f,,,,,,,,,,,479.2861,480.2846,,,480.7845,481.036,,77,77,,,,,,,,,,,,,,,,bars/045.png,bars/mask005.png,,,,,,,,,,,,2,1,,,,,,,6,4,7,4,,,,,,,,,,,480.2847,480.7845,481.036,483.768,space,2.7001,,483.768,23,67,484.7687,484.7687,485.3518,space,0.5508,,0,42,42,42,1,100,10,,,,,,,,
,,659973d85dffc3c84fb51ec4,65af7207ca620457d06d5d1f,2024-01-23_13h02.49.442,bars,2023.2.3,Win32,166.6666667,657b66ea316d21385b68909f,,,,,,,,,,,485.3519,486.3519,,,486.852,487.1011,,50,50,,,,,,,,,,,,,,,,bars/028.png,bars/mask008.png,,,,,,,,,,,,3,1,,,,,,,4,6,4,6,,,,,,,,,,,486.3519,486.852,487.1011,489.4346,space,2.317,,489.4346,5,70,490.4362,490.4362,491.0679,space,0.5991,,0,43,43,43,1,45,120,,,,,,,,
,,659973d85dffc3c84fb51ec4,65af7207ca620457d06d5d1f,2024-01-23_13h02.49.442,bars,2023.2.3,Win32,166.6666667,657b66ea316d21385b68909f,,,,,,,,,,,491.0681,492.0683,,,492.5684,492.8179,,124,124,,,,,,,,,,,,,,,,bars/023.png,bars/mask002.png,,,,,,,,,,,,6,2,,,,,,,6,8,5,9,,,,,,,,,,,492.0684,492.5684,492.8179,497.4347,space,4.5996,,497.4347,76,9,498.4363,498.4363,498.9686,space,0.4991,,0,44,44,44,1,20,115,,,,,,,,
,,659973d85dffc3c84fb51ec4,65af7207ca620457d06d5d1f,2024-01-23_13h02.49.442,bars,2023.2.3,Win32,166.6666667,657b66ea316d21385b68909f,,,,,,,,,,,498.9687,499.9685,,,500.4684,500.7187,,125,125,,,,,,,,,,,,,,,,bars/032.png,bars/mask006.png,,,,,,,,,,,,7,1,,,,,,,8,10,7,10,,,,,,,,,,,499.9686,500.4684,500.7187,503.9348,space,3.184,,503.9348,0,75,504.9353,504.9354,505.5691,space,0.6015,,0,45,45,45,1,125,20,,,,,,,,
,,659973d85dffc3c84fb51ec4,65af7207ca620457d06d5d1f,2024-01-23_13h02.49.442,bars,2023.2.3,Win32,166.6666667,657b66ea316d21385b68909f,,,,,,,,,,,505.5692,506.5691,,,507.0687,507.3178,,135,-45,,,,,,,,,,,,,,,,bars/015.png,bars/mask009.png,,,,,,,,,,,,1,2,,,,,,,6,8,5,9,,,,,,,,,,,506.5691,507.0686,507.3178,510.4354,space,3.1005,,510.4355,25,25,511.435,511.435,511.9357,space,0.4671,,0,46,46,46,1,110,160,,,,,,,,
,,659973d85dffc3c84fb51ec4,65af7207ca620457d06d5d1f,2024-01-23_13h02.49.442,bars,2023.2.3,Win32,166.6666667,657b66ea316d21385b68909f,,,,,,,,,,,511.9359,512.9204,,,513.4179,513.6677,,80,-100,,,,,,,,,,,,,,,,bars/029.png,bars/mask008.png,,,,,,,,,,,,2,1,,,,,,,4,6,3,7,,,,,,,,,,,512.9204,513.4178,513.6677,517.8679,space,4.1666,,517.8679,10,35,518.8685,518.8685,519.4852,space,0.5834,,0,47,47,47,1,90,45,,,,,,,,
,,659973d85dffc3c84fb51ec4,65af7207ca620457d06d5d1f,2024-01-23_13h02.49.442,bars,2023.2.3,Win32,166.6666667,657b66ea316d21385b68909f,,,,,,,,,,,519.4854,520.4845,,,520.9858,521.2354,,98,98,,,,,,,,,,,,,,,,bars/027.png,bars/mask001.png,,,,,,,,,,,,2,1,,,,,,,6,8,3,8,,,,,,,,,,,520.4845,520.9858,521.2354,522.7695,space,1.5182,,522.7695,12,48,523.7689,523.769,524.3514,space,0.5502,,0,48,48,48,1,110,50,,,,,,,,
,,659973d85dffc3c84fb51ec4,65af7207ca620457d06d5d1f,2024-01-23_13h02.49.442,bars,2023.2.3,Win32,166.6666667,657b66ea316d21385b68909f,,,,,,,,,,,524.3515,525.3512,,,525.8677,526.1017,,72,72,,,,,,,,,,,,,,,,bars/029.png,bars/mask006.png,,,,,,,,,,,,2,1,,,,,,,4,10,4,10,,,,,,,,,,,525.3512,525.8677,526.1018,529.6848,space,3.5667,,529.6848,18,27,530.6855,530.6855,531.3858,space,0.6668,,0,49,49,49,1,90,45,,,,,,,,
,,659973d85dffc3c84fb51ec4,65af7207ca620457d06d5d1f,2024-01-23_13h02.49.442,bars,2023.2.3,Win32,166.6666667,657b66ea316d21385b68909f,,,,,,,,,,,,,,,,,,,,,,,,,,,,,,,,,,,,,,,,,,,,,,,,,,,,,,,,,,,,,,,,,,,,,,,,,,,,,,,,,,,,,,,,,,,,,531.3862,591.3833,0,0,0,2,1,sequence_tables/blk010.csv
,,659973d85dffc3c84fb51ec4,65af7207ca620457d06d5d1f,2024-01-23_13h02.49.442,bars,2023.2.3,Win32,166.6666667,657b66ea316d21385b68909f,,,,,,,,,,,927.5875,928.5832,,,929.0843,929.3341,,13,193,,,,,,,,,,,,,,,,bars/012.png,bars/mask004.png,,,,,,,,,,,,1,2,,,,,,,8,2,9,1,,,,,,591.3886,927.5838,space,336.1934,,928.5833,929.0843,929.3341,931.8333,space,2.4668,,931.8334,77,2,932.8336,932.8336,932.8344,,,,0,0,0,0,1,90,15,,,,,,,,
,,659973d85dffc3c84fb51ec4,65af7207ca620457d06d5d1f,2024-01-23_13h02.49.442,bars,2023.2.3,Win32,166.6666667,657b66ea316d21385b68909f,,,,,,,,,,,932.8349,933.8334,,,934.3337,934.5838,,92,92,,,,,,,,,,,,,,,,bars/026.png,bars/mask000.png,,,,,,,,,,,,3,2,,,,,,,6,4,6,4,,,,,,,,,,,933.8334,934.3337,934.5838,937.7501,space,3.1336,,937.7501,57,7,938.7503,938.7504,938.7561,,,,0,1,1,1,1,35,85,,,,,,,,
,,659973d85dffc3c84fb51ec4,65af7207ca620457d06d5d1f,2024-01-23_13h02.49.442,bars,2023.2.3,Win32,166.6666667,657b66ea316d21385b68909f,,,,,,,,,,,938.7561,939.7515,,,940.2509,940.4999,,124,124,,,,,,,,,,,,,,,,bars/034.png,bars/mask003.png,,,,,,,,,,,,8,1,,,,,,,8,2,8,2,,,,,,,,,,,939.7516,940.2509,940.5,943.7335,space,3.2316,,943.7335,1,59,944.7334,944.7334,944.7394,,,,0,2,2,2,1,125,65,,,,,,,,
,,659973d85dffc3c84fb51ec4,65af7207ca620457d06d5d1f,2024-01-23_13h02.49.442,bars,2023.2.3,Win32,166.6666667,657b66ea316d21385b68909f,,,,,,,,,,,944.7394,945.7335,,,946.2334,946.4841,,26,26,,,,,,,,,,,,,,,,bars/028.png,bars/mask004.png,,,,,,,,,,,,2,1,,,,,,,6,4,5,5,,,,,,,,,,,945.7335,946.2333,946.4841,948.9835,space,2.4832,,948.9835,19,86,949.9835,949.9835,949.9889,,,,0,3,3,3,1,45,120,,,,,,,,
,,659973d85dffc3c84fb51ec4,65af7207ca620457d06d5d1f,2024-01-23_13h02.49.442,bars,2023.2.3,Win32,166.6666667,657b66ea316d21385b68909f,,,,,,,,,,,949.989,950.9834,,,951.4843,951.7337,,2,2,,,,,,,,,,,,,,,,bars/023.png,bars/mask004.png,,,,,,,,,,,,2,1,,,,,,,4,2,5,1,,,,,,,,,,,950.9835,951.4843,951.7337,953.2336,space,1.4986,,953.2336,18,67,954.234,954.234,954.2343,,,,0,4,4,4,1,20,115,,,,,,,,
,,659973d85dffc3c84fb51ec4,65af7207ca620457d06d5d1f,2024-01-23_13h02.49.442,bars,2023.2.3,Win32,166.6666667,657b66ea316d21385b68909f,,,,,,,,,,,954.2343,955.2339,,,955.7348,955.9833,,154,154,,,,,,,,,,,,,,,,bars/017.png,bars/mask000.png,,,,,,,,,,,,2,1,,,,,,,2,0,3,2,,,,,,,,,,,955.2339,955.7348,955.9833,959.2673,space,3.2661,,959.2673,9,71,960.2673,960.2674,960.2733,,,,0,5,5,5,1,145,45,,,,,,,,
,,659973d85dffc3c84fb51ec4,65af7207ca620457d06d5d1f,2024-01-23_13h02.49.442,bars,2023.2.3,Win32,166.6666667,657b66ea316d21385b68909f,,,,,,,,,,,960.2735,961.2679,,,961.752,961.9866,,162,162,,,,,,,,,,,,,,,,bars/049.png,bars/mask009.png,,,,,,,,,,,,1,1,,,,,,,0,2,1,3,,,,,,,,,,,961.2679,961.752,961.9866,965.0499,space,3.0333,,965.0499,2,47,966.0502,966.0502,966.0556,,,,0,6,6,6,1,160,115,,,,,,,,
,,659973d85dffc3c84fb51ec4,65af7207ca620457d06d5d1f,2024-01-23_13h02.49.442,bars,2023.2.3,Win32,166.6666667,657b66ea316d21385b68909f,,,,,,,,,,,966.0558,967.0504,,,967.5508,967.8002,,4,4,,,,,,,,,,,,,,,,bars/023.png,bars/mask007.png,,,,,,,,,,,,1,1,,,,,,,2,0,2,0,,,,,,,,,,,967.0504,967.5508,967.8002,970.6169,space,2.7837,,970.6169,16,69,971.6169,971.6169,971.6227,,,,0,7,7,7,1,20,115,,,,,,,,
,,659973d85dffc3c84fb51ec4,65af7207ca620457d06d5d1f,2024-01-23_13h02.49.442,bars,2023.2.3,Win32,166.6666667,657b66ea316d21385b68909f,,,,,,,,,,,971.6229,972.6169,,,973.117,973.3666,,139,139,,,,,,,,,,,,,,,,bars/037.png,bars/mask007.png,,,,,,,,,,,,0,1,,,,,,,0,2,0,2,,,,,,,,,,,972.6169,973.117,973.3666,976.617,space,3.2329,,976.617,11,34,977.6173,977.6173,977.6228,,,,0,8,8,8,1,150,105,,,,,,,,
,,659973d85dffc3c84fb51ec4,65af7207ca620457d06d5d1f,2024-01-23_13h02.49.442,bars,2023.2.3,Win32,166.6666667,657b66ea316d21385b68909f,,,,,,,,,,,977.6231,978.6169,,,979.1168,979.3677,,0,180,,,,,,,,,,,,,,,,bars/007.png,bars/mask002.png,,,,,,,,,,,,0,1,,,,,,,0,4,0,4,,,,,,,,,,,978.6169,979.1168,979.3677,981.1335,space,1.7338,,981.1335,5,55,982.1349,982.1349,982.1352,,,,0,9,9,9,1,175,55,,,,,,,,
,,659973d85dffc3c84fb51ec4,65af7207ca620457d06d5d1f,2024-01-23_13h02.49.442,bars,2023.2.3,Win32,166.6666667,657b66ea316d21385b68909f,,,,,,,,,,,982.1353,983.1339,,,983.6333,983.8841,,172,172,,,,,,,,,,,,,,,,bars/040.png,bars/mask005.png,,,,,,,,,,,,3,2,,,,,,,0,6,3,5,,,,,,,,,,,983.1339,983.6332,983.8841,986.7166,space,2.8002,,986.7167,32,13,987.7166,987.7166,987.7227,,,,0,10,10,10,1,140,5,,,,,,,,
,,659973d85dffc3c84fb51ec4,65af7207ca620457d06d5d1f,2024-01-23_13h02.49.442,bars,2023.2.3,Win32,166.6666667,657b66ea316d21385b68909f,,,,,,,,,,,987.7228,988.7177,,,989.2175,989.4832,,175,175,,,,,,,,,,,,,,,,bars/010.png,bars/mask004.png,,,,,,,,,,,,2,1,,,,,,,2,4,3,5,,,,,,,,,,,988.7177,989.2175,989.4832,992.35,space,2.8504,,992.35,10,60,993.35,993.3501,993.3562,,,,0,11,11,11,1,165,55,,,,,,,,
,,659973d85dffc3c84fb51ec4,65af7207ca620457d06d5d1f,2024-01-23_13h02.49.442,bars,2023.2.3,Win32,166.6666667,657b66ea316d21385b68909f,,,,,,,,,,,993.3563,994.3511,,,994.8496,995.1008,,40,220,,,,,,,,,,,,,,,,bars/010.png,bars/mask004.png,,,,,,,,,,,,3,2,,,,,,,0,6,0,5,,,,,,,,,,,994.3512,994.8496,995.1008,997.9331,space,2.8,,997.9331,55,15,998.933,998.9331,998.939,,,,0,12,12,12,1,165,55,,,,,,,,
,,659973d85dffc3c84fb51ec4,65af7207ca620457d06d5d1f,2024-01-23_13h02.49.442,bars,2023.2.3,Win32,166.6666667,657b66ea316d21385b68909f,,,,,,,,,,,998.9391,999.9331,,,1000.4333,1000.685,,96,96,,,,,,,,,,,,,,,,bars/006.png,bars/mask006.png,,,,,,,,,,,,3,2,,,,,,,2,4,2,4,,,,,,,,,,,999.9331,1000.4333,1000.6851,1004.1499,space,3.4335,,1004.1499,61,4,1005.1511,1005.1512,1005.1568,,,,0,13,13,13,1,35,100,,,,,,,,
,,659973d85dffc3c84fb51ec4,65af7207ca620457d06d5d1f,2024-01-23_13h02.49.442,bars,2023.2.3,Win32,166.6666667,657b66ea316d21385b68909f,,,,,,,,,,,1005.1569,1006.1515,,,1006.6506,1006.9001,,132,132,,,,,,,,,,,,,,,,bars/036.png,bars/mask003.png,,,,,,,,,,,,0,1,,,,,,,0,6,0,6,,,,,,,,,,,1006.1515,1006.6506,1006.9001,1009.3837,space,2.4664,,1009.3837,13,68,1010.3997,1010.3997,1010.4072,,,,0,14,14,14,1,145,20,,,,,,,,
,,659973d85dffc3c84fb51ec4,65af7207ca620457d06d5d1f,2024-01-23_13h02.49.442,bars,2023.2.3,Win32,166.6666667,657b66ea316d21385b68909f,,,,,,,,,,,1010.4073,1011.4002,,,1011.9011,1012.1506,,58,58,,,,,,,,,,,,,,,,bars/044.png,bars/mask006.png,,,,,,,,,,,,0,1,,,,,,,2,8,1,8,,,,,,,,,,,1011.4002,1011.9011,1012.1506,1015.25,space,3.0824,,1015.25,17,83,1016.25,1016.25,1016.2557,,,,0,15,15,15,1,75,155,,,,,,,,
,,659973d85dffc3c84fb51ec4,65af7207ca620457d06d5d1f,2024-01-23_13h02.49.442,bars,2023.2.3,Win32,166.6666667,657b66ea316d21385b68909f,,,,,,,,,,,1016.2558,1017.2499,,,1017.7509,1018.0003,,4,184,,,,,,,,,,,,,,,,bars/041.png,bars/mask004.png,,,,,,,,,,,,0,1,,,,,,,0,10,0,9,,,,,,,,,,,1017.2499,1017.7509,1018.0004,1019.3838,space,1.3668,,1019.3838,16,81,1020.3843,1020.3843,1020.3846,,,,0,16,16,16,1,20,85,,,,,,,,
,,659973d85dffc3c84fb51ec4,65af7207ca620457d06d5d1f,2024-01-23_13h02.49.442,bars,2023.2.3,Win32,166.6666667,657b66ea316d21385b68909f,,,,,,,,,,,1020.3847,1021.383,,,1021.8847,1022.1334,,132,132,,,,,,,,,,,,,,,,bars/040.png,bars/mask000.png,,,,,,,,,,,,0,1,,,,,,,0,10,0,10,,,,,,,,,,,1021.383,1021.8847,1022.1334,1024.1667,space,2.0004,,1024.1667,8,53,1025.1674,1025.1675,1025.1678,,,,0,17,17,17,1,140,5,,,,,,,,
,,659973d85dffc3c84fb51ec4,65af7207ca620457d06d5d1f,2024-01-23_13h02.49.442,bars,2023.2.3,Win32,166.6666667,657b66ea316d21385b68909f,,,,,,,,,,,1025.168,1026.1672,,,1026.6675,1026.9167,,154,154,,,,,,,,,,,,,,,,bars/018.png,bars/mask000.png,,,,,,,,,,,,0,1,,,,,,,0,10,0,9,,,,,,,,,,,1026.1672,1026.6675,1026.9167,1028.2667,space,1.3166,,1028.2667,4,64,1029.2667,1029.2667,1029.267,,,,0,18,18,18,1,150,90,,,,,,,,
,,659973d85dffc3c84fb51ec4,65af7207ca620457d06d5d1f,2024-01-23_13h02.49.442,bars,2023.2.3,Win32,166.6666667,657b66ea316d21385b68909f,,,,,,,,,,,1029.2671,1030.2668,,,1030.7667,1031.0181,,138,138,,,,,,,,,,,,,,,,bars/020.png,bars/mask005.png,,,,,,,,,,,,0,1,,,,,,,2,8,2,8,,,,,,,,,,,1030.2668,1030.7667,1031.0181,1033.4503,space,2.4171,,1033.4503,23,32,1034.4499,1034.4499,1034.4553,,,,0,19,19,19,1,115,170,,,,,,,,
,,659973d85dffc3c84fb51ec4,65af7207ca620457d06d5d1f,2024-01-23_13h02.49.442,bars,2023.2.3,Win32,166.6666667,657b66ea316d21385b68909f,,,,,,,,,,,1034.4553,1035.4504,,,1035.9364,1036.1836,,67,67,,,,,,,,,,,,,,,,bars/019.png,bars/mask006.png,,,,,,,,,,,,0,1,,,,,,,0,6,1,6,,,,,,,,,,,1035.4504,1035.9364,1036.1836,1037.7833,space,1.5837,,1037.7833,22,38,1038.7838,1038.7839,1038.7841,,,,0,20,20,20,1,45,105,,,,,,,,
,,659973d85dffc3c84fb51ec4,65af7207ca620457d06d5d1f,2024-01-23_13h02.49.442,bars,2023.2.3,Win32,166.6666667,657b66ea316d21385b68909f,,,,,,,,,,,1038.7842,1039.7834,,,1040.2846,1040.534,,63,63,,,,,,,,,,,,,,,,bars/044.png,bars/mask000.png,,,,,,,,,,,,1,1,,,,,,,2,8,2,5,,,,,,,,,,,1039.7834,1040.2846,1040.534,1042.1503,space,1.6001,,1042.1503,12,88,1043.1505,1043.1505,1043.1508,,,,0,21,21,21,1,75,155,,,,,,,,
,,659973d85dffc3c84fb51ec4,65af7207ca620457d06d5d1f,2024-01-23_13h02.49.442,bars,2023.2.3,Win32,166.6666667,657b66ea316d21385b68909f,,,,,,,,,,,1043.151,1044.1509,,,1044.6664,1044.9171,,51,51,,,,,,,,,,,,,,,,bars/048.png,bars/mask008.png,,,,,,,,,,,,4,1,,,,,,,4,6,4,7,,,,,,,,,,,1044.1509,1044.6664,1044.9171,1046.5058,space,1.5528,,1046.5058,1,56,1047.5001,1047.5001,1047.5005,,,,0,22,22,22,1,50,175,,,,,,,,
,,659973d85dffc3c84fb51ec4,65af7207ca620457d06d5d1f,2024-01-23_13h02.49.442,bars,2023.2.3,Win32,166.6666667,657b66ea316d21385b68909f,,,,,,,,,,,1047.5005,1048.5002,,,1049.0009,1049.251,,145,145,,,,,,,,,,,,,,,,bars/042.png,bars/mask000.png,,,,,,,,,,,,3,1,,,,,,,2,4,3,4,,,,,,,,,,,1048.5002,1049.0009,1049.251,1053.1833,space,3.9161,,1053.1833,0,70,1054.183,1054.183,1054.1884,,,,0,23,23,23,1,145,75,,,,,,,,
,,659973d85dffc3c84fb51ec4,65af7207ca620457d06d5d1f,2024-01-23_13h02.49.442,bars,2023.2.3,Win32,166.6666667,657b66ea316d21385b68909f,,,,,,,,,,,1054.1885,1055.183,,,1055.6832,1055.9348,,136,136,,,,,,,,,,,,,,,,bars/020.png,bars/mask002.png,,,,,,,,,,,,0,1,,,,,,,0,2,1,3,,,,,,,,,,,1055.183,1055.6832,1055.9348,1058.0497,space,2.0999,,1058.0497,21,34,1059.0497,1059.0497,1059.05,,,,0,24,24,24,1,115,170,,,,,,,,
,,659973d85dffc3c84fb51ec4,65af7207ca620457d06d5d1f,2024-01-23_13h02.49.442,bars,2023.2.3,Win32,166.6666667,657b66ea316d21385b68909f,,,,,,,,,,,1059.0502,1060.0509,,,1060.5507,1060.7999,,23,203,,,,,,,,,,,,,,,,bars/032.png,bars/mask008.png,,,,,,,,,,,,0,2,,,,,,,0,0,2,0,,,,,,,,,,,1060.0509,1060.5505,1060.7999,1062.8001,space,1.9672,,1062.8001,78,3,1063.8162,1063.8162,1063.8228,,,,0,25,25,25,1,125,20,,,,,,,,
,,659973d85dffc3c84fb51ec4,65af7207ca620457d06d5d1f,2024-01-23_13h02.49.442,bars,2023.2.3,Win32,166.6666667,657b66ea316d21385b68909f,,,,,,,,,,,1063.823,1064.8165,,,1065.3164,1065.5674,,62,62,,,,,,,,,,,,,,,,bars/022.png,bars/mask001.png,,,,,,,,,,,,0,1,,,,,,,2,0,1,0,,,,,,,,,,,1064.8165,1065.3164,1065.5674,1068.3002,space,2.7004,,1068.3002,33,42,1069.2999,1069.3,1069.3062,,,,0,26,26,26,1,95,20,,,,,,,,
,,659973d85dffc3c84fb51ec4,65af7207ca620457d06d5d1f,2024-01-23_13h02.49.442,bars,2023.2.3,Win32,166.6666667,657b66ea316d21385b68909f,,,,,,,,,,,1069.3063,1070.301,,,1070.7848,1071.0345,,60,240,,,,,,,,,,,,,,,,bars/000.png,bars/mask000.png,,,,,,,,,,,,0,1,,,,,,,0,2,0,2,,,,,,,,,,,1070.3011,1070.7848,1071.0345,1074.7331,space,3.6831,,1074.7332,20,85,1075.733,1075.733,1075.7385,,,,0,27,27,27,1,40,145,,,,,,,,
,,659973d85dffc3c84fb51ec4,65af7207ca620457d06d5d1f,2024-01-23_13h02.49.442,bars,2023.2.3,Win32,166.6666667,657b66ea316d21385b68909f,,,,,,,,,,,1075.7385,1076.7163,,,1077.2166,1077.4665,,129,129,,,,,,,,,,,,,,,,bars/049.png,bars/mask003.png,,,,,,,,,,,,1,2,,,,,,,0,0,0,1,,,,,,,,,,,1076.7163,1077.2166,1077.4665,1079.9844,space,2.5007,,1079.9844,31,14,1080.9842,1080.9842,1080.9904,,,,0,28,28,28,1,160,115,,,,,,,,
,,659973d85dffc3c84fb51ec4,65af7207ca620457d06d5d1f,2024-01-23_13h02.49.442,bars,2023.2.3,Win32,166.6666667,657b66ea316d21385b68909f,,,,,,,,,,,1080.9906,1081.9834,,,1082.4831,1082.7334,,64,64,,,,,,,,,,,,,,,,bars/038.png,bars/mask009.png,,,,,,,,,,,,0,2,,,,,,,2,0,2,0,,,,,,,,,,,1081.9834,1082.4831,1082.7334,1085.6506,space,2.9008,,1085.6506,79,6,1086.6497,1086.6497,1086.6551,,,,0,29,29,29,1,165,70,,,,,,,,
,,659973d85dffc3c84fb51ec4,65af7207ca620457d06d5d1f,2024-01-23_13h02.49.442,bars,2023.2.3,Win32,166.6666667,657b66ea316d21385b68909f,,,,,,,,,,,1086.6552,1087.6499,,,1088.1496,1088.4006,,158,-22,,,,,,,,,,,,,,,,bars/022.png,bars/mask000.png,,,,,,,,,,,,0,2,,,,,,,0,2,0,2,,,,,,,,,,,1087.6499,1088.1496,1088.4006,1090.7998,space,2.3836,,1090.7998,63,42,1091.7998,1091.7998,1091.8002,,,,0,30,30,30,1,95,20,,,,,,,,
,,659973d85dffc3c84fb51ec4,65af7207ca620457d06d5d1f,2024-01-23_13h02.49.442,bars,2023.2.3,Win32,166.6666667,657b66ea316d21385b68909f,,,,,,,,,,,1091.8004,1092.8,,,1093.3003,1093.5511,,156,156,,,,,,,,,,,,,,,,bars/000.png,bars/mask005.png,,,,,,,,,,,,0,2,,,,,,,2,0,1,0,,,,,,,,,,,1092.8,1093.3003,1093.5511,1096.5661,space,2.9992,,1096.5661,64,11,1097.5681,1097.5682,1097.5738,,,,0,31,31,31,1,40,145,,,,,,,,
,,659973d85dffc3c84fb51ec4,65af7207ca620457d06d5d1f,2024-01-23_13h02.49.442,bars,2023.2.3,Win32,166.6666667,657b66ea316d21385b68909f,,,,,,,,,,,1097.5739,1098.5674,,,1099.0664,1099.3164,,158,-22,,,,,,,,,,,,,,,,bars/007.png,bars/mask000.png,,,,,,,,,,,,2,1,,,,,,,4,2,5,2,,,,,,,,,,,1098.5674,1099.0664,1099.3164,1103.1832,space,3.8502,,1103.1832,17,77,1104.1831,1104.1832,1104.1893,,,,0,32,32,32,1,175,55,,,,,,,,
,,659973d85dffc3c84fb51ec4,65af7207ca620457d06d5d1f,2024-01-23_13h02.49.442,bars,2023.2.3,Win32,166.6666667,657b66ea316d21385b68909f,,,,,,,,,,,1104.1894,1105.1836,,,1105.6835,1105.9161,,4,184,,,,,,,,,,,,,,,,bars/023.png,bars/mask001.png,,,,,,,,,,,,1,1,,,,,,,2,0,3,1,,,,,,,,,,,1105.1837,1105.6835,1105.9161,1107.8332,space,1.9162,,1107.8332,16,69,1108.8335,1108.8335,1108.8393,,,,0,33,33,33,1,20,115,,,,,,,,
,,659973d85dffc3c84fb51ec4,65af7207ca620457d06d5d1f,2024-01-23_13h02.49.442,bars,2023.2.3,Win32,166.6666667,657b66ea316d21385b68909f,,,,,,,,,,,1108.8395,1109.8341,,,1110.3339,1110.5839,,139,-41,,,,,,,,,,,,,,,,bars/042.png,bars/mask002.png,,,,,,,,,,,,0,1,,,,,,,0,0,0,0,,,,,,,,,,,1109.8341,1110.3338,1110.5839,1114.7002,space,4.0841,,1114.7003,6,64,1115.701,1115.7011,1115.7091,,,,0,34,34,34,1,145,75,,,,,,,,
,,659973d85dffc3c84fb51ec4,65af7207ca620457d06d5d1f,2024-01-23_13h02.49.442,bars,2023.2.3,Win32,166.6666667,657b66ea316d21385b68909f,,,,,,,,,,,1115.7093,1116.701,,,1117.1997,1117.4502,,123,123,,,,,,,,,,,,,,,,bars/031.png,bars/mask002.png,,,,,,,,,,,,1,1,,,,,,,0,2,1,1,,,,,,,,,,,1116.701,1117.1997,1117.4502,1119.9835,space,2.5006,,1119.9835,3,88,1120.9839,1120.9839,1120.9912,,,,0,35,35,35,1,120,35,,,,,,,,
,,659973d85dffc3c84fb51ec4,65af7207ca620457d06d5d1f,2024-01-23_13h02.49.442,bars,2023.2.3,Win32,166.6666667,657b66ea316d21385b68909f,,,,,,,,,,,1120.9913,1121.9997,,,1122.5009,1122.7505,,103,103,,,,,,,,,,,,,,,,bars/039.png,bars/mask006.png,,,,,,,,,,,,0,2,,,,,,,0,0,0,0,,,,,,,,,,,1121.9997,1122.5008,1122.7505,1124.0997,space,1.3335,,1124.0997,72,2,1125.1008,1125.1009,1125.1016,,,,0,36,36,36,1,175,105,,,,,,,,
,,659973d85dffc3c84fb51ec4,65af7207ca620457d06d5d1f,2024-01-23_13h02.49.442,bars,2023.2.3,Win32,166.6666667,657b66ea316d21385b68909f,,,,,,,,,,,1125.1016,1126.1004,,,1126.6004,1126.8499,,93,93,,,,,,,,,,,,,,,,bars/009.png,bars/mask006.png,,,,,,,,,,,,0,2,,,,,,,0,0,0,0,,,,,,,,,,,1126.1004,1126.6004,1126.8499,1130.6344,space,3.7514,,1130.6344,78,12,1131.6331,1131.6331,1131.6386,,,,0,37,37,37,1,15,105,,,,,,,,
,,659973d85dffc3c84fb51ec4,65af7207ca620457d06d5d1f,2024-01-23_13h02.49.442,bars,2023.2.3,Win32,166.6666667,657b66ea316d21385b68909f,,,,,,,,,,,1131.6387,1132.6332,,,1133.1343,1133.3832,,111,111,,,,,,,,,,,,,,,,bars/025.png,bars/mask001.png,,,,,,,,,,,,0,1,,,,,,,0,0,0,1,,,,,,,,,,,1132.6332,1133.1343,1133.3832,1135.3663,space,1.9502,,1135.3663,6,71,1136.3666,1136.3666,1136.3726,,,,0,38,38,38,1,105,40,,,,,,,,
,,659973d85dffc3c84fb51ec4,65af7207ca620457d06d5d1f,2024-01-23_13h02.49.442,bars,2023.2.3,Win32,166.6666667,657b66ea316d21385b68909f,,,,,,,,,,,1136.3727,1137.3663,,,1137.8662,1138.1173,,138,138,,,,,,,,,,,,,,,,bars/046.png,bars/mask002.png,,,,,,,,,,,,1,1,,,,,,,2,0,3,0,,,,,,,,,,,1137.3663,1137.8662,1138.1173,1139.8162,space,1.6832,,1139.8162,17,53,1140.8165,1140.8165,1140.8221,,,,0,39,39,39,1,155,85,,,,,,,,
,,659973d85dffc3c84fb51ec4,65af7207ca620457d06d5d1f,2024-01-23_13h02.49.442,bars,2023.2.3,Win32,166.6666667,657b66ea316d21385b68909f,,,,,,,,,,,1140.8222,1141.8164,,,1142.3166,1142.5673,,131,131,,,,,,,,,,,,,,,,bars/037.png,bars/mask001.png,,,,,,,,,,,,1,1,,,,,,,4,0,4,1,,,,,,,,,,,1141.8164,1142.3166,1142.5673,1144.217,space,1.6336,,1144.217,19,26,1145.2168,1145.2168,1145.223,,,,0,40,40,40,1,150,105,,,,,,,,
,,659973d85dffc3c84fb51ec4,65af7207ca620457d06d5d1f,2024-01-23_13h02.49.442,bars,2023.2.3,Win32,166.6666667,657b66ea316d21385b68909f,,,,,,,,,,,1145.2231,1146.2168,,,1146.7178,1146.9662,,154,154,,,,,,,,,,,,,,,,bars/033.png,bars/mask005.png,,,,,,,,,,,,0,2,,,,,,,6,0,4,0,,,,,,,,,,,1146.2168,1146.7177,1146.9662,1149.7035,space,2.7186,,1149.7035,51,1,1150.6997,1150.6998,1150.706,,,,0,41,41,41,1,25,155,,,,,,,,
,,659973d85dffc3c84fb51ec4,65af7207ca620457d06d5d1f,2024-01-23_13h02.49.442,bars,2023.2.3,Win32,166.6666667,657b66ea316d21385b68909f,,,,,,,,,,,1150.7061,1151.7006,,,1152.2009,1152.4504,,137,137,,,,,,,,,,,,,,,,bars/023.png,bars/mask004.png,,,,,,,,,,,,1,2,,,,,,,4,2,5,2,,,,,,,,,,,1151.7007,1152.2008,1152.4504,1155.0175,space,2.5349,,1155.0176,63,22,1156.0163,1156.0163,1156.0216,,,,0,42,42,42,1,20,115,,,,,,,,
,,659973d85dffc3c84fb51ec4,65af7207ca620457d06d5d1f,2024-01-23_13h02.49.442,bars,2023.2.3,Win32,166.6666667,657b66ea316d21385b68909f,,,,,,,,,,,1156.0217,1157.0164,,,1157.5163,1157.7669,,21,21,,,,,,,,,,,,,,,,bars/036.png,bars/mask002.png,,,,,,,,,,,,1,2,,,,,,,6,0,7,1,,,,,,,,,,,1157.0164,1157.5163,1157.7669,1158.7997,space,1.0005,,1158.7997,56,1,1159.8004,1159.8005,1159.8011,,,,0,43,43,43,1,145,20,,,,,,,,
,,659973d85dffc3c84fb51ec4,65af7207ca620457d06d5d1f,2024-01-23_13h02.49.442,bars,2023.2.3,Win32,166.6666667,657b66ea316d21385b68909f,,,,,,,,,,,1159.8012,1160.8006,,,1161.2994,1161.5506,,145,145,,,,,,,,,,,,,,,,bars/000.png,bars/mask006.png,,,,,,,,,,,,2,2,,,,,,,4,2,6,2,,,,,,,,,,,1160.8006,1161.2994,1161.5507,1162.7661,space,1.1835,,1162.7661,75,0,1163.7663,1163.7663,1163.7667,,,,0,44,44,44,1,40,145,,,,,,,,
,,659973d85dffc3c84fb51ec4,65af7207ca620457d06d5d1f,2024-01-23_13h02.49.442,bars,2023.2.3,Win32,166.6666667,657b66ea316d21385b68909f,,,,,,,,,,,1163.7669,1164.7663,,,1165.2672,1165.5172,,123,123,,,,,,,,,,,,,,,,bars/020.png,bars/mask002.png,,,,,,,,,,,,2,1,,,,,,,2,4,3,4,,,,,,,,,,,1164.7663,1165.2672,1165.5172,1169.0834,space,3.534,,1169.0835,8,47,1170.0836,1170.0836,1170.0894,,,,0,45,45,45,1,115,170,,,,,,,,
,,659973d85dffc3c84fb51ec4,65af7207ca620457d06d5d1f,2024-01-23_13h02.49.442,bars,2023.2.3,Win32,166.6666667,657b66ea316d21385b68909f,,,,,,,,,,,1170.0895,1171.0836,,,1171.5836,1171.834,,42,42,,,,,,,,,,,,,,,,bars/035.png,bars/mask001.png,,,,,,,,,,,,0,2,,,,,,,4,2,4,1,,,,,,,,,,,1171.0836,1171.5836,1171.834,1173.2,space,1.3498,,1173.2,47,18,1174.1998,1174.1998,1174.2008,,,,0,46,46,46,1,175,60,,,,,,,,
,,659973d85dffc3c84fb51ec4,65af7207ca620457d06d5d1f,2024-01-23_13h02.49.442,bars,2023.2.3,Win32,166.6666667,657b66ea316d21385b68909f,,,,,,,,,,,1174.2008,1175.2006,,,1175.6995,1175.9503,,9,189,,,,,,,,,,,,,,,,bars/048.png,bars/mask002.png,,,,,,,,,,,,0,2,,,,,,,6,0,6,0,,,,,,,,,,,1175.2006,1175.6995,1175.9503,1177.6162,space,1.6502,,1177.6163,41,14,1178.617,1178.617,1178.6173,,,,0,47,47,47,1,50,175,,,,,,,,
,,659973d85dffc3c84fb51ec4,65af7207ca620457d06d5d1f,2024-01-23_13h02.49.442,bars,2023.2.3,Win32,166.6666667,657b66ea316d21385b68909f,,,,,,,,,,,1178.6174,1179.617,,,1180.1172,1180.3661,,133,133,,,,,,,,,,,,,,,,bars/017.png,bars/mask007.png,,,,,,,,,,,,3,1,,,,,,,4,2,5,2,,,,,,,,,,,1179.6171,1180.1172,1180.3662,1181.6513,space,1.267,,1181.6513,12,88,1182.6509,1182.6509,1182.6517,,,,0,48,48,48,1,145,45,,,,,,,,
,,659973d85dffc3c84fb51ec4,65af7207ca620457d06d5d1f,2024-01-23_13h02.49.442,bars,2023.2.3,Win32,166.6666667,657b66ea316d21385b68909f,,,,,,,,,,,1182.6517,1183.636,,,1184.1331,1184.3837,,30,30,,,,,,,,,,,,,,,,bars/003.png,bars/mask001.png,,,,,,,,,,,,3,1,,,,,,,2,4,4,3,,,,,,,,,,,1183.636,1184.1331,1184.3837,1185.8501,space,1.434,,1185.8501,5,70,1186.8503,1186.8503,1186.8558,,,,0,49,49,49,1,25,140,,,,,,,,
,,659973d85dffc3c84fb51ec4,65af7207ca620457d06d5d1f,2024-01-23_13h02.49.442,bars,2023.2.3,Win32,166.6666667,657b66ea316d21385b68909f,,,,,,,,,,,,,,,,,,,,,,,,,,,,,,,,,,,,,,,,,,,,,,,,,,,,,,,,,,,,,,,,,,,,,,,,,,,,,,,,,,,,,,,,,,,,,1186.856,1246.8529,0,1,1,1,1,sequence_tables/blk015.csv
,,659973d85dffc3c84fb51ec4,65af7207ca620457d06d5d1f,2024-01-23_13h02.49.442,bars,2023.2.3,Win32,166.6666667,657b66ea316d21385b68909f,,,,,,,,,,,1547.3855,1548.3829,,,1548.8818,1549.1485,,109,109,,,,,,,,,,,,,,,,bars/029.png,bars/mask002.png,,,,,,,,,,,,2,1,,,,,,,2,3,5,3,,,,,,1246.8599,1547.3824,space,300.5206,,1548.3829,1548.8818,1549.1485,1553.666,space,4.5009,,1553.666,19,64,1554.6657,1554.6657,1554.6661,,,,0,0,0,0,1,90,45,,,,,,,,
,,659973d85dffc3c84fb51ec4,65af7207ca620457d06d5d1f,2024-01-23_13h02.49.442,bars,2023.2.3,Win32,166.6666667,657b66ea316d21385b68909f,,,,,,,,,,,1554.6663,1555.6639,,,1556.1609,1556.4096,,140,140,,,,,,,,,,,,,,,,bars/023.png,bars/mask009.png,,,,,,,,,,,,0,2,,,,,,,4,1,3,1,,,,,,,,,,,1555.6639,1556.1609,1556.4096,1559.182,space,2.7706,,1559.182,60,25,1560.1819,1560.1819,1560.1878,,,,0,1,1,1,1,20,115,,,,,,,,
,,659973d85dffc3c84fb51ec4,65af7207ca620457d06d5d1f,2024-01-23_13h02.49.442,bars,2023.2.3,Win32,166.6666667,657b66ea316d21385b68909f,,,,,,,,,,,1560.1878,1561.183,,,1561.6821,1561.933,,24,204,,,,,,,,,,,,,,,,bars/031.png,bars/mask008.png,,,,,,,,,,,,0,2,,,,,,,6,0,5,0,,,,,,,,,,,1561.183,1561.6821,1561.933,1563.8654,space,1.9171,,1563.8654,84,11,1564.8515,1564.8515,1564.857,,,,0,2,2,2,1,120,35,,,,,,,,
,,659973d85dffc3c84fb51ec4,65af7207ca620457d06d5d1f,2024-01-23_13h02.49.442,bars,2023.2.3,Win32,166.6666667,657b66ea316d21385b68909f,,,,,,,,,,,1564.8571,1565.8487,,,1566.3495,1566.5997,,125,125,,,,,,,,,,,,,,,,bars/028.png,bars/mask008.png,,,,,,,,,,,,2,2,,,,,,,4,2,4,2,,,,,,,,,,,1565.8487,1566.3495,1566.5997,1567.9167,space,1.2848,,1567.9168,80,5,1568.916,1568.916,1568.922,,,,0,3,3,3,1,45,120,,,,,,,,
,,659973d85dffc3c84fb51ec4,65af7207ca620457d06d5d1f,2024-01-23_13h02.49.442,bars,2023.2.3,Win32,166.6666667,657b66ea316d21385b68909f,,,,,,,,,,,1568.9221,1569.9153,,,1570.4162,1570.6666,,115,115,,,,,,,,,,,,,,,,bars/009.png,bars/mask005.png,,,,,,,,,,,,3,2,,,,,,,6,4,6,4,,,,,,,,,,,1569.9153,1570.4162,1570.6666,1574.2152,space,3.5332,,1574.2152,80,10,1575.2159,1575.2159,1575.2216,,,,0,4,4,4,1,15,105,,,,,,,,
,,659973d85dffc3c84fb51ec4,65af7207ca620457d06d5d1f,2024-01-23_13h02.49.442,bars,2023.2.3,Win32,166.6666667,657b66ea316d21385b68909f,,,,,,,,,,,1575.2219,1576.2158,,,1576.7154,1576.9661,,14,14,,,,,,,,,,,,,,,,bars/014.png,bars/mask001.png,,,,,,,,,,,,1,2,,,,,,,4,2,3,2,,,,,,,,,,,1576.2159,1576.7154,1576.9661,1578.9652,space,1.9833,,1578.9652,66,14,1579.9663,1579.9663,1579.9727,,,,0,5,5,5,1,80,0,,,,,,,,
,,659973d85dffc3c84fb51ec4,65af7207ca620457d06d5d1f,2024-01-23_13h02.49.442,bars,2023.2.3,Win32,166.6666667,657b66ea316d21385b68909f,,,,,,,,,,,1579.9728,1580.9823,,,1581.482,1581.7331,,23,203,,,,,,,,,,,,,,,,bars/007.png,bars/mask004.png,,,,,,,,,,,,0,1,,,,,,,2,4,2,5,,,,,,,,,,,1580.9823,1581.4819,1581.7331,1584.5819,space,2.8169,,1584.5819,28,32,1585.5817,1585.5817,1585.5874,,,,0,6,6,6,1,175,55,,,,,,,,
,,659973d85dffc3c84fb51ec4,65af7207ca620457d06d5d1f,2024-01-23_13h02.49.442,bars,2023.2.3,Win32,166.6666667,657b66ea316d21385b68909f,,,,,,,,,,,1585.5875,1586.5819,,,1587.0832,1587.3319,,60,60,,,,,,,,,,,,,,,,bars/034.png,bars/mask002.png,,,,,,,,,,,,2,2,,,,,,,4,2,5,2,,,,,,,,,,,1586.5819,1587.0832,1587.3319,1589.9316,space,2.5666,,1589.9316,65,5,1590.932,1590.932,1590.9395,,,,0,7,7,7,1,125,65,,,,,,,,
,,659973d85dffc3c84fb51ec4,65af7207ca620457d06d5d1f,2024-01-23_13h02.49.442,bars,2023.2.3,Win32,166.6666667,657b66ea316d21385b68909f,,,,,,,,,,,1590.9396,1591.9324,,,1592.4327,1592.6984,,144,144,,,,,,,,,,,,,,,,bars/004.png,bars/mask004.png,,,,,,,,,,,,2,2,,,,,,,2,4,2,6,,,,,,,,,,,1591.9324,1592.4326,1592.6984,1594.682,space,1.967,,1594.682,61,19,1595.6817,1595.6817,1595.687,,,,0,8,8,8,1,25,125,,,,,,,,
,,659973d85dffc3c84fb51ec4,65af7207ca620457d06d5d1f,2024-01-23_13h02.49.442,bars,2023.2.3,Win32,166.6666667,657b66ea316d21385b68909f,,,,,,,,,,,1595.6871,1596.6818,,,1597.1829,1597.4328,,174,174,,,,,,,,,,,,,,,,bars/040.png,bars/mask005.png,,,,,,,,,,,,1,2,,,,,,,0,2,0,2,,,,,,,,,,,1596.6818,1597.1829,1597.4329,1599.2653,space,1.8004,,1599.2653,34,11,1600.2662,1600.2662,1600.2716,,,,0,9,9,9,1,140,5,,,,,,,,
,,659973d85dffc3c84fb51ec4,65af7207ca620457d06d5d1f,2024-01-23_13h02.49.442,bars,2023.2.3,Win32,166.6666667,657b66ea316d21385b68909f,,,,,,,,,,,1600.2717,1601.2661,,,1601.7663,1602.0163,,63,63,,,,,,,,,,,,,,,,bars/001.png,bars/mask004.png,,,,,,,,,,,,1,2,,,,,,,0,4,0,5,,,,,,,,,,,1601.2661,1601.7663,1602.0164,1603.8164,space,1.7682,,1603.8164,67,22,1604.8164,1604.8164,1604.8167,,,,0,10,10,10,1,130,85,,,,,,,,
,,659973d85dffc3c84fb51ec4,65af7207ca620457d06d5d1f,2024-01-23_13h02.49.442,bars,2023.2.3,Win32,166.6666667,657b66ea316d21385b68909f,,,,,,,,,,,1604.8168,1605.8166,,,1606.3159,1606.565,,74,74,,,,,,,,,,,,,,,,bars/002.png,bars/mask008.png,,,,,,,,,,,,0,2,,,,,,,2,2,1,0,,,,,,,,,,,1605.8166,1606.3159,1606.565,1608.1663,space,1.5849,,1608.1663,56,11,1609.1662,1609.1662,1609.1666,,,,0,11,11,11,1,130,85,,,,,,,,
,,659973d85dffc3c84fb51ec4,65af7207ca620457d06d5d1f,2024-01-23_13h02.49.442,bars,2023.2.3,Win32,166.6666667,657b66ea316d21385b68909f,,,,,,,,,,,1609.1667,1610.1662,,,1610.6662,1610.9153,,100,-80,,,,,,,,,,,,,,,,bars/037.png,bars/mask005.png,,,,,,,,,,,,4,2,,,,,,,4,4,5,5,,,,,,,,,,,1610.1662,1610.6662,1610.9153,1615.0651,space,4.1325,,1615.0651,50,5,1616.0505,1616.0505,1616.0557,,,,0,12,12,12,1,150,105,,,,,,,,
,,659973d85dffc3c84fb51ec4,65af7207ca620457d06d5d1f,2024-01-23_13h02.49.442,bars,2023.2.3,Win32,166.6666667,657b66ea316d21385b68909f,,,,,,,,,,,1616.0559,1617.0648,,,1617.5655,1617.8164,,99,99,,,,,,,,,,,,,,,,bars/039.png,bars/mask004.png,,,,,,,,,,,,2,2,,,,,,,2,2,0,3,,,,,,,,,,,1617.0648,1617.5655,1617.8164,1620.5148,space,2.6668,,1620.5149,76,6,1621.5161,1621.5162,1621.5222,,,,0,13,13,13,1,175,105,,,,,,,,
,,659973d85dffc3c84fb51ec4,65af7207ca620457d06d5d1f,2024-01-23_13h02.49.442,bars,2023.2.3,Win32,166.6666667,657b66ea316d21385b68909f,,,,,,,,,,,1621.5223,1622.5151,,,1623.0156,1623.2659,,112,112,,,,,,,,,,,,,,,,bars/039.png,bars/mask006.png,,,,,,,,,,,,3,2,,,,,,,4,4,5,4,,,,,,,,,,,1622.5151,1623.0156,1623.2659,1625.6985,space,2.4002,,1625.6985,63,7,1626.6988,1626.6988,1626.7044,,,,0,14,14,14,1,175,105,,,,,,,,
,,659973d85dffc3c84fb51ec4,65af7207ca620457d06d5d1f,2024-01-23_13h02.49.442,bars,2023.2.3,Win32,166.6666667,657b66ea316d21385b68909f,,,,,,,,,,,1626.7046,1627.6995,,,1628.1992,1628.4486,,20,20,,,,,,,,,,,,,,,,bars/022.png,bars/mask002.png,,,,,,,,,,,,7,2,,,,,,,2,6,1,7,,,,,,,,,,,1627.6995,1628.1992,1628.4486,1631.6987,space,3.2335,,1631.6987,75,0,1632.6985,1632.6985,1632.7039,,,,0,15,15,15,1,95,20,,,,,,,,
,,659973d85dffc3c84fb51ec4,65af7207ca620457d06d5d1f,2024-01-23_13h02.49.442,bars,2023.2.3,Win32,166.6666667,657b66ea316d21385b68909f,,,,,,,,,,,1632.704,1633.6984,,,1634.1984,1634.4487,,152,152,,,,,,,,,,,,,,,,bars/000.png,bars/mask006.png,,,,,,,,,,,,4,2,,,,,,,4,4,2,5,,,,,,,,,,,1633.6984,1634.1984,1634.4487,1635.7819,space,1.2999,,1635.7819,68,7,1636.7826,1636.7826,1636.7829,,,,0,16,16,16,1,40,145,,,,,,,,
,,659973d85dffc3c84fb51ec4,65af7207ca620457d06d5d1f,2024-01-23_13h02.49.442,bars,2023.2.3,Win32,166.6666667,657b66ea316d21385b68909f,,,,,,,,,,,1636.783,1637.7819,,,1638.283,1638.5326,,0,0,,,,,,,,,,,,,,,,bars/032.png,bars/mask005.png,,,,,,,,,,,,1,2,,,,,,,6,2,5,2,,,,,,,,,,,1637.7819,1638.283,1638.5326,1641.5155,space,2.9666,,1641.5155,55,20,1642.5157,1642.5157,1642.5213,,,,0,17,17,17,1,125,20,,,,,,,,
,,659973d85dffc3c84fb51ec4,65af7207ca620457d06d5d1f,2024-01-23_13h02.49.442,bars,2023.2.3,Win32,166.6666667,657b66ea316d21385b68909f,,,,,,,,,,,1642.5214,1643.5158,,,1644.0318,1644.2829,,7,7,,,,,,,,,,,,,,,,bars/012.png,bars/mask009.png,,,,,,,,,,,,2,2,,,,,,,8,4,7,3,,,,,,,,,,,1643.5158,1644.0318,1644.2829,1649.0653,space,4.7672,,1649.0654,83,8,1650.0657,1650.0657,1650.0712,,,,0,18,18,18,1,90,15,,,,,,,,
,,659973d85dffc3c84fb51ec4,65af7207ca620457d06d5d1f,2024-01-23_13h02.49.442,bars,2023.2.3,Win32,166.6666667,657b66ea316d21385b68909f,,,,,,,,,,,1650.0713,1651.0651,,,1651.5652,1651.8158,,54,54,,,,,,,,,,,,,,,,bars/027.png,bars/mask003.png,,,,,,,,,,,,3,2,,,,,,,6,2,5,3,,,,,,,,,,,1651.0651,1651.5651,1651.8158,1655.8986,space,4.0505,,1655.8986,56,4,1656.8989,1656.899,1656.9047,,,,0,19,19,19,1,110,50,,,,,,,,
,,659973d85dffc3c84fb51ec4,65af7207ca620457d06d5d1f,2024-01-23_13h02.49.442,bars,2023.2.3,Win32,166.6666667,657b66ea316d21385b68909f,,,,,,,,,,,1656.9048,1657.8986,,,1658.3985,1658.6493,,117,-63,,,,,,,,,,,,,,,,bars/039.png,bars/mask004.png,,,,,,,,,,,,1,2,,,,,,,8,4,8,2,,,,,,,,,,,1657.8986,1658.3984,1658.6493,1661.9668,space,3.2855,,1661.9668,58,12,1662.9655,1662.9655,1662.9712,,,,0,20,20,20,1,175,105,,,,,,,,
,,659973d85dffc3c84fb51ec4,65af7207ca620457d06d5d1f,2024-01-23_13h02.49.442,bars,2023.2.3,Win32,166.6666667,657b66ea316d21385b68909f,,,,,,,,,,,1662.9713,1663.9661,,,1664.4649,1664.7155,,164,-16,,,,,,,,,,,,,,,,bars/008.png,bars/mask005.png,,,,,,,,,,,,3,2,,,,,,,6,6,5,6,,,,,,,,,,,1663.9661,1664.4649,1664.7155,1667.4984,space,2.767,,1667.4984,54,16,1668.4996,1668.4996,1668.5055,,,,0,21,21,21,1,110,0,,,,,,,,
,,659973d85dffc3c84fb51ec4,65af7207ca620457d06d5d1f,2024-01-23_13h02.49.442,bars,2023.2.3,Win32,166.6666667,657b66ea316d21385b68909f,,,,,,,,,,,1668.5056,1669.4989,,,1669.9993,1670.2485,,156,-24,,,,,,,,,,,,,,,,bars/000.png,bars/mask001.png,,,,,,,,,,,,3,2,,,,,,,8,4,9,4,,,,,,,,,,,1669.4989,1669.9993,1670.2485,1672.7315,space,2.4656,,1672.7315,64,11,1673.7322,1673.7322,1673.7324,,,,0,22,22,22,1,40,145,,,,,,,,
,,659973d85dffc3c84fb51ec4,65af7207ca620457d06d5d1f,2024-01-23_13h02.49.442,bars,2023.2.3,Win32,166.6666667,657b66ea316d21385b68909f,,,,,,,,,,,1673.7325,1674.7324,,,1675.2316,1675.4825,,126,126,,,,,,,,,,,,,,,,bars/028.png,bars/mask002.png,,,,,,,,,,,,2,2,,,,,,,10,2,10,2,,,,,,,,,,,1674.7324,1675.2316,1675.4825,1681.6656,space,6.167,,1681.6656,81,6,1682.6656,1682.6656,1682.672,,,,0,23,23,23,1,45,120,,,,,,,,
,,659973d85dffc3c84fb51ec4,65af7207ca620457d06d5d1f,2024-01-23_13h02.49.442,bars,2023.2.3,Win32,166.6666667,657b66ea316d21385b68909f,,,,,,,,,,,1682.6721,1683.6654,,,1684.1664,1684.415,,146,146,,,,,,,,,,,,,,,,bars/020.png,bars/mask009.png,,,,,,,,,,,,1,2,,,,,,,10,4,10,6,,,,,,,,,,,1683.6654,1684.1664,1684.415,1685.2486,space,0.8005,,1685.2486,31,24,1686.2484,1686.2484,1686.2487,,,,0,24,24,24,1,115,170,,,,,,,,
,,659973d85dffc3c84fb51ec4,65af7207ca620457d06d5d1f,2024-01-23_13h02.49.442,bars,2023.2.3,Win32,166.6666667,657b66ea316d21385b68909f,,,,,,,,,,,1686.2488,1687.2481,,,1687.7484,1687.9984,,50,50,,,,,,,,,,,,,,,,bars/007.png,bars/mask009.png,,,,,,,,,,,,6,2,,,,,,,10,6,9,7,,,,,,,,,,,1687.2481,1687.7483,1687.9984,1689.1649,space,1.149,,1689.1649,55,5,1690.1656,1690.1656,1690.1659,,,,0,25,25,25,1,175,55,,,,,,,,
,,659973d85dffc3c84fb51ec4,65af7207ca620457d06d5d1f,2024-01-23_13h02.49.442,bars,2023.2.3,Win32,166.6666667,657b66ea316d21385b68909f,,,,,,,,,,,1690.166,1691.1659,,,1691.6493,1691.8983,,49,49,,,,,,,,,,,,,,,,bars/035.png,bars/mask005.png,,,,,,,,,,,,5,2,,,,,,,10,8,10,8,,,,,,,,,,,1691.166,1691.6493,1691.8983,1692.5658,space,0.6343,,1692.5659,54,11,1693.5662,1693.5662,1693.5665,,,,0,26,26,26,1,175,60,,,,,,,,
,,659973d85dffc3c84fb51ec4,65af7207ca620457d06d5d1f,2024-01-23_13h02.49.442,bars,2023.2.3,Win32,166.6666667,657b66ea316d21385b68909f,,,,,,,,,,,1693.5666,1694.5659,,,1695.0649,1695.3148,,102,-78,,,,,,,,,,,,,,,,bars/037.png,bars/mask008.png,,,,,,,,,,,,9,2,,,,,,,10,10,10,10,,,,,,,,,,,1694.5659,1695.0649,1695.3148,1699.1651,space,3.8333,,1699.1651,48,3,1700.1657,1700.1657,1700.1713,,,,0,27,27,27,1,150,105,,,,,,,,
,,659973d85dffc3c84fb51ec4,65af7207ca620457d06d5d1f,2024-01-23_13h02.49.442,bars,2023.2.3,Win32,166.6666667,657b66ea316d21385b68909f,,,,,,,,,,,1700.1713,1701.166,,,1701.6654,1701.9157,,55,55,,,,,,,,,,,,,,,,bars/027.png,bars/mask009.png,,,,,,,,,,,,7,2,,,,,,,10,8,10,8,,,,,,,,,,,1701.166,1701.6654,1701.9157,1703.7982,space,1.8665,,1703.7982,55,5,1704.7981,1704.7981,1704.7983,,,,0,28,28,28,1,110,50,,,,,,,,
,,659973d85dffc3c84fb51ec4,65af7207ca620457d06d5d1f,2024-01-23_13h02.49.442,bars,2023.2.3,Win32,166.6666667,657b66ea316d21385b68909f,,,,,,,,,,,1704.7984,1705.7983,,,1706.2986,1706.5647,,50,50,,,,,,,,,,,,,,,,bars/034.png,bars/mask000.png,,,,,,,,,,,,5,2,,,,,,,8,10,8,10,,,,,,,,,,,1705.7984,1706.2986,1706.5647,1708.465,space,1.8836,,1708.465,75,15,1709.4658,1709.4658,1709.4714,,,,0,29,29,29,1,125,65,,,,,,,,
,,659973d85dffc3c84fb51ec4,65af7207ca620457d06d5d1f,2024-01-23_13h02.49.442,bars,2023.2.3,Win32,166.6666667,657b66ea316d21385b68909f,,,,,,,,,,,1709.4715,1710.4659,,,1710.9657,1711.2148,,36,36,,,,,,,,,,,,,,,,bars/025.png,bars/mask007.png,,,,,,,,,,,,9,2,,,,,,,6,10,7,10,,,,,,,,,,,1710.4659,1710.9657,1711.2148,1712.3984,space,1.1822,,1712.3984,69,4,1713.3981,1713.3981,1713.3984,,,,0,30,30,30,1,105,40,,,,,,,,
,,659973d85dffc3c84fb51ec4,65af7207ca620457d06d5d1f,2024-01-23_13h02.49.442,bars,2023.2.3,Win32,166.6666667,657b66ea316d21385b68909f,,,,,,,,,,,1713.3984,1714.3983,,,1714.8988,1715.1481,,88,88,,,,,,,,,,,,,,,,bars/011.png,bars/mask009.png,,,,,,,,,,,,9,2,,,,,,,4,10,3,10,,,,,,,,,,,1714.3984,1714.8988,1715.1481,1717.6315,space,2.4655,,1717.6315,72,3,1718.6317,1718.6317,1718.6381,,,,0,31,31,31,1,160,85,,,,,,,,
,,659973d85dffc3c84fb51ec4,65af7207ca620457d06d5d1f,2024-01-23_13h02.49.442,bars,2023.2.3,Win32,166.6666667,657b66ea316d21385b68909f,,,,,,,,,,,1718.6383,1719.6328,,,1720.1317,1720.383,,127,127,,,,,,,,,,,,,,,,bars/004.png,bars/mask006.png,,,,,,,,,,,,9,2,,,,,,,6,10,7,10,,,,,,,,,,,1719.6329,1720.1317,1720.383,1722.2482,space,1.8338,,1722.2483,78,2,1723.2483,1723.2483,1723.2537,,,,0,32,32,32,1,25,125,,,,,,,,
,,659973d85dffc3c84fb51ec4,65af7207ca620457d06d5d1f,2024-01-23_13h02.49.442,bars,2023.2.3,Win32,166.6666667,657b66ea316d21385b68909f,,,,,,,,,,,1723.2538,1724.2483,,,1724.7484,1724.9987,,104,104,,,,,,,,,,,,,,,,bars/039.png,bars/mask003.png,,,,,,,,,,,,9,2,,,,,,,4,10,3,9,,,,,,,,,,,1724.2484,1724.7484,1724.9988,1726.3152,space,1.3003,,1726.3152,71,1,1727.315,1727.315,1727.3204,,,,0,33,33,33,1,175,105,,,,,,,,
,,659973d85dffc3c84fb51ec4,65af7207ca620457d06d5d1f,2024-01-23_13h02.49.442,bars,2023.2.3,Win32,166.6666667,657b66ea316d21385b68909f,,,,,,,,,,,1727.3206,1728.3153,,,1728.8313,1729.0827,,22,22,,,,,,,,,,,,,,,,bars/036.png,bars/mask000.png,,,,,,,,,,,,7,2,,,,,,,6,8,8,8,,,,,,,,,,,1728.3153,1728.8313,1729.0827,1731.2333,space,2.1341,,1731.2333,57,2,1732.2328,1732.2328,1732.2384,,,,0,34,34,34,1,145,20,,,,,,,,
,,659973d85dffc3c84fb51ec4,65af7207ca620457d06d5d1f,2024-01-23_13h02.49.442,bars,2023.2.3,Win32,166.6666667,657b66ea316d21385b68909f,,,,,,,,,,,1732.2384,1733.2321,,,1733.7314,1733.9819,,64,64,,,,,,,,,,,,,,,,bars/026.png,bars/mask004.png,,,,,,,,,,,,2,2,,,,,,,4,6,4,6,,,,,,,,,,,1733.2321,1733.7314,1733.9819,1737.4482,space,3.4338,,1737.4483,29,21,1738.4481,1738.4481,1738.4536,,,,0,35,35,35,1,35,85,,,,,,,,
,,659973d85dffc3c84fb51ec4,65af7207ca620457d06d5d1f,2024-01-23_13h02.49.442,bars,2023.2.3,Win32,166.6666667,657b66ea316d21385b68909f,,,,,,,,,,,1738.4537,1739.4482,,,1739.9481,1740.1982,,149,149,,,,,,,,,,,,,,,,bars/003.png,bars/mask003.png,,,,,,,,,,,,3,2,,,,,,,2,4,1,4,,,,,,,,,,,1739.4482,1739.9481,1740.1982,1741.3981,space,1.1833,,1741.3981,56,9,1742.398,1742.398,1742.3983,,,,0,36,36,36,1,25,140,,,,,,,,
,,659973d85dffc3c84fb51ec4,65af7207ca620457d06d5d1f,2024-01-23_13h02.49.442,bars,2023.2.3,Win32,166.6666667,657b66ea316d21385b68909f,,,,,,,,,,,1742.3984,1743.3981,,,1743.898,1744.1482,,80,80,,,,,,,,,,,,,,,,bars/041.png,bars/mask003.png,,,,,,,,,,,,0,2,,,,,,,0,2,1,0,,,,,,,,,,,1743.3981,1743.898,1744.1482,1746.748,space,2.5669,,1746.7481,60,5,1747.748,1747.748,1747.7532,,,,0,37,37,37,1,20,85,,,,,,,,
,,659973d85dffc3c84fb51ec4,65af7207ca620457d06d5d1f,2024-01-23_13h02.49.442,bars,2023.2.3,Win32,166.6666667,657b66ea316d21385b68909f,,,,,,,,,,,1747.7534,1748.748,,,1749.2481,1749.498,,71,71,,,,,,,,,,,,,,,,bars/041.png,bars/mask005.png,,,,,,,,,,,,1,2,,,,,,,2,0,2,1,,,,,,,,,,,1748.748,1749.2481,1749.4981,1752.6981,space,3.1835,,1752.6981,51,14,1753.6981,1753.6981,1753.7047,,,,0,38,38,38,1,20,85,,,,,,,,
,,659973d85dffc3c84fb51ec4,65af7207ca620457d06d5d1f,2024-01-23_13h02.49.442,bars,2023.2.3,Win32,166.6666667,657b66ea316d21385b68909f,,,,,,,,,,,1753.7048,1754.698,,,1755.1982,1755.4481,,2,182,,,,,,,,,,,,,,,,bars/032.png,bars/mask007.png,,,,,,,,,,,,1,2,,,,,,,4,2,5,2,,,,,,,,,,,1754.698,1755.1982,1755.4481,1757.8647,space,2.3835,,1757.8647,57,18,1758.8647,1758.8647,1758.8713,,,,0,39,39,39,1,125,20,,,,,,,,
,,659973d85dffc3c84fb51ec4,65af7207ca620457d06d5d1f,2024-01-23_13h02.49.442,bars,2023.2.3,Win32,166.6666667,657b66ea316d21385b68909f,,,,,,,,,,,1758.8714,1759.8646,,,1760.3647,1760.6147,,93,93,,,,,,,,,,,,,,,,bars/001.png,bars/mask000.png,,,,,,,,,,,,1,2,,,,,,,6,0,7,1,,,,,,,,,,,1759.8646,1760.3647,1760.6147,1763.448,space,2.8167,,1763.448,37,8,1764.4484,1764.4484,1764.4539,,,,0,40,40,40,1,130,85,,,,,,,,
,,659973d85dffc3c84fb51ec4,65af7207ca620457d06d5d1f,2024-01-23_13h02.49.442,bars,2023.2.3,Win32,166.6666667,657b66ea316d21385b68909f,,,,,,,,,,,1764.454,1765.4484,,,1765.9481,1766.1981,,144,144,,,,,,,,,,,,,,,,bars/020.png,bars/mask007.png,,,,,,,,,,,,0,2,,,,,,,4,2,4,2,,,,,,,,,,,1765.4484,1765.9481,1766.1981,1768.9647,space,2.75,,1768.9647,29,26,1769.9646,1769.9646,1769.9702,,,,0,41,41,41,1,115,170,,,,,,,,
,,659973d85dffc3c84fb51ec4,65af7207ca620457d06d5d1f,2024-01-23_13h02.49.442,bars,2023.2.3,Win32,166.6666667,657b66ea316d21385b68909f,,,,,,,,,,,1769.9703,1770.9646,,,1771.4648,1771.7151,,116,-64,,,,,,,,,,,,,,,,bars/028.png,bars/mask003.png,,,,,,,,,,,,3,2,,,,,,,2,4,1,3,,,,,,,,,,,1770.9646,1771.4648,1771.7152,1775.4647,space,3.7336,,1775.4648,71,4,1776.4648,1776.4649,1776.4703,,,,0,42,42,42,1,45,120,,,,,,,,
,,659973d85dffc3c84fb51ec4,65af7207ca620457d06d5d1f,2024-01-23_13h02.49.442,bars,2023.2.3,Win32,166.6666667,657b66ea316d21385b68909f,,,,,,,,,,,1776.4703,1777.4649,,,1777.9647,1778.2147,,137,137,,,,,,,,,,,,,,,,bars/049.png,bars/mask000.png,,,,,,,,,,,,0,2,,,,,,,0,2,1,1,,,,,,,,,,,1777.4649,1777.9647,1778.2147,1779.398,space,1.1668,,1779.398,23,22,1780.3739,1780.3739,1780.3742,,,,0,43,43,43,1,160,115,,,,,,,,
,,659973d85dffc3c84fb51ec4,65af7207ca620457d06d5d1f,2024-01-23_13h02.49.442,bars,2023.2.3,Win32,166.6666667,657b66ea316d21385b68909f,,,,,,,,,,,1780.3744,1781.3821,,,1781.8815,1782.1323,,150,-30,,,,,,,,,,,,,,,,bars/015.png,bars/mask000.png,,,,,,,,,,,,3,2,,,,,,,0,4,0,4,,,,,,,,,,,1781.3821,1781.8815,1782.1323,1784.9478,space,2.7833,,1784.9478,40,10,1785.9482,1785.9482,1785.9536,,,,0,44,44,44,1,110,160,,,,,,,,
,,659973d85dffc3c84fb51ec4,65af7207ca620457d06d5d1f,2024-01-23_13h02.49.442,bars,2023.2.3,Win32,166.6666667,657b66ea316d21385b68909f,,,,,,,,,,,1785.9538,1786.9486,,,1787.4488,1787.6979,,8,8,,,,,,,,,,,,,,,,bars/014.png,bars/mask006.png,,,,,,,,,,,,7,2,,,,,,,0,6,0,9,,,,,,,,,,,1786.9486,1787.4488,1787.6979,1790.7647,space,3.0337,,1790.7647,72,8,1791.7655,1791.7655,1791.7713,,,,0,45,45,45,1,80,0,,,,,,,,
,,659973d85dffc3c84fb51ec4,65af7207ca620457d06d5d1f,2024-01-23_13h02.49.442,bars,2023.2.3,Win32,166.6666667,657b66ea316d21385b68909f,,,,,,,,,,,1791.7714,1792.7648,,,1793.2649,1793.5161,,156,156,,,,,,,,,,,,,,,,bars/024.png,bars/mask004.png,,,,,,,,,,,,2,2,,,,,,,2,4,2,3,,,,,,,,,,,1792.7648,1793.2649,1793.5161,1796.1149,space,2.5671,,1796.1149,36,14,1797.1152,1797.1152,1797.1207,,,,0,46,46,46,1,120,170,,,,,,,,
,,659973d85dffc3c84fb51ec4,65af7207ca620457d06d5d1f,2024-01-23_13h02.49.442,bars,2023.2.3,Win32,166.6666667,657b66ea316d21385b68909f,,,,,,,,,,,1797.1208,1798.1146,,,1798.6148,1798.8657,,77,77,,,,,,,,,,,,,,,,bars/047.png,bars/mask002.png,,,,,,,,,,,,2,2,,,,,,,0,2,1,2,,,,,,,,,,,1798.1146,1798.6148,1798.8657,1801.665,space,2.7674,,1801.665,62,7,1802.6647,1802.6647,1802.6705,,,,0,47,47,47,1,15,70,,,,,,,,
,,659973d85dffc3c84fb51ec4,65af7207ca620457d06d5d1f,2024-01-23_13h02.49.442,bars,2023.2.3,Win32,166.6666667,657b66ea316d21385b68909f,,,,,,,,,,,1802.6705,1803.6649,,,1804.1649,1804.4153,,141,141,,,,,,,,,,,,,,,,bars/000.png,bars/mask006.png,,,,,,,,,,,,4,2,,,,,,,0,4,2,5,,,,,,,,,,,1803.6649,1804.1648,1804.4153,1806.2481,space,1.8167,,1806.2481,79,4,1807.2485,1807.2485,1807.2487,,,,0,48,48,48,1,40,145,,,,,,,,
,,659973d85dffc3c84fb51ec4,65af7207ca620457d06d5d1f,2024-01-23_13h02.49.442,bars,2023.2.3,Win32,166.6666667,657b66ea316d21385b68909f,,,,,,,,,,,1807.2489,1808.2493,,,1808.7644,1809.0153,,60,60,,,,,,,,,,,,,,,,bars/025.png,bars/mask008.png,,,,,,,,,,,,1,2,,,,,,,2,2,1,3,,,,,,,,,,,1808.2493,1808.7643,1809.0153,1812.165,space,3.1338,,1812.165,45,20,1813.1653,1813.1653,1813.1713,,,,0,49,49,49,1,105,40,,,,,,,,
,,659973d85dffc3c84fb51ec4,65af7207ca620457d06d5d1f,2024-01-23_13h02.49.442,bars,2023.2.3,Win32,166.6666667,657b66ea316d21385b68909f,,,,,,,,,,,,,,,,,,,,,,,,,,,,,,,,,,,,,,,,,,,,,,,,,,,,,,,,,,,,,,,,,,,,,,,,,,,,,,,,,,,,,,,,,,,,,1813.1714,1873.172,0,2,2,4,1,sequence_tables/blk016.csv
,,659973d85dffc3c84fb51ec4,65af7207ca620457d06d5d1f,2024-01-23_13h02.49.442,bars,2023.2.3,Win32,166.6666667,657b66ea316d21385b68909f,,,,,,,,,,,2266.8009,2267.798,,,2268.3132,2268.5477,,108,108,,,,,,,,,,,,,,,,bars/006.png,bars/mask006.png,,,,,,,,,,,,5,2,,,,,,,4,7,3,7,,,,,,1873.1773,2266.7976,space,393.6185,,2267.798,2268.3131,2268.5477,2272.5133,space,3.9499,,2272.5133,73,8,2273.5141,2273.5141,2273.5147,,,,0,0,0,0,1,35,100,,,,,,,,
,,659973d85dffc3c84fb51ec4,65af7207ca620457d06d5d1f,2024-01-23_13h02.49.442,bars,2023.2.3,Win32,166.6666667,657b66ea316d21385b68909f,,,,,,,,,,,2273.5149,2274.514,,,2275.0138,2275.2635,,90,90,,,,,,,,,,,,,,,,bars/026.png,bars/mask009.png,,,,,,,,,,,,4,2,,,,,,,6,5,7,5,,,,,,,,,,,2274.514,2275.0138,2275.2635,2278.9657,space,3.6681,,2278.9657,55,5,2279.9643,2279.9643,2279.9701,,,,0,1,1,1,1,35,85,,,,,,,,
,,659973d85dffc3c84fb51ec4,65af7207ca620457d06d5d1f,2024-01-23_13h02.49.442,bars,2023.2.3,Win32,166.6666667,657b66ea316d21385b68909f,,,,,,,,,,,2279.9702,2280.964,,,2281.4634,2281.7138,,48,48,,,,,,,,,,,,,,,,bars/025.png,bars/mask000.png,,,,,,,,,,,,3,2,,,,,,,4,3,4,4,,,,,,,,,,,2280.964,2281.4634,2281.7138,2284.0969,space,2.3508,,2284.0969,57,8,2285.098,2285.098,2285.0983,,,,0,2,2,2,1,105,40,,,,,,,,
,,659973d85dffc3c84fb51ec4,65af7207ca620457d06d5d1f,2024-01-23_13h02.49.442,bars,2023.2.3,Win32,166.6666667,657b66ea316d21385b68909f,,,,,,,,,,,2285.0984,2286.0979,,,2286.5975,2286.8483,,25,205,,,,,,,,,,,,,,,,bars/022.png,bars/mask001.png,,,,,,,,,,,,4,2,,,,,,,2,5,2,5,,,,,,,,,,,2286.098,2286.5974,2286.8483,2289.9642,space,3.0842,,2289.9642,70,5,2290.9635,2290.9635,2290.9694,,,,0,3,3,3,1,95,20,,,,,,,,
,,659973d85dffc3c84fb51ec4,65af7207ca620457d06d5d1f,2024-01-23_13h02.49.442,bars,2023.2.3,Win32,166.6666667,657b66ea316d21385b68909f,,,,,,,,,,,2290.9695,2291.9641,,,2292.4642,2292.7135,,41,41,,,,,,,,,,,,,,,,bars/035.png,bars/mask006.png,,,,,,,,,,,,1,2,,,,,,,0,3,1,4,,,,,,,,,,,2291.9641,2292.4642,2292.7136,2294.3469,space,1.6163,,2294.3469,46,19,2295.3466,2295.3466,2295.3469,,,,0,4,4,4,1,175,60,,,,,,,,
,,659973d85dffc3c84fb51ec4,65af7207ca620457d06d5d1f,2024-01-23_13h02.49.442,bars,2023.2.3,Win32,166.6666667,657b66ea316d21385b68909f,,,,,,,,,,,2295.3469,2296.3466,,,2296.847,2297.0973,,7,187,,,,,,,,,,,,,,,,bars/014.png,bars/mask009.png,,,,,,,,,,,,2,2,,,,,,,0,5,0,2,,,,,,,,,,,2296.3466,2296.8469,2297.0973,2300.2802,space,3.1666,,2300.2802,73,7,2301.281,2301.281,2301.2868,,,,0,5,5,5,1,80,0,,,,,,,,
,,659973d85dffc3c84fb51ec4,65af7207ca620457d06d5d1f,2024-01-23_13h02.49.442,bars,2023.2.3,Win32,166.6666667,657b66ea316d21385b68909f,,,,,,,,,,,2301.2868,2302.2807,,,2302.7813,2303.0308,,109,109,,,,,,,,,,,,,,,,bars/037.png,bars/mask002.png,,,,,,,,,,,,5,2,,,,,,,2,7,3,6,,,,,,,,,,,2302.2807,2302.7813,2303.0308,2305.0636,space,2.0164,,2305.0636,41,4,2306.0633,2306.0633,2306.0686,,,,0,6,6,6,1,150,105,,,,,,,,
,,659973d85dffc3c84fb51ec4,65af7207ca620457d06d5d1f,2024-01-23_13h02.49.442,bars,2023.2.3,Win32,166.6666667,657b66ea316d21385b68909f,,,,,,,,,,,2306.0687,2307.064,,,2307.5643,2307.8137,,32,32,,,,,,,,,,,,,,,,bars/031.png,bars/mask007.png,,,,,,,,,,,,8,2,,,,,,,0,9,0,9,,,,,,,,,,,2307.064,2307.5643,2307.8137,2309.768,space,1.92,,2309.768,88,3,2310.7636,2310.7636,2310.7639,,,,0,7,7,7,1,120,35,,,,,,,,
,,659973d85dffc3c84fb51ec4,65af7207ca620457d06d5d1f,2024-01-23_13h02.49.442,bars,2023.2.3,Win32,166.6666667,657b66ea316d21385b68909f,,,,,,,,,,,2310.764,2311.7633,,,2312.2632,2312.5145,,80,260,,,,,,,,,,,,,,,,bars/002.png,bars/mask009.png,,,,,,,,,,,,8,2,,,,,,,0,10,0,10,,,,,,,,,,,2311.7633,2312.2632,2312.5145,2316.3799,space,3.8502,,2316.3799,50,5,2317.3964,2317.3964,2317.4021,,,,0,8,8,8,1,130,85,,,,,,,,
,,659973d85dffc3c84fb51ec4,65af7207ca620457d06d5d1f,2024-01-23_13h02.49.442,bars,2023.2.3,Win32,166.6666667,657b66ea316d21385b68909f,,,,,,,,,,,2317.4021,2318.3973,,,2318.8967,2319.1469,,28,208,,,,,,,,,,,,,,,,bars/017.png,bars/mask007.png,,,,,,,,,,,,4,2,,,,,,,2,10,2,10,,,,,,,,,,,2318.3973,2318.8967,2319.147,2322.68,space,3.5167,,2322.68,63,17,2323.68,2323.68,2323.6856,,,,0,9,9,9,1,145,45,,,,,,,,
,,659973d85dffc3c84fb51ec4,65af7207ca620457d06d5d1f,2024-01-23_13h02.49.442,bars,2023.2.3,Win32,166.6666667,657b66ea316d21385b68909f,,,,,,,,,,,2323.6858,2324.6798,,,2325.1801,2325.4159,,5,5,,,,,,,,,,,,,,,,bars/012.png,bars/mask008.png,,,,,,,,,,,,7,2,,,,,,,4,10,4,10,,,,,,,,,,,2324.6798,2325.1801,2325.4159,2327.0303,space,1.5836,,2327.0303,85,10,2328.0301,2328.0301,2328.0356,,,,0,10,10,10,1,90,15,,,,,,,,
,,659973d85dffc3c84fb51ec4,65af7207ca620457d06d5d1f,2024-01-23_13h02.49.442,bars,2023.2.3,Win32,166.6666667,657b66ea316d21385b68909f,,,,,,,,,,,2328.0356,2329.0306,,,2329.5302,2329.7799,,91,91,,,,,,,,,,,,,,,,bars/001.png,bars/mask004.png,,,,,,,,,,,,8,2,,,,,,,2,10,0,10,,,,,,,,,,,2329.0306,2329.5302,2329.78,2331.0132,space,1.2002,,2331.0132,39,6,2332.0133,2332.0133,2332.0188,,,,0,11,11,11,1,130,85,,,,,,,,
,,659973d85dffc3c84fb51ec4,65af7207ca620457d06d5d1f,2024-01-23_13h02.49.442,bars,2023.2.3,Win32,166.6666667,657b66ea316d21385b68909f,,,,,,,,,,,2332.0189,2333.0133,,,2333.5145,2333.7797,,121,121,,,,,,,,,,,,,,,,bars/004.png,bars/mask003.png,,,,,,,,,,,,9,2,,,,,,,4,10,4,10,,,,,,,,,,,2333.0133,2333.5145,2333.7798,2336.3466,space,2.5503,,2336.3466,84,4,2337.3467,2337.3467,2337.3531,,,,0,12,12,12,1,25,125,,,,,,,,
,,659973d85dffc3c84fb51ec4,65af7207ca620457d06d5d1f,2024-01-23_13h02.49.442,bars,2023.2.3,Win32,166.6666667,657b66ea316d21385b68909f,,,,,,,,,,,2337.3531,2338.3467,,,2338.8468,2339.0975,,130,130,,,,,,,,,,,,,,,,bars/004.png,bars/mask002.png,,,,,,,,,,,,6,2,,,,,,,6,8,5,7,,,,,,,,,,,2338.3467,2338.8468,2339.0976,2343.2133,space,4.0988,,2343.2133,75,5,2344.2141,2344.2141,2344.2196,,,,0,13,13,13,1,25,125,,,,,,,,
,,659973d85dffc3c84fb51ec4,65af7207ca620457d06d5d1f,2024-01-23_13h02.49.442,bars,2023.2.3,Win32,166.6666667,657b66ea316d21385b68909f,,,,,,,,,,,2344.2196,2345.2139,,,2345.7144,2345.9639,,68,68,,,,,,,,,,,,,,,,bars/047.png,bars/mask009.png,,,,,,,,,,,,9,2,,,,,,,4,10,4,10,,,,,,,,,,,2345.2139,2345.7143,2345.9639,2348.93,space,2.9493,,2348.9301,53,2,2349.9303,2349.9304,2349.936,,,,0,14,14,14,1,15,70,,,,,,,,
,,659973d85dffc3c84fb51ec4,65af7207ca620457d06d5d1f,2024-01-23_13h02.49.442,bars,2023.2.3,Win32,166.6666667,657b66ea316d21385b68909f,,,,,,,,,,,2349.9361,2350.9297,,,2351.4156,2351.6635,,142,142,,,,,,,,,,,,,,,,bars/005.png,bars/mask003.png,,,,,,,,,,,,9,2,,,,,,,2,10,2,10,,,,,,,,,,,2350.9297,2351.4156,2351.6635,2353.9303,space,2.234,,2353.9304,48,2,2354.9299,2354.9299,2354.9358,,,,0,15,15,15,1,10,140,,,,,,,,
,,659973d85dffc3c84fb51ec4,65af7207ca620457d06d5d1f,2024-01-23_13h02.49.442,bars,2023.2.3,Win32,166.6666667,657b66ea316d21385b68909f,,,,,,,,,,,2354.9359,2355.9297,,,2356.4297,2356.6798,,81,81,,,,,,,,,,,,,,,,bars/041.png,bars/mask008.png,,,,,,,,,,,,7,2,,,,,,,4,10,5,8,,,,,,,,,,,2355.9297,2356.4297,2356.6798,2359.2966,space,2.6003,,2359.2967,61,4,2360.2968,2360.2968,2360.3024,,,,0,16,16,16,1,20,85,,,,,,,,
,,659973d85dffc3c84fb51ec4,65af7207ca620457d06d5d1f,2024-01-23_13h02.49.442,bars,2023.2.3,Win32,166.6666667,657b66ea316d21385b68909f,,,,,,,,,,,2360.3025,2361.2965,,,2361.7964,2362.047,,104,104,,,,,,,,,,,,,,,,bars/011.png,bars/mask005.png,,,,,,,,,,,,3,2,,,,,,,6,10,9,9,,,,,,,,,,,2361.2965,2361.7964,2362.047,2366.0471,space,3.9839,,2366.0471,56,19,2367.0464,2367.0465,2367.0521,,,,0,17,17,17,1,160,85,,,,,,,,
,,659973d85dffc3c84fb51ec4,65af7207ca620457d06d5d1f,2024-01-23_13h02.49.442,bars,2023.2.3,Win32,166.6666667,657b66ea316d21385b68909f,,,,,,,,,,,2367.0522,2368.047,,,2368.5463,2368.7964,,76,76,,,,,,,,,,,,,,,,bars/001.png,bars/mask000.png,,,,,,,,,,,,6,2,,,,,,,8,8,7,9,,,,,,,,,,,2368.047,2368.5463,2368.7964,2372.5298,space,3.7167,,2372.5298,54,9,2373.5299,2373.53,2373.5353,,,,0,18,18,18,1,130,85,,,,,,,,
,,659973d85dffc3c84fb51ec4,65af7207ca620457d06d5d1f,2024-01-23_13h02.49.442,bars,2023.2.3,Win32,166.6666667,657b66ea316d21385b68909f,,,,,,,,,,,2373.5354,2374.5298,,,2375.0297,2375.2798,,3,183,,,,,,,,,,,,,,,,bars/032.png,bars/mask008.png,,,,,,,,,,,,4,2,,,,,,,6,10,7,9,,,,,,,,,,,2374.5298,2375.0297,2375.2798,2377.8298,space,2.5164,,2377.8298,58,17,2378.8297,2378.8297,2378.8352,,,,0,19,19,19,1,125,20,,,,,,,,
,,659973d85dffc3c84fb51ec4,65af7207ca620457d06d5d1f,2024-01-23_13h02.49.442,bars,2023.2.3,Win32,166.6666667,657b66ea316d21385b68909f,,,,,,,,,,,2378.8353,2379.8297,,,2380.33,2380.5803,,30,210,,,,,,,,,,,,,,,,bars/010.png,bars/mask008.png,,,,,,,,,,,,1,2,,,,,,,4,8,4,9,,,,,,,,,,,2379.8297,2380.33,2380.5803,2382.9631,space,2.3503,,2382.9631,45,25,2383.9631,2383.9631,2383.9634,,,,0,20,20,20,1,165,55,,,,,,,,
,,659973d85dffc3c84fb51ec4,65af7207ca620457d06d5d1f,2024-01-23_13h02.49.442,bars,2023.2.3,Win32,166.6666667,657b66ea316d21385b68909f,,,,,,,,,,,2383.9636,2384.9627,,,2385.4634,2385.7142,,60,60,,,,,,,,,,,,,,,,bars/047.png,bars/mask000.png,,,,,,,,,,,,7,2,,,,,,,2,10,3,10,,,,,,,,,,,2384.9627,2385.4634,2385.7143,2388.6966,space,2.9668,,2388.6966,45,10,2389.6964,2389.6964,2389.7016,,,,0,21,21,21,1,15,70,,,,,,,,
,,659973d85dffc3c84fb51ec4,65af7207ca620457d06d5d1f,2024-01-23_13h02.49.442,bars,2023.2.3,Win32,166.6666667,657b66ea316d21385b68909f,,,,,,,,,,,2389.7018,2390.6966,,,2391.1967,2391.4475,,58,238,,,,,,,,,,,,,,,,bars/047.png,bars/mask006.png,,,,,,,,,,,,5,2,,,,,,,4,10,4,9,,,,,,,,,,,2390.6966,2391.1967,2391.4475,2394.7632,space,3.2994,,2394.7633,43,12,2395.7638,2395.7638,2395.7697,,,,0,22,22,22,1,15,70,,,,,,,,
,,659973d85dffc3c84fb51ec4,65af7207ca620457d06d5d1f,2024-01-23_13h02.49.442,bars,2023.2.3,Win32,166.6666667,657b66ea316d21385b68909f,,,,,,,,,,,2395.7698,2396.7636,,,2397.2639,2397.5131,,65,65,,,,,,,,,,,,,,,,bars/034.png,bars/mask007.png,,,,,,,,,,,,8,2,,,,,,,6,8,5,8,,,,,,,,,,,2396.7636,2397.2639,2397.5131,2401.1131,space,3.5669,,2401.1131,60,0,2402.1112,2402.1113,2402.117,,,,0,23,23,23,1,125,65,,,,,,,,
,,659973d85dffc3c84fb51ec4,65af7207ca620457d06d5d1f,2024-01-23_13h02.49.442,bars,2023.2.3,Win32,166.6666667,657b66ea316d21385b68909f,,,,,,,,,,,2402.1172,2403.0992,,,2403.5962,2403.847,,176,-4,,,,,,,,,,,,,,,,bars/008.png,bars/mask006.png,,,,,,,,,,,,9,2,,,,,,,4,10,2,10,,,,,,,,,,,2403.0992,2403.5962,2403.847,2407.6964,space,3.817,,2407.6964,66,4,2408.6964,2408.6964,2408.7018,,,,0,24,24,24,1,110,0,,,,,,,,
,,659973d85dffc3c84fb51ec4,65af7207ca620457d06d5d1f,2024-01-23_13h02.49.442,bars,2023.2.3,Win32,166.6666667,657b66ea316d21385b68909f,,,,,,,,,,,2408.7019,2409.6963,,,2410.1965,2410.4464,,165,-15,,,,,,,,,,,,,,,,bars/033.png,bars/mask004.png,,,,,,,,,,,,6,2,,,,,,,2,8,2,9,,,,,,,,,,,2409.6963,2410.1964,2410.4464,2411.2797,space,0.8004,,2411.2798,40,10,2412.2798,2412.2798,2412.2802,,,,0,25,25,25,1,25,155,,,,,,,,
,,659973d85dffc3c84fb51ec4,65af7207ca620457d06d5d1f,2024-01-23_13h02.49.442,bars,2023.2.3,Win32,166.6666667,657b66ea316d21385b68909f,,,,,,,,,,,2412.2803,2413.2796,,,2413.7796,2414.0298,,73,73,,,,,,,,,,,,,,,,bars/021.png,bars/mask008.png,,,,,,,,,,,,9,2,,,,,,,4,10,4,10,,,,,,,,,,,2413.2796,2413.7796,2414.0298,2417.0129,space,2.9502,,2417.013,82,3,2418.0129,2418.0129,2418.0182,,,,0,26,26,26,1,155,70,,,,,,,,
,,659973d85dffc3c84fb51ec4,65af7207ca620457d06d5d1f,2024-01-23_13h02.49.442,bars,2023.2.3,Win32,166.6666667,657b66ea316d21385b68909f,,,,,,,,,,,2418.0184,2419.0131,,,2419.513,2419.7631,,130,130,,,,,,,,,,,,,,,,bars/043.png,bars/mask008.png,,,,,,,,,,,,7,2,,,,,,,6,8,5,7,,,,,,,,,,,2419.0131,2419.513,2419.7631,2421.3797,space,1.5837,,2421.3797,80,0,2422.3797,2422.3798,2422.38,,,,0,27,27,27,1,30,130,,,,,,,,
,,659973d85dffc3c84fb51ec4,65af7207ca620457d06d5d1f,2024-01-23_13h02.49.442,bars,2023.2.3,Win32,166.6666667,657b66ea316d21385b68909f,,,,,,,,,,,2422.3802,2423.3801,,,2423.8796,2424.1307,,39,39,,,,,,,,,,,,,,,,bars/025.png,bars/mask002.png,,,,,,,,,,,,10,2,,,,,,,8,10,7,10,,,,,,,,,,,2423.3801,2423.8796,2424.1307,2429.2963,space,5.1502,,2429.2964,66,1,2430.297,2430.297,2430.3024,,,,0,28,28,28,1,105,40,,,,,,,,
,,659973d85dffc3c84fb51ec4,65af7207ca620457d06d5d1f,2024-01-23_13h02.49.442,bars,2023.2.3,Win32,166.6666667,657b66ea316d21385b68909f,,,,,,,,,,,2430.3026,2431.2965,,,2431.797,2432.0471,,128,128,,,,,,,,,,,,,,,,bars/023.png,bars/mask005.png,,,,,,,,,,,,4,2,,,,,,,10,8,10,7,,,,,,,,,,,2431.2965,2431.797,2432.0471,2436.3296,space,4.2503,,2436.3296,72,13,2437.3303,2437.3303,2437.3357,,,,0,29,29,29,1,20,115,,,,,,,,
,,659973d85dffc3c84fb51ec4,65af7207ca620457d06d5d1f,2024-01-23_13h02.49.442,bars,2023.2.3,Win32,166.6666667,657b66ea316d21385b68909f,,,,,,,,,,,2437.3358,2438.3165,,,2438.8139,2439.0634,,97,97,,,,,,,,,,,,,,,,bars/041.png,bars/mask002.png,,,,,,,,,,,,4,2,,,,,,,8,6,8,7,,,,,,,,,,,2438.3165,2438.8139,2439.0634,2442.013,space,2.9169,,2442.013,77,12,2443.0132,2443.0132,2443.0189,,,,0,30,30,30,1,20,85,,,,,,,,
,,659973d85dffc3c84fb51ec4,65af7207ca620457d06d5d1f,2024-01-23_13h02.49.442,bars,2023.2.3,Win32,166.6666667,657b66ea316d21385b68909f,,,,,,,,,,,2443.0191,2444.0138,,,2444.513,2444.7637,,110,110,,,,,,,,,,,,,,,,bars/019.png,bars/mask007.png,,,,,,,,,,,,4,2,,,,,,,10,4,10,5,,,,,,,,,,,2444.0138,2444.513,2444.7637,2448.2298,space,3.4501,,2448.2298,65,5,2449.2295,2449.2295,2449.2351,,,,0,31,31,31,1,45,105,,,,,,,,
,,659973d85dffc3c84fb51ec4,65af7207ca620457d06d5d1f,2024-01-23_13h02.49.442,bars,2023.2.3,Win32,166.6666667,657b66ea316d21385b68909f,,,,,,,,,,,2449.2352,2450.2296,,,2450.7299,2450.9646,,70,70,,,,,,,,,,,,,,,,bars/009.png,bars/mask003.png,,,,,,,,,,,,0,2,,,,,,,10,2,10,2,,,,,,,,,,,2450.2296,2450.7299,2450.9647,2454.7464,space,3.7499,,2454.7464,55,35,2455.7477,2455.7478,2455.7535,,,,0,32,32,32,1,15,105,,,,,,,,
,,659973d85dffc3c84fb51ec4,65af7207ca620457d06d5d1f,2024-01-23_13h02.49.442,bars,2023.2.3,Win32,166.6666667,657b66ea316d21385b68909f,,,,,,,,,,,2455.7537,2456.7462,,,2457.2463,2457.4961,,142,-38,,,,,,,,,,,,,,,,bars/005.png,bars/mask004.png,,,,,,,,,,,,6,2,,,,,,,10,4,10,6,,,,,,,,,,,2456.7462,2457.2462,2457.4961,2460.8964,space,3.3837,,2460.8964,48,2,2461.8969,2461.8969,2461.9038,,,,0,33,33,33,1,10,140,,,,,,,,
,,659973d85dffc3c84fb51ec4,65af7207ca620457d06d5d1f,2024-01-23_13h02.49.442,bars,2023.2.3,Win32,166.6666667,657b66ea316d21385b68909f,,,,,,,,,,,2461.904,2462.9126,,,2463.4133,2463.6635,,86,86,,,,,,,,,,,,,,,,bars/011.png,bars/mask009.png,,,,,,,,,,,,7,2,,,,,,,8,6,6,7,,,,,,,,,,,2462.9126,2463.4133,2463.6635,2467.0963,space,3.4166,,2467.0963,74,1,2468.0966,2468.0966,2468.102,,,,0,34,34,34,1,160,85,,,,,,,,
,,659973d85dffc3c84fb51ec4,65af7207ca620457d06d5d1f,2024-01-23_13h02.49.442,bars,2023.2.3,Win32,166.6666667,657b66ea316d21385b68909f,,,,,,,,,,,2468.1021,2469.0795,,,2469.5795,2469.8302,,72,72,,,,,,,,,,,,,,,,bars/021.png,bars/mask001.png,,,,,,,,,,,,7,2,,,,,,,6,8,7,7,,,,,,,,,,,2469.0795,2469.5795,2469.8302,2471.5631,space,1.7169,,2471.5632,83,2,2472.564,2472.564,2472.5644,,,,0,35,35,35,1,155,70,,,,,,,,
,,659973d85dffc3c84fb51ec4,65af7207ca620457d06d5d1f,2024-01-23_13h02.49.442,bars,2023.2.3,Win32,166.6666667,657b66ea316d21385b68909f,,,,,,,,,,,2472.5647,2473.5635,,,2474.0634,2474.2979,,132,132,,,,,,,,,,,,,,,,bars/004.png,bars/mask006.png,,,,,,,,,,,,8,2,,,,,,,8,10,9,10,,,,,,,,,,,2473.5636,2474.0634,2474.298,2477.0468,space,2.7171,,2477.0468,73,7,2478.047,2478.0471,2478.0528,,,,0,36,36,36,1,25,125,,,,,,,,
,,659973d85dffc3c84fb51ec4,65af7207ca620457d06d5d1f,2024-01-23_13h02.49.442,bars,2023.2.3,Win32,166.6666667,657b66ea316d21385b68909f,,,,,,,,,,,2478.0529,2479.0468,,,2479.5461,2479.7962,,86,86,,,,,,,,,,,,,,,,bars/002.png,bars/mask001.png,,,,,,,,,,,,8,2,,,,,,,10,8,10,8,,,,,,,,,,,2479.0468,2479.5461,2479.7962,2483.0488,space,3.2339,,2483.0489,44,1,2484.0464,2484.0464,2484.0519,,,,0,37,37,37,1,130,85,,,,,,,,
,,659973d85dffc3c84fb51ec4,65af7207ca620457d06d5d1f,2024-01-23_13h02.49.442,bars,2023.2.3,Win32,166.6666667,657b66ea316d21385b68909f,,,,,,,,,,,2484.0519,2485.0465,,,2485.547,2485.7972,,143,143,,,,,,,,,,,,,,,,bars/005.png,bars/mask003.png,,,,,,,,,,,,9,2,,,,,,,8,10,9,10,,,,,,,,,,,2485.0465,2485.5469,2485.7972,2488.1129,space,2.3001,,2488.113,47,3,2489.1129,2489.1129,2489.1132,,,,0,38,38,38,1,10,140,,,,,,,,
,,659973d85dffc3c84fb51ec4,65af7207ca620457d06d5d1f,2024-01-23_13h02.49.442,bars,2023.2.3,Win32,166.6666667,657b66ea316d21385b68909f,,,,,,,,,,,2489.1132,2490.1129,,,2490.6129,2490.8641,,89,-91,,,,,,,,,,,,,,,,bars/018.png,bars/mask007.png,,,,,,,,,,,,9,2,,,,,,,6,8,5,9,,,,,,,,,,,2490.1129,2490.6129,2490.8641,2496.1462,space,5.2502,,2496.1462,61,1,2497.1334,2497.1334,2497.139,,,,0,39,39,39,1,150,90,,,,,,,,
,,659973d85dffc3c84fb51ec4,65af7207ca620457d06d5d1f,2024-01-23_13h02.49.442,bars,2023.2.3,Win32,166.6666667,657b66ea316d21385b68909f,,,,,,,,,,,2497.1391,2498.1303,,,2498.6459,2498.9125,,178,-2,,,,,,,,,,,,,,,,bars/040.png,bars/mask000.png,,,,,,,,,,,,5,2,,,,,,,4,6,4,6,,,,,,,,,,,2498.1303,2498.6459,2498.9125,2502.864,space,3.935,,2502.864,38,7,2503.8639,2503.8639,2503.8694,,,,0,40,40,40,1,140,5,,,,,,,,
,,659973d85dffc3c84fb51ec4,65af7207ca620457d06d5d1f,2024-01-23_13h02.49.442,bars,2023.2.3,Win32,166.6666667,657b66ea316d21385b68909f,,,,,,,,,,,2503.8696,2504.8636,,,2505.3638,2505.6135,,80,80,,,,,,,,,,,,,,,,bars/026.png,bars/mask005.png,,,,,,,,,,,,7,2,,,,,,,2,8,2,8,,,,,,,,,,,2504.8636,2505.3637,2505.6135,2508.5795,space,2.9335,,2508.5795,45,5,2509.5802,2509.5802,2509.5856,,,,0,41,41,41,1,35,85,,,,,,,,
,,659973d85dffc3c84fb51ec4,65af7207ca620457d06d5d1f,2024-01-23_13h02.49.442,bars,2023.2.3,Win32,166.6666667,657b66ea316d21385b68909f,,,,,,,,,,,2509.5857,2510.5804,,,2511.0806,2511.3294,,27,27,,,,,,,,,,,,,,,,bars/045.png,bars/mask002.png,,,,,,,,,,,,4,2,,,,,,,4,10,2,10,,,,,,,,,,,2510.5804,2511.0806,2511.3294,2513.6298,space,2.2825,,2513.6298,73,17,2514.6302,2514.6303,2514.6357,,,,0,42,42,42,1,100,10,,,,,,,,
,,659973d85dffc3c84fb51ec4,65af7207ca620457d06d5d1f,2024-01-23_13h02.49.442,bars,2023.2.3,Win32,166.6666667,657b66ea316d21385b68909f,,,,,,,,,,,2514.6358,2515.6305,,,2516.1303,2516.3795,,21,21,,,,,,,,,,,,,,,,bars/025.png,bars/mask006.png,,,,,,,,,,,,3,2,,,,,,,6,8,6,8,,,,,,,,,,,2515.6305,2516.1303,2516.3795,2517.9304,space,1.5332,,2517.9304,84,19,2518.9299,2518.9299,2518.9303,,,,0,43,43,43,1,105,40,,,,,,,,
,,659973d85dffc3c84fb51ec4,65af7207ca620457d06d5d1f,2024-01-23_13h02.49.442,bars,2023.2.3,Win32,166.6666667,657b66ea316d21385b68909f,,,,,,,,,,,2518.9304,2519.9302,,,2520.4294,2520.6961,,94,94,,,,,,,,,,,,,,,,bars/002.png,bars/mask002.png,,,,,,,,,,,,7,2,,,,,,,4,10,5,10,,,,,,,,,,,2519.9302,2520.4293,2520.6962,2524.0462,space,3.3337,,2524.0463,36,9,2525.047,2525.047,2525.0524,,,,0,44,44,44,1,130,85,,,,,,,,
,,659973d85dffc3c84fb51ec4,65af7207ca620457d06d5d1f,2024-01-23_13h02.49.442,bars,2023.2.3,Win32,166.6666667,657b66ea316d21385b68909f,,,,,,,,,,,2525.0525,2526.047,,,2526.5626,2526.8139,,16,196,,,,,,,,,,,,,,,,bars/031.png,bars/mask008.png,,,,,,,,,,,,3,2,,,,,,,2,8,2,8,,,,,,,,,,,2526.047,2526.5626,2526.8139,2529.8301,space,2.9842,,2529.8302,76,19,2530.83,2530.83,2530.8361,,,,0,45,45,45,1,120,35,,,,,,,,
,,659973d85dffc3c84fb51ec4,65af7207ca620457d06d5d1f,2024-01-23_13h02.49.442,bars,2023.2.3,Win32,166.6666667,657b66ea316d21385b68909f,,,,,,,,,,,2530.8362,2531.83,,,2532.3295,2532.596,,170,-10,,,,,,,,,,,,,,,,bars/040.png,bars/mask002.png,,,,,,,,,,,,5,2,,,,,,,0,10,0,10,,,,,,,,,,,2531.8301,2532.3295,2532.596,2537.7794,space,5.1823,,2537.7795,30,15,2538.7687,2538.7688,2538.7743,,,,0,46,46,46,1,140,5,,,,,,,,
,,659973d85dffc3c84fb51ec4,65af7207ca620457d06d5d1f,2024-01-23_13h02.49.442,bars,2023.2.3,Win32,166.6666667,657b66ea316d21385b68909f,,,,,,,,,,,2538.7744,2539.7801,,,2540.2801,2540.5295,,37,37,,,,,,,,,,,,,,,,bars/031.png,bars/mask008.png,,,,,,,,,,,,7,2,,,,,,,0,8,0,7,,,,,,,,,,,2539.7801,2540.2801,2540.5295,2542.646,space,2.0991,,2542.6461,83,2,2543.6468,2543.6468,2543.6471,,,,0,47,47,47,1,120,35,,,,,,,,
,,659973d85dffc3c84fb51ec4,65af7207ca620457d06d5d1f,2024-01-23_13h02.49.442,bars,2023.2.3,Win32,166.6666667,657b66ea316d21385b68909f,,,,,,,,,,,2543.6473,2544.6471,,,2545.1462,2545.3968,,33,33,,,,,,,,,,,,,,,,bars/031.png,bars/mask008.png,,,,,,,,,,,,9,2,,,,,,,0,10,0,10,,,,,,,,,,,2544.6472,2545.1462,2545.3968,2549.8962,space,4.4834,,2549.8962,87,2,2550.8962,2550.8962,2550.9019,,,,0,48,48,48,1,120,35,,,,,,,,
,,659973d85dffc3c84fb51ec4,65af7207ca620457d06d5d1f,2024-01-23_13h02.49.442,bars,2023.2.3,Win32,166.6666667,657b66ea316d21385b68909f,,,,,,,,,,,2550.902,2551.8963,,,2552.3959,2552.6471,,145,-35,,,,,,,,,,,,,,,,bars/004.png,bars/mask006.png,,,,,,,,,,,,3,2,,,,,,,2,8,2,10,,,,,,,,,,,2551.8963,2552.3959,2552.6472,2556.2626,space,3.5836,,2556.2627,60,20,2557.2629,2557.263,2557.2685,,,,0,49,49,49,1,25,125,,,,,,,,
,,659973d85dffc3c84fb51ec4,65af7207ca620457d06d5d1f,2024-01-23_13h02.49.442,bars,2023.2.3,Win32,166.6666667,657b66ea316d21385b68909f,,,,,,,,,,,,,,,,,,,,,,,,,,,,,,,,,,,,,,,,,,,,,,,,,,,,,,,,,,,,,,,,,,,,,,,,,,,,,,,,,,,,,,,,,,,,,2557.2687,2617.2701,0,3,3,3,1,sequence_tables/blk037.csv
,,659973d85dffc3c84fb51ec4,65af7207ca620457d06d5d1f,2024-01-23_13h02.49.442,bars,2023.2.3,Win32,166.6666667,657b66ea316d21385b68909f,,,,,,,,,,,2619.148,2620.1459,,,2620.6461,2620.8963,,15,15,,,,,,,,,,,,,,,,bars/012.png,bars/mask009.png,,,,,,,,,,,,3,2,,,,,,,3,3,2,3,,,,,,2617.2754,2619.1459,space,1.8685,,2620.146,2620.6461,2620.8963,2622.796,space,1.8673,,2622.796,75,0,2623.7966,2623.7967,2623.8024,,,,0,0,0,0,1,90,15,,,,,,,,
,,659973d85dffc3c84fb51ec4,65af7207ca620457d06d5d1f,2024-01-23_13h02.49.442,bars,2023.2.3,Win32,166.6666667,657b66ea316d21385b68909f,,,,,,,,,,,2623.8026,2624.7961,,,2625.2969,2625.5469,,82,82,,,,,,,,,,,,,,,,bars/018.png,bars/mask005.png,,,,,,,,,,,,1,2,,,,,,,1,1,1,2,,,,,,,,,,,2624.7961,2625.2968,2625.547,2628.4475,space,2.885,,2628.4475,68,8,2629.4459,2629.446,2629.4515,,,,0,1,1,1,1,150,90,,,,,,,,
,,659973d85dffc3c84fb51ec4,65af7207ca620457d06d5d1f,2024-01-23_13h02.49.442,bars,2023.2.3,Win32,166.6666667,657b66ea316d21385b68909f,,,,,,,,,,,2629.4516,2630.446,,,2630.9459,2631.1963,,0,0,,,,,,,,,,,,,,,,bars/048.png,bars/mask004.png,,,,,,,,,,,,0,2,,,,,,,3,0,4,0,,,,,,,,,,,2630.446,2630.9458,2631.1964,2633.1294,space,1.917,,2633.1294,50,5,2634.1297,2634.1298,2634.1353,,,,0,2,2,2,1,50,175,,,,,,,,
,,659973d85dffc3c84fb51ec4,65af7207ca620457d06d5d1f,2024-01-23_13h02.49.442,bars,2023.2.3,Win32,166.6666667,657b66ea316d21385b68909f,,,,,,,,,,,2634.1354,2635.1292,,,2635.6294,2635.8802,,13,13,,,,,,,,,,,,,,,,bars/014.png,bars/mask009.png,,,,,,,,,,,,2,2,,,,,,,1,2,0,4,,,,,,,,,,,2635.1292,2635.6294,2635.8802,2637.7143,space,1.8185,,2637.7144,67,13,2638.7127,2638.7128,2638.7131,,,,0,3,3,3,1,80,0,,,,,,,,
,,659973d85dffc3c84fb51ec4,65af7207ca620457d06d5d1f,2024-01-23_13h02.49.442,bars,2023.2.3,Win32,166.6666667,657b66ea316d21385b68909f,,,,,,,,,,,2638.7132,2639.7133,,,2640.2132,2640.4628,,155,-25,,,,,,,,,,,,,,,,bars/015.png,bars/mask002.png,,,,,,,,,,,,3,2,,,,,,,3,4,4,4,,,,,,,,,,,2639.7133,2640.2132,2640.4628,2645.564,space,5.0681,,2645.564,45,5,2646.5633,2646.5633,2646.5689,,,,0,4,4,4,1,110,160,,,,,,,,
,,659973d85dffc3c84fb51ec4,65af7207ca620457d06d5d1f,2024-01-23_13h02.49.442,bars,2023.2.3,Win32,166.6666667,657b66ea316d21385b68909f,,,,,,,,,,,2646.569,2647.5633,,,2648.0636,2648.3126,,28,28,,,,,,,,,,,,,,,,bars/025.png,bars/mask006.png,,,,,,,,,,,,4,2,,,,,,,1,6,2,6,,,,,,,,,,,2647.5633,2648.0636,2648.3126,2649.8301,space,1.5,,2649.8301,77,12,2650.8296,2650.8296,2650.8299,,,,0,5,5,5,1,105,40,,,,,,,,
,,659973d85dffc3c84fb51ec4,65af7207ca620457d06d5d1f,2024-01-23_13h02.49.442,bars,2023.2.3,Win32,166.6666667,657b66ea316d21385b68909f,,,,,,,,,,,2650.83,2651.8299,,,2652.3297,2652.5794,,109,-71,,,,,,,,,,,,,,,,bars/039.png,bars/mask007.png,,,,,,,,,,,,5,2,,,,,,,0,8,0,6,,,,,,,,,,,2651.8299,2652.3297,2652.5794,2656.7959,space,4.1994,,2656.7959,66,4,2657.796,2657.796,2657.802,,,,0,6,6,6,1,175,105,,,,,,,,
,,659973d85dffc3c84fb51ec4,65af7207ca620457d06d5d1f,2024-01-23_13h02.49.442,bars,2023.2.3,Win32,166.6666667,657b66ea316d21385b68909f,,,,,,,,,,,2657.802,2658.7959,,,2659.2967,2659.5459,,147,-33,,,,,,,,,,,,,,,,bars/000.png,bars/mask001.png,,,,,,,,,,,,6,2,,,,,,,0,6,0,6,,,,,,,,,,,2658.7959,2659.2967,2659.5459,2663.8625,space,4.2995,,2663.8626,73,2,2664.8635,2664.8635,2664.8692,,,,0,7,7,7,1,40,145,,,,,,,,
,,659973d85dffc3c84fb51ec4,65af7207ca620457d06d5d1f,2024-01-23_13h02.49.442,bars,2023.2.3,Win32,166.6666667,657b66ea316d21385b68909f,,,,,,,,,,,2664.8695,2665.8626,,,2666.3626,2666.5979,,8,8,,,,,,,,,,,,,,,,bars/040.png,bars/mask003.png,,,,,,,,,,,,4,2,,,,,,,2,4,1,4,,,,,,,,,,,2665.8626,2666.3626,2666.5979,2668.4793,space,1.8504,,2668.4793,48,3,2669.4796,2669.4796,2669.4798,,,,0,8,8,8,1,140,5,,,,,,,,
,,659973d85dffc3c84fb51ec4,65af7207ca620457d06d5d1f,2024-01-23_13h02.49.442,bars,2023.2.3,Win32,166.6666667,657b66ea316d21385b68909f,,,,,,,,,,,2669.4799,2670.4798,,,2670.98,2671.2287,,47,47,,,,,,,,,,,,,,,,bars/030.png,bars/mask005.png,,,,,,,,,,,,2,2,,,,,,,4,6,3,6,,,,,,,,,,,2670.4798,2670.9799,2671.2287,2672.3126,space,1.0671,,2672.3126,87,18,2673.3132,2673.3132,2673.3136,,,,0,9,9,9,1,140,65,,,,,,,,
,,659973d85dffc3c84fb51ec4,65af7207ca620457d06d5d1f,2024-01-23_13h02.49.442,bars,2023.2.3,Win32,166.6666667,657b66ea316d21385b68909f,,,,,,,,,,,2673.3137,2674.3126,,,2674.7958,2675.047,,26,206,,,,,,,,,,,,,,,,bars/022.png,bars/mask000.png,,,,,,,,,,,,7,2,,,,,,,6,8,7,9,,,,,,,,,,,2674.3127,2674.7958,2675.047,2678.1134,space,3.0345,,2678.1134,69,6,2679.1135,2679.1135,2679.1192,,,,0,10,10,10,1,95,20,,,,,,,,
,,659973d85dffc3c84fb51ec4,65af7207ca620457d06d5d1f,2024-01-23_13h02.49.442,bars,2023.2.3,Win32,166.6666667,657b66ea316d21385b68909f,,,,,,,,,,,2679.1193,2680.1133,,,2680.6128,2680.8626,,83,83,,,,,,,,,,,,,,,,bars/011.png,bars/mask005.png,,,,,,,,,,,,5,2,,,,,,,4,6,4,5,,,,,,,,,,,2680.1133,2680.6128,2680.8626,2683.8469,space,2.9515,,2683.8469,77,2,2684.8465,2684.8465,2684.8519,,,,0,11,11,11,1,160,85,,,,,,,,
