init_variables.started,init_variables.stopped,participant,session,date,expName,psychopyVersion,OS,frameRate,study_id,instruction_exp.started,instruction_exp.stopped,key_resp_8.keys,key_resp_8.rt,key_resp_8.duration,instruction_single.started,instruction_single.stopped,key_resp_2.keys,key_resp_2.rt,key_resp_2.duration,interval.started,interval.stopped,cue_single.started,cue_single.stopped,mask.started,mask.stopped,ori_response_single.started,res_ori,res,ori_response_single.stopped,key_resp_single.keys,key_resp_single.rt,key_resp_single.duration,disp_single.started,disp_single.stopped,key_resp.keys,key_resp.rt,key_resp.duration,single.thisRepN,single.thisTrialN,single.thisN,single.thisIndex,single.ran,ori,path,mask_path,instruction_bandit.started,instruction_bandit.stopped,key_resp_6.keys,key_resp_6.rt,key_resp_6.duration,cue_bandit.started,cue_bandit.stopped,bandit_res.keys,bandit_res.rt,bandit_res.duration,outcome_bandit.started,rew,action,outcome_bandit.stopped,bandit.thisRepN,bandit.thisTrialN,bandit.thisN,bandit.thisIndex,bandit.ran,actual_rew1,actual_rew2,rew1,rew2,instruction_task.started,instruction_task.stopped,key_resp_7.keys,key_resp_7.rt,key_resp_7.duration,wait_ready.started,wait_ready.stopped,key_resp_3.keys,key_resp_3.rt,key_resp_3.duration,cue.started,cue.stopped,ori_response.started,ori_response.stopped,key_resp_5.keys,key_resp_5.rt,key_resp_5.duration,outcome.started,diff1,diff2,outcome.stopped,disp_outcome_practice.started,disp_outcome_practice.stopped,key_resp_4.keys,key_resp_4.rt,key_resp_4.duration,trials.thisRepN,trials.thisTrialN,trials.thisN,trials.thisIndex,trials.ran,ori1,ori2,break_blk.started,break_blk.stopped,block.thisRepN,block.thisTrialN,block.thisN,block.thisIndex,block.ran,condition_file
0,0,6174ecffb39d40681e51eca2,65af56614ec9136d74dc74d0,2024-01-23_08h03.27.082,bars,2023.2.3,Linux x86_64,61.57635468,657b66ea316d21385b68909f,,,,,,,,,,,,,,,,,,,,,,,,,,,,,,,,,,,,,,,,,,,,,,,,,,,,,,,,,,,,,,,,,,,,,,,,,,,,,,,,,,,,,,,,,,,,,,,,,,,,
,,6174ecffb39d40681e51eca2,65af56614ec9136d74dc74d0,2024-01-23_08h03.27.082,bars,2023.2.3,Linux x86_64,61.57635468,657b66ea316d21385b68909f,0,62.291,y,61.601,,,,,,,,,,,,,,,,,,,,,,,,,,,,,,,,,,,,,,,,,,,,,,,,,,,,,,,,,,,,,,,,,,,,,,,,,,,,,,,,,,,,,,,,,,,,,,,,
,,6174ecffb39d40681e51eca2,65af56614ec9136d74dc74d0,2024-01-23_08h03.27.082,bars,2023.2.3,Linux x86_64,61.57635468,657b66ea316d21385b68909f,,,,,,62.291,184.583,space,122.246,,,,,,,,,,,,,,,,,,,,,,,,,,,,,,,,,,,,,,,,,,,,,,,,,,,,,,,,,,,,,,,,,,,,,,,,,,,,,,,,,,,,,,,,,,,
,,6174ecffb39d40681e51eca2,65af56614ec9136d74dc74d0,2024-01-23_08h03.27.082,bars,2023.2.3,Linux x86_64,61.57635468,657b66ea316d21385b68909f,,,,,,,,,,,184.598,185.586,185.587,186.085,186.085,186.272,186.273,0,0,197.799,space,11.419,,197.799,209.929,space,11.995,,0,0,0,4,1,95,bars/single004.png,bars/mask004.png,,,,,,,,,,,,,,,,,,,,,,,,,,,,,,,,,,,,,,,,,,,,,,,,,,,,,,,,,,,,,,,,
,,6174ecffb39d40681e51eca2,65af56614ec9136d74dc74d0,2024-01-23_08h03.27.082,bars,2023.2.3,Linux x86_64,61.57635468,657b66ea316d21385b68909f,,,,,,,,,,,209.932,210.934,210.935,211.464,211.464,211.701,211.701,90,90,217.706,space,5.99,,217.706,220.678,space,2.912,,0,1,1,8,1,160,bars/single008.png,bars/mask004.png,,,,,,,,,,,,,,,,,,,,,,,,,,,,,,,,,,,,,,,,,,,,,,,,,,,,,,,,,,,,,,,,
,,6174ecffb39d40681e51eca2,65af56614ec9136d74dc74d0,2024-01-23_08h03.27.082,bars,2023.2.3,Linux x86_64,61.57635468,657b66ea316d21385b68909f,,,,,,,,,,,220.679,221.689,221.69,222.166,222.166,222.414,222.414,0,180,233.982,space,11.557,,233.982,239.017,space,4.99,,0,2,2,2,1,145,bars/single002.png,bars/mask003.png,,,,,,,,,,,,,,,,,,,,,,,,,,,,,,,,,,,,,,,,,,,,,,,,,,,,,,,,,,,,,,,,
,,6174ecffb39d40681e51eca2,65af56614ec9136d74dc74d0,2024-01-23_08h03.27.082,bars,2023.2.3,Linux x86_64,61.57635468,657b66ea316d21385b68909f,,,,,,,,,,,239.018,240.02,240.02,240.5,240.5,240.745,240.745,143,143,246.27,space,5.513,,246.27,251.129,space,4.805,,0,3,3,3,1,20,bars/single003.png,bars/mask005.png,,,,,,,,,,,,,,,,,,,,,,,,,,,,,,,,,,,,,,,,,,,,,,,,,,,,,,,,,,,,,,,,
,,6174ecffb39d40681e51eca2,65af56614ec9136d74dc74d0,2024-01-23_08h03.27.082,bars,2023.2.3,Linux x86_64,61.57635468,657b66ea316d21385b68909f,,,,,,,,,,,251.13,252.134,252.134,252.644,252.644,252.892,252.892,141,141,258.072,space,5.168,,258.072,265.137,space,7.052,,0,4,4,7,1,45,bars/single007.png,bars/mask009.png,,,,,,,,,,,,,,,,,,,,,,,,,,,,,,,,,,,,,,,,,,,,,,,,,,,,,,,,,,,,,,,,
,,6174ecffb39d40681e51eca2,65af56614ec9136d74dc74d0,2024-01-23_08h03.27.082,bars,2023.2.3,Linux x86_64,61.57635468,657b66ea316d21385b68909f,,,,,,,,,,,265.141,266.131,266.132,266.623,266.623,266.854,266.854,64,64,268.301,space,1.433,,268.301,272.523,space,4.21,,0,5,5,6,1,175,bars/single006.png,bars/mask005.png,,,,,,,,,,,,,,,,,,,,,,,,,,,,,,,,,,,,,,,,,,,,,,,,,,,,,,,,,,,,,,,,
,,6174ecffb39d40681e51eca2,65af56614ec9136d74dc74d0,2024-01-23_08h03.27.082,bars,2023.2.3,Linux x86_64,61.57635468,657b66ea316d21385b68909f,,,,,,,,,,,272.524,273.5,273.5,274.004,274.004,274.255,274.255,145,-35,285.625,space,11.326,,285.626,289.652,space,3.952,,0,6,6,1,1,20,bars/single001.png,bars/mask006.png,,,,,,,,,,,,,,,,,,,,,,,,,,,,,,,,,,,,,,,,,,,,,,,,,,,,,,,,,,,,,,,,
,,6174ecffb39d40681e51eca2,65af56614ec9136d74dc74d0,2024-01-23_08h03.27.082,bars,2023.2.3,Linux x86_64,61.57635468,657b66ea316d21385b68909f,,,,,,,,,,,289.653,290.632,290.632,291.112,291.112,291.379,291.379,150,150,295.515,space,4.125,,295.516,299.88,space,4.316,,0,7,7,0,1,150,bars/single000.png,bars/mask006.png,,,,,,,,,,,,,,,,,,,,,,,,,,,,,,,,,,,,,,,,,,,,,,,,,,,,,,,,,,,,,,,,
,,6174ecffb39d40681e51eca2,65af56614ec9136d74dc74d0,2024-01-23_08h03.27.082,bars,2023.2.3,Linux x86_64,61.57635468,657b66ea316d21385b68909f,,,,,,,,,,,299.881,300.888,300.889,301.373,301.373,301.608,301.609,179,179,307.942,space,6.32,,307.942,312.081,space,4.122,,0,8,8,9,1,20,bars/single009.png,bars/mask006.png,,,,,,,,,,,,,,,,,,,,,,,,,,,,,,,,,,,,,,,,,,,,,,,,,,,,,,,,,,,,,,,,
,,6174ecffb39d40681e51eca2,65af56614ec9136d74dc74d0,2024-01-23_08h03.27.082,bars,2023.2.3,Linux x86_64,61.57635468,657b66ea316d21385b68909f,,,,,,,,,,,312.082,313.077,313.077,313.606,313.606,313.858,313.858,0,0,318.558,space,4.686,,318.558,321.334,space,2.72,,0,9,9,5,1,55,bars/single005.png,bars/mask008.png,,,,,,,,,,,,,,,,,,,,,,,,,,,,,,,,,,,,,,,,,,,,,,,,,,,,,,,,,,,,,,,,
,,6174ecffb39d40681e51eca2,65af56614ec9136d74dc74d0,2024-01-23_08h03.27.082,bars,2023.2.3,Linux x86_64,61.57635468,657b66ea316d21385b68909f,,,,,,,,,,,,,,,,,,,,,,,,,,,,,,,,,,,,,321.334,354.025,space,32.635,,,,,,,,,,,,,,,,,,,,,,,,,,,,,,,,,,,,,,,,,,,,,,,,,,,,,,,,,,,,
,,6174ecffb39d40681e51eca2,65af56614ec9136d74dc74d0,2024-01-23_08h03.27.082,bars,2023.2.3,Linux x86_64,61.57635468,657b66ea316d21385b68909f,,,,,,,,,,,,,,,,,,,,,,,,,,,,,,,,,,,,,,,,,,354.038,355.613,left,1.476,,355.614,9,1,356.617,0,0,0,0,1,9,1,9,2,,,,,,,,,,,,,,,,,,,,,,,,,,,,,,,,,,,,,,,,,
,,6174ecffb39d40681e51eca2,65af56614ec9136d74dc74d0,2024-01-23_08h03.27.082,bars,2023.2.3,Linux x86_64,61.57635468,657b66ea316d21385b68909f,,,,,,,,,,,,,,,,,,,,,,,,,,,,,,,,,,,,,,,,,,356.626,358.49,right,1.785,,358.491,1,2,359.493,0,1,1,1,1,10,0,10,1,,,,,,,,,,,,,,,,,,,,,,,,,,,,,,,,,,,,,,,,,
,,6174ecffb39d40681e51eca2,65af56614ec9136d74dc74d0,2024-01-23_08h03.27.082,bars,2023.2.3,Linux x86_64,61.57635468,657b66ea316d21385b68909f,,,,,,,,,,,,,,,,,,,,,,,,,,,,,,,,,,,,,,,,,,359.493,360.8,left,1.295,,360.801,10,1,361.796,0,2,2,2,1,10,2,10,2,,,,,,,,,,,,,,,,,,,,,,,,,,,,,,,,,,,,,,,,,
,,6174ecffb39d40681e51eca2,65af56614ec9136d74dc74d0,2024-01-23_08h03.27.082,bars,2023.2.3,Linux x86_64,61.57635468,657b66ea316d21385b68909f,,,,,,,,,,,,,,,,,,,,,,,,,,,,,,,,,,,,,,,,,,361.8,363.009,left,1.193,,363.009,7,1,364.005,0,3,3,3,1,8,4,7,3,,,,,,,,,,,,,,,,,,,,,,,,,,,,,,,,,,,,,,,,,
,,6174ecffb39d40681e51eca2,65af56614ec9136d74dc74d0,2024-01-23_08h03.27.082,bars,2023.2.3,Linux x86_64,61.57635468,657b66ea316d21385b68909f,,,,,,,,,,,,,,,,,,,,,,,,,,,,,,,,,,,,,,,,,,364.006,365.268,left,1.25,,365.268,5,1,366.264,0,4,4,4,1,6,2,5,1,,,,,,,,,,,,,,,,,,,,,,,,,,,,,,,,,,,,,,,,,
,,6174ecffb39d40681e51eca2,65af56614ec9136d74dc74d0,2024-01-23_08h03.27.082,bars,2023.2.3,Linux x86_64,61.57635468,657b66ea316d21385b68909f,,,,,,,,,,,,,,,,,,,,,,,,,,,,,,,,,,,,,,,,,,366.269,366.934,right,0.65,,366.934,4,2,367.943,0,5,5,5,1,4,4,4,4,,,,,,,,,,,,,,,,,,,,,,,,,,,,,,,,,,,,,,,,,
,,6174ecffb39d40681e51eca2,65af56614ec9136d74dc74d0,2024-01-23_08h03.27.082,bars,2023.2.3,Linux x86_64,61.57635468,657b66ea316d21385b68909f,,,,,,,,,,,,,,,,,,,,,,,,,,,,,,,,,,,,,,,,,,367.943,368.71,left,0.724,,368.711,1,1,369.72,0,6,6,6,1,2,2,1,2,,,,,,,,,,,,,,,,,,,,,,,,,,,,,,,,,,,,,,,,,
,,6174ecffb39d40681e51eca2,65af56614ec9136d74dc74d0,2024-01-23_08h03.27.082,bars,2023.2.3,Linux x86_64,61.57635468,657b66ea316d21385b68909f,,,,,,,,,,,,,,,,,,,,,,,,,,,,,,,,,,,,,,,,,,369.721,370.351,right,0.623,,370.351,1,2,371.351,0,7,7,7,1,0,0,0,1,,,,,,,,,,,,,,,,,,,,,,,,,,,,,,,,,,,,,,,,,
,,6174ecffb39d40681e51eca2,65af56614ec9136d74dc74d0,2024-01-23_08h03.27.082,bars,2023.2.3,Linux x86_64,61.57635468,657b66ea316d21385b68909f,,,,,,,,,,,,,,,,,,,,,,,,,,,,,,,,,,,,,,,,,,371.352,371.877,left,0.52,,371.877,1,1,372.853,0,8,8,8,1,0,2,1,0,,,,,,,,,,,,,,,,,,,,,,,,,,,,,,,,,,,,,,,,,
,,6174ecffb39d40681e51eca2,65af56614ec9136d74dc74d0,2024-01-23_08h03.27.082,bars,2023.2.3,Linux x86_64,61.57635468,657b66ea316d21385b68909f,,,,,,,,,,,,,,,,,,,,,,,,,,,,,,,,,,,,,,,,,,372.854,373.612,left,0.752,,373.613,2,1,374.616,0,9,9,9,1,2,4,2,3,,,,,,,,,,,,,,,,,,,,,,,,,,,,,,,,,,,,,,,,,
,,6174ecffb39d40681e51eca2,65af56614ec9136d74dc74d0,2024-01-23_08h03.27.082,bars,2023.2.3,Linux x86_64,61.57635468,657b66ea316d21385b68909f,,,,,,,,,,,,,,,,,,,,,,,,,,,,,,,,,,,,,,,,,,374.618,375.283,right,0.659,,375.283,3,2,376.258,0,10,10,10,1,0,2,0,3,,,,,,,,,,,,,,,,,,,,,,,,,,,,,,,,,,,,,,,,,
,,6174ecffb39d40681e51eca2,65af56614ec9136d74dc74d0,2024-01-23_08h03.27.082,bars,2023.2.3,Linux x86_64,61.57635468,657b66ea316d21385b68909f,,,,,,,,,,,,,,,,,,,,,,,,,,,,,,,,,,,,,,,,,,376.26,376.924,right,0.627,,376.924,3,2,377.928,0,11,11,11,1,0,4,0,3,,,,,,,,,,,,,,,,,,,,,,,,,,,,,,,,,,,,,,,,,
,,6174ecffb39d40681e51eca2,65af56614ec9136d74dc74d0,2024-01-23_08h03.27.082,bars,2023.2.3,Linux x86_64,61.57635468,657b66ea316d21385b68909f,,,,,,,,,,,,,,,,,,,,,,,,,,,,,,,,,,,,,,,,,,377.929,378.596,left,0.628,,378.597,1,1,379.608,0,12,12,12,1,2,6,1,6,,,,,,,,,,,,,,,,,,,,,,,,,,,,,,,,,,,,,,,,,
,,6174ecffb39d40681e51eca2,65af56614ec9136d74dc74d0,2024-01-23_08h03.27.082,bars,2023.2.3,Linux x86_64,61.57635468,657b66ea316d21385b68909f,,,,,,,,,,,,,,,,,,,,,,,,,,,,,,,,,,,,,,,,,,379.608,380.084,right,0.438,,380.084,3,2,381.09,0,13,13,13,1,0,4,1,3,,,,,,,,,,,,,,,,,,,,,,,,,,,,,,,,,,,,,,,,,
,,6174ecffb39d40681e51eca2,65af56614ec9136d74dc74d0,2024-01-23_08h03.27.082,bars,2023.2.3,Linux x86_64,61.57635468,657b66ea316d21385b68909f,,,,,,,,,,,,,,,,,,,,,,,,,,,,,,,,,,,,,,,,,,381.091,381.727,right,0.589,,381.727,7,2,382.73,0,14,14,14,1,2,6,2,7,,,,,,,,,,,,,,,,,,,,,,,,,,,,,,,,,,,,,,,,,
,,6174ecffb39d40681e51eca2,65af56614ec9136d74dc74d0,2024-01-23_08h03.27.082,bars,2023.2.3,Linux x86_64,61.57635468,657b66ea316d21385b68909f,,,,,,,,,,,,,,,,,,,,,,,,,,,,,,,,,,,,,,,,,,382.731,383.4,right,0.661,,383.4,9,2,384.403,0,15,15,15,1,4,8,3,9,,,,,,,,,,,,,,,,,,,,,,,,,,,,,,,,,,,,,,,,,
,,6174ecffb39d40681e51eca2,65af56614ec9136d74dc74d0,2024-01-23_08h03.27.082,bars,2023.2.3,Linux x86_64,61.57635468,657b66ea316d21385b68909f,,,,,,,,,,,,,,,,,,,,,,,,,,,,,,,,,,,,,,,,,,384.404,385.033,right,0.615,,385.033,7,2,386.037,0,16,16,16,1,6,6,7,7,,,,,,,,,,,,,,,,,,,,,,,,,,,,,,,,,,,,,,,,,
,,6174ecffb39d40681e51eca2,65af56614ec9136d74dc74d0,2024-01-23_08h03.27.082,bars,2023.2.3,Linux x86_64,61.57635468,657b66ea316d21385b68909f,,,,,,,,,,,,,,,,,,,,,,,,,,,,,,,,,,,,,,,,,,386.039,386.581,right,0.533,,386.581,5,2,387.576,0,17,17,17,1,8,4,9,5,,,,,,,,,,,,,,,,,,,,,,,,,,,,,,,,,,,,,,,,,
,,6174ecffb39d40681e51eca2,65af56614ec9136d74dc74d0,2024-01-23_08h03.27.082,bars,2023.2.3,Linux x86_64,61.57635468,657b66ea316d21385b68909f,,,,,,,,,,,,,,,,,,,,,,,,,,,,,,,,,,,,,,,,,,387.579,388.058,right,0.466,,388.058,1,2,389.035,0,18,18,18,1,6,2,5,1,,,,,,,,,,,,,,,,,,,,,,,,,,,,,,,,,,,,,,,,,
,,6174ecffb39d40681e51eca2,65af56614ec9136d74dc74d0,2024-01-23_08h03.27.082,bars,2023.2.3,Linux x86_64,61.57635468,657b66ea316d21385b68909f,,,,,,,,,,,,,,,,,,,,,,,,,,,,,,,,,,,,,,,,,,389.036,389.83,left,0.756,,389.83,7,1,390.838,0,19,19,19,1,8,0,7,0,,,,,,,,,,,,,,,,,,,,,,,,,,,,,,,,,,,,,,,,,
,,6174ecffb39d40681e51eca2,65af56614ec9136d74dc74d0,2024-01-23_08h03.27.082,bars,2023.2.3,Linux x86_64,61.57635468,657b66ea316d21385b68909f,,,,,,,,,,,,,,,,,,,,,,,,,,,,,,,,,,,,,,,,,,,,,,,,,,,,,,,,,,,,390.839,441.825,space,50.879,,,,,,,,,,,,,,,,,,,,,,,,,,,,,,,,,,,,,
,,6174ecffb39d40681e51eca2,65af56614ec9136d74dc74d0,2024-01-23_08h03.27.082,bars,2023.2.3,Linux x86_64,61.57635468,657b66ea316d21385b68909f,,,,,,,,,,,445.048,446.039,,,446.53,446.775,,113,113,,,,,,,,,,,,,,,,bars/002.png,bars/mask008.png,,,,,,,,,,,,1,1,,,,,,,4,1,3,0,,,,,,441.861,445.036,space,3.158,,446.039,446.53,446.776,453.382,space,6.484,,453.385,17,28,454.39,454.39,466.583,space,12.083,,0,0,0,0,1,130,85,,,,,,,,
,,6174ecffb39d40681e51eca2,65af56614ec9136d74dc74d0,2024-01-23_08h03.27.082,bars,2023.2.3,Linux x86_64,61.57635468,657b66ea316d21385b68909f,,,,,,,,,,,466.585,467.601,,,468.088,468.324,,117,117,,,,,,,,,,,,,,,,bars/034.png,bars/mask002.png,,,,,,,,,,,,4,1,,,,,,,6,0,5,0,,,,,,,,,,,467.601,468.088,468.324,473.825,space,5.434,,473.826,8,52,474.808,474.808,477.382,space,2.532,,0,1,1,1,1,125,65,,,,,,,,
,,6174ecffb39d40681e51eca2,65af56614ec9136d74dc74d0,2024-01-23_08h03.27.082,bars,2023.2.3,Linux x86_64,61.57635468,657b66ea316d21385b68909f,,,,,,,,,,,477.383,478.388,,,478.915,479.155,,169,-11,,,,,,,,,,,,,,,,bars/007.png,bars/mask004.png,,,,,,,,,,,,3,1,,,,,,,4,0,4,3,,,,,,,,,,,478.389,478.914,479.155,484.171,space,4.999,,484.172,6,66,485.206,485.206,488.275,space,3.011,,0,2,2,2,1,175,55,,,,,,,,
,,6174ecffb39d40681e51eca2,65af56614ec9136d74dc74d0,2024-01-23_08h03.27.082,bars,2023.2.3,Linux x86_64,61.57635468,657b66ea316d21385b68909f,,,,,,,,,,,488.277,489.253,,,489.773,490.051,,154,154,,,,,,,,,,,,,,,,bars/030.png,bars/mask009.png,,,,,,,,,,,,2,1,,,,,,,2,2,3,1,,,,,,,,,,,489.253,489.773,490.051,495.774,space,5.718,,495.774,14,89,496.774,496.774,504.066,space,7.239,,0,3,3,3,1,140,65,,,,,,,,
,,6174ecffb39d40681e51eca2,65af56614ec9136d74dc74d0,2024-01-23_08h03.27.082,bars,2023.2.3,Linux x86_64,61.57635468,657b66ea316d21385b68909f,,,,,,,,,,,504.071,505.081,,,505.575,505.81,,99,99,,,,,,,,,,,,,,,,bars/028.png,bars/mask006.png,,,,,,,,,,,,1,2,,,,,,,4,4,4,4,,,,,,,,,,,505.081,505.575,505.81,508.438,space,2.565,,508.439,54,21,509.444,509.444,511.943,space,2.411,,0,4,4,4,1,45,120,,,,,,,,
,,6174ecffb39d40681e51eca2,65af56614ec9136d74dc74d0,2024-01-23_08h03.27.082,bars,2023.2.3,Linux x86_64,61.57635468,657b66ea316d21385b68909f,,,,,,,,,,,511.943,512.956,,,513.448,513.687,,0,0,,,,,,,,,,,,,,,,bars/009.png,bars/mask004.png,,,,,,,,,,,,1,1,,,,,,,2,6,2,6,,,,,,,,,,,512.958,513.448,513.688,521.019,space,7.28,,521.019,15,75,522.023,522.023,527.729,space,5.623,,0,5,5,5,1,15,105,,,,,,,,
,,6174ecffb39d40681e51eca2,65af56614ec9136d74dc74d0,2024-01-23_08h03.27.082,bars,2023.2.3,Linux x86_64,61.57635468,657b66ea316d21385b68909f,,,,,,,,,,,527.732,528.711,,,529.222,529.461,,155,155,,,,,,,,,,,,,,,,bars/009.png,bars/mask009.png,,,,,,,,,,,,0,1,,,,,,,4,4,5,4,,,,,,,,,,,528.712,529.221,529.461,534.27,space,4.792,,534.271,40,50,535.274,535.274,538.063,space,2.774,,0,6,6,6,1,15,105,,,,,,,,
,,6174ecffb39d40681e51eca2,65af56614ec9136d74dc74d0,2024-01-23_08h03.27.082,bars,2023.2.3,Linux x86_64,61.57635468,657b66ea316d21385b68909f,,,,,,,,,,,538.068,539.057,,,539.54,539.789,,36,36,,,,,,,,,,,,,,,,bars/016.png,bars/mask002.png,,,,,,,,,,,,1,1,,,,,,,2,6,1,5,,,,,,,,,,,539.057,539.54,539.789,543.386,space,3.559,,543.386,4,51,544.398,544.398,547.182,space,2.651,,0,7,7,7,1,40,165,,,,,,,,
,,6174ecffb39d40681e51eca2,65af56614ec9136d74dc74d0,2024-01-23_08h03.27.082,bars,2023.2.3,Linux x86_64,61.57635468,657b66ea316d21385b68909f,,,,,,,,,,,547.184,548.179,,,548.708,548.946,,121,121,,,,,,,,,,,,,,,,bars/002.png,bars/mask000.png,,,,,,,,,,,,0,1,,,,,,,0,4,0,5,,,,,,,,,,,548.179,548.708,548.946,552.696,space,3.728,,552.696,9,36,553.699,553.699,555.819,space,2.053,,0,8,8,8,1,130,85,,,,,,,,
,,6174ecffb39d40681e51eca2,65af56614ec9136d74dc74d0,2024-01-23_08h03.27.082,bars,2023.2.3,Linux x86_64,61.57635468,657b66ea316d21385b68909f,,,,,,,,,,,555.821,556.821,,,557.31,557.55,,72,72,,,,,,,,,,,,,,,,bars/039.png,bars/mask009.png,,,,,,,,,,,,0,2,,,,,,,2,6,3,5,,,,,,,,,,,556.821,557.31,557.55,560.232,space,2.674,,560.233,77,33,561.241,561.241,562.343,space,1.05,,0,9,9,9,1,175,105,,,,,,,,
,,6174ecffb39d40681e51eca2,65af56614ec9136d74dc74d0,2024-01-23_08h03.27.082,bars,2023.2.3,Linux x86_64,61.57635468,657b66ea316d21385b68909f,,,,,,,,,,,562.343,563.348,,,563.845,564.086,,163,163,,,,,,,,,,,,,,,,bars/016.png,bars/mask008.png,,,,,,,,,,,,7,2,,,,,,,4,8,7,8,,,,,,,,,,,563.348,563.845,564.086,569.212,space,5.088,,569.212,57,2,570.221,570.222,573.679,space,3.415,,0,10,10,10,1,40,165,,,,,,,,
,,6174ecffb39d40681e51eca2,65af56614ec9136d74dc74d0,2024-01-23_08h03.27.082,bars,2023.2.3,Linux x86_64,61.57635468,657b66ea316d21385b68909f,,,,,,,,,,,573.68,574.68,,,575.169,575.399,,97,-83,,,,,,,,,,,,,,,,bars/002.png,bars/mask001.png,,,,,,,,,,,,5,2,,,,,,,2,10,3,8,,,,,,,,,,,574.68,575.169,575.399,581.985,space,6.573,,581.986,33,12,582.984,582.984,586.214,space,3.164,,0,11,11,11,1,130,85,,,,,,,,
,,6174ecffb39d40681e51eca2,65af56614ec9136d74dc74d0,2024-01-23_08h03.27.082,bars,2023.2.3,Linux x86_64,61.57635468,657b66ea316d21385b68909f,,,,,,,,,,,586.248,587.25,,,587.733,587.981,,156,156,,,,,,,,,,,,,,,,bars/015.png,bars/mask006.png,,,,,,,,,,,,9,2,,,,,,,0,10,2,10,,,,,,,,,,,587.251,587.733,587.981,592.293,space,4.271,,592.293,46,4,593.266,593.266,596.574,space,3.251,,0,12,12,12,1,110,160,,,,,,,,
,,6174ecffb39d40681e51eca2,65af56614ec9136d74dc74d0,2024-01-23_08h03.27.082,bars,2023.2.3,Linux x86_64,61.57635468,657b66ea316d21385b68909f,,,,,,,,,,,596.577,597.578,,,598.055,598.306,,73,73,,,,,,,,,,,,,,,,bars/019.png,bars/mask002.png,,,,,,,,,,,,0,1,,,,,,,2,8,2,8,,,,,,,,,,,597.579,598.055,598.306,600.952,space,2.606,,600.952,28,32,601.942,601.942,609.428,space,7.359,,0,13,13,13,1,45,105,,,,,,,,
,,6174ecffb39d40681e51eca2,65af56614ec9136d74dc74d0,2024-01-23_08h03.27.082,bars,2023.2.3,Linux x86_64,61.57635468,657b66ea316d21385b68909f,,,,,,,,,,,609.432,610.438,,,610.93,611.17,,163,163,,,,,,,,,,,,,,,,bars/020.png,bars/mask008.png,,,,,,,,,,,,4,2,,,,,,,4,6,5,5,,,,,,,,,,,610.438,610.93,611.17,615.538,space,4.333,,615.539,48,7,616.534,616.534,619.467,space,2.886,,0,14,14,14,1,115,170,,,,,,,,
,,6174ecffb39d40681e51eca2,65af56614ec9136d74dc74d0,2024-01-23_08h03.27.082,bars,2023.2.3,Linux x86_64,61.57635468,657b66ea316d21385b68909f,,,,,,,,,,,619.469,620.468,,,620.966,621.203,,89,89,,,,,,,,,,,,,,,,bars/001.png,bars/mask008.png,,,,,,,,,,,,7,2,,,,,,,6,8,5,8,,,,,,,,,,,620.468,620.965,621.203,626.044,space,4.798,,626.044,41,4,627.046,627.046,630.663,space,3.57,,0,15,15,15,1,130,85,,,,,,,,
,,6174ecffb39d40681e51eca2,65af56614ec9136d74dc74d0,2024-01-23_08h03.27.082,bars,2023.2.3,Linux x86_64,61.57635468,657b66ea316d21385b68909f,,,,,,,,,,,630.69,631.697,,,632.19,632.419,,116,116,,,,,,,,,,,,,,,,bars/049.png,bars/mask001.png,,,,,,,,,,,,7,2,,,,,,,8,6,8,7,,,,,,,,,,,631.697,632.19,632.419,637.557,space,5.097,,637.558,44,1,638.562,638.562,641.7,space,3.116,,0,16,16,16,1,160,115,,,,,,,,
,,6174ecffb39d40681e51eca2,65af56614ec9136d74dc74d0,2024-01-23_08h03.27.082,bars,2023.2.3,Linux x86_64,61.57635468,657b66ea316d21385b68909f,,,,,,,,,,,641.703,642.693,,,643.17,643.416,,140,-40,,,,,,,,,,,,,,,,bars/023.png,bars/mask002.png,,,,,,,,,,,,0,2,,,,,,,10,4,10,3,,,,,,,,,,,642.693,643.17,643.416,648.567,space,5.131,,648.567,60,25,649.556,649.557,660.509,space,10.904,,0,17,17,17,1,20,115,,,,,,,,
,,6174ecffb39d40681e51eca2,65af56614ec9136d74dc74d0,2024-01-23_08h03.27.082,bars,2023.2.3,Linux x86_64,61.57635468,657b66ea316d21385b68909f,,,,,,,,,,,660.51,661.51,,,661.99,662.242,,160,160,,,,,,,,,,,,,,,,bars/044.png,bars/mask001.png,,,,,,,,,,,,2,2,,,,,,,10,2,10,2,,,,,,,,,,,661.51,661.99,662.243,665.161,space,2.88,,665.161,85,5,666.139,666.139,667.56,space,1.374,,0,18,18,18,1,75,155,,,,,,,,
,,6174ecffb39d40681e51eca2,65af56614ec9136d74dc74d0,2024-01-23_08h03.27.082,bars,2023.2.3,Linux x86_64,61.57635468,657b66ea316d21385b68909f,,,,,,,,,,,667.56,668.564,,,669.058,669.287,,94,94,,,,,,,,,,,,,,,,bars/027.png,bars/mask005.png,,,,,,,,,,,,4,1,,,,,,,8,4,9,4,,,,,,,,,,,668.564,669.058,669.287,671.647,space,2.348,,671.647,16,44,672.642,672.642,676.202,space,3.505,,0,19,19,19,1,110,50,,,,,,,,
,,6174ecffb39d40681e51eca2,65af56614ec9136d74dc74d0,2024-01-23_08h03.27.082,bars,2023.2.3,Linux x86_64,61.57635468,657b66ea316d21385b68909f,,,,,,,,,,,676.204,677.212,,,677.698,677.971,,20,200,,,,,,,,,,,,,,,,bars/041.png,bars/mask001.png,,,,,,,,,,,,10,1,,,,,,,10,2,10,3,,,,,,,,,,,677.213,677.698,677.971,682.196,space,4.184,,682.196,0,65,683.209,683.209,684.798,space,1.494,,0,20,20,20,1,20,85,,,,,,,,
,,6174ecffb39d40681e51eca2,65af56614ec9136d74dc74d0,2024-01-23_08h03.27.082,bars,2023.2.3,Linux x86_64,61.57635468,657b66ea316d21385b68909f,,,,,,,,,,,684.799,685.765,,,686.244,686.484,,131,131,,,,,,,,,,,,,,,,bars/017.png,bars/mask001.png,,,,,,,,,,,,5,1,,,,,,,10,0,9,0,,,,,,,,,,,685.765,686.244,686.484,690.841,space,4.323,,690.841,14,86,691.854,691.854,693.721,space,1.814,,0,21,21,21,1,145,45,,,,,,,,
,,6174ecffb39d40681e51eca2,65af56614ec9136d74dc74d0,2024-01-23_08h03.27.082,bars,2023.2.3,Linux x86_64,61.57635468,657b66ea316d21385b68909f,,,,,,,,,,,693.722,694.724,,,695.223,695.501,,46,46,,,,,,,,,,,,,,,,bars/043.png,bars/mask007.png,,,,,,,,,,,,3,1,,,,,,,8,0,7,0,,,,,,,,,,,694.724,695.223,695.502,700.153,space,4.639,,700.153,16,84,701.163,701.163,704.912,space,3.731,,0,22,22,22,1,30,130,,,,,,,,
,,6174ecffb39d40681e51eca2,65af56614ec9136d74dc74d0,2024-01-23_08h03.27.082,bars,2023.2.3,Linux x86_64,61.57635468,657b66ea316d21385b68909f,,,,,,,,,,,704.913,705.907,,,706.387,706.631,,40,220,,,,,,,,,,,,,,,,bars/012.png,bars/mask003.png,,,,,,,,,,,,0,2,,,,,,,6,0,4,0,,,,,,,,,,,705.907,706.387,706.631,714.022,space,7.382,,714.023,50,25,715.033,715.033,716.334,space,1.25,,0,23,23,23,1,90,15,,,,,,,,
,,6174ecffb39d40681e51eca2,65af56614ec9136d74dc74d0,2024-01-23_08h03.27.082,bars,2023.2.3,Linux x86_64,61.57635468,657b66ea316d21385b68909f,,,,,,,,,,,716.335,717.302,,,717.821,718.059,,64,64,,,,,,,,,,,,,,,,bars/039.png,bars/mask004.png,,,,,,,,,,,,0,2,,,,,,,8,0,8,0,,,,,,,,,,,717.303,717.821,718.06,721.325,space,3.248,,721.325,69,41,722.297,722.323,723.484,space,1.091,,0,24,24,24,1,175,105,,,,,,,,
,,6174ecffb39d40681e51eca2,65af56614ec9136d74dc74d0,2024-01-23_08h03.27.082,bars,2023.2.3,Linux x86_64,61.57635468,657b66ea316d21385b68909f,,,,,,,,,,,723.487,724.499,,,725.016,725.251,,175,-5,,,,,,,,,,,,,,,,bars/032.png,bars/mask007.png,,,,,,,,,,,,0,2,,,,,,,6,0,5,0,,,,,,,,,,,724.5,725.015,725.252,730.396,space,5.136,,730.396,50,25,731.397,731.398,732.693,space,1.25,,0,25,25,25,1,125,20,,,,,,,,
,,6174ecffb39d40681e51eca2,65af56614ec9136d74dc74d0,2024-01-23_08h03.27.082,bars,2023.2.3,Linux x86_64,61.57635468,657b66ea316d21385b68909f,,,,,,,,,,,732.694,733.709,,,734.23,734.444,,145,145,,,,,,,,,,,,,,,,bars/008.png,bars/mask001.png,,,,,,,,,,,,0,2,,,,,,,8,2,7,4,,,,,,,,,,,733.709,734.23,734.444,736.345,space,1.837,,736.346,35,35,737.354,737.354,738.836,space,1.393,,0,26,26,26,1,110,0,,,,,,,,
,,6174ecffb39d40681e51eca2,65af56614ec9136d74dc74d0,2024-01-23_08h03.27.082,bars,2023.2.3,Linux x86_64,61.57635468,657b66ea316d21385b68909f,,,,,,,,,,,738.837,739.846,,,740.325,740.567,,152,152,,,,,,,,,,,,,,,,bars/036.png,bars/mask002.png,,,,,,,,,,,,5,1,,,,,,,6,0,6,1,,,,,,,,,,,739.846,740.325,740.567,743.843,space,3.269,,743.844,7,48,744.838,744.838,747.105,space,2.123,,0,27,27,27,1,145,20,,,,,,,,
,,6174ecffb39d40681e51eca2,65af56614ec9136d74dc74d0,2024-01-23_08h03.27.082,bars,2023.2.3,Linux x86_64,61.57635468,657b66ea316d21385b68909f,,,,,,,,,,,747.106,748.102,,,748.629,748.867,,72,72,,,,,,,,,,,,,,,,bars/012.png,bars/mask003.png,,,,,,,,,,,,2,1,,,,,,,4,2,4,3,,,,,,,,,,,748.102,748.629,748.867,754.888,space,6.008,,754.889,18,57,755.89,755.891,757.076,space,1.116,,0,28,28,28,1,90,15,,,,,,,,
,,6174ecffb39d40681e51eca2,65af56614ec9136d74dc74d0,2024-01-23_08h03.27.082,bars,2023.2.3,Linux x86_64,61.57635468,657b66ea316d21385b68909f,,,,,,,,,,,757.077,758.044,,,758.535,758.772,,170,-10,,,,,,,,,,,,,,,,bars/040.png,bars/mask009.png,,,,,,,,,,,,0,2,,,,,,,2,0,2,0,,,,,,,,,,,758.044,758.535,758.772,764.668,space,5.855,,764.668,30,15,765.67,765.671,767.35,space,1.629,,0,29,29,29,1,140,5,,,,,,,,
,,6174ecffb39d40681e51eca2,65af56614ec9136d74dc74d0,2024-01-23_08h03.27.082,bars,2023.2.3,Linux x86_64,61.57635468,657b66ea316d21385b68909f,,,,,,,,,,,767.35,768.354,,,768.856,769.121,,97,97,,,,,,,,,,,,,,,,bars/047.png,bars/mask007.png,,,,,,,,,,,,0,2,,,,,,,4,0,4,0,,,,,,,,,,,768.355,768.856,769.122,771.489,space,2.362,,771.489,82,27,772.486,772.486,773.164,space,0.624,,0,30,30,30,1,15,70,,,,,,,,
,,6174ecffb39d40681e51eca2,65af56614ec9136d74dc74d0,2024-01-23_08h03.27.082,bars,2023.2.3,Linux x86_64,61.57635468,657b66ea316d21385b68909f,,,,,,,,,,,773.171,774.166,,,774.648,774.89,,168,168,,,,,,,,,,,,,,,,bars/035.png,bars/mask005.png,,,,,,,,,,,,0,1,,,,,,,2,0,0,0,,,,,,,,,,,774.166,774.645,774.89,777.766,space,2.865,,777.766,7,72,778.823,778.823,779.696,space,0.774,,0,31,31,31,1,175,60,,,,,,,,
,,6174ecffb39d40681e51eca2,65af56614ec9136d74dc74d0,2024-01-23_08h03.27.082,bars,2023.2.3,Linux x86_64,61.57635468,657b66ea316d21385b68909f,,,,,,,,,,,779.701,780.701,,,781.189,781.43,,55,55,,,,,,,,,,,,,,,,bars/026.png,bars/mask009.png,,,,,,,,,,,,0,1,,,,,,,0,0,0,0,,,,,,,,,,,780.701,781.189,781.43,785.3,space,3.807,,785.303,20,30,786.316,786.317,790.158,space,3.789,,0,32,32,32,1,35,85,,,,,,,,
,,6174ecffb39d40681e51eca2,65af56614ec9136d74dc74d0,2024-01-23_08h03.27.082,bars,2023.2.3,Linux x86_64,61.57635468,657b66ea316d21385b68909f,,,,,,,,,,,790.16,791.158,,,791.686,791.928,,163,-17,,,,,,,,,,,,,,,,bars/000.png,bars/mask004.png,,,,,,,,,,,,1,2,,,,,,,0,2,0,3,,,,,,,,,,,791.159,791.686,791.928,797.019,space,5.085,,797.019,57,18,797.994,797.994,798.984,space,0.895,,0,33,33,33,1,40,145,,,,,,,,
,,6174ecffb39d40681e51eca2,65af56614ec9136d74dc74d0,2024-01-23_08h03.27.082,bars,2023.2.3,Linux x86_64,61.57635468,657b66ea316d21385b68909f,,,,,,,,,,,798.985,799.954,,,800.435,800.662,,38,38,,,,,,,,,,,,,,,,bars/010.png,bars/mask003.png,,,,,,,,,,,,2,2,,,,,,,2,4,0,4,,,,,,,,,,,799.954,800.435,800.662,801.874,space,1.203,,801.874,53,17,802.866,802.867,803.73,space,0.819,,0,34,34,34,1,165,55,,,,,,,,
,,6174ecffb39d40681e51eca2,65af56614ec9136d74dc74d0,2024-01-23_08h03.27.082,bars,2023.2.3,Linux x86_64,61.57635468,657b66ea316d21385b68909f,,,,,,,,,,,803.731,804.742,,,805.243,805.509,,46,46,,,,,,,,,,,,,,,,bars/012.png,bars/mask003.png,,,,,,,,,,,,0,2,,,,,,,4,6,5,5,,,,,,,,,,,804.742,805.243,805.51,806.897,space,1.345,,806.898,44,31,807.906,807.906,807.92,space,0.001,,0,35,35,35,1,90,15,,,,,,,,
,,6174ecffb39d40681e51eca2,65af56614ec9136d74dc74d0,2024-01-23_08h03.27.082,bars,2023.2.3,Linux x86_64,61.57635468,657b66ea316d21385b68909f,,,,,,,,,,,807.921,808.889,,,809.365,809.638,,147,147,,,,,,,,,,,,,,,,bars/032.png,bars/mask003.png,,,,,,,,,,,,2,1,,,,,,,6,4,6,3,,,,,,,,,,,808.889,809.365,809.638,813.154,space,3.502,,813.155,22,53,814.153,814.154,814.39,space,0.158,,0,36,36,36,1,125,20,,,,,,,,
,,6174ecffb39d40681e51eca2,65af56614ec9136d74dc74d0,2024-01-23_08h03.27.082,bars,2023.2.3,Linux x86_64,61.57635468,657b66ea316d21385b68909f,,,,,,,,,,,814.391,815.366,,,815.846,816.083,,146,146,,,,,,,,,,,,,,,,bars/023.png,bars/mask005.png,,,,,,,,,,,,0,2,,,,,,,4,6,4,6,,,,,,,,,,,815.366,815.846,816.083,819.241,space,3.122,,819.242,54,31,820.25,820.25,821.109,space,0.797,,0,37,37,37,1,20,115,,,,,,,,
,,6174ecffb39d40681e51eca2,65af56614ec9136d74dc74d0,2024-01-23_08h03.27.082,bars,2023.2.3,Linux x86_64,61.57635468,657b66ea316d21385b68909f,,,,,,,,,,,821.111,822.12,,,822.647,822.89,,152,152,,,,,,,,,,,,,,,,bars/025.png,bars/mask002.png,,,,,,,,,,,,0,1,,,,,,,2,8,2,8,,,,,,,,,,,822.12,822.647,822.89,824.383,space,1.481,,824.383,47,68,825.379,825.379,826.781,space,1.348,,0,38,38,38,1,105,40,,,,,,,,
,,6174ecffb39d40681e51eca2,65af56614ec9136d74dc74d0,2024-01-23_08h03.27.082,bars,2023.2.3,Linux x86_64,61.57635468,657b66ea316d21385b68909f,,,,,,,,,,,826.781,827.78,,,828.273,828.518,,102,102,,,,,,,,,,,,,,,,bars/049.png,bars/mask009.png,,,,,,,,,,,,6,2,,,,,,,4,10,4,10,,,,,,,,,,,827.78,828.273,828.518,835.616,space,7.07,,835.616,58,13,836.613,836.614,838.736,space,2.053,,0,39,39,39,1,160,115,,,,,,,,
,,6174ecffb39d40681e51eca2,65af56614ec9136d74dc74d0,2024-01-23_08h03.27.082,bars,2023.2.3,Linux x86_64,61.57635468,657b66ea316d21385b68909f,,,,,,,,,,,838.772,839.747,,,840.23,840.471,,53,53,,,,,,,,,,,,,,,,bars/047.png,bars/mask007.png,,,,,,,,,,,,3,2,,,,,,,2,8,3,8,,,,,,,,,,,839.748,840.23,840.471,845.741,space,5.228,,845.742,38,17,846.712,846.738,848.68,space,1.881,,0,40,40,40,1,15,70,,,,,,,,
,,6174ecffb39d40681e51eca2,65af56614ec9136d74dc74d0,2024-01-23_08h03.27.082,bars,2023.2.3,Linux x86_64,61.57635468,657b66ea316d21385b68909f,,,,,,,,,,,848.71,849.685,,,850.198,850.435,,25,205,,,,,,,,,,,,,,,,bars/048.png,bars/mask005.png,,,,,,,,,,,,1,1,,,,,,,4,6,4,6,,,,,,,,,,,849.685,850.197,850.435,854.381,space,3.885,,854.382,25,30,855.385,855.385,855.731,space,0.28,,0,41,41,41,1,50,175,,,,,,,,
,,6174ecffb39d40681e51eca2,65af56614ec9136d74dc74d0,2024-01-23_08h03.27.082,bars,2023.2.3,Linux x86_64,61.57635468,657b66ea316d21385b68909f,,,,,,,,,,,855.732,856.729,,,857.219,857.468,,161,-19,,,,,,,,,,,,,,,,bars/003.png,bars/mask008.png,,,,,,,,,,,,3,2,,,,,,,6,8,4,10,,,,,,,,,,,856.729,857.219,857.468,863.256,space,5.742,,863.257,44,21,864.223,864.223,865.038,space,0.754,,0,42,42,42,1,25,140,,,,,,,,
,,6174ecffb39d40681e51eca2,65af56614ec9136d74dc74d0,2024-01-23_08h03.27.082,bars,2023.2.3,Linux x86_64,61.57635468,657b66ea316d21385b68909f,,,,,,,,,,,865.038,866.033,,,866.52,866.774,,160,160,,,,,,,,,,,,,,,,bars/037.png,bars/mask004.png,,,,,,,,,,,,5,1,,,,,,,8,10,8,10,,,,,,,,,,,866.033,866.519,866.774,868.397,space,1.588,,868.397,10,55,869.396,869.396,870.612,space,1.157,,0,43,43,43,1,150,105,,,,,,,,
,,6174ecffb39d40681e51eca2,65af56614ec9136d74dc74d0,2024-01-23_08h03.27.082,bars,2023.2.3,Linux x86_64,61.57635468,657b66ea316d21385b68909f,,,,,,,,,,,870.645,871.623,,,872.134,872.373,,80,80,,,,,,,,,,,,,,,,bars/038.png,bars/mask000.png,,,,,,,,,,,,7,2,,,,,,,6,10,5,10,,,,,,,,,,,871.623,872.134,872.374,875.023,space,2.601,,875.024,85,10,876.025,876.026,876.273,space,0.11,,0,44,44,44,1,165,70,,,,,,,,
,,6174ecffb39d40681e51eca2,65af56614ec9136d74dc74d0,2024-01-23_08h03.27.082,bars,2023.2.3,Linux x86_64,61.57635468,657b66ea316d21385b68909f,,,,,,,,,,,876.275,877.275,,,877.797,878.042,,143,143,,,,,,,,,,,,,,,,bars/041.png,bars/mask008.png,,,,,,,,,,,,0,1,,,,,,,4,10,4,10,,,,,,,,,,,877.275,877.797,878.042,885.199,space,7.141,,885.199,57,58,886.166,886.167,887.079,space,0.832,,0,45,45,45,1,20,85,,,,,,,,
,,6174ecffb39d40681e51eca2,65af56614ec9136d74dc74d0,2024-01-23_08h03.27.082,bars,2023.2.3,Linux x86_64,61.57635468,657b66ea316d21385b68909f,,,,,,,,,,,887.08,888.071,,,888.601,888.836,,17,197,,,,,,,,,,,,,,,,bars/017.png,bars/mask001.png,,,,,,,,,,,,1,2,,,,,,,6,10,6,9,,,,,,,,,,,888.071,888.6,888.836,893.492,space,4.611,,893.493,52,28,894.502,894.502,895.369,space,0.807,,0,46,46,46,1,145,45,,,,,,,,
,,6174ecffb39d40681e51eca2,65af56614ec9136d74dc74d0,2024-01-23_08h03.27.082,bars,2023.2.3,Linux x86_64,61.57635468,657b66ea316d21385b68909f,,,,,,,,,,,895.371,896.374,,,896.864,897.095,,119,119,,,,,,,,,,,,,,,,bars/004.png,bars/mask006.png,,,,,,,,,,,,6,2,,,,,,,4,8,2,8,,,,,,,,,,,896.374,896.863,897.095,900.996,space,3.891,,900.996,86,6,901.99,901.99,902.755,space,0.681,,0,47,47,47,1,25,125,,,,,,,,
,,6174ecffb39d40681e51eca2,65af56614ec9136d74dc74d0,2024-01-23_08h03.27.082,bars,2023.2.3,Linux x86_64,61.57635468,657b66ea316d21385b68909f,,,,,,,,,,,902.756,903.733,,,904.251,904.497,,148,148,,,,,,,,,,,,,,,,bars/029.png,bars/mask002.png,,,,,,,,,,,,0,1,,,,,,,6,10,6,10,,,,,,,,,,,903.734,904.25,904.498,905.682,space,1.149,,905.682,58,77,906.662,906.663,907.277,space,0.528,,0,48,48,48,1,90,45,,,,,,,,
,,6174ecffb39d40681e51eca2,65af56614ec9136d74dc74d0,2024-01-23_08h03.27.082,bars,2023.2.3,Linux x86_64,61.57635468,657b66ea316d21385b68909f,,,,,,,,,,,907.278,908.276,,,908.807,909.042,,46,46,,,,,,,,,,,,,,,,bars/034.png,bars/mask001.png,,,,,,,,,,,,4,2,,,,,,,4,10,6,10,,,,,,,,,,,908.277,908.807,909.042,910.933,space,1.877,,910.935,79,19,911.932,911.932,918.742,space,6.795,,0,49,49,49,1,125,65,,,,,,,,
,,6174ecffb39d40681e51eca2,65af56614ec9136d74dc74d0,2024-01-23_08h03.27.082,bars,2023.2.3,Linux x86_64,61.57635468,657b66ea316d21385b68909f,,,,,,,,,,,,,,,,,,,,,,,,,,,,,,,,,,,,,,,,,,,,,,,,,,,,,,,,,,,,,,,,,,,,,,,,,,,,,,,,,,,,,,,,,,,,,918.742,978.74,0,0,0,0,1,sequence_tables/blk008.csv
,,6174ecffb39d40681e51eca2,65af56614ec9136d74dc74d0,2024-01-23_08h03.27.082,bars,2023.2.3,Linux x86_64,61.57635468,657b66ea316d21385b68909f,,,,,,,,,,,980.768,981.729,,,982.219,982.458,,21,21,,,,,,,,,,,,,,,,bars/001.png,bars/mask001.png,,,,,,,,,,,,0,2,,,,,,,1,9,1,9,,,,,,978.753,980.727,space,1.928,,981.73,982.219,982.459,984.935,space,2.404,,984.935,71,64,985.906,985.907,985.911,,,,0,0,0,0,1,130,85,,,,,,,,
,,6174ecffb39d40681e51eca2,65af56614ec9136d74dc74d0,2024-01-23_08h03.27.082,bars,2023.2.3,Linux x86_64,61.57635468,657b66ea316d21385b68909f,,,,,,,,,,,985.912,986.902,,,987.427,987.669,,131,131,,,,,,,,,,,,,,,,bars/004.png,bars/mask006.png,,,,,,,,,,,,8,2,,,,,,,0,10,1,10,,,,,,,,,,,986.903,987.427,987.669,990.464,space,2.785,,990.464,74,6,991.472,991.472,991.476,,,,0,1,1,1,1,25,125,,,,,,,,
,,6174ecffb39d40681e51eca2,65af56614ec9136d74dc74d0,2024-01-23_08h03.27.082,bars,2023.2.3,Linux x86_64,61.57635468,657b66ea316d21385b68909f,,,,,,,,,,,991.478,992.472,,,993.001,993.238,,55,55,,,,,,,,,,,,,,,,bars/030.png,bars/mask002.png,,,,,,,,,,,,5,2,,,,,,,0,8,0,8,,,,,,,,,,,992.472,993.001,993.239,995.654,space,2.354,,995.654,85,10,996.652,996.653,996.662,,,,0,2,2,2,1,140,65,,,,,,,,
,,6174ecffb39d40681e51eca2,65af56614ec9136d74dc74d0,2024-01-23_08h03.27.082,bars,2023.2.3,Linux x86_64,61.57635468,657b66ea316d21385b68909f,,,,,,,,,,,996.667,997.662,,,998.146,998.388,,85,85,,,,,,,,,,,,,,,,bars/011.png,bars/mask006.png,,,,,,,,,,,,9,2,,,,,,,2,10,1,9,,,,,,,,,,,997.662,998.146,998.389,1001.215,space,2.792,,1001.215,75,0,1002.215,1002.215,1002.221,,,,0,3,3,3,1,160,85,,,,,,,,
,,6174ecffb39d40681e51eca2,65af56614ec9136d74dc74d0,2024-01-23_08h03.27.082,bars,2023.2.3,Linux x86_64,61.57635468,657b66ea316d21385b68909f,,,,,,,,,,,1002.222,1003.227,,,1003.71,1003.946,,34,34,,,,,,,,,,,,,,,,bars/044.png,bars/mask007.png,,,,,,,,,,,,0,1,,,,,,,0,10,0,10,,,,,,,,,,,1003.229,1003.71,1003.946,1008.416,space,4.455,,1008.416,41,59,1009.409,1009.409,1009.415,,,,0,4,4,4,1,75,155,,,,,,,,
,,6174ecffb39d40681e51eca2,65af56614ec9136d74dc74d0,2024-01-23_08h03.27.082,bars,2023.2.3,Linux x86_64,61.57635468,657b66ea316d21385b68909f,,,,,,,,,,,1009.416,1010.418,,,1010.902,1011.154,,36,216,,,,,,,,,,,,,,,,bars/041.png,bars/mask007.png,,,,,,,,,,,,0,1,,,,,,,0,10,1,9,,,,,,,,,,,1010.418,1010.901,1011.154,1016.237,space,5.073,,1016.237,16,49,1017.237,1017.237,1017.239,,,,0,5,5,5,1,20,85,,,,,,,,
,,6174ecffb39d40681e51eca2,65af56614ec9136d74dc74d0,2024-01-23_08h03.27.082,bars,2023.2.3,Linux x86_64,61.57635468,657b66ea316d21385b68909f,,,,,,,,,,,1017.239,1018.259,,,1018.776,1019.012,,142,142,,,,,,,,,,,,,,,,bars/015.png,bars/mask009.png,,,,,,,,,,,,4,2,,,,,,,2,10,2,9,,,,,,,,,,,1018.259,1018.776,1019.012,1020.332,space,1.304,,1020.332,32,18,1021.335,1021.335,1021.367,,,,0,6,6,6,1,110,160,,,,,,,,
,,6174ecffb39d40681e51eca2,65af56614ec9136d74dc74d0,2024-01-23_08h03.27.082,bars,2023.2.3,Linux x86_64,61.57635468,657b66ea316d21385b68909f,,,,,,,,,,,1021.368,1022.372,,,1022.856,1023.103,,30,30,,,,,,,,,,,,,,,,bars/015.png,bars/mask004.png,,,,,,,,,,,,0,2,,,,,,,0,8,0,8,,,,,,,,,,,1022.372,1022.856,1023.103,1024.79,space,1.675,,1024.79,80,50,1025.782,1025.782,1025.785,,,,0,7,7,7,1,110,160,,,,,,,,
,,6174ecffb39d40681e51eca2,65af56614ec9136d74dc74d0,2024-01-23_08h03.27.082,bars,2023.2.3,Linux x86_64,61.57635468,657b66ea316d21385b68909f,,,,,,,,,,,1025.786,1026.794,,,1027.282,1027.517,,157,157,,,,,,,,,,,,,,,,bars/031.png,bars/mask006.png,,,,,,,,,,,,0,1,,,,,,,0,10,0,9,,,,,,,,,,,1026.794,1027.282,1027.518,1032.692,space,5.129,,1032.693,37,58,1033.703,1033.703,1033.709,,,,0,8,8,8,1,120,35,,,,,,,,
,,6174ecffb39d40681e51eca2,65af56614ec9136d74dc74d0,2024-01-23_08h03.27.082,bars,2023.2.3,Linux x86_64,61.57635468,657b66ea316d21385b68909f,,,,,,,,,,,1033.71,1034.668,,,1035.158,1035.404,,66,66,,,,,,,,,,,,,,,,bars/037.png,bars/mask008.png,,,,,,,,,,,,0,2,,,,,,,2,10,3,10,,,,,,,,,,,1034.668,1035.158,1035.404,1038.22,space,2.742,,1038.223,84,39,1039.223,1039.223,1039.234,,,,0,9,9,9,1,150,105,,,,,,,,
,,6174ecffb39d40681e51eca2,65af56614ec9136d74dc74d0,2024-01-23_08h03.27.082,bars,2023.2.3,Linux x86_64,61.57635468,657b66ea316d21385b68909f,,,,,,,,,,,1039.236,1040.228,,,1040.754,1041.015,,114,114,,,,,,,,,,,,,,,,bars/011.png,bars/mask009.png,,,,,,,,,,,,0,2,,,,,,,4,10,4,10,,,,,,,,,,,1040.228,1040.754,1041.015,1042.483,space,1.397,,1042.483,46,29,1043.46,1043.46,1043.465,,,,0,10,10,10,1,160,85,,,,,,,,
,,6174ecffb39d40681e51eca2,65af56614ec9136d74dc74d0,2024-01-23_08h03.27.082,bars,2023.2.3,Linux x86_64,61.57635468,657b66ea316d21385b68909f,,,,,,,,,,,1043.466,1044.456,,,1044.983,1045.22,,119,119,,,,,,,,,,,,,,,,bars/018.png,bars/mask001.png,,,,,,,,,,,,0,2,,,,,,,2,10,3,10,,,,,,,,,,,1044.456,1044.983,1045.22,1052.854,space,7.622,,1052.854,31,29,1053.864,1053.864,1053.868,,,,0,11,11,11,1,150,90,,,,,,,,
,,6174ecffb39d40681e51eca2,65af56614ec9136d74dc74d0,2024-01-23_08h03.27.082,bars,2023.2.3,Linux x86_64,61.57635468,657b66ea316d21385b68909f,,,,,,,,,,,1053.869,1054.874,,,1055.4,1055.646,,54,54,,,,,,,,,,,,,,,,bars/047.png,bars/mask004.png,,,,,,,,,,,,4,2,,,,,,,4,8,4,8,,,,,,,,,,,1054.874,1055.4,1055.647,1057.321,space,1.631,,1057.322,39,16,1058.329,1058.329,1058.331,,,,0,12,12,12,1,15,70,,,,,,,,
,,6174ecffb39d40681e51eca2,65af56614ec9136d74dc74d0,2024-01-23_08h03.27.082,bars,2023.2.3,Linux x86_64,61.57635468,657b66ea316d21385b68909f,,,,,,,,,,,1058.332,1059.332,,,1059.83,1060.096,,51,51,,,,,,,,,,,,,,,,bars/004.png,bars/mask008.png,,,,,,,,,,,,0,1,,,,,,,2,10,2,9,,,,,,,,,,,1059.332,1059.83,1060.097,1061.413,space,1.306,,1061.413,26,74,1062.415,1062.416,1062.456,,,,0,13,13,13,1,25,125,,,,,,,,
,,6174ecffb39d40681e51eca2,65af56614ec9136d74dc74d0,2024-01-23_08h03.27.082,bars,2023.2.3,Linux x86_64,61.57635468,657b66ea316d21385b68909f,,,,,,,,,,,1062.457,1063.463,,,1063.986,1064.231,,84,84,,,,,,,,,,,,,,,,bars/009.png,bars/mask007.png,,,,,,,,,,,,3,2,,,,,,,4,10,5,10,,,,,,,,,,,1063.463,1063.985,1064.231,1070.135,space,5.853,,1070.135,69,21,1071.106,1071.106,1071.142,,,,0,14,14,14,1,15,105,,,,,,,,
,,6174ecffb39d40681e51eca2,65af56614ec9136d74dc74d0,2024-01-23_08h03.27.082,bars,2023.2.3,Linux x86_64,61.57635468,657b66ea316d21385b68909f,,,,,,,,,,,1071.144,1072.146,,,1072.637,1072.887,,90,90,,,,,,,,,,,,,,,,bars/021.png,bars/mask002.png,,,,,,,,,,,,3,2,,,,,,,6,8,6,9,,,,,,,,,,,1072.146,1072.637,1072.887,1076.952,space,4.031,,1076.952,65,20,1077.956,1077.956,1077.958,,,,0,15,15,15,1,155,70,,,,,,,,
,,6174ecffb39d40681e51eca2,65af56614ec9136d74dc74d0,2024-01-23_08h03.27.082,bars,2023.2.3,Linux x86_64,61.57635468,657b66ea316d21385b68909f,,,,,,,,,,,1077.959,1078.962,,,1079.454,1079.732,,102,102,,,,,,,,,,,,,,,,bars/028.png,bars/mask000.png,,,,,,,,,,,,3,2,,,,,,,4,6,3,7,,,,,,,,,,,1078.962,1079.453,1079.733,1084.536,space,4.757,,1084.536,57,18,1085.538,1085.538,1085.541,,,,0,16,16,16,1,45,120,,,,,,,,
,,6174ecffb39d40681e51eca2,65af56614ec9136d74dc74d0,2024-01-23_08h03.27.082,bars,2023.2.3,Linux x86_64,61.57635468,657b66ea316d21385b68909f,,,,,,,,,,,1085.541,1086.516,,,1087.028,1087.281,,171,171,,,,,,,,,,,,,,,,bars/040.png,bars/mask003.png,,,,,,,,,,,,3,2,,,,,,,6,4,7,6,,,,,,,,,,,1086.516,1087.027,1087.281,1091.415,space,4.122,,1091.415,31,14,1092.417,1092.417,1092.42,,,,0,17,17,17,1,140,5,,,,,,,,
,,6174ecffb39d40681e51eca2,65af56614ec9136d74dc74d0,2024-01-23_08h03.27.082,bars,2023.2.3,Linux x86_64,61.57635468,657b66ea316d21385b68909f,,,,,,,,,,,1092.421,1093.418,,,1093.912,1094.179,,147,147,,,,,,,,,,,,,,,,bars/018.png,bars/mask005.png,,,,,,,,,,,,7,1,,,,,,,8,2,8,2,,,,,,,,,,,1093.419,1093.912,1094.179,1095.909,space,1.686,,1095.909,3,57,1096.882,1096.882,1096.886,,,,0,18,18,18,1,150,90,,,,,,,,
,,6174ecffb39d40681e51eca2,65af56614ec9136d74dc74d0,2024-01-23_08h03.27.082,bars,2023.2.3,Linux x86_64,61.57635468,657b66ea316d21385b68909f,,,,,,,,,,,1096.887,1097.89,,,1098.406,1098.648,,167,167,,,,,,,,,,,,,,,,bars/048.png,bars/mask004.png,,,,,,,,,,,,2,2,,,,,,,10,4,10,3,,,,,,,,,,,1097.89,1098.406,1098.648,1103.211,space,4.553,,1103.211,63,8,1104.216,1104.216,1104.225,,,,0,19,19,19,1,50,175,,,,,,,,
,,6174ecffb39d40681e51eca2,65af56614ec9136d74dc74d0,2024-01-23_08h03.27.082,bars,2023.2.3,Linux x86_64,61.57635468,657b66ea316d21385b68909f,,,,,,,,,,,1104.226,1105.222,,,1105.748,1105.993,,26,26,,,,,,,,,,,,,,,,bars/015.png,bars/mask008.png,,,,,,,,,,,,0,2,,,,,,,10,6,10,6,,,,,,,,,,,1105.222,1105.748,1105.993,1107.679,space,1.634,,1107.68,84,46,1108.644,1108.644,1108.649,,,,0,20,20,20,1,110,160,,,,,,,,
,,6174ecffb39d40681e51eca2,65af56614ec9136d74dc74d0,2024-01-23_08h03.27.082,bars,2023.2.3,Linux x86_64,61.57635468,657b66ea316d21385b68909f,,,,,,,,,,,1108.675,1109.682,,,1110.18,1110.422,,79,79,,,,,,,,,,,,,,,,bars/001.png,bars/mask007.png,,,,,,,,,,,,3,2,,,,,,,10,4,9,4,,,,,,,,,,,1109.683,1110.18,1110.423,1111.613,space,1.157,,1111.613,51,6,1112.61,1112.61,1112.614,,,,0,21,21,21,1,130,85,,,,,,,,
,,6174ecffb39d40681e51eca2,65af56614ec9136d74dc74d0,2024-01-23_08h03.27.082,bars,2023.2.3,Linux x86_64,61.57635468,657b66ea316d21385b68909f,,,,,,,,,,,1112.615,1113.623,,,1114.101,1114.354,,123,123,,,,,,,,,,,,,,,,bars/023.png,bars/mask008.png,,,,,,,,,,,,5,2,,,,,,,10,6,10,7,,,,,,,,,,,1113.623,1114.1,1114.354,1117.032,space,2.671,,1117.033,77,8,1118.039,1118.04,1118.053,,,,0,22,22,22,1,20,115,,,,,,,,
,,6174ecffb39d40681e51eca2,65af56614ec9136d74dc74d0,2024-01-23_08h03.27.082,bars,2023.2.3,Linux x86_64,61.57635468,657b66ea316d21385b68909f,,,,,,,,,,,1118.056,1119.046,,,1119.528,1119.773,,131,131,,,,,,,,,,,,,,,,bars/048.png,bars/mask006.png,,,,,,,,,,,,0,2,,,,,,,8,4,7,4,,,,,,,,,,,1119.046,1119.528,1119.773,1120.824,space,1.046,,1120.824,81,44,1121.8,1121.8,1121.826,,,,0,23,23,23,1,50,175,,,,,,,,
,,6174ecffb39d40681e51eca2,65af56614ec9136d74dc74d0,2024-01-23_08h03.27.082,bars,2023.2.3,Linux x86_64,61.57635468,657b66ea316d21385b68909f,,,,,,,,,,,1121.826,1122.799,,,1123.272,1123.512,,134,134,,,,,,,,,,,,,,,,bars/010.png,bars/mask000.png,,,,,,,,,,,,0,1,,,,,,,6,6,6,6,,,,,,,,,,,1122.799,1123.271,1123.513,1124.712,space,1.185,,1124.712,31,79,1125.719,1125.719,1125.722,,,,0,24,24,24,1,165,55,,,,,,,,
,,6174ecffb39d40681e51eca2,65af56614ec9136d74dc74d0,2024-01-23_08h03.27.082,bars,2023.2.3,Linux x86_64,61.57635468,657b66ea316d21385b68909f,,,,,,,,,,,1125.723,1126.729,,,1127.256,1127.495,,108,108,,,,,,,,,,,,,,,,bars/006.png,bars/mask007.png,,,,,,,,,,,,6,2,,,,,,,4,8,4,8,,,,,,,,,,,1126.73,1127.256,1127.495,1132.436,space,4.886,,1132.436,73,8,1133.443,1133.443,1133.447,,,,0,25,25,25,1,35,100,,,,,,,,
,,6174ecffb39d40681e51eca2,65af56614ec9136d74dc74d0,2024-01-23_08h03.27.082,bars,2023.2.3,Linux x86_64,61.57635468,657b66ea316d21385b68909f,,,,,,,,,,,1133.447,1134.459,,,1134.978,1135.221,,74,74,,,,,,,,,,,,,,,,bars/042.png,bars/mask002.png,,,,,,,,,,,,6,2,,,,,,,6,6,4,6,,,,,,,,,,,1134.46,1134.953,1135.222,1136.824,space,1.579,,1136.824,71,1,1137.824,1137.825,1137.87,,,,0,26,26,26,1,145,75,,,,,,,,
,,6174ecffb39d40681e51eca2,65af56614ec9136d74dc74d0,2024-01-23_08h03.27.082,bars,2023.2.3,Linux x86_64,61.57635468,657b66ea316d21385b68909f,,,,,,,,,,,1137.873,1138.869,,,1139.4,1139.651,,105,105,,,,,,,,,,,,,,,,bars/028.png,bars/mask002.png,,,,,,,,,,,,4,2,,,,,,,4,8,3,8,,,,,,,,,,,1138.869,1139.4,1139.652,1142.136,space,2.418,,1142.137,60,15,1143.144,1143.144,1143.15,,,,0,27,27,27,1,45,120,,,,,,,,
,,6174ecffb39d40681e51eca2,65af56614ec9136d74dc74d0,2024-01-23_08h03.27.082,bars,2023.2.3,Linux x86_64,61.57635468,657b66ea316d21385b68909f,,,,,,,,,,,1143.151,1144.149,,,1144.63,1144.873,,11,11,,,,,,,,,,,,,,,,bars/015.png,bars/mask008.png,,,,,,,,,,,,0,2,,,,,,,6,6,7,5,,,,,,,,,,,1144.149,1144.629,1144.873,1146.982,space,2.102,,1146.982,81,31,1147.99,1147.99,1148.001,,,,0,28,28,28,1,110,160,,,,,,,,
,,6174ecffb39d40681e51eca2,65af56614ec9136d74dc74d0,2024-01-23_08h03.27.082,bars,2023.2.3,Linux x86_64,61.57635468,657b66ea316d21385b68909f,,,,,,,,,,,1148.003,1149.007,,,1149.527,1149.763,,143,143,,,,,,,,,,,,,,,,bars/024.png,bars/mask001.png,,,,,,,,,,,,1,1,,,,,,,4,8,5,9,,,,,,,,,,,1149.007,1149.526,1149.763,1152.843,space,3.069,,1152.843,23,27,1153.844,1153.844,1153.852,,,,0,29,29,29,1,120,170,,,,,,,,
,,6174ecffb39d40681e51eca2,65af56614ec9136d74dc74d0,2024-01-23_08h03.27.082,bars,2023.2.3,Linux x86_64,61.57635468,657b66ea316d21385b68909f,,,,,,,,,,,1153.853,1154.855,,,1155.345,1155.591,,97,97,,,,,,,,,,,,,,,,bars/025.png,bars/mask007.png,,,,,,,,,,,,4,1,,,,,,,6,6,5,5,,,,,,,,,,,1154.855,1155.345,1155.591,1157.111,space,1.461,,1157.111,8,57,1158.085,1158.085,1158.087,,,,0,30,30,30,1,105,40,,,,,,,,
,,6174ecffb39d40681e51eca2,65af56614ec9136d74dc74d0,2024-01-23_08h03.27.082,bars,2023.2.3,Linux x86_64,61.57635468,657b66ea316d21385b68909f,,,,,,,,,,,1158.087,1159.083,,,1159.603,1159.843,,118,118,,,,,,,,,,,,,,,,bars/027.png,bars/mask003.png,,,,,,,,,,,,2,1,,,,,,,4,8,3,10,,,,,,,,,,,1159.083,1159.603,1159.843,1162.297,space,2.44,,1162.297,8,68,1163.301,1163.301,1163.312,,,,0,31,31,31,1,110,50,,,,,,,,
,,6174ecffb39d40681e51eca2,65af56614ec9136d74dc74d0,2024-01-23_08h03.27.082,bars,2023.2.3,Linux x86_64,61.57635468,657b66ea316d21385b68909f,,,,,,,,,,,1163.313,1164.264,,,1164.752,1164.996,,48,48,,,,,,,,,,,,,,,,bars/028.png,bars/mask008.png,,,,,,,,,,,,4,1,,,,,,,2,6,4,7,,,,,,,,,,,1164.264,1164.752,1164.997,1167.77,space,2.741,,1167.771,3,72,1168.77,1168.771,1168.782,,,,0,32,32,32,1,45,120,,,,,,,,
,,6174ecffb39d40681e51eca2,65af56614ec9136d74dc74d0,2024-01-23_08h03.27.082,bars,2023.2.3,Linux x86_64,61.57635468,657b66ea316d21385b68909f,,,,,,,,,,,1168.784,1169.782,,,1170.308,1170.558,,70,70,,,,,,,,,,,,,,,,bars/046.png,bars/mask002.png,,,,,,,,,,,,4,2,,,,,,,0,8,0,8,,,,,,,,,,,1169.782,1170.308,1170.558,1172.631,space,2.062,,1172.631,85,15,1173.628,1173.628,1173.667,,,,0,33,33,33,1,155,85,,,,,,,,
,,6174ecffb39d40681e51eca2,65af56614ec9136d74dc74d0,2024-01-23_08h03.27.082,bars,2023.2.3,Linux x86_64,61.57635468,657b66ea316d21385b68909f,,,,,,,,,,,1173.668,1174.647,,,1175.118,1175.371,,36,216,,,,,,,,,,,,,,,,bars/014.png,bars/mask009.png,,,,,,,,,,,,0,2,,,,,,,2,6,2,7,,,,,,,,,,,1174.647,1175.118,1175.371,1180.922,space,5.518,,1180.922,44,36,1181.928,1181.929,1181.94,,,,0,34,34,34,1,80,0,,,,,,,,
,,6174ecffb39d40681e51eca2,65af56614ec9136d74dc74d0,2024-01-23_08h03.27.082,bars,2023.2.3,Linux x86_64,61.57635468,657b66ea316d21385b68909f,,,,,,,,,,,1181.942,1182.931,,,1183.422,1183.625,,5,185,,,,,,,,,,,,,,,,bars/002.png,bars/mask004.png,,,,,,,,,,,,0,1,,,,,,,0,4,1,4,,,,,,,,,,,1182.931,1183.422,1183.626,1186.258,space,2.591,,1186.258,55,80,1187.257,1187.258,1187.314,,,,0,35,35,35,1,130,85,,,,,,,,
,,6174ecffb39d40681e51eca2,65af56614ec9136d74dc74d0,2024-01-23_08h03.27.082,bars,2023.2.3,Linux x86_64,61.57635468,657b66ea316d21385b68909f,,,,,,,,,,,1187.316,1188.315,,,1188.787,1189.033,,131,131,,,,,,,,,,,,,,,,bars/046.png,bars/mask008.png,,,,,,,,,,,,0,1,,,,,,,0,6,0,4,,,,,,,,,,,1188.315,1188.786,1189.033,1192.449,space,3.363,,1192.449,24,46,1193.456,1193.456,1193.457,,,,0,36,36,36,1,155,85,,,,,,,,
,,6174ecffb39d40681e51eca2,65af56614ec9136d74dc74d0,2024-01-23_08h03.27.082,bars,2023.2.3,Linux x86_64,61.57635468,657b66ea316d21385b68909f,,,,,,,,,,,1193.457,1194.463,,,1194.981,1195.224,,166,-14,,,,,,,,,,,,,,,,bars/044.png,bars/mask001.png,,,,,,,,,,,,3,2,,,,,,,2,4,2,5,,,,,,,,,,,1194.463,1194.981,1195.224,1197.584,space,2.345,,1197.585,89,11,1198.583,1198.584,1198.597,,,,0,37,37,37,1,75,155,,,,,,,,
,,6174ecffb39d40681e51eca2,65af56614ec9136d74dc74d0,2024-01-23_08h03.27.082,bars,2023.2.3,Linux x86_64,61.57635468,657b66ea316d21385b68909f,,,,,,,,,,,1198.598,1199.591,,,1200.083,1200.311,,54,54,,,,,,,,,,,,,,,,bars/038.png,bars/mask007.png,,,,,,,,,,,,3,2,,,,,,,4,6,5,6,,,,,,,,,,,1199.594,1200.082,1200.311,1202.096,space,1.775,,1202.096,69,16,1203.091,1203.091,1203.094,,,,0,38,38,38,1,165,70,,,,,,,,
,,6174ecffb39d40681e51eca2,65af56614ec9136d74dc74d0,2024-01-23_08h03.27.082,bars,2023.2.3,Linux x86_64,61.57635468,657b66ea316d21385b68909f,,,,,,,,,,,1203.095,1204.072,,,1204.551,1204.78,,86,86,,,,,,,,,,,,,,,,bars/006.png,bars/mask003.png,,,,,,,,,,,,4,2,,,,,,,2,8,1,8,,,,,,,,,,,1204.072,1204.551,1204.78,1206.746,space,1.958,,1206.746,51,14,1207.749,1207.751,1207.756,,,,0,39,39,39,1,35,100,,,,,,,,
,,6174ecffb39d40681e51eca2,65af56614ec9136d74dc74d0,2024-01-23_08h03.27.082,bars,2023.2.3,Linux x86_64,61.57635468,657b66ea316d21385b68909f,,,,,,,,,,,1207.757,1208.764,,,1209.286,1209.528,,151,151,,,,,,,,,,,,,,,,bars/004.png,bars/mask003.png,,,,,,,,,,,,1,2,,,,,,,0,10,0,10,,,,,,,,,,,1208.764,1209.285,1209.528,1211.462,space,1.92,,1211.462,54,26,1212.457,1212.457,1212.463,,,,0,40,40,40,1,25,125,,,,,,,,
,,6174ecffb39d40681e51eca2,65af56614ec9136d74dc74d0,2024-01-23_08h03.27.082,bars,2023.2.3,Linux x86_64,61.57635468,657b66ea316d21385b68909f,,,,,,,,,,,1212.466,1213.462,,,1213.957,1214.204,,38,218,,,,,,,,,,,,,,,,bars/028.png,bars/mask009.png,,,,,,,,,,,,1,1,,,,,,,0,8,1,10,,,,,,,,,,,1213.463,1213.957,1214.204,1217.879,space,3.607,,1217.88,7,82,1218.853,1218.854,1218.888,,,,0,41,41,41,1,45,120,,,,,,,,
,,6174ecffb39d40681e51eca2,65af56614ec9136d74dc74d0,2024-01-23_08h03.27.082,bars,2023.2.3,Linux x86_64,61.57635468,657b66ea316d21385b68909f,,,,,,,,,,,1218.888,1219.898,,,1220.422,1220.671,,11,191,,,,,,,,,,,,,,,,bars/012.png,bars/mask008.png,,,,,,,,,,,,9,2,,,,,,,0,10,0,10,,,,,,,,,,,1219.898,1220.422,1220.671,1222.965,space,2.263,,1222.966,79,4,1223.971,1223.971,1223.975,,,,0,42,42,42,1,90,15,,,,,,,,
,,6174ecffb39d40681e51eca2,65af56614ec9136d74dc74d0,2024-01-23_08h03.27.082,bars,2023.2.3,Linux x86_64,61.57635468,657b66ea316d21385b68909f,,,,,,,,,,,1223.976,1224.993,,,1225.509,1225.749,,97,97,,,,,,,,,,,,,,,,bars/019.png,bars/mask002.png,,,,,,,,,,,,7,2,,,,,,,2,10,2,10,,,,,,,,,,,1224.993,1225.509,1225.749,1227.529,space,1.765,,1227.529,52,8,1228.503,1228.503,1228.506,,,,0,43,43,43,1,45,105,,,,,,,,
,,6174ecffb39d40681e51eca2,65af56614ec9136d74dc74d0,2024-01-23_08h03.27.082,bars,2023.2.3,Linux x86_64,61.57635468,657b66ea316d21385b68909f,,,,,,,,,,,1228.506,1229.501,,,1230.022,1230.262,,84,84,,,,,,,,,,,,,,,,bars/009.png,bars/mask008.png,,,,,,,,,,,,3,2,,,,,,,0,8,1,9,,,,,,,,,,,1229.501,1230.021,1230.262,1233.779,space,3.502,,1233.782,69,21,1234.776,1234.776,1234.781,,,,0,44,44,44,1,15,105,,,,,,,,
,,6174ecffb39d40681e51eca2,65af56614ec9136d74dc74d0,2024-01-23_08h03.27.082,bars,2023.2.3,Linux x86_64,61.57635468,657b66ea316d21385b68909f,,,,,,,,,,,1234.782,1235.784,,,1236.267,1236.507,,53,53,,,,,,,,,,,,,,,,bars/045.png,bars/mask006.png,,,,,,,,,,,,0,2,,,,,,,0,10,0,10,,,,,,,,,,,1235.784,1236.267,1236.508,1240.635,space,4.117,,1240.635,47,43,1241.64,1241.64,1241.647,,,,0,45,45,45,1,100,10,,,,,,,,
,,6174ecffb39d40681e51eca2,65af56614ec9136d74dc74d0,2024-01-23_08h03.27.082,bars,2023.2.3,Linux x86_64,61.57635468,657b66ea316d21385b68909f,,,,,,,,,,,1241.647,1242.646,,,1243.131,1243.417,,24,24,,,,,,,,,,,,,,,,bars/025.png,bars/mask005.png,,,,,,,,,,,,5,2,,,,,,,0,10,0,10,,,,,,,,,,,1242.646,1243.13,1243.417,1244.857,space,1.424,,1244.857,81,16,1245.833,1245.833,1245.866,,,,0,46,46,46,1,105,40,,,,,,,,
,,6174ecffb39d40681e51eca2,65af56614ec9136d74dc74d0,2024-01-23_08h03.27.082,bars,2023.2.3,Linux x86_64,61.57635468,657b66ea316d21385b68909f,,,,,,,,,,,1245.869,1246.876,,,1247.364,1247.603,,68,68,,,,,,,,,,,,,,,,bars/011.png,bars/mask004.png,,,,,,,,,,,,3,2,,,,,,,0,8,0,8,,,,,,,,,,,1246.876,1247.364,1247.603,1251.391,space,3.779,,1251.391,88,17,1252.39,1252.39,1252.396,,,,0,47,47,47,1,160,85,,,,,,,,
,,6174ecffb39d40681e51eca2,65af56614ec9136d74dc74d0,2024-01-23_08h03.27.082,bars,2023.2.3,Linux x86_64,61.57635468,657b66ea316d21385b68909f,,,,,,,,,,,1252.397,1253.398,,,1253.895,1254.166,,150,150,,,,,,,,,,,,,,,,bars/028.png,bars/mask004.png,,,,,,,,,,,,0,2,,,,,,,0,6,0,7,,,,,,,,,,,1253.398,1253.895,1254.166,1256.665,space,2.484,,1256.665,75,30,1257.64,1257.64,1257.667,,,,0,48,48,48,1,45,120,,,,,,,,
,,6174ecffb39d40681e51eca2,65af56614ec9136d74dc74d0,2024-01-23_08h03.27.082,bars,2023.2.3,Linux x86_64,61.57635468,657b66ea316d21385b68909f,,,,,,,,,,,1257.668,1258.642,,,1259.157,1259.4,,118,118,,,,,,,,,,,,,,,,bars/046.png,bars/mask006.png,,,,,,,,,,,,0,2,,,,,,,2,4,3,5,,,,,,,,,,,1258.642,1259.157,1259.4,1260.453,space,1.047,,1260.453,37,33,1261.462,1261.462,1261.464,,,,0,49,49,49,1,155,85,,,,,,,,
,,6174ecffb39d40681e51eca2,65af56614ec9136d74dc74d0,2024-01-23_08h03.27.082,bars,2023.2.3,Linux x86_64,61.57635468,657b66ea316d21385b68909f,,,,,,,,,,,,,,,,,,,,,,,,,,,,,,,,,,,,,,,,,,,,,,,,,,,,,,,,,,,,,,,,,,,,,,,,,,,,,,,,,,,,,,,,,,,,,1261.465,1321.469,0,1,1,4,1,sequence_tables/blk003.csv
,,6174ecffb39d40681e51eca2,65af56614ec9136d74dc74d0,2024-01-23_08h03.27.082,bars,2023.2.3,Linux x86_64,61.57635468,657b66ea316d21385b68909f,,,,,,,,,,,1325.782,1326.695,,,1327.183,1327.364,,30,30,,,,,,,,,,,,,,,,bars/024.png,bars/mask003.png,,,,,,,,,,,,0,2,,,,,,,1,3,2,3,,,,,,1321.524,1325.691,space,4.131,,1326.695,1327.183,1327.364,1330.36,space,2.973,,1330.36,90,40,1331.346,1331.347,1331.351,,,,0,0,0,0,1,120,170,,,,,,,,
,,6174ecffb39d40681e51eca2,65af56614ec9136d74dc74d0,2024-01-23_08h03.27.082,bars,2023.2.3,Linux x86_64,61.57635468,657b66ea316d21385b68909f,,,,,,,,,,,1331.353,1332.361,,,1332.854,1333.09,,57,57,,,,,,,,,,,,,,,,bars/047.png,bars/mask000.png,,,,,,,,,,,,3,2,,,,,,,3,5,4,6,,,,,,,,,,,1332.362,1332.854,1333.09,1337.301,space,4.142,,1337.301,42,13,1338.317,1338.317,1338.32,,,,0,1,1,1,1,15,70,,,,,,,,
,,6174ecffb39d40681e51eca2,65af56614ec9136d74dc74d0,2024-01-23_08h03.27.082,bars,2023.2.3,Linux x86_64,61.57635468,657b66ea316d21385b68909f,,,,,,,,,,,1338.321,1339.283,,,1339.755,1339.993,,73,73,,,,,,,,,,,,,,,,bars/046.png,bars/mask000.png,,,,,,,,,,,,2,2,,,,,,,1,3,2,3,,,,,,,,,,,1339.283,1339.755,1339.993,1341.391,space,1.39,,1341.391,82,12,1342.388,1342.388,1342.394,,,,0,2,2,2,1,155,85,,,,,,,,
,,6174ecffb39d40681e51eca2,65af56614ec9136d74dc74d0,2024-01-23_08h03.27.082,bars,2023.2.3,Linux x86_64,61.57635468,657b66ea316d21385b68909f,,,,,,,,,,,1342.396,1343.398,,,1343.887,1344.164,,177,177,,,,,,,,,,,,,,,,bars/032.png,bars/mask001.png,,,,,,,,,,,,0,2,,,,,,,0,1,1,1,,,,,,,,,,,1343.398,1343.886,1344.165,1346.95,space,2.775,,1346.951,52,23,1347.921,1347.921,1347.925,,,,0,3,3,3,1,125,20,,,,,,,,
,,6174ecffb39d40681e51eca2,65af56614ec9136d74dc74d0,2024-01-23_08h03.27.082,bars,2023.2.3,Linux x86_64,61.57635468,657b66ea316d21385b68909f,,,,,,,,,,,1347.926,1348.962,,,1349.441,1349.689,,69,69,,,,,,,,,,,,,,,,bars/007.png,bars/mask002.png,,,,,,,,,,,,2,2,,,,,,,2,3,1,3,,,,,,,,,,,1348.962,1349.441,1349.689,1351.189,space,1.491,,1351.19,74,14,1352.179,1352.179,1352.181,,,,0,4,4,4,1,175,55,,,,,,,,
,,6174ecffb39d40681e51eca2,65af56614ec9136d74dc74d0,2024-01-23_08h03.27.082,bars,2023.2.3,Linux x86_64,61.57635468,657b66ea316d21385b68909f,,,,,,,,,,,1352.181,1353.189,,,1353.688,1353.955,,46,46,,,,,,,,,,,,,,,,bars/001.png,bars/mask001.png,,,,,,,,,,,,0,2,,,,,,,4,1,3,1,,,,,,,,,,,1353.189,1353.688,1353.955,1356.655,space,2.685,,1356.656,84,39,1357.655,1357.656,1357.669,,,,0,5,5,5,1,130,85,,,,,,,,
,,6174ecffb39d40681e51eca2,65af56614ec9136d74dc74d0,2024-01-23_08h03.27.082,bars,2023.2.3,Linux x86_64,61.57635468,657b66ea316d21385b68909f,,,,,,,,,,,1357.67,1358.665,,,1359.143,1359.391,,73,253,,,,,,,,,,,,,,,,bars/038.png,bars/mask004.png,,,,,,,,,,,,2,2,,,,,,,6,3,5,2,,,,,,,,,,,1358.665,1359.143,1359.392,1364.279,space,4.852,,1364.279,88,3,1365.333,1365.333,1365.343,,,,0,6,6,6,1,165,70,,,,,,,,
,,6174ecffb39d40681e51eca2,65af56614ec9136d74dc74d0,2024-01-23_08h03.27.082,bars,2023.2.3,Linux x86_64,61.57635468,657b66ea316d21385b68909f,,,,,,,,,,,1365.344,1366.342,,,1366.831,1367.075,,12,12,,,,,,,,,,,,,,,,bars/048.png,bars/mask007.png,,,,,,,,,,,,2,2,,,,,,,4,5,5,4,,,,,,,,,,,1366.343,1366.831,1367.075,1368.217,space,1.077,,1368.217,38,17,1369.224,1369.224,1369.227,,,,0,7,7,7,1,50,175,,,,,,,,
,,6174ecffb39d40681e51eca2,65af56614ec9136d74dc74d0,2024-01-23_08h03.27.082,bars,2023.2.3,Linux x86_64,61.57635468,657b66ea316d21385b68909f,,,,,,,,,,,1369.228,1370.231,,,1370.727,1370.968,,41,221,,,,,,,,,,,,,,,,bars/031.png,bars/mask004.png,,,,,,,,,,,,6,2,,,,,,,6,7,7,8,,,,,,,,,,,1370.231,1370.727,1370.972,1375.432,space,4.42,,1375.433,79,6,1376.421,1376.421,1376.425,,,,0,8,8,8,1,120,35,,,,,,,,
,,6174ecffb39d40681e51eca2,65af56614ec9136d74dc74d0,2024-01-23_08h03.27.082,bars,2023.2.3,Linux x86_64,61.57635468,657b66ea316d21385b68909f,,,,,,,,,,,1376.425,1377.438,,,1377.922,1378.194,,107,107,,,,,,,,,,,,,,,,bars/026.png,bars/mask003.png,,,,,,,,,,,,2,2,,,,,,,4,9,5,8,,,,,,,,,,,1377.438,1377.922,1378.195,1379.785,space,1.573,,1379.786,72,22,1380.787,1380.787,1380.79,,,,0,9,9,9,1,35,85,,,,,,,,
,,6174ecffb39d40681e51eca2,65af56614ec9136d74dc74d0,2024-01-23_08h03.27.082,bars,2023.2.3,Linux x86_64,61.57635468,657b66ea316d21385b68909f,,,,,,,,,,,1380.79,1381.768,,,1382.274,1382.517,,60,60,,,,,,,,,,,,,,,,bars/042.png,bars/mask006.png,,,,,,,,,,,,5,2,,,,,,,6,10,6,10,,,,,,,,,,,1381.768,1382.274,1382.517,1383.815,space,1.251,,1383.815,85,15,1384.793,1384.793,1384.795,,,,0,10,10,10,1,145,75,,,,,,,,
,,6174ecffb39d40681e51eca2,65af56614ec9136d74dc74d0,2024-01-23_08h03.27.082,bars,2023.2.3,Linux x86_64,61.57635468,657b66ea316d21385b68909f,,,,,,,,,,,1384.796,1385.781,,,1386.261,1386.501,,4,184,,,,,,,,,,,,,,,,bars/040.png,bars/mask007.png,,,,,,,,,,,,9,2,,,,,,,8,8,9,9,,,,,,,,,,,1385.781,1386.261,1386.501,1388.284,space,1.768,,1388.284,44,1,1389.256,1389.256,1389.291,,,,0,11,11,11,1,140,5,,,,,,,,
,,6174ecffb39d40681e51eca2,65af56614ec9136d74dc74d0,2024-01-23_08h03.27.082,bars,2023.2.3,Linux x86_64,61.57635468,657b66ea316d21385b68909f,,,,,,,,,,,1389.294,1390.264,,,1390.744,1390.979,,21,21,,,,,,,,,,,,,,,,bars/029.png,bars/mask004.png,,,,,,,,,,,,2,2,,,,,,,6,6,5,8,,,,,,,,,,,1390.264,1390.744,1390.979,1392.223,space,1.21,,1392.224,69,24,1393.218,1393.218,1393.22,,,,0,12,12,12,1,90,45,,,,,,,,
,,6174ecffb39d40681e51eca2,65af56614ec9136d74dc74d0,2024-01-23_08h03.27.082,bars,2023.2.3,Linux x86_64,61.57635468,657b66ea316d21385b68909f,,,,,,,,,,,1393.221,1394.196,,,1394.712,1394.964,,24,24,,,,,,,,,,,,,,,,bars/045.png,bars/mask001.png,,,,,,,,,,,,3,2,,,,,,,4,4,4,5,,,,,,,,,,,1394.196,1394.712,1394.964,1396.246,space,1.275,,1396.246,76,14,1397.227,1397.227,1397.261,,,,0,13,13,13,1,100,10,,,,,,,,
,,6174ecffb39d40681e51eca2,65af56614ec9136d74dc74d0,2024-01-23_08h03.27.082,bars,2023.2.3,Linux x86_64,61.57635468,657b66ea316d21385b68909f,,,,,,,,,,,1397.261,1398.267,,,1398.743,1398.931,,94,94,,,,,,,,,,,,,,,,bars/028.png,bars/mask008.png,,,,,,,,,,,,1,2,,,,,,,6,6,6,7,,,,,,,,,,,1398.268,1398.74,1398.931,1400.474,space,1.489,,1400.475,49,26,1401.476,1401.476,1401.479,,,,0,14,14,14,1,45,120,,,,,,,,
,,6174ecffb39d40681e51eca2,65af56614ec9136d74dc74d0,2024-01-23_08h03.27.082,bars,2023.2.3,Linux x86_64,61.57635468,657b66ea316d21385b68909f,,,,,,,,,,,1401.48,1402.456,,,1402.933,1403.17,,49,49,,,,,,,,,,,,,,,,bars/047.png,bars/mask008.png,,,,,,,,,,,,1,2,,,,,,,8,4,8,3,,,,,,,,,,,1402.456,1402.933,1403.17,1404.739,space,1.53,0.001,1404.739,34,21,1405.754,1405.754,1405.763,,,,0,15,15,15,1,15,70,,,,,,,,
,,6174ecffb39d40681e51eca2,65af56614ec9136d74dc74d0,2024-01-23_08h03.27.082,bars,2023.2.3,Linux x86_64,61.57635468,657b66ea316d21385b68909f,,,,,,,,,,,1405.764,1406.758,,,1407.286,1407.539,,80,80,,,,,,,,,,,,,,,,bars/010.png,bars/mask006.png,,,,,,,,,,,,1,2,,,,,,,10,6,10,4,,,,,,,,,,,1406.758,1407.286,1407.539,1409.593,space,2.017,,1409.593,85,25,1410.6,1410.6,1410.603,,,,0,16,16,16,1,165,55,,,,,,,,
,,6174ecffb39d40681e51eca2,65af56614ec9136d74dc74d0,2024-01-23_08h03.27.082,bars,2023.2.3,Linux x86_64,61.57635468,657b66ea316d21385b68909f,,,,,,,,,,,1410.604,1411.619,,,1412.133,1412.374,,172,-8,,,,,,,,,,,,,,,,bars/027.png,bars/mask004.png,,,,,,,,,,,,0,2,,,,,,,10,4,10,5,,,,,,,,,,,1411.619,1412.133,1412.375,1413.055,space,0.668,,1413.055,62,58,1414.055,1414.055,1414.058,,,,0,17,17,17,1,110,50,,,,,,,,
,,6174ecffb39d40681e51eca2,65af56614ec9136d74dc74d0,2024-01-23_08h03.27.082,bars,2023.2.3,Linux x86_64,61.57635468,657b66ea316d21385b68909f,,,,,,,,,,,1414.059,1415.122,,,1415.597,1415.834,,65,65,,,,,,,,,,,,,,,,bars/002.png,bars/mask008.png,,,,,,,,,,,,3,2,,,,,,,10,6,9,8,,,,,,,,,,,1415.122,1415.597,1415.834,1417.32,space,1.443,,1417.321,65,20,1418.326,1418.326,1418.336,,,,0,18,18,18,1,130,85,,,,,,,,
,,6174ecffb39d40681e51eca2,65af56614ec9136d74dc74d0,2024-01-23_08h03.27.082,bars,2023.2.3,Linux x86_64,61.57635468,657b66ea316d21385b68909f,,,,,,,,,,,1418.339,1419.334,,,1419.858,1420.103,,52,52,,,,,,,,,,,,,,,,bars/006.png,bars/mask009.png,,,,,,,,,,,,4,1,,,,,,,10,8,10,8,,,,,,,,,,,1419.334,1419.858,1420.103,1421.499,space,1.377,,1421.5,17,48,1422.501,1422.501,1422.506,,,,0,19,19,19,1,35,100,,,,,,,,
,,6174ecffb39d40681e51eca2,65af56614ec9136d74dc74d0,2024-01-23_08h03.27.082,bars,2023.2.3,Linux x86_64,61.57635468,657b66ea316d21385b68909f,,,,,,,,,,,1422.507,1423.476,,,1423.946,1424.189,,136,136,,,,,,,,,,,,,,,,bars/022.png,bars/mask004.png,,,,,,,,,,,,0,1,,,,,,,10,6,10,6,,,,,,,,,,,1423.477,1423.946,1424.189,1425.917,space,1.72,,1425.918,41,64,1426.934,1426.934,1426.963,,,,0,20,20,20,1,95,20,,,,,,,,
,,6174ecffb39d40681e51eca2,65af56614ec9136d74dc74d0,2024-01-23_08h03.27.082,bars,2023.2.3,Linux x86_64,61.57635468,657b66ea316d21385b68909f,,,,,,,,,,,1426.964,1427.973,,,1428.453,1428.692,,67,67,,,,,,,,,,,,,,,,bars/014.png,bars/mask004.png,,,,,,,,,,,,4,1,,,,,,,8,4,7,7,,,,,,,,,,,1427.973,1428.453,1428.692,1430.382,space,1.682,,1430.382,13,67,1431.383,1431.383,1431.386,,,,0,21,21,21,1,80,0,,,,,,,,
,,6174ecffb39d40681e51eca2,65af56614ec9136d74dc74d0,2024-01-23_08h03.27.082,bars,2023.2.3,Linux x86_64,61.57635468,657b66ea316d21385b68909f,,,,,,,,,,,1431.386,1432.398,,,1432.918,1433.159,,77,77,,,,,,,,,,,,,,,,bars/021.png,bars/mask001.png,,,,,,,,,,,,2,2,,,,,,,10,2,10,2,,,,,,,,,,,1432.398,1432.918,1433.16,1438.445,space,5.274,,1438.445,78,7,1439.442,1439.442,1439.493,,,,0,22,22,22,1,155,70,,,,,,,,
,,6174ecffb39d40681e51eca2,65af56614ec9136d74dc74d0,2024-01-23_08h03.27.082,bars,2023.2.3,Linux x86_64,61.57635468,657b66ea316d21385b68909f,,,,,,,,,,,1439.5,1440.503,,,1441.027,1441.274,,90,90,,,,,,,,,,,,,,,,bars/039.png,bars/mask000.png,,,,,,,,,,,,0,2,,,,,,,10,0,9,0,,,,,,,,,,,1440.503,1441.027,1441.275,1442.628,space,1.342,,1442.629,85,15,1443.618,1443.618,1443.62,,,,0,23,23,23,1,175,105,,,,,,,,
,,6174ecffb39d40681e51eca2,65af56614ec9136d74dc74d0,2024-01-23_08h03.27.082,bars,2023.2.3,Linux x86_64,61.57635468,657b66ea316d21385b68909f,,,,,,,,,,,1443.62,1444.626,,,1445.115,1445.346,,76,76,,,,,,,,,,,,,,,,bars/019.png,bars/mask009.png,,,,,,,,,,,,0,2,,,,,,,8,2,8,2,,,,,,,,,,,1444.626,1445.115,1445.346,1446.359,space,1.002,,1446.359,31,29,1447.334,1447.334,1447.371,,,,0,24,24,24,1,45,105,,,,,,,,
,,6174ecffb39d40681e51eca2,65af56614ec9136d74dc74d0,2024-01-23_08h03.27.082,bars,2023.2.3,Linux x86_64,61.57635468,657b66ea316d21385b68909f,,,,,,,,,,,1447.374,1448.375,,,1448.899,1449.14,,3,3,,,,,,,,,,,,,,,,bars/019.png,bars/mask007.png,,,,,,,,,,,,0,1,,,,,,,10,4,10,3,,,,,,,,,,,1448.375,1448.899,1449.14,1449.906,space,0.725,,1449.906,42,78,1450.92,1450.92,1450.974,,,,0,25,25,25,1,45,105,,,,,,,,
,,6174ecffb39d40681e51eca2,65af56614ec9136d74dc74d0,2024-01-23_08h03.27.082,bars,2023.2.3,Linux x86_64,61.57635468,657b66ea316d21385b68909f,,,,,,,,,,,1450.977,1451.974,,,1452.501,1452.741,,96,96,,,,,,,,,,,,,,,,bars/018.png,bars/mask000.png,,,,,,,,,,,,5,2,,,,,,,8,6,8,6,,,,,,,,,,,1451.974,1452.501,1452.741,1456.008,space,3.252,,1456.008,54,6,1457.009,1457.009,1457.013,,,,0,26,26,26,1,150,90,,,,,,,,
,,6174ecffb39d40681e51eca2,65af56614ec9136d74dc74d0,2024-01-23_08h03.27.082,bars,2023.2.3,Linux x86_64,61.57635468,657b66ea316d21385b68909f,,,,,,,,,,,1457.013,1458.022,,,1458.509,1458.741,,86,86,,,,,,,,,,,,,,,,bars/030.png,bars/mask000.png,,,,,,,,,,,,1,2,,,,,,,6,4,7,4,,,,,,,,,,,1458.023,1458.509,1458.742,1461.003,space,2.25,,1461.003,54,21,1462.005,1462.005,1462.008,,,,0,27,27,27,1,140,65,,,,,,,,
,,6174ecffb39d40681e51eca2,65af56614ec9136d74dc74d0,2024-01-23_08h03.27.082,bars,2023.2.3,Linux x86_64,61.57635468,657b66ea316d21385b68909f,,,,,,,,,,,1462.008,1463.017,,,1463.501,1463.743,,118,118,,,,,,,,,,,,,,,,bars/015.png,bars/mask000.png,,,,,,,,,,,,5,1,,,,,,,8,6,7,7,,,,,,,,,,,1463.017,1463.501,1463.743,1464.708,space,0.956,,1464.709,8,42,1465.746,1465.746,1465.801,,,,0,28,28,28,1,110,160,,,,,,,,
,,6174ecffb39d40681e51eca2,65af56614ec9136d74dc74d0,2024-01-23_08h03.27.082,bars,2023.2.3,Linux x86_64,61.57635468,657b66ea316d21385b68909f,,,,,,,,,,,1465.806,1466.807,,,1467.333,1467.578,,110,110,,,,,,,,,,,,,,,,bars/017.png,bars/mask008.png,,,,,,,,,,,,0,1,,,,,,,10,4,9,5,,,,,,,,,,,1466.809,1467.332,1467.578,1471.423,space,3.834,,1471.423,35,65,1472.421,1472.421,1472.426,,,,0,29,29,29,1,145,45,,,,,,,,
,,6174ecffb39d40681e51eca2,65af56614ec9136d74dc74d0,2024-01-23_08h03.27.082,bars,2023.2.3,Linux x86_64,61.57635468,657b66ea316d21385b68909f,,,,,,,,,,,1472.427,1473.433,,,1473.927,1474.16,,39,39,,,,,,,,,,,,,,,,bars/005.png,bars/mask001.png,,,,,,,,,,,,0,1,,,,,,,8,2,8,0,,,,,,,,,,,1473.433,1473.926,1474.16,1476.595,space,2.366,,1476.596,29,79,1477.573,1477.573,1477.576,,,,0,30,30,30,1,10,140,,,,,,,,
,,6174ecffb39d40681e51eca2,65af56614ec9136d74dc74d0,2024-01-23_08h03.27.082,bars,2023.2.3,Linux x86_64,61.57635468,657b66ea316d21385b68909f,,,,,,,,,,,1477.576,1478.566,,,1479.061,1479.286,,68,68,,,,,,,,,,,,,,,,bars/034.png,bars/mask004.png,,,,,,,,,,,,4,2,,,,,,,10,4,10,4,,,,,,,,,,,1478.566,1479.061,1479.287,1482.948,space,3.644,,1482.948,57,3,1483.945,1483.945,1483.951,,,,0,31,31,31,1,125,65,,,,,,,,
,,6174ecffb39d40681e51eca2,65af56614ec9136d74dc74d0,2024-01-23_08h03.27.082,bars,2023.2.3,Linux x86_64,61.57635468,657b66ea316d21385b68909f,,,,,,,,,,,1483.951,1484.955,,,1485.473,1485.684,,132,132,,,,,,,,,,,,,,,,bars/003.png,bars/mask002.png,,,,,,,,,,,,1,2,,,,,,,8,2,7,2,,,,,,,,,,,1484.955,1485.449,1485.684,1487.509,space,1.781,,1487.509,73,8,1488.505,1488.505,1488.507,,,,0,32,32,32,1,25,140,,,,,,,,
,,6174ecffb39d40681e51eca2,65af56614ec9136d74dc74d0,2024-01-23_08h03.27.082,bars,2023.2.3,Linux x86_64,61.57635468,657b66ea316d21385b68909f,,,,,,,,,,,1488.509,1489.509,,,1489.99,1490.229,,63,63,,,,,,,,,,,,,,,,bars/030.png,bars/mask005.png,,,,,,,,,,,,1,2,,,,,,,10,0,10,1,,,,,,,,,,,1489.51,1489.99,1490.229,1493.075,space,2.841,,1493.075,77,2,1494.071,1494.071,1494.074,,,,0,33,33,33,1,140,65,,,,,,,,
,,6174ecffb39d40681e51eca2,65af56614ec9136d74dc74d0,2024-01-23_08h03.27.082,bars,2023.2.3,Linux x86_64,61.57635468,657b66ea316d21385b68909f,,,,,,,,,,,1494.075,1495.08,,,1495.575,1495.803,,85,85,,,,,,,,,,,,,,,,bars/016.png,bars/mask002.png,,,,,,,,,,,,0,1,,,,,,,10,0,10,1,,,,,,,,,,,1495.08,1495.575,1495.803,1497.384,space,1.541,,1497.385,45,80,1498.398,1498.399,1498.437,,,,0,34,34,34,1,40,165,,,,,,,,
,,6174ecffb39d40681e51eca2,65af56614ec9136d74dc74d0,2024-01-23_08h03.27.082,bars,2023.2.3,Linux x86_64,61.57635468,657b66ea316d21385b68909f,,,,,,,,,,,1498.438,1499.448,,,1499.932,1500.169,,166,-14,,,,,,,,,,,,,,,,bars/001.png,bars/mask000.png,,,,,,,,,,,,0,1,,,,,,,8,2,8,2,,,,,,,,,,,1499.448,1499.932,1500.169,1502.23,space,2.023,,1502.232,36,81,1503.201,1503.201,1503.205,,,,0,35,35,35,1,130,85,,,,,,,,
,,6174ecffb39d40681e51eca2,65af56614ec9136d74dc74d0,2024-01-23_08h03.27.082,bars,2023.2.3,Linux x86_64,61.57635468,657b66ea316d21385b68909f,,,,,,,,,,,1503.205,1504.202,,,1504.689,1504.934,,45,45,,,,,,,,,,,,,,,,bars/005.png,bars/mask002.png,,,,,,,,,,,,0,1,,,,,,,6,0,6,1,,,,,,,,,,,1504.203,1504.689,1504.935,1506.022,space,1.049,,1506.022,35,85,1507.03,1507.03,1507.032,,,,0,36,36,36,1,10,140,,,,,,,,
,,6174ecffb39d40681e51eca2,65af56614ec9136d74dc74d0,2024-01-23_08h03.27.082,bars,2023.2.3,Linux x86_64,61.57635468,657b66ea316d21385b68909f,,,,,,,,,,,1507.033,1508.006,,,1508.517,1508.803,,24,24,,,,,,,,,,,,,,,,bars/036.png,bars/mask007.png,,,,,,,,,,,,2,2,,,,,,,8,2,9,2,,,,,,,,,,,1508.006,1508.517,1508.803,1511.651,space,2.824,,1511.651,59,4,1512.642,1512.642,1512.647,,,,0,37,37,37,1,145,20,,,,,,,,
,,6174ecffb39d40681e51eca2,65af56614ec9136d74dc74d0,2024-01-23_08h03.27.082,bars,2023.2.3,Linux x86_64,61.57635468,657b66ea316d21385b68909f,,,,,,,,,,,1512.647,1513.653,,,1514.148,1514.38,,125,125,,,,,,,,,,,,,,,,bars/044.png,bars/mask005.png,,,,,,,,,,,,0,2,,,,,,,10,4,10,6,,,,,,,,,,,1513.653,1514.148,1514.38,1517.402,space,3.007,,1517.402,50,30,1518.407,1518.407,1518.41,,,,0,38,38,38,1,75,155,,,,,,,,
,,6174ecffb39d40681e51eca2,65af56614ec9136d74dc74d0,2024-01-23_08h03.27.082,bars,2023.2.3,Linux x86_64,61.57635468,657b66ea316d21385b68909f,,,,,,,,,,,1518.41,1519.425,,,1519.939,1520.18,,94,94,,,,,,,,,,,,,,,,bars/012.png,bars/mask002.png,,,,,,,,,,,,8,1,,,,,,,10,6,9,5,,,,,,,,,,,1519.425,1519.938,1520.18,1524.12,space,3.889,,1524.12,4,79,1525.095,1525.096,1525.128,,,,0,39,39,39,1,90,15,,,,,,,,
,,6174ecffb39d40681e51eca2,65af56614ec9136d74dc74d0,2024-01-23_08h03.27.082,bars,2023.2.3,Linux x86_64,61.57635468,657b66ea316d21385b68909f,,,,,,,,,,,1525.128,1526.135,,,1526.62,1526.86,,81,81,,,,,,,,,,,,,,,,bars/018.png,bars/mask005.png,,,,,,,,,,,,2,2,,,,,,,10,4,10,3,,,,,,,,,,,1526.135,1526.62,1526.86,1528.743,space,1.877,,1528.743,69,9,1529.745,1529.746,1529.781,,,,0,40,40,40,1,150,90,,,,,,,,
,,6174ecffb39d40681e51eca2,65af56614ec9136d74dc74d0,2024-01-23_08h03.27.082,bars,2023.2.3,Linux x86_64,61.57635468,657b66ea316d21385b68909f,,,,,,,,,,,1529.786,1530.79,,,1531.318,1531.553,,103,103,,,,,,,,,,,,,,,,bars/039.png,bars/mask000.png,,,,,,,,,,,,2,2,,,,,,,10,2,10,2,,,,,,,,,,,1530.79,1531.318,1531.553,1532.809,space,1.239,,1532.809,72,2,1533.78,1533.78,1533.809,,,,0,41,41,41,1,175,105,,,,,,,,
,,6174ecffb39d40681e51eca2,65af56614ec9136d74dc74d0,2024-01-23_08h03.27.082,bars,2023.2.3,Linux x86_64,61.57635468,657b66ea316d21385b68909f,,,,,,,,,,,1533.81,1534.791,,,1535.297,1535.544,,44,44,,,,,,,,,,,,,,,,bars/038.png,bars/mask003.png,,,,,,,,,,,,0,2,,,,,,,8,0,7,0,,,,,,,,,,,1534.791,1535.297,1535.545,1536.988,space,1.43,,1536.988,59,26,1537.992,1537.992,1537.996,,,,0,42,42,42,1,165,70,,,,,,,,
,,6174ecffb39d40681e51eca2,65af56614ec9136d74dc74d0,2024-01-23_08h03.27.082,bars,2023.2.3,Linux x86_64,61.57635468,657b66ea316d21385b68909f,,,,,,,,,,,1537.997,1538.997,,,1539.525,1539.778,,64,64,,,,,,,,,,,,,,,,bars/037.png,bars/mask005.png,,,,,,,,,,,,0,2,,,,,,,6,0,5,1,,,,,,,,,,,1538.998,1539.524,1539.778,1540.686,space,0.823,,1540.686,86,41,1541.686,1541.686,1541.688,,,,0,43,43,43,1,150,105,,,,,,,,
,,6174ecffb39d40681e51eca2,65af56614ec9136d74dc74d0,2024-01-23_08h03.27.082,bars,2023.2.3,Linux x86_64,61.57635468,657b66ea316d21385b68909f,,,,,,,,,,,1541.689,1542.689,,,1543.19,1543.428,,177,-3,,,,,,,,,,,,,,,,bars/043.png,bars/mask008.png,,,,,,,,,,,,0,1,,,,,,,8,0,9,0,,,,,,,,,,,1542.689,1543.19,1543.429,1547.11,space,3.614,,1547.111,33,47,1548.124,1548.124,1548.162,,,,0,44,44,44,1,30,130,,,,,,,,
,,6174ecffb39d40681e51eca2,65af56614ec9136d74dc74d0,2024-01-23_08h03.27.082,bars,2023.2.3,Linux x86_64,61.57635468,657b66ea316d21385b68909f,,,,,,,,,,,1548.163,1549.175,,,1549.659,1549.938,,25,25,,,,,,,,,,,,,,,,bars/048.png,bars/mask004.png,,,,,,,,,,,,2,1,,,,,,,10,0,10,0,,,,,,,,,,,1549.175,1549.659,1549.938,1550.92,space,0.972,,1550.92,25,30,1551.91,1551.91,1551.915,,,,0,45,45,45,1,50,175,,,,,,,,
,,6174ecffb39d40681e51eca2,65af56614ec9136d74dc74d0,2024-01-23_08h03.27.082,bars,2023.2.3,Linux x86_64,61.57635468,657b66ea316d21385b68909f,,,,,,,,,,,1551.916,1552.915,,,1553.442,1553.686,,41,41,,,,,,,,,,,,,,,,bars/011.png,bars/mask007.png,,,,,,,,,,,,0,2,,,,,,,8,2,7,3,,,,,,,,,,,1552.916,1553.442,1553.686,1554.649,space,0.949,,1554.649,61,44,1555.653,1555.653,1555.656,,,,0,46,46,46,1,160,85,,,,,,,,
,,6174ecffb39d40681e51eca2,65af56614ec9136d74dc74d0,2024-01-23_08h03.27.082,bars,2023.2.3,Linux x86_64,61.57635468,657b66ea316d21385b68909f,,,,,,,,,,,1555.657,1556.66,,,1557.159,1557.431,,107,107,,,,,,,,,,,,,,,,bars/041.png,bars/mask002.png,,,,,,,,,,,,0,2,,,,,,,10,0,10,0,,,,,,,,,,,1556.66,1557.158,1557.431,1559.652,space,2.191,,1559.652,87,22,1560.645,1560.645,1560.647,,,,0,47,47,47,1,20,85,,,,,,,,
,,6174ecffb39d40681e51eca2,65af56614ec9136d74dc74d0,2024-01-23_08h03.27.082,bars,2023.2.3,Linux x86_64,61.57635468,657b66ea316d21385b68909f,,,,,,,,,,,1560.648,1561.655,,,1562.142,1562.379,,73,73,,,,,,,,,,,,,,,,bars/001.png,bars/mask000.png,,,,,,,,,,,,1,2,,,,,,,8,2,6,2,,,,,,,,,,,1561.655,1562.142,1562.38,1564.501,space,2.097,,1564.501,57,12,1565.497,1565.497,1565.504,,,,0,48,48,48,1,130,85,,,,,,,,
,,6174ecffb39d40681e51eca2,65af56614ec9136d74dc74d0,2024-01-23_08h03.27.082,bars,2023.2.3,Linux x86_64,61.57635468,657b66ea316d21385b68909f,,,,,,,,,,,1565.505,1566.462,,,1566.946,1567.223,,112,112,,,,,,,,,,,,,,,,bars/046.png,bars/mask004.png,,,,,,,,,,,,0,2,,,,,,,10,4,9,4,,,,,,,,,,,1566.462,1566.945,1567.223,1569.869,space,2.639,,1569.869,43,27,1570.872,1570.872,1570.879,,,,0,49,49,49,1,155,85,,,,,,,,
,,6174ecffb39d40681e51eca2,65af56614ec9136d74dc74d0,2024-01-23_08h03.27.082,bars,2023.2.3,Linux x86_64,61.57635468,657b66ea316d21385b68909f,,,,,,,,,,,,,,,,,,,,,,,,,,,,,,,,,,,,,,,,,,,,,,,,,,,,,,,,,,,,,,,,,,,,,,,,,,,,,,,,,,,,,,,,,,,,,1570.879,1630.839,0,2,2,2,1,sequence_tables/blk036.csv
,,6174ecffb39d40681e51eca2,65af56614ec9136d74dc74d0,2024-01-23_08h03.27.082,bars,2023.2.3,Linux x86_64,61.57635468,657b66ea316d21385b68909f,,,,,,,,,,,1634.052,1635.053,,,1635.541,1635.782,,82,82,,,,,,,,,,,,,,,,bars/002.png,bars/mask004.png,,,,,,,,,,,,4,2,,,,,,,3,2,6,4,,,,,,1630.87,1634.042,space,3.161,,1635.053,1635.541,1635.782,1641.722,space,5.898,,1641.722,48,3,1642.725,1642.726,1642.742,,,,0,0,0,0,1,130,85,,,,,,,,
,,6174ecffb39d40681e51eca2,65af56614ec9136d74dc74d0,2024-01-23_08h03.27.082,bars,2023.2.3,Linux x86_64,61.57635468,657b66ea316d21385b68909f,,,,,,,,,,,1642.772,1643.779,,,1644.263,1644.503,,138,138,,,,,,,,,,,,,,,,bars/042.png,bars/mask004.png,,,,,,,,,,,,1,1,,,,,,,1,4,1,4,,,,,,,,,,,1643.779,1644.262,1644.504,1645.894,space,1.38,,1645.895,7,63,1646.902,1646.902,1646.905,,,,0,1,1,1,1,145,75,,,,,,,,
,,6174ecffb39d40681e51eca2,65af56614ec9136d74dc74d0,2024-01-23_08h03.27.082,bars,2023.2.3,Linux x86_64,61.57635468,657b66ea316d21385b68909f,,,,,,,,,,,1646.905,1647.878,,,1648.351,1648.603,,21,21,,,,,,,,,,,,,,,,bars/000.png,bars/mask005.png,,,,,,,,,,,,1,1,,,,,,,3,6,4,5,,,,,,,,,,,1647.879,1648.35,1648.603,1649.832,space,1.169,,1649.832,19,56,1650.833,1650.834,1650.842,,,,0,2,2,2,1,40,145,,,,,,,,
,,6174ecffb39d40681e51eca2,65af56614ec9136d74dc74d0,2024-01-23_08h03.27.082,bars,2023.2.3,Linux x86_64,61.57635468,657b66ea316d21385b68909f,,,,,,,,,,,1650.843,1651.842,,,1652.342,1652.58,,132,132,,,,,,,,,,,,,,,,bars/041.png,bars/mask004.png,,,,,,,,,,,,0,2,,,,,,,5,4,5,4,,,,,,,,,,,1651.842,1652.342,1652.58,1654.588,space,1.974,,1654.589,68,47,1655.587,1655.587,1655.592,,,,0,3,3,3,1,20,85,,,,,,,,
,,6174ecffb39d40681e51eca2,65af56614ec9136d74dc74d0,2024-01-23_08h03.27.082,bars,2023.2.3,Linux x86_64,61.57635468,657b66ea316d21385b68909f,,,,,,,,,,,1655.593,1656.595,,,1657.082,1657.32,,72,72,,,,,,,,,,,,,,,,bars/017.png,bars/mask000.png,,,,,,,,,,,,1,2,,,,,,,3,6,3,6,,,,,,,,,,,1656.595,1657.082,1657.32,1660.253,space,2.925,,1660.253,73,27,1661.224,1661.249,1661.255,,,,0,4,4,4,1,145,45,,,,,,,,
,,6174ecffb39d40681e51eca2,65af56614ec9136d74dc74d0,2024-01-23_08h03.27.082,bars,2023.2.3,Linux x86_64,61.57635468,657b66ea316d21385b68909f,,,,,,,,,,,1661.256,1662.26,,,1662.739,1662.982,,145,145,,,,,,,,,,,,,,,,bars/033.png,bars/mask009.png,,,,,,,,,,,,5,2,,,,,,,5,8,4,8,,,,,,,,,,,1662.26,1662.739,1662.982,1665.351,space,2.358,,1665.352,60,10,1666.343,1666.343,1666.352,,,,0,5,5,5,1,25,155,,,,,,,,
,,6174ecffb39d40681e51eca2,65af56614ec9136d74dc74d0,2024-01-23_08h03.27.082,bars,2023.2.3,Linux x86_64,61.57635468,657b66ea316d21385b68909f,,,,,,,,,,,1666.352,1667.348,,,1667.837,1668.08,,49,49,,,,,,,,,,,,,,,,bars/031.png,bars/mask004.png,,,,,,,,,,,,3,2,,,,,,,3,6,2,6,,,,,,,,,,,1667.348,1667.836,1668.08,1670.763,space,2.646,,1670.763,71,14,1671.773,1671.773,1671.775,,,,0,6,6,6,1,120,35,,,,,,,,
,,6174ecffb39d40681e51eca2,65af56614ec9136d74dc74d0,2024-01-23_08h03.27.082,bars,2023.2.3,Linux x86_64,61.57635468,657b66ea316d21385b68909f,,,,,,,,,,,1671.776,1672.776,,,1673.254,1673.511,,87,87,,,,,,,,,,,,,,,,bars/026.png,bars/mask000.png,,,,,,,,,,,,4,2,,,,,,,1,4,2,4,,,,,,,,,,,1672.776,1673.254,1673.511,1675.458,space,1.879,,1675.458,52,2,1676.471,1676.471,1676.476,,,,0,7,7,7,1,35,85,,,,,,,,
,,6174ecffb39d40681e51eca2,65af56614ec9136d74dc74d0,2024-01-23_08h03.27.082,bars,2023.2.3,Linux x86_64,61.57635468,657b66ea316d21385b68909f,,,,,,,,,,,1676.477,1677.478,,,1677.97,1678.213,,68,68,,,,,,,,,,,,,,,,bars/027.png,bars/mask005.png,,,,,,,,,,,,1,2,,,,,,,0,2,0,2,,,,,,,,,,,1677.479,1677.97,1678.213,1680.793,space,2.547,,1680.793,42,18,1681.794,1681.794,1681.804,,,,0,8,8,8,1,110,50,,,,,,,,
,,6174ecffb39d40681e51eca2,65af56614ec9136d74dc74d0,2024-01-23_08h03.27.082,bars,2023.2.3,Linux x86_64,61.57635468,657b66ea316d21385b68909f,,,,,,,,,,,1681.805,1682.807,,,1683.285,1683.526,,174,174,,,,,,,,,,,,,,,,bars/013.png,bars/mask003.png,,,,,,,,,,,,1,2,,,,,,,0,4,0,3,,,,,,,,,,,1682.807,1683.285,1683.526,1684.832,space,1.3,,1684.832,81,16,1685.833,1685.833,1685.839,,,,0,9,9,9,1,75,10,,,,,,,,
,,6174ecffb39d40681e51eca2,65af56614ec9136d74dc74d0,2024-01-23_08h03.27.082,bars,2023.2.3,Linux x86_64,61.57635468,657b66ea316d21385b68909f,,,,,,,,,,,1685.84,1686.84,,,1687.317,1687.56,,33,33,,,,,,,,,,,,,,,,bars/039.png,bars/mask007.png,,,,,,,,,,,,0,1,,,,,,,0,6,0,5,,,,,,,,,,,1686.84,1687.317,1687.56,1689.389,space,1.821,,1689.389,38,72,1690.389,1690.389,1690.396,,,,0,10,10,10,1,175,105,,,,,,,,
,,6174ecffb39d40681e51eca2,65af56614ec9136d74dc74d0,2024-01-23_08h03.27.082,bars,2023.2.3,Linux x86_64,61.57635468,657b66ea316d21385b68909f,,,,,,,,,,,1690.397,1691.396,,,1691.874,1692.12,,61,61,,,,,,,,,,,,,,,,bars/035.png,bars/mask005.png,,,,,,,,,,,,9,2,,,,,,,0,8,0,9,,,,,,,,,,,1691.396,1691.874,1692.12,1693.047,space,0.91,,1693.048,66,1,1694.089,1694.092,1694.183,,,,0,11,11,11,1,175,60,,,,,,,,
,,6174ecffb39d40681e51eca2,65af56614ec9136d74dc74d0,2024-01-23_08h03.27.082,bars,2023.2.3,Linux x86_64,61.57635468,657b66ea316d21385b68909f,,,,,,,,,,,1694.184,1695.201,,,1695.688,1695.959,,61,61,,,,,,,,,,,,,,,,bars/010.png,bars/mask005.png,,,,,,,,,,,,7,2,,,,,,,2,10,2,9,,,,,,,,,,,1695.201,1695.688,1695.961,1698.081,space,2.107,,1698.081,76,6,1699.079,1699.08,1699.082,,,,0,12,12,12,1,165,55,,,,,,,,
,,6174ecffb39d40681e51eca2,65af56614ec9136d74dc74d0,2024-01-23_08h03.27.082,bars,2023.2.3,Linux x86_64,61.57635468,657b66ea316d21385b68909f,,,,,,,,,,,1699.082,1700.086,,,1700.623,1700.857,,43,43,,,,,,,,,,,,,,,,bars/043.png,bars/mask005.png,,,,,,,,,,,,0,1,,,,,,,0,10,0,10,,,,,,,,,,,1700.086,1700.623,1700.857,1702.681,space,1.812,,1702.682,13,87,1703.689,1703.69,1703.731,,,,0,13,13,13,1,30,130,,,,,,,,
,,6174ecffb39d40681e51eca2,65af56614ec9136d74dc74d0,2024-01-23_08h03.27.082,bars,2023.2.3,Linux x86_64,61.57635468,657b66ea316d21385b68909f,,,,,,,,,,,1703.734,1704.742,,,1705.227,1705.478,,54,54,,,,,,,,,,,,,,,,bars/010.png,bars/mask002.png,,,,,,,,,,,,10,2,,,,,,,0,10,0,10,,,,,,,,,,,1704.743,1705.227,1705.479,1709.257,space,3.701,,1709.257,69,1,1710.265,1710.265,1710.271,,,,0,14,14,14,1,165,55,,,,,,,,
,,6174ecffb39d40681e51eca2,65af56614ec9136d74dc74d0,2024-01-23_08h03.27.082,bars,2023.2.3,Linux x86_64,61.57635468,657b66ea316d21385b68909f,,,,,,,,,,,1710.272,1711.267,,,1711.767,1712.046,,156,156,,,,,,,,,,,,,,,,bars/044.png,bars/mask007.png,,,,,,,,,,,,8,2,,,,,,,2,8,3,8,,,,,,,,,,,1711.267,1711.767,1712.046,1713.111,space,1.015,,1713.111,81,1,1714.102,1714.102,1714.108,,,,0,15,15,15,1,75,155,,,,,,,,
,,6174ecffb39d40681e51eca2,65af56614ec9136d74dc74d0,2024-01-23_08h03.27.082,bars,2023.2.3,Linux x86_64,61.57635468,657b66ea316d21385b68909f,,,,,,,,,,,1714.111,1715.111,,,1715.634,1715.878,,37,37,,,,,,,,,,,,,,,,bars/025.png,bars/mask000.png,,,,,,,,,,,,5,2,,,,,,,0,6,0,5,,,,,,,,,,,1715.111,1715.633,1715.878,1716.995,space,1.096,,1716.996,68,3,1717.993,1717.993,1717.996,,,,0,16,16,16,1,105,40,,,,,,,,
,,6174ecffb39d40681e51eca2,65af56614ec9136d74dc74d0,2024-01-23_08h03.27.082,bars,2023.2.3,Linux x86_64,61.57635468,657b66ea316d21385b68909f,,,,,,,,,,,1717.997,1718.994,,,1719.476,1719.728,,58,58,,,,,,,,,,,,,,,,bars/027.png,bars/mask004.png,,,,,,,,,,,,2,2,,,,,,,2,4,2,3,,,,,,,,,,,1718.994,1719.476,1719.728,1723.141,space,3.367,,1723.141,52,8,1724.138,1724.139,1724.151,,,,0,17,17,17,1,110,50,,,,,,,,
,,6174ecffb39d40681e51eca2,65af56614ec9136d74dc74d0,2024-01-23_08h03.27.082,bars,2023.2.3,Linux x86_64,61.57635468,657b66ea316d21385b68909f,,,,,,,,,,,1724.156,1725.139,,,1725.668,1725.91,,103,103,,,,,,,,,,,,,,,,bars/018.png,bars/mask009.png,,,,,,,,,,,,4,2,,,,,,,0,6,1,7,,,,,,,,,,,1725.14,1725.667,1725.91,1732.786,space,6.864,,1732.787,47,13,1733.784,1733.784,1733.787,,,,0,18,18,18,1,150,90,,,,,,,,
,,6174ecffb39d40681e51eca2,65af56614ec9136d74dc74d0,2024-01-23_08h03.27.082,bars,2023.2.3,Linux x86_64,61.57635468,657b66ea316d21385b68909f,,,,,,,,,,,1733.788,1734.799,,,1735.321,1735.562,,85,85,,,,,,,,,,,,,,,,bars/011.png,bars/mask000.png,,,,,,,,,,,,8,2,,,,,,,2,8,2,8,,,,,,,,,,,1734.799,1735.321,1735.562,1736.757,space,1.117,,1736.758,75,0,1737.768,1737.768,1737.774,,,,0,19,19,19,1,160,85,,,,,,,,
,,6174ecffb39d40681e51eca2,65af56614ec9136d74dc74d0,2024-01-23_08h03.27.082,bars,2023.2.3,Linux x86_64,61.57635468,657b66ea316d21385b68909f,,,,,,,,,,,1737.775,1738.774,,,1739.267,1739.537,,136,136,,,,,,,,,,,,,,,,bars/023.png,bars/mask003.png,,,,,,,,,,,,2,2,,,,,,,4,6,4,8,,,,,,,,,,,1738.774,1739.267,1739.537,1741.464,space,1.921,,1741.464,64,21,1742.466,1742.466,1742.471,,,,0,20,20,20,1,20,115,,,,,,,,
,,6174ecffb39d40681e51eca2,65af56614ec9136d74dc74d0,2024-01-23_08h03.27.082,bars,2023.2.3,Linux x86_64,61.57635468,657b66ea316d21385b68909f,,,,,,,,,,,1742.471,1743.48,,,1743.966,1744.2,,173,173,,,,,,,,,,,,,,,,bars/045.png,bars/mask007.png,,,,,,,,,,,,2,2,,,,,,,6,4,6,4,,,,,,,,,,,1743.48,1743.966,1744.2,1746.021,space,1.814,,1746.021,73,17,1747.036,1747.037,1747.075,,,,0,21,21,21,1,100,10,,,,,,,,
,,6174ecffb39d40681e51eca2,65af56614ec9136d74dc74d0,2024-01-23_08h03.27.082,bars,2023.2.3,Linux x86_64,61.57635468,657b66ea316d21385b68909f,,,,,,,,,,,1747.078,1748.083,,,1748.569,1748.852,,77,77,,,,,,,,,,,,,,,,bars/027.png,bars/mask003.png,,,,,,,,,,,,0,2,,,,,,,8,2,8,2,,,,,,,,,,,1748.083,1748.569,1748.853,1750.502,space,1.63,,1750.502,33,27,1751.494,1751.494,1751.497,,,,0,22,22,22,1,110,50,,,,,,,,
,,6174ecffb39d40681e51eca2,65af56614ec9136d74dc74d0,2024-01-23_08h03.27.082,bars,2023.2.3,Linux x86_64,61.57635468,657b66ea316d21385b68909f,,,,,,,,,,,1751.498,1752.502,,,1753.003,1753.236,,168,-12,,,,,,,,,,,,,,,,bars/044.png,bars/mask004.png,,,,,,,,,,,,3,2,,,,,,,6,4,6,6,,,,,,,,,,,1752.502,1753.003,1753.236,1757.635,space,4.367,,1757.635,87,13,1758.65,1758.651,1758.691,,,,0,23,23,23,1,75,155,,,,,,,,
,,6174ecffb39d40681e51eca2,65af56614ec9136d74dc74d0,2024-01-23_08h03.27.082,bars,2023.2.3,Linux x86_64,61.57635468,657b66ea316d21385b68909f,,,,,,,,,,,1758.694,1759.698,,,1760.234,1760.476,,39,39,,,,,,,,,,,,,,,,bars/009.png,bars/mask006.png,,,,,,,,,,,,1,1,,,,,,,4,2,3,1,,,,,,,,,,,1759.698,1760.233,1760.476,1762.821,space,2.33,,1762.821,24,66,1763.833,1763.834,1763.935,,,,0,24,24,24,1,15,105,,,,,,,,
,,6174ecffb39d40681e51eca2,65af56614ec9136d74dc74d0,2024-01-23_08h03.27.082,bars,2023.2.3,Linux x86_64,61.57635468,657b66ea316d21385b68909f,,,,,,,,,,,1763.94,1764.938,,,1765.46,1765.702,,116,116,,,,,,,,,,,,,,,,bars/033.png,bars/mask004.png,,,,,,,,,,,,0,2,,,,,,,2,4,2,2,,,,,,,,,,,1764.939,1765.46,1765.702,1767.772,space,2.064,,1767.772,89,39,1768.774,1768.774,1768.784,,,,0,25,25,25,1,25,155,,,,,,,,
,,6174ecffb39d40681e51eca2,65af56614ec9136d74dc74d0,2024-01-23_08h03.27.082,bars,2023.2.3,Linux x86_64,61.57635468,657b66ea316d21385b68909f,,,,,,,,,,,1768.785,1769.778,,,1770.269,1770.546,,135,135,,,,,,,,,,,,,,,,bars/046.png,bars/mask009.png,,,,,,,,,,,,1,1,,,,,,,4,6,4,6,,,,,,,,,,,1769.779,1770.269,1770.547,1771.465,space,0.902,,1771.465,20,50,1772.48,1772.48,1772.487,,,,0,26,26,26,1,155,85,,,,,,,,
,,6174ecffb39d40681e51eca2,65af56614ec9136d74dc74d0,2024-01-23_08h03.27.082,bars,2023.2.3,Linux x86_64,61.57635468,657b66ea316d21385b68909f,,,,,,,,,,,1772.488,1773.477,,,1773.962,1774.21,,50,50,,,,,,,,,,,,,,,,bars/007.png,bars/mask006.png,,,,,,,,,,,,1,2,,,,,,,2,4,1,1,,,,,,,,,,,1773.477,1773.962,1774.21,1774.926,space,0.681,,1774.927,55,5,1775.931,1775.931,1775.938,,,,0,27,27,27,1,175,55,,,,,,,,
,,6174ecffb39d40681e51eca2,65af56614ec9136d74dc74d0,2024-01-23_08h03.27.082,bars,2023.2.3,Linux x86_64,61.57635468,657b66ea316d21385b68909f,,,,,,,,,,,1775.938,1776.936,,,1777.427,1777.656,,95,95,,,,,,,,,,,,,,,,bars/026.png,bars/mask002.png,,,,,,,,,,,,2,2,,,,,,,4,2,5,3,,,,,,,,,,,1776.936,1777.427,1777.656,1779.007,space,1.34,,1779.007,60,10,1780.012,1780.012,1780.019,,,,0,28,28,28,1,35,85,,,,,,,,
,,6174ecffb39d40681e51eca2,65af56614ec9136d74dc74d0,2024-01-23_08h03.27.082,bars,2023.2.3,Linux x86_64,61.57635468,657b66ea316d21385b68909f,,,,,,,,,,,1780.019,1781.019,,,1781.503,1781.73,,23,203,,,,,,,,,,,,,,,,bars/035.png,bars/mask008.png,,,,,,,,,,,,0,1,,,,,,,2,0,3,0,,,,,,,,,,,1781.019,1781.503,1781.73,1786.918,space,5.135,,1786.918,28,37,1787.926,1787.927,1787.936,,,,0,29,29,29,1,175,60,,,,,,,,
,,6174ecffb39d40681e51eca2,65af56614ec9136d74dc74d0,2024-01-23_08h03.27.082,bars,2023.2.3,Linux x86_64,61.57635468,657b66ea316d21385b68909f,,,,,,,,,,,1787.937,1788.892,,,1789.417,1789.66,,71,71,,,,,,,,,,,,,,,,bars/001.png,bars/mask002.png,,,,,,,,,,,,0,2,,,,,,,0,0,2,0,,,,,,,,,,,1788.892,1789.417,1789.661,1792.837,space,3.166,,1792.837,59,14,1793.829,1793.829,1793.852,,,,0,30,30,30,1,130,85,,,,,,,,
,,6174ecffb39d40681e51eca2,65af56614ec9136d74dc74d0,2024-01-23_08h03.27.082,bars,2023.2.3,Linux x86_64,61.57635468,657b66ea316d21385b68909f,,,,,,,,,,,1793.878,1794.845,,,1795.369,1795.609,,141,141,,,,,,,,,,,,,,,,bars/023.png,bars/mask007.png,,,,,,,,,,,,0,2,,,,,,,2,0,1,0,,,,,,,,,,,1794.845,1795.369,1795.61,1797.476,space,1.825,,1797.476,59,26,1798.488,1798.489,1798.492,,,,0,31,31,31,1,20,115,,,,,,,,
,,6174ecffb39d40681e51eca2,65af56614ec9136d74dc74d0,2024-01-23_08h03.27.082,bars,2023.2.3,Linux x86_64,61.57635468,657b66ea316d21385b68909f,,,,,,,,,,,1798.493,1799.498,,,1799.981,1800.219,,3,183,,,,,,,,,,,,,,,,bars/033.png,bars/mask005.png,,,,,,,,,,,,0,1,,,,,,,0,0,0,0,,,,,,,,,,,1799.499,1799.98,1800.219,1802.567,space,2.301,,1802.568,22,28,1803.571,1803.571,1803.578,,,,0,32,32,32,1,25,155,,,,,,,,
,,6174ecffb39d40681e51eca2,65af56614ec9136d74dc74d0,2024-01-23_08h03.27.082,bars,2023.2.3,Linux x86_64,61.57635468,657b66ea316d21385b68909f,,,,,,,,,,,1803.578,1804.582,,,1805.077,1805.26,,138,138,,,,,,,,,,,,,,,,bars/009.png,bars/mask001.png,,,,,,,,,,,,0,2,,,,,,,0,2,0,2,,,,,,,,,,,1804.582,1805.077,1805.262,1806.802,space,1.517,,1806.805,57,33,1807.815,1807.815,1807.865,,,,0,33,33,33,1,15,105,,,,,,,,
,,6174ecffb39d40681e51eca2,65af56614ec9136d74dc74d0,2024-01-23_08h03.27.082,bars,2023.2.3,Linux x86_64,61.57635468,657b66ea316d21385b68909f,,,,,,,,,,,1807.866,1808.858,,,1809.356,1809.64,,37,37,,,,,,,,,,,,,,,,bars/006.png,bars/mask002.png,,,,,,,,,,,,2,1,,,,,,,2,0,2,1,,,,,,,,,,,1808.859,1809.356,1809.64,1811.357,space,1.684,,1811.357,2,63,1812.358,1812.358,1812.364,,,,0,34,34,34,1,35,100,,,,,,,,
,,6174ecffb39d40681e51eca2,65af56614ec9136d74dc74d0,2024-01-23_08h03.27.082,bars,2023.2.3,Linux x86_64,61.57635468,657b66ea316d21385b68909f,,,,,,,,,,,1812.366,1813.377,,,1813.868,1814.133,,89,89,,,,,,,,,,,,,,,,bars/049.png,bars/mask004.png,,,,,,,,,,,,0,2,,,,,,,0,2,0,1,,,,,,,,,,,1813.377,1813.868,1814.133,1816.162,space,2.022,,1816.162,71,26,1817.164,1817.165,1817.174,,,,0,35,35,35,1,160,115,,,,,,,,
,,6174ecffb39d40681e51eca2,65af56614ec9136d74dc74d0,2024-01-23_08h03.27.082,bars,2023.2.3,Linux x86_64,61.57635468,657b66ea316d21385b68909f,,,,,,,,,,,1817.203,1818.209,,,1818.691,1818.935,,114,114,,,,,,,,,,,,,,,,bars/049.png,bars/mask001.png,,,,,,,,,,,,0,2,,,,,,,2,0,3,0,,,,,,,,,,,1818.21,1818.69,1818.935,1819.762,space,0.808,,1819.762,46,1,1820.769,1820.77,1820.807,,,,0,36,36,36,1,160,115,,,,,,,,
,,6174ecffb39d40681e51eca2,65af56614ec9136d74dc74d0,2024-01-23_08h03.27.082,bars,2023.2.3,Linux x86_64,61.57635468,657b66ea316d21385b68909f,,,,,,,,,,,1820.809,1821.814,,,1822.308,1822.535,,159,159,,,,,,,,,,,,,,,,bars/030.png,bars/mask006.png,,,,,,,,,,,,2,1,,,,,,,4,2,5,1,,,,,,,,,,,1821.814,1822.308,1822.536,1824.793,space,2.214,,1824.793,19,86,1825.768,1825.769,1825.811,,,,0,37,37,37,1,140,65,,,,,,,,
,,6174ecffb39d40681e51eca2,65af56614ec9136d74dc74d0,2024-01-23_08h03.27.082,bars,2023.2.3,Linux x86_64,61.57635468,657b66ea316d21385b68909f,,,,,,,,,,,1825.812,1826.805,,,1827.283,1827.54,,153,153,,,,,,,,,,,,,,,,bars/022.png,bars/mask000.png,,,,,,,,,,,,0,2,,,,,,,2,4,2,5,,,,,,,,,,,1826.805,1827.282,1827.541,1832.187,space,4.566,,1832.192,58,47,1833.195,1833.195,1833.252,,,,0,38,38,38,1,95,20,,,,,,,,
,,6174ecffb39d40681e51eca2,65af56614ec9136d74dc74d0,2024-01-23_08h03.27.082,bars,2023.2.3,Linux x86_64,61.57635468,657b66ea316d21385b68909f,,,,,,,,,,,1833.254,1834.247,,,1834.731,1835.02,,81,81,,,,,,,,,,,,,,,,bars/023.png,bars/mask006.png,,,,,,,,,,,,0,2,,,,,,,4,6,3,6,,,,,,,,,,,1834.247,1834.731,1835.02,1836.472,space,1.402,,1836.498,61,34,1837.509,1837.509,1837.511,,,,0,39,39,39,1,20,115,,,,,,,,
,,6174ecffb39d40681e51eca2,65af56614ec9136d74dc74d0,2024-01-23_08h03.27.082,bars,2023.2.3,Linux x86_64,61.57635468,657b66ea316d21385b68909f,,,,,,,,,,,1837.511,1838.477,,,1838.959,1839.234,,65,65,,,,,,,,,,,,,,,,bars/047.png,bars/mask002.png,,,,,,,,,,,,3,2,,,,,,,2,4,1,3,,,,,,,,,,,1838.477,1838.959,1839.234,1841.119,space,1.876,,1841.119,50,5,1842.122,1842.122,1842.132,,,,0,40,40,40,1,15,70,,,,,,,,
,,6174ecffb39d40681e51eca2,65af56614ec9136d74dc74d0,2024-01-23_08h03.27.082,bars,2023.2.3,Linux x86_64,61.57635468,657b66ea316d21385b68909f,,,,,,,,,,,1842.133,1843.124,,,1843.617,1843.859,,131,131,,,,,,,,,,,,,,,,bars/007.png,bars/mask008.png,,,,,,,,,,,,0,1,,,,,,,4,2,3,2,,,,,,,,,,,1843.124,1843.616,1843.859,1844.858,space,0.986,,1844.858,44,76,1845.867,1845.867,1845.873,,,,0,41,41,41,1,175,55,,,,,,,,
,,6174ecffb39d40681e51eca2,65af56614ec9136d74dc74d0,2024-01-23_08h03.27.082,bars,2023.2.3,Linux x86_64,61.57635468,657b66ea316d21385b68909f,,,,,,,,,,,1845.874,1846.869,,,1847.368,1847.602,,53,53,,,,,,,,,,,,,,,,bars/029.png,bars/mask009.png,,,,,,,,,,,,1,2,,,,,,,6,0,7,1,,,,,,,,,,,1846.869,1847.368,1847.602,1849.623,space,2.009,,1849.623,37,8,1850.618,1850.618,1850.625,,,,0,42,42,42,1,90,45,,,,,,,,
,,6174ecffb39d40681e51eca2,65af56614ec9136d74dc74d0,2024-01-23_08h03.27.082,bars,2023.2.3,Linux x86_64,61.57635468,657b66ea316d21385b68909f,,,,,,,,,,,1850.625,1851.594,,,1852.069,1852.248,,38,38,,,,,,,,,,,,,,,,bars/012.png,bars/mask003.png,,,,,,,,,,,,0,2,,,,,,,4,0,6,0,,,,,,,,,,,1851.594,1852.069,1852.248,1853.843,space,1.583,,1853.843,52,23,1854.836,1854.836,1854.838,,,,0,43,43,43,1,90,15,,,,,,,,
,,6174ecffb39d40681e51eca2,65af56614ec9136d74dc74d0,2024-01-23_08h03.27.082,bars,2023.2.3,Linux x86_64,61.57635468,657b66ea316d21385b68909f,,,,,,,,,,,1854.839,1855.81,,,1856.283,1856.533,,103,103,,,,,,,,,,,,,,,,bars/018.png,bars/mask003.png,,,,,,,,,,,,0,2,,,,,,,2,0,2,0,,,,,,,,,,,1855.81,1856.283,1856.534,1857.973,space,1.399,,1857.973,47,13,1858.928,1858.928,1858.934,,,,0,44,44,44,1,150,90,,,,,,,,
,,6174ecffb39d40681e51eca2,65af56614ec9136d74dc74d0,2024-01-23_08h03.27.082,bars,2023.2.3,Linux x86_64,61.57635468,657b66ea316d21385b68909f,,,,,,,,,,,1858.936,1859.926,,,1860.416,1860.659,,26,206,,,,,,,,,,,,,,,,bars/013.png,bars/mask001.png,,,,,,,,,,,,1,2,,,,,,,0,0,0,2,,,,,,,,,,,1859.927,1860.416,1860.659,1863.621,space,2.921,,1863.621,49,16,1864.634,1864.634,1864.645,,,,0,45,45,45,1,75,10,,,,,,,,
,,6174ecffb39d40681e51eca2,65af56614ec9136d74dc74d0,2024-01-23_08h03.27.082,bars,2023.2.3,Linux x86_64,61.57635468,657b66ea316d21385b68909f,,,,,,,,,,,1864.646,1865.639,,,1866.166,1866.41,,64,64,,,,,,,,,,,,,,,,bars/047.png,bars/mask008.png,,,,,,,,,,,,1,2,,,,,,,2,2,2,1,,,,,,,,,,,1865.639,1866.166,1866.41,1867.422,space,1.003,,1867.422,49,6,1868.423,1868.423,1868.428,,,,0,46,46,46,1,15,70,,,,,,,,
,,6174ecffb39d40681e51eca2,65af56614ec9136d74dc74d0,2024-01-23_08h03.27.082,bars,2023.2.3,Linux x86_64,61.57635468,657b66ea316d21385b68909f,,,,,,,,,,,1868.429,1869.43,,,1869.961,1870.199,,111,111,,,,,,,,,,,,,,,,bars/031.png,bars/mask005.png,,,,,,,,,,,,4,1,,,,,,,4,0,5,1,,,,,,,,,,,1869.431,1869.961,1870.199,1871.314,space,1.103,,1871.315,9,76,1872.315,1872.315,1872.323,,,,0,47,47,47,1,120,35,,,,,,,,
,,6174ecffb39d40681e51eca2,65af56614ec9136d74dc74d0,2024-01-23_08h03.27.082,bars,2023.2.3,Linux x86_64,61.57635468,657b66ea316d21385b68909f,,,,,,,,,,,1872.323,1873.325,,,1873.806,1874.038,,30,30,,,,,,,,,,,,,,,,bars/022.png,bars/mask006.png,,,,,,,,,,,,2,2,,,,,,,6,2,7,3,,,,,,,,,,,1873.325,1873.805,1874.038,1875.109,space,1.061,,1875.109,65,10,1876.103,1876.103,1876.113,,,,0,48,48,48,1,95,20,,,,,,,,
,,6174ecffb39d40681e51eca2,65af56614ec9136d74dc74d0,2024-01-23_08h03.27.082,bars,2023.2.3,Linux x86_64,61.57635468,657b66ea316d21385b68909f,,,,,,,,,,,1876.113,1877.112,,,1877.602,1877.838,,10,190,,,,,,,,,,,,,,,,bars/025.png,bars/mask003.png,,,,,,,,,,,,0,2,,,,,,,4,4,3,4,,,,,,,,,,,1877.112,1877.602,1877.838,1888.296,space,10.415,,1888.296,85,30,1889.305,1889.305,1889.308,,,,0,49,49,49,1,105,40,,,,,,,,
,,6174ecffb39d40681e51eca2,65af56614ec9136d74dc74d0,2024-01-23_08h03.27.082,bars,2023.2.3,Linux x86_64,61.57635468,657b66ea316d21385b68909f,,,,,,,,,,,,,,,,,,,,,,,,,,,,,,,,,,,,,,,,,,,,,,,,,,,,,,,,,,,,,,,,,,,,,,,,,,,,,,,,,,,,,,,,,,,,,1889.308,1949.302,0,3,3,3,1,sequence_tables/blk023.csv
,,6174ecffb39d40681e51eca2,65af56614ec9136d74dc74d0,2024-01-23_08h03.27.082,bars,2023.2.3,Linux x86_64,61.57635468,657b66ea316d21385b68909f,,,,,,,,,,,1970.857,1971.769,,,1972.258,1972.507,,53,53,,,,,,,,,,,,,,,,bars/038.png,bars/mask001.png,,,,,,,,,,,,3,2,,,,,,,3,6,4,7,,,,,,1949.306,1970.767,space,21.448,,1971.769,1972.258,1972.508,1974.081,space,1.542,,1974.081,68,17,1975.079,1975.079,1975.093,,,,0,0,0,0,1,165,70,,,,,,,,
,,6174ecffb39d40681e51eca2,65af56614ec9136d74dc74d0,2024-01-23_08h03.27.082,bars,2023.2.3,Linux x86_64,61.57635468,657b66ea316d21385b68909f,,,,,,,,,,,1975.094,1976.104,,,1976.575,1976.804,,11,11,,,,,,,,,,,,,,,,bars/042.png,bars/mask005.png,,,,,,,,,,,,0,1,,,,,,,5,8,3,7,,,,,,,,,,,1976.104,1976.575,1976.804,1978.253,space,1.439,,1978.253,46,64,1979.255,1979.256,1979.264,,,,0,1,1,1,1,145,75,,,,,,,,
,,6174ecffb39d40681e51eca2,65af56614ec9136d74dc74d0,2024-01-23_08h03.27.082,bars,2023.2.3,Linux x86_64,61.57635468,657b66ea316d21385b68909f,,,,,,,,,,,1979.265,1980.262,,,1980.79,1981.031,,50,50,,,,,,,,,,,,,,,,bars/014.png,bars/mask007.png,,,,,,,,,,,,0,1,,,,,,,7,10,8,10,,,,,,,,,,,1980.262,1980.789,1981.031,1983.82,space,2.776,,1983.821,30,50,1984.825,1984.826,1984.834,,,,0,2,2,2,1,80,0,,,,,,,,
,,6174ecffb39d40681e51eca2,65af56614ec9136d74dc74d0,2024-01-23_08h03.27.082,bars,2023.2.3,Linux x86_64,61.57635468,657b66ea316d21385b68909f,,,,,,,,,,,1984.834,1985.828,,,1986.328,1986.562,,137,137,,,,,,,,,,,,,,,,bars/049.png,bars/mask003.png,,,,,,,,,,,,3,2,,,,,,,5,10,5,10,,,,,,,,,,,1985.828,1986.328,1986.562,1988.443,space,1.843,,1988.443,23,22,1989.429,1989.43,1989.44,,,,0,3,3,3,1,160,115,,,,,,,,
,,6174ecffb39d40681e51eca2,65af56614ec9136d74dc74d0,2024-01-23_08h03.27.082,bars,2023.2.3,Linux x86_64,61.57635468,657b66ea316d21385b68909f,,,,,,,,,,,1989.442,1990.434,,,1990.932,1991.17,,165,-15,,,,,,,,,,,,,,,,bars/008.png,bars/mask008.png,,,,,,,,,,,,4,2,,,,,,,3,10,2,8,,,,,,,,,,,1990.434,1990.932,1991.17,1993.804,space,2.591,,1993.804,55,15,1994.802,1994.802,1994.804,,,,0,4,4,4,1,110,0,,,,,,,,
,,6174ecffb39d40681e51eca2,65af56614ec9136d74dc74d0,2024-01-23_08h03.27.082,bars,2023.2.3,Linux x86_64,61.57635468,657b66ea316d21385b68909f,,,,,,,,,,,1994.804,1995.81,,,1996.291,1996.535,,42,42,,,,,,,,,,,,,,,,bars/007.png,bars/mask004.png,,,,,,,,,,,,5,2,,,,,,,1,10,1,9,,,,,,,,,,,1995.81,1996.291,1996.535,1998.366,space,1.816,,1998.368,47,13,1999.362,1999.362,1999.365,,,,0,5,5,5,1,175,55,,,,,,,,
,,6174ecffb39d40681e51eca2,65af56614ec9136d74dc74d0,2024-01-23_08h03.27.082,bars,2023.2.3,Linux x86_64,61.57635468,657b66ea316d21385b68909f,,,,,,,,,,,1999.366,2000.374,,,2000.87,2001.105,,16,196,,,,,,,,,,,,,,,,bars/044.png,bars/mask000.png,,,,,,,,,,,,0,2,,,,,,,3,10,1,10,,,,,,,,,,,2000.375,2000.87,2001.106,2003.973,space,2.803,,2003.973,59,41,2004.952,2004.952,2004.979,,,,0,6,6,6,1,75,155,,,,,,,,
,,6174ecffb39d40681e51eca2,65af56614ec9136d74dc74d0,2024-01-23_08h03.27.082,bars,2023.2.3,Linux x86_64,61.57635468,657b66ea316d21385b68909f,,,,,,,,,,,2004.98,2005.995,,,2006.473,2006.722,,113,113,,,,,,,,,,,,,,,,bars/018.png,bars/mask007.png,,,,,,,,,,,,2,2,,,,,,,5,10,5,10,,,,,,,,,,,2005.995,2006.472,2006.723,2008.44,space,1.679,,2008.44,37,23,2009.45,2009.451,2009.457,,,,0,7,7,7,1,150,90,,,,,,,,
,,6174ecffb39d40681e51eca2,65af56614ec9136d74dc74d0,2024-01-23_08h03.27.082,bars,2023.2.3,Linux x86_64,61.57635468,657b66ea316d21385b68909f,,,,,,,,,,,2009.457,2010.468,,,2010.983,2011.223,,70,70,,,,,,,,,,,,,,,,bars/038.png,bars/mask000.png,,,,,,,,,,,,9,2,,,,,,,7,8,7,9,,,,,,,,,,,2010.469,2010.983,2011.224,2012.907,space,1.668,,2012.907,85,0,2013.908,2013.908,2013.925,,,,0,8,8,8,1,165,70,,,,,,,,
,,6174ecffb39d40681e51eca2,65af56614ec9136d74dc74d0,2024-01-23_08h03.27.082,bars,2023.2.3,Linux x86_64,61.57635468,657b66ea316d21385b68909f,,,,,,,,,,,2013.957,2014.933,,,2015.409,2015.685,,155,155,,,,,,,,,,,,,,,,bars/023.png,bars/mask008.png,,,,,,,,,,,,0,2,,,,,,,5,6,7,5,,,,,,,,,,,2014.933,2015.409,2015.685,2018.039,space,2.303,,2018.039,45,40,2019.013,2019.013,2019.044,,,,0,9,9,9,1,20,115,,,,,,,,
,,6174ecffb39d40681e51eca2,65af56614ec9136d74dc74d0,2024-01-23_08h03.27.082,bars,2023.2.3,Linux x86_64,61.57635468,657b66ea316d21385b68909f,,,,,,,,,,,2019.045,2020.02,,,2020.503,2020.741,,15,15,,,,,,,,,,,,,,,,bars/020.png,bars/mask004.png,,,,,,,,,,,,2,2,,,,,,,7,8,7,10,,,,,,,,,,,2020.02,2020.503,2020.741,2024.565,space,3.761,,2024.566,80,25,2025.575,2025.575,2025.575,,,,0,10,10,10,1,115,170,,,,,,,,
,,6174ecffb39d40681e51eca2,65af56614ec9136d74dc74d0,2024-01-23_08h03.27.082,bars,2023.2.3,Linux x86_64,61.57635468,657b66ea316d21385b68909f,,,,,,,,,,,2025.576,2026.58,,,2027.127,2027.356,,114,114,,,,,,,,,,,,,,,,bars/023.png,bars/mask000.png,,,,,,,,,,,,9,2,,,,,,,9,10,8,9,,,,,,,,,,,2026.58,2027.126,2027.356,2031.91,space,4.508,,2031.912,86,1,2032.917,2032.917,2032.926,,,,0,11,11,11,1,20,115,,,,,,,,
,,6174ecffb39d40681e51eca2,65af56614ec9136d74dc74d0,2024-01-23_08h03.27.082,bars,2023.2.3,Linux x86_64,61.57635468,657b66ea316d21385b68909f,,,,,,,,,,,2032.927,2033.929,,,2034.407,2034.653,,163,-17,,,,,,,,,,,,,,,,bars/043.png,bars/mask008.png,,,,,,,,,,,,0,2,,,,,,,10,10,9,10,,,,,,,,,,,2033.929,2034.406,2034.653,2039.88,space,5.144,,2039.882,47,33,2040.886,2040.887,2040.89,,,,0,12,12,12,1,30,130,,,,,,,,
,,6174ecffb39d40681e51eca2,65af56614ec9136d74dc74d0,2024-01-23_08h03.27.082,bars,2023.2.3,Linux x86_64,61.57635468,657b66ea316d21385b68909f,,,,,,,,,,,2040.892,2041.89,,,2042.373,2042.612,,104,104,,,,,,,,,,,,,,,,bars/039.png,bars/mask005.png,,,,,,,,,,,,8,2,,,,,,,8,8,8,8,,,,,,,,,,,2041.89,2042.373,2042.612,2044.202,space,1.573,,2044.202,71,1,2045.21,2045.21,2045.214,,,,0,13,13,13,1,175,105,,,,,,,,
,,6174ecffb39d40681e51eca2,65af56614ec9136d74dc74d0,2024-01-23_08h03.27.082,bars,2023.2.3,Linux x86_64,61.57635468,657b66ea316d21385b68909f,,,,,,,,,,,2045.214,2046.212,,,2046.693,2046.937,,73,73,,,,,,,,,,,,,,,,bars/004.png,bars/mask006.png,,,,,,,,,,,,0,1,,,,,,,10,10,10,10,,,,,,,,,,,2046.212,2046.693,2046.937,2048.951,space,1.994,,2048.951,48,52,2049.922,2049.923,2049.96,,,,0,14,14,14,1,25,125,,,,,,,,
