init_variables.started,init_variables.stopped,participant,session,date,expName,psychopyVersion,OS,frameRate,study_id,instruction_exp.started,instruction_exp.stopped,key_resp_8.keys,key_resp_8.rt,key_resp_8.duration,instruction_single.started,instruction_single.stopped,key_resp_2.keys,key_resp_2.rt,key_resp_2.duration,interval.started,interval.stopped,cue_single.started,cue_single.stopped,mask.started,mask.stopped,ori_response_single.started,res_ori,res,ori_response_single.stopped,key_resp_single.keys,key_resp_single.rt,key_resp_single.duration,disp_single.started,disp_single.stopped,key_resp.keys,key_resp.rt,key_resp.duration,single.thisRepN,single.thisTrialN,single.thisN,single.thisIndex,single.ran,ori,path,mask_path,instruction_bandit.started,instruction_bandit.stopped,key_resp_6.keys,key_resp_6.rt,key_resp_6.duration,cue_bandit.started,cue_bandit.stopped,bandit_res.keys,bandit_res.rt,bandit_res.duration,outcome_bandit.started,rew,action,outcome_bandit.stopped,bandit.thisRepN,bandit.thisTrialN,bandit.thisN,bandit.thisIndex,bandit.ran,actual_rew1,actual_rew2,rew1,rew2,instruction_task.started,instruction_task.stopped,key_resp_7.keys,key_resp_7.rt,key_resp_7.duration,wait_ready.started,wait_ready.stopped,key_resp_3.keys,key_resp_3.rt,key_resp_3.duration,cue.started,cue.stopped,ori_response.started,ori_response.stopped,key_resp_5.keys,key_resp_5.rt,key_resp_5.duration,outcome.started,diff1,diff2,outcome.stopped,disp_outcome_practice.started,disp_outcome_practice.stopped,key_resp_4.keys,key_resp_4.rt,key_resp_4.duration,trials.thisRepN,trials.thisTrialN,trials.thisN,trials.thisIndex,trials.ran,ori1,ori2,break_blk.started,break_blk.stopped,block.thisRepN,block.thisTrialN,block.thisN,block.thisIndex,block.ran,condition_file
0.0023,0.0026,657079339d147ddcce1b8bb7,65af560ab89350ece997c577,2024-01-23_08h05.08.615,bars,2023.2.3,Win32,60.24096386,657b66ea316d21385b68909f,,,,,,,,,,,,,,,,,,,,,,,,,,,,,,,,,,,,,,,,,,,,,,,,,,,,,,,,,,,,,,,,,,,,,,,,,,,,,,,,,,,,,,,,,,,,,,,,,,,,
,,657079339d147ddcce1b8bb7,65af560ab89350ece997c577,2024-01-23_08h05.08.615,bars,2023.2.3,Win32,60.24096386,657b66ea316d21385b68909f,0.0032,13.5445,y,12.9196,0.3497,,,,,,,,,,,,,,,,,,,,,,,,,,,,,,,,,,,,,,,,,,,,,,,,,,,,,,,,,,,,,,,,,,,,,,,,,,,,,,,,,,,,,,,,,,,,,,,
,,657079339d147ddcce1b8bb7,65af560ab89350ece997c577,2024-01-23_08h05.08.615,bars,2023.2.3,Win32,60.24096386,657b66ea316d21385b68909f,,,,,,13.5448,40.1716,space,26.3357,,,,,,,,,,,,,,,,,,,,,,,,,,,,,,,,,,,,,,,,,,,,,,,,,,,,,,,,,,,,,,,,,,,,,,,,,,,,,,,,,,,,,,,,,,,
,,657079339d147ddcce1b8bb7,65af560ab89350ece997c577,2024-01-23_08h05.08.615,bars,2023.2.3,Win32,60.24096386,657b66ea316d21385b68909f,,,,,,,,,,,40.3258,41.1803,41.1809,41.6806,41.6811,41.9303,41.9309,90,90,54.4726,space,12.4312,,54.4729,69.5577,space,15.037,,0,0,0,7,1,45,bars/single007.png,bars/mask009.png,,,,,,,,,,,,,,,,,,,,,,,,,,,,,,,,,,,,,,,,,,,,,,,,,,,,,,,,,,,,,,,,
,,657079339d147ddcce1b8bb7,65af560ab89350ece997c577,2024-01-23_08h05.08.615,bars,2023.2.3,Win32,60.24096386,657b66ea316d21385b68909f,,,,,,,,,,,69.5727,70.5725,70.5727,71.0646,71.0646,71.3145,71.3145,45,45,81.4813,space,10.1504,,81.4814,87.1518,space,5.6391,,0,1,1,6,1,175,bars/single006.png,bars/mask005.png,,,,,,,,,,,,,,,,,,,,,,,,,,,,,,,,,,,,,,,,,,,,,,,,,,,,,,,,,,,,,,,,
,,657079339d147ddcce1b8bb7,65af560ab89350ece997c577,2024-01-23_08h05.08.615,bars,2023.2.3,Win32,60.24096386,657b66ea316d21385b68909f,,,,,,,,,,,87.1656,88.1678,88.1679,88.6679,88.6679,88.9176,88.9176,90,90,112.262,space,23.3286,,112.262,115.0217,space,2.7309,,0,2,2,3,1,20,bars/single003.png,bars/mask005.png,,,,,,,,,,,,,,,,,,,,,,,,,,,,,,,,,,,,,,,,,,,,,,,,,,,,,,,,,,,,,,,,
,,657079339d147ddcce1b8bb7,65af560ab89350ece997c577,2024-01-23_08h05.08.615,bars,2023.2.3,Win32,60.24096386,657b66ea316d21385b68909f,,,,,,,,,,,115.0224,116.0192,116.0193,116.5193,116.5194,116.7682,116.7685,90,90,122.8208,space,6.0351,,122.8208,125.3093,space,2.4538,,0,3,3,8,1,160,bars/single008.png,bars/mask004.png,,,,,,,,,,,,,,,,,,,,,,,,,,,,,,,,,,,,,,,,,,,,,,,,,,,,,,,,,,,,,,,,
,,657079339d147ddcce1b8bb7,65af560ab89350ece997c577,2024-01-23_08h05.08.615,bars,2023.2.3,Win32,60.24096386,657b66ea316d21385b68909f,,,,,,,,,,,125.31,126.3075,126.3079,126.8081,126.8081,127.0578,127.0579,0,180,134.9396,space,7.8661,,134.9399,140.6508,space,5.6821,,0,4,4,9,1,20,bars/single009.png,bars/mask006.png,,,,,,,,,,,,,,,,,,,,,,,,,,,,,,,,,,,,,,,,,,,,,,,,,,,,,,,,,,,,,,,,
,,657079339d147ddcce1b8bb7,65af560ab89350ece997c577,2024-01-23_08h05.08.615,bars,2023.2.3,Win32,60.24096386,657b66ea316d21385b68909f,,,,,,,,,,,140.6699,141.6546,141.6547,142.154,142.154,142.4039,142.404,56,56,144.3227,space,1.9077,,144.3228,148.6359,space,4.2957,,0,5,5,5,1,55,bars/single005.png,bars/mask008.png,,,,,,,,,,,,,,,,,,,,,,,,,,,,,,,,,,,,,,,,,,,,,,,,,,,,,,,,,,,,,,,,
,,657079339d147ddcce1b8bb7,65af560ab89350ece997c577,2024-01-23_08h05.08.615,bars,2023.2.3,Win32,60.24096386,657b66ea316d21385b68909f,,,,,,,,,,,148.649,149.6393,149.6393,150.1352,150.1353,150.3851,150.3852,0,180,155.4287,space,5.0329,,155.4289,157.4181,space,1.957,,0,6,6,0,1,150,bars/single000.png,bars/mask006.png,,,,,,,,,,,,,,,,,,,,,,,,,,,,,,,,,,,,,,,,,,,,,,,,,,,,,,,,,,,,,,,,
,,657079339d147ddcce1b8bb7,65af560ab89350ece997c577,2024-01-23_08h05.08.615,bars,2023.2.3,Win32,60.24096386,657b66ea316d21385b68909f,,,,,,,,,,,157.4186,158.4163,158.4164,158.9163,158.9164,159.1663,159.1663,135,135,167.5976,space,8.4155,,167.5977,170.6908,space,3.0642,,0,7,7,2,1,145,bars/single002.png,bars/mask003.png,,,,,,,,,,,,,,,,,,,,,,,,,,,,,,,,,,,,,,,,,,,,,,,,,,,,,,,,,,,,,,,,
,,657079339d147ddcce1b8bb7,65af560ab89350ece997c577,2024-01-23_08h05.08.615,bars,2023.2.3,Win32,60.24096386,657b66ea316d21385b68909f,,,,,,,,,,,170.6913,171.6884,171.6884,172.19,172.1901,172.438,172.438,0,0,182.9199,space,10.4655,,182.9199,186.2096,space,3.2541,,0,8,8,4,1,95,bars/single004.png,bars/mask004.png,,,,,,,,,,,,,,,,,,,,,,,,,,,,,,,,,,,,,,,,,,,,,,,,,,,,,,,,,,,,,,,,
,,657079339d147ddcce1b8bb7,65af560ab89350ece997c577,2024-01-23_08h05.08.615,bars,2023.2.3,Win32,60.24096386,657b66ea316d21385b68909f,,,,,,,,,,,186.2105,187.2089,187.2089,187.7088,187.7089,187.9583,187.9586,42,42,190.3254,space,2.3548,,190.3255,191.3913,space,1.0473,,0,9,9,1,1,20,bars/single001.png,bars/mask006.png,,,,,,,,,,,,,,,,,,,,,,,,,,,,,,,,,,,,,,,,,,,,,,,,,,,,,,,,,,,,,,,,
,,657079339d147ddcce1b8bb7,65af560ab89350ece997c577,2024-01-23_08h05.08.615,bars,2023.2.3,Win32,60.24096386,657b66ea316d21385b68909f,,,,,,,,,,,,,,,,,,,,,,,,,,,,,,,,,,,,,191.3934,206.3501,space,14.9356,,,,,,,,,,,,,,,,,,,,,,,,,,,,,,,,,,,,,,,,,,,,,,,,,,,,,,,,,,,,
,,657079339d147ddcce1b8bb7,65af560ab89350ece997c577,2024-01-23_08h05.08.615,bars,2023.2.3,Win32,60.24096386,657b66ea316d21385b68909f,,,,,,,,,,,,,,,,,,,,,,,,,,,,,,,,,,,,,,,,,,206.3714,211.9399,right,5.5378,,211.9403,2,2,212.9357,0,0,0,0,1,9,1,9,2,,,,,,,,,,,,,,,,,,,,,,,,,,,,,,,,,,,,,,,,,
,,657079339d147ddcce1b8bb7,65af560ab89350ece997c577,2024-01-23_08h05.08.615,bars,2023.2.3,Win32,60.24096386,657b66ea316d21385b68909f,,,,,,,,,,,,,,,,,,,,,,,,,,,,,,,,,,,,,,,,,,212.9368,215.7877,right,2.8411,,215.7878,1,2,216.7845,0,1,1,1,1,10,0,10,1,,,,,,,,,,,,,,,,,,,,,,,,,,,,,,,,,,,,,,,,,
,,657079339d147ddcce1b8bb7,65af560ab89350ece997c577,2024-01-23_08h05.08.615,bars,2023.2.3,Win32,60.24096386,657b66ea316d21385b68909f,,,,,,,,,,,,,,,,,,,,,,,,,,,,,,,,,,,,,,,,,,216.7856,218.7013,left,1.9045,,218.7014,10,1,219.7002,0,2,2,2,1,10,2,10,2,,,,,,,,,,,,,,,,,,,,,,,,,,,,,,,,,,,,,,,,,
,,657079339d147ddcce1b8bb7,65af560ab89350ece997c577,2024-01-23_08h05.08.615,bars,2023.2.3,Win32,60.24096386,657b66ea316d21385b68909f,,,,,,,,,,,,,,,,,,,,,,,,,,,,,,,,,,,,,,,,,,219.7014,220.7675,right,1.0518,,220.7675,3,2,221.7667,0,3,3,3,1,8,4,7,3,,,,,,,,,,,,,,,,,,,,,,,,,,,,,,,,,,,,,,,,,
,,657079339d147ddcce1b8bb7,65af560ab89350ece997c577,2024-01-23_08h05.08.615,bars,2023.2.3,Win32,60.24096386,657b66ea316d21385b68909f,,,,,,,,,,,,,,,,,,,,,,,,,,,,,,,,,,,,,,,,,,221.7677,222.2854,left,0.5078,,222.2855,5,1,223.2827,0,4,4,4,1,6,2,5,1,,,,,,,,,,,,,,,,,,,,,,,,,,,,,,,,,,,,,,,,,
,,657079339d147ddcce1b8bb7,65af560ab89350ece997c577,2024-01-23_08h05.08.615,bars,2023.2.3,Win32,60.24096386,657b66ea316d21385b68909f,,,,,,,,,,,,,,,,,,,,,,,,,,,,,,,,,,,,,,,,,,223.2837,225.3001,left,2.0019,,225.3001,4,1,226.2987,0,5,5,5,1,4,4,4,4,,,,,,,,,,,,,,,,,,,,,,,,,,,,,,,,,,,,,,,,,
,,657079339d147ddcce1b8bb7,65af560ab89350ece997c577,2024-01-23_08h05.08.615,bars,2023.2.3,Win32,60.24096386,657b66ea316d21385b68909f,,,,,,,,,,,,,,,,,,,,,,,,,,,,,,,,,,,,,,,,,,226.2999,227.1014,right,0.7923,,227.1015,2,2,228.0995,0,6,6,6,1,2,2,1,2,,,,,,,,,,,,,,,,,,,,,,,,,,,,,,,,,,,,,,,,,
,,657079339d147ddcce1b8bb7,65af560ab89350ece997c577,2024-01-23_08h05.08.615,bars,2023.2.3,Win32,60.24096386,657b66ea316d21385b68909f,,,,,,,,,,,,,,,,,,,,,,,,,,,,,,,,,,,,,,,,,,228.1007,228.5823,left,0.4669,,228.5825,0,1,229.5826,0,7,7,7,1,0,0,0,1,,,,,,,,,,,,,,,,,,,,,,,,,,,,,,,,,,,,,,,,,
,,657079339d147ddcce1b8bb7,65af560ab89350ece997c577,2024-01-23_08h05.08.615,bars,2023.2.3,Win32,60.24096386,657b66ea316d21385b68909f,,,,,,,,,,,,,,,,,,,,,,,,,,,,,,,,,,,,,,,,,,229.5833,230.1981,right,0.6006,,230.1982,0,2,231.1972,0,8,8,8,1,0,2,1,0,,,,,,,,,,,,,,,,,,,,,,,,,,,,,,,,,,,,,,,,,
,,657079339d147ddcce1b8bb7,65af560ab89350ece997c577,2024-01-23_08h05.08.615,bars,2023.2.3,Win32,60.24096386,657b66ea316d21385b68909f,,,,,,,,,,,,,,,,,,,,,,,,,,,,,,,,,,,,,,,,,,231.199,231.9322,left,0.7232,,231.9323,2,1,232.9303,0,9,9,9,1,2,4,2,3,,,,,,,,,,,,,,,,,,,,,,,,,,,,,,,,,,,,,,,,,
,,657079339d147ddcce1b8bb7,65af560ab89350ece997c577,2024-01-23_08h05.08.615,bars,2023.2.3,Win32,60.24096386,657b66ea316d21385b68909f,,,,,,,,,,,,,,,,,,,,,,,,,,,,,,,,,,,,,,,,,,232.9313,233.4807,left,0.5357,,233.4808,0,1,234.4797,0,10,10,10,1,0,2,0,3,,,,,,,,,,,,,,,,,,,,,,,,,,,,,,,,,,,,,,,,,
,,657079339d147ddcce1b8bb7,65af560ab89350ece997c577,2024-01-23_08h05.08.615,bars,2023.2.3,Win32,60.24096386,657b66ea316d21385b68909f,,,,,,,,,,,,,,,,,,,,,,,,,,,,,,,,,,,,,,,,,,234.4813,235.5303,right,1.035,,235.5304,3,2,236.5293,0,11,11,11,1,0,4,0,3,,,,,,,,,,,,,,,,,,,,,,,,,,,,,,,,,,,,,,,,,
,,657079339d147ddcce1b8bb7,65af560ab89350ece997c577,2024-01-23_08h05.08.615,bars,2023.2.3,Win32,60.24096386,657b66ea316d21385b68909f,,,,,,,,,,,,,,,,,,,,,,,,,,,,,,,,,,,,,,,,,,236.5306,237.6969,right,1.1514,,237.697,6,2,238.687,0,12,12,12,1,2,6,1,6,,,,,,,,,,,,,,,,,,,,,,,,,,,,,,,,,,,,,,,,,
,,657079339d147ddcce1b8bb7,65af560ab89350ece997c577,2024-01-23_08h05.08.615,bars,2023.2.3,Win32,60.24096386,657b66ea316d21385b68909f,,,,,,,,,,,,,,,,,,,,,,,,,,,,,,,,,,,,,,,,,,238.688,239.59,right,0.8868,,239.59,3,2,240.5868,0,13,13,13,1,0,4,1,3,,,,,,,,,,,,,,,,,,,,,,,,,,,,,,,,,,,,,,,,,
,,657079339d147ddcce1b8bb7,65af560ab89350ece997c577,2024-01-23_08h05.08.615,bars,2023.2.3,Win32,60.24096386,657b66ea316d21385b68909f,,,,,,,,,,,,,,,,,,,,,,,,,,,,,,,,,,,,,,,,,,240.5882,241.0051,left,0.4012,,241.0051,2,1,241.9943,0,14,14,14,1,2,6,2,7,,,,,,,,,,,,,,,,,,,,,,,,,,,,,,,,,,,,,,,,,
,,657079339d147ddcce1b8bb7,65af560ab89350ece997c577,2024-01-23_08h05.08.615,bars,2023.2.3,Win32,60.24096386,657b66ea316d21385b68909f,,,,,,,,,,,,,,,,,,,,,,,,,,,,,,,,,,,,,,,,,,241.9954,242.3805,right,0.3755,,242.3806,9,2,243.3772,0,15,15,15,1,4,8,3,9,,,,,,,,,,,,,,,,,,,,,,,,,,,,,,,,,,,,,,,,,
,,657079339d147ddcce1b8bb7,65af560ab89350ece997c577,2024-01-23_08h05.08.615,bars,2023.2.3,Win32,60.24096386,657b66ea316d21385b68909f,,,,,,,,,,,,,,,,,,,,,,,,,,,,,,,,,,,,,,,,,,243.3785,244.7778,left,1.3853,,244.7779,7,1,245.7768,0,16,16,16,1,6,6,7,7,,,,,,,,,,,,,,,,,,,,,,,,,,,,,,,,,,,,,,,,,
,,657079339d147ddcce1b8bb7,65af560ab89350ece997c577,2024-01-23_08h05.08.615,bars,2023.2.3,Win32,60.24096386,657b66ea316d21385b68909f,,,,,,,,,,,,,,,,,,,,,,,,,,,,,,,,,,,,,,,,,,245.7777,246.4106,left,0.6192,,246.4106,9,1,247.4096,0,17,17,17,1,8,4,9,5,,,,,,,,,,,,,,,,,,,,,,,,,,,,,,,,,,,,,,,,,
,,657079339d147ddcce1b8bb7,65af560ab89350ece997c577,2024-01-23_08h05.08.615,bars,2023.2.3,Win32,60.24096386,657b66ea316d21385b68909f,,,,,,,,,,,,,,,,,,,,,,,,,,,,,,,,,,,,,,,,,,247.4107,248.1438,left,0.7194,,248.144,5,1,249.1427,0,18,18,18,1,6,2,5,1,,,,,,,,,,,,,,,,,,,,,,,,,,,,,,,,,,,,,,,,,
,,657079339d147ddcce1b8bb7,65af560ab89350ece997c577,2024-01-23_08h05.08.615,bars,2023.2.3,Win32,60.24096386,657b66ea316d21385b68909f,,,,,,,,,,,,,,,,,,,,,,,,,,,,,,,,,,,,,,,,,,249.1438,249.8772,right,0.7181,,249.8772,0,2,250.875,0,19,19,19,1,8,0,7,0,,,,,,,,,,,,,,,,,,,,,,,,,,,,,,,,,,,,,,,,,
,,657079339d147ddcce1b8bb7,65af560ab89350ece997c577,2024-01-23_08h05.08.615,bars,2023.2.3,Win32,60.24096386,657b66ea316d21385b68909f,,,,,,,,,,,,,,,,,,,,,,,,,,,,,,,,,,,,,,,,,,,,,,,,,,,,,,,,,,,,250.8767,271.9046,space,20.958,,,,,,,,,,,,,,,,,,,,,,,,,,,,,,,,,,,,,
,,657079339d147ddcce1b8bb7,65af560ab89350ece997c577,2024-01-23_08h05.08.615,bars,2023.2.3,Win32,60.24096386,657b66ea316d21385b68909f,,,,,,,,,,,272.9132,273.903,,,274.4031,274.6527,,64,64,,,,,,,,,,,,,,,,bars/042.png,bars/mask007.png,,,,,,,,,,,,4,2,,,,,,,10,7,10,6,,,,,,271.9258,272.9038,space,0.9571,,273.9034,274.403,274.653,280.2361,space,5.5581,,280.2365,81,11,281.2348,281.2355,284.6016,space,3.2891,,0,0,0,0,1,145,75,,,,,,,,
,,657079339d147ddcce1b8bb7,65af560ab89350ece997c577,2024-01-23_08h05.08.615,bars,2023.2.3,Win32,60.24096386,657b66ea316d21385b68909f,,,,,,,,,,,284.617,285.6166,,,286.1167,286.3664,,106,106,,,,,,,,,,,,,,,,bars/015.png,bars/mask009.png,,,,,,,,,,,,4,1,,,,,,,8,5,5,5,,,,,,,,,,,285.6167,286.1165,286.3665,289.8326,space,3.4505,,289.8329,4,54,290.832,290.8321,294.8811,space,3.9713,,0,1,1,1,1,110,160,,,,,,,,
,,657079339d147ddcce1b8bb7,65af560ab89350ece997c577,2024-01-23_08h05.08.615,bars,2023.2.3,Win32,60.24096386,657b66ea316d21385b68909f,,,,,,,,,,,294.8942,295.8977,,,296.3972,296.6471,,56,56,,,,,,,,,,,,,,,,bars/010.png,bars/mask007.png,,,,,,,,,,,,3,2,,,,,,,10,3,10,3,,,,,,,,,,,295.8977,296.3972,296.6471,302.2483,space,5.5886,,302.2484,71,1,303.2456,303.2458,305.7284,space,2.4428,,0,2,2,2,1,165,55,,,,,,,,
,,657079339d147ddcce1b8bb7,65af560ab89350ece997c577,2024-01-23_08h05.08.615,bars,2023.2.3,Win32,60.24096386,657b66ea316d21385b68909f,,,,,,,,,,,305.7294,306.7275,,,307.2275,307.4776,,112,112,,,,,,,,,,,,,,,,bars/041.png,bars/mask008.png,,,,,,,,,,,,0,2,,,,,,,10,1,10,1,,,,,,,,,,,306.7282,307.2275,307.4776,314.0095,space,6.5162,,314.0096,88,27,315.009,315.0091,317.4854,space,2.4475,,0,3,3,3,1,20,85,,,,,,,,
,,657079339d147ddcce1b8bb7,65af560ab89350ece997c577,2024-01-23_08h05.08.615,bars,2023.2.3,Win32,60.24096386,657b66ea316d21385b68909f,,,,,,,,,,,317.4862,318.4845,,,318.9837,319.2335,,0,0,,,,,,,,,,,,,,,,bars/030.png,bars/mask007.png,,,,,,,,,,,,0,1,,,,,,,8,3,7,4,,,,,,,,,,,318.4847,318.9836,319.2335,325.6833,space,6.4335,,325.6834,40,65,326.6724,326.6725,328.3174,space,1.6056,,0,4,4,4,1,140,65,,,,,,,,
,,657079339d147ddcce1b8bb7,65af560ab89350ece997c577,2024-01-23_08h05.08.615,bars,2023.2.3,Win32,60.24096386,657b66ea316d21385b68909f,,,,,,,,,,,328.3182,329.3154,,,329.8139,330.0644,,48,48,,,,,,,,,,,,,,,,bars/034.png,bars/mask007.png,,,,,,,,,,,,2,2,,,,,,,10,5,9,4,,,,,,,,,,,329.3155,329.8139,330.0645,331.7987,space,1.7187,,331.7988,77,17,332.7964,332.7965,334.7986,space,1.9678,,0,5,5,5,1,125,65,,,,,,,,
,,657079339d147ddcce1b8bb7,65af560ab89350ece997c577,2024-01-23_08h05.08.615,bars,2023.2.3,Win32,60.24096386,657b66ea316d21385b68909f,,,,,,,,,,,334.7992,335.7954,,,336.2952,336.5452,,73,73,,,,,,,,,,,,,,,,bars/004.png,bars/mask008.png,,,,,,,,,,,,0,1,,,,,,,8,7,9,7,,,,,,,,,,,335.7955,336.2951,336.5454,338.3641,space,1.802,,338.3641,48,52,339.3532,339.3533,340.8027,space,1.4108,,0,6,6,6,1,25,125,,,,,,,,
,,657079339d147ddcce1b8bb7,65af560ab89350ece997c577,2024-01-23_08h05.08.615,bars,2023.2.3,Win32,60.24096386,657b66ea316d21385b68909f,,,,,,,,,,,340.8037,341.8028,,,342.3019,342.5519,,70,70,,,,,,,,,,,,,,,,bars/045.png,bars/mask000.png,,,,,,,,,,,,0,1,,,,,,,6,5,6,4,,,,,,,,,,,341.803,342.3018,342.552,344.7212,space,2.1587,,344.7212,30,60,345.7178,345.7178,347.0952,space,1.3489,,0,7,7,7,1,100,10,,,,,,,,
,,657079339d147ddcce1b8bb7,65af560ab89350ece997c577,2024-01-23_08h05.08.615,bars,2023.2.3,Win32,60.24096386,657b66ea316d21385b68909f,,,,,,,,,,,347.0958,348.0927,,,348.5918,348.8426,,29,29,,,,,,,,,,,,,,,,bars/034.png,bars/mask005.png,,,,,,,,,,,,0,2,,,,,,,8,7,9,9,,,,,,,,,,,348.0927,348.5914,348.8427,351.6438,space,2.7853,,351.6439,84,36,352.6409,352.6409,353.6094,space,0.9324,,0,8,8,8,1,125,65,,,,,,,,
,,657079339d147ddcce1b8bb7,65af560ab89350ece997c577,2024-01-23_08h05.08.615,bars,2023.2.3,Win32,60.24096386,657b66ea316d21385b68909f,,,,,,,,,,,353.61,354.6072,,,355.1077,355.3576,,63,63,,,,,,,,,,,,,,,,bars/043.png,bars/mask001.png,,,,,,,,,,,,0,1,,,,,,,10,9,10,9,,,,,,,,,,,354.6073,355.1076,355.3576,358.7082,space,3.3343,,358.7082,33,67,359.7059,359.706,360.9092,space,1.1676,,0,9,9,9,1,30,130,,,,,,,,
,,657079339d147ddcce1b8bb7,65af560ab89350ece997c577,2024-01-23_08h05.08.615,bars,2023.2.3,Win32,60.24096386,657b66ea316d21385b68909f,,,,,,,,,,,360.9099,361.9069,,,362.4053,362.6574,,135,135,,,,,,,,,,,,,,,,bars/023.png,bars/mask008.png,,,,,,,,,,,,3,2,,,,,,,10,10,10,10,,,,,,,,,,,361.907,362.4052,362.6575,364.2643,space,1.5858,,364.2644,65,20,365.2624,365.2625,366.4462,space,1.1454,,0,10,10,10,1,20,115,,,,,,,,
,,657079339d147ddcce1b8bb7,65af560ab89350ece997c577,2024-01-23_08h05.08.615,bars,2023.2.3,Win32,60.24096386,657b66ea316d21385b68909f,,,,,,,,,,,366.4471,367.4454,,,367.9454,368.1952,,62,62,,,,,,,,,,,,,,,,bars/030.png,bars/mask001.png,,,,,,,,,,,,8,2,,,,,,,10,10,10,9,,,,,,,,,,,367.4455,367.9452,368.1953,369.6617,space,1.4513,,369.6617,78,3,370.661,370.661,371.5879,space,0.8992,,0,11,11,11,1,140,65,,,,,,,,
,,657079339d147ddcce1b8bb7,65af560ab89350ece997c577,2024-01-23_08h05.08.615,bars,2023.2.3,Win32,60.24096386,657b66ea316d21385b68909f,,,,,,,,,,,371.5884,372.5795,,,373.0774,373.3268,,44,44,,,,,,,,,,,,,,,,bars/034.png,bars/mask001.png,,,,,,,,,,,,3,2,,,,,,,8,8,7,9,,,,,,,,,,,372.5796,373.0773,373.3268,375.0467,space,1.7086,,375.0468,81,21,376.043,376.043,377.2267,space,1.1645,,0,12,12,12,1,125,65,,,,,,,,
,,657079339d147ddcce1b8bb7,65af560ab89350ece997c577,2024-01-23_08h05.08.615,bars,2023.2.3,Win32,60.24096386,657b66ea316d21385b68909f,,,,,,,,,,,377.2276,378.2258,,,378.7257,378.9756,,82,82,,,,,,,,,,,,,,,,bars/024.png,bars/mask003.png,,,,,,,,,,,,0,1,,,,,,,10,10,10,10,,,,,,,,,,,378.2259,378.7255,378.9757,381.8617,space,2.8759,,381.8618,38,88,382.8581,382.8581,383.8913,space,0.9955,,0,13,13,13,1,120,170,,,,,,,,
,,657079339d147ddcce1b8bb7,65af560ab89350ece997c577,2024-01-23_08h05.08.615,bars,2023.2.3,Win32,60.24096386,657b66ea316d21385b68909f,,,,,,,,,,,383.8923,384.8907,,,385.3909,385.6407,,143,143,,,,,,,,,,,,,,,,bars/028.png,bars/mask007.png,,,,,,,,,,,,2,2,,,,,,,10,10,10,10,,,,,,,,,,,384.8908,385.3909,385.6407,391.4062,space,5.7506,,391.4063,82,23,392.4065,392.4066,393.8389,space,1.3958,,0,14,14,14,1,45,120,,,,,,,,
,,657079339d147ddcce1b8bb7,65af560ab89350ece997c577,2024-01-23_08h05.08.615,bars,2023.2.3,Win32,60.24096386,657b66ea316d21385b68909f,,,,,,,,,,,393.8397,394.8381,,,395.3384,395.5881,,70,70,,,,,,,,,,,,,,,,bars/031.png,bars/mask001.png,,,,,,,,,,,,0,2,,,,,,,8,8,8,8,,,,,,,,,,,394.8381,395.3383,395.5881,398.021,space,2.419,,398.0211,50,35,399.0204,399.0205,399.6383,space,0.5803,,0,15,15,15,1,120,35,,,,,,,,
,,657079339d147ddcce1b8bb7,65af560ab89350ece997c577,2024-01-23_08h05.08.615,bars,2023.2.3,Win32,60.24096386,657b66ea316d21385b68909f,,,,,,,,,,,399.6389,400.6376,,,401.1369,401.3877,,63,63,,,,,,,,,,,,,,,,bars/014.png,bars/mask004.png,,,,,,,,,,,,2,1,,,,,,,6,10,5,8,,,,,,,,,,,400.6376,401.1368,401.3879,404.9372,space,3.5374,,404.9374,17,63,405.936,405.9361,406.5462,space,0.5663,,0,16,16,16,1,80,0,,,,,,,,
,,657079339d147ddcce1b8bb7,65af560ab89350ece997c577,2024-01-23_08h05.08.615,bars,2023.2.3,Win32,60.24096386,657b66ea316d21385b68909f,,,,,,,,,,,406.5468,407.5438,,,408.0441,408.2932,,93,93,,,,,,,,,,,,,,,,bars/032.png,bars/mask000.png,,,,,,,,,,,,0,1,,,,,,,4,10,5,10,,,,,,,,,,,407.5438,408.044,408.2934,411.0281,space,2.7184,,411.0282,32,73,412.0255,412.0255,413.2177,space,1.1574,,0,17,17,17,1,125,20,,,,,,,,
,,657079339d147ddcce1b8bb7,65af560ab89350ece997c577,2024-01-23_08h05.08.615,bars,2023.2.3,Win32,60.24096386,657b66ea316d21385b68909f,,,,,,,,,,,413.2184,414.2165,,,414.7163,414.9664,,122,122,,,,,,,,,,,,,,,,bars/008.png,bars/mask006.png,,,,,,,,,,,,3,1,,,,,,,6,8,5,9,,,,,,,,,,,414.2166,414.7162,414.9665,419.3989,space,4.4174,,419.399,12,58,420.3985,420.3986,421.3317,space,0.8974,,0,18,18,18,1,110,0,,,,,,,,
,,657079339d147ddcce1b8bb7,65af560ab89350ece997c577,2024-01-23_08h05.08.615,bars,2023.2.3,Win32,60.24096386,657b66ea316d21385b68909f,,,,,,,,,,,421.3324,422.331,,,422.8307,423.0807,,112,112,,,,,,,,,,,,,,,,bars/021.png,bars/mask009.png,,,,,,,,,,,,0,2,,,,,,,8,10,9,10,,,,,,,,,,,422.3311,422.8304,423.0808,425.7827,space,2.6909,,425.7827,43,42,426.7792,426.7792,428.0463,space,1.2417,,0,19,19,19,1,155,70,,,,,,,,
,,657079339d147ddcce1b8bb7,65af560ab89350ece997c577,2024-01-23_08h05.08.615,bars,2023.2.3,Win32,60.24096386,657b66ea316d21385b68909f,,,,,,,,,,,428.0475,429.046,,,429.5466,429.7958,,52,52,,,,,,,,,,,,,,,,bars/005.png,bars/mask002.png,,,,,,,,,,,,0,1,,,,,,,10,10,10,9,,,,,,,,,,,429.0461,429.5465,429.7958,432.1621,space,2.3516,,432.1622,42,88,433.1609,433.161,433.8295,space,0.6247,,0,20,20,20,1,10,140,,,,,,,,
,,657079339d147ddcce1b8bb7,65af560ab89350ece997c577,2024-01-23_08h05.08.615,bars,2023.2.3,Win32,60.24096386,657b66ea316d21385b68909f,,,,,,,,,,,433.8305,434.8278,,,435.3276,435.5775,,157,157,,,,,,,,,,,,,,,,bars/048.png,bars/mask006.png,,,,,,,,,,,,3,2,,,,,,,10,8,10,8,,,,,,,,,,,434.8278,435.3276,435.5777,438.2105,space,2.6172,,438.2106,73,18,439.2965,439.2966,440.1935,space,0.8468,,0,21,21,21,1,50,175,,,,,,,,
,,657079339d147ddcce1b8bb7,65af560ab89350ece997c577,2024-01-23_08h05.08.615,bars,2023.2.3,Win32,60.24096386,657b66ea316d21385b68909f,,,,,,,,,,,440.1944,441.1925,,,441.6928,441.9441,,48,48,,,,,,,,,,,,,,,,bars/036.png,bars/mask002.png,,,,,,,,,,,,0,2,,,,,,,8,6,8,4,,,,,,,,,,,441.1925,441.6928,441.9442,445.4586,space,3.4999,,445.4587,83,28,446.4467,446.4468,447.086,space,0.6096,,0,22,22,22,1,145,20,,,,,,,,
,,657079339d147ddcce1b8bb7,65af560ab89350ece997c577,2024-01-23_08h05.08.615,bars,2023.2.3,Win32,60.24096386,657b66ea316d21385b68909f,,,,,,,,,,,447.0866,448.0834,,,448.5823,448.833,,170,170,,,,,,,,,,,,,,,,bars/017.png,bars/mask003.png,,,,,,,,,,,,1,1,,,,,,,6,4,5,4,,,,,,,,,,,448.0834,448.5822,448.8331,452.2841,space,3.4353,,452.2843,25,55,453.2818,453.282,454.7408,space,1.4192,,0,23,23,23,1,145,45,,,,,,,,
,,657079339d147ddcce1b8bb7,65af560ab89350ece997c577,2024-01-23_08h05.08.615,bars,2023.2.3,Win32,60.24096386,657b66ea316d21385b68909f,,,,,,,,,,,454.7417,455.7391,,,456.2389,456.4887,,148,148,,,,,,,,,,,,,,,,bars/021.png,bars/mask008.png,,,,,,,,,,,,6,1,,,,,,,8,6,8,7,,,,,,,,,,,455.7392,456.2389,456.4888,458.7397,space,2.2402,,458.7397,7,78,459.7379,459.7381,460.4984,space,0.7326,,0,24,24,24,1,155,70,,,,,,,,
,,657079339d147ddcce1b8bb7,65af560ab89350ece997c577,2024-01-23_08h05.08.615,bars,2023.2.3,Win32,60.24096386,657b66ea316d21385b68909f,,,,,,,,,,,460.499,461.4958,,,461.9963,462.2462,,0,0,,,,,,,,,,,,,,,,bars/048.png,bars/mask006.png,,,,,,,,,,,,6,2,,,,,,,6,8,7,7,,,,,,,,,,,461.4959,461.9959,462.2465,466.114,space,3.8516,,466.1141,50,5,467.1117,467.1117,467.7638,space,0.6159,,0,25,25,25,1,50,175,,,,,,,,
,,657079339d147ddcce1b8bb7,65af560ab89350ece997c577,2024-01-23_08h05.08.615,bars,2023.2.3,Win32,60.24096386,657b66ea316d21385b68909f,,,,,,,,,,,467.7644,468.7613,,,469.2613,469.5111,,25,25,,,,,,,,,,,,,,,,bars/017.png,bars/mask001.png,,,,,,,,,,,,3,2,,,,,,,8,10,8,10,,,,,,,,,,,468.7614,469.2612,469.5111,472.1783,space,2.6511,,472.1784,60,20,473.1769,473.1772,474.0963,space,0.9032,,0,26,26,26,1,145,45,,,,,,,,
,,657079339d147ddcce1b8bb7,65af560ab89350ece997c577,2024-01-23_08h05.08.615,bars,2023.2.3,Win32,60.24096386,657b66ea316d21385b68909f,,,,,,,,,,,474.0969,475.0931,,,475.593,475.842,,88,88,,,,,,,,,,,,,,,,bars/040.png,bars/mask007.png,,,,,,,,,,,,0,1,,,,,,,6,10,6,10,,,,,,,,,,,475.0931,475.593,475.8423,491.3744,space,15.5148,,491.3745,52,83,492.3634,492.3635,493.2493,space,0.8481,,0,27,27,27,1,140,5,,,,,,,,
,,657079339d147ddcce1b8bb7,65af560ab89350ece997c577,2024-01-23_08h05.08.615,bars,2023.2.3,Win32,60.24096386,657b66ea316d21385b68909f,,,,,,,,,,,493.2499,494.2457,,,494.7458,494.9952,,153,153,,,,,,,,,,,,,,,,bars/003.png,bars/mask002.png,,,,,,,,,,,,6,2,,,,,,,8,10,9,10,,,,,,,,,,,494.2458,494.7457,494.9955,497.5785,space,2.5694,,497.5786,52,13,498.5779,498.5781,499.5947,space,0.975,,0,28,28,28,1,25,140,,,,,,,,
,,657079339d147ddcce1b8bb7,65af560ab89350ece997c577,2024-01-23_08h05.08.615,bars,2023.2.3,Win32,60.24096386,657b66ea316d21385b68909f,,,,,,,,,,,499.5957,500.5946,,,501.0941,501.3436,,142,142,,,,,,,,,,,,,,,,bars/045.png,bars/mask004.png,,,,,,,,,,,,0,1,,,,,,,10,10,10,10,,,,,,,,,,,500.5946,501.094,501.3439,503.7937,space,2.4347,,503.7937,42,48,504.7924,504.7925,505.9206,space,1.0851,,0,29,29,29,1,100,10,,,,,,,,
,,657079339d147ddcce1b8bb7,65af560ab89350ece997c577,2024-01-23_08h05.08.615,bars,2023.2.3,Win32,60.24096386,657b66ea316d21385b68909f,,,,,,,,,,,505.9211,506.9176,,,507.4195,507.6658,,1,181,,,,,,,,,,,,,,,,bars/024.png,bars/mask005.png,,,,,,,,,,,,4,2,,,,,,,8,8,9,7,,,,,,,,,,,506.9177,507.4195,507.6659,511.1191,space,3.4354,,511.1191,61,11,512.1084,512.1085,513.3762,space,1.2298,,0,30,30,30,1,120,170,,,,,,,,
,,657079339d147ddcce1b8bb7,65af560ab89350ece997c577,2024-01-23_08h05.08.615,bars,2023.2.3,Win32,60.24096386,657b66ea316d21385b68909f,,,,,,,,,,,513.3772,514.374,,,514.8738,515.1237,,31,31,,,,,,,,,,,,,,,,bars/026.png,bars/mask008.png,,,,,,,,,,,,7,1,,,,,,,10,6,8,8,,,,,,,,,,,514.374,514.8737,515.1237,517.4734,space,2.3347,,517.4734,4,54,518.4726,518.4727,520.4559,space,1.954,,0,31,31,31,1,35,85,,,,,,,,
,,657079339d147ddcce1b8bb7,65af560ab89350ece997c577,2024-01-23_08h05.08.615,bars,2023.2.3,Win32,60.24096386,657b66ea316d21385b68909f,,,,,,,,,,,520.4569,521.4554,,,521.9553,522.2051,,90,90,,,,,,,,,,,,,,,,bars/004.png,bars/mask002.png,,,,,,,,,,,,0,2,,,,,,,10,8,10,9,,,,,,,,,,,521.4555,521.9552,522.2052,524.5239,space,2.3084,,524.524,65,35,525.521,525.521,527.1543,space,1.592,,0,32,32,32,1,25,125,,,,,,,,
,,657079339d147ddcce1b8bb7,65af560ab89350ece997c577,2024-01-23_08h05.08.615,bars,2023.2.3,Win32,60.24096386,657b66ea316d21385b68909f,,,,,,,,,,,527.1551,528.1534,,,528.6534,528.9035,,90,90,,,,,,,,,,,,,,,,bars/015.png,bars/mask001.png,,,,,,,,,,,,3,1,,,,,,,10,10,10,10,,,,,,,,,,,528.1536,528.6534,528.9035,533.1691,space,4.2518,,533.1692,20,70,534.1688,534.1688,534.9725,space,0.7661,,0,33,33,33,1,110,160,,,,,,,,
,,657079339d147ddcce1b8bb7,65af560ab89350ece997c577,2024-01-23_08h05.08.615,bars,2023.2.3,Win32,60.24096386,657b66ea316d21385b68909f,,,,,,,,,,,534.973,535.968,,,536.4679,536.7181,,129,129,,,,,,,,,,,,,,,,bars/040.png,bars/mask000.png,,,,,,,,,,,,4,1,,,,,,,8,8,7,9,,,,,,,,,,,535.9681,536.4676,536.7182,538.8701,space,2.1402,,538.8702,11,56,539.8672,539.8673,541.2109,space,1.3162,,0,34,34,34,1,140,5,,,,,,,,
,,657079339d147ddcce1b8bb7,65af560ab89350ece997c577,2024-01-23_08h05.08.615,bars,2023.2.3,Win32,60.24096386,657b66ea316d21385b68909f,,,,,,,,,,,541.2116,542.209,,,542.7084,542.9606,,30,30,,,,,,,,,,,,,,,,bars/036.png,bars/mask009.png,,,,,,,,,,,,6,2,,,,,,,6,10,6,9,,,,,,,,,,,542.2091,542.7083,542.9606,548.4924,space,5.5181,,548.4925,65,10,549.49,549.4901,563.2948,space,13.76,,0,35,35,35,1,145,20,,,,,,,,
,,657079339d147ddcce1b8bb7,65af560ab89350ece997c577,2024-01-23_08h05.08.615,bars,2023.2.3,Win32,60.24096386,657b66ea316d21385b68909f,,,,,,,,,,,563.3134,564.3029,,,564.8029,565.054,,135,135,,,,,,,,,,,,,,,,bars/006.png,bars/mask002.png,,,,,,,,,,,,0,2,,,,,,,4,8,3,6,,,,,,,,,,,564.3031,564.8028,565.0541,566.2213,space,1.1522,,566.2214,80,35,567.2191,567.2191,568.6698,space,1.4341,,0,36,36,36,1,35,100,,,,,,,,
,,657079339d147ddcce1b8bb7,65af560ab89350ece997c577,2024-01-23_08h05.08.615,bars,2023.2.3,Win32,60.24096386,657b66ea316d21385b68909f,,,,,,,,,,,568.6704,569.6705,,,570.1688,570.4192,,0,0,,,,,,,,,,,,,,,,bars/010.png,bars/mask008.png,,,,,,,,,,,,3,1,,,,,,,6,10,6,10,,,,,,,,,,,569.6706,570.1675,570.4193,575.9183,space,5.4844,,575.9183,15,55,576.9157,576.9157,577.6244,space,0.6716,,0,37,37,37,1,165,55,,,,,,,,
,,657079339d147ddcce1b8bb7,65af560ab89350ece997c577,2024-01-23_08h05.08.615,bars,2023.2.3,Win32,60.24096386,657b66ea316d21385b68909f,,,,,,,,,,,577.6253,578.6235,,,579.1237,579.3736,,152,152,,,,,,,,,,,,,,,,bars/021.png,bars/mask008.png,,,,,,,,,,,,9,1,,,,,,,8,10,10,10,,,,,,,,,,,578.6238,579.1237,579.3736,583.5061,space,4.1186,,583.5061,3,82,584.5055,584.5056,585.5564,space,1.0135,,0,38,38,38,1,155,70,,,,,,,,
,,657079339d147ddcce1b8bb7,65af560ab89350ece997c577,2024-01-23_08h05.08.615,bars,2023.2.3,Win32,60.24096386,657b66ea316d21385b68909f,,,,,,,,,,,585.557,586.5558,,,587.0558,587.3051,,120,120,,,,,,,,,,,,,,,,bars/008.png,bars/mask000.png,,,,,,,,,,,,6,1,,,,,,,10,8,9,7,,,,,,,,,,,586.5558,587.0556,587.3052,590.5652,space,3.2509,,590.5652,10,60,591.5639,591.5639,592.4872,space,0.8896,,0,39,39,39,1,110,0,,,,,,,,
,,657079339d147ddcce1b8bb7,65af560ab89350ece997c577,2024-01-23_08h05.08.615,bars,2023.2.3,Win32,60.24096386,657b66ea316d21385b68909f,,,,,,,,,,,592.4881,593.4883,,,593.988,594.2362,,0,0,,,,,,,,,,,,,,,,bars/017.png,bars/mask007.png,,,,,,,,,,,,0,1,,,,,,,10,6,9,5,,,,,,,,,,,593.4884,593.988,594.2362,595.7695,space,1.5177,,595.7696,35,45,596.7691,596.7692,598.5855,space,1.7948,,0,40,40,40,1,145,45,,,,,,,,
,,657079339d147ddcce1b8bb7,65af560ab89350ece997c577,2024-01-23_08h05.08.615,bars,2023.2.3,Win32,60.24096386,657b66ea316d21385b68909f,,,,,,,,,,,598.5866,599.585,,,600.085,600.3347,,150,-30,,,,,,,,,,,,,,,,bars/018.png,bars/mask008.png,,,,,,,,,,,,9,1,,,,,,,10,4,9,5,,,,,,,,,,,599.5852,600.0849,600.3349,605.6004,space,5.2513,,605.6005,0,60,606.5993,606.5996,607.0783,space,0.4513,,0,41,41,41,1,150,90,,,,,,,,
,,657079339d147ddcce1b8bb7,65af560ab89350ece997c577,2024-01-23_08h05.08.615,bars,2023.2.3,Win32,60.24096386,657b66ea316d21385b68909f,,,,,,,,,,,607.079,608.0748,,,608.5745,608.8236,,57,57,,,,,,,,,,,,,,,,bars/035.png,bars/mask003.png,,,,,,,,,,,,2,2,,,,,,,8,2,10,2,,,,,,,,,,,608.0748,608.5744,608.8238,613.1256,space,4.2842,,613.1257,62,3,614.1227,614.1227,615.7422,space,1.5844,,0,42,42,42,1,175,60,,,,,,,,
,,657079339d147ddcce1b8bb7,65af560ab89350ece997c577,2024-01-23_08h05.08.615,bars,2023.2.3,Win32,60.24096386,657b66ea316d21385b68909f,,,,,,,,,,,615.7428,616.7391,,,617.239,617.4896,,51,51,,,,,,,,,,,,,,,,bars/019.png,bars/mask000.png,,,,,,,,,,,,5,1,,,,,,,6,4,6,3,,,,,,,,,,,616.7392,617.239,617.4896,618.2575,space,0.7525,,618.2576,6,54,619.2553,619.2554,619.9919,space,0.7172,,0,43,43,43,1,45,105,,,,,,,,
,,657079339d147ddcce1b8bb7,65af560ab89350ece997c577,2024-01-23_08h05.08.615,bars,2023.2.3,Win32,60.24096386,657b66ea316d21385b68909f,,,,,,,,,,,619.9925,620.988,,,621.488,621.7364,,53,53,,,,,,,,,,,,,,,,bars/012.png,bars/mask006.png,,,,,,,,,,,,0,1,,,,,,,4,2,4,4,,,,,,,,,,,620.988,621.4879,621.7364,630.3443,space,8.5856,,630.3443,37,38,631.3434,631.3435,632.4044,space,1.0319,,0,44,44,44,1,90,15,,,,,,,,
,,657079339d147ddcce1b8bb7,65af560ab89350ece997c577,2024-01-23_08h05.08.615,bars,2023.2.3,Win32,60.24096386,657b66ea316d21385b68909f,,,,,,,,,,,632.4049,633.4018,,,633.9017,634.1516,,45,45,,,,,,,,,,,,,,,,bars/025.png,bars/mask009.png,,,,,,,,,,,,2,2,,,,,,,2,0,2,2,,,,,,,,,,,633.4019,633.9017,634.1517,637.4526,space,3.2847,,637.4527,60,5,638.4494,638.4497,639.2921,space,0.7621,,0,45,45,45,1,105,40,,,,,,,,
,,657079339d147ddcce1b8bb7,65af560ab89350ece997c577,2024-01-23_08h05.08.615,bars,2023.2.3,Win32,60.24096386,657b66ea316d21385b68909f,,,,,,,,,,,639.2928,640.291,,,640.7911,641.0407,,118,118,,,,,,,,,,,,,,,,bars/027.png,bars/mask004.png,,,,,,,,,,,,4,1,,,,,,,4,0,5,0,,,,,,,,,,,640.2911,640.7911,641.0408,644.1728,space,3.1194,,644.1733,8,68,645.1732,645.1732,646.3268,space,1.119,,0,46,46,46,1,110,50,,,,,,,,
,,657079339d147ddcce1b8bb7,65af560ab89350ece997c577,2024-01-23_08h05.08.615,bars,2023.2.3,Win32,60.24096386,657b66ea316d21385b68909f,,,,,,,,,,,646.3282,647.3226,,,647.8226,648.0726,,0,0,,,,,,,,,,,,,,,,bars/022.png,bars/mask007.png,,,,,,,,,,,,1,2,,,,,,,2,2,3,3,,,,,,,,,,,647.3227,647.8225,648.0726,651.6993,space,3.6158,,651.6995,85,20,652.6961,652.6961,654.248,space,1.5163,,0,47,47,47,1,95,20,,,,,,,,
,,657079339d147ddcce1b8bb7,65af560ab89350ece997c577,2024-01-23_08h05.08.615,bars,2023.2.3,Win32,60.24096386,657b66ea316d21385b68909f,,,,,,,,,,,654.2486,655.2457,,,655.7457,655.9955,,45,45,,,,,,,,,,,,,,,,bars/025.png,bars/mask002.png,,,,,,,,,,,,3,2,,,,,,,0,4,0,3,,,,,,,,,,,655.2457,655.7457,655.9955,660.5141,space,4.502,,660.5142,60,5,661.5107,661.5107,662.788,space,1.2456,,0,48,48,48,1,105,40,,,,,,,,
,,657079339d147ddcce1b8bb7,65af560ab89350ece997c577,2024-01-23_08h05.08.615,bars,2023.2.3,Win32,60.24096386,657b66ea316d21385b68909f,,,,,,,,,,,662.7885,663.785,,,664.285,664.5349,,146,146,,,,,,,,,,,,,,,,bars/039.png,bars/mask006.png,,,,,,,,,,,,0,1,,,,,,,0,2,1,2,,,,,,,,,,,663.785,664.285,664.5349,667.9176,space,3.3685,,667.9176,29,41,668.9171,668.9172,669.7171,space,0.76,,0,49,49,49,1,175,105,,,,,,,,
,,657079339d147ddcce1b8bb7,65af560ab89350ece997c577,2024-01-23_08h05.08.615,bars,2023.2.3,Win32,60.24096386,657b66ea316d21385b68909f,,,,,,,,,,,,,,,,,,,,,,,,,,,,,,,,,,,,,,,,,,,,,,,,,,,,,,,,,,,,,,,,,,,,,,,,,,,,,,,,,,,,,,,,,,,,,669.7189,729.7192,0,0,0,2,1,sequence_tables/blk039.csv
,,657079339d147ddcce1b8bb7,65af560ab89350ece997c577,2024-01-23_08h05.08.615,bars,2023.2.3,Win32,60.24096386,657b66ea316d21385b68909f,,,,,,,,,,,752.5561,753.5451,,,754.0451,754.2945,,9,9,,,,,,,,,,,,,,,,bars/029.png,bars/mask002.png,,,,,,,,,,,,0,2,,,,,,,2,3,5,3,,,,,,729.7339,752.53,space,22.7802,,753.5451,754.045,754.2949,758.762,space,4.4562,,758.7621,81,36,759.7601,759.7601,759.7781,,,,0,0,0,0,1,90,45,,,,,,,,
,,657079339d147ddcce1b8bb7,65af560ab89350ece997c577,2024-01-23_08h05.08.615,bars,2023.2.3,Win32,60.24096386,657b66ea316d21385b68909f,,,,,,,,,,,759.7789,760.7684,,,761.2687,761.5185,,146,146,,,,,,,,,,,,,,,,bars/023.png,bars/mask009.png,,,,,,,,,,,,0,2,,,,,,,4,1,3,1,,,,,,,,,,,760.7685,761.2686,761.5186,765.0362,space,3.5017,,765.0363,54,31,766.0337,766.0338,766.0486,,,,0,1,1,1,1,20,115,,,,,,,,
,,657079339d147ddcce1b8bb7,65af560ab89350ece997c577,2024-01-23_08h05.08.615,bars,2023.2.3,Win32,60.24096386,657b66ea316d21385b68909f,,,,,,,,,,,766.0492,767.0416,,,767.5411,767.7911,,166,166,,,,,,,,,,,,,,,,bars/031.png,bars/mask008.png,,,,,,,,,,,,0,1,,,,,,,6,0,5,0,,,,,,,,,,,767.0417,767.5408,767.7912,774.0566,space,6.2523,,774.0566,46,49,775.0559,775.056,775.0761,,,,0,2,2,2,1,120,35,,,,,,,,
,,657079339d147ddcce1b8bb7,65af560ab89350ece997c577,2024-01-23_08h05.08.615,bars,2023.2.3,Win32,60.24096386,657b66ea316d21385b68909f,,,,,,,,,,,775.0766,776.0722,,,776.5726,776.8234,,90,90,,,,,,,,,,,,,,,,bars/028.png,bars/mask008.png,,,,,,,,,,,,0,2,,,,,,,4,2,4,2,,,,,,,,,,,776.0726,776.5725,776.8235,780.8048,space,3.9692,,780.8049,45,30,781.8043,781.8043,781.8239,,,,0,3,3,3,1,45,120,,,,,,,,
,,657079339d147ddcce1b8bb7,65af560ab89350ece997c577,2024-01-23_08h05.08.615,bars,2023.2.3,Win32,60.24096386,657b66ea316d21385b68909f,,,,,,,,,,,781.8246,782.8212,,,783.3212,783.5708,,90,90,,,,,,,,,,,,,,,,bars/009.png,bars/mask005.png,,,,,,,,,,,,2,2,,,,,,,6,4,6,4,,,,,,,,,,,782.8213,783.3211,783.571,787.0042,space,3.4197,,787.0043,75,15,788.0032,788.0032,788.0167,,,,0,4,4,4,1,15,105,,,,,,,,
,,657079339d147ddcce1b8bb7,65af560ab89350ece997c577,2024-01-23_08h05.08.615,bars,2023.2.3,Win32,60.24096386,657b66ea316d21385b68909f,,,,,,,,,,,788.0193,789.0199,,,789.5198,789.7697,,90,90,,,,,,,,,,,,,,,,bars/014.png,bars/mask001.png,,,,,,,,,,,,2,1,,,,,,,4,2,3,2,,,,,,,,,,,789.0199,789.5197,789.7697,796.9199,space,7.1337,,796.9199,10,90,797.9168,797.9169,797.9377,,,,0,5,5,5,1,80,0,,,,,,,,
,,657079339d147ddcce1b8bb7,65af560ab89350ece997c577,2024-01-23_08h05.08.615,bars,2023.2.3,Win32,60.24096386,657b66ea316d21385b68909f,,,,,,,,,,,797.9384,798.9418,,,799.4421,799.692,,0,180,,,,,,,,,,,,,,,,bars/007.png,bars/mask004.png,,,,,,,,,,,,2,1,,,,,,,2,4,2,5,,,,,,,,,,,798.9418,799.442,799.692,804.5934,space,4.8862,,804.5934,5,55,805.5899,805.5901,805.6049,,,,0,6,6,6,1,175,55,,,,,,,,
,,657079339d147ddcce1b8bb7,65af560ab89350ece997c577,2024-01-23_08h05.08.615,bars,2023.2.3,Win32,60.24096386,657b66ea316d21385b68909f,,,,,,,,,,,805.606,806.5979,,,807.0978,807.3482,,90,90,,,,,,,,,,,,,,,,bars/034.png,bars/mask002.png,,,,,,,,,,,,0,2,,,,,,,4,2,5,2,,,,,,,,,,,806.5979,807.0977,807.3482,811.4142,space,4.0536,,811.4142,35,25,812.4128,812.413,812.4317,,,,0,7,7,7,1,125,65,,,,,,,,
,,657079339d147ddcce1b8bb7,65af560ab89350ece997c577,2024-01-23_08h05.08.615,bars,2023.2.3,Win32,60.24096386,657b66ea316d21385b68909f,,,,,,,,,,,812.4323,813.4217,,,813.9231,814.1712,,113,113,,,,,,,,,,,,,,,,bars/004.png,bars/mask004.png,,,,,,,,,,,,4,2,,,,,,,2,4,2,6,,,,,,,,,,,813.4217,813.923,814.1712,817.1396,space,2.9522,,817.1396,88,12,818.129,818.129,818.144,,,,0,8,8,8,1,25,125,,,,,,,,
,,657079339d147ddcce1b8bb7,65af560ab89350ece997c577,2024-01-23_08h05.08.615,bars,2023.2.3,Win32,60.24096386,657b66ea316d21385b68909f,,,,,,,,,,,818.145,819.145,,,819.6454,819.895,,33,33,,,,,,,,,,,,,,,,bars/040.png,bars/mask005.png,,,,,,,,,,,,0,2,,,,,,,0,2,0,2,,,,,,,,,,,819.1451,819.6452,819.895,823.4805,space,3.5767,,823.4806,73,28,824.4769,824.477,824.4909,,,,0,9,9,9,1,140,5,,,,,,,,
,,657079339d147ddcce1b8bb7,65af560ab89350ece997c577,2024-01-23_08h05.08.615,bars,2023.2.3,Win32,60.24096386,657b66ea316d21385b68909f,,,,,,,,,,,824.4931,825.4939,,,825.9935,826.2432,,0,180,,,,,,,,,,,,,,,,bars/001.png,bars/mask004.png,,,,,,,,,,,,0,1,,,,,,,0,4,0,5,,,,,,,,,,,825.494,825.9934,826.2433,830.1266,space,3.8725,,830.1268,50,85,831.1255,831.1257,831.147,,,,0,10,10,10,1,130,85,,,,,,,,
,,657079339d147ddcce1b8bb7,65af560ab89350ece997c577,2024-01-23_08h05.08.615,bars,2023.2.3,Win32,60.24096386,657b66ea316d21385b68909f,,,,,,,,,,,831.1476,832.1429,,,832.6418,832.8921,,29,29,,,,,,,,,,,,,,,,bars/002.png,bars/mask008.png,,,,,,,,,,,,0,2,,,,,,,2,2,1,0,,,,,,,,,,,832.1429,832.6417,832.8922,837.9261,space,5.0261,,837.9262,79,56,838.9272,838.9272,838.9517,,,,0,11,11,11,1,130,85,,,,,,,,
,,657079339d147ddcce1b8bb7,65af560ab89350ece997c577,2024-01-23_08h05.08.615,bars,2023.2.3,Win32,60.24096386,657b66ea316d21385b68909f,,,,,,,,,,,838.9563,839.9579,,,840.4556,840.7061,,171,171,,,,,,,,,,,,,,,,bars/037.png,bars/mask005.png,,,,,,,,,,,,2,1,,,,,,,4,4,5,5,,,,,,,,,,,839.9579,840.4555,840.7061,842.2888,space,1.5671,,842.2889,21,66,843.2882,843.2883,843.3073,,,,0,12,12,12,1,150,105,,,,,,,,
,,657079339d147ddcce1b8bb7,65af560ab89350ece997c577,2024-01-23_08h05.08.615,bars,2023.2.3,Win32,60.24096386,657b66ea316d21385b68909f,,,,,,,,,,,843.3079,844.2962,,,844.7958,845.046,,159,159,,,,,,,,,,,,,,,,bars/039.png,bars/mask004.png,,,,,,,,,,,,0,1,,,,,,,2,2,0,3,,,,,,,,,,,844.2962,844.7957,845.046,848.3635,space,3.3011,,848.3635,16,54,849.3617,849.3621,849.3772,,,,0,13,13,13,1,175,105,,,,,,,,
,,657079339d147ddcce1b8bb7,65af560ab89350ece997c577,2024-01-23_08h05.08.615,bars,2023.2.3,Win32,60.24096386,657b66ea316d21385b68909f,,,,,,,,,,,849.3776,850.3702,,,850.8695,851.1197,,21,21,,,,,,,,,,,,,,,,bars/039.png,bars/mask006.png,,,,,,,,,,,,1,1,,,,,,,4,4,5,4,,,,,,,,,,,850.3703,850.8694,851.1197,860.6871,space,9.557,,860.6872,26,84,861.6851,861.6851,861.7022,,,,0,14,14,14,1,175,105,,,,,,,,
,,657079339d147ddcce1b8bb7,65af560ab89350ece997c577,2024-01-23_08h05.08.615,bars,2023.2.3,Win32,60.24096386,657b66ea316d21385b68909f,,,,,,,,,,,861.7027,862.6927,,,863.1921,863.4424,,72,72,,,,,,,,,,,,,,,,bars/022.png,bars/mask002.png,,,,,,,,,,,,0,1,,,,,,,2,6,1,7,,,,,,,,,,,862.6928,863.192,863.4424,865.7101,space,2.2519,,865.7101,23,52,866.7074,866.7075,866.7231,,,,0,15,15,15,1,95,20,,,,,,,,
,,657079339d147ddcce1b8bb7,65af560ab89350ece997c577,2024-01-23_08h05.08.615,bars,2023.2.3,Win32,60.24096386,657b66ea316d21385b68909f,,,,,,,,,,,866.7237,867.715,,,868.215,868.4648,,90,90,,,,,,,,,,,,,,,,bars/000.png,bars/mask006.png,,,,,,,,,,,,0,1,,,,,,,4,4,2,5,,,,,,,,,,,867.7151,868.2149,868.4649,872.8142,space,4.3265,,872.8143,50,55,873.8137,873.8139,873.8281,,,,0,16,16,16,1,40,145,,,,,,,,
,,657079339d147ddcce1b8bb7,65af560ab89350ece997c577,2024-01-23_08h05.08.615,bars,2023.2.3,Win32,60.24096386,657b66ea316d21385b68909f,,,,,,,,,,,873.8295,874.8302,,,875.33,875.5799,,52,52,,,,,,,,,,,,,,,,bars/032.png,bars/mask005.png,,,,,,,,,,,,0,2,,,,,,,6,2,5,2,,,,,,,,,,,874.8302,875.3297,875.5799,878.03,space,2.4347,,878.0301,73,32,879.0288,879.029,879.0484,,,,0,17,17,17,1,125,20,,,,,,,,
,,657079339d147ddcce1b8bb7,65af560ab89350ece997c577,2024-01-23_08h05.08.615,bars,2023.2.3,Win32,60.24096386,657b66ea316d21385b68909f,,,,,,,,,,,879.049,880.0376,,,880.5375,880.7874,,35,35,,,,,,,,,,,,,,,,bars/012.png,bars/mask009.png,,,,,,,,,,,,1,2,,,,,,,8,4,7,3,,,,,,,,,,,880.0376,880.5374,880.7874,883.638,space,2.8347,,883.638,55,20,884.6361,884.6361,884.652,,,,0,18,18,18,1,90,15,,,,,,,,
,,657079339d147ddcce1b8bb7,65af560ab89350ece997c577,2024-01-23_08h05.08.615,bars,2023.2.3,Win32,60.24096386,657b66ea316d21385b68909f,,,,,,,,,,,884.6526,885.6436,,,886.1438,886.3939,,105,105,,,,,,,,,,,,,,,,bars/027.png,bars/mask003.png,,,,,,,,,,,,4,1,,,,,,,6,2,5,3,,,,,,,,,,,885.644,886.1437,886.3939,890.4929,space,4.0844,,890.4929,5,55,891.4924,891.4925,891.5104,,,,0,19,19,19,1,110,50,,,,,,,,
,,657079339d147ddcce1b8bb7,65af560ab89350ece997c577,2024-01-23_08h05.08.615,bars,2023.2.3,Win32,60.24096386,657b66ea316d21385b68909f,,,,,,,,,,,891.5115,892.5007,,,893.004,893.2512,,103,103,,,,,,,,,,,,,,,,bars/039.png,bars/mask004.png,,,,,,,,,,,,2,2,,,,,,,8,4,8,2,,,,,,,,,,,892.5007,893.004,893.2512,893.4024,space,0.1354,,893.4024,72,2,894.3988,894.3989,894.4047,,,,0,20,20,20,1,175,105,,,,,,,,
,,657079339d147ddcce1b8bb7,65af560ab89350ece997c577,2024-01-23_08h05.08.615,bars,2023.2.3,Win32,60.24096386,657b66ea316d21385b68909f,,,,,,,,,,,894.4077,895.4,,,895.9001,896.15,,60,60,,,,,,,,,,,,,,,,bars/008.png,bars/mask005.png,,,,,,,,,,,,0,1,,,,,,,6,6,5,6,,,,,,,,,,,895.4001,895.9001,896.15,898.6174,space,2.4511,,898.6174,50,60,899.607,899.607,899.6246,,,,0,21,21,21,1,110,0,,,,,,,,
,,657079339d147ddcce1b8bb7,65af560ab89350ece997c577,2024-01-23_08h05.08.615,bars,2023.2.3,Win32,60.24096386,657b66ea316d21385b68909f,,,,,,,,,,,899.6251,900.6153,,,901.1153,901.3651,,33,33,,,,,,,,,,,,,,,,bars/000.png,bars/mask001.png,,,,,,,,,,,,7,1,,,,,,,8,4,9,4,,,,,,,,,,,900.6153,901.115,901.3652,903.75,space,2.3685,,903.7501,7,68,904.7398,904.7398,904.7575,,,,0,22,22,22,1,40,145,,,,,,,,
,,657079339d147ddcce1b8bb7,65af560ab89350ece997c577,2024-01-23_08h05.08.615,bars,2023.2.3,Win32,60.24096386,657b66ea316d21385b68909f,,,,,,,,,,,904.7584,905.756,,,906.2561,906.506,,103,103,,,,,,,,,,,,,,,,bars/028.png,bars/mask002.png,,,,,,,,,,,,1,2,,,,,,,10,2,10,2,,,,,,,,,,,905.7561,906.256,906.506,908.2248,space,1.7104,,908.2249,58,17,909.2217,909.2218,909.2265,,,,0,23,23,23,1,45,120,,,,,,,,
,,657079339d147ddcce1b8bb7,65af560ab89350ece997c577,2024-01-23_08h05.08.615,bars,2023.2.3,Win32,60.24096386,657b66ea316d21385b68909f,,,,,,,,,,,909.2272,910.2217,,,910.7216,910.9713,,91,91,,,,,,,,,,,,,,,,bars/020.png,bars/mask009.png,,,,,,,,,,,,2,1,,,,,,,10,4,10,6,,,,,,,,,,,910.2217,910.7215,910.9714,914.4037,space,3.422,,914.4038,24,79,915.4043,915.4044,915.4229,,,,0,24,24,24,1,115,170,,,,,,,,
,,657079339d147ddcce1b8bb7,65af560ab89350ece997c577,2024-01-23_08h05.08.615,bars,2023.2.3,Win32,60.24096386,657b66ea316d21385b68909f,,,,,,,,,,,915.4234,916.4199,,,916.92,917.1698,,174,174,,,,,,,,,,,,,,,,bars/007.png,bars/mask009.png,,,,,,,,,,,,9,1,,,,,,,10,6,9,7,,,,,,,,,,,916.42,916.9199,917.1698,919.6364,space,2.4513,,919.6364,1,61,920.6356,920.6357,920.6493,,,,0,25,25,25,1,175,55,,,,,,,,
,,657079339d147ddcce1b8bb7,65af560ab89350ece997c577,2024-01-23_08h05.08.615,bars,2023.2.3,Win32,60.24096386,657b66ea316d21385b68909f,,,,,,,,,,,920.6518,921.6518,,,922.1515,922.4019,,32,32,,,,,,,,,,,,,,,,bars/035.png,bars/mask005.png,,,,,,,,,,,,1,2,,,,,,,10,8,10,8,,,,,,,,,,,921.6519,922.1514,922.4019,925.3201,space,2.9101,,925.3202,37,28,926.3168,926.3168,926.3355,,,,0,26,26,26,1,175,60,,,,,,,,
,,657079339d147ddcce1b8bb7,65af560ab89350ece997c577,2024-01-23_08h05.08.615,bars,2023.2.3,Win32,60.24096386,657b66ea316d21385b68909f,,,,,,,,,,,926.3361,927.3257,,,927.8273,928.0661,,140,140,,,,,,,,,,,,,,,,bars/037.png,bars/mask008.png,,,,,,,,,,,,7,1,,,,,,,10,10,10,10,,,,,,,,,,,927.3258,927.8273,928.0662,931.6988,space,3.6174,,931.6989,10,35,932.6979,932.6982,932.716,,,,0,27,27,27,1,150,105,,,,,,,,
,,657079339d147ddcce1b8bb7,65af560ab89350ece997c577,2024-01-23_08h05.08.615,bars,2023.2.3,Win32,60.24096386,657b66ea316d21385b68909f,,,,,,,,,,,932.7165,933.7066,,,934.2073,934.4567,,146,146,,,,,,,,,,,,,,,,bars/027.png,bars/mask009.png,,,,,,,,,,,,0,1,,,,,,,10,8,10,8,,,,,,,,,,,933.7067,934.2073,934.4567,935.1254,space,0.6527,,935.1255,36,84,936.1155,936.1155,936.117,,,,0,28,28,28,1,110,50,,,,,,,,
,,657079339d147ddcce1b8bb7,65af560ab89350ece997c577,2024-01-23_08h05.08.615,bars,2023.2.3,Win32,60.24096386,657b66ea316d21385b68909f,,,,,,,,,,,936.1176,937.1145,,,937.6145,937.8645,,144,144,,,,,,,,,,,,,,,,bars/034.png,bars/mask000.png,,,,,,,,,,,,3,1,,,,,,,8,10,8,10,,,,,,,,,,,937.1145,937.6144,937.8646,941.2322,space,3.3583,,941.2322,19,79,942.2299,942.2299,942.2452,,,,0,29,29,29,1,125,65,,,,,,,,
,,657079339d147ddcce1b8bb7,65af560ab89350ece997c577,2024-01-23_08h05.08.615,bars,2023.2.3,Win32,60.24096386,657b66ea316d21385b68909f,,,,,,,,,,,942.246,943.2464,,,943.7481,943.9962,,49,49,,,,,,,,,,,,,,,,bars/025.png,bars/mask007.png,,,,,,,,,,,,7,2,,,,,,,6,10,7,10,,,,,,,,,,,943.2466,943.7481,943.9962,947.8448,space,3.8351,,947.8449,56,9,948.8442,948.8443,948.8624,,,,0,30,30,30,1,105,40,,,,,,,,
,,657079339d147ddcce1b8bb7,65af560ab89350ece997c577,2024-01-23_08h05.08.615,bars,2023.2.3,Win32,60.24096386,657b66ea316d21385b68909f,,,,,,,,,,,948.8631,949.8528,,,950.3531,950.6027,,50,50,,,,,,,,,,,,,,,,bars/011.png,bars/mask009.png,,,,,,,,,,,,0,2,,,,,,,4,10,3,10,,,,,,,,,,,949.8529,950.3531,950.6027,954.2037,space,3.5853,,954.2038,70,35,955.1846,955.1846,955.2095,,,,0,31,31,31,1,160,85,,,,,,,,
,,657079339d147ddcce1b8bb7,65af560ab89350ece997c577,2024-01-23_08h05.08.615,bars,2023.2.3,Win32,60.24096386,657b66ea316d21385b68909f,,,,,,,,,,,955.2101,956.2089,,,956.7089,956.9589,,57,57,,,,,,,,,,,,,,,,bars/004.png,bars/mask006.png,,,,,,,,,,,,0,1,,,,,,,6,10,7,10,,,,,,,,,,,956.2091,956.7089,956.9589,959.0811,space,2.1118,,959.0811,32,68,960.0746,960.0747,960.0799,,,,0,32,32,32,1,25,125,,,,,,,,
,,657079339d147ddcce1b8bb7,65af560ab89350ece997c577,2024-01-23_08h05.08.615,bars,2023.2.3,Win32,60.24096386,657b66ea316d21385b68909f,,,,,,,,,,,960.0805,961.0745,,,961.5742,961.8242,,95,95,,,,,,,,,,,,,,,,bars/039.png,bars/mask003.png,,,,,,,,,,,,6,2,,,,,,,4,10,3,9,,,,,,,,,,,961.0745,961.5741,961.8243,962.9266,space,1.0918,,962.9266,80,10,963.9236,963.9237,963.9287,,,,0,33,33,33,1,175,105,,,,,,,,
,,657079339d147ddcce1b8bb7,65af560ab89350ece997c577,2024-01-23_08h05.08.615,bars,2023.2.3,Win32,60.24096386,657b66ea316d21385b68909f,,,,,,,,,,,963.9293,964.9237,,,965.4234,965.6731,,131,131,,,,,,,,,,,,,,,,bars/036.png,bars/mask000.png,,,,,,,,,,,,4,1,,,,,,,6,8,8,8,,,,,,,,,,,964.9237,965.4233,965.6732,969.4891,space,3.8005,,969.4892,14,69,970.4877,970.4878,970.5093,,,,0,34,34,34,1,145,20,,,,,,,,
,,657079339d147ddcce1b8bb7,65af560ab89350ece997c577,2024-01-23_08h05.08.615,bars,2023.2.3,Win32,60.24096386,657b66ea316d21385b68909f,,,,,,,,,,,970.5099,971.5132,,,972.0135,972.2636,,169,169,,,,,,,,,,,,,,,,bars/026.png,bars/mask004.png,,,,,,,,,,,,0,1,,,,,,,4,6,4,6,,,,,,,,,,,971.5134,972.0135,972.2638,976.8476,space,4.5677,,976.8477,46,84,977.8449,977.845,977.8601,,,,0,35,35,35,1,35,85,,,,,,,,
,,657079339d147ddcce1b8bb7,65af560ab89350ece997c577,2024-01-23_08h05.08.615,bars,2023.2.3,Win32,60.24096386,657b66ea316d21385b68909f,,,,,,,,,,,977.8611,978.8531,,,979.3532,979.603,,72,72,,,,,,,,,,,,,,,,bars/003.png,bars/mask003.png,,,,,,,,,,,,0,1,,,,,,,2,4,1,4,,,,,,,,,,,978.8531,979.3529,979.603,984.0701,space,4.4559,,984.0702,47,68,985.0681,985.0681,985.0818,,,,0,36,36,36,1,25,140,,,,,,,,
,,657079339d147ddcce1b8bb7,65af560ab89350ece997c577,2024-01-23_08h05.08.615,bars,2023.2.3,Win32,60.24096386,657b66ea316d21385b68909f,,,,,,,,,,,985.0834,986.085,,,986.5838,986.8342,,171,171,,,,,,,,,,,,,,,,bars/041.png,bars/mask003.png,,,,,,,,,,,,0,1,,,,,,,0,2,1,0,,,,,,,,,,,986.0851,986.5837,986.8343,987.0346,space,0.1857,,987.0347,29,86,988.0338,988.0341,988.0361,,,,0,37,37,37,1,20,85,,,,,,,,
,,657079339d147ddcce1b8bb7,65af560ab89350ece997c577,2024-01-23_08h05.08.615,bars,2023.2.3,Win32,60.24096386,657b66ea316d21385b68909f,,,,,,,,,,,988.0366,989.0334,,,989.5337,989.7836,,64,64,,,,,,,,,,,,,,,,bars/041.png,bars/mask005.png,,,,,,,,,,,,0,2,,,,,,,2,0,2,1,,,,,,,,,,,989.0337,989.5336,989.7837,992.733,space,2.9332,,992.733,44,21,993.7351,993.7351,993.7553,,,,0,38,38,38,1,20,85,,,,,,,,
,,657079339d147ddcce1b8bb7,65af560ab89350ece997c577,2024-01-23_08h05.08.615,bars,2023.2.3,Win32,60.24096386,657b66ea316d21385b68909f,,,,,,,,,,,993.7565,994.7494,,,995.249,995.4988,,22,22,,,,,,,,,,,,,,,,bars/032.png,bars/mask007.png,,,,,,,,,,,,2,2,,,,,,,4,2,5,2,,,,,,,,,,,994.7497,995.2489,995.4989,995.7317,space,0.2182,,995.732,77,2,996.7317,996.7317,996.7335,,,,0,39,39,39,1,125,20,,,,,,,,
,,657079339d147ddcce1b8bb7,65af560ab89350ece997c577,2024-01-23_08h05.08.615,bars,2023.2.3,Win32,60.24096386,657b66ea316d21385b68909f,,,,,,,,,,,996.734,997.7315,,,998.2316,998.4814,,84,84,,,,,,,,,,,,,,,,bars/001.png,bars/mask000.png,,,,,,,,,,,,1,2,,,,,,,6,0,7,1,,,,,,,,,,,997.7316,998.2315,998.4814,1000.281,space,1.7842,,1000.2811,46,1,1001.2805,1001.2806,1001.295,,,,0,40,40,40,1,130,85,,,,,,,,
,,657079339d147ddcce1b8bb7,65af560ab89350ece997c577,2024-01-23_08h05.08.615,bars,2023.2.3,Win32,60.24096386,657b66ea316d21385b68909f,,,,,,,,,,,1001.2966,1002.2973,,,1002.797,1003.0468,,0,0,,,,,,,,,,,,,,,,bars/020.png,bars/mask007.png,,,,,,,,,,,,1,2,,,,,,,4,2,4,2,,,,,,,,,,,1002.2976,1002.7968,1003.0469,1005.2322,space,2.1752,,1005.2323,65,10,1006.2293,1006.2293,1006.2322,,,,0,41,41,41,1,115,170,,,,,,,,
,,657079339d147ddcce1b8bb7,65af560ab89350ece997c577,2024-01-23_08h05.08.615,bars,2023.2.3,Win32,60.24096386,657b66ea316d21385b68909f,,,,,,,,,,,1006.2328,1007.229,,,1007.7295,1007.9786,,178,-2,,,,,,,,,,,,,,,,bars/028.png,bars/mask003.png,,,,,,,,,,,,0,1,,,,,,,2,4,1,3,,,,,,,,,,,1007.2291,1007.7295,1007.9786,1010.3118,space,2.3176,,1010.3118,47,58,1011.3111,1011.3112,1011.3302,,,,0,42,42,42,1,45,120,,,,,,,,
,,657079339d147ddcce1b8bb7,65af560ab89350ece997c577,2024-01-23_08h05.08.615,bars,2023.2.3,Win32,60.24096386,657b66ea316d21385b68909f,,,,,,,,,,,1011.3307,1012.3299,,,1012.8276,1013.0775,,123,123,,,,,,,,,,,,,,,,bars/049.png,bars/mask000.png,,,,,,,,,,,,1,2,,,,,,,0,2,1,1,,,,,,,,,,,1012.33,1012.8273,1013.0776,1013.1956,space,0.1017,,1013.1957,37,8,1014.1959,1014.196,1014.2007,,,,0,43,43,43,1,160,115,,,,,,,,
,,657079339d147ddcce1b8bb7,65af560ab89350ece997c577,2024-01-23_08h05.08.615,bars,2023.2.3,Win32,60.24096386,657b66ea316d21385b68909f,,,,,,,,,,,1014.2012,1015.1952,,,1015.6935,1015.9434,,16,16,,,,,,,,,,,,,,,,bars/015.png,bars/mask000.png,,,,,,,,,,,,0,2,,,,,,,0,4,0,4,,,,,,,,,,,1015.1952,1015.6935,1015.9435,1019.1427,space,3.1835,,1019.1427,86,36,1020.1424,1020.1425,1020.1607,,,,0,44,44,44,1,110,160,,,,,,,,
,,657079339d147ddcce1b8bb7,65af560ab89350ece997c577,2024-01-23_08h05.08.615,bars,2023.2.3,Win32,60.24096386,657b66ea316d21385b68909f,,,,,,,,,,,1020.1615,1021.1501,,,1021.6518,1021.9008,,75,75,,,,,,,,,,,,,,,,bars/014.png,bars/mask006.png,,,,,,,,,,,,0,1,,,,,,,0,6,0,9,,,,,,,,,,,1021.1502,1021.6517,1021.9009,1023.6184,space,1.7011,,1023.6184,5,75,1024.6174,1024.6174,1024.6388,,,,0,45,45,45,1,80,0,,,,,,,,
,,657079339d147ddcce1b8bb7,65af560ab89350ece997c577,2024-01-23_08h05.08.615,bars,2023.2.3,Win32,60.24096386,657b66ea316d21385b68909f,,,,,,,,,,,1024.6402,1025.6422,,,1026.1406,1026.3905,,7,7,,,,,,,,,,,,,,,,bars/024.png,bars/mask004.png,,,,,,,,,,,,1,2,,,,,,,2,4,2,3,,,,,,,,,,,1025.6423,1026.1405,1026.3905,1028.1237,space,1.7183,,1028.1238,67,17,1029.1228,1029.123,1029.1422,,,,0,46,46,46,1,120,170,,,,,,,,
,,657079339d147ddcce1b8bb7,65af560ab89350ece997c577,2024-01-23_08h05.08.615,bars,2023.2.3,Win32,60.24096386,657b66ea316d21385b68909f,,,,,,,,,,,1029.1435,1030.1326,,,1030.6328,1030.8808,,157,157,,,,,,,,,,,,,,,,bars/047.png,bars/mask002.png,,,,,,,,,,,,0,1,,,,,,,0,2,1,2,,,,,,,,,,,1030.1326,1030.6328,1030.8808,1032.9656,space,2.0686,,1032.9657,38,87,1033.9574,1033.9574,1033.9628,,,,0,47,47,47,1,15,70,,,,,,,,
,,657079339d147ddcce1b8bb7,65af560ab89350ece997c577,2024-01-23_08h05.08.615,bars,2023.2.3,Win32,60.24096386,657b66ea316d21385b68909f,,,,,,,,,,,1033.9632,1034.9554,,,1035.4554,1035.7054,,78,78,,,,,,,,,,,,,,,,bars/000.png,bars/mask006.png,,,,,,,,,,,,0,1,,,,,,,0,4,2,5,,,,,,,,,,,1034.9554,1035.4554,1035.7055,1039.2065,space,3.486,,1039.2065,38,67,1040.213,1040.2131,1040.2297,,,,0,48,48,48,1,40,145,,,,,,,,
,,657079339d147ddcce1b8bb7,65af560ab89350ece997c577,2024-01-23_08h05.08.615,bars,2023.2.3,Win32,60.24096386,657b66ea316d21385b68909f,,,,,,,,,,,1040.2302,1041.2212,,,1041.7213,1041.9698,,11,11,,,,,,,,,,,,,,,,bars/025.png,bars/mask008.png,,,,,,,,,,,,0,2,,,,,,,2,2,1,3,,,,,,,,,,,1041.2213,1041.7213,1041.9698,1045.7056,space,3.7259,,1045.7057,86,29,1046.7057,1046.7057,1046.7238,,,,0,49,49,49,1,105,40,,,,,,,,
,,657079339d147ddcce1b8bb7,65af560ab89350ece997c577,2024-01-23_08h05.08.615,bars,2023.2.3,Win32,60.24096386,657b66ea316d21385b68909f,,,,,,,,,,,,,,,,,,,,,,,,,,,,,,,,,,,,,,,,,,,,,,,,,,,,,,,,,,,,,,,,,,,,,,,,,,,,,,,,,,,,,,,,,,,,,1046.7242,1106.7206,0,1,1,4,1,sequence_tables/blk016.csv
,,657079339d147ddcce1b8bb7,65af560ab89350ece997c577,2024-01-23_08h05.08.615,bars,2023.2.3,Win32,60.24096386,657b66ea316d21385b68909f,,,,,,,,,,,1121.5315,1122.5157,,,1123.0072,1123.2586,,142,142,,,,,,,,,,,,,,,,bars/025.png,bars/mask008.png,,,,,,,,,,,,0,1,,,,,,,5,7,6,8,,,,,,1106.7421,1121.4996,space,14.7435,,1122.5158,1123.0072,1123.2586,1207.6474,space,84.3741,,1207.6476,37,78,1208.6442,1208.6442,1208.6639,,,,0,0,0,0,1,105,40,,,,,,,,
,,657079339d147ddcce1b8bb7,65af560ab89350ece997c577,2024-01-23_08h05.08.615,bars,2023.2.3,Win32,60.24096386,657b66ea316d21385b68909f,,,,,,,,,,,1208.6646,1209.6593,,,1210.1596,1210.4096,,72,72,,,,,,,,,,,,,,,,bars/007.png,bars/mask000.png,,,,,,,,,,,,3,2,,,,,,,7,9,5,8,,,,,,,,,,,1209.6594,1210.1595,1210.4097,1218.0414,space,7.6162,,1218.0417,77,17,1219.0408,1219.0408,1219.0612,,,,0,1,1,1,1,175,55,,,,,,,,
,,657079339d147ddcce1b8bb7,65af560ab89350ece997c577,2024-01-23_08h05.08.615,bars,2023.2.3,Win32,60.24096386,657b66ea316d21385b68909f,,,,,,,,,,,1219.0617,1220.0651,,,1220.5658,1220.8155,,31,31,,,,,,,,,,,,,,,,bars/010.png,bars/mask001.png,,,,,,,,,,,,2,2,,,,,,,5,10,4,10,,,,,,,,,,,1220.0652,1220.5658,1220.8156,1224.573,space,3.7391,,1224.5731,46,24,1225.5723,1225.5723,1225.5862,,,,0,2,2,2,1,165,55,,,,,,,,
,,657079339d147ddcce1b8bb7,65af560ab89350ece997c577,2024-01-23_08h05.08.615,bars,2023.2.3,Win32,60.24096386,657b66ea316d21385b68909f,,,,,,,,,,,1225.5879,1226.5805,,,1227.0847,1227.3295,,108,108,,,,,,,,,,,,,,,,bars/019.png,bars/mask006.png,,,,,,,,,,,,8,2,,,,,,,3,10,2,9,,,,,,,,,,,1226.5806,1227.0819,1227.3298,1232.7872,space,5.4361,,1232.7874,63,3,1233.7871,1233.7871,1233.8029,,,,0,3,3,3,1,45,105,,,,,,,,
,,657079339d147ddcce1b8bb7,65af560ab89350ece997c577,2024-01-23_08h05.08.615,bars,2023.2.3,Win32,60.24096386,657b66ea316d21385b68909f,,,,,,,,,,,1233.8034,1234.803,,,1235.3032,1235.5559,,68,68,,,,,,,,,,,,,,,,bars/039.png,bars/mask007.png,,,,,,,,,,,,0,2,,,,,,,1,10,0,10,,,,,,,,,,,1234.8033,1235.3031,1235.5559,1240.1038,space,4.5391,,1240.1038,73,37,1241.1012,1241.1014,1241.1204,,,,0,4,4,4,1,175,105,,,,,,,,
,,657079339d147ddcce1b8bb7,65af560ab89350ece997c577,2024-01-23_08h05.08.615,bars,2023.2.3,Win32,60.24096386,657b66ea316d21385b68909f,,,,,,,,,,,1241.121,1242.1099,,,1242.6083,1242.8621,,53,53,,,,,,,,,,,,,,,,bars/049.png,bars/mask004.png,,,,,,,,,,,,0,2,,,,,,,0,10,1,10,,,,,,,,,,,1242.11,1242.6083,1242.8621,1247.0939,space,4.2183,,1247.094,73,62,1248.0921,1248.0921,1248.1076,,,,0,5,5,5,1,160,115,,,,,,,,
,,657079339d147ddcce1b8bb7,65af560ab89350ece997c577,2024-01-23_08h05.08.615,bars,2023.2.3,Win32,60.24096386,657b66ea316d21385b68909f,,,,,,,,,,,1248.1088,1249.0995,,,1249.6006,1249.849,,108,108,,,,,,,,,,,,,,,,bars/032.png,bars/mask009.png,,,,,,,,,,,,0,1,,,,,,,2,8,1,10,,,,,,,,,,,1249.0998,1249.6004,1249.8491,1255.1166,space,5.2568,,1255.1167,17,88,1256.1138,1256.1141,1256.1341,,,,0,6,6,6,1,125,20,,,,,,,,
,,657079339d147ddcce1b8bb7,65af560ab89350ece997c577,2024-01-23_08h05.08.615,bars,2023.2.3,Win32,60.24096386,657b66ea316d21385b68909f,,,,,,,,,,,1256.1347,1257.1233,,,1257.6232,1257.873,,48,48,,,,,,,,,,,,,,,,bars/036.png,bars/mask004.png,,,,,,,,,,,,0,2,,,,,,,0,6,0,5,,,,,,,,,,,1257.1233,1257.6232,1257.8731,1260.7076,space,2.8188,,1260.7076,83,28,1261.7052,1261.7053,1261.7237,,,,0,7,7,7,1,145,20,,,,,,,,
,,657079339d147ddcce1b8bb7,65af560ab89350ece997c577,2024-01-23_08h05.08.615,bars,2023.2.3,Win32,60.24096386,657b66ea316d21385b68909f,,,,,,,,,,,1261.7242,1262.7123,,,1263.212,1263.4625,,28,208,,,,,,,,,,,,,,,,bars/016.png,bars/mask009.png,,,,,,,,,,,,1,1,,,,,,,0,8,1,7,,,,,,,,,,,1262.7126,1263.212,1263.4626,1267.0117,space,3.537,,1267.0117,12,43,1268.0035,1268.0035,1268.029,,,,0,8,8,8,1,40,165,,,,,,,,
,,657079339d147ddcce1b8bb7,65af560ab89350ece997c577,2024-01-23_08h05.08.615,bars,2023.2.3,Win32,60.24096386,657b66ea316d21385b68909f,,,,,,,,,,,1268.0295,1269.0195,,,1269.5198,1269.7695,,47,47,,,,,,,,,,,,,,,,bars/045.png,bars/mask003.png,,,,,,,,,,,,0,2,,,,,,,0,6,0,5,,,,,,,,,,,1269.0196,1269.5197,1269.7696,1271.5546,space,1.7688,,1271.5546,53,37,1272.5522,1272.5523,1272.5568,,,,0,9,9,9,1,100,10,,,,,,,,
,,657079339d147ddcce1b8bb7,65af560ab89350ece997c577,2024-01-23_08h05.08.615,bars,2023.2.3,Win32,60.24096386,657b66ea316d21385b68909f,,,,,,,,,,,1272.5573,1273.5522,,,1274.0511,1274.3005,,74,74,,,,,,,,,,,,,,,,bars/003.png,bars/mask009.png,,,,,,,,,,,,0,1,,,,,,,0,8,1,8,,,,,,,,,,,1273.5522,1274.0511,1274.3005,1277.0528,space,2.7356,,1277.0528,49,66,1278.0504,1278.0505,1278.0722,,,,0,10,10,10,1,25,140,,,,,,,,
,,657079339d147ddcce1b8bb7,65af560ab89350ece997c577,2024-01-23_08h05.08.615,bars,2023.2.3,Win32,60.24096386,657b66ea316d21385b68909f,,,,,,,,,,,1278.0727,1279.0665,,,1279.5671,1279.8167,,79,79,,,,,,,,,,,,,,,,bars/013.png,bars/mask009.png,,,,,,,,,,,,0,1,,,,,,,0,10,0,10,,,,,,,,,,,1279.0665,1279.5671,1279.8168,1281.3855,space,1.5527,,1281.3856,4,69,1282.3828,1282.3828,1282.3845,,,,0,11,11,11,1,75,10,,,,,,,,
,,657079339d147ddcce1b8bb7,65af560ab89350ece997c577,2024-01-23_08h05.08.615,bars,2023.2.3,Win32,60.24096386,657b66ea316d21385b68909f,,,,,,,,,,,1282.385,1283.3824,,,1283.8829,1284.1325,,139,139,,,,,,,,,,,,,,,,bars/023.png,bars/mask005.png,,,,,,,,,,,,2,2,,,,,,,0,8,0,8,,,,,,,,,,,1283.3824,1283.8829,1284.1326,1285.7842,space,1.6357,,1285.7843,61,24,1286.7737,1286.7737,1286.7791,,,,0,12,12,12,1,20,115,,,,,,,,
,,657079339d147ddcce1b8bb7,65af560ab89350ece997c577,2024-01-23_08h05.08.615,bars,2023.2.3,Win32,60.24096386,657b66ea316d21385b68909f,,,,,,,,,,,1286.7797,1287.7735,,,1288.2734,1288.5234,,99,99,,,,,,,,,,,,,,,,bars/023.png,bars/mask009.png,,,,,,,,,,,,2,2,,,,,,,2,6,2,5,,,,,,,,,,,1287.7735,1288.2733,1288.5234,1291.1257,space,2.5935,,1291.1258,79,16,1292.1223,1292.1223,1292.138,,,,0,13,13,13,1,20,115,,,,,,,,
,,657079339d147ddcce1b8bb7,65af560ab89350ece997c577,2024-01-23_08h05.08.615,bars,2023.2.3,Win32,60.24096386,657b66ea316d21385b68909f,,,,,,,,,,,1292.1386,1293.1388,,,1293.6389,1293.8882,,70,250,,,,,,,,,,,,,,,,bars/036.png,bars/mask009.png,,,,,,,,,,,,0,2,,,,,,,0,8,1,8,,,,,,,,,,,1293.1389,1293.6387,1293.8883,1298.7535,space,4.8517,,1298.7536,75,50,1299.7529,1299.753,1299.7669,,,,0,14,14,14,1,145,20,,,,,,,,
,,657079339d147ddcce1b8bb7,65af560ab89350ece997c577,2024-01-23_08h05.08.615,bars,2023.2.3,Win32,60.24096386,657b66ea316d21385b68909f,,,,,,,,,,,1299.7685,1300.7693,,,1301.2693,1301.5191,,16,16,,,,,,,,,,,,,,,,bars/013.png,bars/mask002.png,,,,,,,,,,,,8,2,,,,,,,2,10,0,10,,,,,,,,,,,1300.7694,1301.2689,1301.5193,1303.6042,space,2.0747,,1303.6043,59,6,1304.6017,1304.6017,1304.6158,,,,0,15,15,15,1,75,10,,,,,,,,
,,657079339d147ddcce1b8bb7,65af560ab89350ece997c577,2024-01-23_08h05.08.615,bars,2023.2.3,Win32,60.24096386,657b66ea316d21385b68909f,,,,,,,,,,,1304.6173,1305.6183,,,1306.1181,1306.3681,,98,98,,,,,,,,,,,,,,,,bars/012.png,bars/mask004.png,,,,,,,,,,,,1,1,,,,,,,4,10,2,10,,,,,,,,,,,1305.6183,1306.1181,1306.3682,1311.2671,space,4.8855,,1311.2671,8,83,1312.2662,1312.2663,1312.2843,,,,0,16,16,16,1,90,15,,,,,,,,
,,657079339d147ddcce1b8bb7,65af560ab89350ece997c577,2024-01-23_08h05.08.615,bars,2023.2.3,Win32,60.24096386,657b66ea316d21385b68909f,,,,,,,,,,,1312.2848,1313.2746,,,1313.7747,1314.0246,,3,183,,,,,,,,,,,,,,,,bars/037.png,bars/mask001.png,,,,,,,,,,,,0,1,,,,,,,2,8,2,9,,,,,,,,,,,1313.2747,1313.7746,1314.0247,1319.6753,space,5.6342,,1319.6753,33,78,1320.6732,1320.6733,1320.688,,,,0,17,17,17,1,150,105,,,,,,,,
,,657079339d147ddcce1b8bb7,65af560ab89350ece997c577,2024-01-23_08h05.08.615,bars,2023.2.3,Win32,60.24096386,657b66ea316d21385b68909f,,,,,,,,,,,1320.6885,1321.6807,,,1322.1802,1322.4302,,153,153,,,,,,,,,,,,,,,,bars/037.png,bars/mask004.png,,,,,,,,,,,,0,1,,,,,,,0,6,0,7,,,,,,,,,,,1321.6807,1322.1799,1322.4302,1384.9984,space,62.5546,,1384.9986,3,48,1385.9979,1385.9979,1386.0136,,,,0,18,18,18,1,150,105,,,,,,,,
,,657079339d147ddcce1b8bb7,65af560ab89350ece997c577,2024-01-23_08h05.08.615,bars,2023.2.3,Win32,60.24096386,657b66ea316d21385b68909f,,,,,,,,,,,1386.0143,1387.0143,,,1387.5142,1387.7644,,51,51,,,,,,,,,,,,,,,,bars/046.png,bars/mask009.png,,,,,,,,,,,,0,2,,,,,,,0,4,2,3,,,,,,,,,,,1387.0144,1387.5141,1387.7645,1390.5637,space,2.7863,,1390.5639,76,34,1391.5629,1391.5629,1391.5813,,,,0,19,19,19,1,155,85,,,,,,,,
,,657079339d147ddcce1b8bb7,65af560ab89350ece997c577,2024-01-23_08h05.08.615,bars,2023.2.3,Win32,60.24096386,657b66ea316d21385b68909f,,,,,,,,,,,1391.5818,1392.5796,,,1393.0796,1393.3296,,84,84,,,,,,,,,,,,,,,,bars/019.png,bars/mask005.png,,,,,,,,,,,,0,2,,,,,,,2,2,1,1,,,,,,,,,,,1392.5797,1393.0795,1393.3297,1394.8471,space,1.5087,,1394.8472,39,21,1395.8452,1395.8452,1395.8467,,,,0,20,20,20,1,45,105,,,,,,,,
,,657079339d147ddcce1b8bb7,65af560ab89350ece997c577,2024-01-23_08h05.08.615,bars,2023.2.3,Win32,60.24096386,657b66ea316d21385b68909f,,,,,,,,,,,1395.8472,1396.8451,,,1397.3453,1397.5956,,16,16,,,,,,,,,,,,,,,,bars/027.png,bars/mask006.png,,,,,,,,,,,,0,2,,,,,,,4,0,4,0,,,,,,,,,,,1396.8453,1397.3452,1397.5957,1402.2109,space,4.5992,,1402.2109,86,34,1403.2102,1403.2102,1403.2236,,,,0,21,21,21,1,110,50,,,,,,,,
,,657079339d147ddcce1b8bb7,65af560ab89350ece997c577,2024-01-23_08h05.08.615,bars,2023.2.3,Win32,60.24096386,657b66ea316d21385b68909f,,,,,,,,,,,1403.2263,1404.2263,,,1404.7266,1404.9763,,125,125,,,,,,,,,,,,,,,,bars/035.png,bars/mask009.png,,,,,,,,,,,,0,1,,,,,,,2,0,3,0,,,,,,,,,,,1404.2264,1404.7266,1404.9763,1418.026,space,13.0412,,1418.0261,50,65,1419.0224,1419.0225,1419.0421,,,,0,22,22,22,1,175,60,,,,,,,,
,,657079339d147ddcce1b8bb7,65af560ab89350ece997c577,2024-01-23_08h05.08.615,bars,2023.2.3,Win32,60.24096386,657b66ea316d21385b68909f,,,,,,,,,,,1419.0426,1420.0381,,,1420.5384,1420.7884,,124,124,,,,,,,,,,,,,,,,bars/013.png,bars/mask008.png,,,,,,,,,,,,0,1,,,,,,,0,0,1,0,,,,,,,,,,,1420.0384,1420.5381,1420.7884,1425.3897,space,4.5846,,1425.3898,49,66,1426.387,1426.387,1426.4008,,,,0,23,23,23,1,75,10,,,,,,,,
,,657079339d147ddcce1b8bb7,65af560ab89350ece997c577,2024-01-23_08h05.08.615,bars,2023.2.3,Win32,60.24096386,657b66ea316d21385b68909f,,,,,,,,,,,1426.4023,1427.4032,,,1427.903,1428.153,,157,157,,,,,,,,,,,,,,,,bars/026.png,bars/mask009.png,,,,,,,,,,,,0,1,,,,,,,2,2,2,1,,,,,,,,,,,1427.4033,1427.903,1428.1531,1430.8859,space,2.7177,,1430.886,58,72,1431.8854,1431.8854,1431.8999,,,,0,24,24,24,1,35,85,,,,,,,,
,,657079339d147ddcce1b8bb7,65af560ab89350ece997c577,2024-01-23_08h05.08.615,bars,2023.2.3,Win32,60.24096386,657b66ea316d21385b68909f,,,,,,,,,,,1431.9011,1432.9022,,,1433.4015,1433.6514,,5,5,,,,,,,,,,,,,,,,bars/006.png,bars/mask000.png,,,,,,,,,,,,0,1,,,,,,,0,0,0,0,,,,,,,,,,,1432.9022,1433.4015,1433.6515,1437.2014,space,3.5352,,1437.2015,30,85,1438.2003,1438.2004,1438.2142,,,,0,25,25,25,1,35,100,,,,,,,,
,,657079339d147ddcce1b8bb7,65af560ab89350ece997c577,2024-01-23_08h05.08.615,bars,2023.2.3,Win32,60.24096386,657b66ea316d21385b68909f,,,,,,,,,,,1438.2148,1439.2169,,,1439.7167,1439.9663,,38,38,,,,,,,,,,,,,,,,bars/018.png,bars/mask002.png,,,,,,,,,,,,0,2,,,,,,,0,0,0,0,,,,,,,,,,,1439.2169,1439.7166,1439.9664,1441.6382,space,1.6623,,1441.6382,68,52,1442.6324,1442.6325,1442.6384,,,,0,26,26,26,1,150,90,,,,,,,,
,,657079339d147ddcce1b8bb7,65af560ab89350ece997c577,2024-01-23_08h05.08.615,bars,2023.2.3,Win32,60.24096386,657b66ea316d21385b68909f,,,,,,,,,,,1442.639,1443.6362,,,1444.1319,1444.3817,,86,86,,,,,,,,,,,,,,,,bars/009.png,bars/mask006.png,,,,,,,,,,,,0,2,,,,,,,2,0,2,1,,,,,,,,,,,1443.6363,1444.1316,1444.3819,1448.231,space,3.836,,1448.2312,71,19,1449.2308,1449.2309,1449.2477,,,,0,27,27,27,1,15,105,,,,,,,,
,,657079339d147ddcce1b8bb7,65af560ab89350ece997c577,2024-01-23_08h05.08.615,bars,2023.2.3,Win32,60.24096386,657b66ea316d21385b68909f,,,,,,,,,,,1449.2482,1450.2472,,,1450.7471,1450.9969,,65,65,,,,,,,,,,,,,,,,bars/016.png,bars/mask006.png,,,,,,,,,,,,0,1,,,,,,,0,2,2,2,,,,,,,,,,,1450.2473,1450.7471,1450.997,1455.3314,space,4.3187,,1455.3315,25,80,1456.329,1456.3291,1456.3478,,,,0,28,28,28,1,40,165,,,,,,,,
,,657079339d147ddcce1b8bb7,65af560ab89350ece997c577,2024-01-23_08h05.08.615,bars,2023.2.3,Win32,60.24096386,657b66ea316d21385b68909f,,,,,,,,,,,1456.3485,1457.3461,,,1457.848,1458.0957,,61,61,,,,,,,,,,,,,,,,bars/039.png,bars/mask007.png,,,,,,,,,,,,0,2,,,,,,,2,0,1,0,,,,,,,,,,,1457.3462,1457.848,1458.0957,1459.7624,space,1.6518,,1459.7625,66,44,1460.7616,1460.7616,1460.7664,,,,0,29,29,29,1,175,105,,,,,,,,
,,657079339d147ddcce1b8bb7,65af560ab89350ece997c577,2024-01-23_08h05.08.615,bars,2023.2.3,Win32,60.24096386,657b66ea316d21385b68909f,,,,,,,,,,,1460.7671,1461.7614,,,1462.2617,1462.5116,,74,74,,,,,,,,,,,,,,,,bars/024.png,bars/mask006.png,,,,,,,,,,,,0,1,,,,,,,0,2,1,3,,,,,,,,,,,1461.7615,1462.2617,1462.5116,1463.1451,space,0.6175,,1463.1452,46,84,1464.1442,1464.1443,1464.149,,,,0,30,30,30,1,120,170,,,,,,,,
,,657079339d147ddcce1b8bb7,65af560ab89350ece997c577,2024-01-23_08h05.08.615,bars,2023.2.3,Win32,60.24096386,657b66ea316d21385b68909f,,,,,,,,,,,1464.1495,1465.1439,,,1465.6438,1465.8939,,136,-44,,,,,,,,,,,,,,,,bars/035.png,bars/mask000.png,,,,,,,,,,,,0,1,,,,,,,0,0,0,1,,,,,,,,,,,1465.1439,1465.6438,1465.8939,1472.3124,space,6.41,,1472.3125,39,76,1473.3087,1473.3087,1473.3255,,,,0,31,31,31,1,175,60,,,,,,,,
,,657079339d147ddcce1b8bb7,65af560ab89350ece997c577,2024-01-23_08h05.08.615,bars,2023.2.3,Win32,60.24096386,657b66ea316d21385b68909f,,,,,,,,,,,1473.327,1474.3248,,,1474.8315,1475.0826,,145,145,,,,,,,,,,,,,,,,bars/012.png,bars/mask005.png,,,,,,,,,,,,0,2,,,,,,,2,2,2,2,,,,,,,,,,,1474.3249,1474.8314,1475.0826,1479.8495,space,4.7505,,1479.8495,55,50,1480.8473,1480.8473,1480.8654,,,,0,32,32,32,1,90,15,,,,,,,,
,,657079339d147ddcce1b8bb7,65af560ab89350ece997c577,2024-01-23_08h05.08.615,bars,2023.2.3,Win32,60.24096386,657b66ea316d21385b68909f,,,,,,,,,,,1480.8666,1481.8644,,,1482.3645,1482.6144,,20,20,,,,,,,,,,,,,,,,bars/004.png,bars/mask003.png,,,,,,,,,,,,3,1,,,,,,,4,4,4,6,,,,,,,,,,,1481.8645,1482.3644,1482.6144,1484.5834,space,1.9532,,1484.5834,5,75,1485.5796,1485.5796,1485.5985,,,,0,33,33,33,1,25,125,,,,,,,,
,,657079339d147ddcce1b8bb7,65af560ab89350ece997c577,2024-01-23_08h05.08.615,bars,2023.2.3,Win32,60.24096386,657b66ea316d21385b68909f,,,,,,,,,,,1485.599,1486.5878,,,1487.0878,1487.3376,,24,24,,,,,,,,,,,,,,,,bars/025.png,bars/mask006.png,,,,,,,,,,,,1,2,,,,,,,6,2,7,2,,,,,,,,,,,1486.5878,1487.0877,1487.3377,1489.8539,space,2.5,,1489.8539,81,16,1490.8534,1490.8534,1490.871,,,,0,34,34,34,1,105,40,,,,,,,,
,,657079339d147ddcce1b8bb7,65af560ab89350ece997c577,2024-01-23_08h05.08.615,bars,2023.2.3,Win32,60.24096386,657b66ea316d21385b68909f,,,,,,,,,,,1490.8715,1491.8615,,,1492.3621,1492.6117,,42,42,,,,,,,,,,,,,,,,bars/035.png,bars/mask002.png,,,,,,,,,,,,2,2,,,,,,,4,4,4,4,,,,,,,,,,,1491.8616,1492.362,1492.6117,1496.2455,space,3.6176,,1496.2456,47,18,1497.2435,1497.2435,1497.2583,,,,0,35,35,35,1,175,60,,,,,,,,
,,657079339d147ddcce1b8bb7,65af560ab89350ece997c577,2024-01-23_08h05.08.615,bars,2023.2.3,Win32,60.24096386,657b66ea316d21385b68909f,,,,,,,,,,,1497.2588,1498.2509,,,1498.7515,1499.0012,,18,18,,,,,,,,,,,,,,,,bars/012.png,bars/mask009.png,,,,,,,,,,,,5,2,,,,,,,2,6,3,5,,,,,,,,,,,1498.2511,1498.7514,1499.0013,1501.2214,space,2.2097,,1501.2214,72,3,1502.2167,1502.2171,1502.2315,,,,0,36,36,36,1,90,15,,,,,,,,
,,657079339d147ddcce1b8bb7,65af560ab89350ece997c577,2024-01-23_08h05.08.615,bars,2023.2.3,Win32,60.24096386,657b66ea316d21385b68909f,,,,,,,,,,,1502.233,1503.2349,,,1503.7331,1503.9832,,101,101,,,,,,,,,,,,,,,,bars/026.png,bars/mask000.png,,,,,,,,,,,,3,2,,,,,,,4,8,4,7,,,,,,,,,,,1503.235,1503.7331,1503.9833,1512.1481,space,8.1516,,1512.1481,66,16,1513.1483,1513.1483,1513.1708,,,,0,37,37,37,1,35,85,,,,,,,,
,,657079339d147ddcce1b8bb7,65af560ab89350ece997c577,2024-01-23_08h05.08.615,bars,2023.2.3,Win32,60.24096386,657b66ea316d21385b68909f,,,,,,,,,,,1513.1713,1514.1648,,,1514.6645,1514.9146,,173,173,,,,,,,,,,,,,,,,bars/033.png,bars/mask006.png,,,,,,,,,,,,4,2,,,,,,,6,10,7,10,,,,,,,,,,,1514.1648,1514.6644,1514.9146,1517.5974,space,2.6675,,1517.5974,32,18,1518.5967,1518.5968,1518.62,,,,0,38,38,38,1,25,155,,,,,,,,
,,657079339d147ddcce1b8bb7,65af560ab89350ece997c577,2024-01-23_08h05.08.615,bars,2023.2.3,Win32,60.24096386,657b66ea316d21385b68909f,,,,,,,,,,,1518.6206,1519.6125,,,1520.112,1520.3624,,134,134,,,,,,,,,,,,,,,,bars/015.png,bars/mask005.png,,,,,,,,,,,,2,1,,,,,,,8,8,8,8,,,,,,,,,,,1519.6126,1520.112,1520.3625,1523.7956,space,3.4171,,1523.7957,24,26,1524.7945,1524.7946,1524.8134,,,,0,39,39,39,1,110,160,,,,,,,,
,,657079339d147ddcce1b8bb7,65af560ab89350ece997c577,2024-01-23_08h05.08.615,bars,2023.2.3,Win32,60.24096386,657b66ea316d21385b68909f,,,,,,,,,,,1524.8139,1525.8048,,,1526.2945,1526.5446,,172,172,,,,,,,,,,,,,,,,bars/023.png,bars/mask006.png,,,,,,,,,,,,1,1,,,,,,,10,6,10,5,,,,,,,,,,,1525.8049,1526.2945,1526.5446,1530.0108,space,3.4513,,1530.0109,28,57,1531.0017,1531.0017,1531.0173,,,,0,40,40,40,1,20,115,,,,,,,,
,,657079339d147ddcce1b8bb7,65af560ab89350ece997c577,2024-01-23_08h05.08.615,bars,2023.2.3,Win32,60.24096386,657b66ea316d21385b68909f,,,,,,,,,,,1531.0179,1532.009,,,1532.5092,1532.7588,,10,10,,,,,,,,,,,,,,,,bars/005.png,bars/mask003.png,,,,,,,,,,,,7,1,,,,,,,8,8,7,7,,,,,,,,,,,1532.0094,1532.5089,1532.7589,1537.1443,space,4.3695,,1537.1444,0,50,1538.1407,1538.1408,1538.1546,,,,0,41,41,41,1,10,140,,,,,,,,
,,657079339d147ddcce1b8bb7,65af560ab89350ece997c577,2024-01-23_08h05.08.615,bars,2023.2.3,Win32,60.24096386,657b66ea316d21385b68909f,,,,,,,,,,,1538.1566,1539.1587,,,1539.6573,1539.9072,,43,43,,,,,,,,,,,,,,,,bars/016.png,bars/mask002.png,,,,,,,,,,,,9,1,,,,,,,10,10,10,10,,,,,,,,,,,1539.1587,1539.6572,1539.9072,1542.1261,space,2.1984,,1542.1262,3,58,1543.1231,1543.1232,1543.1249,,,,0,42,42,42,1,40,165,,,,,,,,
,,657079339d147ddcce1b8bb7,65af560ab89350ece997c577,2024-01-23_08h05.08.615,bars,2023.2.3,Win32,60.24096386,657b66ea316d21385b68909f,,,,,,,,,,,1543.1255,1544.1229,,,1544.6228,1544.8725,,21,21,,,,,,,,,,,,,,,,bars/008.png,bars/mask005.png,,,,,,,,,,,,3,2,,,,,,,10,10,9,10,,,,,,,,,,,1544.123,1544.6227,1544.8725,1547.6224,space,2.7341,,1547.6226,89,21,1548.6215,1548.6216,1548.6393,,,,0,43,43,43,1,110,0,,,,,,,,
,,657079339d147ddcce1b8bb7,65af560ab89350ece997c577,2024-01-23_08h05.08.615,bars,2023.2.3,Win32,60.24096386,657b66ea316d21385b68909f,,,,,,,,,,,1548.6398,1549.6292,,,1550.1303,1550.381,,108,108,,,,,,,,,,,,,,,,bars/035.png,bars/mask000.png,,,,,,,,,,,,0,2,,,,,,,10,10,10,10,,,,,,,,,,,1549.6293,1550.1303,1550.381,1553.5154,space,3.1198,,1553.5155,67,48,1554.5119,1554.512,1554.527,,,,0,44,44,44,1,175,60,,,,,,,,
,,657079339d147ddcce1b8bb7,65af560ab89350ece997c577,2024-01-23_08h05.08.615,bars,2023.2.3,Win32,60.24096386,657b66ea316d21385b68909f,,,,,,,,,,,1554.5277,1555.5199,,,1556.02,1556.2698,,167,167,,,,,,,,,,,,,,,,bars/048.png,bars/mask006.png,,,,,,,,,,,,4,2,,,,,,,10,8,10,6,,,,,,,,,,,1555.52,1556.0199,1556.2699,1558.1566,space,1.8771,,1558.1567,63,8,1559.152,1559.1523,1559.1541,,,,0,45,45,45,1,50,175,,,,,,,,
,,657079339d147ddcce1b8bb7,65af560ab89350ece997c577,2024-01-23_08h05.08.615,bars,2023.2.3,Win32,60.24096386,657b66ea316d21385b68909f,,,,,,,,,,,1559.1548,1560.1521,,,1560.6517,1560.9013,,168,168,,,,,,,,,,,,,,,,bars/000.png,bars/mask001.png,,,,,,,,,,,,1,2,,,,,,,8,6,6,6,,,,,,,,,,,1560.1521,1560.6514,1560.9013,1563.218,space,2.3018,,1563.218,52,23,1564.2175,1564.2175,1564.2333,,,,0,46,46,46,1,40,145,,,,,,,,
,,657079339d147ddcce1b8bb7,65af560ab89350ece997c577,2024-01-23_08h05.08.615,bars,2023.2.3,Win32,60.24096386,657b66ea316d21385b68909f,,,,,,,,,,,1564.234,1565.2339,,,1565.7343,1565.9874,,19,19,,,,,,,,,,,,,,,,bars/005.png,bars/mask002.png,,,,,,,,,,,,7,1,,,,,,,10,4,10,4,,,,,,,,,,,1565.234,1565.7342,1565.9874,1568.0001,space,2.0012,,1568.0001,9,59,1568.9996,1568.9996,1569.0047,,,,0,47,47,47,1,10,140,,,,,,,,
,,657079339d147ddcce1b8bb7,65af560ab89350ece997c577,2024-01-23_08h05.08.615,bars,2023.2.3,Win32,60.24096386,657b66ea316d21385b68909f,,,,,,,,,,,1569.0052,1569.9994,,,1570.4995,1570.7487,,142,142,,,,,,,,,,,,,,,,bars/003.png,bars/mask006.png,,,,,,,,,,,,2,2,,,,,,,8,2,7,2,,,,,,,,,,,1569.9995,1570.4994,1570.7488,1574.8991,space,4.1333,,1574.8991,63,2,1575.8977,1575.898,1575.9165,,,,0,48,48,48,1,25,140,,,,,,,,
,,657079339d147ddcce1b8bb7,65af560ab89350ece997c577,2024-01-23_08h05.08.615,bars,2023.2.3,Win32,60.24096386,657b66ea316d21385b68909f,,,,,,,,,,,1575.9172,1576.9083,,,1577.4066,1577.658,,161,161,,,,,,,,,,,,,,,,bars/024.png,bars/mask002.png,,,,,,,,,,,,0,2,,,,,,,10,0,10,0,,,,,,,,,,,1576.9084,1577.4065,1577.658,1580.6912,space,3.0189,,1580.6913,41,9,1581.6807,1581.6808,1581.6988,,,,0,49,49,49,1,120,170,,,,,,,,
,,657079339d147ddcce1b8bb7,65af560ab89350ece997c577,2024-01-23_08h05.08.615,bars,2023.2.3,Win32,60.24096386,657b66ea316d21385b68909f,,,,,,,,,,,,,,,,,,,,,,,,,,,,,,,,,,,,,,,,,,,,,,,,,,,,,,,,,,,,,,,,,,,,,,,,,,,,,,,,,,,,,,,,,,,,,1581.6993,1641.6913,0,2,2,0,1,sequence_tables/blk002.csv
,,657079339d147ddcce1b8bb7,65af560ab89350ece997c577,2024-01-23_08h05.08.615,bars,2023.2.3,Win32,60.24096386,657b66ea316d21385b68909f,,,,,,,,,,,1651.3879,1652.3781,,,1652.8781,1653.128,,166,166,,,,,,,,,,,,,,,,bars/000.png,bars/mask001.png,,,,,,,,,,,,2,2,,,,,,,10,7,10,7,,,,,,1641.706,1651.362,space,9.6407,,1652.3781,1652.878,1653.128,1655.9274,space,2.7844,,1655.9275,54,21,1656.9268,1656.9268,1656.9434,,,,0,0,0,0,1,40,145,,,,,,,,
,,657079339d147ddcce1b8bb7,65af560ab89350ece997c577,2024-01-23_08h05.08.615,bars,2023.2.3,Win32,60.24096386,657b66ea316d21385b68909f,,,,,,,,,,,1656.9442,1657.935,,,1658.4362,1658.6855,,142,142,,,,,,,,,,,,,,,,bars/047.png,bars/mask004.png,,,,,,,,,,,,0,1,,,,,,,8,9,8,8,,,,,,,,,,,1657.935,1658.4362,1658.6856,1660.87,space,2.1687,,1660.8701,53,72,1661.8676,1661.8677,1661.8879,,,,0,1,1,1,1,15,70,,,,,,,,
,,657079339d147ddcce1b8bb7,65af560ab89350ece997c577,2024-01-23_08h05.08.615,bars,2023.2.3,Win32,60.24096386,657b66ea316d21385b68909f,,,,,,,,,,,1661.8888,1662.8917,,,1663.3924,1663.6418,,111,111,,,,,,,,,,,,,,,,bars/026.png,bars/mask008.png,,,,,,,,,,,,1,2,,,,,,,6,7,4,7,,,,,,,,,,,1662.8917,1663.3924,1663.6418,1664.2254,space,0.5685,,1664.2254,76,26,1665.2266,1665.2267,1665.2316,,,,0,2,2,2,1,35,85,,,,,,,,
,,657079339d147ddcce1b8bb7,65af560ab89350ece997c577,2024-01-23_08h05.08.615,bars,2023.2.3,Win32,60.24096386,657b66ea316d21385b68909f,,,,,,,,,,,1665.2328,1666.2242,,,1666.7245,1666.9743,,24,24,,,,,,,,,,,,,,,,bars/036.png,bars/mask001.png,,,,,,,,,,,,9,2,,,,,,,8,9,8,10,,,,,,,,,,,1666.2243,1666.7244,1666.9744,1669.2584,space,2.2716,,1669.2585,59,4,1670.2562,1670.2566,1670.2725,,,,0,3,3,3,1,145,20,,,,,,,,
,,657079339d147ddcce1b8bb7,65af560ab89350ece997c577,2024-01-23_08h05.08.615,bars,2023.2.3,Win32,60.24096386,657b66ea316d21385b68909f,,,,,,,,,,,1670.2731,1671.2729,,,1671.7731,1672.023,,13,13,,,,,,,,,,,,,,,,bars/043.png,bars/mask006.png,,,,,,,,,,,,4,1,,,,,,,10,7,9,7,,,,,,,,,,,1671.273,1671.773,1672.023,1673.5898,space,1.552,,1673.59,17,63,1674.5886,1674.5889,1674.6071,,,,0,4,4,4,1,30,130,,,,,,,,
,,657079339d147ddcce1b8bb7,65af560ab89350ece997c577,2024-01-23_08h05.08.615,bars,2023.2.3,Win32,60.24096386,657b66ea316d21385b68909f,,,,,,,,,,,1674.6076,1675.5976,,,1676.0976,1676.3484,,36,36,,,,,,,,,,,,,,,,bars/001.png,bars/mask000.png,,,,,,,,,,,,0,2,,,,,,,8,5,8,7,,,,,,,,,,,1675.5976,1676.0976,1676.3484,1678.9153,space,2.552,,1678.9153,86,49,1679.9047,1679.9048,1679.9096,,,,0,5,5,5,1,130,85,,,,,,,,
,,657079339d147ddcce1b8bb7,65af560ab89350ece997c577,2024-01-23_08h05.08.615,bars,2023.2.3,Win32,60.24096386,657b66ea316d21385b68909f,,,,,,,,,,,1679.9102,1680.9047,,,1681.4046,1681.6544,,129,129,,,,,,,,,,,,,,,,bars/033.png,bars/mask007.png,,,,,,,,,,,,0,2,,,,,,,10,3,10,3,,,,,,,,,,,1680.9047,1681.4046,1681.6544,1687.8892,space,6.2258,,1687.8893,76,26,1688.8858,1688.8858,1688.9058,,,,0,6,6,6,1,25,155,,,,,,,,
,,657079339d147ddcce1b8bb7,65af560ab89350ece997c577,2024-01-23_08h05.08.615,bars,2023.2.3,Win32,60.24096386,657b66ea316d21385b68909f,,,,,,,,,,,1688.9063,1689.9023,,,1690.4028,1690.652,,41,41,,,,,,,,,,,,,,,,bars/012.png,bars/mask001.png,,,,,,,,,,,,0,2,,,,,,,8,5,6,2,,,,,,,,,,,1689.9023,1690.4028,1690.6521,1691.9026,space,1.2364,,1691.9027,49,26,1692.9015,1692.9015,1692.9028,,,,0,7,7,7,1,90,15,,,,,,,,
,,657079339d147ddcce1b8bb7,65af560ab89350ece997c577,2024-01-23_08h05.08.615,bars,2023.2.3,Win32,60.24096386,657b66ea316d21385b68909f,,,,,,,,,,,1692.9034,1693.9017,,,1694.4013,1694.651,,103,103,,,,,,,,,,,,,,,,bars/024.png,bars/mask003.png,,,,,,,,,,,,4,1,,,,,,,10,3,10,2,,,,,,,,,,,1693.9018,1694.4012,1694.6511,1697.4171,space,2.7535,,1697.4172,17,67,1698.4167,1698.4168,1698.4379,,,,0,8,8,8,1,120,170,,,,,,,,
,,657079339d147ddcce1b8bb7,65af560ab89350ece997c577,2024-01-23_08h05.08.615,bars,2023.2.3,Win32,60.24096386,657b66ea316d21385b68909f,,,,,,,,,,,1698.4385,1699.4326,,,1699.9324,1700.1822,,53,53,,,,,,,,,,,,,,,,bars/018.png,bars/mask008.png,,,,,,,,,,,,0,2,,,,,,,10,1,10,3,,,,,,,,,,,1699.4327,1699.9323,1700.1823,1703.0823,space,2.8853,,1703.0825,83,37,1704.0811,1704.0812,1704.1018,,,,0,9,9,9,1,150,90,,,,,,,,
,,657079339d147ddcce1b8bb7,65af560ab89350ece997c577,2024-01-23_08h05.08.615,bars,2023.2.3,Win32,60.24096386,657b66ea316d21385b68909f,,,,,,,,,,,1704.1025,1705.1066,,,1705.6062,1705.856,,111,111,,,,,,,,,,,,,,,,bars/000.png,bars/mask005.png,,,,,,,,,,,,0,2,,,,,,,8,0,9,0,,,,,,,,,,,1705.1067,1705.6061,1705.856,1707.8749,space,2.0023,,1707.875,71,34,1708.8724,1708.8724,1708.8871,,,,0,10,10,10,1,40,145,,,,,,,,
,,657079339d147ddcce1b8bb7,65af560ab89350ece997c577,2024-01-23_08h05.08.615,bars,2023.2.3,Win32,60.24096386,657b66ea316d21385b68909f,,,,,,,,,,,1708.8876,1709.8798,,,1710.3798,1710.6298,,167,167,,,,,,,,,,,,,,,,bars/017.png,bars/mask008.png,,,,,,,,,,,,2,1,,,,,,,6,2,7,2,,,,,,,,,,,1709.8798,1710.3797,1710.6299,1712.2795,space,1.6355,,1712.2795,22,58,1713.2787,1713.279,1713.284,,,,0,11,11,11,1,145,45,,,,,,,,
,,657079339d147ddcce1b8bb7,65af560ab89350ece997c577,2024-01-23_08h05.08.615,bars,2023.2.3,Win32,60.24096386,657b66ea316d21385b68909f,,,,,,,,,,,1713.2847,1714.2787,,,1714.7785,1715.0284,,160,160,,,,,,,,,,,,,,,,bars/036.png,bars/mask007.png,,,,,,,,,,,,5,1,,,,,,,8,0,9,0,,,,,,,,,,,1714.2788,1714.7784,1715.0285,1718.0947,space,3.0508,,1718.0948,15,40,1719.0941,1719.0942,1719.11,,,,0,12,12,12,1,145,20,,,,,,,,
,,657079339d147ddcce1b8bb7,65af560ab89350ece997c577,2024-01-23_08h05.08.615,bars,2023.2.3,Win32,60.24096386,657b66ea316d21385b68909f,,,,,,,,,,,1719.1104,1720.1109,,,1720.6105,1720.8603,,166,166,,,,,,,,,,,,,,,,bars/021.png,bars/mask009.png,,,,,,,,,,,,6,1,,,,,,,10,2,9,0,,,,,,,,,,,1720.111,1720.6103,1720.8605,1722.3966,space,1.5265,,1722.3966,11,84,1723.3929,1723.3929,1723.3947,,,,0,13,13,13,1,155,70,,,,,,,,
,,657079339d147ddcce1b8bb7,65af560ab89350ece997c577,2024-01-23_08h05.08.615,bars,2023.2.3,Win32,60.24096386,657b66ea316d21385b68909f,,,,,,,,,,,1723.3953,1724.3926,,,1724.8923,1725.1425,,165,165,,,,,,,,,,,,,,,,bars/046.png,bars/mask002.png,,,,,,,,,,,,7,1,,,,,,,8,4,10,6,,,,,,,,,,,1724.3927,1724.8922,1725.1425,1730.3519,space,5.1988,,1730.352,10,80,1731.3483,1731.3484,1731.3641,,,,0,14,14,14,1,155,85,,,,,,,,
,,657079339d147ddcce1b8bb7,65af560ab89350ece997c577,2024-01-23_08h05.08.615,bars,2023.2.3,Win32,60.24096386,657b66ea316d21385b68909f,,,,,,,,,,,1731.3646,1732.3569,,,1732.8569,1733.108,,172,172,,,,,,,,,,,,,,,,bars/023.png,bars/mask000.png,,,,,,,,,,,,1,1,,,,,,,10,2,10,3,,,,,,,,,,,1732.3569,1732.8569,1733.108,1734.5737,space,1.453,,1734.5738,28,57,1735.573,1735.5731,1735.5751,,,,0,15,15,15,1,20,115,,,,,,,,
,,657079339d147ddcce1b8bb7,65af560ab89350ece997c577,2024-01-23_08h05.08.615,bars,2023.2.3,Win32,60.24096386,657b66ea316d21385b68909f,,,,,,,,,,,1735.5763,1736.5728,,,1737.0728,1737.3227,,8,188,,,,,,,,,,,,,,,,bars/022.png,bars/mask002.png,,,,,,,,,,,,0,2,,,,,,,8,0,7,0,,,,,,,,,,,1736.5728,1737.0728,1737.3227,1741.3886,space,4.0509,,1741.3887,87,12,1742.3879,1742.388,1742.4083,,,,0,16,16,16,1,95,20,,,,,,,,
,,657079339d147ddcce1b8bb7,65af560ab89350ece997c577,2024-01-23_08h05.08.615,bars,2023.2.3,Win32,60.24096386,657b66ea316d21385b68909f,,,,,,,,,,,1742.4088,1743.415,,,1743.9131,1744.1629,,137,137,,,,,,,,,,,,,,,,bars/043.png,bars/mask000.png,,,,,,,,,,,,0,2,,,,,,,10,0,10,0,,,,,,,,,,,1743.415,1743.913,1744.163,1745.8146,space,1.6376,,1745.8148,73,7,1746.8117,1746.8118,1746.8293,,,,0,17,17,17,1,30,130,,,,,,,,
,,657079339d147ddcce1b8bb7,65af560ab89350ece997c577,2024-01-23_08h05.08.615,bars,2023.2.3,Win32,60.24096386,657b66ea316d21385b68909f,,,,,,,,,,,1746.8298,1747.8199,,,1748.3198,1748.5698,,155,155,,,,,,,,,,,,,,,,bars/010.png,bars/mask005.png,,,,,,,,,,,,6,1,,,,,,,10,2,9,4,,,,,,,,,,,1747.82,1748.3194,1748.5698,1750.4379,space,1.8516,,1750.438,10,80,1751.4367,1751.4367,1751.4426,,,,0,18,18,18,1,165,55,,,,,,,,
,,657079339d147ddcce1b8bb7,65af560ab89350ece997c577,2024-01-23_08h05.08.615,bars,2023.2.3,Win32,60.24096386,657b66ea316d21385b68909f,,,,,,,,,,,1751.4437,1752.4354,,,1752.9353,1753.1851,,59,59,,,,,,,,,,,,,,,,bars/005.png,bars/mask006.png,,,,,,,,,,,,0,1,,,,,,,10,4,10,4,,,,,,,,,,,1752.4355,1752.9353,1753.1852,1754.785,space,1.5867,,1754.7851,49,81,1755.7843,1755.7846,1755.7866,,,,0,19,19,19,1,10,140,,,,,,,,
,,657079339d147ddcce1b8bb7,65af560ab89350ece997c577,2024-01-23_08h05.08.615,bars,2023.2.3,Win32,60.24096386,657b66ea316d21385b68909f,,,,,,,,,,,1755.7874,1756.7839,,,1757.2842,1757.534,,0,180,,,,,,,,,,,,,,,,bars/040.png,bars/mask003.png,,,,,,,,,,,,5,2,,,,,,,10,6,9,6,,,,,,,,,,,1756.7843,1757.2842,1757.5341,1759.5685,space,2.0235,,1759.5686,40,5,1760.5665,1760.5666,1760.5863,,,,0,20,20,20,1,140,5,,,,,,,,
,,657079339d147ddcce1b8bb7,65af560ab89350ece997c577,2024-01-23_08h05.08.615,bars,2023.2.3,Win32,60.24096386,657b66ea316d21385b68909f,,,,,,,,,,,1760.5869,1761.5748,,,1762.0749,1762.3244,,120,120,,,,,,,,,,,,,,,,bars/013.png,bars/mask005.png,,,,,,,,,,,,0,1,,,,,,,8,4,7,2,,,,,,,,,,,1761.5749,1762.0749,1762.3245,1765.4425,space,3.1013,,1765.4425,45,70,1766.4401,1766.4401,1766.4647,,,,0,21,21,21,1,75,10,,,,,,,,
,,657079339d147ddcce1b8bb7,65af560ab89350ece997c577,2024-01-23_08h05.08.615,bars,2023.2.3,Win32,60.24096386,657b66ea316d21385b68909f,,,,,,,,,,,1766.4652,1767.4564,,,1767.9562,1768.2064,,170,170,,,,,,,,,,,,,,,,bars/045.png,bars/mask008.png,,,,,,,,,,,,3,2,,,,,,,10,6,9,8,,,,,,,,,,,1767.4564,1767.9562,1768.2065,1769.6416,space,1.4186,,1769.6417,70,20,1770.6394,1770.6395,1770.6637,,,,0,22,22,22,1,100,10,,,,,,,,
,,657079339d147ddcce1b8bb7,65af560ab89350ece997c577,2024-01-23_08h05.08.615,bars,2023.2.3,Win32,60.24096386,657b66ea316d21385b68909f,,,,,,,,,,,1770.6655,1771.655,,,1772.1557,1772.4053,,170,170,,,,,,,,,,,,,,,,bars/049.png,bars/mask007.png,,,,,,,,,,,,7,1,,,,,,,10,4,10,2,,,,,,,,,,,1771.6552,1772.1557,1772.4053,1774.186,space,1.7644,,1774.1861,10,55,1775.1791,1775.1793,1775.1979,,,,0,23,23,23,1,160,115,,,,,,,,
,,657079339d147ddcce1b8bb7,65af560ab89350ece997c577,2024-01-23_08h05.08.615,bars,2023.2.3,Win32,60.24096386,657b66ea316d21385b68909f,,,,,,,,,,,1775.1992,1776.1876,,,1776.6884,1776.9376,,83,83,,,,,,,,,,,,,,,,bars/017.png,bars/mask005.png,,,,,,,,,,,,0,2,,,,,,,10,2,10,2,,,,,,,,,,,1776.1876,1776.6883,1776.9376,1780.4218,space,3.4684,,1780.422,62,38,1781.4114,1781.4115,1781.4341,,,,0,24,24,24,1,145,45,,,,,,,,
,,657079339d147ddcce1b8bb7,65af560ab89350ece997c577,2024-01-23_08h05.08.615,bars,2023.2.3,Win32,60.24096386,657b66ea316d21385b68909f,,,,,,,,,,,1781.4349,1782.4276,,,1782.9274,1783.1773,,14,14,,,,,,,,,,,,,,,,bars/003.png,bars/mask006.png,,,,,,,,,,,,4,1,,,,,,,8,4,7,4,,,,,,,,,,,1782.4277,1782.9274,1783.1773,1785.6126,space,2.425,,1785.6127,11,54,1786.6099,1786.61,1786.6321,,,,0,25,25,25,1,25,140,,,,,,,,
,,657079339d147ddcce1b8bb7,65af560ab89350ece997c577,2024-01-23_08h05.08.615,bars,2023.2.3,Win32,60.24096386,657b66ea316d21385b68909f,,,,,,,,,,,1786.6328,1787.6263,,,1788.1262,1788.3762,,39,39,,,,,,,,,,,,,,,,bars/036.png,bars/mask000.png,,,,,,,,,,,,2,2,,,,,,,10,6,10,6,,,,,,,,,,,1787.6263,1788.1261,1788.3762,1790.6095,space,2.2186,,1790.6097,74,19,1791.6078,1791.6082,1791.6289,,,,0,26,26,26,1,145,20,,,,,,,,
,,657079339d147ddcce1b8bb7,65af560ab89350ece997c577,2024-01-23_08h05.08.615,bars,2023.2.3,Win32,60.24096386,657b66ea316d21385b68909f,,,,,,,,,,,1791.6295,1792.6248,,,1793.1221,1793.3612,,131,131,,,,,,,,,,,,,,,,bars/029.png,bars/mask000.png,,,,,,,,,,,,0,1,,,,,,,10,8,10,8,,,,,,,,,,,1792.6248,1793.1221,1793.3612,1794.8746,space,1.5001,,1794.8747,41,86,1795.8741,1795.8742,1795.8795,,,,0,27,27,27,1,90,45,,,,,,,,
,,657079339d147ddcce1b8bb7,65af560ab89350ece997c577,2024-01-23_08h05.08.615,bars,2023.2.3,Win32,60.24096386,657b66ea316d21385b68909f,,,,,,,,,,,1795.8802,1796.8736,,,1797.374,1797.6236,,48,48,,,,,,,,,,,,,,,,bars/037.png,bars/mask009.png,,,,,,,,,,,,0,2,,,,,,,8,10,10,9,,,,,,,,,,,1796.8737,1797.3739,1797.6237,1799.3906,space,1.7513,,1799.3907,78,57,1800.3898,1800.3898,1800.3953,,,,0,28,28,28,1,150,105,,,,,,,,
,,657079339d147ddcce1b8bb7,65af560ab89350ece997c577,2024-01-23_08h05.08.615,bars,2023.2.3,Win32,60.24096386,657b66ea316d21385b68909f,,,,,,,,,,,1800.3962,1801.3979,,,1801.8977,1802.1478,,46,46,,,,,,,,,,,,,,,,bars/045.png,bars/mask003.png,,,,,,,,,,,,0,2,,,,,,,10,10,10,10,,,,,,,,,,,1801.3979,1801.8976,1802.1479,1806.2331,space,4.0698,,1806.2331,54,36,1807.2312,1807.2313,1807.2458,,,,0,29,29,29,1,100,10,,,,,,,,
,,657079339d147ddcce1b8bb7,65af560ab89350ece997c577,2024-01-23_08h05.08.615,bars,2023.2.3,Win32,60.24096386,657b66ea316d21385b68909f,,,,,,,,,,,1807.2464,1808.2375,,,1808.7372,1808.9871,,10,190,,,,,,,,,,,,,,,,bars/018.png,bars/mask008.png,,,,,,,,,,,,0,1,,,,,,,8,10,6,10,,,,,,,,,,,1808.2376,1808.7369,1808.9871,1813.2363,space,4.2379,,1813.2364,40,80,1814.236,1814.236,1814.2551,,,,0,30,30,30,1,150,90,,,,,,,,
,,657079339d147ddcce1b8bb7,65af560ab89350ece997c577,2024-01-23_08h05.08.615,bars,2023.2.3,Win32,60.24096386,657b66ea316d21385b68909f,,,,,,,,,,,1814.2556,1815.2529,,,1815.7531,1816.0027,,112,112,,,,,,,,,,,,,,,,bars/044.png,bars/mask009.png,,,,,,,,,,,,0,1,,,,,,,6,8,8,9,,,,,,,,,,,1815.253,1815.753,1816.0028,1823.0353,space,7.0237,,1823.0354,37,43,1824.0336,1824.0337,1824.0496,,,,0,31,31,31,1,75,155,,,,,,,,
,,657079339d147ddcce1b8bb7,65af560ab89350ece997c577,2024-01-23_08h05.08.615,bars,2023.2.3,Win32,60.24096386,657b66ea316d21385b68909f,,,,,,,,,,,1824.0504,1825.0504,,,1825.5511,1825.8007,,97,97,,,,,,,,,,,,,,,,bars/015.png,bars/mask006.png,,,,,,,,,,,,2,1,,,,,,,4,10,4,10,,,,,,,,,,,1825.0504,1825.5511,1825.8007,1827.3835,space,1.5712,,1827.3835,13,63,1828.3828,1828.3829,1828.3843,,,,0,32,32,32,1,110,160,,,,,,,,
,,657079339d147ddcce1b8bb7,65af560ab89350ece997c577,2024-01-23_08h05.08.615,bars,2023.2.3,Win32,60.24096386,657b66ea316d21385b68909f,,,,,,,,,,,1828.3848,1829.3825,,,1829.8827,1830.1323,,5,185,,,,,,,,,,,,,,,,bars/025.png,bars/mask003.png,,,,,,,,,,,,0,2,,,,,,,2,8,2,8,,,,,,,,,,,1829.3825,1829.8826,1830.1323,1832.8822,space,2.7349,,1832.8823,80,35,1833.8814,1833.8814,1833.8999,,,,0,33,33,33,1,105,40,,,,,,,,
,,657079339d147ddcce1b8bb7,65af560ab89350ece997c577,2024-01-23_08h05.08.615,bars,2023.2.3,Win32,60.24096386,657b66ea316d21385b68909f,,,,,,,,,,,1833.901,1834.8979,,,1835.398,1835.648,,98,98,,,,,,,,,,,,,,,,bars/046.png,bars/mask006.png,,,,,,,,,,,,3,2,,,,,,,4,6,5,6,,,,,,,,,,,1834.8979,1835.3979,1835.648,1837.0493,space,1.3935,,1837.0494,57,13,1838.0468,1838.0469,1838.0482,,,,0,34,34,34,1,155,85,,,,,,,,
,,657079339d147ddcce1b8bb7,65af560ab89350ece997c577,2024-01-23_08h05.08.615,bars,2023.2.3,Win32,60.24096386,657b66ea316d21385b68909f,,,,,,,,,,,1838.0488,1839.0467,,,1839.5468,1839.7982,,169,169,,,,,,,,,,,,,,,,bars/033.png,bars/mask000.png,,,,,,,,,,,,2,2,,,,,,,2,4,2,4,,,,,,,,,,,1839.0467,1839.5467,1839.7983,1842.7631,space,2.9489,,1842.7631,36,14,1843.7623,1843.7623,1843.7797,,,,0,35,35,35,1,25,155,,,,,,,,
,,657079339d147ddcce1b8bb7,65af560ab89350ece997c577,2024-01-23_08h05.08.615,bars,2023.2.3,Win32,60.24096386,657b66ea316d21385b68909f,,,,,,,,,,,1843.7808,1844.779,,,1845.2786,1845.5281,,82,82,,,,,,,,,,,,,,,,bars/000.png,bars/mask001.png,,,,,,,,,,,,0,1,,,,,,,4,2,4,1,,,,,,,,,,,1844.779,1845.2786,1845.5282,1846.565,space,1.0279,,1846.5651,42,63,1847.5612,1847.5612,1847.5657,,,,0,36,36,36,1,40,145,,,,,,,,
,,657079339d147ddcce1b8bb7,65af560ab89350ece997c577,2024-01-23_08h05.08.615,bars,2023.2.3,Win32,60.24096386,657b66ea316d21385b68909f,,,,,,,,,,,1847.567,1848.5606,,,1849.0609,1849.311,,26,26,,,,,,,,,,,,,,,,bars/042.png,bars/mask002.png,,,,,,,,,,,,0,2,,,,,,,2,0,0,0,,,,,,,,,,,1848.5606,1849.0607,1849.311,1851.9105,space,2.5844,,1851.9106,61,49,1852.91,1852.9101,1852.9289,,,,0,37,37,37,1,145,75,,,,,,,,
,,657079339d147ddcce1b8bb7,65af560ab89350ece997c577,2024-01-23_08h05.08.615,bars,2023.2.3,Win32,60.24096386,657b66ea316d21385b68909f,,,,,,,,,,,1852.9295,1853.9264,,,1854.426,1854.6762,,117,117,,,,,,,,,,,,,,,,bars/004.png,bars/mask008.png,,,,,,,,,,,,1,2,,,,,,,0,0,0,2,,,,,,,,,,,1853.9265,1854.426,1854.6763,1856.7923,space,2.1021,,1856.7925,88,8,1857.7918,1857.7918,1857.8096,,,,0,38,38,38,1,25,125,,,,,,,,
,,657079339d147ddcce1b8bb7,65af560ab89350ece997c577,2024-01-23_08h05.08.615,bars,2023.2.3,Win32,60.24096386,657b66ea316d21385b68909f,,,,,,,,,,,1857.8109,1858.8084,,,1859.3083,1859.5581,,13,13,,,,,,,,,,,,,,,,bars/028.png,bars/mask001.png,,,,,,,,,,,,0,1,,,,,,,2,0,2,0,,,,,,,,,,,1858.8084,1859.3082,1859.5581,1862.6417,space,3.0756,,1862.6417,32,73,1863.6406,1863.6406,1863.6604,,,,0,39,39,39,1,45,120,,,,,,,,
,,657079339d147ddcce1b8bb7,65af560ab89350ece997c577,2024-01-23_08h05.08.615,bars,2023.2.3,Win32,60.24096386,657b66ea316d21385b68909f,,,,,,,,,,,1863.6609,1864.6557,,,1865.1562,1865.406,,17,17,,,,,,,,,,,,,,,,bars/010.png,bars/mask007.png,,,,,,,,,,,,0,1,,,,,,,4,0,3,0,,,,,,,,,,,1864.6557,1865.1561,1865.4061,1867.6225,space,2.2021,,1867.6225,32,38,1868.6216,1868.6219,1868.6236,,,,0,40,40,40,1,165,55,,,,,,,,
,,657079339d147ddcce1b8bb7,65af560ab89350ece997c577,2024-01-23_08h05.08.615,bars,2023.2.3,Win32,60.24096386,657b66ea316d21385b68909f,,,,,,,,,,,1868.6242,1869.6212,,,1870.1215,1870.3712,,53,53,,,,,,,,,,,,,,,,bars/038.png,bars/mask006.png,,,,,,,,,,,,0,2,,,,,,,2,0,3,0,,,,,,,,,,,1869.6216,1870.1214,1870.3712,1871.9546,space,1.5699,,1871.9547,68,17,1872.9538,1872.9541,1872.9723,,,,0,41,41,41,1,165,70,,,,,,,,
,,657079339d147ddcce1b8bb7,65af560ab89350ece997c577,2024-01-23_08h05.08.615,bars,2023.2.3,Win32,60.24096386,657b66ea316d21385b68909f,,,,,,,,,,,1872.9728,1873.9712,,,1874.4713,1874.7209,,163,163,,,,,,,,,,,,,,,,bars/034.png,bars/mask000.png,,,,,,,,,,,,0,1,,,,,,,0,0,1,0,,,,,,,,,,,1873.9712,1874.4712,1874.7209,1876.7238,space,1.9941,,1876.7238,38,82,1877.7195,1877.7195,1877.7375,,,,0,42,42,42,1,125,65,,,,,,,,
,,657079339d147ddcce1b8bb7,65af560ab89350ece997c577,2024-01-23_08h05.08.615,bars,2023.2.3,Win32,60.24096386,657b66ea316d21385b68909f,,,,,,,,,,,1877.7381,1878.7365,,,1879.2364,1879.4865,,123,123,,,,,,,,,,,,,,,,bars/046.png,bars/mask004.png,,,,,,,,,,,,0,1,,,,,,,2,2,1,2,,,,,,,,,,,1878.7365,1879.2363,1879.4866,1882.2859,space,2.7843,,1882.286,32,38,1883.2852,1883.2853,1883.2988,,,,0,43,43,43,1,155,85,,,,,,,,
,,657079339d147ddcce1b8bb7,65af560ab89350ece997c577,2024-01-23_08h05.08.615,bars,2023.2.3,Win32,60.24096386,657b66ea316d21385b68909f,,,,,,,,,,,1883.3014,1884.302,,,1884.8016,1885.0514,,159,-21,,,,,,,,,,,,,,,,bars/033.png,bars/mask001.png,,,,,,,,,,,,3,2,,,,,,,4,4,4,3,,,,,,,,,,,1884.3021,1884.8016,1885.0515,1887.6851,space,2.6257,,1887.6852,46,4,1888.6839,1888.6839,1888.6888,,,,0,44,44,44,1,25,155,,,,,,,,
,,657079339d147ddcce1b8bb7,65af560ab89350ece997c577,2024-01-23_08h05.08.615,bars,2023.2.3,Win32,60.24096386,657b66ea316d21385b68909f,,,,,,,,,,,1888.69,1889.6837,,,1890.1833,1890.4334,,124,124,,,,,,,,,,,,,,,,bars/022.png,bars/mask001.png,,,,,,,,,,,,0,1,,,,,,,6,2,6,2,,,,,,,,,,,1889.6837,1890.1833,1890.4334,1892.6505,space,2.2014,,1892.6506,29,76,1893.6492,1893.6493,1893.668,,,,0,45,45,45,1,95,20,,,,,,,,
,,657079339d147ddcce1b8bb7,65af560ab89350ece997c577,2024-01-23_08h05.08.615,bars,2023.2.3,Win32,60.24096386,657b66ea316d21385b68909f,,,,,,,,,,,1893.669,1894.6656,,,1895.1655,1895.4155,,17,17,,,,,,,,,,,,,,,,bars/028.png,bars/mask007.png,,,,,,,,,,,,1,1,,,,,,,8,0,8,0,,,,,,,,,,,1894.6657,1895.1654,1895.4155,1898.1152,space,2.6838,,1898.1153,28,77,1899.1053,1899.1053,1899.1202,,,,0,46,46,46,1,45,120,,,,,,,,
,,657079339d147ddcce1b8bb7,65af560ab89350ece997c577,2024-01-23_08h05.08.615,bars,2023.2.3,Win32,60.24096386,657b66ea316d21385b68909f,,,,,,,,,,,1899.1208,1900.1139,,,1900.6139,1900.8638,,122,122,,,,,,,,,,,,,,,,bars/011.png,bars/mask003.png,,,,,,,,,,,,0,2,,,,,,,10,2,9,2,,,,,,,,,,,1900.1139,1900.6138,1900.8638,1903.2805,space,2.4014,,1903.2806,38,37,1904.28,1904.2801,1904.2995,,,,0,47,47,47,1,160,85,,,,,,,,
,,657079339d147ddcce1b8bb7,65af560ab89350ece997c577,2024-01-23_08h05.08.615,bars,2023.2.3,Win32,60.24096386,657b66ea316d21385b68909f,,,,,,,,,,,1904.3001,1905.2963,,,1905.7962,1906.0461,,168,168,,,,,,,,,,,,,,,,bars/008.png,bars/mask009.png,,,,,,,,,,,,0,2,,,,,,,8,0,9,0,,,,,,,,,,,1905.2963,1905.7961,1906.0462,1907.6464,space,1.5869,,1907.6465,58,12,1908.6453,1908.6454,1908.6469,,,,0,48,48,48,1,110,0,,,,,,,,
,,657079339d147ddcce1b8bb7,65af560ab89350ece997c577,2024-01-23_08h05.08.615,bars,2023.2.3,Win32,60.24096386,657b66ea316d21385b68909f,,,,,,,,,,,1908.6474,1909.6451,,,1910.145,1910.3951,,168,168,,,,,,,,,,,,,,,,bars/001.png,bars/mask008.png,,,,,,,,,,,,0,1,,,,,,,10,2,9,1,,,,,,,,,,,1909.6451,1910.145,1910.3951,1913.8945,space,3.487,,1913.8945,38,83,1914.8936,1914.8937,1914.9115,,,,0,49,49,49,1,130,85,,,,,,,,
,,657079339d147ddcce1b8bb7,65af560ab89350ece997c577,2024-01-23_08h05.08.615,bars,2023.2.3,Win32,60.24096386,657b66ea316d21385b68909f,,,,,,,,,,,,,,,,,,,,,,,,,,,,,,,,,,,,,,,,,,,,,,,,,,,,,,,,,,,,,,,,,,,,,,,,,,,,,,,,,,,,,,,,,,,,,1914.912,1974.911,0,3,3,3,1,sequence_tables/blk006.csv
,,657079339d147ddcce1b8bb7,65af560ab89350ece997c577,2024-01-23_08h05.08.615,bars,2023.2.3,Win32,60.24096386,657b66ea316d21385b68909f,,,,,,,,,,,2031.3365,2032.3299,,,2032.83,2033.0798,,158,158,,,,,,,,,,,,,,,,bars/028.png,bars/mask003.png,,,,,,,,,,,,0,2,,,,,,,10,2,9,2,,,,,,1974.9253,2031.3149,space,56.3793,,2032.3301,2032.83,2033.08,2035.5796,space,2.4845,,2035.5797,67,38,2036.5789,2036.579,2036.5984,,,,0,0,0,0,1,45,120,,,,,,,,
,,657079339d147ddcce1b8bb7,65af560ab89350ece997c577,2024-01-23_08h05.08.615,bars,2023.2.3,Win32,60.24096386,657b66ea316d21385b68909f,,,,,,,,,,,2036.5991,2037.5946,,,2038.0946,2038.3439,,87,87,,,,,,,,,,,,,,,,bars/002.png,bars/mask000.png,,,,,,,,,,,,0,2,,,,,,,8,0,8,0,,,,,,,,,,,2037.5947,2038.0945,2038.3442,2040.1608,space,1.8074,,2040.1608,43,2,2041.1604,2041.1605,2041.1621,,,,0,1,1,1,1,130,85,,,,,,,,
,,657079339d147ddcce1b8bb7,65af560ab89350ece997c577,2024-01-23_08h05.08.615,bars,2023.2.3,Win32,60.24096386,657b66ea316d21385b68909f,,,,,,,,,,,2041.1627,2042.1601,,,2042.6602,2042.91,,73,73,,,,,,,,,,,,,,,,bars/027.png,bars/mask003.png,,,,,,,,,,,,0,2,,,,,,,6,2,4,2,,,,,,,,,,,2042.1601,2042.6601,2042.91,2044.5269,space,1.6021,,2044.527,37,23,2045.526,2045.5261,2045.5473,,,,0,2,2,2,1,110,50,,,,,,,,
,,657079339d147ddcce1b8bb7,65af560ab89350ece997c577,2024-01-23_08h05.08.615,bars,2023.2.3,Win32,60.24096386,657b66ea316d21385b68909f,,,,,,,,,,,2045.5482,2046.5508,,,2047.0503,2047.3005,,139,139,,,,,,,,,,,,,,,,bars/031.png,bars/mask001.png,,,,,,,,,,,,2,1,,,,,,,8,0,6,1,,,,,,,,,,,2046.5509,2047.05,2047.3006,2049.8019,space,2.4848,,2049.8021,19,76,2050.7915,2050.7916,2050.8119,,,,0,3,3,3,1,120,35,,,,,,,,
,,657079339d147ddcce1b8bb7,65af560ab89350ece997c577,2024-01-23_08h05.08.615,bars,2023.2.3,Win32,60.24096386,657b66ea316d21385b68909f,,,,,,,,,,,2050.8124,2051.808,,,2052.308,2052.5579,,75,75,,,,,,,,,,,,,,,,bars/003.png,bars/mask001.png,,,,,,,,,,,,0,1,,,,,,,6,2,8,1,,,,,,,,,,,2051.8081,2052.308,2052.5579,2055.6246,space,3.0512,,2055.6247,50,65,2056.6234,2056.6236,2056.6416,,,,0,4,4,4,1,25,140,,,,,,,,
,,657079339d147ddcce1b8bb7,65af560ab89350ece997c577,2024-01-23_08h05.08.615,bars,2023.2.3,Win32,60.24096386,657b66ea316d21385b68909f,,,,,,,,,,,2056.6422,2057.6399,,,2058.14,2058.3903,,69,69,,,,,,,,,,,,,,,,bars/008.png,bars/mask008.png,,,,,,,,,,,,0,1,,,,,,,4,0,6,0,,,,,,,,,,,2057.6399,2058.1399,2058.3903,2061.3209,space,2.9214,,2061.321,41,69,2062.3215,2062.3215,2062.3385,,,,0,5,5,5,1,110,0,,,,,,,,
,,657079339d147ddcce1b8bb7,65af560ab89350ece997c577,2024-01-23_08h05.08.615,bars,2023.2.3,Win32,60.24096386,657b66ea316d21385b68909f,,,,,,,,,,,2062.339,2063.3379,,,2063.8379,2064.0878,,131,131,,,,,,,,,,,,,,,,bars/035.png,bars/mask003.png,,,,,,,,,,,,0,1,,,,,,,2,0,2,1,,,,,,,,,,,2063.338,2063.8378,2064.0878,2067.2705,space,3.1704,,2067.2705,44,71,2068.2709,2068.271,2068.2841,,,,0,6,6,6,1,175,60,,,,,,,,
,,657079339d147ddcce1b8bb7,65af560ab89350ece997c577,2024-01-23_08h05.08.615,bars,2023.2.3,Win32,60.24096386,657b66ea316d21385b68909f,,,,,,,,,,,2068.2857,2069.2862,,,2069.7861,2070.036,,145,145,,,,,,,,,,,,,,,,bars/028.png,bars/mask006.png,,,,,,,,,,,,0,2,,,,,,,4,2,4,1,,,,,,,,,,,2069.2862,2069.7861,2070.0361,2072.5524,space,2.5008,,2072.5524,80,25,2073.5519,2073.5519,2073.57,,,,0,7,7,7,1,45,120,,,,,,,,
,,657079339d147ddcce1b8bb7,65af560ab89350ece997c577,2024-01-23_08h05.08.615,bars,2023.2.3,Win32,60.24096386,657b66ea316d21385b68909f,,,,,,,,,,,2073.5705,2074.5602,,,2075.0598,2075.31,,62,62,,,,,,,,,,,,,,,,bars/025.png,bars/mask000.png,,,,,,,,,,,,0,2,,,,,,,6,0,6,1,,,,,,,,,,,2074.5603,2075.0597,2075.3101,2078.7113,space,3.3854,,2078.7113,43,22,2079.7091,2079.7091,2079.7238,,,,0,8,8,8,1,105,40,,,,,,,,
,,657079339d147ddcce1b8bb7,65af560ab89350ece997c577,2024-01-23_08h05.08.615,bars,2023.2.3,Win32,60.24096386,657b66ea316d21385b68909f,,,,,,,,,,,2079.7244,2080.7167,,,2081.216,2081.4666,,107,107,,,,,,,,,,,,,,,,bars/044.png,bars/mask001.png,,,,,,,,,,,,0,1,,,,,,,4,2,5,2,,,,,,,,,,,2080.7168,2081.216,2081.4666,2085.0995,space,3.6175,,2085.0995,32,48,2086.0979,2086.0979,2086.1165,,,,0,9,9,9,1,75,155,,,,,,,,
,,657079339d147ddcce1b8bb7,65af560ab89350ece997c577,2024-01-23_08h05.08.615,bars,2023.2.3,Win32,60.24096386,657b66ea316d21385b68909f,,,,,,,,,,,2086.117,2087.1158,,,2087.6158,2087.8654,,6,186,,,,,,,,,,,,,,,,bars/010.png,bars/mask008.png,,,,,,,,,,,,1,1,,,,,,,2,0,2,0,,,,,,,,,,,2087.1159,2087.6157,2087.8655,2091.782,space,3.905,,2091.782,21,49,2092.7808,2092.7809,2092.7987,,,,0,10,10,10,1,165,55,,,,,,,,
,,657079339d147ddcce1b8bb7,65af560ab89350ece997c577,2024-01-23_08h05.08.615,bars,2023.2.3,Win32,60.24096386,657b66ea316d21385b68909f,,,,,,,,,,,2092.7995,2093.7977,,,2094.2974,2094.5472,,167,167,,,,,,,,,,,,,,,,bars/004.png,bars/mask002.png,,,,,,,,,,,,0,1,,,,,,,0,2,1,4,,,,,,,,,,,2093.7979,2094.2973,2094.5472,2097.6828,space,3.1266,,2097.6828,38,42,2098.6796,2098.6796,2098.6929,,,,0,11,11,11,1,25,125,,,,,,,,
