init_variables.started,init_variables.stopped,participant,session,date,expName,psychopyVersion,OS,frameRate,study_id,instruction_exp.started,instruction_exp.stopped,key_resp_8.keys,key_resp_8.rt,key_resp_8.duration,instruction_single.started,instruction_single.stopped,key_resp_2.keys,key_resp_2.rt,key_resp_2.duration,interval.started,interval.stopped,cue_single.started,cue_single.stopped,mask.started,mask.stopped,ori_response_single.started,res_ori,res,ori_response_single.stopped,key_resp_single.keys,key_resp_single.rt,key_resp_single.duration,disp_single.started,disp_single.stopped,key_resp.keys,key_resp.rt,key_resp.duration,single.thisRepN,single.thisTrialN,single.thisN,single.thisIndex,single.ran,ori,path,mask_path,instruction_bandit.started,instruction_bandit.stopped,key_resp_6.keys,key_resp_6.rt,key_resp_6.duration,cue_bandit.started,cue_bandit.stopped,bandit_res.keys,bandit_res.rt,bandit_res.duration,outcome_bandit.started,rew,action,outcome_bandit.stopped,bandit.thisRepN,bandit.thisTrialN,bandit.thisN,bandit.thisIndex,bandit.ran,actual_rew1,actual_rew2,rew1,rew2,instruction_task.started,instruction_task.stopped,key_resp_7.keys,key_resp_7.rt,key_resp_7.duration,wait_ready.started,wait_ready.stopped,key_resp_3.keys,key_resp_3.rt,key_resp_3.duration,cue.started,cue.stopped,ori_response.started,ori_response.stopped,key_resp_5.keys,key_resp_5.rt,key_resp_5.duration,outcome.started,diff1,diff2,outcome.stopped,disp_outcome_practice.started,disp_outcome_practice.stopped,key_resp_4.keys,key_resp_4.rt,key_resp_4.duration,trials.thisRepN,trials.thisTrialN,trials.thisN,trials.thisIndex,trials.ran,ori1,ori2,break_blk.started,break_blk.stopped,block.thisRepN,block.thisTrialN,block.thisN,block.thisIndex,block.ran,condition_file
0.0003,0.0004,615471d4201b7147e36709cf,65af551dfa16a017ecb780b6,2024-01-23_07h57.44.758,bars,2023.2.3,Win32,60.60606061,657b66ea316d21385b68909f,,,,,,,,,,,,,,,,,,,,,,,,,,,,,,,,,,,,,,,,,,,,,,,,,,,,,,,,,,,,,,,,,,,,,,,,,,,,,,,,,,,,,,,,,,,,,,,,,,,,
,,615471d4201b7147e36709cf,65af551dfa16a017ecb780b6,2024-01-23_07h57.44.758,bars,2023.2.3,Win32,60.60606061,657b66ea316d21385b68909f,0.0007,18.9322,y,18.9183,,,,,,,,,,,,,,,,,,,,,,,,,,,,,,,,,,,,,,,,,,,,,,,,,,,,,,,,,,,,,,,,,,,,,,,,,,,,,,,,,,,,,,,,,,,,,,,,
,,615471d4201b7147e36709cf,65af551dfa16a017ecb780b6,2024-01-23_07h57.44.758,bars,2023.2.3,Win32,60.60606061,657b66ea316d21385b68909f,,,,,,18.9326,56.3983,space,37.448,,,,,,,,,,,,,,,,,,,,,,,,,,,,,,,,,,,,,,,,,,,,,,,,,,,,,,,,,,,,,,,,,,,,,,,,,,,,,,,,,,,,,,,,,,,
,,615471d4201b7147e36709cf,65af551dfa16a017ecb780b6,2024-01-23_07h57.44.758,bars,2023.2.3,Win32,60.60606061,657b66ea316d21385b68909f,,,,,,,,,,,56.4048,57.4066,57.4071,57.9069,57.9073,58.1564,58.1566,92,92,65.2817,space,7.0933,,65.282,72.2581,space,6.9276,,0,0,0,1,1,20,bars/single001.png,bars/mask006.png,,,,,,,,,,,,,,,,,,,,,,,,,,,,,,,,,,,,,,,,,,,,,,,,,,,,,,,,,,,,,,,,
,,615471d4201b7147e36709cf,65af551dfa16a017ecb780b6,2024-01-23_07h57.44.758,bars,2023.2.3,Win32,60.60606061,657b66ea316d21385b68909f,,,,,,,,,,,72.2798,73.2737,73.2743,73.7614,73.7615,74.0112,74.0114,146,146,81.7791,space,7.751,,81.7792,87.6798,space,5.8734,,0,1,1,4,1,95,bars/single004.png,bars/mask004.png,,,,,,,,,,,,,,,,,,,,,,,,,,,,,,,,,,,,,,,,,,,,,,,,,,,,,,,,,,,,,,,,
,,615471d4201b7147e36709cf,65af551dfa16a017ecb780b6,2024-01-23_07h57.44.758,bars,2023.2.3,Win32,60.60606061,657b66ea316d21385b68909f,,,,,,,,,,,87.709,88.6905,88.6905,89.1904,89.1905,89.4403,89.4404,64,64,91.574,space,2.1237,,91.574,95.3247,space,3.7334,,0,2,2,5,1,55,bars/single005.png,bars/mask008.png,,,,,,,,,,,,,,,,,,,,,,,,,,,,,,,,,,,,,,,,,,,,,,,,,,,,,,,,,,,,,,,,
,,615471d4201b7147e36709cf,65af551dfa16a017ecb780b6,2024-01-23_07h57.44.758,bars,2023.2.3,Win32,60.60606061,657b66ea316d21385b68909f,,,,,,,,,,,95.3582,96.3405,96.3406,96.8405,96.8407,97.0906,97.0907,38,38,100.7578,space,3.6557,,100.7578,104.2584,space,3.4624,,0,3,3,9,1,20,bars/single009.png,bars/mask006.png,,,,,,,,,,,,,,,,,,,,,,,,,,,,,,,,,,,,,,,,,,,,,,,,,,,,,,,,,,,,,,,,
,,615471d4201b7147e36709cf,65af551dfa16a017ecb780b6,2024-01-23_07h57.44.758,bars,2023.2.3,Win32,60.60606061,657b66ea316d21385b68909f,,,,,,,,,,,104.2597,105.258,105.2581,105.7609,105.7611,106.0123,106.0124,8,8,108.3087,space,2.2737,,108.309,112.6162,space,4.2861,,0,4,4,3,1,20,bars/single003.png,bars/mask005.png,,,,,,,,,,,,,,,,,,,,,,,,,,,,,,,,,,,,,,,,,,,,,,,,,,,,,,,,,,,,,,,,
,,615471d4201b7147e36709cf,65af551dfa16a017ecb780b6,2024-01-23_07h57.44.758,bars,2023.2.3,Win32,60.60606061,657b66ea316d21385b68909f,,,,,,,,,,,112.6483,113.624,113.624,114.1269,114.1269,114.3749,114.375,152,152,119.2427,space,4.8438,,119.2429,121.7255,space,2.4338,,0,5,5,0,1,150,bars/single000.png,bars/mask006.png,,,,,,,,,,,,,,,,,,,,,,,,,,,,,,,,,,,,,,,,,,,,,,,,,,,,,,,,,,,,,,,,
,,615471d4201b7147e36709cf,65af551dfa16a017ecb780b6,2024-01-23_07h57.44.758,bars,2023.2.3,Win32,60.60606061,657b66ea316d21385b68909f,,,,,,,,,,,121.7263,122.7246,122.7247,123.2251,123.2252,123.4748,123.4748,23,23,127.6417,space,4.1514,,127.6418,131.2422,space,3.5755,,0,6,6,7,1,45,bars/single007.png,bars/mask009.png,,,,,,,,,,,,,,,,,,,,,,,,,,,,,,,,,,,,,,,,,,,,,,,,,,,,,,,,,,,,,,,,
,,615471d4201b7147e36709cf,65af551dfa16a017ecb780b6,2024-01-23_07h57.44.758,bars,2023.2.3,Win32,60.60606061,657b66ea316d21385b68909f,,,,,,,,,,,131.2555,132.2583,132.2584,132.7582,132.7582,133.0087,133.0088,134,134,135.5418,space,2.5148,,135.5419,137.6255,space,2.0552,,0,7,7,8,1,160,bars/single008.png,bars/mask004.png,,,,,,,,,,,,,,,,,,,,,,,,,,,,,,,,,,,,,,,,,,,,,,,,,,,,,,,,,,,,,,,,
,,615471d4201b7147e36709cf,65af551dfa16a017ecb780b6,2024-01-23_07h57.44.758,bars,2023.2.3,Win32,60.60606061,657b66ea316d21385b68909f,,,,,,,,,,,137.6263,138.6253,138.6254,139.1253,139.1255,139.375,139.375,15,195,142.1755,space,2.7881,,142.1755,144.6253,space,2.4304,,0,8,8,6,1,175,bars/single006.png,bars/mask005.png,,,,,,,,,,,,,,,,,,,,,,,,,,,,,,,,,,,,,,,,,,,,,,,,,,,,,,,,,,,,,,,,
,,615471d4201b7147e36709cf,65af551dfa16a017ecb780b6,2024-01-23_07h57.44.758,bars,2023.2.3,Win32,60.60606061,657b66ea316d21385b68909f,,,,,,,,,,,144.6257,145.6253,145.6254,146.1253,146.1254,146.3756,146.3757,153,-27,150.0756,space,3.6826,,150.0757,153.2592,space,3.153,,0,9,9,2,1,145,bars/single002.png,bars/mask003.png,,,,,,,,,,,,,,,,,,,,,,,,,,,,,,,,,,,,,,,,,,,,,,,,,,,,,,,,,,,,,,,,
,,615471d4201b7147e36709cf,65af551dfa16a017ecb780b6,2024-01-23_07h57.44.758,bars,2023.2.3,Win32,60.60606061,657b66ea316d21385b68909f,,,,,,,,,,,,,,,,,,,,,,,,,,,,,,,,,,,,,153.289,178.444,space,25.1337,,,,,,,,,,,,,,,,,,,,,,,,,,,,,,,,,,,,,,,,,,,,,,,,,,,,,,,,,,,,
,,615471d4201b7147e36709cf,65af551dfa16a017ecb780b6,2024-01-23_07h57.44.758,bars,2023.2.3,Win32,60.60606061,657b66ea316d21385b68909f,,,,,,,,,,,,,,,,,,,,,,,,,,,,,,,,,,,,,,,,,,178.4651,183.6787,left,5.1998,,183.6791,9,1,184.6768,0,0,0,0,1,9,1,9,2,,,,,,,,,,,,,,,,,,,,,,,,,,,,,,,,,,,,,,,,,
,,615471d4201b7147e36709cf,65af551dfa16a017ecb780b6,2024-01-23_07h57.44.758,bars,2023.2.3,Win32,60.60606061,657b66ea316d21385b68909f,,,,,,,,,,,,,,,,,,,,,,,,,,,,,,,,,,,,,,,,,,184.6781,188.0768,left,3.3833,,188.0769,10,1,189.0766,0,1,1,1,1,10,0,10,1,,,,,,,,,,,,,,,,,,,,,,,,,,,,,,,,,,,,,,,,,
,,615471d4201b7147e36709cf,65af551dfa16a017ecb780b6,2024-01-23_07h57.44.758,bars,2023.2.3,Win32,60.60606061,657b66ea316d21385b68909f,,,,,,,,,,,,,,,,,,,,,,,,,,,,,,,,,,,,,,,,,,189.1018,190.8171,right,1.7094,,190.8173,2,2,191.8146,0,2,2,2,1,10,2,10,2,,,,,,,,,,,,,,,,,,,,,,,,,,,,,,,,,,,,,,,,,
,,615471d4201b7147e36709cf,65af551dfa16a017ecb780b6,2024-01-23_07h57.44.758,bars,2023.2.3,Win32,60.60606061,657b66ea316d21385b68909f,,,,,,,,,,,,,,,,,,,,,,,,,,,,,,,,,,,,,,,,,,191.8155,193.1454,left,1.3082,,193.1457,7,1,194.1435,0,3,3,3,1,8,4,7,3,,,,,,,,,,,,,,,,,,,,,,,,,,,,,,,,,,,,,,,,,
,,615471d4201b7147e36709cf,65af551dfa16a017ecb780b6,2024-01-23_07h57.44.758,bars,2023.2.3,Win32,60.60606061,657b66ea316d21385b68909f,,,,,,,,,,,,,,,,,,,,,,,,,,,,,,,,,,,,,,,,,,194.1449,195.3662,left,1.2015,,195.3663,5,1,196.3609,0,4,4,4,1,6,2,5,1,,,,,,,,,,,,,,,,,,,,,,,,,,,,,,,,,,,,,,,,,
,,615471d4201b7147e36709cf,65af551dfa16a017ecb780b6,2024-01-23_07h57.44.758,bars,2023.2.3,Win32,60.60606061,657b66ea316d21385b68909f,,,,,,,,,,,,,,,,,,,,,,,,,,,,,,,,,,,,,,,,,,196.3623,197.283,right,0.902,,197.2832,4,2,198.2821,0,5,5,5,1,4,4,4,4,,,,,,,,,,,,,,,,,,,,,,,,,,,,,,,,,,,,,,,,,
,,615471d4201b7147e36709cf,65af551dfa16a017ecb780b6,2024-01-23_07h57.44.758,bars,2023.2.3,Win32,60.60606061,657b66ea316d21385b68909f,,,,,,,,,,,,,,,,,,,,,,,,,,,,,,,,,,,,,,,,,,198.2834,199.9475,left,1.6492,,199.9477,1,1,200.944,0,6,6,6,1,2,2,1,2,,,,,,,,,,,,,,,,,,,,,,,,,,,,,,,,,,,,,,,,,
,,615471d4201b7147e36709cf,65af551dfa16a017ecb780b6,2024-01-23_07h57.44.758,bars,2023.2.3,Win32,60.60606061,657b66ea316d21385b68909f,,,,,,,,,,,,,,,,,,,,,,,,,,,,,,,,,,,,,,,,,,200.971,201.9009,right,0.9251,,201.901,1,2,202.898,0,7,7,7,1,0,0,0,1,,,,,,,,,,,,,,,,,,,,,,,,,,,,,,,,,,,,,,,,,
,,615471d4201b7147e36709cf,65af551dfa16a017ecb780b6,2024-01-23_07h57.44.758,bars,2023.2.3,Win32,60.60606061,657b66ea316d21385b68909f,,,,,,,,,,,,,,,,,,,,,,,,,,,,,,,,,,,,,,,,,,202.899,203.4499,right,0.5354,,203.45,0,2,204.4444,0,8,8,8,1,0,2,1,0,,,,,,,,,,,,,,,,,,,,,,,,,,,,,,,,,,,,,,,,,
,,615471d4201b7147e36709cf,65af551dfa16a017ecb780b6,2024-01-23_07h57.44.758,bars,2023.2.3,Win32,60.60606061,657b66ea316d21385b68909f,,,,,,,,,,,,,,,,,,,,,,,,,,,,,,,,,,,,,,,,,,204.4464,205.2612,left,0.7845,,205.2617,2,1,206.2647,0,9,9,9,1,2,4,2,3,,,,,,,,,,,,,,,,,,,,,,,,,,,,,,,,,,,,,,,,,
,,615471d4201b7147e36709cf,65af551dfa16a017ecb780b6,2024-01-23_07h57.44.758,bars,2023.2.3,Win32,60.60606061,657b66ea316d21385b68909f,,,,,,,,,,,,,,,,,,,,,,,,,,,,,,,,,,,,,,,,,,206.2657,206.8996,left,0.6175,,206.8996,0,1,207.8967,0,10,10,10,1,0,2,0,3,,,,,,,,,,,,,,,,,,,,,,,,,,,,,,,,,,,,,,,,,
,,615471d4201b7147e36709cf,65af551dfa16a017ecb780b6,2024-01-23_07h57.44.758,bars,2023.2.3,Win32,60.60606061,657b66ea316d21385b68909f,,,,,,,,,,,,,,,,,,,,,,,,,,,,,,,,,,,,,,,,,,207.8975,208.7167,right,0.8013,,208.7168,3,2,209.7108,0,11,11,11,1,0,4,0,3,,,,,,,,,,,,,,,,,,,,,,,,,,,,,,,,,,,,,,,,,
,,615471d4201b7147e36709cf,65af551dfa16a017ecb780b6,2024-01-23_07h57.44.758,bars,2023.2.3,Win32,60.60606061,657b66ea316d21385b68909f,,,,,,,,,,,,,,,,,,,,,,,,,,,,,,,,,,,,,,,,,,209.7121,211.5128,left,1.7737,,211.5131,1,1,212.5154,0,12,12,12,1,2,6,1,6,,,,,,,,,,,,,,,,,,,,,,,,,,,,,,,,,,,,,,,,,
,,615471d4201b7147e36709cf,65af551dfa16a017ecb780b6,2024-01-23_07h57.44.758,bars,2023.2.3,Win32,60.60606061,657b66ea316d21385b68909f,,,,,,,,,,,,,,,,,,,,,,,,,,,,,,,,,,,,,,,,,,212.5159,214.0795,right,1.543,,214.0797,3,2,215.0776,0,13,13,13,1,0,4,1,3,,,,,,,,,,,,,,,,,,,,,,,,,,,,,,,,,,,,,,,,,
,,615471d4201b7147e36709cf,65af551dfa16a017ecb780b6,2024-01-23_07h57.44.758,bars,2023.2.3,Win32,60.60606061,657b66ea316d21385b68909f,,,,,,,,,,,,,,,,,,,,,,,,,,,,,,,,,,,,,,,,,,215.1025,217.0782,right,1.9599,,217.0785,7,2,218.0771,0,14,14,14,1,2,6,2,7,,,,,,,,,,,,,,,,,,,,,,,,,,,,,,,,,,,,,,,,,
,,615471d4201b7147e36709cf,65af551dfa16a017ecb780b6,2024-01-23_07h57.44.758,bars,2023.2.3,Win32,60.60606061,657b66ea316d21385b68909f,,,,,,,,,,,,,,,,,,,,,,,,,,,,,,,,,,,,,,,,,,218.0785,219.2186,right,1.1188,,219.2187,9,2,220.2113,0,15,15,15,1,4,8,3,9,,,,,,,,,,,,,,,,,,,,,,,,,,,,,,,,,,,,,,,,,
,,615471d4201b7147e36709cf,65af551dfa16a017ecb780b6,2024-01-23_07h57.44.758,bars,2023.2.3,Win32,60.60606061,657b66ea316d21385b68909f,,,,,,,,,,,,,,,,,,,,,,,,,,,,,,,,,,,,,,,,,,220.2131,221.5954,left,1.361,,221.5955,7,1,222.5992,0,16,16,16,1,6,6,7,7,,,,,,,,,,,,,,,,,,,,,,,,,,,,,,,,,,,,,,,,,
,,615471d4201b7147e36709cf,65af551dfa16a017ecb780b6,2024-01-23_07h57.44.758,bars,2023.2.3,Win32,60.60606061,657b66ea316d21385b68909f,,,,,,,,,,,,,,,,,,,,,,,,,,,,,,,,,,,,,,,,,,222.6302,223.5442,right,0.9059,,223.5442,5,2,224.5443,0,17,17,17,1,8,4,9,5,,,,,,,,,,,,,,,,,,,,,,,,,,,,,,,,,,,,,,,,,
,,615471d4201b7147e36709cf,65af551dfa16a017ecb780b6,2024-01-23_07h57.44.758,bars,2023.2.3,Win32,60.60606061,657b66ea316d21385b68909f,,,,,,,,,,,,,,,,,,,,,,,,,,,,,,,,,,,,,,,,,,224.545,225.446,right,0.8943,,225.446,1,2,226.4443,0,18,18,18,1,6,2,5,1,,,,,,,,,,,,,,,,,,,,,,,,,,,,,,,,,,,,,,,,,
,,615471d4201b7147e36709cf,65af551dfa16a017ecb780b6,2024-01-23_07h57.44.758,bars,2023.2.3,Win32,60.60606061,657b66ea316d21385b68909f,,,,,,,,,,,,,,,,,,,,,,,,,,,,,,,,,,,,,,,,,,226.4452,227.0119,left,0.551,,227.012,7,1,228.011,0,19,19,19,1,8,0,7,0,,,,,,,,,,,,,,,,,,,,,,,,,,,,,,,,,,,,,,,,,
,,615471d4201b7147e36709cf,65af551dfa16a017ecb780b6,2024-01-23_07h57.44.758,bars,2023.2.3,Win32,60.60606061,657b66ea316d21385b68909f,,,,,,,,,,,,,,,,,,,,,,,,,,,,,,,,,,,,,,,,,,,,,,,,,,,,,,,,,,,,228.0129,246.7808,space,18.7402,,,,,,,,,,,,,,,,,,,,,,,,,,,,,,,,,,,,,
,,615471d4201b7147e36709cf,65af551dfa16a017ecb780b6,2024-01-23_07h57.44.758,bars,2023.2.3,Win32,60.60606061,657b66ea316d21385b68909f,,,,,,,,,,,248.3908,249.3785,,,249.8789,250.1284,,39,39,,,,,,,,,,,,,,,,bars/002.png,bars/mask008.png,,,,,,,,,,,,0,2,,,,,,,4,1,3,0,,,,,,246.8159,248.3789,space,1.5515,,249.3789,249.8789,250.1289,254.7793,space,4.6256,,254.7797,89,46,255.7789,255.7795,265.2129,space,9.4073,,0,0,0,0,1,130,85,,,,,,,,
,,615471d4201b7147e36709cf,65af551dfa16a017ecb780b6,2024-01-23_07h57.44.758,bars,2023.2.3,Win32,60.60606061,657b66ea316d21385b68909f,,,,,,,,,,,265.2275,266.2289,,,266.7321,266.9788,,108,108,,,,,,,,,,,,,,,,bars/034.png,bars/mask002.png,,,,,,,,,,,,2,1,,,,,,,6,0,5,0,,,,,,,,,,,266.2289,266.732,266.9789,269.5463,space,2.5506,,269.5466,17,43,270.5453,270.5454,275.1958,space,4.6183,,0,1,1,1,1,125,65,,,,,,,,
,,615471d4201b7147e36709cf,65af551dfa16a017ecb780b6,2024-01-23_07h57.44.758,bars,2023.2.3,Win32,60.60606061,657b66ea316d21385b68909f,,,,,,,,,,,275.2142,276.2126,,,276.6961,276.946,,143,143,,,,,,,,,,,,,,,,bars/007.png,bars/mask004.png,,,,,,,,,,,,0,1,,,,,,,4,0,4,3,,,,,,,,,,,276.2128,276.696,276.9461,279.463,space,2.5012,,279.4632,32,88,280.4623,280.4624,283.2866,space,2.7965,,0,2,2,2,1,175,55,,,,,,,,
,,615471d4201b7147e36709cf,65af551dfa16a017ecb780b6,2024-01-23_07h57.44.758,bars,2023.2.3,Win32,60.60606061,657b66ea316d21385b68909f,,,,,,,,,,,283.3185,284.296,,,284.7961,285.046,,27,207,,,,,,,,,,,,,,,,bars/030.png,bars/mask009.png,,,,,,,,,,,,0,2,,,,,,,2,2,3,1,,,,,,,,,,,284.296,284.7961,285.0461,287.7129,space,2.6552,,287.713,67,38,288.7127,288.7127,292.2971,space,3.5348,,0,3,3,3,1,140,65,,,,,,,,
,,615471d4201b7147e36709cf,65af551dfa16a017ecb780b6,2024-01-23_07h57.44.758,bars,2023.2.3,Win32,60.60606061,657b66ea316d21385b68909f,,,,,,,,,,,292.3258,293.3129,,,293.8129,294.0629,,143,-37,,,,,,,,,,,,,,,,bars/028.png,bars/mask006.png,,,,,,,,,,,,1,2,,,,,,,4,4,4,4,,,,,,,,,,,293.313,293.8128,294.063,299.4299,space,5.3512,,299.4301,82,23,300.4298,300.4298,303.4703,space,3.0108,,0,4,4,4,1,45,120,,,,,,,,
,,615471d4201b7147e36709cf,65af551dfa16a017ecb780b6,2024-01-23_07h57.44.758,bars,2023.2.3,Win32,60.60606061,657b66ea316d21385b68909f,,,,,,,,,,,303.5036,304.4797,,,304.9812,305.2308,,170,170,,,,,,,,,,,,,,,,bars/009.png,bars/mask004.png,,,,,,,,,,,,0,1,,,,,,,2,6,2,6,,,,,,,,,,,304.4799,304.9809,305.231,307.7856,space,2.5334,,307.7857,25,65,308.7809,308.7812,313.2636,space,4.4318,,0,5,5,5,1,15,105,,,,,,,,
,,615471d4201b7147e36709cf,65af551dfa16a017ecb780b6,2024-01-23_07h57.44.758,bars,2023.2.3,Win32,60.60606061,657b66ea316d21385b68909f,,,,,,,,,,,313.2781,314.2803,,,314.7805,315.014,,135,135,,,,,,,,,,,,,,,,bars/009.png,bars/mask009.png,,,,,,,,,,,,0,2,,,,,,,4,4,5,4,,,,,,,,,,,314.2807,314.7804,315.0142,318.2807,space,3.253,,318.2809,60,30,319.2804,319.2804,321.4972,space,2.1682,,0,6,6,6,1,15,105,,,,,,,,
,,615471d4201b7147e36709cf,65af551dfa16a017ecb780b6,2024-01-23_07h57.44.758,bars,2023.2.3,Win32,60.60606061,657b66ea316d21385b68909f,,,,,,,,,,,321.5161,322.5137,,,323.0139,323.2637,,148,-32,,,,,,,,,,,,,,,,bars/016.png,bars/mask002.png,,,,,,,,,,,,2,2,,,,,,,2,6,1,5,,,,,,,,,,,322.5138,323.0138,323.2637,325.8809,space,2.6065,,325.881,72,17,326.8807,326.8808,329.1142,space,2.1934,,0,7,7,7,1,40,165,,,,,,,,
,,615471d4201b7147e36709cf,65af551dfa16a017ecb780b6,2024-01-23_07h57.44.758,bars,2023.2.3,Win32,60.60606061,657b66ea316d21385b68909f,,,,,,,,,,,329.1151,330.1136,,,330.6141,330.864,,110,110,,,,,,,,,,,,,,,,bars/002.png,bars/mask000.png,,,,,,,,,,,,0,1,,,,,,,0,4,0,5,,,,,,,,,,,330.1137,330.614,330.864,333.8641,space,2.9878,,333.8642,20,25,334.8642,334.8643,337.7976,space,2.8773,,0,8,8,8,1,130,85,,,,,,,,
,,615471d4201b7147e36709cf,65af551dfa16a017ecb780b6,2024-01-23_07h57.44.758,bars,2023.2.3,Win32,60.60606061,657b66ea316d21385b68909f,,,,,,,,,,,337.8117,338.8144,,,339.3145,339.5645,,116,116,,,,,,,,,,,,,,,,bars/039.png,bars/mask009.png,,,,,,,,,,,,3,2,,,,,,,2,6,3,5,,,,,,,,,,,338.8145,339.3144,339.5645,343.6977,space,4.1166,,343.6978,59,11,344.6977,344.6978,347.4485,space,2.7037,,0,9,9,9,1,175,105,,,,,,,,
,,615471d4201b7147e36709cf,65af551dfa16a017ecb780b6,2024-01-23_07h57.44.758,bars,2023.2.3,Win32,60.60606061,657b66ea316d21385b68909f,,,,,,,,,,,347.4833,348.4645,,,348.9646,349.2144,,8,8,,,,,,,,,,,,,,,,bars/016.png,bars/mask008.png,,,,,,,,,,,,2,2,,,,,,,4,8,7,8,,,,,,,,,,,348.4645,348.9645,349.2145,351.9326,space,2.7112,,351.9327,32,23,352.9314,352.9315,355.1654,space,2.1892,,0,10,10,10,1,40,165,,,,,,,,
,,615471d4201b7147e36709cf,65af551dfa16a017ecb780b6,2024-01-23_07h57.44.758,bars,2023.2.3,Win32,60.60606061,657b66ea316d21385b68909f,,,,,,,,,,,355.1663,356.1644,,,356.6648,356.9147,,74,74,,,,,,,,,,,,,,,,bars/002.png,bars/mask001.png,,,,,,,,,,,,5,2,,,,,,,2,10,3,8,,,,,,,,,,,356.1645,356.6647,356.9148,358.7649,space,1.8381,,358.765,56,11,359.7648,359.7648,361.2502,space,1.4524,,0,11,11,11,1,130,85,,,,,,,,
,,615471d4201b7147e36709cf,65af551dfa16a017ecb780b6,2024-01-23_07h57.44.758,bars,2023.2.3,Win32,60.60606061,657b66ea316d21385b68909f,,,,,,,,,,,361.2505,362.2537,,,362.7491,362.9991,,22,202,,,,,,,,,,,,,,,,bars/015.png,bars/mask006.png,,,,,,,,,,,,0,2,,,,,,,0,10,2,10,,,,,,,,,,,362.2538,362.7488,362.9992,367.2389,space,4.2181,,367.239,88,42,368.2322,368.2324,370.732,space,2.4452,,0,12,12,12,1,110,160,,,,,,,,
,,615471d4201b7147e36709cf,65af551dfa16a017ecb780b6,2024-01-23_07h57.44.758,bars,2023.2.3,Win32,60.60606061,657b66ea316d21385b68909f,,,,,,,,,,,370.733,371.7318,,,372.2317,372.4819,,80,80,,,,,,,,,,,,,,,,bars/019.png,bars/mask002.png,,,,,,,,,,,,1,2,,,,,,,2,8,2,8,,,,,,,,,,,371.7319,372.2317,372.4819,374.8317,space,2.3384,,374.8317,35,25,375.832,375.8322,377.699,space,1.8243,,0,13,13,13,1,45,105,,,,,,,,
,,615471d4201b7147e36709cf,65af551dfa16a017ecb780b6,2024-01-23_07h57.44.758,bars,2023.2.3,Win32,60.60606061,657b66ea316d21385b68909f,,,,,,,,,,,377.6996,378.6985,,,379.199,379.4487,,7,7,,,,,,,,,,,,,,,,bars/020.png,bars/mask008.png,,,,,,,,,,,,2,2,,,,,,,4,6,5,5,,,,,,,,,,,378.6986,379.1989,379.4488,383.0155,space,3.5588,,383.0155,72,17,384.0154,384.0154,385.4819,space,1.4163,,0,14,14,14,1,115,170,,,,,,,,
,,615471d4201b7147e36709cf,65af551dfa16a017ecb780b6,2024-01-23_07h57.44.758,bars,2023.2.3,Win32,60.60606061,657b66ea316d21385b68909f,,,,,,,,,,,385.4824,386.4823,,,386.982,387.2319,,77,77,,,,,,,,,,,,,,,,bars/001.png,bars/mask008.png,,,,,,,,,,,,6,2,,,,,,,6,8,5,8,,,,,,,,,,,386.4824,386.982,387.2319,388.5488,space,1.308,,388.5489,53,8,389.5488,389.5489,390.7324,space,1.153,,0,15,15,15,1,130,85,,,,,,,,
,,615471d4201b7147e36709cf,65af551dfa16a017ecb780b6,2024-01-23_07h57.44.758,bars,2023.2.3,Win32,60.60606061,657b66ea316d21385b68909f,,,,,,,,,,,390.7329,391.7324,,,392.2326,392.4825,,113,113,,,,,,,,,,,,,,,,bars/049.png,bars/mask001.png,,,,,,,,,,,,7,2,,,,,,,8,6,8,7,,,,,,,,,,,391.7325,392.2325,392.4827,394.0158,space,1.518,,394.0159,47,2,395.0159,395.016,396.2161,space,1.1826,,0,16,16,16,1,160,115,,,,,,,,
,,615471d4201b7147e36709cf,65af551dfa16a017ecb780b6,2024-01-23_07h57.44.758,bars,2023.2.3,Win32,60.60606061,657b66ea316d21385b68909f,,,,,,,,,,,396.217,397.2159,,,397.7159,397.966,,136,136,,,,,,,,,,,,,,,,bars/023.png,bars/mask002.png,,,,,,,,,,,,1,2,,,,,,,10,4,10,3,,,,,,,,,,,397.216,397.7159,397.9661,399.9161,space,1.9336,,399.9164,64,21,400.9155,400.9155,402.6842,space,1.7503,,0,17,17,17,1,20,115,,,,,,,,
,,615471d4201b7147e36709cf,65af551dfa16a017ecb780b6,2024-01-23_07h57.44.758,bars,2023.2.3,Win32,60.60606061,657b66ea316d21385b68909f,,,,,,,,,,,402.6856,403.683,,,404.1828,404.4326,,37,37,,,,,,,,,,,,,,,,bars/044.png,bars/mask001.png,,,,,,,,,,,,0,1,,,,,,,10,2,10,2,,,,,,,,,,,403.6832,404.1827,404.4327,408.0996,space,3.6582,,408.0997,38,62,409.0996,409.0996,411.5164,space,2.3707,,0,18,18,18,1,75,155,,,,,,,,
,,615471d4201b7147e36709cf,65af551dfa16a017ecb780b6,2024-01-23_07h57.44.758,bars,2023.2.3,Win32,60.60606061,657b66ea316d21385b68909f,,,,,,,,,,,411.5298,412.533,,,413.0332,413.2832,,64,64,,,,,,,,,,,,,,,,bars/027.png,bars/mask005.png,,,,,,,,,,,,2,2,,,,,,,8,4,9,4,,,,,,,,,,,412.533,413.0331,413.2832,419.5358,space,6.2445,,419.5358,46,14,420.533,420.5331,422.5832,space,2.022,,0,19,19,19,1,110,50,,,,,,,,
,,615471d4201b7147e36709cf,65af551dfa16a017ecb780b6,2024-01-23_07h57.44.758,bars,2023.2.3,Win32,60.60606061,657b66ea316d21385b68909f,,,,,,,,,,,422.5838,423.5834,,,424.0836,424.3333,,117,297,,,,,,,,,,,,,,,,bars/041.png,bars/mask001.png,,,,,,,,,,,,0,2,,,,,,,10,2,10,3,,,,,,,,,,,423.5835,424.0836,424.3334,429.7841,space,5.4349,,429.7843,83,32,430.7839,430.7842,432.5335,space,1.6948,,0,20,20,20,1,20,85,,,,,,,,
,,615471d4201b7147e36709cf,65af551dfa16a017ecb780b6,2024-01-23_07h57.44.758,bars,2023.2.3,Win32,60.60606061,657b66ea316d21385b68909f,,,,,,,,,,,432.534,433.5336,,,434.0339,434.2837,,47,227,,,,,,,,,,,,,,,,bars/017.png,bars/mask001.png,,,,,,,,,,,,0,2,,,,,,,10,0,9,0,,,,,,,,,,,433.5337,434.0337,434.2841,439.3005,space,5.0058,,439.3006,82,2,440.3003,440.3004,446.834,space,6.51,,0,21,21,21,1,145,45,,,,,,,,
,,615471d4201b7147e36709cf,65af551dfa16a017ecb780b6,2024-01-23_07h57.44.758,bars,2023.2.3,Win32,60.60606061,657b66ea316d21385b68909f,,,,,,,,,,,446.8666,447.8503,,,448.3507,448.6007,,128,128,,,,,,,,,,,,,,,,bars/043.png,bars/mask007.png,,,,,,,,,,,,0,2,,,,,,,8,0,7,0,,,,,,,,,,,447.8505,448.3505,448.6008,451.3513,space,2.7374,,451.3514,82,2,452.351,452.3511,454.6343,space,2.2265,,0,22,22,22,1,30,130,,,,,,,,
,,615471d4201b7147e36709cf,65af551dfa16a017ecb780b6,2024-01-23_07h57.44.758,bars,2023.2.3,Win32,60.60606061,657b66ea316d21385b68909f,,,,,,,,,,,454.6349,455.6344,,,456.1345,456.3843,,31,31,,,,,,,,,,,,,,,,bars/012.png,bars/mask003.png,,,,,,,,,,,,0,2,,,,,,,6,0,4,0,,,,,,,,,,,455.6345,456.1344,456.3843,457.518,space,1.1216,,457.5181,59,16,458.5173,458.5174,459.6007,space,1.0635,,0,23,23,23,1,90,15,,,,,,,,
,,615471d4201b7147e36709cf,65af551dfa16a017ecb780b6,2024-01-23_07h57.44.758,bars,2023.2.3,Win32,60.60606061,657b66ea316d21385b68909f,,,,,,,,,,,459.6011,460.6008,,,461.1007,461.3507,,112,112,,,,,,,,,,,,,,,,bars/039.png,bars/mask004.png,,,,,,,,,,,,0,2,,,,,,,8,0,8,0,,,,,,,,,,,460.6009,461.1006,461.3508,464.9176,space,3.5591,,464.9177,63,7,465.9179,465.918,469.201,space,3.2345,,0,24,24,24,1,175,105,,,,,,,,
,,615471d4201b7147e36709cf,65af551dfa16a017ecb780b6,2024-01-23_07h57.44.758,bars,2023.2.3,Win32,60.60606061,657b66ea316d21385b68909f,,,,,,,,,,,469.2014,470.2009,,,470.7011,470.951,,29,29,,,,,,,,,,,,,,,,bars/032.png,bars/mask007.png,,,,,,,,,,,,0,2,,,,,,,6,0,5,0,,,,,,,,,,,470.2009,470.701,470.9511,473.8511,space,2.8847,,473.8512,84,9,474.851,474.8511,476.918,space,2.035,,0,25,25,25,1,125,20,,,,,,,,
,,615471d4201b7147e36709cf,65af551dfa16a017ecb780b6,2024-01-23_07h57.44.758,bars,2023.2.3,Win32,60.60606061,657b66ea316d21385b68909f,,,,,,,,,,,476.9184,477.9182,,,478.4181,478.6684,,11,11,,,,,,,,,,,,,,,,bars/008.png,bars/mask001.png,,,,,,,,,,,,3,2,,,,,,,8,2,7,4,,,,,,,,,,,477.9183,478.418,478.6685,481.9848,space,3.3001,,481.9849,81,11,482.9855,482.9856,484.4851,space,1.4564,,0,26,26,26,1,110,0,,,,,,,,
,,615471d4201b7147e36709cf,65af551dfa16a017ecb780b6,2024-01-23_07h57.44.758,bars,2023.2.3,Win32,60.60606061,657b66ea316d21385b68909f,,,,,,,,,,,484.486,485.485,,,485.9852,486.2353,,30,30,,,,,,,,,,,,,,,,bars/036.png,bars/mask002.png,,,,,,,,,,,,1,2,,,,,,,6,0,6,1,,,,,,,,,,,485.485,485.9851,486.2355,488.2852,space,2.042,,488.2853,65,10,489.2851,489.2852,491.1352,space,1.8305,,0,27,27,27,1,145,20,,,,,,,,
,,615471d4201b7147e36709cf,65af551dfa16a017ecb780b6,2024-01-23_07h57.44.758,bars,2023.2.3,Win32,60.60606061,657b66ea316d21385b68909f,,,,,,,,,,,491.1356,492.1352,,,492.6354,492.8853,,20,20,,,,,,,,,,,,,,,,bars/012.png,bars/mask003.png,,,,,,,,,,,,3,2,,,,,,,4,2,4,3,,,,,,,,,,,492.1353,492.6354,492.8854,496.5018,space,3.6092,,496.5019,70,5,497.5019,497.502,498.6688,space,1.1371,,0,28,28,28,1,90,15,,,,,,,,
,,615471d4201b7147e36709cf,65af551dfa16a017ecb780b6,2024-01-23_07h57.44.758,bars,2023.2.3,Win32,60.60606061,657b66ea316d21385b68909f,,,,,,,,,,,498.6691,499.6689,,,500.1689,500.4184,,158,-22,,,,,,,,,,,,,,,,bars/040.png,bars/mask009.png,,,,,,,,,,,,1,1,,,,,,,2,0,2,0,,,,,,,,,,,499.6689,500.1688,500.4185,506.0521,space,5.618,,506.0522,18,27,507.0525,507.0526,509.0358,space,1.9295,,0,29,29,29,1,140,5,,,,,,,,
,,615471d4201b7147e36709cf,65af551dfa16a017ecb780b6,2024-01-23_07h57.44.758,bars,2023.2.3,Win32,60.60606061,657b66ea316d21385b68909f,,,,,,,,,,,509.0364,510.0357,,,510.5357,510.7858,,52,52,,,,,,,,,,,,,,,,bars/047.png,bars/mask007.png,,,,,,,,,,,,0,2,,,,,,,4,0,4,0,,,,,,,,,,,510.0358,510.5357,510.7858,513.0193,space,2.2185,,513.0193,37,18,514.0189,514.019,516.4195,space,2.3622,,0,30,30,30,1,15,70,,,,,,,,
,,615471d4201b7147e36709cf,65af551dfa16a017ecb780b6,2024-01-23_07h57.44.758,bars,2023.2.3,Win32,60.60606061,657b66ea316d21385b68909f,,,,,,,,,,,516.4206,517.4194,,,517.9196,518.1693,,44,44,,,,,,,,,,,,,,,,bars/035.png,bars/mask005.png,,,,,,,,,,,,0,2,,,,,,,2,0,0,0,,,,,,,,,,,517.4194,517.9196,518.1695,519.1197,space,0.9339,,519.1198,49,16,520.1195,520.1196,521.732,space,1.6001,,0,31,31,31,1,175,60,,,,,,,,
,,615471d4201b7147e36709cf,65af551dfa16a017ecb780b6,2024-01-23_07h57.44.758,bars,2023.2.3,Win32,60.60606061,657b66ea316d21385b68909f,,,,,,,,,,,521.7324,522.7391,,,523.2367,523.4869,,112,112,,,,,,,,,,,,,,,,bars/026.png,bars/mask009.png,,,,,,,,,,,,0,2,,,,,,,0,0,0,0,,,,,,,,,,,522.7391,523.2366,523.4869,526.7528,space,3.2501,,526.7528,77,27,527.7532,527.7532,529.1698,space,1.3675,,0,32,32,32,1,35,85,,,,,,,,
,,615471d4201b7147e36709cf,65af551dfa16a017ecb780b6,2024-01-23_07h57.44.758,bars,2023.2.3,Win32,60.60606061,657b66ea316d21385b68909f,,,,,,,,,,,529.1707,530.1696,,,530.6698,530.9198,,135,135,,,,,,,,,,,,,,,,bars/000.png,bars/mask004.png,,,,,,,,,,,,2,2,,,,,,,0,2,0,3,,,,,,,,,,,530.1696,530.6697,530.9198,535.4534,space,4.5233,,535.4535,85,10,536.4533,536.4533,537.4696,space,0.9661,,0,33,33,33,1,40,145,,,,,,,,
,,615471d4201b7147e36709cf,65af551dfa16a017ecb780b6,2024-01-23_07h57.44.758,bars,2023.2.3,Win32,60.60606061,657b66ea316d21385b68909f,,,,,,,,,,,537.4703,538.4698,,,538.9699,539.2198,,43,43,,,,,,,,,,,,,,,,bars/010.png,bars/mask003.png,,,,,,,,,,,,2,2,,,,,,,2,4,0,4,,,,,,,,,,,538.4699,538.9698,539.2198,541.3368,space,2.1047,,541.3369,58,12,542.3366,542.3367,547.9089,space,5.5451,,0,34,34,34,1,165,55,,,,,,,,
,,615471d4201b7147e36709cf,65af551dfa16a017ecb780b6,2024-01-23_07h57.44.758,bars,2023.2.3,Win32,60.60606061,657b66ea316d21385b68909f,,,,,,,,,,,547.93,548.9206,,,549.4086,549.6586,,23,203,,,,,,,,,,,,,,,,bars/012.png,bars/mask003.png,,,,,,,,,,,,4,2,,,,,,,4,6,5,5,,,,,,,,,,,548.9207,549.4086,549.6587,553.143,space,3.4678,,553.143,67,8,554.1374,554.1376,556.0701,space,1.8859,,0,35,35,35,1,90,15,,,,,,,,
,,615471d4201b7147e36709cf,65af551dfa16a017ecb780b6,2024-01-23_07h57.44.758,bars,2023.2.3,Win32,60.60606061,657b66ea316d21385b68909f,,,,,,,,,,,556.0707,557.0703,,,557.5705,557.8204,,24,24,,,,,,,,,,,,,,,,bars/032.png,bars/mask003.png,,,,,,,,,,,,3,2,,,,,,,6,4,6,3,,,,,,,,,,,557.0704,557.5704,557.8204,561.3204,space,3.4905,,561.3205,79,4,562.3206,562.3206,563.4875,space,1.1446,,0,36,36,36,1,125,20,,,,,,,,
,,615471d4201b7147e36709cf,65af551dfa16a017ecb780b6,2024-01-23_07h57.44.758,bars,2023.2.3,Win32,60.60606061,657b66ea316d21385b68909f,,,,,,,,,,,563.4885,564.4873,,,564.9874,565.2374,,118,118,,,,,,,,,,,,,,,,bars/023.png,bars/mask005.png,,,,,,,,,,,,5,2,,,,,,,4,6,4,6,,,,,,,,,,,564.4875,564.9874,565.2374,567.7874,space,2.5423,,567.7875,82,3,568.7877,568.7877,570.0221,space,1.1969,,0,37,37,37,1,20,115,,,,,,,,
,,615471d4201b7147e36709cf,65af551dfa16a017ecb780b6,2024-01-23_07h57.44.758,bars,2023.2.3,Win32,60.60606061,657b66ea316d21385b68909f,,,,,,,,,,,570.0231,571.0209,,,571.5211,571.7709,,44,44,,,,,,,,,,,,,,,,bars/025.png,bars/mask002.png,,,,,,,,,,,,7,2,,,,,,,2,8,2,8,,,,,,,,,,,571.0209,571.5209,571.7711,575.3381,space,3.5604,,575.3382,61,4,576.3378,576.3378,577.6212,space,1.2355,,0,38,38,38,1,105,40,,,,,,,,
,,615471d4201b7147e36709cf,65af551dfa16a017ecb780b6,2024-01-23_07h57.44.758,bars,2023.2.3,Win32,60.60606061,657b66ea316d21385b68909f,,,,,,,,,,,577.622,578.6211,,,579.1214,579.3724,,120,120,,,,,,,,,,,,,,,,bars/049.png,bars/mask009.png,,,,,,,,,,,,8,2,,,,,,,4,10,4,10,,,,,,,,,,,578.6212,579.1212,579.3724,581.7546,space,2.3659,,581.7546,40,5,582.7543,582.7544,584.0381,space,1.2571,,0,39,39,39,1,160,115,,,,,,,,
,,615471d4201b7147e36709cf,65af551dfa16a017ecb780b6,2024-01-23_07h57.44.758,bars,2023.2.3,Win32,60.60606061,657b66ea316d21385b68909f,,,,,,,,,,,584.0394,585.0378,,,585.5379,585.788,,65,65,,,,,,,,,,,,,,,,bars/047.png,bars/mask007.png,,,,,,,,,,,,7,2,,,,,,,2,8,3,8,,,,,,,,,,,585.0378,585.5379,585.7881,588.2214,space,2.4165,,588.2214,50,5,589.2213,589.2214,590.0551,space,0.7877,,0,40,40,40,1,15,70,,,,,,,,
,,615471d4201b7147e36709cf,65af551dfa16a017ecb780b6,2024-01-23_07h57.44.758,bars,2023.2.3,Win32,60.60606061,657b66ea316d21385b68909f,,,,,,,,,,,590.0564,591.0548,,,591.5547,591.8047,,15,195,,,,,,,,,,,,,,,,bars/048.png,bars/mask005.png,,,,,,,,,,,,2,2,,,,,,,4,6,4,6,,,,,,,,,,,591.0548,591.5546,591.8047,597.6552,space,5.8436,,597.6554,35,20,598.6549,598.655,599.7715,space,1.0891,,0,41,41,41,1,50,175,,,,,,,,
,,615471d4201b7147e36709cf,65af551dfa16a017ecb780b6,2024-01-23_07h57.44.758,bars,2023.2.3,Win32,60.60606061,657b66ea316d21385b68909f,,,,,,,,,,,599.772,600.7716,,,601.2718,601.5218,,139,139,,,,,,,,,,,,,,,,bars/003.png,bars/mask008.png,,,,,,,,,,,,10,2,,,,,,,6,8,4,10,,,,,,,,,,,600.7716,601.2718,601.522,603.6385,space,2.0998,,603.6386,66,1,604.6385,604.6385,605.9052,space,1.2231,,0,42,42,42,1,25,140,,,,,,,,
,,615471d4201b7147e36709cf,65af551dfa16a017ecb780b6,2024-01-23_07h57.44.758,bars,2023.2.3,Win32,60.60606061,657b66ea316d21385b68909f,,,,,,,,,,,605.9055,606.9051,,,607.4055,607.6553,,119,119,,,,,,,,,,,,,,,,bars/037.png,bars/mask004.png,,,,,,,,,,,,5,2,,,,,,,8,10,8,10,,,,,,,,,,,606.9051,607.4055,607.6555,612.4883,space,4.8221,,612.4883,31,14,613.4888,613.4888,614.6223,space,1.0896,,0,43,43,43,1,150,105,,,,,,,,
,,615471d4201b7147e36709cf,65af551dfa16a017ecb780b6,2024-01-23_07h57.44.758,bars,2023.2.3,Win32,60.60606061,657b66ea316d21385b68909f,,,,,,,,,,,614.623,615.6221,,,616.1218,616.3722,,57,57,,,,,,,,,,,,,,,,bars/038.png,bars/mask000.png,,,,,,,,,,,,6,2,,,,,,,6,10,5,10,,,,,,,,,,,615.6221,616.1216,616.3722,618.8223,space,2.4332,,618.8224,72,13,619.8222,619.8222,620.8223,space,0.9608,,0,44,44,44,1,165,70,,,,,,,,
,,615471d4201b7147e36709cf,65af551dfa16a017ecb780b6,2024-01-23_07h57.44.758,bars,2023.2.3,Win32,60.60606061,657b66ea316d21385b68909f,,,,,,,,,,,620.8232,621.8224,,,622.3224,622.5724,,128,128,,,,,,,,,,,,,,,,bars/041.png,bars/mask008.png,,,,,,,,,,,,0,2,,,,,,,4,10,4,10,,,,,,,,,,,621.8225,622.3223,622.5724,625.3057,space,2.721,,625.3058,72,43,626.3053,626.3053,627.5453,space,1.2111,,0,45,45,45,1,20,85,,,,,,,,
,,615471d4201b7147e36709cf,65af551dfa16a017ecb780b6,2024-01-23_07h57.44.758,bars,2023.2.3,Win32,60.60606061,657b66ea316d21385b68909f,,,,,,,,,,,627.5462,628.5441,,,629.0442,629.2897,,57,57,,,,,,,,,,,,,,,,bars/017.png,bars/mask001.png,,,,,,,,,,,,5,2,,,,,,,6,10,6,9,,,,,,,,,,,628.5442,629.044,629.2899,632.2109,space,2.9008,,632.2109,88,12,633.2058,633.2059,633.9399,space,0.6837,,0,46,46,46,1,145,45,,,,,,,,
,,615471d4201b7147e36709cf,65af551dfa16a017ecb780b6,2024-01-23_07h57.44.758,bars,2023.2.3,Win32,60.60606061,657b66ea316d21385b68909f,,,,,,,,,,,633.9409,634.9394,,,635.4396,635.6896,,138,138,,,,,,,,,,,,,,,,bars/004.png,bars/mask006.png,,,,,,,,,,,,5,2,,,,,,,4,8,2,8,,,,,,,,,,,634.9395,635.4395,635.6896,637.456,space,1.7482,,637.4561,67,13,638.456,638.4561,639.3562,space,0.8709,,0,47,47,47,1,25,125,,,,,,,,
,,615471d4201b7147e36709cf,65af551dfa16a017ecb780b6,2024-01-23_07h57.44.758,bars,2023.2.3,Win32,60.60606061,657b66ea316d21385b68909f,,,,,,,,,,,639.357,640.356,,,640.8562,641.1061,,65,65,,,,,,,,,,,,,,,,bars/029.png,bars/mask002.png,,,,,,,,,,,,3,2,,,,,,,6,10,6,10,,,,,,,,,,,640.3561,640.8561,641.1062,644.5897,space,3.4717,,644.5898,25,20,645.5896,645.5897,646.3062,space,0.6755,,0,48,48,48,1,90,45,,,,,,,,
,,615471d4201b7147e36709cf,65af551dfa16a017ecb780b6,2024-01-23_07h57.44.758,bars,2023.2.3,Win32,60.60606061,657b66ea316d21385b68909f,,,,,,,,,,,646.3067,647.3067,,,647.806,648.0562,,50,50,,,,,,,,,,,,,,,,bars/034.png,bars/mask001.png,,,,,,,,,,,,5,2,,,,,,,4,10,6,10,,,,,,,,,,,647.3068,647.806,648.0562,649.8231,space,1.7543,,649.8231,75,15,650.8228,650.8229,651.7734,space,0.9314,,0,49,49,49,1,125,65,,,,,,,,
,,615471d4201b7147e36709cf,65af551dfa16a017ecb780b6,2024-01-23_07h57.44.758,bars,2023.2.3,Win32,60.60606061,657b66ea316d21385b68909f,,,,,,,,,,,,,,,,,,,,,,,,,,,,,,,,,,,,,,,,,,,,,,,,,,,,,,,,,,,,,,,,,,,,,,,,,,,,,,,,,,,,,,,,,,,,,651.7748,711.7755,0,0,0,1,1,sequence_tables/blk008.csv
,,615471d4201b7147e36709cf,65af551dfa16a017ecb780b6,2024-01-23_07h57.44.758,bars,2023.2.3,Win32,60.60606061,657b66ea316d21385b68909f,,,,,,,,,,,745.1143,746.0925,,,746.5922,746.8425,,108,108,,,,,,,,,,,,,,,,bars/001.png,bars/mask001.png,,,,,,,,,,,,0,1,,,,,,,1,9,1,9,,,,,,711.7915,745.0758,space,33.2705,,746.0925,746.5922,746.8425,749.5765,space,2.7278,,749.5767,22,23,750.5759,750.5759,750.6033,,,,0,0,0,0,1,130,85,,,,,,,,
,,615471d4201b7147e36709cf,65af551dfa16a017ecb780b6,2024-01-23_07h57.44.758,bars,2023.2.3,Win32,60.60606061,657b66ea316d21385b68909f,,,,,,,,,,,750.6036,751.5957,,,752.0928,752.343,,124,124,,,,,,,,,,,,,,,,bars/004.png,bars/mask006.png,,,,,,,,,,,,10,2,,,,,,,0,10,1,10,,,,,,,,,,,751.5958,752.0928,752.3432,754.8332,space,2.4685,,754.8333,81,1,755.8266,755.8268,755.8641,,,,0,1,1,1,1,25,125,,,,,,,,
,,615471d4201b7147e36709cf,65af551dfa16a017ecb780b6,2024-01-23_07h57.44.758,bars,2023.2.3,Win32,60.60606061,657b66ea316d21385b68909f,,,,,,,,,,,755.8647,756.8596,,,757.3594,757.6097,,63,63,,,,,,,,,,,,,,,,bars/030.png,bars/mask002.png,,,,,,,,,,,,7,2,,,,,,,0,8,0,8,,,,,,,,,,,756.8597,757.3594,757.6098,762.9096,space,5.2838,,762.9097,77,2,763.9097,763.9098,763.9444,,,,0,2,2,2,1,140,65,,,,,,,,
,,615471d4201b7147e36709cf,65af551dfa16a017ecb780b6,2024-01-23_07h57.44.758,bars,2023.2.3,Win32,60.60606061,657b66ea316d21385b68909f,,,,,,,,,,,763.9449,764.943,,,765.4432,765.693,,117,117,,,,,,,,,,,,,,,,bars/011.png,bars/mask006.png,,,,,,,,,,,,0,2,,,,,,,2,10,1,9,,,,,,,,,,,764.9431,765.4432,765.693,767.2098,space,1.5017,,767.2098,43,32,768.2098,768.2098,768.2117,,,,0,3,3,3,1,160,85,,,,,,,,
,,615471d4201b7147e36709cf,65af551dfa16a017ecb780b6,2024-01-23_07h57.44.758,bars,2023.2.3,Win32,60.60606061,657b66ea316d21385b68909f,,,,,,,,,,,768.2126,769.2098,,,769.7099,769.96,,150,150,,,,,,,,,,,,,,,,bars/044.png,bars/mask007.png,,,,,,,,,,,,8,2,,,,,,,0,10,0,10,,,,,,,,,,,769.2099,769.7098,769.9601,773.3099,space,3.333,,773.31,75,5,774.3096,774.3097,774.3235,,,,0,4,4,4,1,75,155,,,,,,,,
,,615471d4201b7147e36709cf,65af551dfa16a017ecb780b6,2024-01-23_07h57.44.758,bars,2023.2.3,Win32,60.60606061,657b66ea316d21385b68909f,,,,,,,,,,,774.3237,775.3268,,,775.8268,776.0774,,56,56,,,,,,,,,,,,,,,,bars/041.png,bars/mask007.png,,,,,,,,,,,,0,2,,,,,,,0,10,1,9,,,,,,,,,,,775.327,775.8266,776.0776,778.0445,space,1.9609,,778.0446,36,29,779.0434,779.0434,779.0452,,,,0,5,5,5,1,20,85,,,,,,,,
,,615471d4201b7147e36709cf,65af551dfa16a017ecb780b6,2024-01-23_07h57.44.758,bars,2023.2.3,Win32,60.60606061,657b66ea316d21385b68909f,,,,,,,,,,,779.0456,780.0434,,,780.5436,780.7934,,29,29,,,,,,,,,,,,,,,,bars/015.png,bars/mask009.png,,,,,,,,,,,,0,2,,,,,,,2,10,2,9,,,,,,,,,,,780.0435,780.5435,780.7936,782.7934,space,1.9855,,782.7935,81,49,783.7936,783.7938,783.8236,,,,0,6,6,6,1,110,160,,,,,,,,
,,615471d4201b7147e36709cf,65af551dfa16a017ecb780b6,2024-01-23_07h57.44.758,bars,2023.2.3,Win32,60.60606061,657b66ea316d21385b68909f,,,,,,,,,,,783.8241,784.8269,,,785.3269,785.5769,,141,141,,,,,,,,,,,,,,,,bars/015.png,bars/mask004.png,,,,,,,,,,,,3,2,,,,,,,0,8,0,8,,,,,,,,,,,784.8269,785.3269,785.5769,788.1603,space,2.5701,,788.1604,31,19,789.1603,789.1604,789.1896,,,,0,7,7,7,1,110,160,,,,,,,,
,,615471d4201b7147e36709cf,65af551dfa16a017ecb780b6,2024-01-23_07h57.44.758,bars,2023.2.3,Win32,60.60606061,657b66ea316d21385b68909f,,,,,,,,,,,789.19,790.1937,,,790.6941,790.9437,,25,25,,,,,,,,,,,,,,,,bars/031.png,bars/mask006.png,,,,,,,,,,,,6,2,,,,,,,0,10,0,9,,,,,,,,,,,790.1937,790.6939,790.9437,792.6271,space,1.6647,,792.6272,85,10,793.6271,793.6272,793.6485,,,,0,8,8,8,1,120,35,,,,,,,,
,,615471d4201b7147e36709cf,65af551dfa16a017ecb780b6,2024-01-23_07h57.44.758,bars,2023.2.3,Win32,60.60606061,657b66ea316d21385b68909f,,,,,,,,,,,793.6489,794.6436,,,795.1439,795.3939,,125,125,,,,,,,,,,,,,,,,bars/037.png,bars/mask008.png,,,,,,,,,,,,3,2,,,,,,,2,10,3,10,,,,,,,,,,,794.6436,795.1438,795.394,799.5104,space,4.1017,,799.5104,25,20,800.5156,800.5157,800.549,,,,0,9,9,9,1,150,105,,,,,,,,
,,615471d4201b7147e36709cf,65af551dfa16a017ecb780b6,2024-01-23_07h57.44.758,bars,2023.2.3,Win32,60.60606061,657b66ea316d21385b68909f,,,,,,,,,,,800.5493,801.544,,,802.0444,802.2941,,75,75,,,,,,,,,,,,,,,,bars/011.png,bars/mask009.png,,,,,,,,,,,,7,2,,,,,,,4,10,4,10,,,,,,,,,,,801.544,802.0443,802.2942,804.3941,space,2.0834,,804.3942,85,10,805.3942,805.3943,805.4245,,,,0,10,10,10,1,160,85,,,,,,,,
,,615471d4201b7147e36709cf,65af551dfa16a017ecb780b6,2024-01-23_07h57.44.758,bars,2023.2.3,Win32,60.60606061,657b66ea316d21385b68909f,,,,,,,,,,,805.4249,806.4275,,,806.9276,807.1776,,63,63,,,,,,,,,,,,,,,,bars/018.png,bars/mask001.png,,,,,,,,,,,,1,2,,,,,,,2,10,3,10,,,,,,,,,,,806.4275,806.9276,807.1776,809.5107,space,2.3237,,809.5107,87,27,810.5109,810.511,810.5252,,,,0,11,11,11,1,150,90,,,,,,,,
,,615471d4201b7147e36709cf,65af551dfa16a017ecb780b6,2024-01-23_07h57.44.758,bars,2023.2.3,Win32,60.60606061,657b66ea316d21385b68909f,,,,,,,,,,,810.5253,811.5276,,,812.0279,812.2778,,28,28,,,,,,,,,,,,,,,,bars/047.png,bars/mask004.png,,,,,,,,,,,,2,1,,,,,,,4,8,4,8,,,,,,,,,,,811.5277,812.0278,812.2778,814.4445,space,2.1513,,814.4445,13,42,815.4444,815.4446,815.4768,,,,0,12,12,12,1,15,70,,,,,,,,
,,615471d4201b7147e36709cf,65af551dfa16a017ecb780b6,2024-01-23_07h57.44.758,bars,2023.2.3,Win32,60.60606061,657b66ea316d21385b68909f,,,,,,,,,,,815.4774,816.4779,,,816.9779,817.2276,,153,153,,,,,,,,,,,,,,,,bars/004.png,bars/mask008.png,,,,,,,,,,,,1,2,,,,,,,2,10,2,9,,,,,,,,,,,816.478,816.9778,817.2276,819.4614,space,2.2192,,819.4616,52,28,820.4613,820.4614,820.4925,,,,0,13,13,13,1,25,125,,,,,,,,
,,615471d4201b7147e36709cf,65af551dfa16a017ecb780b6,2024-01-23_07h57.44.758,bars,2023.2.3,Win32,60.60606061,657b66ea316d21385b68909f,,,,,,,,,,,820.4929,821.4945,,,821.9946,822.2446,,121,121,,,,,,,,,,,,,,,,bars/009.png,bars/mask007.png,,,,,,,,,,,,5,2,,,,,,,4,10,5,10,,,,,,,,,,,821.4946,821.9946,822.2447,827.1115,space,4.8515,,827.1116,74,16,828.1115,828.1115,828.1456,,,,0,14,14,14,1,15,105,,,,,,,,
,,615471d4201b7147e36709cf,65af551dfa16a017ecb780b6,2024-01-23_07h57.44.758,bars,2023.2.3,Win32,60.60606061,657b66ea316d21385b68909f,,,,,,,,,,,828.146,829.1449,,,829.645,829.8949,,56,56,,,,,,,,,,,,,,,,bars/021.png,bars/mask002.png,,,,,,,,,,,,5,2,,,,,,,6,8,6,9,,,,,,,,,,,829.145,829.6449,829.895,833.095,space,3.1874,,833.095,81,14,834.095,834.095,834.119,,,,0,15,15,15,1,155,70,,,,,,,,
,,615471d4201b7147e36709cf,65af551dfa16a017ecb780b6,2024-01-23_07h57.44.758,bars,2023.2.3,Win32,60.60606061,657b66ea316d21385b68909f,,,,,,,,,,,834.1193,835.1118,,,835.6156,835.8615,,122,122,,,,,,,,,,,,,,,,bars/028.png,bars/mask000.png,,,,,,,,,,,,7,2,,,,,,,4,6,3,7,,,,,,,,,,,835.112,835.6156,835.8615,838.05,space,2.1679,,838.0501,77,2,839.0454,839.0455,839.0476,,,,0,16,16,16,1,45,120,,,,,,,,
,,615471d4201b7147e36709cf,65af551dfa16a017ecb780b6,2024-01-23_07h57.44.758,bars,2023.2.3,Win32,60.60606061,657b66ea316d21385b68909f,,,,,,,,,,,839.0481,840.0478,,,840.5452,840.7993,,17,17,,,,,,,,,,,,,,,,bars/040.png,bars/mask003.png,,,,,,,,,,,,4,2,,,,,,,6,4,7,6,,,,,,,,,,,840.0479,840.5451,840.7993,844.4498,space,3.6338,,844.4499,57,12,845.4456,845.4456,845.4758,,,,0,17,17,17,1,140,5,,,,,,,,
,,615471d4201b7147e36709cf,65af551dfa16a017ecb780b6,2024-01-23_07h57.44.758,bars,2023.2.3,Win32,60.60606061,657b66ea316d21385b68909f,,,,,,,,,,,845.4768,846.4787,,,846.9788,847.2287,,100,100,,,,,,,,,,,,,,,,bars/018.png,bars/mask005.png,,,,,,,,,,,,1,2,,,,,,,8,2,8,2,,,,,,,,,,,846.4788,846.9788,847.2288,851.7288,space,4.4834,,851.7289,50,10,852.7287,852.7288,852.743,,,,0,18,18,18,1,150,90,,,,,,,,
,,615471d4201b7147e36709cf,65af551dfa16a017ecb780b6,2024-01-23_07h57.44.758,bars,2023.2.3,Win32,60.60606061,657b66ea316d21385b68909f,,,,,,,,,,,852.7434,853.7455,,,854.2458,854.4957,,174,174,,,,,,,,,,,,,,,,bars/048.png,bars/mask004.png,,,,,,,,,,,,3,2,,,,,,,10,4,10,3,,,,,,,,,,,853.7455,854.2457,854.4958,859.5291,space,5.0254,,859.5292,56,1,860.5291,860.5291,860.5588,,,,0,19,19,19,1,50,175,,,,,,,,
,,615471d4201b7147e36709cf,65af551dfa16a017ecb780b6,2024-01-23_07h57.44.758,bars,2023.2.3,Win32,60.60606061,657b66ea316d21385b68909f,,,,,,,,,,,860.5592,861.5626,,,862.0626,862.3126,,165,-15,,,,,,,,,,,,,,,,bars/015.png,bars/mask008.png,,,,,,,,,,,,5,2,,,,,,,10,6,10,6,,,,,,,,,,,861.5628,862.0625,862.3128,866.6959,space,4.3662,,866.6959,55,5,867.696,867.6961,867.7249,,,,0,20,20,20,1,110,160,,,,,,,,
,,615471d4201b7147e36709cf,65af551dfa16a017ecb780b6,2024-01-23_07h57.44.758,bars,2023.2.3,Win32,60.60606061,657b66ea316d21385b68909f,,,,,,,,,,,867.7253,868.729,,,869.2293,869.4793,,61,61,,,,,,,,,,,,,,,,bars/001.png,bars/mask007.png,,,,,,,,,,,,1,2,,,,,,,10,4,9,4,,,,,,,,,,,868.729,869.2292,869.4794,871.0956,space,1.604,,871.0956,69,24,872.0959,872.0959,872.1189,,,,0,21,21,21,1,130,85,,,,,,,,
,,615471d4201b7147e36709cf,65af551dfa16a017ecb780b6,2024-01-23_07h57.44.758,bars,2023.2.3,Win32,60.60606061,657b66ea316d21385b68909f,,,,,,,,,,,872.1193,873.1127,,,873.6129,873.8626,,117,117,,,,,,,,,,,,,,,,bars/023.png,bars/mask008.png,,,,,,,,,,,,7,2,,,,,,,10,6,10,7,,,,,,,,,,,873.1129,873.6128,873.8627,877.5295,space,3.6505,,877.5295,83,2,878.5295,878.5296,878.5434,,,,0,22,22,22,1,20,115,,,,,,,,
,,615471d4201b7147e36709cf,65af551dfa16a017ecb780b6,2024-01-23_07h57.44.758,bars,2023.2.3,Win32,60.60606061,657b66ea316d21385b68909f,,,,,,,,,,,878.5436,879.5462,,,880.0464,880.2962,,21,201,,,,,,,,,,,,,,,,bars/048.png,bars/mask006.png,,,,,,,,,,,,1,2,,,,,,,8,4,7,4,,,,,,,,,,,879.5462,880.0462,880.2963,882.1963,space,1.884,,882.1964,29,26,883.1964,883.1965,883.1987,,,,0,23,23,23,1,50,175,,,,,,,,
,,615471d4201b7147e36709cf,65af551dfa16a017ecb780b6,2024-01-23_07h57.44.758,bars,2023.2.3,Win32,60.60606061,657b66ea316d21385b68909f,,,,,,,,,,,883.1994,884.1964,,,884.6965,884.9465,,46,226,,,,,,,,,,,,,,,,bars/010.png,bars/mask000.png,,,,,,,,,,,,4,2,,,,,,,6,6,6,6,,,,,,,,,,,884.1965,884.6965,884.9465,888.2466,space,3.2848,,888.2466,61,9,889.2467,889.2467,889.2811,,,,0,24,24,24,1,165,55,,,,,,,,
,,615471d4201b7147e36709cf,65af551dfa16a017ecb780b6,2024-01-23_07h57.44.758,bars,2023.2.3,Win32,60.60606061,657b66ea316d21385b68909f,,,,,,,,,,,889.2816,890.2802,,,890.7802,891.0302,,114,114,,,,,,,,,,,,,,,,bars/006.png,bars/mask007.png,,,,,,,,,,,,4,2,,,,,,,4,8,4,8,,,,,,,,,,,890.2802,890.7801,891.0302,893.013,space,1.968,,893.0131,79,14,894.0134,894.0134,894.0443,,,,0,25,25,25,1,35,100,,,,,,,,
,,615471d4201b7147e36709cf,65af551dfa16a017ecb780b6,2024-01-23_07h57.44.758,bars,2023.2.3,Win32,60.60606061,657b66ea316d21385b68909f,,,,,,,,,,,894.0448,895.0466,,,895.5468,895.7967,,60,60,,,,,,,,,,,,,,,,bars/042.png,bars/mask002.png,,,,,,,,,,,,3,2,,,,,,,6,6,4,6,,,,,,,,,,,895.0468,895.5468,895.7967,899.2798,space,3.475,,899.2799,85,15,900.2801,900.2802,900.31,,,,0,26,26,26,1,145,75,,,,,,,,
,,615471d4201b7147e36709cf,65af551dfa16a017ecb780b6,2024-01-23_07h57.44.758,bars,2023.2.3,Win32,60.60606061,657b66ea316d21385b68909f,,,,,,,,,,,900.3104,901.3136,,,901.8137,902.0635,,137,137,,,,,,,,,,,,,,,,bars/028.png,bars/mask002.png,,,,,,,,,,,,3,2,,,,,,,4,8,3,8,,,,,,,,,,,901.3137,901.8136,902.0635,905.8801,space,3.8095,,905.8802,88,17,906.8802,906.8803,906.894,,,,0,27,27,27,1,45,120,,,,,,,,
,,615471d4201b7147e36709cf,65af551dfa16a017ecb780b6,2024-01-23_07h57.44.758,bars,2023.2.3,Win32,60.60606061,657b66ea316d21385b68909f,,,,,,,,,,,906.8943,907.897,,,908.3971,908.6468,,17,197,,,,,,,,,,,,,,,,bars/015.png,bars/mask008.png,,,,,,,,,,,,0,2,,,,,,,6,6,7,5,,,,,,,,,,,907.897,908.397,908.6469,910.8473,space,2.1864,,910.8473,87,37,911.8474,911.8474,911.8803,,,,0,28,28,28,1,110,160,,,,,,,,
,,615471d4201b7147e36709cf,65af551dfa16a017ecb780b6,2024-01-23_07h57.44.758,bars,2023.2.3,Win32,60.60606061,657b66ea316d21385b68909f,,,,,,,,,,,911.8807,912.8806,,,913.381,913.6307,,168,-12,,,,,,,,,,,,,,,,bars/024.png,bars/mask001.png,,,,,,,,,,,,8,2,,,,,,,4,8,5,9,,,,,,,,,,,912.8806,913.3809,913.6307,917.3973,space,3.7537,,917.3974,48,2,918.3974,918.3975,918.4266,,,,0,29,29,29,1,120,170,,,,,,,,
,,615471d4201b7147e36709cf,65af551dfa16a017ecb780b6,2024-01-23_07h57.44.758,bars,2023.2.3,Win32,60.60606061,657b66ea316d21385b68909f,,,,,,,,,,,918.427,919.4304,,,919.9307,920.1807,,55,55,,,,,,,,,,,,,,,,bars/025.png,bars/mask007.png,,,,,,,,,,,,3,2,,,,,,,6,6,5,5,,,,,,,,,,,919.4304,919.9307,920.1808,921.7142,space,1.5169,,921.7143,50,15,922.7142,922.7142,922.716,,,,0,30,30,30,1,105,40,,,,,,,,
,,615471d4201b7147e36709cf,65af551dfa16a017ecb780b6,2024-01-23_07h57.44.758,bars,2023.2.3,Win32,60.60606061,657b66ea316d21385b68909f,,,,,,,,,,,922.7166,923.7141,,,924.2143,924.464,,61,61,,,,,,,,,,,,,,,,bars/027.png,bars/mask003.png,,,,,,,,,,,,6,2,,,,,,,4,8,3,10,,,,,,,,,,,923.7141,924.2143,924.4641,927.3142,space,2.8437,,927.3143,49,11,928.3144,928.3145,928.3439,,,,0,31,31,31,1,110,50,,,,,,,,
,,615471d4201b7147e36709cf,65af551dfa16a017ecb780b6,2024-01-23_07h57.44.758,bars,2023.2.3,Win32,60.60606061,657b66ea316d21385b68909f,,,,,,,,,,,928.3442,929.3478,,,929.8476,930.0973,,121,-59,,,,,,,,,,,,,,,,bars/028.png,bars/mask008.png,,,,,,,,,,,,7,2,,,,,,,2,6,4,7,,,,,,,,,,,929.3479,929.8475,930.0974,934.3812,space,4.2708,,934.3812,76,1,935.381,935.3811,935.3951,,,,0,32,32,32,1,45,120,,,,,,,,
,,615471d4201b7147e36709cf,65af551dfa16a017ecb780b6,2024-01-23_07h57.44.758,bars,2023.2.3,Win32,60.60606061,657b66ea316d21385b68909f,,,,,,,,,,,935.3953,936.3979,,,936.898,937.1476,,79,79,,,,,,,,,,,,,,,,bars/046.png,bars/mask002.png,,,,,,,,,,,,6,2,,,,,,,0,8,0,8,,,,,,,,,,,936.3979,936.8979,937.1476,939.6148,space,2.4606,,939.6148,76,6,940.6146,940.6147,940.6283,,,,0,33,33,33,1,155,85,,,,,,,,
,,615471d4201b7147e36709cf,65af551dfa16a017ecb780b6,2024-01-23_07h57.44.758,bars,2023.2.3,Win32,60.60606061,657b66ea316d21385b68909f,,,,,,,,,,,940.6285,941.6314,,,942.1317,942.3816,,61,61,,,,,,,,,,,,,,,,bars/014.png,bars/mask009.png,,,,,,,,,,,,1,1,,,,,,,2,6,2,7,,,,,,,,,,,941.6314,942.1315,942.3816,944.4148,space,2.0244,,944.4149,19,61,945.4149,945.415,945.4362,,,,0,34,34,34,1,80,0,,,,,,,,
,,615471d4201b7147e36709cf,65af551dfa16a017ecb780b6,2024-01-23_07h57.44.758,bars,2023.2.3,Win32,60.60606061,657b66ea316d21385b68909f,,,,,,,,,,,945.4366,946.4312,,,946.9318,947.1817,,79,259,,,,,,,,,,,,,,,,bars/002.png,bars/mask004.png,,,,,,,,,,,,3,2,,,,,,,0,4,1,4,,,,,,,,,,,946.4313,946.9317,947.1817,952.2316,space,5.0345,,952.2317,51,6,953.2318,953.2318,953.2631,,,,0,35,35,35,1,130,85,,,,,,,,
,,615471d4201b7147e36709cf,65af551dfa16a017ecb780b6,2024-01-23_07h57.44.758,bars,2023.2.3,Win32,60.60606061,657b66ea316d21385b68909f,,,,,,,,,,,953.2636,954.2651,,,954.7652,955.0151,,69,69,,,,,,,,,,,,,,,,bars/046.png,bars/mask008.png,,,,,,,,,,,,2,2,,,,,,,0,6,0,4,,,,,,,,,,,954.2652,954.7651,955.0152,958.1813,space,3.1564,,958.1814,86,16,959.1819,959.1821,959.2183,,,,0,36,36,36,1,155,85,,,,,,,,
,,615471d4201b7147e36709cf,65af551dfa16a017ecb780b6,2024-01-23_07h57.44.758,bars,2023.2.3,Win32,60.60606061,657b66ea316d21385b68909f,,,,,,,,,,,959.2187,960.2155,,,960.7156,960.9654,,161,-19,,,,,,,,,,,,,,,,bars/044.png,bars/mask001.png,,,,,,,,,,,,4,2,,,,,,,2,4,2,5,,,,,,,,,,,960.2155,960.7155,960.9655,963.9317,space,2.9589,,963.9319,86,6,964.9319,964.932,964.9489,,,,0,37,37,37,1,75,155,,,,,,,,
,,615471d4201b7147e36709cf,65af551dfa16a017ecb780b6,2024-01-23_07h57.44.758,bars,2023.2.3,Win32,60.60606061,657b66ea316d21385b68909f,,,,,,,,,,,964.949,965.9488,,,966.4487,966.6985,,62,62,,,,,,,,,,,,,,,,bars/038.png,bars/mask007.png,,,,,,,,,,,,4,2,,,,,,,4,6,5,6,,,,,,,,,,,965.949,966.4487,966.6986,968.6156,space,1.9027,,968.6158,77,8,969.6156,969.6156,969.6398,,,,0,38,38,38,1,165,70,,,,,,,,
,,615471d4201b7147e36709cf,65af551dfa16a017ecb780b6,2024-01-23_07h57.44.758,bars,2023.2.3,Win32,60.60606061,657b66ea316d21385b68909f,,,,,,,,,,,969.6401,970.6369,,,971.1372,971.3828,,118,118,,,,,,,,,,,,,,,,bars/006.png,bars/mask003.png,,,,,,,,,,,,3,2,,,,,,,2,8,1,8,,,,,,,,,,,970.6369,971.1371,971.383,973.6989,space,2.2864,,973.6989,83,18,974.7034,974.7035,974.7306,,,,0,39,39,39,1,35,100,,,,,,,,
,,615471d4201b7147e36709cf,65af551dfa16a017ecb780b6,2024-01-23_07h57.44.758,bars,2023.2.3,Win32,60.60606061,657b66ea316d21385b68909f,,,,,,,,,,,974.7309,975.7324,,,976.2323,976.4822,,147,-33,,,,,,,,,,,,,,,,bars/004.png,bars/mask003.png,,,,,,,,,,,,3,2,,,,,,,0,10,0,10,,,,,,,,,,,975.7324,976.2323,976.4822,978.7328,space,2.2399,,978.7328,58,22,979.7321,979.7321,979.7458,,,,0,40,40,40,1,25,125,,,,,,,,
,,615471d4201b7147e36709cf,65af551dfa16a017ecb780b6,2024-01-23_07h57.44.758,bars,2023.2.3,Win32,60.60606061,657b66ea316d21385b68909f,,,,,,,,,,,979.746,980.7493,,,981.2494,981.4993,,125,125,,,,,,,,,,,,,,,,bars/028.png,bars/mask009.png,,,,,,,,,,,,8,2,,,,,,,0,8,1,10,,,,,,,,,,,980.7494,981.2493,981.4994,982.8659,space,1.3523,,982.8659,80,5,983.8659,983.8659,983.8964,,,,0,41,41,41,1,45,120,,,,,,,,
,,615471d4201b7147e36709cf,65af551dfa16a017ecb780b6,2024-01-23_07h57.44.758,bars,2023.2.3,Win32,60.60606061,657b66ea316d21385b68909f,,,,,,,,,,,983.8967,984.8992,,,985.3995,985.6494,,46,46,,,,,,,,,,,,,,,,bars/012.png,bars/mask008.png,,,,,,,,,,,,0,2,,,,,,,0,10,0,10,,,,,,,,,,,984.8993,985.3994,985.6494,988.3159,space,2.6491,,988.316,44,31,989.3161,989.3162,989.342,,,,0,42,42,42,1,90,15,,,,,,,,
,,615471d4201b7147e36709cf,65af551dfa16a017ecb780b6,2024-01-23_07h57.44.758,bars,2023.2.3,Win32,60.60606061,657b66ea316d21385b68909f,,,,,,,,,,,989.3422,990.3351,,,990.8359,991.0832,,113,113,,,,,,,,,,,,,,,,bars/019.png,bars/mask002.png,,,,,,,,,,,,7,2,,,,,,,2,10,2,10,,,,,,,,,,,990.3352,990.8358,991.0833,995.3216,space,4.218,,995.3217,68,8,996.3212,996.3212,996.3554,,,,0,43,43,43,1,45,105,,,,,,,,
,,615471d4201b7147e36709cf,65af551dfa16a017ecb780b6,2024-01-23_07h57.44.758,bars,2023.2.3,Win32,60.60606061,657b66ea316d21385b68909f,,,,,,,,,,,996.3559,997.3544,,,997.8536,998.0994,,76,76,,,,,,,,,,,,,,,,bars/009.png,bars/mask008.png,,,,,,,,,,,,0,2,,,,,,,0,8,1,9,,,,,,,,,,,997.3546,997.8536,998.0995,1001.6494,space,3.5205,,1001.6495,61,29,1002.6503,1002.6505,1002.6845,,,,0,44,44,44,1,15,105,,,,,,,,
,,615471d4201b7147e36709cf,65af551dfa16a017ecb780b6,2024-01-23_07h57.44.758,bars,2023.2.3,Win32,60.60606061,657b66ea316d21385b68909f,,,,,,,,,,,1002.685,1003.6832,,,1004.1833,1004.4333,,39,219,,,,,,,,,,,,,,,,bars/045.png,bars/mask006.png,,,,,,,,,,,,0,2,,,,,,,0,10,0,10,,,,,,,,,,,1003.6832,1004.1833,1004.4333,1007.3335,space,2.8913,,1007.3337,61,29,1008.3331,1008.3331,1008.3511,,,,0,45,45,45,1,100,10,,,,,,,,
,,615471d4201b7147e36709cf,65af551dfa16a017ecb780b6,2024-01-23_07h57.44.758,bars,2023.2.3,Win32,60.60606061,657b66ea316d21385b68909f,,,,,,,,,,,1008.3514,1009.35,,,1009.8501,1010.1001,,32,32,,,,,,,,,,,,,,,,bars/025.png,bars/mask005.png,,,,,,,,,,,,7,2,,,,,,,0,10,0,10,,,,,,,,,,,1009.35,1009.85,1010.1002,1015.0835,space,4.9668,,1015.0835,73,8,1016.0835,1016.0835,1016.1141,,,,0,46,46,46,1,105,40,,,,,,,,
,,615471d4201b7147e36709cf,65af551dfa16a017ecb780b6,2024-01-23_07h57.44.758,bars,2023.2.3,Win32,60.60606061,657b66ea316d21385b68909f,,,,,,,,,,,1016.1145,1017.1169,,,1017.6172,1017.8671,,119,119,,,,,,,,,,,,,,,,bars/011.png,bars/mask004.png,,,,,,,,,,,,0,2,,,,,,,0,8,0,8,,,,,,,,,,,1017.1171,1017.6172,1017.8671,1021.134,space,3.2544,,1021.134,41,34,1022.1338,1022.1339,1022.1641,,,,0,47,47,47,1,160,85,,,,,,,,
,,615471d4201b7147e36709cf,65af551dfa16a017ecb780b6,2024-01-23_07h57.44.758,bars,2023.2.3,Win32,60.60606061,657b66ea316d21385b68909f,,,,,,,,,,,1022.1644,1023.167,,,1023.6672,1023.9168,,146,146,,,,,,,,,,,,,,,,bars/028.png,bars/mask004.png,,,,,,,,,,,,1,2,,,,,,,0,6,0,7,,,,,,,,,,,1023.167,1023.6672,1023.9168,1025.3838,space,1.4527,,1025.3839,79,26,1026.3838,1026.3838,1026.3855,,,,0,48,48,48,1,45,120,,,,,,,,
,,615471d4201b7147e36709cf,65af551dfa16a017ecb780b6,2024-01-23_07h57.44.758,bars,2023.2.3,Win32,60.60606061,657b66ea316d21385b68909f,,,,,,,,,,,1026.3861,1027.3838,,,1027.884,1028.1339,,66,-114,,,,,,,,,,,,,,,,bars/046.png,bars/mask006.png,,,,,,,,,,,,2,2,,,,,,,2,4,3,5,,,,,,,,,,,1027.3838,1027.8839,1028.134,1032.784,space,4.6431,,1032.7841,89,19,1033.784,1033.784,1033.8031,,,,0,49,49,49,1,155,85,,,,,,,,
,,615471d4201b7147e36709cf,65af551dfa16a017ecb780b6,2024-01-23_07h57.44.758,bars,2023.2.3,Win32,60.60606061,657b66ea316d21385b68909f,,,,,,,,,,,,,,,,,,,,,,,,,,,,,,,,,,,,,,,,,,,,,,,,,,,,,,,,,,,,,,,,,,,,,,,,,,,,,,,,,,,,,,,,,,,,,1033.8033,1093.8022,0,1,1,0,1,sequence_tables/blk003.csv
,,615471d4201b7147e36709cf,65af551dfa16a017ecb780b6,2024-01-23_07h57.44.758,bars,2023.2.3,Win32,60.60606061,657b66ea316d21385b68909f,,,,,,,,,,,1096.3738,1097.3687,,,1097.8693,1098.1191,,148,148,,,,,,,,,,,,,,,,bars/028.png,bars/mask003.png,,,,,,,,,,,,0,2,,,,,,,10,2,9,2,,,,,,1093.8173,1096.3688,space,2.5383,,1097.3687,1097.8691,1098.1193,1099.9529,space,1.8189,,1099.9531,77,28,1100.9526,1100.9526,1100.9543,,,,0,0,0,0,1,45,120,,,,,,,,
,,615471d4201b7147e36709cf,65af551dfa16a017ecb780b6,2024-01-23_07h57.44.758,bars,2023.2.3,Win32,60.60606061,657b66ea316d21385b68909f,,,,,,,,,,,1100.9549,1101.9525,,,1102.4523,1102.7025,,59,59,,,,,,,,,,,,,,,,bars/002.png,bars/mask000.png,,,,,,,,,,,,0,2,,,,,,,8,0,8,0,,,,,,,,,,,1101.9526,1102.4523,1102.7025,1106.4196,space,3.7042,,1106.4198,71,26,1107.4193,1107.4193,1107.4328,,,,0,1,1,1,1,130,85,,,,,,,,
,,615471d4201b7147e36709cf,65af551dfa16a017ecb780b6,2024-01-23_07h57.44.758,bars,2023.2.3,Win32,60.60606061,657b66ea316d21385b68909f,,,,,,,,,,,1107.433,1108.4359,,,1108.9363,1109.1862,,41,41,,,,,,,,,,,,,,,,bars/027.png,bars/mask003.png,,,,,,,,,,,,1,2,,,,,,,6,2,4,2,,,,,,,,,,,1108.4361,1108.9362,1109.1863,1113.9697,space,4.7732,,1113.9698,69,9,1114.9698,1114.9699,1114.9995,,,,0,2,2,2,1,110,50,,,,,,,,
,,615471d4201b7147e36709cf,65af551dfa16a017ecb780b6,2024-01-23_07h57.44.758,bars,2023.2.3,Win32,60.60606061,657b66ea316d21385b68909f,,,,,,,,,,,1115,1116.0029,,,1116.5031,1116.7531,,37,37,,,,,,,,,,,,,,,,bars/031.png,bars/mask001.png,,,,,,,,,,,,1,2,,,,,,,8,0,6,1,,,,,,,,,,,1116.003,1116.503,1116.7532,1121.52,space,4.7529,,1121.5206,83,2,1122.5198,1122.5199,1122.5392,,,,0,3,3,3,1,120,35,,,,,,,,
,,615471d4201b7147e36709cf,65af551dfa16a017ecb780b6,2024-01-23_07h57.44.758,bars,2023.2.3,Win32,60.60606061,657b66ea316d21385b68909f,,,,,,,,,,,1122.5395,1123.5363,,,1124.0363,1124.2865,,131,131,,,,,,,,,,,,,,,,bars/003.png,bars/mask001.png,,,,,,,,,,,,1,2,,,,,,,6,2,8,1,,,,,,,,,,,1123.5363,1124.0362,1124.2865,1126.4034,space,2.1051,,1126.4035,74,9,1127.4033,1127.4033,1127.4042,,,,0,4,4,4,1,25,140,,,,,,,,
,,615471d4201b7147e36709cf,65af551dfa16a017ecb780b6,2024-01-23_07h57.44.758,bars,2023.2.3,Win32,60.60606061,657b66ea316d21385b68909f,,,,,,,,,,,1127.4045,1128.4035,,,1128.9031,1129.1532,,0,0,,,,,,,,,,,,,,,,bars/008.png,bars/mask008.png,,,,,,,,,,,,0,2,,,,,,,4,0,6,0,,,,,,,,,,,1128.4035,1128.9031,1129.1533,1132.0201,space,2.8564,,1132.0202,70,0,1133.0199,1133.0199,1133.0342,,,,0,5,5,5,1,110,0,,,,,,,,
,,615471d4201b7147e36709cf,65af551dfa16a017ecb780b6,2024-01-23_07h57.44.758,bars,2023.2.3,Win32,60.60606061,657b66ea316d21385b68909f,,,,,,,,,,,1133.0344,1134.0372,,,1134.537,1134.787,,30,30,,,,,,,,,,,,,,,,bars/035.png,bars/mask003.png,,,,,,,,,,,,0,2,,,,,,,2,0,2,1,,,,,,,,,,,1134.0373,1134.537,1134.7871,1136.7371,space,1.942,,1136.7372,35,30,1137.7374,1137.7375,1137.7394,,,,0,6,6,6,1,175,60,,,,,,,,
,,615471d4201b7147e36709cf,65af551dfa16a017ecb780b6,2024-01-23_07h57.44.758,bars,2023.2.3,Win32,60.60606061,657b66ea316d21385b68909f,,,,,,,,,,,1137.7402,1138.7371,,,1139.237,1139.487,,135,135,,,,,,,,,,,,,,,,bars/028.png,bars/mask006.png,,,,,,,,,,,,1,2,,,,,,,4,2,4,1,,,,,,,,,,,1138.7371,1139.237,1139.487,1142.2705,space,2.7675,,1142.2705,90,15,1143.2704,1143.2705,1143.2986,,,,0,7,7,7,1,45,120,,,,,,,,
,,615471d4201b7147e36709cf,65af551dfa16a017ecb780b6,2024-01-23_07h57.44.758,bars,2023.2.3,Win32,60.60606061,657b66ea316d21385b68909f,,,,,,,,,,,1143.2988,1144.288,,,1144.7875,1145.0378,,47,47,,,,,,,,,,,,,,,,bars/025.png,bars/mask000.png,,,,,,,,,,,,1,2,,,,,,,6,0,6,1,,,,,,,,,,,1144.2881,1144.7875,1145.038,1149.6372,space,4.5834,,1149.6372,58,7,1150.6378,1150.6379,1150.6731,,,,0,8,8,8,1,105,40,,,,,,,,
,,615471d4201b7147e36709cf,65af551dfa16a017ecb780b6,2024-01-23_07h57.44.758,bars,2023.2.3,Win32,60.60606061,657b66ea316d21385b68909f,,,,,,,,,,,1150.6736,1151.671,,,1152.1711,1152.421,,162,162,,,,,,,,,,,,,,,,bars/044.png,bars/mask001.png,,,,,,,,,,,,2,2,,,,,,,4,2,5,2,,,,,,,,,,,1151.6711,1152.171,1152.421,1154.7206,space,2.2923,,1154.7206,87,7,1155.7208,1155.7208,1155.7227,,,,0,9,9,9,1,75,155,,,,,,,,
,,615471d4201b7147e36709cf,65af551dfa16a017ecb780b6,2024-01-23_07h57.44.758,bars,2023.2.3,Win32,60.60606061,657b66ea316d21385b68909f,,,,,,,,,,,1155.7233,1156.7207,,,1157.2209,1157.4708,,41,221,,,,,,,,,,,,,,,,bars/010.png,bars/mask008.png,,,,,,,,,,,,0,2,,,,,,,2,0,2,0,,,,,,,,,,,1156.7208,1157.2208,1157.4709,1161.588,space,4.1029,,1161.5882,56,14,1162.5885,1162.5885,1162.6209,,,,0,10,10,10,1,165,55,,,,,,,,
,,615471d4201b7147e36709cf,65af551dfa16a017ecb780b6,2024-01-23_07h57.44.758,bars,2023.2.3,Win32,60.60606061,657b66ea316d21385b68909f,,,,,,,,,,,1162.6212,1163.6212,,,1164.1213,1164.3714,,147,-33,,,,,,,,,,,,,,,,bars/004.png,bars/mask002.png,,,,,,,,,,,,1,2,,,,,,,0,2,1,4,,,,,,,,,,,1163.6213,1164.1212,1164.3715,1168.2046,space,3.8162,,1168.2047,58,22,1169.2045,1169.2045,1169.2229,,,,0,11,11,11,1,25,125,,,,,,,,
,,615471d4201b7147e36709cf,65af551dfa16a017ecb780b6,2024-01-23_07h57.44.758,bars,2023.2.3,Win32,60.60606061,657b66ea316d21385b68909f,,,,,,,,,,,1169.2232,1170.2216,,,1170.7213,1170.9713,,72,72,,,,,,,,,,,,,,,,bars/001.png,bars/mask002.png,,,,,,,,,,,,0,2,,,,,,,2,0,2,0,,,,,,,,,,,1170.2218,1170.7212,1170.9713,1173.8214,space,2.8382,,1173.8214,58,13,1174.8214,1174.8214,1174.8511,,,,0,12,12,12,1,130,85,,,,,,,,
,,615471d4201b7147e36709cf,65af551dfa16a017ecb780b6,2024-01-23_07h57.44.758,bars,2023.2.3,Win32,60.60606061,657b66ea316d21385b68909f,,,,,,,,,,,1174.8515,1175.8547,,,1176.3548,1176.6048,,125,125,,,,,,,,,,,,,,,,bars/023.png,bars/mask001.png,,,,,,,,,,,,1,2,,,,,,,0,2,1,1,,,,,,,,,,,1175.8547,1176.3547,1176.6049,1178.9549,space,2.3373,,1178.9549,75,10,1179.955,1179.9551,1179.9878,,,,0,13,13,13,1,20,115,,,,,,,,
,,615471d4201b7147e36709cf,65af551dfa16a017ecb780b6,2024-01-23_07h57.44.758,bars,2023.2.3,Win32,60.60606061,657b66ea316d21385b68909f,,,,,,,,,,,1179.9881,1180.9877,,,1181.4885,1181.7383,,115,115,,,,,,,,,,,,,,,,bars/019.png,bars/mask003.png,,,,,,,,,,,,0,2,,,,,,,2,0,1,0,,,,,,,,,,,1180.9879,1181.4883,1181.7384,1185.1234,space,3.3777,,1185.1234,70,10,1186.1217,1186.1219,1186.1408,,,,0,14,14,14,1,45,105,,,,,,,,
,,615471d4201b7147e36709cf,65af551dfa16a017ecb780b6,2024-01-23_07h57.44.758,bars,2023.2.3,Win32,60.60606061,657b66ea316d21385b68909f,,,,,,,,,,,1186.1416,1187.1384,,,1187.6385,1187.8884,,154,154,,,,,,,,,,,,,,,,bars/036.png,bars/mask004.png,,,,,,,,,,,,3,1,,,,,,,4,2,4,3,,,,,,,,,,,1187.1386,1187.6384,1187.8884,1191.6884,space,3.7878,,1191.6885,9,46,1192.6885,1192.6886,1192.7139,,,,0,15,15,15,1,145,20,,,,,,,,
,,615471d4201b7147e36709cf,65af551dfa16a017ecb780b6,2024-01-23_07h57.44.758,bars,2023.2.3,Win32,60.60606061,657b66ea316d21385b68909f,,,,,,,,,,,1192.7142,1193.7056,,,1194.2052,1194.455,,144,144,,,,,,,,,,,,,,,,bars/037.png,bars/mask004.png,,,,,,,,,,,,2,1,,,,,,,2,4,2,3,,,,,,,,,,,1193.7058,1194.205,1194.4551,1197.3609,space,2.8842,,1197.361,6,39,1198.3558,1198.356,1198.3823,,,,0,16,16,16,1,150,105,,,,,,,,
,,615471d4201b7147e36709cf,65af551dfa16a017ecb780b6,2024-01-23_07h57.44.758,bars,2023.2.3,Win32,60.60606061,657b66ea316d21385b68909f,,,,,,,,,,,1198.3827,1199.3731,,,1199.8727,1200.126,,121,121,,,,,,,,,,,,,,,,bars/031.png,bars/mask006.png,,,,,,,,,,,,7,1,,,,,,,4,2,7,4,,,,,,,,,,,1199.3733,1199.8726,1200.1261,1204.3454,space,4.2019,,1204.3455,1,86,1205.3442,1205.3442,1205.3796,,,,0,17,17,17,1,120,35,,,,,,,,
,,615471d4201b7147e36709cf,65af551dfa16a017ecb780b6,2024-01-23_07h57.44.758,bars,2023.2.3,Win32,60.60606061,657b66ea316d21385b68909f,,,,,,,,,,,1205.3802,1206.3772,,,1206.8747,1207.1262,,136,136,,,,,,,,,,,,,,,,bars/036.png,bars/mask006.png,,,,,,,,,,,,4,1,,,,,,,6,4,6,4,,,,,,,,,,,1206.3773,1206.8746,1207.1262,1209.1442,space,2.0012,,1209.1443,9,64,1210.1395,1210.1396,1210.1747,,,,0,18,18,18,1,145,20,,,,,,,,
,,615471d4201b7147e36709cf,65af551dfa16a017ecb780b6,2024-01-23_07h57.44.758,bars,2023.2.3,Win32,60.60606061,657b66ea316d21385b68909f,,,,,,,,,,,1210.1752,1211.1725,,,1211.6728,1211.9226,,25,25,,,,,,,,,,,,,,,,bars/008.png,bars/mask000.png,,,,,,,,,,,,1,2,,,,,,,4,6,1,6,,,,,,,,,,,1211.1726,1211.6728,1211.9226,1215.1723,space,3.2425,,1215.1724,85,25,1216.1723,1216.1723,1216.1879,,,,0,19,19,19,1,110,0,,,,,,,,
,,615471d4201b7147e36709cf,65af551dfa16a017ecb780b6,2024-01-23_07h57.44.758,bars,2023.2.3,Win32,60.60606061,657b66ea316d21385b68909f,,,,,,,,,,,1216.1882,1217.1889,,,1217.6892,1217.9394,,150,150,,,,,,,,,,,,,,,,bars/042.png,bars/mask008.png,,,,,,,,,,,,4,1,,,,,,,6,4,5,5,,,,,,,,,,,1217.189,1217.6892,1217.9394,1220.2061,space,2.2521,,1220.2063,5,75,1221.2061,1221.2061,1221.2369,,,,0,20,20,20,1,145,75,,,,,,,,
,,615471d4201b7147e36709cf,65af551dfa16a017ecb780b6,2024-01-23_07h57.44.758,bars,2023.2.3,Win32,60.60606061,657b66ea316d21385b68909f,,,,,,,,,,,1221.2371,1222.2394,,,1222.7391,1222.9893,,135,135,,,,,,,,,,,,,,,,bars/046.png,bars/mask007.png,,,,,,,,,,,,3,1,,,,,,,8,2,8,3,,,,,,,,,,,1222.2394,1222.739,1222.9893,1225.174,space,2.178,,1225.174,20,50,1226.1729,1226.1729,1226.2025,,,,0,21,21,21,1,155,85,,,,,,,,
,,615471d4201b7147e36709cf,65af551dfa16a017ecb780b6,2024-01-23_07h57.44.758,bars,2023.2.3,Win32,60.60606061,657b66ea316d21385b68909f,,,,,,,,,,,1226.2032,1227.2062,,,1227.7062,1227.9559,,45,225,,,,,,,,,,,,,,,,bars/049.png,bars/mask008.png,,,,,,,,,,,,0,1,,,,,,,6,4,6,5,,,,,,,,,,,1227.2063,1227.7061,1227.9559,1233.623,space,5.6511,,1233.6232,65,70,1234.623,1234.6231,1234.652,,,,0,22,22,22,1,160,115,,,,,,,,
,,615471d4201b7147e36709cf,65af551dfa16a017ecb780b6,2024-01-23_07h57.44.758,bars,2023.2.3,Win32,60.60606061,657b66ea316d21385b68909f,,,,,,,,,,,1234.6523,1235.6564,,,1236.1566,1236.4065,,141,141,,,,,,,,,,,,,,,,bars/042.png,bars/mask003.png,,,,,,,,,,,,6,1,,,,,,,8,2,7,0,,,,,,,,,,,1235.6565,1236.1565,1236.4065,1238.5061,space,2.0878,,1238.5062,4,66,1239.5066,1239.5067,1239.5085,,,,0,23,23,23,1,145,75,,,,,,,,
,,615471d4201b7147e36709cf,65af551dfa16a017ecb780b6,2024-01-23_07h57.44.758,bars,2023.2.3,Win32,60.60606061,657b66ea316d21385b68909f,,,,,,,,,,,1239.5091,1240.5069,,,1241.007,1241.257,,123,123,,,,,,,,,,,,,,,,bars/040.png,bars/mask009.png,,,,,,,,,,,,3,1,,,,,,,6,0,7,0,,,,,,,,,,,1240.5069,1241.0069,1241.257,1245.1234,space,3.8497,,1245.1234,17,62,1246.1231,1246.1231,1246.1419,,,,0,24,24,24,1,140,5,,,,,,,,
,,615471d4201b7147e36709cf,65af551dfa16a017ecb780b6,2024-01-23_07h57.44.758,bars,2023.2.3,Win32,60.60606061,657b66ea316d21385b68909f,,,,,,,,,,,1246.1422,1247.1401,,,1247.6402,1247.8901,,110,110,,,,,,,,,,,,,,,,bars/008.png,bars/mask002.png,,,,,,,,,,,,5,1,,,,,,,4,0,5,1,,,,,,,,,,,1247.1401,1247.6401,1247.8902,1252.0069,space,4.1092,,1252.007,0,70,1253.007,1253.0071,1253.0414,,,,0,25,25,25,1,110,0,,,,,,,,
,,615471d4201b7147e36709cf,65af551dfa16a017ecb780b6,2024-01-23_07h57.44.758,bars,2023.2.3,Win32,60.60606061,657b66ea316d21385b68909f,,,,,,,,,,,1253.0419,1254.0415,,,1254.5402,1254.7902,,72,72,,,,,,,,,,,,,,,,bars/025.png,bars/mask005.png,,,,,,,,,,,,0,2,,,,,,,6,2,7,2,,,,,,,,,,,1254.0416,1254.5402,1254.7903,1258.4572,space,3.6528,,1258.4574,33,32,1259.4571,1259.4571,1259.4721,,,,0,26,26,26,1,105,40,,,,,,,,
,,615471d4201b7147e36709cf,65af551dfa16a017ecb780b6,2024-01-23_07h57.44.758,bars,2023.2.3,Win32,60.60606061,657b66ea316d21385b68909f,,,,,,,,,,,1259.4723,1260.4736,,,1260.974,1261.2236,,69,69,,,,,,,,,,,,,,,,bars/012.png,bars/mask000.png,,,,,,,,,,,,2,1,,,,,,,8,0,8,0,,,,,,,,,,,1260.4736,1260.9738,1261.2237,1264.4251,space,3.1841,,1264.4252,21,54,1265.4239,1265.4239,1265.4387,,,,0,27,27,27,1,90,15,,,,,,,,
,,615471d4201b7147e36709cf,65af551dfa16a017ecb780b6,2024-01-23_07h57.44.758,bars,2023.2.3,Win32,60.60606061,657b66ea316d21385b68909f,,,,,,,,,,,1265.4388,1266.4407,,,1266.9407,1267.1907,,36,36,,,,,,,,,,,,,,,,bars/003.png,bars/mask006.png,,,,,,,,,,,,4,1,,,,,,,6,2,7,0,,,,,,,,,,,1266.4408,1266.9407,1267.1908,1271.4241,space,4.2168,,1271.4242,11,76,1272.424,1272.424,1272.4375,,,,0,28,28,28,1,25,140,,,,,,,,
,,615471d4201b7147e36709cf,65af551dfa16a017ecb780b6,2024-01-23_07h57.44.758,bars,2023.2.3,Win32,60.60606061,657b66ea316d21385b68909f,,,,,,,,,,,1272.4377,1273.4408,,,1273.9409,1274.1909,,153,-27,,,,,,,,,,,,,,,,bars/023.png,bars/mask002.png,,,,,,,,,,,,0,2,,,,,,,8,4,7,4,,,,,,,,,,,1273.441,1273.9408,1274.1909,1276.741,space,2.5319,,1276.7411,47,38,1277.7411,1277.7411,1277.7722,,,,0,29,29,29,1,20,115,,,,,,,,
,,615471d4201b7147e36709cf,65af551dfa16a017ecb780b6,2024-01-23_07h57.44.758,bars,2023.2.3,Win32,60.60606061,657b66ea316d21385b68909f,,,,,,,,,,,1277.7727,1278.7751,,,1279.2745,1279.5244,,54,234,,,,,,,,,,,,,,,,bars/044.png,bars/mask003.png,,,,,,,,,,,,3,1,,,,,,,10,6,10,6,,,,,,,,,,,1278.7751,1279.2744,1279.5244,1284.0578,space,4.522,,1284.058,21,79,1285.0578,1285.0579,1285.0922,,,,0,30,30,30,1,75,155,,,,,,,,
,,615471d4201b7147e36709cf,65af551dfa16a017ecb780b6,2024-01-23_07h57.44.758,bars,2023.2.3,Win32,60.60606061,657b66ea316d21385b68909f,,,,,,,,,,,1285.093,1286.0911,,,1286.5909,1286.8412,,127,127,,,,,,,,,,,,,,,,bars/008.png,bars/mask002.png,,,,,,,,,,,,4,1,,,,,,,10,8,10,9,,,,,,,,,,,1286.0911,1286.5909,1286.8412,1290.1246,space,3.2679,,1290.1247,17,53,1291.1247,1291.1248,1291.1542,,,,0,31,31,31,1,110,0,,,,,,,,
,,615471d4201b7147e36709cf,65af551dfa16a017ecb780b6,2024-01-23_07h57.44.758,bars,2023.2.3,Win32,60.60606061,657b66ea316d21385b68909f,,,,,,,,,,,1291.1547,1292.158,,,1292.6583,1292.9084,,62,62,,,,,,,,,,,,,,,,bars/027.png,bars/mask006.png,,,,,,,,,,,,5,2,,,,,,,10,10,9,9,,,,,,,,,,,1292.158,1292.6582,1292.9085,1295.927,space,3.0122,,1295.9271,48,12,1296.9248,1296.9248,1296.9558,,,,0,32,32,32,1,110,50,,,,,,,,
,,615471d4201b7147e36709cf,65af551dfa16a017ecb780b6,2024-01-23_07h57.44.758,bars,2023.2.3,Win32,60.60606061,657b66ea316d21385b68909f,,,,,,,,,,,1296.9563,1297.9582,,,1298.4583,1298.7082,,40,220,,,,,,,,,,,,,,,,bars/035.png,bars/mask001.png,,,,,,,,,,,,3,2,,,,,,,8,10,9,10,,,,,,,,,,,1297.9582,1298.4583,1298.7082,1302.2417,space,3.5175,,1302.2417,45,20,1303.2419,1303.242,1303.2762,,,,0,33,33,33,1,175,60,,,,,,,,
,,615471d4201b7147e36709cf,65af551dfa16a017ecb780b6,2024-01-23_07h57.44.758,bars,2023.2.3,Win32,60.60606061,657b66ea316d21385b68909f,,,,,,,,,,,1303.2767,1304.275,,,1304.7755,1305.0252,,157,157,,,,,,,,,,,,,,,,bars/007.png,bars/mask007.png,,,,,,,,,,,,4,1,,,,,,,10,8,10,8,,,,,,,,,,,1304.275,1304.7755,1305.0253,1308.0918,space,3.059,,1308.0919,18,78,1309.0916,1309.0917,1309.1133,,,,0,34,34,34,1,175,55,,,,,,,,
,,615471d4201b7147e36709cf,65af551dfa16a017ecb780b6,2024-01-23_07h57.44.758,bars,2023.2.3,Win32,60.60606061,657b66ea316d21385b68909f,,,,,,,,,,,1309.1136,1310.1083,,,1310.6087,1310.8587,,55,55,,,,,,,,,,,,,,,,bars/022.png,bars/mask007.png,,,,,,,,,,,,0,2,,,,,,,10,6,10,7,,,,,,,,,,,1310.1083,1310.6085,1310.8587,1315.5921,space,4.723,,1315.5922,40,35,1316.5922,1316.5923,1316.6237,,,,0,35,35,35,1,95,20,,,,,,,,
,,615471d4201b7147e36709cf,65af551dfa16a017ecb780b6,2024-01-23_07h57.44.758,bars,2023.2.3,Win32,60.60606061,657b66ea316d21385b68909f,,,,,,,,,,,1316.6241,1317.6255,,,1318.1255,1318.3755,,44,224,,,,,,,,,,,,,,,,bars/009.png,bars/mask006.png,,,,,,,,,,,,0,1,,,,,,,8,8,8,6,,,,,,,,,,,1317.6256,1318.1254,1318.3755,1321.6422,space,3.258,,1321.6422,29,61,1322.6419,1322.642,1322.656,,,,0,36,36,36,1,15,105,,,,,,,,
,,615471d4201b7147e36709cf,65af551dfa16a017ecb780b6,2024-01-23_07h57.44.758,bars,2023.2.3,Win32,60.60606061,657b66ea316d21385b68909f,,,,,,,,,,,1322.6563,1323.6586,,,1324.159,1324.409,,122,-58,,,,,,,,,,,,,,,,bars/025.png,bars/mask003.png,,,,,,,,,,,,4,1,,,,,,,10,10,9,10,,,,,,,,,,,1323.6587,1324.1589,1324.409,1327.3089,space,2.8844,,1327.3089,17,82,1328.3091,1328.3091,1328.3379,,,,0,37,37,37,1,105,40,,,,,,,,
,,615471d4201b7147e36709cf,65af551dfa16a017ecb780b6,2024-01-23_07h57.44.758,bars,2023.2.3,Win32,60.60606061,657b66ea316d21385b68909f,,,,,,,,,,,1328.3381,1329.3425,,,1329.8428,1330.0925,,143,143,,,,,,,,,,,,,,,,bars/035.png,bars/mask005.png,,,,,,,,,,,,0,1,,,,,,,10,10,8,10,,,,,,,,,,,1329.3425,1329.8424,1330.0925,1332.4765,space,2.37,,1332.4765,32,83,1333.4758,1333.4759,1333.4898,,,,0,38,38,38,1,175,60,,,,,,,,
,,615471d4201b7147e36709cf,65af551dfa16a017ecb780b6,2024-01-23_07h57.44.758,bars,2023.2.3,Win32,60.60606061,657b66ea316d21385b68909f,,,,,,,,,,,1333.49,1334.493,,,1334.993,1335.2427,,141,-39,,,,,,,,,,,,,,,,bars/017.png,bars/mask007.png,,,,,,,,,,,,7,1,,,,,,,10,10,8,9,,,,,,,,,,,1334.4931,1334.993,1335.2427,1339.2594,space,4.0021,,1339.2596,4,84,1340.2594,1340.2595,1340.2891,,,,0,39,39,39,1,145,45,,,,,,,,
,,615471d4201b7147e36709cf,65af551dfa16a017ecb780b6,2024-01-23_07h57.44.758,bars,2023.2.3,Win32,60.60606061,657b66ea316d21385b68909f,,,,,,,,,,,1340.2896,1341.2929,,,1341.7929,1342.0428,,142,142,,,,,,,,,,,,,,,,bars/002.png,bars/mask001.png,,,,,,,,,,,,6,1,,,,,,,8,10,10,10,,,,,,,,,,,1341.2929,1341.7928,1342.0429,1344.1429,space,2.09,,1344.1429,12,57,1345.1429,1345.1429,1345.1701,,,,0,40,40,40,1,130,85,,,,,,,,
,,615471d4201b7147e36709cf,65af551dfa16a017ecb780b6,2024-01-23_07h57.44.758,bars,2023.2.3,Win32,60.60606061,657b66ea316d21385b68909f,,,,,,,,,,,1345.1704,1346.1608,,,1346.6643,1346.9105,,35,35,,,,,,,,,,,,,,,,bars/043.png,bars/mask003.png,,,,,,,,,,,,8,1,,,,,,,10,10,10,10,,,,,,,,,,,1346.1611,1346.6643,1346.9107,1350.2261,space,3.2846,,1350.2264,5,85,1351.2267,1351.2268,1351.2571,,,,0,41,41,41,1,30,130,,,,,,,,
,,615471d4201b7147e36709cf,65af551dfa16a017ecb780b6,2024-01-23_07h57.44.758,bars,2023.2.3,Win32,60.60606061,657b66ea316d21385b68909f,,,,,,,,,,,1351.2576,1352.2597,,,1352.7602,1353.01,,45,45,,,,,,,,,,,,,,,,bars/031.png,bars/mask003.png,,,,,,,,,,,,7,2,,,,,,,10,10,9,10,,,,,,,,,,,1352.2598,1352.7601,1353.0102,1354.7433,space,1.7155,,1354.7434,75,10,1355.7432,1355.7433,1355.7475,,,,0,42,42,42,1,120,35,,,,,,,,
,,615471d4201b7147e36709cf,65af551dfa16a017ecb780b6,2024-01-23_07h57.44.758,bars,2023.2.3,Win32,60.60606061,657b66ea316d21385b68909f,,,,,,,,,,,1355.748,1356.7433,,,1357.2434,1357.4934,,42,42,,,,,,,,,,,,,,,,bars/046.png,bars/mask002.png,,,,,,,,,,,,0,2,,,,,,,8,10,8,10,,,,,,,,,,,1356.7433,1357.2434,1357.4935,1360.1266,space,2.6188,,1360.1266,67,43,1361.1266,1361.1266,1361.1404,,,,0,43,43,43,1,155,85,,,,,,,,
,,615471d4201b7147e36709cf,65af551dfa16a017ecb780b6,2024-01-23_07h57.44.758,bars,2023.2.3,Win32,60.60606061,657b66ea316d21385b68909f,,,,,,,,,,,1361.1406,1362.1432,,,1362.6434,1362.8932,,49,49,,,,,,,,,,,,,,,,bars/044.png,bars/mask001.png,,,,,,,,,,,,1,1,,,,,,,6,8,6,9,,,,,,,,,,,1362.1433,1362.6433,1362.8934,1367.0602,space,4.1556,,1367.0602,26,74,1368.06,1368.0601,1368.0743,,,,0,44,44,44,1,75,155,,,,,,,,
,,615471d4201b7147e36709cf,65af551dfa16a017ecb780b6,2024-01-23_07h57.44.758,bars,2023.2.3,Win32,60.60606061,657b66ea316d21385b68909f,,,,,,,,,,,1368.0745,1369.0651,,,1369.5602,1369.8102,,46,46,,,,,,,,,,,,,,,,bars/007.png,bars/mask004.png,,,,,,,,,,,,5,2,,,,,,,4,6,3,7,,,,,,,,,,,1369.0651,1369.5602,1369.8102,1371.5772,space,1.7509,,1371.5773,51,9,1372.5772,1372.5772,1372.6127,,,,0,45,45,45,1,175,55,,,,,,,,
,,615471d4201b7147e36709cf,65af551dfa16a017ecb780b6,2024-01-23_07h57.44.758,bars,2023.2.3,Win32,60.60606061,657b66ea316d21385b68909f,,,,,,,,,,,1372.6133,1373.6104,,,1374.1103,1374.36,,126,126,,,,,,,,,,,,,,,,bars/028.png,bars/mask000.png,,,,,,,,,,,,3,2,,,,,,,6,4,5,4,,,,,,,,,,,1373.6104,1374.1103,1374.36,1376.4105,space,2.0401,,1376.4106,81,6,1377.4104,1377.4105,1377.4402,,,,0,46,46,46,1,45,120,,,,,,,,
,,615471d4201b7147e36709cf,65af551dfa16a017ecb780b6,2024-01-23_07h57.44.758,bars,2023.2.3,Win32,60.60606061,657b66ea316d21385b68909f,,,,,,,,,,,1377.4406,1378.4438,,,1378.9439,1379.1938,,57,57,,,,,,,,,,,,,,,,bars/019.png,bars/mask005.png,,,,,,,,,,,,4,1,,,,,,,8,2,7,1,,,,,,,,,,,1378.4439,1378.9439,1379.1939,1381.9106,space,2.7088,,1381.9107,12,48,1382.9107,1382.9107,1382.9311,,,,0,47,47,47,1,45,105,,,,,,,,
,,615471d4201b7147e36709cf,65af551dfa16a017ecb780b6,2024-01-23_07h57.44.758,bars,2023.2.3,Win32,60.60606061,657b66ea316d21385b68909f,,,,,,,,,,,1382.9314,1383.9272,,,1384.4277,1384.6775,,134,134,,,,,,,,,,,,,,,,bars/024.png,bars/mask002.png,,,,,,,,,,,,3,1,,,,,,,6,4,6,4,,,,,,,,,,,1383.9272,1384.4276,1384.6776,1386.4275,space,1.7339,,1386.4275,14,36,1387.4273,1387.4274,1387.429,,,,0,48,48,48,1,120,170,,,,,,,,
,,615471d4201b7147e36709cf,65af551dfa16a017ecb780b6,2024-01-23_07h57.44.758,bars,2023.2.3,Win32,60.60606061,657b66ea316d21385b68909f,,,,,,,,,,,1387.4296,1388.4275,,,1388.9276,1389.1775,,124,124,,,,,,,,,,,,,,,,bars/049.png,bars/mask005.png,,,,,,,,,,,,4,2,,,,,,,4,6,4,5,,,,,,,,,,,1388.4275,1388.9274,1389.1776,1391.7609,space,2.5705,,1391.761,36,9,1392.7609,1392.7609,1392.7919,,,,0,49,49,49,1,160,115,,,,,,,,
,,615471d4201b7147e36709cf,65af551dfa16a017ecb780b6,2024-01-23_07h57.44.758,bars,2023.2.3,Win32,60.60606061,657b66ea316d21385b68909f,,,,,,,,,,,,,,,,,,,,,,,,,,,,,,,,,,,,,,,,,,,,,,,,,,,,,,,,,,,,,,,,,,,,,,,,,,,,,,,,,,,,,,,,,,,,,1392.792,1452.7988,0,2,2,4,1,sequence_tables/blk033.csv
,,615471d4201b7147e36709cf,65af551dfa16a017ecb780b6,2024-01-23_07h57.44.758,bars,2023.2.3,Win32,60.60606061,657b66ea316d21385b68909f,,,,,,,,,,,1460.5491,1461.5129,,,1462.0127,1462.2633,,21,21,,,,,,,,,,,,,,,,bars/015.png,bars/mask001.png,,,,,,,,,,,,0,2,,,,,,,7,5,7,6,,,,,,1452.8216,1460.5024,space,7.6747,,1461.5129,1462.0127,1462.2633,1465.6632,space,3.3867,,1465.6633,89,41,1466.6632,1466.6633,1466.6965,,,,0,0,0,0,1,110,160,,,,,,,,
,,615471d4201b7147e36709cf,65af551dfa16a017ecb780b6,2024-01-23_07h57.44.758,bars,2023.2.3,Win32,60.60606061,657b66ea316d21385b68909f,,,,,,,,,,,1466.697,1467.6965,,,1468.1967,1468.4466,,147,147,,,,,,,,,,,,,,,,bars/000.png,bars/mask009.png,,,,,,,,,,,,2,2,,,,,,,9,3,10,2,,,,,,,,,,,1467.6965,1468.1965,1468.4466,1471.8801,space,3.4195,,1471.8803,73,2,1472.8799,1472.88,1472.9109,,,,0,1,1,1,1,40,145,,,,,,,,
,,615471d4201b7147e36709cf,65af551dfa16a017ecb780b6,2024-01-23_07h57.44.758,bars,2023.2.3,Win32,60.60606061,657b66ea316d21385b68909f,,,,,,,,,,,1472.9112,1473.9129,,,1474.4133,1474.6632,,134,134,,,,,,,,,,,,,,,,bars/043.png,bars/mask003.png,,,,,,,,,,,,2,2,,,,,,,7,1,6,2,,,,,,,,,,,1473.913,1474.4132,1474.6632,1476.73,space,2.052,,1476.7301,76,4,1477.7298,1477.7299,1477.7433,,,,0,2,2,2,1,30,130,,,,,,,,
,,615471d4201b7147e36709cf,65af551dfa16a017ecb780b6,2024-01-23_07h57.44.758,bars,2023.2.3,Win32,60.60606061,657b66ea316d21385b68909f,,,,,,,,,,,1477.7435,1478.7467,,,1479.2467,1479.4968,,50,230,,,,,,,,,,,,,,,,bars/042.png,bars/mask001.png,,,,,,,,,,,,0,2,,,,,,,5,3,5,2,,,,,,,,,,,1478.7468,1479.2467,1479.4969,1483.6471,space,4.133,,1483.6471,85,25,1484.6468,1484.6469,1484.6766,,,,0,3,3,3,1,145,75,,,,,,,,
,,615471d4201b7147e36709cf,65af551dfa16a017ecb780b6,2024-01-23_07h57.44.758,bars,2023.2.3,Win32,60.60606061,657b66ea316d21385b68909f,,,,,,,,,,,1484.677,1485.6802,,,1486.1804,1486.4303,,50,50,,,,,,,,,,,,,,,,bars/042.png,bars/mask002.png,,,,,,,,,,,,0,2,,,,,,,7,1,6,2,,,,,,,,,,,1485.6802,1486.1802,1486.4303,1488.6971,space,2.2546,,1488.6971,85,25,1489.6969,1489.697,1489.7109,,,,0,4,4,4,1,145,75,,,,,,,,
,,615471d4201b7147e36709cf,65af551dfa16a017ecb780b6,2024-01-23_07h57.44.758,bars,2023.2.3,Win32,60.60606061,657b66ea316d21385b68909f,,,,,,,,,,,1489.7111,1490.7137,,,1491.214,1491.4639,,115,-65,,,,,,,,,,,,,,,,bars/029.png,bars/mask004.png,,,,,,,,,,,,1,1,,,,,,,5,0,5,0,,,,,,,,,,,1490.7138,1491.2139,1491.4639,1496.5972,space,5.1158,,1496.5973,25,70,1497.5972,1497.5973,1497.6276,,,,0,5,5,5,1,90,45,,,,,,,,
,,615471d4201b7147e36709cf,65af551dfa16a017ecb780b6,2024-01-23_07h57.44.758,bars,2023.2.3,Win32,60.60606061,657b66ea316d21385b68909f,,,,,,,,,,,1497.6279,1498.6306,,,1499.1308,1499.3806,,32,32,,,,,,,,,,,,,,,,bars/045.png,bars/mask004.png,,,,,,,,,,,,1,2,,,,,,,7,2,8,3,,,,,,,,,,,1498.6307,1499.1307,1499.3807,1500.7474,space,1.3554,,1500.7474,68,22,1501.7473,1501.7474,1501.7516,,,,0,6,6,6,1,100,10,,,,,,,,
,,615471d4201b7147e36709cf,65af551dfa16a017ecb780b6,2024-01-23_07h57.44.758,bars,2023.2.3,Win32,60.60606061,657b66ea316d21385b68909f,,,,,,,,,,,1501.7521,1502.7473,,,1503.2474,1503.4974,,47,47,,,,,,,,,,,,,,,,bars/044.png,bars/mask000.png,,,,,,,,,,,,1,1,,,,,,,9,0,10,1,,,,,,,,,,,1502.7474,1503.2474,1503.4975,1505.9142,space,2.4016,,1505.9143,28,72,1506.9142,1506.9143,1506.945,,,,0,7,7,7,1,75,155,,,,,,,,
,,615471d4201b7147e36709cf,65af551dfa16a017ecb780b6,2024-01-23_07h57.44.758,bars,2023.2.3,Win32,60.60606061,657b66ea316d21385b68909f,,,,,,,,,,,1506.9455,1507.9476,,,1508.4478,1508.6977,,44,224,,,,,,,,,,,,,,,,bars/012.png,bars/mask009.png,,,,,,,,,,,,0,2,,,,,,,7,0,6,0,,,,,,,,,,,1507.9476,1508.4478,1508.6978,1511.6809,space,2.9723,,1511.681,46,29,1512.681,1512.681,1512.7099,,,,0,8,8,8,1,90,15,,,,,,,,
,,615471d4201b7147e36709cf,65af551dfa16a017ecb780b6,2024-01-23_07h57.44.758,bars,2023.2.3,Win32,60.60606061,657b66ea316d21385b68909f,,,,,,,,,,,1512.7104,1513.7144,,,1514.2145,1514.4645,,45,45,,,,,,,,,,,,,,,,bars/029.png,bars/mask004.png,,,,,,,,,,,,1,2,,,,,,,5,2,4,1,,,,,,,,,,,1513.7145,1514.2144,1514.4647,1518.0645,space,3.5864,,1518.0646,45,0,1519.0644,1519.0645,1519.0939,,,,0,9,9,9,1,90,45,,,,,,,,
,,615471d4201b7147e36709cf,65af551dfa16a017ecb780b6,2024-01-23_07h57.44.758,bars,2023.2.3,Win32,60.60606061,657b66ea316d21385b68909f,,,,,,,,,,,1519.0943,1520.0978,,,1520.598,1520.8477,,122,122,,,,,,,,,,,,,,,,bars/037.png,bars/mask001.png,,,,,,,,,,,,0,2,,,,,,,3,0,4,0,,,,,,,,,,,1520.0978,1520.5979,1520.8478,1525.8482,space,4.9882,,1525.8482,28,17,1526.848,1526.8481,1526.8786,,,,0,10,10,10,1,150,105,,,,,,,,
,,615471d4201b7147e36709cf,65af551dfa16a017ecb780b6,2024-01-23_07h57.44.758,bars,2023.2.3,Win32,60.60606061,657b66ea316d21385b68909f,,,,,,,,,,,1526.879,1527.8814,,,1528.3818,1528.6315,,53,53,,,,,,,,,,,,,,,,bars/041.png,bars/mask003.png,,,,,,,,,,,,0,2,,,,,,,1,0,1,0,,,,,,,,,,,1527.8815,1528.3817,1528.6316,1531.2314,space,2.5854,,1531.2314,33,32,1532.2315,1532.2316,1532.2614,,,,0,11,11,11,1,20,85,,,,,,,,
,,615471d4201b7147e36709cf,65af551dfa16a017ecb780b6,2024-01-23_07h57.44.758,bars,2023.2.3,Win32,60.60606061,657b66ea316d21385b68909f,,,,,,,,,,,1532.2619,1533.2648,,,1533.7649,1534.015,,51,51,,,,,,,,,,,,,,,,bars/027.png,bars/mask001.png,,,,,,,,,,,,0,2,,,,,,,3,0,3,0,,,,,,,,,,,1533.2648,1533.7649,1534.0151,1536.4814,space,2.4497,,1536.4815,59,1,1537.4817,1537.4817,1537.4954,,,,0,12,12,12,1,110,50,,,,,,,,
,,615471d4201b7147e36709cf,65af551dfa16a017ecb780b6,2024-01-23_07h57.44.758,bars,2023.2.3,Win32,60.60606061,657b66ea316d21385b68909f,,,,,,,,,,,1537.4956,1538.4984,,,1538.9986,1539.2485,,147,147,,,,,,,,,,,,,,,,bars/008.png,bars/mask007.png,,,,,,,,,,,,0,2,,,,,,,5,0,4,0,,,,,,,,,,,1538.4984,1538.9985,1539.2485,1540.7819,space,1.5229,,1540.782,37,33,1541.7815,1541.7817,1541.7828,,,,0,13,13,13,1,110,0,,,,,,,,
,,615471d4201b7147e36709cf,65af551dfa16a017ecb780b6,2024-01-23_07h57.44.758,bars,2023.2.3,Win32,60.60606061,657b66ea316d21385b68909f,,,,,,,,,,,1541.7835,1542.7818,,,1543.2819,1543.5319,,128,128,,,,,,,,,,,,,,,,bars/003.png,bars/mask001.png,,,,,,,,,,,,1,2,,,,,,,3,0,3,2,,,,,,,,,,,1542.7819,1543.2819,1543.5319,1546.7153,space,3.1725,,1546.7155,77,12,1547.7155,1547.7156,1547.75,,,,0,14,14,14,1,25,140,,,,,,,,
,,615471d4201b7147e36709cf,65af551dfa16a017ecb780b6,2024-01-23_07h57.44.758,bars,2023.2.3,Win32,60.60606061,657b66ea316d21385b68909f,,,,,,,,,,,1547.7504,1548.749,,,1549.249,1549.4989,,36,216,,,,,,,,,,,,,,,,bars/007.png,bars/mask004.png,,,,,,,,,,,,1,2,,,,,,,5,2,4,3,,,,,,,,,,,1548.7492,1549.249,1549.499,1552.0824,space,2.5665,,1552.0826,41,19,1553.0822,1553.0824,1553.1093,,,,0,15,15,15,1,175,55,,,,,,,,
,,615471d4201b7147e36709cf,65af551dfa16a017ecb780b6,2024-01-23_07h57.44.758,bars,2023.2.3,Win32,60.60606061,657b66ea316d21385b68909f,,,,,,,,,,,1553.1096,1554.0996,,,1554.5996,1554.8493,,120,-60,,,,,,,,,,,,,,,,bars/049.png,bars/mask008.png,,,,,,,,,,,,3,2,,,,,,,7,4,8,3,,,,,,,,,,,1554.0997,1554.5995,1554.8495,1559.5664,space,4.7002,,1559.5665,40,5,1560.5663,1560.5663,1560.5999,,,,0,16,16,16,1,160,115,,,,,,,,
,,615471d4201b7147e36709cf,65af551dfa16a017ecb780b6,2024-01-23_07h57.44.758,bars,2023.2.3,Win32,60.60606061,657b66ea316d21385b68909f,,,,,,,,,,,1560.6002,1561.5991,,,1562.0994,1562.3493,,69,69,,,,,,,,,,,,,,,,bars/021.png,bars/mask002.png,,,,,,,,,,,,3,2,,,,,,,9,2,9,3,,,,,,,,,,,1561.5992,1562.0994,1562.3493,1564.0157,space,1.6495,,1564.0158,86,1,1565.0159,1565.0159,1565.043,,,,0,17,17,17,1,155,70,,,,,,,,
,,615471d4201b7147e36709cf,65af551dfa16a017ecb780b6,2024-01-23_07h57.44.758,bars,2023.2.3,Win32,60.60606061,657b66ea316d21385b68909f,,,,,,,,,,,1565.0432,1566.0368,,,1566.537,1566.7833,,53,53,,,,,,,,,,,,,,,,bars/021.png,bars/mask009.png,,,,,,,,,,,,0,2,,,,,,,10,0,10,1,,,,,,,,,,,1566.0371,1566.537,1566.7835,1569.6823,space,2.8687,,1569.6824,78,17,1570.6874,1570.6875,1570.7236,,,,0,18,18,18,1,155,70,,,,,,,,
,,615471d4201b7147e36709cf,65af551dfa16a017ecb780b6,2024-01-23_07h57.44.758,bars,2023.2.3,Win32,60.60606061,657b66ea316d21385b68909f,,,,,,,,,,,1570.7241,1571.7163,,,1572.2158,1572.4705,,115,115,,,,,,,,,,,,,,,,bars/023.png,bars/mask006.png,,,,,,,,,,,,0,2,,,,,,,10,0,7,0,,,,,,,,,,,1571.7164,1572.2157,1572.4706,1573.9704,space,1.4835,,1573.9705,85,0,1574.9665,1574.9668,1574.9693,,,,0,19,19,19,1,20,115,,,,,,,,
,,615471d4201b7147e36709cf,65af551dfa16a017ecb780b6,2024-01-23_07h57.44.758,bars,2023.2.3,Win32,60.60606061,657b66ea316d21385b68909f,,,,,,,,,,,1574.9701,1575.9662,,,1576.466,1576.7039,,48,48,,,,,,,,,,,,,,,,bars/030.png,bars/mask000.png,,,,,,,,,,,,1,2,,,,,,,8,2,7,3,,,,,,,,,,,1575.9665,1576.4659,1576.704,1578.6527,space,1.9324,,1578.6527,88,17,1579.6499,1579.6501,1579.6779,,,,0,20,20,20,1,140,65,,,,,,,,
,,615471d4201b7147e36709cf,65af551dfa16a017ecb780b6,2024-01-23_07h57.44.758,bars,2023.2.3,Win32,60.60606061,657b66ea316d21385b68909f,,,,,,,,,,,1579.6781,1580.6664,,,1581.1668,1581.4171,,123,123,,,,,,,,,,,,,,,,bars/026.png,bars/mask004.png,,,,,,,,,,,,0,2,,,,,,,10,4,10,4,,,,,,,,,,,1580.6664,1581.1668,1581.4172,1582.9335,space,1.5012,,1582.9335,88,38,1583.9334,1583.9336,1583.9357,,,,0,21,21,21,1,35,85,,,,,,,,
,,615471d4201b7147e36709cf,65af551dfa16a017ecb780b6,2024-01-23_07h57.44.758,bars,2023.2.3,Win32,60.60606061,657b66ea316d21385b68909f,,,,,,,,,,,1583.9366,1584.9336,,,1585.4333,1585.6837,,36,36,,,,,,,,,,,,,,,,bars/012.png,bars/mask009.png,,,,,,,,,,,,1,2,,,,,,,8,2,7,2,,,,,,,,,,,1584.9337,1585.4332,1585.6838,1587.1663,space,1.4755,,1587.1664,54,21,1588.167,1588.1671,1588.17,,,,0,22,22,22,1,90,15,,,,,,,,
,,615471d4201b7147e36709cf,65af551dfa16a017ecb780b6,2024-01-23_07h57.44.758,bars,2023.2.3,Win32,60.60606061,657b66ea316d21385b68909f,,,,,,,,,,,1588.1709,1589.167,,,1589.668,1589.917,,100,100,,,,,,,,,,,,,,,,bars/011.png,bars/mask008.png,,,,,,,,,,,,0,2,,,,,,,10,0,9,0,,,,,,,,,,,1589.1671,1589.6679,1589.9171,1593.3174,space,3.3878,,1593.3175,60,15,1594.3165,1594.3166,1594.33,,,,0,23,23,23,1,160,85,,,,,,,,
,,615471d4201b7147e36709cf,65af551dfa16a017ecb780b6,2024-01-23_07h57.44.758,bars,2023.2.3,Win32,60.60606061,657b66ea316d21385b68909f,,,,,,,,,,,1594.3301,1595.3334,,,1595.8334,1596.0833,,46,46,,,,,,,,,,,,,,,,bars/010.png,bars/mask002.png,,,,,,,,,,,,0,2,,,,,,,10,0,10,0,,,,,,,,,,,1595.3335,1595.8333,1596.0833,1600.2669,space,4.167,,1600.2671,61,9,1601.2673,1601.2673,1601.3022,,,,0,24,24,24,1,165,55,,,,,,,,
,,615471d4201b7147e36709cf,65af551dfa16a017ecb780b6,2024-01-23_07h57.44.758,bars,2023.2.3,Win32,60.60606061,657b66ea316d21385b68909f,,,,,,,,,,,1601.3029,1602.3005,,,1602.8005,1603.0505,,143,143,,,,,,,,,,,,,,,,bars/008.png,bars/mask006.png,,,,,,,,,,,,0,1,,,,,,,8,0,8,2,,,,,,,,,,,1602.3006,1602.8005,1603.0506,1604.2669,space,1.1978,,1604.267,33,37,1605.2671,1605.2671,1605.3022,,,,0,25,25,25,1,110,0,,,,,,,,
,,615471d4201b7147e36709cf,65af551dfa16a017ecb780b6,2024-01-23_07h57.44.758,bars,2023.2.3,Win32,60.60606061,657b66ea316d21385b68909f,,,,,,,,,,,1605.3028,1606.3004,,,1606.8005,1607.0505,,69,69,,,,,,,,,,,,,,,,bars/006.png,bars/mask008.png,,,,,,,,,,,,0,2,,,,,,,10,0,10,2,,,,,,,,,,,1606.3004,1606.8005,1607.0506,1609.4346,space,2.377,,1609.4348,34,31,1610.434,1610.434,1610.4624,,,,0,26,26,26,1,35,100,,,,,,,,
,,615471d4201b7147e36709cf,65af551dfa16a017ecb780b6,2024-01-23_07h57.44.758,bars,2023.2.3,Win32,60.60606061,657b66ea316d21385b68909f,,,,,,,,,,,1610.4627,1611.4506,,,1611.9507,1612.2003,,134,134,,,,,,,,,,,,,,,,bars/003.png,bars/mask000.png,,,,,,,,,,,,2,2,,,,,,,8,2,6,2,,,,,,,,,,,1611.4507,1611.9505,1612.2005,1616.5507,space,4.3328,,1616.5507,71,6,1617.5506,1617.5507,1617.5803,,,,0,27,27,27,1,25,140,,,,,,,,
,,615471d4201b7147e36709cf,65af551dfa16a017ecb780b6,2024-01-23_07h57.44.758,bars,2023.2.3,Win32,60.60606061,657b66ea316d21385b68909f,,,,,,,,,,,1617.5807,1618.584,,,1619.0842,1619.3341,,112,112,,,,,,,,,,,,,,,,bars/001.png,bars/mask003.png,,,,,,,,,,,,2,1,,,,,,,6,4,6,4,,,,,,,,,,,1618.584,1619.0841,1619.3341,1623.7341,space,4.3924,,1623.7341,18,27,1624.7342,1624.7343,1624.769,,,,0,28,28,28,1,130,85,,,,,,,,
,,615471d4201b7147e36709cf,65af551dfa16a017ecb780b6,2024-01-23_07h57.44.758,bars,2023.2.3,Win32,60.60606061,657b66ea316d21385b68909f,,,,,,,,,,,1624.7695,1625.7675,,,1626.2677,1626.5178,,52,52,,,,,,,,,,,,,,,,bars/025.png,bars/mask007.png,,,,,,,,,,,,4,2,,,,,,,4,6,5,7,,,,,,,,,,,1625.7675,1626.2676,1626.5178,1628.3345,space,1.8014,,1628.3345,53,12,1629.3343,1629.3344,1629.3622,,,,0,29,29,29,1,105,40,,,,,,,,
,,615471d4201b7147e36709cf,65af551dfa16a017ecb780b6,2024-01-23_07h57.44.758,bars,2023.2.3,Win32,60.60606061,657b66ea316d21385b68909f,,,,,,,,,,,1629.3624,1630.3509,,,1630.8518,1631.1016,,122,122,,,,,,,,,,,,,,,,bars/028.png,bars/mask002.png,,,,,,,,,,,,7,2,,,,,,,6,8,7,8,,,,,,,,,,,1630.3509,1630.8516,1631.1017,1635.4851,space,4.3692,,1635.4854,77,2,1636.4845,1636.4845,1636.4982,,,,0,30,30,30,1,45,120,,,,,,,,
,,615471d4201b7147e36709cf,65af551dfa16a017ecb780b6,2024-01-23_07h57.44.758,bars,2023.2.3,Win32,60.60606061,657b66ea316d21385b68909f,,,,,,,,,,,1636.4984,1637.5013,,,1638.0013,1638.2523,,67,67,,,,,,,,,,,,,,,,bars/019.png,bars/mask009.png,,,,,,,,,,,,2,1,,,,,,,8,6,7,6,,,,,,,,,,,1637.5013,1638.0012,1638.2523,1641.6681,space,3.3998,,1641.6681,22,38,1642.6679,1642.668,1642.6913,,,,0,31,31,31,1,45,105,,,,,,,,
,,615471d4201b7147e36709cf,65af551dfa16a017ecb780b6,2024-01-23_07h57.44.758,bars,2023.2.3,Win32,60.60606061,657b66ea316d21385b68909f,,,,,,,,,,,1642.6919,1643.6852,,,1644.1855,1644.4353,,20,200,,,,,,,,,,,,,,,,bars/014.png,bars/mask005.png,,,,,,,,,,,,1,2,,,,,,,6,4,7,3,,,,,,,,,,,1643.6853,1644.1854,1644.4354,1648.4529,space,4.0107,,1648.453,60,20,1649.4515,1649.4515,1649.4809,,,,0,32,32,32,1,80,0,,,,,,,,
,,615471d4201b7147e36709cf,65af551dfa16a017ecb780b6,2024-01-23_07h57.44.758,bars,2023.2.3,Win32,60.60606061,657b66ea316d21385b68909f,,,,,,,,,,,1649.4814,1650.4848,,,1650.9859,1651.235,,47,227,,,,,,,,,,,,,,,,bars/029.png,bars/mask005.png,,,,,,,,,,,,4,2,,,,,,,8,6,8,4,,,,,,,,,,,1650.4848,1650.9855,1651.2351,1654.7187,space,3.4716,,1654.7188,43,2,1655.7183,1655.7184,1655.7392,,,,0,33,33,33,1,90,45,,,,,,,,
,,615471d4201b7147e36709cf,65af551dfa16a017ecb780b6,2024-01-23_07h57.44.758,bars,2023.2.3,Win32,60.60606061,657b66ea316d21385b68909f,,,,,,,,,,,1655.7395,1656.7355,,,1657.2351,1657.4852,,31,31,,,,,,,,,,,,,,,,bars/040.png,bars/mask003.png,,,,,,,,,,,,1,2,,,,,,,10,8,10,7,,,,,,,,,,,1656.7355,1657.235,1657.4852,1659.3519,space,1.8538,,1659.3521,71,26,1660.3525,1660.3525,1660.354,,,,0,34,34,34,1,140,5,,,,,,,,
,,615471d4201b7147e36709cf,65af551dfa16a017ecb780b6,2024-01-23_07h57.44.758,bars,2023.2.3,Win32,60.60606061,657b66ea316d21385b68909f,,,,,,,,,,,1660.3546,1661.352,,,1661.852,1662.1035,,74,254,,,,,,,,,,,,,,,,bars/042.png,bars/mask003.png,,,,,,,,,,,,10,2,,,,,,,8,10,6,10,,,,,,,,,,,1661.3521,1661.8518,1662.1036,1665.7522,space,3.6354,,1665.7522,71,1,1666.7522,1666.7522,1666.7826,,,,0,35,35,35,1,145,75,,,,,,,,
,,615471d4201b7147e36709cf,65af551dfa16a017ecb780b6,2024-01-23_07h57.44.758,bars,2023.2.3,Win32,60.60606061,657b66ea316d21385b68909f,,,,,,,,,,,1666.7831,1667.7856,,,1668.2857,1668.5355,,50,50,,,,,,,,,,,,,,,,bars/036.png,bars/mask009.png,,,,,,,,,,,,0,2,,,,,,,6,8,7,8,,,,,,,,,,,1667.7857,1668.2855,1668.5356,1669.969,space,1.4202,,1669.9691,85,30,1670.9688,1670.969,1670.9715,,,,0,36,36,36,1,145,20,,,,,,,,
,,615471d4201b7147e36709cf,65af551dfa16a017ecb780b6,2024-01-23_07h57.44.758,bars,2023.2.3,Win32,60.60606061,657b66ea316d21385b68909f,,,,,,,,,,,1670.9722,1671.9689,,,1672.4687,1672.7186,,142,142,,,,,,,,,,,,,,,,bars/044.png,bars/mask001.png,,,,,,,,,,,,3,2,,,,,,,4,6,4,6,,,,,,,,,,,1671.9689,1672.4687,1672.7186,1674.8357,space,2.1011,,1674.8358,67,13,1675.8358,1675.8358,1675.8639,,,,0,37,37,37,1,75,155,,,,,,,,
,,615471d4201b7147e36709cf,65af551dfa16a017ecb780b6,2024-01-23_07h57.44.758,bars,2023.2.3,Win32,60.60606061,657b66ea316d21385b68909f,,,,,,,,,,,1675.8642,1676.8527,,,1677.3522,1677.6024,,14,14,,,,,,,,,,,,,,,,bars/014.png,bars/mask002.png,,,,,,,,,,,,2,2,,,,,,,6,4,6,4,,,,,,,,,,,1676.8528,1677.3522,1677.6024,1680.2192,space,2.607,,1680.2192,66,14,1681.219,1681.2191,1681.2486,,,,0,38,38,38,1,80,0,,,,,,,,
,,615471d4201b7147e36709cf,65af551dfa16a017ecb780b6,2024-01-23_07h57.44.758,bars,2023.2.3,Win32,60.60606061,657b66ea316d21385b68909f,,,,,,,,,,,1681.249,1682.2524,,,1682.7525,1683.0024,,162,162,,,,,,,,,,,,,,,,bars/048.png,bars/mask002.png,,,,,,,,,,,,3,2,,,,,,,8,6,7,6,,,,,,,,,,,1682.2525,1682.7524,1683.0025,1684.3189,space,1.3008,,1684.319,68,13,1685.3192,1685.3192,1685.3326,,,,0,39,39,39,1,50,175,,,,,,,,
,,615471d4201b7147e36709cf,65af551dfa16a017ecb780b6,2024-01-23_07h57.44.758,bars,2023.2.3,Win32,60.60606061,657b66ea316d21385b68909f,,,,,,,,,,,1685.3328,1686.3359,,,1686.8361,1687.0859,,73,73,,,,,,,,,,,,,,,,bars/040.png,bars/mask008.png,,,,,,,,,,,,0,1,,,,,,,10,4,9,3,,,,,,,,,,,1686.3362,1686.8361,1687.0859,1688.2528,space,1.1508,,1688.2528,67,68,1689.2528,1689.2529,1689.2841,,,,0,40,40,40,1,140,5,,,,,,,,
,,615471d4201b7147e36709cf,65af551dfa16a017ecb780b6,2024-01-23_07h57.44.758,bars,2023.2.3,Win32,60.60606061,657b66ea316d21385b68909f,,,,,,,,,,,1689.2846,1690.286,,,1690.7859,1691.036,,138,138,,,,,,,,,,,,,,,,bars/027.png,bars/mask006.png,,,,,,,,,,,,1,1,,,,,,,8,2,9,0,,,,,,,,,,,1690.2861,1690.7859,1691.0361,1693.4534,space,2.4013,,1693.4534,28,88,1694.4529,1694.4529,1694.4838,,,,0,41,41,41,1,110,50,,,,,,,,
,,615471d4201b7147e36709cf,65af551dfa16a017ecb780b6,2024-01-23_07h57.44.758,bars,2023.2.3,Win32,60.60606061,657b66ea316d21385b68909f,,,,,,,,,,,1694.4843,1695.4862,,,1695.9863,1696.236,,62,62,,,,,,,,,,,,,,,,bars/025.png,bars/mask009.png,,,,,,,,,,,,0,2,,,,,,,10,0,10,0,,,,,,,,,,,1695.4862,1695.9863,1696.236,1697.9043,space,1.6623,,1697.9045,43,22,1698.9028,1698.9028,1698.9052,,,,0,42,42,42,1,105,40,,,,,,,,
,,615471d4201b7147e36709cf,65af551dfa16a017ecb780b6,2024-01-23_07h57.44.758,bars,2023.2.3,Win32,60.60606061,657b66ea316d21385b68909f,,,,,,,,,,,1698.9058,1699.9029,,,1700.403,1700.6532,,51,51,,,,,,,,,,,,,,,,bars/017.png,bars/mask006.png,,,,,,,,,,,,2,2,,,,,,,8,2,8,2,,,,,,,,,,,1699.9029,1700.4029,1700.6532,1703.2367,space,2.5686,,1703.2367,86,6,1704.2365,1704.2367,1704.2663,,,,0,43,43,43,1,145,45,,,,,,,,
,,615471d4201b7147e36709cf,65af551dfa16a017ecb780b6,2024-01-23_07h57.44.758,bars,2023.2.3,Win32,60.60606061,657b66ea316d21385b68909f,,,,,,,,,,,1704.2667,1705.2699,,,1705.77,1706.0204,,63,63,,,,,,,,,,,,,,,,bars/029.png,bars/mask000.png,,,,,,,,,,,,0,2,,,,,,,10,0,10,1,,,,,,,,,,,1705.2699,1705.77,1706.0204,1710.0365,space,4.0014,,1710.0366,27,18,1711.0368,1711.0368,1711.0711,,,,0,44,44,44,1,90,45,,,,,,,,
,,615471d4201b7147e36709cf,65af551dfa16a017ecb780b6,2024-01-23_07h57.44.758,bars,2023.2.3,Win32,60.60606061,657b66ea316d21385b68909f,,,,,,,,,,,1711.0716,1712.07,,,1712.57,1712.82,,47,47,,,,,,,,,,,,,,,,bars/034.png,bars/mask000.png,,,,,,,,,,,,0,2,,,,,,,8,0,8,0,,,,,,,,,,,1712.07,1712.57,1712.8201,1715.5534,space,2.7156,,1715.5535,78,18,1716.5534,1716.5534,1716.5669,,,,0,45,45,45,1,125,65,,,,,,,,
,,615471d4201b7147e36709cf,65af551dfa16a017ecb780b6,2024-01-23_07h57.44.758,bars,2023.2.3,Win32,60.60606061,657b66ea316d21385b68909f,,,,,,,,,,,1716.5671,1717.5702,,,1718.0702,1718.3203,,19,19,,,,,,,,,,,,,,,,bars/012.png,bars/mask001.png,,,,,,,,,,,,3,2,,,,,,,10,2,10,3,,,,,,,,,,,1717.5703,1718.0702,1718.3203,1720.487,space,2.1493,,1720.487,71,4,1721.4869,1721.4869,1721.5163,,,,0,46,46,46,1,90,15,,,,,,,,
,,615471d4201b7147e36709cf,65af551dfa16a017ecb780b6,2024-01-23_07h57.44.758,bars,2023.2.3,Win32,60.60606061,657b66ea316d21385b68909f,,,,,,,,,,,1721.5167,1722.5203,,,1723.0203,1723.2703,,130,130,,,,,,,,,,,,,,,,bars/049.png,bars/mask006.png,,,,,,,,,,,,0,2,,,,,,,8,0,8,0,,,,,,,,,,,1722.5203,1723.0203,1723.2704,1725.0037,space,1.7212,,1725.0037,30,15,1726.0038,1726.0038,1726.0343,,,,0,47,47,47,1,160,115,,,,,,,,
,,615471d4201b7147e36709cf,65af551dfa16a017ecb780b6,2024-01-23_07h57.44.758,bars,2023.2.3,Win32,60.60606061,657b66ea316d21385b68909f,,,,,,,,,,,1726.0348,1727.0371,,,1727.5374,1727.7872,,25,25,,,,,,,,,,,,,,,,bars/045.png,bars/mask001.png,,,,,,,,,,,,3,2,,,,,,,6,2,5,5,,,,,,,,,,,1727.0371,1727.5374,1727.7872,1730.6205,space,2.825,,1730.6206,75,15,1731.6206,1731.6206,1731.6508,,,,0,48,48,48,1,100,10,,,,,,,,
,,615471d4201b7147e36709cf,65af551dfa16a017ecb780b6,2024-01-23_07h57.44.758,bars,2023.2.3,Win32,60.60606061,657b66ea316d21385b68909f,,,,,,,,,,,1731.6512,1732.654,,,1733.1541,1733.404,,44,44,,,,,,,,,,,,,,,,bars/047.png,bars/mask006.png,,,,,,,,,,,,1,2,,,,,,,8,4,8,4,,,,,,,,,,,1732.654,1733.154,1733.4041,1735.8206,space,2.4018,,1735.8208,29,26,1736.8208,1736.8209,1736.8224,,,,0,49,49,49,1,15,70,,,,,,,,
,,615471d4201b7147e36709cf,65af551dfa16a017ecb780b6,2024-01-23_07h57.44.758,bars,2023.2.3,Win32,60.60606061,657b66ea316d21385b68909f,,,,,,,,,,,,,,,,,,,,,,,,,,,,,,,,,,,,,,,,,,,,,,,,,,,,,,,,,,,,,,,,,,,,,,,,,,,,,,,,,,,,,,,,,,,,,1736.8227,1796.8225,0,3,3,2,1,sequence_tables/blk004.csv
,,615471d4201b7147e36709cf,65af551dfa16a017ecb780b6,2024-01-23_07h57.44.758,bars,2023.2.3,Win32,60.60606061,657b66ea316d21385b68909f,,,,,,,,,,,1804.7493,1805.7399,,,1806.2274,1806.4735,,68,68,,,,,,,,,,,,,,,,bars/034.png,bars/mask002.png,,,,,,,,,,,,3,2,,,,,,,7,2,8,3,,,,,,1796.8429,1804.7226,space,7.8667,,1805.7401,1806.2273,1806.4736,1809.7915,space,3.2974,,1809.7918,57,3,1810.7896,1810.7897,1810.8122,,,,0,0,0,0,1,125,65,,,,,,,,
,,615471d4201b7147e36709cf,65af551dfa16a017ecb780b6,2024-01-23_07h57.44.758,bars,2023.2.3,Win32,60.60606061,657b66ea316d21385b68909f,,,,,,,,,,,1810.8126,1811.8114,,,1812.3077,1812.5561,,161,161,,,,,,,,,,,,,,,,bars/033.png,bars/mask008.png,,,,,,,,,,,,4,2,,,,,,,9,4,8,5,,,,,,,,,,,1811.8115,1812.3075,1812.5562,1813.9104,space,1.3336,,1813.9104,44,6,1814.9105,1814.9107,1814.9121,,,,0,1,1,1,1,25,155,,,,,,,,
,,615471d4201b7147e36709cf,65af551dfa16a017ecb780b6,2024-01-23_07h57.44.758,bars,2023.2.3,Win32,60.60606061,657b66ea316d21385b68909f,,,,,,,,,,,1814.9127,1815.9106,,,1816.4061,1816.6561,,18,18,,,,,,,,,,,,,,,,bars/032.png,bars/mask009.png,,,,,,,,,,,,6,2,,,,,,,7,6,6,6,,,,,,,,,,,1815.9107,1816.406,1816.6561,1820.4904,space,3.8058,,1820.4906,73,2,1821.4904,1821.4905,1821.5257,,,,0,2,2,2,1,125,20,,,,,,,,
,,615471d4201b7147e36709cf,65af551dfa16a017ecb780b6,2024-01-23_07h57.44.758,bars,2023.2.3,Win32,60.60606061,657b66ea316d21385b68909f,,,,,,,,,,,1821.5262,1822.5231,,,1823.0231,1823.2733,,70,70,,,,,,,,,,,,,,,,bars/030.png,bars/mask004.png,,,,,,,,,,,,8,2,,,,,,,5,8,6,9,,,,,,,,,,,1822.5231,1823.023,1823.2734,1825.4065,space,2.12,,1825.4066,70,5,1826.4066,1826.4067,1826.4081,,,,0,3,3,3,1,140,65,,,,,,,,
,,615471d4201b7147e36709cf,65af551dfa16a017ecb780b6,2024-01-23_07h57.44.758,bars,2023.2.3,Win32,60.60606061,657b66ea316d21385b68909f,,,,,,,,,,,1826.4087,1827.4066,,,1827.9067,1828.1567,,25,25,,,,,,,,,,,,,,,,bars/012.png,bars/mask003.png,,,,,,,,,,,,4,2,,,,,,,3,6,2,6,,,,,,,,,,,1827.4066,1827.9067,1828.1569,1832.5572,space,4.392,,1832.5573,65,10,1833.557,1833.5571,1833.5905,,,,0,4,4,4,1,90,15,,,,,,,,
,,615471d4201b7147e36709cf,65af551dfa16a017ecb780b6,2024-01-23_07h57.44.758,bars,2023.2.3,Win32,60.60606061,657b66ea316d21385b68909f,,,,,,,,,,,1833.591,1834.5907,,,1835.0903,1835.3402,,154,-26,,,,,,,,,,,,,,,,bars/015.png,bars/mask007.png,,,,,,,,,,,,4,2,,,,,,,5,4,4,5,,,,,,,,,,,1834.5907,1835.0902,1835.3404,1838.0401,space,2.6925,,1838.0402,44,6,1839.0403,1839.0403,1839.0545,,,,0,5,5,5,1,110,160,,,,,,,,
,,615471d4201b7147e36709cf,65af551dfa16a017ecb780b6,2024-01-23_07h57.44.758,bars,2023.2.3,Win32,60.60606061,657b66ea316d21385b68909f,,,,,,,,,,,1839.0547,1840.0566,,,1840.5573,1840.8071,,27,207,,,,,,,,,,,,,,,,bars/012.png,bars/mask003.png,,,,,,,,,,,,2,2,,,,,,,3,2,3,3,,,,,,,,,,,1840.0566,1840.5573,1840.8072,1843.3238,space,2.5013,,1843.3239,63,12,1844.324,1844.324,1844.3534,,,,0,6,6,6,1,90,15,,,,,,,,
,,615471d4201b7147e36709cf,65af551dfa16a017ecb780b6,2024-01-23_07h57.44.758,bars,2023.2.3,Win32,60.60606061,657b66ea316d21385b68909f,,,,,,,,,,,1844.3539,1845.3572,,,1845.8573,1846.1073,,37,217,,,,,,,,,,,,,,,,bars/014.png,bars/mask006.png,,,,,,,,,,,,0,2,,,,,,,1,4,2,3,,,,,,,,,,,1845.3572,1845.8573,1846.1073,1850.1907,space,4.0732,,1850.1908,43,37,1851.1903,1851.1903,1851.204,,,,0,7,7,7,1,80,0,,,,,,,,
,,615471d4201b7147e36709cf,65af551dfa16a017ecb780b6,2024-01-23_07h57.44.758,bars,2023.2.3,Win32,60.60606061,657b66ea316d21385b68909f,,,,,,,,,,,1851.2042,1852.2073,,,1852.7078,1852.9574,,36,36,,,,,,,,,,,,,,,,bars/035.png,bars/mask000.png,,,,,,,,,,,,1,2,,,,,,,0,2,0,3,,,,,,,,,,,1852.2075,1852.7078,1852.9575,1856.8907,space,3.9148,,1856.8908,41,24,1857.8909,1857.891,1857.9208,,,,0,8,8,8,1,175,60,,,,,,,,
,,615471d4201b7147e36709cf,65af551dfa16a017ecb780b6,2024-01-23_07h57.44.758,bars,2023.2.3,Win32,60.60606061,657b66ea316d21385b68909f,,,,,,,,,,,1857.9213,1858.9243,,,1859.4244,1859.6743,,76,76,,,,,,,,,,,,,,,,bars/021.png,bars/mask000.png,,,,,,,,,,,,4,2,,,,,,,0,4,0,5,,,,,,,,,,,1858.9244,1859.4243,1859.6744,1863.1576,space,3.4667,,1863.1577,79,6,1864.1577,1864.1578,1864.1872,,,,0,9,9,9,1,155,70,,,,,,,,
,,615471d4201b7147e36709cf,65af551dfa16a017ecb780b6,2024-01-23_07h57.44.758,bars,2023.2.3,Win32,60.60606061,657b66ea316d21385b68909f,,,,,,,,,,,1864.1876,1865.191,,,1865.6912,1865.9411,,72,72,,,,,,,,,,,,,,,,bars/001.png,bars/mask001.png,,,,,,,,,,,,3,2,,,,,,,0,6,0,6,,,,,,,,,,,1865.191,1865.6911,1865.9412,1868.1913,space,2.2342,,1868.1913,58,13,1869.1912,1869.1913,1869.2136,,,,0,10,10,10,1,130,85,,,,,,,,
,,615471d4201b7147e36709cf,65af551dfa16a017ecb780b6,2024-01-23_07h57.44.758,bars,2023.2.3,Win32,60.60606061,657b66ea316d21385b68909f,,,,,,,,,,,1869.2139,1870.2078,,,1870.7081,1870.9581,,124,124,,,,,,,,,,,,,,,,bars/018.png,bars/mask006.png,,,,,,,,,,,,0,1,,,,,,,2,8,2,8,,,,,,,,,,,1870.2078,1870.708,1870.9582,1873.625,space,2.6497,,1873.6252,26,34,1874.6248,1874.6249,1874.6618,,,,0,11,11,11,1,150,90,,,,,,,,
,,615471d4201b7147e36709cf,65af551dfa16a017ecb780b6,2024-01-23_07h57.44.758,bars,2023.2.3,Win32,60.60606061,657b66ea316d21385b68909f,,,,,,,,,,,1874.6624,1875.6581,,,1876.1583,1876.4083,,157,157,,,,,,,,,,,,,,,,bars/033.png,bars/mask003.png,,,,,,,,,,,,6,2,,,,,,,4,6,5,6,,,,,,,,,,,1875.6582,1876.1582,1876.4083,1878.2248,space,1.8093,,1878.2248,48,2,1879.2251,1879.2254,1879.2566,,,,0,12,12,12,1,25,155,,,,,,,,
