init_variables.started,init_variables.stopped,participant,session,date,expName,psychopyVersion,OS,frameRate,study_id,instruction_exp.started,instruction_exp.stopped,key_resp_8.keys,key_resp_8.rt,key_resp_8.duration,instruction_single.started,instruction_single.stopped,key_resp_2.keys,key_resp_2.rt,key_resp_2.duration,interval.started,interval.stopped,cue_single.started,cue_single.stopped,mask.started,mask.stopped,ori_response_single.started,res_ori,res,ori_response_single.stopped,key_resp_single.keys,key_resp_single.rt,key_resp_single.duration,disp_single.started,disp_single.stopped,key_resp.keys,key_resp.rt,key_resp.duration,single.thisRepN,single.thisTrialN,single.thisN,single.thisIndex,single.ran,ori,path,mask_path,instruction_bandit.started,instruction_bandit.stopped,key_resp_6.keys,key_resp_6.rt,key_resp_6.duration,cue_bandit.started,cue_bandit.stopped,bandit_res.keys,bandit_res.rt,bandit_res.duration,outcome_bandit.started,rew,action,outcome_bandit.stopped,bandit.thisRepN,bandit.thisTrialN,bandit.thisN,bandit.thisIndex,bandit.ran,actual_rew1,actual_rew2,rew1,rew2,instruction_task.started,instruction_task.stopped,key_resp_7.keys,key_resp_7.rt,key_resp_7.duration,wait_ready.started,wait_ready.stopped,key_resp_3.keys,key_resp_3.rt,key_resp_3.duration,cue.started,cue.stopped,ori_response.started,ori_response.stopped,key_resp_5.keys,key_resp_5.rt,key_resp_5.duration,outcome.started,diff1,diff2,outcome.stopped,disp_outcome_practice.started,disp_outcome_practice.stopped,key_resp_4.keys,key_resp_4.rt,key_resp_4.duration,trials.thisRepN,trials.thisTrialN,trials.thisN,trials.thisIndex,trials.ran,ori1,ori2,break_blk.started,break_blk.stopped,block.thisRepN,block.thisTrialN,block.thisN,block.thisIndex,block.ran,condition_file
0.001,0.0013,5f72251e27b82f11aacdd6c1,65af532f30852ac05a101d81,2024-01-22_23h50.19.209,bars,2023.2.3,Win32,59.88023952,657b66ea316d21385b68909f,,,,,,,,,,,,,,,,,,,,,,,,,,,,,,,,,,,,,,,,,,,,,,,,,,,,,,,,,,,,,,,,,,,,,,,,,,,,,,,,,,,,,,,,,,,,,,,,,,,,
,,5f72251e27b82f11aacdd6c1,65af532f30852ac05a101d81,2024-01-22_23h50.19.209,bars,2023.2.3,Win32,59.88023952,657b66ea316d21385b68909f,0.0018,12.645,y,12.6226,,,,,,,,,,,,,,,,,,,,,,,,,,,,,,,,,,,,,,,,,,,,,,,,,,,,,,,,,,,,,,,,,,,,,,,,,,,,,,,,,,,,,,,,,,,,,,,,
,,5f72251e27b82f11aacdd6c1,65af532f30852ac05a101d81,2024-01-22_23h50.19.209,bars,2023.2.3,Win32,59.88023952,657b66ea316d21385b68909f,,,,,,12.6452,41.6983,space,29.031,,,,,,,,,,,,,,,,,,,,,,,,,,,,,,,,,,,,,,,,,,,,,,,,,,,,,,,,,,,,,,,,,,,,,,,,,,,,,,,,,,,,,,,,,,,
,,5f72251e27b82f11aacdd6c1,65af532f30852ac05a101d81,2024-01-22_23h50.19.209,bars,2023.2.3,Win32,59.88023952,657b66ea316d21385b68909f,,,,,,,,,,,41.7432,42.6989,42.6991,43.1976,43.1982,43.4575,43.4579,0,0,57.6029,space,14.1042,,57.6031,161.3197,space,103.6739,,0,0,0,1,1,20,bars/single001.png,bars/mask006.png,,,,,,,,,,,,,,,,,,,,,,,,,,,,,,,,,,,,,,,,,,,,,,,,,,,,,,,,,,,,,,,,
,,5f72251e27b82f11aacdd6c1,65af532f30852ac05a101d81,2024-01-22_23h50.19.209,bars,2023.2.3,Win32,59.88023952,657b66ea316d21385b68909f,,,,,,,,,,,161.3359,162.3318,162.332,162.8201,162.8202,163.0802,163.0803,0,0,179.2732,space,16.1749,,179.2733,192.694,space,13.3899,,0,1,1,8,1,160,bars/single008.png,bars/mask004.png,,,,,,,,,,,,,,,,,,,,,,,,,,,,,,,,,,,,,,,,,,,,,,,,,,,,,,,,,,,,,,,,
,,5f72251e27b82f11aacdd6c1,65af532f30852ac05a101d81,2024-01-22_23h50.19.209,bars,2023.2.3,Win32,59.88023952,657b66ea316d21385b68909f,,,,,,,,,,,192.7125,193.7061,193.7062,194.2063,194.2064,194.446,194.446,0,0,199.9124,space,5.4557,,199.9124,207.459,space,7.513,,0,2,2,3,1,20,bars/single003.png,bars/mask005.png,,,,,,,,,,,,,,,,,,,,,,,,,,,,,,,,,,,,,,,,,,,,,,,,,,,,,,,,,,,,,,,,
,,5f72251e27b82f11aacdd6c1,65af532f30852ac05a101d81,2024-01-22_23h50.19.209,bars,2023.2.3,Win32,59.88023952,657b66ea316d21385b68909f,,,,,,,,,,,207.4743,208.4642,208.4642,208.954,208.9541,209.1978,209.1978,0,0,222.5859,space,13.3687,,222.5862,234.4852,space,11.8695,,0,3,3,7,1,45,bars/single007.png,bars/mask009.png,,,,,,,,,,,,,,,,,,,,,,,,,,,,,,,,,,,,,,,,,,,,,,,,,,,,,,,,,,,,,,,,
,,5f72251e27b82f11aacdd6c1,65af532f30852ac05a101d81,2024-01-22_23h50.19.209,bars,2023.2.3,Win32,59.88023952,657b66ea316d21385b68909f,,,,,,,,,,,234.5007,235.4957,235.4957,235.9954,235.9954,236.2425,236.2425,36,36,240.6471,space,4.3863,,240.6471,253.7011,space,13.0245,,0,4,4,2,1,145,bars/single002.png,bars/mask003.png,,,,,,,,,,,,,,,,,,,,,,,,,,,,,,,,,,,,,,,,,,,,,,,,,,,,,,,,,,,,,,,,
,,5f72251e27b82f11aacdd6c1,65af532f30852ac05a101d81,2024-01-22_23h50.19.209,bars,2023.2.3,Win32,59.88023952,657b66ea316d21385b68909f,,,,,,,,,,,253.7164,254.7118,254.7119,255.2111,255.2112,255.4616,255.4616,37,37,259.3787,space,3.8959,,259.3789,264.5922,space,5.1848,,0,5,5,5,1,55,bars/single005.png,bars/mask008.png,,,,,,,,,,,,,,,,,,,,,,,,,,,,,,,,,,,,,,,,,,,,,,,,,,,,,,,,,,,,,,,,
,,5f72251e27b82f11aacdd6c1,65af532f30852ac05a101d81,2024-01-22_23h50.19.209,bars,2023.2.3,Win32,59.88023952,657b66ea316d21385b68909f,,,,,,,,,,,264.6061,265.5955,265.5956,266.0939,266.094,266.329,266.3291,57,57,271.7505,space,5.4039,,271.7506,277.0616,space,5.2826,,0,6,6,6,1,175,bars/single006.png,bars/mask005.png,,,,,,,,,,,,,,,,,,,,,,,,,,,,,,,,,,,,,,,,,,,,,,,,,,,,,,,,,,,,,,,,
,,5f72251e27b82f11aacdd6c1,65af532f30852ac05a101d81,2024-01-22_23h50.19.209,bars,2023.2.3,Win32,59.88023952,657b66ea316d21385b68909f,,,,,,,,,,,277.0759,278.0748,278.0748,278.569,278.5691,278.809,278.809,42,42,282.6361,space,3.8099,,282.6362,287.3156,space,4.6503,,0,7,7,0,1,150,bars/single000.png,bars/mask006.png,,,,,,,,,,,,,,,,,,,,,,,,,,,,,,,,,,,,,,,,,,,,,,,,,,,,,,,,,,,,,,,,
,,5f72251e27b82f11aacdd6c1,65af532f30852ac05a101d81,2024-01-22_23h50.19.209,bars,2023.2.3,Win32,59.88023952,657b66ea316d21385b68909f,,,,,,,,,,,287.3304,288.3169,288.3169,288.8071,288.8072,289.0585,289.0585,48,48,294.1769,space,5.0971,,294.1769,300.0437,space,5.8377,,0,8,8,9,1,20,bars/single009.png,bars/mask006.png,,,,,,,,,,,,,,,,,,,,,,,,,,,,,,,,,,,,,,,,,,,,,,,,,,,,,,,,,,,,,,,,
,,5f72251e27b82f11aacdd6c1,65af532f30852ac05a101d81,2024-01-22_23h50.19.209,bars,2023.2.3,Win32,59.88023952,657b66ea316d21385b68909f,,,,,,,,,,,300.0582,301.0508,301.0509,301.5469,301.547,301.7923,301.7924,49,229,307.3562,space,5.5428,,307.3564,311.1834,space,3.7998,,0,9,9,4,1,95,bars/single004.png,bars/mask004.png,,,,,,,,,,,,,,,,,,,,,,,,,,,,,,,,,,,,,,,,,,,,,,,,,,,,,,,,,,,,,,,,
,,5f72251e27b82f11aacdd6c1,65af532f30852ac05a101d81,2024-01-22_23h50.19.209,bars,2023.2.3,Win32,59.88023952,657b66ea316d21385b68909f,,,,,,,,,,,,,,,,,,,,,,,,,,,,,,,,,,,,,311.1983,427.9739,space,116.7554,,,,,,,,,,,,,,,,,,,,,,,,,,,,,,,,,,,,,,,,,,,,,,,,,,,,,,,,,,,,
,,5f72251e27b82f11aacdd6c1,65af532f30852ac05a101d81,2024-01-22_23h50.19.209,bars,2023.2.3,Win32,59.88023952,657b66ea316d21385b68909f,,,,,,,,,,,,,,,,,,,,,,,,,,,,,,,,,,,,,,,,,,427.9932,463.606,right,35.5889,,463.6062,2,2,464.5866,0,0,0,0,1,9,1,9,2,,,,,,,,,,,,,,,,,,,,,,,,,,,,,,,,,,,,,,,,,
,,5f72251e27b82f11aacdd6c1,65af532f30852ac05a101d81,2024-01-22_23h50.19.209,bars,2023.2.3,Win32,59.88023952,657b66ea316d21385b68909f,,,,,,,,,,,,,,,,,,,,,,,,,,,,,,,,,,,,,,,,,,464.5879,489.1588,right,24.5513,,489.1589,1,2,490.1478,0,1,1,1,1,10,0,10,1,,,,,,,,,,,,,,,,,,,,,,,,,,,,,,,,,,,,,,,,,
,,5f72251e27b82f11aacdd6c1,65af532f30852ac05a101d81,2024-01-22_23h50.19.209,bars,2023.2.3,Win32,59.88023952,657b66ea316d21385b68909f,,,,,,,,,,,,,,,,,,,,,,,,,,,,,,,,,,,,,,,,,,490.1488,494.1342,left,3.9652,,494.1342,10,1,495.1376,0,2,2,2,1,10,2,10,2,,,,,,,,,,,,,,,,,,,,,,,,,,,,,,,,,,,,,,,,,
,,5f72251e27b82f11aacdd6c1,65af532f30852ac05a101d81,2024-01-22_23h50.19.209,bars,2023.2.3,Win32,59.88023952,657b66ea316d21385b68909f,,,,,,,,,,,,,,,,,,,,,,,,,,,,,,,,,,,,,,,,,,495.1518,496.9194,left,1.7568,,496.9196,7,1,497.9016,0,3,3,3,1,8,4,7,3,,,,,,,,,,,,,,,,,,,,,,,,,,,,,,,,,,,,,,,,,
,,5f72251e27b82f11aacdd6c1,65af532f30852ac05a101d81,2024-01-22_23h50.19.209,bars,2023.2.3,Win32,59.88023952,657b66ea316d21385b68909f,,,,,,,,,,,,,,,,,,,,,,,,,,,,,,,,,,,,,,,,,,497.9158,500.1743,left,2.2475,,500.1746,5,1,501.1638,0,4,4,4,1,6,2,5,1,,,,,,,,,,,,,,,,,,,,,,,,,,,,,,,,,,,,,,,,,
,,5f72251e27b82f11aacdd6c1,65af532f30852ac05a101d81,2024-01-22_23h50.19.209,bars,2023.2.3,Win32,59.88023952,657b66ea316d21385b68909f,,,,,,,,,,,,,,,,,,,,,,,,,,,,,,,,,,,,,,,,,,501.165,503.2097,right,2.0248,,503.2098,4,2,504.211,0,5,5,5,1,4,4,4,4,,,,,,,,,,,,,,,,,,,,,,,,,,,,,,,,,,,,,,,,,
,,5f72251e27b82f11aacdd6c1,65af532f30852ac05a101d81,2024-01-22_23h50.19.209,bars,2023.2.3,Win32,59.88023952,657b66ea316d21385b68909f,,,,,,,,,,,,,,,,,,,,,,,,,,,,,,,,,,,,,,,,,,504.2253,504.6141,left,0.3777,,504.6142,1,1,505.6182,0,6,6,6,1,2,2,1,2,,,,,,,,,,,,,,,,,,,,,,,,,,,,,,,,,,,,,,,,,
,,5f72251e27b82f11aacdd6c1,65af532f30852ac05a101d81,2024-01-22_23h50.19.209,bars,2023.2.3,Win32,59.88023952,657b66ea316d21385b68909f,,,,,,,,,,,,,,,,,,,,,,,,,,,,,,,,,,,,,,,,,,505.6192,507.9258,right,2.2868,,507.9259,1,2,508.9342,0,7,7,7,1,0,0,0,1,,,,,,,,,,,,,,,,,,,,,,,,,,,,,,,,,,,,,,,,,
,,5f72251e27b82f11aacdd6c1,65af532f30852ac05a101d81,2024-01-22_23h50.19.209,bars,2023.2.3,Win32,59.88023952,657b66ea316d21385b68909f,,,,,,,,,,,,,,,,,,,,,,,,,,,,,,,,,,,,,,,,,,508.9354,510.4289,left,1.4735,,510.429,1,1,511.4217,0,8,8,8,1,0,2,1,0,,,,,,,,,,,,,,,,,,,,,,,,,,,,,,,,,,,,,,,,,
,,5f72251e27b82f11aacdd6c1,65af532f30852ac05a101d81,2024-01-22_23h50.19.209,bars,2023.2.3,Win32,59.88023952,657b66ea316d21385b68909f,,,,,,,,,,,,,,,,,,,,,,,,,,,,,,,,,,,,,,,,,,511.4227,511.8707,left,0.425,,511.8709,2,1,512.8629,0,9,9,9,1,2,4,2,3,,,,,,,,,,,,,,,,,,,,,,,,,,,,,,,,,,,,,,,,,
,,5f72251e27b82f11aacdd6c1,65af532f30852ac05a101d81,2024-01-22_23h50.19.209,bars,2023.2.3,Win32,59.88023952,657b66ea316d21385b68909f,,,,,,,,,,,,,,,,,,,,,,,,,,,,,,,,,,,,,,,,,,512.8639,513.2105,left,0.3257,,513.2107,0,1,514.2127,0,10,10,10,1,0,2,0,3,,,,,,,,,,,,,,,,,,,,,,,,,,,,,,,,,,,,,,,,,
,,5f72251e27b82f11aacdd6c1,65af532f30852ac05a101d81,2024-01-22_23h50.19.209,bars,2023.2.3,Win32,59.88023952,657b66ea316d21385b68909f,,,,,,,,,,,,,,,,,,,,,,,,,,,,,,,,,,,,,,,,,,514.2138,514.6639,right,0.4298,,514.664,3,2,515.6551,0,11,11,11,1,0,4,0,3,,,,,,,,,,,,,,,,,,,,,,,,,,,,,,,,,,,,,,,,,
,,5f72251e27b82f11aacdd6c1,65af532f30852ac05a101d81,2024-01-22_23h50.19.209,bars,2023.2.3,Win32,59.88023952,657b66ea316d21385b68909f,,,,,,,,,,,,,,,,,,,,,,,,,,,,,,,,,,,,,,,,,,515.6561,516.047,right,0.3676,,516.0471,6,2,517.0405,0,12,12,12,1,2,6,1,6,,,,,,,,,,,,,,,,,,,,,,,,,,,,,,,,,,,,,,,,,
,,5f72251e27b82f11aacdd6c1,65af532f30852ac05a101d81,2024-01-22_23h50.19.209,bars,2023.2.3,Win32,59.88023952,657b66ea316d21385b68909f,,,,,,,,,,,,,,,,,,,,,,,,,,,,,,,,,,,,,,,,,,517.0415,517.4136,right,0.3549,,517.4136,3,2,518.4125,0,13,13,13,1,0,4,1,3,,,,,,,,,,,,,,,,,,,,,,,,,,,,,,,,,,,,,,,,,
,,5f72251e27b82f11aacdd6c1,65af532f30852ac05a101d81,2024-01-22_23h50.19.209,bars,2023.2.3,Win32,59.88023952,657b66ea316d21385b68909f,,,,,,,,,,,,,,,,,,,,,,,,,,,,,,,,,,,,,,,,,,518.4136,518.9968,right,0.5631,,518.9969,7,2,519.9973,0,14,14,14,1,2,6,2,7,,,,,,,,,,,,,,,,,,,,,,,,,,,,,,,,,,,,,,,,,
,,5f72251e27b82f11aacdd6c1,65af532f30852ac05a101d81,2024-01-22_23h50.19.209,bars,2023.2.3,Win32,59.88023952,657b66ea316d21385b68909f,,,,,,,,,,,,,,,,,,,,,,,,,,,,,,,,,,,,,,,,,,519.9984,520.7636,left,0.7495,,520.7637,3,1,521.7551,0,15,15,15,1,4,8,3,9,,,,,,,,,,,,,,,,,,,,,,,,,,,,,,,,,,,,,,,,,
,,5f72251e27b82f11aacdd6c1,65af532f30852ac05a101d81,2024-01-22_23h50.19.209,bars,2023.2.3,Win32,59.88023952,657b66ea316d21385b68909f,,,,,,,,,,,,,,,,,,,,,,,,,,,,,,,,,,,,,,,,,,521.7565,522.3514,right,0.5722,,522.3515,7,2,523.3625,0,16,16,16,1,6,6,7,7,,,,,,,,,,,,,,,,,,,,,,,,,,,,,,,,,,,,,,,,,
,,5f72251e27b82f11aacdd6c1,65af532f30852ac05a101d81,2024-01-22_23h50.19.209,bars,2023.2.3,Win32,59.88023952,657b66ea316d21385b68909f,,,,,,,,,,,,,,,,,,,,,,,,,,,,,,,,,,,,,,,,,,523.3637,523.6315,left,0.2478,,523.6315,9,1,524.6285,0,17,17,17,1,8,4,9,5,,,,,,,,,,,,,,,,,,,,,,,,,,,,,,,,,,,,,,,,,
,,5f72251e27b82f11aacdd6c1,65af532f30852ac05a101d81,2024-01-22_23h50.19.209,bars,2023.2.3,Win32,59.88023952,657b66ea316d21385b68909f,,,,,,,,,,,,,,,,,,,,,,,,,,,,,,,,,,,,,,,,,,524.6296,525.0442,right,0.3946,,525.0443,1,2,526.0445,0,18,18,18,1,6,2,5,1,,,,,,,,,,,,,,,,,,,,,,,,,,,,,,,,,,,,,,,,,
,,5f72251e27b82f11aacdd6c1,65af532f30852ac05a101d81,2024-01-22_23h50.19.209,bars,2023.2.3,Win32,59.88023952,657b66ea316d21385b68909f,,,,,,,,,,,,,,,,,,,,,,,,,,,,,,,,,,,,,,,,,,526.0456,526.341,left,0.2765,,526.3411,7,1,527.3333,0,19,19,19,1,8,0,7,0,,,,,,,,,,,,,,,,,,,,,,,,,,,,,,,,,,,,,,,,,
,,5f72251e27b82f11aacdd6c1,65af532f30852ac05a101d81,2024-01-22_23h50.19.209,bars,2023.2.3,Win32,59.88023952,657b66ea316d21385b68909f,,,,,,,,,,,,,,,,,,,,,,,,,,,,,,,,,,,,,,,,,,,,,,,,,,,,,,,,,,,,527.3344,555.961,space,28.6038,,,,,,,,,,,,,,,,,,,,,,,,,,,,,,,,,,,,,
,,5f72251e27b82f11aacdd6c1,65af532f30852ac05a101d81,2024-01-22_23h50.19.209,bars,2023.2.3,Win32,59.88023952,657b66ea316d21385b68909f,,,,,,,,,,,557.841,558.8439,,,559.3326,559.577,,100,100,,,,,,,,,,,,,,,,bars/028.png,bars/mask008.png,,,,,,,,,,,,1,2,,,,,,,9,4,9,4,,,,,,555.9797,557.8334,space,1.838,,558.8442,559.3325,559.5774,573.6458,space,14.0456,,573.6461,55,20,574.6352,574.6354,595.9453,space,21.2827,,0,0,0,0,1,45,120,,,,,,,,
,,5f72251e27b82f11aacdd6c1,65af532f30852ac05a101d81,2024-01-22_23h50.19.209,bars,2023.2.3,Win32,59.88023952,657b66ea316d21385b68909f,,,,,,,,,,,595.962,596.9463,,,597.442,597.6914,,54,54,,,,,,,,,,,,,,,,bars/034.png,bars/mask000.png,,,,,,,,,,,,0,2,,,,,,,7,2,7,0,,,,,,,,,,,596.9464,597.4418,597.6915,606.3815,space,8.6684,,606.3817,71,11,607.3747,607.3748,618.3417,space,10.9372,,0,1,1,1,1,125,65,,,,,,,,
,,5f72251e27b82f11aacdd6c1,65af532f30852ac05a101d81,2024-01-22_23h50.19.209,bars,2023.2.3,Win32,59.88023952,657b66ea316d21385b68909f,,,,,,,,,,,618.357,619.361,,,619.857,620.0878,,51,231,,,,,,,,,,,,,,,,bars/012.png,bars/mask005.png,,,,,,,,,,,,0,2,,,,,,,9,0,8,1,,,,,,,,,,,619.361,619.8569,620.0879,625.9333,space,5.8284,,625.9335,39,36,626.9393,626.9394,635.1436,space,8.1734,,0,2,2,2,1,90,15,,,,,,,,
,,5f72251e27b82f11aacdd6c1,65af532f30852ac05a101d81,2024-01-22_23h50.19.209,bars,2023.2.3,Win32,59.88023952,657b66ea316d21385b68909f,,,,,,,,,,,635.1591,636.1421,,,636.6323,636.8771,,33,33,,,,,,,,,,,,,,,,bars/018.png,bars/mask003.png,,,,,,,,,,,,0,2,,,,,,,7,2,8,2,,,,,,,,,,,636.1422,636.6322,636.8773,642.0559,space,5.1577,,642.0559,63,57,643.0569,643.057,648.7663,space,5.6799,,0,3,3,3,1,150,90,,,,,,,,
,,5f72251e27b82f11aacdd6c1,65af532f30852ac05a101d81,2024-01-22_23h50.19.209,bars,2023.2.3,Win32,59.88023952,657b66ea316d21385b68909f,,,,,,,,,,,648.7814,649.7592,,,650.2476,650.4926,,90,90,,,,,,,,,,,,,,,,bars/003.png,bars/mask005.png,,,,,,,,,,,,0,2,,,,,,,9,4,9,4,,,,,,,,,,,649.7593,650.2476,650.4927,655.7326,space,5.2184,,655.7326,65,50,656.7211,656.7212,660.0931,space,3.3417,,0,4,4,4,1,25,140,,,,,,,,
,,5f72251e27b82f11aacdd6c1,65af532f30852ac05a101d81,2024-01-22_23h50.19.209,bars,2023.2.3,Win32,59.88023952,657b66ea316d21385b68909f,,,,,,,,,,,660.1074,661.0894,,,661.5802,661.8379,,138,138,,,,,,,,,,,,,,,,bars/037.png,bars/mask007.png,,,,,,,,,,,,6,1,,,,,,,10,6,10,6,,,,,,,,,,,661.0896,661.5801,661.838,664.4864,space,2.6269,,664.4865,12,33,665.4795,665.4797,671.0527,space,5.5386,,0,5,5,5,1,150,105,,,,,,,,
,,5f72251e27b82f11aacdd6c1,65af532f30852ac05a101d81,2024-01-22_23h50.19.209,bars,2023.2.3,Win32,59.88023952,657b66ea316d21385b68909f,,,,,,,,,,,671.0666,672.0538,,,672.5464,672.7752,,139,139,,,,,,,,,,,,,,,,bars/022.png,bars/mask005.png,,,,,,,,,,,,0,1,,,,,,,8,4,9,6,,,,,,,,,,,672.0538,672.5463,672.7753,676.9089,space,4.1125,,676.909,44,61,677.903,677.9031,681.2498,space,3.3169,,0,6,6,6,1,95,20,,,,,,,,
,,5f72251e27b82f11aacdd6c1,65af532f30852ac05a101d81,2024-01-22_23h50.19.209,bars,2023.2.3,Win32,59.88023952,657b66ea316d21385b68909f,,,,,,,,,,,681.2504,682.2257,,,682.737,682.9865,,107,107,,,,,,,,,,,,,,,,bars/020.png,bars/mask002.png,,,,,,,,,,,,7,1,,,,,,,10,2,10,2,,,,,,,,,,,682.2259,682.7365,682.9866,687.4253,space,4.4174,,687.4254,8,63,688.436,688.4361,692.8921,space,4.4265,,0,7,7,7,1,115,170,,,,,,,,
,,5f72251e27b82f11aacdd6c1,65af532f30852ac05a101d81,2024-01-22_23h50.19.209,bars,2023.2.3,Win32,59.88023952,657b66ea316d21385b68909f,,,,,,,,,,,692.907,693.8902,,,694.3906,694.6362,,124,124,,,,,,,,,,,,,,,,bars/043.png,bars/mask006.png,,,,,,,,,,,,3,2,,,,,,,10,4,10,4,,,,,,,,,,,693.8902,694.3906,694.6363,698.1033,space,3.4463,,698.1036,86,6,699.1001,699.1001,701.9471,space,2.8127,,0,8,8,8,1,30,130,,,,,,,,
,,5f72251e27b82f11aacdd6c1,65af532f30852ac05a101d81,2024-01-22_23h50.19.209,bars,2023.2.3,Win32,59.88023952,657b66ea316d21385b68909f,,,,,,,,,,,701.9619,702.952,,,703.452,703.7064,,128,128,,,,,,,,,,,,,,,,bars/039.png,bars/mask001.png,,,,,,,,,,,,1,2,,,,,,,8,6,6,5,,,,,,,,,,,702.952,703.4519,703.7065,708.4194,space,4.6917,,708.4195,47,23,709.4217,709.4218,711.9531,space,2.5029,,0,9,9,9,1,175,105,,,,,,,,
,,5f72251e27b82f11aacdd6c1,65af532f30852ac05a101d81,2024-01-22_23h50.19.209,bars,2023.2.3,Win32,59.88023952,657b66ea316d21385b68909f,,,,,,,,,,,711.9691,712.9716,,,713.4561,713.6993,,118,118,,,,,,,,,,,,,,,,bars/022.png,bars/mask004.png,,,,,,,,,,,,1,1,,,,,,,6,4,6,5,,,,,,,,,,,712.9717,713.456,713.6994,718.4259,space,4.7053,,718.4263,23,82,719.4344,719.4345,722.5239,space,3.0539,,0,10,10,10,1,95,20,,,,,,,,
,,5f72251e27b82f11aacdd6c1,65af532f30852ac05a101d81,2024-01-22_23h50.19.209,bars,2023.2.3,Win32,59.88023952,657b66ea316d21385b68909f,,,,,,,,,,,722.5394,723.5381,,,724.0178,724.2717,,104,104,,,,,,,,,,,,,,,,bars/007.png,bars/mask006.png,,,,,,,,,,,,0,2,,,,,,,4,2,3,2,,,,,,,,,,,723.5381,724.0178,724.2718,727.6235,space,3.3303,,727.6236,71,49,728.62,728.62,731.2704,space,2.62,,0,11,11,11,1,175,55,,,,,,,,
,,5f72251e27b82f11aacdd6c1,65af532f30852ac05a101d81,2024-01-22_23h50.19.209,bars,2023.2.3,Win32,59.88023952,657b66ea316d21385b68909f,,,,,,,,,,,731.2715,732.2713,,,732.755,733.0021,,65,65,,,,,,,,,,,,,,,,bars/043.png,bars/mask005.png,,,,,,,,,,,,0,1,,,,,,,2,0,3,2,,,,,,,,,,,732.2714,732.7549,733.0022,737.277,space,4.2572,,737.2771,35,65,738.2667,738.2667,740.275,space,1.9712,,0,12,12,12,1,30,130,,,,,,,,
,,5f72251e27b82f11aacdd6c1,65af532f30852ac05a101d81,2024-01-22_23h50.19.209,bars,2023.2.3,Win32,59.88023952,657b66ea316d21385b68909f,,,,,,,,,,,740.2755,741.2832,,,741.7759,742.0038,,42,42,,,,,,,,,,,,,,,,bars/039.png,bars/mask007.png,,,,,,,,,,,,0,1,,,,,,,4,0,4,0,,,,,,,,,,,741.2833,741.7758,742.0039,743.1356,space,1.1145,,743.1357,47,63,744.1335,744.1335,745.5006,space,1.3509,,0,13,13,13,1,175,105,,,,,,,,
,,5f72251e27b82f11aacdd6c1,65af532f30852ac05a101d81,2024-01-22_23h50.19.209,bars,2023.2.3,Win32,59.88023952,657b66ea316d21385b68909f,,,,,,,,,,,745.5017,746.5042,,,746.9873,747.2328,,150,150,,,,,,,,,,,,,,,,bars/004.png,bars/mask009.png,,,,,,,,,,,,0,2,,,,,,,6,2,5,2,,,,,,,,,,,746.5043,746.9873,747.2328,750.3674,space,3.1134,,750.3675,55,25,751.3656,751.3657,754.7011,space,3.3003,,0,14,14,14,1,25,125,,,,,,,,
,,5f72251e27b82f11aacdd6c1,65af532f30852ac05a101d81,2024-01-22_23h50.19.209,bars,2023.2.3,Win32,59.88023952,657b66ea316d21385b68909f,,,,,,,,,,,754.7162,755.7032,,,756.2036,756.4536,,132,132,,,,,,,,,,,,,,,,bars/049.png,bars/mask004.png,,,,,,,,,,,,3,2,,,,,,,8,4,10,6,,,,,,,,,,,755.7032,756.2035,756.4537,760.2749,space,3.8003,,760.275,28,17,761.2796,761.2796,763.1541,space,1.8448,,0,15,15,15,1,160,115,,,,,,,,
,,5f72251e27b82f11aacdd6c1,65af532f30852ac05a101d81,2024-01-22_23h50.19.209,bars,2023.2.3,Win32,59.88023952,657b66ea316d21385b68909f,,,,,,,,,,,763.155,764.1451,,,764.6361,764.8818,,121,121,,,,,,,,,,,,,,,,bars/034.png,bars/mask002.png,,,,,,,,,,,,9,1,,,,,,,10,6,10,7,,,,,,,,,,,764.1451,764.6361,764.8818,767.166,space,2.2628,,767.166,4,56,768.1751,768.1752,770.6326,space,2.4375,,0,16,16,16,1,125,65,,,,,,,,
,,5f72251e27b82f11aacdd6c1,65af532f30852ac05a101d81,2024-01-22_23h50.19.209,bars,2023.2.3,Win32,59.88023952,657b66ea316d21385b68909f,,,,,,,,,,,770.6337,771.6448,,,772.138,772.3808,,125,-55,,,,,,,,,,,,,,,,bars/011.png,bars/mask000.png,,,,,,,,,,,,0,1,,,,,,,8,4,8,5,,,,,,,,,,,771.6449,772.1378,772.3809,776.9318,space,4.5298,,776.9319,35,40,777.9307,777.9308,780.6545,space,2.6945,,0,17,17,17,1,160,85,,,,,,,,
,,5f72251e27b82f11aacdd6c1,65af532f30852ac05a101d81,2024-01-22_23h50.19.209,bars,2023.2.3,Win32,59.88023952,657b66ea316d21385b68909f,,,,,,,,,,,780.6553,781.6473,,,782.138,782.3808,,152,152,,,,,,,,,,,,,,,,bars/012.png,bars/mask004.png,,,,,,,,,,,,0,2,,,,,,,6,6,5,6,,,,,,,,,,,781.6474,782.138,782.3808,785.3402,space,2.9409,,785.3402,62,43,786.3466,786.3467,788.1821,space,1.8016,,0,18,18,18,1,90,15,,,,,,,,
,,5f72251e27b82f11aacdd6c1,65af532f30852ac05a101d81,2024-01-22_23h50.19.209,bars,2023.2.3,Win32,59.88023952,657b66ea316d21385b68909f,,,,,,,,,,,788.1829,789.1733,,,789.6615,789.9151,,21,21,,,,,,,,,,,,,,,,bars/007.png,bars/mask005.png,,,,,,,,,,,,1,1,,,,,,,8,8,8,8,,,,,,,,,,,789.1735,789.6614,789.9151,794.0977,space,4.1652,,794.0978,26,34,795.1034,795.1035,797.7196,space,2.5814,,0,19,19,19,1,175,55,,,,,,,,
,,5f72251e27b82f11aacdd6c1,65af532f30852ac05a101d81,2024-01-22_23h50.19.209,bars,2023.2.3,Win32,59.88023952,657b66ea316d21385b68909f,,,,,,,,,,,797.7204,798.7174,,,799.2179,799.4796,,165,165,,,,,,,,,,,,,,,,bars/037.png,bars/mask004.png,,,,,,,,,,,,5,1,,,,,,,10,6,10,5,,,,,,,,,,,798.7175,799.2178,799.4796,804.2019,space,4.7009,,804.2019,15,60,805.1836,805.1837,808.1104,space,2.8965,,0,20,20,20,1,150,105,,,,,,,,
,,5f72251e27b82f11aacdd6c1,65af532f30852ac05a101d81,2024-01-22_23h50.19.209,bars,2023.2.3,Win32,59.88023952,657b66ea316d21385b68909f,,,,,,,,,,,808.1261,809.1311,,,809.6215,809.8671,,156,156,,,,,,,,,,,,,,,,bars/030.png,bars/mask003.png,,,,,,,,,,,,4,1,,,,,,,8,8,8,8,,,,,,,,,,,809.1312,809.6215,809.8671,811.3786,space,1.49,,811.3787,16,89,812.3834,812.3835,814.5055,space,2.0963,,0,21,21,21,1,140,65,,,,,,,,
,,5f72251e27b82f11aacdd6c1,65af532f30852ac05a101d81,2024-01-22_23h50.19.209,bars,2023.2.3,Win32,59.88023952,657b66ea316d21385b68909f,,,,,,,,,,,814.5064,815.5117,,,816.0089,816.2499,,142,-38,,,,,,,,,,,,,,,,bars/010.png,bars/mask000.png,,,,,,,,,,,,1,1,,,,,,,6,10,4,10,,,,,,,,,,,815.5118,816.0089,816.25,821.3339,space,5.0626,,821.334,23,87,822.3327,822.3328,824.5796,space,2.2176,,0,22,22,22,1,165,55,,,,,,,,
,,5f72251e27b82f11aacdd6c1,65af532f30852ac05a101d81,2024-01-22_23h50.19.209,bars,2023.2.3,Win32,59.88023952,657b66ea316d21385b68909f,,,,,,,,,,,824.5806,825.5702,,,826.0685,826.3164,,154,-26,,,,,,,,,,,,,,,,bars/033.png,bars/mask008.png,,,,,,,,,,,,9,2,,,,,,,4,10,4,9,,,,,,,,,,,825.5704,826.0685,826.3166,832.9096,space,6.5719,,832.9098,51,1,833.903,833.9031,837.7796,space,3.842,,0,23,23,23,1,25,155,,,,,,,,
,,5f72251e27b82f11aacdd6c1,65af532f30852ac05a101d81,2024-01-22_23h50.19.209,bars,2023.2.3,Win32,59.88023952,657b66ea316d21385b68909f,,,,,,,,,,,837.7945,838.7935,,,839.281,839.5272,,153,153,,,,,,,,,,,,,,,,bars/046.png,bars/mask002.png,,,,,,,,,,,,7,1,,,,,,,6,8,7,8,,,,,,,,,,,838.7936,839.281,839.5273,840.6323,space,1.0835,,840.6326,2,68,841.6251,841.6252,844.8215,space,3.1765,,0,24,24,24,1,155,85,,,,,,,,
,,5f72251e27b82f11aacdd6c1,65af532f30852ac05a101d81,2024-01-22_23h50.19.209,bars,2023.2.3,Win32,59.88023952,657b66ea316d21385b68909f,,,,,,,,,,,844.8367,845.8309,,,846.3317,846.5939,,157,157,,,,,,,,,,,,,,,,bars/045.png,bars/mask000.png,,,,,,,,,,,,0,2,,,,,,,8,6,9,4,,,,,,,,,,,845.831,846.3316,846.5939,851.0648,space,4.4496,,851.0649,57,33,852.058,852.058,853.9668,space,1.8786,,0,25,25,25,1,100,10,,,,,,,,
,,5f72251e27b82f11aacdd6c1,65af532f30852ac05a101d81,2024-01-22_23h50.19.209,bars,2023.2.3,Win32,59.88023952,657b66ea316d21385b68909f,,,,,,,,,,,853.9678,854.9764,,,855.477,855.7191,,19,199,,,,,,,,,,,,,,,,bars/022.png,bars/mask008.png,,,,,,,,,,,,5,2,,,,,,,10,4,10,5,,,,,,,,,,,854.9766,855.4769,855.7191,858.349,space,2.6059,,858.3491,76,1,859.3473,859.3474,862.604,space,3.2265,,0,26,26,26,1,95,20,,,,,,,,
,,5f72251e27b82f11aacdd6c1,65af532f30852ac05a101d81,2024-01-22_23h50.19.209,bars,2023.2.3,Win32,59.88023952,657b66ea316d21385b68909f,,,,,,,,,,,862.6196,863.6139,,,864.1023,864.3476,,18,198,,,,,,,,,,,,,,,,bars/031.png,bars/mask006.png,,,,,,,,,,,,2,2,,,,,,,8,6,9,5,,,,,,,,,,,863.614,864.1021,864.3476,867.5365,space,3.1671,,867.5367,78,17,868.5251,868.5253,870.571,space,2.0165,,0,27,27,27,1,120,35,,,,,,,,
,,5f72251e27b82f11aacdd6c1,65af532f30852ac05a101d81,2024-01-22_23h50.19.209,bars,2023.2.3,Win32,59.88023952,657b66ea316d21385b68909f,,,,,,,,,,,870.5716,871.5796,,,872.0757,872.3186,,27,27,,,,,,,,,,,,,,,,bars/038.png,bars/mask009.png,,,,,,,,,,,,0,1,,,,,,,10,8,10,10,,,,,,,,,,,871.5797,872.0756,872.3186,878.1123,space,5.7706,,878.1124,42,43,879.1069,879.1069,881.35,space,2.2078,,0,28,28,28,1,165,70,,,,,,,,
,,5f72251e27b82f11aacdd6c1,65af532f30852ac05a101d81,2024-01-22_23h50.19.209,bars,2023.2.3,Win32,59.88023952,657b66ea316d21385b68909f,,,,,,,,,,,881.3504,882.3581,,,882.8476,883.0943,,161,-19,,,,,,,,,,,,,,,,bars/036.png,bars/mask003.png,,,,,,,,,,,,5,1,,,,,,,8,6,10,6,,,,,,,,,,,882.3581,882.8476,883.0944,886.5423,space,3.4303,,886.5423,16,39,887.5288,887.5289,889.4113,space,1.8535,,0,29,29,29,1,145,20,,,,,,,,
,,5f72251e27b82f11aacdd6c1,65af532f30852ac05a101d81,2024-01-22_23h50.19.209,bars,2023.2.3,Win32,59.88023952,657b66ea316d21385b68909f,,,,,,,,,,,889.4122,890.3953,,,890.8791,891.1314,,150,-30,,,,,,,,,,,,,,,,bars/008.png,bars/mask001.png,,,,,,,,,,,,0,2,,,,,,,6,8,7,9,,,,,,,,,,,890.3954,890.8789,891.1314,894.7647,space,3.6139,,894.7648,40,30,895.7466,895.7466,898.0242,space,2.2454,,0,30,30,30,1,110,0,,,,,,,,
,,5f72251e27b82f11aacdd6c1,65af532f30852ac05a101d81,2024-01-22_23h50.19.209,bars,2023.2.3,Win32,59.88023952,657b66ea316d21385b68909f,,,,,,,,,,,898.0252,899.021,,,899.5112,899.7572,,127,127,,,,,,,,,,,,,,,,bars/012.png,bars/mask001.png,,,,,,,,,,,,0,1,,,,,,,4,6,3,6,,,,,,,,,,,899.0211,899.5111,899.7572,901.9837,space,2.2061,,901.9838,37,68,902.9895,902.9896,904.5966,space,1.5746,,0,31,31,31,1,90,15,,,,,,,,
,,5f72251e27b82f11aacdd6c1,65af532f30852ac05a101d81,2024-01-22_23h50.19.209,bars,2023.2.3,Win32,59.88023952,657b66ea316d21385b68909f,,,,,,,,,,,904.5976,905.5776,,,906.0606,906.3069,,90,90,,,,,,,,,,,,,,,,bars/043.png,bars/mask001.png,,,,,,,,,,,,0,2,,,,,,,6,4,5,3,,,,,,,,,,,905.5776,906.0605,906.307,911.7574,space,5.4288,,911.7574,60,40,912.7534,912.7535,917.9512,space,5.1649,,0,32,32,32,1,30,130,,,,,,,,
,,5f72251e27b82f11aacdd6c1,65af532f30852ac05a101d81,2024-01-22_23h50.19.209,bars,2023.2.3,Win32,59.88023952,657b66ea316d21385b68909f,,,,,,,,,,,917.9658,918.9689,,,919.473,919.7156,,135,135,,,,,,,,,,,,,,,,bars/016.png,bars/mask003.png,,,,,,,,,,,,0,2,,,,,,,8,2,10,2,,,,,,,,,,,918.9693,919.473,919.7156,921.0746,space,1.3353,,921.0747,85,30,922.058,922.0581,923.4712,space,1.3925,,0,33,33,33,1,40,165,,,,,,,,
,,5f72251e27b82f11aacdd6c1,65af532f30852ac05a101d81,2024-01-22_23h50.19.209,bars,2023.2.3,Win32,59.88023952,657b66ea316d21385b68909f,,,,,,,,,,,923.4722,924.4598,,,924.9556,925.1987,,153,153,,,,,,,,,,,,,,,,bars/004.png,bars/mask004.png,,,,,,,,,,,,0,2,,,,,,,6,0,6,0,,,,,,,,,,,924.4599,924.9555,925.1987,927.7898,space,2.5677,,927.7899,52,28,928.7784,928.7785,931.2068,space,2.4008,,0,34,34,34,1,25,125,,,,,,,,
,,5f72251e27b82f11aacdd6c1,65af532f30852ac05a101d81,2024-01-22_23h50.19.209,bars,2023.2.3,Win32,59.88023952,657b66ea316d21385b68909f,,,,,,,,,,,931.2219,932.222,,,932.7101,932.9432,,140,140,,,,,,,,,,,,,,,,bars/006.png,bars/mask000.png,,,,,,,,,,,,0,2,,,,,,,4,0,1,0,,,,,,,,,,,932.222,932.71,932.9433,935.2273,space,2.257,,935.2273,75,40,936.2094,936.2096,937.5993,space,1.3604,,0,35,35,35,1,35,100,,,,,,,,
,,5f72251e27b82f11aacdd6c1,65af532f30852ac05a101d81,2024-01-22_23h50.19.209,bars,2023.2.3,Win32,59.88023952,657b66ea316d21385b68909f,,,,,,,,,,,937.6002,938.6047,,,939.1071,939.3477,,109,109,,,,,,,,,,,,,,,,bars/031.png,bars/mask001.png,,,,,,,,,,,,4,1,,,,,,,6,2,6,3,,,,,,,,,,,938.6048,939.1071,939.3478,941.1409,space,1.7696,,941.141,11,74,942.1426,942.1426,944.9839,space,2.808,,0,36,36,36,1,120,35,,,,,,,,
,,5f72251e27b82f11aacdd6c1,65af532f30852ac05a101d81,2024-01-22_23h50.19.209,bars,2023.2.3,Win32,59.88023952,657b66ea316d21385b68909f,,,,,,,,,,,944.9849,945.9919,,,946.4921,946.7375,,114,114,,,,,,,,,,,,,,,,bars/045.png,bars/mask001.png,,,,,,,,,,,,3,1,,,,,,,4,0,5,1,,,,,,,,,,,945.9919,946.492,946.7375,950.4933,space,3.7344,,950.4935,14,76,951.4875,951.4876,952.9273,space,1.4099,,0,37,37,37,1,100,10,,,,,,,,
,,5f72251e27b82f11aacdd6c1,65af532f30852ac05a101d81,2024-01-22_23h50.19.209,bars,2023.2.3,Win32,59.88023952,657b66ea316d21385b68909f,,,,,,,,,,,952.9284,953.9373,,,954.4374,954.6693,,104,104,,,,,,,,,,,,,,,,bars/048.png,bars/mask001.png,,,,,,,,,,,,0,1,,,,,,,2,0,1,0,,,,,,,,,,,953.9373,954.4374,954.6695,958.1712,space,3.4836,,958.1713,54,71,959.1779,959.178,964.1401,space,4.9324,,0,38,38,38,1,50,175,,,,,,,,
,,5f72251e27b82f11aacdd6c1,65af532f30852ac05a101d81,2024-01-22_23h50.19.209,bars,2023.2.3,Win32,59.88023952,657b66ea316d21385b68909f,,,,,,,,,,,964.1559,965.1527,,,965.6358,965.8924,,41,41,,,,,,,,,,,,,,,,bars/017.png,bars/mask004.png,,,,,,,,,,,,2,2,,,,,,,0,2,0,2,,,,,,,,,,,965.1528,965.6357,965.8925,967.22,space,1.3051,,967.2201,76,4,968.211,968.2112,970.9801,space,2.7498,,0,39,39,39,1,145,45,,,,,,,,
,,5f72251e27b82f11aacdd6c1,65af532f30852ac05a101d81,2024-01-22_23h50.19.209,bars,2023.2.3,Win32,59.88023952,657b66ea316d21385b68909f,,,,,,,,,,,970.9822,971.9783,,,972.4783,972.7276,,32,32,,,,,,,,,,,,,,,,bars/045.png,bars/mask002.png,,,,,,,,,,,,1,2,,,,,,,0,0,1,2,,,,,,,,,,,971.9785,972.4782,972.7277,975.9028,space,3.1531,,975.9029,68,22,976.9024,976.9025,980.9627,space,4.0195,,0,40,40,40,1,100,10,,,,,,,,
,,5f72251e27b82f11aacdd6c1,65af532f30852ac05a101d81,2024-01-22_23h50.19.209,bars,2023.2.3,Win32,59.88023952,657b66ea316d21385b68909f,,,,,,,,,,,980.9875,981.9772,,,982.467,982.716,,19,199,,,,,,,,,,,,,,,,bars/023.png,bars/mask009.png,,,,,,,,,,,,0,1,,,,,,,0,0,0,0,,,,,,,,,,,981.9774,982.4668,982.716,990.6045,space,7.8762,,990.6046,1,84,991.6,991.6001,993.4598,space,1.8093,,0,41,41,41,1,20,115,,,,,,,,
,,5f72251e27b82f11aacdd6c1,65af532f30852ac05a101d81,2024-01-22_23h50.19.209,bars,2023.2.3,Win32,59.88023952,657b66ea316d21385b68909f,,,,,,,,,,,993.4602,994.4599,,,994.9501,995.1996,,23,23,,,,,,,,,,,,,,,,bars/014.png,bars/mask005.png,,,,,,,,,,,,0,2,,,,,,,2,0,1,1,,,,,,,,,,,994.4601,994.9498,995.1996,998.5487,space,3.3359,,998.5488,57,23,999.5426,999.5426,1001.5991,space,2.0092,,0,42,42,42,1,80,0,,,,,,,,
,,5f72251e27b82f11aacdd6c1,65af532f30852ac05a101d81,2024-01-22_23h50.19.209,bars,2023.2.3,Win32,59.88023952,657b66ea316d21385b68909f,,,,,,,,,,,1001.6008,1002.5986,,,1003.0986,1003.3486,,0,180,,,,,,,,,,,,,,,,bars/014.png,bars/mask003.png,,,,,,,,,,,,0,2,,,,,,,0,0,0,0,,,,,,,,,,,1002.5986,1003.0986,1003.3486,1007.9087,space,4.5492,,1007.9087,80,0,1008.9089,1008.909,1026.406,space,17.461,,0,43,43,43,1,80,0,,,,,,,,
,,5f72251e27b82f11aacdd6c1,65af532f30852ac05a101d81,2024-01-22_23h50.19.209,bars,2023.2.3,Win32,59.88023952,657b66ea316d21385b68909f,,,,,,,,,,,1026.4323,1027.4138,,,1027.9069,1028.1562,,73,73,,,,,,,,,,,,,,,,bars/023.png,bars/mask006.png,,,,,,,,,,,,0,2,,,,,,,2,0,2,1,,,,,,,,,,,1027.4139,1027.9068,1028.1562,1030.4968,space,2.323,,1030.497,53,42,1031.4938,1031.4939,1035.1464,space,3.6088,,0,44,44,44,1,20,115,,,,,,,,
,,5f72251e27b82f11aacdd6c1,65af532f30852ac05a101d81,2024-01-22_23h50.19.209,bars,2023.2.3,Win32,59.88023952,657b66ea316d21385b68909f,,,,,,,,,,,1035.1577,1036.1464,,,1036.6472,1036.8969,,132,132,,,,,,,,,,,,,,,,bars/007.png,bars/mask008.png,,,,,,,,,,,,0,1,,,,,,,4,2,4,2,,,,,,,,,,,1036.1465,1036.6471,1036.897,1040.9591,space,4.049,,1040.9592,43,77,1041.9558,1041.9559,1043.9127,space,1.9272,,0,45,45,45,1,175,55,,,,,,,,
,,5f72251e27b82f11aacdd6c1,65af532f30852ac05a101d81,2024-01-22_23h50.19.209,bars,2023.2.3,Win32,59.88023952,657b66ea316d21385b68909f,,,,,,,,,,,1043.9136,1044.9129,,,1045.4131,1045.6632,,170,170,,,,,,,,,,,,,,,,bars/021.png,bars/mask002.png,,,,,,,,,,,,1,1,,,,,,,2,4,2,4,,,,,,,,,,,1044.913,1045.413,1045.6632,1048.7673,space,3.0935,,1048.7673,15,80,1049.7646,1049.7647,1051.8597,space,2.0492,,0,46,46,46,1,155,70,,,,,,,,
,,5f72251e27b82f11aacdd6c1,65af532f30852ac05a101d81,2024-01-22_23h50.19.209,bars,2023.2.3,Win32,59.88023952,657b66ea316d21385b68909f,,,,,,,,,,,1051.8604,1052.8573,,,1053.3459,1053.5955,,156,-24,,,,,,,,,,,,,,,,bars/044.png,bars/mask008.png,,,,,,,,,,,,2,2,,,,,,,4,2,4,2,,,,,,,,,,,1052.8574,1053.3456,1053.5956,1057.9389,space,4.3311,,1057.9389,81,1,1058.9389,1058.9391,1060.9302,space,1.942,,0,47,47,47,1,75,155,,,,,,,,
,,5f72251e27b82f11aacdd6c1,65af532f30852ac05a101d81,2024-01-22_23h50.19.209,bars,2023.2.3,Win32,59.88023952,657b66ea316d21385b68909f,,,,,,,,,,,1060.9314,1061.9218,,,1062.4232,1062.6727,,158,158,,,,,,,,,,,,,,,,bars/023.png,bars/mask008.png,,,,,,,,,,,,0,1,,,,,,,6,0,5,0,,,,,,,,,,,1061.9218,1062.4231,1062.6728,1065.7745,space,3.0842,,1065.7746,42,43,1066.7726,1066.7727,1068.8288,space,2.0077,,0,48,48,48,1,20,115,,,,,,,,
,,5f72251e27b82f11aacdd6c1,65af532f30852ac05a101d81,2024-01-22_23h50.19.209,bars,2023.2.3,Win32,59.88023952,657b66ea316d21385b68909f,,,,,,,,,,,1068.8594,1069.8452,,,1070.345,1070.5942,,20,200,,,,,,,,,,,,,,,,bars/046.png,bars/mask007.png,,,,,,,,,,,,0,1,,,,,,,4,0,6,0,,,,,,,,,,,1069.8452,1070.3449,1070.5942,1073.6728,space,3.0674,,1073.6729,45,65,1074.6699,1074.67,1076.688,space,1.9972,,0,49,49,49,1,155,85,,,,,,,,
,,5f72251e27b82f11aacdd6c1,65af532f30852ac05a101d81,2024-01-22_23h50.19.209,bars,2023.2.3,Win32,59.88023952,657b66ea316d21385b68909f,,,,,,,,,,,,,,,,,,,,,,,,,,,,,,,,,,,,,,,,,,,,,,,,,,,,,,,,,,,,,,,,,,,,,,,,,,,,,,,,,,,,,,,,,,,,,1076.6892,1136.6919,0,0,0,2,1,sequence_tables/blk027.csv
,,5f72251e27b82f11aacdd6c1,65af532f30852ac05a101d81,2024-01-22_23h50.19.209,bars,2023.2.3,Win32,59.88023952,657b66ea316d21385b68909f,,,,,,,,,,,1139.7288,1140.7247,,,1141.2241,1141.4747,,53,53,,,,,,,,,,,,,,,,bars/018.png,bars/mask009.png,,,,,,,,,,,,0,2,,,,,,,8,1,8,0,,,,,,1136.7039,1139.71,space,2.9927,,1140.7247,1141.2241,1141.4747,1150.6948,space,9.2097,,1150.6949,83,37,1151.6918,1151.6918,1151.7259,,,,0,0,0,0,1,150,90,,,,,,,,
,,5f72251e27b82f11aacdd6c1,65af532f30852ac05a101d81,2024-01-22_23h50.19.209,bars,2023.2.3,Win32,59.88023952,657b66ea316d21385b68909f,,,,,,,,,,,1151.7267,1152.7154,,,1153.2209,1153.4714,,73,73,,,,,,,,,,,,,,,,bars/014.png,bars/mask008.png,,,,,,,,,,,,4,1,,,,,,,6,3,5,3,,,,,,,,,,,1152.7155,1153.2208,1153.4714,1157.368,space,3.8884,,1157.3681,7,73,1158.3566,1158.3567,1158.3744,,,,0,1,1,1,1,80,0,,,,,,,,
,,5f72251e27b82f11aacdd6c1,65af532f30852ac05a101d81,2024-01-22_23h50.19.209,bars,2023.2.3,Win32,59.88023952,657b66ea316d21385b68909f,,,,,,,,,,,1158.3749,1159.3731,,,1159.8739,1160.116,,79,79,,,,,,,,,,,,,,,,bars/007.png,bars/mask003.png,,,,,,,,,,,,1,2,,,,,,,4,5,5,6,,,,,,,,,,,1159.3732,1159.8736,1160.116,1161.401,space,1.2684,,1161.4011,84,24,1162.3897,1162.3897,1162.3919,,,,0,2,2,2,1,175,55,,,,,,,,
,,5f72251e27b82f11aacdd6c1,65af532f30852ac05a101d81,2024-01-22_23h50.19.209,bars,2023.2.3,Win32,59.88023952,657b66ea316d21385b68909f,,,,,,,,,,,1162.3922,1163.3909,,,1163.8912,1164.1413,,170,170,,,,,,,,,,,,,,,,bars/007.png,bars/mask008.png,,,,,,,,,,,,5,1,,,,,,,6,3,6,2,,,,,,,,,,,1163.391,1163.8912,1164.1413,1164.9748,space,0.8186,,1164.9749,5,65,1165.9726,1165.9727,1165.9749,,,,0,3,3,3,1,175,55,,,,,,,,
,,5f72251e27b82f11aacdd6c1,65af532f30852ac05a101d81,2024-01-22_23h50.19.209,bars,2023.2.3,Win32,59.88023952,657b66ea316d21385b68909f,,,,,,,,,,,1165.9754,1166.9732,,,1167.4728,1167.7236,,142,142,,,,,,,,,,,,,,,,bars/014.png,bars/mask003.png,,,,,,,,,,,,0,2,,,,,,,8,1,6,0,,,,,,,,,,,1166.9732,1167.4728,1167.7237,1169.1901,space,1.4574,,1169.1901,62,38,1170.1897,1170.1898,1170.2024,,,,0,4,4,4,1,80,0,,,,,,,,
,,5f72251e27b82f11aacdd6c1,65af532f30852ac05a101d81,2024-01-22_23h50.19.209,bars,2023.2.3,Win32,59.88023952,657b66ea316d21385b68909f,,,,,,,,,,,1170.2027,1171.206,,,1171.7075,1171.9568,,179,-1,,,,,,,,,,,,,,,,bars/027.png,bars/mask000.png,,,,,,,,,,,,0,2,,,,,,,10,3,10,3,,,,,,,,,,,1171.206,1171.7074,1171.9569,1173.0909,space,1.1193,,1173.091,69,51,1174.0906,1174.0906,1174.1198,,,,0,5,5,5,1,110,50,,,,,,,,
,,5f72251e27b82f11aacdd6c1,65af532f30852ac05a101d81,2024-01-22_23h50.19.209,bars,2023.2.3,Win32,59.88023952,657b66ea316d21385b68909f,,,,,,,,,,,1174.1204,1175.1223,,,1175.6225,1175.8725,,71,71,,,,,,,,,,,,,,,,bars/032.png,bars/mask005.png,,,,,,,,,,,,0,2,,,,,,,8,1,8,0,,,,,,,,,,,1175.1224,1175.6225,1175.8726,1177.2569,space,1.372,,1177.257,54,51,1178.2558,1178.2558,1178.2845,,,,0,6,6,6,1,125,20,,,,,,,,
,,5f72251e27b82f11aacdd6c1,65af532f30852ac05a101d81,2024-01-22_23h50.19.209,bars,2023.2.3,Win32,59.88023952,657b66ea316d21385b68909f,,,,,,,,,,,1178.2851,1179.2885,,,1179.7888,1180.0385,,122,122,,,,,,,,,,,,,,,,bars/015.png,bars/mask005.png,,,,,,,,,,,,4,1,,,,,,,6,0,6,0,,,,,,,,,,,1179.2886,1179.7888,1180.0386,1182.0674,space,2.0164,,1182.0676,12,38,1183.0655,1183.0656,1183.097,,,,0,7,7,7,1,110,160,,,,,,,,
,,5f72251e27b82f11aacdd6c1,65af532f30852ac05a101d81,2024-01-22_23h50.19.209,bars,2023.2.3,Win32,59.88023952,657b66ea316d21385b68909f,,,,,,,,,,,1183.0974,1184.0883,,,1184.5883,1184.8381,,161,161,,,,,,,,,,,,,,,,bars/026.png,bars/mask008.png,,,,,,,,,,,,0,1,,,,,,,4,0,6,0,,,,,,,,,,,1184.0883,1184.5882,1184.8382,1186.6053,space,1.7537,,1186.6053,54,76,1187.6082,1187.6083,1187.6103,,,,0,8,8,8,1,35,85,,,,,,,,
,,5f72251e27b82f11aacdd6c1,65af532f30852ac05a101d81,2024-01-22_23h50.19.209,bars,2023.2.3,Win32,59.88023952,657b66ea316d21385b68909f,,,,,,,,,,,1187.6112,1188.6044,,,1189.1049,1189.3549,,23,23,,,,,,,,,,,,,,,,bars/041.png,bars/mask005.png,,,,,,,,,,,,5,1,,,,,,,6,0,6,0,,,,,,,,,,,1188.6046,1189.1048,1189.355,1191.0721,space,1.7013,,1191.0724,3,62,1192.0714,1192.0714,1192.0829,,,,0,9,9,9,1,20,85,,,,,,,,
,,5f72251e27b82f11aacdd6c1,65af532f30852ac05a101d81,2024-01-22_23h50.19.209,bars,2023.2.3,Win32,59.88023952,657b66ea316d21385b68909f,,,,,,,,,,,1192.0833,1193.0874,,,1193.5874,1193.8374,,37,37,,,,,,,,,,,,,,,,bars/038.png,bars/mask000.png,,,,,,,,,,,,0,2,,,,,,,8,2,8,3,,,,,,,,,,,1193.0875,1193.5873,1193.8374,1195.4711,space,1.6193,,1195.4713,52,33,1196.4716,1196.4716,1196.5007,,,,0,10,10,10,1,165,70,,,,,,,,
,,5f72251e27b82f11aacdd6c1,65af532f30852ac05a101d81,2024-01-22_23h50.19.209,bars,2023.2.3,Win32,59.88023952,657b66ea316d21385b68909f,,,,,,,,,,,1196.501,1197.5046,,,1198.0047,1198.2543,,116,116,,,,,,,,,,,,,,,,bars/024.png,bars/mask008.png,,,,,,,,,,,,6,1,,,,,,,6,0,7,0,,,,,,,,,,,1197.5047,1198.0047,1198.2543,1200.0565,space,1.7924,,1200.0565,4,54,1201.0557,1201.0558,1201.0599,,,,0,11,11,11,1,120,170,,,,,,,,
,,5f72251e27b82f11aacdd6c1,65af532f30852ac05a101d81,2024-01-22_23h50.19.209,bars,2023.2.3,Win32,59.88023952,657b66ea316d21385b68909f,,,,,,,,,,,1201.0606,1202.055,,,1202.5551,1202.8051,,141,141,,,,,,,,,,,,,,,,bars/021.png,bars/mask000.png,,,,,,,,,,,,3,1,,,,,,,4,2,5,2,,,,,,,,,,,1202.055,1202.5551,1202.8052,1204.4388,space,1.6184,,1204.4388,14,71,1205.4384,1205.4385,1205.4402,,,,0,12,12,12,1,155,70,,,,,,,,
,,5f72251e27b82f11aacdd6c1,65af532f30852ac05a101d81,2024-01-22_23h50.19.209,bars,2023.2.3,Win32,59.88023952,657b66ea316d21385b68909f,,,,,,,,,,,1205.4408,1206.4386,,,1206.9393,1207.187,,135,135,,,,,,,,,,,,,,,,bars/002.png,bars/mask003.png,,,,,,,,,,,,6,1,,,,,,,6,0,7,0,,,,,,,,,,,1206.4387,1206.9393,1207.187,1208.9209,space,1.7179,,1208.921,5,50,1209.9219,1209.9219,1209.9237,,,,0,13,13,13,1,130,85,,,,,,,,
,,5f72251e27b82f11aacdd6c1,65af532f30852ac05a101d81,2024-01-22_23h50.19.209,bars,2023.2.3,Win32,59.88023952,657b66ea316d21385b68909f,,,,,,,,,,,1209.9242,1210.9219,,,1211.4208,1211.6706,,124,124,,,,,,,,,,,,,,,,bars/041.png,bars/mask000.png,,,,,,,,,,,,0,2,,,,,,,8,2,7,2,,,,,,,,,,,1210.922,1211.4208,1211.6706,1213.7588,space,2.078,,1213.7589,76,39,1214.7535,1214.7536,1214.7847,,,,0,14,14,14,1,20,85,,,,,,,,
,,5f72251e27b82f11aacdd6c1,65af532f30852ac05a101d81,2024-01-22_23h50.19.209,bars,2023.2.3,Win32,59.88023952,657b66ea316d21385b68909f,,,,,,,,,,,1214.7859,1215.7863,,,1216.2867,1216.5364,,21,21,,,,,,,,,,,,,,,,bars/002.png,bars/mask007.png,,,,,,,,,,,,0,2,,,,,,,10,4,10,6,,,,,,,,,,,1215.7863,1216.2866,1216.5365,1219.4486,space,2.8995,,1219.4487,71,64,1220.4467,1220.4468,1220.4785,,,,0,15,15,15,1,130,85,,,,,,,,
,,5f72251e27b82f11aacdd6c1,65af532f30852ac05a101d81,2024-01-22_23h50.19.209,bars,2023.2.3,Win32,59.88023952,657b66ea316d21385b68909f,,,,,,,,,,,1220.4791,1221.4694,,,1221.9697,1222.2195,,0,0,,,,,,,,,,,,,,,,bars/038.png,bars/mask000.png,,,,,,,,,,,,5,1,,,,,,,10,2,10,2,,,,,,,,,,,1221.4694,1221.9696,1222.2195,1225.6485,space,3.4172,,1225.6486,15,70,1226.6379,1226.6379,1226.6782,,,,0,16,16,16,1,165,70,,,,,,,,
,,5f72251e27b82f11aacdd6c1,65af532f30852ac05a101d81,2024-01-22_23h50.19.209,bars,2023.2.3,Win32,59.88023952,657b66ea316d21385b68909f,,,,,,,,,,,1226.679,1227.6841,,,1228.1809,1228.4301,,0,0,,,,,,,,,,,,,,,,bars/026.png,bars/mask009.png,,,,,,,,,,,,0,1,,,,,,,8,0,6,0,,,,,,,,,,,1227.6841,1228.1807,1228.4302,1233.9472,space,5.5006,,1233.9473,35,85,1234.9454,1234.9455,1234.9757,,,,0,17,17,17,1,35,85,,,,,,,,
,,5f72251e27b82f11aacdd6c1,65af532f30852ac05a101d81,2024-01-22_23h50.19.209,bars,2023.2.3,Win32,59.88023952,657b66ea316d21385b68909f,,,,,,,,,,,1234.9763,1235.9702,,,1236.4704,1236.7218,,4,4,,,,,,,,,,,,,,,,bars/002.png,bars/mask008.png,,,,,,,,,,,,0,1,,,,,,,10,2,10,3,,,,,,,,,,,1235.9702,1236.4704,1236.7219,1242.3049,space,5.5749,,1242.305,54,81,1243.3019,1243.302,1243.319,,,,0,18,18,18,1,130,85,,,,,,,,
,,5f72251e27b82f11aacdd6c1,65af532f30852ac05a101d81,2024-01-22_23h50.19.209,bars,2023.2.3,Win32,59.88023952,657b66ea316d21385b68909f,,,,,,,,,,,1243.3197,1244.3184,,,1244.8187,1245.0684,,165,165,,,,,,,,,,,,,,,,bars/008.png,bars/mask008.png,,,,,,,,,,,,4,2,,,,,,,10,4,10,7,,,,,,,,,,,1244.3184,1244.8186,1245.0685,1246.737,space,1.6544,,1246.737,55,15,1247.7362,1247.7362,1247.7412,,,,0,19,19,19,1,110,0,,,,,,,,
,,5f72251e27b82f11aacdd6c1,65af532f30852ac05a101d81,2024-01-22_23h50.19.209,bars,2023.2.3,Win32,59.88023952,657b66ea316d21385b68909f,,,,,,,,,,,1247.742,1248.7365,,,1249.2362,1249.4862,,121,121,,,,,,,,,,,,,,,,bars/034.png,bars/mask007.png,,,,,,,,,,,,7,1,,,,,,,8,6,8,5,,,,,,,,,,,1248.7365,1249.2361,1249.4863,1250.9789,space,1.4825,,1250.9789,4,56,1251.9741,1251.9743,1251.9816,,,,0,20,20,20,1,125,65,,,,,,,,
,,5f72251e27b82f11aacdd6c1,65af532f30852ac05a101d81,2024-01-22_23h50.19.209,bars,2023.2.3,Win32,59.88023952,657b66ea316d21385b68909f,,,,,,,,,,,1251.983,1252.9885,,,1253.4848,1253.7347,,117,117,,,,,,,,,,,,,,,,bars/029.png,bars/mask006.png,,,,,,,,,,,,1,1,,,,,,,6,8,6,8,,,,,,,,,,,1252.9885,1253.4848,1253.7348,1254.2846,space,0.5338,,1254.2848,27,72,1255.2859,1255.2859,1255.2875,,,,0,21,21,21,1,90,45,,,,,,,,
,,5f72251e27b82f11aacdd6c1,65af532f30852ac05a101d81,2024-01-22_23h50.19.209,bars,2023.2.3,Win32,59.88023952,657b66ea316d21385b68909f,,,,,,,,,,,1255.2883,1256.2846,,,1256.7846,1257.0351,,35,35,,,,,,,,,,,,,,,,bars/007.png,bars/mask005.png,,,,,,,,,,,,2,2,,,,,,,4,6,4,7,,,,,,,,,,,1256.2846,1256.7846,1257.0352,1258.1697,space,1.1204,,1258.1697,40,20,1259.1683,1259.1683,1259.1704,,,,0,22,22,22,1,175,55,,,,,,,,
,,5f72251e27b82f11aacdd6c1,65af532f30852ac05a101d81,2024-01-22_23h50.19.209,bars,2023.2.3,Win32,59.88023952,657b66ea316d21385b68909f,,,,,,,,,,,1259.1707,1260.1679,,,1260.6679,1260.9177,,92,92,,,,,,,,,,,,,,,,bars/025.png,bars/mask002.png,,,,,,,,,,,,4,1,,,,,,,6,4,7,4,,,,,,,,,,,1260.1679,1260.6679,1260.9177,1263.9634,space,3.0345,,1263.9635,13,52,1264.9614,1264.9615,1264.9933,,,,0,23,23,23,1,105,40,,,,,,,,
,,5f72251e27b82f11aacdd6c1,65af532f30852ac05a101d81,2024-01-22_23h50.19.209,bars,2023.2.3,Win32,59.88023952,657b66ea316d21385b68909f,,,,,,,,,,,1264.9938,1265.9833,,,1266.4838,1266.7334,,69,69,,,,,,,,,,,,,,,,bars/010.png,bars/mask009.png,,,,,,,,,,,,3,2,,,,,,,4,6,4,5,,,,,,,,,,,1265.9833,1266.4837,1266.7335,1268.6457,space,1.8995,,1268.6463,84,14,1269.6439,1269.6439,1269.6496,,,,0,24,24,24,1,165,55,,,,,,,,
,,5f72251e27b82f11aacdd6c1,65af532f30852ac05a101d81,2024-01-22_23h50.19.209,bars,2023.2.3,Win32,59.88023952,657b66ea316d21385b68909f,,,,,,,,,,,1269.6503,1270.6441,,,1271.1338,1271.3832,,118,118,,,,,,,,,,,,,,,,bars/049.png,bars/mask008.png,,,,,,,,,,,,6,2,,,,,,,6,8,5,7,,,,,,,,,,,1270.6441,1271.1337,1271.3832,1274.245,space,2.85,,1274.2452,42,3,1275.2424,1275.2425,1275.2538,,,,0,25,25,25,1,160,115,,,,,,,,
,,5f72251e27b82f11aacdd6c1,65af532f30852ac05a101d81,2024-01-22_23h50.19.209,bars,2023.2.3,Win32,59.88023952,657b66ea316d21385b68909f,,,,,,,,,,,1275.2541,1276.243,,,1276.7442,1276.9938,,166,166,,,,,,,,,,,,,,,,bars/029.png,bars/mask003.png,,,,,,,,,,,,0,2,,,,,,,4,10,4,9,,,,,,,,,,,1276.2431,1276.7441,1276.9939,1281.2666,space,4.2571,,1281.2667,76,59,1282.2555,1282.2556,1282.2713,,,,0,26,26,26,1,90,45,,,,,,,,
,,5f72251e27b82f11aacdd6c1,65af532f30852ac05a101d81,2024-01-22_23h50.19.209,bars,2023.2.3,Win32,59.88023952,657b66ea316d21385b68909f,,,,,,,,,,,1282.2717,1283.2661,,,1283.7686,1284.0156,,76,76,,,,,,,,,,,,,,,,bars/046.png,bars/mask007.png,,,,,,,,,,,,7,2,,,,,,,6,10,6,10,,,,,,,,,,,1283.2661,1283.7686,1284.0157,1285.7852,space,1.752,,1285.7853,79,9,1286.7818,1286.7819,1286.7979,,,,0,27,27,27,1,155,85,,,,,,,,
,,5f72251e27b82f11aacdd6c1,65af532f30852ac05a101d81,2024-01-22_23h50.19.209,bars,2023.2.3,Win32,59.88023952,657b66ea316d21385b68909f,,,,,,,,,,,1286.7984,1287.7994,,,1288.2996,1288.5532,,63,63,,,,,,,,,,,,,,,,bars/030.png,bars/mask001.png,,,,,,,,,,,,8,2,,,,,,,4,8,4,9,,,,,,,,,,,1287.7995,1288.2995,1288.5533,1290.2986,space,1.7272,,1290.2986,77,2,1291.2901,1291.2902,1291.3063,,,,0,28,28,28,1,140,65,,,,,,,,
,,5f72251e27b82f11aacdd6c1,65af532f30852ac05a101d81,2024-01-22_23h50.19.209,bars,2023.2.3,Win32,59.88023952,657b66ea316d21385b68909f,,,,,,,,,,,1291.3066,1292.3027,,,1292.7989,1293.0394,,48,48,,,,,,,,,,,,,,,,bars/018.png,bars/mask003.png,,,,,,,,,,,,0,2,,,,,,,6,10,6,10,,,,,,,,,,,1292.3027,1292.7988,1293.0394,1294.618,space,1.5547,,1294.6181,78,42,1295.6124,1295.6124,1295.6143,,,,0,29,29,29,1,150,90,,,,,,,,
,,5f72251e27b82f11aacdd6c1,65af532f30852ac05a101d81,2024-01-22_23h50.19.209,bars,2023.2.3,Win32,59.88023952,657b66ea316d21385b68909f,,,,,,,,,,,1295.6147,1296.6127,,,1297.1048,1297.3466,,95,95,,,,,,,,,,,,,,,,bars/023.png,bars/mask006.png,,,,,,,,,,,,2,2,,,,,,,8,8,7,7,,,,,,,,,,,1296.6128,1297.1048,1297.3466,1297.9835,space,0.6196,,1297.9836,75,20,1298.9856,1298.9856,1298.9878,,,,0,30,30,30,1,20,115,,,,,,,,
,,5f72251e27b82f11aacdd6c1,65af532f30852ac05a101d81,2024-01-22_23h50.19.209,bars,2023.2.3,Win32,59.88023952,657b66ea316d21385b68909f,,,,,,,,,,,1298.9883,1299.9865,,,1300.4796,1300.7202,,132,132,,,,,,,,,,,,,,,,bars/023.png,bars/mask006.png,,,,,,,,,,,,3,2,,,,,,,10,6,10,8,,,,,,,,,,,1299.9866,1300.4796,1300.7203,1302.2721,space,1.5346,,1302.2722,68,17,1303.2651,1303.2652,1303.2808,,,,0,31,31,31,1,20,115,,,,,,,,
,,5f72251e27b82f11aacdd6c1,65af532f30852ac05a101d81,2024-01-22_23h50.19.209,bars,2023.2.3,Win32,59.88023952,657b66ea316d21385b68909f,,,,,,,,,,,1303.2813,1304.2692,,,1304.7654,1305.0047,,122,122,,,,,,,,,,,,,,,,bars/034.png,bars/mask002.png,,,,,,,,,,,,7,1,,,,,,,8,8,8,8,,,,,,,,,,,1304.2693,1304.7654,1305.0047,1306.6205,space,1.5917,,1306.6205,3,57,1307.6189,1307.6189,1307.6371,,,,0,32,32,32,1,125,65,,,,,,,,
,,5f72251e27b82f11aacdd6c1,65af532f30852ac05a101d81,2024-01-22_23h50.19.209,bars,2023.2.3,Win32,59.88023952,657b66ea316d21385b68909f,,,,,,,,,,,1307.6377,1308.6309,,,1309.1348,1309.3898,,169,169,,,,,,,,,,,,,,,,bars/033.png,bars/mask008.png,,,,,,,,,,,,4,2,,,,,,,6,10,6,8,,,,,,,,,,,1308.631,1309.1348,1309.39,1310.8319,space,1.4194,,1310.8321,36,14,1311.8294,1311.8295,1311.8331,,,,0,33,33,33,1,25,155,,,,,,,,
,,5f72251e27b82f11aacdd6c1,65af532f30852ac05a101d81,2024-01-22_23h50.19.209,bars,2023.2.3,Win32,59.88023952,657b66ea316d21385b68909f,,,,,,,,,,,1311.8335,1312.8314,,,1313.3348,1313.5792,,157,157,,,,,,,,,,,,,,,,bars/041.png,bars/mask007.png,,,,,,,,,,,,0,1,,,,,,,4,10,3,8,,,,,,,,,,,1312.8315,1313.3348,1313.5792,1315.3012,space,1.703,,1315.3012,43,72,1316.3003,1316.3003,1316.3036,,,,0,34,34,34,1,20,85,,,,,,,,
,,5f72251e27b82f11aacdd6c1,65af532f30852ac05a101d81,2024-01-22_23h50.19.209,bars,2023.2.3,Win32,59.88023952,657b66ea316d21385b68909f,,,,,,,,,,,1316.304,1317.2956,,,1317.7811,1318.0375,,14,14,,,,,,,,,,,,,,,,bars/043.png,bars/mask004.png,,,,,,,,,,,,2,1,,,,,,,6,8,5,8,,,,,,,,,,,1317.2957,1317.7811,1318.0376,1319.0177,space,0.9583,,1319.0178,16,64,1320.0086,1320.0086,1320.0106,,,,0,35,35,35,1,30,130,,,,,,,,
,,5f72251e27b82f11aacdd6c1,65af532f30852ac05a101d81,2024-01-22_23h50.19.209,bars,2023.2.3,Win32,59.88023952,657b66ea316d21385b68909f,,,,,,,,,,,1320.0111,1321.016,,,1321.516,1321.7589,,151,151,,,,,,,,,,,,,,,,bars/031.png,bars/mask006.png,,,,,,,,,,,,0,1,,,,,,,8,10,9,10,,,,,,,,,,,1321.0161,1321.516,1321.759,1322.3834,space,0.6009,,1322.3835,31,64,1323.3829,1323.383,1323.3848,,,,0,36,36,36,1,120,35,,,,,,,,
,,5f72251e27b82f11aacdd6c1,65af532f30852ac05a101d81,2024-01-22_23h50.19.209,bars,2023.2.3,Win32,59.88023952,657b66ea316d21385b68909f,,,,,,,,,,,1323.3852,1324.3825,,,1324.8657,1325.1204,,18,18,,,,,,,,,,,,,,,,bars/043.png,bars/mask009.png,,,,,,,,,,,,6,1,,,,,,,10,10,10,10,,,,,,,,,,,1324.3825,1324.8657,1325.1204,1326.9645,space,1.8231,,1326.9646,12,68,1327.9656,1327.9656,1327.9815,,,,0,37,37,37,1,30,130,,,,,,,,
,,5f72251e27b82f11aacdd6c1,65af532f30852ac05a101d81,2024-01-22_23h50.19.209,bars,2023.2.3,Win32,59.88023952,657b66ea316d21385b68909f,,,,,,,,,,,1327.9819,1328.978,,,1329.4941,1329.7353,,164,164,,,,,,,,,,,,,,,,bars/004.png,bars/mask005.png,,,,,,,,,,,,0,2,,,,,,,8,10,7,10,,,,,,,,,,,1328.9781,1329.494,1329.7353,1331.3364,space,1.5837,,1331.3365,41,39,1332.3443,1332.3444,1332.3481,,,,0,38,38,38,1,25,125,,,,,,,,
,,5f72251e27b82f11aacdd6c1,65af532f30852ac05a101d81,2024-01-22_23h50.19.209,bars,2023.2.3,Win32,59.88023952,657b66ea316d21385b68909f,,,,,,,,,,,1332.3485,1333.3365,,,1333.838,1334.0846,,163,163,,,,,,,,,,,,,,,,bars/037.png,bars/mask007.png,,,,,,,,,,,,5,1,,,,,,,10,8,9,9,,,,,,,,,,,1333.3365,1333.8379,1334.0846,1334.6629,space,0.5585,,1334.663,13,58,1335.647,1335.6471,1335.6504,,,,0,39,39,39,1,150,105,,,,,,,,
,,5f72251e27b82f11aacdd6c1,65af532f30852ac05a101d81,2024-01-22_23h50.19.209,bars,2023.2.3,Win32,59.88023952,657b66ea316d21385b68909f,,,,,,,,,,,1335.6508,1336.6475,,,1337.13,1337.3741,,46,46,,,,,,,,,,,,,,,,bars/005.png,bars/mask005.png,,,,,,,,,,,,0,1,,,,,,,8,6,7,6,,,,,,,,,,,1336.6476,1337.13,1337.3741,1337.8888,space,0.4911,,1337.8889,36,86,1338.8692,1338.8692,1338.871,,,,0,40,40,40,1,10,140,,,,,,,,
,,5f72251e27b82f11aacdd6c1,65af532f30852ac05a101d81,2024-01-22_23h50.19.209,bars,2023.2.3,Win32,59.88023952,657b66ea316d21385b68909f,,,,,,,,,,,1338.8715,1339.8685,,,1340.3661,1340.6158,,146,146,,,,,,,,,,,,,,,,bars/034.png,bars/mask001.png,,,,,,,,,,,,2,1,,,,,,,6,4,6,4,,,,,,,,,,,1339.8685,1340.366,1340.6158,1341.1996,space,0.5615,,1341.1997,21,81,1342.2,1342.2,1342.2017,,,,0,41,41,41,1,125,65,,,,,,,,
,,5f72251e27b82f11aacdd6c1,65af532f30852ac05a101d81,2024-01-22_23h50.19.209,bars,2023.2.3,Win32,59.88023952,657b66ea316d21385b68909f,,,,,,,,,,,1342.202,1343.1962,,,1343.6961,1343.9493,,139,139,,,,,,,,,,,,,,,,bars/011.png,bars/mask006.png,,,,,,,,,,,,1,1,,,,,,,4,2,3,3,,,,,,,,,,,1343.1962,1343.6961,1343.9494,1345.8343,space,1.8667,,1345.8343,21,54,1346.8309,1346.831,1346.8326,,,,0,42,42,42,1,160,85,,,,,,,,
,,5f72251e27b82f11aacdd6c1,65af532f30852ac05a101d81,2024-01-22_23h50.19.209,bars,2023.2.3,Win32,59.88023952,657b66ea316d21385b68909f,,,,,,,,,,,1346.8329,1347.8282,,,1348.3288,1348.583,,65,65,,,,,,,,,,,,,,,,bars/041.png,bars/mask007.png,,,,,,,,,,,,0,2,,,,,,,6,0,6,0,,,,,,,,,,,1347.8283,1348.3288,1348.5831,1349.3039,space,0.7023,,1349.304,45,20,1350.2955,1350.2955,1350.2985,,,,0,43,43,43,1,20,85,,,,,,,,
,,5f72251e27b82f11aacdd6c1,65af532f30852ac05a101d81,2024-01-22_23h50.19.209,bars,2023.2.3,Win32,59.88023952,657b66ea316d21385b68909f,,,,,,,,,,,1350.299,1351.2947,,,1351.7967,1352.0482,,133,133,,,,,,,,,,,,,,,,bars/005.png,bars/mask009.png,,,,,,,,,,,,2,2,,,,,,,4,2,2,2,,,,,,,,,,,1351.2947,1351.7963,1352.0483,1353.9132,space,1.8374,,1353.9133,57,7,1354.9101,1354.9102,1354.912,,,,0,44,44,44,1,10,140,,,,,,,,
,,5f72251e27b82f11aacdd6c1,65af532f30852ac05a101d81,2024-01-22_23h50.19.209,bars,2023.2.3,Win32,59.88023952,657b66ea316d21385b68909f,,,,,,,,,,,1354.9125,1355.9145,,,1356.411,1356.6616,,129,129,,,,,,,,,,,,,,,,bars/020.png,bars/mask005.png,,,,,,,,,,,,1,1,,,,,,,2,0,1,1,,,,,,,,,,,1355.9146,1356.4109,1356.6617,1358.4169,space,1.7378,,1358.4169,14,41,1359.4144,1359.4145,1359.4177,,,,0,45,45,45,1,115,170,,,,,,,,
,,5f72251e27b82f11aacdd6c1,65af532f30852ac05a101d81,2024-01-22_23h50.19.209,bars,2023.2.3,Win32,59.88023952,657b66ea316d21385b68909f,,,,,,,,,,,1359.4181,1360.4174,,,1360.9109,1361.1619,,146,146,,,,,,,,,,,,,,,,bars/014.png,bars/mask008.png,,,,,,,,,,,,0,2,,,,,,,0,2,0,2,,,,,,,,,,,1360.4175,1360.9109,1361.1619,1363.2473,space,2.0686,,1363.2474,66,34,1364.2585,1364.2585,1364.2762,,,,0,46,46,46,1,80,0,,,,,,,,
,,5f72251e27b82f11aacdd6c1,65af532f30852ac05a101d81,2024-01-22_23h50.19.209,bars,2023.2.3,Win32,59.88023952,657b66ea316d21385b68909f,,,,,,,,,,,1364.2773,1365.265,,,1365.7644,1366.0158,,57,57,,,,,,,,,,,,,,,,bars/046.png,bars/mask005.png,,,,,,,,,,,,0,2,,,,,,,2,4,3,4,,,,,,,,,,,1365.2651,1365.7643,1366.0159,1366.6463,space,0.6132,,1366.6464,82,28,1367.649,1367.6491,1367.6506,,,,0,47,47,47,1,155,85,,,,,,,,
,,5f72251e27b82f11aacdd6c1,65af532f30852ac05a101d81,2024-01-22_23h50.19.209,bars,2023.2.3,Win32,59.88023952,657b66ea316d21385b68909f,,,,,,,,,,,1367.651,1368.6629,,,1369.1458,1369.3998,,18,18,,,,,,,,,,,,,,,,bars/014.png,bars/mask007.png,,,,,,,,,,,,2,2,,,,,,,4,2,4,4,,,,,,,,,,,1368.6629,1369.1458,1369.3999,1370.6996,space,1.2823,,1370.6996,62,18,1371.6781,1371.6782,1371.6801,,,,0,48,48,48,1,80,0,,,,,,,,
,,5f72251e27b82f11aacdd6c1,65af532f30852ac05a101d81,2024-01-22_23h50.19.209,bars,2023.2.3,Win32,59.88023952,657b66ea316d21385b68909f,,,,,,,,,,,1371.6806,1372.6805,,,1373.1755,1373.4111,,163,163,,,,,,,,,,,,,,,,bars/008.png,bars/mask009.png,,,,,,,,,,,,1,2,,,,,,,6,4,7,3,,,,,,,,,,,1372.6805,1373.1754,1373.4112,1374.4317,space,1.0028,,1374.4317,53,17,1375.4308,1375.4308,1375.4324,,,,0,49,49,49,1,110,0,,,,,,,,
,,5f72251e27b82f11aacdd6c1,65af532f30852ac05a101d81,2024-01-22_23h50.19.209,bars,2023.2.3,Win32,59.88023952,657b66ea316d21385b68909f,,,,,,,,,,,,,,,,,,,,,,,,,,,,,,,,,,,,,,,,,,,,,,,,,,,,,,,,,,,,,,,,,,,,,,,,,,,,,,,,,,,,,,,,,,,,,1375.4326,1435.4231,0,1,1,1,1,sequence_tables/blk025.csv
,,5f72251e27b82f11aacdd6c1,65af532f30852ac05a101d81,2024-01-22_23h50.19.209,bars,2023.2.3,Win32,59.88023952,657b66ea316d21385b68909f,,,,,,,,,,,1437.2807,1438.2887,,,1438.7751,1439.0293,,43,43,,,,,,,,,,,,,,,,bars/047.png,bars/mask008.png,,,,,,,,,,,,1,2,,,,,,,1,6,1,7,,,,,,1435.4389,1437.2745,space,1.8243,,1438.2888,1438.775,1439.0294,1440.6901,space,1.6432,,1440.6903,28,27,1441.6895,1441.6895,1441.7041,,,,0,0,0,0,1,15,70,,,,,,,,
,,5f72251e27b82f11aacdd6c1,65af532f30852ac05a101d81,2024-01-22_23h50.19.209,bars,2023.2.3,Win32,59.88023952,657b66ea316d21385b68909f,,,,,,,,,,,1441.7045,1442.7059,,,1443.1915,1443.4436,,93,93,,,,,,,,,,,,,,,,bars/028.png,bars/mask009.png,,,,,,,,,,,,0,2,,,,,,,3,4,2,5,,,,,,,,,,,1442.7059,1443.1915,1443.4437,1444.7253,space,1.2639,,1444.7253,48,27,1445.714,1445.714,1445.7292,,,,0,1,1,1,1,45,120,,,,,,,,
,,5f72251e27b82f11aacdd6c1,65af532f30852ac05a101d81,2024-01-22_23h50.19.209,bars,2023.2.3,Win32,59.88023952,657b66ea316d21385b68909f,,,,,,,,,,,1445.7295,1446.7065,,,1447.1899,1447.4353,,5,185,,,,,,,,,,,,,,,,bars/031.png,bars/mask001.png,,,,,,,,,,,,0,2,,,,,,,1,6,2,5,,,,,,,,,,,1446.7066,1447.1898,1447.4353,1448.945,space,1.4894,,1448.945,65,30,1449.9461,1449.9461,1449.9605,,,,0,2,2,2,1,120,35,,,,,,,,
,,5f72251e27b82f11aacdd6c1,65af532f30852ac05a101d81,2024-01-22_23h50.19.209,bars,2023.2.3,Win32,59.88023952,657b66ea316d21385b68909f,,,,,,,,,,,1449.9609,1450.9629,,,1451.4606,1451.7105,,100,100,,,,,,,,,,,,,,,,bars/036.png,bars/mask004.png,,,,,,,,,,,,0,1,,,,,,,3,4,3,5,,,,,,,,,,,1450.9629,1451.4605,1451.7105,1452.2464,space,0.519,,1452.2465,45,80,1453.2544,1453.2545,1453.2578,,,,0,3,3,3,1,145,20,,,,,,,,
,,5f72251e27b82f11aacdd6c1,65af532f30852ac05a101d81,2024-01-22_23h50.19.209,bars,2023.2.3,Win32,59.88023952,657b66ea316d21385b68909f,,,,,,,,,,,1453.2582,1454.2607,,,1454.7569,1455.0113,,163,163,,,,,,,,,,,,,,,,bars/029.png,bars/mask003.png,,,,,,,,,,,,0,2,,,,,,,1,6,1,6,,,,,,,,,,,1454.2608,1454.7569,1455.0113,1456.5717,space,1.5424,,1456.572,73,62,1457.5744,1457.5744,1457.578,,,,0,4,4,4,1,90,45,,,,,,,,
,,5f72251e27b82f11aacdd6c1,65af532f30852ac05a101d81,2024-01-22_23h50.19.209,bars,2023.2.3,Win32,59.88023952,657b66ea316d21385b68909f,,,,,,,,,,,1457.5784,1458.5795,,,1459.0682,1459.3246,,176,176,,,,,,,,,,,,,,,,bars/021.png,bars/mask003.png,,,,,,,,,,,,1,1,,,,,,,3,4,4,4,,,,,,,,,,,1458.5796,1459.0682,1459.3247,1459.9684,space,0.6227,,1459.9685,21,74,1460.9468,1460.9469,1460.9504,,,,0,5,5,5,1,155,70,,,,,,,,
,,5f72251e27b82f11aacdd6c1,65af532f30852ac05a101d81,2024-01-22_23h50.19.209,bars,2023.2.3,Win32,59.88023952,657b66ea316d21385b68909f,,,,,,,,,,,1460.9508,1461.9582,,,1462.4579,1462.7129,,19,19,,,,,,,,,,,,,,,,bars/032.png,bars/mask005.png,,,,,,,,,,,,6,2,,,,,,,5,6,4,6,,,,,,,,,,,1461.9584,1462.4578,1462.713,1463.2894,space,0.5551,,1463.2896,74,1,1464.2848,1464.2849,1464.2882,,,,0,6,6,6,1,125,20,,,,,,,,
,,5f72251e27b82f11aacdd6c1,65af532f30852ac05a101d81,2024-01-22_23h50.19.209,bars,2023.2.3,Win32,59.88023952,657b66ea316d21385b68909f,,,,,,,,,,,1464.289,1465.2894,,,1465.7891,1466.0393,,24,24,,,,,,,,,,,,,,,,bars/010.png,bars/mask009.png,,,,,,,,,,,,0,2,,,,,,,7,4,9,4,,,,,,,,,,,1465.2894,1465.789,1466.0394,1466.7738,space,0.7186,,1466.7739,39,31,1467.7724,1467.7725,1467.7735,,,,0,7,7,7,1,165,55,,,,,,,,
,,5f72251e27b82f11aacdd6c1,65af532f30852ac05a101d81,2024-01-22_23h50.19.209,bars,2023.2.3,Win32,59.88023952,657b66ea316d21385b68909f,,,,,,,,,,,1467.774,1468.7721,,,1469.2731,1469.5238,,100,100,,,,,,,,,,,,,,,,bars/017.png,bars/mask008.png,,,,,,,,,,,,0,1,,,,,,,9,6,9,7,,,,,,,,,,,1468.7722,1469.273,1469.5239,1470.5688,space,1.0281,,1470.5688,45,55,1471.5573,1471.5573,1471.5606,,,,0,8,8,8,1,145,45,,,,,,,,
,,5f72251e27b82f11aacdd6c1,65af532f30852ac05a101d81,2024-01-22_23h50.19.209,bars,2023.2.3,Win32,59.88023952,657b66ea316d21385b68909f,,,,,,,,,,,1471.5613,1472.5672,,,1473.0687,1473.2951,,136,136,,,,,,,,,,,,,,,,bars/030.png,bars/mask000.png,,,,,,,,,,,,9,1,,,,,,,10,4,10,5,,,,,,,,,,,1472.5673,1473.0686,1473.2952,1473.968,space,0.6508,,1473.9681,4,71,1474.9759,1474.9759,1474.9769,,,,0,9,9,9,1,140,65,,,,,,,,
,,5f72251e27b82f11aacdd6c1,65af532f30852ac05a101d81,2024-01-22_23h50.19.209,bars,2023.2.3,Win32,59.88023952,657b66ea316d21385b68909f,,,,,,,,,,,1474.9772,1475.9769,,,1476.4712,1476.7104,,144,144,,,,,,,,,,,,,,,,bars/031.png,bars/mask002.png,,,,,,,,,,,,2,1,,,,,,,8,2,9,3,,,,,,,,,,,1475.9769,1476.4712,1476.7105,1478.3372,space,1.6086,,1478.3373,24,71,1479.3297,1479.3297,1479.3311,,,,0,10,10,10,1,120,35,,,,,,,,
,,5f72251e27b82f11aacdd6c1,65af532f30852ac05a101d81,2024-01-22_23h50.19.209,bars,2023.2.3,Win32,59.88023952,657b66ea316d21385b68909f,,,,,,,,,,,1479.3314,1480.328,,,1480.8361,1481.0836,,149,149,,,,,,,,,,,,,,,,bars/012.png,bars/mask007.png,,,,,,,,,,,,0,2,,,,,,,6,4,6,5,,,,,,,,,,,1480.3281,1480.836,1481.0836,1481.8271,space,0.7244,,1481.8273,59,46,1482.8287,1482.8288,1482.832,,,,0,11,11,11,1,90,15,,,,,,,,
,,5f72251e27b82f11aacdd6c1,65af532f30852ac05a101d81,2024-01-22_23h50.19.209,bars,2023.2.3,Win32,59.88023952,657b66ea316d21385b68909f,,,,,,,,,,,1482.8324,1483.8227,,,1484.3234,1484.5741,,70,70,,,,,,,,,,,,,,,,bars/011.png,bars/mask000.png,,,,,,,,,,,,3,2,,,,,,,8,6,8,5,,,,,,,,,,,1483.8227,1484.3233,1484.5742,1485.3934,space,0.801,,1485.3935,90,15,1486.3995,1486.3995,1486.4009,,,,0,12,12,12,1,160,85,,,,,,,,
,,5f72251e27b82f11aacdd6c1,65af532f30852ac05a101d81,2024-01-22_23h50.19.209,bars,2023.2.3,Win32,59.88023952,657b66ea316d21385b68909f,,,,,,,,,,,1486.4013,1487.3931,,,1487.8869,1488.1233,,26,26,,,,,,,,,,,,,,,,bars/002.png,bars/mask006.png,,,,,,,,,,,,0,2,,,,,,,6,4,5,4,,,,,,,,,,,1487.3931,1487.8868,1488.1233,1489.609,space,1.4691,,1489.6091,76,59,1490.6182,1490.6183,1490.6339,,,,0,13,13,13,1,130,85,,,,,,,,
,,5f72251e27b82f11aacdd6c1,65af532f30852ac05a101d81,2024-01-22_23h50.19.209,bars,2023.2.3,Win32,59.88023952,657b66ea316d21385b68909f,,,,,,,,,,,1490.6343,1491.6368,,,1492.1373,1492.3846,,68,68,,,,,,,,,,,,,,,,bars/045.png,bars/mask004.png,,,,,,,,,,,,0,1,,,,,,,8,6,7,5,,,,,,,,,,,1491.6369,1492.1371,1492.3847,1494.3375,space,1.9349,,1494.3376,32,58,1495.3387,1495.3387,1495.3422,,,,0,14,14,14,1,100,10,,,,,,,,
,,5f72251e27b82f11aacdd6c1,65af532f30852ac05a101d81,2024-01-22_23h50.19.209,bars,2023.2.3,Win32,59.88023952,657b66ea316d21385b68909f,,,,,,,,,,,1495.3427,1496.3271,,,1496.8055,1497.0541,,130,130,,,,,,,,,,,,,,,,bars/041.png,bars/mask008.png,,,,,,,,,,,,0,2,,,,,,,6,8,6,9,,,,,,,,,,,1496.3272,1496.8054,1497.0541,1498.0212,space,0.9502,,1498.0213,70,45,1499.0218,1499.0219,1499.0264,,,,0,15,15,15,1,20,85,,,,,,,,
,,5f72251e27b82f11aacdd6c1,65af532f30852ac05a101d81,2024-01-22_23h50.19.209,bars,2023.2.3,Win32,59.88023952,657b66ea316d21385b68909f,,,,,,,,,,,1499.0271,1500.0217,,,1500.5224,1500.7719,,57,57,,,,,,,,,,,,,,,,bars/038.png,bars/mask006.png,,,,,,,,,,,,6,2,,,,,,,8,10,9,10,,,,,,,,,,,1500.0218,1500.5223,1500.772,1501.2071,space,0.4187,,1501.2072,72,13,1502.2049,1502.205,1502.2064,,,,0,16,16,16,1,165,70,,,,,,,,
,,5f72251e27b82f11aacdd6c1,65af532f30852ac05a101d81,2024-01-22_23h50.19.209,bars,2023.2.3,Win32,59.88023952,657b66ea316d21385b68909f,,,,,,,,,,,1502.2069,1503.2049,,,1503.704,1503.9548,,73,73,,,,,,,,,,,,,,,,bars/012.png,bars/mask001.png,,,,,,,,,,,,2,1,,,,,,,6,10,5,8,,,,,,,,,,,1503.205,1503.704,1503.9548,1504.3579,space,0.3929,,1504.358,17,58,1505.3548,1505.3549,1505.3592,,,,0,17,17,17,1,90,15,,,,,,,,
,,5f72251e27b82f11aacdd6c1,65af532f30852ac05a101d81,2024-01-22_23h50.19.209,bars,2023.2.3,Win32,59.88023952,657b66ea316d21385b68909f,,,,,,,,,,,1505.3601,1506.3536,,,1506.8546,1507.1042,,40,40,,,,,,,,,,,,,,,,bars/015.png,bars/mask009.png,,,,,,,,,,,,0,2,,,,,,,4,10,4,10,,,,,,,,,,,1506.3537,1506.8545,1507.1043,1507.7865,space,0.6681,,1507.7865,70,60,1508.7875,1508.7876,1508.7921,,,,0,18,18,18,1,110,160,,,,,,,,
,,5f72251e27b82f11aacdd6c1,65af532f30852ac05a101d81,2024-01-22_23h50.19.209,bars,2023.2.3,Win32,59.88023952,657b66ea316d21385b68909f,,,,,,,,,,,1508.7927,1509.7875,,,1510.2863,1510.5363,,147,147,,,,,,,,,,,,,,,,bars/004.png,bars/mask007.png,,,,,,,,,,,,2,2,,,,,,,6,8,6,8,,,,,,,,,,,1509.7875,1510.2863,1510.5363,1511.3051,space,0.7593,,1511.3052,58,22,1512.3107,1512.3107,1512.3125,,,,0,19,19,19,1,25,125,,,,,,,,
,,5f72251e27b82f11aacdd6c1,65af532f30852ac05a101d81,2024-01-22_23h50.19.209,bars,2023.2.3,Win32,59.88023952,657b66ea316d21385b68909f,,,,,,,,,,,1512.313,1513.3026,,,1513.8045,1514.0514,,117,117,,,,,,,,,,,,,,,,bars/032.png,bars/mask002.png,,,,,,,,,,,,3,1,,,,,,,4,6,4,6,,,,,,,,,,,1513.3027,1513.8044,1514.0515,1516.5737,space,2.504,,1516.574,8,83,1517.5686,1517.5687,1517.5875,,,,0,20,20,20,1,125,20,,,,,,,,
,,5f72251e27b82f11aacdd6c1,65af532f30852ac05a101d81,2024-01-22_23h50.19.209,bars,2023.2.3,Win32,59.88023952,657b66ea316d21385b68909f,,,,,,,,,,,1517.5878,1518.5988,,,1519.096,1519.3453,,70,70,,,,,,,,,,,,,,,,bars/045.png,bars/mask009.png,,,,,,,,,,,,0,1,,,,,,,2,8,3,8,,,,,,,,,,,1518.5989,1519.096,1519.3454,1520.0555,space,0.6873,,1520.0557,30,60,1521.0565,1521.0565,1521.0579,,,,0,21,21,21,1,100,10,,,,,,,,
,,5f72251e27b82f11aacdd6c1,65af532f30852ac05a101d81,2024-01-22_23h50.19.209,bars,2023.2.3,Win32,59.88023952,657b66ea316d21385b68909f,,,,,,,,,,,1521.0584,1522.0499,,,1522.5407,1522.7852,,12,192,,,,,,,,,,,,,,,,bars/007.png,bars/mask000.png,,,,,,,,,,,,2,1,,,,,,,4,6,5,8,,,,,,,,,,,1522.05,1522.5407,1522.7852,1523.8074,space,1.0045,,1523.8074,17,43,1524.8019,1524.8019,1524.8034,,,,0,22,22,22,1,175,55,,,,,,,,
,,5f72251e27b82f11aacdd6c1,65af532f30852ac05a101d81,2024-01-22_23h50.19.209,bars,2023.2.3,Win32,59.88023952,657b66ea316d21385b68909f,,,,,,,,,,,1524.8037,1525.805,,,1526.3095,1526.5528,,100,100,,,,,,,,,,,,,,,,bars/023.png,bars/mask001.png,,,,,,,,,,,,5,2,,,,,,,6,8,4,9,,,,,,,,,,,1525.805,1526.3095,1526.5529,1527.469,space,0.8965,,1527.469,80,15,1528.4681,1528.4681,1528.471,,,,0,23,23,23,1,20,115,,,,,,,,
,,5f72251e27b82f11aacdd6c1,65af532f30852ac05a101d81,2024-01-22_23h50.19.209,bars,2023.2.3,Win32,59.88023952,657b66ea316d21385b68909f,,,,,,,,,,,1528.4715,1529.47,,,1529.9845,1530.2226,,71,71,,,,,,,,,,,,,,,,bars/025.png,bars/mask001.png,,,,,,,,,,,,0,2,,,,,,,8,6,8,8,,,,,,,,,,,1529.47,1529.9845,1530.2226,1531.0539,space,0.8125,,1531.054,34,31,1532.0582,1532.0583,1532.0598,,,,0,24,24,24,1,105,40,,,,,,,,
,,5f72251e27b82f11aacdd6c1,65af532f30852ac05a101d81,2024-01-22_23h50.19.209,bars,2023.2.3,Win32,59.88023952,657b66ea316d21385b68909f,,,,,,,,,,,1532.0602,1533.0515,,,1533.542,1533.7823,,30,30,,,,,,,,,,,,,,,,bars/035.png,bars/mask000.png,,,,,,,,,,,,0,2,,,,,,,6,8,7,8,,,,,,,,,,,1533.0515,1533.542,1533.7824,1535.5416,space,1.7414,,1535.5419,35,30,1536.5344,1536.5344,1536.5359,,,,0,25,25,25,1,175,60,,,,,,,,
,,5f72251e27b82f11aacdd6c1,65af532f30852ac05a101d81,2024-01-22_23h50.19.209,bars,2023.2.3,Win32,59.88023952,657b66ea316d21385b68909f,,,,,,,,,,,1536.5363,1537.5386,,,1538.0336,1538.2851,,84,84,,,,,,,,,,,,,,,,bars/012.png,bars/mask001.png,,,,,,,,,,,,4,1,,,,,,,4,6,5,5,,,,,,,,,,,1537.5386,1538.0335,1538.2852,1538.7533,space,0.4512,,1538.7535,6,69,1539.7531,1539.7533,1539.7567,,,,0,26,26,26,1,90,15,,,,,,,,
,,5f72251e27b82f11aacdd6c1,65af532f30852ac05a101d81,2024-01-22_23h50.19.209,bars,2023.2.3,Win32,59.88023952,657b66ea316d21385b68909f,,,,,,,,,,,1539.7572,1540.766,,,1541.2815,1541.5193,,73,73,,,,,,,,,,,,,,,,bars/017.png,bars/mask007.png,,,,,,,,,,,,0,2,,,,,,,6,4,6,3,,,,,,,,,,,1540.7661,1541.2815,1541.5193,1542.2516,space,0.711,,1542.2516,72,28,1543.2568,1543.2568,1543.2601,,,,0,27,27,27,1,145,45,,,,,,,,
,,5f72251e27b82f11aacdd6c1,65af532f30852ac05a101d81,2024-01-22_23h50.19.209,bars,2023.2.3,Win32,59.88023952,657b66ea316d21385b68909f,,,,,,,,,,,1543.2604,1544.2492,,,1544.743,1544.985,,137,137,,,,,,,,,,,,,,,,bars/001.png,bars/mask005.png,,,,,,,,,,,,5,1,,,,,,,8,2,6,2,,,,,,,,,,,1544.2492,1544.7429,1544.9851,1545.3925,space,0.3852,,1545.3926,7,52,1546.3842,1546.3842,1546.3871,,,,0,28,28,28,1,130,85,,,,,,,,
,,5f72251e27b82f11aacdd6c1,65af532f30852ac05a101d81,2024-01-22_23h50.19.209,bars,2023.2.3,Win32,59.88023952,657b66ea316d21385b68909f,,,,,,,,,,,1546.3875,1547.3686,,,1547.8656,1548.1204,,152,152,,,,,,,,,,,,,,,,bars/015.png,bars/mask004.png,,,,,,,,,,,,0,2,,,,,,,6,0,7,0,,,,,,,,,,,1547.3686,1547.8655,1548.1204,1548.5261,space,0.3876,,1548.5263,42,8,1549.5236,1549.5237,1549.5273,,,,0,29,29,29,1,110,160,,,,,,,,
,,5f72251e27b82f11aacdd6c1,65af532f30852ac05a101d81,2024-01-22_23h50.19.209,bars,2023.2.3,Win32,59.88023952,657b66ea316d21385b68909f,,,,,,,,,,,1549.5278,1550.5255,,,1551.0194,1551.2677,,39,39,,,,,,,,,,,,,,,,bars/004.png,bars/mask009.png,,,,,,,,,,,,5,1,,,,,,,8,0,9,0,,,,,,,,,,,1550.5255,1551.0194,1551.2679,1551.9309,space,0.645,,1551.931,14,86,1552.9241,1552.9241,1552.9269,,,,0,30,30,30,1,25,125,,,,,,,,
,,5f72251e27b82f11aacdd6c1,65af532f30852ac05a101d81,2024-01-22_23h50.19.209,bars,2023.2.3,Win32,59.88023952,657b66ea316d21385b68909f,,,,,,,,,,,1552.9274,1553.9172,,,1554.4151,1554.6569,,92,92,,,,,,,,,,,,,,,,bars/043.png,bars/mask003.png,,,,,,,,,,,,0,2,,,,,,,10,0,10,2,,,,,,,,,,,1553.9172,1554.415,1554.6569,1555.2916,space,0.6107,,1555.2917,62,38,1556.2859,1556.2859,1556.2893,,,,0,31,31,31,1,30,130,,,,,,,,
,,5f72251e27b82f11aacdd6c1,65af532f30852ac05a101d81,2024-01-22_23h50.19.209,bars,2023.2.3,Win32,59.88023952,657b66ea316d21385b68909f,,,,,,,,,,,1556.2898,1557.2869,,,1557.7864,1558.0313,,59,59,,,,,,,,,,,,,,,,bars/044.png,bars/mask002.png,,,,,,,,,,,,4,1,,,,,,,10,0,9,0,,,,,,,,,,,1557.2869,1557.7864,1558.0313,1560.0894,space,2.0386,,1560.0895,16,84,1561.0971,1561.0972,1561.1161,,,,0,32,32,32,1,75,155,,,,,,,,
,,5f72251e27b82f11aacdd6c1,65af532f30852ac05a101d81,2024-01-22_23h50.19.209,bars,2023.2.3,Win32,59.88023952,657b66ea316d21385b68909f,,,,,,,,,,,1561.1166,1562.1192,,,1562.6168,1562.8649,,129,129,,,,,,,,,,,,,,,,bars/020.png,bars/mask000.png,,,,,,,,,,,,5,1,,,,,,,10,0,10,1,,,,,,,,,,,1562.1193,1562.6168,1562.8651,1564.5827,space,1.6992,,1564.5827,14,41,1565.5827,1565.5827,1565.5992,,,,0,33,33,33,1,115,170,,,,,,,,
,,5f72251e27b82f11aacdd6c1,65af532f30852ac05a101d81,2024-01-22_23h50.19.209,bars,2023.2.3,Win32,59.88023952,657b66ea316d21385b68909f,,,,,,,,,,,1565.5996,1566.5886,,,1567.0673,1567.3187,,27,27,,,,,,,,,,,,,,,,bars/000.png,bars/mask005.png,,,,,,,,,,,,5,1,,,,,,,8,2,9,2,,,,,,,,,,,1566.5886,1567.0672,1567.3187,1568.0156,space,0.6739,,1568.0156,13,62,1569.0229,1569.0229,1569.0247,,,,0,34,34,34,1,40,145,,,,,,,,
,,5f72251e27b82f11aacdd6c1,65af532f30852ac05a101d81,2024-01-22_23h50.19.209,bars,2023.2.3,Win32,59.88023952,657b66ea316d21385b68909f,,,,,,,,,,,1569.0251,1570.0214,,,1570.5228,1570.7693,,139,139,,,,,,,,,,,,,,,,bars/045.png,bars/mask002.png,,,,,,,,,,,,0,1,,,,,,,10,4,10,5,,,,,,,,,,,1570.0215,1570.5224,1570.7693,1571.8099,space,1.0211,,1571.8099,39,51,1572.8064,1572.8065,1572.8084,,,,0,35,35,35,1,100,10,,,,,,,,
,,5f72251e27b82f11aacdd6c1,65af532f30852ac05a101d81,2024-01-22_23h50.19.209,bars,2023.2.3,Win32,59.88023952,657b66ea316d21385b68909f,,,,,,,,,,,1572.8088,1573.8137,,,1574.3158,1574.5639,,20,20,,,,,,,,,,,,,,,,bars/011.png,bars/mask004.png,,,,,,,,,,,,0,1,,,,,,,8,6,7,5,,,,,,,,,,,1573.8137,1574.3158,1574.5639,1575.3513,space,0.7694,,1575.3513,40,65,1576.3562,1576.3562,1576.3573,,,,0,36,36,36,1,160,85,,,,,,,,
,,5f72251e27b82f11aacdd6c1,65af532f30852ac05a101d81,2024-01-22_23h50.19.209,bars,2023.2.3,Win32,59.88023952,657b66ea316d21385b68909f,,,,,,,,,,,1576.3577,1577.348,,,1577.8507,1578.0897,,44,44,,,,,,,,,,,,,,,,bars/034.png,bars/mask006.png,,,,,,,,,,,,3,2,,,,,,,6,8,7,9,,,,,,,,,,,1577.348,1577.8507,1578.0899,1579.7514,space,1.6372,,1579.7515,81,21,1580.7548,1580.7548,1580.7583,,,,0,37,37,37,1,125,65,,,,,,,,
,,5f72251e27b82f11aacdd6c1,65af532f30852ac05a101d81,2024-01-22_23h50.19.209,bars,2023.2.3,Win32,59.88023952,657b66ea316d21385b68909f,,,,,,,,,,,1580.7588,1581.7642,,,1582.2555,1582.5019,,66,66,,,,,,,,,,,,,,,,bars/025.png,bars/mask000.png,,,,,,,,,,,,1,2,,,,,,,8,6,8,7,,,,,,,,,,,1581.7642,1582.2555,1582.502,1584.7014,space,2.1815,,1584.7014,39,26,1585.7027,1585.7027,1585.7189,,,,0,38,38,38,1,105,40,,,,,,,,
,,5f72251e27b82f11aacdd6c1,65af532f30852ac05a101d81,2024-01-22_23h50.19.209,bars,2023.2.3,Win32,59.88023952,657b66ea316d21385b68909f,,,,,,,,,,,1585.7193,1586.7227,,,1587.2012,1587.4441,,144,144,,,,,,,,,,,,,,,,bars/012.png,bars/mask005.png,,,,,,,,,,,,0,2,,,,,,,10,4,9,3,,,,,,,,,,,1586.7228,1587.2012,1587.4443,1588.4227,space,0.9558,,1588.4228,54,51,1589.422,1589.4221,1589.4387,,,,0,39,39,39,1,90,15,,,,,,,,
,,5f72251e27b82f11aacdd6c1,65af532f30852ac05a101d81,2024-01-22_23h50.19.209,bars,2023.2.3,Win32,59.88023952,657b66ea316d21385b68909f,,,,,,,,,,,1589.4391,1590.4389,,,1590.9159,1591.1627,,179,179,,,,,,,,,,,,,,,,bars/038.png,bars/mask002.png,,,,,,,,,,,,5,1,,,,,,,10,2,10,3,,,,,,,,,,,1590.4389,1590.9158,1591.1628,1591.9511,space,0.7671,,1591.9512,14,71,1592.9502,1592.9502,1592.9537,,,,0,40,40,40,1,165,70,,,,,,,,
,,5f72251e27b82f11aacdd6c1,65af532f30852ac05a101d81,2024-01-22_23h50.19.209,bars,2023.2.3,Win32,59.88023952,657b66ea316d21385b68909f,,,,,,,,,,,1592.9542,1593.9475,,,1594.4478,1594.7024,,163,163,,,,,,,,,,,,,,,,bars/028.png,bars/mask003.png,,,,,,,,,,,,0,2,,,,,,,10,0,10,0,,,,,,,,,,,1593.9476,1594.4477,1594.7025,1595.7488,space,1.0271,,1595.7489,62,43,1596.7469,1596.7469,1596.7499,,,,0,41,41,41,1,45,120,,,,,,,,
,,5f72251e27b82f11aacdd6c1,65af532f30852ac05a101d81,2024-01-22_23h50.19.209,bars,2023.2.3,Win32,59.88023952,657b66ea316d21385b68909f,,,,,,,,,,,1596.7504,1597.7541,,,1598.257,1598.4972,,65,65,,,,,,,,,,,,,,,,bars/014.png,bars/mask004.png,,,,,,,,,,,,5,1,,,,,,,10,2,10,2,,,,,,,,,,,1597.7541,1598.2569,1598.4975,1599.2033,space,0.6878,,1599.2033,15,65,1600.1983,1600.1983,1600.2013,,,,0,42,42,42,1,80,0,,,,,,,,
,,5f72251e27b82f11aacdd6c1,65af532f30852ac05a101d81,2024-01-22_23h50.19.209,bars,2023.2.3,Win32,59.88023952,657b66ea316d21385b68909f,,,,,,,,,,,1600.2018,1601.2018,,,1601.7016,1601.9563,,14,194,,,,,,,,,,,,,,,,bars/017.png,bars/mask008.png,,,,,,,,,,,,0,2,,,,,,,8,0,8,0,,,,,,,,,,,1601.2018,1601.7014,1601.9563,1603.8351,space,1.8529,,1603.8351,49,31,1604.8333,1604.8335,1604.8363,,,,0,43,43,43,1,145,45,,,,,,,,
,,5f72251e27b82f11aacdd6c1,65af532f30852ac05a101d81,2024-01-22_23h50.19.209,bars,2023.2.3,Win32,59.88023952,657b66ea316d21385b68909f,,,,,,,,,,,1604.8369,1605.8288,,,1606.3329,1606.5911,,64,64,,,,,,,,,,,,,,,,bars/031.png,bars/mask008.png,,,,,,,,,,,,0,2,,,,,,,6,0,6,0,,,,,,,,,,,1605.8289,1606.3328,1606.5912,1608.3144,space,1.6991,,1608.3144,56,29,1609.2983,1609.2983,1609.3005,,,,0,44,44,44,1,120,35,,,,,,,,
,,5f72251e27b82f11aacdd6c1,65af532f30852ac05a101d81,2024-01-22_23h50.19.209,bars,2023.2.3,Win32,59.88023952,657b66ea316d21385b68909f,,,,,,,,,,,1609.3009,1610.2888,,,1610.7799,1611.0311,,166,166,,,,,,,,,,,,,,,,bars/032.png,bars/mask001.png,,,,,,,,,,,,0,2,,,,,,,4,0,4,0,,,,,,,,,,,1610.2888,1610.7799,1611.0311,1611.7648,space,0.7154,,1611.7648,41,34,1612.759,1612.7591,1612.7608,,,,0,45,45,45,1,125,20,,,,,,,,
,,5f72251e27b82f11aacdd6c1,65af532f30852ac05a101d81,2024-01-22_23h50.19.209,bars,2023.2.3,Win32,59.88023952,657b66ea316d21385b68909f,,,,,,,,,,,1612.7612,1613.7638,,,1614.2536,1614.4987,,170,170,,,,,,,,,,,,,,,,bars/040.png,bars/mask000.png,,,,,,,,,,,,1,2,,,,,,,6,2,4,2,,,,,,,,,,,1613.7638,1614.2536,1614.4988,1615.7471,space,1.2306,,1615.7472,30,15,1616.7491,1616.7492,1616.7509,,,,0,46,46,46,1,140,5,,,,,,,,
,,5f72251e27b82f11aacdd6c1,65af532f30852ac05a101d81,2024-01-22_23h50.19.209,bars,2023.2.3,Win32,59.88023952,657b66ea316d21385b68909f,,,,,,,,,,,1616.7513,1617.7557,,,1618.2331,1618.4859,,68,68,,,,,,,,,,,,,,,,bars/027.png,bars/mask008.png,,,,,,,,,,,,2,2,,,,,,,4,4,4,4,,,,,,,,,,,1617.7559,1618.233,1618.4859,1620.1975,space,1.6936,,1620.1975,42,18,1621.1958,1621.1958,1621.1976,,,,0,47,47,47,1,110,50,,,,,,,,
,,5f72251e27b82f11aacdd6c1,65af532f30852ac05a101d81,2024-01-22_23h50.19.209,bars,2023.2.3,Win32,59.88023952,657b66ea316d21385b68909f,,,,,,,,,,,1621.198,1622.1973,,,1622.7,1622.957,,114,114,,,,,,,,,,,,,,,,bars/031.png,bars/mask001.png,,,,,,,,,,,,6,1,,,,,,,6,6,7,5,,,,,,,,,,,1622.1973,1622.7,1622.9571,1623.9712,space,0.9891,,1623.9713,6,79,1624.9523,1624.9524,1624.9556,,,,0,48,48,48,1,120,35,,,,,,,,
,,5f72251e27b82f11aacdd6c1,65af532f30852ac05a101d81,2024-01-22_23h50.19.209,bars,2023.2.3,Win32,59.88023952,657b66ea316d21385b68909f,,,,,,,,,,,1624.956,1625.9449,,,1626.4385,1626.6973,,170,170,,,,,,,,,,,,,,,,bars/016.png,bars/mask000.png,,,,,,,,,,,,7,2,,,,,,,8,8,9,8,,,,,,,,,,,1625.945,1626.4385,1626.6973,1627.3996,space,0.6841,,1627.3997,50,5,1628.4148,1628.415,1628.4191,,,,0,49,49,49,1,40,165,,,,,,,,
,,5f72251e27b82f11aacdd6c1,65af532f30852ac05a101d81,2024-01-22_23h50.19.209,bars,2023.2.3,Win32,59.88023952,657b66ea316d21385b68909f,,,,,,,,,,,,,,,,,,,,,,,,,,,,,,,,,,,,,,,,,,,,,,,,,,,,,,,,,,,,,,,,,,,,,,,,,,,,,,,,,,,,,,,,,,,,,1628.4193,1688.412,0,2,2,0,1,sequence_tables/blk034.csv
,,5f72251e27b82f11aacdd6c1,65af532f30852ac05a101d81,2024-01-22_23h50.19.209,bars,2023.2.3,Win32,59.88023952,657b66ea316d21385b68909f,,,,,,,,,,,1690.6659,1691.6657,,,1692.1661,1692.4077,,117,117,,,,,,,,,,,,,,,,bars/000.png,bars/mask001.png,,,,,,,,,,,,0,2,,,,,,,10,7,10,7,,,,,,1688.4375,1690.6598,space,2.2112,,1691.6658,1692.1661,1692.4078,1693.6471,space,1.2217,,1693.6472,77,28,1694.6404,1694.6405,1694.6557,,,,0,0,0,0,1,40,145,,,,,,,,
,,5f72251e27b82f11aacdd6c1,65af532f30852ac05a101d81,2024-01-22_23h50.19.209,bars,2023.2.3,Win32,59.88023952,657b66ea316d21385b68909f,,,,,,,,,,,1694.6561,1695.6462,,,1696.1265,1696.3638,,113,113,,,,,,,,,,,,,,,,bars/047.png,bars/mask004.png,,,,,,,,,,,,0,2,,,,,,,8,9,8,8,,,,,,,,,,,1695.6462,1696.1265,1696.3638,1697.1458,space,0.764,,1697.1459,82,43,1698.1526,1698.1526,1698.1542,,,,0,1,1,1,1,15,70,,,,,,,,
,,5f72251e27b82f11aacdd6c1,65af532f30852ac05a101d81,2024-01-22_23h50.19.209,bars,2023.2.3,Win32,59.88023952,657b66ea316d21385b68909f,,,,,,,,,,,1698.1547,1699.1581,,,1699.6463,1699.8761,,169,169,,,,,,,,,,,,,,,,bars/026.png,bars/mask008.png,,,,,,,,,,,,0,1,,,,,,,6,7,4,7,,,,,,,,,,,1699.1582,1699.6463,1699.8761,1700.4142,space,0.5207,,1700.4143,46,84,1701.4242,1701.4242,1701.4276,,,,0,2,2,2,1,35,85,,,,,,,,
,,5f72251e27b82f11aacdd6c1,65af532f30852ac05a101d81,2024-01-22_23h50.19.209,bars,2023.2.3,Win32,59.88023952,657b66ea316d21385b68909f,,,,,,,,,,,1701.4279,1702.4404,,,1702.9314,1703.1812,,88,88,,,,,,,,,,,,,,,,bars/036.png,bars/mask001.png,,,,,,,,,,,,0,1,,,,,,,8,9,8,10,,,,,,,,,,,1702.4405,1702.9313,1703.1813,1704.2801,space,1.0735,,1704.2802,57,68,1705.277,1705.277,1705.2787,,,,0,3,3,3,1,145,20,,,,,,,,
,,5f72251e27b82f11aacdd6c1,65af532f30852ac05a101d81,2024-01-22_23h50.19.209,bars,2023.2.3,Win32,59.88023952,657b66ea316d21385b68909f,,,,,,,,,,,1705.2791,1706.2591,,,1706.7526,1706.997,,107,107,,,,,,,,,,,,,,,,bars/043.png,bars/mask006.png,,,,,,,,,,,,2,2,,,,,,,10,7,9,7,,,,,,,,,,,1706.2591,1706.7525,1706.997,1708.9791,space,1.9627,,1708.9793,77,23,1709.9942,1709.9944,1709.9973,,,,0,4,4,4,1,30,130,,,,,,,,
,,5f72251e27b82f11aacdd6c1,65af532f30852ac05a101d81,2024-01-22_23h50.19.209,bars,2023.2.3,Win32,59.88023952,657b66ea316d21385b68909f,,,,,,,,,,,1709.9977,1711.0018,,,1711.4918,1711.7465,,122,122,,,,,,,,,,,,,,,,bars/001.png,bars/mask000.png,,,,,,,,,,,,6,1,,,,,,,8,5,8,7,,,,,,,,,,,1711.0018,1711.4916,1711.7466,1712.3622,space,0.5981,,1712.3624,8,37,1713.3754,1713.3754,1713.3786,,,,0,5,5,5,1,130,85,,,,,,,,
,,5f72251e27b82f11aacdd6c1,65af532f30852ac05a101d81,2024-01-22_23h50.19.209,bars,2023.2.3,Win32,59.88023952,657b66ea316d21385b68909f,,,,,,,,,,,1713.3789,1714.3896,,,1714.8785,1715.1281,,82,82,,,,,,,,,,,,,,,,bars/033.png,bars/mask007.png,,,,,,,,,,,,0,1,,,,,,,10,3,10,3,,,,,,,,,,,1714.3903,1714.8784,1715.1282,1715.658,space,0.5082,,1715.658,57,73,1716.6612,1716.6612,1716.6628,,,,0,6,6,6,1,25,155,,,,,,,,
,,5f72251e27b82f11aacdd6c1,65af532f30852ac05a101d81,2024-01-22_23h50.19.209,bars,2023.2.3,Win32,59.88023952,657b66ea316d21385b68909f,,,,,,,,,,,1716.6632,1717.6641,,,1718.1537,1718.3915,,172,172,,,,,,,,,,,,,,,,bars/012.png,bars/mask001.png,,,,,,,,,,,,0,2,,,,,,,8,5,6,2,,,,,,,,,,,1717.6642,1718.1536,1718.392,1718.9823,space,0.5732,,1718.9824,82,23,1719.975,1719.9751,1719.9777,,,,0,7,7,7,1,90,15,,,,,,,,
,,5f72251e27b82f11aacdd6c1,65af532f30852ac05a101d81,2024-01-22_23h50.19.209,bars,2023.2.3,Win32,59.88023952,657b66ea316d21385b68909f,,,,,,,,,,,1719.9781,1720.9769,,,1721.4812,1721.7266,,91,91,,,,,,,,,,,,,,,,bars/024.png,bars/mask003.png,,,,,,,,,,,,0,1,,,,,,,10,3,10,2,,,,,,,,,,,1720.9769,1721.4808,1721.7266,1722.9734,space,1.2314,,1722.9734,29,79,1723.9726,1723.9726,1723.9755,,,,0,8,8,8,1,120,170,,,,,,,,
,,5f72251e27b82f11aacdd6c1,65af532f30852ac05a101d81,2024-01-22_23h50.19.209,bars,2023.2.3,Win32,59.88023952,657b66ea316d21385b68909f,,,,,,,,,,,1723.976,1724.969,,,1725.4685,1725.7081,,144,144,,,,,,,,,,,,,,,,bars/018.png,bars/mask008.png,,,,,,,,,,,,8,1,,,,,,,10,1,10,3,,,,,,,,,,,1724.9691,1725.4685,1725.7082,1726.9275,space,1.1996,,1726.9276,6,54,1727.9257,1727.9258,1727.9274,,,,0,9,9,9,1,150,90,,,,,,,,
,,5f72251e27b82f11aacdd6c1,65af532f30852ac05a101d81,2024-01-22_23h50.19.209,bars,2023.2.3,Win32,59.88023952,657b66ea316d21385b68909f,,,,,,,,,,,1727.9279,1728.9257,,,1729.4116,1729.6641,,142,142,,,,,,,,,,,,,,,,bars/000.png,bars/mask005.png,,,,,,,,,,,,0,2,,,,,,,8,0,9,0,,,,,,,,,,,1728.9258,1729.411,1729.6642,1731.1298,space,1.4443,,1731.1299,78,3,1732.109,1732.1091,1732.1123,,,,0,10,10,10,1,40,145,,,,,,,,
,,5f72251e27b82f11aacdd6c1,65af532f30852ac05a101d81,2024-01-22_23h50.19.209,bars,2023.2.3,Win32,59.88023952,657b66ea316d21385b68909f,,,,,,,,,,,1732.1128,1733.111,,,1733.591,1733.8388,,87,87,,,,,,,,,,,,,,,,bars/017.png,bars/mask008.png,,,,,,,,,,,,0,2,,,,,,,6,2,7,2,,,,,,,,,,,1733.1111,1733.5909,1733.8388,1736.0305,space,2.1704,,1736.0307,58,42,1737.0403,1737.0405,1737.042,,,,0,11,11,11,1,145,45,,,,,,,,
,,5f72251e27b82f11aacdd6c1,65af532f30852ac05a101d81,2024-01-22_23h50.19.209,bars,2023.2.3,Win32,59.88023952,657b66ea316d21385b68909f,,,,,,,,,,,1737.0424,1738.0483,,,1738.5586,1738.8084,,38,38,,,,,,,,,,,,,,,,bars/036.png,bars/mask007.png,,,,,,,,,,,,0,2,,,,,,,8,0,9,0,,,,,,,,,,,1738.0484,1738.5585,1738.8084,1739.4858,space,0.6564,,1739.4858,73,18,1740.4744,1740.4748,1740.4763,,,,0,12,12,12,1,145,20,,,,,,,,
,,5f72251e27b82f11aacdd6c1,65af532f30852ac05a101d81,2024-01-22_23h50.19.209,bars,2023.2.3,Win32,59.88023952,657b66ea316d21385b68909f,,,,,,,,,,,1740.4768,1741.4695,,,1741.9656,1742.2193,,20,20,,,,,,,,,,,,,,,,bars/021.png,bars/mask009.png,,,,,,,,,,,,0,1,,,,,,,10,2,9,0,,,,,,,,,,,1741.4697,1741.9655,1742.2193,1743.7064,space,1.4711,,1743.7064,45,50,1744.7059,1744.706,1744.7084,,,,0,13,13,13,1,155,70,,,,,,,,
,,5f72251e27b82f11aacdd6c1,65af532f30852ac05a101d81,2024-01-22_23h50.19.209,bars,2023.2.3,Win32,59.88023952,657b66ea316d21385b68909f,,,,,,,,,,,1744.7087,1745.7062,,,1746.1976,1746.4396,,126,126,,,,,,,,,,,,,,,,bars/046.png,bars/mask002.png,,,,,,,,,,,,0,1,,,,,,,8,4,10,6,,,,,,,,,,,1745.7063,1746.1975,1746.4396,1748.4438,space,1.9828,,1748.4438,29,41,1749.4474,1749.4474,1749.4609,,,,0,14,14,14,1,155,85,,,,,,,,
,,5f72251e27b82f11aacdd6c1,65af532f30852ac05a101d81,2024-01-22_23h50.19.209,bars,2023.2.3,Win32,59.88023952,657b66ea316d21385b68909f,,,,,,,,,,,1749.4612,1750.4555,,,1750.9551,1751.2141,,113,113,,,,,,,,,,,,,,,,bars/023.png,bars/mask000.png,,,,,,,,,,,,3,2,,,,,,,10,2,10,3,,,,,,,,,,,1750.4555,1750.9551,1751.2141,1751.6224,space,0.3913,,1751.6225,87,2,1752.6136,1752.6137,1752.6169,,,,0,15,15,15,1,20,115,,,,,,,,
,,5f72251e27b82f11aacdd6c1,65af532f30852ac05a101d81,2024-01-22_23h50.19.209,bars,2023.2.3,Win32,59.88023952,657b66ea316d21385b68909f,,,,,,,,,,,1752.6174,1753.6231,,,1754.122,1754.3877,,127,127,,,,,,,,,,,,,,,,bars/022.png,bars/mask002.png,,,,,,,,,,,,0,1,,,,,,,8,0,7,0,,,,,,,,,,,1753.6231,1754.122,1754.3877,1757.9927,space,3.588,,1757.9928,32,73,1758.9781,1758.9782,1758.9966,,,,0,16,16,16,1,95,20,,,,,,,,
,,5f72251e27b82f11aacdd6c1,65af532f30852ac05a101d81,2024-01-22_23h50.19.209,bars,2023.2.3,Win32,59.88023952,657b66ea316d21385b68909f,,,,,,,,,,,1758.9971,1759.9788,,,1760.5078,1760.7502,,22,22,,,,,,,,,,,,,,,,bars/043.png,bars/mask000.png,,,,,,,,,,,,7,1,,,,,,,10,0,10,0,,,,,,,,,,,1759.9788,1760.5076,1760.7502,1761.8412,space,1.0675,,1761.8413,8,72,1762.828,1762.8281,1762.8301,,,,0,17,17,17,1,30,130,,,,,,,,
,,5f72251e27b82f11aacdd6c1,65af532f30852ac05a101d81,2024-01-22_23h50.19.209,bars,2023.2.3,Win32,59.88023952,657b66ea316d21385b68909f,,,,,,,,,,,1762.8306,1763.8235,,,1764.3283,1764.5667,,41,41,,,,,,,,,,,,,,,,bars/010.png,bars/mask005.png,,,,,,,,,,,,2,2,,,,,,,10,2,9,4,,,,,,,,,,,1763.8235,1764.3282,1764.5667,1767.522,space,2.931,,1767.522,56,14,1768.5211,1768.5211,1768.5389,,,,0,18,18,18,1,165,55,,,,,,,,
,,5f72251e27b82f11aacdd6c1,65af532f30852ac05a101d81,2024-01-22_23h50.19.209,bars,2023.2.3,Win32,59.88023952,657b66ea316d21385b68909f,,,,,,,,,,,1768.5394,1769.5362,,,1770.0394,1770.2948,,7,7,,,,,,,,,,,,,,,,bars/005.png,bars/mask006.png,,,,,,,,,,,,9,1,,,,,,,10,4,10,4,,,,,,,,,,,1769.5363,1770.0393,1770.2948,1770.8925,space,0.5765,,1770.8927,3,47,1771.8876,1771.8876,1771.893,,,,0,19,19,19,1,10,140,,,,,,,,
,,5f72251e27b82f11aacdd6c1,65af532f30852ac05a101d81,2024-01-22_23h50.19.209,bars,2023.2.3,Win32,59.88023952,657b66ea316d21385b68909f,,,,,,,,,,,1771.8936,1772.8867,,,1773.3812,1773.6308,,92,92,,,,,,,,,,,,,,,,bars/040.png,bars/mask003.png,,,,,,,,,,,,0,1,,,,,,,10,6,9,6,,,,,,,,,,,1772.8868,1773.3809,1773.6309,1774.1177,space,0.4694,,1774.1177,48,87,1775.1126,1775.1126,1775.1153,,,,0,20,20,20,1,140,5,,,,,,,,
,,5f72251e27b82f11aacdd6c1,65af532f30852ac05a101d81,2024-01-22_23h50.19.209,bars,2023.2.3,Win32,59.88023952,657b66ea316d21385b68909f,,,,,,,,,,,1775.1156,1776.1037,,,1776.6032,1776.8533,,43,43,,,,,,,,,,,,,,,,bars/013.png,bars/mask005.png,,,,,,,,,,,,0,1,,,,,,,8,4,7,2,,,,,,,,,,,1776.1038,1776.6032,1776.8534,1779.6735,space,2.8043,,1779.6736,32,33,1780.6541,1780.6541,1780.6703,,,,0,21,21,21,1,75,10,,,,,,,,
,,5f72251e27b82f11aacdd6c1,65af532f30852ac05a101d81,2024-01-22_23h50.19.209,bars,2023.2.3,Win32,59.88023952,657b66ea316d21385b68909f,,,,,,,,,,,1780.6708,1781.6584,,,1782.1543,1782.3919,,169,169,,,,,,,,,,,,,,,,bars/045.png,bars/mask008.png,,,,,,,,,,,,2,2,,,,,,,10,6,9,8,,,,,,,,,,,1781.6584,1782.1543,1782.392,1783.1241,space,0.7144,,1783.1241,69,21,1784.1246,1784.1246,1784.128,,,,0,22,22,22,1,100,10,,,,,,,,
,,5f72251e27b82f11aacdd6c1,65af532f30852ac05a101d81,2024-01-22_23h50.19.209,bars,2023.2.3,Win32,59.88023952,657b66ea316d21385b68909f,,,,,,,,,,,1784.1284,1785.1105,,,1785.5942,1785.8392,,95,95,,,,,,,,,,,,,,,,bars/049.png,bars/mask007.png,,,,,,,,,,,,1,2,,,,,,,10,4,10,2,,,,,,,,,,,1785.1105,1785.5941,1785.8393,1786.2283,space,0.3673,,1786.2284,65,20,1787.2238,1787.2238,1787.2255,,,,0,23,23,23,1,160,115,,,,,,,,
,,5f72251e27b82f11aacdd6c1,65af532f30852ac05a101d81,2024-01-22_23h50.19.209,bars,2023.2.3,Win32,59.88023952,657b66ea316d21385b68909f,,,,,,,,,,,1787.2259,1788.2221,,,1788.7259,1788.9848,,30,30,,,,,,,,,,,,,,,,bars/017.png,bars/mask005.png,,,,,,,,,,,,1,2,,,,,,,10,2,10,2,,,,,,,,,,,1788.2222,1788.7259,1788.9848,1789.7291,space,0.7248,,1789.7291,65,15,1790.7223,1790.7223,1790.7238,,,,0,24,24,24,1,145,45,,,,,,,,
,,5f72251e27b82f11aacdd6c1,65af532f30852ac05a101d81,2024-01-22_23h50.19.209,bars,2023.2.3,Win32,59.88023952,657b66ea316d21385b68909f,,,,,,,,,,,1790.7242,1791.7269,,,1792.2042,1792.4547,,138,138,,,,,,,,,,,,,,,,bars/003.png,bars/mask006.png,,,,,,,,,,,,4,2,,,,,,,8,4,7,4,,,,,,,,,,,1791.727,1792.2041,1792.4547,1792.9928,space,0.5193,,1792.9928,67,2,1793.9897,1793.9897,1793.9917,,,,0,25,25,25,1,25,140,,,,,,,,
,,5f72251e27b82f11aacdd6c1,65af532f30852ac05a101d81,2024-01-22_23h50.19.209,bars,2023.2.3,Win32,59.88023952,657b66ea316d21385b68909f,,,,,,,,,,,1793.9921,1794.9919,,,1795.4926,1795.752,,16,16,,,,,,,,,,,,,,,,bars/036.png,bars/mask000.png,,,,,,,,,,,,5,2,,,,,,,10,6,10,6,,,,,,,,,,,1794.992,1795.4926,1795.752,1796.6116,space,0.842,,1796.6116,51,4,1797.6185,1797.6186,1797.62,,,,0,26,26,26,1,145,20,,,,,,,,
,,5f72251e27b82f11aacdd6c1,65af532f30852ac05a101d81,2024-01-22_23h50.19.209,bars,2023.2.3,Win32,59.88023952,657b66ea316d21385b68909f,,,,,,,,,,,1797.6203,1798.6356,,,1799.1256,1799.3704,,124,124,,,,,,,,,,,,,,,,bars/029.png,bars/mask000.png,,,,,,,,,,,,0,1,,,,,,,10,8,10,8,,,,,,,,,,,1798.6356,1799.1255,1799.3704,1799.9711,space,0.5833,,1799.9712,34,79,1800.9753,1800.9754,1800.9787,,,,0,27,27,27,1,90,45,,,,,,,,
,,5f72251e27b82f11aacdd6c1,65af532f30852ac05a101d81,2024-01-22_23h50.19.209,bars,2023.2.3,Win32,59.88023952,657b66ea316d21385b68909f,,,,,,,,,,,1800.9791,1801.985,,,1802.4704,1802.7204,,156,156,,,,,,,,,,,,,,,,bars/037.png,bars/mask009.png,,,,,,,,,,,,8,1,,,,,,,8,10,10,9,,,,,,,,,,,1801.985,1802.4704,1802.7205,1803.3401,space,0.601,,1803.3406,6,51,1804.3386,1804.3387,1804.3406,,,,0,28,28,28,1,150,105,,,,,,,,
,,5f72251e27b82f11aacdd6c1,65af532f30852ac05a101d81,2024-01-22_23h50.19.209,bars,2023.2.3,Win32,59.88023952,657b66ea316d21385b68909f,,,,,,,,,,,1804.341,1805.3381,,,1805.8358,1806.0849,,170,170,,,,,,,,,,,,,,,,bars/045.png,bars/mask003.png,,,,,,,,,,,,3,2,,,,,,,10,10,10,10,,,,,,,,,,,1805.3382,1805.8357,1806.0849,1806.6378,space,0.5353,,1806.6379,70,20,1807.6272,1807.6272,1807.6302,,,,0,29,29,29,1,100,10,,,,,,,,
,,5f72251e27b82f11aacdd6c1,65af532f30852ac05a101d81,2024-01-22_23h50.19.209,bars,2023.2.3,Win32,59.88023952,657b66ea316d21385b68909f,,,,,,,,,,,1807.6306,1808.624,,,1809.12,1809.373,,68,68,,,,,,,,,,,,,,,,bars/018.png,bars/mask008.png,,,,,,,,,,,,3,2,,,,,,,8,10,6,10,,,,,,,,,,,1808.6241,1809.12,1809.373,1809.9514,space,0.5608,,1809.9515,82,22,1810.9544,1810.9544,1810.9561,,,,0,30,30,30,1,150,90,,,,,,,,
,,5f72251e27b82f11aacdd6c1,65af532f30852ac05a101d81,2024-01-22_23h50.19.209,bars,2023.2.3,Win32,59.88023952,657b66ea316d21385b68909f,,,,,,,,,,,1810.9565,1811.9556,,,1812.4551,1812.6858,,3,3,,,,,,,,,,,,,,,,bars/044.png,bars/mask009.png,,,,,,,,,,,,1,2,,,,,,,6,8,8,9,,,,,,,,,,,1811.9557,1812.4551,1812.6859,1813.1712,space,0.4678,,1813.1715,72,28,1814.1728,1814.1729,1814.1744,,,,0,31,31,31,1,75,155,,,,,,,,
,,5f72251e27b82f11aacdd6c1,65af532f30852ac05a101d81,2024-01-22_23h50.19.209,bars,2023.2.3,Win32,59.88023952,657b66ea316d21385b68909f,,,,,,,,,,,1814.1748,1815.1834,,,1815.6726,1815.9234,,57,57,,,,,,,,,,,,,,,,bars/015.png,bars/mask006.png,,,,,,,,,,,,0,1,,,,,,,4,10,4,10,,,,,,,,,,,1815.1834,1815.6725,1815.9235,1817.726,space,1.7853,,1817.7261,53,77,1818.7199,1818.7199,1818.7369,,,,0,32,32,32,1,110,160,,,,,,,,
,,5f72251e27b82f11aacdd6c1,65af532f30852ac05a101d81,2024-01-22_23h50.19.209,bars,2023.2.3,Win32,59.88023952,657b66ea316d21385b68909f,,,,,,,,,,,1818.7373,1819.7374,,,1820.2336,1820.4849,,6,6,,,,,,,,,,,,,,,,bars/025.png,bars/mask003.png,,,,,,,,,,,,0,2,,,,,,,2,8,2,8,,,,,,,,,,,1819.7376,1820.2336,1820.4849,1822.2849,space,1.7687,,1822.2849,81,34,1823.2845,1823.2845,1823.2866,,,,0,33,33,33,1,105,40,,,,,,,,
,,5f72251e27b82f11aacdd6c1,65af532f30852ac05a101d81,2024-01-22_23h50.19.209,bars,2023.2.3,Win32,59.88023952,657b66ea316d21385b68909f,,,,,,,,,,,1823.2869,1824.2847,,,1824.7849,1825.0348,,106,106,,,,,,,,,,,,,,,,bars/046.png,bars/mask006.png,,,,,,,,,,,,2,2,,,,,,,4,6,5,6,,,,,,,,,,,1824.2847,1824.7848,1825.0348,1826.2854,space,1.2356,,1826.2855,49,21,1827.2735,1827.2737,1827.2752,,,,0,34,34,34,1,155,85,,,,,,,,
,,5f72251e27b82f11aacdd6c1,65af532f30852ac05a101d81,2024-01-22_23h50.19.209,bars,2023.2.3,Win32,59.88023952,657b66ea316d21385b68909f,,,,,,,,,,,1827.2757,1828.2824,,,1828.7836,1829.023,,15,15,,,,,,,,,,,,,,,,bars/033.png,bars/mask000.png,,,,,,,,,,,,1,1,,,,,,,2,4,2,4,,,,,,,,,,,1828.2825,1828.7836,1829.023,1831.1523,space,2.1115,,1831.1524,10,40,1832.1352,1832.1352,1832.1384,,,,0,35,35,35,1,25,155,,,,,,,,
,,5f72251e27b82f11aacdd6c1,65af532f30852ac05a101d81,2024-01-22_23h50.19.209,bars,2023.2.3,Win32,59.88023952,657b66ea316d21385b68909f,,,,,,,,,,,1832.1388,1833.1398,,,1833.6388,1833.8819,,66,66,,,,,,,,,,,,,,,,bars/000.png,bars/mask001.png,,,,,,,,,,,,1,1,,,,,,,4,2,4,1,,,,,,,,,,,1833.1399,1833.6388,1833.8821,1836.3843,space,2.4825,,1836.3843,26,79,1837.3879,1837.3879,1837.4055,,,,0,36,36,36,1,40,145,,,,,,,,
,,5f72251e27b82f11aacdd6c1,65af532f30852ac05a101d81,2024-01-22_23h50.19.209,bars,2023.2.3,Win32,59.88023952,657b66ea316d21385b68909f,,,,,,,,,,,1837.406,1838.4004,,,1838.8996,1839.1495,,25,25,,,,,,,,,,,,,,,,bars/042.png,bars/mask002.png,,,,,,,,,,,,0,2,,,,,,,2,0,0,0,,,,,,,,,,,1838.4005,1838.8996,1839.1496,1841.8693,space,2.7048,,1841.8694,60,50,1842.8649,1842.8649,1842.8827,,,,0,37,37,37,1,145,75,,,,,,,,
,,5f72251e27b82f11aacdd6c1,65af532f30852ac05a101d81,2024-01-22_23h50.19.209,bars,2023.2.3,Win32,59.88023952,657b66ea316d21385b68909f,,,,,,,,,,,1842.8831,1843.8876,,,1844.3697,1844.6131,,105,105,,,,,,,,,,,,,,,,bars/004.png,bars/mask008.png,,,,,,,,,,,,1,2,,,,,,,0,0,0,2,,,,,,,,,,,1843.8877,1844.3697,1844.6131,1845.3713,space,0.7393,,1845.3713,80,20,1846.3646,1846.3662,1846.3675,,,,0,38,38,38,1,25,125,,,,,,,,
,,5f72251e27b82f11aacdd6c1,65af532f30852ac05a101d81,2024-01-22_23h50.19.209,bars,2023.2.3,Win32,59.88023952,657b66ea316d21385b68909f,,,,,,,,,,,1846.3681,1847.3735,,,1847.8661,1848.1164,,23,23,,,,,,,,,,,,,,,,bars/028.png,bars/mask001.png,,,,,,,,,,,,1,1,,,,,,,2,0,2,0,,,,,,,,,,,1847.3736,1847.8659,1848.1164,1850.9007,space,2.7671,,1850.9008,22,83,1851.8991,1851.8991,1851.9171,,,,0,39,39,39,1,45,120,,,,,,,,
,,5f72251e27b82f11aacdd6c1,65af532f30852ac05a101d81,2024-01-22_23h50.19.209,bars,2023.2.3,Win32,59.88023952,657b66ea316d21385b68909f,,,,,,,,,,,1851.9176,1852.9199,,,1853.4134,1853.6635,,160,160,,,,,,,,,,,,,,,,bars/010.png,bars/mask007.png,,,,,,,,,,,,3,1,,,,,,,4,0,3,0,,,,,,,,,,,1852.9199,1853.4134,1853.6636,1854.5838,space,0.9023,,1854.584,5,75,1855.5827,1855.5828,1855.5846,,,,0,40,40,40,1,165,55,,,,,,,,
,,5f72251e27b82f11aacdd6c1,65af532f30852ac05a101d81,2024-01-22_23h50.19.209,bars,2023.2.3,Win32,59.88023952,657b66ea316d21385b68909f,,,,,,,,,,,1855.585,1856.5806,,,1857.0717,1857.3174,,136,136,,,,,,,,,,,,,,,,bars/038.png,bars/mask006.png,,,,,,,,,,,,0,1,,,,,,,2,0,3,0,,,,,,,,,,,1856.5806,1857.0717,1857.3174,1857.9176,space,0.5824,,1857.9177,29,66,1858.914,1858.914,1858.9158,,,,0,41,41,41,1,165,70,,,,,,,,
,,5f72251e27b82f11aacdd6c1,65af532f30852ac05a101d81,2024-01-22_23h50.19.209,bars,2023.2.3,Win32,59.88023952,657b66ea316d21385b68909f,,,,,,,,,,,1858.9162,1859.9154,,,1860.4065,1860.65,,76,76,,,,,,,,,,,,,,,,bars/034.png,bars/mask000.png,,,,,,,,,,,,0,2,,,,,,,0,0,1,0,,,,,,,,,,,1859.9154,1860.4064,1860.6501,1861.1898,space,0.5226,,1861.1901,49,11,1862.1805,1862.1806,1862.1838,,,,0,42,42,42,1,125,65,,,,,,,,
,,5f72251e27b82f11aacdd6c1,65af532f30852ac05a101d81,2024-01-22_23h50.19.209,bars,2023.2.3,Win32,59.88023952,657b66ea316d21385b68909f,,,,,,,,,,,1862.1843,1863.1832,,,1863.6865,1863.9324,,12,12,,,,,,,,,,,,,,,,bars/046.png,bars/mask004.png,,,,,,,,,,,,0,1,,,,,,,2,2,1,2,,,,,,,,,,,1863.1833,1863.6863,1863.9324,1864.568,space,0.6174,,1864.568,37,73,1865.5644,1865.5644,1865.5673,,,,0,43,43,43,1,155,85,,,,,,,,
,,5f72251e27b82f11aacdd6c1,65af532f30852ac05a101d81,2024-01-22_23h50.19.209,bars,2023.2.3,Win32,59.88023952,657b66ea316d21385b68909f,,,,,,,,,,,1865.5677,1866.573,,,1867.0653,1867.3192,,179,179,,,,,,,,,,,,,,,,bars/033.png,bars/mask001.png,,,,,,,,,,,,1,2,,,,,,,4,4,4,3,,,,,,,,,,,1866.573,1867.0652,1867.3193,1867.9027,space,0.5663,,1867.9027,26,24,1868.8966,1868.8967,1868.9004,,,,0,44,44,44,1,25,155,,,,,,,,
,,5f72251e27b82f11aacdd6c1,65af532f30852ac05a101d81,2024-01-22_23h50.19.209,bars,2023.2.3,Win32,59.88023952,657b66ea316d21385b68909f,,,,,,,,,,,1868.9008,1869.9002,,,1870.3884,1870.631,,44,44,,,,,,,,,,,,,,,,bars/022.png,bars/mask001.png,,,,,,,,,,,,0,2,,,,,,,6,2,6,2,,,,,,,,,,,1869.9003,1870.3884,1870.631,1871.7355,space,1.087,,1871.7357,51,24,1872.7158,1872.7159,1872.7323,,,,0,45,45,45,1,95,20,,,,,,,,
,,5f72251e27b82f11aacdd6c1,65af532f30852ac05a101d81,2024-01-22_23h50.19.209,bars,2023.2.3,Win32,59.88023952,657b66ea316d21385b68909f,,,,,,,,,,,1872.7327,1873.7368,,,1874.2372,1874.4789,,166,166,,,,,,,,,,,,,,,,bars/028.png,bars/mask007.png,,,,,,,,,,,,0,2,,,,,,,8,0,8,0,,,,,,,,,,,1873.7368,1874.2371,1874.4789,1875.248,space,0.7498,,1875.2481,59,46,1876.2449,1876.245,1876.2465,,,,0,46,46,46,1,45,120,,,,,,,,
,,5f72251e27b82f11aacdd6c1,65af532f30852ac05a101d81,2024-01-22_23h50.19.209,bars,2023.2.3,Win32,59.88023952,657b66ea316d21385b68909f,,,,,,,,,,,1876.2471,1877.2486,,,1877.7483,1877.9958,,51,51,,,,,,,,,,,,,,,,bars/011.png,bars/mask003.png,,,,,,,,,,,,0,2,,,,,,,10,2,9,2,,,,,,,,,,,1877.2487,1877.7483,1877.9958,1880.0551,space,2.0414,,1880.0552,71,34,1881.0612,1881.0613,1881.0782,,,,0,47,47,47,1,160,85,,,,,,,,
,,5f72251e27b82f11aacdd6c1,65af532f30852ac05a101d81,2024-01-22_23h50.19.209,bars,2023.2.3,Win32,59.88023952,657b66ea316d21385b68909f,,,,,,,,,,,1881.0786,1882.0671,,,1882.5676,1882.8107,,142,142,,,,,,,,,,,,,,,,bars/008.png,bars/mask009.png,,,,,,,,,,,,0,1,,,,,,,8,0,9,0,,,,,,,,,,,1882.0673,1882.5676,1882.8107,1883.9002,space,1.0704,,1883.9003,32,38,1884.8975,1884.8975,1884.915,,,,0,48,48,48,1,110,0,,,,,,,,
,,5f72251e27b82f11aacdd6c1,65af532f30852ac05a101d81,2024-01-22_23h50.19.209,bars,2023.2.3,Win32,59.88023952,657b66ea316d21385b68909f,,,,,,,,,,,1884.9155,1885.9197,,,1886.4136,1886.6785,,170,170,,,,,,,,,,,,,,,,bars/001.png,bars/mask008.png,,,,,,,,,,,,0,1,,,,,,,10,2,9,1,,,,,,,,,,,1885.9197,1886.4135,1886.6787,1888.1288,space,1.433,,1888.1289,40,85,1889.1301,1889.1302,1889.1449,,,,0,49,49,49,1,130,85,,,,,,,,
,,5f72251e27b82f11aacdd6c1,65af532f30852ac05a101d81,2024-01-22_23h50.19.209,bars,2023.2.3,Win32,59.88023952,657b66ea316d21385b68909f,,,,,,,,,,,,,,,,,,,,,,,,,,,,,,,,,,,,,,,,,,,,,,,,,,,,,,,,,,,,,,,,,,,,,,,,,,,,,,,,,,,,,,,,,,,,,1889.1451,1949.1493,0,3,3,4,1,sequence_tables/blk006.csv
,,5f72251e27b82f11aacdd6c1,65af532f30852ac05a101d81,2024-01-22_23h50.19.209,bars,2023.2.3,Win32,59.88023952,657b66ea316d21385b68909f,,,,,,,,,,,1950.4549,1951.4447,,,1951.9415,1952.1921,,140,140,,,,,,,,,,,,,,,,bars/007.png,bars/mask006.png,,,,,,,,,,,,0,1,,,,,,,0,3,0,3,,,,,,1949.1655,1950.4469,space,1.2705,,1951.4447,1951.9414,1952.1922,1953.2498,space,1.0397,,1953.2498,35,85,1954.2474,1954.2474,1954.249,,,,0,0,0,0,1,175,55,,,,,,,,
,,5f72251e27b82f11aacdd6c1,65af532f30852ac05a101d81,2024-01-22_23h50.19.209,bars,2023.2.3,Win32,59.88023952,657b66ea316d21385b68909f,,,,,,,,,,,1954.2497,1955.2404,,,1955.7431,1955.996,,0,180,,,,,,,,,,,,,,,,bars/028.png,bars/mask004.png,,,,,,,,,,,,0,1,,,,,,,2,5,0,6,,,,,,,,,,,1955.2405,1955.7431,1955.9965,1957.06,space,1.0466,,1957.0602,45,60,1958.0589,1958.0589,1958.0604,,,,0,1,1,1,1,45,120,,,,,,,,
,,5f72251e27b82f11aacdd6c1,65af532f30852ac05a101d81,2024-01-22_23h50.19.209,bars,2023.2.3,Win32,59.88023952,657b66ea316d21385b68909f,,,,,,,,,,,1958.0608,1959.0626,,,1959.56,1959.8133,,157,157,,,,,,,,,,,,,,,,bars/024.png,bars/mask003.png,,,,,,,,,,,,3,2,,,,,,,0,7,0,6,,,,,,,,,,,1959.0626,1959.56,1959.8133,1961.679,space,1.8488,,1961.6791,37,13,1962.6745,1962.6746,1962.6779,,,,0,2,2,2,1,120,170,,,,,,,,
,,5f72251e27b82f11aacdd6c1,65af532f30852ac05a101d81,2024-01-22_23h50.19.209,bars,2023.2.3,Win32,59.88023952,657b66ea316d21385b68909f,,,,,,,,,,,1962.6783,1963.6756,,,1964.1767,1964.428,,105,105,,,,,,,,,,,,,,,,bars/026.png,bars/mask005.png,,,,,,,,,,,,2,2,,,,,,,2,5,2,5,,,,,,,,,,,1963.6757,1964.1766,1964.428,1966.1937,space,1.7481,,1966.1938,70,20,1967.1912,1967.1918,1967.1933,,,,0,3,3,3,1,35,85,,,,,,,,
,,5f72251e27b82f11aacdd6c1,65af532f30852ac05a101d81,2024-01-22_23h50.19.209,bars,2023.2.3,Win32,59.88023952,657b66ea316d21385b68909f,,,,,,,,,,,1967.1936,1968.1918,,,1968.6933,1968.9477,,139,139,,,,,,,,,,,,,,,,bars/005.png,bars/mask006.png,,,,,,,,,,,,7,2,,,,,,,0,7,0,7,,,,,,,,,,,1968.1919,1968.6932,1968.9478,1969.8235,space,0.8589,,1969.8235,51,1,1970.8281,1970.8282,1970.8296,,,,0,4,4,4,1,10,140,,,,,,,,
,,5f72251e27b82f11aacdd6c1,65af532f30852ac05a101d81,2024-01-22_23h50.19.209,bars,2023.2.3,Win32,59.88023952,657b66ea316d21385b68909f,,,,,,,,,,,1970.8302,1971.8395,,,1972.3303,1972.5748,,126,126,,,,,,,,,,,,,,,,bars/029.png,bars/mask007.png,,,,,,,,,,,,0,1,,,,,,,2,5,3,5,,,,,,,,,,,1971.8395,1972.3303,1972.5748,1973.2774,space,0.6859,,1973.2775,36,81,1974.2774,1974.2775,1974.2808,,,,0,5,5,5,1,90,45,,,,,,,,
,,5f72251e27b82f11aacdd6c1,65af532f30852ac05a101d81,2024-01-22_23h50.19.209,bars,2023.2.3,Win32,59.88023952,657b66ea316d21385b68909f,,,,,,,,,,,1974.2812,1975.2948,,,1975.7941,1976.044,,72,72,,,,,,,,,,,,,,,,bars/033.png,bars/mask003.png,,,,,,,,,,,,0,1,,,,,,,0,3,0,2,,,,,,,,,,,1975.2948,1975.7941,1976.044,1978.7148,space,2.6434,,1978.7149,47,83,1979.7121,1979.7121,1979.7269,,,,0,6,6,6,1,25,155,,,,,,,,
,,5f72251e27b82f11aacdd6c1,65af532f30852ac05a101d81,2024-01-22_23h50.19.209,bars,2023.2.3,Win32,59.88023952,657b66ea316d21385b68909f,,,,,,,,,,,1979.7272,1980.7247,,,1981.2244,1981.4762,,119,119,,,,,,,,,,,,,,,,bars/028.png,bars/mask006.png,,,,,,,,,,,,5,2,,,,,,,2,5,3,5,,,,,,,,,,,1980.7247,1981.2244,1981.4764,1983.7647,space,2.2706,,1983.7647,74,1,1984.7605,1984.7606,1984.7768,,,,0,7,7,7,1,45,120,,,,,,,,
,,5f72251e27b82f11aacdd6c1,65af532f30852ac05a101d81,2024-01-22_23h50.19.209,bars,2023.2.3,Win32,59.88023952,657b66ea316d21385b68909f,,,,,,,,,,,1984.7771,1985.7708,,,1986.2632,1986.5062,,124,124,,,,,,,,,,,,,,,,bars/021.png,bars/mask005.png,,,,,,,,,,,,0,1,,,,,,,0,7,0,8,,,,,,,,,,,1985.7708,1986.2632,1986.5062,1987.1646,space,0.6412,,1987.1648,31,54,1988.1587,1988.1587,1988.1619,,,,0,8,8,8,1,155,70,,,,,,,,
,,5f72251e27b82f11aacdd6c1,65af532f30852ac05a101d81,2024-01-22_23h50.19.209,bars,2023.2.3,Win32,59.88023952,657b66ea316d21385b68909f,,,,,,,,,,,1988.1624,1989.1723,,,1989.6727,1989.9277,,31,211,,,,,,,,,,,,,,,,bars/033.png,bars/mask003.png,,,,,,,,,,,,2,1,,,,,,,2,5,3,5,,,,,,,,,,,1989.1724,1989.6726,1989.9278,1991.9462,space,2.0018,,1991.9463,6,56,1992.9467,1992.9467,1992.9484,,,,0,9,9,9,1,25,155,,,,,,,,
,,5f72251e27b82f11aacdd6c1,65af532f30852ac05a101d81,2024-01-22_23h50.19.209,bars,2023.2.3,Win32,59.88023952,657b66ea316d21385b68909f,,,,,,,,,,,1992.9489,1993.9458,,,1994.4464,1994.7055,,33,33,,,,,,,,,,,,,,,,bars/034.png,bars/mask002.png,,,,,,,,,,,,0,2,,,,,,,0,7,1,7,,,,,,,,,,,1993.9459,1994.4464,1994.7055,1996.8468,space,2.1237,,1996.8469,88,32,1997.8405,1997.8405,1997.8571,,,,0,10,10,10,1,125,65,,,,,,,,
