init_variables.started,init_variables.stopped,participant,session,date,expName,psychopyVersion,OS,frameRate,study_id,instruction_exp.started,instruction_exp.stopped,key_resp_8.keys,key_resp_8.rt,key_resp_8.duration,instruction_single.started,instruction_single.stopped,key_resp_2.keys,key_resp_2.rt,key_resp_2.duration,interval.started,interval.stopped,cue_single.started,cue_single.stopped,mask.started,mask.stopped,ori_response_single.started,res_ori,res,ori_response_single.stopped,key_resp_single.keys,key_resp_single.rt,key_resp_single.duration,disp_single.started,disp_single.stopped,key_resp.keys,key_resp.rt,key_resp.duration,single.thisRepN,single.thisTrialN,single.thisN,single.thisIndex,single.ran,ori,path,mask_path,instruction_bandit.started,instruction_bandit.stopped,key_resp_6.keys,key_resp_6.rt,key_resp_6.duration,cue_bandit.started,cue_bandit.stopped,bandit_res.keys,bandit_res.rt,bandit_res.duration,outcome_bandit.started,rew,action,outcome_bandit.stopped,bandit.thisRepN,bandit.thisTrialN,bandit.thisN,bandit.thisIndex,bandit.ran,actual_rew1,actual_rew2,rew1,rew2,instruction_task.started,instruction_task.stopped,key_resp_7.keys,key_resp_7.rt,key_resp_7.duration,wait_ready.started,wait_ready.stopped,key_resp_3.keys,key_resp_3.rt,key_resp_3.duration,cue.started,cue.stopped,ori_response.started,ori_response.stopped,key_resp_5.keys,key_resp_5.rt,key_resp_5.duration,outcome.started,diff1,diff2,outcome.stopped,disp_outcome_practice.started,disp_outcome_practice.stopped,key_resp_4.keys,key_resp_4.rt,key_resp_4.duration,trials.thisRepN,trials.thisTrialN,trials.thisN,trials.thisIndex,trials.ran,ori1,ori2,break_blk.started,break_blk.stopped,block.thisRepN,block.thisTrialN,block.thisN,block.thisIndex,block.ran,condition_file
0.0002,0.0002,6554d5f1a5b42aea269aa82a,65af55b29cebb2ff24f0998e,2024-01-23_07h00.03.652,bars,2023.2.3,Win32,17.98561151,657b66ea316d21385b68909f,,,,,,,,,,,,,,,,,,,,,,,,,,,,,,,,,,,,,,,,,,,,,,,,,,,,,,,,,,,,,,,,,,,,,,,,,,,,,,,,,,,,,,,,,,,,,,,,,,,,
,,6554d5f1a5b42aea269aa82a,65af55b29cebb2ff24f0998e,2024-01-23_07h00.03.652,bars,2023.2.3,Win32,17.98561151,657b66ea316d21385b68909f,0.0003,15.0311,y,14.9781,,,,,,,,,,,,,,,,,,,,,,,,,,,,,,,,,,,,,,,,,,,,,,,,,,,,,,,,,,,,,,,,,,,,,,,,,,,,,,,,,,,,,,,,,,,,,,,,
,,6554d5f1a5b42aea269aa82a,65af55b29cebb2ff24f0998e,2024-01-23_07h00.03.652,bars,2023.2.3,Win32,17.98561151,657b66ea316d21385b68909f,,,,,,15.0311,39.7968,space,24.703,,,,,,,,,,,,,,,,,,,,,,,,,,,,,,,,,,,,,,,,,,,,,,,,,,,,,,,,,,,,,,,,,,,,,,,,,,,,,,,,,,,,,,,,,,,
,,6554d5f1a5b42aea269aa82a,65af55b29cebb2ff24f0998e,2024-01-23_07h00.03.652,bars,2023.2.3,Win32,17.98561151,657b66ea316d21385b68909f,,,,,,,,,,,39.8,40.7478,40.7478,41.2585,41.2586,41.5188,41.5189,177,-3,66.0648,space,24.4767,,66.0649,90.0204,space,23.8862,,0,0,0,3,1,20,bars/single003.png,bars/mask005.png,,,,,,,,,,,,,,,,,,,,,,,,,,,,,,,,,,,,,,,,,,,,,,,,,,,,,,,,,,,,,,,,
,,6554d5f1a5b42aea269aa82a,65af55b29cebb2ff24f0998e,2024-01-23_07h00.03.652,bars,2023.2.3,Win32,17.98561151,657b66ea316d21385b68909f,,,,,,,,,,,90.0248,90.9811,90.9812,91.4364,91.4365,91.6415,91.6416,120,120,95.1898,space,3.4891,,95.1898,101.0912,space,5.8362,,0,1,1,2,1,145,bars/single002.png,bars/mask003.png,,,,,,,,,,,,,,,,,,,,,,,,,,,,,,,,,,,,,,,,,,,,,,,,,,,,,,,,,,,,,,,,
,,6554d5f1a5b42aea269aa82a,65af55b29cebb2ff24f0998e,2024-01-23_07h00.03.652,bars,2023.2.3,Win32,17.98561151,657b66ea316d21385b68909f,,,,,,,,,,,101.0956,102.105,102.105,102.6256,102.6256,102.8328,102.8329,10,10,109.9798,space,7.0868,,109.9798,117.8221,space,7.7755,,0,2,2,1,1,20,bars/single001.png,bars/mask006.png,,,,,,,,,,,,,,,,,,,,,,,,,,,,,,,,,,,,,,,,,,,,,,,,,,,,,,,,,,,,,,,,
,,6554d5f1a5b42aea269aa82a,65af55b29cebb2ff24f0998e,2024-01-23_07h00.03.652,bars,2023.2.3,Win32,17.98561151,657b66ea316d21385b68909f,,,,,,,,,,,117.827,118.836,118.836,119.3574,119.3575,119.6243,119.6244,55,55,122.4594,space,2.7728,,122.4595,129.8085,space,7.2898,,0,3,3,5,1,55,bars/single005.png,bars/mask008.png,,,,,,,,,,,,,,,,,,,,,,,,,,,,,,,,,,,,,,,,,,,,,,,,,,,,,,,,,,,,,,,,
,,6554d5f1a5b42aea269aa82a,65af55b29cebb2ff24f0998e,2024-01-23_07h00.03.652,bars,2023.2.3,Win32,17.98561151,657b66ea316d21385b68909f,,,,,,,,,,,129.8131,130.7632,130.7633,131.2175,131.2176,131.4746,131.4747,38,38,135.4675,space,3.9332,,135.4675,138.6375,space,3.0945,,0,4,4,7,1,45,bars/single007.png,bars/mask009.png,,,,,,,,,,,,,,,,,,,,,,,,,,,,,,,,,,,,,,,,,,,,,,,,,,,,,,,,,,,,,,,,
,,6554d5f1a5b42aea269aa82a,65af55b29cebb2ff24f0998e,2024-01-23_07h00.03.652,bars,2023.2.3,Win32,17.98561151,657b66ea316d21385b68909f,,,,,,,,,,,138.6377,139.5945,139.5946,140.0751,140.0751,140.2813,140.2813,89,89,146.1067,space,5.7589,,146.1068,150.2856,space,4.113,,0,5,5,4,1,95,bars/single004.png,bars/mask004.png,,,,,,,,,,,,,,,,,,,,,,,,,,,,,,,,,,,,,,,,,,,,,,,,,,,,,,,,,,,,,,,,
,,6554d5f1a5b42aea269aa82a,65af55b29cebb2ff24f0998e,2024-01-23_07h00.03.652,bars,2023.2.3,Win32,17.98561151,657b66ea316d21385b68909f,,,,,,,,,,,150.2899,151.2935,151.2935,151.8028,151.8029,152.0643,152.0644,144,-36,161.0457,space,8.9188,,161.0457,164.1205,space,3.0091,,0,6,6,0,1,150,bars/single000.png,bars/mask006.png,,,,,,,,,,,,,,,,,,,,,,,,,,,,,,,,,,,,,,,,,,,,,,,,,,,,,,,,,,,,,,,,
,,6554d5f1a5b42aea269aa82a,65af55b29cebb2ff24f0998e,2024-01-23_07h00.03.652,bars,2023.2.3,Win32,17.98561151,657b66ea316d21385b68909f,,,,,,,,,,,164.1254,165.1372,165.1372,165.6038,165.6038,165.8596,165.8596,34,34,169.6777,space,3.7502,,169.6777,173.9946,space,4.2484,,0,7,7,9,1,20,bars/single009.png,bars/mask006.png,,,,,,,,,,,,,,,,,,,,,,,,,,,,,,,,,,,,,,,,,,,,,,,,,,,,,,,,,,,,,,,,
,,6554d5f1a5b42aea269aa82a,65af55b29cebb2ff24f0998e,2024-01-23_07h00.03.652,bars,2023.2.3,Win32,17.98561151,657b66ea316d21385b68909f,,,,,,,,,,,173.999,174.9807,174.9807,175.4574,175.4574,175.7236,175.7236,127,127,178.316,space,2.5321,,178.316,179.8837,space,1.4938,,0,8,8,8,1,160,bars/single008.png,bars/mask004.png,,,,,,,,,,,,,,,,,,,,,,,,,,,,,,,,,,,,,,,,,,,,,,,,,,,,,,,,,,,,,,,,
,,6554d5f1a5b42aea269aa82a,65af55b29cebb2ff24f0998e,2024-01-23_07h00.03.652,bars,2023.2.3,Win32,17.98561151,657b66ea316d21385b68909f,,,,,,,,,,,179.884,180.8928,180.8928,181.361,181.361,181.616,181.616,1,1,185.3895,space,3.7085,,185.3896,186.9926,space,1.5335,,0,9,9,6,1,175,bars/single006.png,bars/mask005.png,,,,,,,,,,,,,,,,,,,,,,,,,,,,,,,,,,,,,,,,,,,,,,,,,,,,,,,,,,,,,,,,
,,6554d5f1a5b42aea269aa82a,65af55b29cebb2ff24f0998e,2024-01-23_07h00.03.652,bars,2023.2.3,Win32,17.98561151,657b66ea316d21385b68909f,,,,,,,,,,,,,,,,,,,,,,,,,,,,,,,,,,,,,186.9932,227.3274,space,40.2728,,,,,,,,,,,,,,,,,,,,,,,,,,,,,,,,,,,,,,,,,,,,,,,,,,,,,,,,,,,,
,,6554d5f1a5b42aea269aa82a,65af55b29cebb2ff24f0998e,2024-01-23_07h00.03.652,bars,2023.2.3,Win32,17.98561151,657b66ea316d21385b68909f,,,,,,,,,,,,,,,,,,,,,,,,,,,,,,,,,,,,,,,,,,227.3332,237.4266,right,10.0211,,237.4267,2,2,238.4315,0,0,0,0,1,9,1,9,2,,,,,,,,,,,,,,,,,,,,,,,,,,,,,,,,,,,,,,,,,
,,6554d5f1a5b42aea269aa82a,65af55b29cebb2ff24f0998e,2024-01-23_07h00.03.652,bars,2023.2.3,Win32,17.98561151,657b66ea316d21385b68909f,,,,,,,,,,,,,,,,,,,,,,,,,,,,,,,,,,,,,,,,,,238.432,244.726,right,6.2338,,244.726,1,2,245.7163,0,1,1,1,1,10,0,10,1,,,,,,,,,,,,,,,,,,,,,,,,,,,,,,,,,,,,,,,,,
,,6554d5f1a5b42aea269aa82a,65af55b29cebb2ff24f0998e,2024-01-23_07h00.03.652,bars,2023.2.3,Win32,17.98561151,657b66ea316d21385b68909f,,,,,,,,,,,,,,,,,,,,,,,,,,,,,,,,,,,,,,,,,,245.7212,248.8809,left,3.1019,,248.8809,10,1,249.8875,0,2,2,2,1,10,2,10,2,,,,,,,,,,,,,,,,,,,,,,,,,,,,,,,,,,,,,,,,,
,,6554d5f1a5b42aea269aa82a,65af55b29cebb2ff24f0998e,2024-01-23_07h00.03.652,bars,2023.2.3,Win32,17.98561151,657b66ea316d21385b68909f,,,,,,,,,,,,,,,,,,,,,,,,,,,,,,,,,,,,,,,,,,249.8925,252.737,left,2.787,,252.737,7,1,253.7379,0,3,3,3,1,8,4,7,3,,,,,,,,,,,,,,,,,,,,,,,,,,,,,,,,,,,,,,,,,
,,6554d5f1a5b42aea269aa82a,65af55b29cebb2ff24f0998e,2024-01-23_07h00.03.652,bars,2023.2.3,Win32,17.98561151,657b66ea316d21385b68909f,,,,,,,,,,,,,,,,,,,,,,,,,,,,,,,,,,,,,,,,,,253.7425,257.4338,left,3.6352,,257.4339,5,1,258.401,0,4,4,4,1,6,2,5,1,,,,,,,,,,,,,,,,,,,,,,,,,,,,,,,,,,,,,,,,,
,,6554d5f1a5b42aea269aa82a,65af55b29cebb2ff24f0998e,2024-01-23_07h00.03.652,bars,2023.2.3,Win32,17.98561151,657b66ea316d21385b68909f,,,,,,,,,,,,,,,,,,,,,,,,,,,,,,,,,,,,,,,,,,258.4061,259.1448,right,0.6782,,259.1448,4,2,260.1238,0,5,5,5,1,4,4,4,4,,,,,,,,,,,,,,,,,,,,,,,,,,,,,,,,,,,,,,,,,
,,6554d5f1a5b42aea269aa82a,65af55b29cebb2ff24f0998e,2024-01-23_07h00.03.652,bars,2023.2.3,Win32,17.98561151,657b66ea316d21385b68909f,,,,,,,,,,,,,,,,,,,,,,,,,,,,,,,,,,,,,,,,,,260.1239,261.1421,left,0.9577,,261.1422,1,1,262.1236,0,6,6,6,1,2,2,1,2,,,,,,,,,,,,,,,,,,,,,,,,,,,,,,,,,,,,,,,,,
,,6554d5f1a5b42aea269aa82a,65af55b29cebb2ff24f0998e,2024-01-23_07h00.03.652,bars,2023.2.3,Win32,17.98561151,657b66ea316d21385b68909f,,,,,,,,,,,,,,,,,,,,,,,,,,,,,,,,,,,,,,,,,,262.1239,263.1766,right,0.9925,,263.1767,1,2,264.189,0,7,7,7,1,0,0,0,1,,,,,,,,,,,,,,,,,,,,,,,,,,,,,,,,,,,,,,,,,
,,6554d5f1a5b42aea269aa82a,65af55b29cebb2ff24f0998e,2024-01-23_07h00.03.652,bars,2023.2.3,Win32,17.98561151,657b66ea316d21385b68909f,,,,,,,,,,,,,,,,,,,,,,,,,,,,,,,,,,,,,,,,,,264.1892,264.9229,right,0.6759,,264.9229,0,2,265.9202,0,8,8,8,1,0,2,1,0,,,,,,,,,,,,,,,,,,,,,,,,,,,,,,,,,,,,,,,,,
,,6554d5f1a5b42aea269aa82a,65af55b29cebb2ff24f0998e,2024-01-23_07h00.03.652,bars,2023.2.3,Win32,17.98561151,657b66ea316d21385b68909f,,,,,,,,,,,,,,,,,,,,,,,,,,,,,,,,,,,,,,,,,,265.9205,266.3756,left,0.3946,,266.3757,2,1,267.3904,0,9,9,9,1,2,4,2,3,,,,,,,,,,,,,,,,,,,,,,,,,,,,,,,,,,,,,,,,,
,,6554d5f1a5b42aea269aa82a,65af55b29cebb2ff24f0998e,2024-01-23_07h00.03.652,bars,2023.2.3,Win32,17.98561151,657b66ea316d21385b68909f,,,,,,,,,,,,,,,,,,,,,,,,,,,,,,,,,,,,,,,,,,267.3907,268.0656,left,0.6171,,268.0656,0,1,269.0855,0,10,10,10,1,0,2,0,3,,,,,,,,,,,,,,,,,,,,,,,,,,,,,,,,,,,,,,,,,
,,6554d5f1a5b42aea269aa82a,65af55b29cebb2ff24f0998e,2024-01-23_07h00.03.652,bars,2023.2.3,Win32,17.98561151,657b66ea316d21385b68909f,,,,,,,,,,,,,,,,,,,,,,,,,,,,,,,,,,,,,,,,,,269.0859,270.0819,left,0.9294,,270.0819,0,1,271.0951,0,11,11,11,1,0,4,0,3,,,,,,,,,,,,,,,,,,,,,,,,,,,,,,,,,,,,,,,,,
,,6554d5f1a5b42aea269aa82a,65af55b29cebb2ff24f0998e,2024-01-23_07h00.03.652,bars,2023.2.3,Win32,17.98561151,657b66ea316d21385b68909f,,,,,,,,,,,,,,,,,,,,,,,,,,,,,,,,,,,,,,,,,,271.0953,271.6313,right,0.474,,271.6314,6,2,272.5948,0,12,12,12,1,2,6,1,6,,,,,,,,,,,,,,,,,,,,,,,,,,,,,,,,,,,,,,,,,
,,6554d5f1a5b42aea269aa82a,65af55b29cebb2ff24f0998e,2024-01-23_07h00.03.652,bars,2023.2.3,Win32,17.98561151,657b66ea316d21385b68909f,,,,,,,,,,,,,,,,,,,,,,,,,,,,,,,,,,,,,,,,,,272.5951,273.0637,right,0.4103,,273.0638,3,2,274.0227,0,13,13,13,1,0,4,1,3,,,,,,,,,,,,,,,,,,,,,,,,,,,,,,,,,,,,,,,,,
,,6554d5f1a5b42aea269aa82a,65af55b29cebb2ff24f0998e,2024-01-23_07h00.03.652,bars,2023.2.3,Win32,17.98561151,657b66ea316d21385b68909f,,,,,,,,,,,,,,,,,,,,,,,,,,,,,,,,,,,,,,,,,,274.0228,275.8271,right,1.7448,,275.8271,7,2,276.787,0,14,14,14,1,2,6,2,7,,,,,,,,,,,,,,,,,,,,,,,,,,,,,,,,,,,,,,,,,
,,6554d5f1a5b42aea269aa82a,65af55b29cebb2ff24f0998e,2024-01-23_07h00.03.652,bars,2023.2.3,Win32,17.98561151,657b66ea316d21385b68909f,,,,,,,,,,,,,,,,,,,,,,,,,,,,,,,,,,,,,,,,,,276.7872,278.2849,right,1.4365,,278.2849,9,2,279.2884,0,15,15,15,1,4,8,3,9,,,,,,,,,,,,,,,,,,,,,,,,,,,,,,,,,,,,,,,,,
,,6554d5f1a5b42aea269aa82a,65af55b29cebb2ff24f0998e,2024-01-23_07h00.03.652,bars,2023.2.3,Win32,17.98561151,657b66ea316d21385b68909f,,,,,,,,,,,,,,,,,,,,,,,,,,,,,,,,,,,,,,,,,,279.2886,279.7443,right,0.3955,,279.7444,7,2,280.6952,0,16,16,16,1,6,6,7,7,,,,,,,,,,,,,,,,,,,,,,,,,,,,,,,,,,,,,,,,,
,,6554d5f1a5b42aea269aa82a,65af55b29cebb2ff24f0998e,2024-01-23_07h00.03.652,bars,2023.2.3,Win32,17.98561151,657b66ea316d21385b68909f,,,,,,,,,,,,,,,,,,,,,,,,,,,,,,,,,,,,,,,,,,280.6953,281.0872,left,0.3317,,281.0872,9,1,282.0821,0,17,17,17,1,8,4,9,5,,,,,,,,,,,,,,,,,,,,,,,,,,,,,,,,,,,,,,,,,
,,6554d5f1a5b42aea269aa82a,65af55b29cebb2ff24f0998e,2024-01-23_07h00.03.652,bars,2023.2.3,Win32,17.98561151,657b66ea316d21385b68909f,,,,,,,,,,,,,,,,,,,,,,,,,,,,,,,,,,,,,,,,,,282.0823,283.2134,right,1.0723,,283.2134,1,2,284.2238,0,18,18,18,1,6,2,5,1,,,,,,,,,,,,,,,,,,,,,,,,,,,,,,,,,,,,,,,,,
,,6554d5f1a5b42aea269aa82a,65af55b29cebb2ff24f0998e,2024-01-23_07h00.03.652,bars,2023.2.3,Win32,17.98561151,657b66ea316d21385b68909f,,,,,,,,,,,,,,,,,,,,,,,,,,,,,,,,,,,,,,,,,,284.2242,285.3698,left,1.0896,,285.3698,7,1,286.3296,0,19,19,19,1,8,0,7,0,,,,,,,,,,,,,,,,,,,,,,,,,,,,,,,,,,,,,,,,,
,,6554d5f1a5b42aea269aa82a,65af55b29cebb2ff24f0998e,2024-01-23_07h00.03.652,bars,2023.2.3,Win32,17.98561151,657b66ea316d21385b68909f,,,,,,,,,,,,,,,,,,,,,,,,,,,,,,,,,,,,,,,,,,,,,,,,,,,,,,,,,,,,286.3299,315.6412,space,29.2498,,,,,,,,,,,,,,,,,,,,,,,,,,,,,,,,,,,,,
,,6554d5f1a5b42aea269aa82a,65af55b29cebb2ff24f0998e,2024-01-23_07h00.03.652,bars,2023.2.3,Win32,17.98561151,657b66ea316d21385b68909f,,,,,,,,,,,317.3236,318.2793,,,318.7439,318.9492,,126,126,,,,,,,,,,,,,,,,bars/042.png,bars/mask000.png,,,,,,,,,,,,2,1,,,,,,,5,5,5,2,,,,,,315.6473,317.3214,space,1.6129,,318.2795,318.7439,318.9494,324.9354,space,5.9237,,324.9356,19,51,325.9401,325.9402,344.8709,space,18.8669,,0,0,0,0,1,145,75,,,,,,,,
,,6554d5f1a5b42aea269aa82a,65af55b29cebb2ff24f0998e,2024-01-23_07h00.03.652,bars,2023.2.3,Win32,17.98561151,657b66ea316d21385b68909f,,,,,,,,,,,344.8753,345.8393,,,346.3492,346.6137,,44,44,,,,,,,,,,,,,,,,bars/034.png,bars/mask005.png,,,,,,,,,,,,1,2,,,,,,,7,3,8,4,,,,,,,,,,,345.8393,346.3491,346.6137,353.3102,space,6.6302,,353.3102,81,21,354.2748,354.2749,359,space,4.6477,,0,1,1,1,1,125,65,,,,,,,,
,,6554d5f1a5b42aea269aa82a,65af55b29cebb2ff24f0998e,2024-01-23_07h00.03.652,bars,2023.2.3,Win32,17.98561151,657b66ea316d21385b68909f,,,,,,,,,,,359.0045,359.9733,,,360.4311,360.6337,,128,128,,,,,,,,,,,,,,,,bars/031.png,bars/mask006.png,,,,,,,,,,,,3,1,,,,,,,5,5,4,6,,,,,,,,,,,359.9733,360.4311,360.6338,363.1579,space,2.4648,,363.1579,8,87,364.1378,364.1379,368.4879,space,4.2799,,0,2,2,2,1,120,35,,,,,,,,
,,6554d5f1a5b42aea269aa82a,65af55b29cebb2ff24f0998e,2024-01-23_07h00.03.652,bars,2023.2.3,Win32,17.98561151,657b66ea316d21385b68909f,,,,,,,,,,,368.4922,369.4393,,,369.914,370.1715,,122,122,,,,,,,,,,,,,,,,bars/028.png,bars/mask001.png,,,,,,,,,,,,7,2,,,,,,,7,7,7,7,,,,,,,,,,,369.4393,369.914,370.1715,374.2599,space,4.0261,,374.2599,77,2,375.2156,375.2156,377.631,space,2.3344,,0,3,3,3,1,45,120,,,,,,,,
,,6554d5f1a5b42aea269aa82a,65af55b29cebb2ff24f0998e,2024-01-23_07h00.03.652,bars,2023.2.3,Win32,17.98561151,657b66ea316d21385b68909f,,,,,,,,,,,377.6313,378.5886,,,379.0725,379.3362,,32,212,,,,,,,,,,,,,,,,bars/007.png,bars/mask004.png,,,,,,,,,,,,1,2,,,,,,,5,5,6,4,,,,,,,,,,,378.5886,379.0725,379.3362,384.0673,space,4.6694,,384.0673,37,23,385.0203,385.0203,388.5984,space,3.5116,,0,4,4,4,1,175,55,,,,,,,,
,,6554d5f1a5b42aea269aa82a,65af55b29cebb2ff24f0998e,2024-01-23_07h00.03.652,bars,2023.2.3,Win32,17.98561151,657b66ea316d21385b68909f,,,,,,,,,,,388.6027,389.6123,,,390.0718,390.3233,,26,206,,,,,,,,,,,,,,,,bars/012.png,bars/mask009.png,,,,,,,,,,,,5,2,,,,,,,7,7,8,8,,,,,,,,,,,389.6124,390.0718,390.3234,395.3524,space,4.9692,,395.3524,64,11,396.3687,396.3687,398.2043,space,1.7693,,0,5,5,5,1,90,15,,,,,,,,
,,6554d5f1a5b42aea269aa82a,65af55b29cebb2ff24f0998e,2024-01-23_07h00.03.652,bars,2023.2.3,Win32,17.98561151,657b66ea316d21385b68909f,,,,,,,,,,,398.2045,399.2151,,,399.6694,399.8692,,175,175,,,,,,,,,,,,,,,,bars/026.png,bars/mask002.png,,,,,,,,,,,,0,1,,,,,,,9,9,7,9,,,,,,,,,,,399.2151,399.6694,399.8692,404.2308,space,4.3017,,404.2308,40,90,405.1803,405.1803,408.9158,space,3.6679,,0,6,6,6,1,35,85,,,,,,,,
,,6554d5f1a5b42aea269aa82a,65af55b29cebb2ff24f0998e,2024-01-23_07h00.03.652,bars,2023.2.3,Win32,17.98561151,657b66ea316d21385b68909f,,,,,,,,,,,408.9207,409.8817,,,410.3462,410.6088,,140,-40,,,,,,,,,,,,,,,,bars/038.png,bars/mask004.png,,,,,,,,,,,,2,1,,,,,,,10,10,10,8,,,,,,,,,,,409.8817,410.3462,410.6089,414.6816,space,4.0119,,414.6816,25,70,415.6963,415.6963,416.9333,space,1.1723,,0,7,7,7,1,165,70,,,,,,,,
,,6554d5f1a5b42aea269aa82a,65af55b29cebb2ff24f0998e,2024-01-23_07h00.03.652,bars,2023.2.3,Win32,17.98561151,657b66ea316d21385b68909f,,,,,,,,,,,416.9335,417.8962,,,418.3564,418.564,,18,18,,,,,,,,,,,,,,,,bars/032.png,bars/mask007.png,,,,,,,,,,,,9,2,,,,,,,10,10,10,10,,,,,,,,,,,417.8963,418.3563,418.5641,422.9316,space,4.3056,,422.9316,73,2,423.8847,423.8847,426.196,space,2.2452,,0,8,8,8,1,125,20,,,,,,,,
,,6554d5f1a5b42aea269aa82a,65af55b29cebb2ff24f0998e,2024-01-23_07h00.03.652,bars,2023.2.3,Win32,17.98561151,657b66ea316d21385b68909f,,,,,,,,,,,426.1966,427.2002,,,427.6757,427.9421,,48,48,,,,,,,,,,,,,,,,bars/035.png,bars/mask005.png,,,,,,,,,,,,6,2,,,,,,,8,10,9,10,,,,,,,,,,,427.2003,427.6757,427.9421,430.8385,space,2.8374,,430.8385,53,12,431.7938,431.7938,434.6915,space,2.8276,,0,9,9,9,1,175,60,,,,,,,,
,,6554d5f1a5b42aea269aa82a,65af55b29cebb2ff24f0998e,2024-01-23_07h00.03.652,bars,2023.2.3,Win32,17.98561151,657b66ea316d21385b68909f,,,,,,,,,,,434.6918,435.693,,,436.1721,436.3735,,27,27,,,,,,,,,,,,,,,,bars/026.png,bars/mask002.png,,,,,,,,,,,,5,1,,,,,,,6,8,7,7,,,,,,,,,,,435.693,436.172,436.3736,440.1645,space,3.7296,,440.1646,8,58,441.1428,441.1429,443.3272,space,2.1142,,0,10,10,10,1,35,85,,,,,,,,
,,6554d5f1a5b42aea269aa82a,65af55b29cebb2ff24f0998e,2024-01-23_07h00.03.652,bars,2023.2.3,Win32,17.98561151,657b66ea316d21385b68909f,,,,,,,,,,,443.3274,444.3337,,,444.8251,445.093,,25,25,,,,,,,,,,,,,,,,bars/049.png,bars/mask005.png,,,,,,,,,,,,0,1,,,,,,,4,6,5,5,,,,,,,,,,,444.3338,444.8251,445.093,448.5234,space,3.3704,,448.5235,45,90,449.5275,449.5275,451.3672,space,1.7746,,0,11,11,11,1,160,115,,,,,,,,
,,6554d5f1a5b42aea269aa82a,65af55b29cebb2ff24f0998e,2024-01-23_07h00.03.652,bars,2023.2.3,Win32,17.98561151,657b66ea316d21385b68909f,,,,,,,,,,,451.3674,452.3767,,,452.8311,453.0354,,35,215,,,,,,,,,,,,,,,,bars/025.png,bars/mask004.png,,,,,,,,,,,,3,2,,,,,,,6,4,6,3,,,,,,,,,,,452.3767,452.831,453.0354,458.4449,space,5.3372,,458.4449,70,5,459.4619,459.4619,462.5692,space,3.0428,,0,12,12,12,1,105,40,,,,,,,,
,,6554d5f1a5b42aea269aa82a,65af55b29cebb2ff24f0998e,2024-01-23_07h00.03.652,bars,2023.2.3,Win32,17.98561151,657b66ea316d21385b68909f,,,,,,,,,,,462.5735,463.5376,,,463.9967,464.2549,,128,-52,,,,,,,,,,,,,,,,bars/004.png,bars/mask003.png,,,,,,,,,,,,5,2,,,,,,,8,6,6,6,,,,,,,,,,,463.5377,463.9967,464.2549,469.4924,space,5.1771,,469.4925,77,3,470.4628,470.4628,472.1832,space,1.6541,,0,13,13,13,1,25,125,,,,,,,,
,,6554d5f1a5b42aea269aa82a,65af55b29cebb2ff24f0998e,2024-01-23_07h00.03.652,bars,2023.2.3,Win32,17.98561151,657b66ea316d21385b68909f,,,,,,,,,,,472.1834,473.1636,,,473.6401,473.8962,,39,219,,,,,,,,,,,,,,,,bars/042.png,bars/mask003.png,,,,,,,,,,,,0,2,,,,,,,6,4,5,4,,,,,,,,,,,473.1637,473.6401,473.8962,477.6677,space,3.7084,,477.6677,74,36,478.693,478.6931,480.5574,space,1.7963,,0,14,14,14,1,145,75,,,,,,,,
,,6554d5f1a5b42aea269aa82a,65af55b29cebb2ff24f0998e,2024-01-23_07h00.03.652,bars,2023.2.3,Win32,17.98561151,657b66ea316d21385b68909f,,,,,,,,,,,480.5576,481.5716,,,482.0246,482.282,,95,95,,,,,,,,,,,,,,,,bars/039.png,bars/mask005.png,,,,,,,,,,,,1,2,,,,,,,4,2,3,2,,,,,,,,,,,481.5717,482.0245,482.282,484.7742,space,2.4318,,484.7742,80,10,485.7812,485.7813,487.3876,space,1.5243,,0,15,15,15,1,175,105,,,,,,,,
,,6554d5f1a5b42aea269aa82a,65af55b29cebb2ff24f0998e,2024-01-23_07h00.03.652,bars,2023.2.3,Win32,17.98561151,657b66ea316d21385b68909f,,,,,,,,,,,487.388,488.4007,,,488.8519,489.1147,,122,122,,,,,,,,,,,,,,,,bars/031.png,bars/mask008.png,,,,,,,,,,,,3,1,,,,,,,2,4,3,5,,,,,,,,,,,488.4007,488.8518,489.1147,491.9088,space,2.7359,,491.9089,2,87,492.8649,492.865,494.629,space,1.7004,,0,16,16,16,1,120,35,,,,,,,,
,,6554d5f1a5b42aea269aa82a,65af55b29cebb2ff24f0998e,2024-01-23_07h00.03.652,bars,2023.2.3,Win32,17.98561151,657b66ea316d21385b68909f,,,,,,,,,,,494.6292,495.587,,,496.0692,496.2817,,109,109,,,,,,,,,,,,,,,,bars/019.png,bars/mask009.png,,,,,,,,,,,,3,2,,,,,,,0,2,0,4,,,,,,,,,,,495.587,496.0692,496.2817,501.8425,space,5.5011,,501.8425,64,4,502.8128,502.8128,504.1144,space,1.2326,,0,17,17,17,1,45,105,,,,,,,,
,,6554d5f1a5b42aea269aa82a,65af55b29cebb2ff24f0998e,2024-01-23_07h00.03.652,bars,2023.2.3,Win32,17.98561151,657b66ea316d21385b68909f,,,,,,,,,,,504.1146,505.0678,,,505.5292,505.7452,,72,72,,,,,,,,,,,,,,,,bars/042.png,bars/mask003.png,,,,,,,,,,,,1,2,,,,,,,0,0,2,1,,,,,,,,,,,505.0679,505.5291,505.7452,508.0031,space,2.1953,,508.0032,73,3,509.0093,509.0093,510.4801,space,1.4018,,0,18,18,18,1,145,75,,,,,,,,
,,6554d5f1a5b42aea269aa82a,65af55b29cebb2ff24f0998e,2024-01-23_07h00.03.652,bars,2023.2.3,Win32,17.98561151,657b66ea316d21385b68909f,,,,,,,,,,,510.4803,511.4842,,,512.002,512.2563,,5,5,,,,,,,,,,,,,,,,bars/041.png,bars/mask004.png,,,,,,,,,,,,1,1,,,,,,,0,0,1,0,,,,,,,,,,,511.4843,512.0019,512.2563,515.3909,space,3.0741,,515.3911,15,80,516.3669,516.3671,517.7345,space,1.2923,,0,19,19,19,1,20,85,,,,,,,,
,,6554d5f1a5b42aea269aa82a,65af55b29cebb2ff24f0998e,2024-01-23_07h00.03.652,bars,2023.2.3,Win32,17.98561151,657b66ea316d21385b68909f,,,,,,,,,,,517.7348,518.7246,,,519.2018,519.4555,,84,84,,,,,,,,,,,,,,,,bars/041.png,bars/mask008.png,,,,,,,,,,,,2,2,,,,,,,2,2,3,2,,,,,,,,,,,518.7246,519.2018,519.4555,522.8097,space,3.2848,,522.8097,64,1,523.8146,523.8146,524.7361,space,0.8544,,0,20,20,20,1,20,85,,,,,,,,
,,6554d5f1a5b42aea269aa82a,65af55b29cebb2ff24f0998e,2024-01-23_07h00.03.652,bars,2023.2.3,Win32,17.98561151,657b66ea316d21385b68909f,,,,,,,,,,,524.7363,525.7391,,,526.1943,526.4506,,94,94,,,,,,,,,,,,,,,,bars/021.png,bars/mask006.png,,,,,,,,,,,,0,2,,,,,,,0,0,0,0,,,,,,,,,,,525.7391,526.1942,526.4507,528.5606,space,2.0372,,528.5606,61,24,529.575,529.575,530.6861,space,1.0559,,0,21,21,21,1,155,70,,,,,,,,
,,6554d5f1a5b42aea269aa82a,65af55b29cebb2ff24f0998e,2024-01-23_07h00.03.652,bars,2023.2.3,Win32,17.98561151,657b66ea316d21385b68909f,,,,,,,,,,,530.6864,531.6357,,,532.0957,532.3625,,130,130,,,,,,,,,,,,,,,,bars/015.png,bars/mask009.png,,,,,,,,,,,,0,1,,,,,,,0,2,0,2,,,,,,,,,,,531.6357,532.0957,532.3626,533.6337,space,1.2095,,533.6337,20,30,534.6436,534.6437,535.8264,space,1.1081,,0,22,22,22,1,110,160,,,,,,,,
,,6554d5f1a5b42aea269aa82a,65af55b29cebb2ff24f0998e,2024-01-23_07h00.03.652,bars,2023.2.3,Win32,17.98561151,657b66ea316d21385b68909f,,,,,,,,,,,535.8269,536.8397,,,537.3018,537.5571,,155,-25,,,,,,,,,,,,,,,,bars/005.png,bars/mask007.png,,,,,,,,,,,,3,2,,,,,,,2,4,2,6,,,,,,,,,,,536.8397,537.3017,537.5571,543.0223,space,5.4071,,543.0223,35,15,544.0356,544.0356,544.782,space,0.6798,,0,23,23,23,1,10,140,,,,,,,,
,,6554d5f1a5b42aea269aa82a,65af55b29cebb2ff24f0998e,2024-01-23_07h00.03.652,bars,2023.2.3,Win32,17.98561151,657b66ea316d21385b68909f,,,,,,,,,,,544.7823,545.7417,,,546.1985,546.4022,,103,103,,,,,,,,,,,,,,,,bars/026.png,bars/mask000.png,,,,,,,,,,,,1,2,,,,,,,4,2,5,3,,,,,,,,,,,545.7417,546.1985,546.4022,551.0409,space,4.5791,,551.041,68,18,552.0434,552.0435,552.9593,space,0.8497,,0,24,24,24,1,35,85,,,,,,,,
,,6554d5f1a5b42aea269aa82a,65af55b29cebb2ff24f0998e,2024-01-23_07h00.03.652,bars,2023.2.3,Win32,17.98561151,657b66ea316d21385b68909f,,,,,,,,,,,552.9596,553.9193,,,554.385,554.6381,,144,144,,,,,,,,,,,,,,,,bars/040.png,bars/mask000.png,,,,,,,,,,,,2,1,,,,,,,2,4,2,4,,,,,,,,,,,553.9193,554.385,554.6381,557.8177,space,3.1191,,557.8177,4,41,558.795,558.795,559.7224,space,0.8505,,0,25,25,25,1,140,5,,,,,,,,
,,6554d5f1a5b42aea269aa82a,65af55b29cebb2ff24f0998e,2024-01-23_07h00.03.652,bars,2023.2.3,Win32,17.98561151,657b66ea316d21385b68909f,,,,,,,,,,,559.7226,560.6859,,,561.1515,561.358,,133,-47,,,,,,,,,,,,,,,,bars/034.png,bars/mask004.png,,,,,,,,,,,,0,1,,,,,,,0,6,0,7,,,,,,,,,,,560.6859,561.1514,561.358,565.5987,space,4.1775,,565.5988,8,68,566.5978,566.5979,567.4383,space,0.775,,0,26,26,26,1,125,65,,,,,,,,
,,6554d5f1a5b42aea269aa82a,65af55b29cebb2ff24f0998e,2024-01-23_07h00.03.652,bars,2023.2.3,Win32,17.98561151,657b66ea316d21385b68909f,,,,,,,,,,,567.4385,568.4072,,,568.9232,569.1889,,5,5,,,,,,,,,,,,,,,,bars/038.png,bars/mask000.png,,,,,,,,,,,,1,1,,,,,,,2,8,2,9,,,,,,,,,,,568.4072,568.9232,569.1889,573.0364,space,3.7865,,573.0365,20,65,573.9967,573.9967,574.905,space,0.8435,,0,27,27,27,1,165,70,,,,,,,,
,,6554d5f1a5b42aea269aa82a,65af55b29cebb2ff24f0998e,2024-01-23_07h00.03.652,bars,2023.2.3,Win32,17.98561151,657b66ea316d21385b68909f,,,,,,,,,,,574.9052,575.858,,,576.3119,576.5788,,37,37,,,,,,,,,,,,,,,,bars/004.png,bars/mask006.png,,,,,,,,,,,,0,1,,,,,,,0,6,0,5,,,,,,,,,,,575.8581,576.3119,576.5788,579.8945,space,3.2516,,579.8945,12,88,580.8975,580.8975,582.2771,space,1.3128,,0,28,28,28,1,25,125,,,,,,,,
,,6554d5f1a5b42aea269aa82a,65af55b29cebb2ff24f0998e,2024-01-23_07h00.03.652,bars,2023.2.3,Win32,17.98561151,657b66ea316d21385b68909f,,,,,,,,,,,582.2774,583.2359,,,583.7074,583.9094,,128,128,,,,,,,,,,,,,,,,bars/018.png,bars/mask008.png,,,,,,,,,,,,0,1,,,,,,,0,4,0,4,,,,,,,,,,,583.236,583.7074,583.9094,586.8118,space,2.8425,,586.8118,22,38,587.8226,587.8227,588.928,space,1.0372,,0,29,29,29,1,150,90,,,,,,,,
,,6554d5f1a5b42aea269aa82a,65af55b29cebb2ff24f0998e,2024-01-23_07h00.03.652,bars,2023.2.3,Win32,17.98561151,657b66ea316d21385b68909f,,,,,,,,,,,588.9282,589.8823,,,590.339,590.6052,,134,134,,,,,,,,,,,,,,,,bars/032.png,bars/mask007.png,,,,,,,,,,,,1,1,,,,,,,2,6,2,7,,,,,,,,,,,589.8824,590.3389,590.6053,593.3036,space,2.6295,,593.3037,9,66,594.2607,594.2608,595.2089,space,0.8856,,0,30,30,30,1,125,20,,,,,,,,
,,6554d5f1a5b42aea269aa82a,65af55b29cebb2ff24f0998e,2024-01-23_07h00.03.652,bars,2023.2.3,Win32,17.98561151,657b66ea316d21385b68909f,,,,,,,,,,,595.2091,596.2171,,,596.6839,596.9403,,137,-43,,,,,,,,,,,,,,,,bars/031.png,bars/mask002.png,,,,,,,,,,,,0,1,,,,,,,0,4,0,4,,,,,,,,,,,596.2172,596.6839,596.9404,604.2716,space,7.2695,,604.2717,17,78,605.2283,605.2283,626.5951,space,21.2933,,0,31,31,31,1,120,35,,,,,,,,
,,6554d5f1a5b42aea269aa82a,65af55b29cebb2ff24f0998e,2024-01-23_07h00.03.652,bars,2023.2.3,Win32,17.98561151,657b66ea316d21385b68909f,,,,,,,,,,,626.5954,627.5917,,,628.0781,628.3035,,102,102,,,,,,,,,,,,,,,,bars/021.png,bars/mask001.png,,,,,,,,,,,,0,2,,,,,,,2,6,2,5,,,,,,,,,,,627.5917,628.0781,628.3035,631.2992,space,2.9419,,631.2992,53,32,632.3113,632.3113,633.4019,space,1.0306,,0,32,32,32,1,155,70,,,,,,,,
,,6554d5f1a5b42aea269aa82a,65af55b29cebb2ff24f0998e,2024-01-23_07h00.03.652,bars,2023.2.3,Win32,17.98561151,657b66ea316d21385b68909f,,,,,,,,,,,633.402,634.4218,,,634.8813,635.1086,,51,51,,,,,,,,,,,,,,,,bars/009.png,bars/mask001.png,,,,,,,,,,,,0,1,,,,,,,4,4,4,5,,,,,,,,,,,634.4218,634.8813,635.1086,639.0101,space,3.8482,,639.0102,36,54,640.0162,640.0162,640.9229,space,0.844,,0,33,33,33,1,15,105,,,,,,,,
,,6554d5f1a5b42aea269aa82a,65af55b29cebb2ff24f0998e,2024-01-23_07h00.03.652,bars,2023.2.3,Win32,17.98561151,657b66ea316d21385b68909f,,,,,,,,,,,640.9231,641.9255,,,642.3917,642.6165,,57,57,,,,,,,,,,,,,,,,bars/029.png,bars/mask000.png,,,,,,,,,,,,1,2,,,,,,,2,2,2,2,,,,,,,,,,,641.9255,642.3917,642.6166,644.1814,space,1.5067,,644.1816,33,12,645.1808,645.1808,646.1825,space,0.9418,,0,34,34,34,1,90,45,,,,,,,,
,,6554d5f1a5b42aea269aa82a,65af55b29cebb2ff24f0998e,2024-01-23_07h00.03.652,bars,2023.2.3,Win32,17.98561151,657b66ea316d21385b68909f,,,,,,,,,,,646.1827,647.1743,,,647.6371,647.8717,,55,55,,,,,,,,,,,,,,,,bars/017.png,bars/mask000.png,,,,,,,,,,,,0,2,,,,,,,0,0,0,0,,,,,,,,,,,647.1743,647.6371,647.8717,650.0905,space,2.1652,,650.0906,90,10,651.0613,651.0614,657.8718,space,6.7569,,0,35,35,35,1,145,45,,,,,,,,
,,6554d5f1a5b42aea269aa82a,65af55b29cebb2ff24f0998e,2024-01-23_07h00.03.652,bars,2023.2.3,Win32,17.98561151,657b66ea316d21385b68909f,,,,,,,,,,,657.876,658.8832,,,659.3929,659.6187,,115,115,,,,,,,,,,,,,,,,bars/011.png,bars/mask006.png,,,,,,,,,,,,0,2,,,,,,,2,2,3,2,,,,,,,,,,,658.8832,659.3929,659.6187,664.538,space,4.8655,,664.538,45,30,665.5312,665.5312,666.6639,space,1.0744,,0,36,36,36,1,160,85,,,,,,,,
,,6554d5f1a5b42aea269aa82a,65af55b29cebb2ff24f0998e,2024-01-23_07h00.03.652,bars,2023.2.3,Win32,17.98561151,657b66ea316d21385b68909f,,,,,,,,,,,666.6641,667.6639,,,668.1226,668.3588,,104,-76,,,,,,,,,,,,,,,,bars/018.png,bars/mask000.png,,,,,,,,,,,,0,2,,,,,,,4,0,3,0,,,,,,,,,,,667.664,668.1226,668.3588,673.8972,space,5.4832,,673.8972,46,14,674.8919,674.892,675.6811,space,0.7286,,0,37,37,37,1,150,90,,,,,,,,
,,6554d5f1a5b42aea269aa82a,65af55b29cebb2ff24f0998e,2024-01-23_07h00.03.652,bars,2023.2.3,Win32,17.98561151,657b66ea316d21385b68909f,,,,,,,,,,,675.6814,676.6764,,,677.1905,677.4164,,104,104,,,,,,,,,,,,,,,,bars/015.png,bars/mask008.png,,,,,,,,,,,,2,1,,,,,,,2,2,2,3,,,,,,,,,,,676.6764,677.1905,677.4164,683.7282,space,6.2605,,683.7282,6,56,684.7195,684.7196,689.4985,space,4.7189,,0,38,38,38,1,110,160,,,,,,,,
,,6554d5f1a5b42aea269aa82a,65af55b29cebb2ff24f0998e,2024-01-23_07h00.03.652,bars,2023.2.3,Win32,17.98561151,657b66ea316d21385b68909f,,,,,,,,,,,689.5026,690.5005,,,691.0126,691.2405,,55,55,,,,,,,,,,,,,,,,bars/025.png,bars/mask001.png,,,,,,,,,,,,3,2,,,,,,,4,4,5,5,,,,,,,,,,,690.5006,691.0126,691.2405,694.151,space,2.8565,,694.1511,50,15,695.1529,695.1529,696.0621,space,0.8496,,0,39,39,39,1,105,40,,,,,,,,
,,6554d5f1a5b42aea269aa82a,65af55b29cebb2ff24f0998e,2024-01-23_07h00.03.652,bars,2023.2.3,Win32,17.98561151,657b66ea316d21385b68909f,,,,,,,,,,,696.0628,697.0656,,,697.5817,697.8072,,109,109,,,,,,,,,,,,,,,,bars/028.png,bars/mask000.png,,,,,,,,,,,,1,2,,,,,,,6,2,6,1,,,,,,,,,,,697.0656,697.5817,697.8073,701.8641,space,3.9967,,701.8641,64,11,702.8561,702.8561,704.1074,space,1.1919,,0,40,40,40,1,45,120,,,,,,,,
,,6554d5f1a5b42aea269aa82a,65af55b29cebb2ff24f0998e,2024-01-23_07h00.03.652,bars,2023.2.3,Win32,17.98561151,657b66ea316d21385b68909f,,,,,,,,,,,704.1078,705.0968,,,705.6062,705.8353,,140,140,,,,,,,,,,,,,,,,bars/040.png,bars/mask008.png,,,,,,,,,,,,3,1,,,,,,,4,4,3,4,,,,,,,,,,,705.0968,705.6062,705.8353,708.0838,space,2.1912,,708.0839,0,45,709.103,709.103,709.8918,space,0.7293,,0,41,41,41,1,140,5,,,,,,,,
,,6554d5f1a5b42aea269aa82a,65af55b29cebb2ff24f0998e,2024-01-23_07h00.03.652,bars,2023.2.3,Win32,17.98561151,657b66ea316d21385b68909f,,,,,,,,,,,709.8921,710.8507,,,711.3247,711.5937,,34,214,,,,,,,,,,,,,,,,bars/047.png,bars/mask009.png,,,,,,,,,,,,2,1,,,,,,,6,2,5,1,,,,,,,,,,,710.8507,711.3247,711.5937,717.3339,space,5.6714,,717.3339,19,36,718.3303,718.3303,719.0353,space,0.6471,,0,42,42,42,1,15,70,,,,,,,,
,,6554d5f1a5b42aea269aa82a,65af55b29cebb2ff24f0998e,2024-01-23_07h00.03.652,bars,2023.2.3,Win32,17.98561151,657b66ea316d21385b68909f,,,,,,,,,,,719.0356,719.9914,,,720.4601,720.6861,,46,46,,,,,,,,,,,,,,,,bars/035.png,bars/mask004.png,,,,,,,,,,,,0,2,,,,,,,8,0,8,0,,,,,,,,,,,719.9914,720.4601,720.6861,722.861,space,2.1216,,722.8611,51,14,723.8664,723.8664,724.6405,space,0.7152,,0,43,43,43,1,175,60,,,,,,,,
,,6554d5f1a5b42aea269aa82a,65af55b29cebb2ff24f0998e,2024-01-23_07h00.03.652,bars,2023.2.3,Win32,17.98561151,657b66ea316d21385b68909f,,,,,,,,,,,724.6407,725.6405,,,726.1459,726.3781,,84,84,,,,,,,,,,,,,,,,bars/011.png,bars/mask005.png,,,,,,,,,,,,0,2,,,,,,,6,2,7,0,,,,,,,,,,,725.6405,726.1459,726.3781,729.2549,space,2.8171,,729.2549,76,1,730.2631,730.2631,730.9324,space,0.6102,,0,44,44,44,1,160,85,,,,,,,,
,,6554d5f1a5b42aea269aa82a,65af55b29cebb2ff24f0998e,2024-01-23_07h00.03.652,bars,2023.2.3,Win32,17.98561151,657b66ea316d21385b68909f,,,,,,,,,,,730.9328,731.9111,,,732.417,732.6436,,45,45,,,,,,,,,,,,,,,,bars/007.png,bars/mask004.png,,,,,,,,,,,,3,2,,,,,,,4,4,5,5,,,,,,,,,,,731.9111,732.417,732.6437,736.0121,space,3.3154,,736.0122,50,10,736.9996,736.9996,737.7669,space,0.7096,,0,45,45,45,1,175,55,,,,,,,,
,,6554d5f1a5b42aea269aa82a,65af55b29cebb2ff24f0998e,2024-01-23_07h00.03.652,bars,2023.2.3,Win32,17.98561151,657b66ea316d21385b68909f,,,,,,,,,,,737.7671,738.7446,,,739.2726,739.5022,,0,180,,,,,,,,,,,,,,,,bars/014.png,bars/mask004.png,,,,,,,,,,,,4,2,,,,,,,6,6,7,4,,,,,,,,,,,738.7446,739.2726,739.5022,743.2515,space,3.6903,,743.2516,80,0,744.2508,744.2509,744.9161,space,0.6062,,0,46,46,46,1,80,0,,,,,,,,
,,6554d5f1a5b42aea269aa82a,65af55b29cebb2ff24f0998e,2024-01-23_07h00.03.652,bars,2023.2.3,Win32,17.98561151,657b66ea316d21385b68909f,,,,,,,,,,,744.9164,745.9255,,,746.4296,746.6655,,126,126,,,,,,,,,,,,,,,,bars/028.png,bars/mask006.png,,,,,,,,,,,,5,2,,,,,,,4,8,3,6,,,,,,,,,,,745.9255,746.4296,746.6655,749.5764,space,2.8538,,749.5765,81,6,750.5462,750.5462,751.2881,space,0.6764,,0,47,47,47,1,45,120,,,,,,,,
,,6554d5f1a5b42aea269aa82a,65af55b29cebb2ff24f0998e,2024-01-23_07h00.03.652,bars,2023.2.3,Win32,17.98561151,657b66ea316d21385b68909f,,,,,,,,,,,751.2883,752.2722,,,752.7841,753.0113,,104,104,,,,,,,,,,,,,,,,bars/046.png,bars/mask007.png,,,,,,,,,,,,4,2,,,,,,,6,10,7,10,,,,,,,,,,,752.2722,752.7841,753.0113,756.4329,space,3.366,,756.4329,51,19,757.4214,757.4214,758.0987,space,0.6082,,0,48,48,48,1,155,85,,,,,,,,
,,6554d5f1a5b42aea269aa82a,65af55b29cebb2ff24f0998e,2024-01-23_07h00.03.652,bars,2023.2.3,Win32,17.98561151,657b66ea316d21385b68909f,,,,,,,,,,,758.0989,759.076,,,759.5883,759.8123,,61,61,,,,,,,,,,,,,,,,bars/007.png,bars/mask001.png,,,,,,,,,,,,8,2,,,,,,,8,10,8,10,,,,,,,,,,,759.0761,759.5882,759.8124,763.3921,space,3.5216,,763.3921,66,6,764.3903,764.3903,765.0001,space,0.5516,,0,49,49,49,1,175,55,,,,,,,,
,,6554d5f1a5b42aea269aa82a,65af55b29cebb2ff24f0998e,2024-01-23_07h00.03.652,bars,2023.2.3,Win32,17.98561151,657b66ea316d21385b68909f,,,,,,,,,,,,,,,,,,,,,,,,,,,,,,,,,,,,,,,,,,,,,,,,,,,,,,,,,,,,,,,,,,,,,,,,,,,,,,,,,,,,,,,,,,,,,765.0004,824.9992,0,0,0,3,1,sequence_tables/blk011.csv
,,6554d5f1a5b42aea269aa82a,65af55b29cebb2ff24f0998e,2024-01-23_07h00.03.652,bars,2023.2.3,Win32,17.98561151,657b66ea316d21385b68909f,,,,,,,,,,,827.6668,828.6251,,,829.0964,829.3038,,6,6,,,,,,,,,,,,,,,,bars/032.png,bars/mask004.png,,,,,,,,,,,,5,2,,,,,,,9,8,9,9,,,,,,825.0041,827.6651,space,2.605,,828.6251,829.0963,829.3038,833.6891,space,4.3193,,833.6892,61,14,834.692,834.692,834.6963,,,,0,0,0,0,1,125,20,,,,,,,,
,,6554d5f1a5b42aea269aa82a,65af55b29cebb2ff24f0998e,2024-01-23_07h00.03.652,bars,2023.2.3,Win32,17.98561151,657b66ea316d21385b68909f,,,,,,,,,,,834.6965,835.6499,,,836.1082,836.3632,,126,126,,,,,,,,,,,,,,,,bars/049.png,bars/mask000.png,,,,,,,,,,,,6,2,,,,,,,7,10,7,10,,,,,,,,,,,835.6499,836.1082,836.3632,838.8685,space,2.4483,,838.8685,34,11,839.8611,839.8612,839.8618,,,,0,1,1,1,1,160,115,,,,,,,,
,,6554d5f1a5b42aea269aa82a,65af55b29cebb2ff24f0998e,2024-01-23_07h00.03.652,bars,2023.2.3,Win32,17.98561151,657b66ea316d21385b68909f,,,,,,,,,,,839.8619,840.8376,,,841.2926,841.4947,,131,131,,,,,,,,,,,,,,,,bars/020.png,bars/mask006.png,,,,,,,,,,,,4,1,,,,,,,9,10,9,10,,,,,,,,,,,840.8376,841.2926,841.4947,844.3155,space,2.7545,,844.3156,16,39,845.2856,845.2856,845.2909,,,,0,2,2,2,1,115,170,,,,,,,,
,,6554d5f1a5b42aea269aa82a,65af55b29cebb2ff24f0998e,2024-01-23_07h00.03.652,bars,2023.2.3,Win32,17.98561151,657b66ea316d21385b68909f,,,,,,,,,,,845.291,846.2799,,,846.7372,846.9415,,116,116,,,,,,,,,,,,,,,,bars/009.png,bars/mask006.png,,,,,,,,,,,,4,2,,,,,,,7,8,8,6,,,,,,,,,,,846.2799,846.7372,846.9416,850.3967,space,3.3903,,850.3967,79,11,851.4007,851.4008,851.406,,,,0,3,3,3,1,15,105,,,,,,,,
,,6554d5f1a5b42aea269aa82a,65af55b29cebb2ff24f0998e,2024-01-23_07h00.03.652,bars,2023.2.3,Win32,17.98561151,657b66ea316d21385b68909f,,,,,,,,,,,851.4062,852.4188,,,852.8889,853.1484,,63,63,,,,,,,,,,,,,,,,bars/047.png,bars/mask003.png,,,,,,,,,,,,8,2,,,,,,,5,10,6,10,,,,,,,,,,,852.4188,852.8889,853.1484,860.4899,space,7.2832,,860.4899,48,7,861.4436,861.4437,861.4496,,,,0,4,4,4,1,15,70,,,,,,,,
,,6554d5f1a5b42aea269aa82a,65af55b29cebb2ff24f0998e,2024-01-23_07h00.03.652,bars,2023.2.3,Win32,17.98561151,657b66ea316d21385b68909f,,,,,,,,,,,861.4496,862.4278,,,862.9113,863.1771,,131,131,,,,,,,,,,,,,,,,bars/020.png,bars/mask006.png,,,,,,,,,,,,3,1,,,,,,,7,8,7,8,,,,,,,,,,,862.4278,862.9113,863.1771,868.5098,space,5.2746,,868.5098,16,39,869.4786,869.4786,869.4838,,,,0,5,5,5,1,115,170,,,,,,,,
,,6554d5f1a5b42aea269aa82a,65af55b29cebb2ff24f0998e,2024-01-23_07h00.03.652,bars,2023.2.3,Win32,17.98561151,657b66ea316d21385b68909f,,,,,,,,,,,869.4838,870.4872,,,870.9709,871.2331,,114,-66,,,,,,,,,,,,,,,,bars/006.png,bars/mask007.png,,,,,,,,,,,,3,2,,,,,,,9,6,9,5,,,,,,,,,,,870.4873,870.9709,871.2331,877.5911,space,6.3005,,877.5911,79,14,878.5991,878.5991,878.6045,,,,0,6,6,6,1,35,100,,,,,,,,
,,6554d5f1a5b42aea269aa82a,65af55b29cebb2ff24f0998e,2024-01-23_07h00.03.652,bars,2023.2.3,Win32,17.98561151,657b66ea316d21385b68909f,,,,,,,,,,,878.6046,879.6063,,,880.1353,880.3368,,137,137,,,,,,,,,,,,,,,,bars/031.png,bars/mask007.png,,,,,,,,,,,,3,1,,,,,,,7,4,7,2,,,,,,,,,,,879.6063,880.1353,880.3368,883.1729,space,2.7791,,883.1729,17,78,884.1852,884.1853,884.1905,,,,0,7,7,7,1,120,35,,,,,,,,
,,6554d5f1a5b42aea269aa82a,65af55b29cebb2ff24f0998e,2024-01-23_07h00.03.652,bars,2023.2.3,Win32,17.98561151,657b66ea316d21385b68909f,,,,,,,,,,,884.1906,885.1511,,,885.6011,885.8585,,50,50,,,,,,,,,,,,,,,,bars/047.png,bars/mask000.png,,,,,,,,,,,,1,2,,,,,,,5,2,6,3,,,,,,,,,,,885.1511,885.6011,885.8585,893.0678,space,7.1472,,893.0678,35,20,894.0396,894.0396,894.0453,,,,0,8,8,8,1,15,70,,,,,,,,
,,6554d5f1a5b42aea269aa82a,65af55b29cebb2ff24f0998e,2024-01-23_07h00.03.652,bars,2023.2.3,Win32,17.98561151,657b66ea316d21385b68909f,,,,,,,,,,,894.0454,895.049,,,895.5254,895.7841,,123,-57,,,,,,,,,,,,,,,,bars/039.png,bars/mask002.png,,,,,,,,,,,,2,2,,,,,,,7,4,8,4,,,,,,,,,,,895.049,895.5253,895.7841,901.4223,space,5.5757,,901.4223,52,18,902.4389,902.4389,902.4436,,,,0,9,9,9,1,175,105,,,,,,,,
,,6554d5f1a5b42aea269aa82a,65af55b29cebb2ff24f0998e,2024-01-23_07h00.03.652,bars,2023.2.3,Win32,17.98561151,657b66ea316d21385b68909f,,,,,,,,,,,902.4437,903.3953,,,903.8329,904.0474,,154,154,,,,,,,,,,,,,,,,bars/046.png,bars/mask004.png,,,,,,,,,,,,10,1,,,,,,,9,2,10,2,,,,,,,,,,,903.3954,903.8329,904.0474,906.9323,space,2.8228,,906.9324,1,69,907.9087,907.9087,907.9158,,,,0,10,10,10,1,155,85,,,,,,,,
,,6554d5f1a5b42aea269aa82a,65af55b29cebb2ff24f0998e,2024-01-23_07h00.03.652,bars,2023.2.3,Win32,17.98561151,657b66ea316d21385b68909f,,,,,,,,,,,907.916,908.8942,,,909.3547,909.5778,,146,-34,,,,,,,,,,,,,,,,bars/003.png,bars/mask009.png,,,,,,,,,,,,0,2,,,,,,,7,0,7,0,,,,,,,,,,,908.8943,909.3546,909.5778,917.217,space,7.5738,,917.2171,59,6,918.1844,918.1845,918.1916,,,,0,11,11,11,1,25,140,,,,,,,,
,,6554d5f1a5b42aea269aa82a,65af55b29cebb2ff24f0998e,2024-01-23_07h00.03.652,bars,2023.2.3,Win32,17.98561151,657b66ea316d21385b68909f,,,,,,,,,,,918.1918,919.1555,,,919.6002,919.849,,104,104,,,,,,,,,,,,,,,,bars/022.png,bars/mask008.png,,,,,,,,,,,,6,1,,,,,,,9,0,9,0,,,,,,,,,,,919.1555,919.6002,919.849,924.1262,space,4.206,,924.1262,9,84,925.1197,925.1197,925.1253,,,,0,12,12,12,1,95,20,,,,,,,,
,,6554d5f1a5b42aea269aa82a,65af55b29cebb2ff24f0998e,2024-01-23_07h00.03.652,bars,2023.2.3,Win32,17.98561151,657b66ea316d21385b68909f,,,,,,,,,,,925.1254,926.1149,,,926.5894,926.8458,,169,-11,,,,,,,,,,,,,,,,bars/037.png,bars/mask002.png,,,,,,,,,,,,4,1,,,,,,,10,0,10,2,,,,,,,,,,,926.1149,926.5893,926.8458,930.153,space,3.2454,,930.153,19,64,931.1465,931.1465,931.151,,,,0,13,13,13,1,150,105,,,,,,,,
,,6554d5f1a5b42aea269aa82a,65af55b29cebb2ff24f0998e,2024-01-23_07h00.03.652,bars,2023.2.3,Win32,17.98561151,657b66ea316d21385b68909f,,,,,,,,,,,931.1511,932.1151,,,932.6093,932.8735,,124,124,,,,,,,,,,,,,,,,bars/028.png,bars/mask005.png,,,,,,,,,,,,0,2,,,,,,,10,2,8,0,,,,,,,,,,,932.1151,932.6093,932.8735,935.8188,space,2.8858,,935.8188,79,4,936.8346,936.8346,936.8395,,,,0,14,14,14,1,45,120,,,,,,,,
,,6554d5f1a5b42aea269aa82a,65af55b29cebb2ff24f0998e,2024-01-23_07h00.03.652,bars,2023.2.3,Win32,17.98561151,657b66ea316d21385b68909f,,,,,,,,,,,936.8397,937.7989,,,938.2543,938.5112,,116,116,,,,,,,,,,,,,,,,bars/018.png,bars/mask004.png,,,,,,,,,,,,1,2,,,,,,,8,4,8,4,,,,,,,,,,,937.7989,938.2543,938.5112,942.5253,space,3.9545,,942.5253,34,26,943.4834,943.4834,943.4878,,,,0,15,15,15,1,150,90,,,,,,,,
,,6554d5f1a5b42aea269aa82a,65af55b29cebb2ff24f0998e,2024-01-23_07h00.03.652,bars,2023.2.3,Win32,17.98561151,657b66ea316d21385b68909f,,,,,,,,,,,943.4879,944.51,,,945.0105,945.2756,,117,117,,,,,,,,,,,,,,,,bars/039.png,bars/mask002.png,,,,,,,,,,,,1,2,,,,,,,10,2,10,2,,,,,,,,,,,944.51,945.0104,945.2756,949.3547,space,4.0093,,949.3548,58,12,950.3162,950.3162,950.3215,,,,0,16,16,16,1,175,105,,,,,,,,
,,6554d5f1a5b42aea269aa82a,65af55b29cebb2ff24f0998e,2024-01-23_07h00.03.652,bars,2023.2.3,Win32,17.98561151,657b66ea316d21385b68909f,,,,,,,,,,,950.3216,951.3054,,,951.7718,951.9817,,155,-25,,,,,,,,,,,,,,,,bars/021.png,bars/mask003.png,,,,,,,,,,,,8,1,,,,,,,8,0,8,1,,,,,,,,,,,951.3054,951.7718,951.9817,956.8603,space,4.8207,,956.8604,0,85,957.8315,957.8315,957.8367,,,,0,17,17,17,1,155,70,,,,,,,,
,,6554d5f1a5b42aea269aa82a,65af55b29cebb2ff24f0998e,2024-01-23_07h00.03.652,bars,2023.2.3,Win32,17.98561151,657b66ea316d21385b68909f,,,,,,,,,,,957.837,958.7973,,,959.2541,959.5182,,106,106,,,,,,,,,,,,,,,,bars/002.png,bars/mask002.png,,,,,,,,,,,,0,2,,,,,,,6,0,5,0,,,,,,,,,,,958.7973,959.2541,959.5182,964.7881,space,5.2074,,964.7881,24,21,965.7833,965.7833,965.789,,,,0,18,18,18,1,130,85,,,,,,,,
,,6554d5f1a5b42aea269aa82a,65af55b29cebb2ff24f0998e,2024-01-23_07h00.03.652,bars,2023.2.3,Win32,17.98561151,657b66ea316d21385b68909f,,,,,,,,,,,965.7891,966.7892,,,967.3101,967.5835,,141,141,,,,,,,,,,,,,,,,bars/000.png,bars/mask000.png,,,,,,,,,,,,0,2,,,,,,,8,0,9,0,,,,,,,,,,,966.7892,967.3101,967.5835,970.5677,space,2.9256,,970.5677,79,4,971.5761,971.5761,971.5807,,,,0,19,19,19,1,40,145,,,,,,,,
,,6554d5f1a5b42aea269aa82a,65af55b29cebb2ff24f0998e,2024-01-23_07h00.03.652,bars,2023.2.3,Win32,17.98561151,657b66ea316d21385b68909f,,,,,,,,,,,971.5808,972.5857,,,973.0383,973.2955,,148,148,,,,,,,,,,,,,,,,bars/008.png,bars/mask002.png,,,,,,,,,,,,0,2,,,,,,,6,2,5,1,,,,,,,,,,,972.5857,973.0383,973.2955,976.0195,space,2.6648,,976.0195,38,32,976.9825,976.9825,976.987,,,,0,20,20,20,1,110,0,,,,,,,,
,,6554d5f1a5b42aea269aa82a,65af55b29cebb2ff24f0998e,2024-01-23_07h00.03.652,bars,2023.2.3,Win32,17.98561151,657b66ea316d21385b68909f,,,,,,,,,,,976.987,977.9587,,,978.4415,978.6531,,118,118,,,,,,,,,,,,,,,,bars/028.png,bars/mask001.png,,,,,,,,,,,,0,2,,,,,,,4,0,4,0,,,,,,,,,,,977.9587,978.4415,978.6532,985.8224,space,7.1099,,985.8224,73,2,986.8313,986.8313,986.8361,,,,0,21,21,21,1,45,120,,,,,,,,
,,6554d5f1a5b42aea269aa82a,65af55b29cebb2ff24f0998e,2024-01-23_07h00.03.652,bars,2023.2.3,Win32,17.98561151,657b66ea316d21385b68909f,,,,,,,,,,,986.8362,987.7928,,,988.2438,988.447,,56,56,,,,,,,,,,,,,,,,bars/029.png,bars/mask000.png,,,,,,,,,,,,0,2,,,,,,,6,0,5,0,,,,,,,,,,,987.7928,988.2438,988.4471,991.5361,space,3.019,,991.5361,34,11,992.5389,992.5389,992.5435,,,,0,22,22,22,1,90,45,,,,,,,,
,,6554d5f1a5b42aea269aa82a,65af55b29cebb2ff24f0998e,2024-01-23_07h00.03.652,bars,2023.2.3,Win32,17.98561151,657b66ea316d21385b68909f,,,,,,,,,,,992.5436,993.5036,,,994.0131,994.2682,,156,156,,,,,,,,,,,,,,,,bars/040.png,bars/mask009.png,,,,,,,,,,,,2,1,,,,,,,4,0,4,0,,,,,,,,,,,993.5037,994.0131,994.2683,999.8701,space,5.5429,,999.8701,16,29,1000.8243,1000.8243,1000.8303,,,,0,23,23,23,1,140,5,,,,,,,,
,,6554d5f1a5b42aea269aa82a,65af55b29cebb2ff24f0998e,2024-01-23_07h00.03.652,bars,2023.2.3,Win32,17.98561151,657b66ea316d21385b68909f,,,,,,,,,,,1000.8304,1001.8083,,,1002.3219,1002.5801,,140,140,,,,,,,,,,,,,,,,bars/038.png,bars/mask008.png,,,,,,,,,,,,1,1,,,,,,,6,0,5,0,,,,,,,,,,,1001.8083,1002.3219,1002.5801,1006.209,space,3.5672,,1006.209,25,70,1007.2086,1007.2087,1007.2131,,,,0,24,24,24,1,165,70,,,,,,,,
,,6554d5f1a5b42aea269aa82a,65af55b29cebb2ff24f0998e,2024-01-23_07h00.03.652,bars,2023.2.3,Win32,17.98561151,657b66ea316d21385b68909f,,,,,,,,,,,1007.2132,1008.1928,,,1008.678,1008.89,,172,-8,,,,,,,,,,,,,,,,bars/038.png,bars/mask000.png,,,,,,,,,,,,5,1,,,,,,,8,2,7,2,,,,,,,,,,,1008.1928,1008.678,1008.89,1012.7938,space,3.8459,,1012.7938,7,78,1013.786,1013.786,1013.7903,,,,0,25,25,25,1,165,70,,,,,,,,
,,6554d5f1a5b42aea269aa82a,65af55b29cebb2ff24f0998e,2024-01-23_07h00.03.652,bars,2023.2.3,Win32,17.98561151,657b66ea316d21385b68909f,,,,,,,,,,,1013.7904,1014.7816,,,1015.2946,1015.4948,,126,126,,,,,,,,,,,,,,,,bars/028.png,bars/mask008.png,,,,,,,,,,,,3,2,,,,,,,10,4,10,4,,,,,,,,,,,1014.7817,1015.2946,1015.4948,1022.5498,space,6.9963,,1022.5498,81,6,1023.545,1023.545,1023.5505,,,,0,26,26,26,1,45,120,,,,,,,,
,,6554d5f1a5b42aea269aa82a,65af55b29cebb2ff24f0998e,2024-01-23_07h00.03.652,bars,2023.2.3,Win32,17.98561151,657b66ea316d21385b68909f,,,,,,,,,,,1023.5507,1024.5104,,,1024.9748,1025.233,,17,17,,,,,,,,,,,,,,,,bars/021.png,bars/mask003.png,,,,,,,,,,,,0,1,,,,,,,10,6,9,8,,,,,,,,,,,1024.5105,1024.9748,1025.233,1031.3943,space,6.1025,,1031.3943,42,53,1032.3887,1032.3887,1032.3938,,,,0,27,27,27,1,155,70,,,,,,,,
,,6554d5f1a5b42aea269aa82a,65af55b29cebb2ff24f0998e,2024-01-23_07h00.03.652,bars,2023.2.3,Win32,17.98561151,657b66ea316d21385b68909f,,,,,,,,,,,1032.3939,1033.3555,,,1033.8292,1034.087,,39,39,,,,,,,,,,,,,,,,bars/041.png,bars/mask009.png,,,,,,,,,,,,2,1,,,,,,,8,4,6,5,,,,,,,,,,,1033.3556,1033.8292,1034.087,1036.6273,space,2.4809,,1036.6273,19,46,1037.6474,1037.6474,1037.6521,,,,0,28,28,28,1,20,85,,,,,,,,
,,6554d5f1a5b42aea269aa82a,65af55b29cebb2ff24f0998e,2024-01-23_07h00.03.652,bars,2023.2.3,Win32,17.98561151,657b66ea316d21385b68909f,,,,,,,,,,,1037.6522,1038.6243,,,1039.09,1039.3467,,170,-10,,,,,,,,,,,,,,,,bars/045.png,bars/mask005.png,,,,,,,,,,,,1,2,,,,,,,10,2,10,2,,,,,,,,,,,1038.6244,1039.09,1039.3467,1042.4236,space,3.0183,,1042.4236,70,20,1043.3983,1043.3984,1043.4039,,,,0,29,29,29,1,100,10,,,,,,,,
,,6554d5f1a5b42aea269aa82a,65af55b29cebb2ff24f0998e,2024-01-23_07h00.03.652,bars,2023.2.3,Win32,17.98561151,657b66ea316d21385b68909f,,,,,,,,,,,1043.4039,1044.4126,,,1044.9279,1045.1842,,55,55,,,,,,,,,,,,,,,,bars/031.png,bars/mask008.png,,,,,,,,,,,,0,2,,,,,,,10,0,10,0,,,,,,,,,,,1044.4127,1044.9278,1045.1842,1049.8239,space,4.5845,,1049.8239,65,20,1050.8269,1050.827,1050.8316,,,,0,30,30,30,1,120,35,,,,,,,,
,,6554d5f1a5b42aea269aa82a,65af55b29cebb2ff24f0998e,2024-01-23_07h00.03.652,bars,2023.2.3,Win32,17.98561151,657b66ea316d21385b68909f,,,,,,,,,,,1050.8317,1051.8036,,,1052.2577,1052.5145,,48,48,,,,,,,,,,,,,,,,bars/029.png,bars/mask009.png,,,,,,,,,,,,0,2,,,,,,,8,0,7,0,,,,,,,,,,,1051.8036,1052.2577,1052.5145,1056.9053,space,4.3348,,1056.9053,42,3,1057.8987,1057.8987,1057.9035,,,,0,31,31,31,1,90,45,,,,,,,,
,,6554d5f1a5b42aea269aa82a,65af55b29cebb2ff24f0998e,2024-01-23_07h00.03.652,bars,2023.2.3,Win32,17.98561151,657b66ea316d21385b68909f,,,,,,,,,,,1057.9036,1058.894,,,1059.3449,1059.5503,,112,112,,,,,,,,,,,,,,,,bars/039.png,bars/mask007.png,,,,,,,,,,,,3,2,,,,,,,6,2,6,4,,,,,,,,,,,1058.894,1059.3449,1059.5503,1062.2289,space,2.6111,,1062.2289,63,7,1063.1928,1063.1928,1063.1971,,,,0,32,32,32,1,175,105,,,,,,,,
,,6554d5f1a5b42aea269aa82a,65af55b29cebb2ff24f0998e,2024-01-23_07h00.03.652,bars,2023.2.3,Win32,17.98561151,657b66ea316d21385b68909f,,,,,,,,,,,1063.1972,1064.2001,,,1064.675,1064.9351,,153,-27,,,,,,,,,,,,,,,,bars/040.png,bars/mask005.png,,,,,,,,,,,,3,1,,,,,,,4,4,5,5,,,,,,,,,,,1064.2001,1064.6749,1064.9351,1071.4956,space,6.5031,,1071.4957,13,32,1072.4938,1072.4938,1072.4989,,,,0,33,33,33,1,140,5,,,,,,,,
,,6554d5f1a5b42aea269aa82a,65af55b29cebb2ff24f0998e,2024-01-23_07h00.03.652,bars,2023.2.3,Win32,17.98561151,657b66ea316d21385b68909f,,,,,,,,,,,1072.499,1073.5083,,,1073.9651,1074.162,,43,223,,,,,,,,,,,,,,,,bars/006.png,bars/mask005.png,,,,,,,,,,,,5,1,,,,,,,6,2,7,3,,,,,,,,,,,1073.5084,1073.965,1074.162,1082.1329,space,7.9126,,1082.1329,8,57,1083.1337,1083.1337,1083.1397,,,,0,34,34,34,1,35,100,,,,,,,,
,,6554d5f1a5b42aea269aa82a,65af55b29cebb2ff24f0998e,2024-01-23_07h00.03.652,bars,2023.2.3,Win32,17.98561151,657b66ea316d21385b68909f,,,,,,,,,,,1083.1399,1084.1485,,,1084.605,1084.8071,,65,65,,,,,,,,,,,,,,,,bars/028.png,bars/mask008.png,,,,,,,,,,,,1,1,,,,,,,4,0,3,0,,,,,,,,,,,1084.1485,1084.605,1084.8072,1089.7687,space,4.9031,,1089.7687,20,55,1090.7586,1090.7586,1090.7632,,,,0,35,35,35,1,45,120,,,,,,,,
,,6554d5f1a5b42aea269aa82a,65af55b29cebb2ff24f0998e,2024-01-23_07h00.03.652,bars,2023.2.3,Win32,17.98561151,657b66ea316d21385b68909f,,,,,,,,,,,1090.7633,1091.7404,,,1092.2261,1092.4329,,126,126,,,,,,,,,,,,,,,,bars/004.png,bars/mask000.png,,,,,,,,,,,,1,2,,,,,,,6,0,6,1,,,,,,,,,,,1091.7405,1092.2261,1092.4329,1099.0532,space,6.5477,,1099.0532,79,1,1100.0117,1100.0117,1100.0178,,,,0,36,36,36,1,25,125,,,,,,,,
,,6554d5f1a5b42aea269aa82a,65af55b29cebb2ff24f0998e,2024-01-23_07h00.03.652,bars,2023.2.3,Win32,17.98561151,657b66ea316d21385b68909f,,,,,,,,,,,1100.0178,1100.9728,,,1101.4333,1101.6932,,144,144,,,,,,,,,,,,,,,,bars/015.png,bars/mask001.png,,,,,,,,,,,,2,2,,,,,,,4,2,3,4,,,,,,,,,,,1100.9728,1101.4333,1101.6933,1105.4501,space,3.7004,,1105.4501,34,16,1106.4543,1106.4543,1106.459,,,,0,37,37,37,1,110,160,,,,,,,,
,,6554d5f1a5b42aea269aa82a,65af55b29cebb2ff24f0998e,2024-01-23_07h00.03.652,bars,2023.2.3,Win32,17.98561151,657b66ea316d21385b68909f,,,,,,,,,,,1106.459,1107.4692,,,1107.9846,1108.2412,,147,-33,,,,,,,,,,,,,,,,bars/030.png,bars/mask008.png,,,,,,,,,,,,2,1,,,,,,,2,4,2,4,,,,,,,,,,,1107.4692,1107.9845,1108.2412,1114.8297,space,6.5325,,1114.8297,7,82,1115.8368,1115.8369,1115.842,,,,0,38,38,38,1,140,65,,,,,,,,
,,6554d5f1a5b42aea269aa82a,65af55b29cebb2ff24f0998e,2024-01-23_07h00.03.652,bars,2023.2.3,Win32,17.98561151,657b66ea316d21385b68909f,,,,,,,,,,,1115.8421,1116.851,,,1117.3198,1117.5837,,133,133,,,,,,,,,,,,,,,,bars/023.png,bars/mask004.png,,,,,,,,,,,,1,2,,,,,,,0,2,0,2,,,,,,,,,,,1116.851,1117.3197,1117.5837,1124.2181,space,6.5801,,1124.2182,67,18,1125.2366,1125.2366,1125.2423,,,,0,39,39,39,1,20,115,,,,,,,,
,,6554d5f1a5b42aea269aa82a,65af55b29cebb2ff24f0998e,2024-01-23_07h00.03.652,bars,2023.2.3,Win32,17.98561151,657b66ea316d21385b68909f,,,,,,,,,,,1125.2424,1126.1946,,,1126.6493,1126.9095,,161,161,,,,,,,,,,,,,,,,bars/024.png,bars/mask002.png,,,,,,,,,,,,4,2,,,,,,,2,4,3,5,,,,,,,,,,,1126.1946,1126.6492,1126.9095,1130.8182,space,3.8503,,1130.8182,41,9,1131.8082,1131.8082,1131.8128,,,,0,40,40,40,1,120,170,,,,,,,,
,,6554d5f1a5b42aea269aa82a,65af55b29cebb2ff24f0998e,2024-01-23_07h00.03.652,bars,2023.2.3,Win32,17.98561151,657b66ea316d21385b68909f,,,,,,,,,,,1131.8129,1132.8243,,,1133.2779,1133.4845,,33,33,,,,,,,,,,,,,,,,bars/047.png,bars/mask008.png,,,,,,,,,,,,1,1,,,,,,,4,2,2,2,,,,,,,,,,,1132.8243,1133.2779,1133.4845,1139.1361,space,5.5812,,1139.1361,18,37,1140.0946,1140.0947,1140.0994,,,,0,41,41,41,1,15,70,,,,,,,,
,,6554d5f1a5b42aea269aa82a,65af55b29cebb2ff24f0998e,2024-01-23_07h00.03.652,bars,2023.2.3,Win32,17.98561151,657b66ea316d21385b68909f,,,,,,,,,,,1140.0995,1141.0766,,,1141.5329,1141.796,,138,138,,,,,,,,,,,,,,,,bars/020.png,bars/mask006.png,,,,,,,,,,,,1,1,,,,,,,6,0,5,0,,,,,,,,,,,1141.0766,1141.5328,1141.796,1144.486,space,2.6336,,1144.486,23,32,1145.4446,1145.4446,1145.4493,,,,0,42,42,42,1,115,170,,,,,,,,
,,6554d5f1a5b42aea269aa82a,65af55b29cebb2ff24f0998e,2024-01-23_07h00.03.652,bars,2023.2.3,Win32,17.98561151,657b66ea316d21385b68909f,,,,,,,,,,,1145.4494,1146.4482,,,1146.9634,1147.1667,,106,106,,,,,,,,,,,,,,,,bars/045.png,bars/mask009.png,,,,,,,,,,,,6,1,,,,,,,8,0,8,0,,,,,,,,,,,1146.4483,1146.9634,1147.1668,1153.2577,space,6.032,,1153.2577,6,84,1154.2379,1154.238,1154.2429,,,,0,43,43,43,1,100,10,,,,,,,,
,,6554d5f1a5b42aea269aa82a,65af55b29cebb2ff24f0998e,2024-01-23_07h00.03.652,bars,2023.2.3,Win32,17.98561151,657b66ea316d21385b68909f,,,,,,,,,,,1154.243,1155.2563,,,1155.7664,1155.9667,,137,137,,,,,,,,,,,,,,,,bars/043.png,bars/mask007.png,,,,,,,,,,,,0,2,,,,,,,6,0,7,0,,,,,,,,,,,1155.2563,1155.7664,1155.9667,1160.7257,space,4.7017,,1160.7257,73,7,1161.7008,1161.7008,1161.7056,,,,0,44,44,44,1,30,130,,,,,,,,
,,6554d5f1a5b42aea269aa82a,65af55b29cebb2ff24f0998e,2024-01-23_07h00.03.652,bars,2023.2.3,Win32,17.98561151,657b66ea316d21385b68909f,,,,,,,,,,,1161.7058,1162.6951,,,1163.1472,1163.4046,,13,13,,,,,,,,,,,,,,,,bars/041.png,bars/mask001.png,,,,,,,,,,,,7,1,,,,,,,8,0,9,0,,,,,,,,,,,1162.6952,1163.1472,1163.4047,1166.2231,space,2.7599,,1166.2231,7,72,1167.1801,1167.1801,1167.185,,,,0,45,45,45,1,20,85,,,,,,,,
,,6554d5f1a5b42aea269aa82a,65af55b29cebb2ff24f0998e,2024-01-23_07h00.03.652,bars,2023.2.3,Win32,17.98561151,657b66ea316d21385b68909f,,,,,,,,,,,1167.1851,1168.1477,,,1168.6118,1168.8236,,159,159,,,,,,,,,,,,,,,,bars/039.png,bars/mask001.png,,,,,,,,,,,,4,1,,,,,,,10,2,8,2,,,,,,,,,,,1168.1478,1168.6118,1168.8236,1177.6031,space,8.7219,,1177.6031,16,54,1178.606,1178.6061,1178.6107,,,,0,46,46,46,1,175,105,,,,,,,,
,,6554d5f1a5b42aea269aa82a,65af55b29cebb2ff24f0998e,2024-01-23_07h00.03.652,bars,2023.2.3,Win32,17.98561151,657b66ea316d21385b68909f,,,,,,,,,,,1178.6107,1179.613,,,1180.1366,1180.3994,,163,-17,,,,,,,,,,,,,,,,bars/005.png,bars/mask008.png,,,,,,,,,,,,1,2,,,,,,,8,4,7,4,,,,,,,,,,,1179.613,1180.1365,1180.3994,1187.4232,space,6.9668,,1187.4233,27,23,1188.3896,1188.3897,1188.3951,,,,0,47,47,47,1,10,140,,,,,,,,
,,6554d5f1a5b42aea269aa82a,65af55b29cebb2ff24f0998e,2024-01-23_07h00.03.652,bars,2023.2.3,Win32,17.98561151,657b66ea316d21385b68909f,,,,,,,,,,,1188.3952,1189.3564,,,1189.8187,1190.0287,,129,129,,,,,,,,,,,,,,,,bars/023.png,bars/mask002.png,,,,,,,,,,,,3,2,,,,,,,6,6,5,5,,,,,,,,,,,1189.3564,1189.8187,1190.0287,1194.2145,space,4.1283,,1194.2145,71,14,1195.1763,1195.1764,1195.181,,,,0,48,48,48,1,20,115,,,,,,,,
,,6554d5f1a5b42aea269aa82a,65af55b29cebb2ff24f0998e,2024-01-23_07h00.03.652,bars,2023.2.3,Win32,17.98561151,657b66ea316d21385b68909f,,,,,,,,,,,1195.1811,1196.1355,,,1196.5981,1196.8589,,125,125,,,,,,,,,,,,,,,,bars/021.png,bars/mask005.png,,,,,,,,,,,,0,1,,,,,,,4,4,4,5,,,,,,,,,,,1196.1355,1196.5981,1196.859,1200.206,space,3.2848,,1200.206,30,55,1201.1943,1201.1944,1201.1993,,,,0,49,49,49,1,155,70,,,,,,,,
,,6554d5f1a5b42aea269aa82a,65af55b29cebb2ff24f0998e,2024-01-23_07h00.03.652,bars,2023.2.3,Win32,17.98561151,657b66ea316d21385b68909f,,,,,,,,,,,,,,,,,,,,,,,,,,,,,,,,,,,,,,,,,,,,,,,,,,,,,,,,,,,,,,,,,,,,,,,,,,,,,,,,,,,,,,,,,,,,,1201.1994,1261.1624,0,1,1,1,1,sequence_tables/blk000.csv
,,6554d5f1a5b42aea269aa82a,65af55b29cebb2ff24f0998e,2024-01-23_07h00.03.652,bars,2023.2.3,Win32,17.98561151,657b66ea316d21385b68909f,,,,,,,,,,,1303.1223,1304.0789,,,1304.5546,1304.8095,,62,62,,,,,,,,,,,,,,,,bars/047.png,bars/mask002.png,,,,,,,,,,,,1,2,,,,,,,5,1,6,1,,,,,,1261.1672,1303.1158,space,41.8946,,1304.0789,1304.5545,1304.8095,1308.8807,space,4.0116,,1308.8807,47,8,1309.8455,1309.8455,1309.8505,,,,0,0,0,0,1,15,70,,,,,,,,
,,6554d5f1a5b42aea269aa82a,65af55b29cebb2ff24f0998e,2024-01-23_07h00.03.652,bars,2023.2.3,Win32,17.98561151,657b66ea316d21385b68909f,,,,,,,,,,,1309.8506,1310.8394,,,1311.3279,1311.5313,,54,234,,,,,,,,,,,,,,,,bars/025.png,bars/mask002.png,,,,,,,,,,,,0,2,,,,,,,3,0,3,0,,,,,,,,,,,1310.8394,1311.3279,1311.5313,1316.3651,space,4.7706,,1316.3652,51,14,1317.3695,1317.3696,1317.3739,,,,0,1,1,1,1,105,40,,,,,,,,
,,6554d5f1a5b42aea269aa82a,65af55b29cebb2ff24f0998e,2024-01-23_07h00.03.652,bars,2023.2.3,Win32,17.98561151,657b66ea316d21385b68909f,,,,,,,,,,,1317.3741,1318.3292,,,1318.7946,1319.0584,,20,20,,,,,,,,,,,,,,,,bars/012.png,bars/mask007.png,,,,,,,,,,,,1,2,,,,,,,5,0,4,1,,,,,,,,,,,1318.3292,1318.7946,1319.0584,1321.6505,space,2.5342,,1321.6506,70,5,1322.6647,1322.6648,1322.6694,,,,0,2,2,2,1,90,15,,,,,,,,
,,6554d5f1a5b42aea269aa82a,65af55b29cebb2ff24f0998e,2024-01-23_07h00.03.652,bars,2023.2.3,Win32,17.98561151,657b66ea316d21385b68909f,,,,,,,,,,,1322.6694,1323.6702,,,1324.1849,1324.4457,,155,155,,,,,,,,,,,,,,,,bars/045.png,bars/mask005.png,,,,,,,,,,,,0,2,,,,,,,3,0,3,2,,,,,,,,,,,1323.6702,1324.1849,1324.4457,1328.7173,space,4.2116,,1328.7174,55,35,1329.6793,1329.6793,1329.6843,,,,0,3,3,3,1,100,10,,,,,,,,
,,6554d5f1a5b42aea269aa82a,65af55b29cebb2ff24f0998e,2024-01-23_07h00.03.652,bars,2023.2.3,Win32,17.98561151,657b66ea316d21385b68909f,,,,,,,,,,,1329.6844,1330.6452,,,1331.0992,1331.302,,58,238,,,,,,,,,,,,,,,,bars/034.png,bars/mask003.png,,,,,,,,,,,,1,2,,,,,,,1,0,2,1,,,,,,,,,,,1330.6452,1331.0992,1331.3021,1337.2944,space,5.9357,,1337.2945,67,7,1338.2805,1338.2805,1338.2853,,,,0,4,4,4,1,125,65,,,,,,,,
,,6554d5f1a5b42aea269aa82a,65af55b29cebb2ff24f0998e,2024-01-23_07h00.03.652,bars,2023.2.3,Win32,17.98561151,657b66ea316d21385b68909f,,,,,,,,,,,1338.2853,1339.2371,,,1339.6971,1339.909,,137,137,,,,,,,,,,,,,,,,bars/000.png,bars/mask005.png,,,,,,,,,,,,1,2,,,,,,,0,2,0,2,,,,,,,,,,,1339.2372,1339.697,1339.909,1350.6919,space,10.7237,,1350.6919,83,8,1351.6946,1351.6946,1351.6996,,,,0,5,5,5,1,40,145,,,,,,,,
,,6554d5f1a5b42aea269aa82a,65af55b29cebb2ff24f0998e,2024-01-23_07h00.03.652,bars,2023.2.3,Win32,17.98561151,657b66ea316d21385b68909f,,,,,,,,,,,1351.6997,1352.7106,,,1353.1858,1353.3813,,150,-30,,,,,,,,,,,,,,,,bars/024.png,bars/mask002.png,,,,,,,,,,,,0,2,,,,,,,0,0,2,0,,,,,,,,,,,1352.7106,1353.1858,1353.3813,1361.4603,space,8.0194,,1361.4603,30,20,1362.4771,1362.4772,1362.4825,,,,0,6,6,6,1,120,170,,,,,,,,
,,6554d5f1a5b42aea269aa82a,65af55b29cebb2ff24f0998e,2024-01-23_07h00.03.652,bars,2023.2.3,Win32,17.98561151,657b66ea316d21385b68909f,,,,,,,,,,,1362.4827,1363.4808,,,1363.9408,1364.2021,,136,136,,,,,,,,,,,,,,,,bars/049.png,bars/mask002.png,,,,,,,,,,,,1,2,,,,,,,0,2,0,3,,,,,,,,,,,1363.4808,1363.9408,1364.2021,1367.0163,space,2.7465,,1367.0163,24,21,1368.0283,1368.0283,1368.0326,,,,0,7,7,7,1,160,115,,,,,,,,
,,6554d5f1a5b42aea269aa82a,65af55b29cebb2ff24f0998e,2024-01-23_07h00.03.652,bars,2023.2.3,Win32,17.98561151,657b66ea316d21385b68909f,,,,,,,,,,,1368.0327,1368.9926,,,1369.4639,1369.7223,,33,33,,,,,,,,,,,,,,,,bars/017.png,bars/mask003.png,,,,,,,,,,,,0,2,,,,,,,0,0,1,0,,,,,,,,,,,1368.9927,1369.4638,1369.7223,1372.8001,space,3.0187,,1372.8001,68,12,1373.7637,1373.7637,1373.7683,,,,0,8,8,8,1,145,45,,,,,,,,
,,6554d5f1a5b42aea269aa82a,65af55b29cebb2ff24f0998e,2024-01-23_07h00.03.652,bars,2023.2.3,Win32,17.98561151,657b66ea316d21385b68909f,,,,,,,,,,,1373.7685,1374.7265,,,1375.2344,1375.4924,,135,135,,,,,,,,,,,,,,,,bars/037.png,bars/mask005.png,,,,,,,,,,,,2,1,,,,,,,2,0,4,1,,,,,,,,,,,1374.7265,1375.2344,1375.4925,1377.7107,space,2.1591,,1377.7108,15,30,1378.6694,1378.6695,1378.6703,,,,0,9,9,9,1,150,105,,,,,,,,
,,6554d5f1a5b42aea269aa82a,65af55b29cebb2ff24f0998e,2024-01-23_07h00.03.652,bars,2023.2.3,Win32,17.98561151,657b66ea316d21385b68909f,,,,,,,,,,,1378.6703,1379.6298,,,1380.0854,1380.3457,,45,45,,,,,,,,,,,,,,,,bars/007.png,bars/mask002.png,,,,,,,,,,,,0,2,,,,,,,4,0,3,0,,,,,,,,,,,1379.6299,1380.0853,1380.3458,1386.9365,space,6.5253,,1386.9365,50,10,1387.954,1387.954,1387.9609,,,,0,10,10,10,1,175,55,,,,,,,,
,,6554d5f1a5b42aea269aa82a,65af55b29cebb2ff24f0998e,2024-01-23_07h00.03.652,bars,2023.2.3,Win32,17.98561151,657b66ea316d21385b68909f,,,,,,,,,,,1387.961,1388.94,,,1389.4464,1389.6544,,51,51,,,,,,,,,,,,,,,,bars/044.png,bars/mask005.png,,,,,,,,,,,,1,1,,,,,,,6,2,6,2,,,,,,,,,,,1388.94,1389.4464,1389.6544,1392.8623,space,3.14,,1392.8623,24,76,1393.8241,1393.8241,1393.8291,,,,0,11,11,11,1,75,155,,,,,,,,
,,6554d5f1a5b42aea269aa82a,65af55b29cebb2ff24f0998e,2024-01-23_07h00.03.652,bars,2023.2.3,Win32,17.98561151,657b66ea316d21385b68909f,,,,,,,,,,,1393.8292,1394.7899,,,1395.2561,1395.5381,,176,-4,,,,,,,,,,,,,,,,bars/014.png,bars/mask004.png,,,,,,,,,,,,0,2,,,,,,,8,0,7,0,,,,,,,,,,,1394.7899,1395.2561,1395.5382,1398.5639,space,2.96,,1398.5639,84,4,1399.5413,1399.5413,1399.5463,,,,0,12,12,12,1,80,0,,,,,,,,
,,6554d5f1a5b42aea269aa82a,65af55b29cebb2ff24f0998e,2024-01-23_07h00.03.652,bars,2023.2.3,Win32,17.98561151,657b66ea316d21385b68909f,,,,,,,,,,,1399.5464,1400.5303,,,1401.013,1401.2719,,50,50,,,,,,,,,,,,,,,,bars/027.png,bars/mask001.png,,,,,,,,,,,,2,2,,,,,,,10,0,10,2,,,,,,,,,,,1400.5303,1401.0128,1401.272,1405.8871,space,4.5575,,1405.8871,60,0,1406.8407,1406.8407,1406.8456,,,,0,13,13,13,1,110,50,,,,,,,,
,,6554d5f1a5b42aea269aa82a,65af55b29cebb2ff24f0998e,2024-01-23_07h00.03.652,bars,2023.2.3,Win32,17.98561151,657b66ea316d21385b68909f,,,,,,,,,,,1406.8457,1407.8114,,,1408.2919,1408.5769,,54,54,,,,,,,,,,,,,,,,bars/038.png,bars/mask002.png,,,,,,,,,,,,1,2,,,,,,,8,2,8,3,,,,,,,,,,,1407.8114,1408.2919,1408.577,1412.7023,space,4.0569,,1412.7023,69,16,1413.7064,1413.7064,1413.7114,,,,0,14,14,14,1,165,70,,,,,,,,
,,6554d5f1a5b42aea269aa82a,65af55b29cebb2ff24f0998e,2024-01-23_07h00.03.652,bars,2023.2.3,Win32,17.98561151,657b66ea316d21385b68909f,,,,,,,,,,,1413.7115,1414.6676,,,1415.1292,1415.3848,,19,199,,,,,,,,,,,,,,,,bars/022.png,bars/mask002.png,,,,,,,,,,,,0,2,,,,,,,10,0,10,0,,,,,,,,,,,1414.6676,1415.1292,1415.3848,1422.4266,space,6.9887,,1422.4266,76,1,1423.3828,1423.3828,1423.3877,,,,0,15,15,15,1,95,20,,,,,,,,
,,6554d5f1a5b42aea269aa82a,65af55b29cebb2ff24f0998e,2024-01-23_07h00.03.652,bars,2023.2.3,Win32,17.98561151,657b66ea316d21385b68909f,,,,,,,,,,,1423.3879,1424.3429,,,1424.8569,1425.1177,,59,59,,,,,,,,,,,,,,,,bars/034.png,bars/mask000.png,,,,,,,,,,,,1,2,,,,,,,8,0,8,1,,,,,,,,,,,1424.3429,1424.8569,1425.1177,1430.7172,space,5.5411,,1430.7172,66,6,1431.6739,1431.6741,1431.6791,,,,0,16,16,16,1,125,65,,,,,,,,
,,6554d5f1a5b42aea269aa82a,65af55b29cebb2ff24f0998e,2024-01-23_07h00.03.652,bars,2023.2.3,Win32,17.98561151,657b66ea316d21385b68909f,,,,,,,,,,,1431.6792,1432.6473,,,1433.1186,1433.322,,162,162,,,,,,,,,,,,,,,,bars/040.png,bars/mask003.png,,,,,,,,,,,,2,1,,,,,,,6,0,6,1,,,,,,,,,,,1432.6473,1433.1186,1433.3221,1435.837,space,2.4553,,1435.837,22,23,1436.7945,1436.7946,1436.796,,,,0,17,17,17,1,140,5,,,,,,,,
,,6554d5f1a5b42aea269aa82a,65af55b29cebb2ff24f0998e,2024-01-23_07h00.03.652,bars,2023.2.3,Win32,17.98561151,657b66ea316d21385b68909f,,,,,,,,,,,1436.7961,1437.7543,,,1438.2093,1438.4645,,154,154,,,,,,,,,,,,,,,,bars/024.png,bars/mask006.png,,,,,,,,,,,,1,2,,,,,,,8,2,8,2,,,,,,,,,,,1437.7543,1438.2093,1438.4645,1441.7468,space,3.2262,,1441.7468,34,16,1442.7053,1442.7053,1442.7103,,,,0,18,18,18,1,120,170,,,,,,,,
,,6554d5f1a5b42aea269aa82a,65af55b29cebb2ff24f0998e,2024-01-23_07h00.03.652,bars,2023.2.3,Win32,17.98561151,657b66ea316d21385b68909f,,,,,,,,,,,1442.7104,1443.7106,,,1444.2193,1444.4751,,3,3,,,,,,,,,,,,,,,,bars/033.png,bars/mask002.png,,,,,,,,,,,,2,1,,,,,,,6,4,8,5,,,,,,,,,,,1443.7106,1444.2192,1444.4751,1450.8189,space,6.2853,,1450.819,22,28,1451.7947,1451.7948,1451.8,,,,0,19,19,19,1,25,155,,,,,,,,
,,6554d5f1a5b42aea269aa82a,65af55b29cebb2ff24f0998e,2024-01-23_07h00.03.652,bars,2023.2.3,Win32,17.98561151,657b66ea316d21385b68909f,,,,,,,,,,,1451.8002,1452.7792,,,1453.2319,1453.4818,,14,14,,,,,,,,,,,,,,,,bars/022.png,bars/mask003.png,,,,,,,,,,,,0,2,,,,,,,8,2,8,0,,,,,,,,,,,1452.7792,1453.2319,1453.4818,1456.6764,space,3.1321,,1456.6765,81,6,1457.6387,1457.6388,1457.6444,,,,0,20,20,20,1,95,20,,,,,,,,
,,6554d5f1a5b42aea269aa82a,65af55b29cebb2ff24f0998e,2024-01-23_07h00.03.652,bars,2023.2.3,Win32,17.98561151,657b66ea316d21385b68909f,,,,,,,,,,,1457.6444,1458.6263,,,1459.1107,1459.374,,29,29,,,,,,,,,,,,,,,,bars/010.png,bars/mask006.png,,,,,,,,,,,,0,2,,,,,,,10,4,10,2,,,,,,,,,,,1458.6263,1459.1106,1459.374,1461.9732,space,2.5401,,1461.9733,44,26,1462.9322,1462.9323,1462.9369,,,,0,21,21,21,1,165,55,,,,,,,,
,,6554d5f1a5b42aea269aa82a,65af55b29cebb2ff24f0998e,2024-01-23_07h00.03.652,bars,2023.2.3,Win32,17.98561151,657b66ea316d21385b68909f,,,,,,,,,,,1462.9369,1463.8907,,,1464.3521,1464.6118,,151,151,,,,,,,,,,,,,,,,bars/010.png,bars/mask007.png,,,,,,,,,,,,5,1,,,,,,,10,2,10,2,,,,,,,,,,,1463.8907,1464.3521,1464.6118,1471.1633,space,6.4919,,1471.1633,14,84,1472.1635,1472.1635,1472.1692,,,,0,22,22,22,1,165,55,,,,,,,,
,,6554d5f1a5b42aea269aa82a,65af55b29cebb2ff24f0998e,2024-01-23_07h00.03.652,bars,2023.2.3,Win32,17.98561151,657b66ea316d21385b68909f,,,,,,,,,,,1472.1693,1473.1307,,,1473.596,1473.8519,,15,15,,,,,,,,,,,,,,,,bars/010.png,bars/mask002.png,,,,,,,,,,,,0,1,,,,,,,10,4,8,4,,,,,,,,,,,1473.1307,1473.5959,1473.8519,1477.3066,space,3.3987,,1477.3066,30,40,1478.3196,1478.3197,1478.3245,,,,0,23,23,23,1,165,55,,,,,,,,
,,6554d5f1a5b42aea269aa82a,65af55b29cebb2ff24f0998e,2024-01-23_07h00.03.652,bars,2023.2.3,Win32,17.98561151,657b66ea316d21385b68909f,,,,,,,,,,,1478.3247,1479.3199,,,1479.7806,1480.0376,,145,145,,,,,,,,,,,,,,,,bars/049.png,bars/mask007.png,,,,,,,,,,,,4,1,,,,,,,8,6,7,6,,,,,,,,,,,1479.3199,1479.7806,1480.0376,1483.6433,space,3.5475,,1483.6433,15,30,1484.6564,1484.6564,1484.6611,,,,0,24,24,24,1,160,115,,,,,,,,
,,6554d5f1a5b42aea269aa82a,65af55b29cebb2ff24f0998e,2024-01-23_07h00.03.652,bars,2023.2.3,Win32,17.98561151,657b66ea316d21385b68909f,,,,,,,,,,,1484.6611,1485.6647,,,1486.143,1486.3465,,166,-14,,,,,,,,,,,,,,,,bars/036.png,bars/mask008.png,,,,,,,,,,,,1,1,,,,,,,6,8,4,8,,,,,,,,,,,1485.6647,1486.1429,1486.3466,1491.6633,space,5.2578,,1491.6634,21,34,1492.6244,1492.6244,1492.6296,,,,0,25,25,25,1,145,20,,,,,,,,
,,6554d5f1a5b42aea269aa82a,65af55b29cebb2ff24f0998e,2024-01-23_07h00.03.652,bars,2023.2.3,Win32,17.98561151,657b66ea316d21385b68909f,,,,,,,,,,,1492.6297,1493.606,,,1494.1213,1494.3898,,179,179,,,,,,,,,,,,,,,,bars/014.png,bars/mask008.png,,,,,,,,,,,,10,2,,,,,,,8,10,8,10,,,,,,,,,,,1493.6061,1494.1212,1494.3898,1496.9948,space,2.5441,,1496.9949,81,1,1497.9941,1497.9942,1497.9992,,,,0,26,26,26,1,80,0,,,,,,,,
,,6554d5f1a5b42aea269aa82a,65af55b29cebb2ff24f0998e,2024-01-23_07h00.03.652,bars,2023.2.3,Win32,17.98561151,657b66ea316d21385b68909f,,,,,,,,,,,1497.9993,1498.964,,,1499.4281,1499.6888,,160,-20,,,,,,,,,,,,,,,,bars/015.png,bars/mask000.png,,,,,,,,,,,,9,2,,,,,,,10,10,10,9,,,,,,,,,,,1498.964,1499.4281,1499.6888,1505.7229,space,5.9739,,1505.723,50,0,1506.6921,1506.6921,1506.6966,,,,0,27,27,27,1,110,160,,,,,,,,
,,6554d5f1a5b42aea269aa82a,65af55b29cebb2ff24f0998e,2024-01-23_07h00.03.652,bars,2023.2.3,Win32,17.98561151,657b66ea316d21385b68909f,,,,,,,,,,,1506.6967,1507.6809,,,1508.1944,1508.4606,,104,104,,,,,,,,,,,,,,,,bars/019.png,bars/mask009.png,,,,,,,,,,,,9,2,,,,,,,10,10,10,9,,,,,,,,,,,1507.6809,1508.1944,1508.4607,1515.6159,space,7.0986,,1515.6159,59,1,1516.6264,1516.6264,1516.6313,,,,0,28,28,28,1,45,105,,,,,,,,
,,6554d5f1a5b42aea269aa82a,65af55b29cebb2ff24f0998e,2024-01-23_07h00.03.652,bars,2023.2.3,Win32,17.98561151,657b66ea316d21385b68909f,,,,,,,,,,,1516.6314,1517.6093,,,1518.1078,1518.3659,,106,-74,,,,,,,,,,,,,,,,bars/039.png,bars/mask008.png,,,,,,,,,,,,8,2,,,,,,,10,10,10,8,,,,,,,,,,,1517.6094,1518.1078,1518.3659,1526.6442,space,8.2205,,1526.6442,69,1,1527.6213,1527.6213,1527.6263,,,,0,29,29,29,1,175,105,,,,,,,,
,,6554d5f1a5b42aea269aa82a,65af55b29cebb2ff24f0998e,2024-01-23_07h00.03.652,bars,2023.2.3,Win32,17.98561151,657b66ea316d21385b68909f,,,,,,,,,,,1527.6264,1528.6175,,,1529.0716,1529.275,,99,99,,,,,,,,,,,,,,,,bars/019.png,bars/mask000.png,,,,,,,,,,,,6,2,,,,,,,8,8,9,8,,,,,,,,,,,1528.6175,1529.0715,1529.275,1533.2117,space,3.8789,,1533.2117,54,6,1534.1939,1534.194,1534.1986,,,,0,30,30,30,1,45,105,,,,,,,,
,,6554d5f1a5b42aea269aa82a,65af55b29cebb2ff24f0998e,2024-01-23_07h00.03.652,bars,2023.2.3,Win32,17.98561151,657b66ea316d21385b68909f,,,,,,,,,,,1534.1987,1535.2167,,,1535.7005,1535.9637,,56,236,,,,,,,,,,,,,,,,bars/035.png,bars/mask006.png,,,,,,,,,,,,4,2,,,,,,,10,6,7,5,,,,,,,,,,,1535.2167,1535.7005,1535.9637,1541.3231,space,5.3005,,1541.3231,61,4,1542.2724,1542.2724,1542.2773,,,,0,31,31,31,1,175,60,,,,,,,,
,,6554d5f1a5b42aea269aa82a,65af55b29cebb2ff24f0998e,2024-01-23_07h00.03.652,bars,2023.2.3,Win32,17.98561151,657b66ea316d21385b68909f,,,,,,,,,,,1542.2774,1543.2621,,,1543.7239,1543.9265,,20,200,,,,,,,,,,,,,,,,bars/016.png,bars/mask009.png,,,,,,,,,,,,3,1,,,,,,,10,4,10,6,,,,,,,,,,,1543.2621,1543.7239,1543.9265,1549.8355,space,5.8508,,1549.8356,20,35,1550.7847,1550.7848,1550.7931,,,,0,32,32,32,1,40,165,,,,,,,,
,,6554d5f1a5b42aea269aa82a,65af55b29cebb2ff24f0998e,2024-01-23_07h00.03.652,bars,2023.2.3,Win32,17.98561151,657b66ea316d21385b68909f,,,,,,,,,,,1550.7932,1551.7611,,,1552.2189,1552.4168,,121,121,,,,,,,,,,,,,,,,bars/004.png,bars/mask000.png,,,,,,,,,,,,7,2,,,,,,,8,6,8,8,,,,,,,,,,,1551.7612,1552.2189,1552.4168,1558.4523,space,5.9723,,1558.4523,84,4,1559.4691,1559.4691,1559.4747,,,,0,33,33,33,1,25,125,,,,,,,,
,,6554d5f1a5b42aea269aa82a,65af55b29cebb2ff24f0998e,2024-01-23_07h00.03.652,bars,2023.2.3,Win32,17.98561151,657b66ea316d21385b68909f,,,,,,,,,,,1559.4749,1560.43,,,1560.8812,1561.0904,,39,39,,,,,,,,,,,,,,,,bars/010.png,bars/mask008.png,,,,,,,,,,,,1,2,,,,,,,10,4,9,3,,,,,,,,,,,1560.4301,1560.8811,1561.0904,1564.0297,space,2.8813,,1564.0297,54,16,1565.0121,1565.0121,1565.0169,,,,0,34,34,34,1,165,55,,,,,,,,
,,6554d5f1a5b42aea269aa82a,65af55b29cebb2ff24f0998e,2024-01-23_07h00.03.652,bars,2023.2.3,Win32,17.98561151,657b66ea316d21385b68909f,,,,,,,,,,,1565.017,1566.0236,,,1566.496,1566.7052,,137,137,,,,,,,,,,,,,,,,bars/005.png,bars/mask001.png,,,,,,,,,,,,3,2,,,,,,,10,2,10,3,,,,,,,,,,,1566.0236,1566.4959,1566.7052,1571.3815,space,4.6178,,1571.3815,53,3,1572.3939,1572.394,1572.3988,,,,0,35,35,35,1,10,140,,,,,,,,
,,6554d5f1a5b42aea269aa82a,65af55b29cebb2ff24f0998e,2024-01-23_07h00.03.652,bars,2023.2.3,Win32,17.98561151,657b66ea316d21385b68909f,,,,,,,,,,,1572.3989,1573.4021,,,1573.8591,1574.1144,,60,60,,,,,,,,,,,,,,,,bars/038.png,bars/mask004.png,,,,,,,,,,,,1,2,,,,,,,10,0,10,1,,,,,,,,,,,1573.4021,1573.8591,1574.1144,1576.7323,space,2.5487,,1576.7323,75,10,1577.6938,1577.6939,1577.6986,,,,0,36,36,36,1,165,70,,,,,,,,
,,6554d5f1a5b42aea269aa82a,65af55b29cebb2ff24f0998e,2024-01-23_07h00.03.652,bars,2023.2.3,Win32,17.98561151,657b66ea316d21385b68909f,,,,,,,,,,,1577.6987,1578.6821,,,1579.1629,1579.4231,,27,27,,,,,,,,,,,,,,,,bars/012.png,bars/mask000.png,,,,,,,,,,,,2,2,,,,,,,10,2,10,3,,,,,,,,,,,1578.6821,1579.1629,1579.4232,1582.6741,space,3.1864,,1582.6741,63,12,1583.6846,1583.6846,1583.6849,,,,0,37,37,37,1,90,15,,,,,,,,
,,6554d5f1a5b42aea269aa82a,65af55b29cebb2ff24f0998e,2024-01-23_07h00.03.652,bars,2023.2.3,Win32,17.98561151,657b66ea316d21385b68909f,,,,,,,,,,,1583.6851,1584.6942,,,1585.1504,1585.4058,,69,69,,,,,,,,,,,,,,,,bars/017.png,bars/mask005.png,,,,,,,,,,,,1,2,,,,,,,8,4,9,5,,,,,,,,,,,1584.6943,1585.1504,1585.4058,1589.6581,space,4.1914,,1589.6582,76,24,1590.6571,1590.6571,1590.6616,,,,0,38,38,38,1,145,45,,,,,,,,
,,6554d5f1a5b42aea269aa82a,65af55b29cebb2ff24f0998e,2024-01-23_07h00.03.652,bars,2023.2.3,Win32,17.98561151,657b66ea316d21385b68909f,,,,,,,,,,,1590.6617,1591.6526,,,1592.1131,1592.3696,,74,74,,,,,,,,,,,,,,,,bars/026.png,bars/mask005.png,,,,,,,,,,,,4,2,,,,,,,10,6,10,6,,,,,,,,,,,1591.6527,1592.1131,1592.3697,1600.4123,space,7.9852,,1600.4123,39,11,1601.4084,1601.4084,1601.4135,,,,0,39,39,39,1,35,85,,,,,,,,
,,6554d5f1a5b42aea269aa82a,65af55b29cebb2ff24f0998e,2024-01-23_07h00.03.652,bars,2023.2.3,Win32,17.98561151,657b66ea316d21385b68909f,,,,,,,,,,,1601.4136,1602.4263,,,1602.8863,1603.1587,,173,173,,,,,,,,,,,,,,,,bars/045.png,bars/mask000.png,,,,,,,,,,,,3,2,,,,,,,10,8,10,8,,,,,,,,,,,1602.4263,1602.8863,1603.1587,1606.0329,space,2.8166,,1606.0329,73,17,1607.0232,1607.0233,1607.0283,,,,0,40,40,40,1,100,10,,,,,,,,
,,6554d5f1a5b42aea269aa82a,65af55b29cebb2ff24f0998e,2024-01-23_07h00.03.652,bars,2023.2.3,Win32,17.98561151,657b66ea316d21385b68909f,,,,,,,,,,,1607.0283,1607.9975,,,1608.4468,1608.7125,,170,170,,,,,,,,,,,,,,,,bars/014.png,bars/mask004.png,,,,,,,,,,,,7,2,,,,,,,8,10,8,10,,,,,,,,,,,1607.9976,1608.4468,1608.7125,1616.1486,space,7.3753,,1616.1486,90,10,1617.1162,1617.1162,1617.121,,,,0,41,41,41,1,80,0,,,,,,,,
,,6554d5f1a5b42aea269aa82a,65af55b29cebb2ff24f0998e,2024-01-23_07h00.03.652,bars,2023.2.3,Win32,17.98561151,657b66ea316d21385b68909f,,,,,,,,,,,1617.1212,1618.1309,,,1618.6008,1618.8552,,124,124,,,,,,,,,,,,,,,,bars/004.png,bars/mask003.png,,,,,,,,,,,,7,2,,,,,,,10,8,9,7,,,,,,,,,,,1618.1309,1618.6008,1618.8553,1621.1228,space,2.212,,1621.1228,81,1,1622.1183,1622.1183,1622.1233,,,,0,42,42,42,1,25,125,,,,,,,,
,,6554d5f1a5b42aea269aa82a,65af55b29cebb2ff24f0998e,2024-01-23_07h00.03.652,bars,2023.2.3,Win32,17.98561151,657b66ea316d21385b68909f,,,,,,,,,,,1622.1234,1623.1477,,,1623.6073,1623.8121,,140,140,,,,,,,,,,,,,,,,bars/024.png,bars/mask002.png,,,,,,,,,,,,3,1,,,,,,,8,10,9,10,,,,,,,,,,,1623.1477,1623.6073,1623.8121,1625.4763,space,1.6053,,1625.4763,20,30,1626.4362,1626.4363,1626.4376,,,,0,43,43,43,1,120,170,,,,,,,,
,,6554d5f1a5b42aea269aa82a,65af55b29cebb2ff24f0998e,2024-01-23_07h00.03.652,bars,2023.2.3,Win32,17.98561151,657b66ea316d21385b68909f,,,,,,,,,,,1626.4378,1627.4461,,,1627.911,1628.1736,,67,67,,,,,,,,,,,,,,,,bars/034.png,bars/mask001.png,,,,,,,,,,,,5,2,,,,,,,6,8,6,5,,,,,,,,,,,1627.4461,1627.9109,1628.1736,1631.0253,space,2.7961,,1631.0253,58,2,1632.0361,1632.0361,1632.037,,,,0,44,44,44,1,125,65,,,,,,,,
,,6554d5f1a5b42aea269aa82a,65af55b29cebb2ff24f0998e,2024-01-23_07h00.03.652,bars,2023.2.3,Win32,17.98561151,657b66ea316d21385b68909f,,,,,,,,,,,1632.0372,1632.9884,,,1633.4669,1633.7205,,9,189,,,,,,,,,,,,,,,,bars/041.png,bars/mask002.png,,,,,,,,,,,,2,1,,,,,,,4,10,3,10,,,,,,,,,,,1632.9884,1633.4669,1633.7205,1637.4366,space,3.6569,,1637.4366,11,76,1638.4284,1638.4284,1638.4339,,,,0,45,45,45,1,20,85,,,,,,,,
,,6554d5f1a5b42aea269aa82a,65af55b29cebb2ff24f0998e,2024-01-23_07h00.03.652,bars,2023.2.3,Win32,17.98561151,657b66ea316d21385b68909f,,,,,,,,,,,1638.434,1639.4012,,,1639.8735,1640.1327,,101,101,,,,,,,,,,,,,,,,bars/002.png,bars/mask009.png,,,,,,,,,,,,5,2,,,,,,,6,10,6,10,,,,,,,,,,,1639.4012,1639.8735,1640.1327,1646.1935,space,6.0012,,1646.1935,29,16,1647.205,1647.205,1647.2102,,,,0,46,46,46,1,130,85,,,,,,,,
,,6554d5f1a5b42aea269aa82a,65af55b29cebb2ff24f0998e,2024-01-23_07h00.03.652,bars,2023.2.3,Win32,17.98561151,657b66ea316d21385b68909f,,,,,,,,,,,1647.2102,1648.1842,,,1648.6636,1648.87,,135,-45,,,,,,,,,,,,,,,,bars/015.png,bars/mask002.png,,,,,,,,,,,,1,2,,,,,,,8,8,7,8,,,,,,,,,,,1648.1842,1648.6636,1648.87,1655.4196,space,6.4915,,1655.4197,25,25,1656.3731,1656.3731,1656.3779,,,,0,47,47,47,1,110,160,,,,,,,,
,,6554d5f1a5b42aea269aa82a,65af55b29cebb2ff24f0998e,2024-01-23_07h00.03.652,bars,2023.2.3,Win32,17.98561151,657b66ea316d21385b68909f,,,,,,,,,,,1656.3779,1657.3841,,,1657.8424,1658.099,,22,202,,,,,,,,,,,,,,,,bars/022.png,bars/mask000.png,,,,,,,,,,,,6,2,,,,,,,6,6,8,6,,,,,,,,,,,1657.3842,1657.8424,1658.099,1660.8797,space,2.7242,,1660.8798,73,2,1661.8495,1661.8495,1661.854,,,,0,48,48,48,1,95,20,,,,,,,,
,,6554d5f1a5b42aea269aa82a,65af55b29cebb2ff24f0998e,2024-01-23_07h00.03.652,bars,2023.2.3,Win32,17.98561151,657b66ea316d21385b68909f,,,,,,,,,,,1661.8542,1662.8161,,,1663.3344,1663.5936,,108,-72,,,,,,,,,,,,,,,,bars/001.png,bars/mask000.png,,,,,,,,,,,,1,1,,,,,,,4,8,5,8,,,,,,,,,,,1662.8161,1663.3343,1663.5936,1669.7238,space,6.0684,,1669.7238,22,23,1670.7195,1670.7195,1670.7246,,,,0,49,49,49,1,130,85,,,,,,,,
,,6554d5f1a5b42aea269aa82a,65af55b29cebb2ff24f0998e,2024-01-23_07h00.03.652,bars,2023.2.3,Win32,17.98561151,657b66ea316d21385b68909f,,,,,,,,,,,,,,,,,,,,,,,,,,,,,,,,,,,,,,,,,,,,,,,,,,,,,,,,,,,,,,,,,,,,,,,,,,,,,,,,,,,,,,,,,,,,,1670.7247,1730.7157,0,2,2,2,1,sequence_tables/blk035.csv
,,6554d5f1a5b42aea269aa82a,65af55b29cebb2ff24f0998e,2024-01-23_07h00.03.652,bars,2023.2.3,Win32,17.98561151,657b66ea316d21385b68909f,,,,,,,,,,,1744.3942,1745.402,,,1745.875,1746.1406,,61,61,,,,,,,,,,,,,,,,bars/038.png,bars/mask000.png,,,,,,,,,,,,4,2,,,,,,,2,7,0,6,,,,,,1730.7204,1744.3879,space,13.6084,,1745.4022,1745.8749,1746.1406,1753.4119,space,7.2129,,1753.4119,76,9,1754.3785,1754.3785,1754.3838,,,,0,0,0,0,1,165,70,,,,,,,,
,,6554d5f1a5b42aea269aa82a,65af55b29cebb2ff24f0998e,2024-01-23_07h00.03.652,bars,2023.2.3,Win32,17.98561151,657b66ea316d21385b68909f,,,,,,,,,,,1754.3839,1755.3809,,,1755.8454,1756.0461,,128,128,,,,,,,,,,,,,,,,bars/049.png,bars/mask005.png,,,,,,,,,,,,6,2,,,,,,,0,9,1,10,,,,,,,,,,,1755.381,1755.8453,1756.0461,1759.4356,space,3.3283,,1759.4356,32,13,1760.4296,1760.4297,1760.4343,,,,0,1,1,1,1,160,115,,,,,,,,
,,6554d5f1a5b42aea269aa82a,65af55b29cebb2ff24f0998e,2024-01-23_07h00.03.652,bars,2023.2.3,Win32,17.98561151,657b66ea316d21385b68909f,,,,,,,,,,,1760.4344,1761.4099,,,1761.8912,1762.1593,,49,49,,,,,,,,,,,,,,,,bars/026.png,bars/mask009.png,,,,,,,,,,,,1,1,,,,,,,0,7,1,7,,,,,,,,,,,1761.4099,1761.8912,1762.1593,1767.2576,space,5.0386,,1767.2576,14,36,1768.2108,1768.2109,1768.2158,,,,0,2,2,2,1,35,85,,,,,,,,
,,6554d5f1a5b42aea269aa82a,65af55b29cebb2ff24f0998e,2024-01-23_07h00.03.652,bars,2023.2.3,Win32,17.98561151,657b66ea316d21385b68909f,,,,,,,,,,,1768.2159,1769.2353,,,1769.7559,1770.0223,,34,34,,,,,,,,,,,,,,,,bars/041.png,bars/mask009.png,,,,,,,,,,,,1,1,,,,,,,2,9,1,9,,,,,,,,,,,1769.2353,1769.7559,1770.0223,1772.2499,space,2.1642,,1772.2499,14,51,1773.2586,1773.2586,1773.2591,,,,0,3,3,3,1,20,85,,,,,,,,
,,6554d5f1a5b42aea269aa82a,65af55b29cebb2ff24f0998e,2024-01-23_07h00.03.652,bars,2023.2.3,Win32,17.98561151,657b66ea316d21385b68909f,,,,,,,,,,,1773.2593,1774.264,,,1774.7667,1775.0291,,122,122,,,,,,,,,,,,,,,,bars/024.png,bars/mask000.png,,,,,,,,,,,,4,1,,,,,,,4,10,4,10,,,,,,,,,,,1774.2641,1774.7666,1775.0291,1783.1066,space,8.0123,,1783.1067,2,48,1784.1168,1784.1168,1784.1216,,,,0,4,4,4,1,120,170,,,,,,,,
,,6554d5f1a5b42aea269aa82a,65af55b29cebb2ff24f0998e,2024-01-23_07h00.03.652,bars,2023.2.3,Win32,17.98561151,657b66ea316d21385b68909f,,,,,,,,,,,1784.1217,1785.1197,,,1785.5811,1785.8425,,125,125,,,,,,,,,,,,,,,,bars/028.png,bars/mask003.png,,,,,,,,,,,,8,2,,,,,,,2,10,0,10,,,,,,,,,,,1785.1197,1785.5811,1785.8425,1788.2024,space,2.3007,,1788.2024,80,5,1789.1834,1789.1834,1789.1885,,,,0,5,5,5,1,45,120,,,,,,,,
,,6554d5f1a5b42aea269aa82a,65af55b29cebb2ff24f0998e,2024-01-23_07h00.03.652,bars,2023.2.3,Win32,17.98561151,657b66ea316d21385b68909f,,,,,,,,,,,1789.1886,1790.1839,,,1790.6559,1790.9148,,34,34,,,,,,,,,,,,,,,,bars/035.png,bars/mask007.png,,,,,,,,,,,,1,2,,,,,,,4,10,5,9,,,,,,,,,,,1790.1839,1790.6558,1790.9148,1793.0354,space,2.0616,,1793.0354,39,26,1793.9887,1793.9887,1793.9931,,,,0,6,6,6,1,175,60,,,,,,,,
,,6554d5f1a5b42aea269aa82a,65af55b29cebb2ff24f0998e,2024-01-23_07h00.03.652,bars,2023.2.3,Win32,17.98561151,657b66ea316d21385b68909f,,,,,,,,,,,1793.9932,1794.9549,,,1795.4652,1795.7231,,70,70,,,,,,,,,,,,,,,,bars/038.png,bars/mask006.png,,,,,,,,,,,,8,2,,,,,,,2,8,2,8,,,,,,,,,,,1794.9549,1795.4652,1795.7231,1799.6753,space,3.8933,,1799.6754,85,0,1800.6264,1800.6265,1800.6313,,,,0,7,7,7,1,165,70,,,,,,,,
,,6554d5f1a5b42aea269aa82a,65af55b29cebb2ff24f0998e,2024-01-23_07h00.03.652,bars,2023.2.3,Win32,17.98561151,657b66ea316d21385b68909f,,,,,,,,,,,1800.6314,1801.5795,,,1802.0484,1802.2502,,62,62,,,,,,,,,,,,,,,,bars/029.png,bars/mask009.png,,,,,,,,,,,,4,2,,,,,,,0,10,0,10,,,,,,,,,,,1801.5795,1802.0484,1802.2502,1805.8009,space,3.493,,1805.8009,28,17,1806.7636,1806.7637,1806.7685,,,,0,8,8,8,1,90,45,,,,,,,,
,,6554d5f1a5b42aea269aa82a,65af55b29cebb2ff24f0998e,2024-01-23_07h00.03.652,bars,2023.2.3,Win32,17.98561151,657b66ea316d21385b68909f,,,,,,,,,,,1806.7685,1807.7646,,,1808.2726,1808.5285,,160,-20,,,,,,,,,,,,,,,,bars/016.png,bars/mask005.png,,,,,,,,,,,,7,2,,,,,,,2,8,2,8,,,,,,,,,,,1807.7647,1808.2726,1808.5285,1810.4278,space,1.8415,,1810.4278,60,5,1811.4031,1811.4032,1811.4036,,,,0,9,9,9,1,40,165,,,,,,,,
,,6554d5f1a5b42aea269aa82a,65af55b29cebb2ff24f0998e,2024-01-23_07h00.03.652,bars,2023.2.3,Win32,17.98561151,657b66ea316d21385b68909f,,,,,,,,,,,1811.4037,1812.4232,,,1812.9256,1813.1907,,67,67,,,,,,,,,,,,,,,,bars/035.png,bars/mask003.png,,,,,,,,,,,,8,2,,,,,,,0,10,0,10,,,,,,,,,,,1812.4232,1812.9255,1813.1907,1815.5624,space,2.3104,,1815.5624,72,7,1816.5539,1816.5539,1816.5585,,,,0,10,10,10,1,175,60,,,,,,,,
,,6554d5f1a5b42aea269aa82a,65af55b29cebb2ff24f0998e,2024-01-23_07h00.03.652,bars,2023.2.3,Win32,17.98561151,657b66ea316d21385b68909f,,,,,,,,,,,1816.5586,1817.5641,,,1818.0197,1818.2801,,111,111,,,,,,,,,,,,,,,,bars/006.png,bars/mask002.png,,,,,,,,,,,,5,2,,,,,,,0,8,1,8,,,,,,,,,,,1817.5641,1818.0196,1818.2801,1820.3224,space,1.9805,,1820.3224,76,11,1821.2762,1821.2762,1821.2811,,,,0,11,11,11,1,35,100,,,,,,,,
,,6554d5f1a5b42aea269aa82a,65af55b29cebb2ff24f0998e,2024-01-23_07h00.03.652,bars,2023.2.3,Win32,17.98561151,657b66ea316d21385b68909f,,,,,,,,,,,1821.2811,1822.2766,,,1822.7766,1823.0317,,62,62,,,,,,,,,,,,,,,,bars/010.png,bars/mask001.png,,,,,,,,,,,,4,2,,,,,,,0,6,1,5,,,,,,,,,,,1822.2766,1822.7765,1823.0318,1829.5091,space,6.4095,,1829.5092,77,7,1830.5175,1830.5176,1830.5218,,,,0,12,12,12,1,165,55,,,,,,,,
,,6554d5f1a5b42aea269aa82a,65af55b29cebb2ff24f0998e,2024-01-23_07h00.03.652,bars,2023.2.3,Win32,17.98561151,657b66ea316d21385b68909f,,,,,,,,,,,1830.5219,1831.4754,,,1831.928,1832.1865,,114,114,,,,,,,,,,,,,,,,bars/009.png,bars/mask005.png,,,,,,,,,,,,1,2,,,,,,,2,4,3,2,,,,,,,,,,,1831.4754,1831.9279,1832.1865,1836.6119,space,4.3638,,1836.6119,81,9,1837.5715,1837.5715,1837.5762,,,,0,13,13,13,1,15,105,,,,,,,,
,,6554d5f1a5b42aea269aa82a,65af55b29cebb2ff24f0998e,2024-01-23_07h00.03.652,bars,2023.2.3,Win32,17.98561151,657b66ea316d21385b68909f,,,,,,,,,,,1837.5763,1838.5833,,,1839.0333,1839.2877,,56,56,,,,,,,,,,,,,,,,bars/026.png,bars/mask000.png,,,,,,,,,,,,0,1,,,,,,,0,2,0,1,,,,,,,,,,,1838.5833,1839.0332,1839.2877,1841.5365,space,2.1909,,1841.5365,21,29,1842.5458,1842.5458,1842.5506,,,,0,14,14,14,1,35,85,,,,,,,,
,,6554d5f1a5b42aea269aa82a,65af55b29cebb2ff24f0998e,2024-01-23_07h00.03.652,bars,2023.2.3,Win32,17.98561151,657b66ea316d21385b68909f,,,,,,,,,,,1842.5507,1843.5452,,,1844.0611,1844.3297,,175,175,,,,,,,,,,,,,,,,bars/016.png,bars/mask006.png,,,,,,,,,,,,1,2,,,,,,,2,0,2,1,,,,,,,,,,,1843.5453,1844.0609,1844.3298,1847.6465,space,3.2472,,1847.6466,45,10,1848.6062,1848.6062,1848.6116,,,,0,15,15,15,1,40,165,,,,,,,,
,,6554d5f1a5b42aea269aa82a,65af55b29cebb2ff24f0998e,2024-01-23_07h00.03.652,bars,2023.2.3,Win32,17.98561151,657b66ea316d21385b68909f,,,,,,,,,,,1848.6118,1849.5805,,,1850.0429,1850.3044,,14,194,,,,,,,,,,,,,,,,bars/003.png,bars/mask001.png,,,,,,,,,,,,0,1,,,,,,,0,2,0,3,,,,,,,,,,,1849.5806,1850.0429,1850.3044,1859.6914,space,9.3199,,1859.6914,11,54,1860.6903,1860.6903,1860.6959,,,,0,16,16,16,1,25,140,,,,,,,,
,,6554d5f1a5b42aea269aa82a,65af55b29cebb2ff24f0998e,2024-01-23_07h00.03.652,bars,2023.2.3,Win32,17.98561151,657b66ea316d21385b68909f,,,,,,,,,,,1860.6959,1861.6394,,,1862.1597,1862.4297,,48,48,,,,,,,,,,,,,,,,bars/026.png,bars/mask003.png,,,,,,,,,,,,1,1,,,,,,,2,0,2,0,,,,,,,,,,,1861.6394,1862.1596,1862.4298,1867.4144,space,4.9242,,1867.4144,13,37,1868.4174,1868.4174,1868.4228,,,,0,17,17,17,1,35,85,,,,,,,,
,,6554d5f1a5b42aea269aa82a,65af55b29cebb2ff24f0998e,2024-01-23_07h00.03.652,bars,2023.2.3,Win32,17.98561151,657b66ea316d21385b68909f,,,,,,,,,,,1868.4229,1869.403,,,1869.87,1870.1314,,16,16,,,,,,,,,,,,,,,,bars/044.png,bars/mask001.png,,,,,,,,,,,,0,2,,,,,,,4,2,5,1,,,,,,,,,,,1869.4031,1869.87,1870.1315,1874.4059,space,4.2165,,1874.406,59,41,1875.4215,1875.4215,1875.4265,,,,0,18,18,18,1,75,155,,,,,,,,
,,6554d5f1a5b42aea269aa82a,65af55b29cebb2ff24f0998e,2024-01-23_07h00.03.652,bars,2023.2.3,Win32,17.98561151,657b66ea316d21385b68909f,,,,,,,,,,,1875.4266,1876.4284,,,1876.8777,1877.1409,,38,38,,,,,,,,,,,,,,,,bars/017.png,bars/mask002.png,,,,,,,,,,,,4,2,,,,,,,2,4,3,5,,,,,,,,,,,1876.4284,1876.8777,1877.1409,1881.6845,space,4.4858,,1881.6845,73,7,1882.6673,1882.6673,1882.6721,,,,0,19,19,19,1,145,45,,,,,,,,
,,6554d5f1a5b42aea269aa82a,65af55b29cebb2ff24f0998e,2024-01-23_07h00.03.652,bars,2023.2.3,Win32,17.98561151,657b66ea316d21385b68909f,,,,,,,,,,,1882.6722,1883.6366,,,1884.0907,1884.347,,122,122,,,,,,,,,,,,,,,,bars/037.png,bars/mask009.png,,,,,,,,,,,,3,2,,,,,,,4,6,4,8,,,,,,,,,,,1883.6367,1884.0907,1884.347,1891.1235,space,6.7188,,1891.1235,28,17,1892.1312,1892.1312,1892.1368,,,,0,20,20,20,1,150,105,,,,,,,,
,,6554d5f1a5b42aea269aa82a,65af55b29cebb2ff24f0998e,2024-01-23_07h00.03.652,bars,2023.2.3,Win32,17.98561151,657b66ea316d21385b68909f,,,,,,,,,,,1892.1369,1893.1444,,,1893.6219,1893.884,,172,-8,,,,,,,,,,,,,,,,bars/032.png,bars/mask009.png,,,,,,,,,,,,0,2,,,,,,,2,4,3,4,,,,,,,,,,,1893.1445,1893.6219,1893.884,1900.7019,space,6.7609,,1900.7019,47,28,1901.6954,1901.6955,1901.7006,,,,0,21,21,21,1,125,20,,,,,,,,
,,6554d5f1a5b42aea269aa82a,65af55b29cebb2ff24f0998e,2024-01-23_07h00.03.652,bars,2023.2.3,Win32,17.98561151,657b66ea316d21385b68909f,,,,,,,,,,,1901.7007,1902.6602,,,1903.17,1903.4226,,32,32,,,,,,,,,,,,,,,,bars/025.png,bars/mask002.png,,,,,,,,,,,,1,2,,,,,,,4,2,3,2,,,,,,,,,,,1902.6602,1903.17,1903.4227,1908.2508,space,4.7697,,1908.2508,73,8,1909.2246,1909.2247,1909.2293,,,,0,22,22,22,1,105,40,,,,,,,,
,,6554d5f1a5b42aea269aa82a,65af55b29cebb2ff24f0998e,2024-01-23_07h00.03.652,bars,2023.2.3,Win32,17.98561151,657b66ea316d21385b68909f,,,,,,,,,,,1909.2294,1910.2245,,,1910.6909,1910.9489,,27,207,,,,,,,,,,,,,,,,bars/030.png,bars/mask003.png,,,,,,,,,,,,0,2,,,,,,,2,4,1,3,,,,,,,,,,,1910.2245,1910.6909,1910.949,1919.2606,space,8.2537,,1919.2606,67,38,1920.2503,1920.2503,1920.2555,,,,0,23,23,23,1,140,65,,,,,,,,
,,6554d5f1a5b42aea269aa82a,65af55b29cebb2ff24f0998e,2024-01-23_07h00.03.652,bars,2023.2.3,Win32,17.98561151,657b66ea316d21385b68909f,,,,,,,,,,,1920.2556,1921.2255,,,1921.6855,1921.9417,,9,189,,,,,,,,,,,,,,,,bars/016.png,bars/mask003.png,,,,,,,,,,,,1,2,,,,,,,0,2,0,3,,,,,,,,,,,1921.2255,1921.6854,1921.9417,1927.3575,space,5.3558,,1927.3575,31,24,1928.3638,1928.3638,1928.3685,,,,0,24,24,24,1,40,165,,,,,,,,
,,6554d5f1a5b42aea269aa82a,65af55b29cebb2ff24f0998e,2024-01-23_07h00.03.652,bars,2023.2.3,Win32,17.98561151,657b66ea316d21385b68909f,,,,,,,,,,,1928.3686,1929.3328,,,1929.8092,1930.0129,,44,44,,,,,,,,,,,,,,,,bars/029.png,bars/mask003.png,,,,,,,,,,,,0,2,,,,,,,2,0,4,0,,,,,,,,,,,1929.3329,1929.8092,1930.0129,1932.3037,space,2.2317,,1932.3037,46,1,1933.3173,1933.3174,1933.3178,,,,0,25,25,25,1,90,45,,,,,,,,
,,6554d5f1a5b42aea269aa82a,65af55b29cebb2ff24f0998e,2024-01-23_07h00.03.652,bars,2023.2.3,Win32,17.98561151,657b66ea316d21385b68909f,,,,,,,,,,,1933.3179,1934.2614,,,1934.7244,1934.9931,,69,69,,,,,,,,,,,,,,,,bars/021.png,bars/mask009.png,,,,,,,,,,,,1,2,,,,,,,0,0,1,1,,,,,,,,,,,1934.2614,1934.7243,1934.9931,1940.7632,space,5.7126,,1940.7632,86,1,1941.714,1941.714,1941.7185,,,,0,26,26,26,1,155,70,,,,,,,,
,,6554d5f1a5b42aea269aa82a,65af55b29cebb2ff24f0998e,2024-01-23_07h00.03.652,bars,2023.2.3,Win32,17.98561151,657b66ea316d21385b68909f,,,,,,,,,,,1941.7186,1942.6981,,,1943.168,1943.428,,102,102,,,,,,,,,,,,,,,,bars/009.png,bars/mask002.png,,,,,,,,,,,,0,2,,,,,,,2,0,3,0,,,,,,,,,,,1942.6981,1943.168,1943.4281,1948.9701,space,5.4829,,1948.9702,87,3,1949.9345,1949.9345,1949.9392,,,,0,27,27,27,1,15,105,,,,,,,,
,,6554d5f1a5b42aea269aa82a,65af55b29cebb2ff24f0998e,2024-01-23_07h00.03.652,bars,2023.2.3,Win32,17.98561151,657b66ea316d21385b68909f,,,,,,,,,,,1949.9394,1950.929,,,1951.4109,1951.6661,,115,115,,,,,,,,,,,,,,,,bars/003.png,bars/mask004.png,,,,,,,,,,,,0,2,,,,,,,0,2,0,2,,,,,,,,,,,1950.929,1951.4109,1951.6662,1959.411,space,7.6866,,1959.4111,90,25,1960.4045,1960.4045,1960.4097,,,,0,28,28,28,1,25,140,,,,,,,,
,,6554d5f1a5b42aea269aa82a,65af55b29cebb2ff24f0998e,2024-01-23_07h00.03.652,bars,2023.2.3,Win32,17.98561151,657b66ea316d21385b68909f,,,,,,,,,,,1960.4098,1961.3761,,,1961.8398,1962.1004,,27,207,,,,,,,,,,,,,,,,bars/007.png,bars/mask003.png,,,,,,,,,,,,0,2,,,,,,,0,0,0,0,,,,,,,,,,,1961.3761,1961.8397,1962.1004,1966.8447,space,4.6813,,1966.8447,32,28,1967.8154,1967.8154,1967.8197,,,,0,29,29,29,1,175,55,,,,,,,,
,,6554d5f1a5b42aea269aa82a,65af55b29cebb2ff24f0998e,2024-01-23_07h00.03.652,bars,2023.2.3,Win32,17.98561151,657b66ea316d21385b68909f,,,,,,,,,,,1967.8199,1968.8063,,,1969.2734,1969.4741,,19,19,,,,,,,,,,,,,,,,bars/036.png,bars/mask009.png,,,,,,,,,,,,0,2,,,,,,,0,0,1,0,,,,,,,,,,,1968.8063,1969.2734,1969.4741,1976.1859,space,6.6528,,1976.1859,54,1,1977.1965,1977.1965,1977.2016,,,,0,30,30,30,1,145,20,,,,,,,,
,,6554d5f1a5b42aea269aa82a,65af55b29cebb2ff24f0998e,2024-01-23_07h00.03.652,bars,2023.2.3,Win32,17.98561151,657b66ea316d21385b68909f,,,,,,,,,,,1977.2017,1978.2078,,,1978.6691,1978.9156,,123,123,,,,,,,,,,,,,,,,bars/018.png,bars/mask004.png,,,,,,,,,,,,0,1,,,,,,,2,0,2,2,,,,,,,,,,,1978.2079,1978.6691,1978.9156,1983.8654,space,4.8759,,1983.8655,27,33,1984.8262,1984.8262,1984.8312,,,,0,31,31,31,1,150,90,,,,,,,,
,,6554d5f1a5b42aea269aa82a,65af55b29cebb2ff24f0998e,2024-01-23_07h00.03.652,bars,2023.2.3,Win32,17.98561151,657b66ea316d21385b68909f,,,,,,,,,,,1984.8312,1985.788,,,1986.2975,1986.5572,,160,-20,,,,,,,,,,,,,,,,bars/033.png,bars/mask000.png,,,,,,,,,,,,1,2,,,,,,,4,2,4,1,,,,,,,,,,,1985.788,1986.2975,1986.5572,1990.9358,space,4.3241,,1990.9358,45,5,1991.8948,1991.8948,1991.8999,,,,0,32,32,32,1,25,155,,,,,,,,
,,6554d5f1a5b42aea269aa82a,65af55b29cebb2ff24f0998e,2024-01-23_07h00.03.652,bars,2023.2.3,Win32,17.98561151,657b66ea316d21385b68909f,,,,,,,,,,,1991.9,1992.8773,,,1993.3394,1993.5416,,59,59,,,,,,,,,,,,,,,,bars/035.png,bars/mask003.png,,,,,,,,,,,,4,2,,,,,,,6,4,7,4,,,,,,,,,,,1992.8773,1993.3393,1993.5416,1996.4096,space,2.8093,,1996.4096,64,1,1997.3628,1997.3628,1997.3632,,,,0,33,33,33,1,175,60,,,,,,,,
,,6554d5f1a5b42aea269aa82a,65af55b29cebb2ff24f0998e,2024-01-23_07h00.03.652,bars,2023.2.3,Win32,17.98561151,657b66ea316d21385b68909f,,,,,,,,,,,1997.3632,1998.386,,,1998.8468,1999.0448,,154,154,,,,,,,,,,,,,,,,bars/043.png,bars/mask000.png,,,,,,,,,,,,0,2,,,,,,,8,2,8,2,,,,,,,,,,,1998.3861,1998.8468,1999.0448,2002.5467,space,3.4353,,2002.5468,56,24,2003.561,2003.561,2003.5657,,,,0,34,34,34,1,30,130,,,,,,,,
,,6554d5f1a5b42aea269aa82a,65af55b29cebb2ff24f0998e,2024-01-23_07h00.03.652,bars,2023.2.3,Win32,17.98561151,657b66ea316d21385b68909f,,,,,,,,,,,2003.5659,2004.5212,,,2004.9832,2005.2418,,123,123,,,,,,,,,,,,,,,,bars/028.png,bars/mask001.png,,,,,,,,,,,,0,2,,,,,,,10,0,10,0,,,,,,,,,,,2004.5213,2004.9832,2005.2418,2008.7756,space,3.4758,,2008.7756,78,3,2009.7775,2009.7776,2009.7832,,,,0,35,35,35,1,45,120,,,,,,,,
,,6554d5f1a5b42aea269aa82a,65af55b29cebb2ff24f0998e,2024-01-23_07h00.03.652,bars,2023.2.3,Win32,17.98561151,657b66ea316d21385b68909f,,,,,,,,,,,2009.7833,2010.802,,,2011.3194,2011.5905,,62,62,,,,,,,,,,,,,,,,bars/047.png,bars/mask005.png,,,,,,,,,,,,0,2,,,,,,,8,0,9,0,,,,,,,,,,,2010.802,2011.3193,2011.5905,2016.4664,space,4.8176,,2016.4664,47,8,2017.4246,2017.4247,2017.4293,,,,0,36,36,36,1,15,70,,,,,,,,
,,6554d5f1a5b42aea269aa82a,65af55b29cebb2ff24f0998e,2024-01-23_07h00.03.652,bars,2023.2.3,Win32,17.98561151,657b66ea316d21385b68909f,,,,,,,,,,,2017.4293,2018.4466,,,2018.919,2019.1272,,143,-37,,,,,,,,,,,,,,,,bars/017.png,bars/mask001.png,,,,,,,,,,,,8,1,,,,,,,10,2,9,3,,,,,,,,,,,2018.4467,2018.9189,2019.1272,2025.4366,space,6.2494,,2025.4366,2,82,2026.4247,2026.4247,2026.4299,,,,0,37,37,37,1,145,45,,,,,,,,
,,6554d5f1a5b42aea269aa82a,65af55b29cebb2ff24f0998e,2024-01-23_07h00.03.652,bars,2023.2.3,Win32,17.98561151,657b66ea316d21385b68909f,,,,,,,,,,,2026.43,2027.4301,,,2027.9098,2028.171,,113,113,,,,,,,,,,,,,,,,bars/002.png,bars/mask003.png,,,,,,,,,,,,4,1,,,,,,,8,0,9,0,,,,,,,,,,,2027.4301,2027.9097,2028.171,2031.8552,space,3.6248,,2031.8553,17,28,2032.8203,2032.8203,2032.8248,,,,0,38,38,38,1,130,85,,,,,,,,
,,6554d5f1a5b42aea269aa82a,65af55b29cebb2ff24f0998e,2024-01-23_07h00.03.652,bars,2023.2.3,Win32,17.98561151,657b66ea316d21385b68909f,,,,,,,,,,,2032.8249,2033.7769,,,2034.2291,2034.4331,,110,110,,,,,,,,,,,,,,,,bars/042.png,bars/mask006.png,,,,,,,,,,,,0,2,,,,,,,10,0,10,0,,,,,,,,,,,2033.777,2034.2291,2034.4332,2040.4816,space,5.9898,,2040.4816,35,35,2041.4681,2041.4681,2041.4739,,,,0,39,39,39,1,145,75,,,,,,,,
,,6554d5f1a5b42aea269aa82a,65af55b29cebb2ff24f0998e,2024-01-23_07h00.03.652,bars,2023.2.3,Win32,17.98561151,657b66ea316d21385b68909f,,,,,,,,,,,2041.4741,2042.4901,,,2042.9619,2043.2167,,152,152,,,,,,,,,,,,,,,,bars/015.png,bars/mask005.png,,,,,,,,,,,,0,2,,,,,,,10,0,10,0,,,,,,,,,,,2042.4901,2042.9619,2043.2167,2046.5371,space,3.2638,,2046.5371,42,8,2047.5316,2047.5316,2047.5365,,,,0,40,40,40,1,110,160,,,,,,,,
,,6554d5f1a5b42aea269aa82a,65af55b29cebb2ff24f0998e,2024-01-23_07h00.03.652,bars,2023.2.3,Win32,17.98561151,657b66ea316d21385b68909f,,,,,,,,,,,2047.5366,2048.5463,,,2049.0634,2049.3148,,116,116,,,,,,,,,,,,,,,,bars/018.png,bars/mask004.png,,,,,,,,,,,,0,2,,,,,,,8,0,6,0,,,,,,,,,,,2048.5463,2049.0634,2049.3148,2052.3742,space,3.0019,,2052.3742,34,26,2053.3334,2053.3334,2053.3339,,,,0,41,41,41,1,150,90,,,,,,,,
,,6554d5f1a5b42aea269aa82a,65af55b29cebb2ff24f0998e,2024-01-23_07h00.03.652,bars,2023.2.3,Win32,17.98561151,657b66ea316d21385b68909f,,,,,,,,,,,2053.334,2054.3409,,,2054.8582,2055.1201,,134,134,,,,,,,,,,,,,,,,bars/023.png,bars/mask005.png,,,,,,,,,,,,1,2,,,,,,,10,2,10,3,,,,,,,,,,,2054.341,2054.8582,2055.1201,2062.9299,space,7.753,,2062.93,66,19,2063.9,2063.9,2063.9056,,,,0,42,42,42,1,20,115,,,,,,,,
,,6554d5f1a5b42aea269aa82a,65af55b29cebb2ff24f0998e,2024-01-23_07h00.03.652,bars,2023.2.3,Win32,17.98561151,657b66ea316d21385b68909f,,,,,,,,,,,2063.9058,2064.9182,,,2065.3723,2065.63,,133,133,,,,,,,,,,,,,,,,bars/004.png,bars/mask008.png,,,,,,,,,,,,3,2,,,,,,,8,4,9,4,,,,,,,,,,,2064.9182,2065.3723,2065.63,2067.0821,space,1.3942,,2067.0822,72,8,2068.0687,2068.0688,2068.0691,,,,0,43,43,43,1,25,125,,,,,,,,
,,6554d5f1a5b42aea269aa82a,65af55b29cebb2ff24f0998e,2024-01-23_07h00.03.652,bars,2023.2.3,Win32,17.98561151,657b66ea316d21385b68909f,,,,,,,,,,,2068.0692,2069.0636,,,2069.5263,2069.7775,,119,119,,,,,,,,,,,,,,,,bars/031.png,bars/mask004.png,,,,,,,,,,,,9,1,,,,,,,10,2,9,1,,,,,,,,,,,2069.0636,2069.5262,2069.7775,2071.9075,space,2.0734,,2071.9075,1,84,2072.9244,2072.9245,2072.9257,,,,0,44,44,44,1,120,35,,,,,,,,
,,6554d5f1a5b42aea269aa82a,65af55b29cebb2ff24f0998e,2024-01-23_07h00.03.652,bars,2023.2.3,Win32,17.98561151,657b66ea316d21385b68909f,,,,,,,,,,,2072.9257,2073.8942,,,2074.3774,2074.6008,,7,7,,,,,,,,,,,,,,,,bars/032.png,bars/mask003.png,,,,,,,,,,,,0,2,,,,,,,8,0,8,0,,,,,,,,,,,2073.8943,2074.3773,2074.6008,2077.1357,space,2.4724,,2077.1358,62,13,2078.141,2078.141,2078.1459,,,,0,45,45,45,1,125,20,,,,,,,,
,,6554d5f1a5b42aea269aa82a,65af55b29cebb2ff24f0998e,2024-01-23_07h00.03.652,bars,2023.2.3,Win32,17.98561151,657b66ea316d21385b68909f,,,,,,,,,,,2078.146,2079.1599,,,2079.6295,2079.8842,,27,27,,,,,,,,,,,,,,,,bars/031.png,bars/mask005.png,,,,,,,,,,,,1,2,,,,,,,6,0,8,1,,,,,,,,,,,2079.16,2079.6295,2079.8842,2084.1548,space,4.2144,,2084.1548,87,8,2085.1606,2085.1606,2085.1659,,,,0,46,46,46,1,120,35,,,,,,,,
,,6554d5f1a5b42aea269aa82a,65af55b29cebb2ff24f0998e,2024-01-23_07h00.03.652,bars,2023.2.3,Win32,17.98561151,657b66ea316d21385b68909f,,,,,,,,,,,2085.166,2086.1744,,,2086.6381,2086.8433,,133,133,,,,,,,,,,,,,,,,bars/003.png,bars/mask006.png,,,,,,,,,,,,0,2,,,,,,,8,0,7,0,,,,,,,,,,,2086.1744,2086.638,2086.8433,2092.2675,space,5.369,,2092.2676,72,7,2093.2769,2093.277,2093.2824,,,,0,47,47,47,1,25,140,,,,,,,,
,,6554d5f1a5b42aea269aa82a,65af55b29cebb2ff24f0998e,2024-01-23_07h00.03.652,bars,2023.2.3,Win32,17.98561151,657b66ea316d21385b68909f,,,,,,,,,,,2093.2825,2094.2393,,,2094.7012,2094.9559,,148,148,,,,,,,,,,,,,,,,bars/040.png,bars/mask000.png,,,,,,,,,,,,4,1,,,,,,,6,2,6,3,,,,,,,,,,,2094.2394,2094.7011,2094.9559,2100.3284,space,5.3135,,2100.3284,8,37,2101.2892,2101.2894,2101.2946,,,,0,48,48,48,1,140,5,,,,,,,,
,,6554d5f1a5b42aea269aa82a,65af55b29cebb2ff24f0998e,2024-01-23_07h00.03.652,bars,2023.2.3,Win32,17.98561151,657b66ea316d21385b68909f,,,,,,,,,,,2101.2947,2102.2587,,,2102.7799,2103.0377,,156,156,,,,,,,,,,,,,,,,bars/005.png,bars/mask000.png,,,,,,,,,,,,1,2,,,,,,,4,4,4,3,,,,,,,,,,,2102.2588,2102.7799,2103.0377,2107.1732,space,4.0762,,2107.1732,34,16,2108.1396,2108.1396,2108.1448,,,,0,49,49,49,1,10,140,,,,,,,,
,,6554d5f1a5b42aea269aa82a,65af55b29cebb2ff24f0998e,2024-01-23_07h00.03.652,bars,2023.2.3,Win32,17.98561151,657b66ea316d21385b68909f,,,,,,,,,,,,,,,,,,,,,,,,,,,,,,,,,,,,,,,,,,,,,,,,,,,,,,,,,,,,,,,,,,,,,,,,,,,,,,,,,,,,,,,,,,,,,2108.1448,2168.1221,0,3,3,4,1,sequence_tables/blk019.csv
,,6554d5f1a5b42aea269aa82a,65af55b29cebb2ff24f0998e,2024-01-23_07h00.03.652,bars,2023.2.3,Win32,17.98561151,657b66ea316d21385b68909f,,,,,,,,,,,2171.346,2172.3122,,,2172.7839,2172.9827,,28,28,,,,,,,,,,,,,,,,bars/012.png,bars/mask001.png,,,,,,,,,,,,4,2,,,,,,,5,8,5,7,,,,,,2168.127,2171.3444,space,3.16,,2172.3122,2172.7839,2172.9827,2176.4636,space,3.425,,2176.4636,62,13,2177.4695,2177.4695,2177.4744,,,,0,0,0,0,1,90,15,,,,,,,,
,,6554d5f1a5b42aea269aa82a,65af55b29cebb2ff24f0998e,2024-01-23_07h00.03.652,bars,2023.2.3,Win32,17.98561151,657b66ea316d21385b68909f,,,,,,,,,,,2177.4744,2178.461,,,2178.9191,2179.1264,,52,232,,,,,,,,,,,,,,,,bars/034.png,bars/mask001.png,,,,,,,,,,,,5,2,,,,,,,3,6,4,8,,,,,,,,,,,2178.461,2178.9191,2179.1264,2184.4212,space,5.2299,,2184.4212,73,13,2185.4323,2185.4323,2185.4367,,,,0,1,1,1,1,125,65,,,,,,,,
,,6554d5f1a5b42aea269aa82a,65af55b29cebb2ff24f0998e,2024-01-23_07h00.03.652,bars,2023.2.3,Win32,17.98561151,657b66ea316d21385b68909f,,,,,,,,,,,2185.4369,2186.4147,,,2186.8678,2187.1321,,40,40,,,,,,,,,,,,,,,,bars/013.png,bars/mask002.png,,,,,,,,,,,,0,2,,,,,,,5,8,5,9,,,,,,,,,,,2186.4147,2186.8677,2187.1321,2189.5528,space,2.3636,,2189.5529,35,30,2190.5102,2190.5102,2190.5152,,,,0,2,2,2,1,75,10,,,,,,,,
,,6554d5f1a5b42aea269aa82a,65af55b29cebb2ff24f0998e,2024-01-23_07h00.03.652,bars,2023.2.3,Win32,17.98561151,657b66ea316d21385b68909f,,,,,,,,,,,2190.5152,2191.5204,,,2192.0373,2192.2544,,127,127,,,,,,,,,,,,,,,,bars/049.png,bars/mask009.png,,,,,,,,,,,,3,2,,,,,,,7,6,7,5,,,,,,,,,,,2191.5204,2192.0373,2192.2544,2194.2578,space,1.9386,,2194.2579,33,12,2195.2157,2195.2157,2195.2162,,,,0,3,3,3,1,160,115,,,,,,,,
,,6554d5f1a5b42aea269aa82a,65af55b29cebb2ff24f0998e,2024-01-23_07h00.03.652,bars,2023.2.3,Win32,17.98561151,657b66ea316d21385b68909f,,,,,,,,,,,2195.2162,2196.2152,,,2196.712,2196.9164,,70,250,,,,,,,,,,,,,,,,bars/046.png,bars/mask000.png,,,,,,,,,,,,1,2,,,,,,,9,4,8,2,,,,,,,,,,,2196.2152,2196.712,2196.9164,2202.7045,space,5.7305,,2202.7045,85,15,2203.7114,2203.7115,2203.7159,,,,0,4,4,4,1,155,85,,,,,,,,
,,6554d5f1a5b42aea269aa82a,65af55b29cebb2ff24f0998e,2024-01-23_07h00.03.652,bars,2023.2.3,Win32,17.98561151,657b66ea316d21385b68909f,,,,,,,,,,,2203.7159,2204.7337,,,2205.1992,2205.4621,,176,176,,,,,,,,,,,,,,,,bars/016.png,bars/mask006.png,,,,,,,,,,,,3,2,,,,,,,7,6,8,4,,,,,,,,,,,2204.7337,2205.1992,2205.4622,2209.2281,space,3.7041,,2209.2281,44,11,2210.2037,2210.2037,2210.2084,,,,0,5,5,5,1,40,165,,,,,,,,
,,6554d5f1a5b42aea269aa82a,65af55b29cebb2ff24f0998e,2024-01-23_07h00.03.652,bars,2023.2.3,Win32,17.98561151,657b66ea316d21385b68909f,,,,,,,,,,,2210.2085,2211.1723,,,2211.6325,2211.8339,,53,53,,,,,,,,,,,,,,,,bars/027.png,bars/mask006.png,,,,,,,,,,,,6,2,,,,,,,9,8,9,7,,,,,,,,,,,2211.1724,2211.6324,2211.834,2215.5862,space,3.694,,2215.5862,57,3,2216.5449,2216.5449,2216.5494,,,,0,6,6,6,1,110,50,,,,,,,,
,,6554d5f1a5b42aea269aa82a,65af55b29cebb2ff24f0998e,2024-01-23_07h00.03.652,bars,2023.2.3,Win32,17.98561151,657b66ea316d21385b68909f,,,,,,,,,,,2216.5495,2217.519,,,2218.0296,2218.2882,,137,137,,,,,,,,,,,,,,,,bars/015.png,bars/mask006.png,,,,,,,,,,,,2,2,,,,,,,7,10,7,10,,,,,,,,,,,2217.519,2218.0296,2218.2882,2220.7533,space,2.4036,,2220.7533,27,23,2221.7155,2221.7155,2221.7159,,,,0,7,7,7,1,110,160,,,,,,,,
,,6554d5f1a5b42aea269aa82a,65af55b29cebb2ff24f0998e,2024-01-23_07h00.03.652,bars,2023.2.3,Win32,17.98561151,657b66ea316d21385b68909f,,,,,,,,,,,2221.716,2222.6762,,,2223.1337,2223.392,,89,89,,,,,,,,,,,,,,,,bars/046.png,bars/mask006.png,,,,,,,,,,,,8,2,,,,,,,5,10,4,9,,,,,,,,,,,2222.6762,2223.1337,2223.392,2225.9829,space,2.5332,,2225.9829,66,4,2226.9715,2226.9715,2226.9762,,,,0,8,8,8,1,155,85,,,,,,,,
,,6554d5f1a5b42aea269aa82a,65af55b29cebb2ff24f0998e,2024-01-23_07h00.03.652,bars,2023.2.3,Win32,17.98561151,657b66ea316d21385b68909f,,,,,,,,,,,2226.9764,2227.9797,,,2228.4348,2228.7,,116,116,,,,,,,,,,,,,,,,bars/022.png,bars/mask007.png,,,,,,,,,,,,2,1,,,,,,,7,8,7,8,,,,,,,,,,,2227.9798,2228.4348,2228.7001,2233.6224,space,4.8665,,2233.6224,21,84,2234.5778,2234.5778,2234.5841,,,,0,9,9,9,1,95,20,,,,,,,,
,,6554d5f1a5b42aea269aa82a,65af55b29cebb2ff24f0998e,2024-01-23_07h00.03.652,bars,2023.2.3,Win32,17.98561151,657b66ea316d21385b68909f,,,,,,,,,,,2234.5843,2235.5975,,,2236.0543,2236.3202,,168,168,,,,,,,,,,,,,,,,bars/020.png,bars/mask001.png,,,,,,,,,,,,6,2,,,,,,,9,6,10,6,,,,,,,,,,,2235.5975,2236.0543,2236.3202,2238.449,space,2.071,,2238.449,53,2,2239.4313,2239.4314,2239.4369,,,,0,10,10,10,1,115,170,,,,,,,,
,,6554d5f1a5b42aea269aa82a,65af55b29cebb2ff24f0998e,2024-01-23_07h00.03.652,bars,2023.2.3,Win32,17.98561151,657b66ea316d21385b68909f,,,,,,,,,,,2239.437,2240.4143,,,2240.8822,2241.083,,164,164,,,,,,,,,,,,,,,,bars/043.png,bars/mask001.png,,,,,,,,,,,,0,2,,,,,,,10,8,10,7,,,,,,,,,,,2240.4144,2240.8822,2241.083,2242.6157,space,1.473,,2242.6157,46,34,2243.6172,2243.6173,2243.6219,,,,0,11,11,11,1,30,130,,,,,,,,
