init_variables.started,init_variables.stopped,participant,session,date,expName,psychopyVersion,OS,frameRate,study_id,instruction_exp.started,instruction_exp.stopped,key_resp_8.keys,key_resp_8.rt,key_resp_8.duration,instruction_single.started,instruction_single.stopped,key_resp_2.keys,key_resp_2.rt,key_resp_2.duration,interval.started,interval.stopped,cue_single.started,cue_single.stopped,mask.started,mask.stopped,ori_response_single.started,res_ori,res,ori_response_single.stopped,key_resp_single.keys,key_resp_single.rt,key_resp_single.duration,disp_single.started,disp_single.stopped,key_resp.keys,key_resp.rt,key_resp.duration,single.thisRepN,single.thisTrialN,single.thisN,single.thisIndex,single.ran,ori,path,mask_path,instruction_bandit.started,instruction_bandit.stopped,key_resp_6.keys,key_resp_6.rt,key_resp_6.duration,cue_bandit.started,cue_bandit.stopped,bandit_res.keys,bandit_res.rt,bandit_res.duration,outcome_bandit.started,rew,action,outcome_bandit.stopped,bandit.thisRepN,bandit.thisTrialN,bandit.thisN,bandit.thisIndex,bandit.ran,actual_rew1,actual_rew2,rew1,rew2,instruction_task.started,instruction_task.stopped,key_resp_7.keys,key_resp_7.rt,key_resp_7.duration,wait_ready.started,wait_ready.stopped,key_resp_3.keys,key_resp_3.rt,key_resp_3.duration,cue.started,cue.stopped,ori_response.started,ori_response.stopped,key_resp_5.keys,key_resp_5.rt,key_resp_5.duration,outcome.started,diff1,diff2,outcome.stopped,disp_outcome_practice.started,disp_outcome_practice.stopped,key_resp_4.keys,key_resp_4.rt,key_resp_4.duration,trials.thisRepN,trials.thisTrialN,trials.thisN,trials.thisIndex,trials.ran,ori1,ori2,break_blk.started,break_blk.stopped,block.thisRepN,block.thisTrialN,block.thisN,block.thisIndex,block.ran,condition_file
0.001,0.001,6595989e0806f2bf1d2b4f55,65af5919ba138c82e9dc72b8,2024-01-23_08h14.28.118,bars,2023.2.3,MacIntel,62.5,657b66ea316d21385b68909f,,,,,,,,,,,,,,,,,,,,,,,,,,,,,,,,,,,,,,,,,,,,,,,,,,,,,,,,,,,,,,,,,,,,,,,,,,,,,,,,,,,,,,,,,,,,,,,,,,,,
,,6595989e0806f2bf1d2b4f55,65af5919ba138c82e9dc72b8,2024-01-23_08h14.28.118,bars,2023.2.3,MacIntel,62.5,657b66ea316d21385b68909f,0.001,4.988,y,4.969,,,,,,,,,,,,,,,,,,,,,,,,,,,,,,,,,,,,,,,,,,,,,,,,,,,,,,,,,,,,,,,,,,,,,,,,,,,,,,,,,,,,,,,,,,,,,,,,
,,6595989e0806f2bf1d2b4f55,65af5919ba138c82e9dc72b8,2024-01-23_08h14.28.118,bars,2023.2.3,MacIntel,62.5,657b66ea316d21385b68909f,,,,,,4.989,26.867,space,21.862,,,,,,,,,,,,,,,,,,,,,,,,,,,,,,,,,,,,,,,,,,,,,,,,,,,,,,,,,,,,,,,,,,,,,,,,,,,,,,,,,,,,,,,,,,,
,,6595989e0806f2bf1d2b4f55,65af5919ba138c82e9dc72b8,2024-01-23_08h14.28.118,bars,2023.2.3,MacIntel,62.5,657b66ea316d21385b68909f,,,,,,,,,,,26.87,27.867,27.868,28.367,28.368,28.616,28.617,0,180,39.085,space,10.444,,39.086,44.985,space,5.874,,0,0,0,8,1,160,bars/single008.png,bars/mask004.png,,,,,,,,,,,,,,,,,,,,,,,,,,,,,,,,,,,,,,,,,,,,,,,,,,,,,,,,,,,,,,,,
,,6595989e0806f2bf1d2b4f55,65af5919ba138c82e9dc72b8,2024-01-23_08h14.28.118,bars,2023.2.3,MacIntel,62.5,657b66ea316d21385b68909f,,,,,,,,,,,44.986,45.984,45.984,46.484,46.484,46.734,46.734,0,180,55.067,space,8.318,,55.067,69.601,space,14.522,,0,1,1,4,1,95,bars/single004.png,bars/mask004.png,,,,,,,,,,,,,,,,,,,,,,,,,,,,,,,,,,,,,,,,,,,,,,,,,,,,,,,,,,,,,,,,
,,6595989e0806f2bf1d2b4f55,65af5919ba138c82e9dc72b8,2024-01-23_08h14.28.118,bars,2023.2.3,MacIntel,62.5,657b66ea316d21385b68909f,,,,,,,,,,,69.602,70.601,70.601,71.102,71.102,71.351,71.351,91,91,76.035,space,4.676,,76.035,79.135,space,3.087,,0,2,2,6,1,175,bars/single006.png,bars/mask005.png,,,,,,,,,,,,,,,,,,,,,,,,,,,,,,,,,,,,,,,,,,,,,,,,,,,,,,,,,,,,,,,,
,,6595989e0806f2bf1d2b4f55,65af5919ba138c82e9dc72b8,2024-01-23_08h14.28.118,bars,2023.2.3,MacIntel,62.5,657b66ea316d21385b68909f,,,,,,,,,,,79.136,80.134,80.134,80.635,80.635,80.885,80.885,158,-22,91.085,space,10.188,,91.085,93.552,space,2.446,,0,3,3,3,1,20,bars/single003.png,bars/mask005.png,,,,,,,,,,,,,,,,,,,,,,,,,,,,,,,,,,,,,,,,,,,,,,,,,,,,,,,,,,,,,,,,
,,6595989e0806f2bf1d2b4f55,65af5919ba138c82e9dc72b8,2024-01-23_08h14.28.118,bars,2023.2.3,MacIntel,62.5,657b66ea316d21385b68909f,,,,,,,,,,,93.553,94.551,94.551,95.051,95.051,95.301,95.301,53,53,97.118,space,1.808,,97.118,99.967,space,2.83,,0,4,4,9,1,20,bars/single009.png,bars/mask006.png,,,,,,,,,,,,,,,,,,,,,,,,,,,,,,,,,,,,,,,,,,,,,,,,,,,,,,,,,,,,,,,,
,,6595989e0806f2bf1d2b4f55,65af5919ba138c82e9dc72b8,2024-01-23_08h14.28.118,bars,2023.2.3,MacIntel,62.5,657b66ea316d21385b68909f,,,,,,,,,,,99.968,100.968,100.968,101.468,101.469,101.718,101.718,38,38,104.668,space,2.939,,104.668,132.152,space,27.466,,0,5,5,2,1,145,bars/single002.png,bars/mask003.png,,,,,,,,,,,,,,,,,,,,,,,,,,,,,,,,,,,,,,,,,,,,,,,,,,,,,,,,,,,,,,,,
,,6595989e0806f2bf1d2b4f55,65af5919ba138c82e9dc72b8,2024-01-23_08h14.28.118,bars,2023.2.3,MacIntel,62.5,657b66ea316d21385b68909f,,,,,,,,,,,132.153,133.152,133.153,133.652,133.652,133.903,133.903,44,224,141.97,space,8.055,,141.97,146.919,space,4.931,,0,6,6,1,1,20,bars/single001.png,bars/mask006.png,,,,,,,,,,,,,,,,,,,,,,,,,,,,,,,,,,,,,,,,,,,,,,,,,,,,,,,,,,,,,,,,
,,6595989e0806f2bf1d2b4f55,65af5919ba138c82e9dc72b8,2024-01-23_08h14.28.118,bars,2023.2.3,MacIntel,62.5,657b66ea316d21385b68909f,,,,,,,,,,,146.92,147.918,147.919,148.419,148.419,148.669,148.669,25,25,164.003,space,15.319,,164.003,165.436,space,1.413,,0,7,7,7,1,45,bars/single007.png,bars/mask009.png,,,,,,,,,,,,,,,,,,,,,,,,,,,,,,,,,,,,,,,,,,,,,,,,,,,,,,,,,,,,,,,,
,,6595989e0806f2bf1d2b4f55,65af5919ba138c82e9dc72b8,2024-01-23_08h14.28.118,bars,2023.2.3,MacIntel,62.5,657b66ea316d21385b68909f,,,,,,,,,,,165.437,166.436,166.436,166.936,166.936,167.186,167.186,52,52,172.636,space,5.437,,172.636,175.603,space,2.948,,0,8,8,0,1,150,bars/single000.png,bars/mask006.png,,,,,,,,,,,,,,,,,,,,,,,,,,,,,,,,,,,,,,,,,,,,,,,,,,,,,,,,,,,,,,,,
,,6595989e0806f2bf1d2b4f55,65af5919ba138c82e9dc72b8,2024-01-23_08h14.28.118,bars,2023.2.3,MacIntel,62.5,657b66ea316d21385b68909f,,,,,,,,,,,175.604,176.603,176.603,177.103,177.104,177.354,177.354,48,48,186.52,space,9.156,,186.52,200.421,space,13.881,,0,9,9,5,1,55,bars/single005.png,bars/mask008.png,,,,,,,,,,,,,,,,,,,,,,,,,,,,,,,,,,,,,,,,,,,,,,,,,,,,,,,,,,,,,,,,
,,6595989e0806f2bf1d2b4f55,65af5919ba138c82e9dc72b8,2024-01-23_08h14.28.118,bars,2023.2.3,MacIntel,62.5,657b66ea316d21385b68909f,,,,,,,,,,,,,,,,,,,,,,,,,,,,,,,,,,,,,200.425,214.538,space,14.09,,,,,,,,,,,,,,,,,,,,,,,,,,,,,,,,,,,,,,,,,,,,,,,,,,,,,,,,,,,,
,,6595989e0806f2bf1d2b4f55,65af5919ba138c82e9dc72b8,2024-01-23_08h14.28.118,bars,2023.2.3,MacIntel,62.5,657b66ea316d21385b68909f,,,,,,,,,,,,,,,,,,,,,,,,,,,,,,,,,,,,,,,,,,214.543,218.105,right,3.542,,218.105,2,2,219.105,0,0,0,0,1,9,1,9,2,,,,,,,,,,,,,,,,,,,,,,,,,,,,,,,,,,,,,,,,,
,,6595989e0806f2bf1d2b4f55,65af5919ba138c82e9dc72b8,2024-01-23_08h14.28.118,bars,2023.2.3,MacIntel,62.5,657b66ea316d21385b68909f,,,,,,,,,,,,,,,,,,,,,,,,,,,,,,,,,,,,,,,,,,219.106,220.487,right,1.369,,220.487,1,2,221.487,0,1,1,1,1,10,0,10,1,,,,,,,,,,,,,,,,,,,,,,,,,,,,,,,,,,,,,,,,,
,,6595989e0806f2bf1d2b4f55,65af5919ba138c82e9dc72b8,2024-01-23_08h14.28.118,bars,2023.2.3,MacIntel,62.5,657b66ea316d21385b68909f,,,,,,,,,,,,,,,,,,,,,,,,,,,,,,,,,,,,,,,,,,221.488,222.587,right,1.092,,222.588,2,2,223.587,0,2,2,2,1,10,2,10,2,,,,,,,,,,,,,,,,,,,,,,,,,,,,,,,,,,,,,,,,,
,,6595989e0806f2bf1d2b4f55,65af5919ba138c82e9dc72b8,2024-01-23_08h14.28.118,bars,2023.2.3,MacIntel,62.5,657b66ea316d21385b68909f,,,,,,,,,,,,,,,,,,,,,,,,,,,,,,,,,,,,,,,,,,223.588,224.921,right,1.317,,224.921,3,2,225.921,0,3,3,3,1,8,4,7,3,,,,,,,,,,,,,,,,,,,,,,,,,,,,,,,,,,,,,,,,,
,,6595989e0806f2bf1d2b4f55,65af5919ba138c82e9dc72b8,2024-01-23_08h14.28.118,bars,2023.2.3,MacIntel,62.5,657b66ea316d21385b68909f,,,,,,,,,,,,,,,,,,,,,,,,,,,,,,,,,,,,,,,,,,225.922,226.922,left,0.985,,226.922,5,1,227.921,0,4,4,4,1,6,2,5,1,,,,,,,,,,,,,,,,,,,,,,,,,,,,,,,,,,,,,,,,,
,,6595989e0806f2bf1d2b4f55,65af5919ba138c82e9dc72b8,2024-01-23_08h14.28.118,bars,2023.2.3,MacIntel,62.5,657b66ea316d21385b68909f,,,,,,,,,,,,,,,,,,,,,,,,,,,,,,,,,,,,,,,,,,227.922,228.82,left,0.886,,228.82,4,1,229.82,0,5,5,5,1,4,4,4,4,,,,,,,,,,,,,,,,,,,,,,,,,,,,,,,,,,,,,,,,,
,,6595989e0806f2bf1d2b4f55,65af5919ba138c82e9dc72b8,2024-01-23_08h14.28.118,bars,2023.2.3,MacIntel,62.5,657b66ea316d21385b68909f,,,,,,,,,,,,,,,,,,,,,,,,,,,,,,,,,,,,,,,,,,229.821,230.838,right,1.001,,230.838,2,2,231.838,0,6,6,6,1,2,2,1,2,,,,,,,,,,,,,,,,,,,,,,,,,,,,,,,,,,,,,,,,,
,,6595989e0806f2bf1d2b4f55,65af5919ba138c82e9dc72b8,2024-01-23_08h14.28.118,bars,2023.2.3,MacIntel,62.5,657b66ea316d21385b68909f,,,,,,,,,,,,,,,,,,,,,,,,,,,,,,,,,,,,,,,,,,231.838,232.354,right,0.501,,232.354,1,2,233.354,0,7,7,7,1,0,0,0,1,,,,,,,,,,,,,,,,,,,,,,,,,,,,,,,,,,,,,,,,,
,,6595989e0806f2bf1d2b4f55,65af5919ba138c82e9dc72b8,2024-01-23_08h14.28.118,bars,2023.2.3,MacIntel,62.5,657b66ea316d21385b68909f,,,,,,,,,,,,,,,,,,,,,,,,,,,,,,,,,,,,,,,,,,233.355,233.804,right,0.438,,233.805,0,2,234.804,0,8,8,8,1,0,2,1,0,,,,,,,,,,,,,,,,,,,,,,,,,,,,,,,,,,,,,,,,,
,,6595989e0806f2bf1d2b4f55,65af5919ba138c82e9dc72b8,2024-01-23_08h14.28.118,bars,2023.2.3,MacIntel,62.5,657b66ea316d21385b68909f,,,,,,,,,,,,,,,,,,,,,,,,,,,,,,,,,,,,,,,,,,234.805,235.671,left,0.853,,235.671,2,1,236.671,0,9,9,9,1,2,4,2,3,,,,,,,,,,,,,,,,,,,,,,,,,,,,,,,,,,,,,,,,,
,,6595989e0806f2bf1d2b4f55,65af5919ba138c82e9dc72b8,2024-01-23_08h14.28.118,bars,2023.2.3,MacIntel,62.5,657b66ea316d21385b68909f,,,,,,,,,,,,,,,,,,,,,,,,,,,,,,,,,,,,,,,,,,236.672,237.055,left,0.37,,237.055,0,1,238.054,0,10,10,10,1,0,2,0,3,,,,,,,,,,,,,,,,,,,,,,,,,,,,,,,,,,,,,,,,,
,,6595989e0806f2bf1d2b4f55,65af5919ba138c82e9dc72b8,2024-01-23_08h14.28.118,bars,2023.2.3,MacIntel,62.5,657b66ea316d21385b68909f,,,,,,,,,,,,,,,,,,,,,,,,,,,,,,,,,,,,,,,,,,238.055,238.471,right,0.401,,238.471,3,2,239.471,0,11,11,11,1,0,4,0,3,,,,,,,,,,,,,,,,,,,,,,,,,,,,,,,,,,,,,,,,,
,,6595989e0806f2bf1d2b4f55,65af5919ba138c82e9dc72b8,2024-01-23_08h14.28.118,bars,2023.2.3,MacIntel,62.5,657b66ea316d21385b68909f,,,,,,,,,,,,,,,,,,,,,,,,,,,,,,,,,,,,,,,,,,239.472,239.855,right,0.369,,239.855,6,2,240.854,0,12,12,12,1,2,6,1,6,,,,,,,,,,,,,,,,,,,,,,,,,,,,,,,,,,,,,,,,,
,,6595989e0806f2bf1d2b4f55,65af5919ba138c82e9dc72b8,2024-01-23_08h14.28.118,bars,2023.2.3,MacIntel,62.5,657b66ea316d21385b68909f,,,,,,,,,,,,,,,,,,,,,,,,,,,,,,,,,,,,,,,,,,240.855,241.254,right,0.387,,241.254,3,2,242.254,0,13,13,13,1,0,4,1,3,,,,,,,,,,,,,,,,,,,,,,,,,,,,,,,,,,,,,,,,,
,,6595989e0806f2bf1d2b4f55,65af5919ba138c82e9dc72b8,2024-01-23_08h14.28.118,bars,2023.2.3,MacIntel,62.5,657b66ea316d21385b68909f,,,,,,,,,,,,,,,,,,,,,,,,,,,,,,,,,,,,,,,,,,242.255,242.622,left,0.349,,242.622,2,1,243.621,0,14,14,14,1,2,6,2,7,,,,,,,,,,,,,,,,,,,,,,,,,,,,,,,,,,,,,,,,,
,,6595989e0806f2bf1d2b4f55,65af5919ba138c82e9dc72b8,2024-01-23_08h14.28.118,bars,2023.2.3,MacIntel,62.5,657b66ea316d21385b68909f,,,,,,,,,,,,,,,,,,,,,,,,,,,,,,,,,,,,,,,,,,243.622,245.355,right,1.719,,245.355,9,2,246.355,0,15,15,15,1,4,8,3,9,,,,,,,,,,,,,,,,,,,,,,,,,,,,,,,,,,,,,,,,,
,,6595989e0806f2bf1d2b4f55,65af5919ba138c82e9dc72b8,2024-01-23_08h14.28.118,bars,2023.2.3,MacIntel,62.5,657b66ea316d21385b68909f,,,,,,,,,,,,,,,,,,,,,,,,,,,,,,,,,,,,,,,,,,246.355,246.988,right,0.618,,246.988,7,2,247.988,0,16,16,16,1,6,6,7,7,,,,,,,,,,,,,,,,,,,,,,,,,,,,,,,,,,,,,,,,,
,,6595989e0806f2bf1d2b4f55,65af5919ba138c82e9dc72b8,2024-01-23_08h14.28.118,bars,2023.2.3,MacIntel,62.5,657b66ea316d21385b68909f,,,,,,,,,,,,,,,,,,,,,,,,,,,,,,,,,,,,,,,,,,247.988,248.738,left,0.74,,248.738,9,1,249.738,0,17,17,17,1,8,4,9,5,,,,,,,,,,,,,,,,,,,,,,,,,,,,,,,,,,,,,,,,,
,,6595989e0806f2bf1d2b4f55,65af5919ba138c82e9dc72b8,2024-01-23_08h14.28.118,bars,2023.2.3,MacIntel,62.5,657b66ea316d21385b68909f,,,,,,,,,,,,,,,,,,,,,,,,,,,,,,,,,,,,,,,,,,249.739,250.371,right,0.625,,250.371,1,2,251.371,0,18,18,18,1,6,2,5,1,,,,,,,,,,,,,,,,,,,,,,,,,,,,,,,,,,,,,,,,,
,,6595989e0806f2bf1d2b4f55,65af5919ba138c82e9dc72b8,2024-01-23_08h14.28.118,bars,2023.2.3,MacIntel,62.5,657b66ea316d21385b68909f,,,,,,,,,,,,,,,,,,,,,,,,,,,,,,,,,,,,,,,,,,251.372,251.805,right,0.418,,251.805,0,2,252.804,0,19,19,19,1,8,0,7,0,,,,,,,,,,,,,,,,,,,,,,,,,,,,,,,,,,,,,,,,,
,,6595989e0806f2bf1d2b4f55,65af5919ba138c82e9dc72b8,2024-01-23_08h14.28.118,bars,2023.2.3,MacIntel,62.5,657b66ea316d21385b68909f,,,,,,,,,,,,,,,,,,,,,,,,,,,,,,,,,,,,,,,,,,,,,,,,,,,,,,,,,,,,252.804,264.173,space,11.344,,,,,,,,,,,,,,,,,,,,,,,,,,,,,,,,,,,,,
,,6595989e0806f2bf1d2b4f55,65af5919ba138c82e9dc72b8,2024-01-23_08h14.28.118,bars,2023.2.3,MacIntel,62.5,657b66ea316d21385b68909f,,,,,,,,,,,265.228,266.222,,,266.722,266.971,,7,7,,,,,,,,,,,,,,,,bars/024.png,bars/mask003.png,,,,,,,,,,,,1,2,,,,,,,1,3,2,3,,,,,,264.178,265.222,space,1.031,,266.223,266.722,266.972,272.089,space,5.093,,272.09,67,17,273.089,273.09,284.324,space,11.205,,0,0,0,0,1,120,170,,,,,,,,
,,6595989e0806f2bf1d2b4f55,65af5919ba138c82e9dc72b8,2024-01-23_08h14.28.118,bars,2023.2.3,MacIntel,62.5,657b66ea316d21385b68909f,,,,,,,,,,,284.325,285.322,,,285.822,286.072,,151,-29,,,,,,,,,,,,,,,,bars/047.png,bars/mask000.png,,,,,,,,,,,,0,1,,,,,,,3,5,4,6,,,,,,,,,,,285.322,285.822,286.073,295.839,space,9.76,,295.84,44,81,296.839,296.84,298.889,space,2.025,,0,1,1,1,1,15,70,,,,,,,,
,,6595989e0806f2bf1d2b4f55,65af5919ba138c82e9dc72b8,2024-01-23_08h14.28.118,bars,2023.2.3,MacIntel,62.5,657b66ea316d21385b68909f,,,,,,,,,,,298.889,299.89,,,300.389,300.639,,150,150,,,,,,,,,,,,,,,,bars/046.png,bars/mask000.png,,,,,,,,,,,,2,1,,,,,,,1,3,2,3,,,,,,,,,,,299.89,300.389,300.639,301.972,space,1.321,,301.973,5,65,302.972,302.973,306.739,space,3.747,,0,2,2,2,1,155,85,,,,,,,,
,,6595989e0806f2bf1d2b4f55,65af5919ba138c82e9dc72b8,2024-01-23_08h14.28.118,bars,2023.2.3,MacIntel,62.5,657b66ea316d21385b68909f,,,,,,,,,,,306.74,307.739,,,308.239,308.489,,158,-22,,,,,,,,,,,,,,,,bars/032.png,bars/mask001.png,,,,,,,,,,,,0,1,,,,,,,0,1,1,1,,,,,,,,,,,307.739,308.239,308.489,313.756,space,5.251,,313.756,33,42,314.756,314.756,316.139,space,1.364,,0,3,3,3,1,125,20,,,,,,,,
,,6595989e0806f2bf1d2b4f55,65af5919ba138c82e9dc72b8,2024-01-23_08h14.28.118,bars,2023.2.3,MacIntel,62.5,657b66ea316d21385b68909f,,,,,,,,,,,316.14,317.139,,,317.639,317.889,,138,138,,,,,,,,,,,,,,,,bars/007.png,bars/mask002.png,,,,,,,,,,,,0,1,,,,,,,2,3,1,3,,,,,,,,,,,317.14,317.639,317.89,318.656,space,0.756,,318.656,37,83,319.656,319.656,322.74,space,3.066,,0,4,4,4,1,175,55,,,,,,,,
,,6595989e0806f2bf1d2b4f55,65af5919ba138c82e9dc72b8,2024-01-23_08h14.28.118,bars,2023.2.3,MacIntel,62.5,657b66ea316d21385b68909f,,,,,,,,,,,322.741,323.74,,,324.24,324.489,,162,-18,,,,,,,,,,,,,,,,bars/001.png,bars/mask001.png,,,,,,,,,,,,0,1,,,,,,,4,1,3,1,,,,,,,,,,,323.74,324.239,324.489,330.505,space,6.002,,330.506,32,77,331.506,331.506,333.973,space,2.454,,0,5,5,5,1,130,85,,,,,,,,
,,6595989e0806f2bf1d2b4f55,65af5919ba138c82e9dc72b8,2024-01-23_08h14.28.118,bars,2023.2.3,MacIntel,62.5,657b66ea316d21385b68909f,,,,,,,,,,,333.974,334.973,,,335.473,335.723,,131,131,,,,,,,,,,,,,,,,bars/038.png,bars/mask004.png,,,,,,,,,,,,0,1,,,,,,,6,3,5,2,,,,,,,,,,,334.973,335.473,335.723,343.773,space,8.039,,343.774,34,61,344.773,344.773,351.757,space,6.965,,0,6,6,6,1,165,70,,,,,,,,
,,6595989e0806f2bf1d2b4f55,65af5919ba138c82e9dc72b8,2024-01-23_08h14.28.118,bars,2023.2.3,MacIntel,62.5,657b66ea316d21385b68909f,,,,,,,,,,,351.758,352.757,,,353.257,353.507,,138,138,,,,,,,,,,,,,,,,bars/048.png,bars/mask007.png,,,,,,,,,,,,0,2,,,,,,,4,5,5,4,,,,,,,,,,,352.757,353.257,353.507,356.39,space,2.868,,356.39,88,37,357.39,357.39,359.357,space,1.944,,0,7,7,7,1,50,175,,,,,,,,
,,6595989e0806f2bf1d2b4f55,65af5919ba138c82e9dc72b8,2024-01-23_08h14.28.118,bars,2023.2.3,MacIntel,62.5,657b66ea316d21385b68909f,,,,,,,,,,,359.358,360.357,,,360.857,361.107,,173,173,,,,,,,,,,,,,,,,bars/031.png,bars/mask004.png,,,,,,,,,,,,0,2,,,,,,,6,7,7,8,,,,,,,,,,,360.357,360.857,361.107,366.291,space,5.172,,366.291,53,42,367.29,367.29,369.707,space,2.403,,0,8,8,8,1,120,35,,,,,,,,
,,6595989e0806f2bf1d2b4f55,65af5919ba138c82e9dc72b8,2024-01-23_08h14.28.118,bars,2023.2.3,MacIntel,62.5,657b66ea316d21385b68909f,,,,,,,,,,,369.708,370.707,,,371.207,371.457,,40,40,,,,,,,,,,,,,,,,bars/026.png,bars/mask003.png,,,,,,,,,,,,4,1,,,,,,,4,9,5,8,,,,,,,,,,,370.707,371.207,371.457,382.324,space,10.851,,382.324,5,45,383.324,383.324,386.524,space,3.178,,0,9,9,9,1,35,85,,,,,,,,
,,6595989e0806f2bf1d2b4f55,65af5919ba138c82e9dc72b8,2024-01-23_08h14.28.118,bars,2023.2.3,MacIntel,62.5,657b66ea316d21385b68909f,,,,,,,,,,,386.525,387.524,,,388.024,388.274,,38,38,,,,,,,,,,,,,,,,bars/042.png,bars/mask006.png,,,,,,,,,,,,0,2,,,,,,,6,10,6,10,,,,,,,,,,,387.524,388.024,388.274,400.025,space,11.737,,400.025,73,37,401.025,401.025,412.508,space,11.463,,0,10,10,10,1,145,75,,,,,,,,
,,6595989e0806f2bf1d2b4f55,65af5919ba138c82e9dc72b8,2024-01-23_08h14.28.118,bars,2023.2.3,MacIntel,62.5,657b66ea316d21385b68909f,,,,,,,,,,,412.509,413.508,,,414.008,414.258,,75,75,,,,,,,,,,,,,,,,bars/040.png,bars/mask007.png,,,,,,,,,,,,0,1,,,,,,,8,8,9,9,,,,,,,,,,,413.508,414.008,414.258,423.392,space,9.118,,423.392,65,70,424.391,424.391,429.392,space,4.979,,0,11,11,11,1,140,5,,,,,,,,
,,6595989e0806f2bf1d2b4f55,65af5919ba138c82e9dc72b8,2024-01-23_08h14.28.118,bars,2023.2.3,MacIntel,62.5,657b66ea316d21385b68909f,,,,,,,,,,,429.392,430.392,,,430.891,431.142,,138,138,,,,,,,,,,,,,,,,bars/029.png,bars/mask004.png,,,,,,,,,,,,0,1,,,,,,,6,6,5,8,,,,,,,,,,,430.392,430.891,431.142,435.892,space,4.743,,435.892,48,87,436.892,436.892,440.059,space,3.146,,0,12,12,12,1,90,45,,,,,,,,
,,6595989e0806f2bf1d2b4f55,65af5919ba138c82e9dc72b8,2024-01-23_08h14.28.118,bars,2023.2.3,MacIntel,62.5,657b66ea316d21385b68909f,,,,,,,,,,,440.059,441.058,,,441.559,441.809,,91,91,,,,,,,,,,,,,,,,bars/045.png,bars/mask001.png,,,,,,,,,,,,3,1,,,,,,,4,4,4,5,,,,,,,,,,,441.059,441.559,441.809,450.942,space,9.117,,450.943,9,81,451.942,451.943,457.543,space,5.584,,0,13,13,13,1,100,10,,,,,,,,
,,6595989e0806f2bf1d2b4f55,65af5919ba138c82e9dc72b8,2024-01-23_08h14.28.118,bars,2023.2.3,MacIntel,62.5,657b66ea316d21385b68909f,,,,,,,,,,,457.544,458.543,,,459.043,459.293,,99,99,,,,,,,,,,,,,,,,bars/028.png,bars/mask008.png,,,,,,,,,,,,2,2,,,,,,,6,6,6,7,,,,,,,,,,,458.543,459.043,459.293,468.376,space,9.069,,468.376,54,21,469.376,469.376,475.859,space,6.463,,0,14,14,14,1,45,120,,,,,,,,
,,6595989e0806f2bf1d2b4f55,65af5919ba138c82e9dc72b8,2024-01-23_08h14.28.118,bars,2023.2.3,MacIntel,62.5,657b66ea316d21385b68909f,,,,,,,,,,,475.861,476.858,,,477.359,477.609,,121,121,,,,,,,,,,,,,,,,bars/047.png,bars/mask008.png,,,,,,,,,,,,0,2,,,,,,,8,4,8,3,,,,,,,,,,,476.859,477.359,477.61,486.726,space,9.101,,486.727,74,51,487.726,487.726,493.459,space,5.715,,0,15,15,15,1,15,70,,,,,,,,
,,6595989e0806f2bf1d2b4f55,65af5919ba138c82e9dc72b8,2024-01-23_08h14.28.118,bars,2023.2.3,MacIntel,62.5,657b66ea316d21385b68909f,,,,,,,,,,,493.46,494.46,,,494.96,495.21,,70,70,,,,,,,,,,,,,,,,bars/010.png,bars/mask006.png,,,,,,,,,,,,2,2,,,,,,,10,6,10,4,,,,,,,,,,,494.46,494.96,495.21,499.092,space,3.867,,499.092,85,15,500.093,500.093,504.827,space,4.717,,0,16,16,16,1,165,55,,,,,,,,
,,6595989e0806f2bf1d2b4f55,65af5919ba138c82e9dc72b8,2024-01-23_08h14.28.118,bars,2023.2.3,MacIntel,62.5,657b66ea316d21385b68909f,,,,,,,,,,,504.828,505.827,,,506.327,506.577,,55,55,,,,,,,,,,,,,,,,bars/027.png,bars/mask004.png,,,,,,,,,,,,4,2,,,,,,,10,4,10,5,,,,,,,,,,,505.827,506.327,506.577,516.061,space,9.469,,516.061,55,5,517.06,517.06,520.71,space,3.632,,0,17,17,17,1,110,50,,,,,,,,
,,6595989e0806f2bf1d2b4f55,65af5919ba138c82e9dc72b8,2024-01-23_08h14.28.118,bars,2023.2.3,MacIntel,62.5,657b66ea316d21385b68909f,,,,,,,,,,,520.711,521.71,,,522.21,522.46,,49,229,,,,,,,,,,,,,,,,bars/002.png,bars/mask008.png,,,,,,,,,,,,0,2,,,,,,,10,6,9,8,,,,,,,,,,,521.71,522.209,522.46,530.761,space,8.286,,530.761,81,36,531.76,531.761,535.727,space,3.949,,0,18,18,18,1,130,85,,,,,,,,
,,6595989e0806f2bf1d2b4f55,65af5919ba138c82e9dc72b8,2024-01-23_08h14.28.118,bars,2023.2.3,MacIntel,62.5,657b66ea316d21385b68909f,,,,,,,,,,,535.728,536.727,,,537.227,537.477,,85,85,,,,,,,,,,,,,,,,bars/006.png,bars/mask009.png,,,,,,,,,,,,4,2,,,,,,,10,8,10,8,,,,,,,,,,,536.727,537.227,537.477,546.411,space,8.921,,546.411,50,15,547.411,547.411,551.728,space,4.298,,0,19,19,19,1,35,100,,,,,,,,
,,6595989e0806f2bf1d2b4f55,65af5919ba138c82e9dc72b8,2024-01-23_08h14.28.118,bars,2023.2.3,MacIntel,62.5,657b66ea316d21385b68909f,,,,,,,,,,,551.73,552.728,,,553.227,553.478,,100,100,,,,,,,,,,,,,,,,bars/022.png,bars/mask004.png,,,,,,,,,,,,8,1,,,,,,,10,6,10,6,,,,,,,,,,,552.728,553.227,553.478,560.644,space,7.15,,560.645,5,80,561.644,561.645,566.161,space,4.494,,0,20,20,20,1,95,20,,,,,,,,
,,6595989e0806f2bf1d2b4f55,65af5919ba138c82e9dc72b8,2024-01-23_08h14.28.118,bars,2023.2.3,MacIntel,62.5,657b66ea316d21385b68909f,,,,,,,,,,,566.162,567.162,,,567.662,567.911,,94,94,,,,,,,,,,,,,,,,bars/014.png,bars/mask004.png,,,,,,,,,,,,4,1,,,,,,,8,4,7,7,,,,,,,,,,,567.162,567.661,567.912,578.278,space,10.352,,578.279,14,86,579.278,579.278,584.512,space,5.213,0.002,0,21,21,21,1,80,0,,,,,,,,
,,6595989e0806f2bf1d2b4f55,65af5919ba138c82e9dc72b8,2024-01-23_08h14.28.118,bars,2023.2.3,MacIntel,62.5,657b66ea316d21385b68909f,,,,,,,,,,,584.513,585.512,,,586.012,586.261,,80,80,,,,,,,,,,,,,,,,bars/021.png,bars/mask001.png,,,,,,,,,,,,1,2,,,,,,,10,2,10,2,,,,,,,,,,,585.512,586.012,586.262,596.929,space,10.651,,596.929,75,10,597.928,597.929,601.729,space,3.786,,0,22,22,22,1,155,70,,,,,,,,
,,6595989e0806f2bf1d2b4f55,65af5919ba138c82e9dc72b8,2024-01-23_08h14.28.118,bars,2023.2.3,MacIntel,62.5,657b66ea316d21385b68909f,,,,,,,,,,,601.73,602.728,,,603.229,603.478,,71,71,,,,,,,,,,,,,,,,bars/039.png,bars/mask000.png,,,,,,,,,,,,0,2,,,,,,,10,0,9,0,,,,,,,,,,,602.729,603.229,603.478,615.146,space,11.652,,615.146,76,34,616.145,616.146,625.813,space,9.65,,0,23,23,23,1,175,105,,,,,,,,
,,6595989e0806f2bf1d2b4f55,65af5919ba138c82e9dc72b8,2024-01-23_08h14.28.118,bars,2023.2.3,MacIntel,62.5,657b66ea316d21385b68909f,,,,,,,,,,,625.814,626.812,,,627.312,627.562,,105,105,,,,,,,,,,,,,,,,bars/019.png,bars/mask009.png,,,,,,,,,,,,2,2,,,,,,,8,2,8,2,,,,,,,,,,,626.813,627.312,627.562,638.429,space,10.851,,638.429,60,0,639.429,639.429,648.13,space,8.683,,0,24,24,24,1,45,105,,,,,,,,
,,6595989e0806f2bf1d2b4f55,65af5919ba138c82e9dc72b8,2024-01-23_08h14.28.118,bars,2023.2.3,MacIntel,62.5,657b66ea316d21385b68909f,,,,,,,,,,,648.131,649.129,,,649.63,649.879,,105,105,,,,,,,,,,,,,,,,bars/019.png,bars/mask007.png,,,,,,,,,,,,3,2,,,,,,,10,4,10,3,,,,,,,,,,,649.129,649.629,649.88,656.346,space,6.452,,656.347,60,0,657.346,657.347,659.713,space,2.355,,0,25,25,25,1,45,105,,,,,,,,
,,6595989e0806f2bf1d2b4f55,65af5919ba138c82e9dc72b8,2024-01-23_08h14.28.118,bars,2023.2.3,MacIntel,62.5,657b66ea316d21385b68909f,,,,,,,,,,,659.714,660.712,,,661.213,661.463,,105,105,,,,,,,,,,,,,,,,bars/018.png,bars/mask000.png,,,,,,,,,,,,3,2,,,,,,,8,6,8,6,,,,,,,,,,,660.712,661.213,661.463,666.13,space,4.652,,666.13,45,15,667.129,667.129,674.663,space,7.514,,0,26,26,26,1,150,90,,,,,,,,
,,6595989e0806f2bf1d2b4f55,65af5919ba138c82e9dc72b8,2024-01-23_08h14.28.118,bars,2023.2.3,MacIntel,62.5,657b66ea316d21385b68909f,,,,,,,,,,,674.664,675.662,,,676.163,676.413,,91,91,,,,,,,,,,,,,,,,bars/030.png,bars/mask000.png,,,,,,,,,,,,1,2,,,,,,,6,4,7,4,,,,,,,,,,,675.663,676.163,676.413,683.647,space,7.226,,683.647,49,26,684.647,684.647,688.63,space,3.97,,0,27,27,27,1,140,65,,,,,,,,
,,6595989e0806f2bf1d2b4f55,65af5919ba138c82e9dc72b8,2024-01-23_08h14.28.118,bars,2023.2.3,MacIntel,62.5,657b66ea316d21385b68909f,,,,,,,,,,,688.631,689.63,,,690.13,690.38,,65,65,,,,,,,,,,,,,,,,bars/015.png,bars/mask000.png,,,,,,,,,,,,0,1,,,,,,,8,6,7,7,,,,,,,,,,,689.63,690.13,690.38,696.414,space,6.018,,696.414,45,85,697.413,697.413,706.214,space,8.779,,0,28,28,28,1,110,160,,,,,,,,
,,6595989e0806f2bf1d2b4f55,65af5919ba138c82e9dc72b8,2024-01-23_08h14.28.118,bars,2023.2.3,MacIntel,62.5,657b66ea316d21385b68909f,,,,,,,,,,,706.215,707.213,,,707.714,707.964,,110,110,,,,,,,,,,,,,,,,bars/017.png,bars/mask008.png,,,,,,,,,,,,0,1,,,,,,,10,4,9,5,,,,,,,,,,,707.213,707.714,707.965,719.631,space,11.654,,719.631,35,65,720.631,720.631,725.832,space,5.184,,0,29,29,29,1,145,45,,,,,,,,
,,6595989e0806f2bf1d2b4f55,65af5919ba138c82e9dc72b8,2024-01-23_08h14.28.118,bars,2023.2.3,MacIntel,62.5,657b66ea316d21385b68909f,,,,,,,,,,,725.833,726.831,,,727.331,727.581,,144,-36,,,,,,,,,,,,,,,,bars/005.png,bars/mask001.png,,,,,,,,,,,,0,2,,,,,,,8,2,8,0,,,,,,,,,,,726.831,727.331,727.581,733.615,space,6.019,,733.615,46,4,734.614,734.615,740.298,space,5.665,,0,30,30,30,1,10,140,,,,,,,,
,,6595989e0806f2bf1d2b4f55,65af5919ba138c82e9dc72b8,2024-01-23_08h14.28.118,bars,2023.2.3,MacIntel,62.5,657b66ea316d21385b68909f,,,,,,,,,,,740.3,741.298,,,741.797,742.048,,140,140,,,,,,,,,,,,,,,,bars/034.png,bars/mask004.png,,,,,,,,,,,,5,1,,,,,,,10,4,10,4,,,,,,,,,,,741.298,741.797,742.048,746.748,space,4.689,,746.748,15,75,747.748,747.748,754.015,space,6.245,,0,31,31,31,1,125,65,,,,,,,,
,,6595989e0806f2bf1d2b4f55,65af5919ba138c82e9dc72b8,2024-01-23_08h14.28.118,bars,2023.2.3,MacIntel,62.5,657b66ea316d21385b68909f,,,,,,,,,,,754.015,755.014,,,755.515,755.765,,125,125,,,,,,,,,,,,,,,,bars/003.png,bars/mask002.png,,,,,,,,,,,,1,2,,,,,,,8,2,7,2,,,,,,,,,,,755.014,755.515,755.765,762.498,space,6.715,,762.498,80,15,763.499,763.499,767.599,space,4.084,,0,32,32,32,1,25,140,,,,,,,,
,,6595989e0806f2bf1d2b4f55,65af5919ba138c82e9dc72b8,2024-01-23_08h14.28.118,bars,2023.2.3,MacIntel,62.5,657b66ea316d21385b68909f,,,,,,,,,,,767.599,768.598,,,769.099,769.348,,140,140,,,,,,,,,,,,,,,,bars/030.png,bars/mask005.png,,,,,,,,,,,,10,1,,,,,,,10,0,10,1,,,,,,,,,,,768.599,769.098,769.349,781.016,space,11.651,,781.016,0,75,782.016,782.016,790.016,space,7.977,,0,33,33,33,1,140,65,,,,,,,,
,,6595989e0806f2bf1d2b4f55,65af5919ba138c82e9dc72b8,2024-01-23_08h14.28.118,bars,2023.2.3,MacIntel,62.5,657b66ea316d21385b68909f,,,,,,,,,,,790.017,791.015,,,791.516,791.766,,139,139,,,,,,,,,,,,,,,,bars/016.png,bars/mask002.png,,,,,,,,,,,,0,2,,,,,,,10,0,10,1,,,,,,,,,,,791.016,791.516,791.766,795.632,space,3.858,,795.632,81,26,796.632,796.632,800.2,space,3.548,,0,34,34,34,1,40,165,,,,,,,,
,,6595989e0806f2bf1d2b4f55,65af5919ba138c82e9dc72b8,2024-01-23_08h14.28.118,bars,2023.2.3,MacIntel,62.5,657b66ea316d21385b68909f,,,,,,,,,,,800.2,801.199,,,801.699,801.949,,165,165,,,,,,,,,,,,,,,,bars/001.png,bars/mask000.png,,,,,,,,,,,,0,1,,,,,,,8,2,8,2,,,,,,,,,,,801.199,801.699,801.949,811.949,space,9.984,,811.949,35,80,812.949,812.949,818.832,space,5.868,,0,35,35,35,1,130,85,,,,,,,,
,,6595989e0806f2bf1d2b4f55,65af5919ba138c82e9dc72b8,2024-01-23_08h14.28.118,bars,2023.2.3,MacIntel,62.5,657b66ea316d21385b68909f,,,,,,,,,,,818.833,819.833,,,820.333,820.583,,130,130,,,,,,,,,,,,,,,,bars/005.png,bars/mask002.png,,,,,,,,,,,,1,2,,,,,,,6,0,6,1,,,,,,,,,,,819.833,820.333,820.583,829.517,space,8.917,,829.517,60,10,830.516,830.517,834.733,space,4.201,,0,36,36,36,1,10,140,,,,,,,,
,,6595989e0806f2bf1d2b4f55,65af5919ba138c82e9dc72b8,2024-01-23_08h14.28.118,bars,2023.2.3,MacIntel,62.5,657b66ea316d21385b68909f,,,,,,,,,,,834.734,835.733,,,836.233,836.483,,141,141,,,,,,,,,,,,,,,,bars/036.png,bars/mask007.png,,,,,,,,,,,,8,1,,,,,,,8,2,9,2,,,,,,,,,,,835.733,836.233,836.483,844.95,space,8.451,,844.95,4,59,845.95,845.95,852.701,space,6.729,,0,37,37,37,1,145,20,,,,,,,,
,,6595989e0806f2bf1d2b4f55,65af5919ba138c82e9dc72b8,2024-01-23_08h14.28.118,bars,2023.2.3,MacIntel,62.5,657b66ea316d21385b68909f,,,,,,,,,,,852.702,853.7,,,854.199,854.45,,145,145,,,,,,,,,,,,,,,,bars/044.png,bars/mask005.png,,,,,,,,,,,,4,2,,,,,,,10,4,10,6,,,,,,,,,,,853.7,854.199,854.45,861.867,space,7.406,,861.868,70,10,862.867,862.867,867.551,space,4.663,,0,38,38,38,1,75,155,,,,,,,,
,,6595989e0806f2bf1d2b4f55,65af5919ba138c82e9dc72b8,2024-01-23_08h14.28.118,bars,2023.2.3,MacIntel,62.5,657b66ea316d21385b68909f,,,,,,,,,,,867.552,868.55,,,869.051,869.3,,155,155,,,,,,,,,,,,,,,,bars/012.png,bars/mask002.png,,,,,,,,,,,,0,2,,,,,,,10,6,9,5,,,,,,,,,,,868.551,869.05,869.3,874.9,space,5.586,,874.9,65,40,875.901,875.901,882.45,space,6.534,,0,39,39,39,1,90,15,,,,,,,,
,,6595989e0806f2bf1d2b4f55,65af5919ba138c82e9dc72b8,2024-01-23_08h14.28.118,bars,2023.2.3,MacIntel,62.5,657b66ea316d21385b68909f,,,,,,,,,,,882.451,883.451,,,883.951,884.201,,14,194,,,,,,,,,,,,,,,,bars/018.png,bars/mask005.png,,,,,,,,,,,,0,1,,,,,,,10,4,10,3,,,,,,,,,,,883.451,883.951,884.201,890.267,space,6.056,,890.267,44,76,891.267,891.268,897.884,space,6.593,,0,40,40,40,1,150,90,,,,,,,,
,,6595989e0806f2bf1d2b4f55,65af5919ba138c82e9dc72b8,2024-01-23_08h14.28.118,bars,2023.2.3,MacIntel,62.5,657b66ea316d21385b68909f,,,,,,,,,,,897.885,898.884,,,899.385,899.634,,151,-29,,,,,,,,,,,,,,,,bars/039.png,bars/mask000.png,,,,,,,,,,,,2,1,,,,,,,10,2,10,2,,,,,,,,,,,898.884,899.384,899.634,909.185,space,9.535,,909.185,24,46,910.184,910.185,936.002,space,25.804,,0,41,41,41,1,175,105,,,,,,,,
,,6595989e0806f2bf1d2b4f55,65af5919ba138c82e9dc72b8,2024-01-23_08h14.28.118,bars,2023.2.3,MacIntel,62.5,657b66ea316d21385b68909f,,,,,,,,,,,936.002,937.002,,,937.502,937.752,,176,-4,,,,,,,,,,,,,,,,bars/038.png,bars/mask003.png,,,,,,,,,,,,4,1,,,,,,,8,0,7,0,,,,,,,,,,,937.002,937.502,937.752,943.552,space,5.785,,943.552,11,74,944.552,944.552,949.002,space,4.432,,0,42,42,42,1,165,70,,,,,,,,
,,6595989e0806f2bf1d2b4f55,65af5919ba138c82e9dc72b8,2024-01-23_08h14.28.118,bars,2023.2.3,MacIntel,62.5,657b66ea316d21385b68909f,,,,,,,,,,,949.003,950.002,,,950.502,950.752,,165,-15,,,,,,,,,,,,,,,,bars/037.png,bars/mask005.png,,,,,,,,,,,,3,1,,,,,,,6,0,5,1,,,,,,,,,,,950.002,950.502,950.752,956.419,space,5.653,,956.419,15,60,957.419,957.419,963.169,space,5.732,,0,43,43,43,1,150,105,,,,,,,,
,,6595989e0806f2bf1d2b4f55,65af5919ba138c82e9dc72b8,2024-01-23_08h14.28.118,bars,2023.2.3,MacIntel,62.5,657b66ea316d21385b68909f,,,,,,,,,,,963.17,964.169,,,964.669,964.919,,150,150,,,,,,,,,,,,,,,,bars/043.png,bars/mask008.png,,,,,,,,,,,,0,2,,,,,,,8,0,9,0,,,,,,,,,,,964.169,964.669,964.919,969.569,space,4.642,,969.569,60,20,970.568,970.568,975.719,space,5.128,,0,44,44,44,1,30,130,,,,,,,,
,,6595989e0806f2bf1d2b4f55,65af5919ba138c82e9dc72b8,2024-01-23_08h14.28.118,bars,2023.2.3,MacIntel,62.5,657b66ea316d21385b68909f,,,,,,,,,,,975.72,976.719,,,977.22,977.469,,130,-50,,,,,,,,,,,,,,,,bars/048.png,bars/mask004.png,,,,,,,,,,,,0,2,,,,,,,10,0,10,0,,,,,,,,,,,976.719,977.219,977.469,992.235,space,14.758,,992.236,80,45,993.236,993.237,999.653,space,6.4,,0,45,45,45,1,50,175,,,,,,,,
,,6595989e0806f2bf1d2b4f55,65af5919ba138c82e9dc72b8,2024-01-23_08h14.28.118,bars,2023.2.3,MacIntel,62.5,657b66ea316d21385b68909f,,,,,,,,,,,999.653,1000.653,,,1001.153,1001.403,,174,-6,,,,,,,,,,,,,,,,bars/011.png,bars/mask007.png,,,,,,,,,,,,4,1,,,,,,,8,2,7,3,,,,,,,,,,,1000.653,1001.153,1001.403,1005.553,space,4.137,,1005.554,14,89,1006.553,1006.554,1011.42,space,4.843,,0,46,46,46,1,160,85,,,,,,,,
,,6595989e0806f2bf1d2b4f55,65af5919ba138c82e9dc72b8,2024-01-23_08h14.28.118,bars,2023.2.3,MacIntel,62.5,657b66ea316d21385b68909f,,,,,,,,,,,1011.421,1012.42,,,1012.92,1013.169,,161,-19,,,,,,,,,,,,,,,,bars/041.png,bars/mask002.png,,,,,,,,,,,,0,1,,,,,,,10,0,10,0,,,,,,,,,,,1012.42,1012.92,1013.169,1023.854,space,10.668,,1023.854,39,76,1024.853,1024.854,1029.604,space,4.734,,0,47,47,47,1,20,85,,,,,,,,
,,6595989e0806f2bf1d2b4f55,65af5919ba138c82e9dc72b8,2024-01-23_08h14.28.118,bars,2023.2.3,MacIntel,62.5,657b66ea316d21385b68909f,,,,,,,,,,,1029.605,1030.602,,,1031.104,1031.353,,20,200,,,,,,,,,,,,,,,,bars/001.png,bars/mask000.png,,,,,,,,,,,,0,2,,,,,,,8,2,6,2,,,,,,,,,,,1030.603,1031.103,1031.353,1043.004,space,11.636,,1043.004,70,65,1044.004,1044.004,1049.054,space,5.027,,0,48,48,48,1,130,85,,,,,,,,
,,6595989e0806f2bf1d2b4f55,65af5919ba138c82e9dc72b8,2024-01-23_08h14.28.118,bars,2023.2.3,MacIntel,62.5,657b66ea316d21385b68909f,,,,,,,,,,,1049.055,1050.054,,,1050.554,1050.804,,85,85,,,,,,,,,,,,,,,,bars/046.png,bars/mask004.png,,,,,,,,,,,,4,2,,,,,,,10,4,9,4,,,,,,,,,,,1050.054,1050.554,1050.804,1056.954,space,6.134,,1056.954,70,0,1057.954,1057.954,1060.288,space,2.315,,0,49,49,49,1,155,85,,,,,,,,
,,6595989e0806f2bf1d2b4f55,65af5919ba138c82e9dc72b8,2024-01-23_08h14.28.118,bars,2023.2.3,MacIntel,62.5,657b66ea316d21385b68909f,,,,,,,,,,,,,,,,,,,,,,,,,,,,,,,,,,,,,,,,,,,,,,,,,,,,,,,,,,,,,,,,,,,,,,,,,,,,,,,,,,,,,,,,,,,,,1060.289,1120.289,0,0,0,2,1,sequence_tables/blk036.csv
,,6595989e0806f2bf1d2b4f55,65af5919ba138c82e9dc72b8,2024-01-23_08h14.28.118,bars,2023.2.3,MacIntel,62.5,657b66ea316d21385b68909f,,,,,,,,,,,1123.094,1124.089,,,1124.589,1124.839,,177,177,,,,,,,,,,,,,,,,bars/000.png,bars/mask009.png,,,,,,,,,,,,0,2,,,,,,,5,5,4,5,,,,,,1120.291,1123.088,space,2.789,,1124.089,1124.589,1124.839,1132.822,space,7.967,,1132.823,43,32,1133.821,1133.821,1133.823,,,,0,0,0,0,1,40,145,,,,,,,,
,,6595989e0806f2bf1d2b4f55,65af5919ba138c82e9dc72b8,2024-01-23_08h14.28.118,bars,2023.2.3,MacIntel,62.5,657b66ea316d21385b68909f,,,,,,,,,,,1133.824,1134.822,,,1135.322,1135.572,,1,181,,,,,,,,,,,,,,,,bars/043.png,bars/mask007.png,,,,,,,,,,,,0,1,,,,,,,3,3,2,2,,,,,,,,,,,1134.822,1135.322,1135.572,1144.923,space,9.335,,1144.923,29,51,1145.922,1145.922,1145.927,,,,0,1,1,1,1,30,130,,,,,,,,
,,6595989e0806f2bf1d2b4f55,65af5919ba138c82e9dc72b8,2024-01-23_08h14.28.118,bars,2023.2.3,MacIntel,62.5,657b66ea316d21385b68909f,,,,,,,,,,,1145.927,1146.922,,,1147.423,1147.672,,48,48,,,,,,,,,,,,,,,,bars/003.png,bars/mask008.png,,,,,,,,,,,,1,1,,,,,,,5,1,6,1,,,,,,,,,,,1146.922,1147.422,1147.672,1149.039,space,1.352,,1149.039,23,88,1150.039,1150.039,1150.041,,,,0,2,2,2,1,25,140,,,,,,,,
,,6595989e0806f2bf1d2b4f55,65af5919ba138c82e9dc72b8,2024-01-23_08h14.28.118,bars,2023.2.3,MacIntel,62.5,657b66ea316d21385b68909f,,,,,,,,,,,1150.041,1151.039,,,1151.539,1151.789,,7,7,,,,,,,,,,,,,,,,bars/023.png,bars/mask004.png,,,,,,,,,,,,3,1,,,,,,,3,3,5,4,,,,,,,,,,,1151.039,1151.539,1151.789,1152.606,space,0.804,,1152.606,13,72,1153.605,1153.606,1153.609,,,,0,3,3,3,1,20,115,,,,,,,,
,,6595989e0806f2bf1d2b4f55,65af5919ba138c82e9dc72b8,2024-01-23_08h14.28.118,bars,2023.2.3,MacIntel,62.5,657b66ea316d21385b68909f,,,,,,,,,,,1153.61,1154.606,,,1155.106,1155.356,,110,110,,,,,,,,,,,,,,,,bars/040.png,bars/mask008.png,,,,,,,,,,,,0,1,,,,,,,1,5,1,5,,,,,,,,,,,1154.606,1155.106,1155.356,1156.039,space,0.667,,1156.04,30,75,1157.039,1157.04,1157.042,,,,0,4,4,4,1,140,5,,,,,,,,
,,6595989e0806f2bf1d2b4f55,65af5919ba138c82e9dc72b8,2024-01-23_08h14.28.118,bars,2023.2.3,MacIntel,62.5,657b66ea316d21385b68909f,,,,,,,,,,,1157.043,1158.039,,,1158.539,1158.789,,162,162,,,,,,,,,,,,,,,,bars/007.png,bars/mask001.png,,,,,,,,,,,,0,1,,,,,,,0,3,0,2,,,,,,,,,,,1158.039,1158.539,1158.789,1159.689,space,0.891,,1159.689,13,73,1160.689,1160.689,1160.691,,,,0,5,5,5,1,175,55,,,,,,,,
,,6595989e0806f2bf1d2b4f55,65af5919ba138c82e9dc72b8,2024-01-23_08h14.28.118,bars,2023.2.3,MacIntel,62.5,657b66ea316d21385b68909f,,,,,,,,,,,1160.692,1161.689,,,1162.189,1162.439,,127,127,,,,,,,,,,,,,,,,bars/013.png,bars/mask003.png,,,,,,,,,,,,0,1,,,,,,,2,1,3,1,,,,,,,,,,,1161.689,1162.189,1162.439,1163.206,space,0.752,,1163.206,52,63,1164.206,1164.206,1164.208,,,,0,6,6,6,1,75,10,,,,,,,,
,,6595989e0806f2bf1d2b4f55,65af5919ba138c82e9dc72b8,2024-01-23_08h14.28.118,bars,2023.2.3,MacIntel,62.5,657b66ea316d21385b68909f,,,,,,,,,,,1164.209,1165.206,,,1165.706,1165.956,,77,77,,,,,,,,,,,,,,,,bars/008.png,bars/mask001.png,,,,,,,,,,,,0,1,,,,,,,4,3,5,3,,,,,,,,,,,1165.206,1165.706,1165.956,1166.406,space,0.435,,1166.406,33,77,1167.405,1167.405,1167.407,,,,0,7,7,7,1,110,0,,,,,,,,
,,6595989e0806f2bf1d2b4f55,65af5919ba138c82e9dc72b8,2024-01-23_08h14.28.118,bars,2023.2.3,MacIntel,62.5,657b66ea316d21385b68909f,,,,,,,,,,,1167.407,1168.406,,,1168.906,1169.156,,144,144,,,,,,,,,,,,,,,,bars/012.png,bars/mask003.png,,,,,,,,,,,,0,2,,,,,,,2,5,1,6,,,,,,,,,,,1168.406,1168.906,1169.156,1169.639,space,0.469,,1169.64,54,51,1170.639,1170.639,1170.644,,,,0,8,8,8,1,90,15,,,,,,,,
,,6595989e0806f2bf1d2b4f55,65af5919ba138c82e9dc72b8,2024-01-23_08h14.28.118,bars,2023.2.3,MacIntel,62.5,657b66ea316d21385b68909f,,,,,,,,,,,1170.645,1171.64,,,1172.14,1172.39,,100,100,,,,,,,,,,,,,,,,bars/001.png,bars/mask008.png,,,,,,,,,,,,2,2,,,,,,,4,3,4,4,,,,,,,,,,,1171.64,1172.139,1172.39,1174.956,space,2.551,,1174.956,30,15,1175.956,1175.956,1175.958,,,,0,9,9,9,1,130,85,,,,,,,,
,,6595989e0806f2bf1d2b4f55,65af5919ba138c82e9dc72b8,2024-01-23_08h14.28.118,bars,2023.2.3,MacIntel,62.5,657b66ea316d21385b68909f,,,,,,,,,,,1175.958,1176.956,,,1177.456,1177.706,,34,34,,,,,,,,,,,,,,,,bars/039.png,bars/mask000.png,,,,,,,,,,,,0,1,,,,,,,2,5,3,5,,,,,,,,,,,1176.956,1177.456,1177.706,1179.99,space,2.269,,1179.99,39,71,1180.991,1180.991,1180.995,,,,0,10,10,10,1,175,105,,,,,,,,
,,6595989e0806f2bf1d2b4f55,65af5919ba138c82e9dc72b8,2024-01-23_08h14.28.118,bars,2023.2.3,MacIntel,62.5,657b66ea316d21385b68909f,,,,,,,,,,,1180.995,1181.99,,,1182.49,1182.74,,160,160,,,,,,,,,,,,,,,,bars/025.png,bars/mask002.png,,,,,,,,,,,,0,1,,,,,,,0,7,0,6,,,,,,,,,,,1181.99,1182.49,1182.74,1184.456,space,1.702,,1184.456,55,60,1185.456,1185.456,1185.458,,,,0,11,11,11,1,105,40,,,,,,,,
,,6595989e0806f2bf1d2b4f55,65af5919ba138c82e9dc72b8,2024-01-23_08h14.28.118,bars,2023.2.3,MacIntel,62.5,657b66ea316d21385b68909f,,,,,,,,,,,1185.458,1186.456,,,1186.956,1187.206,,1,181,,,,,,,,,,,,,,,,bars/035.png,bars/mask008.png,,,,,,,,,,,,0,1,,,,,,,0,9,0,8,,,,,,,,,,,1186.456,1186.956,1187.206,1189.59,space,2.369,,1189.591,6,59,1190.589,1190.59,1190.593,,,,0,12,12,12,1,175,60,,,,,,,,
,,6595989e0806f2bf1d2b4f55,65af5919ba138c82e9dc72b8,2024-01-23_08h14.28.118,bars,2023.2.3,MacIntel,62.5,657b66ea316d21385b68909f,,,,,,,,,,,1190.593,1191.59,,,1192.09,1192.34,,12,12,,,,,,,,,,,,,,,,bars/019.png,bars/mask000.png,,,,,,,,,,,,0,1,,,,,,,2,7,3,7,,,,,,,,,,,1191.59,1192.09,1192.34,1193.357,space,1.004,,1193.357,33,87,1194.357,1194.357,1194.359,,,,0,13,13,13,1,45,105,,,,,,,,
,,6595989e0806f2bf1d2b4f55,65af5919ba138c82e9dc72b8,2024-01-23_08h14.28.118,bars,2023.2.3,MacIntel,62.5,657b66ea316d21385b68909f,,,,,,,,,,,1194.36,1195.357,,,1195.857,1196.107,,28,28,,,,,,,,,,,,,,,,bars/035.png,bars/mask006.png,,,,,,,,,,,,0,2,,,,,,,0,9,0,10,,,,,,,,,,,1195.357,1195.857,1196.107,1197.373,space,1.252,,1197.373,33,32,1198.373,1198.373,1198.379,,,,0,14,14,14,1,175,60,,,,,,,,
,,6595989e0806f2bf1d2b4f55,65af5919ba138c82e9dc72b8,2024-01-23_08h14.28.118,bars,2023.2.3,MacIntel,62.5,657b66ea316d21385b68909f,,,,,,,,,,,1198.379,1199.373,,,1199.874,1200.123,,164,164,,,,,,,,,,,,,,,,bars/026.png,bars/mask008.png,,,,,,,,,,,,0,1,,,,,,,0,7,1,7,,,,,,,,,,,1199.373,1199.874,1200.123,1203.023,space,2.884,,1203.023,51,79,1204.023,1204.023,1204.029,,,,0,15,15,15,1,35,85,,,,,,,,
,,6595989e0806f2bf1d2b4f55,65af5919ba138c82e9dc72b8,2024-01-23_08h14.28.118,bars,2023.2.3,MacIntel,62.5,657b66ea316d21385b68909f,,,,,,,,,,,1204.029,1205.023,,,1205.524,1205.773,,46,46,,,,,,,,,,,,,,,,bars/035.png,bars/mask006.png,,,,,,,,,,,,3,2,,,,,,,0,9,2,6,,,,,,,,,,,1205.023,1205.524,1205.773,1209.157,space,3.367,,1209.157,51,14,1210.157,1210.157,1210.161,,,,0,16,16,16,1,175,60,,,,,,,,
,,6595989e0806f2bf1d2b4f55,65af5919ba138c82e9dc72b8,2024-01-23_08h14.28.118,bars,2023.2.3,MacIntel,62.5,657b66ea316d21385b68909f,,,,,,,,,,,1210.162,1211.156,,,1211.657,1211.907,,131,131,,,,,,,,,,,,,,,,bars/024.png,bars/mask006.png,,,,,,,,,,,,1,1,,,,,,,2,7,2,7,,,,,,,,,,,1211.156,1211.657,1211.907,1214.973,space,3.057,,1214.974,11,39,1215.974,1215.974,1215.978,,,,0,17,17,17,1,120,170,,,,,,,,
,,6595989e0806f2bf1d2b4f55,65af5919ba138c82e9dc72b8,2024-01-23_08h14.28.118,bars,2023.2.3,MacIntel,62.5,657b66ea316d21385b68909f,,,,,,,,,,,1215.978,1216.973,,,1217.473,1217.724,,164,164,,,,,,,,,,,,,,,,bars/026.png,bars/mask004.png,,,,,,,,,,,,0,1,,,,,,,0,5,0,4,,,,,,,,,,,1216.973,1217.473,1217.724,1221.357,space,3.618,,1221.357,51,79,1222.357,1222.357,1222.359,,,,0,18,18,18,1,35,85,,,,,,,,
,,6595989e0806f2bf1d2b4f55,65af5919ba138c82e9dc72b8,2024-01-23_08h14.28.118,bars,2023.2.3,MacIntel,62.5,657b66ea316d21385b68909f,,,,,,,,,,,1222.359,1223.357,,,1223.857,1224.107,,39,39,,,,,,,,,,,,,,,,bars/047.png,bars/mask002.png,,,,,,,,,,,,0,1,,,,,,,2,7,1,8,,,,,,,,,,,1223.357,1223.857,1224.107,1227.191,space,3.068,,1227.191,24,31,1228.191,1228.191,1228.193,,,,0,19,19,19,1,15,70,,,,,,,,
,,6595989e0806f2bf1d2b4f55,65af5919ba138c82e9dc72b8,2024-01-23_08h14.28.118,bars,2023.2.3,MacIntel,62.5,657b66ea316d21385b68909f,,,,,,,,,,,1228.193,1229.191,,,1229.691,1229.941,,76,76,,,,,,,,,,,,,,,,bars/038.png,bars/mask004.png,,,,,,,,,,,,4,2,,,,,,,0,5,0,5,,,,,,,,,,,1229.191,1229.691,1229.941,1233.857,space,3.905,,1233.857,89,6,1234.857,1234.857,1234.862,,,,0,20,20,20,1,165,70,,,,,,,,
,,6595989e0806f2bf1d2b4f55,65af5919ba138c82e9dc72b8,2024-01-23_08h14.28.118,bars,2023.2.3,MacIntel,62.5,657b66ea316d21385b68909f,,,,,,,,,,,1234.863,1235.857,,,1236.357,1236.607,,90,90,,,,,,,,,,,,,,,,bars/002.png,bars/mask009.png,,,,,,,,,,,,3,2,,,,,,,2,3,2,4,,,,,,,,,,,1235.857,1236.357,1236.608,1244.324,space,7.7,,1244.324,40,5,1245.324,1245.324,1245.326,,,,0,21,21,21,1,130,85,,,,,,,,
,,6595989e0806f2bf1d2b4f55,65af5919ba138c82e9dc72b8,2024-01-23_08h14.28.118,bars,2023.2.3,MacIntel,62.5,657b66ea316d21385b68909f,,,,,,,,,,,1245.327,1246.324,,,1246.824,1247.074,,42,42,,,,,,,,,,,,,,,,bars/026.png,bars/mask009.png,,,,,,,,,,,,2,1,,,,,,,4,5,3,4,,,,,,,,,,,1246.324,1246.824,1247.074,1249.657,space,2.57,,1249.657,7,43,1250.657,1250.657,1250.661,,,,0,22,22,22,1,35,85,,,,,,,,
,,6595989e0806f2bf1d2b4f55,65af5919ba138c82e9dc72b8,2024-01-23_08h14.28.118,bars,2023.2.3,MacIntel,62.5,657b66ea316d21385b68909f,,,,,,,,,,,1250.661,1251.657,,,1252.158,1252.408,,68,68,,,,,,,,,,,,,,,,bars/024.png,bars/mask001.png,,,,,,,,,,,,0,1,,,,,,,6,3,5,2,,,,,,,,,,,1251.658,1252.158,1252.408,1259.158,space,6.734,,1259.158,52,78,1260.158,1260.158,1260.159,,,,0,23,23,23,1,120,170,,,,,,,,
,,6595989e0806f2bf1d2b4f55,65af5919ba138c82e9dc72b8,2024-01-23_08h14.28.118,bars,2023.2.3,MacIntel,62.5,657b66ea316d21385b68909f,,,,,,,,,,,1260.159,1261.158,,,1261.657,1261.908,,38,38,,,,,,,,,,,,,,,,bars/037.png,bars/mask009.png,,,,,,,,,,,,0,2,,,,,,,4,1,4,3,,,,,,,,,,,1261.158,1261.657,1261.908,1265.224,space,3.304,,1265.224,68,67,1266.224,1266.225,1266.229,,,,0,24,24,24,1,150,105,,,,,,,,
,,6595989e0806f2bf1d2b4f55,65af5919ba138c82e9dc72b8,2024-01-23_08h14.28.118,bars,2023.2.3,MacIntel,62.5,657b66ea316d21385b68909f,,,,,,,,,,,1266.229,1267.224,,,1267.725,1267.974,,0,180,,,,,,,,,,,,,,,,bars/036.png,bars/mask000.png,,,,,,,,,,,,0,2,,,,,,,2,0,1,0,,,,,,,,,,,1267.225,1267.724,1267.975,1272.225,space,4.236,,1272.225,35,20,1273.225,1273.225,1273.226,,,,0,25,25,25,1,145,20,,,,,,,,
,,6595989e0806f2bf1d2b4f55,65af5919ba138c82e9dc72b8,2024-01-23_08h14.28.118,bars,2023.2.3,MacIntel,62.5,657b66ea316d21385b68909f,,,,,,,,,,,1273.227,1274.225,,,1274.725,1274.974,,129,-51,,,,,,,,,,,,,,,,bars/028.png,bars/mask004.png,,,,,,,,,,,,1,2,,,,,,,0,0,1,1,,,,,,,,,,,1274.225,1274.725,1274.974,1280.974,space,5.984,,1280.974,84,9,1281.974,1281.974,1281.976,,,,0,26,26,26,1,45,120,,,,,,,,
,,6595989e0806f2bf1d2b4f55,65af5919ba138c82e9dc72b8,2024-01-23_08h14.28.118,bars,2023.2.3,MacIntel,62.5,657b66ea316d21385b68909f,,,,,,,,,,,1281.976,1282.975,,,1283.475,1283.724,,165,165,,,,,,,,,,,,,,,,bars/028.png,bars/mask009.png,,,,,,,,,,,,0,2,,,,,,,0,0,1,0,,,,,,,,,,,1282.975,1283.475,1283.724,1285.125,space,1.388,,1285.125,60,45,1286.125,1286.125,1286.126,,,,0,27,27,27,1,45,120,,,,,,,,
,,6595989e0806f2bf1d2b4f55,65af5919ba138c82e9dc72b8,2024-01-23_08h14.28.118,bars,2023.2.3,MacIntel,62.5,657b66ea316d21385b68909f,,,,,,,,,,,1286.126,1287.125,,,1287.625,1287.875,,106,106,,,,,,,,,,,,,,,,bars/016.png,bars/mask001.png,,,,,,,,,,,,0,2,,,,,,,0,0,0,0,,,,,,,,,,,1287.125,1287.625,1287.875,1288.874,space,0.989,,1288.874,66,59,1289.875,1289.875,1289.876,,,,0,28,28,28,1,40,165,,,,,,,,
,,6595989e0806f2bf1d2b4f55,65af5919ba138c82e9dc72b8,2024-01-23_08h14.28.118,bars,2023.2.3,MacIntel,62.5,657b66ea316d21385b68909f,,,,,,,,,,,1289.877,1290.875,,,1291.375,1291.625,,118,-62,,,,,,,,,,,,,,,,bars/032.png,bars/mask001.png,,,,,,,,,,,,0,1,,,,,,,0,2,0,2,,,,,,,,,,,1290.875,1291.375,1291.625,1303.358,space,11.718,,1303.358,7,82,1304.358,1304.359,1304.362,,,,0,29,29,29,1,125,20,,,,,,,,
,,6595989e0806f2bf1d2b4f55,65af5919ba138c82e9dc72b8,2024-01-23_08h14.28.118,bars,2023.2.3,MacIntel,62.5,657b66ea316d21385b68909f,,,,,,,,,,,1304.363,1305.358,,,1305.859,1306.109,,140,140,,,,,,,,,,,,,,,,bars/043.png,bars/mask005.png,,,,,,,,,,,,2,2,,,,,,,2,4,3,3,,,,,,,,,,,1305.359,1305.859,1306.109,1306.709,space,0.585,,1306.709,70,10,1307.709,1307.709,1307.713,,,,0,30,30,30,1,30,130,,,,,,,,
,,6595989e0806f2bf1d2b4f55,65af5919ba138c82e9dc72b8,2024-01-23_08h14.28.118,bars,2023.2.3,MacIntel,62.5,657b66ea316d21385b68909f,,,,,,,,,,,1307.713,1308.708,,,1309.209,1309.459,,99,99,,,,,,,,,,,,,,,,bars/012.png,bars/mask002.png,,,,,,,,,,,,3,1,,,,,,,4,2,4,2,,,,,,,,,,,1308.708,1309.209,1309.459,1310.325,space,0.853,,1310.325,9,84,1311.325,1311.325,1311.329,,,,0,31,31,31,1,90,15,,,,,,,,
,,6595989e0806f2bf1d2b4f55,65af5919ba138c82e9dc72b8,2024-01-23_08h14.28.118,bars,2023.2.3,MacIntel,62.5,657b66ea316d21385b68909f,,,,,,,,,,,1311.33,1312.325,,,1312.825,1313.075,,113,113,,,,,,,,,,,,,,,,bars/031.png,bars/mask001.png,,,,,,,,,,,,5,1,,,,,,,6,4,6,4,,,,,,,,,,,1312.325,1312.825,1313.075,1313.759,space,0.669,,1313.759,7,78,1314.759,1314.759,1314.76,,,,0,32,32,32,1,120,35,,,,,,,,
,,6595989e0806f2bf1d2b4f55,65af5919ba138c82e9dc72b8,2024-01-23_08h14.28.118,bars,2023.2.3,MacIntel,62.5,657b66ea316d21385b68909f,,,,,,,,,,,1314.761,1315.758,,,1316.259,1316.508,,147,147,,,,,,,,,,,,,,,,bars/002.png,bars/mask004.png,,,,,,,,,,,,3,1,,,,,,,8,6,7,5,,,,,,,,,,,1315.759,1316.259,1316.508,1317.159,space,0.635,,1317.159,17,62,1318.159,1318.159,1318.16,,,,0,33,33,33,1,130,85,,,,,,,,
,,6595989e0806f2bf1d2b4f55,65af5919ba138c82e9dc72b8,2024-01-23_08h14.28.118,bars,2023.2.3,MacIntel,62.5,657b66ea316d21385b68909f,,,,,,,,,,,1318.161,1319.159,,,1319.659,1319.909,,35,35,,,,,,,,,,,,,,,,bars/029.png,bars/mask002.png,,,,,,,,,,,,3,2,,,,,,,6,4,6,5,,,,,,,,,,,1319.159,1319.659,1319.909,1320.492,space,0.575,,1320.492,55,10,1321.492,1321.492,1321.495,,,,0,34,34,34,1,90,45,,,,,,,,
,,6595989e0806f2bf1d2b4f55,65af5919ba138c82e9dc72b8,2024-01-23_08h14.28.118,bars,2023.2.3,MacIntel,62.5,657b66ea316d21385b68909f,,,,,,,,,,,1321.496,1322.492,,,1322.992,1323.242,,42,42,,,,,,,,,,,,,,,,bars/007.png,bars/mask006.png,,,,,,,,,,,,2,2,,,,,,,8,2,7,3,,,,,,,,,,,1322.492,1322.992,1323.242,1323.992,space,0.734,,1323.992,47,13,1324.992,1324.992,1324.994,,,,0,35,35,35,1,175,55,,,,,,,,
,,6595989e0806f2bf1d2b4f55,65af5919ba138c82e9dc72b8,2024-01-23_08h14.28.118,bars,2023.2.3,MacIntel,62.5,657b66ea316d21385b68909f,,,,,,,,,,,1324.994,1325.992,,,1326.492,1326.742,,29,29,,,,,,,,,,,,,,,,bars/005.png,bars/mask007.png,,,,,,,,,,,,3,1,,,,,,,6,0,7,0,,,,,,,,,,,1325.992,1326.492,1326.742,1327.292,space,0.543,,1327.292,19,69,1328.292,1328.292,1328.296,,,,0,36,36,36,1,10,140,,,,,,,,
,,6595989e0806f2bf1d2b4f55,65af5919ba138c82e9dc72b8,2024-01-23_08h14.28.118,bars,2023.2.3,MacIntel,62.5,657b66ea316d21385b68909f,,,,,,,,,,,1328.296,1329.292,,,1329.792,1330.042,,39,39,,,,,,,,,,,,,,,,bars/029.png,bars/mask009.png,,,,,,,,,,,,1,2,,,,,,,4,2,3,1,,,,,,,,,,,1329.292,1329.792,1330.042,1330.958,space,0.902,,1330.959,51,6,1331.959,1331.959,1331.963,,,,0,37,37,37,1,90,45,,,,,,,,
,,6595989e0806f2bf1d2b4f55,65af5919ba138c82e9dc72b8,2024-01-23_08h14.28.118,bars,2023.2.3,MacIntel,62.5,657b66ea316d21385b68909f,,,,,,,,,,,1331.963,1332.959,,,1333.459,1333.709,,164,164,,,,,,,,,,,,,,,,bars/024.png,bars/mask008.png,,,,,,,,,,,,3,2,,,,,,,2,4,1,4,,,,,,,,,,,1332.959,1333.459,1333.709,1334.376,space,0.653,,1334.376,44,6,1335.376,1335.376,1335.377,,,,0,38,38,38,1,120,170,,,,,,,,
,,6595989e0806f2bf1d2b4f55,65af5919ba138c82e9dc72b8,2024-01-23_08h14.28.118,bars,2023.2.3,MacIntel,62.5,657b66ea316d21385b68909f,,,,,,,,,,,1335.378,1336.376,,,1336.876,1337.126,,23,23,,,,,,,,,,,,,,,,bars/020.png,bars/mask003.png,,,,,,,,,,,,0,2,,,,,,,4,6,4,6,,,,,,,,,,,1336.376,1336.876,1337.126,1337.642,space,0.507,,1337.643,88,33,1338.643,1338.643,1338.646,,,,0,39,39,39,1,115,170,,,,,,,,
,,6595989e0806f2bf1d2b4f55,65af5919ba138c82e9dc72b8,2024-01-23_08h14.28.118,bars,2023.2.3,MacIntel,62.5,657b66ea316d21385b68909f,,,,,,,,,,,1338.647,1339.643,,,1340.143,1340.392,,146,146,,,,,,,,,,,,,,,,bars/043.png,bars/mask003.png,,,,,,,,,,,,1,2,,,,,,,2,4,2,2,,,,,,,,,,,1339.643,1340.143,1340.393,1340.826,space,0.419,,1340.826,64,16,1341.826,1341.826,1341.828,,,,0,40,40,40,1,30,130,,,,,,,,
,,6595989e0806f2bf1d2b4f55,65af5919ba138c82e9dc72b8,2024-01-23_08h14.28.118,bars,2023.2.3,MacIntel,62.5,657b66ea316d21385b68909f,,,,,,,,,,,1341.829,1342.826,,,1343.326,1343.575,,162,162,,,,,,,,,,,,,,,,bars/016.png,bars/mask003.png,,,,,,,,,,,,2,2,,,,,,,4,2,7,2,,,,,,,,,,,1342.826,1343.326,1343.575,1343.976,space,0.393,,1343.976,58,3,1344.976,1344.976,1344.978,,,,0,41,41,41,1,40,165,,,,,,,,
,,6595989e0806f2bf1d2b4f55,65af5919ba138c82e9dc72b8,2024-01-23_08h14.28.118,bars,2023.2.3,MacIntel,62.5,657b66ea316d21385b68909f,,,,,,,,,,,1344.978,1345.976,,,1346.476,1346.726,,17,17,,,,,,,,,,,,,,,,bars/028.png,bars/mask000.png,,,,,,,,,,,,0,1,,,,,,,6,4,7,5,,,,,,,,,,,1345.976,1346.476,1346.726,1347.093,space,0.352,,1347.093,28,77,1348.093,1348.093,1348.097,,,,0,42,42,42,1,45,120,,,,,,,,
,,6595989e0806f2bf1d2b4f55,65af5919ba138c82e9dc72b8,2024-01-23_08h14.28.118,bars,2023.2.3,MacIntel,62.5,657b66ea316d21385b68909f,,,,,,,,,,,1348.097,1349.093,,,1349.592,1349.843,,120,120,,,,,,,,,,,,,,,,bars/022.png,bars/mask008.png,,,,,,,,,,,,1,1,,,,,,,4,2,4,3,,,,,,,,,,,1349.093,1349.592,1349.843,1350.243,space,0.385,,1350.243,25,80,1351.243,1351.243,1351.244,,,,0,43,43,43,1,95,20,,,,,,,,
,,6595989e0806f2bf1d2b4f55,65af5919ba138c82e9dc72b8,2024-01-23_08h14.28.118,bars,2023.2.3,MacIntel,62.5,657b66ea316d21385b68909f,,,,,,,,,,,1351.245,1352.242,,,1352.743,1352.993,,75,75,,,,,,,,,,,,,,,,bars/023.png,bars/mask003.png,,,,,,,,,,,,0,2,,,,,,,6,0,5,1,,,,,,,,,,,1352.242,1352.743,1352.993,1353.459,space,0.45,,1353.46,55,40,1354.459,1354.459,1354.464,,,,0,44,44,44,1,20,115,,,,,,,,
,,6595989e0806f2bf1d2b4f55,65af5919ba138c82e9dc72b8,2024-01-23_08h14.28.118,bars,2023.2.3,MacIntel,62.5,657b66ea316d21385b68909f,,,,,,,,,,,1354.464,1355.46,,,1355.96,1356.21,,65,65,,,,,,,,,,,,,,,,bars/037.png,bars/mask000.png,,,,,,,,,,,,0,2,,,,,,,4,0,3,0,,,,,,,,,,,1355.46,1355.959,1356.21,1356.56,space,0.335,,1356.56,85,40,1357.56,1357.56,1357.561,,,,0,45,45,45,1,150,105,,,,,,,,
,,6595989e0806f2bf1d2b4f55,65af5919ba138c82e9dc72b8,2024-01-23_08h14.28.118,bars,2023.2.3,MacIntel,62.5,657b66ea316d21385b68909f,,,,,,,,,,,1357.561,1358.559,,,1359.06,1359.31,,131,131,,,,,,,,,,,,,,,,bars/005.png,bars/mask003.png,,,,,,,,,,,,1,2,,,,,,,6,2,6,1,,,,,,,,,,,1358.56,1359.06,1359.31,1359.36,space,0.035,,1359.36,59,9,1360.36,1360.36,1360.362,,,,0,46,46,46,1,10,140,,,,,,,,
,,6595989e0806f2bf1d2b4f55,65af5919ba138c82e9dc72b8,2024-01-23_08h14.28.118,bars,2023.2.3,MacIntel,62.5,657b66ea316d21385b68909f,,,,,,,,,,,1360.362,1361.36,,,1361.859,1362.11,,84,84,,,,,,,,,,,,,,,,bars/004.png,bars/mask006.png,,,,,,,,,,,,0,2,,,,,,,4,4,3,5,,,,,,,,,,,1361.36,1361.859,1362.11,1362.56,space,0.433,,1362.56,59,41,1363.56,1363.56,1363.562,,,,0,47,47,47,1,25,125,,,,,,,,
,,6595989e0806f2bf1d2b4f55,65af5919ba138c82e9dc72b8,2024-01-23_08h14.28.118,bars,2023.2.3,MacIntel,62.5,657b66ea316d21385b68909f,,,,,,,,,,,1363.562,1364.56,,,1365.06,1365.31,,102,102,,,,,,,,,,,,,,,,bars/022.png,bars/mask009.png,,,,,,,,,,,,2,1,,,,,,,2,2,2,3,,,,,,,,,,,1364.56,1365.06,1365.31,1366.443,space,1.117,,1366.443,7,82,1367.443,1367.443,1367.447,,,,0,48,48,48,1,95,20,,,,,,,,
,,6595989e0806f2bf1d2b4f55,65af5919ba138c82e9dc72b8,2024-01-23_08h14.28.118,bars,2023.2.3,MacIntel,62.5,657b66ea316d21385b68909f,,,,,,,,,,,1367.447,1368.443,,,1368.942,1369.193,,40,40,,,,,,,,,,,,,,,,bars/019.png,bars/mask007.png,,,,,,,,,,,,0,1,,,,,,,0,0,0,0,,,,,,,,,,,1368.443,1368.942,1369.193,1369.776,space,0.568,,1369.776,5,65,1370.776,1370.776,1370.778,,,,0,49,49,49,1,45,105,,,,,,,,
,,6595989e0806f2bf1d2b4f55,65af5919ba138c82e9dc72b8,2024-01-23_08h14.28.118,bars,2023.2.3,MacIntel,62.5,657b66ea316d21385b68909f,,,,,,,,,,,,,,,,,,,,,,,,,,,,,,,,,,,,,,,,,,,,,,,,,,,,,,,,,,,,,,,,,,,,,,,,,,,,,,,,,,,,,,,,,,,,,1370.778,1430.777,0,1,1,3,1,sequence_tables/blk014.csv
,,6595989e0806f2bf1d2b4f55,65af5919ba138c82e9dc72b8,2024-01-23_08h14.28.118,bars,2023.2.3,MacIntel,62.5,657b66ea316d21385b68909f,,,,,,,,,,,1437.534,1438.528,,,1439.028,1439.277,,48,48,,,,,,,,,,,,,,,,bars/048.png,bars/mask008.png,,,,,,,,,,,,5,1,,,,,,,5,9,5,7,,,,,,1430.778,1437.528,space,6.733,,1438.528,1439.028,1439.277,1440.461,space,1.167,,1440.461,2,53,1441.461,1441.461,1441.463,,,,0,0,0,0,1,50,175,,,,,,,,
,,6595989e0806f2bf1d2b4f55,65af5919ba138c82e9dc72b8,2024-01-23_08h14.28.118,bars,2023.2.3,MacIntel,62.5,657b66ea316d21385b68909f,,,,,,,,,,,1441.463,1442.461,,,1442.961,1443.211,,66,66,,,,,,,,,,,,,,,,bars/035.png,bars/mask003.png,,,,,,,,,,,,4,2,,,,,,,7,7,10,5,,,,,,,,,,,1442.462,1442.961,1443.211,1443.711,space,0.485,,1443.711,71,6,1444.711,1444.711,1444.715,,,,0,1,1,1,1,175,60,,,,,,,,
,,6595989e0806f2bf1d2b4f55,65af5919ba138c82e9dc72b8,2024-01-23_08h14.28.118,bars,2023.2.3,MacIntel,62.5,657b66ea316d21385b68909f,,,,,,,,,,,1444.715,1445.711,,,1446.21,1446.461,,128,128,,,,,,,,,,,,,,,,bars/018.png,bars/mask001.png,,,,,,,,,,,,2,1,,,,,,,5,5,6,3,,,,,,,,,,,1445.711,1446.21,1446.461,1446.945,space,0.468,,1446.945,22,38,1447.945,1447.945,1447.948,,,,0,2,2,2,1,150,90,,,,,,,,
,,6595989e0806f2bf1d2b4f55,65af5919ba138c82e9dc72b8,2024-01-23_08h14.28.118,bars,2023.2.3,MacIntel,62.5,657b66ea316d21385b68909f,,,,,,,,,,,1447.949,1448.945,,,1449.444,1449.695,,117,117,,,,,,,,,,,,,,,,bars/031.png,bars/mask008.png,,,,,,,,,,,,5,1,,,,,,,7,3,6,6,,,,,,,,,,,1448.945,1449.444,1449.695,1450.461,space,0.755,,1450.461,3,82,1451.461,1451.461,1451.463,,,,0,3,3,3,1,120,35,,,,,,,,
,,6595989e0806f2bf1d2b4f55,65af5919ba138c82e9dc72b8,2024-01-23_08h14.28.118,bars,2023.2.3,MacIntel,62.5,657b66ea316d21385b68909f,,,,,,,,,,,1451.463,1452.461,,,1452.961,1453.211,,5,5,,,,,,,,,,,,,,,,bars/040.png,bars/mask007.png,,,,,,,,,,,,6,2,,,,,,,9,5,9,6,,,,,,,,,,,1452.461,1452.961,1453.211,1453.845,space,0.619,,1453.845,45,0,1454.845,1454.845,1454.848,,,,0,4,4,4,1,140,5,,,,,,,,
,,6595989e0806f2bf1d2b4f55,65af5919ba138c82e9dc72b8,2024-01-23_08h14.28.118,bars,2023.2.3,MacIntel,62.5,657b66ea316d21385b68909f,,,,,,,,,,,1454.848,1455.844,,,1456.345,1456.595,,129,129,,,,,,,,,,,,,,,,bars/005.png,bars/mask005.png,,,,,,,,,,,,4,2,,,,,,,10,7,9,6,,,,,,,,,,,1455.845,1456.345,1456.595,1457.078,space,0.469,,1457.078,61,11,1458.078,1458.078,1458.08,,,,0,5,5,5,1,10,140,,,,,,,,
,,6595989e0806f2bf1d2b4f55,65af5919ba138c82e9dc72b8,2024-01-23_08h14.28.118,bars,2023.2.3,MacIntel,62.5,657b66ea316d21385b68909f,,,,,,,,,,,1458.08,1459.078,,,1459.578,1459.828,,150,150,,,,,,,,,,,,,,,,bars/019.png,bars/mask004.png,,,,,,,,,,,,0,2,,,,,,,8,5,7,4,,,,,,,,,,,1459.078,1459.578,1459.828,1460.578,space,0.734,,1460.578,75,45,1461.578,1461.578,1461.58,,,,0,6,6,6,1,45,105,,,,,,,,
,,6595989e0806f2bf1d2b4f55,65af5919ba138c82e9dc72b8,2024-01-23_08h14.28.118,bars,2023.2.3,MacIntel,62.5,657b66ea316d21385b68909f,,,,,,,,,,,1461.58,1462.578,,,1463.079,1463.328,,177,177,,,,,,,,,,,,,,,,bars/040.png,bars/mask007.png,,,,,,,,,,,,6,2,,,,,,,6,7,6,8,,,,,,,,,,,1462.578,1463.078,1463.328,1464.195,space,0.858,,1464.195,37,8,1465.195,1465.195,1465.197,,,,0,7,7,7,1,140,5,,,,,,,,
,,6595989e0806f2bf1d2b4f55,65af5919ba138c82e9dc72b8,2024-01-23_08h14.28.118,bars,2023.2.3,MacIntel,62.5,657b66ea316d21385b68909f,,,,,,,,,,,1465.197,1466.195,,,1466.695,1466.945,,26,26,,,,,,,,,,,,,,,,bars/007.png,bars/mask009.png,,,,,,,,,,,,0,2,,,,,,,8,5,9,6,,,,,,,,,,,1466.195,1466.695,1466.945,1467.828,space,0.867,,1467.828,31,29,1468.828,1468.828,1468.83,,,,0,8,8,8,1,175,55,,,,,,,,
,,6595989e0806f2bf1d2b4f55,65af5919ba138c82e9dc72b8,2024-01-23_08h14.28.118,bars,2023.2.3,MacIntel,62.5,657b66ea316d21385b68909f,,,,,,,,,,,1468.83,1469.828,,,1470.328,1470.578,,85,85,,,,,,,,,,,,,,,,bars/035.png,bars/mask002.png,,,,,,,,,,,,1,2,,,,,,,10,7,10,8,,,,,,,,,,,1469.828,1470.328,1470.578,1471.362,space,0.769,,1471.362,90,25,1472.362,1472.362,1472.363,,,,0,9,9,9,1,175,60,,,,,,,,
,,6595989e0806f2bf1d2b4f55,65af5919ba138c82e9dc72b8,2024-01-23_08h14.28.118,bars,2023.2.3,MacIntel,62.5,657b66ea316d21385b68909f,,,,,,,,,,,1472.364,1473.362,,,1473.862,1474.112,,84,84,,,,,,,,,,,,,,,,bars/016.png,bars/mask000.png,,,,,,,,,,,,0,1,,,,,,,8,9,8,9,,,,,,,,,,,1473.362,1473.862,1474.112,1475.712,space,1.585,,1475.712,44,81,1476.712,1476.712,1476.718,,,,0,10,10,10,1,40,165,,,,,,,,
,,6595989e0806f2bf1d2b4f55,65af5919ba138c82e9dc72b8,2024-01-23_08h14.28.118,bars,2023.2.3,MacIntel,62.5,657b66ea316d21385b68909f,,,,,,,,,,,1476.719,1477.712,,,1478.212,1478.462,,113,113,,,,,,,,,,,,,,,,bars/038.png,bars/mask008.png,,,,,,,,,,,,0,2,,,,,,,6,10,5,10,,,,,,,,,,,1477.712,1478.212,1478.462,1482.595,space,4.118,,1482.595,52,43,1483.595,1483.595,1483.6,,,,0,11,11,11,1,165,70,,,,,,,,
,,6595989e0806f2bf1d2b4f55,65af5919ba138c82e9dc72b8,2024-01-23_08h14.28.118,bars,2023.2.3,MacIntel,62.5,657b66ea316d21385b68909f,,,,,,,,,,,1483.601,1484.595,,,1485.095,1485.345,,81,81,,,,,,,,,,,,,,,,bars/040.png,bars/mask004.png,,,,,,,,,,,,0,1,,,,,,,8,10,10,8,,,,,,,,,,,1484.595,1485.095,1485.345,1486.612,space,1.251,,1486.612,59,76,1487.612,1487.612,1487.616,,,,0,12,12,12,1,140,5,,,,,,,,
,,6595989e0806f2bf1d2b4f55,65af5919ba138c82e9dc72b8,2024-01-23_08h14.28.118,bars,2023.2.3,MacIntel,62.5,657b66ea316d21385b68909f,,,,,,,,,,,1487.616,1488.612,,,1489.112,1489.362,,0,0,,,,,,,,,,,,,,,,bars/046.png,bars/mask008.png,,,,,,,,,,,,2,1,,,,,,,10,10,10,8,,,,,,,,,,,1488.612,1489.112,1489.362,1489.512,space,0.134,,1489.512,25,85,1490.511,1490.512,1490.514,,,,0,13,13,13,1,155,85,,,,,,,,
,,6595989e0806f2bf1d2b4f55,65af5919ba138c82e9dc72b8,2024-01-23_08h14.28.118,bars,2023.2.3,MacIntel,62.5,657b66ea316d21385b68909f,,,,,,,,,,,1490.514,1491.512,,,1492.011,1492.262,,5,5,,,,,,,,,,,,,,,,bars/041.png,bars/mask000.png,,,,,,,,,,,,4,1,,,,,,,8,8,7,8,,,,,,,,,,,1491.512,1492.011,1492.262,1493.379,space,1.104,,1493.379,15,80,1494.379,1494.379,1494.38,,,,0,14,14,14,1,20,85,,,,,,,,
,,6595989e0806f2bf1d2b4f55,65af5919ba138c82e9dc72b8,2024-01-23_08h14.28.118,bars,2023.2.3,MacIntel,62.5,657b66ea316d21385b68909f,,,,,,,,,,,1494.38,1495.379,,,1495.879,1496.129,,109,109,,,,,,,,,,,,,,,,bars/000.png,bars/mask009.png,,,,,,,,,,,,0,2,,,,,,,6,6,7,6,,,,,,,,,,,1495.379,1495.879,1496.129,1497.545,space,1.402,,1497.545,69,36,1498.545,1498.545,1498.549,,,,0,15,15,15,1,40,145,,,,,,,,
,,6595989e0806f2bf1d2b4f55,65af5919ba138c82e9dc72b8,2024-01-23_08h14.28.118,bars,2023.2.3,MacIntel,62.5,657b66ea316d21385b68909f,,,,,,,,,,,1498.55,1499.545,,,1500.045,1500.296,,19,19,,,,,,,,,,,,,,,,bars/034.png,bars/mask007.png,,,,,,,,,,,,0,2,,,,,,,8,4,7,2,,,,,,,,,,,1499.545,1500.045,1500.296,1501.262,space,0.956,,1501.262,74,46,1502.262,1502.262,1502.264,,,,0,16,16,16,1,125,65,,,,,,,,
,,6595989e0806f2bf1d2b4f55,65af5919ba138c82e9dc72b8,2024-01-23_08h14.28.118,bars,2023.2.3,MacIntel,62.5,657b66ea316d21385b68909f,,,,,,,,,,,1502.264,1503.262,,,1503.762,1504.012,,159,159,,,,,,,,,,,,,,,,bars/007.png,bars/mask004.png,,,,,,,,,,,,4,1,,,,,,,10,2,9,2,,,,,,,,,,,1503.262,1503.762,1504.012,1504.279,space,0.258,,1504.279,16,76,1505.279,1505.279,1505.283,,,,0,17,17,17,1,175,55,,,,,,,,
,,6595989e0806f2bf1d2b4f55,65af5919ba138c82e9dc72b8,2024-01-23_08h14.28.118,bars,2023.2.3,MacIntel,62.5,657b66ea316d21385b68909f,,,,,,,,,,,1505.283,1506.279,,,1506.779,1507.029,,1,1,,,,,,,,,,,,,,,,bars/035.png,bars/mask009.png,,,,,,,,,,,,5,1,,,,,,,8,0,6,0,,,,,,,,,,,1506.279,1506.779,1507.029,1508.529,space,1.488,,1508.529,6,59,1509.529,1509.529,1509.53,,,,0,18,18,18,1,175,60,,,,,,,,
,,6595989e0806f2bf1d2b4f55,65af5919ba138c82e9dc72b8,2024-01-23_08h14.28.118,bars,2023.2.3,MacIntel,62.5,657b66ea316d21385b68909f,,,,,,,,,,,1509.53,1510.529,,,1511.029,1511.279,,98,98,,,,,,,,,,,,,,,,bars/006.png,bars/mask005.png,,,,,,,,,,,,2,2,,,,,,,10,0,10,2,,,,,,,,,,,1510.529,1511.029,1511.279,1513.179,space,1.887,,1513.179,63,2,1514.179,1514.179,1514.182,,,,0,19,19,19,1,35,100,,,,,,,,
,,6595989e0806f2bf1d2b4f55,65af5919ba138c82e9dc72b8,2024-01-23_08h14.28.118,bars,2023.2.3,MacIntel,62.5,657b66ea316d21385b68909f,,,,,,,,,,,1514.183,1515.179,,,1515.679,1515.929,,71,71,,,,,,,,,,,,,,,,bars/048.png,bars/mask001.png,,,,,,,,,,,,3,1,,,,,,,10,0,10,0,,,,,,,,,,,1515.179,1515.679,1515.929,1518.578,space,2.634,,1518.578,21,76,1519.579,1519.579,1519.583,,,,0,20,20,20,1,50,175,,,,,,,,
,,6595989e0806f2bf1d2b4f55,65af5919ba138c82e9dc72b8,2024-01-23_08h14.28.118,bars,2023.2.3,MacIntel,62.5,657b66ea316d21385b68909f,,,,,,,,,,,1519.583,1520.579,,,1521.079,1521.329,,144,144,,,,,,,,,,,,,,,,bars/006.png,bars/mask003.png,,,,,,,,,,,,0,2,,,,,,,8,0,5,0,,,,,,,,,,,1520.579,1521.079,1521.329,1523.379,space,2.042,,1523.379,71,44,1524.379,1524.379,1524.382,,,,0,21,21,21,1,35,100,,,,,,,,
,,6595989e0806f2bf1d2b4f55,65af5919ba138c82e9dc72b8,2024-01-23_08h14.28.118,bars,2023.2.3,MacIntel,62.5,657b66ea316d21385b68909f,,,,,,,,,,,1524.383,1525.379,,,1525.879,1526.129,,7,7,,,,,,,,,,,,,,,,bars/034.png,bars/mask001.png,,,,,,,,,,,,0,2,,,,,,,10,0,9,0,,,,,,,,,,,1525.379,1525.879,1526.129,1526.363,space,0.228,,1526.363,62,58,1527.362,1527.362,1527.363,,,,0,22,22,22,1,125,65,,,,,,,,
,,6595989e0806f2bf1d2b4f55,65af5919ba138c82e9dc72b8,2024-01-23_08h14.28.118,bars,2023.2.3,MacIntel,62.5,657b66ea316d21385b68909f,,,,,,,,,,,1527.364,1528.363,,,1528.863,1529.113,,98,98,,,,,,,,,,,,,,,,bars/030.png,bars/mask007.png,,,,,,,,,,,,0,2,,,,,,,10,2,9,1,,,,,,,,,,,1528.363,1528.862,1529.113,1529.896,space,0.768,,1529.896,42,33,1530.896,1530.896,1530.898,,,,0,23,23,23,1,140,65,,,,,,,,
,,6595989e0806f2bf1d2b4f55,65af5919ba138c82e9dc72b8,2024-01-23_08h14.28.118,bars,2023.2.3,MacIntel,62.5,657b66ea316d21385b68909f,,,,,,,,,,,1530.898,1531.896,,,1532.396,1532.646,,77,77,,,,,,,,,,,,,,,,bars/001.png,bars/mask001.png,,,,,,,,,,,,0,2,,,,,,,8,0,8,0,,,,,,,,,,,1531.896,1532.396,1532.646,1534.079,space,1.418,,1534.079,53,8,1535.079,1535.079,1535.081,,,,0,24,24,24,1,130,85,,,,,,,,
,,6595989e0806f2bf1d2b4f55,65af5919ba138c82e9dc72b8,2024-01-23_08h14.28.118,bars,2023.2.3,MacIntel,62.5,657b66ea316d21385b68909f,,,,,,,,,,,1535.081,1536.079,,,1536.579,1536.829,,138,138,,,,,,,,,,,,,,,,bars/034.png,bars/mask009.png,,,,,,,,,,,,2,1,,,,,,,6,0,4,0,,,,,,,,,,,1536.08,1536.579,1536.829,1537.979,space,1.136,,1537.979,13,73,1538.978,1538.979,1538.982,,,,0,25,25,25,1,125,65,,,,,,,,
,,6595989e0806f2bf1d2b4f55,65af5919ba138c82e9dc72b8,2024-01-23_08h14.28.118,bars,2023.2.3,MacIntel,62.5,657b66ea316d21385b68909f,,,,,,,,,,,1538.982,1539.979,,,1540.48,1540.729,,155,155,,,,,,,,,,,,,,,,bars/004.png,bars/mask003.png,,,,,,,,,,,,0,2,,,,,,,4,2,3,1,,,,,,,,,,,1539.979,1540.48,1540.73,1543.413,space,2.669,,1543.413,50,30,1544.413,1544.413,1544.417,,,,0,26,26,26,1,25,125,,,,,,,,
,,6595989e0806f2bf1d2b4f55,65af5919ba138c82e9dc72b8,2024-01-23_08h14.28.118,bars,2023.2.3,MacIntel,62.5,657b66ea316d21385b68909f,,,,,,,,,,,1544.417,1545.413,,,1545.913,1546.163,,26,26,,,,,,,,,,,,,,,,bars/039.png,bars/mask006.png,,,,,,,,,,,,0,1,,,,,,,2,0,2,0,,,,,,,,,,,1545.413,1545.913,1546.163,1546.596,space,0.418,,1546.596,31,79,1547.596,1547.596,1547.6,,,,0,27,27,27,1,175,105,,,,,,,,
,,6595989e0806f2bf1d2b4f55,65af5919ba138c82e9dc72b8,2024-01-23_08h14.28.118,bars,2023.2.3,MacIntel,62.5,657b66ea316d21385b68909f,,,,,,,,,,,1547.6,1548.596,,,1549.096,1549.346,,114,114,,,,,,,,,,,,,,,,bars/023.png,bars/mask000.png,,,,,,,,,,,,1,2,,,,,,,0,2,1,1,,,,,,,,,,,1548.596,1549.096,1549.346,1550.763,space,1.401,,1550.763,86,1,1551.764,1551.764,1551.767,,,,0,28,28,28,1,20,115,,,,,,,,
,,6595989e0806f2bf1d2b4f55,65af5919ba138c82e9dc72b8,2024-01-23_08h14.28.118,bars,2023.2.3,MacIntel,62.5,657b66ea316d21385b68909f,,,,,,,,,,,1551.767,1552.763,,,1553.263,1553.513,,96,96,,,,,,,,,,,,,,,,bars/004.png,bars/mask008.png,,,,,,,,,,,,0,2,,,,,,,2,0,3,0,,,,,,,,,,,1552.763,1553.263,1553.513,1553.946,space,0.417,,1553.946,71,29,1554.946,1554.946,1554.948,,,,0,29,29,29,1,25,125,,,,,,,,
,,6595989e0806f2bf1d2b4f55,65af5919ba138c82e9dc72b8,2024-01-23_08h14.28.118,bars,2023.2.3,MacIntel,62.5,657b66ea316d21385b68909f,,,,,,,,,,,1554.948,1555.946,,,1556.447,1556.696,,64,64,,,,,,,,,,,,,,,,bars/045.png,bars/mask008.png,,,,,,,,,,,,0,1,,,,,,,4,2,3,1,,,,,,,,,,,1555.946,1556.447,1556.696,1557.63,space,0.918,,1557.63,36,54,1558.63,1558.63,1558.633,,,,0,30,30,30,1,100,10,,,,,,,,
,,6595989e0806f2bf1d2b4f55,65af5919ba138c82e9dc72b8,2024-01-23_08h14.28.118,bars,2023.2.3,MacIntel,62.5,657b66ea316d21385b68909f,,,,,,,,,,,1558.634,1559.63,,,1560.13,1560.38,,91,91,,,,,,,,,,,,,,,,bars/045.png,bars/mask004.png,,,,,,,,,,,,3,1,,,,,,,2,4,4,5,,,,,,,,,,,1559.63,1560.13,1560.38,1560.913,space,0.517,,1560.913,9,81,1561.913,1561.913,1561.914,,,,0,31,31,31,1,100,10,,,,,,,,
,,6595989e0806f2bf1d2b4f55,65af5919ba138c82e9dc72b8,2024-01-23_08h14.28.118,bars,2023.2.3,MacIntel,62.5,657b66ea316d21385b68909f,,,,,,,,,,,1561.914,1562.913,,,1563.413,1563.663,,170,170,,,,,,,,,,,,,,,,bars/025.png,bars/mask008.png,,,,,,,,,,,,0,2,,,,,,,0,6,1,5,,,,,,,,,,,1562.913,1563.413,1563.663,1564.896,space,1.226,,1564.896,65,50,1565.896,1565.896,1565.9,,,,0,32,32,32,1,105,40,,,,,,,,
,,6595989e0806f2bf1d2b4f55,65af5919ba138c82e9dc72b8,2024-01-23_08h14.28.118,bars,2023.2.3,MacIntel,62.5,657b66ea316d21385b68909f,,,,,,,,,,,1565.9,1566.896,,,1567.397,1567.647,,12,12,,,,,,,,,,,,,,,,bars/037.png,bars/mask000.png,,,,,,,,,,,,0,1,,,,,,,0,8,0,8,,,,,,,,,,,1566.896,1567.397,1567.647,1569.397,space,1.735,,1569.397,42,87,1570.397,1570.397,1570.4,,,,0,33,33,33,1,150,105,,,,,,,,
,,6595989e0806f2bf1d2b4f55,65af5919ba138c82e9dc72b8,2024-01-23_08h14.28.118,bars,2023.2.3,MacIntel,62.5,657b66ea316d21385b68909f,,,,,,,,,,,1570.401,1571.397,,,1571.897,1572.147,,129,129,,,,,,,,,,,,,,,,bars/040.png,bars/mask006.png,,,,,,,,,,,,0,1,,,,,,,0,6,0,6,,,,,,,,,,,1571.397,1571.897,1572.147,1572.63,space,0.472,,1572.63,11,56,1573.63,1573.63,1573.632,,,,0,34,34,34,1,140,5,,,,,,,,
,,6595989e0806f2bf1d2b4f55,65af5919ba138c82e9dc72b8,2024-01-23_08h14.28.118,bars,2023.2.3,MacIntel,62.5,657b66ea316d21385b68909f,,,,,,,,,,,1573.632,1574.63,,,1575.13,1575.38,,149,149,,,,,,,,,,,,,,,,bars/025.png,bars/mask007.png,,,,,,,,,,,,0,1,,,,,,,0,8,0,7,,,,,,,,,,,1574.63,1575.13,1575.38,1575.947,space,0.552,,1575.947,44,71,1576.947,1576.947,1576.948,,,,0,35,35,35,1,105,40,,,,,,,,
,,6595989e0806f2bf1d2b4f55,65af5919ba138c82e9dc72b8,2024-01-23_08h14.28.118,bars,2023.2.3,MacIntel,62.5,657b66ea316d21385b68909f,,,,,,,,,,,1576.949,1577.947,,,1578.447,1578.697,,7,7,,,,,,,,,,,,,,,,bars/029.png,bars/mask000.png,,,,,,,,,,,,0,2,,,,,,,2,6,2,6,,,,,,,,,,,1577.947,1578.447,1578.697,1579.28,space,0.568,,1579.28,83,38,1580.28,1580.28,1580.283,,,,0,36,36,36,1,90,45,,,,,,,,
,,6595989e0806f2bf1d2b4f55,65af5919ba138c82e9dc72b8,2024-01-23_08h14.28.118,bars,2023.2.3,MacIntel,62.5,657b66ea316d21385b68909f,,,,,,,,,,,1580.284,1581.28,,,1581.78,1582.03,,123,123,,,,,,,,,,,,,,,,bars/029.png,bars/mask007.png,,,,,,,,,,,,0,1,,,,,,,0,8,1,7,,,,,,,,,,,1581.28,1581.78,1582.03,1584.047,space,2.001,,1584.047,33,78,1585.047,1585.047,1585.05,,,,0,37,37,37,1,90,45,,,,,,,,
,,6595989e0806f2bf1d2b4f55,65af5919ba138c82e9dc72b8,2024-01-23_08h14.28.118,bars,2023.2.3,MacIntel,62.5,657b66ea316d21385b68909f,,,,,,,,,,,1585.051,1586.047,,,1586.547,1586.797,,42,42,,,,,,,,,,,,,,,,bars/005.png,bars/mask001.png,,,,,,,,,,,,0,1,,,,,,,2,10,5,9,,,,,,,,,,,1586.047,1586.547,1586.797,1589.747,space,2.936,,1589.747,32,82,1590.747,1590.747,1590.749,,,,0,38,38,38,1,10,140,,,,,,,,
,,6595989e0806f2bf1d2b4f55,65af5919ba138c82e9dc72b8,2024-01-23_08h14.28.118,bars,2023.2.3,MacIntel,62.5,657b66ea316d21385b68909f,,,,,,,,,,,1590.749,1591.747,,,1592.247,1592.497,,114,114,,,,,,,,,,,,,,,,bars/016.png,bars/mask001.png,,,,,,,,,,,,0,2,,,,,,,0,10,0,10,,,,,,,,,,,1591.747,1592.247,1592.497,1596.914,space,4.401,,1596.914,74,51,1597.914,1597.914,1597.917,,,,0,39,39,39,1,40,165,,,,,,,,
,,6595989e0806f2bf1d2b4f55,65af5919ba138c82e9dc72b8,2024-01-23_08h14.28.118,bars,2023.2.3,MacIntel,62.5,657b66ea316d21385b68909f,,,,,,,,,,,1597.917,1598.914,,,1599.414,1599.664,,113,113,,,,,,,,,,,,,,,,bars/025.png,bars/mask003.png,,,,,,,,,,,,2,1,,,,,,,2,10,3,10,,,,,,,,,,,1598.914,1599.414,1599.664,1601.864,space,2.186,,1601.864,8,73,1602.864,1602.864,1602.867,,,,0,40,40,40,1,105,40,,,,,,,,
,,6595989e0806f2bf1d2b4f55,65af5919ba138c82e9dc72b8,2024-01-23_08h14.28.118,bars,2023.2.3,MacIntel,62.5,657b66ea316d21385b68909f,,,,,,,,,,,1602.868,1603.864,,,1604.364,1604.614,,106,106,,,,,,,,,,,,,,,,bars/007.png,bars/mask000.png,,,,,,,,,,,,0,2,,,,,,,4,10,6,10,,,,,,,,,,,1603.864,1604.364,1604.614,1608.981,space,4.35,,1608.981,69,51,1609.981,1609.981,1609.984,,,,0,41,41,41,1,175,55,,,,,,,,
,,6595989e0806f2bf1d2b4f55,65af5919ba138c82e9dc72b8,2024-01-23_08h14.28.118,bars,2023.2.3,MacIntel,62.5,657b66ea316d21385b68909f,,,,,,,,,,,1609.985,1610.981,,,1611.48,1611.731,,73,73,,,,,,,,,,,,,,,,bars/040.png,bars/mask006.png,,,,,,,,,,,,0,1,,,,,,,2,10,2,10,,,,,,,,,,,1610.981,1611.48,1611.731,1620.498,space,8.751,,1620.498,67,68,1621.497,1621.498,1621.5,,,,0,42,42,42,1,140,5,,,,,,,,
,,6595989e0806f2bf1d2b4f55,65af5919ba138c82e9dc72b8,2024-01-23_08h14.28.118,bars,2023.2.3,MacIntel,62.5,657b66ea316d21385b68909f,,,,,,,,,,,1621.501,1622.498,,,1622.998,1623.248,,49,49,,,,,,,,,,,,,,,,bars/011.png,bars/mask004.png,,,,,,,,,,,,0,2,,,,,,,4,10,4,9,,,,,,,,,,,1622.498,1622.998,1623.248,1624.93,space,1.676,,1624.931,69,36,1625.93,1625.93,1625.933,,,,0,43,43,43,1,160,85,,,,,,,,
,,6595989e0806f2bf1d2b4f55,65af5919ba138c82e9dc72b8,2024-01-23_08h14.28.118,bars,2023.2.3,MacIntel,62.5,657b66ea316d21385b68909f,,,,,,,,,,,1625.934,1626.931,,,1627.431,1627.681,,171,171,,,,,,,,,,,,,,,,bars/037.png,bars/mask003.png,,,,,,,,,,,,2,1,,,,,,,6,8,7,8,,,,,,,,,,,1626.931,1627.431,1627.681,1629.981,space,2.29,,1629.981,21,66,1630.981,1630.981,1630.985,,,,0,44,44,44,1,150,105,,,,,,,,
,,6595989e0806f2bf1d2b4f55,65af5919ba138c82e9dc72b8,2024-01-23_08h14.28.118,bars,2023.2.3,MacIntel,62.5,657b66ea316d21385b68909f,,,,,,,,,,,1630.985,1631.981,,,1632.481,1632.731,,113,113,,,,,,,,,,,,,,,,bars/031.png,bars/mask005.png,,,,,,,,,,,,2,1,,,,,,,4,10,2,10,,,,,,,,,,,1631.981,1632.481,1632.731,1635.93,space,3.184,,1635.93,7,78,1636.931,1636.931,1636.933,,,,0,45,45,45,1,120,35,,,,,,,,
,,6595989e0806f2bf1d2b4f55,65af5919ba138c82e9dc72b8,2024-01-23_08h14.28.118,bars,2023.2.3,MacIntel,62.5,657b66ea316d21385b68909f,,,,,,,,,,,1636.933,1637.931,,,1638.431,1638.681,,16,16,,,,,,,,,,,,,,,,bars/013.png,bars/mask009.png,,,,,,,,,,,,5,2,,,,,,,2,8,2,6,,,,,,,,,,,1637.931,1638.43,1638.681,1639.864,space,1.171,,1639.864,59,6,1640.865,1640.865,1640.868,,,,0,46,46,46,1,75,10,,,,,,,,
,,6595989e0806f2bf1d2b4f55,65af5919ba138c82e9dc72b8,2024-01-23_08h14.28.118,bars,2023.2.3,MacIntel,62.5,657b66ea316d21385b68909f,,,,,,,,,,,1640.869,1641.864,,,1642.365,1642.615,,124,124,,,,,,,,,,,,,,,,bars/028.png,bars/mask009.png,,,,,,,,,,,,6,2,,,,,,,4,6,4,7,,,,,,,,,,,1641.865,1642.365,1642.615,1643.181,space,0.551,,1643.181,79,4,1644.181,1644.181,1644.183,,,,0,47,47,47,1,45,120,,,,,,,,
,,6595989e0806f2bf1d2b4f55,65af5919ba138c82e9dc72b8,2024-01-23_08h14.28.118,bars,2023.2.3,MacIntel,62.5,657b66ea316d21385b68909f,,,,,,,,,,,1644.183,1645.181,,,1645.681,1645.931,,33,33,,,,,,,,,,,,,,,,bars/013.png,bars/mask000.png,,,,,,,,,,,,2,2,,,,,,,2,8,2,7,,,,,,,,,,,1645.181,1645.681,1645.931,1646.348,space,0.406,,1646.348,42,23,1647.348,1647.349,1647.351,,,,0,48,48,48,1,75,10,,,,,,,,
,,6595989e0806f2bf1d2b4f55,65af5919ba138c82e9dc72b8,2024-01-23_08h14.28.118,bars,2023.2.3,MacIntel,62.5,657b66ea316d21385b68909f,,,,,,,,,,,1647.351,1648.348,,,1648.848,1649.098,,175,-5,,,,,,,,,,,,,,,,bars/023.png,bars/mask005.png,,,,,,,,,,,,0,1,,,,,,,0,10,0,10,,,,,,,,,,,1648.348,1648.848,1649.098,1652.548,space,3.44,,1652.548,25,60,1653.548,1653.548,1653.553,,,,0,49,49,49,1,20,115,,,,,,,,
,,6595989e0806f2bf1d2b4f55,65af5919ba138c82e9dc72b8,2024-01-23_08h14.28.118,bars,2023.2.3,MacIntel,62.5,657b66ea316d21385b68909f,,,,,,,,,,,,,,,,,,,,,,,,,,,,,,,,,,,,,,,,,,,,,,,,,,,,,,,,,,,,,,,,,,,,,,,,,,,,,,,,,,,,,,,,,,,,,1653.553,1713.55,0,2,2,4,1,sequence_tables/blk026.csv
,,6595989e0806f2bf1d2b4f55,65af5919ba138c82e9dc72b8,2024-01-23_08h14.28.118,bars,2023.2.3,MacIntel,62.5,657b66ea316d21385b68909f,,,,,,,,,,,1734.988,1735.983,,,1736.483,1736.733,,102,102,,,,,,,,,,,,,,,,bars/029.png,bars/mask002.png,,,,,,,,,,,,3,1,,,,,,,2,3,5,3,,,,,,1713.551,1734.983,space,21.423,,1735.983,1736.483,1736.733,1740.083,space,3.343,,1740.083,12,57,1741.083,1741.083,1741.086,,,,0,0,0,0,1,90,45,,,,,,,,
,,6595989e0806f2bf1d2b4f55,65af5919ba138c82e9dc72b8,2024-01-23_08h14.28.118,bars,2023.2.3,MacIntel,62.5,657b66ea316d21385b68909f,,,,,,,,,,,1741.086,1742.083,,,1742.583,1742.833,,131,131,,,,,,,,,,,,,,,,bars/023.png,bars/mask009.png,,,,,,,,,,,,0,2,,,,,,,4,1,3,1,,,,,,,,,,,1742.083,1742.583,1742.833,1743.783,space,0.934,,1743.783,69,16,1744.782,1744.782,1744.787,,,,0,1,1,1,1,20,115,,,,,,,,
,,6595989e0806f2bf1d2b4f55,65af5919ba138c82e9dc72b8,2024-01-23_08h14.28.118,bars,2023.2.3,MacIntel,62.5,657b66ea316d21385b68909f,,,,,,,,,,,1744.788,1745.783,,,1746.283,1746.533,,9,9,,,,,,,,,,,,,,,,bars/031.png,bars/mask008.png,,,,,,,,,,,,0,2,,,,,,,6,0,5,0,,,,,,,,,,,1745.783,1746.283,1746.533,1746.583,space,0.038,,1746.584,69,26,1747.583,1747.583,1747.585,,,,0,2,2,2,1,120,35,,,,,,,,
,,6595989e0806f2bf1d2b4f55,65af5919ba138c82e9dc72b8,2024-01-23_08h14.28.118,bars,2023.2.3,MacIntel,62.5,657b66ea316d21385b68909f,,,,,,,,,,,1747.585,1748.583,,,1749.084,1749.333,,116,116,,,,,,,,,,,,,,,,bars/028.png,bars/mask008.png,,,,,,,,,,,,2,2,,,,,,,4,2,4,2,,,,,,,,,,,1748.583,1749.083,1749.333,1749.533,space,0.184,,1749.533,71,4,1750.532,1750.533,1750.534,,,,0,3,3,3,1,45,120,,,,,,,,
,,6595989e0806f2bf1d2b4f55,65af5919ba138c82e9dc72b8,2024-01-23_08h14.28.118,bars,2023.2.3,MacIntel,62.5,657b66ea316d21385b68909f,,,,,,,,,,,1750.534,1751.533,,,1752.033,1752.283,,174,174,,,,,,,,,,,,,,,,bars/009.png,bars/mask005.png,,,,,,,,,,,,2,1,,,,,,,6,4,6,4,,,,,,,,,,,1751.533,1752.033,1752.283,1752.433,space,0.135,,1752.433,21,69,1753.433,1753.433,1753.437,,,,0,4,4,4,1,15,105,,,,,,,,
,,6595989e0806f2bf1d2b4f55,65af5919ba138c82e9dc72b8,2024-01-23_08h14.28.118,bars,2023.2.3,MacIntel,62.5,657b66ea316d21385b68909f,,,,,,,,,,,1753.437,1754.433,,,1754.933,1755.183,,100,100,,,,,,,,,,,,,,,,bars/014.png,bars/mask001.png,,,,,,,,,,,,1,1,,,,,,,4,2,3,2,,,,,,,,,,,1754.433,1754.933,1755.183,1755.683,space,0.485,,1755.683,20,80,1756.683,1756.683,1756.685,,,,0,5,5,5,1,80,0,,,,,,,,
,,6595989e0806f2bf1d2b4f55,65af5919ba138c82e9dc72b8,2024-01-23_08h14.28.118,bars,2023.2.3,MacIntel,62.5,657b66ea316d21385b68909f,,,,,,,,,,,1756.685,1757.682,,,1758.183,1758.432,,10,10,,,,,,,,,,,,,,,,bars/007.png,bars/mask004.png,,,,,,,,,,,,1,1,,,,,,,2,4,2,5,,,,,,,,,,,1757.683,1758.183,1758.432,1758.867,space,0.419,,1758.867,15,45,1759.867,1759.867,1759.868,,,,0,6,6,6,1,175,55,,,,,,,,
,,6595989e0806f2bf1d2b4f55,65af5919ba138c82e9dc72b8,2024-01-23_08h14.28.118,bars,2023.2.3,MacIntel,62.5,657b66ea316d21385b68909f,,,,,,,,,,,1759.869,1760.867,,,1761.367,1761.617,,96,96,,,,,,,,,,,,,,,,bars/034.png,bars/mask002.png,,,,,,,,,,,,0,1,,,,,,,4,2,5,2,,,,,,,,,,,1760.867,1761.367,1761.617,1761.983,space,0.358,,1761.984,29,31,1762.983,1762.984,1762.986,,,,0,7,7,7,1,125,65,,,,,,,,
,,6595989e0806f2bf1d2b4f55,65af5919ba138c82e9dc72b8,2024-01-23_08h14.28.118,bars,2023.2.3,MacIntel,62.5,657b66ea316d21385b68909f,,,,,,,,,,,1762.986,1763.983,,,1764.483,1764.733,,17,17,,,,,,,,,,,,,,,,bars/004.png,bars/mask004.png,,,,,,,,,,,,1,1,,,,,,,2,4,2,6,,,,,,,,,,,1763.983,1764.483,1764.733,1765.2,space,0.453,,1765.2,8,72,1766.2,1766.201,1766.204,,,,0,8,8,8,1,25,125,,,,,,,,
,,6595989e0806f2bf1d2b4f55,65af5919ba138c82e9dc72b8,2024-01-23_08h14.28.118,bars,2023.2.3,MacIntel,62.5,657b66ea316d21385b68909f,,,,,,,,,,,1766.205,1767.2,,,1767.7,1767.951,,129,129,,,,,,,,,,,,,,,,bars/040.png,bars/mask005.png,,,,,,,,,,,,0,1,,,,,,,0,2,0,2,,,,,,,,,,,1767.2,1767.7,1767.952,1768.45,space,0.483,,1768.451,11,56,1769.45,1769.45,1769.453,,,,0,9,9,9,1,140,5,,,,,,,,
,,6595989e0806f2bf1d2b4f55,65af5919ba138c82e9dc72b8,2024-01-23_08h14.28.118,bars,2023.2.3,MacIntel,62.5,657b66ea316d21385b68909f,,,,,,,,,,,1769.453,1770.45,,,1770.95,1771.2,,59,59,,,,,,,,,,,,,,,,bars/001.png,bars/mask004.png,,,,,,,,,,,,1,2,,,,,,,0,4,0,5,,,,,,,,,,,1770.45,1770.95,1771.2,1771.584,space,0.372,,1771.584,71,26,1772.584,1772.584,1772.588,,,,0,10,10,10,1,130,85,,,,,,,,
,,6595989e0806f2bf1d2b4f55,65af5919ba138c82e9dc72b8,2024-01-23_08h14.28.118,bars,2023.2.3,MacIntel,62.5,657b66ea316d21385b68909f,,,,,,,,,,,1772.588,1773.584,,,1774.084,1774.334,,39,39,,,,,,,,,,,,,,,,bars/002.png,bars/mask008.png,,,,,,,,,,,,0,2,,,,,,,2,2,1,0,,,,,,,,,,,1773.584,1774.084,1774.334,1775.317,space,0.972,,1775.317,89,46,1776.317,1776.317,1776.319,,,,0,11,11,11,1,130,85,,,,,,,,
,,6595989e0806f2bf1d2b4f55,65af5919ba138c82e9dc72b8,2024-01-23_08h14.28.118,bars,2023.2.3,MacIntel,62.5,657b66ea316d21385b68909f,,,,,,,,,,,1776.32,1777.317,,,1777.817,1778.067,,157,157,,,,,,,,,,,,,,,,bars/037.png,bars/mask005.png,,,,,,,,,,,,4,1,,,,,,,4,4,5,5,,,,,,,,,,,1777.317,1777.817,1778.067,1778.517,space,0.434,,1778.517,7,52,1779.517,1779.517,1779.521,,,,0,12,12,12,1,150,105,,,,,,,,
,,6595989e0806f2bf1d2b4f55,65af5919ba138c82e9dc72b8,2024-01-23_08h14.28.118,bars,2023.2.3,MacIntel,62.5,657b66ea316d21385b68909f,,,,,,,,,,,1779.521,1780.517,,,1781.018,1781.267,,122,122,,,,,,,,,,,,,,,,bars/039.png,bars/mask004.png,,,,,,,,,,,,1,2,,,,,,,2,2,0,3,,,,,,,,,,,1780.517,1781.017,1781.267,1781.817,space,0.535,,1781.817,53,17,1782.816,1782.817,1782.821,,,,0,13,13,13,1,175,105,,,,,,,,
,,6595989e0806f2bf1d2b4f55,65af5919ba138c82e9dc72b8,2024-01-23_08h14.28.118,bars,2023.2.3,MacIntel,62.5,657b66ea316d21385b68909f,,,,,,,,,,,1782.821,1783.817,,,1784.317,1784.567,,58,58,,,,,,,,,,,,,,,,bars/039.png,bars/mask006.png,,,,,,,,,,,,0,2,,,,,,,4,4,5,4,,,,,,,,,,,1783.817,1784.317,1784.567,1785.084,space,0.503,,1785.084,63,47,1786.084,1786.084,1786.085,,,,0,14,14,14,1,175,105,,,,,,,,
,,6595989e0806f2bf1d2b4f55,65af5919ba138c82e9dc72b8,2024-01-23_08h14.28.118,bars,2023.2.3,MacIntel,62.5,657b66ea316d21385b68909f,,,,,,,,,,,1786.085,1787.084,,,1787.584,1787.833,,142,142,,,,,,,,,,,,,,,,bars/022.png,bars/mask002.png,,,,,,,,,,,,0,1,,,,,,,2,6,1,7,,,,,,,,,,,1787.084,1787.584,1787.833,1787.95,space,0.106,,1787.95,47,58,1788.951,1788.951,1788.955,,,,0,15,15,15,1,95,20,,,,,,,,
,,6595989e0806f2bf1d2b4f55,65af5919ba138c82e9dc72b8,2024-01-23_08h14.28.118,bars,2023.2.3,MacIntel,62.5,657b66ea316d21385b68909f,,,,,,,,,,,1788.955,1789.951,,,1790.451,1790.7,,59,59,,,,,,,,,,,,,,,,bars/000.png,bars/mask006.png,,,,,,,,,,,,1,1,,,,,,,4,4,2,5,,,,,,,,,,,1789.951,1790.451,1790.7,1793.584,space,2.877,,1793.584,19,86,1794.584,1794.584,1794.585,,,,0,16,16,16,1,40,145,,,,,,,,
,,6595989e0806f2bf1d2b4f55,65af5919ba138c82e9dc72b8,2024-01-23_08h14.28.118,bars,2023.2.3,MacIntel,62.5,657b66ea316d21385b68909f,,,,,,,,,,,1794.586,1795.584,,,1796.084,1796.334,,8,8,,,,,,,,,,,,,,,,bars/032.png,bars/mask005.png,,,,,,,,,,,,1,2,,,,,,,6,2,5,2,,,,,,,,,,,1795.584,1796.084,1796.334,1797.001,space,0.652,,1797.001,63,12,1798.001,1798.001,1798.004,,,,0,17,17,17,1,125,20,,,,,,,,
,,6595989e0806f2bf1d2b4f55,65af5919ba138c82e9dc72b8,2024-01-23_08h14.28.118,bars,2023.2.3,MacIntel,62.5,657b66ea316d21385b68909f,,,,,,,,,,,1798.004,1799.001,,,1799.501,1799.751,,71,71,,,,,,,,,,,,,,,,bars/012.png,bars/mask009.png,,,,,,,,,,,,3,1,,,,,,,8,4,7,3,,,,,,,,,,,1799.001,1799.501,1799.751,1801.634,space,1.874,,1801.634,19,56,1802.634,1802.634,1802.638,,,,0,18,18,18,1,90,15,,,,,,,,
,,6595989e0806f2bf1d2b4f55,65af5919ba138c82e9dc72b8,2024-01-23_08h14.28.118,bars,2023.2.3,MacIntel,62.5,657b66ea316d21385b68909f,,,,,,,,,,,1802.638,1803.634,,,1804.134,1804.384,,170,170,,,,,,,,,,,,,,,,bars/027.png,bars/mask003.png,,,,,,,,,,,,0,2,,,,,,,6,2,5,3,,,,,,,,,,,1803.634,1804.134,1804.384,1807.434,space,3.034,,1807.434,60,60,1808.434,1808.434,1808.438,,,,0,19,19,19,1,110,50,,,,,,,,
,,6595989e0806f2bf1d2b4f55,65af5919ba138c82e9dc72b8,2024-01-23_08h14.28.118,bars,2023.2.3,MacIntel,62.5,657b66ea316d21385b68909f,,,,,,,,,,,1808.438,1809.434,,,1809.934,1810.184,,117,117,,,,,,,,,,,,,,,,bars/039.png,bars/mask004.png,,,,,,,,,,,,1,2,,,,,,,8,4,8,2,,,,,,,,,,,1809.434,1809.934,1810.184,1810.65,space,0.46,,1810.65,58,12,1811.651,1811.651,1811.652,,,,0,20,20,20,1,175,105,,,,,,,,
,,6595989e0806f2bf1d2b4f55,65af5919ba138c82e9dc72b8,2024-01-23_08h14.28.118,bars,2023.2.3,MacIntel,62.5,657b66ea316d21385b68909f,,,,,,,,,,,1811.653,1812.651,,,1813.151,1813.401,,126,126,,,,,,,,,,,,,,,,bars/008.png,bars/mask005.png,,,,,,,,,,,,2,1,,,,,,,6,6,5,6,,,,,,,,,,,1812.651,1813.151,1813.401,1814.568,space,1.153,,1814.568,16,54,1815.568,1815.568,1815.571,,,,0,21,21,21,1,110,0,,,,,,,,
,,6595989e0806f2bf1d2b4f55,65af5919ba138c82e9dc72b8,2024-01-23_08h14.28.118,bars,2023.2.3,MacIntel,62.5,657b66ea316d21385b68909f,,,,,,,,,,,1815.572,1816.568,,,1817.068,1817.318,,12,12,,,,,,,,,,,,,,,,bars/000.png,bars/mask001.png,,,,,,,,,,,,1,1,,,,,,,8,4,9,4,,,,,,,,,,,1816.568,1817.068,1817.318,1817.901,space,0.568,,1817.901,28,47,1818.901,1818.901,1818.902,,,,0,22,22,22,1,40,145,,,,,,,,
,,6595989e0806f2bf1d2b4f55,65af5919ba138c82e9dc72b8,2024-01-23_08h14.28.118,bars,2023.2.3,MacIntel,62.5,657b66ea316d21385b68909f,,,,,,,,,,,1818.903,1819.901,,,1820.401,1820.651,,9,9,,,,,,,,,,,,,,,,bars/028.png,bars/mask002.png,,,,,,,,,,,,0,1,,,,,,,10,2,10,2,,,,,,,,,,,1819.901,1820.401,1820.651,1821.635,space,0.969,,1821.635,36,69,1822.634,1822.634,1822.636,,,,0,23,23,23,1,45,120,,,,,,,,
,,6595989e0806f2bf1d2b4f55,65af5919ba138c82e9dc72b8,2024-01-23_08h14.28.118,bars,2023.2.3,MacIntel,62.5,657b66ea316d21385b68909f,,,,,,,,,,,1822.636,1823.634,,,1824.135,1824.384,,106,106,,,,,,,,,,,,,,,,bars/020.png,bars/mask009.png,,,,,,,,,,,,7,1,,,,,,,10,4,10,6,,,,,,,,,,,1823.634,1824.135,1824.385,1825.468,space,1.068,,1825.468,9,64,1826.468,1826.468,1826.469,,,,0,24,24,24,1,115,170,,,,,,,,
,,6595989e0806f2bf1d2b4f55,65af5919ba138c82e9dc72b8,2024-01-23_08h14.28.118,bars,2023.2.3,MacIntel,62.5,657b66ea316d21385b68909f,,,,,,,,,,,1826.47,1827.468,,,1827.968,1828.218,,42,42,,,,,,,,,,,,,,,,bars/007.png,bars/mask009.png,,,,,,,,,,,,4,2,,,,,,,10,6,9,7,,,,,,,,,,,1827.468,1827.968,1828.218,1830.135,space,1.908,,1830.135,47,13,1831.135,1831.135,1831.138,,,,0,25,25,25,1,175,55,,,,,,,,
,,6595989e0806f2bf1d2b4f55,65af5919ba138c82e9dc72b8,2024-01-23_08h14.28.118,bars,2023.2.3,MacIntel,62.5,657b66ea316d21385b68909f,,,,,,,,,,,1831.138,1832.135,,,1832.635,1832.885,,41,41,,,,,,,,,,,,,,,,bars/035.png,bars/mask005.png,,,,,,,,,,,,3,2,,,,,,,10,8,10,8,,,,,,,,,,,1832.135,1832.635,1832.885,1836.334,space,3.437,,1836.334,46,19,1837.335,1837.335,1837.336,,,,0,26,26,26,1,175,60,,,,,,,,
,,6595989e0806f2bf1d2b4f55,65af5919ba138c82e9dc72b8,2024-01-23_08h14.28.118,bars,2023.2.3,MacIntel,62.5,657b66ea316d21385b68909f,,,,,,,,,,,1837.336,1838.334,,,1838.834,1839.085,,106,106,,,,,,,,,,,,,,,,bars/037.png,bars/mask008.png,,,,,,,,,,,,10,2,,,,,,,10,10,10,10,,,,,,,,,,,1838.334,1838.834,1839.085,1844.435,space,5.342,,1844.435,44,1,1845.435,1845.435,1845.436,,,,0,27,27,27,1,150,105,,,,,,,,
,,6595989e0806f2bf1d2b4f55,65af5919ba138c82e9dc72b8,2024-01-23_08h14.28.118,bars,2023.2.3,MacIntel,62.5,657b66ea316d21385b68909f,,,,,,,,,,,1845.436,1846.435,,,1846.935,1847.185,,5,5,,,,,,,,,,,,,,,,bars/027.png,bars/mask009.png,,,,,,,,,,,,0,2,,,,,,,10,8,10,8,,,,,,,,,,,1846.435,1846.935,1847.185,1852.384,space,5.185,,1852.384,75,45,1853.385,1853.385,1853.387,,,,0,28,28,28,1,110,50,,,,,,,,
,,6595989e0806f2bf1d2b4f55,65af5919ba138c82e9dc72b8,2024-01-23_08h14.28.118,bars,2023.2.3,MacIntel,62.5,657b66ea316d21385b68909f,,,,,,,,,,,1853.387,1854.385,,,1854.885,1855.135,,134,134,,,,,,,,,,,,,,,,bars/034.png,bars/mask000.png,,,,,,,,,,,,6,1,,,,,,,8,10,8,10,,,,,,,,,,,1854.385,1854.885,1855.135,1857.218,space,2.074,,1857.218,9,69,1858.218,1858.218,1858.221,,,,0,29,29,29,1,125,65,,,,,,,,
,,6595989e0806f2bf1d2b4f55,65af5919ba138c82e9dc72b8,2024-01-23_08h14.28.118,bars,2023.2.3,MacIntel,62.5,657b66ea316d21385b68909f,,,,,,,,,,,1858.222,1859.218,,,1859.718,1859.968,,29,29,,,,,,,,,,,,,,,,bars/025.png,bars/mask007.png,,,,,,,,,,,,6,2,,,,,,,6,10,7,10,,,,,,,,,,,1859.218,1859.718,1859.968,1866.868,space,6.884,,1866.869,76,11,1867.868,1867.869,1867.872,,,,0,30,30,30,1,105,40,,,,,,,,
,,6595989e0806f2bf1d2b4f55,65af5919ba138c82e9dc72b8,2024-01-23_08h14.28.118,bars,2023.2.3,MacIntel,62.5,657b66ea316d21385b68909f,,,,,,,,,,,1867.872,1868.869,,,1869.369,1869.619,,122,122,,,,,,,,,,,,,,,,bars/011.png,bars/mask009.png,,,,,,,,,,,,0,2,,,,,,,4,10,3,10,,,,,,,,,,,1868.869,1869.369,1869.619,1869.635,space,0.003,,1869.635,38,37,1870.634,1870.635,1870.636,,,,0,31,31,31,1,160,85,,,,,,,,
,,6595989e0806f2bf1d2b4f55,65af5919ba138c82e9dc72b8,2024-01-23_08h14.28.118,bars,2023.2.3,MacIntel,62.5,657b66ea316d21385b68909f,,,,,,,,,,,1870.636,1871.635,,,1872.135,1872.385,,150,150,,,,,,,,,,,,,,,,bars/004.png,bars/mask006.png,,,,,,,,,,,,2,2,,,,,,,6,10,7,10,,,,,,,,,,,1871.635,1872.135,1872.385,1875.735,space,3.339,,1875.735,55,25,1876.736,1876.736,1876.737,,,,0,32,32,32,1,25,125,,,,,,,,
,,6595989e0806f2bf1d2b4f55,65af5919ba138c82e9dc72b8,2024-01-23_08h14.28.118,bars,2023.2.3,MacIntel,62.5,657b66ea316d21385b68909f,,,,,,,,,,,1876.737,1877.735,,,1878.235,1878.486,,46,46,,,,,,,,,,,,,,,,bars/039.png,bars/mask003.png,,,,,,,,,,,,0,1,,,,,,,4,10,3,9,,,,,,,,,,,1877.735,1878.235,1878.486,1881.269,space,2.768,,1881.269,51,59,1882.269,1882.269,1882.273,,,,0,33,33,33,1,175,105,,,,,,,,
,,6595989e0806f2bf1d2b4f55,65af5919ba138c82e9dc72b8,2024-01-23_08h14.28.118,bars,2023.2.3,MacIntel,62.5,657b66ea316d21385b68909f,,,,,,,,,,,1882.273,1883.269,,,1883.768,1884.019,,35,35,,,,,,,,,,,,,,,,bars/036.png,bars/mask000.png,,,,,,,,,,,,4,2,,,,,,,6,8,8,8,,,,,,,,,,,1883.269,1883.768,1884.019,1890.019,space,5.988,,1890.019,70,15,1891.019,1891.019,1891.022,,,,0,34,34,34,1,145,20,,,,,,,,
,,6595989e0806f2bf1d2b4f55,65af5919ba138c82e9dc72b8,2024-01-23_08h14.28.118,bars,2023.2.3,MacIntel,62.5,657b66ea316d21385b68909f,,,,,,,,,,,1891.023,1892.019,,,1892.519,1892.769,,115,115,,,,,,,,,,,,,,,,bars/026.png,bars/mask004.png,,,,,,,,,,,,0,2,,,,,,,4,6,4,6,,,,,,,,,,,1892.019,1892.519,1892.769,1896.619,space,3.835,,1896.619,80,30,1897.619,1897.619,1897.621,,,,0,35,35,35,1,35,85,,,,,,,,
,,6595989e0806f2bf1d2b4f55,65af5919ba138c82e9dc72b8,2024-01-23_08h14.28.118,bars,2023.2.3,MacIntel,62.5,657b66ea316d21385b68909f,,,,,,,,,,,1897.621,1898.619,,,1899.119,1899.369,,99,99,,,,,,,,,,,,,,,,bars/003.png,bars/mask003.png,,,,,,,,,,,,0,2,,,,,,,2,4,1,4,,,,,,,,,,,1898.619,1899.119,1899.369,1900.019,space,0.635,,1900.019,74,41,1901.019,1901.019,1901.02,,,,0,36,36,36,1,25,140,,,,,,,,
,,6595989e0806f2bf1d2b4f55,65af5919ba138c82e9dc72b8,2024-01-23_08h14.28.118,bars,2023.2.3,MacIntel,62.5,657b66ea316d21385b68909f,,,,,,,,,,,1901.021,1902.019,,,1902.519,1902.769,,92,92,,,,,,,,,,,,,,,,bars/041.png,bars/mask003.png,,,,,,,,,,,,0,2,,,,,,,0,2,1,0,,,,,,,,,,,1902.019,1902.519,1902.769,1905.486,space,2.704,,1905.486,72,7,1906.486,1906.486,1906.487,,,,0,37,37,37,1,20,85,,,,,,,,
,,6595989e0806f2bf1d2b4f55,65af5919ba138c82e9dc72b8,2024-01-23_08h14.28.118,bars,2023.2.3,MacIntel,62.5,657b66ea316d21385b68909f,,,,,,,,,,,1906.488,1907.486,,,1907.986,1908.236,,44,44,,,,,,,,,,,,,,,,bars/041.png,bars/mask005.png,,,,,,,,,,,,0,1,,,,,,,2,0,2,1,,,,,,,,,,,1907.486,1907.986,1908.236,1911.419,space,3.17,,1911.42,24,41,1912.419,1912.419,1912.423,,,,0,38,38,38,1,20,85,,,,,,,,
,,6595989e0806f2bf1d2b4f55,65af5919ba138c82e9dc72b8,2024-01-23_08h14.28.118,bars,2023.2.3,MacIntel,62.5,657b66ea316d21385b68909f,,,,,,,,,,,1912.423,1913.419,,,1913.919,1914.169,,20,20,,,,,,,,,,,,,,,,bars/032.png,bars/mask007.png,,,,,,,,,,,,2,2,,,,,,,4,2,5,2,,,,,,,,,,,1913.419,1913.919,1914.169,1918.92,space,4.735,,1918.92,75,0,1919.92,1919.92,1919.923,,,,0,39,39,39,1,125,20,,,,,,,,
,,6595989e0806f2bf1d2b4f55,65af5919ba138c82e9dc72b8,2024-01-23_08h14.28.118,bars,2023.2.3,MacIntel,62.5,657b66ea316d21385b68909f,,,,,,,,,,,1919.924,1920.919,,,1921.42,1921.669,,40,40,,,,,,,,,,,,,,,,bars/001.png,bars/mask000.png,,,,,,,,,,,,0,2,,,,,,,6,0,7,1,,,,,,,,,,,1920.92,1921.419,1921.67,1922.185,space,0.501,,1922.186,90,45,1923.186,1923.186,1923.188,,,,0,40,40,40,1,130,85,,,,,,,,
,,6595989e0806f2bf1d2b4f55,65af5919ba138c82e9dc72b8,2024-01-23_08h14.28.118,bars,2023.2.3,MacIntel,62.5,657b66ea316d21385b68909f,,,,,,,,,,,1923.188,1924.186,,,1924.686,1924.936,,178,178,,,,,,,,,,,,,,,,bars/020.png,bars/mask007.png,,,,,,,,,,,,1,2,,,,,,,4,2,4,2,,,,,,,,,,,1924.186,1924.686,1924.936,1924.953,space,0.002,,1924.953,63,8,1925.953,1925.953,1925.954,,,,0,41,41,41,1,115,170,,,,,,,,
,,6595989e0806f2bf1d2b4f55,65af5919ba138c82e9dc72b8,2024-01-23_08h14.28.118,bars,2023.2.3,MacIntel,62.5,657b66ea316d21385b68909f,,,,,,,,,,,1925.955,1926.953,,,1927.453,1927.703,,8,8,,,,,,,,,,,,,,,,bars/028.png,bars/mask003.png,,,,,,,,,,,,0,1,,,,,,,2,4,1,3,,,,,,,,,,,1926.953,1927.453,1927.703,1927.786,space,0.073,,1927.786,37,68,1928.786,1928.786,1928.79,,,,0,42,42,42,1,45,120,,,,,,,,
,,6595989e0806f2bf1d2b4f55,65af5919ba138c82e9dc72b8,2024-01-23_08h14.28.118,bars,2023.2.3,MacIntel,62.5,657b66ea316d21385b68909f,,,,,,,,,,,1928.79,1929.786,,,1930.286,1930.536,,41,41,,,,,,,,,,,,,,,,bars/049.png,bars/mask000.png,,,,,,,,,,,,0,1,,,,,,,0,2,1,1,,,,,,,,,,,1929.786,1930.286,1930.536,1931.719,space,1.17,,1931.719,61,74,1932.72,1932.72,1932.721,,,,0,43,43,43,1,160,115,,,,,,,,
,,6595989e0806f2bf1d2b4f55,65af5919ba138c82e9dc72b8,2024-01-23_08h14.28.118,bars,2023.2.3,MacIntel,62.5,657b66ea316d21385b68909f,,,,,,,,,,,1932.721,1933.72,,,1934.22,1934.47,,25,25,,,,,,,,,,,,,,,,bars/015.png,bars/mask000.png,,,,,,,,,,,,0,2,,,,,,,0,4,0,4,,,,,,,,,,,1933.72,1934.22,1934.47,1935.053,space,0.567,,1935.053,85,45,1936.053,1936.053,1936.059,,,,0,44,44,44,1,110,160,,,,,,,,
,,6595989e0806f2bf1d2b4f55,65af5919ba138c82e9dc72b8,2024-01-23_08h14.28.118,bars,2023.2.3,MacIntel,62.5,657b66ea316d21385b68909f,,,,,,,,,,,1936.059,1937.053,,,1937.553,1937.803,,162,162,,,,,,,,,,,,,,,,bars/014.png,bars/mask006.png,,,,,,,,,,,,4,2,,,,,,,0,6,0,9,,,,,,,,,,,1937.054,1937.553,1937.803,1938.32,space,0.502,,1938.32,82,18,1939.32,1939.32,1939.322,,,,0,45,45,45,1,80,0,,,,,,,,
,,6595989e0806f2bf1d2b4f55,65af5919ba138c82e9dc72b8,2024-01-23_08h14.28.118,bars,2023.2.3,MacIntel,62.5,657b66ea316d21385b68909f,,,,,,,,,,,1939.323,1940.32,,,1940.82,1941.07,,108,108,,,,,,,,,,,,,,,,bars/024.png,bars/mask004.png,,,,,,,,,,,,1,1,,,,,,,2,4,2,3,,,,,,,,,,,1940.32,1940.82,1941.07,1943.803,space,2.717,,1943.803,12,62,1944.803,1944.803,1944.808,,,,0,46,46,46,1,120,170,,,,,,,,
,,6595989e0806f2bf1d2b4f55,65af5919ba138c82e9dc72b8,2024-01-23_08h14.28.118,bars,2023.2.3,MacIntel,62.5,657b66ea316d21385b68909f,,,,,,,,,,,1944.808,1945.803,,,1946.303,1946.553,,93,93,,,,,,,,,,,,,,,,bars/047.png,bars/mask002.png,,,,,,,,,,,,0,2,,,,,,,0,2,1,2,,,,,,,,,,,1945.804,1946.303,1946.553,1950.537,space,3.974,,1950.537,78,23,1951.537,1951.537,1951.541,,,,0,47,47,47,1,15,70,,,,,,,,
,,6595989e0806f2bf1d2b4f55,65af5919ba138c82e9dc72b8,2024-01-23_08h14.28.118,bars,2023.2.3,MacIntel,62.5,657b66ea316d21385b68909f,,,,,,,,,,,1951.542,1952.537,,,1953.037,1953.287,,2,2,,,,,,,,,,,,,,,,bars/000.png,bars/mask006.png,,,,,,,,,,,,0,2,,,,,,,0,4,2,5,,,,,,,,,,,1952.537,1953.037,1953.287,1957.587,space,4.285,,1957.587,38,37,1958.587,1958.587,1958.588,,,,0,48,48,48,1,40,145,,,,,,,,
,,6595989e0806f2bf1d2b4f55,65af5919ba138c82e9dc72b8,2024-01-23_08h14.28.118,bars,2023.2.3,MacIntel,62.5,657b66ea316d21385b68909f,,,,,,,,,,,1958.589,1959.586,,,1960.087,1960.337,,78,78,,,,,,,,,,,,,,,,bars/025.png,bars/mask008.png,,,,,,,,,,,,0,1,,,,,,,2,2,1,3,,,,,,,,,,,1959.587,1960.087,1960.337,1961.003,space,0.659,,1961.004,27,38,1962.004,1962.004,1962.007,,,,0,49,49,49,1,105,40,,,,,,,,
,,6595989e0806f2bf1d2b4f55,65af5919ba138c82e9dc72b8,2024-01-23_08h14.28.118,bars,2023.2.3,MacIntel,62.5,657b66ea316d21385b68909f,,,,,,,,,,,,,,,,,,,,,,,,,,,,,,,,,,,,,,,,,,,,,,,,,,,,,,,,,,,,,,,,,,,,,,,,,,,,,,,,,,,,,,,,,,,,,1962.008,2022.005,0,3,3,0,1,sequence_tables/blk016.csv
,,6595989e0806f2bf1d2b4f55,65af5919ba138c82e9dc72b8,2024-01-23_08h14.28.118,bars,2023.2.3,MacIntel,62.5,657b66ea316d21385b68909f,,,,,,,,,,,2025.461,2026.455,,,2026.955,2027.205,,72,72,,,,,,,,,,,,,,,,bars/018.png,bars/mask005.png,,,,,,,,,,,,3,2,,,,,,,9,7,10,7,,,,,,2022.006,2025.455,space,3.433,,2026.455,2026.955,2027.205,2035.772,space,8.553,,2035.772,78,18,2036.772,2036.772,2036.777,,,,0,0,0,0,1,150,90,,,,,,,,
,,6595989e0806f2bf1d2b4f55,65af5919ba138c82e9dc72b8,2024-01-23_08h14.28.118,bars,2023.2.3,MacIntel,62.5,657b66ea316d21385b68909f,,,,,,,,,,,2036.777,2037.772,,,2038.271,2038.522,,97,97,,,,,,,,,,,,,,,,bars/038.png,bars/mask001.png,,,,,,,,,,,,0,2,,,,,,,7,5,7,4,,,,,,,,,,,2037.772,2038.271,2038.522,2041.639,space,3.106,,2041.639,68,27,2042.639,2042.639,2042.64,,,,0,1,1,1,1,165,70,,,,,,,,
,,6595989e0806f2bf1d2b4f55,65af5919ba138c82e9dc72b8,2024-01-23_08h14.28.118,bars,2023.2.3,MacIntel,62.5,657b66ea316d21385b68909f,,,,,,,,,,,2042.641,2043.638,,,2044.139,2044.389,,157,157,,,,,,,,,,,,,,,,bars/002.png,bars/mask001.png,,,,,,,,,,,,0,1,,,,,,,5,7,3,7,,,,,,,,,,,2043.638,2044.139,2044.389,2044.905,space,0.504,,2044.905,27,72,2045.905,2045.905,2045.908,,,,0,2,2,2,1,130,85,,,,,,,,
,,6595989e0806f2bf1d2b4f55,65af5919ba138c82e9dc72b8,2024-01-23_08h14.28.118,bars,2023.2.3,MacIntel,62.5,657b66ea316d21385b68909f,,,,,,,,,,,2045.909,2046.905,,,2047.405,2047.655,,13,13,,,,,,,,,,,,,,,,bars/046.png,bars/mask004.png,,,,,,,,,,,,0,1,,,,,,,7,5,6,6,,,,,,,,,,,2046.905,2047.405,2047.655,2049.372,space,1.709,,2049.372,38,72,2050.372,2050.372,2050.374,,,,0,3,3,3,1,155,85,,,,,,,,
,,6595989e0806f2bf1d2b4f55,65af5919ba138c82e9dc72b8,2024-01-23_08h14.28.118,bars,2023.2.3,MacIntel,62.5,657b66ea316d21385b68909f,,,,,,,,,,,2050.374,2051.372,,,2051.872,2052.121,,163,163,,,,,,,,,,,,,,,,bars/033.png,bars/mask009.png,,,,,,,,,,,,5,2,,,,,,,9,7,9,7,,,,,,,,,,,2051.372,2051.872,2052.121,2053.389,space,1.252,,2053.389,42,8,2054.389,2054.389,2054.393,,,,0,4,4,4,1,25,155,,,,,,,,
,,6595989e0806f2bf1d2b4f55,65af5919ba138c82e9dc72b8,2024-01-23_08h14.28.118,bars,2023.2.3,MacIntel,62.5,657b66ea316d21385b68909f,,,,,,,,,,,2054.393,2055.389,,,2055.889,2056.139,,55,55,,,,,,,,,,,,,,,,bars/007.png,bars/mask002.png,,,,,,,,,,,,5,2,,,,,,,7,5,6,5,,,,,,,,,,,2055.389,2055.889,2056.139,2057.256,space,1.102,,2057.256,60,0,2058.255,2058.255,2058.257,,,,0,5,5,5,1,175,55,,,,,,,,
,,6595989e0806f2bf1d2b4f55,65af5919ba138c82e9dc72b8,2024-01-23_08h14.28.118,bars,2023.2.3,MacIntel,62.5,657b66ea316d21385b68909f,,,,,,,,,,,2058.257,2059.255,,,2059.755,2060.005,,104,104,,,,,,,,,,,,,,,,bars/018.png,bars/mask008.png,,,,,,,,,,,,2,2,,,,,,,5,3,5,3,,,,,,,,,,,2059.255,2059.755,2060.005,2061.572,space,1.552,,2061.572,46,14,2062.572,2062.572,2062.574,,,,0,6,6,6,1,150,90,,,,,,,,
,,6595989e0806f2bf1d2b4f55,65af5919ba138c82e9dc72b8,2024-01-23_08h14.28.118,bars,2023.2.3,MacIntel,62.5,657b66ea316d21385b68909f,,,,,,,,,,,2062.575,2063.572,,,2064.072,2064.322,,52,52,,,,,,,,,,,,,,,,bars/042.png,bars/mask006.png,,,,,,,,,,,,0,2,,,,,,,7,1,7,2,,,,,,,,,,,2063.572,2064.072,2064.323,2066.039,space,1.705,,2066.039,87,23,2067.039,2067.039,2067.041,,,,0,7,7,7,1,145,75,,,,,,,,
,,6595989e0806f2bf1d2b4f55,65af5919ba138c82e9dc72b8,2024-01-23_08h14.28.118,bars,2023.2.3,MacIntel,62.5,657b66ea316d21385b68909f,,,,,,,,,,,2067.041,2068.039,,,2068.539,2068.789,,94,94,,,,,,,,,,,,,,,,bars/013.png,bars/mask000.png,,,,,,,,,,,,3,1,,,,,,,9,3,9,3,,,,,,,,,,,2068.039,2068.539,2068.789,2072.172,space,3.368,,2072.172,19,84,2073.172,2073.172,2073.176,,,,0,8,8,8,1,75,10,,,,,,,,
,,6595989e0806f2bf1d2b4f55,65af5919ba138c82e9dc72b8,2024-01-23_08h14.28.118,bars,2023.2.3,MacIntel,62.5,657b66ea316d21385b68909f,,,,,,,,,,,2073.176,2074.172,,,2074.673,2074.922,,36,36,,,,,,,,,,,,,,,,bars/040.png,bars/mask007.png,,,,,,,,,,,,0,2,,,,,,,10,5,10,8,,,,,,,,,,,2074.172,2074.673,2074.923,2076.739,space,1.805,,2076.739,76,31,2077.739,2077.739,2077.745,,,,0,9,9,9,1,140,5,,,,,,,,
,,6595989e0806f2bf1d2b4f55,65af5919ba138c82e9dc72b8,2024-01-23_08h14.28.118,bars,2023.2.3,MacIntel,62.5,657b66ea316d21385b68909f,,,,,,,,,,,2077.745,2078.739,,,2079.239,2079.489,,60,60,,,,,,,,,,,,,,,,bars/035.png,bars/mask000.png,,,,,,,,,,,,5,2,,,,,,,8,7,7,5,,,,,,,,,,,2078.739,2079.239,2079.489,2083.439,space,3.939,,2083.44,65,0,2084.439,2084.439,2084.442,,,,0,10,10,10,1,175,60,,,,,,,,
,,6595989e0806f2bf1d2b4f55,65af5919ba138c82e9dc72b8,2024-01-23_08h14.28.118,bars,2023.2.3,MacIntel,62.5,657b66ea316d21385b68909f,,,,,,,,,,,2084.442,2085.439,,,2085.939,2086.189,,141,141,,,,,,,,,,,,,,,,bars/039.png,bars/mask002.png,,,,,,,,,,,,0,1,,,,,,,10,5,10,5,,,,,,,,,,,2085.439,2085.939,2086.189,2090.622,space,4.423,,2090.623,34,36,2091.622,2091.622,2091.627,,,,0,11,11,11,1,175,105,,,,,,,,
,,6595989e0806f2bf1d2b4f55,65af5919ba138c82e9dc72b8,2024-01-23_08h14.28.118,bars,2023.2.3,MacIntel,62.5,657b66ea316d21385b68909f,,,,,,,,,,,2091.627,2092.622,,,2093.123,2093.372,,28,28,,,,,,,,,,,,,,,,bars/016.png,bars/mask006.png,,,,,,,,,,,,5,1,,,,,,,10,3,8,2,,,,,,,,,,,2092.622,2093.123,2093.372,2102.023,space,8.64,,2102.023,12,43,2103.023,2103.023,2103.025,,,,0,12,12,12,1,40,165,,,,,,,,
,,6595989e0806f2bf1d2b4f55,65af5919ba138c82e9dc72b8,2024-01-23_08h14.28.118,bars,2023.2.3,MacIntel,62.5,657b66ea316d21385b68909f,,,,,,,,,,,2103.025,2104.023,,,2104.523,2104.773,,115,115,,,,,,,,,,,,,,,,bars/043.png,bars/mask000.png,,,,,,,,,,,,3,2,,,,,,,8,5,7,5,,,,,,,,,,,2104.023,2104.523,2104.773,2113.84,space,9.052,,2113.84,85,15,2114.84,2114.84,2114.844,,,,0,13,13,13,1,30,130,,,,,,,,
,,6595989e0806f2bf1d2b4f55,65af5919ba138c82e9dc72b8,2024-01-23_08h14.28.118,bars,2023.2.3,MacIntel,62.5,657b66ea316d21385b68909f,,,,,,,,,,,2114.845,2115.84,,,2116.34,2116.59,,6,6,,,,,,,,,,,,,,,,bars/035.png,bars/mask006.png,,,,,,,,,,,,6,1,,,,,,,10,7,9,6,,,,,,,,,,,2115.84,2116.34,2116.59,2119.506,space,2.903,,2119.507,11,54,2120.506,2120.506,2120.51,,,,0,14,14,14,1,175,60,,,,,,,,
,,6595989e0806f2bf1d2b4f55,65af5919ba138c82e9dc72b8,2024-01-23_08h14.28.118,bars,2023.2.3,MacIntel,62.5,657b66ea316d21385b68909f,,,,,,,,,,,2120.511,2121.506,,,2122.007,2122.256,,175,175,,,,,,,,,,,,,,,,bars/016.png,bars/mask000.png,,,,,,,,,,,,7,2,,,,,,,8,9,9,10,,,,,,,,,,,2121.507,2122.007,2122.256,2124.207,space,1.935,,2124.207,45,10,2125.206,2125.206,2125.21,,,,0,15,15,15,1,40,165,,,,,,,,
,,6595989e0806f2bf1d2b4f55,65af5919ba138c82e9dc72b8,2024-01-23_08h14.28.118,bars,2023.2.3,MacIntel,62.5,657b66ea316d21385b68909f,,,,,,,,,,,2125.21,2126.206,,,2126.707,2126.957,,64,64,,,,,,,,,,,,,,,,bars/002.png,bars/mask004.png,,,,,,,,,,,,3,2,,,,,,,6,10,6,10,,,,,,,,,,,2126.206,2126.707,2126.957,2127.84,space,0.867,,2127.84,66,21,2128.84,2128.84,2128.842,,,,0,16,16,16,1,130,85,,,,,,,,
,,6595989e0806f2bf1d2b4f55,65af5919ba138c82e9dc72b8,2024-01-23_08h14.28.118,bars,2023.2.3,MacIntel,62.5,657b66ea316d21385b68909f,,,,,,,,,,,2128.843,2129.84,,,2130.34,2130.59,,82,82,,,,,,,,,,,,,,,,bars/022.png,bars/mask000.png,,,,,,,,,,,,5,1,,,,,,,8,10,8,8,,,,,,,,,,,2129.84,2130.34,2130.59,2132.707,space,2.103,,2132.707,13,62,2133.706,2133.707,2133.71,,,,0,17,17,17,1,95,20,,,,,,,,
,,6595989e0806f2bf1d2b4f55,65af5919ba138c82e9dc72b8,2024-01-23_08h14.28.118,bars,2023.2.3,MacIntel,62.5,657b66ea316d21385b68909f,,,,,,,,,,,2133.711,2134.707,,,2135.207,2135.457,,106,106,,,,,,,,,,,,,,,,bars/044.png,bars/mask006.png,,,,,,,,,,,,0,1,,,,,,,10,10,10,10,,,,,,,,,,,2134.707,2135.207,2135.457,2137.657,space,2.185,,2137.657,31,49,2138.657,2138.657,2138.658,,,,0,18,18,18,1,75,155,,,,,,,,
,,6595989e0806f2bf1d2b4f55,65af5919ba138c82e9dc72b8,2024-01-23_08h14.28.118,bars,2023.2.3,MacIntel,62.5,657b66ea316d21385b68909f,,,,,,,,,,,2138.658,2139.657,,,2140.157,2140.407,,72,72,,,,,,,,,,,,,,,,bars/042.png,bars/mask002.png,,,,,,,,,,,,9,2,,,,,,,8,10,8,10,,,,,,,,,,,2139.657,2140.157,2140.407,2143.09,space,2.667,,2143.09,73,3,2144.09,2144.09,2144.094,,,,0,19,19,19,1,145,75,,,,,,,,
,,6595989e0806f2bf1d2b4f55,65af5919ba138c82e9dc72b8,2024-01-23_08h14.28.118,bars,2023.2.3,MacIntel,62.5,657b66ea316d21385b68909f,,,,,,,,,,,2144.094,2145.09,,,2145.59,2145.84,,97,97,,,,,,,,,,,,,,,,bars/008.png,bars/mask008.png,,,,,,,,,,,,3,1,,,,,,,6,10,6,10,,,,,,,,,,,2145.09,2145.59,2145.84,2147.823,space,1.966,,2147.823,13,83,2148.824,2148.824,2148.828,,,,0,20,20,20,1,110,0,,,,,,,,
,,6595989e0806f2bf1d2b4f55,65af5919ba138c82e9dc72b8,2024-01-23_08h14.28.118,bars,2023.2.3,MacIntel,62.5,657b66ea316d21385b68909f,,,,,,,,,,,2148.828,2149.823,,,2150.324,2150.574,,4,4,,,,,,,,,,,,,,,,bars/023.png,bars/mask003.png,,,,,,,,,,,,5,1,,,,,,,8,10,10,10,,,,,,,,,,,2149.824,2150.324,2150.574,2151.639,space,1.051,,2151.639,16,69,2152.64,2152.64,2152.641,,,,0,21,21,21,1,20,115,,,,,,,,
