init_variables.started,init_variables.stopped,participant,session,date,expName,psychopyVersion,OS,frameRate,study_id,instruction_exp.started,instruction_exp.stopped,key_resp_8.keys,key_resp_8.rt,key_resp_8.duration,instruction_single.started,instruction_single.stopped,key_resp_2.keys,key_resp_2.rt,key_resp_2.duration,interval.started,interval.stopped,cue_single.started,cue_single.stopped,mask.started,mask.stopped,ori_response_single.started,res_ori,res,ori_response_single.stopped,key_resp_single.keys,key_resp_single.rt,key_resp_single.duration,disp_single.started,disp_single.stopped,key_resp.keys,key_resp.rt,key_resp.duration,single.thisRepN,single.thisTrialN,single.thisN,single.thisIndex,single.ran,ori,path,mask_path,instruction_bandit.started,instruction_bandit.stopped,key_resp_6.keys,key_resp_6.rt,key_resp_6.duration,cue_bandit.started,cue_bandit.stopped,bandit_res.keys,bandit_res.rt,bandit_res.duration,outcome_bandit.started,rew,action,outcome_bandit.stopped,bandit.thisRepN,bandit.thisTrialN,bandit.thisN,bandit.thisIndex,bandit.ran,actual_rew1,actual_rew2,rew1,rew2,instruction_task.started,instruction_task.stopped,key_resp_7.keys,key_resp_7.rt,key_resp_7.duration,wait_ready.started,wait_ready.stopped,key_resp_3.keys,key_resp_3.rt,key_resp_3.duration,cue.started,cue.stopped,ori_response.started,ori_response.stopped,key_resp_5.keys,key_resp_5.rt,key_resp_5.duration,outcome.started,diff1,diff2,outcome.stopped,disp_outcome_practice.started,disp_outcome_practice.stopped,key_resp_4.keys,key_resp_4.rt,key_resp_4.duration,trials.thisRepN,trials.thisTrialN,trials.thisN,trials.thisIndex,trials.ran,ori1,ori2,break_blk.started,break_blk.stopped,block.thisRepN,block.thisTrialN,block.thisN,block.thisIndex,block.ran,condition_file
0.0003,0.0005,65a00ff99af130b3edb8695c,65af567196282ee5a0762114,2024-01-23_01h03.18.034,bars,2023.2.3,Win32,59.88023952,657b66ea316d21385b68909f,,,,,,,,,,,,,,,,,,,,,,,,,,,,,,,,,,,,,,,,,,,,,,,,,,,,,,,,,,,,,,,,,,,,,,,,,,,,,,,,,,,,,,,,,,,,,,,,,,,,
,,65a00ff99af130b3edb8695c,65af567196282ee5a0762114,2024-01-23_01h03.18.034,bars,2023.2.3,Win32,59.88023952,657b66ea316d21385b68909f,0.0007,12.9111,y,12.8807,,,,,,,,,,,,,,,,,,,,,,,,,,,,,,,,,,,,,,,,,,,,,,,,,,,,,,,,,,,,,,,,,,,,,,,,,,,,,,,,,,,,,,,,,,,,,,,,
,,65a00ff99af130b3edb8695c,65af567196282ee5a0762114,2024-01-23_01h03.18.034,bars,2023.2.3,Win32,59.88023952,657b66ea316d21385b68909f,,,,,,12.9113,22.0593,space,9.1222,,,,,,,,,,,,,,,,,,,,,,,,,,,,,,,,,,,,,,,,,,,,,,,,,,,,,,,,,,,,,,,,,,,,,,,,,,,,,,,,,,,,,,,,,,,
,,65a00ff99af130b3edb8695c,65af567196282ee5a0762114,2024-01-23_01h03.18.034,bars,2023.2.3,Win32,59.88023952,657b66ea316d21385b68909f,,,,,,,,,,,22.0647,23.0593,23.0594,23.5589,23.5592,23.8089,23.809,89,89,28.4091,space,4.5782,,28.4093,36.4413,space,8.0054,,0,0,0,5,1,55,bars/single005.png,bars/mask008.png,,,,,,,,,,,,,,,,,,,,,,,,,,,,,,,,,,,,,,,,,,,,,,,,,,,,,,,,,,,,,,,,
,,65a00ff99af130b3edb8695c,65af567196282ee5a0762114,2024-01-23_01h03.18.034,bars,2023.2.3,Win32,59.88023952,657b66ea316d21385b68909f,,,,,,,,,,,36.4518,37.4399,37.44,37.9408,37.9409,38.19,38.1901,90,90,43.2061,space,5.0046,,43.2062,46.7055,space,3.477,,0,1,1,4,1,95,bars/single004.png,bars/mask004.png,,,,,,,,,,,,,,,,,,,,,,,,,,,,,,,,,,,,,,,,,,,,,,,,,,,,,,,,,,,,,,,,
,,65a00ff99af130b3edb8695c,65af567196282ee5a0762114,2024-01-23_01h03.18.034,bars,2023.2.3,Win32,59.88023952,657b66ea316d21385b68909f,,,,,,,,,,,46.7059,47.7051,47.7052,48.2052,48.2053,48.4551,48.4551,177,177,52.0713,space,3.6007,,52.0714,54.0711,space,1.9713,,0,2,2,9,1,20,bars/single009.png,bars/mask006.png,,,,,,,,,,,,,,,,,,,,,,,,,,,,,,,,,,,,,,,,,,,,,,,,,,,,,,,,,,,,,,,,
,,65a00ff99af130b3edb8695c,65af567196282ee5a0762114,2024-01-23_01h03.18.034,bars,2023.2.3,Win32,59.88023952,657b66ea316d21385b68909f,,,,,,,,,,,54.0715,55.071,55.071,55.5711,55.5711,55.821,55.821,90,90,59.3872,space,3.5546,,59.3872,61.3035,space,1.8927,,0,3,3,6,1,175,bars/single006.png,bars/mask005.png,,,,,,,,,,,,,,,,,,,,,,,,,,,,,,,,,,,,,,,,,,,,,,,,,,,,,,,,,,,,,,,,
,,65a00ff99af130b3edb8695c,65af567196282ee5a0762114,2024-01-23_01h03.18.034,bars,2023.2.3,Win32,59.88023952,657b66ea316d21385b68909f,,,,,,,,,,,61.3038,62.3032,62.3033,62.8032,62.8033,63.0532,63.0532,0,180,69.9022,space,6.831,,69.9023,72.9519,space,3.0246,,0,4,4,3,1,20,bars/single003.png,bars/mask005.png,,,,,,,,,,,,,,,,,,,,,,,,,,,,,,,,,,,,,,,,,,,,,,,,,,,,,,,,,,,,,,,,
,,65a00ff99af130b3edb8695c,65af567196282ee5a0762114,2024-01-23_01h03.18.034,bars,2023.2.3,Win32,59.88023952,657b66ea316d21385b68909f,,,,,,,,,,,72.9522,73.9516,73.9517,74.4515,74.4515,74.7015,74.7015,0,180,78.668,space,3.9496,,78.668,81.7838,space,3.0897,,0,5,5,8,1,160,bars/single008.png,bars/mask004.png,,,,,,,,,,,,,,,,,,,,,,,,,,,,,,,,,,,,,,,,,,,,,,,,,,,,,,,,,,,,,,,,
,,65a00ff99af130b3edb8695c,65af567196282ee5a0762114,2024-01-23_01h03.18.034,bars,2023.2.3,Win32,59.88023952,657b66ea316d21385b68909f,,,,,,,,,,,81.7916,82.7836,82.7836,83.2834,83.2836,83.5337,83.5337,26,26,85.7833,space,2.2362,,85.7834,92.149,space,6.352,,0,6,6,1,1,20,bars/single001.png,bars/mask006.png,,,,,,,,,,,,,,,,,,,,,,,,,,,,,,,,,,,,,,,,,,,,,,,,,,,,,,,,,,,,,,,,
,,65a00ff99af130b3edb8695c,65af567196282ee5a0762114,2024-01-23_01h03.18.034,bars,2023.2.3,Win32,59.88023952,657b66ea316d21385b68909f,,,,,,,,,,,92.1568,93.1488,93.1488,93.6486,93.6487,93.899,93.899,90,90,98.7148,space,4.8075,,98.7148,102.4809,space,3.7415,,0,7,7,2,1,145,bars/single002.png,bars/mask003.png,,,,,,,,,,,,,,,,,,,,,,,,,,,,,,,,,,,,,,,,,,,,,,,,,,,,,,,,,,,,,,,,
,,65a00ff99af130b3edb8695c,65af567196282ee5a0762114,2024-01-23_01h03.18.034,bars,2023.2.3,Win32,59.88023952,657b66ea316d21385b68909f,,,,,,,,,,,102.4887,103.4807,103.4807,103.9805,103.9806,104.2304,104.2305,0,0,115.229,space,10.9799,,115.2291,117.7787,space,2.5222,,0,8,8,0,1,150,bars/single000.png,bars/mask006.png,,,,,,,,,,,,,,,,,,,,,,,,,,,,,,,,,,,,,,,,,,,,,,,,,,,,,,,,,,,,,,,,
,,65a00ff99af130b3edb8695c,65af567196282ee5a0762114,2024-01-23_01h03.18.034,bars,2023.2.3,Win32,59.88023952,657b66ea316d21385b68909f,,,,,,,,,,,117.779,118.7784,118.7784,119.2784,119.2784,119.5284,119.5284,146,146,124.6279,space,5.0812,,124.628,128.9438,space,4.2878,,0,9,9,7,1,45,bars/single007.png,bars/mask009.png,,,,,,,,,,,,,,,,,,,,,,,,,,,,,,,,,,,,,,,,,,,,,,,,,,,,,,,,,,,,,,,,
,,65a00ff99af130b3edb8695c,65af567196282ee5a0762114,2024-01-23_01h03.18.034,bars,2023.2.3,Win32,59.88023952,657b66ea316d21385b68909f,,,,,,,,,,,,,,,,,,,,,,,,,,,,,,,,,,,,,128.952,148.5083,space,19.534,,,,,,,,,,,,,,,,,,,,,,,,,,,,,,,,,,,,,,,,,,,,,,,,,,,,,,,,,,,,
,,65a00ff99af130b3edb8695c,65af567196282ee5a0762114,2024-01-23_01h03.18.034,bars,2023.2.3,Win32,59.88023952,657b66ea316d21385b68909f,,,,,,,,,,,,,,,,,,,,,,,,,,,,,,,,,,,,,,,,,,148.5179,152.7413,right,4.204,,152.7415,2,2,153.7406,0,0,0,0,1,9,1,9,2,,,,,,,,,,,,,,,,,,,,,,,,,,,,,,,,,,,,,,,,,
,,65a00ff99af130b3edb8695c,65af567196282ee5a0762114,2024-01-23_01h03.18.034,bars,2023.2.3,Win32,59.88023952,657b66ea316d21385b68909f,,,,,,,,,,,,,,,,,,,,,,,,,,,,,,,,,,,,,,,,,,153.7412,154.3405,right,0.5824,,154.3405,1,2,155.3401,0,1,1,1,1,10,0,10,1,,,,,,,,,,,,,,,,,,,,,,,,,,,,,,,,,,,,,,,,,
,,65a00ff99af130b3edb8695c,65af567196282ee5a0762114,2024-01-23_01h03.18.034,bars,2023.2.3,Win32,59.88023952,657b66ea316d21385b68909f,,,,,,,,,,,,,,,,,,,,,,,,,,,,,,,,,,,,,,,,,,155.3404,156.8401,left,1.4816,,156.8401,10,1,157.8398,0,2,2,2,1,10,2,10,2,,,,,,,,,,,,,,,,,,,,,,,,,,,,,,,,,,,,,,,,,
,,65a00ff99af130b3edb8695c,65af567196282ee5a0762114,2024-01-23_01h03.18.034,bars,2023.2.3,Win32,59.88023952,657b66ea316d21385b68909f,,,,,,,,,,,,,,,,,,,,,,,,,,,,,,,,,,,,,,,,,,157.8402,158.3398,right,0.4813,,158.3399,3,2,159.3396,0,3,3,3,1,8,4,7,3,,,,,,,,,,,,,,,,,,,,,,,,,,,,,,,,,,,,,,,,,
,,65a00ff99af130b3edb8695c,65af567196282ee5a0762114,2024-01-23_01h03.18.034,bars,2023.2.3,Win32,59.88023952,657b66ea316d21385b68909f,,,,,,,,,,,,,,,,,,,,,,,,,,,,,,,,,,,,,,,,,,159.3399,160.6062,left,1.2487,,160.6063,5,1,161.6059,0,4,4,4,1,6,2,5,1,,,,,,,,,,,,,,,,,,,,,,,,,,,,,,,,,,,,,,,,,
,,65a00ff99af130b3edb8695c,65af567196282ee5a0762114,2024-01-23_01h03.18.034,bars,2023.2.3,Win32,59.88023952,657b66ea316d21385b68909f,,,,,,,,,,,,,,,,,,,,,,,,,,,,,,,,,,,,,,,,,,161.6062,162.0229,right,0.3998,,162.0229,4,2,163.0224,0,5,5,5,1,4,4,4,4,,,,,,,,,,,,,,,,,,,,,,,,,,,,,,,,,,,,,,,,,
,,65a00ff99af130b3edb8695c,65af567196282ee5a0762114,2024-01-23_01h03.18.034,bars,2023.2.3,Win32,59.88023952,657b66ea316d21385b68909f,,,,,,,,,,,,,,,,,,,,,,,,,,,,,,,,,,,,,,,,,,163.0229,164.1724,right,1.1317,,164.1725,2,2,165.1721,0,6,6,6,1,2,2,1,2,,,,,,,,,,,,,,,,,,,,,,,,,,,,,,,,,,,,,,,,,
,,65a00ff99af130b3edb8695c,65af567196282ee5a0762114,2024-01-23_01h03.18.034,bars,2023.2.3,Win32,59.88023952,657b66ea316d21385b68909f,,,,,,,,,,,,,,,,,,,,,,,,,,,,,,,,,,,,,,,,,,165.1726,165.5221,left,0.3365,,165.5222,0,1,166.5219,0,7,7,7,1,0,0,0,1,,,,,,,,,,,,,,,,,,,,,,,,,,,,,,,,,,,,,,,,,
,,65a00ff99af130b3edb8695c,65af567196282ee5a0762114,2024-01-23_01h03.18.034,bars,2023.2.3,Win32,59.88023952,657b66ea316d21385b68909f,,,,,,,,,,,,,,,,,,,,,,,,,,,,,,,,,,,,,,,,,,166.5223,167.1054,left,0.5656,,167.1054,1,1,168.1051,0,8,8,8,1,0,2,1,0,,,,,,,,,,,,,,,,,,,,,,,,,,,,,,,,,,,,,,,,,
,,65a00ff99af130b3edb8695c,65af567196282ee5a0762114,2024-01-23_01h03.18.034,bars,2023.2.3,Win32,59.88023952,657b66ea316d21385b68909f,,,,,,,,,,,,,,,,,,,,,,,,,,,,,,,,,,,,,,,,,,168.1053,168.4051,left,0.2817,,168.4052,2,1,169.4048,0,9,9,9,1,2,4,2,3,,,,,,,,,,,,,,,,,,,,,,,,,,,,,,,,,,,,,,,,,
,,65a00ff99af130b3edb8695c,65af567196282ee5a0762114,2024-01-23_01h03.18.034,bars,2023.2.3,Win32,59.88023952,657b66ea316d21385b68909f,,,,,,,,,,,,,,,,,,,,,,,,,,,,,,,,,,,,,,,,,,169.4054,170.9546,left,1.5408,,170.9547,0,1,171.9544,0,10,10,10,1,0,2,0,3,,,,,,,,,,,,,,,,,,,,,,,,,,,,,,,,,,,,,,,,,
,,65a00ff99af130b3edb8695c,65af567196282ee5a0762114,2024-01-23_01h03.18.034,bars,2023.2.3,Win32,59.88023952,657b66ea316d21385b68909f,,,,,,,,,,,,,,,,,,,,,,,,,,,,,,,,,,,,,,,,,,171.9547,172.2878,left,0.3191,,172.2879,0,1,173.2875,0,11,11,11,1,0,4,0,3,,,,,,,,,,,,,,,,,,,,,,,,,,,,,,,,,,,,,,,,,
,,65a00ff99af130b3edb8695c,65af567196282ee5a0762114,2024-01-23_01h03.18.034,bars,2023.2.3,Win32,59.88023952,657b66ea316d21385b68909f,,,,,,,,,,,,,,,,,,,,,,,,,,,,,,,,,,,,,,,,,,173.2877,173.6042,left,0.3001,,173.6043,1,1,174.6042,0,12,12,12,1,2,6,1,6,,,,,,,,,,,,,,,,,,,,,,,,,,,,,,,,,,,,,,,,,
,,65a00ff99af130b3edb8695c,65af567196282ee5a0762114,2024-01-23_01h03.18.034,bars,2023.2.3,Win32,59.88023952,657b66ea316d21385b68909f,,,,,,,,,,,,,,,,,,,,,,,,,,,,,,,,,,,,,,,,,,174.6048,174.8707,left,0.2575,,174.8708,1,1,175.8704,0,13,13,13,1,0,4,1,3,,,,,,,,,,,,,,,,,,,,,,,,,,,,,,,,,,,,,,,,,
,,65a00ff99af130b3edb8695c,65af567196282ee5a0762114,2024-01-23_01h03.18.034,bars,2023.2.3,Win32,59.88023952,657b66ea316d21385b68909f,,,,,,,,,,,,,,,,,,,,,,,,,,,,,,,,,,,,,,,,,,175.8707,176.2538,left,0.3649,,176.2538,2,1,177.2536,0,14,14,14,1,2,6,2,7,,,,,,,,,,,,,,,,,,,,,,,,,,,,,,,,,,,,,,,,,
,,65a00ff99af130b3edb8695c,65af567196282ee5a0762114,2024-01-23_01h03.18.034,bars,2023.2.3,Win32,59.88023952,657b66ea316d21385b68909f,,,,,,,,,,,,,,,,,,,,,,,,,,,,,,,,,,,,,,,,,,177.2538,177.6036,left,0.3414,,177.6037,3,1,178.6033,0,15,15,15,1,4,8,3,9,,,,,,,,,,,,,,,,,,,,,,,,,,,,,,,,,,,,,,,,,
,,65a00ff99af130b3edb8695c,65af567196282ee5a0762114,2024-01-23_01h03.18.034,bars,2023.2.3,Win32,59.88023952,657b66ea316d21385b68909f,,,,,,,,,,,,,,,,,,,,,,,,,,,,,,,,,,,,,,,,,,178.6036,178.9869,right,0.3759,,178.987,7,2,179.9865,0,16,16,16,1,6,6,7,7,,,,,,,,,,,,,,,,,,,,,,,,,,,,,,,,,,,,,,,,,
,,65a00ff99af130b3edb8695c,65af567196282ee5a0762114,2024-01-23_01h03.18.034,bars,2023.2.3,Win32,59.88023952,657b66ea316d21385b68909f,,,,,,,,,,,,,,,,,,,,,,,,,,,,,,,,,,,,,,,,,,179.9867,180.2869,right,0.282,,180.287,5,2,181.2864,0,17,17,17,1,8,4,9,5,,,,,,,,,,,,,,,,,,,,,,,,,,,,,,,,,,,,,,,,,
,,65a00ff99af130b3edb8695c,65af567196282ee5a0762114,2024-01-23_01h03.18.034,bars,2023.2.3,Win32,59.88023952,657b66ea316d21385b68909f,,,,,,,,,,,,,,,,,,,,,,,,,,,,,,,,,,,,,,,,,,181.2867,181.5698,right,0.2703,,181.5698,1,2,182.5695,0,18,18,18,1,6,2,5,1,,,,,,,,,,,,,,,,,,,,,,,,,,,,,,,,,,,,,,,,,
,,65a00ff99af130b3edb8695c,65af567196282ee5a0762114,2024-01-23_01h03.18.034,bars,2023.2.3,Win32,59.88023952,657b66ea316d21385b68909f,,,,,,,,,,,,,,,,,,,,,,,,,,,,,,,,,,,,,,,,,,182.5697,183.0198,left,0.432,,183.0198,7,1,184.0194,0,19,19,19,1,8,0,7,0,,,,,,,,,,,,,,,,,,,,,,,,,,,,,,,,,,,,,,,,,
,,65a00ff99af130b3edb8695c,65af567196282ee5a0762114,2024-01-23_01h03.18.034,bars,2023.2.3,Win32,59.88023952,657b66ea316d21385b68909f,,,,,,,,,,,,,,,,,,,,,,,,,,,,,,,,,,,,,,,,,,,,,,,,,,,,,,,,,,,,184.0199,196.4516,space,12.4122,,,,,,,,,,,,,,,,,,,,,,,,,,,,,,,,,,,,,
,,65a00ff99af130b3edb8695c,65af567196282ee5a0762114,2024-01-23_01h03.18.034,bars,2023.2.3,Win32,59.88023952,657b66ea316d21385b68909f,,,,,,,,,,,198.1543,199.1507,,,199.651,199.9005,,153,153,,,,,,,,,,,,,,,,bars/006.png,bars/mask006.png,,,,,,,,,,,,0,2,,,,,,,4,7,3,7,,,,,,196.4615,198.1509,space,1.6778,,199.1509,199.651,199.9007,207.6333,space,7.7093,,207.6335,62,53,208.6326,208.6328,219.4483,space,10.7915,,0,0,0,0,1,35,100,,,,,,,,
,,65a00ff99af130b3edb8695c,65af567196282ee5a0762114,2024-01-23_01h03.18.034,bars,2023.2.3,Win32,59.88023952,657b66ea316d21385b68909f,,,,,,,,,,,219.4566,220.4475,,,220.9476,221.1973,,43,43,,,,,,,,,,,,,,,,bars/026.png,bars/mask009.png,,,,,,,,,,,,5,1,,,,,,,6,5,7,5,,,,,,,,,,,220.4475,220.9476,221.1974,228.8631,space,7.6541,,228.8632,8,42,229.8627,229.8628,237.0119,space,7.1266,,0,1,1,1,1,35,85,,,,,,,,
,,65a00ff99af130b3edb8695c,65af567196282ee5a0762114,2024-01-23_01h03.18.034,bars,2023.2.3,Win32,59.88023952,657b66ea316d21385b68909f,,,,,,,,,,,237.0197,238.0117,,,238.5117,238.7617,,34,34,,,,,,,,,,,,,,,,bars/025.png,bars/mask000.png,,,,,,,,,,,,3,2,,,,,,,4,3,4,4,,,,,,,,,,,238.0117,238.5116,238.7617,245.2946,space,6.5248,,245.2947,71,6,246.2938,246.2938,253.7598,space,7.4377,,0,2,2,2,1,105,40,,,,,,,,
,,65a00ff99af130b3edb8695c,65af567196282ee5a0762114,2024-01-23_01h03.18.034,bars,2023.2.3,Win32,59.88023952,657b66ea316d21385b68909f,,,,,,,,,,,253.7676,254.7594,,,255.2593,255.5094,,77,77,,,,,,,,,,,,,,,,bars/022.png,bars/mask001.png,,,,,,,,,,,,1,1,,,,,,,2,5,2,5,,,,,,,,,,,254.7594,255.2593,255.5094,261.6254,space,6.0993,,261.6254,18,57,262.6248,262.6249,268.9575,space,6.3055,,0,3,3,3,1,95,20,,,,,,,,
,,65a00ff99af130b3edb8695c,65af567196282ee5a0762114,2024-01-23_01h03.18.034,bars,2023.2.3,Win32,59.88023952,657b66ea316d21385b68909f,,,,,,,,,,,268.9654,269.9572,,,270.4573,270.7072,,4,184,,,,,,,,,,,,,,,,bars/035.png,bars/mask006.png,,,,,,,,,,,,1,1,,,,,,,0,3,1,4,,,,,,,,,,,269.9572,270.4573,270.7072,275.49,space,4.7659,,275.49,9,56,276.4896,276.4896,280.7392,space,4.2231,,0,4,4,4,1,175,60,,,,,,,,
,,65a00ff99af130b3edb8695c,65af567196282ee5a0762114,2024-01-23_01h03.18.034,bars,2023.2.3,Win32,59.88023952,657b66ea316d21385b68909f,,,,,,,,,,,280.7473,281.7388,,,282.2389,282.4888,,23,23,,,,,,,,,,,,,,,,bars/014.png,bars/mask009.png,,,,,,,,,,,,0,2,,,,,,,0,5,0,2,,,,,,,,,,,281.7389,282.2388,282.4888,288.9881,space,6.4826,,288.9881,57,23,289.9877,289.9878,294.7872,space,4.7713,,0,5,5,5,1,80,0,,,,,,,,
,,65a00ff99af130b3edb8695c,65af567196282ee5a0762114,2024-01-23_01h03.18.034,bars,2023.2.3,Win32,59.88023952,657b66ea316d21385b68909f,,,,,,,,,,,294.7954,295.7869,,,296.2869,296.5368,,80,-100,,,,,,,,,,,,,,,,bars/037.png,bars/mask002.png,,,,,,,,,,,,1,2,,,,,,,2,7,3,6,,,,,,,,,,,295.7869,296.2868,296.5368,302.3363,space,5.7918,,302.3364,70,25,303.336,303.336,306.119,space,2.7568,,0,6,6,6,1,150,105,,,,,,,,
,,65a00ff99af130b3edb8695c,65af567196282ee5a0762114,2024-01-23_01h03.18.034,bars,2023.2.3,Win32,59.88023952,657b66ea316d21385b68909f,,,,,,,,,,,306.1268,307.1186,,,307.6186,307.8686,,42,42,,,,,,,,,,,,,,,,bars/031.png,bars/mask007.png,,,,,,,,,,,,7,2,,,,,,,0,9,0,9,,,,,,,,,,,307.1186,307.6185,307.8686,311.9016,space,4.0167,,311.9017,78,7,312.9014,312.9015,316.4677,space,3.5376,,0,7,7,7,1,120,35,,,,,,,,
,,65a00ff99af130b3edb8695c,65af567196282ee5a0762114,2024-01-23_01h03.18.034,bars,2023.2.3,Win32,59.88023952,657b66ea316d21385b68909f,,,,,,,,,,,316.477,317.4672,,,317.9673,318.2171,,68,68,,,,,,,,,,,,,,,,bars/002.png,bars/mask009.png,,,,,,,,,,,,4,2,,,,,,,0,10,0,10,,,,,,,,,,,317.4672,317.9673,318.2171,323.0499,space,4.8164,,323.0501,62,17,324.0495,324.0496,333.0818,space,9.0137,,0,8,8,8,1,130,85,,,,,,,,
,,65a00ff99af130b3edb8695c,65af567196282ee5a0762114,2024-01-23_01h03.18.034,bars,2023.2.3,Win32,59.88023952,657b66ea316d21385b68909f,,,,,,,,,,,333.0902,334.0816,,,334.5815,334.8315,,143,143,,,,,,,,,,,,,,,,bars/017.png,bars/mask007.png,,,,,,,,,,,,2,1,,,,,,,2,10,2,10,,,,,,,,,,,334.0816,334.5814,334.8315,340.4142,space,5.564,,340.4143,2,82,341.414,341.4141,346.6803,space,5.2338,,0,9,9,9,1,145,45,,,,,,,,
,,65a00ff99af130b3edb8695c,65af567196282ee5a0762114,2024-01-23_01h03.18.034,bars,2023.2.3,Win32,59.88023952,657b66ea316d21385b68909f,,,,,,,,,,,346.6902,347.6796,,,348.1796,348.4295,,169,-11,,,,,,,,,,,,,,,,bars/012.png,bars/mask008.png,,,,,,,,,,,,1,2,,,,,,,4,10,4,10,,,,,,,,,,,347.6796,348.1795,348.4295,352.0624,space,3.6148,,352.0626,79,26,353.0622,353.0622,354.4454,space,1.3666,,0,10,10,10,1,90,15,,,,,,,,
,,65a00ff99af130b3edb8695c,65af567196282ee5a0762114,2024-01-23_01h03.18.034,bars,2023.2.3,Win32,59.88023952,657b66ea316d21385b68909f,,,,,,,,,,,354.4458,355.4452,,,355.9452,356.195,,79,79,,,,,,,,,,,,,,,,bars/001.png,bars/mask004.png,,,,,,,,,,,,8,2,,,,,,,2,10,0,10,,,,,,,,,,,355.4452,355.9451,356.195,361.7445,space,5.5313,,361.7445,51,6,362.7441,362.7441,368.6268,space,5.8602,,0,11,11,11,1,130,85,,,,,,,,
,,65a00ff99af130b3edb8695c,65af567196282ee5a0762114,2024-01-23_01h03.18.034,bars,2023.2.3,Win32,59.88023952,657b66ea316d21385b68909f,,,,,,,,,,,368.6349,369.6266,,,370.1265,370.3764,,90,90,,,,,,,,,,,,,,,,bars/004.png,bars/mask003.png,,,,,,,,,,,,0,2,,,,,,,4,10,4,10,,,,,,,,,,,369.6266,370.1264,370.3765,375.626,space,5.231,,375.6261,65,35,376.6256,376.6256,379.4253,space,2.7842,,0,12,12,12,1,25,125,,,,,,,,
,,65a00ff99af130b3edb8695c,65af567196282ee5a0762114,2024-01-23_01h03.18.034,bars,2023.2.3,Win32,59.88023952,657b66ea316d21385b68909f,,,,,,,,,,,379.4256,380.425,,,380.925,381.1749,,124,124,,,,,,,,,,,,,,,,bars/004.png,bars/mask002.png,,,,,,,,,,,,7,2,,,,,,,6,8,5,7,,,,,,,,,,,380.425,380.9249,381.1749,385.5577,space,4.3643,,385.5577,81,1,386.5574,386.5574,390.2404,space,3.6597,,0,13,13,13,1,25,125,,,,,,,,
,,65a00ff99af130b3edb8695c,65af567196282ee5a0762114,2024-01-23_01h03.18.034,bars,2023.2.3,Win32,59.88023952,657b66ea316d21385b68909f,,,,,,,,,,,390.2484,391.2401,,,391.7403,391.99,,101,101,,,,,,,,,,,,,,,,bars/047.png,bars/mask009.png,,,,,,,,,,,,0,2,,,,,,,4,10,4,10,,,,,,,,,,,391.2401,391.7402,391.99,395.3064,space,3.3023,,395.3065,86,31,396.3061,396.3062,399.5391,space,3.2091,,0,14,14,14,1,15,70,,,,,,,,
,,65a00ff99af130b3edb8695c,65af567196282ee5a0762114,2024-01-23_01h03.18.034,bars,2023.2.3,Win32,59.88023952,657b66ea316d21385b68909f,,,,,,,,,,,399.5395,400.5389,,,401.0388,401.2887,,0,180,,,,,,,,,,,,,,,,bars/005.png,bars/mask003.png,,,,,,,,,,,,1,1,,,,,,,2,10,2,10,,,,,,,,,,,400.539,401.0388,401.2887,406.5382,space,5.241,,406.5382,10,40,407.5378,407.538,413.5704,space,6.005,,0,15,15,15,1,10,140,,,,,,,,
,,65a00ff99af130b3edb8695c,65af567196282ee5a0762114,2024-01-23_01h03.18.034,bars,2023.2.3,Win32,59.88023952,657b66ea316d21385b68909f,,,,,,,,,,,413.5784,414.5702,,,415.0701,415.3201,,90,90,,,,,,,,,,,,,,,,bars/041.png,bars/mask008.png,,,,,,,,,,,,7,2,,,,,,,4,10,5,8,,,,,,,,,,,414.5702,415.0701,415.3201,419.9863,space,4.6501,,419.9863,70,5,420.9859,420.986,426.2354,space,5.2217,,0,16,16,16,1,20,85,,,,,,,,
,,65a00ff99af130b3edb8695c,65af567196282ee5a0762114,2024-01-23_01h03.18.034,bars,2023.2.3,Win32,59.88023952,657b66ea316d21385b68909f,,,,,,,,,,,426.2436,427.2354,,,427.735,427.9853,,90,90,,,,,,,,,,,,,,,,bars/011.png,bars/mask005.png,,,,,,,,,,,,8,2,,,,,,,6,10,9,9,,,,,,,,,,,427.2354,427.735,427.9853,433.2344,space,5.2309,,433.2345,70,5,434.2341,434.2341,438.3004,space,4.0393,,0,17,17,17,1,160,85,,,,,,,,
,,65a00ff99af130b3edb8695c,65af567196282ee5a0762114,2024-01-23_01h03.18.034,bars,2023.2.3,Win32,59.88023952,657b66ea316d21385b68909f,,,,,,,,,,,438.3085,439.3,,,439.8,440.0499,,153,153,,,,,,,,,,,,,,,,bars/001.png,bars/mask000.png,,,,,,,,,,,,2,1,,,,,,,8,8,7,9,,,,,,,,,,,439.3,439.7999,440.05,443.683,space,3.6145,,443.683,23,68,444.6826,444.6826,446.9491,space,2.2394,,0,18,18,18,1,130,85,,,,,,,,
,,65a00ff99af130b3edb8695c,65af567196282ee5a0762114,2024-01-23_01h03.18.034,bars,2023.2.3,Win32,59.88023952,657b66ea316d21385b68909f,,,,,,,,,,,446.9494,447.9489,,,448.4488,448.6988,,170,-10,,,,,,,,,,,,,,,,bars/032.png,bars/mask008.png,,,,,,,,,,,,0,2,,,,,,,6,10,7,9,,,,,,,,,,,447.9489,448.4488,448.6988,452.7483,space,4.0403,,452.7483,45,30,453.748,453.748,456.7311,space,2.9632,,0,19,19,19,1,125,20,,,,,,,,
,,65a00ff99af130b3edb8695c,65af567196282ee5a0762114,2024-01-23_01h03.18.034,bars,2023.2.3,Win32,59.88023952,657b66ea316d21385b68909f,,,,,,,,,,,456.7394,457.7308,,,458.2307,458.4807,,173,173,,,,,,,,,,,,,,,,bars/010.png,bars/mask008.png,,,,,,,,,,,,3,1,,,,,,,4,8,4,9,,,,,,,,,,,457.7308,458.2307,458.4807,459.464,space,0.9754,,459.464,8,62,460.4638,460.4639,462.3304,space,1.8469,,0,20,20,20,1,165,55,,,,,,,,
,,65a00ff99af130b3edb8695c,65af567196282ee5a0762114,2024-01-23_01h03.18.034,bars,2023.2.3,Win32,59.88023952,657b66ea316d21385b68909f,,,,,,,,,,,462.3307,463.33,,,463.8301,464.0798,,17,17,,,,,,,,,,,,,,,,bars/047.png,bars/mask000.png,,,,,,,,,,,,3,1,,,,,,,2,10,3,10,,,,,,,,,,,463.33,463.8301,464.0799,476.5283,space,12.4303,,476.5284,2,53,477.5283,477.5284,481.6775,space,4.1322,,0,21,21,21,1,15,70,,,,,,,,
,,65a00ff99af130b3edb8695c,65af567196282ee5a0762114,2024-01-23_01h03.18.034,bars,2023.2.3,Win32,59.88023952,657b66ea316d21385b68909f,,,,,,,,,,,481.6858,482.6773,,,483.1775,483.4272,,0,180,,,,,,,,,,,,,,,,bars/047.png,bars/mask006.png,,,,,,,,,,,,2,1,,,,,,,4,10,4,9,,,,,,,,,,,482.6773,483.1775,483.4272,487.1434,space,3.7037,,487.1435,15,70,488.1432,488.1433,489.8931,space,1.7354,,0,22,22,22,1,15,70,,,,,,,,
,,65a00ff99af130b3edb8695c,65af567196282ee5a0762114,2024-01-23_01h03.18.034,bars,2023.2.3,Win32,59.88023952,657b66ea316d21385b68909f,,,,,,,,,,,489.8934,490.8929,,,491.3928,491.6427,,72,72,,,,,,,,,,,,,,,,bars/034.png,bars/mask007.png,,,,,,,,,,,,6,2,,,,,,,6,8,5,8,,,,,,,,,,,490.8929,491.3928,491.6427,494.2924,space,2.6296,,494.2925,53,7,495.2922,495.2922,496.2756,space,0.9566,,0,23,23,23,1,125,65,,,,,,,,
,,65a00ff99af130b3edb8695c,65af567196282ee5a0762114,2024-01-23_01h03.18.034,bars,2023.2.3,Win32,59.88023952,657b66ea316d21385b68909f,,,,,,,,,,,496.2758,497.2753,,,497.7753,498.0251,,0,180,,,,,,,,,,,,,,,,bars/008.png,bars/mask006.png,,,,,,,,,,,,10,2,,,,,,,4,10,2,10,,,,,,,,,,,497.2753,497.7753,498.0252,501.8748,space,3.8396,,501.8749,70,0,502.8744,502.8744,507.3573,space,4.4623,,0,24,24,24,1,110,0,,,,,,,,
,,65a00ff99af130b3edb8695c,65af567196282ee5a0762114,2024-01-23_01h03.18.034,bars,2023.2.3,Win32,59.88023952,657b66ea316d21385b68909f,,,,,,,,,,,507.3651,508.357,,,508.8569,509.1069,,0,180,,,,,,,,,,,,,,,,bars/033.png,bars/mask004.png,,,,,,,,,,,,1,2,,,,,,,2,8,2,9,,,,,,,,,,,508.357,508.8569,509.1069,511.8567,space,2.7417,,511.8567,25,25,512.8564,512.8564,515.5064,space,2.6246,,0,25,25,25,1,25,155,,,,,,,,
,,65a00ff99af130b3edb8695c,65af567196282ee5a0762114,2024-01-23_01h03.18.034,bars,2023.2.3,Win32,59.88023952,657b66ea316d21385b68909f,,,,,,,,,,,515.5069,516.5059,,,517.0058,517.2557,,69,69,,,,,,,,,,,,,,,,bars/021.png,bars/mask008.png,,,,,,,,,,,,10,2,,,,,,,4,10,4,10,,,,,,,,,,,516.5059,517.0057,517.2558,520.4222,space,3.148,,520.4222,86,1,521.4218,521.4219,523.0884,space,1.6468,,0,26,26,26,1,155,70,,,,,,,,
,,65a00ff99af130b3edb8695c,65af567196282ee5a0762114,2024-01-23_01h03.18.034,bars,2023.2.3,Win32,59.88023952,657b66ea316d21385b68909f,,,,,,,,,,,523.0888,524.0882,,,524.5881,524.8381,,11,191,,,,,,,,,,,,,,,,bars/043.png,bars/mask008.png,,,,,,,,,,,,2,1,,,,,,,6,8,5,7,,,,,,,,,,,524.0882,524.5881,524.8382,528.8543,space,3.9977,,528.8544,19,61,529.854,529.854,531.554,space,1.6737,,0,27,27,27,1,30,130,,,,,,,,
,,65a00ff99af130b3edb8695c,65af567196282ee5a0762114,2024-01-23_01h03.18.034,bars,2023.2.3,Win32,59.88023952,657b66ea316d21385b68909f,,,,,,,,,,,531.5544,532.5539,,,533.0536,533.3038,,121,121,,,,,,,,,,,,,,,,bars/025.png,bars/mask002.png,,,,,,,,,,,,3,1,,,,,,,8,10,7,10,,,,,,,,,,,532.5539,533.0536,533.3038,538.5699,space,5.2508,,538.57,16,81,539.5694,539.5694,544.1521,space,4.5555,,0,28,28,28,1,105,40,,,,,,,,
,,65a00ff99af130b3edb8695c,65af567196282ee5a0762114,2024-01-23_01h03.18.034,bars,2023.2.3,Win32,59.88023952,657b66ea316d21385b68909f,,,,,,,,,,,544.16,545.1521,,,545.6523,545.9018,,106,106,,,,,,,,,,,,,,,,bars/023.png,bars/mask005.png,,,,,,,,,,,,5,2,,,,,,,10,8,10,7,,,,,,,,,,,545.1522,545.6523,545.9018,549.8182,space,3.9091,,549.8183,86,9,550.8177,550.8178,552.451,space,1.6171,,0,29,29,29,1,20,115,,,,,,,,
,,65a00ff99af130b3edb8695c,65af567196282ee5a0762114,2024-01-23_01h03.18.034,bars,2023.2.3,Win32,59.88023952,657b66ea316d21385b68909f,,,,,,,,,,,552.4513,553.4507,,,553.9507,554.2007,,6,6,,,,,,,,,,,,,,,,bars/041.png,bars/mask002.png,,,,,,,,,,,,4,1,,,,,,,8,6,8,7,,,,,,,,,,,553.4508,553.9506,554.2007,557.5337,space,3.3223,,557.5338,14,79,558.5333,558.5334,559.7001,space,1.1354,,0,30,30,30,1,20,85,,,,,,,,
,,65a00ff99af130b3edb8695c,65af567196282ee5a0762114,2024-01-23_01h03.18.034,bars,2023.2.3,Win32,59.88023952,657b66ea316d21385b68909f,,,,,,,,,,,559.7005,560.6998,,,561.1998,561.4496,,40,220,,,,,,,,,,,,,,,,bars/019.png,bars/mask007.png,,,,,,,,,,,,8,1,,,,,,,10,4,10,5,,,,,,,,,,,560.6999,561.1997,561.4497,567.3156,space,5.847,,567.3156,5,65,568.3153,568.3153,569.8318,space,1.5008,,0,31,31,31,1,45,105,,,,,,,,
,,65a00ff99af130b3edb8695c,65af567196282ee5a0762114,2024-01-23_01h03.18.034,bars,2023.2.3,Win32,59.88023952,657b66ea316d21385b68909f,,,,,,,,,,,569.8322,570.8316,,,571.3316,571.5814,,7,187,,,,,,,,,,,,,,,,bars/009.png,bars/mask003.png,,,,,,,,,,,,7,1,,,,,,,10,2,10,2,,,,,,,,,,,570.8316,571.3315,571.5815,576.4643,space,4.8647,,576.4645,8,82,577.464,577.464,579.3971,space,1.9165,,0,32,32,32,1,15,105,,,,,,,,
,,65a00ff99af130b3edb8695c,65af567196282ee5a0762114,2024-01-23_01h03.18.034,bars,2023.2.3,Win32,59.88023952,657b66ea316d21385b68909f,,,,,,,,,,,579.3975,580.3969,,,580.8969,581.1467,,137,-43,,,,,,,,,,,,,,,,bars/005.png,bars/mask004.png,,,,,,,,,,,,5,2,,,,,,,10,4,10,6,,,,,,,,,,,580.3969,580.8968,581.1468,583.8799,space,2.7161,,583.8799,53,3,584.8797,584.8798,585.7796,space,0.8726,,0,33,33,33,1,10,140,,,,,,,,
,,65a00ff99af130b3edb8695c,65af567196282ee5a0762114,2024-01-23_01h03.18.034,bars,2023.2.3,Win32,59.88023952,657b66ea316d21385b68909f,,,,,,,,,,,585.7799,586.7793,,,587.2793,587.5292,,73,73,,,,,,,,,,,,,,,,bars/011.png,bars/mask009.png,,,,,,,,,,,,4,2,,,,,,,8,6,6,7,,,,,,,,,,,586.7794,587.2793,587.5292,591.3291,space,3.7853,,591.3292,87,12,592.3285,592.3286,593.8286,space,1.4738,,0,34,34,34,1,160,85,,,,,,,,
,,65a00ff99af130b3edb8695c,65af567196282ee5a0762114,2024-01-23_01h03.18.034,bars,2023.2.3,Win32,59.88023952,657b66ea316d21385b68909f,,,,,,,,,,,593.829,594.8283,,,595.3284,595.578,,47,227,,,,,,,,,,,,,,,,bars/021.png,bars/mask001.png,,,,,,,,,,,,2,2,,,,,,,6,8,7,7,,,,,,,,,,,594.8284,595.3284,595.5781,600.8945,space,5.2978,,600.8947,72,23,601.8941,601.8941,622.9578,space,21.0373,,0,35,35,35,1,155,70,,,,,,,,
,,65a00ff99af130b3edb8695c,65af567196282ee5a0762114,2024-01-23_01h03.18.034,bars,2023.2.3,Win32,59.88023952,657b66ea316d21385b68909f,,,,,,,,,,,622.9665,623.9575,,,624.4574,624.7073,,15,195,,,,,,,,,,,,,,,,bars/004.png,bars/mask006.png,,,,,,,,,,,,6,1,,,,,,,8,10,9,10,,,,,,,,,,,623.9575,624.4574,624.7073,631.0566,space,6.3319,,631.0566,10,70,632.0562,632.0563,637.8223,space,5.7461,,0,36,36,36,1,25,125,,,,,,,,
,,65a00ff99af130b3edb8695c,65af567196282ee5a0762114,2024-01-23_01h03.18.034,bars,2023.2.3,Win32,59.88023952,657b66ea316d21385b68909f,,,,,,,,,,,637.8303,638.8221,,,639.3219,639.5722,,102,102,,,,,,,,,,,,,,,,bars/002.png,bars/mask001.png,,,,,,,,,,,,3,2,,,,,,,10,8,10,8,,,,,,,,,,,638.8221,639.3219,639.5723,641.9716,space,2.3831,,641.9717,28,17,642.9717,642.9717,644.8046,space,1.8148,,0,37,37,37,1,130,85,,,,,,,,
,,65a00ff99af130b3edb8695c,65af567196282ee5a0762114,2024-01-23_01h03.18.034,bars,2023.2.3,Win32,59.88023952,657b66ea316d21385b68909f,,,,,,,,,,,644.805,645.8044,,,646.3044,646.5545,,31,31,,,,,,,,,,,,,,,,bars/005.png,bars/mask003.png,,,,,,,,,,,,3,1,,,,,,,8,10,9,10,,,,,,,,,,,645.8044,646.3043,646.5545,650.9039,space,4.3321,,650.904,21,71,651.9037,651.9038,652.9206,space,0.9863,,0,38,38,38,1,10,140,,,,,,,,
,,65a00ff99af130b3edb8695c,65af567196282ee5a0762114,2024-01-23_01h03.18.034,bars,2023.2.3,Win32,59.88023952,657b66ea316d21385b68909f,,,,,,,,,,,652.9209,653.92,,,654.4201,654.67,,101,101,,,,,,,,,,,,,,,,bars/018.png,bars/mask007.png,,,,,,,,,,,,6,2,,,,,,,6,8,5,9,,,,,,,,,,,653.9202,654.4201,654.67,659.3693,space,4.6814,,659.3694,49,11,660.3689,660.369,667.7682,space,7.3784,,0,39,39,39,1,150,90,,,,,,,,
,,65a00ff99af130b3edb8695c,65af567196282ee5a0762114,2024-01-23_01h03.18.034,bars,2023.2.3,Win32,59.88023952,657b66ea316d21385b68909f,,,,,,,,,,,667.7773,668.7677,,,669.2678,669.5177,,164,164,,,,,,,,,,,,,,,,bars/040.png,bars/mask000.png,,,,,,,,,,,,2,2,,,,,,,4,6,4,6,,,,,,,,,,,668.7677,669.2677,669.5177,671.6342,space,2.109,,671.6343,24,21,672.6339,672.634,674.1172,space,1.475,,0,40,40,40,1,140,5,,,,,,,,
,,65a00ff99af130b3edb8695c,65af567196282ee5a0762114,2024-01-23_01h03.18.034,bars,2023.2.3,Win32,59.88023952,657b66ea316d21385b68909f,,,,,,,,,,,674.1176,675.1169,,,675.6169,675.8667,,90,90,,,,,,,,,,,,,,,,bars/026.png,bars/mask005.png,,,,,,,,,,,,7,2,,,,,,,2,8,2,8,,,,,,,,,,,675.117,675.6168,675.8668,680.3496,space,4.4747,,680.3498,55,5,681.3494,681.3494,691.3814,space,10.017,,0,41,41,41,1,35,85,,,,,,,,
,,65a00ff99af130b3edb8695c,65af567196282ee5a0762114,2024-01-23_01h03.18.034,bars,2023.2.3,Win32,59.88023952,657b66ea316d21385b68909f,,,,,,,,,,,691.3897,692.3811,,,692.8811,693.131,,62,62,,,,,,,,,,,,,,,,bars/045.png,bars/mask002.png,,,,,,,,,,,,0,1,,,,,,,4,10,2,10,,,,,,,,,,,692.3811,692.8811,693.131,697.3805,space,4.2349,,697.3806,38,52,698.3803,698.3803,700.9302,space,2.5219,,0,42,42,42,1,100,10,,,,,,,,
,,65a00ff99af130b3edb8695c,65af567196282ee5a0762114,2024-01-23_01h03.18.034,bars,2023.2.3,Win32,59.88023952,657b66ea316d21385b68909f,,,,,,,,,,,700.9305,701.9301,,,702.4298,702.6797,,137,137,,,,,,,,,,,,,,,,bars/025.png,bars/mask006.png,,,,,,,,,,,,0,1,,,,,,,6,8,6,8,,,,,,,,,,,701.9301,702.4297,702.6798,706.1627,space,3.4749,,706.1627,32,83,707.1624,707.1624,708.2624,space,1.0833,,0,43,43,43,1,105,40,,,,,,,,
,,65a00ff99af130b3edb8695c,65af567196282ee5a0762114,2024-01-23_01h03.18.034,bars,2023.2.3,Win32,59.88023952,657b66ea316d21385b68909f,,,,,,,,,,,708.2627,709.2621,,,709.7621,710.012,,66,66,,,,,,,,,,,,,,,,bars/002.png,bars/mask002.png,,,,,,,,,,,,4,2,,,,,,,4,10,5,10,,,,,,,,,,,709.2621,709.762,710.012,712.0452,space,2.0214,,712.0452,64,19,713.0451,713.0453,714.5115,space,1.4536,,0,44,44,44,1,130,85,,,,,,,,
,,65a00ff99af130b3edb8695c,65af567196282ee5a0762114,2024-01-23_01h03.18.034,bars,2023.2.3,Win32,59.88023952,657b66ea316d21385b68909f,,,,,,,,,,,714.5119,715.5112,,,716.0112,716.2611,,12,12,,,,,,,,,,,,,,,,bars/031.png,bars/mask008.png,,,,,,,,,,,,2,2,,,,,,,2,8,2,8,,,,,,,,,,,715.5113,716.0111,716.2611,720.1108,space,3.8374,,720.1108,72,23,721.1104,721.1105,722.1437,space,1.0075,,0,45,45,45,1,120,35,,,,,,,,
,,65a00ff99af130b3edb8695c,65af567196282ee5a0762114,2024-01-23_01h03.18.034,bars,2023.2.3,Win32,59.88023952,657b66ea316d21385b68909f,,,,,,,,,,,722.144,723.1434,,,723.6434,723.8934,,113,113,,,,,,,,,,,,,,,,bars/040.png,bars/mask002.png,,,,,,,,,,,,0,1,,,,,,,0,10,0,10,,,,,,,,,,,723.1435,723.6434,723.8934,725.4266,space,1.5244,,725.4266,27,72,726.4263,726.4263,727.1097,space,0.6673,,0,46,46,46,1,140,5,,,,,,,,
,,65a00ff99af130b3edb8695c,65af567196282ee5a0762114,2024-01-23_01h03.18.034,bars,2023.2.3,Win32,59.88023952,657b66ea316d21385b68909f,,,,,,,,,,,727.11,728.1095,,,728.6093,728.8593,,39,39,,,,,,,,,,,,,,,,bars/031.png,bars/mask008.png,,,,,,,,,,,,6,2,,,,,,,0,8,0,7,,,,,,,,,,,728.1096,728.6093,728.8593,731.6593,space,2.7812,,731.6593,81,4,732.6588,732.6588,733.8755,space,1.1986,,0,47,47,47,1,120,35,,,,,,,,
,,65a00ff99af130b3edb8695c,65af567196282ee5a0762114,2024-01-23_01h03.18.034,bars,2023.2.3,Win32,59.88023952,657b66ea316d21385b68909f,,,,,,,,,,,733.8758,734.8753,,,735.3751,735.6251,,20,20,,,,,,,,,,,,,,,,bars/031.png,bars/mask008.png,,,,,,,,,,,,5,2,,,,,,,0,10,0,10,,,,,,,,,,,734.8753,735.3751,735.6251,737.425,space,1.7919,,737.425,80,15,738.4246,738.4247,739.1913,space,0.7511,,0,48,48,48,1,120,35,,,,,,,,
,,65a00ff99af130b3edb8695c,65af567196282ee5a0762114,2024-01-23_01h03.18.034,bars,2023.2.3,Win32,59.88023952,657b66ea316d21385b68909f,,,,,,,,,,,739.1917,740.1911,,,740.6912,740.941,,47,47,,,,,,,,,,,,,,,,bars/004.png,bars/mask006.png,,,,,,,,,,,,1,1,,,,,,,2,8,2,10,,,,,,,,,,,740.1911,740.6911,740.941,743.1907,space,2.2309,,743.1908,22,78,744.1906,744.1907,744.874,space,0.6558,,0,49,49,49,1,25,125,,,,,,,,
,,65a00ff99af130b3edb8695c,65af567196282ee5a0762114,2024-01-23_01h03.18.034,bars,2023.2.3,Win32,59.88023952,657b66ea316d21385b68909f,,,,,,,,,,,,,,,,,,,,,,,,,,,,,,,,,,,,,,,,,,,,,,,,,,,,,,,,,,,,,,,,,,,,,,,,,,,,,,,,,,,,,,,,,,,,,744.8746,804.8658,0,0,0,2,1,sequence_tables/blk037.csv
,,65a00ff99af130b3edb8695c,65af567196282ee5a0762114,2024-01-23_01h03.18.034,bars,2023.2.3,Win32,59.88023952,657b66ea316d21385b68909f,,,,,,,,,,,809.5262,810.5145,,,811.0144,811.2646,,165,-15,,,,,,,,,,,,,,,,bars/024.png,bars/mask003.png,,,,,,,,,,,,3,2,,,,,,,1,3,2,3,,,,,,804.8746,809.5148,space,4.6328,,810.5146,811.0144,811.2647,815.1809,space,3.8976,,815.181,45,5,816.1804,816.1805,816.1899,,,,0,0,0,0,1,120,170,,,,,,,,
,,65a00ff99af130b3edb8695c,65af567196282ee5a0762114,2024-01-23_01h03.18.034,bars,2023.2.3,Win32,59.88023952,657b66ea316d21385b68909f,,,,,,,,,,,816.1902,817.1802,,,817.6803,817.9302,,169,169,,,,,,,,,,,,,,,,bars/047.png,bars/mask000.png,,,,,,,,,,,,1,1,,,,,,,3,5,4,6,,,,,,,,,,,817.1802,817.6803,817.9302,820.9632,space,3.0203,,820.9632,26,81,821.9629,821.9629,821.9722,,,,0,1,1,1,1,15,70,,,,,,,,
,,65a00ff99af130b3edb8695c,65af567196282ee5a0762114,2024-01-23_01h03.18.034,bars,2023.2.3,Win32,59.88023952,657b66ea316d21385b68909f,,,,,,,,,,,821.9724,822.9628,,,823.4631,823.7128,,54,54,,,,,,,,,,,,,,,,bars/046.png,bars/mask000.png,,,,,,,,,,,,0,2,,,,,,,1,3,2,3,,,,,,,,,,,822.9629,823.463,823.7128,826.3291,space,2.6066,,826.3291,79,31,827.3289,827.3289,827.3381,,,,0,2,2,2,1,155,85,,,,,,,,
,,65a00ff99af130b3edb8695c,65af567196282ee5a0762114,2024-01-23_01h03.18.034,bars,2023.2.3,Win32,59.88023952,657b66ea316d21385b68909f,,,,,,,,,,,827.3384,828.3287,,,828.8286,829.0786,,38,38,,,,,,,,,,,,,,,,bars/032.png,bars/mask001.png,,,,,,,,,,,,0,2,,,,,,,0,1,1,1,,,,,,,,,,,828.3287,828.8286,829.0787,832.2116,space,3.1247,,832.2116,87,18,833.2115,833.2115,833.222,,,,0,3,3,3,1,125,20,,,,,,,,
,,65a00ff99af130b3edb8695c,65af567196282ee5a0762114,2024-01-23_01h03.18.034,bars,2023.2.3,Win32,59.88023952,657b66ea316d21385b68909f,,,,,,,,,,,833.2223,834.2112,,,834.7112,834.9611,,57,57,,,,,,,,,,,,,,,,bars/007.png,bars/mask002.png,,,,,,,,,,,,3,2,,,,,,,2,3,1,3,,,,,,,,,,,834.2112,834.7112,834.9612,838.4607,space,3.483,,838.4608,62,2,839.4608,839.4609,839.4691,,,,0,4,4,4,1,175,55,,,,,,,,
,,65a00ff99af130b3edb8695c,65af567196282ee5a0762114,2024-01-23_01h03.18.034,bars,2023.2.3,Win32,59.88023952,657b66ea316d21385b68909f,,,,,,,,,,,839.4693,840.4605,,,840.9603,841.2104,,58,58,,,,,,,,,,,,,,,,bars/001.png,bars/mask001.png,,,,,,,,,,,,0,2,,,,,,,4,1,3,1,,,,,,,,,,,840.4605,840.9603,841.2105,842.8268,space,1.6086,,842.8268,72,27,843.8266,843.8266,843.8273,,,,0,5,5,5,1,130,85,,,,,,,,
,,65a00ff99af130b3edb8695c,65af567196282ee5a0762114,2024-01-23_01h03.18.034,bars,2023.2.3,Win32,59.88023952,657b66ea316d21385b68909f,,,,,,,,,,,843.8276,844.8264,,,845.3264,845.5763,,71,71,,,,,,,,,,,,,,,,bars/038.png,bars/mask004.png,,,,,,,,,,,,2,2,,,,,,,6,3,5,2,,,,,,,,,,,844.8264,845.3263,845.5763,849.726,space,4.14,,849.7261,86,1,850.7256,850.7257,850.7339,,,,0,6,6,6,1,165,70,,,,,,,,
,,65a00ff99af130b3edb8695c,65af567196282ee5a0762114,2024-01-23_01h03.18.034,bars,2023.2.3,Win32,59.88023952,657b66ea316d21385b68909f,,,,,,,,,,,850.7341,851.7254,,,852.2253,852.4754,,169,169,,,,,,,,,,,,,,,,bars/048.png,bars/mask007.png,,,,,,,,,,,,3,2,,,,,,,4,5,5,4,,,,,,,,,,,851.7254,852.2253,852.4754,855.0752,space,2.5893,,855.0752,61,6,856.0753,856.0753,856.0852,,,,0,7,7,7,1,50,175,,,,,,,,
,,65a00ff99af130b3edb8695c,65af567196282ee5a0762114,2024-01-23_01h03.18.034,bars,2023.2.3,Win32,59.88023952,657b66ea316d21385b68909f,,,,,,,,,,,856.0854,857.0747,,,857.5746,857.8248,,48,48,,,,,,,,,,,,,,,,bars/031.png,bars/mask004.png,,,,,,,,,,,,5,2,,,,,,,6,7,7,8,,,,,,,,,,,857.0747,857.5746,857.8249,859.8244,space,1.9807,,859.8245,72,13,860.8243,860.8243,860.8251,,,,0,8,8,8,1,120,35,,,,,,,,
,,65a00ff99af130b3edb8695c,65af567196282ee5a0762114,2024-01-23_01h03.18.034,bars,2023.2.3,Win32,59.88023952,657b66ea316d21385b68909f,,,,,,,,,,,860.8253,861.824,,,862.3241,862.5739,,12,192,,,,,,,,,,,,,,,,bars/026.png,bars/mask003.png,,,,,,,,,,,,1,1,,,,,,,4,9,5,8,,,,,,,,,,,861.824,862.3241,862.574,866.1735,space,3.5891,,866.1736,23,73,867.1732,867.1732,867.1823,,,,0,9,9,9,1,35,85,,,,,,,,
,,65a00ff99af130b3edb8695c,65af567196282ee5a0762114,2024-01-23_01h03.18.034,bars,2023.2.3,Win32,59.88023952,657b66ea316d21385b68909f,,,,,,,,,,,867.1826,868.173,,,868.6731,868.9231,,62,62,,,,,,,,,,,,,,,,bars/042.png,bars/mask006.png,,,,,,,,,,,,6,2,,,,,,,6,10,6,10,,,,,,,,,,,868.1731,868.6731,868.9231,872.6559,space,3.7145,,872.6559,83,13,873.6557,873.6557,873.6647,,,,0,10,10,10,1,145,75,,,,,,,,
,,65a00ff99af130b3edb8695c,65af567196282ee5a0762114,2024-01-23_01h03.18.034,bars,2023.2.3,Win32,59.88023952,657b66ea316d21385b68909f,,,,,,,,,,,873.6649,874.6558,,,875.1554,875.4054,,25,205,,,,,,,,,,,,,,,,bars/040.png,bars/mask007.png,,,,,,,,,,,,3,2,,,,,,,8,8,9,9,,,,,,,,,,,874.6558,875.1554,875.4054,879.0217,space,3.5978,,879.0217,65,20,880.0216,880.0216,880.0317,,,,0,11,11,11,1,140,5,,,,,,,,
,,65a00ff99af130b3edb8695c,65af567196282ee5a0762114,2024-01-23_01h03.18.034,bars,2023.2.3,Win32,59.88023952,657b66ea316d21385b68909f,,,,,,,,,,,880.0319,881.0216,,,881.5216,881.7713,,12,192,,,,,,,,,,,,,,,,bars/029.png,bars/mask004.png,,,,,,,,,,,,0,2,,,,,,,6,6,5,8,,,,,,,,,,,881.0216,881.5215,881.7713,886.204,space,4.4172,,886.2041,78,33,887.2037,887.2038,887.2121,,,,0,12,12,12,1,90,45,,,,,,,,
,,65a00ff99af130b3edb8695c,65af567196282ee5a0762114,2024-01-23_01h03.18.034,bars,2023.2.3,Win32,59.88023952,657b66ea316d21385b68909f,,,,,,,,,,,887.2123,888.2036,,,888.7036,888.9535,,162,-18,,,,,,,,,,,,,,,,bars/045.png,bars/mask001.png,,,,,,,,,,,,0,2,,,,,,,4,4,4,5,,,,,,,,,,,888.2036,888.7035,888.9535,893.0864,space,4.1248,,893.0864,62,28,894.0861,894.0862,894.0942,,,,0,13,13,13,1,100,10,,,,,,,,
,,65a00ff99af130b3edb8695c,65af567196282ee5a0762114,2024-01-23_01h03.18.034,bars,2023.2.3,Win32,59.88023952,657b66ea316d21385b68909f,,,,,,,,,,,894.0945,895.0859,,,895.586,895.836,,44,44,,,,,,,,,,,,,,,,bars/028.png,bars/mask008.png,,,,,,,,,,,,6,1,,,,,,,6,6,6,7,,,,,,,,,,,895.086,895.5859,895.836,898.5024,space,2.6566,,898.5024,1,76,899.502,899.5021,899.5113,,,,0,14,14,14,1,45,120,,,,,,,,
,,65a00ff99af130b3edb8695c,65af567196282ee5a0762114,2024-01-23_01h03.18.034,bars,2023.2.3,Win32,59.88023952,657b66ea316d21385b68909f,,,,,,,,,,,899.5114,900.5022,,,901.0019,901.2518,,54,54,,,,,,,,,,,,,,,,bars/047.png,bars/mask008.png,,,,,,,,,,,,1,2,,,,,,,8,4,8,3,,,,,,,,,,,900.5022,901.0019,901.2518,903.3183,space,2.0541,,903.3183,39,16,904.318,904.3181,904.3196,,,,0,15,15,15,1,15,70,,,,,,,,
,,65a00ff99af130b3edb8695c,65af567196282ee5a0762114,2024-01-23_01h03.18.034,bars,2023.2.3,Win32,59.88023952,657b66ea316d21385b68909f,,,,,,,,,,,904.3198,905.3179,,,905.818,906.0678,,170,170,,,,,,,,,,,,,,,,bars/010.png,bars/mask006.png,,,,,,,,,,,,8,1,,,,,,,10,6,10,4,,,,,,,,,,,905.3179,905.818,906.0678,910.2342,space,4.1481,,910.2342,5,65,911.2337,911.2337,911.2427,,,,0,16,16,16,1,165,55,,,,,,,,
,,65a00ff99af130b3edb8695c,65af567196282ee5a0762114,2024-01-23_01h03.18.034,bars,2023.2.3,Win32,59.88023952,657b66ea316d21385b68909f,,,,,,,,,,,911.2429,912.2338,,,912.7335,912.9835,,110,110,,,,,,,,,,,,,,,,bars/027.png,bars/mask004.png,,,,,,,,,,,,10,1,,,,,,,10,4,10,5,,,,,,,,,,,912.2338,912.7334,912.9835,917.0498,space,4.0473,,917.0499,0,60,918.0494,918.0495,918.0577,,,,0,17,17,17,1,110,50,,,,,,,,
,,65a00ff99af130b3edb8695c,65af567196282ee5a0762114,2024-01-23_01h03.18.034,bars,2023.2.3,Win32,59.88023952,657b66ea316d21385b68909f,,,,,,,,,,,918.0578,919.0492,,,919.5492,919.7991,,62,62,,,,,,,,,,,,,,,,bars/002.png,bars/mask008.png,,,,,,,,,,,,2,2,,,,,,,10,6,9,8,,,,,,,,,,,919.0493,919.5492,919.7992,922.8655,space,3.0526,,922.8655,68,23,923.8654,923.8654,923.8746,,,,0,18,18,18,1,130,85,,,,,,,,
,,65a00ff99af130b3edb8695c,65af567196282ee5a0762114,2024-01-23_01h03.18.034,bars,2023.2.3,Win32,59.88023952,657b66ea316d21385b68909f,,,,,,,,,,,923.8747,924.8653,,,925.3651,925.615,,95,95,,,,,,,,,,,,,,,,bars/006.png,bars/mask009.png,,,,,,,,,,,,7,2,,,,,,,10,8,10,8,,,,,,,,,,,924.8654,925.365,925.6151,928.6814,space,3.0493,,928.6814,60,5,929.6811,929.6811,929.6891,,,,0,19,19,19,1,35,100,,,,,,,,
,,65a00ff99af130b3edb8695c,65af567196282ee5a0762114,2024-01-23_01h03.18.034,bars,2023.2.3,Win32,59.88023952,657b66ea316d21385b68909f,,,,,,,,,,,929.6893,930.6811,,,931.181,931.4312,,27,27,,,,,,,,,,,,,,,,bars/022.png,bars/mask004.png,,,,,,,,,,,,5,2,,,,,,,10,6,10,6,,,,,,,,,,,930.6813,931.181,931.4312,933.5309,space,2.082,,933.5309,68,7,934.5305,934.5305,934.531,,,,0,20,20,20,1,95,20,,,,,,,,
,,65a00ff99af130b3edb8695c,65af567196282ee5a0762114,2024-01-23_01h03.18.034,bars,2023.2.3,Win32,59.88023952,657b66ea316d21385b68909f,,,,,,,,,,,934.5313,935.5303,,,936.0303,936.2802,,67,67,,,,,,,,,,,,,,,,bars/014.png,bars/mask004.png,,,,,,,,,,,,4,1,,,,,,,8,4,7,7,,,,,,,,,,,935.5303,936.0303,936.2802,938.23,space,1.9322,,938.2301,13,67,939.2297,939.2298,939.2391,,,,0,21,21,21,1,80,0,,,,,,,,
,,65a00ff99af130b3edb8695c,65af567196282ee5a0762114,2024-01-23_01h03.18.034,bars,2023.2.3,Win32,59.88023952,657b66ea316d21385b68909f,,,,,,,,,,,939.2393,940.2296,,,940.7298,940.9798,,79,79,,,,,,,,,,,,,,,,bars/021.png,bars/mask001.png,,,,,,,,,,,,1,2,,,,,,,10,2,10,2,,,,,,,,,,,940.2296,940.7298,940.9798,945.0624,space,4.0698,,945.0625,76,9,946.0621,946.0622,946.0709,,,,0,22,22,22,1,155,70,,,,,,,,
,,65a00ff99af130b3edb8695c,65af567196282ee5a0762114,2024-01-23_01h03.18.034,bars,2023.2.3,Win32,59.88023952,657b66ea316d21385b68909f,,,,,,,,,,,946.0712,947.062,,,947.5622,947.8119,,5,5,,,,,,,,,,,,,,,,bars/039.png,bars/mask000.png,,,,,,,,,,,,6,1,,,,,,,10,0,9,0,,,,,,,,,,,947.062,947.5622,947.812,950.1451,space,2.316,,950.1451,10,80,951.1447,951.1448,951.1537,,,,0,23,23,23,1,175,105,,,,,,,,
,,65a00ff99af130b3edb8695c,65af567196282ee5a0762114,2024-01-23_01h03.18.034,bars,2023.2.3,Win32,59.88023952,657b66ea316d21385b68909f,,,,,,,,,,,951.154,952.1446,,,952.6445,952.8945,,74,74,,,,,,,,,,,,,,,,bars/019.png,bars/mask009.png,,,,,,,,,,,,0,1,,,,,,,8,2,8,2,,,,,,,,,,,952.1446,952.6445,952.8946,955.2276,space,2.3215,,955.2276,29,31,956.2274,956.2274,956.2355,,,,0,24,24,24,1,45,105,,,,,,,,
,,65a00ff99af130b3edb8695c,65af567196282ee5a0762114,2024-01-23_01h03.18.034,bars,2023.2.3,Win32,59.88023952,657b66ea316d21385b68909f,,,,,,,,,,,956.2356,957.2273,,,957.7272,957.9771,,67,67,,,,,,,,,,,,,,,,bars/019.png,bars/mask007.png,,,,,,,,,,,,3,1,,,,,,,10,4,10,3,,,,,,,,,,,957.2273,957.7272,957.9771,959.9436,space,1.948,,959.9437,22,38,960.9434,960.9434,960.9439,,,,0,25,25,25,1,45,105,,,,,,,,
,,65a00ff99af130b3edb8695c,65af567196282ee5a0762114,2024-01-23_01h03.18.034,bars,2023.2.3,Win32,59.88023952,657b66ea316d21385b68909f,,,,,,,,,,,960.9442,961.9433,,,962.4432,962.6933,,145,-35,,,,,,,,,,,,,,,,bars/018.png,bars/mask000.png,,,,,,,,,,,,7,1,,,,,,,8,6,8,6,,,,,,,,,,,961.9433,962.4432,962.6933,965.2929,space,2.5918,,965.293,5,55,966.2926,966.2927,966.3007,,,,0,26,26,26,1,150,90,,,,,,,,
,,65a00ff99af130b3edb8695c,65af567196282ee5a0762114,2024-01-23_01h03.18.034,bars,2023.2.3,Win32,59.88023952,657b66ea316d21385b68909f,,,,,,,,,,,966.3009,967.2926,,,967.7925,968.0424,,109,109,,,,,,,,,,,,,,,,bars/030.png,bars/mask000.png,,,,,,,,,,,,0,1,,,,,,,6,4,7,4,,,,,,,,,,,967.2926,967.7924,968.0425,971.1756,space,3.1146,,971.1756,31,44,972.1752,972.1752,972.1835,,,,0,27,27,27,1,140,65,,,,,,,,
,,65a00ff99af130b3edb8695c,65af567196282ee5a0762114,2024-01-23_01h03.18.034,bars,2023.2.3,Win32,59.88023952,657b66ea316d21385b68909f,,,,,,,,,,,972.1836,973.1749,,,973.6751,973.925,,132,132,,,,,,,,,,,,,,,,bars/015.png,bars/mask000.png,,,,,,,,,,,,2,1,,,,,,,8,6,7,7,,,,,,,,,,,973.175,973.6751,973.925,977.1912,space,3.2532,,977.1912,22,28,978.1911,978.1912,978.2011,,,,0,28,28,28,1,110,160,,,,,,,,
,,65a00ff99af130b3edb8695c,65af567196282ee5a0762114,2024-01-23_01h03.18.034,bars,2023.2.3,Win32,59.88023952,657b66ea316d21385b68909f,,,,,,,,,,,978.2013,979.1908,,,979.691,979.9407,,132,-48,,,,,,,,,,,,,,,,bars/017.png,bars/mask008.png,,,,,,,,,,,,5,1,,,,,,,10,4,9,5,,,,,,,,,,,979.1909,979.691,979.9408,983.607,space,3.6474,,983.6071,13,87,984.6067,984.6067,984.6149,,,,0,29,29,29,1,145,45,,,,,,,,
,,65a00ff99af130b3edb8695c,65af567196282ee5a0762114,2024-01-23_01h03.18.034,bars,2023.2.3,Win32,59.88023952,657b66ea316d21385b68909f,,,,,,,,,,,984.6151,985.6066,,,986.1068,986.3567,,158,-22,,,,,,,,,,,,,,,,bars/005.png,bars/mask001.png,,,,,,,,,,,,0,2,,,,,,,8,2,8,0,,,,,,,,,,,985.6066,986.1067,986.3567,988.9563,space,2.5885,,988.9564,32,18,989.956,989.956,989.9647,,,,0,30,30,30,1,10,140,,,,,,,,
,,65a00ff99af130b3edb8695c,65af567196282ee5a0762114,2024-01-23_01h03.18.034,bars,2023.2.3,Win32,59.88023952,657b66ea316d21385b68909f,,,,,,,,,,,989.9649,990.9559,,,991.4558,991.706,,141,-39,,,,,,,,,,,,,,,,bars/034.png,bars/mask004.png,,,,,,,,,,,,5,1,,,,,,,10,4,10,4,,,,,,,,,,,990.9559,991.4558,991.706,995.3056,space,3.5832,,995.3056,16,76,996.305,996.305,996.3139,,,,0,31,31,31,1,125,65,,,,,,,,
,,65a00ff99af130b3edb8695c,65af567196282ee5a0762114,2024-01-23_01h03.18.034,bars,2023.2.3,Win32,59.88023952,657b66ea316d21385b68909f,,,,,,,,,,,996.3142,997.3049,,,997.8049,998.0548,,0,180,,,,,,,,,,,,,,,,bars/003.png,bars/mask002.png,,,,,,,,,,,,1,1,,,,,,,8,2,7,2,,,,,,,,,,,997.3049,997.8048,998.0548,1000.588,space,2.5145,,1000.5881,25,40,1001.5879,1001.588,1001.5985,,,,0,32,32,32,1,25,140,,,,,,,,
,,65a00ff99af130b3edb8695c,65af567196282ee5a0762114,2024-01-23_01h03.18.034,bars,2023.2.3,Win32,59.88023952,657b66ea316d21385b68909f,,,,,,,,,,,1001.5988,1002.5875,,,1003.0875,1003.3375,,122,122,,,,,,,,,,,,,,,,bars/030.png,bars/mask005.png,,,,,,,,,,,,4,1,,,,,,,10,0,10,1,,,,,,,,,,,1002.5876,1003.0874,1003.3375,1005.5373,space,2.1905,,1005.5373,18,57,1006.537,1006.537,1006.5377,,,,0,33,33,33,1,140,65,,,,,,,,
,,65a00ff99af130b3edb8695c,65af567196282ee5a0762114,2024-01-23_01h03.18.034,bars,2023.2.3,Win32,59.88023952,657b66ea316d21385b68909f,,,,,,,,,,,1006.538,1007.5368,,,1008.0369,1008.2868,,158,-22,,,,,,,,,,,,,,,,bars/016.png,bars/mask002.png,,,,,,,,,,,,1,2,,,,,,,10,0,10,1,,,,,,,,,,,1007.5368,1008.0369,1008.2868,1012.9362,space,4.6364,,1012.9362,62,7,1013.9359,1013.936,1013.9448,,,,0,34,34,34,1,40,165,,,,,,,,
,,65a00ff99af130b3edb8695c,65af567196282ee5a0762114,2024-01-23_01h03.18.034,bars,2023.2.3,Win32,59.88023952,657b66ea316d21385b68909f,,,,,,,,,,,1013.945,1014.9358,,,1015.4358,1015.6857,,129,129,,,,,,,,,,,,,,,,bars/001.png,bars/mask000.png,,,,,,,,,,,,8,1,,,,,,,8,2,8,2,,,,,,,,,,,1014.9358,1015.4357,1015.6857,1017.1355,space,1.4336,,1017.1355,1,44,1018.1354,1018.1354,1018.137,,,,0,35,35,35,1,130,85,,,,,,,,
,,65a00ff99af130b3edb8695c,65af567196282ee5a0762114,2024-01-23_01h03.18.034,bars,2023.2.3,Win32,59.88023952,657b66ea316d21385b68909f,,,,,,,,,,,1018.1372,1019.1352,,,1019.6353,1019.8851,,37,37,,,,,,,,,,,,,,,,bars/005.png,bars/mask002.png,,,,,,,,,,,,1,1,,,,,,,6,0,6,1,,,,,,,,,,,1019.1353,1019.6352,1019.8851,1022.7182,space,2.8255,,1022.7182,27,77,1023.7179,1023.7179,1023.7259,,,,0,36,36,36,1,10,140,,,,,,,,
,,65a00ff99af130b3edb8695c,65af567196282ee5a0762114,2024-01-23_01h03.18.034,bars,2023.2.3,Win32,59.88023952,657b66ea316d21385b68909f,,,,,,,,,,,1023.7262,1024.7178,,,1025.2177,1025.4677,,157,-23,,,,,,,,,,,,,,,,bars/036.png,bars/mask007.png,,,,,,,,,,,,5,1,,,,,,,8,2,9,2,,,,,,,,,,,1024.7178,1025.2177,1025.4677,1030.7838,space,5.3085,,1030.7839,12,43,1031.7836,1031.7836,1031.7935,,,,0,37,37,37,1,145,20,,,,,,,,
,,65a00ff99af130b3edb8695c,65af567196282ee5a0762114,2024-01-23_01h03.18.034,bars,2023.2.3,Win32,59.88023952,657b66ea316d21385b68909f,,,,,,,,,,,1031.7936,1032.7833,,,1033.2832,1033.5332,,146,146,,,,,,,,,,,,,,,,bars/044.png,bars/mask005.png,,,,,,,,,,,,4,2,,,,,,,10,4,10,6,,,,,,,,,,,1032.7833,1033.2832,1033.5332,1035.8831,space,2.3357,,1035.8831,71,9,1036.8827,1036.8828,1036.8852,,,,0,38,38,38,1,75,155,,,,,,,,
,,65a00ff99af130b3edb8695c,65af567196282ee5a0762114,2024-01-23_01h03.18.034,bars,2023.2.3,Win32,59.88023952,657b66ea316d21385b68909f,,,,,,,,,,,1036.8857,1037.8826,,,1038.3826,1038.6325,,27,207,,,,,,,,,,,,,,,,bars/012.png,bars/mask002.png,,,,,,,,,,,,3,2,,,,,,,10,6,9,5,,,,,,,,,,,1037.8827,1038.3826,1038.6325,1043.0322,space,4.3833,,1043.0322,63,12,1044.0318,1044.0319,1044.0399,,,,0,39,39,39,1,90,15,,,,,,,,
,,65a00ff99af130b3edb8695c,65af567196282ee5a0762114,2024-01-23_01h03.18.034,bars,2023.2.3,Win32,59.88023952,657b66ea316d21385b68909f,,,,,,,,,,,1044.04,1045.0315,,,1045.5317,1045.7814,,165,-15,,,,,,,,,,,,,,,,bars/018.png,bars/mask005.png,,,,,,,,,,,,5,1,,,,,,,10,4,10,3,,,,,,,,,,,1045.0316,1045.5316,1045.7815,1050.8483,space,5.0595,,1050.8483,15,75,1051.8475,1051.8476,1051.8563,,,,0,40,40,40,1,150,90,,,,,,,,
,,65a00ff99af130b3edb8695c,65af567196282ee5a0762114,2024-01-23_01h03.18.034,bars,2023.2.3,Win32,59.88023952,657b66ea316d21385b68909f,,,,,,,,,,,1051.8565,1052.8471,,,1053.3471,1053.597,,159,-21,,,,,,,,,,,,,,,,bars/039.png,bars/mask000.png,,,,,,,,,,,,5,1,,,,,,,10,2,10,2,,,,,,,,,,,1052.8472,1053.3471,1053.5971,1058.4631,space,4.8585,,1058.4631,16,54,1059.4628,1059.4629,1059.471,,,,0,41,41,41,1,175,105,,,,,,,,
,,65a00ff99af130b3edb8695c,65af567196282ee5a0762114,2024-01-23_01h03.18.034,bars,2023.2.3,Win32,59.88023952,657b66ea316d21385b68909f,,,,,,,,,,,1059.4712,1060.4627,,,1060.9628,1061.2126,,156,156,,,,,,,,,,,,,,,,bars/038.png,bars/mask003.png,,,,,,,,,,,,5,1,,,,,,,8,0,7,0,,,,,,,,,,,1060.4627,1060.9628,1061.2126,1064.5456,space,3.3252,,1064.5456,9,86,1065.5454,1065.5454,1065.5535,,,,0,42,42,42,1,165,70,,,,,,,,
,,65a00ff99af130b3edb8695c,65af567196282ee5a0762114,2024-01-23_01h03.18.034,bars,2023.2.3,Win32,59.88023952,657b66ea316d21385b68909f,,,,,,,,,,,1065.5537,1066.5452,,,1067.0452,1067.295,,165,165,,,,,,,,,,,,,,,,bars/037.png,bars/mask005.png,,,,,,,,,,,,3,1,,,,,,,6,0,5,1,,,,,,,,,,,1066.5452,1067.0451,1067.2951,1070.2281,space,2.9155,,1070.2283,15,60,1071.2279,1071.2279,1071.236,,,,0,43,43,43,1,150,105,,,,,,,,
,,65a00ff99af130b3edb8695c,65af567196282ee5a0762114,2024-01-23_01h03.18.034,bars,2023.2.3,Win32,59.88023952,657b66ea316d21385b68909f,,,,,,,,,,,1071.2361,1072.2278,,,1072.7277,1072.9776,,99,99,,,,,,,,,,,,,,,,bars/043.png,bars/mask008.png,,,,,,,,,,,,0,2,,,,,,,8,0,9,0,,,,,,,,,,,1072.2278,1072.7277,1072.9777,1075.4608,space,2.4664,,1075.4608,69,31,1076.4606,1076.4606,1076.4697,,,,0,44,44,44,1,30,130,,,,,,,,
,,65a00ff99af130b3edb8695c,65af567196282ee5a0762114,2024-01-23_01h03.18.034,bars,2023.2.3,Win32,59.88023952,657b66ea316d21385b68909f,,,,,,,,,,,1076.47,1077.4603,,,1077.9603,1078.2103,,25,205,,,,,,,,,,,,,,,,bars/048.png,bars/mask004.png,,,,,,,,,,,,2,1,,,,,,,10,0,10,0,,,,,,,,,,,1077.4603,1077.9603,1078.2103,1082.9931,space,4.7643,,1082.9932,25,30,1083.9928,1083.9928,1084.0016,,,,0,45,45,45,1,50,175,,,,,,,,
,,65a00ff99af130b3edb8695c,65af567196282ee5a0762114,2024-01-23_01h03.18.034,bars,2023.2.3,Win32,59.88023952,657b66ea316d21385b68909f,,,,,,,,,,,1084.0018,1084.9926,,,1085.4926,1085.7425,,50,50,,,,,,,,,,,,,,,,bars/011.png,bars/mask007.png,,,,,,,,,,,,0,2,,,,,,,8,2,7,3,,,,,,,,,,,1084.9927,1085.4926,1085.7425,1088.4757,space,2.7172,,1088.4757,70,35,1089.4753,1089.4753,1089.4841,,,,0,46,46,46,1,160,85,,,,,,,,
,,65a00ff99af130b3edb8695c,65af567196282ee5a0762114,2024-01-23_01h03.18.034,bars,2023.2.3,Win32,59.88023952,657b66ea316d21385b68909f,,,,,,,,,,,1089.4844,1090.4755,,,1090.9751,1091.2254,,57,57,,,,,,,,,,,,,,,,bars/041.png,bars/mask002.png,,,,,,,,,,,,0,2,,,,,,,10,0,10,0,,,,,,,,,,,1090.4755,1090.9751,1091.2254,1093.9082,space,2.6715,,1093.9082,37,28,1094.9079,1094.9079,1094.9158,,,,0,47,47,47,1,20,85,,,,,,,,
,,65a00ff99af130b3edb8695c,65af567196282ee5a0762114,2024-01-23_01h03.18.034,bars,2023.2.3,Win32,59.88023952,657b66ea316d21385b68909f,,,,,,,,,,,1094.916,1095.9078,,,1096.4077,1096.6576,,127,-53,,,,,,,,,,,,,,,,bars/001.png,bars/mask000.png,,,,,,,,,,,,5,1,,,,,,,8,2,6,2,,,,,,,,,,,1095.9078,1096.4077,1096.6576,1102.4071,space,5.7311,,1102.4071,3,42,1103.4067,1103.4068,1103.4162,,,,0,48,48,48,1,130,85,,,,,,,,
,,65a00ff99af130b3edb8695c,65af567196282ee5a0762114,2024-01-23_01h03.18.034,bars,2023.2.3,Win32,59.88023952,657b66ea316d21385b68909f,,,,,,,,,,,1103.4164,1104.4068,,,1104.9065,1105.1567,,59,239,,,,,,,,,,,,,,,,bars/046.png,bars/mask004.png,,,,,,,,,,,,1,2,,,,,,,10,4,9,4,,,,,,,,,,,1104.4068,1104.9065,1105.1567,1109.8392,space,4.6646,,1109.8392,84,26,1110.839,1110.839,1110.8477,,,,0,49,49,49,1,155,85,,,,,,,,
,,65a00ff99af130b3edb8695c,65af567196282ee5a0762114,2024-01-23_01h03.18.034,bars,2023.2.3,Win32,59.88023952,657b66ea316d21385b68909f,,,,,,,,,,,,,,,,,,,,,,,,,,,,,,,,,,,,,,,,,,,,,,,,,,,,,,,,,,,,,,,,,,,,,,,,,,,,,,,,,,,,,,,,,,,,,1110.8479,1204.2609,0,1,1,0,1,sequence_tables/blk036.csv
,,65a00ff99af130b3edb8695c,65af567196282ee5a0762114,2024-01-23_01h03.18.034,bars,2023.2.3,Win32,59.88023952,657b66ea316d21385b68909f,,,,,,,,,,,1209.2028,1210.1917,,,1210.6919,1210.9416,,168,-12,,,,,,,,,,,,,,,,bars/018.png,bars/mask003.png,,,,,,,,,,,,3,1,,,,,,,8,3,7,2,,,,,,1204.27,1209.1919,space,4.9129,,1210.1917,1210.6918,1210.9417,1213.1251,space,2.1649,,1213.1252,18,78,1214.1245,1214.1246,1214.1264,,,,0,0,0,0,1,150,90,,,,,,,,
,,65a00ff99af130b3edb8695c,65af567196282ee5a0762114,2024-01-23_01h03.18.034,bars,2023.2.3,Win32,59.88023952,657b66ea316d21385b68909f,,,,,,,,,,,1214.1269,1215.1245,,,1215.6243,1215.8742,,122,122,,,,,,,,,,,,,,,,bars/006.png,bars/mask001.png,,,,,,,,,,,,1,2,,,,,,,6,5,6,4,,,,,,,,,,,1215.1245,1215.6242,1215.8742,1217.6743,space,1.7831,,1217.6743,87,22,1218.6739,1218.6739,1218.6827,,,,0,1,1,1,1,35,100,,,,,,,,
,,65a00ff99af130b3edb8695c,65af567196282ee5a0762114,2024-01-23_01h03.18.034,bars,2023.2.3,Win32,59.88023952,657b66ea316d21385b68909f,,,,,,,,,,,1218.6829,1219.6737,,,1220.1736,1220.4235,,162,-18,,,,,,,,,,,,,,,,bars/010.png,bars/mask007.png,,,,,,,,,,,,7,1,,,,,,,8,3,8,3,,,,,,,,,,,1219.6737,1220.1736,1220.4236,1222.8233,space,2.381,,1222.8233,3,73,1223.8231,1223.8231,1223.832,,,,0,2,2,2,1,165,55,,,,,,,,
,,65a00ff99af130b3edb8695c,65af567196282ee5a0762114,2024-01-23_01h03.18.034,bars,2023.2.3,Win32,59.88023952,657b66ea316d21385b68909f,,,,,,,,,,,1223.8323,1224.8229,,,1225.3229,1225.5728,,141,-39,,,,,,,,,,,,,,,,bars/004.png,bars/mask009.png,,,,,,,,,,,,2,2,,,,,,,6,5,5,5,,,,,,,,,,,1224.8229,1225.3229,1225.5728,1230.0723,space,4.4894,,1230.0723,64,16,1231.0721,1231.0721,1231.0815,,,,0,3,3,3,1,25,125,,,,,,,,
,,65a00ff99af130b3edb8695c,65af567196282ee5a0762114,2024-01-23_01h03.18.034,bars,2023.2.3,Win32,59.88023952,657b66ea316d21385b68909f,,,,,,,,,,,1231.0817,1232.0721,,,1232.5719,1232.8219,,36,216,,,,,,,,,,,,,,,,bars/031.png,bars/mask006.png,,,,,,,,,,,,3,2,,,,,,,8,3,9,3,,,,,,,,,,,1232.0721,1232.5719,1232.8219,1235.8382,space,2.9982,,1235.8382,84,1,1236.8379,1236.838,1236.8462,,,,0,4,4,4,1,120,35,,,,,,,,
,,65a00ff99af130b3edb8695c,65af567196282ee5a0762114,2024-01-23_01h03.18.034,bars,2023.2.3,Win32,59.88023952,657b66ea316d21385b68909f,,,,,,,,,,,1236.8464,1237.8378,,,1238.3376,1238.5876,,156,156,,,,,,,,,,,,,,,,bars/003.png,bars/mask003.png,,,,,,,,,,,,1,2,,,,,,,6,1,6,2,,,,,,,,,,,1237.8378,1238.3376,1238.5876,1241.3707,space,2.7703,,1241.3707,49,16,1242.3705,1242.3705,1242.3786,,,,0,5,5,5,1,25,140,,,,,,,,
,,65a00ff99af130b3edb8695c,65af567196282ee5a0762114,2024-01-23_01h03.18.034,bars,2023.2.3,Win32,59.88023952,657b66ea316d21385b68909f,,,,,,,,,,,1242.3788,1243.3703,,,1243.8702,1244.1204,,174,-6,,,,,,,,,,,,,,,,bars/044.png,bars/mask000.png,,,,,,,,,,,,1,2,,,,,,,4,3,3,3,,,,,,,,,,,1243.3703,1243.8702,1244.1204,1248.3697,space,4.2316,,1248.3698,81,19,1249.3696,1249.3696,1249.3777,,,,0,6,6,6,1,75,155,,,,,,,,
,,65a00ff99af130b3edb8695c,65af567196282ee5a0762114,2024-01-23_01h03.18.034,bars,2023.2.3,Win32,59.88023952,657b66ea316d21385b68909f,,,,,,,,,,,1249.3779,1250.3693,,,1250.8695,1251.1193,,45,225,,,,,,,,,,,,,,,,bars/027.png,bars/mask008.png,,,,,,,,,,,,1,2,,,,,,,6,1,7,1,,,,,,,,,,,1250.3693,1250.8695,1251.1193,1255.752,space,4.6144,,1255.752,65,5,1256.7518,1256.7518,1256.7599,,,,0,7,7,7,1,110,50,,,,,,,,
,,65a00ff99af130b3edb8695c,65af567196282ee5a0762114,2024-01-23_01h03.18.034,bars,2023.2.3,Win32,59.88023952,657b66ea316d21385b68909f,,,,,,,,,,,1256.7601,1257.7516,,,1258.2516,1258.5015,,0,0,,,,,,,,,,,,,,,,bars/032.png,bars/mask003.png,,,,,,,,,,,,1,2,,,,,,,8,3,9,4,,,,,,,,,,,1257.7516,1258.2516,1258.5015,1261.9012,space,3.391,,1261.9013,55,20,1262.9011,1262.9012,1262.9092,,,,0,8,8,8,1,125,20,,,,,,,,
,,65a00ff99af130b3edb8695c,65af567196282ee5a0762114,2024-01-23_01h03.18.034,bars,2023.2.3,Win32,59.88023952,657b66ea316d21385b68909f,,,,,,,,,,,1262.9093,1263.9007,,,1264.401,1264.6507,,126,126,,,,,,,,,,,,,,,,bars/009.png,bars/mask005.png,,,,,,,,,,,,0,2,,,,,,,10,1,8,1,,,,,,,,,,,1263.9007,1264.4009,1264.6507,1265.8172,space,1.1566,,1265.8172,69,21,1266.8172,1266.8172,1266.8177,,,,0,9,9,9,1,15,105,,,,,,,,
,,65a00ff99af130b3edb8695c,65af567196282ee5a0762114,2024-01-23_01h03.18.034,bars,2023.2.3,Win32,59.88023952,657b66ea316d21385b68909f,,,,,,,,,,,1266.818,1267.8169,,,1268.3168,1268.567,,17,197,,,,,,,,,,,,,,,,bars/044.png,bars/mask007.png,,,,,,,,,,,,0,2,,,,,,,8,3,7,1,,,,,,,,,,,1267.8169,1268.3168,1268.567,1272.2996,space,3.7214,,1272.2997,58,42,1273.2994,1273.2995,1273.3075,,,,0,10,10,10,1,75,155,,,,,,,,
,,65a00ff99af130b3edb8695c,65af567196282ee5a0762114,2024-01-23_01h03.18.034,bars,2023.2.3,Win32,59.88023952,657b66ea316d21385b68909f,,,,,,,,,,,1273.3077,1274.2994,,,1274.7995,1275.0492,,23,203,,,,,,,,,,,,,,,,bars/041.png,bars/mask000.png,,,,,,,,,,,,7,1,,,,,,,10,1,8,2,,,,,,,,,,,1274.2994,1274.7994,1275.0492,1280.3985,space,5.3395,,1280.3986,3,62,1281.3983,1281.3983,1281.4073,,,,0,11,11,11,1,20,85,,,,,,,,
,,65a00ff99af130b3edb8695c,65af567196282ee5a0762114,2024-01-23_01h03.18.034,bars,2023.2.3,Win32,59.88023952,657b66ea316d21385b68909f,,,,,,,,,,,1281.4074,1282.3981,,,1282.8981,1283.1481,,153,-27,,,,,,,,,,,,,,,,bars/015.png,bars/mask002.png,,,,,,,,,,,,0,2,,,,,,,10,0,10,0,,,,,,,,,,,1282.3982,1282.8981,1283.1481,1288.264,space,5.1022,,1288.2641,43,7,1289.264,1289.264,1289.2749,,,,0,12,12,12,1,110,160,,,,,,,,
,,65a00ff99af130b3edb8695c,65af567196282ee5a0762114,2024-01-23_01h03.18.034,bars,2023.2.3,Win32,59.88023952,657b66ea316d21385b68909f,,,,,,,,,,,1289.2751,1290.2637,,,1290.7638,1291.0136,,155,155,,,,,,,,,,,,,,,,bars/018.png,bars/mask000.png,,,,,,,,,,,,8,1,,,,,,,8,2,9,2,,,,,,,,,,,1290.2638,1290.7637,1291.0136,1294.8131,space,3.7884,,1294.8132,5,65,1295.8129,1295.813,1295.8218,,,,0,13,13,13,1,150,90,,,,,,,,
,,65a00ff99af130b3edb8695c,65af567196282ee5a0762114,2024-01-23_01h03.18.034,bars,2023.2.3,Win32,59.88023952,657b66ea316d21385b68909f,,,,,,,,,,,1295.8219,1296.8128,,,1297.3129,1297.5627,,16,16,,,,,,,,,,,,,,,,bars/029.png,bars/mask005.png,,,,,,,,,,,,0,2,,,,,,,10,4,8,6,,,,,,,,,,,1296.8129,1297.3128,1297.5627,1299.9459,space,2.3667,,1299.946,74,29,1300.9455,1300.9455,1300.9543,,,,0,14,14,14,1,90,45,,,,,,,,
,,65a00ff99af130b3edb8695c,65af567196282ee5a0762114,2024-01-23_01h03.18.034,bars,2023.2.3,Win32,59.88023952,657b66ea316d21385b68909f,,,,,,,,,,,1300.9546,1301.9456,,,1302.4454,1302.6954,,4,4,,,,,,,,,,,,,,,,bars/032.png,bars/mask003.png,,,,,,,,,,,,3,2,,,,,,,8,6,8,6,,,,,,,,,,,1301.9456,1302.4454,1302.6954,1306.2115,space,3.4995,,1306.2116,59,16,1307.2114,1307.2115,1307.2196,,,,0,15,15,15,1,125,20,,,,,,,,
,,65a00ff99af130b3edb8695c,65af567196282ee5a0762114,2024-01-23_01h03.18.034,bars,2023.2.3,Win32,59.88023952,657b66ea316d21385b68909f,,,,,,,,,,,1307.2197,1308.2112,,,1308.7112,1308.961,,45,45,,,,,,,,,,,,,,,,bars/022.png,bars/mask004.png,,,,,,,,,,,,1,2,,,,,,,10,8,10,9,,,,,,,,,,,1308.2112,1308.7112,1308.9611,1311.5607,space,2.5921,,1311.5608,50,25,1312.5605,1312.5606,1312.5687,,,,0,16,16,16,1,95,20,,,,,,,,
,,65a00ff99af130b3edb8695c,65af567196282ee5a0762114,2024-01-23_01h03.18.034,bars,2023.2.3,Win32,59.88023952,657b66ea316d21385b68909f,,,,,,,,,,,1312.5688,1313.5605,,,1314.0604,1314.3104,,43,223,,,,,,,,,,,,,,,,bars/033.png,bars/mask002.png,,,,,,,,,,,,4,1,,,,,,,10,10,10,10,,,,,,,,,,,1313.5605,1314.0604,1314.3104,1319.5431,space,5.2235,,1319.5431,18,68,1320.5431,1320.5431,1320.5526,,,,0,17,17,17,1,25,155,,,,,,,,
,,65a00ff99af130b3edb8695c,65af567196282ee5a0762114,2024-01-23_01h03.18.034,bars,2023.2.3,Win32,59.88023952,657b66ea316d21385b68909f,,,,,,,,,,,1320.5527,1321.5426,,,1322.0426,1322.2927,,163,-17,,,,,,,,,,,,,,,,bars/044.png,bars/mask007.png,,,,,,,,,,,,7,2,,,,,,,8,8,9,9,,,,,,,,,,,1321.5426,1322.0426,1322.2927,1326.2254,space,3.9222,,1326.2254,88,8,1327.2255,1327.2255,1327.2345,,,,0,18,18,18,1,75,155,,,,,,,,
,,65a00ff99af130b3edb8695c,65af567196282ee5a0762114,2024-01-23_01h03.18.034,bars,2023.2.3,Win32,59.88023952,657b66ea316d21385b68909f,,,,,,,,,,,1327.2347,1328.2254,,,1328.7251,1328.9753,,176,176,,,,,,,,,,,,,,,,bars/044.png,bars/mask004.png,,,,,,,,,,,,3,2,,,,,,,6,10,5,10,,,,,,,,,,,1328.2254,1328.7251,1328.9753,1333.841,space,4.8493,,1333.841,79,21,1334.8408,1334.8408,1334.8487,,,,0,19,19,19,1,75,155,,,,,,,,
,,65a00ff99af130b3edb8695c,65af567196282ee5a0762114,2024-01-23_01h03.18.034,bars,2023.2.3,Win32,59.88023952,657b66ea316d21385b68909f,,,,,,,,,,,1334.849,1335.8408,,,1336.3406,1336.5906,,51,51,,,,,,,,,,,,,,,,bars/042.png,bars/mask008.png,,,,,,,,,,,,2,2,,,,,,,8,10,7,8,,,,,,,,,,,1335.8409,1336.3406,1336.5906,1338.5737,space,1.9688,,1338.5737,86,24,1339.5736,1339.5736,1339.5821,,,,0,20,20,20,1,145,75,,,,,,,,
,,65a00ff99af130b3edb8695c,65af567196282ee5a0762114,2024-01-23_01h03.18.034,bars,2023.2.3,Win32,59.88023952,657b66ea316d21385b68909f,,,,,,,,,,,1339.5823,1340.5733,,,1341.0733,1341.3232,,47,227,,,,,,,,,,,,,,,,bars/031.png,bars/mask005.png,,,,,,,,,,,,5,2,,,,,,,6,8,5,8,,,,,,,,,,,1340.5733,1341.0732,1341.3232,1346.5392,space,5.2002,,1346.5392,73,12,1347.539,1347.539,1347.5471,,,,0,21,21,21,1,120,35,,,,,,,,
,,65a00ff99af130b3edb8695c,65af567196282ee5a0762114,2024-01-23_01h03.18.034,bars,2023.2.3,Win32,59.88023952,657b66ea316d21385b68909f,,,,,,,,,,,1347.5473,1348.5388,,,1349.0388,1349.2888,,83,83,,,,,,,,,,,,,,,,bars/009.png,bars/mask005.png,,,,,,,,,,,,3,2,,,,,,,4,10,3,10,,,,,,,,,,,1348.5389,1349.0388,1349.2888,1351.6384,space,2.3312,,1351.6385,68,22,1352.6383,1352.6384,1352.6463,,,,0,22,22,22,1,15,105,,,,,,,,
,,65a00ff99af130b3edb8695c,65af567196282ee5a0762114,2024-01-23_01h03.18.034,bars,2023.2.3,Win32,59.88023952,657b66ea316d21385b68909f,,,,,,,,,,,1352.6465,1353.6382,,,1354.1382,1354.3881,,70,70,,,,,,,,,,,,,,,,bars/007.png,bars/mask008.png,,,,,,,,,,,,5,2,,,,,,,2,10,2,10,,,,,,,,,,,1353.6382,1354.1382,1354.3881,1359.6206,space,5.2145,,1359.6207,75,15,1360.6205,1360.6205,1360.6291,,,,0,23,23,23,1,175,55,,,,,,,,
,,65a00ff99af130b3edb8695c,65af567196282ee5a0762114,2024-01-23_01h03.18.034,bars,2023.2.3,Win32,59.88023952,657b66ea316d21385b68909f,,,,,,,,,,,1360.6292,1361.6205,,,1362.1203,1362.3702,,162,-18,,,,,,,,,,,,,,,,bars/010.png,bars/mask001.png,,,,,,,,,,,,0,1,,,,,,,0,8,0,8,,,,,,,,,,,1361.6206,1362.1203,1362.3703,1365.8367,space,3.4591,,1365.8367,3,73,1366.8364,1366.8364,1366.8478,,,,0,24,24,24,1,165,55,,,,,,,,
,,65a00ff99af130b3edb8695c,65af567196282ee5a0762114,2024-01-23_01h03.18.034,bars,2023.2.3,Win32,59.88023952,657b66ea316d21385b68909f,,,,,,,,,,,1366.848,1367.8362,,,1368.3361,1368.5861,,74,254,,,,,,,,,,,,,,,,bars/001.png,bars/mask000.png,,,,,,,,,,,,3,2,,,,,,,2,6,3,4,,,,,,,,,,,1367.8362,1368.3361,1368.5861,1372.8188,space,4.2143,,1372.8189,56,11,1373.8187,1373.8187,1373.8276,,,,0,25,25,25,1,130,85,,,,,,,,
,,65a00ff99af130b3edb8695c,65af567196282ee5a0762114,2024-01-23_01h03.18.034,bars,2023.2.3,Win32,59.88023952,657b66ea316d21385b68909f,,,,,,,,,,,1373.8278,1374.8187,,,1375.3185,1375.5686,,17,197,,,,,,,,,,,,,,,,bars/012.png,bars/mask008.png,,,,,,,,,,,,6,2,,,,,,,0,8,0,6,,,,,,,,,,,1374.8188,1375.3184,1375.5686,1379.6679,space,4.0876,,1379.6679,73,2,1380.6681,1380.6681,1380.6762,,,,0,26,26,26,1,90,15,,,,,,,,
,,65a00ff99af130b3edb8695c,65af567196282ee5a0762114,2024-01-23_01h03.18.034,bars,2023.2.3,Win32,59.88023952,657b66ea316d21385b68909f,,,,,,,,,,,1380.6764,1381.6675,,,1382.1677,1382.4176,,13,13,,,,,,,,,,,,,,,,bars/013.png,bars/mask000.png,,,,,,,,,,,,8,2,,,,,,,2,10,4,9,,,,,,,,,,,1381.6675,1382.1677,1382.4177,1386.7002,space,4.27,,1386.7003,62,3,1387.7,1387.7001,1387.7081,,,,0,27,27,27,1,75,10,,,,,,,,
,,65a00ff99af130b3edb8695c,65af567196282ee5a0762114,2024-01-23_01h03.18.034,bars,2023.2.3,Win32,59.88023952,657b66ea316d21385b68909f,,,,,,,,,,,1387.7083,1388.6999,,,1389.1998,1389.4502,,12,12,,,,,,,,,,,,,,,,bars/044.png,bars/mask005.png,,,,,,,,,,,,0,2,,,,,,,0,8,0,9,,,,,,,,,,,1388.6999,1389.1998,1389.4502,1395.6825,space,6.2252,,1395.6825,63,37,1396.6821,1396.6821,1396.6913,,,,0,28,28,28,1,75,155,,,,,,,,
,,65a00ff99af130b3edb8695c,65af567196282ee5a0762114,2024-01-23_01h03.18.034,bars,2023.2.3,Win32,59.88023952,657b66ea316d21385b68909f,,,,,,,,,,,1396.6915,1397.682,,,1398.1819,1398.4319,,133,133,,,,,,,,,,,,,,,,bars/005.png,bars/mask008.png,,,,,,,,,,,,8,2,,,,,,,0,10,0,10,,,,,,,,,,,1397.682,1398.1819,1398.4319,1404.5644,space,6.1227,,1404.5644,57,7,1405.5642,1405.5642,1405.5729,,,,0,29,29,29,1,10,140,,,,,,,,
,,65a00ff99af130b3edb8695c,65af567196282ee5a0762114,2024-01-23_01h03.18.034,bars,2023.2.3,Win32,59.88023952,657b66ea316d21385b68909f,,,,,,,,,,,1405.5731,1406.564,,,1407.064,1407.314,,114,-66,,,,,,,,,,,,,,,,bars/046.png,bars/mask007.png,,,,,,,,,,,,0,2,,,,,,,2,8,0,9,,,,,,,,,,,1406.564,1407.0639,1407.314,1413.6464,space,6.314,,1413.6465,41,29,1414.6462,1414.6463,1414.6554,,,,0,30,30,30,1,155,85,,,,,,,,
,,65a00ff99af130b3edb8695c,65af567196282ee5a0762114,2024-01-23_01h03.18.034,bars,2023.2.3,Win32,59.88023952,657b66ea316d21385b68909f,,,,,,,,,,,1414.6555,1415.6462,,,1416.1461,1416.396,,164,164,,,,,,,,,,,,,,,,bars/036.png,bars/mask002.png,,,,,,,,,,,,0,1,,,,,,,0,6,1,5,,,,,,,,,,,1415.6462,1416.1461,1416.396,1420.1289,space,3.7223,,1420.1289,19,36,1421.1286,1421.1287,1421.1375,,,,0,31,31,31,1,145,20,,,,,,,,
,,65a00ff99af130b3edb8695c,65af567196282ee5a0762114,2024-01-23_01h03.18.034,bars,2023.2.3,Win32,59.88023952,657b66ea316d21385b68909f,,,,,,,,,,,1421.1377,1422.1287,,,1422.6285,1422.8786,,136,136,,,,,,,,,,,,,,,,bars/005.png,bars/mask008.png,,,,,,,,,,,,3,2,,,,,,,2,4,2,3,,,,,,,,,,,1422.1287,1422.6285,1422.8786,1426.6949,space,3.7977,,1426.695,54,4,1427.6944,1427.6945,1427.7032,,,,0,32,32,32,1,10,140,,,,,,,,
,,65a00ff99af130b3edb8695c,65af567196282ee5a0762114,2024-01-23_01h03.18.034,bars,2023.2.3,Win32,59.88023952,657b66ea316d21385b68909f,,,,,,,,,,,1427.7034,1428.6945,,,1429.1942,1429.4442,,16,16,,,,,,,,,,,,,,,,bars/025.png,bars/mask005.png,,,,,,,,,,,,0,2,,,,,,,4,2,4,2,,,,,,,,,,,1428.6945,1429.1942,1429.4442,1432.977,space,3.5142,,1432.977,89,24,1433.9771,1433.9771,1433.9855,,,,0,33,33,33,1,105,40,,,,,,,,
,,65a00ff99af130b3edb8695c,65af567196282ee5a0762114,2024-01-23_01h03.18.034,bars,2023.2.3,Win32,59.88023952,657b66ea316d21385b68909f,,,,,,,,,,,1433.9857,1434.9768,,,1435.4767,1435.7266,,64,64,,,,,,,,,,,,,,,,bars/039.png,bars/mask003.png,,,,,,,,,,,,0,2,,,,,,,6,0,5,1,,,,,,,,,,,1434.9769,1435.4767,1435.7267,1442.1426,space,6.4088,,1442.1427,69,41,1443.1423,1443.1423,1443.1513,,,,0,34,34,34,1,175,105,,,,,,,,
,,65a00ff99af130b3edb8695c,65af567196282ee5a0762114,2024-01-23_01h03.18.034,bars,2023.2.3,Win32,59.88023952,657b66ea316d21385b68909f,,,,,,,,,,,1443.1515,1444.1423,,,1444.6421,1444.8923,,150,-30,,,,,,,,,,,,,,,,bars/016.png,bars/mask009.png,,,,,,,,,,,,2,2,,,,,,,4,2,2,4,,,,,,,,,,,1444.1424,1444.642,1444.8923,1453.7576,space,8.8577,,1453.7577,70,15,1454.7574,1454.7574,1454.7683,,,,0,35,35,35,1,40,165,,,,,,,,
,,65a00ff99af130b3edb8695c,65af567196282ee5a0762114,2024-01-23_01h03.18.034,bars,2023.2.3,Win32,59.88023952,657b66ea316d21385b68909f,,,,,,,,,,,1454.7686,1455.7571,,,1456.2571,1456.507,,36,216,,,,,,,,,,,,,,,,bars/000.png,bars/mask003.png,,,,,,,,,,,,2,1,,,,,,,2,4,2,4,,,,,,,,,,,1455.7571,1456.2571,1456.507,1459.6399,space,3.1235,,1459.64,4,71,1460.6398,1460.6398,1460.6484,,,,0,36,36,36,1,40,145,,,,,,,,
,,65a00ff99af130b3edb8695c,65af567196282ee5a0762114,2024-01-23_01h03.18.034,bars,2023.2.3,Win32,59.88023952,657b66ea316d21385b68909f,,,,,,,,,,,1460.6486,1461.6396,,,1462.1396,1462.3895,,175,175,,,,,,,,,,,,,,,,bars/008.png,bars/mask009.png,,,,,,,,,,,,3,2,,,,,,,4,2,4,3,,,,,,,,,,,1461.6396,1462.1396,1462.3896,1465.9057,space,3.5054,,1465.9058,65,5,1466.9055,1466.9056,1466.9146,,,,0,37,37,37,1,110,0,,,,,,,,
,,65a00ff99af130b3edb8695c,65af567196282ee5a0762114,2024-01-23_01h03.18.034,bars,2023.2.3,Win32,59.88023952,657b66ea316d21385b68909f,,,,,,,,,,,1466.9148,1467.9054,,,1468.4053,1468.6553,,0,180,,,,,,,,,,,,,,,,bars/018.png,bars/mask007.png,,,,,,,,,,,,0,1,,,,,,,6,4,6,5,,,,,,,,,,,1467.9054,1468.4053,1468.6553,1472.9548,space,4.281,,1472.9548,30,90,1473.9547,1473.9547,1473.9637,,,,0,38,38,38,1,150,90,,,,,,,,
,,65a00ff99af130b3edb8695c,65af567196282ee5a0762114,2024-01-23_01h03.18.034,bars,2023.2.3,Win32,59.88023952,657b66ea316d21385b68909f,,,,,,,,,,,1473.9638,1474.9544,,,1475.4545,1475.7044,,140,-40,,,,,,,,,,,,,,,,bars/009.png,bars/mask001.png,,,,,,,,,,,,0,2,,,,,,,4,6,6,7,,,,,,,,,,,1474.9544,1475.4545,1475.7044,1480.1538,space,4.4332,,1480.1538,55,35,1481.1535,1481.1535,1481.1625,,,,0,39,39,39,1,15,105,,,,,,,,
,,65a00ff99af130b3edb8695c,65af567196282ee5a0762114,2024-01-23_01h03.18.034,bars,2023.2.3,Win32,59.88023952,657b66ea316d21385b68909f,,,,,,,,,,,1481.1626,1482.1534,,,1482.6534,1482.9033,,15,15,,,,,,,,,,,,,,,,bars/014.png,bars/mask005.png,,,,,,,,,,,,2,2,,,,,,,6,4,7,4,,,,,,,,,,,1482.1534,1482.6534,1482.9033,1486.4695,space,3.5571,,1486.4696,65,15,1487.4697,1487.4697,1487.4781,,,,0,40,40,40,1,80,0,,,,,,,,
,,65a00ff99af130b3edb8695c,65af567196282ee5a0762114,2024-01-23_01h03.18.034,bars,2023.2.3,Win32,59.88023952,657b66ea316d21385b68909f,,,,,,,,,,,1487.4783,1488.4693,,,1488.9692,1489.2192,,149,149,,,,,,,,,,,,,,,,bars/003.png,bars/mask003.png,,,,,,,,,,,,1,2,,,,,,,4,2,5,1,,,,,,,,,,,1488.4694,1488.9692,1489.2192,1492.169,space,2.9364,,1492.1691,56,9,1493.1687,1493.1687,1493.1768,,,,0,41,41,41,1,25,140,,,,,,,,
,,65a00ff99af130b3edb8695c,65af567196282ee5a0762114,2024-01-23_01h03.18.034,bars,2023.2.3,Win32,59.88023952,657b66ea316d21385b68909f,,,,,,,,,,,1493.177,1494.1684,,,1494.6685,1494.9183,,37,37,,,,,,,,,,,,,,,,bars/025.png,bars/mask006.png,,,,,,,,,,,,4,2,,,,,,,2,4,3,4,,,,,,,,,,,1494.1685,1494.6685,1494.9183,1497.2347,space,2.3009,,1497.2347,68,3,1498.2347,1498.2347,1498.2427,,,,0,42,42,42,1,105,40,,,,,,,,
,,65a00ff99af130b3edb8695c,65af567196282ee5a0762114,2024-01-23_01h03.18.034,bars,2023.2.3,Win32,59.88023952,657b66ea316d21385b68909f,,,,,,,,,,,1498.2429,1499.2344,,,1499.7344,1499.9842,,40,220,,,,,,,,,,,,,,,,bars/047.png,bars/mask007.png,,,,,,,,,,,,1,1,,,,,,,4,2,5,1,,,,,,,,,,,1499.2344,1499.7343,1499.9843,1502.5841,space,2.5815,,1502.5841,25,30,1503.5838,1503.5838,1503.5929,,,,0,43,43,43,1,15,70,,,,,,,,
,,65a00ff99af130b3edb8695c,65af567196282ee5a0762114,2024-01-23_01h03.18.034,bars,2023.2.3,Win32,59.88023952,657b66ea316d21385b68909f,,,,,,,,,,,1503.5932,1504.5836,,,1505.0837,1505.3335,,147,147,,,,,,,,,,,,,,,,bars/007.png,bars/mask004.png,,,,,,,,,,,,0,1,,,,,,,6,0,5,0,,,,,,,,,,,1504.5837,1505.0836,1505.3336,1507.5665,space,2.2227,,1507.5666,28,88,1508.5663,1508.5664,1508.567,,,,0,44,44,44,1,175,55,,,,,,,,
,,65a00ff99af130b3edb8695c,65af567196282ee5a0762114,2024-01-23_01h03.18.034,bars,2023.2.3,Win32,59.88023952,657b66ea316d21385b68909f,,,,,,,,,,,1508.5673,1509.5662,,,1510.0662,1510.3161,,52,232,,,,,,,,,,,,,,,,bars/002.png,bars/mask007.png,,,,,,,,,,,,0,2,,,,,,,8,0,9,0,,,,,,,,,,,1509.5662,1510.0662,1510.3161,1513.9823,space,3.6476,,1513.9824,78,33,1514.9821,1514.9821,1514.9909,,,,0,45,45,45,1,130,85,,,,,,,,
,,65a00ff99af130b3edb8695c,65af567196282ee5a0762114,2024-01-23_01h03.18.034,bars,2023.2.3,Win32,59.88023952,657b66ea316d21385b68909f,,,,,,,,,,,1514.991,1515.982,,,1516.482,1516.7319,,168,168,,,,,,,,,,,,,,,,bars/045.png,bars/mask009.png,,,,,,,,,,,,0,2,,,,,,,6,0,8,0,,,,,,,,,,,1515.982,1516.4819,1516.732,1519.1816,space,2.4395,,1519.1817,68,22,1520.1814,1520.1815,1520.19,,,,0,46,46,46,1,100,10,,,,,,,,
,,65a00ff99af130b3edb8695c,65af567196282ee5a0762114,2024-01-23_01h03.18.034,bars,2023.2.3,Win32,59.88023952,657b66ea316d21385b68909f,,,,,,,,,,,1520.1902,1521.1812,,,1521.6812,1521.9312,,0,0,,,,,,,,,,,,,,,,bars/015.png,bars/mask005.png,,,,,,,,,,,,1,2,,,,,,,8,2,8,3,,,,,,,,,,,1521.1812,1521.6812,1521.9312,1526.6639,space,4.7143,,1526.664,70,20,1527.6638,1527.6638,1527.6721,,,,0,47,47,47,1,110,160,,,,,,,,
,,65a00ff99af130b3edb8695c,65af567196282ee5a0762114,2024-01-23_01h03.18.034,bars,2023.2.3,Win32,59.88023952,657b66ea316d21385b68909f,,,,,,,,,,,1527.6723,1528.6636,,,1529.1636,1529.4135,,38,38,,,,,,,,,,,,,,,,bars/033.png,bars/mask003.png,,,,,,,,,,,,6,1,,,,,,,10,4,10,3,,,,,,,,,,,1528.6636,1529.1636,1529.4136,1532.5797,space,3.1473,,1532.5797,13,63,1533.5795,1533.5795,1533.5884,,,,0,48,48,48,1,25,155,,,,,,,,
,,65a00ff99af130b3edb8695c,65af567196282ee5a0762114,2024-01-23_01h03.18.034,bars,2023.2.3,Win32,59.88023952,657b66ea316d21385b68909f,,,,,,,,,,,1533.5886,1534.5794,,,1535.0793,1535.3293,,67,67,,,,,,,,,,,,,,,,bars/029.png,bars/mask002.png,,,,,,,,,,,,1,2,,,,,,,10,2,10,2,,,,,,,,,,,1534.5794,1535.0793,1535.3293,1539.1621,space,3.8169,,1539.1621,23,22,1540.162,1540.162,1540.171,,,,0,49,49,49,1,90,45,,,,,,,,
,,65a00ff99af130b3edb8695c,65af567196282ee5a0762114,2024-01-23_01h03.18.034,bars,2023.2.3,Win32,59.88023952,657b66ea316d21385b68909f,,,,,,,,,,,,,,,,,,,,,,,,,,,,,,,,,,,,,,,,,,,,,,,,,,,,,,,,,,,,,,,,,,,,,,,,,,,,,,,,,,,,,,,,,,,,,1540.1712,1600.1704,0,2,2,3,1,sequence_tables/blk046.csv
,,65a00ff99af130b3edb8695c,65af567196282ee5a0762114,2024-01-23_01h03.18.034,bars,2023.2.3,Win32,59.88023952,657b66ea316d21385b68909f,,,,,,,,,,,1685.154,1686.1581,,,1686.6581,1686.908,,160,-20,,,,,,,,,,,,,,,,bars/015.png,bars/mask001.png,,,,,,,,,,,,6,2,,,,,,,7,5,7,6,,,,,,1600.1788,1685.1416,space,84.9455,,1686.1581,1686.6581,1686.908,1689.7411,space,2.818,,1689.7411,50,0,1690.7409,1690.7409,1690.7507,,,,0,0,0,0,1,110,160,,,,,,,,
,,65a00ff99af130b3edb8695c,65af567196282ee5a0762114,2024-01-23_01h03.18.034,bars,2023.2.3,Win32,59.88023952,657b66ea316d21385b68909f,,,,,,,,,,,1690.7509,1691.7406,,,1692.2406,1692.4905,,46,46,,,,,,,,,,,,,,,,bars/000.png,bars/mask009.png,,,,,,,,,,,,8,1,,,,,,,9,3,10,2,,,,,,,,,,,1691.7406,1692.2406,1692.4905,1698.0398,space,5.5387,,1698.0399,6,81,1699.0396,1699.0397,1699.0484,,,,0,1,1,1,1,40,145,,,,,,,,
,,65a00ff99af130b3edb8695c,65af567196282ee5a0762114,2024-01-23_01h03.18.034,bars,2023.2.3,Win32,59.88023952,657b66ea316d21385b68909f,,,,,,,,,,,1699.0487,1700.0394,,,1700.5395,1700.7893,,144,-36,,,,,,,,,,,,,,,,bars/043.png,bars/mask003.png,,,,,,,,,,,,1,2,,,,,,,7,1,6,2,,,,,,,,,,,1700.0395,1700.5393,1700.7893,1704.9554,space,4.1567,,1704.9555,66,14,1705.9553,1705.9553,1705.9643,,,,0,2,2,2,1,30,130,,,,,,,,
,,65a00ff99af130b3edb8695c,65af567196282ee5a0762114,2024-01-23_01h03.18.034,bars,2023.2.3,Win32,59.88023952,657b66ea316d21385b68909f,,,,,,,,,,,1705.9645,1706.9551,,,1707.4552,1707.7051,,84,84,,,,,,,,,,,,,,,,bars/042.png,bars/mask001.png,,,,,,,,,,,,1,2,,,,,,,5,3,5,2,,,,,,,,,,,1706.9551,1707.4552,1707.7051,1709.9881,space,2.2687,,1709.9882,61,9,1710.988,1710.988,1710.9886,,,,0,3,3,3,1,145,75,,,,,,,,
,,65a00ff99af130b3edb8695c,65af567196282ee5a0762114,2024-01-23_01h03.18.034,bars,2023.2.3,Win32,59.88023952,657b66ea316d21385b68909f,,,,,,,,,,,1710.9889,1711.9878,,,1712.4878,1712.7377,,107,287,,,,,,,,,,,,,,,,bars/042.png,bars/mask002.png,,,,,,,,,,,,0,2,,,,,,,7,1,6,2,,,,,,,,,,,1711.9878,1712.4877,1712.7377,1717.9537,space,5.2058,,1717.9537,38,32,1718.9536,1718.9537,1718.9638,,,,0,4,4,4,1,145,75,,,,,,,,
,,65a00ff99af130b3edb8695c,65af567196282ee5a0762114,2024-01-23_01h03.18.034,bars,2023.2.3,Win32,59.88023952,657b66ea316d21385b68909f,,,,,,,,,,,1718.964,1719.9533,,,1720.4533,1720.7033,,74,74,,,,,,,,,,,,,,,,bars/029.png,bars/mask004.png,,,,,,,,,,,,2,1,,,,,,,5,0,5,0,,,,,,,,,,,1719.9533,1720.4533,1720.7033,1724.2028,space,3.4871,,1724.2028,16,29,1725.2026,1725.2027,1725.2114,,,,0,5,5,5,1,90,45,,,,,,,,
,,65a00ff99af130b3edb8695c,65af567196282ee5a0762114,2024-01-23_01h03.18.034,bars,2023.2.3,Win32,59.88023952,657b66ea316d21385b68909f,,,,,,,,,,,1725.2116,1726.2025,,,1726.7025,1726.9523,,156,-24,,,,,,,,,,,,,,,,bars/045.png,bars/mask004.png,,,,,,,,,,,,0,2,,,,,,,7,2,8,3,,,,,,,,,,,1726.2025,1726.7025,1726.9523,1729.3689,space,2.398,,1729.3689,56,34,1730.3685,1730.3685,1730.3778,,,,0,6,6,6,1,100,10,,,,,,,,
,,65a00ff99af130b3edb8695c,65af567196282ee5a0762114,2024-01-23_01h03.18.034,bars,2023.2.3,Win32,59.88023952,657b66ea316d21385b68909f,,,,,,,,,,,1730.3781,1731.3684,,,1731.8683,1732.1183,,10,10,,,,,,,,,,,,,,,,bars/044.png,bars/mask000.png,,,,,,,,,,,,0,2,,,,,,,9,0,10,1,,,,,,,,,,,1731.3684,1731.8683,1732.1183,1736.2844,space,4.1566,,1736.2844,65,35,1737.2842,1737.2842,1737.2925,,,,0,7,7,7,1,75,155,,,,,,,,
,,65a00ff99af130b3edb8695c,65af567196282ee5a0762114,2024-01-23_01h03.18.034,bars,2023.2.3,Win32,59.88023952,657b66ea316d21385b68909f,,,,,,,,,,,1737.2927,1738.2841,,,1738.784,1739.0341,,158,-22,,,,,,,,,,,,,,,,bars/012.png,bars/mask009.png,,,,,,,,,,,,0,2,,,,,,,7,0,6,0,,,,,,,,,,,1738.2841,1738.784,1739.0341,1744.4501,space,5.4001,,1744.4502,68,37,1745.45,1745.45,1745.4616,,,,0,8,8,8,1,90,15,,,,,,,,
,,65a00ff99af130b3edb8695c,65af567196282ee5a0762114,2024-01-23_01h03.18.034,bars,2023.2.3,Win32,59.88023952,657b66ea316d21385b68909f,,,,,,,,,,,1745.4618,1746.4498,,,1746.9496,1747.1997,,166,166,,,,,,,,,,,,,,,,bars/029.png,bars/mask004.png,,,,,,,,,,,,0,2,,,,,,,5,2,4,1,,,,,,,,,,,1746.4498,1746.9495,1747.1997,1751.5662,space,4.3554,,1751.5662,76,59,1752.5654,1752.5655,1752.5736,,,,0,9,9,9,1,90,45,,,,,,,,
,,65a00ff99af130b3edb8695c,65af567196282ee5a0762114,2024-01-23_01h03.18.034,bars,2023.2.3,Win32,59.88023952,657b66ea316d21385b68909f,,,,,,,,,,,1752.5738,1753.5654,,,1754.0652,1754.3153,,155,155,,,,,,,,,,,,,,,,bars/037.png,bars/mask001.png,,,,,,,,,,,,3,1,,,,,,,3,0,4,0,,,,,,,,,,,1753.5655,1754.0652,1754.3153,1757.8148,space,3.4833,,1757.8148,5,50,1758.8148,1758.8148,1758.8239,,,,0,10,10,10,1,150,105,,,,,,,,
,,65a00ff99af130b3edb8695c,65af567196282ee5a0762114,2024-01-23_01h03.18.034,bars,2023.2.3,Win32,59.88023952,657b66ea316d21385b68909f,,,,,,,,,,,1758.8242,1759.8145,,,1760.3145,1760.5644,,11,11,,,,,,,,,,,,,,,,bars/041.png,bars/mask003.png,,,,,,,,,,,,1,1,,,,,,,1,0,1,0,,,,,,,,,,,1759.8146,1760.3145,1760.5644,1764.6638,space,4.09,,1764.6638,9,74,1765.6637,1765.6638,1765.6727,,,,0,11,11,11,1,20,85,,,,,,,,
,,65a00ff99af130b3edb8695c,65af567196282ee5a0762114,2024-01-23_01h03.18.034,bars,2023.2.3,Win32,59.88023952,657b66ea316d21385b68909f,,,,,,,,,,,1765.6729,1766.6634,,,1767.1635,1767.4133,,170,170,,,,,,,,,,,,,,,,bars/027.png,bars/mask001.png,,,,,,,,,,,,0,2,,,,,,,3,0,3,0,,,,,,,,,,,1766.6634,1767.1635,1767.4133,1774.1623,space,6.733,,1774.1625,60,60,1775.1622,1775.1622,1775.1717,,,,0,12,12,12,1,110,50,,,,,,,,
,,65a00ff99af130b3edb8695c,65af567196282ee5a0762114,2024-01-23_01h03.18.034,bars,2023.2.3,Win32,59.88023952,657b66ea316d21385b68909f,,,,,,,,,,,1775.1719,1776.1622,,,1776.6621,1776.9122,,33,33,,,,,,,,,,,,,,,,bars/008.png,bars/mask007.png,,,,,,,,,,,,0,2,,,,,,,5,0,4,0,,,,,,,,,,,1776.1622,1776.662,1776.9122,1780.7115,space,3.7809,,1780.7116,77,33,1781.7113,1781.7114,1781.7194,,,,0,13,13,13,1,110,0,,,,,,,,
,,65a00ff99af130b3edb8695c,65af567196282ee5a0762114,2024-01-23_01h03.18.034,bars,2023.2.3,Win32,59.88023952,657b66ea316d21385b68909f,,,,,,,,,,,1781.7196,1782.7114,,,1783.2112,1783.4614,,160,160,,,,,,,,,,,,,,,,bars/003.png,bars/mask001.png,,,,,,,,,,,,1,2,,,,,,,3,0,3,2,,,,,,,,,,,1782.7115,1783.2111,1783.4614,1788.2271,space,4.747,,1788.2271,45,20,1789.227,1789.227,1789.235,,,,0,14,14,14,1,25,140,,,,,,,,
,,65a00ff99af130b3edb8695c,65af567196282ee5a0762114,2024-01-23_01h03.18.034,bars,2023.2.3,Win32,59.88023952,657b66ea316d21385b68909f,,,,,,,,,,,1789.2352,1790.2267,,,1790.727,1790.9769,,26,206,,,,,,,,,,,,,,,,bars/007.png,bars/mask004.png,,,,,,,,,,,,0,2,,,,,,,5,2,4,3,,,,,,,,,,,1790.2268,1790.7269,1790.9769,1795.8095,space,4.814,,1795.8095,31,29,1796.8094,1796.8094,1796.8182,,,,0,15,15,15,1,175,55,,,,,,,,
,,65a00ff99af130b3edb8695c,65af567196282ee5a0762114,2024-01-23_01h03.18.034,bars,2023.2.3,Win32,59.88023952,657b66ea316d21385b68909f,,,,,,,,,,,1796.8185,1797.809,,,1798.309,1798.559,,144,144,,,,,,,,,,,,,,,,bars/049.png,bars/mask008.png,,,,,,,,,,,,4,1,,,,,,,7,4,8,3,,,,,,,,,,,1797.809,1798.309,1798.559,1805.9579,space,7.3827,,1805.958,16,29,1806.9577,1806.9578,1806.9669,,,,0,16,16,16,1,160,115,,,,,,,,
,,65a00ff99af130b3edb8695c,65af567196282ee5a0762114,2024-01-23_01h03.18.034,bars,2023.2.3,Win32,59.88023952,657b66ea316d21385b68909f,,,,,,,,,,,1806.9672,1807.9576,,,1808.4576,1808.7076,,21,201,,,,,,,,,,,,,,,,bars/021.png,bars/mask002.png,,,,,,,,,,,,0,1,,,,,,,9,2,9,3,,,,,,,,,,,1807.9576,1808.4576,1808.7076,1818.4896,space,9.7736,,1818.4896,46,49,1819.4895,1819.4895,1819.4981,,,,0,17,17,17,1,155,70,,,,,,,,
,,65a00ff99af130b3edb8695c,65af567196282ee5a0762114,2024-01-23_01h03.18.034,bars,2023.2.3,Win32,59.88023952,657b66ea316d21385b68909f,,,,,,,,,,,1819.4983,1820.4892,,,1820.9894,1821.2393,,12,192,,,,,,,,,,,,,,,,bars/021.png,bars/mask009.png,,,,,,,,,,,,0,1,,,,,,,10,0,10,1,,,,,,,,,,,1820.4892,1820.9894,1821.2393,1824.7553,space,3.5082,,1824.7554,37,58,1825.7556,1825.7556,1825.7637,,,,0,18,18,18,1,155,70,,,,,,,,
,,65a00ff99af130b3edb8695c,65af567196282ee5a0762114,2024-01-23_01h03.18.034,bars,2023.2.3,Win32,59.88023952,657b66ea316d21385b68909f,,,,,,,,,,,1825.7639,1826.755,,,1827.2549,1827.5049,,143,143,,,,,,,,,,,,,,,,bars/023.png,bars/mask006.png,,,,,,,,,,,,0,2,,,,,,,10,0,7,0,,,,,,,,,,,1826.755,1827.2549,1827.5049,1830.5378,space,3.0202,,1830.5378,57,28,1831.5376,1831.5376,1831.5465,,,,0,19,19,19,1,20,115,,,,,,,,
,,65a00ff99af130b3edb8695c,65af567196282ee5a0762114,2024-01-23_01h03.18.034,bars,2023.2.3,Win32,59.88023952,657b66ea316d21385b68909f,,,,,,,,,,,1831.5466,1832.5375,,,1833.0377,1833.2874,,55,235,,,,,,,,,,,,,,,,bars/030.png,bars/mask000.png,,,,,,,,,,,,2,2,,,,,,,8,2,7,3,,,,,,,,,,,1832.5375,1833.0377,1833.2874,1838.77,space,5.4641,,1838.7701,85,10,1839.7702,1839.7703,1839.7788,,,,0,20,20,20,1,140,65,,,,,,,,
,,65a00ff99af130b3edb8695c,65af567196282ee5a0762114,2024-01-23_01h03.18.034,bars,2023.2.3,Win32,59.88023952,657b66ea316d21385b68909f,,,,,,,,,,,1839.7791,1840.7697,,,1841.2698,1841.5196,,60,240,,,,,,,,,,,,,,,,bars/026.png,bars/mask004.png,,,,,,,,,,,,1,2,,,,,,,10,4,10,4,,,,,,,,,,,1840.7697,1841.2698,1841.5196,1847.5022,space,5.9694,,1847.5022,25,25,1848.5019,1848.5019,1848.5104,,,,0,21,21,21,1,35,85,,,,,,,,
,,65a00ff99af130b3edb8695c,65af567196282ee5a0762114,2024-01-23_01h03.18.034,bars,2023.2.3,Win32,59.88023952,657b66ea316d21385b68909f,,,,,,,,,,,1848.5105,1849.5018,,,1850.0018,1850.2518,,56,236,,,,,,,,,,,,,,,,bars/012.png,bars/mask009.png,,,,,,,,,,,,0,1,,,,,,,8,2,7,2,,,,,,,,,,,1849.5018,1850.0018,1850.2518,1862.3,space,12.0301,,1862.3001,34,41,1863.2998,1863.2998,1863.3091,,,,0,22,22,22,1,90,15,,,,,,,,
,,65a00ff99af130b3edb8695c,65af567196282ee5a0762114,2024-01-23_01h03.18.034,bars,2023.2.3,Win32,59.88023952,657b66ea316d21385b68909f,,,,,,,,,,,1863.3093,1864.2997,,,1864.7997,1865.0496,,81,261,,,,,,,,,,,,,,,,bars/011.png,bars/mask008.png,,,,,,,,,,,,0,2,,,,,,,10,0,9,0,,,,,,,,,,,1864.2997,1864.7997,1865.0497,1869.699,space,4.6329,,1869.6991,79,4,1870.6988,1870.6989,1870.7079,,,,0,23,23,23,1,160,85,,,,,,,,
,,65a00ff99af130b3edb8695c,65af567196282ee5a0762114,2024-01-23_01h03.18.034,bars,2023.2.3,Win32,59.88023952,657b66ea316d21385b68909f,,,,,,,,,,,1870.7081,1871.6986,,,1872.1986,1872.4488,,70,70,,,,,,,,,,,,,,,,bars/010.png,bars/mask002.png,,,,,,,,,,,,0,2,,,,,,,10,0,10,0,,,,,,,,,,,1871.6986,1872.1985,1872.4488,1876.5481,space,4.0845,,1876.5481,85,15,1877.548,1877.548,1877.5562,,,,0,24,24,24,1,165,55,,,,,,,,
,,65a00ff99af130b3edb8695c,65af567196282ee5a0762114,2024-01-23_01h03.18.034,bars,2023.2.3,Win32,59.88023952,657b66ea316d21385b68909f,,,,,,,,,,,1877.5564,1878.5477,,,1879.0477,1879.2976,,112,112,,,,,,,,,,,,,,,,bars/008.png,bars/mask006.png,,,,,,,,,,,,7,1,,,,,,,8,0,8,2,,,,,,,,,,,1878.5477,1879.0476,1879.2976,1882.3972,space,3.0837,,1882.3973,2,68,1883.3972,1883.3972,1883.406,,,,0,25,25,25,1,110,0,,,,,,,,
,,65a00ff99af130b3edb8695c,65af567196282ee5a0762114,2024-01-23_01h03.18.034,bars,2023.2.3,Win32,59.88023952,657b66ea316d21385b68909f,,,,,,,,,,,1883.4062,1884.3969,,,1884.897,1885.1467,,118,118,,,,,,,,,,,,,,,,bars/006.png,bars/mask008.png,,,,,,,,,,,,1,2,,,,,,,10,0,10,2,,,,,,,,,,,1884.3969,1884.8969,1885.1468,1889.2629,space,4.1072,,1889.263,83,18,1890.2628,1890.2628,1890.2719,,,,0,26,26,26,1,35,100,,,,,,,,
,,65a00ff99af130b3edb8695c,65af567196282ee5a0762114,2024-01-23_01h03.18.034,bars,2023.2.3,Win32,59.88023952,657b66ea316d21385b68909f,,,,,,,,,,,1890.2721,1891.2629,,,1891.7626,1892.0125,,154,154,,,,,,,,,,,,,,,,bars/003.png,bars/mask000.png,,,,,,,,,,,,1,2,,,,,,,8,2,6,2,,,,,,,,,,,1891.2629,1891.7625,1892.0125,1894.7455,space,2.7228,,1894.7455,51,14,1895.7453,1895.7454,1895.7537,,,,0,27,27,27,1,25,140,,,,,,,,
,,65a00ff99af130b3edb8695c,65af567196282ee5a0762114,2024-01-23_01h03.18.034,bars,2023.2.3,Win32,59.88023952,657b66ea316d21385b68909f,,,,,,,,,,,1895.7538,1896.7454,,,1897.2451,1897.4951,,133,-47,,,,,,,,,,,,,,,,bars/001.png,bars/mask003.png,,,,,,,,,,,,5,1,,,,,,,6,4,6,4,,,,,,,,,,,1896.7454,1897.2451,1897.4951,1900.7446,space,3.2411,,1900.7447,3,48,1901.7445,1901.7445,1901.7533,,,,0,28,28,28,1,130,85,,,,,,,,
,,65a00ff99af130b3edb8695c,65af567196282ee5a0762114,2024-01-23_01h03.18.034,bars,2023.2.3,Win32,59.88023952,657b66ea316d21385b68909f,,,,,,,,,,,1901.7536,1902.7443,,,1903.2443,1903.4942,,119,-61,,,,,,,,,,,,,,,,bars/025.png,bars/mask007.png,,,,,,,,,,,,3,1,,,,,,,4,6,5,7,,,,,,,,,,,1902.7443,1903.2443,1903.4942,1908.4269,space,4.9142,,1908.4269,14,79,1909.4267,1909.4267,1909.4352,,,,0,29,29,29,1,105,40,,,,,,,,
,,65a00ff99af130b3edb8695c,65af567196282ee5a0762114,2024-01-23_01h03.18.034,bars,2023.2.3,Win32,59.88023952,657b66ea316d21385b68909f,,,,,,,,,,,1909.4353,1910.4266,,,1910.9265,1911.1767,,55,55,,,,,,,,,,,,,,,,bars/028.png,bars/mask002.png,,,,,,,,,,,,5,1,,,,,,,6,8,7,8,,,,,,,,,,,1910.4266,1910.9265,1911.1767,1916.2591,space,5.0688,,1916.2591,10,65,1917.2589,1917.259,1917.2673,,,,0,30,30,30,1,45,120,,,,,,,,
,,65a00ff99af130b3edb8695c,65af567196282ee5a0762114,2024-01-23_01h03.18.034,bars,2023.2.3,Win32,59.88023952,657b66ea316d21385b68909f,,,,,,,,,,,1917.2674,1918.2588,,,1918.7588,1919.0087,,55,55,,,,,,,,,,,,,,,,bars/019.png,bars/mask009.png,,,,,,,,,,,,5,1,,,,,,,8,6,7,6,,,,,,,,,,,1918.2588,1918.7588,1919.0087,1923.2248,space,4.203,,1923.2248,10,50,1924.2246,1924.2246,1924.2331,,,,0,31,31,31,1,45,105,,,,,,,,
,,65a00ff99af130b3edb8695c,65af567196282ee5a0762114,2024-01-23_01h03.18.034,bars,2023.2.3,Win32,59.88023952,657b66ea316d21385b68909f,,,,,,,,,,,1924.2333,1925.2246,,,1925.7244,1925.9745,,153,153,,,,,,,,,,,,,,,,bars/014.png,bars/mask005.png,,,,,,,,,,,,0,2,,,,,,,6,4,7,3,,,,,,,,,,,1925.2246,1925.7244,1925.9745,1928.374,space,2.3911,,1928.3741,73,27,1929.374,1929.374,1929.3827,,,,0,32,32,32,1,80,0,,,,,,,,
,,65a00ff99af130b3edb8695c,65af567196282ee5a0762114,2024-01-23_01h03.18.034,bars,2023.2.3,Win32,59.88023952,657b66ea316d21385b68909f,,,,,,,,,,,1929.3829,1930.3738,,,1930.8737,1931.1236,,49,49,,,,,,,,,,,,,,,,bars/029.png,bars/mask005.png,,,,,,,,,,,,3,2,,,,,,,8,6,8,4,,,,,,,,,,,1930.3739,1930.8737,1931.1236,1935.9897,space,4.8514,,1935.9898,41,4,1936.9895,1936.9895,1936.9974,,,,0,33,33,33,1,90,45,,,,,,,,
,,65a00ff99af130b3edb8695c,65af567196282ee5a0762114,2024-01-23_01h03.18.034,bars,2023.2.3,Win32,59.88023952,657b66ea316d21385b68909f,,,,,,,,,,,1936.9977,1937.9897,,,1938.4893,1938.7393,,147,147,,,,,,,,,,,,,,,,bars/040.png,bars/mask003.png,,,,,,,,,,,,8,1,,,,,,,10,8,10,7,,,,,,,,,,,1937.9897,1938.4893,1938.7393,1941.6057,space,2.8503,,1941.6058,7,38,1942.6055,1942.6055,1942.6157,,,,0,34,34,34,1,140,5,,,,,,,,
,,65a00ff99af130b3edb8695c,65af567196282ee5a0762114,2024-01-23_01h03.18.034,bars,2023.2.3,Win32,59.88023952,657b66ea316d21385b68909f,,,,,,,,,,,1942.6159,1943.6052,,,1944.1052,1944.3551,,52,52,,,,,,,,,,,,,,,,bars/042.png,bars/mask003.png,,,,,,,,,,,,2,2,,,,,,,8,10,6,10,,,,,,,,,,,1943.6052,1944.1052,1944.3551,1947.1382,space,2.7652,,1947.1383,87,23,1948.1382,1948.1383,1948.1477,,,,0,35,35,35,1,145,75,,,,,,,,
,,65a00ff99af130b3edb8695c,65af567196282ee5a0762114,2024-01-23_01h03.18.034,bars,2023.2.3,Win32,59.88023952,657b66ea316d21385b68909f,,,,,,,,,,,1948.1479,1949.138,,,1949.638,1949.8879,,17,197,,,,,,,,,,,,,,,,bars/036.png,bars/mask009.png,,,,,,,,,,,,7,2,,,,,,,6,8,7,8,,,,,,,,,,,1949.138,1949.6379,1949.8879,1952.1709,space,2.2643,,1952.1709,52,3,1953.1705,1953.1705,1953.1711,,,,0,36,36,36,1,145,20,,,,,,,,
,,65a00ff99af130b3edb8695c,65af567196282ee5a0762114,2024-01-23_01h03.18.034,bars,2023.2.3,Win32,59.88023952,657b66ea316d21385b68909f,,,,,,,,,,,1953.1714,1954.1704,,,1954.6703,1954.9206,,22,202,,,,,,,,,,,,,,,,bars/044.png,bars/mask001.png,,,,,,,,,,,,0,2,,,,,,,4,6,4,6,,,,,,,,,,,1954.1704,1954.6703,1954.9206,1959.0865,space,4.1545,,1959.0865,53,47,1960.0863,1960.0863,1960.0943,,,,0,37,37,37,1,75,155,,,,,,,,
,,65a00ff99af130b3edb8695c,65af567196282ee5a0762114,2024-01-23_01h03.18.034,bars,2023.2.3,Win32,59.88023952,657b66ea316d21385b68909f,,,,,,,,,,,1960.0944,1961.0861,,,1961.5861,1961.8362,,26,206,,,,,,,,,,,,,,,,bars/014.png,bars/mask002.png,,,,,,,,,,,,1,2,,,,,,,6,4,6,4,,,,,,,,,,,1961.0861,1961.5861,1961.8363,1966.5021,space,4.6538,,1966.5021,54,26,1967.5018,1967.5018,1967.51,,,,0,38,38,38,1,80,0,,,,,,,,
,,65a00ff99af130b3edb8695c,65af567196282ee5a0762114,2024-01-23_01h03.18.034,bars,2023.2.3,Win32,59.88023952,657b66ea316d21385b68909f,,,,,,,,,,,1967.5102,1968.5017,,,1969.0018,1969.2516,,157,157,,,,,,,,,,,,,,,,bars/048.png,bars/mask002.png,,,,,,,,,,,,2,2,,,,,,,8,6,7,6,,,,,,,,,,,1968.5017,1969.0017,1969.2517,1971.718,space,2.4505,,1971.718,73,18,1972.718,1972.718,1972.7279,,,,0,39,39,39,1,50,175,,,,,,,,
,,65a00ff99af130b3edb8695c,65af567196282ee5a0762114,2024-01-23_01h03.18.034,bars,2023.2.3,Win32,59.88023952,657b66ea316d21385b68909f,,,,,,,,,,,1972.7282,1973.7177,,,1974.2177,1974.4675,,152,-28,,,,,,,,,,,,,,,,bars/040.png,bars/mask008.png,,,,,,,,,,,,5,1,,,,,,,10,4,9,3,,,,,,,,,,,1973.7177,1974.2176,1974.4675,1979.5003,space,5.0254,,1979.5004,12,33,1980.5,1980.5,1980.5089,,,,0,40,40,40,1,140,5,,,,,,,,
,,65a00ff99af130b3edb8695c,65af567196282ee5a0762114,2024-01-23_01h03.18.034,bars,2023.2.3,Win32,59.88023952,657b66ea316d21385b68909f,,,,,,,,,,,1980.5091,1981.4998,,,1981.9998,1982.2498,,39,219,,,,,,,,,,,,,,,,bars/027.png,bars/mask006.png,,,,,,,,,,,,0,2,,,,,,,8,2,9,0,,,,,,,,,,,1981.4999,1981.9998,1982.2498,1986.0493,space,3.789,,1986.0494,71,11,1987.0492,1987.0492,1987.0581,,,,0,41,41,41,1,110,50,,,,,,,,
,,65a00ff99af130b3edb8695c,65af567196282ee5a0762114,2024-01-23_01h03.18.034,bars,2023.2.3,Win32,59.88023952,657b66ea316d21385b68909f,,,,,,,,,,,1987.0583,1988.049,,,1988.549,1988.7989,,146,-34,,,,,,,,,,,,,,,,bars/025.png,bars/mask009.png,,,,,,,,,,,,0,1,,,,,,,10,0,10,0,,,,,,,,,,,1988.049,1988.549,1988.7989,1994.2148,space,5.3987,,1994.2149,41,74,1995.2147,1995.2147,1995.2233,,,,0,42,42,42,1,105,40,,,,,,,,
,,65a00ff99af130b3edb8695c,65af567196282ee5a0762114,2024-01-23_01h03.18.034,bars,2023.2.3,Win32,59.88023952,657b66ea316d21385b68909f,,,,,,,,,,,1995.2236,1996.2147,,,1996.7145,1996.9647,,34,214,,,,,,,,,,,,,,,,bars/017.png,bars/mask006.png,,,,,,,,,,,,1,2,,,,,,,8,2,8,2,,,,,,,,,,,1996.2148,1996.7144,1996.9647,2000.8139,space,3.8392,,2000.8139,69,11,2001.8138,2001.8138,2001.8225,,,,0,43,43,43,1,145,45,,,,,,,,
,,65a00ff99af130b3edb8695c,65af567196282ee5a0762114,2024-01-23_01h03.18.034,bars,2023.2.3,Win32,59.88023952,657b66ea316d21385b68909f,,,,,,,,,,,2001.8227,2002.8138,,,2003.3138,2003.5634,,39,219,,,,,,,,,,,,,,,,bars/029.png,bars/mask000.png,,,,,,,,,,,,1,2,,,,,,,10,0,10,1,,,,,,,,,,,2002.8139,2003.3137,2003.5634,2007.1297,space,3.5479,,2007.1297,51,6,2008.1296,2008.1296,2008.1379,,,,0,44,44,44,1,90,45,,,,,,,,
,,65a00ff99af130b3edb8695c,65af567196282ee5a0762114,2024-01-23_01h03.18.034,bars,2023.2.3,Win32,59.88023952,657b66ea316d21385b68909f,,,,,,,,,,,2008.1381,2009.1295,,,2009.6293,2009.8795,,60,240,,,,,,,,,,,,,,,,bars/034.png,bars/mask000.png,,,,,,,,,,,,0,2,,,,,,,8,0,8,0,,,,,,,,,,,2009.1295,2009.6292,2009.8795,2013.4955,space,3.5981,,2013.4955,65,5,2014.4953,2014.4953,2014.5038,,,,0,45,45,45,1,125,65,,,,,,,,
,,65a00ff99af130b3edb8695c,65af567196282ee5a0762114,2024-01-23_01h03.18.034,bars,2023.2.3,Win32,59.88023952,657b66ea316d21385b68909f,,,,,,,,,,,2014.504,2015.4951,,,2015.995,2016.245,,27,207,,,,,,,,,,,,,,,,bars/012.png,bars/mask001.png,,,,,,,,,,,,2,2,,,,,,,10,2,10,3,,,,,,,,,,,2015.4951,2015.995,2016.245,2020.4277,space,4.169,,2020.4278,63,12,2021.4276,2021.4276,2021.4358,,,,0,46,46,46,1,90,15,,,,,,,,
,,65a00ff99af130b3edb8695c,65af567196282ee5a0762114,2024-01-23_01h03.18.034,bars,2023.2.3,Win32,59.88023952,657b66ea316d21385b68909f,,,,,,,,,,,2021.436,2022.4276,,,2022.9275,2023.1774,,123,-57,,,,,,,,,,,,,,,,bars/049.png,bars/mask006.png,,,,,,,,,,,,0,2,,,,,,,8,0,8,0,,,,,,,,,,,2022.4276,2022.9275,2023.1774,2030.7764,space,7.5804,,2030.7764,37,8,2031.7762,2031.7762,2031.7852,,,,0,47,47,47,1,160,115,,,,,,,,
,,65a00ff99af130b3edb8695c,65af567196282ee5a0762114,2024-01-23_01h03.18.034,bars,2023.2.3,Win32,59.88023952,657b66ea316d21385b68909f,,,,,,,,,,,2031.7854,2032.776,,,2033.276,2033.526,,154,154,,,,,,,,,,,,,,,,bars/045.png,bars/mask001.png,,,,,,,,,,,,0,2,,,,,,,6,2,5,5,,,,,,,,,,,2032.7761,2033.2759,2033.5261,2036.5089,space,2.9716,,2036.5089,54,36,2037.5087,2037.5087,2037.5171,,,,0,48,48,48,1,100,10,,,,,,,,
,,65a00ff99af130b3edb8695c,65af567196282ee5a0762114,2024-01-23_01h03.18.034,bars,2023.2.3,Win32,59.88023952,657b66ea316d21385b68909f,,,,,,,,,,,2037.5172,2038.5086,,,2039.0085,2039.2586,,66,246,,,,,,,,,,,,,,,,bars/047.png,bars/mask006.png,,,,,,,,,,,,3,2,,,,,,,8,4,8,4,,,,,,,,,,,2038.5086,2039.0085,2039.2586,2046.3581,space,7.0919,,2046.3581,51,4,2047.3573,2047.3573,2047.3659,,,,0,49,49,49,1,15,70,,,,,,,,
,,65a00ff99af130b3edb8695c,65af567196282ee5a0762114,2024-01-23_01h03.18.034,bars,2023.2.3,Win32,59.88023952,657b66ea316d21385b68909f,,,,,,,,,,,,,,,,,,,,,,,,,,,,,,,,,,,,,,,,,,,,,,,,,,,,,,,,,,,,,,,,,,,,,,,,,,,,,,,,,,,,,,,,,,,,,2047.3661,2107.3658,0,3,3,4,1,sequence_tables/blk004.csv
,,65a00ff99af130b3edb8695c,65af567196282ee5a0762114,2024-01-23_01h03.18.034,bars,2023.2.3,Win32,59.88023952,657b66ea316d21385b68909f,,,,,,,,,,,2138.6236,2139.6277,,,2140.1277,2140.3776,,63,243,,,,,,,,,,,,,,,,bars/047.png,bars/mask008.png,,,,,,,,,,,,5,2,,,,,,,1,6,1,7,,,,,,2107.3762,2138.6112,space,31.2242,,2139.6279,2140.1276,2140.3776,2145.3936,space,5.0067,,2145.3936,48,7,2146.3934,2146.3934,2146.4013,,,,0,0,0,0,1,15,70,,,,,,,,
,,65a00ff99af130b3edb8695c,65af567196282ee5a0762114,2024-01-23_01h03.18.034,bars,2023.2.3,Win32,59.88023952,657b66ea316d21385b68909f,,,,,,,,,,,2146.4015,2147.3933,,,2147.8933,2148.1432,,141,-39,,,,,,,,,,,,,,,,bars/028.png,bars/mask009.png,,,,,,,,,,,,2,2,,,,,,,3,4,2,5,,,,,,,,,,,2147.3933,2147.8932,2148.1432,2151.6094,space,3.4601,,2151.6094,84,21,2152.6092,2152.6092,2152.6173,,,,0,1,1,1,1,45,120,,,,,,,,
,,65a00ff99af130b3edb8695c,65af567196282ee5a0762114,2024-01-23_01h03.18.034,bars,2023.2.3,Win32,59.88023952,657b66ea316d21385b68909f,,,,,,,,,,,2152.6175,2153.6091,,,2154.109,2154.3591,,57,57,,,,,,,,,,,,,,,,bars/031.png,bars/mask001.png,,,,,,,,,,,,1,2,,,,,,,1,6,2,5,,,,,,,,,,,2153.6091,2154.109,2154.3591,2158.0752,space,3.7086,,2158.0752,63,22,2159.0751,2159.0751,2159.0845,,,,0,2,2,2,1,120,35,,,,,,,,
,,65a00ff99af130b3edb8695c,65af567196282ee5a0762114,2024-01-23_01h03.18.034,bars,2023.2.3,Win32,59.88023952,657b66ea316d21385b68909f,,,,,,,,,,,2159.0846,2160.0748,,,2160.5749,2160.8247,,37,37,,,,,,,,,,,,,,,,bars/036.png,bars/mask004.png,,,,,,,,,,,,2,2,,,,,,,3,4,3,5,,,,,,,,,,,2160.0748,2160.5749,2160.8248,2165.1908,space,4.3475,,2165.1908,72,17,2166.1907,2166.1908,2166.1991,,,,0,3,3,3,1,145,20,,,,,,,,
,,65a00ff99af130b3edb8695c,65af567196282ee5a0762114,2024-01-23_01h03.18.034,bars,2023.2.3,Win32,59.88023952,657b66ea316d21385b68909f,,,,,,,,,,,2166.1993,2167.1905,,,2167.6907,2167.9404,,31,31,,,,,,,,,,,,,,,,bars/029.png,bars/mask003.png,,,,,,,,,,,,3,2,,,,,,,1,6,1,6,,,,,,,,,,,2167.1905,2167.6907,2167.9404,2170.4401,space,2.4813,,2170.4401,59,14,2171.4399,2171.4399,2171.4481,,,,0,4,4,4,1,90,45,,,,,,,,
,,65a00ff99af130b3edb8695c,65af567196282ee5a0762114,2024-01-23_01h03.18.034,bars,2023.2.3,Win32,59.88023952,657b66ea316d21385b68909f,,,,,,,,,,,2171.4482,2172.4399,,,2172.9399,2173.1897,,79,79,,,,,,,,,,,,,,,,bars/021.png,bars/mask003.png,,,,,,,,,,,,3,2,,,,,,,3,4,4,4,,,,,,,,,,,2172.44,2172.9399,2173.1897,2178.4558,space,5.252,,2178.4558,76,9,2179.4554,2179.4555,2179.4635,,,,0,5,5,5,1,155,70,,,,,,,,
,,65a00ff99af130b3edb8695c,65af567196282ee5a0762114,2024-01-23_01h03.18.034,bars,2023.2.3,Win32,59.88023952,657b66ea316d21385b68909f,,,,,,,,,,,2179.4637,2180.4553,,,2180.9552,2181.2053,,15,195,,,,,,,,,,,,,,,,bars/032.png,bars/mask005.png,,,,,,,,,,,,5,2,,,,,,,5,6,4,6,,,,,,,,,,,2180.4553,2180.9551,2181.2053,2185.438,space,4.2148,,2185.4381,70,5,2186.4378,2186.4378,2186.446,,,,0,6,6,6,1,125,20,,,,,,,,
,,65a00ff99af130b3edb8695c,65af567196282ee5a0762114,2024-01-23_01h03.18.034,bars,2023.2.3,Win32,59.88023952,657b66ea316d21385b68909f,,,,,,,,,,,2186.4462,2187.4376,,,2187.9377,2188.1875,,162,-18,,,,,,,,,,,,,,,,bars/010.png,bars/mask009.png,,,,,,,,,,,,8,1,,,,,,,7,4,9,4,,,,,,,,,,,2187.4376,2187.9377,2188.1875,2192.4203,space,4.2142,,2192.4204,3,73,2193.4201,2193.4201,2193.4289,,,,0,7,7,7,1,165,55,,,,,,,,
,,65a00ff99af130b3edb8695c,65af567196282ee5a0762114,2024-01-23_01h03.18.034,bars,2023.2.3,Win32,59.88023952,657b66ea316d21385b68909f,,,,,,,,,,,2193.4291,2194.4199,,,2194.92,2195.1698,,30,210,,,,,,,,,,,,,,,,bars/017.png,bars/mask008.png,,,,,,,,,,,,4,2,,,,,,,9,6,9,7,,,,,,,,,,,2194.42,2194.92,2195.1699,2200.2859,space,5.0998,,2200.2859,65,15,2201.2857,2201.2857,2201.2946,,,,0,8,8,8,1,145,45,,,,,,,,
,,65a00ff99af130b3edb8695c,65af567196282ee5a0762114,2024-01-23_01h03.18.034,bars,2023.2.3,Win32,59.88023952,657b66ea316d21385b68909f,,,,,,,,,,,2201.2948,2202.2855,,,2202.7855,2203.0354,,65,65,,,,,,,,,,,,,,,,bars/030.png,bars/mask000.png,,,,,,,,,,,,5,2,,,,,,,10,4,10,5,,,,,,,,,,,2202.2857,2202.7855,2203.0355,2206.7516,space,3.7083,,2206.7516,75,0,2207.7514,2207.7514,2207.7595,,,,0,9,9,9,1,140,65,,,,,,,,
,,65a00ff99af130b3edb8695c,65af567196282ee5a0762114,2024-01-23_01h03.18.034,bars,2023.2.3,Win32,59.88023952,657b66ea316d21385b68909f,,,,,,,,,,,2207.7597,2208.7513,,,2209.2513,2209.5012,,30,30,,,,,,,,,,,,,,,,bars/031.png,bars/mask002.png,,,,,,,,,,,,3,2,,,,,,,8,2,9,3,,,,,,,,,,,2208.7513,2209.2513,2209.5012,2211.9675,space,2.4485,,2211.9675,90,5,2212.9673,2212.9673,2212.9755,,,,0,10,10,10,1,120,35,,,,,,,,
,,65a00ff99af130b3edb8695c,65af567196282ee5a0762114,2024-01-23_01h03.18.034,bars,2023.2.3,Win32,59.88023952,657b66ea316d21385b68909f,,,,,,,,,,,2212.9757,2213.9672,,,2214.4673,2214.7171,,21,201,,,,,,,,,,,,,,,,bars/012.png,bars/mask007.png,,,,,,,,,,,,4,2,,,,,,,6,4,6,5,,,,,,,,,,,2213.9673,2214.4672,2214.7172,2217.8335,space,3.1052,,2217.8335,69,6,2218.8332,2218.8332,2218.8415,,,,0,11,11,11,1,90,15,,,,,,,,
