init_variables.started,init_variables.stopped,participant,session,date,expName,psychopyVersion,OS,frameRate,study_id,instruction_exp.started,instruction_exp.stopped,key_resp_8.keys,key_resp_8.rt,key_resp_8.duration,instruction_single.started,instruction_single.stopped,key_resp_2.keys,key_resp_2.rt,key_resp_2.duration,interval.started,interval.stopped,cue_single.started,cue_single.stopped,mask.started,mask.stopped,ori_response_single.started,res_ori,res,ori_response_single.stopped,key_resp_single.keys,key_resp_single.rt,key_resp_single.duration,disp_single.started,disp_single.stopped,key_resp.keys,key_resp.rt,key_resp.duration,single.thisRepN,single.thisTrialN,single.thisN,single.thisIndex,single.ran,ori,path,mask_path,instruction_bandit.started,instruction_bandit.stopped,key_resp_6.keys,key_resp_6.rt,key_resp_6.duration,cue_bandit.started,cue_bandit.stopped,bandit_res.keys,bandit_res.rt,bandit_res.duration,outcome_bandit.started,rew,action,outcome_bandit.stopped,bandit.thisRepN,bandit.thisTrialN,bandit.thisN,bandit.thisIndex,bandit.ran,actual_rew1,actual_rew2,rew1,rew2,instruction_task.started,instruction_task.stopped,key_resp_7.keys,key_resp_7.rt,key_resp_7.duration,wait_ready.started,wait_ready.stopped,key_resp_3.keys,key_resp_3.rt,key_resp_3.duration,cue.started,cue.stopped,ori_response.started,ori_response.stopped,key_resp_5.keys,key_resp_5.rt,key_resp_5.duration,outcome.started,diff1,diff2,outcome.stopped,disp_outcome_practice.started,disp_outcome_practice.stopped,key_resp_4.keys,key_resp_4.rt,key_resp_4.duration,trials.thisRepN,trials.thisTrialN,trials.thisN,trials.thisIndex,trials.ran,ori1,ori2,break_blk.started,break_blk.stopped,block.thisRepN,block.thisTrialN,block.thisN,block.thisIndex,block.ran,condition_file
0.0003,0.0005,61090b7186e1761f97308af9,65af5320fa16a017ecb7807b,2024-01-23_07h54.08.173,bars,2023.2.3,Win32,60.24096386,657b66ea316d21385b68909f,,,,,,,,,,,,,,,,,,,,,,,,,,,,,,,,,,,,,,,,,,,,,,,,,,,,,,,,,,,,,,,,,,,,,,,,,,,,,,,,,,,,,,,,,,,,,,,,,,,,
,,61090b7186e1761f97308af9,65af5320fa16a017ecb7807b,2024-01-23_07h54.08.173,bars,2023.2.3,Win32,60.24096386,657b66ea316d21385b68909f,0.0007,65.5103,y,65.4818,,,,,,,,,,,,,,,,,,,,,,,,,,,,,,,,,,,,,,,,,,,,,,,,,,,,,,,,,,,,,,,,,,,,,,,,,,,,,,,,,,,,,,,,,,,,,,,,
,,61090b7186e1761f97308af9,65af5320fa16a017ecb7807b,2024-01-23_07h54.08.173,bars,2023.2.3,Win32,60.24096386,657b66ea316d21385b68909f,,,,,,65.5104,298.9232,space,233.3697,,,,,,,,,,,,,,,,,,,,,,,,,,,,,,,,,,,,,,,,,,,,,,,,,,,,,,,,,,,,,,,,,,,,,,,,,,,,,,,,,,,,,,,,,,,
,,61090b7186e1761f97308af9,65af5320fa16a017ecb7807b,2024-01-23_07h54.08.173,bars,2023.2.3,Win32,60.24096386,657b66ea316d21385b68909f,,,,,,,,,,,298.9285,299.9228,299.923,300.4244,300.4246,300.6726,300.6727,35,35,309.1913,space,8.4828,,309.1915,342.3875,space,33.1622,,0,0,0,5,1,55,bars/single005.png,bars/mask008.png,,,,,,,,,,,,,,,,,,,,,,,,,,,,,,,,,,,,,,,,,,,,,,,,,,,,,,,,,,,,,,,,
,,61090b7186e1761f97308af9,65af5320fa16a017ecb7807b,2024-01-23_07h54.08.173,bars,2023.2.3,Win32,60.24096386,657b66ea316d21385b68909f,,,,,,,,,,,342.3883,343.3845,343.3845,343.8901,343.8903,344.1199,344.12,168,168,349.4363,space,5.2881,,349.4363,352.7945,space,3.323,,0,1,1,6,1,175,bars/single006.png,bars/mask005.png,,,,,,,,,,,,,,,,,,,,,,,,,,,,,,,,,,,,,,,,,,,,,,,,,,,,,,,,,,,,,,,,
,,61090b7186e1761f97308af9,65af5320fa16a017ecb7807b,2024-01-23_07h54.08.173,bars,2023.2.3,Win32,60.24096386,657b66ea316d21385b68909f,,,,,,,,,,,352.7951,353.7916,353.7916,354.2869,354.287,354.5482,354.5482,140,140,359.9584,space,5.3832,,359.9585,364.2972,space,4.3091,,0,2,2,2,1,145,bars/single002.png,bars/mask003.png,,,,,,,,,,,,,,,,,,,,,,,,,,,,,,,,,,,,,,,,,,,,,,,,,,,,,,,,,,,,,,,,
,,61090b7186e1761f97308af9,65af5320fa16a017ecb7807b,2024-01-23_07h54.08.173,bars,2023.2.3,Win32,60.24096386,657b66ea316d21385b68909f,,,,,,,,,,,364.3083,365.2998,365.2999,365.8003,365.8004,366.0541,366.0541,90,90,372.8167,space,6.7469,,372.8167,382.1226,space,9.2668,,0,3,3,4,1,95,bars/single004.png,bars/mask004.png,,,,,,,,,,,,,,,,,,,,,,,,,,,,,,,,,,,,,,,,,,,,,,,,,,,,,,,,,,,,,,,,
,,61090b7186e1761f97308af9,65af5320fa16a017ecb7807b,2024-01-23_07h54.08.173,bars,2023.2.3,Win32,60.24096386,657b66ea316d21385b68909f,,,,,,,,,,,382.1343,383.1391,383.1392,383.6159,383.616,383.8729,383.873,28,28,391.4384,space,7.5463,,391.4384,392.9788,space,1.5056,,0,4,4,7,1,45,bars/single007.png,bars/mask009.png,,,,,,,,,,,,,,,,,,,,,,,,,,,,,,,,,,,,,,,,,,,,,,,,,,,,,,,,,,,,,,,,
,,61090b7186e1761f97308af9,65af5320fa16a017ecb7807b,2024-01-23_07h54.08.173,bars,2023.2.3,Win32,60.24096386,657b66ea316d21385b68909f,,,,,,,,,,,392.9795,393.9861,393.9863,394.4809,394.481,394.7202,394.7202,7,7,402.7737,space,8.0253,,402.7738,409.8049,space,6.993,,0,5,5,3,1,20,bars/single003.png,bars/mask005.png,,,,,,,,,,,,,,,,,,,,,,,,,,,,,,,,,,,,,,,,,,,,,,,,,,,,,,,,,,,,,,,,
,,61090b7186e1761f97308af9,65af5320fa16a017ecb7807b,2024-01-23_07h54.08.173,bars,2023.2.3,Win32,60.24096386,657b66ea316d21385b68909f,,,,,,,,,,,409.8146,410.8139,410.8141,411.321,411.3212,411.547,411.5471,20,20,418.5204,space,6.947,,418.5205,438.9152,space,20.3589,,0,6,6,9,1,20,bars/single009.png,bars/mask006.png,,,,,,,,,,,,,,,,,,,,,,,,,,,,,,,,,,,,,,,,,,,,,,,,,,,,,,,,,,,,,,,,
,,61090b7186e1761f97308af9,65af5320fa16a017ecb7807b,2024-01-23_07h54.08.173,bars,2023.2.3,Win32,60.24096386,657b66ea316d21385b68909f,,,,,,,,,,,438.9257,439.9299,439.9299,440.4244,440.4246,440.6639,440.6639,162,162,444.6118,space,3.916,,444.6118,447.0797,space,2.4319,,0,7,7,8,1,160,bars/single008.png,bars/mask004.png,,,,,,,,,,,,,,,,,,,,,,,,,,,,,,,,,,,,,,,,,,,,,,,,,,,,,,,,,,,,,,,,
,,61090b7186e1761f97308af9,65af5320fa16a017ecb7807b,2024-01-23_07h54.08.173,bars,2023.2.3,Win32,60.24096386,657b66ea316d21385b68909f,,,,,,,,,,,447.0802,448.0718,448.0718,448.5669,448.567,448.8009,448.8009,179,-1,454.0952,space,5.2672,,454.0952,455.8503,space,1.7264,,0,8,8,1,1,20,bars/single001.png,bars/mask006.png,,,,,,,,,,,,,,,,,,,,,,,,,,,,,,,,,,,,,,,,,,,,,,,,,,,,,,,,,,,,,,,,
,,61090b7186e1761f97308af9,65af5320fa16a017ecb7807b,2024-01-23_07h54.08.173,bars,2023.2.3,Win32,60.24096386,657b66ea316d21385b68909f,,,,,,,,,,,455.8507,456.8411,456.8412,457.3309,457.331,457.5911,457.5911,143,143,462.6685,space,5.0629,,462.6685,464.1246,space,1.4161,,0,9,9,0,1,150,bars/single000.png,bars/mask006.png,,,,,,,,,,,,,,,,,,,,,,,,,,,,,,,,,,,,,,,,,,,,,,,,,,,,,,,,,,,,,,,,
,,61090b7186e1761f97308af9,65af5320fa16a017ecb7807b,2024-01-23_07h54.08.173,bars,2023.2.3,Win32,60.24096386,657b66ea316d21385b68909f,,,,,,,,,,,,,,,,,,,,,,,,,,,,,,,,,,,,,464.1256,468.8181,space,4.6572,,,,,,,,,,,,,,,,,,,,,,,,,,,,,,,,,,,,,,,,,,,,,,,,,,,,,,,,,,,,
,,61090b7186e1761f97308af9,65af5320fa16a017ecb7807b,2024-01-23_07h54.08.173,bars,2023.2.3,Win32,60.24096386,657b66ea316d21385b68909f,,,,,,,,,,,,,,,,,,,,,,,,,,,,,,,,,,,,,,,,,,468.8321,470.949,left,2.0878,,470.9492,9,1,471.9414,0,0,0,0,1,9,1,9,2,,,,,,,,,,,,,,,,,,,,,,,,,,,,,,,,,,,,,,,,,
,,61090b7186e1761f97308af9,65af5320fa16a017ecb7807b,2024-01-23_07h54.08.173,bars,2023.2.3,Win32,60.24096386,657b66ea316d21385b68909f,,,,,,,,,,,,,,,,,,,,,,,,,,,,,,,,,,,,,,,,,,471.9424,473.9278,left,1.9564,,473.9278,10,1,474.9337,0,1,1,1,1,10,0,10,1,,,,,,,,,,,,,,,,,,,,,,,,,,,,,,,,,,,,,,,,,
,,61090b7186e1761f97308af9,65af5320fa16a017ecb7807b,2024-01-23_07h54.08.173,bars,2023.2.3,Win32,60.24096386,657b66ea316d21385b68909f,,,,,,,,,,,,,,,,,,,,,,,,,,,,,,,,,,,,,,,,,,474.9342,476.325,left,1.358,,476.3251,10,1,477.3249,0,2,2,2,1,10,2,10,2,,,,,,,,,,,,,,,,,,,,,,,,,,,,,,,,,,,,,,,,,
,,61090b7186e1761f97308af9,65af5320fa16a017ecb7807b,2024-01-23_07h54.08.173,bars,2023.2.3,Win32,60.24096386,657b66ea316d21385b68909f,,,,,,,,,,,,,,,,,,,,,,,,,,,,,,,,,,,,,,,,,,477.3259,478.2607,left,0.9081,,478.2608,7,1,479.2412,0,3,3,3,1,8,4,7,3,,,,,,,,,,,,,,,,,,,,,,,,,,,,,,,,,,,,,,,,,
,,61090b7186e1761f97308af9,65af5320fa16a017ecb7807b,2024-01-23_07h54.08.173,bars,2023.2.3,Win32,60.24096386,657b66ea316d21385b68909f,,,,,,,,,,,,,,,,,,,,,,,,,,,,,,,,,,,,,,,,,,479.2423,480.06,right,0.7891,,480.06,1,2,481.0495,0,4,4,4,1,6,2,5,1,,,,,,,,,,,,,,,,,,,,,,,,,,,,,,,,,,,,,,,,,
,,61090b7186e1761f97308af9,65af5320fa16a017ecb7807b,2024-01-23_07h54.08.173,bars,2023.2.3,Win32,60.24096386,657b66ea316d21385b68909f,,,,,,,,,,,,,,,,,,,,,,,,,,,,,,,,,,,,,,,,,,481.0501,482.1124,left,1.0295,,482.1124,4,1,483.1062,0,5,5,5,1,4,4,4,4,,,,,,,,,,,,,,,,,,,,,,,,,,,,,,,,,,,,,,,,,
,,61090b7186e1761f97308af9,65af5320fa16a017ecb7807b,2024-01-23_07h54.08.173,bars,2023.2.3,Win32,60.24096386,657b66ea316d21385b68909f,,,,,,,,,,,,,,,,,,,,,,,,,,,,,,,,,,,,,,,,,,483.1071,484.1616,left,1.0269,,484.1617,1,1,485.1554,0,6,6,6,1,2,2,1,2,,,,,,,,,,,,,,,,,,,,,,,,,,,,,,,,,,,,,,,,,
,,61090b7186e1761f97308af9,65af5320fa16a017ecb7807b,2024-01-23_07h54.08.173,bars,2023.2.3,Win32,60.24096386,657b66ea316d21385b68909f,,,,,,,,,,,,,,,,,,,,,,,,,,,,,,,,,,,,,,,,,,485.1563,485.664,right,0.4805,,485.664,1,2,486.6725,0,7,7,7,1,0,0,0,1,,,,,,,,,,,,,,,,,,,,,,,,,,,,,,,,,,,,,,,,,
,,61090b7186e1761f97308af9,65af5320fa16a017ecb7807b,2024-01-23_07h54.08.173,bars,2023.2.3,Win32,60.24096386,657b66ea316d21385b68909f,,,,,,,,,,,,,,,,,,,,,,,,,,,,,,,,,,,,,,,,,,486.6734,487.9639,right,1.2637,,487.9639,0,2,488.9568,0,8,8,8,1,0,2,1,0,,,,,,,,,,,,,,,,,,,,,,,,,,,,,,,,,,,,,,,,,
,,61090b7186e1761f97308af9,65af5320fa16a017ecb7807b,2024-01-23_07h54.08.173,bars,2023.2.3,Win32,60.24096386,657b66ea316d21385b68909f,,,,,,,,,,,,,,,,,,,,,,,,,,,,,,,,,,,,,,,,,,488.9575,489.4082,left,0.4279,,489.4083,2,1,490.4034,0,9,9,9,1,2,4,2,3,,,,,,,,,,,,,,,,,,,,,,,,,,,,,,,,,,,,,,,,,
,,61090b7186e1761f97308af9,65af5320fa16a017ecb7807b,2024-01-23_07h54.08.173,bars,2023.2.3,Win32,60.24096386,657b66ea316d21385b68909f,,,,,,,,,,,,,,,,,,,,,,,,,,,,,,,,,,,,,,,,,,490.4044,497.3901,left,6.9587,,497.3903,0,1,498.3672,0,10,10,10,1,0,2,0,3,,,,,,,,,,,,,,,,,,,,,,,,,,,,,,,,,,,,,,,,,
,,61090b7186e1761f97308af9,65af5320fa16a017ecb7807b,2024-01-23_07h54.08.173,bars,2023.2.3,Win32,60.24096386,657b66ea316d21385b68909f,,,,,,,,,,,,,,,,,,,,,,,,,,,,,,,,,,,,,,,,,,498.3796,499.2632,right,0.8643,,499.2633,3,2,500.25,0,11,11,11,1,0,4,0,3,,,,,,,,,,,,,,,,,,,,,,,,,,,,,,,,,,,,,,,,,
,,61090b7186e1761f97308af9,65af5320fa16a017ecb7807b,2024-01-23_07h54.08.173,bars,2023.2.3,Win32,60.24096386,657b66ea316d21385b68909f,,,,,,,,,,,,,,,,,,,,,,,,,,,,,,,,,,,,,,,,,,500.251,507.9253,left,7.648,,507.9253,1,1,508.9182,0,12,12,12,1,2,6,1,6,,,,,,,,,,,,,,,,,,,,,,,,,,,,,,,,,,,,,,,,,
,,61090b7186e1761f97308af9,65af5320fa16a017ecb7807b,2024-01-23_07h54.08.173,bars,2023.2.3,Win32,60.24096386,657b66ea316d21385b68909f,,,,,,,,,,,,,,,,,,,,,,,,,,,,,,,,,,,,,,,,,,508.9299,511.4189,left,2.4608,,511.419,1,1,512.4101,0,13,13,13,1,0,4,1,3,,,,,,,,,,,,,,,,,,,,,,,,,,,,,,,,,,,,,,,,,
,,61090b7186e1761f97308af9,65af5320fa16a017ecb7807b,2024-01-23_07h54.08.173,bars,2023.2.3,Win32,60.24096386,657b66ea316d21385b68909f,,,,,,,,,,,,,,,,,,,,,,,,,,,,,,,,,,,,,,,,,,512.4113,513.0902,left,0.6522,,513.0902,2,1,514.0822,0,14,14,14,1,2,6,2,7,,,,,,,,,,,,,,,,,,,,,,,,,,,,,,,,,,,,,,,,,
,,61090b7186e1761f97308af9,65af5320fa16a017ecb7807b,2024-01-23_07h54.08.173,bars,2023.2.3,Win32,60.24096386,657b66ea316d21385b68909f,,,,,,,,,,,,,,,,,,,,,,,,,,,,,,,,,,,,,,,,,,514.0832,514.9852,left,0.8646,,514.9853,3,1,515.9779,0,15,15,15,1,4,8,3,9,,,,,,,,,,,,,,,,,,,,,,,,,,,,,,,,,,,,,,,,,
,,61090b7186e1761f97308af9,65af5320fa16a017ecb7807b,2024-01-23_07h54.08.173,bars,2023.2.3,Win32,60.24096386,657b66ea316d21385b68909f,,,,,,,,,,,,,,,,,,,,,,,,,,,,,,,,,,,,,,,,,,515.9787,518.2875,left,2.2813,,518.2875,7,1,519.2874,0,16,16,16,1,6,6,7,7,,,,,,,,,,,,,,,,,,,,,,,,,,,,,,,,,,,,,,,,,
,,61090b7186e1761f97308af9,65af5320fa16a017ecb7807b,2024-01-23_07h54.08.173,bars,2023.2.3,Win32,60.24096386,657b66ea316d21385b68909f,,,,,,,,,,,,,,,,,,,,,,,,,,,,,,,,,,,,,,,,,,519.3001,519.8667,right,0.545,,519.8668,5,2,520.886,0,17,17,17,1,8,4,9,5,,,,,,,,,,,,,,,,,,,,,,,,,,,,,,,,,,,,,,,,,
,,61090b7186e1761f97308af9,65af5320fa16a017ecb7807b,2024-01-23_07h54.08.173,bars,2023.2.3,Win32,60.24096386,657b66ea316d21385b68909f,,,,,,,,,,,,,,,,,,,,,,,,,,,,,,,,,,,,,,,,,,520.8865,523.5233,left,2.614,,523.5234,5,1,524.513,0,18,18,18,1,6,2,5,1,,,,,,,,,,,,,,,,,,,,,,,,,,,,,,,,,,,,,,,,,
,,61090b7186e1761f97308af9,65af5320fa16a017ecb7807b,2024-01-23_07h54.08.173,bars,2023.2.3,Win32,60.24096386,657b66ea316d21385b68909f,,,,,,,,,,,,,,,,,,,,,,,,,,,,,,,,,,,,,,,,,,524.5234,525.4259,left,0.8739,,525.426,7,1,526.4343,0,19,19,19,1,8,0,7,0,,,,,,,,,,,,,,,,,,,,,,,,,,,,,,,,,,,,,,,,,
,,61090b7186e1761f97308af9,65af5320fa16a017ecb7807b,2024-01-23_07h54.08.173,bars,2023.2.3,Win32,60.24096386,657b66ea316d21385b68909f,,,,,,,,,,,,,,,,,,,,,,,,,,,,,,,,,,,,,,,,,,,,,,,,,,,,,,,,,,,,526.4351,616.2415,space,89.7682,,,,,,,,,,,,,,,,,,,,,,,,,,,,,,,,,,,,,
,,61090b7186e1761f97308af9,65af5320fa16a017ecb7807b,2024-01-23_07h54.08.173,bars,2023.2.3,Win32,60.24096386,657b66ea316d21385b68909f,,,,,,,,,,,996.8999,997.8912,,,998.3907,998.62,,176,-4,,,,,,,,,,,,,,,,bars/004.png,bars/mask007.png,,,,,,,,,,,,0,1,,,,,,,1,9,1,7,,,,,,616.2616,996.8811,space,380.5978,,997.8915,998.3906,998.6204,1005.4571,space,6.7112,,1005.4572,29,51,1006.4626,1006.4631,1014.068,space,7.5711,,0,0,0,0,1,25,125,,,,,,,,
,,61090b7186e1761f97308af9,65af5320fa16a017ecb7807b,2024-01-23_07h54.08.173,bars,2023.2.3,Win32,60.24096386,657b66ea316d21385b68909f,,,,,,,,,,,1014.0797,1015.0609,,,1015.5612,1015.8086,,129,-51,,,,,,,,,,,,,,,,bars/008.png,bars/mask004.png,,,,,,,,,,,,2,1,,,,,,,3,7,5,6,,,,,,,,,,,1015.061,1015.561,1015.8087,1020.0712,space,4.2418,,1020.0713,19,51,1021.0665,1021.0667,1024.1793,space,3.0752,,0,1,1,1,1,110,0,,,,,,,,
,,61090b7186e1761f97308af9,65af5320fa16a017ecb7807b,2024-01-23_07h54.08.173,bars,2023.2.3,Win32,60.24096386,657b66ea316d21385b68909f,,,,,,,,,,,1024.18,1025.1572,,,1025.632,1025.8982,,122,122,,,,,,,,,,,,,,,,bars/032.png,bars/mask001.png,,,,,,,,,,,,4,1,,,,,,,5,9,4,9,,,,,,,,,,,1025.1573,1025.6318,1025.8982,1027.9828,space,2.06,,1027.9829,3,78,1028.9772,1028.9773,1032.6525,space,3.6348,,0,2,2,2,1,125,20,,,,,,,,
,,61090b7186e1761f97308af9,65af5320fa16a017ecb7807b,2024-01-23_07h54.08.173,bars,2023.2.3,Win32,60.24096386,657b66ea316d21385b68909f,,,,,,,,,,,1032.6628,1033.6576,,,1034.1494,1034.4049,,165,-15,,,,,,,,,,,,,,,,bars/036.png,bars/mask007.png,,,,,,,,,,,,2,1,,,,,,,3,7,5,10,,,,,,,,,,,1033.6578,1034.1493,1034.4051,1037.8545,space,3.4276,,1037.8545,20,35,1038.836,1038.8361,1040.8751,space,2.0046,,0,3,3,3,1,145,20,,,,,,,,
,,61090b7186e1761f97308af9,65af5320fa16a017ecb7807b,2024-01-23_07h54.08.173,bars,2023.2.3,Win32,60.24096386,657b66ea316d21385b68909f,,,,,,,,,,,1040.8758,1041.8763,,,1042.3736,1042.6116,,139,139,,,,,,,,,,,,,,,,bars/034.png,bars/mask007.png,,,,,,,,,,,,1,1,,,,,,,1,5,1,4,,,,,,,,,,,1041.8765,1042.3735,1042.6117,1048.5895,space,5.945,,1048.5895,14,74,1049.5988,1049.5991,1051.4394,space,1.8054,,0,4,4,4,1,125,65,,,,,,,,
,,61090b7186e1761f97308af9,65af5320fa16a017ecb7807b,2024-01-23_07h54.08.173,bars,2023.2.3,Win32,60.24096386,657b66ea316d21385b68909f,,,,,,,,,,,1051.4401,1052.4308,,,1052.915,1053.1486,,9,9,,,,,,,,,,,,,,,,bars/023.png,bars/mask000.png,,,,,,,,,,,,3,1,,,,,,,3,3,5,1,,,,,,,,,,,1052.4309,1052.9149,1053.1488,1056.7041,space,3.5271,,1056.7042,11,74,1057.6956,1057.6962,1059.0731,space,1.3442,,0,5,5,5,1,20,115,,,,,,,,
,,61090b7186e1761f97308af9,65af5320fa16a017ecb7807b,2024-01-23_07h54.08.173,bars,2023.2.3,Win32,60.24096386,657b66ea316d21385b68909f,,,,,,,,,,,1059.0734,1060.0716,,,1060.5541,1060.8127,,116,116,,,,,,,,,,,,,,,,bars/001.png,bars/mask002.png,,,,,,,,,,,,4,1,,,,,,,5,1,7,2,,,,,,,,,,,1060.0717,1060.5541,1060.8128,1063.5043,space,2.6659,,1063.5044,14,31,1064.497,1064.4971,1066.5663,space,2.0275,,0,6,6,6,1,130,85,,,,,,,,
,,61090b7186e1761f97308af9,65af5320fa16a017ecb7807b,2024-01-23_07h54.08.173,bars,2023.2.3,Win32,60.24096386,657b66ea316d21385b68909f,,,,,,,,,,,1066.5669,1067.5691,,,1068.0687,1068.3262,,38,38,,,,,,,,,,,,,,,,bars/003.png,bars/mask004.png,,,,,,,,,,,,2,1,,,,,,,3,3,3,3,,,,,,,,,,,1067.5691,1068.0687,1068.3263,1074.3747,space,6.0203,,1074.3749,13,78,1075.3734,1075.3736,1076.7181,space,1.3104,,0,7,7,7,1,25,140,,,,,,,,
,,61090b7186e1761f97308af9,65af5320fa16a017ecb7807b,2024-01-23_07h54.08.173,bars,2023.2.3,Win32,60.24096386,657b66ea316d21385b68909f,,,,,,,,,,,1076.7187,1077.7143,,,1078.2049,1078.4435,,175,-5,,,,,,,,,,,,,,,,bars/007.png,bars/mask008.png,,,,,,,,,,,,3,1,,,,,,,5,1,3,1,,,,,,,,,,,1077.7144,1078.2049,1078.4436,1082.331,space,3.8491,,1082.3312,0,60,1083.3302,1083.3303,1087.0313,space,3.6601,,0,8,8,8,1,175,55,,,,,,,,
,,61090b7186e1761f97308af9,65af5320fa16a017ecb7807b,2024-01-23_07h54.08.173,bars,2023.2.3,Win32,60.24096386,657b66ea316d21385b68909f,,,,,,,,,,,1087.0415,1088.0528,,,1088.5468,1088.794,,99,-81,,,,,,,,,,,,,,,,bars/020.png,bars/mask001.png,,,,,,,,,,,,1,1,,,,,,,3,3,2,5,,,,,,,,,,,1088.0529,1088.5468,1088.794,1094.9543,space,6.1256,,1094.9543,16,71,1095.9495,1095.9496,1096.794,space,0.8114,,0,9,9,9,1,115,170,,,,,,,,
,,61090b7186e1761f97308af9,65af5320fa16a017ecb7807b,2024-01-23_07h54.08.173,bars,2023.2.3,Win32,60.24096386,657b66ea316d21385b68909f,,,,,,,,,,,1096.7945,1097.7998,,,1098.2919,1098.5238,,32,32,,,,,,,,,,,,,,,,bars/005.png,bars/mask004.png,,,,,,,,,,,,0,1,,,,,,,1,1,0,0,,,,,,,,,,,1097.7999,1098.2918,1098.5239,1105.8968,space,7.3372,,1105.8969,22,72,1106.8961,1106.8963,1108.082,space,1.1503,,0,10,10,10,1,10,140,,,,,,,,
,,61090b7186e1761f97308af9,65af5320fa16a017ecb7807b,2024-01-23_07h54.08.173,bars,2023.2.3,Win32,60.24096386,657b66ea316d21385b68909f,,,,,,,,,,,1108.0826,1109.0614,,,1109.5659,1109.796,,29,29,,,,,,,,,,,,,,,,bars/000.png,bars/mask003.png,,,,,,,,,,,,2,1,,,,,,,3,0,3,0,,,,,,,,,,,1109.0616,1109.5659,1109.7961,1112.9197,space,3.0961,,1112.9197,11,64,1113.9094,1113.9095,1114.7209,space,0.7787,,0,11,11,11,1,40,145,,,,,,,,
,,61090b7186e1761f97308af9,65af5320fa16a017ecb7807b,2024-01-23_07h54.08.173,bars,2023.2.3,Win32,60.24096386,657b66ea316d21385b68909f,,,,,,,,,,,1114.7214,1115.7093,,,1116.2126,1116.472,,169,-11,,,,,,,,,,,,,,,,bars/007.png,bars/mask009.png,,,,,,,,,,,,5,1,,,,,,,5,0,6,0,,,,,,,,,,,1115.7095,1116.2126,1116.4721,1119.3586,space,2.8561,,1119.3586,6,66,1120.3623,1120.3624,1121.8027,space,1.3984,,0,12,12,12,1,175,55,,,,,,,,
,,61090b7186e1761f97308af9,65af5320fa16a017ecb7807b,2024-01-23_07h54.08.173,bars,2023.2.3,Win32,60.24096386,657b66ea316d21385b68909f,,,,,,,,,,,1121.8029,1122.8006,,,1123.2954,1123.5666,,59,59,,,,,,,,,,,,,,,,bars/048.png,bars/mask009.png,,,,,,,,,,,,5,1,,,,,,,7,2,7,2,,,,,,,,,,,1122.8007,1123.2953,1123.5667,1128.3902,space,4.8082,,1128.3903,9,64,1129.3722,1129.3724,1130.7946,space,1.3887,,0,13,13,13,1,50,175,,,,,,,,
,,61090b7186e1761f97308af9,65af5320fa16a017ecb7807b,2024-01-23_07h54.08.173,bars,2023.2.3,Win32,60.24096386,657b66ea316d21385b68909f,,,,,,,,,,,1130.7954,1131.7744,,,1132.28,1132.5341,,122,122,,,,,,,,,,,,,,,,bars/001.png,bars/mask004.png,,,,,,,,,,,,4,1,,,,,,,5,4,6,5,,,,,,,,,,,1131.7744,1132.28,1132.5342,1136.1465,space,3.5455,,1136.1467,8,37,1137.1401,1137.1403,1137.5578,space,0.377,,0,14,14,14,1,130,85,,,,,,,,
,,61090b7186e1761f97308af9,65af5320fa16a017ecb7807b,2024-01-23_07h54.08.173,bars,2023.2.3,Win32,60.24096386,657b66ea316d21385b68909f,,,,,,,,,,,1137.5583,1138.5616,,,1139.057,1139.3122,,60,60,,,,,,,,,,,,,,,,bars/014.png,bars/mask002.png,,,,,,,,,,,,1,1,,,,,,,3,2,3,1,,,,,,,,,,,1138.5617,1139.0568,1139.3122,1142.8903,space,3.5409,,1142.8904,20,60,1143.9006,1143.9006,1148.3394,space,4.405,,0,15,15,15,1,80,0,,,,,,,,
,,61090b7186e1761f97308af9,65af5320fa16a017ecb7807b,2024-01-23_07h54.08.173,bars,2023.2.3,Win32,60.24096386,657b66ea316d21385b68909f,,,,,,,,,,,1148.3495,1149.3411,,,1149.8469,1150.0986,,104,104,,,,,,,,,,,,,,,,bars/027.png,bars/mask000.png,,,,,,,,,,,,2,1,,,,,,,1,0,3,0,,,,,,,,,,,1149.3411,1149.8469,1150.0987,1152.8575,space,2.7381,,1152.8576,6,54,1153.8725,1153.8725,1154.6412,space,0.7389,,0,16,16,16,1,110,50,,,,,,,,
,,61090b7186e1761f97308af9,65af5320fa16a017ecb7807b,2024-01-23_07h54.08.173,bars,2023.2.3,Win32,60.24096386,657b66ea316d21385b68909f,,,,,,,,,,,1154.6415,1155.6335,,,1156.1312,1156.3635,,55,55,,,,,,,,,,,,,,,,bars/006.png,bars/mask006.png,,,,,,,,,,,,0,1,,,,,,,0,2,0,1,,,,,,,,,,,1155.6336,1156.1312,1156.3635,1158.8065,space,2.4217,,1158.8066,20,45,1159.8109,1159.8111,1160.8899,space,1.0502,,0,17,17,17,1,35,100,,,,,,,,
,,61090b7186e1761f97308af9,65af5320fa16a017ecb7807b,2024-01-23_07h54.08.173,bars,2023.2.3,Win32,60.24096386,657b66ea316d21385b68909f,,,,,,,,,,,1160.8902,1161.8867,,,1162.3836,1162.6384,,154,154,,,,,,,,,,,,,,,,bars/011.png,bars/mask006.png,,,,,,,,,,,,2,1,,,,,,,2,4,2,5,,,,,,,,,,,1161.8867,1162.3836,1162.6385,1167.0184,space,4.3461,,1167.0186,6,69,1168.0138,1168.0139,1168.1332,space,0.0783,,0,18,18,18,1,160,85,,,,,,,,
,,61090b7186e1761f97308af9,65af5320fa16a017ecb7807b,2024-01-23_07h54.08.173,bars,2023.2.3,Win32,60.24096386,657b66ea316d21385b68909f,,,,,,,,,,,1168.1338,1169.1248,,,1169.609,1169.8637,,45,45,,,,,,,,,,,,,,,,bars/026.png,bars/mask001.png,,,,,,,,,,,,0,1,,,,,,,0,2,0,2,,,,,,,,,,,1169.125,1169.6089,1169.8638,1173.3335,space,3.4473,,1173.3336,10,40,1174.3285,1174.3286,1176.8459,space,2.4745,,0,19,19,19,1,35,85,,,,,,,,
,,61090b7186e1761f97308af9,65af5320fa16a017ecb7807b,2024-01-23_07h54.08.173,bars,2023.2.3,Win32,60.24096386,657b66ea316d21385b68909f,,,,,,,,,,,1176.8466,1177.8236,,,1178.323,1178.5726,,93,93,,,,,,,,,,,,,,,,bars/029.png,bars/mask004.png,,,,,,,,,,,,0,1,,,,,,,0,4,0,4,,,,,,,,,,,1177.8237,1178.3229,1178.5727,1182.2138,space,3.6142,,1182.2139,3,48,1183.2136,1183.2137,1183.748,space,0.4984,,0,20,20,20,1,90,45,,,,,,,,
,,61090b7186e1761f97308af9,65af5320fa16a017ecb7807b,2024-01-23_07h54.08.173,bars,2023.2.3,Win32,60.24096386,657b66ea316d21385b68909f,,,,,,,,,,,1183.7483,1184.7398,,,1185.2417,1185.4878,,90,90,,,,,,,,,,,,,,,,bars/012.png,bars/mask003.png,,,,,,,,,,,,1,1,,,,,,,0,6,1,7,,,,,,,,,,,1184.7399,1185.2416,1185.488,1188.5629,space,3.0348,,1188.563,0,75,1189.5764,1189.5765,1190.9165,space,1.3099,,0,21,21,21,1,90,15,,,,,,,,
,,61090b7186e1761f97308af9,65af5320fa16a017ecb7807b,2024-01-23_07h54.08.173,bars,2023.2.3,Win32,60.24096386,657b66ea316d21385b68909f,,,,,,,,,,,1190.9168,1191.8974,,,1192.3949,1192.5759,,49,49,,,,,,,,,,,,,,,,bars/019.png,bars/mask004.png,,,,,,,,,,,,0,1,,,,,,,0,4,0,5,,,,,,,,,,,1191.8976,1192.3948,1192.576,1199.3593,space,6.7169,,1199.3594,4,56,1200.357,1200.3571,1201.6927,space,1.3054,,0,22,22,22,1,45,105,,,,,,,,
,,61090b7186e1761f97308af9,65af5320fa16a017ecb7807b,2024-01-23_07h54.08.173,bars,2023.2.3,Win32,60.24096386,657b66ea316d21385b68909f,,,,,,,,,,,1201.6931,1202.6907,,,1203.1815,1203.4141,,11,11,,,,,,,,,,,,,,,,bars/000.png,bars/mask002.png,,,,,,,,,,,,0,1,,,,,,,0,6,1,6,,,,,,,,,,,1202.6907,1203.1815,1203.4143,1206.8743,space,3.4379,,1206.8744,29,46,1207.8672,1207.8673,1209.5178,space,1.6102,,0,23,23,23,1,40,145,,,,,,,,
,,61090b7186e1761f97308af9,65af5320fa16a017ecb7807b,2024-01-23_07h54.08.173,bars,2023.2.3,Win32,60.24096386,657b66ea316d21385b68909f,,,,,,,,,,,1209.5181,1210.512,,,1211.0214,1211.2777,,26,26,,,,,,,,,,,,,,,,bars/005.png,bars/mask008.png,,,,,,,,,,,,0,1,,,,,,,0,4,1,6,,,,,,,,,,,1210.5122,1211.0214,1211.2778,1213.9205,space,2.6151,,1213.9206,16,66,1214.9193,1214.9193,1215.7044,space,0.7497,,0,24,24,24,1,10,140,,,,,,,,
,,61090b7186e1761f97308af9,65af5320fa16a017ecb7807b,2024-01-23_07h54.08.173,bars,2023.2.3,Win32,60.24096386,657b66ea316d21385b68909f,,,,,,,,,,,1215.7048,1216.7085,,,1217.1976,1217.4468,,137,137,,,,,,,,,,,,,,,,bars/020.png,bars/mask002.png,,,,,,,,,,,,0,1,,,,,,,0,2,0,1,,,,,,,,,,,1216.7087,1217.1974,1217.4469,1223.7341,space,6.2634,,1223.7341,22,33,1224.7276,1224.7277,1295.7942,space,71.0232,,0,25,25,25,1,115,170,,,,,,,,
,,61090b7186e1761f97308af9,65af5320fa16a017ecb7807b,2024-01-23_07h54.08.173,bars,2023.2.3,Win32,60.24096386,657b66ea316d21385b68909f,,,,,,,,,,,1295.8056,1296.8088,,,1297.3161,1297.5744,,120,120,,,,,,,,,,,,,,,,bars/001.png,bars/mask009.png,,,,,,,,,,,,3,1,,,,,,,2,4,4,4,,,,,,,,,,,1296.8089,1297.316,1297.5744,1301.8412,space,4.2435,,1301.8413,10,35,1302.8397,1302.8398,1303.2526,space,0.3765,,0,26,26,26,1,130,85,,,,,,,,
,,61090b7186e1761f97308af9,65af5320fa16a017ecb7807b,2024-01-23_07h54.08.173,bars,2023.2.3,Win32,60.24096386,657b66ea316d21385b68909f,,,,,,,,,,,1303.2531,1304.2539,,,1304.7636,1305.0129,,38,218,,,,,,,,,,,,,,,,bars/000.png,bars/mask009.png,,,,,,,,,,,,0,1,,,,,,,0,2,0,5,,,,,,,,,,,1304.2539,1304.7634,1305.013,1309.3397,space,4.2928,,1309.3398,2,73,1310.3376,1310.3377,1311.6469,space,1.2732,,0,27,27,27,1,40,145,,,,,,,,
,,61090b7186e1761f97308af9,65af5320fa16a017ecb7807b,2024-01-23_07h54.08.173,bars,2023.2.3,Win32,60.24096386,657b66ea316d21385b68909f,,,,,,,,,,,1311.6473,1312.6216,,,1313.1131,1313.3463,,37,37,,,,,,,,,,,,,,,,bars/004.png,bars/mask008.png,,,,,,,,,,,,1,1,,,,,,,2,4,1,4,,,,,,,,,,,1312.6216,1313.113,1313.3466,1316.7189,space,3.3319,,1316.719,12,88,1317.7124,1317.7126,1318.4047,space,0.6527,,0,28,28,28,1,25,125,,,,,,,,
,,61090b7186e1761f97308af9,65af5320fa16a017ecb7807b,2024-01-23_07h54.08.173,bars,2023.2.3,Win32,60.24096386,657b66ea316d21385b68909f,,,,,,,,,,,1318.4051,1319.4122,,,1319.9134,1320.1698,,119,119,,,,,,,,,,,,,,,,bars/024.png,bars/mask000.png,,,,,,,,,,,,0,1,,,,,,,0,2,0,3,,,,,,,,,,,1319.4124,1319.9133,1320.1699,1322.5341,space,2.3318,,1322.5341,1,51,1323.5285,1323.5287,1324.1008,space,0.5299,,0,29,29,29,1,120,170,,,,,,,,
,,61090b7186e1761f97308af9,65af5320fa16a017ecb7807b,2024-01-23_07h54.08.173,bars,2023.2.3,Win32,60.24096386,657b66ea316d21385b68909f,,,,,,,,,,,1324.1012,1325.0813,,,1325.5881,1325.8279,,136,136,,,,,,,,,,,,,,,,bars/040.png,bars/mask001.png,,,,,,,,,,,,0,1,,,,,,,0,4,0,6,,,,,,,,,,,1325.0814,1325.588,1325.828,1331.3124,space,5.4625,,1331.3125,4,49,1332.3152,1332.3152,1334.2494,space,1.8964,,0,30,30,30,1,140,5,,,,,,,,
,,61090b7186e1761f97308af9,65af5320fa16a017ecb7807b,2024-01-23_07h54.08.173,bars,2023.2.3,Win32,60.24096386,657b66ea316d21385b68909f,,,,,,,,,,,1334.25,1335.2455,,,1335.742,1335.9971,,144,144,,,,,,,,,,,,,,,,bars/046.png,bars/mask003.png,,,,,,,,,,,,1,1,,,,,,,0,2,1,1,,,,,,,,,,,1335.2455,1335.7419,1335.9972,1338.3812,space,2.3535,,1338.3812,11,59,1339.3733,1339.3735,1341.0368,space,1.6231,,0,31,31,31,1,155,85,,,,,,,,
,,61090b7186e1761f97308af9,65af5320fa16a017ecb7807b,2024-01-23_07h54.08.173,bars,2023.2.3,Win32,60.24096386,657b66ea316d21385b68909f,,,,,,,,,,,1341.0373,1342.0407,,,1342.5173,1342.7553,,101,101,,,,,,,,,,,,,,,,bars/045.png,bars/mask003.png,,,,,,,,,,,,1,1,,,,,,,2,4,1,5,,,,,,,,,,,1342.0407,1342.5172,1342.7554,1346.0095,space,3.2178,,1346.0096,1,89,1347.0032,1347.0033,1349.8508,space,2.806,,0,32,32,32,1,100,10,,,,,,,,
,,61090b7186e1761f97308af9,65af5320fa16a017ecb7807b,2024-01-23_07h54.08.173,bars,2023.2.3,Win32,60.24096386,657b66ea316d21385b68909f,,,,,,,,,,,1349.8513,1350.8313,,,1351.336,1351.5722,,21,21,,,,,,,,,,,,,,,,bars/047.png,bars/mask009.png,,,,,,,,,,,,2,1,,,,,,,4,2,2,4,,,,,,,,,,,1350.8315,1351.3358,1351.5724,1356.8389,space,5.2326,,1356.839,6,49,1357.8328,1357.8329,1358.4227,space,0.5476,,0,33,33,33,1,15,70,,,,,,,,
,,61090b7186e1761f97308af9,65af5320fa16a017ecb7807b,2024-01-23_07h54.08.173,bars,2023.2.3,Win32,60.24096386,657b66ea316d21385b68909f,,,,,,,,,,,1358.4232,1359.4133,,,1359.9118,1360.1454,,101,101,,,,,,,,,,,,,,,,bars/012.png,bars/mask002.png,,,,,,,,,,,,0,1,,,,,,,2,4,0,3,,,,,,,,,,,1359.4134,1359.9117,1360.1455,1362.4215,space,2.2487,,1362.4216,11,86,1363.41,1363.4101,1363.8703,space,0.4278,,0,34,34,34,1,90,15,,,,,,,,
,,61090b7186e1761f97308af9,65af5320fa16a017ecb7807b,2024-01-23_07h54.08.173,bars,2023.2.3,Win32,60.24096386,657b66ea316d21385b68909f,,,,,,,,,,,1363.8706,1364.86,,,1365.3619,1365.6053,,67,67,,,,,,,,,,,,,,,,bars/014.png,bars/mask004.png,,,,,,,,,,,,0,1,,,,,,,0,6,0,6,,,,,,,,,,,1364.8602,1365.3618,1365.6054,1369.0689,space,3.4418,,1369.069,13,67,1370.0771,1370.0772,1372.7346,space,2.6169,,0,35,35,35,1,80,0,,,,,,,,
,,61090b7186e1761f97308af9,65af5320fa16a017ecb7807b,2024-01-23_07h54.08.173,bars,2023.2.3,Win32,60.24096386,657b66ea316d21385b68909f,,,,,,,,,,,1372.7351,1373.7322,,,1374.1984,1374.428,,33,33,,,,,,,,,,,,,,,,bars/000.png,bars/mask001.png,,,,,,,,,,,,0,1,,,,,,,0,4,0,3,,,,,,,,,,,1373.7323,1374.1983,1374.4281,1379.9162,space,5.4513,,1379.9163,7,68,1380.9124,1380.9125,1381.6879,space,0.7388,,0,36,36,36,1,40,145,,,,,,,,
,,61090b7186e1761f97308af9,65af5320fa16a017ecb7807b,2024-01-23_07h54.08.173,bars,2023.2.3,Win32,60.24096386,657b66ea316d21385b68909f,,,,,,,,,,,1381.6884,1382.6796,,,1383.1737,1383.4243,,134,134,,,,,,,,,,,,,,,,bars/037.png,bars/mask001.png,,,,,,,,,,,,0,1,,,,,,,0,6,0,5,,,,,,,,,,,1382.6797,1383.1735,1383.4245,1386.5913,space,3.1437,,1386.5913,16,29,1387.5687,1387.5688,1392.4785,space,4.8773,,0,37,37,37,1,150,105,,,,,,,,
,,61090b7186e1761f97308af9,65af5320fa16a017ecb7807b,2024-01-23_07h54.08.173,bars,2023.2.3,Win32,60.24096386,657b66ea316d21385b68909f,,,,,,,,,,,1392.4886,1393.4866,,,1393.9769,1394.2159,,147,147,,,,,,,,,,,,,,,,bars/036.png,bars/mask008.png,,,,,,,,,,,,0,1,,,,,,,0,4,0,6,,,,,,,,,,,1393.4867,1393.9768,1394.216,1399.2539,space,5.0114,,1399.254,2,53,1400.2467,1400.2469,1400.7742,space,0.4951,,0,38,38,38,1,145,20,,,,,,,,
,,61090b7186e1761f97308af9,65af5320fa16a017ecb7807b,2024-01-23_07h54.08.173,bars,2023.2.3,Win32,60.24096386,657b66ea316d21385b68909f,,,,,,,,,,,1400.7747,1401.7674,,,1402.2689,1402.5084,,131,-49,,,,,,,,,,,,,,,,bars/030.png,bars/mask005.png,,,,,,,,,,,,1,1,,,,,,,2,2,1,2,,,,,,,,,,,1401.7675,1402.2689,1402.5085,1406.1648,space,3.624,,1406.1648,9,66,1407.1527,1407.1527,1409.4924,space,2.3027,,0,39,39,39,1,140,65,,,,,,,,
,,61090b7186e1761f97308af9,65af5320fa16a017ecb7807b,2024-01-23_07h54.08.173,bars,2023.2.3,Win32,60.24096386,657b66ea316d21385b68909f,,,,,,,,,,,1409.4931,1410.4848,,,1410.994,1411.245,,71,71,,,,,,,,,,,,,,,,bars/014.png,bars/mask009.png,,,,,,,,,,,,3,1,,,,,,,4,4,4,3,,,,,,,,,,,1410.4848,1410.9938,1411.2452,1415.686,space,4.4108,,1415.686,9,71,1416.6798,1416.6799,1417.4014,space,0.6802,,0,40,40,40,1,80,0,,,,,,,,
,,61090b7186e1761f97308af9,65af5320fa16a017ecb7807b,2024-01-23_07h54.08.173,bars,2023.2.3,Win32,60.24096386,657b66ea316d21385b68909f,,,,,,,,,,,1417.402,1418.4196,,,1418.9078,1419.1566,,155,155,,,,,,,,,,,,,,,,bars/035.png,bars/mask001.png,,,,,,,,,,,,2,1,,,,,,,6,2,5,3,,,,,,,,,,,1418.4196,1418.9076,1419.1567,1425.5167,space,6.3324,,1425.5168,20,85,1426.5098,1426.5099,1427.2124,space,0.6628,,0,41,41,41,1,175,60,,,,,,,,
,,61090b7186e1761f97308af9,65af5320fa16a017ecb7807b,2024-01-23_07h54.08.173,bars,2023.2.3,Win32,60.24096386,657b66ea316d21385b68909f,,,,,,,,,,,1427.213,1428.2164,,,1428.7113,1428.949,,136,136,,,,,,,,,,,,,,,,bars/024.png,bars/mask005.png,,,,,,,,,,,,2,1,,,,,,,4,4,4,3,,,,,,,,,,,1428.2165,1428.7112,1428.9491,1431.1101,space,2.1282,,1431.1101,16,34,1432.0765,1432.0766,1435.0394,space,2.8612,,0,42,42,42,1,120,170,,,,,,,,
,,61090b7186e1761f97308af9,65af5320fa16a017ecb7807b,2024-01-23_07h54.08.173,bars,2023.2.3,Win32,60.24096386,657b66ea316d21385b68909f,,,,,,,,,,,1435.0485,1436.0545,,,1436.5507,1436.812,,110,110,,,,,,,,,,,,,,,,bars/015.png,bars/mask008.png,,,,,,,,,,,,4,1,,,,,,,2,6,4,6,,,,,,,,,,,1436.0545,1436.5505,1436.8121,1440.521,space,3.6944,,1440.5212,0,50,1441.511,1441.5111,1443.125,space,1.5786,,0,43,43,43,1,110,160,,,,,,,,
,,61090b7186e1761f97308af9,65af5320fa16a017ecb7807b,2024-01-23_07h54.08.173,bars,2023.2.3,Win32,60.24096386,657b66ea316d21385b68909f,,,,,,,,,,,1443.1255,1444.1259,,,1444.6158,1444.8595,,0,180,,,,,,,,,,,,,,,,bars/007.png,bars/mask000.png,,,,,,,,,,,,4,1,,,,,,,4,4,5,3,,,,,,,,,,,1444.1259,1444.6157,1444.8596,1448.5874,space,3.7133,,1448.5875,5,55,1449.5915,1449.5916,1450.7658,space,1.1383,,0,44,44,44,1,175,55,,,,,,,,
,,61090b7186e1761f97308af9,65af5320fa16a017ecb7807b,2024-01-23_07h54.08.173,bars,2023.2.3,Win32,60.24096386,657b66ea316d21385b68909f,,,,,,,,,,,1450.7662,1451.7557,,,1452.2637,1452.5137,,15,15,,,,,,,,,,,,,,,,bars/047.png,bars/mask008.png,,,,,,,,,,,,5,1,,,,,,,6,6,5,6,,,,,,,,,,,1451.7557,1452.2637,1452.5137,1457.822,space,5.2815,,1457.822,0,55,1458.8107,1458.8109,1460.458,space,1.6141,,0,45,45,45,1,15,70,,,,,,,,
,,61090b7186e1761f97308af9,65af5320fa16a017ecb7807b,2024-01-23_07h54.08.173,bars,2023.2.3,Win32,60.24096386,657b66ea316d21385b68909f,,,,,,,,,,,1460.4587,1461.4438,,,1461.9323,1462.1705,,62,62,,,,,,,,,,,,,,,,bars/048.png,bars/mask007.png,,,,,,,,,,,,2,1,,,,,,,4,4,3,5,,,,,,,,,,,1461.4439,1461.9321,1462.1705,1467.8634,space,5.6694,,1467.8634,12,67,1468.8582,1468.8582,1469.4968,space,0.6049,,0,46,46,46,1,50,175,,,,,,,,
,,61090b7186e1761f97308af9,65af5320fa16a017ecb7807b,2024-01-23_07h54.08.173,bars,2023.2.3,Win32,60.24096386,657b66ea316d21385b68909f,,,,,,,,,,,1469.4972,1470.4821,,,1470.9775,1471.2221,,137,137,,,,,,,,,,,,,,,,bars/024.png,bars/mask006.png,,,,,,,,,,,,3,1,,,,,,,6,6,6,5,,,,,,,,,,,1470.4822,1470.9773,1471.2221,1474.2107,space,2.9575,,1474.2107,17,33,1475.1975,1475.1976,1478.8688,space,3.6379,,0,47,47,47,1,120,170,,,,,,,,
,,61090b7186e1761f97308af9,65af5320fa16a017ecb7807b,2024-01-23_07h54.08.173,bars,2023.2.3,Win32,60.24096386,657b66ea316d21385b68909f,,,,,,,,,,,1478.8796,1479.8739,,,1480.363,1480.6041,,143,143,,,,,,,,,,,,,,,,bars/042.png,bars/mask006.png,,,,,,,,,,,,5,1,,,,,,,4,8,5,9,,,,,,,,,,,1479.874,1480.363,1480.6042,1486.0942,space,5.4637,,1486.0944,2,68,1487.0925,1487.0927,1487.8284,space,0.698,,0,48,48,48,1,145,75,,,,,,,,
,,61090b7186e1761f97308af9,65af5320fa16a017ecb7807b,2024-01-23_07h54.08.173,bars,2023.2.3,Win32,60.24096386,657b66ea316d21385b68909f,,,,,,,,,,,1487.8288,1488.8423,,,1489.3396,1489.5952,,139,139,,,,,,,,,,,,,,,,bars/040.png,bars/mask007.png,,,,,,,,,,,,2,1,,,,,,,2,10,2,10,,,,,,,,,,,1488.8424,1489.3395,1489.5953,1494.9343,space,5.3158,,1494.9344,1,46,1495.9415,1495.9416,1497.3248,space,1.3532,,0,49,49,49,1,140,5,,,,,,,,
,,61090b7186e1761f97308af9,65af5320fa16a017ecb7807b,2024-01-23_07h54.08.173,bars,2023.2.3,Win32,60.24096386,657b66ea316d21385b68909f,,,,,,,,,,,,,,,,,,,,,,,,,,,,,,,,,,,,,,,,,,,,,,,,,,,,,,,,,,,,,,,,,,,,,,,,,,,,,,,,,,,,,,,,,,,,,1497.3257,1557.3236,0,0,0,4,1,sequence_tables/blk022.csv
,,61090b7186e1761f97308af9,65af5320fa16a017ecb7807b,2024-01-23_07h54.08.173,bars,2023.2.3,Win32,60.24096386,657b66ea316d21385b68909f,,,,,,,,,,,1807.1978,1808.1688,,,1808.6873,1808.9327,,91,91,,,,,,,,,,,,,,,,bars/025.png,bars/mask008.png,,,,,,,,,,,,3,1,,,,,,,5,7,6,8,,,,,,1557.3341,1807.1797,space,249.8184,,1808.1689,1808.6872,1808.9329,1811.0354,space,2.0808,,1811.0354,14,51,1812.0413,1812.0415,1812.0535,,,,0,0,0,0,1,105,40,,,,,,,,
,,61090b7186e1761f97308af9,65af5320fa16a017ecb7807b,2024-01-23_07h54.08.173,bars,2023.2.3,Win32,60.24096386,657b66ea316d21385b68909f,,,,,,,,,,,1812.0538,1813.059,,,1813.5631,1813.8028,,176,-4,,,,,,,,,,,,,,,,bars/007.png,bars/mask000.png,,,,,,,,,,,,5,1,,,,,,,7,9,5,8,,,,,,,,,,,1813.0593,1813.563,1813.8028,1817.5016,space,3.6681,,1817.5017,1,59,1818.4909,1818.4911,1818.5029,,,,0,1,1,1,1,175,55,,,,,,,,
,,61090b7186e1761f97308af9,65af5320fa16a017ecb7807b,2024-01-23_07h54.08.173,bars,2023.2.3,Win32,60.24096386,657b66ea316d21385b68909f,,,,,,,,,,,1818.5031,1819.4945,,,1819.988,1820.2282,,160,160,,,,,,,,,,,,,,,,bars/010.png,bars/mask001.png,,,,,,,,,,,,3,1,,,,,,,5,10,4,10,,,,,,,,,,,1819.4946,1819.9879,1820.2282,1823.6995,space,3.4493,,1823.6995,5,75,1824.6935,1824.6936,1824.7042,,,,0,2,2,2,1,165,55,,,,,,,,
,,61090b7186e1761f97308af9,65af5320fa16a017ecb7807b,2024-01-23_07h54.08.173,bars,2023.2.3,Win32,60.24096386,657b66ea316d21385b68909f,,,,,,,,,,,1824.7044,1825.6927,,,1826.1818,1826.4259,,28,28,,,,,,,,,,,,,,,,bars/019.png,bars/mask006.png,,,,,,,,,,,,1,1,,,,,,,3,10,2,9,,,,,,,,,,,1825.6928,1826.1818,1826.4259,1854.738,space,28.2902,,1854.738,17,77,1855.7319,1855.7321,1855.7441,,,,0,3,3,3,1,45,105,,,,,,,,
,,61090b7186e1761f97308af9,65af5320fa16a017ecb7807b,2024-01-23_07h54.08.173,bars,2023.2.3,Win32,60.24096386,657b66ea316d21385b68909f,,,,,,,,,,,1855.7442,1856.7328,,,1857.2328,1857.4942,,170,170,,,,,,,,,,,,,,,,bars/039.png,bars/mask007.png,,,,,,,,,,,,0,1,,,,,,,1,10,0,10,,,,,,,,,,,1856.7329,1857.2327,1857.4942,1860.2337,space,2.7119,,1860.2338,5,65,1861.2263,1861.2263,1861.2383,,,,0,4,4,4,1,175,105,,,,,,,,
,,61090b7186e1761f97308af9,65af5320fa16a017ecb7807b,2024-01-23_07h54.08.173,bars,2023.2.3,Win32,60.24096386,657b66ea316d21385b68909f,,,,,,,,,,,1861.2385,1862.2454,,,1862.7414,1862.9761,,157,157,,,,,,,,,,,,,,,,bars/049.png,bars/mask004.png,,,,,,,,,,,,1,1,,,,,,,0,10,1,10,,,,,,,,,,,1862.2455,1862.7413,1862.9762,1866.6798,space,3.6764,,1866.6799,3,42,1867.691,1867.6911,1867.703,,,,0,5,5,5,1,160,115,,,,,,,,
,,61090b7186e1761f97308af9,65af5320fa16a017ecb7807b,2024-01-23_07h54.08.173,bars,2023.2.3,Win32,60.24096386,657b66ea316d21385b68909f,,,,,,,,,,,1867.7031,1868.6949,,,1869.2067,1869.4481,,110,110,,,,,,,,,,,,,,,,bars/032.png,bars/mask009.png,,,,,,,,,,,,1,1,,,,,,,2,8,1,10,,,,,,,,,,,1868.695,1869.2066,1869.4482,1872.5124,space,3.0305,,1872.5125,15,90,1873.5058,1873.5059,1873.5174,,,,0,6,6,6,1,125,20,,,,,,,,
,,61090b7186e1761f97308af9,65af5320fa16a017ecb7807b,2024-01-23_07h54.08.173,bars,2023.2.3,Win32,60.24096386,657b66ea316d21385b68909f,,,,,,,,,,,1873.5177,1874.5146,,,1874.98,1875.2382,,153,153,,,,,,,,,,,,,,,,bars/036.png,bars/mask004.png,,,,,,,,,,,,0,1,,,,,,,0,6,0,5,,,,,,,,,,,1874.5147,1874.9799,1875.2382,1878.5754,space,3.3103,,1878.5755,8,47,1879.5707,1879.5709,1879.5825,,,,0,7,7,7,1,145,20,,,,,,,,
,,61090b7186e1761f97308af9,65af5320fa16a017ecb7807b,2024-01-23_07h54.08.173,bars,2023.2.3,Win32,60.24096386,657b66ea316d21385b68909f,,,,,,,,,,,1879.5827,1880.5796,,,1881.0744,1881.328,,31,31,,,,,,,,,,,,,,,,bars/016.png,bars/mask009.png,,,,,,,,,,,,1,1,,,,,,,0,8,1,7,,,,,,,,,,,1880.5796,1881.0742,1881.328,1887.257,space,5.9131,,1887.257,9,46,1888.2599,1888.2599,1888.2723,,,,0,8,8,8,1,40,165,,,,,,,,
,,61090b7186e1761f97308af9,65af5320fa16a017ecb7807b,2024-01-23_07h54.08.173,bars,2023.2.3,Win32,60.24096386,657b66ea316d21385b68909f,,,,,,,,,,,1888.2725,1889.2768,,,1889.7693,1890.0098,,99,99,,,,,,,,,,,,,,,,bars/045.png,bars/mask003.png,,,,,,,,,,,,0,1,,,,,,,0,6,0,5,,,,,,,,,,,1889.2768,1889.7692,1890.0098,1894.1761,space,4.1432,,1894.1761,1,89,1895.1681,1895.1682,1895.1801,,,,0,9,9,9,1,100,10,,,,,,,,
,,61090b7186e1761f97308af9,65af5320fa16a017ecb7807b,2024-01-23_07h54.08.173,bars,2023.2.3,Win32,60.24096386,657b66ea316d21385b68909f,,,,,,,,,,,1895.1805,1896.1741,,,1896.6699,1896.9304,,26,26,,,,,,,,,,,,,,,,bars/003.png,bars/mask009.png,,,,,,,,,,,,1,1,,,,,,,0,8,1,8,,,,,,,,,,,1896.1742,1896.6698,1896.9305,1905.1716,space,8.2139,,1905.1717,1,66,1906.161,1906.1612,1906.1795,,,,0,10,10,10,1,25,140,,,,,,,,
,,61090b7186e1761f97308af9,65af5320fa16a017ecb7807b,2024-01-23_07h54.08.173,bars,2023.2.3,Win32,60.24096386,657b66ea316d21385b68909f,,,,,,,,,,,1906.1798,1907.1607,,,1907.6626,1907.9159,,75,75,,,,,,,,,,,,,,,,bars/013.png,bars/mask009.png,,,,,,,,,,,,0,1,,,,,,,0,10,0,10,,,,,,,,,,,1907.1608,1907.6625,1907.916,1911.7448,space,3.7915,,1911.7449,0,65,1912.7529,1912.7529,1912.7697,,,,0,11,11,11,1,75,10,,,,,,,,
,,61090b7186e1761f97308af9,65af5320fa16a017ecb7807b,2024-01-23_07h54.08.173,bars,2023.2.3,Win32,60.24096386,657b66ea316d21385b68909f,,,,,,,,,,,1912.77,1913.7735,,,1914.2592,1914.4974,,9,9,,,,,,,,,,,,,,,,bars/023.png,bars/mask005.png,,,,,,,,,,,,0,1,,,,,,,0,8,0,8,,,,,,,,,,,1913.7736,1914.2591,1914.4975,1919.6341,space,5.0997,,1919.6341,11,74,1920.6463,1920.6464,1920.6588,,,,0,12,12,12,1,20,115,,,,,,,,
,,61090b7186e1761f97308af9,65af5320fa16a017ecb7807b,2024-01-23_07h54.08.173,bars,2023.2.3,Win32,60.24096386,657b66ea316d21385b68909f,,,,,,,,,,,1920.6591,1921.6609,,,1922.1572,1922.3905,,15,195,,,,,,,,,,,,,,,,bars/023.png,bars/mask009.png,,,,,,,,,,,,2,1,,,,,,,2,6,2,5,,,,,,,,,,,1921.6609,1922.1571,1922.3906,1925.5054,space,3.0847,,1925.5054,5,80,1926.5196,1926.5196,1926.5291,,,,0,13,13,13,1,20,115,,,,,,,,
,,61090b7186e1761f97308af9,65af5320fa16a017ecb7807b,2024-01-23_07h54.08.173,bars,2023.2.3,Win32,60.24096386,657b66ea316d21385b68909f,,,,,,,,,,,1926.5294,1927.5209,,,1928.0046,1928.2533,,154,-26,,,,,,,,,,,,,,,,bars/036.png,bars/mask009.png,,,,,,,,,,,,1,1,,,,,,,0,8,1,8,,,,,,,,,,,1927.521,1928.0046,1928.2534,1932.7632,space,4.4827,,1932.7633,9,46,1933.7684,1933.7684,1933.7822,,,,0,14,14,14,1,145,20,,,,,,,,
,,61090b7186e1761f97308af9,65af5320fa16a017ecb7807b,2024-01-23_07h54.08.173,bars,2023.2.3,Win32,60.24096386,657b66ea316d21385b68909f,,,,,,,,,,,1933.7824,1934.7704,,,1935.268,1935.517,,68,68,,,,,,,,,,,,,,,,bars/013.png,bars/mask002.png,,,,,,,,,,,,0,1,,,,,,,2,10,0,10,,,,,,,,,,,1934.7706,1935.268,1935.5172,1938.3212,space,2.7766,,1938.3213,7,58,1939.3166,1939.3168,1939.3284,,,,0,15,15,15,1,75,10,,,,,,,,
,,61090b7186e1761f97308af9,65af5320fa16a017ecb7807b,2024-01-23_07h54.08.173,bars,2023.2.3,Win32,60.24096386,657b66ea316d21385b68909f,,,,,,,,,,,1939.3286,1940.3082,,,1940.8162,1941.0499,,91,91,,,,,,,,,,,,,,,,bars/012.png,bars/mask004.png,,,,,,,,,,,,2,1,,,,,,,4,10,2,10,,,,,,,,,,,1940.3083,1940.816,1941.05,1945.6236,space,4.5454,,1945.6237,1,76,1946.6146,1946.6148,1946.6266,,,,0,16,16,16,1,90,15,,,,,,,,
,,61090b7186e1761f97308af9,65af5320fa16a017ecb7807b,2024-01-23_07h54.08.173,bars,2023.2.3,Win32,60.24096386,657b66ea316d21385b68909f,,,,,,,,,,,1946.6268,1947.6228,,,1948.1188,1948.3683,,135,135,,,,,,,,,,,,,,,,bars/037.png,bars/mask001.png,,,,,,,,,,,,1,1,,,,,,,2,8,2,9,,,,,,,,,,,1947.6228,1948.1187,1948.3685,1950.8726,space,2.4822,,1950.8726,15,30,1951.8672,1951.8672,1951.8787,,,,0,17,17,17,1,150,105,,,,,,,,
,,61090b7186e1761f97308af9,65af5320fa16a017ecb7807b,2024-01-23_07h54.08.173,bars,2023.2.3,Win32,60.24096386,657b66ea316d21385b68909f,,,,,,,,,,,1951.8791,1952.8821,,,1953.3892,1953.6459,,139,139,,,,,,,,,,,,,,,,bars/037.png,bars/mask004.png,,,,,,,,,,,,0,1,,,,,,,0,6,0,7,,,,,,,,,,,1952.8821,1953.3891,1953.646,1956.3011,space,2.6282,,1956.3012,11,34,1957.2844,1957.2845,1957.2853,,,,0,18,18,18,1,150,105,,,,,,,,
,,61090b7186e1761f97308af9,65af5320fa16a017ecb7807b,2024-01-23_07h54.08.173,bars,2023.2.3,Win32,60.24096386,657b66ea316d21385b68909f,,,,,,,,,,,1957.2857,1958.2937,,,1958.7695,1959.012,,153,153,,,,,,,,,,,,,,,,bars/046.png,bars/mask009.png,,,,,,,,,,,,2,1,,,,,,,0,4,2,3,,,,,,,,,,,1958.2939,1958.7695,1959.0121,1962.8026,space,3.7741,,1962.8027,2,68,1963.8,1963.8,1963.8108,,,,0,19,19,19,1,155,85,,,,,,,,
,,61090b7186e1761f97308af9,65af5320fa16a017ecb7807b,2024-01-23_07h54.08.173,bars,2023.2.3,Win32,60.24096386,657b66ea316d21385b68909f,,,,,,,,,,,1963.811,1964.791,,,1965.3013,1965.551,,48,48,,,,,,,,,,,,,,,,bars/019.png,bars/mask005.png,,,,,,,,,,,,1,1,,,,,,,2,2,1,1,,,,,,,,,,,1964.7912,1965.3012,1965.5511,1967.8496,space,2.2652,,1967.8497,3,57,1968.8498,1968.8499,1968.8615,,,,0,20,20,20,1,45,105,,,,,,,,
,,61090b7186e1761f97308af9,65af5320fa16a017ecb7807b,2024-01-23_07h54.08.173,bars,2023.2.3,Win32,60.24096386,657b66ea316d21385b68909f,,,,,,,,,,,1968.8617,1969.8476,,,1970.3574,1970.5902,,106,106,,,,,,,,,,,,,,,,bars/027.png,bars/mask006.png,,,,,,,,,,,,3,1,,,,,,,4,0,4,0,,,,,,,,,,,1969.8476,1970.3572,1970.5903,1974.2435,space,3.6265,,1974.2436,4,56,1975.2546,1975.2546,1975.2655,,,,0,21,21,21,1,110,50,,,,,,,,
,,61090b7186e1761f97308af9,65af5320fa16a017ecb7807b,2024-01-23_07h54.08.173,bars,2023.2.3,Win32,60.24096386,657b66ea316d21385b68909f,,,,,,,,,,,1975.2656,1976.271,,,1976.7641,1977.01,,17,17,,,,,,,,,,,,,,,,bars/035.png,bars/mask009.png,,,,,,,,,,,,1,1,,,,,,,2,0,3,0,,,,,,,,,,,1976.2711,1976.764,1977.0101,1982.666,space,5.6208,,1982.6662,22,43,1983.6575,1983.6576,1983.6684,,,,0,22,22,22,1,175,60,,,,,,,,
,,61090b7186e1761f97308af9,65af5320fa16a017ecb7807b,2024-01-23_07h54.08.173,bars,2023.2.3,Win32,60.24096386,657b66ea316d21385b68909f,,,,,,,,,,,1983.6685,1984.6675,,,1985.1577,1985.3955,,94,94,,,,,,,,,,,,,,,,bars/013.png,bars/mask008.png,,,,,,,,,,,,0,1,,,,,,,0,0,1,0,,,,,,,,,,,1984.6676,1985.1576,1985.3955,1988.6351,space,3.2069,,1988.6352,19,84,1989.6245,1989.6245,1989.6356,,,,0,23,23,23,1,75,10,,,,,,,,
,,61090b7186e1761f97308af9,65af5320fa16a017ecb7807b,2024-01-23_07h54.08.173,bars,2023.2.3,Win32,60.24096386,657b66ea316d21385b68909f,,,,,,,,,,,1989.6358,1990.6427,,,1991.1242,1991.3498,,38,38,,,,,,,,,,,,,,,,bars/026.png,bars/mask009.png,,,,,,,,,,,,2,1,,,,,,,2,2,2,1,,,,,,,,,,,1990.6428,1991.1241,1991.3499,1997.3817,space,6.0037,,1997.3819,3,47,1998.3799,1998.38,1998.3925,,,,0,24,24,24,1,35,85,,,,,,,,
,,61090b7186e1761f97308af9,65af5320fa16a017ecb7807b,2024-01-23_07h54.08.173,bars,2023.2.3,Win32,60.24096386,657b66ea316d21385b68909f,,,,,,,,,,,1998.3927,1999.3839,,,1999.8843,2000.1421,,45,45,,,,,,,,,,,,,,,,bars/006.png,bars/mask000.png,,,,,,,,,,,,0,1,,,,,,,0,0,0,0,,,,,,,,,,,1999.384,1999.8842,2000.1421,2002.8481,space,2.6847,,2002.8482,10,55,2003.8547,2003.8548,2003.8666,,,,0,25,25,25,1,35,100,,,,,,,,
,,61090b7186e1761f97308af9,65af5320fa16a017ecb7807b,2024-01-23_07h54.08.173,bars,2023.2.3,Win32,60.24096386,657b66ea316d21385b68909f,,,,,,,,,,,2003.8668,2004.8777,,,2005.3621,2005.6166,,136,136,,,,,,,,,,,,,,,,bars/018.png,bars/mask002.png,,,,,,,,,,,,0,1,,,,,,,0,0,0,0,,,,,,,,,,,2004.8779,2005.362,2005.6167,2011.7088,space,6.0703,,2011.709,14,46,2012.692,2012.6922,2012.7055,,,,0,26,26,26,1,150,90,,,,,,,,
,,61090b7186e1761f97308af9,65af5320fa16a017ecb7807b,2024-01-23_07h54.08.173,bars,2023.2.3,Win32,60.24096386,657b66ea316d21385b68909f,,,,,,,,,,,2012.7059,2013.7079,,,2014.2008,2014.45,,16,16,,,,,,,,,,,,,,,,bars/009.png,bars/mask006.png,,,,,,,,,,,,2,1,,,,,,,2,0,2,1,,,,,,,,,,,2013.708,2014.2008,2014.4501,2016.7998,space,2.3161,,2016.7998,1,89,2017.782,2017.782,2017.7927,,,,0,27,27,27,1,15,105,,,,,,,,
,,61090b7186e1761f97308af9,65af5320fa16a017ecb7807b,2024-01-23_07h54.08.173,bars,2023.2.3,Win32,60.24096386,657b66ea316d21385b68909f,,,,,,,,,,,2017.793,2018.7932,,,2019.274,2019.5171,,40,220,,,,,,,,,,,,,,,,bars/016.png,bars/mask006.png,,,,,,,,,,,,2,1,,,,,,,0,2,2,2,,,,,,,,,,,2018.7934,2019.2739,2019.5171,2022.5881,space,3.0376,,2022.5882,0,55,2023.5978,2023.5979,2023.6096,,,,0,28,28,28,1,40,165,,,,,,,,
,,61090b7186e1761f97308af9,65af5320fa16a017ecb7807b,2024-01-23_07h54.08.173,bars,2023.2.3,Win32,60.24096386,657b66ea316d21385b68909f,,,,,,,,,,,2023.6098,2024.6082,,,2025.1047,2025.3548,,151,-29,,,,,,,,,,,,,,,,bars/039.png,bars/mask007.png,,,,,,,,,,,,0,1,,,,,,,2,0,1,0,,,,,,,,,,,2024.6083,2025.1046,2025.3549,2029.9636,space,4.5826,,2029.9637,24,46,2030.9529,2030.953,2030.9649,,,,0,29,29,29,1,175,105,,,,,,,,
,,61090b7186e1761f97308af9,65af5320fa16a017ecb7807b,2024-01-23_07h54.08.173,bars,2023.2.3,Win32,60.24096386,657b66ea316d21385b68909f,,,,,,,,,,,2030.9651,2031.9692,,,2032.4466,2032.6504,,121,121,,,,,,,,,,,,,,,,bars/024.png,bars/mask006.png,,,,,,,,,,,,1,1,,,,,,,0,2,1,3,,,,,,,,,,,2031.9696,2032.4465,2032.6504,2036.2397,space,3.5256,,2036.2399,1,49,2037.234,2037.2341,2037.2459,,,,0,30,30,30,1,120,170,,,,,,,,
,,61090b7186e1761f97308af9,65af5320fa16a017ecb7807b,2024-01-23_07h54.08.173,bars,2023.2.3,Win32,60.24096386,657b66ea316d21385b68909f,,,,,,,,,,,2037.2461,2038.2505,,,2038.7339,2038.9671,,1,1,,,,,,,,,,,,,,,,bars/035.png,bars/mask000.png,,,,,,,,,,,,0,1,,,,,,,0,0,0,1,,,,,,,,,,,2038.2506,2038.7338,2038.9672,2043.421,space,4.426,,2043.4211,6,59,2044.3891,2044.3892,2044.3988,,,,0,31,31,31,1,175,60,,,,,,,,
,,61090b7186e1761f97308af9,65af5320fa16a017ecb7807b,2024-01-23_07h54.08.173,bars,2023.2.3,Win32,60.24096386,657b66ea316d21385b68909f,,,,,,,,,,,2044.399,2045.3984,,,2045.8817,2046.12,,91,91,,,,,,,,,,,,,,,,bars/012.png,bars/mask005.png,,,,,,,,,,,,2,1,,,,,,,2,2,2,2,,,,,,,,,,,2045.3985,2045.8815,2046.1201,2049.5071,space,3.3651,,2049.5071,1,76,2050.5135,2050.5136,2050.5253,,,,0,32,32,32,1,90,15,,,,,,,,
,,61090b7186e1761f97308af9,65af5320fa16a017ecb7807b,2024-01-23_07h54.08.173,bars,2023.2.3,Win32,60.24096386,657b66ea316d21385b68909f,,,,,,,,,,,2050.5255,2051.5209,,,2052.0223,2052.2792,,25,25,,,,,,,,,,,,,,,,bars/004.png,bars/mask003.png,,,,,,,,,,,,4,1,,,,,,,4,4,4,6,,,,,,,,,,,2051.521,2052.0222,2052.2793,2059.3644,space,7.0579,,2059.3644,0,80,2060.3685,2060.3687,2060.3801,,,,0,33,33,33,1,25,125,,,,,,,,
,,61090b7186e1761f97308af9,65af5320fa16a017ecb7807b,2024-01-23_07h54.08.173,bars,2023.2.3,Win32,60.24096386,657b66ea316d21385b68909f,,,,,,,,,,,2060.3803,2061.375,,,2061.8594,2062.0835,,98,98,,,,,,,,,,,,,,,,bars/025.png,bars/mask006.png,,,,,,,,,,,,5,1,,,,,,,6,2,7,2,,,,,,,,,,,2061.3751,2061.8593,2062.0836,2065.1521,space,3.0521,,2065.1521,7,58,2066.1505,2066.1506,2066.1625,,,,0,34,34,34,1,105,40,,,,,,,,
,,61090b7186e1761f97308af9,65af5320fa16a017ecb7807b,2024-01-23_07h54.08.173,bars,2023.2.3,Win32,60.24096386,657b66ea316d21385b68909f,,,,,,,,,,,2066.1627,2067.1609,,,2067.6654,2067.9114,,0,0,,,,,,,,,,,,,,,,bars/035.png,bars/mask002.png,,,,,,,,,,,,3,1,,,,,,,4,4,4,4,,,,,,,,,,,2067.161,2067.6653,2067.9115,2073.6293,space,5.6953,,2073.6293,5,60,2074.6205,2074.6207,2074.6325,,,,0,35,35,35,1,175,60,,,,,,,,
,,61090b7186e1761f97308af9,65af5320fa16a017ecb7807b,2024-01-23_07h54.08.173,bars,2023.2.3,Win32,60.24096386,657b66ea316d21385b68909f,,,,,,,,,,,2074.6327,2075.6259,,,2076.1294,2076.3807,,89,89,,,,,,,,,,,,,,,,bars/012.png,bars/mask009.png,,,,,,,,,,,,3,1,,,,,,,2,6,3,5,,,,,,,,,,,2075.626,2076.1294,2076.3807,2079.0811,space,2.686,,2079.0811,1,74,2080.0607,2080.0607,2080.0721,,,,0,36,36,36,1,90,15,,,,,,,,
,,61090b7186e1761f97308af9,65af5320fa16a017ecb7807b,2024-01-23_07h54.08.173,bars,2023.2.3,Win32,60.24096386,657b66ea316d21385b68909f,,,,,,,,,,,2080.0725,2081.0795,,,2081.5784,2081.8187,,49,49,,,,,,,,,,,,,,,,bars/026.png,bars/mask000.png,,,,,,,,,,,,2,1,,,,,,,4,8,4,7,,,,,,,,,,,2081.0796,2081.5783,2081.8188,2087.5775,space,5.7377,,2087.5776,14,36,2088.5657,2088.5659,2088.5782,,,,0,37,37,37,1,35,85,,,,,,,,
,,61090b7186e1761f97308af9,65af5320fa16a017ecb7807b,2024-01-23_07h54.08.173,bars,2023.2.3,Win32,60.24096386,657b66ea316d21385b68909f,,,,,,,,,,,2088.5785,2089.5744,,,2090.0808,2090.343,,33,33,,,,,,,,,,,,,,,,bars/033.png,bars/mask006.png,,,,,,,,,,,,5,1,,,,,,,6,10,7,10,,,,,,,,,,,2089.5745,2090.0807,2090.3431,2095.4923,space,5.1351,,2095.4923,8,58,2096.4906,2096.4906,2096.5021,,,,0,38,38,38,1,25,155,,,,,,,,
,,61090b7186e1761f97308af9,65af5320fa16a017ecb7807b,2024-01-23_07h54.08.173,bars,2023.2.3,Win32,60.24096386,657b66ea316d21385b68909f,,,,,,,,,,,2096.5023,2097.4884,,,2097.9725,2098.2295,,102,102,,,,,,,,,,,,,,,,bars/015.png,bars/mask005.png,,,,,,,,,,,,6,1,,,,,,,8,8,8,8,,,,,,,,,,,2097.4884,2097.9724,2098.2296,2100.6238,space,2.3678,,2100.6238,8,58,2101.6225,2101.6226,2101.6342,,,,0,39,39,39,1,110,160,,,,,,,,
,,61090b7186e1761f97308af9,65af5320fa16a017ecb7807b,2024-01-23_07h54.08.173,bars,2023.2.3,Win32,60.24096386,657b66ea316d21385b68909f,,,,,,,,,,,2101.6343,2102.6291,,,2103.1227,2103.3665,,1,1,,,,,,,,,,,,,,,,bars/023.png,bars/mask006.png,,,,,,,,,,,,4,1,,,,,,,10,6,10,5,,,,,,,,,,,2102.6291,2103.1226,2103.3666,2105.9216,space,2.5155,,2105.9216,19,66,2106.91,2106.9102,2106.9224,,,,0,40,40,40,1,20,115,,,,,,,,
,,61090b7186e1761f97308af9,65af5320fa16a017ecb7807b,2024-01-23_07h54.08.173,bars,2023.2.3,Win32,60.24096386,657b66ea316d21385b68909f,,,,,,,,,,,2106.9228,2107.9269,,,2108.416,2108.6766,,16,16,,,,,,,,,,,,,,,,bars/005.png,bars/mask003.png,,,,,,,,,,,,6,1,,,,,,,8,8,7,7,,,,,,,,,,,2107.927,2108.4159,2108.6766,2111.1161,space,2.4119,,2111.1161,6,56,2112.1157,2112.1157,2112.1268,,,,0,41,41,41,1,10,140,,,,,,,,
,,61090b7186e1761f97308af9,65af5320fa16a017ecb7807b,2024-01-23_07h54.08.173,bars,2023.2.3,Win32,60.24096386,657b66ea316d21385b68909f,,,,,,,,,,,2112.127,2113.1084,,,2113.6023,2113.8409,,39,39,,,,,,,,,,,,,,,,bars/016.png,bars/mask002.png,,,,,,,,,,,,10,1,,,,,,,10,10,10,10,,,,,,,,,,,2113.1084,2113.6023,2113.841,2117.9,space,4.0332,,2117.9,1,54,2118.894,2118.8942,2118.9057,,,,0,42,42,42,1,40,165,,,,,,,,
,,61090b7186e1761f97308af9,65af5320fa16a017ecb7807b,2024-01-23_07h54.08.173,bars,2023.2.3,Win32,60.24096386,657b66ea316d21385b68909f,,,,,,,,,,,2118.906,2119.8894,,,2120.3776,2120.6065,,107,107,,,,,,,,,,,,,,,,bars/008.png,bars/mask005.png,,,,,,,,,,,,8,1,,,,,,,10,10,9,10,,,,,,,,,,,2119.8895,2120.3774,2120.6066,2124.023,space,3.3882,,2124.0231,3,73,2125.0299,2125.03,2125.0409,,,,0,43,43,43,1,110,0,,,,,,,,
,,61090b7186e1761f97308af9,65af5320fa16a017ecb7807b,2024-01-23_07h54.08.173,bars,2023.2.3,Win32,60.24096386,657b66ea316d21385b68909f,,,,,,,,,,,2125.0412,2126.0377,,,2126.542,2126.7866,,1,1,,,,,,,,,,,,,,,,bars/035.png,bars/mask000.png,,,,,,,,,,,,8,1,,,,,,,10,10,10,10,,,,,,,,,,,2126.0378,2126.5419,2126.7867,2130.3084,space,3.4948,,2130.3084,6,59,2131.3022,2131.3024,2131.3143,,,,0,44,44,44,1,175,60,,,,,,,,
,,61090b7186e1761f97308af9,65af5320fa16a017ecb7807b,2024-01-23_07h54.08.173,bars,2023.2.3,Win32,60.24096386,657b66ea316d21385b68909f,,,,,,,,,,,2131.3145,2132.3176,,,2132.8167,2133.0688,,41,41,,,,,,,,,,,,,,,,bars/048.png,bars/mask006.png,,,,,,,,,,,,7,1,,,,,,,10,8,10,6,,,,,,,,,,,2132.3177,2132.8166,2133.0689,2138.7605,space,5.6706,,2138.7605,9,46,2139.7242,2139.7243,2139.7351,,,,0,45,45,45,1,50,175,,,,,,,,
,,61090b7186e1761f97308af9,65af5320fa16a017ecb7807b,2024-01-23_07h54.08.173,bars,2023.2.3,Win32,60.24096386,657b66ea316d21385b68909f,,,,,,,,,,,2139.7353,2140.7365,,,2141.219,2141.4571,,39,39,,,,,,,,,,,,,,,,bars/000.png,bars/mask001.png,,,,,,,,,,,,6,1,,,,,,,8,6,6,6,,,,,,,,,,,2140.7367,2141.2189,2141.4571,2144.4412,space,2.9672,,2144.4413,1,74,2145.441,2145.441,2145.4525,,,,0,46,46,46,1,40,145,,,,,,,,
,,61090b7186e1761f97308af9,65af5320fa16a017ecb7807b,2024-01-23_07h54.08.173,bars,2023.2.3,Win32,60.24096386,657b66ea316d21385b68909f,,,,,,,,,,,2145.4528,2146.4728,,,2146.9532,2147.192,,27,27,,,,,,,,,,,,,,,,bars/005.png,bars/mask002.png,,,,,,,,,,,,4,1,,,,,,,10,4,10,4,,,,,,,,,,,2146.4728,2146.9531,2147.192,2152.5396,space,5.3258,,2152.5396,17,67,2153.53,2153.5301,2153.5411,,,,0,47,47,47,1,10,140,,,,,,,,
,,61090b7186e1761f97308af9,65af5320fa16a017ecb7807b,2024-01-23_07h54.08.173,bars,2023.2.3,Win32,60.24096386,657b66ea316d21385b68909f,,,,,,,,,,,2153.5413,2154.5318,,,2155.0378,2155.3026,,33,33,,,,,,,,,,,,,,,,bars/003.png,bars/mask006.png,,,,,,,,,,,,5,1,,,,,,,8,2,7,2,,,,,,,,,,,2154.5318,2155.0377,2155.3026,2158.8853,space,3.565,,2158.8854,8,73,2159.8753,2159.8754,2159.8873,,,,0,48,48,48,1,25,140,,,,,,,,
,,61090b7186e1761f97308af9,65af5320fa16a017ecb7807b,2024-01-23_07h54.08.173,bars,2023.2.3,Win32,60.24096386,657b66ea316d21385b68909f,,,,,,,,,,,2159.8875,2160.8761,,,2161.367,2161.6263,,122,122,,,,,,,,,,,,,,,,bars/024.png,bars/mask002.png,,,,,,,,,,,,9,1,,,,,,,10,0,10,0,,,,,,,,,,,2160.8762,2161.3669,2161.6265,2163.4923,space,1.8379,,2163.4923,2,48,2164.4916,2164.4917,2164.4932,,,,0,49,49,49,1,120,170,,,,,,,,
,,61090b7186e1761f97308af9,65af5320fa16a017ecb7807b,2024-01-23_07h54.08.173,bars,2023.2.3,Win32,60.24096386,657b66ea316d21385b68909f,,,,,,,,,,,,,,,,,,,,,,,,,,,,,,,,,,,,,,,,,,,,,,,,,,,,,,,,,,,,,,,,,,,,,,,,,,,,,,,,,,,,,,,,,,,,,2164.4935,2224.471,0,1,1,3,1,sequence_tables/blk002.csv
,,61090b7186e1761f97308af9,65af5320fa16a017ecb7807b,2024-01-23_07h54.08.173,bars,2023.2.3,Win32,60.24096386,657b66ea316d21385b68909f,,,,,,,,,,,2270.215,2271.2086,,,2271.6988,2271.9247,,50,50,,,,,,,,,,,,,,,,bars/013.png,bars/mask001.png,,,,,,,,,,,,2,1,,,,,,,10,2,10,0,,,,,,2224.4823,2270.1983,space,45.6955,,2271.2087,2271.6987,2271.9249,2274.6397,space,2.6728,,2274.6398,25,40,2275.6464,2275.6464,2275.6581,,,,0,0,0,0,1,75,10,,,,,,,,
,,61090b7186e1761f97308af9,65af5320fa16a017ecb7807b,2024-01-23_07h54.08.173,bars,2023.2.3,Win32,60.24096386,657b66ea316d21385b68909f,,,,,,,,,,,2275.6584,2276.6359,,,2277.137,2277.3861,,41,41,,,,,,,,,,,,,,,,bars/028.png,bars/mask002.png,,,,,,,,,,,,9,1,,,,,,,10,0,10,1,,,,,,,,,,,2276.636,2277.137,2277.3862,2281.0607,space,3.6483,,2281.0608,4,79,2282.052,2282.0522,2282.0638,,,,0,1,1,1,1,45,120,,,,,,,,
,,61090b7186e1761f97308af9,65af5320fa16a017ecb7807b,2024-01-23_07h54.08.173,bars,2023.2.3,Win32,60.24096386,657b66ea316d21385b68909f,,,,,,,,,,,2282.0639,2283.0569,,,2283.5622,2283.8186,,151,151,,,,,,,,,,,,,,,,bars/010.png,bars/mask006.png,,,,,,,,,,,,4,1,,,,,,,8,2,8,0,,,,,,,,,,,2283.0571,2283.5621,2283.8187,2288.7928,space,4.9461,,2288.7929,14,84,2289.7885,2289.7886,2289.7998,,,,0,2,2,2,1,165,55,,,,,,,,
,,61090b7186e1761f97308af9,65af5320fa16a017ecb7807b,2024-01-23_07h54.08.173,bars,2023.2.3,Win32,60.24096386,657b66ea316d21385b68909f,,,,,,,,,,,2289.7999,2290.7819,,,2291.2749,2291.5206,,24,24,,,,,,,,,,,,,,,,bars/003.png,bars/mask003.png,,,,,,,,,,,,6,1,,,,,,,6,0,6,0,,,,,,,,,,,2290.782,2291.2749,2291.5207,2294.4141,space,2.8709,,2294.4141,1,64,2295.4022,2295.4022,2295.4137,,,,0,3,3,3,1,25,140,,,,,,,,
,,61090b7186e1761f97308af9,65af5320fa16a017ecb7807b,2024-01-23_07h54.08.173,bars,2023.2.3,Win32,60.24096386,657b66ea316d21385b68909f,,,,,,,,,,,2295.414,2296.406,,,2296.9131,2297.1469,,132,-48,,,,,,,,,,,,,,,,bars/040.png,bars/mask006.png,,,,,,,,,,,,6,1,,,,,,,8,0,8,0,,,,,,,,,,,2296.406,2296.913,2297.147,2302.0571,space,4.8829,,2302.0571,8,53,2303.0487,2303.0488,2303.0605,,,,0,4,4,4,1,140,5,,,,,,,,
,,61090b7186e1761f97308af9,65af5320fa16a017ecb7807b,2024-01-23_07h54.08.173,bars,2023.2.3,Win32,60.24096386,657b66ea316d21385b68909f,,,,,,,,,,,2303.0609,2304.0701,,,2304.5715,2304.819,,155,155,,,,,,,,,,,,,,,,bars/049.png,bars/mask006.png,,,,,,,,,,,,6,1,,,,,,,6,2,7,3,,,,,,,,,,,2304.0701,2304.5714,2304.8191,2309.2527,space,4.4173,,2309.2528,5,40,2310.2417,2310.2418,2310.2538,,,,0,5,5,5,1,160,115,,,,,,,,
,,61090b7186e1761f97308af9,65af5320fa16a017ecb7807b,2024-01-23_07h54.08.173,bars,2023.2.3,Win32,60.24096386,657b66ea316d21385b68909f,,,,,,,,,,,2310.254,2311.2456,,,2311.7352,2311.9917,,116,-64,,,,,,,,,,,,,,,,bars/008.png,bars/mask002.png,,,,,,,,,,,,5,1,,,,,,,8,4,6,3,,,,,,,,,,,2311.2457,2311.7352,2311.9917,2315.9169,space,3.9047,,2315.917,6,64,2316.9112,2316.9113,2316.9231,,,,0,6,6,6,1,110,0,,,,,,,,
,,61090b7186e1761f97308af9,65af5320fa16a017ecb7807b,2024-01-23_07h54.08.173,bars,2023.2.3,Win32,60.24096386,657b66ea316d21385b68909f,,,,,,,,,,,2316.9234,2317.9232,,,2318.4277,2318.6666,,0,0,,,,,,,,,,,,,,,,bars/007.png,bars/mask008.png,,,,,,,,,,,,5,1,,,,,,,6,2,6,3,,,,,,,,,,,2317.9233,2318.4275,2318.6667,2323.4428,space,4.7531,,2323.4428,5,55,2324.4412,2324.4412,2324.4533,,,,0,7,7,7,1,175,55,,,,,,,,
,,61090b7186e1761f97308af9,65af5320fa16a017ecb7807b,2024-01-23_07h54.08.173,bars,2023.2.3,Win32,60.24096386,657b66ea316d21385b68909f,,,,,,,,,,,2324.4536,2325.454,,,2325.9484,2326.2042,,18,198,,,,,,,,,,,,,,,,bars/023.png,bars/mask004.png,,,,,,,,,,,,7,1,,,,,,,8,0,8,0,,,,,,,,,,,2325.4542,2325.9484,2326.2043,2330.1256,space,3.8937,,2330.1257,2,83,2331.1181,2331.1182,2331.1298,,,,0,8,8,8,1,20,115,,,,,,,,
,,61090b7186e1761f97308af9,65af5320fa16a017ecb7807b,2024-01-23_07h54.08.173,bars,2023.2.3,Win32,60.24096386,657b66ea316d21385b68909f,,,,,,,,,,,2331.13,2332.1785,,,2332.6627,2332.8957,,94,94,,,,,,,,,,,,,,,,bars/022.png,bars/mask003.png,,,,,,,,,,,,7,1,,,,,,,6,0,7,0,,,,,,,,,,,2332.1785,2332.6627,2332.8958,2336.0725,space,3.1105,,2336.0726,1,74,2337.0501,2337.0501,2337.0618,,,,0,9,9,9,1,95,20,,,,,,,,
,,61090b7186e1761f97308af9,65af5320fa16a017ecb7807b,2024-01-23_07h54.08.173,bars,2023.2.3,Win32,60.24096386,657b66ea316d21385b68909f,,,,,,,,,,,2337.062,2338.0522,,,2338.5511,2338.8095,,105,105,,,,,,,,,,,,,,,,bars/015.png,bars/mask004.png,,,,,,,,,,,,6,1,,,,,,,8,2,7,2,,,,,,,,,,,2338.0523,2338.551,2338.8095,2343.1422,space,4.3102,,2343.1423,5,55,2344.1471,2344.1473,2344.159,,,,0,10,10,10,1,110,160,,,,,,,,
,,61090b7186e1761f97308af9,65af5320fa16a017ecb7807b,2024-01-23_07h54.08.173,bars,2023.2.3,Win32,60.24096386,657b66ea316d21385b68909f,,,,,,,,,,,2344.1593,2345.1559,,,2345.6643,2345.8981,,164,164,,,,,,,,,,,,,,,,bars/036.png,bars/mask008.png,,,,,,,,,,,,2,1,,,,,,,6,4,6,3,,,,,,,,,,,2345.156,2345.6641,2345.8981,2349.4386,space,3.5142,,2349.4386,19,36,2350.4341,2350.4343,2350.4456,,,,0,11,11,11,1,145,20,,,,,,,,
,,61090b7186e1761f97308af9,65af5320fa16a017ecb7807b,2024-01-23_07h54.08.173,bars,2023.2.3,Win32,60.24096386,657b66ea316d21385b68909f,,,,,,,,,,,2350.446,2351.4352,,,2351.9282,2352.1624,,147,147,,,,,,,,,,,,,,,,bars/021.png,bars/mask000.png,,,,,,,,,,,,3,1,,,,,,,4,2,4,0,,,,,,,,,,,2351.4352,2351.928,2352.1627,2354.795,space,2.6045,,2354.7951,8,77,2355.7683,2355.7684,2355.779,,,,0,12,12,12,1,155,70,,,,,,,,
,,61090b7186e1761f97308af9,65af5320fa16a017ecb7807b,2024-01-23_07h54.08.173,bars,2023.2.3,Win32,60.24096386,657b66ea316d21385b68909f,,,,,,,,,,,2355.7791,2356.7599,,,2357.2604,2357.4938,,93,93,,,,,,,,,,,,,,,,bars/012.png,bars/mask000.png,,,,,,,,,,,,2,1,,,,,,,2,4,2,4,,,,,,,,,,,2356.7599,2357.2602,2357.4939,2360.869,space,3.3476,,2360.869,3,78,2361.8629,2361.8629,2361.8749,,,,0,13,13,13,1,90,15,,,,,,,,
,,61090b7186e1761f97308af9,65af5320fa16a017ecb7807b,2024-01-23_07h54.08.173,bars,2023.2.3,Win32,60.24096386,657b66ea316d21385b68909f,,,,,,,,,,,2361.8752,2362.8673,,,2363.3636,2363.6012,,161,-19,,,,,,,,,,,,,,,,bars/049.png,bars/mask004.png,,,,,,,,,,,,0,1,,,,,,,0,2,0,0,,,,,,,,,,,2362.8673,2363.3633,2363.6013,2367.5168,space,3.883,,2367.5169,1,46,2368.5099,2368.51,2368.5221,,,,0,14,14,14,1,160,115,,,,,,,,
,,61090b7186e1761f97308af9,65af5320fa16a017ecb7807b,2024-01-23_07h54.08.173,bars,2023.2.3,Win32,60.24096386,657b66ea316d21385b68909f,,,,,,,,,,,2368.5225,2369.5225,,,2370.0132,2370.2617,,118,118,,,,,,,,,,,,,,,,bars/031.png,bars/mask004.png,,,,,,,,,,,,0,1,,,,,,,0,4,0,3,,,,,,,,,,,2369.5226,2370.0131,2370.2619,2372.6328,space,2.3483,,2372.6329,2,83,2373.6434,2373.6434,2373.6443,,,,0,15,15,15,1,120,35,,,,,,,,
,,61090b7186e1761f97308af9,65af5320fa16a017ecb7807b,2024-01-23_07h54.08.173,bars,2023.2.3,Win32,60.24096386,657b66ea316d21385b68909f,,,,,,,,,,,2373.6446,2374.6423,,,2375.1418,2375.3913,,20,200,,,,,,,,,,,,,,,,bars/005.png,bars/mask002.png,,,,,,,,,,,,2,1,,,,,,,2,2,3,3,,,,,,,,,,,2374.6424,2375.1415,2375.3915,2378.7631,space,3.3495,,2378.7632,10,60,2379.757,2379.7574,2379.7688,,,,0,16,16,16,1,10,140,,,,,,,,
,,61090b7186e1761f97308af9,65af5320fa16a017ecb7807b,2024-01-23_07h54.08.173,bars,2023.2.3,Win32,60.24096386,657b66ea316d21385b68909f,,,,,,,,,,,2379.7692,2380.7724,,,2381.268,2381.5118,,150,150,,,,,,,,,,,,,,,,bars/049.png,bars/mask006.png,,,,,,,,,,,,1,1,,,,,,,4,4,2,4,,,,,,,,,,,2380.7724,2381.268,2381.5118,2384.6945,space,3.1688,,2384.6945,10,35,2385.688,2385.6881,2385.6989,,,,0,17,17,17,1,160,115,,,,,,,,
,,61090b7186e1761f97308af9,65af5320fa16a017ecb7807b,2024-01-23_07h54.08.173,bars,2023.2.3,Win32,60.24096386,657b66ea316d21385b68909f,,,,,,,,,,,2385.6991,2386.6912,,,2387.2006,2387.4334,,149,-31,,,,,,,,,,,,,,,,bars/038.png,bars/mask000.png,,,,,,,,,,,,3,1,,,,,,,6,2,7,3,,,,,,,,,,,2386.6914,2387.2006,2387.4335,2390.1258,space,2.6712,,2390.1259,16,79,2391.1311,2391.1312,2391.1431,,,,0,18,18,18,1,165,70,,,,,,,,
,,61090b7186e1761f97308af9,65af5320fa16a017ecb7807b,2024-01-23_07h54.08.173,bars,2023.2.3,Win32,60.24096386,657b66ea316d21385b68909f,,,,,,,,,,,2391.1433,2392.1598,,,2392.6421,2392.8575,,119,-61,,,,,,,,,,,,,,,,bars/020.png,bars/mask002.png,,,,,,,,,,,,3,1,,,,,,,4,4,3,6,,,,,,,,,,,2392.1599,2392.6421,2392.8575,2398.2235,space,5.3116,,2398.2236,4,51,2399.2232,2399.2232,2399.2348,,,,0,19,19,19,1,115,170,,,,,,,,
,,61090b7186e1761f97308af9,65af5320fa16a017ecb7807b,2024-01-23_07h54.08.173,bars,2023.2.3,Win32,60.24096386,657b66ea316d21385b68909f,,,,,,,,,,,2399.2349,2400.2292,,,2400.7176,2400.9667,,102,102,,,,,,,,,,,,,,,,bars/025.png,bars/mask004.png,,,,,,,,,,,,5,1,,,,,,,6,2,6,2,,,,,,,,,,,2400.2295,2400.7175,2400.9669,2403.2775,space,2.2885,,2403.2776,3,62,2404.2702,2404.2703,2404.2713,,,,0,20,20,20,1,105,40,,,,,,,,
,,61090b7186e1761f97308af9,65af5320fa16a017ecb7807b,2024-01-23_07h54.08.173,bars,2023.2.3,Win32,60.24096386,657b66ea316d21385b68909f,,,,,,,,,,,2404.2716,2405.26,,,2405.7444,2406.0032,,57,57,,,,,,,,,,,,,,,,bars/019.png,bars/mask009.png,,,,,,,,,,,,6,1,,,,,,,8,4,10,7,,,,,,,,,,,2405.2601,2405.7443,2406.0032,2411.9459,space,5.9088,,2411.946,12,48,2412.9502,2412.9502,2412.9622,,,,0,21,21,21,1,45,105,,,,,,,,
,,61090b7186e1761f97308af9,65af5320fa16a017ecb7807b,2024-01-23_07h54.08.173,bars,2023.2.3,Win32,60.24096386,657b66ea316d21385b68909f,,,,,,,,,,,2412.9625,2413.9678,,,2414.4739,2414.7354,,132,132,,,,,,,,,,,,,,,,bars/040.png,bars/mask007.png,,,,,,,,,,,,7,1,,,,,,,10,6,10,6,,,,,,,,,,,2413.9678,2414.4738,2414.7355,2420.057,space,5.2892,,2420.057,8,53,2421.0387,2421.039,2421.0506,,,,0,22,22,22,1,140,5,,,,,,,,
,,61090b7186e1761f97308af9,65af5320fa16a017ecb7807b,2024-01-23_07h54.08.173,bars,2023.2.3,Win32,60.24096386,657b66ea316d21385b68909f,,,,,,,,,,,2421.0508,2422.0419,,,2422.5329,2422.7753,,40,40,,,,,,,,,,,,,,,,bars/000.png,bars/mask009.png,,,,,,,,,,,,8,1,,,,,,,8,4,8,3,,,,,,,,,,,2422.0421,2422.5328,2422.7753,2425.0487,space,2.2513,,2425.0487,0,75,2426.0409,2426.041,2426.0527,,,,0,23,23,23,1,40,145,,,,,,,,
,,61090b7186e1761f97308af9,65af5320fa16a017ecb7807b,2024-01-23_07h54.08.173,bars,2023.2.3,Win32,60.24096386,657b66ea316d21385b68909f,,,,,,,,,,,2426.0531,2427.0408,,,2427.5389,2427.7701,,30,30,,,,,,,,,,,,,,,,bars/043.png,bars/mask001.png,,,,,,,,,,,,6,1,,,,,,,6,6,6,8,,,,,,,,,,,2427.0409,2427.5389,2427.7701,2439.2949,space,11.4973,,2439.295,0,80,2440.2869,2440.2869,2440.2995,,,,0,24,24,24,1,30,130,,,,,,,,
,,61090b7186e1761f97308af9,65af5320fa16a017ecb7807b,2024-01-23_07h54.08.173,bars,2023.2.3,Win32,60.24096386,657b66ea316d21385b68909f,,,,,,,,,,,2440.2999,2441.2817,,,2441.7656,2441.9987,,21,21,,,,,,,,,,,,,,,,bars/011.png,bars/mask005.png,,,,,,,,,,,,0,1,,,,,,,4,8,5,8,,,,,,,,,,,2441.2818,2441.7655,2441.9988,2450.1887,space,8.1689,,2450.1888,41,64,2451.1835,2451.1837,2451.1952,,,,0,25,25,25,1,160,85,,,,,,,,
,,61090b7186e1761f97308af9,65af5320fa16a017ecb7807b,2024-01-23_07h54.08.173,bars,2023.2.3,Win32,60.24096386,657b66ea316d21385b68909f,,,,,,,,,,,2451.1955,2452.2236,,,2452.6875,2452.9554,,40,40,,,,,,,,,,,,,,,,bars/048.png,bars/mask004.png,,,,,,,,,,,,4,1,,,,,,,6,10,6,10,,,,,,,,,,,2452.2237,2452.6874,2452.9554,2511.2011,space,58.1801,,2511.2012,10,45,2512.2545,2512.2545,2512.2727,,,,0,26,26,26,1,50,175,,,,,,,,
,,61090b7186e1761f97308af9,65af5320fa16a017ecb7807b,2024-01-23_07h54.08.173,bars,2023.2.3,Win32,60.24096386,657b66ea316d21385b68909f,,,,,,,,,,,2512.2731,2513.2633,,,2513.7579,2513.9914,,25,25,,,,,,,,,,,,,,,,bars/043.png,bars/mask002.png,,,,,,,,,,,,2,1,,,,,,,4,8,2,7,,,,,,,,,,,2513.2634,2513.7578,2513.9914,2519.7001,space,5.6818,,2519.7002,5,75,2520.7049,2520.705,2520.7178,,,,0,27,27,27,1,30,130,,,,,,,,
,,61090b7186e1761f97308af9,65af5320fa16a017ecb7807b,2024-01-23_07h54.08.173,bars,2023.2.3,Win32,60.24096386,657b66ea316d21385b68909f,,,,,,,,,,,2520.718,2521.7124,,,2522.2131,2522.4715,,112,112,,,,,,,,,,,,,,,,bars/008.png,bars/mask008.png,,,,,,,,,,,,7,1,,,,,,,6,10,8,10,,,,,,,,,,,2521.7125,2522.213,2522.4716,2527.587,space,5.0871,,2527.5871,2,68,2528.5768,2528.5769,2528.5875,,,,0,28,28,28,1,110,0,,,,,,,,
,,61090b7186e1761f97308af9,65af5320fa16a017ecb7807b,2024-01-23_07h54.08.173,bars,2023.2.3,Win32,60.24096386,657b66ea316d21385b68909f,,,,,,,,,,,2528.5877,2529.5875,,,2530.0788,2530.322,,64,64,,,,,,,,,,,,,,,,bars/014.png,bars/mask002.png,,,,,,,,,,,,3,1,,,,,,,8,10,7,10,,,,,,,,,,,2529.5876,2530.0787,2530.3221,2535.7053,space,5.343,,2535.7054,16,64,2536.6935,2536.6935,2536.7039,,,,0,29,29,29,1,80,0,,,,,,,,
,,61090b7186e1761f97308af9,65af5320fa16a017ecb7807b,2024-01-23_07h54.08.173,bars,2023.2.3,Win32,60.24096386,657b66ea316d21385b68909f,,,,,,,,,,,2536.704,2537.6995,,,2538.1965,2538.4368,,130,130,,,,,,,,,,,,,,,,bars/049.png,bars/mask007.png,,,,,,,,,,,,5,2,,,,,,,6,10,6,10,,,,,,,,,,,2537.6996,2538.1965,2538.437,2542.6474,space,4.172,,2542.6476,30,15,2543.6564,2543.6564,2543.6698,,,,0,30,30,30,1,160,115,,,,,,,,
,,61090b7186e1761f97308af9,65af5320fa16a017ecb7807b,2024-01-23_07h54.08.173,bars,2023.2.3,Win32,60.24096386,657b66ea316d21385b68909f,,,,,,,,,,,2543.67,2544.6668,,,2545.1575,2545.4142,,26,26,,,,,,,,,,,,,,,,bars/033.png,bars/mask009.png,,,,,,,,,,,,10,1,,,,,,,8,8,10,9,,,,,,,,,,,2544.6669,2545.1574,2545.4143,2547.2848,space,1.8433,,2547.2848,1,51,2548.2884,2548.2885,2548.3011,,,,0,31,31,31,1,25,155,,,,,,,,
,,61090b7186e1761f97308af9,65af5320fa16a017ecb7807b,2024-01-23_07h54.08.173,bars,2023.2.3,Win32,60.24096386,657b66ea316d21385b68909f,,,,,,,,,,,2548.3013,2549.3061,,,2549.8123,2550.0459,,40,40,,,,,,,,,,,,,,,,bars/048.png,bars/mask000.png,,,,,,,,,,,,7,1,,,,,,,10,6,10,6,,,,,,,,,,,2549.3061,2549.8122,2550.0459,2555.9493,space,5.8761,,2555.9494,10,45,2556.9359,2556.9359,2556.9465,,,,0,32,32,32,1,50,175,,,,,,,,
,,61090b7186e1761f97308af9,65af5320fa16a017ecb7807b,2024-01-23_07h54.08.173,bars,2023.2.3,Win32,60.24096386,657b66ea316d21385b68909f,,,,,,,,,,,2556.9466,2557.9354,,,2558.4303,2558.6703,,2,2,,,,,,,,,,,,,,,,bars/009.png,bars/mask000.png,,,,,,,,,,,,6,1,,,,,,,10,8,10,7,,,,,,,,,,,2557.9354,2558.4301,2558.6704,2562.3959,space,3.6947,,2562.3959,13,77,2563.3838,2563.384,2563.397,,,,0,33,33,33,1,15,105,,,,,,,,
,,61090b7186e1761f97308af9,65af5320fa16a017ecb7807b,2024-01-23_07h54.08.173,bars,2023.2.3,Win32,60.24096386,657b66ea316d21385b68909f,,,,,,,,,,,2563.3972,2564.3824,,,2564.873,2565.1228,,170,-10,,,,,,,,,,,,,,,,bars/007.png,bars/mask001.png,,,,,,,,,,,,6,1,,,,,,,8,6,7,6,,,,,,,,,,,2564.3824,2564.8729,2565.123,2567.376,space,2.226,,2567.3761,5,65,2568.376,2568.376,2568.3879,,,,0,34,34,34,1,175,55,,,,,,,,
,,61090b7186e1761f97308af9,65af5320fa16a017ecb7807b,2024-01-23_07h54.08.173,bars,2023.2.3,Win32,60.24096386,657b66ea316d21385b68909f,,,,,,,,,,,2568.3885,2569.3812,,,2569.8804,2570.0965,,147,-33,,,,,,,,,,,,,,,,bars/017.png,bars/mask004.png,,,,,,,,,,,,9,1,,,,,,,10,4,10,5,,,,,,,,,,,2569.3813,2569.8803,2570.0967,2573.9098,space,3.7964,,2573.9099,2,78,2574.8865,2574.8866,2574.8981,,,,0,35,35,35,1,145,45,,,,,,,,
,,61090b7186e1761f97308af9,65af5320fa16a017ecb7807b,2024-01-23_07h54.08.173,bars,2023.2.3,Win32,60.24096386,657b66ea316d21385b68909f,,,,,,,,,,,2574.8983,2575.8864,,,2576.3707,2576.6238,,120,-60,,,,,,,,,,,,,,,,bars/001.png,bars/mask004.png,,,,,,,,,,,,7,1,,,,,,,10,6,10,8,,,,,,,,,,,2575.8866,2576.3707,2576.624,2582.7524,space,6.0907,,2582.7524,10,35,2583.7333,2583.7334,2583.7447,,,,0,36,36,36,1,130,85,,,,,,,,
,,61090b7186e1761f97308af9,65af5320fa16a017ecb7807b,2024-01-23_07h54.08.173,bars,2023.2.3,Win32,60.24096386,657b66ea316d21385b68909f,,,,,,,,,,,2583.7449,2584.7382,,,2585.2291,2585.4838,,111,111,,,,,,,,,,,,,,,,bars/002.png,bars/mask002.png,,,,,,,,,,,,4,1,,,,,,,10,4,10,3,,,,,,,,,,,2584.7383,2585.2291,2585.4838,2587.1956,space,1.6906,,2587.1957,19,26,2588.1843,2588.1845,2588.1957,,,,0,37,37,37,1,130,85,,,,,,,,
,,61090b7186e1761f97308af9,65af5320fa16a017ecb7807b,2024-01-23_07h54.08.173,bars,2023.2.3,Win32,60.24096386,657b66ea316d21385b68909f,,,,,,,,,,,2588.1958,2589.1813,,,2589.6669,2589.9215,,144,144,,,,,,,,,,,,,,,,bars/038.png,bars/mask005.png,,,,,,,,,,,,2,1,,,,,,,8,2,7,3,,,,,,,,,,,2589.1814,2589.6669,2589.9216,2592.7912,space,2.8468,,2592.7912,21,74,2593.7799,2593.7802,2593.7914,,,,0,38,38,38,1,165,70,,,,,,,,
,,61090b7186e1761f97308af9,65af5320fa16a017ecb7807b,2024-01-23_07h54.08.173,bars,2023.2.3,Win32,60.24096386,657b66ea316d21385b68909f,,,,,,,,,,,2593.7916,2594.7963,,,2595.3009,2595.5624,,47,47,,,,,,,,,,,,,,,,bars/019.png,bars/mask006.png,,,,,,,,,,,,7,1,,,,,,,10,4,8,4,,,,,,,,,,,2594.7964,2595.3008,2595.5625,2598.53,space,2.9403,,2598.5301,2,58,2599.5325,2599.5325,2599.5448,,,,0,39,39,39,1,45,105,,,,,,,,
,,61090b7186e1761f97308af9,65af5320fa16a017ecb7807b,2024-01-23_07h54.08.173,bars,2023.2.3,Win32,60.24096386,657b66ea316d21385b68909f,,,,,,,,,,,2599.5451,2600.5448,,,2601.0337,2601.2728,,74,74,,,,,,,,,,,,,,,,bars/014.png,bars/mask007.png,,,,,,,,,,,,6,1,,,,,,,8,2,7,3,,,,,,,,,,,2600.5449,2601.0336,2601.2728,2607.4482,space,6.1529,,2607.4482,6,74,2608.4364,2608.4365,2608.4482,,,,0,40,40,40,1,80,0,,,,,,,,
,,61090b7186e1761f97308af9,65af5320fa16a017ecb7807b,2024-01-23_07h54.08.173,bars,2023.2.3,Win32,60.24096386,657b66ea316d21385b68909f,,,,,,,,,,,2608.4484,2609.4584,,,2609.9587,2610.1925,,70,70,,,,,,,,,,,,,,,,bars/029.png,bars/mask009.png,,,,,,,,,,,,2,1,,,,,,,6,4,6,4,,,,,,,,,,,2609.4585,2609.9586,2610.1926,2615.862,space,5.6415,,2615.8621,20,25,2616.8497,2616.8497,2616.8615,,,,0,41,41,41,1,90,45,,,,,,,,
,,61090b7186e1761f97308af9,65af5320fa16a017ecb7807b,2024-01-23_07h54.08.173,bars,2023.2.3,Win32,60.24096386,657b66ea316d21385b68909f,,,,,,,,,,,2616.8617,2617.8721,,,2618.3665,2618.622,,101,101,,,,,,,,,,,,,,,,bars/045.png,bars/mask007.png,,,,,,,,,,,,5,1,,,,,,,4,6,5,5,,,,,,,,,,,2617.8723,2618.3664,2618.622,2622.548,space,3.8992,,2622.5481,1,89,2623.5537,2623.5538,2623.5655,,,,0,42,42,42,1,100,10,,,,,,,,
,,61090b7186e1761f97308af9,65af5320fa16a017ecb7807b,2024-01-23_07h54.08.173,bars,2023.2.3,Win32,60.24096386,657b66ea316d21385b68909f,,,,,,,,,,,2623.5657,2624.5569,,,2625.0611,2625.329,,172,172,,,,,,,,,,,,,,,,bars/007.png,bars/mask004.png,,,,,,,,,,,,1,1,,,,,,,2,4,1,3,,,,,,,,,,,2624.5571,2625.0611,2625.329,2630.3749,space,5.0307,,2630.375,3,63,2631.3724,2631.3726,2631.385,,,,0,43,43,43,1,175,55,,,,,,,,
,,61090b7186e1761f97308af9,65af5320fa16a017ecb7807b,2024-01-23_07h54.08.173,bars,2023.2.3,Win32,60.24096386,657b66ea316d21385b68909f,,,,,,,,,,,2631.3854,2632.3615,,,2632.8274,2633.0301,,36,36,,,,,,,,,,,,,,,,bars/048.png,bars/mask005.png,,,,,,,,,,,,0,1,,,,,,,0,6,0,7,,,,,,,,,,,2632.3615,2632.8274,2633.0301,2639.1948,space,6.1313,,2639.1948,14,41,2640.1914,2640.1915,2640.2035,,,,0,44,44,44,1,50,175,,,,,,,,
,,61090b7186e1761f97308af9,65af5320fa16a017ecb7807b,2024-01-23_07h54.08.173,bars,2023.2.3,Win32,60.24096386,657b66ea316d21385b68909f,,,,,,,,,,,2640.2037,2641.1979,,,2641.7093,2641.9653,,114,114,,,,,,,,,,,,,,,,bars/032.png,bars/mask000.png,,,,,,,,,,,,0,1,,,,,,,0,8,0,9,,,,,,,,,,,2641.1981,2641.7092,2641.9653,2645.6349,space,3.6408,,2645.6349,11,86,2646.6318,2646.6319,2646.6435,,,,0,45,45,45,1,125,20,,,,,,,,
,,61090b7186e1761f97308af9,65af5320fa16a017ecb7807b,2024-01-23_07h54.08.173,bars,2023.2.3,Win32,60.24096386,657b66ea316d21385b68909f,,,,,,,,,,,2646.6438,2647.6385,,,2648.1328,2648.3828,,169,169,,,,,,,,,,,,,,,,bars/038.png,bars/mask001.png,,,,,,,,,,,,0,1,,,,,,,0,6,0,7,,,,,,,,,,,2647.6385,2648.1328,2648.3829,2653.5394,space,5.1347,,2653.5394,4,81,2654.5263,2654.5265,2654.5391,,,,0,46,46,46,1,165,70,,,,,,,,
,,61090b7186e1761f97308af9,65af5320fa16a017ecb7807b,2024-01-23_07h54.08.173,bars,2023.2.3,Win32,60.24096386,657b66ea316d21385b68909f,,,,,,,,,,,2654.5393,2655.5367,,,2656.0347,2656.2814,,172,172,,,,,,,,,,,,,,,,bars/035.png,bars/mask008.png,,,,,,,,,,,,3,1,,,,,,,2,8,3,7,,,,,,,,,,,2655.5368,2656.0345,2656.2816,2660.4855,space,4.1877,,2660.4855,3,68,2661.4775,2661.4775,2661.4887,,,,0,47,47,47,1,175,60,,,,,,,,
,,61090b7186e1761f97308af9,65af5320fa16a017ecb7807b,2024-01-23_07h54.08.173,bars,2023.2.3,Win32,60.24096386,657b66ea316d21385b68909f,,,,,,,,,,,2661.4888,2662.4779,,,2662.9739,2663.2341,,138,138,,,,,,,,,,,,,,,,bars/024.png,bars/mask003.png,,,,,,,,,,,,0,1,,,,,,,0,6,0,5,,,,,,,,,,,2662.4781,2662.9738,2663.2342,2666.4161,space,3.1492,,2666.4161,18,32,2667.4155,2667.4155,2667.4276,,,,0,48,48,48,1,120,170,,,,,,,,
,,61090b7186e1761f97308af9,65af5320fa16a017ecb7807b,2024-01-23_07h54.08.173,bars,2023.2.3,Win32,60.24096386,657b66ea316d21385b68909f,,,,,,,,,,,2667.4278,2668.4378,,,2668.9263,2669.1655,,16,196,,,,,,,,,,,,,,,,bars/023.png,bars/mask006.png,,,,,,,,,,,,1,1,,,,,,,0,8,1,7,,,,,,,,,,,2668.438,2668.9262,2669.1656,2674.0742,space,4.8761,,2674.0742,4,81,2675.0732,2675.0733,2675.0844,,,,0,49,49,49,1,20,115,,,,,,,,
,,61090b7186e1761f97308af9,65af5320fa16a017ecb7807b,2024-01-23_07h54.08.173,bars,2023.2.3,Win32,60.24096386,657b66ea316d21385b68909f,,,,,,,,,,,,,,,,,,,,,,,,,,,,,,,,,,,,,,,,,,,,,,,,,,,,,,,,,,,,,,,,,,,,,,,,,,,,,,,,,,,,,,,,,,,,,2675.0847,2735.0581,0,2,2,2,1,sequence_tables/blk013.csv
,,61090b7186e1761f97308af9,65af5320fa16a017ecb7807b,2024-01-23_07h54.08.173,bars,2023.2.3,Win32,60.24096386,657b66ea316d21385b68909f,,,,,,,,,,,2787.621,2788.6081,,,2789.0983,2789.3235,,72,72,,,,,,,,,,,,,,,,bars/012.png,bars/mask009.png,,,,,,,,,,,,1,1,,,,,,,3,3,2,3,,,,,,2735.0697,2787.6046,space,52.5108,,2788.6085,2789.0983,2789.3235,2793.2309,space,3.8731,,2793.231,18,57,2794.2403,2794.2403,2794.2518,,,,0,0,0,0,1,90,15,,,,,,,,
,,61090b7186e1761f97308af9,65af5320fa16a017ecb7807b,2024-01-23_07h54.08.173,bars,2023.2.3,Win32,60.24096386,657b66ea316d21385b68909f,,,,,,,,,,,2794.2519,2795.2208,,,2795.7136,2795.9673,,132,132,,,,,,,,,,,,,,,,bars/018.png,bars/mask005.png,,,,,,,,,,,,0,1,,,,,,,1,1,1,2,,,,,,,,,,,2795.2209,2795.7135,2795.9674,2798.756,space,2.7669,,2798.7561,18,42,2799.7478,2799.748,2799.7595,,,,0,1,1,1,1,150,90,,,,,,,,
,,61090b7186e1761f97308af9,65af5320fa16a017ecb7807b,2024-01-23_07h54.08.173,bars,2023.2.3,Win32,60.24096386,657b66ea316d21385b68909f,,,,,,,,,,,2799.7599,2800.7693,,,2801.2776,2801.5136,,54,54,,,,,,,,,,,,,,,,bars/048.png,bars/mask004.png,,,,,,,,,,,,3,1,,,,,,,3,0,4,0,,,,,,,,,,,2800.7693,2801.2774,2801.5136,2806.3527,space,4.7984,,2806.3529,4,59,2807.3586,2807.3587,2807.3706,,,,0,2,2,2,1,50,175,,,,,,,,
,,61090b7186e1761f97308af9,65af5320fa16a017ecb7807b,2024-01-23_07h54.08.173,bars,2023.2.3,Win32,60.24096386,657b66ea316d21385b68909f,,,,,,,,,,,2807.3709,2808.3636,,,2808.8422,2809.0754,,70,70,,,,,,,,,,,,,,,,bars/014.png,bars/mask009.png,,,,,,,,,,,,0,1,,,,,,,1,2,0,4,,,,,,,,,,,2808.3637,2808.8421,2809.0755,2812.03,space,2.9271,,2812.03,10,70,2813.0005,2813.0005,2813.019,,,,0,3,3,3,1,80,0,,,,,,,,
,,61090b7186e1761f97308af9,65af5320fa16a017ecb7807b,2024-01-23_07h54.08.173,bars,2023.2.3,Win32,60.24096386,657b66ea316d21385b68909f,,,,,,,,,,,2813.0194,2814.01,,,2814.5144,2814.782,,115,115,,,,,,,,,,,,,,,,bars/015.png,bars/mask002.png,,,,,,,,,,,,3,1,,,,,,,3,4,4,4,,,,,,,,,,,2814.0101,2814.5144,2814.7822,2818.5215,space,3.7241,,2818.5216,5,45,2819.521,2819.5211,2819.5335,,,,0,4,4,4,1,110,160,,,,,,,,
,,61090b7186e1761f97308af9,65af5320fa16a017ecb7807b,2024-01-23_07h54.08.173,bars,2023.2.3,Win32,60.24096386,657b66ea316d21385b68909f,,,,,,,,,,,2819.5338,2820.5115,,,2821.0036,2821.2589,,106,106,,,,,,,,,,,,,,,,bars/025.png,bars/mask006.png,,,,,,,,,,,,2,1,,,,,,,1,6,2,6,,,,,,,,,,,2820.5116,2821.0035,2821.2591,2825.404,space,4.1282,,2825.4041,1,66,2826.4039,2826.4039,2826.4141,,,,0,5,5,5,1,105,40,,,,,,,,
,,61090b7186e1761f97308af9,65af5320fa16a017ecb7807b,2024-01-23_07h54.08.173,bars,2023.2.3,Win32,60.24096386,657b66ea316d21385b68909f,,,,,,,,,,,2826.4142,2827.4059,,,2827.9125,2828.1432,,161,161,,,,,,,,,,,,,,,,bars/039.png,bars/mask007.png,,,,,,,,,,,,0,1,,,,,,,0,8,0,6,,,,,,,,,,,2827.406,2827.9125,2828.1432,2830.378,space,2.2187,,2830.378,14,56,2831.3671,2831.3673,2831.3792,,,,0,6,6,6,1,175,105,,,,,,,,
,,61090b7186e1761f97308af9,65af5320fa16a017ecb7807b,2024-01-23_07h54.08.173,bars,2023.2.3,Win32,60.24096386,657b66ea316d21385b68909f,,,,,,,,,,,2831.3795,2832.377,,,2832.8672,2833.1008,,38,38,,,,,,,,,,,,,,,,bars/000.png,bars/mask001.png,,,,,,,,,,,,0,1,,,,,,,0,6,0,6,,,,,,,,,,,2832.3771,2832.8671,2833.1008,2835.0278,space,1.8994,,2835.0279,2,73,2836.0158,2836.0159,2836.0174,,,,0,7,7,7,1,40,145,,,,,,,,
,,61090b7186e1761f97308af9,65af5320fa16a017ecb7807b,2024-01-23_07h54.08.173,bars,2023.2.3,Win32,60.24096386,657b66ea316d21385b68909f,,,,,,,,,,,2836.0178,2837.0085,,,2837.5048,2837.7539,,137,-43,,,,,,,,,,,,,,,,bars/040.png,bars/mask003.png,,,,,,,,,,,,1,1,,,,,,,2,4,1,4,,,,,,,,,,,2837.0085,2837.5047,2837.7539,2841.8527,space,4.0753,,2841.8528,3,48,2842.8499,2842.8499,2842.861,,,,0,8,8,8,1,140,5,,,,,,,,
,,61090b7186e1761f97308af9,65af5320fa16a017ecb7807b,2024-01-23_07h54.08.173,bars,2023.2.3,Win32,60.24096386,657b66ea316d21385b68909f,,,,,,,,,,,2842.8612,2843.8628,,,2844.3568,2844.5965,,141,141,,,,,,,,,,,,,,,,bars/030.png,bars/mask005.png,,,,,,,,,,,,3,1,,,,,,,4,6,3,6,,,,,,,,,,,2843.8629,2844.3567,2844.5967,2846.585,space,1.9668,,2846.5851,1,76,2847.5624,2847.5625,2847.5742,,,,0,9,9,9,1,140,65,,,,,,,,
,,61090b7186e1761f97308af9,65af5320fa16a017ecb7807b,2024-01-23_07h54.08.173,bars,2023.2.3,Win32,60.24096386,657b66ea316d21385b68909f,,,,,,,,,,,2847.5744,2848.5648,,,2849.0563,2849.3004,,87,87,,,,,,,,,,,,,,,,bars/022.png,bars/mask000.png,,,,,,,,,,,,5,1,,,,,,,6,8,7,9,,,,,,,,,,,2848.5649,2849.0563,2849.3006,2852.2472,space,2.9238,,2852.2473,8,67,2853.2307,2853.2307,2853.2423,,,,0,10,10,10,1,95,20,,,,,,,,
,,61090b7186e1761f97308af9,65af5320fa16a017ecb7807b,2024-01-23_07h54.08.173,bars,2023.2.3,Win32,60.24096386,657b66ea316d21385b68909f,,,,,,,,,,,2853.2426,2854.2355,,,2854.7313,2854.9924,,154,154,,,,,,,,,,,,,,,,bars/011.png,bars/mask005.png,,,,,,,,,,,,3,1,,,,,,,4,6,4,5,,,,,,,,,,,2854.2356,2854.7312,2854.9924,2857.3175,space,2.2979,,2857.3176,6,69,2858.3177,2858.3177,2858.3296,,,,0,11,11,11,1,160,85,,,,,,,,
,,61090b7186e1761f97308af9,65af5320fa16a017ecb7807b,2024-01-23_07h54.08.173,bars,2023.2.3,Win32,60.24096386,657b66ea316d21385b68909f,,,,,,,,,,,2858.3297,2859.3341,,,2859.8414,2860.075,,82,82,,,,,,,,,,,,,,,,bars/029.png,bars/mask001.png,,,,,,,,,,,,1,1,,,,,,,2,8,2,9,,,,,,,,,,,2859.3342,2859.8413,2860.0751,2862.5171,space,2.4158,,2862.5172,8,37,2863.5159,2863.516,2863.5273,,,,0,12,12,12,1,90,45,,,,,,,,
,,61090b7186e1761f97308af9,65af5320fa16a017ecb7807b,2024-01-23_07h54.08.173,bars,2023.2.3,Win32,60.24096386,657b66ea316d21385b68909f,,,,,,,,,,,2863.5274,2864.5253,,,2865.0161,2865.2606,,158,-22,,,,,,,,,,,,,,,,bars/007.png,bars/mask000.png,,,,,,,,,,,,0,1,,,,,,,0,10,1,9,,,,,,,,,,,2864.5258,2865.0159,2865.2607,2869.0839,space,3.8073,,2869.084,17,77,2870.0879,2870.0879,2870.1048,,,,0,13,13,13,1,175,55,,,,,,,,
,,61090b7186e1761f97308af9,65af5320fa16a017ecb7807b,2024-01-23_07h54.08.173,bars,2023.2.3,Win32,60.24096386,657b66ea316d21385b68909f,,,,,,,,,,,2870.1051,2871.0966,,,2871.6066,2871.8393,,5,5,,,,,,,,,,,,,,,,bars/005.png,bars/mask001.png,,,,,,,,,,,,1,1,,,,,,,2,10,1,10,,,,,,,,,,,2871.0967,2871.6066,2871.8393,2876.6624,space,4.8047,,2876.6625,5,45,2877.668,2877.6681,2877.6801,,,,0,14,14,14,1,10,140,,,,,,,,
,,61090b7186e1761f97308af9,65af5320fa16a017ecb7807b,2024-01-23_07h54.08.173,bars,2023.2.3,Win32,60.24096386,657b66ea316d21385b68909f,,,,,,,,,,,2877.6802,2878.6775,,,2879.1681,2879.3928,,98,98,,,,,,,,,,,,,,,,bars/025.png,bars/mask009.png,,,,,,,,,,,,0,1,,,,,,,0,8,0,8,,,,,,,,,,,2878.6775,2879.168,2879.393,2883.9777,space,4.5515,,2883.9777,7,58,2884.9575,2884.9576,2884.9727,,,,0,15,15,15,1,105,40,,,,,,,,
,,61090b7186e1761f97308af9,65af5320fa16a017ecb7807b,2024-01-23_07h54.08.173,bars,2023.2.3,Win32,60.24096386,657b66ea316d21385b68909f,,,,,,,,,,,2884.9729,2885.975,,,2886.4654,2886.7086,,126,126,,,,,,,,,,,,,,,,bars/024.png,bars/mask005.png,,,,,,,,,,,,1,1,,,,,,,0,10,1,8,,,,,,,,,,,2885.9751,2886.4653,2886.7086,2891.223,space,4.4799,,2891.2231,6,44,2892.214,2892.214,2892.2257,,,,0,16,16,16,1,120,170,,,,,,,,
,,61090b7186e1761f97308af9,65af5320fa16a017ecb7807b,2024-01-23_07h54.08.173,bars,2023.2.3,Win32,60.24096386,657b66ea316d21385b68909f,,,,,,,,,,,2892.2259,2893.2133,,,2893.6972,2893.9299,,134,134,,,,,,,,,,,,,,,,bars/040.png,bars/mask000.png,,,,,,,,,,,,0,1,,,,,,,0,10,0,9,,,,,,,,,,,2893.2133,2893.6971,2893.9301,2896.3564,space,2.3992,,2896.3565,6,51,2897.3197,2897.3198,2897.3304,,,,0,17,17,17,1,140,5,,,,,,,,
,,61090b7186e1761f97308af9,65af5320fa16a017ecb7807b,2024-01-23_07h54.08.173,bars,2023.2.3,Win32,60.24096386,657b66ea316d21385b68909f,,,,,,,,,,,2897.3306,2898.3375,,,2898.8527,2899.1036,,145,145,,,,,,,,,,,,,,,,bars/018.png,bars/mask003.png,,,,,,,,,,,,2,1,,,,,,,2,10,2,10,,,,,,,,,,,2898.3375,2898.8526,2899.1036,2901.8206,space,2.7023,,2901.8206,5,55,2902.8245,2902.8246,2902.836,,,,0,18,18,18,1,150,90,,,,,,,,
,,61090b7186e1761f97308af9,65af5320fa16a017ecb7807b,2024-01-23_07h54.08.173,bars,2023.2.3,Win32,60.24096386,657b66ea316d21385b68909f,,,,,,,,,,,2902.8361,2903.8359,,,2904.3311,2904.5855,,94,94,,,,,,,,,,,,,,,,bars/027.png,bars/mask001.png,,,,,,,,,,,,2,1,,,,,,,4,8,5,8,,,,,,,,,,,2903.836,2904.331,2904.5855,2908.2758,space,3.6748,,2908.2759,16,44,2909.2842,2909.2842,2909.2958,,,,0,19,19,19,1,110,50,,,,,,,,
,,61090b7186e1761f97308af9,65af5320fa16a017ecb7807b,2024-01-23_07h54.08.173,bars,2023.2.3,Win32,60.24096386,657b66ea316d21385b68909f,,,,,,,,,,,2909.2961,2910.3006,,,2910.7967,2911.0329,,129,129,,,,,,,,,,,,,,,,bars/042.png,bars/mask007.png,,,,,,,,,,,,3,1,,,,,,,6,10,7,10,,,,,,,,,,,2910.3007,2910.7967,2911.033,2915.3495,space,4.2992,,2915.3496,16,54,2916.3482,2916.3482,2916.3594,,,,0,20,20,20,1,145,75,,,,,,,,
,,61090b7186e1761f97308af9,65af5320fa16a017ecb7807b,2024-01-23_07h54.08.173,bars,2023.2.3,Win32,60.24096386,657b66ea316d21385b68909f,,,,,,,,,,,2916.3596,2917.3587,,,2917.8388,2918.0718,,25,25,,,,,,,,,,,,,,,,bars/041.png,bars/mask000.png,,,,,,,,,,,,6,1,,,,,,,8,8,7,7,,,,,,,,,,,2917.3588,2917.8387,2918.0719,2922.1128,space,4.0207,,2922.1129,5,60,2923.1128,2923.1129,2923.1245,,,,0,21,21,21,1,20,85,,,,,,,,
,,61090b7186e1761f97308af9,65af5320fa16a017ecb7807b,2024-01-23_07h54.08.173,bars,2023.2.3,Win32,60.24096386,657b66ea316d21385b68909f,,,,,,,,,,,2923.1248,2924.1295,,,2924.6363,2924.8697,,80,80,,,,,,,,,,,,,,,,bars/012.png,bars/mask003.png,,,,,,,,,,,,4,1,,,,,,,6,10,6,10,,,,,,,,,,,2924.1295,2924.6362,2924.8698,2927.657,space,2.7591,,2927.6571,10,65,2928.652,2928.6521,2928.6635,,,,0,22,22,22,1,90,15,,,,,,,,
,,61090b7186e1761f97308af9,65af5320fa16a017ecb7807b,2024-01-23_07h54.08.173,bars,2023.2.3,Win32,60.24096386,657b66ea316d21385b68909f,,,,,,,,,,,2928.6637,2929.6545,,,2930.1559,2930.4131,,45,45,,,,,,,,,,,,,,,,bars/019.png,bars/mask006.png,,,,,,,,,,,,3,1,,,,,,,4,8,3,7,,,,,,,,,,,2929.6547,2930.1559,2930.4131,2936.0413,space,5.5966,,2936.0413,0,60,2937.0375,2937.0376,2937.0484,,,,0,23,23,23,1,45,105,,,,,,,,
,,61090b7186e1761f97308af9,65af5320fa16a017ecb7807b,2024-01-23_07h54.08.173,bars,2023.2.3,Win32,60.24096386,657b66ea316d21385b68909f,,,,,,,,,,,2937.0488,2938.0413,,,2938.5372,2938.7749,,169,-11,,,,,,,,,,,,,,,,bars/035.png,bars/mask001.png,,,,,,,,,,,,5,1,,,,,,,6,10,6,10,,,,,,,,,,,2938.0413,2938.5371,2938.775,2943.1004,space,4.2921,,2943.1004,6,71,2944.1053,2944.1053,2944.1165,,,,0,24,24,24,1,175,60,,,,,,,,
,,61090b7186e1761f97308af9,65af5320fa16a017ecb7807b,2024-01-23_07h54.08.173,bars,2023.2.3,Win32,60.24096386,657b66ea316d21385b68909f,,,,,,,,,,,2944.1167,2945.1171,,,2945.6191,2945.8574,,71,71,,,,,,,,,,,,,,,,bars/044.png,bars/mask009.png,,,,,,,,,,,,7,1,,,,,,,8,10,8,9,,,,,,,,,,,2945.1171,2945.6189,2945.8574,2949.8832,space,4.0036,,2949.8833,4,84,2950.893,2950.8931,2950.9057,,,,0,25,25,25,1,75,155,,,,,,,,
,,61090b7186e1761f97308af9,65af5320fa16a017ecb7807b,2024-01-23_07h54.08.173,bars,2023.2.3,Win32,60.24096386,657b66ea316d21385b68909f,,,,,,,,,,,2950.9059,2951.8932,,,2952.3882,2952.6346,,134,134,,,,,,,,,,,,,,,,bars/024.png,bars/mask003.png,,,,,,,,,,,,5,1,,,,,,,10,8,10,8,,,,,,,,,,,2951.8934,2952.3882,2952.6347,2954.6773,space,2.0072,,2954.6774,14,36,2955.679,2955.6793,2955.6903,,,,0,26,26,26,1,120,170,,,,,,,,
,,61090b7186e1761f97308af9,65af5320fa16a017ecb7807b,2024-01-23_07h54.08.173,bars,2023.2.3,Win32,60.24096386,657b66ea316d21385b68909f,,,,,,,,,,,2955.6905,2956.6791,,,2957.1813,2957.4423,,113,113,,,,,,,,,,,,,,,,bars/031.png,bars/mask004.png,,,,,,,,,,,,8,1,,,,,,,10,10,10,10,,,,,,,,,,,2956.6792,2957.1812,2957.4424,2959.7921,space,2.3214,,2959.7922,7,78,2960.7998,2960.7998,2960.8117,,,,0,27,27,27,1,120,35,,,,,,,,
,,61090b7186e1761f97308af9,65af5320fa16a017ecb7807b,2024-01-23_07h54.08.173,bars,2023.2.3,Win32,60.24096386,657b66ea316d21385b68909f,,,,,,,,,,,2960.8118,2961.7995,,,2962.2909,2962.515,,153,-27,,,,,,,,,,,,,,,,bars/042.png,bars/mask007.png,,,,,,,,,,,,6,1,,,,,,,8,10,8,10,,,,,,,,,,,2961.7997,2962.2908,2962.515,2964.991,space,2.4413,,2964.9912,8,78,2965.9884,2965.9885,2966.0004,,,,0,28,28,28,1,145,75,,,,,,,,
,,61090b7186e1761f97308af9,65af5320fa16a017ecb7807b,2024-01-23_07h54.08.173,bars,2023.2.3,Win32,60.24096386,657b66ea316d21385b68909f,,,,,,,,,,,2966.0006,2966.9985,,,2967.4811,2967.7325,,127,-53,,,,,,,,,,,,,,,,bars/001.png,bars/mask005.png,,,,,,,,,,,,8,1,,,,,,,10,8,9,9,,,,,,,,,,,2966.9985,2967.481,2967.7326,2972.4086,space,4.6527,,2972.4087,3,42,2973.4049,2973.4051,2973.4151,,,,0,29,29,29,1,130,85,,,,,,,,
,,61090b7186e1761f97308af9,65af5320fa16a017ecb7807b,2024-01-23_07h54.08.173,bars,2023.2.3,Win32,60.24096386,657b66ea316d21385b68909f,,,,,,,,,,,2973.4153,2974.4197,,,2974.9127,2975.1542,,22,22,,,,,,,,,,,,,,,,bars/023.png,bars/mask005.png,,,,,,,,,,,,7,1,,,,,,,8,10,7,10,,,,,,,,,,,2974.4198,2974.9126,2975.1542,2977.8448,space,2.6664,,2977.8448,2,87,2978.8435,2978.8436,2978.8544,,,,0,30,30,30,1,20,115,,,,,,,,
,,61090b7186e1761f97308af9,65af5320fa16a017ecb7807b,2024-01-23_07h54.08.173,bars,2023.2.3,Win32,60.24096386,657b66ea316d21385b68909f,,,,,,,,,,,2978.8548,2979.8607,,,2980.3511,2980.6042,,81,81,,,,,,,,,,,,,,,,bars/022.png,bars/mask000.png,,,,,,,,,,,,3,1,,,,,,,6,10,5,10,,,,,,,,,,,2979.8607,2980.351,2980.6043,2984.5375,space,3.9171,,2984.5376,14,61,2985.5406,2985.5407,2985.5511,,,,0,31,31,31,1,95,20,,,,,,,,
,,61090b7186e1761f97308af9,65af5320fa16a017ecb7807b,2024-01-23_07h54.08.173,bars,2023.2.3,Win32,60.24096386,657b66ea316d21385b68909f,,,,,,,,,,,2985.5513,2986.547,,,2987.0487,2987.2914,,140,140,,,,,,,,,,,,,,,,bars/049.png,bars/mask003.png,,,,,,,,,,,,0,1,,,,,,,4,10,1,9,,,,,,,,,,,2986.5471,2987.0485,2987.2914,2991.6246,space,4.3043,,2991.6246,20,25,2992.5906,2992.5907,2992.608,,,,0,32,32,32,1,160,115,,,,,,,,
,,61090b7186e1761f97308af9,65af5320fa16a017ecb7807b,2024-01-23_07h54.08.173,bars,2023.2.3,Win32,60.24096386,657b66ea316d21385b68909f,,,,,,,,,,,2992.6084,2993.6156,,,2994.1072,2994.3513,,68,68,,,,,,,,,,,,,,,,bars/012.png,bars/mask008.png,,,,,,,,,,,,1,1,,,,,,,2,8,2,8,,,,,,,,,,,2993.6158,2994.1071,2994.3514,2998.4388,space,4.0653,,2998.4388,22,53,2999.4323,2999.4324,2999.4439,,,,0,33,33,33,1,90,15,,,,,,,,
,,61090b7186e1761f97308af9,65af5320fa16a017ecb7807b,2024-01-23_07h54.08.173,bars,2023.2.3,Win32,60.24096386,657b66ea316d21385b68909f,,,,,,,,,,,2999.4443,3000.4371,,,3000.9384,3001.1943,,45,45,,,,,,,,,,,,,,,,bars/026.png,bars/mask009.png,,,,,,,,,,,,3,1,,,,,,,4,6,5,8,,,,,,,,,,,3000.4371,3000.9383,3001.1945,3005.9265,space,4.7037,,3005.9266,10,40,3006.9075,3006.9076,3006.9195,,,,0,34,34,34,1,35,85,,,,,,,,
,,61090b7186e1761f97308af9,65af5320fa16a017ecb7807b,2024-01-23_07h54.08.173,bars,2023.2.3,Win32,60.24096386,657b66ea316d21385b68909f,,,,,,,,,,,3006.9197,3007.9079,,,3008.4016,3008.6416,,17,17,,,,,,,,,,,,,,,,bars/043.png,bars/mask007.png,,,,,,,,,,,,3,1,,,,,,,6,8,5,9,,,,,,,,,,,3007.908,3008.4015,3008.6416,3012.0829,space,3.42,,3012.0829,13,67,3013.0745,3013.0746,3013.0848,,,,0,35,35,35,1,30,130,,,,,,,,
,,61090b7186e1761f97308af9,65af5320fa16a017ecb7807b,2024-01-23_07h54.08.173,bars,2023.2.3,Win32,60.24096386,657b66ea316d21385b68909f,,,,,,,,,,,3013.085,3014.0969,,,3014.5889,3014.823,,141,141,,,,,,,,,,,,,,,,bars/042.png,bars/mask006.png,,,,,,,,,,,,8,1,,,,,,,8,10,9,9,,,,,,,,,,,3014.0969,3014.5887,3014.8232,3018.0972,space,3.2465,,3018.0972,4,66,3019.0971,3019.0972,3019.1088,,,,0,36,36,36,1,145,75,,,,,,,,
,,61090b7186e1761f97308af9,65af5320fa16a017ecb7807b,2024-01-23_07h54.08.173,bars,2023.2.3,Win32,60.24096386,657b66ea316d21385b68909f,,,,,,,,,,,3019.109,3020.1063,,,3020.5968,3020.8417,,24,24,,,,,,,,,,,,,,,,bars/003.png,bars/mask007.png,,,,,,,,,,,,9,1,,,,,,,10,8,9,9,,,,,,,,,,,3020.1064,3020.5968,3020.8418,3024.5924,space,3.7183,,3024.5926,1,64,3025.5852,3025.5853,3025.5974,,,,0,37,37,37,1,25,140,,,,,,,,
,,61090b7186e1761f97308af9,65af5320fa16a017ecb7807b,2024-01-23_07h54.08.173,bars,2023.2.3,Win32,60.24096386,657b66ea316d21385b68909f,,,,,,,,,,,3025.5975,3026.5844,,,3027.0733,3027.3194,,39,39,,,,,,,,,,,,,,,,bars/026.png,bars/mask005.png,,,,,,,,,,,,9,1,,,,,,,10,10,10,10,,,,,,,,,,,3026.5845,3027.0732,3027.3195,3029.9288,space,2.5824,,3029.9289,4,46,3030.9171,3030.9172,3030.9188,,,,0,38,38,38,1,35,85,,,,,,,,
,,61090b7186e1761f97308af9,65af5320fa16a017ecb7807b,2024-01-23_07h54.08.173,bars,2023.2.3,Win32,60.24096386,657b66ea316d21385b68909f,,,,,,,,,,,3030.9192,3031.9257,,,3032.4141,3032.6582,,20,200,,,,,,,,,,,,,,,,bars/047.png,bars/mask009.png,,,,,,,,,,,,8,1,,,,,,,10,10,10,10,,,,,,,,,,,3031.9257,3032.4139,3032.6583,3036.2747,space,3.5828,,3036.2747,5,50,3037.2697,3037.2698,3037.2806,,,,0,39,39,39,1,15,70,,,,,,,,
,,61090b7186e1761f97308af9,65af5320fa16a017ecb7807b,2024-01-23_07h54.08.173,bars,2023.2.3,Win32,60.24096386,657b66ea316d21385b68909f,,,,,,,,,,,3037.2808,3038.2813,,,3038.776,3039.0186,,45,45,,,,,,,,,,,,,,,,bars/048.png,bars/mask001.png,,,,,,,,,,,,6,1,,,,,,,8,8,7,7,,,,,,,,,,,3038.2814,3038.776,3039.0187,3041.5848,space,2.5436,,3041.5848,5,50,3042.5831,3042.5833,3042.5944,,,,0,40,40,40,1,50,175,,,,,,,,
,,61090b7186e1761f97308af9,65af5320fa16a017ecb7807b,2024-01-23_07h54.08.173,bars,2023.2.3,Win32,60.24096386,657b66ea316d21385b68909f,,,,,,,,,,,3042.5946,3043.5729,,,3044.0751,3044.3176,,40,40,,,,,,,,,,,,,,,,bars/000.png,bars/mask007.png,,,,,,,,,,,,10,1,,,,,,,10,6,10,7,,,,,,,,,,,3043.5729,3044.0749,3044.3177,3051.4,space,7.0597,,3051.4001,0,75,3052.3706,3052.3707,3052.3893,,,,0,41,41,41,1,40,145,,,,,,,,
,,61090b7186e1761f97308af9,65af5320fa16a017ecb7807b,2024-01-23_07h54.08.173,bars,2023.2.3,Win32,60.24096386,657b66ea316d21385b68909f,,,,,,,,,,,3052.3895,3053.3882,,,3053.8772,3054.1207,,131,131,,,,,,,,,,,,,,,,bars/049.png,bars/mask006.png,,,,,,,,,,,,2,2,,,,,,,10,4,10,4,,,,,,,,,,,3053.3883,3053.877,3054.1208,3056.2309,space,2.0807,,3056.231,29,16,3057.2282,3057.2283,3057.2415,,,,0,42,42,42,1,160,115,,,,,,,,
,,61090b7186e1761f97308af9,65af5320fa16a017ecb7807b,2024-01-23_07h54.08.173,bars,2023.2.3,Win32,60.24096386,657b66ea316d21385b68909f,,,,,,,,,,,3057.2418,3058.244,,,3058.7539,3058.9921,,143,143,,,,,,,,,,,,,,,,bars/010.png,bars/mask008.png,,,,,,,,,,,,2,1,,,,,,,8,6,7,7,,,,,,,,,,,3058.2441,3058.7538,3058.9921,3061.3609,space,2.348,,3061.3609,22,88,3062.3623,3062.3624,3062.3656,,,,0,43,43,43,1,165,55,,,,,,,,
,,61090b7186e1761f97308af9,65af5320fa16a017ecb7807b,2024-01-23_07h54.08.173,bars,2023.2.3,Win32,60.24096386,657b66ea316d21385b68909f,,,,,,,,,,,3062.3663,3063.3586,,,3063.8613,3064.1085,,30,30,,,,,,,,,,,,,,,,bars/005.png,bars/mask004.png,,,,,,,,,,,,3,1,,,,,,,10,8,10,9,,,,,,,,,,,3063.3587,3063.8612,3064.1085,3068.1645,space,4.0386,,3068.1646,20,70,3069.1568,3069.157,3069.1686,,,,0,44,44,44,1,10,140,,,,,,,,
,,61090b7186e1761f97308af9,65af5320fa16a017ecb7807b,2024-01-23_07h54.08.173,bars,2023.2.3,Win32,60.24096386,657b66ea316d21385b68909f,,,,,,,,,,,3069.1689,3070.153,,,3070.6475,3070.8972,,78,78,,,,,,,,,,,,,,,,bars/013.png,bars/mask001.png,,,,,,,,,,,,9,1,,,,,,,10,10,10,10,,,,,,,,,,,3070.1531,3070.6475,3070.8972,3072.6697,space,1.7503,,3072.6698,3,68,3073.6795,3073.6795,3073.6912,,,,0,45,45,45,1,75,10,,,,,,,,
,,61090b7186e1761f97308af9,65af5320fa16a017ecb7807b,2024-01-23_07h54.08.173,bars,2023.2.3,Win32,60.24096386,657b66ea316d21385b68909f,,,,,,,,,,,3073.6914,3074.6936,,,3075.1838,3075.4413,,37,37,,,,,,,,,,,,,,,,bars/004.png,bars/mask009.png,,,,,,,,,,,,4,1,,,,,,,8,8,7,8,,,,,,,,,,,3074.6937,3075.1836,3075.4414,3079.6681,space,4.1885,,3079.6682,12,88,3080.6691,3080.6692,3080.6805,,,,0,46,46,46,1,25,125,,,,,,,,
,,61090b7186e1761f97308af9,65af5320fa16a017ecb7807b,2024-01-23_07h54.08.173,bars,2023.2.3,Win32,60.24096386,657b66ea316d21385b68909f,,,,,,,,,,,3080.6808,3081.6705,,,3082.1668,3082.4,,81,81,,,,,,,,,,,,,,,,bars/022.png,bars/mask007.png,,,,,,,,,,,,5,1,,,,,,,10,10,10,10,,,,,,,,,,,3081.6706,3082.1668,3082.4001,3086.4744,space,4.0471,,3086.4744,14,61,3087.4686,3087.4687,3087.4802,,,,0,47,47,47,1,95,20,,,,,,,,
,,61090b7186e1761f97308af9,65af5320fa16a017ecb7807b,2024-01-23_07h54.08.173,bars,2023.2.3,Win32,60.24096386,657b66ea316d21385b68909f,,,,,,,,,,,3087.4804,3088.4902,,,3088.9723,3089.2305,,98,98,,,,,,,,,,,,,,,,bars/008.png,bars/mask009.png,,,,,,,,,,,,5,1,,,,,,,8,8,8,8,,,,,,,,,,,3088.4902,3088.9723,3089.2306,3092.9562,space,3.705,,3092.9562,12,82,3093.9637,3093.9637,3093.975,,,,0,48,48,48,1,110,0,,,,,,,,
,,61090b7186e1761f97308af9,65af5320fa16a017ecb7807b,2024-01-23_07h54.08.173,bars,2023.2.3,Win32,60.24096386,657b66ea316d21385b68909f,,,,,,,,,,,3093.9752,3094.9812,,,3095.4836,3095.7405,,103,103,,,,,,,,,,,,,,,,bars/008.png,bars/mask004.png,,,,,,,,,,,,8,1,,,,,,,10,6,10,6,,,,,,,,,,,3094.9813,3095.4836,3095.7408,3099.1162,space,3.3444,,3099.1163,7,77,3100.0937,3100.0938,3100.1055,,,,0,49,49,49,1,110,0,,,,,,,,
,,61090b7186e1761f97308af9,65af5320fa16a017ecb7807b,2024-01-23_07h54.08.173,bars,2023.2.3,Win32,60.24096386,657b66ea316d21385b68909f,,,,,,,,,,,,,,,,,,,,,,,,,,,,,,,,,,,,,,,,,,,,,,,,,,,,,,,,,,,,,,,,,,,,,,,,,,,,,,,,,,,,,,,,,,,,,3100.1057,3160.0957,0,3,3,1,1,sequence_tables/blk029.csv
,,61090b7186e1761f97308af9,65af5320fa16a017ecb7807b,2024-01-23_07h54.08.173,bars,2023.2.3,Win32,60.24096386,657b66ea316d21385b68909f,,,,,,,,,,,3164.2451,3165.2438,,,3165.7317,3165.9724,,113,113,,,,,,,,,,,,,,,,bars/008.png,bars/mask004.png,,,,,,,,,,,,2,1,,,,,,,2,8,2,9,,,,,,3160.1075,3164.2325,space,4.0994,,3165.2439,3165.7316,3165.9724,3170.87,space,4.87,,3170.87,3,67,3171.8602,3171.8603,3171.8758,,,,0,0,0,0,1,110,0,,,,,,,,
,,61090b7186e1761f97308af9,65af5320fa16a017ecb7807b,2024-01-23_07h54.08.173,bars,2023.2.3,Win32,60.24096386,657b66ea316d21385b68909f,,,,,,,,,,,3171.8769,3172.864,,,3173.3795,3173.6189,,115,115,,,,,,,,,,,,,,,,bars/031.png,bars/mask006.png,,,,,,,,,,,,4,1,,,,,,,4,10,5,10,,,,,,,,,,,3172.864,3173.3794,3173.619,3176.3069,space,2.6607,,3176.3069,5,80,3177.3109,3177.311,3177.3271,,,,0,1,1,1,1,120,35,,,,,,,,
,,61090b7186e1761f97308af9,65af5320fa16a017ecb7807b,2024-01-23_07h54.08.173,bars,2023.2.3,Win32,60.24096386,657b66ea316d21385b68909f,,,,,,,,,,,3177.3275,3178.3153,,,3178.8244,3179.0706,,162,162,,,,,,,,,,,,,,,,bars/011.png,bars/mask003.png,,,,,,,,,,,,7,1,,,,,,,6,8,7,7,,,,,,,,,,,3178.3154,3178.8244,3179.0707,3183.1326,space,4.0392,,3183.1327,2,77,3184.1355,3184.1357,3184.1468,,,,0,2,2,2,1,160,85,,,,,,,,
,,61090b7186e1761f97308af9,65af5320fa16a017ecb7807b,2024-01-23_07h54.08.173,bars,2023.2.3,Win32,60.24096386,657b66ea316d21385b68909f,,,,,,,,,,,3184.1471,3185.132,,,3185.6068,3185.8642,,46,46,,,,,,,,,,,,,,,,bars/006.png,bars/mask001.png,,,,,,,,,,,,4,1,,,,,,,8,10,7,9,,,,,,,,,,,3185.1322,3185.6067,3185.8644,3189.8354,space,3.9494,,3189.8354,11,54,3190.8351,3190.8352,3190.8514,,,,0,3,3,3,1,35,100,,,,,,,,
,,61090b7186e1761f97308af9,65af5320fa16a017ecb7807b,2024-01-23_07h54.08.173,bars,2023.2.3,Win32,60.24096386,657b66ea316d21385b68909f,,,,,,,,,,,3190.8516,3191.8539,,,3192.3376,3192.5839,,36,36,,,,,,,,,,,,,,,,bars/043.png,bars/mask005.png,,,,,,,,,,,,8,1,,,,,,,10,8,10,7,,,,,,,,,,,3191.8541,3192.3375,3192.584,3194.672,space,2.0497,,3194.6721,6,86,3195.6613,3195.6615,3195.673,,,,0,4,4,4,1,30,130,,,,,,,,
,,61090b7186e1761f97308af9,65af5320fa16a017ecb7807b,2024-01-23_07h54.08.173,bars,2023.2.3,Win32,60.24096386,657b66ea316d21385b68909f,,,,,,,,,,,3195.6732,3196.6657,,,3197.1624,3197.3947,,43,43,,,,,,,,,,,,,,,,bars/019.png,bars/mask006.png,,,,,,,,,,,,8,1,,,,,,,8,6,9,5,,,,,,,,,,,3196.6657,3197.1623,3197.3948,3200.1874,space,2.7655,,3200.1874,2,62,3201.1866,3201.1866,3201.1982,,,,0,5,5,5,1,45,105,,,,,,,,
,,61090b7186e1761f97308af9,65af5320fa16a017ecb7807b,2024-01-23_07h54.08.173,bars,2023.2.3,Win32,60.24096386,657b66ea316d21385b68909f,,,,,,,,,,,3201.1984,3202.2014,,,3202.7044,3202.9507,,167,167,,,,,,,,,,,,,,,,bars/007.png,bars/mask009.png,,,,,,,,,,,,4,1,,,,,,,6,4,5,5,,,,,,,,,,,3202.2014,3202.7044,3202.9508,3205.2432,space,2.2573,,3205.2432,8,68,3206.2445,3206.2447,3206.2556,,,,0,6,6,6,1,175,55,,,,,,,,
,,61090b7186e1761f97308af9,65af5320fa16a017ecb7807b,2024-01-23_07h54.08.173,bars,2023.2.3,Win32,60.24096386,657b66ea316d21385b68909f,,,,,,,,,,,3206.2558,3207.2449,,,3207.7245,3207.9578,,38,38,,,,,,,,,,,,,,,,bars/006.png,bars/mask006.png,,,,,,,,,,,,6,1,,,,,,,8,2,7,1,,,,,,,,,,,3207.2451,3207.7245,3207.958,3210.6516,space,2.6655,,3210.6517,3,62,3211.6561,3211.6563,3211.6683,,,,0,7,7,7,1,35,100,,,,,,,,
,,61090b7186e1761f97308af9,65af5320fa16a017ecb7807b,2024-01-23_07h54.08.173,bars,2023.2.3,Win32,60.24096386,657b66ea316d21385b68909f,,,,,,,,,,,3211.6684,3212.6586,,,3213.1668,3213.4154,,168,-12,,,,,,,,,,,,,,,,bars/007.png,bars/mask007.png,,,,,,,,,,,,5,1,,,,,,,6,0,6,0,,,,,,,,,,,3212.6588,3213.1667,3213.4154,3218.1885,space,4.7579,,3218.1886,7,67,3219.1803,3219.1803,3219.1919,,,,0,8,8,8,1,175,55,,,,,,,,
,,61090b7186e1761f97308af9,65af5320fa16a017ecb7807b,2024-01-23_07h54.08.173,bars,2023.2.3,Win32,60.24096386,657b66ea316d21385b68909f,,,,,,,,,,,3219.1922,3220.1963,,,3220.6617,3220.908,,24,24,,,,,,,,,,,,,,,,bars/047.png,bars/mask000.png,,,,,,,,,,,,3,1,,,,,,,4,2,4,0,,,,,,,,,,,3220.1964,3220.6617,3220.9081,3224.675,space,3.7494,,3224.675,9,46,3225.6852,3225.6853,3225.6984,,,,0,9,9,9,1,15,70,,,,,,,,
