init_variables.started,init_variables.stopped,participant,session,date,expName,psychopyVersion,OS,frameRate,study_id,instruction_exp.started,instruction_exp.stopped,key_resp_8.keys,key_resp_8.rt,key_resp_8.duration,instruction_single.started,instruction_single.stopped,key_resp_2.keys,key_resp_2.rt,key_resp_2.duration,interval.started,interval.stopped,cue_single.started,cue_single.stopped,mask.started,mask.stopped,ori_response_single.started,res_ori,res,ori_response_single.stopped,key_resp_single.keys,key_resp_single.rt,key_resp_single.duration,disp_single.started,disp_single.stopped,key_resp.keys,key_resp.rt,key_resp.duration,single.thisRepN,single.thisTrialN,single.thisN,single.thisIndex,single.ran,ori,path,mask_path,instruction_bandit.started,instruction_bandit.stopped,key_resp_6.keys,key_resp_6.rt,key_resp_6.duration,cue_bandit.started,cue_bandit.stopped,bandit_res.keys,bandit_res.rt,bandit_res.duration,outcome_bandit.started,rew,action,outcome_bandit.stopped,bandit.thisRepN,bandit.thisTrialN,bandit.thisN,bandit.thisIndex,bandit.ran,actual_rew1,actual_rew2,rew1,rew2,instruction_task.started,instruction_task.stopped,key_resp_7.keys,key_resp_7.rt,key_resp_7.duration,wait_ready.started,wait_ready.stopped,key_resp_3.keys,key_resp_3.rt,key_resp_3.duration,cue.started,cue.stopped,ori_response.started,ori_response.stopped,key_resp_5.keys,key_resp_5.rt,key_resp_5.duration,outcome.started,diff1,diff2,outcome.stopped,disp_outcome_practice.started,disp_outcome_practice.stopped,key_resp_4.keys,key_resp_4.rt,key_resp_4.duration,trials.thisRepN,trials.thisTrialN,trials.thisN,trials.thisIndex,trials.ran,ori1,ori2,break_blk.started,break_blk.stopped,block.thisRepN,block.thisTrialN,block.thisN,block.thisIndex,block.ran,condition_file
0.0006,0.0008,5aea8c59ae889e00018624c2,65af55ceca620457d06d58b8,2024-01-23_24h00.52.484,bars,2023.2.3,Win32,55.55555556,657b66ea316d21385b68909f,,,,,,,,,,,,,,,,,,,,,,,,,,,,,,,,,,,,,,,,,,,,,,,,,,,,,,,,,,,,,,,,,,,,,,,,,,,,,,,,,,,,,,,,,,,,,,,,,,,,
,,5aea8c59ae889e00018624c2,65af55ceca620457d06d58b8,2024-01-23_24h00.52.484,bars,2023.2.3,Win32,55.55555556,657b66ea316d21385b68909f,0.0012,11.2892,y,11.2592,,,,,,,,,,,,,,,,,,,,,,,,,,,,,,,,,,,,,,,,,,,,,,,,,,,,,,,,,,,,,,,,,,,,,,,,,,,,,,,,,,,,,,,,,,,,,,,,
,,5aea8c59ae889e00018624c2,65af55ceca620457d06d58b8,2024-01-23_24h00.52.484,bars,2023.2.3,Win32,55.55555556,657b66ea316d21385b68909f,,,,,,11.2894,27.3823,space,16.0667,,,,,,,,,,,,,,,,,,,,,,,,,,,,,,,,,,,,,,,,,,,,,,,,,,,,,,,,,,,,,,,,,,,,,,,,,,,,,,,,,,,,,,,,,,,
,,5aea8c59ae889e00018624c2,65af55ceca620457d06d58b8,2024-01-23_24h00.52.484,bars,2023.2.3,Win32,55.55555556,657b66ea316d21385b68909f,,,,,,,,,,,27.396,28.3881,28.3886,28.8881,28.8886,29.1381,29.1386,90,90,37.9227,space,8.731,,37.9232,47.5176,space,9.5413,,0,0,0,4,1,95,bars/single004.png,bars/mask004.png,,,,,,,,,,,,,,,,,,,,,,,,,,,,,,,,,,,,,,,,,,,,,,,,,,,,,,,,,,,,,,,,
,,5aea8c59ae889e00018624c2,65af55ceca620457d06d58b8,2024-01-23_24h00.52.484,bars,2023.2.3,Win32,55.55555556,657b66ea316d21385b68909f,,,,,,,,,,,47.5333,48.5327,48.5329,49.032,49.0321,49.2836,49.2838,8,8,55.9146,space,6.6164,,55.9147,61.139,space,5.193,,0,1,1,7,1,45,bars/single007.png,bars/mask009.png,,,,,,,,,,,,,,,,,,,,,,,,,,,,,,,,,,,,,,,,,,,,,,,,,,,,,,,,,,,,,,,,
,,5aea8c59ae889e00018624c2,65af55ceca620457d06d58b8,2024-01-23_24h00.52.484,bars,2023.2.3,Win32,55.55555556,657b66ea316d21385b68909f,,,,,,,,,,,61.1546,62.1466,62.1466,62.6464,62.6465,62.897,62.897,157,157,64.6294,space,1.7166,,64.6295,68.2141,space,3.564,,0,2,2,0,1,150,bars/single000.png,bars/mask006.png,,,,,,,,,,,,,,,,,,,,,,,,,,,,,,,,,,,,,,,,,,,,,,,,,,,,,,,,,,,,,,,,
,,5aea8c59ae889e00018624c2,65af55ceca620457d06d58b8,2024-01-23_24h00.52.484,bars,2023.2.3,Win32,55.55555556,657b66ea316d21385b68909f,,,,,,,,,,,68.2258,69.228,69.2281,69.7287,69.7287,69.9786,69.9787,10,190,73.8121,space,3.8155,,73.8123,76.4932,space,2.6424,,0,3,3,1,1,20,bars/single001.png,bars/mask006.png,,,,,,,,,,,,,,,,,,,,,,,,,,,,,,,,,,,,,,,,,,,,,,,,,,,,,,,,,,,,,,,,
,,5aea8c59ae889e00018624c2,65af55ceca620457d06d58b8,2024-01-23_24h00.52.484,bars,2023.2.3,Win32,55.55555556,657b66ea316d21385b68909f,,,,,,,,,,,76.4943,77.4924,77.4925,77.9932,77.9933,78.2413,78.2414,157,157,81.8289,space,3.5764,,81.829,84.1084,space,2.2441,,0,4,4,6,1,175,bars/single006.png,bars/mask005.png,,,,,,,,,,,,,,,,,,,,,,,,,,,,,,,,,,,,,,,,,,,,,,,,,,,,,,,,,,,,,,,,
,,5aea8c59ae889e00018624c2,65af55ceca620457d06d58b8,2024-01-23_24h00.52.484,bars,2023.2.3,Win32,55.55555556,657b66ea316d21385b68909f,,,,,,,,,,,84.1102,85.1062,85.1063,85.6062,85.6062,85.8561,85.8562,58,238,90.0604,space,4.1896,,90.0607,92.6245,space,2.5129,,0,5,5,5,1,55,bars/single005.png,bars/mask008.png,,,,,,,,,,,,,,,,,,,,,,,,,,,,,,,,,,,,,,,,,,,,,,,,,,,,,,,,,,,,,,,,
,,5aea8c59ae889e00018624c2,65af55ceca620457d06d58b8,2024-01-23_24h00.52.484,bars,2023.2.3,Win32,55.55555556,657b66ea316d21385b68909f,,,,,,,,,,,92.6255,93.6231,93.6231,94.1223,94.1223,94.3719,94.3719,133,133,95.1909,space,0.8022,,95.1911,97.3774,space,2.1642,,0,6,6,2,1,145,bars/single002.png,bars/mask003.png,,,,,,,,,,,,,,,,,,,,,,,,,,,,,,,,,,,,,,,,,,,,,,,,,,,,,,,,,,,,,,,,
,,5aea8c59ae889e00018624c2,65af55ceca620457d06d58b8,2024-01-23_24h00.52.484,bars,2023.2.3,Win32,55.55555556,657b66ea316d21385b68909f,,,,,,,,,,,97.378,98.3734,98.3734,98.871,98.8711,99.1208,99.121,159,-21,102.2214,space,3.0847,,102.2218,103.7847,space,1.5264,,0,7,7,8,1,160,bars/single008.png,bars/mask004.png,,,,,,,,,,,,,,,,,,,,,,,,,,,,,,,,,,,,,,,,,,,,,,,,,,,,,,,,,,,,,,,,
,,5aea8c59ae889e00018624c2,65af55ceca620457d06d58b8,2024-01-23_24h00.52.484,bars,2023.2.3,Win32,55.55555556,657b66ea316d21385b68909f,,,,,,,,,,,103.7864,104.7852,104.7853,105.2845,105.2845,105.5345,105.5345,19,19,106.6173,space,1.0678,,106.6174,108.4016,space,1.7602,,0,8,8,3,1,20,bars/single003.png,bars/mask005.png,,,,,,,,,,,,,,,,,,,,,,,,,,,,,,,,,,,,,,,,,,,,,,,,,,,,,,,,,,,,,,,,
,,5aea8c59ae889e00018624c2,65af55ceca620457d06d58b8,2024-01-23_24h00.52.484,bars,2023.2.3,Win32,55.55555556,657b66ea316d21385b68909f,,,,,,,,,,,108.403,109.3997,109.3998,109.9008,109.9012,110.1495,110.1495,24,24,110.8505,space,0.6907,,110.8506,112.618,space,1.7382,,0,9,9,9,1,20,bars/single009.png,bars/mask006.png,,,,,,,,,,,,,,,,,,,,,,,,,,,,,,,,,,,,,,,,,,,,,,,,,,,,,,,,,,,,,,,,
,,5aea8c59ae889e00018624c2,65af55ceca620457d06d58b8,2024-01-23_24h00.52.484,bars,2023.2.3,Win32,55.55555556,657b66ea316d21385b68909f,,,,,,,,,,,,,,,,,,,,,,,,,,,,,,,,,,,,,112.62,122.1757,space,9.5293,,,,,,,,,,,,,,,,,,,,,,,,,,,,,,,,,,,,,,,,,,,,,,,,,,,,,,,,,,,,
,,5aea8c59ae889e00018624c2,65af55ceca620457d06d58b8,2024-01-23_24h00.52.484,bars,2023.2.3,Win32,55.55555556,657b66ea316d21385b68909f,,,,,,,,,,,,,,,,,,,,,,,,,,,,,,,,,,,,,,,,,,122.1942,125.341,left,3.1109,,125.3412,9,1,126.3366,0,0,0,0,1,9,1,9,2,,,,,,,,,,,,,,,,,,,,,,,,,,,,,,,,,,,,,,,,,
,,5aea8c59ae889e00018624c2,65af55ceca620457d06d58b8,2024-01-23_24h00.52.484,bars,2023.2.3,Win32,55.55555556,657b66ea316d21385b68909f,,,,,,,,,,,,,,,,,,,,,,,,,,,,,,,,,,,,,,,,,,126.3382,128.0552,right,1.7013,,128.0553,1,2,129.0492,0,1,1,1,1,10,0,10,1,,,,,,,,,,,,,,,,,,,,,,,,,,,,,,,,,,,,,,,,,
,,5aea8c59ae889e00018624c2,65af55ceca620457d06d58b8,2024-01-23_24h00.52.484,bars,2023.2.3,Win32,55.55555556,657b66ea316d21385b68909f,,,,,,,,,,,,,,,,,,,,,,,,,,,,,,,,,,,,,,,,,,129.0501,129.5156,left,0.457,,129.5157,10,1,130.5124,0,2,2,2,1,10,2,10,2,,,,,,,,,,,,,,,,,,,,,,,,,,,,,,,,,,,,,,,,,
,,5aea8c59ae889e00018624c2,65af55ceca620457d06d58b8,2024-01-23_24h00.52.484,bars,2023.2.3,Win32,55.55555556,657b66ea316d21385b68909f,,,,,,,,,,,,,,,,,,,,,,,,,,,,,,,,,,,,,,,,,,130.5131,131.2481,left,0.7206,,131.2482,7,1,132.2453,0,3,3,3,1,8,4,7,3,,,,,,,,,,,,,,,,,,,,,,,,,,,,,,,,,,,,,,,,,
,,5aea8c59ae889e00018624c2,65af55ceca620457d06d58b8,2024-01-23_24h00.52.484,bars,2023.2.3,Win32,55.55555556,657b66ea316d21385b68909f,,,,,,,,,,,,,,,,,,,,,,,,,,,,,,,,,,,,,,,,,,132.246,133.0324,left,0.7723,,133.0326,5,1,134.028,0,4,4,4,1,6,2,5,1,,,,,,,,,,,,,,,,,,,,,,,,,,,,,,,,,,,,,,,,,
,,5aea8c59ae889e00018624c2,65af55ceca620457d06d58b8,2024-01-23_24h00.52.484,bars,2023.2.3,Win32,55.55555556,657b66ea316d21385b68909f,,,,,,,,,,,,,,,,,,,,,,,,,,,,,,,,,,,,,,,,,,134.0289,134.5459,left,0.5015,,134.546,4,1,135.5442,0,5,5,5,1,4,4,4,4,,,,,,,,,,,,,,,,,,,,,,,,,,,,,,,,,,,,,,,,,
,,5aea8c59ae889e00018624c2,65af55ceca620457d06d58b8,2024-01-23_24h00.52.484,bars,2023.2.3,Win32,55.55555556,657b66ea316d21385b68909f,,,,,,,,,,,,,,,,,,,,,,,,,,,,,,,,,,,,,,,,,,135.5452,135.8789,right,0.3175,,135.879,2,2,136.8782,0,6,6,6,1,2,2,1,2,,,,,,,,,,,,,,,,,,,,,,,,,,,,,,,,,,,,,,,,,
,,5aea8c59ae889e00018624c2,65af55ceca620457d06d58b8,2024-01-23_24h00.52.484,bars,2023.2.3,Win32,55.55555556,657b66ea316d21385b68909f,,,,,,,,,,,,,,,,,,,,,,,,,,,,,,,,,,,,,,,,,,136.8791,137.3116,left,0.4186,,137.3117,0,1,138.3114,0,7,7,7,1,0,0,0,1,,,,,,,,,,,,,,,,,,,,,,,,,,,,,,,,,,,,,,,,,
,,5aea8c59ae889e00018624c2,65af55ceca620457d06d58b8,2024-01-23_24h00.52.484,bars,2023.2.3,Win32,55.55555556,657b66ea316d21385b68909f,,,,,,,,,,,,,,,,,,,,,,,,,,,,,,,,,,,,,,,,,,138.3122,138.881,right,0.5596,,138.8811,0,2,139.8766,0,8,8,8,1,0,2,1,0,,,,,,,,,,,,,,,,,,,,,,,,,,,,,,,,,,,,,,,,,
,,5aea8c59ae889e00018624c2,65af55ceca620457d06d58b8,2024-01-23_24h00.52.484,bars,2023.2.3,Win32,55.55555556,657b66ea316d21385b68909f,,,,,,,,,,,,,,,,,,,,,,,,,,,,,,,,,,,,,,,,,,139.8787,140.7108,right,0.8163,,140.7109,3,2,141.7096,0,9,9,9,1,2,4,2,3,,,,,,,,,,,,,,,,,,,,,,,,,,,,,,,,,,,,,,,,,
,,5aea8c59ae889e00018624c2,65af55ceca620457d06d58b8,2024-01-23_24h00.52.484,bars,2023.2.3,Win32,55.55555556,657b66ea316d21385b68909f,,,,,,,,,,,,,,,,,,,,,,,,,,,,,,,,,,,,,,,,,,141.7104,142.0803,left,0.3555,,142.0804,0,1,143.0757,0,10,10,10,1,0,2,0,3,,,,,,,,,,,,,,,,,,,,,,,,,,,,,,,,,,,,,,,,,
,,5aea8c59ae889e00018624c2,65af55ceca620457d06d58b8,2024-01-23_24h00.52.484,bars,2023.2.3,Win32,55.55555556,657b66ea316d21385b68909f,,,,,,,,,,,,,,,,,,,,,,,,,,,,,,,,,,,,,,,,,,143.0767,143.3455,right,0.2544,,143.3455,3,2,144.3422,0,11,11,11,1,0,4,0,3,,,,,,,,,,,,,,,,,,,,,,,,,,,,,,,,,,,,,,,,,
,,5aea8c59ae889e00018624c2,65af55ceca620457d06d58b8,2024-01-23_24h00.52.484,bars,2023.2.3,Win32,55.55555556,657b66ea316d21385b68909f,,,,,,,,,,,,,,,,,,,,,,,,,,,,,,,,,,,,,,,,,,144.3429,144.6133,right,0.2613,,144.6133,6,2,145.6086,0,12,12,12,1,2,6,1,6,,,,,,,,,,,,,,,,,,,,,,,,,,,,,,,,,,,,,,,,,
,,5aea8c59ae889e00018624c2,65af55ceca620457d06d58b8,2024-01-23_24h00.52.484,bars,2023.2.3,Win32,55.55555556,657b66ea316d21385b68909f,,,,,,,,,,,,,,,,,,,,,,,,,,,,,,,,,,,,,,,,,,145.6093,145.9431,right,0.3177,,145.9431,3,2,146.9413,0,13,13,13,1,0,4,1,3,,,,,,,,,,,,,,,,,,,,,,,,,,,,,,,,,,,,,,,,,
,,5aea8c59ae889e00018624c2,65af55ceca620457d06d58b8,2024-01-23_24h00.52.484,bars,2023.2.3,Win32,55.55555556,657b66ea316d21385b68909f,,,,,,,,,,,,,,,,,,,,,,,,,,,,,,,,,,,,,,,,,,146.9421,147.1284,right,0.1719,,147.1284,7,2,148.1247,0,14,14,14,1,2,6,2,7,,,,,,,,,,,,,,,,,,,,,,,,,,,,,,,,,,,,,,,,,
,,5aea8c59ae889e00018624c2,65af55ceca620457d06d58b8,2024-01-23_24h00.52.484,bars,2023.2.3,Win32,55.55555556,657b66ea316d21385b68909f,,,,,,,,,,,,,,,,,,,,,,,,,,,,,,,,,,,,,,,,,,148.1255,148.4285,right,0.2937,,148.4286,9,2,149.4251,0,15,15,15,1,4,8,3,9,,,,,,,,,,,,,,,,,,,,,,,,,,,,,,,,,,,,,,,,,
,,5aea8c59ae889e00018624c2,65af55ceca620457d06d58b8,2024-01-23_24h00.52.484,bars,2023.2.3,Win32,55.55555556,657b66ea316d21385b68909f,,,,,,,,,,,,,,,,,,,,,,,,,,,,,,,,,,,,,,,,,,149.4256,149.6778,right,0.2417,,149.678,7,2,150.6746,0,16,16,16,1,6,6,7,7,,,,,,,,,,,,,,,,,,,,,,,,,,,,,,,,,,,,,,,,,
,,5aea8c59ae889e00018624c2,65af55ceca620457d06d58b8,2024-01-23_24h00.52.484,bars,2023.2.3,Win32,55.55555556,657b66ea316d21385b68909f,,,,,,,,,,,,,,,,,,,,,,,,,,,,,,,,,,,,,,,,,,150.6753,151.1748,right,0.4842,,151.1748,5,2,152.1736,0,17,17,17,1,8,4,9,5,,,,,,,,,,,,,,,,,,,,,,,,,,,,,,,,,,,,,,,,,
,,5aea8c59ae889e00018624c2,65af55ceca620457d06d58b8,2024-01-23_24h00.52.484,bars,2023.2.3,Win32,55.55555556,657b66ea316d21385b68909f,,,,,,,,,,,,,,,,,,,,,,,,,,,,,,,,,,,,,,,,,,152.1742,152.2579,right,0.0674,,152.2579,1,2,153.2569,0,18,18,18,1,6,2,5,1,,,,,,,,,,,,,,,,,,,,,,,,,,,,,,,,,,,,,,,,,
,,5aea8c59ae889e00018624c2,65af55ceca620457d06d58b8,2024-01-23_24h00.52.484,bars,2023.2.3,Win32,55.55555556,657b66ea316d21385b68909f,,,,,,,,,,,,,,,,,,,,,,,,,,,,,,,,,,,,,,,,,,153.2578,153.3758,left,0.0994,,153.3758,7,1,154.3729,0,19,19,19,1,8,0,7,0,,,,,,,,,,,,,,,,,,,,,,,,,,,,,,,,,,,,,,,,,
,,5aea8c59ae889e00018624c2,65af55ceca620457d06d58b8,2024-01-23_24h00.52.484,bars,2023.2.3,Win32,55.55555556,657b66ea316d21385b68909f,,,,,,,,,,,,,,,,,,,,,,,,,,,,,,,,,,,,,,,,,,,,,,,,,,,,,,,,,,,,154.3739,169.1232,space,14.7169,,,,,,,,,,,,,,,,,,,,,,,,,,,,,,,,,,,,,
,,5aea8c59ae889e00018624c2,65af55ceca620457d06d58b8,2024-01-23_24h00.52.484,bars,2023.2.3,Win32,55.55555556,657b66ea316d21385b68909f,,,,,,,,,,,171.3766,172.3674,,,172.8685,173.118,,28,28,,,,,,,,,,,,,,,,bars/000.png,bars/mask009.png,,,,,,,,,,,,2,1,,,,,,,5,5,4,5,,,,,,169.1425,171.3687,space,2.2002,,172.3678,172.8683,173.1185,177.5523,space,4.4028,,177.553,12,63,178.5494,178.55,185.0821,space,6.4916,,0,0,0,0,1,40,145,,,,,,,,
,,5aea8c59ae889e00018624c2,65af55ceca620457d06d58b8,2024-01-23_24h00.52.484,bars,2023.2.3,Win32,55.55555556,657b66ea316d21385b68909f,,,,,,,,,,,185.0948,186.0969,,,186.5977,186.847,,36,36,,,,,,,,,,,,,,,,bars/043.png,bars/mask007.png,,,,,,,,,,,,2,1,,,,,,,3,3,2,2,,,,,,,,,,,186.0969,186.5977,186.8471,188.916,space,2.0582,,188.9163,6,86,189.9155,189.9156,192.391,space,2.4484,,0,1,1,1,1,30,130,,,,,,,,
,,5aea8c59ae889e00018624c2,65af55ceca620457d06d58b8,2024-01-23_24h00.52.484,bars,2023.2.3,Win32,55.55555556,657b66ea316d21385b68909f,,,,,,,,,,,192.3931,193.3849,,,193.884,194.1338,,161,-19,,,,,,,,,,,,,,,,bars/003.png,bars/mask008.png,,,,,,,,,,,,0,2,,,,,,,5,1,6,1,,,,,,,,,,,193.385,193.8839,194.1339,198.5559,space,4.4028,,198.5559,44,21,199.5446,199.5446,202.6818,space,3.0895,,0,2,2,2,1,25,140,,,,,,,,
,,5aea8c59ae889e00018624c2,65af55ceca620457d06d58b8,2024-01-23_24h00.52.484,bars,2023.2.3,Win32,55.55555556,657b66ea316d21385b68909f,,,,,,,,,,,202.6826,203.6782,,,204.1772,204.4269,,147,147,,,,,,,,,,,,,,,,bars/023.png,bars/mask004.png,,,,,,,,,,,,0,2,,,,,,,3,3,5,4,,,,,,,,,,,203.6782,204.1771,204.427,207.5939,space,3.1517,,207.594,53,32,208.5932,208.5932,212.3934,space,3.7647,,0,3,3,3,1,20,115,,,,,,,,
,,5aea8c59ae889e00018624c2,65af55ceca620457d06d58b8,2024-01-23_24h00.52.484,bars,2023.2.3,Win32,55.55555556,657b66ea316d21385b68909f,,,,,,,,,,,212.4057,213.4079,,,213.9088,214.1584,,150,-30,,,,,,,,,,,,,,,,bars/040.png,bars/mask008.png,,,,,,,,,,,,1,1,,,,,,,1,5,1,5,,,,,,,,,,,213.408,213.9087,214.1585,219.376,space,5.2028,,219.3763,10,35,220.3731,220.3732,224.4727,space,4.0549,,0,4,4,4,1,140,5,,,,,,,,
,,5aea8c59ae889e00018624c2,65af55ceca620457d06d58b8,2024-01-23_24h00.52.484,bars,2023.2.3,Win32,55.55555556,657b66ea316d21385b68909f,,,,,,,,,,,224.4881,225.4729,,,225.971,226.2206,,37,37,,,,,,,,,,,,,,,,bars/007.png,bars/mask001.png,,,,,,,,,,,,1,2,,,,,,,0,3,0,2,,,,,,,,,,,225.473,225.9709,226.2207,228.5268,space,2.2898,,228.5269,42,18,229.5195,229.5195,234.2693,space,4.7049,,0,5,5,5,1,175,55,,,,,,,,
,,5aea8c59ae889e00018624c2,65af55ceca620457d06d58b8,2024-01-23_24h00.52.484,bars,2023.2.3,Win32,55.55555556,657b66ea316d21385b68909f,,,,,,,,,,,234.2819,235.2845,,,235.7849,236.0352,,60,60,,,,,,,,,,,,,,,,bars/013.png,bars/mask003.png,,,,,,,,,,,,2,1,,,,,,,2,1,3,1,,,,,,,,,,,235.2847,235.7847,236.0352,238.6339,space,2.5836,,238.6341,15,50,239.634,239.6341,243.0016,space,3.3273,,0,6,6,6,1,75,10,,,,,,,,
,,5aea8c59ae889e00018624c2,65af55ceca620457d06d58b8,2024-01-23_24h00.52.484,bars,2023.2.3,Win32,55.55555556,657b66ea316d21385b68909f,,,,,,,,,,,243.0029,243.9987,,,244.4877,244.7329,,102,102,,,,,,,,,,,,,,,,bars/008.png,bars/mask001.png,,,,,,,,,,,,4,1,,,,,,,4,3,5,3,,,,,,,,,,,243.9989,244.4876,244.733,247.5352,space,2.7872,,247.5353,8,78,248.532,248.532,250.325,space,1.7622,,0,7,7,7,1,110,0,,,,,,,,
,,5aea8c59ae889e00018624c2,65af55ceca620457d06d58b8,2024-01-23_24h00.52.484,bars,2023.2.3,Win32,55.55555556,657b66ea316d21385b68909f,,,,,,,,,,,250.3263,251.3173,,,251.8203,252.0705,,72,72,,,,,,,,,,,,,,,,bars/012.png,bars/mask003.png,,,,,,,,,,,,0,1,,,,,,,2,5,1,6,,,,,,,,,,,251.3173,251.8202,252.0706,253.0599,space,0.972,,253.06,18,57,254.0476,254.0477,257.3994,space,3.3297,,0,8,8,8,1,90,15,,,,,,,,
,,5aea8c59ae889e00018624c2,65af55ceca620457d06d58b8,2024-01-23_24h00.52.484,bars,2023.2.3,Win32,55.55555556,657b66ea316d21385b68909f,,,,,,,,,,,257.4127,258.4125,,,258.9125,259.1618,,105,105,,,,,,,,,,,,,,,,bars/001.png,bars/mask008.png,,,,,,,,,,,,1,2,,,,,,,4,3,4,4,,,,,,,,,,,258.4125,258.9124,259.1619,262.9609,space,3.7841,,262.961,25,20,263.9612,263.9613,266.7441,space,2.7428,,0,9,9,9,1,130,85,,,,,,,,
,,5aea8c59ae889e00018624c2,65af55ceca620457d06d58b8,2024-01-23_24h00.52.484,bars,2023.2.3,Win32,55.55555556,657b66ea316d21385b68909f,,,,,,,,,,,266.7472,267.7431,,,268.2426,268.493,,103,103,,,,,,,,,,,,,,,,bars/039.png,bars/mask000.png,,,,,,,,,,,,5,2,,,,,,,2,5,3,5,,,,,,,,,,,267.7431,268.2425,268.493,271.2478,space,2.7388,,271.248,72,2,272.2417,272.2417,276.2188,space,3.9465,,0,10,10,10,1,175,105,,,,,,,,
,,5aea8c59ae889e00018624c2,65af55ceca620457d06d58b8,2024-01-23_24h00.52.484,bars,2023.2.3,Win32,55.55555556,657b66ea316d21385b68909f,,,,,,,,,,,276.2338,277.224,,,277.7244,277.9743,,43,43,,,,,,,,,,,,,,,,bars/025.png,bars/mask002.png,,,,,,,,,,,,5,2,,,,,,,0,7,0,6,,,,,,,,,,,277.2241,277.7244,277.9744,281.4579,space,3.474,,281.458,62,3,282.4564,282.4564,282.7575,space,0.2691,,0,11,11,11,1,105,40,,,,,,,,
,,5aea8c59ae889e00018624c2,65af55ceca620457d06d58b8,2024-01-23_24h00.52.484,bars,2023.2.3,Win32,55.55555556,657b66ea316d21385b68909f,,,,,,,,,,,282.759,283.7557,,,284.2552,284.5088,,36,36,,,,,,,,,,,,,,,,bars/035.png,bars/mask008.png,,,,,,,,,,,,2,2,,,,,,,0,9,0,8,,,,,,,,,,,283.7558,284.2552,284.5089,286.6574,space,2.1335,,286.6575,41,24,287.6547,287.6548,290.3219,space,2.6349,,0,12,12,12,1,175,60,,,,,,,,
,,5aea8c59ae889e00018624c2,65af55ceca620457d06d58b8,2024-01-23_24h00.52.484,bars,2023.2.3,Win32,55.55555556,657b66ea316d21385b68909f,,,,,,,,,,,290.3232,291.3209,,,291.82,292.0704,,33,33,,,,,,,,,,,,,,,,bars/019.png,bars/mask000.png,,,,,,,,,,,,2,1,,,,,,,2,7,3,7,,,,,,,,,,,291.3209,291.8198,292.0704,294.8368,space,2.7509,,294.8369,12,72,295.8362,295.8363,297.3394,space,1.4595,,0,13,13,13,1,45,105,,,,,,,,
,,5aea8c59ae889e00018624c2,65af55ceca620457d06d58b8,2024-01-23_24h00.52.484,bars,2023.2.3,Win32,55.55555556,657b66ea316d21385b68909f,,,,,,,,,,,297.3401,298.3361,,,298.8354,299.0851,,16,16,,,,,,,,,,,,,,,,bars/035.png,bars/mask006.png,,,,,,,,,,,,0,1,,,,,,,0,9,0,10,,,,,,,,,,,298.3361,298.8353,299.0851,300.6105,space,1.5099,,300.6106,21,44,301.6069,301.607,304.1172,space,2.474,,0,14,14,14,1,175,60,,,,,,,,
,,5aea8c59ae889e00018624c2,65af55ceca620457d06d58b8,2024-01-23_24h00.52.484,bars,2023.2.3,Win32,55.55555556,657b66ea316d21385b68909f,,,,,,,,,,,304.1185,305.117,,,305.6165,305.8666,,106,106,,,,,,,,,,,,,,,,bars/026.png,bars/mask008.png,,,,,,,,,,,,2,2,,,,,,,0,7,1,7,,,,,,,,,,,305.117,305.6164,305.8668,308.8851,space,3.0053,,308.8857,71,21,309.8828,309.8829,311.5379,space,1.6216,,0,15,15,15,1,35,85,,,,,,,,
,,5aea8c59ae889e00018624c2,65af55ceca620457d06d58b8,2024-01-23_24h00.52.484,bars,2023.2.3,Win32,55.55555556,657b66ea316d21385b68909f,,,,,,,,,,,311.5388,312.5323,,,313.0316,313.2814,,59,59,,,,,,,,,,,,,,,,bars/035.png,bars/mask006.png,,,,,,,,,,,,6,2,,,,,,,0,9,2,6,,,,,,,,,,,312.5323,313.0315,313.2815,315.8647,space,2.5675,,315.8648,64,1,316.8639,316.8639,318.8999,space,2.0066,,0,16,16,16,1,175,60,,,,,,,,
,,5aea8c59ae889e00018624c2,65af55ceca620457d06d58b8,2024-01-23_24h00.52.484,bars,2023.2.3,Win32,55.55555556,657b66ea316d21385b68909f,,,,,,,,,,,318.9023,319.8969,,,320.3967,320.649,,164,-16,,,,,,,,,,,,,,,,bars/024.png,bars/mask006.png,,,,,,,,,,,,6,2,,,,,,,2,7,2,7,,,,,,,,,,,319.8969,320.3966,320.6491,326.4656,space,5.8003,,326.4656,44,6,327.4629,327.463,329.0474,space,1.5481,,0,17,17,17,1,120,170,,,,,,,,
,,5aea8c59ae889e00018624c2,65af55ceca620457d06d58b8,2024-01-23_24h00.52.484,bars,2023.2.3,Win32,55.55555556,657b66ea316d21385b68909f,,,,,,,,,,,329.0481,330.0456,,,330.5459,330.7958,,44,44,,,,,,,,,,,,,,,,bars/026.png,bars/mask004.png,,,,,,,,,,,,0,1,,,,,,,0,5,0,4,,,,,,,,,,,330.0457,330.5457,330.7959,332.8776,space,2.0665,,332.8777,9,41,333.8771,333.8772,335.7283,space,1.8056,,0,18,18,18,1,35,85,,,,,,,,
,,5aea8c59ae889e00018624c2,65af55ceca620457d06d58b8,2024-01-23_24h00.52.484,bars,2023.2.3,Win32,55.55555556,657b66ea316d21385b68909f,,,,,,,,,,,335.7299,336.726,,,337.2297,337.4779,,56,56,,,,,,,,,,,,,,,,bars/047.png,bars/mask002.png,,,,,,,,,,,,4,2,,,,,,,2,7,1,8,,,,,,,,,,,336.726,337.2295,337.478,338.4935,space,1.0028,,338.4935,41,14,339.4918,339.4918,341.1093,space,1.5884,,0,19,19,19,1,15,70,,,,,,,,
,,5aea8c59ae889e00018624c2,65af55ceca620457d06d58b8,2024-01-23_24h00.52.484,bars,2023.2.3,Win32,55.55555556,657b66ea316d21385b68909f,,,,,,,,,,,341.1111,342.108,,,342.6073,342.8571,,53,53,,,,,,,,,,,,,,,,bars/038.png,bars/mask004.png,,,,,,,,,,,,2,2,,,,,,,0,5,0,5,,,,,,,,,,,342.108,342.6073,342.8571,347.5258,space,4.6563,,347.5259,68,17,348.5258,348.5259,351.3033,space,2.7466,,0,20,20,20,1,165,70,,,,,,,,
,,5aea8c59ae889e00018624c2,65af55ceca620457d06d58b8,2024-01-23_24h00.52.484,bars,2023.2.3,Win32,55.55555556,657b66ea316d21385b68909f,,,,,,,,,,,351.3074,352.3114,,,352.8114,353.0609,,124,124,,,,,,,,,,,,,,,,bars/002.png,bars/mask009.png,,,,,,,,,,,,2,1,,,,,,,2,3,2,4,,,,,,,,,,,352.3114,352.8113,353.0609,355.5983,space,2.5176,,355.5984,6,39,356.5924,356.5925,359.7927,space,3.1536,,0,21,21,21,1,130,85,,,,,,,,
,,5aea8c59ae889e00018624c2,65af55ceca620457d06d58b8,2024-01-23_24h00.52.484,bars,2023.2.3,Win32,55.55555556,657b66ea316d21385b68909f,,,,,,,,,,,359.8051,360.8024,,,361.3024,361.5532,,65,-115,,,,,,,,,,,,,,,,bars/026.png,bars/mask009.png,,,,,,,,,,,,1,2,,,,,,,4,5,3,4,,,,,,,,,,,360.8026,361.3023,361.5533,367.0511,space,5.4822,,367.0512,30,20,368.0511,368.0512,371.2864,space,3.1858,,0,22,22,22,1,35,85,,,,,,,,
,,5aea8c59ae889e00018624c2,65af55ceca620457d06d58b8,2024-01-23_24h00.52.484,bars,2023.2.3,Win32,55.55555556,657b66ea316d21385b68909f,,,,,,,,,,,371.2872,372.283,,,372.7837,373.0334,,145,145,,,,,,,,,,,,,,,,bars/024.png,bars/mask001.png,,,,,,,,,,,,0,2,,,,,,,6,3,5,2,,,,,,,,,,,372.2832,372.7836,373.0335,377.1512,space,4.1004,,377.1513,25,25,378.1487,378.1487,380.4089,space,2.23,,0,23,23,23,1,120,170,,,,,,,,
,,5aea8c59ae889e00018624c2,65af55ceca620457d06d58b8,2024-01-23_24h00.52.484,bars,2023.2.3,Win32,55.55555556,657b66ea316d21385b68909f,,,,,,,,,,,380.4096,381.4079,,,381.8983,382.1478,,178,178,,,,,,,,,,,,,,,,bars/037.png,bars/mask009.png,,,,,,,,,,,,0,1,,,,,,,4,1,4,3,,,,,,,,,,,381.4079,381.8982,382.1478,385.6505,space,3.4853,,385.6505,28,73,386.6468,386.6468,388.1632,space,1.4706,,0,24,24,24,1,150,105,,,,,,,,
,,5aea8c59ae889e00018624c2,65af55ceca620457d06d58b8,2024-01-23_24h00.52.484,bars,2023.2.3,Win32,55.55555556,657b66ea316d21385b68909f,,,,,,,,,,,388.1645,389.1625,,,389.6622,389.9117,,145,145,,,,,,,,,,,,,,,,bars/036.png,bars/mask000.png,,,,,,,,,,,,1,1,,,,,,,2,0,1,0,,,,,,,,,,,389.1626,389.6621,389.9118,393.081,space,3.1526,,393.0811,0,55,394.0793,394.0794,400.967,space,6.8468,,0,25,25,25,1,145,20,,,,,,,,
,,5aea8c59ae889e00018624c2,65af55ceca620457d06d58b8,2024-01-23_24h00.52.484,bars,2023.2.3,Win32,55.55555556,657b66ea316d21385b68909f,,,,,,,,,,,400.9812,401.9771,,,402.4766,402.7262,,126,126,,,,,,,,,,,,,,,,bars/028.png,bars/mask004.png,,,,,,,,,,,,1,2,,,,,,,0,0,1,1,,,,,,,,,,,401.9771,402.4765,402.7262,405.1942,space,2.4526,,405.1946,81,6,406.1929,406.193,408.4641,space,2.227,,0,26,26,26,1,45,120,,,,,,,,
,,5aea8c59ae889e00018624c2,65af55ceca620457d06d58b8,2024-01-23_24h00.52.484,bars,2023.2.3,Win32,55.55555556,657b66ea316d21385b68909f,,,,,,,,,,,408.4648,409.4574,,,409.9569,410.2067,,174,174,,,,,,,,,,,,,,,,bars/028.png,bars/mask009.png,,,,,,,,,,,,0,1,,,,,,,0,0,1,0,,,,,,,,,,,409.4575,409.9568,410.2067,411.4111,space,1.1862,,411.4111,51,54,412.4062,412.4063,413.6567,space,1.227,,0,27,27,27,1,45,120,,,,,,,,
,,5aea8c59ae889e00018624c2,65af55ceca620457d06d58b8,2024-01-23_24h00.52.484,bars,2023.2.3,Win32,55.55555556,657b66ea316d21385b68909f,,,,,,,,,,,413.6582,414.6559,,,415.1556,415.4054,,21,201,,,,,,,,,,,,,,,,bars/016.png,bars/mask001.png,,,,,,,,,,,,0,1,,,,,,,0,0,0,0,,,,,,,,,,,414.656,415.1555,415.4054,418.6931,space,3.2773,,418.6933,19,36,419.6883,419.6884,421.0388,space,1.3179,,0,28,28,28,1,40,165,,,,,,,,
,,5aea8c59ae889e00018624c2,65af55ceca620457d06d58b8,2024-01-23_24h00.52.484,bars,2023.2.3,Win32,55.55555556,657b66ea316d21385b68909f,,,,,,,,,,,421.0405,422.0371,,,422.537,422.7874,,142,-38,,,,,,,,,,,,,,,,bars/032.png,bars/mask001.png,,,,,,,,,,,,0,1,,,,,,,0,2,0,2,,,,,,,,,,,422.0372,422.537,422.7875,425.5703,space,2.7665,,425.5705,17,58,426.5692,426.5693,427.7696,space,1.1591,,0,29,29,29,1,125,20,,,,,,,,
,,5aea8c59ae889e00018624c2,65af55ceca620457d06d58b8,2024-01-23_24h00.52.484,bars,2023.2.3,Win32,55.55555556,657b66ea316d21385b68909f,,,,,,,,,,,427.7712,428.7683,,,429.2705,429.5219,,13,193,,,,,,,,,,,,,,,,bars/043.png,bars/mask005.png,,,,,,,,,,,,1,1,,,,,,,2,4,3,3,,,,,,,,,,,428.7684,429.2703,429.5219,434.1011,space,4.565,,434.1013,17,63,435.1001,435.1001,436.1174,space,0.9843,,0,30,30,30,1,30,130,,,,,,,,
,,5aea8c59ae889e00018624c2,65af55ceca620457d06d58b8,2024-01-23_24h00.52.484,bars,2023.2.3,Win32,55.55555556,657b66ea316d21385b68909f,,,,,,,,,,,436.1187,437.117,,,437.6165,437.8665,,32,212,,,,,,,,,,,,,,,,bars/012.png,bars/mask002.png,,,,,,,,,,,,1,2,,,,,,,4,2,4,2,,,,,,,,,,,437.1171,437.6164,437.8666,441.232,space,3.3504,,441.2322,58,17,442.2216,442.2218,444.9665,space,2.6965,,0,31,31,31,1,90,15,,,,,,,,
,,5aea8c59ae889e00018624c2,65af55ceca620457d06d58b8,2024-01-23_24h00.52.484,bars,2023.2.3,Win32,55.55555556,657b66ea316d21385b68909f,,,,,,,,,,,444.968,445.9661,,,446.4652,446.7152,,111,111,,,,,,,,,,,,,,,,bars/031.png,bars/mask001.png,,,,,,,,,,,,4,1,,,,,,,6,4,6,4,,,,,,,,,,,445.9663,446.4651,446.7152,449.7833,space,3.0524,,449.7834,9,76,450.7817,450.7818,452.0858,space,1.2613,,0,32,32,32,1,120,35,,,,,,,,
,,5aea8c59ae889e00018624c2,65af55ceca620457d06d58b8,2024-01-23_24h00.52.484,bars,2023.2.3,Win32,55.55555556,657b66ea316d21385b68909f,,,,,,,,,,,452.0866,453.081,,,453.5789,453.829,,102,102,,,,,,,,,,,,,,,,bars/002.png,bars/mask004.png,,,,,,,,,,,,2,2,,,,,,,8,6,7,5,,,,,,,,,,,453.081,453.5788,453.829,455.9828,space,2.1388,,455.9829,28,17,456.9786,456.9787,459.147,space,2.1352,,0,33,33,33,1,130,85,,,,,,,,
,,5aea8c59ae889e00018624c2,65af55ceca620457d06d58b8,2024-01-23_24h00.52.484,bars,2023.2.3,Win32,55.55555556,657b66ea316d21385b68909f,,,,,,,,,,,459.1477,460.1439,,,460.6446,460.8944,,110,110,,,,,,,,,,,,,,,,bars/029.png,bars/mask002.png,,,,,,,,,,,,2,1,,,,,,,6,4,6,5,,,,,,,,,,,460.144,460.6445,460.8945,465.1668,space,4.2609,,465.1668,20,65,466.1591,466.1591,468.4757,space,2.2733,,0,34,34,34,1,90,45,,,,,,,,
,,5aea8c59ae889e00018624c2,65af55ceca620457d06d58b8,2024-01-23_24h00.52.484,bars,2023.2.3,Win32,55.55555556,657b66ea316d21385b68909f,,,,,,,,,,,468.477,469.4755,,,469.9752,470.2247,,20,20,,,,,,,,,,,,,,,,bars/007.png,bars/mask006.png,,,,,,,,,,,,1,1,,,,,,,8,2,7,3,,,,,,,,,,,469.4755,469.9751,470.2247,471.2131,space,0.9754,,471.2132,25,35,472.208,472.2081,505.0002,space,32.77,,0,35,35,35,1,175,55,,,,,,,,
,,5aea8c59ae889e00018624c2,65af55ceca620457d06d58b8,2024-01-23_24h00.52.484,bars,2023.2.3,Win32,55.55555556,657b66ea316d21385b68909f,,,,,,,,,,,505.0147,506.0157,,,506.5208,506.7655,,14,14,,,,,,,,,,,,,,,,bars/005.png,bars/mask007.png,,,,,,,,,,,,6,1,,,,,,,6,0,7,0,,,,,,,,,,,506.0158,506.5208,506.7656,507.8158,space,1.0349,,507.8159,4,54,508.8154,508.8155,510.2351,space,1.401,,0,36,36,36,1,10,140,,,,,,,,
,,5aea8c59ae889e00018624c2,65af55ceca620457d06d58b8,2024-01-23_24h00.52.484,bars,2023.2.3,Win32,55.55555556,657b66ea316d21385b68909f,,,,,,,,,,,510.2374,511.2317,,,511.731,511.9808,,78,78,,,,,,,,,,,,,,,,bars/029.png,bars/mask009.png,,,,,,,,,,,,2,1,,,,,,,4,2,3,1,,,,,,,,,,,511.2318,511.7309,511.9809,512.9309,space,0.9341,,512.9309,12,33,513.9329,513.933,514.7499,space,0.7958,,0,37,37,37,1,90,45,,,,,,,,
,,5aea8c59ae889e00018624c2,65af55ceca620457d06d58b8,2024-01-23_24h00.52.484,bars,2023.2.3,Win32,55.55555556,657b66ea316d21385b68909f,,,,,,,,,,,514.7511,515.7464,,,516.2463,516.4963,,107,107,,,,,,,,,,,,,,,,bars/024.png,bars/mask008.png,,,,,,,,,,,,1,1,,,,,,,2,4,1,4,,,,,,,,,,,515.7465,516.2462,516.4963,518.1131,space,1.6005,,518.1132,13,63,519.1127,519.1128,521.0888,space,1.9467,,0,38,38,38,1,120,170,,,,,,,,
,,5aea8c59ae889e00018624c2,65af55ceca620457d06d58b8,2024-01-23_24h00.52.484,bars,2023.2.3,Win32,55.55555556,657b66ea316d21385b68909f,,,,,,,,,,,521.0894,522.0844,,,522.5732,522.8131,,136,136,,,,,,,,,,,,,,,,bars/020.png,bars/mask003.png,,,,,,,,,,,,1,1,,,,,,,4,6,4,6,,,,,,,,,,,522.0845,522.5731,522.8132,525.199,space,2.3715,,525.1991,21,34,526.195,526.195,527.1296,space,0.9,,0,39,39,39,1,115,170,,,,,,,,
,,5aea8c59ae889e00018624c2,65af55ceca620457d06d58b8,2024-01-23_24h00.52.484,bars,2023.2.3,Win32,55.55555556,657b66ea316d21385b68909f,,,,,,,,,,,527.1307,528.1286,,,528.6278,528.8776,,127,127,,,,,,,,,,,,,,,,bars/043.png,bars/mask003.png,,,,,,,,,,,,2,2,,,,,,,2,4,2,2,,,,,,,,,,,528.1286,528.6277,528.8777,530.1286,space,1.2343,,530.1286,83,3,531.127,531.1271,532.2762,space,1.1074,,0,40,40,40,1,30,130,,,,,,,,
,,5aea8c59ae889e00018624c2,65af55ceca620457d06d58b8,2024-01-23_24h00.52.484,bars,2023.2.3,Win32,55.55555556,657b66ea316d21385b68909f,,,,,,,,,,,532.2778,533.276,,,533.7753,534.0264,,162,-18,,,,,,,,,,,,,,,,bars/016.png,bars/mask003.png,,,,,,,,,,,,2,2,,,,,,,4,2,7,2,,,,,,,,,,,533.276,533.7753,534.0264,537.0317,space,2.9905,,537.0318,58,3,538.0241,538.0241,540.1585,space,2.0991,,0,41,41,41,1,40,165,,,,,,,,
,,5aea8c59ae889e00018624c2,65af55ceca620457d06d58b8,2024-01-23_24h00.52.484,bars,2023.2.3,Win32,55.55555556,657b66ea316d21385b68909f,,,,,,,,,,,540.1599,541.1574,,,541.6565,541.9066,,49,49,,,,,,,,,,,,,,,,bars/028.png,bars/mask000.png,,,,,,,,,,,,6,1,,,,,,,6,4,7,5,,,,,,,,,,,541.1574,541.6565,541.9066,543.9739,space,2.0516,,543.974,4,71,544.9725,544.9725,545.9128,space,0.9096,,0,42,42,42,1,45,120,,,,,,,,
,,5aea8c59ae889e00018624c2,65af55ceca620457d06d58b8,2024-01-23_24h00.52.484,bars,2023.2.3,Win32,55.55555556,657b66ea316d21385b68909f,,,,,,,,,,,545.9137,546.9058,,,547.4051,547.655,,116,116,,,,,,,,,,,,,,,,bars/022.png,bars/mask008.png,,,,,,,,,,,,1,1,,,,,,,4,2,4,3,,,,,,,,,,,546.9059,547.4051,547.655,550.1221,space,2.4511,,550.1221,21,84,551.1213,551.1215,553.7716,space,2.6156,,0,43,43,43,1,95,20,,,,,,,,
,,5aea8c59ae889e00018624c2,65af55ceca620457d06d58b8,2024-01-23_24h00.52.484,bars,2023.2.3,Win32,55.55555556,657b66ea316d21385b68909f,,,,,,,,,,,553.7731,554.7698,,,555.2701,555.52,,15,15,,,,,,,,,,,,,,,,bars/023.png,bars/mask003.png,,,,,,,,,,,,4,1,,,,,,,6,0,5,1,,,,,,,,,,,554.7699,555.27,555.52,557.2692,space,1.7343,,557.2693,5,80,558.2689,558.2689,559.3026,space,1.0113,,0,44,44,44,1,20,115,,,,,,,,
,,5aea8c59ae889e00018624c2,65af55ceca620457d06d58b8,2024-01-23_24h00.52.484,bars,2023.2.3,Win32,55.55555556,657b66ea316d21385b68909f,,,,,,,,,,,559.3038,560.3018,,,560.8024,561.0524,,158,-22,,,,,,,,,,,,,,,,bars/037.png,bars/mask000.png,,,,,,,,,,,,2,1,,,,,,,4,0,3,0,,,,,,,,,,,560.3018,560.8023,561.0524,564.1887,space,3.1261,,564.1887,8,53,565.185,565.185,567.8576,space,2.6355,,0,45,45,45,1,150,105,,,,,,,,
,,5aea8c59ae889e00018624c2,65af55ceca620457d06d58b8,2024-01-23_24h00.52.484,bars,2023.2.3,Win32,55.55555556,657b66ea316d21385b68909f,,,,,,,,,,,567.8583,568.8508,,,569.3514,569.601,,132,132,,,,,,,,,,,,,,,,bars/005.png,bars/mask003.png,,,,,,,,,,,,1,2,,,,,,,6,2,6,1,,,,,,,,,,,568.8509,569.3514,569.601,571.3189,space,1.7039,,571.3189,58,8,572.3163,572.3165,573.2167,space,0.8691,,0,46,46,46,1,10,140,,,,,,,,
,,5aea8c59ae889e00018624c2,65af55ceca620457d06d58b8,2024-01-23_24h00.52.484,bars,2023.2.3,Win32,55.55555556,657b66ea316d21385b68909f,,,,,,,,,,,573.2177,574.216,,,574.716,574.9648,,122,122,,,,,,,,,,,,,,,,bars/004.png,bars/mask006.png,,,,,,,,,,,,5,2,,,,,,,4,4,3,5,,,,,,,,,,,574.2161,574.7159,574.9649,575.8994,space,0.9175,,575.8995,83,3,576.8988,576.8988,577.7519,space,0.8289,,0,47,47,47,1,25,125,,,,,,,,
,,5aea8c59ae889e00018624c2,65af55ceca620457d06d58b8,2024-01-23_24h00.52.484,bars,2023.2.3,Win32,55.55555556,657b66ea316d21385b68909f,,,,,,,,,,,577.7525,578.749,,,579.2505,579.4981,,47,47,,,,,,,,,,,,,,,,bars/022.png,bars/mask009.png,,,,,,,,,,,,0,2,,,,,,,2,2,2,3,,,,,,,,,,,578.749,579.2505,579.4981,582.3005,space,2.7923,,582.3005,48,27,583.2995,583.2996,584.1509,space,0.8161,,0,48,48,48,1,95,20,,,,,,,,
,,5aea8c59ae889e00018624c2,65af55ceca620457d06d58b8,2024-01-23_24h00.52.484,bars,2023.2.3,Win32,55.55555556,657b66ea316d21385b68909f,,,,,,,,,,,584.1516,585.1473,,,585.6484,585.8967,,32,32,,,,,,,,,,,,,,,,bars/019.png,bars/mask007.png,,,,,,,,,,,,0,1,,,,,,,0,0,0,0,,,,,,,,,,,585.1474,585.6483,585.8968,587.8151,space,1.9022,,587.8156,13,73,588.8123,588.8124,589.8292,space,0.9843,,0,49,49,49,1,45,105,,,,,,,,
,,5aea8c59ae889e00018624c2,65af55ceca620457d06d58b8,2024-01-23_24h00.52.484,bars,2023.2.3,Win32,55.55555556,657b66ea316d21385b68909f,,,,,,,,,,,,,,,,,,,,,,,,,,,,,,,,,,,,,,,,,,,,,,,,,,,,,,,,,,,,,,,,,,,,,,,,,,,,,,,,,,,,,,,,,,,,,589.831,649.8301,0,0,0,1,1,sequence_tables/blk014.csv
,,5aea8c59ae889e00018624c2,65af55ceca620457d06d58b8,2024-01-23_24h00.52.484,bars,2023.2.3,Win32,55.55555556,657b66ea316d21385b68909f,,,,,,,,,,,684.4661,685.4531,,,685.9432,686.1919,,40,40,,,,,,,,,,,,,,,,bars/007.png,bars/mask002.png,,,,,,,,,,,,5,2,,,,,,,2,9,1,9,,,,,,649.844,684.4422,space,34.5787,,685.4531,685.9431,686.192,695.8773,space,9.6672,,695.8774,45,15,696.8736,696.8736,696.8925,,,,0,0,0,0,1,175,55,,,,,,,,
,,5aea8c59ae889e00018624c2,65af55ceca620457d06d58b8,2024-01-23_24h00.52.484,bars,2023.2.3,Win32,55.55555556,657b66ea316d21385b68909f,,,,,,,,,,,696.8931,697.8837,,,698.3834,698.6331,,23,23,,,,,,,,,,,,,,,,bars/043.png,bars/mask004.png,,,,,,,,,,,,5,1,,,,,,,4,7,7,6,,,,,,,,,,,697.8838,698.3834,698.6332,702.8057,space,4.1522,,702.8058,7,73,703.7985,703.7986,703.8246,,,,0,1,1,1,1,30,130,,,,,,,,
,,5aea8c59ae889e00018624c2,65af55ceca620457d06d58b8,2024-01-23_24h00.52.484,bars,2023.2.3,Win32,55.55555556,657b66ea316d21385b68909f,,,,,,,,,,,703.8251,704.8157,,,705.315,705.5655,,119,119,,,,,,,,,,,,,,,,bars/032.png,bars/mask002.png,,,,,,,,,,,,5,1,,,,,,,6,9,6,8,,,,,,,,,,,704.8159,705.315,705.5655,714.4847,space,8.908,,714.4848,6,81,715.4801,715.4802,715.4946,,,,0,2,2,2,1,125,20,,,,,,,,
,,5aea8c59ae889e00018624c2,65af55ceca620457d06d58b8,2024-01-23_24h00.52.484,bars,2023.2.3,Win32,55.55555556,657b66ea316d21385b68909f,,,,,,,,,,,715.4961,716.4999,,,716.9966,717.247,,158,-22,,,,,,,,,,,,,,,,bars/039.png,bars/mask004.png,,,,,,,,,,,,3,1,,,,,,,8,7,6,8,,,,,,,,,,,716.5,716.9966,717.2471,720.5632,space,3.3007,,720.5633,17,53,721.5629,721.5629,721.5758,,,,0,3,3,3,1,175,105,,,,,,,,
,,5aea8c59ae889e00018624c2,65af55ceca620457d06d58b8,2024-01-23_24h00.52.484,bars,2023.2.3,Win32,55.55555556,657b66ea316d21385b68909f,,,,,,,,,,,721.5775,722.5798,,,723.0792,723.3282,,35,35,,,,,,,,,,,,,,,,bars/004.png,bars/mask000.png,,,,,,,,,,,,3,1,,,,,,,6,9,5,9,,,,,,,,,,,722.5799,723.0792,723.3282,732.7449,space,9.4006,,732.7449,10,90,733.7426,733.7426,733.756,,,,0,4,4,4,1,25,125,,,,,,,,
,,5aea8c59ae889e00018624c2,65af55ceca620457d06d58b8,2024-01-23_24h00.52.484,bars,2023.2.3,Win32,55.55555556,657b66ea316d21385b68909f,,,,,,,,,,,733.7564,734.7593,,,735.2597,735.5102,,113,113,,,,,,,,,,,,,,,,bars/025.png,bars/mask004.png,,,,,,,,,,,,6,1,,,,,,,8,7,8,8,,,,,,,,,,,734.7594,735.2596,735.5102,737.8136,space,2.2918,,737.8137,8,73,738.8082,738.8084,738.8278,,,,0,5,5,5,1,105,40,,,,,,,,
,,5aea8c59ae889e00018624c2,65af55ceca620457d06d58b8,2024-01-23_24h00.52.484,bars,2023.2.3,Win32,55.55555556,657b66ea316d21385b68909f,,,,,,,,,,,738.8287,739.8246,,,740.3238,740.5737,,38,218,,,,,,,,,,,,,,,,bars/019.png,bars/mask000.png,,,,,,,,,,,,5,1,,,,,,,6,5,6,7,,,,,,,,,,,739.8246,740.3238,740.5738,743.9231,space,3.334,,743.9232,7,67,744.9234,744.9235,744.9357,,,,0,6,6,6,1,45,105,,,,,,,,
,,5aea8c59ae889e00018624c2,65af55ceca620457d06d58b8,2024-01-23_24h00.52.484,bars,2023.2.3,Win32,55.55555556,657b66ea316d21385b68909f,,,,,,,,,,,744.9361,745.9388,,,746.4389,746.6895,,6,6,,,,,,,,,,,,,,,,bars/043.png,bars/mask007.png,,,,,,,,,,,,0,1,,,,,,,4,7,2,6,,,,,,,,,,,745.9388,746.4389,746.6896,747.6084,space,0.9036,,747.6085,24,56,748.6055,748.6056,748.6075,,,,0,7,7,7,1,30,130,,,,,,,,
,,5aea8c59ae889e00018624c2,65af55ceca620457d06d58b8,2024-01-23_24h00.52.484,bars,2023.2.3,Win32,55.55555556,657b66ea316d21385b68909f,,,,,,,,,,,748.608,749.6073,,,750.1046,750.3545,,145,145,,,,,,,,,,,,,,,,bars/038.png,bars/mask008.png,,,,,,,,,,,,1,1,,,,,,,2,9,2,8,,,,,,,,,,,749.6073,750.1045,750.3546,751.2885,space,0.9189,,751.2885,20,75,752.2874,752.2875,752.2892,,,,0,8,8,8,1,165,70,,,,,,,,
,,5aea8c59ae889e00018624c2,65af55ceca620457d06d58b8,2024-01-23_24h00.52.484,bars,2023.2.3,Win32,55.55555556,657b66ea316d21385b68909f,,,,,,,,,,,752.2898,753.2872,,,753.7877,754.0377,,51,51,,,,,,,,,,,,,,,,bars/028.png,bars/mask009.png,,,,,,,,,,,,1,1,,,,,,,0,10,1,10,,,,,,,,,,,753.2873,753.7876,754.0377,757.1244,space,3.0773,,757.1244,6,69,758.12,758.1202,758.1325,,,,0,9,9,9,1,45,120,,,,,,,,
,,5aea8c59ae889e00018624c2,65af55ceca620457d06d58b8,2024-01-23_24h00.52.484,bars,2023.2.3,Win32,55.55555556,657b66ea316d21385b68909f,,,,,,,,,,,758.1329,759.1364,,,759.6362,759.8855,,69,69,,,,,,,,,,,,,,,,bars/009.png,bars/mask001.png,,,,,,,,,,,,0,2,,,,,,,2,8,3,7,,,,,,,,,,,759.1364,759.6361,759.8855,760.6859,space,0.7849,,760.686,54,36,761.685,761.685,761.689,,,,0,10,10,10,1,15,105,,,,,,,,
,,5aea8c59ae889e00018624c2,65af55ceca620457d06d58b8,2024-01-23_24h00.52.484,bars,2023.2.3,Win32,55.55555556,657b66ea316d21385b68909f,,,,,,,,,,,761.6896,762.6854,,,763.1855,763.4345,,117,117,,,,,,,,,,,,,,,,bars/004.png,bars/mask006.png,,,,,,,,,,,,7,2,,,,,,,0,10,0,10,,,,,,,,,,,762.6855,763.1854,763.4346,766.153,space,2.7024,,766.1531,88,8,767.1507,767.1508,767.1642,,,,0,11,11,11,1,25,125,,,,,,,,
,,5aea8c59ae889e00018624c2,65af55ceca620457d06d58b8,2024-01-23_24h00.52.484,bars,2023.2.3,Win32,55.55555556,657b66ea316d21385b68909f,,,,,,,,,,,767.1646,768.1672,,,768.6665,768.9165,,148,148,,,,,,,,,,,,,,,,bars/003.png,bars/mask004.png,,,,,,,,,,,,4,2,,,,,,,2,8,2,6,,,,,,,,,,,768.1672,768.6664,768.9165,771.2336,space,2.3009,,771.2336,57,8,772.2321,772.2322,772.2458,,,,0,12,12,12,1,25,140,,,,,,,,
,,5aea8c59ae889e00018624c2,65af55ceca620457d06d58b8,2024-01-23_24h00.52.484,bars,2023.2.3,Win32,55.55555556,657b66ea316d21385b68909f,,,,,,,,,,,772.2462,773.2488,,,773.7493,773.9873,,145,145,,,,,,,,,,,,,,,,bars/016.png,bars/mask000.png,,,,,,,,,,,,3,2,,,,,,,4,10,5,9,,,,,,,,,,,773.2488,773.7492,773.9873,777.9145,space,3.9114,,777.9146,75,20,778.9139,778.914,778.9261,,,,0,13,13,13,1,40,165,,,,,,,,
,,5aea8c59ae889e00018624c2,65af55ceca620457d06d58b8,2024-01-23_24h00.52.484,bars,2023.2.3,Win32,55.55555556,657b66ea316d21385b68909f,,,,,,,,,,,778.9266,779.915,,,780.4141,780.6635,,74,74,,,,,,,,,,,,,,,,bars/041.png,bars/mask001.png,,,,,,,,,,,,6,2,,,,,,,2,10,2,10,,,,,,,,,,,779.9151,780.4141,780.6636,784.7294,space,4.0499,,784.7295,54,11,785.7289,785.7289,785.742,,,,0,14,14,14,1,20,85,,,,,,,,
,,5aea8c59ae889e00018624c2,65af55ceca620457d06d58b8,2024-01-23_24h00.52.484,bars,2023.2.3,Win32,55.55555556,657b66ea316d21385b68909f,,,,,,,,,,,785.7425,786.7452,,,787.2451,787.4954,,63,63,,,,,,,,,,,,,,,,bars/030.png,bars/mask007.png,,,,,,,,,,,,9,2,,,,,,,0,10,0,10,,,,,,,,,,,786.7453,787.245,787.4955,791.2307,space,3.7215,,791.2308,77,2,792.2272,792.2273,792.2395,,,,0,15,15,15,1,140,65,,,,,,,,
,,5aea8c59ae889e00018624c2,65af55ceca620457d06d58b8,2024-01-23_24h00.52.484,bars,2023.2.3,Win32,55.55555556,657b66ea316d21385b68909f,,,,,,,,,,,792.24,793.2276,,,793.7271,793.9775,,112,112,,,,,,,,,,,,,,,,bars/004.png,bars/mask006.png,,,,,,,,,,,,6,2,,,,,,,2,10,2,10,,,,,,,,,,,793.2276,793.727,793.9775,797.8268,space,3.8338,,797.827,87,13,798.8254,798.8255,798.8378,,,,0,16,16,16,1,25,125,,,,,,,,
,,5aea8c59ae889e00018624c2,65af55ceca620457d06d58b8,2024-01-23_24h00.52.484,bars,2023.2.3,Win32,55.55555556,657b66ea316d21385b68909f,,,,,,,,,,,798.8383,799.8422,,,800.3425,800.5922,,50,50,,,,,,,,,,,,,,,,bars/030.png,bars/mask004.png,,,,,,,,,,,,4,2,,,,,,,0,10,0,8,,,,,,,,,,,799.8423,800.3424,800.5922,802.3766,space,1.7679,,802.3768,90,15,803.3747,803.3747,803.3771,,,,0,17,17,17,1,140,65,,,,,,,,
,,5aea8c59ae889e00018624c2,65af55ceca620457d06d58b8,2024-01-23_24h00.52.484,bars,2023.2.3,Win32,55.55555556,657b66ea316d21385b68909f,,,,,,,,,,,803.3778,804.374,,,804.874,805.1254,,158,-22,,,,,,,,,,,,,,,,bars/013.png,bars/mask008.png,,,,,,,,,,,,0,2,,,,,,,2,10,2,10,,,,,,,,,,,804.374,804.874,805.1254,808.513,space,3.3706,,808.513,83,32,809.5065,809.5066,809.531,,,,0,18,18,18,1,75,10,,,,,,,,
,,5aea8c59ae889e00018624c2,65af55ceca620457d06d58b8,2024-01-23_24h00.52.484,bars,2023.2.3,Win32,55.55555556,657b66ea316d21385b68909f,,,,,,,,,,,809.5316,810.5214,,,811.0219,811.2711,,121,121,,,,,,,,,,,,,,,,bars/018.png,bars/mask001.png,,,,,,,,,,,,0,1,,,,,,,0,10,1,10,,,,,,,,,,,810.5214,811.0219,811.2712,814.6866,space,3.4023,,814.6868,29,31,815.6768,815.6769,815.7042,,,,0,19,19,19,1,150,90,,,,,,,,
,,5aea8c59ae889e00018624c2,65af55ceca620457d06d58b8,2024-01-23_24h00.52.484,bars,2023.2.3,Win32,55.55555556,657b66ea316d21385b68909f,,,,,,,,,,,815.7049,816.7038,,,817.2032,817.4531,,111,111,,,,,,,,,,,,,,,,bars/045.png,bars/mask009.png,,,,,,,,,,,,1,1,,,,,,,2,10,1,8,,,,,,,,,,,816.7038,817.2032,817.4531,821.8034,space,4.3382,,821.8034,11,79,822.8013,822.8013,822.8154,,,,0,20,20,20,1,100,10,,,,,,,,
,,5aea8c59ae889e00018624c2,65af55ceca620457d06d58b8,2024-01-23_24h00.52.484,bars,2023.2.3,Win32,55.55555556,657b66ea316d21385b68909f,,,,,,,,,,,822.8166,823.8179,,,824.3177,824.5683,,18,18,,,,,,,,,,,,,,,,bars/043.png,bars/mask005.png,,,,,,,,,,,,2,1,,,,,,,4,8,3,8,,,,,,,,,,,823.8179,824.3176,824.5683,827.9669,space,3.3835,,827.9669,12,68,828.9691,828.9692,828.9861,,,,0,21,21,21,1,30,130,,,,,,,,
,,5aea8c59ae889e00018624c2,65af55ceca620457d06d58b8,2024-01-23_24h00.52.484,bars,2023.2.3,Win32,55.55555556,657b66ea316d21385b68909f,,,,,,,,,,,828.987,829.9837,,,830.4831,830.7355,,118,118,,,,,,,,,,,,,,,,bars/024.png,bars/mask003.png,,,,,,,,,,,,7,1,,,,,,,6,10,7,10,,,,,,,,,,,829.9837,830.483,830.7356,831.6835,space,0.9339,,831.6836,2,52,832.6821,832.6822,832.6846,,,,0,22,22,22,1,120,170,,,,,,,,
,,5aea8c59ae889e00018624c2,65af55ceca620457d06d58b8,2024-01-23_24h00.52.484,bars,2023.2.3,Win32,55.55555556,657b66ea316d21385b68909f,,,,,,,,,,,832.6856,833.6822,,,834.1827,834.4326,,144,144,,,,,,,,,,,,,,,,bars/049.png,bars/mask003.png,,,,,,,,,,,,2,1,,,,,,,4,10,4,10,,,,,,,,,,,833.6823,834.1826,834.4326,838.0647,space,3.6165,,838.0647,16,29,839.0642,839.0642,839.0771,,,,0,23,23,23,1,160,115,,,,,,,,
,,5aea8c59ae889e00018624c2,65af55ceca620457d06d58b8,2024-01-23_24h00.52.484,bars,2023.2.3,Win32,55.55555556,657b66ea316d21385b68909f,,,,,,,,,,,839.0774,840.0808,,,840.5811,840.8308,,139,139,,,,,,,,,,,,,,,,bars/046.png,bars/mask008.png,,,,,,,,,,,,2,1,,,,,,,6,8,5,9,,,,,,,,,,,840.0808,840.581,840.8308,845.5338,space,4.6889,,845.5339,16,54,846.529,846.529,846.5422,,,,0,24,24,24,1,155,85,,,,,,,,
,,5aea8c59ae889e00018624c2,65af55ceca620457d06d58b8,2024-01-23_24h00.52.484,bars,2023.2.3,Win32,55.55555556,657b66ea316d21385b68909f,,,,,,,,,,,846.5426,847.5459,,,848.0451,848.295,,161,161,,,,,,,,,,,,,,,,bars/021.png,bars/mask009.png,,,,,,,,,,,,3,1,,,,,,,4,6,4,7,,,,,,,,,,,847.546,848.0451,848.2951,851.9632,space,3.6503,,851.9634,6,89,852.9613,852.9613,852.9751,,,,0,25,25,25,1,155,70,,,,,,,,
,,5aea8c59ae889e00018624c2,65af55ceca620457d06d58b8,2024-01-23_24h00.52.484,bars,2023.2.3,Win32,55.55555556,657b66ea316d21385b68909f,,,,,,,,,,,852.9756,853.9778,,,854.477,854.7269,,107,107,,,,,,,,,,,,,,,,bars/034.png,bars/mask005.png,,,,,,,,,,,,0,1,,,,,,,2,8,1,8,,,,,,,,,,,853.9778,854.477,854.7269,857.3596,space,2.6177,,857.3596,18,42,858.3592,858.3592,858.3721,,,,0,26,26,26,1,125,65,,,,,,,,
,,5aea8c59ae889e00018624c2,65af55ceca620457d06d58b8,2024-01-23_24h00.52.484,bars,2023.2.3,Win32,55.55555556,657b66ea316d21385b68909f,,,,,,,,,,,858.3729,859.3757,,,859.8755,860.1255,,116,116,,,,,,,,,,,,,,,,bars/012.png,bars/mask008.png,,,,,,,,,,,,1,1,,,,,,,4,10,5,9,,,,,,,,,,,859.3757,859.8754,860.1256,862.3811,space,2.2442,,862.3811,26,79,863.3745,863.3746,863.3875,,,,0,27,27,27,1,90,15,,,,,,,,
,,5aea8c59ae889e00018624c2,65af55ceca620457d06d58b8,2024-01-23_24h00.52.484,bars,2023.2.3,Win32,55.55555556,657b66ea316d21385b68909f,,,,,,,,,,,863.3882,864.3912,,,864.8923,865.1409,,147,147,,,,,,,,,,,,,,,,bars/015.png,bars/mask009.png,,,,,,,,,,,,5,2,,,,,,,2,10,2,9,,,,,,,,,,,864.3912,864.8922,865.1409,869.1341,space,3.9829,,869.1341,37,13,870.1229,870.123,870.1375,,,,0,28,28,28,1,110,160,,,,,,,,
,,5aea8c59ae889e00018624c2,65af55ceca620457d06d58b8,2024-01-23_24h00.52.484,bars,2023.2.3,Win32,55.55555556,657b66ea316d21385b68909f,,,,,,,,,,,870.138,871.1394,,,871.6392,871.8898,,155,-25,,,,,,,,,,,,,,,,bars/015.png,bars/mask000.png,,,,,,,,,,,,7,2,,,,,,,0,8,0,8,,,,,,,,,,,871.1394,871.6391,871.8899,875.6897,space,3.789,,875.6898,45,5,876.6886,876.6887,876.7011,,,,0,29,29,29,1,110,160,,,,,,,,
,,5aea8c59ae889e00018624c2,65af55ceca620457d06d58b8,2024-01-23_24h00.52.484,bars,2023.2.3,Win32,55.55555556,657b66ea316d21385b68909f,,,,,,,,,,,876.7015,877.7044,,,878.2043,878.4542,,65,65,,,,,,,,,,,,,,,,bars/035.png,bars/mask000.png,,,,,,,,,,,,8,2,,,,,,,2,10,2,9,,,,,,,,,,,877.7046,878.2043,878.4543,879.6716,space,1.2086,,879.6716,70,5,880.6707,880.6707,880.6731,,,,0,30,30,30,1,175,60,,,,,,,,
,,5aea8c59ae889e00018624c2,65af55ceca620457d06d58b8,2024-01-23_24h00.52.484,bars,2023.2.3,Win32,55.55555556,657b66ea316d21385b68909f,,,,,,,,,,,880.6739,881.6697,,,882.1702,882.4203,,122,122,,,,,,,,,,,,,,,,bars/019.png,bars/mask008.png,,,,,,,,,,,,3,2,,,,,,,0,8,0,8,,,,,,,,,,,881.6697,882.1702,882.4204,886.4354,space,3.9993,,886.4354,77,17,887.4348,887.4349,887.4501,,,,0,31,31,31,1,45,105,,,,,,,,
,,5aea8c59ae889e00018624c2,65af55ceca620457d06d58b8,2024-01-23_24h00.52.484,bars,2023.2.3,Win32,55.55555556,657b66ea316d21385b68909f,,,,,,,,,,,887.4514,888.4514,,,888.9521,889.2019,,146,146,,,,,,,,,,,,,,,,bars/048.png,bars/mask007.png,,,,,,,,,,,,0,2,,,,,,,0,6,0,5,,,,,,,,,,,888.4514,888.952,889.202,933.0503,space,43.8391,,933.0514,84,29,934.0452,934.0453,934.0608,,,,0,32,32,32,1,50,175,,,,,,,,
,,5aea8c59ae889e00018624c2,65af55ceca620457d06d58b8,2024-01-23_24h00.52.484,bars,2023.2.3,Win32,55.55555556,657b66ea316d21385b68909f,,,,,,,,,,,934.0613,935.0621,,,935.5403,935.7921,,18,18,,,,,,,,,,,,,,,,bars/016.png,bars/mask003.png,,,,,,,,,,,,0,1,,,,,,,0,4,1,4,,,,,,,,,,,935.0621,935.5403,935.7922,937.6792,space,1.8722,,937.6793,22,33,938.6725,938.6725,938.6893,,,,0,33,33,33,1,40,165,,,,,,,,
,,5aea8c59ae889e00018624c2,65af55ceca620457d06d58b8,2024-01-23_24h00.52.484,bars,2023.2.3,Win32,55.55555556,657b66ea316d21385b68909f,,,,,,,,,,,938.6898,939.689,,,940.1885,940.4382,,44,44,,,,,,,,,,,,,,,,bars/027.png,bars/mask000.png,,,,,,,,,,,,5,2,,,,,,,0,6,1,6,,,,,,,,,,,939.6891,940.1885,940.4383,944.8067,space,4.3529,,944.8067,66,6,945.8073,945.8074,945.8232,,,,0,34,34,34,1,110,50,,,,,,,,
,,5aea8c59ae889e00018624c2,65af55ceca620457d06d58b8,2024-01-23_24h00.52.484,bars,2023.2.3,Win32,55.55555556,657b66ea316d21385b68909f,,,,,,,,,,,945.8236,946.8216,,,947.3205,947.5702,,29,29,,,,,,,,,,,,,,,,bars/022.png,bars/mask003.png,,,,,,,,,,,,5,2,,,,,,,2,8,2,7,,,,,,,,,,,946.8217,947.3205,947.5703,950.6234,space,3.0371,,950.6234,66,9,951.6197,951.6198,951.6326,,,,0,35,35,35,1,95,20,,,,,,,,
,,5aea8c59ae889e00018624c2,65af55ceca620457d06d58b8,2024-01-23_24h00.52.484,bars,2023.2.3,Win32,55.55555556,657b66ea316d21385b68909f,,,,,,,,,,,951.6331,952.6354,,,953.1359,953.3859,,158,158,,,,,,,,,,,,,,,,bars/012.png,bars/mask000.png,,,,,,,,,,,,0,2,,,,,,,4,6,4,6,,,,,,,,,,,952.6354,953.1358,953.3859,955.9512,space,2.5485,,955.9512,68,37,956.9508,956.9509,956.9646,,,,0,36,36,36,1,90,15,,,,,,,,
,,5aea8c59ae889e00018624c2,65af55ceca620457d06d58b8,2024-01-23_24h00.52.484,bars,2023.2.3,Win32,55.55555556,657b66ea316d21385b68909f,,,,,,,,,,,956.965,957.9673,,,958.4679,958.7177,,38,38,,,,,,,,,,,,,,,,bars/035.png,bars/mask000.png,,,,,,,,,,,,2,2,,,,,,,6,8,6,8,,,,,,,,,,,957.9673,958.4679,958.7179,962.3501,space,3.6166,,962.3501,43,22,963.3489,963.3489,963.363,,,,0,37,37,37,1,175,60,,,,,,,,
,,5aea8c59ae889e00018624c2,65af55ceca620457d06d58b8,2024-01-23_24h00.52.484,bars,2023.2.3,Win32,55.55555556,657b66ea316d21385b68909f,,,,,,,,,,,963.3636,964.3656,,,964.8661,965.115,,71,71,,,,,,,,,,,,,,,,bars/026.png,bars/mask007.png,,,,,,,,,,,,3,2,,,,,,,8,6,8,6,,,,,,,,,,,964.3656,964.866,965.115,968.7357,space,3.6035,,968.7357,36,14,969.7314,969.7314,969.7442,,,,0,38,38,38,1,35,85,,,,,,,,
,,5aea8c59ae889e00018624c2,65af55ceca620457d06d58b8,2024-01-23_24h00.52.484,bars,2023.2.3,Win32,55.55555556,657b66ea316d21385b68909f,,,,,,,,,,,969.7446,970.748,,,971.2472,971.4969,,115,115,,,,,,,,,,,,,,,,bars/018.png,bars/mask004.png,,,,,,,,,,,,1,2,,,,,,,6,4,4,4,,,,,,,,,,,970.748,971.2472,971.497,973.6995,space,2.1897,,973.6996,35,25,974.6962,974.6963,974.7102,,,,0,39,39,39,1,150,90,,,,,,,,
,,5aea8c59ae889e00018624c2,65af55ceca620457d06d58b8,2024-01-23_24h00.52.484,bars,2023.2.3,Win32,55.55555556,657b66ea316d21385b68909f,,,,,,,,,,,974.7108,975.7133,,,976.2126,976.4624,,111,111,,,,,,,,,,,,,,,,bars/008.png,bars/mask007.png,,,,,,,,,,,,5,1,,,,,,,4,6,5,5,,,,,,,,,,,975.7134,976.2125,976.4624,979.412,space,2.9338,,979.4121,1,69,980.4115,980.4115,980.4266,,,,0,40,40,40,1,110,0,,,,,,,,
,,5aea8c59ae889e00018624c2,65af55ceca620457d06d58b8,2024-01-23_24h00.52.484,bars,2023.2.3,Win32,55.55555556,657b66ea316d21385b68909f,,,,,,,,,,,980.4275,981.4277,,,981.9284,982.1777,,45,45,,,,,,,,,,,,,,,,bars/019.png,bars/mask008.png,,,,,,,,,,,,8,1,,,,,,,6,8,8,8,,,,,,,,,,,981.4278,981.9284,982.1778,983.0961,space,0.9098,,983.0961,0,60,984.0946,984.0946,984.0969,,,,0,41,41,41,1,45,105,,,,,,,,
,,5aea8c59ae889e00018624c2,65af55ceca620457d06d58b8,2024-01-23_24h00.52.484,bars,2023.2.3,Win32,55.55555556,657b66ea316d21385b68909f,,,,,,,,,,,984.0979,985.0934,,,985.5934,985.8438,,124,124,,,,,,,,,,,,,,,,bars/002.png,bars/mask003.png,,,,,,,,,,,,6,1,,,,,,,8,6,7,7,,,,,,,,,,,985.0935,985.5934,985.8438,988.5982,space,2.7385,,988.5982,6,39,989.5936,989.5937,989.6067,,,,0,42,42,42,1,130,85,,,,,,,,
,,5aea8c59ae889e00018624c2,65af55ceca620457d06d58b8,2024-01-23_24h00.52.484,bars,2023.2.3,Win32,55.55555556,657b66ea316d21385b68909f,,,,,,,,,,,989.6071,990.6101,,,991.1099,991.3603,,15,195,,,,,,,,,,,,,,,,bars/023.png,bars/mask008.png,,,,,,,,,,,,5,1,,,,,,,6,4,6,5,,,,,,,,,,,990.6102,991.1099,991.3604,996.4741,space,5.0994,,996.4742,5,80,997.4741,997.4742,997.4873,,,,0,43,43,43,1,20,115,,,,,,,,
,,5aea8c59ae889e00018624c2,65af55ceca620457d06d58b8,2024-01-23_24h00.52.484,bars,2023.2.3,Win32,55.55555556,657b66ea316d21385b68909f,,,,,,,,,,,997.4879,998.4905,,,998.99,999.2397,,119,119,,,,,,,,,,,,,,,,bars/037.png,bars/mask009.png,,,,,,,,,,,,1,2,,,,,,,4,2,5,2,,,,,,,,,,,998.4906,998.99,999.2397,1003.1744,space,3.9187,,1003.1745,31,14,1004.1721,1004.1722,1004.1871,,,,0,44,44,44,1,150,105,,,,,,,,
,,5aea8c59ae889e00018624c2,65af55ceca620457d06d58b8,2024-01-23_24h00.52.484,bars,2023.2.3,Win32,55.55555556,657b66ea316d21385b68909f,,,,,,,,,,,1004.1881,1005.1882,,,1005.689,1005.9388,,47,47,,,,,,,,,,,,,,,,bars/032.png,bars/mask001.png,,,,,,,,,,,,0,2,,,,,,,2,0,4,0,,,,,,,,,,,1005.1883,1005.689,1005.9389,1010.8217,space,4.8672,,1010.8217,78,27,1011.8205,1011.8205,1011.8337,,,,0,45,45,45,1,125,20,,,,,,,,
,,5aea8c59ae889e00018624c2,65af55ceca620457d06d58b8,2024-01-23_24h00.52.484,bars,2023.2.3,Win32,55.55555556,657b66ea316d21385b68909f,,,,,,,,,,,1011.8342,1012.8368,,,1013.3372,1013.5867,,110,110,,,,,,,,,,,,,,,,bars/002.png,bars/mask002.png,,,,,,,,,,,,1,1,,,,,,,4,0,2,0,,,,,,,,,,,1012.8368,1013.3371,1013.5868,1015.36,space,1.7587,,1015.3601,20,25,1016.3522,1016.3523,1016.3674,,,,0,46,46,46,1,130,85,,,,,,,,
,,5aea8c59ae889e00018624c2,65af55ceca620457d06d58b8,2024-01-23_24h00.52.484,bars,2023.2.3,Win32,55.55555556,657b66ea316d21385b68909f,,,,,,,,,,,1016.3683,1017.3713,,,1017.8687,1018.1184,,111,111,,,,,,,,,,,,,,,,bars/019.png,bars/mask000.png,,,,,,,,,,,,1,2,,,,,,,2,2,1,1,,,,,,,,,,,1017.3714,1017.8687,1018.1184,1020.9367,space,2.8008,,1020.9369,66,6,1021.9339,1021.9339,1021.9498,,,,0,47,47,47,1,45,105,,,,,,,,
,,5aea8c59ae889e00018624c2,65af55ceca620457d06d58b8,2024-01-23_24h00.52.484,bars,2023.2.3,Win32,55.55555556,657b66ea316d21385b68909f,,,,,,,,,,,1021.9513,1022.9402,,,1023.4391,1023.6901,,106,106,,,,,,,,,,,,,,,,bars/009.png,bars/mask004.png,,,,,,,,,,,,0,2,,,,,,,4,0,4,0,,,,,,,,,,,1022.9404,1023.439,1023.6902,1026.8107,space,3.1024,,1026.8107,89,1,1027.8018,1027.8018,1027.8138,,,,0,48,48,48,1,15,105,,,,,,,,
,,5aea8c59ae889e00018624c2,65af55ceca620457d06d58b8,2024-01-23_24h00.52.484,bars,2023.2.3,Win32,55.55555556,657b66ea316d21385b68909f,,,,,,,,,,,1027.8142,1028.8177,,,1029.3168,1029.567,,47,47,,,,,,,,,,,,,,,,bars/000.png,bars/mask008.png,,,,,,,,,,,,5,1,,,,,,,6,0,6,1,,,,,,,,,,,1028.8178,1029.3168,1029.5671,1034.5197,space,4.9369,,1034.5198,7,82,1035.516,1035.5161,1035.5331,,,,0,49,49,49,1,40,145,,,,,,,,
,,5aea8c59ae889e00018624c2,65af55ceca620457d06d58b8,2024-01-23_24h00.52.484,bars,2023.2.3,Win32,55.55555556,657b66ea316d21385b68909f,,,,,,,,,,,,,,,,,,,,,,,,,,,,,,,,,,,,,,,,,,,,,,,,,,,,,,,,,,,,,,,,,,,,,,,,,,,,,,,,,,,,,,,,,,,,,1035.5342,1095.5335,0,1,1,3,1,sequence_tables/blk030.csv
,,5aea8c59ae889e00018624c2,65af55ceca620457d06d58b8,2024-01-23_24h00.52.484,bars,2023.2.3,Win32,55.55555556,657b66ea316d21385b68909f,,,,,,,,,,,1159.9118,1160.9021,,,1161.3987,1161.6495,,117,117,,,,,,,,,,,,,,,,bars/002.png,bars/mask000.png,,,,,,,,,,,,5,1,,,,,,,10,1,8,0,,,,,,1095.5473,1159.888,space,64.3204,,1160.9021,1161.3986,1161.6497,1163.7194,space,2.0524,,1163.7195,13,32,1164.7146,1164.7146,1164.7275,,,,0,0,0,0,1,130,85,,,,,,,,
,,5aea8c59ae889e00018624c2,65af55ceca620457d06d58b8,2024-01-23_24h00.52.484,bars,2023.2.3,Win32,55.55555556,657b66ea316d21385b68909f,,,,,,,,,,,1164.7282,1165.731,,,1166.2315,1166.4815,,137,137,,,,,,,,,,,,,,,,bars/024.png,bars/mask000.png,,,,,,,,,,,,3,1,,,,,,,8,0,8,0,,,,,,,,,,,1165.7311,1166.2315,1166.4815,1167.9812,space,1.4849,,1167.9813,17,33,1168.9799,1168.98,1168.9824,,,,0,1,1,1,1,120,170,,,,,,,,
,,5aea8c59ae889e00018624c2,65af55ceca620457d06d58b8,2024-01-23_24h00.52.484,bars,2023.2.3,Win32,55.55555556,657b66ea316d21385b68909f,,,,,,,,,,,1168.983,1169.9795,,,1170.4798,1170.7293,,33,33,,,,,,,,,,,,,,,,bars/043.png,bars/mask006.png,,,,,,,,,,,,5,1,,,,,,,6,0,5,0,,,,,,,,,,,1169.9795,1170.4797,1170.7294,1172.7959,space,2.0513,,1172.7959,3,83,1173.796,1173.796,1173.7981,,,,0,2,2,2,1,30,130,,,,,,,,
,,5aea8c59ae889e00018624c2,65af55ceca620457d06d58b8,2024-01-23_24h00.52.484,bars,2023.2.3,Win32,55.55555556,657b66ea316d21385b68909f,,,,,,,,,,,1173.799,1174.796,,,1175.2953,1175.545,,124,124,,,,,,,,,,,,,,,,bars/031.png,bars/mask003.png,,,,,,,,,,,,3,1,,,,,,,4,2,3,0,,,,,,,,,,,1174.7961,1175.2952,1175.5451,1180.5288,space,4.9741,,1180.529,4,89,1181.5269,1181.5269,1181.5398,,,,0,3,3,3,1,120,35,,,,,,,,
,,5aea8c59ae889e00018624c2,65af55ceca620457d06d58b8,2024-01-23_24h00.52.484,bars,2023.2.3,Win32,55.55555556,657b66ea316d21385b68909f,,,,,,,,,,,1181.5402,1182.5442,,,1183.0434,1183.2932,,104,104,,,,,,,,,,,,,,,,bars/024.png,bars/mask000.png,,,,,,,,,,,,2,1,,,,,,,6,0,5,0,,,,,,,,,,,1182.5443,1183.0434,1183.2933,1184.1462,space,0.8425,,1184.1462,16,66,1185.1425,1185.1425,1185.1447,,,,0,4,4,4,1,120,170,,,,,,,,
,,5aea8c59ae889e00018624c2,65af55ceca620457d06d58b8,2024-01-23_24h00.52.484,bars,2023.2.3,Win32,55.55555556,657b66ea316d21385b68909f,,,,,,,,,,,1185.1455,1186.1423,,,1186.6431,1186.8922,,28,208,,,,,,,,,,,,,,,,bars/024.png,bars/mask001.png,,,,,,,,,,,,0,2,,,,,,,8,2,10,5,,,,,,,,,,,1186.1423,1186.643,1186.8923,1189.6256,space,2.7172,,1189.6256,88,38,1190.6246,1190.6247,1190.6399,,,,0,5,5,5,1,120,170,,,,,,,,
,,5aea8c59ae889e00018624c2,65af55ceca620457d06d58b8,2024-01-23_24h00.52.484,bars,2023.2.3,Win32,55.55555556,657b66ea316d21385b68909f,,,,,,,,,,,1190.6415,1191.6436,,,1192.1414,1192.3911,,49,49,,,,,,,,,,,,,,,,bars/028.png,bars/mask000.png,,,,,,,,,,,,9,1,,,,,,,10,0,10,1,,,,,,,,,,,1191.6436,1192.1414,1192.3914,1193.4455,space,1.0391,,1193.4457,4,71,1194.4407,1194.4408,1194.4457,,,,0,6,6,6,1,45,120,,,,,,,,
,,5aea8c59ae889e00018624c2,65af55ceca620457d06d58b8,2024-01-23_24h00.52.484,bars,2023.2.3,Win32,55.55555556,657b66ea316d21385b68909f,,,,,,,,,,,1194.4462,1195.4402,,,1195.9434,1196.1898,,26,26,,,,,,,,,,,,,,,,bars/033.png,bars/mask000.png,,,,,,,,,,,,10,1,,,,,,,10,0,10,0,,,,,,,,,,,1195.4403,1195.9433,1196.1898,1198.8735,space,2.6678,,1198.8736,1,51,1199.8722,1199.8723,1199.8853,,,,0,7,7,7,1,25,155,,,,,,,,
,,5aea8c59ae889e00018624c2,65af55ceca620457d06d58b8,2024-01-23_24h00.52.484,bars,2023.2.3,Win32,55.55555556,657b66ea316d21385b68909f,,,,,,,,,,,1199.8859,1200.8888,,,1201.3886,1201.6386,,60,60,,,,,,,,,,,,,,,,bars/044.png,bars/mask002.png,,,,,,,,,,,,4,1,,,,,,,10,0,8,0,,,,,,,,,,,1200.8888,1201.3886,1201.6386,1203.1989,space,1.5498,,1203.1989,15,85,1204.1909,1204.1909,1204.2039,,,,0,8,8,8,1,75,155,,,,,,,,
,,5aea8c59ae889e00018624c2,65af55ceca620457d06d58b8,2024-01-23_24h00.52.484,bars,2023.2.3,Win32,55.55555556,657b66ea316d21385b68909f,,,,,,,,,,,1204.2047,1205.193,,,1205.6943,1205.9433,,146,146,,,,,,,,,,,,,,,,bars/007.png,bars/mask005.png,,,,,,,,,,,,0,1,,,,,,,8,0,9,0,,,,,,,,,,,1205.193,1205.6943,1205.9434,1361.0868,space,155.1191,,1361.0868,29,89,1362.081,1362.081,1362.0957,,,,0,9,9,9,1,175,55,,,,,,,,
,,5aea8c59ae889e00018624c2,65af55ceca620457d06d58b8,2024-01-23_24h00.52.484,bars,2023.2.3,Win32,55.55555556,657b66ea316d21385b68909f,,,,,,,,,,,1362.0962,1363.0977,,,1363.5971,1363.8478,,27,207,,,,,,,,,,,,,,,,bars/035.png,bars/mask005.png,,,,,,,,,,,,0,1,,,,,,,10,2,7,4,,,,,,,,,,,1363.0977,1363.5971,1363.8479,1369.1044,space,5.2381,,1369.1048,32,33,1370.0965,1370.0965,1370.113,,,,0,10,10,10,1,175,60,,,,,,,,
,,5aea8c59ae889e00018624c2,65af55ceca620457d06d58b8,2024-01-23_24h00.52.484,bars,2023.2.3,Win32,55.55555556,657b66ea316d21385b68909f,,,,,,,,,,,1370.1137,1371.1126,,,1371.6119,1371.8621,,112,112,,,,,,,,,,,,,,,,bars/049.png,bars/mask000.png,,,,,,,,,,,,4,2,,,,,,,10,4,10,4,,,,,,,,,,,1371.1127,1371.6119,1371.8622,1372.8115,space,0.9348,,1372.8115,48,3,1373.8113,1373.8114,1373.8166,,,,0,11,11,11,1,160,115,,,,,,,,
,,5aea8c59ae889e00018624c2,65af55ceca620457d06d58b8,2024-01-23_24h00.52.484,bars,2023.2.3,Win32,55.55555556,657b66ea316d21385b68909f,,,,,,,,,,,1373.817,1374.8129,,,1375.311,1375.5609,,56,56,,,,,,,,,,,,,,,,bars/017.png,bars/mask008.png,,,,,,,,,,,,5,2,,,,,,,8,6,7,8,,,,,,,,,,,1374.813,1375.311,1375.561,1376.5833,space,1.0049,,1376.5834,89,11,1377.5778,1377.5779,1377.5808,,,,0,12,12,12,1,145,45,,,,,,,,
,,5aea8c59ae889e00018624c2,65af55ceca620457d06d58b8,2024-01-23_24h00.52.484,bars,2023.2.3,Win32,55.55555556,657b66ea316d21385b68909f,,,,,,,,,,,1377.5819,1378.5773,,,1379.0766,1379.3265,,47,47,,,,,,,,,,,,,,,,bars/022.png,bars/mask007.png,,,,,,,,,,,,0,2,,,,,,,6,4,6,2,,,,,,,,,,,1378.5773,1379.0765,1379.3266,1382.3925,space,3.0513,,1382.3926,48,27,1383.392,1383.392,1383.4065,,,,0,13,13,13,1,95,20,,,,,,,,
,,5aea8c59ae889e00018624c2,65af55ceca620457d06d58b8,2024-01-23_24h00.52.484,bars,2023.2.3,Win32,55.55555556,657b66ea316d21385b68909f,,,,,,,,,,,1383.407,1384.409,,,1384.909,1385.1589,,134,134,,,,,,,,,,,,,,,,bars/005.png,bars/mask006.png,,,,,,,,,,,,5,2,,,,,,,4,6,4,6,,,,,,,,,,,1384.4091,1384.9089,1385.1589,1386.9416,space,1.7677,,1386.9418,56,6,1387.9414,1387.9414,1387.9438,,,,0,14,14,14,1,10,140,,,,,,,,
,,5aea8c59ae889e00018624c2,65af55ceca620457d06d58b8,2024-01-23_24h00.52.484,bars,2023.2.3,Win32,55.55555556,657b66ea316d21385b68909f,,,,,,,,,,,1387.9444,1388.9403,,,1389.4411,1389.6906,,39,39,,,,,,,,,,,,,,,,bars/010.png,bars/mask006.png,,,,,,,,,,,,1,2,,,,,,,6,4,5,3,,,,,,,,,,,1388.9405,1389.4411,1389.6907,1391.3734,space,1.6675,,1391.3734,54,16,1392.3733,1392.3733,1392.3868,,,,0,15,15,15,1,165,55,,,,,,,,
,,5aea8c59ae889e00018624c2,65af55ceca620457d06d58b8,2024-01-23_24h00.52.484,bars,2023.2.3,Win32,55.55555556,657b66ea316d21385b68909f,,,,,,,,,,,1392.3873,1393.3897,,,1393.89,1394.14,,125,125,,,,,,,,,,,,,,,,bars/016.png,bars/mask003.png,,,,,,,,,,,,0,2,,,,,,,4,2,3,3,,,,,,,,,,,1393.3897,1393.89,1394.14,1396.0246,space,1.8743,,1396.0247,85,40,1397.0226,1397.0227,1397.0357,,,,0,16,16,16,1,40,165,,,,,,,,
,,5aea8c59ae889e00018624c2,65af55ceca620457d06d58b8,2024-01-23_24h00.52.484,bars,2023.2.3,Win32,55.55555556,657b66ea316d21385b68909f,,,,,,,,,,,1397.0364,1398.0392,,,1398.5411,1398.7879,,118,118,,,,,,,,,,,,,,,,bars/002.png,bars/mask002.png,,,,,,,,,,,,1,1,,,,,,,2,4,2,4,,,,,,,,,,,1398.0393,1398.541,1398.788,1403.6711,space,4.8668,,1403.6712,12,33,1404.6697,1404.6697,1404.6848,,,,0,17,17,17,1,130,85,,,,,,,,
,,5aea8c59ae889e00018624c2,65af55ceca620457d06d58b8,2024-01-23_24h00.52.484,bars,2023.2.3,Win32,55.55555556,657b66ea316d21385b68909f,,,,,,,,,,,1404.6854,1405.6864,,,1406.1869,1406.4362,,18,198,,,,,,,,,,,,,,,,bars/016.png,bars/mask004.png,,,,,,,,,,,,0,1,,,,,,,0,2,0,2,,,,,,,,,,,1405.6865,1406.1869,1406.4363,1409.3226,space,2.8738,,1409.3226,22,33,1410.3238,1410.324,1410.3387,,,,0,18,18,18,1,40,165,,,,,,,,
,,5aea8c59ae889e00018624c2,65af55ceca620457d06d58b8,2024-01-23_24h00.52.484,bars,2023.2.3,Win32,55.55555556,657b66ea316d21385b68909f,,,,,,,,,,,1410.3394,1411.3381,,,1411.8352,1412.0845,,65,65,,,,,,,,,,,,,,,,bars/011.png,bars/mask007.png,,,,,,,,,,,,1,2,,,,,,,0,4,0,4,,,,,,,,,,,1411.3381,1411.8352,1412.0846,1415.4265,space,3.3325,,1415.4266,85,20,1416.4174,1416.4175,1416.4337,,,,0,19,19,19,1,160,85,,,,,,,,
,,5aea8c59ae889e00018624c2,65af55ceca620457d06d58b8,2024-01-23_24h00.52.484,bars,2023.2.3,Win32,55.55555556,657b66ea316d21385b68909f,,,,,,,,,,,1416.4347,1417.4338,,,1417.9227,1418.1731,,48,48,,,,,,,,,,,,,,,,bars/047.png,bars/mask000.png,,,,,,,,,,,,1,2,,,,,,,2,2,1,3,,,,,,,,,,,1417.4338,1417.9227,1418.1732,1421.2765,space,3.0854,,1421.2765,33,22,1422.2659,1422.266,1422.2798,,,,0,20,20,20,1,15,70,,,,,,,,
,,5aea8c59ae889e00018624c2,65af55ceca620457d06d58b8,2024-01-23_24h00.52.484,bars,2023.2.3,Win32,55.55555556,657b66ea316d21385b68909f,,,,,,,,,,,1422.2802,1423.2686,,,1423.7716,1424.0214,,81,81,,,,,,,,,,,,,,,,bars/032.png,bars/mask007.png,,,,,,,,,,,,0,1,,,,,,,0,4,0,5,,,,,,,,,,,1423.2687,1423.7714,1424.0215,1426.4243,space,2.3853,,1426.4244,44,61,1427.4209,1427.4209,1427.4373,,,,0,21,21,21,1,125,20,,,,,,,,
,,5aea8c59ae889e00018624c2,65af55ceca620457d06d58b8,2024-01-23_24h00.52.484,bars,2023.2.3,Win32,55.55555556,657b66ea316d21385b68909f,,,,,,,,,,,1427.438,1428.4319,,,1428.9203,1429.1702,,109,109,,,,,,,,,,,,,,,,bars/001.png,bars/mask003.png,,,,,,,,,,,,1,1,,,,,,,2,2,2,2,,,,,,,,,,,1428.4321,1428.9203,1429.1702,1431.9706,space,2.7831,,1431.9706,21,24,1432.969,1432.969,1432.992,,,,0,22,22,22,1,130,85,,,,,,,,
,,5aea8c59ae889e00018624c2,65af55ceca620457d06d58b8,2024-01-23_24h00.52.484,bars,2023.2.3,Win32,55.55555556,657b66ea316d21385b68909f,,,,,,,,,,,1432.9932,1433.9984,,,1434.4966,1434.7462,,148,-32,,,,,,,,,,,,,,,,bars/021.png,bars/mask007.png,,,,,,,,,,,,0,1,,,,,,,0,4,0,2,,,,,,,,,,,1433.9984,1434.4965,1434.7462,1438.2114,space,3.4498,,1438.2115,7,78,1439.2124,1439.2124,1439.2247,,,,0,23,23,23,1,155,70,,,,,,,,
,,5aea8c59ae889e00018624c2,65af55ceca620457d06d58b8,2024-01-23_24h00.52.484,bars,2023.2.3,Win32,55.55555556,657b66ea316d21385b68909f,,,,,,,,,,,1439.2253,1440.2279,,,1440.7275,1440.9783,,49,49,,,,,,,,,,,,,,,,bars/014.png,bars/mask002.png,,,,,,,,,,,,0,1,,,,,,,2,2,2,1,,,,,,,,,,,1440.228,1440.7274,1440.9784,1444.0445,space,3.0517,,1444.0446,31,49,1445.043,1445.043,1445.0569,,,,0,24,24,24,1,80,0,,,,,,,,
,,5aea8c59ae889e00018624c2,65af55ceca620457d06d58b8,2024-01-23_24h00.52.484,bars,2023.2.3,Win32,55.55555556,657b66ea316d21385b68909f,,,,,,,,,,,1445.0575,1446.0592,,,1446.5595,1446.8093,,56,236,,,,,,,,,,,,,,,,bars/010.png,bars/mask001.png,,,,,,,,,,,,5,2,,,,,,,4,4,3,5,,,,,,,,,,,1446.0592,1446.5594,1446.8094,1450.775,space,3.9499,,1450.7751,71,1,1451.7753,1451.7753,1451.7908,,,,0,25,25,25,1,165,55,,,,,,,,
,,5aea8c59ae889e00018624c2,65af55ceca620457d06d58b8,2024-01-23_24h00.52.484,bars,2023.2.3,Win32,55.55555556,657b66ea316d21385b68909f,,,,,,,,,,,1451.7914,1452.7916,,,1453.2911,1453.5415,,148,148,,,,,,,,,,,,,,,,bars/036.png,bars/mask002.png,,,,,,,,,,,,5,1,,,,,,,6,2,6,3,,,,,,,,,,,1452.7916,1453.2911,1453.5416,1456.9743,space,3.4163,,1456.9743,3,52,1457.9732,1457.9733,1457.9883,,,,0,26,26,26,1,145,20,,,,,,,,
,,5aea8c59ae889e00018624c2,65af55ceca620457d06d58b8,2024-01-23_24h00.52.484,bars,2023.2.3,Win32,55.55555556,657b66ea316d21385b68909f,,,,,,,,,,,1457.9888,1458.9823,,,1459.4732,1459.7125,,31,31,,,,,,,,,,,,,,,,bars/035.png,bars/mask005.png,,,,,,,,,,,,0,2,,,,,,,8,4,7,4,,,,,,,,,,,1458.9823,1459.4731,1459.7125,1460.5499,space,0.8193,,1460.5501,36,29,1461.5396,1461.5397,1461.5445,,,,0,27,27,27,1,175,60,,,,,,,,
,,5aea8c59ae889e00018624c2,65af55ceca620457d06d58b8,2024-01-23_24h00.52.484,bars,2023.2.3,Win32,55.55555556,657b66ea316d21385b68909f,,,,,,,,,,,1461.545,1462.5386,,,1463.0388,1463.2885,,57,57,,,,,,,,,,,,,,,,bars/027.png,bars/mask008.png,,,,,,,,,,,,4,2,,,,,,,10,6,10,5,,,,,,,,,,,1462.5388,1463.0388,1463.2886,1465.8278,space,2.5283,,1465.8278,53,7,1466.8272,1466.8273,1466.8419,,,,0,28,28,28,1,110,50,,,,,,,,
,,5aea8c59ae889e00018624c2,65af55ceca620457d06d58b8,2024-01-23_24h00.52.484,bars,2023.2.3,Win32,55.55555556,657b66ea316d21385b68909f,,,,,,,,,,,1466.8423,1467.8394,,,1468.3435,1468.5927,,32,212,,,,,,,,,,,,,,,,bars/031.png,bars/mask000.png,,,,,,,,,,,,4,2,,,,,,,10,4,10,4,,,,,,,,,,,1467.8395,1468.3434,1468.5928,1471.3294,space,2.7168,,1471.3294,88,3,1472.3216,1472.3217,1472.3403,,,,0,29,29,29,1,120,35,,,,,,,,
,,5aea8c59ae889e00018624c2,65af55ceca620457d06d58b8,2024-01-23_24h00.52.484,bars,2023.2.3,Win32,55.55555556,657b66ea316d21385b68909f,,,,,,,,,,,1472.341,1473.3377,,,1473.837,1474.0869,,42,42,,,,,,,,,,,,,,,,bars/013.png,bars/mask008.png,,,,,,,,,,,,0,2,,,,,,,8,6,7,5,,,,,,,,,,,1473.3377,1473.8369,1474.0869,1477.1732,space,3.0723,,1477.1733,33,32,1478.1693,1478.1694,1478.1812,,,,0,30,30,30,1,75,10,,,,,,,,
,,5aea8c59ae889e00018624c2,65af55ceca620457d06d58b8,2024-01-23_24h00.52.484,bars,2023.2.3,Win32,55.55555556,657b66ea316d21385b68909f,,,,,,,,,,,1478.1818,1479.1696,,,1479.6689,1479.9187,,113,113,,,,,,,,,,,,,,,,bars/039.png,bars/mask001.png,,,,,,,,,,,,7,2,,,,,,,6,8,6,10,,,,,,,,,,,1479.1697,1479.6689,1479.9187,1482.9196,space,2.9848,,1482.9197,62,8,1483.9177,1483.9178,1483.9304,,,,0,31,31,31,1,175,105,,,,,,,,
,,5aea8c59ae889e00018624c2,65af55ceca620457d06d58b8,2024-01-23_24h00.52.484,bars,2023.2.3,Win32,55.55555556,657b66ea316d21385b68909f,,,,,,,,,,,1483.9309,1484.9345,,,1485.4337,1485.6849,,135,135,,,,,,,,,,,,,,,,bars/008.png,bars/mask002.png,,,,,,,,,,,,1,1,,,,,,,4,10,4,10,,,,,,,,,,,1484.9345,1485.4337,1485.6849,1488.9167,space,3.217,,1488.9168,25,45,1489.916,1489.916,1489.9301,,,,0,32,32,32,1,110,0,,,,,,,,
,,5aea8c59ae889e00018624c2,65af55ceca620457d06d58b8,2024-01-23_24h00.52.484,bars,2023.2.3,Win32,55.55555556,657b66ea316d21385b68909f,,,,,,,,,,,1489.9314,1490.9328,,,1491.4337,1491.6825,,117,-63,,,,,,,,,,,,,,,,bars/019.png,bars/mask007.png,,,,,,,,,,,,5,2,,,,,,,2,10,2,9,,,,,,,,,,,1490.9329,1491.4336,1491.6826,1495.1649,space,3.4673,,1495.165,72,12,1496.1646,1496.1646,1496.1785,,,,0,33,33,33,1,45,105,,,,,,,,
,,5aea8c59ae889e00018624c2,65af55ceca620457d06d58b8,2024-01-23_24h00.52.484,bars,2023.2.3,Win32,55.55555556,657b66ea316d21385b68909f,,,,,,,,,,,1496.179,1497.1808,,,1497.6808,1497.9317,,44,44,,,,,,,,,,,,,,,,bars/045.png,bars/mask005.png,,,,,,,,,,,,0,2,,,,,,,0,8,1,7,,,,,,,,,,,1497.1808,1497.6808,1497.9318,1501.8299,space,3.8833,,1501.83,56,34,1502.8294,1502.8295,1502.8414,,,,0,34,34,34,1,100,10,,,,,,,,
,,5aea8c59ae889e00018624c2,65af55ceca620457d06d58b8,2024-01-23_24h00.52.484,bars,2023.2.3,Win32,55.55555556,657b66ea316d21385b68909f,,,,,,,,,,,1502.8419,1503.8299,,,1504.3291,1504.5791,,46,46,,,,,,,,,,,,,,,,bars/035.png,bars/mask009.png,,,,,,,,,,,,5,2,,,,,,,0,10,0,9,,,,,,,,,,,1503.83,1504.329,1504.5792,1506.2456,space,1.651,,1506.2457,51,14,1507.2449,1507.2449,1507.2587,,,,0,35,35,35,1,175,60,,,,,,,,
,,5aea8c59ae889e00018624c2,65af55ceca620457d06d58b8,2024-01-23_24h00.52.484,bars,2023.2.3,Win32,55.55555556,657b66ea316d21385b68909f,,,,,,,,,,,1507.2591,1508.262,,,1508.7613,1509.0111,,144,144,,,,,,,,,,,,,,,,bars/033.png,bars/mask008.png,,,,,,,,,,,,4,2,,,,,,,2,8,4,7,,,,,,,,,,,1508.2621,1508.7611,1509.0111,1510.6637,space,1.6371,,1510.6637,61,11,1511.661,1511.6611,1511.6628,,,,0,36,36,36,1,25,155,,,,,,,,
,,5aea8c59ae889e00018624c2,65af55ceca620457d06d58b8,2024-01-23_24h00.52.484,bars,2023.2.3,Win32,55.55555556,657b66ea316d21385b68909f,,,,,,,,,,,1511.6635,1512.6602,,,1513.1608,1513.4108,,145,145,,,,,,,,,,,,,,,,bars/008.png,bars/mask009.png,,,,,,,,,,,,0,2,,,,,,,0,6,0,5,,,,,,,,,,,1512.6602,1513.1608,1513.4108,1515.899,space,2.4684,,1515.8991,35,35,1516.8925,1516.8926,1516.9046,,,,0,37,37,37,1,110,0,,,,,,,,
,,5aea8c59ae889e00018624c2,65af55ceca620457d06d58b8,2024-01-23_24h00.52.484,bars,2023.2.3,Win32,55.55555556,657b66ea316d21385b68909f,,,,,,,,,,,1516.9049,1517.9088,,,1518.4095,1518.6596,,50,50,,,,,,,,,,,,,,,,bars/001.png,bars/mask002.png,,,,,,,,,,,,0,2,,,,,,,2,8,2,8,,,,,,,,,,,1517.9089,1518.4094,1518.6596,1521.8929,space,3.2182,,1521.893,80,35,1522.8914,1522.8915,1522.9038,,,,0,38,38,38,1,130,85,,,,,,,,
,,5aea8c59ae889e00018624c2,65af55ceca620457d06d58b8,2024-01-23_24h00.52.484,bars,2023.2.3,Win32,55.55555556,657b66ea316d21385b68909f,,,,,,,,,,,1522.9042,1523.9082,,,1524.4077,1524.6573,,125,125,,,,,,,,,,,,,,,,bars/038.png,bars/mask003.png,,,,,,,,,,,,0,1,,,,,,,4,10,5,10,,,,,,,,,,,1523.9083,1524.4077,1524.6574,1526.5742,space,1.9016,,1526.5743,40,55,1527.5739,1527.5739,1527.5905,,,,0,39,39,39,1,165,70,,,,,,,,
,,5aea8c59ae889e00018624c2,65af55ceca620457d06d58b8,2024-01-23_24h00.52.484,bars,2023.2.3,Win32,55.55555556,657b66ea316d21385b68909f,,,,,,,,,,,1527.591,1528.5901,,,1529.0901,1529.3396,,171,-9,,,,,,,,,,,,,,,,bars/042.png,bars/mask008.png,,,,,,,,,,,,1,1,,,,,,,6,10,5,10,,,,,,,,,,,1528.5902,1529.0899,1529.3396,1532.2411,space,2.8933,,1532.2411,26,84,1533.2394,1533.2394,1533.271,,,,0,40,40,40,1,145,75,,,,,,,,
,,5aea8c59ae889e00018624c2,65af55ceca620457d06d58b8,2024-01-23_24h00.52.484,bars,2023.2.3,Win32,55.55555556,657b66ea316d21385b68909f,,,,,,,,,,,1533.2715,1534.2711,,,1534.7704,1535.0218,,108,108,,,,,,,,,,,,,,,,bars/002.png,bars/mask008.png,,,,,,,,,,,,2,1,,,,,,,8,8,8,6,,,,,,,,,,,1534.2711,1534.7703,1535.0218,1537.1644,space,2.1337,,1537.1645,22,23,1538.1558,1538.156,1538.1581,,,,0,41,41,41,1,130,85,,,,,,,,
,,5aea8c59ae889e00018624c2,65af55ceca620457d06d58b8,2024-01-23_24h00.52.484,bars,2023.2.3,Win32,55.55555556,657b66ea316d21385b68909f,,,,,,,,,,,1538.1587,1539.1588,,,1539.6614,1539.9091,,154,154,,,,,,,,,,,,,,,,bars/021.png,bars/mask001.png,,,,,,,,,,,,5,1,,,,,,,6,10,5,10,,,,,,,,,,,1539.1588,1539.6614,1539.9092,1542.1764,space,2.2506,,1542.1764,1,84,1543.1743,1543.1743,1543.1879,,,,0,42,42,42,1,155,70,,,,,,,,
,,5aea8c59ae889e00018624c2,65af55ceca620457d06d58b8,2024-01-23_24h00.52.484,bars,2023.2.3,Win32,55.55555556,657b66ea316d21385b68909f,,,,,,,,,,,1543.1884,1544.1878,,,1544.6916,1544.9411,,49,229,,,,,,,,,,,,,,,,bars/019.png,bars/mask005.png,,,,,,,,,,,,8,1,,,,,,,8,10,9,10,,,,,,,,,,,1544.1878,1544.6915,1544.9412,1548.494,space,3.5356,,1548.4941,4,56,1549.4895,1549.4895,1549.5114,,,,0,43,43,43,1,45,105,,,,,,,,
,,5aea8c59ae889e00018624c2,65af55ceca620457d06d58b8,2024-01-23_24h00.52.484,bars,2023.2.3,Win32,55.55555556,657b66ea316d21385b68909f,,,,,,,,,,,1549.5121,1550.5,,,1550.9998,1551.2493,,140,140,,,,,,,,,,,,,,,,bars/033.png,bars/mask001.png,,,,,,,,,,,,5,2,,,,,,,10,10,10,10,,,,,,,,,,,1550.5,1550.9997,1551.2493,1553.3169,space,2.0524,,1553.317,65,15,1554.3153,1554.3153,1554.32,,,,0,44,44,44,1,25,155,,,,,,,,
,,5aea8c59ae889e00018624c2,65af55ceca620457d06d58b8,2024-01-23_24h00.52.484,bars,2023.2.3,Win32,55.55555556,657b66ea316d21385b68909f,,,,,,,,,,,1554.3205,1555.3149,,,1555.8156,1556.0653,,146,146,,,,,,,,,,,,,,,,bars/023.png,bars/mask003.png,,,,,,,,,,,,0,2,,,,,,,10,8,10,8,,,,,,,,,,,1555.3149,1555.8155,1556.0653,1558.3324,space,2.2513,,1558.3326,54,31,1559.3307,1559.3307,1559.3433,,,,0,45,45,45,1,20,115,,,,,,,,
,,5aea8c59ae889e00018624c2,65af55ceca620457d06d58b8,2024-01-23_24h00.52.484,bars,2023.2.3,Win32,55.55555556,657b66ea316d21385b68909f,,,,,,,,,,,1559.3439,1560.3471,,,1560.8478,1561.0972,,15,15,,,,,,,,,,,,,,,,bars/010.png,bars/mask001.png,,,,,,,,,,,,0,1,,,,,,,10,10,10,10,,,,,,,,,,,1560.3472,1560.8477,1561.0973,1561.9514,space,0.8367,,1561.9514,30,40,1562.9466,1562.9468,1562.9513,,,,0,46,46,46,1,165,55,,,,,,,,
,,5aea8c59ae889e00018624c2,65af55ceca620457d06d58b8,2024-01-23_24h00.52.484,bars,2023.2.3,Win32,55.55555556,657b66ea316d21385b68909f,,,,,,,,,,,1562.952,1563.946,,,1564.446,1564.6965,,56,56,,,,,,,,,,,,,,,,bars/029.png,bars/mask009.png,,,,,,,,,,,,6,2,,,,,,,10,10,10,10,,,,,,,,,,,1563.946,1564.446,1564.6966,1566.8963,space,2.1836,,1566.8963,34,11,1567.8961,1567.8962,1567.9128,,,,0,47,47,47,1,90,45,,,,,,,,
,,5aea8c59ae889e00018624c2,65af55ceca620457d06d58b8,2024-01-23_24h00.52.484,bars,2023.2.3,Win32,55.55555556,657b66ea316d21385b68909f,,,,,,,,,,,1567.9133,1568.9115,,,1569.4121,1569.6621,,40,40,,,,,,,,,,,,,,,,bars/029.png,bars/mask004.png,,,,,,,,,,,,8,2,,,,,,,10,10,10,10,,,,,,,,,,,1568.9115,1569.412,1569.6622,1572.0542,space,2.3723,,1572.0548,50,5,1573.0535,1573.0535,1573.0674,,,,0,48,48,48,1,90,45,,,,,,,,
,,5aea8c59ae889e00018624c2,65af55ceca620457d06d58b8,2024-01-23_24h00.52.484,bars,2023.2.3,Win32,55.55555556,657b66ea316d21385b68909f,,,,,,,,,,,1573.068,1574.0669,,,1574.5664,1574.8163,,45,225,,,,,,,,,,,,,,,,bars/030.png,bars/mask009.png,,,,,,,,,,,,2,2,,,,,,,8,8,6,6,,,,,,,,,,,1574.0669,1574.5664,1574.8164,1636.6372,space,61.796,,1636.6373,85,20,1637.6292,1637.6293,1637.6459,,,,0,49,49,49,1,140,65,,,,,,,,
,,5aea8c59ae889e00018624c2,65af55ceca620457d06d58b8,2024-01-23_24h00.52.484,bars,2023.2.3,Win32,55.55555556,657b66ea316d21385b68909f,,,,,,,,,,,,,,,,,,,,,,,,,,,,,,,,,,,,,,,,,,,,,,,,,,,,,,,,,,,,,,,,,,,,,,,,,,,,,,,,,,,,,,,,,,,,,1637.6465,1697.6353,0,2,2,4,1,sequence_tables/blk041.csv
,,5aea8c59ae889e00018624c2,65af55ceca620457d06d58b8,2024-01-23_24h00.52.484,bars,2023.2.3,Win32,55.55555556,657b66ea316d21385b68909f,,,,,,,,,,,1739.1229,1740.1112,,,1740.6081,1740.8579,,114,114,,,,,,,,,,,,,,,,bars/025.png,bars/mask008.png,,,,,,,,,,,,4,1,,,,,,,5,7,6,8,,,,,,1697.6647,1739.0979,space,41.4217,,1740.1113,1740.608,1740.8579,1742.4126,space,1.5368,,1742.4127,9,74,1743.4014,1743.4014,1743.4158,,,,0,0,0,0,1,105,40,,,,,,,,
,,5aea8c59ae889e00018624c2,65af55ceca620457d06d58b8,2024-01-23_24h00.52.484,bars,2023.2.3,Win32,55.55555556,657b66ea316d21385b68909f,,,,,,,,,,,1743.4178,1744.4185,,,1744.9189,1745.1692,,50,50,,,,,,,,,,,,,,,,bars/007.png,bars/mask000.png,,,,,,,,,,,,7,2,,,,,,,7,9,5,8,,,,,,,,,,,1744.4186,1744.9188,1745.1692,1748.2166,space,3.0313,,1748.2167,55,5,1749.2156,1749.2157,1749.2303,,,,0,1,1,1,1,175,55,,,,,,,,
,,5aea8c59ae889e00018624c2,65af55ceca620457d06d58b8,2024-01-23_24h00.52.484,bars,2023.2.3,Win32,55.55555556,657b66ea316d21385b68909f,,,,,,,,,,,1749.2307,1750.2321,,,1750.732,1750.9823,,28,208,,,,,,,,,,,,,,,,bars/010.png,bars/mask001.png,,,,,,,,,,,,1,2,,,,,,,5,10,4,10,,,,,,,,,,,1750.2321,1750.7318,1750.9824,1755.1817,space,4.1908,,1755.1818,43,27,1756.1805,1756.1806,1756.1934,,,,0,2,2,2,1,165,55,,,,,,,,
,,5aea8c59ae889e00018624c2,65af55ceca620457d06d58b8,2024-01-23_24h00.52.484,bars,2023.2.3,Win32,55.55555556,657b66ea316d21385b68909f,,,,,,,,,,,1756.1939,1757.1864,,,1757.6867,1757.936,,22,202,,,,,,,,,,,,,,,,bars/019.png,bars/mask006.png,,,,,,,,,,,,0,1,,,,,,,3,10,2,9,,,,,,,,,,,1757.1864,1757.6866,1757.936,1761.4704,space,3.5156,,1761.4705,23,83,1762.4677,1762.4677,1762.4841,,,,0,3,3,3,1,45,105,,,,,,,,
,,5aea8c59ae889e00018624c2,65af55ceca620457d06d58b8,2024-01-23_24h00.52.484,bars,2023.2.3,Win32,55.55555556,657b66ea316d21385b68909f,,,,,,,,,,,1762.4845,1763.4877,,,1763.9851,1764.2346,,142,-38,,,,,,,,,,,,,,,,bars/039.png,bars/mask007.png,,,,,,,,,,,,0,1,,,,,,,1,10,0,10,,,,,,,,,,,1763.4877,1763.985,1764.2347,1766.7889,space,2.5355,,1766.789,33,37,1767.7845,1767.7845,1767.8071,,,,0,4,4,4,1,175,105,,,,,,,,
,,5aea8c59ae889e00018624c2,65af55ceca620457d06d58b8,2024-01-23_24h00.52.484,bars,2023.2.3,Win32,55.55555556,657b66ea316d21385b68909f,,,,,,,,,,,1767.8076,1768.8112,,,1769.3106,1769.5603,,114,114,,,,,,,,,,,,,,,,bars/049.png,bars/mask004.png,,,,,,,,,,,,10,2,,,,,,,0,10,1,10,,,,,,,,,,,1768.8113,1769.3106,1769.5604,1772.9113,space,3.3412,,1772.9114,46,1,1773.9097,1773.9098,1773.9267,,,,0,5,5,5,1,160,115,,,,,,,,
,,5aea8c59ae889e00018624c2,65af55ceca620457d06d58b8,2024-01-23_24h00.52.484,bars,2023.2.3,Win32,55.55555556,657b66ea316d21385b68909f,,,,,,,,,,,1773.9271,1774.9265,,,1775.4434,1775.6919,,3,3,,,,,,,,,,,,,,,,bars/032.png,bars/mask009.png,,,,,,,,,,,,4,2,,,,,,,2,8,1,10,,,,,,,,,,,1774.9265,1775.4433,1775.692,1776.7092,space,1.0019,,1776.7093,58,17,1777.7083,1777.7083,1777.7105,,,,0,6,6,6,1,125,20,,,,,,,,
,,5aea8c59ae889e00018624c2,65af55ceca620457d06d58b8,2024-01-23_24h00.52.484,bars,2023.2.3,Win32,55.55555556,657b66ea316d21385b68909f,,,,,,,,,,,1777.7112,1778.7085,,,1779.2078,1779.4576,,29,29,,,,,,,,,,,,,,,,bars/036.png,bars/mask004.png,,,,,,,,,,,,4,2,,,,,,,0,6,0,5,,,,,,,,,,,1778.7085,1779.2077,1779.4576,1780.1754,space,0.7012,,1780.1756,64,9,1781.1742,1781.1742,1781.1764,,,,0,7,7,7,1,145,20,,,,,,,,
,,5aea8c59ae889e00018624c2,65af55ceca620457d06d58b8,2024-01-23_24h00.52.484,bars,2023.2.3,Win32,55.55555556,657b66ea316d21385b68909f,,,,,,,,,,,1781.177,1782.174,,,1782.6738,1782.9238,,169,-11,,,,,,,,,,,,,,,,bars/016.png,bars/mask009.png,,,,,,,,,,,,6,2,,,,,,,0,8,1,7,,,,,,,,,,,1782.174,1782.6737,1782.9239,1785.828,space,2.8898,,1785.8282,51,4,1786.8228,1786.8229,1786.8356,,,,0,8,8,8,1,40,165,,,,,,,,
,,5aea8c59ae889e00018624c2,65af55ceca620457d06d58b8,2024-01-23_24h00.52.484,bars,2023.2.3,Win32,55.55555556,657b66ea316d21385b68909f,,,,,,,,,,,1786.8369,1787.8395,,,1788.3388,1788.5887,,15,195,,,,,,,,,,,,,,,,bars/045.png,bars/mask003.png,,,,,,,,,,,,4,2,,,,,,,0,6,0,5,,,,,,,,,,,1787.8396,1788.3387,1788.5888,1793.4085,space,4.8042,,1793.4086,85,5,1794.4047,1794.4047,1794.4179,,,,0,9,9,9,1,100,10,,,,,,,,
,,5aea8c59ae889e00018624c2,65af55ceca620457d06d58b8,2024-01-23_24h00.52.484,bars,2023.2.3,Win32,55.55555556,657b66ea316d21385b68909f,,,,,,,,,,,1794.4184,1795.421,,,1795.9225,1796.1701,,125,125,,,,,,,,,,,,,,,,bars/003.png,bars/mask009.png,,,,,,,,,,,,4,2,,,,,,,0,8,1,8,,,,,,,,,,,1795.421,1795.9224,1796.1701,1797.0873,space,0.9014,,1797.0874,80,15,1798.087,1798.087,1798.0892,,,,0,10,10,10,1,25,140,,,,,,,,
,,5aea8c59ae889e00018624c2,65af55ceca620457d06d58b8,2024-01-23_24h00.52.484,bars,2023.2.3,Win32,55.55555556,657b66ea316d21385b68909f,,,,,,,,,,,1798.0901,1799.0867,,,1799.5859,1799.8358,,25,205,,,,,,,,,,,,,,,,bars/013.png,bars/mask009.png,,,,,,,,,,,,5,2,,,,,,,0,10,0,10,,,,,,,,,,,1799.0869,1799.5859,1799.8358,1802.9088,space,3.0567,,1802.9088,50,15,1803.9015,1803.9016,1803.9149,,,,0,11,11,11,1,75,10,,,,,,,,
,,5aea8c59ae889e00018624c2,65af55ceca620457d06d58b8,2024-01-23_24h00.52.484,bars,2023.2.3,Win32,55.55555556,657b66ea316d21385b68909f,,,,,,,,,,,1803.9154,1804.9179,,,1805.4179,1805.6679,,135,135,,,,,,,,,,,,,,,,bars/023.png,bars/mask005.png,,,,,,,,,,,,3,2,,,,,,,0,8,0,8,,,,,,,,,,,1804.9179,1805.4179,1805.668,1807.5406,space,1.8591,,1807.5407,65,20,1808.5338,1808.5339,1808.5361,,,,0,12,12,12,1,20,115,,,,,,,,
,,5aea8c59ae889e00018624c2,65af55ceca620457d06d58b8,2024-01-23_24h00.52.484,bars,2023.2.3,Win32,55.55555556,657b66ea316d21385b68909f,,,,,,,,,,,1808.537,1809.5336,,,1810.0332,1810.2841,,123,123,,,,,,,,,,,,,,,,bars/023.png,bars/mask009.png,,,,,,,,,,,,4,2,,,,,,,2,6,2,5,,,,,,,,,,,1809.5336,1810.0332,1810.2841,1812.5558,space,2.2587,,1812.5559,77,8,1813.5492,1813.5493,1813.5619,,,,0,13,13,13,1,20,115,,,,,,,,
,,5aea8c59ae889e00018624c2,65af55ceca620457d06d58b8,2024-01-23_24h00.52.484,bars,2023.2.3,Win32,55.55555556,657b66ea316d21385b68909f,,,,,,,,,,,1813.5623,1814.5494,,,1815.0487,1815.2988,,47,47,,,,,,,,,,,,,,,,bars/036.png,bars/mask009.png,,,,,,,,,,,,1,2,,,,,,,0,8,1,8,,,,,,,,,,,1814.5495,1815.0486,1815.2989,1817.9525,space,2.6442,,1817.9526,82,27,1818.9478,1818.9479,1818.9607,,,,0,14,14,14,1,145,20,,,,,,,,
,,5aea8c59ae889e00018624c2,65af55ceca620457d06d58b8,2024-01-23_24h00.52.484,bars,2023.2.3,Win32,55.55555556,657b66ea316d21385b68909f,,,,,,,,,,,1818.9612,1819.9649,,,1820.4648,1820.7142,,33,213,,,,,,,,,,,,,,,,bars/013.png,bars/mask002.png,,,,,,,,,,,,2,2,,,,,,,2,10,0,10,,,,,,,,,,,1819.965,1820.4647,1820.7142,1824.2806,space,3.5552,,1824.2807,42,23,1825.2792,1825.2793,1825.2922,,,,0,15,15,15,1,75,10,,,,,,,,
,,5aea8c59ae889e00018624c2,65af55ceca620457d06d58b8,2024-01-23_24h00.52.484,bars,2023.2.3,Win32,55.55555556,657b66ea316d21385b68909f,,,,,,,,,,,1825.2927,1826.2962,,,1826.7966,1827.0466,,25,25,,,,,,,,,,,,,,,,bars/012.png,bars/mask004.png,,,,,,,,,,,,7,2,,,,,,,4,10,2,10,,,,,,,,,,,1826.2963,1826.7966,1827.0467,1828.6963,space,1.633,,1828.6964,65,10,1829.6959,1829.696,1829.7103,,,,0,16,16,16,1,90,15,,,,,,,,
,,5aea8c59ae889e00018624c2,65af55ceca620457d06d58b8,2024-01-23_24h00.52.484,bars,2023.2.3,Win32,55.55555556,657b66ea316d21385b68909f,,,,,,,,,,,1829.712,1830.7113,,,1831.1998,1831.4463,,140,-40,,,,,,,,,,,,,,,,bars/037.png,bars/mask001.png,,,,,,,,,,,,1,1,,,,,,,2,8,2,9,,,,,,,,,,,1830.7114,1831.1998,1831.4463,1834.5612,space,3.0986,,1834.5612,10,35,1835.5605,1835.5605,1835.5755,,,,0,17,17,17,1,150,105,,,,,,,,
,,5aea8c59ae889e00018624c2,65af55ceca620457d06d58b8,2024-01-23_24h00.52.484,bars,2023.2.3,Win32,55.55555556,657b66ea316d21385b68909f,,,,,,,,,,,1835.5765,1836.5768,,,1837.0774,1837.3273,,114,114,,,,,,,,,,,,,,,,bars/037.png,bars/mask004.png,,,,,,,,,,,,5,2,,,,,,,0,6,0,7,,,,,,,,,,,1836.5768,1837.0773,1837.3273,1841.8765,space,4.5343,,1841.8766,36,9,1842.8758,1842.8759,1842.8917,,,,0,18,18,18,1,150,105,,,,,,,,
,,5aea8c59ae889e00018624c2,65af55ceca620457d06d58b8,2024-01-23_24h00.52.484,bars,2023.2.3,Win32,55.55555556,657b66ea316d21385b68909f,,,,,,,,,,,1842.8925,1843.8923,,,1844.3919,1844.642,,71,71,,,,,,,,,,,,,,,,bars/046.png,bars/mask009.png,,,,,,,,,,,,2,2,,,,,,,0,4,2,3,,,,,,,,,,,1843.8923,1844.3919,1844.642,1847.841,space,3.1847,,1847.8411,84,14,1848.8405,1848.8405,1848.8533,,,,0,19,19,19,1,155,85,,,,,,,,
,,5aea8c59ae889e00018624c2,65af55ceca620457d06d58b8,2024-01-23_24h00.52.484,bars,2023.2.3,Win32,55.55555556,657b66ea316d21385b68909f,,,,,,,,,,,1848.8538,1849.8574,,,1850.357,1850.6066,,103,103,,,,,,,,,,,,,,,,bars/019.png,bars/mask005.png,,,,,,,,,,,,1,2,,,,,,,2,2,1,1,,,,,,,,,,,1849.8575,1850.357,1850.6067,1851.4571,space,0.8352,,1851.4572,58,2,1852.4566,1852.4567,1852.459,,,,0,20,20,20,1,45,105,,,,,,,,
,,5aea8c59ae889e00018624c2,65af55ceca620457d06d58b8,2024-01-23_24h00.52.484,bars,2023.2.3,Win32,55.55555556,657b66ea316d21385b68909f,,,,,,,,,,,1852.4598,1853.4565,,,1853.9558,1854.2057,,40,40,,,,,,,,,,,,,,,,bars/027.png,bars/mask006.png,,,,,,,,,,,,0,2,,,,,,,4,0,4,0,,,,,,,,,,,1853.4566,1853.9557,1854.2057,1856.2051,space,1.9841,,1856.2052,70,10,1857.2053,1857.2054,1857.2073,,,,0,21,21,21,1,110,50,,,,,,,,
,,5aea8c59ae889e00018624c2,65af55ceca620457d06d58b8,2024-01-23_24h00.52.484,bars,2023.2.3,Win32,55.55555556,657b66ea316d21385b68909f,,,,,,,,,,,1857.208,1858.2046,,,1858.7046,1858.9553,,15,15,,,,,,,,,,,,,,,,bars/035.png,bars/mask009.png,,,,,,,,,,,,1,1,,,,,,,2,0,3,0,,,,,,,,,,,1858.2046,1858.7046,1858.9554,1861.4872,space,2.5161,,1861.4872,20,45,1862.487,1862.487,1862.5027,,,,0,22,22,22,1,175,60,,,,,,,,
,,5aea8c59ae889e00018624c2,65af55ceca620457d06d58b8,2024-01-23_24h00.52.484,bars,2023.2.3,Win32,55.55555556,657b66ea316d21385b68909f,,,,,,,,,,,1862.5033,1863.5033,,,1864.0039,1864.2539,,115,115,,,,,,,,,,,,,,,,bars/013.png,bars/mask008.png,,,,,,,,,,,,0,1,,,,,,,0,0,1,0,,,,,,,,,,,1863.5033,1864.0038,1864.2539,1868.6889,space,4.424,,1868.6889,40,75,1869.685,1869.6851,1869.6976,,,,0,23,23,23,1,75,10,,,,,,,,
,,5aea8c59ae889e00018624c2,65af55ceca620457d06d58b8,2024-01-23_24h00.52.484,bars,2023.2.3,Win32,55.55555556,657b66ea316d21385b68909f,,,,,,,,,,,1869.698,1870.7014,,,1871.2014,1871.4509,,63,63,,,,,,,,,,,,,,,,bars/026.png,bars/mask009.png,,,,,,,,,,,,0,2,,,,,,,2,2,2,1,,,,,,,,,,,1870.7017,1871.2013,1871.4509,1872.1895,space,0.7209,,1872.1896,28,22,1873.1847,1873.1847,1873.1896,,,,0,24,24,24,1,35,85,,,,,,,,
,,5aea8c59ae889e00018624c2,65af55ceca620457d06d58b8,2024-01-23_24h00.52.484,bars,2023.2.3,Win32,55.55555556,657b66ea316d21385b68909f,,,,,,,,,,,1873.1903,1874.1837,,,1874.6834,1874.9346,,117,117,,,,,,,,,,,,,,,,bars/006.png,bars/mask000.png,,,,,,,,,,,,0,2,,,,,,,0,0,0,0,,,,,,,,,,,1874.1837,1874.6834,1874.9346,1876.8187,space,1.8706,,1876.8188,82,17,1877.816,1877.816,1877.833,,,,0,25,25,25,1,35,100,,,,,,,,
,,5aea8c59ae889e00018624c2,65af55ceca620457d06d58b8,2024-01-23_24h00.52.484,bars,2023.2.3,Win32,55.55555556,657b66ea316d21385b68909f,,,,,,,,,,,1877.8335,1878.8325,,,1879.3323,1879.583,,97,97,,,,,,,,,,,,,,,,bars/018.png,bars/mask002.png,,,,,,,,,,,,0,2,,,,,,,0,0,0,0,,,,,,,,,,,1878.8326,1879.3322,1879.5831,1880.4156,space,0.8175,,1880.4156,53,7,1881.4154,1881.4154,1881.4177,,,,0,26,26,26,1,150,90,,,,,,,,
,,5aea8c59ae889e00018624c2,65af55ceca620457d06d58b8,2024-01-23_24h00.52.484,bars,2023.2.3,Win32,55.55555556,657b66ea316d21385b68909f,,,,,,,,,,,1881.4186,1882.4156,,,1882.9153,1883.1646,,34,34,,,,,,,,,,,,,,,,bars/009.png,bars/mask006.png,,,,,,,,,,,,1,1,,,,,,,2,0,2,1,,,,,,,,,,,1882.4156,1882.9152,1883.1646,1885.0017,space,1.8177,,1885.0017,19,71,1886.0027,1886.0028,1886.0187,,,,0,27,27,27,1,15,105,,,,,,,,
,,5aea8c59ae889e00018624c2,65af55ceca620457d06d58b8,2024-01-23_24h00.52.484,bars,2023.2.3,Win32,55.55555556,657b66ea316d21385b68909f,,,,,,,,,,,1886.0192,1887.0191,,,1887.5153,1887.765,,32,32,,,,,,,,,,,,,,,,bars/016.png,bars/mask006.png,,,,,,,,,,,,1,1,,,,,,,0,2,2,2,,,,,,,,,,,1887.0192,1887.5153,1887.765,1889.4237,space,1.6365,,1889.4237,8,47,1890.4185,1890.4186,1890.4206,,,,0,28,28,28,1,40,165,,,,,,,,
,,5aea8c59ae889e00018624c2,65af55ceca620457d06d58b8,2024-01-23_24h00.52.484,bars,2023.2.3,Win32,55.55555556,657b66ea316d21385b68909f,,,,,,,,,,,1890.4211,1891.419,,,1891.9193,1892.1696,,142,142,,,,,,,,,,,,,,,,bars/039.png,bars/mask007.png,,,,,,,,,,,,0,1,,,,,,,2,0,1,0,,,,,,,,,,,1891.4191,1891.9191,1892.1696,1894.4731,space,2.2861,,1894.4732,33,37,1895.4628,1895.4629,1895.4644,,,,0,29,29,29,1,175,105,,,,,,,,
,,5aea8c59ae889e00018624c2,65af55ceca620457d06d58b8,2024-01-23_24h00.52.484,bars,2023.2.3,Win32,55.55555556,657b66ea316d21385b68909f,,,,,,,,,,,1895.4655,1896.4626,,,1896.9505,1897.1956,,132,132,,,,,,,,,,,,,,,,bars/024.png,bars/mask006.png,,,,,,,,,,,,1,1,,,,,,,0,2,1,3,,,,,,,,,,,1896.4627,1896.9505,1897.1956,1899.3107,space,2.1008,,1899.3107,12,38,1900.3103,1900.3103,1900.323,,,,0,30,30,30,1,120,170,,,,,,,,
,,5aea8c59ae889e00018624c2,65af55ceca620457d06d58b8,2024-01-23_24h00.52.484,bars,2023.2.3,Win32,55.55555556,657b66ea316d21385b68909f,,,,,,,,,,,1900.3234,1901.3274,,,1901.8269,1902.0772,,39,219,,,,,,,,,,,,,,,,bars/035.png,bars/mask000.png,,,,,,,,,,,,0,2,,,,,,,0,0,0,1,,,,,,,,,,,1901.3275,1901.8268,1902.0772,1905.2135,space,3.1199,,1905.2136,44,21,1906.2089,1906.2089,1906.2241,,,,0,31,31,31,1,175,60,,,,,,,,
,,5aea8c59ae889e00018624c2,65af55ceca620457d06d58b8,2024-01-23_24h00.52.484,bars,2023.2.3,Win32,55.55555556,657b66ea316d21385b68909f,,,,,,,,,,,1906.2251,1907.2259,,,1907.7254,1907.9751,,120,120,,,,,,,,,,,,,,,,bars/012.png,bars/mask005.png,,,,,,,,,,,,0,1,,,,,,,2,2,2,2,,,,,,,,,,,1907.2259,1907.7253,1907.9752,1910.5783,space,2.5896,,1910.5785,30,75,1911.5742,1911.5742,1911.5788,,,,0,32,32,32,1,90,15,,,,,,,,
,,5aea8c59ae889e00018624c2,65af55ceca620457d06d58b8,2024-01-23_24h00.52.484,bars,2023.2.3,Win32,55.55555556,657b66ea316d21385b68909f,,,,,,,,,,,1911.5797,1912.5741,,,1913.0746,1913.3244,,147,-33,,,,,,,,,,,,,,,,bars/004.png,bars/mask003.png,,,,,,,,,,,,2,2,,,,,,,4,4,4,6,,,,,,,,,,,1912.5741,1913.0745,1913.3245,1917.4325,space,4.0989,,1917.4326,58,22,1918.4224,1918.4224,1918.4379,,,,0,33,33,33,1,25,125,,,,,,,,
,,5aea8c59ae889e00018624c2,65af55ceca620457d06d58b8,2024-01-23_24h00.52.484,bars,2023.2.3,Win32,55.55555556,657b66ea316d21385b68909f,,,,,,,,,,,1918.4387,1919.4389,,,1919.9396,1920.1892,,126,126,,,,,,,,,,,,,,,,bars/025.png,bars/mask006.png,,,,,,,,,,,,2,1,,,,,,,6,2,7,2,,,,,,,,,,,1919.439,1919.9395,1920.1892,1922.8248,space,2.6258,,1922.8248,21,86,1923.8211,1923.8211,1923.836,,,,0,34,34,34,1,105,40,,,,,,,,
,,5aea8c59ae889e00018624c2,65af55ceca620457d06d58b8,2024-01-23_24h00.52.484,bars,2023.2.3,Win32,55.55555556,657b66ea316d21385b68909f,,,,,,,,,,,1923.8364,1924.8283,,,1925.327,1925.5772,,2,2,,,,,,,,,,,,,,,,bars/035.png,bars/mask002.png,,,,,,,,,,,,3,1,,,,,,,4,4,4,4,,,,,,,,,,,1924.8283,1925.327,1925.5773,1926.4984,space,0.9028,,1926.4984,7,58,1927.4879,1927.4881,1927.4897,,,,0,35,35,35,1,175,60,,,,,,,,
,,5aea8c59ae889e00018624c2,65af55ceca620457d06d58b8,2024-01-23_24h00.52.484,bars,2023.2.3,Win32,55.55555556,657b66ea316d21385b68909f,,,,,,,,,,,1927.4903,1928.4879,,,1928.9885,1929.2385,,59,59,,,,,,,,,,,,,,,,bars/012.png,bars/mask009.png,,,,,,,,,,,,0,1,,,,,,,2,6,3,5,,,,,,,,,,,1928.488,1928.9885,1929.2386,1933.2033,space,3.9487,,1933.2034,31,44,1934.2029,1934.203,1934.2154,,,,0,36,36,36,1,90,15,,,,,,,,
,,5aea8c59ae889e00018624c2,65af55ceca620457d06d58b8,2024-01-23_24h00.52.484,bars,2023.2.3,Win32,55.55555556,657b66ea316d21385b68909f,,,,,,,,,,,1934.2158,1935.2034,,,1935.7026,1935.9527,,39,39,,,,,,,,,,,,,,,,bars/026.png,bars/mask000.png,,,,,,,,,,,,3,1,,,,,,,4,8,4,7,,,,,,,,,,,1935.2035,1935.7026,1935.9527,1937.4908,space,1.5285,,1937.4908,4,46,1938.4852,1938.4853,1938.4868,,,,0,37,37,37,1,35,85,,,,,,,,
,,5aea8c59ae889e00018624c2,65af55ceca620457d06d58b8,2024-01-23_24h00.52.484,bars,2023.2.3,Win32,55.55555556,657b66ea316d21385b68909f,,,,,,,,,,,1938.4874,1939.4856,,,1939.9849,1940.2348,,6,6,,,,,,,,,,,,,,,,bars/033.png,bars/mask006.png,,,,,,,,,,,,3,1,,,,,,,6,10,7,10,,,,,,,,,,,1939.4856,1939.9848,1940.2349,1941.6513,space,1.4013,,1941.6514,19,31,1942.6514,1942.6515,1942.6532,,,,0,38,38,38,1,25,155,,,,,,,,
,,5aea8c59ae889e00018624c2,65af55ceca620457d06d58b8,2024-01-23_24h00.52.484,bars,2023.2.3,Win32,55.55555556,657b66ea316d21385b68909f,,,,,,,,,,,1942.6537,1943.6513,,,1944.1533,1944.4005,,123,123,,,,,,,,,,,,,,,,bars/015.png,bars/mask005.png,,,,,,,,,,,,5,1,,,,,,,8,8,8,8,,,,,,,,,,,1943.6513,1944.1533,1944.4006,1947.2832,space,2.8674,,1947.2832,13,37,1948.2829,1948.283,1948.2951,,,,0,39,39,39,1,110,160,,,,,,,,
,,5aea8c59ae889e00018624c2,65af55ceca620457d06d58b8,2024-01-23_24h00.52.484,bars,2023.2.3,Win32,55.55555556,657b66ea316d21385b68909f,,,,,,,,,,,1948.2957,1949.2832,,,1949.7825,1950.0342,,149,-31,,,,,,,,,,,,,,,,bars/023.png,bars/mask006.png,,,,,,,,,,,,0,2,,,,,,,10,6,10,5,,,,,,,,,,,1949.2833,1949.7824,1950.0342,1954.632,space,4.5822,,1954.6321,51,34,1955.6307,1955.6308,1955.6449,,,,0,40,40,40,1,20,115,,,,,,,,
,,5aea8c59ae889e00018624c2,65af55ceca620457d06d58b8,2024-01-23_24h00.52.484,bars,2023.2.3,Win32,55.55555556,657b66ea316d21385b68909f,,,,,,,,,,,1955.6477,1956.6481,,,1957.1477,1957.3993,,15,15,,,,,,,,,,,,,,,,bars/005.png,bars/mask003.png,,,,,,,,,,,,6,1,,,,,,,8,8,7,7,,,,,,,,,,,1956.6481,1957.1477,1957.3993,1960.0326,space,2.624,,1960.0327,5,55,1961.0281,1961.0282,1961.0431,,,,0,41,41,41,1,10,140,,,,,,,,
,,5aea8c59ae889e00018624c2,65af55ceca620457d06d58b8,2024-01-23_24h00.52.484,bars,2023.2.3,Win32,55.55555556,657b66ea316d21385b68909f,,,,,,,,,,,1961.0435,1962.0449,,,1962.5452,1962.7954,,39,39,,,,,,,,,,,,,,,,bars/016.png,bars/mask002.png,,,,,,,,,,,,10,1,,,,,,,10,10,10,10,,,,,,,,,,,1962.045,1962.5451,1962.7955,2153.5666,space,190.7541,,2153.567,1,54,2154.5634,2154.5635,2154.5776,,,,0,42,42,42,1,40,165,,,,,,,,
,,5aea8c59ae889e00018624c2,65af55ceca620457d06d58b8,2024-01-23_24h00.52.484,bars,2023.2.3,Win32,55.55555556,657b66ea316d21385b68909f,,,,,,,,,,,2154.5801,2155.5804,,,2156.0799,2156.3297,,117,117,,,,,,,,,,,,,,,,bars/008.png,bars/mask005.png,,,,,,,,,,,,7,1,,,,,,,10,10,9,10,,,,,,,,,,,2155.5806,2156.0798,2156.3297,2159.1127,space,2.7667,,2159.1128,7,63,2160.1121,2160.1122,2160.1241,,,,0,43,43,43,1,110,0,,,,,,,,
,,5aea8c59ae889e00018624c2,65af55ceca620457d06d58b8,2024-01-23_24h00.52.484,bars,2023.2.3,Win32,55.55555556,657b66ea316d21385b68909f,,,,,,,,,,,2160.1246,2161.1124,,,2161.6118,2161.8625,,151,-29,,,,,,,,,,,,,,,,bars/035.png,bars/mask000.png,,,,,,,,,,,,2,1,,,,,,,10,10,10,10,,,,,,,,,,,2161.1124,2161.6117,2161.8626,2164.9646,space,3.0876,,2164.9647,24,89,2165.9605,2165.9606,2165.9737,,,,0,44,44,44,1,175,60,,,,,,,,
,,5aea8c59ae889e00018624c2,65af55ceca620457d06d58b8,2024-01-23_24h00.52.484,bars,2023.2.3,Win32,55.55555556,657b66ea316d21385b68909f,,,,,,,,,,,2165.9743,2166.977,,,2167.4776,2167.7277,,40,220,,,,,,,,,,,,,,,,bars/048.png,bars/mask006.png,,,,,,,,,,,,7,1,,,,,,,10,8,10,6,,,,,,,,,,,2166.9771,2167.4775,2167.7277,2170.7657,space,3.023,,2170.7658,10,45,2171.7592,2171.7592,2171.7717,,,,0,45,45,45,1,50,175,,,,,,,,
,,5aea8c59ae889e00018624c2,65af55ceca620457d06d58b8,2024-01-23_24h00.52.484,bars,2023.2.3,Win32,55.55555556,657b66ea316d21385b68909f,,,,,,,,,,,2171.7723,2172.7756,,,2173.2757,2173.5261,,34,214,,,,,,,,,,,,,,,,bars/000.png,bars/mask001.png,,,,,,,,,,,,5,1,,,,,,,8,6,6,6,,,,,,,,,,,2172.7756,2173.2756,2173.5262,2176.109,space,2.5679,,2176.1092,6,69,2177.1086,2177.1086,2177.1207,,,,0,46,46,46,1,40,145,,,,,,,,
,,5aea8c59ae889e00018624c2,65af55ceca620457d06d58b8,2024-01-23_24h00.52.484,bars,2023.2.3,Win32,55.55555556,657b66ea316d21385b68909f,,,,,,,,,,,2177.1213,2178.125,,,2178.6239,2178.874,,38,38,,,,,,,,,,,,,,,,bars/005.png,bars/mask002.png,,,,,,,,,,,,1,1,,,,,,,10,4,10,4,,,,,,,,,,,2178.1251,2178.6239,2178.874,2181.5429,space,2.6518,,2181.5429,28,78,2182.5405,2182.5406,2182.5421,,,,0,47,47,47,1,10,140,,,,,,,,
,,5aea8c59ae889e00018624c2,65af55ceca620457d06d58b8,2024-01-23_24h00.52.484,bars,2023.2.3,Win32,55.55555556,657b66ea316d21385b68909f,,,,,,,,,,,2182.5426,2183.5393,,,2184.0395,2184.29,,36,216,,,,,,,,,,,,,,,,bars/003.png,bars/mask006.png,,,,,,,,,,,,4,1,,,,,,,8,2,7,2,,,,,,,,,,,2183.5393,2184.0395,2184.29,2187.2585,space,2.9584,,2187.2586,11,76,2188.2554,2188.2555,2188.2675,,,,0,48,48,48,1,25,140,,,,,,,,
,,5aea8c59ae889e00018624c2,65af55ceca620457d06d58b8,2024-01-23_24h00.52.484,bars,2023.2.3,Win32,55.55555556,657b66ea316d21385b68909f,,,,,,,,,,,2188.2679,2189.2723,,,2189.7712,2190.0215,,135,135,,,,,,,,,,,,,,,,bars/024.png,bars/mask002.png,,,,,,,,,,,,5,1,,,,,,,10,0,10,0,,,,,,,,,,,2189.2723,2189.7711,2190.0216,2192.4381,space,2.4004,,2192.4382,15,35,2193.4377,2193.4379,2193.4498,,,,0,49,49,49,1,120,170,,,,,,,,
,,5aea8c59ae889e00018624c2,65af55ceca620457d06d58b8,2024-01-23_24h00.52.484,bars,2023.2.3,Win32,55.55555556,657b66ea316d21385b68909f,,,,,,,,,,,,,,,,,,,,,,,,,,,,,,,,,,,,,,,,,,,,,,,,,,,,,,,,,,,,,,,,,,,,,,,,,,,,,,,,,,,,,,,,,,,,,2193.4501,2253.4428,0,3,3,0,1,sequence_tables/blk002.csv
,,5aea8c59ae889e00018624c2,65af55ceca620457d06d58b8,2024-01-23_24h00.52.484,bars,2023.2.3,Win32,55.55555556,657b66ea316d21385b68909f,,,,,,,,,,,2259.4648,2260.4564,,,2260.9531,2261.2035,,27,207,,,,,,,,,,,,,,,,bars/010.png,bars/mask007.png,,,,,,,,,,,,1,2,,,,,,,9,9,7,10,,,,,,2253.4581,2259.4408,space,5.971,,2260.4565,2260.953,2261.2036,2264.0033,space,2.7838,,2264.0034,42,28,2265.002,2265.002,2265.0187,,,,0,0,0,0,1,165,55,,,,,,,,
,,5aea8c59ae889e00018624c2,65af55ceca620457d06d58b8,2024-01-23_24h00.52.484,bars,2023.2.3,Win32,55.55555556,657b66ea316d21385b68909f,,,,,,,,,,,2265.0197,2266.0184,,,2266.5211,2266.7681,,29,29,,,,,,,,,,,,,,,,bars/033.png,bars/mask007.png,,,,,,,,,,,,6,1,,,,,,,7,10,7,10,,,,,,,,,,,2266.0184,2266.5211,2266.7682,2270.7271,space,3.9514,,2270.7272,4,54,2271.7227,2271.723,2271.7398,,,,0,1,1,1,1,25,155,,,,,,,,
,,5aea8c59ae889e00018624c2,65af55ceca620457d06d58b8,2024-01-23_24h00.52.484,bars,2023.2.3,Win32,55.55555556,657b66ea316d21385b68909f,,,,,,,,,,,2271.7403,2272.7375,,,2273.2384,2273.4887,,126,126,,,,,,,,,,,,,,,,bars/032.png,bars/mask006.png,,,,,,,,,,,,9,1,,,,,,,9,8,9,8,,,,,,,,,,,2272.7376,2273.2383,2273.4888,2278.2079,space,4.7009,,2278.208,1,74,2279.2036,2279.2037,2279.2185,,,,0,2,2,2,1,125,20,,,,,,,,
,,5aea8c59ae889e00018624c2,65af55ceca620457d06d58b8,2024-01-23_24h00.52.484,bars,2023.2.3,Win32,55.55555556,657b66ea316d21385b68909f,,,,,,,,,,,2279.2189,2280.2149,,,2280.7034,2280.9522,,21,201,,,,,,,,,,,,,,,,bars/035.png,bars/mask000.png,,,,,,,,,,,,1,1,,,,,,,10,6,8,7,,,,,,,,,,,2280.215,2280.7033,2280.9523,2284.008,space,3.0347,,2284.0081,26,39,2284.996,2284.996,2285.009,,,,0,3,3,3,1,175,60,,,,,,,,
,,5aea8c59ae889e00018624c2,65af55ceca620457d06d58b8,2024-01-23_24h00.52.484,bars,2023.2.3,Win32,55.55555556,657b66ea316d21385b68909f,,,,,,,,,,,2285.0093,2286.0017,,,2286.502,2286.7469,,66,66,,,,,,,,,,,,,,,,bars/044.png,bars/mask003.png,,,,,,,,,,,,6,1,,,,,,,10,4,9,4,,,,,,,,,,,2286.0018,2286.502,2286.7469,2288.5965,space,1.834,,2288.5966,9,89,2289.5966,2289.5966,2289.5985,,,,0,4,4,4,1,75,155,,,,,,,,
,,5aea8c59ae889e00018624c2,65af55ceca620457d06d58b8,2024-01-23_24h00.52.484,bars,2023.2.3,Win32,55.55555556,657b66ea316d21385b68909f,,,,,,,,,,,2289.5995,2290.5961,,,2291.0955,2291.3454,,30,210,,,,,,,,,,,,,,,,bars/041.png,bars/mask004.png,,,,,,,,,,,,5,1,,,,,,,8,2,8,3,,,,,,,,,,,2290.5962,2291.0955,2291.3454,2295.5478,space,4.1876,,2295.5479,10,55,2296.5439,2296.5439,2296.5563,,,,0,5,5,5,1,20,85,,,,,,,,
,,5aea8c59ae889e00018624c2,65af55ceca620457d06d58b8,2024-01-23_24h00.52.484,bars,2023.2.3,Win32,55.55555556,657b66ea316d21385b68909f,,,,,,,,,,,2296.5567,2297.561,,,2298.061,2298.3104,,148,-32,,,,,,,,,,,,,,,,bars/011.png,bars/mask007.png,,,,,,,,,,,,4,1,,,,,,,6,4,6,4,,,,,,,,,,,2297.5611,2298.061,2298.3105,2301.2937,space,2.9676,,2301.2939,12,63,2302.2932,2302.2934,2302.3061,,,,0,6,6,6,1,160,85,,,,,,,,
,,5aea8c59ae889e00018624c2,65af55ceca620457d06d58b8,2024-01-23_24h00.52.484,bars,2023.2.3,Win32,55.55555556,657b66ea316d21385b68909f,,,,,,,,,,,2302.3065,2303.3099,,,2303.8092,2304.0587,,41,221,,,,,,,,,,,,,,,,bars/048.png,bars/mask000.png,,,,,,,,,,,,6,1,,,,,,,8,6,9,6,,,,,,,,,,,2303.31,2303.809,2304.0589,2307.3442,space,3.2764,,2307.3442,9,46,2308.3408,2308.3409,2308.353,,,,0,7,7,7,1,50,175,,,,,,,,
,,5aea8c59ae889e00018624c2,65af55ceca620457d06d58b8,2024-01-23_24h00.52.484,bars,2023.2.3,Win32,55.55555556,657b66ea316d21385b68909f,,,,,,,,,,,2308.3534,2309.3576,,,2309.8574,2310.1099,,132,-48,,,,,,,,,,,,,,,,bars/034.png,bars/mask005.png,,,,,,,,,,,,8,1,,,,,,,10,8,10,8,,,,,,,,,,,2309.3577,2309.8573,2310.1099,2313.7765,space,3.6498,,2313.7766,7,67,2314.7727,2314.7728,2314.7857,,,,0,8,8,8,1,125,65,,,,,,,,
,,5aea8c59ae889e00018624c2,65af55ceca620457d06d58b8,2024-01-23_24h00.52.484,bars,2023.2.3,Win32,55.55555556,657b66ea316d21385b68909f,,,,,,,,,,,2314.7867,2315.7889,,,2316.2899,2316.539,,158,158,,,,,,,,,,,,,,,,bars/007.png,bars/mask003.png,,,,,,,,,,,,3,1,,,,,,,8,10,6,10,,,,,,,,,,,2315.789,2316.2898,2316.539,2317.6221,space,1.0681,,2317.6223,17,77,2318.6223,2318.6223,2318.6244,,,,0,9,9,9,1,175,55,,,,,,,,
,,5aea8c59ae889e00018624c2,65af55ceca620457d06d58b8,2024-01-23_24h00.52.484,bars,2023.2.3,Win32,55.55555556,657b66ea316d21385b68909f,,,,,,,,,,,2318.625,2319.6215,,,2320.1213,2320.3711,,24,24,,,,,,,,,,,,,,,,bars/019.png,bars/mask006.png,,,,,,,,,,,,3,1,,,,,,,10,10,10,10,,,,,,,,,,,2319.6215,2320.1212,2320.3712,2321.208,space,0.821,,2321.2081,21,81,2322.2031,2322.2032,2322.2054,,,,0,10,10,10,1,45,105,,,,,,,,
,,5aea8c59ae889e00018624c2,65af55ceca620457d06d58b8,2024-01-23_24h00.52.484,bars,2023.2.3,Win32,55.55555556,657b66ea316d21385b68909f,,,,,,,,,,,2322.2062,2323.2052,,,2323.7032,2323.9529,,129,129,,,,,,,,,,,,,,,,bars/014.png,bars/mask002.png,,,,,,,,,,,,0,1,,,,,,,8,10,9,10,,,,,,,,,,,2323.2053,2323.7031,2323.9529,2324.7565,space,0.7872,,2324.7565,49,51,2325.7527,2325.7527,2325.755,,,,0,11,11,11,1,80,0,,,,,,,,
,,5aea8c59ae889e00018624c2,65af55ceca620457d06d58b8,2024-01-23_24h00.52.484,bars,2023.2.3,Win32,55.55555556,657b66ea316d21385b68909f,,,,,,,,,,,2325.7557,2326.7516,,,2327.2538,2327.5017,,105,105,,,,,,,,,,,,,,,,bars/046.png,bars/mask008.png,,,,,,,,,,,,2,2,,,,,,,10,8,8,7,,,,,,,,,,,2326.7516,2327.2537,2327.5018,2332.1538,space,4.6347,,2332.1539,50,20,2333.15,2333.1501,2333.1693,,,,0,12,12,12,1,155,85,,,,,,,,
