init_variables.started,init_variables.stopped,participant,session,date,expName,psychopyVersion,OS,frameRate,study_id,instruction_exp.started,instruction_exp.stopped,key_resp_8.keys,key_resp_8.rt,key_resp_8.duration,instruction_single.started,instruction_single.stopped,key_resp_2.keys,key_resp_2.rt,key_resp_2.duration,interval.started,interval.stopped,cue_single.started,cue_single.stopped,mask.started,mask.stopped,ori_response_single.started,res_ori,res,ori_response_single.stopped,key_resp_single.keys,key_resp_single.rt,key_resp_single.duration,disp_single.started,disp_single.stopped,key_resp.keys,key_resp.rt,key_resp.duration,single.thisRepN,single.thisTrialN,single.thisN,single.thisIndex,single.ran,ori,path,mask_path,instruction_bandit.started,instruction_bandit.stopped,key_resp_6.keys,key_resp_6.rt,key_resp_6.duration,cue_bandit.started,cue_bandit.stopped,bandit_res.keys,bandit_res.rt,bandit_res.duration,outcome_bandit.started,rew,action,outcome_bandit.stopped,bandit.thisRepN,bandit.thisTrialN,bandit.thisN,bandit.thisIndex,bandit.ran,actual_rew1,actual_rew2,rew1,rew2,instruction_task.started,instruction_task.stopped,key_resp_7.keys,key_resp_7.rt,key_resp_7.duration,wait_ready.started,wait_ready.stopped,key_resp_3.keys,key_resp_3.rt,key_resp_3.duration,cue.started,cue.stopped,ori_response.started,ori_response.stopped,key_resp_5.keys,key_resp_5.rt,key_resp_5.duration,outcome.started,diff1,diff2,outcome.stopped,disp_outcome_practice.started,disp_outcome_practice.stopped,key_resp_4.keys,key_resp_4.rt,key_resp_4.duration,trials.thisRepN,trials.thisTrialN,trials.thisN,trials.thisIndex,trials.ran,ori1,ori2,break_blk.started,break_blk.stopped,block.thisRepN,block.thisTrialN,block.thisN,block.thisIndex,block.ran,condition_file
0.0029,0.0032,6581ced34f993b2b0f63defc,65af54ad5f1f6da7183dc7a2,2024-01-23_07h58.15.491,bars,2023.2.3,Win32,59.88023952,657b66ea316d21385b68909f,,,,,,,,,,,,,,,,,,,,,,,,,,,,,,,,,,,,,,,,,,,,,,,,,,,,,,,,,,,,,,,,,,,,,,,,,,,,,,,,,,,,,,,,,,,,,,,,,,,,
,,6581ced34f993b2b0f63defc,65af54ad5f1f6da7183dc7a2,2024-01-23_07h58.15.491,bars,2023.2.3,Win32,59.88023952,657b66ea316d21385b68909f,0.0038,18.6947,y,18.6588,,,,,,,,,,,,,,,,,,,,,,,,,,,,,,,,,,,,,,,,,,,,,,,,,,,,,,,,,,,,,,,,,,,,,,,,,,,,,,,,,,,,,,,,,,,,,,,,
,,6581ced34f993b2b0f63defc,65af54ad5f1f6da7183dc7a2,2024-01-23_07h58.15.491,bars,2023.2.3,Win32,59.88023952,657b66ea316d21385b68909f,,,,,,18.6955,30.2197,space,11.4908,,,,,,,,,,,,,,,,,,,,,,,,,,,,,,,,,,,,,,,,,,,,,,,,,,,,,,,,,,,,,,,,,,,,,,,,,,,,,,,,,,,,,,,,,,,
,,6581ced34f993b2b0f63defc,65af54ad5f1f6da7183dc7a2,2024-01-23_07h58.15.491,bars,2023.2.3,Win32,59.88023952,657b66ea316d21385b68909f,,,,,,,,,,,30.2548,31.2242,31.2247,31.7267,31.7274,31.9746,31.9751,136,136,44.9351,space,12.8978,,44.9355,48.4252,space,3.4267,,0,0,0,2,1,145,bars/single002.png,bars/mask003.png,,,,,,,,,,,,,,,,,,,,,,,,,,,,,,,,,,,,,,,,,,,,,,,,,,,,,,,,,,,,,,,,
,,6581ced34f993b2b0f63defc,65af54ad5f1f6da7183dc7a2,2024-01-23_07h58.15.491,bars,2023.2.3,Win32,59.88023952,657b66ea316d21385b68909f,,,,,,,,,,,48.4457,49.4408,49.4411,49.9418,49.9418,50.1792,50.1793,143,143,53.149,space,2.9524,,53.1492,59.5575,space,6.3663,,0,1,1,9,1,20,bars/single009.png,bars/mask006.png,,,,,,,,,,,,,,,,,,,,,,,,,,,,,,,,,,,,,,,,,,,,,,,,,,,,,,,,,,,,,,,,
,,6581ced34f993b2b0f63defc,65af54ad5f1f6da7183dc7a2,2024-01-23_07h58.15.491,bars,2023.2.3,Win32,59.88023952,657b66ea316d21385b68909f,,,,,,,,,,,59.5773,60.5742,60.5745,61.0583,61.0585,61.3071,61.3071,17,17,80.8321,space,19.4981,,80.8322,83.1574,space,2.2855,,0,2,2,7,1,45,bars/single007.png,bars/mask009.png,,,,,,,,,,,,,,,,,,,,,,,,,,,,,,,,,,,,,,,,,,,,,,,,,,,,,,,,,,,,,,,,
,,6581ced34f993b2b0f63defc,65af54ad5f1f6da7183dc7a2,2024-01-23_07h58.15.491,bars,2023.2.3,Win32,59.88023952,657b66ea316d21385b68909f,,,,,,,,,,,83.1581,84.157,84.157,84.6572,84.6573,84.9075,84.9076,156,156,94.9075,space,9.9882,,94.9077,97.9184,space,2.9711,,0,3,3,1,1,20,bars/single001.png,bars/mask006.png,,,,,,,,,,,,,,,,,,,,,,,,,,,,,,,,,,,,,,,,,,,,,,,,,,,,,,,,,,,,,,,,
,,6581ced34f993b2b0f63defc,65af54ad5f1f6da7183dc7a2,2024-01-23_07h58.15.491,bars,2023.2.3,Win32,59.88023952,657b66ea316d21385b68909f,,,,,,,,,,,97.9192,98.9133,98.9134,99.4073,99.4074,99.6578,99.6579,133,133,108.7282,space,9.0555,,108.7284,112.498,space,3.7259,,0,4,4,0,1,150,bars/single000.png,bars/mask006.png,,,,,,,,,,,,,,,,,,,,,,,,,,,,,,,,,,,,,,,,,,,,,,,,,,,,,,,,,,,,,,,,
,,6581ced34f993b2b0f63defc,65af54ad5f1f6da7183dc7a2,2024-01-23_07h58.15.491,bars,2023.2.3,Win32,59.88023952,657b66ea316d21385b68909f,,,,,,,,,,,112.5201,113.5073,113.5073,114.0075,114.0076,114.2571,114.2571,41,41,114.8258,space,0.5559,,114.8261,118.4078,space,3.5574,,0,5,5,8,1,160,bars/single008.png,bars/mask004.png,,,,,,,,,,,,,,,,,,,,,,,,,,,,,,,,,,,,,,,,,,,,,,,,,,,,,,,,,,,,,,,,
,,6581ced34f993b2b0f63defc,65af54ad5f1f6da7183dc7a2,2024-01-23_07h58.15.491,bars,2023.2.3,Win32,59.88023952,657b66ea316d21385b68909f,,,,,,,,,,,118.4304,119.424,119.424,119.9242,119.9243,120.1745,120.1747,173,-7,124.5658,space,4.3692,,124.5659,127.7243,space,3.1223,,0,6,6,6,1,175,bars/single006.png,bars/mask005.png,,,,,,,,,,,,,,,,,,,,,,,,,,,,,,,,,,,,,,,,,,,,,,,,,,,,,,,,,,,,,,,,
,,6581ced34f993b2b0f63defc,65af54ad5f1f6da7183dc7a2,2024-01-23_07h58.15.491,bars,2023.2.3,Win32,59.88023952,657b66ea316d21385b68909f,,,,,,,,,,,127.747,128.742,128.7421,129.2333,129.2334,129.4741,129.4742,61,61,133.6637,space,4.1635,,133.6638,137.2907,space,3.5907,,0,7,7,3,1,20,bars/single003.png,bars/mask005.png,,,,,,,,,,,,,,,,,,,,,,,,,,,,,,,,,,,,,,,,,,,,,,,,,,,,,,,,,,,,,,,,
,,6581ced34f993b2b0f63defc,65af54ad5f1f6da7183dc7a2,2024-01-23_07h58.15.491,bars,2023.2.3,Win32,59.88023952,657b66ea316d21385b68909f,,,,,,,,,,,137.3113,138.2914,138.2915,138.7834,138.7834,139.0252,139.0254,62,62,143.8679,space,4.8174,,143.8681,145.6104,space,1.7058,,0,8,8,5,1,55,bars/single005.png,bars/mask008.png,,,,,,,,,,,,,,,,,,,,,,,,,,,,,,,,,,,,,,,,,,,,,,,,,,,,,,,,,,,,,,,,
,,6581ced34f993b2b0f63defc,65af54ad5f1f6da7183dc7a2,2024-01-23_07h58.15.491,bars,2023.2.3,Win32,59.88023952,657b66ea316d21385b68909f,,,,,,,,,,,145.6117,146.5998,146.5998,147.0907,147.0908,147.3406,147.3406,95,95,151.1907,space,3.8353,,151.1908,153.4691,space,2.24,,0,9,9,4,1,95,bars/single004.png,bars/mask004.png,,,,,,,,,,,,,,,,,,,,,,,,,,,,,,,,,,,,,,,,,,,,,,,,,,,,,,,,,,,,,,,,
,,6581ced34f993b2b0f63defc,65af54ad5f1f6da7183dc7a2,2024-01-23_07h58.15.491,bars,2023.2.3,Win32,59.88023952,657b66ea316d21385b68909f,,,,,,,,,,,,,,,,,,,,,,,,,,,,,,,,,,,,,153.4928,167.2586,space,13.7319,,,,,,,,,,,,,,,,,,,,,,,,,,,,,,,,,,,,,,,,,,,,,,,,,,,,,,,,,,,,
,,6581ced34f993b2b0f63defc,65af54ad5f1f6da7183dc7a2,2024-01-23_07h58.15.491,bars,2023.2.3,Win32,59.88023952,657b66ea316d21385b68909f,,,,,,,,,,,,,,,,,,,,,,,,,,,,,,,,,,,,,,,,,,167.2885,170.5681,right,3.2351,,170.5684,2,2,171.5573,0,0,0,0,1,9,1,9,2,,,,,,,,,,,,,,,,,,,,,,,,,,,,,,,,,,,,,,,,,
,,6581ced34f993b2b0f63defc,65af54ad5f1f6da7183dc7a2,2024-01-23_07h58.15.491,bars,2023.2.3,Win32,59.88023952,657b66ea316d21385b68909f,,,,,,,,,,,,,,,,,,,,,,,,,,,,,,,,,,,,,,,,,,171.5583,175.2741,right,3.7045,,175.2743,1,2,176.2739,0,1,1,1,1,10,0,10,1,,,,,,,,,,,,,,,,,,,,,,,,,,,,,,,,,,,,,,,,,
,,6581ced34f993b2b0f63defc,65af54ad5f1f6da7183dc7a2,2024-01-23_07h58.15.491,bars,2023.2.3,Win32,59.88023952,657b66ea316d21385b68909f,,,,,,,,,,,,,,,,,,,,,,,,,,,,,,,,,,,,,,,,,,176.2939,178.2411,left,1.9365,,178.2413,10,1,179.241,0,2,2,2,1,10,2,10,2,,,,,,,,,,,,,,,,,,,,,,,,,,,,,,,,,,,,,,,,,
,,6581ced34f993b2b0f63defc,65af54ad5f1f6da7183dc7a2,2024-01-23_07h58.15.491,bars,2023.2.3,Win32,59.88023952,657b66ea316d21385b68909f,,,,,,,,,,,,,,,,,,,,,,,,,,,,,,,,,,,,,,,,,,179.2424,180.5751,left,1.3028,,180.5754,7,1,181.5748,0,3,3,3,1,8,4,7,3,,,,,,,,,,,,,,,,,,,,,,,,,,,,,,,,,,,,,,,,,
,,6581ced34f993b2b0f63defc,65af54ad5f1f6da7183dc7a2,2024-01-23_07h58.15.491,bars,2023.2.3,Win32,59.88023952,657b66ea316d21385b68909f,,,,,,,,,,,,,,,,,,,,,,,,,,,,,,,,,,,,,,,,,,181.5985,182.4683,right,0.8594,,182.4684,1,2,183.4568,0,4,4,4,1,6,2,5,1,,,,,,,,,,,,,,,,,,,,,,,,,,,,,,,,,,,,,,,,,
,,6581ced34f993b2b0f63defc,65af54ad5f1f6da7183dc7a2,2024-01-23_07h58.15.491,bars,2023.2.3,Win32,59.88023952,657b66ea316d21385b68909f,,,,,,,,,,,,,,,,,,,,,,,,,,,,,,,,,,,,,,,,,,183.4577,183.8413,left,0.3688,,183.8413,4,1,184.8324,0,5,5,5,1,4,4,4,4,,,,,,,,,,,,,,,,,,,,,,,,,,,,,,,,,,,,,,,,,
,,6581ced34f993b2b0f63defc,65af54ad5f1f6da7183dc7a2,2024-01-23_07h58.15.491,bars,2023.2.3,Win32,59.88023952,657b66ea316d21385b68909f,,,,,,,,,,,,,,,,,,,,,,,,,,,,,,,,,,,,,,,,,,184.8332,185.242,left,0.3888,,185.2422,1,1,186.2402,0,6,6,6,1,2,2,1,2,,,,,,,,,,,,,,,,,,,,,,,,,,,,,,,,,,,,,,,,,
,,6581ced34f993b2b0f63defc,65af54ad5f1f6da7183dc7a2,2024-01-23_07h58.15.491,bars,2023.2.3,Win32,59.88023952,657b66ea316d21385b68909f,,,,,,,,,,,,,,,,,,,,,,,,,,,,,,,,,,,,,,,,,,186.2417,187.0357,right,0.769,,187.0358,1,2,188.0413,0,7,7,7,1,0,0,0,1,,,,,,,,,,,,,,,,,,,,,,,,,,,,,,,,,,,,,,,,,
,,6581ced34f993b2b0f63defc,65af54ad5f1f6da7183dc7a2,2024-01-23_07h58.15.491,bars,2023.2.3,Win32,59.88023952,657b66ea316d21385b68909f,,,,,,,,,,,,,,,,,,,,,,,,,,,,,,,,,,,,,,,,,,188.0432,189.1182,right,1.0516,,189.1183,0,2,190.1071,0,8,8,8,1,0,2,1,0,,,,,,,,,,,,,,,,,,,,,,,,,,,,,,,,,,,,,,,,,
,,6581ced34f993b2b0f63defc,65af54ad5f1f6da7183dc7a2,2024-01-23_07h58.15.491,bars,2023.2.3,Win32,59.88023952,657b66ea316d21385b68909f,,,,,,,,,,,,,,,,,,,,,,,,,,,,,,,,,,,,,,,,,,190.108,190.4082,left,0.2895,,190.4083,2,1,191.4068,0,9,9,9,1,2,4,2,3,,,,,,,,,,,,,,,,,,,,,,,,,,,,,,,,,,,,,,,,,
,,6581ced34f993b2b0f63defc,65af54ad5f1f6da7183dc7a2,2024-01-23_07h58.15.491,bars,2023.2.3,Win32,59.88023952,657b66ea316d21385b68909f,,,,,,,,,,,,,,,,,,,,,,,,,,,,,,,,,,,,,,,,,,191.4077,191.9356,left,0.5169,,191.9357,0,1,192.9236,0,10,10,10,1,0,2,0,3,,,,,,,,,,,,,,,,,,,,,,,,,,,,,,,,,,,,,,,,,
,,6581ced34f993b2b0f63defc,65af54ad5f1f6da7183dc7a2,2024-01-23_07h58.15.491,bars,2023.2.3,Win32,59.88023952,657b66ea316d21385b68909f,,,,,,,,,,,,,,,,,,,,,,,,,,,,,,,,,,,,,,,,,,192.9248,193.1574,left,0.2185,,193.1576,0,1,194.1567,0,11,11,11,1,0,4,0,3,,,,,,,,,,,,,,,,,,,,,,,,,,,,,,,,,,,,,,,,,
,,6581ced34f993b2b0f63defc,65af54ad5f1f6da7183dc7a2,2024-01-23_07h58.15.491,bars,2023.2.3,Win32,59.88023952,657b66ea316d21385b68909f,,,,,,,,,,,,,,,,,,,,,,,,,,,,,,,,,,,,,,,,,,194.1575,195.1572,right,0.9863,,195.1573,6,2,196.1568,0,12,12,12,1,2,6,1,6,,,,,,,,,,,,,,,,,,,,,,,,,,,,,,,,,,,,,,,,,
,,6581ced34f993b2b0f63defc,65af54ad5f1f6da7183dc7a2,2024-01-23_07h58.15.491,bars,2023.2.3,Win32,59.88023952,657b66ea316d21385b68909f,,,,,,,,,,,,,,,,,,,,,,,,,,,,,,,,,,,,,,,,,,196.1575,196.4909,left,0.3151,,196.491,1,1,197.4903,0,13,13,13,1,0,4,1,3,,,,,,,,,,,,,,,,,,,,,,,,,,,,,,,,,,,,,,,,,
,,6581ced34f993b2b0f63defc,65af54ad5f1f6da7183dc7a2,2024-01-23_07h58.15.491,bars,2023.2.3,Win32,59.88023952,657b66ea316d21385b68909f,,,,,,,,,,,,,,,,,,,,,,,,,,,,,,,,,,,,,,,,,,197.4911,197.7739,right,0.2681,,197.774,7,2,198.7736,0,14,14,14,1,2,6,2,7,,,,,,,,,,,,,,,,,,,,,,,,,,,,,,,,,,,,,,,,,
,,6581ced34f993b2b0f63defc,65af54ad5f1f6da7183dc7a2,2024-01-23_07h58.15.491,bars,2023.2.3,Win32,59.88023952,657b66ea316d21385b68909f,,,,,,,,,,,,,,,,,,,,,,,,,,,,,,,,,,,,,,,,,,198.7755,199.0915,right,0.2872,,199.0917,9,2,200.0905,0,15,15,15,1,4,8,3,9,,,,,,,,,,,,,,,,,,,,,,,,,,,,,,,,,,,,,,,,,
,,6581ced34f993b2b0f63defc,65af54ad5f1f6da7183dc7a2,2024-01-23_07h58.15.491,bars,2023.2.3,Win32,59.88023952,657b66ea316d21385b68909f,,,,,,,,,,,,,,,,,,,,,,,,,,,,,,,,,,,,,,,,,,200.0923,200.3918,right,0.2697,,200.392,7,2,201.3907,0,16,16,16,1,6,6,7,7,,,,,,,,,,,,,,,,,,,,,,,,,,,,,,,,,,,,,,,,,
,,6581ced34f993b2b0f63defc,65af54ad5f1f6da7183dc7a2,2024-01-23_07h58.15.491,bars,2023.2.3,Win32,59.88023952,657b66ea316d21385b68909f,,,,,,,,,,,,,,,,,,,,,,,,,,,,,,,,,,,,,,,,,,201.3924,201.8832,left,0.4671,,201.8832,9,1,202.8739,0,17,17,17,1,8,4,9,5,,,,,,,,,,,,,,,,,,,,,,,,,,,,,,,,,,,,,,,,,
,,6581ced34f993b2b0f63defc,65af54ad5f1f6da7183dc7a2,2024-01-23_07h58.15.491,bars,2023.2.3,Win32,59.88023952,657b66ea316d21385b68909f,,,,,,,,,,,,,,,,,,,,,,,,,,,,,,,,,,,,,,,,,,202.8759,203.5414,left,0.6372,,203.5416,5,1,204.5409,0,18,18,18,1,6,2,5,1,,,,,,,,,,,,,,,,,,,,,,,,,,,,,,,,,,,,,,,,,
,,6581ced34f993b2b0f63defc,65af54ad5f1f6da7183dc7a2,2024-01-23_07h58.15.491,bars,2023.2.3,Win32,59.88023952,657b66ea316d21385b68909f,,,,,,,,,,,,,,,,,,,,,,,,,,,,,,,,,,,,,,,,,,204.5428,205.028,left,0.4607,,205.0282,7,1,206.0235,0,19,19,19,1,8,0,7,0,,,,,,,,,,,,,,,,,,,,,,,,,,,,,,,,,,,,,,,,,
,,6581ced34f993b2b0f63defc,65af54ad5f1f6da7183dc7a2,2024-01-23_07h58.15.491,bars,2023.2.3,Win32,59.88023952,657b66ea316d21385b68909f,,,,,,,,,,,,,,,,,,,,,,,,,,,,,,,,,,,,,,,,,,,,,,,,,,,,,,,,,,,,206.0262,211.608,space,5.5475,,,,,,,,,,,,,,,,,,,,,,,,,,,,,,,,,,,,,
,,6581ced34f993b2b0f63defc,65af54ad5f1f6da7183dc7a2,2024-01-23_07h58.15.491,bars,2023.2.3,Win32,59.88023952,657b66ea316d21385b68909f,,,,,,,,,,,213.0557,214.066,,,214.5573,214.807,,76,76,,,,,,,,,,,,,,,,bars/012.png,bars/mask009.png,,,,,,,,,,,,1,1,,,,,,,3,3,2,3,,,,,,211.6381,213.0422,space,1.3648,,214.0665,214.5572,214.8086,220.5917,space,5.7465,,220.5922,14,61,221.6004,221.601,227.4201,space,5.7553,,0,0,0,0,1,90,15,,,,,,,,
,,6581ced34f993b2b0f63defc,65af54ad5f1f6da7183dc7a2,2024-01-23_07h58.15.491,bars,2023.2.3,Win32,59.88023952,657b66ea316d21385b68909f,,,,,,,,,,,227.4423,228.4328,,,228.9331,229.174,,96,96,,,,,,,,,,,,,,,,bars/018.png,bars/mask005.png,,,,,,,,,,,,2,2,,,,,,,1,1,1,2,,,,,,,,,,,228.4329,228.9329,229.1742,235.3918,space,6.186,,235.3926,54,6,236.3996,236.3998,246.3594,space,9.9001,,0,1,1,1,1,150,90,,,,,,,,
,,6581ced34f993b2b0f63defc,65af54ad5f1f6da7183dc7a2,2024-01-23_07h58.15.491,bars,2023.2.3,Win32,59.88023952,657b66ea316d21385b68909f,,,,,,,,,,,246.3793,247.3744,,,247.8745,248.124,,12,192,,,,,,,,,,,,,,,,bars/048.png,bars/mask004.png,,,,,,,,,,,,0,2,,,,,,,3,0,4,0,,,,,,,,,,,247.3746,247.8744,248.1243,253.8313,space,5.6852,,253.8314,38,17,254.8245,254.8246,258.6848,space,3.8259,,0,2,2,2,1,50,175,,,,,,,,
,,6581ced34f993b2b0f63defc,65af54ad5f1f6da7183dc7a2,2024-01-23_07h58.15.491,bars,2023.2.3,Win32,59.88023952,657b66ea316d21385b68909f,,,,,,,,,,,258.7038,259.7008,,,260.1912,260.4417,,71,71,,,,,,,,,,,,,,,,bars/014.png,bars/mask009.png,,,,,,,,,,,,0,1,,,,,,,1,2,0,4,,,,,,,,,,,259.7009,260.1909,260.4419,263.9841,space,3.5179,,263.9842,9,71,264.974,264.9747,272.9574,space,7.9275,,0,3,3,3,1,80,0,,,,,,,,
,,6581ced34f993b2b0f63defc,65af54ad5f1f6da7183dc7a2,2024-01-23_07h58.15.491,bars,2023.2.3,Win32,59.88023952,657b66ea316d21385b68909f,,,,,,,,,,,272.9774,273.974,,,274.4756,274.7238,,76,76,,,,,,,,,,,,,,,,bars/015.png,bars/mask002.png,,,,,,,,,,,,0,1,,,,,,,3,4,4,4,,,,,,,,,,,273.9743,274.4753,274.7239,277.4972,space,2.747,,277.4973,34,84,278.4851,278.4852,279.8413,space,1.3042,,0,4,4,4,1,110,160,,,,,,,,
,,6581ced34f993b2b0f63defc,65af54ad5f1f6da7183dc7a2,2024-01-23_07h58.15.491,bars,2023.2.3,Win32,59.88023952,657b66ea316d21385b68909f,,,,,,,,,,,279.8428,280.8496,,,281.3405,281.5905,,99,99,,,,,,,,,,,,,,,,bars/025.png,bars/mask006.png,,,,,,,,,,,,2,1,,,,,,,1,6,2,6,,,,,,,,,,,280.8496,281.3405,281.5906,286.5743,space,4.9659,,286.5745,6,59,287.5739,287.5741,290.7695,space,3.1494,,0,5,5,5,1,105,40,,,,,,,,
,,6581ced34f993b2b0f63defc,65af54ad5f1f6da7183dc7a2,2024-01-23_07h58.15.491,bars,2023.2.3,Win32,59.88023952,657b66ea316d21385b68909f,,,,,,,,,,,290.7933,291.7736,,,292.2742,292.5239,,106,106,,,,,,,,,,,,,,,,bars/039.png,bars/mask007.png,,,,,,,,,,,,6,2,,,,,,,0,8,0,6,,,,,,,,,,,291.7738,292.2739,292.5243,296.5579,space,4.0052,,296.5581,69,1,297.5569,297.557,300.2074,space,2.599,,0,6,6,6,1,175,105,,,,,,,,
,,6581ced34f993b2b0f63defc,65af54ad5f1f6da7183dc7a2,2024-01-23_07h58.15.491,bars,2023.2.3,Win32,59.88023952,657b66ea316d21385b68909f,,,,,,,,,,,300.2082,301.2069,,,301.7074,301.9569,,142,142,,,,,,,,,,,,,,,,bars/000.png,bars/mask001.png,,,,,,,,,,,,5,2,,,,,,,0,6,0,6,,,,,,,,,,,301.207,301.7073,301.957,304.9908,space,3.0186,,304.991,78,3,305.9905,305.9906,308.4906,space,2.4588,,0,7,7,7,1,40,145,,,,,,,,
,,6581ced34f993b2b0f63defc,65af54ad5f1f6da7183dc7a2,2024-01-23_07h58.15.491,bars,2023.2.3,Win32,59.88023952,657b66ea316d21385b68909f,,,,,,,,,,,308.4915,309.4898,,,309.9909,310.245,,8,188,,,,,,,,,,,,,,,,bars/040.png,bars/mask003.png,,,,,,,,,,,,4,2,,,,,,,2,4,1,4,,,,,,,,,,,309.4899,309.9907,310.2452,314.607,space,4.3394,,314.6072,48,3,315.6076,315.6078,317.9743,space,2.3273,,0,8,8,8,1,140,5,,,,,,,,
,,6581ced34f993b2b0f63defc,65af54ad5f1f6da7183dc7a2,2024-01-23_07h58.15.491,bars,2023.2.3,Win32,59.88023952,657b66ea316d21385b68909f,,,,,,,,,,,317.9759,318.978,,,319.4733,319.7233,,58,58,,,,,,,,,,,,,,,,bars/030.png,bars/mask005.png,,,,,,,,,,,,5,2,,,,,,,4,6,3,6,,,,,,,,,,,318.9781,319.4732,319.7234,324.3569,space,4.6186,,324.3571,82,7,325.3568,325.3569,327.7243,space,2.3197,,0,9,9,9,1,140,65,,,,,,,,
,,6581ced34f993b2b0f63defc,65af54ad5f1f6da7183dc7a2,2024-01-23_07h58.15.491,bars,2023.2.3,Win32,59.88023952,657b66ea316d21385b68909f,,,,,,,,,,,327.726,328.7292,,,329.224,329.4632,,39,219,,,,,,,,,,,,,,,,bars/022.png,bars/mask000.png,,,,,,,,,,,,3,2,,,,,,,6,8,7,9,,,,,,,,,,,328.7293,329.2239,329.4633,335.0192,space,5.5387,,335.0192,56,19,336.0233,336.0234,338.6913,space,2.6242,,0,10,10,10,1,95,20,,,,,,,,
,,6581ced34f993b2b0f63defc,65af54ad5f1f6da7183dc7a2,2024-01-23_07h58.15.491,bars,2023.2.3,Win32,59.88023952,657b66ea316d21385b68909f,,,,,,,,,,,338.6933,339.6956,,,340.1902,340.4498,,166,166,,,,,,,,,,,,,,,,bars/011.png,bars/mask005.png,,,,,,,,,,,,3,1,,,,,,,4,6,4,5,,,,,,,,,,,339.6959,340.1901,340.4499,343.2508,space,2.7842,,343.2508,6,81,344.2402,344.2403,346.4975,space,2.1964,,0,11,11,11,1,160,85,,,,,,,,
,,6581ced34f993b2b0f63defc,65af54ad5f1f6da7183dc7a2,2024-01-23_07h58.15.491,bars,2023.2.3,Win32,59.88023952,657b66ea316d21385b68909f,,,,,,,,,,,346.4982,347.4899,,,347.9902,348.2403,,66,66,,,,,,,,,,,,,,,,bars/029.png,bars/mask001.png,,,,,,,,,,,,3,2,,,,,,,2,8,2,9,,,,,,,,,,,347.49,347.9901,348.2405,353.1414,space,4.8722,,353.1416,24,21,354.143,354.1431,357.674,space,3.4771,,0,12,12,12,1,90,45,,,,,,,,
,,6581ced34f993b2b0f63defc,65af54ad5f1f6da7183dc7a2,2024-01-23_07h58.15.491,bars,2023.2.3,Win32,59.88023952,657b66ea316d21385b68909f,,,,,,,,,,,357.6925,358.6902,,,359.1905,359.4404,,73,73,,,,,,,,,,,,,,,,bars/007.png,bars/mask000.png,,,,,,,,,,,,4,2,,,,,,,0,10,1,9,,,,,,,,,,,358.6903,359.1904,359.4405,362.5906,space,3.1406,,362.5906,78,18,363.5902,363.5903,365.3582,space,1.7266,,0,13,13,13,1,175,55,,,,,,,,
,,6581ced34f993b2b0f63defc,65af54ad5f1f6da7183dc7a2,2024-01-23_07h58.15.491,bars,2023.2.3,Win32,59.88023952,657b66ea316d21385b68909f,,,,,,,,,,,365.3597,366.3576,,,366.8582,367.1066,,145,145,,,,,,,,,,,,,,,,bars/005.png,bars/mask001.png,,,,,,,,,,,,8,2,,,,,,,2,10,1,10,,,,,,,,,,,366.3578,366.8579,367.1068,370.48,space,3.3473,,370.4801,45,5,371.4743,371.4753,373.3406,space,1.8229,,0,14,14,14,1,10,140,,,,,,,,
,,6581ced34f993b2b0f63defc,65af54ad5f1f6da7183dc7a2,2024-01-23_07h58.15.491,bars,2023.2.3,Win32,59.88023952,657b66ea316d21385b68909f,,,,,,,,,,,373.3424,374.3401,,,374.8407,375.0906,,54,54,,,,,,,,,,,,,,,,bars/025.png,bars/mask009.png,,,,,,,,,,,,4,2,,,,,,,0,8,0,8,,,,,,,,,,,374.3404,374.8404,375.0907,378.5846,space,3.4685,,378.5847,51,14,379.5735,379.5736,380.9736,space,1.3638,,0,15,15,15,1,105,40,,,,,,,,
,,6581ced34f993b2b0f63defc,65af54ad5f1f6da7183dc7a2,2024-01-23_07h58.15.491,bars,2023.2.3,Win32,59.88023952,657b66ea316d21385b68909f,,,,,,,,,,,380.9748,381.9733,,,382.4828,382.7237,,157,-23,,,,,,,,,,,,,,,,bars/024.png,bars/mask005.png,,,,,,,,,,,,5,2,,,,,,,0,10,1,8,,,,,,,,,,,381.9734,382.4826,382.7238,386.9192,space,4.1693,,386.9193,37,13,387.9234,387.9235,388.8419,space,0.8838,,0,16,16,16,1,120,170,,,,,,,,
,,6581ced34f993b2b0f63defc,65af54ad5f1f6da7183dc7a2,2024-01-23_07h58.15.491,bars,2023.2.3,Win32,59.88023952,657b66ea316d21385b68909f,,,,,,,,,,,388.8426,389.8402,,,390.3497,390.5992,,22,202,,,,,,,,,,,,,,,,bars/040.png,bars/mask000.png,,,,,,,,,,,,4,2,,,,,,,0,10,0,9,,,,,,,,,,,389.8403,390.3496,390.5993,396.3407,space,5.7199,,396.3409,62,17,397.3401,397.3402,398.9734,space,1.5912,,0,17,17,17,1,140,5,,,,,,,,
,,6581ced34f993b2b0f63defc,65af54ad5f1f6da7183dc7a2,2024-01-23_07h58.15.491,bars,2023.2.3,Win32,59.88023952,657b66ea316d21385b68909f,,,,,,,,,,,398.9745,399.9732,,,400.4741,400.7238,,94,94,,,,,,,,,,,,,,,,bars/018.png,bars/mask003.png,,,,,,,,,,,,9,2,,,,,,,2,10,2,10,,,,,,,,,,,399.9733,400.4739,400.724,405.251,space,4.5016,,405.2511,56,4,406.2402,406.2402,409.2403,space,2.963,,0,18,18,18,1,150,90,,,,,,,,
,,6581ced34f993b2b0f63defc,65af54ad5f1f6da7183dc7a2,2024-01-23_07h58.15.491,bars,2023.2.3,Win32,59.88023952,657b66ea316d21385b68909f,,,,,,,,,,,409.2411,410.2404,,,410.7414,410.9899,,135,135,,,,,,,,,,,,,,,,bars/027.png,bars/mask001.png,,,,,,,,,,,,1,1,,,,,,,4,8,5,8,,,,,,,,,,,410.2405,410.7412,410.99,416.3071,space,5.2872,,416.3072,25,85,417.3067,417.3067,419.8516,space,2.4989,,0,19,19,19,1,110,50,,,,,,,,
,,6581ced34f993b2b0f63defc,65af54ad5f1f6da7183dc7a2,2024-01-23_07h58.15.491,bars,2023.2.3,Win32,59.88023952,657b66ea316d21385b68909f,,,,,,,,,,,419.8704,420.8571,,,421.3568,421.6077,,75,75,,,,,,,,,,,,,,,,bars/042.png,bars/mask007.png,,,,,,,,,,,,10,2,,,,,,,6,10,7,10,,,,,,,,,,,420.8571,421.3566,421.6079,424.5182,space,2.8852,,424.5182,70,0,425.5064,425.5066,426.9678,space,1.4159,,0,20,20,20,1,145,75,,,,,,,,
,,6581ced34f993b2b0f63defc,65af54ad5f1f6da7183dc7a2,2024-01-23_07h58.15.491,bars,2023.2.3,Win32,59.88023952,657b66ea316d21385b68909f,,,,,,,,,,,426.9684,427.9574,,,428.4576,428.6995,,103,103,,,,,,,,,,,,,,,,bars/041.png,bars/mask000.png,,,,,,,,,,,,3,2,,,,,,,8,8,7,7,,,,,,,,,,,427.9576,428.4574,428.6995,430.8844,space,2.1678,,430.8844,83,18,431.8731,431.8733,433.5074,space,1.5876,,0,21,21,21,1,20,85,,,,,,,,
,,6581ced34f993b2b0f63defc,65af54ad5f1f6da7183dc7a2,2024-01-23_07h58.15.491,bars,2023.2.3,Win32,59.88023952,657b66ea316d21385b68909f,,,,,,,,,,,433.5087,434.5073,,,435.0074,435.2565,,170,170,,,,,,,,,,,,,,,,bars/012.png,bars/mask003.png,,,,,,,,,,,,2,2,,,,,,,6,10,6,10,,,,,,,,,,,434.5074,435.0072,435.2567,440.4571,space,5.1699,,440.4572,80,25,441.4565,441.4566,444.4954,space,3.0058,,0,22,22,22,1,90,15,,,,,,,,
,,6581ced34f993b2b0f63defc,65af54ad5f1f6da7183dc7a2,2024-01-23_07h58.15.491,bars,2023.2.3,Win32,59.88023952,657b66ea316d21385b68909f,,,,,,,,,,,444.5141,445.5067,,,446.007,446.2565,,105,-75,,,,,,,,,,,,,,,,bars/019.png,bars/mask006.png,,,,,,,,,,,,7,2,,,,,,,4,8,3,7,,,,,,,,,,,445.5067,446.0069,446.2567,450.7905,space,4.5211,,450.7905,60,0,451.79,451.7901,453.242,space,1.4129,,0,23,23,23,1,45,105,,,,,,,,
,,6581ced34f993b2b0f63defc,65af54ad5f1f6da7183dc7a2,2024-01-23_07h58.15.491,bars,2023.2.3,Win32,59.88023952,657b66ea316d21385b68909f,,,,,,,,,,,453.2435,454.2398,,,454.7413,454.9902,,14,14,,,,,,,,,,,,,,,,bars/035.png,bars/mask001.png,,,,,,,,,,,,2,1,,,,,,,6,10,6,10,,,,,,,,,,,454.24,454.7411,454.9904,460.2904,space,5.2719,,460.2905,19,46,461.2899,461.2903,464.9349,space,3.5968,,0,24,24,24,1,175,60,,,,,,,,
,,6581ced34f993b2b0f63defc,65af54ad5f1f6da7183dc7a2,2024-01-23_07h58.15.491,bars,2023.2.3,Win32,59.88023952,657b66ea316d21385b68909f,,,,,,,,,,,464.9545,465.9404,,,466.4338,466.6826,,53,233,,,,,,,,,,,,,,,,bars/044.png,bars/mask009.png,,,,,,,,,,,,2,1,,,,,,,8,10,8,9,,,,,,,,,,,465.9407,466.4337,466.6827,470.5751,space,3.8724,,470.5754,22,78,471.5823,471.5824,472.8177,space,1.1998,,0,25,25,25,1,75,155,,,,,,,,
,,6581ced34f993b2b0f63defc,65af54ad5f1f6da7183dc7a2,2024-01-23_07h58.15.491,bars,2023.2.3,Win32,59.88023952,657b66ea316d21385b68909f,,,,,,,,,,,472.8183,473.8078,,,474.3167,474.5565,,163,163,,,,,,,,,,,,,,,,bars/024.png,bars/mask003.png,,,,,,,,,,,,6,2,,,,,,,10,8,10,8,,,,,,,,,,,473.808,474.3166,474.5566,478.7075,space,4.1236,,478.7078,43,7,479.6994,479.6994,481.925,space,2.1768,,0,26,26,26,1,120,170,,,,,,,,
,,6581ced34f993b2b0f63defc,65af54ad5f1f6da7183dc7a2,2024-01-23_07h58.15.491,bars,2023.2.3,Win32,59.88023952,657b66ea316d21385b68909f,,,,,,,,,,,481.947,482.9399,,,483.4404,483.6904,,35,215,,,,,,,,,,,,,,,,bars/031.png,bars/mask004.png,,,,,,,,,,,,10,2,,,,,,,10,10,10,10,,,,,,,,,,,482.94,483.4403,483.6906,488.601,space,4.885,,488.6011,85,0,489.5898,489.59,491.0566,space,1.4272,,0,27,27,27,1,120,35,,,,,,,,
,,6581ced34f993b2b0f63defc,65af54ad5f1f6da7183dc7a2,2024-01-23_07h58.15.491,bars,2023.2.3,Win32,59.88023952,657b66ea316d21385b68909f,,,,,,,,,,,491.0574,492.0563,,,492.5565,492.8066,,81,81,,,,,,,,,,,,,,,,bars/042.png,bars/mask007.png,,,,,,,,,,,,8,2,,,,,,,8,10,8,10,,,,,,,,,,,492.0564,492.5564,492.8068,496.535,space,3.716,,496.535,64,6,497.5233,497.5234,498.2405,space,0.6772,,0,28,28,28,1,145,75,,,,,,,,
,,6581ced34f993b2b0f63defc,65af54ad5f1f6da7183dc7a2,2024-01-23_07h58.15.491,bars,2023.2.3,Win32,59.88023952,657b66ea316d21385b68909f,,,,,,,,,,,498.2414,499.24,,,499.74,499.9915,,69,69,,,,,,,,,,,,,,,,bars/001.png,bars/mask005.png,,,,,,,,,,,,4,2,,,,,,,10,8,9,9,,,,,,,,,,,499.24,499.7399,499.9916,504.0843,space,4.0684,,504.0844,61,16,505.073,505.0731,506.4568,space,1.3435,,0,29,29,29,1,130,85,,,,,,,,
,,6581ced34f993b2b0f63defc,65af54ad5f1f6da7183dc7a2,2024-01-23_07h58.15.491,bars,2023.2.3,Win32,59.88023952,657b66ea316d21385b68909f,,,,,,,,,,,506.4577,507.4563,,,507.9568,508.2065,,135,135,,,,,,,,,,,,,,,,bars/023.png,bars/mask005.png,,,,,,,,,,,,3,2,,,,,,,8,10,7,10,,,,,,,,,,,507.4564,507.9566,508.2066,510.4299,space,2.2153,,510.43,65,20,511.4236,511.4237,512.4567,space,0.9864,,0,30,30,30,1,20,115,,,,,,,,
,,6581ced34f993b2b0f63defc,65af54ad5f1f6da7183dc7a2,2024-01-23_07h58.15.491,bars,2023.2.3,Win32,59.88023952,657b66ea316d21385b68909f,,,,,,,,,,,512.4576,513.4563,,,513.9564,514.2064,,28,208,,,,,,,,,,,,,,,,bars/022.png,bars/mask000.png,,,,,,,,,,,,7,2,,,,,,,6,10,5,10,,,,,,,,,,,513.4565,513.9563,514.2065,520.4566,space,6.2346,,520.4568,67,8,521.4562,521.4563,523.3583,space,1.8657,,0,31,31,31,1,95,20,,,,,,,,
,,6581ced34f993b2b0f63defc,65af54ad5f1f6da7183dc7a2,2024-01-23_07h58.15.491,bars,2023.2.3,Win32,59.88023952,657b66ea316d21385b68909f,,,,,,,,,,,523.3595,524.3561,,,524.8567,525.1064,,141,-39,,,,,,,,,,,,,,,,bars/049.png,bars/mask003.png,,,,,,,,,,,,0,1,,,,,,,4,10,1,9,,,,,,,,,,,524.3562,524.8564,525.1066,528.6849,space,3.5522,,528.6851,19,26,529.6729,529.6732,532.1017,space,2.3843,,0,32,32,32,1,160,115,,,,,,,,
,,6581ced34f993b2b0f63defc,65af54ad5f1f6da7183dc7a2,2024-01-23_07h58.15.491,bars,2023.2.3,Win32,59.88023952,657b66ea316d21385b68909f,,,,,,,,,,,532.1024,533.1064,,,533.6069,533.8568,,25,205,,,,,,,,,,,,,,,,bars/012.png,bars/mask008.png,,,,,,,,,,,,5,2,,,,,,,2,8,2,8,,,,,,,,,,,533.1066,533.6067,533.857,539.5674,space,5.6847,,539.5676,65,10,540.5563,540.5564,543.5046,space,2.9005,,0,33,33,33,1,90,15,,,,,,,,
,,6581ced34f993b2b0f63defc,65af54ad5f1f6da7183dc7a2,2024-01-23_07h58.15.491,bars,2023.2.3,Win32,59.88023952,657b66ea316d21385b68909f,,,,,,,,,,,543.5058,544.5068,,,545.0021,545.2565,,87,87,,,,,,,,,,,,,,,,bars/026.png,bars/mask009.png,,,,,,,,,,,,7,2,,,,,,,4,6,5,8,,,,,,,,,,,544.5069,545.002,545.2566,548.6735,space,3.3994,,548.6736,52,2,549.6729,549.673,551.0761,space,1.3701,,0,34,34,34,1,35,85,,,,,,,,
,,6581ced34f993b2b0f63defc,65af54ad5f1f6da7183dc7a2,2024-01-23_07h58.15.491,bars,2023.2.3,Win32,59.88023952,657b66ea316d21385b68909f,,,,,,,,,,,551.0767,552.0734,,,552.5734,552.8232,,138,138,,,,,,,,,,,,,,,,bars/043.png,bars/mask007.png,,,,,,,,,,,,7,2,,,,,,,6,8,5,9,,,,,,,,,,,552.0734,552.5733,552.8233,555.7951,space,2.9499,,555.7953,72,8,556.7897,556.7899,558.2905,space,1.4605,,0,35,35,35,1,30,130,,,,,,,,
,,6581ced34f993b2b0f63defc,65af54ad5f1f6da7183dc7a2,2024-01-23_07h58.15.491,bars,2023.2.3,Win32,59.88023952,657b66ea316d21385b68909f,,,,,,,,,,,558.2915,559.2902,,,559.7902,560.04,,103,103,,,,,,,,,,,,,,,,bars/042.png,bars/mask006.png,,,,,,,,,,,,1,2,,,,,,,8,10,9,9,,,,,,,,,,,559.2904,559.7901,560.04,563.3236,space,3.2537,,563.3238,42,28,564.3229,564.323,565.0565,space,0.6937,,0,36,36,36,1,145,75,,,,,,,,
,,6581ced34f993b2b0f63defc,65af54ad5f1f6da7183dc7a2,2024-01-23_07h58.15.491,bars,2023.2.3,Win32,59.88023952,657b66ea316d21385b68909f,,,,,,,,,,,565.0574,566.0562,,,566.5572,566.7995,,139,139,,,,,,,,,,,,,,,,bars/003.png,bars/mask007.png,,,,,,,,,,,,9,2,,,,,,,10,8,9,9,,,,,,,,,,,566.0562,566.557,566.7996,569.8844,space,3.068,,569.8844,66,1,570.8729,570.873,571.9565,space,1.0465,,0,37,37,37,1,25,140,,,,,,,,
,,6581ced34f993b2b0f63defc,65af54ad5f1f6da7183dc7a2,2024-01-23_07h58.15.491,bars,2023.2.3,Win32,59.88023952,657b66ea316d21385b68909f,,,,,,,,,,,571.9573,572.9561,,,573.4562,573.7064,,71,71,,,,,,,,,,,,,,,,bars/026.png,bars/mask005.png,,,,,,,,,,,,5,2,,,,,,,10,10,10,10,,,,,,,,,,,572.9562,573.4561,573.7065,577.4904,space,3.7656,,577.4905,36,14,578.4898,578.4899,578.8823,space,0.3494,,0,38,38,38,1,35,85,,,,,,,,
,,6581ced34f993b2b0f63defc,65af54ad5f1f6da7183dc7a2,2024-01-23_07h58.15.491,bars,2023.2.3,Win32,59.88023952,657b66ea316d21385b68909f,,,,,,,,,,,578.8831,579.8728,,,580.3733,580.6229,,65,65,,,,,,,,,,,,,,,,bars/047.png,bars/mask009.png,,,,,,,,,,,,8,2,,,,,,,10,10,10,10,,,,,,,,,,,579.8731,580.373,580.6231,584.6009,space,3.9515,,584.601,50,5,585.5898,585.5899,586.19,space,0.5586,,0,39,39,39,1,15,70,,,,,,,,
,,6581ced34f993b2b0f63defc,65af54ad5f1f6da7183dc7a2,2024-01-23_07h58.15.491,bars,2023.2.3,Win32,59.88023952,657b66ea316d21385b68909f,,,,,,,,,,,586.1908,587.1898,,,587.6904,587.9451,,154,154,,,,,,,,,,,,,,,,bars/048.png,bars/mask001.png,,,,,,,,,,,,2,2,,,,,,,8,8,7,7,,,,,,,,,,,587.1899,587.6901,587.9452,590.235,space,2.2684,,590.2351,76,21,591.2229,591.223,591.9565,space,0.697,,0,40,40,40,1,50,175,,,,,,,,
,,6581ced34f993b2b0f63defc,65af54ad5f1f6da7183dc7a2,2024-01-23_07h58.15.491,bars,2023.2.3,Win32,59.88023952,657b66ea316d21385b68909f,,,,,,,,,,,591.958,592.9561,,,593.4566,593.7072,,163,163,,,,,,,,,,,,,,,,bars/000.png,bars/mask007.png,,,,,,,,,,,,3,2,,,,,,,10,6,10,7,,,,,,,,,,,592.9562,593.4563,593.7074,597.9408,space,4.2071,,597.9421,57,18,598.9396,598.9397,600.7569,space,1.7758,,0,41,41,41,1,40,145,,,,,,,,
,,6581ced34f993b2b0f63defc,65af54ad5f1f6da7183dc7a2,2024-01-23_07h58.15.491,bars,2023.2.3,Win32,59.88023952,657b66ea316d21385b68909f,,,,,,,,,,,600.7584,601.7564,,,602.2564,602.5064,,128,128,,,,,,,,,,,,,,,,bars/049.png,bars/mask006.png,,,,,,,,,,,,2,2,,,,,,,10,4,10,4,,,,,,,,,,,601.7565,602.2564,602.5065,605.9406,space,3.4071,,605.9407,32,13,606.94,606.9401,607.8467,space,0.8748,,0,42,42,42,1,160,115,,,,,,,,
,,6581ced34f993b2b0f63defc,65af54ad5f1f6da7183dc7a2,2024-01-23_07h58.15.491,bars,2023.2.3,Win32,59.88023952,657b66ea316d21385b68909f,,,,,,,,,,,607.8473,608.8403,,,609.3401,609.5901,,42,42,,,,,,,,,,,,,,,,bars/010.png,bars/mask008.png,,,,,,,,,,,,4,2,,,,,,,8,6,7,7,,,,,,,,,,,608.8404,609.3401,609.5902,611.5996,space,1.987,,611.5997,57,13,612.5901,612.5903,613.9903,space,1.357,,0,43,43,43,1,165,55,,,,,,,,
,,6581ced34f993b2b0f63defc,65af54ad5f1f6da7183dc7a2,2024-01-23_07h58.15.491,bars,2023.2.3,Win32,59.88023952,657b66ea316d21385b68909f,,,,,,,,,,,613.9911,614.9898,,,615.49,615.7399,,161,161,,,,,,,,,,,,,,,,bars/005.png,bars/mask004.png,,,,,,,,,,,,3,2,,,,,,,10,8,10,9,,,,,,,,,,,614.9899,615.4899,615.74,620.1403,space,4.3871,,620.1404,29,21,621.1402,621.1403,622.1234,space,0.9404,,0,44,44,44,1,10,140,,,,,,,,
,,6581ced34f993b2b0f63defc,65af54ad5f1f6da7183dc7a2,2024-01-23_07h58.15.491,bars,2023.2.3,Win32,59.88023952,657b66ea316d21385b68909f,,,,,,,,,,,622.1244,623.1229,,,623.6232,623.8736,,25,205,,,,,,,,,,,,,,,,bars/013.png,bars/mask001.png,,,,,,,,,,,,5,2,,,,,,,10,10,10,10,,,,,,,,,,,623.123,623.623,623.8736,629.1859,space,5.2865,,629.186,50,15,630.1896,630.1897,631.3416,space,1.1154,,0,45,45,45,1,75,10,,,,,,,,
,,6581ced34f993b2b0f63defc,65af54ad5f1f6da7183dc7a2,2024-01-23_07h58.15.491,bars,2023.2.3,Win32,59.88023952,657b66ea316d21385b68909f,,,,,,,,,,,631.343,632.3396,,,632.8447,633.0901,,139,-41,,,,,,,,,,,,,,,,bars/004.png,bars/mask009.png,,,,,,,,,,,,4,2,,,,,,,8,8,7,8,,,,,,,,,,,632.3396,632.8446,633.0903,637.2175,space,4.1013,,637.2176,66,14,638.2061,638.2062,639.1066,space,0.8616,,0,46,46,46,1,25,125,,,,,,,,
,,6581ced34f993b2b0f63defc,65af54ad5f1f6da7183dc7a2,2024-01-23_07h58.15.491,bars,2023.2.3,Win32,59.88023952,657b66ea316d21385b68909f,,,,,,,,,,,639.1075,640.1062,,,640.6063,640.856,,9,9,,,,,,,,,,,,,,,,bars/022.png,bars/mask007.png,,,,,,,,,,,,6,2,,,,,,,10,10,10,10,,,,,,,,,,,640.1063,640.6062,640.8561,646.0525,space,5.1843,,646.0526,86,11,647.0402,647.0403,647.9233,space,0.8423,,0,47,47,47,1,95,20,,,,,,,,
,,6581ced34f993b2b0f63defc,65af54ad5f1f6da7183dc7a2,2024-01-23_07h58.15.491,bars,2023.2.3,Win32,59.88023952,657b66ea316d21385b68909f,,,,,,,,,,,647.9241,648.9231,,,649.4158,649.6563,,154,-26,,,,,,,,,,,,,,,,bars/008.png,bars/mask009.png,,,,,,,,,,,,1,2,,,,,,,8,8,8,8,,,,,,,,,,,648.9232,649.4158,649.6564,652.8927,space,3.2082,,652.8929,44,26,653.8903,653.8904,654.8903,space,0.9602,,0,48,48,48,1,110,0,,,,,,,,
,,6581ced34f993b2b0f63defc,65af54ad5f1f6da7183dc7a2,2024-01-23_07h58.15.491,bars,2023.2.3,Win32,59.88023952,657b66ea316d21385b68909f,,,,,,,,,,,654.8918,655.8899,,,656.3896,656.6404,,177,177,,,,,,,,,,,,,,,,bars/008.png,bars/mask004.png,,,,,,,,,,,,5,2,,,,,,,10,6,10,6,,,,,,,,,,,655.89,656.3895,656.6404,660.8736,space,4.2188,,660.8739,67,3,661.8735,661.8735,662.4902,space,0.5766,,0,49,49,49,1,110,0,,,,,,,,
,,6581ced34f993b2b0f63defc,65af54ad5f1f6da7183dc7a2,2024-01-23_07h58.15.491,bars,2023.2.3,Win32,59.88023952,657b66ea316d21385b68909f,,,,,,,,,,,,,,,,,,,,,,,,,,,,,,,,,,,,,,,,,,,,,,,,,,,,,,,,,,,,,,,,,,,,,,,,,,,,,,,,,,,,,,,,,,,,,662.4917,722.4921,0,0,0,4,1,sequence_tables/blk029.csv
,,6581ced34f993b2b0f63defc,65af54ad5f1f6da7183dc7a2,2024-01-23_07h58.15.491,bars,2023.2.3,Win32,59.88023952,657b66ea316d21385b68909f,,,,,,,,,,,734.1003,735.0725,,,735.5727,735.823,,130,130,,,,,,,,,,,,,,,,bars/004.png,bars/mask002.png,,,,,,,,,,,,4,2,,,,,,,8,4,8,5,,,,,,722.5135,734.067,space,11.5356,,735.0726,735.5726,735.8231,738.5897,space,2.7502,,738.5899,75,5,739.5901,739.5902,739.6126,,,,0,0,0,0,1,25,125,,,,,,,,
,,6581ced34f993b2b0f63defc,65af54ad5f1f6da7183dc7a2,2024-01-23_07h58.15.491,bars,2023.2.3,Win32,59.88023952,657b66ea316d21385b68909f,,,,,,,,,,,739.6131,740.606,,,741.1063,741.3562,,52,232,,,,,,,,,,,,,,,,bars/013.png,bars/mask008.png,,,,,,,,,,,,2,1,,,,,,,10,6,10,8,,,,,,,,,,,740.6061,741.1062,741.3563,744.9067,space,3.5352,,744.9068,23,42,745.9062,745.9063,745.9308,,,,0,1,1,1,1,75,10,,,,,,,,
,,6581ced34f993b2b0f63defc,65af54ad5f1f6da7183dc7a2,2024-01-23_07h58.15.491,bars,2023.2.3,Win32,59.88023952,657b66ea316d21385b68909f,,,,,,,,,,,745.9315,746.923,,,747.4228,747.6653,,143,143,,,,,,,,,,,,,,,,bars/015.png,bars/mask009.png,,,,,,,,,,,,2,2,,,,,,,10,4,10,5,,,,,,,,,,,746.923,747.4227,747.6654,749.8463,space,2.1641,,749.8463,33,17,750.8393,750.8394,750.8651,,,,0,2,2,2,1,110,160,,,,,,,,
,,6581ced34f993b2b0f63defc,65af54ad5f1f6da7183dc7a2,2024-01-23_07h58.15.491,bars,2023.2.3,Win32,59.88023952,657b66ea316d21385b68909f,,,,,,,,,,,750.8658,751.8559,,,752.3559,752.6061,,176,176,,,,,,,,,,,,,,,,bars/024.png,bars/mask001.png,,,,,,,,,,,,4,2,,,,,,,8,6,8,5,,,,,,,,,,,751.8559,752.3559,752.6062,754.8401,space,2.2194,,754.8402,56,6,755.8397,755.8399,755.843,,,,0,3,3,3,1,120,170,,,,,,,,
,,6581ced34f993b2b0f63defc,65af54ad5f1f6da7183dc7a2,2024-01-23_07h58.15.491,bars,2023.2.3,Win32,59.88023952,657b66ea316d21385b68909f,,,,,,,,,,,755.8442,756.8393,,,757.3398,757.59,,90,90,,,,,,,,,,,,,,,,bars/002.png,bars/mask003.png,,,,,,,,,,,,8,2,,,,,,,10,8,10,9,,,,,,,,,,,756.8394,757.3397,757.59,760.9499,space,3.3342,,760.95,40,5,761.9397,761.9398,761.9614,,,,0,4,4,4,1,130,85,,,,,,,,
,,6581ced34f993b2b0f63defc,65af54ad5f1f6da7183dc7a2,2024-01-23_07h58.15.491,bars,2023.2.3,Win32,59.88023952,657b66ea316d21385b68909f,,,,,,,,,,,761.9619,762.9561,,,763.4562,763.7066,,53,233,,,,,,,,,,,,,,,,bars/025.png,bars/mask005.png,,,,,,,,,,,,6,2,,,,,,,8,10,8,10,,,,,,,,,,,762.9561,763.4561,763.7068,769.4731,space,5.7337,,769.4732,52,13,770.4729,770.4729,770.4934,,,,0,5,5,5,1,105,40,,,,,,,,
,,6581ced34f993b2b0f63defc,65af54ad5f1f6da7183dc7a2,2024-01-23_07h58.15.491,bars,2023.2.3,Win32,59.88023952,657b66ea316d21385b68909f,,,,,,,,,,,770.4939,771.4945,,,771.9905,772.2398,,58,58,,,,,,,,,,,,,,,,bars/007.png,bars/mask002.png,,,,,,,,,,,,9,2,,,,,,,10,10,10,10,,,,,,,,,,,771.4946,771.9904,772.2399,774.4169,space,2.1504,,774.417,63,3,775.4064,775.4065,775.4284,,,,0,6,6,6,1,175,55,,,,,,,,
,,6581ced34f993b2b0f63defc,65af54ad5f1f6da7183dc7a2,2024-01-23_07h58.15.491,bars,2023.2.3,Win32,59.88023952,657b66ea316d21385b68909f,,,,,,,,,,,775.4289,776.4228,,,776.9237,777.1727,,159,159,,,,,,,,,,,,,,,,bars/016.png,bars/mask007.png,,,,,,,,,,,,8,2,,,,,,,8,10,7,10,,,,,,,,,,,776.423,776.9236,777.1727,778.1233,space,0.9239,,778.1234,61,6,779.1227,779.1229,779.1254,,,,0,7,7,7,1,40,165,,,,,,,,
,,6581ced34f993b2b0f63defc,65af54ad5f1f6da7183dc7a2,2024-01-23_07h58.15.491,bars,2023.2.3,Win32,59.88023952,657b66ea316d21385b68909f,,,,,,,,,,,779.1261,780.1227,,,780.6237,780.8733,,97,97,,,,,,,,,,,,,,,,bars/018.png,bars/mask008.png,,,,,,,,,,,,8,2,,,,,,,6,10,6,10,,,,,,,,,,,780.1229,780.6235,780.8734,784.0746,space,3.1798,,784.0747,53,7,785.0727,785.0728,785.0935,,,,0,8,8,8,1,150,90,,,,,,,,
,,6581ced34f993b2b0f63defc,65af54ad5f1f6da7183dc7a2,2024-01-23_07h58.15.491,bars,2023.2.3,Win32,59.88023952,657b66ea316d21385b68909f,,,,,,,,,,,785.094,786.0896,,,786.5897,786.8394,,103,103,,,,,,,,,,,,,,,,bars/019.png,bars/mask003.png,,,,,,,,,,,,7,2,,,,,,,8,8,8,8,,,,,,,,,,,786.0898,786.5896,786.8396,789.9403,space,3.0728,,789.9405,58,2,790.9399,790.9401,790.9609,,,,0,9,9,9,1,45,105,,,,,,,,
,,6581ced34f993b2b0f63defc,65af54ad5f1f6da7183dc7a2,2024-01-23_07h58.15.491,bars,2023.2.3,Win32,59.88023952,657b66ea316d21385b68909f,,,,,,,,,,,790.9615,791.9566,,,792.4569,792.7059,,158,-22,,,,,,,,,,,,,,,,bars/024.png,bars/mask000.png,,,,,,,,,,,,6,2,,,,,,,6,10,4,10,,,,,,,,,,,791.9567,792.4567,792.7061,797.3334,space,4.6011,,797.3335,38,12,798.3224,798.3225,798.3431,,,,0,10,10,10,1,120,170,,,,,,,,
,,6581ced34f993b2b0f63defc,65af54ad5f1f6da7183dc7a2,2024-01-23_07h58.15.491,bars,2023.2.3,Win32,59.88023952,657b66ea316d21385b68909f,,,,,,,,,,,798.3437,799.3398,,,799.8394,800.1015,,161,161,,,,,,,,,,,,,,,,bars/020.png,bars/mask005.png,,,,,,,,,,,,7,2,,,,,,,4,8,3,10,,,,,,,,,,,799.3403,799.8393,800.1015,801.7406,space,1.6223,,801.7409,46,9,802.7485,802.7485,802.7685,,,,0,11,11,11,1,115,170,,,,,,,,
,,6581ced34f993b2b0f63defc,65af54ad5f1f6da7183dc7a2,2024-01-23_07h58.15.491,bars,2023.2.3,Win32,59.88023952,657b66ea316d21385b68909f,,,,,,,,,,,802.7691,803.7729,,,804.2729,804.5246,,51,51,,,,,,,,,,,,,,,,bars/007.png,bars/mask006.png,,,,,,,,,,,,4,2,,,,,,,6,6,6,5,,,,,,,,,,,803.7729,804.2728,804.5247,805.6007,space,1.0513,,805.6008,56,4,806.5894,806.5895,806.6102,,,,0,12,12,12,1,175,55,,,,,,,,
,,6581ced34f993b2b0f63defc,65af54ad5f1f6da7183dc7a2,2024-01-23_07h58.15.491,bars,2023.2.3,Win32,59.88023952,657b66ea316d21385b68909f,,,,,,,,,,,806.6109,807.606,,,808.1063,808.3564,,82,82,,,,,,,,,,,,,,,,bars/011.png,bars/mask006.png,,,,,,,,,,,,6,2,,,,,,,8,8,7,7,,,,,,,,,,,807.6061,808.1061,808.3566,811.9667,space,3.5843,,811.9667,78,3,812.9558,812.9559,812.9755,,,,0,13,13,13,1,160,85,,,,,,,,
,,6581ced34f993b2b0f63defc,65af54ad5f1f6da7183dc7a2,2024-01-23_07h58.15.491,bars,2023.2.3,Win32,59.88023952,657b66ea316d21385b68909f,,,,,,,,,,,812.9761,813.9732,,,814.4822,814.7228,,94,94,,,,,,,,,,,,,,,,bars/011.png,bars/mask007.png,,,,,,,,,,,,7,2,,,,,,,6,10,6,10,,,,,,,,,,,813.9734,814.4821,814.7233,817.517,space,2.7683,,817.5171,66,9,818.5068,818.5069,818.533,,,,0,14,14,14,1,160,85,,,,,,,,
,,6581ced34f993b2b0f63defc,65af54ad5f1f6da7183dc7a2,2024-01-23_07h58.15.491,bars,2023.2.3,Win32,59.88023952,657b66ea316d21385b68909f,,,,,,,,,,,818.5343,819.5226,,,820.0278,820.2726,,52,52,,,,,,,,,,,,,,,,bars/029.png,bars/mask000.png,,,,,,,,,,,,8,2,,,,,,,4,10,5,10,,,,,,,,,,,819.5227,820.0277,820.2727,823.1696,space,2.8697,,823.1697,38,7,824.1726,824.1726,824.1964,,,,0,15,15,15,1,90,45,,,,,,,,
,,6581ced34f993b2b0f63defc,65af54ad5f1f6da7183dc7a2,2024-01-23_07h58.15.491,bars,2023.2.3,Win32,59.88023952,657b66ea316d21385b68909f,,,,,,,,,,,824.197,825.1892,,,825.7045,825.9558,,154,-26,,,,,,,,,,,,,,,,bars/000.png,bars/mask003.png,,,,,,,,,,,,5,2,,,,,,,2,8,3,7,,,,,,,,,,,825.1892,825.7043,825.956,828.473,space,2.5019,,828.4732,66,9,829.4728,829.4729,829.4925,,,,0,16,16,16,1,40,145,,,,,,,,
,,6581ced34f993b2b0f63defc,65af54ad5f1f6da7183dc7a2,2024-01-23_07h58.15.491,bars,2023.2.3,Win32,59.88023952,657b66ea316d21385b68909f,,,,,,,,,,,829.493,830.4895,,,830.99,831.2397,,139,139,,,,,,,,,,,,,,,,bars/023.png,bars/mask009.png,,,,,,,,,,,,1,2,,,,,,,4,6,4,7,,,,,,,,,,,830.4898,830.9898,831.2399,833.2336,space,1.9684,,833.2336,61,24,834.2228,834.223,834.2248,,,,0,17,17,17,1,20,115,,,,,,,,
,,6581ced34f993b2b0f63defc,65af54ad5f1f6da7183dc7a2,2024-01-23_07h58.15.491,bars,2023.2.3,Win32,59.88023952,657b66ea316d21385b68909f,,,,,,,,,,,834.2258,835.2228,,,835.7235,835.9733,,23,23,,,,,,,,,,,,,,,,bars/036.png,bars/mask006.png,,,,,,,,,,,,5,2,,,,,,,6,4,6,5,,,,,,,,,,,835.2229,835.7233,835.9735,840.8165,space,4.8177,,840.8166,58,3,841.8058,841.8058,841.8244,,,,0,18,18,18,1,145,20,,,,,,,,
,,6581ced34f993b2b0f63defc,65af54ad5f1f6da7183dc7a2,2024-01-23_07h58.15.491,bars,2023.2.3,Win32,59.88023952,657b66ea316d21385b68909f,,,,,,,,,,,841.8249,842.8225,,,843.3234,843.5821,,177,-3,,,,,,,,,,,,,,,,bars/048.png,bars/mask006.png,,,,,,,,,,,,3,2,,,,,,,4,2,3,3,,,,,,,,,,,842.8226,843.3232,843.5821,848.1169,space,4.5178,,848.117,53,2,849.1058,849.1059,849.1256,,,,0,19,19,19,1,50,175,,,,,,,,
,,6581ced34f993b2b0f63defc,65af54ad5f1f6da7183dc7a2,2024-01-23_07h58.15.491,bars,2023.2.3,Win32,59.88023952,657b66ea316d21385b68909f,,,,,,,,,,,849.1261,850.1231,,,850.611,850.8563,,65,65,,,,,,,,,,,,,,,,bars/021.png,bars/mask007.png,,,,,,,,,,,,0,2,,,,,,,2,0,1,0,,,,,,,,,,,850.1232,850.6109,850.8565,853.4683,space,2.586,,853.4684,90,5,854.4725,854.4726,854.4935,,,,0,20,20,20,1,155,70,,,,,,,,
,,6581ced34f993b2b0f63defc,65af54ad5f1f6da7183dc7a2,2024-01-23_07h58.15.491,bars,2023.2.3,Win32,59.88023952,657b66ea316d21385b68909f,,,,,,,,,,,854.4943,855.4983,,,855.9901,856.2395,,69,69,,,,,,,,,,,,,,,,bars/002.png,bars/mask009.png,,,,,,,,,,,,0,2,,,,,,,4,0,5,0,,,,,,,,,,,855.4984,855.9899,856.2396,858.5613,space,2.2947,,858.5615,61,16,859.5559,859.5559,859.5801,,,,0,21,21,21,1,130,85,,,,,,,,
,,6581ced34f993b2b0f63defc,65af54ad5f1f6da7183dc7a2,2024-01-23_07h58.15.491,bars,2023.2.3,Win32,59.88023952,657b66ea316d21385b68909f,,,,,,,,,,,859.5806,860.573,,,861.0728,861.3152,,179,179,,,,,,,,,,,,,,,,bars/008.png,bars/mask005.png,,,,,,,,,,,,0,2,,,,,,,6,0,5,0,,,,,,,,,,,860.5732,861.0727,861.3153,864.2082,space,2.8741,,864.2084,69,1,865.2063,865.2063,865.2287,,,,0,22,22,22,1,110,0,,,,,,,,
,,6581ced34f993b2b0f63defc,65af54ad5f1f6da7183dc7a2,2024-01-23_07h58.15.491,bars,2023.2.3,Win32,59.88023952,657b66ea316d21385b68909f,,,,,,,,,,,865.2292,866.2225,,,866.7227,866.9728,,173,-7,,,,,,,,,,,,,,,,bars/049.png,bars/mask000.png,,,,,,,,,,,,5,1,,,,,,,8,0,8,0,,,,,,,,,,,866.2227,866.7225,866.9729,868.5406,space,1.5359,,868.5408,13,58,869.5444,869.5445,869.5665,,,,0,23,23,23,1,160,115,,,,,,,,
,,6581ced34f993b2b0f63defc,65af54ad5f1f6da7183dc7a2,2024-01-23_07h58.15.491,bars,2023.2.3,Win32,59.88023952,657b66ea316d21385b68909f,,,,,,,,,,,869.5671,870.5557,,,871.0559,871.3059,,159,-21,,,,,,,,,,,,,,,,bars/048.png,bars/mask004.png,,,,,,,,,,,,1,2,,,,,,,10,0,10,2,,,,,,,,,,,870.5558,871.0558,871.306,875.1227,space,3.8014,,875.1227,71,16,876.1225,876.1226,876.146,,,,0,24,24,24,1,50,175,,,,,,,,
,,6581ced34f993b2b0f63defc,65af54ad5f1f6da7183dc7a2,2024-01-23_07h58.15.491,bars,2023.2.3,Win32,59.88023952,657b66ea316d21385b68909f,,,,,,,,,,,876.1468,877.1402,,,877.6395,877.8895,,3,183,,,,,,,,,,,,,,,,bars/016.png,bars/mask007.png,,,,,,,,,,,,1,2,,,,,,,10,2,10,3,,,,,,,,,,,877.1402,877.6395,877.8895,880.5901,space,2.6846,,880.5902,37,18,881.5892,881.5894,881.6123,,,,0,25,25,25,1,40,165,,,,,,,,
,,6581ced34f993b2b0f63defc,65af54ad5f1f6da7183dc7a2,2024-01-23_07h58.15.491,bars,2023.2.3,Win32,59.88023952,657b66ea316d21385b68909f,,,,,,,,,,,881.613,882.606,,,883.1061,883.3561,,58,58,,,,,,,,,,,,,,,,bars/025.png,bars/mask005.png,,,,,,,,,,,,1,2,,,,,,,8,4,7,3,,,,,,,,,,,882.6061,883.1061,883.3561,885.2061,space,1.8353,,885.2063,47,18,886.2059,886.206,886.2083,,,,0,26,26,26,1,105,40,,,,,,,,
,,6581ced34f993b2b0f63defc,65af54ad5f1f6da7183dc7a2,2024-01-23_07h58.15.491,bars,2023.2.3,Win32,59.88023952,657b66ea316d21385b68909f,,,,,,,,,,,886.2095,887.206,,,887.706,887.9561,,139,139,,,,,,,,,,,,,,,,bars/049.png,bars/mask004.png,,,,,,,,,,,,2,1,,,,,,,6,2,7,2,,,,,,,,,,,887.2061,887.706,887.9561,890.3729,space,2.4013,,890.373,21,24,891.3724,891.3725,891.3977,,,,0,27,27,27,1,160,115,,,,,,,,
,,6581ced34f993b2b0f63defc,65af54ad5f1f6da7183dc7a2,2024-01-23_07h58.15.491,bars,2023.2.3,Win32,59.88023952,657b66ea316d21385b68909f,,,,,,,,,,,891.3982,892.3896,,,892.8898,893.1398,,150,-30,,,,,,,,,,,,,,,,bars/038.png,bars/mask005.png,,,,,,,,,,,,2,1,,,,,,,4,0,3,1,,,,,,,,,,,892.3897,892.8897,893.14,897.2902,space,4.119,,897.2904,15,80,898.2895,898.2897,898.3125,,,,0,28,28,28,1,165,70,,,,,,,,
,,6581ced34f993b2b0f63defc,65af54ad5f1f6da7183dc7a2,2024-01-23_07h58.15.491,bars,2023.2.3,Win32,59.88023952,657b66ea316d21385b68909f,,,,,,,,,,,898.313,899.3059,,,899.806,900.0559,,175,-5,,,,,,,,,,,,,,,,bars/020.png,bars/mask008.png,,,,,,,,,,,,1,2,,,,,,,6,2,6,1,,,,,,,,,,,899.306,899.8059,900.0559,903.7397,space,3.6702,,903.7398,60,5,904.7317,904.7317,904.7543,,,,0,29,29,29,1,115,170,,,,,,,,
,,6581ced34f993b2b0f63defc,65af54ad5f1f6da7183dc7a2,2024-01-23_07h58.15.491,bars,2023.2.3,Win32,59.88023952,657b66ea316d21385b68909f,,,,,,,,,,,904.7554,905.7467,,,906.2495,906.4898,,137,-43,,,,,,,,,,,,,,,,bars/003.png,bars/mask006.png,,,,,,,,,,,,1,2,,,,,,,4,0,2,1,,,,,,,,,,,905.7467,906.2494,906.49,909.3861,space,2.8703,,909.3862,68,3,910.3895,910.3896,910.4122,,,,0,30,30,30,1,25,140,,,,,,,,
,,6581ced34f993b2b0f63defc,65af54ad5f1f6da7183dc7a2,2024-01-23_07h58.15.491,bars,2023.2.3,Win32,59.88023952,657b66ea316d21385b68909f,,,,,,,,,,,910.4127,911.4066,,,911.9066,912.1558,,115,115,,,,,,,,,,,,,,,,bars/019.png,bars/mask005.png,,,,,,,,,,,,2,2,,,,,,,2,2,1,3,,,,,,,,,,,911.4068,911.9063,912.1559,914.8335,space,2.6517,,914.8336,70,10,915.8223,915.8225,915.8419,,,,0,31,31,31,1,45,105,,,,,,,,
,,6581ced34f993b2b0f63defc,65af54ad5f1f6da7183dc7a2,2024-01-23_07h58.15.491,bars,2023.2.3,Win32,59.88023952,657b66ea316d21385b68909f,,,,,,,,,,,915.8424,916.8396,,,917.3404,917.5899,,19,19,,,,,,,,,,,,,,,,bars/032.png,bars/mask004.png,,,,,,,,,,,,4,2,,,,,,,4,4,3,4,,,,,,,,,,,916.8398,917.3402,917.5901,919.9447,space,2.3279,,919.9448,74,1,920.9398,920.9399,920.9432,,,,0,32,32,32,1,125,20,,,,,,,,
,,6581ced34f993b2b0f63defc,65af54ad5f1f6da7183dc7a2,2024-01-23_07h58.15.491,bars,2023.2.3,Win32,59.88023952,657b66ea316d21385b68909f,,,,,,,,,,,920.9448,921.9395,,,922.4397,922.6898,,173,173,,,,,,,,,,,,,,,,bars/024.png,bars/mask005.png,,,,,,,,,,,,4,2,,,,,,,6,6,4,4,,,,,,,,,,,921.9397,922.4396,922.69,926.8339,space,4.1185,,926.834,53,3,927.8225,927.8226,927.8456,,,,0,33,33,33,1,120,170,,,,,,,,
,,6581ced34f993b2b0f63defc,65af54ad5f1f6da7183dc7a2,2024-01-23_07h58.15.491,bars,2023.2.3,Win32,59.88023952,657b66ea316d21385b68909f,,,,,,,,,,,927.846,928.8482,,,929.3397,929.5898,,1,181,,,,,,,,,,,,,,,,bars/020.png,bars/mask006.png,,,,,,,,,,,,5,2,,,,,,,4,8,4,8,,,,,,,,,,,928.8482,929.3395,929.5899,932.067,space,2.4518,,932.0671,66,11,933.0558,933.0559,933.0584,,,,0,34,34,34,1,115,170,,,,,,,,
,,6581ced34f993b2b0f63defc,65af54ad5f1f6da7183dc7a2,2024-01-23_07h58.15.491,bars,2023.2.3,Win32,59.88023952,657b66ea316d21385b68909f,,,,,,,,,,,933.0597,934.0558,,,934.5559,934.8059,,34,34,,,,,,,,,,,,,,,,bars/013.png,bars/mask004.png,,,,,,,,,,,,2,2,,,,,,,2,10,1,9,,,,,,,,,,,934.0559,934.5559,934.8059,937.4741,space,2.6531,,937.4742,41,24,938.4625,938.4627,938.4896,,,,0,35,35,35,1,75,10,,,,,,,,
,,6581ced34f993b2b0f63defc,65af54ad5f1f6da7183dc7a2,2024-01-23_07h58.15.491,bars,2023.2.3,Win32,59.88023952,657b66ea316d21385b68909f,,,,,,,,,,,938.4904,939.4829,,,939.9729,940.2223,,159,-21,,,,,,,,,,,,,,,,bars/033.png,bars/mask000.png,,,,,,,,,,,,7,2,,,,,,,4,8,3,8,,,,,,,,,,,939.483,939.9725,940.2225,943.8335,space,3.5852,,943.8336,46,4,944.8223,944.8223,944.8427,,,,0,36,36,36,1,25,155,,,,,,,,
,,6581ced34f993b2b0f63defc,65af54ad5f1f6da7183dc7a2,2024-01-23_07h58.15.491,bars,2023.2.3,Win32,59.88023952,657b66ea316d21385b68909f,,,,,,,,,,,944.8432,945.8396,,,946.3402,946.5898,,46,46,,,,,,,,,,,,,,,,bars/034.png,bars/mask009.png,,,,,,,,,,,,2,2,,,,,,,2,6,2,5,,,,,,,,,,,945.8399,946.3399,946.5901,948.9269,space,2.3102,,948.927,79,19,949.9313,949.9314,949.9527,,,,0,37,37,37,1,125,65,,,,,,,,
,,6581ced34f993b2b0f63defc,65af54ad5f1f6da7183dc7a2,2024-01-23_07h58.15.491,bars,2023.2.3,Win32,59.88023952,657b66ea316d21385b68909f,,,,,,,,,,,949.9532,950.9558,,,951.4558,951.7067,,94,94,,,,,,,,,,,,,,,,bars/018.png,bars/mask002.png,,,,,,,,,,,,9,2,,,,,,,4,8,4,10,,,,,,,,,,,950.9559,951.4557,951.7069,954.5345,space,2.8016,,954.5346,56,4,955.5394,955.5396,955.5621,,,,0,38,38,38,1,150,90,,,,,,,,
,,6581ced34f993b2b0f63defc,65af54ad5f1f6da7183dc7a2,2024-01-23_07h58.15.491,bars,2023.2.3,Win32,59.88023952,657b66ea316d21385b68909f,,,,,,,,,,,955.5626,956.5558,,,957.0565,957.3059,,152,152,,,,,,,,,,,,,,,,bars/015.png,bars/mask002.png,,,,,,,,,,,,4,2,,,,,,,2,6,2,5,,,,,,,,,,,956.556,957.0563,957.3061,959.8292,space,2.4976,,959.8293,42,8,960.8224,960.8226,960.8478,,,,0,39,39,39,1,110,160,,,,,,,,
,,6581ced34f993b2b0f63defc,65af54ad5f1f6da7183dc7a2,2024-01-23_07h58.15.491,bars,2023.2.3,Win32,59.88023952,657b66ea316d21385b68909f,,,,,,,,,,,960.8486,961.8393,,,962.3399,962.5906,,91,91,,,,,,,,,,,,,,,,bars/046.png,bars/mask001.png,,,,,,,,,,,,6,2,,,,,,,4,8,2,7,,,,,,,,,,,961.8396,962.3397,962.5908,966.7082,space,4.0875,,966.7083,64,6,967.7061,967.7062,967.7286,,,,0,40,40,40,1,155,85,,,,,,,,
,,6581ced34f993b2b0f63defc,65af54ad5f1f6da7183dc7a2,2024-01-23_07h58.15.491,bars,2023.2.3,Win32,59.88023952,657b66ea316d21385b68909f,,,,,,,,,,,967.7293,968.7224,,,969.2225,969.4724,,61,61,,,,,,,,,,,,,,,,bars/041.png,bars/mask004.png,,,,,,,,,,,,2,2,,,,,,,6,10,5,10,,,,,,,,,,,968.7225,969.2223,969.4725,972.6672,space,3.1689,,972.6673,41,24,973.6557,973.6559,973.6785,,,,0,41,41,41,1,20,85,,,,,,,,
,,6581ced34f993b2b0f63defc,65af54ad5f1f6da7183dc7a2,2024-01-23_07h58.15.491,bars,2023.2.3,Win32,59.88023952,657b66ea316d21385b68909f,,,,,,,,,,,973.6792,974.6724,,,975.1654,975.4061,,21,21,,,,,,,,,,,,,,,,bars/022.png,bars/mask004.png,,,,,,,,,,,,10,2,,,,,,,8,8,8,10,,,,,,,,,,,974.6725,975.1653,975.4063,979.0561,space,3.6198,,979.0562,74,1,980.0559,980.056,980.0787,,,,0,42,42,42,1,95,20,,,,,,,,
,,6581ced34f993b2b0f63defc,65af54ad5f1f6da7183dc7a2,2024-01-23_07h58.15.491,bars,2023.2.3,Win32,59.88023952,657b66ea316d21385b68909f,,,,,,,,,,,980.0793,981.0724,,,981.5687,981.8228,,74,74,,,,,,,,,,,,,,,,bars/042.png,bars/mask002.png,,,,,,,,,,,,6,2,,,,,,,10,6,10,6,,,,,,,,,,,981.0725,981.5687,981.823,985.5172,space,3.6685,,985.5173,71,1,986.5058,986.5059,986.5278,,,,0,43,43,43,1,145,75,,,,,,,,
,,6581ced34f993b2b0f63defc,65af54ad5f1f6da7183dc7a2,2024-01-23_07h58.15.491,bars,2023.2.3,Win32,59.88023952,657b66ea316d21385b68909f,,,,,,,,,,,986.5283,987.5222,,,988.0226,988.2821,,156,-24,,,,,,,,,,,,,,,,bars/015.png,bars/mask007.png,,,,,,,,,,,,4,2,,,,,,,8,4,10,5,,,,,,,,,,,987.5224,988.0225,988.2822,991.4751,space,3.1721,,991.4754,46,4,992.4642,992.4644,992.4877,,,,0,44,44,44,1,110,160,,,,,,,,
,,6581ced34f993b2b0f63defc,65af54ad5f1f6da7183dc7a2,2024-01-23_07h58.15.491,bars,2023.2.3,Win32,59.88023952,657b66ea316d21385b68909f,,,,,,,,,,,992.4885,993.4977,,,993.989,994.2392,,132,-48,,,,,,,,,,,,,,,,bars/044.png,bars/mask007.png,,,,,,,,,,,,0,2,,,,,,,6,2,7,2,,,,,,,,,,,993.4977,993.989,994.2393,998.5726,space,4.3183,,998.5728,57,23,999.5725,999.5725,999.595,,,,0,45,45,45,1,75,155,,,,,,,,
,,6581ced34f993b2b0f63defc,65af54ad5f1f6da7183dc7a2,2024-01-23_07h58.15.491,bars,2023.2.3,Win32,59.88023952,657b66ea316d21385b68909f,,,,,,,,,,,999.5958,1000.5893,,,1001.0892,1001.3395,,100,100,,,,,,,,,,,,,,,,bars/037.png,bars/mask007.png,,,,,,,,,,,,0,2,,,,,,,4,0,5,0,,,,,,,,,,,1000.5894,1001.0892,1001.3395,1003.8229,space,2.471,,1003.8229,50,5,1004.8225,1004.8226,1004.8472,,,,0,46,46,46,1,150,105,,,,,,,,
,,6581ced34f993b2b0f63defc,65af54ad5f1f6da7183dc7a2,2024-01-23_07h58.15.491,bars,2023.2.3,Win32,59.88023952,657b66ea316d21385b68909f,,,,,,,,,,,1004.8477,1005.8391,,,1006.3392,1006.5895,,169,169,,,,,,,,,,,,,,,,bars/044.png,bars/mask005.png,,,,,,,,,,,,1,2,,,,,,,2,2,2,2,,,,,,,,,,,1005.8392,1006.3391,1006.5895,1009.0557,space,2.4496,,1009.0559,86,14,1010.0555,1010.0556,1010.0752,,,,0,47,47,47,1,75,155,,,,,,,,
,,6581ced34f993b2b0f63defc,65af54ad5f1f6da7183dc7a2,2024-01-23_07h58.15.491,bars,2023.2.3,Win32,59.88023952,657b66ea316d21385b68909f,,,,,,,,,,,1010.0757,1011.0727,,,1011.573,1011.8227,,56,56,,,,,,,,,,,,,,,,bars/017.png,bars/mask004.png,,,,,,,,,,,,3,2,,,,,,,0,4,1,5,,,,,,,,,,,1011.0729,1011.5728,1011.8228,1013.7668,space,1.918,,1013.7669,89,11,1014.7555,1014.7557,1014.7769,,,,0,48,48,48,1,145,45,,,,,,,,
,,6581ced34f993b2b0f63defc,65af54ad5f1f6da7183dc7a2,2024-01-23_07h58.15.491,bars,2023.2.3,Win32,59.88023952,657b66ea316d21385b68909f,,,,,,,,,,,1014.7774,1015.7728,,,1016.2649,1016.5067,,62,62,,,,,,,,,,,,,,,,bars/029.png,bars/mask004.png,,,,,,,,,,,,1,2,,,,,,,2,2,3,2,,,,,,,,,,,1015.773,1016.2649,1016.5067,1018.729,space,2.1962,,1018.7291,28,17,1019.7224,1019.7227,1019.7261,,,,0,49,49,49,1,90,45,,,,,,,,
,,6581ced34f993b2b0f63defc,65af54ad5f1f6da7183dc7a2,2024-01-23_07h58.15.491,bars,2023.2.3,Win32,59.88023952,657b66ea316d21385b68909f,,,,,,,,,,,,,,,,,,,,,,,,,,,,,,,,,,,,,,,,,,,,,,,,,,,,,,,,,,,,,,,,,,,,,,,,,,,,,,,,,,,,,,,,,,,,,1019.7268,1079.7229,0,1,1,3,1,sequence_tables/blk028.csv
,,6581ced34f993b2b0f63defc,65af54ad5f1f6da7183dc7a2,2024-01-23_07h58.15.491,bars,2023.2.3,Win32,59.88023952,657b66ea316d21385b68909f,,,,,,,,,,,1097.7394,1098.7054,,,1099.1984,1099.4399,,127,127,,,,,,,,,,,,,,,,bars/000.png,bars/mask009.png,,,,,,,,,,,,2,2,,,,,,,5,5,4,5,,,,,,1079.75,1097.7008,space,17.9303,,1098.7055,1099.1982,1099.4403,1104.15,space,4.6854,,1104.1501,87,18,1105.139,1105.1391,1105.1601,,,,0,0,0,0,1,40,145,,,,,,,,
,,6581ced34f993b2b0f63defc,65af54ad5f1f6da7183dc7a2,2024-01-23_07h58.15.491,bars,2023.2.3,Win32,59.88023952,657b66ea316d21385b68909f,,,,,,,,,,,1105.1607,1106.1504,,,1106.6396,1106.8892,,136,136,,,,,,,,,,,,,,,,bars/043.png,bars/mask007.png,,,,,,,,,,,,2,2,,,,,,,3,3,2,2,,,,,,,,,,,1106.1506,1106.6392,1106.8894,1108.5289,space,1.614,,1108.529,74,6,1109.5223,1109.5228,1109.5268,,,,0,1,1,1,1,30,130,,,,,,,,
,,6581ced34f993b2b0f63defc,65af54ad5f1f6da7183dc7a2,2024-01-23_07h58.15.491,bars,2023.2.3,Win32,59.88023952,657b66ea316d21385b68909f,,,,,,,,,,,1109.528,1110.5227,,,1111.0229,1111.2722,,152,-28,,,,,,,,,,,,,,,,bars/003.png,bars/mask008.png,,,,,,,,,,,,1,2,,,,,,,5,1,6,1,,,,,,,,,,,1110.5228,1111.0226,1111.2722,1114.7398,space,3.4361,,1114.7401,53,12,1115.7393,1115.7395,1115.7623,,,,0,2,2,2,1,25,140,,,,,,,,
,,6581ced34f993b2b0f63defc,65af54ad5f1f6da7183dc7a2,2024-01-23_07h58.15.491,bars,2023.2.3,Win32,59.88023952,657b66ea316d21385b68909f,,,,,,,,,,,1115.7628,1116.7555,,,1117.2557,1117.5056,,14,194,,,,,,,,,,,,,,,,bars/023.png,bars/mask004.png,,,,,,,,,,,,4,1,,,,,,,3,3,5,4,,,,,,,,,,,1116.7556,1117.2556,1117.5056,1121.1226,space,3.605,,1121.1227,6,79,1122.1222,1122.1222,1122.1499,,,,0,3,3,3,1,20,115,,,,,,,,
,,6581ced34f993b2b0f63defc,65af54ad5f1f6da7183dc7a2,2024-01-23_07h58.15.491,bars,2023.2.3,Win32,59.88023952,657b66ea316d21385b68909f,,,,,,,,,,,1122.1506,1123.1389,,,1123.6402,1123.8988,,109,-71,,,,,,,,,,,,,,,,bars/040.png,bars/mask008.png,,,,,,,,,,,,0,1,,,,,,,1,5,1,5,,,,,,,,,,,1123.139,1123.6401,1123.8988,1127.8558,space,3.9338,,1127.856,31,76,1128.8555,1128.8556,1128.8775,,,,0,4,4,4,1,140,5,,,,,,,,
,,6581ced34f993b2b0f63defc,65af54ad5f1f6da7183dc7a2,2024-01-23_07h58.15.491,bars,2023.2.3,Win32,59.88023952,657b66ea316d21385b68909f,,,,,,,,,,,1128.8781,1129.8722,,,1130.3723,1130.6227,,54,234,,,,,,,,,,,,,,,,bars/007.png,bars/mask001.png,,,,,,,,,,,,2,2,,,,,,,0,3,0,2,,,,,,,,,,,1129.8724,1130.3721,1130.6229,1134.3337,space,3.6855,,1134.3339,59,1,1135.3229,1135.3231,1135.3483,,,,0,5,5,5,1,175,55,,,,,,,,
,,6581ced34f993b2b0f63defc,65af54ad5f1f6da7183dc7a2,2024-01-23_07h58.15.491,bars,2023.2.3,Win32,59.88023952,657b66ea316d21385b68909f,,,,,,,,,,,1135.3489,1136.3392,,,1136.8392,1137.0889,,46,46,,,,,,,,,,,,,,,,bars/013.png,bars/mask003.png,,,,,,,,,,,,0,1,,,,,,,2,1,3,1,,,,,,,,,,,1136.3393,1136.8391,1137.089,1138.9392,space,1.8353,,1138.9393,29,36,1139.9395,1139.9397,1139.9462,,,,0,6,6,6,1,75,10,,,,,,,,
,,6581ced34f993b2b0f63defc,65af54ad5f1f6da7183dc7a2,2024-01-23_07h58.15.491,bars,2023.2.3,Win32,59.88023952,657b66ea316d21385b68909f,,,,,,,,,,,1139.9468,1140.9391,,,1141.44,1141.6978,,160,160,,,,,,,,,,,,,,,,bars/008.png,bars/mask001.png,,,,,,,,,,,,1,2,,,,,,,4,3,5,3,,,,,,,,,,,1140.9392,1141.4399,1141.6979,1144.9334,space,3.2185,,1144.9336,50,20,1145.9225,1145.9229,1145.9479,,,,0,7,7,7,1,110,0,,,,,,,,
,,6581ced34f993b2b0f63defc,65af54ad5f1f6da7183dc7a2,2024-01-23_07h58.15.491,bars,2023.2.3,Win32,59.88023952,657b66ea316d21385b68909f,,,,,,,,,,,1145.9486,1146.9507,,,1147.4396,1147.6842,,39,39,,,,,,,,,,,,,,,,bars/012.png,bars/mask003.png,,,,,,,,,,,,1,2,,,,,,,2,5,1,6,,,,,,,,,,,1146.9509,1147.4394,1147.6843,1149.4898,space,1.7843,,1149.49,51,24,1150.4892,1150.4893,1150.5114,,,,0,8,8,8,1,90,15,,,,,,,,
,,6581ced34f993b2b0f63defc,65af54ad5f1f6da7183dc7a2,2024-01-23_07h58.15.491,bars,2023.2.3,Win32,59.88023952,657b66ea316d21385b68909f,,,,,,,,,,,1150.512,1151.5057,,,1152.0056,1152.2555,,106,106,,,,,,,,,,,,,,,,bars/001.png,bars/mask008.png,,,,,,,,,,,,1,2,,,,,,,4,3,4,4,,,,,,,,,,,1151.5058,1152.0054,1152.2556,1154.9289,space,2.6517,,1154.929,24,21,1155.9222,1155.9223,1155.9452,,,,0,9,9,9,1,130,85,,,,,,,,
,,6581ced34f993b2b0f63defc,65af54ad5f1f6da7183dc7a2,2024-01-23_07h58.15.491,bars,2023.2.3,Win32,59.88023952,657b66ea316d21385b68909f,,,,,,,,,,,1155.9457,1156.9391,,,1157.4393,1157.6894,,86,-94,,,,,,,,,,,,,,,,bars/039.png,bars/mask000.png,,,,,,,,,,,,2,2,,,,,,,2,5,3,5,,,,,,,,,,,1156.9391,1157.4392,1157.6895,1162.7898,space,5.0709,,1162.7899,89,19,1163.7891,1163.7892,1163.8103,,,,0,10,10,10,1,175,105,,,,,,,,
,,6581ced34f993b2b0f63defc,65af54ad5f1f6da7183dc7a2,2024-01-23_07h58.15.491,bars,2023.2.3,Win32,59.88023952,657b66ea316d21385b68909f,,,,,,,,,,,1163.811,1164.8054,,,1165.3062,1165.5487,,51,51,,,,,,,,,,,,,,,,bars/025.png,bars/mask002.png,,,,,,,,,,,,4,2,,,,,,,0,7,0,6,,,,,,,,,,,1164.8055,1165.306,1165.5487,1168.0831,space,2.5186,,1168.0832,54,11,1169.072,1169.0721,1169.092,,,,0,11,11,11,1,105,40,,,,,,,,
,,6581ced34f993b2b0f63defc,65af54ad5f1f6da7183dc7a2,2024-01-23_07h58.15.491,bars,2023.2.3,Win32,59.88023952,657b66ea316d21385b68909f,,,,,,,,,,,1169.0924,1170.0892,,,1170.5896,1170.839,,167,167,,,,,,,,,,,,,,,,bars/035.png,bars/mask008.png,,,,,,,,,,,,0,1,,,,,,,0,9,0,8,,,,,,,,,,,1170.0894,1170.5895,1170.8393,1171.14,space,0.2695,,1171.1402,8,73,1172.1395,1172.1397,1172.1467,,,,0,12,12,12,1,175,60,,,,,,,,
,,6581ced34f993b2b0f63defc,65af54ad5f1f6da7183dc7a2,2024-01-23_07h58.15.491,bars,2023.2.3,Win32,59.88023952,657b66ea316d21385b68909f,,,,,,,,,,,1172.1474,1173.139,,,1173.6393,1173.8899,,107,107,,,,,,,,,,,,,,,,bars/019.png,bars/mask000.png,,,,,,,,,,,,7,2,,,,,,,2,7,3,7,,,,,,,,,,,1173.1394,1173.639,1173.8902,1176.1731,space,2.2528,,1176.1734,62,2,1177.1723,1177.1724,1177.1977,,,,0,13,13,13,1,45,105,,,,,,,,
,,6581ced34f993b2b0f63defc,65af54ad5f1f6da7183dc7a2,2024-01-23_07h58.15.491,bars,2023.2.3,Win32,59.88023952,657b66ea316d21385b68909f,,,,,,,,,,,1177.1983,1178.1929,,,1178.6897,1178.9507,,63,63,,,,,,,,,,,,,,,,bars/035.png,bars/mask006.png,,,,,,,,,,,,9,2,,,,,,,0,9,0,10,,,,,,,,,,,1178.1931,1178.6893,1178.9508,1182.2122,space,3.2481,,1182.2123,68,3,1183.2053,1183.2054,1183.2293,,,,0,14,14,14,1,175,60,,,,,,,,
,,6581ced34f993b2b0f63defc,65af54ad5f1f6da7183dc7a2,2024-01-23_07h58.15.491,bars,2023.2.3,Win32,59.88023952,657b66ea316d21385b68909f,,,,,,,,,,,1183.2301,1184.2218,,,1184.7161,1184.956,,103,103,,,,,,,,,,,,,,,,bars/026.png,bars/mask008.png,,,,,,,,,,,,3,2,,,,,,,0,7,1,7,,,,,,,,,,,1184.222,1184.716,1184.9562,1187.479,space,2.4973,,1187.4791,68,18,1188.4721,1188.4722,1188.4972,,,,0,15,15,15,1,35,85,,,,,,,,
,,6581ced34f993b2b0f63defc,65af54ad5f1f6da7183dc7a2,2024-01-23_07h58.15.491,bars,2023.2.3,Win32,59.88023952,657b66ea316d21385b68909f,,,,,,,,,,,1188.4979,1189.4888,,,1189.989,1190.239,,25,25,,,,,,,,,,,,,,,,bars/035.png,bars/mask006.png,,,,,,,,,,,,0,1,,,,,,,0,9,2,6,,,,,,,,,,,1189.4889,1189.9889,1190.239,1190.6557,space,0.3976,,1190.6559,30,35,1191.6553,1191.6554,1191.6621,,,,0,16,16,16,1,175,60,,,,,,,,
,,6581ced34f993b2b0f63defc,65af54ad5f1f6da7183dc7a2,2024-01-23_07h58.15.491,bars,2023.2.3,Win32,59.88023952,657b66ea316d21385b68909f,,,,,,,,,,,1191.6628,1192.6552,,,1193.1554,1193.4052,,161,161,,,,,,,,,,,,,,,,bars/024.png,bars/mask006.png,,,,,,,,,,,,5,2,,,,,,,2,7,2,7,,,,,,,,,,,1192.6553,1193.1552,1193.4053,1197.8164,space,4.399,,1197.8165,41,9,1198.8054,1198.8055,1198.8295,,,,0,17,17,17,1,120,170,,,,,,,,
,,6581ced34f993b2b0f63defc,65af54ad5f1f6da7183dc7a2,2024-01-23_07h58.15.491,bars,2023.2.3,Win32,59.88023952,657b66ea316d21385b68909f,,,,,,,,,,,1198.83,1199.8221,,,1200.322,1200.5719,,89,89,,,,,,,,,,,,,,,,bars/026.png,bars/mask004.png,,,,,,,,,,,,3,2,,,,,,,0,5,0,4,,,,,,,,,,,1199.8221,1200.3219,1200.5719,1203.1057,space,2.5152,,1203.1059,54,4,1204.1057,1204.1058,1204.1288,,,,0,18,18,18,1,35,85,,,,,,,,
,,6581ced34f993b2b0f63defc,65af54ad5f1f6da7183dc7a2,2024-01-23_07h58.15.491,bars,2023.2.3,Win32,59.88023952,657b66ea316d21385b68909f,,,,,,,,,,,1204.1294,1205.1231,,,1205.6227,1205.8721,,85,85,,,,,,,,,,,,,,,,bars/047.png,bars/mask002.png,,,,,,,,,,,,4,2,,,,,,,2,7,1,8,,,,,,,,,,,1205.1232,1205.6225,1205.8723,1207.0995,space,1.2008,,1207.0995,70,15,1208.0889,1208.0889,1208.0908,,,,0,19,19,19,1,15,70,,,,,,,,
,,6581ced34f993b2b0f63defc,65af54ad5f1f6da7183dc7a2,2024-01-23_07h58.15.491,bars,2023.2.3,Win32,59.88023952,657b66ea316d21385b68909f,,,,,,,,,,,1208.0916,1209.0889,,,1209.5893,1209.839,,105,105,,,,,,,,,,,,,,,,bars/038.png,bars/mask004.png,,,,,,,,,,,,0,2,,,,,,,0,5,0,5,,,,,,,,,,,1209.0889,1209.5892,1209.8392,1211.6665,space,1.8016,,1211.6666,60,35,1212.6552,1212.6553,1212.6755,,,,0,20,20,20,1,165,70,,,,,,,,
,,6581ced34f993b2b0f63defc,65af54ad5f1f6da7183dc7a2,2024-01-23_07h58.15.491,bars,2023.2.3,Win32,59.88023952,657b66ea316d21385b68909f,,,,,,,,,,,1212.676,1213.6722,,,1214.172,1214.4319,,73,73,,,,,,,,,,,,,,,,bars/002.png,bars/mask009.png,,,,,,,,,,,,2,2,,,,,,,2,3,2,4,,,,,,,,,,,1213.6723,1214.1719,1214.432,1217.4235,space,2.9726,,1217.4237,57,12,1218.4315,1218.4316,1218.4529,,,,0,21,21,21,1,130,85,,,,,,,,
,,6581ced34f993b2b0f63defc,65af54ad5f1f6da7183dc7a2,2024-01-23_07h58.15.491,bars,2023.2.3,Win32,59.88023952,657b66ea316d21385b68909f,,,,,,,,,,,1218.4537,1219.4478,,,1219.9394,1220.1894,,98,98,,,,,,,,,,,,,,,,bars/026.png,bars/mask009.png,,,,,,,,,,,,2,2,,,,,,,4,5,3,4,,,,,,,,,,,1219.448,1219.9392,1220.1895,1223.279,space,3.0627,,1223.2791,63,13,1224.2721,1224.2722,1224.2964,,,,0,22,22,22,1,35,85,,,,,,,,
,,6581ced34f993b2b0f63defc,65af54ad5f1f6da7183dc7a2,2024-01-23_07h58.15.491,bars,2023.2.3,Win32,59.88023952,657b66ea316d21385b68909f,,,,,,,,,,,1224.297,1225.289,,,1225.7891,1226.0389,,166,166,,,,,,,,,,,,,,,,bars/024.png,bars/mask001.png,,,,,,,,,,,,2,2,,,,,,,6,3,5,2,,,,,,,,,,,1225.2891,1225.789,1226.039,1230.6333,space,4.582,,1230.6334,46,4,1231.6224,1231.6227,1231.6454,,,,0,23,23,23,1,120,170,,,,,,,,
,,6581ced34f993b2b0f63defc,65af54ad5f1f6da7183dc7a2,2024-01-23_07h58.15.491,bars,2023.2.3,Win32,59.88023952,657b66ea316d21385b68909f,,,,,,,,,,,1231.6459,1232.639,,,1233.1395,1233.3891,,102,102,,,,,,,,,,,,,,,,bars/037.png,bars/mask009.png,,,,,,,,,,,,3,2,,,,,,,4,1,4,3,,,,,,,,,,,1232.6392,1233.1393,1233.3891,1236.9999,space,3.585,,1236.9999,48,3,1237.9888,1237.9888,1238.0086,,,,0,24,24,24,1,150,105,,,,,,,,
,,6581ced34f993b2b0f63defc,65af54ad5f1f6da7183dc7a2,2024-01-23_07h58.15.491,bars,2023.2.3,Win32,59.88023952,657b66ea316d21385b68909f,,,,,,,,,,,1238.0092,1239.0058,,,1239.5067,1239.7486,,25,25,,,,,,,,,,,,,,,,bars/036.png,bars/mask000.png,,,,,,,,,,,,0,2,,,,,,,2,0,1,0,,,,,,,,,,,1239.006,1239.5065,1239.7487,1241.8608,space,2.0927,,1241.8608,60,5,1242.8553,1242.8554,1242.8772,,,,0,25,25,25,1,145,20,,,,,,,,
,,6581ced34f993b2b0f63defc,65af54ad5f1f6da7183dc7a2,2024-01-23_07h58.15.491,bars,2023.2.3,Win32,59.88023952,657b66ea316d21385b68909f,,,,,,,,,,,1242.8777,1243.8719,,,1244.3722,1244.6147,,110,110,,,,,,,,,,,,,,,,bars/028.png,bars/mask004.png,,,,,,,,,,,,1,2,,,,,,,0,0,1,1,,,,,,,,,,,1243.8721,1244.3721,1244.6148,1247.6953,space,3.0643,,1247.6954,65,10,1248.6891,1248.6892,1248.7139,,,,0,26,26,26,1,45,120,,,,,,,,
,,6581ced34f993b2b0f63defc,65af54ad5f1f6da7183dc7a2,2024-01-23_07h58.15.491,bars,2023.2.3,Win32,59.88023952,657b66ea316d21385b68909f,,,,,,,,,,,1248.7147,1249.7052,,,1250.2054,1250.4552,,103,103,,,,,,,,,,,,,,,,bars/028.png,bars/mask009.png,,,,,,,,,,,,0,2,,,,,,,0,0,1,0,,,,,,,,,,,1249.7053,1250.2052,1250.4553,1254.3496,space,3.8826,,1254.3496,58,17,1255.3388,1255.3388,1255.3593,,,,0,27,27,27,1,45,120,,,,,,,,
,,6581ced34f993b2b0f63defc,65af54ad5f1f6da7183dc7a2,2024-01-23_07h58.15.491,bars,2023.2.3,Win32,59.88023952,657b66ea316d21385b68909f,,,,,,,,,,,1255.3597,1256.3478,,,1256.8391,1257.0888,,173,173,,,,,,,,,,,,,,,,bars/016.png,bars/mask001.png,,,,,,,,,,,,0,2,,,,,,,0,0,0,0,,,,,,,,,,,1256.3479,1256.839,1257.0889,1261.3221,space,4.2194,,1261.3222,47,8,1262.3219,1262.322,1262.3416,,,,0,28,28,28,1,40,165,,,,,,,,
,,6581ced34f993b2b0f63defc,65af54ad5f1f6da7183dc7a2,2024-01-23_07h58.15.491,bars,2023.2.3,Win32,59.88023952,657b66ea316d21385b68909f,,,,,,,,,,,1262.3423,1263.3391,,,1263.8396,1264.0888,,37,217,,,,,,,,,,,,,,,,bars/032.png,bars/mask001.png,,,,,,,,,,,,1,2,,,,,,,0,2,0,2,,,,,,,,,,,1263.3393,1263.8394,1264.089,1268.2893,space,4.1714,,1268.2894,88,17,1269.2887,1269.2887,1269.3119,,,,0,29,29,29,1,125,20,,,,,,,,
,,6581ced34f993b2b0f63defc,65af54ad5f1f6da7183dc7a2,2024-01-23_07h58.15.491,bars,2023.2.3,Win32,59.88023952,657b66ea316d21385b68909f,,,,,,,,,,,1269.3126,1270.3054,,,1270.8054,1271.0554,,137,137,,,,,,,,,,,,,,,,bars/043.png,bars/mask005.png,,,,,,,,,,,,2,2,,,,,,,2,4,3,3,,,,,,,,,,,1270.3055,1270.8054,1271.0554,1275.0062,space,3.9353,,1275.0064,73,7,1276.0054,1276.0055,1276.0285,,,,0,30,30,30,1,30,130,,,,,,,,
,,6581ced34f993b2b0f63defc,65af54ad5f1f6da7183dc7a2,2024-01-23_07h58.15.491,bars,2023.2.3,Win32,59.88023952,657b66ea316d21385b68909f,,,,,,,,,,,1276.0289,1277.022,,,1277.522,1277.7815,,12,12,,,,,,,,,,,,,,,,bars/012.png,bars/mask002.png,,,,,,,,,,,,2,2,,,,,,,4,2,4,2,,,,,,,,,,,1277.022,1277.5219,1277.7817,1281.0329,space,3.2346,,1281.0331,78,3,1282.0233,1282.0234,1282.0448,,,,0,31,31,31,1,90,15,,,,,,,,
,,6581ced34f993b2b0f63defc,65af54ad5f1f6da7183dc7a2,2024-01-23_07h58.15.491,bars,2023.2.3,Win32,59.88023952,657b66ea316d21385b68909f,,,,,,,,,,,1282.0453,1283.0408,,,1283.5394,1283.789,,45,45,,,,,,,,,,,,,,,,bars/031.png,bars/mask001.png,,,,,,,,,,,,3,2,,,,,,,6,4,6,4,,,,,,,,,,,1283.041,1283.5393,1283.789,1288.0392,space,4.2191,,1288.0394,75,10,1289.0387,1289.0388,1289.0589,,,,0,32,32,32,1,120,35,,,,,,,,
,,6581ced34f993b2b0f63defc,65af54ad5f1f6da7183dc7a2,2024-01-23_07h58.15.491,bars,2023.2.3,Win32,59.88023952,657b66ea316d21385b68909f,,,,,,,,,,,1289.0594,1290.0558,,,1290.5561,1290.8055,,69,69,,,,,,,,,,,,,,,,bars/002.png,bars/mask004.png,,,,,,,,,,,,2,2,,,,,,,8,6,7,5,,,,,,,,,,,1290.0559,1290.5559,1290.8057,1293.5335,space,2.7016,,1293.5336,61,16,1294.522,1294.522,1294.5467,,,,0,33,33,33,1,130,85,,,,,,,,
,,6581ced34f993b2b0f63defc,65af54ad5f1f6da7183dc7a2,2024-01-23_07h58.15.491,bars,2023.2.3,Win32,59.88023952,657b66ea316d21385b68909f,,,,,,,,,,,1294.5473,1295.5388,,,1296.039,1296.2887,,151,151,,,,,,,,,,,,,,,,bars/029.png,bars/mask002.png,,,,,,,,,,,,0,1,,,,,,,6,4,6,5,,,,,,,,,,,1295.5389,1296.0389,1296.2887,1297.5557,space,1.2469,,1297.5558,61,74,1298.5552,1298.5553,1298.5616,,,,0,34,34,34,1,90,45,,,,,,,,
,,6581ced34f993b2b0f63defc,65af54ad5f1f6da7183dc7a2,2024-01-23_07h58.15.491,bars,2023.2.3,Win32,59.88023952,657b66ea316d21385b68909f,,,,,,,,,,,1298.5622,1299.5554,,,1300.0556,1300.3056,,70,70,,,,,,,,,,,,,,,,bars/007.png,bars/mask006.png,,,,,,,,,,,,2,2,,,,,,,8,2,7,3,,,,,,,,,,,1299.5555,1300.0555,1300.3057,1301.489,space,1.1572,,1301.4892,75,15,1302.4889,1302.4889,1302.4984,,,,0,35,35,35,1,175,55,,,,,,,,
,,6581ced34f993b2b0f63defc,65af54ad5f1f6da7183dc7a2,2024-01-23_07h58.15.491,bars,2023.2.3,Win32,59.88023952,657b66ea316d21385b68909f,,,,,,,,,,,1302.4991,1303.489,,,1303.989,1304.2387,,148,148,,,,,,,,,,,,,,,,bars/005.png,bars/mask007.png,,,,,,,,,,,,0,2,,,,,,,6,0,7,0,,,,,,,,,,,1303.489,1303.989,1304.2388,1304.9785,space,0.7316,,1304.9786,42,8,1305.9718,1305.9719,1305.974,,,,0,36,36,36,1,10,140,,,,,,,,
,,6581ced34f993b2b0f63defc,65af54ad5f1f6da7183dc7a2,2024-01-23_07h58.15.491,bars,2023.2.3,Win32,59.88023952,657b66ea316d21385b68909f,,,,,,,,,,,1305.9748,1306.9718,,,1307.4722,1307.7219,,55,55,,,,,,,,,,,,,,,,bars/029.png,bars/mask009.png,,,,,,,,,,,,1,2,,,,,,,4,2,3,1,,,,,,,,,,,1306.972,1307.4721,1307.722,1312.056,space,4.3032,,1312.056,35,10,1313.0451,1313.0451,1313.0659,,,,0,37,37,37,1,90,45,,,,,,,,
,,6581ced34f993b2b0f63defc,65af54ad5f1f6da7183dc7a2,2024-01-23_07h58.15.491,bars,2023.2.3,Win32,59.88023952,657b66ea316d21385b68909f,,,,,,,,,,,1313.0664,1314.0551,,,1314.5552,1314.805,,54,54,,,,,,,,,,,,,,,,bars/024.png,bars/mask008.png,,,,,,,,,,,,0,2,,,,,,,2,4,1,4,,,,,,,,,,,1314.0551,1314.555,1314.805,1314.8555,space,0.0353,,1314.8556,66,64,1315.8553,1315.8553,1315.8569,,,,0,38,38,38,1,120,170,,,,,,,,
,,6581ced34f993b2b0f63defc,65af54ad5f1f6da7183dc7a2,2024-01-23_07h58.15.491,bars,2023.2.3,Win32,59.88023952,657b66ea316d21385b68909f,,,,,,,,,,,1315.8579,1316.8552,,,1317.3558,1317.6148,,160,-20,,,,,,,,,,,,,,,,bars/020.png,bars/mask003.png,,,,,,,,,,,,4,2,,,,,,,4,6,4,6,,,,,,,,,,,1316.8553,1317.3555,1317.615,1324.3332,space,6.7017,,1324.3333,45,10,1325.3216,1325.3218,1325.3433,,,,0,39,39,39,1,115,170,,,,,,,,
,,6581ced34f993b2b0f63defc,65af54ad5f1f6da7183dc7a2,2024-01-23_07h58.15.491,bars,2023.2.3,Win32,59.88023952,657b66ea316d21385b68909f,,,,,,,,,,,1325.3438,1326.3391,,,1326.839,1327.0894,,128,128,,,,,,,,,,,,,,,,bars/043.png,bars/mask003.png,,,,,,,,,,,,2,2,,,,,,,2,4,2,2,,,,,,,,,,,1326.3391,1326.839,1327.0895,1329.5331,space,2.4182,,1329.5332,82,2,1330.5217,1330.5217,1330.5415,,,,0,40,40,40,1,30,130,,,,,,,,
,,6581ced34f993b2b0f63defc,65af54ad5f1f6da7183dc7a2,2024-01-23_07h58.15.491,bars,2023.2.3,Win32,59.88023952,657b66ea316d21385b68909f,,,,,,,,,,,1330.542,1331.5389,,,1332.0392,1332.2889,,165,165,,,,,,,,,,,,,,,,bars/016.png,bars/mask003.png,,,,,,,,,,,,2,2,,,,,,,4,2,7,2,,,,,,,,,,,1331.5392,1332.0389,1332.2893,1334.1329,space,1.8185,,1334.133,55,0,1335.1232,1335.1235,1335.1264,,,,0,41,41,41,1,40,165,,,,,,,,
,,6581ced34f993b2b0f63defc,65af54ad5f1f6da7183dc7a2,2024-01-23_07h58.15.491,bars,2023.2.3,Win32,59.88023952,657b66ea316d21385b68909f,,,,,,,,,,,1335.1273,1336.122,,,1336.6222,1336.8717,,105,105,,,,,,,,,,,,,,,,bars/028.png,bars/mask000.png,,,,,,,,,,,,3,2,,,,,,,6,4,7,5,,,,,,,,,,,1336.1222,1336.6221,1336.8718,1339.7778,space,2.8786,,1339.7779,60,15,1340.7729,1340.773,1340.7949,,,,0,42,42,42,1,45,120,,,,,,,,
,,6581ced34f993b2b0f63defc,65af54ad5f1f6da7183dc7a2,2024-01-23_07h58.15.491,bars,2023.2.3,Win32,59.88023952,657b66ea316d21385b68909f,,,,,,,,,,,1340.7956,1341.7892,,,1342.2891,1342.5491,,14,194,,,,,,,,,,,,,,,,bars/022.png,bars/mask008.png,,,,,,,,,,,,2,2,,,,,,,4,2,4,3,,,,,,,,,,,1341.7894,1342.289,1342.5491,1346.1504,space,3.5845,,1346.1505,81,6,1347.1389,1347.139,1347.1612,,,,0,43,43,43,1,95,20,,,,,,,,
,,6581ced34f993b2b0f63defc,65af54ad5f1f6da7183dc7a2,2024-01-23_07h58.15.491,bars,2023.2.3,Win32,59.88023952,657b66ea316d21385b68909f,,,,,,,,,,,1347.1617,1348.1556,,,1348.6439,1348.885,,137,137,,,,,,,,,,,,,,,,bars/023.png,bars/mask003.png,,,,,,,,,,,,0,2,,,,,,,6,0,5,1,,,,,,,,,,,1348.1558,1348.6439,1348.8851,1351.2786,space,2.3771,,1351.2787,63,22,1352.2718,1352.2719,1352.2936,,,,0,44,44,44,1,20,115,,,,,,,,
,,6581ced34f993b2b0f63defc,65af54ad5f1f6da7183dc7a2,2024-01-23_07h58.15.491,bars,2023.2.3,Win32,59.88023952,657b66ea316d21385b68909f,,,,,,,,,,,1352.2941,1353.2889,,,1353.7889,1354.0392,,70,70,,,,,,,,,,,,,,,,bars/037.png,bars/mask000.png,,,,,,,,,,,,0,2,,,,,,,4,0,3,0,,,,,,,,,,,1353.2891,1353.7889,1354.0393,1355.2456,space,1.1847,,1355.2457,80,35,1356.2384,1356.2386,1356.2406,,,,0,45,45,45,1,150,105,,,,,,,,
,,6581ced34f993b2b0f63defc,65af54ad5f1f6da7183dc7a2,2024-01-23_07h58.15.491,bars,2023.2.3,Win32,59.88023952,657b66ea316d21385b68909f,,,,,,,,,,,1356.2413,1357.2394,,,1357.7386,1357.9886,,26,26,,,,,,,,,,,,,,,,bars/005.png,bars/mask003.png,,,,,,,,,,,,3,1,,,,,,,6,2,6,1,,,,,,,,,,,1357.2395,1357.7385,1357.9887,1364.3557,space,6.3384,,1364.3558,16,66,1365.3558,1365.356,1365.3827,,,,0,46,46,46,1,10,140,,,,,,,,
,,6581ced34f993b2b0f63defc,65af54ad5f1f6da7183dc7a2,2024-01-23_07h58.15.491,bars,2023.2.3,Win32,59.88023952,657b66ea316d21385b68909f,,,,,,,,,,,1365.3833,1366.3718,,,1366.8728,1367.1217,,119,119,,,,,,,,,,,,,,,,bars/004.png,bars/mask006.png,,,,,,,,,,,,4,2,,,,,,,4,4,3,5,,,,,,,,,,,1366.3719,1366.8726,1367.1217,1370.5992,space,3.4512,,1370.5993,86,6,1371.5885,1371.5886,1371.6167,,,,0,47,47,47,1,25,125,,,,,,,,
,,6581ced34f993b2b0f63defc,65af54ad5f1f6da7183dc7a2,2024-01-23_07h58.15.491,bars,2023.2.3,Win32,59.88023952,657b66ea316d21385b68909f,,,,,,,,,,,1371.6177,1372.6061,,,1373.0984,1373.3385,,97,97,,,,,,,,,,,,,,,,bars/022.png,bars/mask009.png,,,,,,,,,,,,2,1,,,,,,,2,2,2,3,,,,,,,,,,,1372.6062,1373.0983,1373.3385,1374.3848,space,1.0171,,1374.3851,2,77,1375.3885,1375.3886,1375.3951,,,,0,48,48,48,1,95,20,,,,,,,,
,,6581ced34f993b2b0f63defc,65af54ad5f1f6da7183dc7a2,2024-01-23_07h58.15.491,bars,2023.2.3,Win32,59.88023952,657b66ea316d21385b68909f,,,,,,,,,,,1375.3957,1376.3976,,,1376.889,1377.139,,150,150,,,,,,,,,,,,,,,,bars/019.png,bars/mask007.png,,,,,,,,,,,,0,2,,,,,,,0,0,0,0,,,,,,,,,,,1376.3976,1376.889,1377.1392,1379.0843,space,1.9197,,1379.0844,75,45,1380.0732,1380.0732,1380.1019,,,,0,49,49,49,1,45,105,,,,,,,,
,,6581ced34f993b2b0f63defc,65af54ad5f1f6da7183dc7a2,2024-01-23_07h58.15.491,bars,2023.2.3,Win32,59.88023952,657b66ea316d21385b68909f,,,,,,,,,,,,,,,,,,,,,,,,,,,,,,,,,,,,,,,,,,,,,,,,,,,,,,,,,,,,,,,,,,,,,,,,,,,,,,,,,,,,,,,,,,,,,1380.1023,1440.1054,0,2,2,0,1,sequence_tables/blk014.csv
,,6581ced34f993b2b0f63defc,65af54ad5f1f6da7183dc7a2,2024-01-23_07h58.15.491,bars,2023.2.3,Win32,59.88023952,657b66ea316d21385b68909f,,,,,,,,,,,1448.9399,1449.9217,,,1450.4224,1450.6671,,75,75,,,,,,,,,,,,,,,,bars/001.png,bars/mask001.png,,,,,,,,,,,,6,2,,,,,,,1,9,1,9,,,,,,1440.1277,1448.9052,space,8.756,,1449.922,1450.4222,1450.6671,1453.1896,space,2.5008,,1453.1899,55,10,1454.1884,1454.1885,1454.2112,,,,0,0,0,0,1,130,85,,,,,,,,
,,6581ced34f993b2b0f63defc,65af54ad5f1f6da7183dc7a2,2024-01-23_07h58.15.491,bars,2023.2.3,Win32,59.88023952,657b66ea316d21385b68909f,,,,,,,,,,,1454.2118,1455.2062,,,1455.6978,1455.9393,,140,140,,,,,,,,,,,,,,,,bars/004.png,bars/mask006.png,,,,,,,,,,,,5,2,,,,,,,0,10,1,10,,,,,,,,,,,1455.2063,1455.6978,1455.9394,1459.9454,space,3.978,,1459.9456,65,15,1460.9384,1460.9388,1460.964,,,,0,1,1,1,1,25,125,,,,,,,,
,,6581ced34f993b2b0f63defc,65af54ad5f1f6da7183dc7a2,2024-01-23_07h58.15.491,bars,2023.2.3,Win32,59.88023952,657b66ea316d21385b68909f,,,,,,,,,,,1460.9647,1461.955,,,1462.4443,1462.6885,,68,68,,,,,,,,,,,,,,,,bars/030.png,bars/mask002.png,,,,,,,,,,,,7,2,,,,,,,0,8,0,8,,,,,,,,,,,1461.9551,1462.4441,1462.6886,1472.6736,space,9.9555,,1472.6738,72,3,1473.6721,1473.6724,1473.6976,,,,0,2,2,2,1,140,65,,,,,,,,
,,6581ced34f993b2b0f63defc,65af54ad5f1f6da7183dc7a2,2024-01-23_07h58.15.491,bars,2023.2.3,Win32,59.88023952,657b66ea316d21385b68909f,,,,,,,,,,,1473.6981,1474.6881,,,1475.1889,1475.4309,,58,58,,,,,,,,,,,,,,,,bars/011.png,bars/mask006.png,,,,,,,,,,,,1,2,,,,,,,2,10,1,9,,,,,,,,,,,1474.6883,1475.1889,1475.4309,1478.6833,space,3.2356,,1478.6833,78,27,1479.6716,1479.6716,1479.6929,,,,0,3,3,3,1,160,85,,,,,,,,
,,6581ced34f993b2b0f63defc,65af54ad5f1f6da7183dc7a2,2024-01-23_07h58.15.491,bars,2023.2.3,Win32,59.88023952,657b66ea316d21385b68909f,,,,,,,,,,,1479.6934,1480.6895,,,1481.1884,1481.4386,,58,58,,,,,,,,,,,,,,,,bars/044.png,bars/mask007.png,,,,,,,,,,,,0,1,,,,,,,0,10,0,10,,,,,,,,,,,1480.6897,1481.1883,1481.4386,1487.3776,space,5.9271,,1487.3777,17,83,1488.3719,1488.372,1488.3977,,,,0,4,4,4,1,75,155,,,,,,,,
,,6581ced34f993b2b0f63defc,65af54ad5f1f6da7183dc7a2,2024-01-23_07h58.15.491,bars,2023.2.3,Win32,59.88023952,657b66ea316d21385b68909f,,,,,,,,,,,1488.3982,1489.3887,,,1489.8885,1490.1387,,91,91,,,,,,,,,,,,,,,,bars/041.png,bars/mask007.png,,,,,,,,,,,,7,2,,,,,,,0,10,1,9,,,,,,,,,,,1489.3888,1489.8884,1490.1388,1494.6961,space,4.5503,,1494.6962,71,6,1495.6888,1495.6889,1495.718,,,,0,5,5,5,1,20,85,,,,,,,,
,,6581ced34f993b2b0f63defc,65af54ad5f1f6da7183dc7a2,2024-01-23_07h58.15.491,bars,2023.2.3,Win32,59.88023952,657b66ea316d21385b68909f,,,,,,,,,,,1495.7185,1496.7214,,,1497.1977,1497.4384,,168,168,,,,,,,,,,,,,,,,bars/015.png,bars/mask009.png,,,,,,,,,,,,7,2,,,,,,,2,10,2,9,,,,,,,,,,,1496.7215,1497.1976,1497.4385,1498.8636,space,1.4014,,1498.8637,58,8,1499.8555,1499.8557,1499.8809,,,,0,6,6,6,1,110,160,,,,,,,,
,,6581ced34f993b2b0f63defc,65af54ad5f1f6da7183dc7a2,2024-01-23_07h58.15.491,bars,2023.2.3,Win32,59.88023952,657b66ea316d21385b68909f,,,,,,,,,,,1499.8818,1500.8722,,,1501.3727,1501.6182,,142,142,,,,,,,,,,,,,,,,bars/015.png,bars/mask004.png,,,,,,,,,,,,3,2,,,,,,,0,8,0,8,,,,,,,,,,,1500.8724,1501.3725,1501.6183,1504.0967,space,2.4607,,1504.0968,32,18,1505.0894,1505.0896,1505.115,,,,0,7,7,7,1,110,160,,,,,,,,
,,6581ced34f993b2b0f63defc,65af54ad5f1f6da7183dc7a2,2024-01-23_07h58.15.491,bars,2023.2.3,Win32,59.88023952,657b66ea316d21385b68909f,,,,,,,,,,,1505.116,1506.1055,,,1506.5944,1506.8389,,41,41,,,,,,,,,,,,,,,,bars/031.png,bars/mask006.png,,,,,,,,,,,,7,2,,,,,,,0,10,0,9,,,,,,,,,,,1506.1056,1506.5943,1506.839,1508.5073,space,1.6558,,1508.5076,79,6,1509.5057,1509.5058,1509.5082,,,,0,8,8,8,1,120,35,,,,,,,,
,,6581ced34f993b2b0f63defc,65af54ad5f1f6da7183dc7a2,2024-01-23_07h58.15.491,bars,2023.2.3,Win32,59.88023952,657b66ea316d21385b68909f,,,,,,,,,,,1509.5092,1510.5056,,,1511.0055,1511.2555,,136,136,,,,,,,,,,,,,,,,bars/037.png,bars/mask008.png,,,,,,,,,,,,2,1,,,,,,,2,10,3,10,,,,,,,,,,,1510.5057,1511.0054,1511.2557,1515.122,space,3.8513,,1515.1221,14,31,1516.1221,1516.1223,1516.1464,,,,0,9,9,9,1,150,105,,,,,,,,
,,6581ced34f993b2b0f63defc,65af54ad5f1f6da7183dc7a2,2024-01-23_07h58.15.491,bars,2023.2.3,Win32,59.88023952,657b66ea316d21385b68909f,,,,,,,,,,,1516.147,1517.1387,,,1517.6387,1517.8886,,74,74,,,,,,,,,,,,,,,,bars/011.png,bars/mask009.png,,,,,,,,,,,,6,2,,,,,,,4,10,4,10,,,,,,,,,,,1517.1387,1517.6385,1517.8887,1520.6393,space,2.7377,,1520.6394,86,11,1521.6387,1521.6387,1521.6656,,,,0,10,10,10,1,160,85,,,,,,,,
,,6581ced34f993b2b0f63defc,65af54ad5f1f6da7183dc7a2,2024-01-23_07h58.15.491,bars,2023.2.3,Win32,59.88023952,657b66ea316d21385b68909f,,,,,,,,,,,1521.6662,1522.655,,,1523.1559,1523.4049,,128,128,,,,,,,,,,,,,,,,bars/018.png,bars/mask001.png,,,,,,,,,,,,1,1,,,,,,,2,10,3,10,,,,,,,,,,,1522.6551,1523.1558,1523.405,1526.3672,space,2.9355,,1526.3672,22,38,1527.3557,1527.3559,1527.3817,,,,0,11,11,11,1,150,90,,,,,,,,
,,6581ced34f993b2b0f63defc,65af54ad5f1f6da7183dc7a2,2024-01-23_07h58.15.491,bars,2023.2.3,Win32,59.88023952,657b66ea316d21385b68909f,,,,,,,,,,,1527.3822,1528.3714,,,1528.872,1529.122,,46,46,,,,,,,,,,,,,,,,bars/047.png,bars/mask004.png,,,,,,,,,,,,2,2,,,,,,,4,8,4,8,,,,,,,,,,,1528.3714,1528.8719,1529.1222,1541.1346,space,11.9865,,1541.1347,31,24,1542.1383,1542.1383,1542.1635,,,,0,12,12,12,1,15,70,,,,,,,,
,,6581ced34f993b2b0f63defc,65af54ad5f1f6da7183dc7a2,2024-01-23_07h58.15.491,bars,2023.2.3,Win32,59.88023952,657b66ea316d21385b68909f,,,,,,,,,,,1542.1641,1543.1547,,,1543.6549,1543.9064,,71,71,,,,,,,,,,,,,,,,bars/004.png,bars/mask008.png,,,,,,,,,,,,0,1,,,,,,,2,10,2,9,,,,,,,,,,,1543.1548,1543.6549,1543.9066,1548.1828,space,4.2509,,1548.1829,46,54,1549.1718,1549.1718,1549.1958,,,,0,13,13,13,1,25,125,,,,,,,,
,,6581ced34f993b2b0f63defc,65af54ad5f1f6da7183dc7a2,2024-01-23_07h58.15.491,bars,2023.2.3,Win32,59.88023952,657b66ea316d21385b68909f,,,,,,,,,,,1549.1963,1550.1881,,,1550.6976,1550.9384,,115,115,,,,,,,,,,,,,,,,bars/009.png,bars/mask007.png,,,,,,,,,,,,7,2,,,,,,,4,10,5,10,,,,,,,,,,,1550.1881,1550.6975,1550.9385,1553.1492,space,2.1991,,1553.1492,80,10,1554.1385,1554.1385,1554.145,,,,0,14,14,14,1,15,105,,,,,,,,
,,6581ced34f993b2b0f63defc,65af54ad5f1f6da7183dc7a2,2024-01-23_07h58.15.491,bars,2023.2.3,Win32,59.88023952,657b66ea316d21385b68909f,,,,,,,,,,,1554.1457,1555.138,,,1555.6387,1555.8888,,90,90,,,,,,,,,,,,,,,,bars/021.png,bars/mask002.png,,,,,,,,,,,,3,2,,,,,,,6,8,6,9,,,,,,,,,,,1555.1381,1555.6385,1555.8889,1559.2824,space,3.3679,,1559.2825,65,20,1560.2713,1560.2715,1560.2956,,,,0,15,15,15,1,155,70,,,,,,,,
,,6581ced34f993b2b0f63defc,65af54ad5f1f6da7183dc7a2,2024-01-23_07h58.15.491,bars,2023.2.3,Win32,59.88023952,657b66ea316d21385b68909f,,,,,,,,,,,1560.2963,1561.2878,,,1561.7886,1562.0307,,134,134,,,,,,,,,,,,,,,,bars/028.png,bars/mask000.png,,,,,,,,,,,,4,2,,,,,,,4,6,3,7,,,,,,,,,,,1561.288,1561.7884,1562.0308,1565.2993,space,3.2514,,1565.2994,89,14,1566.2884,1566.2885,1566.3083,,,,0,16,16,16,1,45,120,,,,,,,,
,,6581ced34f993b2b0f63defc,65af54ad5f1f6da7183dc7a2,2024-01-23_07h58.15.491,bars,2023.2.3,Win32,59.88023952,657b66ea316d21385b68909f,,,,,,,,,,,1566.3089,1567.2976,,,1567.7887,1568.0387,,165,165,,,,,,,,,,,,,,,,bars/040.png,bars/mask003.png,,,,,,,,,,,,2,2,,,,,,,6,4,7,6,,,,,,,,,,,1567.2976,1567.7884,1568.0387,1571.2503,space,3.186,,1571.2503,25,20,1572.2389,1572.2391,1572.2616,,,,0,17,17,17,1,140,5,,,,,,,,
,,6581ced34f993b2b0f63defc,65af54ad5f1f6da7183dc7a2,2024-01-23_07h58.15.491,bars,2023.2.3,Win32,59.88023952,657b66ea316d21385b68909f,,,,,,,,,,,1572.262,1573.255,,,1573.7557,1574.0049,,124,-56,,,,,,,,,,,,,,,,bars/018.png,bars/mask005.png,,,,,,,,,,,,1,1,,,,,,,8,2,8,2,,,,,,,,,,,1573.2552,1573.7555,1574.005,1577.9521,space,3.9211,,1577.9521,26,34,1578.9547,1578.9548,1578.9798,,,,0,18,18,18,1,150,90,,,,,,,,
,,6581ced34f993b2b0f63defc,65af54ad5f1f6da7183dc7a2,2024-01-23_07h58.15.491,bars,2023.2.3,Win32,59.88023952,657b66ea316d21385b68909f,,,,,,,,,,,1578.9805,1579.9714,,,1580.4718,1580.7214,,144,-36,,,,,,,,,,,,,,,,bars/048.png,bars/mask004.png,,,,,,,,,,,,0,2,,,,,,,10,4,10,3,,,,,,,,,,,1579.9715,1580.4717,1580.7214,1584.2058,space,3.4533,,1584.2059,86,31,1585.1978,1585.1979,1585.2255,,,,0,19,19,19,1,50,175,,,,,,,,
,,6581ced34f993b2b0f63defc,65af54ad5f1f6da7183dc7a2,2024-01-23_07h58.15.491,bars,2023.2.3,Win32,59.88023952,657b66ea316d21385b68909f,,,,,,,,,,,1585.2261,1586.2218,,,1586.7218,1586.9717,,176,-4,,,,,,,,,,,,,,,,bars/015.png,bars/mask008.png,,,,,,,,,,,,3,2,,,,,,,10,6,10,6,,,,,,,,,,,1586.2219,1586.7217,1586.9719,1589.399,space,2.4013,,1589.3991,66,16,1590.3884,1590.3885,1590.39,,,,0,20,20,20,1,110,160,,,,,,,,
,,6581ced34f993b2b0f63defc,65af54ad5f1f6da7183dc7a2,2024-01-23_07h58.15.491,bars,2023.2.3,Win32,59.88023952,657b66ea316d21385b68909f,,,,,,,,,,,1590.3906,1591.3879,,,1591.8887,1592.1388,,15,15,,,,,,,,,,,,,,,,bars/001.png,bars/mask007.png,,,,,,,,,,,,0,1,,,,,,,10,4,9,4,,,,,,,,,,,1591.388,1591.8885,1592.1389,1593.793,space,1.6273,,1593.7932,65,70,1594.7883,1594.7886,1594.815,,,,0,21,21,21,1,130,85,,,,,,,,
,,6581ced34f993b2b0f63defc,65af54ad5f1f6da7183dc7a2,2024-01-23_07h58.15.491,bars,2023.2.3,Win32,59.88023952,657b66ea316d21385b68909f,,,,,,,,,,,1594.8156,1595.8047,,,1596.3049,1596.5552,,117,117,,,,,,,,,,,,,,,,bars/023.png,bars/mask008.png,,,,,,,,,,,,7,2,,,,,,,10,6,10,7,,,,,,,,,,,1595.8049,1596.3048,1596.5553,1600.1677,space,3.5865,,1600.1677,83,2,1601.1717,1601.1719,1601.1979,,,,0,22,22,22,1,20,115,,,,,,,,
,,6581ced34f993b2b0f63defc,65af54ad5f1f6da7183dc7a2,2024-01-23_07h58.15.491,bars,2023.2.3,Win32,59.88023952,657b66ea316d21385b68909f,,,,,,,,,,,1601.1986,1602.188,,,1602.6881,1602.9381,,13,193,,,,,,,,,,,,,,,,bars/048.png,bars/mask006.png,,,,,,,,,,,,2,2,,,,,,,8,4,7,4,,,,,,,,,,,1602.1882,1602.688,1602.9381,1605.2718,space,2.3152,,1605.2718,37,18,1606.2714,1606.2715,1606.2942,,,,0,23,23,23,1,50,175,,,,,,,,
,,6581ced34f993b2b0f63defc,65af54ad5f1f6da7183dc7a2,2024-01-23_07h58.15.491,bars,2023.2.3,Win32,59.88023952,657b66ea316d21385b68909f,,,,,,,,,,,1606.2947,1607.2889,,,1607.7893,1608.0383,,41,41,,,,,,,,,,,,,,,,bars/010.png,bars/mask000.png,,,,,,,,,,,,3,2,,,,,,,6,6,6,6,,,,,,,,,,,1607.2891,1607.7892,1608.0385,1610.1228,space,2.0534,,1610.123,56,14,1611.1222,1611.1224,1611.145,,,,0,24,24,24,1,165,55,,,,,,,,
,,6581ced34f993b2b0f63defc,65af54ad5f1f6da7183dc7a2,2024-01-23_07h58.15.491,bars,2023.2.3,Win32,59.88023952,657b66ea316d21385b68909f,,,,,,,,,,,1611.1455,1612.1386,,,1612.6389,1612.8882,,122,122,,,,,,,,,,,,,,,,bars/006.png,bars/mask007.png,,,,,,,,,,,,2,2,,,,,,,4,8,4,8,,,,,,,,,,,1612.1386,1612.6388,1612.8884,1616.7071,space,3.8068,,1616.7073,87,22,1617.7047,1617.7049,1617.7283,,,,0,25,25,25,1,35,100,,,,,,,,
,,6581ced34f993b2b0f63defc,65af54ad5f1f6da7183dc7a2,2024-01-23_07h58.15.491,bars,2023.2.3,Win32,59.88023952,657b66ea316d21385b68909f,,,,,,,,,,,1617.729,1618.7214,,,1619.2218,1619.4713,,60,60,,,,,,,,,,,,,,,,bars/042.png,bars/mask002.png,,,,,,,,,,,,3,2,,,,,,,6,6,4,6,,,,,,,,,,,1618.7215,1619.2216,1619.4715,1623.8828,space,4.3849,,1623.8829,85,15,1624.8715,1624.8716,1624.8946,,,,0,26,26,26,1,145,75,,,,,,,,
,,6581ced34f993b2b0f63defc,65af54ad5f1f6da7183dc7a2,2024-01-23_07h58.15.491,bars,2023.2.3,Win32,59.88023952,657b66ea316d21385b68909f,,,,,,,,,,,1624.8954,1625.8881,,,1626.3884,1626.6381,,142,142,,,,,,,,,,,,,,,,bars/028.png,bars/mask002.png,,,,,,,,,,,,2,2,,,,,,,4,8,3,8,,,,,,,,,,,1625.8881,1626.3883,1626.6382,1629.2217,space,2.5718,,1629.2218,83,22,1630.2215,1630.2216,1630.2459,,,,0,27,27,27,1,45,120,,,,,,,,
,,6581ced34f993b2b0f63defc,65af54ad5f1f6da7183dc7a2,2024-01-23_07h58.15.491,bars,2023.2.3,Win32,59.88023952,657b66ea316d21385b68909f,,,,,,,,,,,1630.2464,1631.2385,,,1631.7382,1631.9886,,148,148,,,,,,,,,,,,,,,,bars/015.png,bars/mask008.png,,,,,,,,,,,,3,2,,,,,,,6,6,7,5,,,,,,,,,,,1631.2387,1631.7382,1631.9887,1635.572,space,3.5692,,1635.572,38,12,1636.5715,1636.5716,1636.6028,,,,0,28,28,28,1,110,160,,,,,,,,
,,6581ced34f993b2b0f63defc,65af54ad5f1f6da7183dc7a2,2024-01-23_07h58.15.491,bars,2023.2.3,Win32,59.88023952,657b66ea316d21385b68909f,,,,,,,,,,,1636.6037,1637.6047,,,1638.1051,1638.3548,,7,7,,,,,,,,,,,,,,,,bars/024.png,bars/mask001.png,,,,,,,,,,,,4,2,,,,,,,4,8,5,9,,,,,,,,,,,1637.6047,1638.1049,1638.3548,1640.3556,space,1.969,,1640.3559,67,17,1641.3547,1641.3548,1641.3782,,,,0,29,29,29,1,120,170,,,,,,,,
,,6581ced34f993b2b0f63defc,65af54ad5f1f6da7183dc7a2,2024-01-23_07h58.15.491,bars,2023.2.3,Win32,59.88023952,657b66ea316d21385b68909f,,,,,,,,,,,1641.3788,1642.3713,,,1642.8716,1643.1217,,43,-137,,,,,,,,,,,,,,,,bars/025.png,bars/mask007.png,,,,,,,,,,,,5,2,,,,,,,6,6,5,5,,,,,,,,,,,1642.3714,1642.8715,1643.1219,1648.5051,space,5.3677,,1648.5052,62,3,1649.5048,1649.5049,1649.5293,,,,0,30,30,30,1,105,40,,,,,,,,
,,6581ced34f993b2b0f63defc,65af54ad5f1f6da7183dc7a2,2024-01-23_07h58.15.491,bars,2023.2.3,Win32,59.88023952,657b66ea316d21385b68909f,,,,,,,,,,,1649.5298,1650.5211,,,1651.0219,1651.2718,,62,62,,,,,,,,,,,,,,,,bars/027.png,bars/mask003.png,,,,,,,,,,,,6,2,,,,,,,4,8,3,10,,,,,,,,,,,1650.5212,1651.0218,1651.272,1654.723,space,3.4198,,1654.7231,48,12,1655.7215,1655.7216,1655.7444,,,,0,31,31,31,1,110,50,,,,,,,,
,,6581ced34f993b2b0f63defc,65af54ad5f1f6da7183dc7a2,2024-01-23_07h58.15.491,bars,2023.2.3,Win32,59.88023952,657b66ea316d21385b68909f,,,,,,,,,,,1655.745,1656.7385,,,1657.2385,1657.4972,,30,30,,,,,,,,,,,,,,,,bars/028.png,bars/mask008.png,,,,,,,,,,,,2,1,,,,,,,2,6,4,7,,,,,,,,,,,1656.7386,1657.2384,1657.4972,1659.0991,space,1.5847,,1659.0991,15,90,1660.0882,1660.0883,1660.0944,,,,0,32,32,32,1,45,120,,,,,,,,
,,6581ced34f993b2b0f63defc,65af54ad5f1f6da7183dc7a2,2024-01-23_07h58.15.491,bars,2023.2.3,Win32,59.88023952,657b66ea316d21385b68909f,,,,,,,,,,,1660.0953,1661.0879,,,1661.5831,1661.8214,,78,78,,,,,,,,,,,,,,,,bars/046.png,bars/mask002.png,,,,,,,,,,,,6,2,,,,,,,0,8,0,8,,,,,,,,,,,1661.0879,1661.583,1661.8217,1664.4969,space,2.6477,,1664.4969,77,7,1665.4881,1665.4882,1665.5107,,,,0,33,33,33,1,155,85,,,,,,,,
,,6581ced34f993b2b0f63defc,65af54ad5f1f6da7183dc7a2,2024-01-23_07h58.15.491,bars,2023.2.3,Win32,59.88023952,657b66ea316d21385b68909f,,,,,,,,,,,1665.5113,1666.5047,,,1667.0049,1667.2548,,174,-6,,,,,,,,,,,,,,,,bars/014.png,bars/mask009.png,,,,,,,,,,,,6,2,,,,,,,2,6,2,7,,,,,,,,,,,1666.5048,1667.0048,1667.2549,1669.9389,space,2.6673,,1669.939,86,6,1670.9384,1670.9385,1670.9607,,,,0,34,34,34,1,80,0,,,,,,,,
,,6581ced34f993b2b0f63defc,65af54ad5f1f6da7183dc7a2,2024-01-23_07h58.15.491,bars,2023.2.3,Win32,59.88023952,657b66ea316d21385b68909f,,,,,,,,,,,1670.9612,1671.9547,,,1672.4548,1672.7053,,83,83,,,,,,,,,,,,,,,,bars/002.png,bars/mask004.png,,,,,,,,,,,,4,2,,,,,,,0,4,1,4,,,,,,,,,,,1671.9548,1672.4547,1672.7054,1675.0051,space,2.284,,1675.0052,47,2,1676.0047,1676.0048,1676.0285,,,,0,35,35,35,1,130,85,,,,,,,,
,,6581ced34f993b2b0f63defc,65af54ad5f1f6da7183dc7a2,2024-01-23_07h58.15.491,bars,2023.2.3,Win32,59.88023952,657b66ea316d21385b68909f,,,,,,,,,,,1676.0289,1677.0215,,,1677.5217,1677.7714,,58,58,,,,,,,,,,,,,,,,bars/046.png,bars/mask008.png,,,,,,,,,,,,0,2,,,,,,,0,6,0,4,,,,,,,,,,,1677.0216,1677.5216,1677.7715,1678.8052,space,1.0188,,1678.8053,83,27,1679.8048,1679.8048,1679.8067,,,,0,36,36,36,1,155,85,,,,,,,,
,,6581ced34f993b2b0f63defc,65af54ad5f1f6da7183dc7a2,2024-01-23_07h58.15.491,bars,2023.2.3,Win32,59.88023952,657b66ea316d21385b68909f,,,,,,,,,,,1679.8079,1680.8048,,,1681.3049,1681.5548,,143,143,,,,,,,,,,,,,,,,bars/044.png,bars/mask001.png,,,,,,,,,,,,3,2,,,,,,,2,4,2,5,,,,,,,,,,,1680.8049,1681.3048,1681.5548,1683.822,space,2.2513,,1683.822,68,12,1684.8214,1684.8215,1684.8234,,,,0,37,37,37,1,75,155,,,,,,,,
,,6581ced34f993b2b0f63defc,65af54ad5f1f6da7183dc7a2,2024-01-23_07h58.15.491,bars,2023.2.3,Win32,59.88023952,657b66ea316d21385b68909f,,,,,,,,,,,1684.8246,1685.8214,,,1686.3217,1686.5713,,97,97,,,,,,,,,,,,,,,,bars/038.png,bars/mask007.png,,,,,,,,,,,,1,2,,,,,,,4,6,5,6,,,,,,,,,,,1685.8215,1686.3216,1686.5714,1690.7215,space,4.1375,,1690.7217,68,27,1691.7212,1691.7213,1691.7417,,,,0,38,38,38,1,165,70,,,,,,,,
,,6581ced34f993b2b0f63defc,65af54ad5f1f6da7183dc7a2,2024-01-23_07h58.15.491,bars,2023.2.3,Win32,59.88023952,657b66ea316d21385b68909f,,,,,,,,,,,1691.7422,1692.7384,,,1693.2382,1693.4882,,116,116,,,,,,,,,,,,,,,,bars/006.png,bars/mask003.png,,,,,,,,,,,,4,2,,,,,,,2,8,1,8,,,,,,,,,,,1692.7386,1693.2381,1693.4884,1696.6225,space,3.1021,,1696.6226,81,16,1697.6213,1697.6214,1697.6453,,,,0,39,39,39,1,35,100,,,,,,,,
,,6581ced34f993b2b0f63defc,65af54ad5f1f6da7183dc7a2,2024-01-23_07h58.15.491,bars,2023.2.3,Win32,59.88023952,657b66ea316d21385b68909f,,,,,,,,,,,1697.6458,1698.638,,,1699.1383,1699.3881,,127,127,,,,,,,,,,,,,,,,bars/004.png,bars/mask003.png,,,,,,,,,,,,9,2,,,,,,,0,10,0,10,,,,,,,,,,,1698.638,1699.1382,1699.3881,1703.255,space,3.8493,,1703.255,78,2,1704.2544,1704.2545,1704.2742,,,,0,40,40,40,1,25,125,,,,,,,,
,,6581ced34f993b2b0f63defc,65af54ad5f1f6da7183dc7a2,2024-01-23_07h58.15.491,bars,2023.2.3,Win32,59.88023952,657b66ea316d21385b68909f,,,,,,,,,,,1704.2748,1705.2716,,,1705.7721,1706.0214,,106,106,,,,,,,,,,,,,,,,bars/028.png,bars/mask009.png,,,,,,,,,,,,5,2,,,,,,,0,8,1,10,,,,,,,,,,,1705.2718,1705.7719,1706.0214,1707.3156,space,1.2678,,1707.3157,61,14,1708.3046,1708.3047,1708.3062,,,,0,41,41,41,1,45,120,,,,,,,,
,,6581ced34f993b2b0f63defc,65af54ad5f1f6da7183dc7a2,2024-01-23_07h58.15.491,bars,2023.2.3,Win32,59.88023952,657b66ea316d21385b68909f,,,,,,,,,,,1708.3071,1709.3045,,,1709.8051,1710.0547,,12,192,,,,,,,,,,,,,,,,bars/012.png,bars/mask008.png,,,,,,,,,,,,9,2,,,,,,,0,10,0,10,,,,,,,,,,,1709.3045,1709.8049,1710.0549,1712.0263,space,1.9431,,1712.0264,78,3,1713.0215,1713.0216,1713.0256,,,,0,42,42,42,1,90,15,,,,,,,,
,,6581ced34f993b2b0f63defc,65af54ad5f1f6da7183dc7a2,2024-01-23_07h58.15.491,bars,2023.2.3,Win32,59.88023952,657b66ea316d21385b68909f,,,,,,,,,,,1713.0263,1714.0213,,,1714.5214,1714.7713,,106,106,,,,,,,,,,,,,,,,bars/019.png,bars/mask002.png,,,,,,,,,,,,10,2,,,,,,,2,10,2,10,,,,,,,,,,,1714.0213,1714.5213,1714.7714,1716.6886,space,1.9023,,1716.6888,61,1,1717.6885,1717.6885,1717.7122,,,,0,43,43,43,1,45,105,,,,,,,,
,,6581ced34f993b2b0f63defc,65af54ad5f1f6da7183dc7a2,2024-01-23_07h58.15.491,bars,2023.2.3,Win32,59.88023952,657b66ea316d21385b68909f,,,,,,,,,,,1717.7127,1718.7046,,,1719.2048,1719.4547,,120,120,,,,,,,,,,,,,,,,bars/009.png,bars/mask008.png,,,,,,,,,,,,5,2,,,,,,,0,8,1,9,,,,,,,,,,,1718.7047,1719.2046,1719.4547,1720.6063,space,1.1377,,1720.6064,75,15,1721.6045,1721.6047,1721.6076,,,,0,44,44,44,1,15,105,,,,,,,,
,,6581ced34f993b2b0f63defc,65af54ad5f1f6da7183dc7a2,2024-01-23_07h58.15.491,bars,2023.2.3,Win32,59.88023952,657b66ea316d21385b68909f,,,,,,,,,,,1721.6091,1722.6046,,,1723.1048,1723.355,,10,190,,,,,,,,,,,,,,,,bars/045.png,bars/mask006.png,,,,,,,,,,,,10,2,,,,,,,0,10,0,10,,,,,,,,,,,1722.6048,1723.1046,1723.3551,1727.316,space,3.9349,,1727.3161,90,0,1728.3045,1728.3045,1728.3244,,,,0,45,45,45,1,100,10,,,,,,,,
,,6581ced34f993b2b0f63defc,65af54ad5f1f6da7183dc7a2,2024-01-23_07h58.15.491,bars,2023.2.3,Win32,59.88023952,657b66ea316d21385b68909f,,,,,,,,,,,1728.3249,1729.3215,,,1729.8213,1730.0713,,22,22,,,,,,,,,,,,,,,,bars/025.png,bars/mask005.png,,,,,,,,,,,,4,2,,,,,,,0,10,0,10,,,,,,,,,,,1729.3218,1729.8211,1730.0714,1732.1272,space,2.0275,,1732.1273,83,18,1733.1212,1733.1213,1733.1248,,,,0,46,46,46,1,105,40,,,,,,,,
,,6581ced34f993b2b0f63defc,65af54ad5f1f6da7183dc7a2,2024-01-23_07h58.15.491,bars,2023.2.3,Win32,59.88023952,657b66ea316d21385b68909f,,,,,,,,,,,1733.1258,1734.1214,,,1734.6213,1734.8809,,73,73,,,,,,,,,,,,,,,,bars/011.png,bars/mask004.png,,,,,,,,,,,,5,2,,,,,,,0,8,0,8,,,,,,,,,,,1734.1216,1734.6211,1734.881,1738.5718,space,3.6728,,1738.5719,87,12,1739.5715,1739.5716,1739.5955,,,,0,47,47,47,1,160,85,,,,,,,,
,,6581ced34f993b2b0f63defc,65af54ad5f1f6da7183dc7a2,2024-01-23_07h58.15.491,bars,2023.2.3,Win32,59.88023952,657b66ea316d21385b68909f,,,,,,,,,,,1739.5962,1740.5881,,,1741.088,1741.338,,119,119,,,,,,,,,,,,,,,,bars/028.png,bars/mask004.png,,,,,,,,,,,,7,2,,,,,,,0,6,0,7,,,,,,,,,,,1740.5882,1741.0878,1741.338,1743.2549,space,1.9024,,1743.255,74,1,1744.2544,1744.2545,1744.275,,,,0,48,48,48,1,45,120,,,,,,,,
,,6581ced34f993b2b0f63defc,65af54ad5f1f6da7183dc7a2,2024-01-23_07h58.15.491,bars,2023.2.3,Win32,59.88023952,657b66ea316d21385b68909f,,,,,,,,,,,1744.2755,1745.2713,,,1745.7713,1746.022,,68,68,,,,,,,,,,,,,,,,bars/046.png,bars/mask006.png,,,,,,,,,,,,2,2,,,,,,,2,4,3,5,,,,,,,,,,,1745.2713,1745.7711,1746.0222,1748.6316,space,2.5839,,1748.6317,87,17,1749.6211,1749.6211,1749.6467,,,,0,49,49,49,1,155,85,,,,,,,,
,,6581ced34f993b2b0f63defc,65af54ad5f1f6da7183dc7a2,2024-01-23_07h58.15.491,bars,2023.2.3,Win32,59.88023952,657b66ea316d21385b68909f,,,,,,,,,,,,,,,,,,,,,,,,,,,,,,,,,,,,,,,,,,,,,,,,,,,,,,,,,,,,,,,,,,,,,,,,,,,,,,,,,,,,,,,,,,,,,1749.6471,1809.6383,0,3,3,1,1,sequence_tables/blk003.csv
,,6581ced34f993b2b0f63defc,65af54ad5f1f6da7183dc7a2,2024-01-23_07h58.15.491,bars,2023.2.3,Win32,59.88023952,657b66ea316d21385b68909f,,,,,,,,,,,1875.1117,1876.0881,,,1876.5884,1876.8382,,53,53,,,,,,,,,,,,,,,,bars/029.png,bars/mask002.png,,,,,,,,,,,,2,2,,,,,,,2,3,5,3,,,,,,1809.6626,1875.0727,space,65.385,,1876.0885,1876.5883,1876.8386,1880.8828,space,4.0188,,1880.8829,37,8,1881.8713,1881.8714,1881.8967,,,,0,0,0,0,1,90,45,,,,,,,,
,,6581ced34f993b2b0f63defc,65af54ad5f1f6da7183dc7a2,2024-01-23_07h58.15.491,bars,2023.2.3,Win32,59.88023952,657b66ea316d21385b68909f,,,,,,,,,,,1881.8973,1882.888,,,1883.3881,1883.638,,120,120,,,,,,,,,,,,,,,,bars/023.png,bars/mask009.png,,,,,,,,,,,,1,2,,,,,,,4,1,3,1,,,,,,,,,,,1882.888,1883.388,1883.6382,1884.8046,space,1.1526,,1884.8047,80,5,1885.8044,1885.8046,1885.806,,,,0,1,1,1,1,20,115,,,,,,,,
,,6581ced34f993b2b0f63defc,65af54ad5f1f6da7183dc7a2,2024-01-23_07h58.15.491,bars,2023.2.3,Win32,59.88023952,657b66ea316d21385b68909f,,,,,,,,,,,1885.8068,1886.8043,,,1887.3049,1887.5551,,54,54,,,,,,,,,,,,,,,,bars/031.png,bars/mask008.png,,,,,,,,,,,,0,2,,,,,,,6,0,5,0,,,,,,,,,,,1886.8043,1887.3046,1887.5554,1889.9499,space,2.3689,,1889.95,66,19,1890.9543,1890.9543,1890.9559,,,,0,2,2,2,1,120,35,,,,,,,,
,,6581ced34f993b2b0f63defc,65af54ad5f1f6da7183dc7a2,2024-01-23_07h58.15.491,bars,2023.2.3,Win32,59.88023952,657b66ea316d21385b68909f,,,,,,,,,,,1890.957,1891.9542,,,1892.4543,1892.7043,,123,123,,,,,,,,,,,,,,,,bars/028.png,bars/mask008.png,,,,,,,,,,,,2,2,,,,,,,4,2,4,2,,,,,,,,,,,1891.9542,1892.4543,1892.7044,1895.3556,space,2.6396,,1895.3557,78,3,1896.3542,1896.3543,1896.3748,,,,0,3,3,3,1,45,120,,,,,,,,
,,6581ced34f993b2b0f63defc,65af54ad5f1f6da7183dc7a2,2024-01-23_07h58.15.491,bars,2023.2.3,Win32,59.88023952,657b66ea316d21385b68909f,,,,,,,,,,,1896.3753,1897.3711,,,1897.8713,1898.1132,,93,-87,,,,,,,,,,,,,,,,bars/009.png,bars/mask005.png,,,,,,,,,,,,2,2,,,,,,,6,4,6,4,,,,,,,,,,,1897.3711,1897.8711,1898.1134,1901.8562,space,3.7202,,1901.8564,78,12,1902.8544,1902.8545,1902.8778,,,,0,4,4,4,1,15,105,,,,,,,,
,,6581ced34f993b2b0f63defc,65af54ad5f1f6da7183dc7a2,2024-01-23_07h58.15.491,bars,2023.2.3,Win32,59.88023952,657b66ea316d21385b68909f,,,,,,,,,,,1902.8782,1903.8714,,,1904.3721,1904.6213,,126,126,,,,,,,,,,,,,,,,bars/014.png,bars/mask001.png,,,,,,,,,,,,0,1,,,,,,,4,2,3,2,,,,,,,,,,,1903.8716,1904.3718,1904.6214,1907.3332,space,2.6859,,1907.3333,46,54,1908.3374,1908.3374,1908.3626,,,,0,5,5,5,1,80,0,,,,,,,,
,,6581ced34f993b2b0f63defc,65af54ad5f1f6da7183dc7a2,2024-01-23_07h58.15.491,bars,2023.2.3,Win32,59.88023952,657b66ea316d21385b68909f,,,,,,,,,,,1908.3633,1909.3542,,,1909.8553,1910.1047,,143,143,,,,,,,,,,,,,,,,bars/007.png,bars/mask004.png,,,,,,,,,,,,0,1,,,,,,,2,4,2,5,,,,,,,,,,,1909.3543,1909.8551,1910.105,1912.9012,space,2.7704,,1912.9013,32,88,1913.8966,1913.8966,1913.9231,,,,0,6,6,6,1,175,55,,,,,,,,
,,6581ced34f993b2b0f63defc,65af54ad5f1f6da7183dc7a2,2024-01-23_07h58.15.491,bars,2023.2.3,Win32,59.88023952,657b66ea316d21385b68909f,,,,,,,,,,,1913.9239,1914.9208,,,1915.4137,1915.6552,,51,51,,,,,,,,,,,,,,,,bars/034.png,bars/mask002.png,,,,,,,,,,,,1,2,,,,,,,4,2,5,2,,,,,,,,,,,1914.921,1915.4136,1915.6553,1918.6324,space,2.9517,,1918.6325,74,14,1919.6209,1919.6209,1919.6456,,,,0,7,7,7,1,125,65,,,,,,,,
,,6581ced34f993b2b0f63defc,65af54ad5f1f6da7183dc7a2,2024-01-23_07h58.15.491,bars,2023.2.3,Win32,59.88023952,657b66ea316d21385b68909f,,,,,,,,,,,1919.6461,1920.6379,,,1921.1382,1921.3874,,133,133,,,,,,,,,,,,,,,,bars/004.png,bars/mask004.png,,,,,,,,,,,,4,2,,,,,,,2,4,2,6,,,,,,,,,,,1920.638,1921.1381,1921.3875,1923.8381,space,2.4366,,1923.8382,72,8,1924.8379,1924.838,1924.8621,,,,0,8,8,8,1,25,125,,,,,,,,
,,6581ced34f993b2b0f63defc,65af54ad5f1f6da7183dc7a2,2024-01-23_07h58.15.491,bars,2023.2.3,Win32,59.88023952,657b66ea316d21385b68909f,,,,,,,,,,,1924.8628,1925.8542,,,1926.3551,1926.6044,,167,167,,,,,,,,,,,,,,,,bars/040.png,bars/mask005.png,,,,,,,,,,,,1,2,,,,,,,0,2,0,2,,,,,,,,,,,1925.8542,1926.355,1926.6045,1931.5715,space,4.9384,,1931.5715,27,18,1932.5708,1932.5708,1932.5918,,,,0,9,9,9,1,140,5,,,,,,,,
,,6581ced34f993b2b0f63defc,65af54ad5f1f6da7183dc7a2,2024-01-23_07h58.15.491,bars,2023.2.3,Win32,59.88023952,657b66ea316d21385b68909f,,,,,,,,,,,1932.5924,1933.5883,,,1934.0805,1934.3213,,51,51,,,,,,,,,,,,,,,,bars/001.png,bars/mask004.png,,,,,,,,,,,,0,2,,,,,,,0,4,0,5,,,,,,,,,,,1933.5887,1934.0805,1934.3214,1936.1217,space,1.7734,,1936.1219,79,34,1937.1209,1937.121,1937.1244,,,,0,10,10,10,1,130,85,,,,,,,,
,,6581ced34f993b2b0f63defc,65af54ad5f1f6da7183dc7a2,2024-01-23_07h58.15.491,bars,2023.2.3,Win32,59.88023952,657b66ea316d21385b68909f,,,,,,,,,,,1937.1255,1938.121,,,1938.6212,1938.8715,,80,80,,,,,,,,,,,,,,,,bars/002.png,bars/mask008.png,,,,,,,,,,,,0,2,,,,,,,2,2,1,0,,,,,,,,,,,1938.1212,1938.621,1938.8717,1941.3153,space,2.4182,,1941.3154,50,5,1942.3049,1942.3052,1942.3271,,,,0,11,11,11,1,130,85,,,,,,,,
,,6581ced34f993b2b0f63defc,65af54ad5f1f6da7183dc7a2,2024-01-23_07h58.15.491,bars,2023.2.3,Win32,59.88023952,657b66ea316d21385b68909f,,,,,,,,,,,1942.3276,1943.3215,,,1943.8213,1944.0713,,126,126,,,,,,,,,,,,,,,,bars/037.png,bars/mask005.png,,,,,,,,,,,,2,2,,,,,,,4,4,5,5,,,,,,,,,,,1943.3217,1943.8212,1944.0715,1947.4818,space,3.3845,,1947.4819,24,21,1948.4708,1948.4708,1948.4916,,,,0,12,12,12,1,150,105,,,,,,,,
