init_variables.started,init_variables.stopped,participant,session,date,expName,psychopyVersion,OS,frameRate,study_id,instruction_exp.started,instruction_exp.stopped,key_resp_8.keys,key_resp_8.rt,key_resp_8.duration,instruction_single.started,instruction_single.stopped,key_resp_2.keys,key_resp_2.rt,key_resp_2.duration,interval.started,interval.stopped,cue_single.started,cue_single.stopped,mask.started,mask.stopped,ori_response_single.started,res_ori,res,ori_response_single.stopped,key_resp_single.keys,key_resp_single.rt,key_resp_single.duration,disp_single.started,disp_single.stopped,key_resp.keys,key_resp.rt,key_resp.duration,single.thisRepN,single.thisTrialN,single.thisN,single.thisIndex,single.ran,ori,path,mask_path,instruction_bandit.started,instruction_bandit.stopped,key_resp_6.keys,key_resp_6.rt,key_resp_6.duration,cue_bandit.started,cue_bandit.stopped,bandit_res.keys,bandit_res.rt,bandit_res.duration,outcome_bandit.started,rew,action,outcome_bandit.stopped,bandit.thisRepN,bandit.thisTrialN,bandit.thisN,bandit.thisIndex,bandit.ran,actual_rew1,actual_rew2,rew1,rew2,instruction_task.started,instruction_task.stopped,key_resp_7.keys,key_resp_7.rt,key_resp_7.duration,wait_ready.started,wait_ready.stopped,key_resp_3.keys,key_resp_3.rt,key_resp_3.duration,cue.started,cue.stopped,ori_response.started,ori_response.stopped,key_resp_5.keys,key_resp_5.rt,key_resp_5.duration,outcome.started,diff1,diff2,outcome.stopped,disp_outcome_practice.started,disp_outcome_practice.stopped,key_resp_4.keys,key_resp_4.rt,key_resp_4.duration,trials.thisRepN,trials.thisTrialN,trials.thisN,trials.thisIndex,trials.ran,ori1,ori2,break_blk.started,break_blk.stopped,block.thisRepN,block.thisTrialN,block.thisN,block.thisIndex,block.ran,condition_file
0.0029,0.0032,6145b0cbb10dd9c806f4b77a,65af566de8cf4b3e6d333546,2024-01-23_08h03.31.048,bars,2023.2.3,Win32,60.24096386,657b66ea316d21385b68909f,,,,,,,,,,,,,,,,,,,,,,,,,,,,,,,,,,,,,,,,,,,,,,,,,,,,,,,,,,,,,,,,,,,,,,,,,,,,,,,,,,,,,,,,,,,,,,,,,,,,
,,6145b0cbb10dd9c806f4b77a,65af566de8cf4b3e6d333546,2024-01-23_08h03.31.048,bars,2023.2.3,Win32,60.24096386,657b66ea316d21385b68909f,0.0037,15.1748,y,15.1476,,,,,,,,,,,,,,,,,,,,,,,,,,,,,,,,,,,,,,,,,,,,,,,,,,,,,,,,,,,,,,,,,,,,,,,,,,,,,,,,,,,,,,,,,,,,,,,,
,,6145b0cbb10dd9c806f4b77a,65af566de8cf4b3e6d333546,2024-01-23_08h03.31.048,bars,2023.2.3,Win32,60.24096386,657b66ea316d21385b68909f,,,,,,15.1751,39.0541,space,23.8551,,,,,,,,,,,,,,,,,,,,,,,,,,,,,,,,,,,,,,,,,,,,,,,,,,,,,,,,,,,,,,,,,,,,,,,,,,,,,,,,,,,,,,,,,,,
,,6145b0cbb10dd9c806f4b77a,65af566de8cf4b3e6d333546,2024-01-23_08h03.31.048,bars,2023.2.3,Win32,60.24096386,657b66ea316d21385b68909f,,,,,,,,,,,39.0785,40.0589,40.0593,40.5584,40.5587,40.8083,40.8085,121,121,49.783,space,8.933,,49.7837,59.3426,space,9.5197,,0,0,0,4,1,95,bars/single004.png,bars/mask004.png,,,,,,,,,,,,,,,,,,,,,,,,,,,,,,,,,,,,,,,,,,,,,,,,,,,,,,,,,,,,,,,,
,,6145b0cbb10dd9c806f4b77a,65af566de8cf4b3e6d333546,2024-01-23_08h03.31.048,bars,2023.2.3,Win32,60.24096386,657b66ea316d21385b68909f,,,,,,,,,,,59.3573,60.3561,60.3563,60.8553,60.8554,61.1054,61.1054,145,145,71.346,space,10.2244,,71.3462,75.7953,space,4.4016,,0,1,1,6,1,175,bars/single006.png,bars/mask005.png,,,,,,,,,,,,,,,,,,,,,,,,,,,,,,,,,,,,,,,,,,,,,,,,,,,,,,,,,,,,,,,,
,,6145b0cbb10dd9c806f4b77a,65af566de8cf4b3e6d333546,2024-01-23_08h03.31.048,bars,2023.2.3,Win32,60.24096386,657b66ea316d21385b68909f,,,,,,,,,,,75.8244,76.7969,76.7971,77.2884,77.2887,77.5382,77.5384,24,24,83.549,space,5.9957,,83.5492,88.9204,space,5.3443,,0,2,2,8,1,160,bars/single008.png,bars/mask004.png,,,,,,,,,,,,,,,,,,,,,,,,,,,,,,,,,,,,,,,,,,,,,,,,,,,,,,,,,,,,,,,,
,,6145b0cbb10dd9c806f4b77a,65af566de8cf4b3e6d333546,2024-01-23_08h03.31.048,bars,2023.2.3,Win32,60.24096386,657b66ea316d21385b68909f,,,,,,,,,,,88.9339,89.9257,89.9258,90.4254,90.4255,90.6749,90.6749,84,84,93.8552,space,3.168,,93.8553,98.378,space,4.4951,,0,3,3,5,1,55,bars/single005.png,bars/mask008.png,,,,,,,,,,,,,,,,,,,,,,,,,,,,,,,,,,,,,,,,,,,,,,,,,,,,,,,,,,,,,,,,
,,6145b0cbb10dd9c806f4b77a,65af566de8cf4b3e6d333546,2024-01-23_08h03.31.048,bars,2023.2.3,Win32,60.24096386,657b66ea316d21385b68909f,,,,,,,,,,,98.4073,99.3915,99.3916,99.883,99.8832,100.1245,100.1246,36,36,102.6251,space,2.4841,,102.6252,106.6367,space,3.9939,,0,4,4,2,1,145,bars/single002.png,bars/mask003.png,,,,,,,,,,,,,,,,,,,,,,,,,,,,,,,,,,,,,,,,,,,,,,,,,,,,,,,,,,,,,,,,
,,6145b0cbb10dd9c806f4b77a,65af566de8cf4b3e6d333546,2024-01-23_08h03.31.048,bars,2023.2.3,Win32,60.24096386,657b66ea316d21385b68909f,,,,,,,,,,,106.6659,107.6421,107.6422,108.1415,108.1418,108.3918,108.3919,179,179,114.419,space,6.0114,,114.4192,119.1481,space,4.7003,,0,5,5,9,1,20,bars/single009.png,bars/mask006.png,,,,,,,,,,,,,,,,,,,,,,,,,,,,,,,,,,,,,,,,,,,,,,,,,,,,,,,,,,,,,,,,
,,6145b0cbb10dd9c806f4b77a,65af566de8cf4b3e6d333546,2024-01-23_08h03.31.048,bars,2023.2.3,Win32,60.24096386,657b66ea316d21385b68909f,,,,,,,,,,,119.1761,120.1629,120.163,120.663,120.663,120.9126,120.9127,15,15,122.8447,space,1.9168,,122.8448,126.7159,space,3.854,,0,6,6,3,1,20,bars/single003.png,bars/mask005.png,,,,,,,,,,,,,,,,,,,,,,,,,,,,,,,,,,,,,,,,,,,,,,,,,,,,,,,,,,,,,,,,
,,6145b0cbb10dd9c806f4b77a,65af566de8cf4b3e6d333546,2024-01-23_08h03.31.048,bars,2023.2.3,Win32,60.24096386,657b66ea316d21385b68909f,,,,,,,,,,,126.7303,127.7238,127.7239,128.2136,128.2138,128.4551,128.4558,166,166,130.0237,space,1.5568,,130.0239,133,space,2.9599,,0,7,7,7,1,45,bars/single007.png,bars/mask009.png,,,,,,,,,,,,,,,,,,,,,,,,,,,,,,,,,,,,,,,,,,,,,,,,,,,,,,,,,,,,,,,,
,,6145b0cbb10dd9c806f4b77a,65af566de8cf4b3e6d333546,2024-01-23_08h03.31.048,bars,2023.2.3,Win32,60.24096386,657b66ea316d21385b68909f,,,,,,,,,,,133.0016,133.9998,133.9999,134.4985,134.4985,134.7479,134.7479,174,174,136.1808,space,1.4175,,136.1808,138.7616,space,2.563,,0,8,8,0,1,150,bars/single000.png,bars/mask006.png,,,,,,,,,,,,,,,,,,,,,,,,,,,,,,,,,,,,,,,,,,,,,,,,,,,,,,,,,,,,,,,,
,,6145b0cbb10dd9c806f4b77a,65af566de8cf4b3e6d333546,2024-01-23_08h03.31.048,bars,2023.2.3,Win32,60.24096386,657b66ea316d21385b68909f,,,,,,,,,,,138.7627,139.7599,139.76,140.2599,140.2599,140.5094,140.5096,155,155,145.2718,space,4.7478,,145.2721,147.746,space,2.4479,,0,9,9,1,1,20,bars/single001.png,bars/mask006.png,,,,,,,,,,,,,,,,,,,,,,,,,,,,,,,,,,,,,,,,,,,,,,,,,,,,,,,,,,,,,,,,
,,6145b0cbb10dd9c806f4b77a,65af566de8cf4b3e6d333546,2024-01-23_08h03.31.048,bars,2023.2.3,Win32,60.24096386,657b66ea316d21385b68909f,,,,,,,,,,,,,,,,,,,,,,,,,,,,,,,,,,,,,147.7484,171.0475,space,23.268,,,,,,,,,,,,,,,,,,,,,,,,,,,,,,,,,,,,,,,,,,,,,,,,,,,,,,,,,,,,
,,6145b0cbb10dd9c806f4b77a,65af566de8cf4b3e6d333546,2024-01-23_08h03.31.048,bars,2023.2.3,Win32,60.24096386,657b66ea316d21385b68909f,,,,,,,,,,,,,,,,,,,,,,,,,,,,,,,,,,,,,,,,,,171.0657,172.7545,left,1.6615,,172.7548,9,1,173.7529,0,0,0,0,1,9,1,9,2,,,,,,,,,,,,,,,,,,,,,,,,,,,,,,,,,,,,,,,,,
,,6145b0cbb10dd9c806f4b77a,65af566de8cf4b3e6d333546,2024-01-23_08h03.31.048,bars,2023.2.3,Win32,60.24096386,657b66ea316d21385b68909f,,,,,,,,,,,,,,,,,,,,,,,,,,,,,,,,,,,,,,,,,,173.7548,175.4025,right,1.6341,,175.4026,1,2,176.3926,0,1,1,1,1,10,0,10,1,,,,,,,,,,,,,,,,,,,,,,,,,,,,,,,,,,,,,,,,,
,,6145b0cbb10dd9c806f4b77a,65af566de8cf4b3e6d333546,2024-01-23_08h03.31.048,bars,2023.2.3,Win32,60.24096386,657b66ea316d21385b68909f,,,,,,,,,,,,,,,,,,,,,,,,,,,,,,,,,,,,,,,,,,176.3933,178.0421,right,1.6328,,178.0422,2,2,179.0396,0,2,2,2,1,10,2,10,2,,,,,,,,,,,,,,,,,,,,,,,,,,,,,,,,,,,,,,,,,
,,6145b0cbb10dd9c806f4b77a,65af566de8cf4b3e6d333546,2024-01-23_08h03.31.048,bars,2023.2.3,Win32,60.24096386,657b66ea316d21385b68909f,,,,,,,,,,,,,,,,,,,,,,,,,,,,,,,,,,,,,,,,,,179.0405,181.4889,left,2.4334,,181.489,7,1,182.4865,0,3,3,3,1,8,4,7,3,,,,,,,,,,,,,,,,,,,,,,,,,,,,,,,,,,,,,,,,,
,,6145b0cbb10dd9c806f4b77a,65af566de8cf4b3e6d333546,2024-01-23_08h03.31.048,bars,2023.2.3,Win32,60.24096386,657b66ea316d21385b68909f,,,,,,,,,,,,,,,,,,,,,,,,,,,,,,,,,,,,,,,,,,182.5153,183.9522,left,1.4222,,183.9524,5,1,184.9496,0,4,4,4,1,6,2,5,1,,,,,,,,,,,,,,,,,,,,,,,,,,,,,,,,,,,,,,,,,
,,6145b0cbb10dd9c806f4b77a,65af566de8cf4b3e6d333546,2024-01-23_08h03.31.048,bars,2023.2.3,Win32,60.24096386,657b66ea316d21385b68909f,,,,,,,,,,,,,,,,,,,,,,,,,,,,,,,,,,,,,,,,,,184.9522,187.9972,left,3.0325,,187.9975,4,1,188.9957,0,5,5,5,1,4,4,4,4,,,,,,,,,,,,,,,,,,,,,,,,,,,,,,,,,,,,,,,,,
,,6145b0cbb10dd9c806f4b77a,65af566de8cf4b3e6d333546,2024-01-23_08h03.31.048,bars,2023.2.3,Win32,60.24096386,657b66ea316d21385b68909f,,,,,,,,,,,,,,,,,,,,,,,,,,,,,,,,,,,,,,,,,,189.024,189.6303,right,0.5965,,189.6305,2,2,190.6264,0,6,6,6,1,2,2,1,2,,,,,,,,,,,,,,,,,,,,,,,,,,,,,,,,,,,,,,,,,
,,6145b0cbb10dd9c806f4b77a,65af566de8cf4b3e6d333546,2024-01-23_08h03.31.048,bars,2023.2.3,Win32,60.24096386,657b66ea316d21385b68909f,,,,,,,,,,,,,,,,,,,,,,,,,,,,,,,,,,,,,,,,,,190.6281,191.8262,left,1.1856,,191.8264,0,1,192.8251,0,7,7,7,1,0,0,0,1,,,,,,,,,,,,,,,,,,,,,,,,,,,,,,,,,,,,,,,,,
,,6145b0cbb10dd9c806f4b77a,65af566de8cf4b3e6d333546,2024-01-23_08h03.31.048,bars,2023.2.3,Win32,60.24096386,657b66ea316d21385b68909f,,,,,,,,,,,,,,,,,,,,,,,,,,,,,,,,,,,,,,,,,,192.8266,193.691,left,0.8534,,193.6912,1,1,194.6899,0,8,8,8,1,0,2,1,0,,,,,,,,,,,,,,,,,,,,,,,,,,,,,,,,,,,,,,,,,
,,6145b0cbb10dd9c806f4b77a,65af566de8cf4b3e6d333546,2024-01-23_08h03.31.048,bars,2023.2.3,Win32,60.24096386,657b66ea316d21385b68909f,,,,,,,,,,,,,,,,,,,,,,,,,,,,,,,,,,,,,,,,,,194.6913,196.0554,left,1.35,,196.0555,2,1,197.0541,0,9,9,9,1,2,4,2,3,,,,,,,,,,,,,,,,,,,,,,,,,,,,,,,,,,,,,,,,,
,,6145b0cbb10dd9c806f4b77a,65af566de8cf4b3e6d333546,2024-01-23_08h03.31.048,bars,2023.2.3,Win32,60.24096386,657b66ea316d21385b68909f,,,,,,,,,,,,,,,,,,,,,,,,,,,,,,,,,,,,,,,,,,197.0555,197.5875,right,0.5171,,197.5876,3,2,198.5861,0,10,10,10,1,0,2,0,3,,,,,,,,,,,,,,,,,,,,,,,,,,,,,,,,,,,,,,,,,
,,6145b0cbb10dd9c806f4b77a,65af566de8cf4b3e6d333546,2024-01-23_08h03.31.048,bars,2023.2.3,Win32,60.24096386,657b66ea316d21385b68909f,,,,,,,,,,,,,,,,,,,,,,,,,,,,,,,,,,,,,,,,,,198.5875,200.5345,left,1.9334,,200.5347,0,1,201.5335,0,11,11,11,1,0,4,0,3,,,,,,,,,,,,,,,,,,,,,,,,,,,,,,,,,,,,,,,,,
,,6145b0cbb10dd9c806f4b77a,65af566de8cf4b3e6d333546,2024-01-23_08h03.31.048,bars,2023.2.3,Win32,60.24096386,657b66ea316d21385b68909f,,,,,,,,,,,,,,,,,,,,,,,,,,,,,,,,,,,,,,,,,,201.5621,202.9492,left,1.374,,202.9494,1,1,203.9475,0,12,12,12,1,2,6,1,6,,,,,,,,,,,,,,,,,,,,,,,,,,,,,,,,,,,,,,,,,
,,6145b0cbb10dd9c806f4b77a,65af566de8cf4b3e6d333546,2024-01-23_08h03.31.048,bars,2023.2.3,Win32,60.24096386,657b66ea316d21385b68909f,,,,,,,,,,,,,,,,,,,,,,,,,,,,,,,,,,,,,,,,,,203.9497,204.5649,right,0.6009,,204.5649,3,2,205.5628,0,13,13,13,1,0,4,1,3,,,,,,,,,,,,,,,,,,,,,,,,,,,,,,,,,,,,,,,,,
,,6145b0cbb10dd9c806f4b77a,65af566de8cf4b3e6d333546,2024-01-23_08h03.31.048,bars,2023.2.3,Win32,60.24096386,657b66ea316d21385b68909f,,,,,,,,,,,,,,,,,,,,,,,,,,,,,,,,,,,,,,,,,,205.565,206.7958,right,1.2175,,206.7959,7,2,207.7932,0,14,14,14,1,2,6,2,7,,,,,,,,,,,,,,,,,,,,,,,,,,,,,,,,,,,,,,,,,
,,6145b0cbb10dd9c806f4b77a,65af566de8cf4b3e6d333546,2024-01-23_08h03.31.048,bars,2023.2.3,Win32,60.24096386,657b66ea316d21385b68909f,,,,,,,,,,,,,,,,,,,,,,,,,,,,,,,,,,,,,,,,,,207.7952,209.2598,right,1.4506,,209.2599,9,2,210.2579,0,15,15,15,1,4,8,3,9,,,,,,,,,,,,,,,,,,,,,,,,,,,,,,,,,,,,,,,,,
,,6145b0cbb10dd9c806f4b77a,65af566de8cf4b3e6d333546,2024-01-23_08h03.31.048,bars,2023.2.3,Win32,60.24096386,657b66ea316d21385b68909f,,,,,,,,,,,,,,,,,,,,,,,,,,,,,,,,,,,,,,,,,,210.2592,211.4406,left,1.1665,,211.4407,7,1,212.4393,0,16,16,16,1,6,6,7,7,,,,,,,,,,,,,,,,,,,,,,,,,,,,,,,,,,,,,,,,,
,,6145b0cbb10dd9c806f4b77a,65af566de8cf4b3e6d333546,2024-01-23_08h03.31.048,bars,2023.2.3,Win32,60.24096386,657b66ea316d21385b68909f,,,,,,,,,,,,,,,,,,,,,,,,,,,,,,,,,,,,,,,,,,212.4406,213.9547,right,1.5006,,213.9547,5,2,214.9533,0,17,17,17,1,8,4,9,5,,,,,,,,,,,,,,,,,,,,,,,,,,,,,,,,,,,,,,,,,
,,6145b0cbb10dd9c806f4b77a,65af566de8cf4b3e6d333546,2024-01-23_08h03.31.048,bars,2023.2.3,Win32,60.24096386,657b66ea316d21385b68909f,,,,,,,,,,,,,,,,,,,,,,,,,,,,,,,,,,,,,,,,,,214.9553,215.6208,left,0.6519,,215.6211,5,1,216.6183,0,18,18,18,1,6,2,5,1,,,,,,,,,,,,,,,,,,,,,,,,,,,,,,,,,,,,,,,,,
,,6145b0cbb10dd9c806f4b77a,65af566de8cf4b3e6d333546,2024-01-23_08h03.31.048,bars,2023.2.3,Win32,60.24096386,657b66ea316d21385b68909f,,,,,,,,,,,,,,,,,,,,,,,,,,,,,,,,,,,,,,,,,,216.6199,217.4013,left,0.7678,,217.4014,7,1,218.4,0,19,19,19,1,8,0,7,0,,,,,,,,,,,,,,,,,,,,,,,,,,,,,,,,,,,,,,,,,
,,6145b0cbb10dd9c806f4b77a,65af566de8cf4b3e6d333546,2024-01-23_08h03.31.048,bars,2023.2.3,Win32,60.24096386,657b66ea316d21385b68909f,,,,,,,,,,,,,,,,,,,,,,,,,,,,,,,,,,,,,,,,,,,,,,,,,,,,,,,,,,,,218.4011,240.9803,space,22.5577,,,,,,,,,,,,,,,,,,,,,,,,,,,,,,,,,,,,,
,,6145b0cbb10dd9c806f4b77a,65af566de8cf4b3e6d333546,2024-01-23_08h03.31.048,bars,2023.2.3,Win32,60.24096386,657b66ea316d21385b68909f,,,,,,,,,,,243.571,244.5581,,,245.0502,245.2992,,163,-17,,,,,,,,,,,,,,,,bars/007.png,bars/mask006.png,,,,,,,,,,,,0,1,,,,,,,0,3,0,3,,,,,,241.0179,243.553,space,2.5162,,244.5591,245.0498,245.3,252.5012,space,7.1752,,252.5019,12,72,253.4995,253.5,268.5524,space,15.0225,,0,0,0,0,1,175,55,,,,,,,,
,,6145b0cbb10dd9c806f4b77a,65af566de8cf4b3e6d333546,2024-01-23_08h03.31.048,bars,2023.2.3,Win32,60.24096386,657b66ea316d21385b68909f,,,,,,,,,,,268.5671,269.5667,,,270.0665,270.316,,128,128,,,,,,,,,,,,,,,,bars/028.png,bars/mask004.png,,,,,,,,,,,,4,2,,,,,,,2,5,0,6,,,,,,,,,,,269.5668,270.0663,270.316,276.1439,space,5.8132,,276.1443,83,8,277.1424,277.1424,283.6863,space,6.5078,,0,1,1,1,1,45,120,,,,,,,,
,,6145b0cbb10dd9c806f4b77a,65af566de8cf4b3e6d333546,2024-01-23_08h03.31.048,bars,2023.2.3,Win32,60.24096386,657b66ea316d21385b68909f,,,,,,,,,,,283.699,284.7021,,,285.1934,285.4431,,113,113,,,,,,,,,,,,,,,,bars/024.png,bars/mask003.png,,,,,,,,,,,,0,1,,,,,,,0,7,0,6,,,,,,,,,,,284.7022,285.1933,285.4433,291.221,space,5.7623,,291.2211,7,57,292.2203,292.2204,296.8229,space,4.5586,,0,2,2,2,1,120,170,,,,,,,,
,,6145b0cbb10dd9c806f4b77a,65af566de8cf4b3e6d333546,2024-01-23_08h03.31.048,bars,2023.2.3,Win32,60.24096386,657b66ea316d21385b68909f,,,,,,,,,,,296.8369,297.8389,,,298.3379,298.5886,,0,0,,,,,,,,,,,,,,,,bars/026.png,bars/mask005.png,,,,,,,,,,,,0,1,,,,,,,2,5,2,5,,,,,,,,,,,297.8393,298.3378,298.5886,306.1977,space,7.5937,,306.1979,35,85,307.1965,307.1965,311.4881,space,4.2639,,0,3,3,3,1,35,85,,,,,,,,
,,6145b0cbb10dd9c806f4b77a,65af566de8cf4b3e6d333546,2024-01-23_08h03.31.048,bars,2023.2.3,Win32,60.24096386,657b66ea316d21385b68909f,,,,,,,,,,,311.5163,312.4912,,,312.9833,313.2324,,114,114,,,,,,,,,,,,,,,,bars/005.png,bars/mask006.png,,,,,,,,,,,,1,2,,,,,,,0,7,0,7,,,,,,,,,,,312.4914,312.9831,313.2325,317.1642,space,3.9149,,317.1643,76,26,318.1521,318.1522,338.2498,space,20.0455,,0,4,4,4,1,10,140,,,,,,,,
,,6145b0cbb10dd9c806f4b77a,65af566de8cf4b3e6d333546,2024-01-23_08h03.31.048,bars,2023.2.3,Win32,60.24096386,657b66ea316d21385b68909f,,,,,,,,,,,338.2633,339.2651,,,339.7649,340.0141,,42,42,,,,,,,,,,,,,,,,bars/029.png,bars/mask007.png,,,,,,,,,,,,5,2,,,,,,,2,5,3,5,,,,,,,,,,,339.2652,339.7647,340.0143,343.455,space,3.4292,,343.4551,48,3,344.4436,344.4438,347.874,space,3.3843,,0,5,5,5,1,90,45,,,,,,,,
,,6145b0cbb10dd9c806f4b77a,65af566de8cf4b3e6d333546,2024-01-23_08h03.31.048,bars,2023.2.3,Win32,60.24096386,657b66ea316d21385b68909f,,,,,,,,,,,347.8753,348.8724,,,349.3722,349.6224,,112,112,,,,,,,,,,,,,,,,bars/033.png,bars/mask003.png,,,,,,,,,,,,0,2,,,,,,,0,3,0,2,,,,,,,,,,,348.8725,349.3721,349.6224,356.3116,space,6.6773,,356.3117,87,43,357.306,357.3063,361.1443,space,3.8066,,0,6,6,6,1,25,155,,,,,,,,
,,6145b0cbb10dd9c806f4b77a,65af566de8cf4b3e6d333546,2024-01-23_08h03.31.048,bars,2023.2.3,Win32,60.24096386,657b66ea316d21385b68909f,,,,,,,,,,,361.1465,362.1431,,,362.6428,362.8923,,39,39,,,,,,,,,,,,,,,,bars/028.png,bars/mask006.png,,,,,,,,,,,,2,1,,,,,,,2,5,3,5,,,,,,,,,,,362.1432,362.6426,362.8924,371.9832,space,9.0771,,371.9833,6,81,372.9824,372.9825,444.262,space,71.223,,0,7,7,7,1,45,120,,,,,,,,
,,6145b0cbb10dd9c806f4b77a,65af566de8cf4b3e6d333546,2024-01-23_08h03.31.048,bars,2023.2.3,Win32,60.24096386,657b66ea316d21385b68909f,,,,,,,,,,,444.2766,445.2776,,,445.7771,446.0274,,3,3,,,,,,,,,,,,,,,,bars/021.png,bars/mask005.png,,,,,,,,,,,,0,1,,,,,,,0,7,0,8,,,,,,,,,,,445.2777,445.777,446.0274,453.8862,space,7.8464,,453.8864,28,67,454.8851,454.8851,458.4298,space,3.515,,0,8,8,8,1,155,70,,,,,,,,
,,6145b0cbb10dd9c806f4b77a,65af566de8cf4b3e6d333546,2024-01-23_08h03.31.048,bars,2023.2.3,Win32,60.24096386,657b66ea316d21385b68909f,,,,,,,,,,,458.4319,459.4225,,,459.9225,460.172,,12,12,,,,,,,,,,,,,,,,bars/033.png,bars/mask003.png,,,,,,,,,,,,2,1,,,,,,,2,5,3,5,,,,,,,,,,,459.4226,459.9225,460.1721,466.3339,space,6.1458,,466.3339,13,37,467.3272,467.3273,496.0137,space,28.6537,,0,9,9,9,1,25,155,,,,,,,,
,,6145b0cbb10dd9c806f4b77a,65af566de8cf4b3e6d333546,2024-01-23_08h03.31.048,bars,2023.2.3,Win32,60.24096386,657b66ea316d21385b68909f,,,,,,,,,,,496.0445,497.0192,,,497.5106,497.7604,,19,199,,,,,,,,,,,,,,,,bars/034.png,bars/mask002.png,,,,,,,,,,,,0,2,,,,,,,0,7,1,7,,,,,,,,,,,497.0192,497.5106,497.7605,503.9376,space,6.1625,,503.9377,74,46,504.9363,504.9364,507.3335,space,2.3596,,0,10,10,10,1,125,65,,,,,,,,
,,6145b0cbb10dd9c806f4b77a,65af566de8cf4b3e6d333546,2024-01-23_08h03.31.048,bars,2023.2.3,Win32,60.24096386,657b66ea316d21385b68909f,,,,,,,,,,,507.3345,508.3337,,,508.8337,509.0839,,34,214,,,,,,,,,,,,,,,,bars/013.png,bars/mask001.png,,,,,,,,,,,,2,2,,,,,,,0,9,1,10,,,,,,,,,,,508.3337,508.8336,509.0841,514.9111,space,5.8183,,514.9112,41,24,515.9096,515.9096,519.5232,space,3.58,,0,11,11,11,1,75,10,,,,,,,,
,,6145b0cbb10dd9c806f4b77a,65af566de8cf4b3e6d333546,2024-01-23_08h03.31.048,bars,2023.2.3,Win32,60.24096386,657b66ea316d21385b68909f,,,,,,,,,,,519.524,520.5226,,,521.0222,521.2718,,90,90,,,,,,,,,,,,,,,,bars/029.png,bars/mask007.png,,,,,,,,,,,,2,1,,,,,,,2,7,2,7,,,,,,,,,,,520.5228,521.0221,521.2719,528.9988,space,7.7163,,528.999,0,45,529.9965,529.9966,532.5211,space,2.4661,,0,12,12,12,1,90,45,,,,,,,,
,,6145b0cbb10dd9c806f4b77a,65af566de8cf4b3e6d333546,2024-01-23_08h03.31.048,bars,2023.2.3,Win32,60.24096386,657b66ea316d21385b68909f,,,,,,,,,,,532.5222,533.5168,,,534.0085,534.2579,,0,0,,,,,,,,,,,,,,,,bars/022.png,bars/mask002.png,,,,,,,,,,,,2,2,,,,,,,4,5,3,5,,,,,,,,,,,533.5168,534.0083,534.2581,538.4038,space,4.1331,,538.404,85,20,539.4028,539.403,541.0352,space,1.5747,,0,13,13,13,1,95,20,,,,,,,,
,,6145b0cbb10dd9c806f4b77a,65af566de8cf4b3e6d333546,2024-01-23_08h03.31.048,bars,2023.2.3,Win32,60.24096386,657b66ea316d21385b68909f,,,,,,,,,,,541.0371,542.0335,,,542.5253,542.7745,,110,110,,,,,,,,,,,,,,,,bars/046.png,bars/mask003.png,,,,,,,,,,,,0,2,,,,,,,2,3,1,3,,,,,,,,,,,542.0336,542.5251,542.7746,548.3545,space,5.5637,,548.3546,45,25,549.3443,549.3444,554.0053,space,4.6131,,0,14,14,14,1,155,85,,,,,,,,
,,6145b0cbb10dd9c806f4b77a,65af566de8cf4b3e6d333546,2024-01-23_08h03.31.048,bars,2023.2.3,Win32,60.24096386,657b66ea316d21385b68909f,,,,,,,,,,,554.0342,555.021,,,555.5211,555.7703,,2,182,,,,,,,,,,,,,,,,bars/035.png,bars/mask007.png,,,,,,,,,,,,2,1,,,,,,,4,1,3,3,,,,,,,,,,,555.0211,555.5209,555.7703,560.3493,space,4.5642,,560.3495,7,58,561.3487,561.3488,564.9646,space,3.568,,0,15,15,15,1,175,60,,,,,,,,
,,6145b0cbb10dd9c806f4b77a,65af566de8cf4b3e6d333546,2024-01-23_08h03.31.048,bars,2023.2.3,Win32,60.24096386,657b66ea316d21385b68909f,,,,,,,,,,,564.9937,565.9683,,,566.4599,566.7096,,26,26,,,,,,,,,,,,,,,,bars/044.png,bars/mask001.png,,,,,,,,,,,,0,1,,,,,,,6,0,5,0,,,,,,,,,,,565.9683,566.4598,566.7097,569.54,space,2.8162,,569.5403,49,51,570.539,570.5391,582.8162,space,12.2341,,0,16,16,16,1,75,155,,,,,,,,
,,6145b0cbb10dd9c806f4b77a,65af566de8cf4b3e6d333546,2024-01-23_08h03.31.048,bars,2023.2.3,Win32,60.24096386,657b66ea316d21385b68909f,,,,,,,,,,,582.8304,583.8177,,,584.3141,584.5671,,107,107,,,,,,,,,,,,,,,,bars/029.png,bars/mask006.png,,,,,,,,,,,,2,1,,,,,,,4,2,5,2,,,,,,,,,,,583.8178,584.3138,584.5672,587.8158,space,3.2326,,587.8158,17,62,588.8046,588.8046,595.5414,space,6.6916,,0,17,17,17,1,90,45,,,,,,,,
,,6145b0cbb10dd9c806f4b77a,65af566de8cf4b3e6d333546,2024-01-23_08h03.31.048,bars,2023.2.3,Win32,60.24096386,657b66ea316d21385b68909f,,,,,,,,,,,595.5559,596.5468,,,597.0463,597.296,,3,183,,,,,,,,,,,,,,,,bars/012.png,bars/mask009.png,,,,,,,,,,,,2,2,,,,,,,6,4,7,4,,,,,,,,,,,596.5469,597.0462,597.296,601.2427,space,3.931,,601.2428,87,12,602.2411,602.2412,605.7546,space,3.4761,,0,18,18,18,1,90,15,,,,,,,,
,,6145b0cbb10dd9c806f4b77a,65af566de8cf4b3e6d333546,2024-01-23_08h03.31.048,bars,2023.2.3,Win32,60.24096386,657b66ea316d21385b68909f,,,,,,,,,,,605.7673,606.77,,,607.2696,607.5189,,112,112,,,,,,,,,,,,,,,,bars/001.png,bars/mask008.png,,,,,,,,,,,,2,1,,,,,,,4,2,6,3,,,,,,,,,,,606.7701,607.2696,607.519,611.9154,space,4.3838,,611.9156,18,27,612.9143,612.9145,615.0619,space,2.0945,,0,19,19,19,1,130,85,,,,,,,,
,,6145b0cbb10dd9c806f4b77a,65af566de8cf4b3e6d333546,2024-01-23_08h03.31.048,bars,2023.2.3,Win32,60.24096386,657b66ea316d21385b68909f,,,,,,,,,,,615.0643,616.0612,,,616.5604,616.8021,,1,181,,,,,,,,,,,,,,,,bars/048.png,bars/mask004.png,,,,,,,,,,,,3,2,,,,,,,6,4,8,4,,,,,,,,,,,616.0613,616.5602,616.8023,622.0489,space,5.2305,,622.0489,49,6,623.0533,623.0533,667.6294,space,44.5413,,0,20,20,20,1,50,175,,,,,,,,
,,6145b0cbb10dd9c806f4b77a,65af566de8cf4b3e6d333546,2024-01-23_08h03.31.048,bars,2023.2.3,Win32,60.24096386,657b66ea316d21385b68909f,,,,,,,,,,,667.66,668.6346,,,669.1346,669.3839,,178,-2,,,,,,,,,,,,,,,,bars/021.png,bars/mask009.png,,,,,,,,,,,,2,1,,,,,,,8,6,9,6,,,,,,,,,,,668.6346,669.1344,669.3841,674.8802,space,5.48,,674.8803,23,72,675.8689,675.8692,677.6014,space,1.6784,,0,21,21,21,1,155,70,,,,,,,,
,,6145b0cbb10dd9c806f4b77a,65af566de8cf4b3e6d333546,2024-01-23_08h03.31.048,bars,2023.2.3,Win32,60.24096386,657b66ea316d21385b68909f,,,,,,,,,,,677.6034,678.5998,,,679.0998,679.3493,,136,136,,,,,,,,,,,,,,,,bars/040.png,bars/mask006.png,,,,,,,,,,,,8,1,,,,,,,10,8,9,8,,,,,,,,,,,678.5999,679.0997,679.3494,685.3605,space,5.9963,,685.3608,4,49,686.3587,686.3589,689.4326,space,3.0287,,0,22,22,22,1,140,5,,,,,,,,
,,6145b0cbb10dd9c806f4b77a,65af566de8cf4b3e6d333546,2024-01-23_08h03.31.048,bars,2023.2.3,Win32,60.24096386,657b66ea316d21385b68909f,,,,,,,,,,,689.4332,690.4307,,,690.9214,691.171,,46,46,,,,,,,,,,,,,,,,bars/004.png,bars/mask003.png,,,,,,,,,,,,2,1,,,,,,,8,10,7,10,,,,,,,,,,,690.4308,690.9213,691.1711,696.1328,space,4.9471,,696.1329,21,79,697.1313,697.1313,701.2873,space,4.1299,,0,23,23,23,1,25,125,,,,,,,,
,,6145b0cbb10dd9c806f4b77a,65af566de8cf4b3e6d333546,2024-01-23_08h03.31.048,bars,2023.2.3,Win32,60.24096386,657b66ea316d21385b68909f,,,,,,,,,,,701.3011,702.2934,,,702.7943,703.0439,,36,36,,,,,,,,,,,,,,,,bars/004.png,bars/mask007.png,,,,,,,,,,,,6,1,,,,,,,10,8,10,8,,,,,,,,,,,702.2934,702.7942,703.044,706.9574,space,3.8992,,706.9576,11,89,707.9559,707.9559,710.3523,space,2.356,,0,24,24,24,1,25,125,,,,,,,,
,,6145b0cbb10dd9c806f4b77a,65af566de8cf4b3e6d333546,2024-01-23_08h03.31.048,bars,2023.2.3,Win32,60.24096386,657b66ea316d21385b68909f,,,,,,,,,,,710.3538,711.3511,,,711.8506,712.1019,,64,64,,,,,,,,,,,,,,,,bars/029.png,bars/mask001.png,,,,,,,,,,,,2,2,,,,,,,8,6,10,6,,,,,,,,,,,711.3511,711.8505,712.1019,717.979,space,5.8689,,717.9792,26,19,718.977,718.9773,726.0891,space,7.0786,,0,25,25,25,1,90,45,,,,,,,,
,,6145b0cbb10dd9c806f4b77a,65af566de8cf4b3e6d333546,2024-01-23_08h03.31.048,bars,2023.2.3,Win32,60.24096386,657b66ea316d21385b68909f,,,,,,,,,,,726.1177,727.102,,,727.6023,727.8518,,123,123,,,,,,,,,,,,,,,,bars/038.png,bars/mask005.png,,,,,,,,,,,,0,1,,,,,,,6,4,6,4,,,,,,,,,,,727.1022,727.6022,727.8519,731.7313,space,3.865,,731.7314,42,53,732.7304,732.7305,733.8463,space,1.0601,,0,26,26,26,1,165,70,,,,,,,,
,,6145b0cbb10dd9c806f4b77a,65af566de8cf4b3e6d333546,2024-01-23_08h03.31.048,bars,2023.2.3,Win32,60.24096386,657b66ea316d21385b68909f,,,,,,,,,,,733.8483,734.8449,,,735.3446,735.594,,2,182,,,,,,,,,,,,,,,,bars/023.png,bars/mask001.png,,,,,,,,,,,,3,1,,,,,,,8,6,8,7,,,,,,,,,,,734.845,735.3444,735.594,747.1166,space,11.5069,,747.1166,18,67,748.1149,748.1151,750.2737,space,2.1312,,0,27,27,27,1,20,115,,,,,,,,
,,6145b0cbb10dd9c806f4b77a,65af566de8cf4b3e6d333546,2024-01-23_08h03.31.048,bars,2023.2.3,Win32,60.24096386,657b66ea316d21385b68909f,,,,,,,,,,,750.2748,751.2707,,,751.7704,752.0197,,5,185,,,,,,,,,,,,,,,,bars/036.png,bars/mask002.png,,,,,,,,,,,,5,2,,,,,,,6,8,8,10,,,,,,,,,,,751.2708,751.7703,752.0197,758.2167,space,6.18,,758.2167,40,15,759.221,759.2212,761.1369,space,1.8626,,0,28,28,28,1,145,20,,,,,,,,
,,6145b0cbb10dd9c806f4b77a,65af566de8cf4b3e6d333546,2024-01-23_08h03.31.048,bars,2023.2.3,Win32,60.24096386,657b66ea316d21385b68909f,,,,,,,,,,,761.139,762.1348,,,762.6346,762.8842,,71,71,,,,,,,,,,,,,,,,bars/022.png,bars/mask009.png,,,,,,,,,,,,1,1,,,,,,,8,6,7,6,,,,,,,,,,,762.135,762.6345,762.8843,768.5124,space,5.6138,,768.5125,24,51,769.5103,769.5103,771.1931,space,1.6454,,0,29,29,29,1,95,20,,,,,,,,
,,6145b0cbb10dd9c806f4b77a,65af566de8cf4b3e6d333546,2024-01-23_08h03.31.048,bars,2023.2.3,Win32,60.24096386,657b66ea316d21385b68909f,,,,,,,,,,,771.1942,772.1915,,,772.6911,772.9408,,44,44,,,,,,,,,,,,,,,,bars/005.png,bars/mask008.png,,,,,,,,,,,,0,1,,,,,,,10,8,10,8,,,,,,,,,,,772.1915,772.691,772.9409,781.1662,space,8.2104,,781.1665,34,84,782.165,782.165,784.5065,space,2.3147,,0,30,30,30,1,10,140,,,,,,,,
,,6145b0cbb10dd9c806f4b77a,65af566de8cf4b3e6d333546,2024-01-23_08h03.31.048,bars,2023.2.3,Win32,60.24096386,657b66ea316d21385b68909f,,,,,,,,,,,784.5076,785.5036,,,786.0039,786.2529,,13,13,,,,,,,,,,,,,,,,bars/004.png,bars/mask009.png,,,,,,,,,,,,4,1,,,,,,,8,10,6,9,,,,,,,,,,,785.5038,786.0038,786.253,792.0843,space,5.8132,,792.0845,12,68,793.0876,793.0878,795.2626,space,2.1299,,0,31,31,31,1,25,125,,,,,,,,
,,6145b0cbb10dd9c806f4b77a,65af566de8cf4b3e6d333546,2024-01-23_08h03.31.048,bars,2023.2.3,Win32,60.24096386,657b66ea316d21385b68909f,,,,,,,,,,,795.2634,796.2599,,,796.7596,797.0094,,114,114,,,,,,,,,,,,,,,,bars/025.png,bars/mask006.png,,,,,,,,,,,,4,1,,,,,,,6,8,6,8,,,,,,,,,,,796.26,796.7595,797.0095,799.7424,space,2.7163,,799.7425,9,74,800.7386,800.7387,803.2307,space,2.4429,,0,32,32,32,1,105,40,,,,,,,,
,,6145b0cbb10dd9c806f4b77a,65af566de8cf4b3e6d333546,2024-01-23_08h03.31.048,bars,2023.2.3,Win32,60.24096386,657b66ea316d21385b68909f,,,,,,,,,,,803.2603,804.2433,,,804.7352,804.9847,,176,-4,,,,,,,,,,,,,,,,bars/006.png,bars/mask006.png,,,,,,,,,,,,0,1,,,,,,,8,10,8,10,,,,,,,,,,,804.2434,804.7351,804.9848,809.7485,space,4.7477,,809.7486,39,76,810.7374,810.7374,813.9613,space,3.1797,,0,33,33,33,1,35,100,,,,,,,,
,,6145b0cbb10dd9c806f4b77a,65af566de8cf4b3e6d333546,2024-01-23_08h03.31.048,bars,2023.2.3,Win32,60.24096386,657b66ea316d21385b68909f,,,,,,,,,,,813.9906,814.9746,,,815.4745,815.7159,,117,117,,,,,,,,,,,,,,,,bars/036.png,bars/mask000.png,,,,,,,,,,,,0,1,,,,,,,6,8,6,10,,,,,,,,,,,814.9747,815.4744,815.7159,820.0615,space,4.331,,820.0616,28,83,821.0602,821.0604,821.9762,space,0.8871,,0,34,34,34,1,145,20,,,,,,,,
,,6145b0cbb10dd9c806f4b77a,65af566de8cf4b3e6d333546,2024-01-23_08h03.31.048,bars,2023.2.3,Win32,60.24096386,657b66ea316d21385b68909f,,,,,,,,,,,821.9777,822.9751,,,823.4747,823.7244,,9,9,,,,,,,,,,,,,,,,bars/036.png,bars/mask009.png,,,,,,,,,,,,4,2,,,,,,,4,6,4,6,,,,,,,,,,,822.9752,823.4747,823.7245,825.3399,space,1.6026,,825.3402,44,11,826.3381,826.3382,828.0542,space,1.693,,0,35,35,35,1,145,20,,,,,,,,
,,6145b0cbb10dd9c806f4b77a,65af566de8cf4b3e6d333546,2024-01-23_08h03.31.048,bars,2023.2.3,Win32,60.24096386,657b66ea316d21385b68909f,,,,,,,,,,,828.0563,829.0528,,,829.5525,829.8021,,6,186,,,,,,,,,,,,,,,,bars/021.png,bars/mask000.png,,,,,,,,,,,,0,1,,,,,,,2,4,2,4,,,,,,,,,,,829.0529,829.5523,829.8022,835.0137,space,5.1969,,835.0137,31,64,836.0125,836.0125,837.8609,space,1.8132,,0,36,36,36,1,155,70,,,,,,,,
,,6145b0cbb10dd9c806f4b77a,65af566de8cf4b3e6d333546,2024-01-23_08h03.31.048,bars,2023.2.3,Win32,60.24096386,657b66ea316d21385b68909f,,,,,,,,,,,837.8623,838.8595,,,839.3592,839.609,,51,51,,,,,,,,,,,,,,,,bars/000.png,bars/mask002.png,,,,,,,,,,,,3,1,,,,,,,4,6,4,4,,,,,,,,,,,838.8597,839.3591,839.609,846.2193,space,6.5955,,846.2194,11,86,847.2178,847.2178,849.5981,space,2.3528,,0,37,37,37,1,40,145,,,,,,,,
,,6145b0cbb10dd9c806f4b77a,65af566de8cf4b3e6d333546,2024-01-23_08h03.31.048,bars,2023.2.3,Win32,60.24096386,657b66ea316d21385b68909f,,,,,,,,,,,849.5992,850.5899,,,851.0827,851.3324,,178,178,,,,,,,,,,,,,,,,bars/034.png,bars/mask003.png,,,,,,,,,,,,0,1,,,,,,,2,8,1,7,,,,,,,,,,,850.5899,851.0826,851.3325,857.0287,space,5.6859,,857.0288,53,67,858.0239,858.024,859.3667,space,1.2957,,0,38,38,38,1,125,65,,,,,,,,
,,6145b0cbb10dd9c806f4b77a,65af566de8cf4b3e6d333546,2024-01-23_08h03.31.048,bars,2023.2.3,Win32,60.24096386,657b66ea316d21385b68909f,,,,,,,,,,,859.3678,860.3633,,,860.8633,861.1131,,47,47,,,,,,,,,,,,,,,,bars/005.png,bars/mask008.png,,,,,,,,,,,,0,1,,,,,,,4,10,5,10,,,,,,,,,,,860.3635,860.8633,861.1132,865.1776,space,4.0478,,865.1778,37,87,866.175,866.1753,867.8817,space,1.6618,,0,39,39,39,1,10,140,,,,,,,,
,,6145b0cbb10dd9c806f4b77a,65af566de8cf4b3e6d333546,2024-01-23_08h03.31.048,bars,2023.2.3,Win32,60.24096386,657b66ea316d21385b68909f,,,,,,,,,,,867.8838,868.8796,,,869.3801,869.6298,,127,127,,,,,,,,,,,,,,,,bars/040.png,bars/mask006.png,,,,,,,,,,,,4,1,,,,,,,6,8,7,7,,,,,,,,,,,868.8797,869.38,869.6299,874.5411,space,4.8969,,874.5412,13,58,875.5401,875.5402,881.9286,space,6.3619,,0,40,40,40,1,140,5,,,,,,,,
,,6145b0cbb10dd9c806f4b77a,65af566de8cf4b3e6d333546,2024-01-23_08h03.31.048,bars,2023.2.3,Win32,60.24096386,657b66ea316d21385b68909f,,,,,,,,,,,881.9581,882.9333,,,883.433,883.6839,,179,179,,,,,,,,,,,,,,,,bars/018.png,bars/mask002.png,,,,,,,,,,,,0,1,,,,,,,4,6,5,7,,,,,,,,,,,882.9334,883.433,883.684,888.145,space,4.4455,,888.1451,29,89,889.1438,889.1438,890.1097,space,0.9373,,0,41,41,41,1,150,90,,,,,,,,
,,6145b0cbb10dd9c806f4b77a,65af566de8cf4b3e6d333546,2024-01-23_08h03.31.048,bars,2023.2.3,Win32,60.24096386,657b66ea316d21385b68909f,,,,,,,,,,,890.1114,891.1084,,,891.6081,891.8573,,4,184,,,,,,,,,,,,,,,,bars/035.png,bars/mask006.png,,,,,,,,,,,,4,1,,,,,,,6,8,6,9,,,,,,,,,,,891.1086,891.608,891.8574,895.8708,space,4.001,,895.871,9,56,896.8697,896.8698,903.9578,space,7.0444,,0,42,42,42,1,175,60,,,,,,,,
,,6145b0cbb10dd9c806f4b77a,65af566de8cf4b3e6d333546,2024-01-23_08h03.31.048,bars,2023.2.3,Win32,60.24096386,657b66ea316d21385b68909f,,,,,,,,,,,903.9806,904.9712,,,905.4614,905.7112,,143,143,,,,,,,,,,,,,,,,bars/028.png,bars/mask004.png,,,,,,,,,,,,2,2,,,,,,,8,6,9,7,,,,,,,,,,,904.9713,905.4612,905.7114,911.2582,space,5.5344,,911.2583,82,23,912.2547,912.2548,916.6109,space,4.3103,,0,43,43,43,1,45,120,,,,,,,,
,,6145b0cbb10dd9c806f4b77a,65af566de8cf4b3e6d333546,2024-01-23_08h03.31.048,bars,2023.2.3,Win32,60.24096386,657b66ea316d21385b68909f,,,,,,,,,,,916.6401,917.616,,,918.1153,918.365,,149,149,,,,,,,,,,,,,,,,bars/023.png,bars/mask004.png,,,,,,,,,,,,0,2,,,,,,,6,8,5,10,,,,,,,,,,,917.6161,918.1152,918.3652,922.8277,space,4.4474,,922.8278,51,34,923.8265,923.8265,925.4281,space,1.5755,,0,44,44,44,1,20,115,,,,,,,,
,,6145b0cbb10dd9c806f4b77a,65af566de8cf4b3e6d333546,2024-01-23_08h03.31.048,bars,2023.2.3,Win32,60.24096386,657b66ea316d21385b68909f,,,,,,,,,,,925.4286,926.4231,,,926.9257,927.1729,,66,66,,,,,,,,,,,,,,,,bars/032.png,bars/mask004.png,,,,,,,,,,,,0,2,,,,,,,4,10,4,9,,,,,,,,,,,926.4233,926.9256,927.1729,931.6026,space,4.4139,,931.6028,59,46,932.6012,932.6013,935.1763,space,2.5485,,0,45,45,45,1,125,20,,,,,,,,
,,6145b0cbb10dd9c806f4b77a,65af566de8cf4b3e6d333546,2024-01-23_08h03.31.048,bars,2023.2.3,Win32,60.24096386,657b66ea316d21385b68909f,,,,,,,,,,,935.2062,936.1899,,,936.6893,936.9391,,112,112,,,,,,,,,,,,,,,,bars/043.png,bars/mask004.png,,,,,,,,,,,,4,2,,,,,,,2,8,3,9,,,,,,,,,,,936.19,936.6891,936.9392,938.9737,space,2.0161,,938.9738,82,18,939.977,939.9771,975.6531,space,35.6311,,0,46,46,46,1,30,130,,,,,,,,
,,6145b0cbb10dd9c806f4b77a,65af566de8cf4b3e6d333546,2024-01-23_08h03.31.048,bars,2023.2.3,Win32,60.24096386,657b66ea316d21385b68909f,,,,,,,,,,,975.6687,976.658,,,977.1577,977.4074,,167,167,,,,,,,,,,,,,,,,bars/016.png,bars/mask002.png,,,,,,,,,,,,8,2,,,,,,,4,6,4,9,,,,,,,,,,,976.6582,977.1577,977.4075,980.4054,space,2.9871,,980.4054,53,2,981.4035,981.4036,984.3842,space,2.9507,,0,47,47,47,1,40,165,,,,,,,,
,,6145b0cbb10dd9c806f4b77a,65af566de8cf4b3e6d333546,2024-01-23_08h03.31.048,bars,2023.2.3,Win32,60.24096386,657b66ea316d21385b68909f,,,,,,,,,,,984.3968,985.3999,,,985.8899,986.14,,124,-56,,,,,,,,,,,,,,,,bars/034.png,bars/mask006.png,,,,,,,,,,,,1,1,,,,,,,2,8,1,7,,,,,,,,,,,985.3999,985.8898,986.1401,993.235,space,7.0783,,993.2351,1,59,994.2324,994.2324,999.2367,space,4.9683,,0,48,48,48,1,125,65,,,,,,,,
,,6145b0cbb10dd9c806f4b77a,65af566de8cf4b3e6d333546,2024-01-23_08h03.31.048,bars,2023.2.3,Win32,60.24096386,657b66ea316d21385b68909f,,,,,,,,,,,999.2648,1000.2519,,,1000.7515,1001.0012,,21,21,,,,,,,,,,,,,,,,bars/047.png,bars/mask009.png,,,,,,,,,,,,0,1,,,,,,,0,6,0,6,,,,,,,,,,,1000.2519,1000.7515,1001.0013,1005.1139,space,4.0974,,1005.114,6,49,1006.1126,1006.1127,1008.0111,space,1.8686,,0,49,49,49,1,15,70,,,,,,,,
,,6145b0cbb10dd9c806f4b77a,65af566de8cf4b3e6d333546,2024-01-23_08h03.31.048,bars,2023.2.3,Win32,60.24096386,657b66ea316d21385b68909f,,,,,,,,,,,,,,,,,,,,,,,,,,,,,,,,,,,,,,,,,,,,,,,,,,,,,,,,,,,,,,,,,,,,,,,,,,,,,,,,,,,,,,,,,,,,,1008.0126,1068.004,0,0,0,2,1,sequence_tables/blk005.csv
,,6145b0cbb10dd9c806f4b77a,65af566de8cf4b3e6d333546,2024-01-23_08h03.31.048,bars,2023.2.3,Win32,60.24096386,657b66ea316d21385b68909f,,,,,,,,,,,1111.2276,1112.1829,,,1112.6837,1112.9336,,62,62,,,,,,,,,,,,,,,,bars/029.png,bars/mask002.png,,,,,,,,,,,,1,2,,,,,,,2,3,5,3,,,,,,1068.0336,1111.1702,space,43.1253,,1112.183,1112.6836,1112.9337,1116.8483,space,3.8978,,1116.8485,28,17,1117.8451,1117.8451,1117.8627,,,,0,0,0,0,1,90,45,,,,,,,,
,,6145b0cbb10dd9c806f4b77a,65af566de8cf4b3e6d333546,2024-01-23_08h03.31.048,bars,2023.2.3,Win32,60.24096386,657b66ea316d21385b68909f,,,,,,,,,,,1117.8635,1118.8522,,,1119.3518,1119.6018,,154,154,,,,,,,,,,,,,,,,bars/023.png,bars/mask009.png,,,,,,,,,,,,0,2,,,,,,,4,1,3,1,,,,,,,,,,,1118.8523,1119.3517,1119.6018,1124.1811,space,4.5648,,1124.1812,46,39,1125.1795,1125.1797,1125.2087,,,,0,1,1,1,1,20,115,,,,,,,,
,,6145b0cbb10dd9c806f4b77a,65af566de8cf4b3e6d333546,2024-01-23_08h03.31.048,bars,2023.2.3,Win32,60.24096386,657b66ea316d21385b68909f,,,,,,,,,,,1125.2096,1126.212,,,1126.7112,1126.9614,,88,88,,,,,,,,,,,,,,,,bars/031.png,bars/mask008.png,,,,,,,,,,,,0,1,,,,,,,6,0,5,0,,,,,,,,,,,1126.212,1126.7111,1126.9615,1130.8412,space,3.8649,,1130.8414,32,53,1131.8394,1131.8395,1131.8738,,,,0,2,2,2,1,120,35,,,,,,,,
,,6145b0cbb10dd9c806f4b77a,65af566de8cf4b3e6d333546,2024-01-23_08h03.31.048,bars,2023.2.3,Win32,60.24096386,657b66ea316d21385b68909f,,,,,,,,,,,1131.8746,1132.8638,,,1133.3634,1133.6132,,53,53,,,,,,,,,,,,,,,,bars/028.png,bars/mask008.png,,,,,,,,,,,,3,1,,,,,,,4,2,4,2,,,,,,,,,,,1132.864,1133.3633,1133.6133,1138.1604,space,4.5312,,1138.1605,8,67,1139.1493,1139.1494,1139.1787,,,,0,3,3,3,1,45,120,,,,,,,,
,,6145b0cbb10dd9c806f4b77a,65af566de8cf4b3e6d333546,2024-01-23_08h03.31.048,bars,2023.2.3,Win32,60.24096386,657b66ea316d21385b68909f,,,,,,,,,,,1139.1794,1140.1819,,,1140.6813,1140.931,,57,57,,,,,,,,,,,,,,,,bars/009.png,bars/mask005.png,,,,,,,,,,,,0,1,,,,,,,6,4,6,4,,,,,,,,,,,1140.182,1140.6812,1140.9311,1143.2789,space,2.3368,,1143.2792,42,48,1144.2777,1144.2778,1144.3105,,,,0,4,4,4,1,15,105,,,,,,,,
,,6145b0cbb10dd9c806f4b77a,65af566de8cf4b3e6d333546,2024-01-23_08h03.31.048,bars,2023.2.3,Win32,60.24096386,657b66ea316d21385b68909f,,,,,,,,,,,1144.312,1145.3023,,,1145.7924,1146.0424,,91,91,,,,,,,,,,,,,,,,bars/014.png,bars/mask001.png,,,,,,,,,,,,2,1,,,,,,,4,2,3,2,,,,,,,,,,,1145.3024,1145.7922,1146.0425,1154.3346,space,8.2749,,1154.3347,11,89,1155.3327,1155.3328,1155.3486,,,,0,5,5,5,1,80,0,,,,,,,,
,,6145b0cbb10dd9c806f4b77a,65af566de8cf4b3e6d333546,2024-01-23_08h03.31.048,bars,2023.2.3,Win32,60.24096386,657b66ea316d21385b68909f,,,,,,,,,,,1155.3493,1156.3508,,,1156.8489,1157.1002,,135,135,,,,,,,,,,,,,,,,bars/007.png,bars/mask004.png,,,,,,,,,,,,0,1,,,,,,,2,4,2,5,,,,,,,,,,,1156.351,1156.8489,1157.1002,1160.4533,space,3.3455,,1160.4534,40,80,1161.4513,1161.4513,1161.4679,,,,0,6,6,6,1,175,55,,,,,,,,
,,6145b0cbb10dd9c806f4b77a,65af566de8cf4b3e6d333546,2024-01-23_08h03.31.048,bars,2023.2.3,Win32,60.24096386,657b66ea316d21385b68909f,,,,,,,,,,,1161.4685,1162.4598,,,1162.9593,1163.209,,135,135,,,,,,,,,,,,,,,,bars/034.png,bars/mask002.png,,,,,,,,,,,,3,1,,,,,,,4,2,5,2,,,,,,,,,,,1162.4598,1162.9592,1163.2091,1166.0734,space,2.8494,,1166.0735,10,70,1167.0725,1167.0725,1167.0893,,,,0,7,7,7,1,125,65,,,,,,,,
,,6145b0cbb10dd9c806f4b77a,65af566de8cf4b3e6d333546,2024-01-23_08h03.31.048,bars,2023.2.3,Win32,60.24096386,657b66ea316d21385b68909f,,,,,,,,,,,1167.0898,1168.0882,,,1168.5871,1168.8372,,16,16,,,,,,,,,,,,,,,,bars/004.png,bars/mask004.png,,,,,,,,,,,,1,1,,,,,,,2,4,2,6,,,,,,,,,,,1168.0883,1168.5871,1168.8372,1172.1182,space,3.2707,,1172.1182,9,71,1173.1159,1173.116,1173.1293,,,,0,8,8,8,1,25,125,,,,,,,,
,,6145b0cbb10dd9c806f4b77a,65af566de8cf4b3e6d333546,2024-01-23_08h03.31.048,bars,2023.2.3,Win32,60.24096386,657b66ea316d21385b68909f,,,,,,,,,,,1173.1299,1174.1328,,,1174.6328,1174.8822,,149,-31,,,,,,,,,,,,,,,,bars/040.png,bars/mask005.png,,,,,,,,,,,,0,1,,,,,,,0,2,0,2,,,,,,,,,,,1174.133,1174.6327,1174.8823,1181.6421,space,6.744,,1181.6421,9,36,1182.6412,1182.6413,1182.6771,,,,0,9,9,9,1,140,5,,,,,,,,
,,6145b0cbb10dd9c806f4b77a,65af566de8cf4b3e6d333546,2024-01-23_08h03.31.048,bars,2023.2.3,Win32,60.24096386,657b66ea316d21385b68909f,,,,,,,,,,,1182.6779,1183.6808,,,1184.1722,1184.4221,,100,100,,,,,,,,,,,,,,,,bars/001.png,bars/mask004.png,,,,,,,,,,,,3,2,,,,,,,0,4,0,5,,,,,,,,,,,1183.6809,1184.1721,1184.4224,1189.4833,space,5.0459,,1189.4835,30,15,1190.4821,1190.4823,1190.517,,,,0,10,10,10,1,130,85,,,,,,,,
,,6145b0cbb10dd9c806f4b77a,65af566de8cf4b3e6d333546,2024-01-23_08h03.31.048,bars,2023.2.3,Win32,60.24096386,657b66ea316d21385b68909f,,,,,,,,,,,1190.5179,1191.5066,,,1192.0067,1192.2557,,106,106,,,,,,,,,,,,,,,,bars/002.png,bars/mask008.png,,,,,,,,,,,,0,2,,,,,,,2,2,1,0,,,,,,,,,,,1191.5066,1192.0066,1192.2558,1196.5787,space,4.3066,,1196.5787,24,21,1197.5768,1197.5768,1197.6078,,,,0,11,11,11,1,130,85,,,,,,,,
,,6145b0cbb10dd9c806f4b77a,65af566de8cf4b3e6d333546,2024-01-23_08h03.31.048,bars,2023.2.3,Win32,60.24096386,657b66ea316d21385b68909f,,,,,,,,,,,1197.6087,1198.6079,,,1199.0993,1199.3488,,2,2,,,,,,,,,,,,,,,,bars/037.png,bars/mask005.png,,,,,,,,,,,,0,1,,,,,,,4,4,5,5,,,,,,,,,,,1198.6079,1199.0992,1199.3489,1204.4695,space,5.0987,,1204.4696,32,77,1205.4687,1205.4688,1205.5137,,,,0,12,12,12,1,150,105,,,,,,,,
,,6145b0cbb10dd9c806f4b77a,65af566de8cf4b3e6d333546,2024-01-23_08h03.31.048,bars,2023.2.3,Win32,60.24096386,657b66ea316d21385b68909f,,,,,,,,,,,1205.5146,1206.5095,,,1207.0044,1207.2577,,174,-6,,,,,,,,,,,,,,,,bars/039.png,bars/mask004.png,,,,,,,,,,,,0,1,,,,,,,2,2,0,3,,,,,,,,,,,1206.5097,1207.0044,1207.2578,1212.7203,space,5.4461,,1212.7204,1,69,1213.7108,1213.7108,1213.7424,,,,0,13,13,13,1,175,105,,,,,,,,
,,6145b0cbb10dd9c806f4b77a,65af566de8cf4b3e6d333546,2024-01-23_08h03.31.048,bars,2023.2.3,Win32,60.24096386,657b66ea316d21385b68909f,,,,,,,,,,,1213.7432,1214.7337,,,1215.2336,1215.4831,,170,-10,,,,,,,,,,,,,,,,bars/039.png,bars/mask006.png,,,,,,,,,,,,4,1,,,,,,,4,4,5,4,,,,,,,,,,,1214.7337,1215.2335,1215.4833,1221.2447,space,5.7461,,1221.2447,5,65,1222.2345,1222.2346,1222.2477,,,,0,14,14,14,1,175,105,,,,,,,,
,,6145b0cbb10dd9c806f4b77a,65af566de8cf4b3e6d333546,2024-01-23_08h03.31.048,bars,2023.2.3,Win32,60.24096386,657b66ea316d21385b68909f,,,,,,,,,,,1222.2483,1223.2506,,,1223.7501,1223.9996,,20,200,,,,,,,,,,,,,,,,bars/022.png,bars/mask002.png,,,,,,,,,,,,7,2,,,,,,,2,6,1,7,,,,,,,,,,,1223.2506,1223.75,1223.9996,1230.8762,space,6.8619,,1230.8763,75,0,1231.8754,1231.8754,1231.9084,,,,0,15,15,15,1,95,20,,,,,,,,
,,6145b0cbb10dd9c806f4b77a,65af566de8cf4b3e6d333546,2024-01-23_08h03.31.048,bars,2023.2.3,Win32,60.24096386,657b66ea316d21385b68909f,,,,,,,,,,,1231.909,1232.9076,,,1233.4064,1233.6583,,129,129,,,,,,,,,,,,,,,,bars/000.png,bars/mask006.png,,,,,,,,,,,,2,2,,,,,,,4,4,2,5,,,,,,,,,,,1232.9077,1233.4063,1233.6584,1238.6356,space,4.9609,,1238.6357,89,16,1239.6356,1239.6358,1239.6702,,,,0,16,16,16,1,40,145,,,,,,,,
,,6145b0cbb10dd9c806f4b77a,65af566de8cf4b3e6d333546,2024-01-23_08h03.31.048,bars,2023.2.3,Win32,60.24096386,657b66ea316d21385b68909f,,,,,,,,,,,1239.6711,1240.6749,,,1241.1661,1241.4154,,156,156,,,,,,,,,,,,,,,,bars/032.png,bars/mask005.png,,,,,,,,,,,,0,1,,,,,,,6,2,5,2,,,,,,,,,,,1240.6749,1241.166,1241.4155,1242.984,space,1.5569,,1242.9841,31,44,1243.9798,1243.9798,1244.0176,,,,0,17,17,17,1,125,20,,,,,,,,
,,6145b0cbb10dd9c806f4b77a,65af566de8cf4b3e6d333546,2024-01-23_08h03.31.048,bars,2023.2.3,Win32,60.24096386,657b66ea316d21385b68909f,,,,,,,,,,,1244.0183,1245.0137,,,1245.5135,1245.763,,4,184,,,,,,,,,,,,,,,,bars/012.png,bars/mask009.png,,,,,,,,,,,,2,2,,,,,,,8,4,7,3,,,,,,,,,,,1245.0138,1245.5135,1245.7631,1249.5261,space,3.7476,,1249.5262,86,11,1250.525,1250.525,1250.5602,,,,0,18,18,18,1,90,15,,,,,,,,
,,6145b0cbb10dd9c806f4b77a,65af566de8cf4b3e6d333546,2024-01-23_08h03.31.048,bars,2023.2.3,Win32,60.24096386,657b66ea316d21385b68909f,,,,,,,,,,,1250.561,1251.5641,,,1252.057,1252.3066,,108,108,,,,,,,,,,,,,,,,bars/027.png,bars/mask003.png,,,,,,,,,,,,5,1,,,,,,,6,2,5,3,,,,,,,,,,,1251.5642,1252.0568,1252.3068,1255.9701,space,3.6488,,1255.9702,2,58,1256.9684,1256.9685,1257.0037,,,,0,19,19,19,1,110,50,,,,,,,,
,,6145b0cbb10dd9c806f4b77a,65af566de8cf4b3e6d333546,2024-01-23_08h03.31.048,bars,2023.2.3,Win32,60.24096386,657b66ea316d21385b68909f,,,,,,,,,,,1257.0045,1258.0072,,,1258.507,1258.7567,,11,11,,,,,,,,,,,,,,,,bars/039.png,bars/mask004.png,,,,,,,,,,,,4,1,,,,,,,8,4,8,2,,,,,,,,,,,1258.0073,1258.5069,1258.7567,1260.1729,space,1.4001,,1260.173,16,86,1261.1715,1261.1716,1261.1736,,,,0,20,20,20,1,175,105,,,,,,,,
,,6145b0cbb10dd9c806f4b77a,65af566de8cf4b3e6d333546,2024-01-23_08h03.31.048,bars,2023.2.3,Win32,60.24096386,657b66ea316d21385b68909f,,,,,,,,,,,1261.1742,1262.1705,,,1262.662,1262.9116,,115,115,,,,,,,,,,,,,,,,bars/008.png,bars/mask005.png,,,,,,,,,,,,4,1,,,,,,,6,6,5,6,,,,,,,,,,,1262.1706,1262.6619,1262.9118,1264.2939,space,1.3685,,1264.294,5,65,1265.2926,1265.2927,1265.296,,,,0,21,21,21,1,110,0,,,,,,,,
,,6145b0cbb10dd9c806f4b77a,65af566de8cf4b3e6d333546,2024-01-23_08h03.31.048,bars,2023.2.3,Win32,60.24096386,657b66ea316d21385b68909f,,,,,,,,,,,1265.297,1266.2917,,,1266.791,1267.0405,,34,34,,,,,,,,,,,,,,,,bars/000.png,bars/mask001.png,,,,,,,,,,,,7,1,,,,,,,8,4,9,4,,,,,,,,,,,1266.2918,1266.7909,1267.0406,1272.8856,space,5.8292,,1272.8857,6,69,1273.8845,1273.8846,1273.9136,,,,0,22,22,22,1,40,145,,,,,,,,
,,6145b0cbb10dd9c806f4b77a,65af566de8cf4b3e6d333546,2024-01-23_08h03.31.048,bars,2023.2.3,Win32,60.24096386,657b66ea316d21385b68909f,,,,,,,,,,,1273.9144,1274.9165,,,1275.4162,1275.6659,,50,50,,,,,,,,,,,,,,,,bars/028.png,bars/mask002.png,,,,,,,,,,,,8,1,,,,,,,10,2,10,2,,,,,,,,,,,1274.9166,1275.4161,1275.6659,1283.5247,space,7.8427,,1283.5248,5,70,1284.5235,1284.5236,1284.5405,,,,0,23,23,23,1,45,120,,,,,,,,
,,6145b0cbb10dd9c806f4b77a,65af566de8cf4b3e6d333546,2024-01-23_08h03.31.048,bars,2023.2.3,Win32,60.24096386,657b66ea316d21385b68909f,,,,,,,,,,,1284.541,1285.5391,,,1286.0391,1286.2884,,150,150,,,,,,,,,,,,,,,,bars/020.png,bars/mask009.png,,,,,,,,,,,,2,2,,,,,,,10,4,10,6,,,,,,,,,,,1285.5392,1286.039,1286.2885,1290.3017,space,3.9983,,1290.3018,35,20,1291.3005,1291.3006,1291.3346,,,,0,24,24,24,1,115,170,,,,,,,,
,,6145b0cbb10dd9c806f4b77a,65af566de8cf4b3e6d333546,2024-01-23_08h03.31.048,bars,2023.2.3,Win32,60.24096386,657b66ea316d21385b68909f,,,,,,,,,,,1291.3355,1292.3243,,,1292.8242,1293.0739,,4,4,,,,,,,,,,,,,,,,bars/007.png,bars/mask009.png,,,,,,,,,,,,6,1,,,,,,,10,6,9,7,,,,,,,,,,,1292.3244,1292.8242,1293.074,1297.6043,space,4.5148,,1297.6044,9,51,1298.5937,1298.5938,1298.6303,,,,0,25,25,25,1,175,55,,,,,,,,
,,6145b0cbb10dd9c806f4b77a,65af566de8cf4b3e6d333546,2024-01-23_08h03.31.048,bars,2023.2.3,Win32,60.24096386,657b66ea316d21385b68909f,,,,,,,,,,,1298.6321,1299.6269,,,1300.1252,1300.3761,,176,-4,,,,,,,,,,,,,,,,bars/035.png,bars/mask005.png,,,,,,,,,,,,10,1,,,,,,,10,8,10,8,,,,,,,,,,,1299.6269,1300.125,1300.3762,1306.4373,space,6.045,,1306.4373,1,64,1307.4355,1307.4355,1307.4657,,,,0,26,26,26,1,175,60,,,,,,,,
,,6145b0cbb10dd9c806f4b77a,65af566de8cf4b3e6d333546,2024-01-23_08h03.31.048,bars,2023.2.3,Win32,60.24096386,657b66ea316d21385b68909f,,,,,,,,,,,1307.4674,1308.4667,,,1308.9667,1309.2163,,173,173,,,,,,,,,,,,,,,,bars/037.png,bars/mask008.png,,,,,,,,,,,,2,1,,,,,,,10,10,10,10,,,,,,,,,,,1308.4667,1308.9666,1309.2164,1311.6481,space,2.4171,,1311.6482,23,68,1312.6462,1312.6462,1312.6739,,,,0,27,27,27,1,150,105,,,,,,,,
,,6145b0cbb10dd9c806f4b77a,65af566de8cf4b3e6d333546,2024-01-23_08h03.31.048,bars,2023.2.3,Win32,60.24096386,657b66ea316d21385b68909f,,,,,,,,,,,1312.6751,1313.6782,,,1314.1782,1314.4279,,122,-58,,,,,,,,,,,,,,,,bars/027.png,bars/mask009.png,,,,,,,,,,,,6,1,,,,,,,10,8,10,8,,,,,,,,,,,1313.6782,1314.1781,1314.428,1319.9737,space,5.5299,,1319.9738,12,72,1320.972,1320.9722,1321.0022,,,,0,28,28,28,1,110,50,,,,,,,,
,,6145b0cbb10dd9c806f4b77a,65af566de8cf4b3e6d333546,2024-01-23_08h03.31.048,bars,2023.2.3,Win32,60.24096386,657b66ea316d21385b68909f,,,,,,,,,,,1321.0028,1322.0037,,,1322.5035,1322.7449,,117,117,,,,,,,,,,,,,,,,bars/034.png,bars/mask000.png,,,,,,,,,,,,6,1,,,,,,,8,10,8,10,,,,,,,,,,,1322.0037,1322.5033,1322.745,1327.0841,space,4.3174,,1327.0842,8,52,1328.0826,1328.0826,1328.1135,,,,0,29,29,29,1,125,65,,,,,,,,
,,6145b0cbb10dd9c806f4b77a,65af566de8cf4b3e6d333546,2024-01-23_08h03.31.048,bars,2023.2.3,Win32,60.24096386,657b66ea316d21385b68909f,,,,,,,,,,,1328.114,1329.1135,,,1329.6131,1329.8545,,12,12,,,,,,,,,,,,,,,,bars/025.png,bars/mask007.png,,,,,,,,,,,,1,2,,,,,,,6,10,7,10,,,,,,,,,,,1329.1136,1329.6131,1329.8546,1331.5072,space,1.6356,,1331.5073,87,28,1332.5101,1332.5102,1332.5178,,,,0,30,30,30,1,105,40,,,,,,,,
,,6145b0cbb10dd9c806f4b77a,65af566de8cf4b3e6d333546,2024-01-23_08h03.31.048,bars,2023.2.3,Win32,60.24096386,657b66ea316d21385b68909f,,,,,,,,,,,1332.5187,1333.5092,,,1334.0006,1334.2504,,17,197,,,,,,,,,,,,,,,,bars/011.png,bars/mask009.png,,,,,,,,,,,,0,1,,,,,,,4,10,3,10,,,,,,,,,,,1333.5093,1334.0006,1334.2506,1340.046,space,5.7797,,1340.0462,37,68,1341.0434,1341.0434,1341.078,,,,0,31,31,31,1,160,85,,,,,,,,
,,6145b0cbb10dd9c806f4b77a,65af566de8cf4b3e6d333546,2024-01-23_08h03.31.048,bars,2023.2.3,Win32,60.24096386,657b66ea316d21385b68909f,,,,,,,,,,,1341.079,1342.0674,,,1342.5674,1342.8169,,32,32,,,,,,,,,,,,,,,,bars/004.png,bars/mask006.png,,,,,,,,,,,,5,1,,,,,,,6,10,7,10,,,,,,,,,,,1342.0675,1342.5673,1342.8169,1344.2338,space,1.4063,,1344.2339,7,87,1345.2232,1345.2233,1345.2269,,,,0,32,32,32,1,25,125,,,,,,,,
,,6145b0cbb10dd9c806f4b77a,65af566de8cf4b3e6d333546,2024-01-23_08h03.31.048,bars,2023.2.3,Win32,60.24096386,657b66ea316d21385b68909f,,,,,,,,,,,1345.2279,1346.222,,,1346.7214,1346.971,,149,149,,,,,,,,,,,,,,,,bars/039.png,bars/mask003.png,,,,,,,,,,,,0,1,,,,,,,4,10,3,9,,,,,,,,,,,1346.2222,1346.7213,1346.971,1349.3373,space,2.3495,,1349.3373,26,44,1350.3272,1350.3273,1350.358,,,,0,33,33,33,1,175,105,,,,,,,,
,,6145b0cbb10dd9c806f4b77a,65af566de8cf4b3e6d333546,2024-01-23_08h03.31.048,bars,2023.2.3,Win32,60.24096386,657b66ea316d21385b68909f,,,,,,,,,,,1350.3591,1351.3502,,,1351.8411,1352.0909,,3,183,,,,,,,,,,,,,,,,bars/036.png,bars/mask000.png,,,,,,,,,,,,3,2,,,,,,,6,8,8,8,,,,,,,,,,,1351.3504,1351.8408,1352.0911,1359.3005,space,7.1991,,1359.3007,38,17,1360.2987,1360.2988,1360.3224,,,,0,34,34,34,1,145,20,,,,,,,,
,,6145b0cbb10dd9c806f4b77a,65af566de8cf4b3e6d333546,2024-01-23_08h03.31.048,bars,2023.2.3,Win32,60.24096386,657b66ea316d21385b68909f,,,,,,,,,,,1360.3229,1361.3168,,,1361.8158,1362.0656,,14,194,,,,,,,,,,,,,,,,bars/026.png,bars/mask004.png,,,,,,,,,,,,1,1,,,,,,,4,6,4,6,,,,,,,,,,,1361.3168,1361.8157,1362.0656,1365.8625,space,3.7842,,1365.8626,21,71,1366.8611,1366.8611,1366.8997,,,,0,35,35,35,1,35,85,,,,,,,,
,,6145b0cbb10dd9c806f4b77a,65af566de8cf4b3e6d333546,2024-01-23_08h03.31.048,bars,2023.2.3,Win32,60.24096386,657b66ea316d21385b68909f,,,,,,,,,,,1366.9006,1367.8918,,,1368.384,1368.6299,,103,103,,,,,,,,,,,,,,,,bars/003.png,bars/mask003.png,,,,,,,,,,,,0,2,,,,,,,2,4,1,4,,,,,,,,,,,1367.8919,1368.3837,1368.6299,1374.0544,space,5.4055,,1374.0545,78,37,1375.0517,1375.0517,1375.0689,,,,0,36,36,36,1,25,140,,,,,,,,
,,6145b0cbb10dd9c806f4b77a,65af566de8cf4b3e6d333546,2024-01-23_08h03.31.048,bars,2023.2.3,Win32,60.24096386,657b66ea316d21385b68909f,,,,,,,,,,,1375.0695,1376.0592,,,1376.5506,1376.8,,10,190,,,,,,,,,,,,,,,,bars/041.png,bars/mask003.png,,,,,,,,,,,,1,1,,,,,,,0,2,1,0,,,,,,,,,,,1376.0593,1376.5505,1376.8004,1380.5814,space,3.7713,,1380.5817,10,75,1381.5785,1381.5787,1381.6125,,,,0,37,37,37,1,20,85,,,,,,,,
,,6145b0cbb10dd9c806f4b77a,65af566de8cf4b3e6d333546,2024-01-23_08h03.31.048,bars,2023.2.3,Win32,60.24096386,657b66ea316d21385b68909f,,,,,,,,,,,1381.6133,1382.6028,,,1383.1031,1383.3522,,12,12,,,,,,,,,,,,,,,,bars/041.png,bars/mask005.png,,,,,,,,,,,,1,1,,,,,,,2,0,2,1,,,,,,,,,,,1382.603,1383.1031,1383.3524,1384.8019,space,1.4343,,1384.802,8,73,1385.7995,1385.7996,1385.8024,,,,0,38,38,38,1,20,85,,,,,,,,
,,6145b0cbb10dd9c806f4b77a,65af566de8cf4b3e6d333546,2024-01-23_08h03.31.048,bars,2023.2.3,Win32,60.24096386,657b66ea316d21385b68909f,,,,,,,,,,,1385.8032,1386.7986,,,1387.2986,1387.5482,,171,-9,,,,,,,,,,,,,,,,bars/032.png,bars/mask007.png,,,,,,,,,,,,0,2,,,,,,,4,2,5,2,,,,,,,,,,,1386.7988,1387.2985,1387.5482,1391.2625,space,3.6983,,1391.2626,46,29,1392.2517,1392.2517,1392.284,,,,0,39,39,39,1,125,20,,,,,,,,
,,6145b0cbb10dd9c806f4b77a,65af566de8cf4b3e6d333546,2024-01-23_08h03.31.048,bars,2023.2.3,Win32,60.24096386,657b66ea316d21385b68909f,,,,,,,,,,,1392.2845,1393.2835,,,1393.7831,1394.0327,,178,-2,,,,,,,,,,,,,,,,bars/001.png,bars/mask000.png,,,,,,,,,,,,0,1,,,,,,,6,0,7,1,,,,,,,,,,,1393.2836,1393.7831,1394.0329,1398.9117,space,4.865,,1398.9117,48,87,1399.9104,1399.9106,1399.927,,,,0,40,40,40,1,130,85,,,,,,,,
,,6145b0cbb10dd9c806f4b77a,65af566de8cf4b3e6d333546,2024-01-23_08h03.31.048,bars,2023.2.3,Win32,60.24096386,657b66ea316d21385b68909f,,,,,,,,,,,1399.9283,1400.9182,,,1401.4182,1401.6683,,111,111,,,,,,,,,,,,,,,,bars/020.png,bars/mask007.png,,,,,,,,,,,,3,1,,,,,,,4,2,4,2,,,,,,,,,,,1400.9183,1401.4181,1401.6685,1403.4953,space,1.8111,,1403.4953,4,59,1404.4984,1404.4985,1404.5031,,,,0,41,41,41,1,115,170,,,,,,,,
,,6145b0cbb10dd9c806f4b77a,65af566de8cf4b3e6d333546,2024-01-23_08h03.31.048,bars,2023.2.3,Win32,60.24096386,657b66ea316d21385b68909f,,,,,,,,,,,1404.504,1405.4971,,,1405.997,1406.2468,,93,93,,,,,,,,,,,,,,,,bars/028.png,bars/mask003.png,,,,,,,,,,,,0,2,,,,,,,2,4,1,3,,,,,,,,,,,1405.4973,1405.9969,1406.2469,1407.5306,space,1.2678,,1407.5307,48,27,1408.5206,1408.5207,1408.5273,,,,0,42,42,42,1,45,120,,,,,,,,
,,6145b0cbb10dd9c806f4b77a,65af566de8cf4b3e6d333546,2024-01-23_08h03.31.048,bars,2023.2.3,Win32,60.24096386,657b66ea316d21385b68909f,,,,,,,,,,,1408.5283,1409.5186,,,1410.0181,1410.2679,,106,106,,,,,,,,,,,,,,,,bars/049.png,bars/mask000.png,,,,,,,,,,,,1,2,,,,,,,0,2,1,1,,,,,,,,,,,1409.5186,1410.018,1410.268,1413.7855,space,3.508,,1413.7856,54,9,1414.7883,1414.7885,1414.8188,,,,0,43,43,43,1,160,115,,,,,,,,
,,6145b0cbb10dd9c806f4b77a,65af566de8cf4b3e6d333546,2024-01-23_08h03.31.048,bars,2023.2.3,Win32,60.24096386,657b66ea316d21385b68909f,,,,,,,,,,,1414.8197,1415.812,,,1416.3036,1416.5528,,131,131,,,,,,,,,,,,,,,,bars/015.png,bars/mask000.png,,,,,,,,,,,,0,1,,,,,,,0,4,0,4,,,,,,,,,,,1415.8121,1416.3036,1416.5529,1422.299,space,5.7298,,1422.2991,21,29,1423.289,1423.2891,1423.3256,,,,0,44,44,44,1,110,160,,,,,,,,
,,6145b0cbb10dd9c806f4b77a,65af566de8cf4b3e6d333546,2024-01-23_08h03.31.048,bars,2023.2.3,Win32,60.24096386,657b66ea316d21385b68909f,,,,,,,,,,,1423.3264,1424.3217,,,1424.821,1425.0706,,19,199,,,,,,,,,,,,,,,,bars/014.png,bars/mask006.png,,,,,,,,,,,,3,2,,,,,,,0,6,0,9,,,,,,,,,,,1424.3217,1424.8208,1425.0708,1430.366,space,5.2808,,1430.3662,61,19,1431.3647,1431.3647,1431.4021,,,,0,45,45,45,1,80,0,,,,,,,,
,,6145b0cbb10dd9c806f4b77a,65af566de8cf4b3e6d333546,2024-01-23_08h03.31.048,bars,2023.2.3,Win32,60.24096386,657b66ea316d21385b68909f,,,,,,,,,,,1431.403,1432.3958,,,1432.8954,1433.1447,,14,194,,,,,,,,,,,,,,,,bars/024.png,bars/mask004.png,,,,,,,,,,,,1,2,,,,,,,2,4,2,3,,,,,,,,,,,1432.3959,1432.8954,1433.1448,1439.2223,space,6.0636,,1439.2224,74,24,1440.2212,1440.2213,1440.2522,,,,0,46,46,46,1,120,170,,,,,,,,
,,6145b0cbb10dd9c806f4b77a,65af566de8cf4b3e6d333546,2024-01-23_08h03.31.048,bars,2023.2.3,Win32,60.24096386,657b66ea316d21385b68909f,,,,,,,,,,,1440.2539,1441.2455,,,1441.7368,1441.9866,,6,6,,,,,,,,,,,,,,,,bars/047.png,bars/mask002.png,,,,,,,,,,,,1,1,,,,,,,0,2,1,2,,,,,,,,,,,1441.2457,1441.7368,1441.9867,1446.5538,space,4.5562,,1446.554,9,64,1447.5477,1447.5477,1447.5813,,,,0,47,47,47,1,15,70,,,,,,,,
,,6145b0cbb10dd9c806f4b77a,65af566de8cf4b3e6d333546,2024-01-23_08h03.31.048,bars,2023.2.3,Win32,60.24096386,657b66ea316d21385b68909f,,,,,,,,,,,1447.5822,1448.5716,,,1449.0713,1449.3208,,41,41,,,,,,,,,,,,,,,,bars/000.png,bars/mask006.png,,,,,,,,,,,,2,1,,,,,,,0,4,2,5,,,,,,,,,,,1448.5717,1449.0713,1449.3209,1454.6104,space,5.2735,,1454.6104,1,76,1455.6064,1455.6066,1455.6359,,,,0,48,48,48,1,40,145,,,,,,,,
,,6145b0cbb10dd9c806f4b77a,65af566de8cf4b3e6d333546,2024-01-23_08h03.31.048,bars,2023.2.3,Win32,60.24096386,657b66ea316d21385b68909f,,,,,,,,,,,1455.6368,1456.6384,,,1457.1379,1457.3876,,8,8,,,,,,,,,,,,,,,,bars/025.png,bars/mask008.png,,,,,,,,,,,,0,2,,,,,,,2,2,1,3,,,,,,,,,,,1456.6385,1457.1377,1457.3876,1462.0168,space,4.6143,,1462.0168,83,32,1463.0153,1463.0154,1463.0321,,,,0,49,49,49,1,105,40,,,,,,,,
,,6145b0cbb10dd9c806f4b77a,65af566de8cf4b3e6d333546,2024-01-23_08h03.31.048,bars,2023.2.3,Win32,60.24096386,657b66ea316d21385b68909f,,,,,,,,,,,,,,,,,,,,,,,,,,,,,,,,,,,,,,,,,,,,,,,,,,,,,,,,,,,,,,,,,,,,,,,,,,,,,,,,,,,,,,,,,,,,,1463.0324,1523.0253,0,1,1,3,1,sequence_tables/blk016.csv
,,6145b0cbb10dd9c806f4b77a,65af566de8cf4b3e6d333546,2024-01-23_08h03.31.048,bars,2023.2.3,Win32,60.24096386,657b66ea316d21385b68909f,,,,,,,,,,,1564.1347,1565.1075,,,1565.6075,1565.8571,,67,67,,,,,,,,,,,,,,,,bars/013.png,bars/mask001.png,,,,,,,,,,,,7,1,,,,,,,10,2,10,0,,,,,,1523.0544,1564.094,space,41.0289,,1565.1076,1565.6074,1565.8572,1566.9738,space,1.1003,,1566.9739,8,57,1567.9713,1567.9714,1567.979,,,,0,0,0,0,1,75,10,,,,,,,,
,,6145b0cbb10dd9c806f4b77a,65af566de8cf4b3e6d333546,2024-01-23_08h03.31.048,bars,2023.2.3,Win32,60.24096386,657b66ea316d21385b68909f,,,,,,,,,,,1567.9799,1568.9703,,,1569.4701,1569.7199,,112,112,,,,,,,,,,,,,,,,bars/028.png,bars/mask002.png,,,,,,,,,,,,1,2,,,,,,,10,0,10,1,,,,,,,,,,,1568.9704,1569.47,1569.7201,1573.0369,space,3.299,,1573.0371,67,8,1574.04,1574.0401,1574.0734,,,,0,1,1,1,1,45,120,,,,,,,,
,,6145b0cbb10dd9c806f4b77a,65af566de8cf4b3e6d333546,2024-01-23_08h03.31.048,bars,2023.2.3,Win32,60.24096386,657b66ea316d21385b68909f,,,,,,,,,,,1574.0743,1575.0812,,,1575.5723,1575.8222,,152,152,,,,,,,,,,,,,,,,bars/010.png,bars/mask006.png,,,,,,,,,,,,5,1,,,,,,,8,2,8,0,,,,,,,,,,,1575.0813,1575.5721,1575.8223,1577.0713,space,1.2342,,1577.0716,13,83,1578.0735,1578.0736,1578.0804,,,,0,2,2,2,1,165,55,,,,,,,,
,,6145b0cbb10dd9c806f4b77a,65af566de8cf4b3e6d333546,2024-01-23_08h03.31.048,bars,2023.2.3,Win32,60.24096386,657b66ea316d21385b68909f,,,,,,,,,,,1578.0814,1579.0858,,,1579.5853,1579.8346,,167,167,,,,,,,,,,,,,,,,bars/003.png,bars/mask003.png,,,,,,,,,,,,0,2,,,,,,,6,0,6,0,,,,,,,,,,,1579.0858,1579.5852,1579.8347,1580.9842,space,1.1338,,1580.9845,38,27,1581.9824,1581.9824,1581.9897,,,,0,3,3,3,1,25,140,,,,,,,,
,,6145b0cbb10dd9c806f4b77a,65af566de8cf4b3e6d333546,2024-01-23_08h03.31.048,bars,2023.2.3,Win32,60.24096386,657b66ea316d21385b68909f,,,,,,,,,,,1581.9906,1582.9815,,,1583.4809,1583.7308,,156,156,,,,,,,,,,,,,,,,bars/040.png,bars/mask006.png,,,,,,,,,,,,4,1,,,,,,,8,0,8,0,,,,,,,,,,,1582.9816,1583.4808,1583.7309,1586.461,space,2.7161,,1586.4618,16,29,1587.4602,1587.4603,1587.4776,,,,0,4,4,4,1,140,5,,,,,,,,
,,6145b0cbb10dd9c806f4b77a,65af566de8cf4b3e6d333546,2024-01-23_08h03.31.048,bars,2023.2.3,Win32,60.24096386,657b66ea316d21385b68909f,,,,,,,,,,,1587.4782,1588.4761,,,1588.9755,1589.2254,,57,57,,,,,,,,,,,,,,,,bars/049.png,bars/mask006.png,,,,,,,,,,,,0,2,,,,,,,6,2,7,3,,,,,,,,,,,1588.4761,1588.9754,1589.2255,1594.2706,space,5.0309,,1594.2708,77,58,1595.2692,1595.2693,1595.2859,,,,0,5,5,5,1,160,115,,,,,,,,
,,6145b0cbb10dd9c806f4b77a,65af566de8cf4b3e6d333546,2024-01-23_08h03.31.048,bars,2023.2.3,Win32,60.24096386,657b66ea316d21385b68909f,,,,,,,,,,,1595.2866,1596.2772,,,1596.7769,1597.0269,,162,162,,,,,,,,,,,,,,,,bars/008.png,bars/mask002.png,,,,,,,,,,,,1,2,,,,,,,8,4,6,3,,,,,,,,,,,1596.2772,1596.7769,1597.027,1602.6062,space,5.5636,,1602.6062,52,18,1603.5962,1603.5962,1603.626,,,,0,6,6,6,1,110,0,,,,,,,,
,,6145b0cbb10dd9c806f4b77a,65af566de8cf4b3e6d333546,2024-01-23_08h03.31.048,bars,2023.2.3,Win32,60.24096386,657b66ea316d21385b68909f,,,,,,,,,,,1603.6277,1604.6275,,,1605.1269,1605.3766,,23,23,,,,,,,,,,,,,,,,bars/007.png,bars/mask008.png,,,,,,,,,,,,0,1,,,,,,,6,2,6,3,,,,,,,,,,,1604.6275,1605.1269,1605.3767,1609.6561,space,4.265,,1609.6564,28,32,1610.6547,1610.6548,1610.6891,,,,0,7,7,7,1,175,55,,,,,,,,
,,6145b0cbb10dd9c806f4b77a,65af566de8cf4b3e6d333546,2024-01-23_08h03.31.048,bars,2023.2.3,Win32,60.24096386,657b66ea316d21385b68909f,,,,,,,,,,,1610.69,1611.6785,,,1612.1695,1612.4198,,133,133,,,,,,,,,,,,,,,,bars/023.png,bars/mask004.png,,,,,,,,,,,,0,2,,,,,,,8,0,8,0,,,,,,,,,,,1611.6786,1612.1694,1612.4198,1616.5696,space,4.1313,,1616.5697,67,18,1617.5641,1617.5641,1617.5811,,,,0,8,8,8,1,20,115,,,,,,,,
,,6145b0cbb10dd9c806f4b77a,65af566de8cf4b3e6d333546,2024-01-23_08h03.31.048,bars,2023.2.3,Win32,60.24096386,657b66ea316d21385b68909f,,,,,,,,,,,1617.5832,1618.5717,,,1619.0635,1619.313,,17,17,,,,,,,,,,,,,,,,bars/022.png,bars/mask003.png,,,,,,,,,,,,0,2,,,,,,,6,0,7,0,,,,,,,,,,,1618.5719,1619.0633,1619.3131,1625.491,space,6.1672,,1625.491,78,3,1626.491,1626.491,1626.5094,,,,0,9,9,9,1,95,20,,,,,,,,
,,6145b0cbb10dd9c806f4b77a,65af566de8cf4b3e6d333546,2024-01-23_08h03.31.048,bars,2023.2.3,Win32,60.24096386,657b66ea316d21385b68909f,,,,,,,,,,,1626.5102,1627.5063,,,1628.0052,1628.2543,,20,20,,,,,,,,,,,,,,,,bars/015.png,bars/mask004.png,,,,,,,,,,,,0,2,,,,,,,8,2,7,2,,,,,,,,,,,1627.5064,1628.005,1628.2545,1634.8504,space,6.5852,,1634.8506,90,40,1635.846,1635.8461,1635.8603,,,,0,10,10,10,1,110,160,,,,,,,,
,,6145b0cbb10dd9c806f4b77a,65af566de8cf4b3e6d333546,2024-01-23_08h03.31.048,bars,2023.2.3,Win32,60.24096386,657b66ea316d21385b68909f,,,,,,,,,,,1635.861,1636.8636,,,1637.3632,1637.6131,,150,150,,,,,,,,,,,,,,,,bars/036.png,bars/mask008.png,,,,,,,,,,,,5,1,,,,,,,6,4,6,3,,,,,,,,,,,1636.8637,1637.363,1637.6132,1643.3078,space,5.6792,,1643.308,5,50,1644.3062,1644.3063,1644.3427,,,,0,11,11,11,1,145,20,,,,,,,,
,,6145b0cbb10dd9c806f4b77a,65af566de8cf4b3e6d333546,2024-01-23_08h03.31.048,bars,2023.2.3,Win32,60.24096386,657b66ea316d21385b68909f,,,,,,,,,,,1644.3436,1645.3387,,,1645.8383,1646.088,,1,181,,,,,,,,,,,,,,,,bars/021.png,bars/mask000.png,,,,,,,,,,,,1,1,,,,,,,4,2,4,0,,,,,,,,,,,1645.3388,1645.8381,1646.0881,1651.3855,space,5.288,,1651.3856,26,69,1652.3818,1652.382,1652.4134,,,,0,12,12,12,1,155,70,,,,,,,,
,,6145b0cbb10dd9c806f4b77a,65af566de8cf4b3e6d333546,2024-01-23_08h03.31.048,bars,2023.2.3,Win32,60.24096386,657b66ea316d21385b68909f,,,,,,,,,,,1652.4142,1653.4136,,,1653.9126,1654.1616,,20,200,,,,,,,,,,,,,,,,bars/012.png,bars/mask000.png,,,,,,,,,,,,3,2,,,,,,,2,4,2,4,,,,,,,,,,,1653.4138,1653.9125,1654.1618,1659.0077,space,4.8319,,1659.0078,70,5,1660.0062,1660.0062,1660.0229,,,,0,13,13,13,1,90,15,,,,,,,,
,,6145b0cbb10dd9c806f4b77a,65af566de8cf4b3e6d333546,2024-01-23_08h03.31.048,bars,2023.2.3,Win32,60.24096386,657b66ea316d21385b68909f,,,,,,,,,,,1660.0234,1661.0217,,,1661.5214,1661.7709,,135,135,,,,,,,,,,,,,,,,bars/049.png,bars/mask004.png,,,,,,,,,,,,0,2,,,,,,,0,2,0,0,,,,,,,,,,,1661.0217,1661.5211,1661.771,1665.2678,space,3.4811,,1665.2679,25,20,1666.2664,1666.2666,1666.28,,,,0,14,14,14,1,160,115,,,,,,,,
,,6145b0cbb10dd9c806f4b77a,65af566de8cf4b3e6d333546,2024-01-23_08h03.31.048,bars,2023.2.3,Win32,60.24096386,657b66ea316d21385b68909f,,,,,,,,,,,1666.2805,1667.2826,,,1667.782,1668.0317,,89,89,,,,,,,,,,,,,,,,bars/031.png,bars/mask004.png,,,,,,,,,,,,0,1,,,,,,,0,4,0,3,,,,,,,,,,,1667.2826,1667.7819,1668.0318,1671.4618,space,3.4165,,1671.4619,31,54,1672.4606,1672.4608,1672.4775,,,,0,15,15,15,1,120,35,,,,,,,,
,,6145b0cbb10dd9c806f4b77a,65af566de8cf4b3e6d333546,2024-01-23_08h03.31.048,bars,2023.2.3,Win32,60.24096386,657b66ea316d21385b68909f,,,,,,,,,,,1672.478,1673.4767,,,1673.976,1674.226,,29,209,,,,,,,,,,,,,,,,bars/005.png,bars/mask002.png,,,,,,,,,,,,1,1,,,,,,,2,2,3,3,,,,,,,,,,,1673.4767,1673.9759,1674.226,1679.5539,space,5.3133,,1679.554,19,69,1680.5528,1680.5528,1680.5662,,,,0,16,16,16,1,10,140,,,,,,,,
,,6145b0cbb10dd9c806f4b77a,65af566de8cf4b3e6d333546,2024-01-23_08h03.31.048,bars,2023.2.3,Win32,60.24096386,657b66ea316d21385b68909f,,,,,,,,,,,1680.5669,1681.5686,,,1682.068,1682.3177,,142,142,,,,,,,,,,,,,,,,bars/049.png,bars/mask006.png,,,,,,,,,,,,1,1,,,,,,,4,4,2,4,,,,,,,,,,,1681.5686,1682.068,1682.3178,1686.8299,space,4.4976,,1686.83,18,27,1687.8293,1687.8293,1687.8595,,,,0,17,17,17,1,160,115,,,,,,,,
,,6145b0cbb10dd9c806f4b77a,65af566de8cf4b3e6d333546,2024-01-23_08h03.31.048,bars,2023.2.3,Win32,60.24096386,657b66ea316d21385b68909f,,,,,,,,,,,1687.8603,1688.8611,,,1689.3609,1689.6109,,160,160,,,,,,,,,,,,,,,,bars/038.png,bars/mask000.png,,,,,,,,,,,,6,1,,,,,,,6,2,7,3,,,,,,,,,,,1688.8612,1689.3608,1689.611,1692.5417,space,2.9155,,1692.542,5,90,1693.5399,1693.54,1693.5698,,,,0,18,18,18,1,165,70,,,,,,,,
,,6145b0cbb10dd9c806f4b77a,65af566de8cf4b3e6d333546,2024-01-23_08h03.31.048,bars,2023.2.3,Win32,60.24096386,657b66ea316d21385b68909f,,,,,,,,,,,1693.5708,1694.5727,,,1695.0719,1695.3216,,116,116,,,,,,,,,,,,,,,,bars/020.png,bars/mask002.png,,,,,,,,,,,,3,1,,,,,,,4,4,3,6,,,,,,,,,,,1694.5728,1695.0717,1695.3217,1699.6394,space,4.3061,,1699.6396,1,54,1700.6333,1700.6334,1700.6625,,,,0,19,19,19,1,115,170,,,,,,,,
,,6145b0cbb10dd9c806f4b77a,65af566de8cf4b3e6d333546,2024-01-23_08h03.31.048,bars,2023.2.3,Win32,60.24096386,657b66ea316d21385b68909f,,,,,,,,,,,1700.6633,1701.6656,,,1702.1655,1702.415,,36,36,,,,,,,,,,,,,,,,bars/025.png,bars/mask004.png,,,,,,,,,,,,2,2,,,,,,,6,2,6,2,,,,,,,,,,,1701.6657,1702.1654,1702.4151,1706.5784,space,4.1519,,1706.5786,69,4,1707.5681,1707.5681,1707.6029,,,,0,20,20,20,1,105,40,,,,,,,,
,,6145b0cbb10dd9c806f4b77a,65af566de8cf4b3e6d333546,2024-01-23_08h03.31.048,bars,2023.2.3,Win32,60.24096386,657b66ea316d21385b68909f,,,,,,,,,,,1707.6037,1708.5921,,,1709.0916,1709.3414,,90,90,,,,,,,,,,,,,,,,bars/019.png,bars/mask009.png,,,,,,,,,,,,4,2,,,,,,,8,4,10,7,,,,,,,,,,,1708.5922,1709.0916,1709.3414,1713.6869,space,4.3309,,1713.6871,45,15,1714.6859,1714.686,1714.7,,,,0,21,21,21,1,45,105,,,,,,,,
,,6145b0cbb10dd9c806f4b77a,65af566de8cf4b3e6d333546,2024-01-23_08h03.31.048,bars,2023.2.3,Win32,60.24096386,657b66ea316d21385b68909f,,,,,,,,,,,1714.7008,1715.7015,,,1716.2016,1716.4509,,121,-59,,,,,,,,,,,,,,,,bars/040.png,bars/mask007.png,,,,,,,,,,,,4,1,,,,,,,10,6,10,6,,,,,,,,,,,1715.7016,1716.2015,1716.451,1723.9443,space,7.4776,,1723.9444,19,64,1724.9422,1724.9424,1724.9601,,,,0,22,22,22,1,140,5,,,,,,,,
,,6145b0cbb10dd9c806f4b77a,65af566de8cf4b3e6d333546,2024-01-23_08h03.31.048,bars,2023.2.3,Win32,60.24096386,657b66ea316d21385b68909f,,,,,,,,,,,1724.9606,1725.9507,,,1726.4498,1726.6994,,108,108,,,,,,,,,,,,,,,,bars/000.png,bars/mask009.png,,,,,,,,,,,,0,2,,,,,,,8,4,8,3,,,,,,,,,,,1725.9507,1726.4498,1726.6995,1727.8667,space,1.151,,1727.8667,68,37,1728.8558,1728.8558,1728.863,,,,0,23,23,23,1,40,145,,,,,,,,
,,6145b0cbb10dd9c806f4b77a,65af566de8cf4b3e6d333546,2024-01-23_08h03.31.048,bars,2023.2.3,Win32,60.24096386,657b66ea316d21385b68909f,,,,,,,,,,,1728.8639,1729.8542,,,1730.3462,1730.5954,,65,65,,,,,,,,,,,,,,,,bars/043.png,bars/mask001.png,,,,,,,,,,,,0,1,,,,,,,6,6,6,8,,,,,,,,,,,1729.8543,1730.3461,1730.5956,1734.3604,space,3.7484,,1734.3605,35,65,1735.3577,1735.3578,1735.395,,,,0,24,24,24,1,30,130,,,,,,,,
,,6145b0cbb10dd9c806f4b77a,65af566de8cf4b3e6d333546,2024-01-23_08h03.31.048,bars,2023.2.3,Win32,60.24096386,657b66ea316d21385b68909f,,,,,,,,,,,1735.396,1736.3905,,,1736.8814,1737.1229,,153,153,,,,,,,,,,,,,,,,bars/011.png,bars/mask005.png,,,,,,,,,,,,4,1,,,,,,,4,8,5,8,,,,,,,,,,,1736.3905,1736.8814,1737.1229,1739.9235,space,2.7842,,1739.9236,7,68,1740.9267,1740.9269,1740.9403,,,,0,25,25,25,1,160,85,,,,,,,,
,,6145b0cbb10dd9c806f4b77a,65af566de8cf4b3e6d333546,2024-01-23_08h03.31.048,bars,2023.2.3,Win32,60.24096386,657b66ea316d21385b68909f,,,,,,,,,,,1740.9409,1741.9418,,,1742.4442,1742.6911,,154,154,,,,,,,,,,,,,,,,bars/048.png,bars/mask004.png,,,,,,,,,,,,3,2,,,,,,,6,10,6,10,,,,,,,,,,,1741.9418,1742.4442,1742.6911,1746.2744,space,3.5734,,1746.2746,76,21,1747.271,1747.2712,1747.3089,,,,0,26,26,26,1,50,175,,,,,,,,
,,6145b0cbb10dd9c806f4b77a,65af566de8cf4b3e6d333546,2024-01-23_08h03.31.048,bars,2023.2.3,Win32,60.24096386,657b66ea316d21385b68909f,,,,,,,,,,,1747.31,1748.3034,,,1748.8033,1749.0527,,47,227,,,,,,,,,,,,,,,,bars/043.png,bars/mask002.png,,,,,,,,,,,,1,1,,,,,,,4,8,2,7,,,,,,,,,,,1748.3034,1748.8031,1749.0528,1756.1463,space,7.0772,,1756.1463,17,83,1757.1441,1757.1442,1757.1645,,,,0,27,27,27,1,30,130,,,,,,,,
,,6145b0cbb10dd9c806f4b77a,65af566de8cf4b3e6d333546,2024-01-23_08h03.31.048,bars,2023.2.3,Win32,60.24096386,657b66ea316d21385b68909f,,,,,,,,,,,1757.1651,1758.1686,,,1758.6683,1758.9187,,173,173,,,,,,,,,,,,,,,,bars/008.png,bars/mask008.png,,,,,,,,,,,,8,2,,,,,,,6,10,8,10,,,,,,,,,,,1758.1687,1758.6682,1758.9188,1762.5996,space,3.6654,,1762.5997,63,7,1763.5881,1763.5884,1763.6229,,,,0,28,28,28,1,110,0,,,,,,,,
,,6145b0cbb10dd9c806f4b77a,65af566de8cf4b3e6d333546,2024-01-23_08h03.31.048,bars,2023.2.3,Win32,60.24096386,657b66ea316d21385b68909f,,,,,,,,,,,1763.6239,1764.6124,,,1765.112,1765.3617,,42,42,,,,,,,,,,,,,,,,bars/014.png,bars/mask002.png,,,,,,,,,,,,0,1,,,,,,,8,10,7,10,,,,,,,,,,,1764.6125,1765.1119,1765.3617,1770.9913,space,5.6134,,1770.9915,38,42,1771.9796,1771.9797,1772.0021,,,,0,29,29,29,1,80,0,,,,,,,,
,,6145b0cbb10dd9c806f4b77a,65af566de8cf4b3e6d333546,2024-01-23_08h03.31.048,bars,2023.2.3,Win32,60.24096386,657b66ea316d21385b68909f,,,,,,,,,,,1772.0027,1772.997,,,1773.4968,1773.7466,,131,131,,,,,,,,,,,,,,,,bars/049.png,bars/mask007.png,,,,,,,,,,,,5,2,,,,,,,6,10,6,10,,,,,,,,,,,1772.9972,1773.4966,1773.7467,1778.1928,space,4.4311,,1778.1929,29,16,1779.1915,1779.1916,1779.2258,,,,0,30,30,30,1,160,115,,,,,,,,
,,6145b0cbb10dd9c806f4b77a,65af566de8cf4b3e6d333546,2024-01-23_08h03.31.048,bars,2023.2.3,Win32,60.24096386,657b66ea316d21385b68909f,,,,,,,,,,,1779.2263,1780.2303,,,1780.7301,1780.98,,178,178,,,,,,,,,,,,,,,,bars/033.png,bars/mask009.png,,,,,,,,,,,,2,2,,,,,,,8,8,10,9,,,,,,,,,,,1780.2304,1780.73,1780.9801,1782.3635,space,1.3676,,1782.3637,27,23,1783.3523,1783.3524,1783.3558,,,,0,31,31,31,1,25,155,,,,,,,,
,,6145b0cbb10dd9c806f4b77a,65af566de8cf4b3e6d333546,2024-01-23_08h03.31.048,bars,2023.2.3,Win32,60.24096386,657b66ea316d21385b68909f,,,,,,,,,,,1783.3569,1784.3507,,,1784.8506,1785.1002,,35,35,,,,,,,,,,,,,,,,bars/048.png,bars/mask000.png,,,,,,,,,,,,5,1,,,,,,,10,6,10,6,,,,,,,,,,,1784.3509,1784.8505,1785.1003,1788.1474,space,3.0322,,1788.1475,15,40,1789.1465,1789.1465,1789.1639,,,,0,32,32,32,1,50,175,,,,,,,,
,,6145b0cbb10dd9c806f4b77a,65af566de8cf4b3e6d333546,2024-01-23_08h03.31.048,bars,2023.2.3,Win32,60.24096386,657b66ea316d21385b68909f,,,,,,,,,,,1789.1649,1790.1542,,,1790.6456,1790.8952,,155,-25,,,,,,,,,,,,,,,,bars/009.png,bars/mask000.png,,,,,,,,,,,,0,1,,,,,,,10,8,10,7,,,,,,,,,,,1790.1542,1790.6455,1790.8953,1795.4906,space,4.5807,,1795.4908,40,50,1796.4893,1796.4894,1796.5032,,,,0,33,33,33,1,15,105,,,,,,,,
,,6145b0cbb10dd9c806f4b77a,65af566de8cf4b3e6d333546,2024-01-23_08h03.31.048,bars,2023.2.3,Win32,60.24096386,657b66ea316d21385b68909f,,,,,,,,,,,1796.5049,1797.5047,,,1798.0049,1798.2546,,1,181,,,,,,,,,,,,,,,,bars/007.png,bars/mask001.png,,,,,,,,,,,,6,1,,,,,,,8,6,7,6,,,,,,,,,,,1797.5048,1798.0048,1798.2547,1803.7492,space,5.484,,1803.7493,6,54,1804.7498,1804.7499,1804.7663,,,,0,34,34,34,1,175,55,,,,,,,,
,,6145b0cbb10dd9c806f4b77a,65af566de8cf4b3e6d333546,2024-01-23_08h03.31.048,bars,2023.2.3,Win32,60.24096386,657b66ea316d21385b68909f,,,,,,,,,,,1804.7669,1805.7633,,,1806.2557,1806.504,,111,-69,,,,,,,,,,,,,,,,bars/017.png,bars/mask004.png,,,,,,,,,,,,0,1,,,,,,,10,4,10,5,,,,,,,,,,,1805.7634,1806.2556,1806.5041,1811.5712,space,5.0497,,1811.5713,34,66,1812.5739,1812.574,1812.6081,,,,0,35,35,35,1,145,45,,,,,,,,
,,6145b0cbb10dd9c806f4b77a,65af566de8cf4b3e6d333546,2024-01-23_08h03.31.048,bars,2023.2.3,Win32,60.24096386,657b66ea316d21385b68909f,,,,,,,,,,,1812.609,1813.598,,,1814.0892,1814.3385,,89,89,,,,,,,,,,,,,,,,bars/001.png,bars/mask004.png,,,,,,,,,,,,7,2,,,,,,,10,6,10,8,,,,,,,,,,,1813.5982,1814.0891,1814.3385,1820.2168,space,5.8623,,1820.2169,41,4,1821.215,1821.2151,1821.2368,,,,0,36,36,36,1,130,85,,,,,,,,
,,6145b0cbb10dd9c806f4b77a,65af566de8cf4b3e6d333546,2024-01-23_08h03.31.048,bars,2023.2.3,Win32,60.24096386,657b66ea316d21385b68909f,,,,,,,,,,,1821.2373,1822.2396,,,1822.7303,1822.9798,,93,93,,,,,,,,,,,,,,,,bars/002.png,bars/mask002.png,,,,,,,,,,,,2,2,,,,,,,10,4,10,3,,,,,,,,,,,1822.2397,1822.7301,1822.9799,1827.2428,space,4.2479,,1827.2431,37,8,1828.2414,1828.2416,1828.2711,,,,0,37,37,37,1,130,85,,,,,,,,
,,6145b0cbb10dd9c806f4b77a,65af566de8cf4b3e6d333546,2024-01-23_08h03.31.048,bars,2023.2.3,Win32,60.24096386,657b66ea316d21385b68909f,,,,,,,,,,,1828.272,1829.2741,,,1829.7738,1830.0235,,130,130,,,,,,,,,,,,,,,,bars/038.png,bars/mask005.png,,,,,,,,,,,,0,1,,,,,,,8,2,7,3,,,,,,,,,,,1829.2742,1829.7738,1830.0235,1835.9508,space,5.9131,,1835.9509,35,60,1836.949,1836.9491,1836.9708,,,,0,38,38,38,1,165,70,,,,,,,,
,,6145b0cbb10dd9c806f4b77a,65af566de8cf4b3e6d333546,2024-01-23_08h03.31.048,bars,2023.2.3,Win32,60.24096386,657b66ea316d21385b68909f,,,,,,,,,,,1836.9719,1837.9614,,,1838.4643,1838.7137,,44,44,,,,,,,,,,,,,,,,bars/019.png,bars/mask006.png,,,,,,,,,,,,8,1,,,,,,,10,4,8,4,,,,,,,,,,,1837.9615,1838.4642,1838.7137,1839.8303,space,1.1026,,1839.8304,1,61,1840.8292,1840.8293,1840.8318,,,,0,39,39,39,1,45,105,,,,,,,,
,,6145b0cbb10dd9c806f4b77a,65af566de8cf4b3e6d333546,2024-01-23_08h03.31.048,bars,2023.2.3,Win32,60.24096386,657b66ea316d21385b68909f,,,,,,,,,,,1840.8323,1841.8283,,,1842.3278,1842.5776,,144,144,,,,,,,,,,,,,,,,bars/014.png,bars/mask007.png,,,,,,,,,,,,0,2,,,,,,,8,2,7,3,,,,,,,,,,,1841.8284,1842.3277,1842.5776,1846.5616,space,3.9727,,1846.5617,64,36,1847.5563,1847.5563,1847.5914,,,,0,40,40,40,1,80,0,,,,,,,,
,,6145b0cbb10dd9c806f4b77a,65af566de8cf4b3e6d333546,2024-01-23_08h03.31.048,bars,2023.2.3,Win32,60.24096386,657b66ea316d21385b68909f,,,,,,,,,,,1847.5923,1848.5802,,,1849.0714,1849.3214,,60,60,,,,,,,,,,,,,,,,bars/029.png,bars/mask009.png,,,,,,,,,,,,2,2,,,,,,,6,4,6,4,,,,,,,,,,,1848.5802,1849.0713,1849.3215,1854.4665,space,5.1327,,1854.4667,30,15,1855.4652,1855.4653,1855.4959,,,,0,41,41,41,1,90,45,,,,,,,,
,,6145b0cbb10dd9c806f4b77a,65af566de8cf4b3e6d333546,2024-01-23_08h03.31.048,bars,2023.2.3,Win32,60.24096386,657b66ea316d21385b68909f,,,,,,,,,,,1855.4977,1856.4895,,,1856.9805,1857.2302,,34,34,,,,,,,,,,,,,,,,bars/045.png,bars/mask007.png,,,,,,,,,,,,1,2,,,,,,,4,6,5,5,,,,,,,,,,,1856.4895,1856.9805,1857.2303,1859.6115,space,2.3662,,1859.6117,66,24,1860.6103,1860.6105,1860.6394,,,,0,42,42,42,1,100,10,,,,,,,,
,,6145b0cbb10dd9c806f4b77a,65af566de8cf4b3e6d333546,2024-01-23_08h03.31.048,bars,2023.2.3,Win32,60.24096386,657b66ea316d21385b68909f,,,,,,,,,,,1860.6402,1861.6424,,,1862.142,1862.3918,,19,199,,,,,,,,,,,,,,,,bars/007.png,bars/mask004.png,,,,,,,,,,,,0,1,,,,,,,2,4,1,3,,,,,,,,,,,1861.6425,1862.1418,1862.3919,1867.4035,space,4.996,,1867.4036,24,36,1868.4023,1868.4023,1868.4188,,,,0,43,43,43,1,175,55,,,,,,,,
,,6145b0cbb10dd9c806f4b77a,65af566de8cf4b3e6d333546,2024-01-23_08h03.31.048,bars,2023.2.3,Win32,60.24096386,657b66ea316d21385b68909f,,,,,,,,,,,1868.4194,1869.4176,,,1869.918,1870.1675,,55,55,,,,,,,,,,,,,,,,bars/048.png,bars/mask005.png,,,,,,,,,,,,0,1,,,,,,,0,6,0,7,,,,,,,,,,,1869.4177,1869.9179,1870.1676,1871.2832,space,1.1016,,1871.2834,5,60,1872.2818,1872.2819,1872.2852,,,,0,44,44,44,1,50,175,,,,,,,,
,,6145b0cbb10dd9c806f4b77a,65af566de8cf4b3e6d333546,2024-01-23_08h03.31.048,bars,2023.2.3,Win32,60.24096386,657b66ea316d21385b68909f,,,,,,,,,,,1872.286,1873.2811,,,1873.7723,1874.022,,13,193,,,,,,,,,,,,,,,,bars/032.png,bars/mask000.png,,,,,,,,,,,,7,2,,,,,,,0,8,0,9,,,,,,,,,,,1873.2811,1873.7723,1874.0221,1880.2843,space,6.2462,,1880.2844,68,7,1881.273,1881.2731,1881.2896,,,,0,45,45,45,1,125,20,,,,,,,,
,,6145b0cbb10dd9c806f4b77a,65af566de8cf4b3e6d333546,2024-01-23_08h03.31.048,bars,2023.2.3,Win32,60.24096386,657b66ea316d21385b68909f,,,,,,,,,,,1881.2901,1882.2886,,,1882.7877,1883.038,,128,128,,,,,,,,,,,,,,,,bars/038.png,bars/mask001.png,,,,,,,,,,,,0,1,,,,,,,0,6,0,7,,,,,,,,,,,1882.2887,1882.7875,1883.0381,1888.5827,space,5.5322,,1888.5827,37,58,1889.5813,1889.5813,1889.5979,,,,0,46,46,46,1,165,70,,,,,,,,
,,6145b0cbb10dd9c806f4b77a,65af566de8cf4b3e6d333546,2024-01-23_08h03.31.048,bars,2023.2.3,Win32,60.24096386,657b66ea316d21385b68909f,,,,,,,,,,,1889.5984,1890.5972,,,1891.0972,1891.346,,15,15,,,,,,,,,,,,,,,,bars/035.png,bars/mask008.png,,,,,,,,,,,,1,1,,,,,,,2,8,3,7,,,,,,,,,,,1890.5973,1891.0971,1891.3461,1892.762,space,1.4015,,1892.762,20,45,1893.7608,1893.7608,1893.7742,,,,0,47,47,47,1,175,60,,,,,,,,
,,6145b0cbb10dd9c806f4b77a,65af566de8cf4b3e6d333546,2024-01-23_08h03.31.048,bars,2023.2.3,Win32,60.24096386,657b66ea316d21385b68909f,,,,,,,,,,,1893.7747,1894.7759,,,1895.2759,1895.5258,,113,113,,,,,,,,,,,,,,,,bars/024.png,bars/mask003.png,,,,,,,,,,,,0,1,,,,,,,0,6,0,5,,,,,,,,,,,1894.776,1895.2758,1895.5259,1898.6158,space,3.0795,,1898.6159,7,57,1899.6141,1899.6143,1899.6173,,,,0,48,48,48,1,120,170,,,,,,,,
,,6145b0cbb10dd9c806f4b77a,65af566de8cf4b3e6d333546,2024-01-23_08h03.31.048,bars,2023.2.3,Win32,60.24096386,657b66ea316d21385b68909f,,,,,,,,,,,1899.6181,1900.6125,,,1901.1132,1901.3621,,15,195,,,,,,,,,,,,,,,,bars/023.png,bars/mask006.png,,,,,,,,,,,,1,1,,,,,,,0,8,1,7,,,,,,,,,,,1900.6126,1901.1132,1901.3622,1904.2437,space,2.8656,,1904.2439,5,80,1905.2344,1905.2345,1905.2643,,,,0,49,49,49,1,20,115,,,,,,,,
,,6145b0cbb10dd9c806f4b77a,65af566de8cf4b3e6d333546,2024-01-23_08h03.31.048,bars,2023.2.3,Win32,60.24096386,657b66ea316d21385b68909f,,,,,,,,,,,,,,,,,,,,,,,,,,,,,,,,,,,,,,,,,,,,,,,,,,,,,,,,,,,,,,,,,,,,,,,,,,,,,,,,,,,,,,,,,,,,,1905.2657,1965.2662,0,2,2,1,1,sequence_tables/blk013.csv
,,6145b0cbb10dd9c806f4b77a,65af566de8cf4b3e6d333546,2024-01-23_08h03.31.048,bars,2023.2.3,Win32,60.24096386,657b66ea316d21385b68909f,,,,,,,,,,,2156.5812,2157.5684,,,2158.0684,2158.3184,,82,82,,,,,,,,,,,,,,,,bars/028.png,bars/mask003.png,,,,,,,,,,,,0,1,,,,,,,2,7,4,8,,,,,,1965.2967,2156.5541,space,191.2436,,2157.5686,2158.0682,2158.3184,2162.1813,space,3.847,,2162.1814,37,38,2163.1805,2163.1806,2163.1947,,,,0,0,0,0,1,45,120,,,,,,,,
,,6145b0cbb10dd9c806f4b77a,65af566de8cf4b3e6d333546,2024-01-23_08h03.31.048,bars,2023.2.3,Win32,60.24096386,657b66ea316d21385b68909f,,,,,,,,,,,2163.1952,2164.1961,,,2164.6952,2164.945,,44,44,,,,,,,,,,,,,,,,bars/044.png,bars/mask000.png,,,,,,,,,,,,0,1,,,,,,,4,5,3,5,,,,,,,,,,,2164.1962,2164.6951,2164.945,2166.0771,space,1.1176,,2166.0772,31,69,2167.0765,2167.0767,2167.079,,,,0,1,1,1,1,75,155,,,,,,,,
,,6145b0cbb10dd9c806f4b77a,65af566de8cf4b3e6d333546,2024-01-23_08h03.31.048,bars,2023.2.3,Win32,60.24096386,657b66ea316d21385b68909f,,,,,,,,,,,2167.0795,2168.0755,,,2168.5753,2168.8244,,149,149,,,,,,,,,,,,,,,,bars/020.png,bars/mask003.png,,,,,,,,,,,,2,2,,,,,,,6,7,7,8,,,,,,,,,,,2168.0756,2168.5753,2168.8244,2171.7886,space,2.9503,,2171.7886,34,21,2172.7874,2172.7874,2172.8059,,,,0,2,2,2,1,115,170,,,,,,,,
,,6145b0cbb10dd9c806f4b77a,65af566de8cf4b3e6d333546,2024-01-23_08h03.31.048,bars,2023.2.3,Win32,60.24096386,657b66ea316d21385b68909f,,,,,,,,,,,2172.8064,2173.795,,,2174.2932,2174.5439,,33,33,,,,,,,,,,,,,,,,bars/026.png,bars/mask002.png,,,,,,,,,,,,7,1,,,,,,,8,5,7,5,,,,,,,,,,,2173.795,2174.293,2174.5439,2175.4947,space,0.9336,,2175.4948,2,52,2176.4925,2176.4925,2176.4973,,,,0,3,3,3,1,35,85,,,,,,,,
,,6145b0cbb10dd9c806f4b77a,65af566de8cf4b3e6d333546,2024-01-23_08h03.31.048,bars,2023.2.3,Win32,60.24096386,657b66ea316d21385b68909f,,,,,,,,,,,2176.4978,2177.5096,,,2178.0078,2178.2486,,77,77,,,,,,,,,,,,,,,,bars/002.png,bars/mask009.png,,,,,,,,,,,,1,2,,,,,,,6,3,6,2,,,,,,,,,,,2177.5096,2178.0077,2178.2487,2181.7219,space,3.4484,,2181.7219,53,8,2182.7198,2182.7198,2182.7377,,,,0,4,4,4,1,130,85,,,,,,,,
,,6145b0cbb10dd9c806f4b77a,65af566de8cf4b3e6d333546,2024-01-23_08h03.31.048,bars,2023.2.3,Win32,60.24096386,657b66ea316d21385b68909f,,,,,,,,,,,2182.7383,2183.7267,,,2184.2263,2184.4761,,163,-17,,,,,,,,,,,,,,,,bars/036.png,bars/mask009.png,,,,,,,,,,,,2,1,,,,,,,4,5,4,6,,,,,,,,,,,2183.7268,2184.2262,2184.4761,2187.9395,space,3.4486,,2187.9396,18,37,2188.9385,2188.9386,2188.9559,,,,0,5,5,5,1,145,20,,,,,,,,
,,6145b0cbb10dd9c806f4b77a,65af566de8cf4b3e6d333546,2024-01-23_08h03.31.048,bars,2023.2.3,Win32,60.24096386,657b66ea316d21385b68909f,,,,,,,,,,,2188.9565,2189.9462,,,2190.4368,2190.6873,,63,63,,,,,,,,,,,,,,,,bars/013.png,bars/mask007.png,,,,,,,,,,,,2,1,,,,,,,2,3,3,3,,,,,,,,,,,2189.9462,2190.4368,2190.6874,2196.2649,space,5.5624,,2196.265,12,53,2197.2638,2197.264,2197.2781,,,,0,6,6,6,1,75,10,,,,,,,,
,,6145b0cbb10dd9c806f4b77a,65af566de8cf4b3e6d333546,2024-01-23_08h03.31.048,bars,2023.2.3,Win32,60.24096386,657b66ea316d21385b68909f,,,,,,,,,,,2197.2787,2198.2796,,,2198.7791,2199.0285,,85,85,,,,,,,,,,,,,,,,bars/014.png,bars/mask002.png,,,,,,,,,,,,5,1,,,,,,,4,1,6,2,,,,,,,,,,,2198.2798,2198.7791,2199.0286,2203.4412,space,4.3969,,2203.4412,5,85,2204.4402,2204.4404,2204.4695,,,,0,7,7,7,1,80,0,,,,,,,,
,,6145b0cbb10dd9c806f4b77a,65af566de8cf4b3e6d333546,2024-01-23_08h03.31.048,bars,2023.2.3,Win32,60.24096386,657b66ea316d21385b68909f,,,,,,,,,,,2204.4702,2205.472,,,2205.9721,2206.2213,,81,81,,,,,,,,,,,,,,,,bars/022.png,bars/mask005.png,,,,,,,,,,,,3,1,,,,,,,6,3,5,4,,,,,,,,,,,2205.472,2205.9719,2206.2216,2210.0188,space,3.787,,2210.0188,14,61,2211.0171,2211.0172,2211.0306,,,,0,8,8,8,1,95,20,,,,,,,,
,,6145b0cbb10dd9c806f4b77a,65af566de8cf4b3e6d333546,2024-01-23_08h03.31.048,bars,2023.2.3,Win32,60.24096386,657b66ea316d21385b68909f,,,,,,,,,,,2211.0311,2212.0328,,,2212.5324,2212.7823,,11,191,,,,,,,,,,,,,,,,bars/047.png,bars/mask007.png,,,,,,,,,,,,6,1,,,,,,,8,5,7,5,,,,,,,,,,,2212.0328,2212.5322,2212.7824,2216.0955,space,3.2986,,2216.0956,4,59,2217.0944,2217.0945,2217.1082,,,,0,9,9,9,1,15,70,,,,,,,,
,,6145b0cbb10dd9c806f4b77a,65af566de8cf4b3e6d333546,2024-01-23_08h03.31.048,bars,2023.2.3,Win32,60.24096386,657b66ea316d21385b68909f,,,,,,,,,,,2217.1087,2218.1109,,,2218.6098,2218.8598,,36,216,,,,,,,,,,,,,,,,bars/014.png,bars/mask001.png,,,,,,,,,,,,0,2,,,,,,,10,3,10,4,,,,,,,,,,,2218.1109,2218.6097,2218.8598,2222.5891,space,3.7185,,2222.5891,44,36,2223.588,2223.5881,2223.6213,,,,0,10,10,10,1,80,0,,,,,,,,
,,6145b0cbb10dd9c806f4b77a,65af566de8cf4b3e6d333546,2024-01-23_08h03.31.048,bars,2023.2.3,Win32,60.24096386,657b66ea316d21385b68909f,,,,,,,,,,,2223.6221,2224.612,,,2225.1046,2225.3543,,76,76,,,,,,,,,,,,,,,,bars/021.png,bars/mask006.png,,,,,,,,,,,,3,2,,,,,,,10,1,10,4,,,,,,,,,,,2224.6121,2225.1046,2225.3544,2228.3847,space,3.0182,,2228.3847,79,6,2229.3831,2229.3832,2229.3963,,,,0,11,11,11,1,155,70,,,,,,,,
,,6145b0cbb10dd9c806f4b77a,65af566de8cf4b3e6d333546,2024-01-23_08h03.31.048,bars,2023.2.3,Win32,60.24096386,657b66ea316d21385b68909f,,,,,,,,,,,2229.3968,2230.3981,,,2230.8981,2231.1489,,100,100,,,,,,,,,,,,,,,,bars/006.png,bars/mask001.png,,,,,,,,,,,,3,2,,,,,,,10,3,10,3,,,,,,,,,,,2230.3982,2230.8981,2231.1489,2234.3666,space,3.2081,,2234.3668,65,0,2235.3615,2235.3615,2235.3907,,,,0,12,12,12,1,35,100,,,,,,,,
,,6145b0cbb10dd9c806f4b77a,65af566de8cf4b3e6d333546,2024-01-23_08h03.31.048,bars,2023.2.3,Win32,60.24096386,657b66ea316d21385b68909f,,,,,,,,,,,2235.3916,2236.3921,,,2236.8917,2237.1412,,128,128,,,,,,,,,,,,,,,,bars/025.png,bars/mask001.png,,,,,,,,,,,,1,1,,,,,,,8,5,6,3,,,,,,,,,,,2236.3923,2236.8916,2237.1413,2240.0555,space,2.8995,,2240.0556,23,88,2241.0466,2241.0466,2241.064,,,,0,13,13,13,1,105,40,,,,,,,,
,,6145b0cbb10dd9c806f4b77a,65af566de8cf4b3e6d333546,2024-01-23_08h03.31.048,bars,2023.2.3,Win32,60.24096386,657b66ea316d21385b68909f,,,,,,,,,,,2241.0645,2242.0534,,,2242.5535,2242.803,,152,152,,,,,,,,,,,,,,,,bars/042.png,bars/mask009.png,,,,,,,,,,,,8,1,,,,,,,10,7,10,8,,,,,,,,,,,2242.0535,2242.5534,2242.803,2245.0507,space,2.2353,,2245.0509,7,77,2246.0494,2246.0496,2246.0796,,,,0,14,14,14,1,145,75,,,,,,,,
,,6145b0cbb10dd9c806f4b77a,65af566de8cf4b3e6d333546,2024-01-23_08h03.31.048,bars,2023.2.3,Win32,60.24096386,657b66ea316d21385b68909f,,,,,,,,,,,2246.0804,2247.082,,,2247.5738,2247.8231,,137,137,,,,,,,,,,,,,,,,bars/024.png,bars/mask005.png,,,,,,,,,,,,3,1,,,,,,,8,5,7,4,,,,,,,,,,,2247.0821,2247.5738,2247.8232,2252.0707,space,4.2307,,2252.0708,17,33,2253.0607,2253.0607,2253.0903,,,,0,15,15,15,1,120,170,,,,,,,,
,,6145b0cbb10dd9c806f4b77a,65af566de8cf4b3e6d333546,2024-01-23_08h03.31.048,bars,2023.2.3,Win32,60.24096386,657b66ea316d21385b68909f,,,,,,,,,,,2253.0921,2254.0924,,,2254.5915,2254.8412,,45,225,,,,,,,,,,,,,,,,bars/013.png,bars/mask008.png,,,,,,,,,,,,0,1,,,,,,,6,3,5,5,,,,,,,,,,,2254.0926,2254.5915,2254.8412,2258.3043,space,3.4483,,2258.3044,30,35,2259.3032,2259.3032,2259.317,,,,0,16,16,16,1,75,10,,,,,,,,
,,6145b0cbb10dd9c806f4b77a,65af566de8cf4b3e6d333546,2024-01-23_08h03.31.048,bars,2023.2.3,Win32,60.24096386,657b66ea316d21385b68909f,,,,,,,,,,,2259.318,2260.3187,,,2260.8182,2261.0684,,134,-46,,,,,,,,,,,,,,,,bars/015.png,bars/mask001.png,,,,,,,,,,,,2,1,,,,,,,8,5,8,5,,,,,,,,,,,2260.3189,2260.8181,2261.0685,2266.7463,space,5.6636,,2266.7465,24,26,2267.7447,2267.7448,2267.759,,,,0,17,17,17,1,110,160,,,,,,,,
,,6145b0cbb10dd9c806f4b77a,65af566de8cf4b3e6d333546,2024-01-23_08h03.31.048,bars,2023.2.3,Win32,60.24096386,657b66ea316d21385b68909f,,,,,,,,,,,2267.7595,2268.7603,,,2269.26,2269.5097,,99,99,,,,,,,,,,,,,,,,bars/042.png,bars/mask006.png,,,,,,,,,,,,1,2,,,,,,,6,3,7,3,,,,,,,,,,,2268.7604,2269.2598,2269.5097,2272.84,space,3.3154,,2272.8402,46,24,2273.8386,2273.8387,2273.856,,,,0,18,18,18,1,145,75,,,,,,,,
,,6145b0cbb10dd9c806f4b77a,65af566de8cf4b3e6d333546,2024-01-23_08h03.31.048,bars,2023.2.3,Win32,60.24096386,657b66ea316d21385b68909f,,,,,,,,,,,2273.8566,2274.8471,,,2275.3464,2275.5963,,35,35,,,,,,,,,,,,,,,,bars/016.png,bars/mask009.png,,,,,,,,,,,,8,1,,,,,,,8,1,9,1,,,,,,,,,,,2274.8471,2275.3463,2275.5963,2276.6004,space,0.9877,,2276.6006,5,50,2277.6017,2277.6018,2277.6099,,,,0,19,19,19,1,40,165,,,,,,,,
,,6145b0cbb10dd9c806f4b77a,65af566de8cf4b3e6d333546,2024-01-23_08h03.31.048,bars,2023.2.3,Win32,60.24096386,657b66ea316d21385b68909f,,,,,,,,,,,2277.6108,2278.6012,,,2279.0927,2279.3341,,130,130,,,,,,,,,,,,,,,,bars/043.png,bars/mask004.png,,,,,,,,,,,,0,2,,,,,,,10,0,10,0,,,,,,,,,,,2278.6013,2279.0925,2279.3342,2284.4958,space,5.1473,,2284.4959,80,0,2285.4945,2285.4946,2285.5321,,,,0,20,20,20,1,30,130,,,,,,,,
,,6145b0cbb10dd9c806f4b77a,65af566de8cf4b3e6d333546,2024-01-23_08h03.31.048,bars,2023.2.3,Win32,60.24096386,657b66ea316d21385b68909f,,,,,,,,,,,2285.5331,2286.5349,,,2287.0352,2287.2844,,49,49,,,,,,,,,,,,,,,,bars/043.png,bars/mask002.png,,,,,,,,,,,,2,1,,,,,,,8,0,6,0,,,,,,,,,,,2286.535,2287.035,2287.2844,2288.0729,space,0.7723,,2288.0731,19,81,2289.0744,2289.0744,2289.0812,,,,0,21,21,21,1,30,130,,,,,,,,
,,6145b0cbb10dd9c806f4b77a,65af566de8cf4b3e6d333546,2024-01-23_08h03.31.048,bars,2023.2.3,Win32,60.24096386,657b66ea316d21385b68909f,,,,,,,,,,,2289.0821,2290.0731,,,2290.5726,2290.8226,,31,31,,,,,,,,,,,,,,,,bars/045.png,bars/mask004.png,,,,,,,,,,,,0,2,,,,,,,6,0,7,0,,,,,,,,,,,2290.0733,2290.5725,2290.8227,2294.5347,space,3.7007,,2294.5349,69,21,2295.5335,2295.5336,2295.5502,,,,0,22,22,22,1,100,10,,,,,,,,
,,6145b0cbb10dd9c806f4b77a,65af566de8cf4b3e6d333546,2024-01-23_08h03.31.048,bars,2023.2.3,Win32,60.24096386,657b66ea316d21385b68909f,,,,,,,,,,,2295.5508,2296.55,,,2297.0492,2297.2991,,178,-2,,,,,,,,,,,,,,,,bars/021.png,bars/mask001.png,,,,,,,,,,,,0,1,,,,,,,4,2,2,1,,,,,,,,,,,2296.5501,2297.0492,2297.2992,2301.4954,space,4.1803,,2301.4954,23,72,2302.4939,2302.4941,2302.5104,,,,0,23,23,23,1,155,70,,,,,,,,
,,6145b0cbb10dd9c806f4b77a,65af566de8cf4b3e6d333546,2024-01-23_08h03.31.048,bars,2023.2.3,Win32,60.24096386,657b66ea316d21385b68909f,,,,,,,,,,,2302.5109,2303.5016,,,2303.9929,2304.2428,,5,5,,,,,,,,,,,,,,,,bars/018.png,bars/mask008.png,,,,,,,,,,,,0,1,,,,,,,2,4,0,4,,,,,,,,,,,2303.5017,2303.9927,2304.2428,2307.7226,space,3.4673,,2307.7226,35,85,2308.7214,2308.7214,2308.7347,,,,0,24,24,24,1,150,90,,,,,,,,
,,6145b0cbb10dd9c806f4b77a,65af566de8cf4b3e6d333546,2024-01-23_08h03.31.048,bars,2023.2.3,Win32,60.24096386,657b66ea316d21385b68909f,,,,,,,,,,,2308.7353,2309.7368,,,2310.2365,2310.4864,,32,32,,,,,,,,,,,,,,,,bars/048.png,bars/mask004.png,,,,,,,,,,,,0,1,,,,,,,0,6,0,6,,,,,,,,,,,2309.7369,2310.2364,2310.4865,2314.4362,space,3.9389,,2314.4363,18,37,2315.4313,2315.4314,2315.4454,,,,0,25,25,25,1,50,175,,,,,,,,
,,6145b0cbb10dd9c806f4b77a,65af566de8cf4b3e6d333546,2024-01-23_08h03.31.048,bars,2023.2.3,Win32,60.24096386,657b66ea316d21385b68909f,,,,,,,,,,,2315.446,2316.447,,,2316.9467,2317.1966,,26,26,,,,,,,,,,,,,,,,bars/000.png,bars/mask006.png,,,,,,,,,,,,2,1,,,,,,,2,8,3,8,,,,,,,,,,,2316.4471,2316.9466,2317.1967,2318.4616,space,1.2516,,2318.4616,14,61,2319.4612,2319.4613,2319.4647,,,,0,26,26,26,1,40,145,,,,,,,,
,,6145b0cbb10dd9c806f4b77a,65af566de8cf4b3e6d333546,2024-01-23_08h03.31.048,bars,2023.2.3,Win32,60.24096386,657b66ea316d21385b68909f,,,,,,,,,,,2319.4657,2320.46,,,2320.9595,2321.2096,,17,197,,,,,,,,,,,,,,,,bars/011.png,bars/mask001.png,,,,,,,,,,,,0,1,,,,,,,0,6,0,6,,,,,,,,,,,2320.4601,2320.9593,2321.2096,2325.8558,space,4.6329,,2325.856,37,68,2326.8537,2326.8541,2326.8785,,,,0,27,27,27,1,160,85,,,,,,,,
,,6145b0cbb10dd9c806f4b77a,65af566de8cf4b3e6d333546,2024-01-23_08h03.31.048,bars,2023.2.3,Win32,60.24096386,657b66ea316d21385b68909f,,,,,,,,,,,2326.8795,2327.8694,,,2328.369,2328.6179,,142,142,,,,,,,,,,,,,,,,bars/042.png,bars/mask005.png,,,,,,,,,,,,0,1,,,,,,,0,8,0,8,,,,,,,,,,,2327.8694,2328.3689,2328.6179,2329.8839,space,1.2538,,2329.884,3,67,2330.8834,2330.8835,2330.8868,,,,0,28,28,28,1,145,75,,,,,,,,
,,6145b0cbb10dd9c806f4b77a,65af566de8cf4b3e6d333546,2024-01-23_08h03.31.048,bars,2023.2.3,Win32,60.24096386,657b66ea316d21385b68909f,,,,,,,,,,,2330.8876,2331.8824,,,2332.3821,2332.6317,,74,74,,,,,,,,,,,,,,,,bars/018.png,bars/mask008.png,,,,,,,,,,,,3,2,,,,,,,2,6,2,7,,,,,,,,,,,2331.8825,2332.3821,2332.6317,2336.0627,space,3.4154,,2336.0628,76,16,2337.0601,2337.0602,2337.0771,,,,0,29,29,29,1,150,90,,,,,,,,
,,6145b0cbb10dd9c806f4b77a,65af566de8cf4b3e6d333546,2024-01-23_08h03.31.048,bars,2023.2.3,Win32,60.24096386,657b66ea316d21385b68909f,,,,,,,,,,,2337.0775,2338.0679,,,2338.559,2338.809,,120,120,,,,,,,,,,,,,,,,bars/023.png,bars/mask002.png,,,,,,,,,,,,8,2,,,,,,,0,8,0,10,,,,,,,,,,,2338.0679,2338.5588,2338.8091,2339.9413,space,1.1201,,2339.9413,80,5,2340.9401,2340.9402,2340.9435,,,,0,30,30,30,1,20,115,,,,,,,,
,,6145b0cbb10dd9c806f4b77a,65af566de8cf4b3e6d333546,2024-01-23_08h03.31.048,bars,2023.2.3,Win32,60.24096386,657b66ea316d21385b68909f,,,,,,,,,,,2340.9444,2341.9392,,,2342.4386,2342.6885,,165,165,,,,,,,,,,,,,,,,bars/045.png,bars/mask005.png,,,,,,,,,,,,1,2,,,,,,,0,6,0,6,,,,,,,,,,,2341.9393,2342.4384,2342.6887,2345.3372,space,2.6355,,2345.3373,65,25,2346.335,2346.3351,2346.3644,,,,0,31,31,31,1,100,10,,,,,,,,
,,6145b0cbb10dd9c806f4b77a,65af566de8cf4b3e6d333546,2024-01-23_08h03.31.048,bars,2023.2.3,Win32,60.24096386,657b66ea316d21385b68909f,,,,,,,,,,,2346.3652,2347.3672,,,2347.8669,2348.1166,,1,181,,,,,,,,,,,,,,,,bars/033.png,bars/mask008.png,,,,,,,,,,,,1,1,,,,,,,2,8,3,7,,,,,,,,,,,2347.3674,2347.8669,2348.1167,2350.6968,space,2.5663,,2350.697,24,26,2351.6959,2351.6959,2351.7122,,,,0,32,32,32,1,25,155,,,,,,,,
,,6145b0cbb10dd9c806f4b77a,65af566de8cf4b3e6d333546,2024-01-23_08h03.31.048,bars,2023.2.3,Win32,60.24096386,657b66ea316d21385b68909f,,,,,,,,,,,2351.7128,2352.7118,,,2353.213,2353.4608,,4,4,,,,,,,,,,,,,,,,bars/017.png,bars/mask003.png,,,,,,,,,,,,0,1,,,,,,,4,10,2,10,,,,,,,,,,,2352.7118,2353.2129,2353.4609,2354.7782,space,1.3063,,2354.7785,39,41,2355.7753,2355.7754,2355.7785,,,,0,33,33,33,1,145,45,,,,,,,,
,,6145b0cbb10dd9c806f4b77a,65af566de8cf4b3e6d333546,2024-01-23_08h03.31.048,bars,2023.2.3,Win32,60.24096386,657b66ea316d21385b68909f,,,,,,,,,,,2355.7793,2356.7746,,,2357.2743,2357.524,,72,72,,,,,,,,,,,,,,,,bars/014.png,bars/mask000.png,,,,,,,,,,,,5,1,,,,,,,6,10,7,8,,,,,,,,,,,2356.7746,2357.2742,2357.5241,2360.255,space,2.7168,,2360.2553,8,72,2361.2533,2361.2534,2361.2826,,,,0,34,34,34,1,80,0,,,,,,,,
,,6145b0cbb10dd9c806f4b77a,65af566de8cf4b3e6d333546,2024-01-23_08h03.31.048,bars,2023.2.3,Win32,60.24096386,657b66ea316d21385b68909f,,,,,,,,,,,2361.2834,2362.2856,,,2362.7774,2363.027,,174,-6,,,,,,,,,,,,,,,,bars/046.png,bars/mask005.png,,,,,,,,,,,,3,1,,,,,,,8,8,9,9,,,,,,,,,,,2362.2857,2362.7773,2363.0273,2366.6418,space,3.5992,,2366.6419,19,89,2367.6391,2367.6393,2367.6726,,,,0,35,35,35,1,155,85,,,,,,,,
,,6145b0cbb10dd9c806f4b77a,65af566de8cf4b3e6d333546,2024-01-23_08h03.31.048,bars,2023.2.3,Win32,60.24096386,657b66ea316d21385b68909f,,,,,,,,,,,2367.6735,2368.6631,,,2369.1546,2369.4037,,127,127,,,,,,,,,,,,,,,,bars/027.png,bars/mask001.png,,,,,,,,,,,,3,1,,,,,,,6,10,7,10,,,,,,,,,,,2368.6633,2369.1545,2369.4038,2372.7021,space,3.2817,,2372.7022,17,77,2373.6998,2373.6999,2373.7303,,,,0,36,36,36,1,110,50,,,,,,,,
,,6145b0cbb10dd9c806f4b77a,65af566de8cf4b3e6d333546,2024-01-23_08h03.31.048,bars,2023.2.3,Win32,60.24096386,657b66ea316d21385b68909f,,,,,,,,,,,2373.7311,2374.7234,,,2375.223,2375.4747,,131,131,,,,,,,,,,,,,,,,bars/001.png,bars/mask004.png,,,,,,,,,,,,9,1,,,,,,,8,8,9,8,,,,,,,,,,,2374.7234,2375.2229,2375.4748,2376.2245,space,0.7414,,2376.2246,1,46,2377.2214,2377.2215,2377.2244,,,,0,37,37,37,1,130,85,,,,,,,,
,,6145b0cbb10dd9c806f4b77a,65af566de8cf4b3e6d333546,2024-01-23_08h03.31.048,bars,2023.2.3,Win32,60.24096386,657b66ea316d21385b68909f,,,,,,,,,,,2377.2251,2378.2203,,,2378.7197,2378.9696,,62,62,,,,,,,,,,,,,,,,bars/006.png,bars/mask007.png,,,,,,,,,,,,1,1,,,,,,,10,10,10,10,,,,,,,,,,,2378.2203,2378.7196,2378.9698,2379.8183,space,0.8373,,2379.8184,27,38,2380.8179,2380.818,2380.8214,,,,0,38,38,38,1,35,100,,,,,,,,
,,6145b0cbb10dd9c806f4b77a,65af566de8cf4b3e6d333546,2024-01-23_08h03.31.048,bars,2023.2.3,Win32,60.24096386,657b66ea316d21385b68909f,,,,,,,,,,,2380.8222,2381.8164,,,2382.3165,2382.5662,,143,143,,,,,,,,,,,,,,,,bars/002.png,bars/mask005.png,,,,,,,,,,,,6,1,,,,,,,10,10,10,10,,,,,,,,,,,2381.8165,2382.3165,2382.5662,2385.4465,space,2.8661,,2385.4465,13,58,2386.4452,2386.4453,2386.459,,,,0,39,39,39,1,130,85,,,,,,,,
,,6145b0cbb10dd9c806f4b77a,65af566de8cf4b3e6d333546,2024-01-23_08h03.31.048,bars,2023.2.3,Win32,60.24096386,657b66ea316d21385b68909f,,,,,,,,,,,2386.4596,2387.4608,,,2387.9607,2388.2102,,119,119,,,,,,,,,,,,,,,,bars/020.png,bars/mask000.png,,,,,,,,,,,,6,1,,,,,,,8,8,7,7,,,,,,,,,,,2387.4609,2387.9607,2388.2103,2393.6385,space,5.4129,,2393.6386,4,51,2394.6372,2394.6373,2394.6513,,,,0,40,40,40,1,115,170,,,,,,,,
,,6145b0cbb10dd9c806f4b77a,65af566de8cf4b3e6d333546,2024-01-23_08h03.31.048,bars,2023.2.3,Win32,60.24096386,657b66ea316d21385b68909f,,,,,,,,,,,2394.6519,2395.6528,,,2396.1448,2396.3947,,82,82,,,,,,,,,,,,,,,,bars/037.png,bars/mask007.png,,,,,,,,,,,,1,2,,,,,,,10,6,10,5,,,,,,,,,,,2395.6529,2396.1448,2396.3947,2399.526,space,3.1152,,2399.5261,68,23,2400.5235,2400.5237,2400.5405,,,,0,41,41,41,1,150,105,,,,,,,,
,,6145b0cbb10dd9c806f4b77a,65af566de8cf4b3e6d333546,2024-01-23_08h03.31.048,bars,2023.2.3,Win32,60.24096386,657b66ea316d21385b68909f,,,,,,,,,,,2400.5412,2401.5306,,,2402.03,2402.2797,,45,45,,,,,,,,,,,,,,,,bars/039.png,bars/mask002.png,,,,,,,,,,,,0,1,,,,,,,8,8,7,7,,,,,,,,,,,2401.5307,2402.0299,2402.2797,2404.8103,space,2.5137,,2404.8104,50,60,2405.7987,2405.7988,2405.8374,,,,0,42,42,42,1,175,105,,,,,,,,
,,6145b0cbb10dd9c806f4b77a,65af566de8cf4b3e6d333546,2024-01-23_08h03.31.048,bars,2023.2.3,Win32,60.24096386,657b66ea316d21385b68909f,,,,,,,,,,,2405.8379,2406.8421,,,2407.3415,2407.5912,,4,184,,,,,,,,,,,,,,,,bars/035.png,bars/mask005.png,,,,,,,,,,,,3,1,,,,,,,6,6,4,5,,,,,,,,,,,2406.8422,2407.3415,2407.5913,2410.7053,space,3.0989,,2410.7055,9,56,2411.704,2411.7041,2411.7176,,,,0,43,43,43,1,175,60,,,,,,,,
,,6145b0cbb10dd9c806f4b77a,65af566de8cf4b3e6d333546,2024-01-23_08h03.31.048,bars,2023.2.3,Win32,60.24096386,657b66ea316d21385b68909f,,,,,,,,,,,2411.7181,2412.7197,,,2413.2193,2413.469,,41,41,,,,,,,,,,,,,,,,bars/009.png,bars/mask003.png,,,,,,,,,,,,1,1,,,,,,,8,4,7,4,,,,,,,,,,,2412.7197,2413.2192,2413.4695,2417.1323,space,3.6481,,2417.1324,26,64,2418.1311,2418.1312,2418.1445,,,,0,44,44,44,1,15,105,,,,,,,,
,,6145b0cbb10dd9c806f4b77a,65af566de8cf4b3e6d333546,2024-01-23_08h03.31.048,bars,2023.2.3,Win32,60.24096386,657b66ea316d21385b68909f,,,,,,,,,,,2418.145,2419.1464,,,2419.6461,2419.8961,,6,6,,,,,,,,,,,,,,,,bars/016.png,bars/mask002.png,,,,,,,,,,,,2,2,,,,,,,10,6,10,6,,,,,,,,,,,2419.1465,2419.646,2419.8965,2420.978,space,1.0673,,2420.9781,34,21,2421.977,2421.977,2421.982,,,,0,45,45,45,1,40,165,,,,,,,,
,,6145b0cbb10dd9c806f4b77a,65af566de8cf4b3e6d333546,2024-01-23_08h03.31.048,bars,2023.2.3,Win32,60.24096386,657b66ea316d21385b68909f,,,,,,,,,,,2421.9825,2422.976,,,2423.4757,2423.7254,,162,162,,,,,,,,,,,,,,,,bars/014.png,bars/mask001.png,,,,,,,,,,,,2,2,,,,,,,8,4,7,5,,,,,,,,,,,2422.976,2423.4755,2423.7255,2430.852,space,7.1112,,2430.8521,82,18,2431.8513,2431.8513,2431.8818,,,,0,46,46,46,1,80,0,,,,,,,,
,,6145b0cbb10dd9c806f4b77a,65af566de8cf4b3e6d333546,2024-01-23_08h03.31.048,bars,2023.2.3,Win32,60.24096386,657b66ea316d21385b68909f,,,,,,,,,,,2431.8826,2432.8835,,,2433.3831,2433.633,,171,171,,,,,,,,,,,,,,,,bars/015.png,bars/mask008.png,,,,,,,,,,,,3,2,,,,,,,10,6,10,5,,,,,,,,,,,2432.8835,2433.383,2433.6332,2438.5612,space,4.9137,,2438.5613,61,11,2439.5604,2439.5606,2439.5768,,,,0,47,47,47,1,110,160,,,,,,,,
,,6145b0cbb10dd9c806f4b77a,65af566de8cf4b3e6d333546,2024-01-23_08h03.31.048,bars,2023.2.3,Win32,60.24096386,657b66ea316d21385b68909f,,,,,,,,,,,2439.5774,2440.5762,,,2441.0658,2441.3081,,165,-15,,,,,,,,,,,,,,,,bars/037.png,bars/mask009.png,,,,,,,,,,,,4,1,,,,,,,8,8,7,8,,,,,,,,,,,2440.5762,2441.0657,2441.3081,2447.0534,space,5.7309,,2447.0535,15,60,2448.0521,2448.0521,2448.087,,,,0,48,48,48,1,150,105,,,,,,,,
,,6145b0cbb10dd9c806f4b77a,65af566de8cf4b3e6d333546,2024-01-23_08h03.31.048,bars,2023.2.3,Win32,60.24096386,657b66ea316d21385b68909f,,,,,,,,,,,2448.0878,2449.0763,,,2449.5756,2449.8255,,113,113,,,,,,,,,,,,,,,,bars/044.png,bars/mask009.png,,,,,,,,,,,,0,1,,,,,,,6,10,7,10,,,,,,,,,,,2449.0763,2449.5756,2449.8256,2455.0553,space,5.2134,,2455.0555,38,42,2456.0529,2456.0529,2456.0831,,,,0,49,49,49,1,75,155,,,,,,,,
,,6145b0cbb10dd9c806f4b77a,65af566de8cf4b3e6d333546,2024-01-23_08h03.31.048,bars,2023.2.3,Win32,60.24096386,657b66ea316d21385b68909f,,,,,,,,,,,,,,,,,,,,,,,,,,,,,,,,,,,,,,,,,,,,,,,,,,,,,,,,,,,,,,,,,,,,,,,,,,,,,,,,,,,,,,,,,,,,,2456.0836,2516.0858,0,3,3,0,1,sequence_tables/blk009.csv
,,6145b0cbb10dd9c806f4b77a,65af566de8cf4b3e6d333546,2024-01-23_08h03.31.048,bars,2023.2.3,Win32,60.24096386,657b66ea316d21385b68909f,,,,,,,,,,,2581.7283,2582.7216,,,2583.2215,2583.4709,,146,146,,,,,,,,,,,,,,,,bars/042.png,bars/mask000.png,,,,,,,,,,,,5,1,,,,,,,5,5,5,2,,,,,,2516.1151,2581.705,space,65.5764,,2582.7217,2583.2214,2583.4709,2587.1178,space,3.6321,,2587.118,1,71,2588.1162,2588.1163,2588.1442,,,,0,0,0,0,1,145,75,,,,,,,,
,,6145b0cbb10dd9c806f4b77a,65af566de8cf4b3e6d333546,2024-01-23_08h03.31.048,bars,2023.2.3,Win32,60.24096386,657b66ea316d21385b68909f,,,,,,,,,,,2588.1447,2589.1473,,,2589.6471,2589.8971,,90,90,,,,,,,,,,,,,,,,bars/034.png,bars/mask005.png,,,,,,,,,,,,1,2,,,,,,,7,3,8,4,,,,,,,,,,,2589.1475,2589.6469,2589.8971,2592.1952,space,2.2837,,2592.1953,35,25,2593.1946,2593.1946,2593.2291,,,,0,1,1,1,1,125,65,,,,,,,,
,,6145b0cbb10dd9c806f4b77a,65af566de8cf4b3e6d333546,2024-01-23_08h03.31.048,bars,2023.2.3,Win32,60.24096386,657b66ea316d21385b68909f,,,,,,,,,,,2593.2299,2594.2335,,,2594.7266,2594.9763,,14,14,,,,,,,,,,,,,,,,bars/031.png,bars/mask006.png,,,,,,,,,,,,2,2,,,,,,,5,5,4,6,,,,,,,,,,,2594.2336,2594.7264,2594.9764,2596.1588,space,1.1689,,2596.1589,74,21,2597.1566,2597.1567,2597.1581,,,,0,2,2,2,1,120,35,,,,,,,,
,,6145b0cbb10dd9c806f4b77a,65af566de8cf4b3e6d333546,2024-01-23_08h03.31.048,bars,2023.2.3,Win32,60.24096386,657b66ea316d21385b68909f,,,,,,,,,,,2597.1586,2598.1556,,,2598.6553,2598.9058,,59,59,,,,,,,,,,,,,,,,bars/028.png,bars/mask001.png,,,,,,,,,,,,4,1,,,,,,,7,7,7,7,,,,,,,,,,,2598.1556,2598.6553,2598.9058,2599.7372,space,0.8168,,2599.7377,14,61,2600.7372,2600.7373,2600.7439,,,,0,3,3,3,1,45,120,,,,,,,,
,,6145b0cbb10dd9c806f4b77a,65af566de8cf4b3e6d333546,2024-01-23_08h03.31.048,bars,2023.2.3,Win32,60.24096386,657b66ea316d21385b68909f,,,,,,,,,,,2600.7447,2601.736,,,2602.2359,2602.4856,,20,20,,,,,,,,,,,,,,,,bars/007.png,bars/mask004.png,,,,,,,,,,,,1,1,,,,,,,5,5,6,4,,,,,,,,,,,2601.7361,2602.2357,2602.4856,2604.4674,space,1.9678,,2604.4675,25,35,2605.4661,2605.4662,2605.4683,,,,0,4,4,4,1,175,55,,,,,,,,
,,6145b0cbb10dd9c806f4b77a,65af566de8cf4b3e6d333546,2024-01-23_08h03.31.048,bars,2023.2.3,Win32,60.24096386,657b66ea316d21385b68909f,,,,,,,,,,,2605.4691,2606.4652,,,2606.9645,2607.2142,,76,76,,,,,,,,,,,,,,,,bars/012.png,bars/mask009.png,,,,,,,,,,,,4,1,,,,,,,7,7,8,8,,,,,,,,,,,2606.4653,2606.9644,2607.2143,2609.6281,space,2.4004,,2609.6282,14,61,2610.6276,2610.6277,2610.6575,,,,0,5,5,5,1,90,15,,,,,,,,
,,6145b0cbb10dd9c806f4b77a,65af566de8cf4b3e6d333546,2024-01-23_08h03.31.048,bars,2023.2.3,Win32,60.24096386,657b66ea316d21385b68909f,,,,,,,,,,,2610.659,2611.6587,,,2612.1583,2612.4074,,168,168,,,,,,,,,,,,,,,,bars/026.png,bars/mask002.png,,,,,,,,,,,,0,1,,,,,,,9,9,7,9,,,,,,,,,,,2611.6588,2612.1582,2612.4074,2615.5049,space,3.0826,,2615.5049,47,83,2616.5035,2616.5035,2616.5168,,,,0,6,6,6,1,35,85,,,,,,,,
,,6145b0cbb10dd9c806f4b77a,65af566de8cf4b3e6d333546,2024-01-23_08h03.31.048,bars,2023.2.3,Win32,60.24096386,657b66ea316d21385b68909f,,,,,,,,,,,2616.5175,2617.5193,,,2618.0209,2618.2684,,62,62,,,,,,,,,,,,,,,,bars/038.png,bars/mask004.png,,,,,,,,,,,,6,2,,,,,,,10,10,10,8,,,,,,,,,,,2617.5194,2618.0208,2618.2685,2620.119,space,1.838,,2620.1191,77,8,2621.1162,2621.1163,2621.1239,,,,0,7,7,7,1,165,70,,,,,,,,
,,6145b0cbb10dd9c806f4b77a,65af566de8cf4b3e6d333546,2024-01-23_08h03.31.048,bars,2023.2.3,Win32,60.24096386,657b66ea316d21385b68909f,,,,,,,,,,,2621.1248,2622.1153,,,2622.6068,2622.8609,,0,0,,,,,,,,,,,,,,,,bars/032.png,bars/mask007.png,,,,,,,,,,,,3,2,,,,,,,10,10,10,10,,,,,,,,,,,2622.1154,2622.6067,2622.861,2624.5068,space,1.6342,,2624.507,55,20,2625.5112,2625.5113,2625.5134,,,,0,8,8,8,1,125,20,,,,,,,,
,,6145b0cbb10dd9c806f4b77a,65af566de8cf4b3e6d333546,2024-01-23_08h03.31.048,bars,2023.2.3,Win32,60.24096386,657b66ea316d21385b68909f,,,,,,,,,,,2625.5141,2626.5102,,,2627.0094,2627.2595,,104,104,,,,,,,,,,,,,,,,bars/035.png,bars/mask005.png,,,,,,,,,,,,0,2,,,,,,,8,10,9,10,,,,,,,,,,,2626.5105,2627.0094,2627.2597,2628.6419,space,1.3669,,2628.642,71,44,2629.6406,2629.6407,2629.6427,,,,0,9,9,9,1,175,60,,,,,,,,
,,6145b0cbb10dd9c806f4b77a,65af566de8cf4b3e6d333546,2024-01-23_08h03.31.048,bars,2023.2.3,Win32,60.24096386,657b66ea316d21385b68909f,,,,,,,,,,,2629.6432,2630.6398,,,2631.1391,2631.3894,,92,92,,,,,,,,,,,,,,,,bars/026.png,bars/mask002.png,,,,,,,,,,,,5,2,,,,,,,6,8,7,7,,,,,,,,,,,2630.6399,2631.1391,2631.3895,2634.4035,space,2.998,,2634.4035,57,7,2635.4018,2635.4018,2635.431,,,,0,10,10,10,1,35,85,,,,,,,,
