init_variables.started,init_variables.stopped,participant,session,date,expName,psychopyVersion,OS,frameRate,study_id,instruction_exp.started,instruction_exp.stopped,key_resp_8.keys,key_resp_8.rt,key_resp_8.duration,instruction_single.started,instruction_single.stopped,key_resp_2.keys,key_resp_2.rt,key_resp_2.duration,interval.started,interval.stopped,cue_single.started,cue_single.stopped,mask.started,mask.stopped,ori_response_single.started,res_ori,res,ori_response_single.stopped,key_resp_single.keys,key_resp_single.rt,key_resp_single.duration,disp_single.started,disp_single.stopped,key_resp.keys,key_resp.rt,key_resp.duration,single.thisRepN,single.thisTrialN,single.thisN,single.thisIndex,single.ran,ori,path,mask_path,instruction_bandit.started,instruction_bandit.stopped,key_resp_6.keys,key_resp_6.rt,key_resp_6.duration,cue_bandit.started,cue_bandit.stopped,bandit_res.keys,bandit_res.rt,bandit_res.duration,outcome_bandit.started,rew,action,outcome_bandit.stopped,bandit.thisRepN,bandit.thisTrialN,bandit.thisN,bandit.thisIndex,bandit.ran,actual_rew1,actual_rew2,rew1,rew2,instruction_task.started,instruction_task.stopped,key_resp_7.keys,key_resp_7.rt,key_resp_7.duration,wait_ready.started,wait_ready.stopped,key_resp_3.keys,key_resp_3.rt,key_resp_3.duration,cue.started,cue.stopped,ori_response.started,ori_response.stopped,key_resp_5.keys,key_resp_5.rt,key_resp_5.duration,outcome.started,diff1,diff2,outcome.stopped,disp_outcome_practice.started,disp_outcome_practice.stopped,key_resp_4.keys,key_resp_4.rt,key_resp_4.duration,trials.thisRepN,trials.thisTrialN,trials.thisN,trials.thisIndex,trials.ran,ori1,ori2,break_blk.started,break_blk.stopped,block.thisRepN,block.thisTrialN,block.thisN,block.thisIndex,block.ran,condition_file
0.0002,0.0003,60f2c5a1a74838f505499dec,65af55ec91bb652b9495baa9,2024-01-23_08h01.08.883,bars,2023.2.3,MacIntel,59.88023952,657b66ea316d21385b68909f,,,,,,,,,,,,,,,,,,,,,,,,,,,,,,,,,,,,,,,,,,,,,,,,,,,,,,,,,,,,,,,,,,,,,,,,,,,,,,,,,,,,,,,,,,,,,,,,,,,,
,,60f2c5a1a74838f505499dec,65af55ec91bb652b9495baa9,2024-01-23_08h01.08.883,bars,2023.2.3,MacIntel,59.88023952,657b66ea316d21385b68909f,0.0003,18.443,y,18.4328,,,,,,,,,,,,,,,,,,,,,,,,,,,,,,,,,,,,,,,,,,,,,,,,,,,,,,,,,,,,,,,,,,,,,,,,,,,,,,,,,,,,,,,,,,,,,,,,
,,60f2c5a1a74838f505499dec,65af55ec91bb652b9495baa9,2024-01-23_08h01.08.883,bars,2023.2.3,MacIntel,59.88023952,657b66ea316d21385b68909f,,,,,,18.4431,56.8342,space,38.3816,,,,,,,,,,,,,,,,,,,,,,,,,,,,,,,,,,,,,,,,,,,,,,,,,,,,,,,,,,,,,,,,,,,,,,,,,,,,,,,,,,,,,,,,,,,
,,60f2c5a1a74838f505499dec,65af55ec91bb652b9495baa9,2024-01-23_08h01.08.883,bars,2023.2.3,MacIntel,59.88023952,657b66ea316d21385b68909f,,,,,,,,,,,56.8395,57.844,57.8442,58.3452,58.3454,58.5948,58.595,0,180,77.5626,space,18.94,,77.5628,103.8107,space,26.2179,,0,0,0,6,1,175,bars/single006.png,bars/mask005.png,,,,,,,,,,,,,,,,,,,,,,,,,,,,,,,,,,,,,,,,,,,,,,,,,,,,,,,,,,,,,,,,
,,60f2c5a1a74838f505499dec,65af55ec91bb652b9495baa9,2024-01-23_08h01.08.883,bars,2023.2.3,MacIntel,59.88023952,657b66ea316d21385b68909f,,,,,,,,,,,103.8244,104.8116,104.8117,105.3097,105.3097,105.5634,105.5634,173,173,119.128,space,13.5509,,119.1281,129.6442,space,10.4768,,0,1,1,0,1,150,bars/single000.png,bars/mask006.png,,,,,,,,,,,,,,,,,,,,,,,,,,,,,,,,,,,,,,,,,,,,,,,,,,,,,,,,,,,,,,,,
,,60f2c5a1a74838f505499dec,65af55ec91bb652b9495baa9,2024-01-23_08h01.08.883,bars,2023.2.3,MacIntel,59.88023952,657b66ea316d21385b68909f,,,,,,,,,,,129.6579,130.6451,130.6452,131.144,131.1442,131.3973,131.3973,157,157,141.031,space,9.6234,,141.0311,151.1976,space,10.1369,,0,2,2,2,1,145,bars/single002.png,bars/mask003.png,,,,,,,,,,,,,,,,,,,,,,,,,,,,,,,,,,,,,,,,,,,,,,,,,,,,,,,,,,,,,,,,
,,60f2c5a1a74838f505499dec,65af55ec91bb652b9495baa9,2024-01-23_08h01.08.883,bars,2023.2.3,MacIntel,59.88023952,657b66ea316d21385b68909f,,,,,,,,,,,151.2101,152.2147,152.2148,152.7124,152.7125,152.9627,152.9627,147,147,161.2128,space,8.2365,,161.213,168.4325,space,7.1996,,0,3,3,4,1,95,bars/single004.png,bars/mask004.png,,,,,,,,,,,,,,,,,,,,,,,,,,,,,,,,,,,,,,,,,,,,,,,,,,,,,,,,,,,,,,,,
,,60f2c5a1a74838f505499dec,65af55ec91bb652b9495baa9,2024-01-23_08h01.08.883,bars,2023.2.3,MacIntel,59.88023952,657b66ea316d21385b68909f,,,,,,,,,,,168.4446,169.4454,169.4455,169.9467,169.9468,170.1968,170.1968,100,-80,187.0991,space,16.8855,,187.0991,193.9298,space,6.804,,0,4,4,1,1,20,bars/single001.png,bars/mask006.png,,,,,,,,,,,,,,,,,,,,,,,,,,,,,,,,,,,,,,,,,,,,,,,,,,,,,,,,,,,,,,,,
,,60f2c5a1a74838f505499dec,65af55ec91bb652b9495baa9,2024-01-23_08h01.08.883,bars,2023.2.3,MacIntel,59.88023952,657b66ea316d21385b68909f,,,,,,,,,,,193.9412,194.9324,194.9326,195.4307,195.4307,195.6796,195.6796,26,26,210.315,space,14.6204,,210.3152,216.0999,space,5.762,,0,5,5,8,1,160,bars/single008.png,bars/mask004.png,,,,,,,,,,,,,,,,,,,,,,,,,,,,,,,,,,,,,,,,,,,,,,,,,,,,,,,,,,,,,,,,
,,60f2c5a1a74838f505499dec,65af55ec91bb652b9495baa9,2024-01-23_08h01.08.883,bars,2023.2.3,MacIntel,59.88023952,657b66ea316d21385b68909f,,,,,,,,,,,216.1115,217.1166,217.1167,217.615,217.6151,217.8651,217.8652,161,161,227.4667,space,9.5842,,227.4668,236.3175,space,8.831,,0,6,6,3,1,20,bars/single003.png,bars/mask005.png,,,,,,,,,,,,,,,,,,,,,,,,,,,,,,,,,,,,,,,,,,,,,,,,,,,,,,,,,,,,,,,,
,,60f2c5a1a74838f505499dec,65af55ec91bb652b9495baa9,2024-01-23_08h01.08.883,bars,2023.2.3,MacIntel,59.88023952,657b66ea316d21385b68909f,,,,,,,,,,,236.3311,237.3332,237.3333,237.8326,237.8327,238.0826,238.0827,20,200,252.882,space,14.7834,,252.8821,263.1503,space,10.2443,,0,7,7,9,1,20,bars/single009.png,bars/mask006.png,,,,,,,,,,,,,,,,,,,,,,,,,,,,,,,,,,,,,,,,,,,,,,,,,,,,,,,,,,,,,,,,
,,60f2c5a1a74838f505499dec,65af55ec91bb652b9495baa9,2024-01-23_08h01.08.883,bars,2023.2.3,MacIntel,59.88023952,657b66ea316d21385b68909f,,,,,,,,,,,263.1633,264.1657,264.1658,264.6669,264.667,264.9016,264.9016,34,214,281.7176,space,16.8056,,281.7177,293.2837,space,11.5436,,0,8,8,7,1,45,bars/single007.png,bars/mask009.png,,,,,,,,,,,,,,,,,,,,,,,,,,,,,,,,,,,,,,,,,,,,,,,,,,,,,,,,,,,,,,,,
,,60f2c5a1a74838f505499dec,65af55ec91bb652b9495baa9,2024-01-23_08h01.08.883,bars,2023.2.3,MacIntel,59.88023952,657b66ea316d21385b68909f,,,,,,,,,,,293.2963,294.2861,294.2862,294.7839,294.7839,295.0348,295.0348,47,227,307.0206,space,11.9681,,307.0207,326.6217,space,19.5756,,0,9,9,5,1,55,bars/single005.png,bars/mask008.png,,,,,,,,,,,,,,,,,,,,,,,,,,,,,,,,,,,,,,,,,,,,,,,,,,,,,,,,,,,,,,,,
,,60f2c5a1a74838f505499dec,65af55ec91bb652b9495baa9,2024-01-23_08h01.08.883,bars,2023.2.3,MacIntel,59.88023952,657b66ea316d21385b68909f,,,,,,,,,,,,,,,,,,,,,,,,,,,,,,,,,,,,,326.6342,352.3722,space,25.7171,,,,,,,,,,,,,,,,,,,,,,,,,,,,,,,,,,,,,,,,,,,,,,,,,,,,,,,,,,,,
,,60f2c5a1a74838f505499dec,65af55ec91bb652b9495baa9,2024-01-23_08h01.08.883,bars,2023.2.3,MacIntel,59.88023952,657b66ea316d21385b68909f,,,,,,,,,,,,,,,,,,,,,,,,,,,,,,,,,,,,,,,,,,352.3872,362.955,right,10.5483,,362.9551,2,2,363.9528,0,0,0,0,1,9,1,9,2,,,,,,,,,,,,,,,,,,,,,,,,,,,,,,,,,,,,,,,,,
,,60f2c5a1a74838f505499dec,65af55ec91bb652b9495baa9,2024-01-23_08h01.08.883,bars,2023.2.3,MacIntel,59.88023952,657b66ea316d21385b68909f,,,,,,,,,,,,,,,,,,,,,,,,,,,,,,,,,,,,,,,,,,363.9536,369.7069,left,5.7346,,369.7069,10,1,370.7041,0,1,1,1,1,10,0,10,1,,,,,,,,,,,,,,,,,,,,,,,,,,,,,,,,,,,,,,,,,
,,60f2c5a1a74838f505499dec,65af55ec91bb652b9495baa9,2024-01-23_08h01.08.883,bars,2023.2.3,MacIntel,59.88023952,657b66ea316d21385b68909f,,,,,,,,,,,,,,,,,,,,,,,,,,,,,,,,,,,,,,,,,,370.7048,372.7379,left,2.0169,,372.7379,10,1,373.7375,0,2,2,2,1,10,2,10,2,,,,,,,,,,,,,,,,,,,,,,,,,,,,,,,,,,,,,,,,,
,,60f2c5a1a74838f505499dec,65af55ec91bb652b9495baa9,2024-01-23_08h01.08.883,bars,2023.2.3,MacIntel,59.88023952,657b66ea316d21385b68909f,,,,,,,,,,,,,,,,,,,,,,,,,,,,,,,,,,,,,,,,,,373.7512,374.5555,right,0.7925,,374.5556,3,2,375.5557,0,3,3,3,1,8,4,7,3,,,,,,,,,,,,,,,,,,,,,,,,,,,,,,,,,,,,,,,,,
,,60f2c5a1a74838f505499dec,65af55ec91bb652b9495baa9,2024-01-23_08h01.08.883,bars,2023.2.3,MacIntel,59.88023952,657b66ea316d21385b68909f,,,,,,,,,,,,,,,,,,,,,,,,,,,,,,,,,,,,,,,,,,375.5563,376.5702,left,1.0005,,376.5703,5,1,377.5707,0,4,4,4,1,6,2,5,1,,,,,,,,,,,,,,,,,,,,,,,,,,,,,,,,,,,,,,,,,
,,60f2c5a1a74838f505499dec,65af55ec91bb652b9495baa9,2024-01-23_08h01.08.883,bars,2023.2.3,MacIntel,59.88023952,657b66ea316d21385b68909f,,,,,,,,,,,,,,,,,,,,,,,,,,,,,,,,,,,,,,,,,,377.5716,379.6043,right,2.0181,,379.6044,4,2,380.6042,0,5,5,5,1,4,4,4,4,,,,,,,,,,,,,,,,,,,,,,,,,,,,,,,,,,,,,,,,,
,,60f2c5a1a74838f505499dec,65af55ec91bb652b9495baa9,2024-01-23_08h01.08.883,bars,2023.2.3,MacIntel,59.88023952,657b66ea316d21385b68909f,,,,,,,,,,,,,,,,,,,,,,,,,,,,,,,,,,,,,,,,,,380.6048,381.4368,left,0.8157,,381.4369,1,1,382.4379,0,6,6,6,1,2,2,1,2,,,,,,,,,,,,,,,,,,,,,,,,,,,,,,,,,,,,,,,,,
,,60f2c5a1a74838f505499dec,65af55ec91bb652b9495baa9,2024-01-23_08h01.08.883,bars,2023.2.3,MacIntel,59.88023952,657b66ea316d21385b68909f,,,,,,,,,,,,,,,,,,,,,,,,,,,,,,,,,,,,,,,,,,382.4386,383.0397,right,0.5843,,383.0397,1,2,384.0371,0,7,7,7,1,0,0,0,1,,,,,,,,,,,,,,,,,,,,,,,,,,,,,,,,,,,,,,,,,
,,60f2c5a1a74838f505499dec,65af55ec91bb652b9495baa9,2024-01-23_08h01.08.883,bars,2023.2.3,MacIntel,59.88023952,657b66ea316d21385b68909f,,,,,,,,,,,,,,,,,,,,,,,,,,,,,,,,,,,,,,,,,,384.038,385.2061,right,1.1573,,385.2061,0,2,386.2036,0,8,8,8,1,0,2,1,0,,,,,,,,,,,,,,,,,,,,,,,,,,,,,,,,,,,,,,,,,
,,60f2c5a1a74838f505499dec,65af55ec91bb652b9495baa9,2024-01-23_08h01.08.883,bars,2023.2.3,MacIntel,59.88023952,657b66ea316d21385b68909f,,,,,,,,,,,,,,,,,,,,,,,,,,,,,,,,,,,,,,,,,,386.2043,387.0728,left,0.857,,387.0728,2,1,388.0718,0,9,9,9,1,2,4,2,3,,,,,,,,,,,,,,,,,,,,,,,,,,,,,,,,,,,,,,,,,
,,60f2c5a1a74838f505499dec,65af55ec91bb652b9495baa9,2024-01-23_08h01.08.883,bars,2023.2.3,MacIntel,59.88023952,657b66ea316d21385b68909f,,,,,,,,,,,,,,,,,,,,,,,,,,,,,,,,,,,,,,,,,,388.0725,389.0716,left,0.9829,,389.0717,0,1,390.0724,0,10,10,10,1,0,2,0,3,,,,,,,,,,,,,,,,,,,,,,,,,,,,,,,,,,,,,,,,,
,,60f2c5a1a74838f505499dec,65af55ec91bb652b9495baa9,2024-01-23_08h01.08.883,bars,2023.2.3,MacIntel,59.88023952,657b66ea316d21385b68909f,,,,,,,,,,,,,,,,,,,,,,,,,,,,,,,,,,,,,,,,,,390.073,390.6226,left,0.5342,,390.6226,0,1,391.6215,0,11,11,11,1,0,4,0,3,,,,,,,,,,,,,,,,,,,,,,,,,,,,,,,,,,,,,,,,,
,,60f2c5a1a74838f505499dec,65af55ec91bb652b9495baa9,2024-01-23_08h01.08.883,bars,2023.2.3,MacIntel,59.88023952,657b66ea316d21385b68909f,,,,,,,,,,,,,,,,,,,,,,,,,,,,,,,,,,,,,,,,,,391.622,392.0224,right,0.3904,,392.0224,6,2,393.0225,0,12,12,12,1,2,6,1,6,,,,,,,,,,,,,,,,,,,,,,,,,,,,,,,,,,,,,,,,,
,,60f2c5a1a74838f505499dec,65af55ec91bb652b9495baa9,2024-01-23_08h01.08.883,bars,2023.2.3,MacIntel,59.88023952,657b66ea316d21385b68909f,,,,,,,,,,,,,,,,,,,,,,,,,,,,,,,,,,,,,,,,,,393.023,393.8217,left,0.7828,,393.8217,1,1,394.8229,0,13,13,13,1,0,4,1,3,,,,,,,,,,,,,,,,,,,,,,,,,,,,,,,,,,,,,,,,,
,,60f2c5a1a74838f505499dec,65af55ec91bb652b9495baa9,2024-01-23_08h01.08.883,bars,2023.2.3,MacIntel,59.88023952,657b66ea316d21385b68909f,,,,,,,,,,,,,,,,,,,,,,,,,,,,,,,,,,,,,,,,,,394.8234,396.5729,left,1.7331,,396.573,2,1,397.5724,0,14,14,14,1,2,6,2,7,,,,,,,,,,,,,,,,,,,,,,,,,,,,,,,,,,,,,,,,,
,,60f2c5a1a74838f505499dec,65af55ec91bb652b9495baa9,2024-01-23_08h01.08.883,bars,2023.2.3,MacIntel,59.88023952,657b66ea316d21385b68909f,,,,,,,,,,,,,,,,,,,,,,,,,,,,,,,,,,,,,,,,,,397.5848,398.0572,right,0.4609,,398.0572,9,2,399.0562,0,15,15,15,1,4,8,3,9,,,,,,,,,,,,,,,,,,,,,,,,,,,,,,,,,,,,,,,,,
,,60f2c5a1a74838f505499dec,65af55ec91bb652b9495baa9,2024-01-23_08h01.08.883,bars,2023.2.3,MacIntel,59.88023952,657b66ea316d21385b68909f,,,,,,,,,,,,,,,,,,,,,,,,,,,,,,,,,,,,,,,,,,399.0568,399.9726,right,0.9002,,399.9727,7,2,400.9726,0,16,16,16,1,6,6,7,7,,,,,,,,,,,,,,,,,,,,,,,,,,,,,,,,,,,,,,,,,
,,60f2c5a1a74838f505499dec,65af55ec91bb652b9495baa9,2024-01-23_08h01.08.883,bars,2023.2.3,MacIntel,59.88023952,657b66ea316d21385b68909f,,,,,,,,,,,,,,,,,,,,,,,,,,,,,,,,,,,,,,,,,,400.9732,403.0373,right,2.0536,,403.0375,5,2,404.0387,0,17,17,17,1,8,4,9,5,,,,,,,,,,,,,,,,,,,,,,,,,,,,,,,,,,,,,,,,,
,,60f2c5a1a74838f505499dec,65af55ec91bb652b9495baa9,2024-01-23_08h01.08.883,bars,2023.2.3,MacIntel,59.88023952,657b66ea316d21385b68909f,,,,,,,,,,,,,,,,,,,,,,,,,,,,,,,,,,,,,,,,,,404.0525,404.6377,left,0.5738,,404.6379,5,1,405.6387,0,18,18,18,1,6,2,5,1,,,,,,,,,,,,,,,,,,,,,,,,,,,,,,,,,,,,,,,,,
,,60f2c5a1a74838f505499dec,65af55ec91bb652b9495baa9,2024-01-23_08h01.08.883,bars,2023.2.3,MacIntel,59.88023952,657b66ea316d21385b68909f,,,,,,,,,,,,,,,,,,,,,,,,,,,,,,,,,,,,,,,,,,405.6394,406.3042,left,0.6519,,406.3043,7,1,407.3076,0,19,19,19,1,8,0,7,0,,,,,,,,,,,,,,,,,,,,,,,,,,,,,,,,,,,,,,,,,
,,60f2c5a1a74838f505499dec,65af55ec91bb652b9495baa9,2024-01-23_08h01.08.883,bars,2023.2.3,MacIntel,59.88023952,657b66ea316d21385b68909f,,,,,,,,,,,,,,,,,,,,,,,,,,,,,,,,,,,,,,,,,,,,,,,,,,,,,,,,,,,,407.3087,448.9579,space,41.6335,,,,,,,,,,,,,,,,,,,,,,,,,,,,,,,,,,,,,
,,60f2c5a1a74838f505499dec,65af55ec91bb652b9495baa9,2024-01-23_08h01.08.883,bars,2023.2.3,MacIntel,59.88023952,657b66ea316d21385b68909f,,,,,,,,,,,451.3458,452.3402,,,452.8393,453.0905,,124,-56,,,,,,,,,,,,,,,,bars/002.png,bars/mask000.png,,,,,,,,,,,,6,1,,,,,,,10,1,8,0,,,,,,448.9729,451.3409,space,2.3502,,452.3407,452.8392,453.091,474.0105,space,20.9037,,474.0108,6,39,475.0098,475.0101,494.6617,space,19.6366,,0,0,0,0,1,130,85,,,,,,,,
,,60f2c5a1a74838f505499dec,65af55ec91bb652b9495baa9,2024-01-23_08h01.08.883,bars,2023.2.3,MacIntel,59.88023952,657b66ea316d21385b68909f,,,,,,,,,,,494.6744,495.674,,,496.1773,496.4244,,85,85,,,,,,,,,,,,,,,,bars/024.png,bars/mask000.png,,,,,,,,,,,,0,1,,,,,,,8,0,8,0,,,,,,,,,,,495.6741,496.1773,496.4245,504.3749,space,7.9388,,504.375,35,85,505.3749,505.375,513.9927,space,8.5909,,0,1,1,1,1,120,170,,,,,,,,
,,60f2c5a1a74838f505499dec,65af55ec91bb652b9495baa9,2024-01-23_08h01.08.883,bars,2023.2.3,MacIntel,59.88023952,657b66ea316d21385b68909f,,,,,,,,,,,514.0061,514.9929,,,515.4929,515.7426,,172,172,,,,,,,,,,,,,,,,bars/043.png,bars/mask006.png,,,,,,,,,,,,0,1,,,,,,,6,0,5,0,,,,,,,,,,,514.993,515.4928,515.7427,523.509,space,7.7505,,523.5091,38,42,524.5097,524.5097,531.3926,space,6.8521,,0,2,2,2,1,30,130,,,,,,,,
,,60f2c5a1a74838f505499dec,65af55ec91bb652b9495baa9,2024-01-23_08h01.08.883,bars,2023.2.3,MacIntel,59.88023952,657b66ea316d21385b68909f,,,,,,,,,,,531.4038,532.3937,,,532.8932,533.142,,123,123,,,,,,,,,,,,,,,,bars/031.png,bars/mask003.png,,,,,,,,,,,,3,1,,,,,,,4,2,3,0,,,,,,,,,,,532.3938,532.8931,533.142,537.8453,space,4.6869,,537.8454,3,88,538.8455,538.8455,543.9941,space,5.1194,,0,3,3,3,1,120,35,,,,,,,,
,,60f2c5a1a74838f505499dec,65af55ec91bb652b9495baa9,2024-01-23_08h01.08.883,bars,2023.2.3,MacIntel,59.88023952,657b66ea316d21385b68909f,,,,,,,,,,,544.0067,545.0097,,,545.4953,545.7444,,38,38,,,,,,,,,,,,,,,,bars/024.png,bars/mask000.png,,,,,,,,,,,,0,2,,,,,,,6,0,5,0,,,,,,,,,,,545.0097,545.4953,545.7444,557.0443,space,11.2853,,557.0445,82,48,558.0445,558.0445,562.7622,space,4.6857,,0,4,4,4,1,120,170,,,,,,,,
,,60f2c5a1a74838f505499dec,65af55ec91bb652b9495baa9,2024-01-23_08h01.08.883,bars,2023.2.3,MacIntel,59.88023952,657b66ea316d21385b68909f,,,,,,,,,,,562.7751,563.7765,,,564.2631,564.5111,,168,168,,,,,,,,,,,,,,,,bars/024.png,bars/mask001.png,,,,,,,,,,,,5,2,,,,,,,8,2,10,5,,,,,,,,,,,563.7766,564.263,564.5111,569.0448,space,4.518,,569.0449,48,2,570.0462,570.0464,578.0468,space,7.9839,,0,5,5,5,1,120,170,,,,,,,,
,,60f2c5a1a74838f505499dec,65af55ec91bb652b9495baa9,2024-01-23_08h01.08.883,bars,2023.2.3,MacIntel,59.88023952,657b66ea316d21385b68909f,,,,,,,,,,,578.0603,579.0619,,,579.5644,579.8109,,122,122,,,,,,,,,,,,,,,,bars/028.png,bars/mask000.png,,,,,,,,,,,,1,2,,,,,,,10,0,10,1,,,,,,,,,,,579.062,579.5643,579.811,587.2291,space,7.4031,,587.2293,77,2,588.2279,588.2279,594.7283,space,6.4749,,0,6,6,6,1,45,120,,,,,,,,
,,60f2c5a1a74838f505499dec,65af55ec91bb652b9495baa9,2024-01-23_08h01.08.883,bars,2023.2.3,MacIntel,59.88023952,657b66ea316d21385b68909f,,,,,,,,,,,594.7397,595.729,,,596.2297,596.4787,,46,46,,,,,,,,,,,,,,,,bars/033.png,bars/mask000.png,,,,,,,,,,,,3,1,,,,,,,10,0,10,0,,,,,,,,,,,595.729,596.2296,596.4787,609.2306,space,12.7424,,609.2306,21,71,610.2299,610.23,617.3809,space,7.1192,,0,7,7,7,1,25,155,,,,,,,,
,,60f2c5a1a74838f505499dec,65af55ec91bb652b9495baa9,2024-01-23_08h01.08.883,bars,2023.2.3,MacIntel,59.88023952,657b66ea316d21385b68909f,,,,,,,,,,,617.3939,618.3977,,,618.8982,619.132,,156,-24,,,,,,,,,,,,,,,,bars/044.png,bars/mask002.png,,,,,,,,,,,,0,2,,,,,,,10,0,8,0,,,,,,,,,,,618.3978,618.8981,619.1321,628.2802,space,9.1343,,628.2802,81,1,629.2793,629.2793,649.9494,space,20.6533,,0,8,8,8,1,75,155,,,,,,,,
,,60f2c5a1a74838f505499dec,65af55ec91bb652b9495baa9,2024-01-23_08h01.08.883,bars,2023.2.3,MacIntel,59.88023952,657b66ea316d21385b68909f,,,,,,,,,,,649.9619,650.9656,,,651.4645,651.7005,,75,75,,,,,,,,,,,,,,,,bars/007.png,bars/mask005.png,,,,,,,,,,,,0,2,,,,,,,8,0,9,0,,,,,,,,,,,650.9656,651.4645,651.7005,657.3315,space,5.6214,,657.3315,80,20,658.3328,658.333,663.1147,space,4.7573,,0,9,9,9,1,175,55,,,,,,,,
,,60f2c5a1a74838f505499dec,65af55ec91bb652b9495baa9,2024-01-23_08h01.08.883,bars,2023.2.3,MacIntel,59.88023952,657b66ea316d21385b68909f,,,,,,,,,,,663.1266,664.1317,,,664.6152,664.864,,174,174,,,,,,,,,,,,,,,,bars/035.png,bars/mask005.png,,,,,,,,,,,,7,1,,,,,,,10,2,7,4,,,,,,,,,,,664.1318,664.6151,664.864,673.4311,space,8.5556,,673.4312,1,66,674.4321,674.4321,688.2828,space,13.8226,,0,10,10,10,1,175,60,,,,,,,,
,,60f2c5a1a74838f505499dec,65af55ec91bb652b9495baa9,2024-01-23_08h01.08.883,bars,2023.2.3,MacIntel,59.88023952,657b66ea316d21385b68909f,,,,,,,,,,,688.295,689.2835,,,689.7817,690.0342,,63,63,,,,,,,,,,,,,,,,bars/049.png,bars/mask000.png,,,,,,,,,,,,0,2,,,,,,,10,4,10,4,,,,,,,,,,,689.2836,689.7816,690.0342,702.2182,space,12.1742,,702.2184,83,52,703.219,703.2191,707.4669,space,4.2234,,0,11,11,11,1,160,115,,,,,,,,
,,60f2c5a1a74838f505499dec,65af55ec91bb652b9495baa9,2024-01-23_08h01.08.883,bars,2023.2.3,MacIntel,59.88023952,657b66ea316d21385b68909f,,,,,,,,,,,707.4797,708.4858,,,708.9853,709.2341,,160,160,,,,,,,,,,,,,,,,bars/017.png,bars/mask008.png,,,,,,,,,,,,4,1,,,,,,,8,6,7,8,,,,,,,,,,,708.4858,708.9852,709.2341,713.3184,space,4.0698,,713.3185,15,65,714.3172,714.3174,733.0016,space,18.6542,,0,12,12,12,1,145,45,,,,,,,,
,,60f2c5a1a74838f505499dec,65af55ec91bb652b9495baa9,2024-01-23_08h01.08.883,bars,2023.2.3,MacIntel,59.88023952,657b66ea316d21385b68909f,,,,,,,,,,,733.0133,734.0008,,,734.5016,734.7512,,147,147,,,,,,,,,,,,,,,,bars/022.png,bars/mask007.png,,,,,,,,,,,,0,1,,,,,,,6,4,6,2,,,,,,,,,,,734.0009,734.5015,734.7513,748.552,space,13.7856,,748.552,52,53,749.5522,749.5523,759.2007,space,9.6265,,0,13,13,13,1,95,20,,,,,,,,
,,60f2c5a1a74838f505499dec,65af55ec91bb652b9495baa9,2024-01-23_08h01.08.883,bars,2023.2.3,MacIntel,59.88023952,657b66ea316d21385b68909f,,,,,,,,,,,759.2134,760.2028,,,760.7043,760.9543,,98,98,,,,,,,,,,,,,,,,bars/005.png,bars/mask006.png,,,,,,,,,,,,0,2,,,,,,,4,6,4,6,,,,,,,,,,,760.2029,760.7042,760.9544,767.0372,space,6.07,,767.0372,88,42,768.0381,768.0381,772.1373,space,4.0682,,0,14,14,14,1,10,140,,,,,,,,
,,60f2c5a1a74838f505499dec,65af55ec91bb652b9495baa9,2024-01-23_08h01.08.883,bars,2023.2.3,MacIntel,59.88023952,657b66ea316d21385b68909f,,,,,,,,,,,772.1502,773.154,,,773.638,773.8847,,141,141,,,,,,,,,,,,,,,,bars/010.png,bars/mask006.png,,,,,,,,,,,,1,1,,,,,,,6,4,5,3,,,,,,,,,,,773.1541,773.638,773.8848,781.0716,space,7.1696,,781.0717,24,86,782.071,782.0711,787.1382,space,5.0434,,0,15,15,15,1,165,55,,,,,,,,
,,60f2c5a1a74838f505499dec,65af55ec91bb652b9495baa9,2024-01-23_08h01.08.883,bars,2023.2.3,MacIntel,59.88023952,657b66ea316d21385b68909f,,,,,,,,,,,787.1518,788.155,,,788.6519,788.8889,,164,164,,,,,,,,,,,,,,,,bars/016.png,bars/mask003.png,,,,,,,,,,,,3,2,,,,,,,4,2,3,3,,,,,,,,,,,788.1551,788.6519,788.8891,797.9563,space,9.0549,,797.9564,56,1,798.9558,798.9559,805.2053,space,6.2182,,0,16,16,16,1,40,165,,,,,,,,
,,60f2c5a1a74838f505499dec,65af55ec91bb652b9495baa9,2024-01-23_08h01.08.883,bars,2023.2.3,MacIntel,59.88023952,657b66ea316d21385b68909f,,,,,,,,,,,805.2179,806.2219,,,806.7218,806.9559,,164,164,,,,,,,,,,,,,,,,bars/002.png,bars/mask002.png,,,,,,,,,,,,0,1,,,,,,,2,4,2,4,,,,,,,,,,,806.2219,806.7216,806.9559,815.0711,space,8.0996,,815.0711,34,79,816.0728,816.0729,822.2716,space,6.1717,,0,17,17,17,1,130,85,,,,,,,,
,,60f2c5a1a74838f505499dec,65af55ec91bb652b9495baa9,2024-01-23_08h01.08.883,bars,2023.2.3,MacIntel,59.88023952,657b66ea316d21385b68909f,,,,,,,,,,,822.2848,823.2731,,,823.7723,824.0226,,82,82,,,,,,,,,,,,,,,,bars/016.png,bars/mask004.png,,,,,,,,,,,,0,1,,,,,,,0,2,0,2,,,,,,,,,,,823.2732,823.7722,824.0226,835.5375,space,11.5052,,835.5376,42,83,836.537,836.5372,843.6874,space,7.1217,,0,18,18,18,1,40,165,,,,,,,,
,,60f2c5a1a74838f505499dec,65af55ec91bb652b9495baa9,2024-01-23_08h01.08.883,bars,2023.2.3,MacIntel,59.88023952,657b66ea316d21385b68909f,,,,,,,,,,,843.6992,844.6898,,,845.1896,845.4375,,164,164,,,,,,,,,,,,,,,,bars/011.png,bars/mask007.png,,,,,,,,,,,,0,1,,,,,,,0,4,0,4,,,,,,,,,,,844.69,845.1896,845.4376,851.308,space,5.8508,,851.3085,4,79,852.3076,852.3076,858.6897,space,6.3598,,0,19,19,19,1,160,85,,,,,,,,
,,60f2c5a1a74838f505499dec,65af55ec91bb652b9495baa9,2024-01-23_08h01.08.883,bars,2023.2.3,MacIntel,59.88023952,657b66ea316d21385b68909f,,,,,,,,,,,858.7014,859.6905,,,860.1907,860.4413,,161,161,,,,,,,,,,,,,,,,bars/047.png,bars/mask000.png,,,,,,,,,,,,0,1,,,,,,,2,2,1,3,,,,,,,,,,,859.6906,860.1907,860.4413,868.0418,space,7.5834,,868.042,34,89,869.041,869.0411,875.4916,space,6.4246,,0,20,20,20,1,15,70,,,,,,,,
,,60f2c5a1a74838f505499dec,65af55ec91bb652b9495baa9,2024-01-23_08h01.08.883,bars,2023.2.3,MacIntel,59.88023952,657b66ea316d21385b68909f,,,,,,,,,,,875.5034,876.5074,,,877.0069,877.2581,,14,194,,,,,,,,,,,,,,,,bars/032.png,bars/mask007.png,,,,,,,,,,,,4,2,,,,,,,0,4,0,5,,,,,,,,,,,876.5076,877.0069,877.2581,886.1081,space,8.836,,886.1082,69,6,887.1079,887.1079,893.176,space,6.0469,,0,21,21,21,1,125,20,,,,,,,,
,,60f2c5a1a74838f505499dec,65af55ec91bb652b9495baa9,2024-01-23_08h01.08.883,bars,2023.2.3,MacIntel,59.88023952,657b66ea316d21385b68909f,,,,,,,,,,,893.1894,894.1911,,,894.6929,894.9393,,128,128,,,,,,,,,,,,,,,,bars/001.png,bars/mask003.png,,,,,,,,,,,,2,1,,,,,,,2,2,2,2,,,,,,,,,,,894.1912,894.6924,894.9393,901.0767,space,6.1193,,901.0768,2,43,902.0748,902.0749,905.2259,space,3.1252,,0,22,22,22,1,130,85,,,,,,,,
,,60f2c5a1a74838f505499dec,65af55ec91bb652b9495baa9,2024-01-23_08h01.08.883,bars,2023.2.3,MacIntel,59.88023952,657b66ea316d21385b68909f,,,,,,,,,,,905.2372,906.2418,,,906.742,906.9925,,86,86,,,,,,,,,,,,,,,,bars/021.png,bars/mask007.png,,,,,,,,,,,,1,2,,,,,,,0,4,0,2,,,,,,,,,,,906.2419,906.7419,906.9925,913.5772,space,6.5747,,913.5773,69,16,914.5732,914.5734,919.3089,space,4.7042,,0,23,23,23,1,155,70,,,,,,,,
,,60f2c5a1a74838f505499dec,65af55ec91bb652b9495baa9,2024-01-23_08h01.08.883,bars,2023.2.3,MacIntel,59.88023952,657b66ea316d21385b68909f,,,,,,,,,,,919.3222,920.3096,,,920.8105,921.0604,,69,69,,,,,,,,,,,,,,,,bars/014.png,bars/mask002.png,,,,,,,,,,,,1,1,,,,,,,2,2,2,1,,,,,,,,,,,920.3097,920.8104,921.0605,929.2606,space,8.1837,,929.2607,11,69,930.2607,930.2607,939.1265,space,8.8355,,0,24,24,24,1,80,0,,,,,,,,
,,60f2c5a1a74838f505499dec,65af55ec91bb652b9495baa9,2024-01-23_08h01.08.883,bars,2023.2.3,MacIntel,59.88023952,657b66ea316d21385b68909f,,,,,,,,,,,939.1403,940.1277,,,940.6271,940.8772,,78,258,,,,,,,,,,,,,,,,bars/010.png,bars/mask001.png,,,,,,,,,,,,1,2,,,,,,,4,4,3,5,,,,,,,,,,,940.1278,940.6269,940.8773,952.7749,space,11.8819,,952.7751,87,23,953.7747,953.7747,959.3596,space,5.552,,0,25,25,25,1,165,55,,,,,,,,
,,60f2c5a1a74838f505499dec,65af55ec91bb652b9495baa9,2024-01-23_08h01.08.883,bars,2023.2.3,MacIntel,59.88023952,657b66ea316d21385b68909f,,,,,,,,,,,959.3726,960.3768,,,960.8763,961.1098,,58,58,,,,,,,,,,,,,,,,bars/036.png,bars/mask002.png,,,,,,,,,,,,0,2,,,,,,,6,2,6,3,,,,,,,,,,,960.3769,960.8762,961.1098,968.7092,space,7.5848,,968.7092,87,38,969.7085,969.7085,974.0612,space,4.3267,,0,26,26,26,1,145,20,,,,,,,,
,,60f2c5a1a74838f505499dec,65af55ec91bb652b9495baa9,2024-01-23_08h01.08.883,bars,2023.2.3,MacIntel,59.88023952,657b66ea316d21385b68909f,,,,,,,,,,,974.074,975.0788,,,975.5755,975.8254,,148,148,,,,,,,,,,,,,,,,bars/035.png,bars/mask005.png,,,,,,,,,,,,1,1,,,,,,,8,4,7,4,,,,,,,,,,,975.0789,975.5754,975.8255,986.3424,space,10.5031,,986.3424,27,88,987.3439,987.344,990.7105,space,3.3346,,0,27,27,27,1,175,60,,,,,,,,
,,60f2c5a1a74838f505499dec,65af55ec91bb652b9495baa9,2024-01-23_08h01.08.883,bars,2023.2.3,MacIntel,59.88023952,657b66ea316d21385b68909f,,,,,,,,,,,990.7109,991.7093,,,992.2112,992.4604,,172,172,,,,,,,,,,,,,,,,bars/027.png,bars/mask008.png,,,,,,,,,,,,0,2,,,,,,,10,6,10,5,,,,,,,,,,,991.7095,992.2112,992.4605,1000.0967,space,7.6256,,1000.0968,62,58,1001.0939,1001.094,1014.0782,space,12.9522,,0,28,28,28,1,110,50,,,,,,,,
,,60f2c5a1a74838f505499dec,65af55ec91bb652b9495baa9,2024-01-23_08h01.08.883,bars,2023.2.3,MacIntel,59.88023952,657b66ea316d21385b68909f,,,,,,,,,,,1014.0916,1015.0935,,,1015.5952,1015.8447,,50,50,,,,,,,,,,,,,,,,bars/031.png,bars/mask000.png,,,,,,,,,,,,2,2,,,,,,,10,4,10,4,,,,,,,,,,,1015.0936,1015.5951,1015.8448,1022.6612,space,6.8021,,1022.6612,70,15,1023.6603,1023.6604,1028.1806,space,4.4905,,0,29,29,29,1,120,35,,,,,,,,
,,60f2c5a1a74838f505499dec,65af55ec91bb652b9495baa9,2024-01-23_08h01.08.883,bars,2023.2.3,MacIntel,59.88023952,657b66ea316d21385b68909f,,,,,,,,,,,1028.1927,1029.1941,,,1029.6957,1029.9441,,35,35,,,,,,,,,,,,,,,,bars/013.png,bars/mask008.png,,,,,,,,,,,,1,2,,,,,,,8,6,7,5,,,,,,,,,,,1029.1941,1029.6956,1029.9442,1037.212,space,7.2514,,1037.2121,40,25,1038.2121,1038.2122,1053.1645,space,14.9274,,0,30,30,30,1,75,10,,,,,,,,
,,60f2c5a1a74838f505499dec,65af55ec91bb652b9495baa9,2024-01-23_08h01.08.883,bars,2023.2.3,MacIntel,59.88023952,657b66ea316d21385b68909f,,,,,,,,,,,1053.1781,1054.1815,,,1054.6794,1054.9319,,39,39,,,,,,,,,,,,,,,,bars/039.png,bars/mask001.png,,,,,,,,,,,,0,1,,,,,,,6,8,6,10,,,,,,,,,,,1054.1815,1054.6794,1054.9319,1064.0135,space,9.0653,,1064.0137,44,66,1065.0125,1065.0126,1070.7663,space,5.7205,,0,31,31,31,1,175,105,,,,,,,,
,,60f2c5a1a74838f505499dec,65af55ec91bb652b9495baa9,2024-01-23_08h01.08.883,bars,2023.2.3,MacIntel,59.88023952,657b66ea316d21385b68909f,,,,,,,,,,,1070.7776,1071.7807,,,1072.281,1072.5302,,175,175,,,,,,,,,,,,,,,,bars/008.png,bars/mask002.png,,,,,,,,,,,,8,2,,,,,,,4,10,4,10,,,,,,,,,,,1071.7808,1072.2809,1072.5302,1081.3306,space,8.7886,,1081.3307,65,5,1082.3303,1082.3304,1087.6492,space,5.2867,,0,32,32,32,1,110,0,,,,,,,,
,,60f2c5a1a74838f505499dec,65af55ec91bb652b9495baa9,2024-01-23_08h01.08.883,bars,2023.2.3,MacIntel,59.88023952,657b66ea316d21385b68909f,,,,,,,,,,,1087.6625,1088.665,,,1089.1651,1089.4129,,177,-3,,,,,,,,,,,,,,,,bars/019.png,bars/mask007.png,,,,,,,,,,,,0,1,,,,,,,2,10,2,9,,,,,,,,,,,1088.6651,1089.1651,1089.413,1097.5296,space,8.1039,,1097.5297,48,72,1098.5307,1098.5307,1106.0482,space,7.4852,,0,33,33,33,1,45,105,,,,,,,,
,,60f2c5a1a74838f505499dec,65af55ec91bb652b9495baa9,2024-01-23_08h01.08.883,bars,2023.2.3,MacIntel,59.88023952,657b66ea316d21385b68909f,,,,,,,,,,,1106.06,1107.0479,,,1107.5471,1107.7981,,43,43,,,,,,,,,,,,,,,,bars/045.png,bars/mask005.png,,,,,,,,,,,,0,2,,,,,,,0,8,1,7,,,,,,,,,,,1107.0479,1107.547,1107.7983,1109.4833,space,1.6746,,1109.4834,57,33,1110.4819,1110.482,1112.2826,space,1.7796,,0,34,34,34,1,100,10,,,,,,,,
,,60f2c5a1a74838f505499dec,65af55ec91bb652b9495baa9,2024-01-23_08h01.08.883,bars,2023.2.3,MacIntel,59.88023952,657b66ea316d21385b68909f,,,,,,,,,,,1112.2831,1113.2841,,,1113.7806,1114.0317,,148,-32,,,,,,,,,,,,,,,,bars/035.png,bars/mask009.png,,,,,,,,,,,,0,1,,,,,,,0,10,0,9,,,,,,,,,,,1113.2842,1113.7805,1114.0318,1129.8334,space,15.7838,,1129.834,27,88,1130.8311,1130.8312,1154.9685,space,24.1053,,0,35,35,35,1,175,60,,,,,,,,
,,60f2c5a1a74838f505499dec,65af55ec91bb652b9495baa9,2024-01-23_08h01.08.883,bars,2023.2.3,MacIntel,59.88023952,657b66ea316d21385b68909f,,,,,,,,,,,1154.9803,1155.9842,,,1156.4832,1156.7345,,175,175,,,,,,,,,,,,,,,,bars/033.png,bars/mask008.png,,,,,,,,,,,,2,2,,,,,,,2,8,4,7,,,,,,,,,,,1155.9842,1156.4832,1156.7347,1163.5838,space,6.8347,,1163.5838,30,20,1164.5832,1164.5833,1169.0996,space,4.4868,,0,36,36,36,1,25,155,,,,,,,,
,,60f2c5a1a74838f505499dec,65af55ec91bb652b9495baa9,2024-01-23_08h01.08.883,bars,2023.2.3,MacIntel,59.88023952,657b66ea316d21385b68909f,,,,,,,,,,,1169.1111,1170.1005,,,1170.6028,1170.85,,156,156,,,,,,,,,,,,,,,,bars/008.png,bars/mask009.png,,,,,,,,,,,,1,2,,,,,,,0,6,0,5,,,,,,,,,,,1170.1006,1170.6027,1170.8501,1174.7664,space,3.9007,,1174.7665,46,24,1175.7672,1175.7672,1183.968,space,8.1744,,0,37,37,37,1,110,0,,,,,,,,
,,60f2c5a1a74838f505499dec,65af55ec91bb652b9495baa9,2024-01-23_08h01.08.883,bars,2023.2.3,MacIntel,59.88023952,657b66ea316d21385b68909f,,,,,,,,,,,1183.9776,1184.9672,,,1185.469,1185.7176,,178,-2,,,,,,,,,,,,,,,,bars/001.png,bars/mask002.png,,,,,,,,,,,,0,1,,,,,,,2,8,2,8,,,,,,,,,,,1184.9672,1185.4688,1185.7178,1195.8182,space,10.0871,,1195.8182,48,87,1196.8193,1196.8194,1202.3204,space,5.4756,,0,38,38,38,1,130,85,,,,,,,,
,,60f2c5a1a74838f505499dec,65af55ec91bb652b9495baa9,2024-01-23_08h01.08.883,bars,2023.2.3,MacIntel,59.88023952,657b66ea316d21385b68909f,,,,,,,,,,,1202.3334,1203.3374,,,1203.8357,1204.0863,,131,131,,,,,,,,,,,,,,,,bars/038.png,bars/mask003.png,,,,,,,,,,,,0,1,,,,,,,4,10,5,10,,,,,,,,,,,1203.3375,1203.8357,1204.0863,1213.0034,space,8.901,,1213.0035,34,61,1214.0016,1214.0016,1218.5039,space,4.4809,,0,39,39,39,1,165,70,,,,,,,,
,,60f2c5a1a74838f505499dec,65af55ec91bb652b9495baa9,2024-01-23_08h01.08.883,bars,2023.2.3,MacIntel,59.88023952,657b66ea316d21385b68909f,,,,,,,,,,,1218.5164,1219.5186,,,1220.02,1220.2677,,166,166,,,,,,,,,,,,,,,,bars/042.png,bars/mask008.png,,,,,,,,,,,,2,1,,,,,,,6,10,5,10,,,,,,,,,,,1219.5187,1220.0199,1220.2678,1224.4849,space,4.2056,,1224.485,21,89,1225.4855,1225.4855,1229.0195,space,3.5084,,0,40,40,40,1,145,75,,,,,,,,
,,60f2c5a1a74838f505499dec,65af55ec91bb652b9495baa9,2024-01-23_08h01.08.883,bars,2023.2.3,MacIntel,59.88023952,657b66ea316d21385b68909f,,,,,,,,,,,1229.0262,1230.0194,,,1230.5195,1230.7704,,143,143,,,,,,,,,,,,,,,,bars/002.png,bars/mask008.png,,,,,,,,,,,,5,1,,,,,,,8,8,8,6,,,,,,,,,,,1230.0194,1230.5194,1230.7706,1236.1857,space,5.4029,,1236.1857,13,58,1237.1882,1237.1884,1242.0542,space,4.8382,,0,41,41,41,1,130,85,,,,,,,,
,,60f2c5a1a74838f505499dec,65af55ec91bb652b9495baa9,2024-01-23_08h01.08.883,bars,2023.2.3,MacIntel,59.88023952,657b66ea316d21385b68909f,,,,,,,,,,,1242.0658,1243.054,,,1243.5546,1243.805,,129,129,,,,,,,,,,,,,,,,bars/021.png,bars/mask001.png,,,,,,,,,,,,1,1,,,,,,,6,10,5,10,,,,,,,,,,,1243.0541,1243.5545,1243.8051,1253.838,space,10.0183,,1253.8381,26,59,1254.8388,1254.8388,1258.8203,space,3.9532,,0,42,42,42,1,155,70,,,,,,,,
,,60f2c5a1a74838f505499dec,65af55ec91bb652b9495baa9,2024-01-23_08h01.08.883,bars,2023.2.3,MacIntel,59.88023952,657b66ea316d21385b68909f,,,,,,,,,,,1258.8208,1259.8219,,,1260.3194,1260.5721,,154,154,,,,,,,,,,,,,,,,bars/019.png,bars/mask005.png,,,,,,,,,,,,0,2,,,,,,,8,10,9,10,,,,,,,,,,,1259.822,1260.3193,1260.5722,1263.371,space,2.7838,,1263.3712,71,49,1264.3724,1264.3725,1268.4869,space,4.0848,,0,43,43,43,1,45,105,,,,,,,,
,,60f2c5a1a74838f505499dec,65af55ec91bb652b9495baa9,2024-01-23_08h01.08.883,bars,2023.2.3,MacIntel,59.88023952,657b66ea316d21385b68909f,,,,,,,,,,,1268.4995,1269.489,,,1269.9893,1270.2399,,105,105,,,,,,,,,,,,,,,,bars/033.png,bars/mask001.png,,,,,,,,,,,,0,2,,,,,,,10,10,10,10,,,,,,,,,,,1269.489,1269.9892,1270.24,1280.4226,space,10.171,,1280.4226,80,50,1281.4225,1281.4228,1284.9391,space,3.4938,,0,44,44,44,1,25,155,,,,,,,,
,,60f2c5a1a74838f505499dec,65af55ec91bb652b9495baa9,2024-01-23_08h01.08.883,bars,2023.2.3,MacIntel,59.88023952,657b66ea316d21385b68909f,,,,,,,,,,,1284.9399,1285.939,,,1286.4393,1286.6884,,156,156,,,,,,,,,,,,,,,,bars/023.png,bars/mask003.png,,,,,,,,,,,,0,2,,,,,,,10,8,10,8,,,,,,,,,,,1285.9391,1286.4391,1286.6885,1292.0069,space,5.3016,,1292.007,44,41,1293.0063,1293.0063,1296.2725,space,3.2474,,0,45,45,45,1,20,115,,,,,,,,
,,60f2c5a1a74838f505499dec,65af55ec91bb652b9495baa9,2024-01-23_08h01.08.883,bars,2023.2.3,MacIntel,59.88023952,657b66ea316d21385b68909f,,,,,,,,,,,1296.2852,1297.2731,,,1297.7706,1298.0233,,119,119,,,,,,,,,,,,,,,,bars/010.png,bars/mask001.png,,,,,,,,,,,,0,1,,,,,,,10,10,10,10,,,,,,,,,,,1297.2732,1297.7705,1298.0233,1307.3741,space,9.3368,,1307.3742,46,64,1308.3742,1308.3742,1312.9737,space,4.5728,,0,46,46,46,1,165,55,,,,,,,,
,,60f2c5a1a74838f505499dec,65af55ec91bb652b9495baa9,2024-01-23_08h01.08.883,bars,2023.2.3,MacIntel,59.88023952,657b66ea316d21385b68909f,,,,,,,,,,,1312.9863,1313.9895,,,1314.4911,1314.7244,,164,-16,,,,,,,,,,,,,,,,bars/029.png,bars/mask009.png,,,,,,,,,,,,0,2,,,,,,,10,10,10,10,,,,,,,,,,,1313.9896,1314.4911,1314.7245,1320.425,space,5.6814,,1320.4252,74,61,1321.4248,1321.4249,1328.6403,space,7.186,,0,47,47,47,1,90,45,,,,,,,,
,,60f2c5a1a74838f505499dec,65af55ec91bb652b9495baa9,2024-01-23_08h01.08.883,bars,2023.2.3,MacIntel,59.88023952,657b66ea316d21385b68909f,,,,,,,,,,,1328.6543,1329.6419,,,1330.1415,1330.3895,,44,44,,,,,,,,,,,,,,,,bars/029.png,bars/mask004.png,,,,,,,,,,,,10,2,,,,,,,10,10,10,10,,,,,,,,,,,1329.642,1330.1415,1330.3896,1334.1567,space,3.751,,1334.157,46,1,1335.1586,1335.1587,1343.1063,space,7.9236,,0,48,48,48,1,90,45,,,,,,,,
,,60f2c5a1a74838f505499dec,65af55ec91bb652b9495baa9,2024-01-23_08h01.08.883,bars,2023.2.3,MacIntel,59.88023952,657b66ea316d21385b68909f,,,,,,,,,,,1343.1192,1344.1068,,,1344.609,1344.8557,,48,48,,,,,,,,,,,,,,,,bars/030.png,bars/mask009.png,,,,,,,,,,,,3,2,,,,,,,8,8,6,6,,,,,,,,,,,1344.1069,1344.6089,1344.8559,1350.1424,space,5.2765,,1350.1426,88,17,1351.1418,1351.1418,1355.7435,space,4.5737,,0,49,49,49,1,140,65,,,,,,,,
,,60f2c5a1a74838f505499dec,65af55ec91bb652b9495baa9,2024-01-23_08h01.08.883,bars,2023.2.3,MacIntel,59.88023952,657b66ea316d21385b68909f,,,,,,,,,,,,,,,,,,,,,,,,,,,,,,,,,,,,,,,,,,,,,,,,,,,,,,,,,,,,,,,,,,,,,,,,,,,,,,,,,,,,,,,,,,,,,1355.7562,1415.746,0,0,0,3,1,sequence_tables/blk041.csv
,,60f2c5a1a74838f505499dec,65af55ec91bb652b9495baa9,2024-01-23_08h01.08.883,bars,2023.2.3,MacIntel,59.88023952,657b66ea316d21385b68909f,,,,,,,,,,,1418.7816,1419.7768,,,1420.278,1420.5283,,23,23,,,,,,,,,,,,,,,,bars/040.png,bars/mask001.png,,,,,,,,,,,,2,2,,,,,,,9,4,9,4,,,,,,1415.7591,1418.7761,space,3.0069,,1419.7769,1420.278,1420.5285,1424.9451,space,4.3985,,1424.9453,63,18,1425.9438,1425.9439,1425.9564,,,,0,0,0,0,1,140,5,,,,,,,,
,,60f2c5a1a74838f505499dec,65af55ec91bb652b9495baa9,2024-01-23_08h01.08.883,bars,2023.2.3,MacIntel,59.88023952,657b66ea316d21385b68909f,,,,,,,,,,,1425.9566,1426.9617,,,1427.4588,1427.7104,,116,116,,,,,,,,,,,,,,,,bars/034.png,bars/mask005.png,,,,,,,,,,,,7,1,,,,,,,10,6,10,6,,,,,,,,,,,1426.9618,1427.4587,1427.7106,1432.3962,space,4.6655,,1432.3962,9,51,1433.3955,1433.3956,1433.4034,,,,0,1,1,1,1,125,65,,,,,,,,
,,60f2c5a1a74838f505499dec,65af55ec91bb652b9495baa9,2024-01-23_08h01.08.883,bars,2023.2.3,MacIntel,59.88023952,657b66ea316d21385b68909f,,,,,,,,,,,1433.4036,1434.3952,,,1434.8944,1435.1423,,90,90,,,,,,,,,,,,,,,,bars/000.png,bars/mask009.png,,,,,,,,,,,,0,1,,,,,,,8,4,8,5,,,,,,,,,,,1434.3953,1434.8943,1435.1425,1439.6447,space,4.4864,,1439.6447,50,55,1440.6455,1440.6458,1440.6579,,,,0,2,2,2,1,40,145,,,,,,,,
,,60f2c5a1a74838f505499dec,65af55ec91bb652b9495baa9,2024-01-23_08h01.08.883,bars,2023.2.3,MacIntel,59.88023952,657b66ea316d21385b68909f,,,,,,,,,,,1440.6581,1441.6616,,,1442.1606,1442.4109,,45,45,,,,,,,,,,,,,,,,bars/035.png,bars/mask008.png,,,,,,,,,,,,4,2,,,,,,,6,6,6,7,,,,,,,,,,,1441.6616,1442.1605,1442.4109,1445.0624,space,2.6374,,1445.0624,50,15,1446.0625,1446.0625,1446.0761,,,,0,3,3,3,1,175,60,,,,,,,,
,,60f2c5a1a74838f505499dec,65af55ec91bb652b9495baa9,2024-01-23_08h01.08.883,bars,2023.2.3,MacIntel,59.88023952,657b66ea316d21385b68909f,,,,,,,,,,,1446.0763,1447.0792,,,1447.5779,1447.829,,113,113,,,,,,,,,,,,,,,,bars/002.png,bars/mask005.png,,,,,,,,,,,,1,1,,,,,,,4,8,3,8,,,,,,,,,,,1447.0792,1447.5778,1447.8291,1453.8095,space,5.9683,,1453.8097,17,28,1454.8115,1454.8117,1454.8265,,,,0,4,4,4,1,130,85,,,,,,,,
,,60f2c5a1a74838f505499dec,65af55ec91bb652b9495baa9,2024-01-23_08h01.08.883,bars,2023.2.3,MacIntel,59.88023952,657b66ea316d21385b68909f,,,,,,,,,,,1454.8268,1455.8285,,,1456.3283,1456.5796,,148,148,,,,,,,,,,,,,,,,bars/018.png,bars/mask006.png,,,,,,,,,,,,1,1,,,,,,,2,10,1,10,,,,,,,,,,,1455.8285,1456.3283,1456.5799,1458.2127,space,1.6171,,1458.2127,2,58,1459.211,1459.2111,1459.2124,,,,0,5,5,5,1,150,90,,,,,,,,
,,60f2c5a1a74838f505499dec,65af55ec91bb652b9495baa9,2024-01-23_08h01.08.883,bars,2023.2.3,MacIntel,59.88023952,657b66ea316d21385b68909f,,,,,,,,,,,1459.2127,1460.2131,,,1460.7128,1460.9634,,135,-45,,,,,,,,,,,,,,,,bars/033.png,bars/mask008.png,,,,,,,,,,,,3,2,,,,,,,4,8,4,8,,,,,,,,,,,1460.2132,1460.7128,1460.9634,1471.077,space,10.1009,,1471.0771,70,20,1472.0802,1472.0804,1472.0945,,,,0,6,6,6,1,25,155,,,,,,,,
,,60f2c5a1a74838f505499dec,65af55ec91bb652b9495baa9,2024-01-23_08h01.08.883,bars,2023.2.3,MacIntel,59.88023952,657b66ea316d21385b68909f,,,,,,,,,,,1472.0946,1473.0968,,,1473.5951,1473.8445,,34,34,,,,,,,,,,,,,,,,bars/014.png,bars/mask001.png,,,,,,,,,,,,0,2,,,,,,,2,10,1,10,,,,,,,,,,,1473.0968,1473.595,1473.8446,1487.6965,space,13.8395,,1487.6965,46,34,1488.6938,1488.6938,1488.7061,,,,0,7,7,7,1,80,0,,,,,,,,
,,60f2c5a1a74838f505499dec,65af55ec91bb652b9495baa9,2024-01-23_08h01.08.883,bars,2023.2.3,MacIntel,59.88023952,657b66ea316d21385b68909f,,,,,,,,,,,1488.7064,1489.6962,,,1490.1973,1490.4448,,17,17,,,,,,,,,,,,,,,,bars/027.png,bars/mask005.png,,,,,,,,,,,,0,2,,,,,,,4,8,4,7,,,,,,,,,,,1489.6963,1490.1972,1490.4448,1494.1641,space,3.7087,,1494.1642,87,33,1495.1629,1495.163,1495.1766,,,,0,8,8,8,1,110,50,,,,,,,,
,,60f2c5a1a74838f505499dec,65af55ec91bb652b9495baa9,2024-01-23_08h01.08.883,bars,2023.2.3,MacIntel,59.88023952,657b66ea316d21385b68909f,,,,,,,,,,,1495.1768,1496.1807,,,1496.6777,1496.9306,,48,48,,,,,,,,,,,,,,,,bars/003.png,bars/mask006.png,,,,,,,,,,,,0,1,,,,,,,2,6,2,7,,,,,,,,,,,1496.1807,1496.6777,1496.9307,1497.7639,space,0.8173,,1497.7639,23,88,1498.7634,1498.7635,1498.7776,,,,0,9,9,9,1,25,140,,,,,,,,
,,60f2c5a1a74838f505499dec,65af55ec91bb652b9495baa9,2024-01-23_08h01.08.883,bars,2023.2.3,MacIntel,59.88023952,657b66ea316d21385b68909f,,,,,,,,,,,1498.7778,1499.7801,,,1500.2812,1500.529,,112,112,,,,,,,,,,,,,,,,bars/045.png,bars/mask006.png,,,,,,,,,,,,2,1,,,,,,,4,8,3,7,,,,,,,,,,,1499.7802,1500.2812,1500.5291,1501.6138,space,1.0747,,1501.6138,12,78,1502.6143,1502.6143,1502.6158,,,,0,10,10,10,1,100,10,,,,,,,,
,,60f2c5a1a74838f505499dec,65af55ec91bb652b9495baa9,2024-01-23_08h01.08.883,bars,2023.2.3,MacIntel,59.88023952,657b66ea316d21385b68909f,,,,,,,,,,,1502.6163,1503.6113,,,1504.1138,1504.3638,,111,111,,,,,,,,,,,,,,,,bars/032.png,bars/mask003.png,,,,,,,,,,,,1,1,,,,,,,2,6,1,7,,,,,,,,,,,1503.6113,1504.1138,1504.3639,1505.6963,space,1.3171,,1505.6964,14,89,1506.698,1506.6981,1506.6995,,,,0,11,11,11,1,125,20,,,,,,,,
,,60f2c5a1a74838f505499dec,65af55ec91bb652b9495baa9,2024-01-23_08h01.08.883,bars,2023.2.3,MacIntel,59.88023952,657b66ea316d21385b68909f,,,,,,,,,,,1506.7,1507.6964,,,1508.1981,1508.4448,,68,68,,,,,,,,,,,,,,,,bars/019.png,bars/mask001.png,,,,,,,,,,,,1,1,,,,,,,4,4,4,6,,,,,,,,,,,1507.6966,1508.1981,1508.4449,1513.7973,space,5.3359,,1513.7974,23,37,1514.7984,1514.7984,1514.8127,,,,0,12,12,12,1,45,105,,,,,,,,
,,60f2c5a1a74838f505499dec,65af55ec91bb652b9495baa9,2024-01-23_08h01.08.883,bars,2023.2.3,MacIntel,59.88023952,657b66ea316d21385b68909f,,,,,,,,,,,1514.8129,1515.8141,,,1516.3125,1516.5643,,119,119,,,,,,,,,,,,,,,,bars/002.png,bars/mask003.png,,,,,,,,,,,,1,1,,,,,,,2,6,1,6,,,,,,,,,,,1515.8142,1516.3124,1516.5643,1518.1489,space,1.5704,,1518.1489,11,34,1519.1477,1519.1478,1519.1616,,,,0,13,13,13,1,130,85,,,,,,,,
,,60f2c5a1a74838f505499dec,65af55ec91bb652b9495baa9,2024-01-23_08h01.08.883,bars,2023.2.3,MacIntel,59.88023952,657b66ea316d21385b68909f,,,,,,,,,,,1519.1618,1520.1621,,,1520.6652,1520.9143,,125,125,,,,,,,,,,,,,,,,bars/030.png,bars/mask007.png,,,,,,,,,,,,2,1,,,,,,,4,4,4,4,,,,,,,,,,,1520.1622,1520.6651,1520.9143,1522.5789,space,1.6505,,1522.579,15,60,1523.5818,1523.5819,1523.5944,,,,0,14,14,14,1,140,65,,,,,,,,
,,60f2c5a1a74838f505499dec,65af55ec91bb652b9495baa9,2024-01-23_08h01.08.883,bars,2023.2.3,MacIntel,59.88023952,657b66ea316d21385b68909f,,,,,,,,,,,1523.5946,1524.5977,,,1525.0954,1525.348,,108,108,,,,,,,,,,,,,,,,bars/039.png,bars/mask006.png,,,,,,,,,,,,3,2,,,,,,,6,2,6,3,,,,,,,,,,,1524.5978,1525.0954,1525.3481,1526.5809,space,1.2202,,1526.581,67,3,1527.5808,1527.5809,1527.5839,,,,0,15,15,15,1,175,105,,,,,,,,
,,60f2c5a1a74838f505499dec,65af55ec91bb652b9495baa9,2024-01-23_08h01.08.883,bars,2023.2.3,MacIntel,59.88023952,657b66ea316d21385b68909f,,,,,,,,,,,1527.5843,1528.5812,,,1529.0816,1529.3296,,80,80,,,,,,,,,,,,,,,,bars/002.png,bars/mask004.png,,,,,,,,,,,,0,2,,,,,,,8,0,8,0,,,,,,,,,,,1528.5814,1529.0814,1529.3297,1531.1317,space,1.7905,,1531.1318,50,5,1532.1323,1532.1324,1532.1339,,,,0,16,16,16,1,130,85,,,,,,,,
,,60f2c5a1a74838f505499dec,65af55ec91bb652b9495baa9,2024-01-23_08h01.08.883,bars,2023.2.3,MacIntel,59.88023952,657b66ea316d21385b68909f,,,,,,,,,,,1532.1344,1533.1312,,,1533.6324,1533.8819,,151,151,,,,,,,,,,,,,,,,bars/008.png,bars/mask002.png,,,,,,,,,,,,0,2,,,,,,,6,2,6,3,,,,,,,,,,,1533.1313,1533.6324,1533.8819,1535.0145,space,1.117,,1535.0147,41,29,1536.0146,1536.0147,1536.0164,,,,0,17,17,17,1,110,0,,,,,,,,
,,60f2c5a1a74838f505499dec,65af55ec91bb652b9495baa9,2024-01-23_08h01.08.883,bars,2023.2.3,MacIntel,59.88023952,657b66ea316d21385b68909f,,,,,,,,,,,1536.0167,1537.0145,,,1537.5159,1537.7631,,45,45,,,,,,,,,,,,,,,,bars/018.png,bars/mask007.png,,,,,,,,,,,,0,2,,,,,,,4,4,1,4,,,,,,,,,,,1537.0145,1537.5159,1537.7632,1539.7121,space,1.9345,,1539.7122,75,45,1540.7157,1540.7158,1540.7172,,,,0,18,18,18,1,150,90,,,,,,,,
,,60f2c5a1a74838f505499dec,65af55ec91bb652b9495baa9,2024-01-23_08h01.08.883,bars,2023.2.3,MacIntel,59.88023952,657b66ea316d21385b68909f,,,,,,,,,,,1540.7177,1541.7162,,,1542.2162,1542.4653,,160,160,,,,,,,,,,,,,,,,bars/037.png,bars/mask009.png,,,,,,,,,,,,2,1,,,,,,,2,2,3,3,,,,,,,,,,,1541.7162,1542.2161,1542.4654,1543.5141,space,1.0339,,1543.5141,10,55,1544.5155,1544.5156,1544.5184,,,,0,19,19,19,1,150,105,,,,,,,,
,,60f2c5a1a74838f505499dec,65af55ec91bb652b9495baa9,2024-01-23_08h01.08.883,bars,2023.2.3,MacIntel,59.88023952,657b66ea316d21385b68909f,,,,,,,,,,,1544.5188,1545.5161,,,1546.0129,1546.2628,,170,170,,,,,,,,,,,,,,,,bars/049.png,bars/mask006.png,,,,,,,,,,,,1,1,,,,,,,0,4,1,3,,,,,,,,,,,1545.5162,1546.0128,1546.2629,1547.1821,space,0.9028,,1547.1822,10,55,1548.1812,1548.1813,1548.1826,,,,0,20,20,20,1,160,115,,,,,,,,
,,60f2c5a1a74838f505499dec,65af55ec91bb652b9495baa9,2024-01-23_08h01.08.883,bars,2023.2.3,MacIntel,59.88023952,657b66ea316d21385b68909f,,,,,,,,,,,1548.1829,1549.1796,,,1549.6797,1549.9309,,139,139,,,,,,,,,,,,,,,,bars/036.png,bars/mask009.png,,,,,,,,,,,,1,1,,,,,,,0,2,1,4,,,,,,,,,,,1549.1798,1549.6797,1549.931,1561.5985,space,11.6514,,1561.5986,6,61,1562.5994,1562.5995,1562.6135,,,,0,21,21,21,1,145,20,,,,,,,,
,,60f2c5a1a74838f505499dec,65af55ec91bb652b9495baa9,2024-01-23_08h01.08.883,bars,2023.2.3,MacIntel,59.88023952,657b66ea316d21385b68909f,,,,,,,,,,,1562.6137,1563.6136,,,1564.1135,1564.3629,,140,140,,,,,,,,,,,,,,,,bars/049.png,bars/mask004.png,,,,,,,,,,,,1,1,,,,,,,2,0,3,1,,,,,,,,,,,1563.6136,1564.1135,1564.363,1565.4499,space,1.0717,,1565.4499,20,25,1566.4488,1566.4488,1566.4501,,,,0,22,22,22,1,160,115,,,,,,,,
,,60f2c5a1a74838f505499dec,65af55ec91bb652b9495baa9,2024-01-23_08h01.08.883,bars,2023.2.3,MacIntel,59.88023952,657b66ea316d21385b68909f,,,,,,,,,,,1566.4506,1567.449,,,1567.9491,1568.2002,,145,145,,,,,,,,,,,,,,,,bars/019.png,bars/mask006.png,,,,,,,,,,,,0,2,,,,,,,0,2,0,4,,,,,,,,,,,1567.4491,1567.9491,1568.2003,1571.6143,space,3.4027,,1571.6144,80,40,1572.6158,1572.6158,1572.6304,,,,0,23,23,23,1,45,105,,,,,,,,
,,60f2c5a1a74838f505499dec,65af55ec91bb652b9495baa9,2024-01-23_08h01.08.883,bars,2023.2.3,MacIntel,59.88023952,657b66ea316d21385b68909f,,,,,,,,,,,1572.6306,1573.633,,,1574.133,1574.381,,110,110,,,,,,,,,,,,,,,,bars/027.png,bars/mask005.png,,,,,,,,,,,,2,1,,,,,,,2,4,2,4,,,,,,,,,,,1573.6331,1574.1329,1574.381,1577.9808,space,3.5848,,1577.9809,0,60,1578.9825,1578.9825,1578.9881,,,,0,24,24,24,1,110,50,,,,,,,,
,,60f2c5a1a74838f505499dec,65af55ec91bb652b9495baa9,2024-01-23_08h01.08.883,bars,2023.2.3,MacIntel,59.88023952,657b66ea316d21385b68909f,,,,,,,,,,,1578.9882,1579.9837,,,1580.4838,1580.7336,,135,135,,,,,,,,,,,,,,,,bars/026.png,bars/mask008.png,,,,,,,,,,,,0,2,,,,,,,0,6,0,4,,,,,,,,,,,1579.9837,1580.4838,1580.7336,1586.1845,space,5.4345,,1586.1846,80,50,1587.181,1587.1811,1587.1961,,,,0,25,25,25,1,35,85,,,,,,,,
,,60f2c5a1a74838f505499dec,65af55ec91bb652b9495baa9,2024-01-23_08h01.08.883,bars,2023.2.3,MacIntel,59.88023952,657b66ea316d21385b68909f,,,,,,,,,,,1587.1963,1588.2007,,,1588.6997,1588.9481,,30,30,,,,,,,,,,,,,,,,bars/024.png,bars/mask003.png,,,,,,,,,,,,0,2,,,,,,,0,8,1,8,,,,,,,,,,,1588.2008,1588.6996,1588.9481,1589.6164,space,0.6517,,1589.6166,90,40,1590.6188,1590.6189,1590.6203,,,,0,26,26,26,1,120,170,,,,,,,,
,,60f2c5a1a74838f505499dec,65af55ec91bb652b9495baa9,2024-01-23_08h01.08.883,bars,2023.2.3,MacIntel,59.88023952,657b66ea316d21385b68909f,,,,,,,,,,,1590.6207,1591.6165,,,1592.1165,1592.3647,,8,8,,,,,,,,,,,,,,,,bars/044.png,bars/mask009.png,,,,,,,,,,,,0,2,,,,,,,0,6,0,8,,,,,,,,,,,1591.6166,1592.1165,1592.3647,1594.3679,space,1.9899,,1594.3679,67,33,1595.368,1595.368,1595.3809,,,,0,27,27,27,1,75,155,,,,,,,,
,,60f2c5a1a74838f505499dec,65af55ec91bb652b9495baa9,2024-01-23_08h01.08.883,bars,2023.2.3,MacIntel,59.88023952,657b66ea316d21385b68909f,,,,,,,,,,,1595.3811,1596.3823,,,1596.8815,1597.1347,,167,-13,,,,,,,,,,,,,,,,bars/045.png,bars/mask009.png,,,,,,,,,,,,1,2,,,,,,,2,4,1,3,,,,,,,,,,,1596.3823,1596.8814,1597.1348,1599.534,space,2.3907,,1599.5341,67,23,1600.5335,1600.5336,1600.5349,,,,0,28,28,28,1,100,10,,,,,,,,
,,60f2c5a1a74838f505499dec,65af55ec91bb652b9495baa9,2024-01-23_08h01.08.883,bars,2023.2.3,MacIntel,59.88023952,657b66ea316d21385b68909f,,,,,,,,,,,1600.5354,1601.5345,,,1602.0346,1602.2845,,25,25,,,,,,,,,,,,,,,,bars/005.png,bars/mask009.png,,,,,,,,,,,,2,1,,,,,,,4,6,3,4,,,,,,,,,,,1601.5346,1602.0344,1602.2846,1603.8652,space,1.5665,,1603.8652,15,65,1604.8685,1604.8685,1604.8829,,,,0,29,29,29,1,10,140,,,,,,,,
,,60f2c5a1a74838f505499dec,65af55ec91bb652b9495baa9,2024-01-23_08h01.08.883,bars,2023.2.3,MacIntel,59.88023952,657b66ea316d21385b68909f,,,,,,,,,,,1604.8831,1605.883,,,1606.3819,1606.6356,,30,30,,,,,,,,,,,,,,,,bars/009.png,bars/mask002.png,,,,,,,,,,,,1,1,,,,,,,2,4,1,5,,,,,,,,,,,1605.883,1606.3818,1606.6357,1607.734,space,1.0801,,1607.7341,15,75,1608.7318,1608.7318,1608.7461,,,,0,30,30,30,1,15,105,,,,,,,,
,,60f2c5a1a74838f505499dec,65af55ec91bb652b9495baa9,2024-01-23_08h01.08.883,bars,2023.2.3,MacIntel,59.88023952,657b66ea316d21385b68909f,,,,,,,,,,,1608.7463,1609.7341,,,1610.2351,1610.4821,,130,130,,,,,,,,,,,,,,,,bars/038.png,bars/mask005.png,,,,,,,,,,,,0,1,,,,,,,4,6,4,6,,,,,,,,,,,1609.7342,1610.2349,1610.4823,1611.886,space,1.3925,,1611.886,35,60,1612.8868,1612.8869,1612.8993,,,,0,31,31,31,1,165,70,,,,,,,,
,,60f2c5a1a74838f505499dec,65af55ec91bb652b9495baa9,2024-01-23_08h01.08.883,bars,2023.2.3,MacIntel,59.88023952,657b66ea316d21385b68909f,,,,,,,,,,,1612.8996,1613.9021,,,1614.4007,1614.6518,,129,129,,,,,,,,,,,,,,,,bars/031.png,bars/mask001.png,,,,,,,,,,,,4,1,,,,,,,6,4,5,5,,,,,,,,,,,1613.9022,1614.4006,1614.652,1616.1175,space,1.4508,,1616.1175,9,86,1617.118,1617.1182,1617.1304,,,,0,32,32,32,1,120,35,,,,,,,,
,,60f2c5a1a74838f505499dec,65af55ec91bb652b9495baa9,2024-01-23_08h01.08.883,bars,2023.2.3,MacIntel,59.88023952,657b66ea316d21385b68909f,,,,,,,,,,,1617.1307,1618.1334,,,1618.6321,1618.8822,,107,107,,,,,,,,,,,,,,,,bars/012.png,bars/mask003.png,,,,,,,,,,,,4,1,,,,,,,8,6,9,8,,,,,,,,,,,1618.1335,1618.6321,1618.8822,1620.3841,space,1.4859,,1620.3841,17,88,1621.3856,1621.3856,1621.3982,,,,0,33,33,33,1,90,15,,,,,,,,
,,60f2c5a1a74838f505499dec,65af55ec91bb652b9495baa9,2024-01-23_08h01.08.883,bars,2023.2.3,MacIntel,59.88023952,657b66ea316d21385b68909f,,,,,,,,,,,1621.3985,1622.4002,,,1622.9024,1623.1525,,144,144,,,,,,,,,,,,,,,,bars/036.png,bars/mask009.png,,,,,,,,,,,,6,1,,,,,,,6,8,6,7,,,,,,,,,,,1622.4003,1622.9023,1623.1525,1624.5171,space,1.3498,,1624.5172,1,56,1625.5191,1625.5191,1625.5206,,,,0,34,34,34,1,145,20,,,,,,,,
,,60f2c5a1a74838f505499dec,65af55ec91bb652b9495baa9,2024-01-23_08h01.08.883,bars,2023.2.3,MacIntel,59.88023952,657b66ea316d21385b68909f,,,,,,,,,,,1625.521,1626.5183,,,1627.0191,1627.2681,,117,117,,,,,,,,,,,,,,,,bars/045.png,bars/mask003.png,,,,,,,,,,,,2,1,,,,,,,4,10,5,10,,,,,,,,,,,1626.5184,1627.019,1627.2683,1628.3528,space,1.0675,,1628.3529,17,73,1629.3511,1629.3512,1629.3525,,,,0,35,35,35,1,100,10,,,,,,,,
,,60f2c5a1a74838f505499dec,65af55ec91bb652b9495baa9,2024-01-23_08h01.08.883,bars,2023.2.3,MacIntel,59.88023952,657b66ea316d21385b68909f,,,,,,,,,,,1629.353,1630.3509,,,1630.8531,1631.1022,,150,150,,,,,,,,,,,,,,,,bars/043.png,bars/mask004.png,,,,,,,,,,,,3,2,,,,,,,6,10,6,10,,,,,,,,,,,1630.351,1630.853,1631.1022,1632.3362,space,1.2203,,1632.3362,60,20,1633.3357,1633.3358,1633.3383,,,,0,36,36,36,1,30,130,,,,,,,,
,,60f2c5a1a74838f505499dec,65af55ec91bb652b9495baa9,2024-01-23_08h01.08.883,bars,2023.2.3,MacIntel,59.88023952,657b66ea316d21385b68909f,,,,,,,,,,,1633.3385,1634.335,,,1634.8352,1635.0867,,20,20,,,,,,,,,,,,,,,,bars/045.png,bars/mask009.png,,,,,,,,,,,,5,2,,,,,,,8,8,8,7,,,,,,,,,,,1634.335,1634.8352,1635.0868,1636.4029,space,1.3002,,1636.4029,80,10,1637.4019,1637.402,1637.4036,,,,0,37,37,37,1,100,10,,,,,,,,
,,60f2c5a1a74838f505499dec,65af55ec91bb652b9495baa9,2024-01-23_08h01.08.883,bars,2023.2.3,MacIntel,59.88023952,657b66ea316d21385b68909f,,,,,,,,,,,1637.4039,1638.4015,,,1638.9017,1639.1522,,165,165,,,,,,,,,,,,,,,,bars/029.png,bars/mask001.png,,,,,,,,,,,,0,2,,,,,,,10,10,10,10,,,,,,,,,,,1638.4016,1638.9017,1639.1522,1640.2357,space,1.0677,,1640.2358,75,60,1641.2365,1641.2366,1641.238,,,,0,38,38,38,1,90,45,,,,,,,,
,,60f2c5a1a74838f505499dec,65af55ec91bb652b9495baa9,2024-01-23_08h01.08.883,bars,2023.2.3,MacIntel,59.88023952,657b66ea316d21385b68909f,,,,,,,,,,,1641.2384,1642.2364,,,1642.7365,1642.9862,,135,135,,,,,,,,,,,,,,,,bars/038.png,bars/mask000.png,,,,,,,,,,,,0,1,,,,,,,8,10,7,10,,,,,,,,,,,1642.2365,1642.7364,1642.9863,1643.784,space,0.7839,,1643.784,30,65,1644.7842,1644.7843,1644.787,,,,0,39,39,39,1,165,70,,,,,,,,
,,60f2c5a1a74838f505499dec,65af55ec91bb652b9495baa9,2024-01-23_08h01.08.883,bars,2023.2.3,MacIntel,59.88023952,657b66ea316d21385b68909f,,,,,,,,,,,1644.7873,1645.7858,,,1646.286,1646.5331,,129,129,,,,,,,,,,,,,,,,bars/011.png,bars/mask005.png,,,,,,,,,,,,0,1,,,,,,,6,10,8,9,,,,,,,,,,,1645.7859,1646.286,1646.5332,1647.2024,space,0.6527,,1647.2024,31,44,1648.1999,1648.1999,1648.2012,,,,0,40,40,40,1,160,85,,,,,,,,
,,60f2c5a1a74838f505499dec,65af55ec91bb652b9495baa9,2024-01-23_08h01.08.883,bars,2023.2.3,MacIntel,59.88023952,657b66ea316d21385b68909f,,,,,,,,,,,1648.2017,1649.2015,,,1649.7018,1649.9515,,95,95,,,,,,,,,,,,,,,,bars/014.png,bars/mask007.png,,,,,,,,,,,,4,1,,,,,,,8,10,8,10,,,,,,,,,,,1649.2016,1649.7018,1649.9515,1650.5195,space,0.5509,,1650.5196,15,85,1651.5201,1651.5201,1651.5217,,,,0,41,41,41,1,80,0,,,,,,,,
,,60f2c5a1a74838f505499dec,65af55ec91bb652b9495baa9,2024-01-23_08h01.08.883,bars,2023.2.3,MacIntel,59.88023952,657b66ea316d21385b68909f,,,,,,,,,,,1651.5221,1652.5167,,,1653.0204,1653.2698,,118,118,,,,,,,,,,,,,,,,bars/047.png,bars/mask002.png,,,,,,,,,,,,0,2,,,,,,,6,8,4,7,,,,,,,,,,,1652.5168,1653.0203,1653.2699,1654.1013,space,0.8167,,1654.1014,77,48,1655.1029,1655.103,1655.1057,,,,0,42,42,42,1,15,70,,,,,,,,
,,60f2c5a1a74838f505499dec,65af55ec91bb652b9495baa9,2024-01-23_08h01.08.883,bars,2023.2.3,MacIntel,59.88023952,657b66ea316d21385b68909f,,,,,,,,,,,1655.1061,1656.103,,,1656.6031,1656.8534,,166,166,,,,,,,,,,,,,,,,bars/019.png,bars/mask006.png,,,,,,,,,,,,0,1,,,,,,,8,6,10,7,,,,,,,,,,,1656.103,1656.6029,1656.8534,1657.9861,space,1.1229,,1657.9862,59,61,1658.9836,1658.9836,1658.9962,,,,0,43,43,43,1,45,105,,,,,,,,
,,60f2c5a1a74838f505499dec,65af55ec91bb652b9495baa9,2024-01-23_08h01.08.883,bars,2023.2.3,MacIntel,59.88023952,657b66ea316d21385b68909f,,,,,,,,,,,1658.9963,1660.0027,,,1660.5033,1660.7537,,59,59,,,,,,,,,,,,,,,,bars/005.png,bars/mask001.png,,,,,,,,,,,,0,1,,,,,,,10,4,10,3,,,,,,,,,,,1660.0028,1660.5032,1660.7538,1707.8691,space,47.1025,,1707.8693,49,81,1708.8721,1708.8721,1708.8853,,,,0,44,44,44,1,10,140,,,,,,,,
,,60f2c5a1a74838f505499dec,65af55ec91bb652b9495baa9,2024-01-23_08h01.08.883,bars,2023.2.3,MacIntel,59.88023952,657b66ea316d21385b68909f,,,,,,,,,,,1708.8855,1709.8876,,,1710.3883,1710.6369,,116,116,,,,,,,,,,,,,,,,bars/003.png,bars/mask003.png,,,,,,,,,,,,0,2,,,,,,,10,2,10,1,,,,,,,,,,,1709.8876,1710.3883,1710.637,1711.6052,space,0.9529,,1711.6053,89,24,1712.6053,1712.6054,1712.6084,,,,0,45,45,45,1,25,140,,,,,,,,
,,60f2c5a1a74838f505499dec,65af55ec91bb652b9495baa9,2024-01-23_08h01.08.883,bars,2023.2.3,MacIntel,59.88023952,657b66ea316d21385b68909f,,,,,,,,,,,1712.6087,1713.6047,,,1714.1023,1714.3554,,166,166,,,,,,,,,,,,,,,,bars/021.png,bars/mask005.png,,,,,,,,,,,,6,1,,,,,,,8,0,10,0,,,,,,,,,,,1713.6047,1714.1022,1714.3555,1717.3726,space,3.0003,,1717.3727,11,84,1718.3691,1718.3692,1718.384,,,,0,46,46,46,1,155,70,,,,,,,,
,,60f2c5a1a74838f505499dec,65af55ec91bb652b9495baa9,2024-01-23_08h01.08.883,bars,2023.2.3,MacIntel,59.88023952,657b66ea316d21385b68909f,,,,,,,,,,,1718.3842,1719.3856,,,1719.8876,1720.1378,,71,71,,,,,,,,,,,,,,,,bars/021.png,bars/mask005.png,,,,,,,,,,,,0,2,,,,,,,10,0,10,0,,,,,,,,,,,1719.3857,1719.8876,1720.1378,1723.0366,space,2.8819,,1723.0367,84,1,1724.037,1724.0371,1724.0447,,,,0,47,47,47,1,155,70,,,,,,,,
,,60f2c5a1a74838f505499dec,65af55ec91bb652b9495baa9,2024-01-23_08h01.08.883,bars,2023.2.3,MacIntel,59.88023952,657b66ea316d21385b68909f,,,,,,,,,,,1724.0449,1725.0397,,,1725.5389,1725.7897,,52,52,,,,,,,,,,,,,,,,bars/018.png,bars/mask003.png,,,,,,,,,,,,0,2,,,,,,,10,0,10,0,,,,,,,,,,,1725.0397,1725.5388,1725.7897,1736.1558,space,10.353,,1736.1558,82,38,1737.1531,1737.1531,1737.1673,,,,0,48,48,48,1,150,90,,,,,,,,
,,60f2c5a1a74838f505499dec,65af55ec91bb652b9495baa9,2024-01-23_08h01.08.883,bars,2023.2.3,MacIntel,59.88023952,657b66ea316d21385b68909f,,,,,,,,,,,1737.1676,1738.1728,,,1738.6726,1738.9196,,79,79,,,,,,,,,,,,,,,,bars/042.png,bars/mask004.png,,,,,,,,,,,,0,2,,,,,,,10,0,10,0,,,,,,,,,,,1738.1729,1738.6725,1738.9196,1739.5895,space,0.6526,,1739.5895,66,4,1740.589,1740.589,1740.5905,,,,0,49,49,49,1,145,75,,,,,,,,
,,60f2c5a1a74838f505499dec,65af55ec91bb652b9495baa9,2024-01-23_08h01.08.883,bars,2023.2.3,MacIntel,59.88023952,657b66ea316d21385b68909f,,,,,,,,,,,,,,,,,,,,,,,,,,,,,,,,,,,,,,,,,,,,,,,,,,,,,,,,,,,,,,,,,,,,,,,,,,,,,,,,,,,,,,,,,,,,,1740.5909,1800.5914,0,1,1,0,1,sequence_tables/blk018.csv
,,60f2c5a1a74838f505499dec,65af55ec91bb652b9495baa9,2024-01-23_08h01.08.883,bars,2023.2.3,MacIntel,59.88023952,657b66ea316d21385b68909f,,,,,,,,,,,1802.5309,1803.5256,,,1804.0222,1804.2746,,175,175,,,,,,,,,,,,,,,,bars/047.png,bars/mask008.png,,,,,,,,,,,,0,1,,,,,,,1,6,1,7,,,,,,1800.6043,1802.5251,space,1.9072,,1803.5256,1804.0221,1804.2747,1805.942,space,1.6501,,1805.9422,20,75,1806.9417,1806.9418,1806.9558,,,,0,0,0,0,1,15,70,,,,,,,,
,,60f2c5a1a74838f505499dec,65af55ec91bb652b9495baa9,2024-01-23_08h01.08.883,bars,2023.2.3,MacIntel,59.88023952,657b66ea316d21385b68909f,,,,,,,,,,,1806.956,1807.9584,,,1808.4566,1808.7083,,179,179,,,,,,,,,,,,,,,,bars/028.png,bars/mask009.png,,,,,,,,,,,,0,1,,,,,,,3,4,2,5,,,,,,,,,,,1807.9586,1808.4565,1808.7083,1809.5738,space,0.8482,,1809.5738,46,59,1810.5736,1810.5736,1810.5744,,,,0,1,1,1,1,45,120,,,,,,,,
,,60f2c5a1a74838f505499dec,65af55ec91bb652b9495baa9,2024-01-23_08h01.08.883,bars,2023.2.3,MacIntel,59.88023952,657b66ea316d21385b68909f,,,,,,,,,,,1810.5749,1811.5678,,,1812.0595,1812.3096,,47,47,,,,,,,,,,,,,,,,bars/031.png,bars/mask001.png,,,,,,,,,,,,3,2,,,,,,,1,6,2,5,,,,,,,,,,,1811.5679,1812.0595,1812.3097,1813.059,space,0.736,,1813.0591,73,12,1814.0582,1814.0583,1814.0619,,,,0,2,2,2,1,120,35,,,,,,,,
,,60f2c5a1a74838f505499dec,65af55ec91bb652b9495baa9,2024-01-23_08h01.08.883,bars,2023.2.3,MacIntel,59.88023952,657b66ea316d21385b68909f,,,,,,,,,,,1814.0624,1815.0596,,,1815.5585,1815.806,,70,70,,,,,,,,,,,,,,,,bars/036.png,bars/mask004.png,,,,,,,,,,,,0,2,,,,,,,3,4,3,5,,,,,,,,,,,1815.0596,1815.5585,1815.8061,1816.7252,space,0.9044,,1816.7253,75,50,1817.7249,1817.7252,1817.7264,,,,0,3,3,3,1,145,20,,,,,,,,
,,60f2c5a1a74838f505499dec,65af55ec91bb652b9495baa9,2024-01-23_08h01.08.883,bars,2023.2.3,MacIntel,59.88023952,657b66ea316d21385b68909f,,,,,,,,,,,1817.7269,1818.7258,,,1819.2257,1819.4751,,138,138,,,,,,,,,,,,,,,,bars/029.png,bars/mask003.png,,,,,,,,,,,,0,1,,,,,,,1,6,1,6,,,,,,,,,,,1818.7258,1819.2256,1819.4751,1820.1559,space,0.6709,,1820.1559,48,87,1821.1586,1821.1587,1821.1622,,,,0,4,4,4,1,90,45,,,,,,,,
,,60f2c5a1a74838f505499dec,65af55ec91bb652b9495baa9,2024-01-23_08h01.08.883,bars,2023.2.3,MacIntel,59.88023952,657b66ea316d21385b68909f,,,,,,,,,,,1821.1626,1822.1587,,,1822.6577,1822.9067,,74,74,,,,,,,,,,,,,,,,bars/021.png,bars/mask003.png,,,,,,,,,,,,3,2,,,,,,,3,4,4,4,,,,,,,,,,,1822.1588,1822.6576,1822.9067,1823.7088,space,0.788,,1823.7089,81,4,1824.7062,1824.7063,1824.7093,,,,0,5,5,5,1,155,70,,,,,,,,
,,60f2c5a1a74838f505499dec,65af55ec91bb652b9495baa9,2024-01-23_08h01.08.883,bars,2023.2.3,MacIntel,59.88023952,657b66ea316d21385b68909f,,,,,,,,,,,1824.7097,1825.7063,,,1826.2091,1826.4593,,25,25,,,,,,,,,,,,,,,,bars/032.png,bars/mask005.png,,,,,,,,,,,,5,2,,,,,,,5,6,4,6,,,,,,,,,,,1825.7064,1826.2091,1826.4593,1827.6924,space,1.2169,,1827.6926,80,5,1828.6927,1828.6928,1828.7068,,,,0,6,6,6,1,125,20,,,,,,,,
,,60f2c5a1a74838f505499dec,65af55ec91bb652b9495baa9,2024-01-23_08h01.08.883,bars,2023.2.3,MacIntel,59.88023952,657b66ea316d21385b68909f,,,,,,,,,,,1828.7071,1829.7087,,,1830.2092,1830.4564,,162,162,,,,,,,,,,,,,,,,bars/010.png,bars/mask009.png,,,,,,,,,,,,8,1,,,,,,,7,4,9,4,,,,,,,,,,,1829.7088,1830.2092,1830.4564,1831.4105,space,0.932,,1831.4106,3,73,1832.4088,1832.4089,1832.4121,,,,0,7,7,7,1,165,55,,,,,,,,
,,60f2c5a1a74838f505499dec,65af55ec91bb652b9495baa9,2024-01-23_08h01.08.883,bars,2023.2.3,MacIntel,59.88023952,657b66ea316d21385b68909f,,,,,,,,,,,1832.4124,1833.409,,,1833.909,1834.1589,,104,104,,,,,,,,,,,,,,,,bars/017.png,bars/mask008.png,,,,,,,,,,,,0,1,,,,,,,9,6,9,7,,,,,,,,,,,1833.409,1833.909,1834.1591,1835.0591,space,0.8835,,1835.0592,41,59,1836.0594,1836.0595,1836.061,,,,0,8,8,8,1,145,45,,,,,,,,
,,60f2c5a1a74838f505499dec,65af55ec91bb652b9495baa9,2024-01-23_08h01.08.883,bars,2023.2.3,MacIntel,59.88023952,657b66ea316d21385b68909f,,,,,,,,,,,1836.0614,1837.0594,,,1837.5603,1837.8089,,147,147,,,,,,,,,,,,,,,,bars/030.png,bars/mask000.png,,,,,,,,,,,,8,1,,,,,,,10,4,10,5,,,,,,,,,,,1837.0594,1837.5603,1837.8089,1844.0264,space,6.2023,,1844.0264,7,82,1845.0263,1845.0265,1845.0402,,,,0,9,9,9,1,140,65,,,,,,,,
,,60f2c5a1a74838f505499dec,65af55ec91bb652b9495baa9,2024-01-23_08h01.08.883,bars,2023.2.3,MacIntel,59.88023952,657b66ea316d21385b68909f,,,,,,,,,,,1845.0404,1846.0428,,,1846.5414,1846.7928,,148,148,,,,,,,,,,,,,,,,bars/031.png,bars/mask002.png,,,,,,,,,,,,1,1,,,,,,,8,2,9,3,,,,,,,,,,,1846.0429,1846.5413,1846.7928,1848.0098,space,1.2069,,1848.0098,28,67,1849.0094,1849.0094,1849.0211,,,,0,10,10,10,1,120,35,,,,,,,,
,,60f2c5a1a74838f505499dec,65af55ec91bb652b9495baa9,2024-01-23_08h01.08.883,bars,2023.2.3,MacIntel,59.88023952,657b66ea316d21385b68909f,,,,,,,,,,,1849.0213,1850.0105,,,1850.5099,1850.7592,,6,6,,,,,,,,,,,,,,,,bars/012.png,bars/mask007.png,,,,,,,,,,,,4,2,,,,,,,6,4,6,5,,,,,,,,,,,1850.0105,1850.5098,1850.7592,1851.7573,space,0.9843,,1851.7575,84,9,1852.7573,1852.7574,1852.7716,,,,0,11,11,11,1,90,15,,,,,,,,
,,60f2c5a1a74838f505499dec,65af55ec91bb652b9495baa9,2024-01-23_08h01.08.883,bars,2023.2.3,MacIntel,59.88023952,657b66ea316d21385b68909f,,,,,,,,,,,1852.7718,1853.761,,,1854.2574,1854.5097,,15,15,,,,,,,,,,,,,,,,bars/011.png,bars/mask000.png,,,,,,,,,,,,0,1,,,,,,,8,6,8,5,,,,,,,,,,,1853.761,1854.2572,1854.5097,1859.0745,space,4.5506,,1859.0746,35,70,1860.0741,1860.0741,1860.0868,,,,0,12,12,12,1,160,85,,,,,,,,
,,60f2c5a1a74838f505499dec,65af55ec91bb652b9495baa9,2024-01-23_08h01.08.883,bars,2023.2.3,MacIntel,59.88023952,657b66ea316d21385b68909f,,,,,,,,,,,1860.087,1861.0768,,,1861.5774,1861.8242,,35,35,,,,,,,,,,,,,,,,bars/002.png,bars/mask006.png,,,,,,,,,,,,0,2,,,,,,,6,4,5,4,,,,,,,,,,,1861.0768,1861.5773,1861.8243,1862.7428,space,0.9091,,1862.7428,85,50,1863.7445,1863.7445,1863.7471,,,,0,13,13,13,1,130,85,,,,,,,,
,,60f2c5a1a74838f505499dec,65af55ec91bb652b9495baa9,2024-01-23_08h01.08.883,bars,2023.2.3,MacIntel,59.88023952,657b66ea316d21385b68909f,,,,,,,,,,,1863.7475,1864.7411,,,1865.2442,1865.4934,,131,131,,,,,,,,,,,,,,,,bars/045.png,bars/mask004.png,,,,,,,,,,,,0,1,,,,,,,8,6,7,5,,,,,,,,,,,1864.7411,1865.244,1865.4936,1866.2078,space,0.7002,,1866.2078,31,59,1867.2108,1867.2109,1867.2138,,,,0,14,14,14,1,100,10,,,,,,,,
,,60f2c5a1a74838f505499dec,65af55ec91bb652b9495baa9,2024-01-23_08h01.08.883,bars,2023.2.3,MacIntel,59.88023952,657b66ea316d21385b68909f,,,,,,,,,,,1867.2141,1868.2109,,,1868.7103,1868.9603,,19,19,,,,,,,,,,,,,,,,bars/041.png,bars/mask008.png,,,,,,,,,,,,6,1,,,,,,,6,8,6,9,,,,,,,,,,,1868.2109,1868.7103,1868.9604,1869.7099,space,0.7344,,1869.7101,1,66,1870.7072,1870.7073,1870.7087,,,,0,15,15,15,1,20,85,,,,,,,,
,,60f2c5a1a74838f505499dec,65af55ec91bb652b9495baa9,2024-01-23_08h01.08.883,bars,2023.2.3,MacIntel,59.88023952,657b66ea316d21385b68909f,,,,,,,,,,,1870.709,1871.708,,,1872.2116,1872.458,,21,201,,,,,,,,,,,,,,,,bars/038.png,bars/mask006.png,,,,,,,,,,,,0,1,,,,,,,8,10,9,10,,,,,,,,,,,1871.708,1872.2115,1872.4581,1878.1076,space,5.6357,,1878.1077,36,49,1879.1093,1879.1095,1879.1229,,,,0,16,16,16,1,165,70,,,,,,,,
,,60f2c5a1a74838f505499dec,65af55ec91bb652b9495baa9,2024-01-23_08h01.08.883,bars,2023.2.3,MacIntel,59.88023952,657b66ea316d21385b68909f,,,,,,,,,,,1879.123,1880.1113,,,1880.6091,1880.8604,,48,48,,,,,,,,,,,,,,,,bars/012.png,bars/mask001.png,,,,,,,,,,,,0,2,,,,,,,6,10,5,8,,,,,,,,,,,1880.1113,1880.6091,1880.8604,1881.7769,space,0.9066,,1881.777,42,33,1882.7779,1882.778,1882.7916,,,,0,17,17,17,1,90,15,,,,,,,,
,,60f2c5a1a74838f505499dec,65af55ec91bb652b9495baa9,2024-01-23_08h01.08.883,bars,2023.2.3,MacIntel,59.88023952,657b66ea316d21385b68909f,,,,,,,,,,,1882.7918,1883.7946,,,1884.2941,1884.5442,,31,31,,,,,,,,,,,,,,,,bars/015.png,bars/mask009.png,,,,,,,,,,,,0,2,,,,,,,4,10,4,10,,,,,,,,,,,1883.7947,1884.2941,1884.5444,1885.1595,space,0.5987,,1885.1596,79,51,1886.1621,1886.1621,1886.163,,,,0,18,18,18,1,110,160,,,,,,,,
,,60f2c5a1a74838f505499dec,65af55ec91bb652b9495baa9,2024-01-23_08h01.08.883,bars,2023.2.3,MacIntel,59.88023952,657b66ea316d21385b68909f,,,,,,,,,,,1886.1633,1887.1617,,,1887.6607,1887.9109,,31,31,,,,,,,,,,,,,,,,bars/004.png,bars/mask007.png,,,,,,,,,,,,5,1,,,,,,,6,8,6,8,,,,,,,,,,,1887.1617,1887.6607,1887.9109,1888.6778,space,0.7498,,1888.6778,6,86,1889.6752,1889.6754,1889.6782,,,,0,19,19,19,1,25,125,,,,,,,,
,,60f2c5a1a74838f505499dec,65af55ec91bb652b9495baa9,2024-01-23_08h01.08.883,bars,2023.2.3,MacIntel,59.88023952,657b66ea316d21385b68909f,,,,,,,,,,,1889.6785,1890.6747,,,1891.177,1891.4289,,28,28,,,,,,,,,,,,,,,,bars/032.png,bars/mask002.png,,,,,,,,,,,,4,2,,,,,,,4,6,4,6,,,,,,,,,,,1890.6748,1891.1768,1891.429,1895.9286,space,4.4837,,1895.9287,83,8,1896.9282,1896.9283,1896.9365,,,,0,20,20,20,1,125,20,,,,,,,,
,,60f2c5a1a74838f505499dec,65af55ec91bb652b9495baa9,2024-01-23_08h01.08.883,bars,2023.2.3,MacIntel,59.88023952,657b66ea316d21385b68909f,,,,,,,,,,,1896.9367,1897.928,,,1898.4278,1898.6772,,145,145,,,,,,,,,,,,,,,,bars/045.png,bars/mask009.png,,,,,,,,,,,,0,2,,,,,,,2,8,3,8,,,,,,,,,,,1897.9281,1898.4276,1898.6772,1900.4592,space,1.7685,,1900.4592,45,45,1901.4622,1901.4622,1901.4751,,,,0,21,21,21,1,100,10,,,,,,,,
,,60f2c5a1a74838f505499dec,65af55ec91bb652b9495baa9,2024-01-23_08h01.08.883,bars,2023.2.3,MacIntel,59.88023952,657b66ea316d21385b68909f,,,,,,,,,,,1901.4754,1902.4781,,,1902.9793,1903.2284,,52,52,,,,,,,,,,,,,,,,bars/007.png,bars/mask000.png,,,,,,,,,,,,7,2,,,,,,,4,6,5,8,,,,,,,,,,,1902.4782,1902.9793,1903.2284,1904.0964,space,0.8484,,1904.0965,57,3,1905.0937,1905.0938,1905.095,,,,0,22,22,22,1,175,55,,,,,,,,
,,60f2c5a1a74838f505499dec,65af55ec91bb652b9495baa9,2024-01-23_08h01.08.883,bars,2023.2.3,MacIntel,59.88023952,657b66ea316d21385b68909f,,,,,,,,,,,1905.0954,1906.0946,,,1906.5953,1906.8424,,105,105,,,,,,,,,,,,,,,,bars/023.png,bars/mask001.png,,,,,,,,,,,,6,2,,,,,,,6,8,4,9,,,,,,,,,,,1906.0947,1906.5952,1906.8425,1907.611,space,0.7524,,1907.611,85,10,1908.6124,1908.6125,1908.6138,,,,0,23,23,23,1,20,115,,,,,,,,
,,60f2c5a1a74838f505499dec,65af55ec91bb652b9495baa9,2024-01-23_08h01.08.883,bars,2023.2.3,MacIntel,59.88023952,657b66ea316d21385b68909f,,,,,,,,,,,1908.6143,1909.6123,,,1910.1117,1910.3614,,115,115,,,,,,,,,,,,,,,,bars/025.png,bars/mask001.png,,,,,,,,,,,,5,1,,,,,,,8,6,8,8,,,,,,,,,,,1909.6123,1910.1116,1910.3616,1911.0957,space,0.7239,,1911.0957,10,75,1912.096,1912.0961,1912.099,,,,0,24,24,24,1,105,40,,,,,,,,
,,60f2c5a1a74838f505499dec,65af55ec91bb652b9495baa9,2024-01-23_08h01.08.883,bars,2023.2.3,MacIntel,59.88023952,657b66ea316d21385b68909f,,,,,,,,,,,1912.0993,1913.0964,,,1913.5949,1913.8457,,23,23,,,,,,,,,,,,,,,,bars/035.png,bars/mask000.png,,,,,,,,,,,,0,1,,,,,,,6,8,7,8,,,,,,,,,,,1913.0964,1913.5949,1913.8458,1914.6616,space,0.8001,,1914.6617,28,37,1915.6621,1915.6622,1915.6634,,,,0,25,25,25,1,175,60,,,,,,,,
,,60f2c5a1a74838f505499dec,65af55ec91bb652b9495baa9,2024-01-23_08h01.08.883,bars,2023.2.3,MacIntel,59.88023952,657b66ea316d21385b68909f,,,,,,,,,,,1915.6638,1916.6626,,,1917.1626,1917.412,,42,42,,,,,,,,,,,,,,,,bars/012.png,bars/mask001.png,,,,,,,,,,,,0,2,,,,,,,4,6,5,5,,,,,,,,,,,1916.6627,1917.1625,1917.412,1918.1423,space,0.7169,,1918.1423,48,27,1919.1431,1919.1431,1919.1449,,,,0,26,26,26,1,90,15,,,,,,,,
,,60f2c5a1a74838f505499dec,65af55ec91bb652b9495baa9,2024-01-23_08h01.08.883,bars,2023.2.3,MacIntel,59.88023952,657b66ea316d21385b68909f,,,,,,,,,,,1919.1452,1920.1441,,,1920.6455,1920.8965,,119,119,,,,,,,,,,,,,,,,bars/017.png,bars/mask007.png,,,,,,,,,,,,1,1,,,,,,,6,4,6,3,,,,,,,,,,,1920.1442,1920.6455,1920.8965,1921.5297,space,0.623,,1921.5298,26,74,1922.5285,1922.5285,1922.5314,,,,0,27,27,27,1,145,45,,,,,,,,
,,60f2c5a1a74838f505499dec,65af55ec91bb652b9495baa9,2024-01-23_08h01.08.883,bars,2023.2.3,MacIntel,59.88023952,657b66ea316d21385b68909f,,,,,,,,,,,1922.5318,1923.5278,,,1924.0289,1924.2796,,59,59,,,,,,,,,,,,,,,,bars/001.png,bars/mask005.png,,,,,,,,,,,,0,2,,,,,,,8,2,6,2,,,,,,,,,,,1923.5278,1924.0288,1924.2796,1924.9958,space,0.7029,,1924.9958,71,26,1925.9958,1925.9959,1925.9989,,,,0,28,28,28,1,130,85,,,,,,,,
,,60f2c5a1a74838f505499dec,65af55ec91bb652b9495baa9,2024-01-23_08h01.08.883,bars,2023.2.3,MacIntel,59.88023952,657b66ea316d21385b68909f,,,,,,,,,,,1925.9992,1926.9932,,,1927.4945,1927.7462,,65,65,,,,,,,,,,,,,,,,bars/015.png,bars/mask004.png,,,,,,,,,,,,0,1,,,,,,,6,0,7,0,,,,,,,,,,,1926.9933,1927.4945,1927.7464,1928.4271,space,0.6669,,1928.4272,45,85,1929.4294,1929.4295,1929.4322,,,,0,29,29,29,1,110,160,,,,,,,,
,,60f2c5a1a74838f505499dec,65af55ec91bb652b9495baa9,2024-01-23_08h01.08.883,bars,2023.2.3,MacIntel,59.88023952,657b66ea316d21385b68909f,,,,,,,,,,,1929.4324,1930.4286,,,1930.929,1931.1775,,139,139,,,,,,,,,,,,,,,,bars/004.png,bars/mask009.png,,,,,,,,,,,,0,2,,,,,,,8,0,9,0,,,,,,,,,,,1930.4287,1930.9289,1931.1775,1931.8806,space,0.6843,,1931.8807,66,14,1932.88,1932.88,1932.8827,,,,0,30,30,30,1,25,125,,,,,,,,
,,60f2c5a1a74838f505499dec,65af55ec91bb652b9495baa9,2024-01-23_08h01.08.883,bars,2023.2.3,MacIntel,59.88023952,657b66ea316d21385b68909f,,,,,,,,,,,1932.883,1933.8801,,,1934.3804,1934.6292,,49,49,,,,,,,,,,,,,,,,bars/043.png,bars/mask003.png,,,,,,,,,,,,4,1,,,,,,,10,0,10,2,,,,,,,,,,,1933.8803,1934.3803,1934.6293,1935.2614,space,0.616,,1935.2616,19,81,1936.263,1936.263,1936.266,,,,0,31,31,31,1,30,130,,,,,,,,
,,60f2c5a1a74838f505499dec,65af55ec91bb652b9495baa9,2024-01-23_08h01.08.883,bars,2023.2.3,MacIntel,59.88023952,657b66ea316d21385b68909f,,,,,,,,,,,1936.2663,1937.2621,,,1937.7625,1938.0138,,47,47,,,,,,,,,,,,,,,,bars/044.png,bars/mask002.png,,,,,,,,,,,,1,1,,,,,,,10,0,9,0,,,,,,,,,,,1937.2622,1937.7624,1938.0139,1940.1634,space,2.1338,,1940.1636,28,72,1941.1628,1941.1629,1941.1745,,,,0,32,32,32,1,75,155,,,,,,,,
,,60f2c5a1a74838f505499dec,65af55ec91bb652b9495baa9,2024-01-23_08h01.08.883,bars,2023.2.3,MacIntel,59.88023952,657b66ea316d21385b68909f,,,,,,,,,,,1941.1747,1942.1641,,,1942.6639,1942.9122,,87,87,,,,,,,,,,,,,,,,bars/020.png,bars/mask000.png,,,,,,,,,,,,1,1,,,,,,,10,0,10,1,,,,,,,,,,,1942.1642,1942.6638,1942.9123,1943.7468,space,0.8177,,1943.7469,28,83,1944.7464,1944.7469,1944.7477,,,,0,33,33,33,1,115,170,,,,,,,,
,,60f2c5a1a74838f505499dec,65af55ec91bb652b9495baa9,2024-01-23_08h01.08.883,bars,2023.2.3,MacIntel,59.88023952,657b66ea316d21385b68909f,,,,,,,,,,,1944.7479,1945.7438,,,1946.2463,1946.4967,,94,94,,,,,,,,,,,,,,,,bars/000.png,bars/mask005.png,,,,,,,,,,,,0,2,,,,,,,8,2,9,2,,,,,,,,,,,1945.7438,1946.2462,1946.4967,1947.1273,space,0.6207,,1947.1274,54,51,1948.1297,1948.1297,1948.1326,,,,0,34,34,34,1,40,145,,,,,,,,
,,60f2c5a1a74838f505499dec,65af55ec91bb652b9495baa9,2024-01-23_08h01.08.883,bars,2023.2.3,MacIntel,59.88023952,657b66ea316d21385b68909f,,,,,,,,,,,1948.133,1949.1273,,,1949.6273,1949.8797,,94,94,,,,,,,,,,,,,,,,bars/045.png,bars/mask002.png,,,,,,,,,,,,8,1,,,,,,,10,4,10,5,,,,,,,,,,,1949.1274,1949.6273,1949.8798,1952.212,space,2.3172,,1952.2121,6,84,1953.2137,1953.2137,1953.2283,,,,0,35,35,35,1,100,10,,,,,,,,
,,60f2c5a1a74838f505499dec,65af55ec91bb652b9495baa9,2024-01-23_08h01.08.883,bars,2023.2.3,MacIntel,59.88023952,657b66ea316d21385b68909f,,,,,,,,,,,1953.2285,1954.231,,,1954.7297,1954.9797,,117,117,,,,,,,,,,,,,,,,bars/011.png,bars/mask004.png,,,,,,,,,,,,0,2,,,,,,,8,6,7,5,,,,,,,,,,,1954.2311,1954.7296,1954.9797,1956.4643,space,1.4697,,1956.4644,43,32,1957.4635,1957.4635,1957.477,,,,0,36,36,36,1,160,85,,,,,,,,
,,60f2c5a1a74838f505499dec,65af55ec91bb652b9495baa9,2024-01-23_08h01.08.883,bars,2023.2.3,MacIntel,59.88023952,657b66ea316d21385b68909f,,,,,,,,,,,1957.4773,1958.4802,,,1958.9778,1959.2308,,42,42,,,,,,,,,,,,,,,,bars/034.png,bars/mask006.png,,,,,,,,,,,,2,2,,,,,,,6,8,7,9,,,,,,,,,,,1958.4803,1958.9778,1959.2312,1960.6112,space,1.3674,,1960.6113,83,23,1961.6114,1961.6114,1961.6127,,,,0,37,37,37,1,125,65,,,,,,,,
,,60f2c5a1a74838f505499dec,65af55ec91bb652b9495baa9,2024-01-23_08h01.08.883,bars,2023.2.3,MacIntel,59.88023952,657b66ea316d21385b68909f,,,,,,,,,,,1961.6131,1962.6136,,,1963.1149,1963.3645,,158,158,,,,,,,,,,,,,,,,bars/025.png,bars/mask000.png,,,,,,,,,,,,0,1,,,,,,,8,6,8,7,,,,,,,,,,,1962.6136,1963.1148,1963.3646,1964.3633,space,0.9842,,1964.3633,53,62,1965.3635,1965.3636,1965.3663,,,,0,38,38,38,1,105,40,,,,,,,,
,,60f2c5a1a74838f505499dec,65af55ec91bb652b9495baa9,2024-01-23_08h01.08.883,bars,2023.2.3,MacIntel,59.88023952,657b66ea316d21385b68909f,,,,,,,,,,,1965.3667,1966.3639,,,1966.8642,1967.1139,,1,1,,,,,,,,,,,,,,,,bars/012.png,bars/mask005.png,,,,,,,,,,,,2,2,,,,,,,10,4,9,3,,,,,,,,,,,1966.364,1966.8641,1967.1139,1967.7781,space,0.6492,,1967.7781,89,14,1968.7804,1968.7804,1968.7834,,,,0,39,39,39,1,90,15,,,,,,,,
,,60f2c5a1a74838f505499dec,65af55ec91bb652b9495baa9,2024-01-23_08h01.08.883,bars,2023.2.3,MacIntel,59.88023952,657b66ea316d21385b68909f,,,,,,,,,,,1968.7838,1969.7808,,,1970.2806,1970.5283,,114,114,,,,,,,,,,,,,,,,bars/038.png,bars/mask002.png,,,,,,,,,,,,0,2,,,,,,,10,2,10,3,,,,,,,,,,,1969.7809,1970.2805,1970.5283,1971.346,space,0.802,,1971.346,51,44,1972.3485,1972.3486,1972.35,,,,0,40,40,40,1,165,70,,,,,,,,
,,60f2c5a1a74838f505499dec,65af55ec91bb652b9495baa9,2024-01-23_08h01.08.883,bars,2023.2.3,MacIntel,59.88023952,657b66ea316d21385b68909f,,,,,,,,,,,1972.3503,1973.3482,,,1973.8475,1974.0989,,17,17,,,,,,,,,,,,,,,,bars/028.png,bars/mask003.png,,,,,,,,,,,,1,1,,,,,,,10,0,10,0,,,,,,,,,,,1973.3483,1973.8474,1974.0989,1975.098,space,0.9831,,1975.098,28,77,1976.0975,1976.0976,1976.1005,,,,0,41,41,41,1,45,120,,,,,,,,
,,60f2c5a1a74838f505499dec,65af55ec91bb652b9495baa9,2024-01-23_08h01.08.883,bars,2023.2.3,MacIntel,59.88023952,657b66ea316d21385b68909f,,,,,,,,,,,1976.1008,1977.0978,,,1977.5974,1977.8473,,140,140,,,,,,,,,,,,,,,,bars/014.png,bars/mask004.png,,,,,,,,,,,,0,2,,,,,,,10,2,10,2,,,,,,,,,,,1977.0979,1977.5973,1977.8474,1980.6649,space,2.7991,,1980.6649,60,40,1981.665,1981.6651,1981.6786,,,,0,42,42,42,1,80,0,,,,,,,,
,,60f2c5a1a74838f505499dec,65af55ec91bb652b9495baa9,2024-01-23_08h01.08.883,bars,2023.2.3,MacIntel,59.88023952,657b66ea316d21385b68909f,,,,,,,,,,,1981.6788,1982.682,,,1983.1821,1983.4295,,105,105,,,,,,,,,,,,,,,,bars/017.png,bars/mask008.png,,,,,,,,,,,,0,1,,,,,,,8,0,8,0,,,,,,,,,,,1982.682,1983.182,1983.4296,1984.6788,space,1.235,,1984.6788,40,60,1985.6811,1985.6812,1985.6841,,,,0,43,43,43,1,145,45,,,,,,,,
,,60f2c5a1a74838f505499dec,65af55ec91bb652b9495baa9,2024-01-23_08h01.08.883,bars,2023.2.3,MacIntel,59.88023952,657b66ea316d21385b68909f,,,,,,,,,,,1985.6845,1986.6812,,,1987.1821,1987.4317,,43,43,,,,,,,,,,,,,,,,bars/031.png,bars/mask008.png,,,,,,,,,,,,0,2,,,,,,,6,0,6,0,,,,,,,,,,,1986.6813,1987.182,1987.4317,1988.6136,space,1.1685,,1988.6137,77,8,1989.6154,1989.6154,1989.6181,,,,0,44,44,44,1,120,35,,,,,,,,
,,60f2c5a1a74838f505499dec,65af55ec91bb652b9495baa9,2024-01-23_08h01.08.883,bars,2023.2.3,MacIntel,59.88023952,657b66ea316d21385b68909f,,,,,,,,,,,1989.6184,1990.612,,,1991.1149,1991.3642,,146,-34,,,,,,,,,,,,,,,,bars/032.png,bars/mask001.png,,,,,,,,,,,,1,1,,,,,,,4,0,4,0,,,,,,,,,,,1990.6122,1991.1148,1991.3642,1997.4482,space,6.0673,,1997.4483,21,54,1998.4481,1998.4483,1998.4614,,,,0,45,45,45,1,125,20,,,,,,,,
,,60f2c5a1a74838f505499dec,65af55ec91bb652b9495baa9,2024-01-23_08h01.08.883,bars,2023.2.3,MacIntel,59.88023952,657b66ea316d21385b68909f,,,,,,,,,,,1998.4616,1999.4657,,,1999.9656,2000.2153,,61,61,,,,,,,,,,,,,,,,bars/040.png,bars/mask000.png,,,,,,,,,,,,0,2,,,,,,,6,2,4,2,,,,,,,,,,,1999.4658,1999.9655,2000.2154,2001.099,space,0.8673,,2001.0991,79,56,2002.0991,2002.0992,2002.1021,,,,0,46,46,46,1,140,5,,,,,,,,
,,60f2c5a1a74838f505499dec,65af55ec91bb652b9495baa9,2024-01-23_08h01.08.883,bars,2023.2.3,MacIntel,59.88023952,657b66ea316d21385b68909f,,,,,,,,,,,2002.1024,2003.0987,,,2003.5992,2003.849,,137,137,,,,,,,,,,,,,,,,bars/027.png,bars/mask008.png,,,,,,,,,,,,0,1,,,,,,,4,4,4,4,,,,,,,,,,,2003.0988,2003.5991,2003.8491,2005.7652,space,1.9006,,2005.7653,27,87,2006.7627,2006.7627,2006.764,,,,0,47,47,47,1,110,50,,,,,,,,
,,60f2c5a1a74838f505499dec,65af55ec91bb652b9495baa9,2024-01-23_08h01.08.883,bars,2023.2.3,MacIntel,59.88023952,657b66ea316d21385b68909f,,,,,,,,,,,2006.7642,2007.7656,,,2008.2651,2008.5124,,169,169,,,,,,,,,,,,,,,,bars/031.png,bars/mask001.png,,,,,,,,,,,,0,2,,,,,,,6,6,7,5,,,,,,,,,,,2007.7656,2008.2651,2008.5125,2013.2661,space,4.7369,,2013.2662,49,46,2014.2658,2014.266,2014.2792,,,,0,48,48,48,1,120,35,,,,,,,,
,,60f2c5a1a74838f505499dec,65af55ec91bb652b9495baa9,2024-01-23_08h01.08.883,bars,2023.2.3,MacIntel,59.88023952,657b66ea316d21385b68909f,,,,,,,,,,,2014.2794,2015.282,,,2015.7833,2016.0322,,126,126,,,,,,,,,,,,,,,,bars/016.png,bars/mask000.png,,,,,,,,,,,,0,2,,,,,,,8,8,9,8,,,,,,,,,,,2015.2821,2015.7832,2016.0323,2016.7165,space,0.6718,,2016.7165,86,39,2017.7161,2017.7161,2017.7177,,,,0,49,49,49,1,40,165,,,,,,,,
,,60f2c5a1a74838f505499dec,65af55ec91bb652b9495baa9,2024-01-23_08h01.08.883,bars,2023.2.3,MacIntel,59.88023952,657b66ea316d21385b68909f,,,,,,,,,,,,,,,,,,,,,,,,,,,,,,,,,,,,,,,,,,,,,,,,,,,,,,,,,,,,,,,,,,,,,,,,,,,,,,,,,,,,,,,,,,,,,2017.718,2077.7176,0,2,2,4,1,sequence_tables/blk034.csv
,,60f2c5a1a74838f505499dec,65af55ec91bb652b9495baa9,2024-01-23_08h01.08.883,bars,2023.2.3,MacIntel,59.88023952,657b66ea316d21385b68909f,,,,,,,,,,,2082.1509,2083.1515,,,2083.6489,2083.9026,,58,58,,,,,,,,,,,,,,,,bars/038.png,bars/mask001.png,,,,,,,,,,,,4,2,,,,,,,3,6,4,7,,,,,,2077.7293,2082.1358,space,4.3967,,2083.1516,2083.6488,2083.9028,2087.1005,space,3.1842,,2087.1006,73,12,2088.1021,2088.1021,2088.1146,,,,0,0,0,0,1,165,70,,,,,,,,
,,60f2c5a1a74838f505499dec,65af55ec91bb652b9495baa9,2024-01-23_08h01.08.883,bars,2023.2.3,MacIntel,59.88023952,657b66ea316d21385b68909f,,,,,,,,,,,2088.1148,2089.1178,,,2089.6181,2089.8667,,11,11,,,,,,,,,,,,,,,,bars/042.png,bars/mask005.png,,,,,,,,,,,,0,1,,,,,,,5,8,3,7,,,,,,,,,,,2089.1179,2089.618,2089.8667,2091.4837,space,1.6016,,2091.4838,46,64,2092.4857,2092.4858,2092.4993,,,,0,1,1,1,1,145,75,,,,,,,,
,,60f2c5a1a74838f505499dec,65af55ec91bb652b9495baa9,2024-01-23_08h01.08.883,bars,2023.2.3,MacIntel,59.88023952,657b66ea316d21385b68909f,,,,,,,,,,,2092.4994,2093.5026,,,2094.0021,2094.2526,,107,107,,,,,,,,,,,,,,,,bars/014.png,bars/mask007.png,,,,,,,,,,,,1,1,,,,,,,7,10,8,10,,,,,,,,,,,2093.5027,2094.002,2094.2527,2095.7686,space,1.5004,,2095.7686,27,73,2096.7686,2096.7686,2096.7699,,,,0,2,2,2,1,80,0,,,,,,,,
,,60f2c5a1a74838f505499dec,65af55ec91bb652b9495baa9,2024-01-23_08h01.08.883,bars,2023.2.3,MacIntel,59.88023952,657b66ea316d21385b68909f,,,,,,,,,,,2096.7702,2097.7684,,,2098.2694,2098.5176,,171,171,,,,,,,,,,,,,,,,bars/049.png,bars/mask003.png,,,,,,,,,,,,3,1,,,,,,,5,10,5,10,,,,,,,,,,,2097.7685,2098.2693,2098.5177,2099.569,space,1.037,,2099.569,11,56,2100.5661,2100.5661,2100.5676,,,,0,3,3,3,1,160,115,,,,,,,,
,,60f2c5a1a74838f505499dec,65af55ec91bb652b9495baa9,2024-01-23_08h01.08.883,bars,2023.2.3,MacIntel,59.88023952,657b66ea316d21385b68909f,,,,,,,,,,,2100.568,2101.5685,,,2102.0686,2102.3187,,148,148,,,,,,,,,,,,,,,,bars/008.png,bars/mask008.png,,,,,,,,,,,,0,2,,,,,,,3,10,2,8,,,,,,,,,,,2101.5686,2102.0686,2102.3188,2103.136,space,0.8021,,2103.1361,38,32,2104.1359,2104.1359,2104.1387,,,,0,4,4,4,1,110,0,,,,,,,,
,,60f2c5a1a74838f505499dec,65af55ec91bb652b9495baa9,2024-01-23_08h01.08.883,bars,2023.2.3,MacIntel,59.88023952,657b66ea316d21385b68909f,,,,,,,,,,,2104.1391,2105.1362,,,2105.6362,2105.8841,,18,18,,,,,,,,,,,,,,,,bars/007.png,bars/mask004.png,,,,,,,,,,,,0,1,,,,,,,1,10,1,9,,,,,,,,,,,2105.1362,2105.6362,2105.8842,2106.7336,space,0.8345,,2106.7337,23,37,2107.7355,2107.7356,2107.7383,,,,0,5,5,5,1,175,55,,,,,,,,
,,60f2c5a1a74838f505499dec,65af55ec91bb652b9495baa9,2024-01-23_08h01.08.883,bars,2023.2.3,MacIntel,59.88023952,657b66ea316d21385b68909f,,,,,,,,,,,2107.7386,2108.7363,,,2109.2355,2109.4864,,32,32,,,,,,,,,,,,,,,,bars/044.png,bars/mask000.png,,,,,,,,,,,,0,1,,,,,,,3,10,1,10,,,,,,,,,,,2108.7364,2109.2355,2109.4865,2123.3176,space,13.8176,,2123.3177,43,57,2124.3204,2124.3205,2124.3341,,,,0,6,6,6,1,75,155,,,,,,,,
,,60f2c5a1a74838f505499dec,65af55ec91bb652b9495baa9,2024-01-23_08h01.08.883,bars,2023.2.3,MacIntel,59.88023952,657b66ea316d21385b68909f,,,,,,,,,,,2124.3343,2125.3366,,,2125.8349,2126.0861,,147,147,,,,,,,,,,,,,,,,bars/018.png,bars/mask007.png,,,,,,,,,,,,5,1,,,,,,,5,10,5,10,,,,,,,,,,,2125.3366,2125.8348,2126.0862,2126.8202,space,0.7173,,2126.8203,3,57,2127.8197,2127.8201,2127.8217,,,,0,7,7,7,1,150,90,,,,,,,,
,,60f2c5a1a74838f505499dec,65af55ec91bb652b9495baa9,2024-01-23_08h01.08.883,bars,2023.2.3,MacIntel,59.88023952,657b66ea316d21385b68909f,,,,,,,,,,,2127.822,2128.8172,,,2129.3195,2129.5698,,141,141,,,,,,,,,,,,,,,,bars/038.png,bars/mask000.png,,,,,,,,,,,,1,1,,,,,,,7,8,7,9,,,,,,,,,,,2128.8173,2129.3194,2129.5699,2130.5861,space,1.0004,,2130.5865,24,71,2131.5862,2131.5863,2131.5877,,,,0,8,8,8,1,165,70,,,,,,,,
,,60f2c5a1a74838f505499dec,65af55ec91bb652b9495baa9,2024-01-23_08h01.08.883,bars,2023.2.3,MacIntel,59.88023952,657b66ea316d21385b68909f,,,,,,,,,,,2131.5882,2132.5865,,,2133.0866,2133.3372,,59,59,,,,,,,,,,,,,,,,bars/023.png,bars/mask008.png,,,,,,,,,,,,0,1,,,,,,,5,6,7,5,,,,,,,,,,,2132.5866,2133.0865,2133.3373,2134.3675,space,1.0155,,2134.3676,39,56,2135.3697,2135.3698,2135.3714,,,,0,9,9,9,1,20,115,,,,,,,,
,,60f2c5a1a74838f505499dec,65af55ec91bb652b9495baa9,2024-01-23_08h01.08.883,bars,2023.2.3,MacIntel,59.88023952,657b66ea316d21385b68909f,,,,,,,,,,,2135.3721,2136.3702,,,2136.8696,2137.1202,,166,166,,,,,,,,,,,,,,,,bars/020.png,bars/mask004.png,,,,,,,,,,,,9,2,,,,,,,7,8,7,10,,,,,,,,,,,2136.3702,2136.8695,2137.1204,2139.5853,space,2.4515,,2139.5853,51,4,2140.587,2140.5871,2140.6001,,,,0,10,10,10,1,115,170,,,,,,,,
,,60f2c5a1a74838f505499dec,65af55ec91bb652b9495baa9,2024-01-23_08h01.08.883,bars,2023.2.3,MacIntel,59.88023952,657b66ea316d21385b68909f,,,,,,,,,,,2140.6003,2141.604,,,2142.104,2142.3547,,167,167,,,,,,,,,,,,,,,,bars/023.png,bars/mask000.png,,,,,,,,,,,,0,1,,,,,,,9,10,8,9,,,,,,,,,,,2141.6041,2142.1039,2142.3547,2146.1711,space,3.8001,,2146.1712,33,52,2147.1705,2147.1705,2147.184,,,,0,11,11,11,1,20,115,,,,,,,,
,,60f2c5a1a74838f505499dec,65af55ec91bb652b9495baa9,2024-01-23_08h01.08.883,bars,2023.2.3,MacIntel,59.88023952,657b66ea316d21385b68909f,,,,,,,,,,,2147.1842,2148.1877,,,2148.6881,2148.9373,,10,10,,,,,,,,,,,,,,,,bars/043.png,bars/mask008.png,,,,,,,,,,,,3,1,,,,,,,10,10,9,10,,,,,,,,,,,2148.1878,2148.688,2148.9373,2149.5208,space,0.5737,,2149.5209,20,60,2150.5194,2150.5195,2150.5209,,,,0,12,12,12,1,30,130,,,,,,,,
,,60f2c5a1a74838f505499dec,65af55ec91bb652b9495baa9,2024-01-23_08h01.08.883,bars,2023.2.3,MacIntel,59.88023952,657b66ea316d21385b68909f,,,,,,,,,,,2150.5213,2151.5194,,,2152.0196,2152.2694,,67,67,,,,,,,,,,,,,,,,bars/039.png,bars/mask005.png,,,,,,,,,,,,0,2,,,,,,,8,8,8,8,,,,,,,,,,,2151.5194,2152.0196,2152.2695,2155.1683,space,2.885,,2155.1683,72,38,2156.1706,2156.1707,2156.1848,,,,0,13,13,13,1,175,105,,,,,,,,
,,60f2c5a1a74838f505499dec,65af55ec91bb652b9495baa9,2024-01-23_08h01.08.883,bars,2023.2.3,MacIntel,59.88023952,657b66ea316d21385b68909f,,,,,,,,,,,2156.185,2157.1859,,,2157.6884,2157.937,,59,59,,,,,,,,,,,,,,,,bars/004.png,bars/mask006.png,,,,,,,,,,,,0,1,,,,,,,10,10,10,10,,,,,,,,,,,2157.1859,2157.6883,2157.9371,2158.4054,space,0.4525,,2158.4055,34,66,2159.4045,2159.4046,2159.4073,,,,0,14,14,14,1,25,125,,,,,,,,
,,60f2c5a1a74838f505499dec,65af55ec91bb652b9495baa9,2024-01-23_08h01.08.883,bars,2023.2.3,MacIntel,59.88023952,657b66ea316d21385b68909f,,,,,,,,,,,2159.4075,2160.4013,,,2160.9017,2161.1549,,149,149,,,,,,,,,,,,,,,,bars/045.png,bars/mask001.png,,,,,,,,,,,,0,2,,,,,,,8,10,6,10,,,,,,,,,,,2160.4013,2160.9017,2161.1551,2161.9529,space,0.7829,,2161.9529,49,41,2162.9554,2162.9555,2162.9579,,,,0,15,15,15,1,100,10,,,,,,,,
,,60f2c5a1a74838f505499dec,65af55ec91bb652b9495baa9,2024-01-23_08h01.08.883,bars,2023.2.3,MacIntel,59.88023952,657b66ea316d21385b68909f,,,,,,,,,,,2162.9582,2163.9536,,,2164.4553,2164.7043,,23,23,,,,,,,,,,,,,,,,bars/012.png,bars/mask009.png,,,,,,,,,,,,7,2,,,,,,,10,10,10,9,,,,,,,,,,,2163.9536,2164.4553,2164.7043,2165.6542,space,0.9348,,2165.6544,67,8,2166.6544,2166.6545,2166.6557,,,,0,16,16,16,1,90,15,,,,,,,,
,,60f2c5a1a74838f505499dec,65af55ec91bb652b9495baa9,2024-01-23_08h01.08.883,bars,2023.2.3,MacIntel,59.88023952,657b66ea316d21385b68909f,,,,,,,,,,,2166.6561,2167.6542,,,2168.1557,2168.4051,,88,88,,,,,,,,,,,,,,,,bars/042.png,bars/mask004.png,,,,,,,,,,,,6,2,,,,,,,10,10,10,10,,,,,,,,,,,2167.6543,2168.1557,2168.4051,2169.1882,space,0.7667,,2169.1882,57,13,2170.1877,2170.1878,2170.1894,,,,0,17,17,17,1,145,75,,,,,,,,
,,60f2c5a1a74838f505499dec,65af55ec91bb652b9495baa9,2024-01-23_08h01.08.883,bars,2023.2.3,MacIntel,59.88023952,657b66ea316d21385b68909f,,,,,,,,,,,2170.19,2171.1873,,,2171.6854,2171.9378,,24,24,,,,,,,,,,,,,,,,bars/021.png,bars/mask000.png,,,,,,,,,,,,0,2,,,,,,,10,10,9,10,,,,,,,,,,,2171.1875,2171.6853,2171.9379,2173.0224,space,1.0675,,2173.0225,49,46,2174.0225,2174.0225,2174.0237,,,,0,18,18,18,1,155,70,,,,,,,,
,,60f2c5a1a74838f505499dec,65af55ec91bb652b9495baa9,2024-01-23_08h01.08.883,bars,2023.2.3,MacIntel,59.88023952,657b66ea316d21385b68909f,,,,,,,,,,,2174.024,2175.0222,,,2175.5203,2175.7712,,30,30,,,,,,,,,,,,,,,,bars/014.png,bars/mask001.png,,,,,,,,,,,,0,2,,,,,,,8,8,10,8,,,,,,,,,,,2175.0222,2175.5202,2175.7714,2176.5217,space,0.7318,,2176.5219,50,30,2177.5217,2177.5218,2177.5231,,,,0,19,19,19,1,80,0,,,,,,,,
,,60f2c5a1a74838f505499dec,65af55ec91bb652b9495baa9,2024-01-23_08h01.08.883,bars,2023.2.3,MacIntel,59.88023952,657b66ea316d21385b68909f,,,,,,,,,,,2177.5235,2178.5217,,,2179.0212,2179.2703,,91,91,,,,,,,,,,,,,,,,bars/005.png,bars/mask003.png,,,,,,,,,,,,0,2,,,,,,,10,6,10,5,,,,,,,,,,,2178.5218,2179.0211,2179.2704,2179.9211,space,0.6329,,2179.9212,81,49,2180.9225,2180.9225,2180.9232,,,,0,20,20,20,1,10,140,,,,,,,,
,,60f2c5a1a74838f505499dec,65af55ec91bb652b9495baa9,2024-01-23_08h01.08.883,bars,2023.2.3,MacIntel,59.88023952,657b66ea316d21385b68909f,,,,,,,,,,,2180.9233,2181.9203,,,2182.4218,2182.6692,,79,79,,,,,,,,,,,,,,,,bars/006.png,bars/mask008.png,,,,,,,,,,,,2,2,,,,,,,10,4,10,5,,,,,,,,,,,2181.9203,2182.4218,2182.6694,2183.8227,space,1.1435,,2183.8227,44,21,2184.8218,2184.8218,2184.8232,,,,0,21,21,21,1,35,100,,,,,,,,
,,60f2c5a1a74838f505499dec,65af55ec91bb652b9495baa9,2024-01-23_08h01.08.883,bars,2023.2.3,MacIntel,59.88023952,657b66ea316d21385b68909f,,,,,,,,,,,2184.8236,2185.8192,,,2186.3217,2186.5711,,111,111,,,,,,,,,,,,,,,,bars/042.png,bars/mask003.png,,,,,,,,,,,,0,1,,,,,,,8,2,9,0,,,,,,,,,,,2185.8192,2186.3217,2186.5712,2187.6218,space,1.0344,,2187.6219,34,36,2188.6229,2188.623,2188.6374,,,,0,22,22,22,1,145,75,,,,,,,,
,,60f2c5a1a74838f505499dec,65af55ec91bb652b9495baa9,2024-01-23_08h01.08.883,bars,2023.2.3,MacIntel,59.88023952,657b66ea316d21385b68909f,,,,,,,,,,,2188.6377,2189.6376,,,2190.1373,2190.3891,,124,124,,,,,,,,,,,,,,,,bars/013.png,bars/mask005.png,,,,,,,,,,,,0,1,,,,,,,6,4,6,3,,,,,,,,,,,2189.6377,2190.1372,2190.3892,2194.4062,space,3.9998,,2194.4062,49,66,2195.4061,2195.4061,2195.4196,,,,0,23,23,23,1,75,10,,,,,,,,
,,60f2c5a1a74838f505499dec,65af55ec91bb652b9495baa9,2024-01-23_08h01.08.883,bars,2023.2.3,MacIntel,59.88023952,657b66ea316d21385b68909f,,,,,,,,,,,2195.4198,2196.4225,,,2196.9125,2197.1556,,123,123,,,,,,,,,,,,,,,,bars/044.png,bars/mask008.png,,,,,,,,,,,,0,2,,,,,,,8,6,8,6,,,,,,,,,,,2196.4225,2196.9124,2197.1557,2210.0892,space,12.9175,,2210.0893,48,32,2211.0894,2211.0895,2211.1023,,,,0,24,24,24,1,75,155,,,,,,,,
,,60f2c5a1a74838f505499dec,65af55ec91bb652b9495baa9,2024-01-23_08h01.08.883,bars,2023.2.3,MacIntel,59.88023952,657b66ea316d21385b68909f,,,,,,,,,,,2211.1025,2212.1062,,,2212.6072,2212.8569,,71,71,,,,,,,,,,,,,,,,bars/039.png,bars/mask001.png,,,,,,,,,,,,0,2,,,,,,,10,4,10,5,,,,,,,,,,,2212.1063,2212.6071,2212.8569,2214.2396,space,1.3707,,2214.2397,76,34,2215.2394,2215.2397,2215.2515,,,,0,25,25,25,1,175,105,,,,,,,,
,,60f2c5a1a74838f505499dec,65af55ec91bb652b9495baa9,2024-01-23_08h01.08.883,bars,2023.2.3,MacIntel,59.88023952,657b66ea316d21385b68909f,,,,,,,,,,,2215.2516,2216.2398,,,2216.7398,2216.9896,,25,25,,,,,,,,,,,,,,,,bars/044.png,bars/mask008.png,,,,,,,,,,,,0,2,,,,,,,10,2,10,2,,,,,,,,,,,2216.24,2216.7398,2216.9896,2221.4042,space,4.3995,,2221.4043,50,50,2222.4072,2222.4073,2222.4209,,,,0,26,26,26,1,75,155,,,,,,,,
,,60f2c5a1a74838f505499dec,65af55ec91bb652b9495baa9,2024-01-23_08h01.08.883,bars,2023.2.3,MacIntel,59.88023952,657b66ea316d21385b68909f,,,,,,,,,,,2222.4211,2223.4229,,,2223.9244,2224.1707,,52,52,,,,,,,,,,,,,,,,bars/029.png,bars/mask004.png,,,,,,,,,,,,3,2,,,,,,,8,4,7,4,,,,,,,,,,,2223.423,2223.9244,2224.1707,2224.9572,space,0.7678,,2224.9572,38,7,2225.9573,2225.9575,2225.9593,,,,0,27,27,27,1,90,45,,,,,,,,
,,60f2c5a1a74838f505499dec,65af55ec91bb652b9495baa9,2024-01-23_08h01.08.883,bars,2023.2.3,MacIntel,59.88023952,657b66ea316d21385b68909f,,,,,,,,,,,2225.9596,2226.9571,,,2227.4564,2227.7066,,44,44,,,,,,,,,,,,,,,,bars/029.png,bars/mask000.png,,,,,,,,,,,,7,2,,,,,,,6,6,4,7,,,,,,,,,,,2226.9571,2227.4563,2227.7066,2229.0221,space,1.2995,,2229.0221,46,1,2230.0237,2230.0238,2230.0245,,,,0,28,28,28,1,90,45,,,,,,,,
,,60f2c5a1a74838f505499dec,65af55ec91bb652b9495baa9,2024-01-23_08h01.08.883,bars,2023.2.3,MacIntel,59.88023952,657b66ea316d21385b68909f,,,,,,,,,,,2230.0249,2231.0221,,,2231.5232,2231.7709,,52,52,,,,,,,,,,,,,,,,bars/014.png,bars/mask004.png,,,,,,,,,,,,0,1,,,,,,,4,4,3,4,,,,,,,,,,,2231.0222,2231.5231,2231.771,2233.5573,space,1.7688,,2233.5574,28,52,2234.5574,2234.5575,2234.5603,,,,0,29,29,29,1,80,0,,,,,,,,
,,60f2c5a1a74838f505499dec,65af55ec91bb652b9495baa9,2024-01-23_08h01.08.883,bars,2023.2.3,MacIntel,59.88023952,657b66ea316d21385b68909f,,,,,,,,,,,2234.5606,2235.5571,,,2236.057,2236.3044,,115,115,,,,,,,,,,,,,,,,bars/044.png,bars/mask001.png,,,,,,,,,,,,0,2,,,,,,,6,2,6,3,,,,,,,,,,,2235.5572,2236.0569,2236.3044,2237.3077,space,0.9853,,2237.3077,40,40,2238.3073,2238.3074,2238.31,,,,0,30,30,30,1,75,155,,,,,,,,
,,60f2c5a1a74838f505499dec,65af55ec91bb652b9495baa9,2024-01-23_08h01.08.883,bars,2023.2.3,MacIntel,59.88023952,657b66ea316d21385b68909f,,,,,,,,,,,2238.3104,2239.3068,,,2239.8084,2240.0546,,39,39,,,,,,,,,,,,,,,,bars/043.png,bars/mask000.png,,,,,,,,,,,,4,1,,,,,,,4,0,5,0,,,,,,,,,,,2239.3069,2239.8083,2240.0546,2244.9584,space,4.8839,,2244.9587,9,89,2245.9579,2245.9579,2245.9702,,,,0,31,31,31,1,30,130,,,,,,,,
,,60f2c5a1a74838f505499dec,65af55ec91bb652b9495baa9,2024-01-23_08h01.08.883,bars,2023.2.3,MacIntel,59.88023952,657b66ea316d21385b68909f,,,,,,,,,,,2245.9705,2246.9745,,,2247.4715,2247.7237,,6,6,,,,,,,,,,,,,,,,bars/007.png,bars/mask001.png,,,,,,,,,,,,4,1,,,,,,,6,2,6,2,,,,,,,,,,,2246.9745,2247.4715,2247.7237,2249.2384,space,1.5007,,2249.2384,11,49,2250.2413,2250.2414,2250.2428,,,,0,32,32,32,1,175,55,,,,,,,,
,,60f2c5a1a74838f505499dec,65af55ec91bb652b9495baa9,2024-01-23_08h01.08.883,bars,2023.2.3,MacIntel,59.88023952,657b66ea316d21385b68909f,,,,,,,,,,,2250.2433,2251.2413,,,2251.7384,2251.9916,,5,5,,,,,,,,,,,,,,,,bars/036.png,bars/mask004.png,,,,,,,,,,,,3,2,,,,,,,8,4,10,5,,,,,,,,,,,2251.2414,2251.7383,2251.9917,2254.1742,space,2.1675,,2254.1742,40,15,2255.1743,2255.1744,2255.1887,,,,0,33,33,33,1,145,20,,,,,,,,
,,60f2c5a1a74838f505499dec,65af55ec91bb652b9495baa9,2024-01-23_08h01.08.883,bars,2023.2.3,MacIntel,59.88023952,657b66ea316d21385b68909f,,,,,,,,,,,2255.1889,2256.1884,,,2256.6886,2256.9284,,147,147,,,,,,,,,,,,,,,,bars/030.png,bars/mask000.png,,,,,,,,,,,,6,1,,,,,,,10,6,8,5,,,,,,,,,,,2256.1885,2256.6885,2256.9285,2266.9722,space,10.0297,,2266.9723,7,82,2267.9744,2267.9745,2267.9893,,,,0,34,34,34,1,140,65,,,,,,,,
,,60f2c5a1a74838f505499dec,65af55ec91bb652b9495baa9,2024-01-23_08h01.08.883,bars,2023.2.3,MacIntel,59.88023952,657b66ea316d21385b68909f,,,,,,,,,,,2267.9895,2268.9902,,,2269.4921,2269.7389,,127,127,,,,,,,,,,,,,,,,bars/042.png,bars/mask000.png,,,,,,,,,,,,4,1,,,,,,,10,8,10,8,,,,,,,,,,,2268.9903,2269.492,2269.739,2270.9895,space,1.242,,2270.9895,18,52,2271.9915,2271.9915,2272.0049,,,,0,35,35,35,1,145,75,,,,,,,,
,,60f2c5a1a74838f505499dec,65af55ec91bb652b9495baa9,2024-01-23_08h01.08.883,bars,2023.2.3,MacIntel,59.88023952,657b66ea316d21385b68909f,,,,,,,,,,,2272.0051,2272.9936,,,2273.4926,2273.7427,,144,144,,,,,,,,,,,,,,,,bars/040.png,bars/mask005.png,,,,,,,,,,,,7,1,,,,,,,8,10,8,10,,,,,,,,,,,2272.9937,2273.4925,2273.7427,2283.3255,space,9.5726,,2283.3255,4,41,2284.326,2284.3261,2284.3397,,,,0,36,36,36,1,140,5,,,,,,,,
,,60f2c5a1a74838f505499dec,65af55ec91bb652b9495baa9,2024-01-23_08h01.08.883,bars,2023.2.3,MacIntel,59.88023952,657b66ea316d21385b68909f,,,,,,,,,,,2284.3398,2285.3429,,,2285.842,2286.0915,,116,116,,,,,,,,,,,,,,,,bars/005.png,bars/mask002.png,,,,,,,,,,,,2,2,,,,,,,6,10,5,9,,,,,,,,,,,2285.3429,2285.8419,2286.0915,2287.5257,space,1.4157,,2287.5258,74,24,2288.5262,2288.5263,2288.5401,,,,0,37,37,37,1,10,140,,,,,,,,
,,60f2c5a1a74838f505499dec,65af55ec91bb652b9495baa9,2024-01-23_08h01.08.883,bars,2023.2.3,MacIntel,59.88023952,657b66ea316d21385b68909f,,,,,,,,,,,2288.5403,2289.5391,,,2290.042,2290.2926,,52,52,,,,,,,,,,,,,,,,bars/019.png,bars/mask007.png,,,,,,,,,,,,3,1,,,,,,,4,8,4,8,,,,,,,,,,,2289.5392,2290.0419,2290.2926,2298.6758,space,8.3725,,2298.6758,7,53,2299.6756,2299.6756,2299.6891,,,,0,38,38,38,1,45,105,,,,,,,,
,,60f2c5a1a74838f505499dec,65af55ec91bb652b9495baa9,2024-01-23_08h01.08.883,bars,2023.2.3,MacIntel,59.88023952,657b66ea316d21385b68909f,,,,,,,,,,,2299.6893,2300.6923,,,2301.1925,2301.4425,,66,66,,,,,,,,,,,,,,,,bars/024.png,bars/mask008.png,,,,,,,,,,,,0,1,,,,,,,2,6,2,5,,,,,,,,,,,2300.6923,2301.1925,2301.4426,2304.0752,space,2.6159,,2304.0752,54,76,2305.0763,2305.0764,2305.0886,,,,0,39,39,39,1,120,170,,,,,,,,
,,60f2c5a1a74838f505499dec,65af55ec91bb652b9495baa9,2024-01-23_08h01.08.883,bars,2023.2.3,MacIntel,59.88023952,657b66ea316d21385b68909f,,,,,,,,,,,2305.0888,2306.0935,,,2306.5923,2306.8434,,47,47,,,,,,,,,,,,,,,,bars/029.png,bars/mask003.png,,,,,,,,,,,,7,2,,,,,,,4,8,5,7,,,,,,,,,,,2306.0935,2306.5923,2306.8434,2309.7431,space,2.8836,,2309.7432,43,2,2310.7416,2310.7416,2310.7562,,,,0,40,40,40,1,90,45,,,,,,,,
,,60f2c5a1a74838f505499dec,65af55ec91bb652b9495baa9,2024-01-23_08h01.08.883,bars,2023.2.3,MacIntel,59.88023952,657b66ea316d21385b68909f,,,,,,,,,,,2310.7565,2311.7441,,,2312.2433,2312.493,,113,113,,,,,,,,,,,,,,,,bars/011.png,bars/mask006.png,,,,,,,,,,,,0,2,,,,,,,2,6,2,5,,,,,,,,,,,2311.7442,2312.2432,2312.4931,2313.5097,space,1.0005,,2313.5097,47,28,2314.5086,2314.5087,2314.5099,,,,0,41,41,41,1,160,85,,,,,,,,
,,60f2c5a1a74838f505499dec,65af55ec91bb652b9495baa9,2024-01-23_08h01.08.883,bars,2023.2.3,MacIntel,59.88023952,657b66ea316d21385b68909f,,,,,,,,,,,2314.5103,2315.5099,,,2316.0098,2316.2607,,95,95,,,,,,,,,,,,,,,,bars/048.png,bars/mask005.png,,,,,,,,,,,,0,1,,,,,,,0,4,0,3,,,,,,,,,,,2315.5099,2316.0097,2316.2608,2317.9429,space,1.6679,,2317.9429,45,80,2318.9426,2318.9427,2318.9462,,,,0,42,42,42,1,50,175,,,,,,,,
,,60f2c5a1a74838f505499dec,65af55ec91bb652b9495baa9,2024-01-23_08h01.08.883,bars,2023.2.3,MacIntel,59.88023952,657b66ea316d21385b68909f,,,,,,,,,,,2318.9465,2319.9429,,,2320.4407,2320.6935,,126,126,,,,,,,,,,,,,,,,bars/017.png,bars/mask006.png,,,,,,,,,,,,0,1,,,,,,,2,2,1,3,,,,,,,,,,,2319.943,2320.4407,2320.6936,2321.7906,space,1.0844,,2321.7907,19,81,2322.7907,2322.7908,2322.7921,,,,0,43,43,43,1,145,45,,,,,,,,
,,60f2c5a1a74838f505499dec,65af55ec91bb652b9495baa9,2024-01-23_08h01.08.883,bars,2023.2.3,MacIntel,59.88023952,657b66ea316d21385b68909f,,,,,,,,,,,2322.7925,2323.7933,,,2324.2939,2324.5443,,121,121,,,,,,,,,,,,,,,,bars/038.png,bars/mask004.png,,,,,,,,,,,,0,1,,,,,,,4,4,5,4,,,,,,,,,,,2323.7934,2324.2939,2324.5443,2336.3449,space,11.784,,2336.345,44,51,2337.3413,2337.3414,2337.3556,,,,0,44,44,44,1,165,70,,,,,,,,
,,60f2c5a1a74838f505499dec,65af55ec91bb652b9495baa9,2024-01-23_08h01.08.883,bars,2023.2.3,MacIntel,59.88023952,657b66ea316d21385b68909f,,,,,,,,,,,2337.3557,2338.3444,,,2338.8436,2339.0933,,6,6,,,,,,,,,,,,,,,,bars/017.png,bars/mask004.png,,,,,,,,,,,,0,2,,,,,,,6,2,5,2,,,,,,,,,,,2338.3444,2338.8436,2339.0934,2340.3922,space,1.284,,2340.3923,41,39,2341.3915,2341.3916,2341.4047,,,,0,45,45,45,1,145,45,,,,,,,,
,,60f2c5a1a74838f505499dec,65af55ec91bb652b9495baa9,2024-01-23_08h01.08.883,bars,2023.2.3,MacIntel,59.88023952,657b66ea316d21385b68909f,,,,,,,,,,,2341.4049,2342.4111,,,2342.9102,2343.1583,,138,138,,,,,,,,,,,,,,,,bars/043.png,bars/mask006.png,,,,,,,,,,,,1,2,,,,,,,4,4,5,2,,,,,,,,,,,2342.4111,2342.9101,2343.1583,2344.2952,space,1.1251,,2344.2952,72,8,2345.2948,2345.2948,2345.2964,,,,0,46,46,46,1,30,130,,,,,,,,
,,60f2c5a1a74838f505499dec,65af55ec91bb652b9495baa9,2024-01-23_08h01.08.883,bars,2023.2.3,MacIntel,59.88023952,657b66ea316d21385b68909f,,,,,,,,,,,2345.2968,2346.2935,,,2346.7919,2347.0449,,65,65,,,,,,,,,,,,,,,,bars/009.png,bars/mask006.png,,,,,,,,,,,,0,2,,,,,,,6,2,7,2,,,,,,,,,,,2346.2937,2346.7918,2347.0449,2349.411,space,2.3546,,2349.411,50,40,2350.411,2350.4111,2350.4243,,,,0,47,47,47,1,15,105,,,,,,,,
,,60f2c5a1a74838f505499dec,65af55ec91bb652b9495baa9,2024-01-23_08h01.08.883,bars,2023.2.3,MacIntel,59.88023952,657b66ea316d21385b68909f,,,,,,,,,,,2350.4245,2351.4287,,,2351.9253,2352.1772,,65,65,,,,,,,,,,,,,,,,bars/033.png,bars/mask009.png,,,,,,,,,,,,0,1,,,,,,,4,4,3,3,,,,,,,,,,,2351.4289,2351.9253,2352.1772,2355.4778,space,3.2834,,2355.4778,40,90,2356.4782,2356.4783,2356.4912,,,,0,48,48,48,1,25,155,,,,,,,,
,,60f2c5a1a74838f505499dec,65af55ec91bb652b9495baa9,2024-01-23_08h01.08.883,bars,2023.2.3,MacIntel,59.88023952,657b66ea316d21385b68909f,,,,,,,,,,,2356.4914,2357.4935,,,2357.9948,2358.2446,,65,65,,,,,,,,,,,,,,,,bars/017.png,bars/mask008.png,,,,,,,,,,,,1,2,,,,,,,2,2,1,2,,,,,,,,,,,2357.4936,2357.9947,2358.2446,2361.6435,space,3.3826,,2361.6436,80,20,2362.6445,2362.6447,2362.6588,,,,0,49,49,49,1,145,45,,,,,,,,
,,60f2c5a1a74838f505499dec,65af55ec91bb652b9495baa9,2024-01-23_08h01.08.883,bars,2023.2.3,MacIntel,59.88023952,657b66ea316d21385b68909f,,,,,,,,,,,,,,,,,,,,,,,,,,,,,,,,,,,,,,,,,,,,,,,,,,,,,,,,,,,,,,,,,,,,,,,,,,,,,,,,,,,,,,,,,,,,,2362.6589,2422.6613,0,3,3,1,1,sequence_tables/blk020.csv
,,60f2c5a1a74838f505499dec,65af55ec91bb652b9495baa9,2024-01-23_08h01.08.883,bars,2023.2.3,MacIntel,59.88023952,657b66ea316d21385b68909f,,,,,,,,,,,2457.9606,2458.963,,,2459.4634,2459.7129,,111,111,,,,,,,,,,,,,,,,bars/021.png,bars/mask007.png,,,,,,,,,,,,0,2,,,,,,,2,4,2,5,,,,,,2422.6758,2457.9481,space,35.2572,,2458.9631,2459.4633,2459.7129,2463.9001,space,4.1689,,2463.9003,44,41,2464.8969,2464.897,2464.9113,,,,0,0,0,0,1,155,70,,,,,,,,
,,60f2c5a1a74838f505499dec,65af55ec91bb652b9495baa9,2024-01-23_08h01.08.883,bars,2023.2.3,MacIntel,59.88023952,657b66ea316d21385b68909f,,,,,,,,,,,2464.9115,2465.9139,,,2466.4126,2466.6634,,47,47,,,,,,,,,,,,,,,,bars/024.png,bars/mask006.png,,,,,,,,,,,,0,2,,,,,,,4,6,4,7,,,,,,,,,,,2465.9141,2466.4126,2466.6634,2475.0307,space,8.3505,,2475.0307,73,57,2476.0306,2476.0307,2476.0444,,,,0,1,1,1,1,120,170,,,,,,,,
,,60f2c5a1a74838f505499dec,65af55ec91bb652b9495baa9,2024-01-23_08h01.08.883,bars,2023.2.3,MacIntel,59.88023952,657b66ea316d21385b68909f,,,,,,,,,,,2476.0446,2477.048,,,2477.5462,2477.7997,,119,119,,,,,,,,,,,,,,,,bars/003.png,bars/mask000.png,,,,,,,,,,,,2,2,,,,,,,6,8,5,8,,,,,,,,,,,2477.048,2477.5462,2477.7998,2478.9993,space,1.1899,,2478.9993,86,21,2479.9965,2479.9966,2480.0102,,,,0,2,2,2,1,25,140,,,,,,,,
,,60f2c5a1a74838f505499dec,65af55ec91bb652b9495baa9,2024-01-23_08h01.08.883,bars,2023.2.3,MacIntel,59.88023952,657b66ea316d21385b68909f,,,,,,,,,,,2480.0103,2481.0142,,,2481.5152,2481.7631,,167,167,,,,,,,,,,,,,,,,bars/032.png,bars/mask003.png,,,,,,,,,,,,0,2,,,,,,,4,6,2,7,,,,,,,,,,,2481.0142,2481.5152,2481.7632,2482.829,space,1.0523,,2482.829,42,33,2483.8299,2483.8299,2483.8313,,,,0,3,3,3,1,125,20,,,,,,,,
,,60f2c5a1a74838f505499dec,65af55ec91bb652b9495baa9,2024-01-23_08h01.08.883,bars,2023.2.3,MacIntel,59.88023952,657b66ea316d21385b68909f,,,,,,,,,,,2483.8318,2484.8304,,,2485.3301,2485.5834,,142,142,,,,,,,,,,,,,,,,bars/031.png,bars/mask008.png,,,,,,,,,,,,2,1,,,,,,,6,4,6,4,,,,,,,,,,,2484.8306,2485.33,2485.5834,2489.5315,space,3.936,,2489.5315,22,73,2490.5314,2490.5315,2490.5441,,,,0,4,4,4,1,120,35,,,,,,,,
,,60f2c5a1a74838f505499dec,65af55ec91bb652b9495baa9,2024-01-23_08h01.08.883,bars,2023.2.3,MacIntel,59.88023952,657b66ea316d21385b68909f,,,,,,,,,,,2490.5443,2491.5326,,,2492.0307,2492.2803,,164,164,,,,,,,,,,,,,,,,bars/009.png,bars/mask003.png,,,,,,,,,,,,0,1,,,,,,,8,2,9,3,,,,,,,,,,,2491.5328,2492.0306,2492.2804,2495.0508,space,2.7521,,2495.0509,31,59,2496.0481,2496.0481,2496.0609,,,,0,5,5,5,1,15,105,,,,,,,,
,,60f2c5a1a74838f505499dec,65af55ec91bb652b9495baa9,2024-01-23_08h01.08.883,bars,2023.2.3,MacIntel,59.88023952,657b66ea316d21385b68909f,,,,,,,,,,,2496.061,2497.0658,,,2497.5651,2497.8161,,151,151,,,,,,,,,,,,,,,,bars/049.png,bars/mask006.png,,,,,,,,,,,,5,1,,,,,,,6,0,7,0,,,,,,,,,,,2497.0658,2497.565,2497.8162,2498.6814,space,0.851,,2498.6814,9,36,2499.6812,2499.6812,2499.6826,,,,0,6,6,6,1,160,115,,,,,,,,
,,60f2c5a1a74838f505499dec,65af55ec91bb652b9495baa9,2024-01-23_08h01.08.883,bars,2023.2.3,MacIntel,59.88023952,657b66ea316d21385b68909f,,,,,,,,,,,2499.6833,2500.6813,,,2501.1816,2501.4315,,109,109,,,,,,,,,,,,,,,,bars/047.png,bars/mask005.png,,,,,,,,,,,,0,2,,,,,,,4,2,4,2,,,,,,,,,,,2500.6813,2501.1816,2501.4315,2502.6812,space,1.2399,,2502.6812,86,39,2503.6817,2503.6817,2503.6848,,,,0,7,7,7,1,15,70,,,,,,,,
