init_variables.started,init_variables.stopped,participant,session,date,expName,psychopyVersion,OS,frameRate,study_id,instruction_exp.started,instruction_exp.stopped,key_resp_8.keys,key_resp_8.rt,key_resp_8.duration,instruction_single.started,instruction_single.stopped,key_resp_2.keys,key_resp_2.rt,key_resp_2.duration,interval.started,interval.stopped,cue_single.started,cue_single.stopped,mask.started,mask.stopped,ori_response_single.started,res_ori,res,ori_response_single.stopped,key_resp_single.keys,key_resp_single.rt,key_resp_single.duration,disp_single.started,disp_single.stopped,key_resp.keys,key_resp.rt,key_resp.duration,single.thisRepN,single.thisTrialN,single.thisN,single.thisIndex,single.ran,ori,path,mask_path,instruction_bandit.started,instruction_bandit.stopped,key_resp_6.keys,key_resp_6.rt,key_resp_6.duration,cue_bandit.started,cue_bandit.stopped,bandit_res.keys,bandit_res.rt,bandit_res.duration,outcome_bandit.started,rew,action,outcome_bandit.stopped,bandit.thisRepN,bandit.thisTrialN,bandit.thisN,bandit.thisIndex,bandit.ran,actual_rew1,actual_rew2,rew1,rew2,instruction_task.started,instruction_task.stopped,key_resp_7.keys,key_resp_7.rt,key_resp_7.duration,wait_ready.started,wait_ready.stopped,key_resp_3.keys,key_resp_3.rt,key_resp_3.duration,cue.started,cue.stopped,ori_response.started,ori_response.stopped,key_resp_5.keys,key_resp_5.rt,key_resp_5.duration,outcome.started,diff1,diff2,outcome.stopped,disp_outcome_practice.started,disp_outcome_practice.stopped,key_resp_4.keys,key_resp_4.rt,key_resp_4.duration,trials.thisRepN,trials.thisTrialN,trials.thisN,trials.thisIndex,trials.ran,ori1,ori2,break_blk.started,break_blk.stopped,block.thisRepN,block.thisTrialN,block.thisN,block.thisIndex,block.ran,condition_file
0.0008,0.0014,614324d428b2dd34dce610a5,65af554cb73447736efa8ab9,2024-01-23_08h02.42.487,bars,2023.2.3,Win32,59.17159763,657b66ea316d21385b68909f,,,,,,,,,,,,,,,,,,,,,,,,,,,,,,,,,,,,,,,,,,,,,,,,,,,,,,,,,,,,,,,,,,,,,,,,,,,,,,,,,,,,,,,,,,,,,,,,,,,,
,,614324d428b2dd34dce610a5,65af554cb73447736efa8ab9,2024-01-23_08h02.42.487,bars,2023.2.3,Win32,59.17159763,657b66ea316d21385b68909f,0.0019,8.4864,y,8.294,,,,,,,,,,,,,,,,,,,,,,,,,,,,,,,,,,,,,,,,,,,,,,,,,,,,,,,,,,,,,,,,,,,,,,,,,,,,,,,,,,,,,,,,,,,,,,,,
,,614324d428b2dd34dce610a5,65af554cb73447736efa8ab9,2024-01-23_08h02.42.487,bars,2023.2.3,Win32,59.17159763,657b66ea316d21385b68909f,,,,,,8.4867,17.5227,space,9.0053,,,,,,,,,,,,,,,,,,,,,,,,,,,,,,,,,,,,,,,,,,,,,,,,,,,,,,,,,,,,,,,,,,,,,,,,,,,,,,,,,,,,,,,,,,,
,,614324d428b2dd34dce610a5,65af554cb73447736efa8ab9,2024-01-23_08h02.42.487,bars,2023.2.3,Win32,59.17159763,657b66ea316d21385b68909f,,,,,,,,,,,17.5399,18.5326,18.5329,19.0342,19.0344,19.2852,19.2855,159,159,29.5683,space,10.23,,29.5694,37.6107,space,7.9842,,0,0,0,5,1,55,bars/single005.png,bars/mask008.png,,,,,,,,,,,,,,,,,,,,,,,,,,,,,,,,,,,,,,,,,,,,,,,,,,,,,,,,,,,,,,,,
,,614324d428b2dd34dce610a5,65af554cb73447736efa8ab9,2024-01-23_08h02.42.487,bars,2023.2.3,Win32,59.17159763,657b66ea316d21385b68909f,,,,,,,,,,,37.638,38.6145,38.6146,39.1143,39.1143,39.365,39.365,33,213,46.4479,space,7.0684,,46.4481,50.3419,space,3.8476,,0,1,1,6,1,175,bars/single006.png,bars/mask005.png,,,,,,,,,,,,,,,,,,,,,,,,,,,,,,,,,,,,,,,,,,,,,,,,,,,,,,,,,,,,,,,,
,,614324d428b2dd34dce610a5,65af554cb73447736efa8ab9,2024-01-23_08h02.42.487,bars,2023.2.3,Win32,59.17159763,657b66ea316d21385b68909f,,,,,,,,,,,50.3675,51.3561,51.3563,51.8479,51.8481,52.098,52.0981,179,179,60.481,space,8.3651,,60.4812,64.2253,space,3.696,,0,2,2,9,1,20,bars/single009.png,bars/mask006.png,,,,,,,,,,,,,,,,,,,,,,,,,,,,,,,,,,,,,,,,,,,,,,,,,,,,,,,,,,,,,,,,
,,614324d428b2dd34dce610a5,65af554cb73447736efa8ab9,2024-01-23_08h02.42.487,bars,2023.2.3,Win32,59.17159763,657b66ea316d21385b68909f,,,,,,,,,,,64.25,65.2261,65.2263,65.7176,65.7177,65.9561,65.9562,74,74,69.7179,space,3.7378,,69.718,72.9497,space,3.182,,0,3,3,2,1,145,bars/single002.png,bars/mask003.png,,,,,,,,,,,,,,,,,,,,,,,,,,,,,,,,,,,,,,,,,,,,,,,,,,,,,,,,,,,,,,,,
,,614324d428b2dd34dce610a5,65af554cb73447736efa8ab9,2024-01-23_08h02.42.487,bars,2023.2.3,Win32,59.17159763,657b66ea316d21385b68909f,,,,,,,,,,,72.9771,73.964,73.964,74.4638,74.4639,74.7148,74.7149,41,41,78.6989,space,3.9729,,78.699,81.791,space,3.0484,,0,4,4,1,1,20,bars/single001.png,bars/mask006.png,,,,,,,,,,,,,,,,,,,,,,,,,,,,,,,,,,,,,,,,,,,,,,,,,,,,,,,,,,,,,,,,
,,614324d428b2dd34dce610a5,65af554cb73447736efa8ab9,2024-01-23_08h02.42.487,bars,2023.2.3,Win32,59.17159763,657b66ea316d21385b68909f,,,,,,,,,,,81.7923,82.7852,82.7853,83.2899,83.29,83.5394,83.5394,7,7,86.7914,space,3.2358,,86.7921,91.7317,space,4.8951,,0,5,5,3,1,20,bars/single003.png,bars/mask005.png,,,,,,,,,,,,,,,,,,,,,,,,,,,,,,,,,,,,,,,,,,,,,,,,,,,,,,,,,,,,,,,,
,,614324d428b2dd34dce610a5,65af554cb73447736efa8ab9,2024-01-23_08h02.42.487,bars,2023.2.3,Win32,59.17159763,657b66ea316d21385b68909f,,,,,,,,,,,91.7558,92.7467,92.7469,93.247,93.2471,93.4892,93.4893,72,72,100.533,space,7.0204,,100.5333,103.8081,space,3.2321,,0,6,6,7,1,45,bars/single007.png,bars/mask009.png,,,,,,,,,,,,,,,,,,,,,,,,,,,,,,,,,,,,,,,,,,,,,,,,,,,,,,,,,,,,,,,,
,,614324d428b2dd34dce610a5,65af554cb73447736efa8ab9,2024-01-23_08h02.42.487,bars,2023.2.3,Win32,59.17159763,657b66ea316d21385b68909f,,,,,,,,,,,103.8091,104.8054,104.8055,105.299,105.2991,105.5484,105.5485,141,141,111.1008,space,5.5388,,111.101,115.6137,space,4.462,,0,7,7,8,1,160,bars/single008.png,bars/mask004.png,,,,,,,,,,,,,,,,,,,,,,,,,,,,,,,,,,,,,,,,,,,,,,,,,,,,,,,,,,,,,,,,
,,614324d428b2dd34dce610a5,65af554cb73447736efa8ab9,2024-01-23_08h02.42.487,bars,2023.2.3,Win32,59.17159763,657b66ea316d21385b68909f,,,,,,,,,,,115.6376,116.6298,116.6298,117.1298,117.1299,117.3798,117.3803,177,-3,121.8134,space,4.4197,,121.8135,124.1519,space,2.2936,,0,8,8,0,1,150,bars/single000.png,bars/mask006.png,,,,,,,,,,,,,,,,,,,,,,,,,,,,,,,,,,,,,,,,,,,,,,,,,,,,,,,,,,,,,,,,
,,614324d428b2dd34dce610a5,65af554cb73447736efa8ab9,2024-01-23_08h02.42.487,bars,2023.2.3,Win32,59.17159763,657b66ea316d21385b68909f,,,,,,,,,,,124.1806,125.163,125.1631,125.663,125.6631,125.922,125.922,99,99,133.4988,space,7.5544,,133.4991,135.4245,space,1.8803,,0,9,9,4,1,95,bars/single004.png,bars/mask004.png,,,,,,,,,,,,,,,,,,,,,,,,,,,,,,,,,,,,,,,,,,,,,,,,,,,,,,,,,,,,,,,,
,,614324d428b2dd34dce610a5,65af554cb73447736efa8ab9,2024-01-23_08h02.42.487,bars,2023.2.3,Win32,59.17159763,657b66ea316d21385b68909f,,,,,,,,,,,,,,,,,,,,,,,,,,,,,,,,,,,,,135.4267,149.4815,space,14.0262,,,,,,,,,,,,,,,,,,,,,,,,,,,,,,,,,,,,,,,,,,,,,,,,,,,,,,,,,,,,
,,614324d428b2dd34dce610a5,65af554cb73447736efa8ab9,2024-01-23_08h02.42.487,bars,2023.2.3,Win32,59.17159763,657b66ea316d21385b68909f,,,,,,,,,,,,,,,,,,,,,,,,,,,,,,,,,,,,,,,,,,149.5132,150.9891,right,1.4291,,150.99,2,2,151.988,0,0,0,0,1,9,1,9,2,,,,,,,,,,,,,,,,,,,,,,,,,,,,,,,,,,,,,,,,,
,,614324d428b2dd34dce610a5,65af554cb73447736efa8ab9,2024-01-23_08h02.42.487,bars,2023.2.3,Win32,59.17159763,657b66ea316d21385b68909f,,,,,,,,,,,,,,,,,,,,,,,,,,,,,,,,,,,,,,,,,,151.9899,153.0063,left,1.0021,,153.0064,10,1,154.005,0,1,1,1,1,10,0,10,1,,,,,,,,,,,,,,,,,,,,,,,,,,,,,,,,,,,,,,,,,
,,614324d428b2dd34dce610a5,65af554cb73447736efa8ab9,2024-01-23_08h02.42.487,bars,2023.2.3,Win32,59.17159763,657b66ea316d21385b68909f,,,,,,,,,,,,,,,,,,,,,,,,,,,,,,,,,,,,,,,,,,154.0064,154.5234,left,0.5016,,154.5238,10,1,155.5218,0,2,2,2,1,10,2,10,2,,,,,,,,,,,,,,,,,,,,,,,,,,,,,,,,,,,,,,,,,
,,614324d428b2dd34dce610a5,65af554cb73447736efa8ab9,2024-01-23_08h02.42.487,bars,2023.2.3,Win32,59.17159763,657b66ea316d21385b68909f,,,,,,,,,,,,,,,,,,,,,,,,,,,,,,,,,,,,,,,,,,155.5232,156.0232,right,0.4859,,156.0233,3,2,157.0163,0,3,3,3,1,8,4,7,3,,,,,,,,,,,,,,,,,,,,,,,,,,,,,,,,,,,,,,,,,
,,614324d428b2dd34dce610a5,65af554cb73447736efa8ab9,2024-01-23_08h02.42.487,bars,2023.2.3,Win32,59.17159763,657b66ea316d21385b68909f,,,,,,,,,,,,,,,,,,,,,,,,,,,,,,,,,,,,,,,,,,157.0177,157.5393,left,0.5017,,157.5394,5,1,158.5378,0,4,4,4,1,6,2,5,1,,,,,,,,,,,,,,,,,,,,,,,,,,,,,,,,,,,,,,,,,
,,614324d428b2dd34dce610a5,65af554cb73447736efa8ab9,2024-01-23_08h02.42.487,bars,2023.2.3,Win32,59.17159763,657b66ea316d21385b68909f,,,,,,,,,,,,,,,,,,,,,,,,,,,,,,,,,,,,,,,,,,158.5393,159.0424,right,0.4875,,159.0425,4,2,160.0458,0,5,5,5,1,4,4,4,4,,,,,,,,,,,,,,,,,,,,,,,,,,,,,,,,,,,,,,,,,
,,614324d428b2dd34dce610a5,65af554cb73447736efa8ab9,2024-01-23_08h02.42.487,bars,2023.2.3,Win32,59.17159763,657b66ea316d21385b68909f,,,,,,,,,,,,,,,,,,,,,,,,,,,,,,,,,,,,,,,,,,160.0474,160.5466,left,0.4846,,160.5468,1,1,161.5459,0,6,6,6,1,2,2,1,2,,,,,,,,,,,,,,,,,,,,,,,,,,,,,,,,,,,,,,,,,
,,614324d428b2dd34dce610a5,65af554cb73447736efa8ab9,2024-01-23_08h02.42.487,bars,2023.2.3,Win32,59.17159763,657b66ea316d21385b68909f,,,,,,,,,,,,,,,,,,,,,,,,,,,,,,,,,,,,,,,,,,161.5474,161.9317,left,0.3744,,161.9319,0,1,162.9293,0,7,7,7,1,0,0,0,1,,,,,,,,,,,,,,,,,,,,,,,,,,,,,,,,,,,,,,,,,
,,614324d428b2dd34dce610a5,65af554cb73447736efa8ab9,2024-01-23_08h02.42.487,bars,2023.2.3,Win32,59.17159763,657b66ea316d21385b68909f,,,,,,,,,,,,,,,,,,,,,,,,,,,,,,,,,,,,,,,,,,162.9308,163.4132,right,0.467,,163.4134,0,2,164.4124,0,8,8,8,1,0,2,1,0,,,,,,,,,,,,,,,,,,,,,,,,,,,,,,,,,,,,,,,,,
,,614324d428b2dd34dce610a5,65af554cb73447736efa8ab9,2024-01-23_08h02.42.487,bars,2023.2.3,Win32,59.17159763,657b66ea316d21385b68909f,,,,,,,,,,,,,,,,,,,,,,,,,,,,,,,,,,,,,,,,,,164.4146,164.8649,right,0.4393,,164.865,3,2,165.8625,0,9,9,9,1,2,4,2,3,,,,,,,,,,,,,,,,,,,,,,,,,,,,,,,,,,,,,,,,,
,,614324d428b2dd34dce610a5,65af554cb73447736efa8ab9,2024-01-23_08h02.42.487,bars,2023.2.3,Win32,59.17159763,657b66ea316d21385b68909f,,,,,,,,,,,,,,,,,,,,,,,,,,,,,,,,,,,,,,,,,,165.864,166.3133,right,0.4334,,166.3134,3,2,167.3124,0,10,10,10,1,0,2,0,3,,,,,,,,,,,,,,,,,,,,,,,,,,,,,,,,,,,,,,,,,
,,614324d428b2dd34dce610a5,65af554cb73447736efa8ab9,2024-01-23_08h02.42.487,bars,2023.2.3,Win32,59.17159763,657b66ea316d21385b68909f,,,,,,,,,,,,,,,,,,,,,,,,,,,,,,,,,,,,,,,,,,167.3141,167.7466,right,0.4181,,167.7467,3,2,168.7463,0,11,11,11,1,0,4,0,3,,,,,,,,,,,,,,,,,,,,,,,,,,,,,,,,,,,,,,,,,
,,614324d428b2dd34dce610a5,65af554cb73447736efa8ab9,2024-01-23_08h02.42.487,bars,2023.2.3,Win32,59.17159763,657b66ea316d21385b68909f,,,,,,,,,,,,,,,,,,,,,,,,,,,,,,,,,,,,,,,,,,168.7481,169.1965,right,0.4347,,169.1967,6,2,170.1958,0,12,12,12,1,2,6,1,6,,,,,,,,,,,,,,,,,,,,,,,,,,,,,,,,,,,,,,,,,
,,614324d428b2dd34dce610a5,65af554cb73447736efa8ab9,2024-01-23_08h02.42.487,bars,2023.2.3,Win32,59.17159763,657b66ea316d21385b68909f,,,,,,,,,,,,,,,,,,,,,,,,,,,,,,,,,,,,,,,,,,170.1972,170.9633,right,0.7521,,170.9633,3,2,171.9657,0,13,13,13,1,0,4,1,3,,,,,,,,,,,,,,,,,,,,,,,,,,,,,,,,,,,,,,,,,
,,614324d428b2dd34dce610a5,65af554cb73447736efa8ab9,2024-01-23_08h02.42.487,bars,2023.2.3,Win32,59.17159763,657b66ea316d21385b68909f,,,,,,,,,,,,,,,,,,,,,,,,,,,,,,,,,,,,,,,,,,171.9677,172.2813,left,0.3026,,172.2814,2,1,173.279,0,14,14,14,1,2,6,2,7,,,,,,,,,,,,,,,,,,,,,,,,,,,,,,,,,,,,,,,,,
,,614324d428b2dd34dce610a5,65af554cb73447736efa8ab9,2024-01-23_08h02.42.487,bars,2023.2.3,Win32,59.17159763,657b66ea316d21385b68909f,,,,,,,,,,,,,,,,,,,,,,,,,,,,,,,,,,,,,,,,,,173.2805,173.6299,left,0.335,,173.6301,3,1,174.6289,0,15,15,15,1,4,8,3,9,,,,,,,,,,,,,,,,,,,,,,,,,,,,,,,,,,,,,,,,,
,,614324d428b2dd34dce610a5,65af554cb73447736efa8ab9,2024-01-23_08h02.42.487,bars,2023.2.3,Win32,59.17159763,657b66ea316d21385b68909f,,,,,,,,,,,,,,,,,,,,,,,,,,,,,,,,,,,,,,,,,,174.6304,175.0133,left,0.3671,,175.0135,7,1,176.0125,0,16,16,16,1,6,6,7,7,,,,,,,,,,,,,,,,,,,,,,,,,,,,,,,,,,,,,,,,,
,,614324d428b2dd34dce610a5,65af554cb73447736efa8ab9,2024-01-23_08h02.42.487,bars,2023.2.3,Win32,59.17159763,657b66ea316d21385b68909f,,,,,,,,,,,,,,,,,,,,,,,,,,,,,,,,,,,,,,,,,,176.014,176.3634,left,0.3375,,176.3635,9,1,177.3622,0,17,17,17,1,8,4,9,5,,,,,,,,,,,,,,,,,,,,,,,,,,,,,,,,,,,,,,,,,
,,614324d428b2dd34dce610a5,65af554cb73447736efa8ab9,2024-01-23_08h02.42.487,bars,2023.2.3,Win32,59.17159763,657b66ea316d21385b68909f,,,,,,,,,,,,,,,,,,,,,,,,,,,,,,,,,,,,,,,,,,177.3629,177.7132,left,0.3333,,177.7133,5,1,178.7123,0,18,18,18,1,6,2,5,1,,,,,,,,,,,,,,,,,,,,,,,,,,,,,,,,,,,,,,,,,
,,614324d428b2dd34dce610a5,65af554cb73447736efa8ab9,2024-01-23_08h02.42.487,bars,2023.2.3,Win32,59.17159763,657b66ea316d21385b68909f,,,,,,,,,,,,,,,,,,,,,,,,,,,,,,,,,,,,,,,,,,178.7138,178.9965,right,0.2679,,178.9966,0,2,179.9956,0,19,19,19,1,8,0,7,0,,,,,,,,,,,,,,,,,,,,,,,,,,,,,,,,,,,,,,,,,
,,614324d428b2dd34dce610a5,65af554cb73447736efa8ab9,2024-01-23_08h02.42.487,bars,2023.2.3,Win32,59.17159763,657b66ea316d21385b68909f,,,,,,,,,,,,,,,,,,,,,,,,,,,,,,,,,,,,,,,,,,,,,,,,,,,,,,,,,,,,179.9972,191.982,space,11.9622,,,,,,,,,,,,,,,,,,,,,,,,,,,,,,,,,,,,,
,,614324d428b2dd34dce610a5,65af554cb73447736efa8ab9,2024-01-23_08h02.42.487,bars,2023.2.3,Win32,59.17159763,657b66ea316d21385b68909f,,,,,,,,,,,193.4455,194.4455,,,194.9378,195.1809,,103,103,,,,,,,,,,,,,,,,bars/015.png,bars/mask001.png,,,,,,,,,,,,5,1,,,,,,,7,5,7,6,,,,,,192.014,193.4309,space,1.4007,,194.4473,194.9377,195.1814,199.5967,space,4.3907,,199.5976,7,57,200.5957,200.5962,215.5741,space,14.9458,,0,0,0,0,1,110,160,,,,,,,,
,,614324d428b2dd34dce610a5,65af554cb73447736efa8ab9,2024-01-23_08h02.42.487,bars,2023.2.3,Win32,59.17159763,657b66ea316d21385b68909f,,,,,,,,,,,215.6002,216.587,,,217.0787,217.3285,,162,-18,,,,,,,,,,,,,,,,bars/000.png,bars/mask009.png,,,,,,,,,,,,1,2,,,,,,,9,3,10,2,,,,,,,,,,,216.5871,217.0785,217.3286,221.6457,space,4.3015,,221.6461,58,17,222.6451,222.6452,227.2392,space,4.5482,,0,1,1,1,1,40,145,,,,,,,,
,,614324d428b2dd34dce610a5,65af554cb73447736efa8ab9,2024-01-23_08h02.42.487,bars,2023.2.3,Win32,59.17159763,657b66ea316d21385b68909f,,,,,,,,,,,227.2639,228.2538,,,228.7467,228.9965,,45,225,,,,,,,,,,,,,,,,bars/043.png,bars/mask003.png,,,,,,,,,,,,3,1,,,,,,,7,1,6,2,,,,,,,,,,,228.254,228.7466,228.9966,232.9975,space,3.9839,,232.9978,15,85,233.9967,233.9968,236.7285,space,2.6787,,0,2,2,2,1,30,130,,,,,,,,
,,614324d428b2dd34dce610a5,65af554cb73447736efa8ab9,2024-01-23_08h02.42.487,bars,2023.2.3,Win32,59.17159763,657b66ea316d21385b68909f,,,,,,,,,,,236.7301,237.7281,,,238.2283,238.478,,134,134,,,,,,,,,,,,,,,,bars/042.png,bars/mask001.png,,,,,,,,,,,,3,1,,,,,,,5,3,5,2,,,,,,,,,,,237.7282,238.2282,238.4781,240.8951,space,2.4032,,240.8953,11,59,241.8949,241.895,245.5302,space,3.5963,,0,3,3,3,1,145,75,,,,,,,,
,,614324d428b2dd34dce610a5,65af554cb73447736efa8ab9,2024-01-23_08h02.42.487,bars,2023.2.3,Win32,59.17159763,657b66ea316d21385b68909f,,,,,,,,,,,245.5321,246.5281,,,247.0283,247.2703,,110,110,,,,,,,,,,,,,,,,bars/042.png,bars/mask002.png,,,,,,,,,,,,0,2,,,,,,,7,1,6,2,,,,,,,,,,,246.5281,247.0282,247.2704,249.9717,space,2.6856,,249.9719,35,35,250.9648,250.9649,255.1727,space,4.167,,0,4,4,4,1,145,75,,,,,,,,
,,614324d428b2dd34dce610a5,65af554cb73447736efa8ab9,2024-01-23_08h02.42.487,bars,2023.2.3,Win32,59.17159763,657b66ea316d21385b68909f,,,,,,,,,,,255.1971,256.1867,,,256.6802,256.9297,,15,15,,,,,,,,,,,,,,,,bars/029.png,bars/mask004.png,,,,,,,,,,,,0,2,,,,,,,5,0,5,0,,,,,,,,,,,256.1869,256.6799,256.9298,262.0634,space,5.1173,,262.0636,75,30,263.0631,263.0632,266.7617,space,3.6529,,0,5,5,5,1,90,45,,,,,,,,
,,614324d428b2dd34dce610a5,65af554cb73447736efa8ab9,2024-01-23_08h02.42.487,bars,2023.2.3,Win32,59.17159763,657b66ea316d21385b68909f,,,,,,,,,,,266.7849,267.7777,,,268.278,268.5279,,120,120,,,,,,,,,,,,,,,,bars/045.png,bars/mask004.png,,,,,,,,,,,,3,1,,,,,,,7,2,8,3,,,,,,,,,,,267.7778,268.2779,268.5279,270.9947,space,2.4533,,270.9949,20,70,271.9943,271.9944,276.4226,space,4.383,,0,6,6,6,1,100,10,,,,,,,,
,,614324d428b2dd34dce610a5,65af554cb73447736efa8ab9,2024-01-23_08h02.42.487,bars,2023.2.3,Win32,59.17159763,657b66ea316d21385b68909f,,,,,,,,,,,276.448,277.4369,,,277.9278,278.1776,,16,16,,,,,,,,,,,,,,,,bars/044.png,bars/mask000.png,,,,,,,,,,,,0,2,,,,,,,9,0,10,1,,,,,,,,,,,277.437,277.9278,278.1777,282.3876,space,4.1977,,282.3877,59,41,283.3807,283.3808,288.9545,space,5.5297,,0,7,7,7,1,75,155,,,,,,,,
,,614324d428b2dd34dce610a5,65af554cb73447736efa8ab9,2024-01-23_08h02.42.487,bars,2023.2.3,Win32,59.17159763,657b66ea316d21385b68909f,,,,,,,,,,,288.9806,289.9691,,,290.4692,290.7195,,106,106,,,,,,,,,,,,,,,,bars/012.png,bars/mask009.png,,,,,,,,,,,,3,1,,,,,,,7,0,6,0,,,,,,,,,,,289.9693,290.4691,290.7197,296.0874,space,5.3516,,296.0875,16,89,297.0864,297.0865,302.1286,space,4.9906,,0,8,8,8,1,90,15,,,,,,,,
,,614324d428b2dd34dce610a5,65af554cb73447736efa8ab9,2024-01-23_08h02.42.487,bars,2023.2.3,Win32,59.17159763,657b66ea316d21385b68909f,,,,,,,,,,,302.152,303.1293,,,303.6293,303.8797,,92,92,,,,,,,,,,,,,,,,bars/029.png,bars/mask004.png,,,,,,,,,,,,4,1,,,,,,,5,2,4,1,,,,,,,,,,,303.1294,303.6292,303.8798,309.4626,space,5.5681,,309.463,2,47,310.4627,310.4629,312.8545,space,2.3499,,0,9,9,9,1,90,45,,,,,,,,
,,614324d428b2dd34dce610a5,65af554cb73447736efa8ab9,2024-01-23_08h02.42.487,bars,2023.2.3,Win32,59.17159763,657b66ea316d21385b68909f,,,,,,,,,,,312.856,313.8521,,,314.3528,314.6027,,104,104,,,,,,,,,,,,,,,,bars/037.png,bars/mask001.png,,,,,,,,,,,,0,2,,,,,,,3,0,4,0,,,,,,,,,,,313.8522,314.3525,314.6028,317.3044,space,2.6855,,317.3045,46,1,318.2973,318.2974,321.2792,space,2.934,,0,10,10,10,1,150,105,,,,,,,,
,,614324d428b2dd34dce610a5,65af554cb73447736efa8ab9,2024-01-23_08h02.42.487,bars,2023.2.3,Win32,59.17159763,657b66ea316d21385b68909f,,,,,,,,,,,321.2806,322.279,,,322.7787,323.0294,,109,109,,,,,,,,,,,,,,,,bars/041.png,bars/mask003.png,,,,,,,,,,,,0,2,,,,,,,1,0,1,0,,,,,,,,,,,322.2793,322.7785,323.0295,326.0471,space,3.0032,,326.0472,89,24,327.0457,327.0458,330.1204,space,3.0309,,0,11,11,11,1,20,85,,,,,,,,
,,614324d428b2dd34dce610a5,65af554cb73447736efa8ab9,2024-01-23_08h02.42.487,bars,2023.2.3,Win32,59.17159763,657b66ea316d21385b68909f,,,,,,,,,,,330.1223,331.1186,,,331.6124,331.8624,,69,69,,,,,,,,,,,,,,,,bars/027.png,bars/mask001.png,,,,,,,,,,,,0,2,,,,,,,3,0,3,0,,,,,,,,,,,331.1187,331.6123,331.8626,338.1623,space,6.2855,,338.1625,41,19,339.1618,339.1619,343.8103,space,4.6055,,0,12,12,12,1,110,50,,,,,,,,
,,614324d428b2dd34dce610a5,65af554cb73447736efa8ab9,2024-01-23_08h02.42.487,bars,2023.2.3,Win32,59.17159763,657b66ea316d21385b68909f,,,,,,,,,,,343.8326,344.8118,,,345.3119,345.5616,,104,284,,,,,,,,,,,,,,,,bars/008.png,bars/mask007.png,,,,,,,,,,,,3,1,,,,,,,5,0,4,0,,,,,,,,,,,344.8119,345.3118,345.5617,354.0787,space,8.5016,,354.0791,6,76,355.0785,355.0786,356.6102,space,1.4787,,0,13,13,13,1,110,0,,,,,,,,
,,614324d428b2dd34dce610a5,65af554cb73447736efa8ab9,2024-01-23_08h02.42.487,bars,2023.2.3,Win32,59.17159763,657b66ea316d21385b68909f,,,,,,,,,,,356.6121,357.61,,,358.1101,358.3599,,75,75,,,,,,,,,,,,,,,,bars/003.png,bars/mask001.png,,,,,,,,,,,,0,1,,,,,,,3,0,3,2,,,,,,,,,,,357.6101,358.1101,358.36,361.5106,space,3.1359,,361.5108,50,65,362.5098,362.5099,365.4104,space,2.8576,,0,14,14,14,1,25,140,,,,,,,,
,,614324d428b2dd34dce610a5,65af554cb73447736efa8ab9,2024-01-23_08h02.42.487,bars,2023.2.3,Win32,59.17159763,657b66ea316d21385b68909f,,,,,,,,,,,365.4342,366.4117,,,366.9114,367.1619,,138,138,,,,,,,,,,,,,,,,bars/007.png,bars/mask004.png,,,,,,,,,,,,0,1,,,,,,,5,2,4,3,,,,,,,,,,,366.4118,366.9113,367.162,374.5645,space,7.385,,374.5646,37,83,375.5617,375.562,379.5206,space,3.9155,,0,15,15,15,1,175,55,,,,,,,,
,,614324d428b2dd34dce610a5,65af554cb73447736efa8ab9,2024-01-23_08h02.42.487,bars,2023.2.3,Win32,59.17159763,657b66ea316d21385b68909f,,,,,,,,,,,379.5214,380.5181,,,381.0121,381.2613,,167,167,,,,,,,,,,,,,,,,bars/049.png,bars/mask008.png,,,,,,,,,,,,6,1,,,,,,,7,4,8,3,,,,,,,,,,,380.5183,381.012,381.2615,384.4462,space,3.1736,,384.4464,7,52,385.4444,385.4445,387.3268,space,1.8383,,0,16,16,16,1,160,115,,,,,,,,
,,614324d428b2dd34dce610a5,65af554cb73447736efa8ab9,2024-01-23_08h02.42.487,bars,2023.2.3,Win32,59.17159763,657b66ea316d21385b68909f,,,,,,,,,,,387.3284,388.3262,,,388.8268,389.0761,,19,199,,,,,,,,,,,,,,,,bars/021.png,bars/mask002.png,,,,,,,,,,,,0,1,,,,,,,9,2,9,3,,,,,,,,,,,388.3262,388.8268,389.0762,392.0264,space,2.9346,,392.0266,44,51,393.026,393.0262,395.2702,space,2.2051,,0,17,17,17,1,155,70,,,,,,,,
,,614324d428b2dd34dce610a5,65af554cb73447736efa8ab9,2024-01-23_08h02.42.487,bars,2023.2.3,Win32,59.17159763,657b66ea316d21385b68909f,,,,,,,,,,,395.2716,396.2686,,,396.7683,397.0184,,156,156,,,,,,,,,,,,,,,,bars/021.png,bars/mask009.png,,,,,,,,,,,,10,1,,,,,,,10,0,10,1,,,,,,,,,,,396.2688,396.768,397.0185,400.1378,space,3.1021,,400.1379,1,86,401.1344,401.1345,403.7698,space,2.6031,,0,18,18,18,1,155,70,,,,,,,,
,,614324d428b2dd34dce610a5,65af554cb73447736efa8ab9,2024-01-23_08h02.42.487,bars,2023.2.3,Win32,59.17159763,657b66ea316d21385b68909f,,,,,,,,,,,403.7937,404.776,,,405.2679,405.5175,,12,12,,,,,,,,,,,,,,,,bars/023.png,bars/mask006.png,,,,,,,,,,,,5,1,,,,,,,10,0,7,0,,,,,,,,,,,404.7761,405.2678,405.5177,410.9196,space,5.3854,,410.9197,8,77,411.9178,411.918,412.9931,space,1.0314,,0,19,19,19,1,20,115,,,,,,,,
,,614324d428b2dd34dce610a5,65af554cb73447736efa8ab9,2024-01-23_08h02.42.487,bars,2023.2.3,Win32,59.17159763,657b66ea316d21385b68909f,,,,,,,,,,,412.9946,413.9922,,,414.4924,414.7425,,18,18,,,,,,,,,,,,,,,,bars/030.png,bars/mask000.png,,,,,,,,,,,,0,2,,,,,,,8,2,7,3,,,,,,,,,,,413.9922,414.4924,414.7425,418.7592,space,4.0014,,418.7593,58,47,419.759,419.759,422.4427,space,2.6375,,0,20,20,20,1,140,65,,,,,,,,
,,614324d428b2dd34dce610a5,65af554cb73447736efa8ab9,2024-01-23_08h02.42.487,bars,2023.2.3,Win32,59.17159763,657b66ea316d21385b68909f,,,,,,,,,,,422.4672,423.4589,,,423.9591,424.2091,,79,79,,,,,,,,,,,,,,,,bars/026.png,bars/mask004.png,,,,,,,,,,,,3,2,,,,,,,10,4,10,4,,,,,,,,,,,423.459,423.959,424.2091,426.8258,space,2.602,,426.826,44,6,427.8258,427.826,437.1591,space,9.2923,,0,21,21,21,1,35,85,,,,,,,,
,,614324d428b2dd34dce610a5,65af554cb73447736efa8ab9,2024-01-23_08h02.42.487,bars,2023.2.3,Win32,59.17159763,657b66ea316d21385b68909f,,,,,,,,,,,437.1841,438.1755,,,438.6761,438.9261,,44,224,,,,,,,,,,,,,,,,bars/012.png,bars/mask009.png,,,,,,,,,,,,0,2,,,,,,,8,2,7,2,,,,,,,,,,,438.1755,438.676,438.9262,445.9923,space,7.0536,,445.9925,46,29,446.9929,446.993,449.509,space,2.4707,,0,22,22,22,1,90,15,,,,,,,,
,,614324d428b2dd34dce610a5,65af554cb73447736efa8ab9,2024-01-23_08h02.42.487,bars,2023.2.3,Win32,59.17159763,657b66ea316d21385b68909f,,,,,,,,,,,449.5105,450.5088,,,451.0088,451.2589,,29,29,,,,,,,,,,,,,,,,bars/011.png,bars/mask008.png,,,,,,,,,,,,0,1,,,,,,,10,0,9,0,,,,,,,,,,,450.5089,451.0088,451.2589,454.3421,space,3.0674,,454.3422,49,56,455.3419,455.3419,457.6523,space,2.2658,,0,23,23,23,1,160,85,,,,,,,,
,,614324d428b2dd34dce610a5,65af554cb73447736efa8ab9,2024-01-23_08h02.42.487,bars,2023.2.3,Win32,59.17159763,657b66ea316d21385b68909f,,,,,,,,,,,457.6532,458.6508,,,459.1437,459.3936,,143,143,,,,,,,,,,,,,,,,bars/010.png,bars/mask002.png,,,,,,,,,,,,3,1,,,,,,,10,0,10,0,,,,,,,,,,,458.6509,459.1436,459.3937,463.6281,space,4.2173,,463.6282,22,88,464.6271,464.6272,466.3687,space,1.6973,,0,24,24,24,1,165,55,,,,,,,,
,,614324d428b2dd34dce610a5,65af554cb73447736efa8ab9,2024-01-23_08h02.42.487,bars,2023.2.3,Win32,59.17159763,657b66ea316d21385b68909f,,,,,,,,,,,466.37,467.3623,,,467.851,468.1012,,155,155,,,,,,,,,,,,,,,,bars/008.png,bars/mask006.png,,,,,,,,,,,,0,2,,,,,,,8,0,8,2,,,,,,,,,,,467.3623,467.8508,468.1012,472.3018,space,4.1853,,472.3019,45,25,473.3006,473.3006,475.8753,space,2.5257,,0,25,25,25,1,110,0,,,,,,,,
,,614324d428b2dd34dce610a5,65af554cb73447736efa8ab9,2024-01-23_08h02.42.487,bars,2023.2.3,Win32,59.17159763,657b66ea316d21385b68909f,,,,,,,,,,,475.8768,476.8748,,,477.3751,477.6251,,107,107,,,,,,,,,,,,,,,,bars/006.png,bars/mask008.png,,,,,,,,,,,,2,2,,,,,,,10,0,10,2,,,,,,,,,,,476.8749,477.3749,477.6252,481.0585,space,3.4185,,481.0586,72,7,482.0582,482.0583,484.1418,space,2.0411,,0,26,26,26,1,35,100,,,,,,,,
,,614324d428b2dd34dce610a5,65af554cb73447736efa8ab9,2024-01-23_08h02.42.487,bars,2023.2.3,Win32,59.17159763,657b66ea316d21385b68909f,,,,,,,,,,,484.1438,485.1414,,,485.6416,485.8916,,24,24,,,,,,,,,,,,,,,,bars/003.png,bars/mask000.png,,,,,,,,,,,,6,1,,,,,,,8,2,6,2,,,,,,,,,,,485.1415,485.6414,485.8916,489.1584,space,3.2522,,489.1585,1,64,490.1581,490.1582,491.4261,space,1.2251,,0,27,27,27,1,25,140,,,,,,,,
,,614324d428b2dd34dce610a5,65af554cb73447736efa8ab9,2024-01-23_08h02.42.487,bars,2023.2.3,Win32,59.17159763,657b66ea316d21385b68909f,,,,,,,,,,,491.4275,492.4246,,,492.9247,493.1747,,53,53,,,,,,,,,,,,,,,,bars/001.png,bars/mask003.png,,,,,,,,,,,,0,2,,,,,,,6,4,6,4,,,,,,,,,,,492.4247,492.9246,493.1748,498.8248,space,5.6354,,498.825,77,32,499.8245,499.8247,502.4533,space,2.5824,,0,28,28,28,1,130,85,,,,,,,,
,,614324d428b2dd34dce610a5,65af554cb73447736efa8ab9,2024-01-23_08h02.42.487,bars,2023.2.3,Win32,59.17159763,657b66ea316d21385b68909f,,,,,,,,,,,502.4796,503.4663,,,503.9668,504.2171,,117,117,,,,,,,,,,,,,,,,bars/025.png,bars/mask007.png,,,,,,,,,,,,3,1,,,,,,,4,6,5,7,,,,,,,,,,,503.4663,503.9667,504.2172,506.9678,space,2.7353,,506.968,12,77,507.9666,507.9666,508.7748,space,0.7613,,0,29,29,29,1,105,40,,,,,,,,
,,614324d428b2dd34dce610a5,65af554cb73447736efa8ab9,2024-01-23_08h02.42.487,bars,2023.2.3,Win32,59.17159763,657b66ea316d21385b68909f,,,,,,,,,,,508.7767,509.7746,,,510.2746,510.525,,42,42,,,,,,,,,,,,,,,,bars/028.png,bars/mask002.png,,,,,,,,,,,,6,1,,,,,,,6,8,7,8,,,,,,,,,,,509.7746,510.2744,510.5251,513.708,space,3.1685,,513.7081,3,78,514.7078,514.7079,515.5247,space,0.7756,,0,30,30,30,1,45,120,,,,,,,,
,,614324d428b2dd34dce610a5,65af554cb73447736efa8ab9,2024-01-23_08h02.42.487,bars,2023.2.3,Win32,59.17159763,657b66ea316d21385b68909f,,,,,,,,,,,515.5261,516.5244,,,517.0245,517.2743,,34,34,,,,,,,,,,,,,,,,bars/019.png,bars/mask009.png,,,,,,,,,,,,4,1,,,,,,,8,6,7,6,,,,,,,,,,,516.5244,517.0244,517.2744,519.6018,space,2.3164,,519.6019,11,71,520.5955,520.5957,521.5413,space,0.9038,,0,31,31,31,1,45,105,,,,,,,,
,,614324d428b2dd34dce610a5,65af554cb73447736efa8ab9,2024-01-23_08h02.42.487,bars,2023.2.3,Win32,59.17159763,657b66ea316d21385b68909f,,,,,,,,,,,521.5432,522.5411,,,523.0411,523.291,,126,126,,,,,,,,,,,,,,,,bars/014.png,bars/mask005.png,,,,,,,,,,,,0,1,,,,,,,6,4,7,3,,,,,,,,,,,522.5411,523.041,523.2911,526.3425,space,3.04,,526.3426,46,54,527.3408,527.341,529.3247,space,1.9409,,0,32,32,32,1,80,0,,,,,,,,
,,614324d428b2dd34dce610a5,65af554cb73447736efa8ab9,2024-01-23_08h02.42.487,bars,2023.2.3,Win32,59.17159763,657b66ea316d21385b68909f,,,,,,,,,,,529.3263,530.3242,,,530.8243,531.0749,,58,58,,,,,,,,,,,,,,,,bars/029.png,bars/mask005.png,,,,,,,,,,,,2,2,,,,,,,8,6,8,4,,,,,,,,,,,530.3242,530.8241,531.075,533.8244,space,2.7332,,533.8245,32,13,534.8242,534.8243,535.9577,space,1.0822,,0,33,33,33,1,90,45,,,,,,,,
,,614324d428b2dd34dce610a5,65af554cb73447736efa8ab9,2024-01-23_08h02.42.487,bars,2023.2.3,Win32,59.17159763,657b66ea316d21385b68909f,,,,,,,,,,,535.9591,536.9575,,,537.4575,537.7074,,59,59,,,,,,,,,,,,,,,,bars/040.png,bars/mask003.png,,,,,,,,,,,,0,2,,,,,,,10,8,10,7,,,,,,,,,,,536.9575,537.4575,537.7075,540.5244,space,2.8026,,540.5245,81,54,541.5241,541.5241,543.8243,space,2.2588,,0,34,34,34,1,140,5,,,,,,,,
,,614324d428b2dd34dce610a5,65af554cb73447736efa8ab9,2024-01-23_08h02.42.487,bars,2023.2.3,Win32,59.17159763,657b66ea316d21385b68909f,,,,,,,,,,,543.8267,544.8246,,,545.3241,545.5741,,161,-19,,,,,,,,,,,,,,,,bars/042.png,bars/mask003.png,,,,,,,,,,,,3,1,,,,,,,8,10,6,10,,,,,,,,,,,544.8247,545.3241,545.5741,549.8585,space,4.2673,,549.8586,16,86,550.8572,550.8572,551.8342,space,0.9322,,0,35,35,35,1,145,75,,,,,,,,
,,614324d428b2dd34dce610a5,65af554cb73447736efa8ab9,2024-01-23_08h02.42.487,bars,2023.2.3,Win32,59.17159763,657b66ea316d21385b68909f,,,,,,,,,,,551.8353,552.8337,,,553.3241,553.5739,,53,53,,,,,,,,,,,,,,,,bars/036.png,bars/mask009.png,,,,,,,,,,,,0,2,,,,,,,6,8,7,8,,,,,,,,,,,552.8338,553.3241,553.574,557.7741,space,4.1863,,557.7743,88,33,558.7738,558.7738,561.8517,space,3.0327,,0,36,36,36,1,145,20,,,,,,,,
,,614324d428b2dd34dce610a5,65af554cb73447736efa8ab9,2024-01-23_08h02.42.487,bars,2023.2.3,Win32,59.17159763,657b66ea316d21385b68909f,,,,,,,,,,,561.8527,562.8492,,,563.3496,563.5995,,129,129,,,,,,,,,,,,,,,,bars/044.png,bars/mask001.png,,,,,,,,,,,,1,2,,,,,,,4,6,4,6,,,,,,,,,,,562.8492,563.3496,563.5996,566.1012,space,2.4859,,566.1014,54,26,567.0988,567.099,568.8173,space,1.6794,,0,37,37,37,1,75,155,,,,,,,,
,,614324d428b2dd34dce610a5,65af554cb73447736efa8ab9,2024-01-23_08h02.42.487,bars,2023.2.3,Win32,59.17159763,657b66ea316d21385b68909f,,,,,,,,,,,568.8187,569.8152,,,570.3155,570.5656,,172,172,,,,,,,,,,,,,,,,bars/014.png,bars/mask002.png,,,,,,,,,,,,3,2,,,,,,,6,4,6,4,,,,,,,,,,,569.8153,570.3154,570.5656,573.9186,space,3.3357,,573.9187,88,8,574.9158,574.9159,576.203,space,1.2493,,0,38,38,38,1,80,0,,,,,,,,
,,614324d428b2dd34dce610a5,65af554cb73447736efa8ab9,2024-01-23_08h02.42.487,bars,2023.2.3,Win32,59.17159763,657b66ea316d21385b68909f,,,,,,,,,,,576.2047,577.1988,,,577.699,577.9498,,149,149,,,,,,,,,,,,,,,,bars/048.png,bars/mask002.png,,,,,,,,,,,,1,2,,,,,,,8,6,7,6,,,,,,,,,,,577.1988,577.699,577.9499,580.5185,space,2.5534,,580.5187,81,26,581.5076,581.5078,583.4404,space,1.8875,,0,39,39,39,1,50,175,,,,,,,,
,,614324d428b2dd34dce610a5,65af554cb73447736efa8ab9,2024-01-23_08h02.42.487,bars,2023.2.3,Win32,59.17159763,657b66ea316d21385b68909f,,,,,,,,,,,583.4421,584.44,,,584.9404,585.19,,24,24,,,,,,,,,,,,,,,,bars/040.png,bars/mask008.png,,,,,,,,,,,,1,2,,,,,,,10,4,9,3,,,,,,,,,,,584.4401,584.9402,585.1902,587.8237,space,2.6188,,587.8239,64,19,588.8235,588.8236,589.9906,space,1.1249,,0,40,40,40,1,140,5,,,,,,,,
,,614324d428b2dd34dce610a5,65af554cb73447736efa8ab9,2024-01-23_08h02.42.487,bars,2023.2.3,Win32,59.17159763,657b66ea316d21385b68909f,,,,,,,,,,,589.9929,590.9901,,,591.4901,591.74,,38,38,,,,,,,,,,,,,,,,bars/027.png,bars/mask006.png,,,,,,,,,,,,0,2,,,,,,,8,2,9,0,,,,,,,,,,,590.9901,591.49,591.7402,594.7237,space,2.9696,,594.7238,72,12,595.7233,595.7235,598.2583,space,2.4964,,0,41,41,41,1,110,50,,,,,,,,
,,614324d428b2dd34dce610a5,65af554cb73447736efa8ab9,2024-01-23_08h02.42.487,bars,2023.2.3,Win32,59.17159763,657b66ea316d21385b68909f,,,,,,,,,,,598.2606,599.2566,,,599.7493,599.9986,,59,59,,,,,,,,,,,,,,,,bars/025.png,bars/mask009.png,,,,,,,,,,,,0,2,,,,,,,10,0,10,0,,,,,,,,,,,599.2567,599.7492,599.9988,602.3171,space,2.3021,,602.3172,46,19,603.3149,603.3151,605.7175,space,2.3648,,0,42,42,42,1,105,40,,,,,,,,
,,614324d428b2dd34dce610a5,65af554cb73447736efa8ab9,2024-01-23_08h02.42.487,bars,2023.2.3,Win32,59.17159763,657b66ea316d21385b68909f,,,,,,,,,,,605.7196,606.7099,,,607.1984,607.4486,,40,40,,,,,,,,,,,,,,,,bars/017.png,bars/mask006.png,,,,,,,,,,,,2,2,,,,,,,8,2,8,2,,,,,,,,,,,606.71,607.1984,607.4487,611.3456,space,3.8803,,611.3457,75,5,612.3487,612.3488,614.9669,space,2.5798,,0,43,43,43,1,145,45,,,,,,,,
,,614324d428b2dd34dce610a5,65af554cb73447736efa8ab9,2024-01-23_08h02.42.487,bars,2023.2.3,Win32,59.17159763,657b66ea316d21385b68909f,,,,,,,,,,,614.9915,615.973,,,616.473,616.723,,111,111,,,,,,,,,,,,,,,,bars/029.png,bars/mask000.png,,,,,,,,,,,,3,1,,,,,,,10,0,10,1,,,,,,,,,,,615.973,616.473,616.7231,620.0906,space,3.3561,,620.0906,21,66,621.0896,621.0896,625.0066,space,3.8641,,0,44,44,44,1,90,45,,,,,,,,
,,614324d428b2dd34dce610a5,65af554cb73447736efa8ab9,2024-01-23_08h02.42.487,bars,2023.2.3,Win32,59.17159763,657b66ea316d21385b68909f,,,,,,,,,,,625.0288,626.0078,,,626.5088,626.758,,105,105,,,,,,,,,,,,,,,,bars/034.png,bars/mask000.png,,,,,,,,,,,,3,1,,,,,,,8,0,8,0,,,,,,,,,,,626.0079,626.5085,626.758,628.9928,space,2.2182,,628.9929,20,40,629.9919,629.992,631.2408,space,1.2063,,0,45,45,45,1,125,65,,,,,,,,
,,614324d428b2dd34dce610a5,65af554cb73447736efa8ab9,2024-01-23_08h02.42.487,bars,2023.2.3,Win32,59.17159763,657b66ea316d21385b68909f,,,,,,,,,,,631.2425,632.2395,,,632.7397,632.9895,,25,205,,,,,,,,,,,,,,,,bars/012.png,bars/mask001.png,,,,,,,,,,,,2,2,,,,,,,10,2,10,3,,,,,,,,,,,632.2395,632.7396,632.9895,636.523,space,3.519,,636.5231,65,10,637.5228,637.5228,644.2995,space,6.7308,,0,46,46,46,1,90,15,,,,,,,,
,,614324d428b2dd34dce610a5,65af554cb73447736efa8ab9,2024-01-23_08h02.42.487,bars,2023.2.3,Win32,59.17159763,657b66ea316d21385b68909f,,,,,,,,,,,644.3236,645.3146,,,645.8145,646.0644,,21,201,,,,,,,,,,,,,,,,bars/049.png,bars/mask006.png,,,,,,,,,,,,0,1,,,,,,,8,0,8,0,,,,,,,,,,,645.3146,645.8143,646.0645,648.6337,space,2.5526,,648.6338,41,86,649.6312,649.6314,651.1229,space,1.4467,,0,47,47,47,1,160,115,,,,,,,,
,,614324d428b2dd34dce610a5,65af554cb73447736efa8ab9,2024-01-23_08h02.42.487,bars,2023.2.3,Win32,59.17159763,657b66ea316d21385b68909f,,,,,,,,,,,651.1248,652.1225,,,652.6227,652.8726,,19,19,,,,,,,,,,,,,,,,bars/045.png,bars/mask001.png,,,,,,,,,,,,4,2,,,,,,,6,2,5,5,,,,,,,,,,,652.1225,652.6226,652.8727,656.7394,space,3.8522,,656.7396,81,9,657.7391,657.7392,658.6394,space,0.8529,,0,48,48,48,1,100,10,,,,,,,,
,,614324d428b2dd34dce610a5,65af554cb73447736efa8ab9,2024-01-23_08h02.42.487,bars,2023.2.3,Win32,59.17159763,657b66ea316d21385b68909f,,,,,,,,,,,658.6413,659.639,,,660.1391,660.3891,,67,67,,,,,,,,,,,,,,,,bars/047.png,bars/mask006.png,,,,,,,,,,,,4,2,,,,,,,8,4,8,4,,,,,,,,,,,659.6391,660.139,660.3891,662.656,space,2.2528,,662.6561,52,3,663.6557,663.6557,664.8061,space,1.1056,,0,49,49,49,1,15,70,,,,,,,,
,,614324d428b2dd34dce610a5,65af554cb73447736efa8ab9,2024-01-23_08h02.42.487,bars,2023.2.3,Win32,59.17159763,657b66ea316d21385b68909f,,,,,,,,,,,,,,,,,,,,,,,,,,,,,,,,,,,,,,,,,,,,,,,,,,,,,,,,,,,,,,,,,,,,,,,,,,,,,,,,,,,,,,,,,,,,,664.8087,724.8088,0,0,0,4,1,sequence_tables/blk004.csv
,,614324d428b2dd34dce610a5,65af554cb73447736efa8ab9,2024-01-23_08h02.42.487,bars,2023.2.3,Win32,59.17159763,657b66ea316d21385b68909f,,,,,,,,,,,731.5757,732.5468,,,733.0383,733.2881,,114,114,,,,,,,,,,,,,,,,bars/038.png,bars/mask001.png,,,,,,,,,,,,0,2,,,,,,,3,6,4,7,,,,,,724.835,731.5383,space,6.6879,,732.547,733.0382,733.2882,735.7384,space,2.4373,,735.7386,51,44,736.738,736.7381,736.7409,,,,0,0,0,0,1,165,70,,,,,,,,
,,614324d428b2dd34dce610a5,65af554cb73447736efa8ab9,2024-01-23_08h02.42.487,bars,2023.2.3,Win32,59.17159763,657b66ea316d21385b68909f,,,,,,,,,,,736.7423,737.7381,,,738.2383,738.4881,,40,40,,,,,,,,,,,,,,,,bars/042.png,bars/mask005.png,,,,,,,,,,,,0,2,,,,,,,5,8,3,7,,,,,,,,,,,737.7382,738.2382,738.4881,741.0885,space,2.5882,,741.0886,75,35,742.0879,742.088,742.1123,,,,0,1,1,1,1,145,75,,,,,,,,
,,614324d428b2dd34dce610a5,65af554cb73447736efa8ab9,2024-01-23_08h02.42.487,bars,2023.2.3,Win32,59.17159763,657b66ea316d21385b68909f,,,,,,,,,,,742.115,743.1046,,,743.6049,743.8547,,73,73,,,,,,,,,,,,,,,,bars/014.png,bars/mask007.png,,,,,,,,,,,,6,1,,,,,,,7,10,8,10,,,,,,,,,,,743.1046,743.6048,743.8549,745.9548,space,2.0877,,745.9549,7,73,746.9545,746.9546,746.9801,,,,0,2,2,2,1,80,0,,,,,,,,
,,614324d428b2dd34dce610a5,65af554cb73447736efa8ab9,2024-01-23_08h02.42.487,bars,2023.2.3,Win32,59.17159763,657b66ea316d21385b68909f,,,,,,,,,,,746.9808,747.9712,,,748.4714,748.7212,,19,19,,,,,,,,,,,,,,,,bars/049.png,bars/mask003.png,,,,,,,,,,,,0,1,,,,,,,5,10,5,10,,,,,,,,,,,747.9713,748.4712,748.7213,750.9553,space,2.2219,,750.9554,39,84,751.9546,751.9547,751.9776,,,,0,3,3,3,1,160,115,,,,,,,,
,,614324d428b2dd34dce610a5,65af554cb73447736efa8ab9,2024-01-23_08h02.42.487,bars,2023.2.3,Win32,59.17159763,657b66ea316d21385b68909f,,,,,,,,,,,751.9785,752.9724,,,753.4713,753.7212,,114,114,,,,,,,,,,,,,,,,bars/008.png,bars/mask008.png,,,,,,,,,,,,2,1,,,,,,,3,10,2,8,,,,,,,,,,,752.9726,753.4713,753.7213,755.7881,space,2.0532,,755.7881,4,66,756.7878,756.7879,756.7906,,,,0,4,4,4,1,110,0,,,,,,,,
,,614324d428b2dd34dce610a5,65af554cb73447736efa8ab9,2024-01-23_08h02.42.487,bars,2023.2.3,Win32,59.17159763,657b66ea316d21385b68909f,,,,,,,,,,,756.7918,757.7878,,,758.2879,758.5379,,110,110,,,,,,,,,,,,,,,,bars/007.png,bars/mask004.png,,,,,,,,,,,,0,2,,,,,,,1,10,1,9,,,,,,,,,,,757.7878,758.2877,758.5379,760.6216,space,2.0694,,760.6217,65,55,761.621,761.6211,761.6468,,,,0,5,5,5,1,175,55,,,,,,,,
,,614324d428b2dd34dce610a5,65af554cb73447736efa8ab9,2024-01-23_08h02.42.487,bars,2023.2.3,Win32,59.17159763,657b66ea316d21385b68909f,,,,,,,,,,,761.6475,762.6376,,,763.1378,763.3877,,7,187,,,,,,,,,,,,,,,,bars/044.png,bars/mask000.png,,,,,,,,,,,,0,2,,,,,,,3,10,1,10,,,,,,,,,,,762.6377,763.1377,763.3878,766.5046,space,3.1046,,766.5047,68,32,767.5045,767.5046,767.5283,,,,0,6,6,6,1,75,155,,,,,,,,
,,614324d428b2dd34dce610a5,65af554cb73447736efa8ab9,2024-01-23_08h02.42.487,bars,2023.2.3,Win32,59.17159763,657b66ea316d21385b68909f,,,,,,,,,,,767.5289,768.5209,,,769.0211,769.271,,31,31,,,,,,,,,,,,,,,,bars/018.png,bars/mask007.png,,,,,,,,,,,,0,2,,,,,,,5,10,5,10,,,,,,,,,,,768.5209,769.021,769.2712,771.906,space,2.6246,,771.906,61,59,772.9041,772.9042,772.9282,,,,0,7,7,7,1,150,90,,,,,,,,
,,614324d428b2dd34dce610a5,65af554cb73447736efa8ab9,2024-01-23_08h02.42.487,bars,2023.2.3,Win32,59.17159763,657b66ea316d21385b68909f,,,,,,,,,,,772.9288,773.9208,,,774.4211,774.6709,,148,148,,,,,,,,,,,,,,,,bars/038.png,bars/mask000.png,,,,,,,,,,,,3,1,,,,,,,7,8,7,9,,,,,,,,,,,773.9208,774.421,774.6709,776.5211,space,1.8356,,776.5211,17,78,777.5208,777.5209,777.5473,,,,0,8,8,8,1,165,70,,,,,,,,
,,614324d428b2dd34dce610a5,65af554cb73447736efa8ab9,2024-01-23_08h02.42.487,bars,2023.2.3,Win32,59.17159763,657b66ea316d21385b68909f,,,,,,,,,,,777.5481,778.5381,,,779.0375,779.2877,,84,84,,,,,,,,,,,,,,,,bars/023.png,bars/mask008.png,,,,,,,,,,,,0,2,,,,,,,5,6,7,5,,,,,,,,,,,778.5381,779.0374,779.2877,782.4044,space,3.1018,,782.4044,64,31,783.4041,783.4041,783.4303,,,,0,9,9,9,1,20,115,,,,,,,,
,,614324d428b2dd34dce610a5,65af554cb73447736efa8ab9,2024-01-23_08h02.42.487,bars,2023.2.3,Win32,59.17159763,657b66ea316d21385b68909f,,,,,,,,,,,783.4309,784.4206,,,784.9209,785.1708,,162,162,,,,,,,,,,,,,,,,bars/020.png,bars/mask004.png,,,,,,,,,,,,7,2,,,,,,,7,8,7,10,,,,,,,,,,,784.4207,784.9209,785.1709,786.921,space,1.7347,,786.921,47,8,787.9207,787.9208,787.9236,,,,0,10,10,10,1,115,170,,,,,,,,
,,614324d428b2dd34dce610a5,65af554cb73447736efa8ab9,2024-01-23_08h02.42.487,bars,2023.2.3,Win32,59.17159763,657b66ea316d21385b68909f,,,,,,,,,,,787.9257,788.9207,,,789.4208,789.6706,,171,171,,,,,,,,,,,,,,,,bars/023.png,bars/mask000.png,,,,,,,,,,,,0,1,,,,,,,9,10,8,9,,,,,,,,,,,788.9208,789.4206,789.6707,794.4377,space,4.7523,,794.4378,29,56,795.4374,795.4374,795.464,,,,0,11,11,11,1,20,115,,,,,,,,
,,614324d428b2dd34dce610a5,65af554cb73447736efa8ab9,2024-01-23_08h02.42.487,bars,2023.2.3,Win32,59.17159763,657b66ea316d21385b68909f,,,,,,,,,,,795.4647,796.454,,,796.9541,797.2039,,43,43,,,,,,,,,,,,,,,,bars/043.png,bars/mask008.png,,,,,,,,,,,,5,1,,,,,,,10,10,9,10,,,,,,,,,,,796.4541,796.954,797.204,799.7875,space,2.5688,,799.7876,13,87,800.7872,800.7872,800.7899,,,,0,12,12,12,1,30,130,,,,,,,,
,,614324d428b2dd34dce610a5,65af554cb73447736efa8ab9,2024-01-23_08h02.42.487,bars,2023.2.3,Win32,59.17159763,657b66ea316d21385b68909f,,,,,,,,,,,800.7911,801.7871,,,802.2872,802.5372,,35,35,,,,,,,,,,,,,,,,bars/039.png,bars/mask005.png,,,,,,,,,,,,0,1,,,,,,,8,8,8,8,,,,,,,,,,,801.7872,802.2871,802.5372,804.5373,space,1.9845,,804.5375,40,70,805.5389,805.539,805.5631,,,,0,13,13,13,1,175,105,,,,,,,,
,,614324d428b2dd34dce610a5,65af554cb73447736efa8ab9,2024-01-23_08h02.42.487,bars,2023.2.3,Win32,59.17159763,657b66ea316d21385b68909f,,,,,,,,,,,805.5637,806.5537,,,807.0539,807.3038,,98,98,,,,,,,,,,,,,,,,bars/004.png,bars/mask006.png,,,,,,,,,,,,1,2,,,,,,,10,10,10,10,,,,,,,,,,,806.5537,807.0539,807.3039,809.2874,space,1.9684,,809.2874,73,27,810.287,810.2871,810.2941,,,,0,14,14,14,1,25,125,,,,,,,,
,,614324d428b2dd34dce610a5,65af554cb73447736efa8ab9,2024-01-23_08h02.42.487,bars,2023.2.3,Win32,59.17159763,657b66ea316d21385b68909f,,,,,,,,,,,810.2946,811.287,,,811.7872,812.037,,17,197,,,,,,,,,,,,,,,,bars/045.png,bars/mask001.png,,,,,,,,,,,,8,2,,,,,,,8,10,6,10,,,,,,,,,,,811.2871,811.7871,812.037,814.088,space,2.0373,,814.0881,83,7,815.087,815.0871,815.1102,,,,0,15,15,15,1,100,10,,,,,,,,
,,614324d428b2dd34dce610a5,65af554cb73447736efa8ab9,2024-01-23_08h02.42.487,bars,2023.2.3,Win32,59.17159763,657b66ea316d21385b68909f,,,,,,,,,,,815.1108,816.1035,,,816.6037,816.8536,,118,118,,,,,,,,,,,,,,,,bars/012.png,bars/mask009.png,,,,,,,,,,,,1,1,,,,,,,10,10,10,9,,,,,,,,,,,816.1036,816.6036,816.8537,819.2371,space,2.3691,,819.2374,28,77,820.2369,820.237,820.265,,,,0,16,16,16,1,90,15,,,,,,,,
,,614324d428b2dd34dce610a5,65af554cb73447736efa8ab9,2024-01-23_08h02.42.487,bars,2023.2.3,Win32,59.17159763,657b66ea316d21385b68909f,,,,,,,,,,,820.2656,821.2535,,,821.7537,822.0037,,64,64,,,,,,,,,,,,,,,,bars/042.png,bars/mask004.png,,,,,,,,,,,,6,2,,,,,,,10,10,10,10,,,,,,,,,,,821.2536,821.7536,822.0037,823.9054,space,1.8911,,823.9054,81,11,824.9036,824.9037,824.9109,,,,0,17,17,17,1,145,75,,,,,,,,
,,614324d428b2dd34dce610a5,65af554cb73447736efa8ab9,2024-01-23_08h02.42.487,bars,2023.2.3,Win32,59.17159763,657b66ea316d21385b68909f,,,,,,,,,,,824.9115,825.9036,,,826.4036,826.6536,,95,95,,,,,,,,,,,,,,,,bars/021.png,bars/mask000.png,,,,,,,,,,,,2,2,,,,,,,10,10,9,10,,,,,,,,,,,825.9036,826.4036,826.6537,828.8206,space,2.1537,,828.8207,60,25,829.8201,829.8201,829.8432,,,,0,18,18,18,1,155,70,,,,,,,,
,,614324d428b2dd34dce610a5,65af554cb73447736efa8ab9,2024-01-23_08h02.42.487,bars,2023.2.3,Win32,59.17159763,657b66ea316d21385b68909f,,,,,,,,,,,829.844,830.8366,,,831.3369,831.5869,,75,75,,,,,,,,,,,,,,,,bars/014.png,bars/mask001.png,,,,,,,,,,,,8,1,,,,,,,8,8,10,8,,,,,,,,,,,830.8367,831.3369,831.5871,833.9053,space,2.3084,,833.9053,5,75,834.9034,834.9035,834.9114,,,,0,19,19,19,1,80,0,,,,,,,,
,,614324d428b2dd34dce610a5,65af554cb73447736efa8ab9,2024-01-23_08h02.42.487,bars,2023.2.3,Win32,59.17159763,657b66ea316d21385b68909f,,,,,,,,,,,834.912,835.9034,,,836.4035,836.6534,,135,135,,,,,,,,,,,,,,,,bars/005.png,bars/mask003.png,,,,,,,,,,,,4,2,,,,,,,10,6,10,5,,,,,,,,,,,835.9034,836.4033,836.6534,838.9037,space,2.2347,,838.9037,55,5,839.9033,839.9034,839.9315,,,,0,20,20,20,1,10,140,,,,,,,,
,,614324d428b2dd34dce610a5,65af554cb73447736efa8ab9,2024-01-23_08h02.42.487,bars,2023.2.3,Win32,59.17159763,657b66ea316d21385b68909f,,,,,,,,,,,839.9327,840.9367,,,841.4368,841.6871,,32,32,,,,,,,,,,,,,,,,bars/006.png,bars/mask008.png,,,,,,,,,,,,9,1,,,,,,,10,4,10,5,,,,,,,,,,,840.9368,841.4367,841.6872,844.2536,space,2.5526,,844.2536,3,68,845.2532,845.2532,845.2783,,,,0,21,21,21,1,35,100,,,,,,,,
,,614324d428b2dd34dce610a5,65af554cb73447736efa8ab9,2024-01-23_08h02.42.487,bars,2023.2.3,Win32,59.17159763,657b66ea316d21385b68909f,,,,,,,,,,,845.2788,846.27,,,846.77,847.0198,,55,55,,,,,,,,,,,,,,,,bars/042.png,bars/mask003.png,,,,,,,,,,,,0,2,,,,,,,8,2,9,0,,,,,,,,,,,846.27,846.7699,847.0198,848.8035,space,1.7687,,848.8036,90,20,849.8033,849.8033,849.8317,,,,0,22,22,22,1,145,75,,,,,,,,
,,614324d428b2dd34dce610a5,65af554cb73447736efa8ab9,2024-01-23_08h02.42.487,bars,2023.2.3,Win32,59.17159763,657b66ea316d21385b68909f,,,,,,,,,,,849.8332,850.8365,,,851.3367,851.587,,74,74,,,,,,,,,,,,,,,,bars/013.png,bars/mask005.png,,,,,,,,,,,,6,1,,,,,,,6,4,6,3,,,,,,,,,,,850.8365,851.3366,851.5871,854.1367,space,2.5356,,854.1369,1,64,855.1366,855.1366,855.1633,,,,0,23,23,23,1,75,10,,,,,,,,
,,614324d428b2dd34dce610a5,65af554cb73447736efa8ab9,2024-01-23_08h02.42.487,bars,2023.2.3,Win32,59.17159763,657b66ea316d21385b68909f,,,,,,,,,,,855.164,856.1541,,,856.6533,856.9031,,75,75,,,,,,,,,,,,,,,,bars/044.png,bars/mask008.png,,,,,,,,,,,,8,1,,,,,,,8,6,8,6,,,,,,,,,,,856.1543,856.6531,856.9032,859.4867,space,2.5679,,859.4867,0,80,860.4891,860.4891,860.5132,,,,0,24,24,24,1,75,155,,,,,,,,
,,614324d428b2dd34dce610a5,65af554cb73447736efa8ab9,2024-01-23_08h02.42.487,bars,2023.2.3,Win32,59.17159763,657b66ea316d21385b68909f,,,,,,,,,,,860.5137,861.5031,,,862.0031,862.2531,,161,-19,,,,,,,,,,,,,,,,bars/039.png,bars/mask001.png,,,,,,,,,,,,5,1,,,,,,,10,4,10,5,,,,,,,,,,,861.5031,862.003,862.2531,864.7032,space,2.4342,,864.7033,14,56,865.7032,865.7032,865.727,,,,0,25,25,25,1,175,105,,,,,,,,
,,614324d428b2dd34dce610a5,65af554cb73447736efa8ab9,2024-01-23_08h02.42.487,bars,2023.2.3,Win32,59.17159763,657b66ea316d21385b68909f,,,,,,,,,,,865.7278,866.7212,,,867.2216,867.4715,,161,-19,,,,,,,,,,,,,,,,bars/044.png,bars/mask008.png,,,,,,,,,,,,2,2,,,,,,,10,2,10,2,,,,,,,,,,,866.7214,867.2216,867.4715,869.7914,space,2.3099,,869.7915,86,6,870.7883,870.7884,870.7941,,,,0,26,26,26,1,75,155,,,,,,,,
,,614324d428b2dd34dce610a5,65af554cb73447736efa8ab9,2024-01-23_08h02.42.487,bars,2023.2.3,Win32,59.17159763,657b66ea316d21385b68909f,,,,,,,,,,,870.7948,871.7882,,,872.2881,872.5379,,136,136,,,,,,,,,,,,,,,,bars/029.png,bars/mask004.png,,,,,,,,,,,,0,1,,,,,,,8,4,7,4,,,,,,,,,,,871.7883,872.288,872.5379,874.4912,space,1.9428,,874.4914,46,89,875.4878,875.488,875.5134,,,,0,27,27,27,1,90,45,,,,,,,,
,,614324d428b2dd34dce610a5,65af554cb73447736efa8ab9,2024-01-23_08h02.42.487,bars,2023.2.3,Win32,59.17159763,657b66ea316d21385b68909f,,,,,,,,,,,875.514,876.5027,,,877.0028,877.2529,,147,147,,,,,,,,,,,,,,,,bars/029.png,bars/mask000.png,,,,,,,,,,,,0,1,,,,,,,6,6,4,7,,,,,,,,,,,876.5028,877.0028,877.2529,879.1864,space,1.9175,,879.1865,57,78,880.1861,880.1862,880.2085,,,,0,28,28,28,1,90,45,,,,,,,,
,,614324d428b2dd34dce610a5,65af554cb73447736efa8ab9,2024-01-23_08h02.42.487,bars,2023.2.3,Win32,59.17159763,657b66ea316d21385b68909f,,,,,,,,,,,880.209,881.2047,,,881.7052,881.9543,,70,70,,,,,,,,,,,,,,,,bars/014.png,bars/mask004.png,,,,,,,,,,,,2,1,,,,,,,4,4,3,4,,,,,,,,,,,881.2049,881.7049,881.9544,884.3547,space,2.3848,,884.3548,10,70,885.3545,885.3547,885.3782,,,,0,29,29,29,1,80,0,,,,,,,,
,,614324d428b2dd34dce610a5,65af554cb73447736efa8ab9,2024-01-23_08h02.42.487,bars,2023.2.3,Win32,59.17159763,657b66ea316d21385b68909f,,,,,,,,,,,885.3788,886.3694,,,886.8695,887.1193,,66,66,,,,,,,,,,,,,,,,bars/044.png,bars/mask001.png,,,,,,,,,,,,4,1,,,,,,,6,2,6,3,,,,,,,,,,,886.3695,886.8694,887.1193,889.2696,space,2.1348,,889.272,9,89,890.2692,890.2693,890.2924,,,,0,30,30,30,1,75,155,,,,,,,,
,,614324d428b2dd34dce610a5,65af554cb73447736efa8ab9,2024-01-23_08h02.42.487,bars,2023.2.3,Win32,59.17159763,657b66ea316d21385b68909f,,,,,,,,,,,890.2931,891.2871,,,891.7861,892.036,,61,61,,,,,,,,,,,,,,,,bars/043.png,bars/mask000.png,,,,,,,,,,,,0,1,,,,,,,4,0,5,0,,,,,,,,,,,891.2874,891.7861,892.0361,894.0862,space,2.0351,,894.0864,31,69,895.0862,895.0862,895.0893,,,,0,31,31,31,1,30,130,,,,,,,,
,,614324d428b2dd34dce610a5,65af554cb73447736efa8ab9,2024-01-23_08h02.42.487,bars,2023.2.3,Win32,59.17159763,657b66ea316d21385b68909f,,,,,,,,,,,895.0911,896.0858,,,896.586,896.8359,,63,63,,,,,,,,,,,,,,,,bars/007.png,bars/mask001.png,,,,,,,,,,,,1,2,,,,,,,6,2,6,2,,,,,,,,,,,896.0859,896.5859,896.8359,898.6874,space,1.8397,,898.6875,68,8,899.6858,899.6859,899.7118,,,,0,32,32,32,1,175,55,,,,,,,,
,,614324d428b2dd34dce610a5,65af554cb73447736efa8ab9,2024-01-23_08h02.42.487,bars,2023.2.3,Win32,59.17159763,657b66ea316d21385b68909f,,,,,,,,,,,899.7124,900.7025,,,901.2026,901.4526,,37,37,,,,,,,,,,,,,,,,bars/036.png,bars/mask004.png,,,,,,,,,,,,2,2,,,,,,,8,4,10,5,,,,,,,,,,,900.7026,901.2024,901.4526,903.3383,space,1.8688,,903.3384,72,17,904.3358,904.3358,904.3389,,,,0,33,33,33,1,145,20,,,,,,,,
,,614324d428b2dd34dce610a5,65af554cb73447736efa8ab9,2024-01-23_08h02.42.487,bars,2023.2.3,Win32,59.17159763,657b66ea316d21385b68909f,,,,,,,,,,,904.3397,905.341,,,905.836,906.0858,,19,199,,,,,,,,,,,,,,,,bars/030.png,bars/mask000.png,,,,,,,,,,,,0,2,,,,,,,10,6,8,5,,,,,,,,,,,905.3411,905.8358,906.0859,908.3693,space,2.2687,,908.3693,59,46,909.369,909.3691,909.3928,,,,0,34,34,34,1,140,65,,,,,,,,
,,614324d428b2dd34dce610a5,65af554cb73447736efa8ab9,2024-01-23_08h02.42.487,bars,2023.2.3,Win32,59.17159763,657b66ea316d21385b68909f,,,,,,,,,,,909.3934,910.3871,,,910.8858,911.1357,,2,182,,,,,,,,,,,,,,,,bars/042.png,bars/mask000.png,,,,,,,,,,,,0,1,,,,,,,10,8,10,8,,,,,,,,,,,910.3871,910.8857,911.1358,912.7526,space,1.6028,,912.7527,37,73,913.7524,913.7525,913.7783,,,,0,35,35,35,1,145,75,,,,,,,,
,,614324d428b2dd34dce610a5,65af554cb73447736efa8ab9,2024-01-23_08h02.42.487,bars,2023.2.3,Win32,59.17159763,657b66ea316d21385b68909f,,,,,,,,,,,913.7789,914.769,,,915.269,915.5189,,54,54,,,,,,,,,,,,,,,,bars/040.png,bars/mask005.png,,,,,,,,,,,,0,2,,,,,,,8,10,8,10,,,,,,,,,,,914.769,915.269,915.5191,917.4858,space,1.9513,,917.4859,86,49,918.4855,918.4856,918.4922,,,,0,36,36,36,1,140,5,,,,,,,,
,,614324d428b2dd34dce610a5,65af554cb73447736efa8ab9,2024-01-23_08h02.42.487,bars,2023.2.3,Win32,59.17159763,657b66ea316d21385b68909f,,,,,,,,,,,918.4928,919.4942,,,919.9942,920.2373,,37,37,,,,,,,,,,,,,,,,bars/005.png,bars/mask002.png,,,,,,,,,,,,0,1,,,,,,,6,10,5,9,,,,,,,,,,,919.4942,919.9942,920.2375,921.8555,space,1.6089,,921.8557,27,77,922.8538,922.8539,922.8589,,,,0,37,37,37,1,10,140,,,,,,,,
,,614324d428b2dd34dce610a5,65af554cb73447736efa8ab9,2024-01-23_08h02.42.487,bars,2023.2.3,Win32,59.17159763,657b66ea316d21385b68909f,,,,,,,,,,,922.8596,923.8539,,,924.3538,924.6042,,166,-14,,,,,,,,,,,,,,,,bars/019.png,bars/mask007.png,,,,,,,,,,,,0,1,,,,,,,4,8,4,8,,,,,,,,,,,923.854,924.3537,924.6043,927.105,space,2.4855,,927.1051,59,61,928.1038,928.1039,928.1282,,,,0,38,38,38,1,45,105,,,,,,,,
,,614324d428b2dd34dce610a5,65af554cb73447736efa8ab9,2024-01-23_08h02.42.487,bars,2023.2.3,Win32,59.17159763,657b66ea316d21385b68909f,,,,,,,,,,,928.1289,929.1188,,,929.6135,929.8522,,4,4,,,,,,,,,,,,,,,,bars/024.png,bars/mask008.png,,,,,,,,,,,,3,2,,,,,,,2,6,2,5,,,,,,,,,,,929.1189,929.6134,929.8523,931.4524,space,1.5848,,931.4525,64,14,932.4521,932.4522,932.4589,,,,0,39,39,39,1,120,170,,,,,,,,
,,614324d428b2dd34dce610a5,65af554cb73447736efa8ab9,2024-01-23_08h02.42.487,bars,2023.2.3,Win32,59.17159763,657b66ea316d21385b68909f,,,,,,,,,,,932.4596,933.452,,,933.9523,934.2021,,39,39,,,,,,,,,,,,,,,,bars/029.png,bars/mask003.png,,,,,,,,,,,,6,2,,,,,,,4,8,5,7,,,,,,,,,,,933.4521,933.9521,934.2021,935.2524,space,1.0358,,935.2525,51,6,936.252,936.2521,936.255,,,,0,40,40,40,1,90,45,,,,,,,,
,,614324d428b2dd34dce610a5,65af554cb73447736efa8ab9,2024-01-23_08h02.42.487,bars,2023.2.3,Win32,59.17159763,657b66ea316d21385b68909f,,,,,,,,,,,936.2566,937.252,,,937.7521,938.0019,,66,66,,,,,,,,,,,,,,,,bars/011.png,bars/mask006.png,,,,,,,,,,,,2,2,,,,,,,2,6,2,5,,,,,,,,,,,937.2521,937.752,938.002,939.169,space,1.1508,,939.1691,86,19,940.1686,940.1687,940.1714,,,,0,41,41,41,1,160,85,,,,,,,,
,,614324d428b2dd34dce610a5,65af554cb73447736efa8ab9,2024-01-23_08h02.42.487,bars,2023.2.3,Win32,59.17159763,657b66ea316d21385b68909f,,,,,,,,,,,940.1728,941.1685,,,941.6686,941.9187,,166,166,,,,,,,,,,,,,,,,bars/048.png,bars/mask005.png,,,,,,,,,,,,2,2,,,,,,,0,4,0,3,,,,,,,,,,,941.1686,941.6686,941.9188,943.0021,space,1.0706,,943.0023,64,9,944.0019,944.002,944.0049,,,,0,42,42,42,1,50,175,,,,,,,,
,,614324d428b2dd34dce610a5,65af554cb73447736efa8ab9,2024-01-23_08h02.42.487,bars,2023.2.3,Win32,59.17159763,657b66ea316d21385b68909f,,,,,,,,,,,944.006,945.0019,,,945.502,945.7519,,99,99,,,,,,,,,,,,,,,,bars/017.png,bars/mask006.png,,,,,,,,,,,,0,1,,,,,,,2,2,1,3,,,,,,,,,,,945.002,945.5019,945.752,947.2202,space,1.457,,947.2204,46,54,948.2186,948.2186,948.2254,,,,0,43,43,43,1,145,45,,,,,,,,
,,614324d428b2dd34dce610a5,65af554cb73447736efa8ab9,2024-01-23_08h02.42.487,bars,2023.2.3,Win32,59.17159763,657b66ea316d21385b68909f,,,,,,,,,,,948.2259,949.2185,,,949.7186,949.9686,,76,76,,,,,,,,,,,,,,,,bars/038.png,bars/mask004.png,,,,,,,,,,,,3,2,,,,,,,4,4,5,4,,,,,,,,,,,949.2185,949.7186,949.9686,951.4357,space,1.4523,,951.4358,89,6,952.4352,952.4353,952.442,,,,0,44,44,44,1,165,70,,,,,,,,
,,614324d428b2dd34dce610a5,65af554cb73447736efa8ab9,2024-01-23_08h02.42.487,bars,2023.2.3,Win32,59.17159763,657b66ea316d21385b68909f,,,,,,,,,,,952.4427,953.4351,,,953.9352,954.1851,,36,36,,,,,,,,,,,,,,,,bars/017.png,bars/mask004.png,,,,,,,,,,,,1,2,,,,,,,6,2,5,2,,,,,,,,,,,953.4351,953.9351,954.1852,955.7186,space,1.5194,,955.7187,71,9,956.7183,956.7184,956.7212,,,,0,45,45,45,1,145,45,,,,,,,,
,,614324d428b2dd34dce610a5,65af554cb73447736efa8ab9,2024-01-23_08h02.42.487,bars,2023.2.3,Win32,59.17159763,657b66ea316d21385b68909f,,,,,,,,,,,956.7224,957.7183,,,958.2185,958.4684,,131,131,,,,,,,,,,,,,,,,bars/043.png,bars/mask006.png,,,,,,,,,,,,2,2,,,,,,,4,4,5,2,,,,,,,,,,,957.7184,958.2185,958.4684,959.752,space,1.2681,,959.7521,79,1,960.7517,960.7517,960.7545,,,,0,46,46,46,1,30,130,,,,,,,,
,,614324d428b2dd34dce610a5,65af554cb73447736efa8ab9,2024-01-23_08h02.42.487,bars,2023.2.3,Win32,59.17159763,657b66ea316d21385b68909f,,,,,,,,,,,960.7558,961.7516,,,962.2517,962.5017,,136,136,,,,,,,,,,,,,,,,bars/009.png,bars/mask006.png,,,,,,,,,,,,0,2,,,,,,,6,2,7,2,,,,,,,,,,,961.7517,962.2517,962.5018,964.1206,space,1.6017,,964.1209,59,31,965.1183,965.1184,965.1211,,,,0,47,47,47,1,15,105,,,,,,,,
,,614324d428b2dd34dce610a5,65af554cb73447736efa8ab9,2024-01-23_08h02.42.487,bars,2023.2.3,Win32,59.17159763,657b66ea316d21385b68909f,,,,,,,,,,,965.1219,966.1188,,,966.6184,966.8683,,47,47,,,,,,,,,,,,,,,,bars/033.png,bars/mask009.png,,,,,,,,,,,,1,1,,,,,,,4,4,3,3,,,,,,,,,,,966.1188,966.6182,966.8684,968.2067,space,1.3255,,968.2068,22,72,969.2015,969.2016,969.2081,,,,0,48,48,48,1,25,155,,,,,,,,
,,614324d428b2dd34dce610a5,65af554cb73447736efa8ab9,2024-01-23_08h02.42.487,bars,2023.2.3,Win32,59.17159763,657b66ea316d21385b68909f,,,,,,,,,,,969.2087,970.2016,,,970.7016,970.9515,,47,47,,,,,,,,,,,,,,,,bars/017.png,bars/mask008.png,,,,,,,,,,,,2,2,,,,,,,2,2,1,2,,,,,,,,,,,970.2016,970.7015,970.9516,972.5184,space,1.5518,,972.5186,82,2,973.5182,973.5182,973.547,,,,0,49,49,49,1,145,45,,,,,,,,
,,614324d428b2dd34dce610a5,65af554cb73447736efa8ab9,2024-01-23_08h02.42.487,bars,2023.2.3,Win32,59.17159763,657b66ea316d21385b68909f,,,,,,,,,,,,,,,,,,,,,,,,,,,,,,,,,,,,,,,,,,,,,,,,,,,,,,,,,,,,,,,,,,,,,,,,,,,,,,,,,,,,,,,,,,,,,973.5471,1033.5508,0,1,1,3,1,sequence_tables/blk020.csv
,,614324d428b2dd34dce610a5,65af554cb73447736efa8ab9,2024-01-23_08h02.42.487,bars,2023.2.3,Win32,59.17159763,657b66ea316d21385b68909f,,,,,,,,,,,1038.5545,1039.5259,,,1040.0266,1040.2761,,27,27,,,,,,,,,,,,,,,,bars/012.png,bars/mask009.png,,,,,,,,,,,,2,2,,,,,,,3,3,2,3,,,,,,1033.5758,1038.5175,space,4.929,,1039.526,1040.0264,1040.2762,1044.1607,space,3.8683,,1044.1607,63,12,1045.1593,1045.1593,1045.1852,,,,0,0,0,0,1,90,15,,,,,,,,
,,614324d428b2dd34dce610a5,65af554cb73447736efa8ab9,2024-01-23_08h02.42.487,bars,2023.2.3,Win32,59.17159763,657b66ea316d21385b68909f,,,,,,,,,,,1045.1858,1046.1755,,,1046.6759,1046.9261,,17,17,,,,,,,,,,,,,,,,bars/018.png,bars/mask005.png,,,,,,,,,,,,0,1,,,,,,,1,1,1,2,,,,,,,,,,,1046.1757,1046.6758,1046.9262,1048.6939,space,1.7518,,1048.694,47,73,1049.6938,1049.6939,1049.7207,,,,0,1,1,1,1,150,90,,,,,,,,
,,614324d428b2dd34dce610a5,65af554cb73447736efa8ab9,2024-01-23_08h02.42.487,bars,2023.2.3,Win32,59.17159763,657b66ea316d21385b68909f,,,,,,,,,,,1049.722,1050.7191,,,1051.2193,1051.469,,82,82,,,,,,,,,,,,,,,,bars/048.png,bars/mask004.png,,,,,,,,,,,,0,1,,,,,,,3,0,4,0,,,,,,,,,,,1050.7191,1051.2191,1051.4691,1053.0525,space,1.5696,,1053.0526,32,87,1054.0523,1054.0525,1054.0757,,,,0,2,2,2,1,50,175,,,,,,,,
,,614324d428b2dd34dce610a5,65af554cb73447736efa8ab9,2024-01-23_08h02.42.487,bars,2023.2.3,Win32,59.17159763,657b66ea316d21385b68909f,,,,,,,,,,,1054.0763,1055.0669,,,1055.5671,1055.8171,,47,47,,,,,,,,,,,,,,,,bars/014.png,bars/mask009.png,,,,,,,,,,,,0,1,,,,,,,1,2,0,4,,,,,,,,,,,1055.0671,1055.5671,1055.8171,1057.4689,space,1.6413,,1057.469,33,47,1058.467,1058.4671,1058.4903,,,,0,3,3,3,1,80,0,,,,,,,,
,,614324d428b2dd34dce610a5,65af554cb73447736efa8ab9,2024-01-23_08h02.42.487,bars,2023.2.3,Win32,59.17159763,657b66ea316d21385b68909f,,,,,,,,,,,1058.4909,1059.4837,,,1059.9839,1060.2337,,135,135,,,,,,,,,,,,,,,,bars/015.png,bars/mask002.png,,,,,,,,,,,,1,2,,,,,,,3,4,4,4,,,,,,,,,,,1059.4837,1059.9838,1060.2337,1062.1508,space,1.9046,,1062.1508,25,25,1063.1504,1063.1505,1063.1561,,,,0,4,4,4,1,110,160,,,,,,,,
,,614324d428b2dd34dce610a5,65af554cb73447736efa8ab9,2024-01-23_08h02.42.487,bars,2023.2.3,Win32,59.17159763,657b66ea316d21385b68909f,,,,,,,,,,,1063.1568,1064.1503,,,1064.6504,1064.9002,,76,76,,,,,,,,,,,,,,,,bars/025.png,bars/mask006.png,,,,,,,,,,,,0,1,,,,,,,1,6,2,6,,,,,,,,,,,1064.1504,1064.6503,1064.9004,1066.6672,space,1.7525,,1066.6673,29,36,1067.6669,1067.667,1067.6741,,,,0,5,5,5,1,105,40,,,,,,,,
,,614324d428b2dd34dce610a5,65af554cb73447736efa8ab9,2024-01-23_08h02.42.487,bars,2023.2.3,Win32,59.17159763,657b66ea316d21385b68909f,,,,,,,,,,,1067.6747,1068.667,,,1069.1671,1069.417,,114,114,,,,,,,,,,,,,,,,bars/039.png,bars/mask007.png,,,,,,,,,,,,4,2,,,,,,,0,8,0,6,,,,,,,,,,,1068.6671,1069.1669,1069.417,1070.8017,space,1.3739,,1070.8018,61,9,1071.8004,1071.8004,1071.827,,,,0,6,6,6,1,175,105,,,,,,,,
,,614324d428b2dd34dce610a5,65af554cb73447736efa8ab9,2024-01-23_08h02.42.487,bars,2023.2.3,Win32,59.17159763,657b66ea316d21385b68909f,,,,,,,,,,,1071.8276,1072.8167,,,1073.3169,1073.5669,,155,155,,,,,,,,,,,,,,,,bars/000.png,bars/mask001.png,,,,,,,,,,,,4,2,,,,,,,0,6,0,6,,,,,,,,,,,1072.8168,1073.3168,1073.567,1075.0504,space,1.4681,,1075.0504,65,10,1076.0501,1076.0502,1076.0746,,,,0,7,7,7,1,40,145,,,,,,,,
,,614324d428b2dd34dce610a5,65af554cb73447736efa8ab9,2024-01-23_08h02.42.487,bars,2023.2.3,Win32,59.17159763,657b66ea316d21385b68909f,,,,,,,,,,,1076.0752,1077.0667,,,1077.5669,1077.8169,,157,157,,,,,,,,,,,,,,,,bars/040.png,bars/mask003.png,,,,,,,,,,,,0,1,,,,,,,2,4,1,4,,,,,,,,,,,1077.0667,1077.5668,1077.8169,1079.4504,space,1.6178,,1079.4506,17,28,1080.4501,1080.4501,1080.4768,,,,0,8,8,8,1,140,5,,,,,,,,
,,614324d428b2dd34dce610a5,65af554cb73447736efa8ab9,2024-01-23_08h02.42.487,bars,2023.2.3,Win32,59.17159763,657b66ea316d21385b68909f,,,,,,,,,,,1080.478,1081.4667,,,1081.9673,1082.2168,,104,104,,,,,,,,,,,,,,,,bars/030.png,bars/mask005.png,,,,,,,,,,,,0,1,,,,,,,4,6,3,6,,,,,,,,,,,1081.4668,1081.9672,1082.2169,1083.4851,space,1.2579,,1083.4853,36,39,1084.4834,1084.4834,1084.486,,,,0,9,9,9,1,140,65,,,,,,,,
,,614324d428b2dd34dce610a5,65af554cb73447736efa8ab9,2024-01-23_08h02.42.487,bars,2023.2.3,Win32,59.17159763,657b66ea316d21385b68909f,,,,,,,,,,,1084.4884,1085.4833,,,1085.9846,1086.2333,,133,133,,,,,,,,,,,,,,,,bars/022.png,bars/mask000.png,,,,,,,,,,,,0,1,,,,,,,6,8,7,9,,,,,,,,,,,1085.4834,1085.9845,1086.2335,1091.0169,space,4.7694,,1091.0171,38,67,1092.0167,1092.0167,1092.0394,,,,0,10,10,10,1,95,20,,,,,,,,
,,614324d428b2dd34dce610a5,65af554cb73447736efa8ab9,2024-01-23_08h02.42.487,bars,2023.2.3,Win32,59.17159763,657b66ea316d21385b68909f,,,,,,,,,,,1092.04,1093.0346,,,1093.5354,1093.785,,85,85,,,,,,,,,,,,,,,,bars/011.png,bars/mask005.png,,,,,,,,,,,,5,2,,,,,,,4,6,4,5,,,,,,,,,,,1093.0347,1093.5351,1093.7851,1095.7364,space,1.9355,,1095.7365,75,0,1096.7354,1096.7354,1096.7637,,,,0,11,11,11,1,160,85,,,,,,,,
,,614324d428b2dd34dce610a5,65af554cb73447736efa8ab9,2024-01-23_08h02.42.487,bars,2023.2.3,Win32,59.17159763,657b66ea316d21385b68909f,,,,,,,,,,,1096.7643,1097.7664,,,1098.2666,1098.5165,,105,105,,,,,,,,,,,,,,,,bars/029.png,bars/mask001.png,,,,,,,,,,,,1,1,,,,,,,2,8,2,9,,,,,,,,,,,1097.7665,1098.2666,1098.5166,1099.7672,space,1.2392,,1099.7673,15,60,1100.7665,1100.7666,1100.7747,,,,0,12,12,12,1,90,45,,,,,,,,
,,614324d428b2dd34dce610a5,65af554cb73447736efa8ab9,2024-01-23_08h02.42.487,bars,2023.2.3,Win32,59.17159763,657b66ea316d21385b68909f,,,,,,,,,,,1100.7753,1101.7647,,,1102.2687,1102.5187,,35,35,,,,,,,,,,,,,,,,bars/007.png,bars/mask000.png,,,,,,,,,,,,3,2,,,,,,,0,10,1,9,,,,,,,,,,,1101.7648,1102.2685,1102.5188,1103.9858,space,1.4513,,1103.9859,40,20,1104.9846,1104.9847,1104.9898,,,,0,13,13,13,1,175,55,,,,,,,,
,,614324d428b2dd34dce610a5,65af554cb73447736efa8ab9,2024-01-23_08h02.42.487,bars,2023.2.3,Win32,59.17159763,657b66ea316d21385b68909f,,,,,,,,,,,1104.9906,1105.9854,,,1106.4854,1106.7344,,52,52,,,,,,,,,,,,,,,,bars/005.png,bars/mask001.png,,,,,,,,,,,,0,1,,,,,,,2,10,1,10,,,,,,,,,,,1105.9854,1106.4851,1106.7345,1108.1359,space,1.3856,,1108.136,42,88,1109.1351,1109.1352,1109.1396,,,,0,14,14,14,1,10,140,,,,,,,,
,,614324d428b2dd34dce610a5,65af554cb73447736efa8ab9,2024-01-23_08h02.42.487,bars,2023.2.3,Win32,59.17159763,657b66ea316d21385b68909f,,,,,,,,,,,1109.1402,1110.1352,,,1110.6354,1110.8849,,60,60,,,,,,,,,,,,,,,,bars/025.png,bars/mask009.png,,,,,,,,,,,,3,2,,,,,,,0,8,0,8,,,,,,,,,,,1110.1354,1110.6353,1110.885,1112.6857,space,1.7843,,1112.6858,45,20,1113.6848,1113.6849,1113.6902,,,,0,15,15,15,1,105,40,,,,,,,,
,,614324d428b2dd34dce610a5,65af554cb73447736efa8ab9,2024-01-23_08h02.42.487,bars,2023.2.3,Win32,59.17159763,657b66ea316d21385b68909f,,,,,,,,,,,1113.6908,1114.6845,,,1115.185,1115.4347,,55,55,,,,,,,,,,,,,,,,bars/024.png,bars/mask005.png,,,,,,,,,,,,0,2,,,,,,,0,10,1,8,,,,,,,,,,,1114.6845,1115.1848,1115.4347,1116.6522,space,1.2014,,1116.6524,65,65,1117.6511,1117.6512,1117.6532,,,,0,16,16,16,1,120,170,,,,,,,,
,,614324d428b2dd34dce610a5,65af554cb73447736efa8ab9,2024-01-23_08h02.42.487,bars,2023.2.3,Win32,59.17159763,657b66ea316d21385b68909f,,,,,,,,,,,1117.6538,1118.6516,,,1119.1516,1119.4011,,21,21,,,,,,,,,,,,,,,,bars/040.png,bars/mask000.png,,,,,,,,,,,,4,2,,,,,,,0,10,0,9,,,,,,,,,,,1118.6516,1119.1515,1119.4011,1127.6688,space,8.2511,,1127.6691,61,16,1128.668,1128.6681,1128.6937,,,,0,17,17,17,1,140,5,,,,,,,,
,,614324d428b2dd34dce610a5,65af554cb73447736efa8ab9,2024-01-23_08h02.42.487,bars,2023.2.3,Win32,59.17159763,657b66ea316d21385b68909f,,,,,,,,,,,1128.6942,1129.6829,,,1130.183,1130.4328,,52,52,,,,,,,,,,,,,,,,bars/018.png,bars/mask003.png,,,,,,,,,,,,0,2,,,,,,,2,10,2,10,,,,,,,,,,,1129.683,1130.1828,1130.4328,1131.9004,space,1.4517,,1131.9005,82,38,1132.8994,1132.8994,1132.9222,,,,0,18,18,18,1,150,90,,,,,,,,
,,614324d428b2dd34dce610a5,65af554cb73447736efa8ab9,2024-01-23_08h02.42.487,bars,2023.2.3,Win32,59.17159763,657b66ea316d21385b68909f,,,,,,,,,,,1132.9228,1133.916,,,1134.4162,1134.666,,59,59,,,,,,,,,,,,,,,,bars/027.png,bars/mask001.png,,,,,,,,,,,,6,2,,,,,,,4,8,5,8,,,,,,,,,,,1133.916,1134.416,1134.666,1136.5495,space,1.8679,,1136.5496,51,9,1137.5492,1137.5493,1137.5742,,,,0,19,19,19,1,110,50,,,,,,,,
,,614324d428b2dd34dce610a5,65af554cb73447736efa8ab9,2024-01-23_08h02.42.487,bars,2023.2.3,Win32,59.17159763,657b66ea316d21385b68909f,,,,,,,,,,,1137.5748,1138.566,,,1139.0661,1139.3159,,49,49,,,,,,,,,,,,,,,,bars/042.png,bars/mask007.png,,,,,,,,,,,,1,2,,,,,,,6,10,7,10,,,,,,,,,,,1138.5661,1139.066,1139.3159,1140.6329,space,1.3045,,1140.6331,84,26,1141.6331,1141.6331,1141.6357,,,,0,20,20,20,1,145,75,,,,,,,,
,,614324d428b2dd34dce610a5,65af554cb73447736efa8ab9,2024-01-23_08h02.42.487,bars,2023.2.3,Win32,59.17159763,657b66ea316d21385b68909f,,,,,,,,,,,1141.6371,1142.6325,,,1143.1327,1143.3826,,156,156,,,,,,,,,,,,,,,,bars/041.png,bars/mask000.png,,,,,,,,,,,,0,1,,,,,,,8,8,7,7,,,,,,,,,,,1142.6325,1143.1326,1143.3827,1145.2328,space,1.8366,,1145.2328,44,71,1146.2324,1146.2325,1146.2384,,,,0,21,21,21,1,20,85,,,,,,,,
,,614324d428b2dd34dce610a5,65af554cb73447736efa8ab9,2024-01-23_08h02.42.487,bars,2023.2.3,Win32,59.17159763,657b66ea316d21385b68909f,,,,,,,,,,,1146.2393,1147.2325,,,1147.7332,1147.9825,,48,48,,,,,,,,,,,,,,,,bars/012.png,bars/mask003.png,,,,,,,,,,,,0,2,,,,,,,6,10,6,10,,,,,,,,,,,1147.2325,1147.733,1147.9826,1149.816,space,1.8176,,1149.8161,42,33,1150.8157,1150.8158,1150.8421,,,,0,22,22,22,1,90,15,,,,,,,,
,,614324d428b2dd34dce610a5,65af554cb73447736efa8ab9,2024-01-23_08h02.42.487,bars,2023.2.3,Win32,59.17159763,657b66ea316d21385b68909f,,,,,,,,,,,1150.8427,1151.8326,,,1152.3325,1152.5825,,135,135,,,,,,,,,,,,,,,,bars/019.png,bars/mask006.png,,,,,,,,,,,,0,2,,,,,,,4,8,3,7,,,,,,,,,,,1151.8326,1152.3324,1152.5825,1154.4993,space,1.9012,,1154.4995,90,30,1155.4991,1155.4992,1155.5232,,,,0,23,23,23,1,45,105,,,,,,,,
,,614324d428b2dd34dce610a5,65af554cb73447736efa8ab9,2024-01-23_08h02.42.487,bars,2023.2.3,Win32,59.17159763,657b66ea316d21385b68909f,,,,,,,,,,,1155.5238,1156.5158,,,1157.0164,1157.2658,,158,158,,,,,,,,,,,,,,,,bars/035.png,bars/mask001.png,,,,,,,,,,,,3,1,,,,,,,6,10,6,10,,,,,,,,,,,1156.5159,1157.0162,1157.2658,1157.7827,space,0.502,,1157.7828,17,82,1158.7823,1158.7826,1158.7885,,,,0,24,24,24,1,175,60,,,,,,,,
,,614324d428b2dd34dce610a5,65af554cb73447736efa8ab9,2024-01-23_08h02.42.487,bars,2023.2.3,Win32,59.17159763,657b66ea316d21385b68909f,,,,,,,,,,,1158.7893,1159.7922,,,1160.2909,1160.5409,,15,15,,,,,,,,,,,,,,,,bars/044.png,bars/mask009.png,,,,,,,,,,,,0,2,,,,,,,8,10,8,9,,,,,,,,,,,1159.7923,1160.2908,1160.5409,1160.9874,space,0.4301,,1160.9875,60,40,1161.9904,1161.9905,1161.996,,,,0,25,25,25,1,75,155,,,,,,,,
,,614324d428b2dd34dce610a5,65af554cb73447736efa8ab9,2024-01-23_08h02.42.487,bars,2023.2.3,Win32,59.17159763,657b66ea316d21385b68909f,,,,,,,,,,,1161.9965,1162.9908,,,1163.4917,1163.7368,,121,121,,,,,,,,,,,,,,,,bars/024.png,bars/mask003.png,,,,,,,,,,,,10,1,,,,,,,10,8,10,8,,,,,,,,,,,1162.9909,1163.4915,1163.7369,1165.1257,space,1.3686,,1165.1259,1,49,1166.1237,1166.1238,1166.129,,,,0,26,26,26,1,120,170,,,,,,,,
,,614324d428b2dd34dce610a5,65af554cb73447736efa8ab9,2024-01-23_08h02.42.487,bars,2023.2.3,Win32,59.17159763,657b66ea316d21385b68909f,,,,,,,,,,,1166.1297,1167.1243,,,1167.6189,1167.8573,,71,71,,,,,,,,,,,,,,,,bars/031.png,bars/mask004.png,,,,,,,,,,,,0,2,,,,,,,10,10,10,10,,,,,,,,,,,1167.1245,1167.6187,1167.8574,1169.4253,space,1.5516,,1169.4254,49,36,1170.4241,1170.4242,1170.4288,,,,0,27,27,27,1,120,35,,,,,,,,
,,614324d428b2dd34dce610a5,65af554cb73447736efa8ab9,2024-01-23_08h02.42.487,bars,2023.2.3,Win32,59.17159763,657b66ea316d21385b68909f,,,,,,,,,,,1170.4296,1171.4247,,,1171.9244,1172.1691,,103,103,,,,,,,,,,,,,,,,bars/042.png,bars/mask007.png,,,,,,,,,,,,1,2,,,,,,,8,10,8,10,,,,,,,,,,,1171.4248,1171.9243,1172.1692,1173.6759,space,1.4854,,1173.6759,42,28,1174.6674,1174.6675,1174.6701,,,,0,28,28,28,1,145,75,,,,,,,,
,,614324d428b2dd34dce610a5,65af554cb73447736efa8ab9,2024-01-23_08h02.42.487,bars,2023.2.3,Win32,59.17159763,657b66ea316d21385b68909f,,,,,,,,,,,1174.6706,1175.6671,,,1176.1676,1176.4175,,33,33,,,,,,,,,,,,,,,,bars/001.png,bars/mask005.png,,,,,,,,,,,,0,2,,,,,,,10,8,9,9,,,,,,,,,,,1175.6672,1176.1675,1176.4175,1177.7366,space,1.3022,,1177.7368,83,52,1178.7341,1178.7343,1178.7364,,,,0,29,29,29,1,130,85,,,,,,,,
,,614324d428b2dd34dce610a5,65af554cb73447736efa8ab9,2024-01-23_08h02.42.487,bars,2023.2.3,Win32,59.17159763,657b66ea316d21385b68909f,,,,,,,,,,,1178.7371,1179.7341,,,1180.2332,1180.4858,,136,136,,,,,,,,,,,,,,,,bars/023.png,bars/mask005.png,,,,,,,,,,,,3,2,,,,,,,8,10,7,10,,,,,,,,,,,1179.7341,1180.2332,1180.4858,1181.4512,space,0.9504,,1181.4513,64,21,1182.4512,1182.4513,1182.4532,,,,0,30,30,30,1,20,115,,,,,,,,
,,614324d428b2dd34dce610a5,65af554cb73447736efa8ab9,2024-01-23_08h02.42.487,bars,2023.2.3,Win32,59.17159763,657b66ea316d21385b68909f,,,,,,,,,,,1182.4538,1183.4502,,,1183.9513,1184.1999,,38,38,,,,,,,,,,,,,,,,bars/022.png,bars/mask000.png,,,,,,,,,,,,4,2,,,,,,,6,10,5,10,,,,,,,,,,,1183.4502,1183.9511,1184.2,1189.8023,space,5.5884,,1189.8023,57,18,1190.8004,1190.8005,1190.8262,,,,0,31,31,31,1,95,20,,,,,,,,
,,614324d428b2dd34dce610a5,65af554cb73447736efa8ab9,2024-01-23_08h02.42.487,bars,2023.2.3,Win32,59.17159763,657b66ea316d21385b68909f,,,,,,,,,,,1190.827,1191.8152,,,1192.3153,1192.5653,,3,3,,,,,,,,,,,,,,,,bars/049.png,bars/mask003.png,,,,,,,,,,,,0,1,,,,,,,4,10,1,9,,,,,,,,,,,1191.8153,1192.3152,1192.5654,1193.8842,space,1.3081,,1193.8843,23,68,1194.882,1194.882,1194.9095,,,,0,32,32,32,1,160,115,,,,,,,,
,,614324d428b2dd34dce610a5,65af554cb73447736efa8ab9,2024-01-23_08h02.42.487,bars,2023.2.3,Win32,59.17159763,657b66ea316d21385b68909f,,,,,,,,,,,1194.9101,1195.8984,,,1196.3987,1196.6486,,80,80,,,,,,,,,,,,,,,,bars/012.png,bars/mask008.png,,,,,,,,,,,,1,1,,,,,,,2,8,2,8,,,,,,,,,,,1195.8985,1196.3986,1196.6487,1198.1253,space,1.4649,,1198.1254,10,65,1199.1242,1199.1242,1199.147,,,,0,33,33,33,1,90,15,,,,,,,,
,,614324d428b2dd34dce610a5,65af554cb73447736efa8ab9,2024-01-23_08h02.42.487,bars,2023.2.3,Win32,59.17159763,657b66ea316d21385b68909f,,,,,,,,,,,1199.1492,1200.1485,,,1200.6486,1200.899,,79,79,,,,,,,,,,,,,,,,bars/026.png,bars/mask009.png,,,,,,,,,,,,6,2,,,,,,,4,6,5,8,,,,,,,,,,,1200.1486,1200.6485,1200.8991,1203.8494,space,2.9393,,1203.8497,44,6,1204.8484,1204.8484,1204.8751,,,,0,34,34,34,1,35,85,,,,,,,,
,,614324d428b2dd34dce610a5,65af554cb73447736efa8ab9,2024-01-23_08h02.42.487,bars,2023.2.3,Win32,59.17159763,657b66ea316d21385b68909f,,,,,,,,,,,1204.8757,1205.8649,,,1206.3651,1206.615,,78,78,,,,,,,,,,,,,,,,bars/043.png,bars/mask007.png,,,,,,,,,,,,0,1,,,,,,,6,8,5,9,,,,,,,,,,,1205.8651,1206.365,1206.6151,1207.2154,space,0.5846,,1207.2155,48,52,1208.215,1208.215,1208.2215,,,,0,35,35,35,1,30,130,,,,,,,,
,,614324d428b2dd34dce610a5,65af554cb73447736efa8ab9,2024-01-23_08h02.42.487,bars,2023.2.3,Win32,59.17159763,657b66ea316d21385b68909f,,,,,,,,,,,1208.222,1209.2148,,,1209.7151,1209.965,,22,22,,,,,,,,,,,,,,,,bars/042.png,bars/mask006.png,,,,,,,,,,,,0,2,,,,,,,8,10,9,9,,,,,,,,,,,1209.215,1209.7151,1209.9651,1211.5319,space,1.551,,1211.532,57,53,1212.5316,1212.5317,1212.5379,,,,0,36,36,36,1,145,75,,,,,,,,
,,614324d428b2dd34dce610a5,65af554cb73447736efa8ab9,2024-01-23_08h02.42.487,bars,2023.2.3,Win32,59.17159763,657b66ea316d21385b68909f,,,,,,,,,,,1212.5385,1213.5317,,,1214.0317,1214.2817,,38,38,,,,,,,,,,,,,,,,bars/003.png,bars/mask007.png,,,,,,,,,,,,5,1,,,,,,,10,8,9,9,,,,,,,,,,,1213.5317,1214.0316,1214.2818,1216.0151,space,1.7185,,1216.0152,13,78,1217.0148,1217.0149,1217.0439,,,,0,37,37,37,1,25,140,,,,,,,,
,,614324d428b2dd34dce610a5,65af554cb73447736efa8ab9,2024-01-23_08h02.42.487,bars,2023.2.3,Win32,59.17159763,657b66ea316d21385b68909f,,,,,,,,,,,1217.0445,1218.0483,,,1218.5483,1218.7983,,60,60,,,,,,,,,,,,,,,,bars/026.png,bars/mask005.png,,,,,,,,,,,,2,2,,,,,,,10,10,10,10,,,,,,,,,,,1218.0483,1218.5483,1218.7984,1220.7703,space,1.9583,,1220.7704,25,25,1221.7646,1221.7647,1221.7897,,,,0,38,38,38,1,35,85,,,,,,,,
,,614324d428b2dd34dce610a5,65af554cb73447736efa8ab9,2024-01-23_08h02.42.487,bars,2023.2.3,Win32,59.17159763,657b66ea316d21385b68909f,,,,,,,,,,,1221.7903,1222.7816,,,1223.2816,1223.5315,,8,8,,,,,,,,,,,,,,,,bars/047.png,bars/mask009.png,,,,,,,,,,,,8,1,,,,,,,10,10,10,10,,,,,,,,,,,1222.7816,1223.2815,1223.5315,1224.9662,space,1.4198,,1224.9663,7,62,1225.9647,1225.9648,1225.9708,,,,0,39,39,39,1,15,70,,,,,,,,
,,614324d428b2dd34dce610a5,65af554cb73447736efa8ab9,2024-01-23_08h02.42.487,bars,2023.2.3,Win32,59.17159763,657b66ea316d21385b68909f,,,,,,,,,,,1225.9714,1226.9648,,,1227.4649,1227.7158,,131,131,,,,,,,,,,,,,,,,bars/048.png,bars/mask001.png,,,,,,,,,,,,0,2,,,,,,,8,8,7,7,,,,,,,,,,,1226.9648,1227.4649,1227.7159,1229.6831,space,1.9578,,1229.6833,81,44,1230.6812,1230.6814,1230.6879,,,,0,40,40,40,1,50,175,,,,,,,,
,,614324d428b2dd34dce610a5,65af554cb73447736efa8ab9,2024-01-23_08h02.42.487,bars,2023.2.3,Win32,59.17159763,657b66ea316d21385b68909f,,,,,,,,,,,1230.6886,1231.6817,,,1232.1816,1232.4315,,28,28,,,,,,,,,,,,,,,,bars/000.png,bars/mask007.png,,,,,,,,,,,,6,1,,,,,,,10,6,10,7,,,,,,,,,,,1231.6817,1232.1815,1232.4315,1233.065,space,0.6185,,1233.0651,12,63,1234.0646,1234.0647,1234.0707,,,,0,41,41,41,1,40,145,,,,,,,,
,,614324d428b2dd34dce610a5,65af554cb73447736efa8ab9,2024-01-23_08h02.42.487,bars,2023.2.3,Win32,59.17159763,657b66ea316d21385b68909f,,,,,,,,,,,1234.0715,1235.0646,,,1235.5649,1235.8147,,87,87,,,,,,,,,,,,,,,,bars/049.png,bars/mask006.png,,,,,,,,,,,,0,2,,,,,,,10,4,10,4,,,,,,,,,,,1235.0646,1235.5648,1235.8148,1236.4649,space,0.6368,,1236.465,73,28,1237.4646,1237.4647,1237.4703,,,,0,42,42,42,1,160,115,,,,,,,,
,,614324d428b2dd34dce610a5,65af554cb73447736efa8ab9,2024-01-23_08h02.42.487,bars,2023.2.3,Win32,59.17159763,657b66ea316d21385b68909f,,,,,,,,,,,1237.4714,1238.4665,,,1238.9652,1239.2145,,70,70,,,,,,,,,,,,,,,,bars/010.png,bars/mask008.png,,,,,,,,,,,,4,2,,,,,,,8,6,7,7,,,,,,,,,,,1238.4666,1238.9651,1239.2146,1239.7482,space,0.5183,,1239.7483,85,15,1240.7479,1240.748,1240.7504,,,,0,43,43,43,1,165,55,,,,,,,,
,,614324d428b2dd34dce610a5,65af554cb73447736efa8ab9,2024-01-23_08h02.42.487,bars,2023.2.3,Win32,59.17159763,657b66ea316d21385b68909f,,,,,,,,,,,1240.7532,1241.7479,,,1242.2479,1242.4979,,141,141,,,,,,,,,,,,,,,,bars/005.png,bars/mask004.png,,,,,,,,,,,,9,2,,,,,,,10,8,10,9,,,,,,,,,,,1241.7479,1242.2479,1242.498,1282.6651,space,40.1533,,1282.6652,49,1,1283.664,1283.6641,1283.6896,,,,0,44,44,44,1,10,140,,,,,,,,
,,614324d428b2dd34dce610a5,65af554cb73447736efa8ab9,2024-01-23_08h02.42.487,bars,2023.2.3,Win32,59.17159763,657b66ea316d21385b68909f,,,,,,,,,,,1283.6903,1284.6805,,,1285.1675,1285.4139,,120,120,,,,,,,,,,,,,,,,bars/013.png,bars/mask001.png,,,,,,,,,,,,0,1,,,,,,,10,10,10,10,,,,,,,,,,,1284.6807,1285.1674,1285.4141,1286.931,space,1.5041,,1286.9311,45,70,1287.9306,1287.9307,1287.9564,,,,0,45,45,45,1,75,10,,,,,,,,
,,614324d428b2dd34dce610a5,65af554cb73447736efa8ab9,2024-01-23_08h02.42.487,bars,2023.2.3,Win32,59.17159763,657b66ea316d21385b68909f,,,,,,,,,,,1287.9573,1288.9471,,,1289.4473,1289.6972,,31,31,,,,,,,,,,,,,,,,bars/004.png,bars/mask009.png,,,,,,,,,,,,6,1,,,,,,,8,8,7,8,,,,,,,,,,,1288.9471,1289.4472,1289.6974,1307.914,space,18.2034,,1307.9141,6,86,1308.9136,1308.9137,1308.9396,,,,0,46,46,46,1,25,125,,,,,,,,
,,614324d428b2dd34dce610a5,65af554cb73447736efa8ab9,2024-01-23_08h02.42.487,bars,2023.2.3,Win32,59.17159763,657b66ea316d21385b68909f,,,,,,,,,,,1308.9402,1309.9314,,,1310.4305,1310.6803,,112,112,,,,,,,,,,,,,,,,bars/022.png,bars/mask007.png,,,,,,,,,,,,4,1,,,,,,,10,10,10,10,,,,,,,,,,,1309.9317,1310.4304,1310.6804,1315.2138,space,4.5185,,1315.214,17,88,1316.2135,1316.2136,1316.2394,,,,0,47,47,47,1,95,20,,,,,,,,
,,614324d428b2dd34dce610a5,65af554cb73447736efa8ab9,2024-01-23_08h02.42.487,bars,2023.2.3,Win32,59.17159763,657b66ea316d21385b68909f,,,,,,,,,,,1316.24,1317.2301,,,1317.7302,1317.9803,,8,8,,,,,,,,,,,,,,,,bars/008.png,bars/mask009.png,,,,,,,,,,,,6,2,,,,,,,8,8,8,8,,,,,,,,,,,1317.2301,1317.7302,1317.9804,1322.2138,space,4.2181,,1322.2138,78,8,1323.2135,1323.2136,1323.2412,,,,0,48,48,48,1,110,0,,,,,,,,
,,614324d428b2dd34dce610a5,65af554cb73447736efa8ab9,2024-01-23_08h02.42.487,bars,2023.2.3,Win32,59.17159763,657b66ea316d21385b68909f,,,,,,,,,,,1323.2418,1324.2302,,,1324.7303,1324.9801,,162,162,,,,,,,,,,,,,,,,bars/008.png,bars/mask004.png,,,,,,,,,,,,2,2,,,,,,,10,6,10,6,,,,,,,,,,,1324.2302,1324.7303,1324.9802,1330.131,space,5.1397,,1330.1311,52,18,1331.13,1331.1301,1331.1532,,,,0,49,49,49,1,110,0,,,,,,,,
,,614324d428b2dd34dce610a5,65af554cb73447736efa8ab9,2024-01-23_08h02.42.487,bars,2023.2.3,Win32,59.17159763,657b66ea316d21385b68909f,,,,,,,,,,,,,,,,,,,,,,,,,,,,,,,,,,,,,,,,,,,,,,,,,,,,,,,,,,,,,,,,,,,,,,,,,,,,,,,,,,,,,,,,,,,,,1331.1539,1391.1478,0,2,2,1,1,sequence_tables/blk029.csv
,,614324d428b2dd34dce610a5,65af554cb73447736efa8ab9,2024-01-23_08h02.42.487,bars,2023.2.3,Win32,59.17159763,657b66ea316d21385b68909f,,,,,,,,,,,1403.3051,1404.2791,,,1404.7792,1405.029,,112,112,,,,,,,,,,,,,,,,bars/041.png,bars/mask001.png,,,,,,,,,,,,0,2,,,,,,,4,2,4,1,,,,,,1391.1729,1403.2653,space,12.0811,,1404.2791,1404.779,1405.0292,1406.9459,space,1.9027,,1406.9461,88,27,1407.9456,1407.9457,1407.9689,,,,0,0,0,0,1,20,85,,,,,,,,
,,614324d428b2dd34dce610a5,65af554cb73447736efa8ab9,2024-01-23_08h02.42.487,bars,2023.2.3,Win32,59.17159763,657b66ea316d21385b68909f,,,,,,,,,,,1407.9698,1408.9621,,,1409.4625,1409.7121,,69,69,,,,,,,,,,,,,,,,bars/029.png,bars/mask005.png,,,,,,,,,,,,1,1,,,,,,,2,4,3,3,,,,,,,,,,,1408.9622,1409.4624,1409.7123,1412.6958,space,2.9701,,1412.6959,21,24,1413.6955,1413.6957,1413.7218,,,,0,1,1,1,1,90,45,,,,,,,,
,,614324d428b2dd34dce610a5,65af554cb73447736efa8ab9,2024-01-23_08h02.42.487,bars,2023.2.3,Win32,59.17159763,657b66ea316d21385b68909f,,,,,,,,,,,1413.7224,1414.7121,,,1415.2124,1415.4622,,110,110,,,,,,,,,,,,,,,,bars/031.png,bars/mask005.png,,,,,,,,,,,,0,1,,,,,,,0,6,0,6,,,,,,,,,,,1414.7123,1415.2123,1415.4623,1416.8291,space,1.3515,,1416.8293,10,75,1417.8288,1417.8288,1417.8539,,,,0,2,2,2,1,120,35,,,,,,,,
,,614324d428b2dd34dce610a5,65af554cb73447736efa8ab9,2024-01-23_08h02.42.487,bars,2023.2.3,Win32,59.17159763,657b66ea316d21385b68909f,,,,,,,,,,,1417.8546,1418.8455,,,1419.3457,1419.5954,,48,48,,,,,,,,,,,,,,,,bars/035.png,bars/mask006.png,,,,,,,,,,,,3,2,,,,,,,2,4,0,5,,,,,,,,,,,1418.8456,1419.3456,1419.5955,1421.3457,space,1.7349,,1421.3459,53,12,1422.3453,1422.3453,1422.352,,,,0,3,3,3,1,175,60,,,,,,,,
,,614324d428b2dd34dce610a5,65af554cb73447736efa8ab9,2024-01-23_08h02.42.487,bars,2023.2.3,Win32,59.17159763,657b66ea316d21385b68909f,,,,,,,,,,,1422.3529,1423.3454,,,1423.8456,1424.0954,,111,111,,,,,,,,,,,,,,,,bars/036.png,bars/mask005.png,,,,,,,,,,,,0,1,,,,,,,0,2,0,3,,,,,,,,,,,1423.3454,1423.8454,1424.0955,1425.2958,space,1.1868,,1425.2959,34,89,1426.2953,1426.2954,1426.3013,,,,0,4,4,4,1,145,20,,,,,,,,
,,614324d428b2dd34dce610a5,65af554cb73447736efa8ab9,2024-01-23_08h02.42.487,bars,2023.2.3,Win32,59.17159763,657b66ea316d21385b68909f,,,,,,,,,,,1426.302,1427.2954,,,1427.7963,1428.0453,,24,24,,,,,,,,,,,,,,,,bars/005.png,bars/mask008.png,,,,,,,,,,,,0,1,,,,,,,0,4,0,5,,,,,,,,,,,1427.2955,1427.7963,1428.0454,1428.9955,space,0.936,,1428.9956,14,64,1429.9953,1429.9954,1429.9981,,,,0,5,5,5,1,10,140,,,,,,,,
,,614324d428b2dd34dce610a5,65af554cb73447736efa8ab9,2024-01-23_08h02.42.487,bars,2023.2.3,Win32,59.17159763,657b66ea316d21385b68909f,,,,,,,,,,,1429.9993,1430.9954,,,1431.4956,1431.7453,,111,111,,,,,,,,,,,,,,,,bars/039.png,bars/mask008.png,,,,,,,,,,,,1,2,,,,,,,0,2,0,1,,,,,,,,,,,1430.9955,1431.4955,1431.7455,1433.1288,space,1.3679,,1433.129,64,6,1434.1286,1434.1286,1434.1347,,,,0,6,6,6,1,175,105,,,,,,,,
,,614324d428b2dd34dce610a5,65af554cb73447736efa8ab9,2024-01-23_08h02.42.487,bars,2023.2.3,Win32,59.17159763,657b66ea316d21385b68909f,,,,,,,,,,,1434.1355,1435.1286,,,1435.6287,1435.8787,,158,158,,,,,,,,,,,,,,,,bars/037.png,bars/mask009.png,,,,,,,,,,,,1,1,,,,,,,0,0,1,1,,,,,,,,,,,1435.1287,1435.6286,1435.8788,1437.5788,space,1.6859,,1437.5789,8,53,1438.5785,1438.5786,1438.5859,,,,0,7,7,7,1,150,105,,,,,,,,
,,614324d428b2dd34dce610a5,65af554cb73447736efa8ab9,2024-01-23_08h02.42.487,bars,2023.2.3,Win32,59.17159763,657b66ea316d21385b68909f,,,,,,,,,,,1438.5865,1439.5786,,,1440.0787,1440.3287,,172,-8,,,,,,,,,,,,,,,,bars/049.png,bars/mask001.png,,,,,,,,,,,,0,1,,,,,,,0,2,0,2,,,,,,,,,,,1439.5787,1440.0786,1440.3288,1441.9495,space,1.6081,,1441.9497,12,57,1442.9452,1442.9453,1442.9479,,,,0,8,8,8,1,160,115,,,,,,,,
,,614324d428b2dd34dce610a5,65af554cb73447736efa8ab9,2024-01-23_08h02.42.487,bars,2023.2.3,Win32,59.17159763,657b66ea316d21385b68909f,,,,,,,,,,,1442.949,1443.9452,,,1444.4453,1444.6952,,135,135,,,,,,,,,,,,,,,,bars/011.png,bars/mask003.png,,,,,,,,,,,,0,1,,,,,,,2,0,1,1,,,,,,,,,,,1443.9453,1444.4452,1444.6952,1446.2954,space,1.585,,1446.2955,25,50,1447.295,1447.2951,1447.2978,,,,0,9,9,9,1,160,85,,,,,,,,
,,614324d428b2dd34dce610a5,65af554cb73447736efa8ab9,2024-01-23_08h02.42.487,bars,2023.2.3,Win32,59.17159763,657b66ea316d21385b68909f,,,,,,,,,,,1447.2991,1448.295,,,1448.7951,1449.045,,156,156,,,,,,,,,,,,,,,,bars/040.png,bars/mask003.png,,,,,,,,,,,,0,1,,,,,,,0,0,0,0,,,,,,,,,,,1448.2951,1448.7951,1449.0451,1450.9291,space,1.87,,1450.9291,16,29,1451.9284,1451.9284,1451.9527,,,,0,10,10,10,1,140,5,,,,,,,,
,,614324d428b2dd34dce610a5,65af554cb73447736efa8ab9,2024-01-23_08h02.42.487,bars,2023.2.3,Win32,59.17159763,657b66ea316d21385b68909f,,,,,,,,,,,1451.9532,1452.945,,,1453.4455,1453.695,,3,3,,,,,,,,,,,,,,,,bars/033.png,bars/mask004.png,,,,,,,,,,,,1,1,,,,,,,2,2,3,3,,,,,,,,,,,1452.945,1453.4454,1453.6951,1454.1621,space,0.4534,,1454.1622,22,28,1455.1617,1455.1617,1455.1644,,,,0,11,11,11,1,25,155,,,,,,,,
,,614324d428b2dd34dce610a5,65af554cb73447736efa8ab9,2024-01-23_08h02.42.487,bars,2023.2.3,Win32,59.17159763,657b66ea316d21385b68909f,,,,,,,,,,,1455.1655,1456.1617,,,1456.6617,1456.9117,,42,42,,,,,,,,,,,,,,,,bars/019.png,bars/mask001.png,,,,,,,,,,,,0,1,,,,,,,0,0,0,0,,,,,,,,,,,1456.1617,1456.6616,1456.9117,1457.3119,space,0.3846,,1457.3121,3,63,1458.3117,1458.3117,1458.3143,,,,0,12,12,12,1,45,105,,,,,,,,
,,614324d428b2dd34dce610a5,65af554cb73447736efa8ab9,2024-01-23_08h02.42.487,bars,2023.2.3,Win32,59.17159763,657b66ea316d21385b68909f,,,,,,,,,,,1458.3158,1459.3116,,,1459.8118,1460.0616,,179,179,,,,,,,,,,,,,,,,bars/019.png,bars/mask003.png,,,,,,,,,,,,0,1,,,,,,,0,2,0,0,,,,,,,,,,,1459.3116,1459.8116,1460.0617,1460.529,space,0.4558,,1460.529,46,74,1461.5282,1461.5283,1461.5307,,,,0,13,13,13,1,45,105,,,,,,,,
,,614324d428b2dd34dce610a5,65af554cb73447736efa8ab9,2024-01-23_08h02.42.487,bars,2023.2.3,Win32,59.17159763,657b66ea316d21385b68909f,,,,,,,,,,,1461.5318,1462.5282,,,1463.0284,1463.2782,,140,140,,,,,,,,,,,,,,,,bars/019.png,bars/mask005.png,,,,,,,,,,,,0,2,,,,,,,0,4,0,4,,,,,,,,,,,1462.5283,1463.0283,1463.2784,1463.6791,space,0.3848,,1463.6792,85,35,1464.6787,1464.6788,1464.6849,,,,0,14,14,14,1,45,105,,,,,,,,
,,614324d428b2dd34dce610a5,65af554cb73447736efa8ab9,2024-01-23_08h02.42.487,bars,2023.2.3,Win32,59.17159763,657b66ea316d21385b68909f,,,,,,,,,,,1464.6858,1465.6787,,,1466.1785,1466.4282,,152,152,,,,,,,,,,,,,,,,bars/005.png,bars/mask002.png,,,,,,,,,,,,1,2,,,,,,,2,2,3,2,,,,,,,,,,,1465.6789,1466.1784,1466.4283,1466.9118,space,0.4697,,1466.9119,38,12,1467.9114,1467.9115,1467.9142,,,,0,15,15,15,1,10,140,,,,,,,,
,,614324d428b2dd34dce610a5,65af554cb73447736efa8ab9,2024-01-23_08h02.42.487,bars,2023.2.3,Win32,59.17159763,657b66ea316d21385b68909f,,,,,,,,,,,1467.9154,1468.9115,,,1469.4116,1469.6616,,70,70,,,,,,,,,,,,,,,,bars/022.png,bars/mask007.png,,,,,,,,,,,,0,1,,,,,,,0,0,0,0,,,,,,,,,,,1468.9115,1469.4115,1469.6616,1471.0631,space,1.3905,,1471.0632,25,50,1472.0615,1472.0615,1472.0681,,,,0,16,16,16,1,95,20,,,,,,,,
,,614324d428b2dd34dce610a5,65af554cb73447736efa8ab9,2024-01-23_08h02.42.487,bars,2023.2.3,Win32,59.17159763,657b66ea316d21385b68909f,,,,,,,,,,,1472.0694,1473.0614,,,1473.5616,1473.8114,,38,38,,,,,,,,,,,,,,,,bars/042.png,bars/mask003.png,,,,,,,,,,,,0,2,,,,,,,0,2,0,2,,,,,,,,,,,1473.0615,1473.5615,1473.8115,1476.945,space,3.1185,,1476.9452,73,37,1477.9448,1477.9448,1477.9705,,,,0,17,17,17,1,145,75,,,,,,,,
,,614324d428b2dd34dce610a5,65af554cb73447736efa8ab9,2024-01-23_08h02.42.487,bars,2023.2.3,Win32,59.17159763,657b66ea316d21385b68909f,,,,,,,,,,,1477.9712,1478.9616,,,1479.4614,1479.7113,,109,109,,,,,,,,,,,,,,,,bars/008.png,bars/mask007.png,,,,,,,,,,,,0,1,,,,,,,0,4,0,2,,,,,,,,,,,1478.9616,1479.4614,1479.7114,1482.5448,space,2.8196,,1482.545,1,71,1483.5445,1483.5446,1483.5699,,,,0,18,18,18,1,110,0,,,,,,,,
,,614324d428b2dd34dce610a5,65af554cb73447736efa8ab9,2024-01-23_08h02.42.487,bars,2023.2.3,Win32,59.17159763,657b66ea316d21385b68909f,,,,,,,,,,,1483.5705,1484.5613,,,1485.0613,1485.3113,,137,137,,,,,,,,,,,,,,,,bars/021.png,bars/mask005.png,,,,,,,,,,,,2,1,,,,,,,2,6,4,8,,,,,,,,,,,1484.5614,1485.0613,1485.3113,1486.795,space,1.4688,,1486.7951,18,67,1487.7945,1487.7946,1487.8189,,,,0,19,19,19,1,155,70,,,,,,,,
,,614324d428b2dd34dce610a5,65af554cb73447736efa8ab9,2024-01-23_08h02.42.487,bars,2023.2.3,Win32,59.17159763,657b66ea316d21385b68909f,,,,,,,,,,,1487.8196,1488.8113,,,1489.3113,1489.5612,,169,169,,,,,,,,,,,,,,,,bars/048.png,bars/mask009.png,,,,,,,,,,,,2,2,,,,,,,0,4,0,3,,,,,,,,,,,1488.8114,1489.3112,1489.5612,1491.0112,space,1.4376,,1491.0112,61,6,1492.0112,1492.0113,1492.0369,,,,0,20,20,20,1,50,175,,,,,,,,
,,614324d428b2dd34dce610a5,65af554cb73447736efa8ab9,2024-01-23_08h02.42.487,bars,2023.2.3,Win32,59.17159763,657b66ea316d21385b68909f,,,,,,,,,,,1492.0375,1493.032,,,1493.5314,1493.7866,,62,62,,,,,,,,,,,,,,,,bars/040.png,bars/mask006.png,,,,,,,,,,,,0,2,,,,,,,2,6,3,7,,,,,,,,,,,1493.032,1493.5313,1493.7867,1495.3879,space,1.585,,1495.388,78,57,1496.3866,1496.3866,1496.3889,,,,0,21,21,21,1,140,5,,,,,,,,
,,614324d428b2dd34dce610a5,65af554cb73447736efa8ab9,2024-01-23_08h02.42.487,bars,2023.2.3,Win32,59.17159763,657b66ea316d21385b68909f,,,,,,,,,,,1496.3895,1497.3869,,,1497.8799,1498.1301,,25,25,,,,,,,,,,,,,,,,bars/007.png,bars/mask006.png,,,,,,,,,,,,0,2,,,,,,,0,8,0,9,,,,,,,,,,,1497.3869,1497.8796,1498.1304,1501.3307,space,3.184,,1501.3309,30,30,1502.3296,1502.3297,1502.3558,,,,0,22,22,22,1,175,55,,,,,,,,
,,614324d428b2dd34dce610a5,65af554cb73447736efa8ab9,2024-01-23_08h02.42.487,bars,2023.2.3,Win32,59.17159763,657b66ea316d21385b68909f,,,,,,,,,,,1502.3564,1503.3445,,,1503.8446,1504.0944,,45,45,,,,,,,,,,,,,,,,bars/019.png,bars/mask008.png,,,,,,,,,,,,1,1,,,,,,,0,6,1,5,,,,,,,,,,,1503.3446,1503.8444,1504.0945,1506.3789,space,2.273,,1506.3789,0,60,1507.3775,1507.3777,1507.3844,,,,0,23,23,23,1,45,105,,,,,,,,
,,614324d428b2dd34dce610a5,65af554cb73447736efa8ab9,2024-01-23_08h02.42.487,bars,2023.2.3,Win32,59.17159763,657b66ea316d21385b68909f,,,,,,,,,,,1507.385,1508.3776,,,1508.8777,1509.1276,,53,53,,,,,,,,,,,,,,,,bars/008.png,bars/mask006.png,,,,,,,,,,,,0,2,,,,,,,2,8,2,9,,,,,,,,,,,1508.3776,1508.8776,1509.1277,1511.1794,space,2.0414,,1511.1795,57,53,1512.1776,1512.1777,1512.2033,,,,0,24,24,24,1,110,0,,,,,,,,
,,614324d428b2dd34dce610a5,65af554cb73447736efa8ab9,2024-01-23_08h02.42.487,bars,2023.2.3,Win32,59.17159763,657b66ea316d21385b68909f,,,,,,,,,,,1512.2039,1513.1941,,,1513.6944,1513.9443,,137,137,,,,,,,,,,,,,,,,bars/040.png,bars/mask003.png,,,,,,,,,,,,1,1,,,,,,,0,10,1,10,,,,,,,,,,,1513.1963,1513.6942,1513.9443,1515.5445,space,1.5876,,1515.5446,3,48,1516.5441,1516.5442,1516.5504,,,,0,25,25,25,1,140,5,,,,,,,,
,,614324d428b2dd34dce610a5,65af554cb73447736efa8ab9,2024-01-23_08h02.42.487,bars,2023.2.3,Win32,59.17159763,657b66ea316d21385b68909f,,,,,,,,,,,1516.5515,1517.5443,,,1518.0442,1518.2941,,32,32,,,,,,,,,,,,,,,,bars/035.png,bars/mask000.png,,,,,,,,,,,,1,2,,,,,,,2,8,3,9,,,,,,,,,,,1517.5444,1518.0441,1518.2943,1518.6129,space,0.307,,1518.613,37,28,1519.6107,1519.6108,1519.6178,,,,0,26,26,26,1,175,60,,,,,,,,
,,614324d428b2dd34dce610a5,65af554cb73447736efa8ab9,2024-01-23_08h02.42.487,bars,2023.2.3,Win32,59.17159763,657b66ea316d21385b68909f,,,,,,,,,,,1519.6184,1520.6108,,,1521.1109,1521.3607,,149,149,,,,,,,,,,,,,,,,bars/044.png,bars/mask000.png,,,,,,,,,,,,8,2,,,,,,,0,10,0,10,,,,,,,,,,,1520.6108,1521.1108,1521.3608,1522.5789,space,1.2076,,1522.579,74,6,1523.5775,1523.5776,1523.6036,,,,0,27,27,27,1,75,155,,,,,,,,
,,614324d428b2dd34dce610a5,65af554cb73447736efa8ab9,2024-01-23_08h02.42.487,bars,2023.2.3,Win32,59.17159763,657b66ea316d21385b68909f,,,,,,,,,,,1523.6048,1524.5951,,,1525.0942,1525.344,,67,67,,,,,,,,,,,,,,,,bars/041.png,bars/mask000.png,,,,,,,,,,,,4,2,,,,,,,0,10,0,10,,,,,,,,,,,1524.5953,1525.0941,1525.3441,1527.312,space,1.9575,,1527.3121,47,18,1528.3107,1528.3108,1528.3349,,,,0,28,28,28,1,20,85,,,,,,,,
,,614324d428b2dd34dce610a5,65af554cb73447736efa8ab9,2024-01-23_08h02.42.487,bars,2023.2.3,Win32,59.17159763,657b66ea316d21385b68909f,,,,,,,,,,,1528.3354,1529.3274,,,1529.8274,1530.0774,,23,23,,,,,,,,,,,,,,,,bars/033.png,bars/mask007.png,,,,,,,,,,,,1,1,,,,,,,0,10,1,10,,,,,,,,,,,1529.3274,1529.8273,1530.0774,1532.061,space,1.9683,,1532.061,2,48,1533.0607,1533.0608,1533.0672,,,,0,29,29,29,1,25,155,,,,,,,,
,,614324d428b2dd34dce610a5,65af554cb73447736efa8ab9,2024-01-23_08h02.42.487,bars,2023.2.3,Win32,59.17159763,657b66ea316d21385b68909f,,,,,,,,,,,1533.0679,1534.0606,,,1534.5607,1534.8107,,149,149,,,,,,,,,,,,,,,,bars/049.png,bars/mask008.png,,,,,,,,,,,,1,1,,,,,,,2,8,2,6,,,,,,,,,,,1534.0606,1534.5606,1534.8107,1537.6943,space,2.869,,1537.6944,11,34,1538.694,1538.694,1538.7167,,,,0,30,30,30,1,160,115,,,,,,,,
,,614324d428b2dd34dce610a5,65af554cb73447736efa8ab9,2024-01-23_08h02.42.487,bars,2023.2.3,Win32,59.17159763,657b66ea316d21385b68909f,,,,,,,,,,,1538.7174,1539.7123,,,1540.2128,1540.4623,,56,56,,,,,,,,,,,,,,,,bars/038.png,bars/mask001.png,,,,,,,,,,,,4,2,,,,,,,4,6,4,7,,,,,,,,,,,1539.7124,1540.2127,1540.4624,1543.0442,space,2.5669,,1543.0443,71,14,1544.0438,1544.0438,1544.072,,,,0,31,31,31,1,165,70,,,,,,,,
,,614324d428b2dd34dce610a5,65af554cb73447736efa8ab9,2024-01-23_08h02.42.487,bars,2023.2.3,Win32,59.17159763,657b66ea316d21385b68909f,,,,,,,,,,,1544.0727,1545.0771,,,1545.5773,1545.8272,,75,75,,,,,,,,,,,,,,,,bars/015.png,bars/mask008.png,,,,,,,,,,,,0,1,,,,,,,2,8,1,10,,,,,,,,,,,1545.0772,1545.5771,1545.8273,1547.5606,space,1.7189,,1547.5607,35,85,1548.5608,1548.5608,1548.5669,,,,0,32,32,32,1,110,160,,,,,,,,
,,614324d428b2dd34dce610a5,65af554cb73447736efa8ab9,2024-01-23_08h02.42.487,bars,2023.2.3,Win32,59.17159763,657b66ea316d21385b68909f,,,,,,,,,,,1548.5675,1549.5604,,,1550.0607,1550.3104,,132,132,,,,,,,,,,,,,,,,bars/021.png,bars/mask001.png,,,,,,,,,,,,0,1,,,,,,,0,10,1,8,,,,,,,,,,,1549.5605,1550.0606,1550.3105,1552.7285,space,2.4074,,1552.7286,23,62,1553.7269,1553.727,1553.7508,,,,0,33,33,33,1,155,70,,,,,,,,
,,614324d428b2dd34dce610a5,65af554cb73447736efa8ab9,2024-01-23_08h02.42.487,bars,2023.2.3,Win32,59.17159763,657b66ea316d21385b68909f,,,,,,,,,,,1553.7514,1554.7445,,,1555.2437,1555.4944,,77,77,,,,,,,,,,,,,,,,bars/017.png,bars/mask006.png,,,,,,,,,,,,0,2,,,,,,,2,8,2,9,,,,,,,,,,,1554.7446,1555.2437,1555.4944,1557.7456,space,2.2408,,1557.7458,68,32,1558.7437,1558.7439,1558.7701,,,,0,34,34,34,1,145,45,,,,,,,,
,,614324d428b2dd34dce610a5,65af554cb73447736efa8ab9,2024-01-23_08h02.42.487,bars,2023.2.3,Win32,59.17159763,657b66ea316d21385b68909f,,,,,,,,,,,1558.7708,1559.7602,,,1560.2609,1560.5103,,157,-23,,,,,,,,,,,,,,,,bars/036.png,bars/mask005.png,,,,,,,,,,,,2,1,,,,,,,4,6,4,7,,,,,,,,,,,1559.7603,1560.2608,1560.5103,1562.5106,space,1.9863,,1562.5107,12,43,1563.5101,1563.5102,1563.5162,,,,0,35,35,35,1,145,20,,,,,,,,
,,614324d428b2dd34dce610a5,65af554cb73447736efa8ab9,2024-01-23_08h02.42.487,bars,2023.2.3,Win32,59.17159763,657b66ea316d21385b68909f,,,,,,,,,,,1563.5168,1564.5102,,,1565.0109,1565.2602,,153,153,,,,,,,,,,,,,,,,bars/007.png,bars/mask000.png,,,,,,,,,,,,2,1,,,,,,,6,4,7,2,,,,,,,,,,,1564.5102,1565.0108,1565.2602,1567.9437,space,2.6688,,1567.9439,22,82,1568.9438,1568.9438,1568.9696,,,,0,36,36,36,1,175,55,,,,,,,,
,,614324d428b2dd34dce610a5,65af554cb73447736efa8ab9,2024-01-23_08h02.42.487,bars,2023.2.3,Win32,59.17159763,657b66ea316d21385b68909f,,,,,,,,,,,1568.9708,1569.96,,,1570.461,1570.7102,,117,117,,,,,,,,,,,,,,,,bars/037.png,bars/mask006.png,,,,,,,,,,,,4,2,,,,,,,4,6,5,6,,,,,,,,,,,1569.9601,1570.4608,1570.7102,1574.3114,space,3.5899,,1574.3115,33,12,1575.3101,1575.3101,1575.3365,,,,0,37,37,37,1,150,105,,,,,,,,
,,614324d428b2dd34dce610a5,65af554cb73447736efa8ab9,2024-01-23_08h02.42.487,bars,2023.2.3,Win32,59.17159763,657b66ea316d21385b68909f,,,,,,,,,,,1575.3371,1576.3265,,,1576.8269,1577.0768,,133,133,,,,,,,,,,,,,,,,bars/023.png,bars/mask007.png,,,,,,,,,,,,4,2,,,,,,,2,8,3,9,,,,,,,,,,,1576.3267,1576.8267,1577.0769,1579.0121,space,1.9236,,1579.0122,67,18,1580.0099,1580.01,1580.0338,,,,0,38,38,38,1,20,115,,,,,,,,
,,614324d428b2dd34dce610a5,65af554cb73447736efa8ab9,2024-01-23_08h02.42.487,bars,2023.2.3,Win32,59.17159763,657b66ea316d21385b68909f,,,,,,,,,,,1580.0344,1581.0286,,,1581.529,1581.7787,,132,132,,,,,,,,,,,,,,,,bars/049.png,bars/mask006.png,,,,,,,,,,,,4,2,,,,,,,0,10,1,10,,,,,,,,,,,1581.0286,1581.5289,1581.7788,1585.6788,space,3.8845,,1585.6788,28,17,1586.6785,1586.6786,1586.7014,,,,0,39,39,39,1,160,115,,,,,,,,
,,614324d428b2dd34dce610a5,65af554cb73447736efa8ab9,2024-01-23_08h02.42.487,bars,2023.2.3,Win32,59.17159763,657b66ea316d21385b68909f,,,,,,,,,,,1586.702,1587.6932,,,1588.1934,1588.4432,,130,130,,,,,,,,,,,,,,,,bars/046.png,bars/mask008.png,,,,,,,,,,,,0,1,,,,,,,2,10,2,10,,,,,,,,,,,1587.6935,1588.1934,1588.4433,1591.1267,space,2.668,,1591.1269,25,45,1592.1265,1592.1265,1592.1524,,,,0,40,40,40,1,155,85,,,,,,,,
,,614324d428b2dd34dce610a5,65af554cb73447736efa8ab9,2024-01-23_08h02.42.487,bars,2023.2.3,Win32,59.17159763,657b66ea316d21385b68909f,,,,,,,,,,,1592.153,1593.1431,,,1593.6432,1593.8932,,89,89,,,,,,,,,,,,,,,,bars/041.png,bars/mask008.png,,,,,,,,,,,,5,2,,,,,,,4,8,3,6,,,,,,,,,,,1593.1433,1593.6431,1593.8933,1596.36,space,2.4536,,1596.3601,69,4,1597.3598,1597.3599,1597.3661,,,,0,41,41,41,1,20,85,,,,,,,,
,,614324d428b2dd34dce610a5,65af554cb73447736efa8ab9,2024-01-23_08h02.42.487,bars,2023.2.3,Win32,59.17159763,657b66ea316d21385b68909f,,,,,,,,,,,1597.3667,1598.3597,,,1598.8599,1599.1099,,79,79,,,,,,,,,,,,,,,,bars/038.png,bars/mask006.png,,,,,,,,,,,,6,2,,,,,,,6,10,5,9,,,,,,,,,,,1598.3597,1598.8598,1599.11,1602.1766,space,3.0512,,1602.1766,86,9,1603.1763,1603.1763,1603.1994,,,,0,42,42,42,1,165,70,,,,,,,,
,,614324d428b2dd34dce610a5,65af554cb73447736efa8ab9,2024-01-23_08h02.42.487,bars,2023.2.3,Win32,59.17159763,657b66ea316d21385b68909f,,,,,,,,,,,1603.2,1604.1929,,,1604.6932,1604.943,,112,112,,,,,,,,,,,,,,,,bars/023.png,bars/mask005.png,,,,,,,,,,,,8,2,,,,,,,4,10,5,9,,,,,,,,,,,1604.1929,1604.693,1604.943,1606.7932,space,1.8342,,1606.7932,88,3,1607.7929,1607.793,1607.8172,,,,0,43,43,43,1,20,115,,,,,,,,
,,614324d428b2dd34dce610a5,65af554cb73447736efa8ab9,2024-01-23_08h02.42.487,bars,2023.2.3,Win32,59.17159763,657b66ea316d21385b68909f,,,,,,,,,,,1607.8179,1608.8107,,,1609.3097,1609.5597,,106,106,,,,,,,,,,,,,,,,bars/044.png,bars/mask001.png,,,,,,,,,,,,0,1,,,,,,,2,10,3,10,,,,,,,,,,,1608.8107,1609.3097,1609.5597,1611.597,space,2.0226,,1611.5971,31,49,1612.5929,1612.593,1612.6186,,,,0,44,44,44,1,75,155,,,,,,,,
,,614324d428b2dd34dce610a5,65af554cb73447736efa8ab9,2024-01-23_08h02.42.487,bars,2023.2.3,Win32,59.17159763,657b66ea316d21385b68909f,,,,,,,,,,,1612.6191,1613.6095,,,1614.1102,1614.3615,,121,121,,,,,,,,,,,,,,,,bars/047.png,bars/mask008.png,,,,,,,,,,,,0,2,,,,,,,0,10,0,10,,,,,,,,,,,1613.6095,1614.1101,1614.3615,1616.5431,space,2.169,,1616.5433,74,51,1617.5428,1617.5429,1617.5488,,,,0,45,45,45,1,15,70,,,,,,,,
,,614324d428b2dd34dce610a5,65af554cb73447736efa8ab9,2024-01-23_08h02.42.487,bars,2023.2.3,Win32,59.17159763,657b66ea316d21385b68909f,,,,,,,,,,,1617.5494,1618.5429,,,1619.0428,1619.2928,,63,63,,,,,,,,,,,,,,,,bars/041.png,bars/mask009.png,,,,,,,,,,,,3,2,,,,,,,0,10,1,10,,,,,,,,,,,1618.5429,1619.0427,1619.2929,1621.8785,space,2.5747,,1621.8786,43,22,1622.8761,1622.8761,1622.8993,,,,0,46,46,46,1,20,85,,,,,,,,
,,614324d428b2dd34dce610a5,65af554cb73447736efa8ab9,2024-01-23_08h02.42.487,bars,2023.2.3,Win32,59.17159763,657b66ea316d21385b68909f,,,,,,,,,,,1622.9001,1623.8926,,,1624.3929,1624.6426,,64,64,,,,,,,,,,,,,,,,bars/019.png,bars/mask002.png,,,,,,,,,,,,1,1,,,,,,,0,10,3,10,,,,,,,,,,,1623.8926,1624.3928,1624.6429,1628.8762,space,4.2194,,1628.8763,19,41,1629.8758,1629.8759,1629.9013,,,,0,47,47,47,1,45,105,,,,,,,,
,,614324d428b2dd34dce610a5,65af554cb73447736efa8ab9,2024-01-23_08h02.42.487,bars,2023.2.3,Win32,59.17159763,657b66ea316d21385b68909f,,,,,,,,,,,1629.9019,1630.8927,,,1631.3927,1631.6427,,132,132,,,,,,,,,,,,,,,,bars/007.png,bars/mask007.png,,,,,,,,,,,,0,1,,,,,,,0,10,0,10,,,,,,,,,,,1630.8927,1631.3927,1631.6427,1633.5429,space,1.8856,,1633.5429,43,77,1634.5425,1634.5426,1634.5668,,,,0,48,48,48,1,175,55,,,,,,,,
,,614324d428b2dd34dce610a5,65af554cb73447736efa8ab9,2024-01-23_08h02.42.487,bars,2023.2.3,Win32,59.17159763,657b66ea316d21385b68909f,,,,,,,,,,,1634.568,1635.5602,,,1636.0594,1636.3092,,82,82,,,,,,,,,,,,,,,,bars/030.png,bars/mask005.png,,,,,,,,,,,,3,2,,,,,,,2,8,1,8,,,,,,,,,,,1635.5602,1636.0592,1636.3093,1638.9095,space,2.5859,,1638.9096,58,17,1639.9091,1639.9092,1639.9368,,,,0,49,49,49,1,140,65,,,,,,,,
,,614324d428b2dd34dce610a5,65af554cb73447736efa8ab9,2024-01-23_08h02.42.487,bars,2023.2.3,Win32,59.17159763,657b66ea316d21385b68909f,,,,,,,,,,,,,,,,,,,,,,,,,,,,,,,,,,,,,,,,,,,,,,,,,,,,,,,,,,,,,,,,,,,,,,,,,,,,,,,,,,,,,,,,,,,,,1639.9369,1699.9251,0,3,3,0,1,sequence_tables/blk012.csv
,,614324d428b2dd34dce610a5,65af554cb73447736efa8ab9,2024-01-23_08h02.42.487,bars,2023.2.3,Win32,59.17159763,657b66ea316d21385b68909f,,,,,,,,,,,1734.7269,1735.6995,,,1736.2002,1736.4497,,140,140,,,,,,,,,,,,,,,,bars/024.png,bars/mask003.png,,,,,,,,,,,,1,1,,,,,,,1,3,2,3,,,,,,1699.9504,1734.6928,space,34.7323,,1735.6996,1736.2001,1736.45,1739.7677,space,3.302,,1739.7679,20,30,1740.7663,1740.7664,1740.7941,,,,0,0,0,0,1,120,170,,,,,,,,
,,614324d428b2dd34dce610a5,65af554cb73447736efa8ab9,2024-01-23_08h02.42.487,bars,2023.2.3,Win32,59.17159763,657b66ea316d21385b68909f,,,,,,,,,,,1740.7948,1741.7827,,,1742.2831,1742.5331,,49,49,,,,,,,,,,,,,,,,bars/047.png,bars/mask000.png,,,,,,,,,,,,2,2,,,,,,,3,5,4,6,,,,,,,,,,,1741.7827,1742.2831,1742.5332,1742.9512,space,0.4019,,1742.9513,34,21,1743.9498,1743.9499,1743.9552,,,,0,1,1,1,1,15,70,,,,,,,,
,,614324d428b2dd34dce610a5,65af554cb73447736efa8ab9,2024-01-23_08h02.42.487,bars,2023.2.3,Win32,59.17159763,657b66ea316d21385b68909f,,,,,,,,,,,1743.9558,1744.9494,,,1745.4453,1745.6831,,35,35,,,,,,,,,,,,,,,,bars/046.png,bars/mask000.png,,,,,,,,,,,,0,2,,,,,,,1,3,2,3,,,,,,,,,,,1744.9495,1745.4453,1745.6832,1746.2023,space,0.5031,,1746.2024,60,50,1747.2001,1747.2002,1747.2031,,,,0,2,2,2,1,155,85,,,,,,,,
,,614324d428b2dd34dce610a5,65af554cb73447736efa8ab9,2024-01-23_08h02.42.487,bars,2023.2.3,Win32,59.17159763,657b66ea316d21385b68909f,,,,,,,,,,,1747.2039,1748.2006,,,1748.6911,1748.9411,,103,103,,,,,,,,,,,,,,,,bars/032.png,bars/mask001.png,,,,,,,,,,,,0,1,,,,,,,0,1,1,1,,,,,,,,,,,1748.2007,1748.6911,1748.9411,1751.0413,space,2.0846,,1751.0413,22,83,1752.0411,1752.0412,1752.0674,,,,0,3,3,3,1,125,20,,,,,,,,
,,614324d428b2dd34dce610a5,65af554cb73447736efa8ab9,2024-01-23_08h02.42.487,bars,2023.2.3,Win32,59.17159763,657b66ea316d21385b68909f,,,,,,,,,,,1752.0679,1753.0576,,,1753.5576,1753.8076,,169,169,,,,,,,,,,,,,,,,bars/007.png,bars/mask002.png,,,,,,,,,,,,1,1,,,,,,,2,3,1,3,,,,,,,,,,,1753.0577,1753.5576,1753.8077,1755.6413,space,1.819,,1755.6413,6,66,1756.6409,1756.641,1756.6437,,,,0,4,4,4,1,175,55,,,,,,,,
,,614324d428b2dd34dce610a5,65af554cb73447736efa8ab9,2024-01-23_08h02.42.487,bars,2023.2.3,Win32,59.17159763,657b66ea316d21385b68909f,,,,,,,,,,,1756.645,1757.6409,,,1758.1409,1758.3909,,127,127,,,,,,,,,,,,,,,,bars/001.png,bars/mask001.png,,,,,,,,,,,,3,1,,,,,,,4,1,3,1,,,,,,,,,,,1757.6409,1758.1409,1758.3909,1760.2077,space,1.8023,,1760.2078,3,42,1761.2075,1761.2076,1761.2316,,,,0,5,5,5,1,130,85,,,,,,,,
,,614324d428b2dd34dce610a5,65af554cb73447736efa8ab9,2024-01-23_08h02.42.487,bars,2023.2.3,Win32,59.17159763,657b66ea316d21385b68909f,,,,,,,,,,,1761.2322,1762.2254,,,1762.7158,1762.9662,,153,153,,,,,,,,,,,,,,,,bars/038.png,bars/mask004.png,,,,,,,,,,,,3,1,,,,,,,6,3,5,2,,,,,,,,,,,1762.2254,1762.7157,1762.9663,1765.5008,space,2.518,,1765.5009,12,83,1766.4991,1766.4992,1766.5224,,,,0,6,6,6,1,165,70,,,,,,,,
,,614324d428b2dd34dce610a5,65af554cb73447736efa8ab9,2024-01-23_08h02.42.487,bars,2023.2.3,Win32,59.17159763,657b66ea316d21385b68909f,,,,,,,,,,,1766.5238,1767.5241,,,1768.0123,1768.2575,,51,51,,,,,,,,,,,,,,,,bars/048.png,bars/mask007.png,,,,,,,,,,,,5,1,,,,,,,4,5,5,4,,,,,,,,,,,1767.5241,1768.0122,1768.2575,1770.0257,space,1.7576,,1770.0257,1,56,1771.0241,1771.0241,1771.0484,,,,0,7,7,7,1,50,175,,,,,,,,
,,614324d428b2dd34dce610a5,65af554cb73447736efa8ab9,2024-01-23_08h02.42.487,bars,2023.2.3,Win32,59.17159763,657b66ea316d21385b68909f,,,,,,,,,,,1771.049,1772.0415,,,1772.541,1772.7908,,127,127,,,,,,,,,,,,,,,,bars/031.png,bars/mask004.png,,,,,,,,,,,,5,1,,,,,,,6,7,7,8,,,,,,,,,,,1772.0416,1772.5409,1772.7909,1774.7419,space,1.9402,,1774.7422,7,88,1775.7407,1775.7409,1775.7634,,,,0,8,8,8,1,120,35,,,,,,,,
,,614324d428b2dd34dce610a5,65af554cb73447736efa8ab9,2024-01-23_08h02.42.487,bars,2023.2.3,Win32,59.17159763,657b66ea316d21385b68909f,,,,,,,,,,,1775.7641,1776.7592,,,1777.2601,1777.5089,,113,113,,,,,,,,,,,,,,,,bars/026.png,bars/mask003.png,,,,,,,,,,,,1,2,,,,,,,4,9,5,8,,,,,,,,,,,1776.7593,1777.2598,1777.5097,1778.5926,space,1.07,,1778.593,78,28,1779.5921,1779.5923,1779.597,,,,0,9,9,9,1,35,85,,,,,,,,
,,614324d428b2dd34dce610a5,65af554cb73447736efa8ab9,2024-01-23_08h02.42.487,bars,2023.2.3,Win32,59.17159763,657b66ea316d21385b68909f,,,,,,,,,,,1779.5977,1780.5925,,,1781.093,1781.3427,,129,129,,,,,,,,,,,,,,,,bars/042.png,bars/mask006.png,,,,,,,,,,,,3,1,,,,,,,6,10,6,10,,,,,,,,,,,1780.5928,1781.093,1781.3428,1782.8091,space,1.4518,,1782.8092,16,54,1783.8092,1783.8093,1783.8134,,,,0,10,10,10,1,145,75,,,,,,,,
,,614324d428b2dd34dce610a5,65af554cb73447736efa8ab9,2024-01-23_08h02.42.487,bars,2023.2.3,Win32,59.17159763,657b66ea316d21385b68909f,,,,,,,,,,,1783.814,1784.8088,,,1785.309,1785.5594,,134,134,,,,,,,,,,,,,,,,bars/040.png,bars/mask007.png,,,,,,,,,,,,7,1,,,,,,,8,8,9,9,,,,,,,,,,,1784.8089,1785.309,1785.5595,1786.9794,space,1.4099,,1786.9795,6,51,1787.9758,1787.9759,1787.9785,,,,0,11,11,11,1,140,5,,,,,,,,
,,614324d428b2dd34dce610a5,65af554cb73447736efa8ab9,2024-01-23_08h02.42.487,bars,2023.2.3,Win32,59.17159763,657b66ea316d21385b68909f,,,,,,,,,,,1787.9792,1788.9761,,,1789.4755,1789.7254,,53,53,,,,,,,,,,,,,,,,bars/029.png,bars/mask004.png,,,,,,,,,,,,6,2,,,,,,,6,6,5,8,,,,,,,,,,,1788.9762,1789.4754,1789.7255,1792.026,space,2.2848,,1792.0261,37,8,1793.0257,1793.0258,1793.0525,,,,0,12,12,12,1,90,45,,,,,,,,
