init_variables.started,init_variables.stopped,participant,session,date,expName,psychopyVersion,OS,frameRate,study_id,instruction_exp.started,instruction_exp.stopped,key_resp_8.keys,key_resp_8.rt,key_resp_8.duration,instruction_single.started,instruction_single.stopped,key_resp_2.keys,key_resp_2.rt,key_resp_2.duration,interval.started,interval.stopped,cue_single.started,cue_single.stopped,mask.started,mask.stopped,ori_response_single.started,res_ori,res,ori_response_single.stopped,key_resp_single.keys,key_resp_single.rt,key_resp_single.duration,disp_single.started,disp_single.stopped,key_resp.keys,key_resp.rt,key_resp.duration,single.thisRepN,single.thisTrialN,single.thisN,single.thisIndex,single.ran,ori,path,mask_path,instruction_bandit.started,instruction_bandit.stopped,key_resp_6.keys,key_resp_6.rt,key_resp_6.duration,cue_bandit.started,cue_bandit.stopped,bandit_res.keys,bandit_res.rt,bandit_res.duration,outcome_bandit.started,rew,action,outcome_bandit.stopped,bandit.thisRepN,bandit.thisTrialN,bandit.thisN,bandit.thisIndex,bandit.ran,actual_rew1,actual_rew2,rew1,rew2,instruction_task.started,instruction_task.stopped,key_resp_7.keys,key_resp_7.rt,key_resp_7.duration,wait_ready.started,wait_ready.stopped,key_resp_3.keys,key_resp_3.rt,key_resp_3.duration,cue.started,cue.stopped,ori_response.started,ori_response.stopped,key_resp_5.keys,key_resp_5.rt,key_resp_5.duration,outcome.started,diff1,diff2,outcome.stopped,disp_outcome_practice.started,disp_outcome_practice.stopped,key_resp_4.keys,key_resp_4.rt,key_resp_4.duration,trials.thisRepN,trials.thisTrialN,trials.thisN,trials.thisIndex,trials.ran,ori1,ori2,break_blk.started,break_blk.stopped,block.thisRepN,block.thisTrialN,block.thisN,block.thisIndex,block.ran,condition_file
0.0003,0.0004,601d7556fe4dfb0d99b3d825,65af52bacbfd19b26dc0c392,2024-01-23_07h46.58.626,bars,2023.2.3,Win32,144.9275362,657b66ea316d21385b68909f,,,,,,,,,,,,,,,,,,,,,,,,,,,,,,,,,,,,,,,,,,,,,,,,,,,,,,,,,,,,,,,,,,,,,,,,,,,,,,,,,,,,,,,,,,,,,,,,,,,,
,,601d7556fe4dfb0d99b3d825,65af52bacbfd19b26dc0c392,2024-01-23_07h46.58.626,bars,2023.2.3,Win32,144.9275362,657b66ea316d21385b68909f,0.0006,525.6905,y,525.6708,,,,,,,,,,,,,,,,,,,,,,,,,,,,,,,,,,,,,,,,,,,,,,,,,,,,,,,,,,,,,,,,,,,,,,,,,,,,,,,,,,,,,,,,,,,,,,,,
,,601d7556fe4dfb0d99b3d825,65af52bacbfd19b26dc0c392,2024-01-23_07h46.58.626,bars,2023.2.3,Win32,144.9275362,657b66ea316d21385b68909f,,,,,,525.6909,535.925,space,10.2193,,,,,,,,,,,,,,,,,,,,,,,,,,,,,,,,,,,,,,,,,,,,,,,,,,,,,,,,,,,,,,,,,,,,,,,,,,,,,,,,,,,,,,,,,,,
,,601d7556fe4dfb0d99b3d825,65af52bacbfd19b26dc0c392,2024-01-23_07h46.58.626,bars,2023.2.3,Win32,144.9275362,657b66ea316d21385b68909f,,,,,,,,,,,535.9303,536.9315,536.9316,537.4314,537.4316,537.6813,537.6816,91,91,542.7794,space,5.089,,542.7795,553.1967,space,10.3991,,0,0,0,4,1,95,bars/single004.png,bars/mask004.png,,,,,,,,,,,,,,,,,,,,,,,,,,,,,,,,,,,,,,,,,,,,,,,,,,,,,,,,,,,,,,,,
,,601d7556fe4dfb0d99b3d825,65af52bacbfd19b26dc0c392,2024-01-23_07h46.58.626,bars,2023.2.3,Win32,144.9275362,657b66ea316d21385b68909f,,,,,,,,,,,553.2055,554.2029,554.203,554.7031,554.7032,554.953,554.9531,54,54,559.0435,space,4.084,,559.0436,562.2453,space,3.1853,,0,1,1,5,1,55,bars/single005.png,bars/mask008.png,,,,,,,,,,,,,,,,,,,,,,,,,,,,,,,,,,,,,,,,,,,,,,,,,,,,,,,,,,,,,,,,
,,601d7556fe4dfb0d99b3d825,65af52bacbfd19b26dc0c392,2024-01-23_07h46.58.626,bars,2023.2.3,Win32,144.9275362,657b66ea316d21385b68909f,,,,,,,,,,,562.2538,563.2519,563.2519,563.7521,563.7521,564.002,564.0021,147,147,568.3011,space,4.2933,,568.3012,570.6068,space,2.2916,,0,2,2,0,1,150,bars/single000.png,bars/mask006.png,,,,,,,,,,,,,,,,,,,,,,,,,,,,,,,,,,,,,,,,,,,,,,,,,,,,,,,,,,,,,,,,
,,601d7556fe4dfb0d99b3d825,65af52bacbfd19b26dc0c392,2024-01-23_07h46.58.626,bars,2023.2.3,Win32,144.9275362,657b66ea316d21385b68909f,,,,,,,,,,,570.6075,571.6067,571.6067,572.1068,572.1069,572.3568,572.3568,14,14,576.1421,space,3.7786,,576.1421,578.6562,space,2.501,,0,3,3,3,1,20,bars/single003.png,bars/mask005.png,,,,,,,,,,,,,,,,,,,,,,,,,,,,,,,,,,,,,,,,,,,,,,,,,,,,,,,,,,,,,,,,
,,601d7556fe4dfb0d99b3d825,65af52bacbfd19b26dc0c392,2024-01-23_07h46.58.626,bars,2023.2.3,Win32,144.9275362,657b66ea316d21385b68909f,,,,,,,,,,,578.6564,579.6557,579.6557,580.1558,580.1559,580.4058,580.4059,158,158,584.858,space,4.45,,584.8581,587.8508,space,2.9773,,0,4,4,8,1,160,bars/single008.png,bars/mask004.png,,,,,,,,,,,,,,,,,,,,,,,,,,,,,,,,,,,,,,,,,,,,,,,,,,,,,,,,,,,,,,,,
,,601d7556fe4dfb0d99b3d825,65af52bacbfd19b26dc0c392,2024-01-23_07h46.58.626,bars,2023.2.3,Win32,144.9275362,657b66ea316d21385b68909f,,,,,,,,,,,587.8596,588.8577,588.8577,589.3511,589.3511,589.6008,589.6008,179,179,591.122,space,1.515,,591.122,592.5874,space,1.4606,,0,5,5,1,1,20,bars/single001.png,bars/mask006.png,,,,,,,,,,,,,,,,,,,,,,,,,,,,,,,,,,,,,,,,,,,,,,,,,,,,,,,,,,,,,,,,
,,601d7556fe4dfb0d99b3d825,65af52bacbfd19b26dc0c392,2024-01-23_07h46.58.626,bars,2023.2.3,Win32,144.9275362,657b66ea316d21385b68909f,,,,,,,,,,,592.5877,593.5873,593.5873,594.0873,594.0873,594.3372,594.3372,49,49,598.7682,space,4.4241,,598.7683,600.1018,space,1.3167,,0,6,6,7,1,45,bars/single007.png,bars/mask009.png,,,,,,,,,,,,,,,,,,,,,,,,,,,,,,,,,,,,,,,,,,,,,,,,,,,,,,,,,,,,,,,,
,,601d7556fe4dfb0d99b3d825,65af52bacbfd19b26dc0c392,2024-01-23_07h46.58.626,bars,2023.2.3,Win32,144.9275362,657b66ea316d21385b68909f,,,,,,,,,,,600.1022,601.1015,601.1016,601.6014,601.6014,601.8515,601.8515,173,173,602.9702,space,1.1116,,602.9702,604.8587,space,1.8832,,0,7,7,6,1,175,bars/single006.png,bars/mask005.png,,,,,,,,,,,,,,,,,,,,,,,,,,,,,,,,,,,,,,,,,,,,,,,,,,,,,,,,,,,,,,,,
,,601d7556fe4dfb0d99b3d825,65af52bacbfd19b26dc0c392,2024-01-23_07h46.58.626,bars,2023.2.3,Win32,144.9275362,657b66ea316d21385b68909f,,,,,,,,,,,604.8592,605.8586,605.8586,606.3589,606.3589,606.6086,606.6086,154,-26,610.2065,space,3.5934,,610.2065,611.4147,space,1.1945,,0,8,8,2,1,145,bars/single002.png,bars/mask003.png,,,,,,,,,,,,,,,,,,,,,,,,,,,,,,,,,,,,,,,,,,,,,,,,,,,,,,,,,,,,,,,,
,,601d7556fe4dfb0d99b3d825,65af52bacbfd19b26dc0c392,2024-01-23_07h46.58.626,bars,2023.2.3,Win32,144.9275362,657b66ea316d21385b68909f,,,,,,,,,,,611.4151,612.4146,612.4146,612.9145,612.9146,613.1646,613.1646,37,37,614.3941,space,1.2272,,614.3941,617.0958,space,2.694,,0,9,9,9,1,20,bars/single009.png,bars/mask006.png,,,,,,,,,,,,,,,,,,,,,,,,,,,,,,,,,,,,,,,,,,,,,,,,,,,,,,,,,,,,,,,,
,,601d7556fe4dfb0d99b3d825,65af52bacbfd19b26dc0c392,2024-01-23_07h46.58.626,bars,2023.2.3,Win32,144.9275362,657b66ea316d21385b68909f,,,,,,,,,,,,,,,,,,,,,,,,,,,,,,,,,,,,,617.0966,661.466,space,44.361,,,,,,,,,,,,,,,,,,,,,,,,,,,,,,,,,,,,,,,,,,,,,,,,,,,,,,,,,,,,
,,601d7556fe4dfb0d99b3d825,65af52bacbfd19b26dc0c392,2024-01-23_07h46.58.626,bars,2023.2.3,Win32,144.9275362,657b66ea316d21385b68909f,,,,,,,,,,,,,,,,,,,,,,,,,,,,,,,,,,,,,,,,,,661.4766,663.9592,left,2.4631,,663.9593,9,1,664.9592,0,0,0,0,1,9,1,9,2,,,,,,,,,,,,,,,,,,,,,,,,,,,,,,,,,,,,,,,,,
,,601d7556fe4dfb0d99b3d825,65af52bacbfd19b26dc0c392,2024-01-23_07h46.58.626,bars,2023.2.3,Win32,144.9275362,657b66ea316d21385b68909f,,,,,,,,,,,,,,,,,,,,,,,,,,,,,,,,,,,,,,,,,,664.9597,668.744,right,3.7808,,668.7441,1,2,669.744,0,1,1,1,1,10,0,10,1,,,,,,,,,,,,,,,,,,,,,,,,,,,,,,,,,,,,,,,,,
,,601d7556fe4dfb0d99b3d825,65af52bacbfd19b26dc0c392,2024-01-23_07h46.58.626,bars,2023.2.3,Win32,144.9275362,657b66ea316d21385b68909f,,,,,,,,,,,,,,,,,,,,,,,,,,,,,,,,,,,,,,,,,,669.7445,670.4037,left,0.6527,,670.4038,10,1,671.4038,0,2,2,2,1,10,2,10,2,,,,,,,,,,,,,,,,,,,,,,,,,,,,,,,,,,,,,,,,,
,,601d7556fe4dfb0d99b3d825,65af52bacbfd19b26dc0c392,2024-01-23_07h46.58.626,bars,2023.2.3,Win32,144.9275362,657b66ea316d21385b68909f,,,,,,,,,,,,,,,,,,,,,,,,,,,,,,,,,,,,,,,,,,671.4044,675.8212,left,4.4135,,675.8212,7,1,676.8207,0,3,3,3,1,8,4,7,3,,,,,,,,,,,,,,,,,,,,,,,,,,,,,,,,,,,,,,,,,
,,601d7556fe4dfb0d99b3d825,65af52bacbfd19b26dc0c392,2024-01-23_07h46.58.626,bars,2023.2.3,Win32,144.9275362,657b66ea316d21385b68909f,,,,,,,,,,,,,,,,,,,,,,,,,,,,,,,,,,,,,,,,,,676.8291,678.8419,left,2.0107,,678.842,5,1,679.8419,0,4,4,4,1,6,2,5,1,,,,,,,,,,,,,,,,,,,,,,,,,,,,,,,,,,,,,,,,,
,,601d7556fe4dfb0d99b3d825,65af52bacbfd19b26dc0c392,2024-01-23_07h46.58.626,bars,2023.2.3,Win32,144.9275362,657b66ea316d21385b68909f,,,,,,,,,,,,,,,,,,,,,,,,,,,,,,,,,,,,,,,,,,679.8511,680.5157,right,0.6601,,680.5157,4,2,681.5154,0,5,5,5,1,4,4,4,4,,,,,,,,,,,,,,,,,,,,,,,,,,,,,,,,,,,,,,,,,
,,601d7556fe4dfb0d99b3d825,65af52bacbfd19b26dc0c392,2024-01-23_07h46.58.626,bars,2023.2.3,Win32,144.9275362,657b66ea316d21385b68909f,,,,,,,,,,,,,,,,,,,,,,,,,,,,,,,,,,,,,,,,,,681.5158,682.0712,right,0.55,,682.0713,2,2,683.0711,0,6,6,6,1,2,2,1,2,,,,,,,,,,,,,,,,,,,,,,,,,,,,,,,,,,,,,,,,,
,,601d7556fe4dfb0d99b3d825,65af52bacbfd19b26dc0c392,2024-01-23_07h46.58.626,bars,2023.2.3,Win32,144.9275362,657b66ea316d21385b68909f,,,,,,,,,,,,,,,,,,,,,,,,,,,,,,,,,,,,,,,,,,683.0715,684.2381,right,1.1621,,684.2382,1,2,685.2378,0,7,7,7,1,0,0,0,1,,,,,,,,,,,,,,,,,,,,,,,,,,,,,,,,,,,,,,,,,
,,601d7556fe4dfb0d99b3d825,65af52bacbfd19b26dc0c392,2024-01-23_07h46.58.626,bars,2023.2.3,Win32,144.9275362,657b66ea316d21385b68909f,,,,,,,,,,,,,,,,,,,,,,,,,,,,,,,,,,,,,,,,,,685.2382,685.6338,left,0.3934,,685.6339,1,1,686.6338,0,8,8,8,1,0,2,1,0,,,,,,,,,,,,,,,,,,,,,,,,,,,,,,,,,,,,,,,,,
,,601d7556fe4dfb0d99b3d825,65af52bacbfd19b26dc0c392,2024-01-23_07h46.58.626,bars,2023.2.3,Win32,144.9275362,657b66ea316d21385b68909f,,,,,,,,,,,,,,,,,,,,,,,,,,,,,,,,,,,,,,,,,,686.6343,687.002,right,0.3654,,687.0021,3,2,688.002,0,9,9,9,1,2,4,2,3,,,,,,,,,,,,,,,,,,,,,,,,,,,,,,,,,,,,,,,,,
,,601d7556fe4dfb0d99b3d825,65af52bacbfd19b26dc0c392,2024-01-23_07h46.58.626,bars,2023.2.3,Win32,144.9275362,657b66ea316d21385b68909f,,,,,,,,,,,,,,,,,,,,,,,,,,,,,,,,,,,,,,,,,,688.0023,688.3562,right,0.3474,,688.3562,3,2,689.3561,0,10,10,10,1,0,2,0,3,,,,,,,,,,,,,,,,,,,,,,,,,,,,,,,,,,,,,,,,,
,,601d7556fe4dfb0d99b3d825,65af52bacbfd19b26dc0c392,2024-01-23_07h46.58.626,bars,2023.2.3,Win32,144.9275362,657b66ea316d21385b68909f,,,,,,,,,,,,,,,,,,,,,,,,,,,,,,,,,,,,,,,,,,689.3567,690.0507,right,0.6912,,690.0507,3,2,691.0506,0,11,11,11,1,0,4,0,3,,,,,,,,,,,,,,,,,,,,,,,,,,,,,,,,,,,,,,,,,
,,601d7556fe4dfb0d99b3d825,65af52bacbfd19b26dc0c392,2024-01-23_07h46.58.626,bars,2023.2.3,Win32,144.9275362,657b66ea316d21385b68909f,,,,,,,,,,,,,,,,,,,,,,,,,,,,,,,,,,,,,,,,,,691.0511,698.1344,right,7.081,,698.1345,6,2,699.1346,0,12,12,12,1,2,6,1,6,,,,,,,,,,,,,,,,,,,,,,,,,,,,,,,,,,,,,,,,,
,,601d7556fe4dfb0d99b3d825,65af52bacbfd19b26dc0c392,2024-01-23_07h46.58.626,bars,2023.2.3,Win32,144.9275362,657b66ea316d21385b68909f,,,,,,,,,,,,,,,,,,,,,,,,,,,,,,,,,,,,,,,,,,699.1435,699.9055,right,0.7558,,699.9055,3,2,700.9054,0,13,13,13,1,0,4,1,3,,,,,,,,,,,,,,,,,,,,,,,,,,,,,,,,,,,,,,,,,
,,601d7556fe4dfb0d99b3d825,65af52bacbfd19b26dc0c392,2024-01-23_07h46.58.626,bars,2023.2.3,Win32,144.9275362,657b66ea316d21385b68909f,,,,,,,,,,,,,,,,,,,,,,,,,,,,,,,,,,,,,,,,,,700.9062,701.8222,left,0.9136,,701.8222,2,1,702.8223,0,14,14,14,1,2,6,2,7,,,,,,,,,,,,,,,,,,,,,,,,,,,,,,,,,,,,,,,,,
,,601d7556fe4dfb0d99b3d825,65af52bacbfd19b26dc0c392,2024-01-23_07h46.58.626,bars,2023.2.3,Win32,144.9275362,657b66ea316d21385b68909f,,,,,,,,,,,,,,,,,,,,,,,,,,,,,,,,,,,,,,,,,,702.8228,703.2322,left,0.4035,,703.2323,3,1,704.2319,0,15,15,15,1,4,8,3,9,,,,,,,,,,,,,,,,,,,,,,,,,,,,,,,,,,,,,,,,,
,,601d7556fe4dfb0d99b3d825,65af52bacbfd19b26dc0c392,2024-01-23_07h46.58.626,bars,2023.2.3,Win32,144.9275362,657b66ea316d21385b68909f,,,,,,,,,,,,,,,,,,,,,,,,,,,,,,,,,,,,,,,,,,704.2324,704.5517,left,0.3129,,704.5517,7,1,705.5514,0,16,16,16,1,6,6,7,7,,,,,,,,,,,,,,,,,,,,,,,,,,,,,,,,,,,,,,,,,
,,601d7556fe4dfb0d99b3d825,65af52bacbfd19b26dc0c392,2024-01-23_07h46.58.626,bars,2023.2.3,Win32,144.9275362,657b66ea316d21385b68909f,,,,,,,,,,,,,,,,,,,,,,,,,,,,,,,,,,,,,,,,,,705.5519,706.0516,left,0.4937,,706.0517,9,1,707.0516,0,17,17,17,1,8,4,9,5,,,,,,,,,,,,,,,,,,,,,,,,,,,,,,,,,,,,,,,,,
,,601d7556fe4dfb0d99b3d825,65af52bacbfd19b26dc0c392,2024-01-23_07h46.58.626,bars,2023.2.3,Win32,144.9275362,657b66ea316d21385b68909f,,,,,,,,,,,,,,,,,,,,,,,,,,,,,,,,,,,,,,,,,,707.052,707.4475,left,0.3894,,707.4475,5,1,708.4475,0,18,18,18,1,6,2,5,1,,,,,,,,,,,,,,,,,,,,,,,,,,,,,,,,,,,,,,,,,
,,601d7556fe4dfb0d99b3d825,65af52bacbfd19b26dc0c392,2024-01-23_07h46.58.626,bars,2023.2.3,Win32,144.9275362,657b66ea316d21385b68909f,,,,,,,,,,,,,,,,,,,,,,,,,,,,,,,,,,,,,,,,,,708.448,709.9129,left,1.4618,,709.913,7,1,710.9127,0,19,19,19,1,8,0,7,0,,,,,,,,,,,,,,,,,,,,,,,,,,,,,,,,,,,,,,,,,
,,601d7556fe4dfb0d99b3d825,65af52bacbfd19b26dc0c392,2024-01-23_07h46.58.626,bars,2023.2.3,Win32,144.9275362,657b66ea316d21385b68909f,,,,,,,,,,,,,,,,,,,,,,,,,,,,,,,,,,,,,,,,,,,,,,,,,,,,,,,,,,,,710.9135,732.5191,space,21.5969,,,,,,,,,,,,,,,,,,,,,,,,,,,,,,,,,,,,,
,,601d7556fe4dfb0d99b3d825,65af52bacbfd19b26dc0c392,2024-01-23_07h46.58.626,bars,2023.2.3,Win32,144.9275362,657b66ea316d21385b68909f,,,,,,,,,,,733.5919,734.588,,,735.0881,735.3378,,108,108,,,,,,,,,,,,,,,,bars/012.png,bars/mask004.png,,,,,,,,,,,,4,1,,,,,,,8,2,9,1,,,,,,732.5296,733.588,space,1.0516,,734.5882,735.088,735.3381,739.3248,space,3.9758,,739.325,18,87,740.3247,740.3249,747.3534,space,7.0139,,0,0,0,0,1,90,15,,,,,,,,
,,601d7556fe4dfb0d99b3d825,65af52bacbfd19b26dc0c392,2024-01-23_07h46.58.626,bars,2023.2.3,Win32,144.9275362,657b66ea316d21385b68909f,,,,,,,,,,,747.3619,748.3598,,,748.8596,749.1095,,107,107,,,,,,,,,,,,,,,,bars/026.png,bars/mask000.png,,,,,,,,,,,,1,2,,,,,,,6,4,6,4,,,,,,,,,,,748.36,748.8595,749.1095,751.61,space,2.4963,,751.6101,72,22,752.61,752.6101,783.1324,space,30.5047,,0,1,1,1,1,35,85,,,,,,,,
,,601d7556fe4dfb0d99b3d825,65af52bacbfd19b26dc0c392,2024-01-23_07h46.58.626,bars,2023.2.3,Win32,144.9275362,657b66ea316d21385b68909f,,,,,,,,,,,783.1412,784.1392,,,784.6392,784.8892,,152,152,,,,,,,,,,,,,,,,bars/034.png,bars/mask003.png,,,,,,,,,,,,1,1,,,,,,,8,2,8,2,,,,,,,,,,,784.1392,784.6392,784.8892,788.1189,space,3.2241,,788.1189,27,87,789.1185,789.1186,823.8706,space,34.7324,,0,2,2,2,1,125,65,,,,,,,,
,,601d7556fe4dfb0d99b3d825,65af52bacbfd19b26dc0c392,2024-01-23_07h46.58.626,bars,2023.2.3,Win32,144.9275362,657b66ea316d21385b68909f,,,,,,,,,,,823.8794,824.8774,,,825.3775,825.6277,,58,58,,,,,,,,,,,,,,,,bars/028.png,bars/mask004.png,,,,,,,,,,,,3,1,,,,,,,6,4,5,5,,,,,,,,,,,824.8775,825.3774,825.6277,829.2945,space,3.6605,,829.2946,13,62,830.2945,830.2946,835.5798,space,5.2685,,0,3,3,3,1,45,120,,,,,,,,
,,601d7556fe4dfb0d99b3d825,65af52bacbfd19b26dc0c392,2024-01-23_07h46.58.626,bars,2023.2.3,Win32,144.9275362,657b66ea316d21385b68909f,,,,,,,,,,,835.5883,836.5866,,,837.0865,837.3365,,1,1,,,,,,,,,,,,,,,,bars/023.png,bars/mask004.png,,,,,,,,,,,,2,1,,,,,,,4,2,5,1,,,,,,,,,,,836.5866,837.0865,837.3366,840.1077,space,2.7649,,840.1078,19,66,841.1075,841.1076,848.7819,space,7.6577,,0,4,4,4,1,20,115,,,,,,,,
,,601d7556fe4dfb0d99b3d825,65af52bacbfd19b26dc0c392,2024-01-23_07h46.58.626,bars,2023.2.3,Win32,144.9275362,657b66ea316d21385b68909f,,,,,,,,,,,848.7906,849.7889,,,850.2888,850.5386,,147,-33,,,,,,,,,,,,,,,,bars/017.png,bars/mask000.png,,,,,,,,,,,,3,1,,,,,,,2,0,3,2,,,,,,,,,,,849.7891,850.2888,850.5386,853.5528,space,3.0109,,853.5528,2,78,854.5527,854.5528,861.8868,space,7.32,,0,5,5,5,1,145,45,,,,,,,,
,,601d7556fe4dfb0d99b3d825,65af52bacbfd19b26dc0c392,2024-01-23_07h46.58.626,bars,2023.2.3,Win32,144.9275362,657b66ea316d21385b68909f,,,,,,,,,,,861.8954,862.8934,,,863.3935,863.6436,,123,-57,,,,,,,,,,,,,,,,bars/049.png,bars/mask009.png,,,,,,,,,,,,2,2,,,,,,,0,2,1,3,,,,,,,,,,,862.8935,863.3934,863.6437,868.3314,space,4.6816,,868.3314,37,8,869.3314,869.3314,872.6379,space,3.2913,,0,6,6,6,1,160,115,,,,,,,,
,,601d7556fe4dfb0d99b3d825,65af52bacbfd19b26dc0c392,2024-01-23_07h46.58.626,bars,2023.2.3,Win32,144.9275362,657b66ea316d21385b68909f,,,,,,,,,,,872.6462,873.644,,,874.1442,874.3941,,131,131,,,,,,,,,,,,,,,,bars/023.png,bars/mask007.png,,,,,,,,,,,,0,2,,,,,,,2,0,2,0,,,,,,,,,,,873.644,874.1442,874.3941,878.5889,space,4.1899,,878.589,69,16,879.5891,879.5891,882.5822,space,2.976,,0,7,7,7,1,20,115,,,,,,,,
,,601d7556fe4dfb0d99b3d825,65af52bacbfd19b26dc0c392,2024-01-23_07h46.58.626,bars,2023.2.3,Win32,144.9275362,657b66ea316d21385b68909f,,,,,,,,,,,882.5909,883.5891,,,884.0893,884.3393,,99,99,,,,,,,,,,,,,,,,bars/037.png,bars/mask007.png,,,,,,,,,,,,2,2,,,,,,,0,2,0,2,,,,,,,,,,,883.5891,884.0893,884.3393,886.9575,space,2.6145,,886.9576,51,6,887.9574,887.9574,889.6521,space,1.6796,,0,8,8,8,1,150,105,,,,,,,,
,,601d7556fe4dfb0d99b3d825,65af52bacbfd19b26dc0c392,2024-01-23_07h46.58.626,bars,2023.2.3,Win32,144.9275362,657b66ea316d21385b68909f,,,,,,,,,,,889.6525,890.652,,,891.1521,891.402,,32,32,,,,,,,,,,,,,,,,bars/007.png,bars/mask002.png,,,,,,,,,,,,1,2,,,,,,,0,4,0,4,,,,,,,,,,,890.6521,891.152,891.402,893.4438,space,2.0372,,893.4439,37,23,894.444,894.4442,896.4029,space,1.9435,,0,9,9,9,1,175,55,,,,,,,,
,,601d7556fe4dfb0d99b3d825,65af52bacbfd19b26dc0c392,2024-01-23_07h46.58.626,bars,2023.2.3,Win32,144.9275362,657b66ea316d21385b68909f,,,,,,,,,,,896.4045,897.4024,,,897.9025,898.1525,,147,-33,,,,,,,,,,,,,,,,bars/040.png,bars/mask005.png,,,,,,,,,,,,2,1,,,,,,,0,6,3,5,,,,,,,,,,,897.4024,897.9025,898.1525,900.7568,space,2.5973,,900.7568,7,38,901.7566,901.7567,904.3543,space,2.5823,,0,10,10,10,1,140,5,,,,,,,,
,,601d7556fe4dfb0d99b3d825,65af52bacbfd19b26dc0c392,2024-01-23_07h46.58.626,bars,2023.2.3,Win32,144.9275362,657b66ea316d21385b68909f,,,,,,,,,,,904.3629,905.361,,,905.8612,906.111,,39,39,,,,,,,,,,,,,,,,bars/010.png,bars/mask004.png,,,,,,,,,,,,2,2,,,,,,,2,4,3,5,,,,,,,,,,,905.3611,905.8612,906.1111,908.0489,space,1.9314,,908.0489,54,16,909.0487,909.0488,910.7585,space,1.6961,,0,11,11,11,1,165,55,,,,,,,,
,,601d7556fe4dfb0d99b3d825,65af52bacbfd19b26dc0c392,2024-01-23_07h46.58.626,bars,2023.2.3,Win32,144.9275362,657b66ea316d21385b68909f,,,,,,,,,,,910.7587,911.7573,,,912.2577,912.5074,,49,229,,,,,,,,,,,,,,,,bars/010.png,bars/mask004.png,,,,,,,,,,,,4,2,,,,,,,0,6,0,5,,,,,,,,,,,911.7573,912.2577,912.5074,915.272,space,2.7627,,915.272,64,6,916.2715,916.2715,919.5781,space,3.2956,,0,12,12,12,1,165,55,,,,,,,,
,,601d7556fe4dfb0d99b3d825,65af52bacbfd19b26dc0c392,2024-01-23_07h46.58.626,bars,2023.2.3,Win32,144.9275362,657b66ea316d21385b68909f,,,,,,,,,,,919.5784,920.5774,,,921.0773,921.3273,,123,123,,,,,,,,,,,,,,,,bars/006.png,bars/mask006.png,,,,,,,,,,,,1,2,,,,,,,2,4,2,4,,,,,,,,,,,920.5774,921.0773,921.3273,923.689,space,2.3558,,923.689,88,23,924.6887,924.6888,926.3904,space,1.6853,,0,13,13,13,1,35,100,,,,,,,,
,,601d7556fe4dfb0d99b3d825,65af52bacbfd19b26dc0c392,2024-01-23_07h46.58.626,bars,2023.2.3,Win32,144.9275362,657b66ea316d21385b68909f,,,,,,,,,,,926.3908,927.3904,,,927.8908,928.1404,,29,209,,,,,,,,,,,,,,,,bars/036.png,bars/mask003.png,,,,,,,,,,,,4,2,,,,,,,0,6,0,6,,,,,,,,,,,927.3905,927.8908,928.1404,932.4672,space,4.3234,,932.4673,64,9,933.467,933.467,936.9741,space,3.4944,,0,14,14,14,1,145,20,,,,,,,,
,,601d7556fe4dfb0d99b3d825,65af52bacbfd19b26dc0c392,2024-01-23_07h46.58.626,bars,2023.2.3,Win32,144.9275362,657b66ea316d21385b68909f,,,,,,,,,,,936.9832,937.9811,,,938.4812,938.7244,,146,146,,,,,,,,,,,,,,,,bars/044.png,bars/mask006.png,,,,,,,,,,,,6,2,,,,,,,2,8,1,8,,,,,,,,,,,937.9812,938.4812,938.7245,939.9262,space,1.1969,,939.9262,71,9,940.9259,940.9259,944.7387,space,3.8058,,0,15,15,15,1,75,155,,,,,,,,
,,601d7556fe4dfb0d99b3d825,65af52bacbfd19b26dc0c392,2024-01-23_07h46.58.626,bars,2023.2.3,Win32,144.9275362,657b66ea316d21385b68909f,,,,,,,,,,,944.7473,945.7455,,,946.2456,946.4953,,94,94,,,,,,,,,,,,,,,,bars/041.png,bars/mask004.png,,,,,,,,,,,,6,2,,,,,,,0,10,0,9,,,,,,,,,,,945.7455,946.2456,946.4954,949.4472,space,2.9483,,949.4472,74,9,950.4472,950.4472,951.8988,space,1.4355,,0,16,16,16,1,20,85,,,,,,,,
,,601d7556fe4dfb0d99b3d825,65af52bacbfd19b26dc0c392,2024-01-23_07h46.58.626,bars,2023.2.3,Win32,144.9275362,657b66ea316d21385b68909f,,,,,,,,,,,951.8993,952.8991,,,953.3989,953.6486,,9,9,,,,,,,,,,,,,,,,bars/040.png,bars/mask000.png,,,,,,,,,,,,9,2,,,,,,,0,10,0,10,,,,,,,,,,,952.8993,953.3989,953.6486,956.3295,space,2.6774,,956.3295,49,4,957.3294,957.3295,958.7396,space,1.3943,,0,17,17,17,1,140,5,,,,,,,,
,,601d7556fe4dfb0d99b3d825,65af52bacbfd19b26dc0c392,2024-01-23_07h46.58.626,bars,2023.2.3,Win32,144.9275362,657b66ea316d21385b68909f,,,,,,,,,,,958.7399,959.7392,,,960.2394,960.4893,,103,103,,,,,,,,,,,,,,,,bars/018.png,bars/mask000.png,,,,,,,,,,,,5,2,,,,,,,0,10,0,9,,,,,,,,,,,959.7392,960.2394,960.4893,961.1977,space,0.702,,961.1979,47,13,962.1978,962.1979,963.4619,space,1.2572,,0,18,18,18,1,150,90,,,,,,,,
,,601d7556fe4dfb0d99b3d825,65af52bacbfd19b26dc0c392,2024-01-23_07h46.58.626,bars,2023.2.3,Win32,144.9275362,657b66ea316d21385b68909f,,,,,,,,,,,963.4622,964.4616,,,964.9621,965.2119,,159,-21,,,,,,,,,,,,,,,,bars/020.png,bars/mask005.png,,,,,,,,,,,,5,2,,,,,,,2,8,2,8,,,,,,,,,,,964.4616,964.962,965.212,967.2885,space,2.0739,,967.2886,44,11,968.2884,968.2884,969.6425,space,1.3389,,0,19,19,19,1,115,170,,,,,,,,
,,601d7556fe4dfb0d99b3d825,65af52bacbfd19b26dc0c392,2024-01-23_07h46.58.626,bars,2023.2.3,Win32,144.9275362,657b66ea316d21385b68909f,,,,,,,,,,,969.643,970.6425,,,971.1427,971.3925,,116,116,,,,,,,,,,,,,,,,bars/019.png,bars/mask006.png,,,,,,,,,,,,4,2,,,,,,,0,6,1,6,,,,,,,,,,,970.6426,971.1427,971.3926,974.9349,space,3.537,,974.935,71,11,975.9347,975.9347,977.9976,space,2.048,,0,20,20,20,1,45,105,,,,,,,,
,,601d7556fe4dfb0d99b3d825,65af52bacbfd19b26dc0c392,2024-01-23_07h46.58.626,bars,2023.2.3,Win32,144.9275362,657b66ea316d21385b68909f,,,,,,,,,,,978.0061,979.004,,,979.5044,979.7544,,134,134,,,,,,,,,,,,,,,,bars/044.png,bars/mask000.png,,,,,,,,,,,,2,2,,,,,,,2,8,2,5,,,,,,,,,,,979.004,979.5042,979.7544,985.9008,space,6.1381,,985.9009,59,21,986.9007,986.9007,988.8869,space,1.9684,,0,21,21,21,1,75,155,,,,,,,,
,,601d7556fe4dfb0d99b3d825,65af52bacbfd19b26dc0c392,2024-01-23_07h46.58.626,bars,2023.2.3,Win32,144.9275362,657b66ea316d21385b68909f,,,,,,,,,,,988.8872,989.8868,,,990.3868,990.6369,,146,-34,,,,,,,,,,,,,,,,bars/048.png,bars/mask008.png,,,,,,,,,,,,0,2,,,,,,,4,6,4,7,,,,,,,,,,,989.8868,990.3866,990.6369,994.2901,space,3.649,,994.2901,84,29,995.2899,995.29,997.0888,space,1.7837,,0,22,22,22,1,50,175,,,,,,,,
,,601d7556fe4dfb0d99b3d825,65af52bacbfd19b26dc0c392,2024-01-23_07h46.58.626,bars,2023.2.3,Win32,144.9275362,657b66ea316d21385b68909f,,,,,,,,,,,997.089,998.0886,,,998.5888,998.8386,,136,-44,,,,,,,,,,,,,,,,bars/042.png,bars/mask000.png,,,,,,,,,,,,2,1,,,,,,,2,4,3,4,,,,,,,,,,,998.0886,998.5888,998.8386,1002.0685,space,3.2275,,1002.0685,9,61,1003.0679,1003.068,1004.7836,space,1.6985,,0,23,23,23,1,145,75,,,,,,,,
,,601d7556fe4dfb0d99b3d825,65af52bacbfd19b26dc0c392,2024-01-23_07h46.58.626,bars,2023.2.3,Win32,144.9275362,657b66ea316d21385b68909f,,,,,,,,,,,1004.784,1005.7833,,,1006.2834,1006.5334,,112,112,,,,,,,,,,,,,,,,bars/020.png,bars/mask002.png,,,,,,,,,,,,1,1,,,,,,,0,2,1,3,,,,,,,,,,,1005.7834,1006.2833,1006.5334,1009.2559,space,2.7204,,1009.256,3,58,1010.256,1010.2561,1012.0895,space,1.8162,,0,24,24,24,1,115,170,,,,,,,,
,,601d7556fe4dfb0d99b3d825,65af52bacbfd19b26dc0c392,2024-01-23_07h46.58.626,bars,2023.2.3,Win32,144.9275362,657b66ea316d21385b68909f,,,,,,,,,,,1012.09,1013.0892,,,1013.5894,1013.8393,,119,-61,,,,,,,,,,,,,,,,bars/032.png,bars/mask008.png,,,,,,,,,,,,2,1,,,,,,,0,0,2,0,,,,,,,,,,,1013.0892,1013.5894,1013.8393,1017.3676,space,3.5242,,1017.3676,6,81,1018.3674,1018.3674,1020.0759,space,1.6959,,0,25,25,25,1,125,20,,,,,,,,
,,601d7556fe4dfb0d99b3d825,65af52bacbfd19b26dc0c392,2024-01-23_07h46.58.626,bars,2023.2.3,Win32,144.9275362,657b66ea316d21385b68909f,,,,,,,,,,,1020.0763,1021.0758,,,1021.5759,1021.8259,,79,79,,,,,,,,,,,,,,,,bars/022.png,bars/mask001.png,,,,,,,,,,,,0,1,,,,,,,2,0,1,0,,,,,,,,,,,1021.0758,1021.5758,1021.8259,1023.1315,space,1.2998,,1023.1316,16,59,1024.1315,1024.1315,1025.2847,space,1.1362,,0,26,26,26,1,95,20,,,,,,,,
,,601d7556fe4dfb0d99b3d825,65af52bacbfd19b26dc0c392,2024-01-23_07h46.58.626,bars,2023.2.3,Win32,144.9275362,657b66ea316d21385b68909f,,,,,,,,,,,1025.285,1026.2844,,,1026.7845,1027.0344,,19,199,,,,,,,,,,,,,,,,bars/000.png,bars/mask000.png,,,,,,,,,,,,0,1,,,,,,,0,2,0,2,,,,,,,,,,,1026.2844,1026.7845,1027.0345,1030.1119,space,3.0723,,1030.1119,21,54,1031.1112,1031.1113,1032.542,space,1.4164,,0,27,27,27,1,40,145,,,,,,,,
,,601d7556fe4dfb0d99b3d825,65af52bacbfd19b26dc0c392,2024-01-23_07h46.58.626,bars,2023.2.3,Win32,144.9275362,657b66ea316d21385b68909f,,,,,,,,,,,1032.5424,1033.5418,,,1034.042,1034.2918,,145,-35,,,,,,,,,,,,,,,,bars/049.png,bars/mask003.png,,,,,,,,,,,,0,1,,,,,,,0,0,0,1,,,,,,,,,,,1033.5418,1034.0419,1034.2918,1037.9934,space,3.6976,,1037.9935,15,30,1038.9936,1038.9936,1040.5076,space,1.497,,0,28,28,28,1,160,115,,,,,,,,
,,601d7556fe4dfb0d99b3d825,65af52bacbfd19b26dc0c392,2024-01-23_07h46.58.626,bars,2023.2.3,Win32,144.9275362,657b66ea316d21385b68909f,,,,,,,,,,,1040.5081,1041.5077,,,1042.0076,1042.2576,,165,165,,,,,,,,,,,,,,,,bars/038.png,bars/mask009.png,,,,,,,,,,,,2,1,,,,,,,2,0,2,0,,,,,,,,,,,1041.5077,1042.0075,1042.2576,1046.133,space,3.8692,,1046.133,0,85,1047.1327,1047.1328,1049.029,space,1.8808,,0,29,29,29,1,165,70,,,,,,,,
,,601d7556fe4dfb0d99b3d825,65af52bacbfd19b26dc0c392,2024-01-23_07h46.58.626,bars,2023.2.3,Win32,144.9275362,657b66ea316d21385b68909f,,,,,,,,,,,1049.0292,1050.0287,,,1050.5288,1050.7789,,86,86,,,,,,,,,,,,,,,,bars/022.png,bars/mask000.png,,,,,,,,,,,,0,1,,,,,,,0,2,0,2,,,,,,,,,,,1050.0288,1050.5288,1050.7789,1053.168,space,2.3863,,1053.1682,9,66,1054.1681,1054.1682,1055.1543,space,0.969,,0,30,30,30,1,95,20,,,,,,,,
,,601d7556fe4dfb0d99b3d825,65af52bacbfd19b26dc0c392,2024-01-23_07h46.58.626,bars,2023.2.3,Win32,144.9275362,657b66ea316d21385b68909f,,,,,,,,,,,1055.1547,1056.1541,,,1056.6543,1056.9042,,151,151,,,,,,,,,,,,,,,,bars/000.png,bars/mask005.png,,,,,,,,,,,,0,2,,,,,,,2,0,1,0,,,,,,,,,,,1056.1542,1056.6543,1056.9042,1059.2517,space,2.3411,,1059.2517,69,6,1060.2516,1060.2516,1061.238,space,0.9692,,0,31,31,31,1,40,145,,,,,,,,
,,601d7556fe4dfb0d99b3d825,65af52bacbfd19b26dc0c392,2024-01-23_07h46.58.626,bars,2023.2.3,Win32,144.9275362,657b66ea316d21385b68909f,,,,,,,,,,,1061.2383,1062.2378,,,1062.7381,1062.9879,,168,168,,,,,,,,,,,,,,,,bars/007.png,bars/mask000.png,,,,,,,,,,,,4,1,,,,,,,4,2,5,2,,,,,,,,,,,1062.2379,1062.7381,1062.9879,1065.4743,space,2.4814,,1065.4744,7,67,1066.4745,1066.4745,1067.3494,space,0.8562,,0,32,32,32,1,175,55,,,,,,,,
,,601d7556fe4dfb0d99b3d825,65af52bacbfd19b26dc0c392,2024-01-23_07h46.58.626,bars,2023.2.3,Win32,144.9275362,657b66ea316d21385b68909f,,,,,,,,,,,1067.3499,1068.3492,,,1068.8495,1069.0993,,24,204,,,,,,,,,,,,,,,,bars/023.png,bars/mask001.png,,,,,,,,,,,,3,1,,,,,,,2,0,3,1,,,,,,,,,,,1068.3493,1068.8495,1069.0994,1072.9122,space,3.8054,,1072.9122,4,89,1073.9121,1073.9121,1077.1416,space,3.2129,,0,33,33,33,1,20,115,,,,,,,,
,,601d7556fe4dfb0d99b3d825,65af52bacbfd19b26dc0c392,2024-01-23_07h46.58.626,bars,2023.2.3,Win32,144.9275362,657b66ea316d21385b68909f,,,,,,,,,,,1077.1501,1078.1483,,,1078.6486,1078.8986,,68,68,,,,,,,,,,,,,,,,bars/042.png,bars/mask002.png,,,,,,,,,,,,0,2,,,,,,,0,0,0,0,,,,,,,,,,,1078.1484,1078.6485,1078.8986,1079.6902,space,0.7882,,1079.6904,77,7,1080.6902,1080.6903,1081.6282,space,0.927,,0,34,34,34,1,145,75,,,,,,,,
,,601d7556fe4dfb0d99b3d825,65af52bacbfd19b26dc0c392,2024-01-23_07h46.58.626,bars,2023.2.3,Win32,144.9275362,657b66ea316d21385b68909f,,,,,,,,,,,1081.6285,1082.6278,,,1083.1278,1083.3779,,27,27,,,,,,,,,,,,,,,,bars/031.png,bars/mask002.png,,,,,,,,,,,,1,2,,,,,,,0,2,1,1,,,,,,,,,,,1082.6279,1083.1278,1083.3779,1085.2878,space,1.9059,,1085.2878,87,8,1086.2877,1086.2877,1087.2811,space,0.9775,,0,35,35,35,1,120,35,,,,,,,,
,,601d7556fe4dfb0d99b3d825,65af52bacbfd19b26dc0c392,2024-01-23_07h46.58.626,bars,2023.2.3,Win32,144.9275362,657b66ea316d21385b68909f,,,,,,,,,,,1087.2816,1088.2809,,,1088.7812,1089.0309,,121,-59,,,,,,,,,,,,,,,,bars/039.png,bars/mask006.png,,,,,,,,,,,,0,2,,,,,,,0,0,0,0,,,,,,,,,,,1088.2809,1088.7812,1089.031,1091.7258,space,2.6886,,1091.7259,54,16,1092.7257,1092.7257,1094.2605,space,1.5195,,0,36,36,36,1,175,105,,,,,,,,
,,601d7556fe4dfb0d99b3d825,65af52bacbfd19b26dc0c392,2024-01-23_07h46.58.626,bars,2023.2.3,Win32,144.9275362,657b66ea316d21385b68909f,,,,,,,,,,,1094.261,1095.2604,,,1095.7609,1096.0105,,93,93,,,,,,,,,,,,,,,,bars/009.png,bars/mask006.png,,,,,,,,,,,,0,2,,,,,,,0,0,0,0,,,,,,,,,,,1095.2605,1095.7609,1096.0105,1096.8511,space,0.8349,,1096.8512,78,12,1097.8508,1097.8509,1098.8788,space,1.0234,,0,37,37,37,1,15,105,,,,,,,,
,,601d7556fe4dfb0d99b3d825,65af52bacbfd19b26dc0c392,2024-01-23_07h46.58.626,bars,2023.2.3,Win32,144.9275362,657b66ea316d21385b68909f,,,,,,,,,,,1098.8795,1099.8788,,,1100.3789,1100.629,,32,212,,,,,,,,,,,,,,,,bars/025.png,bars/mask001.png,,,,,,,,,,,,1,2,,,,,,,0,0,0,1,,,,,,,,,,,1099.8789,1100.3789,1100.629,1103.7404,space,3.1045,,1103.7405,73,8,1104.7404,1104.7404,1105.6989,space,0.9418,,0,38,38,38,1,105,40,,,,,,,,
,,601d7556fe4dfb0d99b3d825,65af52bacbfd19b26dc0c392,2024-01-23_07h46.58.626,bars,2023.2.3,Win32,144.9275362,657b66ea316d21385b68909f,,,,,,,,,,,1105.6993,1106.6987,,,1107.1987,1107.4487,,79,79,,,,,,,,,,,,,,,,bars/046.png,bars/mask002.png,,,,,,,,,,,,0,2,,,,,,,2,0,3,0,,,,,,,,,,,1106.6987,1107.1986,1107.4487,1110.192,space,2.7409,,1110.192,76,6,1111.1921,1111.1922,1112.456,space,1.2467,,0,39,39,39,1,155,85,,,,,,,,
,,601d7556fe4dfb0d99b3d825,65af52bacbfd19b26dc0c392,2024-01-23_07h46.58.626,bars,2023.2.3,Win32,144.9275362,657b66ea316d21385b68909f,,,,,,,,,,,1112.4564,1113.4559,,,1113.956,1114.206,,111,111,,,,,,,,,,,,,,,,bars/037.png,bars/mask001.png,,,,,,,,,,,,1,2,,,,,,,4,0,4,1,,,,,,,,,,,1113.456,1113.9559,1114.206,1118.6229,space,4.4138,,1118.623,39,6,1119.623,1119.623,1121.1928,space,1.5542,,0,40,40,40,1,150,105,,,,,,,,
,,601d7556fe4dfb0d99b3d825,65af52bacbfd19b26dc0c392,2024-01-23_07h46.58.626,bars,2023.2.3,Win32,144.9275362,657b66ea316d21385b68909f,,,,,,,,,,,1121.1932,1122.1926,,,1122.6927,1122.9426,,171,171,,,,,,,,,,,,,,,,bars/033.png,bars/mask005.png,,,,,,,,,,,,0,2,,,,,,,6,0,4,0,,,,,,,,,,,1122.1927,1122.6926,1122.9427,1125.2691,space,2.3228,,1125.2692,34,16,1126.2692,1126.2692,1126.9916,space,0.7085,,0,41,41,41,1,25,155,,,,,,,,
,,601d7556fe4dfb0d99b3d825,65af52bacbfd19b26dc0c392,2024-01-23_07h46.58.626,bars,2023.2.3,Win32,144.9275362,657b66ea316d21385b68909f,,,,,,,,,,,1126.992,1127.9915,,,1128.4916,1128.7414,,102,102,,,,,,,,,,,,,,,,bars/023.png,bars/mask004.png,,,,,,,,,,,,1,2,,,,,,,4,2,5,2,,,,,,,,,,,1127.9915,1128.4915,1128.7415,1130.7694,space,2.022,,1130.7694,82,13,1131.7694,1131.7695,1132.6516,space,0.8734,,0,42,42,42,1,20,115,,,,,,,,
,,601d7556fe4dfb0d99b3d825,65af52bacbfd19b26dc0c392,2024-01-23_07h46.58.626,bars,2023.2.3,Win32,144.9275362,657b66ea316d21385b68909f,,,,,,,,,,,1132.652,1133.6514,,,1134.1515,1134.4016,,30,30,,,,,,,,,,,,,,,,bars/036.png,bars/mask002.png,,,,,,,,,,,,1,2,,,,,,,6,0,7,1,,,,,,,,,,,1133.6515,1134.1515,1134.4016,1137.235,space,2.8264,,1137.2351,65,10,1138.2353,1138.2354,1139.7085,space,1.4599,,0,43,43,43,1,145,20,,,,,,,,
,,601d7556fe4dfb0d99b3d825,65af52bacbfd19b26dc0c392,2024-01-23_07h46.58.626,bars,2023.2.3,Win32,144.9275362,657b66ea316d21385b68909f,,,,,,,,,,,1139.7088,1140.7075,,,1141.2076,1141.4576,,151,151,,,,,,,,,,,,,,,,bars/000.png,bars/mask006.png,,,,,,,,,,,,2,2,,,,,,,4,2,6,2,,,,,,,,,,,1140.7076,1141.2076,1141.4577,1143.7566,space,2.2926,,1143.7566,69,6,1144.7564,1144.7564,1146.0831,space,1.3104,,0,44,44,44,1,40,145,,,,,,,,
,,601d7556fe4dfb0d99b3d825,65af52bacbfd19b26dc0c392,2024-01-23_07h46.58.626,bars,2023.2.3,Win32,144.9275362,657b66ea316d21385b68909f,,,,,,,,,,,1146.0836,1147.0831,,,1147.5833,1147.8335,,0,0,,,,,,,,,,,,,,,,bars/020.png,bars/mask002.png,,,,,,,,,,,,3,2,,,,,,,2,4,3,4,,,,,,,,,,,1147.0833,1147.5833,1147.8335,1149.4029,space,1.5665,,1149.4029,65,10,1150.403,1150.4031,1151.5766,space,1.1576,,0,45,45,45,1,115,170,,,,,,,,
,,601d7556fe4dfb0d99b3d825,65af52bacbfd19b26dc0c392,2024-01-23_07h46.58.626,bars,2023.2.3,Win32,144.9275362,657b66ea316d21385b68909f,,,,,,,,,,,1151.577,1152.5767,,,1153.0763,1153.3264,,80,80,,,,,,,,,,,,,,,,bars/035.png,bars/mask001.png,,,,,,,,,,,,0,2,,,,,,,4,2,4,1,,,,,,,,,,,1152.5768,1153.0763,1153.3264,1156.3061,space,2.9737,,1156.3061,85,20,1157.3057,1157.3058,1159.2158,space,1.8953,,0,46,46,46,1,175,60,,,,,,,,
,,601d7556fe4dfb0d99b3d825,65af52bacbfd19b26dc0c392,2024-01-23_07h46.58.626,bars,2023.2.3,Win32,144.9275362,657b66ea316d21385b68909f,,,,,,,,,,,1159.216,1160.2156,,,1160.7162,1160.9658,,166,166,,,,,,,,,,,,,,,,bars/048.png,bars/mask002.png,,,,,,,,,,,,0,2,,,,,,,6,0,6,0,,,,,,,,,,,1160.2156,1160.7162,1160.9658,1163.0566,space,2.0879,,1163.0566,64,9,1164.056,1164.056,1165.23,space,1.1568,,0,47,47,47,1,50,175,,,,,,,,
,,601d7556fe4dfb0d99b3d825,65af52bacbfd19b26dc0c392,2024-01-23_07h46.58.626,bars,2023.2.3,Win32,144.9275362,657b66ea316d21385b68909f,,,,,,,,,,,1165.2303,1166.2298,,,1166.7304,1166.9799,,160,-20,,,,,,,,,,,,,,,,bars/017.png,bars/mask007.png,,,,,,,,,,,,3,1,,,,,,,4,2,5,2,,,,,,,,,,,1166.23,1166.7303,1166.9799,1170.2928,space,3.3061,,1170.2929,15,65,1171.2926,1171.2926,1172.3553,space,1.0441,,0,48,48,48,1,145,45,,,,,,,,
,,601d7556fe4dfb0d99b3d825,65af52bacbfd19b26dc0c392,2024-01-23_07h46.58.626,bars,2023.2.3,Win32,144.9275362,657b66ea316d21385b68909f,,,,,,,,,,,1172.3556,1173.355,,,1173.8553,1174.1052,,34,34,,,,,,,,,,,,,,,,bars/003.png,bars/mask001.png,,,,,,,,,,,,3,1,,,,,,,2,4,4,3,,,,,,,,,,,1173.3551,1173.8553,1174.1052,1176.0086,space,1.8965,,1176.0086,9,74,1177.0081,1177.0081,1178.4945,space,1.47,,0,49,49,49,1,25,140,,,,,,,,
,,601d7556fe4dfb0d99b3d825,65af52bacbfd19b26dc0c392,2024-01-23_07h46.58.626,bars,2023.2.3,Win32,144.9275362,657b66ea316d21385b68909f,,,,,,,,,,,,,,,,,,,,,,,,,,,,,,,,,,,,,,,,,,,,,,,,,,,,,,,,,,,,,,,,,,,,,,,,,,,,,,,,,,,,,,,,,,,,,1178.4951,1238.4913,0,0,0,4,1,sequence_tables/blk015.csv
,,601d7556fe4dfb0d99b3d825,65af52bacbfd19b26dc0c392,2024-01-23_07h46.58.626,bars,2023.2.3,Win32,144.9275362,657b66ea316d21385b68909f,,,,,,,,,,,1246.2467,1247.2413,,,1247.7412,1247.9912,,39,39,,,,,,,,,,,,,,,,bars/000.png,bars/mask001.png,,,,,,,,,,,,10,1,,,,,,,10,7,10,7,,,,,,1238.5003,1246.2343,space,7.7242,,1247.2413,1247.7411,1247.9913,1249.8529,space,1.8561,,1249.8529,1,74,1250.8525,1250.8525,1250.8615,,,,0,0,0,0,1,40,145,,,,,,,,
,,601d7556fe4dfb0d99b3d825,65af52bacbfd19b26dc0c392,2024-01-23_07h46.58.626,bars,2023.2.3,Win32,144.9275362,657b66ea316d21385b68909f,,,,,,,,,,,1250.8617,1251.8597,,,1252.3596,1252.6096,,10,190,,,,,,,,,,,,,,,,bars/047.png,bars/mask004.png,,,,,,,,,,,,7,1,,,,,,,8,9,8,8,,,,,,,,,,,1251.8597,1252.3596,1252.6097,1255.4431,space,2.8271,,1255.4432,5,60,1256.4431,1256.4431,1256.452,,,,0,1,1,1,1,15,70,,,,,,,,
,,601d7556fe4dfb0d99b3d825,65af52bacbfd19b26dc0c392,2024-01-23_07h46.58.626,bars,2023.2.3,Win32,144.9275362,657b66ea316d21385b68909f,,,,,,,,,,,1256.4522,1257.4504,,,1257.9506,1258.2,,29,29,,,,,,,,,,,,,,,,bars/026.png,bars/mask008.png,,,,,,,,,,,,3,1,,,,,,,6,7,4,7,,,,,,,,,,,1257.4504,1257.9506,1258.2001,1258.9504,space,0.7456,,1258.9505,6,56,1259.9504,1259.9504,1259.9511,,,,0,2,2,2,1,35,85,,,,,,,,
,,601d7556fe4dfb0d99b3d825,65af52bacbfd19b26dc0c392,2024-01-23_07h46.58.626,bars,2023.2.3,Win32,144.9275362,657b66ea316d21385b68909f,,,,,,,,,,,1259.9514,1260.9503,,,1261.4505,1261.7002,,138,138,,,,,,,,,,,,,,,,bars/036.png,bars/mask001.png,,,,,,,,,,,,6,1,,,,,,,8,9,8,10,,,,,,,,,,,1260.9503,1261.4504,1261.7002,1263.499,space,1.7955,,1263.4991,7,62,1264.4991,1264.4992,1264.5,,,,0,3,3,3,1,145,20,,,,,,,,
,,601d7556fe4dfb0d99b3d825,65af52bacbfd19b26dc0c392,2024-01-23_07h46.58.626,bars,2023.2.3,Win32,144.9275362,657b66ea316d21385b68909f,,,,,,,,,,,1264.5003,1265.4992,,,1265.9993,1266.2491,,31,211,,,,,,,,,,,,,,,,bars/043.png,bars/mask006.png,,,,,,,,,,,,9,1,,,,,,,10,7,9,7,,,,,,,,,,,1265.4992,1265.9992,1266.2492,1270.2079,space,3.9563,,1270.2079,1,81,1271.2078,1271.2078,1271.2167,,,,0,4,4,4,1,30,130,,,,,,,,
,,601d7556fe4dfb0d99b3d825,65af52bacbfd19b26dc0c392,2024-01-23_07h46.58.626,bars,2023.2.3,Win32,144.9275362,657b66ea316d21385b68909f,,,,,,,,,,,1271.2168,1272.2154,,,1272.7149,1272.9649,,155,-25,,,,,,,,,,,,,,,,bars/001.png,bars/mask000.png,,,,,,,,,,,,1,1,,,,,,,8,5,8,7,,,,,,,,,,,1272.2154,1272.7149,1272.9649,1276.7359,space,3.7664,,1276.7359,25,70,1277.736,1277.7361,1277.745,,,,0,5,5,5,1,130,85,,,,,,,,
,,601d7556fe4dfb0d99b3d825,65af52bacbfd19b26dc0c392,2024-01-23_07h46.58.626,bars,2023.2.3,Win32,144.9275362,657b66ea316d21385b68909f,,,,,,,,,,,1277.7452,1278.7432,,,1279.2432,1279.4931,,39,219,,,,,,,,,,,,,,,,bars/033.png,bars/mask007.png,,,,,,,,,,,,5,1,,,,,,,10,3,10,3,,,,,,,,,,,1278.7433,1279.2432,1279.4932,1282.4029,space,2.9041,,1282.4029,14,64,1283.4028,1283.4029,1283.4116,,,,0,6,6,6,1,25,155,,,,,,,,
,,601d7556fe4dfb0d99b3d825,65af52bacbfd19b26dc0c392,2024-01-23_07h46.58.626,bars,2023.2.3,Win32,144.9275362,657b66ea316d21385b68909f,,,,,,,,,,,1283.4117,1284.4103,,,1284.9102,1285.1603,,115,115,,,,,,,,,,,,,,,,bars/012.png,bars/mask001.png,,,,,,,,,,,,1,1,,,,,,,8,5,6,2,,,,,,,,,,,1284.4105,1284.9102,1285.1603,1286.8962,space,1.731,,1286.8963,25,80,1287.8962,1287.8962,1287.8971,,,,0,7,7,7,1,90,15,,,,,,,,
,,601d7556fe4dfb0d99b3d825,65af52bacbfd19b26dc0c392,2024-01-23_07h46.58.626,bars,2023.2.3,Win32,144.9275362,657b66ea316d21385b68909f,,,,,,,,,,,1287.8973,1288.8964,,,1289.3963,1289.6463,,143,-37,,,,,,,,,,,,,,,,bars/024.png,bars/mask003.png,,,,,,,,,,,,2,1,,,,,,,10,3,10,2,,,,,,,,,,,1288.8964,1289.3963,1289.6464,1295.3134,space,5.6622,,1295.3135,23,27,1296.3134,1296.3135,1296.3222,,,,0,8,8,8,1,120,170,,,,,,,,
,,601d7556fe4dfb0d99b3d825,65af52bacbfd19b26dc0c392,2024-01-23_07h46.58.626,bars,2023.2.3,Win32,144.9275362,657b66ea316d21385b68909f,,,,,,,,,,,1296.3224,1297.3211,,,1297.8205,1298.0704,,151,151,,,,,,,,,,,,,,,,bars/018.png,bars/mask008.png,,,,,,,,,,,,10,1,,,,,,,10,1,10,3,,,,,,,,,,,1297.3211,1297.8205,1298.0704,1301.0848,space,3.0076,,1301.0851,1,61,1302.0846,1302.0846,1302.0932,,,,0,9,9,9,1,150,90,,,,,,,,
,,601d7556fe4dfb0d99b3d825,65af52bacbfd19b26dc0c392,2024-01-23_07h46.58.626,bars,2023.2.3,Win32,144.9275362,657b66ea316d21385b68909f,,,,,,,,,,,1302.0934,1303.0917,,,1303.5917,1303.8415,,39,219,,,,,,,,,,,,,,,,bars/000.png,bars/mask005.png,,,,,,,,,,,,9,1,,,,,,,8,0,9,0,,,,,,,,,,,1303.0917,1303.5916,1303.8416,1306.2169,space,2.3717,,1306.2169,1,74,1307.2166,1307.2167,1307.2257,,,,0,10,10,10,1,40,145,,,,,,,,
,,601d7556fe4dfb0d99b3d825,65af52bacbfd19b26dc0c392,2024-01-23_07h46.58.626,bars,2023.2.3,Win32,144.9275362,657b66ea316d21385b68909f,,,,,,,,,,,1307.2258,1308.2238,,,1308.7238,1308.9739,,139,139,,,,,,,,,,,,,,,,bars/017.png,bars/mask008.png,,,,,,,,,,,,6,1,,,,,,,6,2,7,2,,,,,,,,,,,1308.2239,1308.7238,1308.9739,1310.6337,space,1.6537,,1310.6338,6,86,1311.6336,1311.6337,1311.6345,,,,0,11,11,11,1,145,45,,,,,,,,
,,601d7556fe4dfb0d99b3d825,65af52bacbfd19b26dc0c392,2024-01-23_07h46.58.626,bars,2023.2.3,Win32,144.9275362,657b66ea316d21385b68909f,,,,,,,,,,,1311.6349,1312.6338,,,1313.1339,1313.3838,,144,144,,,,,,,,,,,,,,,,bars/036.png,bars/mask007.png,,,,,,,,,,,,9,1,,,,,,,8,0,9,0,,,,,,,,,,,1312.6338,1313.1338,1313.3838,1314.9397,space,1.5539,,1314.9397,1,56,1315.9395,1315.9395,1315.9405,,,,0,12,12,12,1,145,20,,,,,,,,
,,601d7556fe4dfb0d99b3d825,65af52bacbfd19b26dc0c392,2024-01-23_07h46.58.626,bars,2023.2.3,Win32,144.9275362,657b66ea316d21385b68909f,,,,,,,,,,,1315.9408,1316.9395,,,1317.4396,1317.6898,,159,159,,,,,,,,,,,,,,,,bars/021.png,bars/mask009.png,,,,,,,,,,,,8,1,,,,,,,10,2,9,0,,,,,,,,,,,1316.9395,1317.4396,1317.6898,1320.6208,space,2.9239,,1320.6208,4,89,1321.6203,1321.6203,1321.629,,,,0,13,13,13,1,155,70,,,,,,,,
,,601d7556fe4dfb0d99b3d825,65af52bacbfd19b26dc0c392,2024-01-23_07h46.58.626,bars,2023.2.3,Win32,144.9275362,657b66ea316d21385b68909f,,,,,,,,,,,1321.6292,1322.6273,,,1323.1274,1323.3773,,149,149,,,,,,,,,,,,,,,,bars/046.png,bars/mask002.png,,,,,,,,,,,,8,1,,,,,,,8,4,10,6,,,,,,,,,,,1322.6277,1323.1273,1323.3774,1325.7525,space,2.3724,,1325.7526,6,64,1326.7527,1326.7528,1326.7615,,,,0,14,14,14,1,155,85,,,,,,,,
,,601d7556fe4dfb0d99b3d825,65af52bacbfd19b26dc0c392,2024-01-23_07h46.58.626,bars,2023.2.3,Win32,144.9275362,657b66ea316d21385b68909f,,,,,,,,,,,1326.7617,1327.7595,,,1328.2596,1328.5098,,15,15,,,,,,,,,,,,,,,,bars/023.png,bars/mask000.png,,,,,,,,,,,,8,1,,,,,,,10,2,10,3,,,,,,,,,,,1327.7596,1328.2596,1328.5098,1330.8017,space,2.2876,,1330.8018,5,80,1331.8017,1331.8017,1331.8105,,,,0,15,15,15,1,20,115,,,,,,,,
,,601d7556fe4dfb0d99b3d825,65af52bacbfd19b26dc0c392,2024-01-23_07h46.58.626,bars,2023.2.3,Win32,144.9275362,657b66ea316d21385b68909f,,,,,,,,,,,1331.8108,1332.8084,,,1333.3085,1333.5587,,84,84,,,,,,,,,,,,,,,,bars/022.png,bars/mask002.png,,,,,,,,,,,,4,1,,,,,,,8,0,7,0,,,,,,,,,,,1332.8085,1333.3085,1333.5587,1336.7531,space,3.1915,,1336.7532,11,64,1337.7533,1337.7533,1337.7628,,,,0,16,16,16,1,95,20,,,,,,,,
,,601d7556fe4dfb0d99b3d825,65af52bacbfd19b26dc0c392,2024-01-23_07h46.58.626,bars,2023.2.3,Win32,144.9275362,657b66ea316d21385b68909f,,,,,,,,,,,1337.763,1338.7606,,,1339.2603,1339.5102,,23,23,,,,,,,,,,,,,,,,bars/043.png,bars/mask000.png,,,,,,,,,,,,8,1,,,,,,,10,0,10,0,,,,,,,,,,,1338.7606,1339.2603,1339.5102,1342.6217,space,3.1092,,1342.6218,7,73,1343.6219,1343.6219,1343.6307,,,,0,17,17,17,1,30,130,,,,,,,,
,,601d7556fe4dfb0d99b3d825,65af52bacbfd19b26dc0c392,2024-01-23_07h46.58.626,bars,2023.2.3,Win32,144.9275362,657b66ea316d21385b68909f,,,,,,,,,,,1343.6309,1344.6292,,,1345.1287,1345.3785,,143,-37,,,,,,,,,,,,,,,,bars/010.png,bars/mask005.png,,,,,,,,,,,,2,1,,,,,,,10,2,9,4,,,,,,,,,,,1344.6292,1345.1287,1345.3785,1348.0385,space,2.6562,,1348.0386,22,88,1349.0385,1349.0387,1349.0478,,,,0,18,18,18,1,165,55,,,,,,,,
,,601d7556fe4dfb0d99b3d825,65af52bacbfd19b26dc0c392,2024-01-23_07h46.58.626,bars,2023.2.3,Win32,144.9275362,657b66ea316d21385b68909f,,,,,,,,,,,1349.048,1350.0458,,,1350.5457,1350.7957,,22,202,,,,,,,,,,,,,,,,bars/005.png,bars/mask006.png,,,,,,,,,,,,6,1,,,,,,,10,4,10,4,,,,,,,,,,,1350.0458,1350.5456,1350.7958,1352.8721,space,2.0701,,1352.8722,12,62,1353.8721,1353.8722,1353.8731,,,,0,19,19,19,1,10,140,,,,,,,,
,,601d7556fe4dfb0d99b3d825,65af52bacbfd19b26dc0c392,2024-01-23_07h46.58.626,bars,2023.2.3,Win32,144.9275362,657b66ea316d21385b68909f,,,,,,,,,,,1353.8734,1354.8722,,,1355.3722,1355.6221,,140,140,,,,,,,,,,,,,,,,bars/040.png,bars/mask003.png,,,,,,,,,,,,9,1,,,,,,,10,6,9,6,,,,,,,,,,,1354.8722,1355.3722,1355.6223,1358.1572,space,2.5312,,1358.1572,0,45,1359.1571,1359.1572,1359.1661,,,,0,20,20,20,1,140,5,,,,,,,,
,,601d7556fe4dfb0d99b3d825,65af52bacbfd19b26dc0c392,2024-01-23_07h46.58.626,bars,2023.2.3,Win32,144.9275362,657b66ea316d21385b68909f,,,,,,,,,,,1359.1662,1360.1644,,,1360.6641,1360.9142,,83,83,,,,,,,,,,,,,,,,bars/013.png,bars/mask005.png,,,,,,,,,,,,5,1,,,,,,,8,4,7,2,,,,,,,,,,,1360.1645,1360.6641,1360.9142,1363.602,space,2.6814,,1363.602,8,73,1364.6018,1364.6019,1364.6108,,,,0,21,21,21,1,75,10,,,,,,,,
,,601d7556fe4dfb0d99b3d825,65af52bacbfd19b26dc0c392,2024-01-23_07h46.58.626,bars,2023.2.3,Win32,144.9275362,657b66ea316d21385b68909f,,,,,,,,,,,1364.611,1365.6095,,,1366.1095,1366.3588,,110,110,,,,,,,,,,,,,,,,bars/045.png,bars/mask008.png,,,,,,,,,,,,6,1,,,,,,,10,6,9,8,,,,,,,,,,,1365.6095,1366.1094,1366.3589,1368.8803,space,2.5146,,1368.8804,10,80,1369.8799,1369.8799,1369.8889,,,,0,22,22,22,1,100,10,,,,,,,,
,,601d7556fe4dfb0d99b3d825,65af52bacbfd19b26dc0c392,2024-01-23_07h46.58.626,bars,2023.2.3,Win32,144.9275362,657b66ea316d21385b68909f,,,,,,,,,,,1369.889,1370.8874,,,1371.387,1371.6369,,152,152,,,,,,,,,,,,,,,,bars/049.png,bars/mask007.png,,,,,,,,,,,,7,1,,,,,,,10,4,10,2,,,,,,,,,,,1370.8874,1371.387,1371.6371,1373.3318,space,1.6882,,1373.3319,8,37,1374.3316,1374.3316,1374.3325,,,,0,23,23,23,1,160,115,,,,,,,,
,,601d7556fe4dfb0d99b3d825,65af52bacbfd19b26dc0c392,2024-01-23_07h46.58.626,bars,2023.2.3,Win32,144.9275362,657b66ea316d21385b68909f,,,,,,,,,,,1374.3327,1375.3316,,,1375.8316,1376.0816,,147,147,,,,,,,,,,,,,,,,bars/017.png,bars/mask005.png,,,,,,,,,,,,9,1,,,,,,,10,2,10,2,,,,,,,,,,,1375.3316,1375.8316,1376.0816,1378.714,space,2.63,,1378.714,2,78,1379.7138,1379.7139,1379.723,,,,0,24,24,24,1,145,45,,,,,,,,
,,601d7556fe4dfb0d99b3d825,65af52bacbfd19b26dc0c392,2024-01-23_07h46.58.626,bars,2023.2.3,Win32,144.9275362,657b66ea316d21385b68909f,,,,,,,,,,,1379.7232,1380.7215,,,1381.221,1381.4708,,29,29,,,,,,,,,,,,,,,,bars/003.png,bars/mask006.png,,,,,,,,,,,,6,1,,,,,,,8,4,7,4,,,,,,,,,,,1380.7215,1381.2209,1381.4709,1384.1863,space,2.7129,,1384.1864,4,69,1385.1864,1385.1864,1385.1951,,,,0,25,25,25,1,25,140,,,,,,,,
,,601d7556fe4dfb0d99b3d825,65af52bacbfd19b26dc0c392,2024-01-23_07h46.58.626,bars,2023.2.3,Win32,144.9275362,657b66ea316d21385b68909f,,,,,,,,,,,1385.1952,1386.1933,,,1386.6934,1386.9438,,137,-43,,,,,,,,,,,,,,,,bars/036.png,bars/mask000.png,,,,,,,,,,,,7,1,,,,,,,10,6,10,6,,,,,,,,,,,1386.1934,1386.6934,1386.9438,1389.5964,space,2.6493,,1389.5965,8,63,1390.5963,1390.5964,1390.6054,,,,0,26,26,26,1,145,20,,,,,,,,
,,601d7556fe4dfb0d99b3d825,65af52bacbfd19b26dc0c392,2024-01-23_07h46.58.626,bars,2023.2.3,Win32,144.9275362,657b66ea316d21385b68909f,,,,,,,,,,,1390.6056,1391.6039,,,1392.1034,1392.3536,,90,90,,,,,,,,,,,,,,,,bars/029.png,bars/mask000.png,,,,,,,,,,,,10,1,,,,,,,10,8,10,8,,,,,,,,,,,1391.6039,1392.1034,1392.3536,1393.632,space,1.2762,,1393.632,0,45,1394.6314,1394.6314,1394.6399,,,,0,27,27,27,1,90,45,,,,,,,,
,,601d7556fe4dfb0d99b3d825,65af52bacbfd19b26dc0c392,2024-01-23_07h46.58.626,bars,2023.2.3,Win32,144.9275362,657b66ea316d21385b68909f,,,,,,,,,,,1394.6401,1395.6382,,,1396.1384,1396.3885,,156,156,,,,,,,,,,,,,,,,bars/037.png,bars/mask009.png,,,,,,,,,,,,8,1,,,,,,,8,10,10,9,,,,,,,,,,,1395.6383,1396.1383,1396.3886,1398.4234,space,2.0291,,1398.4234,6,51,1399.4233,1399.4233,1399.432,,,,0,28,28,28,1,150,105,,,,,,,,
,,601d7556fe4dfb0d99b3d825,65af52bacbfd19b26dc0c392,2024-01-23_07h46.58.626,bars,2023.2.3,Win32,144.9275362,657b66ea316d21385b68909f,,,,,,,,,,,1399.4322,1400.4303,,,1400.931,1401.1804,,95,95,,,,,,,,,,,,,,,,bars/045.png,bars/mask003.png,,,,,,,,,,,,8,1,,,,,,,10,10,10,10,,,,,,,,,,,1400.4303,1400.931,1401.1804,1402.4028,space,1.2171,,1402.4029,5,85,1403.4028,1403.4029,1403.4037,,,,0,29,29,29,1,100,10,,,,,,,,
,,601d7556fe4dfb0d99b3d825,65af52bacbfd19b26dc0c392,2024-01-23_07h46.58.626,bars,2023.2.3,Win32,144.9275362,657b66ea316d21385b68909f,,,,,,,,,,,1403.4039,1404.4026,,,1404.9027,1405.1529,,161,161,,,,,,,,,,,,,,,,bars/018.png,bars/mask008.png,,,,,,,,,,,,4,1,,,,,,,8,10,6,10,,,,,,,,,,,1404.4027,1404.9027,1405.1529,1406.6876,space,1.5305,,1406.6876,11,71,1407.6876,1407.6877,1407.6884,,,,0,30,30,30,1,150,90,,,,,,,,
,,601d7556fe4dfb0d99b3d825,65af52bacbfd19b26dc0c392,2024-01-23_07h46.58.626,bars,2023.2.3,Win32,144.9275362,657b66ea316d21385b68909f,,,,,,,,,,,1407.6887,1408.6877,,,1409.1877,1409.4378,,64,64,,,,,,,,,,,,,,,,bars/044.png,bars/mask009.png,,,,,,,,,,,,5,1,,,,,,,6,8,8,9,,,,,,,,,,,1408.6877,1409.1876,1409.4379,1411.0907,space,1.6477,,1411.0907,11,89,1412.0905,1412.0906,1412.0915,,,,0,31,31,31,1,75,155,,,,,,,,
,,601d7556fe4dfb0d99b3d825,65af52bacbfd19b26dc0c392,2024-01-23_07h46.58.626,bars,2023.2.3,Win32,144.9275362,657b66ea316d21385b68909f,,,,,,,,,,,1412.0918,1413.0907,,,1413.5908,1413.8408,,113,113,,,,,,,,,,,,,,,,bars/015.png,bars/mask006.png,,,,,,,,,,,,4,1,,,,,,,4,10,4,10,,,,,,,,,,,1413.0907,1413.5908,1413.8409,1416.4243,space,2.5807,,1416.4244,3,47,1417.4243,1417.4244,1417.4333,,,,0,32,32,32,1,110,160,,,,,,,,
,,601d7556fe4dfb0d99b3d825,65af52bacbfd19b26dc0c392,2024-01-23_07h46.58.626,bars,2023.2.3,Win32,144.9275362,657b66ea316d21385b68909f,,,,,,,,,,,1417.4334,1418.4316,,,1418.9313,1419.1813,,102,102,,,,,,,,,,,,,,,,bars/025.png,bars/mask003.png,,,,,,,,,,,,2,1,,,,,,,2,8,2,8,,,,,,,,,,,1418.4316,1418.9313,1419.1814,1421.7303,space,2.5428,,1421.7304,3,62,1422.7302,1422.7302,1422.7392,,,,0,33,33,33,1,105,40,,,,,,,,
,,601d7556fe4dfb0d99b3d825,65af52bacbfd19b26dc0c392,2024-01-23_07h46.58.626,bars,2023.2.3,Win32,144.9275362,657b66ea316d21385b68909f,,,,,,,,,,,1422.7394,1423.7372,,,1424.2372,1424.4871,,152,-28,,,,,,,,,,,,,,,,bars/046.png,bars/mask006.png,,,,,,,,,,,,5,1,,,,,,,4,6,5,6,,,,,,,,,,,1423.7372,1424.2372,1424.4871,1428.3208,space,3.8303,,1428.3208,3,67,1429.3208,1429.3208,1429.3296,,,,0,34,34,34,1,155,85,,,,,,,,
,,601d7556fe4dfb0d99b3d825,65af52bacbfd19b26dc0c392,2024-01-23_07h46.58.626,bars,2023.2.3,Win32,144.9275362,657b66ea316d21385b68909f,,,,,,,,,,,1429.3297,1430.3279,,,1430.8278,1431.0777,,30,210,,,,,,,,,,,,,,,,bars/033.png,bars/mask000.png,,,,,,,,,,,,2,1,,,,,,,2,4,2,4,,,,,,,,,,,1430.328,1430.8278,1431.0777,1433.46,space,2.3798,,1433.46,5,55,1434.46,1434.46,1434.4606,,,,0,35,35,35,1,25,155,,,,,,,,
,,601d7556fe4dfb0d99b3d825,65af52bacbfd19b26dc0c392,2024-01-23_07h46.58.626,bars,2023.2.3,Win32,144.9275362,657b66ea316d21385b68909f,,,,,,,,,,,1434.4608,1435.4601,,,1435.9601,1436.21,,45,45,,,,,,,,,,,,,,,,bars/000.png,bars/mask001.png,,,,,,,,,,,,3,1,,,,,,,4,2,4,1,,,,,,,,,,,1435.4601,1435.9601,1436.21,1439.474,space,3.26,,1439.4741,5,80,1440.4742,1440.4743,1440.483,,,,0,36,36,36,1,40,145,,,,,,,,
,,601d7556fe4dfb0d99b3d825,65af52bacbfd19b26dc0c392,2024-01-23_07h46.58.626,bars,2023.2.3,Win32,144.9275362,657b66ea316d21385b68909f,,,,,,,,,,,1440.4832,1441.4815,,,1441.9813,1442.2311,,153,153,,,,,,,,,,,,,,,,bars/042.png,bars/mask002.png,,,,,,,,,,,,0,1,,,,,,,2,0,0,0,,,,,,,,,,,1441.4816,1441.9813,1442.2312,1445.0232,space,2.786,,1445.0235,8,78,1446.0232,1446.0232,1446.032,,,,0,37,37,37,1,145,75,,,,,,,,
,,601d7556fe4dfb0d99b3d825,65af52bacbfd19b26dc0c392,2024-01-23_07h46.58.626,bars,2023.2.3,Win32,144.9275362,657b66ea316d21385b68909f,,,,,,,,,,,1446.0322,1447.0301,,,1447.5302,1447.7802,,93,93,,,,,,,,,,,,,,,,bars/004.png,bars/mask008.png,,,,,,,,,,,,0,2,,,,,,,0,0,0,2,,,,,,,,,,,1447.0301,1447.5301,1447.7803,1449.3011,space,1.515,,1449.3012,68,32,1450.301,1450.301,1450.3027,,,,0,38,38,38,1,25,125,,,,,,,,
,,601d7556fe4dfb0d99b3d825,65af52bacbfd19b26dc0c392,2024-01-23_07h46.58.626,bars,2023.2.3,Win32,144.9275362,657b66ea316d21385b68909f,,,,,,,,,,,1450.3029,1451.3012,,,1451.8012,1452.0512,,123,123,,,,,,,,,,,,,,,,bars/028.png,bars/mask001.png,,,,,,,,,,,,0,2,,,,,,,2,0,2,0,,,,,,,,,,,1451.3012,1451.8012,1452.0512,1454.8292,space,2.7728,,1454.8292,78,3,1455.8291,1455.8291,1455.8383,,,,0,39,39,39,1,45,120,,,,,,,,
,,601d7556fe4dfb0d99b3d825,65af52bacbfd19b26dc0c392,2024-01-23_07h46.58.626,bars,2023.2.3,Win32,144.9275362,657b66ea316d21385b68909f,,,,,,,,,,,1455.8385,1456.8362,,,1457.3362,1457.5863,,148,-32,,,,,,,,,,,,,,,,bars/010.png,bars/mask007.png,,,,,,,,,,,,1,1,,,,,,,4,0,3,0,,,,,,,,,,,1456.8362,1457.3362,1457.5863,1460.3018,space,2.7133,,1460.3018,17,87,1461.3021,1461.3021,1461.3118,,,,0,40,40,40,1,165,55,,,,,,,,
,,601d7556fe4dfb0d99b3d825,65af52bacbfd19b26dc0c392,2024-01-23_07h46.58.626,bars,2023.2.3,Win32,144.9275362,657b66ea316d21385b68909f,,,,,,,,,,,1461.3119,1462.3086,,,1462.8088,1463.0588,,176,-4,,,,,,,,,,,,,,,,bars/038.png,bars/mask006.png,,,,,,,,,,,,2,1,,,,,,,2,0,3,0,,,,,,,,,,,1462.3086,1462.8087,1463.0589,1465.2534,space,2.1907,,1465.2535,11,74,1466.2533,1466.2534,1466.2543,,,,0,41,41,41,1,165,70,,,,,,,,
,,601d7556fe4dfb0d99b3d825,65af52bacbfd19b26dc0c392,2024-01-23_07h46.58.626,bars,2023.2.3,Win32,144.9275362,657b66ea316d21385b68909f,,,,,,,,,,,1466.2545,1467.2535,,,1467.7535,1468.0036,,108,108,,,,,,,,,,,,,,,,bars/034.png,bars/mask000.png,,,,,,,,,,,,0,1,,,,,,,0,0,1,0,,,,,,,,,,,1467.2536,1467.7534,1468.0036,1469.6842,space,1.6739,,1469.6843,17,43,1470.6842,1470.6843,1470.6932,,,,0,42,42,42,1,125,65,,,,,,,,
,,601d7556fe4dfb0d99b3d825,65af52bacbfd19b26dc0c392,2024-01-23_07h46.58.626,bars,2023.2.3,Win32,144.9275362,657b66ea316d21385b68909f,,,,,,,,,,,1470.6933,1471.6911,,,1472.1911,1472.4412,,157,-23,,,,,,,,,,,,,,,,bars/046.png,bars/mask004.png,,,,,,,,,,,,1,1,,,,,,,2,2,1,2,,,,,,,,,,,1471.6911,1472.1911,1472.4412,1476.2539,space,3.8102,,1476.254,2,72,1477.2541,1477.2542,1477.263,,,,0,43,43,43,1,155,85,,,,,,,,
,,601d7556fe4dfb0d99b3d825,65af52bacbfd19b26dc0c392,2024-01-23_07h46.58.626,bars,2023.2.3,Win32,144.9275362,657b66ea316d21385b68909f,,,,,,,,,,,1477.2632,1478.2613,,,1478.761,1479.0111,,31,31,,,,,,,,,,,,,,,,bars/033.png,bars/mask001.png,,,,,,,,,,,,3,1,,,,,,,4,4,4,3,,,,,,,,,,,1478.2613,1478.761,1479.0111,1480.9978,space,1.9846,,1480.9979,6,56,1481.9971,1481.9972,1481.9981,,,,0,44,44,44,1,25,155,,,,,,,,
,,601d7556fe4dfb0d99b3d825,65af52bacbfd19b26dc0c392,2024-01-23_07h46.58.626,bars,2023.2.3,Win32,144.9275362,657b66ea316d21385b68909f,,,,,,,,,,,1481.9983,1482.9973,,,1483.4974,1483.7474,,67,67,,,,,,,,,,,,,,,,bars/022.png,bars/mask001.png,,,,,,,,,,,,0,1,,,,,,,6,2,6,2,,,,,,,,,,,1482.9973,1483.4974,1483.7474,1487.4837,space,3.7343,,1487.4838,28,47,1488.4837,1488.4837,1488.4923,,,,0,45,45,45,1,95,20,,,,,,,,
,,601d7556fe4dfb0d99b3d825,65af52bacbfd19b26dc0c392,2024-01-23_07h46.58.626,bars,2023.2.3,Win32,144.9275362,657b66ea316d21385b68909f,,,,,,,,,,,1488.4924,1489.4911,,,1489.9909,1490.2408,,44,44,,,,,,,,,,,,,,,,bars/028.png,bars/mask007.png,,,,,,,,,,,,8,1,,,,,,,8,0,8,0,,,,,,,,,,,1489.4911,1489.9908,1490.2408,1493.8244,space,3.5789,,1493.8244,1,76,1494.8248,1494.8249,1494.8334,,,,0,46,46,46,1,45,120,,,,,,,,
,,601d7556fe4dfb0d99b3d825,65af52bacbfd19b26dc0c392,2024-01-23_07h46.58.626,bars,2023.2.3,Win32,144.9275362,657b66ea316d21385b68909f,,,,,,,,,,,1494.8336,1495.8316,,,1496.3316,1496.5816,,149,149,,,,,,,,,,,,,,,,bars/011.png,bars/mask003.png,,,,,,,,,,,,6,1,,,,,,,10,2,9,2,,,,,,,,,,,1495.8317,1496.3316,1496.5816,1500.6791,space,4.0939,,1500.6792,11,64,1501.679,1501.679,1501.688,,,,0,47,47,47,1,160,85,,,,,,,,
,,601d7556fe4dfb0d99b3d825,65af52bacbfd19b26dc0c392,2024-01-23_07h46.58.626,bars,2023.2.3,Win32,144.9275362,657b66ea316d21385b68909f,,,,,,,,,,,1501.6882,1502.6859,,,1503.1862,1503.4361,,113,113,,,,,,,,,,,,,,,,bars/008.png,bars/mask009.png,,,,,,,,,,,,8,1,,,,,,,8,0,9,0,,,,,,,,,,,1502.6859,1503.1861,1503.4362,1505.0819,space,1.6407,,1505.082,3,67,1506.082,1506.0821,1506.0828,,,,0,48,48,48,1,110,0,,,,,,,,
,,601d7556fe4dfb0d99b3d825,65af52bacbfd19b26dc0c392,2024-01-23_07h46.58.626,bars,2023.2.3,Win32,144.9275362,657b66ea316d21385b68909f,,,,,,,,,,,1506.0831,1507.0822,,,1507.5823,1507.832,,137,137,,,,,,,,,,,,,,,,bars/001.png,bars/mask008.png,,,,,,,,,,,,7,1,,,,,,,10,2,9,1,,,,,,,,,,,1507.0822,1507.5823,1507.832,1509.1725,space,1.3332,,1509.1726,7,52,1510.1725,1510.1726,1510.1735,,,,0,49,49,49,1,130,85,,,,,,,,
,,601d7556fe4dfb0d99b3d825,65af52bacbfd19b26dc0c392,2024-01-23_07h46.58.626,bars,2023.2.3,Win32,144.9275362,657b66ea316d21385b68909f,,,,,,,,,,,,,,,,,,,,,,,,,,,,,,,,,,,,,,,,,,,,,,,,,,,,,,,,,,,,,,,,,,,,,,,,,,,,,,,,,,,,,,,,,,,,,1510.1737,1570.1692,0,1,1,1,1,sequence_tables/blk006.csv
,,601d7556fe4dfb0d99b3d825,65af52bacbfd19b26dc0c392,2024-01-23_07h46.58.626,bars,2023.2.3,Win32,144.9275362,657b66ea316d21385b68909f,,,,,,,,,,,1574.8901,1575.8777,,,1576.3777,1576.6276,,151,151,,,,,,,,,,,,,,,,bars/048.png,bars/mask003.png,,,,,,,,,,,,2,2,,,,,,,8,7,10,8,,,,,,1570.1782,1574.8775,space,4.686,,1575.8777,1576.3776,1576.6276,1577.5305,space,0.898,,1577.5305,79,24,1578.5304,1578.5305,1578.5322,,,,0,0,0,0,1,50,175,,,,,,,,
,,601d7556fe4dfb0d99b3d825,65af52bacbfd19b26dc0c392,2024-01-23_07h46.58.626,bars,2023.2.3,Win32,144.9275362,657b66ea316d21385b68909f,,,,,,,,,,,1578.5324,1579.5306,,,1580.0306,1580.2813,,77,77,,,,,,,,,,,,,,,,bars/038.png,bars/mask006.png,,,,,,,,,,,,3,2,,,,,,,6,5,6,4,,,,,,,,,,,1579.5308,1580.0305,1580.2813,1582.253,space,1.9681,,1582.253,88,7,1583.253,1583.2531,1583.2619,,,,0,1,1,1,1,165,70,,,,,,,,
,,601d7556fe4dfb0d99b3d825,65af52bacbfd19b26dc0c392,2024-01-23_07h46.58.626,bars,2023.2.3,Win32,144.9275362,657b66ea316d21385b68909f,,,,,,,,,,,1583.262,1584.2603,,,1584.76,1585.0101,,149,-31,,,,,,,,,,,,,,,,bars/000.png,bars/mask008.png,,,,,,,,,,,,8,2,,,,,,,8,7,8,9,,,,,,,,,,,1584.2603,1584.76,1585.0101,1588.33,space,3.3152,,1588.33,71,4,1589.3297,1589.3298,1589.3383,,,,0,2,2,2,1,40,145,,,,,,,,
,,601d7556fe4dfb0d99b3d825,65af52bacbfd19b26dc0c392,2024-01-23_07h46.58.626,bars,2023.2.3,Win32,144.9275362,657b66ea316d21385b68909f,,,,,,,,,,,1589.3386,1590.3373,,,1590.8368,1591.0868,,128,128,,,,,,,,,,,,,,,,bars/004.png,bars/mask005.png,,,,,,,,,,,,4,2,,,,,,,10,5,9,4,,,,,,,,,,,1590.3373,1590.8367,1591.0868,1592.6772,space,1.5847,,1592.6772,77,3,1593.6772,1593.6772,1593.6781,,,,0,3,3,3,1,25,125,,,,,,,,
,,601d7556fe4dfb0d99b3d825,65af52bacbfd19b26dc0c392,2024-01-23_07h46.58.626,bars,2023.2.3,Win32,144.9275362,657b66ea316d21385b68909f,,,,,,,,,,,1593.6784,1594.6773,,,1595.1772,1595.4274,,14,14,,,,,,,,,,,,,,,,bars/020.png,bars/mask008.png,,,,,,,,,,,,2,2,,,,,,,10,7,10,8,,,,,,,,,,,1594.6773,1595.1772,1595.4275,1597.851,space,2.4198,,1597.851,79,24,1598.8512,1598.8512,1598.8599,,,,0,4,4,4,1,115,170,,,,,,,,
,,601d7556fe4dfb0d99b3d825,65af52bacbfd19b26dc0c392,2024-01-23_07h46.58.626,bars,2023.2.3,Win32,144.9275362,657b66ea316d21385b68909f,,,,,,,,,,,1598.86,1599.8582,,,1600.3582,1600.608,,144,144,,,,,,,,,,,,,,,,bars/016.png,bars/mask005.png,,,,,,,,,,,,2,2,,,,,,,10,5,10,6,,,,,,,,,,,1599.8583,1600.3581,1600.6081,1601.4421,space,0.8271,,1601.4421,76,21,1602.4416,1602.4416,1602.4424,,,,0,5,5,5,1,40,165,,,,,,,,
,,601d7556fe4dfb0d99b3d825,65af52bacbfd19b26dc0c392,2024-01-23_07h46.58.626,bars,2023.2.3,Win32,144.9275362,657b66ea316d21385b68909f,,,,,,,,,,,1602.4426,1603.4415,,,1603.9418,1604.1916,,139,139,,,,,,,,,,,,,,,,bars/003.png,bars/mask002.png,,,,,,,,,,,,7,2,,,,,,,10,7,10,7,,,,,,,,,,,1603.4416,1603.9417,1604.1916,1605.4976,space,1.2997,,1605.4976,66,1,1606.4972,1606.4973,1606.5062,,,,0,6,6,6,1,25,140,,,,,,,,
,,601d7556fe4dfb0d99b3d825,65af52bacbfd19b26dc0c392,2024-01-23_07h46.58.626,bars,2023.2.3,Win32,144.9275362,657b66ea316d21385b68909f,,,,,,,,,,,1606.5064,1607.5043,,,1608.0043,1608.2544,,75,75,,,,,,,,,,,,,,,,bars/011.png,bars/mask005.png,,,,,,,,,,,,5,2,,,,,,,10,5,9,7,,,,,,,,,,,1607.5043,1608.0043,1608.2544,1610.2687,space,2.0088,,1610.2687,85,10,1611.2684,1611.2684,1611.2771,,,,0,7,7,7,1,160,85,,,,,,,,
,,601d7556fe4dfb0d99b3d825,65af52bacbfd19b26dc0c392,2024-01-23_07h46.58.626,bars,2023.2.3,Win32,144.9275362,657b66ea316d21385b68909f,,,,,,,,,,,1611.2774,1612.2756,,,1612.7756,1613.0257,,137,-43,,,,,,,,,,,,,,,,bars/023.png,bars/mask009.png,,,,,,,,,,,,1,2,,,,,,,8,3,9,3,,,,,,,,,,,1612.2757,1612.7756,1613.0257,1617.2276,space,4.2,,1617.2277,63,22,1618.2271,1618.2271,1618.2363,,,,0,8,8,8,1,20,115,,,,,,,,
,,601d7556fe4dfb0d99b3d825,65af52bacbfd19b26dc0c392,2024-01-23_07h46.58.626,bars,2023.2.3,Win32,144.9275362,657b66ea316d21385b68909f,,,,,,,,,,,1618.2365,1619.2344,,,1619.7343,1619.9841,,34,34,,,,,,,,,,,,,,,,bars/022.png,bars/mask000.png,,,,,,,,,,,,0,2,,,,,,,6,1,7,0,,,,,,,,,,,1619.2345,1619.7343,1619.9842,1622.0541,space,2.0653,,1622.0541,61,14,1623.0538,1623.0538,1623.063,,,,0,9,9,9,1,95,20,,,,,,,,
,,601d7556fe4dfb0d99b3d825,65af52bacbfd19b26dc0c392,2024-01-23_07h46.58.626,bars,2023.2.3,Win32,144.9275362,657b66ea316d21385b68909f,,,,,,,,,,,1623.0632,1624.061,,,1624.5609,1624.8109,,109,109,,,,,,,,,,,,,,,,bars/006.png,bars/mask002.png,,,,,,,,,,,,3,2,,,,,,,4,3,5,4,,,,,,,,,,,1624.0611,1624.5608,1624.8109,1627.1097,space,2.2921,,1627.1097,74,9,1628.1097,1628.1097,1628.1106,,,,0,10,10,10,1,35,100,,,,,,,,
,,601d7556fe4dfb0d99b3d825,65af52bacbfd19b26dc0c392,2024-01-23_07h46.58.626,bars,2023.2.3,Win32,144.9275362,657b66ea316d21385b68909f,,,,,,,,,,,1628.1109,1629.1096,,,1629.6098,1629.8597,,31,31,,,,,,,,,,,,,,,,bars/031.png,bars/mask001.png,,,,,,,,,,,,0,2,,,,,,,6,1,5,0,,,,,,,,,,,1629.1097,1629.6097,1629.8598,1631.1653,space,1.2995,,1631.1654,89,4,1632.1655,1632.1655,1632.1663,,,,0,11,11,11,1,120,35,,,,,,,,
,,601d7556fe4dfb0d99b3d825,65af52bacbfd19b26dc0c392,2024-01-23_07h46.58.626,bars,2023.2.3,Win32,144.9275362,657b66ea316d21385b68909f,,,,,,,,,,,1632.1666,1633.1656,,,1633.6657,1633.9157,,33,33,,,,,,,,,,,,,,,,bars/006.png,bars/mask000.png,,,,,,,,,,,,8,1,,,,,,,8,0,9,1,,,,,,,,,,,1633.1656,1633.6657,1633.9157,1636.0895,space,2.168,,1636.0896,2,67,1637.0894,1637.0894,1637.0989,,,,0,12,12,12,1,35,100,,,,,,,,
,,601d7556fe4dfb0d99b3d825,65af52bacbfd19b26dc0c392,2024-01-23_07h46.58.626,bars,2023.2.3,Win32,144.9275362,657b66ea316d21385b68909f,,,,,,,,,,,1637.099,1638.0963,,,1638.5966,1638.8463,,151,151,,,,,,,,,,,,,,,,bars/002.png,bars/mask002.png,,,,,,,,,,,,2,1,,,,,,,10,0,8,0,,,,,,,,,,,1638.0963,1638.5966,1638.8463,1643.3191,space,4.4652,,1643.3191,21,66,1644.3188,1644.3188,1644.3278,,,,0,13,13,13,1,130,85,,,,,,,,
,,601d7556fe4dfb0d99b3d825,65af52bacbfd19b26dc0c392,2024-01-23_07h46.58.626,bars,2023.2.3,Win32,144.9275362,657b66ea316d21385b68909f,,,,,,,,,,,1644.3279,1645.326,,,1645.826,1646.076,,26,26,,,,,,,,,,,,,,,,bars/006.png,bars/mask000.png,,,,,,,,,,,,6,1,,,,,,,8,0,9,0,,,,,,,,,,,1645.3261,1645.8259,1646.0761,1647.5762,space,1.4935,,1647.5762,9,74,1648.5761,1648.5761,1648.5847,,,,0,14,14,14,1,35,100,,,,,,,,
,,601d7556fe4dfb0d99b3d825,65af52bacbfd19b26dc0c392,2024-01-23_07h46.58.626,bars,2023.2.3,Win32,144.9275362,657b66ea316d21385b68909f,,,,,,,,,,,1648.585,1649.5834,,,1650.0832,1650.333,,114,114,,,,,,,,,,,,,,,,bars/032.png,bars/mask006.png,,,,,,,,,,,,3,1,,,,,,,6,0,5,1,,,,,,,,,,,1649.5835,1650.0832,1650.333,1651.4721,space,1.1365,,1651.4721,11,86,1652.4721,1652.4722,1652.4813,,,,0,15,15,15,1,125,20,,,,,,,,
,,601d7556fe4dfb0d99b3d825,65af52bacbfd19b26dc0c392,2024-01-23_07h46.58.626,bars,2023.2.3,Win32,144.9275362,657b66ea316d21385b68909f,,,,,,,,,,,1652.4813,1653.4791,,,1653.9794,1654.2293,,37,37,,,,,,,,,,,,,,,,bars/026.png,bars/mask005.png,,,,,,,,,,,,3,1,,,,,,,4,2,3,2,,,,,,,,,,,1653.4793,1653.9793,1654.2293,1655.4238,space,1.1924,,1655.4238,2,48,1656.4237,1656.4237,1656.4325,,,,0,16,16,16,1,35,85,,,,,,,,
,,601d7556fe4dfb0d99b3d825,65af52bacbfd19b26dc0c392,2024-01-23_07h46.58.626,bars,2023.2.3,Win32,144.9275362,657b66ea316d21385b68909f,,,,,,,,,,,1656.4327,1657.4307,,,1657.9308,1658.1808,,157,157,,,,,,,,,,,,,,,,bars/037.png,bars/mask005.png,,,,,,,,,,,,3,1,,,,,,,2,0,4,1,,,,,,,,,,,1657.4307,1657.9308,1658.1808,1659.6671,space,1.4828,,1659.6672,7,52,1660.667,1660.667,1660.6758,,,,0,17,17,17,1,150,105,,,,,,,,
,,601d7556fe4dfb0d99b3d825,65af52bacbfd19b26dc0c392,2024-01-23_07h46.58.626,bars,2023.2.3,Win32,144.9275362,657b66ea316d21385b68909f,,,,,,,,,,,1660.676,1661.6741,,,1662.1739,1662.4241,,52,52,,,,,,,,,,,,,,,,bars/004.png,bars/mask004.png,,,,,,,,,,,,0,1,,,,,,,0,0,1,1,,,,,,,,,,,1661.6741,1662.1739,1662.4242,1664.1742,space,1.747,,1664.1743,27,73,1665.1743,1665.1743,1665.1828,,,,0,18,18,18,1,25,125,,,,,,,,
,,601d7556fe4dfb0d99b3d825,65af52bacbfd19b26dc0c392,2024-01-23_07h46.58.626,bars,2023.2.3,Win32,144.9275362,657b66ea316d21385b68909f,,,,,,,,,,,1665.1829,1666.1816,,,1666.6814,1666.9312,,132,-48,,,,,,,,,,,,,,,,bars/017.png,bars/mask008.png,,,,,,,,,,,,2,1,,,,,,,2,0,3,0,,,,,,,,,,,1666.1816,1666.6813,1666.9313,1669.876,space,2.9374,,1669.8761,13,87,1670.8759,1670.876,1670.8848,,,,0,19,19,19,1,145,45,,,,,,,,
,,601d7556fe4dfb0d99b3d825,65af52bacbfd19b26dc0c392,2024-01-23_07h46.58.626,bars,2023.2.3,Win32,144.9275362,657b66ea316d21385b68909f,,,,,,,,,,,1670.8851,1671.8829,,,1672.3829,1672.6332,,149,149,,,,,,,,,,,,,,,,bars/000.png,bars/mask003.png,,,,,,,,,,,,1,2,,,,,,,4,2,2,1,,,,,,,,,,,1671.883,1672.3829,1672.6333,1675.3069,space,2.6674,,1675.307,71,4,1676.3068,1676.3068,1676.3164,,,,0,20,20,20,1,40,145,,,,,,,,
,,601d7556fe4dfb0d99b3d825,65af52bacbfd19b26dc0c392,2024-01-23_07h46.58.626,bars,2023.2.3,Win32,144.9275362,657b66ea316d21385b68909f,,,,,,,,,,,1676.3165,1677.3139,,,1677.814,1678.0636,,138,-42,,,,,,,,,,,,,,,,bars/049.png,bars/mask004.png,,,,,,,,,,,,1,1,,,,,,,2,4,4,4,,,,,,,,,,,1677.3139,1677.8138,1678.0637,1680.328,space,2.2595,,1680.3281,22,23,1681.3278,1681.3278,1681.3377,,,,0,21,21,21,1,160,115,,,,,,,,
,,601d7556fe4dfb0d99b3d825,65af52bacbfd19b26dc0c392,2024-01-23_07h46.58.626,bars,2023.2.3,Win32,144.9275362,657b66ea316d21385b68909f,,,,,,,,,,,1681.3379,1682.3349,,,1682.8349,1683.085,,20,200,,,,,,,,,,,,,,,,bars/008.png,bars/mask008.png,,,,,,,,,,,,1,2,,,,,,,0,2,0,2,,,,,,,,,,,1682.3349,1682.8348,1683.085,1686.12,space,3.0304,,1686.12,90,20,1687.1198,1687.1198,1687.1293,,,,0,22,22,22,1,110,0,,,,,,,,
,,601d7556fe4dfb0d99b3d825,65af52bacbfd19b26dc0c392,2024-01-23_07h46.58.626,bars,2023.2.3,Win32,144.9275362,657b66ea316d21385b68909f,,,,,,,,,,,1687.1295,1688.1267,,,1688.6269,1688.877,,96,96,,,,,,,,,,,,,,,,bars/045.png,bars/mask009.png,,,,,,,,,,,,3,1,,,,,,,2,0,3,0,,,,,,,,,,,1688.1267,1688.6268,1688.8771,1690.7868,space,1.9035,,1690.7868,4,86,1691.7867,1691.7868,1691.7883,,,,0,23,23,23,1,100,10,,,,,,,,
,,601d7556fe4dfb0d99b3d825,65af52bacbfd19b26dc0c392,2024-01-23_07h46.58.626,bars,2023.2.3,Win32,144.9275362,657b66ea316d21385b68909f,,,,,,,,,,,1691.7885,1692.7868,,,1693.287,1693.5369,,32,32,,,,,,,,,,,,,,,,bars/028.png,bars/mask007.png,,,,,,,,,,,,0,1,,,,,,,0,2,0,3,,,,,,,,,,,1692.7869,1693.287,1693.537,1696.7871,space,3.2447,,1696.7871,13,88,1697.7871,1697.7872,1697.7961,,,,0,24,24,24,1,45,120,,,,,,,,
,,601d7556fe4dfb0d99b3d825,65af52bacbfd19b26dc0c392,2024-01-23_07h46.58.626,bars,2023.2.3,Win32,144.9275362,657b66ea316d21385b68909f,,,,,,,,,,,1697.7962,1698.7945,,,1699.2942,1699.5442,,134,134,,,,,,,,,,,,,,,,bars/034.png,bars/mask008.png,,,,,,,,,,,,0,1,,,,,,,0,4,0,4,,,,,,,,,,,1698.7945,1699.2942,1699.5442,1702.2666,space,2.7193,,1702.2666,9,69,1703.2665,1703.2665,1703.2753,,,,0,25,25,25,1,125,65,,,,,,,,
,,601d7556fe4dfb0d99b3d825,65af52bacbfd19b26dc0c392,2024-01-23_07h46.58.626,bars,2023.2.3,Win32,144.9275362,657b66ea316d21385b68909f,,,,,,,,,,,1703.2754,1704.2737,,,1704.7737,1705.0236,,62,62,,,,,,,,,,,,,,,,bars/027.png,bars/mask002.png,,,,,,,,,,,,1,2,,,,,,,2,2,4,1,,,,,,,,,,,1704.2737,1704.7737,1705.0237,1707.0446,space,2.0157,,1707.0446,48,12,1708.0446,1708.0447,1708.0462,,,,0,26,26,26,1,110,50,,,,,,,,
,,601d7556fe4dfb0d99b3d825,65af52bacbfd19b26dc0c392,2024-01-23_07h46.58.626,bars,2023.2.3,Win32,144.9275362,657b66ea316d21385b68909f,,,,,,,,,,,1708.0465,1709.0448,,,1709.5448,1709.795,,13,13,,,,,,,,,,,,,,,,bars/032.png,bars/mask008.png,,,,,,,,,,,,3,2,,,,,,,0,4,0,4,,,,,,,,,,,1709.0448,1709.5448,1709.795,1712.2465,space,2.4464,,1712.2465,68,7,1713.2462,1713.2464,1713.2553,,,,0,27,27,27,1,125,20,,,,,,,,
,,601d7556fe4dfb0d99b3d825,65af52bacbfd19b26dc0c392,2024-01-23_07h46.58.626,bars,2023.2.3,Win32,144.9275362,657b66ea316d21385b68909f,,,,,,,,,,,1713.2554,1714.2535,,,1714.7534,1715.0033,,64,64,,,,,,,,,,,,,,,,bars/034.png,bars/mask001.png,,,,,,,,,,,,4,2,,,,,,,0,6,0,4,,,,,,,,,,,1714.2535,1714.7534,1715.0034,1716.6146,space,1.604,,1716.6147,61,1,1717.6146,1717.6147,1717.6155,,,,0,28,28,28,1,125,65,,,,,,,,
,,601d7556fe4dfb0d99b3d825,65af52bacbfd19b26dc0c392,2024-01-23_07h46.58.626,bars,2023.2.3,Win32,144.9275362,657b66ea316d21385b68909f,,,,,,,,,,,1717.6158,1718.6146,,,1719.1148,1719.3648,,20,20,,,,,,,,,,,,,,,,bars/032.png,bars/mask001.png,,,,,,,,,,,,8,2,,,,,,,2,8,2,8,,,,,,,,,,,1718.6146,1719.1147,1719.3648,1720.6845,space,1.313,,1720.6846,75,0,1721.6842,1721.6843,1721.685,,,,0,29,29,29,1,125,20,,,,,,,,
,,601d7556fe4dfb0d99b3d825,65af52bacbfd19b26dc0c392,2024-01-23_07h46.58.626,bars,2023.2.3,Win32,144.9275362,657b66ea316d21385b68909f,,,,,,,,,,,1721.6853,1722.6844,,,1723.1845,1723.4344,,66,66,,,,,,,,,,,,,,,,bars/011.png,bars/mask004.png,,,,,,,,,,,,3,2,,,,,,,4,10,5,9,,,,,,,,,,,1722.6844,1723.1844,1723.4344,1725.6362,space,2.1949,,1725.6362,86,19,1726.6361,1726.6362,1726.6452,,,,0,30,30,30,1,160,85,,,,,,,,
,,601d7556fe4dfb0d99b3d825,65af52bacbfd19b26dc0c392,2024-01-23_07h46.58.626,bars,2023.2.3,Win32,144.9275362,657b66ea316d21385b68909f,,,,,,,,,,,1726.6454,1727.643,,,1728.1433,1728.3929,,72,72,,,,,,,,,,,,,,,,bars/038.png,bars/mask000.png,,,,,,,,,,,,9,2,,,,,,,2,10,3,10,,,,,,,,,,,1727.6434,1728.1432,1728.3929,1729.664,space,1.2667,,1729.664,87,2,1730.6639,1730.664,1730.6728,,,,0,31,31,31,1,165,70,,,,,,,,
,,601d7556fe4dfb0d99b3d825,65af52bacbfd19b26dc0c392,2024-01-23_07h46.58.626,bars,2023.2.3,Win32,144.9275362,657b66ea316d21385b68909f,,,,,,,,,,,1730.673,1731.671,,,1732.171,1732.421,,170,-10,,,,,,,,,,,,,,,,bars/020.png,bars/mask000.png,,,,,,,,,,,,7,2,,,,,,,4,8,4,7,,,,,,,,,,,1731.6711,1732.171,1732.4211,1735.685,space,3.2607,,1735.685,55,0,1736.6852,1736.6852,1736.6944,,,,0,32,32,32,1,115,170,,,,,,,,
,,601d7556fe4dfb0d99b3d825,65af52bacbfd19b26dc0c392,2024-01-23_07h46.58.626,bars,2023.2.3,Win32,144.9275362,657b66ea316d21385b68909f,,,,,,,,,,,1736.6946,1737.6926,,,1738.1922,1738.4422,,89,89,,,,,,,,,,,,,,,,bars/019.png,bars/mask005.png,,,,,,,,,,,,3,2,,,,,,,2,6,2,6,,,,,,,,,,,1737.6927,1738.1922,1738.4422,1739.2133,space,0.7652,,1739.2134,44,16,1740.2132,1740.2133,1740.2141,,,,0,33,33,33,1,45,105,,,,,,,,
,,601d7556fe4dfb0d99b3d825,65af52bacbfd19b26dc0c392,2024-01-23_07h46.58.626,bars,2023.2.3,Win32,144.9275362,657b66ea316d21385b68909f,,,,,,,,,,,1740.2144,1741.2134,,,1741.7134,1741.9632,,136,136,,,,,,,,,,,,,,,,bars/037.png,bars/mask005.png,,,,,,,,,,,,0,1,,,,,,,0,4,0,1,,,,,,,,,,,1741.2134,1741.7133,1741.9633,1743.6786,space,1.7124,,1743.6788,14,31,1744.6788,1744.6789,1744.6882,,,,0,34,34,34,1,150,105,,,,,,,,
,,601d7556fe4dfb0d99b3d825,65af52bacbfd19b26dc0c392,2024-01-23_07h46.58.626,bars,2023.2.3,Win32,144.9275362,657b66ea316d21385b68909f,,,,,,,,,,,1744.6884,1745.6858,,,1746.1856,1746.4357,,139,-41,,,,,,,,,,,,,,,,bars/028.png,bars/mask004.png,,,,,,,,,,,,1,2,,,,,,,2,2,2,2,,,,,,,,,,,1745.6858,1746.1856,1746.4357,1749.7832,space,3.3415,,1749.7832,86,19,1750.7831,1750.7833,1750.7932,,,,0,35,35,35,1,45,120,,,,,,,,
,,601d7556fe4dfb0d99b3d825,65af52bacbfd19b26dc0c392,2024-01-23_07h46.58.626,bars,2023.2.3,Win32,144.9275362,657b66ea316d21385b68909f,,,,,,,,,,,1750.7933,1751.7902,,,1752.2903,1752.5407,,81,81,,,,,,,,,,,,,,,,bars/046.png,bars/mask002.png,,,,,,,,,,,,1,2,,,,,,,0,0,0,1,,,,,,,,,,,1751.7902,1752.2902,1752.5407,1754.2209,space,1.6746,,1754.2209,74,4,1755.2209,1755.2209,1755.2217,,,,0,36,36,36,1,155,85,,,,,,,,
,,601d7556fe4dfb0d99b3d825,65af52bacbfd19b26dc0c392,2024-01-23_07h46.58.626,bars,2023.2.3,Win32,144.9275362,657b66ea316d21385b68909f,,,,,,,,,,,1755.2219,1756.221,,,1756.7209,1756.9709,,173,173,,,,,,,,,,,,,,,,bars/035.png,bars/mask006.png,,,,,,,,,,,,2,1,,,,,,,2,2,2,1,,,,,,,,,,,1756.2211,1756.7208,1756.971,1760.8046,space,3.8309,,1760.8047,2,67,1761.8046,1761.8046,1761.8139,,,,0,37,37,37,1,175,60,,,,,,,,
,,601d7556fe4dfb0d99b3d825,65af52bacbfd19b26dc0c392,2024-01-23_07h46.58.626,bars,2023.2.3,Win32,144.9275362,657b66ea316d21385b68909f,,,,,,,,,,,1761.8141,1762.8116,,,1763.3117,1763.5616,,141,141,,,,,,,,,,,,,,,,bars/036.png,bars/mask000.png,,,,,,,,,,,,3,1,,,,,,,4,0,3,0,,,,,,,,,,,1762.8116,1763.3115,1763.5617,1766.041,space,2.4738,,1766.0411,4,59,1767.0411,1767.0411,1767.0501,,,,0,38,38,38,1,145,20,,,,,,,,
,,601d7556fe4dfb0d99b3d825,65af52bacbfd19b26dc0c392,2024-01-23_07h46.58.626,bars,2023.2.3,Win32,144.9275362,657b66ea316d21385b68909f,,,,,,,,,,,1767.0502,1768.048,,,1768.5481,1768.798,,126,126,,,,,,,,,,,,,,,,bars/031.png,bars/mask008.png,,,,,,,,,,,,2,1,,,,,,,2,2,3,1,,,,,,,,,,,1768.0482,1768.5481,1768.7981,1770.4023,space,1.6011,,1770.4023,6,89,1771.4029,1771.4029,1771.4038,,,,0,39,39,39,1,120,35,,,,,,,,
,,601d7556fe4dfb0d99b3d825,65af52bacbfd19b26dc0c392,2024-01-23_07h46.58.626,bars,2023.2.3,Win32,144.9275362,657b66ea316d21385b68909f,,,,,,,,,,,1771.4041,1772.4024,,,1772.9025,1773.1525,,28,28,,,,,,,,,,,,,,,,bars/006.png,bars/mask007.png,,,,,,,,,,,,0,1,,,,,,,0,0,0,0,,,,,,,,,,,1772.4024,1772.9024,1773.1526,1774.611,space,1.4548,,1774.6111,7,72,1775.6109,1775.6109,1775.6116,,,,0,40,40,40,1,35,100,,,,,,,,
,,601d7556fe4dfb0d99b3d825,65af52bacbfd19b26dc0c392,2024-01-23_07h46.58.626,bars,2023.2.3,Win32,144.9275362,657b66ea316d21385b68909f,,,,,,,,,,,1775.6118,1776.6109,,,1777.1112,1777.361,,167,-13,,,,,,,,,,,,,,,,bars/008.png,bars/mask000.png,,,,,,,,,,,,0,2,,,,,,,2,0,2,0,,,,,,,,,,,1776.611,1777.1112,1777.3611,1780.5626,space,3.197,,1780.5626,57,13,1781.5627,1781.5628,1781.5724,,,,0,41,41,41,1,110,0,,,,,,,,
,,601d7556fe4dfb0d99b3d825,65af52bacbfd19b26dc0c392,2024-01-23_07h46.58.626,bars,2023.2.3,Win32,144.9275362,657b66ea316d21385b68909f,,,,,,,,,,,1781.5726,1782.5698,,,1783.0697,1783.3199,,17,17,,,,,,,,,,,,,,,,bars/005.png,bars/mask003.png,,,,,,,,,,,,1,1,,,,,,,0,2,1,0,,,,,,,,,,,1782.5698,1783.0697,1783.3199,1785.4032,space,2.08,,1785.4037,7,57,1786.4031,1786.4031,1786.4126,,,,0,42,42,42,1,10,140,,,,,,,,
,,601d7556fe4dfb0d99b3d825,65af52bacbfd19b26dc0c392,2024-01-23_07h46.58.626,bars,2023.2.3,Win32,144.9275362,657b66ea316d21385b68909f,,,,,,,,,,,1786.4127,1787.4101,,,1787.9102,1788.1606,,155,155,,,,,,,,,,,,,,,,bars/018.png,bars/mask008.png,,,,,,,,,,,,0,1,,,,,,,0,0,0,0,,,,,,,,,,,1787.4102,1787.9102,1788.1607,1790.8479,space,2.685,,1790.848,5,65,1791.848,1791.848,1791.8568,,,,0,43,43,43,1,150,90,,,,,,,,
,,601d7556fe4dfb0d99b3d825,65af52bacbfd19b26dc0c392,2024-01-23_07h46.58.626,bars,2023.2.3,Win32,144.9275362,657b66ea316d21385b68909f,,,,,,,,,,,1791.8569,1792.8556,,,1793.355,1793.605,,51,51,,,,,,,,,,,,,,,,bars/026.png,bars/mask006.png,,,,,,,,,,,,0,1,,,,,,,2,0,0,1,,,,,,,,,,,1792.8556,1793.355,1793.605,1797.0635,space,3.4544,,1797.0635,16,34,1798.0636,1798.0636,1798.0725,,,,0,44,44,44,1,35,85,,,,,,,,
,,601d7556fe4dfb0d99b3d825,65af52bacbfd19b26dc0c392,2024-01-23_07h46.58.626,bars,2023.2.3,Win32,144.9275362,657b66ea316d21385b68909f,,,,,,,,,,,1798.0727,1799.0705,,,1799.5705,1799.8206,,36,36,,,,,,,,,,,,,,,,bars/025.png,bars/mask003.png,,,,,,,,,,,,2,2,,,,,,,0,2,1,2,,,,,,,,,,,1799.0706,1799.5705,1799.8206,1801.3832,space,1.5586,,1801.3832,69,4,1802.3832,1802.3832,1802.3929,,,,0,45,45,45,1,105,40,,,,,,,,
,,601d7556fe4dfb0d99b3d825,65af52bacbfd19b26dc0c392,2024-01-23_07h46.58.626,bars,2023.2.3,Win32,144.9275362,657b66ea316d21385b68909f,,,,,,,,,,,1802.3931,1803.3902,,,1803.8904,1804.1404,,31,31,,,,,,,,,,,,,,,,bars/022.png,bars/mask003.png,,,,,,,,,,,,3,2,,,,,,,0,4,1,5,,,,,,,,,,,1803.3902,1803.8903,1804.1404,1805.974,space,1.8267,,1805.974,64,11,1806.9737,1806.9737,1806.9831,,,,0,46,46,46,1,95,20,,,,,,,,
,,601d7556fe4dfb0d99b3d825,65af52bacbfd19b26dc0c392,2024-01-23_07h46.58.626,bars,2023.2.3,Win32,144.9275362,657b66ea316d21385b68909f,,,,,,,,,,,1806.9832,1807.9811,,,1808.481,1808.7311,,70,70,,,,,,,,,,,,,,,,bars/017.png,bars/mask001.png,,,,,,,,,,,,0,2,,,,,,,0,2,0,2,,,,,,,,,,,1807.9811,1808.481,1808.7311,1812.4742,space,3.7404,,1812.4742,75,25,1813.4742,1813.4742,1813.4834,,,,0,47,47,47,1,145,45,,,,,,,,
,,601d7556fe4dfb0d99b3d825,65af52bacbfd19b26dc0c392,2024-01-23_07h46.58.626,bars,2023.2.3,Win32,144.9275362,657b66ea316d21385b68909f,,,,,,,,,,,1813.4835,1814.4815,,,1814.9813,1815.2312,,164,-16,,,,,,,,,,,,,,,,bars/044.png,bars/mask009.png,,,,,,,,,,,,0,2,,,,,,,0,0,1,0,,,,,,,,,,,1814.4816,1814.9813,1815.2313,1818.2523,space,3.0149,,1818.2523,89,9,1819.2522,1819.2523,1819.2613,,,,0,48,48,48,1,75,155,,,,,,,,
,,601d7556fe4dfb0d99b3d825,65af52bacbfd19b26dc0c392,2024-01-23_07h46.58.626,bars,2023.2.3,Win32,144.9275362,657b66ea316d21385b68909f,,,,,,,,,,,1819.2615,1820.2592,,,1820.7593,1821.0094,,123,123,,,,,,,,,,,,,,,,bars/032.png,bars/mask001.png,,,,,,,,,,,,4,1,,,,,,,2,2,4,1,,,,,,,,,,,1820.2592,1820.7593,1821.0094,1822.9122,space,1.8978,,1822.9122,2,77,1823.9122,1823.9123,1823.9138,,,,0,49,49,49,1,125,20,,,,,,,,
,,601d7556fe4dfb0d99b3d825,65af52bacbfd19b26dc0c392,2024-01-23_07h46.58.626,bars,2023.2.3,Win32,144.9275362,657b66ea316d21385b68909f,,,,,,,,,,,,,,,,,,,,,,,,,,,,,,,,,,,,,,,,,,,,,,,,,,,,,,,,,,,,,,,,,,,,,,,,,,,,,,,,,,,,,,,,,,,,,1823.914,1864.5543,0,2,2,0,1,sequence_tables/blk044.csv
,,601d7556fe4dfb0d99b3d825,65af52bacbfd19b26dc0c392,2024-01-23_07h46.58.626,bars,2023.2.3,Win32,144.9275362,657b66ea316d21385b68909f,,,,,,,,,,,1882.0536,1883.0476,,,1883.5408,1883.7906,,102,102,,,,,,,,,,,,,,,,bars/001.png,bars/mask001.png,,,,,,,,,,,,4,2,,,,,,,1,9,1,9,,,,,,1864.5648,1882.0407,space,17.4628,,1883.0476,1883.5408,1883.7907,1885.2561,space,1.4627,,1885.2561,28,17,1886.2562,1886.2563,1886.266,,,,0,0,0,0,1,130,85,,,,,,,,
,,601d7556fe4dfb0d99b3d825,65af52bacbfd19b26dc0c392,2024-01-23_07h46.58.626,bars,2023.2.3,Win32,144.9275362,657b66ea316d21385b68909f,,,,,,,,,,,1886.2661,1887.263,,,1887.7631,1888.013,,145,-35,,,,,,,,,,,,,,,,bars/004.png,bars/mask006.png,,,,,,,,,,,,3,2,,,,,,,0,10,1,10,,,,,,,,,,,1887.263,1887.7631,1888.013,1890.3049,space,2.2884,,1890.305,60,20,1891.3048,1891.3049,1891.3138,,,,0,1,1,1,1,25,125,,,,,,,,
,,601d7556fe4dfb0d99b3d825,65af52bacbfd19b26dc0c392,2024-01-23_07h46.58.626,bars,2023.2.3,Win32,144.9275362,657b66ea316d21385b68909f,,,,,,,,,,,1891.3139,1892.3121,,,1892.812,1893.062,,75,75,,,,,,,,,,,,,,,,bars/030.png,bars/mask002.png,,,,,,,,,,,,5,2,,,,,,,0,8,0,8,,,,,,,,,,,1892.3122,1892.812,1893.0621,1895.3538,space,2.2854,,1895.3539,65,10,1896.3538,1896.3538,1896.3627,,,,0,2,2,2,1,140,65,,,,,,,,
,,601d7556fe4dfb0d99b3d825,65af52bacbfd19b26dc0c392,2024-01-23_07h46.58.626,bars,2023.2.3,Win32,144.9275362,657b66ea316d21385b68909f,,,,,,,,,,,1896.3629,1897.361,,,1897.8608,1898.1107,,95,95,,,,,,,,,,,,,,,,bars/011.png,bars/mask006.png,,,,,,,,,,,,6,2,,,,,,,2,10,1,9,,,,,,,,,,,1897.3612,1897.8608,1898.1107,1899.7637,space,1.6463,,1899.7638,65,10,1900.7639,1900.7639,1900.7725,,,,0,3,3,3,1,160,85,,,,,,,,
,,601d7556fe4dfb0d99b3d825,65af52bacbfd19b26dc0c392,2024-01-23_07h46.58.626,bars,2023.2.3,Win32,144.9275362,657b66ea316d21385b68909f,,,,,,,,,,,1900.7727,1901.7706,,,1902.2712,1902.5207,,158,-22,,,,,,,,,,,,,,,,bars/044.png,bars/mask007.png,,,,,,,,,,,,9,2,,,,,,,0,10,0,10,,,,,,,,,,,1901.7707,1902.2711,1902.5207,1906.7086,space,4.1849,,1906.7087,83,3,1907.7086,1907.7086,1907.7174,,,,0,4,4,4,1,75,155,,,,,,,,
,,601d7556fe4dfb0d99b3d825,65af52bacbfd19b26dc0c392,2024-01-23_07h46.58.626,bars,2023.2.3,Win32,144.9275362,657b66ea316d21385b68909f,,,,,,,,,,,1907.7176,1908.7156,,,1909.2155,1909.4657,,93,93,,,,,,,,,,,,,,,,bars/041.png,bars/mask007.png,,,,,,,,,,,,7,2,,,,,,,0,10,1,9,,,,,,,,,,,1908.7157,1909.2155,1909.4657,1911.6952,space,2.2242,,1911.6952,73,8,1912.695,1912.695,1912.704,,,,0,5,5,5,1,20,85,,,,,,,,
,,601d7556fe4dfb0d99b3d825,65af52bacbfd19b26dc0c392,2024-01-23_07h46.58.626,bars,2023.2.3,Win32,144.9275362,657b66ea316d21385b68909f,,,,,,,,,,,1912.7041,1913.7021,,,1914.2019,1914.4521,,162,162,,,,,,,,,,,,,,,,bars/015.png,bars/mask009.png,,,,,,,,,,,,8,2,,,,,,,2,10,2,9,,,,,,,,,,,1913.7021,1914.2019,1914.4521,1915.7367,space,1.2778,,1915.7367,52,2,1916.7368,1916.7369,1916.7376,,,,0,6,6,6,1,110,160,,,,,,,,
,,601d7556fe4dfb0d99b3d825,65af52bacbfd19b26dc0c392,2024-01-23_07h46.58.626,bars,2023.2.3,Win32,144.9275362,657b66ea316d21385b68909f,,,,,,,,,,,1916.7379,1917.7369,,,1918.2369,1918.4869,,173,173,,,,,,,,,,,,,,,,bars/015.png,bars/mask004.png,,,,,,,,,,,,5,2,,,,,,,0,8,0,8,,,,,,,,,,,1917.7369,1918.2369,1918.487,1920.8204,space,2.3282,,1920.8204,63,13,1921.8208,1921.8208,1921.8215,,,,0,7,7,7,1,110,160,,,,,,,,
,,601d7556fe4dfb0d99b3d825,65af52bacbfd19b26dc0c392,2024-01-23_07h46.58.626,bars,2023.2.3,Win32,144.9275362,657b66ea316d21385b68909f,,,,,,,,,,,1921.8216,1922.8205,,,1923.3205,1923.5705,,31,31,,,,,,,,,,,,,,,,bars/031.png,bars/mask006.png,,,,,,,,,,,,8,2,,,,,,,0,10,0,9,,,,,,,,,,,1922.8205,1923.3204,1923.5706,1925.0639,space,1.4876,,1925.064,89,4,1926.0638,1926.0638,1926.0646,,,,0,8,8,8,1,120,35,,,,,,,,
,,601d7556fe4dfb0d99b3d825,65af52bacbfd19b26dc0c392,2024-01-23_07h46.58.626,bars,2023.2.3,Win32,144.9275362,657b66ea316d21385b68909f,,,,,,,,,,,1926.065,1927.0638,,,1927.5638,1927.8138,,101,101,,,,,,,,,,,,,,,,bars/037.png,bars/mask008.png,,,,,,,,,,,,9,2,,,,,,,2,10,3,10,,,,,,,,,,,1927.0638,1927.5638,1927.8138,1929.0084,space,1.188,,1929.0084,49,4,1930.0083,1930.0083,1930.0093,,,,0,9,9,9,1,150,105,,,,,,,,
,,601d7556fe4dfb0d99b3d825,65af52bacbfd19b26dc0c392,2024-01-23_07h46.58.626,bars,2023.2.3,Win32,144.9275362,657b66ea316d21385b68909f,,,,,,,,,,,1930.0095,1931.0085,,,1931.5085,1931.7585,,68,68,,,,,,,,,,,,,,,,bars/011.png,bars/mask009.png,,,,,,,,,,,,4,2,,,,,,,4,10,4,10,,,,,,,,,,,1931.0086,1931.5085,1931.7585,1935.8284,space,4.0667,,1935.8284,88,17,1936.8283,1936.8283,1936.8372,,,,0,10,10,10,1,160,85,,,,,,,,
,,601d7556fe4dfb0d99b3d825,65af52bacbfd19b26dc0c392,2024-01-23_07h46.58.626,bars,2023.2.3,Win32,144.9275362,657b66ea316d21385b68909f,,,,,,,,,,,1936.8374,1937.8354,,,1938.3353,1938.5854,,97,97,,,,,,,,,,,,,,,,bars/018.png,bars/mask001.png,,,,,,,,,,,,8,2,,,,,,,2,10,3,10,,,,,,,,,,,1937.8355,1938.3353,1938.5854,1939.3424,space,0.7522,,1939.3424,53,7,1940.3423,1940.3424,1940.3433,,,,0,11,11,11,1,150,90,,,,,,,,
,,601d7556fe4dfb0d99b3d825,65af52bacbfd19b26dc0c392,2024-01-23_07h46.58.626,bars,2023.2.3,Win32,144.9275362,657b66ea316d21385b68909f,,,,,,,,,,,1940.3435,1941.3428,,,1941.8425,1942.0925,,51,51,,,,,,,,,,,,,,,,bars/047.png,bars/mask004.png,,,,,,,,,,,,3,2,,,,,,,4,8,4,8,,,,,,,,,,,1941.3428,1941.8425,1942.0925,1946.1207,space,4.0247,,1946.1207,36,19,1947.1206,1947.1206,1947.1295,,,,0,12,12,12,1,15,70,,,,,,,,
,,601d7556fe4dfb0d99b3d825,65af52bacbfd19b26dc0c392,2024-01-23_07h46.58.626,bars,2023.2.3,Win32,144.9275362,657b66ea316d21385b68909f,,,,,,,,,,,1947.1296,1948.1274,,,1948.6277,1948.8775,,135,-45,,,,,,,,,,,,,,,,bars/004.png,bars/mask008.png,,,,,,,,,,,,6,2,,,,,,,2,10,2,9,,,,,,,,,,,1948.1275,1948.6277,1948.8776,1951.7321,space,2.852,,1951.7321,70,10,1952.732,1952.732,1952.7412,,,,0,13,13,13,1,25,125,,,,,,,,
,,601d7556fe4dfb0d99b3d825,65af52bacbfd19b26dc0c392,2024-01-23_07h46.58.626,bars,2023.2.3,Win32,144.9275362,657b66ea316d21385b68909f,,,,,,,,,,,1952.7415,1953.7395,,,1954.2392,1954.4891,,100,100,,,,,,,,,,,,,,,,bars/009.png,bars/mask007.png,,,,,,,,,,,,8,2,,,,,,,4,10,5,10,,,,,,,,,,,1953.7396,1954.2391,1954.4891,1955.3085,space,0.8124,,1955.3086,85,5,1956.3085,1956.3085,1956.3092,,,,0,14,14,14,1,15,105,,,,,,,,
,,601d7556fe4dfb0d99b3d825,65af52bacbfd19b26dc0c392,2024-01-23_07h46.58.626,bars,2023.2.3,Win32,144.9275362,657b66ea316d21385b68909f,,,,,,,,,,,1956.3096,1957.3084,,,1957.8087,1958.0587,,89,89,,,,,,,,,,,,,,,,bars/021.png,bars/mask002.png,,,,,,,,,,,,3,2,,,,,,,6,8,6,9,,,,,,,,,,,1957.3085,1957.8087,1958.0587,1961.1492,space,3.0843,,1961.1492,66,19,1962.1491,1962.1491,1962.1578,,,,0,15,15,15,1,155,70,,,,,,,,
,,601d7556fe4dfb0d99b3d825,65af52bacbfd19b26dc0c392,2024-01-23_07h46.58.626,bars,2023.2.3,Win32,144.9275362,657b66ea316d21385b68909f,,,,,,,,,,,1962.1581,1963.1562,,,1963.6564,1963.9061,,142,-38,,,,,,,,,,,,,,,,bars/028.png,bars/mask000.png,,,,,,,,,,,,2,2,,,,,,,4,6,3,7,,,,,,,,,,,1963.1562,1963.6564,1963.9061,1966.9139,space,3.0055,,1966.9139,83,22,1967.9133,1967.9133,1967.9229,,,,0,16,16,16,1,45,120,,,,,,,,
,,601d7556fe4dfb0d99b3d825,65af52bacbfd19b26dc0c392,2024-01-23_07h46.58.626,bars,2023.2.3,Win32,144.9275362,657b66ea316d21385b68909f,,,,,,,,,,,1967.9231,1968.9209,,,1969.4205,1969.6703,,31,211,,,,,,,,,,,,,,,,bars/040.png,bars/mask003.png,,,,,,,,,,,,1,2,,,,,,,6,4,7,6,,,,,,,,,,,1968.921,1969.4204,1969.6703,1973.4344,space,3.7609,,1973.4345,71,26,1974.4345,1974.4345,1974.4431,,,,0,17,17,17,1,140,5,,,,,,,,
,,601d7556fe4dfb0d99b3d825,65af52bacbfd19b26dc0c392,2024-01-23_07h46.58.626,bars,2023.2.3,Win32,144.9275362,657b66ea316d21385b68909f,,,,,,,,,,,1974.4432,1975.4415,,,1975.9418,1976.1916,,131,131,,,,,,,,,,,,,,,,bars/018.png,bars/mask005.png,,,,,,,,,,,,3,1,,,,,,,8,2,8,2,,,,,,,,,,,1975.4415,1975.9418,1976.1917,1977.6641,space,1.4654,,1977.6642,19,41,1978.6637,1978.6638,1978.6733,,,,0,18,18,18,1,150,90,,,,,,,,
,,601d7556fe4dfb0d99b3d825,65af52bacbfd19b26dc0c392,2024-01-23_07h46.58.626,bars,2023.2.3,Win32,144.9275362,657b66ea316d21385b68909f,,,,,,,,,,,1978.6734,1979.6708,,,1980.1709,1980.421,,40,40,,,,,,,,,,,,,,,,bars/048.png,bars/mask004.png,,,,,,,,,,,,7,1,,,,,,,10,4,10,3,,,,,,,,,,,1979.6709,1980.1709,1980.421,1983.3518,space,2.9248,,1983.3518,10,45,1984.3517,1984.3517,1984.3604,,,,0,19,19,19,1,50,175,,,,,,,,
,,601d7556fe4dfb0d99b3d825,65af52bacbfd19b26dc0c392,2024-01-23_07h46.58.626,bars,2023.2.3,Win32,144.9275362,657b66ea316d21385b68909f,,,,,,,,,,,1984.3606,1985.3592,,,1985.8588,1986.1088,,118,-62,,,,,,,,,,,,,,,,bars/015.png,bars/mask008.png,,,,,,,,,,,,7,1,,,,,,,10,6,10,6,,,,,,,,,,,1985.3592,1985.8588,1986.1088,1989.0398,space,2.9287,,1989.0398,8,42,1990.0397,1990.0398,1990.0484,,,,0,20,20,20,1,110,160,,,,,,,,
,,601d7556fe4dfb0d99b3d825,65af52bacbfd19b26dc0c392,2024-01-23_07h46.58.626,bars,2023.2.3,Win32,144.9275362,657b66ea316d21385b68909f,,,,,,,,,,,1990.0485,1991.0466,,,1991.5467,1991.7965,,141,141,,,,,,,,,,,,,,,,bars/001.png,bars/mask007.png,,,,,,,,,,,,6,1,,,,,,,10,4,9,4,,,,,,,,,,,1991.0466,1991.5466,1991.7965,1992.7691,space,0.9659,,1992.7692,11,56,1993.7689,1993.7689,1993.77,,,,0,21,21,21,1,130,85,,,,,,,,
,,601d7556fe4dfb0d99b3d825,65af52bacbfd19b26dc0c392,2024-01-23_07h46.58.626,bars,2023.2.3,Win32,144.9275362,657b66ea316d21385b68909f,,,,,,,,,,,1993.7703,1994.7691,,,1995.2691,1995.519,,10,10,,,,,,,,,,,,,,,,bars/023.png,bars/mask008.png,,,,,,,,,,,,7,1,,,,,,,10,6,10,7,,,,,,,,,,,1994.7691,1995.2691,1995.519,1997.1997,space,1.6743,,1997.1998,10,75,1998.1998,1998.1998,1998.2083,,,,0,22,22,22,1,20,115,,,,,,,,
,,601d7556fe4dfb0d99b3d825,65af52bacbfd19b26dc0c392,2024-01-23_07h46.58.626,bars,2023.2.3,Win32,144.9275362,657b66ea316d21385b68909f,,,,,,,,,,,1998.2084,1999.2069,,,1999.7068,1999.9566,,68,68,,,,,,,,,,,,,,,,bars/048.png,bars/mask006.png,,,,,,,,,,,,3,1,,,,,,,8,4,7,4,,,,,,,,,,,1999.2071,1999.7067,1999.9567,2001.5264,space,1.563,,2001.5265,18,73,2002.5263,2002.5263,2002.5351,,,,0,23,23,23,1,50,175,,,,,,,,
,,601d7556fe4dfb0d99b3d825,65af52bacbfd19b26dc0c392,2024-01-23_07h46.58.626,bars,2023.2.3,Win32,144.9275362,657b66ea316d21385b68909f,,,,,,,,,,,2002.5352,2003.5338,,,2004.0337,2004.2834,,158,158,,,,,,,,,,,,,,,,bars/010.png,bars/mask000.png,,,,,,,,,,,,5,1,,,,,,,6,6,6,6,,,,,,,,,,,2003.5338,2004.0336,2004.2836,2007.409,space,3.1197,,2007.409,7,77,2008.4088,2008.4088,2008.4174,,,,0,24,24,24,1,165,55,,,,,,,,
,,601d7556fe4dfb0d99b3d825,65af52bacbfd19b26dc0c392,2024-01-23_07h46.58.626,bars,2023.2.3,Win32,144.9275362,657b66ea316d21385b68909f,,,,,,,,,,,2008.4176,2009.4164,,,2009.9158,2010.1658,,24,204,,,,,,,,,,,,,,,,bars/006.png,bars/mask007.png,,,,,,,,,,,,3,1,,,,,,,4,8,4,8,,,,,,,,,,,2009.4164,2009.9158,2010.1658,2013.2701,space,3.0995,,2013.2702,11,76,2014.2701,2014.2702,2014.2787,,,,0,25,25,25,1,35,100,,,,,,,,
,,601d7556fe4dfb0d99b3d825,65af52bacbfd19b26dc0c392,2024-01-23_07h46.58.626,bars,2023.2.3,Win32,144.9275362,657b66ea316d21385b68909f,,,,,,,,,,,2014.2789,2015.2773,,,2015.7772,2016.027,,148,148,,,,,,,,,,,,,,,,bars/042.png,bars/mask002.png,,,,,,,,,,,,4,1,,,,,,,6,6,4,6,,,,,,,,,,,2015.2773,2015.7771,2016.027,2018.1871,space,2.1538,,2018.1871,3,73,2019.187,2019.187,2019.1959,,,,0,26,26,26,1,145,75,,,,,,,,
,,601d7556fe4dfb0d99b3d825,65af52bacbfd19b26dc0c392,2024-01-23_07h46.58.626,bars,2023.2.3,Win32,144.9275362,657b66ea316d21385b68909f,,,,,,,,,,,2019.1959,2020.1945,,,2020.6941,2020.9441,,39,39,,,,,,,,,,,,,,,,bars/028.png,bars/mask002.png,,,,,,,,,,,,2,1,,,,,,,4,8,3,8,,,,,,,,,,,2020.1945,2020.6941,2020.9441,2021.6177,space,0.6712,,2021.6178,6,81,2022.6178,2022.6178,2022.6185,,,,0,27,27,27,1,45,120,,,,,,,,
,,601d7556fe4dfb0d99b3d825,65af52bacbfd19b26dc0c392,2024-01-23_07h46.58.626,bars,2023.2.3,Win32,144.9275362,657b66ea316d21385b68909f,,,,,,,,,,,2022.6188,2023.6178,,,2024.1184,2024.3678,,106,106,,,,,,,,,,,,,,,,bars/015.png,bars/mask008.png,,,,,,,,,,,,6,1,,,,,,,6,6,7,5,,,,,,,,,,,2023.6179,2024.1184,2024.3679,2025.1597,space,0.7872,,2025.1598,4,54,2026.1595,2026.1596,2026.1604,,,,0,28,28,28,1,110,160,,,,,,,,
,,601d7556fe4dfb0d99b3d825,65af52bacbfd19b26dc0c392,2024-01-23_07h46.58.626,bars,2023.2.3,Win32,144.9275362,657b66ea316d21385b68909f,,,,,,,,,,,2026.1606,2027.1596,,,2027.6598,2027.9097,,128,128,,,,,,,,,,,,,,,,bars/024.png,bars/mask001.png,,,,,,,,,,,,4,1,,,,,,,4,8,5,9,,,,,,,,,,,2027.1596,2027.6598,2027.9097,2030.8475,space,2.9312,,2030.8475,8,42,2031.8475,2031.8475,2031.8561,,,,0,29,29,29,1,120,170,,,,,,,,
,,601d7556fe4dfb0d99b3d825,65af52bacbfd19b26dc0c392,2024-01-23_07h46.58.626,bars,2023.2.3,Win32,144.9275362,657b66ea316d21385b68909f,,,,,,,,,,,2031.8563,2032.8545,,,2033.3546,2033.6047,,118,118,,,,,,,,,,,,,,,,bars/025.png,bars/mask007.png,,,,,,,,,,,,3,1,,,,,,,6,6,5,5,,,,,,,,,,,2032.8546,2033.3546,2033.6047,2036.7506,space,3.1395,,2036.7506,13,78,2037.7507,2037.7507,2037.7605,,,,0,30,30,30,1,105,40,,,,,,,,
,,601d7556fe4dfb0d99b3d825,65af52bacbfd19b26dc0c392,2024-01-23_07h46.58.626,bars,2023.2.3,Win32,144.9275362,657b66ea316d21385b68909f,,,,,,,,,,,2037.7608,2038.7576,,,2039.2578,2039.5077,,127,127,,,,,,,,,,,,,,,,bars/027.png,bars/mask003.png,,,,,,,,,,,,1,1,,,,,,,4,8,3,10,,,,,,,,,,,2038.7577,2039.2577,2039.5078,2041.1188,space,1.6055,,2041.1188,17,77,2042.119,2042.119,2042.1278,,,,0,31,31,31,1,110,50,,,,,,,,
,,601d7556fe4dfb0d99b3d825,65af52bacbfd19b26dc0c392,2024-01-23_07h46.58.626,bars,2023.2.3,Win32,144.9275362,657b66ea316d21385b68909f,,,,,,,,,,,2042.1279,2043.126,,,2043.626,2043.8759,,132,132,,,,,,,,,,,,,,,,bars/028.png,bars/mask008.png,,,,,,,,,,,,4,2,,,,,,,2,6,4,7,,,,,,,,,,,2043.126,2043.626,2043.876,2046.279,space,2.3996,,2046.2791,87,12,2047.2791,2047.2791,2047.2883,,,,0,32,32,32,1,45,120,,,,,,,,
,,601d7556fe4dfb0d99b3d825,65af52bacbfd19b26dc0c392,2024-01-23_07h46.58.626,bars,2023.2.3,Win32,144.9275362,657b66ea316d21385b68909f,,,,,,,,,,,2047.2885,2048.286,,,2048.7861,2049.0359,,90,90,,,,,,,,,,,,,,,,bars/046.png,bars/mask002.png,,,,,,,,,,,,7,2,,,,,,,0,8,0,8,,,,,,,,,,,2048.286,2048.7861,2049.0359,2050.7654,space,1.7236,,2050.7655,65,5,2051.7652,2051.7653,2051.7661,,,,0,33,33,33,1,155,85,,,,,,,,
,,601d7556fe4dfb0d99b3d825,65af52bacbfd19b26dc0c392,2024-01-23_07h46.58.626,bars,2023.2.3,Win32,144.9275362,657b66ea316d21385b68909f,,,,,,,,,,,2051.7663,2052.7653,,,2053.2654,2053.5154,,8,8,,,,,,,,,,,,,,,,bars/014.png,bars/mask009.png,,,,,,,,,,,,5,2,,,,,,,2,6,2,7,,,,,,,,,,,2052.7654,2053.2653,2053.5155,2054.7377,space,1.2205,,2054.7378,72,8,2055.7377,2055.7377,2055.7385,,,,0,34,34,34,1,80,0,,,,,,,,
,,601d7556fe4dfb0d99b3d825,65af52bacbfd19b26dc0c392,2024-01-23_07h46.58.626,bars,2023.2.3,Win32,144.9275362,657b66ea316d21385b68909f,,,,,,,,,,,2055.7386,2056.7376,,,2057.2378,2057.4877,,93,93,,,,,,,,,,,,,,,,bars/002.png,bars/mask004.png,,,,,,,,,,,,3,2,,,,,,,0,4,1,4,,,,,,,,,,,2056.7377,2057.2377,2057.4878,2058.745,space,1.251,,2058.745,37,8,2059.7449,2059.7449,2059.746,,,,0,35,35,35,1,130,85,,,,,,,,
,,601d7556fe4dfb0d99b3d825,65af52bacbfd19b26dc0c392,2024-01-23_07h46.58.626,bars,2023.2.3,Win32,144.9275362,657b66ea316d21385b68909f,,,,,,,,,,,2059.7462,2060.7451,,,2061.245,2061.495,,91,91,,,,,,,,,,,,,,,,bars/046.png,bars/mask008.png,,,,,,,,,,,,3,2,,,,,,,0,6,0,4,,,,,,,,,,,2060.7452,2061.245,2061.4951,2065.3355,space,3.8343,,2065.3355,64,6,2066.3356,2066.3356,2066.3445,,,,0,36,36,36,1,155,85,,,,,,,,
,,601d7556fe4dfb0d99b3d825,65af52bacbfd19b26dc0c392,2024-01-23_07h46.58.626,bars,2023.2.3,Win32,144.9275362,657b66ea316d21385b68909f,,,,,,,,,,,2066.3447,2067.3426,,,2067.8427,2068.0925,,167,167,,,,,,,,,,,,,,,,bars/044.png,bars/mask001.png,,,,,,,,,,,,3,2,,,,,,,2,4,2,5,,,,,,,,,,,2067.3426,2067.8427,2068.0926,2071.1899,space,3.0952,,2071.19,88,12,2072.19,2072.1901,2072.1988,,,,0,37,37,37,1,75,155,,,,,,,,
,,601d7556fe4dfb0d99b3d825,65af52bacbfd19b26dc0c392,2024-01-23_07h46.58.626,bars,2023.2.3,Win32,144.9275362,657b66ea316d21385b68909f,,,,,,,,,,,2072.199,2073.197,,,2073.697,2073.9469,,80,80,,,,,,,,,,,,,,,,bars/038.png,bars/mask007.png,,,,,,,,,,,,4,2,,,,,,,4,6,5,6,,,,,,,,,,,2073.1971,2073.697,2073.9469,2076.2667,space,2.3141,,2076.2668,85,10,2077.2666,2077.2667,2077.2754,,,,0,38,38,38,1,165,70,,,,,,,,
,,601d7556fe4dfb0d99b3d825,65af52bacbfd19b26dc0c392,2024-01-23_07h46.58.626,bars,2023.2.3,Win32,144.9275362,657b66ea316d21385b68909f,,,,,,,,,,,2077.2756,2078.2736,,,2078.7738,2079.0236,,109,109,,,,,,,,,,,,,,,,bars/006.png,bars/mask003.png,,,,,,,,,,,,6,2,,,,,,,2,8,1,8,,,,,,,,,,,2078.2736,2078.7738,2079.0237,2079.9961,space,0.9657,,2079.9961,74,9,2080.9961,2080.9961,2080.997,,,,0,39,39,39,1,35,100,,,,,,,,
,,601d7556fe4dfb0d99b3d825,65af52bacbfd19b26dc0c392,2024-01-23_07h46.58.626,bars,2023.2.3,Win32,144.9275362,657b66ea316d21385b68909f,,,,,,,,,,,2080.9972,2081.996,,,2082.4962,2082.7461,,131,131,,,,,,,,,,,,,,,,bars/004.png,bars/mask003.png,,,,,,,,,,,,8,2,,,,,,,0,10,0,10,,,,,,,,,,,2081.996,2082.4962,2082.7461,2084.9062,space,2.1544,,2084.9062,74,6,2085.906,2085.9061,2085.9067,,,,0,40,40,40,1,25,125,,,,,,,,
,,601d7556fe4dfb0d99b3d825,65af52bacbfd19b26dc0c392,2024-01-23_07h46.58.626,bars,2023.2.3,Win32,144.9275362,657b66ea316d21385b68909f,,,,,,,,,,,2085.9069,2086.9061,,,2087.4062,2087.6561,,134,-46,,,,,,,,,,,,,,,,bars/028.png,bars/mask009.png,,,,,,,,,,,,5,2,,,,,,,0,8,1,10,,,,,,,,,,,2086.9061,2087.4062,2087.6561,2090.1979,space,2.5372,,2090.1979,89,14,2091.1979,2091.1979,2091.2065,,,,0,41,41,41,1,45,120,,,,,,,,
,,601d7556fe4dfb0d99b3d825,65af52bacbfd19b26dc0c392,2024-01-23_07h46.58.626,bars,2023.2.3,Win32,144.9275362,657b66ea316d21385b68909f,,,,,,,,,,,2091.2066,2092.2048,,,2092.7051,2092.9552,,8,8,,,,,,,,,,,,,,,,bars/012.png,bars/mask008.png,,,,,,,,,,,,8,2,,,,,,,0,10,0,10,,,,,,,,,,,2092.2049,2092.7051,2092.9553,2095.7888,space,2.828,,2095.7888,82,7,2096.7886,2096.7887,2096.7978,,,,0,42,42,42,1,90,15,,,,,,,,
,,601d7556fe4dfb0d99b3d825,65af52bacbfd19b26dc0c392,2024-01-23_07h46.58.626,bars,2023.2.3,Win32,144.9275362,657b66ea316d21385b68909f,,,,,,,,,,,2096.7979,2097.7957,,,2098.2957,2098.5457,,97,97,,,,,,,,,,,,,,,,bars/019.png,bars/mask002.png,,,,,,,,,,,,7,2,,,,,,,2,10,2,10,,,,,,,,,,,2097.7959,2098.2957,2098.5458,2099.6082,space,1.0575,,2099.6083,52,8,2100.6083,2100.6083,2100.6091,,,,0,43,43,43,1,45,105,,,,,,,,
,,601d7556fe4dfb0d99b3d825,65af52bacbfd19b26dc0c392,2024-01-23_07h46.58.626,bars,2023.2.3,Win32,144.9275362,657b66ea316d21385b68909f,,,,,,,,,,,2100.6094,2101.6083,,,2102.1088,2102.3582,,108,108,,,,,,,,,,,,,,,,bars/009.png,bars/mask008.png,,,,,,,,,,,,8,2,,,,,,,0,8,1,9,,,,,,,,,,,2101.6083,2102.1087,2102.3582,2105.4836,space,3.1187,,2105.4837,87,3,2106.4836,2106.4837,2106.4924,,,,0,44,44,44,1,15,105,,,,,,,,
,,601d7556fe4dfb0d99b3d825,65af52bacbfd19b26dc0c392,2024-01-23_07h46.58.626,bars,2023.2.3,Win32,144.9275362,657b66ea316d21385b68909f,,,,,,,,,,,2106.4925,2107.4907,,,2107.9908,2108.2406,,27,27,,,,,,,,,,,,,,,,bars/045.png,bars/mask006.png,,,,,,,,,,,,4,2,,,,,,,0,10,0,10,,,,,,,,,,,2107.4907,2107.9908,2108.2406,2111.8242,space,3.5785,,2111.8242,73,17,2112.8242,2112.8242,2112.8335,,,,0,45,45,45,1,100,10,,,,,,,,
,,601d7556fe4dfb0d99b3d825,65af52bacbfd19b26dc0c392,2024-01-23_07h46.58.626,bars,2023.2.3,Win32,144.9275362,657b66ea316d21385b68909f,,,,,,,,,,,2112.8337,2113.8315,,,2114.3312,2114.5812,,55,55,,,,,,,,,,,,,,,,bars/025.png,bars/mask005.png,,,,,,,,,,,,5,2,,,,,,,0,10,0,10,,,,,,,,,,,2113.8317,2114.3311,2114.5812,2119.0955,space,4.5081,,2119.0956,50,15,2120.0955,2120.0955,2120.1041,,,,0,46,46,46,1,105,40,,,,,,,,
,,601d7556fe4dfb0d99b3d825,65af52bacbfd19b26dc0c392,2024-01-23_07h46.58.626,bars,2023.2.3,Win32,144.9275362,657b66ea316d21385b68909f,,,,,,,,,,,2120.1043,2121.1028,,,2121.6025,2121.8525,,73,73,,,,,,,,,,,,,,,,bars/011.png,bars/mask004.png,,,,,,,,,,,,5,2,,,,,,,0,8,0,8,,,,,,,,,,,2121.1029,2121.6025,2121.8525,2124.2833,space,2.4247,,2124.2833,87,12,2125.2831,2125.2832,2125.292,,,,0,47,47,47,1,160,85,,,,,,,,
,,601d7556fe4dfb0d99b3d825,65af52bacbfd19b26dc0c392,2024-01-23_07h46.58.626,bars,2023.2.3,Win32,144.9275362,657b66ea316d21385b68909f,,,,,,,,,,,2125.2921,2126.2906,,,2126.7906,2127.0403,,133,133,,,,,,,,,,,,,,,,bars/028.png,bars/mask004.png,,,,,,,,,,,,4,2,,,,,,,0,6,0,7,,,,,,,,,,,2126.2907,2126.7906,2127.0404,2128.0474,space,1.0033,,2128.0474,88,13,2129.0473,2129.0473,2129.0486,,,,0,48,48,48,1,45,120,,,,,,,,
,,601d7556fe4dfb0d99b3d825,65af52bacbfd19b26dc0c392,2024-01-23_07h46.58.626,bars,2023.2.3,Win32,144.9275362,657b66ea316d21385b68909f,,,,,,,,,,,2129.0489,2130.0473,,,2130.5474,2130.7974,,91,91,,,,,,,,,,,,,,,,bars/046.png,bars/mask006.png,,,,,,,,,,,,4,2,,,,,,,2,4,3,5,,,,,,,,,,,2130.0474,2130.5474,2130.7974,2131.9227,space,1.1219,,2131.9227,64,6,2132.9225,2132.9225,2132.9233,,,,0,49,49,49,1,155,85,,,,,,,,
,,601d7556fe4dfb0d99b3d825,65af52bacbfd19b26dc0c392,2024-01-23_07h46.58.626,bars,2023.2.3,Win32,144.9275362,657b66ea316d21385b68909f,,,,,,,,,,,,,,,,,,,,,,,,,,,,,,,,,,,,,,,,,,,,,,,,,,,,,,,,,,,,,,,,,,,,,,,,,,,,,,,,,,,,,,,,,,,,,2132.9236,2192.9194,0,3,3,3,1,sequence_tables/blk003.csv
,,601d7556fe4dfb0d99b3d825,65af52bacbfd19b26dc0c392,2024-01-23_07h46.58.626,bars,2023.2.3,Win32,144.9275362,657b66ea316d21385b68909f,,,,,,,,,,,2194.1537,2195.1552,,,2195.6554,2195.9053,,160,160,,,,,,,,,,,,,,,,bars/015.png,bars/mask003.png,,,,,,,,,,,,3,2,,,,,,,7,3,7,3,,,,,,2192.9284,2194.1485,space,1.2101,,2195.1554,2195.6553,2195.9053,2198.0581,space,2.1496,,2198.0581,50,0,2199.0582,2199.0582,2199.0674,,,,0,0,0,0,1,110,160,,,,,,,,
,,601d7556fe4dfb0d99b3d825,65af52bacbfd19b26dc0c392,2024-01-23_07h46.58.626,bars,2023.2.3,Win32,144.9275362,657b66ea316d21385b68909f,,,,,,,,,,,2199.0676,2200.0653,,,2200.5651,2200.8151,,59,59,,,,,,,,,,,,,,,,bars/007.png,bars/mask006.png,,,,,,,,,,,,0,2,,,,,,,5,1,7,0,,,,,,,,,,,2200.0654,2200.5651,2200.8152,2202.5793,space,1.7578,,2202.5794,64,4,2203.5793,2203.5793,2203.5882,,,,0,1,1,1,1,175,55,,,,,,,,
,,601d7556fe4dfb0d99b3d825,65af52bacbfd19b26dc0c392,2024-01-23_07h46.58.626,bars,2023.2.3,Win32,144.9275362,657b66ea316d21385b68909f,,,,,,,,,,,2203.5883,2204.5868,,,2205.0862,2205.3364,,147,-33,,,,,,,,,,,,,,,,bars/034.png,bars/mask005.png,,,,,,,,,,,,1,1,,,,,,,7,3,4,2,,,,,,,,,,,2204.5868,2205.0862,2205.3365,2209.4895,space,4.1471,,2209.4895,22,82,2210.4893,2210.4893,2210.4987,,,,0,2,2,2,1,125,65,,,,,,,,
,,601d7556fe4dfb0d99b3d825,65af52bacbfd19b26dc0c392,2024-01-23_07h46.58.626,bars,2023.2.3,Win32,144.9275362,657b66ea316d21385b68909f,,,,,,,,,,,2210.4989,2211.4964,,,2211.9964,2212.2465,,154,154,,,,,,,,,,,,,,,,bars/001.png,bars/mask000.png,,,,,,,,,,,,2,1,,,,,,,9,5,10,5,,,,,,,,,,,2211.4964,2211.9963,2212.2465,2216.2467,space,3.9946,,2216.2467,24,69,2217.2468,2217.2468,2217.2556,,,,0,3,3,3,1,130,85,,,,,,,,
,,601d7556fe4dfb0d99b3d825,65af52bacbfd19b26dc0c392,2024-01-23_07h46.58.626,bars,2023.2.3,Win32,144.9275362,657b66ea316d21385b68909f,,,,,,,,,,,2217.2558,2218.2541,,,2218.7538,2219.004,,15,15,,,,,,,,,,,,,,,,bars/035.png,bars/mask006.png,,,,,,,,,,,,3,1,,,,,,,10,7,10,6,,,,,,,,,,,2218.2541,2218.7537,2219.004,2222.1498,space,3.14,,2222.1498,20,45,2223.1498,2223.1498,2223.1585,,,,0,4,4,4,1,175,60,,,,,,,,
,,601d7556fe4dfb0d99b3d825,65af52bacbfd19b26dc0c392,2024-01-23_07h46.58.626,bars,2023.2.3,Win32,144.9275362,657b66ea316d21385b68909f,,,,,,,,,,,2223.1587,2224.1572,,,2224.6569,2224.9068,,12,12,,,,,,,,,,,,,,,,bars/035.png,bars/mask001.png,,,,,,,,,,,,4,1,,,,,,,10,5,10,5,,,,,,,,,,,2224.1572,2224.6569,2224.9068,2226.1292,space,1.2165,,2226.1292,17,48,2227.1292,2227.1293,2227.1379,,,,0,5,5,5,1,175,60,,,,,,,,
,,601d7556fe4dfb0d99b3d825,65af52bacbfd19b26dc0c392,2024-01-23_07h46.58.626,bars,2023.2.3,Win32,144.9275362,657b66ea316d21385b68909f,,,,,,,,,,,2227.138,2228.1364,,,2228.6363,2228.8862,,18,18,,,,,,,,,,,,,,,,bars/041.png,bars/mask000.png,,,,,,,,,,,,9,1,,,,,,,10,7,10,7,,,,,,,,,,,2228.1364,2228.6362,2228.8862,2231.3932,space,2.503,,2231.3934,2,67,2232.3933,2232.3933,2232.4022,,,,0,6,6,6,1,20,85,,,,,,,,
,,601d7556fe4dfb0d99b3d825,65af52bacbfd19b26dc0c392,2024-01-23_07h46.58.626,bars,2023.2.3,Win32,144.9275362,657b66ea316d21385b68909f,,,,,,,,,,,2232.4024,2233.401,,,2233.9005,2234.1505,,52,52,,,,,,,,,,,,,,,,bars/026.png,bars/mask002.png,,,,,,,,,,,,3,1,,,,,,,8,5,8,6,,,,,,,,,,,2233.4011,2233.9005,2234.1506,2235.3177,space,1.1649,,2235.3177,17,33,2236.3171,2236.3172,2236.3182,,,,0,7,7,7,1,35,85,,,,,,,,
,,601d7556fe4dfb0d99b3d825,65af52bacbfd19b26dc0c392,2024-01-23_07h46.58.626,bars,2023.2.3,Win32,144.9275362,657b66ea316d21385b68909f,,,,,,,,,,,2236.3184,2237.3172,,,2237.8173,2238.0675,,36,216,,,,,,,,,,,,,,,,bars/004.png,bars/mask002.png,,,,,,,,,,,,3,1,,,,,,,6,7,4,7,,,,,,,,,,,2237.3173,2237.8173,2238.0675,2240.9217,space,2.848,,2240.9217,11,89,2241.9216,2241.9216,2241.9304,,,,0,8,8,8,1,25,125,,,,,,,,
,,601d7556fe4dfb0d99b3d825,65af52bacbfd19b26dc0c392,2024-01-23_07h46.58.626,bars,2023.2.3,Win32,144.9275362,657b66ea316d21385b68909f,,,,,,,,,,,2241.9305,2242.9288,,,2243.4289,2243.6788,,21,201,,,,,,,,,,,,,,,,bars/004.png,bars/mask007.png,,,,,,,,,,,,3,1,,,,,,,4,9,4,9,,,,,,,,,,,2242.9288,2243.4289,2243.6788,2247.2208,space,3.5372,,2247.2208,4,76,2248.2207,2248.2207,2248.2295,,,,0,9,9,9,1,25,125,,,,,,,,
,,601d7556fe4dfb0d99b3d825,65af52bacbfd19b26dc0c392,2024-01-23_07h46.58.626,bars,2023.2.3,Win32,144.9275362,657b66ea316d21385b68909f,,,,,,,,,,,2248.2297,2249.2277,,,2249.7277,2249.9777,,36,36,,,,,,,,,,,,,,,,bars/026.png,bars/mask001.png,,,,,,,,,,,,3,1,,,,,,,2,7,3,5,,,,,,,,,,,2249.2277,2249.7277,2249.9778,2253.0545,space,3.0716,,2253.0545,1,49,2254.0543,2254.0544,2254.0634,,,,0,10,10,10,1,35,85,,,,,,,,
