init_variables.started,init_variables.stopped,participant,session,date,expName,psychopyVersion,OS,frameRate,study_id,instruction_exp.started,instruction_exp.stopped,key_resp_8.keys,key_resp_8.rt,key_resp_8.duration,instruction_single.started,instruction_single.stopped,key_resp_2.keys,key_resp_2.rt,key_resp_2.duration,interval.started,interval.stopped,cue_single.started,cue_single.stopped,mask.started,mask.stopped,ori_response_single.started,res_ori,res,ori_response_single.stopped,key_resp_single.keys,key_resp_single.rt,key_resp_single.duration,disp_single.started,disp_single.stopped,key_resp.keys,key_resp.rt,key_resp.duration,single.thisRepN,single.thisTrialN,single.thisN,single.thisIndex,single.ran,ori,path,mask_path,instruction_bandit.started,instruction_bandit.stopped,key_resp_6.keys,key_resp_6.rt,key_resp_6.duration,cue_bandit.started,cue_bandit.stopped,bandit_res.keys,bandit_res.rt,bandit_res.duration,outcome_bandit.started,rew,action,outcome_bandit.stopped,bandit.thisRepN,bandit.thisTrialN,bandit.thisN,bandit.thisIndex,bandit.ran,actual_rew1,actual_rew2,rew1,rew2,instruction_task.started,instruction_task.stopped,key_resp_7.keys,key_resp_7.rt,key_resp_7.duration,wait_ready.started,wait_ready.stopped,key_resp_3.keys,key_resp_3.rt,key_resp_3.duration,cue.started,cue.stopped,ori_response.started,ori_response.stopped,key_resp_5.keys,key_resp_5.rt,key_resp_5.duration,outcome.started,diff1,diff2,outcome.stopped,disp_outcome_practice.started,disp_outcome_practice.stopped,key_resp_4.keys,key_resp_4.rt,key_resp_4.duration,trials.thisRepN,trials.thisTrialN,trials.thisN,trials.thisIndex,trials.ran,ori1,ori2,break_blk.started,break_blk.stopped,block.thisRepN,block.thisTrialN,block.thisN,block.thisIndex,block.ran,condition_file
0.0004,0.0005,5ec62e2f1de80c000cec6df7,65af5638b89350ece997c57c,2024-01-23_08h03.02.368,bars,2023.2.3,Win32,60.97560976,657b66ea316d21385b68909f,,,,,,,,,,,,,,,,,,,,,,,,,,,,,,,,,,,,,,,,,,,,,,,,,,,,,,,,,,,,,,,,,,,,,,,,,,,,,,,,,,,,,,,,,,,,,,,,,,,,
,,5ec62e2f1de80c000cec6df7,65af5638b89350ece997c57c,2024-01-23_08h03.02.368,bars,2023.2.3,Win32,60.97560976,657b66ea316d21385b68909f,0.0007,8.9859,y,8.9768,,,,,,,,,,,,,,,,,,,,,,,,,,,,,,,,,,,,,,,,,,,,,,,,,,,,,,,,,,,,,,,,,,,,,,,,,,,,,,,,,,,,,,,,,,,,,,,,
,,5ec62e2f1de80c000cec6df7,65af5638b89350ece997c57c,2024-01-23_08h03.02.368,bars,2023.2.3,Win32,60.97560976,657b66ea316d21385b68909f,,,,,,8.986,29.7691,space,20.7734,,,,,,,,,,,,,,,,,,,,,,,,,,,,,,,,,,,,,,,,,,,,,,,,,,,,,,,,,,,,,,,,,,,,,,,,,,,,,,,,,,,,,,,,,,,
,,5ec62e2f1de80c000cec6df7,65af5638b89350ece997c57c,2024-01-23_08h03.02.368,bars,2023.2.3,Win32,60.97560976,657b66ea316d21385b68909f,,,,,,,,,,,29.7762,30.7666,30.7671,31.2677,31.2684,31.5172,31.5178,144,144,50.2589,space,18.6841,,50.2592,57.2864,space,6.9881,,0,0,0,0,1,150,bars/single000.png,bars/mask006.png,,,,,,,,,,,,,,,,,,,,,,,,,,,,,,,,,,,,,,,,,,,,,,,,,,,,,,,,,,,,,,,,
,,5ec62e2f1de80c000cec6df7,65af5638b89350ece997c57c,2024-01-23_08h03.02.368,bars,2023.2.3,Win32,60.97560976,657b66ea316d21385b68909f,,,,,,,,,,,57.3092,58.2901,58.2904,58.7847,58.7847,59.0362,59.0364,75,-105,68.9356,space,9.8901,,68.9356,77.8699,space,8.9058,,0,1,1,4,1,95,bars/single004.png,bars/mask004.png,,,,,,,,,,,,,,,,,,,,,,,,,,,,,,,,,,,,,,,,,,,,,,,,,,,,,,,,,,,,,,,,
,,5ec62e2f1de80c000cec6df7,65af5638b89350ece997c57c,2024-01-23_08h03.02.368,bars,2023.2.3,Win32,60.97560976,657b66ea316d21385b68909f,,,,,,,,,,,77.8881,78.8859,78.886,79.3868,79.3869,79.6361,79.6362,30,30,84.3211,space,4.6798,,84.3212,86.1531,space,1.7962,,0,2,2,5,1,55,bars/single005.png,bars/mask008.png,,,,,,,,,,,,,,,,,,,,,,,,,,,,,,,,,,,,,,,,,,,,,,,,,,,,,,,,,,,,,,,,
,,5ec62e2f1de80c000cec6df7,65af5638b89350ece997c57c,2024-01-23_08h03.02.368,bars,2023.2.3,Win32,60.97560976,657b66ea316d21385b68909f,,,,,,,,,,,86.1535,87.1536,87.1538,87.6543,87.6544,87.9037,87.9037,24,24,94.6541,space,6.7436,,94.6542,99.8385,space,5.1589,,0,3,3,7,1,45,bars/single007.png,bars/mask009.png,,,,,,,,,,,,,,,,,,,,,,,,,,,,,,,,,,,,,,,,,,,,,,,,,,,,,,,,,,,,,,,,
,,5ec62e2f1de80c000cec6df7,65af5638b89350ece997c57c,2024-01-23_08h03.02.368,bars,2023.2.3,Win32,60.97560976,657b66ea316d21385b68909f,,,,,,,,,,,99.856,100.8541,100.8541,101.3541,101.3542,101.6042,101.6043,4,4,108.0904,space,6.4746,,108.0905,112.7393,space,4.5902,,0,4,4,9,1,20,bars/single009.png,bars/mask006.png,,,,,,,,,,,,,,,,,,,,,,,,,,,,,,,,,,,,,,,,,,,,,,,,,,,,,,,,,,,,,,,,
,,5ec62e2f1de80c000cec6df7,65af5638b89350ece997c57c,2024-01-23_08h03.02.368,bars,2023.2.3,Win32,60.97560976,657b66ea316d21385b68909f,,,,,,,,,,,112.7647,113.7422,113.7422,114.2405,114.2406,114.4893,114.4894,145,145,117.2965,space,2.7856,,117.2967,121.0584,space,3.7245,,0,5,5,2,1,145,bars/single002.png,bars/mask003.png,,,,,,,,,,,,,,,,,,,,,,,,,,,,,,,,,,,,,,,,,,,,,,,,,,,,,,,,,,,,,,,,
,,5ec62e2f1de80c000cec6df7,65af5638b89350ece997c57c,2024-01-23_08h03.02.368,bars,2023.2.3,Win32,60.97560976,657b66ea316d21385b68909f,,,,,,,,,,,121.0842,122.0601,122.0602,122.56,122.56,122.807,122.8071,162,162,127.4401,space,4.6109,,127.4402,128.8509,space,1.3829,,0,6,6,8,1,160,bars/single008.png,bars/mask004.png,,,,,,,,,,,,,,,,,,,,,,,,,,,,,,,,,,,,,,,,,,,,,,,,,,,,,,,,,,,,,,,,
,,5ec62e2f1de80c000cec6df7,65af5638b89350ece997c57c,2024-01-23_08h03.02.368,bars,2023.2.3,Win32,60.97560976,657b66ea316d21385b68909f,,,,,,,,,,,128.8516,129.8397,129.8398,130.3299,130.33,130.5759,130.5761,1,181,134.8068,space,4.2245,,134.8068,136.4569,space,1.6295,,0,7,7,6,1,175,bars/single006.png,bars/mask005.png,,,,,,,,,,,,,,,,,,,,,,,,,,,,,,,,,,,,,,,,,,,,,,,,,,,,,,,,,,,,,,,,
,,5ec62e2f1de80c000cec6df7,65af5638b89350ece997c57c,2024-01-23_08h03.02.368,bars,2023.2.3,Win32,60.97560976,657b66ea316d21385b68909f,,,,,,,,,,,136.4574,137.4568,137.4568,137.9584,137.9585,138.2072,138.2073,36,36,147.2916,space,9.0696,,147.2918,148.9281,space,1.5914,,0,8,8,1,1,20,bars/single001.png,bars/mask006.png,,,,,,,,,,,,,,,,,,,,,,,,,,,,,,,,,,,,,,,,,,,,,,,,,,,,,,,,,,,,,,,,
,,5ec62e2f1de80c000cec6df7,65af5638b89350ece997c57c,2024-01-23_08h03.02.368,bars,2023.2.3,Win32,60.97560976,657b66ea316d21385b68909f,,,,,,,,,,,148.9285,149.9291,149.9291,150.424,150.424,150.6634,150.6635,17,17,155.0491,space,4.3685,,155.0492,157.1088,space,2.0114,,0,9,9,3,1,20,bars/single003.png,bars/mask005.png,,,,,,,,,,,,,,,,,,,,,,,,,,,,,,,,,,,,,,,,,,,,,,,,,,,,,,,,,,,,,,,,
,,5ec62e2f1de80c000cec6df7,65af5638b89350ece997c57c,2024-01-23_08h03.02.368,bars,2023.2.3,Win32,60.97560976,657b66ea316d21385b68909f,,,,,,,,,,,,,,,,,,,,,,,,,,,,,,,,,,,,,157.1106,181.2778,space,24.1406,,,,,,,,,,,,,,,,,,,,,,,,,,,,,,,,,,,,,,,,,,,,,,,,,,,,,,,,,,,,
,,5ec62e2f1de80c000cec6df7,65af5638b89350ece997c57c,2024-01-23_08h03.02.368,bars,2023.2.3,Win32,60.97560976,657b66ea316d21385b68909f,,,,,,,,,,,,,,,,,,,,,,,,,,,,,,,,,,,,,,,,,,181.3015,185.948,left,4.6192,,185.9489,9,1,186.9448,0,0,0,0,1,9,1,9,2,,,,,,,,,,,,,,,,,,,,,,,,,,,,,,,,,,,,,,,,,
,,5ec62e2f1de80c000cec6df7,65af5638b89350ece997c57c,2024-01-23_08h03.02.368,bars,2023.2.3,Win32,60.97560976,657b66ea316d21385b68909f,,,,,,,,,,,,,,,,,,,,,,,,,,,,,,,,,,,,,,,,,,186.9493,188.8615,left,1.9006,,188.8618,10,1,189.861,0,1,1,1,1,10,0,10,1,,,,,,,,,,,,,,,,,,,,,,,,,,,,,,,,,,,,,,,,,
,,5ec62e2f1de80c000cec6df7,65af5638b89350ece997c57c,2024-01-23_08h03.02.368,bars,2023.2.3,Win32,60.97560976,657b66ea316d21385b68909f,,,,,,,,,,,,,,,,,,,,,,,,,,,,,,,,,,,,,,,,,,189.9018,191.0273,right,1.1123,,191.0274,2,2,192.0282,0,2,2,2,1,10,2,10,2,,,,,,,,,,,,,,,,,,,,,,,,,,,,,,,,,,,,,,,,,
,,5ec62e2f1de80c000cec6df7,65af5638b89350ece997c57c,2024-01-23_08h03.02.368,bars,2023.2.3,Win32,60.97560976,657b66ea316d21385b68909f,,,,,,,,,,,,,,,,,,,,,,,,,,,,,,,,,,,,,,,,,,192.0298,192.7107,left,0.6659,,192.7108,7,1,193.711,0,3,3,3,1,8,4,7,3,,,,,,,,,,,,,,,,,,,,,,,,,,,,,,,,,,,,,,,,,
,,5ec62e2f1de80c000cec6df7,65af5638b89350ece997c57c,2024-01-23_08h03.02.368,bars,2023.2.3,Win32,60.97560976,657b66ea316d21385b68909f,,,,,,,,,,,,,,,,,,,,,,,,,,,,,,,,,,,,,,,,,,193.7127,194.3111,left,0.5865,,194.3115,5,1,195.3157,0,4,4,4,1,6,2,5,1,,,,,,,,,,,,,,,,,,,,,,,,,,,,,,,,,,,,,,,,,
,,5ec62e2f1de80c000cec6df7,65af5638b89350ece997c57c,2024-01-23_08h03.02.368,bars,2023.2.3,Win32,60.97560976,657b66ea316d21385b68909f,,,,,,,,,,,,,,,,,,,,,,,,,,,,,,,,,,,,,,,,,,195.3186,195.7177,right,0.3844,,195.7178,4,2,196.7163,0,5,5,5,1,4,4,4,4,,,,,,,,,,,,,,,,,,,,,,,,,,,,,,,,,,,,,,,,,
,,5ec62e2f1de80c000cec6df7,65af5638b89350ece997c57c,2024-01-23_08h03.02.368,bars,2023.2.3,Win32,60.97560976,657b66ea316d21385b68909f,,,,,,,,,,,,,,,,,,,,,,,,,,,,,,,,,,,,,,,,,,196.7173,197.0327,left,0.3005,,197.0328,1,1,198.0309,0,6,6,6,1,2,2,1,2,,,,,,,,,,,,,,,,,,,,,,,,,,,,,,,,,,,,,,,,,
,,5ec62e2f1de80c000cec6df7,65af5638b89350ece997c57c,2024-01-23_08h03.02.368,bars,2023.2.3,Win32,60.97560976,657b66ea316d21385b68909f,,,,,,,,,,,,,,,,,,,,,,,,,,,,,,,,,,,,,,,,,,198.0311,198.4982,right,0.4508,,198.4982,1,2,199.4983,0,7,7,7,1,0,0,0,1,,,,,,,,,,,,,,,,,,,,,,,,,,,,,,,,,,,,,,,,,
,,5ec62e2f1de80c000cec6df7,65af5638b89350ece997c57c,2024-01-23_08h03.02.368,bars,2023.2.3,Win32,60.97560976,657b66ea316d21385b68909f,,,,,,,,,,,,,,,,,,,,,,,,,,,,,,,,,,,,,,,,,,199.4986,199.9655,right,0.4514,,199.9656,0,2,200.967,0,8,8,8,1,0,2,1,0,,,,,,,,,,,,,,,,,,,,,,,,,,,,,,,,,,,,,,,,,
,,5ec62e2f1de80c000cec6df7,65af5638b89350ece997c57c,2024-01-23_08h03.02.368,bars,2023.2.3,Win32,60.97560976,657b66ea316d21385b68909f,,,,,,,,,,,,,,,,,,,,,,,,,,,,,,,,,,,,,,,,,,200.968,201.4966,left,0.5045,,201.4968,2,1,202.4942,0,9,9,9,1,2,4,2,3,,,,,,,,,,,,,,,,,,,,,,,,,,,,,,,,,,,,,,,,,
,,5ec62e2f1de80c000cec6df7,65af5638b89350ece997c57c,2024-01-23_08h03.02.368,bars,2023.2.3,Win32,60.97560976,657b66ea316d21385b68909f,,,,,,,,,,,,,,,,,,,,,,,,,,,,,,,,,,,,,,,,,,202.4946,202.9123,right,0.4116,,202.9123,3,2,203.9122,0,10,10,10,1,0,2,0,3,,,,,,,,,,,,,,,,,,,,,,,,,,,,,,,,,,,,,,,,,
,,5ec62e2f1de80c000cec6df7,65af5638b89350ece997c57c,2024-01-23_08h03.02.368,bars,2023.2.3,Win32,60.97560976,657b66ea316d21385b68909f,,,,,,,,,,,,,,,,,,,,,,,,,,,,,,,,,,,,,,,,,,203.9138,204.3793,right,0.4563,,204.3793,3,2,205.3779,0,11,11,11,1,0,4,0,3,,,,,,,,,,,,,,,,,,,,,,,,,,,,,,,,,,,,,,,,,
,,5ec62e2f1de80c000cec6df7,65af5638b89350ece997c57c,2024-01-23_08h03.02.368,bars,2023.2.3,Win32,60.97560976,657b66ea316d21385b68909f,,,,,,,,,,,,,,,,,,,,,,,,,,,,,,,,,,,,,,,,,,205.3782,205.8953,left,0.5122,,205.8953,1,1,206.8959,0,12,12,12,1,2,6,1,6,,,,,,,,,,,,,,,,,,,,,,,,,,,,,,,,,,,,,,,,,
,,5ec62e2f1de80c000cec6df7,65af5638b89350ece997c57c,2024-01-23_08h03.02.368,bars,2023.2.3,Win32,60.97560976,657b66ea316d21385b68909f,,,,,,,,,,,,,,,,,,,,,,,,,,,,,,,,,,,,,,,,,,206.8977,207.433,right,0.5279,,207.4331,3,2,208.4288,0,13,13,13,1,0,4,1,3,,,,,,,,,,,,,,,,,,,,,,,,,,,,,,,,,,,,,,,,,
,,5ec62e2f1de80c000cec6df7,65af5638b89350ece997c57c,2024-01-23_08h03.02.368,bars,2023.2.3,Win32,60.97560976,657b66ea316d21385b68909f,,,,,,,,,,,,,,,,,,,,,,,,,,,,,,,,,,,,,,,,,,208.4295,208.9285,right,0.4915,,208.9285,7,2,209.9315,0,14,14,14,1,2,6,2,7,,,,,,,,,,,,,,,,,,,,,,,,,,,,,,,,,,,,,,,,,
,,5ec62e2f1de80c000cec6df7,65af5638b89350ece997c57c,2024-01-23_08h03.02.368,bars,2023.2.3,Win32,60.97560976,657b66ea316d21385b68909f,,,,,,,,,,,,,,,,,,,,,,,,,,,,,,,,,,,,,,,,,,209.933,210.364,right,0.4203,,210.3642,9,2,211.362,0,15,15,15,1,4,8,3,9,,,,,,,,,,,,,,,,,,,,,,,,,,,,,,,,,,,,,,,,,
,,5ec62e2f1de80c000cec6df7,65af5638b89350ece997c57c,2024-01-23_08h03.02.368,bars,2023.2.3,Win32,60.97560976,657b66ea316d21385b68909f,,,,,,,,,,,,,,,,,,,,,,,,,,,,,,,,,,,,,,,,,,211.3629,211.7957,right,0.425,,211.7957,7,2,212.7957,0,16,16,16,1,6,6,7,7,,,,,,,,,,,,,,,,,,,,,,,,,,,,,,,,,,,,,,,,,
,,5ec62e2f1de80c000cec6df7,65af5638b89350ece997c57c,2024-01-23_08h03.02.368,bars,2023.2.3,Win32,60.97560976,657b66ea316d21385b68909f,,,,,,,,,,,,,,,,,,,,,,,,,,,,,,,,,,,,,,,,,,212.7964,213.2623,left,0.4589,,213.2624,9,1,214.263,0,17,17,17,1,8,4,9,5,,,,,,,,,,,,,,,,,,,,,,,,,,,,,,,,,,,,,,,,,
,,5ec62e2f1de80c000cec6df7,65af5638b89350ece997c57c,2024-01-23_08h03.02.368,bars,2023.2.3,Win32,60.97560976,657b66ea316d21385b68909f,,,,,,,,,,,,,,,,,,,,,,,,,,,,,,,,,,,,,,,,,,214.264,214.8632,right,0.5868,,214.8633,1,2,215.8638,0,18,18,18,1,6,2,5,1,,,,,,,,,,,,,,,,,,,,,,,,,,,,,,,,,,,,,,,,,
,,5ec62e2f1de80c000cec6df7,65af5638b89350ece997c57c,2024-01-23_08h03.02.368,bars,2023.2.3,Win32,60.97560976,657b66ea316d21385b68909f,,,,,,,,,,,,,,,,,,,,,,,,,,,,,,,,,,,,,,,,,,215.865,216.1801,left,0.3067,,216.1802,7,1,217.1794,0,19,19,19,1,8,0,7,0,,,,,,,,,,,,,,,,,,,,,,,,,,,,,,,,,,,,,,,,,
,,5ec62e2f1de80c000cec6df7,65af5638b89350ece997c57c,2024-01-23_08h03.02.368,bars,2023.2.3,Win32,60.97560976,657b66ea316d21385b68909f,,,,,,,,,,,,,,,,,,,,,,,,,,,,,,,,,,,,,,,,,,,,,,,,,,,,,,,,,,,,217.1815,228.8896,space,11.6809,,,,,,,,,,,,,,,,,,,,,,,,,,,,,,,,,,,,,
,,5ec62e2f1de80c000cec6df7,65af5638b89350ece997c57c,2024-01-23_08h03.02.368,bars,2023.2.3,Win32,60.97560976,657b66ea316d21385b68909f,,,,,,,,,,,231.296,232.2968,,,232.798,233.0339,,159,159,,,,,,,,,,,,,,,,bars/049.png,bars/mask001.png,,,,,,,,,,,,4,1,,,,,,,4,1,4,1,,,,,,228.914,231.2814,space,2.3516,,232.2978,232.7979,233.0346,240.8319,space,7.7714,,240.8323,1,44,241.8344,241.8347,254.1988,space,12.335,,0,0,0,0,1,160,115,,,,,,,,
,,5ec62e2f1de80c000cec6df7,65af5638b89350ece997c57c,2024-01-23_08h03.02.368,bars,2023.2.3,Win32,60.97560976,657b66ea316d21385b68909f,,,,,,,,,,,254.2152,255.1991,,,255.6983,255.9498,,55,55,,,,,,,,,,,,,,,,bars/002.png,bars/mask000.png,,,,,,,,,,,,0,2,,,,,,,6,0,8,0,,,,,,,,,,,255.1994,255.6982,255.9501,261.6662,space,5.7029,,261.6673,75,30,262.6657,262.6659,266.1565,space,3.4341,,0,1,1,1,1,130,85,,,,,,,,
,,5ec62e2f1de80c000cec6df7,65af5638b89350ece997c57c,2024-01-23_08h03.02.368,bars,2023.2.3,Win32,60.97560976,657b66ea316d21385b68909f,,,,,,,,,,,266.1575,267.1545,,,267.6492,267.8994,,95,95,,,,,,,,,,,,,,,,bars/022.png,bars/mask006.png,,,,,,,,,,,,2,1,,,,,,,4,2,2,2,,,,,,,,,,,267.1547,267.6491,267.8995,275.055,space,7.1348,,275.0551,0,75,276.0505,276.0507,280.3512,space,4.2693,,0,2,2,2,1,95,20,,,,,,,,
,,5ec62e2f1de80c000cec6df7,65af5638b89350ece997c57c,2024-01-23_08h03.02.368,bars,2023.2.3,Win32,60.97560976,657b66ea316d21385b68909f,,,,,,,,,,,280.3717,281.3666,,,281.8667,282.1177,,12,12,,,,,,,,,,,,,,,,bars/014.png,bars/mask002.png,,,,,,,,,,,,0,2,,,,,,,2,0,2,0,,,,,,,,,,,281.3666,281.8667,282.1177,287.8007,space,5.6672,,287.8008,68,12,288.8015,288.8017,292.0239,space,3.1749,,0,3,3,3,1,80,0,,,,,,,,
,,5ec62e2f1de80c000cec6df7,65af5638b89350ece997c57c,2024-01-23_08h03.02.368,bars,2023.2.3,Win32,60.97560976,657b66ea316d21385b68909f,,,,,,,,,,,292.0247,293.0183,,,293.5172,293.7675,,86,86,,,,,,,,,,,,,,,,bars/018.png,bars/mask007.png,,,,,,,,,,,,0,2,,,,,,,4,0,4,0,,,,,,,,,,,293.0185,293.517,293.7676,296.8176,space,3.0354,,296.8177,64,4,297.8185,297.8185,302.8017,space,4.939,,0,4,4,4,1,150,90,,,,,,,,
,,5ec62e2f1de80c000cec6df7,65af5638b89350ece997c57c,2024-01-23_08h03.02.368,bars,2023.2.3,Win32,60.97560976,657b66ea316d21385b68909f,,,,,,,,,,,302.8199,303.802,,,304.3015,304.5514,,39,39,,,,,,,,,,,,,,,,bars/000.png,bars/mask008.png,,,,,,,,,,,,3,1,,,,,,,2,2,3,1,,,,,,,,,,,303.8022,304.3015,304.5515,310.22,space,5.6565,,310.2206,1,74,311.2221,311.2223,313.5856,space,2.3265,,0,5,5,5,1,40,145,,,,,,,,
,,5ec62e2f1de80c000cec6df7,65af5638b89350ece997c57c,2024-01-23_08h03.02.368,bars,2023.2.3,Win32,60.97560976,657b66ea316d21385b68909f,,,,,,,,,,,313.5863,314.5856,,,315.0865,315.3364,,74,74,,,,,,,,,,,,,,,,bars/018.png,bars/mask009.png,,,,,,,,,,,,1,2,,,,,,,0,4,1,3,,,,,,,,,,,314.5857,315.0865,315.3367,319.6293,space,4.2819,,319.6294,76,16,320.6193,320.6193,322.4426,space,1.7975,,0,6,6,6,1,150,90,,,,,,,,
,,5ec62e2f1de80c000cec6df7,65af5638b89350ece997c57c,2024-01-23_08h03.02.368,bars,2023.2.3,Win32,60.97560976,657b66ea316d21385b68909f,,,,,,,,,,,322.444,323.436,,,323.9359,324.1864,,163,163,,,,,,,,,,,,,,,,bars/035.png,bars/mask002.png,,,,,,,,,,,,0,1,,,,,,,0,6,0,7,,,,,,,,,,,323.4362,323.9358,324.1864,326.1706,space,1.9725,,326.1708,12,77,327.1695,327.1696,328.6707,space,1.4777,,0,7,7,7,1,175,60,,,,,,,,
,,5ec62e2f1de80c000cec6df7,65af5638b89350ece997c57c,2024-01-23_08h03.02.368,bars,2023.2.3,Win32,60.97560976,657b66ea316d21385b68909f,,,,,,,,,,,328.6717,329.67,,,330.1708,330.4208,,44,44,,,,,,,,,,,,,,,,bars/025.png,bars/mask005.png,,,,,,,,,,,,7,2,,,,,,,2,8,2,8,,,,,,,,,,,329.67,330.1708,330.4208,334.0387,space,3.6089,,334.0389,61,4,335.0382,335.0386,336.209,space,1.1036,,0,8,8,8,1,105,40,,,,,,,,
,,5ec62e2f1de80c000cec6df7,65af5638b89350ece997c57c,2024-01-23_08h03.02.368,bars,2023.2.3,Win32,60.97560976,657b66ea316d21385b68909f,,,,,,,,,,,336.2098,337.2041,,,337.7092,337.9567,,121,301,,,,,,,,,,,,,,,,bars/045.png,bars/mask007.png,,,,,,,,,,,,1,1,,,,,,,4,6,4,7,,,,,,,,,,,337.2041,337.709,337.9568,346.1879,space,8.2113,,346.188,21,69,347.1885,347.189,358.4727,space,11.196,,0,9,9,9,1,100,10,,,,,,,,
,,5ec62e2f1de80c000cec6df7,65af5638b89350ece997c57c,2024-01-23_08h03.02.368,bars,2023.2.3,Win32,60.97560976,657b66ea316d21385b68909f,,,,,,,,,,,358.5019,359.4886,,,359.989,360.239,,111,111,,,,,,,,,,,,,,,,bars/049.png,bars/mask008.png,,,,,,,,,,,,7,2,,,,,,,2,8,0,8,,,,,,,,,,,359.4886,359.989,360.239,367.1898,space,6.9344,,367.1898,49,4,368.1897,368.1899,369.54,space,1.3044,,0,10,10,10,1,160,115,,,,,,,,
,,5ec62e2f1de80c000cec6df7,65af5638b89350ece997c57c,2024-01-23_08h03.02.368,bars,2023.2.3,Win32,60.97560976,657b66ea316d21385b68909f,,,,,,,,,,,369.5416,370.5395,,,371.0461,371.2899,,5,5,,,,,,,,,,,,,,,,bars/048.png,bars/mask001.png,,,,,,,,,,,,5,2,,,,,,,4,10,4,8,,,,,,,,,,,370.5395,371.0457,371.2904,375.7586,space,4.4549,,375.759,45,10,376.7564,376.7564,380.808,space,4.0094,,0,11,11,11,1,50,175,,,,,,,,
,,5ec62e2f1de80c000cec6df7,65af5638b89350ece997c57c,2024-01-23_08h03.02.368,bars,2023.2.3,Win32,60.97560976,657b66ea316d21385b68909f,,,,,,,,,,,380.843,381.8239,,,382.3247,382.5742,,35,35,,,,,,,,,,,,,,,,bars/006.png,bars/mask009.png,,,,,,,,,,,,3,1,,,,,,,2,8,3,10,,,,,,,,,,,381.8239,382.3245,382.5745,385.5429,space,2.9598,,385.543,0,65,386.5418,386.5421,387.7404,space,1.1399,,0,12,12,12,1,35,100,,,,,,,,
,,5ec62e2f1de80c000cec6df7,65af5638b89350ece997c57c,2024-01-23_08h03.02.368,bars,2023.2.3,Win32,60.97560976,657b66ea316d21385b68909f,,,,,,,,,,,387.7407,388.7407,,,389.2419,389.4912,,5,5,,,,,,,,,,,,,,,,bars/035.png,bars/mask008.png,,,,,,,,,,,,0,1,,,,,,,0,10,0,9,,,,,,,,,,,388.7407,389.2418,389.4914,394.0948,space,4.5971,,394.0949,10,55,395.091,395.0912,397.3748,space,2.2516,,0,13,13,13,1,175,60,,,,,,,,
,,5ec62e2f1de80c000cec6df7,65af5638b89350ece997c57c,2024-01-23_08h03.02.368,bars,2023.2.3,Win32,60.97560976,657b66ea316d21385b68909f,,,,,,,,,,,397.3753,398.3752,,,398.8766,399.1262,,178,-2,,,,,,,,,,,,,,,,bars/033.png,bars/mask003.png,,,,,,,,,,,,2,2,,,,,,,2,10,1,10,,,,,,,,,,,398.3752,398.8765,399.1263,406.4105,space,7.2704,,406.4107,27,23,407.41,407.4101,412.8993,space,5.4484,,0,14,14,14,1,25,155,,,,,,,,
,,5ec62e2f1de80c000cec6df7,65af5638b89350ece997c57c,2024-01-23_08h03.02.368,bars,2023.2.3,Win32,60.97560976,657b66ea316d21385b68909f,,,,,,,,,,,412.9301,413.909,,,414.4091,414.6591,,106,106,,,,,,,,,,,,,,,,bars/028.png,bars/mask002.png,,,,,,,,,,,,3,2,,,,,,,0,8,0,6,,,,,,,,,,,413.909,414.4091,414.6592,419.8097,space,5.1405,,419.8099,61,14,420.8097,420.8098,422.8607,space,2.0061,,0,15,15,15,1,45,120,,,,,,,,
,,5ec62e2f1de80c000cec6df7,65af5638b89350ece997c57c,2024-01-23_08h03.02.368,bars,2023.2.3,Win32,60.97560976,657b66ea316d21385b68909f,,,,,,,,,,,422.8627,423.86,,,424.3599,424.6096,,58,238,,,,,,,,,,,,,,,,bars/025.png,bars/mask001.png,,,,,,,,,,,,2,2,,,,,,,0,6,1,5,,,,,,,,,,,423.8601,424.3598,424.6097,428.3602,space,3.7438,,428.3603,47,18,429.3712,429.3713,433.6127,space,4.1992,,0,16,16,16,1,105,40,,,,,,,,
,,5ec62e2f1de80c000cec6df7,65af5638b89350ece997c57c,2024-01-23_08h03.02.368,bars,2023.2.3,Win32,60.97560976,657b66ea316d21385b68909f,,,,,,,,,,,433.6319,434.6267,,,435.1287,435.3778,,116,-64,,,,,,,,,,,,,,,,bars/039.png,bars/mask005.png,,,,,,,,,,,,5,2,,,,,,,0,8,0,8,,,,,,,,,,,434.6267,435.1285,435.3779,441.7787,space,6.3855,,441.779,59,11,442.7781,442.7782,445.5455,space,2.6974,,0,17,17,17,1,175,105,,,,,,,,
,,5ec62e2f1de80c000cec6df7,65af5638b89350ece997c57c,2024-01-23_08h03.02.368,bars,2023.2.3,Win32,60.97560976,657b66ea316d21385b68909f,,,,,,,,,,,445.5465,446.5446,,,447.0454,447.2951,,36,36,,,,,,,,,,,,,,,,bars/026.png,bars/mask007.png,,,,,,,,,,,,0,1,,,,,,,0,10,0,10,,,,,,,,,,,446.5446,447.0452,447.2958,449.3785,space,2.0645,,449.3785,1,49,450.3786,450.3788,451.5451,space,1.1313,,0,18,18,18,1,35,85,,,,,,,,
,,5ec62e2f1de80c000cec6df7,65af5638b89350ece997c57c,2024-01-23_08h03.02.368,bars,2023.2.3,Win32,60.97560976,657b66ea316d21385b68909f,,,,,,,,,,,451.5457,452.545,,,453.048,453.2952,,132,132,,,,,,,,,,,,,,,,bars/033.png,bars/mask007.png,,,,,,,,,,,,2,2,,,,,,,2,8,2,9,,,,,,,,,,,452.5451,453.048,453.2953,457.9121,space,4.5881,,457.9121,73,23,458.9153,458.9153,460.0158,space,1.076,,0,19,19,19,1,25,155,,,,,,,,
,,5ec62e2f1de80c000cec6df7,65af5638b89350ece997c57c,2024-01-23_08h03.02.368,bars,2023.2.3,Win32,60.97560976,657b66ea316d21385b68909f,,,,,,,,,,,460.0161,461.0121,,,461.5123,461.7628,,53,53,,,,,,,,,,,,,,,,bars/027.png,bars/mask003.png,,,,,,,,,,,,6,2,,,,,,,4,6,4,7,,,,,,,,,,,461.0122,461.5123,461.7629,465.4961,space,3.702,,465.4962,57,3,466.4995,466.4997,467.7461,space,1.2055,,0,20,20,20,1,110,50,,,,,,,,
,,5ec62e2f1de80c000cec6df7,65af5638b89350ece997c57c,2024-01-23_08h03.02.368,bars,2023.2.3,Win32,60.97560976,657b66ea316d21385b68909f,,,,,,,,,,,467.7465,468.746,,,469.2468,469.496,,133,-47,,,,,,,,,,,,,,,,bars/020.png,bars/mask007.png,,,,,,,,,,,,3,1,,,,,,,6,8,7,7,,,,,,,,,,,468.7461,469.2467,469.4961,473.8474,space,4.3412,,473.8478,18,37,474.8468,474.8468,478.6154,space,3.7322,,0,21,21,21,1,115,170,,,,,,,,
,,5ec62e2f1de80c000cec6df7,65af5638b89350ece997c57c,2024-01-23_08h03.02.368,bars,2023.2.3,Win32,60.97560976,657b66ea316d21385b68909f,,,,,,,,,,,478.6167,479.6135,,,480.1136,480.3635,,44,224,,,,,,,,,,,,,,,,bars/016.png,bars/mask006.png,,,,,,,,,,,,4,1,,,,,,,4,10,5,10,,,,,,,,,,,479.6135,480.1135,480.3635,485.3648,space,4.9887,,485.3656,4,59,486.3646,486.3647,487.3642,space,0.9349,,0,22,22,22,1,40,165,,,,,,,,
,,5ec62e2f1de80c000cec6df7,65af5638b89350ece997c57c,2024-01-23_08h03.02.368,bars,2023.2.3,Win32,60.97560976,657b66ea316d21385b68909f,,,,,,,,,,,487.3646,488.3638,,,488.8649,489.1148,,20,20,,,,,,,,,,,,,,,,bars/004.png,bars/mask006.png,,,,,,,,,,,,6,1,,,,,,,6,8,7,9,,,,,,,,,,,488.3639,488.8648,489.1149,492.8479,space,3.7178,,492.848,5,75,493.848,493.8481,494.9835,space,1.0957,,0,23,23,23,1,25,125,,,,,,,,
,,5ec62e2f1de80c000cec6df7,65af5638b89350ece997c57c,2024-01-23_08h03.02.368,bars,2023.2.3,Win32,60.97560976,657b66ea316d21385b68909f,,,,,,,,,,,494.9847,495.9818,,,496.4816,496.7321,,17,197,,,,,,,,,,,,,,,,bars/033.png,bars/mask008.png,,,,,,,,,,,,7,1,,,,,,,8,10,9,10,,,,,,,,,,,495.9818,496.4815,496.7322,501.8833,space,5.133,,501.8838,8,42,502.8836,502.8838,503.9379,space,1.0074,,0,24,24,24,1,25,155,,,,,,,,
,,5ec62e2f1de80c000cec6df7,65af5638b89350ece997c57c,2024-01-23_08h03.02.368,bars,2023.2.3,Win32,60.97560976,657b66ea316d21385b68909f,,,,,,,,,,,503.9384,504.9352,,,505.4317,505.6821,,122,122,,,,,,,,,,,,,,,,bars/034.png,bars/mask004.png,,,,,,,,,,,,9,1,,,,,,,10,8,10,9,,,,,,,,,,,504.9352,505.4316,505.6822,510.3375,space,4.6354,,510.3375,3,57,511.3364,511.3365,513.2336,space,1.8423,,0,25,25,25,1,125,65,,,,,,,,
,,5ec62e2f1de80c000cec6df7,65af5638b89350ece997c57c,2024-01-23_08h03.02.368,bars,2023.2.3,Win32,60.97560976,657b66ea316d21385b68909f,,,,,,,,,,,513.2344,514.2322,,,514.7332,514.9831,,127,127,,,,,,,,,,,,,,,,bars/049.png,bars/mask007.png,,,,,,,,,,,,6,2,,,,,,,10,10,10,10,,,,,,,,,,,514.2322,514.7331,514.9832,532.6851,space,17.6852,,532.6854,33,12,533.6843,533.6844,535.9363,space,2.2133,,0,26,26,26,1,160,115,,,,,,,,
,,5ec62e2f1de80c000cec6df7,65af5638b89350ece997c57c,2024-01-23_08h03.02.368,bars,2023.2.3,Win32,60.97560976,657b66ea316d21385b68909f,,,,,,,,,,,535.9375,536.9342,,,537.4344,537.6843,,58,58,,,,,,,,,,,,,,,,bars/030.png,bars/mask002.png,,,,,,,,,,,,8,2,,,,,,,8,10,7,10,,,,,,,,,,,536.9343,537.4344,537.6843,541.8177,space,4.1197,,541.8177,82,7,542.8179,542.8179,543.8849,space,1.038,,0,27,27,27,1,140,65,,,,,,,,
,,5ec62e2f1de80c000cec6df7,65af5638b89350ece997c57c,2024-01-23_08h03.02.368,bars,2023.2.3,Win32,60.97560976,657b66ea316d21385b68909f,,,,,,,,,,,543.8858,544.8852,,,545.3846,545.6346,,40,40,,,,,,,,,,,,,,,,bars/025.png,bars/mask003.png,,,,,,,,,,,,7,2,,,,,,,10,8,10,7,,,,,,,,,,,544.8854,545.3845,545.6346,550.9182,space,5.2724,,550.9182,65,0,551.9196,551.9198,553.3046,space,1.2976,,0,28,28,28,1,105,40,,,,,,,,
,,5ec62e2f1de80c000cec6df7,65af5638b89350ece997c57c,2024-01-23_08h03.02.368,bars,2023.2.3,Win32,60.97560976,657b66ea316d21385b68909f,,,,,,,,,,,553.308,554.3029,,,554.8022,555.0532,,133,-47,,,,,,,,,,,,,,,,bars/043.png,bars/mask008.png,,,,,,,,,,,,5,2,,,,,,,10,6,10,5,,,,,,,,,,,554.3031,554.8022,555.0534,560.9696,space,5.9006,,560.9698,77,3,561.9699,561.97,562.82,space,0.7915,,0,29,29,29,1,30,130,,,,,,,,
,,5ec62e2f1de80c000cec6df7,65af5638b89350ece997c57c,2024-01-23_08h03.02.368,bars,2023.2.3,Win32,60.97560976,657b66ea316d21385b68909f,,,,,,,,,,,562.8206,563.82,,,564.3208,564.5707,,148,148,,,,,,,,,,,,,,,,bars/043.png,bars/mask009.png,,,,,,,,,,,,3,2,,,,,,,8,8,7,8,,,,,,,,,,,563.82,564.3207,564.5709,569.5865,space,5.0044,,569.5865,62,18,570.5865,570.5866,572.2593,space,1.6403,,0,30,30,30,1,30,130,,,,,,,,
,,5ec62e2f1de80c000cec6df7,65af5638b89350ece997c57c,2024-01-23_08h03.02.368,bars,2023.2.3,Win32,60.97560976,657b66ea316d21385b68909f,,,,,,,,,,,572.2599,573.254,,,573.7461,573.9958,,42,42,,,,,,,,,,,,,,,,bars/034.png,bars/mask008.png,,,,,,,,,,,,2,2,,,,,,,6,10,5,10,,,,,,,,,,,573.2541,573.7459,573.9959,576.8604,space,2.8527,,576.8605,83,23,577.857,577.8571,579.1374,space,1.2519,,0,31,31,31,1,125,65,,,,,,,,
,,5ec62e2f1de80c000cec6df7,65af5638b89350ece997c57c,2024-01-23_08h03.02.368,bars,2023.2.3,Win32,60.97560976,657b66ea316d21385b68909f,,,,,,,,,,,579.1378,580.1448,,,580.6436,580.8881,,49,229,,,,,,,,,,,,,,,,bars/025.png,bars/mask006.png,,,,,,,,,,,,7,2,,,,,,,4,10,4,10,,,,,,,,,,,580.1449,580.6435,580.8884,586.6084,space,5.7016,,586.6085,56,9,587.6091,587.6093,595.2114,space,7.5574,,0,32,32,32,1,105,40,,,,,,,,
,,5ec62e2f1de80c000cec6df7,65af5638b89350ece997c57c,2024-01-23_08h03.02.368,bars,2023.2.3,Win32,60.97560976,657b66ea316d21385b68909f,,,,,,,,,,,595.2401,596.2223,,,596.7231,596.9716,,144,144,,,,,,,,,,,,,,,,bars/042.png,bars/mask009.png,,,,,,,,,,,,5,1,,,,,,,6,10,5,10,,,,,,,,,,,596.2226,596.7231,596.9718,602.1776,space,5.1989,,602.1781,1,69,603.1726,603.1728,604.2109,space,0.9903,,0,33,33,33,1,145,75,,,,,,,,
,,5ec62e2f1de80c000cec6df7,65af5638b89350ece997c57c,2024-01-23_08h03.02.368,bars,2023.2.3,Win32,60.97560976,657b66ea316d21385b68909f,,,,,,,,,,,604.2115,605.2055,,,605.6936,605.9397,,34,214,,,,,,,,,,,,,,,,bars/048.png,bars/mask009.png,,,,,,,,,,,,1,1,,,,,,,4,10,3,10,,,,,,,,,,,605.2056,605.6935,605.9399,610.9138,space,4.9523,,610.9141,16,39,611.9123,611.9126,613.1562,space,1.1694,,0,34,34,34,1,50,175,,,,,,,,
,,5ec62e2f1de80c000cec6df7,65af5638b89350ece997c57c,2024-01-23_08h03.02.368,bars,2023.2.3,Win32,60.97560976,657b66ea316d21385b68909f,,,,,,,,,,,613.1568,614.1566,,,614.6565,614.9069,,152,152,,,,,,,,,,,,,,,,bars/017.png,bars/mask004.png,,,,,,,,,,,,5,1,,,,,,,6,8,6,7,,,,,,,,,,,614.1567,614.6564,614.907,619.4898,space,4.5723,,619.4899,7,73,620.4906,620.4907,621.5581,space,1.0081,,0,35,35,35,1,145,45,,,,,,,,
,,5ec62e2f1de80c000cec6df7,65af5638b89350ece997c57c,2024-01-23_08h03.02.368,bars,2023.2.3,Win32,60.97560976,657b66ea316d21385b68909f,,,,,,,,,,,621.5587,622.5568,,,623.0569,623.3065,,52,52,,,,,,,,,,,,,,,,bars/019.png,bars/mask002.png,,,,,,,,,,,,7,1,,,,,,,8,10,9,10,,,,,,,,,,,622.5568,623.0569,623.3066,626.9566,space,3.6456,,626.9568,7,53,627.9573,627.9574,628.8069,space,0.8229,,0,36,36,36,1,45,105,,,,,,,,
,,5ec62e2f1de80c000cec6df7,65af5638b89350ece997c57c,2024-01-23_08h03.02.368,bars,2023.2.3,Win32,60.97560976,657b66ea316d21385b68909f,,,,,,,,,,,628.8074,629.8073,,,630.3076,630.5574,,58,238,,,,,,,,,,,,,,,,bars/044.png,bars/mask001.png,,,,,,,,,,,,4,1,,,,,,,10,8,10,9,,,,,,,,,,,629.8073,630.3075,630.5575,761.967,space,131.3917,,761.9672,17,83,762.9669,762.9669,765.3666,space,2.3488,,0,37,37,37,1,75,155,,,,,,,,
,,5ec62e2f1de80c000cec6df7,65af5638b89350ece997c57c,2024-01-23_08h03.02.368,bars,2023.2.3,Win32,60.97560976,657b66ea316d21385b68909f,,,,,,,,,,,765.3673,766.3671,,,766.8667,767.1172,,14,194,,,,,,,,,,,,,,,,bars/012.png,bars/mask001.png,,,,,,,,,,,,10,2,,,,,,,8,10,7,10,,,,,,,,,,,766.3673,766.8667,767.1173,771.7174,space,4.5851,,771.7175,76,1,772.717,772.7171,773.852,space,1.0898,,0,38,38,38,1,90,15,,,,,,,,
,,5ec62e2f1de80c000cec6df7,65af5638b89350ece997c57c,2024-01-23_08h03.02.368,bars,2023.2.3,Win32,60.97560976,657b66ea316d21385b68909f,,,,,,,,,,,773.8531,774.8509,,,775.3505,775.6012,,61,61,,,,,,,,,,,,,,,,bars/041.png,bars/mask000.png,,,,,,,,,,,,2,2,,,,,,,6,10,5,10,,,,,,,,,,,774.851,775.3505,775.6012,780.4017,space,4.7804,,780.402,41,24,781.4023,781.4024,784.3843,space,2.9272,,0,39,39,39,1,20,85,,,,,,,,
,,5ec62e2f1de80c000cec6df7,65af5638b89350ece997c57c,2024-01-23_08h03.02.368,bars,2023.2.3,Win32,60.97560976,657b66ea316d21385b68909f,,,,,,,,,,,784.3847,785.385,,,785.8853,786.1353,,28,208,,,,,,,,,,,,,,,,bars/036.png,bars/mask000.png,,,,,,,,,,,,7,2,,,,,,,4,10,2,10,,,,,,,,,,,785.3852,785.8852,786.1356,788.8679,space,2.7116,,788.8679,63,8,789.8698,789.8701,790.6539,space,0.7403,,0,40,40,40,1,145,20,,,,,,,,
,,5ec62e2f1de80c000cec6df7,65af5638b89350ece997c57c,2024-01-23_08h03.02.368,bars,2023.2.3,Win32,60.97560976,657b66ea316d21385b68909f,,,,,,,,,,,790.6556,791.6514,,,792.1523,792.4023,,134,134,,,,,,,,,,,,,,,,bars/016.png,bars/mask006.png,,,,,,,,,,,,0,2,,,,,,,6,10,5,10,,,,,,,,,,,791.6514,792.1522,792.4024,796.7033,space,4.2872,,796.7035,86,31,797.7024,797.7026,798.7872,space,1.0268,,0,41,41,41,1,40,165,,,,,,,,
,,5ec62e2f1de80c000cec6df7,65af5638b89350ece997c57c,2024-01-23_08h03.02.368,bars,2023.2.3,Win32,60.97560976,657b66ea316d21385b68909f,,,,,,,,,,,798.7911,799.7858,,,800.2852,800.5357,,35,35,,,,,,,,,,,,,,,,bars/048.png,bars/mask000.png,,,,,,,,,,,,2,1,,,,,,,4,10,4,10,,,,,,,,,,,799.7859,800.2851,800.5359,801.8532,space,1.3032,,801.8534,15,40,802.8529,802.853,803.936,space,1.0636,,0,42,42,42,1,50,175,,,,,,,,
,,5ec62e2f1de80c000cec6df7,65af5638b89350ece997c57c,2024-01-23_08h03.02.368,bars,2023.2.3,Win32,60.97560976,657b66ea316d21385b68909f,,,,,,,,,,,803.9367,804.936,,,805.4356,805.6863,,169,169,,,,,,,,,,,,,,,,bars/035.png,bars/mask000.png,,,,,,,,,,,,1,1,,,,,,,2,10,1,9,,,,,,,,,,,804.936,805.4355,805.6863,808.7197,space,3.0177,,808.7198,6,71,809.7203,809.7204,811.0033,space,1.2409,,0,43,43,43,1,175,60,,,,,,,,
,,5ec62e2f1de80c000cec6df7,65af5638b89350ece997c57c,2024-01-23_08h03.02.368,bars,2023.2.3,Win32,60.97560976,657b66ea316d21385b68909f,,,,,,,,,,,811.004,812.003,,,812.5031,812.7529,,20,200,,,,,,,,,,,,,,,,bars/004.png,bars/mask005.png,,,,,,,,,,,,0,1,,,,,,,0,8,0,6,,,,,,,,,,,812.0031,812.5031,812.753,814.8703,space,2.1042,,814.8703,5,75,815.8696,815.8696,819.2537,space,3.3542,,0,44,44,44,1,25,125,,,,,,,,
,,5ec62e2f1de80c000cec6df7,65af5638b89350ece997c57c,2024-01-23_08h03.02.368,bars,2023.2.3,Win32,60.97560976,657b66ea316d21385b68909f,,,,,,,,,,,819.2711,820.2703,,,820.7539,821.0039,,38,218,,,,,,,,,,,,,,,,bars/032.png,bars/mask005.png,,,,,,,,,,,,4,2,,,,,,,0,10,1,10,,,,,,,,,,,820.2704,820.7539,821.0039,823.7044,space,2.6846,,823.7045,87,18,824.7039,824.7039,827.4708,space,2.7306,,0,45,45,45,1,125,20,,,,,,,,
,,5ec62e2f1de80c000cec6df7,65af5638b89350ece997c57c,2024-01-23_08h03.02.368,bars,2023.2.3,Win32,60.97560976,657b66ea316d21385b68909f,,,,,,,,,,,827.4795,828.4717,,,828.9713,829.2211,,144,144,,,,,,,,,,,,,,,,bars/004.png,bars/mask005.png,,,,,,,,,,,,4,2,,,,,,,2,10,2,10,,,,,,,,,,,828.4719,828.9712,829.2211,832.1379,space,2.9066,,832.1379,61,19,833.1418,833.1419,835.8547,space,2.6583,,0,46,46,46,1,25,125,,,,,,,,
,,5ec62e2f1de80c000cec6df7,65af5638b89350ece997c57c,2024-01-23_08h03.02.368,bars,2023.2.3,Win32,60.97560976,657b66ea316d21385b68909f,,,,,,,,,,,835.8554,836.8546,,,837.3559,837.6051,,36,216,,,,,,,,,,,,,,,,bars/027.png,bars/mask002.png,,,,,,,,,,,,5,2,,,,,,,0,10,1,10,,,,,,,,,,,836.8547,837.3557,837.6052,841.8902,space,4.2708,,841.8907,74,14,842.8889,842.889,844.2063,space,1.2682,,0,47,47,47,1,110,50,,,,,,,,
,,5ec62e2f1de80c000cec6df7,65af5638b89350ece997c57c,2024-01-23_08h03.02.368,bars,2023.2.3,Win32,60.97560976,657b66ea316d21385b68909f,,,,,,,,,,,844.2078,845.2051,,,845.7054,845.955,,129,-51,,,,,,,,,,,,,,,,bars/044.png,bars/mask003.png,,,,,,,,,,,,1,2,,,,,,,2,10,2,10,,,,,,,,,,,845.2051,845.7054,845.9551,851.8734,space,5.9068,,851.874,54,26,852.8726,852.8726,853.973,space,1.065,,0,48,48,48,1,75,155,,,,,,,,
,,5ec62e2f1de80c000cec6df7,65af5638b89350ece997c57c,2024-01-23_08h03.02.368,bars,2023.2.3,Win32,60.97560976,657b66ea316d21385b68909f,,,,,,,,,,,853.9738,854.9722,,,855.4726,855.7234,,34,214,,,,,,,,,,,,,,,,bars/045.png,bars/mask008.png,,,,,,,,,,,,2,2,,,,,,,0,10,0,8,,,,,,,,,,,854.9723,855.4726,855.7234,858.5732,space,2.8422,,858.5733,66,24,859.5726,859.5726,860.3066,space,0.7057,,0,49,49,49,1,100,10,,,,,,,,
,,5ec62e2f1de80c000cec6df7,65af5638b89350ece997c57c,2024-01-23_08h03.02.368,bars,2023.2.3,Win32,60.97560976,657b66ea316d21385b68909f,,,,,,,,,,,,,,,,,,,,,,,,,,,,,,,,,,,,,,,,,,,,,,,,,,,,,,,,,,,,,,,,,,,,,,,,,,,,,,,,,,,,,,,,,,,,,860.3075,920.2979,0,0,0,2,1,sequence_tables/blk031.csv
,,5ec62e2f1de80c000cec6df7,65af5638b89350ece997c57c,2024-01-23_08h03.02.368,bars,2023.2.3,Win32,60.97560976,657b66ea316d21385b68909f,,,,,,,,,,,923.6461,924.6448,,,925.1443,925.381,,48,228,,,,,,,,,,,,,,,,bars/042.png,bars/mask000.png,,,,,,,,,,,,0,2,,,,,,,5,5,5,2,,,,,,920.3151,923.6291,space,3.3056,,924.6449,925.1441,925.381,928.3822,space,2.9847,,928.3822,83,27,929.3812,929.3812,929.393,,,,0,0,0,0,1,145,75,,,,,,,,
,,5ec62e2f1de80c000cec6df7,65af5638b89350ece997c57c,2024-01-23_08h03.02.368,bars,2023.2.3,Win32,60.97560976,657b66ea316d21385b68909f,,,,,,,,,,,929.3932,930.3945,,,930.8981,931.1494,,38,218,,,,,,,,,,,,,,,,bars/034.png,bars/mask005.png,,,,,,,,,,,,0,2,,,,,,,7,3,8,4,,,,,,,,,,,930.3946,930.8981,931.1497,935.3284,space,4.1571,,935.3285,87,27,936.3324,936.3324,936.3693,,,,0,1,1,1,1,125,65,,,,,,,,
,,5ec62e2f1de80c000cec6df7,65af5638b89350ece997c57c,2024-01-23_08h03.02.368,bars,2023.2.3,Win32,60.97560976,657b66ea316d21385b68909f,,,,,,,,,,,936.3697,937.3619,,,937.8619,938.1116,,22,22,,,,,,,,,,,,,,,,bars/031.png,bars/mask006.png,,,,,,,,,,,,3,2,,,,,,,5,5,4,6,,,,,,,,,,,937.3619,937.8618,938.1116,941.012,space,2.8849,,941.0121,82,13,942.012,942.012,942.0284,,,,0,2,2,2,1,120,35,,,,,,,,
,,5ec62e2f1de80c000cec6df7,65af5638b89350ece997c57c,2024-01-23_08h03.02.368,bars,2023.2.3,Win32,60.97560976,657b66ea316d21385b68909f,,,,,,,,,,,942.0287,943.0294,,,943.5176,943.7626,,132,132,,,,,,,,,,,,,,,,bars/028.png,bars/mask001.png,,,,,,,,,,,,4,2,,,,,,,7,7,7,7,,,,,,,,,,,943.0296,943.5175,943.7627,947.0904,space,3.3068,,947.0906,87,12,948.0795,948.0796,948.1161,,,,0,3,3,3,1,45,120,,,,,,,,
,,5ec62e2f1de80c000cec6df7,65af5638b89350ece997c57c,2024-01-23_08h03.02.368,bars,2023.2.3,Win32,60.97560976,657b66ea316d21385b68909f,,,,,,,,,,,948.1164,949.1135,,,949.6134,949.8631,,151,151,,,,,,,,,,,,,,,,bars/007.png,bars/mask004.png,,,,,,,,,,,,1,1,,,,,,,5,5,6,4,,,,,,,,,,,949.1137,949.6133,949.8631,956.0315,space,6.1525,,956.0318,24,84,957.0297,957.0297,957.0413,,,,0,4,4,4,1,175,55,,,,,,,,
,,5ec62e2f1de80c000cec6df7,65af5638b89350ece997c57c,2024-01-23_08h03.02.368,bars,2023.2.3,Win32,60.97560976,657b66ea316d21385b68909f,,,,,,,,,,,957.0414,958.0298,,,958.5305,958.7809,,7,187,,,,,,,,,,,,,,,,bars/012.png,bars/mask009.png,,,,,,,,,,,,6,2,,,,,,,7,7,8,8,,,,,,,,,,,958.0298,958.5305,958.7811,963.3475,space,4.5521,,963.3476,83,8,964.3474,964.3476,964.3841,,,,0,5,5,5,1,90,15,,,,,,,,
,,5ec62e2f1de80c000cec6df7,65af5638b89350ece997c57c,2024-01-23_08h03.02.368,bars,2023.2.3,Win32,60.97560976,657b66ea316d21385b68909f,,,,,,,,,,,964.3843,965.3802,,,965.8813,966.1309,,39,219,,,,,,,,,,,,,,,,bars/026.png,bars/mask002.png,,,,,,,,,,,,6,1,,,,,,,9,9,7,9,,,,,,,,,,,965.3803,965.8812,966.131,970.3864,space,4.2479,,970.3864,4,46,971.3808,971.3809,971.4042,,,,0,6,6,6,1,35,85,,,,,,,,
,,5ec62e2f1de80c000cec6df7,65af5638b89350ece997c57c,2024-01-23_08h03.02.368,bars,2023.2.3,Win32,60.97560976,657b66ea316d21385b68909f,,,,,,,,,,,971.4045,972.4004,,,972.9072,973.1482,,109,109,,,,,,,,,,,,,,,,bars/038.png,bars/mask004.png,,,,,,,,,,,,0,2,,,,,,,10,10,10,8,,,,,,,,,,,972.4004,972.9071,973.1483,977.385,space,4.2304,,977.385,56,39,978.3838,978.3838,978.3968,,,,0,7,7,7,1,165,70,,,,,,,,
,,5ec62e2f1de80c000cec6df7,65af5638b89350ece997c57c,2024-01-23_08h03.02.368,bars,2023.2.3,Win32,60.97560976,657b66ea316d21385b68909f,,,,,,,,,,,978.3972,979.4006,,,979.8986,980.1529,,19,19,,,,,,,,,,,,,,,,bars/032.png,bars/mask007.png,,,,,,,,,,,,10,2,,,,,,,10,10,10,10,,,,,,,,,,,979.4007,979.8985,980.1529,986.2407,space,6.0706,,986.2409,74,1,987.2335,987.2337,987.2776,,,,0,8,8,8,1,125,20,,,,,,,,
,,5ec62e2f1de80c000cec6df7,65af5638b89350ece997c57c,2024-01-23_08h03.02.368,bars,2023.2.3,Win32,60.97560976,657b66ea316d21385b68909f,,,,,,,,,,,987.2779,988.2824,,,988.7824,989.0336,,28,28,,,,,,,,,,,,,,,,bars/035.png,bars/mask005.png,,,,,,,,,,,,0,2,,,,,,,8,10,9,10,,,,,,,,,,,988.2824,988.7824,989.0336,991.5321,space,2.4812,,991.5321,33,32,992.5323,992.5323,992.5338,,,,0,9,9,9,1,175,60,,,,,,,,
,,5ec62e2f1de80c000cec6df7,65af5638b89350ece997c57c,2024-01-23_08h03.02.368,bars,2023.2.3,Win32,60.97560976,657b66ea316d21385b68909f,,,,,,,,,,,992.5343,993.5318,,,994.032,994.282,,43,223,,,,,,,,,,,,,,,,bars/026.png,bars/mask002.png,,,,,,,,,,,,5,1,,,,,,,6,8,7,7,,,,,,,,,,,993.5318,994.032,994.282,997.2331,space,2.9405,,997.2332,8,42,998.233,998.2331,998.2662,,,,0,10,10,10,1,35,85,,,,,,,,
,,5ec62e2f1de80c000cec6df7,65af5638b89350ece997c57c,2024-01-23_08h03.02.368,bars,2023.2.3,Win32,60.97560976,657b66ea316d21385b68909f,,,,,,,,,,,998.2665,999.2657,,,999.7656,1000.005,,130,130,,,,,,,,,,,,,,,,bars/049.png,bars/mask005.png,,,,,,,,,,,,3,2,,,,,,,4,6,5,5,,,,,,,,,,,999.2657,999.7655,1000.0051,1003.2088,space,3.197,,1003.209,30,15,1004.2042,1004.2042,1004.2396,,,,0,11,11,11,1,160,115,,,,,,,,
,,5ec62e2f1de80c000cec6df7,65af5638b89350ece997c57c,2024-01-23_08h03.02.368,bars,2023.2.3,Win32,60.97560976,657b66ea316d21385b68909f,,,,,,,,,,,1004.2404,1005.233,,,1005.7336,1005.9838,,48,48,,,,,,,,,,,,,,,,bars/025.png,bars/mask004.png,,,,,,,,,,,,2,2,,,,,,,6,4,6,3,,,,,,,,,,,1005.233,1005.7335,1005.9839,1008.7549,space,2.7606,,1008.7551,57,8,1009.7505,1009.7506,1009.787,,,,0,12,12,12,1,105,40,,,,,,,,
,,5ec62e2f1de80c000cec6df7,65af5638b89350ece997c57c,2024-01-23_08h03.02.368,bars,2023.2.3,Win32,60.97560976,657b66ea316d21385b68909f,,,,,,,,,,,1009.7874,1010.784,,,1011.2834,1011.5343,,39,219,,,,,,,,,,,,,,,,bars/004.png,bars/mask003.png,,,,,,,,,,,,3,1,,,,,,,8,6,6,6,,,,,,,,,,,1010.7841,1011.2834,1011.5343,1016.7347,space,5.1908,,1016.7351,14,86,1017.7343,1017.7345,1017.7636,,,,0,13,13,13,1,25,125,,,,,,,,
,,5ec62e2f1de80c000cec6df7,65af5638b89350ece997c57c,2024-01-23_08h03.02.368,bars,2023.2.3,Win32,60.97560976,657b66ea316d21385b68909f,,,,,,,,,,,1017.7639,1018.7669,,,1019.2675,1019.5173,,71,71,,,,,,,,,,,,,,,,bars/042.png,bars/mask003.png,,,,,,,,,,,,3,2,,,,,,,6,4,5,4,,,,,,,,,,,1018.7669,1019.2674,1019.5174,1021.8008,space,2.266,,1021.8008,74,4,1022.8009,1022.8009,1022.8311,,,,0,14,14,14,1,145,75,,,,,,,,
,,5ec62e2f1de80c000cec6df7,65af5638b89350ece997c57c,2024-01-23_08h03.02.368,bars,2023.2.3,Win32,60.97560976,657b66ea316d21385b68909f,,,,,,,,,,,1022.8316,1023.8352,,,1024.339,1024.5849,,112,112,,,,,,,,,,,,,,,,bars/039.png,bars/mask005.png,,,,,,,,,,,,2,2,,,,,,,4,2,3,2,,,,,,,,,,,1023.8353,1024.3389,1024.5849,1027.4352,space,2.8271,,1027.4352,63,7,1028.44,1028.4402,1028.4714,,,,0,15,15,15,1,175,105,,,,,,,,
,,5ec62e2f1de80c000cec6df7,65af5638b89350ece997c57c,2024-01-23_08h03.02.368,bars,2023.2.3,Win32,60.97560976,657b66ea316d21385b68909f,,,,,,,,,,,1028.4716,1029.4687,,,1029.9686,1030.2184,,43,43,,,,,,,,,,,,,,,,bars/031.png,bars/mask008.png,,,,,,,,,,,,4,2,,,,,,,2,4,3,5,,,,,,,,,,,1029.4688,1029.9686,1030.2185,1033.586,space,3.3575,,1033.5861,77,8,1034.5857,1034.5858,1034.6222,,,,0,16,16,16,1,120,35,,,,,,,,
,,5ec62e2f1de80c000cec6df7,65af5638b89350ece997c57c,2024-01-23_08h03.02.368,bars,2023.2.3,Win32,60.97560976,657b66ea316d21385b68909f,,,,,,,,,,,1034.6225,1035.6185,,,1036.1192,1036.3696,,137,137,,,,,,,,,,,,,,,,bars/019.png,bars/mask009.png,,,,,,,,,,,,0,2,,,,,,,0,2,0,4,,,,,,,,,,,1035.6185,1036.1191,1036.3698,1041.0191,space,4.6307,,1041.0192,88,32,1042.0188,1042.0188,1042.0383,,,,0,17,17,17,1,45,105,,,,,,,,
,,5ec62e2f1de80c000cec6df7,65af5638b89350ece997c57c,2024-01-23_08h03.02.368,bars,2023.2.3,Win32,60.97560976,657b66ea316d21385b68909f,,,,,,,,,,,1042.0385,1043.0357,,,1043.5367,1043.7864,,131,131,,,,,,,,,,,,,,,,bars/042.png,bars/mask003.png,,,,,,,,,,,,1,1,,,,,,,0,0,2,1,,,,,,,,,,,1043.0357,1043.5364,1043.7864,1045.0028,space,1.1977,,1045.0028,14,56,1046.0023,1046.0023,1046.0048,,,,0,18,18,18,1,145,75,,,,,,,,
,,5ec62e2f1de80c000cec6df7,65af5638b89350ece997c57c,2024-01-23_08h03.02.368,bars,2023.2.3,Win32,60.97560976,657b66ea316d21385b68909f,,,,,,,,,,,1046.0051,1047.0028,,,1047.5028,1047.7525,,44,44,,,,,,,,,,,,,,,,bars/041.png,bars/mask004.png,,,,,,,,,,,,0,1,,,,,,,0,0,1,0,,,,,,,,,,,1047.0029,1047.5028,1047.7525,1050.0698,space,2.3028,,1050.0698,24,41,1051.0695,1051.0695,1051.0951,,,,0,19,19,19,1,20,85,,,,,,,,
,,5ec62e2f1de80c000cec6df7,65af5638b89350ece997c57c,2024-01-23_08h03.02.368,bars,2023.2.3,Win32,60.97560976,657b66ea316d21385b68909f,,,,,,,,,,,1051.0954,1052.0866,,,1052.5865,1052.8365,,60,240,,,,,,,,,,,,,,,,bars/041.png,bars/mask008.png,,,,,,,,,,,,0,2,,,,,,,2,2,3,2,,,,,,,,,,,1052.0869,1052.5864,1052.8366,1057.7376,space,4.8933,,1057.7377,40,25,1058.7368,1058.7369,1058.7671,,,,0,20,20,20,1,20,85,,,,,,,,
,,5ec62e2f1de80c000cec6df7,65af5638b89350ece997c57c,2024-01-23_08h03.02.368,bars,2023.2.3,Win32,60.97560976,657b66ea316d21385b68909f,,,,,,,,,,,1058.7677,1059.7697,,,1060.2699,1060.5199,,147,-33,,,,,,,,,,,,,,,,bars/021.png,bars/mask006.png,,,,,,,,,,,,0,1,,,,,,,0,0,0,0,,,,,,,,,,,1059.7698,1060.2699,1060.5199,1064.1373,space,3.6021,,1064.1374,8,77,1065.137,1065.137,1065.1504,,,,0,21,21,21,1,155,70,,,,,,,,
,,5ec62e2f1de80c000cec6df7,65af5638b89350ece997c57c,2024-01-23_08h03.02.368,bars,2023.2.3,Win32,60.97560976,657b66ea316d21385b68909f,,,,,,,,,,,1065.1506,1066.1542,,,1066.6541,1066.9045,,103,103,,,,,,,,,,,,,,,,bars/015.png,bars/mask009.png,,,,,,,,,,,,0,1,,,,,,,0,2,0,2,,,,,,,,,,,1066.1543,1066.654,1066.9046,1068.0719,space,1.1614,,1068.072,7,57,1069.0713,1069.0713,1069.0955,,,,0,22,22,22,1,110,160,,,,,,,,
,,5ec62e2f1de80c000cec6df7,65af5638b89350ece997c57c,2024-01-23_08h03.02.368,bars,2023.2.3,Win32,60.97560976,657b66ea316d21385b68909f,,,,,,,,,,,1069.0957,1070.0882,,,1070.5877,1070.8377,,149,149,,,,,,,,,,,,,,,,bars/005.png,bars/mask007.png,,,,,,,,,,,,4,2,,,,,,,2,4,2,6,,,,,,,,,,,1070.0882,1070.5877,1070.8377,1072.6546,space,1.8077,,1072.6547,41,9,1073.654,1073.654,1073.6673,,,,0,23,23,23,1,10,140,,,,,,,,
,,5ec62e2f1de80c000cec6df7,65af5638b89350ece997c57c,2024-01-23_08h03.02.368,bars,2023.2.3,Win32,60.97560976,657b66ea316d21385b68909f,,,,,,,,,,,1073.6676,1074.6708,,,1075.172,1075.4218,,58,58,,,,,,,,,,,,,,,,bars/026.png,bars/mask000.png,,,,,,,,,,,,1,1,,,,,,,4,2,5,3,,,,,,,,,,,1074.671,1075.1718,1075.4219,1078.205,space,2.7718,,1078.2052,23,27,1079.207,1079.207,1079.2209,,,,0,24,24,24,1,35,85,,,,,,,,
,,5ec62e2f1de80c000cec6df7,65af5638b89350ece997c57c,2024-01-23_08h03.02.368,bars,2023.2.3,Win32,60.97560976,657b66ea316d21385b68909f,,,,,,,,,,,1079.2215,1080.2216,,,1080.722,1080.972,,152,152,,,,,,,,,,,,,,,,bars/040.png,bars/mask000.png,,,,,,,,,,,,1,1,,,,,,,2,4,2,4,,,,,,,,,,,1080.2216,1080.7219,1080.972,1084.0409,space,3.0579,,1084.0411,12,33,1085.0396,1085.0396,1085.0731,,,,0,25,25,25,1,140,5,,,,,,,,
,,5ec62e2f1de80c000cec6df7,65af5638b89350ece997c57c,2024-01-23_08h03.02.368,bars,2023.2.3,Win32,60.97560976,657b66ea316d21385b68909f,,,,,,,,,,,1085.0736,1086.0726,,,1086.5719,1086.8218,,72,72,,,,,,,,,,,,,,,,bars/034.png,bars/mask004.png,,,,,,,,,,,,5,2,,,,,,,0,6,0,7,,,,,,,,,,,1086.0727,1086.5718,1086.8218,1088.5396,space,1.7026,,1088.5396,53,7,1089.5388,1089.5388,1089.5556,,,,0,26,26,26,1,125,65,,,,,,,,
,,5ec62e2f1de80c000cec6df7,65af5638b89350ece997c57c,2024-01-23_08h03.02.368,bars,2023.2.3,Win32,60.97560976,657b66ea316d21385b68909f,,,,,,,,,,,1089.5559,1090.5558,,,1091.0557,1091.3059,,113,113,,,,,,,,,,,,,,,,bars/038.png,bars/mask000.png,,,,,,,,,,,,0,2,,,,,,,2,8,2,9,,,,,,,,,,,1090.5559,1091.0557,1091.3059,1095.508,space,4.194,,1095.5083,52,43,1096.5059,1096.506,1096.5294,,,,0,27,27,27,1,165,70,,,,,,,,
,,5ec62e2f1de80c000cec6df7,65af5638b89350ece997c57c,2024-01-23_08h03.02.368,bars,2023.2.3,Win32,60.97560976,657b66ea316d21385b68909f,,,,,,,,,,,1096.5297,1097.5276,,,1098.0276,1098.2757,,128,128,,,,,,,,,,,,,,,,bars/004.png,bars/mask006.png,,,,,,,,,,,,5,2,,,,,,,0,6,0,5,,,,,,,,,,,1097.5277,1098.0273,1098.2758,1100.7103,space,2.4173,,1100.7103,77,3,1101.7079,1101.708,1101.7168,,,,0,28,28,28,1,25,125,,,,,,,,
,,5ec62e2f1de80c000cec6df7,65af5638b89350ece997c57c,2024-01-23_08h03.02.368,bars,2023.2.3,Win32,60.97560976,657b66ea316d21385b68909f,,,,,,,,,,,1101.717,1102.7112,,,1103.2072,1103.4581,,68,68,,,,,,,,,,,,,,,,bars/018.png,bars/mask008.png,,,,,,,,,,,,1,2,,,,,,,0,4,0,4,,,,,,,,,,,1102.7114,1103.2071,1103.4583,1106.4571,space,2.9731,,1106.4573,82,22,1107.4566,1107.4566,1107.4686,,,,0,29,29,29,1,150,90,,,,,,,,
,,5ec62e2f1de80c000cec6df7,65af5638b89350ece997c57c,2024-01-23_08h03.02.368,bars,2023.2.3,Win32,60.97560976,657b66ea316d21385b68909f,,,,,,,,,,,1107.4688,1108.4568,,,1108.9567,1109.2066,,137,137,,,,,,,,,,,,,,,,bars/032.png,bars/mask007.png,,,,,,,,,,,,1,1,,,,,,,2,6,2,7,,,,,,,,,,,1108.4569,1108.9567,1109.2067,1111.3128,space,2.1005,,1111.3128,12,63,1112.3074,1112.3075,1112.3133,,,,0,30,30,30,1,125,20,,,,,,,,
,,5ec62e2f1de80c000cec6df7,65af5638b89350ece997c57c,2024-01-23_08h03.02.368,bars,2023.2.3,Win32,60.97560976,657b66ea316d21385b68909f,,,,,,,,,,,1112.3139,1113.3069,,,1113.8071,1114.0573,,151,-29,,,,,,,,,,,,,,,,bars/031.png,bars/mask002.png,,,,,,,,,,,,0,1,,,,,,,0,4,0,4,,,,,,,,,,,1113.307,1113.8071,1114.0573,1116.6574,space,2.5918,,1116.6574,31,64,1117.6585,1117.6585,1117.6831,,,,0,31,31,31,1,120,35,,,,,,,,
,,5ec62e2f1de80c000cec6df7,65af5638b89350ece997c57c,2024-01-23_08h03.02.368,bars,2023.2.3,Win32,60.97560976,657b66ea316d21385b68909f,,,,,,,,,,,1117.6833,1118.6751,,,1119.1738,1119.4242,,35,35,,,,,,,,,,,,,,,,bars/021.png,bars/mask001.png,,,,,,,,,,,,0,2,,,,,,,2,6,2,5,,,,,,,,,,,1118.6752,1119.1738,1119.4242,1121.5746,space,2.1352,,1121.5748,60,35,1122.5742,1122.5743,1122.5777,,,,0,32,32,32,1,155,70,,,,,,,,
,,5ec62e2f1de80c000cec6df7,65af5638b89350ece997c57c,2024-01-23_08h03.02.368,bars,2023.2.3,Win32,60.97560976,657b66ea316d21385b68909f,,,,,,,,,,,1122.578,1123.5752,,,1124.0751,1124.3249,,116,116,,,,,,,,,,,,,,,,bars/009.png,bars/mask001.png,,,,,,,,,,,,3,2,,,,,,,4,4,4,5,,,,,,,,,,,1123.5755,1124.0749,1124.3251,1128.3936,space,4.0488,,1128.3936,79,11,1129.3959,1129.3961,1129.426,,,,0,33,33,33,1,15,105,,,,,,,,
,,5ec62e2f1de80c000cec6df7,65af5638b89350ece997c57c,2024-01-23_08h03.02.368,bars,2023.2.3,Win32,60.97560976,657b66ea316d21385b68909f,,,,,,,,,,,1129.4264,1130.4252,,,1130.9263,1131.175,,49,49,,,,,,,,,,,,,,,,bars/029.png,bars/mask000.png,,,,,,,,,,,,2,2,,,,,,,2,2,2,2,,,,,,,,,,,1130.4253,1130.9259,1131.175,1135.2755,space,4.0921,,1135.2756,41,4,1136.2753,1136.2754,1136.2907,,,,0,34,34,34,1,90,45,,,,,,,,
,,5ec62e2f1de80c000cec6df7,65af5638b89350ece997c57c,2024-01-23_08h03.02.368,bars,2023.2.3,Win32,60.97560976,657b66ea316d21385b68909f,,,,,,,,,,,1136.2909,1137.2927,,,1137.7927,1138.0424,,39,39,,,,,,,,,,,,,,,,bars/017.png,bars/mask000.png,,,,,,,,,,,,0,2,,,,,,,0,0,0,0,,,,,,,,,,,1137.2927,1137.7927,1138.0424,1140.7597,space,2.7028,,1140.7597,74,6,1141.7586,1141.7586,1141.7701,,,,0,35,35,35,1,145,45,,,,,,,,
,,5ec62e2f1de80c000cec6df7,65af5638b89350ece997c57c,2024-01-23_08h03.02.368,bars,2023.2.3,Win32,60.97560976,657b66ea316d21385b68909f,,,,,,,,,,,1141.7703,1142.7594,,,1143.2589,1143.5095,,114,114,,,,,,,,,,,,,,,,bars/011.png,bars/mask006.png,,,,,,,,,,,,0,2,,,,,,,2,2,3,2,,,,,,,,,,,1142.7595,1143.2588,1143.5096,1146.0449,space,2.5291,,1146.045,46,29,1147.0429,1147.043,1147.0446,,,,0,36,36,36,1,160,85,,,,,,,,
,,5ec62e2f1de80c000cec6df7,65af5638b89350ece997c57c,2024-01-23_08h03.02.368,bars,2023.2.3,Win32,60.97560976,657b66ea316d21385b68909f,,,,,,,,,,,1147.0453,1148.0426,,,1148.5427,1148.7931,,87,87,,,,,,,,,,,,,,,,bars/018.png,bars/mask000.png,,,,,,,,,,,,0,2,,,,,,,4,0,3,0,,,,,,,,,,,1148.0427,1148.5426,1148.7933,1150.9599,space,2.1561,,1150.96,63,3,1151.9603,1151.9604,1151.9852,,,,0,37,37,37,1,150,90,,,,,,,,
,,5ec62e2f1de80c000cec6df7,65af5638b89350ece997c57c,2024-01-23_08h03.02.368,bars,2023.2.3,Win32,60.97560976,657b66ea316d21385b68909f,,,,,,,,,,,1151.9865,1152.9771,,,1153.4794,1153.7273,,113,113,,,,,,,,,,,,,,,,bars/015.png,bars/mask008.png,,,,,,,,,,,,2,1,,,,,,,2,2,2,3,,,,,,,,,,,1152.9771,1153.4794,1153.7274,1157.3151,space,3.5806,,1157.3151,3,47,1158.3134,1158.3135,1158.3232,,,,0,38,38,38,1,110,160,,,,,,,,
,,5ec62e2f1de80c000cec6df7,65af5638b89350ece997c57c,2024-01-23_08h03.02.368,bars,2023.2.3,Win32,60.97560976,657b66ea316d21385b68909f,,,,,,,,,,,1158.3233,1159.327,,,1159.8273,1160.0798,,33,33,,,,,,,,,,,,,,,,bars/025.png,bars/mask001.png,,,,,,,,,,,,4,2,,,,,,,4,4,5,5,,,,,,,,,,,1159.3271,1159.8272,1160.0798,1161.6973,space,1.5998,,1161.6974,72,7,1162.6943,1162.6944,1162.6979,,,,0,39,39,39,1,105,40,,,,,,,,
,,5ec62e2f1de80c000cec6df7,65af5638b89350ece997c57c,2024-01-23_08h03.02.368,bars,2023.2.3,Win32,60.97560976,657b66ea316d21385b68909f,,,,,,,,,,,1162.6984,1163.6982,,,1164.1941,1164.4479,,116,116,,,,,,,,,,,,,,,,bars/028.png,bars/mask000.png,,,,,,,,,,,,1,2,,,,,,,6,2,6,1,,,,,,,,,,,1163.6984,1164.194,1164.4479,1168.8504,space,4.3856,,1168.8505,71,4,1169.844,1169.8441,1169.8765,,,,0,40,40,40,1,45,120,,,,,,,,
,,5ec62e2f1de80c000cec6df7,65af5638b89350ece997c57c,2024-01-23_08h03.02.368,bars,2023.2.3,Win32,60.97560976,657b66ea316d21385b68909f,,,,,,,,,,,1169.8768,1170.8774,,,1171.3784,1171.6284,,9,189,,,,,,,,,,,,,,,,bars/040.png,bars/mask008.png,,,,,,,,,,,,3,2,,,,,,,4,4,3,4,,,,,,,,,,,1170.8775,1171.3783,1171.6285,1175.3463,space,3.7016,,1175.3465,49,4,1176.3453,1176.3455,1176.3797,,,,0,41,41,41,1,140,5,,,,,,,,
,,5ec62e2f1de80c000cec6df7,65af5638b89350ece997c57c,2024-01-23_08h03.02.368,bars,2023.2.3,Win32,60.97560976,657b66ea316d21385b68909f,,,,,,,,,,,1176.3802,1177.3788,,,1177.8824,1178.1323,,58,58,,,,,,,,,,,,,,,,bars/047.png,bars/mask009.png,,,,,,,,,,,,1,2,,,,,,,6,2,5,1,,,,,,,,,,,1177.3791,1177.8823,1178.1323,1180.9177,space,2.7681,,1180.9177,43,12,1181.9116,1181.9117,1181.9222,,,,0,42,42,42,1,15,70,,,,,,,,
,,5ec62e2f1de80c000cec6df7,65af5638b89350ece997c57c,2024-01-23_08h03.02.368,bars,2023.2.3,Win32,60.97560976,657b66ea316d21385b68909f,,,,,,,,,,,1181.9224,1182.9168,,,1183.4128,1183.6661,,22,22,,,,,,,,,,,,,,,,bars/035.png,bars/mask004.png,,,,,,,,,,,,1,1,,,,,,,8,0,8,0,,,,,,,,,,,1182.9168,1183.4126,1183.6662,1190.4153,space,6.7318,,1190.4154,27,38,1191.4126,1191.4127,1191.4365,,,,0,43,43,43,1,175,60,,,,,,,,
,,5ec62e2f1de80c000cec6df7,65af5638b89350ece997c57c,2024-01-23_08h03.02.368,bars,2023.2.3,Win32,60.97560976,657b66ea316d21385b68909f,,,,,,,,,,,1191.4369,1192.4304,,,1192.9309,1193.1803,,85,85,,,,,,,,,,,,,,,,bars/011.png,bars/mask005.png,,,,,,,,,,,,0,2,,,,,,,6,2,7,0,,,,,,,,,,,1192.4305,1192.9308,1193.1805,1196.1492,space,2.9561,,1196.1493,75,0,1197.1472,1197.1473,1197.1924,,,,0,44,44,44,1,160,85,,,,,,,,
,,5ec62e2f1de80c000cec6df7,65af5638b89350ece997c57c,2024-01-23_08h03.02.368,bars,2023.2.3,Win32,60.97560976,657b66ea316d21385b68909f,,,,,,,,,,,1197.1927,1198.1802,,,1198.6808,1198.9301,,0,0,,,,,,,,,,,,,,,,bars/007.png,bars/mask004.png,,,,,,,,,,,,4,1,,,,,,,4,4,5,5,,,,,,,,,,,1198.1803,1198.6808,1198.9302,1203.2373,space,4.2984,,1203.2374,5,55,1204.2308,1204.2308,1204.2815,,,,0,45,45,45,1,175,55,,,,,,,,
,,5ec62e2f1de80c000cec6df7,65af5638b89350ece997c57c,2024-01-23_08h03.02.368,bars,2023.2.3,Win32,60.97560976,657b66ea316d21385b68909f,,,,,,,,,,,1204.2818,1205.2801,,,1205.7812,1206.0306,,33,213,,,,,,,,,,,,,,,,bars/014.png,bars/mask004.png,,,,,,,,,,,,0,2,,,,,,,6,6,7,4,,,,,,,,,,,1205.2801,1205.7808,1206.0306,1207.998,space,1.9513,,1207.9981,47,33,1208.9969,1208.997,1209.0011,,,,0,46,46,46,1,80,0,,,,,,,,
,,5ec62e2f1de80c000cec6df7,65af5638b89350ece997c57c,2024-01-23_08h03.02.368,bars,2023.2.3,Win32,60.97560976,657b66ea316d21385b68909f,,,,,,,,,,,1209.0017,1209.9976,,,1210.497,1210.7467,,135,135,,,,,,,,,,,,,,,,bars/028.png,bars/mask006.png,,,,,,,,,,,,3,2,,,,,,,4,8,3,6,,,,,,,,,,,1209.9978,1210.4969,1210.7468,1213.4691,space,2.7155,,1213.4693,90,15,1214.4645,1214.4646,1214.4888,,,,0,47,47,47,1,45,120,,,,,,,,
,,5ec62e2f1de80c000cec6df7,65af5638b89350ece997c57c,2024-01-23_08h03.02.368,bars,2023.2.3,Win32,60.97560976,657b66ea316d21385b68909f,,,,,,,,,,,1214.4891,1215.4858,,,1215.9815,1216.2319,,45,45,,,,,,,,,,,,,,,,bars/046.png,bars/mask007.png,,,,,,,,,,,,0,2,,,,,,,6,10,7,10,,,,,,,,,,,1215.4858,1215.9813,1216.2321,1221.4811,space,5.2366,,1221.4812,70,40,1222.4813,1222.4814,1222.4995,,,,0,48,48,48,1,155,85,,,,,,,,
,,5ec62e2f1de80c000cec6df7,65af5638b89350ece997c57c,2024-01-23_08h03.02.368,bars,2023.2.3,Win32,60.97560976,657b66ea316d21385b68909f,,,,,,,,,,,1222.4997,1223.4988,,,1223.9987,1224.2488,,40,40,,,,,,,,,,,,,,,,bars/007.png,bars/mask001.png,,,,,,,,,,,,5,2,,,,,,,8,10,8,10,,,,,,,,,,,1223.4988,1223.9986,1224.2488,1228.4163,space,4.1567,,1228.4166,45,15,1229.4149,1229.4149,1229.4361,,,,0,49,49,49,1,175,55,,,,,,,,
,,5ec62e2f1de80c000cec6df7,65af5638b89350ece997c57c,2024-01-23_08h03.02.368,bars,2023.2.3,Win32,60.97560976,657b66ea316d21385b68909f,,,,,,,,,,,,,,,,,,,,,,,,,,,,,,,,,,,,,,,,,,,,,,,,,,,,,,,,,,,,,,,,,,,,,,,,,,,,,,,,,,,,,,,,,,,,,1229.4363,1289.4366,0,1,1,0,1,sequence_tables/blk011.csv
,,5ec62e2f1de80c000cec6df7,65af5638b89350ece997c57c,2024-01-23_08h03.02.368,bars,2023.2.3,Win32,60.97560976,657b66ea316d21385b68909f,,,,,,,,,,,1428.0269,1428.9964,,,1429.496,1429.7328,,18,18,,,,,,,,,,,,,,,,bars/041.png,bars/mask001.png,,,,,,,,,,,,4,1,,,,,,,4,2,4,1,,,,,,1289.4804,1427.9804,space,138.4882,,1428.9966,1429.4959,1429.7328,1434.4204,space,4.6696,,1434.4206,2,67,1435.4133,1435.4134,1435.4572,,,,0,0,0,0,1,20,85,,,,,,,,
,,5ec62e2f1de80c000cec6df7,65af5638b89350ece997c57c,2024-01-23_08h03.02.368,bars,2023.2.3,Win32,60.97560976,657b66ea316d21385b68909f,,,,,,,,,,,1435.4575,1436.4468,,,1436.9496,1437.196,,61,61,,,,,,,,,,,,,,,,bars/029.png,bars/mask005.png,,,,,,,,,,,,1,2,,,,,,,2,4,3,3,,,,,,,,,,,1436.447,1436.9495,1437.1961,1440.1158,space,2.8991,,1440.1159,29,16,1441.1159,1441.116,1441.1283,,,,0,1,1,1,1,90,45,,,,,,,,
,,5ec62e2f1de80c000cec6df7,65af5638b89350ece997c57c,2024-01-23_08h03.02.368,bars,2023.2.3,Win32,60.97560976,657b66ea316d21385b68909f,,,,,,,,,,,1441.1285,1442.119,,,1442.614,1442.8676,,84,84,,,,,,,,,,,,,,,,bars/031.png,bars/mask005.png,,,,,,,,,,,,0,1,,,,,,,0,6,0,6,,,,,,,,,,,1442.119,1442.614,1442.8678,1446.0846,space,3.2007,,1446.0846,36,49,1447.084,1447.0841,1447.1143,,,,0,2,2,2,1,120,35,,,,,,,,
,,5ec62e2f1de80c000cec6df7,65af5638b89350ece997c57c,2024-01-23_08h03.02.368,bars,2023.2.3,Win32,60.97560976,657b66ea316d21385b68909f,,,,,,,,,,,1447.1148,1448.1141,,,1448.614,1448.864,,25,25,,,,,,,,,,,,,,,,bars/035.png,bars/mask006.png,,,,,,,,,,,,0,1,,,,,,,2,4,0,5,,,,,,,,,,,1448.1143,1448.614,1448.8641,1454.2647,space,5.3851,,1454.2648,30,35,1455.2641,1455.2642,1455.2933,,,,0,3,3,3,1,175,60,,,,,,,,
,,5ec62e2f1de80c000cec6df7,65af5638b89350ece997c57c,2024-01-23_08h03.02.368,bars,2023.2.3,Win32,60.97560976,657b66ea316d21385b68909f,,,,,,,,,,,1455.2943,1456.2974,,,1456.7973,1457.0485,,29,29,,,,,,,,,,,,,,,,bars/036.png,bars/mask005.png,,,,,,,,,,,,2,2,,,,,,,0,2,0,3,,,,,,,,,,,1456.2974,1456.7972,1457.0486,1463.816,space,6.7563,,1463.816,64,9,1464.8173,1464.8174,1464.8401,,,,0,4,4,4,1,145,20,,,,,,,,
,,5ec62e2f1de80c000cec6df7,65af5638b89350ece997c57c,2024-01-23_08h03.02.368,bars,2023.2.3,Win32,60.97560976,657b66ea316d21385b68909f,,,,,,,,,,,1464.8403,1465.8313,,,1466.3323,1466.5819,,154,-26,,,,,,,,,,,,,,,,bars/005.png,bars/mask008.png,,,,,,,,,,,,3,2,,,,,,,0,4,0,5,,,,,,,,,,,1465.8313,1466.3322,1466.5819,1468.7157,space,2.1155,,1468.7159,36,14,1469.7159,1469.7161,1469.7187,,,,0,5,5,5,1,10,140,,,,,,,,
,,5ec62e2f1de80c000cec6df7,65af5638b89350ece997c57c,2024-01-23_08h03.02.368,bars,2023.2.3,Win32,60.97560976,657b66ea316d21385b68909f,,,,,,,,,,,1469.7196,1470.7195,,,1471.2156,1471.4653,,57,57,,,,,,,,,,,,,,,,bars/039.png,bars/mask008.png,,,,,,,,,,,,0,2,,,,,,,0,2,0,1,,,,,,,,,,,1470.7196,1471.2154,1471.4653,1478.1831,space,6.7074,,1478.1833,62,48,1479.1824,1479.1824,1479.2055,,,,0,6,6,6,1,175,105,,,,,,,,
,,5ec62e2f1de80c000cec6df7,65af5638b89350ece997c57c,2024-01-23_08h03.02.368,bars,2023.2.3,Win32,60.97560976,657b66ea316d21385b68909f,,,,,,,,,,,1479.206,1480.2037,,,1480.7028,1480.9499,,129,129,,,,,,,,,,,,,,,,bars/037.png,bars/mask009.png,,,,,,,,,,,,0,1,,,,,,,0,0,1,1,,,,,,,,,,,1480.2037,1480.7027,1480.9501,1483.4201,space,2.4507,,1483.4202,21,24,1484.4167,1484.4169,1484.4512,,,,0,7,7,7,1,150,105,,,,,,,,
,,5ec62e2f1de80c000cec6df7,65af5638b89350ece997c57c,2024-01-23_08h03.02.368,bars,2023.2.3,Win32,60.97560976,657b66ea316d21385b68909f,,,,,,,,,,,1484.4516,1485.4493,,,1485.9506,1486.2,,120,120,,,,,,,,,,,,,,,,bars/049.png,bars/mask001.png,,,,,,,,,,,,2,2,,,,,,,0,2,0,2,,,,,,,,,,,1485.4493,1485.9506,1486.2001,1490.5998,space,4.3843,,1490.6,40,5,1491.6004,1491.6004,1491.6403,,,,0,8,8,8,1,160,115,,,,,,,,
,,5ec62e2f1de80c000cec6df7,65af5638b89350ece997c57c,2024-01-23_08h03.02.368,bars,2023.2.3,Win32,60.97560976,657b66ea316d21385b68909f,,,,,,,,,,,1491.641,1492.6337,,,1493.1343,1493.3849,,69,69,,,,,,,,,,,,,,,,bars/011.png,bars/mask003.png,,,,,,,,,,,,0,2,,,,,,,2,0,1,1,,,,,,,,,,,1492.6338,1493.1342,1493.3852,1497.0541,space,3.6504,,1497.0542,89,16,1498.0509,1498.051,1498.1007,,,,0,9,9,9,1,160,85,,,,,,,,
,,5ec62e2f1de80c000cec6df7,65af5638b89350ece997c57c,2024-01-23_08h03.02.368,bars,2023.2.3,Win32,60.97560976,657b66ea316d21385b68909f,,,,,,,,,,,1498.1011,1499.1005,,,1499.602,1499.8508,,3,183,,,,,,,,,,,,,,,,bars/040.png,bars/mask003.png,,,,,,,,,,,,0,2,,,,,,,0,0,0,0,,,,,,,,,,,1499.1005,1499.6018,1499.8511,1501.6669,space,1.8064,,1501.667,43,2,1502.6676,1502.6676,1502.7117,,,,0,10,10,10,1,140,5,,,,,,,,
,,5ec62e2f1de80c000cec6df7,65af5638b89350ece997c57c,2024-01-23_08h03.02.368,bars,2023.2.3,Win32,60.97560976,657b66ea316d21385b68909f,,,,,,,,,,,1502.7122,1503.7002,,,1504.2004,1504.4503,,48,48,,,,,,,,,,,,,,,,bars/033.png,bars/mask004.png,,,,,,,,,,,,1,1,,,,,,,2,2,3,3,,,,,,,,,,,1503.7003,1504.2004,1504.4503,1505.5842,space,1.1181,,1505.5843,23,73,1506.585,1506.5851,1506.6334,,,,0,11,11,11,1,25,155,,,,,,,,
,,5ec62e2f1de80c000cec6df7,65af5638b89350ece997c57c,2024-01-23_08h03.02.368,bars,2023.2.3,Win32,60.97560976,657b66ea316d21385b68909f,,,,,,,,,,,1506.6344,1507.6344,,,1508.1349,1508.3841,,32,32,,,,,,,,,,,,,,,,bars/019.png,bars/mask001.png,,,,,,,,,,,,0,1,,,,,,,0,0,0,0,,,,,,,,,,,1507.6344,1508.1349,1508.3841,1510.7685,space,2.3746,,1510.7688,13,73,1511.7684,1511.7685,1511.8222,,,,0,12,12,12,1,45,105,,,,,,,,
,,5ec62e2f1de80c000cec6df7,65af5638b89350ece997c57c,2024-01-23_08h03.02.368,bars,2023.2.3,Win32,60.97560976,657b66ea316d21385b68909f,,,,,,,,,,,1511.8229,1512.8185,,,1513.3191,1513.5687,,88,88,,,,,,,,,,,,,,,,bars/019.png,bars/mask003.png,,,,,,,,,,,,0,2,,,,,,,0,2,0,0,,,,,,,,,,,1512.8186,1513.319,1513.5688,1515.789,space,2.2001,,1515.7891,43,17,1516.7866,1516.7867,1516.8318,,,,0,13,13,13,1,45,105,,,,,,,,
,,5ec62e2f1de80c000cec6df7,65af5638b89350ece997c57c,2024-01-23_08h03.02.368,bars,2023.2.3,Win32,60.97560976,657b66ea316d21385b68909f,,,,,,,,,,,1516.8321,1517.836,,,1518.3356,1518.5848,,100,100,,,,,,,,,,,,,,,,bars/019.png,bars/mask005.png,,,,,,,,,,,,3,2,,,,,,,0,4,0,4,,,,,,,,,,,1517.8361,1518.3354,1518.5849,1524.3687,space,5.7788,,1524.3689,55,5,1525.3693,1525.3694,1525.4132,,,,0,14,14,14,1,45,105,,,,,,,,
,,5ec62e2f1de80c000cec6df7,65af5638b89350ece997c57c,2024-01-23_08h03.02.368,bars,2023.2.3,Win32,60.97560976,657b66ea316d21385b68909f,,,,,,,,,,,1525.4136,1526.4038,,,1526.9033,1527.1531,,153,153,,,,,,,,,,,,,,,,bars/005.png,bars/mask002.png,,,,,,,,,,,,1,2,,,,,,,2,2,3,2,,,,,,,,,,,1526.4038,1526.9032,1527.154,1528.4693,space,1.2948,,1528.4693,37,13,1529.4693,1529.4694,1529.4709,,,,0,15,15,15,1,10,140,,,,,,,,
,,5ec62e2f1de80c000cec6df7,65af5638b89350ece997c57c,2024-01-23_08h03.02.368,bars,2023.2.3,Win32,60.97560976,657b66ea316d21385b68909f,,,,,,,,,,,1529.4716,1530.4692,,,1530.9694,1531.2201,,23,203,,,,,,,,,,,,,,,,bars/022.png,bars/mask007.png,,,,,,,,,,,,0,2,,,,,,,0,0,0,0,,,,,,,,,,,1530.4693,1530.9693,1531.2203,1534.3581,space,3.1287,,1534.3582,72,3,1535.3562,1535.3562,1535.3974,,,,0,16,16,16,1,95,20,,,,,,,,
,,5ec62e2f1de80c000cec6df7,65af5638b89350ece997c57c,2024-01-23_08h03.02.368,bars,2023.2.3,Win32,60.97560976,657b66ea316d21385b68909f,,,,,,,,,,,1535.3978,1536.386,,,1536.8861,1537.1363,,66,66,,,,,,,,,,,,,,,,bars/042.png,bars/mask003.png,,,,,,,,,,,,1,2,,,,,,,0,2,0,2,,,,,,,,,,,1536.386,1536.8861,1537.1364,1538.8719,space,1.7279,,1538.8721,79,9,1539.8698,1539.8699,1539.8708,,,,0,17,17,17,1,145,75,,,,,,,,
,,5ec62e2f1de80c000cec6df7,65af5638b89350ece997c57c,2024-01-23_08h03.02.368,bars,2023.2.3,Win32,60.97560976,657b66ea316d21385b68909f,,,,,,,,,,,1539.8712,1540.87,,,1541.3703,1541.6224,,24,204,,,,,,,,,,,,,,,,bars/008.png,bars/mask007.png,,,,,,,,,,,,0,2,,,,,,,0,4,0,2,,,,,,,,,,,1540.8701,1541.3702,1541.6225,1545.3038,space,3.6615,,1545.3039,86,24,1546.305,1546.3051,1546.3544,,,,0,18,18,18,1,110,0,,,,,,,,
,,5ec62e2f1de80c000cec6df7,65af5638b89350ece997c57c,2024-01-23_08h03.02.368,bars,2023.2.3,Win32,60.97560976,657b66ea316d21385b68909f,,,,,,,,,,,1546.3549,1547.3542,,,1547.859,1548.1072,,144,-36,,,,,,,,,,,,,,,,bars/021.png,bars/mask005.png,,,,,,,,,,,,3,1,,,,,,,2,6,4,8,,,,,,,,,,,1547.3542,1547.8589,1548.1073,1551.7099,space,3.5859,,1551.7099,11,74,1552.7046,1552.7047,1552.7434,,,,0,19,19,19,1,155,70,,,,,,,,
,,5ec62e2f1de80c000cec6df7,65af5638b89350ece997c57c,2024-01-23_08h03.02.368,bars,2023.2.3,Win32,60.97560976,657b66ea316d21385b68909f,,,,,,,,,,,1552.7436,1553.7377,,,1554.2376,1554.4874,,40,220,,,,,,,,,,,,,,,,bars/048.png,bars/mask009.png,,,,,,,,,,,,0,1,,,,,,,0,4,0,3,,,,,,,,,,,1553.7377,1554.2374,1554.4876,1557.9666,space,3.4581,,1557.9667,10,45,1558.9558,1558.956,1558.983,,,,0,20,20,20,1,50,175,,,,,,,,
,,5ec62e2f1de80c000cec6df7,65af5638b89350ece997c57c,2024-01-23_08h03.02.368,bars,2023.2.3,Win32,60.97560976,657b66ea316d21385b68909f,,,,,,,,,,,1558.9834,1559.9716,,,1560.4712,1560.722,,138,-42,,,,,,,,,,,,,,,,bars/040.png,bars/mask006.png,,,,,,,,,,,,3,1,,,,,,,2,6,3,7,,,,,,,,,,,1559.9718,1560.4712,1560.7221,1564.6378,space,3.8973,,1564.638,2,47,1565.6378,1565.6378,1565.6503,,,,0,21,21,21,1,140,5,,,,,,,,
,,5ec62e2f1de80c000cec6df7,65af5638b89350ece997c57c,2024-01-23_08h03.02.368,bars,2023.2.3,Win32,60.97560976,657b66ea316d21385b68909f,,,,,,,,,,,1565.6506,1566.6385,,,1567.1389,1567.3888,,140,140,,,,,,,,,,,,,,,,bars/007.png,bars/mask006.png,,,,,,,,,,,,0,1,,,,,,,0,8,0,9,,,,,,,,,,,1566.6386,1567.1388,1567.3888,1570.4562,space,3.0512,,1570.4565,35,85,1571.4558,1571.4559,1571.4919,,,,0,22,22,22,1,175,55,,,,,,,,
,,5ec62e2f1de80c000cec6df7,65af5638b89350ece997c57c,2024-01-23_08h03.02.368,bars,2023.2.3,Win32,60.97560976,657b66ea316d21385b68909f,,,,,,,,,,,1571.4923,1572.4887,,,1572.9894,1573.2392,,49,49,,,,,,,,,,,,,,,,bars/019.png,bars/mask008.png,,,,,,,,,,,,1,1,,,,,,,0,6,1,5,,,,,,,,,,,1572.4888,1572.9893,1573.2393,1578.0727,space,4.8182,,1578.0729,4,56,1579.0727,1579.0727,1579.0964,,,,0,23,23,23,1,45,105,,,,,,,,
,,5ec62e2f1de80c000cec6df7,65af5638b89350ece997c57c,2024-01-23_08h03.02.368,bars,2023.2.3,Win32,60.97560976,657b66ea316d21385b68909f,,,,,,,,,,,1579.0967,1580.0898,,,1580.5897,1580.8396,,143,143,,,,,,,,,,,,,,,,bars/008.png,bars/mask006.png,,,,,,,,,,,,0,1,,,,,,,2,8,2,9,,,,,,,,,,,1580.09,1580.5897,1580.8396,1582.3892,space,1.5401,,1582.3892,33,37,1583.3901,1583.3901,1583.3934,,,,0,24,24,24,1,110,0,,,,,,,,
,,5ec62e2f1de80c000cec6df7,65af5638b89350ece997c57c,2024-01-23_08h03.02.368,bars,2023.2.3,Win32,60.97560976,657b66ea316d21385b68909f,,,,,,,,,,,1583.3949,1584.3893,,,1584.8904,1585.1404,,158,158,,,,,,,,,,,,,,,,bars/040.png,bars/mask003.png,,,,,,,,,,,,0,1,,,,,,,0,10,1,10,,,,,,,,,,,1584.3893,1584.8902,1585.1404,1591.8399,space,6.6883,,1591.84,18,27,1592.8407,1592.8408,1592.8964,,,,0,25,25,25,1,140,5,,,,,,,,
,,5ec62e2f1de80c000cec6df7,65af5638b89350ece997c57c,2024-01-23_08h03.02.368,bars,2023.2.3,Win32,60.97560976,657b66ea316d21385b68909f,,,,,,,,,,,1592.8972,1593.8906,,,1594.3937,1594.6453,,165,165,,,,,,,,,,,,,,,,bars/035.png,bars/mask000.png,,,,,,,,,,,,2,1,,,,,,,2,8,3,9,,,,,,,,,,,1593.8908,1594.3937,1594.6454,1600.8905,space,6.2229,,1600.8905,10,75,1601.8903,1601.8903,1601.9055,,,,0,26,26,26,1,175,60,,,,,,,,
,,5ec62e2f1de80c000cec6df7,65af5638b89350ece997c57c,2024-01-23_08h03.02.368,bars,2023.2.3,Win32,60.97560976,657b66ea316d21385b68909f,,,,,,,,,,,1601.9058,1602.9071,,,1603.4072,1603.6571,,47,47,,,,,,,,,,,,,,,,bars/044.png,bars/mask000.png,,,,,,,,,,,,0,1,,,,,,,0,10,0,10,,,,,,,,,,,1602.9071,1603.4072,1603.6571,1607.0243,space,3.3564,,1607.0243,28,72,1608.0246,1608.0246,1608.0521,,,,0,27,27,27,1,75,155,,,,,,,,
,,5ec62e2f1de80c000cec6df7,65af5638b89350ece997c57c,2024-01-23_08h03.02.368,bars,2023.2.3,Win32,60.97560976,657b66ea316d21385b68909f,,,,,,,,,,,1608.0525,1609.0436,,,1609.5417,1609.7917,,169,169,,,,,,,,,,,,,,,,bars/041.png,bars/mask000.png,,,,,,,,,,,,0,1,,,,,,,0,10,0,10,,,,,,,,,,,1609.0438,1609.5416,1609.792,1616.9762,space,7.1645,,1616.9764,31,84,1617.9754,1617.9754,1618.0016,,,,0,28,28,28,1,20,85,,,,,,,,
,,5ec62e2f1de80c000cec6df7,65af5638b89350ece997c57c,2024-01-23_08h03.02.368,bars,2023.2.3,Win32,60.97560976,657b66ea316d21385b68909f,,,,,,,,,,,1618.002,1618.9936,,,1619.4976,1619.7468,,151,-29,,,,,,,,,,,,,,,,bars/033.png,bars/mask007.png,,,,,,,,,,,,9,2,,,,,,,0,10,1,10,,,,,,,,,,,1618.9939,1619.4974,1619.7469,1625.4644,space,5.7019,,1625.4644,54,4,1626.4599,1626.4601,1626.4887,,,,0,29,29,29,1,25,155,,,,,,,,
,,5ec62e2f1de80c000cec6df7,65af5638b89350ece997c57c,2024-01-23_08h03.02.368,bars,2023.2.3,Win32,60.97560976,657b66ea316d21385b68909f,,,,,,,,,,,1626.4891,1627.4928,,,1627.993,1628.2431,,99,99,,,,,,,,,,,,,,,,bars/049.png,bars/mask008.png,,,,,,,,,,,,3,2,,,,,,,2,8,2,6,,,,,,,,,,,1627.4929,1627.9929,1628.2432,1632.2758,space,4.0153,,1632.2759,61,16,1633.2771,1633.2772,1633.3038,,,,0,30,30,30,1,160,115,,,,,,,,
,,5ec62e2f1de80c000cec6df7,65af5638b89350ece997c57c,2024-01-23_08h03.02.368,bars,2023.2.3,Win32,60.97560976,657b66ea316d21385b68909f,,,,,,,,,,,1633.3041,1634.2935,,,1634.7933,1635.0437,,118,118,,,,,,,,,,,,,,,,bars/038.png,bars/mask001.png,,,,,,,,,,,,0,1,,,,,,,4,6,4,7,,,,,,,,,,,1634.2936,1634.7932,1635.0437,1638.8443,space,3.79,,1638.845,47,48,1639.8455,1639.8456,1639.8666,,,,0,31,31,31,1,165,70,,,,,,,,
,,5ec62e2f1de80c000cec6df7,65af5638b89350ece997c57c,2024-01-23_08h03.02.368,bars,2023.2.3,Win32,60.97560976,657b66ea316d21385b68909f,,,,,,,,,,,1639.8669,1640.8655,,,1641.3626,1641.6129,,29,209,,,,,,,,,,,,,,,,bars/015.png,bars/mask008.png,,,,,,,,,,,,0,2,,,,,,,2,8,1,10,,,,,,,,,,,1640.8655,1641.3625,1641.6131,1644.8769,space,3.2388,,1644.8771,81,49,1645.8777,1645.8779,1645.9015,,,,0,32,32,32,1,110,160,,,,,,,,
,,5ec62e2f1de80c000cec6df7,65af5638b89350ece997c57c,2024-01-23_08h03.02.368,bars,2023.2.3,Win32,60.97560976,657b66ea316d21385b68909f,,,,,,,,,,,1645.9019,1646.8942,,,1647.3951,1647.6438,,86,86,,,,,,,,,,,,,,,,bars/021.png,bars/mask001.png,,,,,,,,,,,,4,2,,,,,,,0,10,1,8,,,,,,,,,,,1646.8942,1647.395,1647.6438,1650.544,space,2.8918,,1650.544,69,16,1651.5446,1651.5448,1651.5939,,,,0,33,33,33,1,155,70,,,,,,,,
,,5ec62e2f1de80c000cec6df7,65af5638b89350ece997c57c,2024-01-23_08h03.02.368,bars,2023.2.3,Win32,60.97560976,657b66ea316d21385b68909f,,,,,,,,,,,1651.5943,1652.5944,,,1653.0943,1653.3443,,144,144,,,,,,,,,,,,,,,,bars/017.png,bars/mask006.png,,,,,,,,,,,,2,1,,,,,,,2,8,2,9,,,,,,,,,,,1652.5944,1653.0943,1653.3444,1655.0785,space,1.7227,,1655.0786,1,81,1656.0781,1656.0782,1656.0837,,,,0,34,34,34,1,145,45,,,,,,,,
,,5ec62e2f1de80c000cec6df7,65af5638b89350ece997c57c,2024-01-23_08h03.02.368,bars,2023.2.3,Win32,60.97560976,657b66ea316d21385b68909f,,,,,,,,,,,1656.0844,1657.0782,,,1657.5683,1657.812,,160,160,,,,,,,,,,,,,,,,bars/036.png,bars/mask005.png,,,,,,,,,,,,2,1,,,,,,,4,6,4,7,,,,,,,,,,,1657.0783,1657.5683,1657.8123,1660.7289,space,2.9018,,1660.7291,15,40,1661.7288,1661.7288,1661.7764,,,,0,35,35,35,1,145,20,,,,,,,,
,,5ec62e2f1de80c000cec6df7,65af5638b89350ece997c57c,2024-01-23_08h03.02.368,bars,2023.2.3,Win32,60.97560976,657b66ea316d21385b68909f,,,,,,,,,,,1661.7768,1662.7783,,,1663.2792,1663.5279,,63,63,,,,,,,,,,,,,,,,bars/007.png,bars/mask000.png,,,,,,,,,,,,1,2,,,,,,,6,4,7,2,,,,,,,,,,,1662.7783,1663.2791,1663.5279,1664.6461,space,1.1066,,1664.6462,68,8,1665.6451,1665.6451,1665.6482,,,,0,36,36,36,1,175,55,,,,,,,,
,,5ec62e2f1de80c000cec6df7,65af5638b89350ece997c57c,2024-01-23_08h03.02.368,bars,2023.2.3,Win32,60.97560976,657b66ea316d21385b68909f,,,,,,,,,,,1665.6486,1666.6453,,,1667.1455,1667.3969,,151,151,,,,,,,,,,,,,,,,bars/037.png,bars/mask006.png,,,,,,,,,,,,5,1,,,,,,,4,6,5,6,,,,,,,,,,,1666.6453,1667.1455,1667.3971,1672.1453,space,4.7384,,1672.1453,1,46,1673.1458,1673.1458,1673.1758,,,,0,37,37,37,1,150,105,,,,,,,,
,,5ec62e2f1de80c000cec6df7,65af5638b89350ece997c57c,2024-01-23_08h03.02.368,bars,2023.2.3,Win32,60.97560976,657b66ea316d21385b68909f,,,,,,,,,,,1673.1764,1674.179,,,1674.6793,1674.9286,,24,204,,,,,,,,,,,,,,,,bars/023.png,bars/mask007.png,,,,,,,,,,,,3,1,,,,,,,2,8,3,9,,,,,,,,,,,1674.179,1674.6792,1674.9286,1676.998,space,2.0647,,1676.998,4,89,1677.9968,1677.9969,1678.0419,,,,0,38,38,38,1,20,115,,,,,,,,
,,5ec62e2f1de80c000cec6df7,65af5638b89350ece997c57c,2024-01-23_08h03.02.368,bars,2023.2.3,Win32,60.97560976,657b66ea316d21385b68909f,,,,,,,,,,,1678.0422,1679.03,,,1679.5299,1679.7797,,55,235,,,,,,,,,,,,,,,,bars/049.png,bars/mask006.png,,,,,,,,,,,,0,2,,,,,,,0,10,1,10,,,,,,,,,,,1679.0301,1679.5299,1679.7799,1685.2466,space,5.4546,,1685.2467,75,60,1686.2466,1686.2466,1686.2747,,,,0,39,39,39,1,160,115,,,,,,,,
,,5ec62e2f1de80c000cec6df7,65af5638b89350ece997c57c,2024-01-23_08h03.02.368,bars,2023.2.3,Win32,60.97560976,657b66ea316d21385b68909f,,,,,,,,,,,1686.2756,1687.2633,,,1687.7632,1688.0134,,135,-45,,,,,,,,,,,,,,,,bars/046.png,bars/mask008.png,,,,,,,,,,,,1,1,,,,,,,2,10,2,10,,,,,,,,,,,1687.2633,1687.7632,1688.0134,1693.0838,space,5.0627,,1693.0841,20,50,1694.0808,1694.0809,1694.1249,,,,0,40,40,40,1,155,85,,,,,,,,
,,5ec62e2f1de80c000cec6df7,65af5638b89350ece997c57c,2024-01-23_08h03.02.368,bars,2023.2.3,Win32,60.97560976,657b66ea316d21385b68909f,,,,,,,,,,,1694.1251,1695.1148,,,1695.6172,1695.8692,,54,54,,,,,,,,,,,,,,,,bars/041.png,bars/mask008.png,,,,,,,,,,,,0,2,,,,,,,4,8,3,6,,,,,,,,,,,1695.1149,1695.6172,1695.8693,1698.3807,space,2.4944,,1698.3809,34,31,1699.3808,1699.3809,1699.3997,,,,0,41,41,41,1,20,85,,,,,,,,
,,5ec62e2f1de80c000cec6df7,65af5638b89350ece997c57c,2024-01-23_08h03.02.368,bars,2023.2.3,Win32,60.97560976,657b66ea316d21385b68909f,,,,,,,,,,,1699.4,1700.4021,,,1700.9022,1701.1521,,31,31,,,,,,,,,,,,,,,,bars/038.png,bars/mask006.png,,,,,,,,,,,,0,2,,,,,,,6,10,5,9,,,,,,,,,,,1700.4022,1700.9022,1701.1521,1703.921,space,2.7518,,1703.9211,46,39,1704.9179,1704.918,1704.9518,,,,0,42,42,42,1,165,70,,,,,,,,
,,5ec62e2f1de80c000cec6df7,65af5638b89350ece997c57c,2024-01-23_08h03.02.368,bars,2023.2.3,Win32,60.97560976,657b66ea316d21385b68909f,,,,,,,,,,,1704.9525,1705.9481,,,1706.4481,1706.6981,,23,23,,,,,,,,,,,,,,,,bars/023.png,bars/mask005.png,,,,,,,,,,,,5,1,,,,,,,4,10,5,9,,,,,,,,,,,1705.9481,1706.448,1706.6981,1711.1313,space,4.4255,,1711.1313,3,88,1712.132,1712.1321,1712.1707,,,,0,43,43,43,1,20,115,,,,,,,,
,,5ec62e2f1de80c000cec6df7,65af5638b89350ece997c57c,2024-01-23_08h03.02.368,bars,2023.2.3,Win32,60.97560976,657b66ea316d21385b68909f,,,,,,,,,,,1712.1714,1713.1648,,,1713.6656,1713.9153,,151,-29,,,,,,,,,,,,,,,,bars/044.png,bars/mask001.png,,,,,,,,,,,,9,2,,,,,,,2,10,3,10,,,,,,,,,,,1713.1649,1713.6655,1713.9154,1718.0883,space,4.1525,,1718.0885,76,4,1719.0862,1719.0865,1719.1281,,,,0,44,44,44,1,75,155,,,,,,,,
,,5ec62e2f1de80c000cec6df7,65af5638b89350ece997c57c,2024-01-23_08h03.02.368,bars,2023.2.3,Win32,60.97560976,657b66ea316d21385b68909f,,,,,,,,,,,1719.1287,1720.1323,,,1720.6327,1720.8825,,63,63,,,,,,,,,,,,,,,,bars/047.png,bars/mask008.png,,,,,,,,,,,,8,2,,,,,,,0,10,0,10,,,,,,,,,,,1720.1323,1720.6326,1720.8826,1724.5674,space,3.6694,,1724.5675,48,7,1725.566,1725.566,1725.5774,,,,0,45,45,45,1,15,70,,,,,,,,
,,5ec62e2f1de80c000cec6df7,65af5638b89350ece997c57c,2024-01-23_08h03.02.368,bars,2023.2.3,Win32,60.97560976,657b66ea316d21385b68909f,,,,,,,,,,,1725.5776,1726.5659,,,1727.0666,1727.317,,36,36,,,,,,,,,,,,,,,,bars/041.png,bars/mask009.png,,,,,,,,,,,,0,1,,,,,,,0,10,1,10,,,,,,,,,,,1726.5659,1727.0666,1727.317,1728.7499,space,1.4237,,1728.7499,16,49,1729.7495,1729.7496,1729.7531,,,,0,46,46,46,1,20,85,,,,,,,,
,,5ec62e2f1de80c000cec6df7,65af5638b89350ece997c57c,2024-01-23_08h03.02.368,bars,2023.2.3,Win32,60.97560976,657b66ea316d21385b68909f,,,,,,,,,,,1729.7538,1730.7501,,,1731.2511,1731.4997,,94,94,,,,,,,,,,,,,,,,bars/019.png,bars/mask002.png,,,,,,,,,,,,6,2,,,,,,,0,10,3,10,,,,,,,,,,,1730.7503,1731.251,1731.4998,1734.2999,space,2.7854,,1734.3,49,11,1735.3037,1735.3039,1735.3323,,,,0,47,47,47,1,45,105,,,,,,,,
,,5ec62e2f1de80c000cec6df7,65af5638b89350ece997c57c,2024-01-23_08h03.02.368,bars,2023.2.3,Win32,60.97560976,657b66ea316d21385b68909f,,,,,,,,,,,1735.3326,1736.3335,,,1736.8338,1737.0834,,35,35,,,,,,,,,,,,,,,,bars/007.png,bars/mask007.png,,,,,,,,,,,,3,2,,,,,,,0,10,0,10,,,,,,,,,,,1736.3336,1736.8337,1737.0835,1741.717,space,4.622,,1741.717,40,20,1742.7168,1742.7168,1742.7272,,,,0,48,48,48,1,175,55,,,,,,,,
,,5ec62e2f1de80c000cec6df7,65af5638b89350ece997c57c,2024-01-23_08h03.02.368,bars,2023.2.3,Win32,60.97560976,657b66ea316d21385b68909f,,,,,,,,,,,1742.7275,1743.7176,,,1744.2058,1744.4562,,127,307,,,,,,,,,,,,,,,,bars/030.png,bars/mask005.png,,,,,,,,,,,,1,1,,,,,,,2,8,1,8,,,,,,,,,,,1743.7177,1744.2057,1744.4563,1749.9278,space,5.4556,,1749.9279,13,62,1750.9234,1750.9236,1750.9548,,,,0,49,49,49,1,140,65,,,,,,,,
,,5ec62e2f1de80c000cec6df7,65af5638b89350ece997c57c,2024-01-23_08h03.02.368,bars,2023.2.3,Win32,60.97560976,657b66ea316d21385b68909f,,,,,,,,,,,,,,,,,,,,,,,,,,,,,,,,,,,,,,,,,,,,,,,,,,,,,,,,,,,,,,,,,,,,,,,,,,,,,,,,,,,,,,,,,,,,,1750.955,1810.9554,0,2,2,1,1,sequence_tables/blk012.csv
,,5ec62e2f1de80c000cec6df7,65af5638b89350ece997c57c,2024-01-23_08h03.02.368,bars,2023.2.3,Win32,60.97560976,657b66ea316d21385b68909f,,,,,,,,,,,1819.3212,1820.2895,,,1820.7899,1821.0393,,105,105,,,,,,,,,,,,,,,,bars/015.png,bars/mask001.png,,,,,,,,,,,,6,1,,,,,,,7,5,7,6,,,,,,1810.9766,1819.2732,space,8.2879,,1820.2897,1820.7896,1821.0394,1823.5572,space,2.5081,,1823.5576,5,55,1824.5577,1824.5578,1824.5846,,,,0,0,0,0,1,110,160,,,,,,,,
,,5ec62e2f1de80c000cec6df7,65af5638b89350ece997c57c,2024-01-23_08h03.02.368,bars,2023.2.3,Win32,60.97560976,657b66ea316d21385b68909f,,,,,,,,,,,1824.5852,1825.5743,,,1826.0736,1826.324,,142,142,,,,,,,,,,,,,,,,bars/000.png,bars/mask009.png,,,,,,,,,,,,2,2,,,,,,,9,3,10,2,,,,,,,,,,,1825.5744,1826.0735,1826.324,1828.6749,space,2.3396,,1828.675,78,3,1829.6748,1829.6749,1829.7176,,,,0,1,1,1,1,40,145,,,,,,,,
,,5ec62e2f1de80c000cec6df7,65af5638b89350ece997c57c,2024-01-23_08h03.02.368,bars,2023.2.3,Win32,60.97560976,657b66ea316d21385b68909f,,,,,,,,,,,1829.7198,1830.7251,,,1831.2238,1831.4737,,153,153,,,,,,,,,,,,,,,,bars/043.png,bars/mask003.png,,,,,,,,,,,,0,2,,,,,,,7,1,6,2,,,,,,,,,,,1830.7252,1831.2236,1831.4738,1832.8406,space,1.3468,,1832.8408,57,23,1833.8405,1833.8405,1833.8438,,,,0,2,2,2,1,30,130,,,,,,,,
,,5ec62e2f1de80c000cec6df7,65af5638b89350ece997c57c,2024-01-23_08h03.02.368,bars,2023.2.3,Win32,60.97560976,657b66ea316d21385b68909f,,,,,,,,,,,1833.8456,1834.8405,,,1835.3408,1835.5913,,128,128,,,,,,,,,,,,,,,,bars/042.png,bars/mask001.png,,,,,,,,,,,,2,1,,,,,,,5,3,5,2,,,,,,,,,,,1834.8406,1835.3408,1835.5913,1838.2571,space,2.6553,,1838.2573,17,53,1839.2571,1839.2572,1839.2726,,,,0,3,3,3,1,145,75,,,,,,,,
,,5ec62e2f1de80c000cec6df7,65af5638b89350ece997c57c,2024-01-23_08h03.02.368,bars,2023.2.3,Win32,60.97560976,657b66ea316d21385b68909f,,,,,,,,,,,1839.2728,1840.2736,,,1840.7736,1841.0234,,159,159,,,,,,,,,,,,,,,,bars/042.png,bars/mask002.png,,,,,,,,,,,,3,1,,,,,,,7,1,6,2,,,,,,,,,,,1840.2736,1840.7735,1841.0235,1845.958,space,4.9177,,1845.9581,14,84,1846.9583,1846.9584,1846.9804,,,,0,4,4,4,1,145,75,,,,,,,,
,,5ec62e2f1de80c000cec6df7,65af5638b89350ece997c57c,2024-01-23_08h03.02.368,bars,2023.2.3,Win32,60.97560976,657b66ea316d21385b68909f,,,,,,,,,,,1846.9806,1847.9747,,,1848.4754,1848.7246,,47,47,,,,,,,,,,,,,,,,bars/029.png,bars/mask004.png,,,,,,,,,,,,0,2,,,,,,,5,0,5,0,,,,,,,,,,,1847.9752,1848.4753,1848.7248,1853.8086,space,5.069,,1853.8086,43,2,1854.8084,1854.8085,1854.8511,,,,0,5,5,5,1,90,45,,,,,,,,
,,5ec62e2f1de80c000cec6df7,65af5638b89350ece997c57c,2024-01-23_08h03.02.368,bars,2023.2.3,Win32,60.97560976,657b66ea316d21385b68909f,,,,,,,,,,,1854.8515,1855.8419,,,1856.3445,1856.5924,,170,170,,,,,,,,,,,,,,,,bars/045.png,bars/mask004.png,,,,,,,,,,,,1,2,,,,,,,7,2,8,3,,,,,,,,,,,1855.8419,1856.3444,1856.5926,1858.9644,space,2.3516,,1858.9644,70,20,1859.9597,1859.9597,1859.9683,,,,0,6,6,6,1,100,10,,,,,,,,
,,5ec62e2f1de80c000cec6df7,65af5638b89350ece997c57c,2024-01-23_08h03.02.368,bars,2023.2.3,Win32,60.97560976,657b66ea316d21385b68909f,,,,,,,,,,,1859.9685,1860.9586,,,1861.4584,1861.7083,,59,59,,,,,,,,,,,,,,,,bars/044.png,bars/mask000.png,,,,,,,,,,,,5,1,,,,,,,9,0,10,1,,,,,,,,,,,1860.9587,1861.4583,1861.7084,1864.4287,space,2.7003,,1864.4288,16,84,1865.4255,1865.4256,1865.4536,,,,0,7,7,7,1,75,155,,,,,,,,
,,5ec62e2f1de80c000cec6df7,65af5638b89350ece997c57c,2024-01-23_08h03.02.368,bars,2023.2.3,Win32,60.97560976,657b66ea316d21385b68909f,,,,,,,,,,,1865.454,1866.4419,,,1866.9421,1867.1922,,39,39,,,,,,,,,,,,,,,,bars/012.png,bars/mask009.png,,,,,,,,,,,,0,2,,,,,,,7,0,6,0,,,,,,,,,,,1866.4419,1866.942,1867.1923,1869.297,space,2.0963,,1869.2972,51,24,1870.2924,1870.2925,1870.3057,,,,0,8,8,8,1,90,15,,,,,,,,
,,5ec62e2f1de80c000cec6df7,65af5638b89350ece997c57c,2024-01-23_08h03.02.368,bars,2023.2.3,Win32,60.97560976,657b66ea316d21385b68909f,,,,,,,,,,,1870.306,1871.31,,,1871.8094,1872.0594,,58,238,,,,,,,,,,,,,,,,bars/029.png,bars/mask004.png,,,,,,,,,,,,1,2,,,,,,,5,2,4,1,,,,,,,,,,,1871.3102,1871.8094,1872.0594,1876.2465,space,4.1818,,1876.2465,32,13,1877.2433,1877.2433,1877.2647,,,,0,9,9,9,1,90,45,,,,,,,,
,,5ec62e2f1de80c000cec6df7,65af5638b89350ece997c57c,2024-01-23_08h03.02.368,bars,2023.2.3,Win32,60.97560976,657b66ea316d21385b68909f,,,,,,,,,,,1877.2649,1878.2644,,,1878.764,1879.013,,133,133,,,,,,,,,,,,,,,,bars/037.png,bars/mask001.png,,,,,,,,,,,,2,1,,,,,,,3,0,4,0,,,,,,,,,,,1878.2644,1878.764,1879.013,1881.2154,space,2.1849,,1881.2155,17,28,1882.214,1882.2141,1882.2616,,,,0,10,10,10,1,150,105,,,,,,,,
,,5ec62e2f1de80c000cec6df7,65af5638b89350ece997c57c,2024-01-23_08h03.02.368,bars,2023.2.3,Win32,60.97560976,657b66ea316d21385b68909f,,,,,,,,,,,1882.262,1883.2601,,,1883.7602,1884.0099,,120,120,,,,,,,,,,,,,,,,bars/041.png,bars/mask003.png,,,,,,,,,,,,0,2,,,,,,,1,0,1,0,,,,,,,,,,,1883.2602,1883.76,1884.01,1889.5533,space,5.5207,,1889.5533,80,35,1890.5436,1890.5436,1890.5578,,,,0,11,11,11,1,20,85,,,,,,,,
,,5ec62e2f1de80c000cec6df7,65af5638b89350ece997c57c,2024-01-23_08h03.02.368,bars,2023.2.3,Win32,60.97560976,657b66ea316d21385b68909f,,,,,,,,,,,1890.5581,1891.5616,,,1892.0505,1892.298,,133,133,,,,,,,,,,,,,,,,bars/027.png,bars/mask001.png,,,,,,,,,,,,1,1,,,,,,,3,0,3,0,,,,,,,,,,,1891.5617,1892.0503,1892.298,1894.9151,space,2.6005,,1894.9152,23,83,1895.9169,1895.917,1895.9616,,,,0,12,12,12,1,110,50,,,,,,,,
,,5ec62e2f1de80c000cec6df7,65af5638b89350ece997c57c,2024-01-23_08h03.02.368,bars,2023.2.3,Win32,60.97560976,657b66ea316d21385b68909f,,,,,,,,,,,1895.962,1896.9617,,,1897.4615,1897.7116,,162,-18,,,,,,,,,,,,,,,,bars/008.png,bars/mask007.png,,,,,,,,,,,,0,2,,,,,,,5,0,4,0,,,,,,,,,,,1896.9619,1897.4615,1897.7117,1900.2443,space,2.522,,1900.2444,52,18,1901.2448,1901.2448,1901.2474,,,,0,13,13,13,1,110,0,,,,,,,,
,,5ec62e2f1de80c000cec6df7,65af5638b89350ece997c57c,2024-01-23_08h03.02.368,bars,2023.2.3,Win32,60.97560976,657b66ea316d21385b68909f,,,,,,,,,,,1901.2476,1902.2442,,,1902.7448,1902.9948,,125,125,,,,,,,,,,,,,,,,bars/003.png,bars/mask001.png,,,,,,,,,,,,1,2,,,,,,,3,0,3,2,,,,,,,,,,,1902.2442,1902.7448,1902.995,1932.7641,space,29.7613,,1932.7644,80,15,1933.764,1933.7641,1933.8092,,,,0,14,14,14,1,25,140,,,,,,,,
,,5ec62e2f1de80c000cec6df7,65af5638b89350ece997c57c,2024-01-23_08h03.02.368,bars,2023.2.3,Win32,60.97560976,657b66ea316d21385b68909f,,,,,,,,,,,1933.8095,1934.797,,,1935.297,1935.5468,,31,31,,,,,,,,,,,,,,,,bars/007.png,bars/mask004.png,,,,,,,,,,,,1,2,,,,,,,5,2,4,3,,,,,,,,,,,1934.797,1935.297,1935.5468,1941.7979,space,6.2446,,1941.798,36,24,1942.7976,1942.7976,1942.8193,,,,0,15,15,15,1,175,55,,,,,,,,
,,5ec62e2f1de80c000cec6df7,65af5638b89350ece997c57c,2024-01-23_08h03.02.368,bars,2023.2.3,Win32,60.97560976,657b66ea316d21385b68909f,,,,,,,,,,,1942.8195,1943.8142,,,1944.3141,1944.5643,,150,150,,,,,,,,,,,,,,,,bars/049.png,bars/mask008.png,,,,,,,,,,,,5,1,,,,,,,7,4,8,3,,,,,,,,,,,1943.8142,1944.3141,1944.5643,1954.0319,space,9.4585,,1954.032,10,35,1955.0319,1955.0319,1955.0885,,,,0,16,16,16,1,160,115,,,,,,,,
,,5ec62e2f1de80c000cec6df7,65af5638b89350ece997c57c,2024-01-23_08h03.02.368,bars,2023.2.3,Win32,60.97560976,657b66ea316d21385b68909f,,,,,,,,,,,1955.089,1956.0821,,,1956.5817,1956.8315,,127,127,,,,,,,,,,,,,,,,bars/021.png,bars/mask002.png,,,,,,,,,,,,1,1,,,,,,,9,2,9,3,,,,,,,,,,,1956.0821,1956.5816,1956.8315,1966.7666,space,9.9245,,1966.7667,28,57,1967.7658,1967.7658,1967.7846,,,,0,17,17,17,1,155,70,,,,,,,,
,,5ec62e2f1de80c000cec6df7,65af5638b89350ece997c57c,2024-01-23_08h03.02.368,bars,2023.2.3,Win32,60.97560976,657b66ea316d21385b68909f,,,,,,,,,,,1967.7847,1968.7831,,,1969.2833,1969.5332,,139,139,,,,,,,,,,,,,,,,bars/021.png,bars/mask009.png,,,,,,,,,,,,5,1,,,,,,,10,0,10,1,,,,,,,,,,,1968.7832,1969.2833,1969.5333,1976.3503,space,6.8058,,1976.3505,16,69,1977.3497,1977.3498,1977.3706,,,,0,18,18,18,1,155,70,,,,,,,,
,,5ec62e2f1de80c000cec6df7,65af5638b89350ece997c57c,2024-01-23_08h03.02.368,bars,2023.2.3,Win32,60.97560976,657b66ea316d21385b68909f,,,,,,,,,,,1977.3709,1978.3664,,,1978.8679,1979.1176,,37,37,,,,,,,,,,,,,,,,bars/023.png,bars/mask006.png,,,,,,,,,,,,3,1,,,,,,,10,0,7,0,,,,,,,,,,,1978.3665,1978.8678,1979.1179,1982.6669,space,3.5309,,1982.667,17,78,1983.6667,1983.6667,1983.6802,,,,0,19,19,19,1,20,115,,,,,,,,
,,5ec62e2f1de80c000cec6df7,65af5638b89350ece997c57c,2024-01-23_08h03.02.368,bars,2023.2.3,Win32,60.97560976,657b66ea316d21385b68909f,,,,,,,,,,,1983.6806,1984.6843,,,1985.1841,1985.4341,,38,38,,,,,,,,,,,,,,,,bars/030.png,bars/mask000.png,,,,,,,,,,,,0,2,,,,,,,8,2,7,3,,,,,,,,,,,1984.6846,1985.1841,1985.4342,1990.9214,space,5.4746,,1990.9214,78,27,1991.9181,1991.9182,1991.9548,,,,0,20,20,20,1,140,65,,,,,,,,
,,5ec62e2f1de80c000cec6df7,65af5638b89350ece997c57c,2024-01-23_08h03.02.368,bars,2023.2.3,Win32,60.97560976,657b66ea316d21385b68909f,,,,,,,,,,,1991.955,1992.951,,,1993.4509,1993.7011,,43,43,,,,,,,,,,,,,,,,bars/026.png,bars/mask004.png,,,,,,,,,,,,7,1,,,,,,,10,4,10,4,,,,,,,,,,,1992.951,1993.4508,1993.7012,1999.3179,space,5.5997,,1999.318,8,42,2000.3182,2000.3182,2000.3411,,,,0,21,21,21,1,35,85,,,,,,,,
,,5ec62e2f1de80c000cec6df7,65af5638b89350ece997c57c,2024-01-23_08h03.02.368,bars,2023.2.3,Win32,60.97560976,657b66ea316d21385b68909f,,,,,,,,,,,2000.3413,2001.335,,,2001.8354,2002.0845,,130,130,,,,,,,,,,,,,,,,bars/012.png,bars/mask009.png,,,,,,,,,,,,0,1,,,,,,,8,2,7,2,,,,,,,,,,,2001.3351,2001.8353,2002.0845,2007.0025,space,4.9038,,2007.0026,40,65,2008.0018,2008.0019,2008.0169,,,,0,22,22,22,1,90,15,,,,,,,,
,,5ec62e2f1de80c000cec6df7,65af5638b89350ece997c57c,2024-01-23_08h03.02.368,bars,2023.2.3,Win32,60.97560976,657b66ea316d21385b68909f,,,,,,,,,,,2008.0171,2009.0193,,,2009.5191,2009.7691,,47,47,,,,,,,,,,,,,,,,bars/011.png,bars/mask008.png,,,,,,,,,,,,0,2,,,,,,,10,0,9,0,,,,,,,,,,,2009.0196,2009.519,2009.7692,2012.2901,space,2.5153,,2012.2901,67,38,2013.2856,2013.2856,2013.2982,,,,0,23,23,23,1,160,85,,,,,,,,
,,5ec62e2f1de80c000cec6df7,65af5638b89350ece997c57c,2024-01-23_08h03.02.368,bars,2023.2.3,Win32,60.97560976,657b66ea316d21385b68909f,,,,,,,,,,,2013.2983,2014.2889,,,2014.7861,2015.0394,,47,47,,,,,,,,,,,,,,,,bars/010.png,bars/mask002.png,,,,,,,,,,,,0,2,,,,,,,10,0,10,0,,,,,,,,,,,2014.2889,2014.7861,2015.0395,2019.6067,space,4.5509,,2019.6067,62,8,2020.6031,2020.6031,2020.6211,,,,0,24,24,24,1,165,55,,,,,,,,
,,5ec62e2f1de80c000cec6df7,65af5638b89350ece997c57c,2024-01-23_08h03.02.368,bars,2023.2.3,Win32,60.97560976,657b66ea316d21385b68909f,,,,,,,,,,,2020.6215,2021.6204,,,2022.109,2022.3588,,153,-27,,,,,,,,,,,,,,,,bars/008.png,bars/mask006.png,,,,,,,,,,,,0,2,,,,,,,8,0,8,2,,,,,,,,,,,2021.6206,2022.109,2022.3592,2027.1448,space,4.7687,,2027.1449,43,27,2028.1434,2028.1436,2028.193,,,,0,25,25,25,1,110,0,,,,,,,,
,,5ec62e2f1de80c000cec6df7,65af5638b89350ece997c57c,2024-01-23_08h03.02.368,bars,2023.2.3,Win32,60.97560976,657b66ea316d21385b68909f,,,,,,,,,,,2028.1935,2029.1873,,,2029.6927,2029.9385,,54,54,,,,,,,,,,,,,,,,bars/006.png,bars/mask008.png,,,,,,,,,,,,4,1,,,,,,,10,0,10,2,,,,,,,,,,,2029.1875,2029.6924,2029.9385,2032.8021,space,2.8429,,2032.8022,19,46,2033.8048,2033.8048,2033.8514,,,,0,26,26,26,1,35,100,,,,,,,,
,,5ec62e2f1de80c000cec6df7,65af5638b89350ece997c57c,2024-01-23_08h03.02.368,bars,2023.2.3,Win32,60.97560976,657b66ea316d21385b68909f,,,,,,,,,,,2033.8522,2034.8542,,,2035.3545,2035.6035,,124,124,,,,,,,,,,,,,,,,bars/003.png,bars/mask000.png,,,,,,,,,,,,1,2,,,,,,,8,2,6,2,,,,,,,,,,,2034.8543,2035.3544,2035.6035,2039.0558,space,3.4464,,2039.056,81,16,2040.0559,2040.0561,2040.0855,,,,0,27,27,27,1,25,140,,,,,,,,
,,5ec62e2f1de80c000cec6df7,65af5638b89350ece997c57c,2024-01-23_08h03.02.368,bars,2023.2.3,Win32,60.97560976,657b66ea316d21385b68909f,,,,,,,,,,,2040.0858,2041.0872,,,2041.5876,2041.8372,,49,49,,,,,,,,,,,,,,,,bars/001.png,bars/mask003.png,,,,,,,,,,,,0,2,,,,,,,6,4,6,4,,,,,,,,,,,2041.0873,2041.5876,2041.8373,2052.3735,space,10.5272,,2052.3736,81,36,2053.3723,2053.3724,2053.4038,,,,0,28,28,28,1,130,85,,,,,,,,
,,5ec62e2f1de80c000cec6df7,65af5638b89350ece997c57c,2024-01-23_08h03.02.368,bars,2023.2.3,Win32,60.97560976,657b66ea316d21385b68909f,,,,,,,,,,,2053.4041,2054.4055,,,2054.8935,2055.1409,,32,32,,,,,,,,,,,,,,,,bars/025.png,bars/mask007.png,,,,,,,,,,,,5,2,,,,,,,4,6,5,7,,,,,,,,,,,2054.4055,2054.8934,2055.1409,2059.6268,space,4.4681,,2059.6268,73,8,2060.6252,2060.6252,2060.6371,,,,0,29,29,29,1,105,40,,,,,,,,
,,5ec62e2f1de80c000cec6df7,65af5638b89350ece997c57c,2024-01-23_08h03.02.368,bars,2023.2.3,Win32,60.97560976,657b66ea316d21385b68909f,,,,,,,,,,,2060.6374,2061.6387,,,2062.1395,2062.3896,,138,138,,,,,,,,,,,,,,,,bars/028.png,bars/mask002.png,,,,,,,,,,,,3,2,,,,,,,6,8,7,8,,,,,,,,,,,2061.6389,2062.1394,2062.3897,2064.4471,space,2.0361,,2064.4471,87,18,2065.4396,2065.4398,2065.4422,,,,0,30,30,30,1,45,120,,,,,,,,
,,5ec62e2f1de80c000cec6df7,65af5638b89350ece997c57c,2024-01-23_08h03.02.368,bars,2023.2.3,Win32,60.97560976,657b66ea316d21385b68909f,,,,,,,,,,,2065.4429,2066.4432,,,2066.9437,2067.1926,,50,50,,,,,,,,,,,,,,,,bars/019.png,bars/mask009.png,,,,,,,,,,,,6,1,,,,,,,8,6,7,6,,,,,,,,,,,2066.4432,2066.9437,2067.1926,2069.2982,space,2.0875,,2069.2983,5,55,2070.2928,2070.2928,2070.3077,,,,0,31,31,31,1,45,105,,,,,,,,
,,5ec62e2f1de80c000cec6df7,65af5638b89350ece997c57c,2024-01-23_08h03.02.368,bars,2023.2.3,Win32,60.97560976,657b66ea316d21385b68909f,,,,,,,,,,,2070.308,2071.3065,,,2071.8108,2072.0564,,27,207,,,,,,,,,,,,,,,,bars/014.png,bars/mask005.png,,,,,,,,,,,,0,2,,,,,,,6,4,7,3,,,,,,,,,,,2071.3067,2071.8108,2072.0565,2079.2805,space,7.203,,2079.2806,53,27,2080.2735,2080.2735,2080.2873,,,,0,32,32,32,1,80,0,,,,,,,,
,,5ec62e2f1de80c000cec6df7,65af5638b89350ece997c57c,2024-01-23_08h03.02.368,bars,2023.2.3,Win32,60.97560976,657b66ea316d21385b68909f,,,,,,,,,,,2080.2875,2081.279,,,2081.7795,2082.0314,,52,232,,,,,,,,,,,,,,,,bars/029.png,bars/mask005.png,,,,,,,,,,,,3,2,,,,,,,8,6,8,4,,,,,,,,,,,2081.2792,2081.7793,2082.0315,2086.5647,space,4.5182,,2086.5648,38,7,2087.5608,2087.5609,2087.5861,,,,0,33,33,33,1,90,45,,,,,,,,
,,5ec62e2f1de80c000cec6df7,65af5638b89350ece997c57c,2024-01-23_08h03.02.368,bars,2023.2.3,Win32,60.97560976,657b66ea316d21385b68909f,,,,,,,,,,,2087.5864,2088.5754,,,2089.0746,2089.3244,,49,49,,,,,,,,,,,,,,,,bars/040.png,bars/mask003.png,,,,,,,,,,,,0,2,,,,,,,10,8,10,7,,,,,,,,,,,2088.5754,2089.0746,2089.3245,2094.275,space,4.9352,,2094.2751,89,44,2095.2756,2095.2756,2095.3081,,,,0,34,34,34,1,140,5,,,,,,,,
,,5ec62e2f1de80c000cec6df7,65af5638b89350ece997c57c,2024-01-23_08h03.02.368,bars,2023.2.3,Win32,60.97560976,657b66ea316d21385b68909f,,,,,,,,,,,2095.3084,2096.3086,,,2096.8085,2097.058,,48,48,,,,,,,,,,,,,,,,bars/042.png,bars/mask003.png,,,,,,,,,,,,1,2,,,,,,,8,10,6,10,,,,,,,,,,,2096.3088,2096.8085,2097.0581,2099.375,space,2.3048,,2099.3752,83,27,2100.3749,2100.375,2100.3937,,,,0,35,35,35,1,145,75,,,,,,,,
,,5ec62e2f1de80c000cec6df7,65af5638b89350ece997c57c,2024-01-23_08h03.02.368,bars,2023.2.3,Win32,60.97560976,657b66ea316d21385b68909f,,,,,,,,,,,2100.3941,2101.3923,,,2101.8917,2102.1419,,61,61,,,,,,,,,,,,,,,,bars/036.png,bars/mask009.png,,,,,,,,,,,,0,2,,,,,,,6,8,7,8,,,,,,,,,,,2101.3924,2101.8917,2102.1419,2104.7257,space,2.5737,,2104.7257,84,41,2105.7262,2105.7262,2105.7294,,,,0,36,36,36,1,145,20,,,,,,,,
,,5ec62e2f1de80c000cec6df7,65af5638b89350ece997c57c,2024-01-23_08h03.02.368,bars,2023.2.3,Win32,60.97560976,657b66ea316d21385b68909f,,,,,,,,,,,2105.7303,2106.7263,,,2107.2268,2107.4752,,40,40,,,,,,,,,,,,,,,,bars/044.png,bars/mask001.png,,,,,,,,,,,,0,1,,,,,,,4,6,4,6,,,,,,,,,,,2106.7265,2107.2267,2107.4752,2111.943,space,4.4601,,2111.9431,35,65,2112.9433,2112.9435,2112.9756,,,,0,37,37,37,1,75,155,,,,,,,,
,,5ec62e2f1de80c000cec6df7,65af5638b89350ece997c57c,2024-01-23_08h03.02.368,bars,2023.2.3,Win32,60.97560976,657b66ea316d21385b68909f,,,,,,,,,,,2112.9759,2113.9758,,,2114.4766,2114.7264,,10,10,,,,,,,,,,,,,,,,bars/014.png,bars/mask002.png,,,,,,,,,,,,3,2,,,,,,,6,4,6,4,,,,,,,,,,,2113.9759,2114.4764,2114.7265,2118.3272,space,3.5818,,2118.3273,70,10,2119.3269,2119.327,2119.3709,,,,0,38,38,38,1,80,0,,,,,,,,
,,5ec62e2f1de80c000cec6df7,65af5638b89350ece997c57c,2024-01-23_08h03.02.368,bars,2023.2.3,Win32,60.97560976,657b66ea316d21385b68909f,,,,,,,,,,,2119.3712,2120.3602,,,2120.8693,2121.1159,,38,38,,,,,,,,,,,,,,,,bars/048.png,bars/mask002.png,,,,,,,,,,,,4,1,,,,,,,8,6,7,6,,,,,,,,,,,2120.3604,2120.8693,2121.1161,2123.0101,space,1.8695,,2123.0102,12,43,2124.0025,2124.0026,2124.0396,,,,0,39,39,39,1,50,175,,,,,,,,
,,5ec62e2f1de80c000cec6df7,65af5638b89350ece997c57c,2024-01-23_08h03.02.368,bars,2023.2.3,Win32,60.97560976,657b66ea316d21385b68909f,,,,,,,,,,,2124.0399,2125.0438,,,2125.5443,2125.7942,,13,13,,,,,,,,,,,,,,,,bars/040.png,bars/mask008.png,,,,,,,,,,,,2,2,,,,,,,10,4,9,3,,,,,,,,,,,2125.0439,2125.5442,2125.7943,2128.5454,space,2.7362,,2128.5455,53,8,2129.5448,2129.545,2129.5973,,,,0,40,40,40,1,140,5,,,,,,,,
,,5ec62e2f1de80c000cec6df7,65af5638b89350ece997c57c,2024-01-23_08h03.02.368,bars,2023.2.3,Win32,60.97560976,657b66ea316d21385b68909f,,,,,,,,,,,2129.5977,2130.5938,,,2131.0934,2131.3443,,42,222,,,,,,,,,,,,,,,,bars/027.png,bars/mask006.png,,,,,,,,,,,,0,2,,,,,,,8,2,9,0,,,,,,,,,,,2130.5938,2131.0934,2131.3445,2135.2106,space,3.8551,,2135.2107,68,8,2136.2103,2136.2104,2136.2202,,,,0,41,41,41,1,110,50,,,,,,,,
,,5ec62e2f1de80c000cec6df7,65af5638b89350ece997c57c,2024-01-23_08h03.02.368,bars,2023.2.3,Win32,60.97560976,657b66ea316d21385b68909f,,,,,,,,,,,2136.2203,2137.2113,,,2137.7111,2137.9615,,44,44,,,,,,,,,,,,,,,,bars/025.png,bars/mask009.png,,,,,,,,,,,,0,2,,,,,,,10,0,10,0,,,,,,,,,,,2137.2114,2137.7111,2137.9615,2141.0783,space,3.1023,,2141.0783,61,4,2142.0781,2142.0781,2142.1059,,,,0,42,42,42,1,105,40,,,,,,,,
,,5ec62e2f1de80c000cec6df7,65af5638b89350ece997c57c,2024-01-23_08h03.02.368,bars,2023.2.3,Win32,60.97560976,657b66ea316d21385b68909f,,,,,,,,,,,2142.1063,2143.0949,,,2143.5994,2143.8458,,40,40,,,,,,,,,,,,,,,,bars/017.png,bars/mask006.png,,,,,,,,,,,,2,2,,,,,,,8,2,8,2,,,,,,,,,,,2143.095,2143.5992,2143.8463,2147.7697,space,3.9031,,2147.7698,75,5,2148.7672,2148.7673,2148.82,,,,0,43,43,43,1,145,45,,,,,,,,
,,5ec62e2f1de80c000cec6df7,65af5638b89350ece997c57c,2024-01-23_08h03.02.368,bars,2023.2.3,Win32,60.97560976,657b66ea316d21385b68909f,,,,,,,,,,,2148.8207,2149.8125,,,2150.3127,2150.5624,,51,51,,,,,,,,,,,,,,,,bars/029.png,bars/mask000.png,,,,,,,,,,,,1,2,,,,,,,10,0,10,1,,,,,,,,,,,2149.8127,2150.3124,2150.5625,2153.2997,space,2.7301,,2153.2998,39,6,2154.2988,2154.2989,2154.3334,,,,0,44,44,44,1,90,45,,,,,,,,
,,5ec62e2f1de80c000cec6df7,65af5638b89350ece997c57c,2024-01-23_08h03.02.368,bars,2023.2.3,Win32,60.97560976,657b66ea316d21385b68909f,,,,,,,,,,,2154.3337,2155.3291,,,2155.8328,2156.0839,,51,51,,,,,,,,,,,,,,,,bars/034.png,bars/mask000.png,,,,,,,,,,,,0,2,,,,,,,8,0,8,0,,,,,,,,,,,2155.3291,2155.8328,2156.084,2159.5833,space,3.4841,,2159.5833,74,14,2160.5794,2160.5794,2160.6164,,,,0,45,45,45,1,125,65,,,,,,,,
,,5ec62e2f1de80c000cec6df7,65af5638b89350ece997c57c,2024-01-23_08h03.02.368,bars,2023.2.3,Win32,60.97560976,657b66ea316d21385b68909f,,,,,,,,,,,2160.6168,2161.6127,,,2162.1122,2162.3633,,9,9,,,,,,,,,,,,,,,,bars/012.png,bars/mask001.png,,,,,,,,,,,,2,2,,,,,,,10,2,10,3,,,,,,,,,,,2161.6128,2162.1122,2162.3634,2164.6129,space,2.2406,,2164.613,81,6,2165.6128,2165.6129,2165.6137,,,,0,46,46,46,1,90,15,,,,,,,,
,,5ec62e2f1de80c000cec6df7,65af5638b89350ece997c57c,2024-01-23_08h03.02.368,bars,2023.2.3,Win32,60.97560976,657b66ea316d21385b68909f,,,,,,,,,,,2165.6139,2166.6134,,,2167.1139,2167.3635,,113,-67,,,,,,,,,,,,,,,,bars/049.png,bars/mask006.png,,,,,,,,,,,,0,2,,,,,,,8,0,8,0,,,,,,,,,,,2166.6135,2167.1138,2167.3636,2174.2316,space,6.8591,,2174.2317,47,2,2175.23,2175.2301,2175.2518,,,,0,47,47,47,1,160,115,,,,,,,,
,,5ec62e2f1de80c000cec6df7,65af5638b89350ece997c57c,2024-01-23_08h03.02.368,bars,2023.2.3,Win32,60.97560976,657b66ea316d21385b68909f,,,,,,,,,,,2175.2521,2176.2469,,,2176.747,2176.9965,,11,191,,,,,,,,,,,,,,,,bars/045.png,bars/mask001.png,,,,,,,,,,,,5,2,,,,,,,6,2,5,5,,,,,,,,,,,2176.2469,2176.747,2176.9966,2182.2317,space,5.2259,,2182.2319,89,1,2183.2307,2183.2308,2183.2522,,,,0,48,48,48,1,100,10,,,,,,,,
,,5ec62e2f1de80c000cec6df7,65af5638b89350ece997c57c,2024-01-23_08h03.02.368,bars,2023.2.3,Win32,60.97560976,657b66ea316d21385b68909f,,,,,,,,,,,2183.2524,2184.2476,,,2184.7481,2184.9976,,49,49,,,,,,,,,,,,,,,,bars/047.png,bars/mask006.png,,,,,,,,,,,,1,2,,,,,,,8,4,8,4,,,,,,,,,,,2184.2476,2184.748,2184.9976,2190.5981,space,5.5935,,2190.5982,34,21,2191.5985,2191.5989,2191.6379,,,,0,49,49,49,1,15,70,,,,,,,,
,,5ec62e2f1de80c000cec6df7,65af5638b89350ece997c57c,2024-01-23_08h03.02.368,bars,2023.2.3,Win32,60.97560976,657b66ea316d21385b68909f,,,,,,,,,,,,,,,,,,,,,,,,,,,,,,,,,,,,,,,,,,,,,,,,,,,,,,,,,,,,,,,,,,,,,,,,,,,,,,,,,,,,,,,,,,,,,2191.6382,2251.6358,0,3,3,4,1,sequence_tables/blk004.csv
,,5ec62e2f1de80c000cec6df7,65af5638b89350ece997c57c,2024-01-23_08h03.02.368,bars,2023.2.3,Win32,60.97560976,657b66ea316d21385b68909f,,,,,,,,,,,2776.6587,2777.6224,,,2778.1218,2778.3716,,46,46,,,,,,,,,,,,,,,,bars/028.png,bars/mask008.png,,,,,,,,,,,,9,1,,,,,,,9,4,9,4,,,,,,2251.6742,2776.6106,space,524.93,,2777.6226,2778.1217,2778.3716,2780.2621,space,1.8694,,2780.2622,1,74,2781.2585,2781.2586,2781.275,,,,0,0,0,0,1,45,120,,,,,,,,
,,5ec62e2f1de80c000cec6df7,65af5638b89350ece997c57c,2024-01-23_08h03.02.368,bars,2023.2.3,Win32,60.97560976,657b66ea316d21385b68909f,,,,,,,,,,,2781.2754,2782.2774,,,2782.7718,2783.0226,,119,119,,,,,,,,,,,,,,,,bars/034.png,bars/mask000.png,,,,,,,,,,,,6,1,,,,,,,7,2,7,0,,,,,,,,,,,2782.2775,2782.7718,2783.0229,2786.5554,space,3.5147,,2786.5555,6,54,2787.5554,2787.5556,2787.5745,,,,0,1,1,1,1,125,65,,,,,,,,
,,5ec62e2f1de80c000cec6df7,65af5638b89350ece997c57c,2024-01-23_08h03.02.368,bars,2023.2.3,Win32,60.97560976,657b66ea316d21385b68909f,,,,,,,,,,,2787.5747,2788.572,,,2789.0738,2789.3236,,40,40,,,,,,,,,,,,,,,,bars/012.png,bars/mask005.png,,,,,,,,,,,,0,2,,,,,,,9,0,8,1,,,,,,,,,,,2788.572,2789.0737,2789.3236,2794.0905,space,4.7509,,2794.0908,50,25,2795.0895,2795.0895,2795.1054,,,,0,2,2,2,1,90,15,,,,,,,,
,,5ec62e2f1de80c000cec6df7,65af5638b89350ece997c57c,2024-01-23_08h03.02.368,bars,2023.2.3,Win32,60.97560976,657b66ea316d21385b68909f,,,,,,,,,,,2795.1061,2796.1062,,,2796.6063,2796.8565,,111,111,,,,,,,,,,,,,,,,bars/018.png,bars/mask003.png,,,,,,,,,,,,1,2,,,,,,,7,2,8,2,,,,,,,,,,,2796.1063,2796.6063,2796.8567,2800.7458,space,3.8834,,2800.7459,39,21,2801.7404,2801.7406,2801.7664,,,,0,3,3,3,1,150,90,,,,,,,,
,,5ec62e2f1de80c000cec6df7,65af5638b89350ece997c57c,2024-01-23_08h03.02.368,bars,2023.2.3,Win32,60.97560976,657b66ea316d21385b68909f,,,,,,,,,,,2801.7667,2802.7566,,,2803.2566,2803.5069,,21,21,,,,,,,,,,,,,,,,bars/003.png,bars/mask005.png,,,,,,,,,,,,8,1,,,,,,,9,4,9,4,,,,,,,,,,,2802.7567,2803.2566,2803.5069,2808.3737,space,4.8555,,2808.3738,4,61,2809.3736,2809.3737,2809.3896,,,,0,4,4,4,1,25,140,,,,,,,,
,,5ec62e2f1de80c000cec6df7,65af5638b89350ece997c57c,2024-01-23_08h03.02.368,bars,2023.2.3,Win32,60.97560976,657b66ea316d21385b68909f,,,,,,,,,,,2809.3901,2810.3901,,,2810.8904,2811.1415,,131,131,,,,,,,,,,,,,,,,bars/037.png,bars/mask007.png,,,,,,,,,,,,4,1,,,,,,,10,6,10,6,,,,,,,,,,,2810.3902,2810.8904,2811.1416,2814.2244,space,3.0693,,2814.2245,19,26,2815.2238,2815.2238,2815.234,,,,0,5,5,5,1,150,105,,,,,,,,
,,5ec62e2f1de80c000cec6df7,65af5638b89350ece997c57c,2024-01-23_08h03.02.368,bars,2023.2.3,Win32,60.97560976,657b66ea316d21385b68909f,,,,,,,,,,,2815.2341,2816.2245,,,2816.7249,2816.975,,24,24,,,,,,,,,,,,,,,,bars/022.png,bars/mask005.png,,,,,,,,,,,,5,2,,,,,,,8,4,9,6,,,,,,,,,,,2816.2247,2816.7248,2816.975,2896.648,space,79.6661,,2896.6485,71,4,2897.6474,2897.6475,2897.6808,,,,0,6,6,6,1,95,20,,,,,,,,
,,5ec62e2f1de80c000cec6df7,65af5638b89350ece997c57c,2024-01-23_08h03.02.368,bars,2023.2.3,Win32,60.97560976,657b66ea316d21385b68909f,,,,,,,,,,,2897.681,2898.6804,,,2899.1691,2899.4144,,135,135,,,,,,,,,,,,,,,,bars/020.png,bars/mask002.png,,,,,,,,,,,,3,1,,,,,,,10,2,10,2,,,,,,,,,,,2898.6805,2899.1689,2899.4147,2902.2818,space,2.852,,2902.2824,20,35,2903.2808,2903.281,2903.3161,,,,0,7,7,7,1,115,170,,,,,,,,
,,5ec62e2f1de80c000cec6df7,65af5638b89350ece997c57c,2024-01-23_08h03.02.368,bars,2023.2.3,Win32,60.97560976,657b66ea316d21385b68909f,,,,,,,,,,,2903.3164,2904.3148,,,2904.8135,2905.0633,,125,125,,,,,,,,,,,,,,,,bars/043.png,bars/mask006.png,,,,,,,,,,,,3,2,,,,,,,10,4,10,4,,,,,,,,,,,2904.315,2904.8135,2905.0634,2908.1646,space,3.0941,,2908.1647,85,5,2909.1643,2909.1644,2909.2071,,,,0,8,8,8,1,30,130,,,,,,,,
,,5ec62e2f1de80c000cec6df7,65af5638b89350ece997c57c,2024-01-23_08h03.02.368,bars,2023.2.3,Win32,60.97560976,657b66ea316d21385b68909f,,,,,,,,,,,2909.2074,2910.1973,,,2910.701,2910.9477,,107,107,,,,,,,,,,,,,,,,bars/039.png,bars/mask001.png,,,,,,,,,,,,5,2,,,,,,,8,6,6,5,,,,,,,,,,,2910.1974,2910.701,2910.9478,2913.1185,space,2.1508,,2913.1185,68,2,2914.1165,2914.1165,2914.1325,,,,0,9,9,9,1,175,105,,,,,,,,
,,5ec62e2f1de80c000cec6df7,65af5638b89350ece997c57c,2024-01-23_08h03.02.368,bars,2023.2.3,Win32,60.97560976,657b66ea316d21385b68909f,,,,,,,,,,,2914.1329,2915.1313,,,2915.6207,2915.8647,,40,40,,,,,,,,,,,,,,,,bars/022.png,bars/mask004.png,,,,,,,,,,,,2,2,,,,,,,6,4,6,5,,,,,,,,,,,2915.1314,2915.6207,2915.8647,2917.8154,space,1.9414,,2917.8154,55,20,2918.815,2918.815,2918.8317,,,,0,10,10,10,1,95,20,,,,,,,,
,,5ec62e2f1de80c000cec6df7,65af5638b89350ece997c57c,2024-01-23_08h03.02.368,bars,2023.2.3,Win32,60.97560976,657b66ea316d21385b68909f,,,,,,,,,,,2918.8321,2919.8325,,,2920.3317,2920.5824,,162,-18,,,,,,,,,,,,,,,,bars/007.png,bars/mask006.png,,,,,,,,,,,,2,1,,,,,,,4,2,3,2,,,,,,,,,,,2919.8325,2920.3316,2920.5825,2925.057,space,4.4677,,2925.0577,13,73,2926.0511,2926.0513,2926.0896,,,,0,11,11,11,1,175,55,,,,,,,,
