init_variables.started,init_variables.stopped,participant,session,date,expName,psychopyVersion,OS,frameRate,study_id,instruction_exp.started,instruction_exp.stopped,key_resp_8.keys,key_resp_8.rt,key_resp_8.duration,instruction_single.started,instruction_single.stopped,key_resp_2.keys,key_resp_2.rt,key_resp_2.duration,interval.started,interval.stopped,cue_single.started,cue_single.stopped,mask.started,mask.stopped,ori_response_single.started,res_ori,res,ori_response_single.stopped,key_resp_single.keys,key_resp_single.rt,key_resp_single.duration,disp_single.started,disp_single.stopped,key_resp.keys,key_resp.rt,key_resp.duration,single.thisRepN,single.thisTrialN,single.thisN,single.thisIndex,single.ran,ori,path,mask_path,instruction_bandit.started,instruction_bandit.stopped,key_resp_6.keys,key_resp_6.rt,key_resp_6.duration,cue_bandit.started,cue_bandit.stopped,bandit_res.keys,bandit_res.rt,bandit_res.duration,outcome_bandit.started,rew,action,outcome_bandit.stopped,bandit.thisRepN,bandit.thisTrialN,bandit.thisN,bandit.thisIndex,bandit.ran,actual_rew1,actual_rew2,rew1,rew2,instruction_task.started,instruction_task.stopped,key_resp_7.keys,key_resp_7.rt,key_resp_7.duration,wait_ready.started,wait_ready.stopped,key_resp_3.keys,key_resp_3.rt,key_resp_3.duration,cue.started,cue.stopped,ori_response.started,ori_response.stopped,key_resp_5.keys,key_resp_5.rt,key_resp_5.duration,outcome.started,diff1,diff2,outcome.stopped,disp_outcome_practice.started,disp_outcome_practice.stopped,key_resp_4.keys,key_resp_4.rt,key_resp_4.duration,trials.thisRepN,trials.thisTrialN,trials.thisN,trials.thisIndex,trials.ran,ori1,ori2,break_blk.started,break_blk.stopped,block.thisRepN,block.thisTrialN,block.thisN,block.thisIndex,block.ran,condition_file
0.0004,0.0006,6015801ce68e22652f8b0b97,65af556e51c2a1f8263dc813,2024-01-23_07h59.30.230,bars,2023.2.3,MacIntel,59.88023952,657b66ea316d21385b68909f,,,,,,,,,,,,,,,,,,,,,,,,,,,,,,,,,,,,,,,,,,,,,,,,,,,,,,,,,,,,,,,,,,,,,,,,,,,,,,,,,,,,,,,,,,,,,,,,,,,,
,,6015801ce68e22652f8b0b97,65af556e51c2a1f8263dc813,2024-01-23_07h59.30.230,bars,2023.2.3,MacIntel,59.88023952,657b66ea316d21385b68909f,0.0008,92.8682,y,92.5734,0.0356,,,,,,,,,,,,,,,,,,,,,,,,,,,,,,,,,,,,,,,,,,,,,,,,,,,,,,,,,,,,,,,,,,,,,,,,,,,,,,,,,,,,,,,,,,,,,,,
,,6015801ce68e22652f8b0b97,65af556e51c2a1f8263dc813,2024-01-23_07h59.30.230,bars,2023.2.3,MacIntel,59.88023952,657b66ea316d21385b68909f,,,,,,92.8687,129.9618,space,36.954,,,,,,,,,,,,,,,,,,,,,,,,,,,,,,,,,,,,,,,,,,,,,,,,,,,,,,,,,,,,,,,,,,,,,,,,,,,,,,,,,,,,,,,,,,,
,,6015801ce68e22652f8b0b97,65af556e51c2a1f8263dc813,2024-01-23_07h59.30.230,bars,2023.2.3,MacIntel,59.88023952,657b66ea316d21385b68909f,,,,,,,,,,,129.9731,130.967,130.9672,131.4658,131.4662,131.7203,131.7219,108,108,197.2691,space,65.5185,,197.2693,204.918,space,7.5184,,0,0,0,2,1,145,bars/single002.png,bars/mask003.png,,,,,,,,,,,,,,,,,,,,,,,,,,,,,,,,,,,,,,,,,,,,,,,,,,,,,,,,,,,,,,,,
,,6015801ce68e22652f8b0b97,65af556e51c2a1f8263dc813,2024-01-23_07h59.30.230,bars,2023.2.3,MacIntel,59.88023952,657b66ea316d21385b68909f,,,,,,,,,,,204.9295,205.9187,205.9188,206.4181,206.4181,206.6673,206.6673,142,-38,230.9349,space,24.2559,,230.935,274.6165,space,43.6405,,0,1,1,1,1,20,bars/single001.png,bars/mask006.png,,,,,,,,,,,,,,,,,,,,,,,,,,,,,,,,,,,,,,,,,,,,,,,,,,,,,,,,,,,,,,,,
,,6015801ce68e22652f8b0b97,65af556e51c2a1f8263dc813,2024-01-23_07h59.30.230,bars,2023.2.3,MacIntel,59.88023952,657b66ea316d21385b68909f,,,,,,,,,,,274.6322,275.6167,275.6167,276.1163,276.1164,276.3668,276.3668,119,119,285.0669,space,8.6855,,285.067,290.2666,space,5.178,,0,2,2,8,1,160,bars/single008.png,bars/mask004.png,,,,,,,,,,,,,,,,,,,,,,,,,,,,,,,,,,,,,,,,,,,,,,,,,,,,,,,,,,,,,,,,
,,6015801ce68e22652f8b0b97,65af556e51c2a1f8263dc813,2024-01-23_07h59.30.230,bars,2023.2.3,MacIntel,59.88023952,657b66ea316d21385b68909f,,,,,,,,,,,290.2781,291.268,291.2681,291.7668,291.7668,292.0162,292.0162,6,6,298.0332,space,6.0028,,298.0333,304.2868,space,6.2283,,0,3,3,0,1,150,bars/single000.png,bars/mask006.png,,,,,,,,,,,,,,,,,,,,,,,,,,,,,,,,,,,,,,,,,,,,,,,,,,,,,,,,,,,,,,,,
,,6015801ce68e22652f8b0b97,65af556e51c2a1f8263dc813,2024-01-23_07h59.30.230,bars,2023.2.3,MacIntel,59.88023952,657b66ea316d21385b68909f,,,,,,,,,,,304.2989,305.3008,305.3008,305.7999,305.8,306.0523,306.0524,31,211,318.7515,space,12.6891,,318.7515,324.0183,space,5.2417,,0,4,4,3,1,20,bars/single003.png,bars/mask005.png,,,,,,,,,,,,,,,,,,,,,,,,,,,,,,,,,,,,,,,,,,,,,,,,,,,,,,,,,,,,,,,,
,,6015801ce68e22652f8b0b97,65af556e51c2a1f8263dc813,2024-01-23_07h59.30.230,bars,2023.2.3,MacIntel,59.88023952,657b66ea316d21385b68909f,,,,,,,,,,,324.0324,325.0351,325.0351,325.5341,325.5342,325.7839,325.7841,177,-3,332.95,space,7.1501,,332.9501,338.0167,space,5.044,,0,5,5,6,1,175,bars/single006.png,bars/mask005.png,,,,,,,,,,,,,,,,,,,,,,,,,,,,,,,,,,,,,,,,,,,,,,,,,,,,,,,,,,,,,,,,
,,6015801ce68e22652f8b0b97,65af556e51c2a1f8263dc813,2024-01-23_07h59.30.230,bars,2023.2.3,MacIntel,59.88023952,657b66ea316d21385b68909f,,,,,,,,,,,338.0286,339.0169,339.0169,339.5165,339.5166,339.7677,339.7678,22,22,344.5345,space,4.7526,,344.5346,347.6504,space,3.0813,,0,6,6,5,1,55,bars/single005.png,bars/mask008.png,,,,,,,,,,,,,,,,,,,,,,,,,,,,,,,,,,,,,,,,,,,,,,,,,,,,,,,,,,,,,,,,
,,6015801ce68e22652f8b0b97,65af556e51c2a1f8263dc813,2024-01-23_07h59.30.230,bars,2023.2.3,MacIntel,59.88023952,657b66ea316d21385b68909f,,,,,,,,,,,347.6678,348.6681,348.6681,349.1667,349.1668,349.4183,349.4183,26,26,360.7517,space,11.3234,,360.7518,366.2997,space,5.5252,,0,7,7,7,1,45,bars/single007.png,bars/mask009.png,,,,,,,,,,,,,,,,,,,,,,,,,,,,,,,,,,,,,,,,,,,,,,,,,,,,,,,,,,,,,,,,
,,6015801ce68e22652f8b0b97,65af556e51c2a1f8263dc813,2024-01-23_07h59.30.230,bars,2023.2.3,MacIntel,59.88023952,657b66ea316d21385b68909f,,,,,,,,,,,366.314,367.3002,367.3002,367.8014,367.8014,368.0502,368.0502,46,46,377.3338,space,9.2676,,377.3338,382.5014,space,5.1412,,0,8,8,9,1,20,bars/single009.png,bars/mask006.png,,,,,,,,,,,,,,,,,,,,,,,,,,,,,,,,,,,,,,,,,,,,,,,,,,,,,,,,,,,,,,,,
,,6015801ce68e22652f8b0b97,65af556e51c2a1f8263dc813,2024-01-23_07h59.30.230,bars,2023.2.3,MacIntel,59.88023952,657b66ea316d21385b68909f,,,,,,,,,,,382.5131,383.5169,383.5169,384.0167,384.0167,384.2667,384.2667,87,87,391.5005,space,7.2176,,391.5005,395.0523,space,3.5257,,0,9,9,4,1,95,bars/single004.png,bars/mask004.png,,,,,,,,,,,,,,,,,,,,,,,,,,,,,,,,,,,,,,,,,,,,,,,,,,,,,,,,,,,,,,,,
,,6015801ce68e22652f8b0b97,65af556e51c2a1f8263dc813,2024-01-23_07h59.30.230,bars,2023.2.3,MacIntel,59.88023952,657b66ea316d21385b68909f,,,,,,,,,,,,,,,,,,,,,,,,,,,,,,,,,,,,,395.0548,454.4953,space,59.4148,,,,,,,,,,,,,,,,,,,,,,,,,,,,,,,,,,,,,,,,,,,,,,,,,,,,,,,,,,,,
,,6015801ce68e22652f8b0b97,65af556e51c2a1f8263dc813,2024-01-23_07h59.30.230,bars,2023.2.3,MacIntel,59.88023952,657b66ea316d21385b68909f,,,,,,,,,,,,,,,,,,,,,,,,,,,,,,,,,,,,,,,,,,454.5198,459.8216,right,5.2706,,459.8218,2,2,460.8165,0,0,0,0,1,9,1,9,2,,,,,,,,,,,,,,,,,,,,,,,,,,,,,,,,,,,,,,,,,
,,6015801ce68e22652f8b0b97,65af556e51c2a1f8263dc813,2024-01-23_07h59.30.230,bars,2023.2.3,MacIntel,59.88023952,657b66ea316d21385b68909f,,,,,,,,,,,,,,,,,,,,,,,,,,,,,,,,,,,,,,,,,,460.817,463.1337,left,2.3015,,463.1338,10,1,464.1336,0,1,1,1,1,10,0,10,1,,,,,,,,,,,,,,,,,,,,,,,,,,,,,,,,,,,,,,,,,
,,6015801ce68e22652f8b0b97,65af556e51c2a1f8263dc813,2024-01-23_07h59.30.230,bars,2023.2.3,MacIntel,59.88023952,657b66ea316d21385b68909f,,,,,,,,,,,,,,,,,,,,,,,,,,,,,,,,,,,,,,,,,,464.134,465.6853,left,1.533,,465.6855,10,1,466.6832,0,2,2,2,1,10,2,10,2,,,,,,,,,,,,,,,,,,,,,,,,,,,,,,,,,,,,,,,,,
,,6015801ce68e22652f8b0b97,65af556e51c2a1f8263dc813,2024-01-23_07h59.30.230,bars,2023.2.3,MacIntel,59.88023952,657b66ea316d21385b68909f,,,,,,,,,,,,,,,,,,,,,,,,,,,,,,,,,,,,,,,,,,466.698,468.1337,left,1.4303,,468.1338,7,1,469.1335,0,3,3,3,1,8,4,7,3,,,,,,,,,,,,,,,,,,,,,,,,,,,,,,,,,,,,,,,,,
,,6015801ce68e22652f8b0b97,65af556e51c2a1f8263dc813,2024-01-23_07h59.30.230,bars,2023.2.3,MacIntel,59.88023952,657b66ea316d21385b68909f,,,,,,,,,,,,,,,,,,,,,,,,,,,,,,,,,,,,,,,,,,469.134,470.6681,right,1.5224,,470.6682,1,2,471.6665,0,4,4,4,1,6,2,5,1,,,,,,,,,,,,,,,,,,,,,,,,,,,,,,,,,,,,,,,,,
,,6015801ce68e22652f8b0b97,65af556e51c2a1f8263dc813,2024-01-23_07h59.30.230,bars,2023.2.3,MacIntel,59.88023952,657b66ea316d21385b68909f,,,,,,,,,,,,,,,,,,,,,,,,,,,,,,,,,,,,,,,,,,471.6669,472.3673,left,0.6851,,472.3673,4,1,473.3684,0,5,5,5,1,4,4,4,4,,,,,,,,,,,,,,,,,,,,,,,,,,,,,,,,,,,,,,,,,
,,6015801ce68e22652f8b0b97,65af556e51c2a1f8263dc813,2024-01-23_07h59.30.230,bars,2023.2.3,MacIntel,59.88023952,657b66ea316d21385b68909f,,,,,,,,,,,,,,,,,,,,,,,,,,,,,,,,,,,,,,,,,,473.3687,474.0181,left,0.6366,,474.0182,1,1,475.0169,0,6,6,6,1,2,2,1,2,,,,,,,,,,,,,,,,,,,,,,,,,,,,,,,,,,,,,,,,,
,,6015801ce68e22652f8b0b97,65af556e51c2a1f8263dc813,2024-01-23_07h59.30.230,bars,2023.2.3,MacIntel,59.88023952,657b66ea316d21385b68909f,,,,,,,,,,,,,,,,,,,,,,,,,,,,,,,,,,,,,,,,,,475.0173,475.7173,left,0.6848,,475.7174,0,1,476.7169,0,7,7,7,1,0,0,0,1,,,,,,,,,,,,,,,,,,,,,,,,,,,,,,,,,,,,,,,,,
,,6015801ce68e22652f8b0b97,65af556e51c2a1f8263dc813,2024-01-23_07h59.30.230,bars,2023.2.3,MacIntel,59.88023952,657b66ea316d21385b68909f,,,,,,,,,,,,,,,,,,,,,,,,,,,,,,,,,,,,,,,,,,476.7173,477.5001,right,0.7692,,477.5001,0,2,478.5014,0,8,8,8,1,0,2,1,0,,,,,,,,,,,,,,,,,,,,,,,,,,,,,,,,,,,,,,,,,
,,6015801ce68e22652f8b0b97,65af556e51c2a1f8263dc813,2024-01-23_07h59.30.230,bars,2023.2.3,MacIntel,59.88023952,657b66ea316d21385b68909f,,,,,,,,,,,,,,,,,,,,,,,,,,,,,,,,,,,,,,,,,,478.5017,479.0837,left,0.5666,,479.0838,2,1,480.085,0,9,9,9,1,2,4,2,3,,,,,,,,,,,,,,,,,,,,,,,,,,,,,,,,,,,,,,,,,
,,6015801ce68e22652f8b0b97,65af556e51c2a1f8263dc813,2024-01-23_07h59.30.230,bars,2023.2.3,MacIntel,59.88023952,657b66ea316d21385b68909f,,,,,,,,,,,,,,,,,,,,,,,,,,,,,,,,,,,,,,,,,,480.0854,480.7341,left,0.6385,,480.7343,0,1,481.7349,0,10,10,10,1,0,2,0,3,,,,,,,,,,,,,,,,,,,,,,,,,,,,,,,,,,,,,,,,,
,,6015801ce68e22652f8b0b97,65af556e51c2a1f8263dc813,2024-01-23_07h59.30.230,bars,2023.2.3,MacIntel,59.88023952,657b66ea316d21385b68909f,,,,,,,,,,,,,,,,,,,,,,,,,,,,,,,,,,,,,,,,,,481.7353,482.5505,right,0.801,,482.5505,3,2,483.5501,0,11,11,11,1,0,4,0,3,,,,,,,,,,,,,,,,,,,,,,,,,,,,,,,,,,,,,,,,,
,,6015801ce68e22652f8b0b97,65af556e51c2a1f8263dc813,2024-01-23_07h59.30.230,bars,2023.2.3,MacIntel,59.88023952,657b66ea316d21385b68909f,,,,,,,,,,,,,,,,,,,,,,,,,,,,,,,,,,,,,,,,,,483.5505,484.1167,right,0.5536,,484.1167,6,2,485.117,0,12,12,12,1,2,6,1,6,,,,,,,,,,,,,,,,,,,,,,,,,,,,,,,,,,,,,,,,,
,,6015801ce68e22652f8b0b97,65af556e51c2a1f8263dc813,2024-01-23_07h59.30.230,bars,2023.2.3,MacIntel,59.88023952,657b66ea316d21385b68909f,,,,,,,,,,,,,,,,,,,,,,,,,,,,,,,,,,,,,,,,,,485.1174,485.7171,right,0.5863,,485.7171,3,2,486.7171,0,13,13,13,1,0,4,1,3,,,,,,,,,,,,,,,,,,,,,,,,,,,,,,,,,,,,,,,,,
,,6015801ce68e22652f8b0b97,65af556e51c2a1f8263dc813,2024-01-23_07h59.30.230,bars,2023.2.3,MacIntel,59.88023952,657b66ea316d21385b68909f,,,,,,,,,,,,,,,,,,,,,,,,,,,,,,,,,,,,,,,,,,486.7175,487.4332,left,0.7039,,487.4332,2,1,488.4333,0,14,14,14,1,2,6,2,7,,,,,,,,,,,,,,,,,,,,,,,,,,,,,,,,,,,,,,,,,
,,6015801ce68e22652f8b0b97,65af556e51c2a1f8263dc813,2024-01-23_07h59.30.230,bars,2023.2.3,MacIntel,59.88023952,657b66ea316d21385b68909f,,,,,,,,,,,,,,,,,,,,,,,,,,,,,,,,,,,,,,,,,,488.4336,488.8171,right,0.3684,,488.8171,9,2,489.8163,0,15,15,15,1,4,8,3,9,,,,,,,,,,,,,,,,,,,,,,,,,,,,,,,,,,,,,,,,,
,,6015801ce68e22652f8b0b97,65af556e51c2a1f8263dc813,2024-01-23_07h59.30.230,bars,2023.2.3,MacIntel,59.88023952,657b66ea316d21385b68909f,,,,,,,,,,,,,,,,,,,,,,,,,,,,,,,,,,,,,,,,,,489.8167,490.6671,left,0.8322,,490.6671,7,1,491.6681,0,16,16,16,1,6,6,7,7,,,,,,,,,,,,,,,,,,,,,,,,,,,,,,,,,,,,,,,,,
,,6015801ce68e22652f8b0b97,65af556e51c2a1f8263dc813,2024-01-23_07h59.30.230,bars,2023.2.3,MacIntel,59.88023952,657b66ea316d21385b68909f,,,,,,,,,,,,,,,,,,,,,,,,,,,,,,,,,,,,,,,,,,491.6685,492.2168,right,0.5375,,492.2169,5,2,493.2168,0,17,17,17,1,8,4,9,5,,,,,,,,,,,,,,,,,,,,,,,,,,,,,,,,,,,,,,,,,
,,6015801ce68e22652f8b0b97,65af556e51c2a1f8263dc813,2024-01-23_07h59.30.230,bars,2023.2.3,MacIntel,59.88023952,657b66ea316d21385b68909f,,,,,,,,,,,,,,,,,,,,,,,,,,,,,,,,,,,,,,,,,,493.2172,493.8171,left,0.5866,,493.8172,5,1,494.819,0,18,18,18,1,6,2,5,1,,,,,,,,,,,,,,,,,,,,,,,,,,,,,,,,,,,,,,,,,
,,6015801ce68e22652f8b0b97,65af556e51c2a1f8263dc813,2024-01-23_07h59.30.230,bars,2023.2.3,MacIntel,59.88023952,657b66ea316d21385b68909f,,,,,,,,,,,,,,,,,,,,,,,,,,,,,,,,,,,,,,,,,,494.8195,495.6671,right,0.837,,495.6672,0,2,496.6671,0,19,19,19,1,8,0,7,0,,,,,,,,,,,,,,,,,,,,,,,,,,,,,,,,,,,,,,,,,
,,6015801ce68e22652f8b0b97,65af556e51c2a1f8263dc813,2024-01-23_07h59.30.230,bars,2023.2.3,MacIntel,59.88023952,657b66ea316d21385b68909f,,,,,,,,,,,,,,,,,,,,,,,,,,,,,,,,,,,,,,,,,,,,,,,,,,,,,,,,,,,,496.6758,566.8021,space,70.1101,,,,,,,,,,,,,,,,,,,,,,,,,,,,,,,,,,,,,
,,6015801ce68e22652f8b0b97,65af556e51c2a1f8263dc813,2024-01-23_07h59.30.230,bars,2023.2.3,MacIntel,59.88023952,657b66ea316d21385b68909f,,,,,,,,,,,568.8912,569.8836,,,570.3853,570.6352,,81,81,,,,,,,,,,,,,,,,bars/042.png,bars/mask000.png,,,,,,,,,,,,2,2,,,,,,,5,5,5,2,,,,,,566.8162,568.8848,space,2.0496,,569.8839,570.3853,570.6354,580.2695,space,9.6153,,580.2699,64,6,581.2687,581.269,588.4512,space,7.1674,,0,0,0,0,1,145,75,,,,,,,,
,,6015801ce68e22652f8b0b97,65af556e51c2a1f8263dc813,2024-01-23_07h59.30.230,bars,2023.2.3,MacIntel,59.88023952,657b66ea316d21385b68909f,,,,,,,,,,,588.4628,589.4513,,,589.9531,590.2003,,54,54,,,,,,,,,,,,,,,,bars/034.png,bars/mask005.png,,,,,,,,,,,,3,2,,,,,,,7,3,8,4,,,,,,,,,,,589.4513,589.9529,590.2005,594.1353,space,3.9176,,594.1354,71,11,595.1349,595.1349,600.2008,space,5.0361,,0,1,1,1,1,125,65,,,,,,,,
,,6015801ce68e22652f8b0b97,65af556e51c2a1f8263dc813,2024-01-23_07h59.30.230,bars,2023.2.3,MacIntel,59.88023952,657b66ea316d21385b68909f,,,,,,,,,,,600.2117,601.2017,,,601.7004,601.9504,,143,143,,,,,,,,,,,,,,,,bars/031.png,bars/mask006.png,,,,,,,,,,,,1,1,,,,,,,5,5,4,6,,,,,,,,,,,601.2017,601.7004,601.9504,618.2354,space,16.2711,,618.2354,23,72,619.2333,619.2333,625.3506,space,6.0819,,0,2,2,2,1,120,35,,,,,,,,
,,6015801ce68e22652f8b0b97,65af556e51c2a1f8263dc813,2024-01-23_07h59.30.230,bars,2023.2.3,MacIntel,59.88023952,657b66ea316d21385b68909f,,,,,,,,,,,625.3652,626.3517,,,626.8507,627.1005,,84,84,,,,,,,,,,,,,,,,bars/028.png,bars/mask001.png,,,,,,,,,,,,0,2,,,,,,,7,7,7,7,,,,,,,,,,,626.3517,626.8507,627.1005,631.3686,space,4.2552,,631.3687,39,36,632.3668,632.3668,638.1844,space,5.7832,,0,3,3,3,1,45,120,,,,,,,,
,,6015801ce68e22652f8b0b97,65af556e51c2a1f8263dc813,2024-01-23_07h59.30.230,bars,2023.2.3,MacIntel,59.88023952,657b66ea316d21385b68909f,,,,,,,,,,,638.1995,639.2018,,,639.7005,639.9521,,47,47,,,,,,,,,,,,,,,,bars/007.png,bars/mask004.png,,,,,,,,,,,,3,2,,,,,,,5,5,6,4,,,,,,,,,,,639.2019,639.7004,639.9522,650.6852,space,10.7205,,650.6852,52,8,651.6849,651.6849,660.3004,space,8.5885,,0,4,4,4,1,175,55,,,,,,,,
,,6015801ce68e22652f8b0b97,65af556e51c2a1f8263dc813,2024-01-23_07h59.30.230,bars,2023.2.3,MacIntel,59.88023952,657b66ea316d21385b68909f,,,,,,,,,,,660.3146,661.3022,,,661.8021,662.0519,,0,180,,,,,,,,,,,,,,,,bars/012.png,bars/mask009.png,,,,,,,,,,,,4,2,,,,,,,7,7,8,8,,,,,,,,,,,661.3022,661.802,662.052,670.4173,space,8.3491,,670.4174,90,15,671.4203,671.4205,676.4344,space,4.9832,,0,5,5,5,1,90,15,,,,,,,,
,,6015801ce68e22652f8b0b97,65af556e51c2a1f8263dc813,2024-01-23_07h59.30.230,bars,2023.2.3,MacIntel,59.88023952,657b66ea316d21385b68909f,,,,,,,,,,,676.4501,677.4353,,,677.9344,678.1844,,90,90,,,,,,,,,,,,,,,,bars/026.png,bars/mask002.png,,,,,,,,,,,,8,2,,,,,,,9,9,7,9,,,,,,,,,,,677.4353,677.9343,678.1845,683.3512,space,5.1498,,683.3517,55,5,684.3509,684.351,688.8341,space,4.4523,,0,6,6,6,1,35,85,,,,,,,,
,,6015801ce68e22652f8b0b97,65af556e51c2a1f8263dc813,2024-01-23_07h59.30.230,bars,2023.2.3,MacIntel,59.88023952,657b66ea316d21385b68909f,,,,,,,,,,,688.8464,689.8353,,,690.3344,690.5843,,81,81,,,,,,,,,,,,,,,,bars/038.png,bars/mask004.png,,,,,,,,,,,,5,2,,,,,,,10,10,10,8,,,,,,,,,,,689.8353,690.3344,690.5844,698.7012,space,8.1002,,698.7013,84,11,699.701,699.7014,703.1673,space,3.4343,,0,7,7,7,1,165,70,,,,,,,,
,,6015801ce68e22652f8b0b97,65af556e51c2a1f8263dc813,2024-01-23_07h59.30.230,bars,2023.2.3,MacIntel,59.88023952,657b66ea316d21385b68909f,,,,,,,,,,,703.1678,704.1685,,,704.6672,704.9177,,22,22,,,,,,,,,,,,,,,,bars/032.png,bars/mask007.png,,,,,,,,,,,,9,2,,,,,,,10,10,10,10,,,,,,,,,,,704.1686,704.6671,704.9178,713.7874,space,8.8542,,713.7875,77,2,714.7846,714.7847,719.3173,space,4.4995,,0,8,8,8,1,125,20,,,,,,,,
,,6015801ce68e22652f8b0b97,65af556e51c2a1f8263dc813,2024-01-23_07h59.30.230,bars,2023.2.3,MacIntel,59.88023952,657b66ea316d21385b68909f,,,,,,,,,,,719.3321,720.3343,,,720.8188,721.0686,,168,-12,,,,,,,,,,,,,,,,bars/035.png,bars/mask005.png,,,,,,,,,,,,7,1,,,,,,,8,10,9,10,,,,,,,,,,,720.3344,720.8188,721.0686,730.734,space,9.6533,,730.7341,7,72,731.7354,731.7354,777.0682,space,45.3048,,0,9,9,9,1,175,60,,,,,,,,
,,6015801ce68e22652f8b0b97,65af556e51c2a1f8263dc813,2024-01-23_07h59.30.230,bars,2023.2.3,MacIntel,59.88023952,657b66ea316d21385b68909f,,,,,,,,,,,777.0828,778.0838,,,778.5833,778.8311,,36,36,,,,,,,,,,,,,,,,bars/026.png,bars/mask002.png,,,,,,,,,,,,7,1,,,,,,,6,8,7,7,,,,,,,,,,,778.084,778.5833,778.8311,780.802,space,1.9416,,780.802,1,49,781.8017,781.8017,790.3007,space,8.4655,,0,10,10,10,1,35,85,,,,,,,,
,,6015801ce68e22652f8b0b97,65af556e51c2a1f8263dc813,2024-01-23_07h59.30.230,bars,2023.2.3,MacIntel,59.88023952,657b66ea316d21385b68909f,,,,,,,,,,,790.316,791.3013,,,791.8018,792.0517,,141,141,,,,,,,,,,,,,,,,bars/049.png,bars/mask005.png,,,,,,,,,,,,2,1,,,,,,,4,6,5,5,,,,,,,,,,,791.3014,791.8017,792.0518,799.5168,space,7.4505,,799.5168,19,26,800.5172,800.5172,808.1343,space,7.583,,0,11,11,11,1,160,115,,,,,,,,
,,6015801ce68e22652f8b0b97,65af556e51c2a1f8263dc813,2024-01-23_07h59.30.230,bars,2023.2.3,MacIntel,59.88023952,657b66ea316d21385b68909f,,,,,,,,,,,808.1491,809.1502,,,809.65,809.9006,,46,46,,,,,,,,,,,,,,,,bars/025.png,bars/mask004.png,,,,,,,,,,,,2,2,,,,,,,6,4,6,3,,,,,,,,,,,809.1503,809.65,809.9006,821.5355,space,11.6193,,821.5355,59,6,822.5339,822.5339,825.651,space,3.0839,,0,12,12,12,1,105,40,,,,,,,,
,,6015801ce68e22652f8b0b97,65af556e51c2a1f8263dc813,2024-01-23_07h59.30.230,bars,2023.2.3,MacIntel,59.88023952,657b66ea316d21385b68909f,,,,,,,,,,,825.6517,826.652,,,827.1507,827.4007,,23,203,,,,,,,,,,,,,,,,bars/004.png,bars/mask003.png,,,,,,,,,,,,6,1,,,,,,,8,6,6,6,,,,,,,,,,,826.652,827.1507,827.4007,843.7336,space,16.3186,,843.7337,2,78,844.7352,844.7352,849.9511,space,5.1885,,0,13,13,13,1,25,125,,,,,,,,
,,6015801ce68e22652f8b0b97,65af556e51c2a1f8263dc813,2024-01-23_07h59.30.230,bars,2023.2.3,MacIntel,59.88023952,657b66ea316d21385b68909f,,,,,,,,,,,849.9636,850.9667,,,851.4521,851.7008,,80,80,,,,,,,,,,,,,,,,bars/042.png,bars/mask003.png,,,,,,,,,,,,3,2,,,,,,,6,4,5,4,,,,,,,,,,,850.9667,851.4521,851.7008,862.1845,space,10.4735,,862.1845,65,5,863.1839,863.184,866.9339,space,3.7178,,0,14,14,14,1,145,75,,,,,,,,
,,6015801ce68e22652f8b0b97,65af556e51c2a1f8263dc813,2024-01-23_07h59.30.230,bars,2023.2.3,MacIntel,59.88023952,657b66ea316d21385b68909f,,,,,,,,,,,866.9344,867.9338,,,868.4342,868.684,,133,133,,,,,,,,,,,,,,,,bars/039.png,bars/mask005.png,,,,,,,,,,,,0,2,,,,,,,4,2,3,2,,,,,,,,,,,867.9339,868.4342,868.684,871.5507,space,2.8552,,871.5509,42,28,872.5518,872.5519,876.6683,space,4.0818,,0,15,15,15,1,175,105,,,,,,,,
,,6015801ce68e22652f8b0b97,65af556e51c2a1f8263dc813,2024-01-23_07h59.30.230,bars,2023.2.3,MacIntel,59.88023952,657b66ea316d21385b68909f,,,,,,,,,,,876.6799,877.6852,,,878.1836,878.4185,,128,128,,,,,,,,,,,,,,,,bars/031.png,bars/mask008.png,,,,,,,,,,,,2,1,,,,,,,2,4,3,5,,,,,,,,,,,877.6852,878.1836,878.4186,892.7689,space,14.3343,,892.769,8,87,893.7675,893.7675,901.7176,space,7.914,,0,16,16,16,1,120,35,,,,,,,,
,,6015801ce68e22652f8b0b97,65af556e51c2a1f8263dc813,2024-01-23_07h59.30.230,bars,2023.2.3,MacIntel,59.88023952,657b66ea316d21385b68909f,,,,,,,,,,,901.7347,902.7187,,,903.2186,903.4688,,60,60,,,,,,,,,,,,,,,,bars/019.png,bars/mask009.png,,,,,,,,,,,,0,1,,,,,,,0,2,0,4,,,,,,,,,,,902.7188,903.2185,903.4688,905.8687,space,2.3884,,905.8687,15,45,906.8673,906.8674,909.3677,space,2.4672,,0,17,17,17,1,45,105,,,,,,,,
,,6015801ce68e22652f8b0b97,65af556e51c2a1f8263dc813,2024-01-23_07h59.30.230,bars,2023.2.3,MacIntel,59.88023952,657b66ea316d21385b68909f,,,,,,,,,,,909.3686,910.3673,,,910.8669,911.1174,,106,106,,,,,,,,,,,,,,,,bars/042.png,bars/mask003.png,,,,,,,,,,,,0,2,,,,,,,0,0,2,1,,,,,,,,,,,910.3674,910.8669,911.1174,915.4188,space,4.2892,,915.4189,39,31,916.4174,916.4174,924.5841,space,8.137,,0,18,18,18,1,145,75,,,,,,,,
,,6015801ce68e22652f8b0b97,65af556e51c2a1f8263dc813,2024-01-23_07h59.30.230,bars,2023.2.3,MacIntel,59.88023952,657b66ea316d21385b68909f,,,,,,,,,,,924.5963,925.5856,,,926.0854,926.334,,140,140,,,,,,,,,,,,,,,,bars/041.png,bars/mask004.png,,,,,,,,,,,,0,2,,,,,,,0,0,1,0,,,,,,,,,,,925.5857,926.0853,926.334,933.5857,space,7.2372,,933.5857,60,55,934.5854,934.5855,938.0022,space,3.3794,,0,19,19,19,1,20,85,,,,,,,,
,,6015801ce68e22652f8b0b97,65af556e51c2a1f8263dc813,2024-01-23_07h59.30.230,bars,2023.2.3,MacIntel,59.88023952,657b66ea316d21385b68909f,,,,,,,,,,,938.0027,939.0001,,,939.5008,939.7507,,77,77,,,,,,,,,,,,,,,,bars/041.png,bars/mask008.png,,,,,,,,,,,,1,2,,,,,,,2,2,3,2,,,,,,,,,,,939.0002,939.5007,939.7508,945.6024,space,5.8345,,945.6025,57,8,946.6008,946.6009,950.8836,space,4.2611,,0,20,20,20,1,20,85,,,,,,,,
,,6015801ce68e22652f8b0b97,65af556e51c2a1f8263dc813,2024-01-23_07h59.30.230,bars,2023.2.3,MacIntel,59.88023952,657b66ea316d21385b68909f,,,,,,,,,,,950.8959,951.8854,,,952.3856,952.6353,,110,110,,,,,,,,,,,,,,,,bars/021.png,bars/mask006.png,,,,,,,,,,,,0,2,,,,,,,0,0,0,0,,,,,,,,,,,951.8855,952.3856,952.6353,967.8857,space,15.2334,,967.8857,45,40,968.8857,968.8857,970.1677,space,1.2548,,0,21,21,21,1,155,70,,,,,,,,
,,6015801ce68e22652f8b0b97,65af556e51c2a1f8263dc813,2024-01-23_07h59.30.230,bars,2023.2.3,MacIntel,59.88023952,657b66ea316d21385b68909f,,,,,,,,,,,970.1682,971.1673,,,971.6687,971.9192,,174,174,,,,,,,,,,,,,,,,bars/015.png,bars/mask009.png,,,,,,,,,,,,1,2,,,,,,,0,2,0,2,,,,,,,,,,,971.1674,971.6687,971.9193,979.6858,space,7.753,,979.6859,64,14,980.6859,980.6859,983.9357,space,3.2203,,0,22,22,22,1,110,160,,,,,,,,
,,6015801ce68e22652f8b0b97,65af556e51c2a1f8263dc813,2024-01-23_07h59.30.230,bars,2023.2.3,MacIntel,59.88023952,657b66ea316d21385b68909f,,,,,,,,,,,983.9362,984.9377,,,985.4373,985.6846,,145,145,,,,,,,,,,,,,,,,bars/005.png,bars/mask007.png,,,,,,,,,,,,5,2,,,,,,,2,4,2,6,,,,,,,,,,,984.9377,985.4373,985.6847,991.7843,space,6.0846,,991.7843,45,5,992.7857,992.7857,996.068,space,3.2546,,0,23,23,23,1,10,140,,,,,,,,
,,6015801ce68e22652f8b0b97,65af556e51c2a1f8263dc813,2024-01-23_07h59.30.230,bars,2023.2.3,MacIntel,59.88023952,657b66ea316d21385b68909f,,,,,,,,,,,996.0689,997.0689,,,997.5682,997.819,,54,54,,,,,,,,,,,,,,,,bars/026.png,bars/mask000.png,,,,,,,,,,,,2,1,,,,,,,4,2,5,3,,,,,,,,,,,997.069,997.5682,997.819,1003.3696,space,5.5368,,1003.3698,19,31,1004.3682,1004.3682,1007.0858,space,2.6854,,0,24,24,24,1,35,85,,,,,,,,
,,6015801ce68e22652f8b0b97,65af556e51c2a1f8263dc813,2024-01-23_07h59.30.230,bars,2023.2.3,MacIntel,59.88023952,657b66ea316d21385b68909f,,,,,,,,,,,1007.1003,1008.1022,,,1008.5877,1008.8356,,2,2,,,,,,,,,,,,,,,,bars/040.png,bars/mask000.png,,,,,,,,,,,,4,2,,,,,,,2,4,2,4,,,,,,,,,,,1008.1022,1008.5876,1008.8356,1015.0357,space,6.186,,1015.0359,42,3,1016.0348,1016.0348,1019.168,space,3.1019,,0,25,25,25,1,140,5,,,,,,,,
,,6015801ce68e22652f8b0b97,65af556e51c2a1f8263dc813,2024-01-23_07h59.30.230,bars,2023.2.3,MacIntel,59.88023952,657b66ea316d21385b68909f,,,,,,,,,,,1019.1685,1020.1689,,,1020.6672,1020.918,,20,200,,,,,,,,,,,,,,,,bars/034.png,bars/mask004.png,,,,,,,,,,,,0,2,,,,,,,0,6,0,7,,,,,,,,,,,1020.169,1020.6672,1020.9181,1027.6862,space,6.753,,1027.6863,75,45,1028.6857,1028.6857,1033.4033,space,4.6883,,0,26,26,26,1,125,65,,,,,,,,
,,6015801ce68e22652f8b0b97,65af556e51c2a1f8263dc813,2024-01-23_07h59.30.230,bars,2023.2.3,MacIntel,59.88023952,657b66ea316d21385b68909f,,,,,,,,,,,1033.416,1034.4188,,,1034.9174,1035.1675,,42,42,,,,,,,,,,,,,,,,bars/038.png,bars/mask000.png,,,,,,,,,,,,1,2,,,,,,,2,8,2,9,,,,,,,,,,,1034.4189,1034.9174,1035.1675,1040.8024,space,5.6196,,1040.8024,57,28,1041.8023,1041.8024,1045.8014,space,3.9713,,0,27,27,27,1,165,70,,,,,,,,
,,6015801ce68e22652f8b0b97,65af556e51c2a1f8263dc813,2024-01-23_07h59.30.230,bars,2023.2.3,MacIntel,59.88023952,657b66ea316d21385b68909f,,,,,,,,,,,1045.8132,1046.8009,,,1047.3021,1047.5513,,133,133,,,,,,,,,,,,,,,,bars/004.png,bars/mask006.png,,,,,,,,,,,,4,2,,,,,,,0,6,0,5,,,,,,,,,,,1046.8009,1047.302,1047.5514,1052.0688,space,4.5038,,1052.0689,72,8,1053.071,1053.071,1054.5357,space,1.4396,,0,28,28,28,1,25,125,,,,,,,,
,,6015801ce68e22652f8b0b97,65af556e51c2a1f8263dc813,2024-01-23_07h59.30.230,bars,2023.2.3,MacIntel,59.88023952,657b66ea316d21385b68909f,,,,,,,,,,,1054.5361,1055.5346,,,1056.0358,1056.2857,,122,122,,,,,,,,,,,,,,,,bars/018.png,bars/mask008.png,,,,,,,,,,,,0,1,,,,,,,0,4,0,4,,,,,,,,,,,1055.5346,1056.0358,1056.2857,1068.2697,space,11.9742,,1068.2698,28,32,1069.2689,1069.269,1077.101,space,7.8167,0.0002,0,29,29,29,1,150,90,,,,,,,,
,,6015801ce68e22652f8b0b97,65af556e51c2a1f8263dc813,2024-01-23_07h59.30.230,bars,2023.2.3,MacIntel,59.88023952,657b66ea316d21385b68909f,,,,,,,,,,,1077.1173,1078.1022,,,1078.6015,1078.8513,,6,6,,,,,,,,,,,,,,,,bars/032.png,bars/mask007.png,,,,,,,,,,,,4,2,,,,,,,2,6,2,7,,,,,,,,,,,1078.1022,1078.6015,1078.8514,1091.5016,space,12.6326,,1091.5017,61,14,1092.5027,1092.5027,1096.8023,space,4.2616,,0,30,30,30,1,125,20,,,,,,,,
,,6015801ce68e22652f8b0b97,65af556e51c2a1f8263dc813,2024-01-23_07h59.30.230,bars,2023.2.3,MacIntel,59.88023952,657b66ea316d21385b68909f,,,,,,,,,,,1096.8162,1097.8173,,,1098.317,1098.5672,,150,150,,,,,,,,,,,,,,,,bars/031.png,bars/mask002.png,,,,,,,,,,,,0,1,,,,,,,0,4,0,4,,,,,,,,,,,1097.8174,1098.3169,1098.5672,1101.2173,space,2.6358,,1101.2173,30,65,1102.2189,1102.2189,1106.3345,space,4.0851,,0,31,31,31,1,120,35,,,,,,,,
,,6015801ce68e22652f8b0b97,65af556e51c2a1f8263dc813,2024-01-23_07h59.30.230,bars,2023.2.3,MacIntel,59.88023952,657b66ea316d21385b68909f,,,,,,,,,,,1106.3509,1107.3508,,,1107.8509,1108.101,,101,101,,,,,,,,,,,,,,,,bars/021.png,bars/mask001.png,,,,,,,,,,,,0,2,,,,,,,2,6,2,5,,,,,,,,,,,1107.3508,1107.8508,1108.101,1114.1007,space,5.9864,,1114.1008,54,31,1115.101,1115.101,1117.4171,space,2.2835,,0,32,32,32,1,155,70,,,,,,,,
,,6015801ce68e22652f8b0b97,65af556e51c2a1f8263dc813,2024-01-23_07h59.30.230,bars,2023.2.3,MacIntel,59.88023952,657b66ea316d21385b68909f,,,,,,,,,,,1117.418,1118.4175,,,1118.9176,1119.1668,,115,115,,,,,,,,,,,,,,,,bars/009.png,bars/mask001.png,,,,,,,,,,,,3,2,,,,,,,4,4,4,5,,,,,,,,,,,1118.4175,1118.9176,1119.1669,1123.9022,space,4.7203,,1123.9022,80,10,1124.9021,1124.9022,1126.9674,space,2.0358,,0,33,33,33,1,15,105,,,,,,,,
,,6015801ce68e22652f8b0b97,65af556e51c2a1f8263dc813,2024-01-23_07h59.30.230,bars,2023.2.3,MacIntel,59.88023952,657b66ea316d21385b68909f,,,,,,,,,,,1126.9677,1127.9675,,,1128.4672,1128.7187,,32,32,,,,,,,,,,,,,,,,bars/029.png,bars/mask000.png,,,,,,,,,,,,1,2,,,,,,,2,2,2,2,,,,,,,,,,,1127.9676,1128.4672,1128.7188,1132.9893,space,4.2515,,1132.9894,58,13,1133.9878,1133.9879,1136.6534,space,2.6355,,0,34,34,34,1,90,45,,,,,,,,
,,6015801ce68e22652f8b0b97,65af556e51c2a1f8263dc813,2024-01-23_07h59.30.230,bars,2023.2.3,MacIntel,59.88023952,657b66ea316d21385b68909f,,,,,,,,,,,1136.654,1137.6524,,,1138.1522,1138.4029,,160,160,,,,,,,,,,,,,,,,bars/017.png,bars/mask000.png,,,,,,,,,,,,0,1,,,,,,,0,0,0,0,,,,,,,,,,,1137.6524,1138.1521,1138.4029,1144.2848,space,5.8687,,1144.2849,15,65,1145.286,1145.286,1151.5863,space,6.2663,,0,35,35,35,1,145,45,,,,,,,,
,,6015801ce68e22652f8b0b97,65af556e51c2a1f8263dc813,2024-01-23_07h59.30.230,bars,2023.2.3,MacIntel,59.88023952,657b66ea316d21385b68909f,,,,,,,,,,,1151.5994,1152.6024,,,1153.1011,1153.3516,,128,128,,,,,,,,,,,,,,,,bars/011.png,bars/mask006.png,,,,,,,,,,,,0,1,,,,,,,2,2,3,2,,,,,,,,,,,1152.6024,1153.1011,1153.3517,1158.2688,space,4.9007,,1158.2689,32,43,1159.268,1159.268,1160.3013,space,0.9979,,0,36,36,36,1,160,85,,,,,,,,
,,6015801ce68e22652f8b0b97,65af556e51c2a1f8263dc813,2024-01-23_07h59.30.230,bars,2023.2.3,MacIntel,59.88023952,657b66ea316d21385b68909f,,,,,,,,,,,1160.302,1161.3013,,,1161.8016,1162.0514,,82,82,,,,,,,,,,,,,,,,bars/018.png,bars/mask000.png,,,,,,,,,,,,0,2,,,,,,,4,0,3,0,,,,,,,,,,,1161.3014,1161.8015,1162.0515,1169.0011,space,6.9336,,1169.0012,68,8,1170.0013,1170.0014,1176.3369,space,6.2977,,0,37,37,37,1,150,90,,,,,,,,
,,6015801ce68e22652f8b0b97,65af556e51c2a1f8263dc813,2024-01-23_07h59.30.230,bars,2023.2.3,MacIntel,59.88023952,657b66ea316d21385b68909f,,,,,,,,,,,1176.3496,1177.3522,,,1177.8506,1178.1011,,23,203,,,,,,,,,,,,,,,,bars/015.png,bars/mask008.png,,,,,,,,,,,,0,2,,,,,,,2,2,2,3,,,,,,,,,,,1177.3523,1177.8505,1178.1012,1189.4364,space,11.3158,,1189.4364,87,43,1190.4346,1190.4346,1198.2513,space,7.7841,,0,38,38,38,1,110,160,,,,,,,,
,,6015801ce68e22652f8b0b97,65af556e51c2a1f8263dc813,2024-01-23_07h59.30.230,bars,2023.2.3,MacIntel,59.88023952,657b66ea316d21385b68909f,,,,,,,,,,,1198.2661,1199.2717,,,1199.7525,1200.0023,,37,37,,,,,,,,,,,,,,,,bars/025.png,bars/mask001.png,,,,,,,,,,,,5,2,,,,,,,4,4,5,5,,,,,,,,,,,1199.2717,1199.7524,1200.0024,1207.5343,space,7.5178,,1207.5344,68,3,1208.5356,1208.5357,1210.302,space,1.7354,,0,39,39,39,1,105,40,,,,,,,,
,,6015801ce68e22652f8b0b97,65af556e51c2a1f8263dc813,2024-01-23_07h59.30.230,bars,2023.2.3,MacIntel,59.88023952,657b66ea316d21385b68909f,,,,,,,,,,,1210.3024,1211.3024,,,1211.8027,1212.0525,,121,301,,,,,,,,,,,,,,,,bars/028.png,bars/mask000.png,,,,,,,,,,,,1,2,,,,,,,6,2,6,1,,,,,,,,,,,1211.3025,1211.8026,1212.0525,1225.2191,space,13.151,,1225.2191,76,1,1226.2191,1226.2192,1229.8017,space,3.5498,,0,40,40,40,1,45,120,,,,,,,,
,,6015801ce68e22652f8b0b97,65af556e51c2a1f8263dc813,2024-01-23_07h59.30.230,bars,2023.2.3,MacIntel,59.88023952,657b66ea316d21385b68909f,,,,,,,,,,,1229.8025,1230.8009,,,1231.3013,1231.5511,,27,207,,,,,,,,,,,,,,,,bars/040.png,bars/mask008.png,,,,,,,,,,,,1,2,,,,,,,4,4,3,4,,,,,,,,,,,1230.8009,1231.3013,1231.5511,1244.602,space,13.0338,,1244.6022,67,22,1245.6018,1245.6019,1247.7347,space,2.0993,,0,41,41,41,1,140,5,,,,,,,,
,,6015801ce68e22652f8b0b97,65af556e51c2a1f8263dc813,2024-01-23_07h59.30.230,bars,2023.2.3,MacIntel,59.88023952,657b66ea316d21385b68909f,,,,,,,,,,,1247.7356,1248.7346,,,1249.2357,1249.4862,,50,50,,,,,,,,,,,,,,,,bars/047.png,bars/mask009.png,,,,,,,,,,,,0,2,,,,,,,6,2,5,1,,,,,,,,,,,1248.7348,1249.2357,1249.4862,1256.5346,space,7.0347,,1256.5347,35,20,1257.5379,1257.5379,1259.5845,space,2.0209,,0,42,42,42,1,15,70,,,,,,,,
,,6015801ce68e22652f8b0b97,65af556e51c2a1f8263dc813,2024-01-23_07h59.30.230,bars,2023.2.3,MacIntel,59.88023952,657b66ea316d21385b68909f,,,,,,,,,,,1259.5855,1260.5841,,,1261.0861,1261.336,,32,32,,,,,,,,,,,,,,,,bars/035.png,bars/mask004.png,,,,,,,,,,,,0,2,,,,,,,8,0,8,0,,,,,,,,,,,1260.5842,1261.0844,1261.336,1357.0194,space,95.6733,,1357.0194,37,28,1358.0193,1358.0194,1361.4028,space,3.354,,0,43,43,43,1,175,60,,,,,,,,
,,6015801ce68e22652f8b0b97,65af556e51c2a1f8263dc813,2024-01-23_07h59.30.230,bars,2023.2.3,MacIntel,59.88023952,657b66ea316d21385b68909f,,,,,,,,,,,1361.4034,1362.4016,,,1362.9025,1363.153,,139,139,,,,,,,,,,,,,,,,bars/011.png,bars/mask005.png,,,,,,,,,,,,2,1,,,,,,,6,2,7,0,,,,,,,,,,,1362.4017,1362.9025,1363.1531,1368.5028,space,5.3357,,1368.5028,21,54,1369.5026,1369.5026,1371.1529,space,1.6197,,0,44,44,44,1,160,85,,,,,,,,
,,6015801ce68e22652f8b0b97,65af556e51c2a1f8263dc813,2024-01-23_07h59.30.230,bars,2023.2.3,MacIntel,59.88023952,657b66ea316d21385b68909f,,,,,,,,,,,1371.1535,1372.1515,,,1372.6512,1372.9029,,170,170,,,,,,,,,,,,,,,,bars/007.png,bars/mask004.png,,,,,,,,,,,,4,1,,,,,,,4,4,5,5,,,,,,,,,,,1372.1516,1372.6512,1372.9029,1375.9348,space,3.0223,,1375.9348,5,65,1376.9345,1376.9345,1379.8847,space,2.9163,,0,45,45,45,1,175,55,,,,,,,,
,,6015801ce68e22652f8b0b97,65af556e51c2a1f8263dc813,2024-01-23_07h59.30.230,bars,2023.2.3,MacIntel,59.88023952,657b66ea316d21385b68909f,,,,,,,,,,,1379.8855,1380.8844,,,1381.3857,1381.6356,,33,33,,,,,,,,,,,,,,,,bars/014.png,bars/mask004.png,,,,,,,,,,,,0,2,,,,,,,6,6,7,4,,,,,,,,,,,1380.8844,1381.3856,1381.6357,1387.0511,space,5.4017,,1387.0511,47,33,1388.0509,1388.0509,1389.9681,space,1.8834,,0,46,46,46,1,80,0,,,,,,,,
,,6015801ce68e22652f8b0b97,65af556e51c2a1f8263dc813,2024-01-23_07h59.30.230,bars,2023.2.3,MacIntel,59.88023952,657b66ea316d21385b68909f,,,,,,,,,,,1389.9688,1390.9675,,,1391.4678,1391.7187,,122,122,,,,,,,,,,,,,,,,bars/028.png,bars/mask006.png,,,,,,,,,,,,6,2,,,,,,,4,8,3,6,,,,,,,,,,,1390.9676,1391.4678,1391.7188,1398.0859,space,6.3577,,1398.0859,77,2,1399.0838,1399.0838,1400.669,space,1.5529,,0,47,47,47,1,45,120,,,,,,,,
,,6015801ce68e22652f8b0b97,65af556e51c2a1f8263dc813,2024-01-23_07h59.30.230,bars,2023.2.3,MacIntel,59.88023952,657b66ea316d21385b68909f,,,,,,,,,,,1400.6695,1401.6678,,,1402.1714,1402.4178,,120,120,,,,,,,,,,,,,,,,bars/046.png,bars/mask007.png,,,,,,,,,,,,0,2,,,,,,,6,10,7,10,,,,,,,,,,,1401.6678,1402.1713,1402.4178,1408.018,space,5.5847,,1408.018,35,35,1409.0178,1409.0178,1411.2179,space,2.1701,,0,48,48,48,1,155,85,,,,,,,,
,,6015801ce68e22652f8b0b97,65af556e51c2a1f8263dc813,2024-01-23_07h59.30.230,bars,2023.2.3,MacIntel,59.88023952,657b66ea316d21385b68909f,,,,,,,,,,,1411.2332,1412.2345,,,1412.7341,1412.9859,,60,60,,,,,,,,,,,,,,,,bars/007.png,bars/mask001.png,,,,,,,,,,,,8,2,,,,,,,8,10,8,10,,,,,,,,,,,1412.2345,1412.7341,1412.9859,1421.3681,space,8.3675,,1421.3681,65,5,1422.3673,1422.3673,1429.3843,space,6.9947,,0,49,49,49,1,175,55,,,,,,,,
,,6015801ce68e22652f8b0b97,65af556e51c2a1f8263dc813,2024-01-23_07h59.30.230,bars,2023.2.3,MacIntel,59.88023952,657b66ea316d21385b68909f,,,,,,,,,,,,,,,,,,,,,,,,,,,,,,,,,,,,,,,,,,,,,,,,,,,,,,,,,,,,,,,,,,,,,,,,,,,,,,,,,,,,,,,,,,,,,1429.4058,1489.3867,0,0,0,0,1,sequence_tables/blk011.csv
,,6015801ce68e22652f8b0b97,65af556e51c2a1f8263dc813,2024-01-23_07h59.30.230,bars,2023.2.3,MacIntel,59.88023952,657b66ea316d21385b68909f,,,,,,,,,,,1661.7296,1662.718,,,1663.2027,1663.4513,,115,115,,,,,,,,,,,,,,,,bars/030.png,bars/mask007.png,,,,,,,,,,,,1,1,,,,,,,3,6,4,4,,,,,,1489.4134,1661.7025,space,172.2746,,1662.718,1663.2026,1663.4513,1686.103,space,22.6373,,1686.1031,25,50,1687.1028,1687.1029,1687.1212,,,,0,0,0,0,1,140,65,,,,,,,,
,,6015801ce68e22652f8b0b97,65af556e51c2a1f8263dc813,2024-01-23_07h59.30.230,bars,2023.2.3,MacIntel,59.88023952,657b66ea316d21385b68909f,,,,,,,,,,,1687.1218,1688.1187,,,1688.6182,1688.8692,,36,36,,,,,,,,,,,,,,,,bars/034.png,bars/mask005.png,,,,,,,,,,,,0,2,,,,,,,1,4,1,2,,,,,,,,,,,1688.1187,1688.6182,1688.8693,1693.351,space,4.4703,,1693.351,89,29,1694.3529,1694.3529,1694.3676,,,,0,1,1,1,1,125,65,,,,,,,,
,,6015801ce68e22652f8b0b97,65af556e51c2a1f8263dc813,2024-01-23_07h59.30.230,bars,2023.2.3,MacIntel,59.88023952,657b66ea316d21385b68909f,,,,,,,,,,,1694.3679,1695.3694,,,1695.8695,1696.1183,,146,146,,,,,,,,,,,,,,,,bars/039.png,bars/mask003.png,,,,,,,,,,,,0,1,,,,,,,0,2,0,3,,,,,,,,,,,1695.3694,1695.8695,1696.1183,1703.3511,space,7.2171,,1703.3511,29,41,1704.3524,1704.3525,1704.3689,,,,0,2,2,2,1,175,105,,,,,,,,
,,6015801ce68e22652f8b0b97,65af556e51c2a1f8263dc813,2024-01-23_07h59.30.230,bars,2023.2.3,MacIntel,59.88023952,657b66ea316d21385b68909f,,,,,,,,,,,1704.3691,1705.3681,,,1705.8681,1706.1182,,141,141,,,,,,,,,,,,,,,,bars/012.png,bars/mask001.png,,,,,,,,,,,,0,1,,,,,,,2,0,1,1,,,,,,,,,,,1705.3682,1705.8681,1706.1182,1718.5691,space,12.4394,,1718.5692,51,54,1719.5693,1719.5693,1719.5847,,,,0,3,3,3,1,90,15,,,,,,,,
,,6015801ce68e22652f8b0b97,65af556e51c2a1f8263dc813,2024-01-23_07h59.30.230,bars,2023.2.3,MacIntel,59.88023952,657b66ea316d21385b68909f,,,,,,,,,,,1719.5854,1720.5861,,,1721.085,1721.3347,,27,27,,,,,,,,,,,,,,,,bars/048.png,bars/mask001.png,,,,,,,,,,,,0,1,,,,,,,0,0,0,1,,,,,,,,,,,1720.5861,1721.0849,1721.3348,1726.2848,space,4.9342,,1726.2849,23,32,1727.2849,1727.2849,1727.3001,,,,0,4,4,4,1,50,175,,,,,,,,
,,6015801ce68e22652f8b0b97,65af556e51c2a1f8263dc813,2024-01-23_07h59.30.230,bars,2023.2.3,MacIntel,59.88023952,657b66ea316d21385b68909f,,,,,,,,,,,1727.3004,1728.3015,,,1728.8014,1729.0515,,113,113,,,,,,,,,,,,,,,,bars/037.png,bars/mask005.png,,,,,,,,,,,,0,2,,,,,,,0,0,0,0,,,,,,,,,,,1728.3015,1728.8014,1729.0515,1735.0682,space,6.0012,,1735.0683,37,8,1736.0695,1736.0695,1736.0859,,,,0,5,5,5,1,150,105,,,,,,,,
,,6015801ce68e22652f8b0b97,65af556e51c2a1f8263dc813,2024-01-23_07h59.30.230,bars,2023.2.3,MacIntel,59.88023952,657b66ea316d21385b68909f,,,,,,,,,,,1736.0862,1737.0861,,,1737.5848,1737.8348,,136,136,,,,,,,,,,,,,,,,bars/020.png,bars/mask007.png,,,,,,,,,,,,1,1,,,,,,,0,2,2,3,,,,,,,,,,,1737.0861,1737.5847,1737.8348,1748.5362,space,10.6846,,1748.5362,21,34,1749.5358,1749.5358,1749.5522,,,,0,6,6,6,1,115,170,,,,,,,,
,,6015801ce68e22652f8b0b97,65af556e51c2a1f8263dc813,2024-01-23_07h59.30.230,bars,2023.2.3,MacIntel,59.88023952,657b66ea316d21385b68909f,,,,,,,,,,,1749.5524,1750.5515,,,1751.0515,1751.3006,,24,24,,,,,,,,,,,,,,,,bars/010.png,bars/mask006.png,,,,,,,,,,,,0,2,,,,,,,2,0,1,0,,,,,,,,,,,1750.5515,1751.0515,1751.3007,1760.3195,space,9.002,,1760.3196,39,31,1761.3192,1761.3192,1761.3356,,,,0,7,7,7,1,165,55,,,,,,,,
,,6015801ce68e22652f8b0b97,65af556e51c2a1f8263dc813,2024-01-23_07h59.30.230,bars,2023.2.3,MacIntel,59.88023952,657b66ea316d21385b68909f,,,,,,,,,,,1761.3359,1762.3346,,,1762.8349,1763.0859,,133,133,,,,,,,,,,,,,,,,bars/037.png,bars/mask000.png,,,,,,,,,,,,2,1,,,,,,,4,2,4,1,,,,,,,,,,,1762.3346,1762.8348,1763.086,1775.4693,space,12.3738,,1775.4693,17,28,1776.4697,1776.4697,1776.4867,,,,0,8,8,8,1,150,105,,,,,,,,
,,6015801ce68e22652f8b0b97,65af556e51c2a1f8263dc813,2024-01-23_07h59.30.230,bars,2023.2.3,MacIntel,59.88023952,657b66ea316d21385b68909f,,,,,,,,,,,1776.4871,1777.485,,,1777.9861,1778.2361,,49,49,,,,,,,,,,,,,,,,bars/034.png,bars/mask003.png,,,,,,,,,,,,0,2,,,,,,,2,0,2,0,,,,,,,,,,,1777.4851,1777.986,1778.2361,1789.3355,space,11.09,,1789.3356,76,16,1790.3343,1790.3343,1790.3509,,,,0,9,9,9,1,125,65,,,,,,,,
,,6015801ce68e22652f8b0b97,65af556e51c2a1f8263dc813,2024-01-23_07h59.30.230,bars,2023.2.3,MacIntel,59.88023952,657b66ea316d21385b68909f,,,,,,,,,,,1790.3512,1791.3527,,,1791.851,1792.1015,,66,66,,,,,,,,,,,,,,,,bars/017.png,bars/mask008.png,,,,,,,,,,,,0,2,,,,,,,4,0,4,0,,,,,,,,,,,1791.3527,1791.851,1792.1015,1797.3693,space,5.2576,,1797.3694,79,21,1798.3682,1798.3682,1798.3837,,,,0,10,10,10,1,145,45,,,,,,,,
,,6015801ce68e22652f8b0b97,65af556e51c2a1f8263dc813,2024-01-23_07h59.30.230,bars,2023.2.3,MacIntel,59.88023952,657b66ea316d21385b68909f,,,,,,,,,,,1798.3839,1799.3849,,,1799.8846,1800.1348,,55,55,,,,,,,,,,,,,,,,bars/027.png,bars/mask008.png,,,,,,,,,,,,0,2,,,,,,,6,0,6,0,,,,,,,,,,,1799.3849,1799.8846,1800.1348,1810.6531,space,10.5004,,1810.6531,55,5,1811.6515,1811.6515,1811.669,,,,0,11,11,11,1,110,50,,,,,,,,
,,6015801ce68e22652f8b0b97,65af556e51c2a1f8263dc813,2024-01-23_07h59.30.230,bars,2023.2.3,MacIntel,59.88023952,657b66ea316d21385b68909f,,,,,,,,,,,1811.6699,1812.6694,,,1813.1676,1813.4187,,138,138,,,,,,,,,,,,,,,,bars/017.png,bars/mask007.png,,,,,,,,,,,,4,1,,,,,,,4,0,5,1,,,,,,,,,,,1812.6695,1813.1675,1813.4187,1823.735,space,10.3058,,1823.7351,7,87,1824.7365,1824.7365,1824.7574,,,,0,12,12,12,1,145,45,,,,,,,,
,,6015801ce68e22652f8b0b97,65af556e51c2a1f8263dc813,2024-01-23_07h59.30.230,bars,2023.2.3,MacIntel,59.88023952,657b66ea316d21385b68909f,,,,,,,,,,,1824.7578,1825.7547,,,1826.2512,1826.5027,,152,152,,,,,,,,,,,,,,,,bars/048.png,bars/mask004.png,,,,,,,,,,,,0,2,,,,,,,6,0,6,0,,,,,,,,,,,1825.7547,1826.2512,1826.5028,1839.6028,space,13.0865,,1839.6028,78,23,1840.6015,1840.6015,1840.6192,,,,0,13,13,13,1,50,175,,,,,,,,
,,6015801ce68e22652f8b0b97,65af556e51c2a1f8263dc813,2024-01-23_07h59.30.230,bars,2023.2.3,MacIntel,59.88023952,657b66ea316d21385b68909f,,,,,,,,,,,1840.6195,1841.6176,,,1842.1183,1842.3684,,147,-33,,,,,,,,,,,,,,,,bars/014.png,bars/mask004.png,,,,,,,,,,,,0,2,,,,,,,4,0,4,0,,,,,,,,,,,1841.6176,1842.1182,1842.3684,1856.3682,space,13.9855,,1856.3682,67,33,1857.3692,1857.3693,1857.3841,,,,0,14,14,14,1,80,0,,,,,,,,
,,6015801ce68e22652f8b0b97,65af556e51c2a1f8263dc813,2024-01-23_07h59.30.230,bars,2023.2.3,MacIntel,59.88023952,657b66ea316d21385b68909f,,,,,,,,,,,1857.3843,1858.3845,,,1858.8812,1859.1196,,45,45,,,,,,,,,,,,,,,,bars/014.png,bars/mask007.png,,,,,,,,,,,,0,1,,,,,,,2,2,1,3,,,,,,,,,,,1858.3845,1858.8812,1859.1197,1864.5363,space,5.4054,,1864.5364,35,45,1865.5364,1865.5364,1865.5537,,,,0,15,15,15,1,80,0,,,,,,,,
,,6015801ce68e22652f8b0b97,65af556e51c2a1f8263dc813,2024-01-23_07h59.30.230,bars,2023.2.3,MacIntel,59.88023952,657b66ea316d21385b68909f,,,,,,,,,,,1865.554,1866.553,,,1867.053,1867.3031,,106,106,,,,,,,,,,,,,,,,bars/042.png,bars/mask005.png,,,,,,,,,,,,0,2,,,,,,,4,4,5,5,,,,,,,,,,,1866.553,1867.053,1867.3031,1873.0365,space,5.721,,1873.0366,39,31,1874.035,1874.035,1874.0529,,,,0,16,16,16,1,145,75,,,,,,,,
,,6015801ce68e22652f8b0b97,65af556e51c2a1f8263dc813,2024-01-23_07h59.30.230,bars,2023.2.3,MacIntel,59.88023952,657b66ea316d21385b68909f,,,,,,,,,,,1874.0535,1875.0522,,,1875.5532,1875.8031,,54,54,,,,,,,,,,,,,,,,bars/046.png,bars/mask006.png,,,,,,,,,,,,0,2,,,,,,,6,6,4,6,,,,,,,,,,,1875.0522,1875.5531,1875.8031,1884.8033,space,8.9856,,1884.8033,79,31,1885.8036,1885.8036,1885.8207,,,,0,17,17,17,1,155,85,,,,,,,,
,,6015801ce68e22652f8b0b97,65af556e51c2a1f8263dc813,2024-01-23_07h59.30.230,bars,2023.2.3,MacIntel,59.88023952,657b66ea316d21385b68909f,,,,,,,,,,,1885.822,1886.8196,,,1887.3198,1887.5698,,51,51,,,,,,,,,,,,,,,,bars/046.png,bars/mask009.png,,,,,,,,,,,,0,2,,,,,,,8,4,9,4,,,,,,,,,,,1886.8196,1887.3198,1887.5698,1902.0179,space,14.4361,,1902.0179,76,34,1903.0185,1903.0186,1903.0363,,,,0,18,18,18,1,155,85,,,,,,,,
,,6015801ce68e22652f8b0b97,65af556e51c2a1f8263dc813,2024-01-23_07h59.30.230,bars,2023.2.3,MacIntel,59.88023952,657b66ea316d21385b68909f,,,,,,,,,,,1903.0365,1904.0359,,,1904.5362,1904.7862,,112,112,,,,,,,,,,,,,,,,bars/019.png,bars/mask008.png,,,,,,,,,,,,5,2,,,,,,,6,6,6,7,,,,,,,,,,,1904.0359,1904.5362,1904.7862,1913.253,space,8.4531,,1913.2531,67,7,1914.2516,1914.2516,1914.266,,,,0,19,19,19,1,45,105,,,,,,,,
,,6015801ce68e22652f8b0b97,65af556e51c2a1f8263dc813,2024-01-23_07h59.30.230,bars,2023.2.3,MacIntel,59.88023952,657b66ea316d21385b68909f,,,,,,,,,,,1914.2662,1915.2692,,,1915.7682,1916.0183,,39,39,,,,,,,,,,,,,,,,bars/007.png,bars/mask003.png,,,,,,,,,,,,3,2,,,,,,,4,8,4,6,,,,,,,,,,,1915.2692,1915.7682,1916.0183,1928.3188,space,12.2852,,1928.3188,44,16,1929.3194,1929.3194,1929.3343,,,,0,20,20,20,1,175,55,,,,,,,,
,,6015801ce68e22652f8b0b97,65af556e51c2a1f8263dc813,2024-01-23_07h59.30.230,bars,2023.2.3,MacIntel,59.88023952,657b66ea316d21385b68909f,,,,,,,,,,,1929.3346,1930.335,,,1930.835,1931.0843,,138,138,,,,,,,,,,,,,,,,bars/020.png,bars/mask008.png,,,,,,,,,,,,0,1,,,,,,,2,10,2,10,,,,,,,,,,,1930.335,1930.835,1931.0843,1937.0865,space,5.9843,,1937.0865,23,32,1938.0864,1938.0865,1938.103,,,,0,21,21,21,1,115,170,,,,,,,,
,,6015801ce68e22652f8b0b97,65af556e51c2a1f8263dc813,2024-01-23_07h59.30.230,bars,2023.2.3,MacIntel,59.88023952,657b66ea316d21385b68909f,,,,,,,,,,,1938.1032,1939.1017,,,1939.6014,1939.8517,,154,154,,,,,,,,,,,,,,,,bars/024.png,bars/mask007.png,,,,,,,,,,,,4,2,,,,,,,0,8,0,8,,,,,,,,,,,1939.1017,1939.6014,1939.8517,1958.8182,space,18.9508,,1958.8184,34,16,1959.8183,1959.8183,1959.8346,,,,0,22,22,22,1,120,170,,,,,,,,
,,6015801ce68e22652f8b0b97,65af556e51c2a1f8263dc813,2024-01-23_07h59.30.230,bars,2023.2.3,MacIntel,59.88023952,657b66ea316d21385b68909f,,,,,,,,,,,1959.8349,1960.8342,,,1961.335,1961.585,,134,134,,,,,,,,,,,,,,,,bars/037.png,bars/mask005.png,,,,,,,,,,,,0,1,,,,,,,0,10,0,10,,,,,,,,,,,1960.8343,1961.335,1961.585,1968.2032,space,6.6043,,1968.2033,16,29,1969.2029,1969.2029,1969.2188,,,,0,23,23,23,1,150,105,,,,,,,,
,,6015801ce68e22652f8b0b97,65af556e51c2a1f8263dc813,2024-01-23_07h59.30.230,bars,2023.2.3,MacIntel,59.88023952,657b66ea316d21385b68909f,,,,,,,,,,,1969.2193,1970.2195,,,1970.7184,1970.9692,,148,148,,,,,,,,,,,,,,,,bars/023.png,bars/mask001.png,,,,,,,,,,,,0,2,,,,,,,0,10,0,10,,,,,,,,,,,1970.2195,1970.7183,1970.9692,1976.9019,space,5.9189,,1976.9019,52,33,1977.9017,1977.9017,1977.9208,,,,0,24,24,24,1,20,115,,,,,,,,
,,6015801ce68e22652f8b0b97,65af556e51c2a1f8263dc813,2024-01-23_07h59.30.230,bars,2023.2.3,MacIntel,59.88023952,657b66ea316d21385b68909f,,,,,,,,,,,1977.9214,1978.9194,,,1979.4184,1979.6686,,40,40,,,,,,,,,,,,,,,,bars/030.png,bars/mask002.png,,,,,,,,,,,,1,2,,,,,,,2,8,3,7,,,,,,,,,,,1978.9195,1979.4184,1979.6686,1990.1033,space,10.42,,1990.1033,80,25,1991.1032,1991.1033,1991.1178,,,,0,25,25,25,1,140,65,,,,,,,,
,,6015801ce68e22652f8b0b97,65af556e51c2a1f8263dc813,2024-01-23_07h59.30.230,bars,2023.2.3,MacIntel,59.88023952,657b66ea316d21385b68909f,,,,,,,,,,,1991.1184,1992.1203,,,1992.618,1992.8686,,37,37,,,,,,,,,,,,,,,,bars/025.png,bars/mask006.png,,,,,,,,,,,,5,2,,,,,,,0,6,0,6,,,,,,,,,,,1992.1203,1992.618,1992.8686,1998.7031,space,5.8168,,1998.7031,68,3,1999.7032,1999.7032,1999.718,,,,0,26,26,26,1,105,40,,,,,,,,
,,6015801ce68e22652f8b0b97,65af556e51c2a1f8263dc813,2024-01-23_07h59.30.230,bars,2023.2.3,MacIntel,59.88023952,657b66ea316d21385b68909f,,,,,,,,,,,1999.7182,2000.7189,,,2001.2198,2001.4682,,175,-5,,,,,,,,,,,,,,,,bars/012.png,bars/mask003.png,,,,,,,,,,,,2,2,,,,,,,2,8,1,6,,,,,,,,,,,2000.7189,2001.2197,2001.4683,2017.519,space,16.0382,,2017.519,85,20,2018.5191,2018.5192,2018.5343,,,,0,27,27,27,1,90,15,,,,,,,,
,,6015801ce68e22652f8b0b97,65af556e51c2a1f8263dc813,2024-01-23_07h59.30.230,bars,2023.2.3,MacIntel,59.88023952,657b66ea316d21385b68909f,,,,,,,,,,,2018.5345,2019.5355,,,2020.0367,2020.2851,,37,217,,,,,,,,,,,,,,,,bars/001.png,bars/mask000.png,,,,,,,,,,,,0,2,,,,,,,4,6,3,5,,,,,,,,,,,2019.5355,2020.0367,2020.2852,2029.0029,space,8.7021,,2029.0029,87,48,2030.0039,2030.004,2030.0179,,,,0,28,28,28,1,130,85,,,,,,,,
,,6015801ce68e22652f8b0b97,65af556e51c2a1f8263dc813,2024-01-23_07h59.30.230,bars,2023.2.3,MacIntel,59.88023952,657b66ea316d21385b68909f,,,,,,,,,,,2030.0181,2031.0188,,,2031.5199,2031.7699,,36,216,,,,,,,,,,,,,,,,bars/029.png,bars/mask004.png,,,,,,,,,,,,5,2,,,,,,,2,8,2,7,,,,,,,,,,,2031.0188,2031.5199,2031.77,2040.5718,space,8.7909,,2040.572,54,9,2041.5703,2041.5703,2041.5859,,,,0,29,29,29,1,90,45,,,,,,,,
,,6015801ce68e22652f8b0b97,65af556e51c2a1f8263dc813,2024-01-23_07h59.30.230,bars,2023.2.3,MacIntel,59.88023952,657b66ea316d21385b68909f,,,,,,,,,,,2041.5863,2042.5864,,,2043.0851,2043.3368,,28,208,,,,,,,,,,,,,,,,bars/007.png,bars/mask009.png,,,,,,,,,,,,1,2,,,,,,,0,10,1,10,,,,,,,,,,,2042.5864,2043.0847,2043.3368,2051.3193,space,7.9694,,2051.3194,33,27,2052.3182,2052.3183,2052.3341,,,,0,30,30,30,1,175,55,,,,,,,,
,,6015801ce68e22652f8b0b97,65af556e51c2a1f8263dc813,2024-01-23_07h59.30.230,bars,2023.2.3,MacIntel,59.88023952,657b66ea316d21385b68909f,,,,,,,,,,,2052.3344,2053.3358,,,2053.8356,2054.0866,,50,50,,,,,,,,,,,,,,,,bars/010.png,bars/mask005.png,,,,,,,,,,,,6,2,,,,,,,2,8,1,7,,,,,,,,,,,2053.3358,2053.8356,2054.0867,2058.7357,space,4.6349,,2058.7358,65,5,2059.7367,2059.7367,2059.751,,,,0,31,31,31,1,165,55,,,,,,,,
,,6015801ce68e22652f8b0b97,65af556e51c2a1f8263dc813,2024-01-23_07h59.30.230,bars,2023.2.3,MacIntel,59.88023952,657b66ea316d21385b68909f,,,,,,,,,,,2059.7512,2060.7518,,,2061.2532,2061.5013,,38,38,,,,,,,,,,,,,,,,bars/027.png,bars/mask000.png,,,,,,,,,,,,4,2,,,,,,,0,6,0,6,,,,,,,,,,,2060.7518,2061.2531,2061.5014,2067.2867,space,5.7643,,2067.2868,72,12,2068.2868,2068.2868,2068.3029,,,,0,32,32,32,1,110,50,,,,,,,,
,,6015801ce68e22652f8b0b97,65af556e51c2a1f8263dc813,2024-01-23_07h59.30.230,bars,2023.2.3,MacIntel,59.88023952,657b66ea316d21385b68909f,,,,,,,,,,,2068.3034,2069.3048,,,2069.8019,2070.0516,,11,11,,,,,,,,,,,,,,,,bars/032.png,bars/mask000.png,,,,,,,,,,,,6,2,,,,,,,2,8,4,8,,,,,,,,,,,2069.3049,2069.8018,2070.0516,2076.7368,space,6.6653,,2076.7369,66,9,2077.7367,2077.7367,2077.7517,,,,0,33,33,33,1,125,20,,,,,,,,
,,6015801ce68e22652f8b0b97,65af556e51c2a1f8263dc813,2024-01-23_07h59.30.230,bars,2023.2.3,MacIntel,59.88023952,657b66ea316d21385b68909f,,,,,,,,,,,2077.7519,2078.7549,,,2079.2532,2079.5025,,42,222,,,,,,,,,,,,,,,,bars/035.png,bars/mask004.png,,,,,,,,,,,,4,2,,,,,,,0,10,0,10,,,,,,,,,,,2078.7549,2079.2532,2079.5025,2087.9367,space,8.4169,,2087.9367,47,18,2088.9368,2088.9368,2088.9517,,,,0,34,34,34,1,175,60,,,,,,,,
,,6015801ce68e22652f8b0b97,65af556e51c2a1f8263dc813,2024-01-23_07h59.30.230,bars,2023.2.3,MacIntel,59.88023952,657b66ea316d21385b68909f,,,,,,,,,,,2088.9523,2089.9524,,,2090.4522,2090.7022,,146,146,,,,,,,,,,,,,,,,bars/013.png,bars/mask009.png,,,,,,,,,,,,0,2,,,,,,,0,10,0,8,,,,,,,,,,,2089.9525,2090.4521,2090.7024,2097.5869,space,6.8674,,2097.5869,71,44,2098.5866,2098.5867,2098.6006,,,,0,35,35,35,1,75,10,,,,,,,,
,,6015801ce68e22652f8b0b97,65af556e51c2a1f8263dc813,2024-01-23_07h59.30.230,bars,2023.2.3,MacIntel,59.88023952,657b66ea316d21385b68909f,,,,,,,,,,,2098.6009,2099.6022,,,2100.1038,2100.3555,,152,-28,,,,,,,,,,,,,,,,bars/048.png,bars/mask000.png,,,,,,,,,,,,2,2,,,,,,,0,10,0,9,,,,,,,,,,,2099.6024,2100.1037,2100.3555,2106.902,space,6.5333,,2106.902,78,23,2107.9012,2107.9012,2107.9169,,,,0,36,36,36,1,50,175,,,,,,,,
,,6015801ce68e22652f8b0b97,65af556e51c2a1f8263dc813,2024-01-23_07h59.30.230,bars,2023.2.3,MacIntel,59.88023952,657b66ea316d21385b68909f,,,,,,,,,,,2107.9172,2108.9178,,,2109.4185,2109.6682,,7,187,,,,,,,,,,,,,,,,bars/032.png,bars/mask006.png,,,,,,,,,,,,5,2,,,,,,,2,8,2,8,,,,,,,,,,,2108.9178,2109.4185,2109.6682,2116.6351,space,6.9525,,2116.6352,62,13,2117.6352,2117.6352,2117.6504,,,,0,37,37,37,1,125,20,,,,,,,,
,,6015801ce68e22652f8b0b97,65af556e51c2a1f8263dc813,2024-01-23_07h59.30.230,bars,2023.2.3,MacIntel,59.88023952,657b66ea316d21385b68909f,,,,,,,,,,,2117.6508,2118.6533,,,2119.1517,2119.403,,148,-32,,,,,,,,,,,,,,,,bars/048.png,bars/mask000.png,,,,,,,,,,,,1,2,,,,,,,0,6,0,7,,,,,,,,,,,2118.6533,2119.1517,2119.403,2124.368,space,4.9542,,2124.3682,82,27,2125.3686,2125.3687,2125.384,,,,0,38,38,38,1,50,175,,,,,,,,
,,6015801ce68e22652f8b0b97,65af556e51c2a1f8263dc813,2024-01-23_07h59.30.230,bars,2023.2.3,MacIntel,59.88023952,657b66ea316d21385b68909f,,,,,,,,,,,2125.3842,2126.3866,,,2126.8865,2127.1366,,96,96,,,,,,,,,,,,,,,,bars/046.png,bars/mask006.png,,,,,,,,,,,,2,2,,,,,,,0,4,1,3,,,,,,,,,,,2126.3866,2126.8864,2127.1366,2131.3186,space,4.1702,,2131.3186,59,11,2132.3178,2132.3179,2132.3328,,,,0,39,39,39,1,155,85,,,,,,,,
,,6015801ce68e22652f8b0b97,65af556e51c2a1f8263dc813,2024-01-23_07h59.30.230,bars,2023.2.3,MacIntel,59.88023952,657b66ea316d21385b68909f,,,,,,,,,,,2132.333,2133.3208,,,2133.8184,2134.0687,,119,119,,,,,,,,,,,,,,,,bars/009.png,bars/mask009.png,,,,,,,,,,,,3,2,,,,,,,0,6,1,6,,,,,,,,,,,2133.3209,2133.8184,2134.0687,2139.9846,space,5.9059,,2139.9847,76,14,2140.9851,2140.9852,2141.0002,,,,0,40,40,40,1,15,105,,,,,,,,
,,6015801ce68e22652f8b0b97,65af556e51c2a1f8263dc813,2024-01-23_07h59.30.230,bars,2023.2.3,MacIntel,59.88023952,657b66ea316d21385b68909f,,,,,,,,,,,2141.0005,2142.0018,,,2142.5018,2142.7514,,121,121,,,,,,,,,,,,,,,,bars/040.png,bars/mask001.png,,,,,,,,,,,,1,1,,,,,,,2,4,2,3,,,,,,,,,,,2142.0018,2142.5018,2142.7515,2154.1698,space,11.4038,,2154.1699,19,64,2155.1685,2155.1685,2155.1866,,,,0,41,41,41,1,140,5,,,,,,,,
,,6015801ce68e22652f8b0b97,65af556e51c2a1f8263dc813,2024-01-23_07h59.30.230,bars,2023.2.3,MacIntel,59.88023952,657b66ea316d21385b68909f,,,,,,,,,,,2155.1869,2156.1866,,,2156.6867,2156.935,,52,52,,,,,,,,,,,,,,,,bars/014.png,bars/mask006.png,,,,,,,,,,,,0,1,,,,,,,4,6,3,7,,,,,,,,,,,2156.1866,2156.6867,2156.9351,2166.6868,space,9.7339,,2166.6868,28,52,2167.6852,2167.6852,2167.6997,,,,0,42,42,42,1,80,0,,,,,,,,
,,6015801ce68e22652f8b0b97,65af556e51c2a1f8263dc813,2024-01-23_07h59.30.230,bars,2023.2.3,MacIntel,59.88023952,657b66ea316d21385b68909f,,,,,,,,,,,2167.7,2168.7032,,,2169.2018,2169.4529,,47,227,,,,,,,,,,,,,,,,bars/010.png,bars/mask007.png,,,,,,,,,,,,3,2,,,,,,,2,4,3,4,,,,,,,,,,,2168.7032,2169.2018,2169.453,2179.353,space,9.8848,,2179.3531,62,8,2180.3525,2180.3527,2180.3694,,,,0,43,43,43,1,165,55,,,,,,,,
,,6015801ce68e22652f8b0b97,65af556e51c2a1f8263dc813,2024-01-23_07h59.30.230,bars,2023.2.3,MacIntel,59.88023952,657b66ea316d21385b68909f,,,,,,,,,,,2180.3696,2181.368,,,2181.868,2182.1185,,58,58,,,,,,,,,,,,,,,,bars/028.png,bars/mask001.png,,,,,,,,,,,,0,1,,,,,,,0,2,0,0,,,,,,,,,,,2181.368,2181.8679,2182.1185,2187.4853,space,5.3524,,2187.4854,13,62,2188.4853,2188.4853,2188.5028,,,,0,44,44,44,1,45,120,,,,,,,,
,,6015801ce68e22652f8b0b97,65af556e51c2a1f8263dc813,2024-01-23_07h59.30.230,bars,2023.2.3,MacIntel,59.88023952,657b66ea316d21385b68909f,,,,,,,,,,,2188.5032,2189.5013,,,2190.003,2190.2528,,130,130,,,,,,,,,,,,,,,,bars/018.png,bars/mask004.png,,,,,,,,,,,,1,1,,,,,,,2,4,2,3,,,,,,,,,,,2189.5013,2190.0029,2190.2529,2197.8531,space,7.588,,2197.8531,20,40,2198.8515,2198.8515,2198.8665,,,,0,45,45,45,1,150,90,,,,,,,,
,,6015801ce68e22652f8b0b97,65af556e51c2a1f8263dc813,2024-01-23_07h59.30.230,bars,2023.2.3,MacIntel,59.88023952,657b66ea316d21385b68909f,,,,,,,,,,,2198.8667,2199.8691,,,2200.3686,2200.6187,,129,129,,,,,,,,,,,,,,,,bars/045.png,bars/mask009.png,,,,,,,,,,,,0,1,,,,,,,4,6,4,6,,,,,,,,,,,2199.8692,2200.3686,2200.6187,2209.4196,space,8.7842,,2209.4196,29,61,2210.4185,2210.4185,2210.4317,,,,0,46,46,46,1,100,10,,,,,,,,
,,6015801ce68e22652f8b0b97,65af556e51c2a1f8263dc813,2024-01-23_07h59.30.230,bars,2023.2.3,MacIntel,59.88023952,657b66ea316d21385b68909f,,,,,,,,,,,2210.4319,2211.421,,,2211.9184,2212.168,,126,126,,,,,,,,,,,,,,,,bars/001.png,bars/mask005.png,,,,,,,,,,,,2,1,,,,,,,2,8,2,7,,,,,,,,,,,2211.421,2211.9184,2212.1682,2216.7201,space,4.5361,,2216.7201,4,41,2217.7197,2217.7198,2217.7344,,,,0,47,47,47,1,130,85,,,,,,,,
,,6015801ce68e22652f8b0b97,65af556e51c2a1f8263dc813,2024-01-23_07h59.30.230,bars,2023.2.3,MacIntel,59.88023952,657b66ea316d21385b68909f,,,,,,,,,,,2217.7347,2218.7347,,,2219.2359,2219.4855,,151,151,,,,,,,,,,,,,,,,bars/012.png,bars/mask002.png,,,,,,,,,,,,0,2,,,,,,,4,6,2,5,,,,,,,,,,,2218.7348,2219.2359,2219.4856,2224.2697,space,4.7718,,2224.2697,61,44,2225.2706,2225.2707,2225.2867,,,,0,48,48,48,1,90,15,,,,,,,,
,,6015801ce68e22652f8b0b97,65af556e51c2a1f8263dc813,2024-01-23_07h59.30.230,bars,2023.2.3,MacIntel,59.88023952,657b66ea316d21385b68909f,,,,,,,,,,,2225.287,2226.2875,,,2226.7866,2227.0386,,37,37,,,,,,,,,,,,,,,,bars/007.png,bars/mask004.png,,,,,,,,,,,,3,2,,,,,,,2,8,1,8,,,,,,,,,,,2226.2875,2226.7866,2227.0386,2231.0201,space,3.9672,,2231.0202,42,18,2232.0188,2232.0188,2232.0332,,,,0,49,49,49,1,175,55,,,,,,,,
,,6015801ce68e22652f8b0b97,65af556e51c2a1f8263dc813,2024-01-23_07h59.30.230,bars,2023.2.3,MacIntel,59.88023952,657b66ea316d21385b68909f,,,,,,,,,,,,,,,,,,,,,,,,,,,,,,,,,,,,,,,,,,,,,,,,,,,,,,,,,,,,,,,,,,,,,,,,,,,,,,,,,,,,,,,,,,,,,2232.0334,2292.037,0,1,1,1,1,sequence_tables/blk042.csv
,,6015801ce68e22652f8b0b97,65af556e51c2a1f8263dc813,2024-01-23_07h59.30.230,bars,2023.2.3,MacIntel,59.88023952,657b66ea316d21385b68909f,,,,,,,,,,,2316.0482,2317.0353,,,2317.5366,2317.7857,,132,132,,,,,,,,,,,,,,,,bars/002.png,bars/mask008.png,,,,,,,,,,,,3,1,,,,,,,4,1,3,0,,,,,,2292.0515,2316.0194,space,23.9524,,2317.0353,2317.5366,2317.7858,2328.9536,space,11.1571,,2328.9536,2,47,2329.9522,2329.9522,2329.9697,,,,0,0,0,0,1,130,85,,,,,,,,
,,6015801ce68e22652f8b0b97,65af556e51c2a1f8263dc813,2024-01-23_07h59.30.230,bars,2023.2.3,MacIntel,59.88023952,657b66ea316d21385b68909f,,,,,,,,,,,2329.9699,2330.9684,,,2331.4684,2331.7181,,50,50,,,,,,,,,,,,,,,,bars/034.png,bars/mask002.png,,,,,,,,,,,,0,2,,,,,,,6,0,5,0,,,,,,,,,,,2330.9684,2331.4683,2331.7182,2343.6365,space,11.9006,,2343.6366,75,15,2344.6364,2344.6364,2344.652,,,,0,1,1,1,1,125,65,,,,,,,,
,,6015801ce68e22652f8b0b97,65af556e51c2a1f8263dc813,2024-01-23_07h59.30.230,bars,2023.2.3,MacIntel,59.88023952,657b66ea316d21385b68909f,,,,,,,,,,,2344.6526,2345.6535,,,2346.1533,2346.4015,,36,216,,,,,,,,,,,,,,,,bars/007.png,bars/mask004.png,,,,,,,,,,,,1,2,,,,,,,4,0,4,3,,,,,,,,,,,2345.6535,2346.1533,2346.4015,2353.2856,space,6.8647,,2353.2856,41,19,2354.2855,2354.2856,2354.3013,,,,0,2,2,2,1,175,55,,,,,,,,
,,6015801ce68e22652f8b0b97,65af556e51c2a1f8263dc813,2024-01-23_07h59.30.230,bars,2023.2.3,MacIntel,59.88023952,657b66ea316d21385b68909f,,,,,,,,,,,2354.3016,2355.302,,,2355.8016,2356.0516,,158,158,,,,,,,,,,,,,,,,bars/030.png,bars/mask009.png,,,,,,,,,,,,1,1,,,,,,,2,2,3,1,,,,,,,,,,,2355.302,2355.8015,2356.0516,2363.2367,space,7.1713,,2363.2367,18,87,2364.2348,2364.2348,2364.2513,,,,0,3,3,3,1,140,65,,,,,,,,
,,6015801ce68e22652f8b0b97,65af556e51c2a1f8263dc813,2024-01-23_07h59.30.230,bars,2023.2.3,MacIntel,59.88023952,657b66ea316d21385b68909f,,,,,,,,,,,2364.2517,2365.252,,,2365.7516,2366.0021,,50,50,,,,,,,,,,,,,,,,bars/028.png,bars/mask006.png,,,,,,,,,,,,3,1,,,,,,,4,4,4,4,,,,,,,,,,,2365.2521,2365.7516,2366.0021,2378.4522,space,12.4356,,2378.4522,5,70,2379.4521,2379.4521,2379.4674,,,,0,4,4,4,1,45,120,,,,,,,,
,,6015801ce68e22652f8b0b97,65af556e51c2a1f8263dc813,2024-01-23_07h59.30.230,bars,2023.2.3,MacIntel,59.88023952,657b66ea316d21385b68909f,,,,,,,,,,,2379.4677,2380.4698,,,2380.9701,2381.2181,,126,126,,,,,,,,,,,,,,,,bars/009.png,bars/mask004.png,,,,,,,,,,,,2,2,,,,,,,2,6,2,6,,,,,,,,,,,2380.4699,2380.9701,2381.2182,2385.4015,space,4.1684,,2385.4016,69,21,2386.4035,2386.4035,2386.4193,,,,0,5,5,5,1,15,105,,,,,,,,
,,6015801ce68e22652f8b0b97,65af556e51c2a1f8263dc813,2024-01-23_07h59.30.230,bars,2023.2.3,MacIntel,59.88023952,657b66ea316d21385b68909f,,,,,,,,,,,2386.4197,2387.42,,,2387.9189,2388.1699,,96,96,,,,,,,,,,,,,,,,bars/009.png,bars/mask009.png,,,,,,,,,,,,3,2,,,,,,,4,4,5,4,,,,,,,,,,,2387.42,2387.9189,2388.1699,2390.7047,space,2.5171,,2390.7047,81,9,2391.7021,2391.7021,2391.7169,,,,0,6,6,6,1,15,105,,,,,,,,
,,6015801ce68e22652f8b0b97,65af556e51c2a1f8263dc813,2024-01-23_07h59.30.230,bars,2023.2.3,MacIntel,59.88023952,657b66ea316d21385b68909f,,,,,,,,,,,2391.7171,2392.7189,,,2393.2187,2393.4683,,170,170,,,,,,,,,,,,,,,,bars/016.png,bars/mask002.png,,,,,,,,,,,,4,2,,,,,,,2,6,1,5,,,,,,,,,,,2392.7189,2393.2187,2393.4684,2395.5522,space,2.0652,,2395.5523,50,5,2396.5521,2396.5521,2396.5676,,,,0,7,7,7,1,40,165,,,,,,,,
,,6015801ce68e22652f8b0b97,65af556e51c2a1f8263dc813,2024-01-23_07h59.30.230,bars,2023.2.3,MacIntel,59.88023952,657b66ea316d21385b68909f,,,,,,,,,,,2396.5679,2397.5701,,,2398.0703,2398.32,,130,130,,,,,,,,,,,,,,,,bars/002.png,bars/mask000.png,,,,,,,,,,,,0,1,,,,,,,0,4,0,5,,,,,,,,,,,2397.5701,2398.0702,2398.32,2403.987,space,5.6536,,2403.9871,0,45,2404.9853,2404.9853,2405.0028,,,,0,8,8,8,1,130,85,,,,,,,,
,,6015801ce68e22652f8b0b97,65af556e51c2a1f8263dc813,2024-01-23_07h59.30.230,bars,2023.2.3,MacIntel,59.88023952,657b66ea316d21385b68909f,,,,,,,,,,,2405.003,2406.0021,,,2406.5036,2406.7518,,60,60,,,,,,,,,,,,,,,,bars/039.png,bars/mask009.png,,,,,,,,,,,,0,2,,,,,,,2,6,3,5,,,,,,,,,,,2406.0021,2406.5036,2406.7519,2419.3871,space,12.619,,2419.3872,65,45,2420.3854,2420.3854,2420.4013,,,,0,9,9,9,1,175,105,,,,,,,,
,,6015801ce68e22652f8b0b97,65af556e51c2a1f8263dc813,2024-01-23_07h59.30.230,bars,2023.2.3,MacIntel,59.88023952,657b66ea316d21385b68909f,,,,,,,,,,,2420.4017,2421.4032,,,2421.9022,2422.1524,,155,155,,,,,,,,,,,,,,,,bars/016.png,bars/mask008.png,,,,,,,,,,,,5,2,,,,,,,4,8,7,8,,,,,,,,,,,2421.4032,2421.9022,2422.1524,2428.3357,space,6.1686,,2428.3357,65,10,2429.3346,2429.3347,2429.3498,,,,0,10,10,10,1,40,165,,,,,,,,
,,6015801ce68e22652f8b0b97,65af556e51c2a1f8263dc813,2024-01-23_07h59.30.230,bars,2023.2.3,MacIntel,59.88023952,657b66ea316d21385b68909f,,,,,,,,,,,2429.3501,2430.3521,,,2430.8527,2431.1032,,44,44,,,,,,,,,,,,,,,,bars/002.png,bars/mask001.png,,,,,,,,,,,,0,2,,,,,,,2,10,3,8,,,,,,,,,,,2430.3522,2430.8526,2431.1032,2438.2522,space,7.1388,,2438.2522,86,41,2439.2521,2439.2521,2439.2679,,,,0,11,11,11,1,130,85,,,,,,,,
,,6015801ce68e22652f8b0b97,65af556e51c2a1f8263dc813,2024-01-23_07h59.30.230,bars,2023.2.3,MacIntel,59.88023952,657b66ea316d21385b68909f,,,,,,,,,,,2439.2681,2440.2688,,,2440.769,2441.0189,,152,152,,,,,,,,,,,,,,,,bars/015.png,bars/mask006.png,,,,,,,,,,,,7,2,,,,,,,0,10,2,10,,,,,,,,,,,2440.2688,2440.769,2441.0189,2445.4042,space,4.3687,,2445.4043,42,8,2446.4021,2446.4022,2446.4172,,,,0,12,12,12,1,110,160,,,,,,,,
,,6015801ce68e22652f8b0b97,65af556e51c2a1f8263dc813,2024-01-23_07h59.30.230,bars,2023.2.3,MacIntel,59.88023952,657b66ea316d21385b68909f,,,,,,,,,,,2446.4174,2447.4189,,,2447.9188,2448.1683,,122,122,,,,,,,,,,,,,,,,bars/019.png,bars/mask002.png,,,,,,,,,,,,3,2,,,,,,,2,8,2,8,,,,,,,,,,,2447.4189,2447.9188,2448.1683,2456.5869,space,8.4011,,2456.587,77,17,2457.5855,2457.5856,2457.6012,,,,0,13,13,13,1,45,105,,,,,,,,
,,6015801ce68e22652f8b0b97,65af556e51c2a1f8263dc813,2024-01-23_07h59.30.230,bars,2023.2.3,MacIntel,59.88023952,657b66ea316d21385b68909f,,,,,,,,,,,2457.6015,2458.6022,,,2459.1035,2459.3533,,134,134,,,,,,,,,,,,,,,,bars/020.png,bars/mask008.png,,,,,,,,,,,,2,1,,,,,,,4,6,5,5,,,,,,,,,,,2458.6023,2459.1033,2459.3534,2467.3371,space,7.9693,,2467.3372,19,36,2468.3369,2468.337,2468.3529,,,,0,14,14,14,1,115,170,,,,,,,,
,,6015801ce68e22652f8b0b97,65af556e51c2a1f8263dc813,2024-01-23_07h59.30.230,bars,2023.2.3,MacIntel,59.88023952,657b66ea316d21385b68909f,,,,,,,,,,,2468.3531,2469.3537,,,2469.8516,2470.1028,,59,59,,,,,,,,,,,,,,,,bars/001.png,bars/mask008.png,,,,,,,,,,,,1,2,,,,,,,6,8,5,8,,,,,,,,,,,2469.3537,2469.8515,2470.1028,2473.0356,space,2.9185,,2473.0357,71,26,2474.0354,2474.0354,2474.0518,,,,0,15,15,15,1,130,85,,,,,,,,
,,6015801ce68e22652f8b0b97,65af556e51c2a1f8263dc813,2024-01-23_07h59.30.230,bars,2023.2.3,MacIntel,59.88023952,657b66ea316d21385b68909f,,,,,,,,,,,2474.0521,2475.0516,,,2475.5522,2475.8016,,146,146,,,,,,,,,,,,,,,,bars/049.png,bars/mask001.png,,,,,,,,,,,,4,1,,,,,,,8,6,8,7,,,,,,,,,,,2475.0516,2475.5521,2475.8016,2483.5869,space,7.7701,,2483.587,14,31,2484.585,2484.585,2484.6021,,,,0,16,16,16,1,160,115,,,,,,,,
,,6015801ce68e22652f8b0b97,65af556e51c2a1f8263dc813,2024-01-23_07h59.30.230,bars,2023.2.3,MacIntel,59.88023952,657b66ea316d21385b68909f,,,,,,,,,,,2484.6024,2485.6022,,,2486.1022,2486.3521,,145,145,,,,,,,,,,,,,,,,bars/023.png,bars/mask002.png,,,,,,,,,,,,0,2,,,,,,,10,4,10,3,,,,,,,,,,,2485.6022,2486.1022,2486.3521,2494.5041,space,8.1362,,2494.5041,55,30,2495.5029,2495.503,2495.5183,,,,0,17,17,17,1,20,115,,,,,,,,
,,6015801ce68e22652f8b0b97,65af556e51c2a1f8263dc813,2024-01-23_07h59.30.230,bars,2023.2.3,MacIntel,59.88023952,657b66ea316d21385b68909f,,,,,,,,,,,2495.5187,2496.5192,,,2497.0205,2497.2707,,135,135,,,,,,,,,,,,,,,,bars/044.png,bars/mask001.png,,,,,,,,,,,,1,2,,,,,,,10,2,10,2,,,,,,,,,,,2496.5194,2497.0204,2497.2707,2500.5355,space,3.2508,,2500.5356,60,20,2501.5348,2501.5348,2501.5498,,,,0,18,18,18,1,75,155,,,,,,,,
,,6015801ce68e22652f8b0b97,65af556e51c2a1f8263dc813,2024-01-23_07h59.30.230,bars,2023.2.3,MacIntel,59.88023952,657b66ea316d21385b68909f,,,,,,,,,,,2501.5501,2502.5522,,,2503.0523,2503.3031,,46,46,,,,,,,,,,,,,,,,bars/027.png,bars/mask005.png,,,,,,,,,,,,3,2,,,,,,,8,4,9,4,,,,,,,,,,,2502.5522,2503.0523,2503.3032,2509.3871,space,6.0685,,2509.3872,64,4,2510.3855,2510.3855,2510.4011,,,,0,19,19,19,1,110,50,,,,,,,,
,,6015801ce68e22652f8b0b97,65af556e51c2a1f8263dc813,2024-01-23_07h59.30.230,bars,2023.2.3,MacIntel,59.88023952,657b66ea316d21385b68909f,,,,,,,,,,,2510.4013,2511.4037,,,2511.9031,2512.1524,,64,64,,,,,,,,,,,,,,,,bars/041.png,bars/mask001.png,,,,,,,,,,,,1,2,,,,,,,10,2,10,3,,,,,,,,,,,2511.4037,2511.9031,2512.1524,2519.4019,space,7.2406,,2519.402,44,21,2520.4016,2520.4017,2520.4172,,,,0,20,20,20,1,20,85,,,,,,,,
,,6015801ce68e22652f8b0b97,65af556e51c2a1f8263dc813,2024-01-23_07h59.30.230,bars,2023.2.3,MacIntel,59.88023952,657b66ea316d21385b68909f,,,,,,,,,,,2520.4174,2521.4184,,,2521.919,2522.1698,,45,45,,,,,,,,,,,,,,,,bars/017.png,bars/mask001.png,,,,,,,,,,,,0,2,,,,,,,10,0,9,0,,,,,,,,,,,2521.4184,2521.919,2522.1699,2526.4023,space,4.2164,,2526.4025,80,0,2527.4034,2527.4035,2527.4183,,,,0,21,21,21,1,145,45,,,,,,,,
,,6015801ce68e22652f8b0b97,65af556e51c2a1f8263dc813,2024-01-23_07h59.30.230,bars,2023.2.3,MacIntel,59.88023952,657b66ea316d21385b68909f,,,,,,,,,,,2527.4186,2528.4189,,,2528.9187,2529.1689,,155,155,,,,,,,,,,,,,,,,bars/043.png,bars/mask007.png,,,,,,,,,,,,0,2,,,,,,,8,0,7,0,,,,,,,,,,,2528.4189,2528.9187,2529.169,2533.2371,space,4.0519,,2533.2371,55,25,2534.2371,2534.2371,2534.2516,,,,0,22,22,22,1,30,130,,,,,,,,
,,6015801ce68e22652f8b0b97,65af556e51c2a1f8263dc813,2024-01-23_07h59.30.230,bars,2023.2.3,MacIntel,59.88023952,657b66ea316d21385b68909f,,,,,,,,,,,2534.2518,2535.2537,,,2535.7526,2536.0056,,145,-35,,,,,,,,,,,,,,,,bars/012.png,bars/mask003.png,,,,,,,,,,,,0,2,,,,,,,6,0,4,0,,,,,,,,,,,2535.2537,2535.7526,2536.0057,2548.4364,space,12.4201,,2548.4367,55,50,2549.437,2549.4371,2549.4516,,,,0,23,23,23,1,90,15,,,,,,,,
,,6015801ce68e22652f8b0b97,65af556e51c2a1f8263dc813,2024-01-23_07h59.30.230,bars,2023.2.3,MacIntel,59.88023952,657b66ea316d21385b68909f,,,,,,,,,,,2549.4518,2550.4555,,,2550.952,2551.2039,,138,138,,,,,,,,,,,,,,,,bars/039.png,bars/mask004.png,,,,,,,,,,,,0,2,,,,,,,8,0,8,0,,,,,,,,,,,2550.4556,2550.9519,2551.204,2558.9364,space,7.7166,,2558.9366,37,33,2559.937,2559.937,2559.9517,,,,0,24,24,24,1,175,105,,,,,,,,
,,6015801ce68e22652f8b0b97,65af556e51c2a1f8263dc813,2024-01-23_07h59.30.230,bars,2023.2.3,MacIntel,59.88023952,657b66ea316d21385b68909f,,,,,,,,,,,2559.9518,2560.9557,,,2561.4531,2561.7022,,26,26,,,,,,,,,,,,,,,,bars/032.png,bars/mask007.png,,,,,,,,,,,,0,2,,,,,,,6,0,5,0,,,,,,,,,,,2560.9557,2561.4531,2561.7022,2565.1706,space,3.4474,,2565.1706,81,6,2566.1699,2566.1699,2566.182,,,,0,25,25,25,1,125,20,,,,,,,,
,,6015801ce68e22652f8b0b97,65af556e51c2a1f8263dc813,2024-01-23_07h59.30.230,bars,2023.2.3,MacIntel,59.88023952,657b66ea316d21385b68909f,,,,,,,,,,,2566.1823,2567.1705,,,2567.6704,2567.9204,,7,187,,,,,,,,,,,,,,,,bars/008.png,bars/mask001.png,,,,,,,,,,,,3,2,,,,,,,8,2,7,4,,,,,,,,,,,2567.1705,2567.6704,2567.9204,2573.9373,space,6.0016,,2573.9373,77,7,2574.9369,2574.937,2574.9513,,,,0,26,26,26,1,110,0,,,,,,,,
,,6015801ce68e22652f8b0b97,65af556e51c2a1f8263dc813,2024-01-23_07h59.30.230,bars,2023.2.3,MacIntel,59.88023952,657b66ea316d21385b68909f,,,,,,,,,,,2574.9517,2575.9557,,,2576.4558,2576.7029,,155,155,,,,,,,,,,,,,,,,bars/036.png,bars/mask002.png,,,,,,,,,,,,4,1,,,,,,,6,0,6,1,,,,,,,,,,,2575.9558,2576.4557,2576.7029,2580.2039,space,3.4873,,2580.2039,10,45,2581.2023,2581.2023,2581.2183,,,,0,27,27,27,1,145,20,,,,,,,,
,,6015801ce68e22652f8b0b97,65af556e51c2a1f8263dc813,2024-01-23_07h59.30.230,bars,2023.2.3,MacIntel,59.88023952,657b66ea316d21385b68909f,,,,,,,,,,,2581.2187,2582.2205,,,2582.7197,2582.9703,,10,190,,,,,,,,,,,,,,,,bars/012.png,bars/mask003.png,,,,,,,,,,,,3,2,,,,,,,4,2,4,3,,,,,,,,,,,2582.2206,2582.7196,2582.9704,2595.889,space,12.9078,,2595.8891,80,5,2596.8857,2596.8857,2596.9016,,,,0,28,28,28,1,90,15,,,,,,,,
,,6015801ce68e22652f8b0b97,65af556e51c2a1f8263dc813,2024-01-23_07h59.30.230,bars,2023.2.3,MacIntel,59.88023952,657b66ea316d21385b68909f,,,,,,,,,,,2596.9019,2597.9056,,,2598.4029,2598.6555,,152,-28,,,,,,,,,,,,,,,,bars/040.png,bars/mask009.png,,,,,,,,,,,,1,1,,,,,,,2,0,2,0,,,,,,,,,,,2597.9057,2598.4029,2598.6556,2615.7694,space,17.1042,,2615.7697,12,33,2616.7693,2616.7696,2616.7869,,,,0,29,29,29,1,140,5,,,,,,,,
,,6015801ce68e22652f8b0b97,65af556e51c2a1f8263dc813,2024-01-23_07h59.30.230,bars,2023.2.3,MacIntel,59.88023952,657b66ea316d21385b68909f,,,,,,,,,,,2616.7872,2617.7872,,,2618.2869,2618.5373,,64,64,,,,,,,,,,,,,,,,bars/047.png,bars/mask007.png,,,,,,,,,,,,0,2,,,,,,,4,0,4,0,,,,,,,,,,,2617.7873,2618.2868,2618.5373,2624.2874,space,5.7364,,2624.2875,49,6,2625.2871,2625.2871,2625.3042,,,,0,30,30,30,1,15,70,,,,,,,,
,,6015801ce68e22652f8b0b97,65af556e51c2a1f8263dc813,2024-01-23_07h59.30.230,bars,2023.2.3,MacIntel,59.88023952,657b66ea316d21385b68909f,,,,,,,,,,,2625.3045,2626.3039,,,2626.8024,2627.0529,,169,-11,,,,,,,,,,,,,,,,bars/035.png,bars/mask005.png,,,,,,,,,,,,0,1,,,,,,,2,0,0,0,,,,,,,,,,,2626.3039,2626.8024,2627.0529,2630.1059,space,3.0364,,2630.1064,6,71,2631.1059,2631.106,2631.1233,,,,0,31,31,31,1,175,60,,,,,,,,
,,6015801ce68e22652f8b0b97,65af556e51c2a1f8263dc813,2024-01-23_07h59.30.230,bars,2023.2.3,MacIntel,59.88023952,657b66ea316d21385b68909f,,,,,,,,,,,2631.1235,2632.1205,,,2632.619,2632.8695,,149,149,,,,,,,,,,,,,,,,bars/026.png,bars/mask009.png,,,,,,,,,,,,0,2,,,,,,,0,0,0,0,,,,,,,,,,,2632.1205,2632.619,2632.8695,2647.2519,space,14.3671,,2647.252,66,64,2648.2523,2648.2524,2648.2699,,,,0,32,32,32,1,35,85,,,,,,,,
,,6015801ce68e22652f8b0b97,65af556e51c2a1f8263dc813,2024-01-23_07h59.30.230,bars,2023.2.3,MacIntel,59.88023952,657b66ea316d21385b68909f,,,,,,,,,,,2648.2701,2649.2687,,,2649.769,2650.0201,,136,-44,,,,,,,,,,,,,,,,bars/000.png,bars/mask004.png,,,,,,,,,,,,2,2,,,,,,,0,2,0,3,,,,,,,,,,,2649.2687,2649.769,2650.0202,2664.1189,space,14.0886,,2664.1189,84,9,2665.1202,2665.1203,2665.1357,,,,0,33,33,33,1,40,145,,,,,,,,
,,6015801ce68e22652f8b0b97,65af556e51c2a1f8263dc813,2024-01-23_07h59.30.230,bars,2023.2.3,MacIntel,59.88023952,657b66ea316d21385b68909f,,,,,,,,,,,2665.136,2666.1351,,,2666.6358,2666.885,,42,42,,,,,,,,,,,,,,,,bars/010.png,bars/mask003.png,,,,,,,,,,,,2,2,,,,,,,2,4,0,4,,,,,,,,,,,2666.1351,2666.6358,2666.885,2670.9027,space,4.0011,,2670.9027,57,13,2671.9023,2671.9023,2671.9174,,,,0,34,34,34,1,165,55,,,,,,,,
,,6015801ce68e22652f8b0b97,65af556e51c2a1f8263dc813,2024-01-23_07h59.30.230,bars,2023.2.3,MacIntel,59.88023952,657b66ea316d21385b68909f,,,,,,,,,,,2671.9177,2672.9189,,,2673.419,2673.669,,147,-33,,,,,,,,,,,,,,,,bars/012.png,bars/mask003.png,,,,,,,,,,,,0,2,,,,,,,4,6,5,5,,,,,,,,,,,2672.9189,2673.419,2673.669,2682.4526,space,8.7669,,2682.4527,57,48,2683.4523,2683.4524,2683.4682,,,,0,35,35,35,1,90,15,,,,,,,,
,,6015801ce68e22652f8b0b97,65af556e51c2a1f8263dc813,2024-01-23_07h59.30.230,bars,2023.2.3,MacIntel,59.88023952,657b66ea316d21385b68909f,,,,,,,,,,,2683.4684,2684.4692,,,2684.9702,2685.2184,,24,204,,,,,,,,,,,,,,,,bars/032.png,bars/mask003.png,,,,,,,,,,,,3,2,,,,,,,6,4,6,3,,,,,,,,,,,2684.4692,2684.9702,2685.2184,2694.3859,space,9.1523,,2694.3859,79,4,2695.3854,2695.3854,2695.4013,,,,0,36,36,36,1,125,20,,,,,,,,
,,6015801ce68e22652f8b0b97,65af556e51c2a1f8263dc813,2024-01-23_07h59.30.230,bars,2023.2.3,MacIntel,59.88023952,657b66ea316d21385b68909f,,,,,,,,,,,2695.4015,2696.4036,,,2696.9018,2697.1522,,127,127,,,,,,,,,,,,,,,,bars/023.png,bars/mask005.png,,,,,,,,,,,,4,2,,,,,,,4,6,4,6,,,,,,,,,,,2696.4036,2696.9018,2697.1522,2706.5706,space,9.403,,2706.5706,73,12,2707.5706,2707.5706,2707.5856,,,,0,37,37,37,1,20,115,,,,,,,,
,,6015801ce68e22652f8b0b97,65af556e51c2a1f8263dc813,2024-01-23_07h59.30.230,bars,2023.2.3,MacIntel,59.88023952,657b66ea316d21385b68909f,,,,,,,,,,,2707.586,2708.5887,,,2709.0858,2709.3374,,56,56,,,,,,,,,,,,,,,,bars/025.png,bars/mask002.png,,,,,,,,,,,,4,2,,,,,,,2,8,2,8,,,,,,,,,,,2708.5888,2709.0858,2709.3375,2713.7364,space,4.3833,,2713.7365,49,16,2714.7373,2714.7375,2714.7515,,,,0,38,38,38,1,105,40,,,,,,,,
,,6015801ce68e22652f8b0b97,65af556e51c2a1f8263dc813,2024-01-23_07h59.30.230,bars,2023.2.3,MacIntel,59.88023952,657b66ea316d21385b68909f,,,,,,,,,,,2714.7519,2715.753,,,2716.253,2716.5027,,135,135,,,,,,,,,,,,,,,,bars/049.png,bars/mask009.png,,,,,,,,,,,,3,2,,,,,,,4,10,4,10,,,,,,,,,,,2715.753,2716.253,2716.5028,2722.953,space,6.4334,,2722.953,25,20,2723.954,2723.9541,2723.9697,,,,0,39,39,39,1,160,115,,,,,,,,
,,6015801ce68e22652f8b0b97,65af556e51c2a1f8263dc813,2024-01-23_07h59.30.230,bars,2023.2.3,MacIntel,59.88023952,657b66ea316d21385b68909f,,,,,,,,,,,2723.97,2724.9696,,,2725.4706,2725.719,,62,62,,,,,,,,,,,,,,,,bars/047.png,bars/mask007.png,,,,,,,,,,,,6,2,,,,,,,2,8,3,8,,,,,,,,,,,2724.9696,2725.4705,2725.7191,2730.1733,space,4.4308,,2730.1733,47,8,2731.1691,2731.1695,2731.1843,,,,0,40,40,40,1,15,70,,,,,,,,
,,6015801ce68e22652f8b0b97,65af556e51c2a1f8263dc813,2024-01-23_07h59.30.230,bars,2023.2.3,MacIntel,59.88023952,657b66ea316d21385b68909f,,,,,,,,,,,2731.1847,2732.1863,,,2732.6868,2732.9359,,150,-30,,,,,,,,,,,,,,,,bars/048.png,bars/mask005.png,,,,,,,,,,,,1,2,,,,,,,4,6,4,6,,,,,,,,,,,2732.1863,2732.6866,2732.936,2740.9365,space,7.9835,,2740.9365,80,25,2741.9363,2741.9364,2741.9514,,,,0,41,41,41,1,50,175,,,,,,,,
,,6015801ce68e22652f8b0b97,65af556e51c2a1f8263dc813,2024-01-23_07h59.30.230,bars,2023.2.3,MacIntel,59.88023952,657b66ea316d21385b68909f,,,,,,,,,,,2741.9519,2742.954,,,2743.4527,2743.7029,,145,145,,,,,,,,,,,,,,,,bars/003.png,bars/mask008.png,,,,,,,,,,,,8,2,,,,,,,6,8,4,10,,,,,,,,,,,2742.954,2743.4527,2743.7029,2749.2873,space,5.5697,,2749.2873,60,5,2750.2856,2750.2856,2750.3011,,,,0,42,42,42,1,25,140,,,,,,,,
,,6015801ce68e22652f8b0b97,65af556e51c2a1f8263dc813,2024-01-23_07h59.30.230,bars,2023.2.3,MacIntel,59.88023952,657b66ea316d21385b68909f,,,,,,,,,,,2750.3014,2751.3038,,,2751.8028,2752.052,,136,136,,,,,,,,,,,,,,,,bars/037.png,bars/mask004.png,,,,,,,,,,,,4,1,,,,,,,8,10,8,10,,,,,,,,,,,2751.3039,2751.8027,2752.052,2757.5193,space,5.451,,2757.5194,14,31,2758.5196,2758.5196,2758.5366,,,,0,43,43,43,1,150,105,,,,,,,,
,,6015801ce68e22652f8b0b97,65af556e51c2a1f8263dc813,2024-01-23_07h59.30.230,bars,2023.2.3,MacIntel,59.88023952,657b66ea316d21385b68909f,,,,,,,,,,,2758.537,2759.5358,,,2760.0376,2760.2864,,34,34,,,,,,,,,,,,,,,,bars/038.png,bars/mask000.png,,,,,,,,,,,,0,2,,,,,,,6,10,5,10,,,,,,,,,,,2759.5358,2760.0375,2760.2865,2775.504,space,15.2013,,2775.5041,49,36,2776.5035,2776.5035,2776.5284,,,,0,44,44,44,1,165,70,,,,,,,,
,,6015801ce68e22652f8b0b97,65af556e51c2a1f8263dc813,2024-01-23_07h59.30.230,bars,2023.2.3,MacIntel,59.88023952,657b66ea316d21385b68909f,,,,,,,,,,,2776.5287,2777.5191,,,2778.0194,2778.2703,,112,112,,,,,,,,,,,,,,,,bars/041.png,bars/mask008.png,,,,,,,,,,,,1,2,,,,,,,4,10,4,10,,,,,,,,,,,2777.5191,2778.0194,2778.2704,2785.8026,space,7.5169,,2785.8027,88,27,2786.8024,2786.8024,2786.8189,,,,0,45,45,45,1,20,85,,,,,,,,
,,6015801ce68e22652f8b0b97,65af556e51c2a1f8263dc813,2024-01-23_07h59.30.230,bars,2023.2.3,MacIntel,59.88023952,657b66ea316d21385b68909f,,,,,,,,,,,2786.8193,2787.8185,,,2788.3205,2788.5691,,26,26,,,,,,,,,,,,,,,,bars/017.png,bars/mask001.png,,,,,,,,,,,,3,2,,,,,,,6,10,6,9,,,,,,,,,,,2787.8186,2788.3205,2788.5691,2792.5205,space,3.9319,,2792.5206,61,19,2793.5203,2793.5203,2793.5341,,,,0,46,46,46,1,145,45,,,,,,,,
,,6015801ce68e22652f8b0b97,65af556e51c2a1f8263dc813,2024-01-23_07h59.30.230,bars,2023.2.3,MacIntel,59.88023952,657b66ea316d21385b68909f,,,,,,,,,,,2793.5343,2794.5357,,,2795.037,2795.2853,,133,133,,,,,,,,,,,,,,,,bars/004.png,bars/mask006.png,,,,,,,,,,,,6,2,,,,,,,4,8,2,8,,,,,,,,,,,2794.5357,2795.037,2795.2854,2805.4527,space,10.1463,,2805.4528,72,8,2806.4518,2806.4518,2806.4676,,,,0,47,47,47,1,25,125,,,,,,,,
,,6015801ce68e22652f8b0b97,65af556e51c2a1f8263dc813,2024-01-23_07h59.30.230,bars,2023.2.3,MacIntel,59.88023952,657b66ea316d21385b68909f,,,,,,,,,,,2806.4678,2807.4685,,,2807.9691,2808.2209,,52,52,,,,,,,,,,,,,,,,bars/029.png,bars/mask002.png,,,,,,,,,,,,8,2,,,,,,,6,10,6,10,,,,,,,,,,,2807.4686,2807.9691,2808.2209,2823.4688,space,15.237,,2823.4689,38,7,2824.469,2824.4691,2824.4845,,,,0,48,48,48,1,90,45,,,,,,,,
,,6015801ce68e22652f8b0b97,65af556e51c2a1f8263dc813,2024-01-23_07h59.30.230,bars,2023.2.3,MacIntel,59.88023952,657b66ea316d21385b68909f,,,,,,,,,,,2824.4847,2825.4873,,,2825.986,2826.2358,,36,216,,,,,,,,,,,,,,,,bars/034.png,bars/mask001.png,,,,,,,,,,,,0,2,,,,,,,4,10,6,10,,,,,,,,,,,2825.4873,2825.986,2826.2358,2834.8205,space,8.5668,,2834.8205,89,29,2835.8204,2835.8205,2835.8357,,,,0,49,49,49,1,125,65,,,,,,,,
,,6015801ce68e22652f8b0b97,65af556e51c2a1f8263dc813,2024-01-23_07h59.30.230,bars,2023.2.3,MacIntel,59.88023952,657b66ea316d21385b68909f,,,,,,,,,,,,,,,,,,,,,,,,,,,,,,,,,,,,,,,,,,,,,,,,,,,,,,,,,,,,,,,,,,,,,,,,,,,,,,,,,,,,,,,,,,,,,2835.8359,2895.8371,0,2,2,3,1,sequence_tables/blk008.csv
,,6015801ce68e22652f8b0b97,65af556e51c2a1f8263dc813,2024-01-23_07h59.30.230,bars,2023.2.3,MacIntel,59.88023952,657b66ea316d21385b68909f,,,,,,,,,,,2998.1649,2999.1372,,,2999.6374,2999.8872,,40,40,,,,,,,,,,,,,,,,bars/007.png,bars/mask006.png,,,,,,,,,,,,2,2,,,,,,,0,3,0,3,,,,,,2895.8516,2998.1359,space,102.2648,,2999.1372,2999.6374,2999.8872,3006.403,space,6.5058,,3006.403,45,15,3007.4017,3007.4018,3007.4162,,,,0,0,0,0,1,175,55,,,,,,,,
,,6015801ce68e22652f8b0b97,65af556e51c2a1f8263dc813,2024-01-23_07h59.30.230,bars,2023.2.3,MacIntel,59.88023952,657b66ea316d21385b68909f,,,,,,,,,,,3007.4164,3008.4193,,,3008.9194,3009.1708,,140,140,,,,,,,,,,,,,,,,bars/028.png,bars/mask004.png,,,,,,,,,,,,2,2,,,,,,,2,5,0,6,,,,,,,,,,,3008.4193,3008.9194,3009.1709,3023.0695,space,13.8848,,3023.0696,85,20,3024.0692,3024.0693,3024.0845,,,,0,1,1,1,1,45,120,,,,,,,,
,,6015801ce68e22652f8b0b97,65af556e51c2a1f8263dc813,2024-01-23_07h59.30.230,bars,2023.2.3,MacIntel,59.88023952,657b66ea316d21385b68909f,,,,,,,,,,,3024.0848,3025.0855,,,3025.5865,3025.8352,,151,151,,,,,,,,,,,,,,,,bars/024.png,bars/mask003.png,,,,,,,,,,,,2,2,,,,,,,0,7,0,6,,,,,,,,,,,3025.0855,3025.5865,3025.8352,3031.3544,space,5.5013,,3031.3544,31,19,3032.3537,3032.3538,3032.3687,,,,0,2,2,2,1,120,170,,,,,,,,
,,6015801ce68e22652f8b0b97,65af556e51c2a1f8263dc813,2024-01-23_07h59.30.230,bars,2023.2.3,MacIntel,59.88023952,657b66ea316d21385b68909f,,,,,,,,,,,3032.369,3033.3707,,,3033.8693,3034.1191,,53,53,,,,,,,,,,,,,,,,bars/026.png,bars/mask005.png,,,,,,,,,,,,1,1,,,,,,,2,5,2,5,,,,,,,,,,,3033.3708,3033.8692,3034.1191,3044.2029,space,10.0666,,3044.2029,18,32,3045.2024,3045.2024,3045.2194,,,,0,3,3,3,1,35,85,,,,,,,,
,,6015801ce68e22652f8b0b97,65af556e51c2a1f8263dc813,2024-01-23_07h59.30.230,bars,2023.2.3,MacIntel,59.88023952,657b66ea316d21385b68909f,,,,,,,,,,,3045.2202,3046.2193,,,3046.7185,3046.9694,,140,140,,,,,,,,,,,,,,,,bars/005.png,bars/mask006.png,,,,,,,,,,,,7,2,,,,,,,0,7,0,7,,,,,,,,,,,3046.2194,3046.7185,3046.9694,3050.9902,space,4.0043,,3050.9903,50,0,3051.9862,3051.9863,3052.0028,,,,0,4,4,4,1,10,140,,,,,,,,
,,6015801ce68e22652f8b0b97,65af556e51c2a1f8263dc813,2024-01-23_07h59.30.230,bars,2023.2.3,MacIntel,59.88023952,657b66ea316d21385b68909f,,,,,,,,,,,3052.0033,3053.0043,,,3053.5052,3053.7542,,40,40,,,,,,,,,,,,,,,,bars/029.png,bars/mask007.png,,,,,,,,,,,,4,2,,,,,,,2,5,3,5,,,,,,,,,,,3053.0043,3053.5052,3053.7542,3057.2201,space,3.4508,,3057.2202,50,5,3058.2197,3058.2199,3058.2346,,,,0,5,5,5,1,90,45,,,,,,,,
,,6015801ce68e22652f8b0b97,65af556e51c2a1f8263dc813,2024-01-23_07h59.30.230,bars,2023.2.3,MacIntel,59.88023952,657b66ea316d21385b68909f,,,,,,,,,,,3058.2347,3059.2362,,,3059.7361,3059.9875,,139,139,,,,,,,,,,,,,,,,bars/033.png,bars/mask003.png,,,,,,,,,,,,1,2,,,,,,,0,3,0,2,,,,,,,,,,,3059.2362,3059.7361,3059.9875,3066.8535,space,6.8543,,3066.8536,66,16,3067.8524,3067.8524,3067.868,,,,0,6,6,6,1,25,155,,,,,,,,
,,6015801ce68e22652f8b0b97,65af556e51c2a1f8263dc813,2024-01-23_07h59.30.230,bars,2023.2.3,MacIntel,59.88023952,657b66ea316d21385b68909f,,,,,,,,,,,3067.8683,3068.8692,,,3069.3707,3069.6193,,46,46,,,,,,,,,,,,,,,,bars/028.png,bars/mask006.png,,,,,,,,,,,,3,1,,,,,,,2,5,3,5,,,,,,,,,,,3068.8692,3069.3707,3069.6193,3076.5527,space,6.9225,,3076.5528,1,74,3077.5525,3077.5525,3077.5712,,,,0,7,7,7,1,45,120,,,,,,,,
,,6015801ce68e22652f8b0b97,65af556e51c2a1f8263dc813,2024-01-23_07h59.30.230,bars,2023.2.3,MacIntel,59.88023952,657b66ea316d21385b68909f,,,,,,,,,,,3077.5716,3078.5707,,,3079.0694,3079.3204,,119,119,,,,,,,,,,,,,,,,bars/021.png,bars/mask005.png,,,,,,,,,,,,0,1,,,,,,,0,7,0,8,,,,,,,,,,,3078.5708,3079.0694,3079.3206,3086.3366,space,7,,3086.3367,36,49,3087.3361,3087.3361,3087.3517,,,,0,8,8,8,1,155,70,,,,,,,,
,,6015801ce68e22652f8b0b97,65af556e51c2a1f8263dc813,2024-01-23_07h59.30.230,bars,2023.2.3,MacIntel,59.88023952,657b66ea316d21385b68909f,,,,,,,,,,,3087.352,3088.3524,,,3088.8529,3089.1027,,160,-20,,,,,,,,,,,,,,,,bars/033.png,bars/mask003.png,,,,,,,,,,,,4,2,,,,,,,2,5,3,5,,,,,,,,,,,3088.3524,3088.8529,3089.1027,3099.37,space,10.2552,,3099.37,45,5,3100.3707,3100.3707,3100.3861,,,,0,9,9,9,1,25,155,,,,,,,,
,,6015801ce68e22652f8b0b97,65af556e51c2a1f8263dc813,2024-01-23_07h59.30.230,bars,2023.2.3,MacIntel,59.88023952,657b66ea316d21385b68909f,,,,,,,,,,,3100.3865,3101.3862,,,3101.8863,3102.1361,,44,44,,,,,,,,,,,,,,,,bars/034.png,bars/mask002.png,,,,,,,,,,,,2,2,,,,,,,0,7,1,7,,,,,,,,,,,3101.3862,3101.8862,3102.1361,3105.5029,space,3.3547,,3105.503,81,21,3106.5041,3106.5041,3106.5161,,,,0,10,10,10,1,125,65,,,,,,,,
,,6015801ce68e22652f8b0b97,65af556e51c2a1f8263dc813,2024-01-23_07h59.30.230,bars,2023.2.3,MacIntel,59.88023952,657b66ea316d21385b68909f,,,,,,,,,,,3106.5164,3107.5194,,,3108.0189,3108.2695,,131,131,,,,,,,,,,,,,,,,bars/013.png,bars/mask001.png,,,,,,,,,,,,0,1,,,,,,,0,9,1,10,,,,,,,,,,,3107.5195,3108.0189,3108.2695,3111.171,space,2.8866,,3111.1711,56,59,3112.1695,3112.1695,3112.1861,,,,0,11,11,11,1,75,10,,,,,,,,
,,6015801ce68e22652f8b0b97,65af556e51c2a1f8263dc813,2024-01-23_07h59.30.230,bars,2023.2.3,MacIntel,59.88023952,657b66ea316d21385b68909f,,,,,,,,,,,3112.1864,3113.186,,,3113.6857,3113.9372,,56,236,,,,,,,,,,,,,,,,bars/029.png,bars/mask007.png,,,,,,,,,,,,4,2,,,,,,,2,7,2,7,,,,,,,,,,,3113.186,3113.6856,3113.9372,3124.8691,space,10.9185,,3124.8691,34,11,3125.8705,3125.8705,3125.8866,,,,0,12,12,12,1,90,45,,,,,,,,
,,6015801ce68e22652f8b0b97,65af556e51c2a1f8263dc813,2024-01-23_07h59.30.230,bars,2023.2.3,MacIntel,59.88023952,657b66ea316d21385b68909f,,,,,,,,,,,3125.887,3126.8857,,,3127.3863,3127.6361,,147,147,,,,,,,,,,,,,,,,bars/022.png,bars/mask002.png,,,,,,,,,,,,0,1,,,,,,,4,5,3,5,,,,,,,,,,,3126.8857,3127.3862,3127.6361,3131.6212,space,3.9757,,3131.6212,52,53,3132.6191,3132.6191,3132.636,,,,0,13,13,13,1,95,20,,,,,,,,
,,6015801ce68e22652f8b0b97,65af556e51c2a1f8263dc813,2024-01-23_07h59.30.230,bars,2023.2.3,MacIntel,59.88023952,657b66ea316d21385b68909f,,,,,,,,,,,3132.6366,3133.6361,,,3134.1374,3134.3864,,49,49,,,,,,,,,,,,,,,,bars/046.png,bars/mask003.png,,,,,,,,,,,,0,2,,,,,,,2,3,1,3,,,,,,,,,,,3133.6362,3134.1374,3134.3864,3140.2696,space,5.8703,,3140.2697,74,36,3141.2691,3141.2692,3141.2852,,,,0,14,14,14,1,155,85,,,,,,,,
,,6015801ce68e22652f8b0b97,65af556e51c2a1f8263dc813,2024-01-23_07h59.30.230,bars,2023.2.3,MacIntel,59.88023952,657b66ea316d21385b68909f,,,,,,,,,,,3141.2856,3142.2865,,,3142.7873,3143.0359,,141,141,,,,,,,,,,,,,,,,bars/035.png,bars/mask007.png,,,,,,,,,,,,0,1,,,,,,,4,1,3,3,,,,,,,,,,,3142.2865,3142.7873,3143.0359,3152.9529,space,9.9055,,3152.953,34,81,3153.9526,3153.9527,3153.969,,,,0,15,15,15,1,175,60,,,,,,,,
,,6015801ce68e22652f8b0b97,65af556e51c2a1f8263dc813,2024-01-23_07h59.30.230,bars,2023.2.3,MacIntel,59.88023952,657b66ea316d21385b68909f,,,,,,,,,,,3153.9692,3154.9706,,,3155.4691,3155.7227,,125,-55,,,,,,,,,,,,,,,,bars/044.png,bars/mask001.png,,,,,,,,,,,,0,2,,,,,,,6,0,5,0,,,,,,,,,,,3154.9706,3155.4691,3155.7227,3167.7529,space,12.0198,,3167.7529,50,30,3168.7541,3168.7542,3168.7704,,,,0,16,16,16,1,75,155,,,,,,,,
,,6015801ce68e22652f8b0b97,65af556e51c2a1f8263dc813,2024-01-23_07h59.30.230,bars,2023.2.3,MacIntel,59.88023952,657b66ea316d21385b68909f,,,,,,,,,,,3168.7707,3169.7706,,,3170.2708,3170.5194,,32,32,,,,,,,,,,,,,,,,bars/029.png,bars/mask006.png,,,,,,,,,,,,1,2,,,,,,,4,2,5,2,,,,,,,,,,,3169.7706,3170.2708,3170.5194,3174.1529,space,3.6204,,3174.1529,58,13,3175.153,3175.153,3175.1681,,,,0,17,17,17,1,90,45,,,,,,,,
,,6015801ce68e22652f8b0b97,65af556e51c2a1f8263dc813,2024-01-23_07h59.30.230,bars,2023.2.3,MacIntel,59.88023952,657b66ea316d21385b68909f,,,,,,,,,,,3175.1684,3176.1692,,,3176.6693,3176.9189,,47,47,,,,,,,,,,,,,,,,bars/012.png,bars/mask009.png,,,,,,,,,,,,0,2,,,,,,,6,4,7,4,,,,,,,,,,,3176.1692,3176.6692,3176.9189,3182.3363,space,5.4008,,3182.3363,43,32,3183.3366,3183.3367,3183.3533,,,,0,18,18,18,1,90,15,,,,,,,,
,,6015801ce68e22652f8b0b97,65af556e51c2a1f8263dc813,2024-01-23_07h59.30.230,bars,2023.2.3,MacIntel,59.88023952,657b66ea316d21385b68909f,,,,,,,,,,,3183.3537,3184.3539,,,3184.853,3185.1028,,126,126,,,,,,,,,,,,,,,,bars/001.png,bars/mask008.png,,,,,,,,,,,,5,1,,,,,,,4,2,6,3,,,,,,,,,,,3184.354,3184.8529,3185.1028,3190.1707,space,5.0482,,3190.1708,4,41,3191.1697,3191.1697,3191.1859,,,,0,19,19,19,1,130,85,,,,,,,,
,,6015801ce68e22652f8b0b97,65af556e51c2a1f8263dc813,2024-01-23_07h59.30.230,bars,2023.2.3,MacIntel,59.88023952,657b66ea316d21385b68909f,,,,,,,,,,,3191.1862,3192.1861,,,3192.6863,3192.9374,,142,-38,,,,,,,,,,,,,,,,bars/048.png,bars/mask004.png,,,,,,,,,,,,0,2,,,,,,,6,4,8,4,,,,,,,,,,,3192.1861,3192.6863,3192.9374,3200.0043,space,7.0502,,3200.0043,88,33,3201.0029,3201.0029,3201.0204,,,,0,20,20,20,1,50,175,,,,,,,,
,,6015801ce68e22652f8b0b97,65af556e51c2a1f8263dc813,2024-01-23_07h59.30.230,bars,2023.2.3,MacIntel,59.88023952,657b66ea316d21385b68909f,,,,,,,,,,,3201.0207,3202.0193,,,3202.5194,3202.7705,,90,90,,,,,,,,,,,,,,,,bars/021.png,bars/mask009.png,,,,,,,,,,,,2,2,,,,,,,8,6,9,6,,,,,,,,,,,3202.0193,3202.5194,3202.7706,3206.0196,space,3.2336,,3206.0197,65,20,3207.0194,3207.0195,3207.0346,,,,0,21,21,21,1,155,70,,,,,,,,
,,6015801ce68e22652f8b0b97,65af556e51c2a1f8263dc813,2024-01-23_07h59.30.230,bars,2023.2.3,MacIntel,59.88023952,657b66ea316d21385b68909f,,,,,,,,,,,3207.0348,3208.0361,,,3208.5365,3208.7858,,143,143,,,,,,,,,,,,,,,,bars/040.png,bars/mask006.png,,,,,,,,,,,,8,1,,,,,,,10,8,9,8,,,,,,,,,,,3208.0362,3208.5365,3208.7859,3215.7691,space,6.9714,,3215.7691,3,42,3216.7697,3216.7697,3216.7903,,,,0,22,22,22,1,140,5,,,,,,,,
,,6015801ce68e22652f8b0b97,65af556e51c2a1f8263dc813,2024-01-23_07h59.30.230,bars,2023.2.3,MacIntel,59.88023952,657b66ea316d21385b68909f,,,,,,,,,,,3216.7905,3217.7858,,,3218.2862,3218.5361,,139,-41,,,,,,,,,,,,,,,,bars/004.png,bars/mask003.png,,,,,,,,,,,,5,2,,,,,,,8,10,7,10,,,,,,,,,,,3217.7858,3218.2862,3218.5361,3227.4691,space,8.9223,,3227.4691,66,14,3228.4708,3228.4708,3228.4936,,,,0,23,23,23,1,25,125,,,,,,,,
,,6015801ce68e22652f8b0b97,65af556e51c2a1f8263dc813,2024-01-23_07h59.30.230,bars,2023.2.3,MacIntel,59.88023952,657b66ea316d21385b68909f,,,,,,,,,,,3228.4941,3229.4877,,,3229.9875,3230.2363,,130,-50,,,,,,,,,,,,,,,,bars/004.png,bars/mask007.png,,,,,,,,,,,,7,2,,,,,,,10,8,10,8,,,,,,,,,,,3229.4877,3229.9874,3230.2363,3237.7694,space,7.5206,,3237.7695,75,5,3238.7695,3238.7695,3238.7849,,,,0,24,24,24,1,25,125,,,,,,,,
,,6015801ce68e22652f8b0b97,65af556e51c2a1f8263dc813,2024-01-23_07h59.30.230,bars,2023.2.3,MacIntel,59.88023952,657b66ea316d21385b68909f,,,,,,,,,,,3238.7852,3239.7866,,,3240.2875,3240.5364,,140,-40,,,,,,,,,,,,,,,,bars/029.png,bars/mask001.png,,,,,,,,,,,,0,1,,,,,,,8,6,10,6,,,,,,,,,,,3239.7866,3240.2875,3240.5364,3246.3696,space,5.8169,,3246.3697,50,85,3247.3688,3247.369,3247.3851,,,,0,25,25,25,1,90,45,,,,,,,,
,,6015801ce68e22652f8b0b97,65af556e51c2a1f8263dc813,2024-01-23_07h59.30.230,bars,2023.2.3,MacIntel,59.88023952,657b66ea316d21385b68909f,,,,,,,,,,,3247.3854,3248.3864,,,3248.8878,3249.1362,,137,137,,,,,,,,,,,,,,,,bars/038.png,bars/mask005.png,,,,,,,,,,,,0,1,,,,,,,6,4,6,4,,,,,,,,,,,3248.3864,3248.8877,3249.1362,3255.0532,space,5.9055,,3255.0532,28,67,3256.0528,3256.0529,3256.0685,,,,0,26,26,26,1,165,70,,,,,,,,
,,6015801ce68e22652f8b0b97,65af556e51c2a1f8263dc813,2024-01-23_07h59.30.230,bars,2023.2.3,MacIntel,59.88023952,657b66ea316d21385b68909f,,,,,,,,,,,3256.0688,3257.0698,,,3257.5701,3257.8197,,135,135,,,,,,,,,,,,,,,,bars/023.png,bars/mask001.png,,,,,,,,,,,,2,2,,,,,,,8,6,8,7,,,,,,,,,,,3257.0698,3257.57,3257.8197,3264.1035,space,6.2685,,3264.1037,65,20,3265.1046,3265.1046,3265.121,,,,0,27,27,27,1,20,115,,,,,,,,
,,6015801ce68e22652f8b0b97,65af556e51c2a1f8263dc813,2024-01-23_07h59.30.230,bars,2023.2.3,MacIntel,59.88023952,657b66ea316d21385b68909f,,,,,,,,,,,3265.1212,3266.121,,,3266.62,3266.8704,,48,48,,,,,,,,,,,,,,,,bars/036.png,bars/mask002.png,,,,,,,,,,,,1,2,,,,,,,6,8,8,10,,,,,,,,,,,3266.121,3266.62,3266.8704,3269.4212,space,2.5335,,3269.4212,83,28,3270.4202,3270.4202,3270.4386,,,,0,28,28,28,1,145,20,,,,,,,,
,,6015801ce68e22652f8b0b97,65af556e51c2a1f8263dc813,2024-01-23_07h59.30.230,bars,2023.2.3,MacIntel,59.88023952,657b66ea316d21385b68909f,,,,,,,,,,,3270.4399,3271.4368,,,3271.9379,3272.1864,,24,24,,,,,,,,,,,,,,,,bars/022.png,bars/mask009.png,,,,,,,,,,,,5,2,,,,,,,8,6,7,6,,,,,,,,,,,3271.4368,3271.9378,3272.1864,3276.1214,space,3.9188,,3276.1215,71,4,3277.1199,3277.1201,3277.1351,,,,0,29,29,29,1,95,20,,,,,,,,
,,6015801ce68e22652f8b0b97,65af556e51c2a1f8263dc813,2024-01-23_07h59.30.230,bars,2023.2.3,MacIntel,59.88023952,657b66ea316d21385b68909f,,,,,,,,,,,3277.1354,3278.1366,,,3278.6402,3278.8869,,30,30,,,,,,,,,,,,,,,,bars/005.png,bars/mask008.png,,,,,,,,,,,,3,1,,,,,,,10,8,10,8,,,,,,,,,,,3278.1367,3278.6402,3278.8869,3293.2535,space,14.3488,,3293.2536,20,70,3294.2545,3294.2546,3294.271,,,,0,30,30,30,1,10,140,,,,,,,,
,,6015801ce68e22652f8b0b97,65af556e51c2a1f8263dc813,2024-01-23_07h59.30.230,bars,2023.2.3,MacIntel,59.88023952,657b66ea316d21385b68909f,,,,,,,,,,,3294.2713,3295.2702,,,3295.7703,3296.0201,,132,132,,,,,,,,,,,,,,,,bars/004.png,bars/mask009.png,,,,,,,,,,,,7,2,,,,,,,8,10,6,9,,,,,,,,,,,3295.2703,3295.7703,3296.0201,3301.6709,space,5.6382,,3301.6709,73,7,3302.6712,3302.6712,3302.6879,,,,0,31,31,31,1,25,125,,,,,,,,
,,6015801ce68e22652f8b0b97,65af556e51c2a1f8263dc813,2024-01-23_07h59.30.230,bars,2023.2.3,MacIntel,59.88023952,657b66ea316d21385b68909f,,,,,,,,,,,3302.6881,3303.6861,,,3304.1865,3304.436,,29,29,,,,,,,,,,,,,,,,bars/025.png,bars/mask006.png,,,,,,,,,,,,5,2,,,,,,,6,8,6,8,,,,,,,,,,,3303.6862,3304.1865,3304.436,3310.4712,space,6.0141,,3310.4712,76,11,3311.4696,3311.4696,3311.4887,,,,0,32,32,32,1,105,40,,,,,,,,
,,6015801ce68e22652f8b0b97,65af556e51c2a1f8263dc813,2024-01-23_07h59.30.230,bars,2023.2.3,MacIntel,59.88023952,657b66ea316d21385b68909f,,,,,,,,,,,3311.4898,3312.4864,,,3312.9858,3313.2364,,123,123,,,,,,,,,,,,,,,,bars/006.png,bars/mask006.png,,,,,,,,,,,,2,2,,,,,,,8,10,8,10,,,,,,,,,,,3312.4865,3312.9858,3313.2364,3323.37,space,10.1227,,3323.37,88,23,3324.3693,3324.3693,3324.3849,,,,0,33,33,33,1,35,100,,,,,,,,
,,6015801ce68e22652f8b0b97,65af556e51c2a1f8263dc813,2024-01-23_07h59.30.230,bars,2023.2.3,MacIntel,59.88023952,657b66ea316d21385b68909f,,,,,,,,,,,3324.3853,3325.3864,,,3325.886,3326.136,,32,32,,,,,,,,,,,,,,,,bars/036.png,bars/mask000.png,,,,,,,,,,,,6,2,,,,,,,6,8,6,10,,,,,,,,,,,3325.3864,3325.8859,3326.1361,3329.3209,space,3.1695,,3329.3209,67,12,3330.3225,3330.3225,3330.3373,,,,0,34,34,34,1,145,20,,,,,,,,
,,6015801ce68e22652f8b0b97,65af556e51c2a1f8263dc813,2024-01-23_07h59.30.230,bars,2023.2.3,MacIntel,59.88023952,657b66ea316d21385b68909f,,,,,,,,,,,3330.3376,3331.3377,,,3331.8365,3332.0862,,32,32,,,,,,,,,,,,,,,,bars/036.png,bars/mask009.png,,,,,,,,,,,,4,2,,,,,,,4,6,4,6,,,,,,,,,,,3331.3377,3331.8364,3332.0862,3334.2374,space,2.1349,,3334.2376,67,12,3335.2378,3335.2378,3335.2524,,,,0,35,35,35,1,145,20,,,,,,,,
,,6015801ce68e22652f8b0b97,65af556e51c2a1f8263dc813,2024-01-23_07h59.30.230,bars,2023.2.3,MacIntel,59.88023952,657b66ea316d21385b68909f,,,,,,,,,,,3335.2527,3336.253,,,3336.753,3337.0041,,130,310,,,,,,,,,,,,,,,,bars/021.png,bars/mask000.png,,,,,,,,,,,,0,1,,,,,,,2,4,2,4,,,,,,,,,,,3336.2531,3336.7529,3337.0041,3349.6545,space,12.637,,3349.6545,25,60,3350.6529,3350.653,3350.6705,,,,0,36,36,36,1,155,70,,,,,,,,
,,6015801ce68e22652f8b0b97,65af556e51c2a1f8263dc813,2024-01-23_07h59.30.230,bars,2023.2.3,MacIntel,59.88023952,657b66ea316d21385b68909f,,,,,,,,,,,3350.6708,3351.6709,,,3352.1691,3352.4198,,139,-41,,,,,,,,,,,,,,,,bars/000.png,bars/mask002.png,,,,,,,,,,,,3,2,,,,,,,4,6,4,4,,,,,,,,,,,3351.6709,3352.1691,3352.4198,3360.4547,space,8.0212,,3360.4547,81,6,3361.4537,3361.4537,3361.4732,,,,0,37,37,37,1,40,145,,,,,,,,
,,6015801ce68e22652f8b0b97,65af556e51c2a1f8263dc813,2024-01-23_07h59.30.230,bars,2023.2.3,MacIntel,59.88023952,657b66ea316d21385b68909f,,,,,,,,,,,3361.4735,3362.4712,,,3362.9703,3363.2212,,50,50,,,,,,,,,,,,,,,,bars/034.png,bars/mask003.png,,,,,,,,,,,,4,2,,,,,,,2,8,1,7,,,,,,,,,,,3362.4712,3362.9702,3363.2213,3367.272,space,4.032,,3367.272,75,15,3368.271,3368.2711,3368.2856,,,,0,38,38,38,1,125,65,,,,,,,,
,,6015801ce68e22652f8b0b97,65af556e51c2a1f8263dc813,2024-01-23_07h59.30.230,bars,2023.2.3,MacIntel,59.88023952,657b66ea316d21385b68909f,,,,,,,,,,,3368.286,3369.2865,,,3369.7871,3370.0393,,153,153,,,,,,,,,,,,,,,,bars/005.png,bars/mask008.png,,,,,,,,,,,,6,2,,,,,,,4,10,5,10,,,,,,,,,,,3369.2865,3369.787,3370.0394,3374.8373,space,4.7849,,3374.8373,37,13,3375.8378,3375.8378,3375.8522,,,,0,39,39,39,1,10,140,,,,,,,,
,,6015801ce68e22652f8b0b97,65af556e51c2a1f8263dc813,2024-01-23_07h59.30.230,bars,2023.2.3,MacIntel,59.88023952,657b66ea316d21385b68909f,,,,,,,,,,,3375.8524,3376.8535,,,3377.3545,3377.6034,,141,-39,,,,,,,,,,,,,,,,bars/040.png,bars/mask006.png,,,,,,,,,,,,7,1,,,,,,,6,8,7,7,,,,,,,,,,,3376.8538,3377.3544,3377.6035,3391.6881,space,14.066,,3391.6882,1,44,3392.6906,3392.6907,3392.7094,,,,0,40,40,40,1,140,5,,,,,,,,
,,6015801ce68e22652f8b0b97,65af556e51c2a1f8263dc813,2024-01-23_07h59.30.230,bars,2023.2.3,MacIntel,59.88023952,657b66ea316d21385b68909f,,,,,,,,,,,3392.7096,3393.7027,,,3394.2045,3394.4548,,141,141,,,,,,,,,,,,,,,,bars/018.png,bars/mask002.png,,,,,,,,,,,,4,1,,,,,,,4,6,5,7,,,,,,,,,,,3393.7027,3394.2045,3394.4548,3406.0032,space,11.5358,,3406.0033,9,51,3407.0048,3407.0048,3407.0207,,,,0,41,41,41,1,150,90,,,,,,,,
,,6015801ce68e22652f8b0b97,65af556e51c2a1f8263dc813,2024-01-23_07h59.30.230,bars,2023.2.3,MacIntel,59.88023952,657b66ea316d21385b68909f,,,,,,,,,,,3407.021,3408.0239,,,3408.5212,3408.7698,,128,-52,,,,,,,,,,,,,,,,bars/035.png,bars/mask006.png,,,,,,,,,,,,0,1,,,,,,,6,8,6,9,,,,,,,,,,,3408.0241,3408.5212,3408.7698,3417.2879,space,8.5027,,3417.2879,47,68,3418.2878,3418.2879,3418.3037,,,,0,42,42,42,1,175,60,,,,,,,,
,,6015801ce68e22652f8b0b97,65af556e51c2a1f8263dc813,2024-01-23_07h59.30.230,bars,2023.2.3,MacIntel,59.88023952,657b66ea316d21385b68909f,,,,,,,,,,,3418.304,3419.3024,,,3419.8046,3420.0544,,131,131,,,,,,,,,,,,,,,,bars/028.png,bars/mask004.png,,,,,,,,,,,,4,2,,,,,,,8,6,9,7,,,,,,,,,,,3419.3024,3419.8046,3420.0545,3431.0548,space,10.9839,,3431.0548,86,11,3432.0541,3432.0542,3432.0717,,,,0,43,43,43,1,45,120,,,,,,,,
,,6015801ce68e22652f8b0b97,65af556e51c2a1f8263dc813,2024-01-23_07h59.30.230,bars,2023.2.3,MacIntel,59.88023952,657b66ea316d21385b68909f,,,,,,,,,,,3432.072,3433.0796,,,3433.571,3433.8214,,154,154,,,,,,,,,,,,,,,,bars/023.png,bars/mask004.png,,,,,,,,,,,,0,2,,,,,,,6,8,5,10,,,,,,,,,,,3433.0797,3433.5709,3433.8215,3435.9698,space,2.1329,,3435.9698,46,39,3436.9703,3436.9703,3436.985,,,,0,44,44,44,1,20,115,,,,,,,,
,,6015801ce68e22652f8b0b97,65af556e51c2a1f8263dc813,2024-01-23_07h59.30.230,bars,2023.2.3,MacIntel,59.88023952,657b66ea316d21385b68909f,,,,,,,,,,,3436.9854,3437.987,,,3438.487,3438.7369,,34,214,,,,,,,,,,,,,,,,bars/032.png,bars/mask004.png,,,,,,,,,,,,5,2,,,,,,,4,10,4,9,,,,,,,,,,,3437.9871,3438.487,3438.7369,3444.6879,space,5.9393,,3444.6879,89,14,3445.6879,3445.6879,3445.7021,,,,0,45,45,45,1,125,20,,,,,,,,
,,6015801ce68e22652f8b0b97,65af556e51c2a1f8263dc813,2024-01-23_07h59.30.230,bars,2023.2.3,MacIntel,59.88023952,657b66ea316d21385b68909f,,,,,,,,,,,3445.7026,3446.7046,,,3447.2028,3447.4539,,136,-44,,,,,,,,,,,,,,,,bars/043.png,bars/mask004.png,,,,,,,,,,,,7,2,,,,,,,2,8,3,9,,,,,,,,,,,3446.7047,3447.2028,3447.454,3458.1203,space,10.6545,,3458.1204,74,6,3459.1214,3459.1214,3459.1374,,,,0,46,46,46,1,30,130,,,,,,,,
,,6015801ce68e22652f8b0b97,65af556e51c2a1f8263dc813,2024-01-23_07h59.30.230,bars,2023.2.3,MacIntel,59.88023952,657b66ea316d21385b68909f,,,,,,,,,,,3459.1376,3460.138,,,3460.6369,3460.8869,,168,168,,,,,,,,,,,,,,,,bars/016.png,bars/mask002.png,,,,,,,,,,,,8,2,,,,,,,4,6,4,9,,,,,,,,,,,3460.1381,3460.6369,3460.8869,3468.1722,space,7.274,,3468.1723,52,3,3469.1712,3469.1712,3469.1887,,,,0,47,47,47,1,40,165,,,,,,,,
,,6015801ce68e22652f8b0b97,65af556e51c2a1f8263dc813,2024-01-23_07h59.30.230,bars,2023.2.3,MacIntel,59.88023952,657b66ea316d21385b68909f,,,,,,,,,,,3469.189,3470.188,,,3470.6868,3470.938,,52,52,,,,,,,,,,,,,,,,bars/034.png,bars/mask006.png,,,,,,,,,,,,4,2,,,,,,,2,8,1,7,,,,,,,,,,,3470.188,3470.6867,3470.938,3475.4538,space,4.5007,,3475.4538,73,13,3476.4544,3476.4545,3476.472,,,,0,48,48,48,1,125,65,,,,,,,,
,,6015801ce68e22652f8b0b97,65af556e51c2a1f8263dc813,2024-01-23_07h59.30.230,bars,2023.2.3,MacIntel,59.88023952,657b66ea316d21385b68909f,,,,,,,,,,,3476.4722,3477.4703,,,3477.9714,3478.2204,,70,70,,,,,,,,,,,,,,,,bars/047.png,bars/mask009.png,,,,,,,,,,,,6,2,,,,,,,0,6,0,6,,,,,,,,,,,3477.4703,3477.9713,3478.2205,3481.8702,space,3.6383,,3481.8703,55,0,3482.8704,3482.8704,3482.8853,,,,0,49,49,49,1,15,70,,,,,,,,
,,6015801ce68e22652f8b0b97,65af556e51c2a1f8263dc813,2024-01-23_07h59.30.230,bars,2023.2.3,MacIntel,59.88023952,657b66ea316d21385b68909f,,,,,,,,,,,,,,,,,,,,,,,,,,,,,,,,,,,,,,,,,,,,,,,,,,,,,,,,,,,,,,,,,,,,,,,,,,,,,,,,,,,,,,,,,,,,,3482.8856,3542.8866,0,3,3,2,1,sequence_tables/blk005.csv
,,6015801ce68e22652f8b0b97,65af556e51c2a1f8263dc813,2024-01-23_07h59.30.230,bars,2023.2.3,MacIntel,59.88023952,657b66ea316d21385b68909f,,,,,,,,,,,3564.0923,3565.0735,,,3565.5698,3565.8199,,31,31,,,,,,,,,,,,,,,,bars/010.png,bars/mask007.png,,,,,,,,,,,,2,2,,,,,,,9,9,7,10,,,,,,3542.9022,3564.0731,space,21.1563,,3565.0737,3565.5698,3565.8199,3570.0037,space,4.1661,,3570.0038,46,24,3571.0068,3571.0068,3571.022,,,,0,0,0,0,1,165,55,,,,,,,,
,,6015801ce68e22652f8b0b97,65af556e51c2a1f8263dc813,2024-01-23_07h59.30.230,bars,2023.2.3,MacIntel,59.88023952,657b66ea316d21385b68909f,,,,,,,,,,,3571.0223,3572.0214,,,3572.5214,3572.7713,,141,-39,,,,,,,,,,,,,,,,bars/033.png,bars/mask007.png,,,,,,,,,,,,5,2,,,,,,,7,10,7,10,,,,,,,,,,,3572.0215,3572.5213,3572.7713,3577.6038,space,4.8178,,3577.6038,64,14,3578.6031,3578.6031,3578.6181,,,,0,1,1,1,1,25,155,,,,,,,,
,,6015801ce68e22652f8b0b97,65af556e51c2a1f8263dc813,2024-01-23_07h59.30.230,bars,2023.2.3,MacIntel,59.88023952,657b66ea316d21385b68909f,,,,,,,,,,,3578.6184,3579.6215,,,3580.1214,3580.3705,,25,25,,,,,,,,,,,,,,,,bars/032.png,bars/mask006.png,,,,,,,,,,,,7,2,,,,,,,9,8,9,8,,,,,,,,,,,3579.6215,3580.1213,3580.3706,3583.9372,space,3.5536,,3583.9372,80,5,3584.938,3584.938,3584.9524,,,,0,2,2,2,1,125,20,,,,,,,,
,,6015801ce68e22652f8b0b97,65af556e51c2a1f8263dc813,2024-01-23_07h59.30.230,bars,2023.2.3,MacIntel,59.88023952,657b66ea316d21385b68909f,,,,,,,,,,,3584.9527,3585.9536,,,3586.4538,3586.7035,,34,214,,,,,,,,,,,,,,,,bars/035.png,bars/mask000.png,,,,,,,,,,,,1,2,,,,,,,10,6,8,7,,,,,,,,,,,3585.9537,3586.4537,3586.7037,3594.5884,space,7.8667,,3594.5884,39,26,3595.588,3595.588,3595.6027,,,,0,3,3,3,1,175,60,,,,,,,,
,,6015801ce68e22652f8b0b97,65af556e51c2a1f8263dc813,2024-01-23_07h59.30.230,bars,2023.2.3,MacIntel,59.88023952,657b66ea316d21385b68909f,,,,,,,,,,,3595.6032,3596.6037,,,3597.1046,3597.3547,,52,52,,,,,,,,,,,,,,,,bars/044.png,bars/mask003.png,,,,,,,,,,,,2,1,,,,,,,10,4,9,4,,,,,,,,,,,3596.6038,3597.1046,3597.3547,3602.3884,space,5.0181,,3602.3884,23,77,3603.3872,3603.3872,3603.4032,,,,0,4,4,4,1,75,155,,,,,,,,
,,6015801ce68e22652f8b0b97,65af556e51c2a1f8263dc813,2024-01-23_07h59.30.230,bars,2023.2.3,MacIntel,59.88023952,657b66ea316d21385b68909f,,,,,,,,,,,3603.4047,3604.4033,,,3604.9038,3605.1561,,127,127,,,,,,,,,,,,,,,,bars/041.png,bars/mask004.png,,,,,,,,,,,,0,2,,,,,,,8,2,8,3,,,,,,,,,,,3604.4034,3604.9038,3605.1561,3610.0368,space,4.867,,3610.0369,73,42,3611.0381,3611.0381,3611.0543,,,,0,5,5,5,1,20,85,,,,,,,,
,,6015801ce68e22652f8b0b97,65af556e51c2a1f8263dc813,2024-01-23_07h59.30.230,bars,2023.2.3,MacIntel,59.88023952,657b66ea316d21385b68909f,,,,,,,,,,,3611.0545,3612.0536,,,3612.554,3612.805,,144,144,,,,,,,,,,,,,,,,bars/011.png,bars/mask007.png,,,,,,,,,,,,3,1,,,,,,,6,4,6,4,,,,,,,,,,,3612.0538,3612.554,3612.805,3617.6539,space,4.8335,,3617.654,16,59,3618.655,3618.655,3618.6704,,,,0,6,6,6,1,160,85,,,,,,,,
,,6015801ce68e22652f8b0b97,65af556e51c2a1f8263dc813,2024-01-23_07h59.30.230,bars,2023.2.3,MacIntel,59.88023952,657b66ea316d21385b68909f,,,,,,,,,,,3618.6709,3619.6698,,,3620.1711,3620.4197,,179,-1,,,,,,,,,,,,,,,,bars/048.png,bars/mask000.png,,,,,,,,,,,,5,2,,,,,,,8,6,9,6,,,,,,,,,,,3619.6698,3620.171,3620.4198,3624.7881,space,4.353,,3624.7883,51,4,3625.7872,3625.7872,3625.8047,,,,0,7,7,7,1,50,175,,,,,,,,
,,6015801ce68e22652f8b0b97,65af556e51c2a1f8263dc813,2024-01-23_07h59.30.230,bars,2023.2.3,MacIntel,59.88023952,657b66ea316d21385b68909f,,,,,,,,,,,3625.8053,3626.8037,,,3627.304,3627.5546,,47,47,,,,,,,,,,,,,,,,bars/034.png,bars/mask005.png,,,,,,,,,,,,3,2,,,,,,,10,8,10,8,,,,,,,,,,,3626.8038,3627.304,3627.5548,3632.0874,space,4.5191,,3632.0875,78,18,3633.088,3633.088,3633.1025,,,,0,8,8,8,1,125,65,,,,,,,,
