init_variables.started,init_variables.stopped,participant,session,date,expName,psychopyVersion,OS,frameRate,study_id,instruction_exp.started,instruction_exp.stopped,key_resp_8.keys,key_resp_8.rt,key_resp_8.duration,instruction_single.started,instruction_single.stopped,key_resp_2.keys,key_resp_2.rt,key_resp_2.duration,interval.started,interval.stopped,cue_single.started,cue_single.stopped,mask.started,mask.stopped,ori_response_single.started,res_ori,res,ori_response_single.stopped,key_resp_single.keys,key_resp_single.rt,key_resp_single.duration,disp_single.started,disp_single.stopped,key_resp.keys,key_resp.rt,key_resp.duration,single.thisRepN,single.thisTrialN,single.thisN,single.thisIndex,single.ran,ori,path,mask_path,instruction_bandit.started,instruction_bandit.stopped,key_resp_6.keys,key_resp_6.rt,key_resp_6.duration,cue_bandit.started,cue_bandit.stopped,bandit_res.keys,bandit_res.rt,bandit_res.duration,outcome_bandit.started,rew,action,outcome_bandit.stopped,bandit.thisRepN,bandit.thisTrialN,bandit.thisN,bandit.thisIndex,bandit.ran,actual_rew1,actual_rew2,rew1,rew2,instruction_task.started,instruction_task.stopped,key_resp_7.keys,key_resp_7.rt,key_resp_7.duration,wait_ready.started,wait_ready.stopped,key_resp_3.keys,key_resp_3.rt,key_resp_3.duration,cue.started,cue.stopped,ori_response.started,ori_response.stopped,key_resp_5.keys,key_resp_5.rt,key_resp_5.duration,outcome.started,diff1,diff2,outcome.stopped,disp_outcome_practice.started,disp_outcome_practice.stopped,key_resp_4.keys,key_resp_4.rt,key_resp_4.duration,trials.thisRepN,trials.thisTrialN,trials.thisN,trials.thisIndex,trials.ran,ori1,ori2,break_blk.started,break_blk.stopped,block.thisRepN,block.thisTrialN,block.thisN,block.thisIndex,block.ran,condition_file
0,0,650aee824c25ddbb9bee2024,65af53f67219ae981f60fda5,2024-01-23_07h53.52.044,bars,2023.2.3,Win32,60.0240096,657b66ea316d21385b68909f,,,,,,,,,,,,,,,,,,,,,,,,,,,,,,,,,,,,,,,,,,,,,,,,,,,,,,,,,,,,,,,,,,,,,,,,,,,,,,,,,,,,,,,,,,,,,,,,,,,,
,,650aee824c25ddbb9bee2024,65af53f67219ae981f60fda5,2024-01-23_07h53.52.044,bars,2023.2.3,Win32,60.0240096,657b66ea316d21385b68909f,0,6.799,y,6.764,,,,,,,,,,,,,,,,,,,,,,,,,,,,,,,,,,,,,,,,,,,,,,,,,,,,,,,,,,,,,,,,,,,,,,,,,,,,,,,,,,,,,,,,,,,,,,,,
,,650aee824c25ddbb9bee2024,65af53f67219ae981f60fda5,2024-01-23_07h53.52.044,bars,2023.2.3,Win32,60.0240096,657b66ea316d21385b68909f,,,,,,6.799,17.936,space,11.118,,,,,,,,,,,,,,,,,,,,,,,,,,,,,,,,,,,,,,,,,,,,,,,,,,,,,,,,,,,,,,,,,,,,,,,,,,,,,,,,,,,,,,,,,,,
,,650aee824c25ddbb9bee2024,65af53f67219ae981f60fda5,2024-01-23_07h53.52.044,bars,2023.2.3,Win32,60.0240096,657b66ea316d21385b68909f,,,,,,,,,,,17.942,18.934,18.935,19.435,19.435,19.685,19.685,0,180,27.354,space,7.65,,27.354,34.056,space,6.68,,0,0,0,6,1,175,bars/single006.png,bars/mask005.png,,,,,,,,,,,,,,,,,,,,,,,,,,,,,,,,,,,,,,,,,,,,,,,,,,,,,,,,,,,,,,,,
,,650aee824c25ddbb9bee2024,65af53f67219ae981f60fda5,2024-01-23_07h53.52.044,bars,2023.2.3,Win32,60.0240096,657b66ea316d21385b68909f,,,,,,,,,,,34.056,35.056,35.056,35.557,35.557,35.806,35.806,0,0,41.441,space,5.623,,41.441,45.443,space,3.984,,0,1,1,7,1,45,bars/single007.png,bars/mask009.png,,,,,,,,,,,,,,,,,,,,,,,,,,,,,,,,,,,,,,,,,,,,,,,,,,,,,,,,,,,,,,,,
,,650aee824c25ddbb9bee2024,65af53f67219ae981f60fda5,2024-01-23_07h53.52.044,bars,2023.2.3,Win32,60.0240096,657b66ea316d21385b68909f,,,,,,,,,,,45.444,46.443,46.443,46.943,46.943,47.194,47.194,45,45,51.345,space,4.134,,51.345,58.497,space,7.134,,0,2,2,9,1,20,bars/single009.png,bars/mask006.png,,,,,,,,,,,,,,,,,,,,,,,,,,,,,,,,,,,,,,,,,,,,,,,,,,,,,,,,,,,,,,,,
,,650aee824c25ddbb9bee2024,65af53f67219ae981f60fda5,2024-01-23_07h53.52.044,bars,2023.2.3,Win32,60.0240096,657b66ea316d21385b68909f,,,,,,,,,,,58.5,59.497,59.497,59.997,59.998,60.247,60.247,11,11,64.716,space,4.455,,64.716,70.016,space,5.28,,0,3,3,1,1,20,bars/single001.png,bars/mask006.png,,,,,,,,,,,,,,,,,,,,,,,,,,,,,,,,,,,,,,,,,,,,,,,,,,,,,,,,,,,,,,,,
,,650aee824c25ddbb9bee2024,65af53f67219ae981f60fda5,2024-01-23_07h53.52.044,bars,2023.2.3,Win32,60.0240096,657b66ea316d21385b68909f,,,,,,,,,,,70.017,71.017,71.017,71.517,71.517,71.767,71.767,135,135,75.135,space,3.351,,75.136,78.736,space,3.584,,0,4,4,2,1,145,bars/single002.png,bars/mask003.png,,,,,,,,,,,,,,,,,,,,,,,,,,,,,,,,,,,,,,,,,,,,,,,,,,,,,,,,,,,,,,,,
,,650aee824c25ddbb9bee2024,65af53f67219ae981f60fda5,2024-01-23_07h53.52.044,bars,2023.2.3,Win32,60.0240096,657b66ea316d21385b68909f,,,,,,,,,,,78.736,79.737,79.737,80.236,80.236,80.486,80.486,98,98,82.871,space,2.369,,82.871,86.255,space,3.368,,0,5,5,4,1,95,bars/single004.png,bars/mask004.png,,,,,,,,,,,,,,,,,,,,,,,,,,,,,,,,,,,,,,,,,,,,,,,,,,,,,,,,,,,,,,,,
,,650aee824c25ddbb9bee2024,65af53f67219ae981f60fda5,2024-01-23_07h53.52.044,bars,2023.2.3,Win32,60.0240096,657b66ea316d21385b68909f,,,,,,,,,,,86.255,87.255,87.255,87.755,87.755,88.006,88.006,16,16,89.44,space,1.417,,89.44,91.907,space,2.452,,0,6,6,3,1,20,bars/single003.png,bars/mask005.png,,,,,,,,,,,,,,,,,,,,,,,,,,,,,,,,,,,,,,,,,,,,,,,,,,,,,,,,,,,,,,,,
,,650aee824c25ddbb9bee2024,65af53f67219ae981f60fda5,2024-01-23_07h53.52.044,bars,2023.2.3,Win32,60.0240096,657b66ea316d21385b68909f,,,,,,,,,,,91.908,92.907,92.907,93.407,93.407,93.658,93.658,59,59,96.274,space,2.604,,96.274,97.909,space,1.618,,0,7,7,5,1,55,bars/single005.png,bars/mask008.png,,,,,,,,,,,,,,,,,,,,,,,,,,,,,,,,,,,,,,,,,,,,,,,,,,,,,,,,,,,,,,,,
,,650aee824c25ddbb9bee2024,65af53f67219ae981f60fda5,2024-01-23_07h53.52.044,bars,2023.2.3,Win32,60.0240096,657b66ea316d21385b68909f,,,,,,,,,,,97.909,98.909,98.909,99.409,99.409,99.659,99.659,2,182,103.66,space,3.985,,103.66,106.028,space,2.351,,0,8,8,8,1,160,bars/single008.png,bars/mask004.png,,,,,,,,,,,,,,,,,,,,,,,,,,,,,,,,,,,,,,,,,,,,,,,,,,,,,,,,,,,,,,,,
,,650aee824c25ddbb9bee2024,65af53f67219ae981f60fda5,2024-01-23_07h53.52.044,bars,2023.2.3,Win32,60.0240096,657b66ea316d21385b68909f,,,,,,,,,,,106.028,107.028,107.028,107.528,107.528,107.779,107.779,135,-45,111.912,space,4.118,,111.912,113.863,space,1.933,,0,9,9,0,1,150,bars/single000.png,bars/mask006.png,,,,,,,,,,,,,,,,,,,,,,,,,,,,,,,,,,,,,,,,,,,,,,,,,,,,,,,,,,,,,,,,
,,650aee824c25ddbb9bee2024,65af53f67219ae981f60fda5,2024-01-23_07h53.52.044,bars,2023.2.3,Win32,60.0240096,657b66ea316d21385b68909f,,,,,,,,,,,,,,,,,,,,,,,,,,,,,,,,,,,,,113.863,124.817,space,10.932,,,,,,,,,,,,,,,,,,,,,,,,,,,,,,,,,,,,,,,,,,,,,,,,,,,,,,,,,,,,
,,650aee824c25ddbb9bee2024,65af53f67219ae981f60fda5,2024-01-23_07h53.52.044,bars,2023.2.3,Win32,60.0240096,657b66ea316d21385b68909f,,,,,,,,,,,,,,,,,,,,,,,,,,,,,,,,,,,,,,,,,,124.822,127.317,right,2.472,,127.318,2,2,128.317,0,0,0,0,1,9,1,9,2,,,,,,,,,,,,,,,,,,,,,,,,,,,,,,,,,,,,,,,,,
,,650aee824c25ddbb9bee2024,65af53f67219ae981f60fda5,2024-01-23_07h53.52.044,bars,2023.2.3,Win32,60.0240096,657b66ea316d21385b68909f,,,,,,,,,,,,,,,,,,,,,,,,,,,,,,,,,,,,,,,,,,128.317,130.385,right,2.055,,130.385,1,2,131.385,0,1,1,1,1,10,0,10,1,,,,,,,,,,,,,,,,,,,,,,,,,,,,,,,,,,,,,,,,,
,,650aee824c25ddbb9bee2024,65af53f67219ae981f60fda5,2024-01-23_07h53.52.044,bars,2023.2.3,Win32,60.0240096,657b66ea316d21385b68909f,,,,,,,,,,,,,,,,,,,,,,,,,,,,,,,,,,,,,,,,,,131.386,132.135,right,0.734,,132.135,2,2,133.135,0,2,2,2,1,10,2,10,2,,,,,,,,,,,,,,,,,,,,,,,,,,,,,,,,,,,,,,,,,
,,650aee824c25ddbb9bee2024,65af53f67219ae981f60fda5,2024-01-23_07h53.52.044,bars,2023.2.3,Win32,60.0240096,657b66ea316d21385b68909f,,,,,,,,,,,,,,,,,,,,,,,,,,,,,,,,,,,,,,,,,,133.136,134.686,right,1.533,,134.687,3,2,135.686,0,3,3,3,1,8,4,7,3,,,,,,,,,,,,,,,,,,,,,,,,,,,,,,,,,,,,,,,,,
,,650aee824c25ddbb9bee2024,65af53f67219ae981f60fda5,2024-01-23_07h53.52.044,bars,2023.2.3,Win32,60.0240096,657b66ea316d21385b68909f,,,,,,,,,,,,,,,,,,,,,,,,,,,,,,,,,,,,,,,,,,135.686,136.536,right,0.835,,136.536,1,2,137.537,0,4,4,4,1,6,2,5,1,,,,,,,,,,,,,,,,,,,,,,,,,,,,,,,,,,,,,,,,,
,,650aee824c25ddbb9bee2024,65af53f67219ae981f60fda5,2024-01-23_07h53.52.044,bars,2023.2.3,Win32,60.0240096,657b66ea316d21385b68909f,,,,,,,,,,,,,,,,,,,,,,,,,,,,,,,,,,,,,,,,,,137.537,138.687,right,1.134,,138.687,4,2,139.688,0,5,5,5,1,4,4,4,4,,,,,,,,,,,,,,,,,,,,,,,,,,,,,,,,,,,,,,,,,
,,650aee824c25ddbb9bee2024,65af53f67219ae981f60fda5,2024-01-23_07h53.52.044,bars,2023.2.3,Win32,60.0240096,657b66ea316d21385b68909f,,,,,,,,,,,,,,,,,,,,,,,,,,,,,,,,,,,,,,,,,,139.688,140.688,right,0.984,,140.688,2,2,141.689,0,6,6,6,1,2,2,1,2,,,,,,,,,,,,,,,,,,,,,,,,,,,,,,,,,,,,,,,,,
,,650aee824c25ddbb9bee2024,65af53f67219ae981f60fda5,2024-01-23_07h53.52.044,bars,2023.2.3,Win32,60.0240096,657b66ea316d21385b68909f,,,,,,,,,,,,,,,,,,,,,,,,,,,,,,,,,,,,,,,,,,141.689,143.755,right,2.051,,143.755,1,2,144.755,0,7,7,7,1,0,0,0,1,,,,,,,,,,,,,,,,,,,,,,,,,,,,,,,,,,,,,,,,,
,,650aee824c25ddbb9bee2024,65af53f67219ae981f60fda5,2024-01-23_07h53.52.044,bars,2023.2.3,Win32,60.0240096,657b66ea316d21385b68909f,,,,,,,,,,,,,,,,,,,,,,,,,,,,,,,,,,,,,,,,,,144.756,145.622,left,0.85,,145.622,1,1,146.623,0,8,8,8,1,0,2,1,0,,,,,,,,,,,,,,,,,,,,,,,,,,,,,,,,,,,,,,,,,
,,650aee824c25ddbb9bee2024,65af53f67219ae981f60fda5,2024-01-23_07h53.52.044,bars,2023.2.3,Win32,60.0240096,657b66ea316d21385b68909f,,,,,,,,,,,,,,,,,,,,,,,,,,,,,,,,,,,,,,,,,,146.623,147.623,left,0.984,,147.623,2,1,148.623,0,9,9,9,1,2,4,2,3,,,,,,,,,,,,,,,,,,,,,,,,,,,,,,,,,,,,,,,,,
,,650aee824c25ddbb9bee2024,65af53f67219ae981f60fda5,2024-01-23_07h53.52.044,bars,2023.2.3,Win32,60.0240096,657b66ea316d21385b68909f,,,,,,,,,,,,,,,,,,,,,,,,,,,,,,,,,,,,,,,,,,148.624,149.391,left,0.75,,149.391,0,1,150.39,0,10,10,10,1,0,2,0,3,,,,,,,,,,,,,,,,,,,,,,,,,,,,,,,,,,,,,,,,,
,,650aee824c25ddbb9bee2024,65af53f67219ae981f60fda5,2024-01-23_07h53.52.044,bars,2023.2.3,Win32,60.0240096,657b66ea316d21385b68909f,,,,,,,,,,,,,,,,,,,,,,,,,,,,,,,,,,,,,,,,,,150.391,150.823,right,0.422,,150.823,3,2,151.825,0,11,11,11,1,0,4,0,3,,,,,,,,,,,,,,,,,,,,,,,,,,,,,,,,,,,,,,,,,
,,650aee824c25ddbb9bee2024,65af53f67219ae981f60fda5,2024-01-23_07h53.52.044,bars,2023.2.3,Win32,60.0240096,657b66ea316d21385b68909f,,,,,,,,,,,,,,,,,,,,,,,,,,,,,,,,,,,,,,,,,,151.825,152.275,left,0.433,,152.275,1,1,153.275,0,12,12,12,1,2,6,1,6,,,,,,,,,,,,,,,,,,,,,,,,,,,,,,,,,,,,,,,,,
,,650aee824c25ddbb9bee2024,65af53f67219ae981f60fda5,2024-01-23_07h53.52.044,bars,2023.2.3,Win32,60.0240096,657b66ea316d21385b68909f,,,,,,,,,,,,,,,,,,,,,,,,,,,,,,,,,,,,,,,,,,153.275,153.675,right,0.384,,153.675,3,2,154.675,0,13,13,13,1,0,4,1,3,,,,,,,,,,,,,,,,,,,,,,,,,,,,,,,,,,,,,,,,,
,,650aee824c25ddbb9bee2024,65af53f67219ae981f60fda5,2024-01-23_07h53.52.044,bars,2023.2.3,Win32,60.0240096,657b66ea316d21385b68909f,,,,,,,,,,,,,,,,,,,,,,,,,,,,,,,,,,,,,,,,,,154.676,155.143,right,0.453,,155.143,7,2,156.142,0,14,14,14,1,2,6,2,7,,,,,,,,,,,,,,,,,,,,,,,,,,,,,,,,,,,,,,,,,
,,650aee824c25ddbb9bee2024,65af53f67219ae981f60fda5,2024-01-23_07h53.52.044,bars,2023.2.3,Win32,60.0240096,657b66ea316d21385b68909f,,,,,,,,,,,,,,,,,,,,,,,,,,,,,,,,,,,,,,,,,,156.145,157.327,left,1.168,,157.327,3,1,158.326,0,15,15,15,1,4,8,3,9,,,,,,,,,,,,,,,,,,,,,,,,,,,,,,,,,,,,,,,,,
,,650aee824c25ddbb9bee2024,65af53f67219ae981f60fda5,2024-01-23_07h53.52.044,bars,2023.2.3,Win32,60.0240096,657b66ea316d21385b68909f,,,,,,,,,,,,,,,,,,,,,,,,,,,,,,,,,,,,,,,,,,158.327,158.877,left,0.534,,158.877,7,1,159.877,0,16,16,16,1,6,6,7,7,,,,,,,,,,,,,,,,,,,,,,,,,,,,,,,,,,,,,,,,,
,,650aee824c25ddbb9bee2024,65af53f67219ae981f60fda5,2024-01-23_07h53.52.044,bars,2023.2.3,Win32,60.0240096,657b66ea316d21385b68909f,,,,,,,,,,,,,,,,,,,,,,,,,,,,,,,,,,,,,,,,,,159.877,160.394,right,0.5,,160.394,5,2,161.394,0,17,17,17,1,8,4,9,5,,,,,,,,,,,,,,,,,,,,,,,,,,,,,,,,,,,,,,,,,
,,650aee824c25ddbb9bee2024,65af53f67219ae981f60fda5,2024-01-23_07h53.52.044,bars,2023.2.3,Win32,60.0240096,657b66ea316d21385b68909f,,,,,,,,,,,,,,,,,,,,,,,,,,,,,,,,,,,,,,,,,,161.395,161.777,right,0.371,,161.778,1,2,162.777,0,18,18,18,1,6,2,5,1,,,,,,,,,,,,,,,,,,,,,,,,,,,,,,,,,,,,,,,,,
,,650aee824c25ddbb9bee2024,65af53f67219ae981f60fda5,2024-01-23_07h53.52.044,bars,2023.2.3,Win32,60.0240096,657b66ea316d21385b68909f,,,,,,,,,,,,,,,,,,,,,,,,,,,,,,,,,,,,,,,,,,162.778,163.111,left,0.317,,163.111,7,1,164.112,0,19,19,19,1,8,0,7,0,,,,,,,,,,,,,,,,,,,,,,,,,,,,,,,,,,,,,,,,,
,,650aee824c25ddbb9bee2024,65af53f67219ae981f60fda5,2024-01-23_07h53.52.044,bars,2023.2.3,Win32,60.0240096,657b66ea316d21385b68909f,,,,,,,,,,,,,,,,,,,,,,,,,,,,,,,,,,,,,,,,,,,,,,,,,,,,,,,,,,,,164.112,174.465,space,10.325,,,,,,,,,,,,,,,,,,,,,,,,,,,,,,,,,,,,,
,,650aee824c25ddbb9bee2024,65af53f67219ae981f60fda5,2024-01-23_07h53.52.044,bars,2023.2.3,Win32,60.0240096,657b66ea316d21385b68909f,,,,,,,,,,,175.654,176.648,,,177.149,177.399,,93,93,,,,,,,,,,,,,,,,bars/019.png,bars/mask002.png,,,,,,,,,,,,5,2,,,,,,,10,7,10,8,,,,,,174.47,175.648,space,1.164,,176.648,177.149,177.399,182.1,space,4.68,,182.101,48,12,183.1,183.1,190.804,space,7.671,,0,0,0,0,1,45,105,,,,,,,,
,,650aee824c25ddbb9bee2024,65af53f67219ae981f60fda5,2024-01-23_07h53.52.044,bars,2023.2.3,Win32,60.0240096,657b66ea316d21385b68909f,,,,,,,,,,,190.808,191.804,,,192.303,192.554,,154,154,,,,,,,,,,,,,,,,bars/039.png,bars/mask008.png,,,,,,,,,,,,3,1,,,,,,,10,5,10,6,,,,,,,,,,,191.804,192.303,192.554,195.871,space,3.301,,195.871,21,49,196.871,196.871,201.372,space,4.483,,0,1,1,1,1,175,105,,,,,,,,
,,650aee824c25ddbb9bee2024,65af53f67219ae981f60fda5,2024-01-23_07h53.52.044,bars,2023.2.3,Win32,60.0240096,657b66ea316d21385b68909f,,,,,,,,,,,201.373,202.373,,,202.873,203.123,,96,96,,,,,,,,,,,,,,,,bars/009.png,bars/mask009.png,,,,,,,,,,,,2,2,,,,,,,10,3,9,3,,,,,,,,,,,202.373,202.873,203.123,206.958,space,3.821,,206.958,81,9,207.958,207.958,210.909,space,2.93,,0,2,2,2,1,15,105,,,,,,,,
,,650aee824c25ddbb9bee2024,65af53f67219ae981f60fda5,2024-01-23_07h53.52.044,bars,2023.2.3,Win32,60.0240096,657b66ea316d21385b68909f,,,,,,,,,,,210.909,211.909,,,212.409,212.66,,52,52,,,,,,,,,,,,,,,,bars/034.png,bars/mask009.png,,,,,,,,,,,,0,2,,,,,,,8,1,6,0,,,,,,,,,,,211.909,212.409,212.66,214.226,space,1.552,,214.226,73,13,215.227,215.227,216.744,space,1.505,,0,3,3,3,1,125,65,,,,,,,,
,,650aee824c25ddbb9bee2024,65af53f67219ae981f60fda5,2024-01-23_07h53.52.044,bars,2023.2.3,Win32,60.0240096,657b66ea316d21385b68909f,,,,,,,,,,,216.744,217.744,,,218.25,218.495,,128,128,,,,,,,,,,,,,,,,bars/013.png,bars/mask005.png,,,,,,,,,,,,0,1,,,,,,,10,0,10,1,,,,,,,,,,,217.744,218.25,218.495,221.412,space,2.903,,221.412,53,62,222.413,222.413,224.83,space,2.389,,0,4,4,4,1,75,10,,,,,,,,
,,650aee824c25ddbb9bee2024,65af53f67219ae981f60fda5,2024-01-23_07h53.52.044,bars,2023.2.3,Win32,60.0240096,657b66ea316d21385b68909f,,,,,,,,,,,224.83,225.83,,,226.33,226.58,,96,96,,,,,,,,,,,,,,,,bars/018.png,bars/mask008.png,,,,,,,,,,,,1,2,,,,,,,8,0,9,1,,,,,,,,,,,225.83,226.33,226.58,229.665,space,3.072,,229.665,54,6,230.665,230.665,231.915,space,1.229,,0,5,5,5,1,150,90,,,,,,,,
,,650aee824c25ddbb9bee2024,65af53f67219ae981f60fda5,2024-01-23_07h53.52.044,bars,2023.2.3,Win32,60.0240096,657b66ea316d21385b68909f,,,,,,,,,,,231.916,232.915,,,233.415,233.666,,177,177,,,,,,,,,,,,,,,,bars/003.png,bars/mask005.png,,,,,,,,,,,,0,1,,,,,,,6,2,7,2,,,,,,,,,,,232.916,233.415,233.666,236.15,space,2.468,,236.15,28,37,237.15,237.15,240.734,space,3.566,,0,6,6,6,1,25,140,,,,,,,,
,,650aee824c25ddbb9bee2024,65af53f67219ae981f60fda5,2024-01-23_07h53.52.044,bars,2023.2.3,Win32,60.0240096,657b66ea316d21385b68909f,,,,,,,,,,,240.735,241.734,,,242.235,242.485,,99,99,,,,,,,,,,,,,,,,bars/021.png,bars/mask003.png,,,,,,,,,,,,0,2,,,,,,,8,0,9,0,,,,,,,,,,,241.734,242.235,242.486,245.787,space,3.287,,245.787,56,29,246.786,246.786,248.003,space,1.195,,0,7,7,7,1,155,70,,,,,,,,
,,650aee824c25ddbb9bee2024,65af53f67219ae981f60fda5,2024-01-23_07h53.52.044,bars,2023.2.3,Win32,60.0240096,657b66ea316d21385b68909f,,,,,,,,,,,248.004,249.004,,,249.504,249.753,,155,-25,,,,,,,,,,,,,,,,bars/044.png,bars/mask008.png,,,,,,,,,,,,2,2,,,,,,,6,2,6,2,,,,,,,,,,,249.004,249.504,249.753,253.439,space,3.668,,253.439,80,0,254.439,254.439,257.457,space,2.998,,0,8,8,8,1,75,155,,,,,,,,
,,650aee824c25ddbb9bee2024,65af53f67219ae981f60fda5,2024-01-23_07h53.52.044,bars,2023.2.3,Win32,60.0240096,657b66ea316d21385b68909f,,,,,,,,,,,257.457,258.457,,,258.957,259.207,,29,29,,,,,,,,,,,,,,,,bars/014.png,bars/mask001.png,,,,,,,,,,,,0,2,,,,,,,8,0,6,0,,,,,,,,,,,258.457,258.957,259.207,263.458,space,4.239,,263.458,51,29,264.458,264.458,265.392,space,0.915,,0,9,9,9,1,80,0,,,,,,,,
,,650aee824c25ddbb9bee2024,65af53f67219ae981f60fda5,2024-01-23_07h53.52.044,bars,2023.2.3,Win32,60.0240096,657b66ea316d21385b68909f,,,,,,,,,,,265.393,266.392,,,266.892,267.142,,79,259,,,,,,,,,,,,,,,,bars/001.png,bars/mask006.png,,,,,,,,,,,,1,2,,,,,,,10,2,10,1,,,,,,,,,,,266.392,266.892,267.143,270.926,space,3.77,,270.927,51,6,271.927,271.928,273.01,space,1.067,,0,10,10,10,1,130,85,,,,,,,,
,,650aee824c25ddbb9bee2024,65af53f67219ae981f60fda5,2024-01-23_07h53.52.044,bars,2023.2.3,Win32,60.0240096,657b66ea316d21385b68909f,,,,,,,,,,,273.012,274.011,,,274.511,274.762,,67,67,,,,,,,,,,,,,,,,bars/007.png,bars/mask006.png,,,,,,,,,,,,2,2,,,,,,,10,4,10,4,,,,,,,,,,,274.011,274.511,274.762,277.146,space,2.367,,277.146,72,12,278.145,278.145,279.329,space,1.172,,0,11,11,11,1,175,55,,,,,,,,
,,650aee824c25ddbb9bee2024,65af53f67219ae981f60fda5,2024-01-23_07h53.52.044,bars,2023.2.3,Win32,60.0240096,657b66ea316d21385b68909f,,,,,,,,,,,279.33,280.33,,,280.83,281.08,,151,151,,,,,,,,,,,,,,,,bars/044.png,bars/mask006.png,,,,,,,,,,,,2,2,,,,,,,10,2,8,2,,,,,,,,,,,280.33,280.83,281.08,284.931,space,3.838,,284.932,76,4,285.931,285.932,287.249,space,1.299,,0,12,12,12,1,75,155,,,,,,,,
,,650aee824c25ddbb9bee2024,65af53f67219ae981f60fda5,2024-01-23_07h53.52.044,bars,2023.2.3,Win32,60.0240096,657b66ea316d21385b68909f,,,,,,,,,,,287.25,288.249,,,288.749,288.999,,6,6,,,,,,,,,,,,,,,,bars/012.png,bars/mask000.png,,,,,,,,,,,,3,2,,,,,,,8,4,8,4,,,,,,,,,,,288.249,288.749,288.999,289.883,space,0.87,,289.883,84,9,290.883,290.883,292.1,space,1.192,,0,13,13,13,1,90,15,,,,,,,,
,,650aee824c25ddbb9bee2024,65af53f67219ae981f60fda5,2024-01-23_07h53.52.044,bars,2023.2.3,Win32,60.0240096,657b66ea316d21385b68909f,,,,,,,,,,,292.101,293.1,,,293.6,293.851,,92,92,,,,,,,,,,,,,,,,bars/044.png,bars/mask002.png,,,,,,,,,,,,4,1,,,,,,,10,6,9,7,,,,,,,,,,,293.1,293.6,293.851,296.152,space,2.286,,296.152,17,63,297.151,297.151,301.236,space,4.062,,0,14,14,14,1,75,155,,,,,,,,
,,650aee824c25ddbb9bee2024,65af53f67219ae981f60fda5,2024-01-23_07h53.52.044,bars,2023.2.3,Win32,60.0240096,657b66ea316d21385b68909f,,,,,,,,,,,301.237,302.237,,,302.736,302.987,,136,136,,,,,,,,,,,,,,,,bars/005.png,bars/mask008.png,,,,,,,,,,,,7,2,,,,,,,8,8,9,8,,,,,,,,,,,302.237,302.736,302.987,307.505,space,4.501,,307.505,54,4,308.505,308.505,309.655,space,1.131,,0,15,15,15,1,10,140,,,,,,,,
,,650aee824c25ddbb9bee2024,65af53f67219ae981f60fda5,2024-01-23_07h53.52.044,bars,2023.2.3,Win32,60.0240096,657b66ea316d21385b68909f,,,,,,,,,,,309.656,310.655,,,311.156,311.406,,169,-11,,,,,,,,,,,,,,,,bars/033.png,bars/mask009.png,,,,,,,,,,,,5,2,,,,,,,6,10,8,9,,,,,,,,,,,310.655,311.156,311.406,313.339,space,1.916,,313.339,36,14,314.34,314.34,315.107,space,0.751,,0,16,16,16,1,25,155,,,,,,,,
,,650aee824c25ddbb9bee2024,65af53f67219ae981f60fda5,2024-01-23_07h53.52.044,bars,2023.2.3,Win32,60.0240096,657b66ea316d21385b68909f,,,,,,,,,,,315.107,316.108,,,316.608,316.858,,91,91,,,,,,,,,,,,,,,,bars/011.png,bars/mask007.png,,,,,,,,,,,,8,2,,,,,,,4,10,3,10,,,,,,,,,,,316.108,316.608,316.858,319.808,space,2.935,,319.808,69,6,320.808,320.808,321.709,space,0.879,,0,17,17,17,1,160,85,,,,,,,,
,,650aee824c25ddbb9bee2024,65af53f67219ae981f60fda5,2024-01-23_07h53.52.044,bars,2023.2.3,Win32,60.0240096,657b66ea316d21385b68909f,,,,,,,,,,,321.71,322.709,,,323.209,323.459,,125,125,,,,,,,,,,,,,,,,bars/024.png,bars/mask008.png,,,,,,,,,,,,1,1,,,,,,,2,10,1,9,,,,,,,,,,,322.709,323.209,323.459,326.96,space,3.489,,326.96,5,45,327.96,327.96,329.411,space,1.429,,0,18,18,18,1,120,170,,,,,,,,
,,650aee824c25ddbb9bee2024,65af53f67219ae981f60fda5,2024-01-23_07h53.52.044,bars,2023.2.3,Win32,60.0240096,657b66ea316d21385b68909f,,,,,,,,,,,329.412,330.411,,,330.912,331.161,,5,185,,,,,,,,,,,,,,,,bars/045.png,bars/mask002.png,,,,,,,,,,,,7,2,,,,,,,0,8,0,8,,,,,,,,,,,330.412,330.911,331.161,332.579,space,1.404,,332.579,85,5,333.579,333.579,334.813,space,1.213,,0,19,19,19,1,100,10,,,,,,,,
,,650aee824c25ddbb9bee2024,65af53f67219ae981f60fda5,2024-01-23_07h53.52.044,bars,2023.2.3,Win32,60.0240096,657b66ea316d21385b68909f,,,,,,,,,,,334.813,335.813,,,336.314,336.563,,166,166,,,,,,,,,,,,,,,,bars/003.png,bars/mask001.png,,,,,,,,,,,,1,2,,,,,,,0,10,1,10,,,,,,,,,,,335.813,336.314,336.563,339.797,space,3.218,,339.798,39,26,340.798,340.798,341.515,space,0.702,,0,20,20,20,1,25,140,,,,,,,,
,,650aee824c25ddbb9bee2024,65af53f67219ae981f60fda5,2024-01-23_07h53.52.044,bars,2023.2.3,Win32,60.0240096,657b66ea316d21385b68909f,,,,,,,,,,,341.515,342.515,,,343.016,343.265,,121,121,,,,,,,,,,,,,,,,bars/003.png,bars/mask006.png,,,,,,,,,,,,3,2,,,,,,,0,10,0,9,,,,,,,,,,,342.515,343.016,343.265,345.766,space,2.487,,345.766,84,19,346.767,346.767,347.7,space,0.919,,0,21,21,21,1,25,140,,,,,,,,
,,650aee824c25ddbb9bee2024,65af53f67219ae981f60fda5,2024-01-23_07h53.52.044,bars,2023.2.3,Win32,60.0240096,657b66ea316d21385b68909f,,,,,,,,,,,347.7,348.701,,,349.201,349.451,,109,109,,,,,,,,,,,,,,,,bars/028.png,bars/mask008.png,,,,,,,,,,,,6,2,,,,,,,2,10,2,10,,,,,,,,,,,348.701,349.201,349.451,351.634,space,2.171,,351.635,64,11,352.635,352.635,353.885,space,1.233,,0,22,22,22,1,45,120,,,,,,,,
,,650aee824c25ddbb9bee2024,65af53f67219ae981f60fda5,2024-01-23_07h53.52.044,bars,2023.2.3,Win32,60.0240096,657b66ea316d21385b68909f,,,,,,,,,,,353.885,354.885,,,355.386,355.635,,141,141,,,,,,,,,,,,,,,,bars/015.png,bars/mask008.png,,,,,,,,,,,,3,2,,,,,,,4,10,3,9,,,,,,,,,,,354.885,355.386,355.635,359.97,space,4.318,,359.97,31,19,360.971,360.971,361.62,space,0.633,,0,23,23,23,1,110,160,,,,,,,,
,,650aee824c25ddbb9bee2024,65af53f67219ae981f60fda5,2024-01-23_07h53.52.044,bars,2023.2.3,Win32,60.0240096,657b66ea316d21385b68909f,,,,,,,,,,,361.621,362.62,,,363.121,363.372,,93,93,,,,,,,,,,,,,,,,bars/028.png,bars/mask001.png,,,,,,,,,,,,1,2,,,,,,,2,10,2,8,,,,,,,,,,,362.62,363.121,363.372,365.205,space,1.817,,365.205,48,27,366.205,366.205,366.822,space,0.6,,0,24,24,24,1,45,120,,,,,,,,
,,650aee824c25ddbb9bee2024,65af53f67219ae981f60fda5,2024-01-23_07h53.52.044,bars,2023.2.3,Win32,60.0240096,657b66ea316d21385b68909f,,,,,,,,,,,366.822,367.823,,,368.323,368.573,,178,178,,,,,,,,,,,,,,,,bars/012.png,bars/mask004.png,,,,,,,,,,,,4,2,,,,,,,0,10,0,10,,,,,,,,,,,367.823,368.323,368.573,371.774,space,3.186,,371.774,88,17,372.774,372.774,373.241,space,0.449,,0,25,25,25,1,90,15,,,,,,,,
,,650aee824c25ddbb9bee2024,65af53f67219ae981f60fda5,2024-01-23_07h53.52.044,bars,2023.2.3,Win32,60.0240096,657b66ea316d21385b68909f,,,,,,,,,,,373.242,374.242,,,374.741,374.991,,66,66,,,,,,,,,,,,,,,,bars/034.png,bars/mask005.png,,,,,,,,,,,,10,2,,,,,,,0,10,0,10,,,,,,,,,,,374.242,374.741,374.991,377.241,space,2.238,,377.242,59,1,378.243,378.243,378.96,space,0.699,,0,26,26,26,1,125,65,,,,,,,,
,,650aee824c25ddbb9bee2024,65af53f67219ae981f60fda5,2024-01-23_07h53.52.044,bars,2023.2.3,Win32,60.0240096,657b66ea316d21385b68909f,,,,,,,,,,,378.96,379.96,,,380.46,380.71,,100,100,,,,,,,,,,,,,,,,bars/020.png,bars/mask002.png,,,,,,,,,,,,0,1,,,,,,,0,8,0,6,,,,,,,,,,,379.96,380.46,380.71,382.194,space,1.471,,382.194,15,70,383.194,383.194,384.528,space,1.312,,0,27,27,27,1,115,170,,,,,,,,
,,650aee824c25ddbb9bee2024,65af53f67219ae981f60fda5,2024-01-23_07h53.52.044,bars,2023.2.3,Win32,60.0240096,657b66ea316d21385b68909f,,,,,,,,,,,384.528,385.528,,,386.028,386.278,,8,188,,,,,,,,,,,,,,,,bars/011.png,bars/mask008.png,,,,,,,,,,,,0,1,,,,,,,2,6,2,5,,,,,,,,,,,385.528,386.028,386.278,388.412,space,2.118,,388.412,28,77,389.413,389.413,390.079,space,0.65,,0,28,28,28,1,160,85,,,,,,,,
,,650aee824c25ddbb9bee2024,65af53f67219ae981f60fda5,2024-01-23_07h53.52.044,bars,2023.2.3,Win32,60.0240096,657b66ea316d21385b68909f,,,,,,,,,,,390.08,391.079,,,391.579,391.83,,101,101,,,,,,,,,,,,,,,,bars/040.png,bars/mask000.png,,,,,,,,,,,,0,1,,,,,,,0,8,0,8,,,,,,,,,,,391.079,391.579,391.83,394.464,space,2.622,,394.464,39,84,395.464,395.464,396.031,space,0.548,,0,29,29,29,1,140,5,,,,,,,,
,,650aee824c25ddbb9bee2024,65af53f67219ae981f60fda5,2024-01-23_07h53.52.044,bars,2023.2.3,Win32,60.0240096,657b66ea316d21385b68909f,,,,,,,,,,,396.032,397.032,,,397.532,397.782,,59,59,,,,,,,,,,,,,,,,bars/025.png,bars/mask004.png,,,,,,,,,,,,3,2,,,,,,,0,6,0,7,,,,,,,,,,,397.032,397.532,397.782,400.865,space,3.067,,400.865,46,19,401.866,401.866,403.1,space,1.214,,0,30,30,30,1,105,40,,,,,,,,
,,650aee824c25ddbb9bee2024,65af53f67219ae981f60fda5,2024-01-23_07h53.52.044,bars,2023.2.3,Win32,60.0240096,657b66ea316d21385b68909f,,,,,,,,,,,403.1,404.1,,,404.6,404.851,,57,57,,,,,,,,,,,,,,,,bars/029.png,bars/mask009.png,,,,,,,,,,,,6,2,,,,,,,0,8,1,10,,,,,,,,,,,404.1,404.6,404.851,408.868,space,4.002,,408.868,33,12,409.868,409.868,410.618,space,0.735,,0,31,31,31,1,90,45,,,,,,,,
,,650aee824c25ddbb9bee2024,65af53f67219ae981f60fda5,2024-01-23_07h53.52.044,bars,2023.2.3,Win32,60.0240096,657b66ea316d21385b68909f,,,,,,,,,,,410.619,411.62,,,412.119,412.37,,150,150,,,,,,,,,,,,,,,,bars/010.png,bars/mask000.png,,,,,,,,,,,,0,1,,,,,,,0,10,0,10,,,,,,,,,,,411.62,412.119,412.371,415.671,space,3.284,,415.671,15,85,416.671,416.671,417.421,space,0.725,,0,32,32,32,1,165,55,,,,,,,,
,,650aee824c25ddbb9bee2024,65af53f67219ae981f60fda5,2024-01-23_07h53.52.044,bars,2023.2.3,Win32,60.0240096,657b66ea316d21385b68909f,,,,,,,,,,,417.422,418.421,,,418.921,419.171,,44,44,,,,,,,,,,,,,,,,bars/010.png,bars/mask006.png,,,,,,,,,,,,6,2,,,,,,,0,10,0,9,,,,,,,,,,,418.421,418.921,419.171,424.123,space,4.935,,424.123,59,11,425.123,425.123,425.857,space,0.716,,0,33,33,33,1,165,55,,,,,,,,
,,650aee824c25ddbb9bee2024,65af53f67219ae981f60fda5,2024-01-23_07h53.52.044,bars,2023.2.3,Win32,60.0240096,657b66ea316d21385b68909f,,,,,,,,,,,425.857,426.858,,,427.357,427.608,,147,147,,,,,,,,,,,,,,,,bars/046.png,bars/mask001.png,,,,,,,,,,,,1,1,,,,,,,2,8,1,7,,,,,,,,,,,426.858,427.357,427.608,431.375,space,3.751,,431.375,8,62,432.375,432.375,433.175,space,0.778,,0,34,34,34,1,155,85,,,,,,,,
,,650aee824c25ddbb9bee2024,65af53f67219ae981f60fda5,2024-01-23_07h53.52.044,bars,2023.2.3,Win32,60.0240096,657b66ea316d21385b68909f,,,,,,,,,,,433.176,434.175,,,434.676,434.926,,99,99,,,,,,,,,,,,,,,,bars/027.png,bars/mask002.png,,,,,,,,,,,,0,1,,,,,,,0,6,0,7,,,,,,,,,,,434.176,434.676,434.927,435.959,space,1.018,,435.959,11,49,436.96,436.96,437.544,space,0.566,,0,35,35,35,1,110,50,,,,,,,,
,,650aee824c25ddbb9bee2024,65af53f67219ae981f60fda5,2024-01-23_07h53.52.044,bars,2023.2.3,Win32,60.0240096,657b66ea316d21385b68909f,,,,,,,,,,,437.544,438.544,,,439.043,439.295,,178,178,,,,,,,,,,,,,,,,bars/011.png,bars/mask006.png,,,,,,,,,,,,1,1,,,,,,,0,8,2,8,,,,,,,,,,,438.544,439.043,439.295,441.645,space,2.332,,441.645,18,87,442.645,442.645,443.412,space,0.75,,0,36,36,36,1,160,85,,,,,,,,
,,650aee824c25ddbb9bee2024,65af53f67219ae981f60fda5,2024-01-23_07h53.52.044,bars,2023.2.3,Win32,60.0240096,657b66ea316d21385b68909f,,,,,,,,,,,443.413,444.412,,,444.913,445.163,,95,95,,,,,,,,,,,,,,,,bars/028.png,bars/mask007.png,,,,,,,,,,,,1,2,,,,,,,0,6,0,7,,,,,,,,,,,444.412,444.913,445.163,447.663,space,2.484,,447.663,50,25,448.663,448.663,449.28,space,0.599,,0,37,37,37,1,45,120,,,,,,,,
,,650aee824c25ddbb9bee2024,65af53f67219ae981f60fda5,2024-01-23_07h53.52.044,bars,2023.2.3,Win32,60.0240096,657b66ea316d21385b68909f,,,,,,,,,,,449.28,450.281,,,450.781,451.031,,134,134,,,,,,,,,,,,,,,,bars/049.png,bars/mask005.png,,,,,,,,,,,,3,2,,,,,,,0,8,1,9,,,,,,,,,,,450.281,450.781,451.031,453.665,space,2.622,,453.665,26,19,454.665,454.665,455.265,space,0.583,,0,38,38,38,1,160,115,,,,,,,,
,,650aee824c25ddbb9bee2024,65af53f67219ae981f60fda5,2024-01-23_07h53.52.044,bars,2023.2.3,Win32,60.0240096,657b66ea316d21385b68909f,,,,,,,,,,,455.266,456.265,,,456.767,457.016,,136,-44,,,,,,,,,,,,,,,,bars/004.png,bars/mask001.png,,,,,,,,,,,,4,2,,,,,,,2,6,2,7,,,,,,,,,,,456.265,456.766,457.016,461.684,space,4.653,,461.684,69,11,462.684,462.684,463.552,space,0.848,,0,39,39,39,1,25,125,,,,,,,,
,,650aee824c25ddbb9bee2024,65af53f67219ae981f60fda5,2024-01-23_07h53.52.044,bars,2023.2.3,Win32,60.0240096,657b66ea316d21385b68909f,,,,,,,,,,,463.552,464.552,,,465.051,465.302,,96,96,,,,,,,,,,,,,,,,bars/041.png,bars/mask007.png,,,,,,,,,,,,2,2,,,,,,,4,4,5,3,,,,,,,,,,,464.552,465.051,465.302,469.553,space,4.235,,469.553,76,11,470.553,470.554,471.02,space,0.447,,0,40,40,40,1,20,85,,,,,,,,
,,650aee824c25ddbb9bee2024,65af53f67219ae981f60fda5,2024-01-23_07h53.52.044,bars,2023.2.3,Win32,60.0240096,657b66ea316d21385b68909f,,,,,,,,,,,471.021,472.02,,,472.52,472.77,,31,211,,,,,,,,,,,,,,,,bars/045.png,bars/mask002.png,,,,,,,,,,,,2,2,,,,,,,2,6,1,7,,,,,,,,,,,472.02,472.52,472.77,478.156,space,5.37,,478.156,69,21,479.156,479.156,479.989,space,0.811,,0,41,41,41,1,100,10,,,,,,,,
,,650aee824c25ddbb9bee2024,65af53f67219ae981f60fda5,2024-01-23_07h53.52.044,bars,2023.2.3,Win32,60.0240096,657b66ea316d21385b68909f,,,,,,,,,,,479.991,480.99,,,481.49,481.741,,39,219,,,,,,,,,,,,,,,,bars/017.png,bars/mask005.png,,,,,,,,,,,,2,2,,,,,,,4,4,3,3,,,,,,,,,,,480.99,481.49,481.741,485.108,space,3.353,,485.108,74,6,486.108,486.108,486.825,space,0.698,,0,42,42,42,1,145,45,,,,,,,,
,,650aee824c25ddbb9bee2024,65af53f67219ae981f60fda5,2024-01-23_07h53.52.044,bars,2023.2.3,Win32,60.0240096,657b66ea316d21385b68909f,,,,,,,,,,,486.826,487.826,,,488.326,488.576,,87,87,,,,,,,,,,,,,,,,bars/019.png,bars/mask009.png,,,,,,,,,,,,2,2,,,,,,,2,6,4,6,,,,,,,,,,,487.826,488.326,488.576,492.127,space,3.535,,492.127,42,18,493.126,493.126,493.543,space,0.399,,0,43,43,43,1,45,105,,,,,,,,
,,650aee824c25ddbb9bee2024,65af53f67219ae981f60fda5,2024-01-23_07h53.52.044,bars,2023.2.3,Win32,60.0240096,657b66ea316d21385b68909f,,,,,,,,,,,493.544,494.543,,,495.044,495.294,,177,177,,,,,,,,,,,,,,,,bars/024.png,bars/mask002.png,,,,,,,,,,,,6,2,,,,,,,0,8,0,8,,,,,,,,,,,494.544,495.044,495.294,500.112,space,4.807,,500.112,57,7,501.113,501.113,501.763,space,0.633,,0,44,44,44,1,120,170,,,,,,,,
,,650aee824c25ddbb9bee2024,65af53f67219ae981f60fda5,2024-01-23_07h53.52.044,bars,2023.2.3,Win32,60.0240096,657b66ea316d21385b68909f,,,,,,,,,,,501.763,502.763,,,503.264,503.513,,149,-31,,,,,,,,,,,,,,,,bars/049.png,bars/mask008.png,,,,,,,,,,,,1,1,,,,,,,2,6,1,7,,,,,,,,,,,502.763,503.264,503.513,506.331,space,2.803,,506.331,11,34,507.332,507.332,507.798,space,0.447,,0,45,45,45,1,160,115,,,,,,,,
,,650aee824c25ddbb9bee2024,65af53f67219ae981f60fda5,2024-01-23_07h53.52.044,bars,2023.2.3,Win32,60.0240096,657b66ea316d21385b68909f,,,,,,,,,,,507.798,508.798,,,509.298,509.549,,39,219,,,,,,,,,,,,,,,,bars/009.png,bars/mask003.png,,,,,,,,,,,,0,1,,,,,,,0,4,0,4,,,,,,,,,,,508.799,509.298,509.549,513.099,space,3.536,,513.099,24,66,514.1,514.1,514.816,space,0.696,,0,46,46,46,1,15,105,,,,,,,,
,,650aee824c25ddbb9bee2024,65af53f67219ae981f60fda5,2024-01-23_07h53.52.044,bars,2023.2.3,Win32,60.0240096,657b66ea316d21385b68909f,,,,,,,,,,,514.817,515.817,,,516.317,516.567,,85,85,,,,,,,,,,,,,,,,bars/006.png,bars/mask000.png,,,,,,,,,,,,3,2,,,,,,,2,6,2,6,,,,,,,,,,,515.817,516.317,516.567,518.151,space,1.568,,518.151,50,15,519.151,519.151,519.817,space,0.65,,0,47,47,47,1,35,100,,,,,,,,
,,650aee824c25ddbb9bee2024,65af53f67219ae981f60fda5,2024-01-23_07h53.52.044,bars,2023.2.3,Win32,60.0240096,657b66ea316d21385b68909f,,,,,,,,,,,519.818,520.819,,,521.319,521.569,,127,-53,,,,,,,,,,,,,,,,bars/000.png,bars/mask004.png,,,,,,,,,,,,1,2,,,,,,,0,4,0,3,,,,,,,,,,,520.819,521.319,521.569,524.736,space,3.155,,524.736,87,18,525.736,525.736,526.437,space,0.682,,0,48,48,48,1,40,145,,,,,,,,
,,650aee824c25ddbb9bee2024,65af53f67219ae981f60fda5,2024-01-23_07h53.52.044,bars,2023.2.3,Win32,60.0240096,657b66ea316d21385b68909f,,,,,,,,,,,526.437,527.437,,,527.937,528.188,,30,30,,,,,,,,,,,,,,,,bars/025.png,bars/mask003.png,,,,,,,,,,,,2,2,,,,,,,2,2,2,3,,,,,,,,,,,527.437,527.937,528.188,532.172,space,3.969,,532.172,75,10,533.172,533.172,533.672,space,0.489,,0,49,49,49,1,105,40,,,,,,,,
,,650aee824c25ddbb9bee2024,65af53f67219ae981f60fda5,2024-01-23_07h53.52.044,bars,2023.2.3,Win32,60.0240096,657b66ea316d21385b68909f,,,,,,,,,,,,,,,,,,,,,,,,,,,,,,,,,,,,,,,,,,,,,,,,,,,,,,,,,,,,,,,,,,,,,,,,,,,,,,,,,,,,,,,,,,,,,533.672,593.674,0,0,0,0,1,sequence_tables/blk043.csv
,,650aee824c25ddbb9bee2024,65af53f67219ae981f60fda5,2024-01-23_07h53.52.044,bars,2023.2.3,Win32,60.0240096,657b66ea316d21385b68909f,,,,,,,,,,,599.198,600.192,,,600.692,600.942,,147,147,,,,,,,,,,,,,,,,bars/048.png,bars/mask008.png,,,,,,,,,,,,0,2,,,,,,,5,9,5,7,,,,,,593.677,599.192,space,5.506,,600.192,600.692,600.943,603.06,space,2.101,,603.06,83,28,604.06,604.06,604.063,,,,0,0,0,0,1,50,175,,,,,,,,
,,650aee824c25ddbb9bee2024,65af53f67219ae981f60fda5,2024-01-23_07h53.52.044,bars,2023.2.3,Win32,60.0240096,657b66ea316d21385b68909f,,,,,,,,,,,604.065,605.061,,,605.561,605.811,,49,229,,,,,,,,,,,,,,,,bars/035.png,bars/mask003.png,,,,,,,,,,,,3,2,,,,,,,7,7,10,5,,,,,,,,,,,605.061,605.561,605.811,609.913,space,4.089,,609.914,54,11,610.912,610.912,610.917,,,,0,1,1,1,1,175,60,,,,,,,,
,,650aee824c25ddbb9bee2024,65af53f67219ae981f60fda5,2024-01-23_07h53.52.044,bars,2023.2.3,Win32,60.0240096,657b66ea316d21385b68909f,,,,,,,,,,,610.918,611.912,,,612.413,612.663,,109,109,,,,,,,,,,,,,,,,bars/018.png,bars/mask001.png,,,,,,,,,,,,1,2,,,,,,,5,5,6,3,,,,,,,,,,,611.912,612.413,612.663,615.598,space,2.918,,615.598,41,19,616.597,616.597,616.599,,,,0,2,2,2,1,150,90,,,,,,,,
,,650aee824c25ddbb9bee2024,65af53f67219ae981f60fda5,2024-01-23_07h53.52.044,bars,2023.2.3,Win32,60.0240096,657b66ea316d21385b68909f,,,,,,,,,,,616.6,617.598,,,618.098,618.348,,56,236,,,,,,,,,,,,,,,,bars/031.png,bars/mask008.png,,,,,,,,,,,,2,2,,,,,,,7,3,6,6,,,,,,,,,,,617.598,618.098,618.348,622.615,space,4.257,,622.615,64,21,623.616,623.616,623.618,,,,0,3,3,3,1,120,35,,,,,,,,
,,650aee824c25ddbb9bee2024,65af53f67219ae981f60fda5,2024-01-23_07h53.52.044,bars,2023.2.3,Win32,60.0240096,657b66ea316d21385b68909f,,,,,,,,,,,623.618,624.616,,,625.117,625.366,,152,152,,,,,,,,,,,,,,,,bars/040.png,bars/mask007.png,,,,,,,,,,,,5,1,,,,,,,9,5,9,6,,,,,,,,,,,624.616,625.117,625.366,627.05,space,1.67,,627.05,12,33,628.05,628.05,628.054,,,,0,4,4,4,1,140,5,,,,,,,,
,,650aee824c25ddbb9bee2024,65af53f67219ae981f60fda5,2024-01-23_07h53.52.044,bars,2023.2.3,Win32,60.0240096,657b66ea316d21385b68909f,,,,,,,,,,,628.055,629.051,,,629.551,629.801,,137,137,,,,,,,,,,,,,,,,bars/005.png,bars/mask005.png,,,,,,,,,,,,5,2,,,,,,,10,7,9,6,,,,,,,,,,,629.051,629.551,629.801,631.752,space,1.94,,631.752,53,3,632.752,632.752,632.755,,,,0,5,5,5,1,10,140,,,,,,,,
,,650aee824c25ddbb9bee2024,65af53f67219ae981f60fda5,2024-01-23_07h53.52.044,bars,2023.2.3,Win32,60.0240096,657b66ea316d21385b68909f,,,,,,,,,,,632.756,633.752,,,634.253,634.503,,79,-101,,,,,,,,,,,,,,,,bars/019.png,bars/mask004.png,,,,,,,,,,,,1,2,,,,,,,8,5,7,4,,,,,,,,,,,633.752,634.253,634.503,639.254,space,4.734,,639.254,34,26,640.254,640.254,640.259,,,,0,6,6,6,1,45,105,,,,,,,,
,,650aee824c25ddbb9bee2024,65af53f67219ae981f60fda5,2024-01-23_07h53.52.044,bars,2023.2.3,Win32,60.0240096,657b66ea316d21385b68909f,,,,,,,,,,,640.259,641.255,,,641.755,642.005,,152,152,,,,,,,,,,,,,,,,bars/040.png,bars/mask007.png,,,,,,,,,,,,4,1,,,,,,,6,7,6,8,,,,,,,,,,,641.255,641.755,642.005,644.105,space,2.084,,644.105,12,33,645.106,645.106,645.111,,,,0,7,7,7,1,140,5,,,,,,,,
,,650aee824c25ddbb9bee2024,65af53f67219ae981f60fda5,2024-01-23_07h53.52.044,bars,2023.2.3,Win32,60.0240096,657b66ea316d21385b68909f,,,,,,,,,,,645.111,646.107,,,646.606,646.856,,173,-7,,,,,,,,,,,,,,,,bars/007.png,bars/mask009.png,,,,,,,,,,,,8,1,,,,,,,8,5,9,6,,,,,,,,,,,646.107,646.606,646.856,648.673,space,1.801,,648.673,2,62,649.674,649.674,649.676,,,,0,8,8,8,1,175,55,,,,,,,,
,,650aee824c25ddbb9bee2024,65af53f67219ae981f60fda5,2024-01-23_07h53.52.044,bars,2023.2.3,Win32,60.0240096,657b66ea316d21385b68909f,,,,,,,,,,,649.677,650.673,,,651.174,651.424,,22,202,,,,,,,,,,,,,,,,bars/035.png,bars/mask002.png,,,,,,,,,,,,1,1,,,,,,,10,7,10,8,,,,,,,,,,,650.674,651.174,651.424,654.142,space,2.701,,654.142,27,38,655.142,655.142,655.143,,,,0,9,9,9,1,175,60,,,,,,,,
,,650aee824c25ddbb9bee2024,65af53f67219ae981f60fda5,2024-01-23_07h53.52.044,bars,2023.2.3,Win32,60.0240096,657b66ea316d21385b68909f,,,,,,,,,,,655.143,656.142,,,656.643,656.892,,152,-28,,,,,,,,,,,,,,,,bars/016.png,bars/mask000.png,,,,,,,,,,,,5,2,,,,,,,8,9,8,9,,,,,,,,,,,656.142,656.642,656.892,659.159,space,2.256,,659.16,68,13,660.16,660.16,660.166,,,,0,10,10,10,1,40,165,,,,,,,,
,,650aee824c25ddbb9bee2024,65af53f67219ae981f60fda5,2024-01-23_07h53.52.044,bars,2023.2.3,Win32,60.0240096,657b66ea316d21385b68909f,,,,,,,,,,,660.166,661.16,,,661.661,661.911,,95,95,,,,,,,,,,,,,,,,bars/038.png,bars/mask008.png,,,,,,,,,,,,2,2,,,,,,,6,10,5,10,,,,,,,,,,,661.16,661.661,661.911,664.578,space,2.655,,664.579,70,25,665.579,665.579,665.58,,,,0,11,11,11,1,165,70,,,,,,,,
,,650aee824c25ddbb9bee2024,65af53f67219ae981f60fda5,2024-01-23_07h53.52.044,bars,2023.2.3,Win32,60.0240096,657b66ea316d21385b68909f,,,,,,,,,,,665.581,666.578,,,667.079,667.329,,10,190,,,,,,,,,,,,,,,,bars/040.png,bars/mask004.png,,,,,,,,,,,,7,2,,,,,,,8,10,10,8,,,,,,,,,,,666.578,667.079,667.329,669.079,space,1.74,,669.079,50,5,670.079,670.079,670.082,,,,0,12,12,12,1,140,5,,,,,,,,
,,650aee824c25ddbb9bee2024,65af53f67219ae981f60fda5,2024-01-23_07h53.52.044,bars,2023.2.3,Win32,60.0240096,657b66ea316d21385b68909f,,,,,,,,,,,670.082,671.081,,,671.58,671.831,,133,-47,,,,,,,,,,,,,,,,bars/046.png,bars/mask008.png,,,,,,,,,,,,3,1,,,,,,,10,10,10,8,,,,,,,,,,,671.081,671.58,671.831,675.581,space,3.735,,675.581,22,48,676.581,676.581,676.587,,,,0,13,13,13,1,155,85,,,,,,,,
,,650aee824c25ddbb9bee2024,65af53f67219ae981f60fda5,2024-01-23_07h53.52.044,bars,2023.2.3,Win32,60.0240096,657b66ea316d21385b68909f,,,,,,,,,,,676.587,677.583,,,678.082,678.332,,28,28,,,,,,,,,,,,,,,,bars/041.png,bars/mask000.png,,,,,,,,,,,,5,1,,,,,,,8,8,7,8,,,,,,,,,,,677.583,678.082,678.332,681.134,space,2.785,,681.134,8,57,682.133,682.133,682.136,,,,0,14,14,14,1,20,85,,,,,,,,
,,650aee824c25ddbb9bee2024,65af53f67219ae981f60fda5,2024-01-23_07h53.52.044,bars,2023.2.3,Win32,60.0240096,657b66ea316d21385b68909f,,,,,,,,,,,682.137,683.134,,,683.634,683.884,,123,123,,,,,,,,,,,,,,,,bars/000.png,bars/mask009.png,,,,,,,,,,,,2,2,,,,,,,6,6,7,6,,,,,,,,,,,683.134,683.634,683.884,686.218,space,2.321,,686.218,83,22,687.218,687.218,687.222,,,,0,15,15,15,1,40,145,,,,,,,,
,,650aee824c25ddbb9bee2024,65af53f67219ae981f60fda5,2024-01-23_07h53.52.044,bars,2023.2.3,Win32,60.0240096,657b66ea316d21385b68909f,,,,,,,,,,,687.222,688.219,,,688.719,688.969,,66,66,,,,,,,,,,,,,,,,bars/034.png,bars/mask007.png,,,,,,,,,,,,2,2,,,,,,,8,4,7,2,,,,,,,,,,,688.219,688.719,688.969,690.836,space,1.851,,690.836,59,1,691.837,691.837,691.839,,,,0,16,16,16,1,125,65,,,,,,,,
,,650aee824c25ddbb9bee2024,65af53f67219ae981f60fda5,2024-01-23_07h53.52.044,bars,2023.2.3,Win32,60.0240096,657b66ea316d21385b68909f,,,,,,,,,,,691.839,692.837,,,693.337,693.587,,58,238,,,,,,,,,,,,,,,,bars/007.png,bars/mask004.png,,,,,,,,,,,,2,2,,,,,,,10,2,9,2,,,,,,,,,,,692.837,693.337,693.587,696.337,space,2.738,,696.338,63,3,697.338,697.338,697.339,,,,0,17,17,17,1,175,55,,,,,,,,
,,650aee824c25ddbb9bee2024,65af53f67219ae981f60fda5,2024-01-23_07h53.52.044,bars,2023.2.3,Win32,60.0240096,657b66ea316d21385b68909f,,,,,,,,,,,697.34,698.338,,,698.838,699.088,,20,20,,,,,,,,,,,,,,,,bars/035.png,bars/mask009.png,,,,,,,,,,,,1,1,,,,,,,8,0,6,0,,,,,,,,,,,698.338,698.838,699.088,702.89,space,3.786,,702.89,25,40,703.89,703.89,703.895,,,,0,18,18,18,1,175,60,,,,,,,,
,,650aee824c25ddbb9bee2024,65af53f67219ae981f60fda5,2024-01-23_07h53.52.044,bars,2023.2.3,Win32,60.0240096,657b66ea316d21385b68909f,,,,,,,,,,,703.897,704.89,,,705.39,705.641,,92,92,,,,,,,,,,,,,,,,bars/006.png,bars/mask005.png,,,,,,,,,,,,1,2,,,,,,,10,0,10,2,,,,,,,,,,,704.89,705.39,705.641,708.726,space,3.069,,708.726,57,8,709.725,709.725,709.735,,,,0,19,19,19,1,35,100,,,,,,,,
,,650aee824c25ddbb9bee2024,65af53f67219ae981f60fda5,2024-01-23_07h53.52.044,bars,2023.2.3,Win32,60.0240096,657b66ea316d21385b68909f,,,,,,,,,,,709.735,710.725,,,711.226,711.476,,41,41,,,,,,,,,,,,,,,,bars/048.png,bars/mask001.png,,,,,,,,,,,,7,1,,,,,,,10,0,10,0,,,,,,,,,,,710.725,711.226,711.476,715.777,space,4.289,,715.777,9,46,716.777,716.777,716.783,,,,0,20,20,20,1,50,175,,,,,,,,
,,650aee824c25ddbb9bee2024,65af53f67219ae981f60fda5,2024-01-23_07h53.52.044,bars,2023.2.3,Win32,60.0240096,657b66ea316d21385b68909f,,,,,,,,,,,716.783,717.777,,,718.278,718.528,,92,92,,,,,,,,,,,,,,,,bars/006.png,bars/mask003.png,,,,,,,,,,,,0,2,,,,,,,8,0,5,0,,,,,,,,,,,717.777,718.278,718.528,720.378,space,1.836,,720.378,57,8,721.378,721.378,721.383,,,,0,21,21,21,1,35,100,,,,,,,,
,,650aee824c25ddbb9bee2024,65af53f67219ae981f60fda5,2024-01-23_07h53.52.044,bars,2023.2.3,Win32,60.0240096,657b66ea316d21385b68909f,,,,,,,,,,,721.384,722.379,,,722.879,723.13,,45,45,,,,,,,,,,,,,,,,bars/034.png,bars/mask001.png,,,,,,,,,,,,0,2,,,,,,,10,0,9,0,,,,,,,,,,,722.379,722.879,723.13,727.864,space,4.717,,727.864,80,20,728.865,728.865,728.867,,,,0,22,22,22,1,125,65,,,,,,,,
,,650aee824c25ddbb9bee2024,65af53f67219ae981f60fda5,2024-01-23_07h53.52.044,bars,2023.2.3,Win32,60.0240096,657b66ea316d21385b68909f,,,,,,,,,,,728.867,729.865,,,730.364,730.615,,117,117,,,,,,,,,,,,,,,,bars/030.png,bars/mask007.png,,,,,,,,,,,,2,1,,,,,,,10,2,9,1,,,,,,,,,,,729.865,730.364,730.615,731.831,space,1.2,,731.831,23,52,732.832,732.832,732.835,,,,0,23,23,23,1,140,65,,,,,,,,
,,650aee824c25ddbb9bee2024,65af53f67219ae981f60fda5,2024-01-23_07h53.52.044,bars,2023.2.3,Win32,60.0240096,657b66ea316d21385b68909f,,,,,,,,,,,732.835,733.832,,,734.332,734.582,,60,60,,,,,,,,,,,,,,,,bars/001.png,bars/mask001.png,,,,,,,,,,,,0,2,,,,,,,8,0,8,0,,,,,,,,,,,733.832,734.332,734.582,735.299,space,0.7,,735.299,70,25,736.299,736.299,736.304,,,,0,24,24,24,1,130,85,,,,,,,,
,,650aee824c25ddbb9bee2024,65af53f67219ae981f60fda5,2024-01-23_07h53.52.044,bars,2023.2.3,Win32,60.0240096,657b66ea316d21385b68909f,,,,,,,,,,,736.304,737.3,,,737.8,738.05,,130,-50,,,,,,,,,,,,,,,,bars/034.png,bars/mask009.png,,,,,,,,,,,,3,1,,,,,,,6,0,4,0,,,,,,,,,,,737.3,737.8,738.05,742.119,space,4.052,,742.119,5,65,743.118,743.118,743.125,,,,0,25,25,25,1,125,65,,,,,,,,
,,650aee824c25ddbb9bee2024,65af53f67219ae981f60fda5,2024-01-23_07h53.52.044,bars,2023.2.3,Win32,60.0240096,657b66ea316d21385b68909f,,,,,,,,,,,743.125,744.119,,,744.619,744.869,,41,221,,,,,,,,,,,,,,,,bars/004.png,bars/mask003.png,,,,,,,,,,,,1,1,,,,,,,4,2,3,1,,,,,,,,,,,744.119,744.619,744.869,748.203,space,3.318,,748.203,16,84,749.203,749.203,749.205,,,,0,26,26,26,1,25,125,,,,,,,,
,,650aee824c25ddbb9bee2024,65af53f67219ae981f60fda5,2024-01-23_07h53.52.044,bars,2023.2.3,Win32,60.0240096,657b66ea316d21385b68909f,,,,,,,,,,,749.206,750.204,,,750.704,750.954,,178,-2,,,,,,,,,,,,,,,,bars/039.png,bars/mask006.png,,,,,,,,,,,,2,1,,,,,,,2,0,2,0,,,,,,,,,,,750.204,750.704,750.954,753.071,space,2.101,,753.071,3,73,754.071,754.071,754.073,,,,0,27,27,27,1,175,105,,,,,,,,
,,650aee824c25ddbb9bee2024,65af53f67219ae981f60fda5,2024-01-23_07h53.52.044,bars,2023.2.3,Win32,60.0240096,657b66ea316d21385b68909f,,,,,,,,,,,754.073,755.072,,,755.572,755.822,,6,6,,,,,,,,,,,,,,,,bars/023.png,bars/mask000.png,,,,,,,,,,,,1,1,,,,,,,0,2,1,1,,,,,,,,,,,755.072,755.572,755.822,759.44,space,3.606,,759.44,14,71,760.44,760.441,760.443,,,,0,28,28,28,1,20,115,,,,,,,,
,,650aee824c25ddbb9bee2024,65af53f67219ae981f60fda5,2024-01-23_07h53.52.044,bars,2023.2.3,Win32,60.0240096,657b66ea316d21385b68909f,,,,,,,,,,,760.443,761.441,,,761.94,762.191,,22,22,,,,,,,,,,,,,,,,bars/004.png,bars/mask008.png,,,,,,,,,,,,3,1,,,,,,,2,0,3,0,,,,,,,,,,,761.441,761.94,762.191,764.325,space,2.118,,764.325,3,77,765.324,765.324,765.325,,,,0,29,29,29,1,25,125,,,,,,,,
,,650aee824c25ddbb9bee2024,65af53f67219ae981f60fda5,2024-01-23_07h53.52.044,bars,2023.2.3,Win32,60.0240096,657b66ea316d21385b68909f,,,,,,,,,,,765.326,766.325,,,766.83,767.075,,115,115,,,,,,,,,,,,,,,,bars/045.png,bars/mask008.png,,,,,,,,,,,,2,1,,,,,,,4,2,3,1,,,,,,,,,,,766.325,766.83,767.075,769.91,space,2.818,,769.91,15,75,770.91,770.91,770.912,,,,0,30,30,30,1,100,10,,,,,,,,
,,650aee824c25ddbb9bee2024,65af53f67219ae981f60fda5,2024-01-23_07h53.52.044,bars,2023.2.3,Win32,60.0240096,657b66ea316d21385b68909f,,,,,,,,,,,770.912,771.91,,,772.411,772.66,,116,116,,,,,,,,,,,,,,,,bars/045.png,bars/mask004.png,,,,,,,,,,,,2,1,,,,,,,2,4,4,5,,,,,,,,,,,771.91,772.411,772.66,775.261,space,2.584,,775.262,16,74,776.262,776.262,776.264,,,,0,31,31,31,1,100,10,,,,,,,,
,,650aee824c25ddbb9bee2024,65af53f67219ae981f60fda5,2024-01-23_07h53.52.044,bars,2023.2.3,Win32,60.0240096,657b66ea316d21385b68909f,,,,,,,,,,,776.265,777.262,,,777.763,778.012,,41,41,,,,,,,,,,,,,,,,bars/025.png,bars/mask008.png,,,,,,,,,,,,5,2,,,,,,,0,6,1,5,,,,,,,,,,,777.262,777.763,778.012,781.513,space,3.486,,781.514,64,1,782.513,782.513,782.519,,,,0,32,32,32,1,105,40,,,,,,,,
,,650aee824c25ddbb9bee2024,65af53f67219ae981f60fda5,2024-01-23_07h53.52.044,bars,2023.2.3,Win32,60.0240096,657b66ea316d21385b68909f,,,,,,,,,,,782.52,783.513,,,784.014,784.264,,106,106,,,,,,,,,,,,,,,,bars/037.png,bars/mask000.png,,,,,,,,,,,,8,2,,,,,,,0,8,0,8,,,,,,,,,,,783.514,784.014,784.264,788.698,space,4.42,,788.699,44,1,789.699,789.699,789.702,,,,0,33,33,33,1,150,105,,,,,,,,
,,650aee824c25ddbb9bee2024,65af53f67219ae981f60fda5,2024-01-23_07h53.52.044,bars,2023.2.3,Win32,60.0240096,657b66ea316d21385b68909f,,,,,,,,,,,789.703,790.699,,,791.2,791.45,,140,140,,,,,,,,,,,,,,,,bars/040.png,bars/mask006.png,,,,,,,,,,,,0,1,,,,,,,0,6,0,6,,,,,,,,,,,790.699,791.2,791.45,792.983,space,1.517,,792.984,0,45,793.984,793.984,793.988,,,,0,34,34,34,1,140,5,,,,,,,,
,,650aee824c25ddbb9bee2024,65af53f67219ae981f60fda5,2024-01-23_07h53.52.044,bars,2023.2.3,Win32,60.0240096,657b66ea316d21385b68909f,,,,,,,,,,,793.989,794.984,,,795.484,795.734,,40,40,,,,,,,,,,,,,,,,bars/025.png,bars/mask007.png,,,,,,,,,,,,7,2,,,,,,,0,8,0,7,,,,,,,,,,,794.984,795.484,795.734,797.918,space,2.167,,797.918,65,0,798.919,798.92,798.927,,,,0,35,35,35,1,105,40,,,,,,,,
,,650aee824c25ddbb9bee2024,65af53f67219ae981f60fda5,2024-01-23_07h53.52.044,bars,2023.2.3,Win32,60.0240096,657b66ea316d21385b68909f,,,,,,,,,,,798.927,799.919,,,800.419,800.669,,63,243,,,,,,,,,,,,,,,,bars/029.png,bars/mask000.png,,,,,,,,,,,,2,2,,,,,,,2,6,2,6,,,,,,,,,,,799.919,800.419,800.669,804.37,space,3.687,,804.37,27,18,805.371,805.371,805.372,,,,0,36,36,36,1,90,45,,,,,,,,
,,650aee824c25ddbb9bee2024,65af53f67219ae981f60fda5,2024-01-23_07h53.52.044,bars,2023.2.3,Win32,60.0240096,657b66ea316d21385b68909f,,,,,,,,,,,805.372,806.372,,,806.871,807.121,,56,56,,,,,,,,,,,,,,,,bars/029.png,bars/mask007.png,,,,,,,,,,,,4,2,,,,,,,0,8,1,7,,,,,,,,,,,806.372,806.871,807.121,809.839,space,2.702,,809.839,34,11,810.839,810.839,810.842,,,,0,37,37,37,1,90,45,,,,,,,,
,,650aee824c25ddbb9bee2024,65af53f67219ae981f60fda5,2024-01-23_07h53.52.044,bars,2023.2.3,Win32,60.0240096,657b66ea316d21385b68909f,,,,,,,,,,,810.843,811.839,,,812.339,812.589,,177,-3,,,,,,,,,,,,,,,,bars/005.png,bars/mask001.png,,,,,,,,,,,,3,1,,,,,,,2,10,5,9,,,,,,,,,,,811.839,812.339,812.589,816.056,space,3.451,,816.057,13,37,817.057,817.058,817.064,,,,0,38,38,38,1,10,140,,,,,,,,
,,650aee824c25ddbb9bee2024,65af53f67219ae981f60fda5,2024-01-23_07h53.52.044,bars,2023.2.3,Win32,60.0240096,657b66ea316d21385b68909f,,,,,,,,,,,817.065,818.058,,,818.558,818.808,,151,-29,,,,,,,,,,,,,,,,bars/016.png,bars/mask001.png,,,,,,,,,,,,5,2,,,,,,,0,10,0,10,,,,,,,,,,,818.058,818.558,818.809,822.376,space,3.553,,822.376,69,14,823.376,823.376,823.383,,,,0,39,39,39,1,40,165,,,,,,,,
,,650aee824c25ddbb9bee2024,65af53f67219ae981f60fda5,2024-01-23_07h53.52.044,bars,2023.2.3,Win32,60.0240096,657b66ea316d21385b68909f,,,,,,,,,,,823.383,824.376,,,824.877,825.126,,37,217,,,,,,,,,,,,,,,,bars/025.png,bars/mask003.png,,,,,,,,,,,,9,2,,,,,,,2,10,3,10,,,,,,,,,,,824.376,824.877,825.126,829.895,space,4.752,,829.895,68,3,830.895,830.895,830.896,,,,0,40,40,40,1,105,40,,,,,,,,
,,650aee824c25ddbb9bee2024,65af53f67219ae981f60fda5,2024-01-23_07h53.52.044,bars,2023.2.3,Win32,60.0240096,657b66ea316d21385b68909f,,,,,,,,,,,830.897,831.895,,,832.396,832.645,,179,-1,,,,,,,,,,,,,,,,bars/007.png,bars/mask000.png,,,,,,,,,,,,5,1,,,,,,,4,10,6,10,,,,,,,,,,,831.895,832.396,832.645,834.312,space,1.65,,834.312,4,56,835.313,835.313,835.316,,,,0,41,41,41,1,175,55,,,,,,,,
,,650aee824c25ddbb9bee2024,65af53f67219ae981f60fda5,2024-01-23_07h53.52.044,bars,2023.2.3,Win32,60.0240096,657b66ea316d21385b68909f,,,,,,,,,,,835.316,836.313,,,836.813,837.063,,140,-40,,,,,,,,,,,,,,,,bars/040.png,bars/mask006.png,,,,,,,,,,,,2,1,,,,,,,2,10,2,10,,,,,,,,,,,836.313,836.813,837.063,841.765,space,4.685,,841.765,0,45,842.765,842.765,842.769,,,,0,42,42,42,1,140,5,,,,,,,,
,,650aee824c25ddbb9bee2024,65af53f67219ae981f60fda5,2024-01-23_07h53.52.044,bars,2023.2.3,Win32,60.0240096,657b66ea316d21385b68909f,,,,,,,,,,,842.769,843.766,,,844.265,844.515,,97,97,,,,,,,,,,,,,,,,bars/011.png,bars/mask004.png,,,,,,,,,,,,5,2,,,,,,,4,10,4,9,,,,,,,,,,,843.766,844.265,844.515,846.333,space,1.801,,846.333,63,12,847.333,847.333,847.339,,,,0,43,43,43,1,160,85,,,,,,,,
,,650aee824c25ddbb9bee2024,65af53f67219ae981f60fda5,2024-01-23_07h53.52.044,bars,2023.2.3,Win32,60.0240096,657b66ea316d21385b68909f,,,,,,,,,,,847.34,848.333,,,848.833,849.083,,105,105,,,,,,,,,,,,,,,,bars/037.png,bars/mask003.png,,,,,,,,,,,,8,2,,,,,,,6,8,7,8,,,,,,,,,,,848.333,848.833,849.083,851.968,space,2.874,,851.968,45,0,852.968,852.968,852.971,,,,0,44,44,44,1,150,105,,,,,,,,
,,650aee824c25ddbb9bee2024,65af53f67219ae981f60fda5,2024-01-23_07h53.52.044,bars,2023.2.3,Win32,60.0240096,657b66ea316d21385b68909f,,,,,,,,,,,852.973,853.968,,,854.469,854.719,,37,217,,,,,,,,,,,,,,,,bars/031.png,bars/mask005.png,,,,,,,,,,,,9,2,,,,,,,4,10,2,10,,,,,,,,,,,853.969,854.469,854.719,857.853,space,3.118,,857.853,83,2,858.853,858.853,858.855,,,,0,45,45,45,1,120,35,,,,,,,,
,,650aee824c25ddbb9bee2024,65af53f67219ae981f60fda5,2024-01-23_07h53.52.044,bars,2023.2.3,Win32,60.0240096,657b66ea316d21385b68909f,,,,,,,,,,,858.855,859.854,,,860.353,860.604,,32,212,,,,,,,,,,,,,,,,bars/013.png,bars/mask009.png,,,,,,,,,,,,2,2,,,,,,,2,8,2,6,,,,,,,,,,,859.854,860.353,860.604,864.271,space,3.651,,864.271,43,22,865.271,865.271,865.274,,,,0,46,46,46,1,75,10,,,,,,,,
,,650aee824c25ddbb9bee2024,65af53f67219ae981f60fda5,2024-01-23_07h53.52.044,bars,2023.2.3,Win32,60.0240096,657b66ea316d21385b68909f,,,,,,,,,,,865.274,866.272,,,866.772,867.022,,80,80,,,,,,,,,,,,,,,,bars/028.png,bars/mask009.png,,,,,,,,,,,,0,1,,,,,,,4,6,4,7,,,,,,,,,,,866.272,866.772,867.022,872.393,space,5.352,,872.393,35,40,873.391,873.391,873.397,,,,0,47,47,47,1,45,120,,,,,,,,
,,650aee824c25ddbb9bee2024,65af53f67219ae981f60fda5,2024-01-23_07h53.52.044,bars,2023.2.3,Win32,60.0240096,657b66ea316d21385b68909f,,,,,,,,,,,873.397,874.391,,,874.892,875.141,,38,38,,,,,,,,,,,,,,,,bars/013.png,bars/mask000.png,,,,,,,,,,,,0,2,,,,,,,2,8,2,7,,,,,,,,,,,874.391,874.892,875.141,877.725,space,2.568,,877.725,37,28,878.726,878.726,878.73,,,,0,48,48,48,1,75,10,,,,,,,,
,,650aee824c25ddbb9bee2024,65af53f67219ae981f60fda5,2024-01-23_07h53.52.044,bars,2023.2.3,Win32,60.0240096,657b66ea316d21385b68909f,,,,,,,,,,,878.731,879.726,,,880.227,880.477,,48,48,,,,,,,,,,,,,,,,bars/023.png,bars/mask005.png,,,,,,,,,,,,0,1,,,,,,,0,10,0,10,,,,,,,,,,,879.726,880.227,880.477,883.244,space,2.75,,883.244,28,67,884.244,884.244,884.248,,,,0,49,49,49,1,20,115,,,,,,,,
,,650aee824c25ddbb9bee2024,65af53f67219ae981f60fda5,2024-01-23_07h53.52.044,bars,2023.2.3,Win32,60.0240096,657b66ea316d21385b68909f,,,,,,,,,,,,,,,,,,,,,,,,,,,,,,,,,,,,,,,,,,,,,,,,,,,,,,,,,,,,,,,,,,,,,,,,,,,,,,,,,,,,,,,,,,,,,884.248,944.246,0,1,1,3,1,sequence_tables/blk026.csv
,,650aee824c25ddbb9bee2024,65af53f67219ae981f60fda5,2024-01-23_07h53.52.044,bars,2023.2.3,Win32,60.0240096,657b66ea316d21385b68909f,,,,,,,,,,,954.404,955.398,,,955.899,956.149,,128,128,,,,,,,,,,,,,,,,bars/015.png,bars/mask003.png,,,,,,,,,,,,3,1,,,,,,,7,3,7,3,,,,,,944.249,954.398,space,10.133,,955.398,955.899,956.149,960.617,space,4.453,,960.617,18,32,961.618,961.618,961.621,,,,0,0,0,0,1,110,160,,,,,,,,
,,650aee824c25ddbb9bee2024,65af53f67219ae981f60fda5,2024-01-23_07h53.52.044,bars,2023.2.3,Win32,60.0240096,657b66ea316d21385b68909f,,,,,,,,,,,961.622,962.618,,,963.118,963.368,,54,234,,,,,,,,,,,,,,,,bars/007.png,bars/mask006.png,,,,,,,,,,,,0,2,,,,,,,5,1,7,0,,,,,,,,,,,962.618,963.118,963.368,967.52,space,4.134,,967.52,59,1,968.519,968.519,968.526,,,,0,1,1,1,1,175,55,,,,,,,,
,,650aee824c25ddbb9bee2024,65af53f67219ae981f60fda5,2024-01-23_07h53.52.044,bars,2023.2.3,Win32,60.0240096,657b66ea316d21385b68909f,,,,,,,,,,,968.526,969.52,,,970.021,970.27,,64,244,,,,,,,,,,,,,,,,bars/034.png,bars/mask005.png,,,,,,,,,,,,2,2,,,,,,,7,3,4,2,,,,,,,,,,,969.52,970.02,970.27,973.571,space,3.286,,973.571,61,1,974.571,974.571,974.573,,,,0,2,2,2,1,125,65,,,,,,,,
,,650aee824c25ddbb9bee2024,65af53f67219ae981f60fda5,2024-01-23_07h53.52.044,bars,2023.2.3,Win32,60.0240096,657b66ea316d21385b68909f,,,,,,,,,,,974.574,975.571,,,976.072,976.322,,109,109,,,,,,,,,,,,,,,,bars/001.png,bars/mask000.png,,,,,,,,,,,,3,1,,,,,,,9,5,10,5,,,,,,,,,,,975.571,976.072,976.322,978.089,space,1.751,,978.089,21,24,979.09,979.09,979.096,,,,0,3,3,3,1,130,85,,,,,,,,
,,650aee824c25ddbb9bee2024,65af53f67219ae981f60fda5,2024-01-23_07h53.52.044,bars,2023.2.3,Win32,60.0240096,657b66ea316d21385b68909f,,,,,,,,,,,979.096,980.09,,,980.59,980.84,,174,174,,,,,,,,,,,,,,,,bars/035.png,bars/mask006.png,,,,,,,,,,,,10,1,,,,,,,10,7,10,6,,,,,,,,,,,980.09,980.59,980.841,981.757,space,0.9,,981.757,1,66,982.757,982.757,982.759,,,,0,4,4,4,1,175,60,,,,,,,,
,,650aee824c25ddbb9bee2024,65af53f67219ae981f60fda5,2024-01-23_07h53.52.044,bars,2023.2.3,Win32,60.0240096,657b66ea316d21385b68909f,,,,,,,,,,,982.76,983.758,,,984.258,984.508,,16,196,,,,,,,,,,,,,,,,bars/035.png,bars/mask001.png,,,,,,,,,,,,3,1,,,,,,,10,5,10,5,,,,,,,,,,,983.758,984.258,984.508,986.975,space,2.452,,986.975,21,44,987.975,987.975,987.976,,,,0,5,5,5,1,175,60,,,,,,,,
,,650aee824c25ddbb9bee2024,65af53f67219ae981f60fda5,2024-01-23_07h53.52.044,bars,2023.2.3,Win32,60.0240096,657b66ea316d21385b68909f,,,,,,,,,,,987.976,988.976,,,989.476,989.726,,27,27,,,,,,,,,,,,,,,,bars/041.png,bars/mask000.png,,,,,,,,,,,,8,1,,,,,,,10,7,10,7,,,,,,,,,,,988.976,989.476,989.726,991.793,space,2.054,,991.793,7,58,992.793,992.793,992.794,,,,0,6,6,6,1,20,85,,,,,,,,
,,650aee824c25ddbb9bee2024,65af53f67219ae981f60fda5,2024-01-23_07h53.52.044,bars,2023.2.3,Win32,60.0240096,657b66ea316d21385b68909f,,,,,,,,,,,992.795,993.793,,,994.294,994.544,,79,79,,,,,,,,,,,,,,,,bars/026.png,bars/mask002.png,,,,,,,,,,,,5,2,,,,,,,8,5,8,6,,,,,,,,,,,993.793,994.294,994.544,998.295,space,3.737,,998.295,44,6,999.295,999.295,999.301,,,,0,7,7,7,1,35,85,,,,,,,,
,,650aee824c25ddbb9bee2024,65af53f67219ae981f60fda5,2024-01-23_07h53.52.044,bars,2023.2.3,Win32,60.0240096,657b66ea316d21385b68909f,,,,,,,,,,,999.302,1000.296,,,1000.796,1001.046,,18,18,,,,,,,,,,,,,,,,bars/004.png,bars/mask002.png,,,,,,,,,,,,3,1,,,,,,,6,7,4,7,,,,,,,,,,,1000.296,1000.795,1001.046,1003.714,space,2.651,,1003.714,7,73,1004.714,1004.714,1004.721,,,,0,8,8,8,1,25,125,,,,,,,,
,,650aee824c25ddbb9bee2024,65af53f67219ae981f60fda5,2024-01-23_07h53.52.044,bars,2023.2.3,Win32,60.0240096,657b66ea316d21385b68909f,,,,,,,,,,,1004.722,1005.714,,,1006.214,1006.465,,84,84,,,,,,,,,,,,,,,,bars/004.png,bars/mask007.png,,,,,,,,,,,,0,2,,,,,,,4,9,4,9,,,,,,,,,,,1005.714,1006.214,1006.465,1007.23,space,0.751,,1007.231,59,41,1008.231,1008.231,1008.234,,,,0,9,9,9,1,25,125,,,,,,,,
,,650aee824c25ddbb9bee2024,65af53f67219ae981f60fda5,2024-01-23_07h53.52.044,bars,2023.2.3,Win32,60.0240096,657b66ea316d21385b68909f,,,,,,,,,,,1008.234,1009.232,,,1009.732,1009.982,,69,69,,,,,,,,,,,,,,,,bars/026.png,bars/mask001.png,,,,,,,,,,,,2,2,,,,,,,2,7,3,5,,,,,,,,,,,1009.232,1009.732,1009.982,1014.05,space,4.055,,1014.05,34,16,1015.05,1015.05,1015.054,,,,0,10,10,10,1,35,85,,,,,,,,
,,650aee824c25ddbb9bee2024,65af53f67219ae981f60fda5,2024-01-23_07h53.52.044,bars,2023.2.3,Win32,60.0240096,657b66ea316d21385b68909f,,,,,,,,,,,1015.054,1016.051,,,1016.551,1016.801,,144,144,,,,,,,,,,,,,,,,bars/049.png,bars/mask001.png,,,,,,,,,,,,0,1,,,,,,,0,5,0,6,,,,,,,,,,,1016.051,1016.551,1016.801,1017.451,space,0.632,,1017.451,16,29,1018.451,1018.451,1018.453,,,,0,11,11,11,1,160,115,,,,,,,,
,,650aee824c25ddbb9bee2024,65af53f67219ae981f60fda5,2024-01-23_07h53.52.044,bars,2023.2.3,Win32,60.0240096,657b66ea316d21385b68909f,,,,,,,,,,,1018.454,1019.451,,,1019.951,1020.201,,175,175,,,,,,,,,,,,,,,,bars/011.png,bars/mask007.png,,,,,,,,,,,,1,1,,,,,,,0,3,1,2,,,,,,,,,,,1019.451,1019.951,1020.201,1022.102,space,1.884,,1022.102,15,90,1023.103,1023.103,1023.104,,,,0,12,12,12,1,160,85,,,,,,,,
,,650aee824c25ddbb9bee2024,65af53f67219ae981f60fda5,2024-01-23_07h53.52.044,bars,2023.2.3,Win32,60.0240096,657b66ea316d21385b68909f,,,,,,,,,,,1023.105,1024.102,,,1024.603,1024.853,,69,69,,,,,,,,,,,,,,,,bars/002.png,bars/mask002.png,,,,,,,,,,,,0,2,,,,,,,0,1,0,1,,,,,,,,,,,1024.103,1024.603,1024.853,1026.721,space,1.851,,1026.721,61,16,1027.72,1027.72,1027.726,,,,0,13,13,13,1,130,85,,,,,,,,
,,650aee824c25ddbb9bee2024,65af53f67219ae981f60fda5,2024-01-23_07h53.52.044,bars,2023.2.3,Win32,60.0240096,657b66ea316d21385b68909f,,,,,,,,,,,1027.726,1028.721,,,1029.221,1029.471,,113,113,,,,,,,,,,,,,,,,bars/013.png,bars/mask003.png,,,,,,,,,,,,0,1,,,,,,,2,3,4,4,,,,,,,,,,,1028.721,1029.221,1029.471,1032.189,space,2.7,,1032.189,38,77,1033.189,1033.189,1033.195,,,,0,14,14,14,1,75,10,,,,,,,,
,,650aee824c25ddbb9bee2024,65af53f67219ae981f60fda5,2024-01-23_07h53.52.044,bars,2023.2.3,Win32,60.0240096,657b66ea316d21385b68909f,,,,,,,,,,,1033.195,1034.19,,,1034.689,1034.94,,139,139,,,,,,,,,,,,,,,,bars/045.png,bars/mask003.png,,,,,,,,,,,,0,1,,,,,,,4,5,4,5,,,,,,,,,,,1034.19,1034.689,1034.94,1038.607,space,3.652,,1038.607,39,51,1039.608,1039.608,1039.614,,,,0,15,15,15,1,100,10,,,,,,,,
,,650aee824c25ddbb9bee2024,65af53f67219ae981f60fda5,2024-01-23_07h53.52.044,bars,2023.2.3,Win32,60.0240096,657b66ea316d21385b68909f,,,,,,,,,,,1039.614,1040.608,,,1041.108,1041.357,,36,36,,,,,,,,,,,,,,,,bars/010.png,bars/mask001.png,,,,,,,,,,,,2,2,,,,,,,6,7,4,6,,,,,,,,,,,1040.608,1041.108,1041.357,1045.809,space,4.437,,1045.81,51,19,1046.81,1046.81,1046.815,,,,0,16,16,16,1,165,55,,,,,,,,
,,650aee824c25ddbb9bee2024,65af53f67219ae981f60fda5,2024-01-23_07h53.52.044,bars,2023.2.3,Win32,60.0240096,657b66ea316d21385b68909f,,,,,,,,,,,1046.816,1047.81,,,1048.309,1048.56,,72,72,,,,,,,,,,,,,,,,bars/021.png,bars/mask001.png,,,,,,,,,,,,5,2,,,,,,,4,5,5,5,,,,,,,,,,,1047.81,1048.309,1048.561,1052.845,space,4.269,,1052.845,83,2,1053.845,1053.845,1053.847,,,,0,17,17,17,1,155,70,,,,,,,,
,,650aee824c25ddbb9bee2024,65af53f67219ae981f60fda5,2024-01-23_07h53.52.044,bars,2023.2.3,Win32,60.0240096,657b66ea316d21385b68909f,,,,,,,,,,,1053.847,1054.845,,,1055.346,1055.596,,43,43,,,,,,,,,,,,,,,,bars/019.png,bars/mask009.png,,,,,,,,,,,,5,1,,,,,,,6,3,5,3,,,,,,,,,,,1054.845,1055.346,1055.596,1057.679,space,2.072,,1057.679,2,62,1058.68,1058.68,1058.685,,,,0,18,18,18,1,45,105,,,,,,,,
,,650aee824c25ddbb9bee2024,65af53f67219ae981f60fda5,2024-01-23_07h53.52.044,bars,2023.2.3,Win32,60.0240096,657b66ea316d21385b68909f,,,,,,,,,,,1058.685,1059.68,,,1060.18,1060.43,,159,159,,,,,,,,,,,,,,,,bars/008.png,bars/mask007.png,,,,,,,,,,,,0,2,,,,,,,4,1,5,0,,,,,,,,,,,1059.68,1060.18,1060.43,1065.832,space,5.385,,1065.832,49,21,1066.833,1066.833,1066.836,,,,0,19,19,19,1,110,0,,,,,,,,
,,650aee824c25ddbb9bee2024,65af53f67219ae981f60fda5,2024-01-23_07h53.52.044,bars,2023.2.3,Win32,60.0240096,657b66ea316d21385b68909f,,,,,,,,,,,1066.836,1067.833,,,1068.333,1068.583,,16,16,,,,,,,,,,,,,,,,bars/012.png,bars/mask005.png,,,,,,,,,,,,3,2,,,,,,,2,3,2,3,,,,,,,,,,,1067.833,1068.333,1068.583,1070.417,space,1.821,,1070.417,74,1,1071.417,1071.417,1071.422,,,,0,20,20,20,1,90,15,,,,,,,,
,,650aee824c25ddbb9bee2024,65af53f67219ae981f60fda5,2024-01-23_07h53.52.044,bars,2023.2.3,Win32,60.0240096,657b66ea316d21385b68909f,,,,,,,,,,,1071.422,1072.417,,,1072.917,1073.167,,11,191,,,,,,,,,,,,,,,,bars/039.png,bars/mask002.png,,,,,,,,,,,,2,1,,,,,,,4,5,4,4,,,,,,,,,,,1072.417,1072.917,1073.167,1075.206,space,2.029,,1075.206,16,86,1076.202,1076.202,1076.205,,,,0,21,21,21,1,175,105,,,,,,,,
,,650aee824c25ddbb9bee2024,65af53f67219ae981f60fda5,2024-01-23_07h53.52.044,bars,2023.2.3,Win32,60.0240096,657b66ea316d21385b68909f,,,,,,,,,,,1076.207,1077.202,,,1077.702,1077.952,,117,117,,,,,,,,,,,,,,,,bars/008.png,bars/mask007.png,,,,,,,,,,,,2,1,,,,,,,2,3,3,2,,,,,,,,,,,1077.202,1077.702,1077.952,1080.487,space,2.519,,1080.487,7,63,1081.486,1081.486,1081.489,,,,0,22,22,22,1,110,0,,,,,,,,
,,650aee824c25ddbb9bee2024,65af53f67219ae981f60fda5,2024-01-23_07h53.52.044,bars,2023.2.3,Win32,60.0240096,657b66ea316d21385b68909f,,,,,,,,,,,1081.489,1082.487,,,1082.987,1083.237,,68,68,,,,,,,,,,,,,,,,bars/013.png,bars/mask001.png,,,,,,,,,,,,1,1,,,,,,,0,1,1,0,,,,,,,,,,,1082.487,1082.987,1083.237,1084.087,space,0.833,,1084.087,7,58,1085.087,1085.087,1085.089,,,,0,23,23,23,1,75,10,,,,,,,,
,,650aee824c25ddbb9bee2024,65af53f67219ae981f60fda5,2024-01-23_07h53.52.044,bars,2023.2.3,Win32,60.0240096,657b66ea316d21385b68909f,,,,,,,,,,,1085.09,1086.088,,,1086.588,1086.838,,75,75,,,,,,,,,,,,,,,,bars/021.png,bars/mask002.png,,,,,,,,,,,,1,2,,,,,,,0,0,0,1,,,,,,,,,,,1086.088,1086.588,1086.838,1089.805,space,2.952,,1089.805,80,5,1090.807,1090.807,1090.81,,,,0,24,24,24,1,155,70,,,,,,,,
,,650aee824c25ddbb9bee2024,65af53f67219ae981f60fda5,2024-01-23_07h53.52.044,bars,2023.2.3,Win32,60.0240096,657b66ea316d21385b68909f,,,,,,,,,,,1090.811,1091.806,,,1092.306,1092.557,,35,35,,,,,,,,,,,,,,,,bars/022.png,bars/mask000.png,,,,,,,,,,,,1,2,,,,,,,0,0,0,1,,,,,,,,,,,1091.806,1092.306,1092.557,1097.408,space,4.84,,1097.408,60,15,1098.408,1098.408,1098.409,,,,0,25,25,25,1,95,20,,,,,,,,
,,650aee824c25ddbb9bee2024,65af53f67219ae981f60fda5,2024-01-23_07h53.52.044,bars,2023.2.3,Win32,60.0240096,657b66ea316d21385b68909f,,,,,,,,,,,1098.409,1099.408,,,1099.909,1100.159,,141,141,,,,,,,,,,,,,,,,bars/015.png,bars/mask003.png,,,,,,,,,,,,0,2,,,,,,,0,0,1,0,,,,,,,,,,,1099.408,1099.909,1100.159,1105.594,space,5.419,,1105.594,31,19,1106.594,1106.595,1106.598,,,,0,26,26,26,1,110,160,,,,,,,,
,,650aee824c25ddbb9bee2024,65af53f67219ae981f60fda5,2024-01-23_07h53.52.044,bars,2023.2.3,Win32,60.0240096,657b66ea316d21385b68909f,,,,,,,,,,,1106.599,1107.595,,,1108.094,1108.345,,146,146,,,,,,,,,,,,,,,,bars/003.png,bars/mask008.png,,,,,,,,,,,,2,2,,,,,,,0,2,1,2,,,,,,,,,,,1107.595,1108.094,1108.345,1110.695,space,2.336,,1110.695,59,6,1111.695,1111.695,1111.698,,,,0,27,27,27,1,25,140,,,,,,,,
,,650aee824c25ddbb9bee2024,65af53f67219ae981f60fda5,2024-01-23_07h53.52.044,bars,2023.2.3,Win32,60.0240096,657b66ea316d21385b68909f,,,,,,,,,,,1111.698,1112.696,,,1113.197,1113.446,,66,66,,,,,,,,,,,,,,,,bars/030.png,bars/mask002.png,,,,,,,,,,,,6,2,,,,,,,2,4,1,6,,,,,,,,,,,1112.696,1113.196,1113.446,1115.564,space,2.102,,1115.564,74,1,1116.564,1116.564,1116.565,,,,0,28,28,28,1,140,65,,,,,,,,
,,650aee824c25ddbb9bee2024,65af53f67219ae981f60fda5,2024-01-23_07h53.52.044,bars,2023.2.3,Win32,60.0240096,657b66ea316d21385b68909f,,,,,,,,,,,1116.566,1117.564,,,1118.064,1118.314,,158,158,,,,,,,,,,,,,,,,bars/039.png,bars/mask002.png,,,,,,,,,,,,0,1,,,,,,,0,2,0,2,,,,,,,,,,,1117.564,1118.064,1118.314,1122.916,space,4.586,,1122.916,17,53,1123.916,1123.916,1123.923,,,,0,29,29,29,1,175,105,,,,,,,,
,,650aee824c25ddbb9bee2024,65af53f67219ae981f60fda5,2024-01-23_07h53.52.044,bars,2023.2.3,Win32,60.0240096,657b66ea316d21385b68909f,,,,,,,,,,,1123.923,1124.916,,,1125.416,1125.666,,129,-51,,,,,,,,,,,,,,,,bars/000.png,bars/mask008.png,,,,,,,,,,,,3,2,,,,,,,0,4,1,6,,,,,,,,,,,1124.917,1125.416,1125.666,1130.691,space,5.013,,1130.691,89,16,1131.685,1131.685,1131.69,,,,0,30,30,30,1,40,145,,,,,,,,
,,650aee824c25ddbb9bee2024,65af53f67219ae981f60fda5,2024-01-23_07h53.52.044,bars,2023.2.3,Win32,60.0240096,657b66ea316d21385b68909f,,,,,,,,,,,1131.691,1132.685,,,1133.185,1133.435,,44,44,,,,,,,,,,,,,,,,bars/043.png,bars/mask005.png,,,,,,,,,,,,1,1,,,,,,,2,2,2,2,,,,,,,,,,,1132.685,1133.185,1133.436,1136.22,space,2.77,,1136.22,14,86,1137.221,1137.221,1137.226,,,,0,31,31,31,1,30,130,,,,,,,,
,,650aee824c25ddbb9bee2024,65af53f67219ae981f60fda5,2024-01-23_07h53.52.044,bars,2023.2.3,Win32,60.0240096,657b66ea316d21385b68909f,,,,,,,,,,,1137.226,1138.22,,,1138.72,1138.971,,157,-23,,,,,,,,,,,,,,,,bars/012.png,bars/mask007.png,,,,,,,,,,,,0,2,,,,,,,4,4,4,3,,,,,,,,,,,1138.22,1138.72,1138.971,1142.071,space,3.089,,1142.071,67,38,1143.071,1143.071,1143.078,,,,0,32,32,32,1,90,15,,,,,,,,
,,650aee824c25ddbb9bee2024,65af53f67219ae981f60fda5,2024-01-23_07h53.52.044,bars,2023.2.3,Win32,60.0240096,657b66ea316d21385b68909f,,,,,,,,,,,1143.079,1144.072,,,1144.572,1144.822,,111,291,,,,,,,,,,,,,,,,bars/034.png,bars/mask007.png,,,,,,,,,,,,3,1,,,,,,,6,6,6,5,,,,,,,,,,,1144.072,1144.572,1144.822,1150.707,space,5.869,,1150.708,14,46,1151.708,1151.708,1151.712,,,,0,33,33,33,1,125,65,,,,,,,,
,,650aee824c25ddbb9bee2024,65af53f67219ae981f60fda5,2024-01-23_07h53.52.044,bars,2023.2.3,Win32,60.0240096,657b66ea316d21385b68909f,,,,,,,,,,,1151.713,1152.708,,,1153.208,1153.458,,96,96,,,,,,,,,,,,,,,,bars/006.png,bars/mask009.png,,,,,,,,,,,,6,2,,,,,,,8,8,7,7,,,,,,,,,,,1152.708,1153.208,1153.458,1156.526,space,3.051,,1156.526,61,4,1157.526,1157.527,1157.53,,,,0,34,34,34,1,35,100,,,,,,,,
,,650aee824c25ddbb9bee2024,65af53f67219ae981f60fda5,2024-01-23_07h53.52.044,bars,2023.2.3,Win32,60.0240096,657b66ea316d21385b68909f,,,,,,,,,,,1157.531,1158.526,,,1159.026,1159.277,,24,24,,,,,,,,,,,,,,,,bars/025.png,bars/mask008.png,,,,,,,,,,,,5,2,,,,,,,6,10,6,10,,,,,,,,,,,1158.526,1159.026,1159.277,1162.378,space,3.084,,1162.378,81,16,1163.378,1163.378,1163.379,,,,0,35,35,35,1,105,40,,,,,,,,
,,650aee824c25ddbb9bee2024,65af53f67219ae981f60fda5,2024-01-23_07h53.52.044,bars,2023.2.3,Win32,60.0240096,657b66ea316d21385b68909f,,,,,,,,,,,1163.38,1164.378,,,1164.878,1165.128,,114,114,,,,,,,,,,,,,,,,bars/018.png,bars/mask006.png,,,,,,,,,,,,2,2,,,,,,,8,10,7,8,,,,,,,,,,,1164.378,1164.878,1165.128,1168.246,space,3.103,,1168.246,36,24,1169.247,1169.248,1169.253,,,,0,36,36,36,1,150,90,,,,,,,,
,,650aee824c25ddbb9bee2024,65af53f67219ae981f60fda5,2024-01-23_07h53.52.044,bars,2023.2.3,Win32,60.0240096,657b66ea316d21385b68909f,,,,,,,,,,,1169.254,1170.247,,,1170.747,1170.997,,88,88,,,,,,,,,,,,,,,,bars/028.png,bars/mask008.png,,,,,,,,,,,,0,2,,,,,,,6,10,6,10,,,,,,,,,,,1170.247,1170.747,1170.997,1173.614,space,2.601,,1173.615,43,32,1174.614,1174.614,1174.619,,,,0,37,37,37,1,45,120,,,,,,,,
,,650aee824c25ddbb9bee2024,65af53f67219ae981f60fda5,2024-01-23_07h53.52.044,bars,2023.2.3,Win32,60.0240096,657b66ea316d21385b68909f,,,,,,,,,,,1174.619,1175.615,,,1176.114,1176.365,,30,30,,,,,,,,,,,,,,,,bars/004.png,bars/mask001.png,,,,,,,,,,,,6,1,,,,,,,8,10,7,10,,,,,,,,,,,1175.615,1176.114,1176.366,1177.983,space,1.6,,1177.983,5,85,1178.983,1178.983,1178.989,,,,0,38,38,38,1,25,125,,,,,,,,
,,650aee824c25ddbb9bee2024,65af53f67219ae981f60fda5,2024-01-23_07h53.52.044,bars,2023.2.3,Win32,60.0240096,657b66ea316d21385b68909f,,,,,,,,,,,1178.989,1179.983,,,1180.482,1180.733,,126,126,,,,,,,,,,,,,,,,bars/020.png,bars/mask004.png,,,,,,,,,,,,4,1,,,,,,,6,10,6,10,,,,,,,,,,,1179.983,1180.482,1180.733,1184.268,space,3.518,,1184.268,11,44,1185.268,1185.268,1185.27,,,,0,39,39,39,1,115,170,,,,,,,,
,,650aee824c25ddbb9bee2024,65af53f67219ae981f60fda5,2024-01-23_07h53.52.044,bars,2023.2.3,Win32,60.0240096,657b66ea316d21385b68909f,,,,,,,,,,,1185.271,1186.268,,,1186.768,1187.018,,72,72,,,,,,,,,,,,,,,,bars/002.png,bars/mask009.png,,,,,,,,,,,,6,2,,,,,,,8,10,9,10,,,,,,,,,,,1186.268,1186.768,1187.018,1189.636,space,2.603,,1189.636,58,13,1190.636,1190.636,1190.64,,,,0,40,40,40,1,130,85,,,,,,,,
,,650aee824c25ddbb9bee2024,65af53f67219ae981f60fda5,2024-01-23_07h53.52.044,bars,2023.2.3,Win32,60.0240096,657b66ea316d21385b68909f,,,,,,,,,,,1190.641,1191.636,,,1192.136,1192.387,,160,160,,,,,,,,,,,,,,,,bars/040.png,bars/mask009.png,,,,,,,,,,,,2,1,,,,,,,6,8,5,7,,,,,,,,,,,1191.636,1192.136,1192.387,1195.204,space,2.801,,1195.204,20,25,1196.205,1196.205,1196.211,,,,0,41,41,41,1,140,5,,,,,,,,
,,650aee824c25ddbb9bee2024,65af53f67219ae981f60fda5,2024-01-23_07h53.52.044,bars,2023.2.3,Win32,60.0240096,657b66ea316d21385b68909f,,,,,,,,,,,1196.211,1197.204,,,1197.705,1197.955,,160,160,,,,,,,,,,,,,,,,bars/003.png,bars/mask007.png,,,,,,,,,,,,3,2,,,,,,,8,10,9,8,,,,,,,,,,,1197.204,1197.705,1197.955,1200.788,space,2.816,,1200.788,45,20,1201.789,1201.789,1201.792,,,,0,42,42,42,1,25,140,,,,,,,,
,,650aee824c25ddbb9bee2024,65af53f67219ae981f60fda5,2024-01-23_07h53.52.044,bars,2023.2.3,Win32,60.0240096,657b66ea316d21385b68909f,,,,,,,,,,,1201.793,1202.791,,,1203.29,1203.539,,66,66,,,,,,,,,,,,,,,,bars/038.png,bars/mask000.png,,,,,,,,,,,,7,2,,,,,,,10,8,8,8,,,,,,,,,,,1202.791,1203.29,1203.539,1205.873,space,2.32,,1205.873,81,4,1206.874,1206.874,1206.876,,,,0,43,43,43,1,165,70,,,,,,,,
,,650aee824c25ddbb9bee2024,65af53f67219ae981f60fda5,2024-01-23_07h53.52.044,bars,2023.2.3,Win32,60.0240096,657b66ea316d21385b68909f,,,,,,,,,,,1206.876,1207.874,,,1208.375,1208.625,,151,-29,,,,,,,,,,,,,,,,bars/044.png,bars/mask001.png,,,,,,,,,,,,7,2,,,,,,,10,6,9,8,,,,,,,,,,,1207.874,1208.375,1208.625,1211.609,space,2.972,,1211.609,76,4,1212.609,1212.609,1212.611,,,,0,44,44,44,1,75,155,,,,,,,,
,,650aee824c25ddbb9bee2024,65af53f67219ae981f60fda5,2024-01-23_07h53.52.044,bars,2023.2.3,Win32,60.0240096,657b66ea316d21385b68909f,,,,,,,,,,,1212.611,1213.61,,,1214.109,1214.36,,170,-10,,,,,,,,,,,,,,,,bars/048.png,bars/mask000.png,,,,,,,,,,,,6,2,,,,,,,10,4,10,7,,,,,,,,,,,1213.61,1214.109,1214.36,1217.177,space,2.804,,1217.177,60,5,1218.178,1218.178,1218.18,,,,0,45,45,45,1,50,175,,,,,,,,
,,650aee824c25ddbb9bee2024,65af53f67219ae981f60fda5,2024-01-23_07h53.52.044,bars,2023.2.3,Win32,60.0240096,657b66ea316d21385b68909f,,,,,,,,,,,1218.181,1219.178,,,1219.678,1219.928,,125,125,,,,,,,,,,,,,,,,bars/049.png,bars/mask000.png,,,,,,,,,,,,1,2,,,,,,,8,2,9,1,,,,,,,,,,,1219.178,1219.678,1219.928,1222.645,space,2.7,,1222.645,35,10,1223.646,1223.646,1223.648,,,,0,46,46,46,1,160,115,,,,,,,,
,,650aee824c25ddbb9bee2024,65af53f67219ae981f60fda5,2024-01-23_07h53.52.044,bars,2023.2.3,Win32,60.0240096,657b66ea316d21385b68909f,,,,,,,,,,,1223.649,1224.646,,,1225.146,1225.397,,177,-3,,,,,,,,,,,,,,,,bars/039.png,bars/mask008.png,,,,,,,,,,,,7,1,,,,,,,6,4,7,5,,,,,,,,,,,1224.646,1225.146,1225.397,1227.647,space,2.235,,1227.647,2,72,1228.647,1228.647,1228.652,,,,0,47,47,47,1,175,105,,,,,,,,
,,650aee824c25ddbb9bee2024,65af53f67219ae981f60fda5,2024-01-23_07h53.52.044,bars,2023.2.3,Win32,60.0240096,657b66ea316d21385b68909f,,,,,,,,,,,1228.652,1229.648,,,1230.147,1230.397,,58,58,,,,,,,,,,,,,,,,bars/048.png,bars/mask006.png,,,,,,,,,,,,1,1,,,,,,,4,2,1,2,,,,,,,,,,,1229.648,1230.147,1230.397,1232.748,space,2.334,,1232.748,8,63,1233.748,1233.748,1233.75,,,,0,48,48,48,1,50,175,,,,,,,,
,,650aee824c25ddbb9bee2024,65af53f67219ae981f60fda5,2024-01-23_07h53.52.044,bars,2023.2.3,Win32,60.0240096,657b66ea316d21385b68909f,,,,,,,,,,,1233.751,1234.749,,,1235.25,1235.507,,58,58,,,,,,,,,,,,,,,,bars/046.png,bars/mask000.png,,,,,,,,,,,,0,2,,,,,,,6,0,5,0,,,,,,,,,,,1234.749,1235.25,1235.507,1238.134,space,2.614,,1238.134,83,27,1239.134,1239.134,1239.142,,,,0,49,49,49,1,155,85,,,,,,,,
,,650aee824c25ddbb9bee2024,65af53f67219ae981f60fda5,2024-01-23_07h53.52.044,bars,2023.2.3,Win32,60.0240096,657b66ea316d21385b68909f,,,,,,,,,,,,,,,,,,,,,,,,,,,,,,,,,,,,,,,,,,,,,,,,,,,,,,,,,,,,,,,,,,,,,,,,,,,,,,,,,,,,,,,,,,,,,1239.142,1299.135,0,2,2,2,1,sequence_tables/blk021.csv
,,650aee824c25ddbb9bee2024,65af53f67219ae981f60fda5,2024-01-23_07h53.52.044,bars,2023.2.3,Win32,60.0240096,657b66ea316d21385b68909f,,,,,,,,,,,1315.117,1316.107,,,1316.607,1316.857,,75,75,,,,,,,,,,,,,,,,bars/038.png,bars/mask000.png,,,,,,,,,,,,5,2,,,,,,,2,7,0,6,,,,,,1299.138,1315.107,space,15.955,,1316.107,1316.607,1316.857,1319.824,space,2.951,,1319.824,90,5,1320.825,1320.825,1320.827,,,,0,0,0,0,1,165,70,,,,,,,,
,,650aee824c25ddbb9bee2024,65af53f67219ae981f60fda5,2024-01-23_07h53.52.044,bars,2023.2.3,Win32,60.0240096,657b66ea316d21385b68909f,,,,,,,,,,,1320.827,1321.825,,,1322.326,1322.576,,134,134,,,,,,,,,,,,,,,,bars/049.png,bars/mask005.png,,,,,,,,,,,,4,2,,,,,,,0,9,1,10,,,,,,,,,,,1321.825,1322.326,1322.576,1324.509,space,1.917,,1324.509,26,19,1325.51,1325.51,1325.511,,,,0,1,1,1,1,160,115,,,,,,,,
,,650aee824c25ddbb9bee2024,65af53f67219ae981f60fda5,2024-01-23_07h53.52.044,bars,2023.2.3,Win32,60.0240096,657b66ea316d21385b68909f,,,,,,,,,,,1325.512,1326.51,,,1327.01,1327.26,,6,6,,,,,,,,,,,,,,,,bars/026.png,bars/mask009.png,,,,,,,,,,,,0,1,,,,,,,0,7,1,7,,,,,,,,,,,1326.51,1327.01,1327.26,1328.911,space,1.634,,1328.911,29,79,1329.91,1329.91,1329.913,,,,0,2,2,2,1,35,85,,,,,,,,
,,650aee824c25ddbb9bee2024,65af53f67219ae981f60fda5,2024-01-23_07h53.52.044,bars,2023.2.3,Win32,60.0240096,657b66ea316d21385b68909f,,,,,,,,,,,1329.915,1330.912,,,1331.412,1331.662,,121,121,,,,,,,,,,,,,,,,bars/041.png,bars/mask009.png,,,,,,,,,,,,0,2,,,,,,,2,9,1,9,,,,,,,,,,,1330.912,1331.412,1331.662,1334.579,space,2.902,,1334.579,79,36,1335.579,1335.579,1335.583,,,,0,3,3,3,1,20,85,,,,,,,,
,,650aee824c25ddbb9bee2024,65af53f67219ae981f60fda5,2024-01-23_07h53.52.044,bars,2023.2.3,Win32,60.0240096,657b66ea316d21385b68909f,,,,,,,,,,,1335.584,1336.581,,,1337.08,1337.33,,159,-21,,,,,,,,,,,,,,,,bars/024.png,bars/mask000.png,,,,,,,,,,,,6,2,,,,,,,4,10,4,10,,,,,,,,,,,1336.581,1337.08,1337.33,1341.264,space,3.921,,1341.264,39,11,1342.265,1342.265,1342.267,,,,0,4,4,4,1,120,170,,,,,,,,
,,650aee824c25ddbb9bee2024,65af53f67219ae981f60fda5,2024-01-23_07h53.52.044,bars,2023.2.3,Win32,60.0240096,657b66ea316d21385b68909f,,,,,,,,,,,1342.267,1343.265,,,1343.765,1344.016,,103,103,,,,,,,,,,,,,,,,bars/028.png,bars/mask003.png,,,,,,,,,,,,4,2,,,,,,,2,10,0,10,,,,,,,,,,,1343.265,1343.765,1344.016,1346.315,space,2.285,,1346.315,58,17,1347.316,1347.316,1347.318,,,,0,5,5,5,1,45,120,,,,,,,,
,,650aee824c25ddbb9bee2024,65af53f67219ae981f60fda5,2024-01-23_07h53.52.044,bars,2023.2.3,Win32,60.0240096,657b66ea316d21385b68909f,,,,,,,,,,,1347.318,1348.316,,,1348.817,1349.067,,40,40,,,,,,,,,,,,,,,,bars/035.png,bars/mask007.png,,,,,,,,,,,,3,2,,,,,,,4,10,5,9,,,,,,,,,,,1348.316,1348.817,1349.067,1352.734,space,3.654,,1352.734,45,20,1353.735,1353.735,1353.736,,,,0,6,6,6,1,175,60,,,,,,,,
,,650aee824c25ddbb9bee2024,65af53f67219ae981f60fda5,2024-01-23_07h53.52.044,bars,2023.2.3,Win32,60.0240096,657b66ea316d21385b68909f,,,,,,,,,,,1353.736,1354.735,,,1355.235,1355.486,,82,82,,,,,,,,,,,,,,,,bars/038.png,bars/mask006.png,,,,,,,,,,,,5,2,,,,,,,2,8,2,8,,,,,,,,,,,1354.735,1355.235,1355.486,1358.502,space,3.007,,1358.503,83,12,1359.503,1359.503,1359.504,,,,0,7,7,7,1,165,70,,,,,,,,
,,650aee824c25ddbb9bee2024,65af53f67219ae981f60fda5,2024-01-23_07h53.52.044,bars,2023.2.3,Win32,60.0240096,657b66ea316d21385b68909f,,,,,,,,,,,1359.505,1360.503,,,1361.003,1361.254,,53,53,,,,,,,,,,,,,,,,bars/029.png,bars/mask009.png,,,,,,,,,,,,7,2,,,,,,,0,10,0,10,,,,,,,,,,,1360.504,1361.003,1361.254,1365.722,space,4.455,,1365.722,37,8,1366.723,1366.723,1366.725,,,,0,8,8,8,1,90,45,,,,,,,,
,,650aee824c25ddbb9bee2024,65af53f67219ae981f60fda5,2024-01-23_07h53.52.044,bars,2023.2.3,Win32,60.0240096,657b66ea316d21385b68909f,,,,,,,,,,,1366.727,1367.722,,,1368.223,1368.472,,179,-1,,,,,,,,,,,,,,,,bars/016.png,bars/mask005.png,,,,,,,,,,,,4,2,,,,,,,2,8,2,8,,,,,,,,,,,1367.722,1368.223,1368.472,1372.491,space,4.002,,1372.491,41,14,1373.49,1373.491,1373.494,,,,0,9,9,9,1,40,165,,,,,,,,
,,650aee824c25ddbb9bee2024,65af53f67219ae981f60fda5,2024-01-23_07h53.52.044,bars,2023.2.3,Win32,60.0240096,657b66ea316d21385b68909f,,,,,,,,,,,1373.494,1374.49,,,1374.991,1375.241,,19,199,,,,,,,,,,,,,,,,bars/035.png,bars/mask003.png,,,,,,,,,,,,0,1,,,,,,,0,10,0,10,,,,,,,,,,,1374.49,1374.991,1375.241,1378.81,space,3.552,,1378.81,24,41,1379.809,1379.809,1379.815,,,,0,10,10,10,1,175,60,,,,,,,,
,,650aee824c25ddbb9bee2024,65af53f67219ae981f60fda5,2024-01-23_07h53.52.044,bars,2023.2.3,Win32,60.0240096,657b66ea316d21385b68909f,,,,,,,,,,,1379.816,1380.809,,,1381.31,1381.56,,113,113,,,,,,,,,,,,,,,,bars/006.png,bars/mask002.png,,,,,,,,,,,,5,2,,,,,,,0,8,1,8,,,,,,,,,,,1380.81,1381.31,1381.56,1384.178,space,2.601,,1384.178,78,13,1385.178,1385.178,1385.184,,,,0,11,11,11,1,35,100,,,,,,,,
,,650aee824c25ddbb9bee2024,65af53f67219ae981f60fda5,2024-01-23_07h53.52.044,bars,2023.2.3,Win32,60.0240096,657b66ea316d21385b68909f,,,,,,,,,,,1385.185,1386.178,,,1386.678,1386.928,,36,36,,,,,,,,,,,,,,,,bars/010.png,bars/mask001.png,,,,,,,,,,,,2,2,,,,,,,0,6,1,5,,,,,,,,,,,1386.178,1386.678,1386.928,1392.83,space,5.887,,1392.831,51,19,1393.83,1393.83,1393.832,,,,0,12,12,12,1,165,55,,,,,,,,
,,650aee824c25ddbb9bee2024,65af53f67219ae981f60fda5,2024-01-23_07h53.52.044,bars,2023.2.3,Win32,60.0240096,657b66ea316d21385b68909f,,,,,,,,,,,1393.832,1394.83,,,1395.331,1395.581,,116,-64,,,,,,,,,,,,,,,,bars/009.png,bars/mask005.png,,,,,,,,,,,,1,2,,,,,,,2,4,3,2,,,,,,,,,,,1394.83,1395.331,1395.581,1399.032,space,3.439,,1399.032,79,11,1400.032,1400.032,1400.034,,,,0,13,13,13,1,15,105,,,,,,,,
,,650aee824c25ddbb9bee2024,65af53f67219ae981f60fda5,2024-01-23_07h53.52.044,bars,2023.2.3,Win32,60.0240096,657b66ea316d21385b68909f,,,,,,,,,,,1400.034,1401.033,,,1401.532,1401.783,,76,76,,,,,,,,,,,,,,,,bars/026.png,bars/mask000.png,,,,,,,,,,,,1,2,,,,,,,0,2,0,1,,,,,,,,,,,1401.033,1401.532,1401.783,1406.268,space,4.469,,1406.269,41,9,1407.267,1407.267,1407.274,,,,0,14,14,14,1,35,85,,,,,,,,
,,650aee824c25ddbb9bee2024,65af53f67219ae981f60fda5,2024-01-23_07h53.52.044,bars,2023.2.3,Win32,60.0240096,657b66ea316d21385b68909f,,,,,,,,,,,1407.274,1408.268,,,1408.768,1409.018,,155,155,,,,,,,,,,,,,,,,bars/016.png,bars/mask006.png,,,,,,,,,,,,1,2,,,,,,,2,0,2,1,,,,,,,,,,,1408.268,1408.768,1409.018,1413.019,space,3.986,,1413.019,65,10,1414.019,1414.019,1414.021,,,,0,15,15,15,1,40,165,,,,,,,,
,,650aee824c25ddbb9bee2024,65af53f67219ae981f60fda5,2024-01-23_07h53.52.044,bars,2023.2.3,Win32,60.0240096,657b66ea316d21385b68909f,,,,,,,,,,,1414.022,1415.02,,,1415.521,1415.77,,102,102,,,,,,,,,,,,,,,,bars/003.png,bars/mask001.png,,,,,,,,,,,,0,2,,,,,,,0,2,0,3,,,,,,,,,,,1415.02,1415.52,1415.77,1416.82,space,1.033,,1416.821,77,38,1417.82,1417.82,1417.821,,,,0,16,16,16,1,25,140,,,,,,,,
,,650aee824c25ddbb9bee2024,65af53f67219ae981f60fda5,2024-01-23_07h53.52.044,bars,2023.2.3,Win32,60.0240096,657b66ea316d21385b68909f,,,,,,,,,,,1417.822,1418.821,,,1419.321,1419.571,,40,40,,,,,,,,,,,,,,,,bars/026.png,bars/mask003.png,,,,,,,,,,,,2,1,,,,,,,2,0,2,0,,,,,,,,,,,1418.821,1419.321,1419.571,1420.521,space,0.936,,1420.521,5,45,1421.522,1421.522,1421.526,,,,0,17,17,17,1,35,85,,,,,,,,
,,650aee824c25ddbb9bee2024,65af53f67219ae981f60fda5,2024-01-23_07h53.52.044,bars,2023.2.3,Win32,60.0240096,657b66ea316d21385b68909f,,,,,,,,,,,1421.527,1422.522,,,1423.022,1423.272,,157,-23,,,,,,,,,,,,,,,,bars/044.png,bars/mask001.png,,,,,,,,,,,,1,2,,,,,,,4,2,5,1,,,,,,,,,,,1422.522,1423.022,1423.272,1426.99,space,3.7,,1426.99,82,2,1427.991,1427.991,1427.994,,,,0,18,18,18,1,75,155,,,,,,,,
,,650aee824c25ddbb9bee2024,65af53f67219ae981f60fda5,2024-01-23_07h53.52.044,bars,2023.2.3,Win32,60.0240096,657b66ea316d21385b68909f,,,,,,,,,,,1427.995,1428.99,,,1429.491,1429.74,,67,67,,,,,,,,,,,,,,,,bars/017.png,bars/mask002.png,,,,,,,,,,,,1,2,,,,,,,2,4,3,5,,,,,,,,,,,1428.99,1429.491,1429.74,1433.058,space,3.302,,1433.058,78,22,1434.059,1434.059,1434.061,,,,0,19,19,19,1,145,45,,,,,,,,
,,650aee824c25ddbb9bee2024,65af53f67219ae981f60fda5,2024-01-23_07h53.52.044,bars,2023.2.3,Win32,60.0240096,657b66ea316d21385b68909f,,,,,,,,,,,1434.062,1435.059,,,1435.559,1435.809,,135,135,,,,,,,,,,,,,,,,bars/037.png,bars/mask009.png,,,,,,,,,,,,2,1,,,,,,,4,6,4,8,,,,,,,,,,,1435.059,1435.559,1435.809,1439.511,space,3.685,,1439.511,15,30,1440.511,1440.511,1440.519,,,,0,20,20,20,1,150,105,,,,,,,,
,,650aee824c25ddbb9bee2024,65af53f67219ae981f60fda5,2024-01-23_07h53.52.044,bars,2023.2.3,Win32,60.0240096,657b66ea316d21385b68909f,,,,,,,,,,,1440.519,1441.511,,,1442.011,1442.261,,22,202,,,,,,,,,,,,,,,,bars/032.png,bars/mask009.png,,,,,,,,,,,,4,2,,,,,,,2,4,3,4,,,,,,,,,,,1441.511,1442.011,1442.261,1445.729,space,3.456,,1445.729,77,2,1446.729,1446.729,1446.735,,,,0,21,21,21,1,125,20,,,,,,,,
,,650aee824c25ddbb9bee2024,65af53f67219ae981f60fda5,2024-01-23_07h53.52.044,bars,2023.2.3,Win32,60.0240096,657b66ea316d21385b68909f,,,,,,,,,,,1446.735,1447.729,,,1448.23,1448.48,,30,30,,,,,,,,,,,,,,,,bars/025.png,bars/mask002.png,,,,,,,,,,,,1,2,,,,,,,4,2,3,2,,,,,,,,,,,1447.729,1448.23,1448.48,1452.098,space,3.604,,1452.098,75,10,1453.099,1453.099,1453.101,,,,0,22,22,22,1,105,40,,,,,,,,
,,650aee824c25ddbb9bee2024,65af53f67219ae981f60fda5,2024-01-23_07h53.52.044,bars,2023.2.3,Win32,60.0240096,657b66ea316d21385b68909f,,,,,,,,,,,1453.101,1454.098,,,1454.599,1454.848,,63,63,,,,,,,,,,,,,,,,bars/030.png,bars/mask003.png,,,,,,,,,,,,3,2,,,,,,,2,4,1,3,,,,,,,,,,,1454.098,1454.598,1454.848,1456.6,space,1.734,,1456.6,77,2,1457.599,1457.599,1457.601,,,,0,23,23,23,1,140,65,,,,,,,,
,,650aee824c25ddbb9bee2024,65af53f67219ae981f60fda5,2024-01-23_07h53.52.044,bars,2023.2.3,Win32,60.0240096,657b66ea316d21385b68909f,,,,,,,,,,,1457.602,1458.599,,,1459.1,1459.35,,153,-27,,,,,,,,,,,,,,,,bars/016.png,bars/mask003.png,,,,,,,,,,,,2,2,,,,,,,0,2,0,3,,,,,,,,,,,1458.599,1459.1,1459.35,1462.051,space,2.685,,1462.051,67,12,1463.051,1463.051,1463.052,,,,0,24,24,24,1,40,165,,,,,,,,
,,650aee824c25ddbb9bee2024,65af53f67219ae981f60fda5,2024-01-23_07h53.52.044,bars,2023.2.3,Win32,60.0240096,657b66ea316d21385b68909f,,,,,,,,,,,1463.053,1464.052,,,1464.551,1464.806,,68,68,,,,,,,,,,,,,,,,bars/029.png,bars/mask003.png,,,,,,,,,,,,1,1,,,,,,,2,0,4,0,,,,,,,,,,,1464.052,1464.551,1464.806,1466.385,space,1.569,,1466.385,22,23,1467.385,1467.385,1467.389,,,,0,25,25,25,1,90,45,,,,,,,,
,,650aee824c25ddbb9bee2024,65af53f67219ae981f60fda5,2024-01-23_07h53.52.044,bars,2023.2.3,Win32,60.0240096,657b66ea316d21385b68909f,,,,,,,,,,,1467.389,1468.386,,,1468.886,1469.136,,84,264,,,,,,,,,,,,,,,,bars/021.png,bars/mask009.png,,,,,,,,,,,,1,2,,,,,,,0,0,1,1,,,,,,,,,,,1468.386,1468.886,1469.136,1473.205,space,4.051,,1473.205,71,14,1474.204,1474.204,1474.21,,,,0,26,26,26,1,155,70,,,,,,,,
,,650aee824c25ddbb9bee2024,65af53f67219ae981f60fda5,2024-01-23_07h53.52.044,bars,2023.2.3,Win32,60.0240096,657b66ea316d21385b68909f,,,,,,,,,,,1474.21,1475.204,,,1475.704,1475.955,,118,118,,,,,,,,,,,,,,,,bars/009.png,bars/mask002.png,,,,,,,,,,,,0,2,,,,,,,2,0,3,0,,,,,,,,,,,1475.205,1475.704,1475.955,1480.489,space,4.523,,1480.49,77,13,1481.49,1481.49,1481.492,,,,0,27,27,27,1,15,105,,,,,,,,
,,650aee824c25ddbb9bee2024,65af53f67219ae981f60fda5,2024-01-23_07h53.52.044,bars,2023.2.3,Win32,60.0240096,657b66ea316d21385b68909f,,,,,,,,,,,1481.493,1482.493,,,1482.99,1483.24,,174,174,,,,,,,,,,,,,,,,bars/003.png,bars/mask004.png,,,,,,,,,,,,0,1,,,,,,,0,2,0,2,,,,,,,,,,,1482.493,1482.99,1483.241,1484.941,space,1.683,,1484.941,31,34,1485.94,1485.941,1485.947,,,,0,28,28,28,1,25,140,,,,,,,,
,,650aee824c25ddbb9bee2024,65af53f67219ae981f60fda5,2024-01-23_07h53.52.044,bars,2023.2.3,Win32,60.0240096,657b66ea316d21385b68909f,,,,,,,,,,,1485.947,1486.942,,,1487.441,1487.691,,145,145,,,,,,,,,,,,,,,,bars/007.png,bars/mask003.png,,,,,,,,,,,,0,1,,,,,,,0,0,0,0,,,,,,,,,,,1486.942,1487.441,1487.691,1489.876,space,2.168,,1489.876,30,90,1490.875,1490.875,1490.877,,,,0,29,29,29,1,175,55,,,,,,,,
,,650aee824c25ddbb9bee2024,65af53f67219ae981f60fda5,2024-01-23_07h53.52.044,bars,2023.2.3,Win32,60.0240096,657b66ea316d21385b68909f,,,,,,,,,,,1490.878,1491.877,,,1492.376,1492.626,,34,214,,,,,,,,,,,,,,,,bars/036.png,bars/mask009.png,,,,,,,,,,,,0,2,,,,,,,0,0,1,0,,,,,,,,,,,1491.877,1492.376,1492.626,1495.628,space,2.984,,1495.628,69,14,1496.628,1496.628,1496.632,,,,0,30,30,30,1,145,20,,,,,,,,
,,650aee824c25ddbb9bee2024,65af53f67219ae981f60fda5,2024-01-23_07h53.52.044,bars,2023.2.3,Win32,60.0240096,657b66ea316d21385b68909f,,,,,,,,,,,1496.632,1497.628,,,1498.128,1498.378,,132,-48,,,,,,,,,,,,,,,,bars/018.png,bars/mask004.png,,,,,,,,,,,,1,1,,,,,,,2,0,2,2,,,,,,,,,,,1497.628,1498.128,1498.378,1503.129,space,4.734,,1503.129,18,42,1504.13,1504.131,1504.136,,,,0,31,31,31,1,150,90,,,,,,,,
,,650aee824c25ddbb9bee2024,65af53f67219ae981f60fda5,2024-01-23_07h53.52.044,bars,2023.2.3,Win32,60.0240096,657b66ea316d21385b68909f,,,,,,,,,,,1504.137,1505.13,,,1505.63,1505.88,,17,197,,,,,,,,,,,,,,,,bars/033.png,bars/mask000.png,,,,,,,,,,,,3,1,,,,,,,4,2,4,1,,,,,,,,,,,1505.13,1505.63,1505.88,1508.581,space,2.685,,1508.582,8,42,1509.581,1509.581,1509.586,,,,0,32,32,32,1,25,155,,,,,,,,
,,650aee824c25ddbb9bee2024,65af53f67219ae981f60fda5,2024-01-23_07h53.52.044,bars,2023.2.3,Win32,60.0240096,657b66ea316d21385b68909f,,,,,,,,,,,1509.587,1510.582,,,1511.082,1511.332,,39,219,,,,,,,,,,,,,,,,bars/035.png,bars/mask003.png,,,,,,,,,,,,1,2,,,,,,,6,4,7,4,,,,,,,,,,,1510.582,1511.082,1511.332,1515.934,space,4.584,,1515.934,44,21,1516.934,1516.934,1516.942,,,,0,33,33,33,1,175,60,,,,,,,,
,,650aee824c25ddbb9bee2024,65af53f67219ae981f60fda5,2024-01-23_07h53.52.044,bars,2023.2.3,Win32,60.0240096,657b66ea316d21385b68909f,,,,,,,,,,,1516.943,1517.934,,,1518.435,1518.685,,102,102,,,,,,,,,,,,,,,,bars/043.png,bars/mask000.png,,,,,,,,,,,,0,2,,,,,,,8,2,8,2,,,,,,,,,,,1517.934,1518.435,1518.685,1520.068,space,1.367,,1520.068,72,28,1521.069,1521.069,1521.07,,,,0,34,34,34,1,30,130,,,,,,,,
,,650aee824c25ddbb9bee2024,65af53f67219ae981f60fda5,2024-01-23_07h53.52.044,bars,2023.2.3,Win32,60.0240096,657b66ea316d21385b68909f,,,,,,,,,,,1521.071,1522.069,,,1522.569,1522.819,,126,126,,,,,,,,,,,,,,,,bars/028.png,bars/mask001.png,,,,,,,,,,,,0,2,,,,,,,10,0,10,0,,,,,,,,,,,1522.069,1522.569,1522.819,1524.036,space,1.202,,1524.036,81,6,1525.037,1525.037,1525.038,,,,0,35,35,35,1,45,120,,,,,,,,
,,650aee824c25ddbb9bee2024,65af53f67219ae981f60fda5,2024-01-23_07h53.52.044,bars,2023.2.3,Win32,60.0240096,657b66ea316d21385b68909f,,,,,,,,,,,1525.039,1526.037,,,1526.537,1526.787,,73,73,,,,,,,,,,,,,,,,bars/047.png,bars/mask005.png,,,,,,,,,,,,0,2,,,,,,,8,0,9,0,,,,,,,,,,,1526.037,1526.537,1526.787,1528.12,space,1.317,,1528.12,58,3,1529.121,1529.121,1529.123,,,,0,36,36,36,1,15,70,,,,,,,,
,,650aee824c25ddbb9bee2024,65af53f67219ae981f60fda5,2024-01-23_07h53.52.044,bars,2023.2.3,Win32,60.0240096,657b66ea316d21385b68909f,,,,,,,,,,,1529.124,1530.12,,,1530.621,1530.872,,84,84,,,,,,,,,,,,,,,,bars/017.png,bars/mask001.png,,,,,,,,,,,,0,2,,,,,,,10,2,9,3,,,,,,,,,,,1530.12,1530.621,1530.872,1532.021,space,1.134,,1532.021,61,39,1533.022,1533.022,1533.023,,,,0,37,37,37,1,145,45,,,,,,,,
,,650aee824c25ddbb9bee2024,65af53f67219ae981f60fda5,2024-01-23_07h53.52.044,bars,2023.2.3,Win32,60.0240096,657b66ea316d21385b68909f,,,,,,,,,,,1533.023,1534.022,,,1534.523,1534.773,,156,156,,,,,,,,,,,,,,,,bars/002.png,bars/mask003.png,,,,,,,,,,,,1,1,,,,,,,8,0,9,0,,,,,,,,,,,1534.022,1534.523,1534.773,1535.739,space,0.951,,1535.739,26,71,1536.74,1536.74,1536.743,,,,0,38,38,38,1,130,85,,,,,,,,
,,650aee824c25ddbb9bee2024,65af53f67219ae981f60fda5,2024-01-23_07h53.52.044,bars,2023.2.3,Win32,60.0240096,657b66ea316d21385b68909f,,,,,,,,,,,1536.743,1537.739,,,1538.241,1538.49,,38,38,,,,,,,,,,,,,,,,bars/042.png,bars/mask006.png,,,,,,,,,,,,0,2,,,,,,,10,0,10,0,,,,,,,,,,,1537.74,1538.24,1538.491,1539.09,space,0.587,,1539.09,73,37,1540.091,1540.091,1540.096,,,,0,39,39,39,1,145,75,,,,,,,,
,,650aee824c25ddbb9bee2024,65af53f67219ae981f60fda5,2024-01-23_07h53.52.044,bars,2023.2.3,Win32,60.0240096,657b66ea316d21385b68909f,,,,,,,,,,,1540.097,1541.091,,,1541.591,1541.841,,48,48,,,,,,,,,,,,,,,,bars/015.png,bars/mask005.png,,,,,,,,,,,,0,1,,,,,,,10,0,10,0,,,,,,,,,,,1541.091,1541.591,1541.841,1542.592,space,0.733,,1542.592,62,68,1543.592,1543.592,1543.598,,,,0,40,40,40,1,110,160,,,,,,,,
,,650aee824c25ddbb9bee2024,65af53f67219ae981f60fda5,2024-01-23_07h53.52.044,bars,2023.2.3,Win32,60.0240096,657b66ea316d21385b68909f,,,,,,,,,,,1543.598,1544.592,,,1545.092,1545.342,,176,-4,,,,,,,,,,,,,,,,bars/018.png,bars/mask004.png,,,,,,,,,,,,1,1,,,,,,,8,0,6,0,,,,,,,,,,,1544.592,1545.092,1545.342,1546.325,space,0.967,,1546.325,26,86,1547.326,1547.326,1547.328,,,,0,41,41,41,1,150,90,,,,,,,,
,,650aee824c25ddbb9bee2024,65af53f67219ae981f60fda5,2024-01-23_07h53.52.044,bars,2023.2.3,Win32,60.0240096,657b66ea316d21385b68909f,,,,,,,,,,,1547.328,1548.326,,,1548.827,1549.077,,86,86,,,,,,,,,,,,,,,,bars/023.png,bars/mask005.png,,,,,,,,,,,,0,2,,,,,,,10,2,10,3,,,,,,,,,,,1548.327,1548.827,1549.077,1551.644,space,2.553,,1551.644,66,29,1552.645,1552.645,1552.651,,,,0,42,42,42,1,20,115,,,,,,,,
,,650aee824c25ddbb9bee2024,65af53f67219ae981f60fda5,2024-01-23_07h53.52.044,bars,2023.2.3,Win32,60.0240096,657b66ea316d21385b68909f,,,,,,,,,,,1552.651,1553.645,,,1554.145,1554.395,,107,107,,,,,,,,,,,,,,,,bars/004.png,bars/mask008.png,,,,,,,,,,,,2,2,,,,,,,8,4,9,4,,,,,,,,,,,1553.645,1554.145,1554.395,1555.328,space,0.92,,1555.328,82,18,1556.329,1556.329,1556.33,,,,0,43,43,43,1,25,125,,,,,,,,
,,650aee824c25ddbb9bee2024,65af53f67219ae981f60fda5,2024-01-23_07h53.52.044,bars,2023.2.3,Win32,60.0240096,657b66ea316d21385b68909f,,,,,,,,,,,1556.331,1557.33,,,1557.83,1558.079,,75,75,,,,,,,,,,,,,,,,bars/031.png,bars/mask004.png,,,,,,,,,,,,0,2,,,,,,,10,2,9,1,,,,,,,,,,,1557.33,1557.83,1558.079,1558.913,space,0.817,,1558.913,45,40,1559.913,1559.913,1559.914,,,,0,44,44,44,1,120,35,,,,,,,,
,,650aee824c25ddbb9bee2024,65af53f67219ae981f60fda5,2024-01-23_07h53.52.044,bars,2023.2.3,Win32,60.0240096,657b66ea316d21385b68909f,,,,,,,,,,,1559.914,1560.913,,,1561.414,1561.664,,155,155,,,,,,,,,,,,,,,,bars/032.png,bars/mask003.png,,,,,,,,,,,,0,1,,,,,,,8,0,8,0,,,,,,,,,,,1560.913,1561.414,1561.664,1562.998,space,1.318,,1562.998,30,45,1563.997,1563.997,1564.002,,,,0,45,45,45,1,125,20,,,,,,,,
,,650aee824c25ddbb9bee2024,65af53f67219ae981f60fda5,2024-01-23_07h53.52.044,bars,2023.2.3,Win32,60.0240096,657b66ea316d21385b68909f,,,,,,,,,,,1564.003,1564.998,,,1565.499,1565.748,,69,69,,,,,,,,,,,,,,,,bars/031.png,bars/mask005.png,,,,,,,,,,,,0,2,,,,,,,6,0,8,1,,,,,,,,,,,1564.998,1565.499,1565.748,1567.115,space,1.351,,1567.115,51,34,1568.115,1568.115,1568.119,,,,0,46,46,46,1,120,35,,,,,,,,
,,650aee824c25ddbb9bee2024,65af53f67219ae981f60fda5,2024-01-23_07h53.52.044,bars,2023.2.3,Win32,60.0240096,657b66ea316d21385b68909f,,,,,,,,,,,1568.12,1569.116,,,1569.616,1569.866,,116,116,,,,,,,,,,,,,,,,bars/003.png,bars/mask006.png,,,,,,,,,,,,0,2,,,,,,,8,0,7,0,,,,,,,,,,,1569.116,1569.616,1569.866,1571.533,space,1.651,,1571.533,89,24,1572.534,1572.535,1572.541,,,,0,47,47,47,1,25,140,,,,,,,,
,,650aee824c25ddbb9bee2024,65af53f67219ae981f60fda5,2024-01-23_07h53.52.044,bars,2023.2.3,Win32,60.0240096,657b66ea316d21385b68909f,,,,,,,,,,,1572.542,1573.535,,,1574.034,1574.284,,41,41,,,,,,,,,,,,,,,,bars/040.png,bars/mask000.png,,,,,,,,,,,,0,2,,,,,,,6,2,6,3,,,,,,,,,,,1573.535,1574.034,1574.285,1575.935,space,1.64,,1575.935,81,36,1576.935,1576.935,1576.937,,,,0,48,48,48,1,140,5,,,,,,,,
,,650aee824c25ddbb9bee2024,65af53f67219ae981f60fda5,2024-01-23_07h53.52.044,bars,2023.2.3,Win32,60.0240096,657b66ea316d21385b68909f,,,,,,,,,,,1576.938,1577.935,,,1578.436,1578.686,,176,176,,,,,,,,,,,,,,,,bars/005.png,bars/mask000.png,,,,,,,,,,,,2,1,,,,,,,4,4,4,3,,,,,,,,,,,1577.935,1578.436,1578.686,1584.504,space,5.806,,1584.504,14,36,1585.504,1585.504,1585.51,,,,0,49,49,49,1,10,140,,,,,,,,
,,650aee824c25ddbb9bee2024,65af53f67219ae981f60fda5,2024-01-23_07h53.52.044,bars,2023.2.3,Win32,60.0240096,657b66ea316d21385b68909f,,,,,,,,,,,,,,,,,,,,,,,,,,,,,,,,,,,,,,,,,,,,,,,,,,,,,,,,,,,,,,,,,,,,,,,,,,,,,,,,,,,,,,,,,,,,,1585.51,1645.507,0,3,3,4,1,sequence_tables/blk019.csv
,,650aee824c25ddbb9bee2024,65af53f67219ae981f60fda5,2024-01-23_07h53.52.044,bars,2023.2.3,Win32,60.0240096,657b66ea316d21385b68909f,,,,,,,,,,,1726.29,1727.28,,,1727.785,1728.03,,71,71,,,,,,,,,,,,,,,,bars/007.png,bars/mask006.png,,,,,,,,,,,,1,2,,,,,,,0,3,0,3,,,,,,1645.51,1726.281,space,80.758,,1727.281,1727.785,1728.03,1729.898,space,1.851,,1729.898,76,16,1730.898,1730.898,1730.906,,,,0,0,0,0,1,175,55,,,,,,,,
,,650aee824c25ddbb9bee2024,65af53f67219ae981f60fda5,2024-01-23_07h53.52.044,bars,2023.2.3,Win32,60.0240096,657b66ea316d21385b68909f,,,,,,,,,,,1730.907,1731.898,,,1732.399,1732.649,,116,116,,,,,,,,,,,,,,,,bars/028.png,bars/mask004.png,,,,,,,,,,,,5,2,,,,,,,2,5,0,6,,,,,,,,,,,1731.898,1732.399,1732.649,1737.233,space,4.571,,1737.233,71,4,1738.233,1738.233,1738.235,,,,0,1,1,1,1,45,120,,,,,,,,
,,650aee824c25ddbb9bee2024,65af53f67219ae981f60fda5,2024-01-23_07h53.52.044,bars,2023.2.3,Win32,60.0240096,657b66ea316d21385b68909f,,,,,,,,,,,1738.235,1739.234,,,1739.734,1739.985,,9,189,,,,,,,,,,,,,,,,bars/024.png,bars/mask003.png,,,,,,,,,,,,2,2,,,,,,,0,7,0,6,,,,,,,,,,,1739.234,1739.734,1739.985,1740.951,space,0.956,,1740.951,69,19,1741.951,1741.952,1741.957,,,,0,2,2,2,1,120,170,,,,,,,,
,,650aee824c25ddbb9bee2024,65af53f67219ae981f60fda5,2024-01-23_07h53.52.044,bars,2023.2.3,Win32,60.0240096,657b66ea316d21385b68909f,,,,,,,,,,,1741.957,1742.951,,,1743.452,1743.702,,100,-80,,,,,,,,,,,,,,,,bars/026.png,bars/mask005.png,,,,,,,,,,,,3,2,,,,,,,2,5,2,5,,,,,,,,,,,1742.951,1743.452,1743.702,1747.153,space,3.433,,1747.153,65,15,1748.153,1748.153,1748.155,,,,0,3,3,3,1,35,85,,,,,,,,
,,650aee824c25ddbb9bee2024,65af53f67219ae981f60fda5,2024-01-23_07h53.52.044,bars,2023.2.3,Win32,60.0240096,657b66ea316d21385b68909f,,,,,,,,,,,1748.156,1749.154,,,1749.654,1749.904,,142,142,,,,,,,,,,,,,,,,bars/005.png,bars/mask006.png,,,,,,,,,,,,7,2,,,,,,,0,7,0,7,,,,,,,,,,,1749.154,1749.654,1749.904,1750.838,space,0.918,,1750.838,48,2,1751.838,1751.838,1751.84,,,,0,4,4,4,1,10,140,,,,,,,,
,,650aee824c25ddbb9bee2024,65af53f67219ae981f60fda5,2024-01-23_07h53.52.044,bars,2023.2.3,Win32,60.0240096,657b66ea316d21385b68909f,,,,,,,,,,,1751.84,1752.838,,,1753.339,1753.588,,61,61,,,,,,,,,,,,,,,,bars/029.png,bars/mask007.png,,,,,,,,,,,,2,2,,,,,,,2,5,3,5,,,,,,,,,,,1752.838,1753.339,1753.588,1754.221,space,0.617,,1754.221,29,16,1755.222,1755.222,1755.223,,,,0,5,5,5,1,90,45,,,,,,,,
,,650aee824c25ddbb9bee2024,65af53f67219ae981f60fda5,2024-01-23_07h53.52.044,bars,2023.2.3,Win32,60.0240096,657b66ea316d21385b68909f,,,,,,,,,,,1755.224,1756.222,,,1756.722,1756.972,,162,162,,,,,,,,,,,,,,,,bars/033.png,bars/mask003.png,,,,,,,,,,,,2,2,,,,,,,0,3,0,2,,,,,,,,,,,1756.222,1756.722,1756.972,1759.289,space,2.303,,1759.289,43,7,1760.29,1760.29,1760.291,,,,0,6,6,6,1,25,155,,,,,,,,
,,650aee824c25ddbb9bee2024,65af53f67219ae981f60fda5,2024-01-23_07h53.52.044,bars,2023.2.3,Win32,60.0240096,657b66ea316d21385b68909f,,,,,,,,,,,1760.292,1761.29,,,1761.79,1762.04,,106,-74,,,,,,,,,,,,,,,,bars/028.png,bars/mask006.png,,,,,,,,,,,,3,2,,,,,,,2,5,3,5,,,,,,,,,,,1761.29,1761.79,1762.04,1766.025,space,3.97,,1766.025,61,14,1767.025,1767.025,1767.028,,,,0,7,7,7,1,45,120,,,,,,,,
,,650aee824c25ddbb9bee2024,65af53f67219ae981f60fda5,2024-01-23_07h53.52.044,bars,2023.2.3,Win32,60.0240096,657b66ea316d21385b68909f,,,,,,,,,,,1767.029,1768.026,,,1768.525,1768.776,,62,62,,,,,,,,,,,,,,,,bars/021.png,bars/mask005.png,,,,,,,,,,,,6,2,,,,,,,0,7,0,8,,,,,,,,,,,1768.026,1768.525,1768.776,1771.343,space,2.555,,1771.343,87,8,1772.343,1772.343,1772.346,,,,0,8,8,8,1,155,70,,,,,,,,
,,650aee824c25ddbb9bee2024,65af53f67219ae981f60fda5,2024-01-23_07h53.52.044,bars,2023.2.3,Win32,60.0240096,657b66ea316d21385b68909f,,,,,,,,,,,1772.347,1773.344,,,1773.845,1774.094,,5,185,,,,,,,,,,,,,,,,bars/033.png,bars/mask003.png,,,,,,,,,,,,1,1,,,,,,,2,5,3,5,,,,,,,,,,,1773.344,1773.845,1774.094,1776.395,space,2.285,,1776.395,20,30,1777.396,1777.396,1777.401,,,,0,9,9,9,1,25,155,,,,,,,,
,,650aee824c25ddbb9bee2024,65af53f67219ae981f60fda5,2024-01-23_07h53.52.044,bars,2023.2.3,Win32,60.0240096,657b66ea316d21385b68909f,,,,,,,,,,,1777.402,1778.395,,,1778.896,1779.145,,73,73,,,,,,,,,,,,,,,,bars/034.png,bars/mask002.png,,,,,,,,,,,,5,2,,,,,,,0,7,1,7,,,,,,,,,,,1778.395,1778.896,1779.145,1781.363,space,2.203,,1781.363,52,8,1782.363,1782.363,1782.369,,,,0,10,10,10,1,125,65,,,,,,,,
,,650aee824c25ddbb9bee2024,65af53f67219ae981f60fda5,2024-01-23_07h53.52.044,bars,2023.2.3,Win32,60.0240096,657b66ea316d21385b68909f,,,,,,,,,,,1782.37,1783.363,,,1783.864,1784.114,,45,45,,,,,,,,,,,,,,,,bars/013.png,bars/mask001.png,,,,,,,,,,,,0,1,,,,,,,0,9,1,10,,,,,,,,,,,1783.363,1783.864,1784.114,1788.048,space,3.922,,1788.048,30,35,1789.049,1789.049,1789.055,,,,0,11,11,11,1,75,10,,,,,,,,
,,650aee824c25ddbb9bee2024,65af53f67219ae981f60fda5,2024-01-23_07h53.52.044,bars,2023.2.3,Win32,60.0240096,657b66ea316d21385b68909f,,,,,,,,,,,1789.055,1790.049,,,1790.55,1790.8,,80,80,,,,,,,,,,,,,,,,bars/029.png,bars/mask007.png,,,,,,,,,,,,1,1,,,,,,,2,7,2,7,,,,,,,,,,,1790.049,1790.55,1790.8,1793.016,space,2.204,,1793.016,10,35,1794.016,1794.016,1794.019,,,,0,12,12,12,1,90,45,,,,,,,,
,,650aee824c25ddbb9bee2024,65af53f67219ae981f60fda5,2024-01-23_07h53.52.044,bars,2023.2.3,Win32,60.0240096,657b66ea316d21385b68909f,,,,,,,,,,,1794.019,1795.017,,,1795.517,1795.767,,58,58,,,,,,,,,,,,,,,,bars/022.png,bars/mask002.png,,,,,,,,,,,,0,1,,,,,,,4,5,3,5,,,,,,,,,,,1795.017,1795.517,1795.767,1797.951,space,2.168,,1797.951,37,38,1798.952,1798.952,1798.953,,,,0,13,13,13,1,95,20,,,,,,,,
,,650aee824c25ddbb9bee2024,65af53f67219ae981f60fda5,2024-01-23_07h53.52.044,bars,2023.2.3,Win32,60.0240096,657b66ea316d21385b68909f,,,,,,,,,,,1798.954,1799.952,,,1800.453,1800.702,,76,76,,,,,,,,,,,,,,,,bars/046.png,bars/mask003.png,,,,,,,,,,,,2,2,,,,,,,2,3,1,3,,,,,,,,,,,1799.952,1800.453,1800.702,1803.753,space,3.034,,1803.753,79,9,1804.754,1804.754,1804.756,,,,0,14,14,14,1,155,85,,,,,,,,
,,650aee824c25ddbb9bee2024,65af53f67219ae981f60fda5,2024-01-23_07h53.52.044,bars,2023.2.3,Win32,60.0240096,657b66ea316d21385b68909f,,,,,,,,,,,1804.757,1805.754,,,1806.253,1806.504,,33,33,,,,,,,,,,,,,,,,bars/035.png,bars/mask007.png,,,,,,,,,,,,0,2,,,,,,,4,1,3,3,,,,,,,,,,,1805.754,1806.253,1806.504,1810.706,space,4.185,,1810.707,38,27,1811.705,1811.706,1811.709,,,,0,15,15,15,1,175,60,,,,,,,,
,,650aee824c25ddbb9bee2024,65af53f67219ae981f60fda5,2024-01-23_07h53.52.044,bars,2023.2.3,Win32,60.0240096,657b66ea316d21385b68909f,,,,,,,,,,,1811.71,1812.706,,,1813.206,1813.456,,167,167,,,,,,,,,,,,,,,,bars/044.png,bars/mask001.png,,,,,,,,,,,,0,2,,,,,,,6,0,5,0,,,,,,,,,,,1812.706,1813.206,1813.456,1815.206,space,1.735,,1815.206,88,12,1816.207,1816.207,1816.21,,,,0,16,16,16,1,75,155,,,,,,,,
,,650aee824c25ddbb9bee2024,65af53f67219ae981f60fda5,2024-01-23_07h53.52.044,bars,2023.2.3,Win32,60.0240096,657b66ea316d21385b68909f,,,,,,,,,,,1816.21,1817.208,,,1817.707,1817.957,,46,-134,,,,,,,,,,,,,,,,bars/029.png,bars/mask006.png,,,,,,,,,,,,2,2,,,,,,,4,2,5,2,,,,,,,,,,,1817.208,1817.707,1817.957,1823.592,space,5.622,,1823.592,44,1,1824.593,1824.593,1824.595,,,,0,17,17,17,1,90,45,,,,,,,,
,,650aee824c25ddbb9bee2024,65af53f67219ae981f60fda5,2024-01-23_07h53.52.044,bars,2023.2.3,Win32,60.0240096,657b66ea316d21385b68909f,,,,,,,,,,,1824.595,1825.593,,,1826.093,1826.343,,173,-7,,,,,,,,,,,,,,,,bars/012.png,bars/mask009.png,,,,,,,,,,,,1,2,,,,,,,6,4,7,4,,,,,,,,,,,1825.593,1826.093,1826.343,1829.544,space,3.188,,1829.544,83,22,1830.545,1830.545,1830.547,,,,0,18,18,18,1,90,15,,,,,,,,
,,650aee824c25ddbb9bee2024,65af53f67219ae981f60fda5,2024-01-23_07h53.52.044,bars,2023.2.3,Win32,60.0240096,657b66ea316d21385b68909f,,,,,,,,,,,1830.547,1831.545,,,1832.045,1832.295,,118,118,,,,,,,,,,,,,,,,bars/001.png,bars/mask008.png,,,,,,,,,,,,4,1,,,,,,,4,2,6,3,,,,,,,,,,,1831.545,1832.045,1832.295,1832.745,space,0.436,,1832.745,12,33,1833.745,1833.745,1833.75,,,,0,19,19,19,1,130,85,,,,,,,,
,,650aee824c25ddbb9bee2024,65af53f67219ae981f60fda5,2024-01-23_07h53.52.044,bars,2023.2.3,Win32,60.0240096,657b66ea316d21385b68909f,,,,,,,,,,,1833.751,1834.746,,,1835.246,1835.497,,9,9,,,,,,,,,,,,,,,,bars/048.png,bars/mask004.png,,,,,,,,,,,,2,2,,,,,,,6,4,8,4,,,,,,,,,,,1834.746,1835.246,1835.497,1837.763,space,2.25,,1837.763,41,14,1838.763,1838.763,1838.767,,,,0,20,20,20,1,50,175,,,,,,,,
,,650aee824c25ddbb9bee2024,65af53f67219ae981f60fda5,2024-01-23_07h53.52.044,bars,2023.2.3,Win32,60.0240096,657b66ea316d21385b68909f,,,,,,,,,,,1838.768,1839.764,,,1840.264,1840.514,,109,109,,,,,,,,,,,,,,,,bars/021.png,bars/mask009.png,,,,,,,,,,,,0,2,,,,,,,8,6,9,6,,,,,,,,,,,1839.764,1840.264,1840.515,1841.315,space,0.786,,1841.315,46,39,1842.315,1842.315,1842.32,,,,0,21,21,21,1,155,70,,,,,,,,
