init_variables.started,init_variables.stopped,participant,session,date,expName,psychopyVersion,OS,frameRate,study_id,instruction_exp.started,instruction_exp.stopped,key_resp_8.keys,key_resp_8.rt,key_resp_8.duration,instruction_single.started,instruction_single.stopped,key_resp_2.keys,key_resp_2.rt,key_resp_2.duration,interval.started,interval.stopped,cue_single.started,cue_single.stopped,mask.started,mask.stopped,ori_response_single.started,res_ori,res,ori_response_single.stopped,key_resp_single.keys,key_resp_single.rt,key_resp_single.duration,disp_single.started,disp_single.stopped,key_resp.keys,key_resp.rt,key_resp.duration,single.thisRepN,single.thisTrialN,single.thisN,single.thisIndex,single.ran,ori,path,mask_path,instruction_bandit.started,instruction_bandit.stopped,key_resp_6.keys,key_resp_6.rt,key_resp_6.duration,cue_bandit.started,cue_bandit.stopped,bandit_res.keys,bandit_res.rt,bandit_res.duration,outcome_bandit.started,rew,action,outcome_bandit.stopped,bandit.thisRepN,bandit.thisTrialN,bandit.thisN,bandit.thisIndex,bandit.ran,actual_rew1,actual_rew2,rew1,rew2,instruction_task.started,instruction_task.stopped,key_resp_7.keys,key_resp_7.rt,key_resp_7.duration,wait_ready.started,wait_ready.stopped,key_resp_3.keys,key_resp_3.rt,key_resp_3.duration,cue.started,cue.stopped,ori_response.started,ori_response.stopped,key_resp_5.keys,key_resp_5.rt,key_resp_5.duration,outcome.started,diff1,diff2,outcome.stopped,disp_outcome_practice.started,disp_outcome_practice.stopped,key_resp_4.keys,key_resp_4.rt,key_resp_4.duration,trials.thisRepN,trials.thisTrialN,trials.thisN,trials.thisIndex,trials.ran,ori1,ori2,break_blk.started,break_blk.stopped,block.thisRepN,block.thisTrialN,block.thisN,block.thisIndex,block.ran,condition_file
0.0004,0.0006,60f801efc0846c47e4e755e6,65af758691bb652b9495bfb3,2024-01-23_10h17.05.413,bars,2023.2.3,Win32,60.24096386,657b66ea316d21385b68909f,,,,,,,,,,,,,,,,,,,,,,,,,,,,,,,,,,,,,,,,,,,,,,,,,,,,,,,,,,,,,,,,,,,,,,,,,,,,,,,,,,,,,,,,,,,,,,,,,,,,
,,60f801efc0846c47e4e755e6,65af758691bb652b9495bfb3,2024-01-23_10h17.05.413,bars,2023.2.3,Win32,60.24096386,657b66ea316d21385b68909f,0.001,313.3194,y,313.3001,,,,,,,,,,,,,,,,,,,,,,,,,,,,,,,,,,,,,,,,,,,,,,,,,,,,,,,,,,,,,,,,,,,,,,,,,,,,,,,,,,,,,,,,,,,,,,,,
,,60f801efc0846c47e4e755e6,65af758691bb652b9495bfb3,2024-01-23_10h17.05.413,bars,2023.2.3,Win32,60.24096386,657b66ea316d21385b68909f,,,,,,313.3195,318.3586,space,5.0298,,,,,,,,,,,,,,,,,,,,,,,,,,,,,,,,,,,,,,,,,,,,,,,,,,,,,,,,,,,,,,,,,,,,,,,,,,,,,,,,,,,,,,,,,,,
,,60f801efc0846c47e4e755e6,65af758691bb652b9495bfb3,2024-01-23_10h17.05.413,bars,2023.2.3,Win32,60.24096386,657b66ea316d21385b68909f,,,,,,,,,,,318.3735,319.3748,319.375,319.8721,319.8723,320.125,320.1253,163,-17,325.3451,space,5.1932,,325.3452,328.6795,space,3.313,,0,0,0,8,1,160,bars/single008.png,bars/mask004.png,,,,,,,,,,,,,,,,,,,,,,,,,,,,,,,,,,,,,,,,,,,,,,,,,,,,,,,,,,,,,,,,
,,60f801efc0846c47e4e755e6,65af758691bb652b9495bfb3,2024-01-23_10h17.05.413,bars,2023.2.3,Win32,60.24096386,657b66ea316d21385b68909f,,,,,,,,,,,328.6887,329.696,329.6961,330.18,330.18,330.4299,330.4299,179,-1,332.9315,space,2.4854,,332.9315,334.3989,space,1.4512,,0,1,1,6,1,175,bars/single006.png,bars/mask005.png,,,,,,,,,,,,,,,,,,,,,,,,,,,,,,,,,,,,,,,,,,,,,,,,,,,,,,,,,,,,,,,,
,,60f801efc0846c47e4e755e6,65af758691bb652b9495bfb3,2024-01-23_10h17.05.413,bars,2023.2.3,Win32,60.24096386,657b66ea316d21385b68909f,,,,,,,,,,,334.3993,335.3984,335.3985,335.8961,335.8963,336.1488,336.1488,27,207,339.4514,space,3.2856,,339.4514,340.8849,space,1.4174,,0,2,2,9,1,20,bars/single009.png,bars/mask006.png,,,,,,,,,,,,,,,,,,,,,,,,,,,,,,,,,,,,,,,,,,,,,,,,,,,,,,,,,,,,,,,,
,,60f801efc0846c47e4e755e6,65af758691bb652b9495bfb3,2024-01-23_10h17.05.413,bars,2023.2.3,Win32,60.24096386,657b66ea316d21385b68909f,,,,,,,,,,,340.8852,341.8852,341.8852,342.3834,342.3834,342.6319,342.6321,4,4,346.471,space,3.819,,346.4711,348.1878,space,1.6995,,0,3,3,1,1,20,bars/single001.png,bars/mask006.png,,,,,,,,,,,,,,,,,,,,,,,,,,,,,,,,,,,,,,,,,,,,,,,,,,,,,,,,,,,,,,,,
,,60f801efc0846c47e4e755e6,65af758691bb652b9495bfb3,2024-01-23_10h17.05.413,bars,2023.2.3,Win32,60.24096386,657b66ea316d21385b68909f,,,,,,,,,,,348.188,349.1845,349.1846,349.6851,349.6852,349.9345,349.9347,137,137,352.9041,space,2.9486,,352.9041,355.3083,space,2.3854,,0,4,4,2,1,145,bars/single002.png,bars/mask003.png,,,,,,,,,,,,,,,,,,,,,,,,,,,,,,,,,,,,,,,,,,,,,,,,,,,,,,,,,,,,,,,,
,,60f801efc0846c47e4e755e6,65af758691bb652b9495bfb3,2024-01-23_10h17.05.413,bars,2023.2.3,Win32,60.24096386,657b66ea316d21385b68909f,,,,,,,,,,,355.3086,356.3079,356.308,356.8047,356.805,357.0581,357.0582,159,159,360.4772,space,3.4023,,360.4772,361.111,space,0.6176,,0,5,5,0,1,150,bars/single000.png,bars/mask006.png,,,,,,,,,,,,,,,,,,,,,,,,,,,,,,,,,,,,,,,,,,,,,,,,,,,,,,,,,,,,,,,,
,,60f801efc0846c47e4e755e6,65af758691bb652b9495bfb3,2024-01-23_10h17.05.413,bars,2023.2.3,Win32,60.24096386,657b66ea316d21385b68909f,,,,,,,,,,,361.1114,362.1074,362.1075,362.607,362.6071,362.8612,362.8612,89,89,365.2629,space,2.3853,,365.2629,365.8921,space,0.605,,0,6,6,4,1,95,bars/single004.png,bars/mask004.png,,,,,,,,,,,,,,,,,,,,,,,,,,,,,,,,,,,,,,,,,,,,,,,,,,,,,,,,,,,,,,,,
,,60f801efc0846c47e4e755e6,65af758691bb652b9495bfb3,2024-01-23_10h17.05.413,bars,2023.2.3,Win32,60.24096386,657b66ea316d21385b68909f,,,,,,,,,,,365.8931,366.8931,366.8932,367.3934,367.3934,367.6449,367.645,41,41,370.4983,space,2.8353,,370.4983,370.9322,space,0.4176,,0,7,7,7,1,45,bars/single007.png,bars/mask009.png,,,,,,,,,,,,,,,,,,,,,,,,,,,,,,,,,,,,,,,,,,,,,,,,,,,,,,,,,,,,,,,,
,,60f801efc0846c47e4e755e6,65af758691bb652b9495bfb3,2024-01-23_10h17.05.413,bars,2023.2.3,Win32,60.24096386,657b66ea316d21385b68909f,,,,,,,,,,,370.9327,371.9283,371.9284,372.432,372.4321,372.6819,372.682,58,238,375.5174,space,2.8193,,375.5174,376.1012,space,0.5675,,0,8,8,5,1,55,bars/single005.png,bars/mask008.png,,,,,,,,,,,,,,,,,,,,,,,,,,,,,,,,,,,,,,,,,,,,,,,,,,,,,,,,,,,,,,,,
,,60f801efc0846c47e4e755e6,65af758691bb652b9495bfb3,2024-01-23_10h17.05.413,bars,2023.2.3,Win32,60.24096386,657b66ea316d21385b68909f,,,,,,,,,,,376.1015,377.101,377.1011,377.6017,377.6018,377.8515,377.8516,21,21,379.9692,space,2.1015,,379.9692,380.5029,space,0.5175,,0,9,9,3,1,20,bars/single003.png,bars/mask005.png,,,,,,,,,,,,,,,,,,,,,,,,,,,,,,,,,,,,,,,,,,,,,,,,,,,,,,,,,,,,,,,,
,,60f801efc0846c47e4e755e6,65af758691bb652b9495bfb3,2024-01-23_10h17.05.413,bars,2023.2.3,Win32,60.24096386,657b66ea316d21385b68909f,,,,,,,,,,,,,,,,,,,,,,,,,,,,,,,,,,,,,380.5034,385.6351,space,5.1138,,,,,,,,,,,,,,,,,,,,,,,,,,,,,,,,,,,,,,,,,,,,,,,,,,,,,,,,,,,,
,,60f801efc0846c47e4e755e6,65af758691bb652b9495bfb3,2024-01-23_10h17.05.413,bars,2023.2.3,Win32,60.24096386,657b66ea316d21385b68909f,,,,,,,,,,,,,,,,,,,,,,,,,,,,,,,,,,,,,,,,,,385.6459,386.6357,left,0.9757,,386.6359,9,1,387.6391,0,0,0,0,1,9,1,9,2,,,,,,,,,,,,,,,,,,,,,,,,,,,,,,,,,,,,,,,,,
,,60f801efc0846c47e4e755e6,65af758691bb652b9495bfb3,2024-01-23_10h17.05.413,bars,2023.2.3,Win32,60.24096386,657b66ea316d21385b68909f,,,,,,,,,,,,,,,,,,,,,,,,,,,,,,,,,,,,,,,,,,387.6397,389.2403,left,1.5852,,389.2404,10,1,390.2362,0,1,1,1,1,10,0,10,1,,,,,,,,,,,,,,,,,,,,,,,,,,,,,,,,,,,,,,,,,
,,60f801efc0846c47e4e755e6,65af758691bb652b9495bfb3,2024-01-23_10h17.05.413,bars,2023.2.3,Win32,60.24096386,657b66ea316d21385b68909f,,,,,,,,,,,,,,,,,,,,,,,,,,,,,,,,,,,,,,,,,,390.2373,392.4581,left,2.2015,,392.4581,10,1,393.4584,0,2,2,2,1,10,2,10,2,,,,,,,,,,,,,,,,,,,,,,,,,,,,,,,,,,,,,,,,,
,,60f801efc0846c47e4e755e6,65af758691bb652b9495bfb3,2024-01-23_10h17.05.413,bars,2023.2.3,Win32,60.24096386,657b66ea316d21385b68909f,,,,,,,,,,,,,,,,,,,,,,,,,,,,,,,,,,,,,,,,,,393.4675,395.91,left,2.4352,,395.91,7,1,396.9099,0,3,3,3,1,8,4,7,3,,,,,,,,,,,,,,,,,,,,,,,,,,,,,,,,,,,,,,,,,
,,60f801efc0846c47e4e755e6,65af758691bb652b9495bfb3,2024-01-23_10h17.05.413,bars,2023.2.3,Win32,60.24096386,657b66ea316d21385b68909f,,,,,,,,,,,,,,,,,,,,,,,,,,,,,,,,,,,,,,,,,,396.9103,398.2945,right,1.3681,,398.2945,1,2,399.2941,0,4,4,4,1,6,2,5,1,,,,,,,,,,,,,,,,,,,,,,,,,,,,,,,,,,,,,,,,,
,,60f801efc0846c47e4e755e6,65af758691bb652b9495bfb3,2024-01-23_10h17.05.413,bars,2023.2.3,Win32,60.24096386,657b66ea316d21385b68909f,,,,,,,,,,,,,,,,,,,,,,,,,,,,,,,,,,,,,,,,,,399.3034,400.0787,left,0.7679,,400.0788,4,1,401.0783,0,5,5,5,1,4,4,4,4,,,,,,,,,,,,,,,,,,,,,,,,,,,,,,,,,,,,,,,,,
,,60f801efc0846c47e4e755e6,65af758691bb652b9495bfb3,2024-01-23_10h17.05.413,bars,2023.2.3,Win32,60.24096386,657b66ea316d21385b68909f,,,,,,,,,,,,,,,,,,,,,,,,,,,,,,,,,,,,,,,,,,401.0787,401.6791,right,0.5843,,401.6791,2,2,402.679,0,6,6,6,1,2,2,1,2,,,,,,,,,,,,,,,,,,,,,,,,,,,,,,,,,,,,,,,,,
,,60f801efc0846c47e4e755e6,65af758691bb652b9495bfb3,2024-01-23_10h17.05.413,bars,2023.2.3,Win32,60.24096386,657b66ea316d21385b68909f,,,,,,,,,,,,,,,,,,,,,,,,,,,,,,,,,,,,,,,,,,402.6795,402.8929,left,0.1925,,402.8929,0,1,403.8935,0,7,7,7,1,0,0,0,1,,,,,,,,,,,,,,,,,,,,,,,,,,,,,,,,,,,,,,,,,
,,60f801efc0846c47e4e755e6,65af758691bb652b9495bfb3,2024-01-23_10h17.05.413,bars,2023.2.3,Win32,60.24096386,657b66ea316d21385b68909f,,,,,,,,,,,,,,,,,,,,,,,,,,,,,,,,,,,,,,,,,,403.8939,404.1306,right,0.2177,,404.1306,0,2,405.1304,0,8,8,8,1,0,2,1,0,,,,,,,,,,,,,,,,,,,,,,,,,,,,,,,,,,,,,,,,,
,,60f801efc0846c47e4e755e6,65af758691bb652b9495bfb3,2024-01-23_10h17.05.413,bars,2023.2.3,Win32,60.24096386,657b66ea316d21385b68909f,,,,,,,,,,,,,,,,,,,,,,,,,,,,,,,,,,,,,,,,,,405.1308,405.4477,right,0.3011,,405.4478,3,2,406.4435,0,9,9,9,1,2,4,2,3,,,,,,,,,,,,,,,,,,,,,,,,,,,,,,,,,,,,,,,,,
,,60f801efc0846c47e4e755e6,65af758691bb652b9495bfb3,2024-01-23_10h17.05.413,bars,2023.2.3,Win32,60.24096386,657b66ea316d21385b68909f,,,,,,,,,,,,,,,,,,,,,,,,,,,,,,,,,,,,,,,,,,406.4445,406.6944,right,0.2278,,406.6947,3,2,407.6978,0,10,10,10,1,0,2,0,3,,,,,,,,,,,,,,,,,,,,,,,,,,,,,,,,,,,,,,,,,
,,60f801efc0846c47e4e755e6,65af758691bb652b9495bfb3,2024-01-23_10h17.05.413,bars,2023.2.3,Win32,60.24096386,657b66ea316d21385b68909f,,,,,,,,,,,,,,,,,,,,,,,,,,,,,,,,,,,,,,,,,,407.6981,407.9301,right,0.216,,407.9303,3,2,408.9316,0,11,11,11,1,0,4,0,3,,,,,,,,,,,,,,,,,,,,,,,,,,,,,,,,,,,,,,,,,
,,60f801efc0846c47e4e755e6,65af758691bb652b9495bfb3,2024-01-23_10h17.05.413,bars,2023.2.3,Win32,60.24096386,657b66ea316d21385b68909f,,,,,,,,,,,,,,,,,,,,,,,,,,,,,,,,,,,,,,,,,,408.9319,409.0491,left,0.1007,,409.0492,1,1,410.0455,0,12,12,12,1,2,6,1,6,,,,,,,,,,,,,,,,,,,,,,,,,,,,,,,,,,,,,,,,,
,,60f801efc0846c47e4e755e6,65af758691bb652b9495bfb3,2024-01-23_10h17.05.413,bars,2023.2.3,Win32,60.24096386,657b66ea316d21385b68909f,,,,,,,,,,,,,,,,,,,,,,,,,,,,,,,,,,,,,,,,,,410.0462,410.2632,right,0.1887,,410.2632,3,2,411.2631,0,13,13,13,1,0,4,1,3,,,,,,,,,,,,,,,,,,,,,,,,,,,,,,,,,,,,,,,,,
,,60f801efc0846c47e4e755e6,65af758691bb652b9495bfb3,2024-01-23_10h17.05.413,bars,2023.2.3,Win32,60.24096386,657b66ea316d21385b68909f,,,,,,,,,,,,,,,,,,,,,,,,,,,,,,,,,,,,,,,,,,411.2638,411.4671,left,0.1846,,411.4671,2,1,412.4651,0,14,14,14,1,2,6,2,7,,,,,,,,,,,,,,,,,,,,,,,,,,,,,,,,,,,,,,,,,
,,60f801efc0846c47e4e755e6,65af758691bb652b9495bfb3,2024-01-23_10h17.05.413,bars,2023.2.3,Win32,60.24096386,657b66ea316d21385b68909f,,,,,,,,,,,,,,,,,,,,,,,,,,,,,,,,,,,,,,,,,,412.4655,412.6174,right,0.1344,,412.6174,9,2,413.6137,0,15,15,15,1,4,8,3,9,,,,,,,,,,,,,,,,,,,,,,,,,,,,,,,,,,,,,,,,,
,,60f801efc0846c47e4e755e6,65af758691bb652b9495bfb3,2024-01-23_10h17.05.413,bars,2023.2.3,Win32,60.24096386,657b66ea316d21385b68909f,,,,,,,,,,,,,,,,,,,,,,,,,,,,,,,,,,,,,,,,,,413.6144,413.8343,right,0.2007,,413.8344,7,2,414.8309,0,16,16,16,1,6,6,7,7,,,,,,,,,,,,,,,,,,,,,,,,,,,,,,,,,,,,,,,,,
,,60f801efc0846c47e4e755e6,65af758691bb652b9495bfb3,2024-01-23_10h17.05.413,bars,2023.2.3,Win32,60.24096386,657b66ea316d21385b68909f,,,,,,,,,,,,,,,,,,,,,,,,,,,,,,,,,,,,,,,,,,414.8319,415.0519,right,0.201,,415.052,5,2,416.052,0,17,17,17,1,8,4,9,5,,,,,,,,,,,,,,,,,,,,,,,,,,,,,,,,,,,,,,,,,
,,60f801efc0846c47e4e755e6,65af758691bb652b9495bfb3,2024-01-23_10h17.05.413,bars,2023.2.3,Win32,60.24096386,657b66ea316d21385b68909f,,,,,,,,,,,,,,,,,,,,,,,,,,,,,,,,,,,,,,,,,,416.0523,416.2823,left,0.2093,,416.2824,5,1,417.2838,0,18,18,18,1,6,2,5,1,,,,,,,,,,,,,,,,,,,,,,,,,,,,,,,,,,,,,,,,,
,,60f801efc0846c47e4e755e6,65af758691bb652b9495bfb3,2024-01-23_10h17.05.413,bars,2023.2.3,Win32,60.24096386,657b66ea316d21385b68909f,,,,,,,,,,,,,,,,,,,,,,,,,,,,,,,,,,,,,,,,,,417.2841,417.4998,left,0.1968,,417.4998,7,1,418.4987,0,19,19,19,1,8,0,7,0,,,,,,,,,,,,,,,,,,,,,,,,,,,,,,,,,,,,,,,,,
,,60f801efc0846c47e4e755e6,65af758691bb652b9495bfb3,2024-01-23_10h17.05.413,bars,2023.2.3,Win32,60.24096386,657b66ea316d21385b68909f,,,,,,,,,,,,,,,,,,,,,,,,,,,,,,,,,,,,,,,,,,,,,,,,,,,,,,,,,,,,418.5,422.272,space,3.7522,,,,,,,,,,,,,,,,,,,,,,,,,,,,,,,,,,,,,
,,60f801efc0846c47e4e755e6,65af758691bb652b9495bfb3,2024-01-23_10h17.05.413,bars,2023.2.3,Win32,60.24096386,657b66ea316d21385b68909f,,,,,,,,,,,422.8763,423.8685,,,424.3708,424.6189,,73,73,,,,,,,,,,,,,,,,bars/042.png,bars/mask000.png,,,,,,,,,,,,2,2,,,,,,,5,5,5,2,,,,,,422.2827,422.8725,space,0.5816,,423.869,424.3707,424.6195,426.5901,space,1.9508,,426.5902,72,2,427.5899,427.5901,432.9268,space,5.3196,,0,0,0,0,1,145,75,,,,,,,,
,,60f801efc0846c47e4e755e6,65af758691bb652b9495bfb3,2024-01-23_10h17.05.413,bars,2023.2.3,Win32,60.24096386,657b66ea316d21385b68909f,,,,,,,,,,,432.936,433.9432,,,434.4396,434.6899,,132,132,,,,,,,,,,,,,,,,bars/034.png,bars/mask005.png,,,,,,,,,,,,6,1,,,,,,,7,3,8,4,,,,,,,,,,,433.9432,434.4394,434.6901,436.078,space,1.3681,,436.0781,7,67,437.0777,437.0778,437.8292,space,0.7344,,0,1,1,1,1,125,65,,,,,,,,
,,60f801efc0846c47e4e755e6,65af758691bb652b9495bfb3,2024-01-23_10h17.05.413,bars,2023.2.3,Win32,60.24096386,657b66ea316d21385b68909f,,,,,,,,,,,437.8294,438.8252,,,439.3252,439.5774,,109,109,,,,,,,,,,,,,,,,bars/031.png,bars/mask006.png,,,,,,,,,,,,3,1,,,,,,,5,5,4,6,,,,,,,,,,,438.8253,439.3249,439.5774,441.0802,space,1.4846,,441.0802,11,74,442.0802,442.0803,442.4812,space,0.3843,,0,2,2,2,1,120,35,,,,,,,,
,,60f801efc0846c47e4e755e6,65af758691bb652b9495bfb3,2024-01-23_10h17.05.413,bars,2023.2.3,Win32,60.24096386,657b66ea316d21385b68909f,,,,,,,,,,,442.4815,443.4774,,,443.9824,444.2311,,88,-92,,,,,,,,,,,,,,,,bars/028.png,bars/mask001.png,,,,,,,,,,,,0,2,,,,,,,7,7,7,7,,,,,,,,,,,443.4776,443.9823,444.2311,446.566,space,2.3185,,446.566,43,32,447.5656,447.5657,450.785,space,3.2008,,0,3,3,3,1,45,120,,,,,,,,
,,60f801efc0846c47e4e755e6,65af758691bb652b9495bfb3,2024-01-23_10h17.05.413,bars,2023.2.3,Win32,60.24096386,657b66ea316d21385b68909f,,,,,,,,,,,450.7854,451.7845,,,452.2815,452.5316,,28,28,,,,,,,,,,,,,,,,bars/007.png,bars/mask004.png,,,,,,,,,,,,0,2,,,,,,,5,5,6,4,,,,,,,,,,,451.7845,452.2813,452.5317,453.8025,space,1.2511,,453.8026,33,27,454.8028,454.8029,455.2989,space,0.4716,,0,4,4,4,1,175,55,,,,,,,,
,,60f801efc0846c47e4e755e6,65af758691bb652b9495bfb3,2024-01-23_10h17.05.413,bars,2023.2.3,Win32,60.24096386,657b66ea316d21385b68909f,,,,,,,,,,,455.2999,456.3035,,,456.8034,457.0537,,174,-6,,,,,,,,,,,,,,,,bars/012.png,bars/mask009.png,,,,,,,,,,,,2,2,,,,,,,7,7,8,8,,,,,,,,,,,456.3035,456.8034,457.0537,458.0677,space,0.9927,,458.0678,84,21,459.071,459.071,459.5554,space,0.4673,,0,5,5,5,1,90,15,,,,,,,,
,,60f801efc0846c47e4e755e6,65af758691bb652b9495bfb3,2024-01-23_10h17.05.413,bars,2023.2.3,Win32,60.24096386,657b66ea316d21385b68909f,,,,,,,,,,,459.5557,460.5534,,,461.0538,461.3055,,96,96,,,,,,,,,,,,,,,,bars/026.png,bars/mask002.png,,,,,,,,,,,,6,2,,,,,,,9,9,7,9,,,,,,,,,,,460.5535,461.0538,461.3056,463.2569,space,1.9348,,463.257,61,11,464.253,464.253,464.9867,space,0.7051,,0,6,6,6,1,35,85,,,,,,,,
,,60f801efc0846c47e4e755e6,65af758691bb652b9495bfb3,2024-01-23_10h17.05.413,bars,2023.2.3,Win32,60.24096386,657b66ea316d21385b68909f,,,,,,,,,,,464.9877,465.9904,,,466.488,466.7415,,81,81,,,,,,,,,,,,,,,,bars/038.png,bars/mask004.png,,,,,,,,,,,,5,2,,,,,,,10,10,10,8,,,,,,,,,,,465.9904,466.4879,466.7415,468.8923,space,2.1344,,468.8923,84,11,469.8928,469.8928,470.3772,space,0.4677,,0,7,7,7,1,165,70,,,,,,,,
,,60f801efc0846c47e4e755e6,65af758691bb652b9495bfb3,2024-01-23_10h17.05.413,bars,2023.2.3,Win32,60.24096386,657b66ea316d21385b68909f,,,,,,,,,,,470.3776,471.3769,,,471.8768,472.1237,,137,137,,,,,,,,,,,,,,,,bars/032.png,bars/mask007.png,,,,,,,,,,,,6,1,,,,,,,10,10,10,10,,,,,,,,,,,471.3769,471.8768,472.1238,474.7792,space,2.6351,,474.7792,12,63,475.7788,475.7789,476.3965,space,0.6013,,0,8,8,8,1,125,20,,,,,,,,
,,60f801efc0846c47e4e755e6,65af758691bb652b9495bfb3,2024-01-23_10h17.05.413,bars,2023.2.3,Win32,60.24096386,657b66ea316d21385b68909f,,,,,,,,,,,476.3967,477.3955,,,477.8964,478.1427,,8,8,,,,,,,,,,,,,,,,bars/035.png,bars/mask005.png,,,,,,,,,,,,5,1,,,,,,,8,10,9,10,,,,,,,,,,,477.3955,477.8964,478.1428,479.4127,space,1.2498,,479.4128,13,52,480.4102,480.4104,481.0299,space,0.5992,,0,9,9,9,1,175,60,,,,,,,,
,,60f801efc0846c47e4e755e6,65af758691bb652b9495bfb3,2024-01-23_10h17.05.413,bars,2023.2.3,Win32,60.24096386,657b66ea316d21385b68909f,,,,,,,,,,,481.0303,482.0283,,,482.5319,482.7818,,61,61,,,,,,,,,,,,,,,,bars/026.png,bars/mask002.png,,,,,,,,,,,,1,2,,,,,,,6,8,7,7,,,,,,,,,,,482.0284,482.5319,482.7819,485.3835,space,2.5852,,485.3835,26,24,486.3798,486.38,487.1509,space,0.7502,,0,10,10,10,1,35,85,,,,,,,,
,,60f801efc0846c47e4e755e6,65af758691bb652b9495bfb3,2024-01-23_10h17.05.413,bars,2023.2.3,Win32,60.24096386,657b66ea316d21385b68909f,,,,,,,,,,,487.1513,488.1476,,,488.6512,488.9014,,151,151,,,,,,,,,,,,,,,,bars/049.png,bars/mask005.png,,,,,,,,,,,,4,1,,,,,,,4,6,5,5,,,,,,,,,,,488.1477,488.6511,488.9015,491.4191,space,2.5012,,491.4191,9,36,492.4159,492.416,492.9997,space,0.5582,,0,11,11,11,1,160,115,,,,,,,,
,,60f801efc0846c47e4e755e6,65af758691bb652b9495bfb3,2024-01-23_10h17.05.413,bars,2023.2.3,Win32,60.24096386,657b66ea316d21385b68909f,,,,,,,,,,,493.0005,494.0033,,,494.5004,494.75,,57,57,,,,,,,,,,,,,,,,bars/025.png,bars/mask004.png,,,,,,,,,,,,1,2,,,,,,,6,4,6,3,,,,,,,,,,,494.0034,494.5004,494.75,496.5555,space,1.7849,,496.5556,48,17,497.5556,497.5556,498.0394,space,0.4675,,0,12,12,12,1,105,40,,,,,,,,
,,60f801efc0846c47e4e755e6,65af758691bb652b9495bfb3,2024-01-23_10h17.05.413,bars,2023.2.3,Win32,60.24096386,657b66ea316d21385b68909f,,,,,,,,,,,498.0398,499.0394,,,499.5398,499.7859,,13,13,,,,,,,,,,,,,,,,bars/004.png,bars/mask003.png,,,,,,,,,,,,4,1,,,,,,,8,6,6,6,,,,,,,,,,,499.0395,499.5398,499.786,501.541,space,1.7348,,501.541,12,68,502.541,502.5411,502.8918,space,0.3331,,0,13,13,13,1,25,125,,,,,,,,
,,60f801efc0846c47e4e755e6,65af758691bb652b9495bfb3,2024-01-23_10h17.05.413,bars,2023.2.3,Win32,60.24096386,657b66ea316d21385b68909f,,,,,,,,,,,502.8921,503.8878,,,504.3887,504.64,,81,81,,,,,,,,,,,,,,,,bars/042.png,bars/mask003.png,,,,,,,,,,,,3,2,,,,,,,6,4,5,4,,,,,,,,,,,503.8879,504.3886,504.64,506.1936,space,1.5353,,506.1936,64,6,507.1924,507.1925,507.6396,space,0.4252,,0,14,14,14,1,145,75,,,,,,,,
,,60f801efc0846c47e4e755e6,65af758691bb652b9495bfb3,2024-01-23_10h17.05.413,bars,2023.2.3,Win32,60.24096386,657b66ea316d21385b68909f,,,,,,,,,,,507.6403,508.6394,,,509.1397,509.394,,4,184,,,,,,,,,,,,,,,,bars/039.png,bars/mask005.png,,,,,,,,,,,,2,1,,,,,,,4,2,3,2,,,,,,,,,,,508.6394,509.1396,509.394,512.2462,space,2.8353,,512.2463,9,79,513.2438,513.2438,513.7798,space,0.5173,,0,15,15,15,1,175,105,,,,,,,,
,,60f801efc0846c47e4e755e6,65af758691bb652b9495bfb3,2024-01-23_10h17.05.413,bars,2023.2.3,Win32,60.24096386,657b66ea316d21385b68909f,,,,,,,,,,,513.7801,514.7783,,,515.2765,515.5264,,99,99,,,,,,,,,,,,,,,,bars/031.png,bars/mask008.png,,,,,,,,,,,,1,1,,,,,,,2,4,3,5,,,,,,,,,,,514.7784,515.2764,515.5265,517.6153,space,2.0687,,517.6153,21,64,518.6145,518.6145,518.8988,space,0.2673,,0,16,16,16,1,120,35,,,,,,,,
,,60f801efc0846c47e4e755e6,65af758691bb652b9495bfb3,2024-01-23_10h17.05.413,bars,2023.2.3,Win32,60.24096386,657b66ea316d21385b68909f,,,,,,,,,,,518.8991,519.8955,,,520.3956,520.649,,84,84,,,,,,,,,,,,,,,,bars/019.png,bars/mask009.png,,,,,,,,,,,,1,2,,,,,,,0,2,0,4,,,,,,,,,,,519.8956,520.3955,520.649,521.9335,space,1.2681,,521.9336,39,21,522.9331,522.9332,524.2845,space,1.3327,,0,17,17,17,1,45,105,,,,,,,,
,,60f801efc0846c47e4e755e6,65af758691bb652b9495bfb3,2024-01-23_10h17.05.413,bars,2023.2.3,Win32,60.24096386,657b66ea316d21385b68909f,,,,,,,,,,,524.2849,525.2809,,,525.7844,526.0317,,78,78,,,,,,,,,,,,,,,,bars/042.png,bars/mask003.png,,,,,,,,,,,,1,2,,,,,,,0,0,2,1,,,,,,,,,,,525.281,525.7844,526.0318,527.636,space,1.5845,,527.636,67,3,528.6356,528.6356,528.7033,space,0.0505,,0,18,18,18,1,145,75,,,,,,,,
,,60f801efc0846c47e4e755e6,65af758691bb652b9495bfb3,2024-01-23_10h17.05.413,bars,2023.2.3,Win32,60.24096386,657b66ea316d21385b68909f,,,,,,,,,,,528.7036,529.703,,,530.2032,530.4533,,11,11,,,,,,,,,,,,,,,,bars/041.png,bars/mask004.png,,,,,,,,,,,,1,1,,,,,,,0,0,1,0,,,,,,,,,,,529.703,530.2032,530.4534,533.3049,space,2.8351,,533.3049,9,74,534.3015,534.3017,534.8058,space,0.4835,,0,19,19,19,1,20,85,,,,,,,,
,,60f801efc0846c47e4e755e6,65af758691bb652b9495bfb3,2024-01-23_10h17.05.413,bars,2023.2.3,Win32,60.24096386,657b66ea316d21385b68909f,,,,,,,,,,,534.8062,535.8018,,,536.3059,536.5544,,13,13,,,,,,,,,,,,,,,,bars/041.png,bars/mask008.png,,,,,,,,,,,,2,1,,,,,,,2,2,3,2,,,,,,,,,,,535.802,536.3059,536.5544,538.1578,space,1.5851,,538.1578,7,72,539.1573,539.1573,539.4411,space,0.2675,,0,20,20,20,1,20,85,,,,,,,,
,,60f801efc0846c47e4e755e6,65af758691bb652b9495bfb3,2024-01-23_10h17.05.413,bars,2023.2.3,Win32,60.24096386,657b66ea316d21385b68909f,,,,,,,,,,,539.4414,540.4411,,,540.9413,541.1883,,75,75,,,,,,,,,,,,,,,,bars/021.png,bars/mask006.png,,,,,,,,,,,,0,2,,,,,,,0,0,0,0,,,,,,,,,,,540.4411,540.9412,541.1885,542.4925,space,1.2848,,542.4926,80,5,543.4925,543.4925,544.2062,space,0.6883,,0,21,21,21,1,155,70,,,,,,,,
,,60f801efc0846c47e4e755e6,65af758691bb652b9495bfb3,2024-01-23_10h17.05.413,bars,2023.2.3,Win32,60.24096386,657b66ea316d21385b68909f,,,,,,,,,,,544.2069,545.2101,,,545.7068,545.9606,,150,-30,,,,,,,,,,,,,,,,bars/015.png,bars/mask009.png,,,,,,,,,,,,1,2,,,,,,,0,2,0,2,,,,,,,,,,,545.2101,545.7068,545.9606,548.024,space,2.044,,548.0243,40,10,549.0286,549.0286,549.0772,space,0.0318,,0,22,22,22,1,110,160,,,,,,,,
,,60f801efc0846c47e4e755e6,65af758691bb652b9495bfb3,2024-01-23_10h17.05.413,bars,2023.2.3,Win32,60.24096386,657b66ea316d21385b68909f,,,,,,,,,,,549.0776,550.0754,,,550.5755,550.8258,,1,1,,,,,,,,,,,,,,,,bars/005.png,bars/mask007.png,,,,,,,,,,,,1,1,,,,,,,2,4,2,6,,,,,,,,,,,550.0755,550.5751,550.8259,552.364,space,1.5182,,552.364,9,41,553.3643,553.3643,553.6936,space,0.3028,,0,23,23,23,1,10,140,,,,,,,,
,,60f801efc0846c47e4e755e6,65af758691bb652b9495bfb3,2024-01-23_10h17.05.413,bars,2023.2.3,Win32,60.24096386,657b66ea316d21385b68909f,,,,,,,,,,,553.6944,554.6943,,,555.1945,555.4477,,28,208,,,,,,,,,,,,,,,,bars/026.png,bars/mask000.png,,,,,,,,,,,,4,1,,,,,,,4,2,5,3,,,,,,,,,,,554.6944,555.1945,555.4477,557.0325,space,1.5681,,557.0325,7,57,558.0323,558.0323,558.2999,space,0.2509,,0,24,24,24,1,35,85,,,,,,,,
,,60f801efc0846c47e4e755e6,65af758691bb652b9495bfb3,2024-01-23_10h17.05.413,bars,2023.2.3,Win32,60.24096386,657b66ea316d21385b68909f,,,,,,,,,,,558.3001,559.2956,,,559.7961,560.0497,,169,-11,,,,,,,,,,,,,,,,bars/040.png,bars/mask000.png,,,,,,,,,,,,2,2,,,,,,,2,4,2,4,,,,,,,,,,,559.2957,559.796,560.0497,562.2018,space,2.1476,,562.2018,29,16,563.2016,563.2016,563.5356,space,0.3159,,0,25,25,25,1,140,5,,,,,,,,
,,60f801efc0846c47e4e755e6,65af758691bb652b9495bfb3,2024-01-23_10h17.05.413,bars,2023.2.3,Win32,60.24096386,657b66ea316d21385b68909f,,,,,,,,,,,563.5359,564.5314,,,565.0357,565.2854,,104,104,,,,,,,,,,,,,,,,bars/034.png,bars/mask004.png,,,,,,,,,,,,0,1,,,,,,,0,6,0,7,,,,,,,,,,,564.5314,565.0357,565.2855,566.7706,space,1.4682,,566.7706,21,39,567.7703,567.7703,568.2878,space,0.4991,,0,26,26,26,1,125,65,,,,,,,,
,,60f801efc0846c47e4e755e6,65af758691bb652b9495bfb3,2024-01-23_10h17.05.413,bars,2023.2.3,Win32,60.24096386,657b66ea316d21385b68909f,,,,,,,,,,,568.2882,569.2838,,,569.7842,570.0346,,151,-29,,,,,,,,,,,,,,,,bars/038.png,bars/mask000.png,,,,,,,,,,,,1,1,,,,,,,2,8,2,9,,,,,,,,,,,569.284,569.7841,570.0347,572.4894,space,2.435,,572.4895,14,81,573.4893,573.4893,573.8402,space,0.3339,,0,27,27,27,1,165,70,,,,,,,,
,,60f801efc0846c47e4e755e6,65af758691bb652b9495bfb3,2024-01-23_10h17.05.413,bars,2023.2.3,Win32,60.24096386,657b66ea316d21385b68909f,,,,,,,,,,,573.8405,574.8359,,,575.3406,575.5869,,66,246,,,,,,,,,,,,,,,,bars/004.png,bars/mask006.png,,,,,,,,,,,,0,1,,,,,,,0,6,0,5,,,,,,,,,,,574.836,575.3405,575.5871,578.8761,space,3.2693,,578.8761,41,59,579.8757,579.8757,579.958,space,0.0656,,0,28,28,28,1,25,125,,,,,,,,
,,60f801efc0846c47e4e755e6,65af758691bb652b9495bfb3,2024-01-23_10h17.05.413,bars,2023.2.3,Win32,60.24096386,657b66ea316d21385b68909f,,,,,,,,,,,579.9585,580.9559,,,581.4598,581.71,,148,-32,,,,,,,,,,,,,,,,bars/018.png,bars/mask008.png,,,,,,,,,,,,0,1,,,,,,,0,4,0,4,,,,,,,,,,,580.956,581.4598,581.7101,583.9409,space,2.2082,,583.941,2,58,584.941,584.9412,585.8291,space,0.8679,,0,29,29,29,1,150,90,,,,,,,,
,,60f801efc0846c47e4e755e6,65af758691bb652b9495bfb3,2024-01-23_10h17.05.413,bars,2023.2.3,Win32,60.24096386,657b66ea316d21385b68909f,,,,,,,,,,,585.8294,586.8289,,,587.329,587.5756,,2,2,,,,,,,,,,,,,,,,bars/032.png,bars/mask007.png,,,,,,,,,,,,3,2,,,,,,,2,6,2,7,,,,,,,,,,,586.829,587.329,587.5758,589.6802,space,2.0845,,589.6803,57,18,590.6771,590.6773,590.9477,space,0.2504,,0,30,30,30,1,125,20,,,,,,,,
,,60f801efc0846c47e4e755e6,65af758691bb652b9495bfb3,2024-01-23_10h17.05.413,bars,2023.2.3,Win32,60.24096386,657b66ea316d21385b68909f,,,,,,,,,,,590.9479,591.9447,,,592.4483,592.6979,,48,228,,,,,,,,,,,,,,,,bars/031.png,bars/mask002.png,,,,,,,,,,,,2,2,,,,,,,0,4,0,4,,,,,,,,,,,591.9448,592.4482,592.6979,595.4459,space,2.7285,,595.4461,72,13,596.4495,596.4496,596.8467,space,0.3723,,0,31,31,31,1,120,35,,,,,,,,
,,60f801efc0846c47e4e755e6,65af758691bb652b9495bfb3,2024-01-23_10h17.05.413,bars,2023.2.3,Win32,60.24096386,657b66ea316d21385b68909f,,,,,,,,,,,596.8476,597.8504,,,598.351,598.6008,,69,69,,,,,,,,,,,,,,,,bars/021.png,bars/mask001.png,,,,,,,,,,,,5,2,,,,,,,2,6,2,5,,,,,,,,,,,597.8505,598.3509,598.6009,600.1501,space,1.5326,,600.1501,86,1,601.1521,601.1522,601.398,space,0.2246,,0,32,32,32,1,155,70,,,,,,,,
,,60f801efc0846c47e4e755e6,65af758691bb652b9495bfb3,2024-01-23_10h17.05.413,bars,2023.2.3,Win32,60.24096386,657b66ea316d21385b68909f,,,,,,,,,,,601.3991,602.4024,,,602.9028,603.1527,,95,95,,,,,,,,,,,,,,,,bars/009.png,bars/mask001.png,,,,,,,,,,,,3,2,,,,,,,4,4,4,5,,,,,,,,,,,602.4024,602.9028,603.1527,605.1334,space,1.9618,,605.1336,80,10,606.1357,606.1358,606.7339,space,0.5774,,0,33,33,33,1,15,105,,,,,,,,
,,60f801efc0846c47e4e755e6,65af758691bb652b9495bfb3,2024-01-23_10h17.05.413,bars,2023.2.3,Win32,60.24096386,657b66ea316d21385b68909f,,,,,,,,,,,606.735,607.7386,,,608.2384,608.4854,,64,64,,,,,,,,,,,,,,,,bars/029.png,bars/mask000.png,,,,,,,,,,,,1,2,,,,,,,2,2,2,2,,,,,,,,,,,607.7386,608.2383,608.4856,609.8398,space,1.3349,,609.8398,26,19,610.8394,610.8395,611.374,space,0.5178,,0,34,34,34,1,90,45,,,,,,,,
,,60f801efc0846c47e4e755e6,65af758691bb652b9495bfb3,2024-01-23_10h17.05.413,bars,2023.2.3,Win32,60.24096386,657b66ea316d21385b68909f,,,,,,,,,,,611.3744,612.3736,,,612.8738,613.1239,,45,45,,,,,,,,,,,,,,,,bars/017.png,bars/mask000.png,,,,,,,,,,,,0,2,,,,,,,0,0,0,0,,,,,,,,,,,612.3736,612.8738,613.124,615.2254,space,2.0848,,615.2255,80,0,616.2256,616.2256,617.4267,space,1.1843,,0,35,35,35,1,145,45,,,,,,,,
,,60f801efc0846c47e4e755e6,65af758691bb652b9495bfb3,2024-01-23_10h17.05.413,bars,2023.2.3,Win32,60.24096386,657b66ea316d21385b68909f,,,,,,,,,,,617.4272,618.4245,,,618.9231,619.1732,,87,87,,,,,,,,,,,,,,,,bars/011.png,bars/mask006.png,,,,,,,,,,,,2,2,,,,,,,2,2,3,2,,,,,,,,,,,618.4245,618.923,619.1732,621.3119,space,2.1183,,621.3119,73,2,622.3084,622.3084,622.479,space,0.1506,,0,36,36,36,1,160,85,,,,,,,,
,,60f801efc0846c47e4e755e6,65af758691bb652b9495bfb3,2024-01-23_10h17.05.413,bars,2023.2.3,Win32,60.24096386,657b66ea316d21385b68909f,,,,,,,,,,,622.4793,623.4768,,,623.9789,624.2261,,87,87,,,,,,,,,,,,,,,,bars/018.png,bars/mask000.png,,,,,,,,,,,,0,2,,,,,,,4,0,3,0,,,,,,,,,,,623.4769,623.9789,624.2262,626.5974,space,2.3518,,626.5975,63,3,627.5931,627.5932,627.9433,space,0.3238,,0,37,37,37,1,150,90,,,,,,,,
,,60f801efc0846c47e4e755e6,65af758691bb652b9495bfb3,2024-01-23_10h17.05.413,bars,2023.2.3,Win32,60.24096386,657b66ea316d21385b68909f,,,,,,,,,,,627.9445,628.9445,,,629.4452,629.6982,,148,148,,,,,,,,,,,,,,,,bars/015.png,bars/mask008.png,,,,,,,,,,,,2,2,,,,,,,2,2,2,3,,,,,,,,,,,628.9447,629.4447,629.6982,630.9155,space,1.2013,,630.9156,38,12,631.9156,631.9157,632.2168,space,0.2841,,0,38,38,38,1,110,160,,,,,,,,
,,60f801efc0846c47e4e755e6,65af758691bb652b9495bfb3,2024-01-23_10h17.05.413,bars,2023.2.3,Win32,60.24096386,657b66ea316d21385b68909f,,,,,,,,,,,632.2171,633.2134,,,633.7132,633.9635,,99,99,,,,,,,,,,,,,,,,bars/025.png,bars/mask001.png,,,,,,,,,,,,4,1,,,,,,,4,4,5,5,,,,,,,,,,,633.2135,633.7131,633.9636,636.1678,space,2.1847,,636.1678,6,59,637.1644,637.1648,637.269,space,0.084,,0,39,39,39,1,105,40,,,,,,,,
,,60f801efc0846c47e4e755e6,65af758691bb652b9495bfb3,2024-01-23_10h17.05.413,bars,2023.2.3,Win32,60.24096386,657b66ea316d21385b68909f,,,,,,,,,,,637.2694,638.2647,,,638.7688,639.0154,,42,42,,,,,,,,,,,,,,,,bars/028.png,bars/mask000.png,,,,,,,,,,,,5,1,,,,,,,6,2,6,1,,,,,,,,,,,638.2649,638.7688,639.0155,640.8201,space,1.7848,,640.8201,3,78,641.8168,641.8169,642.0549,space,0.218,,0,40,40,40,1,45,120,,,,,,,,
,,60f801efc0846c47e4e755e6,65af758691bb652b9495bfb3,2024-01-23_10h17.05.413,bars,2023.2.3,Win32,60.24096386,657b66ea316d21385b68909f,,,,,,,,,,,642.0552,643.0543,,,643.5546,643.8044,,149,149,,,,,,,,,,,,,,,,bars/040.png,bars/mask008.png,,,,,,,,,,,,2,1,,,,,,,4,4,3,4,,,,,,,,,,,643.0543,643.5546,643.8044,645.389,space,1.5679,,645.389,9,36,646.386,646.3861,646.6061,space,0.2004,,0,41,41,41,1,140,5,,,,,,,,
,,60f801efc0846c47e4e755e6,65af758691bb652b9495bfb3,2024-01-23_10h17.05.413,bars,2023.2.3,Win32,60.24096386,657b66ea316d21385b68909f,,,,,,,,,,,646.6065,647.6024,,,648.1024,648.3564,,53,53,,,,,,,,,,,,,,,,bars/047.png,bars/mask009.png,,,,,,,,,,,,0,2,,,,,,,6,2,5,1,,,,,,,,,,,647.6025,648.1024,648.3565,649.8581,space,1.485,,649.8581,38,17,650.8581,650.8582,651.1754,space,0.2994,,0,42,42,42,1,15,70,,,,,,,,
,,60f801efc0846c47e4e755e6,65af758691bb652b9495bfb3,2024-01-23_10h17.05.413,bars,2023.2.3,Win32,60.24096386,657b66ea316d21385b68909f,,,,,,,,,,,651.1758,652.1746,,,652.673,652.9235,,18,198,,,,,,,,,,,,,,,,bars/035.png,bars/mask004.png,,,,,,,,,,,,2,1,,,,,,,8,0,8,0,,,,,,,,,,,652.1746,652.673,652.9235,655.1772,space,2.2351,,655.1772,23,42,656.1732,656.1733,656.2609,space,0.0675,,0,43,43,43,1,175,60,,,,,,,,
,,60f801efc0846c47e4e755e6,65af758691bb652b9495bfb3,2024-01-23_10h17.05.413,bars,2023.2.3,Win32,60.24096386,657b66ea316d21385b68909f,,,,,,,,,,,656.2612,657.2566,,,657.7445,657.9907,,133,133,,,,,,,,,,,,,,,,bars/011.png,bars/mask005.png,,,,,,,,,,,,1,1,,,,,,,6,2,7,0,,,,,,,,,,,657.2567,657.7445,657.9908,659.5121,space,1.5013,,659.5121,27,48,660.5082,660.5083,660.6296,space,0.1009,,0,44,44,44,1,160,85,,,,,,,,
,,60f801efc0846c47e4e755e6,65af758691bb652b9495bfb3,2024-01-23_10h17.05.413,bars,2023.2.3,Win32,60.24096386,657b66ea316d21385b68909f,,,,,,,,,,,660.6299,661.6295,,,662.1258,662.3766,,41,41,,,,,,,,,,,,,,,,bars/007.png,bars/mask004.png,,,,,,,,,,,,3,2,,,,,,,4,4,5,5,,,,,,,,,,,661.6295,662.1257,662.3767,663.9476,space,1.5516,,663.9476,46,14,664.9435,664.9437,665.0648,space,0.1007,,0,45,45,45,1,175,55,,,,,,,,
,,60f801efc0846c47e4e755e6,65af758691bb652b9495bfb3,2024-01-23_10h17.05.413,bars,2023.2.3,Win32,60.24096386,657b66ea316d21385b68909f,,,,,,,,,,,665.065,666.0643,,,666.5646,666.8149,,169,-11,,,,,,,,,,,,,,,,bars/014.png,bars/mask004.png,,,,,,,,,,,,3,2,,,,,,,6,6,7,4,,,,,,,,,,,666.0643,666.5646,666.8149,669.0624,space,2.2223,,669.0625,89,11,670.0661,670.0661,670.0843,space,0.001,,0,46,46,46,1,80,0,,,,,,,,
,,60f801efc0846c47e4e755e6,65af758691bb652b9495bfb3,2024-01-23_10h17.05.413,bars,2023.2.3,Win32,60.24096386,657b66ea316d21385b68909f,,,,,,,,,,,670.0845,671.0833,,,671.5805,671.83,,110,110,,,,,,,,,,,,,,,,bars/028.png,bars/mask006.png,,,,,,,,,,,,4,2,,,,,,,4,8,3,6,,,,,,,,,,,671.0833,671.5804,671.8303,673.7186,space,1.8682,,673.7186,65,10,674.7154,674.7155,674.9321,space,0.1866,,0,47,47,47,1,45,120,,,,,,,,
,,60f801efc0846c47e4e755e6,65af758691bb652b9495bfb3,2024-01-23_10h17.05.413,bars,2023.2.3,Win32,60.24096386,657b66ea316d21385b68909f,,,,,,,,,,,674.9329,675.9343,,,676.4343,676.6828,,80,80,,,,,,,,,,,,,,,,bars/046.png,bars/mask007.png,,,,,,,,,,,,8,2,,,,,,,6,10,7,10,,,,,,,,,,,675.9343,676.4343,676.6828,679.0041,space,2.3016,,679.0041,75,5,680.0008,680.001,680.2842,space,0.2618,,0,48,48,48,1,155,85,,,,,,,,
,,60f801efc0846c47e4e755e6,65af758691bb652b9495bfb3,2024-01-23_10h17.05.413,bars,2023.2.3,Win32,60.24096386,657b66ea316d21385b68909f,,,,,,,,,,,680.2851,681.2881,,,681.7848,682.0366,,41,41,,,,,,,,,,,,,,,,bars/007.png,bars/mask001.png,,,,,,,,,,,,5,2,,,,,,,8,10,8,10,,,,,,,,,,,681.2881,681.7848,682.0366,683.4566,space,1.4013,,683.4566,46,14,684.4558,684.4558,684.7041,space,0.2312,,0,49,49,49,1,175,55,,,,,,,,
,,60f801efc0846c47e4e755e6,65af758691bb652b9495bfb3,2024-01-23_10h17.05.413,bars,2023.2.3,Win32,60.24096386,657b66ea316d21385b68909f,,,,,,,,,,,,,,,,,,,,,,,,,,,,,,,,,,,,,,,,,,,,,,,,,,,,,,,,,,,,,,,,,,,,,,,,,,,,,,,,,,,,,,,,,,,,,684.7048,744.7009,0,0,0,1,1,sequence_tables/blk011.csv
,,60f801efc0846c47e4e755e6,65af758691bb652b9495bfb3,2024-01-23_10h17.05.413,bars,2023.2.3,Win32,60.24096386,657b66ea316d21385b68909f,,,,,,,,,,,746.8735,747.868,,,748.3654,748.6185,,107,107,,,,,,,,,,,,,,,,bars/015.png,bars/mask003.png,,,,,,,,,,,,6,1,,,,,,,7,3,7,3,,,,,,744.7105,746.8682,space,2.1513,,747.8681,748.3653,748.6185,750.1196,space,1.4848,,750.1197,3,53,751.1177,751.1178,751.1277,,,,0,0,0,0,1,110,160,,,,,,,,
,,60f801efc0846c47e4e755e6,65af758691bb652b9495bfb3,2024-01-23_10h17.05.413,bars,2023.2.3,Win32,60.24096386,657b66ea316d21385b68909f,,,,,,,,,,,751.128,752.1164,,,752.6209,752.8674,,179,-1,,,,,,,,,,,,,,,,bars/007.png,bars/mask006.png,,,,,,,,,,,,6,1,,,,,,,5,1,7,0,,,,,,,,,,,752.1167,752.6209,752.8675,754.1846,space,1.2938,,754.1847,4,56,755.1862,755.1863,755.196,,,,0,1,1,1,1,175,55,,,,,,,,
,,60f801efc0846c47e4e755e6,65af758691bb652b9495bfb3,2024-01-23_10h17.05.413,bars,2023.2.3,Win32,60.24096386,657b66ea316d21385b68909f,,,,,,,,,,,755.1962,756.1851,,,756.6882,756.939,,66,246,,,,,,,,,,,,,,,,bars/034.png,bars/mask005.png,,,,,,,,,,,,2,2,,,,,,,7,3,4,2,,,,,,,,,,,756.1852,756.6882,756.939,759.7745,space,2.8187,,759.7745,59,1,760.7738,760.7738,760.7844,,,,0,2,2,2,1,125,65,,,,,,,,
,,60f801efc0846c47e4e755e6,65af758691bb652b9495bfb3,2024-01-23_10h17.05.413,bars,2023.2.3,Win32,60.24096386,657b66ea316d21385b68909f,,,,,,,,,,,760.7846,761.7743,,,762.2743,762.525,,116,116,,,,,,,,,,,,,,,,bars/001.png,bars/mask000.png,,,,,,,,,,,,5,1,,,,,,,9,5,10,5,,,,,,,,,,,761.7743,762.2743,762.525,764.2258,space,1.6848,,764.2258,14,31,765.2258,765.2258,765.2362,,,,0,3,3,3,1,130,85,,,,,,,,
,,60f801efc0846c47e4e755e6,65af758691bb652b9495bfb3,2024-01-23_10h17.05.413,bars,2023.2.3,Win32,60.24096386,657b66ea316d21385b68909f,,,,,,,,,,,765.2363,766.2432,,,766.7434,766.9901,,34,34,,,,,,,,,,,,,,,,bars/035.png,bars/mask006.png,,,,,,,,,,,,1,2,,,,,,,10,7,10,6,,,,,,,,,,,766.2433,766.7434,766.9902,769.2617,space,2.2513,,769.2617,39,26,770.2575,770.2576,770.2685,,,,0,4,4,4,1,175,60,,,,,,,,
,,60f801efc0846c47e4e755e6,65af758691bb652b9495bfb3,2024-01-23_10h17.05.413,bars,2023.2.3,Win32,60.24096386,657b66ea316d21385b68909f,,,,,,,,,,,770.2686,771.2623,,,771.7627,772.0122,,20,20,,,,,,,,,,,,,,,,bars/035.png,bars/mask001.png,,,,,,,,,,,,2,1,,,,,,,10,5,10,5,,,,,,,,,,,771.2623,771.7627,772.0123,774.0477,space,2.0189,,774.0477,25,40,775.0438,775.0439,775.0458,,,,0,5,5,5,1,175,60,,,,,,,,
,,60f801efc0846c47e4e755e6,65af758691bb652b9495bfb3,2024-01-23_10h17.05.413,bars,2023.2.3,Win32,60.24096386,657b66ea316d21385b68909f,,,,,,,,,,,775.046,776.0436,,,776.5463,776.794,,99,279,,,,,,,,,,,,,,,,bars/041.png,bars/mask000.png,,,,,,,,,,,,4,2,,,,,,,10,7,10,7,,,,,,,,,,,776.0436,776.5463,776.7942,779.5994,space,2.7854,,779.5994,79,14,780.5995,780.5995,780.6103,,,,0,6,6,6,1,20,85,,,,,,,,
,,60f801efc0846c47e4e755e6,65af758691bb652b9495bfb3,2024-01-23_10h17.05.413,bars,2023.2.3,Win32,60.24096386,657b66ea316d21385b68909f,,,,,,,,,,,780.6105,781.5996,,,782.0963,782.3504,,86,86,,,,,,,,,,,,,,,,bars/026.png,bars/mask002.png,,,,,,,,,,,,6,2,,,,,,,8,5,8,6,,,,,,,,,,,781.5997,782.0962,782.3505,784.7685,space,2.4017,,784.7686,51,1,785.7647,785.7648,785.7745,,,,0,7,7,7,1,35,85,,,,,,,,
,,60f801efc0846c47e4e755e6,65af758691bb652b9495bfb3,2024-01-23_10h17.05.413,bars,2023.2.3,Win32,60.24096386,657b66ea316d21385b68909f,,,,,,,,,,,785.7747,786.7673,,,787.2661,787.5157,,140,140,,,,,,,,,,,,,,,,bars/004.png,bars/mask002.png,,,,,,,,,,,,4,2,,,,,,,6,7,4,7,,,,,,,,,,,786.7674,787.2661,787.5158,790.0543,space,2.5184,,790.0543,65,15,791.0525,791.0526,791.0618,,,,0,8,8,8,1,25,125,,,,,,,,
,,60f801efc0846c47e4e755e6,65af758691bb652b9495bfb3,2024-01-23_10h17.05.413,bars,2023.2.3,Win32,60.24096386,657b66ea316d21385b68909f,,,,,,,,,,,791.0619,792.0517,,,792.5548,792.8014,,147,147,,,,,,,,,,,,,,,,bars/004.png,bars/mask007.png,,,,,,,,,,,,2,2,,,,,,,4,9,4,9,,,,,,,,,,,792.0519,792.5548,792.8018,793.806,space,0.9843,,793.806,58,22,794.8059,794.8059,794.8065,,,,0,9,9,9,1,25,125,,,,,,,,
,,60f801efc0846c47e4e755e6,65af758691bb652b9495bfb3,2024-01-23_10h17.05.413,bars,2023.2.3,Win32,60.24096386,657b66ea316d21385b68909f,,,,,,,,,,,794.8067,795.8064,,,796.307,796.5566,,91,91,,,,,,,,,,,,,,,,bars/026.png,bars/mask001.png,,,,,,,,,,,,4,2,,,,,,,2,7,3,5,,,,,,,,,,,795.8064,796.307,796.5566,798.4751,space,1.9017,,798.4751,56,6,799.471,799.4715,799.473,,,,0,10,10,10,1,35,85,,,,,,,,
,,60f801efc0846c47e4e755e6,65af758691bb652b9495bfb3,2024-01-23_10h17.05.413,bars,2023.2.3,Win32,60.24096386,657b66ea316d21385b68909f,,,,,,,,,,,799.4733,800.4716,,,800.9722,801.2221,,135,135,,,,,,,,,,,,,,,,bars/049.png,bars/mask001.png,,,,,,,,,,,,2,2,,,,,,,0,5,0,6,,,,,,,,,,,800.472,800.972,801.2222,803.1436,space,1.9015,,803.1436,25,20,804.1418,804.1418,804.1511,,,,0,11,11,11,1,160,115,,,,,,,,
,,60f801efc0846c47e4e755e6,65af758691bb652b9495bfb3,2024-01-23_10h17.05.413,bars,2023.2.3,Win32,60.24096386,657b66ea316d21385b68909f,,,,,,,,,,,804.1512,805.1405,,,805.6409,805.8941,,101,101,,,,,,,,,,,,,,,,bars/011.png,bars/mask007.png,,,,,,,,,,,,1,2,,,,,,,0,3,1,2,,,,,,,,,,,805.1408,805.6408,805.8941,808.2627,space,2.3516,,808.2627,59,16,809.259,809.2592,809.2691,,,,0,12,12,12,1,160,85,,,,,,,,
,,60f801efc0846c47e4e755e6,65af758691bb652b9495bfb3,2024-01-23_10h17.05.413,bars,2023.2.3,Win32,60.24096386,657b66ea316d21385b68909f,,,,,,,,,,,809.2694,810.2628,,,810.7633,811.0097,,94,94,,,,,,,,,,,,,,,,bars/002.png,bars/mask002.png,,,,,,,,,,,,1,2,,,,,,,0,1,0,1,,,,,,,,,,,810.2628,810.7633,811.0099,812.1809,space,1.1509,,812.181,36,9,813.1811,813.1811,813.1818,,,,0,13,13,13,1,130,85,,,,,,,,
,,60f801efc0846c47e4e755e6,65af758691bb652b9495bfb3,2024-01-23_10h17.05.413,bars,2023.2.3,Win32,60.24096386,657b66ea316d21385b68909f,,,,,,,,,,,813.1821,814.1812,,,814.6786,814.9284,,23,23,,,,,,,,,,,,,,,,bars/013.png,bars/mask003.png,,,,,,,,,,,,2,2,,,,,,,2,3,4,4,,,,,,,,,,,814.1812,814.6784,814.9286,816.2162,space,1.2678,,816.2162,52,13,817.2162,817.2162,817.2169,,,,0,14,14,14,1,75,10,,,,,,,,
,,60f801efc0846c47e4e755e6,65af758691bb652b9495bfb3,2024-01-23_10h17.05.413,bars,2023.2.3,Win32,60.24096386,657b66ea316d21385b68909f,,,,,,,,,,,817.2171,818.2163,,,818.7149,818.9667,,173,-7,,,,,,,,,,,,,,,,bars/045.png,bars/mask003.png,,,,,,,,,,,,2,2,,,,,,,4,5,4,5,,,,,,,,,,,818.2163,818.7149,818.9667,820.7018,space,1.7181,,820.7018,73,17,821.6978,821.6979,821.6993,,,,0,15,15,15,1,100,10,,,,,,,,
,,60f801efc0846c47e4e755e6,65af758691bb652b9495bfb3,2024-01-23_10h17.05.413,bars,2023.2.3,Win32,60.24096386,657b66ea316d21385b68909f,,,,,,,,,,,821.6996,822.7018,,,823.1995,823.4483,,53,233,,,,,,,,,,,,,,,,bars/010.png,bars/mask001.png,,,,,,,,,,,,6,2,,,,,,,6,7,4,6,,,,,,,,,,,822.7019,823.1994,823.4487,825.1203,space,1.6519,,825.1203,68,2,826.1164,826.1165,826.1178,,,,0,16,16,16,1,165,55,,,,,,,,
,,60f801efc0846c47e4e755e6,65af758691bb652b9495bfb3,2024-01-23_10h17.05.413,bars,2023.2.3,Win32,60.24096386,657b66ea316d21385b68909f,,,,,,,,,,,826.118,827.1172,,,827.621,827.8708,,58,238,,,,,,,,,,,,,,,,bars/021.png,bars/mask001.png,,,,,,,,,,,,3,2,,,,,,,4,5,5,5,,,,,,,,,,,827.1175,827.621,827.8708,830.0891,space,2.2015,,830.0891,83,12,831.0888,831.0888,831.0985,,,,0,17,17,17,1,155,70,,,,,,,,
,,60f801efc0846c47e4e755e6,65af758691bb652b9495bfb3,2024-01-23_10h17.05.413,bars,2023.2.3,Win32,60.24096386,657b66ea316d21385b68909f,,,,,,,,,,,831.0988,832.1043,,,832.6029,832.8564,,80,80,,,,,,,,,,,,,,,,bars/019.png,bars/mask009.png,,,,,,,,,,,,0,2,,,,,,,6,3,5,3,,,,,,,,,,,832.1043,832.6027,832.8564,834.9749,space,2.102,,834.9749,35,25,835.9708,835.9709,835.9721,,,,0,18,18,18,1,45,105,,,,,,,,
,,60f801efc0846c47e4e755e6,65af758691bb652b9495bfb3,2024-01-23_10h17.05.413,bars,2023.2.3,Win32,60.24096386,657b66ea316d21385b68909f,,,,,,,,,,,835.9724,836.9712,,,837.472,837.7214,,1,1,,,,,,,,,,,,,,,,bars/008.png,bars/mask007.png,,,,,,,,,,,,0,2,,,,,,,4,1,5,0,,,,,,,,,,,836.9714,837.472,837.7215,840.0104,space,2.2682,,840.0104,71,1,841.0062,841.0062,841.0159,,,,0,19,19,19,1,110,0,,,,,,,,
,,60f801efc0846c47e4e755e6,65af758691bb652b9495bfb3,2024-01-23_10h17.05.413,bars,2023.2.3,Win32,60.24096386,657b66ea316d21385b68909f,,,,,,,,,,,841.0161,842.0067,,,842.5091,842.7574,,107,107,,,,,,,,,,,,,,,,bars/012.png,bars/mask005.png,,,,,,,,,,,,1,1,,,,,,,2,3,2,3,,,,,,,,,,,842.0067,842.509,842.7576,844.729,space,1.9517,,844.729,17,88,845.725,845.7252,845.7275,,,,0,20,20,20,1,90,15,,,,,,,,
,,60f801efc0846c47e4e755e6,65af758691bb652b9495bfb3,2024-01-23_10h17.05.413,bars,2023.2.3,Win32,60.24096386,657b66ea316d21385b68909f,,,,,,,,,,,845.7277,846.7292,,,847.2263,847.4764,,8,188,,,,,,,,,,,,,,,,bars/039.png,bars/mask002.png,,,,,,,,,,,,2,1,,,,,,,4,5,4,4,,,,,,,,,,,846.7292,847.2262,847.4765,850.4816,space,2.9851,,850.4816,13,83,851.4782,851.4783,851.4882,,,,0,21,21,21,1,175,105,,,,,,,,
,,60f801efc0846c47e4e755e6,65af758691bb652b9495bfb3,2024-01-23_10h17.05.413,bars,2023.2.3,Win32,60.24096386,657b66ea316d21385b68909f,,,,,,,,,,,851.4883,852.4817,,,852.9819,853.2322,,94,94,,,,,,,,,,,,,,,,bars/008.png,bars/mask007.png,,,,,,,,,,,,1,1,,,,,,,2,3,3,2,,,,,,,,,,,852.4817,852.9818,853.2322,855.2837,space,2.0349,,855.2838,16,86,856.2834,856.2834,856.2842,,,,0,22,22,22,1,110,0,,,,,,,,
,,60f801efc0846c47e4e755e6,65af758691bb652b9495bfb3,2024-01-23_10h17.05.413,bars,2023.2.3,Win32,60.24096386,657b66ea316d21385b68909f,,,,,,,,,,,856.2845,857.2836,,,857.7839,858.0339,,161,-19,,,,,,,,,,,,,,,,bars/013.png,bars/mask001.png,,,,,,,,,,,,0,2,,,,,,,0,1,1,0,,,,,,,,,,,857.2836,857.7839,858.034,859.8357,space,1.7851,,859.8358,86,29,860.8325,860.8326,860.8343,,,,0,23,23,23,1,75,10,,,,,,,,
,,60f801efc0846c47e4e755e6,65af758691bb652b9495bfb3,2024-01-23_10h17.05.413,bars,2023.2.3,Win32,60.24096386,657b66ea316d21385b68909f,,,,,,,,,,,860.8345,861.8328,,,862.3363,862.5861,,83,83,,,,,,,,,,,,,,,,bars/021.png,bars/mask002.png,,,,,,,,,,,,1,2,,,,,,,0,0,0,1,,,,,,,,,,,861.8329,862.3362,862.5862,864.8215,space,2.2184,,864.8215,72,13,865.8214,865.8214,865.8308,,,,0,24,24,24,1,155,70,,,,,,,,
,,60f801efc0846c47e4e755e6,65af758691bb652b9495bfb3,2024-01-23_10h17.05.413,bars,2023.2.3,Win32,60.24096386,657b66ea316d21385b68909f,,,,,,,,,,,865.831,866.8222,,,867.3203,867.5723,,49,49,,,,,,,,,,,,,,,,bars/022.png,bars/mask000.png,,,,,,,,,,,,0,2,,,,,,,0,0,0,1,,,,,,,,,,,866.8222,867.3203,867.5723,869.8905,space,2.3019,,869.8906,46,29,870.8868,870.8868,870.8881,,,,0,25,25,25,1,95,20,,,,,,,,
,,60f801efc0846c47e4e755e6,65af758691bb652b9495bfb3,2024-01-23_10h17.05.413,bars,2023.2.3,Win32,60.24096386,657b66ea316d21385b68909f,,,,,,,,,,,870.8883,871.8908,,,872.3914,872.6383,,150,150,,,,,,,,,,,,,,,,bars/015.png,bars/mask003.png,,,,,,,,,,,,0,2,,,,,,,0,0,1,0,,,,,,,,,,,871.8909,872.3914,872.6383,874.6581,space,2.0003,,874.6581,40,10,875.6554,875.6554,875.6652,,,,0,26,26,26,1,110,160,,,,,,,,
,,60f801efc0846c47e4e755e6,65af758691bb652b9495bfb3,2024-01-23_10h17.05.413,bars,2023.2.3,Win32,60.24096386,657b66ea316d21385b68909f,,,,,,,,,,,875.6653,876.6597,,,877.16,877.406,,143,143,,,,,,,,,,,,,,,,bars/003.png,bars/mask008.png,,,,,,,,,,,,2,2,,,,,,,0,2,1,2,,,,,,,,,,,876.6597,877.16,877.4066,878.6111,space,1.1849,,878.6112,62,3,879.6072,879.6073,879.6085,,,,0,27,27,27,1,25,140,,,,,,,,
,,60f801efc0846c47e4e755e6,65af758691bb652b9495bfb3,2024-01-23_10h17.05.413,bars,2023.2.3,Win32,60.24096386,657b66ea316d21385b68909f,,,,,,,,,,,879.6088,880.6113,,,881.1088,881.3577,,80,80,,,,,,,,,,,,,,,,bars/030.png,bars/mask002.png,,,,,,,,,,,,3,2,,,,,,,2,4,1,6,,,,,,,,,,,880.6113,881.1088,881.3578,883.2638,space,1.8855,,883.2638,60,15,884.2611,884.2612,884.2709,,,,0,28,28,28,1,140,65,,,,,,,,
,,60f801efc0846c47e4e755e6,65af758691bb652b9495bfb3,2024-01-23_10h17.05.413,bars,2023.2.3,Win32,60.24096386,657b66ea316d21385b68909f,,,,,,,,,,,884.2711,885.2635,,,885.76,886.0136,,110,110,,,,,,,,,,,,,,,,bars/039.png,bars/mask002.png,,,,,,,,,,,,2,2,,,,,,,0,2,0,2,,,,,,,,,,,885.2635,885.7599,886.0136,887.4155,space,1.3854,,887.4155,65,5,888.4113,888.4116,888.4127,,,,0,29,29,29,1,175,105,,,,,,,,
,,60f801efc0846c47e4e755e6,65af758691bb652b9495bfb3,2024-01-23_10h17.05.413,bars,2023.2.3,Win32,60.24096386,657b66ea316d21385b68909f,,,,,,,,,,,888.413,889.4153,,,889.9125,890.1655,,128,128,,,,,,,,,,,,,,,,bars/000.png,bars/mask008.png,,,,,,,,,,,,3,2,,,,,,,0,4,1,6,,,,,,,,,,,889.4153,889.9124,890.1655,892.55,space,2.3681,,892.55,88,17,893.5491,893.5491,893.5589,,,,0,30,30,30,1,40,145,,,,,,,,
,,60f801efc0846c47e4e755e6,65af758691bb652b9495bfb3,2024-01-23_10h17.05.413,bars,2023.2.3,Win32,60.24096386,657b66ea316d21385b68909f,,,,,,,,,,,893.5591,894.551,,,895.0514,895.2979,,163,163,,,,,,,,,,,,,,,,bars/043.png,bars/mask005.png,,,,,,,,,,,,0,2,,,,,,,2,2,2,2,,,,,,,,,,,894.551,895.0514,895.2979,898.52,space,3.2022,,898.5201,47,33,899.5182,899.5183,899.5278,,,,0,31,31,31,1,30,130,,,,,,,,
,,60f801efc0846c47e4e755e6,65af758691bb652b9495bfb3,2024-01-23_10h17.05.413,bars,2023.2.3,Win32,60.24096386,657b66ea316d21385b68909f,,,,,,,,,,,899.528,900.5168,,,901.0173,901.2709,,20,200,,,,,,,,,,,,,,,,bars/012.png,bars/mask007.png,,,,,,,,,,,,3,2,,,,,,,4,4,4,3,,,,,,,,,,,900.5171,901.0172,901.2709,904.2058,space,2.9188,,904.2059,70,5,905.2055,905.2056,905.2149,,,,0,32,32,32,1,90,15,,,,,,,,
,,60f801efc0846c47e4e755e6,65af758691bb652b9495bfb3,2024-01-23_10h17.05.413,bars,2023.2.3,Win32,60.24096386,657b66ea316d21385b68909f,,,,,,,,,,,905.2151,906.2061,,,906.7031,906.9531,,74,254,,,,,,,,,,,,,,,,bars/034.png,bars/mask007.png,,,,,,,,,,,,4,2,,,,,,,6,6,6,5,,,,,,,,,,,906.2061,906.703,906.9533,909.3749,space,2.4017,,909.3749,51,9,910.373,910.373,910.3821,,,,0,33,33,33,1,125,65,,,,,,,,
,,60f801efc0846c47e4e755e6,65af758691bb652b9495bfb3,2024-01-23_10h17.05.413,bars,2023.2.3,Win32,60.24096386,657b66ea316d21385b68909f,,,,,,,,,,,910.3823,911.3719,,,911.8722,912.1256,,98,98,,,,,,,,,,,,,,,,bars/006.png,bars/mask009.png,,,,,,,,,,,,7,2,,,,,,,8,8,7,7,,,,,,,,,,,911.3723,911.872,912.1256,913.5773,space,1.4354,,913.5773,63,2,914.5753,914.5753,914.5761,,,,0,34,34,34,1,35,100,,,,,,,,
,,60f801efc0846c47e4e755e6,65af758691bb652b9495bfb3,2024-01-23_10h17.05.413,bars,2023.2.3,Win32,60.24096386,657b66ea316d21385b68909f,,,,,,,,,,,914.5762,915.5733,,,916.0775,916.3273,,23,23,,,,,,,,,,,,,,,,bars/025.png,bars/mask008.png,,,,,,,,,,,,4,2,,,,,,,6,10,6,10,,,,,,,,,,,915.5734,916.0775,916.3273,919.7126,space,3.3687,,919.7127,82,17,920.7123,920.7123,920.7221,,,,0,35,35,35,1,105,40,,,,,,,,
,,60f801efc0846c47e4e755e6,65af758691bb652b9495bfb3,2024-01-23_10h17.05.413,bars,2023.2.3,Win32,60.24096386,657b66ea316d21385b68909f,,,,,,,,,,,920.7223,921.7299,,,922.2265,922.4767,,97,97,,,,,,,,,,,,,,,,bars/018.png,bars/mask006.png,,,,,,,,,,,,6,2,,,,,,,8,10,7,8,,,,,,,,,,,921.7299,922.2265,922.4768,923.4149,space,0.9182,,923.415,53,7,924.4108,924.4111,924.4121,,,,0,36,36,36,1,150,90,,,,,,,,
,,60f801efc0846c47e4e755e6,65af758691bb652b9495bfb3,2024-01-23_10h17.05.413,bars,2023.2.3,Win32,60.24096386,657b66ea316d21385b68909f,,,,,,,,,,,924.4123,925.4147,,,925.912,926.1655,,99,99,,,,,,,,,,,,,,,,bars/028.png,bars/mask008.png,,,,,,,,,,,,3,2,,,,,,,6,10,6,10,,,,,,,,,,,925.4147,925.9118,926.1655,927.412,space,1.2295,,927.4123,54,21,928.4127,928.4128,928.414,,,,0,37,37,37,1,45,120,,,,,,,,
,,60f801efc0846c47e4e755e6,65af758691bb652b9495bfb3,2024-01-23_10h17.05.413,bars,2023.2.3,Win32,60.24096386,657b66ea316d21385b68909f,,,,,,,,,,,928.4142,929.4149,,,929.9132,930.1674,,144,144,,,,,,,,,,,,,,,,bars/004.png,bars/mask001.png,,,,,,,,,,,,4,2,,,,,,,8,10,7,10,,,,,,,,,,,929.415,929.9131,930.1674,932.3852,space,2.2015,,932.3853,61,19,933.385,933.385,933.3857,,,,0,38,38,38,1,25,125,,,,,,,,
,,60f801efc0846c47e4e755e6,65af758691bb652b9495bfb3,2024-01-23_10h17.05.413,bars,2023.2.3,Win32,60.24096386,657b66ea316d21385b68909f,,,,,,,,,,,933.386,934.3854,,,934.886,935.1325,,6,186,,,,,,,,,,,,,,,,bars/020.png,bars/mask004.png,,,,,,,,,,,,5,2,,,,,,,6,10,6,10,,,,,,,,,,,934.3855,934.8859,935.1327,936.9709,space,1.8185,,936.9709,71,16,937.9707,937.9707,937.9714,,,,0,39,39,39,1,115,170,,,,,,,,
,,60f801efc0846c47e4e755e6,65af758691bb652b9495bfb3,2024-01-23_10h17.05.413,bars,2023.2.3,Win32,60.24096386,657b66ea316d21385b68909f,,,,,,,,,,,937.9718,938.9714,,,939.468,939.7196,,94,94,,,,,,,,,,,,,,,,bars/002.png,bars/mask009.png,,,,,,,,,,,,7,2,,,,,,,8,10,9,10,,,,,,,,,,,938.9714,939.4679,939.7197,941.1224,space,1.3843,,941.1224,36,9,942.1231,942.1232,942.1325,,,,0,40,40,40,1,130,85,,,,,,,,
,,60f801efc0846c47e4e755e6,65af758691bb652b9495bfb3,2024-01-23_10h17.05.413,bars,2023.2.3,Win32,60.24096386,657b66ea316d21385b68909f,,,,,,,,,,,942.1327,943.1229,,,943.6231,943.8698,,178,-2,,,,,,,,,,,,,,,,bars/040.png,bars/mask009.png,,,,,,,,,,,,5,2,,,,,,,6,8,5,7,,,,,,,,,,,943.1229,943.6231,943.8699,945.1078,space,1.2174,,945.1078,38,7,946.1075,946.1075,946.1083,,,,0,41,41,41,1,140,5,,,,,,,,
,,60f801efc0846c47e4e755e6,65af758691bb652b9495bfb3,2024-01-23_10h17.05.413,bars,2023.2.3,Win32,60.24096386,657b66ea316d21385b68909f,,,,,,,,,,,946.1087,947.1049,,,947.6054,947.8551,,108,108,,,,,,,,,,,,,,,,bars/003.png,bars/mask007.png,,,,,,,,,,,,0,2,,,,,,,8,10,9,8,,,,,,,,,,,947.105,947.6053,947.8552,949.1598,space,1.2847,,949.1598,83,32,950.1556,950.1556,950.1573,,,,0,42,42,42,1,25,140,,,,,,,,
,,60f801efc0846c47e4e755e6,65af758691bb652b9495bfb3,2024-01-23_10h17.05.413,bars,2023.2.3,Win32,60.24096386,657b66ea316d21385b68909f,,,,,,,,,,,950.1575,951.1562,,,951.6604,951.9103,,62,62,,,,,,,,,,,,,,,,bars/038.png,bars/mask000.png,,,,,,,,,,,,6,2,,,,,,,10,8,8,8,,,,,,,,,,,951.1564,951.6604,951.9104,954.5622,space,2.6351,,954.5623,77,8,955.5618,955.5619,955.5719,,,,0,43,43,43,1,165,70,,,,,,,,
,,60f801efc0846c47e4e755e6,65af758691bb652b9495bfb3,2024-01-23_10h17.05.413,bars,2023.2.3,Win32,60.24096386,657b66ea316d21385b68909f,,,,,,,,,,,955.5721,956.5787,,,957.079,957.3264,,159,159,,,,,,,,,,,,,,,,bars/044.png,bars/mask001.png,,,,,,,,,,,,7,2,,,,,,,10,6,9,8,,,,,,,,,,,956.5788,957.0789,957.3265,958.5803,space,1.2346,,958.5803,84,4,959.5803,959.5804,959.5811,,,,0,44,44,44,1,75,155,,,,,,,,
,,60f801efc0846c47e4e755e6,65af758691bb652b9495bfb3,2024-01-23_10h17.05.413,bars,2023.2.3,Win32,60.24096386,657b66ea316d21385b68909f,,,,,,,,,,,959.5813,960.581,,,961.0779,961.331,,2,182,,,,,,,,,,,,,,,,bars/048.png,bars/mask000.png,,,,,,,,,,,,5,2,,,,,,,10,4,10,7,,,,,,,,,,,960.5811,961.0777,961.331,963.583,space,2.2352,,963.583,48,7,964.5808,964.5808,964.5816,,,,0,45,45,45,1,50,175,,,,,,,,
,,60f801efc0846c47e4e755e6,65af758691bb652b9495bfb3,2024-01-23_10h17.05.413,bars,2023.2.3,Win32,60.24096386,657b66ea316d21385b68909f,,,,,,,,,,,964.5819,965.583,,,966.083,966.3334,,130,-50,,,,,,,,,,,,,,,,bars/049.png,bars/mask000.png,,,,,,,,,,,,1,2,,,,,,,8,2,9,1,,,,,,,,,,,965.583,966.083,966.3334,969.5019,space,3.152,,969.5019,30,15,970.4981,970.4981,970.508,,,,0,46,46,46,1,160,115,,,,,,,,
,,60f801efc0846c47e4e755e6,65af758691bb652b9495bfb3,2024-01-23_10h17.05.413,bars,2023.2.3,Win32,60.24096386,657b66ea316d21385b68909f,,,,,,,,,,,970.5082,971.4989,,,972.0009,972.2529,,93,93,,,,,,,,,,,,,,,,bars/039.png,bars/mask008.png,,,,,,,,,,,,3,2,,,,,,,6,4,7,5,,,,,,,,,,,971.4992,972.0008,972.2529,973.7376,space,1.4683,,973.7376,82,12,974.7373,974.7373,974.7468,,,,0,47,47,47,1,175,105,,,,,,,,
,,60f801efc0846c47e4e755e6,65af758691bb652b9495bfb3,2024-01-23_10h17.05.413,bars,2023.2.3,Win32,60.24096386,657b66ea316d21385b68909f,,,,,,,,,,,974.7469,975.7541,,,976.2544,976.5015,,177,-3,,,,,,,,,,,,,,,,bars/048.png,bars/mask006.png,,,,,,,,,,,,2,2,,,,,,,4,2,1,2,,,,,,,,,,,975.7542,976.2544,976.5015,979.3901,space,2.8687,,979.3901,53,2,980.3856,980.3859,980.3981,,,,0,48,48,48,1,50,175,,,,,,,,
,,60f801efc0846c47e4e755e6,65af758691bb652b9495bfb3,2024-01-23_10h17.05.413,bars,2023.2.3,Win32,60.24096386,657b66ea316d21385b68909f,,,,,,,,,,,980.3983,981.3866,,,981.8743,982.1241,,78,78,,,,,,,,,,,,,,,,bars/046.png,bars/mask000.png,,,,,,,,,,,,0,2,,,,,,,6,0,5,0,,,,,,,,,,,981.3867,981.8743,982.1241,983.5254,space,1.3849,,983.5255,77,7,984.5219,984.5219,984.5229,,,,0,49,49,49,1,155,85,,,,,,,,
,,60f801efc0846c47e4e755e6,65af758691bb652b9495bfb3,2024-01-23_10h17.05.413,bars,2023.2.3,Win32,60.24096386,657b66ea316d21385b68909f,,,,,,,,,,,,,,,,,,,,,,,,,,,,,,,,,,,,,,,,,,,,,,,,,,,,,,,,,,,,,,,,,,,,,,,,,,,,,,,,,,,,,,,,,,,,,984.5229,1044.5188,0,1,1,2,1,sequence_tables/blk021.csv
,,60f801efc0846c47e4e755e6,65af758691bb652b9495bfb3,2024-01-23_10h17.05.413,bars,2023.2.3,Win32,60.24096386,657b66ea316d21385b68909f,,,,,,,,,,,1047.6081,1048.6036,,,1049.1044,1049.3544,,72,72,,,,,,,,,,,,,,,,bars/038.png,bars/mask001.png,,,,,,,,,,,,7,2,,,,,,,3,6,4,7,,,,,,1044.5285,1047.6041,space,3.0687,,1048.6036,1049.1043,1049.3545,1050.7386,space,1.3679,,1050.7387,87,2,1051.735,1051.7354,1051.7365,,,,0,0,0,0,1,165,70,,,,,,,,
,,60f801efc0846c47e4e755e6,65af758691bb652b9495bfb3,2024-01-23_10h17.05.413,bars,2023.2.3,Win32,60.24096386,657b66ea316d21385b68909f,,,,,,,,,,,1051.7367,1052.7353,,,1053.2393,1053.4894,,93,93,,,,,,,,,,,,,,,,bars/042.png,bars/mask005.png,,,,,,,,,,,,3,2,,,,,,,5,8,3,7,,,,,,,,,,,1052.7354,1053.2393,1053.4894,1055.3243,space,1.8182,,1055.3244,52,18,1056.3242,1056.3243,1056.3251,,,,0,1,1,1,1,145,75,,,,,,,,
,,60f801efc0846c47e4e755e6,65af758691bb652b9495bfb3,2024-01-23_10h17.05.413,bars,2023.2.3,Win32,60.24096386,657b66ea316d21385b68909f,,,,,,,,,,,1056.3254,1057.321,,,1057.825,1058.072,,6,6,,,,,,,,,,,,,,,,bars/014.png,bars/mask007.png,,,,,,,,,,,,8,2,,,,,,,7,10,8,10,,,,,,,,,,,1057.321,1057.8249,1058.072,1059.4093,space,1.3177,,1059.4093,74,6,1060.4055,1060.4058,1060.4068,,,,0,2,2,2,1,80,0,,,,,,,,
,,60f801efc0846c47e4e755e6,65af758691bb652b9495bfb3,2024-01-23_10h17.05.413,bars,2023.2.3,Win32,60.24096386,657b66ea316d21385b68909f,,,,,,,,,,,1060.4071,1061.4067,,,1061.9101,1062.16,,111,111,,,,,,,,,,,,,,,,bars/049.png,bars/mask003.png,,,,,,,,,,,,9,2,,,,,,,5,10,5,10,,,,,,,,,,,1061.4067,1061.91,1062.16,1063.4615,space,1.2849,,1063.4615,49,4,1064.4571,1064.4574,1064.4587,,,,0,3,3,3,1,160,115,,,,,,,,
,,60f801efc0846c47e4e755e6,65af758691bb652b9495bfb3,2024-01-23_10h17.05.413,bars,2023.2.3,Win32,60.24096386,657b66ea316d21385b68909f,,,,,,,,,,,1064.4589,1065.4614,,,1065.9622,1066.2081,,177,177,,,,,,,,,,,,,,,,bars/008.png,bars/mask008.png,,,,,,,,,,,,7,2,,,,,,,3,10,2,8,,,,,,,,,,,1065.4614,1065.962,1066.2082,1067.9295,space,1.7012,,1067.9295,67,3,1068.9298,1068.9298,1068.9305,,,,0,4,4,4,1,110,0,,,,,,,,
,,60f801efc0846c47e4e755e6,65af758691bb652b9495bfb3,2024-01-23_10h17.05.413,bars,2023.2.3,Win32,60.24096386,657b66ea316d21385b68909f,,,,,,,,,,,1068.9307,1069.9302,,,1070.4305,1070.681,,42,42,,,,,,,,,,,,,,,,bars/007.png,bars/mask004.png,,,,,,,,,,,,5,2,,,,,,,1,10,1,9,,,,,,,,,,,1069.9302,1070.4305,1070.6811,1072.8991,space,2.2019,,1072.8991,47,13,1073.8983,1073.8983,1073.9076,,,,0,5,5,5,1,175,55,,,,,,,,
,,60f801efc0846c47e4e755e6,65af758691bb652b9495bfb3,2024-01-23_10h17.05.413,bars,2023.2.3,Win32,60.24096386,657b66ea316d21385b68909f,,,,,,,,,,,1073.9078,1074.8992,,,1075.3981,1075.6494,,156,156,,,,,,,,,,,,,,,,bars/044.png,bars/mask000.png,,,,,,,,,,,,10,2,,,,,,,3,10,1,10,,,,,,,,,,,1074.8992,1075.398,1075.6494,1076.4502,space,0.7843,,1076.4502,81,1,1077.4462,1077.4466,1077.4479,,,,0,6,6,6,1,75,155,,,,,,,,
,,60f801efc0846c47e4e755e6,65af758691bb652b9495bfb3,2024-01-23_10h17.05.413,bars,2023.2.3,Win32,60.24096386,657b66ea316d21385b68909f,,,,,,,,,,,1077.4482,1078.4505,,,1078.9472,1079.2012,,167,167,,,,,,,,,,,,,,,,bars/018.png,bars/mask007.png,,,,,,,,,,,,2,1,,,,,,,5,10,5,10,,,,,,,,,,,1078.4505,1078.9471,1079.2012,1080.2523,space,1.0347,,1080.2523,17,77,1081.2521,1081.2521,1081.2624,,,,0,7,7,7,1,150,90,,,,,,,,
,,60f801efc0846c47e4e755e6,65af758691bb652b9495bfb3,2024-01-23_10h17.05.413,bars,2023.2.3,Win32,60.24096386,657b66ea316d21385b68909f,,,,,,,,,,,1081.2627,1082.2688,,,1082.7653,1083.0156,,155,155,,,,,,,,,,,,,,,,bars/038.png,bars/mask000.png,,,,,,,,,,,,5,1,,,,,,,7,8,7,9,,,,,,,,,,,1082.2689,1082.7652,1083.0158,1084.3037,space,1.2679,,1084.3037,10,85,1085.3035,1085.3035,1085.3129,,,,0,8,8,8,1,165,70,,,,,,,,
,,60f801efc0846c47e4e755e6,65af758691bb652b9495bfb3,2024-01-23_10h17.05.413,bars,2023.2.3,Win32,60.24096386,657b66ea316d21385b68909f,,,,,,,,,,,1085.3131,1086.301,,,1086.8012,1087.051,,103,103,,,,,,,,,,,,,,,,bars/023.png,bars/mask008.png,,,,,,,,,,,,3,2,,,,,,,5,6,7,5,,,,,,,,,,,1086.3014,1086.8009,1087.051,1088.2222,space,1.1513,,1088.2222,83,12,1089.2221,1089.2221,1089.2326,,,,0,9,9,9,1,20,115,,,,,,,,
,,60f801efc0846c47e4e755e6,65af758691bb652b9495bfb3,2024-01-23_10h17.05.413,bars,2023.2.3,Win32,60.24096386,657b66ea316d21385b68909f,,,,,,,,,,,1089.2328,1090.2392,,,1090.7395,1090.9865,,146,146,,,,,,,,,,,,,,,,bars/020.png,bars/mask004.png,,,,,,,,,,,,2,2,,,,,,,7,8,7,10,,,,,,,,,,,1090.2392,1090.7395,1090.9865,1091.941,space,0.9346,,1091.941,31,24,1092.9407,1092.9407,1092.9415,,,,0,10,10,10,1,115,170,,,,,,,,
,,60f801efc0846c47e4e755e6,65af758691bb652b9495bfb3,2024-01-23_10h17.05.413,bars,2023.2.3,Win32,60.24096386,657b66ea316d21385b68909f,,,,,,,,,,,1092.9417,1093.937,,,1094.438,1094.6914,,171,-9,,,,,,,,,,,,,,,,bars/023.png,bars/mask000.png,,,,,,,,,,,,0,1,,,,,,,9,10,8,9,,,,,,,,,,,1093.9372,1094.438,1094.6914,1096.0093,space,1.3011,,1096.0093,29,56,1097.0072,1097.0072,1097.0107,,,,0,11,11,11,1,20,115,,,,,,,,
,,60f801efc0846c47e4e755e6,65af758691bb652b9495bfb3,2024-01-23_10h17.05.413,bars,2023.2.3,Win32,60.24096386,657b66ea316d21385b68909f,,,,,,,,,,,1097.0109,1098.0062,,,1098.5102,1098.7567,,18,198,,,,,,,,,,,,,,,,bars/043.png,bars/mask008.png,,,,,,,,,,,,5,1,,,,,,,10,10,9,10,,,,,,,,,,,1098.0063,1098.5102,1098.7568,1100.9621,space,2.1856,,1100.9621,12,68,1101.961,1101.9611,1101.9704,,,,0,12,12,12,1,30,130,,,,,,,,
,,60f801efc0846c47e4e755e6,65af758691bb652b9495bfb3,2024-01-23_10h17.05.413,bars,2023.2.3,Win32,60.24096386,657b66ea316d21385b68909f,,,,,,,,,,,1101.9706,1102.9617,,,1103.4618,1103.7119,,150,150,,,,,,,,,,,,,,,,bars/039.png,bars/mask005.png,,,,,,,,,,,,1,1,,,,,,,8,8,8,8,,,,,,,,,,,1102.9618,1103.4618,1103.7119,1105.0301,space,1.3015,,1105.0302,25,45,1106.0297,1106.0297,1106.0305,,,,0,13,13,13,1,175,105,,,,,,,,
,,60f801efc0846c47e4e755e6,65af758691bb652b9495bfb3,2024-01-23_10h17.05.413,bars,2023.2.3,Win32,60.24096386,657b66ea316d21385b68909f,,,,,,,,,,,1106.0309,1107.0267,,,1107.5307,1107.7809,,17,17,,,,,,,,,,,,,,,,bars/004.png,bars/mask006.png,,,,,,,,,,,,7,1,,,,,,,10,10,10,10,,,,,,,,,,,1107.0268,1107.5306,1107.7809,1109.8154,space,2.0182,,1109.8154,8,72,1110.8117,1110.8119,1110.813,,,,0,14,14,14,1,25,125,,,,,,,,
,,60f801efc0846c47e4e755e6,65af758691bb652b9495bfb3,2024-01-23_10h17.05.413,bars,2023.2.3,Win32,60.24096386,657b66ea316d21385b68909f,,,,,,,,,,,1110.8134,1111.8156,,,1112.3126,1112.563,,112,112,,,,,,,,,,,,,,,,bars/045.png,bars/mask001.png,,,,,,,,,,,,4,1,,,,,,,8,10,6,10,,,,,,,,,,,1111.8157,1112.3124,1112.563,1114.8494,space,2.2665,,1114.8495,12,78,1115.8512,1115.8512,1115.8604,,,,0,15,15,15,1,100,10,,,,,,,,
,,60f801efc0846c47e4e755e6,65af758691bb652b9495bfb3,2024-01-23_10h17.05.413,bars,2023.2.3,Win32,60.24096386,657b66ea316d21385b68909f,,,,,,,,,,,1115.8605,1116.8678,,,1117.3684,1117.6145,,101,101,,,,,,,,,,,,,,,,bars/012.png,bars/mask009.png,,,,,,,,,,,,6,1,,,,,,,10,10,10,9,,,,,,,,,,,1116.8678,1117.3684,1117.6147,1119.6363,space,2.0014,,1119.6364,11,86,1120.6327,1120.6327,1120.6426,,,,0,16,16,16,1,90,15,,,,,,,,
,,60f801efc0846c47e4e755e6,65af758691bb652b9495bfb3,2024-01-23_10h17.05.413,bars,2023.2.3,Win32,60.24096386,657b66ea316d21385b68909f,,,,,,,,,,,1120.6427,1121.6365,,,1122.1374,1122.3839,,61,241,,,,,,,,,,,,,,,,bars/042.png,bars/mask004.png,,,,,,,,,,,,5,2,,,,,,,10,10,10,10,,,,,,,,,,,1121.6365,1122.1374,1122.384,1124.6721,space,2.2687,,1124.6722,84,14,1125.672,1125.672,1125.6741,,,,0,17,17,17,1,145,75,,,,,,,,
,,60f801efc0846c47e4e755e6,65af758691bb652b9495bfb3,2024-01-23_10h17.05.413,bars,2023.2.3,Win32,60.24096386,657b66ea316d21385b68909f,,,,,,,,,,,1125.6744,1126.6687,,,1127.1726,1127.4198,,97,97,,,,,,,,,,,,,,,,bars/021.png,bars/mask000.png,,,,,,,,,,,,1,2,,,,,,,10,10,9,10,,,,,,,,,,,1126.669,1127.1725,1127.4199,1129.024,space,1.5848,,1129.0241,58,27,1130.0205,1130.0206,1130.0301,,,,0,18,18,18,1,155,70,,,,,,,,
,,60f801efc0846c47e4e755e6,65af758691bb652b9495bfb3,2024-01-23_10h17.05.413,bars,2023.2.3,Win32,60.24096386,657b66ea316d21385b68909f,,,,,,,,,,,1130.0303,1131.0243,,,1131.5248,1131.7745,,20,20,,,,,,,,,,,,,,,,bars/014.png,bars/mask001.png,,,,,,,,,,,,3,2,,,,,,,8,8,10,8,,,,,,,,,,,1131.0243,1131.5248,1131.7746,1133.1381,space,1.3385,,1133.1381,60,20,1134.1387,1134.1388,1134.1491,,,,0,19,19,19,1,80,0,,,,,,,,
,,60f801efc0846c47e4e755e6,65af758691bb652b9495bfb3,2024-01-23_10h17.05.413,bars,2023.2.3,Win32,60.24096386,657b66ea316d21385b68909f,,,,,,,,,,,1134.1493,1135.1392,,,1135.6399,1135.8935,,161,-19,,,,,,,,,,,,,,,,bars/005.png,bars/mask003.png,,,,,,,,,,,,2,2,,,,,,,10,6,10,5,,,,,,,,,,,1135.1392,1135.6399,1135.8935,1137.3778,space,1.4679,,1137.3778,29,21,1138.3775,1138.3775,1138.3871,,,,0,20,20,20,1,10,140,,,,,,,,
,,60f801efc0846c47e4e755e6,65af758691bb652b9495bfb3,2024-01-23_10h17.05.413,bars,2023.2.3,Win32,60.24096386,657b66ea316d21385b68909f,,,,,,,,,,,1138.3873,1139.3784,,,1139.8752,1140.1286,,85,85,,,,,,,,,,,,,,,,bars/006.png,bars/mask008.png,,,,,,,,,,,,3,2,,,,,,,10,4,10,5,,,,,,,,,,,1139.3784,1139.8751,1140.1287,1141.6967,space,1.5516,,1141.6967,50,15,1142.6934,1142.6934,1142.7054,,,,0,21,21,21,1,35,100,,,,,,,,
,,60f801efc0846c47e4e755e6,65af758691bb652b9495bfb3,2024-01-23_10h17.05.413,bars,2023.2.3,Win32,60.24096386,657b66ea316d21385b68909f,,,,,,,,,,,1142.7056,1143.7134,,,1144.212,1144.4602,,61,61,,,,,,,,,,,,,,,,bars/042.png,bars/mask003.png,,,,,,,,,,,,0,2,,,,,,,8,2,9,0,,,,,,,,,,,1143.7134,1144.212,1144.4603,1146.3319,space,1.8512,,1146.3319,84,14,1147.3285,1147.3285,1147.3294,,,,0,22,22,22,1,145,75,,,,,,,,
,,60f801efc0846c47e4e755e6,65af758691bb652b9495bfb3,2024-01-23_10h17.05.413,bars,2023.2.3,Win32,60.24096386,657b66ea316d21385b68909f,,,,,,,,,,,1147.3296,1148.3321,,,1148.8295,1149.0825,,8,8,,,,,,,,,,,,,,,,bars/013.png,bars/mask005.png,,,,,,,,,,,,3,2,,,,,,,6,4,6,3,,,,,,,,,,,1148.3322,1148.8295,1149.0825,1150.117,space,1.018,,1150.117,67,2,1151.1137,1151.1138,1151.1148,,,,0,23,23,23,1,75,10,,,,,,,,
,,60f801efc0846c47e4e755e6,65af758691bb652b9495bfb3,2024-01-23_10h17.05.413,bars,2023.2.3,Win32,60.24096386,657b66ea316d21385b68909f,,,,,,,,,,,1151.1149,1152.1136,,,1152.6173,1152.8639,,164,164,,,,,,,,,,,,,,,,bars/044.png,bars/mask008.png,,,,,,,,,,,,4,2,,,,,,,8,6,8,6,,,,,,,,,,,1152.1138,1152.6173,1152.864,1154.9524,space,2.0689,,1154.9525,89,9,1155.9487,1155.9488,1155.9501,,,,0,24,24,24,1,75,155,,,,,,,,
,,60f801efc0846c47e4e755e6,65af758691bb652b9495bfb3,2024-01-23_10h17.05.413,bars,2023.2.3,Win32,60.24096386,657b66ea316d21385b68909f,,,,,,,,,,,1155.9503,1156.9525,,,1157.4497,1157.7015,,86,86,,,,,,,,,,,,,,,,bars/039.png,bars/mask001.png,,,,,,,,,,,,2,2,,,,,,,10,4,10,5,,,,,,,,,,,1156.9526,1157.4496,1157.7015,1159.0169,space,1.2911,,1159.0171,89,19,1160.0172,1160.0173,1160.0184,,,,0,25,25,25,1,175,105,,,,,,,,
,,60f801efc0846c47e4e755e6,65af758691bb652b9495bfb3,2024-01-23_10h17.05.413,bars,2023.2.3,Win32,60.24096386,657b66ea316d21385b68909f,,,,,,,,,,,1160.0188,1161.021,,,1161.5178,1161.7722,,3,183,,,,,,,,,,,,,,,,bars/044.png,bars/mask008.png,,,,,,,,,,,,0,2,,,,,,,10,2,10,2,,,,,,,,,,,1161.021,1161.5177,1161.7722,1162.6727,space,0.8844,,1162.6728,72,28,1163.6688,1163.669,1163.6702,,,,0,26,26,26,1,75,155,,,,,,,,
,,60f801efc0846c47e4e755e6,65af758691bb652b9495bfb3,2024-01-23_10h17.05.413,bars,2023.2.3,Win32,60.24096386,657b66ea316d21385b68909f,,,,,,,,,,,1163.6704,1164.6729,,,1165.1735,1165.4234,,61,61,,,,,,,,,,,,,,,,bars/029.png,bars/mask004.png,,,,,,,,,,,,2,2,,,,,,,8,4,7,4,,,,,,,,,,,1164.6729,1165.1735,1165.4234,1167.5081,space,2.0684,,1167.5081,29,16,1168.5079,1168.5079,1168.5171,,,,0,27,27,27,1,90,45,,,,,,,,
,,60f801efc0846c47e4e755e6,65af758691bb652b9495bfb3,2024-01-23_10h17.05.413,bars,2023.2.3,Win32,60.24096386,657b66ea316d21385b68909f,,,,,,,,,,,1168.5172,1169.5249,,,1170.0218,1170.2722,,60,60,,,,,,,,,,,,,,,,bars/029.png,bars/mask000.png,,,,,,,,,,,,4,2,,,,,,,6,6,4,7,,,,,,,,,,,1169.525,1170.0217,1170.2723,1171.5932,space,1.301,,1171.5933,30,15,1172.5931,1172.5931,1172.6022,,,,0,28,28,28,1,90,45,,,,,,,,
,,60f801efc0846c47e4e755e6,65af758691bb652b9495bfb3,2024-01-23_10h17.05.413,bars,2023.2.3,Win32,60.24096386,657b66ea316d21385b68909f,,,,,,,,,,,1172.6025,1173.5934,,,1174.0901,1174.3401,,8,8,,,,,,,,,,,,,,,,bars/014.png,bars/mask004.png,,,,,,,,,,,,3,2,,,,,,,4,4,3,4,,,,,,,,,,,1173.5934,1174.09,1174.3405,1176.1118,space,1.7515,,1176.1119,72,8,1177.1089,1177.109,1177.1185,,,,0,29,29,29,1,80,0,,,,,,,,
,,60f801efc0846c47e4e755e6,65af758691bb652b9495bfb3,2024-01-23_10h17.05.413,bars,2023.2.3,Win32,60.24096386,657b66ea316d21385b68909f,,,,,,,,,,,1177.1187,1178.1106,,,1178.6124,1178.8627,,177,177,,,,,,,,,,,,,,,,bars/044.png,bars/mask001.png,,,,,,,,,,,,1,2,,,,,,,6,2,6,3,,,,,,,,,,,1178.1106,1178.6124,1178.8628,1180.6099,space,1.7224,,1180.61,78,22,1181.6121,1181.6121,1181.6128,,,,0,30,30,30,1,75,155,,,,,,,,
,,60f801efc0846c47e4e755e6,65af758691bb652b9495bfb3,2024-01-23_10h17.05.413,bars,2023.2.3,Win32,60.24096386,657b66ea316d21385b68909f,,,,,,,,,,,1181.6131,1182.6104,,,1183.1144,1183.3646,,140,140,,,,,,,,,,,,,,,,bars/043.png,bars/mask000.png,,,,,,,,,,,,0,2,,,,,,,4,0,5,0,,,,,,,,,,,1182.6105,1183.1144,1183.3646,1184.8657,space,1.4842,,1184.8658,70,10,1185.8624,1185.8625,1185.8635,,,,0,31,31,31,1,30,130,,,,,,,,
,,60f801efc0846c47e4e755e6,65af758691bb652b9495bfb3,2024-01-23_10h17.05.413,bars,2023.2.3,Win32,60.24096386,657b66ea316d21385b68909f,,,,,,,,,,,1185.8638,1186.866,,,1187.3633,1187.613,,42,222,,,,,,,,,,,,,,,,bars/007.png,bars/mask001.png,,,,,,,,,,,,1,2,,,,,,,6,2,6,2,,,,,,,,,,,1186.866,1187.3631,1187.6132,1189.4996,space,1.8666,,1189.4996,47,13,1190.5012,1190.5012,1190.502,,,,0,32,32,32,1,175,55,,,,,,,,
,,60f801efc0846c47e4e755e6,65af758691bb652b9495bfb3,2024-01-23_10h17.05.413,bars,2023.2.3,Win32,60.24096386,657b66ea316d21385b68909f,,,,,,,,,,,1190.5023,1191.5016,,,1192.0014,1192.2521,,21,201,,,,,,,,,,,,,,,,bars/036.png,bars/mask004.png,,,,,,,,,,,,5,2,,,,,,,8,4,10,5,,,,,,,,,,,1191.5016,1192.0014,1192.2521,1193.8665,space,1.5955,,1193.8666,56,1,1194.8702,1194.8702,1194.8708,,,,0,33,33,33,1,145,20,,,,,,,,
,,60f801efc0846c47e4e755e6,65af758691bb652b9495bfb3,2024-01-23_10h17.05.413,bars,2023.2.3,Win32,60.24096386,657b66ea316d21385b68909f,,,,,,,,,,,1194.8711,1195.8671,,,1196.3688,1196.6207,,65,65,,,,,,,,,,,,,,,,bars/030.png,bars/mask000.png,,,,,,,,,,,,5,2,,,,,,,10,6,8,5,,,,,,,,,,,1195.8672,1196.3688,1196.6208,1199.006,space,2.3685,,1199.006,75,0,1200.0017,1200.0021,1200.0119,,,,0,34,34,34,1,140,65,,,,,,,,
,,60f801efc0846c47e4e755e6,65af758691bb652b9495bfb3,2024-01-23_10h17.05.413,bars,2023.2.3,Win32,60.24096386,657b66ea316d21385b68909f,,,,,,,,,,,1200.012,1201.0061,,,1201.5024,1201.7549,,84,84,,,,,,,,,,,,,,,,bars/042.png,bars/mask000.png,,,,,,,,,,,,6,2,,,,,,,10,8,10,8,,,,,,,,,,,1201.0061,1201.5024,1201.7549,1203.1701,space,1.3888,,1203.1704,61,9,1204.1702,1204.1706,1204.1718,,,,0,35,35,35,1,145,75,,,,,,,,
,,60f801efc0846c47e4e755e6,65af758691bb652b9495bfb3,2024-01-23_10h17.05.413,bars,2023.2.3,Win32,60.24096386,657b66ea316d21385b68909f,,,,,,,,,,,1204.1722,1205.1745,,,1205.6718,1205.9247,,173,173,,,,,,,,,,,,,,,,bars/040.png,bars/mask005.png,,,,,,,,,,,,6,2,,,,,,,8,10,8,10,,,,,,,,,,,1205.1746,1205.6717,1205.9247,1207.0428,space,1.1014,,1207.0428,33,12,1208.042,1208.042,1208.0429,,,,0,36,36,36,1,140,5,,,,,,,,
,,60f801efc0846c47e4e755e6,65af758691bb652b9495bfb3,2024-01-23_10h17.05.413,bars,2023.2.3,Win32,60.24096386,657b66ea316d21385b68909f,,,,,,,,,,,1208.0432,1209.0424,,,1209.543,1209.7896,,155,155,,,,,,,,,,,,,,,,bars/005.png,bars/mask002.png,,,,,,,,,,,,5,2,,,,,,,6,10,5,9,,,,,,,,,,,1209.0424,1209.543,1209.7897,1211.6275,space,1.8175,,1211.6275,35,15,1212.6273,1212.6274,1212.6281,,,,0,37,37,37,1,10,140,,,,,,,,
,,60f801efc0846c47e4e755e6,65af758691bb652b9495bfb3,2024-01-23_10h17.05.413,bars,2023.2.3,Win32,60.24096386,657b66ea316d21385b68909f,,,,,,,,,,,1212.6284,1213.6279,,,1214.1283,1214.379,,95,95,,,,,,,,,,,,,,,,bars/019.png,bars/mask007.png,,,,,,,,,,,,5,2,,,,,,,4,8,4,8,,,,,,,,,,,1213.6279,1214.1283,1214.379,1216.2964,space,1.9016,,1216.2965,50,10,1217.2933,1217.2936,1217.303,,,,0,38,38,38,1,45,105,,,,,,,,
,,60f801efc0846c47e4e755e6,65af758691bb652b9495bfb3,2024-01-23_10h17.05.413,bars,2023.2.3,Win32,60.24096386,657b66ea316d21385b68909f,,,,,,,,,,,1217.3032,1218.2935,,,1218.7938,1219.0314,,173,173,,,,,,,,,,,,,,,,bars/024.png,bars/mask008.png,,,,,,,,,,,,5,2,,,,,,,2,6,2,5,,,,,,,,,,,1218.2936,1218.7934,1219.0314,1219.8148,space,0.7674,,1219.8149,53,3,1220.813,1220.8131,1220.8137,,,,0,39,39,39,1,120,170,,,,,,,,
,,60f801efc0846c47e4e755e6,65af758691bb652b9495bfb3,2024-01-23_10h17.05.413,bars,2023.2.3,Win32,60.24096386,657b66ea316d21385b68909f,,,,,,,,,,,1220.814,1221.8151,,,1222.3156,1222.5659,,70,70,,,,,,,,,,,,,,,,bars/029.png,bars/mask003.png,,,,,,,,,,,,2,1,,,,,,,4,8,5,7,,,,,,,,,,,1221.8152,1222.3155,1222.5659,1223.617,space,1.0347,,1223.617,20,25,1224.6152,1224.6152,1224.6169,,,,0,40,40,40,1,90,45,,,,,,,,
,,60f801efc0846c47e4e755e6,65af758691bb652b9495bfb3,2024-01-23_10h17.05.413,bars,2023.2.3,Win32,60.24096386,657b66ea316d21385b68909f,,,,,,,,,,,1224.6171,1225.6167,,,1226.1141,1226.3635,,99,99,,,,,,,,,,,,,,,,bars/011.png,bars/mask006.png,,,,,,,,,,,,3,2,,,,,,,2,6,2,5,,,,,,,,,,,1225.6167,1226.1139,1226.3635,1228.3689,space,1.985,,1228.3689,61,14,1229.3669,1229.3669,1229.3686,,,,0,41,41,41,1,160,85,,,,,,,,
,,60f801efc0846c47e4e755e6,65af758691bb652b9495bfb3,2024-01-23_10h17.05.413,bars,2023.2.3,Win32,60.24096386,657b66ea316d21385b68909f,,,,,,,,,,,1229.3689,1230.3693,,,1230.8698,1231.1195,,11,191,,,,,,,,,,,,,,,,bars/048.png,bars/mask005.png,,,,,,,,,,,,1,2,,,,,,,0,4,0,3,,,,,,,,,,,1230.3694,1230.8698,1231.1195,1232.3039,space,1.1679,,1232.3039,39,16,1233.304,1233.304,1233.3047,,,,0,42,42,42,1,50,175,,,,,,,,
,,60f801efc0846c47e4e755e6,65af758691bb652b9495bfb3,2024-01-23_10h17.05.413,bars,2023.2.3,Win32,60.24096386,657b66ea316d21385b68909f,,,,,,,,,,,1233.3049,1234.3013,,,1234.8051,1235.0548,,53,53,,,,,,,,,,,,,,,,bars/017.png,bars/mask006.png,,,,,,,,,,,,2,2,,,,,,,2,2,1,3,,,,,,,,,,,1234.3014,1234.8051,1235.0548,1237.9731,space,2.9019,,1237.9733,88,8,1238.9731,1238.9731,1238.9825,,,,0,43,43,43,1,145,45,,,,,,,,
,,60f801efc0846c47e4e755e6,65af758691bb652b9495bfb3,2024-01-23_10h17.05.413,bars,2023.2.3,Win32,60.24096386,657b66ea316d21385b68909f,,,,,,,,,,,1238.9828,1239.9905,,,1240.4888,1240.7374,,70,250,,,,,,,,,,,,,,,,bars/038.png,bars/mask004.png,,,,,,,,,,,,4,2,,,,,,,4,4,5,4,,,,,,,,,,,1239.9905,1240.4887,1240.7374,1243.0422,space,2.2849,,1243.0423,85,0,1244.0395,1244.0396,1244.0488,,,,0,44,44,44,1,165,70,,,,,,,,
,,60f801efc0846c47e4e755e6,65af758691bb652b9495bfb3,2024-01-23_10h17.05.413,bars,2023.2.3,Win32,60.24096386,657b66ea316d21385b68909f,,,,,,,,,,,1244.0491,1245.0422,,,1245.5387,1245.7931,,46,46,,,,,,,,,,,,,,,,bars/017.png,bars/mask004.png,,,,,,,,,,,,2,2,,,,,,,6,2,5,2,,,,,,,,,,,1245.0422,1245.5387,1245.7931,1247.928,space,2.1183,,1247.928,81,1,1248.9241,1248.9242,1248.9342,,,,0,45,45,45,1,145,45,,,,,,,,
,,60f801efc0846c47e4e755e6,65af758691bb652b9495bfb3,2024-01-23_10h17.05.413,bars,2023.2.3,Win32,60.24096386,657b66ea316d21385b68909f,,,,,,,,,,,1248.9344,1249.9244,,,1250.4282,1250.6785,,149,149,,,,,,,,,,,,,,,,bars/043.png,bars/mask006.png,,,,,,,,,,,,1,2,,,,,,,4,4,5,2,,,,,,,,,,,1249.9245,1250.4282,1250.6786,1251.9801,space,1.2853,,1251.9801,61,19,1252.9757,1252.9761,1252.9774,,,,0,46,46,46,1,30,130,,,,,,,,
,,60f801efc0846c47e4e755e6,65af758691bb652b9495bfb3,2024-01-23_10h17.05.413,bars,2023.2.3,Win32,60.24096386,657b66ea316d21385b68909f,,,,,,,,,,,1252.9777,1253.9759,,,1254.4766,1254.7268,,95,95,,,,,,,,,,,,,,,,bars/009.png,bars/mask006.png,,,,,,,,,,,,1,2,,,,,,,6,2,7,2,,,,,,,,,,,1253.976,1254.4765,1254.7268,1255.8813,space,1.1345,,1255.8814,80,10,1256.881,1256.881,1256.882,,,,0,47,47,47,1,15,105,,,,,,,,
,,60f801efc0846c47e4e755e6,65af758691bb652b9495bfb3,2024-01-23_10h17.05.413,bars,2023.2.3,Win32,60.24096386,657b66ea316d21385b68909f,,,,,,,,,,,1256.8823,1257.8818,,,1258.3822,1258.632,,34,34,,,,,,,,,,,,,,,,bars/033.png,bars/mask009.png,,,,,,,,,,,,2,1,,,,,,,4,4,3,3,,,,,,,,,,,1257.8818,1258.3822,1258.632,1259.8664,space,1.2179,,1259.8664,9,59,1260.8661,1260.8661,1260.8677,,,,0,48,48,48,1,25,155,,,,,,,,
,,60f801efc0846c47e4e755e6,65af758691bb652b9495bfb3,2024-01-23_10h17.05.413,bars,2023.2.3,Win32,60.24096386,657b66ea316d21385b68909f,,,,,,,,,,,1260.8679,1261.8667,,,1262.3673,1262.6135,,132,132,,,,,,,,,,,,,,,,bars/017.png,bars/mask008.png,,,,,,,,,,,,1,1,,,,,,,2,2,1,2,,,,,,,,,,,1261.8667,1262.3673,1262.6138,1265.3688,space,2.7351,,1265.3688,13,87,1266.3668,1266.3668,1266.3774,,,,0,49,49,49,1,145,45,,,,,,,,
,,60f801efc0846c47e4e755e6,65af758691bb652b9495bfb3,2024-01-23_10h17.05.413,bars,2023.2.3,Win32,60.24096386,657b66ea316d21385b68909f,,,,,,,,,,,,,,,,,,,,,,,,,,,,,,,,,,,,,,,,,,,,,,,,,,,,,,,,,,,,,,,,,,,,,,,,,,,,,,,,,,,,,,,,,,,,,1266.3775,1326.3792,0,2,2,4,1,sequence_tables/blk020.csv
,,60f801efc0846c47e4e755e6,65af758691bb652b9495bfb3,2024-01-23_10h17.05.413,bars,2023.2.3,Win32,60.24096386,657b66ea316d21385b68909f,,,,,,,,,,,1329.987,1330.9813,,,1331.482,1331.7299,,119,119,,,,,,,,,,,,,,,,bars/037.png,bars/mask003.png,,,,,,,,,,,,5,2,,,,,,,8,8,9,9,,,,,,1326.3891,1329.9816,space,3.5854,,1330.9813,1331.482,1331.7299,1333.6163,space,1.8678,,1333.6163,31,14,1334.6163,1334.6163,1334.6268,,,,0,0,0,0,1,150,105,,,,,,,,
,,60f801efc0846c47e4e755e6,65af758691bb652b9495bfb3,2024-01-23_10h17.05.413,bars,2023.2.3,Win32,60.24096386,657b66ea316d21385b68909f,,,,,,,,,,,1334.627,1335.6148,,,1336.117,1336.367,,84,84,,,,,,,,,,,,,,,,bars/011.png,bars/mask007.png,,,,,,,,,,,,6,2,,,,,,,10,6,8,6,,,,,,,,,,,1335.6149,1336.117,1336.367,1337.0143,space,0.6262,,1337.0144,76,1,1338.0178,1338.0178,1338.0185,,,,0,1,1,1,1,160,85,,,,,,,,
,,60f801efc0846c47e4e755e6,65af758691bb652b9495bfb3,2024-01-23_10h17.05.413,bars,2023.2.3,Win32,60.24096386,657b66ea316d21385b68909f,,,,,,,,,,,1338.0189,1339.0147,,,1339.5188,1339.7651,,110,110,,,,,,,,,,,,,,,,bars/039.png,bars/mask006.png,,,,,,,,,,,,7,2,,,,,,,8,8,10,8,,,,,,,,,,,1339.0147,1339.5187,1339.7653,1341.4706,space,1.6854,,1341.4706,65,5,1342.4699,1342.4699,1342.4708,,,,0,2,2,2,1,175,105,,,,,,,,
,,60f801efc0846c47e4e755e6,65af758691bb652b9495bfb3,2024-01-23_10h17.05.413,bars,2023.2.3,Win32,60.24096386,657b66ea316d21385b68909f,,,,,,,,,,,1342.4711,1343.4703,,,1343.9675,1344.2172,,96,96,,,,,,,,,,,,,,,,bars/041.png,bars/mask001.png,,,,,,,,,,,,4,2,,,,,,,6,6,4,7,,,,,,,,,,,1343.4703,1343.9671,1344.2172,1344.7377,space,0.5004,,1344.7377,76,11,1345.734,1345.734,1345.7354,,,,0,3,3,3,1,20,85,,,,,,,,
,,60f801efc0846c47e4e755e6,65af758691bb652b9495bfb3,2024-01-23_10h17.05.413,bars,2023.2.3,Win32,60.24096386,657b66ea316d21385b68909f,,,,,,,,,,,1345.7356,1346.7386,,,1347.2386,1347.4855,,72,72,,,,,,,,,,,,,,,,bars/001.png,bars/mask006.png,,,,,,,,,,,,4,2,,,,,,,4,8,5,7,,,,,,,,,,,1346.7386,1347.2386,1347.4857,1349.5073,space,2.0019,,1349.5073,58,13,1350.5066,1350.5066,1350.5074,,,,0,4,4,4,1,130,85,,,,,,,,
,,60f801efc0846c47e4e755e6,65af758691bb652b9495bfb3,2024-01-23_10h17.05.413,bars,2023.2.3,Win32,60.24096386,657b66ea316d21385b68909f,,,,,,,,,,,1350.5077,1351.5041,,,1352.0045,1352.2557,,124,124,,,,,,,,,,,,,,,,bars/046.png,bars/mask003.png,,,,,,,,,,,,0,1,,,,,,,2,6,1,6,,,,,,,,,,,1351.5041,1352.0044,1352.2557,1354.6429,space,2.3684,,1354.643,31,39,1355.6384,1355.6384,1355.6491,,,,0,5,5,5,1,155,85,,,,,,,,
,,60f801efc0846c47e4e755e6,65af758691bb652b9495bfb3,2024-01-23_10h17.05.413,bars,2023.2.3,Win32,60.24096386,657b66ea316d21385b68909f,,,,,,,,,,,1355.6493,1356.6427,,,1357.1397,1357.3894,,36,36,,,,,,,,,,,,,,,,bars/022.png,bars/mask000.png,,,,,,,,,,,,3,2,,,,,,,4,4,3,6,,,,,,,,,,,1356.6428,1357.1396,1357.3897,1359.525,space,2.1151,,1359.5251,59,16,1360.5278,1360.5278,1360.5294,,,,0,6,6,6,1,95,20,,,,,,,,
,,60f801efc0846c47e4e755e6,65af758691bb652b9495bfb3,2024-01-23_10h17.05.413,bars,2023.2.3,Win32,60.24096386,657b66ea316d21385b68909f,,,,,,,,,,,1360.5296,1361.5248,,,1362.0249,1362.2789,,175,-5,,,,,,,,,,,,,,,,bars/045.png,bars/mask004.png,,,,,,,,,,,,1,2,,,,,,,2,2,1,1,,,,,,,,,,,1361.525,1362.0248,1362.2789,1363.8303,space,1.5351,,1363.8304,75,15,1364.8262,1364.8264,1364.8277,,,,0,7,7,7,1,100,10,,,,,,,,
,,60f801efc0846c47e4e755e6,65af758691bb652b9495bfb3,2024-01-23_10h17.05.413,bars,2023.2.3,Win32,60.24096386,657b66ea316d21385b68909f,,,,,,,,,,,1364.828,1365.831,,,1366.3271,1366.5807,,96,96,,,,,,,,,,,,,,,,bars/041.png,bars/mask006.png,,,,,,,,,,,,2,2,,,,,,,4,4,3,3,,,,,,,,,,,1365.831,1366.327,1366.5807,1367.4483,space,0.8508,,1367.4483,76,11,1368.4444,1368.4445,1368.4459,,,,0,8,8,8,1,20,85,,,,,,,,
,,60f801efc0846c47e4e755e6,65af758691bb652b9495bfb3,2024-01-23_10h17.05.413,bars,2023.2.3,Win32,60.24096386,657b66ea316d21385b68909f,,,,,,,,,,,1368.4462,1369.4485,,,1369.9492,1370.199,,33,33,,,,,,,,,,,,,,,,bars/031.png,bars/mask005.png,,,,,,,,,,,,7,2,,,,,,,2,6,3,7,,,,,,,,,,,1369.4485,1369.9491,1370.1991,1371.4668,space,1.2513,,1371.4668,87,2,1372.4666,1372.4666,1372.4672,,,,0,9,9,9,1,120,35,,,,,,,,
,,60f801efc0846c47e4e755e6,65af758691bb652b9495bfb3,2024-01-23_10h17.05.413,bars,2023.2.3,Win32,60.24096386,657b66ea316d21385b68909f,,,,,,,,,,,1372.4675,1373.4634,,,1373.9674,1374.2173,,13,13,,,,,,,,,,,,,,,,bars/036.png,bars/mask009.png,,,,,,,,,,,,6,2,,,,,,,4,8,4,8,,,,,,,,,,,1373.4636,1373.9674,1374.2173,1375.3351,space,1.1012,,1375.3351,48,7,1376.3312,1376.3312,1376.3325,,,,0,10,10,10,1,145,20,,,,,,,,
,,60f801efc0846c47e4e755e6,65af758691bb652b9495bfb3,2024-01-23_10h17.05.413,bars,2023.2.3,Win32,60.24096386,657b66ea316d21385b68909f,,,,,,,,,,,1376.3328,1377.3351,,,1377.8358,1378.0819,,54,234,,,,,,,,,,,,,,,,bars/034.png,bars/mask007.png,,,,,,,,,,,,4,2,,,,,,,6,6,6,6,,,,,,,,,,,1377.3351,1377.8358,1378.082,1381.3215,space,3.2189,,1381.3215,71,11,1382.3213,1382.3213,1382.3308,,,,0,11,11,11,1,125,65,,,,,,,,
,,60f801efc0846c47e4e755e6,65af758691bb652b9495bfb3,2024-01-23_10h17.05.413,bars,2023.2.3,Win32,60.24096386,657b66ea316d21385b68909f,,,,,,,,,,,1382.331,1383.3213,,,1383.8221,1384.0723,,23,23,,,,,,,,,,,,,,,,bars/031.png,bars/mask004.png,,,,,,,,,,,,2,2,,,,,,,4,4,3,3,,,,,,,,,,,1383.3213,1383.822,1384.0723,1385.4896,space,1.4004,,1385.4896,83,12,1386.4865,1386.4865,1386.4874,,,,0,12,12,12,1,120,35,,,,,,,,
,,60f801efc0846c47e4e755e6,65af758691bb652b9495bfb3,2024-01-23_10h17.05.413,bars,2023.2.3,Win32,60.24096386,657b66ea316d21385b68909f,,,,,,,,,,,1386.4878,1387.4883,,,1387.9873,1388.2408,,53,53,,,,,,,,,,,,,,,,bars/034.png,bars/mask002.png,,,,,,,,,,,,4,2,,,,,,,2,6,1,6,,,,,,,,,,,1387.4883,1387.9873,1388.2408,1389.3567,space,1.0998,,1389.3568,72,12,1390.3546,1390.3546,1390.356,,,,0,13,13,13,1,125,65,,,,,,,,
,,60f801efc0846c47e4e755e6,65af758691bb652b9495bfb3,2024-01-23_10h17.05.413,bars,2023.2.3,Win32,60.24096386,657b66ea316d21385b68909f,,,,,,,,,,,1390.3563,1391.3549,,,1391.859,1392.1075,,2,182,,,,,,,,,,,,,,,,bars/032.png,bars/mask002.png,,,,,,,,,,,,3,2,,,,,,,0,8,0,8,,,,,,,,,,,1391.355,1391.859,1392.1075,1393.1931,space,1.0678,,1393.1931,57,18,1394.1896,1394.1898,1394.1909,,,,0,14,14,14,1,125,20,,,,,,,,
,,60f801efc0846c47e4e755e6,65af758691bb652b9495bfb3,2024-01-23_10h17.05.413,bars,2023.2.3,Win32,60.24096386,657b66ea316d21385b68909f,,,,,,,,,,,1394.1912,1395.1937,,,1395.6904,1395.9422,,158,158,,,,,,,,,,,,,,,,bars/020.png,bars/mask008.png,,,,,,,,,,,,4,2,,,,,,,0,6,0,6,,,,,,,,,,,1395.1937,1395.6902,1395.9422,1397.0622,space,1.1013,,1397.0622,43,12,1398.0583,1398.0586,1398.0595,,,,0,15,15,15,1,115,170,,,,,,,,
,,60f801efc0846c47e4e755e6,65af758691bb652b9495bfb3,2024-01-23_10h17.05.413,bars,2023.2.3,Win32,60.24096386,657b66ea316d21385b68909f,,,,,,,,,,,1398.0598,1399.0621,,,1399.5605,1399.8089,,54,54,,,,,,,,,,,,,,,,bars/010.png,bars/mask007.png,,,,,,,,,,,,9,2,,,,,,,2,8,3,9,,,,,,,,,,,1399.0621,1399.5604,1399.809,1400.9969,space,1.1679,,1400.9969,69,1,1401.9929,1401.9932,1401.9944,,,,0,16,16,16,1,165,55,,,,,,,,
,,60f801efc0846c47e4e755e6,65af758691bb652b9495bfb3,2024-01-23_10h17.05.413,bars,2023.2.3,Win32,60.24096386,657b66ea316d21385b68909f,,,,,,,,,,,1401.9947,1402.9955,,,1403.4973,1403.7457,,57,237,,,,,,,,,,,,,,,,bars/034.png,bars/mask007.png,,,,,,,,,,,,7,2,,,,,,,0,10,1,10,,,,,,,,,,,1402.9955,1403.4973,1403.7458,1405.6827,space,1.9184,,1405.6827,68,8,1406.6823,1406.6823,1406.6831,,,,0,17,17,17,1,125,65,,,,,,,,
,,60f801efc0846c47e4e755e6,65af758691bb652b9495bfb3,2024-01-23_10h17.05.413,bars,2023.2.3,Win32,60.24096386,657b66ea316d21385b68909f,,,,,,,,,,,1406.6835,1407.6824,,,1408.1797,1408.429,,86,86,,,,,,,,,,,,,,,,bars/018.png,bars/mask006.png,,,,,,,,,,,,6,2,,,,,,,2,8,1,7,,,,,,,,,,,1407.6824,1408.1795,1408.4291,1410.2677,space,1.8181,,1410.2678,64,4,1411.2676,1411.2677,1411.2684,,,,0,18,18,18,1,150,90,,,,,,,,
,,60f801efc0846c47e4e755e6,65af758691bb652b9495bfb3,2024-01-23_10h17.05.413,bars,2023.2.3,Win32,60.24096386,657b66ea316d21385b68909f,,,,,,,,,,,1411.2686,1412.268,,,1412.7684,1413.0182,,157,157,,,,,,,,,,,,,,,,bars/003.png,bars/mask004.png,,,,,,,,,,,,2,2,,,,,,,0,6,0,5,,,,,,,,,,,1412.268,1412.7684,1413.0182,1414.2531,space,1.2183,,1414.2531,48,17,1415.2489,1415.2491,1415.2505,,,,0,19,19,19,1,25,140,,,,,,,,
,,60f801efc0846c47e4e755e6,65af758691bb652b9495bfb3,2024-01-23_10h17.05.413,bars,2023.2.3,Win32,60.24096386,657b66ea316d21385b68909f,,,,,,,,,,,1415.2507,1416.2534,,,1416.7496,1417.0038,,168,-12,,,,,,,,,,,,,,,,bars/016.png,bars/mask006.png,,,,,,,,,,,,7,2,,,,,,,2,8,2,8,,,,,,,,,,,1416.2534,1416.7496,1417.0038,1418.3882,space,1.3684,,1418.3882,52,3,1419.3878,1419.3878,1419.3886,,,,0,20,20,20,1,40,165,,,,,,,,
,,60f801efc0846c47e4e755e6,65af758691bb652b9495bfb3,2024-01-23_10h17.05.413,bars,2023.2.3,Win32,60.24096386,657b66ea316d21385b68909f,,,,,,,,,,,1419.3889,1420.3881,,,1420.8881,1421.135,,37,217,,,,,,,,,,,,,,,,bars/022.png,bars/mask001.png,,,,,,,,,,,,4,2,,,,,,,4,10,5,10,,,,,,,,,,,1420.3881,1420.8881,1421.1351,1422.7728,space,1.618,,1422.7728,58,17,1423.7727,1423.7727,1423.7735,,,,0,21,21,21,1,95,20,,,,,,,,
,,60f801efc0846c47e4e755e6,65af758691bb652b9495bfb3,2024-01-23_10h17.05.413,bars,2023.2.3,Win32,60.24096386,657b66ea316d21385b68909f,,,,,,,,,,,1423.7737,1424.77,,,1425.2704,1425.5241,,159,159,,,,,,,,,,,,,,,,bars/044.png,bars/mask002.png,,,,,,,,,,,,7,2,,,,,,,6,8,6,8,,,,,,,,,,,1424.7702,1425.2703,1425.5241,1427.0592,space,1.5182,,1427.0592,84,4,1428.0585,1428.0586,1428.068,,,,0,22,22,22,1,75,155,,,,,,,,
,,60f801efc0846c47e4e755e6,65af758691bb652b9495bfb3,2024-01-23_10h17.05.413,bars,2023.2.3,Win32,60.24096386,657b66ea316d21385b68909f,,,,,,,,,,,1428.0681,1429.0589,,,1429.5594,1429.81,,94,94,,,,,,,,,,,,,,,,bars/001.png,bars/mask002.png,,,,,,,,,,,,7,2,,,,,,,8,10,7,10,,,,,,,,,,,1429.059,1429.5594,1429.81,1430.2567,space,0.4273,,1430.2567,36,9,1431.2569,1431.257,1431.2578,,,,0,23,23,23,1,130,85,,,,,,,,
,,60f801efc0846c47e4e755e6,65af758691bb652b9495bfb3,2024-01-23_10h17.05.413,bars,2023.2.3,Win32,60.24096386,657b66ea316d21385b68909f,,,,,,,,,,,1431.2581,1432.2569,,,1432.7571,1433.009,,93,93,,,,,,,,,,,,,,,,bars/041.png,bars/mask004.png,,,,,,,,,,,,7,2,,,,,,,10,10,10,9,,,,,,,,,,,1432.257,1432.7567,1433.0091,1433.9604,space,0.9331,,1433.9604,73,8,1434.9613,1434.9614,1434.962,,,,0,24,24,24,1,20,85,,,,,,,,
,,60f801efc0846c47e4e755e6,65af758691bb652b9495bfb3,2024-01-23_10h17.05.413,bars,2023.2.3,Win32,60.24096386,657b66ea316d21385b68909f,,,,,,,,,,,1434.9621,1435.9585,,,1436.4623,1436.7122,,4,184,,,,,,,,,,,,,,,,bars/048.png,bars/mask006.png,,,,,,,,,,,,6,2,,,,,,,10,10,9,9,,,,,,,,,,,1435.9589,1436.4623,1436.7122,1437.7973,space,1.0682,,1437.7973,46,9,1438.7927,1438.7928,1438.7943,,,,0,25,25,25,1,50,175,,,,,,,,
,,60f801efc0846c47e4e755e6,65af758691bb652b9495bfb3,2024-01-23_10h17.05.413,bars,2023.2.3,Win32,60.24096386,657b66ea316d21385b68909f,,,,,,,,,,,1438.7946,1439.7935,,,1440.2943,1440.5442,,127,127,,,,,,,,,,,,,,,,bars/037.png,bars/mask004.png,,,,,,,,,,,,3,2,,,,,,,8,10,8,10,,,,,,,,,,,1439.7935,1440.2943,1440.5443,1442.2489,space,1.6848,,1442.2489,23,22,1443.2485,1443.2485,1443.2491,,,,0,26,26,26,1,150,105,,,,,,,,
,,60f801efc0846c47e4e755e6,65af758691bb652b9495bfb3,2024-01-23_10h17.05.413,bars,2023.2.3,Win32,60.24096386,657b66ea316d21385b68909f,,,,,,,,,,,1443.2493,1444.2456,,,1444.7498,1445,,87,87,,,,,,,,,,,,,,,,bars/037.png,bars/mask002.png,,,,,,,,,,,,3,2,,,,,,,6,8,7,8,,,,,,,,,,,1444.2457,1444.7497,1445,1446.1008,space,1.085,,1446.1009,63,18,1447.0971,1447.0972,1447.098,,,,0,27,27,27,1,150,105,,,,,,,,
,,60f801efc0846c47e4e755e6,65af758691bb652b9495bfb3,2024-01-23_10h17.05.413,bars,2023.2.3,Win32,60.24096386,657b66ea316d21385b68909f,,,,,,,,,,,1447.0983,1448.0969,,,1448.5993,1448.8474,,53,233,,,,,,,,,,,,,,,,bars/025.png,bars/mask004.png,,,,,,,,,,,,3,2,,,,,,,4,6,4,6,,,,,,,,,,,1448.0972,1448.5993,1448.8474,1450.5526,space,1.6849,,1450.5526,52,13,1451.5523,1451.5523,1451.553,,,,0,28,28,28,1,105,40,,,,,,,,
,,60f801efc0846c47e4e755e6,65af758691bb652b9495bfb3,2024-01-23_10h17.05.413,bars,2023.2.3,Win32,60.24096386,657b66ea316d21385b68909f,,,,,,,,,,,1451.5534,1452.5526,,,1453.0493,1453.2992,,120,120,,,,,,,,,,,,,,,,bars/039.png,bars/mask004.png,,,,,,,,,,,,2,2,,,,,,,6,4,6,4,,,,,,,,,,,1452.5526,1453.0492,1453.2995,1454.621,space,1.3014,,1454.6211,55,15,1455.6211,1455.6211,1455.6218,,,,0,29,29,29,1,175,105,,,,,,,,
,,60f801efc0846c47e4e755e6,65af758691bb652b9495bfb3,2024-01-23_10h17.05.413,bars,2023.2.3,Win32,60.24096386,657b66ea316d21385b68909f,,,,,,,,,,,1455.622,1456.6176,,,1457.1213,1457.3696,,55,235,,,,,,,,,,,,,,,,bars/035.png,bars/mask004.png,,,,,,,,,,,,6,2,,,,,,,8,6,10,7,,,,,,,,,,,1456.6177,1457.1212,1457.3697,1459.5565,space,2.1689,,1459.5565,60,5,1460.5568,1460.5568,1460.5666,,,,0,30,30,30,1,175,60,,,,,,,,
,,60f801efc0846c47e4e755e6,65af758691bb652b9495bfb3,2024-01-23_10h17.05.413,bars,2023.2.3,Win32,60.24096386,657b66ea316d21385b68909f,,,,,,,,,,,1460.5668,1461.5566,,,1462.0556,1462.3072,,163,163,,,,,,,,,,,,,,,,bars/016.png,bars/mask006.png,,,,,,,,,,,,4,2,,,,,,,6,4,6,4,,,,,,,,,,,1461.5567,1462.0556,1462.3072,1463.4582,space,1.1345,,1463.4582,57,2,1464.4547,1464.4551,1464.4559,,,,0,31,31,31,1,40,165,,,,,,,,
,,60f801efc0846c47e4e755e6,65af758691bb652b9495bfb3,2024-01-23_10h17.05.413,bars,2023.2.3,Win32,60.24096386,657b66ea316d21385b68909f,,,,,,,,,,,1464.4561,1465.4554,,,1465.9562,1466.2053,,113,113,,,,,,,,,,,,,,,,bars/037.png,bars/mask008.png,,,,,,,,,,,,2,2,,,,,,,8,2,7,3,,,,,,,,,,,1465.4557,1465.9562,1466.2053,1468.077,space,1.8514,,1468.077,37,8,1469.0732,1469.0732,1469.0838,,,,0,32,32,32,1,150,105,,,,,,,,
,,60f801efc0846c47e4e755e6,65af758691bb652b9495bfb3,2024-01-23_10h17.05.413,bars,2023.2.3,Win32,60.24096386,657b66ea316d21385b68909f,,,,,,,,,,,1469.084,1470.0772,,,1470.5761,1470.8243,,96,96,,,,,,,,,,,,,,,,bars/023.png,bars/mask003.png,,,,,,,,,,,,2,2,,,,,,,10,4,9,5,,,,,,,,,,,1470.0772,1470.5761,1470.8245,1472.229,space,1.3845,,1472.229,76,19,1473.2257,1473.2258,1473.2268,,,,0,33,33,33,1,20,115,,,,,,,,
,,60f801efc0846c47e4e755e6,65af758691bb652b9495bfb3,2024-01-23_10h17.05.413,bars,2023.2.3,Win32,60.24096386,657b66ea316d21385b68909f,,,,,,,,,,,1473.227,1474.2289,,,1474.7278,1474.9797,,115,115,,,,,,,,,,,,,,,,bars/009.png,bars/mask002.png,,,,,,,,,,,,5,2,,,,,,,10,6,10,7,,,,,,,,,,,1474.2289,1474.7278,1474.9797,1476.5144,space,1.5183,,1476.5145,80,10,1477.5105,1477.5108,1477.5117,,,,0,34,34,34,1,15,105,,,,,,,,
,,60f801efc0846c47e4e755e6,65af758691bb652b9495bfb3,2024-01-23_10h17.05.413,bars,2023.2.3,Win32,60.24096386,657b66ea316d21385b68909f,,,,,,,,,,,1477.5121,1478.5106,,,1479.0133,1479.2614,,167,167,,,,,,,,,,,,,,,,bars/003.png,bars/mask008.png,,,,,,,,,,,,1,2,,,,,,,8,8,9,9,,,,,,,,,,,1478.5106,1479.0133,1479.2615,1480.9832,space,1.7015,,1480.9832,38,27,1481.9792,1481.9793,1481.9805,,,,0,35,35,35,1,25,140,,,,,,,,
,,60f801efc0846c47e4e755e6,65af758691bb652b9495bfb3,2024-01-23_10h17.05.413,bars,2023.2.3,Win32,60.24096386,657b66ea316d21385b68909f,,,,,,,,,,,1481.9808,1482.9831,,,1483.4837,1483.7301,,104,104,,,,,,,,,,,,,,,,bars/006.png,bars/mask006.png,,,,,,,,,,,,5,2,,,,,,,10,6,10,6,,,,,,,,,,,1482.9831,1483.4837,1483.7303,1484.8514,space,1.101,,1484.8515,69,4,1485.8473,1485.8477,1485.8489,,,,0,36,36,36,1,35,100,,,,,,,,
,,60f801efc0846c47e4e755e6,65af758691bb652b9495bfb3,2024-01-23_10h17.05.413,bars,2023.2.3,Win32,60.24096386,657b66ea316d21385b68909f,,,,,,,,,,,1485.8492,1486.8517,,,1487.3483,1487.6021,,94,94,,,,,,,,,,,,,,,,bars/039.png,bars/mask003.png,,,,,,,,,,,,5,2,,,,,,,10,8,10,8,,,,,,,,,,,1486.8518,1487.3483,1487.6022,1489.2196,space,1.6013,,1489.2197,81,11,1490.2165,1490.2166,1490.2179,,,,0,37,37,37,1,175,105,,,,,,,,
,,60f801efc0846c47e4e755e6,65af758691bb652b9495bfb3,2024-01-23_10h17.05.413,bars,2023.2.3,Win32,60.24096386,657b66ea316d21385b68909f,,,,,,,,,,,1490.2181,1491.2205,,,1491.7172,1491.9706,,158,158,,,,,,,,,,,,,,,,bars/003.png,bars/mask006.png,,,,,,,,,,,,4,2,,,,,,,8,10,8,10,,,,,,,,,,,1491.2205,1491.7171,1491.9706,1493.1719,space,1.1844,,1493.1719,47,18,1494.1715,1494.1716,1494.1723,,,,0,38,38,38,1,25,140,,,,,,,,
,,60f801efc0846c47e4e755e6,65af758691bb652b9495bfb3,2024-01-23_10h17.05.413,bars,2023.2.3,Win32,60.24096386,657b66ea316d21385b68909f,,,,,,,,,,,1494.1726,1495.1682,,,1495.6689,1495.9222,,84,84,,,,,,,,,,,,,,,,bars/021.png,bars/mask000.png,,,,,,,,,,,,5,2,,,,,,,10,8,10,9,,,,,,,,,,,1495.1682,1495.6688,1495.9223,1497.991,space,2.0518,,1497.991,71,14,1498.9875,1498.9878,1498.9891,,,,0,39,39,39,1,155,70,,,,,,,,
,,60f801efc0846c47e4e755e6,65af758691bb652b9495bfb3,2024-01-23_10h17.05.413,bars,2023.2.3,Win32,60.24096386,657b66ea316d21385b68909f,,,,,,,,,,,1498.9893,1499.991,,,1500.4917,1500.7396,,86,86,,,,,,,,,,,,,,,,bars/011.png,bars/mask003.png,,,,,,,,,,,,6,2,,,,,,,10,6,9,6,,,,,,,,,,,1499.991,1500.4917,1500.7396,1502.3259,space,1.5681,,1502.326,74,1,1503.3253,1503.3254,1503.3346,,,,0,40,40,40,1,160,85,,,,,,,,
,,60f801efc0846c47e4e755e6,65af758691bb652b9495bfb3,2024-01-23_10h17.05.413,bars,2023.2.3,Win32,60.24096386,657b66ea316d21385b68909f,,,,,,,,,,,1503.3348,1504.3394,,,1504.8429,1505.093,,148,148,,,,,,,,,,,,,,,,bars/049.png,bars/mask009.png,,,,,,,,,,,,6,1,,,,,,,10,8,10,7,,,,,,,,,,,1504.3395,1504.8429,1505.0931,1506.9281,space,1.8181,,1506.9282,12,33,1507.9243,1507.9247,1507.9352,,,,0,41,41,41,1,160,115,,,,,,,,
,,60f801efc0846c47e4e755e6,65af758691bb652b9495bfb3,2024-01-23_10h17.05.413,bars,2023.2.3,Win32,60.24096386,657b66ea316d21385b68909f,,,,,,,,,,,1507.9354,1508.9281,,,1509.4251,1509.6754,,99,99,,,,,,,,,,,,,,,,bars/037.png,bars/mask009.png,,,,,,,,,,,,8,2,,,,,,,8,10,8,10,,,,,,,,,,,1508.9281,1509.4248,1509.6755,1511.7971,space,2.1018,,1511.7971,51,6,1512.7933,1512.7934,1512.7952,,,,0,42,42,42,1,150,105,,,,,,,,
,,60f801efc0846c47e4e755e6,65af758691bb652b9495bfb3,2024-01-23_10h17.05.413,bars,2023.2.3,Win32,60.24096386,657b66ea316d21385b68909f,,,,,,,,,,,1512.7955,1513.7972,,,1514.2973,1514.5443,,11,11,,,,,,,,,,,,,,,,bars/013.png,bars/mask002.png,,,,,,,,,,,,8,2,,,,,,,6,8,5,8,,,,,,,,,,,1513.7973,1514.2973,1514.5445,1516.4826,space,1.9181,,1516.4826,64,1,1517.4784,1517.4786,1517.4885,,,,0,43,43,43,1,75,10,,,,,,,,
,,60f801efc0846c47e4e755e6,65af758691bb652b9495bfb3,2024-01-23_10h17.05.413,bars,2023.2.3,Win32,60.24096386,657b66ea316d21385b68909f,,,,,,,,,,,1517.4887,1518.4824,,,1518.979,1519.2328,,13,13,,,,,,,,,,,,,,,,bars/032.png,bars/mask003.png,,,,,,,,,,,,8,2,,,,,,,4,10,3,10,,,,,,,,,,,1518.4825,1518.979,1519.2329,1521.8183,space,2.5687,,1521.8183,68,7,1522.8184,1522.8184,1522.8278,,,,0,44,44,44,1,125,20,,,,,,,,
,,60f801efc0846c47e4e755e6,65af758691bb652b9495bfb3,2024-01-23_10h17.05.413,bars,2023.2.3,Win32,60.24096386,657b66ea316d21385b68909f,,,,,,,,,,,1522.8279,1523.8183,,,1524.3187,1524.5654,,144,144,,,,,,,,,,,,,,,,bars/043.png,bars/mask001.png,,,,,,,,,,,,4,2,,,,,,,6,8,7,8,,,,,,,,,,,1523.8184,1524.3187,1524.5656,1527.287,space,2.702,,1527.287,66,14,1528.2837,1528.2837,1528.2933,,,,0,45,45,45,1,30,130,,,,,,,,
,,60f801efc0846c47e4e755e6,65af758691bb652b9495bfb3,2024-01-23_10h17.05.413,bars,2023.2.3,Win32,60.24096386,657b66ea316d21385b68909f,,,,,,,,,,,1528.2935,1529.2844,,,1529.7875,1530.0345,,9,189,,,,,,,,,,,,,,,,bars/008.png,bars/mask002.png,,,,,,,,,,,,4,2,,,,,,,4,6,4,5,,,,,,,,,,,1529.2845,1529.7874,1530.0347,1531.1219,space,1.0674,,1531.1219,79,9,1532.1221,1532.1221,1532.1229,,,,0,46,46,46,1,110,0,,,,,,,,
,,60f801efc0846c47e4e755e6,65af758691bb652b9495bfb3,2024-01-23_10h17.05.413,bars,2023.2.3,Win32,60.24096386,657b66ea316d21385b68909f,,,,,,,,,,,1532.1232,1533.1224,,,1533.6192,1533.8693,,11,11,,,,,,,,,,,,,,,,bars/036.png,bars/mask008.png,,,,,,,,,,,,3,2,,,,,,,2,4,3,4,,,,,,,,,,,1533.1224,1533.6191,1533.8694,1535.0741,space,1.1848,,1535.0741,46,9,1536.0703,1536.0703,1536.0803,,,,0,47,47,47,1,145,20,,,,,,,,
,,60f801efc0846c47e4e755e6,65af758691bb652b9495bfb3,2024-01-23_10h17.05.413,bars,2023.2.3,Win32,60.24096386,657b66ea316d21385b68909f,,,,,,,,,,,1536.0805,1537.0708,,,1537.5748,1537.8245,,57,57,,,,,,,,,,,,,,,,bars/029.png,bars/mask003.png,,,,,,,,,,,,1,2,,,,,,,0,2,0,1,,,,,,,,,,,1537.0708,1537.5748,1537.8245,1538.8427,space,1.0014,,1538.8427,33,12,1539.8423,1539.8423,1539.852,,,,0,48,48,48,1,90,45,,,,,,,,
,,60f801efc0846c47e4e755e6,65af758691bb652b9495bfb3,2024-01-23_10h17.05.413,bars,2023.2.3,Win32,60.24096386,657b66ea316d21385b68909f,,,,,,,,,,,1539.8522,1540.8424,,,1541.3397,1541.5895,,160,-20,,,,,,,,,,,,,,,,bars/016.png,bars/mask006.png,,,,,,,,,,,,4,2,,,,,,,0,4,0,5,,,,,,,,,,,1540.8424,1541.3395,1541.5897,1543.0276,space,1.418,,1543.0276,60,5,1544.0242,1544.0243,1544.0342,,,,0,49,49,49,1,40,165,,,,,,,,
,,60f801efc0846c47e4e755e6,65af758691bb652b9495bfb3,2024-01-23_10h17.05.413,bars,2023.2.3,Win32,60.24096386,657b66ea316d21385b68909f,,,,,,,,,,,,,,,,,,,,,,,,,,,,,,,,,,,,,,,,,,,,,,,,,,,,,,,,,,,,,,,,,,,,,,,,,,,,,,,,,,,,,,,,,,,,,1544.0344,1604.0344,0,3,3,0,1,sequence_tables/blk047.csv
,,60f801efc0846c47e4e755e6,65af758691bb652b9495bfb3,2024-01-23_10h17.05.413,bars,2023.2.3,Win32,60.24096386,657b66ea316d21385b68909f,,,,,,,,,,,1608.3303,1609.3233,,,1609.8235,1610.0702,,7,7,,,,,,,,,,,,,,,,bars/012.png,bars/mask004.png,,,,,,,,,,,,1,2,,,,,,,8,2,9,1,,,,,,1604.0461,1608.3234,space,4.269,,1609.3234,1609.8235,1610.0703,1611.5755,space,1.485,,1611.5755,83,8,1612.5713,1612.5716,1612.5829,,,,0,0,0,0,1,90,15,,,,,,,,
,,60f801efc0846c47e4e755e6,65af758691bb652b9495bfb3,2024-01-23_10h17.05.413,bars,2023.2.3,Win32,60.24096386,657b66ea316d21385b68909f,,,,,,,,,,,1612.5831,1613.5721,,,1614.0758,1614.3258,,78,258,,,,,,,,,,,,,,,,bars/026.png,bars/mask000.png,,,,,,,,,,,,3,2,,,,,,,6,4,6,4,,,,,,,,,,,1613.5723,1614.0758,1614.3258,1617.0445,space,2.7021,,1617.0445,43,7,1618.0442,1618.0443,1618.0542,,,,0,1,1,1,1,35,85,,,,,,,,
,,60f801efc0846c47e4e755e6,65af758691bb652b9495bfb3,2024-01-23_10h17.05.413,bars,2023.2.3,Win32,60.24096386,657b66ea316d21385b68909f,,,,,,,,,,,1618.0544,1619.0615,,,1619.5614,1619.8117,,58,58,,,,,,,,,,,,,,,,bars/034.png,bars/mask003.png,,,,,,,,,,,,2,2,,,,,,,8,2,8,2,,,,,,,,,,,1619.0615,1619.5613,1619.8117,1621.2133,space,1.385,,1621.2133,67,7,1622.2092,1622.2093,1622.2105,,,,0,2,2,2,1,125,65,,,,,,,,
,,60f801efc0846c47e4e755e6,65af758691bb652b9495bfb3,2024-01-23_10h17.05.413,bars,2023.2.3,Win32,60.24096386,657b66ea316d21385b68909f,,,,,,,,,,,1622.2108,1623.2133,,,1623.7135,1623.96,,117,117,,,,,,,,,,,,,,,,bars/028.png,bars/mask004.png,,,,,,,,,,,,5,2,,,,,,,6,4,5,5,,,,,,,,,,,1623.2133,1623.7134,1623.9602,1624.9314,space,0.951,,1624.9314,72,3,1625.9277,1625.9277,1625.9289,,,,0,3,3,3,1,45,120,,,,,,,,
,,60f801efc0846c47e4e755e6,65af758691bb652b9495bfb3,2024-01-23_10h17.05.413,bars,2023.2.3,Win32,60.24096386,657b66ea316d21385b68909f,,,,,,,,,,,1625.9292,1626.9317,,,1627.4319,1627.6821,,83,83,,,,,,,,,,,,,,,,bars/023.png,bars/mask004.png,,,,,,,,,,,,0,2,,,,,,,4,2,5,1,,,,,,,,,,,1626.9317,1627.4318,1627.6822,1628.2163,space,0.5174,,1628.2164,63,32,1629.216,1629.216,1629.2167,,,,0,4,4,4,1,20,115,,,,,,,,
,,60f801efc0846c47e4e755e6,65af758691bb652b9495bfb3,2024-01-23_10h17.05.413,bars,2023.2.3,Win32,60.24096386,657b66ea316d21385b68909f,,,,,,,,,,,1629.2171,1630.2146,,,1630.7132,1630.9666,,34,214,,,,,,,,,,,,,,,,bars/017.png,bars/mask000.png,,,,,,,,,,,,1,2,,,,,,,2,0,3,2,,,,,,,,,,,1630.2147,1630.7129,1630.9667,1632.9021,space,1.9188,,1632.9021,69,11,1633.9017,1633.9018,1633.9024,,,,0,5,5,5,1,145,45,,,,,,,,
,,60f801efc0846c47e4e755e6,65af758691bb652b9495bfb3,2024-01-23_10h17.05.413,bars,2023.2.3,Win32,60.24096386,657b66ea316d21385b68909f,,,,,,,,,,,1633.9026,1634.8981,,,1635.402,1635.6523,,141,141,,,,,,,,,,,,,,,,bars/049.png,bars/mask009.png,,,,,,,,,,,,0,1,,,,,,,0,2,1,3,,,,,,,,,,,1634.8981,1635.402,1635.6524,1636.3702,space,0.7015,,1636.3702,19,26,1637.3694,1637.3694,1637.3711,,,,0,6,6,6,1,160,115,,,,,,,,
,,60f801efc0846c47e4e755e6,65af758691bb652b9495bfb3,2024-01-23_10h17.05.413,bars,2023.2.3,Win32,60.24096386,657b66ea316d21385b68909f,,,,,,,,,,,1637.3713,1638.3705,,,1638.8664,1639.1043,,135,135,,,,,,,,,,,,,,,,bars/023.png,bars/mask007.png,,,,,,,,,,,,0,2,,,,,,,2,0,2,0,,,,,,,,,,,1638.3706,1638.8663,1639.1043,1639.484,space,0.3627,,1639.4843,65,20,1640.4876,1640.4877,1640.4892,,,,0,7,7,7,1,20,115,,,,,,,,
,,60f801efc0846c47e4e755e6,65af758691bb652b9495bfb3,2024-01-23_10h17.05.413,bars,2023.2.3,Win32,60.24096386,657b66ea316d21385b68909f,,,,,,,,,,,1640.4893,1641.488,,,1641.9885,1642.2385,,101,101,,,,,,,,,,,,,,,,bars/037.png,bars/mask007.png,,,,,,,,,,,,2,2,,,,,,,0,2,0,2,,,,,,,,,,,1641.488,1641.9885,1642.2385,1643.373,space,1.1177,,1643.3731,49,4,1644.3725,1644.3725,1644.3732,,,,0,8,8,8,1,150,105,,,,,,,,
,,60f801efc0846c47e4e755e6,65af758691bb652b9495bfb3,2024-01-23_10h17.05.413,bars,2023.2.3,Win32,60.24096386,657b66ea316d21385b68909f,,,,,,,,,,,1644.3735,1645.3739,,,1645.8715,1646.1197,,39,39,,,,,,,,,,,,,,,,bars/007.png,bars/mask002.png,,,,,,,,,,,,2,2,,,,,,,0,4,0,4,,,,,,,,,,,1645.3739,1645.8714,1646.1198,1647.6588,space,1.5189,,1647.6589,44,16,1648.654,1648.654,1648.6641,,,,0,9,9,9,1,175,55,,,,,,,,
,,60f801efc0846c47e4e755e6,65af758691bb652b9495bfb3,2024-01-23_10h17.05.413,bars,2023.2.3,Win32,60.24096386,657b66ea316d21385b68909f,,,,,,,,,,,1648.6643,1649.6586,,,1650.1587,1650.4053,,19,19,,,,,,,,,,,,,,,,bars/040.png,bars/mask005.png,,,,,,,,,,,,3,2,,,,,,,0,6,3,5,,,,,,,,,,,1649.6587,1650.1587,1650.4056,1652.3774,space,1.9517,,1652.3774,59,14,1653.3734,1653.3735,1653.3842,,,,0,10,10,10,1,140,5,,,,,,,,
,,60f801efc0846c47e4e755e6,65af758691bb652b9495bfb3,2024-01-23_10h17.05.413,bars,2023.2.3,Win32,60.24096386,657b66ea316d21385b68909f,,,,,,,,,,,1653.3844,1654.3775,,,1654.8743,1655.1275,,63,63,,,,,,,,,,,,,,,,bars/010.png,bars/mask004.png,,,,,,,,,,,,4,2,,,,,,,2,4,3,5,,,,,,,,,,,1654.3776,1654.8742,1655.1275,1655.5781,space,0.4338,,1655.5781,78,8,1656.5744,1656.5746,1656.5758,,,,0,11,11,11,1,165,55,,,,,,,,
,,60f801efc0846c47e4e755e6,65af758691bb652b9495bfb3,2024-01-23_10h17.05.413,bars,2023.2.3,Win32,60.24096386,657b66ea316d21385b68909f,,,,,,,,,,,1656.576,1657.5784,,,1658.0756,1658.3261,,24,24,,,,,,,,,,,,,,,,bars/010.png,bars/mask004.png,,,,,,,,,,,,0,2,,,,,,,0,6,0,5,,,,,,,,,,,1657.5784,1658.0754,1658.3262,1658.8261,space,0.4783,,1658.8263,39,31,1659.8298,1659.8298,1659.8304,,,,0,12,12,12,1,165,55,,,,,,,,
