init_variables.started,init_variables.stopped,participant,session,date,expName,psychopyVersion,OS,frameRate,study_id,instruction_exp.started,instruction_exp.stopped,key_resp_8.keys,key_resp_8.rt,key_resp_8.duration,instruction_single.started,instruction_single.stopped,key_resp_2.keys,key_resp_2.rt,key_resp_2.duration,interval.started,interval.stopped,cue_single.started,cue_single.stopped,mask.started,mask.stopped,ori_response_single.started,res_ori,res,ori_response_single.stopped,key_resp_single.keys,key_resp_single.rt,key_resp_single.duration,disp_single.started,disp_single.stopped,key_resp.keys,key_resp.rt,key_resp.duration,single.thisRepN,single.thisTrialN,single.thisN,single.thisIndex,single.ran,ori,path,mask_path,instruction_bandit.started,instruction_bandit.stopped,key_resp_6.keys,key_resp_6.rt,key_resp_6.duration,cue_bandit.started,cue_bandit.stopped,bandit_res.keys,bandit_res.rt,bandit_res.duration,outcome_bandit.started,rew,action,outcome_bandit.stopped,bandit.thisRepN,bandit.thisTrialN,bandit.thisN,bandit.thisIndex,bandit.ran,actual_rew1,actual_rew2,rew1,rew2,instruction_task.started,instruction_task.stopped,key_resp_7.keys,key_resp_7.rt,key_resp_7.duration,wait_ready.started,wait_ready.stopped,key_resp_3.keys,key_resp_3.rt,key_resp_3.duration,cue.started,cue.stopped,ori_response.started,ori_response.stopped,key_resp_5.keys,key_resp_5.rt,key_resp_5.duration,outcome.started,diff1,diff2,outcome.stopped,disp_outcome_practice.started,disp_outcome_practice.stopped,key_resp_4.keys,key_resp_4.rt,key_resp_4.duration,trials.thisRepN,trials.thisTrialN,trials.thisN,trials.thisIndex,trials.ran,ori1,ori2,break_blk.started,break_blk.stopped,block.thisRepN,block.thisTrialN,block.thisN,block.thisIndex,block.ran,condition_file
0.0001,0.0001,654cb5da6bb60c3674457a8c,65af5578f6e775c50195c062,2024-01-23_07h07.53.808,bars,2023.2.3,Win32,269.6871629,657b66ea316d21385b68909f,,,,,,,,,,,,,,,,,,,,,,,,,,,,,,,,,,,,,,,,,,,,,,,,,,,,,,,,,,,,,,,,,,,,,,,,,,,,,,,,,,,,,,,,,,,,,,,,,,,,
,,654cb5da6bb60c3674457a8c,65af5578f6e775c50195c062,2024-01-23_07h07.53.808,bars,2023.2.3,Win32,269.6871629,657b66ea316d21385b68909f,0.0002,7.6562,y,7.6515,,,,,,,,,,,,,,,,,,,,,,,,,,,,,,,,,,,,,,,,,,,,,,,,,,,,,,,,,,,,,,,,,,,,,,,,,,,,,,,,,,,,,,,,,,,,,,,,
,,654cb5da6bb60c3674457a8c,65af5578f6e775c50195c062,2024-01-23_07h07.53.808,bars,2023.2.3,Win32,269.6871629,657b66ea316d21385b68909f,,,,,,7.6562,21.7674,space,14.1045,,,,,,,,,,,,,,,,,,,,,,,,,,,,,,,,,,,,,,,,,,,,,,,,,,,,,,,,,,,,,,,,,,,,,,,,,,,,,,,,,,,,,,,,,,,
,,654cb5da6bb60c3674457a8c,65af5578f6e775c50195c062,2024-01-23_07h07.53.808,bars,2023.2.3,Win32,269.6871629,657b66ea316d21385b68909f,,,,,,,,,,,21.77,22.7712,22.7713,23.2724,23.2725,23.5192,23.5192,132,132,36.4266,space,12.8952,,36.4268,43.2267,space,6.7925,,0,0,0,2,1,145,bars/single002.png,bars/mask003.png,,,,,,,,,,,,,,,,,,,,,,,,,,,,,,,,,,,,,,,,,,,,,,,,,,,,,,,,,,,,,,,,
,,654cb5da6bb60c3674457a8c,65af5578f6e775c50195c062,2024-01-23_07h07.53.808,bars,2023.2.3,Win32,269.6871629,657b66ea316d21385b68909f,,,,,,,,,,,43.2269,44.2265,44.2265,44.7266,44.7266,44.9747,44.9748,90,90,52.0451,space,7.0645,,52.0451,58.071,space,6.0142,,0,1,1,4,1,95,bars/single004.png,bars/mask004.png,,,,,,,,,,,,,,,,,,,,,,,,,,,,,,,,,,,,,,,,,,,,,,,,,,,,,,,,,,,,,,,,
,,654cb5da6bb60c3674457a8c,65af5578f6e775c50195c062,2024-01-23_07h07.53.808,bars,2023.2.3,Win32,269.6871629,657b66ea316d21385b68909f,,,,,,,,,,,58.0769,59.071,59.071,59.571,59.5711,59.8192,59.8192,66,66,65.1822,space,5.356,,65.1822,69.1378,space,3.9434,,0,2,2,5,1,55,bars/single005.png,bars/mask008.png,,,,,,,,,,,,,,,,,,,,,,,,,,,,,,,,,,,,,,,,,,,,,,,,,,,,,,,,,,,,,,,,
,,654cb5da6bb60c3674457a8c,65af5578f6e775c50195c062,2024-01-23_07h07.53.808,bars,2023.2.3,Win32,269.6871629,657b66ea316d21385b68909f,,,,,,,,,,,69.1431,70.1414,70.1415,70.6414,70.6414,70.8896,70.8896,33,213,79.0712,space,8.1739,,79.0712,81.8674,space,2.7847,,0,3,3,9,1,20,bars/single009.png,bars/mask006.png,,,,,,,,,,,,,,,,,,,,,,,,,,,,,,,,,,,,,,,,,,,,,,,,,,,,,,,,,,,,,,,,
,,654cb5da6bb60c3674457a8c,65af5578f6e775c50195c062,2024-01-23_07h07.53.808,bars,2023.2.3,Win32,269.6871629,657b66ea316d21385b68909f,,,,,,,,,,,81.8675,82.8674,82.8674,83.3674,83.3675,83.6156,83.6156,41,221,89.0859,space,5.4646,,89.086,92.1489,space,3.0548,,0,4,4,7,1,45,bars/single007.png,bars/mask009.png,,,,,,,,,,,,,,,,,,,,,,,,,,,,,,,,,,,,,,,,,,,,,,,,,,,,,,,,,,,,,,,,
,,654cb5da6bb60c3674457a8c,65af5578f6e775c50195c062,2024-01-23_07h07.53.808,bars,2023.2.3,Win32,269.6871629,657b66ea316d21385b68909f,,,,,,,,,,,92.1546,93.1525,93.1526,93.6489,93.6489,93.8971,93.8971,155,155,99.523,space,5.6196,,99.5231,101.9823,space,2.4495,,0,5,5,8,1,160,bars/single008.png,bars/mask004.png,,,,,,,,,,,,,,,,,,,,,,,,,,,,,,,,,,,,,,,,,,,,,,,,,,,,,,,,,,,,,,,,
,,654cb5da6bb60c3674457a8c,65af5578f6e775c50195c062,2024-01-23_07h07.53.808,bars,2023.2.3,Win32,269.6871629,657b66ea316d21385b68909f,,,,,,,,,,,101.9825,102.9823,102.9823,103.4822,103.4823,103.7304,103.7304,158,-22,109.8268,space,6.0896,,109.8268,113.7417,space,3.9056,,0,6,6,0,1,150,bars/single000.png,bars/mask006.png,,,,,,,,,,,,,,,,,,,,,,,,,,,,,,,,,,,,,,,,,,,,,,,,,,,,,,,,,,,,,,,,
,,654cb5da6bb60c3674457a8c,65af5578f6e775c50195c062,2024-01-23_07h07.53.808,bars,2023.2.3,Win32,269.6871629,657b66ea316d21385b68909f,,,,,,,,,,,113.7472,114.7452,114.7453,115.2453,115.2453,115.4944,115.4944,24,204,119.7861,space,4.2866,,119.7861,121.4676,space,1.6718,,0,7,7,1,1,20,bars/single001.png,bars/mask006.png,,,,,,,,,,,,,,,,,,,,,,,,,,,,,,,,,,,,,,,,,,,,,,,,,,,,,,,,,,,,,,,,
,,654cb5da6bb60c3674457a8c,65af5578f6e775c50195c062,2024-01-23_07h07.53.808,bars,2023.2.3,Win32,269.6871629,657b66ea316d21385b68909f,,,,,,,,,,,121.4677,122.4674,122.4674,122.9675,122.9675,123.2156,123.2156,178,-2,125.4119,space,2.1909,,125.412,126.7788,space,1.3602,,0,8,8,6,1,175,bars/single006.png,bars/mask005.png,,,,,,,,,,,,,,,,,,,,,,,,,,,,,,,,,,,,,,,,,,,,,,,,,,,,,,,,,,,,,,,,
,,654cb5da6bb60c3674457a8c,65af5578f6e775c50195c062,2024-01-23_07h07.53.808,bars,2023.2.3,Win32,269.6871629,657b66ea316d21385b68909f,,,,,,,,,,,126.7791,127.7786,127.7786,128.2786,128.2787,128.5267,128.5267,21,21,132.2046,space,3.6719,,132.2046,134.2009,space,1.9883,,0,9,9,3,1,20,bars/single003.png,bars/mask005.png,,,,,,,,,,,,,,,,,,,,,,,,,,,,,,,,,,,,,,,,,,,,,,,,,,,,,,,,,,,,,,,,
,,654cb5da6bb60c3674457a8c,65af5578f6e775c50195c062,2024-01-23_07h07.53.808,bars,2023.2.3,Win32,269.6871629,657b66ea316d21385b68909f,,,,,,,,,,,,,,,,,,,,,,,,,,,,,,,,,,,,,134.2012,150.9383,space,16.7298,,,,,,,,,,,,,,,,,,,,,,,,,,,,,,,,,,,,,,,,,,,,,,,,,,,,,,,,,,,,
,,654cb5da6bb60c3674457a8c,65af5578f6e775c50195c062,2024-01-23_07h07.53.808,bars,2023.2.3,Win32,269.6871629,657b66ea316d21385b68909f,,,,,,,,,,,,,,,,,,,,,,,,,,,,,,,,,,,,,,,,,,150.9445,152.8937,right,1.9425,,152.8937,2,2,153.8935,0,0,0,0,1,9,1,9,2,,,,,,,,,,,,,,,,,,,,,,,,,,,,,,,,,,,,,,,,,
,,654cb5da6bb60c3674457a8c,65af5578f6e775c50195c062,2024-01-23_07h07.53.808,bars,2023.2.3,Win32,269.6871629,657b66ea316d21385b68909f,,,,,,,,,,,,,,,,,,,,,,,,,,,,,,,,,,,,,,,,,,153.8937,155.3952,right,1.4968,,155.3953,1,2,156.3935,0,1,1,1,1,10,0,10,1,,,,,,,,,,,,,,,,,,,,,,,,,,,,,,,,,,,,,,,,,
,,654cb5da6bb60c3674457a8c,65af5578f6e775c50195c062,2024-01-23_07h07.53.808,bars,2023.2.3,Win32,269.6871629,657b66ea316d21385b68909f,,,,,,,,,,,,,,,,,,,,,,,,,,,,,,,,,,,,,,,,,,156.3936,156.8825,left,0.4825,,156.8825,10,1,157.8824,0,2,2,2,1,10,2,10,2,,,,,,,,,,,,,,,,,,,,,,,,,,,,,,,,,,,,,,,,,
,,654cb5da6bb60c3674457a8c,65af5578f6e775c50195c062,2024-01-23_07h07.53.808,bars,2023.2.3,Win32,269.6871629,657b66ea316d21385b68909f,,,,,,,,,,,,,,,,,,,,,,,,,,,,,,,,,,,,,,,,,,157.8825,158.6788,left,0.7892,,158.6788,7,1,159.6786,0,3,3,3,1,8,4,7,3,,,,,,,,,,,,,,,,,,,,,,,,,,,,,,,,,,,,,,,,,
,,654cb5da6bb60c3674457a8c,65af5578f6e775c50195c062,2024-01-23_07h07.53.808,bars,2023.2.3,Win32,269.6871629,657b66ea316d21385b68909f,,,,,,,,,,,,,,,,,,,,,,,,,,,,,,,,,,,,,,,,,,159.6788,160.2901,left,0.6041,,160.2902,5,1,161.2899,0,4,4,4,1,6,2,5,1,,,,,,,,,,,,,,,,,,,,,,,,,,,,,,,,,,,,,,,,,
,,654cb5da6bb60c3674457a8c,65af5578f6e775c50195c062,2024-01-23_07h07.53.808,bars,2023.2.3,Win32,269.6871629,657b66ea316d21385b68909f,,,,,,,,,,,,,,,,,,,,,,,,,,,,,,,,,,,,,,,,,,161.29,161.9639,right,0.6687,,161.9639,4,2,162.9639,0,5,5,5,1,4,4,4,4,,,,,,,,,,,,,,,,,,,,,,,,,,,,,,,,,,,,,,,,,
,,654cb5da6bb60c3674457a8c,65af5578f6e775c50195c062,2024-01-23_07h07.53.808,bars,2023.2.3,Win32,269.6871629,657b66ea316d21385b68909f,,,,,,,,,,,,,,,,,,,,,,,,,,,,,,,,,,,,,,,,,,162.964,163.5417,left,0.571,,163.5417,1,1,164.5417,0,6,6,6,1,2,2,1,2,,,,,,,,,,,,,,,,,,,,,,,,,,,,,,,,,,,,,,,,,
,,654cb5da6bb60c3674457a8c,65af5578f6e775c50195c062,2024-01-23_07h07.53.808,bars,2023.2.3,Win32,269.6871629,657b66ea316d21385b68909f,,,,,,,,,,,,,,,,,,,,,,,,,,,,,,,,,,,,,,,,,,164.5419,165.1084,right,0.5616,,165.1084,1,2,166.1083,0,7,7,7,1,0,0,0,1,,,,,,,,,,,,,,,,,,,,,,,,,,,,,,,,,,,,,,,,,
,,654cb5da6bb60c3674457a8c,65af5578f6e775c50195c062,2024-01-23_07h07.53.808,bars,2023.2.3,Win32,269.6871629,657b66ea316d21385b68909f,,,,,,,,,,,,,,,,,,,,,,,,,,,,,,,,,,,,,,,,,,166.1085,166.5344,left,0.4182,,166.5344,1,1,167.5342,0,8,8,8,1,0,2,1,0,,,,,,,,,,,,,,,,,,,,,,,,,,,,,,,,,,,,,,,,,
,,654cb5da6bb60c3674457a8c,65af5578f6e775c50195c062,2024-01-23_07h07.53.808,bars,2023.2.3,Win32,269.6871629,657b66ea316d21385b68909f,,,,,,,,,,,,,,,,,,,,,,,,,,,,,,,,,,,,,,,,,,167.5344,168.0491,left,0.5087,,168.0491,2,1,169.0491,0,9,9,9,1,2,4,2,3,,,,,,,,,,,,,,,,,,,,,,,,,,,,,,,,,,,,,,,,,
,,654cb5da6bb60c3674457a8c,65af5578f6e775c50195c062,2024-01-23_07h07.53.808,bars,2023.2.3,Win32,269.6871629,657b66ea316d21385b68909f,,,,,,,,,,,,,,,,,,,,,,,,,,,,,,,,,,,,,,,,,,169.0493,169.5381,left,0.4834,,169.5381,0,1,170.538,0,10,10,10,1,0,2,0,3,,,,,,,,,,,,,,,,,,,,,,,,,,,,,,,,,,,,,,,,,
,,654cb5da6bb60c3674457a8c,65af5578f6e775c50195c062,2024-01-23_07h07.53.808,bars,2023.2.3,Win32,269.6871629,657b66ea316d21385b68909f,,,,,,,,,,,,,,,,,,,,,,,,,,,,,,,,,,,,,,,,,,170.5381,171.0306,right,0.488,,171.0306,3,2,172.0306,0,11,11,11,1,0,4,0,3,,,,,,,,,,,,,,,,,,,,,,,,,,,,,,,,,,,,,,,,,
,,654cb5da6bb60c3674457a8c,65af5578f6e775c50195c062,2024-01-23_07h07.53.808,bars,2023.2.3,Win32,269.6871629,657b66ea316d21385b68909f,,,,,,,,,,,,,,,,,,,,,,,,,,,,,,,,,,,,,,,,,,172.0307,172.501,right,0.4645,,172.501,6,2,173.5009,0,12,12,12,1,2,6,1,6,,,,,,,,,,,,,,,,,,,,,,,,,,,,,,,,,,,,,,,,,
,,654cb5da6bb60c3674457a8c,65af5578f6e775c50195c062,2024-01-23_07h07.53.808,bars,2023.2.3,Win32,269.6871629,657b66ea316d21385b68909f,,,,,,,,,,,,,,,,,,,,,,,,,,,,,,,,,,,,,,,,,,173.5011,174.1084,right,0.6017,,174.1084,3,2,175.1083,0,13,13,13,1,0,4,1,3,,,,,,,,,,,,,,,,,,,,,,,,,,,,,,,,,,,,,,,,,
,,654cb5da6bb60c3674457a8c,65af5578f6e775c50195c062,2024-01-23_07h07.53.808,bars,2023.2.3,Win32,269.6871629,657b66ea316d21385b68909f,,,,,,,,,,,,,,,,,,,,,,,,,,,,,,,,,,,,,,,,,,175.1085,175.627,left,0.5124,,175.627,2,1,176.6269,0,14,14,14,1,2,6,2,7,,,,,,,,,,,,,,,,,,,,,,,,,,,,,,,,,,,,,,,,,
,,654cb5da6bb60c3674457a8c,65af5578f6e775c50195c062,2024-01-23_07h07.53.808,bars,2023.2.3,Win32,269.6871629,657b66ea316d21385b68909f,,,,,,,,,,,,,,,,,,,,,,,,,,,,,,,,,,,,,,,,,,176.6271,177.2084,left,0.5756,,177.2085,3,1,178.2084,0,15,15,15,1,4,8,3,9,,,,,,,,,,,,,,,,,,,,,,,,,,,,,,,,,,,,,,,,,
,,654cb5da6bb60c3674457a8c,65af5578f6e775c50195c062,2024-01-23_07h07.53.808,bars,2023.2.3,Win32,269.6871629,657b66ea316d21385b68909f,,,,,,,,,,,,,,,,,,,,,,,,,,,,,,,,,,,,,,,,,,178.2087,178.7565,left,0.5433,,178.7565,7,1,179.7565,0,16,16,16,1,6,6,7,7,,,,,,,,,,,,,,,,,,,,,,,,,,,,,,,,,,,,,,,,,
,,654cb5da6bb60c3674457a8c,65af5578f6e775c50195c062,2024-01-23_07h07.53.808,bars,2023.2.3,Win32,269.6871629,657b66ea316d21385b68909f,,,,,,,,,,,,,,,,,,,,,,,,,,,,,,,,,,,,,,,,,,179.7567,180.2196,left,0.4579,,180.2197,9,1,181.2195,0,17,17,17,1,8,4,9,5,,,,,,,,,,,,,,,,,,,,,,,,,,,,,,,,,,,,,,,,,
,,654cb5da6bb60c3674457a8c,65af5578f6e775c50195c062,2024-01-23_07h07.53.808,bars,2023.2.3,Win32,269.6871629,657b66ea316d21385b68909f,,,,,,,,,,,,,,,,,,,,,,,,,,,,,,,,,,,,,,,,,,181.2197,181.664,left,0.4388,,181.664,5,1,182.6639,0,18,18,18,1,6,2,5,1,,,,,,,,,,,,,,,,,,,,,,,,,,,,,,,,,,,,,,,,,
,,654cb5da6bb60c3674457a8c,65af5578f6e775c50195c062,2024-01-23_07h07.53.808,bars,2023.2.3,Win32,269.6871629,657b66ea316d21385b68909f,,,,,,,,,,,,,,,,,,,,,,,,,,,,,,,,,,,,,,,,,,182.6641,183.6491,left,0.9797,,183.6491,7,1,184.6491,0,19,19,19,1,8,0,7,0,,,,,,,,,,,,,,,,,,,,,,,,,,,,,,,,,,,,,,,,,
,,654cb5da6bb60c3674457a8c,65af5578f6e775c50195c062,2024-01-23_07h07.53.808,bars,2023.2.3,Win32,269.6871629,657b66ea316d21385b68909f,,,,,,,,,,,,,,,,,,,,,,,,,,,,,,,,,,,,,,,,,,,,,,,,,,,,,,,,,,,,184.6494,203.1087,space,18.4545,,,,,,,,,,,,,,,,,,,,,,,,,,,,,,,,,,,,,
,,654cb5da6bb60c3674457a8c,65af5578f6e775c50195c062,2024-01-23_07h07.53.808,bars,2023.2.3,Win32,269.6871629,657b66ea316d21385b68909f,,,,,,,,,,,205.0401,206.038,,,206.5381,206.7862,,155,-25,,,,,,,,,,,,,,,,bars/021.png,bars/mask007.png,,,,,,,,,,,,2,1,,,,,,,2,4,2,5,,,,,,203.1158,205.0381,space,1.9167,,206.0381,206.5381,206.7864,211.8087,space,5.0163,,211.8087,0,85,212.8085,212.8086,230.9977,space,18.182,,0,0,0,0,1,155,70,,,,,,,,
,,654cb5da6bb60c3674457a8c,65af5578f6e775c50195c062,2024-01-23_07h07.53.808,bars,2023.2.3,Win32,269.6871629,657b66ea316d21385b68909f,,,,,,,,,,,231.0035,232.001,,,232.5011,232.7492,,164,164,,,,,,,,,,,,,,,,bars/024.png,bars/mask006.png,,,,,,,,,,,,6,2,,,,,,,4,6,4,7,,,,,,,,,,,232.0011,232.5011,232.7493,236.0233,space,3.2684,,236.0234,44,6,237.0233,237.0233,248.4604,space,11.4274,,0,1,1,1,1,120,170,,,,,,,,
,,654cb5da6bb60c3674457a8c,65af5578f6e775c50195c062,2024-01-23_07h07.53.808,bars,2023.2.3,Win32,269.6871629,657b66ea316d21385b68909f,,,,,,,,,,,248.4666,249.4604,,,249.9603,250.2085,,165,-15,,,,,,,,,,,,,,,,bars/003.png,bars/mask000.png,,,,,,,,,,,,1,2,,,,,,,6,8,5,8,,,,,,,,,,,249.4604,249.9603,250.2085,254.2011,space,3.989,,254.2012,40,25,255.2011,255.2011,262.3494,space,7.1389,,0,2,2,2,1,25,140,,,,,,,,
,,654cb5da6bb60c3674457a8c,65af5578f6e775c50195c062,2024-01-23_07h07.53.808,bars,2023.2.3,Win32,269.6871629,657b66ea316d21385b68909f,,,,,,,,,,,262.3548,263.353,,,263.853,264.1012,,106,106,,,,,,,,,,,,,,,,bars/032.png,bars/mask003.png,,,,,,,,,,,,1,1,,,,,,,4,6,2,7,,,,,,,,,,,263.353,263.853,264.1012,268.0642,space,3.9605,,268.0642,19,86,269.0641,269.0642,277.3012,space,8.2216,,0,3,3,3,1,125,20,,,,,,,,
,,654cb5da6bb60c3674457a8c,65af5578f6e775c50195c062,2024-01-23_07h07.53.808,bars,2023.2.3,Win32,269.6871629,657b66ea316d21385b68909f,,,,,,,,,,,277.3076,278.3012,,,278.8012,279.0493,,26,26,,,,,,,,,,,,,,,,bars/031.png,bars/mask008.png,,,,,,,,,,,,3,2,,,,,,,6,4,6,4,,,,,,,,,,,278.3012,278.8011,279.0494,281.7901,space,2.7343,,281.7901,86,9,282.79,282.7901,287.4495,space,4.6474,,0,4,4,4,1,120,35,,,,,,,,
,,654cb5da6bb60c3674457a8c,65af5578f6e775c50195c062,2024-01-23_07h07.53.808,bars,2023.2.3,Win32,269.6871629,657b66ea316d21385b68909f,,,,,,,,,,,287.4549,288.453,,,288.951,289.1995,,99,99,,,,,,,,,,,,,,,,bars/009.png,bars/mask003.png,,,,,,,,,,,,2,2,,,,,,,8,2,9,3,,,,,,,,,,,288.453,288.951,289.1995,292.731,space,3.5278,,292.731,84,6,293.7308,293.7308,297.8864,space,4.1449,,0,5,5,5,1,15,105,,,,,,,,
,,654cb5da6bb60c3674457a8c,65af5578f6e775c50195c062,2024-01-23_07h07.53.808,bars,2023.2.3,Win32,269.6871629,657b66ea316d21385b68909f,,,,,,,,,,,297.8919,298.8901,,,299.3901,299.6382,,164,164,,,,,,,,,,,,,,,,bars/049.png,bars/mask006.png,,,,,,,,,,,,6,1,,,,,,,6,0,7,0,,,,,,,,,,,298.8901,299.3901,299.6382,303.4123,space,3.7696,,303.4124,4,49,304.4122,304.4123,308.9531,space,4.5303,,0,6,6,6,1,160,115,,,,,,,,
,,654cb5da6bb60c3674457a8c,65af5578f6e775c50195c062,2024-01-23_07h07.53.808,bars,2023.2.3,Win32,269.6871629,657b66ea316d21385b68909f,,,,,,,,,,,308.9586,309.9567,,,310.4568,310.7049,,24,204,,,,,,,,,,,,,,,,bars/047.png,bars/mask005.png,,,,,,,,,,,,3,1,,,,,,,4,2,4,2,,,,,,,,,,,309.9568,310.4568,310.7049,315.0219,space,4.3118,,315.0219,9,46,316.0198,316.0198,320.6124,space,4.5835,,0,7,7,7,1,15,70,,,,,,,,
,,654cb5da6bb60c3674457a8c,65af5578f6e775c50195c062,2024-01-23_07h07.53.808,bars,2023.2.3,Win32,269.6871629,657b66ea316d21385b68909f,,,,,,,,,,,320.6179,321.616,,,322.116,322.3642,,31,211,,,,,,,,,,,,,,,,bars/016.png,bars/mask003.png,,,,,,,,,,,,1,1,,,,,,,2,4,2,5,,,,,,,,,,,321.616,322.116,322.3643,326.3251,space,3.9542,,326.3252,9,46,327.3235,327.3235,335.0013,space,7.6684,,0,8,8,8,1,40,165,,,,,,,,
,,654cb5da6bb60c3674457a8c,65af5578f6e775c50195c062,2024-01-23_07h07.53.808,bars,2023.2.3,Win32,269.6871629,657b66ea316d21385b68909f,,,,,,,,,,,335.0072,336.0049,,,336.505,336.7532,,93,93,,,,,,,,,,,,,,,,bars/019.png,bars/mask005.png,,,,,,,,,,,,1,2,,,,,,,4,2,5,2,,,,,,,,,,,336.005,336.5049,336.7532,340.7087,space,3.9489,,340.7087,48,12,341.7087,341.7087,349.6317,space,7.9101,,0,9,9,9,1,45,105,,,,,,,,
,,654cb5da6bb60c3674457a8c,65af5578f6e775c50195c062,2024-01-23_07h07.53.808,bars,2023.2.3,Win32,269.6871629,657b66ea316d21385b68909f,,,,,,,,,,,349.6373,350.6346,,,351.1346,351.3827,,112,112,,,,,,,,,,,,,,,,bars/025.png,bars/mask001.png,,,,,,,,,,,,7,1,,,,,,,6,4,9,4,,,,,,,,,,,350.6346,351.1346,351.3827,354.2473,space,2.8589,,354.2474,7,72,355.2457,355.2457,360.268,space,5.0121,,0,10,10,10,1,105,40,,,,,,,,
,,654cb5da6bb60c3674457a8c,65af5578f6e775c50195c062,2024-01-23_07h07.53.808,bars,2023.2.3,Win32,269.6871629,657b66ea316d21385b68909f,,,,,,,,,,,360.2734,361.2717,,,361.7717,362.0198,,79,79,,,,,,,,,,,,,,,,bars/014.png,bars/mask004.png,,,,,,,,,,,,8,1,,,,,,,8,2,8,0,,,,,,,,,,,361.2717,361.7717,362.0198,365.3642,space,3.3389,,365.3642,1,79,366.3642,366.3643,370.1939,space,3.8184,,0,11,11,11,1,80,0,,,,,,,,
,,654cb5da6bb60c3674457a8c,65af5578f6e775c50195c062,2024-01-23_07h07.53.808,bars,2023.2.3,Win32,269.6871629,657b66ea316d21385b68909f,,,,,,,,,,,370.1991,371.1976,,,371.6976,371.9457,,106,106,,,,,,,,,,,,,,,,bars/031.png,bars/mask003.png,,,,,,,,,,,,5,1,,,,,,,10,4,10,4,,,,,,,,,,,371.1976,371.6976,371.9457,376.8532,space,4.9008,,376.8532,14,71,377.8531,377.8532,383.0791,space,5.2175,,0,12,12,12,1,120,35,,,,,,,,
,,654cb5da6bb60c3674457a8c,65af5578f6e775c50195c062,2024-01-23_07h07.53.808,bars,2023.2.3,Win32,269.6871629,657b66ea316d21385b68909f,,,,,,,,,,,383.0851,384.0827,,,384.5828,384.8309,,156,-24,,,,,,,,,,,,,,,,bars/001.png,bars/mask002.png,,,,,,,,,,,,1,1,,,,,,,8,2,8,1,,,,,,,,,,,384.0828,384.5827,384.8309,389.2569,space,4.4193,,389.257,26,71,390.2568,390.2568,401.668,space,11.4018,,0,13,13,13,1,130,85,,,,,,,,
,,654cb5da6bb60c3674457a8c,65af5578f6e775c50195c062,2024-01-23_07h07.53.808,bars,2023.2.3,Win32,269.6871629,657b66ea316d21385b68909f,,,,,,,,,,,401.6736,402.668,,,403.168,403.4162,,78,258,,,,,,,,,,,,,,,,bars/030.png,bars/mask003.png,,,,,,,,,,,,2,2,,,,,,,10,4,10,4,,,,,,,,,,,402.668,403.168,403.4162,409.1569,space,5.733,,409.157,62,13,410.1569,410.1569,416.2125,space,6.0452,,0,14,14,14,1,140,65,,,,,,,,
,,654cb5da6bb60c3674457a8c,65af5578f6e775c50195c062,2024-01-23_07h07.53.808,bars,2023.2.3,Win32,269.6871629,657b66ea316d21385b68909f,,,,,,,,,,,416.218,417.2162,,,417.7161,417.9643,,129,129,,,,,,,,,,,,,,,,bars/028.png,bars/mask007.png,,,,,,,,,,,,4,2,,,,,,,8,6,6,5,,,,,,,,,,,417.2162,417.7161,417.9643,420.531,space,2.5606,,420.5311,84,9,421.5309,421.531,424.0273,space,2.4871,,0,15,15,15,1,45,120,,,,,,,,
,,654cb5da6bb60c3674457a8c,65af5578f6e775c50195c062,2024-01-23_07h07.53.808,bars,2023.2.3,Win32,269.6871629,657b66ea316d21385b68909f,,,,,,,,,,,424.0274,425.0274,,,425.5272,425.7754,,43,223,,,,,,,,,,,,,,,,bars/022.png,bars/mask009.png,,,,,,,,,,,,1,2,,,,,,,6,8,6,6,,,,,,,,,,,425.0274,425.5272,425.7754,431.031,space,5.2495,,431.031,52,23,432.031,432.031,436.2236,space,4.183,,0,16,16,16,1,95,20,,,,,,,,
,,654cb5da6bb60c3674457a8c,65af5578f6e775c50195c062,2024-01-23_07h07.53.808,bars,2023.2.3,Win32,269.6871629,657b66ea316d21385b68909f,,,,,,,,,,,436.2292,437.2236,,,437.7235,437.9731,,157,-23,,,,,,,,,,,,,,,,bars/016.png,bars/mask002.png,,,,,,,,,,,,4,2,,,,,,,4,6,4,6,,,,,,,,,,,437.2236,437.7235,437.9731,442.9533,space,4.9746,,442.9533,63,8,443.9532,443.9533,447.357,space,3.3943,,0,17,17,17,1,40,165,,,,,,,,
,,654cb5da6bb60c3674457a8c,65af5578f6e775c50195c062,2024-01-23_07h07.53.808,bars,2023.2.3,Win32,269.6871629,657b66ea316d21385b68909f,,,,,,,,,,,447.3627,448.3606,,,448.8607,449.1088,,88,88,,,,,,,,,,,,,,,,bars/002.png,bars/mask000.png,,,,,,,,,,,,5,2,,,,,,,2,4,2,5,,,,,,,,,,,448.3607,448.8607,449.1088,453.194,space,4.0805,,453.194,42,3,454.194,454.194,458.231,space,4.0279,,0,18,18,18,1,130,85,,,,,,,,
,,654cb5da6bb60c3674457a8c,65af5578f6e775c50195c062,2024-01-23_07h07.53.808,bars,2023.2.3,Win32,269.6871629,657b66ea316d21385b68909f,,,,,,,,,,,458.2364,459.2347,,,459.7348,459.9828,,98,98,,,,,,,,,,,,,,,,bars/018.png,bars/mask005.png,,,,,,,,,,,,2,2,,,,,,,0,2,0,3,,,,,,,,,,,459.2347,459.7347,459.9829,463.568,space,3.5779,,463.5681,52,8,464.568,464.568,470.2792,space,5.7009,,0,19,19,19,1,150,90,,,,,,,,
,,654cb5da6bb60c3674457a8c,65af5578f6e775c50195c062,2024-01-23_07h07.53.808,bars,2023.2.3,Win32,269.6871629,657b66ea316d21385b68909f,,,,,,,,,,,470.2848,471.2829,,,471.7829,472.031,,160,160,,,,,,,,,,,,,,,,bars/016.png,bars/mask008.png,,,,,,,,,,,,1,2,,,,,,,2,0,0,1,,,,,,,,,,,471.2829,471.7829,472.031,476.3015,space,4.2665,,476.3015,60,5,477.3014,477.3014,480.5199,space,3.2073,,0,20,20,20,1,40,165,,,,,,,,
,,654cb5da6bb60c3674457a8c,65af5578f6e775c50195c062,2024-01-23_07h07.53.808,bars,2023.2.3,Win32,269.6871629,657b66ea316d21385b68909f,,,,,,,,,,,480.5253,481.5199,,,482.02,482.268,,119,119,,,,,,,,,,,,,,,,bars/027.png,bars/mask006.png,,,,,,,,,,,,5,1,,,,,,,4,2,7,2,,,,,,,,,,,481.5199,482.0199,482.268,484.4755,space,2.2014,,484.4755,9,69,485.4754,485.4754,488.0162,space,2.5286,,0,21,21,21,1,110,50,,,,,,,,
,,654cb5da6bb60c3674457a8c,65af5578f6e775c50195c062,2024-01-23_07h07.53.808,bars,2023.2.3,Win32,269.6871629,657b66ea316d21385b68909f,,,,,,,,,,,488.0164,489.0162,,,489.5163,489.7643,,174,-6,,,,,,,,,,,,,,,,bars/046.png,bars/mask008.png,,,,,,,,,,,,0,1,,,,,,,2,0,1,0,,,,,,,,,,,489.0162,489.5162,489.7644,493.8496,space,4.081,,493.8496,19,89,494.8495,494.8495,498.2903,space,3.4323,,0,22,22,22,1,155,85,,,,,,,,
,,654cb5da6bb60c3674457a8c,65af5578f6e775c50195c062,2024-01-23_07h07.53.808,bars,2023.2.3,Win32,269.6871629,657b66ea316d21385b68909f,,,,,,,,,,,498.2959,499.2939,,,499.794,500.0421,,165,165,,,,,,,,,,,,,,,,bars/036.png,bars/mask006.png,,,,,,,,,,,,0,1,,,,,,,0,0,0,3,,,,,,,,,,,499.2941,499.794,500.0421,502.5903,space,2.5425,,502.5903,20,35,503.5902,503.5903,516.7904,space,13.1913,,0,23,23,23,1,145,20,,,,,,,,
,,654cb5da6bb60c3674457a8c,65af5578f6e775c50195c062,2024-01-23_07h07.53.808,bars,2023.2.3,Win32,269.6871629,657b66ea316d21385b68909f,,,,,,,,,,,516.7962,517.7939,,,518.294,518.5421,,11,191,,,,,,,,,,,,,,,,bars/014.png,bars/mask008.png,,,,,,,,,,,,1,2,,,,,,,2,2,2,2,,,,,,,,,,,517.794,518.294,518.5421,523.1829,space,4.634,,523.183,69,11,524.1829,524.1829,528.7274,space,4.5344,,0,24,24,24,1,80,0,,,,,,,,
,,654cb5da6bb60c3674457a8c,65af5578f6e775c50195c062,2024-01-23_07h07.53.808,bars,2023.2.3,Win32,269.6871629,657b66ea316d21385b68909f,,,,,,,,,,,528.7328,529.7274,,,530.2273,530.4755,,86,266,,,,,,,,,,,,,,,,bars/013.png,bars/mask001.png,,,,,,,,,,,,1,1,,,,,,,4,0,2,0,,,,,,,,,,,529.7274,530.2273,530.4755,535.1163,space,4.635,,535.1163,11,76,536.1162,536.1162,541.1348,space,5.0017,,0,25,25,25,1,75,10,,,,,,,,
,,654cb5da6bb60c3674457a8c,65af5578f6e775c50195c062,2024-01-23_07h07.53.808,bars,2023.2.3,Win32,269.6871629,657b66ea316d21385b68909f,,,,,,,,,,,541.1412,542.1348,,,542.6347,542.8829,,33,33,,,,,,,,,,,,,,,,bars/029.png,bars/mask008.png,,,,,,,,,,,,1,2,,,,,,,2,2,2,2,,,,,,,,,,,542.1348,542.6347,542.8829,547.1903,space,4.3044,,547.1904,57,12,548.1903,548.1903,553.3311,space,5.1237,,0,26,26,26,1,90,45,,,,,,,,
,,654cb5da6bb60c3674457a8c,65af5578f6e775c50195c062,2024-01-23_07h07.53.808,bars,2023.2.3,Win32,269.6871629,657b66ea316d21385b68909f,,,,,,,,,,,553.3366,554.3347,,,554.8348,555.083,,38,38,,,,,,,,,,,,,,,,bars/025.png,bars/mask003.png,,,,,,,,,,,,6,2,,,,,,,0,4,0,6,,,,,,,,,,,554.3348,554.8348,555.083,557.783,space,2.694,,557.783,67,2,558.7829,558.7829,563.8533,space,5.0637,,0,27,27,27,1,105,40,,,,,,,,
,,654cb5da6bb60c3674457a8c,65af5578f6e775c50195c062,2024-01-23_07h07.53.808,bars,2023.2.3,Win32,269.6871629,657b66ea316d21385b68909f,,,,,,,,,,,563.8586,564.8533,,,565.3533,565.6014,,112,112,,,,,,,,,,,,,,,,bars/009.png,bars/mask006.png,,,,,,,,,,,,2,2,,,,,,,2,2,1,3,,,,,,,,,,,564.8533,565.3533,565.6014,569.0015,space,3.3953,,569.0015,83,7,570.0014,570.0014,574.231,space,4.22,,0,28,28,28,1,15,105,,,,,,,,
,,654cb5da6bb60c3674457a8c,65af5578f6e775c50195c062,2024-01-23_07h07.53.808,bars,2023.2.3,Win32,269.6871629,657b66ea316d21385b68909f,,,,,,,,,,,574.2365,575.231,,,575.7311,575.9792,,54,54,,,,,,,,,,,,,,,,bars/007.png,bars/mask001.png,,,,,,,,,,,,1,2,,,,,,,0,0,0,1,,,,,,,,,,,575.231,575.7311,575.9792,578.9422,space,2.9564,,578.9422,59,1,579.9422,579.9422,583.5127,space,3.5634,,0,29,29,29,1,175,55,,,,,,,,
,,654cb5da6bb60c3674457a8c,65af5578f6e775c50195c062,2024-01-23_07h07.53.808,bars,2023.2.3,Win32,269.6871629,657b66ea316d21385b68909f,,,,,,,,,,,583.5185,584.5163,,,585.0163,585.2631,,32,212,,,,,,,,,,,,,,,,bars/033.png,bars/mask002.png,,,,,,,,,,,,2,1,,,,,,,2,2,3,1,,,,,,,,,,,584.5163,585.0163,585.2631,588.9718,space,3.7055,,588.9718,7,57,589.9718,589.9718,593.3755,space,3.3933,,0,30,30,30,1,25,155,,,,,,,,
,,654cb5da6bb60c3674457a8c,65af5578f6e775c50195c062,2024-01-23_07h07.53.808,bars,2023.2.3,Win32,269.6871629,657b66ea316d21385b68909f,,,,,,,,,,,593.3822,594.3755,,,594.8756,595.1237,,43,43,,,,,,,,,,,,,,,,bars/000.png,bars/mask004.png,,,,,,,,,,,,0,1,,,,,,,0,0,0,0,,,,,,,,,,,594.3755,594.8756,595.1237,600.2163,space,5.0884,,600.2163,3,78,601.2162,601.2162,604.9052,space,3.6806,,0,31,31,31,1,40,145,,,,,,,,
,,654cb5da6bb60c3674457a8c,65af5578f6e775c50195c062,2024-01-23_07h07.53.808,bars,2023.2.3,Win32,269.6871629,657b66ea316d21385b68909f,,,,,,,,,,,604.911,605.9092,,,606.4089,606.657,,136,136,,,,,,,,,,,,,,,,bars/003.png,bars/mask008.png,,,,,,,,,,,,0,2,,,,,,,0,0,1,0,,,,,,,,,,,605.9092,606.4089,606.657,609.7977,space,3.1354,,609.7978,69,4,610.7978,610.7978,614.4978,space,3.6828,,0,32,32,32,1,25,140,,,,,,,,
,,654cb5da6bb60c3674457a8c,65af5578f6e775c50195c062,2024-01-23_07h07.53.808,bars,2023.2.3,Win32,269.6871629,657b66ea316d21385b68909f,,,,,,,,,,,614.5034,615.4978,,,615.9978,616.2459,,80,80,,,,,,,,,,,,,,,,bars/012.png,bars/mask005.png,,,,,,,,,,,,1,1,,,,,,,2,0,1,2,,,,,,,,,,,615.4978,615.9977,616.2459,619.5014,space,3.2494,,619.5015,10,65,620.5015,620.5015,624.0793,space,3.5654,,0,33,33,33,1,90,15,,,,,,,,
,,654cb5da6bb60c3674457a8c,65af5578f6e775c50195c062,2024-01-23_07h07.53.808,bars,2023.2.3,Win32,269.6871629,657b66ea316d21385b68909f,,,,,,,,,,,624.0849,625.0793,,,625.5793,625.8274,,83,83,,,,,,,,,,,,,,,,bars/044.png,bars/mask007.png,,,,,,,,,,,,0,1,,,,,,,0,0,0,0,,,,,,,,,,,625.0793,625.5792,625.8274,628.4089,space,2.5766,,628.4089,8,72,629.4089,629.4089,635.2882,space,5.871,,0,34,34,34,1,75,155,,,,,,,,
,,654cb5da6bb60c3674457a8c,65af5578f6e775c50195c062,2024-01-23_07h07.53.808,bars,2023.2.3,Win32,269.6871629,657b66ea316d21385b68909f,,,,,,,,,,,635.2933,636.2903,,,636.7903,637.0388,,85,85,,,,,,,,,,,,,,,,bars/002.png,bars/mask000.png,,,,,,,,,,,,2,2,,,,,,,2,2,2,2,,,,,,,,,,,636.2904,636.7903,637.0388,640.1275,space,3.0834,,640.1275,45,0,641.1274,641.1274,645.5793,space,4.4407,,0,35,35,35,1,130,85,,,,,,,,
,,654cb5da6bb60c3674457a8c,65af5578f6e775c50195c062,2024-01-23_07h07.53.808,bars,2023.2.3,Win32,269.6871629,657b66ea316d21385b68909f,,,,,,,,,,,645.5848,646.5793,,,647.0793,647.3274,,96,96,,,,,,,,,,,,,,,,bars/037.png,bars/mask006.png,,,,,,,,,,,,0,2,,,,,,,0,0,0,0,,,,,,,,,,,646.5793,647.0793,647.3274,649.5423,space,2.2087,,649.5423,54,9,650.5422,650.5422,657.0201,space,6.4739,,0,36,36,36,1,150,105,,,,,,,,
,,654cb5da6bb60c3674457a8c,65af5578f6e775c50195c062,2024-01-23_07h07.53.808,bars,2023.2.3,Win32,269.6871629,657b66ea316d21385b68909f,,,,,,,,,,,657.0259,658.0237,,,658.5237,658.7719,,143,143,,,,,,,,,,,,,,,,bars/032.png,bars/mask007.png,,,,,,,,,,,,0,1,,,,,,,0,0,0,0,,,,,,,,,,,658.0237,658.5237,658.7719,662.1052,space,3.3273,,662.1052,18,57,663.1052,663.1052,667.0386,space,3.9134,,0,37,37,37,1,125,20,,,,,,,,
,,654cb5da6bb60c3674457a8c,65af5578f6e775c50195c062,2024-01-23_07h07.53.808,bars,2023.2.3,Win32,269.6871629,657b66ea316d21385b68909f,,,,,,,,,,,667.0448,668.0422,,,668.5422,668.7903,,119,119,,,,,,,,,,,,,,,,bars/023.png,bars/mask007.png,,,,,,,,,,,,0,2,,,,,,,0,0,0,0,,,,,,,,,,,668.0422,668.5422,668.7903,670.4015,space,1.6085,,670.4016,81,4,671.4014,671.4015,674.5979,space,3.1782,,0,38,38,38,1,20,115,,,,,,,,
,,654cb5da6bb60c3674457a8c,65af5578f6e775c50195c062,2024-01-23_07h07.53.808,bars,2023.2.3,Win32,269.6871629,657b66ea316d21385b68909f,,,,,,,,,,,674.598,675.5978,,,676.0978,676.3459,,112,112,,,,,,,,,,,,,,,,bars/008.png,bars/mask004.png,,,,,,,,,,,,0,1,,,,,,,0,2,0,3,,,,,,,,,,,675.5978,676.0978,676.3459,677.7867,space,1.433,,677.7867,2,68,678.7867,678.7867,685.2904,space,6.4907,,0,39,39,39,1,110,0,,,,,,,,
,,654cb5da6bb60c3674457a8c,65af5578f6e775c50195c062,2024-01-23_07h07.53.808,bars,2023.2.3,Win32,269.6871629,657b66ea316d21385b68909f,,,,,,,,,,,685.2961,686.2904,,,686.7904,687.0386,,70,70,,,,,,,,,,,,,,,,bars/042.png,bars/mask009.png,,,,,,,,,,,,1,2,,,,,,,2,0,1,1,,,,,,,,,,,686.2904,686.7903,687.0386,690.4533,space,3.4083,,690.4534,75,5,691.4533,691.4533,695.157,space,3.6943,,0,40,40,40,1,145,75,,,,,,,,
,,654cb5da6bb60c3674457a8c,65af5578f6e775c50195c062,2024-01-23_07h07.53.808,bars,2023.2.3,Win32,269.6871629,657b66ea316d21385b68909f,,,,,,,,,,,695.1572,696.157,,,696.6571,696.9052,,57,57,,,,,,,,,,,,,,,,bars/034.png,bars/mask007.png,,,,,,,,,,,,2,2,,,,,,,4,2,5,3,,,,,,,,,,,696.1571,696.6571,696.9052,701.4497,space,4.5385,,701.4497,68,8,702.4496,702.4496,705.5757,space,3.1173,,0,41,41,41,1,125,65,,,,,,,,
,,654cb5da6bb60c3674457a8c,65af5578f6e775c50195c062,2024-01-23_07h07.53.808,bars,2023.2.3,Win32,269.6871629,657b66ea316d21385b68909f,,,,,,,,,,,705.5814,706.5792,,,707.0793,707.3274,,5,5,,,,,,,,,,,,,,,,bars/040.png,bars/mask005.png,,,,,,,,,,,,5,2,,,,,,,2,4,2,5,,,,,,,,,,,706.5793,707.0793,707.3274,710.6142,space,3.2816,,710.6142,45,0,711.6126,711.6126,714.4386,space,2.8162,,0,42,42,42,1,140,5,,,,,,,,
,,654cb5da6bb60c3674457a8c,65af5578f6e775c50195c062,2024-01-23_07h07.53.808,bars,2023.2.3,Win32,269.6871629,657b66ea316d21385b68909f,,,,,,,,,,,714.4387,715.4385,,,715.9385,716.1866,,6,6,,,,,,,,,,,,,,,,bars/014.png,bars/mask006.png,,,,,,,,,,,,2,2,,,,,,,4,2,3,2,,,,,,,,,,,715.4385,715.9385,716.1866,722.0201,space,5.8277,,722.0201,74,6,723.02,723.0201,726.346,space,3.3164,,0,43,43,43,1,80,0,,,,,,,,
,,654cb5da6bb60c3674457a8c,65af5578f6e775c50195c062,2024-01-23_07h07.53.808,bars,2023.2.3,Win32,269.6871629,657b66ea316d21385b68909f,,,,,,,,,,,726.3516,727.3496,,,727.8496,728.0977,,149,149,,,,,,,,,,,,,,,,bars/043.png,bars/mask007.png,,,,,,,,,,,,0,2,,,,,,,2,0,1,0,,,,,,,,,,,727.3496,727.8496,728.0977,731.8423,space,3.7365,,731.8424,61,19,732.8427,732.8427,738.7089,space,5.8569,,0,44,44,44,1,30,130,,,,,,,,
,,654cb5da6bb60c3674457a8c,65af5578f6e775c50195c062,2024-01-23_07h07.53.808,bars,2023.2.3,Win32,269.6871629,657b66ea316d21385b68909f,,,,,,,,,,,738.7144,739.7089,,,740.2092,740.4571,,158,158,,,,,,,,,,,,,,,,bars/020.png,bars/mask006.png,,,,,,,,,,,,1,2,,,,,,,0,2,0,2,,,,,,,,,,,739.7089,740.2092,740.4571,744.9645,space,4.5008,,744.9645,43,12,745.9644,745.9645,753.7497,space,7.7748,,0,45,45,45,1,115,170,,,,,,,,
,,654cb5da6bb60c3674457a8c,65af5578f6e775c50195c062,2024-01-23_07h07.53.808,bars,2023.2.3,Win32,269.6871629,657b66ea316d21385b68909f,,,,,,,,,,,753.7554,754.7497,,,755.2496,755.4978,,91,91,,,,,,,,,,,,,,,,bars/011.png,bars/mask009.png,,,,,,,,,,,,0,2,,,,,,,2,0,2,0,,,,,,,,,,,754.7497,755.2496,755.4978,761.2053,space,5.7002,,761.2053,69,6,762.2052,762.2052,766.1497,space,3.9351,,0,46,46,46,1,160,85,,,,,,,,
,,654cb5da6bb60c3674457a8c,65af5578f6e775c50195c062,2024-01-23_07h07.53.808,bars,2023.2.3,Win32,269.6871629,657b66ea316d21385b68909f,,,,,,,,,,,766.1499,767.1497,,,767.6497,767.8978,,133,133,,,,,,,,,,,,,,,,bars/001.png,bars/mask008.png,,,,,,,,,,,,3,1,,,,,,,4,2,3,2,,,,,,,,,,,767.1497,767.6496,767.8978,771.3942,space,3.4928,,771.3942,3,48,772.3941,772.3941,775.5942,space,3.189,,0,47,47,47,1,130,85,,,,,,,,
,,654cb5da6bb60c3674457a8c,65af5578f6e775c50195c062,2024-01-23_07h07.53.808,bars,2023.2.3,Win32,269.6871629,657b66ea316d21385b68909f,,,,,,,,,,,775.5943,776.5941,,,777.0944,777.3423,,44,44,,,,,,,,,,,,,,,,bars/028.png,bars/mask004.png,,,,,,,,,,,,5,1,,,,,,,6,0,5,2,,,,,,,,,,,776.5941,777.0944,777.3423,779.5274,space,2.1797,,779.5274,1,76,780.5274,780.5275,783.1608,space,2.6238,,0,48,48,48,1,45,120,,,,,,,,
,,654cb5da6bb60c3674457a8c,65af5578f6e775c50195c062,2024-01-23_07h07.53.808,bars,2023.2.3,Win32,269.6871629,657b66ea316d21385b68909f,,,,,,,,,,,783.161,784.1607,,,784.6608,784.9089,,32,212,,,,,,,,,,,,,,,,bars/043.png,bars/mask006.png,,,,,,,,,,,,4,1,,,,,,,4,0,4,1,,,,,,,,,,,784.1607,784.6608,784.9089,788.2794,space,3.3656,,788.2794,2,82,789.2793,789.2793,791.6794,space,2.392,,0,49,49,49,1,30,130,,,,,,,,
,,654cb5da6bb60c3674457a8c,65af5578f6e775c50195c062,2024-01-23_07h07.53.808,bars,2023.2.3,Win32,269.6871629,657b66ea316d21385b68909f,,,,,,,,,,,,,,,,,,,,,,,,,,,,,,,,,,,,,,,,,,,,,,,,,,,,,,,,,,,,,,,,,,,,,,,,,,,,,,,,,,,,,,,,,,,,,791.6796,851.6796,0,0,0,3,1,sequence_tables/blk040.csv
,,654cb5da6bb60c3674457a8c,65af5578f6e775c50195c062,2024-01-23_07h07.53.808,bars,2023.2.3,Win32,269.6871629,657b66ea316d21385b68909f,,,,,,,,,,,866.0316,867.0274,,,867.5274,867.7756,,169,-11,,,,,,,,,,,,,,,,bars/048.png,bars/mask003.png,,,,,,,,,,,,6,2,,,,,,,8,7,10,8,,,,,,851.6854,866.0238,space,14.3351,,867.0275,867.5274,867.7756,873.2312,space,5.4491,,873.2312,61,6,874.2312,874.2312,874.2372,,,,0,0,0,0,1,50,175,,,,,,,,
,,654cb5da6bb60c3674457a8c,65af5578f6e775c50195c062,2024-01-23_07h07.53.808,bars,2023.2.3,Win32,269.6871629,657b66ea316d21385b68909f,,,,,,,,,,,874.2374,875.2348,,,875.7349,875.983,,147,-33,,,,,,,,,,,,,,,,bars/038.png,bars/mask006.png,,,,,,,,,,,,2,1,,,,,,,6,5,6,4,,,,,,,,,,,875.2348,875.7349,875.983,881.3386,space,5.3512,,881.3386,18,77,882.3386,882.3386,882.3448,,,,0,1,1,1,1,165,70,,,,,,,,
,,654cb5da6bb60c3674457a8c,65af5578f6e775c50195c062,2024-01-23_07h07.53.808,bars,2023.2.3,Win32,269.6871629,657b66ea316d21385b68909f,,,,,,,,,,,882.3448,883.3422,,,883.8423,884.0904,,24,24,,,,,,,,,,,,,,,,bars/000.png,bars/mask008.png,,,,,,,,,,,,4,1,,,,,,,8,7,8,9,,,,,,,,,,,883.3423,883.8422,884.0904,888.209,space,4.113,,888.209,16,59,889.2089,889.2089,889.2144,,,,0,2,2,2,1,40,145,,,,,,,,
,,654cb5da6bb60c3674457a8c,65af5578f6e775c50195c062,2024-01-23_07h07.53.808,bars,2023.2.3,Win32,269.6871629,657b66ea316d21385b68909f,,,,,,,,,,,889.2145,890.213,,,890.7126,890.9608,,43,43,,,,,,,,,,,,,,,,bars/004.png,bars/mask005.png,,,,,,,,,,,,4,1,,,,,,,10,5,9,4,,,,,,,,,,,890.213,890.7126,890.9608,893.3659,space,2.4011,,893.3659,18,82,894.3645,894.3645,894.3702,,,,0,3,3,3,1,25,125,,,,,,,,
,,654cb5da6bb60c3674457a8c,65af5578f6e775c50195c062,2024-01-23_07h07.53.808,bars,2023.2.3,Win32,269.6871629,657b66ea316d21385b68909f,,,,,,,,,,,894.3703,895.3681,,,895.8682,896.1163,,118,118,,,,,,,,,,,,,,,,bars/020.png,bars/mask008.png,,,,,,,,,,,,9,1,,,,,,,10,7,10,8,,,,,,,,,,,895.3681,895.8682,896.1163,900.3163,space,4.1939,,900.3164,3,52,901.3163,901.3163,901.3219,,,,0,4,4,4,1,115,170,,,,,,,,
,,654cb5da6bb60c3674457a8c,65af5578f6e775c50195c062,2024-01-23_07h07.53.808,bars,2023.2.3,Win32,269.6871629,657b66ea316d21385b68909f,,,,,,,,,,,901.322,902.32,,,902.82,903.0682,,27,27,,,,,,,,,,,,,,,,bars/016.png,bars/mask005.png,,,,,,,,,,,,6,1,,,,,,,10,5,10,6,,,,,,,,,,,902.32,902.82,903.0682,905.1904,space,2.1166,,905.1904,13,42,906.1904,906.1904,906.1907,,,,0,5,5,5,1,40,165,,,,,,,,
,,654cb5da6bb60c3674457a8c,65af5578f6e775c50195c062,2024-01-23_07h07.53.808,bars,2023.2.3,Win32,269.6871629,657b66ea316d21385b68909f,,,,,,,,,,,906.1908,907.1904,,,907.6904,907.9386,,20,20,,,,,,,,,,,,,,,,bars/003.png,bars/mask002.png,,,,,,,,,,,,8,1,,,,,,,10,7,10,7,,,,,,,,,,,907.1904,907.6904,907.9386,913.8385,space,5.8945,,913.8385,5,60,914.8385,914.8385,914.8446,,,,0,6,6,6,1,25,140,,,,,,,,
,,654cb5da6bb60c3674457a8c,65af5578f6e775c50195c062,2024-01-23_07h07.53.808,bars,2023.2.3,Win32,269.6871629,657b66ea316d21385b68909f,,,,,,,,,,,914.8448,915.8422,,,916.3423,916.5904,,6,186,,,,,,,,,,,,,,,,bars/011.png,bars/mask005.png,,,,,,,,,,,,1,1,,,,,,,10,5,9,7,,,,,,,,,,,915.8422,916.3423,916.5904,921.0423,space,4.4461,,921.0423,26,79,922.0423,922.0423,922.048,,,,0,7,7,7,1,160,85,,,,,,,,
,,654cb5da6bb60c3674457a8c,65af5578f6e775c50195c062,2024-01-23_07h07.53.808,bars,2023.2.3,Win32,269.6871629,657b66ea316d21385b68909f,,,,,,,,,,,922.0482,923.046,,,923.546,923.7941,,172,-8,,,,,,,,,,,,,,,,bars/023.png,bars/mask009.png,,,,,,,,,,,,1,1,,,,,,,8,3,9,3,,,,,,,,,,,923.046,923.546,923.7941,926.5126,space,2.7117,,926.5126,28,57,927.5126,927.5126,927.5193,,,,0,8,8,8,1,20,115,,,,,,,,
,,654cb5da6bb60c3674457a8c,65af5578f6e775c50195c062,2024-01-23_07h07.53.808,bars,2023.2.3,Win32,269.6871629,657b66ea316d21385b68909f,,,,,,,,,,,927.5194,928.52,,,929.0201,929.2682,,97,277,,,,,,,,,,,,,,,,bars/022.png,bars/mask000.png,,,,,,,,,,,,7,1,,,,,,,6,1,7,0,,,,,,,,,,,928.52,929.0201,929.2682,936.7867,space,7.5151,,936.7868,2,77,937.7867,937.7867,937.7927,,,,0,9,9,9,1,95,20,,,,,,,,
,,654cb5da6bb60c3674457a8c,65af5578f6e775c50195c062,2024-01-23_07h07.53.808,bars,2023.2.3,Win32,269.6871629,657b66ea316d21385b68909f,,,,,,,,,,,937.7928,938.7904,,,939.2883,939.5385,,32,32,,,,,,,,,,,,,,,,bars/006.png,bars/mask002.png,,,,,,,,,,,,5,1,,,,,,,4,3,5,4,,,,,,,,,,,938.7904,939.2883,939.5385,948.6459,space,9.102,,948.646,3,68,949.6459,949.6459,949.6518,,,,0,10,10,10,1,35,100,,,,,,,,
,,654cb5da6bb60c3674457a8c,65af5578f6e775c50195c062,2024-01-23_07h07.53.808,bars,2023.2.3,Win32,269.6871629,657b66ea316d21385b68909f,,,,,,,,,,,949.6519,950.6496,,,951.1537,951.4015,,121,121,,,,,,,,,,,,,,,,bars/031.png,bars/mask001.png,,,,,,,,,,,,5,1,,,,,,,6,1,5,0,,,,,,,,,,,950.6497,951.1537,951.4016,955.8311,space,4.4242,,955.8311,1,86,956.8311,956.8312,956.837,,,,0,11,11,11,1,120,35,,,,,,,,
,,654cb5da6bb60c3674457a8c,65af5578f6e775c50195c062,2024-01-23_07h07.53.808,bars,2023.2.3,Win32,269.6871629,657b66ea316d21385b68909f,,,,,,,,,,,956.8371,957.8348,,,958.3348,958.583,,35,35,,,,,,,,,,,,,,,,bars/006.png,bars/mask000.png,,,,,,,,,,,,9,1,,,,,,,8,0,9,1,,,,,,,,,,,957.8348,958.3348,958.583,962.3017,space,3.7143,,962.3017,0,65,963.3015,963.3015,963.3073,,,,0,12,12,12,1,35,100,,,,,,,,
,,654cb5da6bb60c3674457a8c,65af5578f6e775c50195c062,2024-01-23_07h07.53.808,bars,2023.2.3,Win32,269.6871629,657b66ea316d21385b68909f,,,,,,,,,,,963.3074,964.3052,,,964.8053,965.0534,,138,-42,,,,,,,,,,,,,,,,bars/002.png,bars/mask002.png,,,,,,,,,,,,6,1,,,,,,,10,0,8,0,,,,,,,,,,,964.3052,964.8052,965.0534,971.7608,space,6.7004,,971.7608,8,53,972.7607,972.7608,972.7667,,,,0,13,13,13,1,130,85,,,,,,,,
,,654cb5da6bb60c3674457a8c,65af5578f6e775c50195c062,2024-01-23_07h07.53.808,bars,2023.2.3,Win32,269.6871629,657b66ea316d21385b68909f,,,,,,,,,,,972.7668,973.7645,,,974.2645,974.5126,,31,31,,,,,,,,,,,,,,,,bars/006.png,bars/mask000.png,,,,,,,,,,,,8,1,,,,,,,8,0,9,0,,,,,,,,,,,973.7645,974.2645,974.5126,977.8645,space,3.3456,,977.8645,4,69,978.8645,978.8645,978.8705,,,,0,14,14,14,1,35,100,,,,,,,,
,,654cb5da6bb60c3674457a8c,65af5578f6e775c50195c062,2024-01-23_07h07.53.808,bars,2023.2.3,Win32,269.6871629,657b66ea316d21385b68909f,,,,,,,,,,,978.8707,979.8682,,,980.3681,980.6163,,141,141,,,,,,,,,,,,,,,,bars/032.png,bars/mask006.png,,,,,,,,,,,,2,1,,,,,,,6,0,5,1,,,,,,,,,,,979.8682,980.3681,980.6163,985.4645,space,4.8448,,985.4645,16,59,986.4644,986.4645,986.4702,,,,0,15,15,15,1,125,20,,,,,,,,
,,654cb5da6bb60c3674457a8c,65af5578f6e775c50195c062,2024-01-23_07h07.53.808,bars,2023.2.3,Win32,269.6871629,657b66ea316d21385b68909f,,,,,,,,,,,986.4703,987.4681,,,987.9682,988.2163,,36,216,,,,,,,,,,,,,,,,bars/026.png,bars/mask005.png,,,,,,,,,,,,3,1,,,,,,,4,2,3,2,,,,,,,,,,,987.4681,987.9682,988.2163,991.4403,space,3.2199,,991.4403,1,49,992.4385,992.4385,992.4442,,,,0,16,16,16,1,35,85,,,,,,,,
,,654cb5da6bb60c3674457a8c,65af5578f6e775c50195c062,2024-01-23_07h07.53.808,bars,2023.2.3,Win32,269.6871629,657b66ea316d21385b68909f,,,,,,,,,,,992.4443,993.4422,,,993.9423,994.1904,,129,129,,,,,,,,,,,,,,,,bars/037.png,bars/mask005.png,,,,,,,,,,,,1,1,,,,,,,2,0,4,1,,,,,,,,,,,993.4422,993.9423,994.1904,998.2164,space,4.0193,,998.2164,21,24,999.2163,999.2163,999.2222,,,,0,17,17,17,1,150,105,,,,,,,,
,,654cb5da6bb60c3674457a8c,65af5578f6e775c50195c062,2024-01-23_07h07.53.808,bars,2023.2.3,Win32,269.6871629,657b66ea316d21385b68909f,,,,,,,,,,,999.2222,1000.22,,,1000.72,1000.9681,,134,-46,,,,,,,,,,,,,,,,bars/004.png,bars/mask004.png,,,,,,,,,,,,1,2,,,,,,,0,0,1,1,,,,,,,,,,,1000.22,1000.72,1000.9681,1004.9978,space,4.0249,,1004.9979,71,9,1005.9978,1005.9978,1006.0178,,,,0,18,18,18,1,25,125,,,,,,,,
,,654cb5da6bb60c3674457a8c,65af5578f6e775c50195c062,2024-01-23_07h07.53.808,bars,2023.2.3,Win32,269.6871629,657b66ea316d21385b68909f,,,,,,,,,,,1006.0179,1007.0176,,,1007.5163,1007.7645,,46,46,,,,,,,,,,,,,,,,bars/017.png,bars/mask008.png,,,,,,,,,,,,0,2,,,,,,,2,0,3,0,,,,,,,,,,,1007.0177,1007.5163,1007.7645,1009.5682,space,1.7981,,1009.5682,81,1,1010.5682,1010.5682,1010.5686,,,,0,19,19,19,1,145,45,,,,,,,,
,,654cb5da6bb60c3674457a8c,65af5578f6e775c50195c062,2024-01-23_07h07.53.808,bars,2023.2.3,Win32,269.6871629,657b66ea316d21385b68909f,,,,,,,,,,,1010.5686,1011.5682,,,1012.0682,1012.3163,,29,209,,,,,,,,,,,,,,,,bars/000.png,bars/mask003.png,,,,,,,,,,,,1,1,,,,,,,4,2,2,1,,,,,,,,,,,1011.5682,1012.0682,1012.3163,1016.2867,space,3.9645,,1016.2868,11,64,1017.2867,1017.2867,1017.2927,,,,0,20,20,20,1,40,145,,,,,,,,
,,654cb5da6bb60c3674457a8c,65af5578f6e775c50195c062,2024-01-23_07h07.53.808,bars,2023.2.3,Win32,269.6871629,657b66ea316d21385b68909f,,,,,,,,,,,1017.2928,1018.2904,,,1018.7905,1019.0385,,166,-14,,,,,,,,,,,,,,,,bars/049.png,bars/mask004.png,,,,,,,,,,,,3,1,,,,,,,2,4,4,4,,,,,,,,,,,1018.2904,1018.7904,1019.0385,1024.6608,space,5.6172,,1024.6608,6,51,1025.6608,1025.6608,1025.6665,,,,0,21,21,21,1,160,115,,,,,,,,
,,654cb5da6bb60c3674457a8c,65af5578f6e775c50195c062,2024-01-23_07h07.53.808,bars,2023.2.3,Win32,269.6871629,657b66ea316d21385b68909f,,,,,,,,,,,1025.6667,1026.6645,,,1027.1645,1027.4126,,100,100,,,,,,,,,,,,,,,,bars/008.png,bars/mask008.png,,,,,,,,,,,,0,1,,,,,,,0,2,0,2,,,,,,,,,,,1026.6645,1027.1645,1027.4126,1030.8534,space,3.4392,,1030.8534,10,80,1031.8534,1031.8534,1031.8592,,,,0,22,22,22,1,110,0,,,,,,,,
,,654cb5da6bb60c3674457a8c,65af5578f6e775c50195c062,2024-01-23_07h07.53.808,bars,2023.2.3,Win32,269.6871629,657b66ea316d21385b68909f,,,,,,,,,,,1031.8593,1032.8571,,,1033.3571,1033.6052,,109,109,,,,,,,,,,,,,,,,bars/045.png,bars/mask009.png,,,,,,,,,,,,2,1,,,,,,,2,0,3,0,,,,,,,,,,,1032.8571,1033.3571,1033.6052,1036.6348,space,3.0226,,1036.6349,9,81,1037.6348,1037.6348,1037.6407,,,,0,23,23,23,1,100,10,,,,,,,,
,,654cb5da6bb60c3674457a8c,65af5578f6e775c50195c062,2024-01-23_07h07.53.808,bars,2023.2.3,Win32,269.6871629,657b66ea316d21385b68909f,,,,,,,,,,,1037.6408,1038.6386,,,1039.1385,1039.3867,,51,51,,,,,,,,,,,,,,,,bars/028.png,bars/mask007.png,,,,,,,,,,,,0,1,,,,,,,0,2,0,3,,,,,,,,,,,1038.6386,1039.1385,1039.3867,1042.1719,space,2.7816,,1042.1719,6,69,1043.1719,1043.1719,1043.1777,,,,0,24,24,24,1,45,120,,,,,,,,
,,654cb5da6bb60c3674457a8c,65af5578f6e775c50195c062,2024-01-23_07h07.53.808,bars,2023.2.3,Win32,269.6871629,657b66ea316d21385b68909f,,,,,,,,,,,1043.1778,1044.177,,,1044.6756,1044.9237,,44,44,,,,,,,,,,,,,,,,bars/034.png,bars/mask008.png,,,,,,,,,,,,1,2,,,,,,,0,4,0,4,,,,,,,,,,,1044.177,1044.6756,1044.9237,1046.8534,space,1.9226,,1046.8534,81,21,1047.8533,1047.8533,1047.8595,,,,0,25,25,25,1,125,65,,,,,,,,
,,654cb5da6bb60c3674457a8c,65af5578f6e775c50195c062,2024-01-23_07h07.53.808,bars,2023.2.3,Win32,269.6871629,657b66ea316d21385b68909f,,,,,,,,,,,1047.8596,1048.8571,,,1049.3571,1049.6052,,105,105,,,,,,,,,,,,,,,,bars/027.png,bars/mask002.png,,,,,,,,,,,,3,1,,,,,,,2,2,4,1,,,,,,,,,,,1048.8571,1049.3571,1049.6052,1053.8609,space,4.2548,,1053.8609,5,55,1054.8608,1054.8608,1054.8669,,,,0,26,26,26,1,110,50,,,,,,,,
,,654cb5da6bb60c3674457a8c,65af5578f6e775c50195c062,2024-01-23_07h07.53.808,bars,2023.2.3,Win32,269.6871629,657b66ea316d21385b68909f,,,,,,,,,,,1054.8669,1055.8645,,,1056.3645,1056.6127,,106,106,,,,,,,,,,,,,,,,bars/032.png,bars/mask008.png,,,,,,,,,,,,0,1,,,,,,,0,4,0,4,,,,,,,,,,,1055.8645,1056.3645,1056.6127,1061.6475,space,5.0305,,1061.6475,19,86,1062.646,1062.646,1062.6516,,,,0,27,27,27,1,125,20,,,,,,,,
,,654cb5da6bb60c3674457a8c,65af5578f6e775c50195c062,2024-01-23_07h07.53.808,bars,2023.2.3,Win32,269.6871629,657b66ea316d21385b68909f,,,,,,,,,,,1062.6518,1063.6497,,,1064.1497,1064.3978,,122,122,,,,,,,,,,,,,,,,bars/034.png,bars/mask001.png,,,,,,,,,,,,0,1,,,,,,,0,6,0,4,,,,,,,,,,,1063.6497,1064.1497,1064.3979,1065.7979,space,1.3934,,1065.7979,3,57,1066.7979,1066.7979,1066.7982,,,,0,28,28,28,1,125,65,,,,,,,,
,,654cb5da6bb60c3674457a8c,65af5578f6e775c50195c062,2024-01-23_07h07.53.808,bars,2023.2.3,Win32,269.6871629,657b66ea316d21385b68909f,,,,,,,,,,,1066.7983,1067.7978,,,1068.2979,1068.546,,13,13,,,,,,,,,,,,,,,,bars/032.png,bars/mask001.png,,,,,,,,,,,,6,2,,,,,,,2,8,2,8,,,,,,,,,,,1067.7978,1068.2979,1068.546,1072.2237,space,3.6705,,1072.2238,68,7,1073.2238,1073.2238,1073.2298,,,,0,29,29,29,1,125,20,,,,,,,,
,,654cb5da6bb60c3674457a8c,65af5578f6e775c50195c062,2024-01-23_07h07.53.808,bars,2023.2.3,Win32,269.6871629,657b66ea316d21385b68909f,,,,,,,,,,,1073.2299,1074.2275,,,1074.7275,1074.9756,,92,92,,,,,,,,,,,,,,,,bars/011.png,bars/mask004.png,,,,,,,,,,,,7,2,,,,,,,4,10,5,9,,,,,,,,,,,1074.2275,1074.7275,1074.9756,1077.0424,space,2.0597,,1077.0424,68,7,1078.0423,1078.0423,1078.0481,,,,0,30,30,30,1,160,85,,,,,,,,
,,654cb5da6bb60c3674457a8c,65af5578f6e775c50195c062,2024-01-23_07h07.53.808,bars,2023.2.3,Win32,269.6871629,657b66ea316d21385b68909f,,,,,,,,,,,1078.0481,1079.046,,,1079.546,1079.7941,,87,87,,,,,,,,,,,,,,,,bars/038.png,bars/mask000.png,,,,,,,,,,,,4,2,,,,,,,2,10,3,10,,,,,,,,,,,1079.046,1079.546,1079.7941,1082.746,space,2.945,,1082.7461,78,17,1083.746,1083.746,1083.7516,,,,0,31,31,31,1,165,70,,,,,,,,
,,654cb5da6bb60c3674457a8c,65af5578f6e775c50195c062,2024-01-23_07h07.53.808,bars,2023.2.3,Win32,269.6871629,657b66ea316d21385b68909f,,,,,,,,,,,1083.7516,1084.7497,,,1085.2497,1085.4992,,152,152,,,,,,,,,,,,,,,,bars/020.png,bars/mask000.png,,,,,,,,,,,,3,2,,,,,,,4,8,4,7,,,,,,,,,,,1084.7497,1085.2497,1085.4992,1091.6461,space,6.1414,,1091.6461,37,18,1092.646,1092.646,1092.6526,,,,0,32,32,32,1,115,170,,,,,,,,
,,654cb5da6bb60c3674457a8c,65af5578f6e775c50195c062,2024-01-23_07h07.53.808,bars,2023.2.3,Win32,269.6871629,657b66ea316d21385b68909f,,,,,,,,,,,1092.6527,1093.6534,,,1094.1534,1094.4016,,107,107,,,,,,,,,,,,,,,,bars/019.png,bars/mask005.png,,,,,,,,,,,,6,2,,,,,,,2,6,2,6,,,,,,,,,,,1093.6534,1094.1534,1094.4016,1099.9608,space,5.5574,,1099.9609,62,2,1100.9609,1100.9609,1100.967,,,,0,33,33,33,1,45,105,,,,,,,,
,,654cb5da6bb60c3674457a8c,65af5578f6e775c50195c062,2024-01-23_07h07.53.808,bars,2023.2.3,Win32,269.6871629,657b66ea316d21385b68909f,,,,,,,,,,,1100.9671,1101.9646,,,1102.4645,1102.7127,,99,99,,,,,,,,,,,,,,,,bars/037.png,bars/mask005.png,,,,,,,,,,,,1,2,,,,,,,0,4,0,1,,,,,,,,,,,1101.9646,1102.4645,1102.7127,1104.8794,space,2.1595,,1104.8794,51,6,1105.8794,1105.8794,1105.8855,,,,0,34,34,34,1,150,105,,,,,,,,
,,654cb5da6bb60c3674457a8c,65af5578f6e775c50195c062,2024-01-23_07h07.53.808,bars,2023.2.3,Win32,269.6871629,657b66ea316d21385b68909f,,,,,,,,,,,1105.8855,1106.8831,,,1107.3831,1107.6312,,119,119,,,,,,,,,,,,,,,,bars/028.png,bars/mask004.png,,,,,,,,,,,,2,2,,,,,,,2,2,2,2,,,,,,,,,,,1106.8831,1107.3831,1107.6312,1110.4201,space,2.7872,,1110.4202,74,1,1111.4201,1111.4201,1111.4257,,,,0,35,35,35,1,45,120,,,,,,,,
,,654cb5da6bb60c3674457a8c,65af5578f6e775c50195c062,2024-01-23_07h07.53.808,bars,2023.2.3,Win32,269.6871629,657b66ea316d21385b68909f,,,,,,,,,,,1111.4257,1112.4238,,,1112.9239,1113.172,,92,92,,,,,,,,,,,,,,,,bars/046.png,bars/mask002.png,,,,,,,,,,,,1,2,,,,,,,0,0,0,1,,,,,,,,,,,1112.4238,1112.9239,1113.172,1116.3328,space,3.1558,,1116.3328,63,7,1117.3313,1117.3313,1117.3368,,,,0,36,36,36,1,155,85,,,,,,,,
,,654cb5da6bb60c3674457a8c,65af5578f6e775c50195c062,2024-01-23_07h07.53.808,bars,2023.2.3,Win32,269.6871629,657b66ea316d21385b68909f,,,,,,,,,,,1117.3369,1118.3349,,,1118.835,1119.0831,,54,54,,,,,,,,,,,,,,,,bars/035.png,bars/mask006.png,,,,,,,,,,,,1,2,,,,,,,2,2,2,1,,,,,,,,,,,1118.335,1118.8349,1119.0831,1122.7424,space,3.652,,1122.7424,59,6,1123.7424,1123.7424,1123.7479,,,,0,37,37,37,1,175,60,,,,,,,,
,,654cb5da6bb60c3674457a8c,65af5578f6e775c50195c062,2024-01-23_07h07.53.808,bars,2023.2.3,Win32,269.6871629,657b66ea316d21385b68909f,,,,,,,,,,,1123.7479,1124.746,,,1125.2461,1125.4956,,148,148,,,,,,,,,,,,,,,,bars/036.png,bars/mask000.png,,,,,,,,,,,,3,1,,,,,,,4,0,3,0,,,,,,,,,,,1124.746,1125.2461,1125.4957,1129.0322,space,3.5292,,1129.0322,3,52,1130.0312,1130.0312,1130.0373,,,,0,38,38,38,1,145,20,,,,,,,,
,,654cb5da6bb60c3674457a8c,65af5578f6e775c50195c062,2024-01-23_07h07.53.808,bars,2023.2.3,Win32,269.6871629,657b66ea316d21385b68909f,,,,,,,,,,,1130.0374,1131.035,,,1131.535,1131.7831,,111,-69,,,,,,,,,,,,,,,,bars/031.png,bars/mask008.png,,,,,,,,,,,,2,1,,,,,,,2,2,3,1,,,,,,,,,,,1131.035,1131.535,1131.7831,1136.6165,space,4.8276,,1136.6165,9,76,1137.6164,1137.6165,1137.622,,,,0,39,39,39,1,120,35,,,,,,,,
,,654cb5da6bb60c3674457a8c,65af5578f6e775c50195c062,2024-01-23_07h07.53.808,bars,2023.2.3,Win32,269.6871629,657b66ea316d21385b68909f,,,,,,,,,,,1137.622,1138.6202,,,1139.1201,1139.3683,,34,214,,,,,,,,,,,,,,,,bars/006.png,bars/mask007.png,,,,,,,,,,,,0,1,,,,,,,0,0,0,0,,,,,,,,,,,1138.6202,1139.1201,1139.3683,1142.4424,space,3.0669,,1142.4424,1,66,1143.4424,1143.4424,1143.4479,,,,0,40,40,40,1,35,100,,,,,,,,
,,654cb5da6bb60c3674457a8c,65af5578f6e775c50195c062,2024-01-23_07h07.53.808,bars,2023.2.3,Win32,269.6871629,657b66ea316d21385b68909f,,,,,,,,,,,1143.4483,1144.4461,,,1144.9461,1145.1943,,117,117,,,,,,,,,,,,,,,,bars/008.png,bars/mask000.png,,,,,,,,,,,,2,1,,,,,,,2,0,2,0,,,,,,,,,,,1144.4461,1144.946,1145.1943,1146.761,space,1.564,,1146.761,7,63,1147.7609,1147.7609,1147.7669,,,,0,41,41,41,1,110,0,,,,,,,,
,,654cb5da6bb60c3674457a8c,65af5578f6e775c50195c062,2024-01-23_07h07.53.808,bars,2023.2.3,Win32,269.6871629,657b66ea316d21385b68909f,,,,,,,,,,,1147.767,1148.7646,,,1149.2646,1149.5127,,18,18,,,,,,,,,,,,,,,,bars/005.png,bars/mask003.png,,,,,,,,,,,,1,1,,,,,,,0,2,1,0,,,,,,,,,,,1148.7647,1149.2646,1149.5128,1151.0054,space,1.486,,1151.0054,8,58,1152.0054,1152.0054,1152.006,,,,0,42,42,42,1,10,140,,,,,,,,
,,654cb5da6bb60c3674457a8c,65af5578f6e775c50195c062,2024-01-23_07h07.53.808,bars,2023.2.3,Win32,269.6871629,657b66ea316d21385b68909f,,,,,,,,,,,1152.0061,1153.0054,,,1153.5054,1153.7535,,166,166,,,,,,,,,,,,,,,,bars/018.png,bars/mask008.png,,,,,,,,,,,,0,1,,,,,,,0,0,0,0,,,,,,,,,,,1153.0054,1153.5054,1153.7535,1156.7462,space,2.9851,,1156.7463,16,76,1157.7461,1157.7461,1157.7524,,,,0,43,43,43,1,150,90,,,,,,,,
,,654cb5da6bb60c3674457a8c,65af5578f6e775c50195c062,2024-01-23_07h07.53.808,bars,2023.2.3,Win32,269.6871629,657b66ea316d21385b68909f,,,,,,,,,,,1157.7525,1158.7498,,,1159.2498,1159.498,,106,106,,,,,,,,,,,,,,,,bars/026.png,bars/mask006.png,,,,,,,,,,,,0,2,,,,,,,2,0,0,1,,,,,,,,,,,1158.7498,1159.2498,1159.498,1162.6276,space,3.1289,,1162.6276,71,21,1163.6276,1163.6276,1163.6467,,,,0,44,44,44,1,35,85,,,,,,,,
,,654cb5da6bb60c3674457a8c,65af5578f6e775c50195c062,2024-01-23_07h07.53.808,bars,2023.2.3,Win32,269.6871629,657b66ea316d21385b68909f,,,,,,,,,,,1163.6469,1164.6461,,,1165.1461,1165.3942,,98,98,,,,,,,,,,,,,,,,bars/025.png,bars/mask003.png,,,,,,,,,,,,1,1,,,,,,,0,2,1,2,,,,,,,,,,,1164.6461,1165.1461,1165.3942,1168.6758,space,3.2795,,1168.6758,7,58,1169.6757,1169.6758,1169.6817,,,,0,45,45,45,1,105,40,,,,,,,,
,,654cb5da6bb60c3674457a8c,65af5578f6e775c50195c062,2024-01-23_07h07.53.808,bars,2023.2.3,Win32,269.6871629,657b66ea316d21385b68909f,,,,,,,,,,,1169.6817,1170.6794,,,1171.1795,1171.4276,,106,106,,,,,,,,,,,,,,,,bars/022.png,bars/mask003.png,,,,,,,,,,,,1,1,,,,,,,0,4,1,5,,,,,,,,,,,1170.6794,1171.1794,1171.4276,1175.0212,space,3.593,,1175.0212,11,86,1176.0202,1176.0203,1176.026,,,,0,46,46,46,1,95,20,,,,,,,,
,,654cb5da6bb60c3674457a8c,65af5578f6e775c50195c062,2024-01-23_07h07.53.808,bars,2023.2.3,Win32,269.6871629,657b66ea316d21385b68909f,,,,,,,,,,,1176.0261,1177.0239,,,1177.5239,1177.772,,127,-53,,,,,,,,,,,,,,,,bars/017.png,bars/mask001.png,,,,,,,,,,,,0,1,,,,,,,0,2,0,2,,,,,,,,,,,1177.0239,1177.5239,1177.7721,1181.6943,space,3.915,,1181.6943,18,82,1182.6942,1182.6943,1182.6997,,,,0,47,47,47,1,145,45,,,,,,,,
,,654cb5da6bb60c3674457a8c,65af5578f6e775c50195c062,2024-01-23_07h07.53.808,bars,2023.2.3,Win32,269.6871629,657b66ea316d21385b68909f,,,,,,,,,,,1182.6998,1183.698,,,1184.198,1184.4461,,167,167,,,,,,,,,,,,,,,,bars/044.png,bars/mask009.png,,,,,,,,,,,,0,2,,,,,,,0,0,1,0,,,,,,,,,,,1183.698,1184.198,1184.4461,1187.7646,space,3.3166,,1187.7647,88,12,1188.7647,1188.7647,1188.7869,,,,0,48,48,48,1,75,155,,,,,,,,
,,654cb5da6bb60c3674457a8c,65af5578f6e775c50195c062,2024-01-23_07h07.53.808,bars,2023.2.3,Win32,269.6871629,657b66ea316d21385b68909f,,,,,,,,,,,1188.787,1189.7869,,,1190.2869,1190.535,,121,-59,,,,,,,,,,,,,,,,bars/032.png,bars/mask001.png,,,,,,,,,,,,3,1,,,,,,,2,2,4,1,,,,,,,,,,,1189.7869,1190.2869,1190.535,1196.7684,space,6.2304,,1196.7684,4,79,1197.7683,1197.7683,1197.7748,,,,0,49,49,49,1,125,20,,,,,,,,
,,654cb5da6bb60c3674457a8c,65af5578f6e775c50195c062,2024-01-23_07h07.53.808,bars,2023.2.3,Win32,269.6871629,657b66ea316d21385b68909f,,,,,,,,,,,,,,,,,,,,,,,,,,,,,,,,,,,,,,,,,,,,,,,,,,,,,,,,,,,,,,,,,,,,,,,,,,,,,,,,,,,,,,,,,,,,,1197.7748,1257.7721,0,1,1,1,1,sequence_tables/blk044.csv
,,654cb5da6bb60c3674457a8c,65af5578f6e775c50195c062,2024-01-23_07h07.53.808,bars,2023.2.3,Win32,269.6871629,657b66ea316d21385b68909f,,,,,,,,,,,1274.2981,1275.2944,,,1275.7944,1276.0425,,94,94,,,,,,,,,,,,,,,,bars/019.png,bars/mask001.png,,,,,,,,,,,,4,2,,,,,,,7,6,8,7,,,,,,1257.7778,1274.2908,space,16.511,,1275.2944,1275.7944,1276.0426,1280.0722,space,4.0273,,1280.0722,49,11,1281.0722,1281.0722,1281.0784,,,,0,0,0,0,1,45,105,,,,,,,,
,,654cb5da6bb60c3674457a8c,65af5578f6e775c50195c062,2024-01-23_07h07.53.808,bars,2023.2.3,Win32,269.6871629,657b66ea316d21385b68909f,,,,,,,,,,,1281.0785,1282.0759,,,1282.5759,1282.824,,111,111,,,,,,,,,,,,,,,,bars/023.png,bars/mask009.png,,,,,,,,,,,,3,2,,,,,,,5,4,7,3,,,,,,,,,,,1282.0759,1282.5759,1282.824,1285.5684,space,2.7407,,1285.5684,89,4,1286.5685,1286.5685,1286.5741,,,,0,1,1,1,1,20,115,,,,,,,,
,,654cb5da6bb60c3674457a8c,65af5578f6e775c50195c062,2024-01-23_07h07.53.808,bars,2023.2.3,Win32,269.6871629,657b66ea316d21385b68909f,,,,,,,,,,,1286.5742,1287.5722,,,1288.0722,1288.3203,,66,66,,,,,,,,,,,,,,,,bars/021.png,bars/mask000.png,,,,,,,,,,,,2,2,,,,,,,3,2,2,2,,,,,,,,,,,1287.5722,1288.0721,1288.3203,1292.4722,space,4.1461,,1292.4722,89,4,1293.4721,1293.4721,1293.4783,,,,0,2,2,2,1,155,70,,,,,,,,
,,654cb5da6bb60c3674457a8c,65af5578f6e775c50195c062,2024-01-23_07h07.53.808,bars,2023.2.3,Win32,269.6871629,657b66ea316d21385b68909f,,,,,,,,,,,1293.4784,1294.4759,,,1294.9758,1295.224,,156,-24,,,,,,,,,,,,,,,,bars/044.png,bars/mask009.png,,,,,,,,,,,,0,2,,,,,,,1,0,0,0,,,,,,,,,,,1294.4759,1294.9758,1295.224,1299.9019,space,4.6707,,1299.9019,81,1,1300.9018,1300.9018,1300.9074,,,,0,3,3,3,1,75,155,,,,,,,,
,,654cb5da6bb60c3674457a8c,65af5578f6e775c50195c062,2024-01-23_07h07.53.808,bars,2023.2.3,Win32,269.6871629,657b66ea316d21385b68909f,,,,,,,,,,,1300.9075,1301.9055,,,1302.4058,1302.6537,,123,123,,,,,,,,,,,,,,,,bars/046.png,bars/mask000.png,,,,,,,,,,,,0,1,,,,,,,3,0,4,0,,,,,,,,,,,1301.9055,1302.4058,1302.6537,1304.95,space,2.29,,1304.95,32,38,1305.9499,1305.9499,1305.9651,,,,0,4,4,4,1,155,85,,,,,,,,
,,654cb5da6bb60c3674457a8c,65af5578f6e775c50195c062,2024-01-23_07h07.53.808,bars,2023.2.3,Win32,269.6871629,657b66ea316d21385b68909f,,,,,,,,,,,1305.9652,1306.9648,,,1307.4648,1307.7129,,151,-29,,,,,,,,,,,,,,,,bars/036.png,bars/mask006.png,,,,,,,,,,,,2,1,,,,,,,1,2,2,1,,,,,,,,,,,1306.9648,1307.4648,1307.713,1311.7278,space,4.0091,,1311.7278,6,49,1312.7277,1312.7278,1312.7337,,,,0,5,5,5,1,145,20,,,,,,,,
,,654cb5da6bb60c3674457a8c,65af5578f6e775c50195c062,2024-01-23_07h07.53.808,bars,2023.2.3,Win32,269.6871629,657b66ea316d21385b68909f,,,,,,,,,,,1312.7339,1313.7315,,,1314.2314,1314.4795,,172,-8,,,,,,,,,,,,,,,,bars/038.png,bars/mask008.png,,,,,,,,,,,,0,1,,,,,,,0,4,0,5,,,,,,,,,,,1313.7315,1314.2314,1314.4795,1317.6425,space,3.1577,,1317.6425,7,78,1318.6425,1318.6425,1318.6481,,,,0,6,6,6,1,165,70,,,,,,,,
,,654cb5da6bb60c3674457a8c,65af5578f6e775c50195c062,2024-01-23_07h07.53.808,bars,2023.2.3,Win32,269.6871629,657b66ea316d21385b68909f,,,,,,,,,,,1318.6481,1319.6462,,,1320.1463,1320.3944,,83,83,,,,,,,,,,,,,,,,bars/041.png,bars/mask006.png,,,,,,,,,,,,5,2,,,,,,,2,6,1,5,,,,,,,,,,,1319.6462,1320.1463,1320.3944,1322.4611,space,2.0592,,1322.4611,63,2,1323.461,1323.4611,1323.4672,,,,0,7,7,7,1,20,85,,,,,,,,
,,654cb5da6bb60c3674457a8c,65af5578f6e775c50195c062,2024-01-23_07h07.53.808,bars,2023.2.3,Win32,269.6871629,657b66ea316d21385b68909f,,,,,,,,,,,1323.4673,1324.4648,,,1324.9648,1325.213,,84,84,,,,,,,,,,,,,,,,bars/041.png,bars/mask006.png,,,,,,,,,,,,2,2,,,,,,,4,4,3,2,,,,,,,,,,,1324.4648,1324.9648,1325.213,1329.024,space,3.8082,,1329.0241,64,1,1330.0241,1330.0241,1330.0297,,,,0,8,8,8,1,20,85,,,,,,,,
,,654cb5da6bb60c3674457a8c,65af5578f6e775c50195c062,2024-01-23_07h07.53.808,bars,2023.2.3,Win32,269.6871629,657b66ea316d21385b68909f,,,,,,,,,,,1330.0298,1331.0277,,,1331.5277,1331.7759,,159,-21,,,,,,,,,,,,,,,,bars/043.png,bars/mask006.png,,,,,,,,,,,,0,2,,,,,,,2,2,2,1,,,,,,,,,,,1331.0278,1331.5277,1331.7759,1336.9796,space,5.1979,,1336.9796,51,29,1337.9796,1337.9796,1337.9854,,,,0,9,9,9,1,30,130,,,,,,,,
,,654cb5da6bb60c3674457a8c,65af5578f6e775c50195c062,2024-01-23_07h07.53.808,bars,2023.2.3,Win32,269.6871629,657b66ea316d21385b68909f,,,,,,,,,,,1337.9856,1338.9832,,,1339.4833,1339.7315,,36,216,,,,,,,,,,,,,,,,bars/006.png,bars/mask006.png,,,,,,,,,,,,0,1,,,,,,,0,4,0,3,,,,,,,,,,,1338.9833,1339.4833,1339.7315,1343.876,space,4.1375,,1343.876,1,64,1344.8759,1344.8759,1344.8961,,,,0,10,10,10,1,35,100,,,,,,,,
,,654cb5da6bb60c3674457a8c,65af5578f6e775c50195c062,2024-01-23_07h07.53.808,bars,2023.2.3,Win32,269.6871629,657b66ea316d21385b68909f,,,,,,,,,,,1344.8962,1345.8944,,,1346.3944,1346.6426,,139,-41,,,,,,,,,,,,,,,,bars/049.png,bars/mask004.png,,,,,,,,,,,,0,1,,,,,,,0,6,1,6,,,,,,,,,,,1345.8944,1346.3944,1346.6426,1352.3834,space,5.7342,,1352.3834,21,24,1353.3833,1353.3833,1353.389,,,,0,11,11,11,1,160,115,,,,,,,,
,,654cb5da6bb60c3674457a8c,65af5578f6e775c50195c062,2024-01-23_07h07.53.808,bars,2023.2.3,Win32,269.6871629,657b66ea316d21385b68909f,,,,,,,,,,,1353.3891,1354.387,,,1354.887,1355.1352,,145,-35,,,,,,,,,,,,,,,,bars/016.png,bars/mask009.png,,,,,,,,,,,,1,2,,,,,,,0,4,2,3,,,,,,,,,,,1354.3871,1354.887,1355.1352,1359.8204,space,4.6785,,1359.8204,75,20,1360.8203,1360.8203,1360.8265,,,,0,12,12,12,1,40,165,,,,,,,,
,,654cb5da6bb60c3674457a8c,65af5578f6e775c50195c062,2024-01-23_07h07.53.808,bars,2023.2.3,Win32,269.6871629,657b66ea316d21385b68909f,,,,,,,,,,,1360.8266,1361.8241,,,1362.3241,1362.5722,,89,89,,,,,,,,,,,,,,,,bars/018.png,bars/mask009.png,,,,,,,,,,,,5,2,,,,,,,0,6,0,5,,,,,,,,,,,1361.8241,1362.3241,1362.5722,1366.6648,space,4.0883,,1366.6648,61,1,1367.6648,1367.6648,1367.6708,,,,0,13,13,13,1,150,90,,,,,,,,
,,654cb5da6bb60c3674457a8c,65af5578f6e775c50195c062,2024-01-23_07h07.53.808,bars,2023.2.3,Win32,269.6871629,657b66ea316d21385b68909f,,,,,,,,,,,1367.6709,1368.6685,,,1369.1688,1369.4167,,1,1,,,,,,,,,,,,,,,,bars/048.png,bars/mask007.png,,,,,,,,,,,,6,2,,,,,,,2,8,1,8,,,,,,,,,,,1368.6685,1369.1688,1369.4167,1371.8167,space,2.393,,1371.8167,49,6,1372.8167,1372.8167,1372.8222,,,,0,14,14,14,1,50,175,,,,,,,,
,,654cb5da6bb60c3674457a8c,65af5578f6e775c50195c062,2024-01-23_07h07.53.808,bars,2023.2.3,Win32,269.6871629,657b66ea316d21385b68909f,,,,,,,,,,,1372.8223,1373.8203,,,1374.3206,1374.5685,,157,-23,,,,,,,,,,,,,,,,bars/003.png,bars/mask000.png,,,,,,,,,,,,2,2,,,,,,,0,6,1,5,,,,,,,,,,,1373.8203,1374.3204,1374.5685,1380.9501,space,6.3772,,1380.9501,48,17,1381.95,1381.95,1381.9562,,,,0,15,15,15,1,25,140,,,,,,,,
,,654cb5da6bb60c3674457a8c,65af5578f6e775c50195c062,2024-01-23_07h07.53.808,bars,2023.2.3,Win32,269.6871629,657b66ea316d21385b68909f,,,,,,,,,,,1381.9563,1382.9537,,,1383.4537,1383.705,,97,97,,,,,,,,,,,,,,,,bars/028.png,bars/mask003.png,,,,,,,,,,,,2,2,,,,,,,0,8,1,9,,,,,,,,,,,1382.9537,1383.4537,1383.7051,1388.6278,space,4.9105,,1388.6278,52,23,1389.6278,1389.6278,1389.6333,,,,0,16,16,16,1,45,120,,,,,,,,
,,654cb5da6bb60c3674457a8c,65af5578f6e775c50195c062,2024-01-23_07h07.53.808,bars,2023.2.3,Win32,269.6871629,657b66ea316d21385b68909f,,,,,,,,,,,1389.6333,1390.6314,,,1391.1315,1391.3796,,115,115,,,,,,,,,,,,,,,,bars/028.png,bars/mask006.png,,,,,,,,,,,,8,2,,,,,,,2,10,1,10,,,,,,,,,,,1390.6314,1391.1315,1391.3796,1394.9129,space,3.5255,,1394.913,70,5,1395.9129,1395.9129,1395.9188,,,,0,17,17,17,1,45,120,,,,,,,,
,,654cb5da6bb60c3674457a8c,65af5578f6e775c50195c062,2024-01-23_07h07.53.808,bars,2023.2.3,Win32,269.6871629,657b66ea316d21385b68909f,,,,,,,,,,,1395.9189,1396.9169,,,1397.4167,1397.6648,,15,195,,,,,,,,,,,,,,,,bars/014.png,bars/mask006.png,,,,,,,,,,,,5,2,,,,,,,4,10,2,9,,,,,,,,,,,1396.9169,1397.4167,1397.6648,1400.8982,space,3.2311,,1400.8982,65,15,1401.8981,1401.8981,1401.9043,,,,0,18,18,18,1,80,0,,,,,,,,
,,654cb5da6bb60c3674457a8c,65af5578f6e775c50195c062,2024-01-23_07h07.53.808,bars,2023.2.3,Win32,269.6871629,657b66ea316d21385b68909f,,,,,,,,,,,1401.9044,1402.9019,,,1403.4019,1403.65,,87,87,,,,,,,,,,,,,,,,bars/038.png,bars/mask007.png,,,,,,,,,,,,4,2,,,,,,,2,10,3,10,,,,,,,,,,,1402.9019,1403.4019,1403.65,1405.4797,space,1.8235,,1405.4797,78,17,1406.4796,1406.4796,1406.4858,,,,0,19,19,19,1,165,70,,,,,,,,
,,654cb5da6bb60c3674457a8c,65af5578f6e775c50195c062,2024-01-23_07h07.53.808,bars,2023.2.3,Win32,269.6871629,657b66ea316d21385b68909f,,,,,,,,,,,1406.4859,1407.4833,,,1407.9834,1408.2315,,71,251,,,,,,,,,,,,,,,,bars/025.png,bars/mask008.png,,,,,,,,,,,,0,2,,,,,,,0,8,0,8,,,,,,,,,,,1407.4834,1407.9833,1408.2315,1414.4912,space,6.2556,,1414.4912,34,31,1415.4907,1415.4907,1415.496,,,,0,20,20,20,1,105,40,,,,,,,,
,,654cb5da6bb60c3674457a8c,65af5578f6e775c50195c062,2024-01-23_07h07.53.808,bars,2023.2.3,Win32,269.6871629,657b66ea316d21385b68909f,,,,,,,,,,,1415.4961,1416.4948,,,1416.9944,1417.2429,,50,50,,,,,,,,,,,,,,,,bars/034.png,bars/mask004.png,,,,,,,,,,,,5,2,,,,,,,0,10,3,10,,,,,,,,,,,1416.4948,1416.9944,1417.2429,1419.5427,space,2.2949,,1419.5427,75,15,1420.5426,1420.5426,1420.5486,,,,0,21,21,21,1,125,65,,,,,,,,
,,654cb5da6bb60c3674457a8c,65af5578f6e775c50195c062,2024-01-23_07h07.53.808,bars,2023.2.3,Win32,269.6871629,657b66ea316d21385b68909f,,,,,,,,,,,1420.5486,1421.5463,,,1422.0463,1422.2944,,94,94,,,,,,,,,,,,,,,,bars/001.png,bars/mask003.png,,,,,,,,,,,,6,2,,,,,,,2,10,3,9,,,,,,,,,,,1421.5464,1422.0463,1422.2944,1429.139,space,6.839,,1429.139,36,9,1430.1389,1430.1389,1430.145,,,,0,22,22,22,1,130,85,,,,,,,,
,,654cb5da6bb60c3674457a8c,65af5578f6e775c50195c062,2024-01-23_07h07.53.808,bars,2023.2.3,Win32,269.6871629,657b66ea316d21385b68909f,,,,,,,,,,,1430.1452,1431.1426,,,1431.6426,1431.8907,,92,92,,,,,,,,,,,,,,,,bars/011.png,bars/mask009.png,,,,,,,,,,,,6,2,,,,,,,0,8,0,8,,,,,,,,,,,1431.1426,1431.6426,1431.8908,1437.1797,space,5.2819,,1437.1798,68,7,1438.1796,1438.1796,1438.1875,,,,0,23,23,23,1,160,85,,,,,,,,
,,654cb5da6bb60c3674457a8c,65af5578f6e775c50195c062,2024-01-23_07h07.53.808,bars,2023.2.3,Win32,269.6871629,657b66ea316d21385b68909f,,,,,,,,,,,1438.1877,1439.1871,,,1439.687,1439.9352,,27,207,,,,,,,,,,,,,,,,bars/022.png,bars/mask007.png,,,,,,,,,,,,8,2,,,,,,,2,10,1,10,,,,,,,,,,,1439.1871,1439.687,1439.9352,1444.6722,space,4.7335,,1444.6722,68,7,1445.6722,1445.6722,1445.6779,,,,0,24,24,24,1,95,20,,,,,,,,
,,654cb5da6bb60c3674457a8c,65af5578f6e775c50195c062,2024-01-23_07h07.53.808,bars,2023.2.3,Win32,269.6871629,657b66ea316d21385b68909f,,,,,,,,,,,1445.678,1446.6759,,,1447.176,1447.4241,,26,26,,,,,,,,,,,,,,,,bars/017.png,bars/mask004.png,,,,,,,,,,,,3,2,,,,,,,4,8,3,8,,,,,,,,,,,1446.676,1447.1759,1447.4241,1449.3613,space,1.9331,,1449.3613,61,19,1450.3611,1450.3611,1450.3677,,,,0,25,25,25,1,145,45,,,,,,,,
,,654cb5da6bb60c3674457a8c,65af5578f6e775c50195c062,2024-01-23_07h07.53.808,bars,2023.2.3,Win32,269.6871629,657b66ea316d21385b68909f,,,,,,,,,,,1450.3678,1451.3686,,,1451.8685,1452.1167,,122,122,,,,,,,,,,,,,,,,bars/037.png,bars/mask000.png,,,,,,,,,,,,4,2,,,,,,,6,10,6,9,,,,,,,,,,,1451.3686,1451.8685,1452.1167,1458.3242,space,6.2016,,1458.3242,28,17,1459.3241,1459.3241,1459.3301,,,,0,26,26,26,1,150,105,,,,,,,,
,,654cb5da6bb60c3674457a8c,65af5578f6e775c50195c062,2024-01-23_07h07.53.808,bars,2023.2.3,Win32,269.6871629,657b66ea316d21385b68909f,,,,,,,,,,,1459.3301,1460.3278,,,1460.8278,1461.0759,,89,89,,,,,,,,,,,,,,,,bars/021.png,bars/mask008.png,,,,,,,,,,,,4,2,,,,,,,4,10,5,10,,,,,,,,,,,1460.3278,1460.8278,1461.0759,1464.6131,space,3.5319,,1464.6131,66,19,1465.613,1465.613,1465.6186,,,,0,27,27,27,1,155,70,,,,,,,,
,,654cb5da6bb60c3674457a8c,65af5578f6e775c50195c062,2024-01-23_07h07.53.808,bars,2023.2.3,Win32,269.6871629,657b66ea316d21385b68909f,,,,,,,,,,,1465.6187,1466.6166,,,1467.1167,1467.3648,,157,-23,,,,,,,,,,,,,,,,bars/044.png,bars/mask003.png,,,,,,,,,,,,9,2,,,,,,,6,10,7,10,,,,,,,,,,,1466.6166,1467.1166,1467.3648,1470.8982,space,3.5272,,1470.8982,82,2,1471.8982,1471.8983,1471.904,,,,0,28,28,28,1,75,155,,,,,,,,
,,654cb5da6bb60c3674457a8c,65af5578f6e775c50195c062,2024-01-23_07h07.53.808,bars,2023.2.3,Win32,269.6871629,657b66ea316d21385b68909f,,,,,,,,,,,1471.9041,1472.9018,,,1473.4019,1473.65,,21,21,,,,,,,,,,,,,,,,bars/036.png,bars/mask007.png,,,,,,,,,,,,9,2,,,,,,,4,10,4,9,,,,,,,,,,,1472.9019,1473.4018,1473.65,1477.5093,space,3.8571,,1477.5093,56,1,1478.5093,1478.5093,1478.5153,,,,0,29,29,29,1,145,20,,,,,,,,
,,654cb5da6bb60c3674457a8c,65af5578f6e775c50195c062,2024-01-23_07h07.53.808,bars,2023.2.3,Win32,269.6871629,657b66ea316d21385b68909f,,,,,,,,,,,1478.5154,1479.513,,,1480.013,1480.2611,,42,222,,,,,,,,,,,,,,,,bars/034.png,bars/mask008.png,,,,,,,,,,,,2,2,,,,,,,6,8,6,8,,,,,,,,,,,1479.513,1480.0129,1480.2611,1484.7796,space,4.5119,,1484.7797,83,23,1485.7797,1485.7797,1485.7854,,,,0,30,30,30,1,125,65,,,,,,,,
,,654cb5da6bb60c3674457a8c,65af5578f6e775c50195c062,2024-01-23_07h07.53.808,bars,2023.2.3,Win32,269.6871629,657b66ea316d21385b68909f,,,,,,,,,,,1485.7854,1486.7834,,,1487.2838,1487.5315,,117,117,,,,,,,,,,,,,,,,bars/049.png,bars/mask003.png,,,,,,,,,,,,6,2,,,,,,,4,6,5,6,,,,,,,,,,,1486.7834,1487.2838,1487.5315,1489.6611,space,2.1244,,1489.6612,43,2,1490.6611,1490.6612,1490.6669,,,,0,31,31,31,1,160,115,,,,,,,,
,,654cb5da6bb60c3674457a8c,65af5578f6e775c50195c062,2024-01-23_07h07.53.808,bars,2023.2.3,Win32,269.6871629,657b66ea316d21385b68909f,,,,,,,,,,,1490.667,1491.6648,,,1492.1648,1492.413,,44,224,,,,,,,,,,,,,,,,bars/031.png,bars/mask008.png,,,,,,,,,,,,4,2,,,,,,,2,8,1,6,,,,,,,,,,,1491.6649,1492.1648,1492.413,1496.0945,space,3.6747,,1496.0945,76,9,1497.0944,1497.0945,1497.1008,,,,0,32,32,32,1,120,35,,,,,,,,
,,654cb5da6bb60c3674457a8c,65af5578f6e775c50195c062,2024-01-23_07h07.53.808,bars,2023.2.3,Win32,269.6871629,657b66ea316d21385b68909f,,,,,,,,,,,1497.1009,1498.1019,,,1498.6019,1498.85,,109,109,,,,,,,,,,,,,,,,bars/023.png,bars/mask005.png,,,,,,,,,,,,5,2,,,,,,,0,6,0,6,,,,,,,,,,,1498.1019,1498.6019,1498.8501,1502.0537,space,3.1981,,1502.0538,89,6,1503.0537,1503.0537,1503.0593,,,,0,33,33,33,1,20,115,,,,,,,,
,,654cb5da6bb60c3674457a8c,65af5578f6e775c50195c062,2024-01-23_07h07.53.808,bars,2023.2.3,Win32,269.6871629,657b66ea316d21385b68909f,,,,,,,,,,,1503.0594,1504.0574,,,1504.5575,1504.8052,,62,62,,,,,,,,,,,,,,,,bars/029.png,bars/mask001.png,,,,,,,,,,,,4,2,,,,,,,2,8,3,9,,,,,,,,,,,1504.0574,1504.5574,1504.8052,1508.8649,space,4.0522,,1508.8649,28,17,1509.8648,1509.8648,1509.8702,,,,0,34,34,34,1,90,45,,,,,,,,
,,654cb5da6bb60c3674457a8c,65af5578f6e775c50195c062,2024-01-23_07h07.53.808,bars,2023.2.3,Win32,269.6871629,657b66ea316d21385b68909f,,,,,,,,,,,1509.8703,1510.8685,,,1511.3686,1511.6167,,50,50,,,,,,,,,,,,,,,,bars/010.png,bars/mask008.png,,,,,,,,,,,,8,2,,,,,,,0,10,0,9,,,,,,,,,,,1510.8685,1511.3686,1511.6167,1514.0982,space,2.476,,1514.0982,65,5,1515.0981,1515.0982,1515.0988,,,,0,35,35,35,1,165,55,,,,,,,,
,,654cb5da6bb60c3674457a8c,65af5578f6e775c50195c062,2024-01-23_07h07.53.808,bars,2023.2.3,Win32,269.6871629,657b66ea316d21385b68909f,,,,,,,,,,,1515.0989,1516.0982,,,1516.5982,1516.8464,,134,134,,,,,,,,,,,,,,,,bars/000.png,bars/mask006.png,,,,,,,,,,,,6,2,,,,,,,0,8,0,9,,,,,,,,,,,1516.0982,1516.5982,1516.8464,1519.9501,space,3.0983,,1519.9501,86,11,1520.95,1520.95,1520.9557,,,,0,36,36,36,1,40,145,,,,,,,,
,,654cb5da6bb60c3674457a8c,65af5578f6e775c50195c062,2024-01-23_07h07.53.808,bars,2023.2.3,Win32,269.6871629,657b66ea316d21385b68909f,,,,,,,,,,,1520.9558,1521.9537,,,1522.4537,1522.7019,,90,90,,,,,,,,,,,,,,,,bars/011.png,bars/mask005.png,,,,,,,,,,,,5,2,,,,,,,2,6,3,6,,,,,,,,,,,1521.9538,1522.4537,1522.7019,1526.7056,space,3.9985,,1526.7056,70,5,1527.7055,1527.7056,1527.7111,,,,0,37,37,37,1,160,85,,,,,,,,
,,654cb5da6bb60c3674457a8c,65af5578f6e775c50195c062,2024-01-23_07h07.53.808,bars,2023.2.3,Win32,269.6871629,657b66ea316d21385b68909f,,,,,,,,,,,1527.7113,1528.7093,,,1529.2093,1529.4575,,5,185,,,,,,,,,,,,,,,,bars/040.png,bars/mask004.png,,,,,,,,,,,,7,2,,,,,,,4,8,4,7,,,,,,,,,,,1528.7093,1529.2093,1529.4575,1533.2501,space,3.7857,,1533.2502,45,0,1534.2501,1534.2501,1534.2563,,,,0,38,38,38,1,140,5,,,,,,,,
,,654cb5da6bb60c3674457a8c,65af5578f6e775c50195c062,2024-01-23_07h07.53.808,bars,2023.2.3,Win32,269.6871629,657b66ea316d21385b68909f,,,,,,,,,,,1534.2565,1535.2551,,,1535.754,1536.0019,,110,110,,,,,,,,,,,,,,,,bars/004.png,bars/mask005.png,,,,,,,,,,,,3,2,,,,,,,2,6,1,6,,,,,,,,,,,1535.2551,1535.754,1536.0019,1539.3908,space,3.3813,,1539.3908,85,15,1540.3908,1540.3908,1540.3985,,,,0,39,39,39,1,25,125,,,,,,,,
,,654cb5da6bb60c3674457a8c,65af5578f6e775c50195c062,2024-01-23_07h07.53.808,bars,2023.2.3,Win32,269.6871629,657b66ea316d21385b68909f,,,,,,,,,,,1540.3985,1541.3982,,,1541.8982,1542.1464,,107,107,,,,,,,,,,,,,,,,bars/023.png,bars/mask006.png,,,,,,,,,,,,2,2,,,,,,,0,4,0,3,,,,,,,,,,,1541.3982,1541.8982,1542.1464,1544.7463,space,2.5932,,1544.7463,87,8,1545.7463,1545.7464,1545.7522,,,,0,40,40,40,1,20,115,,,,,,,,
,,654cb5da6bb60c3674457a8c,65af5578f6e775c50195c062,2024-01-23_07h07.53.808,bars,2023.2.3,Win32,269.6871629,657b66ea316d21385b68909f,,,,,,,,,,,1545.7524,1546.7504,,,1547.25,1547.4982,,116,116,,,,,,,,,,,,,,,,bars/011.png,bars/mask000.png,,,,,,,,,,,,0,2,,,,,,,2,6,1,5,,,,,,,,,,,1546.7504,1547.25,1547.4982,1550.7871,space,3.2821,,1550.7871,44,31,1551.7871,1551.7871,1551.7935,,,,0,41,41,41,1,160,85,,,,,,,,
,,654cb5da6bb60c3674457a8c,65af5578f6e775c50195c062,2024-01-23_07h07.53.808,bars,2023.2.3,Win32,269.6871629,657b66ea316d21385b68909f,,,,,,,,,,,1551.7936,1552.7945,,,1553.2945,1553.5427,,17,17,,,,,,,,,,,,,,,,bars/003.png,bars/mask008.png,,,,,,,,,,,,3,1,,,,,,,4,8,4,7,,,,,,,,,,,1552.7945,1553.2945,1553.5427,1557.0649,space,3.5172,,1557.0649,8,57,1558.0648,1558.0648,1558.0718,,,,0,42,42,42,1,25,140,,,,,,,,
,,654cb5da6bb60c3674457a8c,65af5578f6e775c50195c062,2024-01-23_07h07.53.808,bars,2023.2.3,Win32,269.6871629,657b66ea316d21385b68909f,,,,,,,,,,,1558.0718,1559.0723,,,1559.5723,1559.8203,,33,213,,,,,,,,,,,,,,,,bars/006.png,bars/mask001.png,,,,,,,,,,,,3,1,,,,,,,2,6,3,5,,,,,,,,,,,1559.0723,1559.5723,1559.8204,1566.0649,space,6.2397,,1566.0649,2,67,1567.0649,1567.0649,1567.0717,,,,0,43,43,43,1,35,100,,,,,,,,
,,654cb5da6bb60c3674457a8c,65af5578f6e775c50195c062,2024-01-23_07h07.53.808,bars,2023.2.3,Win32,269.6871629,657b66ea316d21385b68909f,,,,,,,,,,,1567.0718,1568.0723,,,1568.5723,1568.8204,,79,79,,,,,,,,,,,,,,,,bars/044.png,bars/mask000.png,,,,,,,,,,,,5,1,,,,,,,4,8,6,9,,,,,,,,,,,1568.0724,1568.5723,1568.8205,1573.25,space,4.4236,,1573.2501,4,76,1574.25,1574.2501,1574.2567,,,,0,44,44,44,1,75,155,,,,,,,,
,,654cb5da6bb60c3674457a8c,65af5578f6e775c50195c062,2024-01-23_07h07.53.808,bars,2023.2.3,Win32,269.6871629,657b66ea316d21385b68909f,,,,,,,,,,,1574.2567,1575.2575,,,1575.7575,1576.0056,,132,-48,,,,,,,,,,,,,,,,bars/021.png,bars/mask006.png,,,,,,,,,,,,0,1,,,,,,,2,6,1,6,,,,,,,,,,,1575.2575,1575.7575,1576.0056,1583.1093,space,7.1016,,1583.1093,23,62,1584.1093,1584.1093,1584.1157,,,,0,45,45,45,1,155,70,,,,,,,,
,,654cb5da6bb60c3674457a8c,65af5578f6e775c50195c062,2024-01-23_07h07.53.808,bars,2023.2.3,Win32,269.6871629,657b66ea316d21385b68909f,,,,,,,,,,,1584.1157,1585.113,,,1585.613,1585.8612,,39,39,,,,,,,,,,,,,,,,bars/026.png,bars/mask002.png,,,,,,,,,,,,3,1,,,,,,,4,8,4,7,,,,,,,,,,,1585.113,1585.613,1585.8612,1591.1501,space,5.2824,,1591.1501,4,46,1592.15,1592.15,1592.1561,,,,0,46,46,46,1,35,85,,,,,,,,
,,654cb5da6bb60c3674457a8c,65af5578f6e775c50195c062,2024-01-23_07h07.53.808,bars,2023.2.3,Win32,269.6871629,657b66ea316d21385b68909f,,,,,,,,,,,1592.1562,1593.1553,,,1593.6538,1593.9019,,147,-33,,,,,,,,,,,,,,,,bars/011.png,bars/mask006.png,,,,,,,,,,,,4,1,,,,,,,6,6,7,5,,,,,,,,,,,1593.1553,1593.6538,1593.9019,1598.3945,space,4.4859,,1598.3946,13,62,1599.3945,1599.3945,1599.4004,,,,0,47,47,47,1,160,85,,,,,,,,
,,654cb5da6bb60c3674457a8c,65af5578f6e775c50195c062,2024-01-23_07h07.53.808,bars,2023.2.3,Win32,269.6871629,657b66ea316d21385b68909f,,,,,,,,,,,1599.4005,1600.3981,,,1600.8985,1601.1464,,23,203,,,,,,,,,,,,,,,,bars/009.png,bars/mask006.png,,,,,,,,,,,,5,1,,,,,,,8,8,7,10,,,,,,,,,,,1600.3982,1600.8985,1601.1464,1604.3056,space,3.1532,,1604.3056,8,82,1605.3056,1605.3056,1605.312,,,,0,48,48,48,1,15,105,,,,,,,,
,,654cb5da6bb60c3674457a8c,65af5578f6e775c50195c062,2024-01-23_07h07.53.808,bars,2023.2.3,Win32,269.6871629,657b66ea316d21385b68909f,,,,,,,,,,,1605.3121,1606.313,,,1606.813,1607.0611,,91,91,,,,,,,,,,,,,,,,bars/022.png,bars/mask006.png,,,,,,,,,,,,9,1,,,,,,,10,6,10,6,,,,,,,,,,,1606.313,1606.813,1607.0612,1612.5464,space,5.481,,1612.5464,4,71,1613.5466,1613.5467,1613.5526,,,,0,49,49,49,1,95,20,,,,,,,,
,,654cb5da6bb60c3674457a8c,65af5578f6e775c50195c062,2024-01-23_07h07.53.808,bars,2023.2.3,Win32,269.6871629,657b66ea316d21385b68909f,,,,,,,,,,,,,,,,,,,,,,,,,,,,,,,,,,,,,,,,,,,,,,,,,,,,,,,,,,,,,,,,,,,,,,,,,,,,,,,,,,,,,,,,,,,,,1613.5527,1673.5501,0,2,2,4,1,sequence_tables/blk049.csv
,,654cb5da6bb60c3674457a8c,65af5578f6e775c50195c062,2024-01-23_07h07.53.808,bars,2023.2.3,Win32,269.6871629,657b66ea316d21385b68909f,,,,,,,,,,,1707.5919,1708.5834,,,1709.0835,1709.3316,,83,83,,,,,,,,,,,,,,,,bars/042.png,bars/mask000.png,,,,,,,,,,,,1,2,,,,,,,5,5,5,2,,,,,,1673.5559,1707.5834,space,34.0253,,1708.5834,1709.0834,1709.3316,1711.976,space,2.638,,1711.976,62,8,1712.976,1712.976,1712.9821,,,,0,0,0,0,1,145,75,,,,,,,,
,,654cb5da6bb60c3674457a8c,65af5578f6e775c50195c062,2024-01-23_07h07.53.808,bars,2023.2.3,Win32,269.6871629,657b66ea316d21385b68909f,,,,,,,,,,,1712.9822,1713.9797,,,1714.4797,1714.7278,,67,67,,,,,,,,,,,,,,,,bars/034.png,bars/mask005.png,,,,,,,,,,,,4,2,,,,,,,7,3,8,4,,,,,,,,,,,1713.9797,1714.4797,1714.7279,1720.3093,space,5.5773,,1720.3093,58,2,1721.3093,1721.3094,1721.3173,,,,0,1,1,1,1,125,65,,,,,,,,
,,654cb5da6bb60c3674457a8c,65af5578f6e775c50195c062,2024-01-23_07h07.53.808,bars,2023.2.3,Win32,269.6871629,657b66ea316d21385b68909f,,,,,,,,,,,1721.3174,1722.3167,,,1722.8167,1723.0648,,47,227,,,,,,,,,,,,,,,,bars/031.png,bars/mask006.png,,,,,,,,,,,,4,2,,,,,,,5,5,4,6,,,,,,,,,,,1722.3167,1722.8167,1723.0648,1727.2353,space,4.1646,,1727.2353,73,12,1728.2352,1728.2352,1728.2412,,,,0,2,2,2,1,120,35,,,,,,,,
,,654cb5da6bb60c3674457a8c,65af5578f6e775c50195c062,2024-01-23_07h07.53.808,bars,2023.2.3,Win32,269.6871629,657b66ea316d21385b68909f,,,,,,,,,,,1728.2414,1729.239,,,1729.7389,1729.9872,,122,122,,,,,,,,,,,,,,,,bars/028.png,bars/mask001.png,,,,,,,,,,,,7,2,,,,,,,7,7,7,7,,,,,,,,,,,1729.239,1729.7389,1729.9872,1733.739,space,3.7473,,1733.739,77,2,1734.739,1734.739,1734.7446,,,,0,3,3,3,1,45,120,,,,,,,,
,,654cb5da6bb60c3674457a8c,65af5578f6e775c50195c062,2024-01-23_07h07.53.808,bars,2023.2.3,Win32,269.6871629,657b66ea316d21385b68909f,,,,,,,,,,,1734.7447,1735.7427,,,1736.2427,1736.4909,,55,235,,,,,,,,,,,,,,,,bars/007.png,bars/mask004.png,,,,,,,,,,,,4,2,,,,,,,5,5,6,4,,,,,,,,,,,1735.7427,1736.2426,1736.4909,1741.3908,space,4.8954,,1741.3908,60,0,1742.3908,1742.3908,1742.397,,,,0,4,4,4,1,175,55,,,,,,,,
,,654cb5da6bb60c3674457a8c,65af5578f6e775c50195c062,2024-01-23_07h07.53.808,bars,2023.2.3,Win32,269.6871629,657b66ea316d21385b68909f,,,,,,,,,,,1742.397,1743.3945,,,1743.8945,1744.1426,,8,8,,,,,,,,,,,,,,,,bars/012.png,bars/mask009.png,,,,,,,,,,,,6,2,,,,,,,7,7,8,8,,,,,,,,,,,1743.3945,1743.8945,1744.1426,1746.2798,space,2.1304,,1746.2798,82,7,1747.2796,1747.2798,1747.2801,,,,0,5,5,5,1,90,15,,,,,,,,
,,654cb5da6bb60c3674457a8c,65af5578f6e775c50195c062,2024-01-23_07h07.53.808,bars,2023.2.3,Win32,269.6871629,657b66ea316d21385b68909f,,,,,,,,,,,1747.2801,1748.2797,,,1748.7797,1749.0278,,93,93,,,,,,,,,,,,,,,,bars/026.png,bars/mask002.png,,,,,,,,,,,,7,2,,,,,,,9,9,7,9,,,,,,,,,,,1748.2797,1748.7797,1749.0278,1752.5131,space,3.4789,,1752.5131,58,8,1753.513,1753.5131,1753.5189,,,,0,6,6,6,1,35,85,,,,,,,,
,,654cb5da6bb60c3674457a8c,65af5578f6e775c50195c062,2024-01-23_07h07.53.808,bars,2023.2.3,Win32,269.6871629,657b66ea316d21385b68909f,,,,,,,,,,,1753.519,1754.5167,,,1755.0168,1755.2649,,90,90,,,,,,,,,,,,,,,,bars/038.png,bars/mask004.png,,,,,,,,,,,,3,2,,,,,,,10,10,10,8,,,,,,,,,,,1754.5167,1755.0168,1755.2649,1759.4019,space,4.1301,,1759.402,75,20,1760.4019,1760.4019,1760.4078,,,,0,7,7,7,1,165,70,,,,,,,,
,,654cb5da6bb60c3674457a8c,65af5578f6e775c50195c062,2024-01-23_07h07.53.808,bars,2023.2.3,Win32,269.6871629,657b66ea316d21385b68909f,,,,,,,,,,,1760.4079,1761.4057,,,1761.9056,1762.1537,,6,6,,,,,,,,,,,,,,,,bars/032.png,bars/mask007.png,,,,,,,,,,,,5,2,,,,,,,10,10,10,10,,,,,,,,,,,1761.4057,1761.9056,1762.1537,1764.2612,space,2.1002,,1764.2613,61,14,1765.2612,1765.2613,1765.2615,,,,0,8,8,8,1,125,20,,,,,,,,
,,654cb5da6bb60c3674457a8c,65af5578f6e775c50195c062,2024-01-23_07h07.53.808,bars,2023.2.3,Win32,269.6871629,657b66ea316d21385b68909f,,,,,,,,,,,1765.2617,1766.2612,,,1766.7612,1767.0094,,34,34,,,,,,,,,,,,,,,,bars/035.png,bars/mask005.png,,,,,,,,,,,,1,2,,,,,,,8,10,9,10,,,,,,,,,,,1766.2612,1766.7612,1767.0094,1770.8538,space,3.8372,,1770.8538,39,26,1771.8538,1771.8538,1771.8597,,,,0,9,9,9,1,175,60,,,,,,,,
,,654cb5da6bb60c3674457a8c,65af5578f6e775c50195c062,2024-01-23_07h07.53.808,bars,2023.2.3,Win32,269.6871629,657b66ea316d21385b68909f,,,,,,,,,,,1771.8598,1772.8575,,,1773.3552,1773.6033,,20,20,,,,,,,,,,,,,,,,bars/026.png,bars/mask002.png,,,,,,,,,,,,4,1,,,,,,,6,8,7,7,,,,,,,,,,,1772.8575,1773.3552,1773.6033,1779.5908,space,5.9832,,1779.5909,15,65,1780.5908,1780.5908,1780.5975,,,,0,10,10,10,1,35,85,,,,,,,,
,,654cb5da6bb60c3674457a8c,65af5578f6e775c50195c062,2024-01-23_07h07.53.808,bars,2023.2.3,Win32,269.6871629,657b66ea316d21385b68909f,,,,,,,,,,,1780.5977,1781.5983,,,1782.0982,1782.3464,,147,147,,,,,,,,,,,,,,,,bars/049.png,bars/mask005.png,,,,,,,,,,,,3,1,,,,,,,4,6,5,5,,,,,,,,,,,1781.5983,1782.0982,1782.3464,1787.3612,space,5.0082,,1787.3612,13,32,1788.3612,1788.3612,1788.3667,,,,0,11,11,11,1,160,115,,,,,,,,
,,654cb5da6bb60c3674457a8c,65af5578f6e775c50195c062,2024-01-23_07h07.53.808,bars,2023.2.3,Win32,269.6871629,657b66ea316d21385b68909f,,,,,,,,,,,1788.3668,1789.3649,,,1789.8649,1790.113,,109,109,,,,,,,,,,,,,,,,bars/025.png,bars/mask004.png,,,,,,,,,,,,5,1,,,,,,,6,4,6,3,,,,,,,,,,,1789.3649,1789.8649,1790.113,1793.876,space,3.7559,,1793.876,4,69,1794.876,1794.8761,1794.8815,,,,0,12,12,12,1,105,40,,,,,,,,
,,654cb5da6bb60c3674457a8c,65af5578f6e775c50195c062,2024-01-23_07h07.53.808,bars,2023.2.3,Win32,269.6871629,657b66ea316d21385b68909f,,,,,,,,,,,1794.8816,1795.8797,,,1796.3798,1796.6279,,40,40,,,,,,,,,,,,,,,,bars/004.png,bars/mask003.png,,,,,,,,,,,,3,1,,,,,,,8,6,6,6,,,,,,,,,,,1795.8797,1796.3797,1796.6279,1799.5761,space,2.9411,,1799.5761,15,85,1800.576,1800.576,1800.5816,,,,0,13,13,13,1,25,125,,,,,,,,
,,654cb5da6bb60c3674457a8c,65af5578f6e775c50195c062,2024-01-23_07h07.53.808,bars,2023.2.3,Win32,269.6871629,657b66ea316d21385b68909f,,,,,,,,,,,1800.5816,1801.5798,,,1802.0797,1802.3279,,146,-34,,,,,,,,,,,,,,,,bars/042.png,bars/mask003.png,,,,,,,,,,,,5,1,,,,,,,6,4,5,4,,,,,,,,,,,1801.5798,1802.0797,1802.328,1807.1242,space,4.7894,,1807.1242,1,71,1808.1242,1808.1242,1808.1297,,,,0,14,14,14,1,145,75,,,,,,,,
,,654cb5da6bb60c3674457a8c,65af5578f6e775c50195c062,2024-01-23_07h07.53.808,bars,2023.2.3,Win32,269.6871629,657b66ea316d21385b68909f,,,,,,,,,,,1808.1298,1809.1279,,,1809.6279,1809.8761,,160,160,,,,,,,,,,,,,,,,bars/039.png,bars/mask005.png,,,,,,,,,,,,2,1,,,,,,,4,2,3,2,,,,,,,,,,,1809.1279,1809.6279,1809.8761,1813.7668,space,3.8857,,1813.7668,15,55,1814.765,1814.765,1814.7708,,,,0,15,15,15,1,175,105,,,,,,,,
,,654cb5da6bb60c3674457a8c,65af5578f6e775c50195c062,2024-01-23_07h07.53.808,bars,2023.2.3,Win32,269.6871629,657b66ea316d21385b68909f,,,,,,,,,,,1814.7708,1815.7687,,,1816.2687,1816.5168,,115,115,,,,,,,,,,,,,,,,bars/031.png,bars/mask008.png,,,,,,,,,,,,3,1,,,,,,,2,4,3,5,,,,,,,,,,,1815.7687,1816.2687,1816.5168,1819.3242,space,2.8039,,1819.3242,5,80,1820.3218,1820.3218,1820.3272,,,,0,16,16,16,1,120,35,,,,,,,,
,,654cb5da6bb60c3674457a8c,65af5578f6e775c50195c062,2024-01-23_07h07.53.808,bars,2023.2.3,Win32,269.6871629,657b66ea316d21385b68909f,,,,,,,,,,,1820.3272,1821.3279,,,1821.828,1822.076,,48,228,,,,,,,,,,,,,,,,bars/019.png,bars/mask009.png,,,,,,,,,,,,0,1,,,,,,,0,2,0,4,,,,,,,,,,,1821.3279,1821.828,1822.0761,1828.9798,space,6.8967,,1828.9798,3,57,1829.9797,1829.9798,1829.9854,,,,0,17,17,17,1,45,105,,,,,,,,
,,654cb5da6bb60c3674457a8c,65af5578f6e775c50195c062,2024-01-23_07h07.53.808,bars,2023.2.3,Win32,269.6871629,657b66ea316d21385b68909f,,,,,,,,,,,1829.9856,1830.9835,,,1831.4835,1831.7316,,132,132,,,,,,,,,,,,,,,,bars/042.png,bars/mask003.png,,,,,,,,,,,,1,1,,,,,,,0,0,2,1,,,,,,,,,,,1830.9835,1831.4835,1831.7317,1834.3316,space,2.5929,,1834.3317,13,57,1835.3316,1835.3316,1835.3371,,,,0,18,18,18,1,145,75,,,,,,,,
,,654cb5da6bb60c3674457a8c,65af5578f6e775c50195c062,2024-01-23_07h07.53.808,bars,2023.2.3,Win32,269.6871629,657b66ea316d21385b68909f,,,,,,,,,,,1835.3371,1836.3353,,,1836.8353,1837.0835,,102,102,,,,,,,,,,,,,,,,bars/041.png,bars/mask004.png,,,,,,,,,,,,0,2,,,,,,,0,0,1,0,,,,,,,,,,,1836.3354,1836.8353,1837.0835,1842.2428,space,5.1531,,1842.2428,82,17,1843.2428,1843.2428,1843.2486,,,,0,19,19,19,1,20,85,,,,,,,,
,,654cb5da6bb60c3674457a8c,65af5578f6e775c50195c062,2024-01-23_07h07.53.808,bars,2023.2.3,Win32,269.6871629,657b66ea316d21385b68909f,,,,,,,,,,,1843.2487,1844.2464,,,1844.7465,1844.9946,,102,102,,,,,,,,,,,,,,,,bars/041.png,bars/mask008.png,,,,,,,,,,,,1,2,,,,,,,2,2,3,2,,,,,,,,,,,1844.2465,1844.7465,1844.9946,1846.8502,space,1.8499,,1846.8502,82,17,1847.8502,1847.8502,1847.8505,,,,0,20,20,20,1,20,85,,,,,,,,
,,654cb5da6bb60c3674457a8c,65af5578f6e775c50195c062,2024-01-23_07h07.53.808,bars,2023.2.3,Win32,269.6871629,657b66ea316d21385b68909f,,,,,,,,,,,1847.8505,1848.8501,,,1849.3501,1849.5983,,84,84,,,,,,,,,,,,,,,,bars/021.png,bars/mask006.png,,,,,,,,,,,,0,2,,,,,,,0,0,0,0,,,,,,,,,,,1848.8502,1849.3501,1849.5984,1852.7465,space,3.142,,1852.7465,71,14,1853.7465,1853.7465,1853.752,,,,0,21,21,21,1,155,70,,,,,,,,
,,654cb5da6bb60c3674457a8c,65af5578f6e775c50195c062,2024-01-23_07h07.53.808,bars,2023.2.3,Win32,269.6871629,657b66ea316d21385b68909f,,,,,,,,,,,1853.7521,1854.7502,,,1855.2502,1855.4983,,124,124,,,,,,,,,,,,,,,,bars/015.png,bars/mask009.png,,,,,,,,,,,,0,1,,,,,,,0,2,0,2,,,,,,,,,,,1854.7502,1855.2502,1855.4983,1857.7761,space,2.2706,,1857.7761,14,36,1858.7762,1858.7762,1858.8026,,,,0,22,22,22,1,110,160,,,,,,,,
,,654cb5da6bb60c3674457a8c,65af5578f6e775c50195c062,2024-01-23_07h07.53.808,bars,2023.2.3,Win32,269.6871629,657b66ea316d21385b68909f,,,,,,,,,,,1858.8027,1859.8021,,,1860.3021,1860.5502,,40,220,,,,,,,,,,,,,,,,bars/005.png,bars/mask007.png,,,,,,,,,,,,0,1,,,,,,,2,4,2,6,,,,,,,,,,,1859.8021,1860.3021,1860.5502,1864.9206,space,4.3667,,1864.9206,30,80,1865.9205,1865.9205,1865.9261,,,,0,23,23,23,1,10,140,,,,,,,,
,,654cb5da6bb60c3674457a8c,65af5578f6e775c50195c062,2024-01-23_07h07.53.808,bars,2023.2.3,Win32,269.6871629,657b66ea316d21385b68909f,,,,,,,,,,,1865.9262,1866.9243,,,1867.4243,1867.6724,,96,96,,,,,,,,,,,,,,,,bars/026.png,bars/mask000.png,,,,,,,,,,,,2,2,,,,,,,4,2,5,3,,,,,,,,,,,1866.9243,1867.4243,1867.6724,1871.2798,space,3.6002,,1871.2799,61,11,1872.2798,1872.2798,1872.2857,,,,0,24,24,24,1,35,85,,,,,,,,
,,654cb5da6bb60c3674457a8c,65af5578f6e775c50195c062,2024-01-23_07h07.53.808,bars,2023.2.3,Win32,269.6871629,657b66ea316d21385b68909f,,,,,,,,,,,1872.2858,1873.2835,,,1873.7836,1874.0317,,2,2,,,,,,,,,,,,,,,,bars/040.png,bars/mask000.png,,,,,,,,,,,,4,2,,,,,,,2,4,2,4,,,,,,,,,,,1873.2836,1873.7836,1874.0318,1876.4814,space,2.4482,,1876.4815,42,3,1877.4798,1877.4798,1877.4854,,,,0,25,25,25,1,140,5,,,,,,,,
,,654cb5da6bb60c3674457a8c,65af5578f6e775c50195c062,2024-01-23_07h07.53.808,bars,2023.2.3,Win32,269.6871629,657b66ea316d21385b68909f,,,,,,,,,,,1877.4854,1878.4836,,,1878.9836,1879.2317,,67,67,,,,,,,,,,,,,,,,bars/034.png,bars/mask004.png,,,,,,,,,,,,7,2,,,,,,,0,6,0,7,,,,,,,,,,,1878.4836,1878.9836,1879.2317,1882.0281,space,2.789,,1882.0281,58,2,1883.028,1883.028,1883.0334,,,,0,26,26,26,1,125,65,,,,,,,,
,,654cb5da6bb60c3674457a8c,65af5578f6e775c50195c062,2024-01-23_07h07.53.808,bars,2023.2.3,Win32,269.6871629,657b66ea316d21385b68909f,,,,,,,,,,,1883.0334,1884.0317,,,1884.5317,1884.7799,,86,86,,,,,,,,,,,,,,,,bars/038.png,bars/mask000.png,,,,,,,,,,,,4,2,,,,,,,2,8,2,9,,,,,,,,,,,1884.0317,1884.5317,1884.7799,1886.6132,space,1.8288,,1886.6132,79,16,1887.6132,1887.6132,1887.6135,,,,0,27,27,27,1,165,70,,,,,,,,
,,654cb5da6bb60c3674457a8c,65af5578f6e775c50195c062,2024-01-23_07h07.53.808,bars,2023.2.3,Win32,269.6871629,657b66ea316d21385b68909f,,,,,,,,,,,1887.6136,1888.6131,,,1889.1132,1889.3613,,127,-53,,,,,,,,,,,,,,,,bars/004.png,bars/mask006.png,,,,,,,,,,,,5,2,,,,,,,0,6,0,5,,,,,,,,,,,1888.6131,1889.1132,1889.3613,1894.7317,space,5.3632,,1894.7318,78,2,1895.7317,1895.7317,1895.7372,,,,0,28,28,28,1,25,125,,,,,,,,
,,654cb5da6bb60c3674457a8c,65af5578f6e775c50195c062,2024-01-23_07h07.53.808,bars,2023.2.3,Win32,269.6871629,657b66ea316d21385b68909f,,,,,,,,,,,1895.7373,1896.7354,,,1897.2355,1897.4835,,88,88,,,,,,,,,,,,,,,,bars/018.png,bars/mask008.png,,,,,,,,,,,,4,2,,,,,,,0,4,0,4,,,,,,,,,,,1896.7354,1897.2355,1897.4835,1900.7392,space,3.2468,,1900.7392,62,2,1901.7391,1901.7391,1901.7448,,,,0,29,29,29,1,150,90,,,,,,,,
,,654cb5da6bb60c3674457a8c,65af5578f6e775c50195c062,2024-01-23_07h07.53.808,bars,2023.2.3,Win32,269.6871629,657b66ea316d21385b68909f,,,,,,,,,,,1901.7449,1902.7428,,,1903.2406,1903.491,,12,12,,,,,,,,,,,,,,,,bars/032.png,bars/mask007.png,,,,,,,,,,,,5,2,,,,,,,2,6,2,7,,,,,,,,,,,1902.7428,1903.2406,1903.491,1909.8243,space,6.3262,,1909.8244,67,8,1910.8243,1910.8244,1910.8303,,,,0,30,30,30,1,125,20,,,,,,,,
,,654cb5da6bb60c3674457a8c,65af5578f6e775c50195c062,2024-01-23_07h07.53.808,bars,2023.2.3,Win32,269.6871629,657b66ea316d21385b68909f,,,,,,,,,,,1910.8304,1911.828,,,1912.328,1912.5762,,30,210,,,,,,,,,,,,,,,,bars/031.png,bars/mask002.png,,,,,,,,,,,,3,2,,,,,,,0,4,0,4,,,,,,,,,,,1911.8281,1912.328,1912.5762,1916.6652,space,4.0873,,1916.6652,90,5,1917.6651,1917.6651,1917.6707,,,,0,31,31,31,1,120,35,,,,,,,,
,,654cb5da6bb60c3674457a8c,65af5578f6e775c50195c062,2024-01-23_07h07.53.808,bars,2023.2.3,Win32,269.6871629,657b66ea316d21385b68909f,,,,,,,,,,,1917.6708,1918.6688,,,1919.1688,1919.4169,,88,268,,,,,,,,,,,,,,,,bars/021.png,bars/mask001.png,,,,,,,,,,,,2,2,,,,,,,2,6,2,5,,,,,,,,,,,1918.6688,1919.1688,1919.4169,1924.5689,space,5.1469,,1924.5689,67,18,1925.5664,1925.5664,1925.5719,,,,0,32,32,32,1,155,70,,,,,,,,
,,654cb5da6bb60c3674457a8c,65af5578f6e775c50195c062,2024-01-23_07h07.53.808,bars,2023.2.3,Win32,269.6871629,657b66ea316d21385b68909f,,,,,,,,,,,1925.572,1926.5725,,,1927.0725,1927.3206,,96,96,,,,,,,,,,,,,,,,bars/009.png,bars/mask001.png,,,,,,,,,,,,4,2,,,,,,,4,4,4,5,,,,,,,,,,,1926.5725,1927.0725,1927.3206,1931.3503,space,4.0265,,1931.3504,81,9,1932.3503,1932.3503,1932.3558,,,,0,33,33,33,1,15,105,,,,,,,,
,,654cb5da6bb60c3674457a8c,65af5578f6e775c50195c062,2024-01-23_07h07.53.808,bars,2023.2.3,Win32,269.6871629,657b66ea316d21385b68909f,,,,,,,,,,,1932.3559,1933.354,,,1933.854,1934.1022,,59,59,,,,,,,,,,,,,,,,bars/029.png,bars/mask000.png,,,,,,,,,,,,1,2,,,,,,,2,2,2,2,,,,,,,,,,,1933.354,1933.8539,1934.1022,1936.7985,space,2.6874,,1936.7985,31,14,1937.7984,1937.7984,1937.8039,,,,0,34,34,34,1,90,45,,,,,,,,
,,654cb5da6bb60c3674457a8c,65af5578f6e775c50195c062,2024-01-23_07h07.53.808,bars,2023.2.3,Win32,269.6871629,657b66ea316d21385b68909f,,,,,,,,,,,1937.804,1938.8021,,,1939.3022,1939.5503,,44,44,,,,,,,,,,,,,,,,bars/017.png,bars/mask000.png,,,,,,,,,,,,0,2,,,,,,,0,0,0,0,,,,,,,,,,,1938.8021,1939.3022,1939.5503,1941.3355,space,1.7782,,1941.3355,79,1,1942.3368,1942.3369,1942.3371,,,,0,35,35,35,1,145,45,,,,,,,,
,,654cb5da6bb60c3674457a8c,65af5578f6e775c50195c062,2024-01-23_07h07.53.808,bars,2023.2.3,Win32,269.6871629,657b66ea316d21385b68909f,,,,,,,,,,,1942.3372,1943.3355,,,1943.8355,1944.0836,,157,157,,,,,,,,,,,,,,,,bars/011.png,bars/mask006.png,,,,,,,,,,,,3,1,,,,,,,2,2,3,2,,,,,,,,,,,1943.3355,1943.8355,1944.0836,1946.1429,space,2.0507,,1946.1429,3,72,1947.1429,1947.1429,1947.1489,,,,0,36,36,36,1,160,85,,,,,,,,
,,654cb5da6bb60c3674457a8c,65af5578f6e775c50195c062,2024-01-23_07h07.53.808,bars,2023.2.3,Win32,269.6871629,657b66ea316d21385b68909f,,,,,,,,,,,1947.1491,1948.1466,,,1948.6466,1948.8947,,163,-17,,,,,,,,,,,,,,,,bars/018.png,bars/mask000.png,,,,,,,,,,,,2,1,,,,,,,4,0,3,0,,,,,,,,,,,1948.1466,1948.6466,1948.8947,1953.38,space,4.4779,,1953.38,13,73,1954.38,1954.38,1954.3856,,,,0,37,37,37,1,150,90,,,,,,,,
,,654cb5da6bb60c3674457a8c,65af5578f6e775c50195c062,2024-01-23_07h07.53.808,bars,2023.2.3,Win32,269.6871629,657b66ea316d21385b68909f,,,,,,,,,,,1954.3857,1955.3837,,,1955.8837,1956.1318,,117,117,,,,,,,,,,,,,,,,bars/015.png,bars/mask008.png,,,,,,,,,,,,2,1,,,,,,,2,2,2,3,,,,,,,,,,,1955.3837,1955.8837,1956.1319,1958.2319,space,2.093,,1958.2319,7,43,1959.2318,1959.2318,1959.2373,,,,0,38,38,38,1,110,160,,,,,,,,
,,654cb5da6bb60c3674457a8c,65af5578f6e775c50195c062,2024-01-23_07h07.53.808,bars,2023.2.3,Win32,269.6871629,657b66ea316d21385b68909f,,,,,,,,,,,1959.2374,1960.2355,,,1960.7355,1960.9836,,109,109,,,,,,,,,,,,,,,,bars/025.png,bars/mask001.png,,,,,,,,,,,,4,1,,,,,,,4,4,5,5,,,,,,,,,,,1960.2355,1960.7355,1960.9837,1964.0133,space,3.0238,,1964.0133,4,69,1965.0133,1965.0133,1965.0189,,,,0,39,39,39,1,105,40,,,,,,,,
,,654cb5da6bb60c3674457a8c,65af5578f6e775c50195c062,2024-01-23_07h07.53.808,bars,2023.2.3,Win32,269.6871629,657b66ea316d21385b68909f,,,,,,,,,,,1965.0191,1966.0171,,,1966.517,1966.7651,,44,44,,,,,,,,,,,,,,,,bars/028.png,bars/mask000.png,,,,,,,,,,,,6,1,,,,,,,6,2,6,1,,,,,,,,,,,1966.0171,1966.517,1966.7651,1968.98,space,2.2075,,1968.9801,1,76,1969.9799,1969.9799,1969.9857,,,,0,40,40,40,1,45,120,,,,,,,,
,,654cb5da6bb60c3674457a8c,65af5578f6e775c50195c062,2024-01-23_07h07.53.808,bars,2023.2.3,Win32,269.6871629,657b66ea316d21385b68909f,,,,,,,,,,,1969.9857,1970.9837,,,1971.4837,1971.7318,,134,-46,,,,,,,,,,,,,,,,bars/040.png,bars/mask008.png,,,,,,,,,,,,2,1,,,,,,,4,4,3,4,,,,,,,,,,,1970.9837,1971.4836,1971.7318,1976.6393,space,4.9003,,1976.6393,6,51,1977.6392,1977.6392,1977.645,,,,0,41,41,41,1,140,5,,,,,,,,
,,654cb5da6bb60c3674457a8c,65af5578f6e775c50195c062,2024-01-23_07h07.53.808,bars,2023.2.3,Win32,269.6871629,657b66ea316d21385b68909f,,,,,,,,,,,1977.645,1978.643,,,1979.143,1979.3911,,11,11,,,,,,,,,,,,,,,,bars/047.png,bars/mask009.png,,,,,,,,,,,,4,1,,,,,,,6,2,5,1,,,,,,,,,,,1978.643,1979.143,1979.3911,1983.243,space,3.8448,,1983.243,4,59,1984.243,1984.243,1984.2482,,,,0,42,42,42,1,15,70,,,,,,,,
,,654cb5da6bb60c3674457a8c,65af5578f6e775c50195c062,2024-01-23_07h07.53.808,bars,2023.2.3,Win32,269.6871629,657b66ea316d21385b68909f,,,,,,,,,,,1984.2484,1985.2466,,,1985.7467,1985.9948,,3,3,,,,,,,,,,,,,,,,bars/035.png,bars/mask004.png,,,,,,,,,,,,6,1,,,,,,,8,0,8,0,,,,,,,,,,,1985.2466,1985.7466,1985.9948,1991.8171,space,5.8164,,1991.8172,8,57,1992.8171,1992.8171,1992.8227,,,,0,43,43,43,1,175,60,,,,,,,,
,,654cb5da6bb60c3674457a8c,65af5578f6e775c50195c062,2024-01-23_07h07.53.808,bars,2023.2.3,Win32,269.6871629,657b66ea316d21385b68909f,,,,,,,,,,,1992.8228,1993.8208,,,1994.3208,1994.5689,,165,-15,,,,,,,,,,,,,,,,bars/011.png,bars/mask005.png,,,,,,,,,,,,6,1,,,,,,,6,2,7,0,,,,,,,,,,,1993.8208,1994.3208,1994.5689,1998.6097,space,4.0349,,1998.6097,5,80,1999.6097,1999.6097,1999.615,,,,0,44,44,44,1,160,85,,,,,,,,
,,654cb5da6bb60c3674457a8c,65af5578f6e775c50195c062,2024-01-23_07h07.53.808,bars,2023.2.3,Win32,269.6871629,657b66ea316d21385b68909f,,,,,,,,,,,1999.6151,2000.6134,,,2001.1133,2001.3615,,146,-34,,,,,,,,,,,,,,,,bars/007.png,bars/mask004.png,,,,,,,,,,,,0,1,,,,,,,4,4,5,5,,,,,,,,,,,2000.6134,2001.1133,2001.3615,2006.6319,space,5.2631,,2006.632,29,89,2007.6319,2007.6319,2007.6375,,,,0,45,45,45,1,175,55,,,,,,,,
,,654cb5da6bb60c3674457a8c,65af5578f6e775c50195c062,2024-01-23_07h07.53.808,bars,2023.2.3,Win32,269.6871629,657b66ea316d21385b68909f,,,,,,,,,,,2007.6375,2008.6356,,,2009.1356,2009.3837,,83,263,,,,,,,,,,,,,,,,bars/014.png,bars/mask004.png,,,,,,,,,,,,6,1,,,,,,,6,6,7,4,,,,,,,,,,,2008.6356,2009.1356,2009.3837,2013.6652,space,4.2754,,2013.6653,3,83,2014.6652,2014.6653,2014.6706,,,,0,46,46,46,1,80,0,,,,,,,,
,,654cb5da6bb60c3674457a8c,65af5578f6e775c50195c062,2024-01-23_07h07.53.808,bars,2023.2.3,Win32,269.6871629,657b66ea316d21385b68909f,,,,,,,,,,,2014.6708,2015.669,,,2016.1689,2016.4171,,52,52,,,,,,,,,,,,,,,,bars/028.png,bars/mask006.png,,,,,,,,,,,,2,1,,,,,,,4,8,3,6,,,,,,,,,,,2015.669,2016.1689,2016.4171,2018.4726,space,2.0535,,2018.4727,7,68,2019.4727,2019.4727,2019.478,,,,0,47,47,47,1,45,120,,,,,,,,
,,654cb5da6bb60c3674457a8c,65af5578f6e775c50195c062,2024-01-23_07h07.53.808,bars,2023.2.3,Win32,269.6871629,657b66ea316d21385b68909f,,,,,,,,,,,2019.4781,2020.4764,,,2020.9763,2021.2245,,156,156,,,,,,,,,,,,,,,,bars/046.png,bars/mask007.png,,,,,,,,,,,,7,1,,,,,,,6,10,7,10,,,,,,,,,,,2020.4764,2020.9763,2021.2245,2025.3874,space,4.1557,,2025.3875,1,71,2026.3875,2026.3875,2026.3929,,,,0,48,48,48,1,155,85,,,,,,,,
,,654cb5da6bb60c3674457a8c,65af5578f6e775c50195c062,2024-01-23_07h07.53.808,bars,2023.2.3,Win32,269.6871629,657b66ea316d21385b68909f,,,,,,,,,,,2026.393,2027.3925,,,2027.8912,2028.1393,,161,161,,,,,,,,,,,,,,,,bars/007.png,bars/mask001.png,,,,,,,,,,,,4,1,,,,,,,8,10,8,10,,,,,,,,,,,2027.3925,2027.8912,2028.1393,2030.8356,space,2.6891,,2030.8357,14,74,2031.8356,2031.8356,2031.8415,,,,0,49,49,49,1,175,55,,,,,,,,
,,654cb5da6bb60c3674457a8c,65af5578f6e775c50195c062,2024-01-23_07h07.53.808,bars,2023.2.3,Win32,269.6871629,657b66ea316d21385b68909f,,,,,,,,,,,,,,,,,,,,,,,,,,,,,,,,,,,,,,,,,,,,,,,,,,,,,,,,,,,,,,,,,,,,,,,,,,,,,,,,,,,,,,,,,,,,,2031.8416,2091.8394,0,3,3,2,1,sequence_tables/blk011.csv
,,654cb5da6bb60c3674457a8c,65af5578f6e775c50195c062,2024-01-23_07h07.53.808,bars,2023.2.3,Win32,269.6871629,657b66ea316d21385b68909f,,,,,,,,,,,2100.173,2101.169,,,2101.669,2101.9172,,100,100,,,,,,,,,,,,,,,,bars/018.png,bars/mask003.png,,,,,,,,,,,,1,2,,,,,,,8,3,7,2,,,,,,2091.8453,2100.1654,space,8.3168,,2101.169,2101.669,2101.9172,2107.7209,space,5.7972,,2107.7209,50,10,2108.7209,2108.721,2108.7217,,,,0,0,0,0,1,150,90,,,,,,,,
,,654cb5da6bb60c3674457a8c,65af5578f6e775c50195c062,2024-01-23_07h07.53.808,bars,2023.2.3,Win32,269.6871629,657b66ea316d21385b68909f,,,,,,,,,,,2108.7218,2109.7209,,,2110.2209,2110.4691,,95,95,,,,,,,,,,,,,,,,bars/006.png,bars/mask001.png,,,,,,,,,,,,3,2,,,,,,,6,5,6,4,,,,,,,,,,,2109.7209,2110.2209,2110.4691,2112.3062,space,1.8299,,2112.3062,60,5,2113.3061,2113.3061,2113.3065,,,,0,1,1,1,1,35,100,,,,,,,,
,,654cb5da6bb60c3674457a8c,65af5578f6e775c50195c062,2024-01-23_07h07.53.808,bars,2023.2.3,Win32,269.6871629,657b66ea316d21385b68909f,,,,,,,,,,,2113.3065,2114.3061,,,2114.8061,2115.0543,,62,242,,,,,,,,,,,,,,,,bars/010.png,bars/mask007.png,,,,,,,,,,,,2,2,,,,,,,8,3,8,3,,,,,,,,,,,2114.3061,2114.8061,2115.0543,2121.0098,space,5.9483,,2121.0098,77,7,2122.0098,2122.0098,2122.0154,,,,0,2,2,2,1,165,55,,,,,,,,
,,654cb5da6bb60c3674457a8c,65af5578f6e775c50195c062,2024-01-23_07h07.53.808,bars,2023.2.3,Win32,269.6871629,657b66ea316d21385b68909f,,,,,,,,,,,2122.0156,2123.0136,,,2123.5136,2123.7617,,145,-35,,,,,,,,,,,,,,,,bars/004.png,bars/mask009.png,,,,,,,,,,,,2,2,,,,,,,6,5,5,5,,,,,,,,,,,2123.0136,2123.5136,2123.7617,2128.3024,space,4.5333,,2128.3025,60,20,2129.3024,2129.3024,2129.3079,,,,0,3,3,3,1,25,125,,,,,,,,
,,654cb5da6bb60c3674457a8c,65af5578f6e775c50195c062,2024-01-23_07h07.53.808,bars,2023.2.3,Win32,269.6871629,657b66ea316d21385b68909f,,,,,,,,,,,2129.308,2130.3061,,,2130.8061,2131.0543,,40,40,,,,,,,,,,,,,,,,bars/031.png,bars/mask006.png,,,,,,,,,,,,3,2,,,,,,,8,3,9,3,,,,,,,,,,,2130.3061,2130.8061,2131.0543,2135.821,space,4.7601,,2135.821,80,5,2136.821,2136.821,2136.8262,,,,0,4,4,4,1,120,35,,,,,,,,
,,654cb5da6bb60c3674457a8c,65af5578f6e775c50195c062,2024-01-23_07h07.53.808,bars,2023.2.3,Win32,269.6871629,657b66ea316d21385b68909f,,,,,,,,,,,2136.8264,2137.8246,,,2138.3247,2138.5736,,132,132,,,,,,,,,,,,,,,,bars/003.png,bars/mask003.png,,,,,,,,,,,,1,2,,,,,,,6,1,6,2,,,,,,,,,,,2137.8246,2138.3247,2138.5737,2140.7395,space,2.1615,,2140.7395,73,8,2141.7395,2141.7395,2141.7398,,,,0,5,5,5,1,25,140,,,,,,,,
,,654cb5da6bb60c3674457a8c,65af5578f6e775c50195c062,2024-01-23_07h07.53.808,bars,2023.2.3,Win32,269.6871629,657b66ea316d21385b68909f,,,,,,,,,,,2141.7399,2142.7395,,,2143.2395,2143.4876,,130,130,,,,,,,,,,,,,,,,bars/044.png,bars/mask000.png,,,,,,,,,,,,0,2,,,,,,,4,3,3,3,,,,,,,,,,,2142.7395,2143.2395,2143.4876,2146.7024,space,3.2077,,2146.7025,55,25,2147.7024,2147.7024,2147.7079,,,,0,6,6,6,1,75,155,,,,,,,,
,,654cb5da6bb60c3674457a8c,65af5578f6e775c50195c062,2024-01-23_07h07.53.808,bars,2023.2.3,Win32,269.6871629,657b66ea316d21385b68909f,,,,,,,,,,,2147.708,2148.7061,,,2149.2061,2149.4543,,111,111,,,,,,,,,,,,,,,,bars/027.png,bars/mask008.png,,,,,,,,,,,,7,1,,,,,,,6,1,7,1,,,,,,,,,,,2148.7061,2149.2061,2149.4543,2152.5728,space,3.112,,2152.5728,1,61,2153.5728,2153.5729,2153.5789,,,,0,7,7,7,1,110,50,,,,,,,,
,,654cb5da6bb60c3674457a8c,65af5578f6e775c50195c062,2024-01-23_07h07.53.808,bars,2023.2.3,Win32,269.6871629,657b66ea316d21385b68909f,,,,,,,,,,,2153.579,2154.5765,,,2155.0765,2155.3247,,124,124,,,,,,,,,,,,,,,,bars/032.png,bars/mask003.png,,,,,,,,,,,,9,1,,,,,,,8,3,9,4,,,,,,,,,,,2154.5765,2155.0765,2155.3247,2157.7914,space,2.4616,,2157.7914,1,76,2158.7914,2158.7914,2158.797,,,,0,8,8,8,1,125,20,,,,,,,,
,,654cb5da6bb60c3674457a8c,65af5578f6e775c50195c062,2024-01-23_07h07.53.808,bars,2023.2.3,Win32,269.6871629,657b66ea316d21385b68909f,,,,,,,,,,,2158.7971,2159.795,,,2160.295,2160.5431,,20,20,,,,,,,,,,,,,,,,bars/009.png,bars/mask005.png,,,,,,,,,,,,7,1,,,,,,,10,1,8,1,,,,,,,,,,,2159.795,2160.295,2160.5432,2163.8173,space,3.267,,2163.8173,5,85,2164.8173,2164.8173,2164.8228,,,,0,9,9,9,1,15,105,,,,,,,,
,,654cb5da6bb60c3674457a8c,65af5578f6e775c50195c062,2024-01-23_07h07.53.808,bars,2023.2.3,Win32,269.6871629,657b66ea316d21385b68909f,,,,,,,,,,,2164.823,2165.821,,,2166.321,2166.5692,,68,248,,,,,,,,,,,,,,,,bars/044.png,bars/mask007.png,,,,,,,,,,,,5,1,,,,,,,8,3,7,1,,,,,,,,,,,2165.821,2166.321,2166.5692,2171.4914,space,4.9204,,2171.4914,7,87,2172.4913,2172.4914,2172.4968,,,,0,10,10,10,1,75,155,,,,,,,,
,,654cb5da6bb60c3674457a8c,65af5578f6e775c50195c062,2024-01-23_07h07.53.808,bars,2023.2.3,Win32,269.6871629,657b66ea316d21385b68909f,,,,,,,,,,,2172.4969,2173.4951,,,2173.995,2174.2432,,9,189,,,,,,,,,,,,,,,,bars/041.png,bars/mask000.png,,,,,,,,,,,,5,1,,,,,,,10,1,8,2,,,,,,,,,,,2173.4951,2173.995,2174.2433,2178.6062,space,4.3542,,2178.6062,11,76,2179.6062,2179.6062,2179.6118,,,,0,11,11,11,1,20,85,,,,,,,,
