init_variables.started,init_variables.stopped,participant,session,date,expName,psychopyVersion,OS,frameRate,study_id,instruction_exp.started,instruction_exp.stopped,key_resp_8.keys,key_resp_8.rt,key_resp_8.duration,instruction_single.started,instruction_single.stopped,key_resp_2.keys,key_resp_2.rt,key_resp_2.duration,interval.started,interval.stopped,cue_single.started,cue_single.stopped,mask.started,mask.stopped,ori_response_single.started,res_ori,res,ori_response_single.stopped,key_resp_single.keys,key_resp_single.rt,key_resp_single.duration,disp_single.started,disp_single.stopped,key_resp.keys,key_resp.rt,key_resp.duration,single.thisRepN,single.thisTrialN,single.thisN,single.thisIndex,single.ran,ori,path,mask_path,instruction_bandit.started,instruction_bandit.stopped,key_resp_6.keys,key_resp_6.rt,key_resp_6.duration,cue_bandit.started,cue_bandit.stopped,bandit_res.keys,bandit_res.rt,bandit_res.duration,outcome_bandit.started,rew,action,outcome_bandit.stopped,bandit.thisRepN,bandit.thisTrialN,bandit.thisN,bandit.thisIndex,bandit.ran,actual_rew1,actual_rew2,rew1,rew2,instruction_task.started,instruction_task.stopped,key_resp_7.keys,key_resp_7.rt,key_resp_7.duration,wait_ready.started,wait_ready.stopped,key_resp_3.keys,key_resp_3.rt,key_resp_3.duration,cue.started,cue.stopped,ori_response.started,ori_response.stopped,key_resp_5.keys,key_resp_5.rt,key_resp_5.duration,outcome.started,diff1,diff2,outcome.stopped,disp_outcome_practice.started,disp_outcome_practice.stopped,key_resp_4.keys,key_resp_4.rt,key_resp_4.duration,trials.thisRepN,trials.thisTrialN,trials.thisN,trials.thisIndex,trials.ran,ori1,ori2,break_blk.started,break_blk.stopped,block.thisRepN,block.thisTrialN,block.thisN,block.thisIndex,block.ran,condition_file
0.0002,0.0003,5bbe5b4eea58cc000153af4e,65af5acbb940720aef4cd746,2024-01-23_06h43.51.970,bars,2023.2.3,Win32,58.47953216,657b66ea316d21385b68909f,,,,,,,,,,,,,,,,,,,,,,,,,,,,,,,,,,,,,,,,,,,,,,,,,,,,,,,,,,,,,,,,,,,,,,,,,,,,,,,,,,,,,,,,,,,,,,,,,,,,
,,5bbe5b4eea58cc000153af4e,65af5acbb940720aef4cd746,2024-01-23_06h43.51.970,bars,2023.2.3,Win32,58.47953216,657b66ea316d21385b68909f,0.0004,4.2459,y,4.2329,,,,,,,,,,,,,,,,,,,,,,,,,,,,,,,,,,,,,,,,,,,,,,,,,,,,,,,,,,,,,,,,,,,,,,,,,,,,,,,,,,,,,,,,,,,,,,,,
,,5bbe5b4eea58cc000153af4e,65af5acbb940720aef4cd746,2024-01-23_06h43.51.970,bars,2023.2.3,Win32,58.47953216,657b66ea316d21385b68909f,,,,,,4.2463,16.455,space,12.1914,,,,,,,,,,,,,,,,,,,,,,,,,,,,,,,,,,,,,,,,,,,,,,,,,,,,,,,,,,,,,,,,,,,,,,,,,,,,,,,,,,,,,,,,,,,
,,5bbe5b4eea58cc000153af4e,65af5acbb940720aef4cd746,2024-01-23_06h43.51.970,bars,2023.2.3,Win32,58.47953216,657b66ea316d21385b68909f,,,,,,,,,,,16.4625,17.4693,17.4697,17.9698,17.97,18.2137,18.2139,0,0,24.9609,space,6.7077,,24.9612,39.4556,space,14.479,,0,0,0,1,1,20,bars/single001.png,bars/mask006.png,,,,,,,,,,,,,,,,,,,,,,,,,,,,,,,,,,,,,,,,,,,,,,,,,,,,,,,,,,,,,,,,
,,5bbe5b4eea58cc000153af4e,65af5acbb940720aef4cd746,2024-01-23_06h43.51.970,bars,2023.2.3,Win32,58.47953216,657b66ea316d21385b68909f,,,,,,,,,,,39.4564,40.4546,40.455,40.9542,40.9544,41.2035,41.2036,12,12,46.1523,space,4.9369,,46.1526,51.883,space,5.7179,,0,1,1,9,1,20,bars/single009.png,bars/mask006.png,,,,,,,,,,,,,,,,,,,,,,,,,,,,,,,,,,,,,,,,,,,,,,,,,,,,,,,,,,,,,,,,
,,5bbe5b4eea58cc000153af4e,65af5acbb940720aef4cd746,2024-01-23_06h43.51.970,bars,2023.2.3,Win32,58.47953216,657b66ea316d21385b68909f,,,,,,,,,,,51.8837,52.882,52.8821,53.3823,53.3823,53.6326,53.6326,2,2,60.8293,space,7.1845,,60.8296,70.3832,space,9.5276,,0,2,2,3,1,20,bars/single003.png,bars/mask005.png,,,,,,,,,,,,,,,,,,,,,,,,,,,,,,,,,,,,,,,,,,,,,,,,,,,,,,,,,,,,,,,,
,,5bbe5b4eea58cc000153af4e,65af5acbb940720aef4cd746,2024-01-23_06h43.51.970,bars,2023.2.3,Win32,58.47953216,657b66ea316d21385b68909f,,,,,,,,,,,70.3992,71.3906,71.3908,71.88,71.8801,72.1244,72.1245,99,99,83.1702,space,11.0166,,83.1703,87.6515,space,4.4505,,0,3,3,4,1,95,bars/single004.png,bars/mask004.png,,,,,,,,,,,,,,,,,,,,,,,,,,,,,,,,,,,,,,,,,,,,,,,,,,,,,,,,,,,,,,,,
,,5bbe5b4eea58cc000153af4e,65af5acbb940720aef4cd746,2024-01-23_06h43.51.970,bars,2023.2.3,Win32,58.47953216,657b66ea316d21385b68909f,,,,,,,,,,,87.6681,88.6722,88.6723,89.1562,89.1562,89.3999,89.4001,116,116,98.7849,space,9.3625,,98.785,100.8695,space,2.0603,,0,4,4,2,1,145,bars/single002.png,bars/mask003.png,,,,,,,,,,,,,,,,,,,,,,,,,,,,,,,,,,,,,,,,,,,,,,,,,,,,,,,,,,,,,,,,
,,5bbe5b4eea58cc000153af4e,65af5acbb940720aef4cd746,2024-01-23_06h43.51.970,bars,2023.2.3,Win32,58.47953216,657b66ea316d21385b68909f,,,,,,,,,,,100.8702,101.8603,101.8604,102.3673,102.3674,102.6177,102.6178,48,48,108.5827,space,5.9492,,108.5828,110.3747,space,1.7592,,0,5,5,5,1,55,bars/single005.png,bars/mask008.png,,,,,,,,,,,,,,,,,,,,,,,,,,,,,,,,,,,,,,,,,,,,,,,,,,,,,,,,,,,,,,,,
,,5bbe5b4eea58cc000153af4e,65af5acbb940720aef4cd746,2024-01-23_06h43.51.970,bars,2023.2.3,Win32,58.47953216,657b66ea316d21385b68909f,,,,,,,,,,,110.3754,111.3729,111.3729,111.8736,111.8736,112.1231,112.1232,132,132,124.6847,space,12.553,,124.6848,127.6004,space,2.8888,,0,6,6,8,1,160,bars/single008.png,bars/mask004.png,,,,,,,,,,,,,,,,,,,,,,,,,,,,,,,,,,,,,,,,,,,,,,,,,,,,,,,,,,,,,,,,
,,5bbe5b4eea58cc000153af4e,65af5acbb940720aef4cd746,2024-01-23_06h43.51.970,bars,2023.2.3,Win32,58.47953216,657b66ea316d21385b68909f,,,,,,,,,,,127.601,128.5997,128.6,129.0994,129.0996,129.3494,129.3496,32,32,136.7134,space,7.3482,,136.7135,142.8615,space,6.115,,0,7,7,7,1,45,bars/single007.png,bars/mask009.png,,,,,,,,,,,,,,,,,,,,,,,,,,,,,,,,,,,,,,,,,,,,,,,,,,,,,,,,,,,,,,,,
,,5bbe5b4eea58cc000153af4e,65af5acbb940720aef4cd746,2024-01-23_06h43.51.970,bars,2023.2.3,Win32,58.47953216,657b66ea316d21385b68909f,,,,,,,,,,,142.8788,143.8659,143.866,144.3656,144.3656,144.6095,144.6096,130,130,151.3289,space,6.6973,,151.3289,154.0134,space,2.6604,,0,8,8,0,1,150,bars/single000.png,bars/mask006.png,,,,,,,,,,,,,,,,,,,,,,,,,,,,,,,,,,,,,,,,,,,,,,,,,,,,,,,,,,,,,,,,
,,5bbe5b4eea58cc000153af4e,65af5acbb940720aef4cd746,2024-01-23_06h43.51.970,bars,2023.2.3,Win32,58.47953216,657b66ea316d21385b68909f,,,,,,,,,,,154.0139,155.0061,155.0062,155.5102,155.5103,155.7537,155.7538,178,178,159.8023,space,4.0171,,159.8024,161.3095,space,1.4815,,0,9,9,6,1,175,bars/single006.png,bars/mask005.png,,,,,,,,,,,,,,,,,,,,,,,,,,,,,,,,,,,,,,,,,,,,,,,,,,,,,,,,,,,,,,,,
,,5bbe5b4eea58cc000153af4e,65af5acbb940720aef4cd746,2024-01-23_06h43.51.970,bars,2023.2.3,Win32,58.47953216,657b66ea316d21385b68909f,,,,,,,,,,,,,,,,,,,,,,,,,,,,,,,,,,,,,161.311,172.6988,space,11.3632,,,,,,,,,,,,,,,,,,,,,,,,,,,,,,,,,,,,,,,,,,,,,,,,,,,,,,,,,,,,
,,5bbe5b4eea58cc000153af4e,65af5acbb940720aef4cd746,2024-01-23_06h43.51.970,bars,2023.2.3,Win32,58.47953216,657b66ea316d21385b68909f,,,,,,,,,,,,,,,,,,,,,,,,,,,,,,,,,,,,,,,,,,172.7174,173.7642,right,1.0186,,173.7647,2,2,174.7636,0,0,0,0,1,9,1,9,2,,,,,,,,,,,,,,,,,,,,,,,,,,,,,,,,,,,,,,,,,
,,5bbe5b4eea58cc000153af4e,65af5acbb940720aef4cd746,2024-01-23_06h43.51.970,bars,2023.2.3,Win32,58.47953216,657b66ea316d21385b68909f,,,,,,,,,,,,,,,,,,,,,,,,,,,,,,,,,,,,,,,,,,174.7645,178.7783,left,4.0029,,178.7784,10,1,179.7771,0,1,1,1,1,10,0,10,1,,,,,,,,,,,,,,,,,,,,,,,,,,,,,,,,,,,,,,,,,
,,5bbe5b4eea58cc000153af4e,65af5acbb940720aef4cd746,2024-01-23_06h43.51.970,bars,2023.2.3,Win32,58.47953216,657b66ea316d21385b68909f,,,,,,,,,,,,,,,,,,,,,,,,,,,,,,,,,,,,,,,,,,179.7915,181.3098,left,1.5084,,181.3099,10,1,182.3095,0,2,2,2,1,10,2,10,2,,,,,,,,,,,,,,,,,,,,,,,,,,,,,,,,,,,,,,,,,
,,5bbe5b4eea58cc000153af4e,65af5acbb940720aef4cd746,2024-01-23_06h43.51.970,bars,2023.2.3,Win32,58.47953216,657b66ea316d21385b68909f,,,,,,,,,,,,,,,,,,,,,,,,,,,,,,,,,,,,,,,,,,182.31,183.5101,left,1.1837,,183.5101,7,1,184.5086,0,3,3,3,1,8,4,7,3,,,,,,,,,,,,,,,,,,,,,,,,,,,,,,,,,,,,,,,,,
,,5bbe5b4eea58cc000153af4e,65af5acbb940720aef4cd746,2024-01-23_06h43.51.970,bars,2023.2.3,Win32,58.47953216,657b66ea316d21385b68909f,,,,,,,,,,,,,,,,,,,,,,,,,,,,,,,,,,,,,,,,,,184.5093,185.9583,right,1.4415,,185.9585,1,2,186.9573,0,4,4,4,1,6,2,5,1,,,,,,,,,,,,,,,,,,,,,,,,,,,,,,,,,,,,,,,,,
,,5bbe5b4eea58cc000153af4e,65af5acbb940720aef4cd746,2024-01-23_06h43.51.970,bars,2023.2.3,Win32,58.47953216,657b66ea316d21385b68909f,,,,,,,,,,,,,,,,,,,,,,,,,,,,,,,,,,,,,,,,,,186.9726,187.4579,left,0.4757,,187.4583,4,1,188.4569,0,5,5,5,1,4,4,4,4,,,,,,,,,,,,,,,,,,,,,,,,,,,,,,,,,,,,,,,,,
,,5bbe5b4eea58cc000153af4e,65af5acbb940720aef4cd746,2024-01-23_06h43.51.970,bars,2023.2.3,Win32,58.47953216,657b66ea316d21385b68909f,,,,,,,,,,,,,,,,,,,,,,,,,,,,,,,,,,,,,,,,,,188.458,189.3563,right,0.8902,,189.3563,2,2,190.3564,0,6,6,6,1,2,2,1,2,,,,,,,,,,,,,,,,,,,,,,,,,,,,,,,,,,,,,,,,,
,,5bbe5b4eea58cc000153af4e,65af5acbb940720aef4cd746,2024-01-23_06h43.51.970,bars,2023.2.3,Win32,58.47953216,657b66ea316d21385b68909f,,,,,,,,,,,,,,,,,,,,,,,,,,,,,,,,,,,,,,,,,,190.3573,191.0556,left,0.6885,,191.0558,0,1,192.0557,0,7,7,7,1,0,0,0,1,,,,,,,,,,,,,,,,,,,,,,,,,,,,,,,,,,,,,,,,,
,,5bbe5b4eea58cc000153af4e,65af5acbb940720aef4cd746,2024-01-23_06h43.51.970,bars,2023.2.3,Win32,58.47953216,657b66ea316d21385b68909f,,,,,,,,,,,,,,,,,,,,,,,,,,,,,,,,,,,,,,,,,,192.0565,192.4555,left,0.3828,,192.4556,1,1,193.4549,0,8,8,8,1,0,2,1,0,,,,,,,,,,,,,,,,,,,,,,,,,,,,,,,,,,,,,,,,,
,,5bbe5b4eea58cc000153af4e,65af5acbb940720aef4cd746,2024-01-23_06h43.51.970,bars,2023.2.3,Win32,58.47953216,657b66ea316d21385b68909f,,,,,,,,,,,,,,,,,,,,,,,,,,,,,,,,,,,,,,,,,,193.4558,193.8387,right,0.3716,,193.8388,3,2,194.8372,0,9,9,9,1,2,4,2,3,,,,,,,,,,,,,,,,,,,,,,,,,,,,,,,,,,,,,,,,,
,,5bbe5b4eea58cc000153af4e,65af5acbb940720aef4cd746,2024-01-23_06h43.51.970,bars,2023.2.3,Win32,58.47953216,657b66ea316d21385b68909f,,,,,,,,,,,,,,,,,,,,,,,,,,,,,,,,,,,,,,,,,,194.8387,195.5708,right,0.7213,,195.5709,3,2,196.5704,0,10,10,10,1,0,2,0,3,,,,,,,,,,,,,,,,,,,,,,,,,,,,,,,,,,,,,,,,,
,,5bbe5b4eea58cc000153af4e,65af5acbb940720aef4cd746,2024-01-23_06h43.51.970,bars,2023.2.3,Win32,58.47953216,657b66ea316d21385b68909f,,,,,,,,,,,,,,,,,,,,,,,,,,,,,,,,,,,,,,,,,,196.5713,198.8528,left,2.2649,,198.8529,0,1,199.8526,0,11,11,11,1,0,4,0,3,,,,,,,,,,,,,,,,,,,,,,,,,,,,,,,,,,,,,,,,,
,,5bbe5b4eea58cc000153af4e,65af5acbb940720aef4cd746,2024-01-23_06h43.51.970,bars,2023.2.3,Win32,58.47953216,657b66ea316d21385b68909f,,,,,,,,,,,,,,,,,,,,,,,,,,,,,,,,,,,,,,,,,,199.8683,200.5019,left,0.6183,,200.5021,1,1,201.4913,0,12,12,12,1,2,6,1,6,,,,,,,,,,,,,,,,,,,,,,,,,,,,,,,,,,,,,,,,,
,,5bbe5b4eea58cc000153af4e,65af5acbb940720aef4cd746,2024-01-23_06h43.51.970,bars,2023.2.3,Win32,58.47953216,657b66ea316d21385b68909f,,,,,,,,,,,,,,,,,,,,,,,,,,,,,,,,,,,,,,,,,,201.4919,202.0841,left,0.5688,,202.0842,1,1,203.0843,0,13,13,13,1,0,4,1,3,,,,,,,,,,,,,,,,,,,,,,,,,,,,,,,,,,,,,,,,,
,,5bbe5b4eea58cc000153af4e,65af5acbb940720aef4cd746,2024-01-23_06h43.51.970,bars,2023.2.3,Win32,58.47953216,657b66ea316d21385b68909f,,,,,,,,,,,,,,,,,,,,,,,,,,,,,,,,,,,,,,,,,,203.0852,203.59,right,0.4844,,203.5901,7,2,204.5869,0,14,14,14,1,2,6,2,7,,,,,,,,,,,,,,,,,,,,,,,,,,,,,,,,,,,,,,,,,
,,5bbe5b4eea58cc000153af4e,65af5acbb940720aef4cd746,2024-01-23_06h43.51.970,bars,2023.2.3,Win32,58.47953216,657b66ea316d21385b68909f,,,,,,,,,,,,,,,,,,,,,,,,,,,,,,,,,,,,,,,,,,204.5874,205.0715,right,0.4649,,205.0715,9,2,206.0665,0,15,15,15,1,4,8,3,9,,,,,,,,,,,,,,,,,,,,,,,,,,,,,,,,,,,,,,,,,
,,5bbe5b4eea58cc000153af4e,65af5acbb940720aef4cd746,2024-01-23_06h43.51.970,bars,2023.2.3,Win32,58.47953216,657b66ea316d21385b68909f,,,,,,,,,,,,,,,,,,,,,,,,,,,,,,,,,,,,,,,,,,206.0672,206.4331,right,0.3349,,206.4332,7,2,207.4328,0,16,16,16,1,6,6,7,7,,,,,,,,,,,,,,,,,,,,,,,,,,,,,,,,,,,,,,,,,
,,5bbe5b4eea58cc000153af4e,65af5acbb940720aef4cd746,2024-01-23_06h43.51.970,bars,2023.2.3,Win32,58.47953216,657b66ea316d21385b68909f,,,,,,,,,,,,,,,,,,,,,,,,,,,,,,,,,,,,,,,,,,207.4341,207.765,right,0.3078,,207.7652,5,2,208.7697,0,17,17,17,1,8,4,9,5,,,,,,,,,,,,,,,,,,,,,,,,,,,,,,,,,,,,,,,,,
,,5bbe5b4eea58cc000153af4e,65af5acbb940720aef4cd746,2024-01-23_06h43.51.970,bars,2023.2.3,Win32,58.47953216,657b66ea316d21385b68909f,,,,,,,,,,,,,,,,,,,,,,,,,,,,,,,,,,,,,,,,,,208.7703,210.1983,left,1.4117,,210.1984,5,1,211.1976,0,18,18,18,1,6,2,5,1,,,,,,,,,,,,,,,,,,,,,,,,,,,,,,,,,,,,,,,,,
,,5bbe5b4eea58cc000153af4e,65af5acbb940720aef4cd746,2024-01-23_06h43.51.970,bars,2023.2.3,Win32,58.47953216,657b66ea316d21385b68909f,,,,,,,,,,,,,,,,,,,,,,,,,,,,,,,,,,,,,,,,,,211.2149,212.0134,left,0.7824,,212.0135,7,1,213.0133,0,19,19,19,1,8,0,7,0,,,,,,,,,,,,,,,,,,,,,,,,,,,,,,,,,,,,,,,,,
,,5bbe5b4eea58cc000153af4e,65af5acbb940720aef4cd746,2024-01-23_06h43.51.970,bars,2023.2.3,Win32,58.47953216,657b66ea316d21385b68909f,,,,,,,,,,,,,,,,,,,,,,,,,,,,,,,,,,,,,,,,,,,,,,,,,,,,,,,,,,,,213.0149,228.6816,space,15.6449,,,,,,,,,,,,,,,,,,,,,,,,,,,,,,,,,,,,,
,,5bbe5b4eea58cc000153af4e,65af5acbb940720aef4cd746,2024-01-23_06h43.51.970,bars,2023.2.3,Win32,58.47953216,657b66ea316d21385b68909f,,,,,,,,,,,230.6629,231.6554,,,232.1553,232.4044,,88,88,,,,,,,,,,,,,,,,bars/021.png,bars/mask007.png,,,,,,,,,,,,2,2,,,,,,,2,4,2,5,,,,,,228.6988,230.6563,space,1.9408,,231.6559,232.1552,232.4049,238.137,space,5.7089,,238.1376,67,18,239.1357,239.1361,260.5503,space,21.3871,,0,0,0,0,1,155,70,,,,,,,,
,,5bbe5b4eea58cc000153af4e,65af5acbb940720aef4cd746,2024-01-23_06h43.51.970,bars,2023.2.3,Win32,58.47953216,657b66ea316d21385b68909f,,,,,,,,,,,260.5657,261.5647,,,262.0646,262.3152,,129,-51,,,,,,,,,,,,,,,,bars/024.png,bars/mask006.png,,,,,,,,,,,,3,1,,,,,,,4,6,4,7,,,,,,,,,,,261.5647,262.0644,262.3153,269.705,space,7.3735,,269.7054,9,41,270.7051,270.7053,273.8763,space,3.1411,,0,1,1,1,1,120,170,,,,,,,,
,,5bbe5b4eea58cc000153af4e,65af5acbb940720aef4cd746,2024-01-23_06h43.51.970,bars,2023.2.3,Win32,58.47953216,657b66ea316d21385b68909f,,,,,,,,,,,273.8768,274.8694,,,275.3701,275.6233,,129,129,,,,,,,,,,,,,,,,bars/003.png,bars/mask000.png,,,,,,,,,,,,5,2,,,,,,,6,8,5,8,,,,,,,,,,,274.8695,275.3701,275.6234,281.7742,space,6.1337,,281.7743,76,11,282.7668,282.7669,285.4891,space,2.694,,0,2,2,2,1,25,140,,,,,,,,
,,5bbe5b4eea58cc000153af4e,65af5acbb940720aef4cd746,2024-01-23_06h43.51.970,bars,2023.2.3,Win32,58.47953216,657b66ea316d21385b68909f,,,,,,,,,,,285.5041,286.5046,,,286.9982,287.2371,,10,190,,,,,,,,,,,,,,,,bars/032.png,bars/mask003.png,,,,,,,,,,,,5,2,,,,,,,4,6,2,7,,,,,,,,,,,286.5047,286.9981,287.2374,290.4208,space,3.167,,290.4209,65,10,291.4186,291.4187,293.096,space,1.6501,,0,3,3,3,1,125,20,,,,,,,,
,,5bbe5b4eea58cc000153af4e,65af5acbb940720aef4cd746,2024-01-23_06h43.51.970,bars,2023.2.3,Win32,58.47953216,657b66ea316d21385b68909f,,,,,,,,,,,293.0975,294.1019,,,294.5951,294.8334,,119,119,,,,,,,,,,,,,,,,bars/031.png,bars/mask008.png,,,,,,,,,,,,6,1,,,,,,,6,4,6,4,,,,,,,,,,,294.1021,294.595,294.8334,301.0971,space,6.2559,,301.0972,1,84,302.0909,302.0911,303.5484,space,1.4284,,0,4,4,4,1,120,35,,,,,,,,
,,5bbe5b4eea58cc000153af4e,65af5acbb940720aef4cd746,2024-01-23_06h43.51.970,bars,2023.2.3,Win32,58.47953216,657b66ea316d21385b68909f,,,,,,,,,,,303.5489,304.546,,,305.0458,305.2952,,135,135,,,,,,,,,,,,,,,,bars/009.png,bars/mask003.png,,,,,,,,,,,,0,2,,,,,,,8,2,9,3,,,,,,,,,,,304.546,305.0458,305.2953,308.9223,space,3.6012,,308.9226,60,30,309.9215,309.9218,314.3533,space,4.3876,,0,5,5,5,1,15,105,,,,,,,,
,,5bbe5b4eea58cc000153af4e,65af5acbb940720aef4cd746,2024-01-23_06h43.51.970,bars,2023.2.3,Win32,58.47953216,657b66ea316d21385b68909f,,,,,,,,,,,314.369,315.3696,,,315.8689,316.1188,,157,157,,,,,,,,,,,,,,,,bars/049.png,bars/mask006.png,,,,,,,,,,,,6,1,,,,,,,6,0,7,0,,,,,,,,,,,315.3696,315.8688,316.1188,322.0342,space,5.8966,,322.0344,3,42,323.0326,323.0328,326.0984,space,3.0257,,0,6,6,6,1,160,115,,,,,,,,
,,5bbe5b4eea58cc000153af4e,65af5acbb940720aef4cd746,2024-01-23_06h43.51.970,bars,2023.2.3,Win32,58.47953216,657b66ea316d21385b68909f,,,,,,,,,,,326.0993,327.0972,,,327.5971,327.847,,23,203,,,,,,,,,,,,,,,,bars/047.png,bars/mask005.png,,,,,,,,,,,,3,1,,,,,,,4,2,4,2,,,,,,,,,,,327.0973,327.597,327.8471,335.6108,space,7.7485,,335.6109,8,47,336.6098,336.6099,339.0921,space,2.4494,,0,7,7,7,1,15,70,,,,,,,,
,,5bbe5b4eea58cc000153af4e,65af5acbb940720aef4cd746,2024-01-23_06h43.51.970,bars,2023.2.3,Win32,58.47953216,657b66ea316d21385b68909f,,,,,,,,,,,339.1072,340.1087,,,340.6077,340.8575,,18,198,,,,,,,,,,,,,,,,bars/016.png,bars/mask003.png,,,,,,,,,,,,1,1,,,,,,,2,4,2,5,,,,,,,,,,,340.1087,340.6076,340.8575,345.857,space,4.9841,,345.8571,22,33,346.8568,346.8568,358.0689,space,11.1863,,0,8,8,8,1,40,165,,,,,,,,
,,5bbe5b4eea58cc000153af4e,65af5acbb940720aef4cd746,2024-01-23_06h43.51.970,bars,2023.2.3,Win32,58.47953216,657b66ea316d21385b68909f,,,,,,,,,,,358.0855,359.0833,,,359.5832,359.8331,,22,22,,,,,,,,,,,,,,,,bars/019.png,bars/mask005.png,,,,,,,,,,,,1,1,,,,,,,4,2,5,2,,,,,,,,,,,359.0833,359.583,359.8332,366.963,space,7.121,,366.963,23,83,367.9628,367.9628,378.0757,space,10.0768,,0,9,9,9,1,45,105,,,,,,,,
,,5bbe5b4eea58cc000153af4e,65af5acbb940720aef4cd746,2024-01-23_06h43.51.970,bars,2023.2.3,Win32,58.47953216,657b66ea316d21385b68909f,,,,,,,,,,,378.093,379.0921,,,379.5916,379.8413,,46,226,,,,,,,,,,,,,,,,bars/025.png,bars/mask001.png,,,,,,,,,,,,3,2,,,,,,,6,4,9,4,,,,,,,,,,,379.0922,379.5915,379.8414,385.4727,space,5.615,,385.4727,59,6,386.4719,386.4719,388.5551,space,2.0429,,0,10,10,10,1,105,40,,,,,,,,
,,5bbe5b4eea58cc000153af4e,65af5acbb940720aef4cd746,2024-01-23_06h43.51.970,bars,2023.2.3,Win32,58.47953216,657b66ea316d21385b68909f,,,,,,,,,,,388.556,389.5536,,,390.0539,390.3031,,87,87,,,,,,,,,,,,,,,,bars/014.png,bars/mask004.png,,,,,,,,,,,,6,1,,,,,,,8,2,8,0,,,,,,,,,,,389.5537,390.0538,390.3032,394.468,space,4.1547,,394.4683,7,87,395.4681,395.4682,396.4412,space,0.9444,,0,11,11,11,1,80,0,,,,,,,,
,,5bbe5b4eea58cc000153af4e,65af5acbb940720aef4cd746,2024-01-23_06h43.51.970,bars,2023.2.3,Win32,58.47953216,657b66ea316d21385b68909f,,,,,,,,,,,396.4417,397.4332,,,397.9367,398.1833,,129,129,,,,,,,,,,,,,,,,bars/031.png,bars/mask003.png,,,,,,,,,,,,7,1,,,,,,,10,4,10,4,,,,,,,,,,,397.4334,397.9367,398.1835,403.3982,space,5.1931,,403.3983,9,86,404.397,404.3971,405.7848,space,1.3639,,0,12,12,12,1,120,35,,,,,,,,
,,5bbe5b4eea58cc000153af4e,65af5acbb940720aef4cd746,2024-01-23_06h43.51.970,bars,2023.2.3,Win32,58.47953216,657b66ea316d21385b68909f,,,,,,,,,,,405.7853,406.7789,,,407.2857,407.535,,125,125,,,,,,,,,,,,,,,,bars/001.png,bars/mask002.png,,,,,,,,,,,,7,1,,,,,,,8,2,8,1,,,,,,,,,,,406.779,407.2856,407.535,412.9494,space,5.398,,412.9495,5,40,413.9433,413.9433,415.6672,space,1.6993,,0,13,13,13,1,130,85,,,,,,,,
,,5bbe5b4eea58cc000153af4e,65af5acbb940720aef4cd746,2024-01-23_06h43.51.970,bars,2023.2.3,Win32,58.47953216,657b66ea316d21385b68909f,,,,,,,,,,,415.6678,416.6584,,,417.1644,417.4076,,119,119,,,,,,,,,,,,,,,,bars/030.png,bars/mask003.png,,,,,,,,,,,,3,1,,,,,,,10,4,10,4,,,,,,,,,,,416.6585,417.1644,417.4077,422.7285,space,5.2972,,422.7286,21,54,423.7227,423.7227,425.0725,space,1.315,,0,14,14,14,1,140,65,,,,,,,,
,,5bbe5b4eea58cc000153af4e,65af5acbb940720aef4cd746,2024-01-23_06h43.51.970,bars,2023.2.3,Win32,58.47953216,657b66ea316d21385b68909f,,,,,,,,,,,425.0732,426.0775,,,426.5768,426.8205,,112,112,,,,,,,,,,,,,,,,bars/028.png,bars/mask007.png,,,,,,,,,,,,4,2,,,,,,,8,6,6,5,,,,,,,,,,,426.0777,426.5768,426.8205,429.7863,space,2.9411,,429.7864,67,8,430.7854,430.7855,431.8017,space,0.987,,0,15,15,15,1,45,120,,,,,,,,
,,5bbe5b4eea58cc000153af4e,65af5acbb940720aef4cd746,2024-01-23_06h43.51.970,bars,2023.2.3,Win32,58.47953216,657b66ea316d21385b68909f,,,,,,,,,,,431.8023,432.8011,,,433.3017,433.5512,,92,92,,,,,,,,,,,,,,,,bars/022.png,bars/mask009.png,,,,,,,,,,,,5,1,,,,,,,6,8,6,6,,,,,,,,,,,432.8011,433.3017,433.5513,437.9666,space,4.3984,,437.9667,3,72,438.9656,438.9657,439.7658,space,0.765,,0,16,16,16,1,95,20,,,,,,,,
,,5bbe5b4eea58cc000153af4e,65af5acbb940720aef4cd746,2024-01-23_06h43.51.970,bars,2023.2.3,Win32,58.47953216,657b66ea316d21385b68909f,,,,,,,,,,,439.7667,440.7645,,,441.2655,441.5153,,169,-11,,,,,,,,,,,,,,,,bars/016.png,bars/mask002.png,,,,,,,,,,,,5,2,,,,,,,4,6,4,6,,,,,,,,,,,440.7646,441.2654,441.5153,447.4295,space,5.9017,,447.4295,51,4,448.4287,448.4288,449.2947,space,0.8268,,0,17,17,17,1,40,165,,,,,,,,
,,5bbe5b4eea58cc000153af4e,65af5acbb940720aef4cd746,2024-01-23_06h43.51.970,bars,2023.2.3,Win32,58.47953216,657b66ea316d21385b68909f,,,,,,,,,,,449.2952,450.2946,,,450.7943,451.044,,92,92,,,,,,,,,,,,,,,,bars/002.png,bars/mask000.png,,,,,,,,,,,,4,2,,,,,,,2,4,2,5,,,,,,,,,,,450.2947,450.7942,451.0441,458.457,space,7.4035,,458.4571,38,7,459.4567,459.4568,460.49,space,0.995,,0,18,18,18,1,130,85,,,,,,,,
,,5bbe5b4eea58cc000153af4e,65af5acbb940720aef4cd746,2024-01-23_06h43.51.970,bars,2023.2.3,Win32,58.47953216,657b66ea316d21385b68909f,,,,,,,,,,,460.4909,461.4899,,,461.989,462.2394,,154,-26,,,,,,,,,,,,,,,,bars/018.png,bars/mask005.png,,,,,,,,,,,,0,1,,,,,,,0,2,0,3,,,,,,,,,,,461.49,461.989,462.2395,467.6372,space,5.3807,,467.6373,4,64,468.6363,468.6364,469.6523,space,0.9804,,0,19,19,19,1,150,90,,,,,,,,
,,5bbe5b4eea58cc000153af4e,65af5acbb940720aef4cd746,2024-01-23_06h43.51.970,bars,2023.2.3,Win32,58.47953216,657b66ea316d21385b68909f,,,,,,,,,,,469.6532,470.6524,,,471.152,471.4022,,140,140,,,,,,,,,,,,,,,,bars/016.png,bars/mask008.png,,,,,,,,,,,,0,2,,,,,,,2,0,0,1,,,,,,,,,,,470.6527,471.1519,471.4023,476.6659,space,5.2554,,476.666,80,25,477.6662,477.6664,478.7485,space,1.0472,,0,20,20,20,1,40,165,,,,,,,,
,,5bbe5b4eea58cc000153af4e,65af5acbb940720aef4cd746,2024-01-23_06h43.51.970,bars,2023.2.3,Win32,58.47953216,657b66ea316d21385b68909f,,,,,,,,,,,478.7492,479.7488,,,480.2486,480.4977,,85,265,,,,,,,,,,,,,,,,bars/027.png,bars/mask006.png,,,,,,,,,,,,1,1,,,,,,,4,2,7,2,,,,,,,,,,,479.7489,480.2485,480.4978,486.313,space,5.7986,,486.3131,25,35,487.3121,487.3122,488.6944,space,1.3431,,0,21,21,21,1,110,50,,,,,,,,
,,5bbe5b4eea58cc000153af4e,65af5acbb940720aef4cd746,2024-01-23_06h43.51.970,bars,2023.2.3,Win32,58.47953216,657b66ea316d21385b68909f,,,,,,,,,,,488.6952,489.6939,,,490.1929,490.4436,,142,142,,,,,,,,,,,,,,,,bars/046.png,bars/mask008.png,,,,,,,,,,,,1,1,,,,,,,2,0,1,0,,,,,,,,,,,489.6939,490.1928,490.4436,493.2259,space,2.7692,,493.226,13,57,494.2248,494.2248,495.1821,space,0.9326,,0,22,22,22,1,155,85,,,,,,,,
,,5bbe5b4eea58cc000153af4e,65af5acbb940720aef4cd746,2024-01-23_06h43.51.970,bars,2023.2.3,Win32,58.47953216,657b66ea316d21385b68909f,,,,,,,,,,,495.1825,496.1781,,,496.6744,496.9137,,9,9,,,,,,,,,,,,,,,,bars/036.png,bars/mask006.png,,,,,,,,,,,,2,2,,,,,,,0,0,0,3,,,,,,,,,,,496.1782,496.6743,496.9138,498.4627,space,1.5417,,498.4627,44,11,499.4628,499.4628,500.1611,space,0.6828,,0,23,23,23,1,145,20,,,,,,,,
,,5bbe5b4eea58cc000153af4e,65af5acbb940720aef4cd746,2024-01-23_06h43.51.970,bars,2023.2.3,Win32,58.47953216,657b66ea316d21385b68909f,,,,,,,,,,,500.1616,501.158,,,501.6618,501.9053,,155,155,,,,,,,,,,,,,,,,bars/014.png,bars/mask008.png,,,,,,,,,,,,0,2,,,,,,,2,2,2,2,,,,,,,,,,,501.158,501.6617,501.9054,506.703,space,4.7674,,506.7031,75,25,507.6919,507.6919,509.5922,space,1.877,,0,24,24,24,1,80,0,,,,,,,,
,,5bbe5b4eea58cc000153af4e,65af5acbb940720aef4cd746,2024-01-23_06h43.51.970,bars,2023.2.3,Win32,58.47953216,657b66ea316d21385b68909f,,,,,,,,,,,509.5927,510.5847,,,511.0852,511.3344,,101,-79,,,,,,,,,,,,,,,,bars/013.png,bars/mask001.png,,,,,,,,,,,,0,1,,,,,,,4,0,2,0,,,,,,,,,,,510.5848,511.0851,511.3345,520.1215,space,8.765,,520.1216,26,89,521.1188,521.1188,530.593,space,9.4384,,0,25,25,25,1,75,10,,,,,,,,
,,5bbe5b4eea58cc000153af4e,65af5acbb940720aef4cd746,2024-01-23_06h43.51.970,bars,2023.2.3,Win32,58.47953216,657b66ea316d21385b68909f,,,,,,,,,,,530.6081,531.6089,,,532.1091,532.3589,,129,129,,,,,,,,,,,,,,,,bars/029.png,bars/mask008.png,,,,,,,,,,,,0,1,,,,,,,2,2,2,2,,,,,,,,,,,531.609,532.1089,532.3589,538.1559,space,5.7868,,538.1559,39,84,539.1561,539.1562,546.3103,space,7.1286,,0,26,26,26,1,90,45,,,,,,,,
,,5bbe5b4eea58cc000153af4e,65af5acbb940720aef4cd746,2024-01-23_06h43.51.970,bars,2023.2.3,Win32,58.47953216,657b66ea316d21385b68909f,,,,,,,,,,,546.3267,547.319,,,547.8243,548.0682,,93,93,,,,,,,,,,,,,,,,bars/025.png,bars/mask003.png,,,,,,,,,,,,0,1,,,,,,,0,4,0,6,,,,,,,,,,,547.3191,547.8241,548.0683,553.7047,space,5.6135,,553.7047,12,53,554.6991,554.6992,555.9493,space,1.2192,,0,27,27,27,1,105,40,,,,,,,,
,,5bbe5b4eea58cc000153af4e,65af5acbb940720aef4cd746,2024-01-23_06h43.51.970,bars,2023.2.3,Win32,58.47953216,657b66ea316d21385b68909f,,,,,,,,,,,555.9503,556.9483,,,557.4481,557.6982,,109,109,,,,,,,,,,,,,,,,bars/009.png,bars/mask006.png,,,,,,,,,,,,3,2,,,,,,,2,2,1,3,,,,,,,,,,,556.9486,557.448,557.6982,560.6469,space,2.917,,560.6471,86,4,561.646,561.6461,562.5295,space,0.8523,,0,28,28,28,1,15,105,,,,,,,,
,,5bbe5b4eea58cc000153af4e,65af5acbb940720aef4cd746,2024-01-23_06h43.51.970,bars,2023.2.3,Win32,58.47953216,657b66ea316d21385b68909f,,,,,,,,,,,562.5302,563.5284,,,564.029,564.2786,,84,264,,,,,,,,,,,,,,,,bars/007.png,bars/mask001.png,,,,,,,,,,,,0,2,,,,,,,0,0,0,1,,,,,,,,,,,563.5286,564.0289,564.2787,570.1265,space,5.8336,,570.1265,89,29,571.1253,571.1253,574.4075,space,3.2515,,0,29,29,29,1,175,55,,,,,,,,
,,5bbe5b4eea58cc000153af4e,65af5acbb940720aef4cd746,2024-01-23_06h43.51.970,bars,2023.2.3,Win32,58.47953216,657b66ea316d21385b68909f,,,,,,,,,,,574.4232,575.4237,,,575.9234,576.1725,,48,48,,,,,,,,,,,,,,,,bars/033.png,bars/mask002.png,,,,,,,,,,,,1,1,,,,,,,2,2,3,1,,,,,,,,,,,575.4238,575.9234,576.1725,581.5545,space,5.3688,,581.5547,23,73,582.5541,582.5542,591.7675,space,9.1733,,0,30,30,30,1,25,155,,,,,,,,
,,5bbe5b4eea58cc000153af4e,65af5acbb940720aef4cd746,2024-01-23_06h43.51.970,bars,2023.2.3,Win32,58.47953216,657b66ea316d21385b68909f,,,,,,,,,,,591.7828,592.7829,,,593.2746,593.5149,,36,36,,,,,,,,,,,,,,,,bars/000.png,bars/mask004.png,,,,,,,,,,,,0,1,,,,,,,0,0,0,0,,,,,,,,,,,592.7829,593.2745,593.515,598.1147,space,4.5701,,598.1149,4,71,599.12,599.1201,600.2297,space,1.0746,,0,31,31,31,1,40,145,,,,,,,,
,,5bbe5b4eea58cc000153af4e,65af5acbb940720aef4cd746,2024-01-23_06h43.51.970,bars,2023.2.3,Win32,58.47953216,657b66ea316d21385b68909f,,,,,,,,,,,600.2305,601.2297,,,601.7294,601.9788,,141,141,,,,,,,,,,,,,,,,bars/003.png,bars/mask008.png,,,,,,,,,,,,0,2,,,,,,,0,0,1,0,,,,,,,,,,,601.2298,601.7292,601.9788,606.3444,space,4.3498,,606.3445,64,1,607.3434,607.3435,608.3998,space,1.0295,,0,32,32,32,1,25,140,,,,,,,,
,,5bbe5b4eea58cc000153af4e,65af5acbb940720aef4cd746,2024-01-23_06h43.51.970,bars,2023.2.3,Win32,58.47953216,657b66ea316d21385b68909f,,,,,,,,,,,608.4004,609.3923,,,609.8818,610.1254,,107,107,,,,,,,,,,,,,,,,bars/012.png,bars/mask005.png,,,,,,,,,,,,0,1,,,,,,,2,0,1,2,,,,,,,,,,,609.3925,609.8817,610.1254,614.2141,space,4.0658,,614.2142,17,88,615.2106,615.2106,616.0229,space,0.7821,,0,33,33,33,1,90,15,,,,,,,,
,,5bbe5b4eea58cc000153af4e,65af5acbb940720aef4cd746,2024-01-23_06h43.51.970,bars,2023.2.3,Win32,58.47953216,657b66ea316d21385b68909f,,,,,,,,,,,616.0236,617.0214,,,617.5217,617.7717,,91,91,,,,,,,,,,,,,,,,bars/044.png,bars/mask007.png,,,,,,,,,,,,0,1,,,,,,,0,0,0,0,,,,,,,,,,,617.0214,617.5215,617.7718,621.4368,space,3.6543,,621.4368,16,64,622.4366,622.4367,623.8363,space,1.3683,,0,34,34,34,1,75,155,,,,,,,,
,,5bbe5b4eea58cc000153af4e,65af5acbb940720aef4cd746,2024-01-23_06h43.51.970,bars,2023.2.3,Win32,58.47953216,657b66ea316d21385b68909f,,,,,,,,,,,623.837,624.8356,,,625.3344,625.5854,,65,-115,,,,,,,,,,,,,,,,bars/002.png,bars/mask000.png,,,,,,,,,,,,1,2,,,,,,,2,2,2,2,,,,,,,,,,,624.8356,625.3343,625.5855,635.6138,space,10.0135,,635.6141,65,20,636.614,636.6143,637.4132,space,0.7687,,0,35,35,35,1,130,85,,,,,,,,
,,5bbe5b4eea58cc000153af4e,65af5acbb940720aef4cd746,2024-01-23_06h43.51.970,bars,2023.2.3,Win32,58.47953216,657b66ea316d21385b68909f,,,,,,,,,,,637.4142,638.4133,,,638.9122,639.1623,,83,83,,,,,,,,,,,,,,,,bars/037.png,bars/mask006.png,,,,,,,,,,,,0,2,,,,,,,0,0,0,0,,,,,,,,,,,638.4134,638.912,639.1623,642.3273,space,3.1566,,642.3274,67,22,643.3275,643.3277,645.7262,space,2.3696,,0,36,36,36,1,150,105,,,,,,,,
,,5bbe5b4eea58cc000153af4e,65af5acbb940720aef4cd746,2024-01-23_06h43.51.970,bars,2023.2.3,Win32,58.47953216,657b66ea316d21385b68909f,,,,,,,,,,,645.7269,646.7262,,,647.2259,647.4759,,12,192,,,,,,,,,,,,,,,,bars/032.png,bars/mask007.png,,,,,,,,,,,,0,2,,,,,,,0,0,0,0,,,,,,,,,,,646.7265,647.2258,647.476,653.174,space,5.6807,,653.1742,67,8,654.1723,654.1723,655.2557,space,1.0548,,0,37,37,37,1,125,20,,,,,,,,
,,5bbe5b4eea58cc000153af4e,65af5acbb940720aef4cd746,2024-01-23_06h43.51.970,bars,2023.2.3,Win32,58.47953216,657b66ea316d21385b68909f,,,,,,,,,,,655.2564,656.2555,,,656.7552,657.005,,20,20,,,,,,,,,,,,,,,,bars/023.png,bars/mask007.png,,,,,,,,,,,,0,1,,,,,,,0,0,0,0,,,,,,,,,,,656.2555,656.7551,657.005,662.9521,space,5.9345,,662.9522,0,85,663.9515,663.9517,665.0578,space,1.0768,,0,38,38,38,1,20,115,,,,,,,,
,,5bbe5b4eea58cc000153af4e,65af5acbb940720aef4cd746,2024-01-23_06h43.51.970,bars,2023.2.3,Win32,58.47953216,657b66ea316d21385b68909f,,,,,,,,,,,665.0584,666.055,,,666.5515,666.8005,,159,-21,,,,,,,,,,,,,,,,bars/008.png,bars/mask004.png,,,,,,,,,,,,1,2,,,,,,,0,2,0,3,,,,,,,,,,,666.055,666.5513,666.8006,670.3394,space,3.516,,670.3395,49,21,671.3325,671.3326,672.6316,space,1.2594,,0,39,39,39,1,110,0,,,,,,,,
,,5bbe5b4eea58cc000153af4e,65af5acbb940720aef4cd746,2024-01-23_06h43.51.970,bars,2023.2.3,Win32,58.47953216,657b66ea316d21385b68909f,,,,,,,,,,,672.6324,673.6312,,,674.1306,674.381,,54,54,,,,,,,,,,,,,,,,bars/042.png,bars/mask009.png,,,,,,,,,,,,0,2,,,,,,,2,0,1,1,,,,,,,,,,,673.6313,674.1305,674.381,678.2788,space,3.8826,,678.2789,89,21,679.279,679.2791,679.9295,space,0.6195,,0,40,40,40,1,145,75,,,,,,,,
,,5bbe5b4eea58cc000153af4e,65af5acbb940720aef4cd746,2024-01-23_06h43.51.970,bars,2023.2.3,Win32,58.47953216,657b66ea316d21385b68909f,,,,,,,,,,,679.9302,680.9281,,,681.4281,681.6777,,79,79,,,,,,,,,,,,,,,,bars/034.png,bars/mask007.png,,,,,,,,,,,,2,2,,,,,,,4,2,5,3,,,,,,,,,,,680.9282,681.428,681.6777,687.4079,space,5.7135,,687.4081,46,14,688.4068,688.4068,689.1409,space,0.7131,,0,41,41,41,1,125,65,,,,,,,,
,,5bbe5b4eea58cc000153af4e,65af5acbb940720aef4cd746,2024-01-23_06h43.51.970,bars,2023.2.3,Win32,58.47953216,657b66ea316d21385b68909f,,,,,,,,,,,689.1418,690.1409,,,690.6398,690.8899,,153,153,,,,,,,,,,,,,,,,bars/040.png,bars/mask005.png,,,,,,,,,,,,1,1,,,,,,,2,4,2,5,,,,,,,,,,,690.141,690.6398,690.89,693.2726,space,2.3661,,693.2727,13,32,694.2725,694.2726,695.4419,space,1.1424,,0,42,42,42,1,140,5,,,,,,,,
,,5bbe5b4eea58cc000153af4e,65af5acbb940720aef4cd746,2024-01-23_06h43.51.970,bars,2023.2.3,Win32,58.47953216,657b66ea316d21385b68909f,,,,,,,,,,,695.4425,696.4377,,,696.9437,697.1943,,44,44,,,,,,,,,,,,,,,,bars/014.png,bars/mask006.png,,,,,,,,,,,,0,1,,,,,,,4,2,3,2,,,,,,,,,,,696.4379,696.9435,697.1943,698.8931,space,1.6911,,698.8932,36,44,699.8863,699.8864,701.0432,space,1.1338,,0,43,43,43,1,80,0,,,,,,,,
,,5bbe5b4eea58cc000153af4e,65af5acbb940720aef4cd746,2024-01-23_06h43.51.970,bars,2023.2.3,Win32,58.47953216,657b66ea316d21385b68909f,,,,,,,,,,,701.0438,702.0358,,,702.535,702.7855,,117,117,,,,,,,,,,,,,,,,bars/043.png,bars/mask007.png,,,,,,,,,,,,0,2,,,,,,,2,0,1,0,,,,,,,,,,,702.0358,702.5348,702.7856,706.8387,space,4.0307,,706.8388,87,13,707.8381,707.8382,708.6166,space,0.7448,,0,44,44,44,1,30,130,,,,,,,,
,,5bbe5b4eea58cc000153af4e,65af5acbb940720aef4cd746,2024-01-23_06h43.51.970,bars,2023.2.3,Win32,58.47953216,657b66ea316d21385b68909f,,,,,,,,,,,708.6175,709.6156,,,710.1153,710.3644,,80,-100,,,,,,,,,,,,,,,,bars/020.png,bars/mask006.png,,,,,,,,,,,,0,1,,,,,,,0,2,0,2,,,,,,,,,,,709.6156,710.1153,710.3645,716.563,space,6.1837,,716.5631,35,90,717.5623,717.5623,719.2618,space,1.6653,,0,45,45,45,1,115,170,,,,,,,,
,,5bbe5b4eea58cc000153af4e,65af5acbb940720aef4cd746,2024-01-23_06h43.51.970,bars,2023.2.3,Win32,58.47953216,657b66ea316d21385b68909f,,,,,,,,,,,719.2631,720.2672,,,720.7613,721.0109,,103,103,,,,,,,,,,,,,,,,bars/011.png,bars/mask009.png,,,,,,,,,,,,0,2,,,,,,,2,0,2,0,,,,,,,,,,,720.2673,720.7612,721.0109,724.1664,space,3.1482,,724.1664,57,18,725.1581,725.1583,726.0594,space,0.8625,,0,46,46,46,1,160,85,,,,,,,,
,,5bbe5b4eea58cc000153af4e,65af5acbb940720aef4cd746,2024-01-23_06h43.51.970,bars,2023.2.3,Win32,58.47953216,657b66ea316d21385b68909f,,,,,,,,,,,726.0603,727.0583,,,727.548,727.7906,,122,122,,,,,,,,,,,,,,,,bars/001.png,bars/mask008.png,,,,,,,,,,,,2,1,,,,,,,4,2,3,2,,,,,,,,,,,727.0584,727.5479,727.7907,730.993,space,3.1814,,730.993,8,37,731.9881,731.9881,732.7938,space,0.782,,0,47,47,47,1,130,85,,,,,,,,
,,5bbe5b4eea58cc000153af4e,65af5acbb940720aef4cd746,2024-01-23_06h43.51.970,bars,2023.2.3,Win32,58.47953216,657b66ea316d21385b68909f,,,,,,,,,,,732.7942,733.7883,,,734.2794,734.5283,,81,81,,,,,,,,,,,,,,,,bars/028.png,bars/mask004.png,,,,,,,,,,,,0,1,,,,,,,6,0,5,2,,,,,,,,,,,733.7884,734.2794,734.5283,739.2696,space,4.7243,,739.2696,36,39,740.2692,740.2694,741.356,space,1.0659,,0,48,48,48,1,45,120,,,,,,,,
,,5bbe5b4eea58cc000153af4e,65af5acbb940720aef4cd746,2024-01-23_06h43.51.970,bars,2023.2.3,Win32,58.47953216,657b66ea316d21385b68909f,,,,,,,,,,,741.3563,742.3569,,,742.8514,743.1013,,44,44,,,,,,,,,,,,,,,,bars/043.png,bars/mask006.png,,,,,,,,,,,,2,1,,,,,,,4,0,4,1,,,,,,,,,,,742.357,742.8513,743.1015,746.6327,space,3.5105,,746.6327,14,86,747.6385,747.6386,748.3324,space,0.6578,,0,49,49,49,1,30,130,,,,,,,,
,,5bbe5b4eea58cc000153af4e,65af5acbb940720aef4cd746,2024-01-23_06h43.51.970,bars,2023.2.3,Win32,58.47953216,657b66ea316d21385b68909f,,,,,,,,,,,,,,,,,,,,,,,,,,,,,,,,,,,,,,,,,,,,,,,,,,,,,,,,,,,,,,,,,,,,,,,,,,,,,,,,,,,,,,,,,,,,,748.3338,808.324,0,0,0,2,1,sequence_tables/blk040.csv
,,5bbe5b4eea58cc000153af4e,65af5acbb940720aef4cd746,2024-01-23_06h43.51.970,bars,2023.2.3,Win32,58.47953216,657b66ea316d21385b68909f,,,,,,,,,,,899.965,900.9503,,,901.4495,901.6986,,32,212,,,,,,,,,,,,,,,,bars/007.png,bars/mask006.png,,,,,,,,,,,,1,2,,,,,,,0,3,0,3,,,,,,808.3401,899.9397,space,91.5926,,900.9505,901.4493,901.6986,906.4304,space,4.7176,,906.4305,37,23,907.4298,907.4298,907.4479,,,,0,0,0,0,1,175,55,,,,,,,,
,,5bbe5b4eea58cc000153af4e,65af5acbb940720aef4cd746,2024-01-23_06h43.51.970,bars,2023.2.3,Win32,58.47953216,657b66ea316d21385b68909f,,,,,,,,,,,907.4482,908.4457,,,908.9456,909.1955,,43,43,,,,,,,,,,,,,,,,bars/028.png,bars/mask004.png,,,,,,,,,,,,0,1,,,,,,,2,5,0,6,,,,,,,,,,,908.4458,908.9456,909.1956,915.5774,space,6.3668,,915.5775,2,77,916.5761,916.5763,916.5986,,,,0,1,1,1,1,45,120,,,,,,,,
,,5bbe5b4eea58cc000153af4e,65af5acbb940720aef4cd746,2024-01-23_06h43.51.970,bars,2023.2.3,Win32,58.47953216,657b66ea316d21385b68909f,,,,,,,,,,,916.5989,917.5929,,,918.0917,918.3429,,130,130,,,,,,,,,,,,,,,,bars/024.png,bars/mask003.png,,,,,,,,,,,,0,1,,,,,,,0,7,0,6,,,,,,,,,,,917.5929,918.0917,918.3429,923.4973,space,5.1467,,923.4974,10,40,924.4894,924.4894,924.5071,,,,0,2,2,2,1,120,170,,,,,,,,
,,5bbe5b4eea58cc000153af4e,65af5acbb940720aef4cd746,2024-01-23_06h43.51.970,bars,2023.2.3,Win32,58.47953216,657b66ea316d21385b68909f,,,,,,,,,,,924.5074,925.5063,,,926.0057,926.2559,,106,106,,,,,,,,,,,,,,,,bars/026.png,bars/mask005.png,,,,,,,,,,,,2,2,,,,,,,2,5,2,5,,,,,,,,,,,925.5064,926.0057,926.2559,929.2785,space,3.0003,,929.2786,71,21,930.2763,930.2764,930.2936,,,,0,3,3,3,1,35,85,,,,,,,,
,,5bbe5b4eea58cc000153af4e,65af5acbb940720aef4cd746,2024-01-23_06h43.51.970,bars,2023.2.3,Win32,58.47953216,657b66ea316d21385b68909f,,,,,,,,,,,930.2939,931.2871,,,931.7926,932.0404,,137,137,,,,,,,,,,,,,,,,bars/005.png,bars/mask006.png,,,,,,,,,,,,6,2,,,,,,,0,7,0,7,,,,,,,,,,,931.2872,931.7925,932.0404,938.6905,space,6.6312,,938.6905,53,3,939.6894,939.6894,939.7053,,,,0,4,4,4,1,10,140,,,,,,,,
,,5bbe5b4eea58cc000153af4e,65af5acbb940720aef4cd746,2024-01-23_06h43.51.970,bars,2023.2.3,Win32,58.47953216,657b66ea316d21385b68909f,,,,,,,,,,,939.7056,940.699,,,941.1996,941.4548,,68,68,,,,,,,,,,,,,,,,bars/029.png,bars/mask007.png,,,,,,,,,,,,1,1,,,,,,,2,5,3,5,,,,,,,,,,,940.6991,941.1996,941.4548,945.5217,space,4.0494,,945.5218,22,23,946.5198,946.5199,946.5373,,,,0,5,5,5,1,90,45,,,,,,,,
,,5bbe5b4eea58cc000153af4e,65af5acbb940720aef4cd746,2024-01-23_06h43.51.970,bars,2023.2.3,Win32,58.47953216,657b66ea316d21385b68909f,,,,,,,,,,,946.5376,947.529,,,948.0356,948.2791,,37,37,,,,,,,,,,,,,,,,bars/033.png,bars/mask003.png,,,,,,,,,,,,0,1,,,,,,,0,3,0,2,,,,,,,,,,,947.529,948.0355,948.2792,955.1596,space,6.8489,,955.1598,12,62,956.1641,956.1641,956.1835,,,,0,6,6,6,1,25,155,,,,,,,,
,,5bbe5b4eea58cc000153af4e,65af5acbb940720aef4cd746,2024-01-23_06h43.51.970,bars,2023.2.3,Win32,58.47953216,657b66ea316d21385b68909f,,,,,,,,,,,956.1838,957.1809,,,957.6808,957.9258,,119,119,,,,,,,,,,,,,,,,bars/028.png,bars/mask006.png,,,,,,,,,,,,5,2,,,,,,,2,5,3,5,,,,,,,,,,,957.1809,957.6808,957.9259,960.5152,space,2.5683,,960.5153,74,1,961.5129,961.5129,961.531,,,,0,7,7,7,1,45,120,,,,,,,,
,,5bbe5b4eea58cc000153af4e,65af5acbb940720aef4cd746,2024-01-23_06h43.51.970,bars,2023.2.3,Win32,58.47953216,657b66ea316d21385b68909f,,,,,,,,,,,961.5312,962.5231,,,963.0286,963.2782,,83,83,,,,,,,,,,,,,,,,bars/021.png,bars/mask005.png,,,,,,,,,,,,5,2,,,,,,,0,7,0,8,,,,,,,,,,,962.5233,963.0285,963.2783,967.1284,space,3.8333,,967.1284,72,13,968.1257,968.1257,968.1428,,,,0,8,8,8,1,155,70,,,,,,,,
,,5bbe5b4eea58cc000153af4e,65af5acbb940720aef4cd746,2024-01-23_06h43.51.970,bars,2023.2.3,Win32,58.47953216,657b66ea316d21385b68909f,,,,,,,,,,,968.1431,969.1416,,,969.6368,969.887,,125,125,,,,,,,,,,,,,,,,bars/033.png,bars/mask003.png,,,,,,,,,,,,0,2,,,,,,,2,5,3,5,,,,,,,,,,,969.1416,969.6368,969.8871,975.575,space,5.6801,,975.5751,80,30,976.5672,976.5672,976.5852,,,,0,9,9,9,1,25,155,,,,,,,,
,,5bbe5b4eea58cc000153af4e,65af5acbb940720aef4cd746,2024-01-23_06h43.51.970,bars,2023.2.3,Win32,58.47953216,657b66ea316d21385b68909f,,,,,,,,,,,976.5856,977.5832,,,978.083,978.3389,,71,71,,,,,,,,,,,,,,,,bars/034.png,bars/mask002.png,,,,,,,,,,,,6,2,,,,,,,0,7,1,7,,,,,,,,,,,977.5832,978.083,978.339,982.6547,space,4.3083,,982.6548,54,6,983.6478,983.6479,983.6639,,,,0,10,10,10,1,125,65,,,,,,,,
,,5bbe5b4eea58cc000153af4e,65af5acbb940720aef4cd746,2024-01-23_06h43.51.970,bars,2023.2.3,Win32,58.47953216,657b66ea316d21385b68909f,,,,,,,,,,,983.6643,984.6689,,,985.1628,985.4128,,157,157,,,,,,,,,,,,,,,,bars/013.png,bars/mask001.png,,,,,,,,,,,,0,2,,,,,,,0,9,1,10,,,,,,,,,,,984.6689,985.1627,985.4128,989.2023,space,3.7662,,989.2023,82,33,990.2004,990.2005,990.2163,,,,0,11,11,11,1,75,10,,,,,,,,
,,5bbe5b4eea58cc000153af4e,65af5acbb940720aef4cd746,2024-01-23_06h43.51.970,bars,2023.2.3,Win32,58.47953216,657b66ea316d21385b68909f,,,,,,,,,,,990.2165,991.2111,,,991.7104,991.9607,,61,61,,,,,,,,,,,,,,,,bars/029.png,bars/mask007.png,,,,,,,,,,,,3,2,,,,,,,2,7,2,7,,,,,,,,,,,991.2112,991.7104,991.9607,998.0645,space,6.0821,,998.0646,29,16,999.0578,999.0579,999.0745,,,,0,12,12,12,1,90,45,,,,,,,,
,,5bbe5b4eea58cc000153af4e,65af5acbb940720aef4cd746,2024-01-23_06h43.51.970,bars,2023.2.3,Win32,58.47953216,657b66ea316d21385b68909f,,,,,,,,,,,999.0747,1000.0738,,,1000.5748,1000.8298,,25,25,,,,,,,,,,,,,,,,bars/022.png,bars/mask002.png,,,,,,,,,,,,4,2,,,,,,,4,5,3,5,,,,,,,,,,,1000.0738,1000.5747,1000.8298,1006.8445,space,5.9981,,1006.8445,70,5,1007.8422,1007.8423,1007.8578,,,,0,13,13,13,1,95,20,,,,,,,,
,,5bbe5b4eea58cc000153af4e,65af5acbb940720aef4cd746,2024-01-23_06h43.51.970,bars,2023.2.3,Win32,58.47953216,657b66ea316d21385b68909f,,,,,,,,,,,1007.8581,1008.8534,,,1009.3592,1009.6031,,75,75,,,,,,,,,,,,,,,,bars/046.png,bars/mask003.png,,,,,,,,,,,,2,2,,,,,,,2,3,1,3,,,,,,,,,,,1008.8534,1009.3592,1009.6033,1013.7414,space,4.1163,,1013.7415,80,10,1014.7341,1014.7342,1014.7524,,,,0,14,14,14,1,155,85,,,,,,,,
,,5bbe5b4eea58cc000153af4e,65af5acbb940720aef4cd746,2024-01-23_06h43.51.970,bars,2023.2.3,Win32,58.47953216,657b66ea316d21385b68909f,,,,,,,,,,,1014.7528,1015.7569,,,1016.2503,1016.5005,,23,203,,,,,,,,,,,,,,,,bars/035.png,bars/mask007.png,,,,,,,,,,,,0,1,,,,,,,4,1,3,3,,,,,,,,,,,1015.757,1016.2503,1016.5006,1024.0206,space,7.5001,,1024.0207,28,37,1025.0193,1025.0193,1025.0374,,,,0,15,15,15,1,175,60,,,,,,,,
,,5bbe5b4eea58cc000153af4e,65af5acbb940720aef4cd746,2024-01-23_06h43.51.970,bars,2023.2.3,Win32,58.47953216,657b66ea316d21385b68909f,,,,,,,,,,,1025.0376,1026.0295,,,1026.5287,1026.779,,102,102,,,,,,,,,,,,,,,,bars/044.png,bars/mask001.png,,,,,,,,,,,,0,1,,,,,,,6,0,5,0,,,,,,,,,,,1026.0296,1026.5286,1026.779,1031.244,space,4.4576,,1031.2441,27,53,1032.2437,1032.2438,1032.2579,,,,0,16,16,16,1,75,155,,,,,,,,
,,5bbe5b4eea58cc000153af4e,65af5acbb940720aef4cd746,2024-01-23_06h43.51.970,bars,2023.2.3,Win32,58.47953216,657b66ea316d21385b68909f,,,,,,,,,,,1032.2581,1033.259,,,1033.7596,1034.0093,,132,132,,,,,,,,,,,,,,,,bars/029.png,bars/mask006.png,,,,,,,,,,,,0,1,,,,,,,4,2,5,2,,,,,,,,,,,1033.2591,1033.7595,1034.0093,1036.5418,space,2.5198,,1036.5418,42,87,1037.5417,1037.5417,1037.559,,,,0,17,17,17,1,90,45,,,,,,,,
,,5bbe5b4eea58cc000153af4e,65af5acbb940720aef4cd746,2024-01-23_06h43.51.970,bars,2023.2.3,Win32,58.47953216,657b66ea316d21385b68909f,,,,,,,,,,,1037.5593,1038.5567,,,1039.0574,1039.3066,,17,197,,,,,,,,,,,,,,,,bars/012.png,bars/mask009.png,,,,,,,,,,,,4,2,,,,,,,6,4,7,4,,,,,,,,,,,1038.5568,1039.0574,1039.3066,1044.521,space,5.1979,,1044.5211,73,2,1045.5211,1045.5212,1045.5375,,,,0,18,18,18,1,90,15,,,,,,,,
,,5bbe5b4eea58cc000153af4e,65af5acbb940720aef4cd746,2024-01-23_06h43.51.970,bars,2023.2.3,Win32,58.47953216,657b66ea316d21385b68909f,,,,,,,,,,,1045.5378,1046.5362,,,1047.0362,1047.2866,,80,80,,,,,,,,,,,,,,,,bars/001.png,bars/mask008.png,,,,,,,,,,,,3,2,,,,,,,4,2,6,3,,,,,,,,,,,1046.5362,1047.0362,1047.2866,1051.6686,space,4.3701,,1051.6688,50,5,1052.6679,1052.6679,1052.6825,,,,0,19,19,19,1,130,85,,,,,,,,
,,5bbe5b4eea58cc000153af4e,65af5acbb940720aef4cd746,2024-01-23_06h43.51.970,bars,2023.2.3,Win32,58.47953216,657b66ea316d21385b68909f,,,,,,,,,,,1052.6827,1053.6846,,,1054.1839,1054.4334,,154,154,,,,,,,,,,,,,,,,bars/048.png,bars/mask004.png,,,,,,,,,,,,1,2,,,,,,,6,4,8,4,,,,,,,,,,,1053.6846,1054.1839,1054.4335,1057.05,space,2.6023,,1057.05,76,21,1058.0484,1058.0484,1058.0649,,,,0,20,20,20,1,50,175,,,,,,,,
,,5bbe5b4eea58cc000153af4e,65af5acbb940720aef4cd746,2024-01-23_06h43.51.970,bars,2023.2.3,Win32,58.47953216,657b66ea316d21385b68909f,,,,,,,,,,,1058.0652,1059.0647,,,1059.565,1059.8137,,103,103,,,,,,,,,,,,,,,,bars/021.png,bars/mask009.png,,,,,,,,,,,,0,2,,,,,,,8,6,9,6,,,,,,,,,,,1059.065,1059.5649,1059.8139,1064.0126,space,4.1921,,1064.0127,52,33,1065.0119,1065.0119,1065.0284,,,,0,21,21,21,1,155,70,,,,,,,,
,,5bbe5b4eea58cc000153af4e,65af5acbb940720aef4cd746,2024-01-23_06h43.51.970,bars,2023.2.3,Win32,58.47953216,657b66ea316d21385b68909f,,,,,,,,,,,1065.0288,1066.0285,,,1066.5286,1066.7778,,71,251,,,,,,,,,,,,,,,,bars/040.png,bars/mask006.png,,,,,,,,,,,,0,2,,,,,,,10,8,9,8,,,,,,,,,,,1066.0286,1066.5285,1066.778,1076.2408,space,9.452,,1076.2408,69,66,1077.2398,1077.2398,1077.2538,,,,0,22,22,22,1,140,5,,,,,,,,
,,5bbe5b4eea58cc000153af4e,65af5acbb940720aef4cd746,2024-01-23_06h43.51.970,bars,2023.2.3,Win32,58.47953216,657b66ea316d21385b68909f,,,,,,,,,,,1077.2541,1078.2569,,,1078.7562,1079.0063,,18,18,,,,,,,,,,,,,,,,bars/004.png,bars/mask003.png,,,,,,,,,,,,5,1,,,,,,,8,10,7,10,,,,,,,,,,,1078.2569,1078.7561,1079.0064,1085.7872,space,6.7644,,1085.7875,7,73,1086.7863,1086.7864,1086.8037,,,,0,23,23,23,1,25,125,,,,,,,,
,,5bbe5b4eea58cc000153af4e,65af5acbb940720aef4cd746,2024-01-23_06h43.51.970,bars,2023.2.3,Win32,58.47953216,657b66ea316d21385b68909f,,,,,,,,,,,1086.8041,1087.8019,,,1088.3022,1088.5516,,42,42,,,,,,,,,,,,,,,,bars/004.png,bars/mask007.png,,,,,,,,,,,,4,1,,,,,,,10,8,10,8,,,,,,,,,,,1087.8019,1088.3021,1088.5516,1091.3847,space,2.8256,,1091.3848,17,83,1092.3838,1092.3839,1092.3979,,,,0,24,24,24,1,25,125,,,,,,,,
,,5bbe5b4eea58cc000153af4e,65af5acbb940720aef4cd746,2024-01-23_06h43.51.970,bars,2023.2.3,Win32,58.47953216,657b66ea316d21385b68909f,,,,,,,,,,,1092.3981,1093.3994,,,1093.8998,1094.1502,,75,75,,,,,,,,,,,,,,,,bars/029.png,bars/mask001.png,,,,,,,,,,,,5,1,,,,,,,8,6,10,6,,,,,,,,,,,1093.3995,1093.8998,1094.1503,1096.9659,space,2.804,,1096.966,15,30,1097.9652,1097.9653,1097.984,,,,0,25,25,25,1,90,45,,,,,,,,
,,5bbe5b4eea58cc000153af4e,65af5acbb940720aef4cd746,2024-01-23_06h43.51.970,bars,2023.2.3,Win32,58.47953216,657b66ea316d21385b68909f,,,,,,,,,,,1097.9843,1098.9804,,,1099.4813,1099.7316,,152,152,,,,,,,,,,,,,,,,bars/038.png,bars/mask005.png,,,,,,,,,,,,3,1,,,,,,,6,4,6,4,,,,,,,,,,,1098.9805,1099.4813,1099.7317,1102.5301,space,2.7879,,1102.5303,13,82,1103.5295,1103.5295,1103.5457,,,,0,26,26,26,1,165,70,,,,,,,,
,,5bbe5b4eea58cc000153af4e,65af5acbb940720aef4cd746,2024-01-23_06h43.51.970,bars,2023.2.3,Win32,58.47953216,657b66ea316d21385b68909f,,,,,,,,,,,1103.5461,1104.5456,,,1105.0459,1105.2954,,18,18,,,,,,,,,,,,,,,,bars/023.png,bars/mask001.png,,,,,,,,,,,,7,1,,,,,,,8,6,8,7,,,,,,,,,,,1104.5457,1105.0458,1105.2954,1109.426,space,4.1167,,1109.4261,2,83,1110.4262,1110.4263,1110.4436,,,,0,27,27,27,1,20,115,,,,,,,,
,,5bbe5b4eea58cc000153af4e,65af5acbb940720aef4cd746,2024-01-23_06h43.51.970,bars,2023.2.3,Win32,58.47953216,657b66ea316d21385b68909f,,,,,,,,,,,1110.4439,1111.4424,,,1111.9416,1112.1921,,139,139,,,,,,,,,,,,,,,,bars/036.png,bars/mask002.png,,,,,,,,,,,,6,1,,,,,,,6,8,8,10,,,,,,,,,,,1111.4427,1111.9416,1112.1921,1116.0726,space,3.8641,,1116.0727,6,61,1117.074,1117.074,1117.0896,,,,0,28,28,28,1,145,20,,,,,,,,
,,5bbe5b4eea58cc000153af4e,65af5acbb940720aef4cd746,2024-01-23_06h43.51.970,bars,2023.2.3,Win32,58.47953216,657b66ea316d21385b68909f,,,,,,,,,,,1117.0899,1118.0896,,,1118.5895,1118.8388,,102,102,,,,,,,,,,,,,,,,bars/022.png,bars/mask009.png,,,,,,,,,,,,5,1,,,,,,,8,6,7,6,,,,,,,,,,,1118.0896,1118.5894,1118.8388,1123.0201,space,4.1727,,1123.0201,7,82,1124.0199,1124.02,1124.0393,,,,0,29,29,29,1,95,20,,,,,,,,
,,5bbe5b4eea58cc000153af4e,65af5acbb940720aef4cd746,2024-01-23_06h43.51.970,bars,2023.2.3,Win32,58.47953216,657b66ea316d21385b68909f,,,,,,,,,,,1124.0395,1125.0366,,,1125.5359,1125.7858,,11,191,,,,,,,,,,,,,,,,bars/005.png,bars/mask008.png,,,,,,,,,,,,10,1,,,,,,,10,8,10,8,,,,,,,,,,,1125.0368,1125.5358,1125.7858,1128.9188,space,3.1186,,1128.9189,1,51,1129.9179,1129.918,1129.9359,,,,0,30,30,30,1,10,140,,,,,,,,
,,5bbe5b4eea58cc000153af4e,65af5acbb940720aef4cd746,2024-01-23_06h43.51.970,bars,2023.2.3,Win32,58.47953216,657b66ea316d21385b68909f,,,,,,,,,,,1129.9361,1130.9344,,,1131.4343,1131.6835,,18,198,,,,,,,,,,,,,,,,bars/004.png,bars/mask009.png,,,,,,,,,,,,5,1,,,,,,,8,10,6,9,,,,,,,,,,,1130.9344,1131.4343,1131.6836,1134.6666,space,2.9659,,1134.6667,7,73,1135.6649,1135.665,1135.683,,,,0,31,31,31,1,25,125,,,,,,,,
,,5bbe5b4eea58cc000153af4e,65af5acbb940720aef4cd746,2024-01-23_06h43.51.970,bars,2023.2.3,Win32,58.47953216,657b66ea316d21385b68909f,,,,,,,,,,,1135.6834,1136.6818,,,1137.1816,1137.431,,81,81,,,,,,,,,,,,,,,,bars/025.png,bars/mask006.png,,,,,,,,,,,,1,1,,,,,,,6,8,6,8,,,,,,,,,,,1136.682,1137.1815,1137.4311,1140.3959,space,2.9493,,1140.396,24,41,1141.3965,1141.3966,1141.4141,,,,0,32,32,32,1,105,40,,,,,,,,
,,5bbe5b4eea58cc000153af4e,65af5acbb940720aef4cd746,2024-01-23_06h43.51.970,bars,2023.2.3,Win32,58.47953216,657b66ea316d21385b68909f,,,,,,,,,,,1141.4143,1142.4123,,,1142.9123,1143.1622,,52,52,,,,,,,,,,,,,,,,bars/006.png,bars/mask006.png,,,,,,,,,,,,3,1,,,,,,,8,10,8,10,,,,,,,,,,,1142.4123,1142.9122,1143.1622,1148.5266,space,5.3539,,1148.5267,17,48,1149.5262,1149.5263,1149.5436,,,,0,33,33,33,1,35,100,,,,,,,,
,,5bbe5b4eea58cc000153af4e,65af5acbb940720aef4cd746,2024-01-23_06h43.51.970,bars,2023.2.3,Win32,58.47953216,657b66ea316d21385b68909f,,,,,,,,,,,1149.5439,1150.5426,,,1151.0423,1151.2918,,136,136,,,,,,,,,,,,,,,,bars/036.png,bars/mask000.png,,,,,,,,,,,,4,1,,,,,,,6,8,6,10,,,,,,,,,,,1150.5426,1151.0422,1151.2922,1154.1074,space,2.8008,,1154.1075,9,64,1155.1074,1155.1074,1155.124,,,,0,34,34,34,1,145,20,,,,,,,,
,,5bbe5b4eea58cc000153af4e,65af5acbb940720aef4cd746,2024-01-23_06h43.51.970,bars,2023.2.3,Win32,58.47953216,657b66ea316d21385b68909f,,,,,,,,,,,1155.1243,1156.1238,,,1156.6232,1156.8721,,135,135,,,,,,,,,,,,,,,,bars/036.png,bars/mask009.png,,,,,,,,,,,,3,1,,,,,,,4,6,4,6,,,,,,,,,,,1156.1238,1156.6232,1156.8721,1160.6876,space,3.7999,,1160.6876,10,65,1161.6867,1161.6868,1161.7034,,,,0,35,35,35,1,145,20,,,,,,,,
,,5bbe5b4eea58cc000153af4e,65af5acbb940720aef4cd746,2024-01-23_06h43.51.970,bars,2023.2.3,Win32,58.47953216,657b66ea316d21385b68909f,,,,,,,,,,,1161.7038,1162.7032,,,1163.2034,1163.4529,,98,98,,,,,,,,,,,,,,,,bars/021.png,bars/mask000.png,,,,,,,,,,,,0,2,,,,,,,2,4,2,4,,,,,,,,,,,1162.7033,1163.2033,1163.4532,1167.2176,space,3.7482,,1167.2177,57,28,1168.2169,1168.2169,1168.2319,,,,0,36,36,36,1,155,70,,,,,,,,
,,5bbe5b4eea58cc000153af4e,65af5acbb940720aef4cd746,2024-01-23_06h43.51.970,bars,2023.2.3,Win32,58.47953216,657b66ea316d21385b68909f,,,,,,,,,,,1168.2321,1169.2332,,,1169.733,1169.9828,,42,222,,,,,,,,,,,,,,,,bars/000.png,bars/mask002.png,,,,,,,,,,,,4,1,,,,,,,4,6,4,4,,,,,,,,,,,1169.2332,1169.733,1169.9828,1174.648,space,4.6529,,1174.6481,2,77,1175.6481,1175.6482,1175.6661,,,,0,37,37,37,1,40,145,,,,,,,,
,,5bbe5b4eea58cc000153af4e,65af5acbb940720aef4cd746,2024-01-23_06h43.51.970,bars,2023.2.3,Win32,58.47953216,657b66ea316d21385b68909f,,,,,,,,,,,1175.6663,1176.6639,,,1177.1644,1177.414,,147,147,,,,,,,,,,,,,,,,bars/034.png,bars/mask003.png,,,,,,,,,,,,0,1,,,,,,,2,8,1,7,,,,,,,,,,,1176.664,1177.1644,1177.4141,1180.5124,space,3.0823,,1180.5125,22,82,1181.5122,1181.5123,1181.5285,,,,0,38,38,38,1,125,65,,,,,,,,
,,5bbe5b4eea58cc000153af4e,65af5acbb940720aef4cd746,2024-01-23_06h43.51.970,bars,2023.2.3,Win32,58.47953216,657b66ea316d21385b68909f,,,,,,,,,,,1181.5289,1182.5293,,,1183.0278,1183.2795,,43,43,,,,,,,,,,,,,,,,bars/005.png,bars/mask008.png,,,,,,,,,,,,0,1,,,,,,,4,10,5,10,,,,,,,,,,,1182.5294,1183.0277,1183.2795,1187.2828,space,3.9966,,1187.2829,33,83,1188.2761,1188.2762,1188.2941,,,,0,39,39,39,1,10,140,,,,,,,,
,,5bbe5b4eea58cc000153af4e,65af5acbb940720aef4cd746,2024-01-23_06h43.51.970,bars,2023.2.3,Win32,58.47953216,657b66ea316d21385b68909f,,,,,,,,,,,1188.2945,1189.2925,,,1189.7815,1190.029,,12,12,,,,,,,,,,,,,,,,bars/040.png,bars/mask006.png,,,,,,,,,,,,5,2,,,,,,,6,8,7,7,,,,,,,,,,,1189.2926,1189.7815,1190.0291,1191.3647,space,1.317,,1191.3648,52,7,1192.3632,1192.3632,1192.3663,,,,0,40,40,40,1,140,5,,,,,,,,
,,5bbe5b4eea58cc000153af4e,65af5acbb940720aef4cd746,2024-01-23_06h43.51.970,bars,2023.2.3,Win32,58.47953216,657b66ea316d21385b68909f,,,,,,,,,,,1192.3667,1193.3632,,,1193.8566,1194.1119,,101,101,,,,,,,,,,,,,,,,bars/018.png,bars/mask002.png,,,,,,,,,,,,4,2,,,,,,,4,6,5,7,,,,,,,,,,,1193.3633,1193.8565,1194.112,1197.5619,space,3.4337,,1197.562,49,11,1198.5544,1198.5546,1198.5727,,,,0,41,41,41,1,150,90,,,,,,,,
,,5bbe5b4eea58cc000153af4e,65af5acbb940720aef4cd746,2024-01-23_06h43.51.970,bars,2023.2.3,Win32,58.47953216,657b66ea316d21385b68909f,,,,,,,,,,,1198.573,1199.5706,,,1200.0717,1200.3204,,65,65,,,,,,,,,,,,,,,,bars/035.png,bars/mask006.png,,,,,,,,,,,,8,2,,,,,,,6,8,6,9,,,,,,,,,,,1199.5707,1200.0715,1200.3204,1205.119,space,4.7688,,1205.1191,70,5,1206.1242,1206.1242,1206.1396,,,,0,42,42,42,1,175,60,,,,,,,,
,,5bbe5b4eea58cc000153af4e,65af5acbb940720aef4cd746,2024-01-23_06h43.51.970,bars,2023.2.3,Win32,58.47953216,657b66ea316d21385b68909f,,,,,,,,,,,1206.1399,1207.1344,,,1207.6396,1207.8842,,126,126,,,,,,,,,,,,,,,,bars/028.png,bars/mask004.png,,,,,,,,,,,,6,2,,,,,,,8,6,9,7,,,,,,,,,,,1207.1344,1207.6394,1207.8843,1210.5498,space,2.6349,,1210.5499,81,6,1211.539,1211.539,1211.555,,,,0,43,43,43,1,45,120,,,,,,,,
,,5bbe5b4eea58cc000153af4e,65af5acbb940720aef4cd746,2024-01-23_06h43.51.970,bars,2023.2.3,Win32,58.47953216,657b66ea316d21385b68909f,,,,,,,,,,,1211.5552,1212.5482,,,1213.0489,1213.2885,,125,-55,,,,,,,,,,,,,,,,bars/023.png,bars/mask004.png,,,,,,,,,,,,7,2,,,,,,,6,8,5,10,,,,,,,,,,,1212.5483,1213.0488,1213.2885,1220.3128,space,7.0004,,1220.3129,75,10,1221.3115,1221.3116,1221.3286,,,,0,44,44,44,1,20,115,,,,,,,,
,,5bbe5b4eea58cc000153af4e,65af5acbb940720aef4cd746,2024-01-23_06h43.51.970,bars,2023.2.3,Win32,58.47953216,657b66ea316d21385b68909f,,,,,,,,,,,1221.3288,1222.333,,,1222.8278,1223.0776,,28,208,,,,,,,,,,,,,,,,bars/032.png,bars/mask004.png,,,,,,,,,,,,7,2,,,,,,,4,10,4,9,,,,,,,,,,,1222.333,1222.8276,1223.0776,1228.2989,space,5.1987,,1228.299,83,8,1229.2972,1229.2972,1229.3134,,,,0,45,45,45,1,125,20,,,,,,,,
,,5bbe5b4eea58cc000153af4e,65af5acbb940720aef4cd746,2024-01-23_06h43.51.970,bars,2023.2.3,Win32,58.47953216,657b66ea316d21385b68909f,,,,,,,,,,,1229.3137,1230.3081,,,1230.7963,1231.0473,,126,126,,,,,,,,,,,,,,,,bars/043.png,bars/mask004.png,,,,,,,,,,,,8,2,,,,,,,2,8,3,9,,,,,,,,,,,1230.3081,1230.7963,1231.0474,1237.4043,space,6.3344,,1237.4045,84,4,1238.4044,1238.4045,1238.4218,,,,0,46,46,46,1,30,130,,,,,,,,
,,5bbe5b4eea58cc000153af4e,65af5acbb940720aef4cd746,2024-01-23_06h43.51.970,bars,2023.2.3,Win32,58.47953216,657b66ea316d21385b68909f,,,,,,,,,,,1238.4221,1239.4207,,,1239.909,1240.1527,,146,146,,,,,,,,,,,,,,,,bars/016.png,bars/mask002.png,,,,,,,,,,,,3,2,,,,,,,4,6,4,9,,,,,,,,,,,1239.4208,1239.9089,1240.1527,1244.8073,space,4.631,,1244.8074,74,19,1245.8003,1245.8005,1245.8156,,,,0,47,47,47,1,40,165,,,,,,,,
,,5bbe5b4eea58cc000153af4e,65af5acbb940720aef4cd746,2024-01-23_06h43.51.970,bars,2023.2.3,Win32,58.47953216,657b66ea316d21385b68909f,,,,,,,,,,,1245.8159,1246.8072,,,1247.3069,1247.5566,,140,140,,,,,,,,,,,,,,,,bars/034.png,bars/mask006.png,,,,,,,,,,,,1,1,,,,,,,2,8,1,7,,,,,,,,,,,1246.8072,1247.3068,1247.5567,1249.8551,space,2.2915,,1249.8551,15,75,1250.853,1250.8531,1250.8716,,,,0,48,48,48,1,125,65,,,,,,,,
,,5bbe5b4eea58cc000153af4e,65af5acbb940720aef4cd746,2024-01-23_06h43.51.970,bars,2023.2.3,Win32,58.47953216,657b66ea316d21385b68909f,,,,,,,,,,,1250.8719,1251.8705,,,1252.3647,1252.6037,,150,-30,,,,,,,,,,,,,,,,bars/047.png,bars/mask009.png,,,,,,,,,,,,0,1,,,,,,,0,6,0,6,,,,,,,,,,,1251.8706,1252.3646,1252.6038,1256.6862,space,4.0649,,1256.6863,45,80,1257.6795,1257.6796,1257.6968,,,,0,49,49,49,1,15,70,,,,,,,,
,,5bbe5b4eea58cc000153af4e,65af5acbb940720aef4cd746,2024-01-23_06h43.51.970,bars,2023.2.3,Win32,58.47953216,657b66ea316d21385b68909f,,,,,,,,,,,,,,,,,,,,,,,,,,,,,,,,,,,,,,,,,,,,,,,,,,,,,,,,,,,,,,,,,,,,,,,,,,,,,,,,,,,,,,,,,,,,,1257.6972,1317.6869,0,1,1,1,1,sequence_tables/blk005.csv
,,5bbe5b4eea58cc000153af4e,65af5acbb940720aef4cd746,2024-01-23_06h43.51.970,bars,2023.2.3,Win32,58.47953216,657b66ea316d21385b68909f,,,,,,,,,,,1404.9311,1405.9155,,,1406.4144,1406.6639,,62,62,,,,,,,,,,,,,,,,bars/018.png,bars/mask005.png,,,,,,,,,,,,0,2,,,,,,,9,7,10,7,,,,,,1317.7036,1404.9081,space,87.195,,1405.9156,1406.4143,1406.6641,1410.5798,space,3.9,,1410.5799,88,28,1411.5796,1411.5796,1411.5972,,,,0,0,0,0,1,150,90,,,,,,,,
,,5bbe5b4eea58cc000153af4e,65af5acbb940720aef4cd746,2024-01-23_06h43.51.970,bars,2023.2.3,Win32,58.47953216,657b66ea316d21385b68909f,,,,,,,,,,,1411.5975,1412.5948,,,1413.0961,1413.3454,,79,79,,,,,,,,,,,,,,,,bars/038.png,bars/mask001.png,,,,,,,,,,,,3,2,,,,,,,7,5,7,4,,,,,,,,,,,1412.5949,1413.0961,1413.3455,1416.4099,space,3.0458,,1416.41,86,9,1417.41,1417.41,1417.4247,,,,0,1,1,1,1,165,70,,,,,,,,
,,5bbe5b4eea58cc000153af4e,65af5acbb940720aef4cd746,2024-01-23_06h43.51.970,bars,2023.2.3,Win32,58.47953216,657b66ea316d21385b68909f,,,,,,,,,,,1417.4249,1418.4261,,,1418.9268,1419.1763,,116,116,,,,,,,,,,,,,,,,bars/002.png,bars/mask001.png,,,,,,,,,,,,2,1,,,,,,,5,7,3,7,,,,,,,,,,,1418.4262,1418.9268,1419.1764,1422.9083,space,3.716,,1422.9085,14,31,1423.9074,1423.9075,1423.9248,,,,0,2,2,2,1,130,85,,,,,,,,
,,5bbe5b4eea58cc000153af4e,65af5acbb940720aef4cd746,2024-01-23_06h43.51.970,bars,2023.2.3,Win32,58.47953216,657b66ea316d21385b68909f,,,,,,,,,,,1423.9251,1424.9236,,,1425.4236,1425.6727,,157,-23,,,,,,,,,,,,,,,,bars/046.png,bars/mask004.png,,,,,,,,,,,,6,1,,,,,,,7,5,6,6,,,,,,,,,,,1424.9237,1425.4236,1425.6728,1428.6053,space,2.9208,,1428.6053,2,72,1429.6046,1429.6046,1429.6215,,,,0,3,3,3,1,155,85,,,,,,,,
,,5bbe5b4eea58cc000153af4e,65af5acbb940720aef4cd746,2024-01-23_06h43.51.970,bars,2023.2.3,Win32,58.47953216,657b66ea316d21385b68909f,,,,,,,,,,,1429.6219,1430.6207,,,1431.121,1431.3711,,51,51,,,,,,,,,,,,,,,,bars/033.png,bars/mask009.png,,,,,,,,,,,,1,1,,,,,,,9,7,9,7,,,,,,,,,,,1430.621,1431.121,1431.3711,1435.2856,space,3.8996,,1435.2856,26,76,1436.2854,1436.2854,1436.3022,,,,0,4,4,4,1,25,155,,,,,,,,
,,5bbe5b4eea58cc000153af4e,65af5acbb940720aef4cd746,2024-01-23_06h43.51.970,bars,2023.2.3,Win32,58.47953216,657b66ea316d21385b68909f,,,,,,,,,,,1436.3026,1437.3015,,,1437.8018,1438.0509,,67,247,,,,,,,,,,,,,,,,bars/007.png,bars/mask002.png,,,,,,,,,,,,3,2,,,,,,,7,5,6,5,,,,,,,,,,,1437.3016,1437.8018,1438.051,1442.6502,space,4.5856,,1442.6504,72,12,1443.6485,1443.6486,1443.6658,,,,0,5,5,5,1,175,55,,,,,,,,
,,5bbe5b4eea58cc000153af4e,65af5acbb940720aef4cd746,2024-01-23_06h43.51.970,bars,2023.2.3,Win32,58.47953216,657b66ea316d21385b68909f,,,,,,,,,,,1443.6662,1444.6649,,,1445.1645,1445.4155,,120,120,,,,,,,,,,,,,,,,bars/018.png,bars/mask008.png,,,,,,,,,,,,0,2,,,,,,,5,3,5,3,,,,,,,,,,,1444.665,1445.1644,1445.4155,1451.9286,space,6.4969,,1451.9287,30,30,1452.9288,1452.929,1452.948,,,,0,6,6,6,1,150,90,,,,,,,,
,,5bbe5b4eea58cc000153af4e,65af5acbb940720aef4cd746,2024-01-23_06h43.51.970,bars,2023.2.3,Win32,58.47953216,657b66ea316d21385b68909f,,,,,,,,,,,1452.9483,1453.9446,,,1454.4446,1454.6947,,54,54,,,,,,,,,,,,,,,,bars/042.png,bars/mask006.png,,,,,,,,,,,,1,2,,,,,,,7,1,7,2,,,,,,,,,,,1453.9447,1454.4445,1454.6949,1459.0086,space,4.2917,,1459.0087,89,21,1459.9989,1459.9989,1460.0163,,,,0,7,7,7,1,145,75,,,,,,,,
,,5bbe5b4eea58cc000153af4e,65af5acbb940720aef4cd746,2024-01-23_06h43.51.970,bars,2023.2.3,Win32,58.47953216,657b66ea316d21385b68909f,,,,,,,,,,,1460.0166,1461.0085,,,1461.5142,1461.7579,,94,94,,,,,,,,,,,,,,,,bars/013.png,bars/mask000.png,,,,,,,,,,,,3,1,,,,,,,9,3,9,3,,,,,,,,,,,1461.0085,1461.5141,1461.758,1463.0248,space,1.2375,,1463.0248,19,84,1464.0298,1464.0299,1464.0329,,,,0,8,8,8,1,75,10,,,,,,,,
,,5bbe5b4eea58cc000153af4e,65af5acbb940720aef4cd746,2024-01-23_06h43.51.970,bars,2023.2.3,Win32,58.47953216,657b66ea316d21385b68909f,,,,,,,,,,,1464.0332,1465.0227,,,1465.5231,1465.7722,,112,112,,,,,,,,,,,,,,,,bars/040.png,bars/mask007.png,,,,,,,,,,,,1,1,,,,,,,10,5,10,8,,,,,,,,,,,1465.0228,1465.523,1465.7722,1470.2373,space,4.4394,,1470.2373,28,73,1471.2267,1471.2267,1471.2412,,,,0,9,9,9,1,140,5,,,,,,,,
,,5bbe5b4eea58cc000153af4e,65af5acbb940720aef4cd746,2024-01-23_06h43.51.970,bars,2023.2.3,Win32,58.47953216,657b66ea316d21385b68909f,,,,,,,,,,,1471.2415,1472.2365,,,1472.7249,1472.9695,,52,52,,,,,,,,,,,,,,,,bars/035.png,bars/mask000.png,,,,,,,,,,,,4,2,,,,,,,8,7,7,5,,,,,,,,,,,1472.2367,1472.7249,1472.9695,1477.2515,space,4.2516,,1477.2516,57,8,1478.2559,1478.2559,1478.2736,,,,0,10,10,10,1,175,60,,,,,,,,
,,5bbe5b4eea58cc000153af4e,65af5acbb940720aef4cd746,2024-01-23_06h43.51.970,bars,2023.2.3,Win32,58.47953216,657b66ea316d21385b68909f,,,,,,,,,,,1478.2739,1479.2667,,,1479.767,1480.0065,,106,106,,,,,,,,,,,,,,,,bars/039.png,bars/mask002.png,,,,,,,,,,,,5,2,,,,,,,10,5,10,5,,,,,,,,,,,1479.2669,1479.767,1480.0066,1482.4889,space,2.4652,,1482.489,69,1,1483.482,1483.4821,1483.5004,,,,0,11,11,11,1,175,105,,,,,,,,
,,5bbe5b4eea58cc000153af4e,65af5acbb940720aef4cd746,2024-01-23_06h43.51.970,bars,2023.2.3,Win32,58.47953216,657b66ea316d21385b68909f,,,,,,,,,,,1483.5009,1484.4976,,,1484.9977,1485.2524,,7,7,,,,,,,,,,,,,,,,bars/016.png,bars/mask006.png,,,,,,,,,,,,1,2,,,,,,,10,3,8,2,,,,,,,,,,,1484.4977,1484.9977,1485.2525,1489.187,space,3.9169,,1489.187,33,22,1490.1843,1490.1844,1490.2004,,,,0,12,12,12,1,40,165,,,,,,,,
,,5bbe5b4eea58cc000153af4e,65af5acbb940720aef4cd746,2024-01-23_06h43.51.970,bars,2023.2.3,Win32,58.47953216,657b66ea316d21385b68909f,,,,,,,,,,,1490.2007,1491.195,,,1491.701,1491.9512,,125,125,,,,,,,,,,,,,,,,bars/043.png,bars/mask000.png,,,,,,,,,,,,4,2,,,,,,,8,5,7,5,,,,,,,,,,,1491.1952,1491.7009,1491.9513,1495.5498,space,3.5831,,1495.5499,85,5,1496.5433,1496.5434,1496.5649,,,,0,13,13,13,1,30,130,,,,,,,,
,,5bbe5b4eea58cc000153af4e,65af5acbb940720aef4cd746,2024-01-23_06h43.51.970,bars,2023.2.3,Win32,58.47953216,657b66ea316d21385b68909f,,,,,,,,,,,1496.5653,1497.5585,,,1498.0595,1498.3145,,53,233,,,,,,,,,,,,,,,,bars/035.png,bars/mask006.png,,,,,,,,,,,,5,2,,,,,,,10,7,9,6,,,,,,,,,,,1497.5586,1498.0593,1498.3146,1502.3312,space,3.9997,,1502.3313,58,7,1503.3243,1503.3243,1503.3432,,,,0,14,14,14,1,175,60,,,,,,,,
,,5bbe5b4eea58cc000153af4e,65af5acbb940720aef4cd746,2024-01-23_06h43.51.970,bars,2023.2.3,Win32,58.47953216,657b66ea316d21385b68909f,,,,,,,,,,,1503.3436,1504.3396,,,1504.8435,1505.0889,,145,145,,,,,,,,,,,,,,,,bars/016.png,bars/mask000.png,,,,,,,,,,,,3,2,,,,,,,8,9,9,10,,,,,,,,,,,1504.3397,1504.8434,1505.089,1507.3716,space,2.2589,,1507.3718,75,20,1508.3751,1508.3752,1508.3919,,,,0,15,15,15,1,40,165,,,,,,,,
,,5bbe5b4eea58cc000153af4e,65af5acbb940720aef4cd746,2024-01-23_06h43.51.970,bars,2023.2.3,Win32,58.47953216,657b66ea316d21385b68909f,,,,,,,,,,,1508.3923,1509.3921,,,1509.8931,1510.1371,,70,70,,,,,,,,,,,,,,,,bars/002.png,bars/mask004.png,,,,,,,,,,,,5,2,,,,,,,6,10,6,10,,,,,,,,,,,1509.3921,1509.8931,1510.1372,1514.4847,space,4.3238,,1514.4848,60,15,1515.4843,1515.4843,1515.503,,,,0,16,16,16,1,130,85,,,,,,,,
,,5bbe5b4eea58cc000153af4e,65af5acbb940720aef4cd746,2024-01-23_06h43.51.970,bars,2023.2.3,Win32,58.47953216,657b66ea316d21385b68909f,,,,,,,,,,,1515.5036,1516.5013,,,1517.0003,1517.2388,,43,223,,,,,,,,,,,,,,,,bars/022.png,bars/mask000.png,,,,,,,,,,,,2,2,,,,,,,8,10,8,8,,,,,,,,,,,1516.5014,1517.0003,1517.2389,1523.5875,space,6.3323,,1523.5876,52,23,1524.5869,1524.5869,1524.6041,,,,0,17,17,17,1,95,20,,,,,,,,
,,5bbe5b4eea58cc000153af4e,65af5acbb940720aef4cd746,2024-01-23_06h43.51.970,bars,2023.2.3,Win32,58.47953216,657b66ea316d21385b68909f,,,,,,,,,,,1524.6044,1525.6031,,,1526.0997,1526.3473,,123,-57,,,,,,,,,,,,,,,,bars/044.png,bars/mask006.png,,,,,,,,,,,,0,2,,,,,,,10,10,10,10,,,,,,,,,,,1525.6032,1526.0996,1526.3474,1531.5106,space,5.1401,,1531.5107,48,32,1532.5101,1532.5102,1532.5257,,,,0,18,18,18,1,75,155,,,,,,,,
,,5bbe5b4eea58cc000153af4e,65af5acbb940720aef4cd746,2024-01-23_06h43.51.970,bars,2023.2.3,Win32,58.47953216,657b66ea316d21385b68909f,,,,,,,,,,,1532.5263,1533.5271,,,1534.0267,1534.277,,154,154,,,,,,,,,,,,,,,,bars/042.png,bars/mask002.png,,,,,,,,,,,,6,1,,,,,,,8,10,8,10,,,,,,,,,,,1533.5271,1534.0267,1534.2771,1536.8757,space,2.5821,,1536.8759,9,79,1537.8752,1537.8753,1537.8948,,,,0,19,19,19,1,145,75,,,,,,,,
,,5bbe5b4eea58cc000153af4e,65af5acbb940720aef4cd746,2024-01-23_06h43.51.970,bars,2023.2.3,Win32,58.47953216,657b66ea316d21385b68909f,,,,,,,,,,,1537.8952,1538.8911,,,1539.3915,1539.6415,,106,106,,,,,,,,,,,,,,,,bars/008.png,bars/mask008.png,,,,,,,,,,,,5,1,,,,,,,6,10,6,10,,,,,,,,,,,1538.8912,1539.3915,1539.6416,1543.1569,space,3.4975,,1543.157,4,74,1544.1559,1544.156,1544.172,,,,0,20,20,20,1,110,0,,,,,,,,
,,5bbe5b4eea58cc000153af4e,65af5acbb940720aef4cd746,2024-01-23_06h43.51.970,bars,2023.2.3,Win32,58.47953216,657b66ea316d21385b68909f,,,,,,,,,,,1544.1723,1545.1722,,,1545.672,1545.9222,,17,17,,,,,,,,,,,,,,,,bars/023.png,bars/mask003.png,,,,,,,,,,,,9,1,,,,,,,8,10,10,10,,,,,,,,,,,1545.1724,1545.672,1545.9223,1550.8356,space,4.9053,,1550.8357,3,82,1551.8361,1551.8362,1551.8531,,,,0,21,21,21,1,20,115,,,,,,,,
,,5bbe5b4eea58cc000153af4e,65af5acbb940720aef4cd746,2024-01-23_06h43.51.970,bars,2023.2.3,Win32,58.47953216,657b66ea316d21385b68909f,,,,,,,,,,,1551.8536,1552.8518,,,1553.3517,1553.6016,,107,-73,,,,,,,,,,,,,,,,bars/036.png,bars/mask000.png,,,,,,,,,,,,0,1,,,,,,,6,8,8,8,,,,,,,,,,,1552.8518,1553.3516,1553.6017,1560.2487,space,6.6302,,1560.249,38,87,1561.2487,1561.2488,1561.2672,,,,0,22,22,22,1,145,20,,,,,,,,
,,5bbe5b4eea58cc000153af4e,65af5acbb940720aef4cd746,2024-01-23_06h43.51.970,bars,2023.2.3,Win32,58.47953216,657b66ea316d21385b68909f,,,,,,,,,,,1561.2675,1562.2646,,,1562.7652,1563.0148,,91,91,,,,,,,,,,,,,,,,bars/044.png,bars/mask002.png,,,,,,,,,,,,3,1,,,,,,,8,10,7,9,,,,,,,,,,,1562.2648,1562.7651,1563.0149,1566.4956,space,3.4694,,1566.4957,16,64,1567.4958,1567.4959,1567.5116,,,,0,23,23,23,1,75,155,,,,,,,,
,,5bbe5b4eea58cc000153af4e,65af5acbb940720aef4cd746,2024-01-23_06h43.51.970,bars,2023.2.3,Win32,58.47953216,657b66ea316d21385b68909f,,,,,,,,,,,1567.512,1568.5118,,,1569.011,1569.262,,133,133,,,,,,,,,,,,,,,,bars/017.png,bars/mask008.png,,,,,,,,,,,,4,1,,,,,,,6,10,7,10,,,,,,,,,,,1568.5121,1569.011,1569.262,1571.9604,space,2.691,,1571.9605,12,88,1572.9598,1572.9599,1572.9759,,,,0,24,24,24,1,145,45,,,,,,,,
,,5bbe5b4eea58cc000153af4e,65af5acbb940720aef4cd746,2024-01-23_06h43.51.970,bars,2023.2.3,Win32,58.47953216,657b66ea316d21385b68909f,,,,,,,,,,,1572.9763,1573.9764,,,1574.4765,1574.7255,,141,141,,,,,,,,,,,,,,,,bars/032.png,bars/mask009.png,,,,,,,,,,,,2,1,,,,,,,4,8,4,8,,,,,,,,,,,1573.9767,1574.4764,1574.7255,1577.342,space,2.5998,,1577.3421,16,59,1578.3414,1578.3414,1578.3565,,,,0,25,25,25,1,125,20,,,,,,,,
,,5bbe5b4eea58cc000153af4e,65af5acbb940720aef4cd746,2024-01-23_06h43.51.970,bars,2023.2.3,Win32,58.47953216,657b66ea316d21385b68909f,,,,,,,,,,,1578.3569,1579.3571,,,1579.8571,1580.1075,,38,38,,,,,,,,,,,,,,,,bars/040.png,bars/mask004.png,,,,,,,,,,,,0,2,,,,,,,2,10,3,10,,,,,,,,,,,1579.3571,1579.8569,1580.1075,1582.5219,space,2.4052,,1582.5222,78,33,1583.5224,1583.5225,1583.5257,,,,0,26,26,26,1,140,5,,,,,,,,
,,5bbe5b4eea58cc000153af4e,65af5acbb940720aef4cd746,2024-01-23_06h43.51.970,bars,2023.2.3,Win32,58.47953216,657b66ea316d21385b68909f,,,,,,,,,,,1583.5262,1584.522,,,1585.0212,1585.2715,,108,108,,,,,,,,,,,,,,,,bars/018.png,bars/mask007.png,,,,,,,,,,,,4,2,,,,,,,0,8,0,9,,,,,,,,,,,1584.5221,1585.0211,1585.2715,1590.1524,space,4.8654,,1590.1525,42,18,1591.152,1591.1521,1591.1709,,,,0,27,27,27,1,150,90,,,,,,,,
,,5bbe5b4eea58cc000153af4e,65af5acbb940720aef4cd746,2024-01-23_06h43.51.970,bars,2023.2.3,Win32,58.47953216,657b66ea316d21385b68909f,,,,,,,,,,,1591.1712,1592.1685,,,1592.6686,1592.9179,,66,66,,,,,,,,,,,,,,,,bars/007.png,bars/mask008.png,,,,,,,,,,,,6,2,,,,,,,0,10,0,10,,,,,,,,,,,1592.1686,1592.6685,1592.918,1595.7172,space,2.7894,,1595.7174,71,11,1596.7155,1596.7156,1596.7287,,,,0,28,28,28,1,175,55,,,,,,,,
,,5bbe5b4eea58cc000153af4e,65af5acbb940720aef4cd746,2024-01-23_06h43.51.970,bars,2023.2.3,Win32,58.47953216,657b66ea316d21385b68909f,,,,,,,,,,,1596.729,1597.7322,,,1598.2327,1598.4821,,115,115,,,,,,,,,,,,,,,,bars/049.png,bars/mask009.png,,,,,,,,,,,,9,2,,,,,,,2,10,2,9,,,,,,,,,,,1597.7324,1598.2326,1598.4822,1602.0975,space,3.5986,,1602.0976,45,0,1603.0967,1603.0968,1603.1118,,,,0,29,29,29,1,160,115,,,,,,,,
,,5bbe5b4eea58cc000153af4e,65af5acbb940720aef4cd746,2024-01-23_06h43.51.970,bars,2023.2.3,Win32,58.47953216,657b66ea316d21385b68909f,,,,,,,,,,,1603.1121,1604.1123,,,1604.6128,1604.8629,,16,196,,,,,,,,,,,,,,,,bars/033.png,bars/mask005.png,,,,,,,,,,,,0,1,,,,,,,0,8,0,8,,,,,,,,,,,1604.1123,1604.6127,1604.863,1609.6451,space,4.7657,,1609.6451,9,41,1610.644,1610.6441,1610.6624,,,,0,30,30,30,1,25,155,,,,,,,,
,,5bbe5b4eea58cc000153af4e,65af5acbb940720aef4cd746,2024-01-23_06h43.51.970,bars,2023.2.3,Win32,58.47953216,657b66ea316d21385b68909f,,,,,,,,,,,1610.6628,1611.6608,,,1612.1603,1612.4093,,113,113,,,,,,,,,,,,,,,,bars/025.png,bars/mask004.png,,,,,,,,,,,,2,1,,,,,,,2,10,3,9,,,,,,,,,,,1611.6609,1612.1599,1612.4093,1617.058,space,4.6372,,1617.0581,8,73,1618.0571,1618.0571,1618.0736,,,,0,31,31,31,1,105,40,,,,,,,,
,,5bbe5b4eea58cc000153af4e,65af5acbb940720aef4cd746,2024-01-23_06h43.51.970,bars,2023.2.3,Win32,58.47953216,657b66ea316d21385b68909f,,,,,,,,,,,1618.0739,1619.0734,,,1619.5737,1619.823,,36,36,,,,,,,,,,,,,,,,bars/019.png,bars/mask005.png,,,,,,,,,,,,2,1,,,,,,,4,10,3,10,,,,,,,,,,,1619.0736,1619.5736,1619.8231,1623.4541,space,3.6204,,1623.4542,9,69,1624.4544,1624.4544,1624.4762,,,,0,32,32,32,1,45,105,,,,,,,,
,,5bbe5b4eea58cc000153af4e,65af5acbb940720aef4cd746,2024-01-23_06h43.51.970,bars,2023.2.3,Win32,58.47953216,657b66ea316d21385b68909f,,,,,,,,,,,1624.4764,1625.4696,,,1625.9694,1626.2192,,122,122,,,,,,,,,,,,,,,,bars/044.png,bars/mask001.png,,,,,,,,,,,,0,2,,,,,,,2,10,4,10,,,,,,,,,,,1625.4696,1625.9693,1626.2192,1630.3192,space,4.0854,,1630.3194,47,33,1631.3185,1631.3186,1631.3357,,,,0,33,33,33,1,75,155,,,,,,,,
,,5bbe5b4eea58cc000153af4e,65af5acbb940720aef4cd746,2024-01-23_06h43.51.970,bars,2023.2.3,Win32,58.47953216,657b66ea316d21385b68909f,,,,,,,,,,,1631.336,1632.3333,,,1632.8346,1633.0841,,114,114,,,,,,,,,,,,,,,,bars/001.png,bars/mask008.png,,,,,,,,,,,,0,1,,,,,,,0,8,0,8,,,,,,,,,,,1632.3334,1632.8346,1633.0842,1635.7997,space,2.7013,,1635.7998,16,29,1636.7992,1636.7993,1636.8173,,,,0,34,34,34,1,130,85,,,,,,,,
,,5bbe5b4eea58cc000153af4e,65af5acbb940720aef4cd746,2024-01-23_06h43.51.970,bars,2023.2.3,Win32,58.47953216,657b66ea316d21385b68909f,,,,,,,,,,,1636.8176,1637.8154,,,1638.3155,1638.5643,,47,47,,,,,,,,,,,,,,,,bars/025.png,bars/mask009.png,,,,,,,,,,,,5,2,,,,,,,2,6,2,6,,,,,,,,,,,1637.8155,1638.3155,1638.5643,1641.4132,space,2.8417,,1641.4133,58,7,1642.4127,1642.4128,1642.4304,,,,0,35,35,35,1,105,40,,,,,,,,
,,5bbe5b4eea58cc000153af4e,65af5acbb940720aef4cd746,2024-01-23_06h43.51.970,bars,2023.2.3,Win32,58.47953216,657b66ea316d21385b68909f,,,,,,,,,,,1642.4308,1643.4288,,,1643.9296,1644.1794,,47,47,,,,,,,,,,,,,,,,bars/036.png,bars/mask006.png,,,,,,,,,,,,0,2,,,,,,,4,4,4,4,,,,,,,,,,,1643.4289,1643.9296,1644.1795,1649.11,space,4.9142,,1649.1101,82,27,1650.1098,1650.1099,1650.1258,,,,0,36,36,36,1,145,20,,,,,,,,
,,5bbe5b4eea58cc000153af4e,65af5acbb940720aef4cd746,2024-01-23_06h43.51.970,bars,2023.2.3,Win32,58.47953216,657b66ea316d21385b68909f,,,,,,,,,,,1650.1261,1651.1264,,,1651.6265,1651.8765,,118,118,,,,,,,,,,,,,,,,bars/004.png,bars/mask001.png,,,,,,,,,,,,6,2,,,,,,,2,6,3,8,,,,,,,,,,,1651.1264,1651.6264,1651.8765,1657.0073,space,5.1148,,1657.0075,87,7,1658.0072,1658.0072,1658.0232,,,,0,37,37,37,1,25,125,,,,,,,,
,,5bbe5b4eea58cc000153af4e,65af5acbb940720aef4cd746,2024-01-23_06h43.51.970,bars,2023.2.3,Win32,58.47953216,657b66ea316d21385b68909f,,,,,,,,,,,1658.0234,1659.0227,,,1659.522,1659.7721,,46,226,,,,,,,,,,,,,,,,bars/017.png,bars/mask008.png,,,,,,,,,,,,7,2,,,,,,,4,8,4,7,,,,,,,,,,,1659.0228,1659.5219,1659.7722,1664.0707,space,4.2832,,1664.0708,81,1,1665.07,1665.07,1665.0863,,,,0,38,38,38,1,145,45,,,,,,,,
,,5bbe5b4eea58cc000153af4e,65af5acbb940720aef4cd746,2024-01-23_06h43.51.970,bars,2023.2.3,Win32,58.47953216,657b66ea316d21385b68909f,,,,,,,,,,,1665.0867,1666.0854,,,1666.5864,1666.836,,50,50,,,,,,,,,,,,,,,,bars/002.png,bars/mask002.png,,,,,,,,,,,,0,2,,,,,,,6,10,5,10,,,,,,,,,,,1666.0855,1666.5864,1666.836,1671.6021,space,4.7522,,1671.6023,80,35,1672.5993,1672.5994,1672.6125,,,,0,39,39,39,1,130,85,,,,,,,,
,,5bbe5b4eea58cc000153af4e,65af5acbb940720aef4cd746,2024-01-23_06h43.51.970,bars,2023.2.3,Win32,58.47953216,657b66ea316d21385b68909f,,,,,,,,,,,1672.6127,1673.6158,,,1674.1159,1674.3663,,39,219,,,,,,,,,,,,,,,,bars/026.png,bars/mask004.png,,,,,,,,,,,,5,1,,,,,,,8,8,6,8,,,,,,,,,,,1673.6159,1674.1159,1674.3663,1682.5785,space,8.1955,,1682.5786,4,46,1683.5787,1683.5787,1683.5946,,,,0,40,40,40,1,35,85,,,,,,,,
,,5bbe5b4eea58cc000153af4e,65af5acbb940720aef4cd746,2024-01-23_06h43.51.970,bars,2023.2.3,Win32,58.47953216,657b66ea316d21385b68909f,,,,,,,,,,,1683.5949,1684.5952,,,1685.0944,1685.345,,143,143,,,,,,,,,,,,,,,,bars/049.png,bars/mask008.png,,,,,,,,,,,,2,1,,,,,,,6,6,5,6,,,,,,,,,,,1684.5952,1685.0943,1685.345,1688.4768,space,3.1167,,1688.477,17,28,1689.4767,1689.4768,1689.4952,,,,0,41,41,41,1,160,115,,,,,,,,
,,5bbe5b4eea58cc000153af4e,65af5acbb940720aef4cd746,2024-01-23_06h43.51.970,bars,2023.2.3,Win32,58.47953216,657b66ea316d21385b68909f,,,,,,,,,,,1689.4955,1690.4926,,,1690.992,1691.2423,,129,129,,,,,,,,,,,,,,,,bars/017.png,bars/mask008.png,,,,,,,,,,,,3,1,,,,,,,4,8,6,7,,,,,,,,,,,1690.4927,1690.9919,1691.2423,1694.7749,space,3.5171,,1694.7749,16,84,1695.7736,1695.7737,1695.7924,,,,0,42,42,42,1,145,45,,,,,,,,
,,5bbe5b4eea58cc000153af4e,65af5acbb940720aef4cd746,2024-01-23_06h43.51.970,bars,2023.2.3,Win32,58.47953216,657b66ea316d21385b68909f,,,,,,,,,,,1695.7928,1696.7889,,,1697.2885,1697.5387,,31,31,,,,,,,,,,,,,,,,bars/023.png,bars/mask001.png,,,,,,,,,,,,3,1,,,,,,,6,10,5,9,,,,,,,,,,,1696.789,1697.2885,1697.5387,1702.1382,space,4.5932,,1702.1383,11,84,1703.137,1703.1371,1703.1518,,,,0,43,43,43,1,20,115,,,,,,,,
,,5bbe5b4eea58cc000153af4e,65af5acbb940720aef4cd746,2024-01-23_06h43.51.970,bars,2023.2.3,Win32,58.47953216,657b66ea316d21385b68909f,,,,,,,,,,,1703.1519,1704.1532,,,1704.6528,1704.9034,,19,199,,,,,,,,,,,,,,,,bars/016.png,bars/mask007.png,,,,,,,,,,,,1,1,,,,,,,4,8,4,6,,,,,,,,,,,1704.1534,1704.6528,1704.9034,1707.6021,space,2.6846,,1707.6022,21,34,1708.6015,1708.6015,1708.6182,,,,0,44,44,44,1,40,165,,,,,,,,
,,5bbe5b4eea58cc000153af4e,65af5acbb940720aef4cd746,2024-01-23_06h43.51.970,bars,2023.2.3,Win32,58.47953216,657b66ea316d21385b68909f,,,,,,,,,,,1708.6184,1709.618,,,1710.1179,1710.3677,,118,118,,,,,,,,,,,,,,,,bars/018.png,bars/mask006.png,,,,,,,,,,,,1,2,,,,,,,6,10,6,8,,,,,,,,,,,1709.6184,1710.1176,1710.3677,1714.8814,space,4.4994,,1714.8814,32,28,1715.8806,1715.8806,1715.8962,,,,0,45,45,45,1,150,90,,,,,,,,
,,5bbe5b4eea58cc000153af4e,65af5acbb940720aef4cd746,2024-01-23_06h43.51.970,bars,2023.2.3,Win32,58.47953216,657b66ea316d21385b68909f,,,,,,,,,,,1715.8965,1716.8976,,,1717.3978,1717.6472,,136,136,,,,,,,,,,,,,,,,bars/040.png,bars/mask008.png,,,,,,,,,,,,8,1,,,,,,,8,10,9,10,,,,,,,,,,,1716.8977,1717.3977,1717.6473,1719.8637,space,2.2006,,1719.8639,4,49,1720.8621,1720.8622,1720.8818,,,,0,46,46,46,1,140,5,,,,,,,,
,,5bbe5b4eea58cc000153af4e,65af5acbb940720aef4cd746,2024-01-23_06h43.51.970,bars,2023.2.3,Win32,58.47953216,657b66ea316d21385b68909f,,,,,,,,,,,1720.8822,1721.8791,,,1722.3791,1722.6277,,99,99,,,,,,,,,,,,,,,,bars/009.png,bars/mask008.png,,,,,,,,,,,,6,2,,,,,,,10,8,10,8,,,,,,,,,,,1721.8791,1722.3791,1722.6277,1727.2265,space,4.5884,,1727.2265,84,6,1728.2264,1728.2264,1728.2412,,,,0,47,47,47,1,15,105,,,,,,,,
,,5bbe5b4eea58cc000153af4e,65af5acbb940720aef4cd746,2024-01-23_06h43.51.970,bars,2023.2.3,Win32,58.47953216,657b66ea316d21385b68909f,,,,,,,,,,,1728.2417,1729.2429,,,1729.7425,1729.9918,,103,103,,,,,,,,,,,,,,,,bars/038.png,bars/mask006.png,,,,,,,,,,,,0,2,,,,,,,10,6,10,7,,,,,,,,,,,1729.2429,1729.7425,1729.9918,1737.8395,space,7.8341,,1737.8395,62,33,1738.8384,1738.8384,1738.8558,,,,0,48,48,48,1,165,70,,,,,,,,
,,5bbe5b4eea58cc000153af4e,65af5acbb940720aef4cd746,2024-01-23_06h43.51.970,bars,2023.2.3,Win32,58.47953216,657b66ea316d21385b68909f,,,,,,,,,,,1738.8563,1739.8549,,,1740.3549,1740.6051,,10,10,,,,,,,,,,,,,,,,bars/041.png,bars/mask004.png,,,,,,,,,,,,5,1,,,,,,,8,8,8,7,,,,,,,,,,,1739.855,1740.3549,1740.6052,1741.954,space,1.3336,,1741.9543,10,75,1742.9532,1742.9533,1742.9716,,,,0,49,49,49,1,20,85,,,,,,,,
,,5bbe5b4eea58cc000153af4e,65af5acbb940720aef4cd746,2024-01-23_06h43.51.970,bars,2023.2.3,Win32,58.47953216,657b66ea316d21385b68909f,,,,,,,,,,,,,,,,,,,,,,,,,,,,,,,,,,,,,,,,,,,,,,,,,,,,,,,,,,,,,,,,,,,,,,,,,,,,,,,,,,,,,,,,,,,,,1742.9719,1802.9607,0,2,2,3,1,sequence_tables/blk032.csv
,,5bbe5b4eea58cc000153af4e,65af5acbb940720aef4cd746,2024-01-23_06h43.51.970,bars,2023.2.3,Win32,58.47953216,657b66ea316d21385b68909f,,,,,,,,,,,1837.6351,1838.628,,,1839.1286,1839.3786,,74,74,,,,,,,,,,,,,,,,bars/024.png,bars/mask003.png,,,,,,,,,,,,0,1,,,,,,,1,3,2,3,,,,,,1802.9806,1837.6125,space,34.6152,,1838.628,1839.1285,1839.3787,1842.5271,space,3.1327,,1842.5272,46,84,1843.527,1843.527,1843.5433,,,,0,0,0,0,1,120,170,,,,,,,,
,,5bbe5b4eea58cc000153af4e,65af5acbb940720aef4cd746,2024-01-23_06h43.51.970,bars,2023.2.3,Win32,58.47953216,657b66ea316d21385b68909f,,,,,,,,,,,1843.5437,1844.5428,,,1845.0423,1845.2932,,71,71,,,,,,,,,,,,,,,,bars/047.png,bars/mask000.png,,,,,,,,,,,,6,2,,,,,,,3,5,4,6,,,,,,,,,,,1844.5429,1845.0423,1845.2933,1848.0418,space,2.7304,,1848.042,56,1,1849.0409,1849.041,1849.0584,,,,0,1,1,1,1,15,70,,,,,,,,
,,5bbe5b4eea58cc000153af4e,65af5acbb940720aef4cd746,2024-01-23_06h43.51.970,bars,2023.2.3,Win32,58.47953216,657b66ea316d21385b68909f,,,,,,,,,,,1849.0589,1850.0567,,,1850.5573,1850.8073,,102,102,,,,,,,,,,,,,,,,bars/046.png,bars/mask000.png,,,,,,,,,,,,1,2,,,,,,,1,3,2,3,,,,,,,,,,,1850.0567,1850.5573,1850.8073,1854.6886,space,3.8653,,1854.6889,53,17,1855.6881,1855.6881,1855.7039,,,,0,2,2,2,1,155,85,,,,,,,,
,,5bbe5b4eea58cc000153af4e,65af5acbb940720aef4cd746,2024-01-23_06h43.51.970,bars,2023.2.3,Win32,58.47953216,657b66ea316d21385b68909f,,,,,,,,,,,1855.7044,1856.704,,,1857.2032,1857.4539,,23,23,,,,,,,,,,,,,,,,bars/032.png,bars/mask001.png,,,,,,,,,,,,1,2,,,,,,,0,1,1,1,,,,,,,,,,,1856.7041,1857.2031,1857.4539,1860.903,space,3.433,,1860.9031,78,3,1861.9021,1861.9022,1861.9185,,,,0,3,3,3,1,125,20,,,,,,,,
,,5bbe5b4eea58cc000153af4e,65af5acbb940720aef4cd746,2024-01-23_06h43.51.970,bars,2023.2.3,Win32,58.47953216,657b66ea316d21385b68909f,,,,,,,,,,,1861.9188,1862.9181,,,1863.4184,1863.6684,,147,-33,,,,,,,,,,,,,,,,bars/007.png,bars/mask002.png,,,,,,,,,,,,0,1,,,,,,,2,3,1,3,,,,,,,,,,,1862.9182,1863.4183,1863.6685,1867.166,space,3.4833,,1867.1661,28,88,1868.1656,1868.1656,1868.1829,,,,0,4,4,4,1,175,55,,,,,,,,
,,5bbe5b4eea58cc000153af4e,65af5acbb940720aef4cd746,2024-01-23_06h43.51.970,bars,2023.2.3,Win32,58.47953216,657b66ea316d21385b68909f,,,,,,,,,,,1868.1832,1869.1827,,,1869.6813,1869.9325,,142,142,,,,,,,,,,,,,,,,bars/001.png,bars/mask001.png,,,,,,,,,,,,2,1,,,,,,,4,1,3,1,,,,,,,,,,,1869.1827,1869.6812,1869.9328,1873.3474,space,3.4002,,1873.3475,12,57,1874.3474,1874.3475,1874.3632,,,,0,5,5,5,1,130,85,,,,,,,,
,,5bbe5b4eea58cc000153af4e,65af5acbb940720aef4cd746,2024-01-23_06h43.51.970,bars,2023.2.3,Win32,58.47953216,657b66ea316d21385b68909f,,,,,,,,,,,1874.3636,1875.3641,,,1875.8622,1876.1121,,133,133,,,,,,,,,,,,,,,,bars/038.png,bars/mask004.png,,,,,,,,,,,,0,1,,,,,,,6,3,5,2,,,,,,,,,,,1875.3641,1875.8622,1876.1122,1878.9014,space,2.7822,,1878.9016,32,63,1879.894,1879.894,1879.9098,,,,0,6,6,6,1,165,70,,,,,,,,
,,5bbe5b4eea58cc000153af4e,65af5acbb940720aef4cd746,2024-01-23_06h43.51.970,bars,2023.2.3,Win32,58.47953216,657b66ea316d21385b68909f,,,,,,,,,,,1879.9103,1880.9003,,,1881.399,1881.6489,,149,149,,,,,,,,,,,,,,,,bars/048.png,bars/mask007.png,,,,,,,,,,,,1,2,,,,,,,4,5,5,4,,,,,,,,,,,1880.9004,1881.3989,1881.6491,1884.8583,space,3.1911,,1884.8584,81,26,1885.8585,1885.8585,1885.8765,,,,0,7,7,7,1,50,175,,,,,,,,
,,5bbe5b4eea58cc000153af4e,65af5acbb940720aef4cd746,2024-01-23_06h43.51.970,bars,2023.2.3,Win32,58.47953216,657b66ea316d21385b68909f,,,,,,,,,,,1885.8769,1886.8814,,,1887.3801,1887.6305,,47,47,,,,,,,,,,,,,,,,bars/031.png,bars/mask004.png,,,,,,,,,,,,5,2,,,,,,,6,7,7,8,,,,,,,,,,,1886.8815,1887.38,1887.6305,1892.172,space,4.5239,,1892.172,73,12,1893.178,1893.1781,1893.1938,,,,0,8,8,8,1,120,35,,,,,,,,
,,5bbe5b4eea58cc000153af4e,65af5acbb940720aef4cd746,2024-01-23_06h43.51.970,bars,2023.2.3,Win32,58.47953216,657b66ea316d21385b68909f,,,,,,,,,,,1893.1942,1894.1936,,,1894.6938,1894.9377,,104,104,,,,,,,,,,,,,,,,bars/026.png,bars/mask003.png,,,,,,,,,,,,3,2,,,,,,,4,9,5,8,,,,,,,,,,,1894.1937,1894.6938,1894.9378,1899.9097,space,4.9503,,1899.9097,69,19,1900.9074,1900.9074,1900.9232,,,,0,9,9,9,1,35,85,,,,,,,,
,,5bbe5b4eea58cc000153af4e,65af5acbb940720aef4cd746,2024-01-23_06h43.51.970,bars,2023.2.3,Win32,58.47953216,657b66ea316d21385b68909f,,,,,,,,,,,1900.9234,1901.9244,,,1902.4243,1902.6711,,69,69,,,,,,,,,,,,,,,,bars/042.png,bars/mask006.png,,,,,,,,,,,,8,2,,,,,,,6,10,6,10,,,,,,,,,,,1901.9245,1902.4242,1902.6711,1905.6506,space,2.9529,,1905.6507,76,6,1906.6388,1906.6388,1906.6554,,,,0,10,10,10,1,145,75,,,,,,,,
,,5bbe5b4eea58cc000153af4e,65af5acbb940720aef4cd746,2024-01-23_06h43.51.970,bars,2023.2.3,Win32,58.47953216,657b66ea316d21385b68909f,,,,,,,,,,,1906.6556,1907.6493,,,1908.1542,1908.3983,,38,38,,,,,,,,,,,,,,,,bars/040.png,bars/mask007.png,,,,,,,,,,,,0,2,,,,,,,8,8,9,9,,,,,,,,,,,1907.6494,1908.1541,1908.3984,1916.5361,space,8.1147,,1916.5361,78,33,1917.5341,1917.5343,1917.5507,,,,0,11,11,11,1,140,5,,,,,,,,
,,5bbe5b4eea58cc000153af4e,65af5acbb940720aef4cd746,2024-01-23_06h43.51.970,bars,2023.2.3,Win32,58.47953216,657b66ea316d21385b68909f,,,,,,,,,,,1917.5511,1918.5495,,,1919.0441,1919.3007,,54,54,,,,,,,,,,,,,,,,bars/029.png,bars/mask004.png,,,,,,,,,,,,6,2,,,,,,,6,6,5,8,,,,,,,,,,,1918.5495,1919.044,1919.3007,1924.9083,space,5.5854,,1924.9084,36,9,1925.9076,1925.9078,1925.9229,,,,0,12,12,12,1,90,45,,,,,,,,
,,5bbe5b4eea58cc000153af4e,65af5acbb940720aef4cd746,2024-01-23_06h43.51.970,bars,2023.2.3,Win32,58.47953216,657b66ea316d21385b68909f,,,,,,,,,,,1925.9233,1926.9234,,,1927.4237,1927.6736,,97,97,,,,,,,,,,,,,,,,bars/045.png,bars/mask001.png,,,,,,,,,,,,4,1,,,,,,,4,4,4,5,,,,,,,,,,,1926.9235,1927.4236,1927.6736,1932.3217,space,4.6383,,1932.3218,3,87,1933.3209,1933.3209,1933.3374,,,,0,13,13,13,1,100,10,,,,,,,,
,,5bbe5b4eea58cc000153af4e,65af5acbb940720aef4cd746,2024-01-23_06h43.51.970,bars,2023.2.3,Win32,58.47953216,657b66ea316d21385b68909f,,,,,,,,,,,1933.3378,1934.3371,,,1934.8374,1935.087,,123,123,,,,,,,,,,,,,,,,bars/028.png,bars/mask008.png,,,,,,,,,,,,6,2,,,,,,,6,6,6,7,,,,,,,,,,,1934.3372,1934.8374,1935.0871,1938.6358,space,3.5352,,1938.6359,78,3,1939.6352,1939.6353,1939.6521,,,,0,14,14,14,1,45,120,,,,,,,,
,,5bbe5b4eea58cc000153af4e,65af5acbb940720aef4cd746,2024-01-23_06h43.51.970,bars,2023.2.3,Win32,58.47953216,657b66ea316d21385b68909f,,,,,,,,,,,1939.6524,1940.6514,,,1941.1508,1941.4002,,34,34,,,,,,,,,,,,,,,,bars/047.png,bars/mask008.png,,,,,,,,,,,,3,1,,,,,,,8,4,8,3,,,,,,,,,,,1940.6514,1941.1507,1941.4003,1946.1482,space,4.731,,1946.1483,19,36,1947.1481,1947.1481,1947.1639,,,,0,15,15,15,1,15,70,,,,,,,,
,,5bbe5b4eea58cc000153af4e,65af5acbb940720aef4cd746,2024-01-23_06h43.51.970,bars,2023.2.3,Win32,58.47953216,657b66ea316d21385b68909f,,,,,,,,,,,1947.1642,1948.1647,,,1948.6647,1948.9147,,54,54,,,,,,,,,,,,,,,,bars/010.png,bars/mask006.png,,,,,,,,,,,,4,2,,,,,,,10,6,10,4,,,,,,,,,,,1948.1648,1948.6646,1948.9147,1953.0119,space,4.0885,,1953.0119,69,1,1954.0124,1954.0124,1954.0294,,,,0,16,16,16,1,165,55,,,,,,,,
,,5bbe5b4eea58cc000153af4e,65af5acbb940720aef4cd746,2024-01-23_06h43.51.970,bars,2023.2.3,Win32,58.47953216,657b66ea316d21385b68909f,,,,,,,,,,,1954.0295,1955.0286,,,1955.5273,1955.7772,,50,50,,,,,,,,,,,,,,,,bars/027.png,bars/mask004.png,,,,,,,,,,,,5,2,,,,,,,10,4,10,5,,,,,,,,,,,1955.0287,1955.5273,1955.7773,1959.6436,space,3.8591,,1959.6436,60,0,1960.6418,1960.6418,1960.655,,,,0,17,17,17,1,110,50,,,,,,,,
,,5bbe5b4eea58cc000153af4e,65af5acbb940720aef4cd746,2024-01-23_06h43.51.970,bars,2023.2.3,Win32,58.47953216,657b66ea316d21385b68909f,,,,,,,,,,,1960.6552,1961.659,,,1962.1584,1962.4091,,69,69,,,,,,,,,,,,,,,,bars/002.png,bars/mask008.png,,,,,,,,,,,,4,2,,,,,,,10,6,9,8,,,,,,,,,,,1961.659,1962.1583,1962.4091,1965.3908,space,2.9672,,1965.3909,61,16,1966.3906,1966.3906,1966.4068,,,,0,18,18,18,1,130,85,,,,,,,,
,,5bbe5b4eea58cc000153af4e,65af5acbb940720aef4cd746,2024-01-23_06h43.51.970,bars,2023.2.3,Win32,58.47953216,657b66ea316d21385b68909f,,,,,,,,,,,1966.407,1967.4064,,,1967.9065,1968.1562,,95,95,,,,,,,,,,,,,,,,bars/006.png,bars/mask009.png,,,,,,,,,,,,7,2,,,,,,,10,8,10,8,,,,,,,,,,,1967.4064,1967.9064,1968.1564,1972.5876,space,4.4152,,1972.5877,60,5,1973.587,1973.587,1973.6027,,,,0,19,19,19,1,35,100,,,,,,,,
,,5bbe5b4eea58cc000153af4e,65af5acbb940720aef4cd746,2024-01-23_06h43.51.970,bars,2023.2.3,Win32,58.47953216,657b66ea316d21385b68909f,,,,,,,,,,,1973.603,1974.6037,,,1975.1031,1975.3527,,36,36,,,,,,,,,,,,,,,,bars/022.png,bars/mask004.png,,,,,,,,,,,,3,2,,,,,,,10,6,10,6,,,,,,,,,,,1974.6039,1975.103,1975.3527,1980.5007,space,5.1302,,1980.5007,59,16,1981.5004,1981.5005,1981.5163,,,,0,20,20,20,1,95,20,,,,,,,,
,,5bbe5b4eea58cc000153af4e,65af5acbb940720aef4cd746,2024-01-23_06h43.51.970,bars,2023.2.3,Win32,58.47953216,657b66ea316d21385b68909f,,,,,,,,,,,1981.5166,1982.5163,,,1983.0157,1983.2664,,11,11,,,,,,,,,,,,,,,,bars/014.png,bars/mask004.png,,,,,,,,,,,,4,2,,,,,,,8,4,7,7,,,,,,,,,,,1982.5164,1983.0157,1983.2665,1985.7821,space,2.4997,,1985.7822,69,11,1986.7814,1986.7815,1986.7985,,,,0,21,21,21,1,80,0,,,,,,,,
,,5bbe5b4eea58cc000153af4e,65af5acbb940720aef4cd746,2024-01-23_06h43.51.970,bars,2023.2.3,Win32,58.47953216,657b66ea316d21385b68909f,,,,,,,,,,,1986.7988,1987.798,,,1988.2973,1988.5468,,140,-40,,,,,,,,,,,,,,,,bars/021.png,bars/mask001.png,,,,,,,,,,,,5,1,,,,,,,10,2,10,2,,,,,,,,,,,1987.7983,1988.2972,1988.5472,1994.1947,space,5.6385,,1994.1948,15,70,1995.1948,1995.1948,1995.2133,,,,0,22,22,22,1,155,70,,,,,,,,
,,5bbe5b4eea58cc000153af4e,65af5acbb940720aef4cd746,2024-01-23_06h43.51.970,bars,2023.2.3,Win32,58.47953216,657b66ea316d21385b68909f,,,,,,,,,,,1995.2135,1996.2096,,,1996.7104,1996.9602,,162,162,,,,,,,,,,,,,,,,bars/039.png,bars/mask000.png,,,,,,,,,,,,5,1,,,,,,,10,0,9,0,,,,,,,,,,,1996.2097,1996.7103,1996.9603,2000.6745,space,3.7062,,2000.6745,13,57,2001.6746,2001.6748,2001.692,,,,0,23,23,23,1,175,105,,,,,,,,
,,5bbe5b4eea58cc000153af4e,65af5acbb940720aef4cd746,2024-01-23_06h43.51.970,bars,2023.2.3,Win32,58.47953216,657b66ea316d21385b68909f,,,,,,,,,,,2001.6921,2002.6912,,,2003.191,2003.4407,,104,104,,,,,,,,,,,,,,,,bars/019.png,bars/mask009.png,,,,,,,,,,,,2,2,,,,,,,8,2,8,2,,,,,,,,,,,2002.6913,2003.1909,2003.4407,2008.7884,space,5.3337,,2008.7886,59,1,2009.7885,2009.7887,2009.8056,,,,0,24,24,24,1,45,105,,,,,,,,
,,5bbe5b4eea58cc000153af4e,65af5acbb940720aef4cd746,2024-01-23_06h43.51.970,bars,2023.2.3,Win32,58.47953216,657b66ea316d21385b68909f,,,,,,,,,,,2009.8059,2010.8036,,,2011.3039,2011.5542,,100,100,,,,,,,,,,,,,,,,bars/019.png,bars/mask007.png,,,,,,,,,,,,3,2,,,,,,,10,4,10,3,,,,,,,,,,,2010.8036,2011.3038,2011.5542,2013.4864,space,1.9158,,2013.4865,55,5,2014.4858,2014.4858,2014.5034,,,,0,25,25,25,1,45,105,,,,,,,,
,,5bbe5b4eea58cc000153af4e,65af5acbb940720aef4cd746,2024-01-23_06h43.51.970,bars,2023.2.3,Win32,58.47953216,657b66ea316d21385b68909f,,,,,,,,,,,2014.5037,2015.5018,,,2016.0017,2016.2515,,129,129,,,,,,,,,,,,,,,,bars/018.png,bars/mask000.png,,,,,,,,,,,,2,1,,,,,,,8,6,8,6,,,,,,,,,,,2015.5018,2016.0016,2016.2516,2019.2504,space,2.9812,,2019.2504,21,39,2020.2507,2020.2507,2020.2663,,,,0,26,26,26,1,150,90,,,,,,,,
,,5bbe5b4eea58cc000153af4e,65af5acbb940720aef4cd746,2024-01-23_06h43.51.970,bars,2023.2.3,Win32,58.47953216,657b66ea316d21385b68909f,,,,,,,,,,,2020.2666,2021.2658,,,2021.7668,2022.0164,,44,44,,,,,,,,,,,,,,,,bars/030.png,bars/mask000.png,,,,,,,,,,,,1,2,,,,,,,6,4,7,4,,,,,,,,,,,2021.2658,2021.7668,2022.0164,2025.2654,space,3.2373,,2025.2655,84,21,2026.2636,2026.2636,2026.2786,,,,0,27,27,27,1,140,65,,,,,,,,
,,5bbe5b4eea58cc000153af4e,65af5acbb940720aef4cd746,2024-01-23_06h43.51.970,bars,2023.2.3,Win32,58.47953216,657b66ea316d21385b68909f,,,,,,,,,,,2026.2788,2027.2809,,,2027.7801,2028.0298,,96,96,,,,,,,,,,,,,,,,bars/015.png,bars/mask000.png,,,,,,,,,,,,4,1,,,,,,,8,6,7,7,,,,,,,,,,,2027.2809,2027.7801,2028.0298,2032.8783,space,4.8325,,2032.8783,14,64,2033.878,2033.8781,2033.8957,,,,0,28,28,28,1,110,160,,,,,,,,
,,5bbe5b4eea58cc000153af4e,65af5acbb940720aef4cd746,2024-01-23_06h43.51.970,bars,2023.2.3,Win32,58.47953216,657b66ea316d21385b68909f,,,,,,,,,,,2033.8961,2034.8937,,,2035.3941,2035.6437,,119,119,,,,,,,,,,,,,,,,bars/017.png,bars/mask008.png,,,,,,,,,,,,1,1,,,,,,,10,4,9,5,,,,,,,,,,,2034.8942,2035.3941,2035.6438,2039.9254,space,4.2681,,2039.9254,26,74,2040.9244,2040.9245,2040.943,,,,0,29,29,29,1,145,45,,,,,,,,
,,5bbe5b4eea58cc000153af4e,65af5acbb940720aef4cd746,2024-01-23_06h43.51.970,bars,2023.2.3,Win32,58.47953216,657b66ea316d21385b68909f,,,,,,,,,,,2040.9433,2041.9403,,,2042.4412,2042.6909,,110,110,,,,,,,,,,,,,,,,bars/005.png,bars/mask001.png,,,,,,,,,,,,0,2,,,,,,,8,2,8,0,,,,,,,,,,,2041.9404,2042.4412,2042.691,2045.6563,space,2.9494,,2045.6564,80,30,2046.6555,2046.6556,2046.6735,,,,0,30,30,30,1,10,140,,,,,,,,
,,5bbe5b4eea58cc000153af4e,65af5acbb940720aef4cd746,2024-01-23_06h43.51.970,bars,2023.2.3,Win32,58.47953216,657b66ea316d21385b68909f,,,,,,,,,,,2046.6737,2047.6717,,,2048.1712,2048.4216,,38,38,,,,,,,,,,,,,,,,bars/034.png,bars/mask004.png,,,,,,,,,,,,0,2,,,,,,,10,4,10,4,,,,,,,,,,,2047.6717,2048.1712,2048.4216,2051.955,space,3.5259,,2051.9551,87,27,2052.9531,2052.9532,2052.97,,,,0,31,31,31,1,125,65,,,,,,,,
,,5bbe5b4eea58cc000153af4e,65af5acbb940720aef4cd746,2024-01-23_06h43.51.970,bars,2023.2.3,Win32,58.47953216,657b66ea316d21385b68909f,,,,,,,,,,,2052.9703,2053.9755,,,2054.4746,2054.719,,34,34,,,,,,,,,,,,,,,,bars/003.png,bars/mask002.png,,,,,,,,,,,,5,1,,,,,,,8,2,7,2,,,,,,,,,,,2053.9757,2054.4745,2054.719,2058.4409,space,3.6999,,2058.441,9,74,2059.4348,2059.4349,2059.4565,,,,0,32,32,32,1,25,140,,,,,,,,
,,5bbe5b4eea58cc000153af4e,65af5acbb940720aef4cd746,2024-01-23_06h43.51.970,bars,2023.2.3,Win32,58.47953216,657b66ea316d21385b68909f,,,,,,,,,,,2059.4569,2060.4493,,,2060.9557,2061.199,,126,126,,,,,,,,,,,,,,,,bars/030.png,bars/mask005.png,,,,,,,,,,,,5,1,,,,,,,10,0,10,1,,,,,,,,,,,2060.4493,2060.9556,2061.199,2065.6806,space,4.4528,,2065.6809,14,61,2066.6699,2066.67,2066.6873,,,,0,33,33,33,1,140,65,,,,,,,,
,,5bbe5b4eea58cc000153af4e,65af5acbb940720aef4cd746,2024-01-23_06h43.51.970,bars,2023.2.3,Win32,58.47953216,657b66ea316d21385b68909f,,,,,,,,,,,2066.6878,2067.6862,,,2068.1801,2068.4289,,18,18,,,,,,,,,,,,,,,,bars/016.png,bars/mask002.png,,,,,,,,,,,,3,1,,,,,,,10,0,10,1,,,,,,,,,,,2067.6863,2068.18,2068.429,2069.862,space,1.401,,2069.8621,22,33,2070.8619,2070.8619,2070.8801,,,,0,34,34,34,1,40,165,,,,,,,,
,,5bbe5b4eea58cc000153af4e,65af5acbb940720aef4cd746,2024-01-23_06h43.51.970,bars,2023.2.3,Win32,58.47953216,657b66ea316d21385b68909f,,,,,,,,,,,2070.8805,2071.8776,,,2072.3656,2072.6106,,122,122,,,,,,,,,,,,,,,,bars/001.png,bars/mask000.png,,,,,,,,,,,,6,1,,,,,,,8,2,8,2,,,,,,,,,,,2071.8777,2072.3656,2072.6106,2075.9762,space,3.3391,,2075.9763,8,37,2076.976,2076.976,2076.9921,,,,0,35,35,35,1,130,85,,,,,,,,
,,5bbe5b4eea58cc000153af4e,65af5acbb940720aef4cd746,2024-01-23_06h43.51.970,bars,2023.2.3,Win32,58.47953216,657b66ea316d21385b68909f,,,,,,,,,,,2076.9924,2077.9817,,,2078.4754,2078.7146,,16,196,,,,,,,,,,,,,,,,bars/005.png,bars/mask002.png,,,,,,,,,,,,5,1,,,,,,,6,0,6,1,,,,,,,,,,,2077.9818,2078.4752,2078.7146,2083.9559,space,5.2316,,2083.9559,6,56,2084.9553,2084.9554,2084.9721,,,,0,36,36,36,1,10,140,,,,,,,,
,,5bbe5b4eea58cc000153af4e,65af5acbb940720aef4cd746,2024-01-23_06h43.51.970,bars,2023.2.3,Win32,58.47953216,657b66ea316d21385b68909f,,,,,,,,,,,2084.9724,2085.9715,,,2086.4778,2086.7221,,124,124,,,,,,,,,,,,,,,,bars/036.png,bars/mask007.png,,,,,,,,,,,,3,1,,,,,,,8,2,9,2,,,,,,,,,,,2085.9716,2086.4777,2086.7224,2092.9596,space,6.2154,,2092.9596,21,76,2093.9573,2093.9574,2093.974,,,,0,37,37,37,1,145,20,,,,,,,,
,,5bbe5b4eea58cc000153af4e,65af5acbb940720aef4cd746,2024-01-23_06h43.51.970,bars,2023.2.3,Win32,58.47953216,657b66ea316d21385b68909f,,,,,,,,,,,2093.9743,2094.9678,,,2095.4732,2095.7173,,110,290,,,,,,,,,,,,,,,,bars/044.png,bars/mask005.png,,,,,,,,,,,,0,1,,,,,,,10,4,10,6,,,,,,,,,,,2094.9678,2095.4732,2095.7173,2101.4562,space,5.7165,,2101.4564,35,45,2102.4481,2102.4481,2102.4647,,,,0,38,38,38,1,75,155,,,,,,,,
,,5bbe5b4eea58cc000153af4e,65af5acbb940720aef4cd746,2024-01-23_06h43.51.970,bars,2023.2.3,Win32,58.47953216,657b66ea316d21385b68909f,,,,,,,,,,,2102.4651,2103.4705,,,2103.9712,2104.2191,,61,61,,,,,,,,,,,,,,,,bars/012.png,bars/mask002.png,,,,,,,,,,,,0,1,,,,,,,10,6,9,5,,,,,,,,,,,2103.4706,2103.971,2104.2191,2107.0631,space,2.8234,,2107.0633,29,46,2108.0619,2108.0619,2108.0769,,,,0,39,39,39,1,90,15,,,,,,,,
,,5bbe5b4eea58cc000153af4e,65af5acbb940720aef4cd746,2024-01-23_06h43.51.970,bars,2023.2.3,Win32,58.47953216,657b66ea316d21385b68909f,,,,,,,,,,,2108.0772,2109.0673,,,2109.5681,2109.8113,,89,89,,,,,,,,,,,,,,,,bars/018.png,bars/mask005.png,,,,,,,,,,,,3,2,,,,,,,10,4,10,3,,,,,,,,,,,2109.0673,2109.568,2109.8113,2114.7504,space,4.9321,,2114.7504,61,1,2115.7425,2115.7425,2115.7621,,,,0,40,40,40,1,150,90,,,,,,,,
,,5bbe5b4eea58cc000153af4e,65af5acbb940720aef4cd746,2024-01-23_06h43.51.970,bars,2023.2.3,Win32,58.47953216,657b66ea316d21385b68909f,,,,,,,,,,,2115.7625,2116.7647,,,2117.26,2117.5087,,98,98,,,,,,,,,,,,,,,,bars/039.png,bars/mask000.png,,,,,,,,,,,,2,2,,,,,,,10,2,10,2,,,,,,,,,,,2116.7648,2117.2599,2117.5087,2119.3802,space,1.8508,,2119.3803,77,7,2120.3739,2120.3739,2120.3758,,,,0,41,41,41,1,175,105,,,,,,,,
,,5bbe5b4eea58cc000153af4e,65af5acbb940720aef4cd746,2024-01-23_06h43.51.970,bars,2023.2.3,Win32,58.47953216,657b66ea316d21385b68909f,,,,,,,,,,,2120.3768,2121.373,,,2121.8623,2122.1079,,144,144,,,,,,,,,,,,,,,,bars/038.png,bars/mask003.png,,,,,,,,,,,,2,1,,,,,,,8,0,7,0,,,,,,,,,,,2121.3731,2121.8623,2122.108,2127.3375,space,5.2047,,2127.3376,21,74,2128.3265,2128.3265,2128.343,,,,0,42,42,42,1,165,70,,,,,,,,
,,5bbe5b4eea58cc000153af4e,65af5acbb940720aef4cd746,2024-01-23_06h43.51.970,bars,2023.2.3,Win32,58.47953216,657b66ea316d21385b68909f,,,,,,,,,,,2128.3433,2129.3425,,,2129.8359,2130.0864,,126,126,,,,,,,,,,,,,,,,bars/037.png,bars/mask005.png,,,,,,,,,,,,0,2,,,,,,,6,0,5,1,,,,,,,,,,,2129.3426,2129.8358,2130.0864,2133.0856,space,2.9689,,2133.0857,24,21,2134.0845,2134.0847,2134.1036,,,,0,43,43,43,1,150,105,,,,,,,,
,,5bbe5b4eea58cc000153af4e,65af5acbb940720aef4cd746,2024-01-23_06h43.51.970,bars,2023.2.3,Win32,58.47953216,657b66ea316d21385b68909f,,,,,,,,,,,2134.1039,2135.106,,,2135.6058,2135.8564,,120,120,,,,,,,,,,,,,,,,bars/043.png,bars/mask008.png,,,,,,,,,,,,0,2,,,,,,,8,0,9,0,,,,,,,,,,,2135.1061,2135.6056,2135.8565,2140.4156,space,4.5354,,2140.4158,90,10,2141.4138,2141.4139,2141.4283,,,,0,44,44,44,1,30,130,,,,,,,,
,,5bbe5b4eea58cc000153af4e,65af5acbb940720aef4cd746,2024-01-23_06h43.51.970,bars,2023.2.3,Win32,58.47953216,657b66ea316d21385b68909f,,,,,,,,,,,2141.4287,2142.4317,,,2142.9309,2143.18,,56,236,,,,,,,,,,,,,,,,bars/048.png,bars/mask004.png,,,,,,,,,,,,8,1,,,,,,,10,0,10,0,,,,,,,,,,,2142.4318,2142.9308,2143.18,2148.5614,space,5.3655,,2148.5615,6,61,2149.5615,2149.5615,2149.5801,,,,0,45,45,45,1,50,175,,,,,,,,
,,5bbe5b4eea58cc000153af4e,65af5acbb940720aef4cd746,2024-01-23_06h43.51.970,bars,2023.2.3,Win32,58.47953216,657b66ea316d21385b68909f,,,,,,,,,,,2149.5804,2150.5773,,,2151.0769,2151.3273,,145,145,,,,,,,,,,,,,,,,bars/011.png,bars/mask007.png,,,,,,,,,,,,4,1,,,,,,,8,2,7,3,,,,,,,,,,,2150.5773,2151.0769,2151.3274,2153.7271,space,2.3836,,2153.7272,15,60,2154.7258,2154.7261,2154.7425,,,,0,46,46,46,1,160,85,,,,,,,,
,,5bbe5b4eea58cc000153af4e,65af5acbb940720aef4cd746,2024-01-23_06h43.51.970,bars,2023.2.3,Win32,58.47953216,657b66ea316d21385b68909f,,,,,,,,,,,2154.7427,2155.7413,,,2156.242,2156.4907,,14,14,,,,,,,,,,,,,,,,bars/041.png,bars/mask002.png,,,,,,,,,,,,8,1,,,,,,,10,0,10,0,,,,,,,,,,,2155.7414,2156.242,2156.4908,2162.1723,space,5.6658,,2162.1724,6,71,2163.1711,2163.1711,2163.1865,,,,0,47,47,47,1,20,85,,,,,,,,
,,5bbe5b4eea58cc000153af4e,65af5acbb940720aef4cd746,2024-01-23_06h43.51.970,bars,2023.2.3,Win32,58.47953216,657b66ea316d21385b68909f,,,,,,,,,,,2163.1869,2164.1876,,,2164.6882,2164.9376,,109,109,,,,,,,,,,,,,,,,bars/001.png,bars/mask000.png,,,,,,,,,,,,2,1,,,,,,,8,2,6,2,,,,,,,,,,,2164.1876,2164.6881,2164.9376,2169.0028,space,4.05,,2169.0029,21,24,2170.0024,2170.0024,2170.0172,,,,0,48,48,48,1,130,85,,,,,,,,
,,5bbe5b4eea58cc000153af4e,65af5acbb940720aef4cd746,2024-01-23_06h43.51.970,bars,2023.2.3,Win32,58.47953216,657b66ea316d21385b68909f,,,,,,,,,,,2170.0177,2171.0187,,,2171.5184,2171.7684,,20,200,,,,,,,,,,,,,,,,bars/046.png,bars/mask004.png,,,,,,,,,,,,0,1,,,,,,,10,4,9,4,,,,,,,,,,,2171.0188,2171.5184,2171.7684,2178.2483,space,6.4687,,2178.2484,45,65,2179.2487,2179.2487,2179.2653,,,,0,49,49,49,1,155,85,,,,,,,,
,,5bbe5b4eea58cc000153af4e,65af5acbb940720aef4cd746,2024-01-23_06h43.51.970,bars,2023.2.3,Win32,58.47953216,657b66ea316d21385b68909f,,,,,,,,,,,,,,,,,,,,,,,,,,,,,,,,,,,,,,,,,,,,,,,,,,,,,,,,,,,,,,,,,,,,,,,,,,,,,,,,,,,,,,,,,,,,,2179.2655,2239.2568,0,3,3,4,1,sequence_tables/blk036.csv
,,5bbe5b4eea58cc000153af4e,65af5acbb940720aef4cd746,2024-01-23_06h43.51.970,bars,2023.2.3,Win32,58.47953216,657b66ea316d21385b68909f,,,,,,,,,,,2258.1387,2259.1358,,,2259.6307,2259.8701,,89,-91,,,,,,,,,,,,,,,,bars/018.png,bars/mask001.png,,,,,,,,,,,,6,2,,,,,,,7,5,7,6,,,,,,2239.2764,2258.1157,space,18.8215,,2259.1358,2259.6306,2259.8701,2265.1009,space,5.2162,,2265.101,61,1,2266.0987,2266.0988,2266.1157,,,,0,0,0,0,1,150,90,,,,,,,,
,,5bbe5b4eea58cc000153af4e,65af5acbb940720aef4cd746,2024-01-23_06h43.51.970,bars,2023.2.3,Win32,58.47953216,657b66ea316d21385b68909f,,,,,,,,,,,2266.1163,2267.1173,,,2267.6106,2267.8604,,80,80,,,,,,,,,,,,,,,,bars/010.png,bars/mask009.png,,,,,,,,,,,,1,2,,,,,,,5,7,5,7,,,,,,,,,,,2267.1173,2267.6106,2267.8606,2270.6487,space,2.7656,,2270.6488,85,25,2271.6415,2271.6415,2271.6593,,,,0,1,1,1,1,165,55,,,,,,,,
,,5bbe5b4eea58cc000153af4e,65af5acbb940720aef4cd746,2024-01-23_06h43.51.970,bars,2023.2.3,Win32,58.47953216,657b66ea316d21385b68909f,,,,,,,,,,,2271.6595,2272.6641,,,2273.1624,2273.4082,,70,70,,,,,,,,,,,,,,,,bars/034.png,bars/mask002.png,,,,,,,,,,,,3,2,,,,,,,3,5,4,4,,,,,,,,,,,2272.6643,2273.1624,2273.4083,2279.2968,space,5.8658,,2279.2968,55,5,2280.2941,2280.2941,2280.3102,,,,0,2,2,2,1,125,65,,,,,,,,
,,5bbe5b4eea58cc000153af4e,65af5acbb940720aef4cd746,2024-01-23_06h43.51.970,bars,2023.2.3,Win32,58.47953216,657b66ea316d21385b68909f,,,,,,,,,,,2280.3104,2281.3093,,,2281.8036,2282.0543,,124,124,,,,,,,,,,,,,,,,bars/040.png,bars/mask003.png,,,,,,,,,,,,1,1,,,,,,,1,3,2,3,,,,,,,,,,,2281.3094,2281.8035,2282.0545,2284.2527,space,2.1896,,2284.2528,16,61,2285.2528,2285.2528,2285.2693,,,,0,3,3,3,1,140,5,,,,,,,,
,,5bbe5b4eea58cc000153af4e,65af5acbb940720aef4cd746,2024-01-23_06h43.51.970,bars,2023.2.3,Win32,58.47953216,657b66ea316d21385b68909f,,,,,,,,,,,2285.2697,2286.2686,,,2286.7577,2287.002,,50,50,,,,,,,,,,,,,,,,bars/029.png,bars/mask002.png,,,,,,,,,,,,5,2,,,,,,,3,5,2,6,,,,,,,,,,,2286.2686,2286.7577,2287.0021,2291.3739,space,4.3518,,2291.374,40,5,2292.3653,2292.3655,2292.3833,,,,0,4,4,4,1,90,45,,,,,,,,
,,5bbe5b4eea58cc000153af4e,65af5acbb940720aef4cd746,2024-01-23_06h43.51.970,bars,2023.2.3,Win32,58.47953216,657b66ea316d21385b68909f,,,,,,,,,,,2292.3838,2293.383,,,2293.8879,2294.132,,136,136,,,,,,,,,,,,,,,,bars/030.png,bars/mask005.png,,,,,,,,,,,,3,1,,,,,,,1,3,3,2,,,,,,,,,,,2293.383,2293.8879,2294.1321,2296.5895,space,2.4347,,2296.5895,4,71,2297.5808,2297.5808,2297.602,,,,0,5,5,5,1,140,65,,,,,,,,
,,5bbe5b4eea58cc000153af4e,65af5acbb940720aef4cd746,2024-01-23_06h43.51.970,bars,2023.2.3,Win32,58.47953216,657b66ea316d21385b68909f,,,,,,,,,,,2297.6024,2298.597,,,2299.0973,2299.347,,14,194,,,,,,,,,,,,,,,,bars/010.png,bars/mask008.png,,,,,,,,,,,,0,1,,,,,,,3,1,2,1,,,,,,,,,,,2298.5971,2299.0972,2299.347,2303.1622,space,3.7875,,2303.1623,29,41,2304.1669,2304.1669,2304.1819,,,,0,6,6,6,1,165,55,,,,,,,,
,,5bbe5b4eea58cc000153af4e,65af5acbb940720aef4cd746,2024-01-23_06h43.51.970,bars,2023.2.3,Win32,58.47953216,657b66ea316d21385b68909f,,,,,,,,,,,2304.1822,2305.1902,,,2305.6942,2305.9437,,101,101,,,,,,,,,,,,,,,,bars/022.png,bars/mask007.png,,,,,,,,,,,,5,1,,,,,,,5,0,6,0,,,,,,,,,,,2305.1903,2305.6941,2305.9438,2310.5923,space,4.6313,,2310.5924,6,81,2311.5911,2311.5914,2311.608,,,,0,7,7,7,1,95,20,,,,,,,,
,,5bbe5b4eea58cc000153af4e,65af5acbb940720aef4cd746,2024-01-23_06h43.51.970,bars,2023.2.3,Win32,58.47953216,657b66ea316d21385b68909f,,,,,,,,,,,2311.6083,2312.6073,,,2313.1071,2313.357,,17,197,,,,,,,,,,,,,,,,bars/035.png,bars/mask001.png,,,,,,,,,,,,2,1,,,,,,,7,0,7,0,,,,,,,,,,,2312.6074,2313.107,2313.3572,2318.522,space,5.1484,,2318.5222,22,43,2319.521,2319.5211,2319.5371,,,,0,8,8,8,1,175,60,,,,,,,,
,,5bbe5b4eea58cc000153af4e,65af5acbb940720aef4cd746,2024-01-23_06h43.51.970,bars,2023.2.3,Win32,58.47953216,657b66ea316d21385b68909f,,,,,,,,,,,2319.5375,2320.538,,,2321.0371,2321.2871,,111,111,,,,,,,,,,,,,,,,bars/005.png,bars/mask004.png,,,,,,,,,,,,0,2,,,,,,,9,0,9,1,,,,,,,,,,,2320.538,2321.037,2321.2871,2324.8856,space,3.5835,,2324.8857,79,29,2325.8848,2325.8849,2325.9025,,,,0,9,9,9,1,10,140,,,,,,,,
,,5bbe5b4eea58cc000153af4e,65af5acbb940720aef4cd746,2024-01-23_06h43.51.970,bars,2023.2.3,Win32,58.47953216,657b66ea316d21385b68909f,,,,,,,,,,,2325.9028,2326.9011,,,2327.4012,2327.6509,,52,52,,,,,,,,,,,,,,,,bars/002.png,bars/mask001.png,,,,,,,,,,,,0,2,,,,,,,10,2,9,1,,,,,,,,,,,2326.9011,2327.4012,2327.651,2331.2992,space,3.6307,,2331.2992,78,33,2332.298,2332.2981,2332.3118,,,,0,10,10,10,1,130,85,,,,,,,,
,,5bbe5b4eea58cc000153af4e,65af5acbb940720aef4cd746,2024-01-23_06h43.51.970,bars,2023.2.3,Win32,58.47953216,657b66ea316d21385b68909f,,,,,,,,,,,2332.3119,2333.3155,,,2333.8151,2334.0654,,17,197,,,,,,,,,,,,,,,,bars/047.png,bars/mask002.png,,,,,,,,,,,,7,1,,,,,,,8,4,8,4,,,,,,,,,,,2333.3155,2333.815,2334.0655,2337.0971,space,3.0162,,2337.0973,2,53,2338.0965,2338.0966,2338.114,,,,0,11,11,11,1,15,70,,,,,,,,
