init_variables.started,init_variables.stopped,participant,session,date,expName,psychopyVersion,OS,frameRate,study_id,instruction_exp.started,instruction_exp.stopped,key_resp_8.keys,key_resp_8.rt,key_resp_8.duration,instruction_single.started,instruction_single.stopped,key_resp_2.keys,key_resp_2.rt,key_resp_2.duration,interval.started,interval.stopped,cue_single.started,cue_single.stopped,mask.started,mask.stopped,ori_response_single.started,res_ori,res,ori_response_single.stopped,key_resp_single.keys,key_resp_single.rt,key_resp_single.duration,disp_single.started,disp_single.stopped,key_resp.keys,key_resp.rt,key_resp.duration,single.thisRepN,single.thisTrialN,single.thisN,single.thisIndex,single.ran,ori,path,mask_path,instruction_bandit.started,instruction_bandit.stopped,key_resp_6.keys,key_resp_6.rt,key_resp_6.duration,cue_bandit.started,cue_bandit.stopped,bandit_res.keys,bandit_res.rt,bandit_res.duration,outcome_bandit.started,rew,action,outcome_bandit.stopped,bandit.thisRepN,bandit.thisTrialN,bandit.thisN,bandit.thisIndex,bandit.ran,actual_rew1,actual_rew2,rew1,rew2,instruction_task.started,instruction_task.stopped,key_resp_7.keys,key_resp_7.rt,key_resp_7.duration,wait_ready.started,wait_ready.stopped,key_resp_3.keys,key_resp_3.rt,key_resp_3.duration,cue.started,cue.stopped,ori_response.started,ori_response.stopped,key_resp_5.keys,key_resp_5.rt,key_resp_5.duration,outcome.started,diff1,diff2,outcome.stopped,disp_outcome_practice.started,disp_outcome_practice.stopped,key_resp_4.keys,key_resp_4.rt,key_resp_4.duration,trials.thisRepN,trials.thisTrialN,trials.thisN,trials.thisIndex,trials.ran,ori1,ori2,break_blk.started,break_blk.stopped,block.thisRepN,block.thisTrialN,block.thisN,block.thisIndex,block.ran,condition_file
0,0,5ba85b3a46de410001ecf951,65af54f4c6f63cf399fca60f,2024-01-23_00h07.08.688,bars,2023.2.3,Win32,60.0240096,657b66ea316d21385b68909f,,,,,,,,,,,,,,,,,,,,,,,,,,,,,,,,,,,,,,,,,,,,,,,,,,,,,,,,,,,,,,,,,,,,,,,,,,,,,,,,,,,,,,,,,,,,,,,,,,,,
,,5ba85b3a46de410001ecf951,65af54f4c6f63cf399fca60f,2024-01-23_00h07.08.688,bars,2023.2.3,Win32,60.0240096,657b66ea316d21385b68909f,0,5.916,y,5.896,,,,,,,,,,,,,,,,,,,,,,,,,,,,,,,,,,,,,,,,,,,,,,,,,,,,,,,,,,,,,,,,,,,,,,,,,,,,,,,,,,,,,,,,,,,,,,,,
,,5ba85b3a46de410001ecf951,65af54f4c6f63cf399fca60f,2024-01-23_00h07.08.688,bars,2023.2.3,Win32,60.0240096,657b66ea316d21385b68909f,,,,,,5.916,29.499,space,23.562,,,,,,,,,,,,,,,,,,,,,,,,,,,,,,,,,,,,,,,,,,,,,,,,,,,,,,,,,,,,,,,,,,,,,,,,,,,,,,,,,,,,,,,,,,,
,,5ba85b3a46de410001ecf951,65af54f4c6f63cf399fca60f,2024-01-23_00h07.08.688,bars,2023.2.3,Win32,60.0240096,657b66ea316d21385b68909f,,,,,,,,,,,29.502,30.498,30.498,30.998,30.998,31.248,31.248,145,145,35.498,space,4.23,,35.498,50.198,space,14.685,,0,0,0,2,1,145,bars/single002.png,bars/mask003.png,,,,,,,,,,,,,,,,,,,,,,,,,,,,,,,,,,,,,,,,,,,,,,,,,,,,,,,,,,,,,,,,
,,5ba85b3a46de410001ecf951,65af54f4c6f63cf399fca60f,2024-01-23_00h07.08.688,bars,2023.2.3,Win32,60.0240096,657b66ea316d21385b68909f,,,,,,,,,,,50.198,51.198,51.198,51.698,51.698,51.948,51.948,179,179,61.398,space,9.434,,61.398,74.782,space,13.376,,0,1,1,6,1,175,bars/single006.png,bars/mask005.png,,,,,,,,,,,,,,,,,,,,,,,,,,,,,,,,,,,,,,,,,,,,,,,,,,,,,,,,,,,,,,,,
,,5ba85b3a46de410001ecf951,65af54f4c6f63cf399fca60f,2024-01-23_00h07.08.688,bars,2023.2.3,Win32,60.0240096,657b66ea316d21385b68909f,,,,,,,,,,,74.782,75.781,75.781,76.281,76.282,76.531,76.531,86,86,81.131,space,4.589,,81.131,94.831,space,13.683,,0,2,2,4,1,95,bars/single004.png,bars/mask004.png,,,,,,,,,,,,,,,,,,,,,,,,,,,,,,,,,,,,,,,,,,,,,,,,,,,,,,,,,,,,,,,,
,,5ba85b3a46de410001ecf951,65af54f4c6f63cf399fca60f,2024-01-23_00h07.08.688,bars,2023.2.3,Win32,60.0240096,657b66ea316d21385b68909f,,,,,,,,,,,94.833,95.831,95.831,96.331,96.331,96.581,96.581,11,191,102.448,space,5.861,,102.448,108.247,space,5.783,,0,3,3,9,1,20,bars/single009.png,bars/mask006.png,,,,,,,,,,,,,,,,,,,,,,,,,,,,,,,,,,,,,,,,,,,,,,,,,,,,,,,,,,,,,,,,
,,5ba85b3a46de410001ecf951,65af54f4c6f63cf399fca60f,2024-01-23_00h07.08.688,bars,2023.2.3,Win32,60.0240096,657b66ea316d21385b68909f,,,,,,,,,,,108.248,109.248,109.248,109.748,109.748,109.998,109.998,133,133,116.497,space,6.495,,116.497,121.898,space,5.388,,0,4,4,0,1,150,bars/single000.png,bars/mask006.png,,,,,,,,,,,,,,,,,,,,,,,,,,,,,,,,,,,,,,,,,,,,,,,,,,,,,,,,,,,,,,,,
,,5ba85b3a46de410001ecf951,65af54f4c6f63cf399fca60f,2024-01-23_00h07.08.688,bars,2023.2.3,Win32,60.0240096,657b66ea316d21385b68909f,,,,,,,,,,,121.898,122.897,122.897,123.398,123.398,123.647,123.647,19,19,129.047,space,5.389,,129.047,133.914,space,4.853,,0,5,5,3,1,20,bars/single003.png,bars/mask005.png,,,,,,,,,,,,,,,,,,,,,,,,,,,,,,,,,,,,,,,,,,,,,,,,,,,,,,,,,,,,,,,,
,,5ba85b3a46de410001ecf951,65af54f4c6f63cf399fca60f,2024-01-23_00h07.08.688,bars,2023.2.3,Win32,60.0240096,657b66ea316d21385b68909f,,,,,,,,,,,133.915,134.914,134.914,135.414,135.414,135.664,135.664,79,259,145.43,space,9.76,,145.43,149.848,space,4.409,,0,6,6,5,1,55,bars/single005.png,bars/mask008.png,,,,,,,,,,,,,,,,,,,,,,,,,,,,,,,,,,,,,,,,,,,,,,,,,,,,,,,,,,,,,,,,
,,5ba85b3a46de410001ecf951,65af54f4c6f63cf399fca60f,2024-01-23_00h07.08.688,bars,2023.2.3,Win32,60.0240096,657b66ea316d21385b68909f,,,,,,,,,,,149.848,150.847,150.848,151.347,151.347,151.598,151.598,15,195,157.998,space,6.389,,157.998,161.531,space,3.524,,0,7,7,1,1,20,bars/single001.png,bars/mask006.png,,,,,,,,,,,,,,,,,,,,,,,,,,,,,,,,,,,,,,,,,,,,,,,,,,,,,,,,,,,,,,,,
,,5ba85b3a46de410001ecf951,65af54f4c6f63cf399fca60f,2024-01-23_00h07.08.688,bars,2023.2.3,Win32,60.0240096,657b66ea316d21385b68909f,,,,,,,,,,,161.532,162.53,162.531,163.031,163.031,163.281,163.281,156,156,168.797,space,5.507,,168.797,170.531,space,1.72,,0,8,8,8,1,160,bars/single008.png,bars/mask004.png,,,,,,,,,,,,,,,,,,,,,,,,,,,,,,,,,,,,,,,,,,,,,,,,,,,,,,,,,,,,,,,,
,,5ba85b3a46de410001ecf951,65af54f4c6f63cf399fca60f,2024-01-23_00h07.08.688,bars,2023.2.3,Win32,60.0240096,657b66ea316d21385b68909f,,,,,,,,,,,170.531,171.531,171.531,172.031,172.031,172.28,172.28,45,45,179.264,space,6.972,,179.264,184.797,space,5.525,,0,9,9,7,1,45,bars/single007.png,bars/mask009.png,,,,,,,,,,,,,,,,,,,,,,,,,,,,,,,,,,,,,,,,,,,,,,,,,,,,,,,,,,,,,,,,
,,5ba85b3a46de410001ecf951,65af54f4c6f63cf399fca60f,2024-01-23_00h07.08.688,bars,2023.2.3,Win32,60.0240096,657b66ea316d21385b68909f,,,,,,,,,,,,,,,,,,,,,,,,,,,,,,,,,,,,,184.797,200.447,space,15.637,,,,,,,,,,,,,,,,,,,,,,,,,,,,,,,,,,,,,,,,,,,,,,,,,,,,,,,,,,,,
,,5ba85b3a46de410001ecf951,65af54f4c6f63cf399fca60f,2024-01-23_00h07.08.688,bars,2023.2.3,Win32,60.0240096,657b66ea316d21385b68909f,,,,,,,,,,,,,,,,,,,,,,,,,,,,,,,,,,,,,,,,,,200.451,205.447,left,4.983,,205.447,9,1,206.447,0,0,0,0,1,9,1,9,2,,,,,,,,,,,,,,,,,,,,,,,,,,,,,,,,,,,,,,,,,
,,5ba85b3a46de410001ecf951,65af54f4c6f63cf399fca60f,2024-01-23_00h07.08.688,bars,2023.2.3,Win32,60.0240096,657b66ea316d21385b68909f,,,,,,,,,,,,,,,,,,,,,,,,,,,,,,,,,,,,,,,,,,206.447,209.297,left,2.842,,209.297,10,1,210.297,0,1,1,1,1,10,0,10,1,,,,,,,,,,,,,,,,,,,,,,,,,,,,,,,,,,,,,,,,,
,,5ba85b3a46de410001ecf951,65af54f4c6f63cf399fca60f,2024-01-23_00h07.08.688,bars,2023.2.3,Win32,60.0240096,657b66ea316d21385b68909f,,,,,,,,,,,,,,,,,,,,,,,,,,,,,,,,,,,,,,,,,,210.297,213.063,right,2.752,,213.063,2,2,214.064,0,2,2,2,1,10,2,10,2,,,,,,,,,,,,,,,,,,,,,,,,,,,,,,,,,,,,,,,,,
,,5ba85b3a46de410001ecf951,65af54f4c6f63cf399fca60f,2024-01-23_00h07.08.688,bars,2023.2.3,Win32,60.0240096,657b66ea316d21385b68909f,,,,,,,,,,,,,,,,,,,,,,,,,,,,,,,,,,,,,,,,,,214.064,215.447,left,1.371,,215.447,7,1,216.447,0,3,3,3,1,8,4,7,3,,,,,,,,,,,,,,,,,,,,,,,,,,,,,,,,,,,,,,,,,
,,5ba85b3a46de410001ecf951,65af54f4c6f63cf399fca60f,2024-01-23_00h07.08.688,bars,2023.2.3,Win32,60.0240096,657b66ea316d21385b68909f,,,,,,,,,,,,,,,,,,,,,,,,,,,,,,,,,,,,,,,,,,216.447,218.864,left,2.4,,218.864,5,1,219.863,0,4,4,4,1,6,2,5,1,,,,,,,,,,,,,,,,,,,,,,,,,,,,,,,,,,,,,,,,,
,,5ba85b3a46de410001ecf951,65af54f4c6f63cf399fca60f,2024-01-23_00h07.08.688,bars,2023.2.3,Win32,60.0240096,657b66ea316d21385b68909f,,,,,,,,,,,,,,,,,,,,,,,,,,,,,,,,,,,,,,,,,,219.864,221.33,right,1.459,,221.33,4,2,222.33,0,5,5,5,1,4,4,4,4,,,,,,,,,,,,,,,,,,,,,,,,,,,,,,,,,,,,,,,,,
,,5ba85b3a46de410001ecf951,65af54f4c6f63cf399fca60f,2024-01-23_00h07.08.688,bars,2023.2.3,Win32,60.0240096,657b66ea316d21385b68909f,,,,,,,,,,,,,,,,,,,,,,,,,,,,,,,,,,,,,,,,,,222.331,225.014,left,2.672,,225.014,1,1,226.013,0,6,6,6,1,2,2,1,2,,,,,,,,,,,,,,,,,,,,,,,,,,,,,,,,,,,,,,,,,
,,5ba85b3a46de410001ecf951,65af54f4c6f63cf399fca60f,2024-01-23_00h07.08.688,bars,2023.2.3,Win32,60.0240096,657b66ea316d21385b68909f,,,,,,,,,,,,,,,,,,,,,,,,,,,,,,,,,,,,,,,,,,226.015,228.297,left,2.277,,228.297,0,1,229.297,0,7,7,7,1,0,0,0,1,,,,,,,,,,,,,,,,,,,,,,,,,,,,,,,,,,,,,,,,,
,,5ba85b3a46de410001ecf951,65af54f4c6f63cf399fca60f,2024-01-23_00h07.08.688,bars,2023.2.3,Win32,60.0240096,657b66ea316d21385b68909f,,,,,,,,,,,,,,,,,,,,,,,,,,,,,,,,,,,,,,,,,,229.297,231.181,right,1.875,,231.181,0,2,232.18,0,8,8,8,1,0,2,1,0,,,,,,,,,,,,,,,,,,,,,,,,,,,,,,,,,,,,,,,,,
,,5ba85b3a46de410001ecf951,65af54f4c6f63cf399fca60f,2024-01-23_00h07.08.688,bars,2023.2.3,Win32,60.0240096,657b66ea316d21385b68909f,,,,,,,,,,,,,,,,,,,,,,,,,,,,,,,,,,,,,,,,,,232.181,234.314,right,2.119,,234.314,3,2,235.313,0,9,9,9,1,2,4,2,3,,,,,,,,,,,,,,,,,,,,,,,,,,,,,,,,,,,,,,,,,
,,5ba85b3a46de410001ecf951,65af54f4c6f63cf399fca60f,2024-01-23_00h07.08.688,bars,2023.2.3,Win32,60.0240096,657b66ea316d21385b68909f,,,,,,,,,,,,,,,,,,,,,,,,,,,,,,,,,,,,,,,,,,235.313,239.046,left,3.723,,239.046,0,1,240.047,0,10,10,10,1,0,2,0,3,,,,,,,,,,,,,,,,,,,,,,,,,,,,,,,,,,,,,,,,,
,,5ba85b3a46de410001ecf951,65af54f4c6f63cf399fca60f,2024-01-23_00h07.08.688,bars,2023.2.3,Win32,60.0240096,657b66ea316d21385b68909f,,,,,,,,,,,,,,,,,,,,,,,,,,,,,,,,,,,,,,,,,,240.047,242.131,right,2.078,,242.131,3,2,243.129,0,11,11,11,1,0,4,0,3,,,,,,,,,,,,,,,,,,,,,,,,,,,,,,,,,,,,,,,,,
,,5ba85b3a46de410001ecf951,65af54f4c6f63cf399fca60f,2024-01-23_00h07.08.688,bars,2023.2.3,Win32,60.0240096,657b66ea316d21385b68909f,,,,,,,,,,,,,,,,,,,,,,,,,,,,,,,,,,,,,,,,,,243.13,244.897,right,1.751,,244.897,6,2,245.896,0,12,12,12,1,2,6,1,6,,,,,,,,,,,,,,,,,,,,,,,,,,,,,,,,,,,,,,,,,
,,5ba85b3a46de410001ecf951,65af54f4c6f63cf399fca60f,2024-01-23_00h07.08.688,bars,2023.2.3,Win32,60.0240096,657b66ea316d21385b68909f,,,,,,,,,,,,,,,,,,,,,,,,,,,,,,,,,,,,,,,,,,245.897,248.014,right,2.109,,248.014,3,2,249.014,0,13,13,13,1,0,4,1,3,,,,,,,,,,,,,,,,,,,,,,,,,,,,,,,,,,,,,,,,,
,,5ba85b3a46de410001ecf951,65af54f4c6f63cf399fca60f,2024-01-23_00h07.08.688,bars,2023.2.3,Win32,60.0240096,657b66ea316d21385b68909f,,,,,,,,,,,,,,,,,,,,,,,,,,,,,,,,,,,,,,,,,,249.014,249.497,left,0.473,,249.497,2,1,250.496,0,14,14,14,1,2,6,2,7,,,,,,,,,,,,,,,,,,,,,,,,,,,,,,,,,,,,,,,,,
,,5ba85b3a46de410001ecf951,65af54f4c6f63cf399fca60f,2024-01-23_00h07.08.688,bars,2023.2.3,Win32,60.0240096,657b66ea316d21385b68909f,,,,,,,,,,,,,,,,,,,,,,,,,,,,,,,,,,,,,,,,,,250.497,252.163,right,1.653,,252.163,9,2,253.163,0,15,15,15,1,4,8,3,9,,,,,,,,,,,,,,,,,,,,,,,,,,,,,,,,,,,,,,,,,
,,5ba85b3a46de410001ecf951,65af54f4c6f63cf399fca60f,2024-01-23_00h07.08.688,bars,2023.2.3,Win32,60.0240096,657b66ea316d21385b68909f,,,,,,,,,,,,,,,,,,,,,,,,,,,,,,,,,,,,,,,,,,253.163,255.113,right,1.94,,255.113,7,2,256.113,0,16,16,16,1,6,6,7,7,,,,,,,,,,,,,,,,,,,,,,,,,,,,,,,,,,,,,,,,,
,,5ba85b3a46de410001ecf951,65af54f4c6f63cf399fca60f,2024-01-23_00h07.08.688,bars,2023.2.3,Win32,60.0240096,657b66ea316d21385b68909f,,,,,,,,,,,,,,,,,,,,,,,,,,,,,,,,,,,,,,,,,,256.113,256.696,left,0.573,,256.696,9,1,257.697,0,17,17,17,1,8,4,9,5,,,,,,,,,,,,,,,,,,,,,,,,,,,,,,,,,,,,,,,,,
,,5ba85b3a46de410001ecf951,65af54f4c6f63cf399fca60f,2024-01-23_00h07.08.688,bars,2023.2.3,Win32,60.0240096,657b66ea316d21385b68909f,,,,,,,,,,,,,,,,,,,,,,,,,,,,,,,,,,,,,,,,,,257.698,260.08,left,2.367,,260.08,5,1,261.08,0,18,18,18,1,6,2,5,1,,,,,,,,,,,,,,,,,,,,,,,,,,,,,,,,,,,,,,,,,
,,5ba85b3a46de410001ecf951,65af54f4c6f63cf399fca60f,2024-01-23_00h07.08.688,bars,2023.2.3,Win32,60.0240096,657b66ea316d21385b68909f,,,,,,,,,,,,,,,,,,,,,,,,,,,,,,,,,,,,,,,,,,261.08,261.764,right,0.666,,261.764,0,2,262.763,0,19,19,19,1,8,0,7,0,,,,,,,,,,,,,,,,,,,,,,,,,,,,,,,,,,,,,,,,,
,,5ba85b3a46de410001ecf951,65af54f4c6f63cf399fca60f,2024-01-23_00h07.08.688,bars,2023.2.3,Win32,60.0240096,657b66ea316d21385b68909f,,,,,,,,,,,,,,,,,,,,,,,,,,,,,,,,,,,,,,,,,,,,,,,,,,,,,,,,,,,,262.763,279.014,space,16.23,,,,,,,,,,,,,,,,,,,,,,,,,,,,,,,,,,,,,
,,5ba85b3a46de410001ecf951,65af54f4c6f63cf399fca60f,2024-01-23_00h07.08.688,bars,2023.2.3,Win32,60.0240096,657b66ea316d21385b68909f,,,,,,,,,,,281.55,282.547,,,283.046,283.297,,160,160,,,,,,,,,,,,,,,,bars/021.png,bars/mask007.png,,,,,,,,,,,,5,1,,,,,,,6,1,6,0,,,,,,279.015,281.547,space,2.522,,282.547,283.046,283.297,289.43,space,6.116,,289.43,5,90,290.431,290.431,306.997,space,16.54,,0,0,0,0,1,155,70,,,,,,,,
,,5ba85b3a46de410001ecf951,65af54f4c6f63cf399fca60f,2024-01-23_00h07.08.688,bars,2023.2.3,Win32,60.0240096,657b66ea316d21385b68909f,,,,,,,,,,,306.998,307.996,,,308.496,308.746,,139,-41,,,,,,,,,,,,,,,,bars/010.png,bars/mask006.png,,,,,,,,,,,,1,1,,,,,,,8,3,8,3,,,,,,,,,,,307.996,308.496,308.746,314.213,space,5.459,,314.213,26,84,315.213,315.213,323.146,space,7.922,,0,1,1,1,1,165,55,,,,,,,,
,,5ba85b3a46de410001ecf951,65af54f4c6f63cf399fca60f,2024-01-23_00h07.08.688,bars,2023.2.3,Win32,60.0240096,657b66ea316d21385b68909f,,,,,,,,,,,323.147,324.146,,,324.646,324.896,,81,81,,,,,,,,,,,,,,,,bars/018.png,bars/mask005.png,,,,,,,,,,,,4,2,,,,,,,10,5,10,6,,,,,,,,,,,324.146,324.646,324.896,331.08,space,6.169,,331.08,69,9,332.08,332.08,336.546,space,4.454,,0,2,2,2,1,150,90,,,,,,,,
,,5ba85b3a46de410001ecf951,65af54f4c6f63cf399fca60f,2024-01-23_00h07.08.688,bars,2023.2.3,Win32,60.0240096,657b66ea316d21385b68909f,,,,,,,,,,,336.547,337.546,,,338.046,338.296,,39,219,,,,,,,,,,,,,,,,bars/006.png,bars/mask006.png,,,,,,,,,,,,8,1,,,,,,,10,3,9,2,,,,,,,,,,,337.546,338.046,338.296,343.479,space,5.178,,343.479,4,61,344.479,344.479,348.162,space,3.662,,0,3,3,3,1,35,100,,,,,,,,
,,5ba85b3a46de410001ecf951,65af54f4c6f63cf399fca60f,2024-01-23_00h07.08.688,bars,2023.2.3,Win32,60.0240096,657b66ea316d21385b68909f,,,,,,,,,,,348.163,349.163,,,349.662,349.912,,78,78,,,,,,,,,,,,,,,,bars/029.png,bars/mask002.png,,,,,,,,,,,,4,1,,,,,,,8,1,7,1,,,,,,,,,,,349.163,349.662,349.912,355.613,space,5.691,,355.613,12,33,356.613,356.613,365.147,space,8.527,,0,4,4,4,1,90,45,,,,,,,,
,,5ba85b3a46de410001ecf951,65af54f4c6f63cf399fca60f,2024-01-23_00h07.08.688,bars,2023.2.3,Win32,60.0240096,657b66ea316d21385b68909f,,,,,,,,,,,365.147,366.145,,,366.646,366.896,,169,169,,,,,,,,,,,,,,,,bars/024.png,bars/mask006.png,,,,,,,,,,,,0,2,,,,,,,6,0,6,0,,,,,,,,,,,366.145,366.646,366.896,373.279,space,6.375,,373.279,49,1,374.279,374.279,381.013,space,6.714,,0,5,5,5,1,120,170,,,,,,,,
,,5ba85b3a46de410001ecf951,65af54f4c6f63cf399fca60f,2024-01-23_00h07.08.688,bars,2023.2.3,Win32,60.0240096,657b66ea316d21385b68909f,,,,,,,,,,,381.013,382.012,,,382.513,382.763,,102,102,,,,,,,,,,,,,,,,bars/009.png,bars/mask007.png,,,,,,,,,,,,1,2,,,,,,,8,0,7,1,,,,,,,,,,,382.012,382.512,382.763,388.062,space,5.294,,388.062,87,3,389.062,389.062,395.096,space,6.026,,0,6,6,6,1,15,105,,,,,,,,
,,5ba85b3a46de410001ecf951,65af54f4c6f63cf399fca60f,2024-01-23_00h07.08.688,bars,2023.2.3,Win32,60.0240096,657b66ea316d21385b68909f,,,,,,,,,,,395.097,396.095,,,396.596,396.846,,15,195,,,,,,,,,,,,,,,,bars/021.png,bars/mask000.png,,,,,,,,,,,,0,1,,,,,,,10,2,10,3,,,,,,,,,,,396.095,396.596,396.846,402.812,space,5.95,,402.812,40,55,403.812,403.812,411.595,space,7.765,,0,7,7,7,1,155,70,,,,,,,,
,,5ba85b3a46de410001ecf951,65af54f4c6f63cf399fca60f,2024-01-23_00h07.08.688,bars,2023.2.3,Win32,60.0240096,657b66ea316d21385b68909f,,,,,,,,,,,411.596,412.595,,,413.096,413.346,,157,-23,,,,,,,,,,,,,,,,bars/049.png,bars/mask000.png,,,,,,,,,,,,8,1,,,,,,,8,0,9,0,,,,,,,,,,,412.595,413.095,413.346,420.679,space,7.324,,420.679,3,42,421.678,421.678,425.846,space,4.158,,0,8,8,8,1,160,115,,,,,,,,
,,5ba85b3a46de410001ecf951,65af54f4c6f63cf399fca60f,2024-01-23_00h07.08.688,bars,2023.2.3,Win32,60.0240096,657b66ea316d21385b68909f,,,,,,,,,,,425.847,426.845,,,427.345,427.595,,99,99,,,,,,,,,,,,,,,,bars/020.png,bars/mask004.png,,,,,,,,,,,,4,1,,,,,,,6,0,8,0,,,,,,,,,,,426.845,427.345,427.595,433.979,space,6.367,,433.979,16,71,434.979,434.979,437.679,space,2.692,,0,9,9,9,1,115,170,,,,,,,,
,,5ba85b3a46de410001ecf951,65af54f4c6f63cf399fca60f,2024-01-23_00h07.08.688,bars,2023.2.3,Win32,60.0240096,657b66ea316d21385b68909f,,,,,,,,,,,437.68,438.678,,,439.179,439.428,,165,-15,,,,,,,,,,,,,,,,bars/035.png,bars/mask006.png,,,,,,,,,,,,2,1,,,,,,,4,2,3,0,,,,,,,,,,,438.678,439.178,439.428,445.362,space,5.917,,445.362,10,75,446.361,446.361,451.245,space,4.865,,0,10,10,10,1,175,60,,,,,,,,
,,5ba85b3a46de410001ecf951,65af54f4c6f63cf399fca60f,2024-01-23_00h07.08.688,bars,2023.2.3,Win32,60.0240096,657b66ea316d21385b68909f,,,,,,,,,,,451.245,452.245,,,452.745,452.995,,14,194,,,,,,,,,,,,,,,,bars/014.png,bars/mask003.png,,,,,,,,,,,,1,2,,,,,,,2,0,2,1,,,,,,,,,,,452.245,452.745,452.995,457.329,space,4.317,,457.329,66,14,458.328,458.328,465.779,space,7.439,,0,11,11,11,1,80,0,,,,,,,,
,,5ba85b3a46de410001ecf951,65af54f4c6f63cf399fca60f,2024-01-23_00h07.08.688,bars,2023.2.3,Win32,60.0240096,657b66ea316d21385b68909f,,,,,,,,,,,465.779,466.778,,,467.279,467.528,,124,124,,,,,,,,,,,,,,,,bars/015.png,bars/mask001.png,,,,,,,,,,,,3,1,,,,,,,4,2,6,2,,,,,,,,,,,466.778,467.279,467.528,474.128,space,6.583,,474.128,14,36,475.128,475.128,479.711,space,4.57,,0,12,12,12,1,110,160,,,,,,,,
,,5ba85b3a46de410001ecf951,65af54f4c6f63cf399fca60f,2024-01-23_00h07.08.688,bars,2023.2.3,Win32,60.0240096,657b66ea316d21385b68909f,,,,,,,,,,,479.713,480.711,,,481.212,481.461,,133,133,,,,,,,,,,,,,,,,bars/037.png,bars/mask002.png,,,,,,,,,,,,1,1,,,,,,,2,0,2,2,,,,,,,,,,,480.711,481.212,481.461,488.344,space,6.867,,488.344,17,28,489.345,489.345,491.945,space,2.583,,0,13,13,13,1,150,105,,,,,,,,
,,5ba85b3a46de410001ecf951,65af54f4c6f63cf399fca60f,2024-01-23_00h07.08.688,bars,2023.2.3,Win32,60.0240096,657b66ea316d21385b68909f,,,,,,,,,,,491.946,492.945,,,493.445,493.694,,135,135,,,,,,,,,,,,,,,,bars/030.png,bars/mask006.png,,,,,,,,,,,,5,1,,,,,,,4,0,6,0,,,,,,,,,,,492.945,493.445,493.694,500.661,space,6.951,,500.661,5,70,501.661,501.661,506.161,space,4.484,,0,14,14,14,1,140,65,,,,,,,,
,,5ba85b3a46de410001ecf951,65af54f4c6f63cf399fca60f,2024-01-23_00h07.08.688,bars,2023.2.3,Win32,60.0240096,657b66ea316d21385b68909f,,,,,,,,,,,506.162,507.161,,,507.661,507.911,,64,64,,,,,,,,,,,,,,,,bars/048.png,bars/mask009.png,,,,,,,,,,,,3,1,,,,,,,6,2,6,3,,,,,,,,,,,507.161,507.661,507.911,515.278,space,7.354,,515.278,14,69,516.278,516.278,521.978,space,5.683,,0,15,15,15,1,50,175,,,,,,,,
,,5ba85b3a46de410001ecf951,65af54f4c6f63cf399fca60f,2024-01-23_00h07.08.688,bars,2023.2.3,Win32,60.0240096,657b66ea316d21385b68909f,,,,,,,,,,,521.979,522.978,,,523.478,523.728,,166,166,,,,,,,,,,,,,,,,bars/007.png,bars/mask006.png,,,,,,,,,,,,6,1,,,,,,,8,4,9,2,,,,,,,,,,,522.978,523.478,523.728,530.412,space,6.666,,530.412,9,69,531.411,531.411,537.678,space,6.255,,0,16,16,16,1,175,55,,,,,,,,
,,5ba85b3a46de410001ecf951,65af54f4c6f63cf399fca60f,2024-01-23_00h07.08.688,bars,2023.2.3,Win32,60.0240096,657b66ea316d21385b68909f,,,,,,,,,,,537.679,538.678,,,539.177,539.428,,7,7,,,,,,,,,,,,,,,,bars/009.png,bars/mask004.png,,,,,,,,,,,,4,1,,,,,,,6,2,5,1,,,,,,,,,,,538.678,539.177,539.428,549.711,space,10.266,,549.711,8,82,550.711,550.711,553.211,space,2.494,,0,17,17,17,1,15,105,,,,,,,,
,,5ba85b3a46de410001ecf951,65af54f4c6f63cf399fca60f,2024-01-23_00h07.08.688,bars,2023.2.3,Win32,60.0240096,657b66ea316d21385b68909f,,,,,,,,,,,553.211,554.211,,,554.711,554.961,,57,57,,,,,,,,,,,,,,,,bars/007.png,bars/mask004.png,,,,,,,,,,,,0,2,,,,,,,4,0,4,0,,,,,,,,,,,554.211,554.711,554.961,558.828,space,3.861,,558.828,62,2,559.827,559.827,567.178,space,7.336,,0,18,18,18,1,175,55,,,,,,,,
,,5ba85b3a46de410001ecf951,65af54f4c6f63cf399fca60f,2024-01-23_00h07.08.688,bars,2023.2.3,Win32,60.0240096,657b66ea316d21385b68909f,,,,,,,,,,,567.178,568.177,,,568.677,568.927,,142,142,,,,,,,,,,,,,,,,bars/026.png,bars/mask005.png,,,,,,,,,,,,0,2,,,,,,,6,2,6,2,,,,,,,,,,,568.177,568.677,568.927,577.077,space,8.145,,577.077,73,57,578.077,578.077,583.478,space,5.383,,0,19,19,19,1,35,85,,,,,,,,
,,5ba85b3a46de410001ecf951,65af54f4c6f63cf399fca60f,2024-01-23_00h07.08.688,bars,2023.2.3,Win32,60.0240096,657b66ea316d21385b68909f,,,,,,,,,,,583.478,584.478,,,584.977,585.228,,149,149,,,,,,,,,,,,,,,,bars/018.png,bars/mask007.png,,,,,,,,,,,,7,1,,,,,,,8,4,7,6,,,,,,,,,,,584.478,584.977,585.228,589.777,space,4.536,,589.777,1,59,590.777,590.777,593.411,space,2.621,,0,20,20,20,1,150,90,,,,,,,,
,,5ba85b3a46de410001ecf951,65af54f4c6f63cf399fca60f,2024-01-23_00h07.08.688,bars,2023.2.3,Win32,60.0240096,657b66ea316d21385b68909f,,,,,,,,,,,593.411,594.411,,,594.911,595.16,,143,143,,,,,,,,,,,,,,,,bars/018.png,bars/mask003.png,,,,,,,,,,,,7,1,,,,,,,10,6,9,8,,,,,,,,,,,594.411,594.911,595.161,598.777,space,3.603,,598.777,7,53,599.778,599.778,603.194,space,3.402,,0,21,21,21,1,150,90,,,,,,,,
,,5ba85b3a46de410001ecf951,65af54f4c6f63cf399fca60f,2024-01-23_00h07.08.688,bars,2023.2.3,Win32,60.0240096,657b66ea316d21385b68909f,,,,,,,,,,,603.194,604.193,,,604.694,604.943,,16,16,,,,,,,,,,,,,,,,bars/041.png,bars/mask006.png,,,,,,,,,,,,7,1,,,,,,,8,4,8,4,,,,,,,,,,,604.193,604.694,604.943,609.444,space,4.494,,609.444,4,69,610.444,610.444,614.994,space,4.537,,0,22,22,22,1,20,85,,,,,,,,
,,5ba85b3a46de410001ecf951,65af54f4c6f63cf399fca60f,2024-01-23_00h07.08.688,bars,2023.2.3,Win32,60.0240096,657b66ea316d21385b68909f,,,,,,,,,,,614.994,615.994,,,616.493,616.743,,85,85,,,,,,,,,,,,,,,,bars/016.png,bars/mask006.png,,,,,,,,,,,,0,1,,,,,,,10,2,10,1,,,,,,,,,,,615.994,616.493,616.744,623.494,space,6.743,,623.494,45,80,624.493,624.493,631.861,space,7.348,,0,23,23,23,1,40,165,,,,,,,,
,,5ba85b3a46de410001ecf951,65af54f4c6f63cf399fca60f,2024-01-23_00h07.08.688,bars,2023.2.3,Win32,60.0240096,657b66ea316d21385b68909f,,,,,,,,,,,631.861,632.861,,,633.361,633.611,,78,78,,,,,,,,,,,,,,,,bars/011.png,bars/mask002.png,,,,,,,,,,,,3,2,,,,,,,10,4,10,4,,,,,,,,,,,632.861,633.361,633.611,641.927,space,8.303,,641.927,82,7,642.927,642.927,645.377,space,2.431,,0,24,24,24,1,160,85,,,,,,,,
,,5ba85b3a46de410001ecf951,65af54f4c6f63cf399fca60f,2024-01-23_00h07.08.688,bars,2023.2.3,Win32,60.0240096,657b66ea316d21385b68909f,,,,,,,,,,,645.377,646.377,,,646.877,647.127,,49,49,,,,,,,,,,,,,,,,bars/007.png,bars/mask009.png,,,,,,,,,,,,4,2,,,,,,,10,6,9,5,,,,,,,,,,,646.377,646.877,647.127,653.543,space,6.4,,653.543,54,6,654.543,654.543,657.127,space,2.571,,0,25,25,25,1,175,55,,,,,,,,
,,5ba85b3a46de410001ecf951,65af54f4c6f63cf399fca60f,2024-01-23_00h07.08.688,bars,2023.2.3,Win32,60.0240096,657b66ea316d21385b68909f,,,,,,,,,,,657.129,658.126,,,658.627,658.877,,105,105,,,,,,,,,,,,,,,,bars/002.png,bars/mask008.png,,,,,,,,,,,,3,2,,,,,,,10,8,10,9,,,,,,,,,,,658.127,658.627,658.877,666.31,space,7.417,,666.31,25,20,667.31,667.31,671.81,space,4.495,,0,26,26,26,1,130,85,,,,,,,,
,,5ba85b3a46de410001ecf951,65af54f4c6f63cf399fca60f,2024-01-23_00h07.08.688,bars,2023.2.3,Win32,60.0240096,657b66ea316d21385b68909f,,,,,,,,,,,671.811,672.81,,,673.31,673.56,,173,173,,,,,,,,,,,,,,,,bars/008.png,bars/mask002.png,,,,,,,,,,,,8,2,,,,,,,10,10,10,10,,,,,,,,,,,672.81,673.31,673.56,683.177,space,9.606,,683.177,63,7,684.177,684.177,686.176,space,1.984,,0,27,27,27,1,110,0,,,,,,,,
,,5ba85b3a46de410001ecf951,65af54f4c6f63cf399fca60f,2024-01-23_00h07.08.688,bars,2023.2.3,Win32,60.0240096,657b66ea316d21385b68909f,,,,,,,,,,,686.177,687.177,,,687.676,687.926,,162,-18,,,,,,,,,,,,,,,,bars/024.png,bars/mask000.png,,,,,,,,,,,,7,2,,,,,,,8,10,8,9,,,,,,,,,,,687.177,687.676,687.926,694.093,space,6.161,,694.094,42,8,695.093,695.093,706.11,space,11.002,,0,28,28,28,1,120,170,,,,,,,,
,,5ba85b3a46de410001ecf951,65af54f4c6f63cf399fca60f,2024-01-23_00h07.08.688,bars,2023.2.3,Win32,60.0240096,657b66ea316d21385b68909f,,,,,,,,,,,706.111,707.11,,,707.609,707.86,,155,-25,,,,,,,,,,,,,,,,bars/033.png,bars/mask009.png,,,,,,,,,,,,8,2,,,,,,,6,8,5,8,,,,,,,,,,,707.11,707.609,707.86,714.41,space,6.535,,714.41,50,0,715.41,715.41,717.843,space,2.425,,0,29,29,29,1,25,155,,,,,,,,
,,5ba85b3a46de410001ecf951,65af54f4c6f63cf399fca60f,2024-01-23_00h07.08.688,bars,2023.2.3,Win32,60.0240096,657b66ea316d21385b68909f,,,,,,,,,,,717.844,718.844,,,719.344,719.593,,128,128,,,,,,,,,,,,,,,,bars/004.png,bars/mask004.png,,,,,,,,,,,,9,2,,,,,,,4,10,5,10,,,,,,,,,,,718.844,719.344,719.593,726.093,space,6.492,,726.093,77,3,727.093,727.093,731.61,space,4.502,,0,30,30,30,1,25,125,,,,,,,,
,,5ba85b3a46de410001ecf951,65af54f4c6f63cf399fca60f,2024-01-23_00h07.08.688,bars,2023.2.3,Win32,60.0240096,657b66ea316d21385b68909f,,,,,,,,,,,731.611,732.609,,,733.11,733.359,,9,9,,,,,,,,,,,,,,,,bars/012.png,bars/mask004.png,,,,,,,,,,,,7,2,,,,,,,2,8,1,9,,,,,,,,,,,732.609,733.11,733.359,737.792,space,4.416,,737.794,81,6,738.792,738.792,741.51,space,2.7,,0,31,31,31,1,90,15,,,,,,,,
,,5ba85b3a46de410001ecf951,65af54f4c6f63cf399fca60f,2024-01-23_00h07.08.688,bars,2023.2.3,Win32,60.0240096,657b66ea316d21385b68909f,,,,,,,,,,,741.511,742.509,,,743.009,743.259,,165,165,,,,,,,,,,,,,,,,bars/033.png,bars/mask008.png,,,,,,,,,,,,5,2,,,,,,,0,10,0,7,,,,,,,,,,,742.509,743.009,743.259,750.576,space,7.3,,750.576,40,10,751.576,751.576,764.843,space,13.25,,0,32,32,32,1,25,155,,,,,,,,
,,5ba85b3a46de410001ecf951,65af54f4c6f63cf399fca60f,2024-01-23_00h07.08.688,bars,2023.2.3,Win32,60.0240096,657b66ea316d21385b68909f,,,,,,,,,,,764.845,765.843,,,766.343,766.593,,80,80,,,,,,,,,,,,,,,,bars/026.png,bars/mask003.png,,,,,,,,,,,,6,2,,,,,,,2,8,2,7,,,,,,,,,,,765.843,766.342,766.593,772.46,space,5.857,,772.46,45,5,773.459,773.459,775.743,space,2.266,,0,33,33,33,1,35,85,,,,,,,,
,,5ba85b3a46de410001ecf951,65af54f4c6f63cf399fca60f,2024-01-23_00h07.08.688,bars,2023.2.3,Win32,60.0240096,657b66ea316d21385b68909f,,,,,,,,,,,775.744,776.743,,,777.242,777.493,,76,76,,,,,,,,,,,,,,,,bars/009.png,bars/mask007.png,,,,,,,,,,,,0,2,,,,,,,0,10,1,10,,,,,,,,,,,776.743,777.242,777.493,782.159,space,4.654,,782.159,61,29,783.159,783.159,785.809,space,2.635,,0,34,34,34,1,15,105,,,,,,,,
,,5ba85b3a46de410001ecf951,65af54f4c6f63cf399fca60f,2024-01-23_00h07.08.688,bars,2023.2.3,Win32,60.0240096,657b66ea316d21385b68909f,,,,,,,,,,,785.81,786.809,,,787.31,787.559,,139,139,,,,,,,,,,,,,,,,bars/005.png,bars/mask006.png,,,,,,,,,,,,10,2,,,,,,,2,10,1,10,,,,,,,,,,,786.809,787.309,787.559,794.443,space,6.878,,794.443,51,1,795.442,795.442,803.443,space,7.983,,0,35,35,35,1,10,140,,,,,,,,
,,5ba85b3a46de410001ecf951,65af54f4c6f63cf399fca60f,2024-01-23_00h07.08.688,bars,2023.2.3,Win32,60.0240096,657b66ea316d21385b68909f,,,,,,,,,,,803.443,804.442,,,804.943,805.192,,16,16,,,,,,,,,,,,,,,,bars/013.png,bars/mask005.png,,,,,,,,,,,,7,2,,,,,,,4,10,4,9,,,,,,,,,,,804.442,804.943,805.192,810.576,space,5.367,,810.576,59,6,811.576,811.576,813.809,space,2.223,,0,36,36,36,1,75,10,,,,,,,,
,,5ba85b3a46de410001ecf951,65af54f4c6f63cf399fca60f,2024-01-23_00h07.08.688,bars,2023.2.3,Win32,60.0240096,657b66ea316d21385b68909f,,,,,,,,,,,813.809,814.809,,,815.309,815.559,,98,98,,,,,,,,,,,,,,,,bars/028.png,bars/mask007.png,,,,,,,,,,,,2,2,,,,,,,6,10,6,9,,,,,,,,,,,814.809,815.308,815.559,819.693,space,4.12,,819.693,53,22,820.692,820.692,825.344,space,4.645,,0,37,37,37,1,45,120,,,,,,,,
,,5ba85b3a46de410001ecf951,65af54f4c6f63cf399fca60f,2024-01-23_00h07.08.688,bars,2023.2.3,Win32,60.0240096,657b66ea316d21385b68909f,,,,,,,,,,,825.345,826.342,,,826.843,827.092,,175,175,,,,,,,,,,,,,,,,bars/024.png,bars/mask004.png,,,,,,,,,,,,7,2,,,,,,,8,10,9,8,,,,,,,,,,,826.342,826.843,827.092,830.226,space,3.125,,830.226,55,5,831.225,831.226,835.559,space,4.317,,0,38,38,38,1,120,170,,,,,,,,
,,5ba85b3a46de410001ecf951,65af54f4c6f63cf399fca60f,2024-01-23_00h07.08.688,bars,2023.2.3,Win32,60.0240096,657b66ea316d21385b68909f,,,,,,,,,,,835.56,836.559,,,837.059,837.309,,143,143,,,,,,,,,,,,,,,,bars/001.png,bars/mask006.png,,,,,,,,,,,,4,1,,,,,,,6,8,7,9,,,,,,,,,,,836.559,837.059,837.309,841.309,space,3.991,,841.309,13,58,842.309,842.309,844.609,space,2.285,,0,39,39,39,1,130,85,,,,,,,,
,,5ba85b3a46de410001ecf951,65af54f4c6f63cf399fca60f,2024-01-23_00h07.08.688,bars,2023.2.3,Win32,60.0240096,657b66ea316d21385b68909f,,,,,,,,,,,844.609,845.608,,,846.109,846.359,,24,204,,,,,,,,,,,,,,,,bars/039.png,bars/mask009.png,,,,,,,,,,,,0,1,,,,,,,4,6,4,6,,,,,,,,,,,845.609,846.109,846.359,850.976,space,4.605,,850.976,29,81,851.976,851.976,858.826,space,6.834,,0,40,40,40,1,175,105,,,,,,,,
,,5ba85b3a46de410001ecf951,65af54f4c6f63cf399fca60f,2024-01-23_00h07.08.688,bars,2023.2.3,Win32,60.0240096,657b66ea316d21385b68909f,,,,,,,,,,,858.828,859.826,,,860.325,860.575,,164,164,,,,,,,,,,,,,,,,bars/036.png,bars/mask008.png,,,,,,,,,,,,2,1,,,,,,,6,8,6,9,,,,,,,,,,,859.826,860.325,860.575,865.358,space,4.774,,865.358,19,36,866.358,866.358,869.209,space,2.839,,0,41,41,41,1,145,20,,,,,,,,
,,5ba85b3a46de410001ecf951,65af54f4c6f63cf399fca60f,2024-01-23_00h07.08.688,bars,2023.2.3,Win32,60.0240096,657b66ea316d21385b68909f,,,,,,,,,,,869.209,870.208,,,870.709,870.959,,99,99,,,,,,,,,,,,,,,,bars/020.png,bars/mask003.png,,,,,,,,,,,,1,1,,,,,,,4,10,3,10,,,,,,,,,,,870.208,870.709,870.959,876.726,space,5.761,,876.726,16,71,877.725,877.725,881.175,space,3.442,,0,42,42,42,1,115,170,,,,,,,,
,,5ba85b3a46de410001ecf951,65af54f4c6f63cf399fca60f,2024-01-23_00h07.08.688,bars,2023.2.3,Win32,60.0240096,657b66ea316d21385b68909f,,,,,,,,,,,881.176,882.175,,,882.675,882.925,,47,47,,,,,,,,,,,,,,,,bars/007.png,bars/mask003.png,,,,,,,,,,,,7,2,,,,,,,2,10,2,10,,,,,,,,,,,882.175,882.675,882.925,887.292,space,4.356,,887.292,52,8,888.292,888.292,891.542,space,3.236,,0,43,43,43,1,175,55,,,,,,,,
,,5ba85b3a46de410001ecf951,65af54f4c6f63cf399fca60f,2024-01-23_00h07.08.688,bars,2023.2.3,Win32,60.0240096,657b66ea316d21385b68909f,,,,,,,,,,,891.544,892.542,,,893.042,893.291,,146,-34,,,,,,,,,,,,,,,,bars/044.png,bars/mask002.png,,,,,,,,,,,,7,2,,,,,,,0,10,1,10,,,,,,,,,,,892.542,893.042,893.291,898.375,space,5.07,,898.375,71,9,899.375,899.375,904.625,space,5.244,,0,44,44,44,1,75,155,,,,,,,,
,,5ba85b3a46de410001ecf951,65af54f4c6f63cf399fca60f,2024-01-23_00h07.08.688,bars,2023.2.3,Win32,60.0240096,657b66ea316d21385b68909f,,,,,,,,,,,904.625,905.625,,,906.125,906.375,,142,142,,,,,,,,,,,,,,,,bars/000.png,bars/mask009.png,,,,,,,,,,,,8,2,,,,,,,2,10,1,9,,,,,,,,,,,905.625,906.125,906.375,911.275,space,4.886,,911.275,78,3,912.275,912.275,915.008,space,2.722,,0,45,45,45,1,40,145,,,,,,,,
,,5ba85b3a46de410001ecf951,65af54f4c6f63cf399fca60f,2024-01-23_00h07.08.688,bars,2023.2.3,Win32,60.0240096,657b66ea316d21385b68909f,,,,,,,,,,,915.008,916.008,,,916.508,916.758,,145,145,,,,,,,,,,,,,,,,bars/024.png,bars/mask009.png,,,,,,,,,,,,2,2,,,,,,,0,10,0,10,,,,,,,,,,,916.008,916.508,916.758,921.659,space,4.886,,921.659,25,25,922.659,922.659,925.708,space,3.034,,0,46,46,46,1,120,170,,,,,,,,
,,5ba85b3a46de410001ecf951,65af54f4c6f63cf399fca60f,2024-01-23_00h07.08.688,bars,2023.2.3,Win32,60.0240096,657b66ea316d21385b68909f,,,,,,,,,,,925.709,926.709,,,927.208,927.458,,13,13,,,,,,,,,,,,,,,,bars/016.png,bars/mask002.png,,,,,,,,,,,,0,1,,,,,,,2,8,3,7,,,,,,,,,,,926.709,927.208,927.458,933.442,space,5.973,,933.442,27,28,934.441,934.441,941.642,space,7.181,,0,47,47,47,1,40,165,,,,,,,,
,,5ba85b3a46de410001ecf951,65af54f4c6f63cf399fca60f,2024-01-23_00h07.08.688,bars,2023.2.3,Win32,60.0240096,657b66ea316d21385b68909f,,,,,,,,,,,941.642,942.642,,,943.141,943.391,,104,104,,,,,,,,,,,,,,,,bars/032.png,bars/mask007.png,,,,,,,,,,,,2,1,,,,,,,4,10,5,8,,,,,,,,,,,942.642,943.141,943.391,947.892,space,4.49,,947.892,21,84,948.891,948.891,953.941,space,5.038,,0,48,48,48,1,125,20,,,,,,,,
,,5ba85b3a46de410001ecf951,65af54f4c6f63cf399fca60f,2024-01-23_00h07.08.688,bars,2023.2.3,Win32,60.0240096,657b66ea316d21385b68909f,,,,,,,,,,,953.942,954.941,,,955.442,955.691,,87,87,,,,,,,,,,,,,,,,bars/024.png,bars/mask007.png,,,,,,,,,,,,0,1,,,,,,,6,8,6,10,,,,,,,,,,,954.941,955.442,955.691,960.574,space,4.869,,960.574,33,83,961.575,961.575,966.874,space,5.283,,0,49,49,49,1,120,170,,,,,,,,
,,5ba85b3a46de410001ecf951,65af54f4c6f63cf399fca60f,2024-01-23_00h07.08.688,bars,2023.2.3,Win32,60.0240096,657b66ea316d21385b68909f,,,,,,,,,,,,,,,,,,,,,,,,,,,,,,,,,,,,,,,,,,,,,,,,,,,,,,,,,,,,,,,,,,,,,,,,,,,,,,,,,,,,,,,,,,,,,966.875,1026.875,0,0,0,4,1,sequence_tables/blk045.csv
,,5ba85b3a46de410001ecf951,65af54f4c6f63cf399fca60f,2024-01-23_00h07.08.688,bars,2023.2.3,Win32,60.0240096,657b66ea316d21385b68909f,,,,,,,,,,,1047.328,1048.324,,,1048.824,1049.074,,94,-86,,,,,,,,,,,,,,,,bars/028.png,bars/mask003.png,,,,,,,,,,,,1,2,,,,,,,2,7,4,8,,,,,,1026.876,1047.324,space,20.444,,1048.324,1048.824,1049.074,1055.558,space,6.47,,1055.558,49,26,1056.558,1056.558,1056.561,,,,0,0,0,0,1,45,120,,,,,,,,
,,5ba85b3a46de410001ecf951,65af54f4c6f63cf399fca60f,2024-01-23_00h07.08.688,bars,2023.2.3,Win32,60.0240096,657b66ea316d21385b68909f,,,,,,,,,,,1056.561,1057.558,,,1058.057,1058.307,,153,-27,,,,,,,,,,,,,,,,bars/044.png,bars/mask000.png,,,,,,,,,,,,5,2,,,,,,,4,5,3,5,,,,,,,,,,,1057.558,1058.057,1058.307,1067.09,space,8.767,,1067.091,78,2,1068.091,1068.091,1068.092,,,,0,1,1,1,1,75,155,,,,,,,,
,,5ba85b3a46de410001ecf951,65af54f4c6f63cf399fca60f,2024-01-23_00h07.08.688,bars,2023.2.3,Win32,60.0240096,657b66ea316d21385b68909f,,,,,,,,,,,1068.092,1069.09,,,1069.591,1069.841,,104,104,,,,,,,,,,,,,,,,bars/020.png,bars/mask003.png,,,,,,,,,,,,4,1,,,,,,,6,7,7,8,,,,,,,,,,,1069.09,1069.591,1069.841,1073.84,space,3.985,,1073.841,11,66,1074.841,1074.841,1074.842,,,,0,2,2,2,1,115,170,,,,,,,,
,,5ba85b3a46de410001ecf951,65af54f4c6f63cf399fca60f,2024-01-23_00h07.08.688,bars,2023.2.3,Win32,60.0240096,657b66ea316d21385b68909f,,,,,,,,,,,1074.842,1075.841,,,1076.34,1076.59,,13,13,,,,,,,,,,,,,,,,bars/026.png,bars/mask002.png,,,,,,,,,,,,2,1,,,,,,,8,5,7,5,,,,,,,,,,,1075.841,1076.34,1076.59,1086.357,space,9.75,,1086.357,22,72,1087.358,1087.358,1087.36,,,,0,3,3,3,1,35,85,,,,,,,,
,,5ba85b3a46de410001ecf951,65af54f4c6f63cf399fca60f,2024-01-23_00h07.08.688,bars,2023.2.3,Win32,60.0240096,657b66ea316d21385b68909f,,,,,,,,,,,1087.36,1088.357,,,1088.857,1089.107,,100,280,,,,,,,,,,,,,,,,bars/002.png,bars/mask009.png,,,,,,,,,,,,1,2,,,,,,,6,3,6,2,,,,,,,,,,,1088.357,1088.857,1089.107,1096.823,space,7.7,,1096.823,30,15,1097.824,1097.824,1097.826,,,,0,4,4,4,1,130,85,,,,,,,,
,,5ba85b3a46de410001ecf951,65af54f4c6f63cf399fca60f,2024-01-23_00h07.08.688,bars,2023.2.3,Win32,60.0240096,657b66ea316d21385b68909f,,,,,,,,,,,1097.827,1098.823,,,1099.323,1099.573,,141,141,,,,,,,,,,,,,,,,bars/036.png,bars/mask009.png,,,,,,,,,,,,3,1,,,,,,,4,5,4,6,,,,,,,,,,,1098.823,1099.323,1099.573,1103.49,space,3.904,,1103.49,4,59,1104.491,1104.491,1104.493,,,,0,5,5,5,1,145,20,,,,,,,,
,,5ba85b3a46de410001ecf951,65af54f4c6f63cf399fca60f,2024-01-23_00h07.08.688,bars,2023.2.3,Win32,60.0240096,657b66ea316d21385b68909f,,,,,,,,,,,1104.493,1105.49,,,1105.99,1106.24,,68,68,,,,,,,,,,,,,,,,bars/013.png,bars/mask007.png,,,,,,,,,,,,2,1,,,,,,,2,3,3,3,,,,,,,,,,,1105.49,1105.99,1106.24,1111.04,space,4.789,,1111.04,7,58,1112.04,1112.04,1112.041,,,,0,6,6,6,1,75,10,,,,,,,,
,,5ba85b3a46de410001ecf951,65af54f4c6f63cf399fca60f,2024-01-23_00h07.08.688,bars,2023.2.3,Win32,60.0240096,657b66ea316d21385b68909f,,,,,,,,,,,1112.041,1113.04,,,1113.54,1113.791,,96,96,,,,,,,,,,,,,,,,bars/014.png,bars/mask002.png,,,,,,,,,,,,3,1,,,,,,,4,1,6,2,,,,,,,,,,,1113.04,1113.54,1113.791,1120.24,space,6.433,,1120.24,16,84,1121.241,1121.241,1121.243,,,,0,7,7,7,1,80,0,,,,,,,,
,,5ba85b3a46de410001ecf951,65af54f4c6f63cf399fca60f,2024-01-23_00h07.08.688,bars,2023.2.3,Win32,60.0240096,657b66ea316d21385b68909f,,,,,,,,,,,1121.243,1122.24,,,1122.74,1122.99,,72,72,,,,,,,,,,,,,,,,bars/022.png,bars/mask005.png,,,,,,,,,,,,1,1,,,,,,,6,3,5,4,,,,,,,,,,,1122.24,1122.74,1122.99,1126.223,space,3.227,,1126.223,23,52,1127.223,1127.223,1127.224,,,,0,8,8,8,1,95,20,,,,,,,,
,,5ba85b3a46de410001ecf951,65af54f4c6f63cf399fca60f,2024-01-23_00h07.08.688,bars,2023.2.3,Win32,60.0240096,657b66ea316d21385b68909f,,,,,,,,,,,1127.225,1128.223,,,1128.723,1128.973,,70,70,,,,,,,,,,,,,,,,bars/047.png,bars/mask007.png,,,,,,,,,,,,5,2,,,,,,,8,5,7,5,,,,,,,,,,,1128.223,1128.723,1128.973,1134.006,space,5.028,,1134.006,55,0,1135.006,1135.006,1135.009,,,,0,9,9,9,1,15,70,,,,,,,,
,,5ba85b3a46de410001ecf951,65af54f4c6f63cf399fca60f,2024-01-23_00h07.08.688,bars,2023.2.3,Win32,60.0240096,657b66ea316d21385b68909f,,,,,,,,,,,1135.01,1136.006,,,1136.507,1136.756,,3,183,,,,,,,,,,,,,,,,bars/014.png,bars/mask001.png,,,,,,,,,,,,4,2,,,,,,,10,3,10,4,,,,,,,,,,,1136.006,1136.507,1136.756,1143.407,space,6.635,,1143.407,77,3,1144.407,1144.407,1144.408,,,,0,10,10,10,1,80,0,,,,,,,,
,,5ba85b3a46de410001ecf951,65af54f4c6f63cf399fca60f,2024-01-23_00h07.08.688,bars,2023.2.3,Win32,60.0240096,657b66ea316d21385b68909f,,,,,,,,,,,1144.408,1145.407,,,1145.906,1146.156,,150,150,,,,,,,,,,,,,,,,bars/021.png,bars/mask006.png,,,,,,,,,,,,8,1,,,,,,,10,1,10,4,,,,,,,,,,,1145.407,1145.906,1146.156,1150.906,space,4.734,,1150.906,5,80,1151.907,1151.907,1151.909,,,,0,11,11,11,1,155,70,,,,,,,,
,,5ba85b3a46de410001ecf951,65af54f4c6f63cf399fca60f,2024-01-23_00h07.08.688,bars,2023.2.3,Win32,60.0240096,657b66ea316d21385b68909f,,,,,,,,,,,1151.909,1152.906,,,1153.406,1153.658,,28,28,,,,,,,,,,,,,,,,bars/006.png,bars/mask001.png,,,,,,,,,,,,8,1,,,,,,,10,3,10,3,,,,,,,,,,,1152.907,1153.406,1153.658,1158.573,space,4.908,,1158.573,7,72,1159.573,1159.573,1159.576,,,,0,12,12,12,1,35,100,,,,,,,,
,,5ba85b3a46de410001ecf951,65af54f4c6f63cf399fca60f,2024-01-23_00h07.08.688,bars,2023.2.3,Win32,60.0240096,657b66ea316d21385b68909f,,,,,,,,,,,1159.576,1160.573,,,1161.073,1161.323,,96,96,,,,,,,,,,,,,,,,bars/025.png,bars/mask001.png,,,,,,,,,,,,4,1,,,,,,,8,5,6,3,,,,,,,,,,,1160.573,1161.073,1161.323,1165.923,space,4.587,,1165.924,9,56,1166.923,1166.923,1166.924,,,,0,13,13,13,1,105,40,,,,,,,,
,,5ba85b3a46de410001ecf951,65af54f4c6f63cf399fca60f,2024-01-23_00h07.08.688,bars,2023.2.3,Win32,60.0240096,657b66ea316d21385b68909f,,,,,,,,,,,1166.925,1167.923,,,1168.423,1168.673,,52,52,,,,,,,,,,,,,,,,bars/042.png,bars/mask009.png,,,,,,,,,,,,2,2,,,,,,,10,7,10,8,,,,,,,,,,,1167.923,1168.423,1168.673,1175.073,space,6.384,,1175.073,87,23,1176.073,1176.073,1176.076,,,,0,14,14,14,1,145,75,,,,,,,,
,,5ba85b3a46de410001ecf951,65af54f4c6f63cf399fca60f,2024-01-23_00h07.08.688,bars,2023.2.3,Win32,60.0240096,657b66ea316d21385b68909f,,,,,,,,,,,1176.077,1177.073,,,1177.573,1177.823,,178,178,,,,,,,,,,,,,,,,bars/024.png,bars/mask005.png,,,,,,,,,,,,3,2,,,,,,,8,5,7,4,,,,,,,,,,,1177.073,1177.573,1177.823,1181.257,space,3.417,,1181.257,58,8,1182.256,1182.256,1182.258,,,,0,15,15,15,1,120,170,,,,,,,,
,,5ba85b3a46de410001ecf951,65af54f4c6f63cf399fca60f,2024-01-23_00h07.08.688,bars,2023.2.3,Win32,60.0240096,657b66ea316d21385b68909f,,,,,,,,,,,1182.258,1183.256,,,1183.757,1184.006,,82,82,,,,,,,,,,,,,,,,bars/013.png,bars/mask008.png,,,,,,,,,,,,4,1,,,,,,,6,3,5,5,,,,,,,,,,,1183.256,1183.757,1184.006,1187.906,space,3.89,,1187.906,7,72,1188.906,1188.906,1188.911,,,,0,16,16,16,1,75,10,,,,,,,,
,,5ba85b3a46de410001ecf951,65af54f4c6f63cf399fca60f,2024-01-23_00h07.08.688,bars,2023.2.3,Win32,60.0240096,657b66ea316d21385b68909f,,,,,,,,,,,1188.911,1189.906,,,1190.406,1190.656,,102,102,,,,,,,,,,,,,,,,bars/015.png,bars/mask001.png,,,,,,,,,,,,6,1,,,,,,,8,5,8,5,,,,,,,,,,,1189.906,1190.406,1190.656,1195.973,space,5.305,,1195.973,8,58,1196.972,1196.973,1196.974,,,,0,17,17,17,1,110,160,,,,,,,,
,,5ba85b3a46de410001ecf951,65af54f4c6f63cf399fca60f,2024-01-23_00h07.08.688,bars,2023.2.3,Win32,60.0240096,657b66ea316d21385b68909f,,,,,,,,,,,1196.974,1197.973,,,1198.473,1198.723,,131,131,,,,,,,,,,,,,,,,bars/042.png,bars/mask006.png,,,,,,,,,,,,4,1,,,,,,,6,3,7,3,,,,,,,,,,,1197.973,1198.473,1198.723,1203.19,space,4.451,,1203.19,14,56,1204.19,1204.19,1204.19,,,,0,18,18,18,1,145,75,,,,,,,,
,,5ba85b3a46de410001ecf951,65af54f4c6f63cf399fca60f,2024-01-23_00h07.08.688,bars,2023.2.3,Win32,60.0240096,657b66ea316d21385b68909f,,,,,,,,,,,1204.191,1205.189,,,1205.689,1205.94,,158,158,,,,,,,,,,,,,,,,bars/016.png,bars/mask009.png,,,,,,,,,,,,1,2,,,,,,,8,1,9,1,,,,,,,,,,,1205.189,1205.689,1205.94,1210.79,space,4.834,,1210.79,62,7,1211.789,1211.789,1211.792,,,,0,19,19,19,1,40,165,,,,,,,,
,,5ba85b3a46de410001ecf951,65af54f4c6f63cf399fca60f,2024-01-23_00h07.08.688,bars,2023.2.3,Win32,60.0240096,657b66ea316d21385b68909f,,,,,,,,,,,1211.792,1212.79,,,1213.289,1213.54,,136,136,,,,,,,,,,,,,,,,bars/043.png,bars/mask004.png,,,,,,,,,,,,0,2,,,,,,,10,0,10,0,,,,,,,,,,,1212.79,1213.289,1213.54,1222.772,space,9.226,,1222.773,74,6,1223.773,1223.773,1223.775,,,,0,20,20,20,1,30,130,,,,,,,,
,,5ba85b3a46de410001ecf951,65af54f4c6f63cf399fca60f,2024-01-23_00h07.08.688,bars,2023.2.3,Win32,60.0240096,657b66ea316d21385b68909f,,,,,,,,,,,1223.775,1224.773,,,1225.273,1225.522,,58,58,,,,,,,,,,,,,,,,bars/043.png,bars/mask002.png,,,,,,,,,,,,0,1,,,,,,,8,0,6,0,,,,,,,,,,,1224.773,1225.273,1225.522,1232.339,space,6.805,,1232.339,28,72,1233.339,1233.339,1233.342,,,,0,21,21,21,1,30,130,,,,,,,,
,,5ba85b3a46de410001ecf951,65af54f4c6f63cf399fca60f,2024-01-23_00h07.08.688,bars,2023.2.3,Win32,60.0240096,657b66ea316d21385b68909f,,,,,,,,,,,1233.342,1234.34,,,1234.839,1235.09,,102,102,,,,,,,,,,,,,,,,bars/045.png,bars/mask004.png,,,,,,,,,,,,7,1,,,,,,,6,0,7,0,,,,,,,,,,,1234.34,1234.839,1235.09,1243.473,space,8.375,,1243.473,2,88,1244.473,1244.473,1244.474,,,,0,22,22,22,1,100,10,,,,,,,,
,,5ba85b3a46de410001ecf951,65af54f4c6f63cf399fca60f,2024-01-23_00h07.08.688,bars,2023.2.3,Win32,60.0240096,657b66ea316d21385b68909f,,,,,,,,,,,1244.474,1245.473,,,1245.973,1246.223,,102,102,,,,,,,,,,,,,,,,bars/021.png,bars/mask001.png,,,,,,,,,,,,0,2,,,,,,,4,2,2,1,,,,,,,,,,,1245.473,1245.972,1246.223,1254.256,space,8.027,,1254.256,53,32,1255.255,1255.255,1255.26,,,,0,23,23,23,1,155,70,,,,,,,,
,,5ba85b3a46de410001ecf951,65af54f4c6f63cf399fca60f,2024-01-23_00h07.08.688,bars,2023.2.3,Win32,60.0240096,657b66ea316d21385b68909f,,,,,,,,,,,1255.26,1256.255,,,1256.756,1257.006,,3,183,,,,,,,,,,,,,,,,bars/018.png,bars/mask008.png,,,,,,,,,,,,0,1,,,,,,,2,4,0,4,,,,,,,,,,,1256.255,1256.756,1257.006,1261.923,space,4.9,,1261.923,33,87,1262.922,1262.923,1262.925,,,,0,24,24,24,1,150,90,,,,,,,,
,,5ba85b3a46de410001ecf951,65af54f4c6f63cf399fca60f,2024-01-23_00h07.08.688,bars,2023.2.3,Win32,60.0240096,657b66ea316d21385b68909f,,,,,,,,,,,1262.926,1263.922,,,1264.423,1264.672,,146,146,,,,,,,,,,,,,,,,bars/048.png,bars/mask004.png,,,,,,,,,,,,0,2,,,,,,,0,6,0,6,,,,,,,,,,,1263.922,1264.422,1264.672,1268.256,space,3.578,,1268.256,84,29,1269.256,1269.256,1269.258,,,,0,25,25,25,1,50,175,,,,,,,,
,,5ba85b3a46de410001ecf951,65af54f4c6f63cf399fca60f,2024-01-23_00h07.08.688,bars,2023.2.3,Win32,60.0240096,657b66ea316d21385b68909f,,,,,,,,,,,1269.258,1270.255,,,1270.756,1271.005,,113,113,,,,,,,,,,,,,,,,bars/000.png,bars/mask006.png,,,,,,,,,,,,0,2,,,,,,,2,8,3,8,,,,,,,,,,,1270.256,1270.756,1271.005,1277.589,space,6.574,,1277.589,73,32,1278.589,1278.589,1278.59,,,,0,26,26,26,1,40,145,,,,,,,,
,,5ba85b3a46de410001ecf951,65af54f4c6f63cf399fca60f,2024-01-23_00h07.08.688,bars,2023.2.3,Win32,60.0240096,657b66ea316d21385b68909f,,,,,,,,,,,1278.59,1279.589,,,1280.089,1280.339,,92,92,,,,,,,,,,,,,,,,bars/011.png,bars/mask001.png,,,,,,,,,,,,5,2,,,,,,,0,6,0,6,,,,,,,,,,,1279.589,1280.089,1280.339,1283.556,space,3.209,,1283.556,68,7,1284.555,1284.555,1284.556,,,,0,27,27,27,1,160,85,,,,,,,,
,,5ba85b3a46de410001ecf951,65af54f4c6f63cf399fca60f,2024-01-23_00h07.08.688,bars,2023.2.3,Win32,60.0240096,657b66ea316d21385b68909f,,,,,,,,,,,1284.556,1285.555,,,1286.056,1286.306,,62,62,,,,,,,,,,,,,,,,bars/042.png,bars/mask005.png,,,,,,,,,,,,5,2,,,,,,,0,8,0,8,,,,,,,,,,,1285.555,1286.056,1286.306,1291.272,space,4.952,,1291.272,83,13,1292.272,1292.272,1292.275,,,,0,28,28,28,1,145,75,,,,,,,,
,,5ba85b3a46de410001ecf951,65af54f4c6f63cf399fca60f,2024-01-23_00h07.08.688,bars,2023.2.3,Win32,60.0240096,657b66ea316d21385b68909f,,,,,,,,,,,1292.275,1293.272,,,1293.772,1294.022,,89,89,,,,,,,,,,,,,,,,bars/018.png,bars/mask008.png,,,,,,,,,,,,7,2,,,,,,,2,6,2,7,,,,,,,,,,,1293.272,1293.772,1294.022,1299.005,space,4.97,,1299.005,61,1,1300.005,1300.005,1300.006,,,,0,29,29,29,1,150,90,,,,,,,,
,,5ba85b3a46de410001ecf951,65af54f4c6f63cf399fca60f,2024-01-23_00h07.08.688,bars,2023.2.3,Win32,60.0240096,657b66ea316d21385b68909f,,,,,,,,,,,1300.006,1301.005,,,1301.506,1301.756,,100,100,,,,,,,,,,,,,,,,bars/023.png,bars/mask002.png,,,,,,,,,,,,5,2,,,,,,,0,8,0,10,,,,,,,,,,,1301.006,1301.506,1301.756,1306.939,space,5.165,,1306.939,80,15,1307.939,1307.939,1307.94,,,,0,30,30,30,1,20,115,,,,,,,,
,,5ba85b3a46de410001ecf951,65af54f4c6f63cf399fca60f,2024-01-23_00h07.08.688,bars,2023.2.3,Win32,60.0240096,657b66ea316d21385b68909f,,,,,,,,,,,1307.94,1308.939,,,1309.438,1309.688,,164,164,,,,,,,,,,,,,,,,bars/045.png,bars/mask005.png,,,,,,,,,,,,1,2,,,,,,,0,6,0,6,,,,,,,,,,,1308.939,1309.438,1309.689,1316.872,space,7.168,,1316.872,64,26,1317.873,1317.873,1317.876,,,,0,31,31,31,1,100,10,,,,,,,,
,,5ba85b3a46de410001ecf951,65af54f4c6f63cf399fca60f,2024-01-23_00h07.08.688,bars,2023.2.3,Win32,60.0240096,657b66ea316d21385b68909f,,,,,,,,,,,1317.876,1318.872,,,1319.372,1319.622,,17,17,,,,,,,,,,,,,,,,bars/033.png,bars/mask008.png,,,,,,,,,,,,2,1,,,,,,,2,8,3,7,,,,,,,,,,,1318.873,1319.372,1319.622,1329.755,space,10.126,,1329.755,8,42,1330.756,1330.756,1330.758,,,,0,32,32,32,1,25,155,,,,,,,,
,,5ba85b3a46de410001ecf951,65af54f4c6f63cf399fca60f,2024-01-23_00h07.08.688,bars,2023.2.3,Win32,60.0240096,657b66ea316d21385b68909f,,,,,,,,,,,1330.758,1331.755,,,1332.255,1332.505,,137,137,,,,,,,,,,,,,,,,bars/017.png,bars/mask003.png,,,,,,,,,,,,1,1,,,,,,,4,10,2,10,,,,,,,,,,,1331.755,1332.255,1332.505,1337.205,space,4.691,,1337.205,8,88,1338.205,1338.205,1338.206,,,,0,33,33,33,1,145,45,,,,,,,,
,,5ba85b3a46de410001ecf951,65af54f4c6f63cf399fca60f,2024-01-23_00h07.08.688,bars,2023.2.3,Win32,60.0240096,657b66ea316d21385b68909f,,,,,,,,,,,1338.206,1339.205,,,1339.705,1339.955,,23,23,,,,,,,,,,,,,,,,bars/014.png,bars/mask000.png,,,,,,,,,,,,2,2,,,,,,,6,10,7,8,,,,,,,,,,,1339.205,1339.705,1339.955,1343.106,space,3.138,,1343.106,57,23,1344.105,1344.105,1344.107,,,,0,34,34,34,1,80,0,,,,,,,,
,,5ba85b3a46de410001ecf951,65af54f4c6f63cf399fca60f,2024-01-23_00h07.08.688,bars,2023.2.3,Win32,60.0240096,657b66ea316d21385b68909f,,,,,,,,,,,1344.108,1345.105,,,1345.605,1345.855,,95,95,,,,,,,,,,,,,,,,bars/046.png,bars/mask005.png,,,,,,,,,,,,6,2,,,,,,,8,8,9,9,,,,,,,,,,,1345.105,1345.605,1345.855,1351.189,space,5.32,,1351.189,60,10,1352.189,1352.189,1352.191,,,,0,35,35,35,1,155,85,,,,,,,,
,,5ba85b3a46de410001ecf951,65af54f4c6f63cf399fca60f,2024-01-23_00h07.08.688,bars,2023.2.3,Win32,60.0240096,657b66ea316d21385b68909f,,,,,,,,,,,1352.192,1353.188,,,1353.689,1353.945,,41,41,,,,,,,,,,,,,,,,bars/027.png,bars/mask001.png,,,,,,,,,,,,7,2,,,,,,,6,10,7,10,,,,,,,,,,,1353.188,1353.689,1353.945,1357.688,space,3.728,,1357.689,69,9,1358.688,1358.688,1358.689,,,,0,36,36,36,1,110,50,,,,,,,,
,,5ba85b3a46de410001ecf951,65af54f4c6f63cf399fca60f,2024-01-23_00h07.08.688,bars,2023.2.3,Win32,60.0240096,657b66ea316d21385b68909f,,,,,,,,,,,1358.689,1359.688,,,1360.189,1360.438,,80,80,,,,,,,,,,,,,,,,bars/001.png,bars/mask004.png,,,,,,,,,,,,7,2,,,,,,,8,8,9,8,,,,,,,,,,,1359.688,1360.189,1360.438,1365.621,space,5.177,,1365.621,50,5,1366.622,1366.622,1366.623,,,,0,37,37,37,1,130,85,,,,,,,,
,,5ba85b3a46de410001ecf951,65af54f4c6f63cf399fca60f,2024-01-23_00h07.08.688,bars,2023.2.3,Win32,60.0240096,657b66ea316d21385b68909f,,,,,,,,,,,1366.623,1367.621,,,1368.121,1368.371,,98,98,,,,,,,,,,,,,,,,bars/006.png,bars/mask007.png,,,,,,,,,,,,9,2,,,,,,,10,10,10,10,,,,,,,,,,,1367.621,1368.121,1368.371,1373.072,space,4.686,,1373.072,63,2,1374.071,1374.071,1374.072,,,,0,38,38,38,1,35,100,,,,,,,,
,,5ba85b3a46de410001ecf951,65af54f4c6f63cf399fca60f,2024-01-23_00h07.08.688,bars,2023.2.3,Win32,60.0240096,657b66ea316d21385b68909f,,,,,,,,,,,1374.072,1375.071,,,1375.571,1375.821,,77,77,,,,,,,,,,,,,,,,bars/002.png,bars/mask005.png,,,,,,,,,,,,7,2,,,,,,,10,10,10,10,,,,,,,,,,,1375.071,1375.571,1375.821,1383.188,space,7.356,,1383.188,53,8,1384.188,1384.188,1384.189,,,,0,39,39,39,1,130,85,,,,,,,,
,,5ba85b3a46de410001ecf951,65af54f4c6f63cf399fca60f,2024-01-23_00h07.08.688,bars,2023.2.3,Win32,60.0240096,657b66ea316d21385b68909f,,,,,,,,,,,1384.189,1385.188,,,1385.688,1385.938,,21,201,,,,,,,,,,,,,,,,bars/020.png,bars/mask000.png,,,,,,,,,,,,0,2,,,,,,,8,8,7,7,,,,,,,,,,,1385.188,1385.688,1385.938,1391.004,space,5.057,,1391.005,86,31,1392.005,1392.005,1392.006,,,,0,40,40,40,1,115,170,,,,,,,,
,,5ba85b3a46de410001ecf951,65af54f4c6f63cf399fca60f,2024-01-23_00h07.08.688,bars,2023.2.3,Win32,60.0240096,657b66ea316d21385b68909f,,,,,,,,,,,1392.007,1393.005,,,1393.504,1393.755,,145,145,,,,,,,,,,,,,,,,bars/037.png,bars/mask007.png,,,,,,,,,,,,8,1,,,,,,,10,6,10,5,,,,,,,,,,,1393.005,1393.504,1393.755,1398.021,space,4.258,,1398.021,5,40,1399.022,1399.022,1399.024,,,,0,41,41,41,1,150,105,,,,,,,,
,,5ba85b3a46de410001ecf951,65af54f4c6f63cf399fca60f,2024-01-23_00h07.08.688,bars,2023.2.3,Win32,60.0240096,657b66ea316d21385b68909f,,,,,,,,,,,1399.024,1400.022,,,1400.521,1400.772,,157,157,,,,,,,,,,,,,,,,bars/039.png,bars/mask002.png,,,,,,,,,,,,3,1,,,,,,,8,8,7,7,,,,,,,,,,,1400.022,1400.521,1400.772,1407.621,space,6.834,,1407.621,18,52,1408.621,1408.621,1408.622,,,,0,42,42,42,1,175,105,,,,,,,,
,,5ba85b3a46de410001ecf951,65af54f4c6f63cf399fca60f,2024-01-23_00h07.08.688,bars,2023.2.3,Win32,60.0240096,657b66ea316d21385b68909f,,,,,,,,,,,1408.623,1409.622,,,1410.121,1410.371,,20,200,,,,,,,,,,,,,,,,bars/035.png,bars/mask005.png,,,,,,,,,,,,1,1,,,,,,,6,6,4,5,,,,,,,,,,,1409.622,1410.121,1410.371,1413.671,space,3.29,,1413.671,25,40,1414.671,1414.671,1414.672,,,,0,43,43,43,1,175,60,,,,,,,,
,,5ba85b3a46de410001ecf951,65af54f4c6f63cf399fca60f,2024-01-23_00h07.08.688,bars,2023.2.3,Win32,60.0240096,657b66ea316d21385b68909f,,,,,,,,,,,1414.673,1415.671,,,1416.171,1416.421,,98,98,,,,,,,,,,,,,,,,bars/009.png,bars/mask003.png,,,,,,,,,,,,3,2,,,,,,,8,4,7,4,,,,,,,,,,,1415.671,1416.171,1416.421,1424.821,space,8.386,,1424.821,83,7,1425.821,1425.821,1425.825,,,,0,44,44,44,1,15,105,,,,,,,,
,,5ba85b3a46de410001ecf951,65af54f4c6f63cf399fca60f,2024-01-23_00h07.08.688,bars,2023.2.3,Win32,60.0240096,657b66ea316d21385b68909f,,,,,,,,,,,1425.826,1426.821,,,1427.321,1427.572,,168,-12,,,,,,,,,,,,,,,,bars/016.png,bars/mask002.png,,,,,,,,,,,,5,2,,,,,,,10,6,10,6,,,,,,,,,,,1426.821,1427.321,1427.572,1432.954,space,5.367,,1432.954,52,3,1433.955,1433.955,1433.956,,,,0,45,45,45,1,40,165,,,,,,,,
,,5ba85b3a46de410001ecf951,65af54f4c6f63cf399fca60f,2024-01-23_00h07.08.688,bars,2023.2.3,Win32,60.0240096,657b66ea316d21385b68909f,,,,,,,,,,,1433.957,1434.955,,,1435.454,1435.704,,10,10,,,,,,,,,,,,,,,,bars/014.png,bars/mask001.png,,,,,,,,,,,,3,2,,,,,,,8,4,7,5,,,,,,,,,,,1434.955,1435.454,1435.704,1443.005,space,7.284,,1443.005,70,10,1444.004,1444.004,1444.006,,,,0,46,46,46,1,80,0,,,,,,,,
,,5ba85b3a46de410001ecf951,65af54f4c6f63cf399fca60f,2024-01-23_00h07.08.688,bars,2023.2.3,Win32,60.0240096,657b66ea316d21385b68909f,,,,,,,,,,,1444.006,1445.005,,,1445.504,1445.754,,100,100,,,,,,,,,,,,,,,,bars/015.png,bars/mask008.png,,,,,,,,,,,,7,1,,,,,,,10,6,10,5,,,,,,,,,,,1445.005,1445.504,1445.754,1450.405,space,4.641,,1450.405,10,60,1451.404,1451.404,1451.406,,,,0,47,47,47,1,110,160,,,,,,,,
,,5ba85b3a46de410001ecf951,65af54f4c6f63cf399fca60f,2024-01-23_00h07.08.688,bars,2023.2.3,Win32,60.0240096,657b66ea316d21385b68909f,,,,,,,,,,,1451.407,1452.404,,,1452.905,1453.154,,156,156,,,,,,,,,,,,,,,,bars/037.png,bars/mask009.png,,,,,,,,,,,,6,1,,,,,,,8,8,7,8,,,,,,,,,,,1452.404,1452.905,1453.154,1457.221,space,4.057,,1457.221,6,51,1458.221,1458.221,1458.222,,,,0,48,48,48,1,150,105,,,,,,,,
,,5ba85b3a46de410001ecf951,65af54f4c6f63cf399fca60f,2024-01-23_00h07.08.688,bars,2023.2.3,Win32,60.0240096,657b66ea316d21385b68909f,,,,,,,,,,,1458.223,1459.221,,,1459.721,1459.971,,48,48,,,,,,,,,,,,,,,,bars/044.png,bars/mask009.png,,,,,,,,,,,,1,1,,,,,,,6,10,7,10,,,,,,,,,,,1459.221,1459.721,1459.971,1463.605,space,3.625,,1463.605,27,73,1464.604,1464.604,1464.605,,,,0,49,49,49,1,75,155,,,,,,,,
,,5ba85b3a46de410001ecf951,65af54f4c6f63cf399fca60f,2024-01-23_00h07.08.688,bars,2023.2.3,Win32,60.0240096,657b66ea316d21385b68909f,,,,,,,,,,,,,,,,,,,,,,,,,,,,,,,,,,,,,,,,,,,,,,,,,,,,,,,,,,,,,,,,,,,,,,,,,,,,,,,,,,,,,,,,,,,,,1464.605,1524.605,0,1,1,3,1,sequence_tables/blk009.csv
,,5ba85b3a46de410001ecf951,65af54f4c6f63cf399fca60f,2024-01-23_00h07.08.688,bars,2023.2.3,Win32,60.0240096,657b66ea316d21385b68909f,,,,,,,,,,,1538.291,1539.287,,,1539.787,1540.037,,153,-27,,,,,,,,,,,,,,,,bars/007.png,bars/mask006.png,,,,,,,,,,,,0,1,,,,,,,0,3,0,3,,,,,,1524.605,1538.287,space,13.665,,1539.287,1539.787,1540.037,1545.27,space,5.218,,1545.27,22,82,1546.271,1546.271,1546.272,,,,0,0,0,0,1,175,55,,,,,,,,
,,5ba85b3a46de410001ecf951,65af54f4c6f63cf399fca60f,2024-01-23_00h07.08.688,bars,2023.2.3,Win32,60.0240096,657b66ea316d21385b68909f,,,,,,,,,,,1546.272,1547.27,,,1547.771,1548.02,,107,-73,,,,,,,,,,,,,,,,bars/028.png,bars/mask004.png,,,,,,,,,,,,3,2,,,,,,,2,5,0,6,,,,,,,,,,,1547.27,1547.771,1548.02,1553.787,space,5.756,,1553.787,62,13,1554.787,1554.787,1554.791,,,,0,1,1,1,1,45,120,,,,,,,,
,,5ba85b3a46de410001ecf951,65af54f4c6f63cf399fca60f,2024-01-23_00h07.08.688,bars,2023.2.3,Win32,60.0240096,657b66ea316d21385b68909f,,,,,,,,,,,1554.791,1555.787,,,1556.287,1556.537,,165,165,,,,,,,,,,,,,,,,bars/024.png,bars/mask003.png,,,,,,,,,,,,5,2,,,,,,,0,7,0,6,,,,,,,,,,,1555.787,1556.286,1556.537,1559.237,space,2.689,,1559.237,45,5,1560.237,1560.237,1560.238,,,,0,2,2,2,1,120,170,,,,,,,,
,,5ba85b3a46de410001ecf951,65af54f4c6f63cf399fca60f,2024-01-23_00h07.08.688,bars,2023.2.3,Win32,60.0240096,657b66ea316d21385b68909f,,,,,,,,,,,1560.238,1561.237,,,1561.737,1561.986,,106,106,,,,,,,,,,,,,,,,bars/026.png,bars/mask005.png,,,,,,,,,,,,2,2,,,,,,,2,5,2,5,,,,,,,,,,,1561.237,1561.736,1561.986,1566.837,space,4.84,,1566.837,71,21,1567.836,1567.836,1567.838,,,,0,3,3,3,1,35,85,,,,,,,,
,,5ba85b3a46de410001ecf951,65af54f4c6f63cf399fca60f,2024-01-23_00h07.08.688,bars,2023.2.3,Win32,60.0240096,657b66ea316d21385b68909f,,,,,,,,,,,1567.838,1568.836,,,1569.337,1569.587,,32,212,,,,,,,,,,,,,,,,bars/005.png,bars/mask006.png,,,,,,,,,,,,0,1,,,,,,,0,7,0,7,,,,,,,,,,,1568.836,1569.337,1569.587,1576.153,space,6.561,,1576.153,22,72,1577.153,1577.153,1577.155,,,,0,4,4,4,1,10,140,,,,,,,,
,,5ba85b3a46de410001ecf951,65af54f4c6f63cf399fca60f,2024-01-23_00h07.08.688,bars,2023.2.3,Win32,60.0240096,657b66ea316d21385b68909f,,,,,,,,,,,1577.156,1578.153,,,1578.653,1578.904,,68,68,,,,,,,,,,,,,,,,bars/029.png,bars/mask007.png,,,,,,,,,,,,1,1,,,,,,,2,5,3,5,,,,,,,,,,,1578.154,1578.653,1578.904,1583.386,space,4.469,,1583.386,22,23,1584.387,1584.387,1584.387,,,,0,5,5,5,1,90,45,,,,,,,,
,,5ba85b3a46de410001ecf951,65af54f4c6f63cf399fca60f,2024-01-23_00h07.08.688,bars,2023.2.3,Win32,60.0240096,657b66ea316d21385b68909f,,,,,,,,,,,1584.388,1585.387,,,1585.887,1586.137,,152,-28,,,,,,,,,,,,,,,,bars/033.png,bars/mask003.png,,,,,,,,,,,,2,2,,,,,,,0,3,0,2,,,,,,,,,,,1585.387,1585.887,1586.137,1591.187,space,5.036,,1591.187,53,3,1592.186,1592.187,1592.19,,,,0,6,6,6,1,25,155,,,,,,,,
,,5ba85b3a46de410001ecf951,65af54f4c6f63cf399fca60f,2024-01-23_00h07.08.688,bars,2023.2.3,Win32,60.0240096,657b66ea316d21385b68909f,,,,,,,,,,,1592.19,1593.186,,,1593.687,1593.937,,39,39,,,,,,,,,,,,,,,,bars/028.png,bars/mask006.png,,,,,,,,,,,,2,1,,,,,,,2,5,3,5,,,,,,,,,,,1593.186,1593.687,1593.937,1595.87,space,1.917,,1595.87,6,81,1596.87,1596.87,1596.873,,,,0,7,7,7,1,45,120,,,,,,,,
,,5ba85b3a46de410001ecf951,65af54f4c6f63cf399fca60f,2024-01-23_00h07.08.688,bars,2023.2.3,Win32,60.0240096,657b66ea316d21385b68909f,,,,,,,,,,,1596.873,1597.869,,,1598.37,1598.62,,164,164,,,,,,,,,,,,,,,,bars/021.png,bars/mask005.png,,,,,,,,,,,,0,1,,,,,,,0,7,0,8,,,,,,,,,,,1597.869,1598.37,1598.62,1602.07,space,3.435,,1602.07,9,86,1603.07,1603.07,1603.071,,,,0,8,8,8,1,155,70,,,,,,,,
,,5ba85b3a46de410001ecf951,65af54f4c6f63cf399fca60f,2024-01-23_00h07.08.688,bars,2023.2.3,Win32,60.0240096,657b66ea316d21385b68909f,,,,,,,,,,,1603.072,1604.07,,,1604.57,1604.82,,143,143,,,,,,,,,,,,,,,,bars/033.png,bars/mask003.png,,,,,,,,,,,,3,2,,,,,,,2,5,3,5,,,,,,,,,,,1604.07,1604.57,1604.82,1609.137,space,4.307,,1609.137,62,12,1610.136,1610.136,1610.139,,,,0,9,9,9,1,25,155,,,,,,,,
,,5ba85b3a46de410001ecf951,65af54f4c6f63cf399fca60f,2024-01-23_00h07.08.688,bars,2023.2.3,Win32,60.0240096,657b66ea316d21385b68909f,,,,,,,,,,,1610.139,1611.137,,,1611.636,1611.887,,114,114,,,,,,,,,,,,,,,,bars/034.png,bars/mask002.png,,,,,,,,,,,,1,1,,,,,,,0,7,1,7,,,,,,,,,,,1611.137,1611.636,1611.887,1617.286,space,5.394,,1617.287,11,49,1618.287,1618.287,1618.288,,,,0,10,10,10,1,125,65,,,,,,,,
,,5ba85b3a46de410001ecf951,65af54f4c6f63cf399fca60f,2024-01-23_00h07.08.688,bars,2023.2.3,Win32,60.0240096,657b66ea316d21385b68909f,,,,,,,,,,,1618.289,1619.287,,,1619.787,1620.036,,74,254,,,,,,,,,,,,,,,,bars/013.png,bars/mask001.png,,,,,,,,,,,,1,1,,,,,,,0,9,1,10,,,,,,,,,,,1619.287,1619.787,1620.036,1628.353,space,8.31,,1628.353,1,64,1629.353,1629.353,1629.354,,,,0,11,11,11,1,75,10,,,,,,,,
,,5ba85b3a46de410001ecf951,65af54f4c6f63cf399fca60f,2024-01-23_00h07.08.688,bars,2023.2.3,Win32,60.0240096,657b66ea316d21385b68909f,,,,,,,,,,,1629.354,1630.353,,,1630.853,1631.103,,65,65,,,,,,,,,,,,,,,,bars/029.png,bars/mask007.png,,,,,,,,,,,,2,2,,,,,,,2,7,2,7,,,,,,,,,,,1630.353,1630.853,1631.103,1634.053,space,2.933,,1634.053,25,20,1635.053,1635.053,1635.055,,,,0,12,12,12,1,90,45,,,,,,,,
,,5ba85b3a46de410001ecf951,65af54f4c6f63cf399fca60f,2024-01-23_00h07.08.688,bars,2023.2.3,Win32,60.0240096,657b66ea316d21385b68909f,,,,,,,,,,,1635.055,1636.053,,,1636.553,1636.803,,35,35,,,,,,,,,,,,,,,,bars/022.png,bars/mask002.png,,,,,,,,,,,,3,2,,,,,,,4,5,3,5,,,,,,,,,,,1636.053,1636.553,1636.803,1639.936,space,3.12,,1639.936,60,15,1640.936,1640.936,1640.938,,,,0,13,13,13,1,95,20,,,,,,,,
,,5ba85b3a46de410001ecf951,65af54f4c6f63cf399fca60f,2024-01-23_00h07.08.688,bars,2023.2.3,Win32,60.0240096,657b66ea316d21385b68909f,,,,,,,,,,,1640.938,1641.936,,,1642.436,1642.686,,75,75,,,,,,,,,,,,,,,,bars/046.png,bars/mask003.png,,,,,,,,,,,,2,2,,,,,,,2,3,1,3,,,,,,,,,,,1641.936,1642.436,1642.686,1649.052,space,6.351,,1649.053,80,10,1650.053,1650.053,1650.054,,,,0,14,14,14,1,155,85,,,,,,,,
,,5ba85b3a46de410001ecf951,65af54f4c6f63cf399fca60f,2024-01-23_00h07.08.688,bars,2023.2.3,Win32,60.0240096,657b66ea316d21385b68909f,,,,,,,,,,,1650.054,1651.053,,,1651.553,1651.803,,72,72,,,,,,,,,,,,,,,,bars/035.png,bars/mask007.png,,,,,,,,,,,,2,2,,,,,,,4,1,3,3,,,,,,,,,,,1651.053,1651.553,1651.803,1658.486,space,6.668,,1658.486,77,12,1659.486,1659.486,1659.489,,,,0,15,15,15,1,175,60,,,,,,,,
,,5ba85b3a46de410001ecf951,65af54f4c6f63cf399fca60f,2024-01-23_00h07.08.688,bars,2023.2.3,Win32,60.0240096,657b66ea316d21385b68909f,,,,,,,,,,,1659.489,1660.487,,,1660.986,1661.237,,60,60,,,,,,,,,,,,,,,,bars/044.png,bars/mask001.png,,,,,,,,,,,,3,1,,,,,,,6,0,5,0,,,,,,,,,,,1660.487,1660.986,1661.237,1674.12,space,12.868,,1674.12,15,85,1675.119,1675.119,1675.122,,,,0,16,16,16,1,75,155,,,,,,,,
,,5ba85b3a46de410001ecf951,65af54f4c6f63cf399fca60f,2024-01-23_00h07.08.688,bars,2023.2.3,Win32,60.0240096,657b66ea316d21385b68909f,,,,,,,,,,,1675.122,1676.119,,,1676.62,1676.869,,65,65,,,,,,,,,,,,,,,,bars/029.png,bars/mask006.png,,,,,,,,,,,,1,2,,,,,,,4,2,5,2,,,,,,,,,,,1676.119,1676.62,1676.869,1680.786,space,3.907,,1680.786,25,20,1681.786,1681.786,1681.79,,,,0,17,17,17,1,90,45,,,,,,,,
,,5ba85b3a46de410001ecf951,65af54f4c6f63cf399fca60f,2024-01-23_00h07.08.688,bars,2023.2.3,Win32,60.0240096,657b66ea316d21385b68909f,,,,,,,,,,,1681.79,1682.787,,,1683.286,1683.536,,17,197,,,,,,,,,,,,,,,,bars/012.png,bars/mask009.png,,,,,,,,,,,,4,2,,,,,,,6,4,7,4,,,,,,,,,,,1682.787,1683.286,1683.536,1686.536,space,2.993,,1686.536,73,2,1687.535,1687.535,1687.537,,,,0,18,18,18,1,90,15,,,,,,,,
,,5ba85b3a46de410001ecf951,65af54f4c6f63cf399fca60f,2024-01-23_00h07.08.688,bars,2023.2.3,Win32,60.0240096,657b66ea316d21385b68909f,,,,,,,,,,,1687.538,1688.536,,,1689.036,1689.286,,89,89,,,,,,,,,,,,,,,,bars/001.png,bars/mask008.png,,,,,,,,,,,,3,2,,,,,,,4,2,6,3,,,,,,,,,,,1688.536,1689.036,1689.286,1694.402,space,5.101,,1694.402,41,4,1695.403,1695.403,1695.404,,,,0,19,19,19,1,130,85,,,,,,,,
,,5ba85b3a46de410001ecf951,65af54f4c6f63cf399fca60f,2024-01-23_00h07.08.688,bars,2023.2.3,Win32,60.0240096,657b66ea316d21385b68909f,,,,,,,,,,,1695.404,1696.402,,,1696.903,1697.152,,157,157,,,,,,,,,,,,,,,,bars/048.png,bars/mask004.png,,,,,,,,,,,,2,2,,,,,,,6,4,8,4,,,,,,,,,,,1696.402,1696.903,1697.152,1701.07,space,3.907,,1701.07,73,18,1702.069,1702.069,1702.071,,,,0,20,20,20,1,50,175,,,,,,,,
,,5ba85b3a46de410001ecf951,65af54f4c6f63cf399fca60f,2024-01-23_00h07.08.688,bars,2023.2.3,Win32,60.0240096,657b66ea316d21385b68909f,,,,,,,,,,,1702.071,1703.069,,,1703.569,1703.819,,86,86,,,,,,,,,,,,,,,,bars/021.png,bars/mask009.png,,,,,,,,,,,,3,2,,,,,,,8,6,9,6,,,,,,,,,,,1703.069,1703.569,1703.819,1705.486,space,1.657,,1705.486,69,16,1706.485,1706.486,1706.486,,,,0,21,21,21,1,155,70,,,,,,,,
,,5ba85b3a46de410001ecf951,65af54f4c6f63cf399fca60f,2024-01-23_00h07.08.688,bars,2023.2.3,Win32,60.0240096,657b66ea316d21385b68909f,,,,,,,,,,,1706.487,1707.486,,,1707.986,1708.236,,15,195,,,,,,,,,,,,,,,,bars/040.png,bars/mask006.png,,,,,,,,,,,,5,2,,,,,,,10,8,9,8,,,,,,,,,,,1707.486,1707.986,1708.236,1714.602,space,6.35,,1714.602,55,10,1715.602,1715.602,1715.603,,,,0,22,22,22,1,140,5,,,,,,,,
,,5ba85b3a46de410001ecf951,65af54f4c6f63cf399fca60f,2024-01-23_00h07.08.688,bars,2023.2.3,Win32,60.0240096,657b66ea316d21385b68909f,,,,,,,,,,,1715.603,1716.603,,,1717.103,1717.352,,127,-53,,,,,,,,,,,,,,,,bars/004.png,bars/mask003.png,,,,,,,,,,,,9,2,,,,,,,8,10,7,10,,,,,,,,,,,1716.603,1717.103,1717.352,1723.186,space,5.822,,1723.186,78,2,1724.186,1724.186,1724.187,,,,0,23,23,23,1,25,125,,,,,,,,
,,5ba85b3a46de410001ecf951,65af54f4c6f63cf399fca60f,2024-01-23_00h07.08.688,bars,2023.2.3,Win32,60.0240096,657b66ea316d21385b68909f,,,,,,,,,,,1724.188,1725.185,,,1725.686,1725.935,,126,126,,,,,,,,,,,,,,,,bars/004.png,bars/mask007.png,,,,,,,,,,,,8,2,,,,,,,10,8,10,8,,,,,,,,,,,1725.185,1725.686,1725.935,1729.485,space,3.544,,1729.486,79,1,1730.486,1730.486,1730.487,,,,0,24,24,24,1,25,125,,,,,,,,
,,5ba85b3a46de410001ecf951,65af54f4c6f63cf399fca60f,2024-01-23_00h07.08.688,bars,2023.2.3,Win32,60.0240096,657b66ea316d21385b68909f,,,,,,,,,,,1730.487,1731.486,,,1731.985,1732.236,,67,67,,,,,,,,,,,,,,,,bars/029.png,bars/mask001.png,,,,,,,,,,,,2,2,,,,,,,8,6,10,6,,,,,,,,,,,1731.486,1731.985,1732.236,1738.552,space,6.309,,1738.552,23,22,1739.552,1739.552,1739.553,,,,0,25,25,25,1,90,45,,,,,,,,
,,5ba85b3a46de410001ecf951,65af54f4c6f63cf399fca60f,2024-01-23_00h07.08.688,bars,2023.2.3,Win32,60.0240096,657b66ea316d21385b68909f,,,,,,,,,,,1739.553,1740.552,,,1741.052,1741.303,,148,148,,,,,,,,,,,,,,,,bars/038.png,bars/mask005.png,,,,,,,,,,,,3,1,,,,,,,6,4,6,4,,,,,,,,,,,1740.552,1741.052,1741.303,1743.785,space,2.474,,1743.785,17,78,1744.786,1744.786,1744.788,,,,0,26,26,26,1,165,70,,,,,,,,
,,5ba85b3a46de410001ecf951,65af54f4c6f63cf399fca60f,2024-01-23_00h07.08.688,bars,2023.2.3,Win32,60.0240096,657b66ea316d21385b68909f,,,,,,,,,,,1744.788,1745.786,,,1746.285,1746.535,,23,23,,,,,,,,,,,,,,,,bars/023.png,bars/mask001.png,,,,,,,,,,,,7,1,,,,,,,8,6,8,7,,,,,,,,,,,1745.786,1746.285,1746.535,1754.503,space,7.955,,1754.503,3,88,1755.502,1755.502,1755.504,,,,0,27,27,27,1,20,115,,,,,,,,
,,5ba85b3a46de410001ecf951,65af54f4c6f63cf399fca60f,2024-01-23_00h07.08.688,bars,2023.2.3,Win32,60.0240096,657b66ea316d21385b68909f,,,,,,,,,,,1755.504,1756.502,,,1757.002,1757.252,,162,162,,,,,,,,,,,,,,,,bars/036.png,bars/mask002.png,,,,,,,,,,,,3,1,,,,,,,6,8,8,10,,,,,,,,,,,1756.502,1757.002,1757.252,1765.502,space,8.234,,1765.502,17,38,1766.502,1766.502,1766.503,,,,0,28,28,28,1,145,20,,,,,,,,
,,5ba85b3a46de410001ecf951,65af54f4c6f63cf399fca60f,2024-01-23_00h07.08.688,bars,2023.2.3,Win32,60.0240096,657b66ea316d21385b68909f,,,,,,,,,,,1766.503,1767.502,,,1768.002,1768.252,,82,82,,,,,,,,,,,,,,,,bars/022.png,bars/mask009.png,,,,,,,,,,,,4,1,,,,,,,8,6,7,6,,,,,,,,,,,1767.502,1768.002,1768.252,1773.752,space,5.484,,1773.752,13,62,1774.752,1774.752,1774.753,,,,0,29,29,29,1,95,20,,,,,,,,
,,5ba85b3a46de410001ecf951,65af54f4c6f63cf399fca60f,2024-01-23_00h07.08.688,bars,2023.2.3,Win32,60.0240096,657b66ea316d21385b68909f,,,,,,,,,,,1774.753,1775.752,,,1776.252,1776.502,,36,36,,,,,,,,,,,,,,,,bars/005.png,bars/mask008.png,,,,,,,,,,,,1,1,,,,,,,10,8,10,8,,,,,,,,,,,1775.752,1776.252,1776.502,1782.802,space,6.288,,1782.802,26,76,1783.802,1783.802,1783.803,,,,0,30,30,30,1,10,140,,,,,,,,
,,5ba85b3a46de410001ecf951,65af54f4c6f63cf399fca60f,2024-01-23_00h07.08.688,bars,2023.2.3,Win32,60.0240096,657b66ea316d21385b68909f,,,,,,,,,,,1783.803,1784.803,,,1785.302,1785.552,,130,130,,,,,,,,,,,,,,,,bars/004.png,bars/mask009.png,,,,,,,,,,,,8,2,,,,,,,8,10,6,9,,,,,,,,,,,1784.803,1785.302,1785.552,1790.102,space,4.536,,1790.102,75,5,1791.102,1791.102,1791.104,,,,0,31,31,31,1,25,125,,,,,,,,
,,5ba85b3a46de410001ecf951,65af54f4c6f63cf399fca60f,2024-01-23_00h07.08.688,bars,2023.2.3,Win32,60.0240096,657b66ea316d21385b68909f,,,,,,,,,,,1791.105,1792.102,,,1792.602,1792.851,,33,33,,,,,,,,,,,,,,,,bars/025.png,bars/mask006.png,,,,,,,,,,,,6,2,,,,,,,6,8,6,8,,,,,,,,,,,1792.102,1792.602,1792.852,1796.418,space,3.556,,1796.419,72,7,1797.418,1797.418,1797.42,,,,0,32,32,32,1,105,40,,,,,,,,
,,5ba85b3a46de410001ecf951,65af54f4c6f63cf399fca60f,2024-01-23_00h07.08.688,bars,2023.2.3,Win32,60.0240096,657b66ea316d21385b68909f,,,,,,,,,,,1797.42,1798.418,,,1798.918,1799.168,,97,97,,,,,,,,,,,,,,,,bars/006.png,bars/mask006.png,,,,,,,,,,,,9,2,,,,,,,8,10,8,10,,,,,,,,,,,1798.418,1798.918,1799.168,1804.418,space,5.234,,1804.418,62,3,1805.418,1805.418,1805.419,,,,0,33,33,33,1,35,100,,,,,,,,
,,5ba85b3a46de410001ecf951,65af54f4c6f63cf399fca60f,2024-01-23_00h07.08.688,bars,2023.2.3,Win32,60.0240096,657b66ea316d21385b68909f,,,,,,,,,,,1805.419,1806.418,,,1806.918,1807.169,,16,16,,,,,,,,,,,,,,,,bars/036.png,bars/mask000.png,,,,,,,,,,,,9,2,,,,,,,6,8,6,10,,,,,,,,,,,1806.418,1806.918,1807.169,1810.135,space,2.95,,1810.135,51,4,1811.135,1811.135,1811.137,,,,0,34,34,34,1,145,20,,,,,,,,
,,5ba85b3a46de410001ecf951,65af54f4c6f63cf399fca60f,2024-01-23_00h07.08.688,bars,2023.2.3,Win32,60.0240096,657b66ea316d21385b68909f,,,,,,,,,,,1811.137,1812.135,,,1812.635,1812.885,,29,29,,,,,,,,,,,,,,,,bars/036.png,bars/mask009.png,,,,,,,,,,,,4,2,,,,,,,4,6,4,6,,,,,,,,,,,1812.135,1812.635,1812.885,1816.085,space,3.184,,1816.085,64,9,1817.085,1817.085,1817.086,,,,0,35,35,35,1,145,20,,,,,,,,
,,5ba85b3a46de410001ecf951,65af54f4c6f63cf399fca60f,2024-01-23_00h07.08.688,bars,2023.2.3,Win32,60.0240096,657b66ea316d21385b68909f,,,,,,,,,,,1817.086,1818.085,,,1818.586,1818.835,,77,77,,,,,,,,,,,,,,,,bars/021.png,bars/mask000.png,,,,,,,,,,,,3,2,,,,,,,2,4,2,4,,,,,,,,,,,1818.085,1818.586,1818.835,1831.386,space,12.538,,1831.386,78,7,1832.385,1832.385,1832.387,,,,0,36,36,36,1,155,70,,,,,,,,
,,5ba85b3a46de410001ecf951,65af54f4c6f63cf399fca60f,2024-01-23_00h07.08.688,bars,2023.2.3,Win32,60.0240096,657b66ea316d21385b68909f,,,,,,,,,,,1832.387,1833.385,,,1833.885,1834.135,,113,113,,,,,,,,,,,,,,,,bars/000.png,bars/mask002.png,,,,,,,,,,,,0,2,,,,,,,4,6,4,4,,,,,,,,,,,1833.385,1833.885,1834.135,1841.551,space,7.401,,1841.551,73,32,1842.551,1842.551,1842.553,,,,0,37,37,37,1,40,145,,,,,,,,
,,5ba85b3a46de410001ecf951,65af54f4c6f63cf399fca60f,2024-01-23_00h07.08.688,bars,2023.2.3,Win32,60.0240096,657b66ea316d21385b68909f,,,,,,,,,,,1842.553,1843.551,,,1844.051,1844.301,,141,141,,,,,,,,,,,,,,,,bars/034.png,bars/mask003.png,,,,,,,,,,,,0,1,,,,,,,2,8,1,7,,,,,,,,,,,1843.551,1844.051,1844.301,1849.552,space,5.234,,1849.552,16,76,1850.551,1850.551,1850.554,,,,0,38,38,38,1,125,65,,,,,,,,
,,5ba85b3a46de410001ecf951,65af54f4c6f63cf399fca60f,2024-01-23_00h07.08.688,bars,2023.2.3,Win32,60.0240096,657b66ea316d21385b68909f,,,,,,,,,,,1850.555,1851.551,,,1852.051,1852.301,,164,164,,,,,,,,,,,,,,,,bars/005.png,bars/mask008.png,,,,,,,,,,,,2,2,,,,,,,4,10,5,10,,,,,,,,,,,1851.551,1852.051,1852.301,1860.385,space,8.075,,1860.385,26,24,1861.384,1861.384,1861.387,,,,0,39,39,39,1,10,140,,,,,,,,
,,5ba85b3a46de410001ecf951,65af54f4c6f63cf399fca60f,2024-01-23_00h07.08.688,bars,2023.2.3,Win32,60.0240096,657b66ea316d21385b68909f,,,,,,,,,,,1861.388,1862.384,,,1862.884,1863.135,,174,174,,,,,,,,,,,,,,,,bars/040.png,bars/mask006.png,,,,,,,,,,,,4,2,,,,,,,6,8,7,7,,,,,,,,,,,1862.384,1862.884,1863.135,1870.152,space,7.011,,1870.152,34,11,1871.151,1871.151,1871.152,,,,0,40,40,40,1,140,5,,,,,,,,
,,5ba85b3a46de410001ecf951,65af54f4c6f63cf399fca60f,2024-01-23_00h07.08.688,bars,2023.2.3,Win32,60.0240096,657b66ea316d21385b68909f,,,,,,,,,,,1871.152,1872.151,,,1872.652,1872.901,,90,90,,,,,,,,,,,,,,,,bars/018.png,bars/mask002.png,,,,,,,,,,,,7,2,,,,,,,4,6,5,7,,,,,,,,,,,1872.151,1872.651,1872.901,1875.918,space,3.006,,1875.918,60,0,1876.917,1876.918,1876.919,,,,0,41,41,41,1,150,90,,,,,,,,
,,5ba85b3a46de410001ecf951,65af54f4c6f63cf399fca60f,2024-01-23_00h07.08.688,bars,2023.2.3,Win32,60.0240096,657b66ea316d21385b68909f,,,,,,,,,,,1876.919,1877.917,,,1878.418,1878.668,,65,65,,,,,,,,,,,,,,,,bars/035.png,bars/mask006.png,,,,,,,,,,,,8,2,,,,,,,6,8,6,9,,,,,,,,,,,1877.917,1878.418,1878.668,1881.701,space,3.016,,1881.701,70,5,1882.701,1882.701,1882.702,,,,0,42,42,42,1,175,60,,,,,,,,
,,5ba85b3a46de410001ecf951,65af54f4c6f63cf399fca60f,2024-01-23_00h07.08.688,bars,2023.2.3,Win32,60.0240096,657b66ea316d21385b68909f,,,,,,,,,,,1882.702,1883.701,,,1884.201,1884.451,,102,102,,,,,,,,,,,,,,,,bars/028.png,bars/mask004.png,,,,,,,,,,,,3,2,,,,,,,8,6,9,7,,,,,,,,,,,1883.701,1884.201,1884.451,1887.835,space,3.368,,1887.835,57,18,1888.834,1888.834,1888.837,,,,0,43,43,43,1,45,120,,,,,,,,
,,5ba85b3a46de410001ecf951,65af54f4c6f63cf399fca60f,2024-01-23_00h07.08.688,bars,2023.2.3,Win32,60.0240096,657b66ea316d21385b68909f,,,,,,,,,,,1888.837,1889.835,,,1890.334,1890.584,,8,8,,,,,,,,,,,,,,,,bars/023.png,bars/mask004.png,,,,,,,,,,,,3,1,,,,,,,6,8,5,10,,,,,,,,,,,1889.835,1890.334,1890.584,1895.218,space,4.619,,1895.218,12,73,1896.218,1896.218,1896.221,,,,0,44,44,44,1,20,115,,,,,,,,
,,5ba85b3a46de410001ecf951,65af54f4c6f63cf399fca60f,2024-01-23_00h07.08.688,bars,2023.2.3,Win32,60.0240096,657b66ea316d21385b68909f,,,,,,,,,,,1896.221,1897.218,,,1897.718,1897.968,,111,111,,,,,,,,,,,,,,,,bars/032.png,bars/mask004.png,,,,,,,,,,,,2,1,,,,,,,4,10,4,9,,,,,,,,,,,1897.218,1897.718,1897.968,1900.818,space,2.832,,1900.818,14,89,1901.817,1901.817,1901.819,,,,0,45,45,45,1,125,20,,,,,,,,
,,5ba85b3a46de410001ecf951,65af54f4c6f63cf399fca60f,2024-01-23_00h07.08.688,bars,2023.2.3,Win32,60.0240096,657b66ea316d21385b68909f,,,,,,,,,,,1901.819,1902.817,,,1903.318,1903.567,,28,28,,,,,,,,,,,,,,,,bars/043.png,bars/mask004.png,,,,,,,,,,,,3,1,,,,,,,2,8,3,9,,,,,,,,,,,1902.817,1903.318,1903.567,1906.701,space,3.127,,1906.701,2,78,1907.701,1907.701,1907.702,,,,0,46,46,46,1,30,130,,,,,,,,
,,5ba85b3a46de410001ecf951,65af54f4c6f63cf399fca60f,2024-01-23_00h07.08.688,bars,2023.2.3,Win32,60.0240096,657b66ea316d21385b68909f,,,,,,,,,,,1907.702,1908.701,,,1909.201,1909.451,,153,153,,,,,,,,,,,,,,,,bars/016.png,bars/mask002.png,,,,,,,,,,,,5,2,,,,,,,4,6,4,9,,,,,,,,,,,1908.701,1909.201,1909.451,1912.651,space,3.183,,1912.651,67,12,1913.65,1913.65,1913.653,,,,0,47,47,47,1,40,165,,,,,,,,
,,5ba85b3a46de410001ecf951,65af54f4c6f63cf399fca60f,2024-01-23_00h07.08.688,bars,2023.2.3,Win32,60.0240096,657b66ea316d21385b68909f,,,,,,,,,,,1913.653,1914.651,,,1915.151,1915.401,,52,52,,,,,,,,,,,,,,,,bars/034.png,bars/mask006.png,,,,,,,,,,,,4,2,,,,,,,2,8,1,7,,,,,,,,,,,1914.651,1915.151,1915.401,1919.501,space,4.096,,1919.501,73,13,1920.5,1920.5,1920.503,,,,0,48,48,48,1,125,65,,,,,,,,
,,5ba85b3a46de410001ecf951,65af54f4c6f63cf399fca60f,2024-01-23_00h07.08.688,bars,2023.2.3,Win32,60.0240096,657b66ea316d21385b68909f,,,,,,,,,,,1920.504,1921.501,,,1922,1922.25,,50,50,,,,,,,,,,,,,,,,bars/047.png,bars/mask009.png,,,,,,,,,,,,2,2,,,,,,,0,6,0,6,,,,,,,,,,,1921.501,1922,1922.25,1931.818,space,9.55,,1931.818,35,20,1932.817,1932.817,1932.819,,,,0,49,49,49,1,15,70,,,,,,,,
,,5ba85b3a46de410001ecf951,65af54f4c6f63cf399fca60f,2024-01-23_00h07.08.688,bars,2023.2.3,Win32,60.0240096,657b66ea316d21385b68909f,,,,,,,,,,,,,,,,,,,,,,,,,,,,,,,,,,,,,,,,,,,,,,,,,,,,,,,,,,,,,,,,,,,,,,,,,,,,,,,,,,,,,,,,,,,,,1932.819,1992.817,0,2,2,1,1,sequence_tables/blk005.csv
,,5ba85b3a46de410001ecf951,65af54f4c6f63cf399fca60f,2024-01-23_00h07.08.688,bars,2023.2.3,Win32,60.0240096,657b66ea316d21385b68909f,,,,,,,,,,,2014.571,2015.567,,,2016.067,2016.316,,98,98,,,,,,,,,,,,,,,,bars/004.png,bars/mask007.png,,,,,,,,,,,,1,2,,,,,,,1,9,1,7,,,,,,1992.819,2014.567,space,21.739,,2015.567,2016.067,2016.316,2020,space,3.673,,2020,73,27,2021,2021,2021.002,,,,0,0,0,0,1,25,125,,,,,,,,
,,5ba85b3a46de410001ecf951,65af54f4c6f63cf399fca60f,2024-01-23_00h07.08.688,bars,2023.2.3,Win32,60.0240096,657b66ea316d21385b68909f,,,,,,,,,,,2021.003,2022,,,2022.5,2022.75,,164,-16,,,,,,,,,,,,,,,,bars/008.png,bars/mask004.png,,,,,,,,,,,,3,2,,,,,,,3,7,5,6,,,,,,,,,,,2022,2022.5,2022.75,2031.5,space,8.737,,2031.5,54,16,2032.5,2032.5,2032.502,,,,0,1,1,1,1,110,0,,,,,,,,
,,5ba85b3a46de410001ecf951,65af54f4c6f63cf399fca60f,2024-01-23_00h07.08.688,bars,2023.2.3,Win32,60.0240096,657b66ea316d21385b68909f,,,,,,,,,,,2032.502,2033.5,,,2034,2034.25,,11,11,,,,,,,,,,,,,,,,bars/032.png,bars/mask001.png,,,,,,,,,,,,6,2,,,,,,,5,9,4,9,,,,,,,,,,,2033.5,2034,2034.25,2038.317,space,4.05,,2038.317,66,9,2039.317,2039.317,2039.317,,,,0,2,2,2,1,125,20,,,,,,,,
,,5ba85b3a46de410001ecf951,65af54f4c6f63cf399fca60f,2024-01-23_00h07.08.688,bars,2023.2.3,Win32,60.0240096,657b66ea316d21385b68909f,,,,,,,,,,,2039.317,2040.316,,,2040.817,2041.066,,25,25,,,,,,,,,,,,,,,,bars/036.png,bars/mask007.png,,,,,,,,,,,,8,2,,,,,,,3,7,5,10,,,,,,,,,,,2040.316,2040.817,2041.066,2047.133,space,6.054,,2047.134,60,5,2048.134,2048.134,2048.135,,,,0,3,3,3,1,145,20,,,,,,,,
,,5ba85b3a46de410001ecf951,65af54f4c6f63cf399fca60f,2024-01-23_00h07.08.688,bars,2023.2.3,Win32,60.0240096,657b66ea316d21385b68909f,,,,,,,,,,,2048.135,2049.133,,,2049.633,2049.883,,57,57,,,,,,,,,,,,,,,,bars/034.png,bars/mask007.png,,,,,,,,,,,,3,2,,,,,,,1,5,1,4,,,,,,,,,,,2049.133,2049.633,2049.883,2055.683,space,5.79,,2055.683,68,8,2056.683,2056.683,2056.685,,,,0,4,4,4,1,125,65,,,,,,,,
,,5ba85b3a46de410001ecf951,65af54f4c6f63cf399fca60f,2024-01-23_00h07.08.688,bars,2023.2.3,Win32,60.0240096,657b66ea316d21385b68909f,,,,,,,,,,,2056.685,2057.683,,,2058.183,2058.433,,94,94,,,,,,,,,,,,,,,,bars/023.png,bars/mask000.png,,,,,,,,,,,,0,2,,,,,,,3,3,5,1,,,,,,,,,,,2057.683,2058.183,2058.433,2064.45,space,6.009,,2064.45,74,21,2065.45,2065.45,2065.451,,,,0,5,5,5,1,20,115,,,,,,,,
,,5ba85b3a46de410001ecf951,65af54f4c6f63cf399fca60f,2024-01-23_00h07.08.688,bars,2023.2.3,Win32,60.0240096,657b66ea316d21385b68909f,,,,,,,,,,,2065.451,2066.45,,,2066.95,2067.2,,159,159,,,,,,,,,,,,,,,,bars/001.png,bars/mask002.png,,,,,,,,,,,,0,1,,,,,,,5,1,7,2,,,,,,,,,,,2066.45,2066.95,2067.2,2075.083,space,7.867,,2075.083,29,74,2076.083,2076.083,2076.086,,,,0,6,6,6,1,130,85,,,,,,,,
,,5ba85b3a46de410001ecf951,65af54f4c6f63cf399fca60f,2024-01-23_00h07.08.688,bars,2023.2.3,Win32,60.0240096,657b66ea316d21385b68909f,,,,,,,,,,,2076.086,2077.083,,,2077.583,2077.833,,156,-24,,,,,,,,,,,,,,,,bars/003.png,bars/mask004.png,,,,,,,,,,,,1,2,,,,,,,3,3,3,3,,,,,,,,,,,2077.083,2077.583,2077.833,2090.4,space,12.557,,2090.4,49,16,2091.399,2091.399,2091.403,,,,0,7,7,7,1,25,140,,,,,,,,
,,5ba85b3a46de410001ecf951,65af54f4c6f63cf399fca60f,2024-01-23_00h07.08.688,bars,2023.2.3,Win32,60.0240096,657b66ea316d21385b68909f,,,,,,,,,,,2091.403,2092.4,,,2092.9,2093.15,,45,45,,,,,,,,,,,,,,,,bars/007.png,bars/mask008.png,,,,,,,,,,,,1,2,,,,,,,5,1,3,1,,,,,,,,,,,2092.4,2092.9,2093.15,2098.949,space,5.794,,2098.95,50,10,2099.949,2099.949,2099.951,,,,0,8,8,8,1,175,55,,,,,,,,
,,5ba85b3a46de410001ecf951,65af54f4c6f63cf399fca60f,2024-01-23_00h07.08.688,bars,2023.2.3,Win32,60.0240096,657b66ea316d21385b68909f,,,,,,,,,,,2099.951,2100.95,,,2101.45,2101.7,,109,109,,,,,,,,,,,,,,,,bars/020.png,bars/mask001.png,,,,,,,,,,,,2,1,,,,,,,3,3,2,5,,,,,,,,,,,2100.95,2101.449,2101.7,2106.166,space,4.453,,2106.166,6,61,2107.166,2107.166,2107.168,,,,0,9,9,9,1,115,170,,,,,,,,
,,5ba85b3a46de410001ecf951,65af54f4c6f63cf399fca60f,2024-01-23_00h07.08.688,bars,2023.2.3,Win32,60.0240096,657b66ea316d21385b68909f,,,,,,,,,,,2107.168,2108.166,,,2108.667,2108.916,,105,105,,,,,,,,,,,,,,,,bars/005.png,bars/mask004.png,,,,,,,,,,,,0,2,,,,,,,1,1,0,0,,,,,,,,,,,2108.166,2108.667,2108.916,2121.2,space,12.278,,2121.2,85,35,2122.2,2122.2,2122.203,,,,0,10,10,10,1,10,140,,,,,,,,
,,5ba85b3a46de410001ecf951,65af54f4c6f63cf399fca60f,2024-01-23_00h07.08.688,bars,2023.2.3,Win32,60.0240096,657b66ea316d21385b68909f,,,,,,,,,,,2122.203,2123.2,,,2123.699,2123.949,,126,126,,,,,,,,,,,,,,,,bars/000.png,bars/mask003.png,,,,,,,,,,,,0,2,,,,,,,3,0,3,0,,,,,,,,,,,2123.2,2123.699,2123.95,2130.266,space,6.311,,2130.266,86,19,2131.266,2131.266,2131.268,,,,0,11,11,11,1,40,145,,,,,,,,
,,5ba85b3a46de410001ecf951,65af54f4c6f63cf399fca60f,2024-01-23_00h07.08.688,bars,2023.2.3,Win32,60.0240096,657b66ea316d21385b68909f,,,,,,,,,,,2131.268,2132.266,,,2132.766,2133.016,,38,38,,,,,,,,,,,,,,,,bars/007.png,bars/mask009.png,,,,,,,,,,,,0,2,,,,,,,5,0,6,0,,,,,,,,,,,2132.266,2132.766,2133.016,2136.268,space,3.237,,2136.268,43,17,2137.266,2137.266,2137.267,,,,0,12,12,12,1,175,55,,,,,,,,
,,5ba85b3a46de410001ecf951,65af54f4c6f63cf399fca60f,2024-01-23_00h07.08.688,bars,2023.2.3,Win32,60.0240096,657b66ea316d21385b68909f,,,,,,,,,,,2137.267,2138.266,,,2138.766,2139.015,,36,36,,,,,,,,,,,,,,,,bars/048.png,bars/mask009.png,,,,,,,,,,,,4,1,,,,,,,7,2,7,2,,,,,,,,,,,2138.266,2138.766,2139.015,2143.282,space,4.254,,2143.282,14,41,2144.282,2144.282,2144.285,,,,0,13,13,13,1,50,175,,,,,,,,
,,5ba85b3a46de410001ecf951,65af54f4c6f63cf399fca60f,2024-01-23_00h07.08.688,bars,2023.2.3,Win32,60.0240096,657b66ea316d21385b68909f,,,,,,,,,,,2144.285,2145.283,,,2145.782,2146.032,,140,140,,,,,,,,,,,,,,,,bars/001.png,bars/mask004.png,,,,,,,,,,,,4,1,,,,,,,5,4,6,5,,,,,,,,,,,2145.283,2145.782,2146.032,2153.45,space,7.406,,2153.45,10,55,2154.449,2154.449,2154.452,,,,0,14,14,14,1,130,85,,,,,,,,
,,5ba85b3a46de410001ecf951,65af54f4c6f63cf399fca60f,2024-01-23_00h07.08.688,bars,2023.2.3,Win32,60.0240096,657b66ea316d21385b68909f,,,,,,,,,,,2154.452,2155.449,,,2155.949,2156.2,,72,72,,,,,,,,,,,,,,,,bars/014.png,bars/mask002.png,,,,,,,,,,,,2,1,,,,,,,3,2,3,1,,,,,,,,,,,2155.449,2155.949,2156.2,2157.665,space,1.455,,2157.666,8,72,2158.666,2158.666,2158.667,,,,0,15,15,15,1,80,0,,,,,,,,
,,5ba85b3a46de410001ecf951,65af54f4c6f63cf399fca60f,2024-01-23_00h07.08.688,bars,2023.2.3,Win32,60.0240096,657b66ea316d21385b68909f,,,,,,,,,,,2158.667,2159.665,,,2160.166,2160.415,,122,122,,,,,,,,,,,,,,,,bars/027.png,bars/mask000.png,,,,,,,,,,,,2,1,,,,,,,1,0,3,0,,,,,,,,,,,2159.665,2160.166,2160.415,2164.016,space,3.585,,2164.016,12,72,2165.016,2165.016,2165.017,,,,0,16,16,16,1,110,50,,,,,,,,
,,5ba85b3a46de410001ecf951,65af54f4c6f63cf399fca60f,2024-01-23_00h07.08.688,bars,2023.2.3,Win32,60.0240096,657b66ea316d21385b68909f,,,,,,,,,,,2165.017,2166.016,,,2166.515,2166.766,,121,121,,,,,,,,,,,,,,,,bars/006.png,bars/mask006.png,,,,,,,,,,,,0,2,,,,,,,0,2,0,1,,,,,,,,,,,2166.016,2166.515,2166.766,2170.849,space,4.067,,2170.849,86,21,2171.849,2171.849,2171.851,,,,0,17,17,17,1,35,100,,,,,,,,
,,5ba85b3a46de410001ecf951,65af54f4c6f63cf399fca60f,2024-01-23_00h07.08.688,bars,2023.2.3,Win32,60.0240096,657b66ea316d21385b68909f,,,,,,,,,,,2171.852,2172.849,,,2173.349,2173.599,,159,159,,,,,,,,,,,,,,,,bars/011.png,bars/mask006.png,,,,,,,,,,,,2,1,,,,,,,2,4,2,5,,,,,,,,,,,2172.849,2173.349,2173.599,2176.099,space,2.49,,2176.099,1,74,2177.099,2177.099,2177.101,,,,0,18,18,18,1,160,85,,,,,,,,
,,5ba85b3a46de410001ecf951,65af54f4c6f63cf399fca60f,2024-01-23_00h07.08.688,bars,2023.2.3,Win32,60.0240096,657b66ea316d21385b68909f,,,,,,,,,,,2177.101,2178.099,,,2178.599,2178.849,,86,86,,,,,,,,,,,,,,,,bars/026.png,bars/mask001.png,,,,,,,,,,,,2,2,,,,,,,0,2,0,2,,,,,,,,,,,2178.099,2178.599,2178.849,2182.816,space,3.953,,2182.816,51,1,2183.815,2183.815,2183.817,,,,0,19,19,19,1,35,85,,,,,,,,
,,5ba85b3a46de410001ecf951,65af54f4c6f63cf399fca60f,2024-01-23_00h07.08.688,bars,2023.2.3,Win32,60.0240096,657b66ea316d21385b68909f,,,,,,,,,,,2183.817,2184.816,,,2185.316,2185.566,,41,41,,,,,,,,,,,,,,,,bars/029.png,bars/mask004.png,,,,,,,,,,,,3,2,,,,,,,0,4,0,4,,,,,,,,,,,2184.817,2185.316,2185.566,2192.198,space,6.618,,2192.199,49,4,2193.199,2193.199,2193.201,,,,0,20,20,20,1,90,45,,,,,,,,
,,5ba85b3a46de410001ecf951,65af54f4c6f63cf399fca60f,2024-01-23_00h07.08.688,bars,2023.2.3,Win32,60.0240096,657b66ea316d21385b68909f,,,,,,,,,,,2193.201,2194.199,,,2194.699,2194.949,,1,1,,,,,,,,,,,,,,,,bars/012.png,bars/mask003.png,,,,,,,,,,,,4,2,,,,,,,0,6,1,7,,,,,,,,,,,2194.199,2194.699,2194.949,2202.998,space,8.04,,2202.998,89,14,2203.999,2203.999,2204,,,,0,21,21,21,1,90,15,,,,,,,,
,,5ba85b3a46de410001ecf951,65af54f4c6f63cf399fca60f,2024-01-23_00h07.08.688,bars,2023.2.3,Win32,60.0240096,657b66ea316d21385b68909f,,,,,,,,,,,2204,2204.998,,,2205.499,2205.749,,102,102,,,,,,,,,,,,,,,,bars/019.png,bars/mask004.png,,,,,,,,,,,,5,2,,,,,,,0,4,0,5,,,,,,,,,,,2204.999,2205.499,2205.749,2211.199,space,5.434,,2211.199,57,3,2212.199,2212.199,2212.2,,,,0,22,22,22,1,45,105,,,,,,,,
,,5ba85b3a46de410001ecf951,65af54f4c6f63cf399fca60f,2024-01-23_00h07.08.688,bars,2023.2.3,Win32,60.0240096,657b66ea316d21385b68909f,,,,,,,,,,,2212.201,2213.199,,,2213.699,2213.949,,129,129,,,,,,,,,,,,,,,,bars/000.png,bars/mask002.png,,,,,,,,,,,,3,2,,,,,,,0,6,1,6,,,,,,,,,,,2213.199,2213.699,2213.949,2218.499,space,4.534,,2218.5,89,16,2219.499,2219.499,2219.501,,,,0,23,23,23,1,40,145,,,,,,,,
,,5ba85b3a46de410001ecf951,65af54f4c6f63cf399fca60f,2024-01-23_00h07.08.688,bars,2023.2.3,Win32,60.0240096,657b66ea316d21385b68909f,,,,,,,,,,,2219.501,2220.499,,,2220.999,2221.249,,168,168,,,,,,,,,,,,,,,,bars/005.png,bars/mask008.png,,,,,,,,,,,,0,1,,,,,,,0,4,1,6,,,,,,,,,,,2220.499,2220.999,2221.249,2226.915,space,5.656,,2226.915,22,28,2227.915,2227.915,2227.917,,,,0,24,24,24,1,10,140,,,,,,,,
,,5ba85b3a46de410001ecf951,65af54f4c6f63cf399fca60f,2024-01-23_00h07.08.688,bars,2023.2.3,Win32,60.0240096,657b66ea316d21385b68909f,,,,,,,,,,,2227.917,2228.915,,,2229.415,2229.666,,108,108,,,,,,,,,,,,,,,,bars/020.png,bars/mask002.png,,,,,,,,,,,,0,1,,,,,,,0,2,0,1,,,,,,,,,,,2228.915,2229.415,2229.666,2234.982,space,5.301,,2234.982,7,62,2235.982,2235.982,2235.983,,,,0,25,25,25,1,115,170,,,,,,,,
,,5ba85b3a46de410001ecf951,65af54f4c6f63cf399fca60f,2024-01-23_00h07.08.688,bars,2023.2.3,Win32,60.0240096,657b66ea316d21385b68909f,,,,,,,,,,,2235.983,2236.981,,,2237.482,2237.732,,152,152,,,,,,,,,,,,,,,,bars/001.png,bars/mask009.png,,,,,,,,,,,,1,1,,,,,,,2,4,4,4,,,,,,,,,,,2236.981,2237.482,2237.732,2245.198,space,7.45,,2245.198,22,67,2246.199,2246.199,2246.2,,,,0,26,26,26,1,130,85,,,,,,,,
,,5ba85b3a46de410001ecf951,65af54f4c6f63cf399fca60f,2024-01-23_00h07.08.688,bars,2023.2.3,Win32,60.0240096,657b66ea316d21385b68909f,,,,,,,,,,,2246.2,2247.199,,,2247.698,2247.949,,132,132,,,,,,,,,,,,,,,,bars/000.png,bars/mask009.png,,,,,,,,,,,,3,2,,,,,,,0,2,0,5,,,,,,,,,,,2247.199,2247.698,2247.949,2255.649,space,7.684,,2255.649,88,13,2256.649,2256.649,2256.653,,,,0,27,27,27,1,40,145,,,,,,,,
,,5ba85b3a46de410001ecf951,65af54f4c6f63cf399fca60f,2024-01-23_00h07.08.688,bars,2023.2.3,Win32,60.0240096,657b66ea316d21385b68909f,,,,,,,,,,,2256.653,2257.648,,,2258.149,2258.398,,102,102,,,,,,,,,,,,,,,,bars/004.png,bars/mask008.png,,,,,,,,,,,,1,2,,,,,,,2,4,1,4,,,,,,,,,,,2257.648,2258.149,2258.398,2267.115,space,8.703,,2267.115,77,23,2268.115,2268.115,2268.116,,,,0,28,28,28,1,25,125,,,,,,,,
,,5ba85b3a46de410001ecf951,65af54f4c6f63cf399fca60f,2024-01-23_00h07.08.688,bars,2023.2.3,Win32,60.0240096,657b66ea316d21385b68909f,,,,,,,,,,,2268.116,2269.115,,,2269.615,2269.865,,89,89,,,,,,,,,,,,,,,,bars/024.png,bars/mask000.png,,,,,,,,,,,,0,1,,,,,,,0,2,0,3,,,,,,,,,,,2269.116,2269.615,2269.865,2274.332,space,4.461,,2274.332,31,81,2275.331,2275.331,2275.334,,,,0,29,29,29,1,120,170,,,,,,,,
,,5ba85b3a46de410001ecf951,65af54f4c6f63cf399fca60f,2024-01-23_00h07.08.688,bars,2023.2.3,Win32,60.0240096,657b66ea316d21385b68909f,,,,,,,,,,,2275.335,2276.331,,,2276.831,2277.082,,121,121,,,,,,,,,,,,,,,,bars/040.png,bars/mask001.png,,,,,,,,,,,,0,1,,,,,,,0,4,0,6,,,,,,,,,,,2276.331,2276.831,2277.082,2280.582,space,3.485,,2280.582,19,64,2281.581,2281.581,2281.583,,,,0,30,30,30,1,140,5,,,,,,,,
,,5ba85b3a46de410001ecf951,65af54f4c6f63cf399fca60f,2024-01-23_00h07.08.688,bars,2023.2.3,Win32,60.0240096,657b66ea316d21385b68909f,,,,,,,,,,,2281.583,2282.581,,,2283.081,2283.331,,69,249,,,,,,,,,,,,,,,,bars/046.png,bars/mask003.png,,,,,,,,,,,,0,2,,,,,,,0,2,1,1,,,,,,,,,,,2282.581,2283.081,2283.331,2289.699,space,6.356,,2289.699,86,16,2290.698,2290.698,2290.703,,,,0,31,31,31,1,155,85,,,,,,,,
,,5ba85b3a46de410001ecf951,65af54f4c6f63cf399fca60f,2024-01-23_00h07.08.688,bars,2023.2.3,Win32,60.0240096,657b66ea316d21385b68909f,,,,,,,,,,,2290.703,2291.698,,,2292.198,2292.449,,3,183,,,,,,,,,,,,,,,,bars/045.png,bars/mask003.png,,,,,,,,,,,,4,2,,,,,,,2,4,1,5,,,,,,,,,,,2291.698,2292.198,2292.449,2296.214,space,3.754,,2296.215,83,7,2297.215,2297.215,2297.216,,,,0,32,32,32,1,100,10,,,,,,,,
,,5ba85b3a46de410001ecf951,65af54f4c6f63cf399fca60f,2024-01-23_00h07.08.688,bars,2023.2.3,Win32,60.0240096,657b66ea316d21385b68909f,,,,,,,,,,,2297.216,2298.214,,,2298.715,2298.965,,55,55,,,,,,,,,,,,,,,,bars/047.png,bars/mask009.png,,,,,,,,,,,,2,2,,,,,,,4,2,2,4,,,,,,,,,,,2298.214,2298.715,2298.965,2302.965,space,3.99,,2302.965,40,15,2303.965,2303.965,2303.966,,,,0,33,33,33,1,15,70,,,,,,,,
,,5ba85b3a46de410001ecf951,65af54f4c6f63cf399fca60f,2024-01-23_00h07.08.688,bars,2023.2.3,Win32,60.0240096,657b66ea316d21385b68909f,,,,,,,,,,,2303.967,2304.964,,,2305.465,2305.715,,8,188,,,,,,,,,,,,,,,,bars/012.png,bars/mask002.png,,,,,,,,,,,,2,2,,,,,,,2,4,0,3,,,,,,,,,,,2304.964,2305.465,2305.715,2309.065,space,3.345,,2309.065,82,7,2310.064,2310.065,2310.066,,,,0,34,34,34,1,90,15,,,,,,,,
,,5ba85b3a46de410001ecf951,65af54f4c6f63cf399fca60f,2024-01-23_00h07.08.688,bars,2023.2.3,Win32,60.0240096,657b66ea316d21385b68909f,,,,,,,,,,,2310.066,2311.065,,,2311.565,2311.815,,173,173,,,,,,,,,,,,,,,,bars/014.png,bars/mask004.png,,,,,,,,,,,,5,2,,,,,,,0,6,0,6,,,,,,,,,,,2311.065,2311.565,2311.815,2321.215,space,9.39,,2321.215,87,7,2322.215,2322.215,2322.217,,,,0,35,35,35,1,80,0,,,,,,,,
,,5ba85b3a46de410001ecf951,65af54f4c6f63cf399fca60f,2024-01-23_00h07.08.688,bars,2023.2.3,Win32,60.0240096,657b66ea316d21385b68909f,,,,,,,,,,,2322.217,2323.215,,,2323.714,2323.964,,117,117,,,,,,,,,,,,,,,,bars/000.png,bars/mask001.png,,,,,,,,,,,,0,2,,,,,,,0,4,0,3,,,,,,,,,,,2323.215,2323.714,2323.964,2326.948,space,2.969,,2326.948,77,28,2327.948,2327.948,2327.949,,,,0,36,36,36,1,40,145,,,,,,,,
,,5ba85b3a46de410001ecf951,65af54f4c6f63cf399fca60f,2024-01-23_00h07.08.688,bars,2023.2.3,Win32,60.0240096,657b66ea316d21385b68909f,,,,,,,,,,,2327.95,2328.948,,,2329.447,2329.698,,95,95,,,,,,,,,,,,,,,,bars/037.png,bars/mask001.png,,,,,,,,,,,,3,2,,,,,,,0,6,0,5,,,,,,,,,,,2328.948,2329.447,2329.698,2335.014,space,5.301,,2335.014,55,10,2336.015,2336.015,2336.016,,,,0,37,37,37,1,150,105,,,,,,,,
,,5ba85b3a46de410001ecf951,65af54f4c6f63cf399fca60f,2024-01-23_00h07.08.688,bars,2023.2.3,Win32,60.0240096,657b66ea316d21385b68909f,,,,,,,,,,,2336.016,2337.015,,,2337.514,2337.764,,148,148,,,,,,,,,,,,,,,,bars/036.png,bars/mask008.png,,,,,,,,,,,,0,1,,,,,,,0,4,0,6,,,,,,,,,,,2337.015,2337.514,2337.764,2340.164,space,2.396,,2340.164,3,52,2341.164,2341.164,2341.167,,,,0,38,38,38,1,145,20,,,,,,,,
,,5ba85b3a46de410001ecf951,65af54f4c6f63cf399fca60f,2024-01-23_00h07.08.688,bars,2023.2.3,Win32,60.0240096,657b66ea316d21385b68909f,,,,,,,,,,,2341.167,2342.164,,,2342.665,2342.914,,48,48,,,,,,,,,,,,,,,,bars/030.png,bars/mask005.png,,,,,,,,,,,,1,2,,,,,,,2,2,1,2,,,,,,,,,,,2342.164,2342.665,2342.914,2347.148,space,4.217,,2347.148,88,17,2348.148,2348.148,2348.149,,,,0,39,39,39,1,140,65,,,,,,,,
,,5ba85b3a46de410001ecf951,65af54f4c6f63cf399fca60f,2024-01-23_00h07.08.688,bars,2023.2.3,Win32,60.0240096,657b66ea316d21385b68909f,,,,,,,,,,,2348.15,2349.148,,,2349.648,2349.898,,82,82,,,,,,,,,,,,,,,,bars/014.png,bars/mask009.png,,,,,,,,,,,,4,1,,,,,,,4,4,4,3,,,,,,,,,,,2349.148,2349.648,2349.898,2354.698,space,4.784,,2354.698,2,82,2355.697,2355.698,2355.701,,,,0,40,40,40,1,80,0,,,,,,,,
,,5ba85b3a46de410001ecf951,65af54f4c6f63cf399fca60f,2024-01-23_00h07.08.688,bars,2023.2.3,Win32,60.0240096,657b66ea316d21385b68909f,,,,,,,,,,,2355.701,2356.698,,,2357.197,2357.448,,25,205,,,,,,,,,,,,,,,,bars/035.png,bars/mask001.png,,,,,,,,,,,,0,1,,,,,,,6,2,5,3,,,,,,,,,,,2356.698,2357.197,2357.448,2362.431,space,4.967,,2362.431,30,35,2363.431,2363.431,2363.432,,,,0,41,41,41,1,175,60,,,,,,,,
,,5ba85b3a46de410001ecf951,65af54f4c6f63cf399fca60f,2024-01-23_00h07.08.688,bars,2023.2.3,Win32,60.0240096,657b66ea316d21385b68909f,,,,,,,,,,,2363.433,2364.43,,,2364.931,2365.181,,165,165,,,,,,,,,,,,,,,,bars/024.png,bars/mask005.png,,,,,,,,,,,,3,2,,,,,,,4,4,4,3,,,,,,,,,,,2364.431,2364.931,2365.181,2372.364,space,7.173,,2372.364,45,5,2373.364,2373.364,2373.367,,,,0,42,42,42,1,120,170,,,,,,,,
,,5ba85b3a46de410001ecf951,65af54f4c6f63cf399fca60f,2024-01-23_00h07.08.688,bars,2023.2.3,Win32,60.0240096,657b66ea316d21385b68909f,,,,,,,,,,,2373.367,2374.364,,,2374.864,2375.114,,82,82,,,,,,,,,,,,,,,,bars/015.png,bars/mask008.png,,,,,,,,,,,,0,1,,,,,,,2,6,4,6,,,,,,,,,,,2374.364,2374.864,2375.114,2381.264,space,6.139,,2381.265,28,78,2382.264,2382.264,2382.266,,,,0,43,43,43,1,110,160,,,,,,,,
,,5ba85b3a46de410001ecf951,65af54f4c6f63cf399fca60f,2024-01-23_00h07.08.688,bars,2023.2.3,Win32,60.0240096,657b66ea316d21385b68909f,,,,,,,,,,,2382.266,2383.264,,,2383.764,2384.014,,51,51,,,,,,,,,,,,,,,,bars/007.png,bars/mask000.png,,,,,,,,,,,,3,2,,,,,,,4,4,5,3,,,,,,,,,,,2383.264,2383.764,2384.014,2388.098,space,4.066,,2388.098,56,4,2389.098,2389.098,2389.101,,,,0,44,44,44,1,175,55,,,,,,,,
,,5ba85b3a46de410001ecf951,65af54f4c6f63cf399fca60f,2024-01-23_00h07.08.688,bars,2023.2.3,Win32,60.0240096,657b66ea316d21385b68909f,,,,,,,,,,,2389.102,2390.098,,,2390.598,2390.848,,52,52,,,,,,,,,,,,,,,,bars/047.png,bars/mask008.png,,,,,,,,,,,,2,2,,,,,,,6,6,5,6,,,,,,,,,,,2390.098,2390.598,2390.848,2397.797,space,6.935,,2397.797,37,18,2398.797,2398.797,2398.798,,,,0,45,45,45,1,15,70,,,,,,,,
,,5ba85b3a46de410001ecf951,65af54f4c6f63cf399fca60f,2024-01-23_00h07.08.688,bars,2023.2.3,Win32,60.0240096,657b66ea316d21385b68909f,,,,,,,,,,,2398.799,2399.797,,,2400.298,2400.547,,161,-19,,,,,,,,,,,,,,,,bars/048.png,bars/mask007.png,,,,,,,,,,,,3,2,,,,,,,4,4,3,5,,,,,,,,,,,2399.797,2400.298,2400.547,2406.43,space,5.876,,2406.43,69,14,2407.43,2407.43,2407.432,,,,0,46,46,46,1,50,175,,,,,,,,
,,5ba85b3a46de410001ecf951,65af54f4c6f63cf399fca60f,2024-01-23_00h07.08.688,bars,2023.2.3,Win32,60.0240096,657b66ea316d21385b68909f,,,,,,,,,,,2407.432,2408.431,,,2408.931,2409.18,,171,-9,,,,,,,,,,,,,,,,bars/024.png,bars/mask006.png,,,,,,,,,,,,5,2,,,,,,,6,6,6,5,,,,,,,,,,,2408.431,2408.931,2409.18,2413.847,space,4.661,,2413.847,51,1,2414.848,2414.848,2414.848,,,,0,47,47,47,1,120,170,,,,,,,,
,,5ba85b3a46de410001ecf951,65af54f4c6f63cf399fca60f,2024-01-23_00h07.08.688,bars,2023.2.3,Win32,60.0240096,657b66ea316d21385b68909f,,,,,,,,,,,2414.849,2415.847,,,2416.347,2416.597,,53,53,,,,,,,,,,,,,,,,bars/042.png,bars/mask006.png,,,,,,,,,,,,2,2,,,,,,,4,8,5,9,,,,,,,,,,,2415.847,2416.347,2416.597,2419.831,space,3.217,,2419.831,88,22,2420.831,2420.831,2420.833,,,,0,48,48,48,1,145,75,,,,,,,,
,,5ba85b3a46de410001ecf951,65af54f4c6f63cf399fca60f,2024-01-23_00h07.08.688,bars,2023.2.3,Win32,60.0240096,657b66ea316d21385b68909f,,,,,,,,,,,2420.833,2421.83,,,2422.331,2422.58,,15,195,,,,,,,,,,,,,,,,bars/040.png,bars/mask007.png,,,,,,,,,,,,7,2,,,,,,,2,10,2,10,,,,,,,,,,,2421.83,2422.331,2422.58,2428.414,space,5.818,,2428.414,55,10,2429.413,2429.414,2429.415,,,,0,49,49,49,1,140,5,,,,,,,,
,,5ba85b3a46de410001ecf951,65af54f4c6f63cf399fca60f,2024-01-23_00h07.08.688,bars,2023.2.3,Win32,60.0240096,657b66ea316d21385b68909f,,,,,,,,,,,,,,,,,,,,,,,,,,,,,,,,,,,,,,,,,,,,,,,,,,,,,,,,,,,,,,,,,,,,,,,,,,,,,,,,,,,,,,,,,,,,,2429.415,2489.414,0,3,3,0,1,sequence_tables/blk022.csv
,,5ba85b3a46de410001ecf951,65af54f4c6f63cf399fca60f,2024-01-23_00h07.08.688,bars,2023.2.3,Win32,60.0240096,657b66ea316d21385b68909f,,,,,,,,,,,2493.317,2494.313,,,2494.814,2495.063,,84,84,,,,,,,,,,,,,,,,bars/038.png,bars/mask001.png,,,,,,,,,,,,4,2,,,,,,,3,6,4,7,,,,,,2489.415,2493.313,space,3.893,,2494.313,2494.814,2495.063,2502.263,space,7.189,,2502.263,81,14,2503.264,2503.264,2503.265,,,,0,0,0,0,1,165,70,,,,,,,,
,,5ba85b3a46de410001ecf951,65af54f4c6f63cf399fca60f,2024-01-23_00h07.08.688,bars,2023.2.3,Win32,60.0240096,657b66ea316d21385b68909f,,,,,,,,,,,2503.265,2504.264,,,2504.763,2505.013,,66,66,,,,,,,,,,,,,,,,bars/042.png,bars/mask005.png,,,,,,,,,,,,5,2,,,,,,,5,8,3,7,,,,,,,,,,,2504.264,2504.763,2505.013,2524.214,space,19.185,,2524.214,79,9,2525.213,2525.213,2525.215,,,,0,1,1,1,1,145,75,,,,,,,,
,,5ba85b3a46de410001ecf951,65af54f4c6f63cf399fca60f,2024-01-23_00h07.08.688,bars,2023.2.3,Win32,60.0240096,657b66ea316d21385b68909f,,,,,,,,,,,2525.215,2526.213,,,2526.713,2526.963,,175,175,,,,,,,,,,,,,,,,bars/014.png,bars/mask007.png,,,,,,,,,,,,8,2,,,,,,,7,10,8,10,,,,,,,,,,,2526.213,2526.713,2526.963,2546.73,space,19.752,,2546.73,85,5,2547.729,2547.729,2547.731,,,,0,2,2,2,1,80,0,,,,,,,,
,,5ba85b3a46de410001ecf951,65af54f4c6f63cf399fca60f,2024-01-23_00h07.08.688,bars,2023.2.3,Win32,60.0240096,657b66ea316d21385b68909f,,,,,,,,,,,2547.731,2548.729,,,2549.23,2549.48,,108,108,,,,,,,,,,,,,,,,bars/049.png,bars/mask003.png,,,,,,,,,,,,8,2,,,,,,,5,10,5,10,,,,,,,,,,,2548.729,2549.23,2549.48,2553.914,space,4.428,,2553.914,52,7,2554.913,2554.913,2554.915,,,,0,3,3,3,1,160,115,,,,,,,,
,,5ba85b3a46de410001ecf951,65af54f4c6f63cf399fca60f,2024-01-23_00h07.08.688,bars,2023.2.3,Win32,60.0240096,657b66ea316d21385b68909f,,,,,,,,,,,2554.916,2555.913,,,2556.412,2556.662,,161,-19,,,,,,,,,,,,,,,,bars/008.png,bars/mask008.png,,,,,,,,,,,,3,2,,,,,,,3,10,2,8,,,,,,,,,,,2555.913,2556.412,2556.662,2563.663,space,6.99,,2563.663,51,19,2564.662,2564.662,2564.663,,,,0,4,4,4,1,110,0,,,,,,,,
,,5ba85b3a46de410001ecf951,65af54f4c6f63cf399fca60f,2024-01-23_00h07.08.688,bars,2023.2.3,Win32,60.0240096,657b66ea316d21385b68909f,,,,,,,,,,,2564.664,2565.663,,,2566.163,2566.413,,39,39,,,,,,,,,,,,,,,,bars/007.png,bars/mask004.png,,,,,,,,,,,,4,2,,,,,,,1,10,1,9,,,,,,,,,,,2565.663,2566.163,2566.413,2569.313,space,2.89,,2569.313,44,16,2570.313,2570.313,2570.314,,,,0,5,5,5,1,175,55,,,,,,,,
,,5ba85b3a46de410001ecf951,65af54f4c6f63cf399fca60f,2024-01-23_00h07.08.688,bars,2023.2.3,Win32,60.0240096,657b66ea316d21385b68909f,,,,,,,,,,,2570.314,2571.312,,,2571.812,2572.063,,135,135,,,,,,,,,,,,,,,,bars/044.png,bars/mask000.png,,,,,,,,,,,,3,2,,,,,,,3,10,1,10,,,,,,,,,,,2571.312,2571.812,2572.063,2575.212,space,3.143,,2575.213,60,20,2576.212,2576.212,2576.214,,,,0,6,6,6,1,75,155,,,,,,,,
,,5ba85b3a46de410001ecf951,65af54f4c6f63cf399fca60f,2024-01-23_00h07.08.688,bars,2023.2.3,Win32,60.0240096,657b66ea316d21385b68909f,,,,,,,,,,,2576.214,2577.213,,,2577.713,2577.962,,94,94,,,,,,,,,,,,,,,,bars/018.png,bars/mask007.png,,,,,,,,,,,,9,2,,,,,,,5,10,5,10,,,,,,,,,,,2577.213,2577.713,2577.962,2582.096,space,4.117,,2582.096,56,4,2583.096,2583.096,2583.097,,,,0,7,7,7,1,150,90,,,,,,,,
,,5ba85b3a46de410001ecf951,65af54f4c6f63cf399fca60f,2024-01-23_00h07.08.688,bars,2023.2.3,Win32,60.0240096,657b66ea316d21385b68909f,,,,,,,,,,,2583.097,2584.096,,,2584.596,2584.846,,76,76,,,,,,,,,,,,,,,,bars/038.png,bars/mask000.png,,,,,,,,,,,,7,2,,,,,,,7,8,7,9,,,,,,,,,,,2584.096,2584.596,2584.846,2590.78,space,5.922,,2590.78,89,6,2591.78,2591.78,2591.781,,,,0,8,8,8,1,165,70,,,,,,,,
,,5ba85b3a46de410001ecf951,65af54f4c6f63cf399fca60f,2024-01-23_00h07.08.688,bars,2023.2.3,Win32,60.0240096,657b66ea316d21385b68909f,,,,,,,,,,,2591.782,2592.779,,,2593.279,2593.53,,88,88,,,,,,,,,,,,,,,,bars/023.png,bars/mask008.png,,,,,,,,,,,,0,2,,,,,,,5,6,7,5,,,,,,,,,,,2592.779,2593.279,2593.53,2595.38,space,1.84,,2595.38,68,27,2596.379,2596.379,2596.381,,,,0,9,9,9,1,20,115,,,,,,,,
,,5ba85b3a46de410001ecf951,65af54f4c6f63cf399fca60f,2024-01-23_00h07.08.688,bars,2023.2.3,Win32,60.0240096,657b66ea316d21385b68909f,,,,,,,,,,,2596.381,2597.379,,,2597.88,2598.13,,139,-41,,,,,,,,,,,,,,,,bars/020.png,bars/mask004.png,,,,,,,,,,,,1,1,,,,,,,7,8,7,10,,,,,,,,,,,2597.379,2597.879,2598.13,2602.095,space,3.959,,2602.096,24,31,2603.095,2603.096,2603.099,,,,0,10,10,10,1,115,170,,,,,,,,
,,5ba85b3a46de410001ecf951,65af54f4c6f63cf399fca60f,2024-01-23_00h07.08.688,bars,2023.2.3,Win32,60.0240096,657b66ea316d21385b68909f,,,,,,,,,,,2603.099,2604.095,,,2604.596,2604.846,,168,168,,,,,,,,,,,,,,,,bars/023.png,bars/mask000.png,,,,,,,,,,,,0,1,,,,,,,9,10,8,9,,,,,,,,,,,2604.095,2604.596,2604.846,2612.296,space,7.446,,2612.297,32,53,2613.296,2613.296,2613.297,,,,0,11,11,11,1,20,115,,,,,,,,
,,5ba85b3a46de410001ecf951,65af54f4c6f63cf399fca60f,2024-01-23_00h07.08.688,bars,2023.2.3,Win32,60.0240096,657b66ea316d21385b68909f,,,,,,,,,,,2613.297,2614.296,,,2614.795,2615.046,,26,26,,,,,,,,,,,,,,,,bars/043.png,bars/mask008.png,,,,,,,,,,,,8,1,,,,,,,10,10,9,10,,,,,,,,,,,2614.296,2614.795,2615.046,2619.313,space,4.253,,2619.313,4,76,2620.312,2620.313,2620.315,,,,0,12,12,12,1,30,130,,,,,,,,
,,5ba85b3a46de410001ecf951,65af54f4c6f63cf399fca60f,2024-01-23_00h07.08.688,bars,2023.2.3,Win32,60.0240096,657b66ea316d21385b68909f,,,,,,,,,,,2620.315,2621.312,,,2621.812,2622.062,,162,162,,,,,,,,,,,,,,,,bars/039.png,bars/mask005.png,,,,,,,,,,,,5,1,,,,,,,8,8,8,8,,,,,,,,,,,2621.312,2621.812,2622.062,2628.145,space,6.07,,2628.146,13,57,2629.145,2629.145,2629.147,,,,0,13,13,13,1,175,105,,,,,,,,
,,5ba85b3a46de410001ecf951,65af54f4c6f63cf399fca60f,2024-01-23_00h07.08.688,bars,2023.2.3,Win32,60.0240096,657b66ea316d21385b68909f,,,,,,,,,,,2629.147,2630.146,,,2630.646,2630.896,,28,28,,,,,,,,,,,,,,,,bars/004.png,bars/mask006.png,,,,,,,,,,,,9,1,,,,,,,10,10,10,10,,,,,,,,,,,2630.146,2630.646,2630.896,2636.145,space,5.238,,2636.146,3,83,2637.145,2637.145,2637.147,,,,0,14,14,14,1,25,125,,,,,,,,
,,5ba85b3a46de410001ecf951,65af54f4c6f63cf399fca60f,2024-01-23_00h07.08.688,bars,2023.2.3,Win32,60.0240096,657b66ea316d21385b68909f,,,,,,,,,,,2637.147,2638.146,,,2638.646,2638.895,,102,102,,,,,,,,,,,,,,,,bars/045.png,bars/mask001.png,,,,,,,,,,,,6,1,,,,,,,8,10,6,10,,,,,,,,,,,2638.146,2638.645,2638.895,2643.546,space,4.639,,2643.546,2,88,2644.545,2644.545,2644.546,,,,0,15,15,15,1,100,10,,,,,,,,
,,5ba85b3a46de410001ecf951,65af54f4c6f63cf399fca60f,2024-01-23_00h07.08.688,bars,2023.2.3,Win32,60.0240096,657b66ea316d21385b68909f,,,,,,,,,,,2644.546,2645.546,,,2646.045,2646.296,,109,109,,,,,,,,,,,,,,,,bars/012.png,bars/mask009.png,,,,,,,,,,,,4,1,,,,,,,10,10,10,9,,,,,,,,,,,2645.546,2646.045,2646.296,2650.628,space,4.317,,2650.629,19,86,2651.628,2651.628,2651.629,,,,0,16,16,16,1,90,15,,,,,,,,
,,5ba85b3a46de410001ecf951,65af54f4c6f63cf399fca60f,2024-01-23_00h07.08.688,bars,2023.2.3,Win32,60.0240096,657b66ea316d21385b68909f,,,,,,,,,,,2651.63,2652.628,,,2653.129,2653.38,,128,-52,,,,,,,,,,,,,,,,bars/042.png,bars/mask004.png,,,,,,,,,,,,4,1,,,,,,,10,10,10,10,,,,,,,,,,,2652.628,2653.129,2653.38,2660.212,space,6.821,,2660.212,17,53,2661.212,2661.212,2661.214,,,,0,17,17,17,1,145,75,,,,,,,,
,,5ba85b3a46de410001ecf951,65af54f4c6f63cf399fca60f,2024-01-23_00h07.08.688,bars,2023.2.3,Win32,60.0240096,657b66ea316d21385b68909f,,,,,,,,,,,2661.215,2662.212,,,2662.712,2662.962,,168,168,,,,,,,,,,,,,,,,bars/021.png,bars/mask000.png,,,,,,,,,,,,5,1,,,,,,,10,10,9,10,,,,,,,,,,,2662.212,2662.712,2662.962,2669.778,space,6.808,,2669.778,13,82,2670.779,2670.779,2670.78,,,,0,18,18,18,1,155,70,,,,,,,,
,,5ba85b3a46de410001ecf951,65af54f4c6f63cf399fca60f,2024-01-23_00h07.08.688,bars,2023.2.3,Win32,60.0240096,657b66ea316d21385b68909f,,,,,,,,,,,2670.781,2671.779,,,2672.279,2672.529,,70,70,,,,,,,,,,,,,,,,bars/014.png,bars/mask001.png,,,,,,,,,,,,7,1,,,,,,,8,8,10,8,,,,,,,,,,,2671.779,2672.279,2672.529,2682.028,space,9.484,,2682.028,10,70,2683.028,2683.028,2683.03,,,,0,19,19,19,1,80,0,,,,,,,,
