init_variables.started,init_variables.stopped,participant,session,date,expName,psychopyVersion,OS,frameRate,study_id,instruction_exp.started,instruction_exp.stopped,key_resp_8.keys,key_resp_8.rt,key_resp_8.duration,instruction_single.started,instruction_single.stopped,key_resp_2.keys,key_resp_2.rt,key_resp_2.duration,interval.started,interval.stopped,cue_single.started,cue_single.stopped,mask.started,mask.stopped,ori_response_single.started,res_ori,res,ori_response_single.stopped,key_resp_single.keys,key_resp_single.rt,key_resp_single.duration,disp_single.started,disp_single.stopped,key_resp.keys,key_resp.rt,key_resp.duration,single.thisRepN,single.thisTrialN,single.thisN,single.thisIndex,single.ran,ori,path,mask_path,instruction_bandit.started,instruction_bandit.stopped,key_resp_6.keys,key_resp_6.rt,key_resp_6.duration,cue_bandit.started,cue_bandit.stopped,bandit_res.keys,bandit_res.rt,bandit_res.duration,outcome_bandit.started,rew,action,outcome_bandit.stopped,bandit.thisRepN,bandit.thisTrialN,bandit.thisN,bandit.thisIndex,bandit.ran,actual_rew1,actual_rew2,rew1,rew2,instruction_task.started,instruction_task.stopped,key_resp_7.keys,key_resp_7.rt,key_resp_7.duration,wait_ready.started,wait_ready.stopped,key_resp_3.keys,key_resp_3.rt,key_resp_3.duration,cue.started,cue.stopped,ori_response.started,ori_response.stopped,key_resp_5.keys,key_resp_5.rt,key_resp_5.duration,outcome.started,diff1,diff2,outcome.stopped,disp_outcome_practice.started,disp_outcome_practice.stopped,key_resp_4.keys,key_resp_4.rt,key_resp_4.duration,trials.thisRepN,trials.thisTrialN,trials.thisN,trials.thisIndex,trials.ran,ori1,ori2,break_blk.started,break_blk.stopped,block.thisRepN,block.thisTrialN,block.thisN,block.thisIndex,block.ran,condition_file
0,0,5f29eff59714081a3594a331,65af54e272f417c9b9fa8810,2024-01-23_18h58.43.960,bars,2023.2.3,Win32,60.0240096,657b66ea316d21385b68909f,,,,,,,,,,,,,,,,,,,,,,,,,,,,,,,,,,,,,,,,,,,,,,,,,,,,,,,,,,,,,,,,,,,,,,,,,,,,,,,,,,,,,,,,,,,,,,,,,,,,
,,5f29eff59714081a3594a331,65af54e272f417c9b9fa8810,2024-01-23_18h58.43.960,bars,2023.2.3,Win32,60.0240096,657b66ea316d21385b68909f,0,11.519,y,11.503,,,,,,,,,,,,,,,,,,,,,,,,,,,,,,,,,,,,,,,,,,,,,,,,,,,,,,,,,,,,,,,,,,,,,,,,,,,,,,,,,,,,,,,,,,,,,,,,
,,5f29eff59714081a3594a331,65af54e272f417c9b9fa8810,2024-01-23_18h58.43.960,bars,2023.2.3,Win32,60.0240096,657b66ea316d21385b68909f,,,,,,11.519,117.281,space,105.732,,,,,,,,,,,,,,,,,,,,,,,,,,,,,,,,,,,,,,,,,,,,,,,,,,,,,,,,,,,,,,,,,,,,,,,,,,,,,,,,,,,,,,,,,,,
,,5f29eff59714081a3594a331,65af54e272f417c9b9fa8810,2024-01-23_18h58.43.960,bars,2023.2.3,Win32,60.0240096,657b66ea316d21385b68909f,,,,,,,,,,,117.284,118.279,118.279,118.78,118.78,119.03,119.03,144,144,131.663,space,12.613,,131.663,145.613,space,13.927,,0,0,0,9,1,20,bars/single009.png,bars/mask006.png,,,,,,,,,,,,,,,,,,,,,,,,,,,,,,,,,,,,,,,,,,,,,,,,,,,,,,,,,,,,,,,,
,,5f29eff59714081a3594a331,65af54e272f417c9b9fa8810,2024-01-23_18h58.43.960,bars,2023.2.3,Win32,60.0240096,657b66ea316d21385b68909f,,,,,,,,,,,145.613,146.612,146.612,147.112,147.112,147.362,147.362,42,222,155.079,space,7.707,,155.079,158.912,space,3.824,,0,1,1,1,1,20,bars/single001.png,bars/mask006.png,,,,,,,,,,,,,,,,,,,,,,,,,,,,,,,,,,,,,,,,,,,,,,,,,,,,,,,,,,,,,,,,
,,5f29eff59714081a3594a331,65af54e272f417c9b9fa8810,2024-01-23_18h58.43.960,bars,2023.2.3,Win32,60.0240096,657b66ea316d21385b68909f,,,,,,,,,,,158.914,159.912,159.912,160.411,160.412,160.661,160.661,156,156,167.844,space,7.168,,167.844,187.594,space,19.733,,0,2,2,8,1,160,bars/single008.png,bars/mask004.png,,,,,,,,,,,,,,,,,,,,,,,,,,,,,,,,,,,,,,,,,,,,,,,,,,,,,,,,,,,,,,,,
,,5f29eff59714081a3594a331,65af54e272f417c9b9fa8810,2024-01-23_18h58.43.960,bars,2023.2.3,Win32,60.0240096,657b66ea316d21385b68909f,,,,,,,,,,,187.595,188.593,188.593,189.093,189.094,189.343,189.343,68,68,193.843,space,4.484,,193.843,197.126,space,3.267,,0,3,3,5,1,55,bars/single005.png,bars/mask008.png,,,,,,,,,,,,,,,,,,,,,,,,,,,,,,,,,,,,,,,,,,,,,,,,,,,,,,,,,,,,,,,,
,,5f29eff59714081a3594a331,65af54e272f417c9b9fa8810,2024-01-23_18h58.43.960,bars,2023.2.3,Win32,60.0240096,657b66ea316d21385b68909f,,,,,,,,,,,197.127,198.126,198.126,198.626,198.626,198.876,198.876,144,144,203.459,space,4.566,,203.459,206.509,space,3.034,,0,4,4,2,1,145,bars/single002.png,bars/mask003.png,,,,,,,,,,,,,,,,,,,,,,,,,,,,,,,,,,,,,,,,,,,,,,,,,,,,,,,,,,,,,,,,
,,5f29eff59714081a3594a331,65af54e272f417c9b9fa8810,2024-01-23_18h58.43.960,bars,2023.2.3,Win32,60.0240096,657b66ea316d21385b68909f,,,,,,,,,,,206.509,207.509,207.509,208.009,208.009,208.259,208.259,90,90,214.442,space,6.168,,214.442,218.508,space,4.05,,0,5,5,4,1,95,bars/single004.png,bars/mask004.png,,,,,,,,,,,,,,,,,,,,,,,,,,,,,,,,,,,,,,,,,,,,,,,,,,,,,,,,,,,,,,,,
,,5f29eff59714081a3594a331,65af54e272f417c9b9fa8810,2024-01-23_18h58.43.960,bars,2023.2.3,Win32,60.0240096,657b66ea316d21385b68909f,,,,,,,,,,,218.51,219.508,219.508,220.009,220.009,220.258,220.258,35,35,223.491,space,3.219,,223.491,225.725,space,2.216,,0,6,6,3,1,20,bars/single003.png,bars/mask005.png,,,,,,,,,,,,,,,,,,,,,,,,,,,,,,,,,,,,,,,,,,,,,,,,,,,,,,,,,,,,,,,,
,,5f29eff59714081a3594a331,65af54e272f417c9b9fa8810,2024-01-23_18h58.43.960,bars,2023.2.3,Win32,60.0240096,657b66ea316d21385b68909f,,,,,,,,,,,225.726,226.724,226.724,227.225,227.225,227.475,227.475,48,48,230.541,space,3.055,,230.541,232.274,space,1.717,,0,7,7,7,1,45,bars/single007.png,bars/mask009.png,,,,,,,,,,,,,,,,,,,,,,,,,,,,,,,,,,,,,,,,,,,,,,,,,,,,,,,,,,,,,,,,
,,5f29eff59714081a3594a331,65af54e272f417c9b9fa8810,2024-01-23_18h58.43.960,bars,2023.2.3,Win32,60.0240096,657b66ea316d21385b68909f,,,,,,,,,,,232.275,233.274,233.274,233.774,233.774,234.024,234.024,0,180,239.874,space,5.836,,239.874,242.474,space,2.587,,0,8,8,6,1,175,bars/single006.png,bars/mask005.png,,,,,,,,,,,,,,,,,,,,,,,,,,,,,,,,,,,,,,,,,,,,,,,,,,,,,,,,,,,,,,,,
,,5f29eff59714081a3594a331,65af54e272f417c9b9fa8810,2024-01-23_18h58.43.960,bars,2023.2.3,Win32,60.0240096,657b66ea316d21385b68909f,,,,,,,,,,,242.474,243.474,243.474,243.974,243.974,244.223,244.223,155,-25,249.457,space,5.217,,249.457,266.423,space,16.95,,0,9,9,0,1,150,bars/single000.png,bars/mask006.png,,,,,,,,,,,,,,,,,,,,,,,,,,,,,,,,,,,,,,,,,,,,,,,,,,,,,,,,,,,,,,,,
,,5f29eff59714081a3594a331,65af54e272f417c9b9fa8810,2024-01-23_18h58.43.960,bars,2023.2.3,Win32,60.0240096,657b66ea316d21385b68909f,,,,,,,,,,,,,,,,,,,,,,,,,,,,,,,,,,,,,266.423,288.489,space,22.033,,,,,,,,,,,,,,,,,,,,,,,,,,,,,,,,,,,,,,,,,,,,,,,,,,,,,,,,,,,,
,,5f29eff59714081a3594a331,65af54e272f417c9b9fa8810,2024-01-23_18h58.43.960,bars,2023.2.3,Win32,60.0240096,657b66ea316d21385b68909f,,,,,,,,,,,,,,,,,,,,,,,,,,,,,,,,,,,,,,,,,,288.493,291.971,left,3.449,,291.971,9,1,292.971,0,0,0,0,1,9,1,9,2,,,,,,,,,,,,,,,,,,,,,,,,,,,,,,,,,,,,,,,,,
,,5f29eff59714081a3594a331,65af54e272f417c9b9fa8810,2024-01-23_18h58.43.960,bars,2023.2.3,Win32,60.0240096,657b66ea316d21385b68909f,,,,,,,,,,,,,,,,,,,,,,,,,,,,,,,,,,,,,,,,,,292.972,294.038,right,1.051,,294.038,1,2,295.038,0,1,1,1,1,10,0,10,1,,,,,,,,,,,,,,,,,,,,,,,,,,,,,,,,,,,,,,,,,
,,5f29eff59714081a3594a331,65af54e272f417c9b9fa8810,2024-01-23_18h58.43.960,bars,2023.2.3,Win32,60.0240096,657b66ea316d21385b68909f,,,,,,,,,,,,,,,,,,,,,,,,,,,,,,,,,,,,,,,,,,295.038,295.471,right,0.423,,295.471,2,2,296.471,0,2,2,2,1,10,2,10,2,,,,,,,,,,,,,,,,,,,,,,,,,,,,,,,,,,,,,,,,,
,,5f29eff59714081a3594a331,65af54e272f417c9b9fa8810,2024-01-23_18h58.43.960,bars,2023.2.3,Win32,60.0240096,657b66ea316d21385b68909f,,,,,,,,,,,,,,,,,,,,,,,,,,,,,,,,,,,,,,,,,,296.471,296.887,left,0.407,,296.887,7,1,297.888,0,3,3,3,1,8,4,7,3,,,,,,,,,,,,,,,,,,,,,,,,,,,,,,,,,,,,,,,,,
,,5f29eff59714081a3594a331,65af54e272f417c9b9fa8810,2024-01-23_18h58.43.960,bars,2023.2.3,Win32,60.0240096,657b66ea316d21385b68909f,,,,,,,,,,,,,,,,,,,,,,,,,,,,,,,,,,,,,,,,,,297.888,298.321,left,0.417,,298.321,5,1,299.321,0,4,4,4,1,6,2,5,1,,,,,,,,,,,,,,,,,,,,,,,,,,,,,,,,,,,,,,,,,
,,5f29eff59714081a3594a331,65af54e272f417c9b9fa8810,2024-01-23_18h58.43.960,bars,2023.2.3,Win32,60.0240096,657b66ea316d21385b68909f,,,,,,,,,,,,,,,,,,,,,,,,,,,,,,,,,,,,,,,,,,299.322,300.037,right,0.699,,300.037,4,2,301.038,0,5,5,5,1,4,4,4,4,,,,,,,,,,,,,,,,,,,,,,,,,,,,,,,,,,,,,,,,,
,,5f29eff59714081a3594a331,65af54e272f417c9b9fa8810,2024-01-23_18h58.43.960,bars,2023.2.3,Win32,60.0240096,657b66ea316d21385b68909f,,,,,,,,,,,,,,,,,,,,,,,,,,,,,,,,,,,,,,,,,,301.038,301.387,left,0.337,,301.388,1,1,302.388,0,6,6,6,1,2,2,1,2,,,,,,,,,,,,,,,,,,,,,,,,,,,,,,,,,,,,,,,,,
,,5f29eff59714081a3594a331,65af54e272f417c9b9fa8810,2024-01-23_18h58.43.960,bars,2023.2.3,Win32,60.0240096,657b66ea316d21385b68909f,,,,,,,,,,,,,,,,,,,,,,,,,,,,,,,,,,,,,,,,,,302.388,302.921,left,0.519,,302.921,0,1,303.92,0,7,7,7,1,0,0,0,1,,,,,,,,,,,,,,,,,,,,,,,,,,,,,,,,,,,,,,,,,
,,5f29eff59714081a3594a331,65af54e272f417c9b9fa8810,2024-01-23_18h58.43.960,bars,2023.2.3,Win32,60.0240096,657b66ea316d21385b68909f,,,,,,,,,,,,,,,,,,,,,,,,,,,,,,,,,,,,,,,,,,303.921,304.354,right,0.417,,304.354,0,2,305.353,0,8,8,8,1,0,2,1,0,,,,,,,,,,,,,,,,,,,,,,,,,,,,,,,,,,,,,,,,,
,,5f29eff59714081a3594a331,65af54e272f417c9b9fa8810,2024-01-23_18h58.43.960,bars,2023.2.3,Win32,60.0240096,657b66ea316d21385b68909f,,,,,,,,,,,,,,,,,,,,,,,,,,,,,,,,,,,,,,,,,,305.354,305.67,right,0.304,,305.671,3,2,306.67,0,9,9,9,1,2,4,2,3,,,,,,,,,,,,,,,,,,,,,,,,,,,,,,,,,,,,,,,,,
,,5f29eff59714081a3594a331,65af54e272f417c9b9fa8810,2024-01-23_18h58.43.960,bars,2023.2.3,Win32,60.0240096,657b66ea316d21385b68909f,,,,,,,,,,,,,,,,,,,,,,,,,,,,,,,,,,,,,,,,,,306.671,307.053,left,0.373,,307.053,0,1,308.054,0,10,10,10,1,0,2,0,3,,,,,,,,,,,,,,,,,,,,,,,,,,,,,,,,,,,,,,,,,
,,5f29eff59714081a3594a331,65af54e272f417c9b9fa8810,2024-01-23_18h58.43.960,bars,2023.2.3,Win32,60.0240096,657b66ea316d21385b68909f,,,,,,,,,,,,,,,,,,,,,,,,,,,,,,,,,,,,,,,,,,308.056,308.387,left,0.319,,308.387,0,1,309.387,0,11,11,11,1,0,4,0,3,,,,,,,,,,,,,,,,,,,,,,,,,,,,,,,,,,,,,,,,,
,,5f29eff59714081a3594a331,65af54e272f417c9b9fa8810,2024-01-23_18h58.43.960,bars,2023.2.3,Win32,60.0240096,657b66ea316d21385b68909f,,,,,,,,,,,,,,,,,,,,,,,,,,,,,,,,,,,,,,,,,,309.387,309.737,left,0.334,,309.737,1,1,310.737,0,12,12,12,1,2,6,1,6,,,,,,,,,,,,,,,,,,,,,,,,,,,,,,,,,,,,,,,,,
,,5f29eff59714081a3594a331,65af54e272f417c9b9fa8810,2024-01-23_18h58.43.960,bars,2023.2.3,Win32,60.0240096,657b66ea316d21385b68909f,,,,,,,,,,,,,,,,,,,,,,,,,,,,,,,,,,,,,,,,,,310.738,311.071,left,0.316,,311.071,1,1,312.07,0,13,13,13,1,0,4,1,3,,,,,,,,,,,,,,,,,,,,,,,,,,,,,,,,,,,,,,,,,
,,5f29eff59714081a3594a331,65af54e272f417c9b9fa8810,2024-01-23_18h58.43.960,bars,2023.2.3,Win32,60.0240096,657b66ea316d21385b68909f,,,,,,,,,,,,,,,,,,,,,,,,,,,,,,,,,,,,,,,,,,312.071,312.42,right,0.337,,312.42,7,2,313.42,0,14,14,14,1,2,6,2,7,,,,,,,,,,,,,,,,,,,,,,,,,,,,,,,,,,,,,,,,,
,,5f29eff59714081a3594a331,65af54e272f417c9b9fa8810,2024-01-23_18h58.43.960,bars,2023.2.3,Win32,60.0240096,657b66ea316d21385b68909f,,,,,,,,,,,,,,,,,,,,,,,,,,,,,,,,,,,,,,,,,,313.42,313.837,right,0.402,,313.837,9,2,314.836,0,15,15,15,1,4,8,3,9,,,,,,,,,,,,,,,,,,,,,,,,,,,,,,,,,,,,,,,,,
,,5f29eff59714081a3594a331,65af54e272f417c9b9fa8810,2024-01-23_18h58.43.960,bars,2023.2.3,Win32,60.0240096,657b66ea316d21385b68909f,,,,,,,,,,,,,,,,,,,,,,,,,,,,,,,,,,,,,,,,,,314.837,315.337,right,0.484,,315.337,7,2,316.336,0,16,16,16,1,6,6,7,7,,,,,,,,,,,,,,,,,,,,,,,,,,,,,,,,,,,,,,,,,
,,5f29eff59714081a3594a331,65af54e272f417c9b9fa8810,2024-01-23_18h58.43.960,bars,2023.2.3,Win32,60.0240096,657b66ea316d21385b68909f,,,,,,,,,,,,,,,,,,,,,,,,,,,,,,,,,,,,,,,,,,316.337,316.67,right,0.316,,316.67,5,2,317.67,0,17,17,17,1,8,4,9,5,,,,,,,,,,,,,,,,,,,,,,,,,,,,,,,,,,,,,,,,,
,,5f29eff59714081a3594a331,65af54e272f417c9b9fa8810,2024-01-23_18h58.43.960,bars,2023.2.3,Win32,60.0240096,657b66ea316d21385b68909f,,,,,,,,,,,,,,,,,,,,,,,,,,,,,,,,,,,,,,,,,,317.67,318.153,right,0.472,,318.153,1,2,319.153,0,18,18,18,1,6,2,5,1,,,,,,,,,,,,,,,,,,,,,,,,,,,,,,,,,,,,,,,,,
,,5f29eff59714081a3594a331,65af54e272f417c9b9fa8810,2024-01-23_18h58.43.960,bars,2023.2.3,Win32,60.0240096,657b66ea316d21385b68909f,,,,,,,,,,,,,,,,,,,,,,,,,,,,,,,,,,,,,,,,,,319.154,319.503,right,0.338,,319.503,0,2,320.503,0,19,19,19,1,8,0,7,0,,,,,,,,,,,,,,,,,,,,,,,,,,,,,,,,,,,,,,,,,
,,5f29eff59714081a3594a331,65af54e272f417c9b9fa8810,2024-01-23_18h58.43.960,bars,2023.2.3,Win32,60.0240096,657b66ea316d21385b68909f,,,,,,,,,,,,,,,,,,,,,,,,,,,,,,,,,,,,,,,,,,,,,,,,,,,,,,,,,,,,320.503,376.767,space,56.244,,,,,,,,,,,,,,,,,,,,,,,,,,,,,,,,,,,,,
,,5f29eff59714081a3594a331,65af54e272f417c9b9fa8810,2024-01-23_18h58.43.960,bars,2023.2.3,Win32,60.0240096,657b66ea316d21385b68909f,,,,,,,,,,,378.438,379.434,,,379.934,380.184,,108,108,,,,,,,,,,,,,,,,bars/018.png,bars/mask009.png,,,,,,,,,,,,0,2,,,,,,,8,1,8,0,,,,,,376.772,378.433,space,1.636,,379.434,379.934,380.184,387.184,space,6.981,,387.184,42,18,388.183,388.183,409.516,space,21.312,,0,0,0,0,1,150,90,,,,,,,,
,,5f29eff59714081a3594a331,65af54e272f417c9b9fa8810,2024-01-23_18h58.43.960,bars,2023.2.3,Win32,60.0240096,657b66ea316d21385b68909f,,,,,,,,,,,409.517,410.516,,,411.015,411.265,,26,26,,,,,,,,,,,,,,,,bars/014.png,bars/mask008.png,,,,,,,,,,,,0,2,,,,,,,6,3,5,3,,,,,,,,,,,410.516,411.015,411.265,414.981,space,3.701,,414.982,54,26,415.982,415.982,423.397,space,7.399,,0,1,1,1,1,80,0,,,,,,,,
,,5f29eff59714081a3594a331,65af54e272f417c9b9fa8810,2024-01-23_18h58.43.960,bars,2023.2.3,Win32,60.0240096,657b66ea316d21385b68909f,,,,,,,,,,,423.398,424.397,,,424.898,425.148,,12,192,,,,,,,,,,,,,,,,bars/007.png,bars/mask003.png,,,,,,,,,,,,2,1,,,,,,,4,5,5,6,,,,,,,,,,,424.397,424.898,425.148,429.38,space,4.218,,429.381,17,43,430.381,430.381,435.264,space,4.868,,0,2,2,2,1,175,55,,,,,,,,
,,5f29eff59714081a3594a331,65af54e272f417c9b9fa8810,2024-01-23_18h58.43.960,bars,2023.2.3,Win32,60.0240096,657b66ea316d21385b68909f,,,,,,,,,,,435.266,436.264,,,436.763,437.014,,164,-16,,,,,,,,,,,,,,,,bars/007.png,bars/mask008.png,,,,,,,,,,,,4,1,,,,,,,6,3,6,2,,,,,,,,,,,436.264,436.763,437.014,440.73,space,3.707,,440.73,11,71,441.73,441.73,444.814,space,3.066,,0,3,3,3,1,175,55,,,,,,,,
,,5f29eff59714081a3594a331,65af54e272f417c9b9fa8810,2024-01-23_18h58.43.960,bars,2023.2.3,Win32,60.0240096,657b66ea316d21385b68909f,,,,,,,,,,,444.814,445.813,,,446.313,446.563,,6,186,,,,,,,,,,,,,,,,bars/014.png,bars/mask003.png,,,,,,,,,,,,0,2,,,,,,,8,1,6,0,,,,,,,,,,,445.813,446.313,446.563,449.113,space,2.54,,449.113,74,6,450.114,450.114,459.313,space,9.169,,0,4,4,4,1,80,0,,,,,,,,
,,5f29eff59714081a3594a331,65af54e272f417c9b9fa8810,2024-01-23_18h58.43.960,bars,2023.2.3,Win32,60.0240096,657b66ea316d21385b68909f,,,,,,,,,,,459.313,460.313,,,460.812,461.062,,89,89,,,,,,,,,,,,,,,,bars/027.png,bars/mask000.png,,,,,,,,,,,,3,1,,,,,,,10,3,10,3,,,,,,,,,,,460.313,460.812,461.062,465.229,space,4.15,,465.23,21,39,466.229,466.229,469.88,space,3.636,,0,5,5,5,1,110,50,,,,,,,,
,,5f29eff59714081a3594a331,65af54e272f417c9b9fa8810,2024-01-23_18h58.43.960,bars,2023.2.3,Win32,60.0240096,657b66ea316d21385b68909f,,,,,,,,,,,469.88,470.879,,,471.379,471.629,,4,4,,,,,,,,,,,,,,,,bars/032.png,bars/mask005.png,,,,,,,,,,,,0,2,,,,,,,8,1,8,0,,,,,,,,,,,470.879,471.379,471.63,475.963,space,4.323,,475.963,59,16,476.963,476.963,482.429,space,5.435,,0,6,6,6,1,125,20,,,,,,,,
,,5f29eff59714081a3594a331,65af54e272f417c9b9fa8810,2024-01-23_18h58.43.960,bars,2023.2.3,Win32,60.0240096,657b66ea316d21385b68909f,,,,,,,,,,,482.429,483.428,,,483.928,484.178,,145,-35,,,,,,,,,,,,,,,,bars/015.png,bars/mask005.png,,,,,,,,,,,,0,2,,,,,,,6,0,6,0,,,,,,,,,,,483.428,483.928,484.178,488.794,space,4.602,,488.794,35,15,489.795,489.795,494.695,space,4.882,,0,7,7,7,1,110,160,,,,,,,,
,,5f29eff59714081a3594a331,65af54e272f417c9b9fa8810,2024-01-23_18h58.43.960,bars,2023.2.3,Win32,60.0240096,657b66ea316d21385b68909f,,,,,,,,,,,494.695,495.694,,,496.194,496.444,,22,22,,,,,,,,,,,,,,,,bars/026.png,bars/mask008.png,,,,,,,,,,,,3,1,,,,,,,4,0,6,0,,,,,,,,,,,495.694,496.194,496.444,500.094,space,3.634,,500.094,13,63,501.093,501.093,503.027,space,1.92,,0,8,8,8,1,35,85,,,,,,,,
,,5f29eff59714081a3594a331,65af54e272f417c9b9fa8810,2024-01-23_18h58.43.960,bars,2023.2.3,Win32,60.0240096,657b66ea316d21385b68909f,,,,,,,,,,,503.028,504.027,,,504.528,504.777,,105,105,,,,,,,,,,,,,,,,bars/041.png,bars/mask005.png,,,,,,,,,,,,0,2,,,,,,,6,0,6,0,,,,,,,,,,,504.027,504.528,504.777,509.16,space,4.367,,509.161,85,20,510.16,510.161,518.059,space,7.879,,0,9,9,9,1,20,85,,,,,,,,
,,5f29eff59714081a3594a331,65af54e272f417c9b9fa8810,2024-01-23_18h58.43.960,bars,2023.2.3,Win32,60.0240096,657b66ea316d21385b68909f,,,,,,,,,,,518.06,519.059,,,519.56,519.809,,42,42,,,,,,,,,,,,,,,,bars/038.png,bars/mask000.png,,,,,,,,,,,,0,2,,,,,,,8,2,8,3,,,,,,,,,,,519.059,519.56,519.81,521.693,space,1.869,,521.693,57,28,522.693,522.693,524.943,space,2.232,,0,10,10,10,1,165,70,,,,,,,,
,,5f29eff59714081a3594a331,65af54e272f417c9b9fa8810,2024-01-23_18h58.43.960,bars,2023.2.3,Win32,60.0240096,657b66ea316d21385b68909f,,,,,,,,,,,524.943,525.943,,,526.443,526.693,,124,124,,,,,,,,,,,,,,,,bars/024.png,bars/mask008.png,,,,,,,,,,,,6,1,,,,,,,6,0,7,0,,,,,,,,,,,525.943,526.443,526.693,530.11,space,3.407,,530.11,4,46,531.109,531.11,533.709,space,2.579,,0,11,11,11,1,120,170,,,,,,,,
,,5f29eff59714081a3594a331,65af54e272f417c9b9fa8810,2024-01-23_18h58.43.960,bars,2023.2.3,Win32,60.0240096,657b66ea316d21385b68909f,,,,,,,,,,,533.709,534.709,,,535.209,535.459,,126,126,,,,,,,,,,,,,,,,bars/021.png,bars/mask000.png,,,,,,,,,,,,0,1,,,,,,,4,2,5,2,,,,,,,,,,,534.709,535.209,535.459,539.609,space,4.138,,539.609,29,56,540.609,540.609,544.041,space,3.421,,0,12,12,12,1,155,70,,,,,,,,
,,5f29eff59714081a3594a331,65af54e272f417c9b9fa8810,2024-01-23_18h58.43.960,bars,2023.2.3,Win32,60.0240096,657b66ea316d21385b68909f,,,,,,,,,,,544.042,545.042,,,545.542,545.792,,121,121,,,,,,,,,,,,,,,,bars/002.png,bars/mask003.png,,,,,,,,,,,,5,1,,,,,,,6,0,7,0,,,,,,,,,,,545.042,545.542,545.792,548.759,space,2.952,,548.759,9,36,549.758,549.758,551.274,space,1.499,,0,13,13,13,1,130,85,,,,,,,,
,,5f29eff59714081a3594a331,65af54e272f417c9b9fa8810,2024-01-23_18h58.43.960,bars,2023.2.3,Win32,60.0240096,657b66ea316d21385b68909f,,,,,,,,,,,551.275,552.275,,,552.775,553.025,,90,90,,,,,,,,,,,,,,,,bars/041.png,bars/mask000.png,,,,,,,,,,,,2,2,,,,,,,8,2,7,2,,,,,,,,,,,552.275,552.774,553.025,558.408,space,5.369,,558.408,70,5,559.407,559.407,562.591,space,3.165,,0,14,14,14,1,20,85,,,,,,,,
,,5f29eff59714081a3594a331,65af54e272f417c9b9fa8810,2024-01-23_18h58.43.960,bars,2023.2.3,Win32,60.0240096,657b66ea316d21385b68909f,,,,,,,,,,,562.592,563.591,,,564.091,564.341,,105,105,,,,,,,,,,,,,,,,bars/002.png,bars/mask007.png,,,,,,,,,,,,2,2,,,,,,,10,4,10,6,,,,,,,,,,,563.591,564.091,564.341,570.808,space,6.45,,570.808,25,20,571.807,571.807,574.606,space,2.784,,0,15,15,15,1,130,85,,,,,,,,
,,5f29eff59714081a3594a331,65af54e272f417c9b9fa8810,2024-01-23_18h58.43.960,bars,2023.2.3,Win32,60.0240096,657b66ea316d21385b68909f,,,,,,,,,,,574.607,575.606,,,576.107,576.357,,143,143,,,,,,,,,,,,,,,,bars/038.png,bars/mask000.png,,,,,,,,,,,,3,1,,,,,,,10,2,10,2,,,,,,,,,,,575.607,576.107,576.357,580.49,space,4.122,,580.49,22,73,581.49,581.49,583.173,space,1.655,,0,16,16,16,1,165,70,,,,,,,,
,,5f29eff59714081a3594a331,65af54e272f417c9b9fa8810,2024-01-23_18h58.43.960,bars,2023.2.3,Win32,60.0240096,657b66ea316d21385b68909f,,,,,,,,,,,583.174,584.174,,,584.673,584.922,,49,49,,,,,,,,,,,,,,,,bars/026.png,bars/mask009.png,,,,,,,,,,,,3,1,,,,,,,8,0,6,0,,,,,,,,,,,584.174,584.673,584.923,587.923,space,2.982,,587.923,14,36,588.922,588.922,591.305,space,2.367,,0,17,17,17,1,35,85,,,,,,,,
,,5f29eff59714081a3594a331,65af54e272f417c9b9fa8810,2024-01-23_18h58.43.960,bars,2023.2.3,Win32,60.0240096,657b66ea316d21385b68909f,,,,,,,,,,,591.307,592.306,,,592.806,593.056,,82,82,,,,,,,,,,,,,,,,bars/002.png,bars/mask008.png,,,,,,,,,,,,3,2,,,,,,,10,2,10,3,,,,,,,,,,,592.306,592.806,593.056,597.09,space,4.015,,597.09,48,3,598.089,598.089,601.856,space,3.743,,0,18,18,18,1,130,85,,,,,,,,
,,5f29eff59714081a3594a331,65af54e272f417c9b9fa8810,2024-01-23_18h58.43.960,bars,2023.2.3,Win32,60.0240096,657b66ea316d21385b68909f,,,,,,,,,,,601.857,602.855,,,603.356,603.606,,166,166,,,,,,,,,,,,,,,,bars/008.png,bars/mask008.png,,,,,,,,,,,,4,2,,,,,,,10,4,10,7,,,,,,,,,,,602.855,603.356,603.606,606.355,space,2.734,,606.355,56,14,607.355,607.355,609.939,space,2.569,,0,19,19,19,1,110,0,,,,,,,,
,,5f29eff59714081a3594a331,65af54e272f417c9b9fa8810,2024-01-23_18h58.43.960,bars,2023.2.3,Win32,60.0240096,657b66ea316d21385b68909f,,,,,,,,,,,609.939,610.938,,,611.438,611.688,,121,-59,,,,,,,,,,,,,,,,bars/034.png,bars/mask007.png,,,,,,,,,,,,7,1,,,,,,,8,6,8,5,,,,,,,,,,,610.938,611.438,611.688,617.388,space,5.684,,617.388,4,56,618.388,618.388,623.871,space,5.469,,0,20,20,20,1,125,65,,,,,,,,
,,5f29eff59714081a3594a331,65af54e272f417c9b9fa8810,2024-01-23_18h58.43.960,bars,2023.2.3,Win32,60.0240096,657b66ea316d21385b68909f,,,,,,,,,,,623.871,624.871,,,625.372,625.621,,60,60,,,,,,,,,,,,,,,,bars/029.png,bars/mask006.png,,,,,,,,,,,,4,2,,,,,,,6,8,6,8,,,,,,,,,,,624.872,625.372,625.621,629.521,space,3.887,,629.521,30,15,630.52,630.52,635.287,space,4.747,,0,21,21,21,1,90,45,,,,,,,,
,,5f29eff59714081a3594a331,65af54e272f417c9b9fa8810,2024-01-23_18h58.43.960,bars,2023.2.3,Win32,60.0240096,657b66ea316d21385b68909f,,,,,,,,,,,635.288,636.287,,,636.787,637.037,,150,150,,,,,,,,,,,,,,,,bars/007.png,bars/mask005.png,,,,,,,,,,,,1,1,,,,,,,4,6,4,7,,,,,,,,,,,636.288,636.787,637.037,640.82,space,3.771,,640.82,25,85,641.82,641.82,644.254,space,2.414,,0,22,22,22,1,175,55,,,,,,,,
,,5f29eff59714081a3594a331,65af54e272f417c9b9fa8810,2024-01-23_18h58.43.960,bars,2023.2.3,Win32,60.0240096,657b66ea316d21385b68909f,,,,,,,,,,,644.254,645.254,,,645.753,646.003,,39,39,,,,,,,,,,,,,,,,bars/025.png,bars/mask002.png,,,,,,,,,,,,4,2,,,,,,,6,4,7,4,,,,,,,,,,,645.254,645.753,646.003,649.837,space,3.817,,649.837,66,1,650.837,650.837,654.286,space,3.429,,0,23,23,23,1,105,40,,,,,,,,
,,5f29eff59714081a3594a331,65af54e272f417c9b9fa8810,2024-01-23_18h58.43.960,bars,2023.2.3,Win32,60.0240096,657b66ea316d21385b68909f,,,,,,,,,,,654.287,655.287,,,655.786,656.036,,58,238,,,,,,,,,,,,,,,,bars/010.png,bars/mask009.png,,,,,,,,,,,,5,2,,,,,,,4,6,4,5,,,,,,,,,,,655.287,655.786,656.036,661.637,space,5.584,,661.637,73,3,662.636,662.636,664.469,space,1.816,,0,24,24,24,1,165,55,,,,,,,,
,,5f29eff59714081a3594a331,65af54e272f417c9b9fa8810,2024-01-23_18h58.43.960,bars,2023.2.3,Win32,60.0240096,657b66ea316d21385b68909f,,,,,,,,,,,664.471,665.469,,,665.969,666.219,,142,142,,,,,,,,,,,,,,,,bars/049.png,bars/mask008.png,,,,,,,,,,,,2,1,,,,,,,6,8,5,7,,,,,,,,,,,665.469,665.969,666.219,669.486,space,3.252,,669.486,18,27,670.486,670.486,674.368,space,3.864,,0,25,25,25,1,160,115,,,,,,,,
,,5f29eff59714081a3594a331,65af54e272f417c9b9fa8810,2024-01-23_18h58.43.960,bars,2023.2.3,Win32,60.0240096,657b66ea316d21385b68909f,,,,,,,,,,,674.368,675.368,,,675.869,676.118,,65,245,,,,,,,,,,,,,,,,bars/029.png,bars/mask003.png,,,,,,,,,,,,3,2,,,,,,,4,10,4,9,,,,,,,,,,,675.368,675.869,676.118,681.118,space,4.983,,681.118,25,20,682.118,682.118,685.602,space,3.464,,0,26,26,26,1,90,45,,,,,,,,
,,5f29eff59714081a3594a331,65af54e272f417c9b9fa8810,2024-01-23_18h58.43.960,bars,2023.2.3,Win32,60.0240096,657b66ea316d21385b68909f,,,,,,,,,,,685.602,686.601,,,687.102,687.352,,144,144,,,,,,,,,,,,,,,,bars/046.png,bars/mask007.png,,,,,,,,,,,,4,1,,,,,,,6,10,6,10,,,,,,,,,,,686.601,687.102,687.352,690.518,space,3.152,,690.518,11,59,691.518,691.518,693.202,space,1.655,,0,27,27,27,1,155,85,,,,,,,,
,,5f29eff59714081a3594a331,65af54e272f417c9b9fa8810,2024-01-23_18h58.43.960,bars,2023.2.3,Win32,60.0240096,657b66ea316d21385b68909f,,,,,,,,,,,693.202,694.201,,,694.701,694.951,,74,74,,,,,,,,,,,,,,,,bars/030.png,bars/mask001.png,,,,,,,,,,,,6,2,,,,,,,4,8,4,9,,,,,,,,,,,694.201,694.701,694.951,696.918,space,1.951,,696.918,66,9,697.917,697.917,700.384,space,2.445,,0,28,28,28,1,140,65,,,,,,,,
,,5f29eff59714081a3594a331,65af54e272f417c9b9fa8810,2024-01-23_18h58.43.960,bars,2023.2.3,Win32,60.0240096,657b66ea316d21385b68909f,,,,,,,,,,,700.385,701.383,,,701.884,702.133,,115,115,,,,,,,,,,,,,,,,bars/018.png,bars/mask003.png,,,,,,,,,,,,2,2,,,,,,,6,10,6,10,,,,,,,,,,,701.383,701.884,702.133,707.1,space,4.954,,707.1,35,25,708.1,708.1,710.2,space,2.082,,0,29,29,29,1,150,90,,,,,,,,
,,5f29eff59714081a3594a331,65af54e272f417c9b9fa8810,2024-01-23_18h58.43.960,bars,2023.2.3,Win32,60.0240096,657b66ea316d21385b68909f,,,,,,,,,,,710.201,711.199,,,711.7,711.951,,86,266,,,,,,,,,,,,,,,,bars/023.png,bars/mask006.png,,,,,,,,,,,,0,2,,,,,,,8,8,7,7,,,,,,,,,,,711.199,711.7,711.951,717.367,space,5.398,,717.367,66,29,718.367,718.367,720.533,space,2.154,,0,30,30,30,1,20,115,,,,,,,,
,,5f29eff59714081a3594a331,65af54e272f417c9b9fa8810,2024-01-23_18h58.43.960,bars,2023.2.3,Win32,60.0240096,657b66ea316d21385b68909f,,,,,,,,,,,720.533,721.533,,,722.032,722.283,,122,122,,,,,,,,,,,,,,,,bars/023.png,bars/mask006.png,,,,,,,,,,,,6,2,,,,,,,10,6,10,8,,,,,,,,,,,721.533,722.032,722.283,725.499,space,3.203,,725.499,78,7,726.5,726.5,728.999,space,2.483,,0,31,31,31,1,20,115,,,,,,,,
,,5f29eff59714081a3594a331,65af54e272f417c9b9fa8810,2024-01-23_18h58.43.960,bars,2023.2.3,Win32,60.0240096,657b66ea316d21385b68909f,,,,,,,,,,,729,729.999,,,730.499,730.749,,79,79,,,,,,,,,,,,,,,,bars/034.png,bars/mask002.png,,,,,,,,,,,,4,2,,,,,,,8,8,8,8,,,,,,,,,,,729.999,730.499,730.749,731.749,space,0.982,,731.749,46,14,732.749,732.749,734.016,space,1.248,,0,32,32,32,1,125,65,,,,,,,,
,,5f29eff59714081a3594a331,65af54e272f417c9b9fa8810,2024-01-23_18h58.43.960,bars,2023.2.3,Win32,60.0240096,657b66ea316d21385b68909f,,,,,,,,,,,734.016,735.015,,,735.516,735.765,,18,18,,,,,,,,,,,,,,,,bars/033.png,bars/mask008.png,,,,,,,,,,,,5,1,,,,,,,6,10,6,8,,,,,,,,,,,735.015,735.516,735.765,737.616,space,1.835,,737.616,7,43,738.615,738.615,740.815,space,2.18,,0,33,33,33,1,25,155,,,,,,,,
,,5f29eff59714081a3594a331,65af54e272f417c9b9fa8810,2024-01-23_18h58.43.960,bars,2023.2.3,Win32,60.0240096,657b66ea316d21385b68909f,,,,,,,,,,,740.815,741.815,,,742.316,742.565,,79,79,,,,,,,,,,,,,,,,bars/041.png,bars/mask007.png,,,,,,,,,,,,6,2,,,,,,,4,10,3,8,,,,,,,,,,,741.815,742.315,742.565,746.448,space,3.867,,746.448,59,6,747.448,747.448,749.965,space,2.498,,0,34,34,34,1,20,85,,,,,,,,
,,5f29eff59714081a3594a331,65af54e272f417c9b9fa8810,2024-01-23_18h58.43.960,bars,2023.2.3,Win32,60.0240096,657b66ea316d21385b68909f,,,,,,,,,,,749.965,750.965,,,751.465,751.715,,140,140,,,,,,,,,,,,,,,,bars/043.png,bars/mask004.png,,,,,,,,,,,,5,2,,,,,,,6,8,5,8,,,,,,,,,,,750.965,751.465,751.715,755.431,space,3.704,,755.431,70,10,756.43,756.431,758.298,space,1.855,,0,35,35,35,1,30,130,,,,,,,,
,,5f29eff59714081a3594a331,65af54e272f417c9b9fa8810,2024-01-23_18h58.43.960,bars,2023.2.3,Win32,60.0240096,657b66ea316d21385b68909f,,,,,,,,,,,758.298,759.297,,,759.798,760.047,,44,44,,,,,,,,,,,,,,,,bars/031.png,bars/mask006.png,,,,,,,,,,,,7,2,,,,,,,8,10,9,10,,,,,,,,,,,759.297,759.798,760.048,762.781,space,2.717,,762.781,76,9,763.781,763.781,765.414,space,1.619,,0,36,36,36,1,120,35,,,,,,,,
,,5f29eff59714081a3594a331,65af54e272f417c9b9fa8810,2024-01-23_18h58.43.960,bars,2023.2.3,Win32,60.0240096,657b66ea316d21385b68909f,,,,,,,,,,,765.415,766.413,,,766.914,767.164,,133,133,,,,,,,,,,,,,,,,bars/043.png,bars/mask009.png,,,,,,,,,,,,9,2,,,,,,,10,10,10,10,,,,,,,,,,,766.413,766.914,767.164,769.631,space,2.451,,769.631,77,3,770.63,770.63,772.747,space,2.102,,0,37,37,37,1,30,130,,,,,,,,
,,5f29eff59714081a3594a331,65af54e272f417c9b9fa8810,2024-01-23_18h58.43.960,bars,2023.2.3,Win32,60.0240096,657b66ea316d21385b68909f,,,,,,,,,,,772.748,773.746,,,774.247,774.497,,129,-51,,,,,,,,,,,,,,,,bars/004.png,bars/mask005.png,,,,,,,,,,,,9,2,,,,,,,8,10,7,10,,,,,,,,,,,773.747,774.247,774.497,780.43,space,5.917,,780.431,76,4,781.43,781.43,784.146,space,2.703,,0,38,38,38,1,25,125,,,,,,,,
,,5f29eff59714081a3594a331,65af54e272f417c9b9fa8810,2024-01-23_18h58.43.960,bars,2023.2.3,Win32,60.0240096,657b66ea316d21385b68909f,,,,,,,,,,,784.146,785.147,,,785.647,785.896,,125,125,,,,,,,,,,,,,,,,bars/037.png,bars/mask007.png,,,,,,,,,,,,3,2,,,,,,,10,8,9,9,,,,,,,,,,,785.147,785.646,785.896,789.529,space,3.618,,789.53,25,20,790.529,790.53,794.512,space,3.965,,0,39,39,39,1,150,105,,,,,,,,
,,5f29eff59714081a3594a331,65af54e272f417c9b9fa8810,2024-01-23_18h58.43.960,bars,2023.2.3,Win32,60.0240096,657b66ea316d21385b68909f,,,,,,,,,,,794.513,795.513,,,796.013,796.263,,122,-58,,,,,,,,,,,,,,,,bars/005.png,bars/mask005.png,,,,,,,,,,,,2,2,,,,,,,8,6,7,6,,,,,,,,,,,795.513,796.013,796.263,802.229,space,5.951,,802.229,68,18,803.229,803.229,805.579,space,2.34,,0,40,40,40,1,10,140,,,,,,,,
,,5f29eff59714081a3594a331,65af54e272f417c9b9fa8810,2024-01-23_18h58.43.960,bars,2023.2.3,Win32,60.0240096,657b66ea316d21385b68909f,,,,,,,,,,,805.58,806.578,,,807.079,807.328,,63,63,,,,,,,,,,,,,,,,bars/034.png,bars/mask001.png,,,,,,,,,,,,4,2,,,,,,,6,4,6,4,,,,,,,,,,,806.578,807.079,807.328,809.896,space,2.551,,809.896,62,2,810.895,810.895,813.811,space,2.903,,0,41,41,41,1,125,65,,,,,,,,
,,5f29eff59714081a3594a331,65af54e272f417c9b9fa8810,2024-01-23_18h58.43.960,bars,2023.2.3,Win32,60.0240096,657b66ea316d21385b68909f,,,,,,,,,,,813.812,814.811,,,815.311,815.562,,115,115,,,,,,,,,,,,,,,,bars/011.png,bars/mask006.png,,,,,,,,,,,,0,2,,,,,,,4,2,3,3,,,,,,,,,,,814.811,815.311,815.562,820.528,space,4.95,,820.528,45,30,821.528,821.528,823.795,space,2.25,,0,42,42,42,1,160,85,,,,,,,,
,,5f29eff59714081a3594a331,65af54e272f417c9b9fa8810,2024-01-23_18h58.43.960,bars,2023.2.3,Win32,60.0240096,657b66ea316d21385b68909f,,,,,,,,,,,823.797,824.794,,,825.294,825.544,,93,93,,,,,,,,,,,,,,,,bars/041.png,bars/mask007.png,,,,,,,,,,,,0,2,,,,,,,6,0,6,0,,,,,,,,,,,824.794,825.294,825.544,829.344,space,3.782,,829.344,73,8,830.344,830.344,833.91,space,3.55,,0,43,43,43,1,20,85,,,,,,,,
,,5f29eff59714081a3594a331,65af54e272f417c9b9fa8810,2024-01-23_18h58.43.960,bars,2023.2.3,Win32,60.0240096,657b66ea316d21385b68909f,,,,,,,,,,,833.911,834.911,,,835.41,835.66,,127,127,,,,,,,,,,,,,,,,bars/005.png,bars/mask009.png,,,,,,,,,,,,1,2,,,,,,,4,2,2,2,,,,,,,,,,,834.911,835.41,835.66,841.16,space,5.491,,841.16,63,13,842.16,842.16,843.676,space,1.5,,0,44,44,44,1,10,140,,,,,,,,
,,5f29eff59714081a3594a331,65af54e272f417c9b9fa8810,2024-01-23_18h58.43.960,bars,2023.2.3,Win32,60.0240096,657b66ea316d21385b68909f,,,,,,,,,,,843.677,844.676,,,845.177,845.427,,136,136,,,,,,,,,,,,,,,,bars/020.png,bars/mask005.png,,,,,,,,,,,,0,1,,,,,,,2,0,1,1,,,,,,,,,,,844.676,845.177,845.427,850.226,space,4.786,,850.226,21,34,851.226,851.226,853.809,space,2.565,,0,45,45,45,1,115,170,,,,,,,,
,,5f29eff59714081a3594a331,65af54e272f417c9b9fa8810,2024-01-23_18h58.43.960,bars,2023.2.3,Win32,60.0240096,657b66ea316d21385b68909f,,,,,,,,,,,853.809,854.81,,,855.309,855.559,,152,-28,,,,,,,,,,,,,,,,bars/014.png,bars/mask008.png,,,,,,,,,,,,0,2,,,,,,,0,2,0,2,,,,,,,,,,,854.81,855.309,855.559,859.092,space,3.516,,859.092,72,28,860.093,860.093,862.176,space,2.057,,0,46,46,46,1,80,0,,,,,,,,
,,5f29eff59714081a3594a331,65af54e272f417c9b9fa8810,2024-01-23_18h58.43.960,bars,2023.2.3,Win32,60.0240096,657b66ea316d21385b68909f,,,,,,,,,,,862.177,863.176,,,863.676,863.925,,57,57,,,,,,,,,,,,,,,,bars/046.png,bars/mask005.png,,,,,,,,,,,,0,2,,,,,,,2,4,3,4,,,,,,,,,,,863.176,863.676,863.925,868.275,space,4.337,,868.275,82,28,869.275,869.275,873.175,space,3.883,,0,47,47,47,1,155,85,,,,,,,,
,,5f29eff59714081a3594a331,65af54e272f417c9b9fa8810,2024-01-23_18h58.43.960,bars,2023.2.3,Win32,60.0240096,657b66ea316d21385b68909f,,,,,,,,,,,873.176,874.175,,,874.675,874.925,,144,144,,,,,,,,,,,,,,,,bars/014.png,bars/mask007.png,,,,,,,,,,,,0,2,,,,,,,4,2,4,4,,,,,,,,,,,874.175,874.675,874.925,878.758,space,3.822,,878.758,64,36,879.758,879.758,880.808,space,1.032,,0,48,48,48,1,80,0,,,,,,,,
,,5f29eff59714081a3594a331,65af54e272f417c9b9fa8810,2024-01-23_18h58.43.960,bars,2023.2.3,Win32,60.0240096,657b66ea316d21385b68909f,,,,,,,,,,,880.808,881.808,,,882.308,882.558,,48,48,,,,,,,,,,,,,,,,bars/008.png,bars/mask009.png,,,,,,,,,,,,0,2,,,,,,,6,4,7,3,,,,,,,,,,,881.808,882.308,882.558,884.525,space,1.95,,884.525,62,48,885.525,885.525,886.592,space,1.049,,0,49,49,49,1,110,0,,,,,,,,
,,5f29eff59714081a3594a331,65af54e272f417c9b9fa8810,2024-01-23_18h58.43.960,bars,2023.2.3,Win32,60.0240096,657b66ea316d21385b68909f,,,,,,,,,,,,,,,,,,,,,,,,,,,,,,,,,,,,,,,,,,,,,,,,,,,,,,,,,,,,,,,,,,,,,,,,,,,,,,,,,,,,,,,,,,,,,886.592,946.588,0,0,0,4,1,sequence_tables/blk025.csv
,,5f29eff59714081a3594a331,65af54e272f417c9b9fa8810,2024-01-23_18h58.43.960,bars,2023.2.3,Win32,60.0240096,657b66ea316d21385b68909f,,,,,,,,,,,979.992,980.986,,,981.486,981.736,,45,45,,,,,,,,,,,,,,,,bars/047.png,bars/mask002.png,,,,,,,,,,,,0,2,,,,,,,5,1,6,1,,,,,,946.591,979.987,space,33.386,,980.986,981.486,981.737,985.036,space,3.284,,985.036,30,25,986.036,986.037,986.039,,,,0,0,0,0,1,15,70,,,,,,,,
,,5f29eff59714081a3594a331,65af54e272f417c9b9fa8810,2024-01-23_18h58.43.960,bars,2023.2.3,Win32,60.0240096,657b66ea316d21385b68909f,,,,,,,,,,,986.039,987.036,,,987.536,987.786,,113,113,,,,,,,,,,,,,,,,bars/025.png,bars/mask002.png,,,,,,,,,,,,2,1,,,,,,,3,0,3,0,,,,,,,,,,,987.036,987.536,987.786,989.019,space,1.217,,989.02,8,73,990.019,990.019,990.024,,,,0,1,1,1,1,105,40,,,,,,,,
,,5f29eff59714081a3594a331,65af54e272f417c9b9fa8810,2024-01-23_18h58.43.960,bars,2023.2.3,Win32,60.0240096,657b66ea316d21385b68909f,,,,,,,,,,,990.024,991.019,,,991.519,991.77,,120,120,,,,,,,,,,,,,,,,bars/012.png,bars/mask007.png,,,,,,,,,,,,0,1,,,,,,,5,0,4,1,,,,,,,,,,,991.02,991.519,991.77,996.502,space,4.722,,996.502,30,75,997.502,997.502,997.504,,,,0,2,2,2,1,90,15,,,,,,,,
,,5f29eff59714081a3594a331,65af54e272f417c9b9fa8810,2024-01-23_18h58.43.960,bars,2023.2.3,Win32,60.0240096,657b66ea316d21385b68909f,,,,,,,,,,,997.504,998.502,,,999.002,999.252,,110,110,,,,,,,,,,,,,,,,bars/045.png,bars/mask005.png,,,,,,,,,,,,2,1,,,,,,,3,0,3,2,,,,,,,,,,,998.502,999.002,999.252,1001.468,space,2.201,,1001.468,10,80,1002.469,1002.469,1002.47,,,,0,3,3,3,1,100,10,,,,,,,,
,,5f29eff59714081a3594a331,65af54e272f417c9b9fa8810,2024-01-23_18h58.43.960,bars,2023.2.3,Win32,60.0240096,657b66ea316d21385b68909f,,,,,,,,,,,1002.47,1003.468,,,1003.969,1004.219,,62,62,,,,,,,,,,,,,,,,bars/034.png,bars/mask003.png,,,,,,,,,,,,1,2,,,,,,,1,0,2,1,,,,,,,,,,,1003.468,1003.969,1004.219,1006.635,space,2.4,,1006.636,63,3,1007.643,1007.643,1007.643,,,,0,4,4,4,1,125,65,,,,,,,,
,,5f29eff59714081a3594a331,65af54e272f417c9b9fa8810,2024-01-23_18h58.43.960,bars,2023.2.3,Win32,60.0240096,657b66ea316d21385b68909f,,,,,,,,,,,1007.643,1008.635,,,1009.135,1009.385,,149,149,,,,,,,,,,,,,,,,bars/000.png,bars/mask005.png,,,,,,,,,,,,2,2,,,,,,,0,2,0,2,,,,,,,,,,,1008.635,1009.135,1009.385,1012.352,space,2.953,,1012.352,71,4,1013.351,1013.351,1013.353,,,,0,5,5,5,1,40,145,,,,,,,,
,,5f29eff59714081a3594a331,65af54e272f417c9b9fa8810,2024-01-23_18h58.43.960,bars,2023.2.3,Win32,60.0240096,657b66ea316d21385b68909f,,,,,,,,,,,1013.353,1014.351,,,1014.852,1015.101,,166,166,,,,,,,,,,,,,,,,bars/024.png,bars/mask002.png,,,,,,,,,,,,0,2,,,,,,,0,0,2,0,,,,,,,,,,,1014.351,1014.852,1015.101,1016.617,space,1.505,,1016.617,46,4,1017.618,1017.618,1017.619,,,,0,6,6,6,1,120,170,,,,,,,,
,,5f29eff59714081a3594a331,65af54e272f417c9b9fa8810,2024-01-23_18h58.43.960,bars,2023.2.3,Win32,60.0240096,657b66ea316d21385b68909f,,,,,,,,,,,1017.619,1018.618,,,1019.118,1019.368,,134,134,,,,,,,,,,,,,,,,bars/049.png,bars/mask002.png,,,,,,,,,,,,1,2,,,,,,,0,2,0,3,,,,,,,,,,,1018.618,1019.118,1019.368,1021.951,space,2.566,,1021.951,26,19,1022.953,1022.953,1022.958,,,,0,7,7,7,1,160,115,,,,,,,,
,,5f29eff59714081a3594a331,65af54e272f417c9b9fa8810,2024-01-23_18h58.43.960,bars,2023.2.3,Win32,60.0240096,657b66ea316d21385b68909f,,,,,,,,,,,1022.958,1023.951,,,1024.451,1024.701,,134,134,,,,,,,,,,,,,,,,bars/017.png,bars/mask003.png,,,,,,,,,,,,1,1,,,,,,,0,0,1,0,,,,,,,,,,,1023.951,1024.451,1024.701,1027.552,space,2.834,,1027.552,11,89,1028.551,1028.551,1028.556,,,,0,8,8,8,1,145,45,,,,,,,,
,,5f29eff59714081a3594a331,65af54e272f417c9b9fa8810,2024-01-23_18h58.43.960,bars,2023.2.3,Win32,60.0240096,657b66ea316d21385b68909f,,,,,,,,,,,1028.557,1029.551,,,1030.051,1030.301,,120,120,,,,,,,,,,,,,,,,bars/037.png,bars/mask005.png,,,,,,,,,,,,1,2,,,,,,,2,0,4,1,,,,,,,,,,,1029.551,1030.05,1030.301,1033.017,space,2.703,,1033.017,30,15,1034.017,1034.017,1034.021,,,,0,9,9,9,1,150,105,,,,,,,,
,,5f29eff59714081a3594a331,65af54e272f417c9b9fa8810,2024-01-23_18h58.43.960,bars,2023.2.3,Win32,60.0240096,657b66ea316d21385b68909f,,,,,,,,,,,1034.022,1035.017,,,1035.517,1035.767,,52,52,,,,,,,,,,,,,,,,bars/007.png,bars/mask002.png,,,,,,,,,,,,0,2,,,,,,,4,0,3,0,,,,,,,,,,,1035.017,1035.517,1035.767,1038.517,space,2.732,,1038.517,57,3,1039.517,1039.517,1039.518,,,,0,10,10,10,1,175,55,,,,,,,,
,,5f29eff59714081a3594a331,65af54e272f417c9b9fa8810,2024-01-23_18h58.43.960,bars,2023.2.3,Win32,60.0240096,657b66ea316d21385b68909f,,,,,,,,,,,1039.518,1040.517,,,1041.017,1041.266,,58,58,,,,,,,,,,,,,,,,bars/044.png,bars/mask005.png,,,,,,,,,,,,3,1,,,,,,,6,2,6,2,,,,,,,,,,,1040.517,1041.017,1041.266,1042.033,space,0.749,,1042.033,17,83,1043.033,1043.033,1043.036,,,,0,11,11,11,1,75,155,,,,,,,,
,,5f29eff59714081a3594a331,65af54e272f417c9b9fa8810,2024-01-23_18h58.43.960,bars,2023.2.3,Win32,60.0240096,657b66ea316d21385b68909f,,,,,,,,,,,1043.036,1044.033,,,1044.533,1044.783,,54,54,,,,,,,,,,,,,,,,bars/014.png,bars/mask004.png,,,,,,,,,,,,1,1,,,,,,,8,0,7,0,,,,,,,,,,,1044.033,1044.533,1044.783,1048.816,space,4.018,,1048.816,26,54,1049.816,1049.816,1049.818,,,,0,12,12,12,1,80,0,,,,,,,,
,,5f29eff59714081a3594a331,65af54e272f417c9b9fa8810,2024-01-23_18h58.43.960,bars,2023.2.3,Win32,60.0240096,657b66ea316d21385b68909f,,,,,,,,,,,1049.819,1050.816,,,1051.317,1051.566,,91,91,,,,,,,,,,,,,,,,bars/027.png,bars/mask001.png,,,,,,,,,,,,4,1,,,,,,,10,0,10,2,,,,,,,,,,,1050.816,1051.317,1051.566,1055.282,space,3.699,,1055.283,19,41,1056.283,1056.283,1056.287,,,,0,13,13,13,1,110,50,,,,,,,,
,,5f29eff59714081a3594a331,65af54e272f417c9b9fa8810,2024-01-23_18h58.43.960,bars,2023.2.3,Win32,60.0240096,657b66ea316d21385b68909f,,,,,,,,,,,1056.287,1057.283,,,1057.783,1058.033,,137,137,,,,,,,,,,,,,,,,bars/038.png,bars/mask002.png,,,,,,,,,,,,1,1,,,,,,,8,2,8,3,,,,,,,,,,,1057.283,1057.782,1058.033,1061.765,space,3.718,,1061.765,28,67,1062.766,1062.766,1062.768,,,,0,14,14,14,1,165,70,,,,,,,,
,,5f29eff59714081a3594a331,65af54e272f417c9b9fa8810,2024-01-23_18h58.43.960,bars,2023.2.3,Win32,60.0240096,657b66ea316d21385b68909f,,,,,,,,,,,1062.769,1063.765,,,1064.266,1064.515,,137,137,,,,,,,,,,,,,,,,bars/022.png,bars/mask002.png,,,,,,,,,,,,0,1,,,,,,,10,0,10,0,,,,,,,,,,,1063.765,1064.265,1064.515,1065.999,space,1.467,,1065.999,42,63,1066.999,1066.999,1067,,,,0,15,15,15,1,95,20,,,,,,,,
,,5f29eff59714081a3594a331,65af54e272f417c9b9fa8810,2024-01-23_18h58.43.960,bars,2023.2.3,Win32,60.0240096,657b66ea316d21385b68909f,,,,,,,,,,,1067.001,1067.998,,,1068.498,1068.749,,76,76,,,,,,,,,,,,,,,,bars/034.png,bars/mask000.png,,,,,,,,,,,,1,2,,,,,,,8,0,8,1,,,,,,,,,,,1067.998,1068.498,1068.749,1071.348,space,2.586,,1071.348,49,11,1072.349,1072.349,1072.354,,,,0,16,16,16,1,125,65,,,,,,,,
,,5f29eff59714081a3594a331,65af54e272f417c9b9fa8810,2024-01-23_18h58.43.960,bars,2023.2.3,Win32,60.0240096,657b66ea316d21385b68909f,,,,,,,,,,,1072.355,1073.349,,,1073.848,1074.098,,146,146,,,,,,,,,,,,,,,,bars/040.png,bars/mask003.png,,,,,,,,,,,,5,1,,,,,,,6,0,6,1,,,,,,,,,,,1073.349,1073.848,1074.098,1076.764,space,2.65,,1076.765,6,39,1077.765,1077.765,1077.769,,,,0,17,17,17,1,140,5,,,,,,,,
,,5f29eff59714081a3594a331,65af54e272f417c9b9fa8810,2024-01-23_18h58.43.960,bars,2023.2.3,Win32,60.0240096,657b66ea316d21385b68909f,,,,,,,,,,,1077.769,1078.764,,,1079.265,1079.514,,77,77,,,,,,,,,,,,,,,,bars/024.png,bars/mask006.png,,,,,,,,,,,,0,1,,,,,,,8,2,8,2,,,,,,,,,,,1078.765,1079.265,1079.514,1083.581,space,4.05,,1083.581,43,87,1084.581,1084.581,1084.582,,,,0,18,18,18,1,120,170,,,,,,,,
,,5f29eff59714081a3594a331,65af54e272f417c9b9fa8810,2024-01-23_18h58.43.960,bars,2023.2.3,Win32,60.0240096,657b66ea316d21385b68909f,,,,,,,,,,,1084.583,1085.58,,,1086.081,1086.331,,143,143,,,,,,,,,,,,,,,,bars/033.png,bars/mask002.png,,,,,,,,,,,,3,2,,,,,,,6,4,8,5,,,,,,,,,,,1085.581,1086.081,1086.331,1089.115,space,2.769,,1089.115,62,12,1090.114,1090.114,1090.12,,,,0,19,19,19,1,25,155,,,,,,,,
,,5f29eff59714081a3594a331,65af54e272f417c9b9fa8810,2024-01-23_18h58.43.960,bars,2023.2.3,Win32,60.0240096,657b66ea316d21385b68909f,,,,,,,,,,,1090.121,1091.114,,,1091.614,1091.864,,28,28,,,,,,,,,,,,,,,,bars/022.png,bars/mask003.png,,,,,,,,,,,,0,2,,,,,,,8,2,8,0,,,,,,,,,,,1091.114,1091.614,1091.864,1095.398,space,3.517,,1095.398,67,8,1096.396,1096.396,1096.398,,,,0,20,20,20,1,95,20,,,,,,,,
,,5f29eff59714081a3594a331,65af54e272f417c9b9fa8810,2024-01-23_18h58.43.960,bars,2023.2.3,Win32,60.0240096,657b66ea316d21385b68909f,,,,,,,,,,,1096.398,1097.397,,,1097.897,1098.147,,46,46,,,,,,,,,,,,,,,,bars/010.png,bars/mask006.png,,,,,,,,,,,,1,2,,,,,,,10,4,10,2,,,,,,,,,,,1097.397,1097.897,1098.147,1099.013,space,0.853,,1099.013,61,9,1100.014,1100.014,1100.015,,,,0,21,21,21,1,165,55,,,,,,,,
,,5f29eff59714081a3594a331,65af54e272f417c9b9fa8810,2024-01-23_18h58.43.960,bars,2023.2.3,Win32,60.0240096,657b66ea316d21385b68909f,,,,,,,,,,,1100.015,1101.014,,,1101.514,1101.764,,139,139,,,,,,,,,,,,,,,,bars/010.png,bars/mask007.png,,,,,,,,,,,,1,1,,,,,,,10,2,10,2,,,,,,,,,,,1101.014,1101.514,1101.764,1104.247,space,2.472,,1104.247,26,84,1105.246,1105.247,1105.252,,,,0,22,22,22,1,165,55,,,,,,,,
,,5f29eff59714081a3594a331,65af54e272f417c9b9fa8810,2024-01-23_18h58.43.960,bars,2023.2.3,Win32,60.0240096,657b66ea316d21385b68909f,,,,,,,,,,,1105.252,1106.247,,,1106.746,1106.997,,45,45,,,,,,,,,,,,,,,,bars/010.png,bars/mask002.png,,,,,,,,,,,,3,2,,,,,,,10,4,8,4,,,,,,,,,,,1106.247,1106.746,1106.997,1109.147,space,2.134,,1109.147,60,10,1110.146,1110.146,1110.149,,,,0,23,23,23,1,165,55,,,,,,,,
,,5f29eff59714081a3594a331,65af54e272f417c9b9fa8810,2024-01-23_18h58.43.960,bars,2023.2.3,Win32,60.0240096,657b66ea316d21385b68909f,,,,,,,,,,,1110.149,1111.146,,,1111.647,1111.896,,141,141,,,,,,,,,,,,,,,,bars/049.png,bars/mask007.png,,,,,,,,,,,,3,1,,,,,,,8,6,7,6,,,,,,,,,,,1111.146,1111.647,1111.897,1114.313,space,2.399,,1114.313,19,26,1115.312,1115.312,1115.315,,,,0,24,24,24,1,160,115,,,,,,,,
,,5f29eff59714081a3594a331,65af54e272f417c9b9fa8810,2024-01-23_18h58.43.960,bars,2023.2.3,Win32,60.0240096,657b66ea316d21385b68909f,,,,,,,,,,,1115.316,1116.312,,,1116.812,1117.063,,133,133,,,,,,,,,,,,,,,,bars/036.png,bars/mask008.png,,,,,,,,,,,,2,1,,,,,,,6,8,4,8,,,,,,,,,,,1116.313,1116.812,1117.063,1119.396,space,2.317,,1119.396,12,67,1120.396,1120.397,1120.399,,,,0,25,25,25,1,145,20,,,,,,,,
,,5f29eff59714081a3594a331,65af54e272f417c9b9fa8810,2024-01-23_18h58.43.960,bars,2023.2.3,Win32,60.0240096,657b66ea316d21385b68909f,,,,,,,,,,,1120.399,1121.396,,,1121.896,1122.146,,60,240,,,,,,,,,,,,,,,,bars/014.png,bars/mask008.png,,,,,,,,,,,,3,1,,,,,,,8,10,8,10,,,,,,,,,,,1121.396,1121.896,1122.146,1126.263,space,4.099,,1126.263,20,60,1127.263,1127.263,1127.264,,,,0,26,26,26,1,80,0,,,,,,,,
,,5f29eff59714081a3594a331,65af54e272f417c9b9fa8810,2024-01-23_18h58.43.960,bars,2023.2.3,Win32,60.0240096,657b66ea316d21385b68909f,,,,,,,,,,,1127.264,1128.262,,,1128.762,1129.012,,127,127,,,,,,,,,,,,,,,,bars/015.png,bars/mask000.png,,,,,,,,,,,,4,1,,,,,,,10,10,10,9,,,,,,,,,,,1128.262,1128.762,1129.012,1132.895,space,3.87,,1132.895,17,33,1133.895,1133.895,1133.897,,,,0,27,27,27,1,110,160,,,,,,,,
,,5f29eff59714081a3594a331,65af54e272f417c9b9fa8810,2024-01-23_18h58.43.960,bars,2023.2.3,Win32,60.0240096,657b66ea316d21385b68909f,,,,,,,,,,,1133.898,1134.895,,,1135.395,1135.645,,71,71,,,,,,,,,,,,,,,,bars/019.png,bars/mask009.png,,,,,,,,,,,,1,1,,,,,,,10,10,10,9,,,,,,,,,,,1134.895,1135.395,1135.645,1136.512,space,0.851,,1136.512,26,34,1137.511,1137.511,1137.513,,,,0,28,28,28,1,45,105,,,,,,,,
,,5f29eff59714081a3594a331,65af54e272f417c9b9fa8810,2024-01-23_18h58.43.960,bars,2023.2.3,Win32,60.0240096,657b66ea316d21385b68909f,,,,,,,,,,,1137.514,1138.511,,,1139.011,1139.262,,75,75,,,,,,,,,,,,,,,,bars/039.png,bars/mask008.png,,,,,,,,,,,,0,2,,,,,,,10,10,10,8,,,,,,,,,,,1138.511,1139.011,1139.262,1143.128,space,3.856,,1143.128,80,30,1144.128,1144.128,1144.133,,,,0,29,29,29,1,175,105,,,,,,,,
,,5f29eff59714081a3594a331,65af54e272f417c9b9fa8810,2024-01-23_18h58.43.960,bars,2023.2.3,Win32,60.0240096,657b66ea316d21385b68909f,,,,,,,,,,,1144.134,1145.128,,,1145.629,1145.878,,114,114,,,,,,,,,,,,,,,,bars/019.png,bars/mask000.png,,,,,,,,,,,,6,2,,,,,,,8,8,9,8,,,,,,,,,,,1145.128,1145.628,1145.878,1149.961,space,4.072,,1149.961,69,9,1150.961,1150.961,1150.964,,,,0,30,30,30,1,45,105,,,,,,,,
,,5f29eff59714081a3594a331,65af54e272f417c9b9fa8810,2024-01-23_18h58.43.960,bars,2023.2.3,Win32,60.0240096,657b66ea316d21385b68909f,,,,,,,,,,,1150.964,1151.961,,,1152.461,1152.711,,159,159,,,,,,,,,,,,,,,,bars/035.png,bars/mask006.png,,,,,,,,,,,,3,1,,,,,,,10,6,7,5,,,,,,,,,,,1151.961,1152.461,1152.711,1154.511,space,1.783,,1154.512,16,81,1155.51,1155.511,1155.513,,,,0,31,31,31,1,175,60,,,,,,,,
,,5f29eff59714081a3594a331,65af54e272f417c9b9fa8810,2024-01-23_18h58.43.960,bars,2023.2.3,Win32,60.0240096,657b66ea316d21385b68909f,,,,,,,,,,,1155.514,1156.511,,,1157.011,1157.261,,146,146,,,,,,,,,,,,,,,,bars/016.png,bars/mask009.png,,,,,,,,,,,,2,2,,,,,,,10,4,10,6,,,,,,,,,,,1156.511,1157.01,1157.261,1159.594,space,2.316,,1159.594,74,19,1160.594,1160.594,1160.598,,,,0,32,32,32,1,40,165,,,,,,,,
,,5f29eff59714081a3594a331,65af54e272f417c9b9fa8810,2024-01-23_18h58.43.960,bars,2023.2.3,Win32,60.0240096,657b66ea316d21385b68909f,,,,,,,,,,,1160.598,1161.594,,,1162.095,1162.344,,129,129,,,,,,,,,,,,,,,,bars/004.png,bars/mask000.png,,,,,,,,,,,,7,2,,,,,,,8,6,8,8,,,,,,,,,,,1161.594,1162.095,1162.344,1164.96,space,2.602,,1164.96,76,4,1165.961,1165.961,1165.963,,,,0,33,33,33,1,25,125,,,,,,,,
,,5f29eff59714081a3594a331,65af54e272f417c9b9fa8810,2024-01-23_18h58.43.960,bars,2023.2.3,Win32,60.0240096,657b66ea316d21385b68909f,,,,,,,,,,,1165.963,1166.961,,,1167.461,1167.71,,48,48,,,,,,,,,,,,,,,,bars/010.png,bars/mask008.png,,,,,,,,,,,,2,2,,,,,,,10,4,9,3,,,,,,,,,,,1166.961,1167.46,1167.71,1169.793,space,2.067,,1169.793,63,7,1170.793,1170.793,1170.794,,,,0,34,34,34,1,165,55,,,,,,,,
,,5f29eff59714081a3594a331,65af54e272f417c9b9fa8810,2024-01-23_18h58.43.960,bars,2023.2.3,Win32,60.0240096,657b66ea316d21385b68909f,,,,,,,,,,,1170.794,1171.793,,,1172.293,1172.543,,131,-49,,,,,,,,,,,,,,,,bars/005.png,bars/mask001.png,,,,,,,,,,,,2,2,,,,,,,10,2,10,3,,,,,,,,,,,1171.793,1172.293,1172.543,1175.96,space,3.401,,1175.96,59,9,1176.959,1176.959,1176.96,,,,0,35,35,35,1,10,140,,,,,,,,
,,5f29eff59714081a3594a331,65af54e272f417c9b9fa8810,2024-01-23_18h58.43.960,bars,2023.2.3,Win32,60.0240096,657b66ea316d21385b68909f,,,,,,,,,,,1176.961,1177.96,,,1178.46,1178.71,,135,135,,,,,,,,,,,,,,,,bars/038.png,bars/mask004.png,,,,,,,,,,,,0,1,,,,,,,10,0,10,1,,,,,,,,,,,1177.96,1178.46,1178.71,1183.827,space,5.102,,1183.827,30,65,1184.826,1184.826,1184.83,,,,0,36,36,36,1,165,70,,,,,,,,
,,5f29eff59714081a3594a331,65af54e272f417c9b9fa8810,2024-01-23_18h58.43.960,bars,2023.2.3,Win32,60.0240096,657b66ea316d21385b68909f,,,,,,,,,,,1184.832,1185.826,,,1186.326,1186.576,,123,123,,,,,,,,,,,,,,,,bars/012.png,bars/mask000.png,,,,,,,,,,,,0,1,,,,,,,10,2,10,3,,,,,,,,,,,1185.826,1186.326,1186.576,1189.043,space,2.451,,1189.043,33,72,1190.043,1190.043,1190.044,,,,0,37,37,37,1,90,15,,,,,,,,
,,5f29eff59714081a3594a331,65af54e272f417c9b9fa8810,2024-01-23_18h58.43.960,bars,2023.2.3,Win32,60.0240096,657b66ea316d21385b68909f,,,,,,,,,,,1190.045,1191.042,,,1191.542,1191.792,,122,122,,,,,,,,,,,,,,,,bars/017.png,bars/mask005.png,,,,,,,,,,,,2,1,,,,,,,8,4,9,5,,,,,,,,,,,1191.042,1191.542,1191.792,1192.826,space,1.018,,1192.826,23,77,1193.825,1193.825,1193.826,,,,0,38,38,38,1,145,45,,,,,,,,
,,5f29eff59714081a3594a331,65af54e272f417c9b9fa8810,2024-01-23_18h58.43.960,bars,2023.2.3,Win32,60.0240096,657b66ea316d21385b68909f,,,,,,,,,,,1193.826,1194.825,,,1195.325,1195.576,,59,59,,,,,,,,,,,,,,,,bars/026.png,bars/mask005.png,,,,,,,,,,,,2,1,,,,,,,10,6,10,6,,,,,,,,,,,1194.825,1195.325,1195.576,1197.025,space,1.439,,1197.025,24,26,1198.025,1198.025,1198.026,,,,0,39,39,39,1,35,85,,,,,,,,
,,5f29eff59714081a3594a331,65af54e272f417c9b9fa8810,2024-01-23_18h58.43.960,bars,2023.2.3,Win32,60.0240096,657b66ea316d21385b68909f,,,,,,,,,,,1198.027,1199.025,,,1199.525,1199.775,,140,140,,,,,,,,,,,,,,,,bars/045.png,bars/mask000.png,,,,,,,,,,,,0,1,,,,,,,10,8,10,8,,,,,,,,,,,1199.025,1199.525,1199.775,1201.342,space,1.551,,1201.342,40,50,1202.342,1202.342,1202.343,,,,0,40,40,40,1,100,10,,,,,,,,
,,5f29eff59714081a3594a331,65af54e272f417c9b9fa8810,2024-01-23_18h58.43.960,bars,2023.2.3,Win32,60.0240096,657b66ea316d21385b68909f,,,,,,,,,,,1202.344,1203.342,,,1203.841,1204.092,,134,134,,,,,,,,,,,,,,,,bars/014.png,bars/mask004.png,,,,,,,,,,,,0,2,,,,,,,8,10,8,10,,,,,,,,,,,1203.342,1203.841,1204.092,1206.392,space,2.283,,1206.392,54,46,1207.391,1207.391,1207.394,,,,0,41,41,41,1,80,0,,,,,,,,
,,5f29eff59714081a3594a331,65af54e272f417c9b9fa8810,2024-01-23_18h58.43.960,bars,2023.2.3,Win32,60.0240096,657b66ea316d21385b68909f,,,,,,,,,,,1207.394,1208.391,,,1208.891,1209.141,,39,39,,,,,,,,,,,,,,,,bars/004.png,bars/mask003.png,,,,,,,,,,,,5,1,,,,,,,10,8,9,7,,,,,,,,,,,1208.391,1208.891,1209.141,1211.442,space,2.29,,1211.442,14,86,1212.441,1212.441,1212.444,,,,0,42,42,42,1,25,125,,,,,,,,
,,5f29eff59714081a3594a331,65af54e272f417c9b9fa8810,2024-01-23_18h58.43.960,bars,2023.2.3,Win32,60.0240096,657b66ea316d21385b68909f,,,,,,,,,,,1212.444,1213.441,,,1213.941,1214.192,,66,246,,,,,,,,,,,,,,,,bars/024.png,bars/mask002.png,,,,,,,,,,,,0,1,,,,,,,8,10,9,10,,,,,,,,,,,1213.441,1213.941,1214.192,1218.858,space,4.655,,1218.858,54,76,1219.857,1219.857,1219.862,,,,0,43,43,43,1,120,170,,,,,,,,
,,5f29eff59714081a3594a331,65af54e272f417c9b9fa8810,2024-01-23_18h58.43.960,bars,2023.2.3,Win32,60.0240096,657b66ea316d21385b68909f,,,,,,,,,,,1219.862,1220.857,,,1221.357,1221.607,,127,127,,,,,,,,,,,,,,,,bars/034.png,bars/mask001.png,,,,,,,,,,,,6,1,,,,,,,6,8,6,5,,,,,,,,,,,1220.857,1221.357,1221.607,1224.841,space,3.217,,1224.841,2,62,1225.841,1225.841,1225.844,,,,0,44,44,44,1,125,65,,,,,,,,
,,5f29eff59714081a3594a331,65af54e272f417c9b9fa8810,2024-01-23_18h58.43.960,bars,2023.2.3,Win32,60.0240096,657b66ea316d21385b68909f,,,,,,,,,,,1225.845,1226.841,,,1227.341,1227.591,,116,116,,,,,,,,,,,,,,,,bars/041.png,bars/mask002.png,,,,,,,,,,,,0,2,,,,,,,4,10,3,10,,,,,,,,,,,1226.841,1227.341,1227.591,1229.424,space,1.821,,1229.424,84,31,1230.424,1230.424,1230.428,,,,0,45,45,45,1,20,85,,,,,,,,
,,5f29eff59714081a3594a331,65af54e272f417c9b9fa8810,2024-01-23_18h58.43.960,bars,2023.2.3,Win32,60.0240096,657b66ea316d21385b68909f,,,,,,,,,,,1230.429,1231.423,,,1231.924,1232.174,,125,125,,,,,,,,,,,,,,,,bars/002.png,bars/mask009.png,,,,,,,,,,,,5,1,,,,,,,6,10,6,10,,,,,,,,,,,1231.424,1231.924,1232.174,1235.057,space,2.868,,1235.057,5,40,1236.056,1236.056,1236.059,,,,0,46,46,46,1,130,85,,,,,,,,
,,5f29eff59714081a3594a331,65af54e272f417c9b9fa8810,2024-01-23_18h58.43.960,bars,2023.2.3,Win32,60.0240096,657b66ea316d21385b68909f,,,,,,,,,,,1236.059,1237.057,,,1237.557,1237.807,,134,134,,,,,,,,,,,,,,,,bars/015.png,bars/mask002.png,,,,,,,,,,,,1,1,,,,,,,8,8,7,8,,,,,,,,,,,1237.057,1237.557,1237.807,1239.69,space,1.869,,1239.69,24,26,1240.69,1240.69,1240.693,,,,0,47,47,47,1,110,160,,,,,,,,
,,5f29eff59714081a3594a331,65af54e272f417c9b9fa8810,2024-01-23_18h58.43.960,bars,2023.2.3,Win32,60.0240096,657b66ea316d21385b68909f,,,,,,,,,,,1240.693,1241.69,,,1242.19,1242.44,,94,94,,,,,,,,,,,,,,,,bars/022.png,bars/mask000.png,,,,,,,,,,,,8,1,,,,,,,6,6,8,6,,,,,,,,,,,1241.69,1242.19,1242.44,1245.373,space,2.918,,1245.373,1,74,1246.374,1246.374,1246.377,,,,0,48,48,48,1,95,20,,,,,,,,
,,5f29eff59714081a3594a331,65af54e272f417c9b9fa8810,2024-01-23_18h58.43.960,bars,2023.2.3,Win32,60.0240096,657b66ea316d21385b68909f,,,,,,,,,,,1246.378,1247.373,,,1247.873,1248.123,,84,84,,,,,,,,,,,,,,,,bars/001.png,bars/mask000.png,,,,,,,,,,,,8,2,,,,,,,4,8,5,8,,,,,,,,,,,1247.373,1247.873,1248.123,1251.99,space,3.85,,1251.99,46,1,1252.989,1252.989,1252.995,,,,0,49,49,49,1,130,85,,,,,,,,
,,5f29eff59714081a3594a331,65af54e272f417c9b9fa8810,2024-01-23_18h58.43.960,bars,2023.2.3,Win32,60.0240096,657b66ea316d21385b68909f,,,,,,,,,,,,,,,,,,,,,,,,,,,,,,,,,,,,,,,,,,,,,,,,,,,,,,,,,,,,,,,,,,,,,,,,,,,,,,,,,,,,,,,,,,,,,1252.995,1312.986,0,1,1,3,1,sequence_tables/blk035.csv
,,5f29eff59714081a3594a331,65af54e272f417c9b9fa8810,2024-01-23_18h58.43.960,bars,2023.2.3,Win32,60.0240096,657b66ea316d21385b68909f,,,,,,,,,,,1408.804,1409.798,,,1410.299,1410.548,,64,64,,,,,,,,,,,,,,,,bars/028.png,bars/mask008.png,,,,,,,,,,,,3,1,,,,,,,9,4,9,4,,,,,,1312.988,1408.798,space,95.797,,1409.798,1410.298,1410.549,1413.447,space,2.885,,1413.448,19,56,1414.448,1414.448,1414.452,,,,0,0,0,0,1,45,120,,,,,,,,
,,5f29eff59714081a3594a331,65af54e272f417c9b9fa8810,2024-01-23_18h58.43.960,bars,2023.2.3,Win32,60.0240096,657b66ea316d21385b68909f,,,,,,,,,,,1414.453,1415.447,,,1415.948,1416.197,,74,74,,,,,,,,,,,,,,,,bars/034.png,bars/mask000.png,,,,,,,,,,,,0,2,,,,,,,7,2,7,0,,,,,,,,,,,1415.447,1415.948,1416.197,1419.097,space,2.883,,1419.097,51,9,1420.098,1420.098,1420.102,,,,0,1,1,1,1,125,65,,,,,,,,
,,5f29eff59714081a3594a331,65af54e272f417c9b9fa8810,2024-01-23_18h58.43.960,bars,2023.2.3,Win32,60.0240096,657b66ea316d21385b68909f,,,,,,,,,,,1420.102,1421.097,,,1421.598,1421.847,,140,140,,,,,,,,,,,,,,,,bars/012.png,bars/mask005.png,,,,,,,,,,,,0,1,,,,,,,9,0,8,1,,,,,,,,,,,1421.098,1421.598,1421.848,1425.681,space,3.817,,1425.682,50,55,1426.68,1426.68,1426.684,,,,0,2,2,2,1,90,15,,,,,,,,
,,5f29eff59714081a3594a331,65af54e272f417c9b9fa8810,2024-01-23_18h58.43.960,bars,2023.2.3,Win32,60.0240096,657b66ea316d21385b68909f,,,,,,,,,,,1426.684,1427.681,,,1428.18,1428.43,,117,117,,,,,,,,,,,,,,,,bars/018.png,bars/mask003.png,,,,,,,,,,,,0,2,,,,,,,7,2,8,2,,,,,,,,,,,1427.681,1428.18,1428.43,1430.63,space,2.186,,1430.63,33,27,1431.631,1431.631,1431.634,,,,0,3,3,3,1,150,90,,,,,,,,
,,5f29eff59714081a3594a331,65af54e272f417c9b9fa8810,2024-01-23_18h58.43.960,bars,2023.2.3,Win32,60.0240096,657b66ea316d21385b68909f,,,,,,,,,,,1431.635,1432.63,,,1433.13,1433.38,,45,45,,,,,,,,,,,,,,,,bars/003.png,bars/mask005.png,,,,,,,,,,,,3,1,,,,,,,9,4,9,4,,,,,,,,,,,1432.63,1433.13,1433.38,1436.93,space,3.533,,1436.93,20,85,1437.931,1437.931,1437.937,,,,0,4,4,4,1,25,140,,,,,,,,
,,5f29eff59714081a3594a331,65af54e272f417c9b9fa8810,2024-01-23_18h58.43.960,bars,2023.2.3,Win32,60.0240096,657b66ea316d21385b68909f,,,,,,,,,,,1437.937,1438.93,,,1439.43,1439.68,,110,110,,,,,,,,,,,,,,,,bars/037.png,bars/mask007.png,,,,,,,,,,,,5,2,,,,,,,10,6,10,6,,,,,,,,,,,1438.93,1439.43,1439.68,1441.997,space,2.306,,1441.997,40,5,1442.996,1442.996,1443.001,,,,0,5,5,5,1,150,105,,,,,,,,
,,5f29eff59714081a3594a331,65af54e272f417c9b9fa8810,2024-01-23_18h58.43.960,bars,2023.2.3,Win32,60.0240096,657b66ea316d21385b68909f,,,,,,,,,,,1443.001,1443.996,,,1444.496,1444.746,,113,113,,,,,,,,,,,,,,,,bars/022.png,bars/mask005.png,,,,,,,,,,,,4,1,,,,,,,8,4,9,6,,,,,,,,,,,1443.996,1444.496,1444.746,1447.846,space,3.083,,1447.846,18,87,1448.846,1448.846,1448.851,,,,0,6,6,6,1,95,20,,,,,,,,
,,5f29eff59714081a3594a331,65af54e272f417c9b9fa8810,2024-01-23_18h58.43.960,bars,2023.2.3,Win32,60.0240096,657b66ea316d21385b68909f,,,,,,,,,,,1448.851,1449.846,,,1450.346,1450.595,,125,125,,,,,,,,,,,,,,,,bars/020.png,bars/mask002.png,,,,,,,,,,,,7,1,,,,,,,10,2,10,2,,,,,,,,,,,1449.846,1450.346,1450.596,1453.529,space,2.923,,1453.529,10,45,1454.529,1454.529,1454.53,,,,0,7,7,7,1,115,170,,,,,,,,
,,5f29eff59714081a3594a331,65af54e272f417c9b9fa8810,2024-01-23_18h58.43.960,bars,2023.2.3,Win32,60.0240096,657b66ea316d21385b68909f,,,,,,,,,,,1454.531,1455.529,,,1456.029,1456.279,,131,131,,,,,,,,,,,,,,,,bars/043.png,bars/mask006.png,,,,,,,,,,,,4,2,,,,,,,10,4,10,4,,,,,,,,,,,1455.529,1456.029,1456.28,1458.862,space,2.568,,1458.862,79,1,1459.862,1459.862,1459.866,,,,0,8,8,8,1,30,130,,,,,,,,
,,5f29eff59714081a3594a331,65af54e272f417c9b9fa8810,2024-01-23_18h58.43.960,bars,2023.2.3,Win32,60.0240096,657b66ea316d21385b68909f,,,,,,,,,,,1459.866,1460.862,,,1461.362,1461.612,,75,75,,,,,,,,,,,,,,,,bars/039.png,bars/mask001.png,,,,,,,,,,,,0,2,,,,,,,8,6,6,5,,,,,,,,,,,1460.862,1461.362,1461.612,1464.296,space,2.666,,1464.296,80,30,1465.294,1465.295,1465.296,,,,0,9,9,9,1,175,105,,,,,,,,
,,5f29eff59714081a3594a331,65af54e272f417c9b9fa8810,2024-01-23_18h58.43.960,bars,2023.2.3,Win32,60.0240096,657b66ea316d21385b68909f,,,,,,,,,,,1465.296,1466.295,,,1466.795,1467.045,,112,112,,,,,,,,,,,,,,,,bars/022.png,bars/mask004.png,,,,,,,,,,,,3,1,,,,,,,6,4,6,5,,,,,,,,,,,1466.295,1466.795,1467.046,1469.911,space,2.851,,1469.912,17,88,1470.911,1470.911,1470.918,,,,0,10,10,10,1,95,20,,,,,,,,
,,5f29eff59714081a3594a331,65af54e272f417c9b9fa8810,2024-01-23_18h58.43.960,bars,2023.2.3,Win32,60.0240096,657b66ea316d21385b68909f,,,,,,,,,,,1470.918,1471.912,,,1472.412,1472.661,,35,35,,,,,,,,,,,,,,,,bars/007.png,bars/mask006.png,,,,,,,,,,,,1,2,,,,,,,4,2,3,2,,,,,,,,,,,1471.912,1472.411,1472.661,1473.778,space,1.107,,1473.778,40,20,1474.778,1474.778,1474.781,,,,0,11,11,11,1,175,55,,,,,,,,
,,5f29eff59714081a3594a331,65af54e272f417c9b9fa8810,2024-01-23_18h58.43.960,bars,2023.2.3,Win32,60.0240096,657b66ea316d21385b68909f,,,,,,,,,,,1474.782,1475.778,,,1476.278,1476.528,,136,136,,,,,,,,,,,,,,,,bars/043.png,bars/mask005.png,,,,,,,,,,,,2,2,,,,,,,2,0,3,2,,,,,,,,,,,1475.778,1476.278,1476.529,1478.895,space,2.35,,1478.895,74,6,1479.894,1479.894,1479.896,,,,0,12,12,12,1,30,130,,,,,,,,
,,5f29eff59714081a3594a331,65af54e272f417c9b9fa8810,2024-01-23_18h58.43.960,bars,2023.2.3,Win32,60.0240096,657b66ea316d21385b68909f,,,,,,,,,,,1479.896,1480.894,,,1481.395,1481.644,,143,143,,,,,,,,,,,,,,,,bars/039.png,bars/mask007.png,,,,,,,,,,,,0,1,,,,,,,4,0,4,0,,,,,,,,,,,1480.894,1481.395,1481.644,1485.128,space,3.468,,1485.128,32,38,1486.127,1486.127,1486.131,,,,0,13,13,13,1,175,105,,,,,,,,
,,5f29eff59714081a3594a331,65af54e272f417c9b9fa8810,2024-01-23_18h58.43.960,bars,2023.2.3,Win32,60.0240096,657b66ea316d21385b68909f,,,,,,,,,,,1486.132,1487.127,,,1487.627,1487.877,,137,137,,,,,,,,,,,,,,,,bars/004.png,bars/mask009.png,,,,,,,,,,,,1,2,,,,,,,6,2,5,2,,,,,,,,,,,1487.127,1487.627,1487.877,1488.627,space,0.733,,1488.628,68,12,1489.627,1489.627,1489.63,,,,0,14,14,14,1,25,125,,,,,,,,
,,5f29eff59714081a3594a331,65af54e272f417c9b9fa8810,2024-01-23_18h58.43.960,bars,2023.2.3,Win32,60.0240096,657b66ea316d21385b68909f,,,,,,,,,,,1489.63,1490.627,,,1491.127,1491.377,,146,146,,,,,,,,,,,,,,,,bars/049.png,bars/mask004.png,,,,,,,,,,,,5,1,,,,,,,8,4,10,6,,,,,,,,,,,1490.627,1491.127,1491.377,1493.194,space,1.801,,1493.194,14,31,1494.193,1494.193,1494.196,,,,0,15,15,15,1,160,115,,,,,,,,
,,5f29eff59714081a3594a331,65af54e272f417c9b9fa8810,2024-01-23_18h58.43.960,bars,2023.2.3,Win32,60.0240096,657b66ea316d21385b68909f,,,,,,,,,,,1494.196,1495.193,,,1495.694,1495.943,,138,138,,,,,,,,,,,,,,,,bars/034.png,bars/mask002.png,,,,,,,,,,,,6,1,,,,,,,10,6,10,7,,,,,,,,,,,1495.193,1495.693,1495.944,1498.576,space,2.617,,1498.576,13,73,1499.577,1499.577,1499.578,,,,0,16,16,16,1,125,65,,,,,,,,
,,5f29eff59714081a3594a331,65af54e272f417c9b9fa8810,2024-01-23_18h58.43.960,bars,2023.2.3,Win32,60.0240096,657b66ea316d21385b68909f,,,,,,,,,,,1499.578,1500.578,,,1501.078,1501.326,,107,107,,,,,,,,,,,,,,,,bars/011.png,bars/mask000.png,,,,,,,,,,,,1,2,,,,,,,8,4,8,5,,,,,,,,,,,1500.578,1501.078,1501.326,1503.677,space,2.334,,1503.677,53,22,1504.677,1504.677,1504.681,,,,0,17,17,17,1,160,85,,,,,,,,
,,5f29eff59714081a3594a331,65af54e272f417c9b9fa8810,2024-01-23_18h58.43.960,bars,2023.2.3,Win32,60.0240096,657b66ea316d21385b68909f,,,,,,,,,,,1504.682,1505.676,,,1506.176,1506.426,,50,230,,,,,,,,,,,,,,,,bars/012.png,bars/mask004.png,,,,,,,,,,,,0,2,,,,,,,6,6,5,6,,,,,,,,,,,1505.677,1506.176,1506.426,1511.276,space,4.833,,1511.276,40,35,1512.277,1512.277,1512.279,,,,0,18,18,18,1,90,15,,,,,,,,
,,5f29eff59714081a3594a331,65af54e272f417c9b9fa8810,2024-01-23_18h58.43.960,bars,2023.2.3,Win32,60.0240096,657b66ea316d21385b68909f,,,,,,,,,,,1512.279,1513.276,,,1513.776,1514.026,,146,146,,,,,,,,,,,,,,,,bars/007.png,bars/mask005.png,,,,,,,,,,,,0,1,,,,,,,8,8,8,8,,,,,,,,,,,1513.276,1513.776,1514.026,1517.993,space,3.952,,1517.993,29,89,1518.992,1518.992,1518.997,,,,0,19,19,19,1,175,55,,,,,,,,
,,5f29eff59714081a3594a331,65af54e272f417c9b9fa8810,2024-01-23_18h58.43.960,bars,2023.2.3,Win32,60.0240096,657b66ea316d21385b68909f,,,,,,,,,,,1518.997,1519.992,,,1520.493,1520.742,,134,-46,,,,,,,,,,,,,,,,bars/037.png,bars/mask004.png,,,,,,,,,,,,5,1,,,,,,,10,6,10,5,,,,,,,,,,,1519.992,1520.493,1520.742,1523.259,space,2.502,,1523.259,16,29,1524.259,1524.259,1524.26,,,,0,20,20,20,1,150,105,,,,,,,,
,,5f29eff59714081a3594a331,65af54e272f417c9b9fa8810,2024-01-23_18h58.43.960,bars,2023.2.3,Win32,60.0240096,657b66ea316d21385b68909f,,,,,,,,,,,1524.26,1525.259,,,1525.759,1526.009,,94,94,,,,,,,,,,,,,,,,bars/030.png,bars/mask003.png,,,,,,,,,,,,0,2,,,,,,,8,8,8,8,,,,,,,,,,,1525.259,1525.759,1526.009,1528.091,space,2.067,,1528.091,46,29,1529.092,1529.092,1529.094,,,,0,21,21,21,1,140,65,,,,,,,,
,,5f29eff59714081a3594a331,65af54e272f417c9b9fa8810,2024-01-23_18h58.43.960,bars,2023.2.3,Win32,60.0240096,657b66ea316d21385b68909f,,,,,,,,,,,1529.094,1530.092,,,1530.592,1530.841,,132,-48,,,,,,,,,,,,,,,,bars/010.png,bars/mask000.png,,,,,,,,,,,,0,1,,,,,,,6,10,4,10,,,,,,,,,,,1530.092,1530.592,1530.841,1535.042,space,4.183,,1535.042,33,77,1536.041,1536.041,1536.047,,,,0,22,22,22,1,165,55,,,,,,,,
,,5f29eff59714081a3594a331,65af54e272f417c9b9fa8810,2024-01-23_18h58.43.960,bars,2023.2.3,Win32,60.0240096,657b66ea316d21385b68909f,,,,,,,,,,,1536.047,1537.042,,,1537.541,1537.792,,8,8,,,,,,,,,,,,,,,,bars/033.png,bars/mask008.png,,,,,,,,,,,,2,1,,,,,,,4,10,4,9,,,,,,,,,,,1537.042,1537.541,1537.792,1540.592,space,2.785,,1540.592,17,33,1541.591,1541.591,1541.592,,,,0,23,23,23,1,25,155,,,,,,,,
,,5f29eff59714081a3594a331,65af54e272f417c9b9fa8810,2024-01-23_18h58.43.960,bars,2023.2.3,Win32,60.0240096,657b66ea316d21385b68909f,,,,,,,,,,,1541.593,1542.591,,,1543.091,1543.341,,152,152,,,,,,,,,,,,,,,,bars/046.png,bars/mask002.png,,,,,,,,,,,,6,1,,,,,,,6,8,7,8,,,,,,,,,,,1542.591,1543.091,1543.341,1544.974,space,1.618,,1544.974,3,67,1545.974,1545.974,1545.977,,,,0,24,24,24,1,155,85,,,,,,,,
,,5f29eff59714081a3594a331,65af54e272f417c9b9fa8810,2024-01-23_18h58.43.960,bars,2023.2.3,Win32,60.0240096,657b66ea316d21385b68909f,,,,,,,,,,,1545.977,1546.974,,,1547.475,1547.725,,46,46,,,,,,,,,,,,,,,,bars/045.png,bars/mask000.png,,,,,,,,,,,,0,2,,,,,,,8,6,9,4,,,,,,,,,,,1546.974,1547.475,1547.725,1549.941,space,2.206,,1549.941,54,36,1550.941,1550.941,1550.944,,,,0,25,25,25,1,100,10,,,,,,,,
,,5f29eff59714081a3594a331,65af54e272f417c9b9fa8810,2024-01-23_18h58.43.960,bars,2023.2.3,Win32,60.0240096,657b66ea316d21385b68909f,,,,,,,,,,,1550.944,1551.941,,,1552.441,1552.691,,139,139,,,,,,,,,,,,,,,,bars/022.png,bars/mask008.png,,,,,,,,,,,,0,1,,,,,,,10,4,10,5,,,,,,,,,,,1551.941,1552.441,1552.691,1554.807,space,2.098,,1554.807,44,61,1555.807,1555.807,1555.809,,,,0,26,26,26,1,95,20,,,,,,,,
,,5f29eff59714081a3594a331,65af54e272f417c9b9fa8810,2024-01-23_18h58.43.960,bars,2023.2.3,Win32,60.0240096,657b66ea316d21385b68909f,,,,,,,,,,,1555.81,1556.807,,,1557.308,1557.557,,33,33,,,,,,,,,,,,,,,,bars/031.png,bars/mask006.png,,,,,,,,,,,,5,2,,,,,,,8,6,9,5,,,,,,,,,,,1556.807,1557.308,1557.557,1558.607,space,1.034,,1558.607,87,2,1559.607,1559.607,1559.61,,,,0,27,27,27,1,120,35,,,,,,,,
,,5f29eff59714081a3594a331,65af54e272f417c9b9fa8810,2024-01-23_18h58.43.960,bars,2023.2.3,Win32,60.0240096,657b66ea316d21385b68909f,,,,,,,,,,,1559.611,1560.607,,,1561.107,1561.357,,142,142,,,,,,,,,,,,,,,,bars/038.png,bars/mask009.png,,,,,,,,,,,,2,1,,,,,,,10,8,10,10,,,,,,,,,,,1560.607,1561.107,1561.357,1563.457,space,2.085,,1563.457,23,72,1564.457,1564.457,1564.462,,,,0,28,28,28,1,165,70,,,,,,,,
,,5f29eff59714081a3594a331,65af54e272f417c9b9fa8810,2024-01-23_18h58.43.960,bars,2023.2.3,Win32,60.0240096,657b66ea316d21385b68909f,,,,,,,,,,,1564.462,1565.457,,,1565.956,1566.206,,110,110,,,,,,,,,,,,,,,,bars/036.png,bars/mask003.png,,,,,,,,,,,,0,1,,,,,,,8,6,10,6,,,,,,,,,,,1565.457,1565.956,1566.206,1566.773,space,0.55,,1566.773,35,90,1567.773,1567.774,1567.775,,,,0,29,29,29,1,145,20,,,,,,,,
,,5f29eff59714081a3594a331,65af54e272f417c9b9fa8810,2024-01-23_18h58.43.960,bars,2023.2.3,Win32,60.0240096,657b66ea316d21385b68909f,,,,,,,,,,,1567.775,1568.773,,,1569.273,1569.523,,160,160,,,,,,,,,,,,,,,,bars/008.png,bars/mask001.png,,,,,,,,,,,,3,2,,,,,,,6,8,7,9,,,,,,,,,,,1568.773,1569.273,1569.523,1572.324,space,2.786,,1572.324,50,20,1573.323,1573.323,1573.33,,,,0,30,30,30,1,110,0,,,,,,,,
,,5f29eff59714081a3594a331,65af54e272f417c9b9fa8810,2024-01-23_18h58.43.960,bars,2023.2.3,Win32,60.0240096,657b66ea316d21385b68909f,,,,,,,,,,,1573.33,1574.323,,,1574.823,1575.073,,63,243,,,,,,,,,,,,,,,,bars/012.png,bars/mask001.png,,,,,,,,,,,,0,1,,,,,,,4,6,3,6,,,,,,,,,,,1574.323,1574.823,1575.073,1578.623,space,3.533,,1578.623,27,48,1579.623,1579.623,1579.628,,,,0,31,31,31,1,90,15,,,,,,,,
,,5f29eff59714081a3594a331,65af54e272f417c9b9fa8810,2024-01-23_18h58.43.960,bars,2023.2.3,Win32,60.0240096,657b66ea316d21385b68909f,,,,,,,,,,,1579.628,1580.623,,,1581.123,1581.372,,47,227,,,,,,,,,,,,,,,,bars/043.png,bars/mask001.png,,,,,,,,,,,,2,1,,,,,,,6,4,5,3,,,,,,,,,,,1580.623,1581.123,1581.372,1586.106,space,4.717,,1586.106,17,83,1587.106,1587.106,1587.108,,,,0,32,32,32,1,30,130,,,,,,,,
,,5f29eff59714081a3594a331,65af54e272f417c9b9fa8810,2024-01-23_18h58.43.960,bars,2023.2.3,Win32,60.0240096,657b66ea316d21385b68909f,,,,,,,,,,,1587.108,1588.106,,,1588.606,1588.856,,148,148,,,,,,,,,,,,,,,,bars/016.png,bars/mask003.png,,,,,,,,,,,,1,2,,,,,,,8,2,10,2,,,,,,,,,,,1588.106,1588.606,1588.856,1590.955,space,2.083,,1590.955,72,17,1591.955,1591.955,1591.957,,,,0,33,33,33,1,40,165,,,,,,,,
,,5f29eff59714081a3594a331,65af54e272f417c9b9fa8810,2024-01-23_18h58.43.960,bars,2023.2.3,Win32,60.0240096,657b66ea316d21385b68909f,,,,,,,,,,,1591.958,1592.956,,,1593.455,1593.706,,139,139,,,,,,,,,,,,,,,,bars/004.png,bars/mask004.png,,,,,,,,,,,,0,2,,,,,,,6,0,6,0,,,,,,,,,,,1592.956,1593.455,1593.706,1595.205,space,1.485,,1595.205,66,14,1596.205,1596.205,1596.208,,,,0,34,34,34,1,25,125,,,,,,,,
,,5f29eff59714081a3594a331,65af54e272f417c9b9fa8810,2024-01-23_18h58.43.960,bars,2023.2.3,Win32,60.0240096,657b66ea316d21385b68909f,,,,,,,,,,,1596.209,1597.205,,,1597.705,1597.955,,26,26,,,,,,,,,,,,,,,,bars/006.png,bars/mask000.png,,,,,,,,,,,,1,1,,,,,,,4,0,1,0,,,,,,,,,,,1597.205,1597.705,1597.955,1600.288,space,2.322,,1600.288,9,74,1601.288,1601.288,1601.293,,,,0,35,35,35,1,35,100,,,,,,,,
,,5f29eff59714081a3594a331,65af54e272f417c9b9fa8810,2024-01-23_18h58.43.960,bars,2023.2.3,Win32,60.0240096,657b66ea316d21385b68909f,,,,,,,,,,,1601.293,1602.288,,,1602.788,1603.038,,138,138,,,,,,,,,,,,,,,,bars/031.png,bars/mask001.png,,,,,,,,,,,,2,1,,,,,,,6,2,6,3,,,,,,,,,,,1602.288,1602.788,1603.039,1607.221,space,4.171,,1607.221,18,77,1608.222,1608.222,1608.223,,,,0,36,36,36,1,120,35,,,,,,,,
,,5f29eff59714081a3594a331,65af54e272f417c9b9fa8810,2024-01-23_18h58.43.960,bars,2023.2.3,Win32,60.0240096,657b66ea316d21385b68909f,,,,,,,,,,,1608.223,1609.221,,,1609.721,1609.971,,74,254,,,,,,,,,,,,,,,,bars/045.png,bars/mask001.png,,,,,,,,,,,,1,1,,,,,,,4,0,5,1,,,,,,,,,,,1609.221,1609.721,1609.971,1613.954,space,3.968,,1613.954,26,64,1614.954,1614.954,1614.956,,,,0,37,37,37,1,100,10,,,,,,,,
,,5f29eff59714081a3594a331,65af54e272f417c9b9fa8810,2024-01-23_18h58.43.960,bars,2023.2.3,Win32,60.0240096,657b66ea316d21385b68909f,,,,,,,,,,,1614.956,1615.955,,,1616.454,1616.704,,162,162,,,,,,,,,,,,,,,,bars/048.png,bars/mask001.png,,,,,,,,,,,,0,2,,,,,,,2,0,1,0,,,,,,,,,,,1615.955,1616.454,1616.704,1618.671,space,1.952,,1618.672,68,13,1619.671,1619.671,1619.674,,,,0,38,38,38,1,50,175,,,,,,,,
,,5f29eff59714081a3594a331,65af54e272f417c9b9fa8810,2024-01-23_18h58.43.960,bars,2023.2.3,Win32,60.0240096,657b66ea316d21385b68909f,,,,,,,,,,,1619.674,1620.671,,,1621.17,1621.42,,137,-43,,,,,,,,,,,,,,,,bars/017.png,bars/mask004.png,,,,,,,,,,,,0,1,,,,,,,0,2,0,2,,,,,,,,,,,1620.671,1621.17,1621.42,1623.921,space,2.482,,1623.921,8,88,1624.921,1624.921,1624.924,,,,0,39,39,39,1,145,45,,,,,,,,
,,5f29eff59714081a3594a331,65af54e272f417c9b9fa8810,2024-01-23_18h58.43.960,bars,2023.2.3,Win32,60.0240096,657b66ea316d21385b68909f,,,,,,,,,,,1624.925,1625.921,,,1626.422,1626.671,,130,130,,,,,,,,,,,,,,,,bars/045.png,bars/mask002.png,,,,,,,,,,,,0,1,,,,,,,0,0,1,2,,,,,,,,,,,1625.921,1626.421,1626.671,1630.721,space,4.034,,1630.721,30,60,1631.72,1631.72,1631.725,,,,0,40,40,40,1,100,10,,,,,,,,
,,5f29eff59714081a3594a331,65af54e272f417c9b9fa8810,2024-01-23_18h58.43.960,bars,2023.2.3,Win32,60.0240096,657b66ea316d21385b68909f,,,,,,,,,,,1631.725,1632.72,,,1633.22,1633.47,,173,173,,,,,,,,,,,,,,,,bars/023.png,bars/mask009.png,,,,,,,,,,,,0,1,,,,,,,0,0,0,0,,,,,,,,,,,1632.721,1633.22,1633.47,1634.587,space,1.107,,1634.587,27,58,1635.586,1635.587,1635.59,,,,0,41,41,41,1,20,115,,,,,,,,
,,5f29eff59714081a3594a331,65af54e272f417c9b9fa8810,2024-01-23_18h58.43.960,bars,2023.2.3,Win32,60.0240096,657b66ea316d21385b68909f,,,,,,,,,,,1635.591,1636.586,,,1637.087,1637.337,,138,138,,,,,,,,,,,,,,,,bars/014.png,bars/mask005.png,,,,,,,,,,,,0,2,,,,,,,2,0,1,1,,,,,,,,,,,1636.586,1637.087,1637.337,1638.237,space,0.891,,1638.237,58,42,1639.237,1639.237,1639.241,,,,0,42,42,42,1,80,0,,,,,,,,
,,5f29eff59714081a3594a331,65af54e272f417c9b9fa8810,2024-01-23_18h58.43.960,bars,2023.2.3,Win32,60.0240096,657b66ea316d21385b68909f,,,,,,,,,,,1639.242,1640.236,,,1640.737,1640.986,,146,146,,,,,,,,,,,,,,,,bars/014.png,bars/mask003.png,,,,,,,,,,,,0,2,,,,,,,0,0,0,0,,,,,,,,,,,1640.236,1640.737,1640.986,1642.736,space,1.733,,1642.736,66,34,1643.736,1643.736,1643.736,,,,0,43,43,43,1,80,0,,,,,,,,
,,5f29eff59714081a3594a331,65af54e272f417c9b9fa8810,2024-01-23_18h58.43.960,bars,2023.2.3,Win32,60.0240096,657b66ea316d21385b68909f,,,,,,,,,,,1643.737,1644.736,,,1645.236,1645.486,,37,37,,,,,,,,,,,,,,,,bars/023.png,bars/mask006.png,,,,,,,,,,,,1,1,,,,,,,2,0,2,1,,,,,,,,,,,1644.736,1645.236,1645.486,1649.219,space,3.717,,1649.219,17,78,1650.219,1650.219,1650.224,,,,0,44,44,44,1,20,115,,,,,,,,
,,5f29eff59714081a3594a331,65af54e272f417c9b9fa8810,2024-01-23_18h58.43.960,bars,2023.2.3,Win32,60.0240096,657b66ea316d21385b68909f,,,,,,,,,,,1650.224,1651.219,,,1651.719,1651.969,,39,219,,,,,,,,,,,,,,,,bars/007.png,bars/mask008.png,,,,,,,,,,,,1,2,,,,,,,4,2,4,2,,,,,,,,,,,1651.219,1651.719,1651.969,1656.202,space,4.217,,1656.202,44,16,1657.202,1657.202,1657.205,,,,0,45,45,45,1,175,55,,,,,,,,
,,5f29eff59714081a3594a331,65af54e272f417c9b9fa8810,2024-01-23_18h58.43.960,bars,2023.2.3,Win32,60.0240096,657b66ea316d21385b68909f,,,,,,,,,,,1657.206,1658.202,,,1658.703,1658.952,,136,136,,,,,,,,,,,,,,,,bars/021.png,bars/mask002.png,,,,,,,,,,,,1,1,,,,,,,2,4,2,4,,,,,,,,,,,1658.202,1658.703,1658.952,1661.386,space,2.422,,1661.386,19,66,1662.385,1662.385,1662.39,,,,0,46,46,46,1,155,70,,,,,,,,
,,5f29eff59714081a3594a331,65af54e272f417c9b9fa8810,2024-01-23_18h58.43.960,bars,2023.2.3,Win32,60.0240096,657b66ea316d21385b68909f,,,,,,,,,,,1662.39,1663.385,,,1663.885,1664.135,,48,48,,,,,,,,,,,,,,,,bars/044.png,bars/mask008.png,,,,,,,,,,,,0,1,,,,,,,4,2,4,2,,,,,,,,,,,1663.385,1663.885,1664.135,1666.568,space,2.42,,1666.568,27,73,1667.569,1667.569,1667.571,,,,0,47,47,47,1,75,155,,,,,,,,
,,5f29eff59714081a3594a331,65af54e272f417c9b9fa8810,2024-01-23_18h58.43.960,bars,2023.2.3,Win32,60.0240096,657b66ea316d21385b68909f,,,,,,,,,,,1667.571,1668.568,,,1669.068,1669.319,,133,133,,,,,,,,,,,,,,,,bars/023.png,bars/mask008.png,,,,,,,,,,,,0,2,,,,,,,6,0,5,0,,,,,,,,,,,1668.568,1669.068,1669.319,1671.851,space,2.517,,1671.851,67,18,1672.851,1672.851,1672.856,,,,0,48,48,48,1,20,115,,,,,,,,
,,5f29eff59714081a3594a331,65af54e272f417c9b9fa8810,2024-01-23_18h58.43.960,bars,2023.2.3,Win32,60.0240096,657b66ea316d21385b68909f,,,,,,,,,,,1672.856,1673.851,,,1674.351,1674.601,,154,154,,,,,,,,,,,,,,,,bars/046.png,bars/mask007.png,,,,,,,,,,,,6,1,,,,,,,4,0,6,0,,,,,,,,,,,1673.851,1674.351,1674.601,1677.918,space,3.302,,1677.918,1,69,1678.918,1678.918,1678.922,,,,0,49,49,49,1,155,85,,,,,,,,
,,5f29eff59714081a3594a331,65af54e272f417c9b9fa8810,2024-01-23_18h58.43.960,bars,2023.2.3,Win32,60.0240096,657b66ea316d21385b68909f,,,,,,,,,,,,,,,,,,,,,,,,,,,,,,,,,,,,,,,,,,,,,,,,,,,,,,,,,,,,,,,,,,,,,,,,,,,,,,,,,,,,,,,,,,,,,1678.922,1738.915,0,2,2,2,1,sequence_tables/blk027.csv
,,5f29eff59714081a3594a331,65af54e272f417c9b9fa8810,2024-01-23_18h58.43.960,bars,2023.2.3,Win32,60.0240096,657b66ea316d21385b68909f,,,,,,,,,,,1776.686,1777.679,,,1778.179,1778.429,,137,-43,,,,,,,,,,,,,,,,bars/038.png,bars/mask001.png,,,,,,,,,,,,0,1,,,,,,,3,6,4,7,,,,,,1738.917,1776.68,space,37.748,,1777.679,1778.179,1778.429,1783.196,space,4.749,,1783.196,28,67,1784.195,1784.195,1784.197,,,,0,0,0,0,1,165,70,,,,,,,,
,,5f29eff59714081a3594a331,65af54e272f417c9b9fa8810,2024-01-23_18h58.43.960,bars,2023.2.3,Win32,60.0240096,657b66ea316d21385b68909f,,,,,,,,,,,1784.197,1785.196,,,1785.696,1785.946,,76,76,,,,,,,,,,,,,,,,bars/042.png,bars/mask005.png,,,,,,,,,,,,7,2,,,,,,,5,8,3,7,,,,,,,,,,,1785.196,1785.696,1785.946,1788.545,space,2.585,,1788.545,69,1,1789.545,1789.545,1789.548,,,,0,1,1,1,1,145,75,,,,,,,,
,,5f29eff59714081a3594a331,65af54e272f417c9b9fa8810,2024-01-23_18h58.43.960,bars,2023.2.3,Win32,60.0240096,657b66ea316d21385b68909f,,,,,,,,,,,1789.549,1790.546,,,1791.045,1791.296,,141,-39,,,,,,,,,,,,,,,,bars/014.png,bars/mask007.png,,,,,,,,,,,,0,2,,,,,,,7,10,8,10,,,,,,,,,,,1790.546,1791.045,1791.296,1795.095,space,3.787,,1795.095,61,39,1796.095,1796.095,1796.098,,,,0,2,2,2,1,80,0,,,,,,,,
,,5f29eff59714081a3594a331,65af54e272f417c9b9fa8810,2024-01-23_18h58.43.960,bars,2023.2.3,Win32,60.0240096,657b66ea316d21385b68909f,,,,,,,,,,,1796.098,1797.095,,,1797.595,1797.845,,136,136,,,,,,,,,,,,,,,,bars/049.png,bars/mask003.png,,,,,,,,,,,,3,2,,,,,,,5,10,5,10,,,,,,,,,,,1797.095,1797.595,1797.846,1801.562,space,3.7,,1801.563,24,21,1802.562,1802.562,1802.563,,,,0,3,3,3,1,160,115,,,,,,,,
,,5f29eff59714081a3594a331,65af54e272f417c9b9fa8810,2024-01-23_18h58.43.960,bars,2023.2.3,Win32,60.0240096,657b66ea316d21385b68909f,,,,,,,,,,,1802.564,1803.561,,,1804.061,1804.312,,45,225,,,,,,,,,,,,,,,,bars/008.png,bars/mask008.png,,,,,,,,,,,,0,2,,,,,,,3,10,2,8,,,,,,,,,,,1803.561,1804.061,1804.312,1808.678,space,4.355,,1808.678,65,45,1809.678,1809.678,1809.679,,,,0,4,4,4,1,110,0,,,,,,,,
,,5f29eff59714081a3594a331,65af54e272f417c9b9fa8810,2024-01-23_18h58.43.960,bars,2023.2.3,Win32,60.0240096,657b66ea316d21385b68909f,,,,,,,,,,,1809.679,1810.678,,,1811.178,1811.427,,27,207,,,,,,,,,,,,,,,,bars/007.png,bars/mask004.png,,,,,,,,,,,,1,2,,,,,,,1,10,1,9,,,,,,,,,,,1810.678,1811.178,1811.427,1814.228,space,2.783,,1814.228,32,28,1815.227,1815.228,1815.23,,,,0,5,5,5,1,175,55,,,,,,,,
,,5f29eff59714081a3594a331,65af54e272f417c9b9fa8810,2024-01-23_18h58.43.960,bars,2023.2.3,Win32,60.0240096,657b66ea316d21385b68909f,,,,,,,,,,,1815.23,1816.227,,,1816.727,1816.978,,142,142,,,,,,,,,,,,,,,,bars/044.png,bars/mask000.png,,,,,,,,,,,,6,2,,,,,,,3,10,1,10,,,,,,,,,,,1816.227,1816.727,1816.978,1818.527,space,1.535,,1818.527,67,13,1819.527,1819.527,1819.529,,,,0,6,6,6,1,75,155,,,,,,,,
,,5f29eff59714081a3594a331,65af54e272f417c9b9fa8810,2024-01-23_18h58.43.960,bars,2023.2.3,Win32,60.0240096,657b66ea316d21385b68909f,,,,,,,,,,,1819.53,1820.527,,,1821.027,1821.277,,73,73,,,,,,,,,,,,,,,,bars/018.png,bars/mask007.png,,,,,,,,,,,,4,2,,,,,,,5,10,5,10,,,,,,,,,,,1820.527,1821.027,1821.277,1822.943,space,1.655,,1822.943,77,17,1823.944,1823.944,1823.945,,,,0,7,7,7,1,150,90,,,,,,,,
,,5f29eff59714081a3594a331,65af54e272f417c9b9fa8810,2024-01-23_18h58.43.960,bars,2023.2.3,Win32,60.0240096,657b66ea316d21385b68909f,,,,,,,,,,,1823.945,1824.943,,,1825.443,1825.694,,55,55,,,,,,,,,,,,,,,,bars/038.png,bars/mask000.png,,,,,,,,,,,,5,2,,,,,,,7,8,7,9,,,,,,,,,,,1824.943,1825.443,1825.694,1828.043,space,2.335,,1828.044,70,15,1829.044,1829.044,1829.046,,,,0,8,8,8,1,165,70,,,,,,,,
,,5f29eff59714081a3594a331,65af54e272f417c9b9fa8810,2024-01-23_18h58.43.960,bars,2023.2.3,Win32,60.0240096,657b66ea316d21385b68909f,,,,,,,,,,,1829.046,1830.043,,,1830.543,1830.793,,138,138,,,,,,,,,,,,,,,,bars/023.png,bars/mask008.png,,,,,,,,,,,,1,2,,,,,,,5,6,7,5,,,,,,,,,,,1830.043,1830.543,1830.793,1835.127,space,4.317,,1835.127,62,23,1836.126,1836.126,1836.127,,,,0,9,9,9,1,20,115,,,,,,,,
,,5f29eff59714081a3594a331,65af54e272f417c9b9fa8810,2024-01-23_18h58.43.960,bars,2023.2.3,Win32,60.0240096,657b66ea316d21385b68909f,,,,,,,,,,,1836.128,1837.126,,,1837.626,1837.876,,128,128,,,,,,,,,,,,,,,,bars/020.png,bars/mask004.png,,,,,,,,,,,,4,1,,,,,,,7,8,7,10,,,,,,,,,,,1837.126,1837.626,1837.876,1838.859,space,0.97,,1838.859,13,42,1839.859,1839.859,1839.864,,,,0,10,10,10,1,115,170,,,,,,,,
,,5f29eff59714081a3594a331,65af54e272f417c9b9fa8810,2024-01-23_18h58.43.960,bars,2023.2.3,Win32,60.0240096,657b66ea316d21385b68909f,,,,,,,,,,,1839.864,1840.859,,,1841.359,1841.61,,120,120,,,,,,,,,,,,,,,,bars/023.png,bars/mask000.png,,,,,,,,,,,,8,2,,,,,,,9,10,8,9,,,,,,,,,,,1840.859,1841.359,1841.61,1845.175,space,3.549,,1845.176,80,5,1846.176,1846.176,1846.179,,,,0,11,11,11,1,20,115,,,,,,,,
,,5f29eff59714081a3594a331,65af54e272f417c9b9fa8810,2024-01-23_18h58.43.960,bars,2023.2.3,Win32,60.0240096,657b66ea316d21385b68909f,,,,,,,,,,,1846.179,1847.176,,,1847.676,1847.926,,122,122,,,,,,,,,,,,,,,,bars/043.png,bars/mask008.png,,,,,,,,,,,,7,2,,,,,,,10,10,9,10,,,,,,,,,,,1847.176,1847.676,1847.926,1851.209,space,3.267,,1851.209,88,8,1852.209,1852.209,1852.211,,,,0,12,12,12,1,30,130,,,,,,,,
,,5f29eff59714081a3594a331,65af54e272f417c9b9fa8810,2024-01-23_18h58.43.960,bars,2023.2.3,Win32,60.0240096,657b66ea316d21385b68909f,,,,,,,,,,,1852.211,1853.208,,,1853.709,1853.958,,147,-33,,,,,,,,,,,,,,,,bars/039.png,bars/mask005.png,,,,,,,,,,,,1,1,,,,,,,8,8,8,8,,,,,,,,,,,1853.208,1853.709,1853.958,1858.842,space,4.873,,1858.842,28,42,1859.842,1859.842,1859.844,,,,0,13,13,13,1,175,105,,,,,,,,
,,5f29eff59714081a3594a331,65af54e272f417c9b9fa8810,2024-01-23_18h58.43.960,bars,2023.2.3,Win32,60.0240096,657b66ea316d21385b68909f,,,,,,,,,,,1859.845,1860.842,,,1861.342,1861.592,,134,134,,,,,,,,,,,,,,,,bars/004.png,bars/mask006.png,,,,,,,,,,,,7,2,,,,,,,10,10,10,10,,,,,,,,,,,1860.842,1861.342,1861.592,1863.408,space,1.802,,1863.409,71,9,1864.409,1864.409,1864.413,,,,0,14,14,14,1,25,125,,,,,,,,
,,5f29eff59714081a3594a331,65af54e272f417c9b9fa8810,2024-01-23_18h58.43.960,bars,2023.2.3,Win32,60.0240096,657b66ea316d21385b68909f,,,,,,,,,,,1864.414,1865.408,,,1865.908,1866.159,,42,222,,,,,,,,,,,,,,,,bars/045.png,bars/mask001.png,,,,,,,,,,,,0,2,,,,,,,8,10,6,10,,,,,,,,,,,1865.408,1865.908,1866.159,1869.758,space,3.59,,1869.758,58,32,1870.758,1870.759,1870.76,,,,0,15,15,15,1,100,10,,,,,,,,
,,5f29eff59714081a3594a331,65af54e272f417c9b9fa8810,2024-01-23_18h58.43.960,bars,2023.2.3,Win32,60.0240096,657b66ea316d21385b68909f,,,,,,,,,,,1870.76,1871.759,,,1872.258,1872.508,,58,58,,,,,,,,,,,,,,,,bars/012.png,bars/mask009.png,,,,,,,,,,,,0,1,,,,,,,10,10,10,9,,,,,,,,,,,1871.759,1872.258,1872.508,1875.174,space,2.649,,1875.174,32,43,1876.174,1876.174,1876.179,,,,0,16,16,16,1,90,15,,,,,,,,
,,5f29eff59714081a3594a331,65af54e272f417c9b9fa8810,2024-01-23_18h58.43.960,bars,2023.2.3,Win32,60.0240096,657b66ea316d21385b68909f,,,,,,,,,,,1876.179,1877.175,,,1877.674,1877.924,,135,135,,,,,,,,,,,,,,,,bars/042.png,bars/mask004.png,,,,,,,,,,,,7,1,,,,,,,10,10,10,10,,,,,,,,,,,1877.175,1877.674,1877.925,1880.324,space,2.384,,1880.324,10,60,1881.324,1881.324,1881.325,,,,0,17,17,17,1,145,75,,,,,,,,
,,5f29eff59714081a3594a331,65af54e272f417c9b9fa8810,2024-01-23_18h58.43.960,bars,2023.2.3,Win32,60.0240096,657b66ea316d21385b68909f,,,,,,,,,,,1881.326,1882.324,,,1882.824,1883.073,,65,65,,,,,,,,,,,,,,,,bars/021.png,bars/mask000.png,,,,,,,,,,,,8,2,,,,,,,10,10,9,10,,,,,,,,,,,1882.324,1882.824,1883.073,1885.391,space,2.299,,1885.391,90,5,1886.39,1886.39,1886.394,,,,0,18,18,18,1,155,70,,,,,,,,
,,5f29eff59714081a3594a331,65af54e272f417c9b9fa8810,2024-01-23_18h58.43.960,bars,2023.2.3,Win32,60.0240096,657b66ea316d21385b68909f,,,,,,,,,,,1886.395,1887.391,,,1887.89,1888.141,,145,-35,,,,,,,,,,,,,,,,bars/014.png,bars/mask001.png,,,,,,,,,,,,0,2,,,,,,,8,8,10,8,,,,,,,,,,,1887.391,1887.89,1888.141,1892.04,space,3.884,,1892.04,65,35,1893.04,1893.04,1893.043,,,,0,19,19,19,1,80,0,,,,,,,,
,,5f29eff59714081a3594a331,65af54e272f417c9b9fa8810,2024-01-23_18h58.43.960,bars,2023.2.3,Win32,60.0240096,657b66ea316d21385b68909f,,,,,,,,,,,1893.043,1894.041,,,1894.54,1894.791,,138,138,,,,,,,,,,,,,,,,bars/005.png,bars/mask003.png,,,,,,,,,,,,5,2,,,,,,,10,6,10,5,,,,,,,,,,,1894.041,1894.54,1894.791,1898.223,space,3.417,,1898.223,52,2,1899.223,1899.223,1899.224,,,,0,20,20,20,1,10,140,,,,,,,,
,,5f29eff59714081a3594a331,65af54e272f417c9b9fa8810,2024-01-23_18h58.43.960,bars,2023.2.3,Win32,60.0240096,657b66ea316d21385b68909f,,,,,,,,,,,1899.225,1900.223,,,1900.723,1900.973,,88,88,,,,,,,,,,,,,,,,bars/006.png,bars/mask008.png,,,,,,,,,,,,3,2,,,,,,,10,4,10,5,,,,,,,,,,,1900.223,1900.723,1900.973,1902.823,space,1.836,,1902.823,53,12,1903.823,1903.823,1903.824,,,,0,21,21,21,1,35,100,,,,,,,,
,,5f29eff59714081a3594a331,65af54e272f417c9b9fa8810,2024-01-23_18h58.43.960,bars,2023.2.3,Win32,60.0240096,657b66ea316d21385b68909f,,,,,,,,,,,1903.825,1904.823,,,1905.323,1905.573,,78,78,,,,,,,,,,,,,,,,bars/042.png,bars/mask003.png,,,,,,,,,,,,0,2,,,,,,,8,2,9,0,,,,,,,,,,,1904.823,1905.323,1905.573,1909.622,space,4.033,,1909.622,67,3,1910.623,1910.623,1910.624,,,,0,22,22,22,1,145,75,,,,,,,,
,,5f29eff59714081a3594a331,65af54e272f417c9b9fa8810,2024-01-23_18h58.43.960,bars,2023.2.3,Win32,60.0240096,657b66ea316d21385b68909f,,,,,,,,,,,1910.625,1911.622,,,1912.122,1912.373,,71,71,,,,,,,,,,,,,,,,bars/013.png,bars/mask005.png,,,,,,,,,,,,5,1,,,,,,,6,4,6,3,,,,,,,,,,,1911.622,1912.122,1912.373,1914.873,space,2.484,,1914.873,4,61,1915.872,1915.872,1915.878,,,,0,23,23,23,1,75,10,,,,,,,,
,,5f29eff59714081a3594a331,65af54e272f417c9b9fa8810,2024-01-23_18h58.43.960,bars,2023.2.3,Win32,60.0240096,657b66ea316d21385b68909f,,,,,,,,,,,1915.878,1916.873,,,1917.372,1917.622,,143,143,,,,,,,,,,,,,,,,bars/044.png,bars/mask008.png,,,,,,,,,,,,4,2,,,,,,,8,6,8,6,,,,,,,,,,,1916.873,1917.372,1917.622,1919.406,space,1.766,,1919.406,68,12,1920.405,1920.405,1920.408,,,,0,24,24,24,1,75,155,,,,,,,,
,,5f29eff59714081a3594a331,65af54e272f417c9b9fa8810,2024-01-23_18h58.43.960,bars,2023.2.3,Win32,60.0240096,657b66ea316d21385b68909f,,,,,,,,,,,1920.409,1921.405,,,1921.905,1922.155,,137,137,,,,,,,,,,,,,,,,bars/039.png,bars/mask001.png,,,,,,,,,,,,0,2,,,,,,,10,4,10,5,,,,,,,,,,,1921.405,1921.905,1922.155,1925.422,space,3.256,,1925.422,38,32,1926.421,1926.421,1926.425,,,,0,25,25,25,1,175,105,,,,,,,,
,,5f29eff59714081a3594a331,65af54e272f417c9b9fa8810,2024-01-23_18h58.43.960,bars,2023.2.3,Win32,60.0240096,657b66ea316d21385b68909f,,,,,,,,,,,1926.425,1927.422,,,1927.922,1928.172,,89,89,,,,,,,,,,,,,,,,bars/044.png,bars/mask008.png,,,,,,,,,,,,5,1,,,,,,,10,2,10,2,,,,,,,,,,,1927.422,1927.922,1928.172,1929.871,space,1.685,,1929.871,14,66,1930.872,1930.872,1930.876,,,,0,26,26,26,1,75,155,,,,,,,,
,,5f29eff59714081a3594a331,65af54e272f417c9b9fa8810,2024-01-23_18h58.43.960,bars,2023.2.3,Win32,60.0240096,657b66ea316d21385b68909f,,,,,,,,,,,1930.877,1931.872,,,1932.371,1932.622,,65,65,,,,,,,,,,,,,,,,bars/029.png,bars/mask004.png,,,,,,,,,,,,1,2,,,,,,,8,4,7,4,,,,,,,,,,,1931.872,1932.371,1932.622,1934.538,space,1.907,,1934.539,25,20,1935.538,1935.538,1935.543,,,,0,27,27,27,1,90,45,,,,,,,,
,,5f29eff59714081a3594a331,65af54e272f417c9b9fa8810,2024-01-23_18h58.43.960,bars,2023.2.3,Win32,60.0240096,657b66ea316d21385b68909f,,,,,,,,,,,1935.544,1936.538,,,1937.038,1937.288,,89,89,,,,,,,,,,,,,,,,bars/029.png,bars/mask000.png,,,,,,,,,,,,4,1,,,,,,,6,6,4,7,,,,,,,,,,,1936.538,1937.038,1937.288,1938.054,space,0.757,,1938.055,1,44,1939.055,1939.055,1939.057,,,,0,28,28,28,1,90,45,,,,,,,,
,,5f29eff59714081a3594a331,65af54e272f417c9b9fa8810,2024-01-23_18h58.43.960,bars,2023.2.3,Win32,60.0240096,657b66ea316d21385b68909f,,,,,,,,,,,1939.057,1940.054,,,1940.555,1940.804,,144,-36,,,,,,,,,,,,,,,,bars/014.png,bars/mask004.png,,,,,,,,,,,,0,2,,,,,,,4,4,3,4,,,,,,,,,,,1940.054,1940.555,1940.804,1945.171,space,4.351,,1945.171,64,36,1946.171,1946.171,1946.174,,,,0,29,29,29,1,80,0,,,,,,,,
,,5f29eff59714081a3594a331,65af54e272f417c9b9fa8810,2024-01-23_18h58.43.960,bars,2023.2.3,Win32,60.0240096,657b66ea316d21385b68909f,,,,,,,,,,,1946.174,1947.171,,,1947.671,1947.921,,56,236,,,,,,,,,,,,,,,,bars/044.png,bars/mask001.png,,,,,,,,,,,,2,1,,,,,,,6,2,6,3,,,,,,,,,,,1947.171,1947.671,1947.921,1951.654,space,3.716,,1951.654,19,81,1952.653,1952.654,1952.657,,,,0,30,30,30,1,75,155,,,,,,,,
,,5f29eff59714081a3594a331,65af54e272f417c9b9fa8810,2024-01-23_18h58.43.960,bars,2023.2.3,Win32,60.0240096,657b66ea316d21385b68909f,,,,,,,,,,,1952.658,1953.653,,,1954.154,1954.404,,143,-37,,,,,,,,,,,,,,,,bars/043.png,bars/mask000.png,,,,,,,,,,,,0,2,,,,,,,4,0,5,0,,,,,,,,,,,1953.653,1954.154,1954.404,1966.603,space,12.187,,1966.603,67,13,1967.603,1967.603,1967.608,,,,0,31,31,31,1,30,130,,,,,,,,
,,5f29eff59714081a3594a331,65af54e272f417c9b9fa8810,2024-01-23_18h58.43.960,bars,2023.2.3,Win32,60.0240096,657b66ea316d21385b68909f,,,,,,,,,,,1967.608,1968.603,,,1969.103,1969.352,,153,153,,,,,,,,,,,,,,,,bars/007.png,bars/mask001.png,,,,,,,,,,,,2,1,,,,,,,6,2,6,2,,,,,,,,,,,1968.604,1969.103,1969.352,1970.369,space,1.003,,1970.369,22,82,1971.369,1971.369,1971.372,,,,0,32,32,32,1,175,55,,,,,,,,
,,5f29eff59714081a3594a331,65af54e272f417c9b9fa8810,2024-01-23_18h58.43.960,bars,2023.2.3,Win32,60.0240096,657b66ea316d21385b68909f,,,,,,,,,,,1971.374,1972.37,,,1972.869,1973.119,,137,137,,,,,,,,,,,,,,,,bars/036.png,bars/mask004.png,,,,,,,,,,,,7,1,,,,,,,8,4,10,5,,,,,,,,,,,1972.37,1972.869,1973.119,1973.752,space,0.621,,1973.752,8,63,1974.753,1974.753,1974.754,,,,0,33,33,33,1,145,20,,,,,,,,
,,5f29eff59714081a3594a331,65af54e272f417c9b9fa8810,2024-01-23_18h58.43.960,bars,2023.2.3,Win32,60.0240096,657b66ea316d21385b68909f,,,,,,,,,,,1974.754,1975.753,,,1976.253,1976.503,,91,91,,,,,,,,,,,,,,,,bars/030.png,bars/mask000.png,,,,,,,,,,,,1,2,,,,,,,10,6,8,5,,,,,,,,,,,1975.753,1976.252,1976.503,1977.336,space,0.816,,1977.336,49,26,1978.336,1978.336,1978.341,,,,0,34,34,34,1,140,65,,,,,,,,
,,5f29eff59714081a3594a331,65af54e272f417c9b9fa8810,2024-01-23_18h58.43.960,bars,2023.2.3,Win32,60.0240096,657b66ea316d21385b68909f,,,,,,,,,,,1978.341,1979.336,,,1979.836,1980.086,,111,111,,,,,,,,,,,,,,,,bars/042.png,bars/mask000.png,,,,,,,,,,,,0,1,,,,,,,10,8,10,8,,,,,,,,,,,1979.336,1979.836,1980.086,1982.102,space,2.006,,1982.102,34,36,1983.102,1983.102,1983.106,,,,0,35,35,35,1,145,75,,,,,,,,
,,5f29eff59714081a3594a331,65af54e272f417c9b9fa8810,2024-01-23_18h58.43.960,bars,2023.2.3,Win32,60.0240096,657b66ea316d21385b68909f,,,,,,,,,,,1983.107,1984.102,,,1984.602,1984.852,,154,154,,,,,,,,,,,,,,,,bars/040.png,bars/mask005.png,,,,,,,,,,,,4,1,,,,,,,8,10,8,10,,,,,,,,,,,1984.102,1984.602,1984.852,1989.636,space,4.767,,1989.636,14,31,1990.635,1990.635,1990.64,,,,0,36,36,36,1,140,5,,,,,,,,
,,5f29eff59714081a3594a331,65af54e272f417c9b9fa8810,2024-01-23_18h58.43.960,bars,2023.2.3,Win32,60.0240096,657b66ea316d21385b68909f,,,,,,,,,,,1990.64,1991.635,,,1992.135,1992.385,,149,-31,,,,,,,,,,,,,,,,bars/005.png,bars/mask002.png,,,,,,,,,,,,6,2,,,,,,,6,10,5,9,,,,,,,,,,,1991.635,1992.135,1992.385,1994.918,space,2.521,,1994.918,41,9,1995.918,1995.918,1995.922,,,,0,37,37,37,1,10,140,,,,,,,,
,,5f29eff59714081a3594a331,65af54e272f417c9b9fa8810,2024-01-23_18h58.43.960,bars,2023.2.3,Win32,60.0240096,657b66ea316d21385b68909f,,,,,,,,,,,1995.922,1996.918,,,1997.419,1997.668,,87,87,,,,,,,,,,,,,,,,bars/019.png,bars/mask007.png,,,,,,,,,,,,3,2,,,,,,,4,8,4,8,,,,,,,,,,,1996.918,1997.419,1997.668,1999.135,space,1.457,,1999.135,42,18,2000.135,2000.135,2000.137,,,,0,38,38,38,1,45,105,,,,,,,,
,,5f29eff59714081a3594a331,65af54e272f417c9b9fa8810,2024-01-23_18h58.43.960,bars,2023.2.3,Win32,60.0240096,657b66ea316d21385b68909f,,,,,,,,,,,2000.137,2001.134,,,2001.635,2001.884,,60,60,,,,,,,,,,,,,,,,bars/024.png,bars/mask008.png,,,,,,,,,,,,0,1,,,,,,,2,6,2,5,,,,,,,,,,,2001.135,2001.635,2001.885,2003.218,space,1.318,,2003.218,60,70,2004.218,2004.218,2004.221,,,,0,39,39,39,1,120,170,,,,,,,,
,,5f29eff59714081a3594a331,65af54e272f417c9b9fa8810,2024-01-23_18h58.43.960,bars,2023.2.3,Win32,60.0240096,657b66ea316d21385b68909f,,,,,,,,,,,2004.222,2005.218,,,2005.718,2005.968,,65,65,,,,,,,,,,,,,,,,bars/029.png,bars/mask003.png,,,,,,,,,,,,2,2,,,,,,,4,8,5,7,,,,,,,,,,,2005.218,2005.718,2005.968,2006.601,space,0.618,,2006.601,25,20,2007.6,2007.601,2007.604,,,,0,40,40,40,1,90,45,,,,,,,,
,,5f29eff59714081a3594a331,65af54e272f417c9b9fa8810,2024-01-23_18h58.43.960,bars,2023.2.3,Win32,60.0240096,657b66ea316d21385b68909f,,,,,,,,,,,2007.604,2008.602,,,2009.101,2009.351,,78,78,,,,,,,,,,,,,,,,bars/011.png,bars/mask006.png,,,,,,,,,,,,4,2,,,,,,,2,6,2,5,,,,,,,,,,,2008.602,2009.101,2009.351,2011.901,space,2.533,,2011.901,82,7,2012.901,2012.901,2012.903,,,,0,41,41,41,1,160,85,,,,,,,,
,,5f29eff59714081a3594a331,65af54e272f417c9b9fa8810,2024-01-23_18h58.43.960,bars,2023.2.3,Win32,60.0240096,657b66ea316d21385b68909f,,,,,,,,,,,2012.903,2013.901,,,2014.401,2014.651,,49,229,,,,,,,,,,,,,,,,bars/048.png,bars/mask005.png,,,,,,,,,,,,0,1,,,,,,,0,4,0,3,,,,,,,,,,,2013.901,2014.401,2014.651,2019.034,space,4.365,,2019.034,1,54,2020.034,2020.034,2020.039,,,,0,42,42,42,1,50,175,,,,,,,,
,,5f29eff59714081a3594a331,65af54e272f417c9b9fa8810,2024-01-23_18h58.43.960,bars,2023.2.3,Win32,60.0240096,657b66ea316d21385b68909f,,,,,,,,,,,2020.04,2021.034,,,2021.534,2021.784,,56,56,,,,,,,,,,,,,,,,bars/017.png,bars/mask006.png,,,,,,,,,,,,2,2,,,,,,,2,2,1,3,,,,,,,,,,,2021.034,2021.534,2021.784,2025.334,space,3.54,,2025.334,89,11,2026.333,2026.334,2026.338,,,,0,43,43,43,1,145,45,,,,,,,,
,,5f29eff59714081a3594a331,65af54e272f417c9b9fa8810,2024-01-23_18h58.43.960,bars,2023.2.3,Win32,60.0240096,657b66ea316d21385b68909f,,,,,,,,,,,2026.338,2027.333,,,2027.834,2028.083,,66,66,,,,,,,,,,,,,,,,bars/038.png,bars/mask004.png,,,,,,,,,,,,3,2,,,,,,,4,4,5,4,,,,,,,,,,,2027.333,2027.834,2028.083,2029.35,space,1.251,,2029.351,81,4,2030.35,2030.351,2030.352,,,,0,44,44,44,1,165,70,,,,,,,,
,,5f29eff59714081a3594a331,65af54e272f417c9b9fa8810,2024-01-23_18h58.43.960,bars,2023.2.3,Win32,60.0240096,657b66ea316d21385b68909f,,,,,,,,,,,2030.352,2031.35,,,2031.85,2032.099,,139,139,,,,,,,,,,,,,,,,bars/017.png,bars/mask004.png,,,,,,,,,,,,4,1,,,,,,,6,2,5,2,,,,,,,,,,,2031.35,2031.85,2032.099,2032.866,space,0.756,,2032.866,6,86,2033.866,2033.866,2033.869,,,,0,45,45,45,1,145,45,,,,,,,,
,,5f29eff59714081a3594a331,65af54e272f417c9b9fa8810,2024-01-23_18h58.43.960,bars,2023.2.3,Win32,60.0240096,657b66ea316d21385b68909f,,,,,,,,,,,2033.87,2034.867,,,2035.366,2035.617,,136,136,,,,,,,,,,,,,,,,bars/043.png,bars/mask006.png,,,,,,,,,,,,2,2,,,,,,,4,4,5,2,,,,,,,,,,,2034.867,2035.366,2035.617,2038.082,space,2.452,,2038.082,74,6,2039.083,2039.083,2039.085,,,,0,46,46,46,1,30,130,,,,,,,,
,,5f29eff59714081a3594a331,65af54e272f417c9b9fa8810,2024-01-23_18h58.43.960,bars,2023.2.3,Win32,60.0240096,657b66ea316d21385b68909f,,,,,,,,,,,2039.086,2040.083,,,2040.583,2040.833,,119,119,,,,,,,,,,,,,,,,bars/009.png,bars/mask006.png,,,,,,,,,,,,1,2,,,,,,,6,2,7,2,,,,,,,,,,,2040.083,2040.583,2040.833,2043.483,space,2.638,,2043.483,76,14,2044.482,2044.482,2044.484,,,,0,47,47,47,1,15,105,,,,,,,,
,,5f29eff59714081a3594a331,65af54e272f417c9b9fa8810,2024-01-23_18h58.43.960,bars,2023.2.3,Win32,60.0240096,657b66ea316d21385b68909f,,,,,,,,,,,2044.484,2045.482,,,2045.982,2046.232,,10,10,,,,,,,,,,,,,,,,bars/033.png,bars/mask009.png,,,,,,,,,,,,2,1,,,,,,,4,4,3,3,,,,,,,,,,,2045.482,2045.982,2046.232,2046.966,space,0.718,,2046.966,15,35,2047.966,2047.966,2047.968,,,,0,48,48,48,1,25,155,,,,,,,,
,,5f29eff59714081a3594a331,65af54e272f417c9b9fa8810,2024-01-23_18h58.43.960,bars,2023.2.3,Win32,60.0240096,657b66ea316d21385b68909f,,,,,,,,,,,2047.968,2048.966,,,2049.465,2049.715,,130,130,,,,,,,,,,,,,,,,bars/017.png,bars/mask008.png,,,,,,,,,,,,1,1,,,,,,,2,2,1,2,,,,,,,,,,,2048.966,2049.465,2049.716,2052.215,space,2.484,,2052.215,15,85,2053.215,2053.215,2053.217,,,,0,49,49,49,1,145,45,,,,,,,,
,,5f29eff59714081a3594a331,65af54e272f417c9b9fa8810,2024-01-23_18h58.43.960,bars,2023.2.3,Win32,60.0240096,657b66ea316d21385b68909f,,,,,,,,,,,,,,,,,,,,,,,,,,,,,,,,,,,,,,,,,,,,,,,,,,,,,,,,,,,,,,,,,,,,,,,,,,,,,,,,,,,,,,,,,,,,,2053.217,2113.213,0,3,3,1,1,sequence_tables/blk020.csv
,,5f29eff59714081a3594a331,65af54e272f417c9b9fa8810,2024-01-23_18h58.43.960,bars,2023.2.3,Win32,60.0240096,657b66ea316d21385b68909f,,,,,,,,,,,2138.934,2139.928,,,2140.428,2140.677,,71,71,,,,,,,,,,,,,,,,bars/021.png,bars/mask007.png,,,,,,,,,,,,5,2,,,,,,,2,4,2,5,,,,,,2113.214,2138.928,space,25.699,,2139.928,2140.428,2140.677,2141.544,space,0.849,,2141.544,84,1,2142.545,2142.545,2142.551,,,,0,0,0,0,1,155,70,,,,,,,,
,,5f29eff59714081a3594a331,65af54e272f417c9b9fa8810,2024-01-23_18h58.43.960,bars,2023.2.3,Win32,60.0240096,657b66ea316d21385b68909f,,,,,,,,,,,2142.551,2143.544,,,2144.045,2144.294,,171,171,,,,,,,,,,,,,,,,bars/024.png,bars/mask006.png,,,,,,,,,,,,7,2,,,,,,,4,6,4,7,,,,,,,,,,,2143.544,2144.045,2144.294,2145.211,space,0.9,,2145.211,51,1,2146.211,2146.211,2146.214,,,,0,1,1,1,1,120,170,,,,,,,,
,,5f29eff59714081a3594a331,65af54e272f417c9b9fa8810,2024-01-23_18h58.43.960,bars,2023.2.3,Win32,60.0240096,657b66ea316d21385b68909f,,,,,,,,,,,2146.214,2147.211,,,2147.711,2147.961,,153,153,,,,,,,,,,,,,,,,bars/003.png,bars/mask000.png,,,,,,,,,,,,5,2,,,,,,,6,8,5,8,,,,,,,,,,,2147.211,2147.711,2147.961,2152.394,space,4.421,,2152.394,52,13,2153.394,2153.394,2153.395,,,,0,2,2,2,1,25,140,,,,,,,,
,,5f29eff59714081a3594a331,65af54e272f417c9b9fa8810,2024-01-23_18h58.43.960,bars,2023.2.3,Win32,60.0240096,657b66ea316d21385b68909f,,,,,,,,,,,2153.395,2154.394,,,2154.894,2155.144,,20,200,,,,,,,,,,,,,,,,bars/032.png,bars/mask003.png,,,,,,,,,,,,7,2,,,,,,,4,6,2,7,,,,,,,,,,,2154.394,2154.894,2155.144,2158.093,space,2.935,,2158.093,75,0,2159.093,2159.093,2159.095,,,,0,3,3,3,1,125,20,,,,,,,,
,,5f29eff59714081a3594a331,65af54e272f417c9b9fa8810,2024-01-23_18h58.43.960,bars,2023.2.3,Win32,60.0240096,657b66ea316d21385b68909f,,,,,,,,,,,2159.095,2160.094,,,2160.594,2160.844,,61,61,,,,,,,,,,,,,,,,bars/031.png,bars/mask008.png,,,,,,,,,,,,1,2,,,,,,,6,4,6,4,,,,,,,,,,,2160.094,2160.594,2160.844,2164.46,space,3.603,,2164.46,59,26,2165.46,2165.46,2165.462,,,,0,4,4,4,1,120,35,,,,,,,,
,,5f29eff59714081a3594a331,65af54e272f417c9b9fa8810,2024-01-23_18h58.43.960,bars,2023.2.3,Win32,60.0240096,657b66ea316d21385b68909f,,,,,,,,,,,2165.462,2166.46,,,2166.96,2167.21,,135,135,,,,,,,,,,,,,,,,bars/009.png,bars/mask003.png,,,,,,,,,,,,0,2,,,,,,,8,2,9,3,,,,,,,,,,,2166.46,2166.96,2167.21,2169.393,space,2.168,,2169.393,60,30,2170.392,2170.392,2170.394,,,,0,5,5,5,1,15,105,,,,,,,,
,,5f29eff59714081a3594a331,65af54e272f417c9b9fa8810,2024-01-23_18h58.43.960,bars,2023.2.3,Win32,60.0240096,657b66ea316d21385b68909f,,,,,,,,,,,2170.394,2171.393,,,2171.893,2172.142,,125,125,,,,,,,,,,,,,,,,bars/049.png,bars/mask006.png,,,,,,,,,,,,0,2,,,,,,,6,0,7,0,,,,,,,,,,,2171.393,2171.893,2172.143,2174.492,space,2.341,,2174.492,35,10,2175.493,2175.493,2175.494,,,,0,6,6,6,1,160,115,,,,,,,,
,,5f29eff59714081a3594a331,65af54e272f417c9b9fa8810,2024-01-23_18h58.43.960,bars,2023.2.3,Win32,60.0240096,657b66ea316d21385b68909f,,,,,,,,,,,2175.494,2176.493,,,2176.993,2177.242,,66,66,,,,,,,,,,,,,,,,bars/047.png,bars/mask005.png,,,,,,,,,,,,2,2,,,,,,,4,2,4,2,,,,,,,,,,,2176.493,2176.993,2177.242,2179.792,space,2.535,,2179.792,51,4,2180.793,2180.793,2180.794,,,,0,7,7,7,1,15,70,,,,,,,,
,,5f29eff59714081a3594a331,65af54e272f417c9b9fa8810,2024-01-23_18h58.43.960,bars,2023.2.3,Win32,60.0240096,657b66ea316d21385b68909f,,,,,,,,,,,2180.795,2181.792,,,2182.292,2182.543,,31,31,,,,,,,,,,,,,,,,bars/016.png,bars/mask003.png,,,,,,,,,,,,1,1,,,,,,,2,4,2,5,,,,,,,,,,,2181.792,2182.292,2182.543,2183.142,space,0.589,,2183.142,9,46,2184.142,2184.142,2184.147,,,,0,8,8,8,1,40,165,,,,,,,,
,,5f29eff59714081a3594a331,65af54e272f417c9b9fa8810,2024-01-23_18h58.43.960,bars,2023.2.3,Win32,60.0240096,657b66ea316d21385b68909f,,,,,,,,,,,2184.147,2185.142,,,2185.642,2185.892,,84,84,,,,,,,,,,,,,,,,bars/019.png,bars/mask005.png,,,,,,,,,,,,1,2,,,,,,,4,2,5,2,,,,,,,,,,,2185.142,2185.642,2185.892,2188.259,space,2.353,,2188.259,39,21,2189.258,2189.258,2189.263,,,,0,9,9,9,1,45,105,,,,,,,,
,,5f29eff59714081a3594a331,65af54e272f417c9b9fa8810,2024-01-23_18h58.43.960,bars,2023.2.3,Win32,60.0240096,657b66ea316d21385b68909f,,,,,,,,,,,2189.263,2190.259,,,2190.758,2191.008,,61,61,,,,,,,,,,,,,,,,bars/025.png,bars/mask001.png,,,,,,,,,,,,1,2,,,,,,,6,4,9,4,,,,,,,,,,,2190.259,2190.758,2191.008,2192.492,space,1.466,,2192.492,44,21,2193.492,2193.492,2193.493,,,,0,10,10,10,1,105,40,,,,,,,,
,,5f29eff59714081a3594a331,65af54e272f417c9b9fa8810,2024-01-23_18h58.43.960,bars,2023.2.3,Win32,60.0240096,657b66ea316d21385b68909f,,,,,,,,,,,2193.494,2194.491,,,2194.992,2195.241,,22,202,,,,,,,,,,,,,,,,bars/014.png,bars/mask004.png,,,,,,,,,,,,0,2,,,,,,,8,2,8,0,,,,,,,,,,,2194.492,2194.992,2195.241,2198.425,space,3.169,,2198.425,58,22,2199.424,2199.424,2199.425,,,,0,11,11,11,1,80,0,,,,,,,,
,,5f29eff59714081a3594a331,65af54e272f417c9b9fa8810,2024-01-23_18h58.43.960,bars,2023.2.3,Win32,60.0240096,657b66ea316d21385b68909f,,,,,,,,,,,2199.426,2200.424,,,2200.925,2201.175,,38,218,,,,,,,,,,,,,,,,bars/031.png,bars/mask003.png,,,,,,,,,,,,4,2,,,,,,,10,4,10,4,,,,,,,,,,,2200.424,2200.924,2201.175,2205.275,space,4.091,,2205.275,82,3,2206.275,2206.275,2206.278,,,,0,12,12,12,1,120,35,,,,,,,,
,,5f29eff59714081a3594a331,65af54e272f417c9b9fa8810,2024-01-23_18h58.43.960,bars,2023.2.3,Win32,60.0240096,657b66ea316d21385b68909f,,,,,,,,,,,2206.278,2207.274,,,2207.774,2208.024,,87,87,,,,,,,,,,,,,,,,bars/001.png,bars/mask002.png,,,,,,,,,,,,1,2,,,,,,,8,2,8,1,,,,,,,,,,,2207.274,2207.774,2208.024,2211.725,space,3.684,,2211.725,43,2,2212.724,2212.724,2212.725,,,,0,13,13,13,1,130,85,,,,,,,,
,,5f29eff59714081a3594a331,65af54e272f417c9b9fa8810,2024-01-23_18h58.43.960,bars,2023.2.3,Win32,60.0240096,657b66ea316d21385b68909f,,,,,,,,,,,2212.726,2213.724,,,2214.223,2214.474,,64,64,,,,,,,,,,,,,,,,bars/030.png,bars/mask003.png,,,,,,,,,,,,4,2,,,,,,,10,4,10,4,,,,,,,,,,,2213.724,2214.223,2214.474,2215.341,space,0.851,,2215.341,76,1,2216.34,2216.34,2216.342,,,,0,14,14,14,1,140,65,,,,,,,,
,,5f29eff59714081a3594a331,65af54e272f417c9b9fa8810,2024-01-23_18h58.43.960,bars,2023.2.3,Win32,60.0240096,657b66ea316d21385b68909f,,,,,,,,,,,2216.342,2217.34,,,2217.841,2218.091,,123,123,,,,,,,,,,,,,,,,bars/028.png,bars/mask007.png,,,,,,,,,,,,5,2,,,,,,,8,6,6,5,,,,,,,,,,,2217.34,2217.841,2218.091,2223.574,space,5.467,,2223.574,78,3,2224.573,2224.573,2224.575,,,,0,15,15,15,1,45,120,,,,,,,,
,,5f29eff59714081a3594a331,65af54e272f417c9b9fa8810,2024-01-23_18h58.43.960,bars,2023.2.3,Win32,60.0240096,657b66ea316d21385b68909f,,,,,,,,,,,2224.575,2225.574,,,2226.073,2226.323,,70,70,,,,,,,,,,,,,,,,bars/022.png,bars/mask009.png,,,,,,,,,,,,1,1,,,,,,,6,8,6,6,,,,,,,,,,,2225.574,2226.073,2226.323,2229.423,space,3.089,,2229.423,25,50,2230.423,2230.423,2230.425,,,,0,16,16,16,1,95,20,,,,,,,,
,,5f29eff59714081a3594a331,65af54e272f417c9b9fa8810,2024-01-23_18h58.43.960,bars,2023.2.3,Win32,60.0240096,657b66ea316d21385b68909f,,,,,,,,,,,2230.425,2231.423,,,2231.923,2232.173,,44,44,,,,,,,,,,,,,,,,bars/016.png,bars/mask002.png,,,,,,,,,,,,3,1,,,,,,,4,6,4,6,,,,,,,,,,,2231.423,2231.923,2232.173,2232.74,space,0.552,,2232.74,4,59,2233.74,2233.74,2233.741,,,,0,17,17,17,1,40,165,,,,,,,,
,,5f29eff59714081a3594a331,65af54e272f417c9b9fa8810,2024-01-23_18h58.43.960,bars,2023.2.3,Win32,60.0240096,657b66ea316d21385b68909f,,,,,,,,,,,2233.741,2234.74,,,2235.239,2235.49,,77,77,,,,,,,,,,,,,,,,bars/002.png,bars/mask000.png,,,,,,,,,,,,4,2,,,,,,,2,4,2,5,,,,,,,,,,,2234.74,2235.239,2235.49,2238.606,space,3.099,,2238.606,53,8,2239.606,2239.606,2239.608,,,,0,18,18,18,1,130,85,,,,,,,,
