init_variables.started,init_variables.stopped,participant,session,date,expName,psychopyVersion,OS,frameRate,study_id,instruction_exp.started,instruction_exp.stopped,key_resp_8.keys,key_resp_8.rt,key_resp_8.duration,instruction_single.started,instruction_single.stopped,key_resp_2.keys,key_resp_2.rt,key_resp_2.duration,interval.started,interval.stopped,cue_single.started,cue_single.stopped,mask.started,mask.stopped,ori_response_single.started,res_ori,res,ori_response_single.stopped,key_resp_single.keys,key_resp_single.rt,key_resp_single.duration,disp_single.started,disp_single.stopped,key_resp.keys,key_resp.rt,key_resp.duration,single.thisRepN,single.thisTrialN,single.thisN,single.thisIndex,single.ran,ori,path,mask_path,instruction_bandit.started,instruction_bandit.stopped,key_resp_6.keys,key_resp_6.rt,key_resp_6.duration,cue_bandit.started,cue_bandit.stopped,bandit_res.keys,bandit_res.rt,bandit_res.duration,outcome_bandit.started,rew,action,outcome_bandit.stopped,bandit.thisRepN,bandit.thisTrialN,bandit.thisN,bandit.thisIndex,bandit.ran,actual_rew1,actual_rew2,rew1,rew2,instruction_task.started,instruction_task.stopped,key_resp_7.keys,key_resp_7.rt,key_resp_7.duration,wait_ready.started,wait_ready.stopped,key_resp_3.keys,key_resp_3.rt,key_resp_3.duration,cue.started,cue.stopped,ori_response.started,ori_response.stopped,key_resp_5.keys,key_resp_5.rt,key_resp_5.duration,outcome.started,diff1,diff2,outcome.stopped,disp_outcome_practice.started,disp_outcome_practice.stopped,key_resp_4.keys,key_resp_4.rt,key_resp_4.duration,trials.thisRepN,trials.thisTrialN,trials.thisN,trials.thisIndex,trials.ran,ori1,ori2,break_blk.started,break_blk.stopped,block.thisRepN,block.thisTrialN,block.thisN,block.thisIndex,block.ran,condition_file
0.0005,0.0006,5f458cb79f9aa31a7d7ab81b,65af55fd304b05200d920863,2024-01-23_06h00.54.101,bars,2023.2.3,Win32,59.88023952,657b66ea316d21385b68909f,,,,,,,,,,,,,,,,,,,,,,,,,,,,,,,,,,,,,,,,,,,,,,,,,,,,,,,,,,,,,,,,,,,,,,,,,,,,,,,,,,,,,,,,,,,,,,,,,,,,
,,5f458cb79f9aa31a7d7ab81b,65af55fd304b05200d920863,2024-01-23_06h00.54.101,bars,2023.2.3,Win32,59.88023952,657b66ea316d21385b68909f,0.0008,12.0452,y,12.0255,,,,,,,,,,,,,,,,,,,,,,,,,,,,,,,,,,,,,,,,,,,,,,,,,,,,,,,,,,,,,,,,,,,,,,,,,,,,,,,,,,,,,,,,,,,,,,,,
,,5f458cb79f9aa31a7d7ab81b,65af55fd304b05200d920863,2024-01-23_06h00.54.101,bars,2023.2.3,Win32,59.88023952,657b66ea316d21385b68909f,,,,,,12.0454,32.3778,space,20.3248,,,,,,,,,,,,,,,,,,,,,,,,,,,,,,,,,,,,,,,,,,,,,,,,,,,,,,,,,,,,,,,,,,,,,,,,,,,,,,,,,,,,,,,,,,,
,,5f458cb79f9aa31a7d7ab81b,65af55fd304b05200d920863,2024-01-23_06h00.54.101,bars,2023.2.3,Win32,59.88023952,657b66ea316d21385b68909f,,,,,,,,,,,32.3816,33.3779,33.3781,33.8779,33.8781,34.1279,34.128,176,-4,39.178,space,5.0265,,39.1781,46.7445,space,7.5509,,0,0,0,6,1,175,bars/single006.png,bars/mask005.png,,,,,,,,,,,,,,,,,,,,,,,,,,,,,,,,,,,,,,,,,,,,,,,,,,,,,,,,,,,,,,,,
,,5f458cb79f9aa31a7d7ab81b,65af55fd304b05200d920863,2024-01-23_06h00.54.101,bars,2023.2.3,Win32,59.88023952,657b66ea316d21385b68909f,,,,,,,,,,,46.7448,47.744,47.7441,48.2442,48.2442,48.4941,48.4942,178,178,52.5107,space,4.009,,52.5107,55.544,space,3.0159,,0,1,1,0,1,150,bars/single000.png,bars/mask006.png,,,,,,,,,,,,,,,,,,,,,,,,,,,,,,,,,,,,,,,,,,,,,,,,,,,,,,,,,,,,,,,,
,,5f458cb79f9aa31a7d7ab81b,65af55fd304b05200d920863,2024-01-23_06h00.54.101,bars,2023.2.3,Win32,59.88023952,657b66ea316d21385b68909f,,,,,,,,,,,55.5444,56.5438,56.5438,57.0438,57.0438,57.2938,57.2938,35,35,59.4439,space,2.1373,,59.4439,60.3938,space,0.9453,,0,2,2,9,1,20,bars/single009.png,bars/mask006.png,,,,,,,,,,,,,,,,,,,,,,,,,,,,,,,,,,,,,,,,,,,,,,,,,,,,,,,,,,,,,,,,
,,5f458cb79f9aa31a7d7ab81b,65af55fd304b05200d920863,2024-01-23_06h00.54.101,bars,2023.2.3,Win32,59.88023952,657b66ea316d21385b68909f,,,,,,,,,,,60.3941,61.3936,61.3936,61.8937,61.8939,62.1437,62.1437,16,196,66.7438,space,4.5833,,66.7438,69.4604,space,2.704,,0,3,3,3,1,20,bars/single003.png,bars/mask005.png,,,,,,,,,,,,,,,,,,,,,,,,,,,,,,,,,,,,,,,,,,,,,,,,,,,,,,,,,,,,,,,,
,,5f458cb79f9aa31a7d7ab81b,65af55fd304b05200d920863,2024-01-23_06h00.54.101,bars,2023.2.3,Win32,59.88023952,657b66ea316d21385b68909f,,,,,,,,,,,69.4607,70.4601,70.4601,70.9601,70.9602,71.2101,71.2101,99,99,73.9436,space,2.7257,,73.9437,74.8101,space,0.848,,0,4,4,4,1,95,bars/single004.png,bars/mask004.png,,,,,,,,,,,,,,,,,,,,,,,,,,,,,,,,,,,,,,,,,,,,,,,,,,,,,,,,,,,,,,,,
,,5f458cb79f9aa31a7d7ab81b,65af55fd304b05200d920863,2024-01-23_06h00.54.101,bars,2023.2.3,Win32,59.88023952,657b66ea316d21385b68909f,,,,,,,,,,,74.8105,75.8102,75.8103,76.31,76.31,76.56,76.56,57,57,80.5268,space,3.9593,,80.5268,81.2433,space,0.7044,,0,5,5,5,1,55,bars/single005.png,bars/mask008.png,,,,,,,,,,,,,,,,,,,,,,,,,,,,,,,,,,,,,,,,,,,,,,,,,,,,,,,,,,,,,,,,
,,5f458cb79f9aa31a7d7ab81b,65af55fd304b05200d920863,2024-01-23_06h00.54.101,bars,2023.2.3,Win32,59.88023952,657b66ea316d21385b68909f,,,,,,,,,,,81.2436,82.2431,82.2432,82.7433,82.7433,82.9933,82.9933,141,141,85.7433,space,2.742,,85.7433,86.4431,space,0.6867,,0,6,6,2,1,145,bars/single002.png,bars/mask003.png,,,,,,,,,,,,,,,,,,,,,,,,,,,,,,,,,,,,,,,,,,,,,,,,,,,,,,,,,,,,,,,,
,,5f458cb79f9aa31a7d7ab81b,65af55fd304b05200d920863,2024-01-23_06h00.54.101,bars,2023.2.3,Win32,59.88023952,657b66ea316d21385b68909f,,,,,,,,,,,86.4438,87.4431,87.4432,87.9431,87.9431,88.1932,88.1933,24,24,90.8432,space,2.6468,,90.8433,91.5431,space,0.6853,,0,7,7,1,1,20,bars/single001.png,bars/mask006.png,,,,,,,,,,,,,,,,,,,,,,,,,,,,,,,,,,,,,,,,,,,,,,,,,,,,,,,,,,,,,,,,
,,5f458cb79f9aa31a7d7ab81b,65af55fd304b05200d920863,2024-01-23_06h00.54.101,bars,2023.2.3,Win32,59.88023952,657b66ea316d21385b68909f,,,,,,,,,,,91.5435,92.543,92.543,93.043,93.043,93.2931,93.2931,150,-30,97.1265,space,3.8178,,97.1266,97.7596,space,0.6092,,0,8,8,8,1,160,bars/single008.png,bars/mask004.png,,,,,,,,,,,,,,,,,,,,,,,,,,,,,,,,,,,,,,,,,,,,,,,,,,,,,,,,,,,,,,,,
,,5f458cb79f9aa31a7d7ab81b,65af55fd304b05200d920863,2024-01-23_06h00.54.101,bars,2023.2.3,Win32,59.88023952,657b66ea316d21385b68909f,,,,,,,,,,,97.76,98.7595,98.7595,99.2594,99.2594,99.5095,99.5095,49,49,102.0428,space,2.53,,102.043,102.6428,space,0.5951,,0,9,9,7,1,45,bars/single007.png,bars/mask009.png,,,,,,,,,,,,,,,,,,,,,,,,,,,,,,,,,,,,,,,,,,,,,,,,,,,,,,,,,,,,,,,,
,,5f458cb79f9aa31a7d7ab81b,65af55fd304b05200d920863,2024-01-23_06h00.54.101,bars,2023.2.3,Win32,59.88023952,657b66ea316d21385b68909f,,,,,,,,,,,,,,,,,,,,,,,,,,,,,,,,,,,,,102.6434,124.5762,space,21.9123,,,,,,,,,,,,,,,,,,,,,,,,,,,,,,,,,,,,,,,,,,,,,,,,,,,,,,,,,,,,
,,5f458cb79f9aa31a7d7ab81b,65af55fd304b05200d920863,2024-01-23_06h00.54.101,bars,2023.2.3,Win32,59.88023952,657b66ea316d21385b68909f,,,,,,,,,,,,,,,,,,,,,,,,,,,,,,,,,,,,,,,,,,124.5842,134.9593,left,10.3522,,134.9595,9,1,135.9587,0,0,0,0,1,9,1,9,2,,,,,,,,,,,,,,,,,,,,,,,,,,,,,,,,,,,,,,,,,
,,5f458cb79f9aa31a7d7ab81b,65af55fd304b05200d920863,2024-01-23_06h00.54.101,bars,2023.2.3,Win32,59.88023952,657b66ea316d21385b68909f,,,,,,,,,,,,,,,,,,,,,,,,,,,,,,,,,,,,,,,,,,135.9591,143.0587,left,7.097,,143.0587,10,1,144.0585,0,1,1,1,1,10,0,10,1,,,,,,,,,,,,,,,,,,,,,,,,,,,,,,,,,,,,,,,,,
,,5f458cb79f9aa31a7d7ab81b,65af55fd304b05200d920863,2024-01-23_06h00.54.101,bars,2023.2.3,Win32,59.88023952,657b66ea316d21385b68909f,,,,,,,,,,,,,,,,,,,,,,,,,,,,,,,,,,,,,,,,,,144.0651,148.5585,left,4.4865,,148.5586,10,1,149.5583,0,2,2,2,1,10,2,10,2,,,,,,,,,,,,,,,,,,,,,,,,,,,,,,,,,,,,,,,,,
,,5f458cb79f9aa31a7d7ab81b,65af55fd304b05200d920863,2024-01-23_06h00.54.101,bars,2023.2.3,Win32,59.88023952,657b66ea316d21385b68909f,,,,,,,,,,,,,,,,,,,,,,,,,,,,,,,,,,,,,,,,,,149.5648,152.1086,left,2.5307,,152.1086,7,1,153.1082,0,3,3,3,1,8,4,7,3,,,,,,,,,,,,,,,,,,,,,,,,,,,,,,,,,,,,,,,,,
,,5f458cb79f9aa31a7d7ab81b,65af55fd304b05200d920863,2024-01-23_06h00.54.101,bars,2023.2.3,Win32,59.88023952,657b66ea316d21385b68909f,,,,,,,,,,,,,,,,,,,,,,,,,,,,,,,,,,,,,,,,,,153.1145,155.6917,left,2.5653,,155.6918,5,1,156.6914,0,4,4,4,1,6,2,5,1,,,,,,,,,,,,,,,,,,,,,,,,,,,,,,,,,,,,,,,,,
,,5f458cb79f9aa31a7d7ab81b,65af55fd304b05200d920863,2024-01-23_06h00.54.101,bars,2023.2.3,Win32,59.88023952,657b66ea316d21385b68909f,,,,,,,,,,,,,,,,,,,,,,,,,,,,,,,,,,,,,,,,,,156.6918,158.2083,right,1.5079,,158.2084,4,2,159.208,0,5,5,5,1,4,4,4,4,,,,,,,,,,,,,,,,,,,,,,,,,,,,,,,,,,,,,,,,,
,,5f458cb79f9aa31a7d7ab81b,65af55fd304b05200d920863,2024-01-23_06h00.54.101,bars,2023.2.3,Win32,59.88023952,657b66ea316d21385b68909f,,,,,,,,,,,,,,,,,,,,,,,,,,,,,,,,,,,,,,,,,,159.2143,160.5583,right,1.3296,,160.5584,2,2,161.558,0,6,6,6,1,2,2,1,2,,,,,,,,,,,,,,,,,,,,,,,,,,,,,,,,,,,,,,,,,
,,5f458cb79f9aa31a7d7ab81b,65af55fd304b05200d920863,2024-01-23_06h00.54.101,bars,2023.2.3,Win32,59.88023952,657b66ea316d21385b68909f,,,,,,,,,,,,,,,,,,,,,,,,,,,,,,,,,,,,,,,,,,161.5584,162.8418,left,1.2813,,162.8418,0,1,163.8414,0,7,7,7,1,0,0,0,1,,,,,,,,,,,,,,,,,,,,,,,,,,,,,,,,,,,,,,,,,
,,5f458cb79f9aa31a7d7ab81b,65af55fd304b05200d920863,2024-01-23_06h00.54.101,bars,2023.2.3,Win32,59.88023952,657b66ea316d21385b68909f,,,,,,,,,,,,,,,,,,,,,,,,,,,,,,,,,,,,,,,,,,163.8416,165.4581,left,1.6064,,165.4582,1,1,166.4579,0,8,8,8,1,0,2,1,0,,,,,,,,,,,,,,,,,,,,,,,,,,,,,,,,,,,,,,,,,
,,5f458cb79f9aa31a7d7ab81b,65af55fd304b05200d920863,2024-01-23_06h00.54.101,bars,2023.2.3,Win32,59.88023952,657b66ea316d21385b68909f,,,,,,,,,,,,,,,,,,,,,,,,,,,,,,,,,,,,,,,,,,166.4583,168.6913,left,2.2303,,168.6913,2,1,169.6912,0,9,9,9,1,2,4,2,3,,,,,,,,,,,,,,,,,,,,,,,,,,,,,,,,,,,,,,,,,
,,5f458cb79f9aa31a7d7ab81b,65af55fd304b05200d920863,2024-01-23_06h00.54.101,bars,2023.2.3,Win32,59.88023952,657b66ea316d21385b68909f,,,,,,,,,,,,,,,,,,,,,,,,,,,,,,,,,,,,,,,,,,169.6975,171.6081,left,1.9031,,171.6081,0,1,172.6077,0,10,10,10,1,0,2,0,3,,,,,,,,,,,,,,,,,,,,,,,,,,,,,,,,,,,,,,,,,
,,5f458cb79f9aa31a7d7ab81b,65af55fd304b05200d920863,2024-01-23_06h00.54.101,bars,2023.2.3,Win32,59.88023952,657b66ea316d21385b68909f,,,,,,,,,,,,,,,,,,,,,,,,,,,,,,,,,,,,,,,,,,172.6081,173.1747,right,0.5518,,173.1747,3,2,174.1743,0,11,11,11,1,0,4,0,3,,,,,,,,,,,,,,,,,,,,,,,,,,,,,,,,,,,,,,,,,
,,5f458cb79f9aa31a7d7ab81b,65af55fd304b05200d920863,2024-01-23_06h00.54.101,bars,2023.2.3,Win32,59.88023952,657b66ea316d21385b68909f,,,,,,,,,,,,,,,,,,,,,,,,,,,,,,,,,,,,,,,,,,174.1747,174.8577,left,0.6666,,174.8578,1,1,175.8577,0,12,12,12,1,2,6,1,6,,,,,,,,,,,,,,,,,,,,,,,,,,,,,,,,,,,,,,,,,
,,5f458cb79f9aa31a7d7ab81b,65af55fd304b05200d920863,2024-01-23_06h00.54.101,bars,2023.2.3,Win32,59.88023952,657b66ea316d21385b68909f,,,,,,,,,,,,,,,,,,,,,,,,,,,,,,,,,,,,,,,,,,175.8586,176.1747,right,0.3093,,176.1747,3,2,177.1743,0,13,13,13,1,0,4,1,3,,,,,,,,,,,,,,,,,,,,,,,,,,,,,,,,,,,,,,,,,
,,5f458cb79f9aa31a7d7ab81b,65af55fd304b05200d920863,2024-01-23_06h00.54.101,bars,2023.2.3,Win32,59.88023952,657b66ea316d21385b68909f,,,,,,,,,,,,,,,,,,,,,,,,,,,,,,,,,,,,,,,,,,177.1746,177.5247,right,0.3452,,177.5247,7,2,178.5242,0,14,14,14,1,2,6,2,7,,,,,,,,,,,,,,,,,,,,,,,,,,,,,,,,,,,,,,,,,
,,5f458cb79f9aa31a7d7ab81b,65af55fd304b05200d920863,2024-01-23_06h00.54.101,bars,2023.2.3,Win32,59.88023952,657b66ea316d21385b68909f,,,,,,,,,,,,,,,,,,,,,,,,,,,,,,,,,,,,,,,,,,178.5246,178.9411,right,0.4033,,178.9412,9,2,179.9408,0,15,15,15,1,4,8,3,9,,,,,,,,,,,,,,,,,,,,,,,,,,,,,,,,,,,,,,,,,
,,5f458cb79f9aa31a7d7ab81b,65af55fd304b05200d920863,2024-01-23_06h00.54.101,bars,2023.2.3,Win32,59.88023952,657b66ea316d21385b68909f,,,,,,,,,,,,,,,,,,,,,,,,,,,,,,,,,,,,,,,,,,179.9411,180.2411,right,0.2841,,180.2411,7,2,181.2409,0,16,16,16,1,6,6,7,7,,,,,,,,,,,,,,,,,,,,,,,,,,,,,,,,,,,,,,,,,
,,5f458cb79f9aa31a7d7ab81b,65af55fd304b05200d920863,2024-01-23_06h00.54.101,bars,2023.2.3,Win32,59.88023952,657b66ea316d21385b68909f,,,,,,,,,,,,,,,,,,,,,,,,,,,,,,,,,,,,,,,,,,181.2412,181.5076,left,0.2547,,181.5077,9,1,182.5074,0,17,17,17,1,8,4,9,5,,,,,,,,,,,,,,,,,,,,,,,,,,,,,,,,,,,,,,,,,
,,5f458cb79f9aa31a7d7ab81b,65af55fd304b05200d920863,2024-01-23_06h00.54.101,bars,2023.2.3,Win32,59.88023952,657b66ea316d21385b68909f,,,,,,,,,,,,,,,,,,,,,,,,,,,,,,,,,,,,,,,,,,182.5078,183.5743,left,1.0521,,183.5744,5,1,184.574,0,18,18,18,1,6,2,5,1,,,,,,,,,,,,,,,,,,,,,,,,,,,,,,,,,,,,,,,,,
,,5f458cb79f9aa31a7d7ab81b,65af55fd304b05200d920863,2024-01-23_06h00.54.101,bars,2023.2.3,Win32,59.88023952,657b66ea316d21385b68909f,,,,,,,,,,,,,,,,,,,,,,,,,,,,,,,,,,,,,,,,,,184.5744,184.8077,right,0.2173,,184.8077,0,2,185.8074,0,19,19,19,1,8,0,7,0,,,,,,,,,,,,,,,,,,,,,,,,,,,,,,,,,,,,,,,,,
,,5f458cb79f9aa31a7d7ab81b,65af55fd304b05200d920863,2024-01-23_06h00.54.101,bars,2023.2.3,Win32,59.88023952,657b66ea316d21385b68909f,,,,,,,,,,,,,,,,,,,,,,,,,,,,,,,,,,,,,,,,,,,,,,,,,,,,,,,,,,,,185.8079,205.0908,space,19.2682,,,,,,,,,,,,,,,,,,,,,,,,,,,,,,,,,,,,,
,,5f458cb79f9aa31a7d7ab81b,65af55fd304b05200d920863,2024-01-23_06h00.54.101,bars,2023.2.3,Win32,59.88023952,657b66ea316d21385b68909f,,,,,,,,,,,207.2434,208.2402,,,208.7404,208.9902,,179,179,,,,,,,,,,,,,,,,bars/018.png,bars/mask001.png,,,,,,,,,,,,0,1,,,,,,,7,5,7,6,,,,,,205.0992,207.2407,space,2.1293,,208.2404,208.7404,208.9903,212.5906,space,3.5898,,212.5909,29,89,213.5904,213.5906,229.3404,space,15.7378,,0,0,0,0,1,150,90,,,,,,,,
,,5f458cb79f9aa31a7d7ab81b,65af55fd304b05200d920863,2024-01-23_06h00.54.101,bars,2023.2.3,Win32,59.88023952,657b66ea316d21385b68909f,,,,,,,,,,,229.3468,230.3397,,,230.8398,231.0899,,45,45,,,,,,,,,,,,,,,,bars/010.png,bars/mask009.png,,,,,,,,,,,,5,2,,,,,,,5,7,5,7,,,,,,,,,,,230.3397,230.8398,231.09,235.7397,space,4.6375,,235.7399,60,10,236.7395,236.7396,243.1894,space,6.4261,,0,1,1,1,1,165,55,,,,,,,,
,,5f458cb79f9aa31a7d7ab81b,65af55fd304b05200d920863,2024-01-23_06h00.54.101,bars,2023.2.3,Win32,59.88023952,657b66ea316d21385b68909f,,,,,,,,,,,243.1958,244.1894,,,244.6894,244.9393,,141,141,,,,,,,,,,,,,,,,bars/034.png,bars/mask002.png,,,,,,,,,,,,2,1,,,,,,,3,5,4,4,,,,,,,,,,,244.1894,244.6894,244.9394,247.4896,space,2.548,,247.4897,16,76,248.4893,248.4894,252.0561,space,3.5401,,0,2,2,2,1,125,65,,,,,,,,
,,5f458cb79f9aa31a7d7ab81b,65af55fd304b05200d920863,2024-01-23_06h00.54.101,bars,2023.2.3,Win32,59.88023952,657b66ea316d21385b68909f,,,,,,,,,,,252.0626,253.0558,,,253.5559,253.8059,,6,6,,,,,,,,,,,,,,,,bars/040.png,bars/mask003.png,,,,,,,,,,,,3,2,,,,,,,1,3,2,3,,,,,,,,,,,253.0558,253.5559,253.8059,256.1058,space,2.2839,,256.1059,46,1,257.1057,257.1058,259.3891,space,2.2666,,0,3,3,3,1,140,5,,,,,,,,
,,5f458cb79f9aa31a7d7ab81b,65af55fd304b05200d920863,2024-01-23_06h00.54.101,bars,2023.2.3,Win32,59.88023952,657b66ea316d21385b68909f,,,,,,,,,,,259.3952,260.389,,,260.889,261.1389,,56,56,,,,,,,,,,,,,,,,bars/029.png,bars/mask002.png,,,,,,,,,,,,4,2,,,,,,,3,5,2,6,,,,,,,,,,,260.389,260.8889,261.139,262.0724,space,0.9254,,262.0725,34,11,263.0724,263.0724,264.9558,space,1.8786,,0,4,4,4,1,90,45,,,,,,,,
,,5f458cb79f9aa31a7d7ab81b,65af55fd304b05200d920863,2024-01-23_06h00.54.101,bars,2023.2.3,Win32,59.88023952,657b66ea316d21385b68909f,,,,,,,,,,,264.956,265.9554,,,266.4555,266.7055,,121,121,,,,,,,,,,,,,,,,bars/030.png,bars/mask005.png,,,,,,,,,,,,1,1,,,,,,,1,3,3,2,,,,,,,,,,,265.9555,266.4555,266.7056,268.6557,space,1.9338,,268.6557,19,56,269.6555,269.6555,270.5389,space,0.8619,,0,5,5,5,1,140,65,,,,,,,,
,,5f458cb79f9aa31a7d7ab81b,65af55fd304b05200d920863,2024-01-23_06h00.54.101,bars,2023.2.3,Win32,59.88023952,657b66ea316d21385b68909f,,,,,,,,,,,270.5392,271.5387,,,272.0388,272.2887,,50,50,,,,,,,,,,,,,,,,bars/010.png,bars/mask008.png,,,,,,,,,,,,1,2,,,,,,,3,1,2,1,,,,,,,,,,,271.5388,272.0388,272.2887,275.1888,space,2.8871,,275.1889,65,5,276.1886,276.1887,277.3223,space,1.1111,,0,6,6,6,1,165,55,,,,,,,,
,,5f458cb79f9aa31a7d7ab81b,65af55fd304b05200d920863,2024-01-23_06h00.54.101,bars,2023.2.3,Win32,59.88023952,657b66ea316d21385b68909f,,,,,,,,,,,277.3227,278.3218,,,278.822,279.0719,,90,90,,,,,,,,,,,,,,,,bars/022.png,bars/mask007.png,,,,,,,,,,,,5,1,,,,,,,5,0,6,0,,,,,,,,,,,278.3219,278.8219,279.0719,282.9718,space,3.8876,,282.972,5,70,283.9719,283.972,284.6885,space,0.6972,,0,7,7,7,1,95,20,,,,,,,,
,,5f458cb79f9aa31a7d7ab81b,65af55fd304b05200d920863,2024-01-23_06h00.54.101,bars,2023.2.3,Win32,59.88023952,657b66ea316d21385b68909f,,,,,,,,,,,284.6888,285.6886,,,286.1883,286.4384,,10,190,,,,,,,,,,,,,,,,bars/035.png,bars/mask001.png,,,,,,,,,,,,4,1,,,,,,,7,0,7,0,,,,,,,,,,,285.6886,286.1883,286.4384,289.3383,space,2.8974,,289.3384,15,50,290.3382,290.3383,291.5884,space,1.2302,,0,8,8,8,1,175,60,,,,,,,,
,,5f458cb79f9aa31a7d7ab81b,65af55fd304b05200d920863,2024-01-23_06h00.54.101,bars,2023.2.3,Win32,59.88023952,657b66ea316d21385b68909f,,,,,,,,,,,291.5888,292.5882,,,293.0884,293.3381,,134,-46,,,,,,,,,,,,,,,,bars/005.png,bars/mask004.png,,,,,,,,,,,,1,2,,,,,,,9,0,9,1,,,,,,,,,,,292.5882,293.0883,293.3382,296.9549,space,3.6056,,296.955,56,6,297.9547,297.9548,298.6548,space,0.6839,,0,9,9,9,1,10,140,,,,,,,,
,,5f458cb79f9aa31a7d7ab81b,65af55fd304b05200d920863,2024-01-23_06h00.54.101,bars,2023.2.3,Win32,59.88023952,657b66ea316d21385b68909f,,,,,,,,,,,298.6552,299.6548,,,300.1549,300.4046,,95,-85,,,,,,,,,,,,,,,,bars/002.png,bars/mask001.png,,,,,,,,,,,,1,2,,,,,,,10,2,9,1,,,,,,,,,,,299.6548,300.1548,300.4046,304.9213,space,4.5005,,304.9214,35,10,305.9212,305.9212,307.138,space,1.1921,,0,10,10,10,1,130,85,,,,,,,,
,,5f458cb79f9aa31a7d7ab81b,65af55fd304b05200d920863,2024-01-23_06h00.54.101,bars,2023.2.3,Win32,59.88023952,657b66ea316d21385b68909f,,,,,,,,,,,307.1384,308.1379,,,308.638,308.8879,,59,59,,,,,,,,,,,,,,,,bars/047.png,bars/mask002.png,,,,,,,,,,,,3,2,,,,,,,8,4,8,4,,,,,,,,,,,308.1379,308.638,308.8879,310.8212,space,1.9285,,310.8213,44,11,311.8212,311.8212,312.4715,space,0.6349,,0,11,11,11,1,15,70,,,,,,,,
,,5f458cb79f9aa31a7d7ab81b,65af55fd304b05200d920863,2024-01-23_06h00.54.101,bars,2023.2.3,Win32,59.88023952,657b66ea316d21385b68909f,,,,,,,,,,,312.4718,313.4711,,,313.971,314.221,,45,225,,,,,,,,,,,,,,,,bars/003.png,bars/mask006.png,,,,,,,,,,,,2,1,,,,,,,6,6,6,7,,,,,,,,,,,313.4712,313.971,314.2211,317.621,space,3.3942,,317.6211,20,85,318.621,318.6211,319.3376,space,0.6976,,0,12,12,12,1,25,140,,,,,,,,
,,5f458cb79f9aa31a7d7ab81b,65af55fd304b05200d920863,2024-01-23_06h00.54.101,bars,2023.2.3,Win32,59.88023952,657b66ea316d21385b68909f,,,,,,,,,,,319.3381,320.3376,,,320.8376,321.0876,,65,65,,,,,,,,,,,,,,,,bars/007.png,bars/mask005.png,,,,,,,,,,,,6,2,,,,,,,8,8,8,9,,,,,,,,,,,320.3376,320.8375,321.0876,323.0876,space,1.9837,,323.0877,70,10,324.0874,324.0875,324.8708,space,0.7593,,0,13,13,13,1,175,55,,,,,,,,
,,5f458cb79f9aa31a7d7ab81b,65af55fd304b05200d920863,2024-01-23_06h00.54.101,bars,2023.2.3,Win32,59.88023952,657b66ea316d21385b68909f,,,,,,,,,,,324.8712,325.8707,,,326.3709,326.6208,,105,105,,,,,,,,,,,,,,,,bars/045.png,bars/mask005.png,,,,,,,,,,,,8,1,,,,,,,10,6,9,6,,,,,,,,,,,325.8707,326.3709,326.6208,329.3375,space,2.7001,,329.3375,5,85,330.3373,330.3374,330.954,space,0.5963,,0,14,14,14,1,100,10,,,,,,,,
,,5f458cb79f9aa31a7d7ab81b,65af55fd304b05200d920863,2024-01-23_06h00.54.101,bars,2023.2.3,Win32,59.88023952,657b66ea316d21385b68909f,,,,,,,,,,,330.9544,331.954,,,332.454,332.704,,95,95,,,,,,,,,,,,,,,,bars/027.png,bars/mask002.png,,,,,,,,,,,,5,1,,,,,,,10,4,10,3,,,,,,,,,,,331.954,332.4539,332.704,336.9873,space,4.2797,,336.9873,15,45,337.9871,337.9871,338.5541,space,0.5432,,0,15,15,15,1,110,50,,,,,,,,
,,5f458cb79f9aa31a7d7ab81b,65af55fd304b05200d920863,2024-01-23_06h00.54.101,bars,2023.2.3,Win32,59.88023952,657b66ea316d21385b68909f,,,,,,,,,,,338.5544,339.5537,,,340.0538,340.3039,,43,43,,,,,,,,,,,,,,,,bars/047.png,bars/mask000.png,,,,,,,,,,,,0,2,,,,,,,10,6,10,5,,,,,,,,,,,339.5538,340.0538,340.3039,342.4539,space,2.1355,,342.454,28,27,343.4539,343.4539,345.187,space,1.7201,,0,16,16,16,1,15,70,,,,,,,,
,,5f458cb79f9aa31a7d7ab81b,65af55fd304b05200d920863,2024-01-23_06h00.54.101,bars,2023.2.3,Win32,59.88023952,657b66ea316d21385b68909f,,,,,,,,,,,345.1873,346.187,,,346.6869,346.937,,86,86,,,,,,,,,,,,,,,,bars/010.png,bars/mask002.png,,,,,,,,,,,,0,2,,,,,,,10,4,10,5,,,,,,,,,,,346.187,346.6869,346.937,350.4369,space,3.4867,,350.437,79,31,351.4368,351.4368,352.337,space,0.8842,,0,17,17,17,1,165,55,,,,,,,,
,,5f458cb79f9aa31a7d7ab81b,65af55fd304b05200d920863,2024-01-23_06h00.54.101,bars,2023.2.3,Win32,59.88023952,657b66ea316d21385b68909f,,,,,,,,,,,352.3374,353.3367,,,353.8368,354.0867,,87,87,,,,,,,,,,,,,,,,bars/013.png,bars/mask004.png,,,,,,,,,,,,6,1,,,,,,,10,6,10,7,,,,,,,,,,,353.3368,353.8368,354.0868,355.0201,space,0.9293,,355.0202,12,77,356.0201,356.0201,356.6536,space,0.6166,,0,18,18,18,1,75,10,,,,,,,,
,,5f458cb79f9aa31a7d7ab81b,65af55fd304b05200d920863,2024-01-23_06h00.54.101,bars,2023.2.3,Win32,59.88023952,657b66ea316d21385b68909f,,,,,,,,,,,356.6539,357.6532,,,358.1533,358.4034,,36,216,,,,,,,,,,,,,,,,bars/005.png,bars/mask000.png,,,,,,,,,,,,1,1,,,,,,,10,8,10,9,,,,,,,,,,,357.6532,358.1533,358.4034,361.8368,space,3.4284,,361.8368,26,76,362.8365,362.8366,363.3867,space,0.532,,0,19,19,19,1,10,140,,,,,,,,
,,5f458cb79f9aa31a7d7ab81b,65af55fd304b05200d920863,2024-01-23_06h00.54.101,bars,2023.2.3,Win32,59.88023952,657b66ea316d21385b68909f,,,,,,,,,,,363.3871,364.3865,,,364.8865,365.1366,,42,222,,,,,,,,,,,,,,,,bars/006.png,bars/mask004.png,,,,,,,,,,,,5,1,,,,,,,8,10,6,9,,,,,,,,,,,364.3866,364.8865,365.1366,368.9864,space,3.8389,,368.9866,7,58,369.9864,369.9865,370.5701,space,0.5742,,0,20,20,20,1,35,100,,,,,,,,
,,5f458cb79f9aa31a7d7ab81b,65af55fd304b05200d920863,2024-01-23_06h00.54.101,bars,2023.2.3,Win32,59.88023952,657b66ea316d21385b68909f,,,,,,,,,,,370.5704,371.5697,,,372.0699,372.3197,,105,105,,,,,,,,,,,,,,,,bars/006.png,bars/mask003.png,,,,,,,,,,,,8,2,,,,,,,6,10,6,9,,,,,,,,,,,371.5698,372.0699,372.3197,376.2031,space,3.8801,,376.2031,70,5,377.2028,377.2029,377.7696,space,0.5415,,0,21,21,21,1,35,100,,,,,,,,
,,5f458cb79f9aa31a7d7ab81b,65af55fd304b05200d920863,2024-01-23_06h00.54.101,bars,2023.2.3,Win32,59.88023952,657b66ea316d21385b68909f,,,,,,,,,,,377.7701,378.7696,,,379.2696,379.5195,,147,147,,,,,,,,,,,,,,,,bars/038.png,bars/mask005.png,,,,,,,,,,,,1,1,,,,,,,4,8,3,9,,,,,,,,,,,378.7697,379.2696,379.5196,380.9028,space,1.3682,,380.9029,18,77,381.9029,381.9029,382.3695,space,0.4414,,0,22,22,22,1,165,70,,,,,,,,
,,5f458cb79f9aa31a7d7ab81b,65af55fd304b05200d920863,2024-01-23_06h00.54.101,bars,2023.2.3,Win32,59.88023952,657b66ea316d21385b68909f,,,,,,,,,,,382.3699,383.3693,,,383.8694,384.1194,,66,66,,,,,,,,,,,,,,,,bars/029.png,bars/mask000.png,,,,,,,,,,,,3,2,,,,,,,6,10,5,10,,,,,,,,,,,383.3694,383.8694,384.1194,385.1194,space,0.9924,,385.1195,24,21,386.1194,386.1194,386.7694,space,0.637,,0,23,23,23,1,90,45,,,,,,,,
,,5f458cb79f9aa31a7d7ab81b,65af55fd304b05200d920863,2024-01-23_06h00.54.101,bars,2023.2.3,Win32,59.88023952,657b66ea316d21385b68909f,,,,,,,,,,,386.7698,387.7694,,,388.2693,388.5193,,93,93,,,,,,,,,,,,,,,,bars/012.png,bars/mask009.png,,,,,,,,,,,,7,1,,,,,,,8,10,8,10,,,,,,,,,,,387.7694,388.2693,388.5194,391.4025,space,2.8723,,391.4025,3,78,392.4023,392.4023,392.8525,space,0.4372,,0,24,24,24,1,90,15,,,,,,,,
,,5f458cb79f9aa31a7d7ab81b,65af55fd304b05200d920863,2024-01-23_06h00.54.101,bars,2023.2.3,Win32,59.88023952,657b66ea316d21385b68909f,,,,,,,,,,,392.8529,393.8526,,,394.3527,394.6025,,169,169,,,,,,,,,,,,,,,,bars/018.png,bars/mask009.png,,,,,,,,,,,,3,1,,,,,,,6,8,7,7,,,,,,,,,,,393.8526,394.3527,394.6025,397.2026,space,2.5892,,397.2026,19,79,398.2024,398.2024,398.7525,space,0.525,,0,25,25,25,1,150,90,,,,,,,,
,,5f458cb79f9aa31a7d7ab81b,65af55fd304b05200d920863,2024-01-23_06h00.54.101,bars,2023.2.3,Win32,59.88023952,657b66ea316d21385b68909f,,,,,,,,,,,398.7529,399.7523,,,400.2523,400.5024,,89,-91,,,,,,,,,,,,,,,,bars/013.png,bars/mask007.png,,,,,,,,,,,,2,1,,,,,,,4,6,4,6,,,,,,,,,,,399.7523,400.2523,400.5024,404.7023,space,4.1855,,404.7024,14,79,405.7022,405.7022,406.2023,space,0.482,,0,26,26,26,1,75,10,,,,,,,,
,,5f458cb79f9aa31a7d7ab81b,65af55fd304b05200d920863,2024-01-23_06h00.54.101,bars,2023.2.3,Win32,59.88023952,657b66ea316d21385b68909f,,,,,,,,,,,406.2027,407.2022,,,407.7022,407.9522,,119,119,,,,,,,,,,,,,,,,bars/008.png,bars/mask000.png,,,,,,,,,,,,2,1,,,,,,,2,8,3,7,,,,,,,,,,,407.2022,407.7022,407.9522,410.1022,space,2.1355,,410.1022,9,61,411.102,411.1021,411.569,space,0.4487,,0,27,27,27,1,110,0,,,,,,,,
,,5f458cb79f9aa31a7d7ab81b,65af55fd304b05200d920863,2024-01-23_06h00.54.101,bars,2023.2.3,Win32,59.88023952,657b66ea316d21385b68909f,,,,,,,,,,,411.5693,412.5688,,,413.0688,413.3186,,142,142,,,,,,,,,,,,,,,,bars/034.png,bars/mask002.png,,,,,,,,,,,,0,1,,,,,,,0,10,0,10,,,,,,,,,,,412.5688,413.0688,413.3187,415.2855,space,1.9577,,415.2855,17,77,416.2853,416.2853,416.8855,space,0.5791,,0,28,28,28,1,125,65,,,,,,,,
,,5f458cb79f9aa31a7d7ab81b,65af55fd304b05200d920863,2024-01-23_06h00.54.101,bars,2023.2.3,Win32,59.88023952,657b66ea316d21385b68909f,,,,,,,,,,,416.8858,417.8852,,,418.3853,418.6352,,26,26,,,,,,,,,,,,,,,,bars/036.png,bars/mask009.png,,,,,,,,,,,,7,2,,,,,,,0,8,1,9,,,,,,,,,,,417.8853,418.3853,418.6353,419.9853,space,1.3336,,419.9853,61,6,420.9851,420.9852,422.2353,space,1.2419,,0,29,29,29,1,145,20,,,,,,,,
,,5f458cb79f9aa31a7d7ab81b,65af55fd304b05200d920863,2024-01-23_06h00.54.101,bars,2023.2.3,Win32,59.88023952,657b66ea316d21385b68909f,,,,,,,,,,,422.2357,423.2351,,,423.7352,423.9853,,52,52,,,,,,,,,,,,,,,,bars/017.png,bars/mask001.png,,,,,,,,,,,,4,2,,,,,,,0,6,0,5,,,,,,,,,,,423.2352,423.7352,423.9853,426.0352,space,2.0465,,426.0352,87,7,427.035,427.0351,427.5352,space,0.483,,0,30,30,30,1,145,45,,,,,,,,
,,5f458cb79f9aa31a7d7ab81b,65af55fd304b05200d920863,2024-01-23_06h00.54.101,bars,2023.2.3,Win32,59.88023952,657b66ea316d21385b68909f,,,,,,,,,,,427.5355,428.535,,,429.0351,429.2848,,135,135,,,,,,,,,,,,,,,,bars/049.png,bars/mask006.png,,,,,,,,,,,,3,2,,,,,,,2,8,3,9,,,,,,,,,,,428.5351,429.0351,429.2849,430.2017,space,0.901,,430.2017,25,20,431.2016,431.2016,431.585,space,0.3735,,0,31,31,31,1,160,115,,,,,,,,
,,5f458cb79f9aa31a7d7ab81b,65af55fd304b05200d920863,2024-01-23_06h00.54.101,bars,2023.2.3,Win32,59.88023952,657b66ea316d21385b68909f,,,,,,,,,,,431.5854,432.5849,,,433.085,433.3348,,110,110,,,,,,,,,,,,,,,,bars/045.png,bars/mask009.png,,,,,,,,,,,,0,1,,,,,,,0,10,0,9,,,,,,,,,,,432.5849,433.085,433.3349,435.4849,space,2.1372,,435.4851,10,80,436.4848,436.4848,437.285,space,0.7854,,0,32,32,32,1,100,10,,,,,,,,
,,5f458cb79f9aa31a7d7ab81b,65af55fd304b05200d920863,2024-01-23_06h00.54.101,bars,2023.2.3,Win32,59.88023952,657b66ea316d21385b68909f,,,,,,,,,,,437.2856,438.2847,,,438.7848,439.0348,,74,74,,,,,,,,,,,,,,,,bars/014.png,bars/mask007.png,,,,,,,,,,,,2,1,,,,,,,2,10,3,10,,,,,,,,,,,438.2848,438.7848,439.0348,441.7014,space,2.6607,,441.7014,6,74,442.7014,442.7014,443.1348,space,0.4105,,0,33,33,33,1,80,0,,,,,,,,
,,5f458cb79f9aa31a7d7ab81b,65af55fd304b05200d920863,2024-01-23_06h00.54.101,bars,2023.2.3,Win32,59.88023952,657b66ea316d21385b68909f,,,,,,,,,,,443.1352,444.1346,,,444.6347,444.8847,,77,77,,,,,,,,,,,,,,,,bars/047.png,bars/mask009.png,,,,,,,,,,,,8,2,,,,,,,0,10,0,10,,,,,,,,,,,444.1347,444.6347,444.8847,449.0013,space,4.107,,449.0014,62,7,450.0012,450.0014,450.6346,space,0.6214,,0,34,34,34,1,15,70,,,,,,,,
,,5f458cb79f9aa31a7d7ab81b,65af55fd304b05200d920863,2024-01-23_06h00.54.101,bars,2023.2.3,Win32,59.88023952,657b66ea316d21385b68909f,,,,,,,,,,,450.635,451.6344,,,452.1345,452.3845,,148,-32,,,,,,,,,,,,,,,,bars/000.png,bars/mask004.png,,,,,,,,,,,,9,2,,,,,,,2,10,2,10,,,,,,,,,,,451.6344,452.1345,452.3846,455.4511,space,3.0631,,455.4512,72,3,456.451,456.4511,457.0177,space,0.5491,,0,35,35,35,1,40,145,,,,,,,,
,,5f458cb79f9aa31a7d7ab81b,65af55fd304b05200d920863,2024-01-23_06h00.54.101,bars,2023.2.3,Win32,59.88023952,657b66ea316d21385b68909f,,,,,,,,,,,457.0181,458.0176,,,458.5178,458.7676,,90,90,,,,,,,,,,,,,,,,bars/022.png,bars/mask008.png,,,,,,,,,,,,0,1,,,,,,,0,10,0,10,,,,,,,,,,,458.0176,458.5178,458.7676,461.8176,space,3.0334,,461.8177,5,70,462.8175,462.8176,463.401,space,0.5575,,0,36,36,36,1,95,20,,,,,,,,
,,5f458cb79f9aa31a7d7ab81b,65af55fd304b05200d920863,2024-01-23_06h00.54.101,bars,2023.2.3,Win32,59.88023952,657b66ea316d21385b68909f,,,,,,,,,,,463.4014,464.4008,,,464.9009,465.1508,,36,36,,,,,,,,,,,,,,,,bars/036.png,bars/mask001.png,,,,,,,,,,,,5,2,,,,,,,0,10,1,10,,,,,,,,,,,464.4009,464.9008,465.1509,468.4841,space,3.3211,,468.4841,71,16,469.4841,469.4842,469.9509,space,0.4429,,0,37,37,37,1,145,20,,,,,,,,
,,5f458cb79f9aa31a7d7ab81b,65af55fd304b05200d920863,2024-01-23_06h00.54.101,bars,2023.2.3,Win32,59.88023952,657b66ea316d21385b68909f,,,,,,,,,,,469.9512,470.9506,,,471.4507,471.7009,,120,120,,,,,,,,,,,,,,,,bars/003.png,bars/mask000.png,,,,,,,,,,,,3,2,,,,,,,2,8,1,9,,,,,,,,,,,470.9507,471.4506,471.7009,476.8175,space,5.1005,,476.8175,85,20,477.8173,477.8173,478.4506,space,0.6088,,0,38,38,38,1,25,140,,,,,,,,
,,5f458cb79f9aa31a7d7ab81b,65af55fd304b05200d920863,2024-01-23_06h00.54.101,bars,2023.2.3,Win32,59.88023952,657b66ea316d21385b68909f,,,,,,,,,,,478.451,479.4504,,,479.9505,480.2006,,132,132,,,,,,,,,,,,,,,,bars/030.png,bars/mask006.png,,,,,,,,,,,,3,1,,,,,,,4,10,4,10,,,,,,,,,,,479.4505,479.9505,480.2006,481.1172,space,0.9114,,481.1172,8,67,482.117,482.117,482.6837,space,0.5596,,0,39,39,39,1,140,65,,,,,,,,
,,5f458cb79f9aa31a7d7ab81b,65af55fd304b05200d920863,2024-01-23_06h00.54.101,bars,2023.2.3,Win32,59.88023952,657b66ea316d21385b68909f,,,,,,,,,,,482.684,483.6838,,,484.1837,484.4339,,153,153,,,,,,,,,,,,,,,,bars/042.png,bars/mask008.png,,,,,,,,,,,,4,1,,,,,,,6,10,6,10,,,,,,,,,,,483.6838,484.1836,484.434,487.2336,space,2.7832,,487.2337,8,78,488.2336,488.2337,488.717,space,0.4626,,0,40,40,40,1,145,75,,,,,,,,
,,5f458cb79f9aa31a7d7ab81b,65af55fd304b05200d920863,2024-01-23_06h00.54.101,bars,2023.2.3,Win32,59.88023952,657b66ea316d21385b68909f,,,,,,,,,,,488.7174,489.7169,,,490.2169,490.4669,,53,53,,,,,,,,,,,,,,,,bars/019.png,bars/mask004.png,,,,,,,,,,,,7,1,,,,,,,8,10,9,10,,,,,,,,,,,489.7169,490.2169,490.4669,492.4669,space,1.9889,,492.467,8,52,493.4668,493.467,493.9838,space,0.5019,,0,41,41,41,1,45,105,,,,,,,,
,,5f458cb79f9aa31a7d7ab81b,65af55fd304b05200d920863,2024-01-23_06h00.54.101,bars,2023.2.3,Win32,59.88023952,657b66ea316d21385b68909f,,,,,,,,,,,493.9841,494.9835,,,495.4835,495.7335,,100,100,,,,,,,,,,,,,,,,bars/031.png,bars/mask008.png,,,,,,,,,,,,1,1,,,,,,,6,10,4,10,,,,,,,,,,,494.9835,495.4835,495.7335,497.6167,space,1.8743,,497.6168,20,65,498.6167,498.6168,499.1168,space,0.4934,,0,42,42,42,1,120,35,,,,,,,,
,,5f458cb79f9aa31a7d7ab81b,65af55fd304b05200d920863,2024-01-23_06h00.54.101,bars,2023.2.3,Win32,59.88023952,657b66ea316d21385b68909f,,,,,,,,,,,499.117,500.1166,,,500.6166,500.8667,,39,219,,,,,,,,,,,,,,,,bars/028.png,bars/mask004.png,,,,,,,,,,,,5,1,,,,,,,8,8,6,8,,,,,,,,,,,500.1166,500.6166,500.8667,504.65,space,3.7735,,504.65,6,81,505.65,505.65,506.05,space,0.3822,,0,43,43,43,1,45,120,,,,,,,,
,,5f458cb79f9aa31a7d7ab81b,65af55fd304b05200d920863,2024-01-23_06h00.54.101,bars,2023.2.3,Win32,59.88023952,657b66ea316d21385b68909f,,,,,,,,,,,506.0503,507.0498,,,507.5499,507.7998,,61,61,,,,,,,,,,,,,,,,bars/044.png,bars/mask006.png,,,,,,,,,,,,3,1,,,,,,,6,10,5,9,,,,,,,,,,,507.0499,507.5498,507.7999,509.8834,space,2.0799,,509.8834,14,86,510.883,510.8831,511.3166,space,0.4191,,0,44,44,44,1,75,155,,,,,,,,
,,5f458cb79f9aa31a7d7ab81b,65af55fd304b05200d920863,2024-01-23_06h00.54.101,bars,2023.2.3,Win32,59.88023952,657b66ea316d21385b68909f,,,,,,,,,,,511.3169,512.3165,,,512.8165,513.0664,,8,188,,,,,,,,,,,,,,,,bars/014.png,bars/mask007.png,,,,,,,,,,,,6,2,,,,,,,4,8,3,8,,,,,,,,,,,512.3165,512.8164,513.0665,514.9663,space,1.8855,,514.9664,72,8,515.9664,515.9664,516.483,space,0.504,,0,45,45,45,1,80,0,,,,,,,,
,,5f458cb79f9aa31a7d7ab81b,65af55fd304b05200d920863,2024-01-23_06h00.54.101,bars,2023.2.3,Win32,59.88023952,657b66ea316d21385b68909f,,,,,,,,,,,516.4834,517.4829,,,517.9829,518.2328,,2,2,,,,,,,,,,,,,,,,bars/048.png,bars/mask005.png,,,,,,,,,,,,5,2,,,,,,,2,6,3,7,,,,,,,,,,,517.483,517.9829,518.2329,520.4996,space,2.2548,,520.4997,48,7,521.4994,521.4995,521.9163,space,0.397,,0,46,46,46,1,50,175,,,,,,,,
,,5f458cb79f9aa31a7d7ab81b,65af55fd304b05200d920863,2024-01-23_06h00.54.101,bars,2023.2.3,Win32,59.88023952,657b66ea316d21385b68909f,,,,,,,,,,,521.9167,522.916,,,523.4161,523.6663,,104,104,,,,,,,,,,,,,,,,bars/039.png,bars/mask003.png,,,,,,,,,,,,4,2,,,,,,,4,4,4,4,,,,,,,,,,,522.916,523.4161,523.6664,526.6494,space,2.9671,,526.6494,71,1,527.6492,527.6493,528.3995,space,0.7346,,0,47,47,47,1,175,105,,,,,,,,
,,5f458cb79f9aa31a7d7ab81b,65af55fd304b05200d920863,2024-01-23_06h00.54.101,bars,2023.2.3,Win32,59.88023952,657b66ea316d21385b68909f,,,,,,,,,,,528.3997,529.3993,,,529.8994,530.1493,,116,116,,,,,,,,,,,,,,,,bars/023.png,bars/mask005.png,,,,,,,,,,,,3,2,,,,,,,2,2,3,3,,,,,,,,,,,529.3993,529.8993,530.1494,533.016,space,2.8583,,533.016,84,1,534.0158,534.0159,535.6992,space,1.6656,,0,48,48,48,1,20,115,,,,,,,,
,,5f458cb79f9aa31a7d7ab81b,65af55fd304b05200d920863,2024-01-23_06h00.54.101,bars,2023.2.3,Win32,59.88023952,657b66ea316d21385b68909f,,,,,,,,,,,535.6996,536.6991,,,537.1991,537.4493,,18,198,,,,,,,,,,,,,,,,bars/012.png,bars/mask003.png,,,,,,,,,,,,0,2,,,,,,,4,0,3,0,,,,,,,,,,,536.6991,537.1991,537.4493,539.2491,space,1.7837,,539.2491,72,3,540.2491,540.2491,540.8325,space,0.5674,,0,49,49,49,1,90,15,,,,,,,,
,,5f458cb79f9aa31a7d7ab81b,65af55fd304b05200d920863,2024-01-23_06h00.54.101,bars,2023.2.3,Win32,59.88023952,657b66ea316d21385b68909f,,,,,,,,,,,,,,,,,,,,,,,,,,,,,,,,,,,,,,,,,,,,,,,,,,,,,,,,,,,,,,,,,,,,,,,,,,,,,,,,,,,,,,,,,,,,,540.8332,600.8314,0,0,0,0,1,sequence_tables/blk007.csv
,,5f458cb79f9aa31a7d7ab81b,65af55fd304b05200d920863,2024-01-23_06h00.54.101,bars,2023.2.3,Win32,59.88023952,657b66ea316d21385b68909f,,,,,,,,,,,620.3903,621.3804,,,621.8805,622.1305,,106,106,,,,,,,,,,,,,,,,bars/025.png,bars/mask008.png,,,,,,,,,,,,6,1,,,,,,,5,7,6,8,,,,,,600.8384,620.3806,space,19.5294,,621.3805,621.8805,622.1305,624.4304,space,2.2935,,624.4305,1,66,625.4304,625.4304,625.4378,,,,0,0,0,0,1,105,40,,,,,,,,
,,5f458cb79f9aa31a7d7ab81b,65af55fd304b05200d920863,2024-01-23_06h00.54.101,bars,2023.2.3,Win32,59.88023952,657b66ea316d21385b68909f,,,,,,,,,,,625.438,626.4303,,,626.9304,627.1803,,11,191,,,,,,,,,,,,,,,,bars/007.png,bars/mask000.png,,,,,,,,,,,,2,1,,,,,,,7,9,5,8,,,,,,,,,,,626.4304,626.9304,627.1803,630.4636,space,3.2673,,630.4637,16,44,631.4635,631.4635,631.47,,,,0,1,1,1,1,175,55,,,,,,,,
,,5f458cb79f9aa31a7d7ab81b,65af55fd304b05200d920863,2024-01-23_06h00.54.101,bars,2023.2.3,Win32,59.88023952,657b66ea316d21385b68909f,,,,,,,,,,,631.4702,632.4635,,,632.9636,633.2136,,56,56,,,,,,,,,,,,,,,,bars/010.png,bars/mask001.png,,,,,,,,,,,,10,2,,,,,,,5,10,4,10,,,,,,,,,,,632.4635,632.9635,633.2136,634.7302,space,1.507,,634.7303,71,1,635.7302,635.7302,635.7319,,,,0,2,2,2,1,165,55,,,,,,,,
,,5f458cb79f9aa31a7d7ab81b,65af55fd304b05200d920863,2024-01-23_06h00.54.101,bars,2023.2.3,Win32,59.88023952,657b66ea316d21385b68909f,,,,,,,,,,,635.7321,636.7301,,,637.2301,637.4801,,88,88,,,,,,,,,,,,,,,,bars/019.png,bars/mask006.png,,,,,,,,,,,,4,2,,,,,,,3,10,2,9,,,,,,,,,,,636.7301,637.23,637.4801,639.1803,space,1.6963,,639.1803,43,17,640.18,640.18,640.1807,,,,0,3,3,3,1,45,105,,,,,,,,
,,5f458cb79f9aa31a7d7ab81b,65af55fd304b05200d920863,2024-01-23_06h00.54.101,bars,2023.2.3,Win32,59.88023952,657b66ea316d21385b68909f,,,,,,,,,,,640.1809,641.18,,,641.6799,641.9299,,162,162,,,,,,,,,,,,,,,,bars/039.png,bars/mask007.png,,,,,,,,,,,,0,1,,,,,,,1,10,0,10,,,,,,,,,,,641.18,641.6799,641.93,642.83,space,0.8859,,642.83,13,57,643.8299,643.83,643.8316,,,,0,4,4,4,1,175,105,,,,,,,,
,,5f458cb79f9aa31a7d7ab81b,65af55fd304b05200d920863,2024-01-23_06h00.54.101,bars,2023.2.3,Win32,59.88023952,657b66ea316d21385b68909f,,,,,,,,,,,643.8318,644.8299,,,645.3299,645.5799,,146,-34,,,,,,,,,,,,,,,,bars/049.png,bars/mask004.png,,,,,,,,,,,,1,1,,,,,,,0,10,1,10,,,,,,,,,,,644.8299,645.3299,645.5799,648.5799,space,2.9961,,648.58,14,31,649.5798,649.5799,649.5866,,,,0,5,5,5,1,160,115,,,,,,,,
,,5f458cb79f9aa31a7d7ab81b,65af55fd304b05200d920863,2024-01-23_06h00.54.101,bars,2023.2.3,Win32,59.88023952,657b66ea316d21385b68909f,,,,,,,,,,,649.5867,650.5798,,,651.0798,651.3298,,14,194,,,,,,,,,,,,,,,,bars/032.png,bars/mask009.png,,,,,,,,,,,,8,2,,,,,,,2,8,1,10,,,,,,,,,,,650.5798,651.0798,651.3298,653.3797,space,2.0468,,653.3797,69,6,654.3797,654.3798,654.3812,,,,0,6,6,6,1,125,20,,,,,,,,
,,5f458cb79f9aa31a7d7ab81b,65af55fd304b05200d920863,2024-01-23_06h00.54.101,bars,2023.2.3,Win32,59.88023952,657b66ea316d21385b68909f,,,,,,,,,,,654.3814,655.3797,,,655.8797,656.1297,,163,-17,,,,,,,,,,,,,,,,bars/036.png,bars/mask004.png,,,,,,,,,,,,0,1,,,,,,,0,6,0,5,,,,,,,,,,,655.3797,655.8796,656.1297,657.9463,space,1.8144,,657.9463,18,37,658.9462,658.9462,658.9537,,,,0,7,7,7,1,145,20,,,,,,,,
,,5f458cb79f9aa31a7d7ab81b,65af55fd304b05200d920863,2024-01-23_06h00.54.101,bars,2023.2.3,Win32,59.88023952,657b66ea316d21385b68909f,,,,,,,,,,,658.9538,659.9462,,,660.4463,660.6963,,165,-15,,,,,,,,,,,,,,,,bars/016.png,bars/mask009.png,,,,,,,,,,,,7,2,,,,,,,0,8,1,7,,,,,,,,,,,659.9462,660.4462,660.6963,664.6795,space,3.9755,,664.6796,55,0,665.6795,665.6795,665.6873,,,,0,8,8,8,1,40,165,,,,,,,,
,,5f458cb79f9aa31a7d7ab81b,65af55fd304b05200d920863,2024-01-23_06h00.54.101,bars,2023.2.3,Win32,59.88023952,657b66ea316d21385b68909f,,,,,,,,,,,665.6874,666.6794,,,667.1795,667.4294,,0,180,,,,,,,,,,,,,,,,bars/045.png,bars/mask003.png,,,,,,,,,,,,3,2,,,,,,,0,6,0,5,,,,,,,,,,,666.6795,667.1794,667.4294,669.4628,space,2.0185,,669.4628,80,10,670.4629,670.463,670.47,,,,0,9,9,9,1,100,10,,,,,,,,
,,5f458cb79f9aa31a7d7ab81b,65af55fd304b05200d920863,2024-01-23_06h00.54.101,bars,2023.2.3,Win32,59.88023952,657b66ea316d21385b68909f,,,,,,,,,,,670.4703,671.4626,,,671.9627,672.2126,,178,178,,,,,,,,,,,,,,,,bars/003.png,bars/mask009.png,,,,,,,,,,,,0,1,,,,,,,0,8,1,8,,,,,,,,,,,671.4626,671.9627,672.2126,675.2294,space,3.0038,,675.2294,27,38,676.2292,676.2292,676.2368,,,,0,10,10,10,1,25,140,,,,,,,,
,,5f458cb79f9aa31a7d7ab81b,65af55fd304b05200d920863,2024-01-23_06h00.54.101,bars,2023.2.3,Win32,59.88023952,657b66ea316d21385b68909f,,,,,,,,,,,676.2369,677.2292,,,677.7292,677.9792,,80,80,,,,,,,,,,,,,,,,bars/013.png,bars/mask009.png,,,,,,,,,,,,0,1,,,,,,,0,10,0,10,,,,,,,,,,,677.2292,677.7291,677.9792,681.5624,space,3.5806,,681.5624,5,70,682.5623,682.5624,682.5691,,,,0,11,11,11,1,75,10,,,,,,,,
,,5f458cb79f9aa31a7d7ab81b,65af55fd304b05200d920863,2024-01-23_06h00.54.101,bars,2023.2.3,Win32,59.88023952,657b66ea316d21385b68909f,,,,,,,,,,,682.5693,683.5623,,,684.0624,684.3123,,176,176,,,,,,,,,,,,,,,,bars/023.png,bars/mask005.png,,,,,,,,,,,,0,1,,,,,,,0,8,0,8,,,,,,,,,,,683.5623,684.0624,684.3124,687.9789,space,3.6561,,687.9789,24,61,688.9789,688.9789,688.9856,,,,0,12,12,12,1,20,115,,,,,,,,
,,5f458cb79f9aa31a7d7ab81b,65af55fd304b05200d920863,2024-01-23_06h00.54.101,bars,2023.2.3,Win32,59.88023952,657b66ea316d21385b68909f,,,,,,,,,,,688.9857,689.9788,,,690.4789,690.7288,,178,178,,,,,,,,,,,,,,,,bars/023.png,bars/mask009.png,,,,,,,,,,,,1,1,,,,,,,2,6,2,5,,,,,,,,,,,689.9788,690.4788,690.7289,693.4455,space,2.7113,,693.4456,22,63,694.4454,694.4455,694.4519,,,,0,13,13,13,1,20,115,,,,,,,,
,,5f458cb79f9aa31a7d7ab81b,65af55fd304b05200d920863,2024-01-23_06h00.54.101,bars,2023.2.3,Win32,59.88023952,657b66ea316d21385b68909f,,,,,,,,,,,694.452,695.4454,,,695.9454,696.1954,,169,-11,,,,,,,,,,,,,,,,bars/036.png,bars/mask009.png,,,,,,,,,,,,0,1,,,,,,,0,8,1,8,,,,,,,,,,,695.4454,695.9454,696.1954,700.6453,space,4.4366,,700.6454,24,31,701.6452,701.6452,701.6517,,,,0,14,14,14,1,145,20,,,,,,,,
,,5f458cb79f9aa31a7d7ab81b,65af55fd304b05200d920863,2024-01-23_06h00.54.101,bars,2023.2.3,Win32,59.88023952,657b66ea316d21385b68909f,,,,,,,,,,,701.6519,702.6452,,,703.1452,703.3954,,167,-13,,,,,,,,,,,,,,,,bars/013.png,bars/mask002.png,,,,,,,,,,,,2,2,,,,,,,2,10,0,10,,,,,,,,,,,702.6452,703.1451,703.3955,707.3452,space,3.9409,,707.3453,88,23,708.3451,708.3452,708.3525,,,,0,15,15,15,1,75,10,,,,,,,,
,,5f458cb79f9aa31a7d7ab81b,65af55fd304b05200d920863,2024-01-23_06h00.54.101,bars,2023.2.3,Win32,59.88023952,657b66ea316d21385b68909f,,,,,,,,,,,708.3527,709.345,,,709.8452,710.095,,88,88,,,,,,,,,,,,,,,,bars/012.png,bars/mask004.png,,,,,,,,,,,,2,1,,,,,,,4,10,2,10,,,,,,,,,,,709.345,709.8451,710.095,712.7284,space,2.6256,,712.7285,2,73,713.7283,713.7283,713.7357,,,,0,16,16,16,1,90,15,,,,,,,,
,,5f458cb79f9aa31a7d7ab81b,65af55fd304b05200d920863,2024-01-23_06h00.54.101,bars,2023.2.3,Win32,59.88023952,657b66ea316d21385b68909f,,,,,,,,,,,713.7358,714.7282,,,715.2283,715.4782,,104,104,,,,,,,,,,,,,,,,bars/037.png,bars/mask001.png,,,,,,,,,,,,9,2,,,,,,,2,8,2,9,,,,,,,,,,,714.7283,715.2282,715.4782,718.0449,space,2.5624,,718.0449,46,1,719.0449,719.0449,719.0524,,,,0,17,17,17,1,150,105,,,,,,,,
,,5f458cb79f9aa31a7d7ab81b,65af55fd304b05200d920863,2024-01-23_06h00.54.101,bars,2023.2.3,Win32,59.88023952,657b66ea316d21385b68909f,,,,,,,,,,,719.0526,720.0448,,,720.5448,720.7948,,167,-13,,,,,,,,,,,,,,,,bars/037.png,bars/mask004.png,,,,,,,,,,,,0,1,,,,,,,0,6,0,7,,,,,,,,,,,720.0448,720.5447,720.7948,722.6949,space,1.8851,,722.6949,17,62,723.6947,723.6947,723.6964,,,,0,18,18,18,1,150,105,,,,,,,,
,,5f458cb79f9aa31a7d7ab81b,65af55fd304b05200d920863,2024-01-23_06h00.54.101,bars,2023.2.3,Win32,59.88023952,657b66ea316d21385b68909f,,,,,,,,,,,723.6967,724.6947,,,725.1947,725.4446,,69,69,,,,,,,,,,,,,,,,bars/046.png,bars/mask009.png,,,,,,,,,,,,1,2,,,,,,,0,4,2,3,,,,,,,,,,,724.6947,725.1947,725.4447,729.478,space,4.0193,,729.4781,86,16,730.4778,730.4778,730.4854,,,,0,19,19,19,1,155,85,,,,,,,,
,,5f458cb79f9aa31a7d7ab81b,65af55fd304b05200d920863,2024-01-23_06h00.54.101,bars,2023.2.3,Win32,59.88023952,657b66ea316d21385b68909f,,,,,,,,,,,730.4856,731.478,,,731.9779,732.2279,,89,89,,,,,,,,,,,,,,,,bars/019.png,bars/mask005.png,,,,,,,,,,,,0,2,,,,,,,2,2,1,1,,,,,,,,,,,731.478,731.9779,732.2279,733.3946,space,1.1561,,733.3946,44,16,734.3944,734.3944,734.395,,,,0,20,20,20,1,45,105,,,,,,,,
,,5f458cb79f9aa31a7d7ab81b,65af55fd304b05200d920863,2024-01-23_06h00.54.101,bars,2023.2.3,Win32,59.88023952,657b66ea316d21385b68909f,,,,,,,,,,,734.3952,735.3944,,,735.8945,736.1445,,95,95,,,,,,,,,,,,,,,,bars/027.png,bars/mask006.png,,,,,,,,,,,,2,1,,,,,,,4,0,4,0,,,,,,,,,,,735.3944,735.8944,736.1445,738.4444,space,2.2963,,738.4444,15,45,739.4443,739.4443,739.4519,,,,0,21,21,21,1,110,50,,,,,,,,
,,5f458cb79f9aa31a7d7ab81b,65af55fd304b05200d920863,2024-01-23_06h00.54.101,bars,2023.2.3,Win32,59.88023952,657b66ea316d21385b68909f,,,,,,,,,,,739.4522,740.4443,,,740.9446,741.1943,,24,24,,,,,,,,,,,,,,,,bars/035.png,bars/mask009.png,,,,,,,,,,,,0,1,,,,,,,2,0,3,0,,,,,,,,,,,740.4444,740.9446,741.1943,743.7777,space,2.567,,743.7777,29,36,744.7776,744.7776,744.7846,,,,0,22,22,22,1,175,60,,,,,,,,
,,5f458cb79f9aa31a7d7ab81b,65af55fd304b05200d920863,2024-01-23_06h00.54.101,bars,2023.2.3,Win32,59.88023952,657b66ea316d21385b68909f,,,,,,,,,,,744.7849,745.7775,,,746.2776,746.5274,,168,-12,,,,,,,,,,,,,,,,bars/013.png,bars/mask008.png,,,,,,,,,,,,0,2,,,,,,,0,0,1,0,,,,,,,,,,,745.7775,746.2775,746.5275,749.2775,space,2.7369,,749.2775,87,22,750.2775,750.2775,750.2853,,,,0,23,23,23,1,75,10,,,,,,,,
,,5f458cb79f9aa31a7d7ab81b,65af55fd304b05200d920863,2024-01-23_06h00.54.101,bars,2023.2.3,Win32,59.88023952,657b66ea316d21385b68909f,,,,,,,,,,,750.2855,751.2773,,,751.7774,752.0274,,52,52,,,,,,,,,,,,,,,,bars/026.png,bars/mask009.png,,,,,,,,,,,,1,1,,,,,,,2,2,2,1,,,,,,,,,,,751.2774,751.7774,752.0274,753.8442,space,1.8044,,753.8442,17,33,754.8439,754.844,754.8515,,,,0,24,24,24,1,35,85,,,,,,,,
,,5f458cb79f9aa31a7d7ab81b,65af55fd304b05200d920863,2024-01-23_06h00.54.101,bars,2023.2.3,Win32,59.88023952,657b66ea316d21385b68909f,,,,,,,,,,,754.8517,755.844,,,756.344,756.5939,,113,113,,,,,,,,,,,,,,,,bars/006.png,bars/mask000.png,,,,,,,,,,,,0,2,,,,,,,0,0,0,0,,,,,,,,,,,755.844,756.344,756.594,760.3772,space,3.7745,,760.3772,78,13,761.3772,761.3772,761.3847,,,,0,25,25,25,1,35,100,,,,,,,,
,,5f458cb79f9aa31a7d7ab81b,65af55fd304b05200d920863,2024-01-23_06h00.54.101,bars,2023.2.3,Win32,59.88023952,657b66ea316d21385b68909f,,,,,,,,,,,761.3849,762.3771,,,762.8772,763.1272,,40,40,,,,,,,,,,,,,,,,bars/018.png,bars/mask002.png,,,,,,,,,,,,0,2,,,,,,,0,0,0,0,,,,,,,,,,,762.3772,762.8772,763.1272,763.8606,space,0.7212,,763.8606,70,50,764.8605,764.8606,764.8612,,,,0,26,26,26,1,150,90,,,,,,,,
,,5f458cb79f9aa31a7d7ab81b,65af55fd304b05200d920863,2024-01-23_06h00.54.101,bars,2023.2.3,Win32,59.88023952,657b66ea316d21385b68909f,,,,,,,,,,,764.8614,765.8607,,,766.3604,766.6104,,100,100,,,,,,,,,,,,,,,,bars/009.png,bars/mask006.png,,,,,,,,,,,,1,2,,,,,,,2,0,2,1,,,,,,,,,,,765.8607,766.3604,766.6104,768.7105,space,2.0942,,768.7105,85,5,769.7102,769.7102,769.7169,,,,0,27,27,27,1,15,105,,,,,,,,
,,5f458cb79f9aa31a7d7ab81b,65af55fd304b05200d920863,2024-01-23_06h00.54.101,bars,2023.2.3,Win32,59.88023952,657b66ea316d21385b68909f,,,,,,,,,,,769.7171,770.7103,,,771.2103,771.4603,,145,145,,,,,,,,,,,,,,,,bars/016.png,bars/mask006.png,,,,,,,,,,,,1,2,,,,,,,0,2,2,2,,,,,,,,,,,770.7103,771.2103,771.4603,773.8106,space,2.3395,,773.8107,75,20,774.8102,774.8102,774.8168,,,,0,28,28,28,1,40,165,,,,,,,,
,,5f458cb79f9aa31a7d7ab81b,65af55fd304b05200d920863,2024-01-23_06h00.54.101,bars,2023.2.3,Win32,59.88023952,657b66ea316d21385b68909f,,,,,,,,,,,774.817,775.8102,,,776.3102,776.5601,,110,110,,,,,,,,,,,,,,,,bars/039.png,bars/mask007.png,,,,,,,,,,,,0,2,,,,,,,2,0,1,0,,,,,,,,,,,775.8102,776.3102,776.5601,778.7268,space,2.1522,,778.7268,65,5,779.7267,779.7267,779.7333,,,,0,29,29,29,1,175,105,,,,,,,,
,,5f458cb79f9aa31a7d7ab81b,65af55fd304b05200d920863,2024-01-23_06h00.54.101,bars,2023.2.3,Win32,59.88023952,657b66ea316d21385b68909f,,,,,,,,,,,779.7335,780.7267,,,781.2269,781.4767,,101,101,,,,,,,,,,,,,,,,bars/024.png,bars/mask006.png,,,,,,,,,,,,0,1,,,,,,,0,2,1,3,,,,,,,,,,,780.7267,781.2269,781.4767,784.8933,space,3.4117,,784.8934,19,69,785.8933,785.8933,785.9011,,,,0,30,30,30,1,120,170,,,,,,,,
,,5f458cb79f9aa31a7d7ab81b,65af55fd304b05200d920863,2024-01-23_06h00.54.101,bars,2023.2.3,Win32,59.88023952,657b66ea316d21385b68909f,,,,,,,,,,,785.9012,786.8932,,,787.3932,787.6433,,39,39,,,,,,,,,,,,,,,,bars/035.png,bars/mask000.png,,,,,,,,,,,,0,2,,,,,,,0,0,0,1,,,,,,,,,,,786.8932,787.3932,787.6433,790.0932,space,2.4367,,790.0932,44,21,791.0931,791.0931,791.1006,,,,0,31,31,31,1,175,60,,,,,,,,
,,5f458cb79f9aa31a7d7ab81b,65af55fd304b05200d920863,2024-01-23_06h00.54.101,bars,2023.2.3,Win32,59.88023952,657b66ea316d21385b68909f,,,,,,,,,,,791.1007,792.093,,,792.5931,792.843,,98,98,,,,,,,,,,,,,,,,bars/012.png,bars/mask005.png,,,,,,,,,,,,1,1,,,,,,,2,2,2,2,,,,,,,,,,,792.0931,792.5931,792.843,797.1599,space,4.3009,,797.1599,8,83,798.1597,798.1597,798.1676,,,,0,32,32,32,1,90,15,,,,,,,,
,,5f458cb79f9aa31a7d7ab81b,65af55fd304b05200d920863,2024-01-23_06h00.54.101,bars,2023.2.3,Win32,59.88023952,657b66ea316d21385b68909f,,,,,,,,,,,798.1677,799.1596,,,799.6597,799.9096,,133,133,,,,,,,,,,,,,,,,bars/004.png,bars/mask003.png,,,,,,,,,,,,4,2,,,,,,,4,4,4,6,,,,,,,,,,,799.1596,799.6597,799.9097,802.6763,space,2.7545,,802.6763,72,8,803.6761,803.6762,803.6835,,,,0,33,33,33,1,25,125,,,,,,,,
,,5f458cb79f9aa31a7d7ab81b,65af55fd304b05200d920863,2024-01-23_06h00.54.101,bars,2023.2.3,Win32,59.88023952,657b66ea316d21385b68909f,,,,,,,,,,,803.6837,804.676,,,805.1762,805.4263,,85,85,,,,,,,,,,,,,,,,bars/025.png,bars/mask006.png,,,,,,,,,,,,2,1,,,,,,,6,2,7,2,,,,,,,,,,,804.6761,805.1762,805.4264,808.1428,space,2.7104,,808.1428,20,45,809.1427,809.1427,809.1503,,,,0,34,34,34,1,105,40,,,,,,,,
,,5f458cb79f9aa31a7d7ab81b,65af55fd304b05200d920863,2024-01-23_06h00.54.101,bars,2023.2.3,Win32,59.88023952,657b66ea316d21385b68909f,,,,,,,,,,,809.1504,810.1427,,,810.6427,810.8928,,33,33,,,,,,,,,,,,,,,,bars/035.png,bars/mask002.png,,,,,,,,,,,,0,2,,,,,,,4,4,4,4,,,,,,,,,,,810.1427,810.6427,810.8928,813.2426,space,2.3338,,813.2427,38,27,814.2426,814.2426,814.2444,,,,0,35,35,35,1,175,60,,,,,,,,
,,5f458cb79f9aa31a7d7ab81b,65af55fd304b05200d920863,2024-01-23_06h00.54.101,bars,2023.2.3,Win32,59.88023952,657b66ea316d21385b68909f,,,,,,,,,,,814.2445,815.2426,,,815.7425,815.9925,,100,100,,,,,,,,,,,,,,,,bars/012.png,bars/mask009.png,,,,,,,,,,,,2,1,,,,,,,2,6,3,5,,,,,,,,,,,815.2426,815.7425,815.9925,819.8094,space,3.8077,,819.8094,10,85,820.8091,820.8091,820.8166,,,,0,36,36,36,1,90,15,,,,,,,,
,,5f458cb79f9aa31a7d7ab81b,65af55fd304b05200d920863,2024-01-23_06h00.54.101,bars,2023.2.3,Win32,59.88023952,657b66ea316d21385b68909f,,,,,,,,,,,820.8168,821.8091,,,822.3091,822.5591,,48,48,,,,,,,,,,,,,,,,bars/026.png,bars/mask000.png,,,,,,,,,,,,2,1,,,,,,,4,8,4,7,,,,,,,,,,,821.8091,822.3091,822.5592,824.6257,space,2.0504,,824.6259,13,37,825.6256,825.6257,825.6323,,,,0,37,37,37,1,35,85,,,,,,,,
,,5f458cb79f9aa31a7d7ab81b,65af55fd304b05200d920863,2024-01-23_06h00.54.101,bars,2023.2.3,Win32,59.88023952,657b66ea316d21385b68909f,,,,,,,,,,,825.6324,826.6256,,,827.1256,827.3756,,159,159,,,,,,,,,,,,,,,,bars/033.png,bars/mask006.png,,,,,,,,,,,,9,2,,,,,,,6,10,7,10,,,,,,,,,,,826.6256,827.1256,827.3757,829.7089,space,2.3288,,829.709,46,4,830.7089,830.7089,830.7172,,,,0,38,38,38,1,25,155,,,,,,,,
,,5f458cb79f9aa31a7d7ab81b,65af55fd304b05200d920863,2024-01-23_06h00.54.101,bars,2023.2.3,Win32,59.88023952,657b66ea316d21385b68909f,,,,,,,,,,,830.7174,831.7088,,,832.2088,832.4588,,152,152,,,,,,,,,,,,,,,,bars/015.png,bars/mask005.png,,,,,,,,,,,,6,2,,,,,,,8,8,8,8,,,,,,,,,,,831.7089,832.2088,832.4588,834.2755,space,1.8058,,834.2755,42,8,835.2754,835.2755,835.283,,,,0,39,39,39,1,110,160,,,,,,,,
,,5f458cb79f9aa31a7d7ab81b,65af55fd304b05200d920863,2024-01-23_06h00.54.101,bars,2023.2.3,Win32,59.88023952,657b66ea316d21385b68909f,,,,,,,,,,,835.2832,836.2754,,,836.7754,837.0254,,2,2,,,,,,,,,,,,,,,,bars/023.png,bars/mask006.png,,,,,,,,,,,,4,1,,,,,,,10,6,10,5,,,,,,,,,,,836.2754,836.7754,837.0254,840.3754,space,3.334,,840.3754,18,67,841.3752,841.3753,841.3832,,,,0,40,40,40,1,20,115,,,,,,,,
,,5f458cb79f9aa31a7d7ab81b,65af55fd304b05200d920863,2024-01-23_06h00.54.101,bars,2023.2.3,Win32,59.88023952,657b66ea316d21385b68909f,,,,,,,,,,,841.3834,842.3752,,,842.8753,843.1252,,29,209,,,,,,,,,,,,,,,,bars/005.png,bars/mask003.png,,,,,,,,,,,,3,1,,,,,,,8,8,7,7,,,,,,,,,,,842.3753,842.8753,843.1253,847.4586,space,4.3228,,847.4586,19,69,848.4584,848.4584,848.465,,,,0,41,41,41,1,10,140,,,,,,,,
,,5f458cb79f9aa31a7d7ab81b,65af55fd304b05200d920863,2024-01-23_06h00.54.101,bars,2023.2.3,Win32,59.88023952,657b66ea316d21385b68909f,,,,,,,,,,,848.4652,849.4584,,,849.9584,850.2083,,163,-17,,,,,,,,,,,,,,,,bars/016.png,bars/mask002.png,,,,,,,,,,,,9,2,,,,,,,10,10,10,10,,,,,,,,,,,849.4584,849.9583,850.2083,852.5251,space,2.3123,,852.5251,57,2,853.525,853.525,853.5326,,,,0,42,42,42,1,40,165,,,,,,,,
,,5f458cb79f9aa31a7d7ab81b,65af55fd304b05200d920863,2024-01-23_06h00.54.101,bars,2023.2.3,Win32,59.88023952,657b66ea316d21385b68909f,,,,,,,,,,,853.5327,854.5249,,,855.025,855.2749,,178,178,,,,,,,,,,,,,,,,bars/008.png,bars/mask005.png,,,,,,,,,,,,9,2,,,,,,,10,10,9,10,,,,,,,,,,,854.525,855.0249,855.275,857.9583,space,2.6693,,857.9584,68,2,858.9582,858.9582,858.9648,,,,0,43,43,43,1,110,0,,,,,,,,
,,5f458cb79f9aa31a7d7ab81b,65af55fd304b05200d920863,2024-01-23_06h00.54.101,bars,2023.2.3,Win32,59.88023952,657b66ea316d21385b68909f,,,,,,,,,,,858.965,859.958,,,860.4582,860.7082,,40,40,,,,,,,,,,,,,,,,bars/035.png,bars/mask000.png,,,,,,,,,,,,3,2,,,,,,,10,10,10,10,,,,,,,,,,,859.958,860.4581,860.7082,863.7748,space,3.0603,,863.7748,45,20,864.7747,864.7748,864.7814,,,,0,44,44,44,1,175,60,,,,,,,,
,,5f458cb79f9aa31a7d7ab81b,65af55fd304b05200d920863,2024-01-23_06h00.54.101,bars,2023.2.3,Win32,59.88023952,657b66ea316d21385b68909f,,,,,,,,,,,864.7815,865.7746,,,866.2748,866.5246,,175,-5,,,,,,,,,,,,,,,,bars/048.png,bars/mask006.png,,,,,,,,,,,,6,2,,,,,,,10,8,10,6,,,,,,,,,,,865.7747,866.2747,866.5247,870.9247,space,4.3877,,870.9248,55,0,871.9245,871.9245,871.9315,,,,0,45,45,45,1,50,175,,,,,,,,
,,5f458cb79f9aa31a7d7ab81b,65af55fd304b05200d920863,2024-01-23_06h00.54.101,bars,2023.2.3,Win32,59.88023952,657b66ea316d21385b68909f,,,,,,,,,,,871.9316,872.9247,,,873.4246,873.6745,,137,137,,,,,,,,,,,,,,,,bars/000.png,bars/mask001.png,,,,,,,,,,,,4,2,,,,,,,8,6,6,6,,,,,,,,,,,872.9247,873.4246,873.6746,876.2411,space,2.5579,,876.2412,83,8,877.2411,877.2411,877.2479,,,,0,46,46,46,1,40,145,,,,,,,,
,,5f458cb79f9aa31a7d7ab81b,65af55fd304b05200d920863,2024-01-23_06h00.54.101,bars,2023.2.3,Win32,59.88023952,657b66ea316d21385b68909f,,,,,,,,,,,877.248,878.2412,,,878.7411,878.9911,,37,37,,,,,,,,,,,,,,,,bars/005.png,bars/mask002.png,,,,,,,,,,,,1,1,,,,,,,10,4,10,4,,,,,,,,,,,878.2413,878.7411,878.9911,881.241,space,2.2412,,881.2411,27,77,882.241,882.241,882.2425,,,,0,47,47,47,1,10,140,,,,,,,,
,,5f458cb79f9aa31a7d7ab81b,65af55fd304b05200d920863,2024-01-23_06h00.54.101,bars,2023.2.3,Win32,59.88023952,657b66ea316d21385b68909f,,,,,,,,,,,882.2427,883.2408,,,883.741,883.9909,,145,-35,,,,,,,,,,,,,,,,bars/003.png,bars/mask006.png,,,,,,,,,,,,2,2,,,,,,,8,2,7,2,,,,,,,,,,,883.2409,883.741,883.991,886.6077,space,2.6095,,886.6077,60,5,887.6075,887.6075,887.6149,,,,0,48,48,48,1,25,140,,,,,,,,
,,5f458cb79f9aa31a7d7ab81b,65af55fd304b05200d920863,2024-01-23_06h00.54.101,bars,2023.2.3,Win32,59.88023952,657b66ea316d21385b68909f,,,,,,,,,,,887.6151,888.6075,,,889.1075,889.3577,,138,-42,,,,,,,,,,,,,,,,bars/024.png,bars/mask002.png,,,,,,,,,,,,4,1,,,,,,,10,0,10,0,,,,,,,,,,,888.6075,889.1075,889.3577,892.4074,space,3.0429,,892.4075,18,32,893.4073,893.4074,893.4153,,,,0,49,49,49,1,120,170,,,,,,,,
,,5f458cb79f9aa31a7d7ab81b,65af55fd304b05200d920863,2024-01-23_06h00.54.101,bars,2023.2.3,Win32,59.88023952,657b66ea316d21385b68909f,,,,,,,,,,,,,,,,,,,,,,,,,,,,,,,,,,,,,,,,,,,,,,,,,,,,,,,,,,,,,,,,,,,,,,,,,,,,,,,,,,,,,,,,,,,,,893.4155,953.4059,0,1,1,1,1,sequence_tables/blk002.csv
,,5f458cb79f9aa31a7d7ab81b,65af55fd304b05200d920863,2024-01-23_06h00.54.101,bars,2023.2.3,Win32,59.88023952,657b66ea316d21385b68909f,,,,,,,,,,,1124.0451,1125.0352,,,1125.5353,1125.7852,,104,104,,,,,,,,,,,,,,,,bars/028.png,bars/mask003.png,,,,,,,,,,,,1,2,,,,,,,10,2,9,2,,,,,,953.413,1124.0355,space,170.6123,,1125.0353,1125.5352,1125.7853,1128.0686,space,2.2715,,1128.0686,59,16,1129.0686,1129.0686,1129.0761,,,,0,0,0,0,1,45,120,,,,,,,,
,,5f458cb79f9aa31a7d7ab81b,65af55fd304b05200d920863,2024-01-23_06h00.54.101,bars,2023.2.3,Win32,59.88023952,657b66ea316d21385b68909f,,,,,,,,,,,1129.0764,1130.0685,,,1130.5685,1130.8184,,73,73,,,,,,,,,,,,,,,,bars/002.png,bars/mask000.png,,,,,,,,,,,,0,2,,,,,,,8,0,8,0,,,,,,,,,,,1130.0685,1130.5685,1130.8185,1132.3351,space,1.5021,,1132.3352,57,12,1133.335,1133.335,1133.3355,,,,0,1,1,1,1,130,85,,,,,,,,
,,5f458cb79f9aa31a7d7ab81b,65af55fd304b05200d920863,2024-01-23_06h00.54.101,bars,2023.2.3,Win32,59.88023952,657b66ea316d21385b68909f,,,,,,,,,,,1133.3356,1134.3349,,,1134.8351,1135.085,,104,104,,,,,,,,,,,,,,,,bars/027.png,bars/mask003.png,,,,,,,,,,,,3,1,,,,,,,6,2,4,2,,,,,,,,,,,1134.3349,1134.835,1135.085,1137.4683,space,2.3797,,1137.4684,6,54,1138.4684,1138.4684,1138.4759,,,,0,2,2,2,1,110,50,,,,,,,,
,,5f458cb79f9aa31a7d7ab81b,65af55fd304b05200d920863,2024-01-23_06h00.54.101,bars,2023.2.3,Win32,59.88023952,657b66ea316d21385b68909f,,,,,,,,,,,1138.476,1139.4683,,,1139.9683,1140.2183,,40,40,,,,,,,,,,,,,,,,bars/031.png,bars/mask001.png,,,,,,,,,,,,1,2,,,,,,,8,0,6,1,,,,,,,,,,,1139.4683,1139.9683,1140.2183,1141.9016,space,1.6781,,1141.9017,80,5,1142.9014,1142.9014,1142.9091,,,,0,3,3,3,1,120,35,,,,,,,,
,,5f458cb79f9aa31a7d7ab81b,65af55fd304b05200d920863,2024-01-23_06h00.54.101,bars,2023.2.3,Win32,59.88023952,657b66ea316d21385b68909f,,,,,,,,,,,1142.9093,1143.9015,,,1144.4015,1144.6514,,145,145,,,,,,,,,,,,,,,,bars/003.png,bars/mask001.png,,,,,,,,,,,,1,2,,,,,,,6,2,8,1,,,,,,,,,,,1143.9015,1144.4014,1144.6514,1146.1183,space,1.4615,,1146.1183,60,5,1147.1181,1147.1181,1147.1189,,,,0,4,4,4,1,25,140,,,,,,,,
,,5f458cb79f9aa31a7d7ab81b,65af55fd304b05200d920863,2024-01-23_06h00.54.101,bars,2023.2.3,Win32,59.88023952,657b66ea316d21385b68909f,,,,,,,,,,,1147.1192,1148.118,,,1148.6181,1148.868,,6,6,,,,,,,,,,,,,,,,bars/008.png,bars/mask008.png,,,,,,,,,,,,0,2,,,,,,,4,0,6,0,,,,,,,,,,,1148.118,1148.6181,1148.8681,1150.618,space,1.7335,,1150.6181,76,6,1151.6179,1151.6179,1151.6187,,,,0,5,5,5,1,110,0,,,,,,,,
,,5f458cb79f9aa31a7d7ab81b,65af55fd304b05200d920863,2024-01-23_06h00.54.101,bars,2023.2.3,Win32,59.88023952,657b66ea316d21385b68909f,,,,,,,,,,,1151.6188,1152.6179,,,1153.1178,1153.368,,50,50,,,,,,,,,,,,,,,,bars/035.png,bars/mask003.png,,,,,,,,,,,,1,2,,,,,,,2,0,2,1,,,,,,,,,,,1152.6179,1153.1178,1153.3681,1155.718,space,2.3446,,1155.7181,55,10,1156.7178,1156.7179,1156.7244,,,,0,6,6,6,1,175,60,,,,,,,,
,,5f458cb79f9aa31a7d7ab81b,65af55fd304b05200d920863,2024-01-23_06h00.54.101,bars,2023.2.3,Win32,59.88023952,657b66ea316d21385b68909f,,,,,,,,,,,1156.7245,1157.7179,,,1158.2179,1158.4679,,60,60,,,,,,,,,,,,,,,,bars/028.png,bars/mask006.png,,,,,,,,,,,,2,1,,,,,,,4,2,4,1,,,,,,,,,,,1157.7179,1158.2178,1158.468,1160.6845,space,2.2046,,1160.6845,15,60,1161.6843,1161.6844,1161.6859,,,,0,7,7,7,1,45,120,,,,,,,,
,,5f458cb79f9aa31a7d7ab81b,65af55fd304b05200d920863,2024-01-23_06h00.54.101,bars,2023.2.3,Win32,59.88023952,657b66ea316d21385b68909f,,,,,,,,,,,1161.6861,1162.6844,,,1163.1844,1163.4343,,57,57,,,,,,,,,,,,,,,,bars/025.png,bars/mask000.png,,,,,,,,,,,,0,2,,,,,,,6,0,6,1,,,,,,,,,,,1162.6844,1163.1843,1163.4343,1165.251,space,1.8144,,1165.251,48,17,1166.2509,1166.2509,1166.2589,,,,0,8,8,8,1,105,40,,,,,,,,
,,5f458cb79f9aa31a7d7ab81b,65af55fd304b05200d920863,2024-01-23_06h00.54.101,bars,2023.2.3,Win32,59.88023952,657b66ea316d21385b68909f,,,,,,,,,,,1166.2591,1167.2509,,,1167.751,1168.001,,60,240,,,,,,,,,,,,,,,,bars/044.png,bars/mask001.png,,,,,,,,,,,,3,1,,,,,,,4,2,5,2,,,,,,,,,,,1167.2509,1167.7509,1168.001,1172.3508,space,4.335,,1172.3509,15,85,1173.3507,1173.3507,1173.3582,,,,0,9,9,9,1,75,155,,,,,,,,
,,5f458cb79f9aa31a7d7ab81b,65af55fd304b05200d920863,2024-01-23_06h00.54.101,bars,2023.2.3,Win32,59.88023952,657b66ea316d21385b68909f,,,,,,,,,,,1173.3583,1174.3507,,,1174.8508,1175.1008,,68,68,,,,,,,,,,,,,,,,bars/010.png,bars/mask008.png,,,,,,,,,,,,0,2,,,,,,,2,0,2,0,,,,,,,,,,,1174.3508,1174.8507,1175.1008,1176.6342,space,1.5239,,1176.6342,83,13,1177.634,1177.634,1177.6356,,,,0,10,10,10,1,165,55,,,,,,,,
,,5f458cb79f9aa31a7d7ab81b,65af55fd304b05200d920863,2024-01-23_06h00.54.101,bars,2023.2.3,Win32,59.88023952,657b66ea316d21385b68909f,,,,,,,,,,,1177.6357,1178.634,,,1179.134,1179.384,,29,29,,,,,,,,,,,,,,,,bars/004.png,bars/mask002.png,,,,,,,,,,,,1,1,,,,,,,0,2,1,4,,,,,,,,,,,1178.634,1179.134,1179.3841,1180.6674,space,1.273,,1180.6674,4,84,1181.6673,1181.6673,1181.6688,,,,0,11,11,11,1,25,125,,,,,,,,
,,5f458cb79f9aa31a7d7ab81b,65af55fd304b05200d920863,2024-01-23_06h00.54.101,bars,2023.2.3,Win32,59.88023952,657b66ea316d21385b68909f,,,,,,,,,,,1181.669,1182.6671,,,1183.1672,1183.4172,,131,131,,,,,,,,,,,,,,,,bars/001.png,bars/mask002.png,,,,,,,,,,,,2,1,,,,,,,2,0,2,0,,,,,,,,,,,1182.6672,1183.1672,1183.4172,1184.4339,space,1.0004,,1184.4341,1,46,1185.4338,1185.4338,1185.4346,,,,0,12,12,12,1,130,85,,,,,,,,
,,5f458cb79f9aa31a7d7ab81b,65af55fd304b05200d920863,2024-01-23_06h00.54.101,bars,2023.2.3,Win32,59.88023952,657b66ea316d21385b68909f,,,,,,,,,,,1185.4347,1186.4339,,,1186.9338,1187.1838,,178,-2,,,,,,,,,,,,,,,,bars/023.png,bars/mask001.png,,,,,,,,,,,,0,1,,,,,,,0,2,1,1,,,,,,,,,,,1186.4339,1186.9338,1187.1839,1189.6338,space,2.4339,,1189.6338,22,63,1190.6337,1190.6337,1190.6407,,,,0,13,13,13,1,20,115,,,,,,,,
,,5f458cb79f9aa31a7d7ab81b,65af55fd304b05200d920863,2024-01-23_06h00.54.101,bars,2023.2.3,Win32,59.88023952,657b66ea316d21385b68909f,,,,,,,,,,,1190.6409,1191.6337,,,1192.1338,1192.3836,,43,223,,,,,,,,,,,,,,,,bars/019.png,bars/mask003.png,,,,,,,,,,,,1,1,,,,,,,2,0,1,0,,,,,,,,,,,1191.6337,1192.1337,1192.3837,1196.2004,space,3.8088,,1196.2004,2,62,1197.2002,1197.2002,1197.2068,,,,0,14,14,14,1,45,105,,,,,,,,
,,5f458cb79f9aa31a7d7ab81b,65af55fd304b05200d920863,2024-01-23_06h00.54.101,bars,2023.2.3,Win32,59.88023952,657b66ea316d21385b68909f,,,,,,,,,,,1197.207,1198.2002,,,1198.7002,1198.9501,,154,154,,,,,,,,,,,,,,,,bars/036.png,bars/mask004.png,,,,,,,,,,,,3,1,,,,,,,4,2,4,3,,,,,,,,,,,1198.2002,1198.7002,1198.9501,1200.7169,space,1.7541,,1200.717,9,46,1201.7168,1201.7169,1201.7175,,,,0,15,15,15,1,145,20,,,,,,,,
,,5f458cb79f9aa31a7d7ab81b,65af55fd304b05200d920863,2024-01-23_06h00.54.101,bars,2023.2.3,Win32,59.88023952,657b66ea316d21385b68909f,,,,,,,,,,,1201.7178,1202.7167,,,1203.2168,1203.4668,,139,139,,,,,,,,,,,,,,,,bars/037.png,bars/mask004.png,,,,,,,,,,,,1,1,,,,,,,2,4,2,3,,,,,,,,,,,1202.7167,1203.2168,1203.4668,1205.0835,space,1.6057,,1205.0836,11,34,1206.0835,1206.0836,1206.0903,,,,0,16,16,16,1,150,105,,,,,,,,
,,5f458cb79f9aa31a7d7ab81b,65af55fd304b05200d920863,2024-01-23_06h00.54.101,bars,2023.2.3,Win32,59.88023952,657b66ea316d21385b68909f,,,,,,,,,,,1206.0905,1207.0834,,,1207.5833,1207.8333,,118,118,,,,,,,,,,,,,,,,bars/031.png,bars/mask006.png,,,,,,,,,,,,7,1,,,,,,,4,2,7,4,,,,,,,,,,,1207.0834,1207.5833,1207.8333,1209.9666,space,2.1278,,1209.9667,2,83,1210.9666,1210.9667,1210.9734,,,,0,17,17,17,1,120,35,,,,,,,,
,,5f458cb79f9aa31a7d7ab81b,65af55fd304b05200d920863,2024-01-23_06h00.54.101,bars,2023.2.3,Win32,59.88023952,657b66ea316d21385b68909f,,,,,,,,,,,1210.9737,1211.9666,,,1212.4666,1212.7166,,159,-21,,,,,,,,,,,,,,,,bars/036.png,bars/mask006.png,,,,,,,,,,,,3,1,,,,,,,6,4,6,4,,,,,,,,,,,1211.9666,1212.4666,1212.7166,1217.6499,space,4.9244,,1217.65,14,41,1218.6496,1218.6497,1218.6563,,,,0,18,18,18,1,145,20,,,,,,,,
,,5f458cb79f9aa31a7d7ab81b,65af55fd304b05200d920863,2024-01-23_06h00.54.101,bars,2023.2.3,Win32,59.88023952,657b66ea316d21385b68909f,,,,,,,,,,,1218.6566,1219.6496,,,1220.1497,1220.3997,,171,-9,,,,,,,,,,,,,,,,bars/008.png,bars/mask000.png,,,,,,,,,,,,4,2,,,,,,,4,6,1,6,,,,,,,,,,,1219.6497,1220.1497,1220.3997,1222.0831,space,1.6805,,1222.0831,61,9,1223.083,1223.083,1223.0846,,,,0,19,19,19,1,110,0,,,,,,,,
,,5f458cb79f9aa31a7d7ab81b,65af55fd304b05200d920863,2024-01-23_06h00.54.101,bars,2023.2.3,Win32,59.88023952,657b66ea316d21385b68909f,,,,,,,,,,,1223.0849,1224.0829,,,1224.5829,1224.8331,,71,251,,,,,,,,,,,,,,,,bars/042.png,bars/mask008.png,,,,,,,,,,,,4,2,,,,,,,6,4,5,5,,,,,,,,,,,1224.083,1224.5829,1224.8332,1229.2995,space,4.4554,,1229.2996,74,4,1230.2995,1230.2995,1230.3063,,,,0,20,20,20,1,145,75,,,,,,,,
,,5f458cb79f9aa31a7d7ab81b,65af55fd304b05200d920863,2024-01-23_06h00.54.101,bars,2023.2.3,Win32,59.88023952,657b66ea316d21385b68909f,,,,,,,,,,,1230.3065,1231.2994,,,1231.7997,1232.0494,,57,57,,,,,,,,,,,,,,,,bars/046.png,bars/mask007.png,,,,,,,,,,,,0,2,,,,,,,8,2,8,3,,,,,,,,,,,1231.2994,1231.7996,1232.0494,1234.0827,space,2.017,,1234.0828,82,28,1235.0827,1235.0827,1235.0893,,,,0,21,21,21,1,155,85,,,,,,,,
,,5f458cb79f9aa31a7d7ab81b,65af55fd304b05200d920863,2024-01-23_06h00.54.101,bars,2023.2.3,Win32,59.88023952,657b66ea316d21385b68909f,,,,,,,,,,,1235.0896,1236.0827,,,1236.5826,1236.8326,,160,160,,,,,,,,,,,,,,,,bars/049.png,bars/mask008.png,,,,,,,,,,,,6,1,,,,,,,6,4,6,5,,,,,,,,,,,1236.0827,1236.5826,1236.8327,1238.9661,space,2.12,,1238.9661,0,45,1239.9659,1239.9659,1239.9675,,,,0,22,22,22,1,160,115,,,,,,,,
,,5f458cb79f9aa31a7d7ab81b,65af55fd304b05200d920863,2024-01-23_06h00.54.101,bars,2023.2.3,Win32,59.88023952,657b66ea316d21385b68909f,,,,,,,,,,,1239.9677,1240.9659,,,1241.466,1241.7158,,159,159,,,,,,,,,,,,,,,,bars/042.png,bars/mask003.png,,,,,,,,,,,,4,1,,,,,,,8,2,7,0,,,,,,,,,,,1240.9659,1241.4659,1241.7158,1245.1159,space,3.3892,,1245.1159,14,84,1246.1158,1246.1158,1246.1224,,,,0,23,23,23,1,145,75,,,,,,,,
,,5f458cb79f9aa31a7d7ab81b,65af55fd304b05200d920863,2024-01-23_06h00.54.101,bars,2023.2.3,Win32,59.88023952,657b66ea316d21385b68909f,,,,,,,,,,,1246.1225,1247.1158,,,1247.6157,1247.8656,,160,160,,,,,,,,,,,,,,,,bars/040.png,bars/mask009.png,,,,,,,,,,,,2,1,,,,,,,6,0,7,0,,,,,,,,,,,1247.1158,1247.6157,1247.8656,1251.8991,space,4.0235,,1251.8991,20,25,1252.8988,1252.8988,1252.9054,,,,0,24,24,24,1,140,5,,,,,,,,
,,5f458cb79f9aa31a7d7ab81b,65af55fd304b05200d920863,2024-01-23_06h00.54.101,bars,2023.2.3,Win32,59.88023952,657b66ea316d21385b68909f,,,,,,,,,,,1252.9056,1253.899,,,1254.3989,1254.6489,,111,111,,,,,,,,,,,,,,,,bars/008.png,bars/mask002.png,,,,,,,,,,,,5,1,,,,,,,4,0,5,1,,,,,,,,,,,1253.899,1254.3989,1254.6489,1256.249,space,1.5919,,1256.249,1,69,1257.2489,1257.2489,1257.2495,,,,0,25,25,25,1,110,0,,,,,,,,
,,5f458cb79f9aa31a7d7ab81b,65af55fd304b05200d920863,2024-01-23_06h00.54.101,bars,2023.2.3,Win32,59.88023952,657b66ea316d21385b68909f,,,,,,,,,,,1257.2497,1258.2488,,,1258.7488,1258.9989,,104,104,,,,,,,,,,,,,,,,bars/025.png,bars/mask005.png,,,,,,,,,,,,7,1,,,,,,,6,2,7,2,,,,,,,,,,,1258.2489,1258.7488,1258.9989,1261.799,space,2.7863,,1261.7991,1,64,1262.7986,1262.7986,1262.8052,,,,0,26,26,26,1,105,40,,,,,,,,
,,5f458cb79f9aa31a7d7ab81b,65af55fd304b05200d920863,2024-01-23_06h00.54.101,bars,2023.2.3,Win32,59.88023952,657b66ea316d21385b68909f,,,,,,,,,,,1262.8054,1263.7986,,,1264.2988,1264.5486,,78,78,,,,,,,,,,,,,,,,bars/012.png,bars/mask000.png,,,,,,,,,,,,5,1,,,,,,,8,0,8,0,,,,,,,,,,,1263.7987,1264.2988,1264.5486,1267.1321,space,2.5717,,1267.1322,12,63,1268.132,1268.132,1268.1386,,,,0,27,27,27,1,90,15,,,,,,,,
,,5f458cb79f9aa31a7d7ab81b,65af55fd304b05200d920863,2024-01-23_06h00.54.101,bars,2023.2.3,Win32,59.88023952,657b66ea316d21385b68909f,,,,,,,,,,,1268.1388,1269.1319,,,1269.6318,1269.8822,,116,116,,,,,,,,,,,,,,,,bars/003.png,bars/mask006.png,,,,,,,,,,,,0,2,,,,,,,6,2,7,0,,,,,,,,,,,1269.132,1269.6318,1269.8822,1273.1152,space,3.2227,,1273.1152,89,24,1274.1151,1274.1151,1274.1231,,,,0,28,28,28,1,25,140,,,,,,,,
,,5f458cb79f9aa31a7d7ab81b,65af55fd304b05200d920863,2024-01-23_06h00.54.101,bars,2023.2.3,Win32,59.88023952,657b66ea316d21385b68909f,,,,,,,,,,,1274.1232,1275.1151,,,1275.615,1275.865,,178,178,,,,,,,,,,,,,,,,bars/023.png,bars/mask002.png,,,,,,,,,,,,2,1,,,,,,,8,4,7,4,,,,,,,,,,,1275.1151,1275.615,1275.8651,1279.2317,space,3.3598,,1279.2318,22,63,1280.2317,1280.2317,1280.2392,,,,0,29,29,29,1,20,115,,,,,,,,
,,5f458cb79f9aa31a7d7ab81b,65af55fd304b05200d920863,2024-01-23_06h00.54.101,bars,2023.2.3,Win32,59.88023952,657b66ea316d21385b68909f,,,,,,,,,,,1280.2394,1281.2316,,,1281.7316,1281.9815,,64,64,,,,,,,,,,,,,,,,bars/044.png,bars/mask003.png,,,,,,,,,,,,6,1,,,,,,,10,6,10,6,,,,,,,,,,,1281.2316,1281.7316,1281.9815,1284.4483,space,2.451,,1284.4485,11,89,1285.448,1285.448,1285.4549,,,,0,30,30,30,1,75,155,,,,,,,,
,,5f458cb79f9aa31a7d7ab81b,65af55fd304b05200d920863,2024-01-23_06h00.54.101,bars,2023.2.3,Win32,59.88023952,657b66ea316d21385b68909f,,,,,,,,,,,1285.4551,1286.4482,,,1286.9482,1287.1981,,110,110,,,,,,,,,,,,,,,,bars/008.png,bars/mask002.png,,,,,,,,,,,,10,1,,,,,,,10,8,10,9,,,,,,,,,,,1286.4482,1286.9481,1287.1981,1289.665,space,2.4586,,1289.665,0,70,1290.6647,1290.6647,1290.6716,,,,0,31,31,31,1,110,0,,,,,,,,
,,5f458cb79f9aa31a7d7ab81b,65af55fd304b05200d920863,2024-01-23_06h00.54.101,bars,2023.2.3,Win32,59.88023952,657b66ea316d21385b68909f,,,,,,,,,,,1290.6717,1291.6647,,,1292.1649,1292.4144,,110,110,,,,,,,,,,,,,,,,bars/027.png,bars/mask006.png,,,,,,,,,,,,9,1,,,,,,,10,10,9,9,,,,,,,,,,,1291.6647,1292.1648,1292.4145,1294.6981,space,2.2747,,1294.6981,0,60,1295.6979,1295.6979,1295.6984,,,,0,32,32,32,1,110,50,,,,,,,,
,,5f458cb79f9aa31a7d7ab81b,65af55fd304b05200d920863,2024-01-23_06h00.54.101,bars,2023.2.3,Win32,59.88023952,657b66ea316d21385b68909f,,,,,,,,,,,1295.6987,1296.6979,,,1297.1979,1297.4481,,157,-23,,,,,,,,,,,,,,,,bars/035.png,bars/mask001.png,,,,,,,,,,,,4,1,,,,,,,8,10,9,10,,,,,,,,,,,1296.6979,1297.1979,1297.4481,1300.4813,space,3.0164,,1300.4814,18,83,1301.4811,1301.4811,1301.4879,,,,0,33,33,33,1,175,60,,,,,,,,
,,5f458cb79f9aa31a7d7ab81b,65af55fd304b05200d920863,2024-01-23_06h00.54.101,bars,2023.2.3,Win32,59.88023952,657b66ea316d21385b68909f,,,,,,,,,,,1301.488,1302.4811,,,1302.9811,1303.231,,37,37,,,,,,,,,,,,,,,,bars/007.png,bars/mask007.png,,,,,,,,,,,,3,2,,,,,,,10,8,10,8,,,,,,,,,,,1302.4811,1302.9811,1303.2311,1304.2811,space,1.0337,,1304.2811,42,18,1305.2809,1305.281,1305.2826,,,,0,34,34,34,1,175,55,,,,,,,,
,,5f458cb79f9aa31a7d7ab81b,65af55fd304b05200d920863,2024-01-23_06h00.54.101,bars,2023.2.3,Win32,59.88023952,657b66ea316d21385b68909f,,,,,,,,,,,1305.2828,1306.2809,,,1306.781,1307.0311,,25,205,,,,,,,,,,,,,,,,bars/022.png,bars/mask007.png,,,,,,,,,,,,6,2,,,,,,,10,6,10,7,,,,,,,,,,,1306.2809,1306.781,1307.0311,1309.7643,space,2.7299,,1309.7643,70,5,1310.7642,1310.7642,1310.7713,,,,0,35,35,35,1,95,20,,,,,,,,
,,5f458cb79f9aa31a7d7ab81b,65af55fd304b05200d920863,2024-01-23_06h00.54.101,bars,2023.2.3,Win32,59.88023952,657b66ea316d21385b68909f,,,,,,,,,,,1310.7714,1311.7644,,,1312.2642,1312.5141,,104,104,,,,,,,,,,,,,,,,bars/009.png,bars/mask006.png,,,,,,,,,,,,6,2,,,,,,,8,8,8,6,,,,,,,,,,,1311.7644,1312.2641,1312.5141,1314.0643,space,1.5427,,1314.0644,89,1,1315.0641,1315.0641,1315.0648,,,,0,36,36,36,1,15,105,,,,,,,,
,,5f458cb79f9aa31a7d7ab81b,65af55fd304b05200d920863,2024-01-23_06h00.54.101,bars,2023.2.3,Win32,59.88023952,657b66ea316d21385b68909f,,,,,,,,,,,1315.065,1316.0641,,,1316.5642,1316.8141,,53,53,,,,,,,,,,,,,,,,bars/025.png,bars/mask003.png,,,,,,,,,,,,6,2,,,,,,,10,10,9,10,,,,,,,,,,,1316.0641,1316.5641,1316.8141,1319.6641,space,2.8427,,1319.6641,52,13,1320.664,1320.664,1320.6708,,,,0,37,37,37,1,105,40,,,,,,,,
,,5f458cb79f9aa31a7d7ab81b,65af55fd304b05200d920863,2024-01-23_06h00.54.101,bars,2023.2.3,Win32,59.88023952,657b66ea316d21385b68909f,,,,,,,,,,,1320.671,1321.6639,,,1322.164,1322.4139,,64,64,,,,,,,,,,,,,,,,bars/035.png,bars/mask005.png,,,,,,,,,,,,9,2,,,,,,,10,10,8,10,,,,,,,,,,,1321.6639,1322.1639,1322.4139,1324.7974,space,2.3706,,1324.7975,69,4,1325.7974,1325.7974,1325.798,,,,0,38,38,38,1,175,60,,,,,,,,
,,5f458cb79f9aa31a7d7ab81b,65af55fd304b05200d920863,2024-01-23_06h00.54.101,bars,2023.2.3,Win32,59.88023952,657b66ea316d21385b68909f,,,,,,,,,,,1325.7983,1326.7971,,,1327.2971,1327.5472,,64,244,,,,,,,,,,,,,,,,bars/017.png,bars/mask007.png,,,,,,,,,,,,3,2,,,,,,,10,10,8,9,,,,,,,,,,,1326.7972,1327.2971,1327.5472,1331.9638,space,4.4137,,1331.9638,81,19,1332.9639,1332.9639,1332.9707,,,,0,39,39,39,1,145,45,,,,,,,,
,,5f458cb79f9aa31a7d7ab81b,65af55fd304b05200d920863,2024-01-23_06h00.54.101,bars,2023.2.3,Win32,59.88023952,657b66ea316d21385b68909f,,,,,,,,,,,1332.9709,1333.9637,,,1334.4637,1334.7136,,118,118,,,,,,,,,,,,,,,,bars/002.png,bars/mask001.png,,,,,,,,,,,,6,1,,,,,,,8,10,10,10,,,,,,,,,,,1333.9637,1334.4636,1334.7136,1337.0471,space,2.3274,,1337.0472,12,33,1338.0469,1338.0469,1338.0487,,,,0,40,40,40,1,130,85,,,,,,,,
,,5f458cb79f9aa31a7d7ab81b,65af55fd304b05200d920863,2024-01-23_06h00.54.101,bars,2023.2.3,Win32,59.88023952,657b66ea316d21385b68909f,,,,,,,,,,,1338.0488,1339.0469,,,1339.5469,1339.7969,,35,35,,,,,,,,,,,,,,,,bars/043.png,bars/mask003.png,,,,,,,,,,,,8,1,,,,,,,10,10,10,10,,,,,,,,,,,1339.047,1339.5469,1339.7969,1341.5303,space,1.724,,1341.5303,5,85,1342.5302,1342.5302,1342.5367,,,,0,41,41,41,1,30,130,,,,,,,,
,,5f458cb79f9aa31a7d7ab81b,65af55fd304b05200d920863,2024-01-23_06h00.54.101,bars,2023.2.3,Win32,59.88023952,657b66ea316d21385b68909f,,,,,,,,,,,1342.5369,1343.5301,,,1344.0301,1344.2802,,95,95,,,,,,,,,,,,,,,,bars/031.png,bars/mask003.png,,,,,,,,,,,,1,1,,,,,,,10,10,9,10,,,,,,,,,,,1343.5302,1344.0301,1344.2802,1345.4134,space,1.1292,,1345.4135,25,60,1346.4134,1346.4134,1346.4201,,,,0,42,42,42,1,120,35,,,,,,,,
,,5f458cb79f9aa31a7d7ab81b,65af55fd304b05200d920863,2024-01-23_06h00.54.101,bars,2023.2.3,Win32,59.88023952,657b66ea316d21385b68909f,,,,,,,,,,,1346.4202,1347.4134,,,1347.9134,1348.1634,,61,61,,,,,,,,,,,,,,,,bars/046.png,bars/mask002.png,,,,,,,,,,,,2,2,,,,,,,8,10,8,10,,,,,,,,,,,1347.4134,1347.9134,1348.1634,1349.9467,space,1.7736,,1349.9468,86,24,1350.9466,1350.9467,1350.954,,,,0,43,43,43,1,155,85,,,,,,,,
,,5f458cb79f9aa31a7d7ab81b,65af55fd304b05200d920863,2024-01-23_06h00.54.101,bars,2023.2.3,Win32,59.88023952,657b66ea316d21385b68909f,,,,,,,,,,,1350.9542,1351.9465,,,1352.4466,1352.6966,,153,-27,,,,,,,,,,,,,,,,bars/044.png,bars/mask001.png,,,,,,,,,,,,8,2,,,,,,,6,8,6,9,,,,,,,,,,,1351.9465,1352.4466,1352.6966,1355.3965,space,2.6965,,1355.3966,78,2,1356.3965,1356.3965,1356.4034,,,,0,44,44,44,1,75,155,,,,,,,,
,,5f458cb79f9aa31a7d7ab81b,65af55fd304b05200d920863,2024-01-23_06h00.54.101,bars,2023.2.3,Win32,59.88023952,657b66ea316d21385b68909f,,,,,,,,,,,1356.4036,1357.3964,,,1357.8966,1358.1466,,49,49,,,,,,,,,,,,,,,,bars/007.png,bars/mask004.png,,,,,,,,,,,,6,2,,,,,,,4,6,3,7,,,,,,,,,,,1357.3965,1357.8965,1358.1467,1360.3131,space,2.1508,,1360.3131,54,6,1361.313,1361.3131,1361.3197,,,,0,45,45,45,1,175,55,,,,,,,,
,,5f458cb79f9aa31a7d7ab81b,65af55fd304b05200d920863,2024-01-23_06h00.54.101,bars,2023.2.3,Win32,59.88023952,657b66ea316d21385b68909f,,,,,,,,,,,1361.3199,1362.3131,,,1362.8131,1363.063,,47,47,,,,,,,,,,,,,,,,bars/028.png,bars/mask000.png,,,,,,,,,,,,5,1,,,,,,,6,4,5,4,,,,,,,,,,,1362.3131,1362.813,1363.063,1365.2463,space,2.17,,1365.2464,2,73,1366.2462,1366.2462,1366.2538,,,,0,46,46,46,1,45,120,,,,,,,,
,,5f458cb79f9aa31a7d7ab81b,65af55fd304b05200d920863,2024-01-23_06h00.54.101,bars,2023.2.3,Win32,59.88023952,657b66ea316d21385b68909f,,,,,,,,,,,1366.2539,1367.2461,,,1367.7462,1367.9963,,91,91,,,,,,,,,,,,,,,,bars/019.png,bars/mask005.png,,,,,,,,,,,,1,2,,,,,,,8,2,7,1,,,,,,,,,,,1367.2462,1367.7462,1367.9963,1370.1462,space,2.1407,,1370.1463,46,14,1371.1462,1371.1462,1371.1537,,,,0,47,47,47,1,45,105,,,,,,,,
,,5f458cb79f9aa31a7d7ab81b,65af55fd304b05200d920863,2024-01-23_06h00.54.101,bars,2023.2.3,Win32,59.88023952,657b66ea316d21385b68909f,,,,,,,,,,,1371.1538,1372.146,,,1372.6462,1372.8961,,127,-53,,,,,,,,,,,,,,,,bars/024.png,bars/mask002.png,,,,,,,,,,,,5,1,,,,,,,6,4,6,4,,,,,,,,,,,1372.1461,1372.6461,1372.8961,1377.6794,space,4.7686,,1377.6794,7,43,1378.6792,1378.6792,1378.6865,,,,0,48,48,48,1,120,170,,,,,,,,
,,5f458cb79f9aa31a7d7ab81b,65af55fd304b05200d920863,2024-01-23_06h00.54.101,bars,2023.2.3,Win32,59.88023952,657b66ea316d21385b68909f,,,,,,,,,,,1378.6866,1379.6793,,,1380.1793,1380.4293,,160,-20,,,,,,,,,,,,,,,,bars/049.png,bars/mask005.png,,,,,,,,,,,,4,1,,,,,,,4,6,4,5,,,,,,,,,,,1379.6794,1380.1793,1380.4293,1383.0126,space,2.5796,,1383.0126,0,45,1384.0124,1384.0124,1384.013,,,,0,49,49,49,1,160,115,,,,,,,,
,,5f458cb79f9aa31a7d7ab81b,65af55fd304b05200d920863,2024-01-23_06h00.54.101,bars,2023.2.3,Win32,59.88023952,657b66ea316d21385b68909f,,,,,,,,,,,,,,,,,,,,,,,,,,,,,,,,,,,,,,,,,,,,,,,,,,,,,,,,,,,,,,,,,,,,,,,,,,,,,,,,,,,,,,,,,,,,,1384.0132,1444.0111,0,2,2,4,1,sequence_tables/blk033.csv
,,5f458cb79f9aa31a7d7ab81b,65af55fd304b05200d920863,2024-01-23_06h00.54.101,bars,2023.2.3,Win32,59.88023952,657b66ea316d21385b68909f,,,,,,,,,,,1484.5376,1485.5268,,,1486.0268,1486.2767,,89,89,,,,,,,,,,,,,,,,bars/002.png,bars/mask000.png,,,,,,,,,,,,0,2,,,,,,,10,1,8,0,,,,,,1444.0183,1484.5269,space,40.4942,,1485.5268,1486.0268,1486.2768,1489.4768,space,3.1963,,1489.4768,41,4,1490.4766,1490.4767,1490.4842,,,,0,0,0,0,1,130,85,,,,,,,,
,,5f458cb79f9aa31a7d7ab81b,65af55fd304b05200d920863,2024-01-23_06h00.54.101,bars,2023.2.3,Win32,59.88023952,657b66ea316d21385b68909f,,,,,,,,,,,1490.4844,1491.4766,,,1491.9767,1492.2266,,137,-43,,,,,,,,,,,,,,,,bars/024.png,bars/mask000.png,,,,,,,,,,,,3,1,,,,,,,8,0,8,0,,,,,,,,,,,1491.4766,1491.9767,1492.2266,1496.3599,space,4.1189,,1496.36,17,33,1497.3597,1497.3597,1497.3672,,,,0,1,1,1,1,120,170,,,,,,,,
,,5f458cb79f9aa31a7d7ab81b,65af55fd304b05200d920863,2024-01-23_06h00.54.101,bars,2023.2.3,Win32,59.88023952,657b66ea316d21385b68909f,,,,,,,,,,,1497.3673,1498.3598,,,1498.8599,1499.1098,,50,50,,,,,,,,,,,,,,,,bars/043.png,bars/mask006.png,,,,,,,,,,,,2,1,,,,,,,6,0,5,0,,,,,,,,,,,1498.3599,1498.8599,1499.1098,1503.1931,space,4.0668,,1503.1931,20,80,1504.193,1504.193,1504.1996,,,,0,2,2,2,1,30,130,,,,,,,,
,,5f458cb79f9aa31a7d7ab81b,65af55fd304b05200d920863,2024-01-23_06h00.54.101,bars,2023.2.3,Win32,59.88023952,657b66ea316d21385b68909f,,,,,,,,,,,1504.1998,1505.1929,,,1505.693,1505.943,,36,36,,,,,,,,,,,,,,,,bars/031.png,bars/mask003.png,,,,,,,,,,,,0,2,,,,,,,4,2,3,0,,,,,,,,,,,1505.1929,1505.693,1505.943,1507.7597,space,1.8101,,1507.7597,84,1,1508.7596,1508.7596,1508.7674,,,,0,3,3,3,1,120,35,,,,,,,,
,,5f458cb79f9aa31a7d7ab81b,65af55fd304b05200d920863,2024-01-23_06h00.54.101,bars,2023.2.3,Win32,59.88023952,657b66ea316d21385b68909f,,,,,,,,,,,1508.7676,1509.7593,,,1510.2595,1510.5096,,173,173,,,,,,,,,,,,,,,,bars/024.png,bars/mask000.png,,,,,,,,,,,,0,2,,,,,,,6,0,5,0,,,,,,,,,,,1509.7595,1510.2595,1510.5097,1514.493,space,3.9797,,1514.493,53,3,1515.4927,1515.4927,1515.4994,,,,0,4,4,4,1,120,170,,,,,,,,
,,5f458cb79f9aa31a7d7ab81b,65af55fd304b05200d920863,2024-01-23_06h00.54.101,bars,2023.2.3,Win32,59.88023952,657b66ea316d21385b68909f,,,,,,,,,,,1515.4995,1516.4926,,,1516.9927,1517.2427,,116,116,,,,,,,,,,,,,,,,bars/024.png,bars/mask001.png,,,,,,,,,,,,9,1,,,,,,,8,2,10,5,,,,,,,,,,,1516.4926,1516.9927,1517.2427,1519.7594,space,2.5022,,1519.7595,4,54,1520.7593,1520.7593,1520.7667,,,,0,5,5,5,1,120,170,,,,,,,,
,,5f458cb79f9aa31a7d7ab81b,65af55fd304b05200d920863,2024-01-23_06h00.54.101,bars,2023.2.3,Win32,59.88023952,657b66ea316d21385b68909f,,,,,,,,,,,1520.7669,1521.7592,,,1522.2593,1522.5092,,47,227,,,,,,,,,,,,,,,,bars/028.png,bars/mask000.png,,,,,,,,,,,,9,1,,,,,,,10,0,10,1,,,,,,,,,,,1521.7592,1522.2593,1522.5092,1525.426,space,2.9001,,1525.426,2,73,1526.4259,1526.4259,1526.4324,,,,0,6,6,6,1,45,120,,,,,,,,
,,5f458cb79f9aa31a7d7ab81b,65af55fd304b05200d920863,2024-01-23_06h00.54.101,bars,2023.2.3,Win32,59.88023952,657b66ea316d21385b68909f,,,,,,,,,,,1526.4326,1527.4259,,,1527.9259,1528.1758,,32,32,,,,,,,,,,,,,,,,bars/033.png,bars/mask000.png,,,,,,,,,,,,8,1,,,,,,,10,0,10,0,,,,,,,,,,,1527.4259,1527.9259,1528.1758,1530.2592,space,2.0739,,1530.2592,7,57,1531.259,1531.259,1531.2655,,,,0,7,7,7,1,25,155,,,,,,,,
,,5f458cb79f9aa31a7d7ab81b,65af55fd304b05200d920863,2024-01-23_06h00.54.101,bars,2023.2.3,Win32,59.88023952,657b66ea316d21385b68909f,,,,,,,,,,,1531.2656,1532.2591,,,1532.7591,1533.009,,55,235,,,,,,,,,,,,,,,,bars/044.png,bars/mask002.png,,,,,,,,,,,,3,1,,,,,,,10,0,8,0,,,,,,,,,,,1532.2591,1532.7591,1533.009,1536.959,space,3.9442,,1536.9591,20,80,1537.9588,1537.9588,1537.9654,,,,0,8,8,8,1,75,155,,,,,,,,
,,5f458cb79f9aa31a7d7ab81b,65af55fd304b05200d920863,2024-01-23_06h00.54.101,bars,2023.2.3,Win32,59.88023952,657b66ea316d21385b68909f,,,,,,,,,,,1537.9657,1538.9588,,,1539.4588,1539.7088,,46,46,,,,,,,,,,,,,,,,bars/007.png,bars/mask005.png,,,,,,,,,,,,0,2,,,,,,,8,0,9,0,,,,,,,,,,,1538.9588,1539.4588,1539.7088,1543.5755,space,3.852,,1543.5755,51,9,1544.5754,1544.5755,1544.5829,,,,0,9,9,9,1,175,55,,,,,,,,
,,5f458cb79f9aa31a7d7ab81b,65af55fd304b05200d920863,2024-01-23_06h00.54.101,bars,2023.2.3,Win32,59.88023952,657b66ea316d21385b68909f,,,,,,,,,,,1544.583,1545.5753,,,1546.0753,1546.3255,,48,48,,,,,,,,,,,,,,,,bars/035.png,bars/mask005.png,,,,,,,,,,,,2,2,,,,,,,10,2,7,4,,,,,,,,,,,1545.5754,1546.0753,1546.3255,1550.0421,space,3.7077,,1550.0421,53,12,1551.0419,1551.0419,1551.0485,,,,0,10,10,10,1,175,60,,,,,,,,
,,5f458cb79f9aa31a7d7ab81b,65af55fd304b05200d920863,2024-01-23_06h00.54.101,bars,2023.2.3,Win32,59.88023952,657b66ea316d21385b68909f,,,,,,,,,,,1551.0487,1552.0419,,,1552.5419,1552.7918,,123,123,,,,,,,,,,,,,,,,bars/049.png,bars/mask000.png,,,,,,,,,,,,3,2,,,,,,,10,4,10,4,,,,,,,,,,,1552.0419,1552.5418,1552.7919,1554.3585,space,1.5611,,1554.3586,37,8,1555.3584,1555.3585,1555.3651,,,,0,11,11,11,1,160,115,,,,,,,,
,,5f458cb79f9aa31a7d7ab81b,65af55fd304b05200d920863,2024-01-23_06h00.54.101,bars,2023.2.3,Win32,59.88023952,657b66ea316d21385b68909f,,,,,,,,,,,1555.3653,1556.3584,,,1556.8585,1557.1084,,57,57,,,,,,,,,,,,,,,,bars/017.png,bars/mask008.png,,,,,,,,,,,,5,2,,,,,,,8,6,7,8,,,,,,,,,,,1556.3584,1556.8584,1557.1084,1560.8592,space,3.7487,,1560.8592,88,12,1561.8583,1561.8584,1561.8649,,,,0,12,12,12,1,145,45,,,,,,,,
,,5f458cb79f9aa31a7d7ab81b,65af55fd304b05200d920863,2024-01-23_06h00.54.101,bars,2023.2.3,Win32,59.88023952,657b66ea316d21385b68909f,,,,,,,,,,,1561.8651,1562.8583,,,1563.3583,1563.6083,,38,38,,,,,,,,,,,,,,,,bars/022.png,bars/mask007.png,,,,,,,,,,,,1,2,,,,,,,6,4,6,2,,,,,,,,,,,1562.8584,1563.3583,1563.6083,1566.1586,space,2.5453,,1566.1586,57,18,1567.1581,1567.1582,1567.1647,,,,0,13,13,13,1,95,20,,,,,,,,
,,5f458cb79f9aa31a7d7ab81b,65af55fd304b05200d920863,2024-01-23_06h00.54.101,bars,2023.2.3,Win32,59.88023952,657b66ea316d21385b68909f,,,,,,,,,,,1567.1649,1568.1581,,,1568.6582,1568.9081,,33,213,,,,,,,,,,,,,,,,bars/005.png,bars/mask006.png,,,,,,,,,,,,1,1,,,,,,,4,6,4,6,,,,,,,,,,,1568.1582,1568.6582,1568.9081,1572.1915,space,3.2773,,1572.1916,23,73,1573.1914,1573.1914,1573.1992,,,,0,14,14,14,1,10,140,,,,,,,,
,,5f458cb79f9aa31a7d7ab81b,65af55fd304b05200d920863,2024-01-23_06h00.54.101,bars,2023.2.3,Win32,59.88023952,657b66ea316d21385b68909f,,,,,,,,,,,1573.1994,1574.1913,,,1574.6914,1574.9414,,16,196,,,,,,,,,,,,,,,,bars/010.png,bars/mask006.png,,,,,,,,,,,,0,1,,,,,,,6,4,5,3,,,,,,,,,,,1574.1914,1574.6914,1574.9414,1578.2247,space,3.2678,,1578.2247,31,39,1579.2246,1579.2246,1579.2312,,,,0,15,15,15,1,165,55,,,,,,,,
,,5f458cb79f9aa31a7d7ab81b,65af55fd304b05200d920863,2024-01-23_06h00.54.101,bars,2023.2.3,Win32,59.88023952,657b66ea316d21385b68909f,,,,,,,,,,,1579.2313,1580.2245,,,1580.7245,1580.9745,,150,150,,,,,,,,,,,,,,,,bars/016.png,bars/mask003.png,,,,,,,,,,,,2,2,,,,,,,4,2,3,3,,,,,,,,,,,1580.2245,1580.7245,1580.9745,1583.2079,space,2.218,,1583.2079,70,15,1584.2078,1584.2078,1584.2095,,,,0,16,16,16,1,40,165,,,,,,,,
,,5f458cb79f9aa31a7d7ab81b,65af55fd304b05200d920863,2024-01-23_06h00.54.101,bars,2023.2.3,Win32,59.88023952,657b66ea316d21385b68909f,,,,,,,,,,,1584.2097,1585.2077,,,1585.7078,1585.9577,,84,84,,,,,,,,,,,,,,,,bars/002.png,bars/mask002.png,,,,,,,,,,,,4,2,,,,,,,2,4,2,4,,,,,,,,,,,1585.2077,1585.7078,1585.9577,1587.5244,space,1.5552,,1587.5245,46,1,1588.5244,1588.5244,1588.525,,,,0,17,17,17,1,130,85,,,,,,,,
,,5f458cb79f9aa31a7d7ab81b,65af55fd304b05200d920863,2024-01-23_06h00.54.101,bars,2023.2.3,Win32,59.88023952,657b66ea316d21385b68909f,,,,,,,,,,,1588.5251,1589.5243,,,1590.0244,1590.2742,,157,157,,,,,,,,,,,,,,,,bars/016.png,bars/mask004.png,,,,,,,,,,,,1,2,,,,,,,0,2,0,2,,,,,,,,,,,1589.5243,1590.0243,1590.2743,1594.1077,space,3.8304,,1594.1078,63,8,1595.1075,1595.1075,1595.1141,,,,0,18,18,18,1,40,165,,,,,,,,
,,5f458cb79f9aa31a7d7ab81b,65af55fd304b05200d920863,2024-01-23_06h00.54.101,bars,2023.2.3,Win32,59.88023952,657b66ea316d21385b68909f,,,,,,,,,,,1595.1143,1596.1075,,,1596.6075,1596.8574,,83,83,,,,,,,,,,,,,,,,bars/011.png,bars/mask007.png,,,,,,,,,,,,4,2,,,,,,,0,4,0,4,,,,,,,,,,,1596.1075,1596.6075,1596.8575,1598.5908,space,1.7195,,1598.5908,77,2,1599.5906,1599.5907,1599.5912,,,,0,19,19,19,1,160,85,,,,,,,,
,,5f458cb79f9aa31a7d7ab81b,65af55fd304b05200d920863,2024-01-23_06h00.54.101,bars,2023.2.3,Win32,59.88023952,657b66ea316d21385b68909f,,,,,,,,,,,1599.5914,1600.5908,,,1601.0907,1601.3408,,60,60,,,,,,,,,,,,,,,,bars/047.png,bars/mask000.png,,,,,,,,,,,,2,2,,,,,,,2,2,1,3,,,,,,,,,,,1600.5908,1601.0907,1601.3408,1605.6408,space,4.292,,1605.6408,45,10,1606.6407,1606.6407,1606.6479,,,,0,20,20,20,1,15,70,,,,,,,,
,,5f458cb79f9aa31a7d7ab81b,65af55fd304b05200d920863,2024-01-23_06h00.54.101,bars,2023.2.3,Win32,59.88023952,657b66ea316d21385b68909f,,,,,,,,,,,1606.6479,1607.6405,,,1608.1405,1608.3906,,16,16,,,,,,,,,,,,,,,,bars/032.png,bars/mask007.png,,,,,,,,,,,,4,2,,,,,,,0,4,0,5,,,,,,,,,,,1607.6405,1608.1405,1608.3906,1610.424,space,2.0187,,1610.424,71,4,1611.4238,1611.4238,1611.4305,,,,0,21,21,21,1,125,20,,,,,,,,
,,5f458cb79f9aa31a7d7ab81b,65af55fd304b05200d920863,2024-01-23_06h00.54.101,bars,2023.2.3,Win32,59.88023952,657b66ea316d21385b68909f,,,,,,,,,,,1611.4307,1612.4238,,,1612.9238,1613.1738,,98,98,,,,,,,,,,,,,,,,bars/001.png,bars/mask003.png,,,,,,,,,,,,1,2,,,,,,,2,2,2,2,,,,,,,,,,,1612.4238,1612.9238,1613.1738,1617.1905,space,4.0033,,1617.1905,32,13,1618.1904,1618.1904,1618.1971,,,,0,22,22,22,1,130,85,,,,,,,,
,,5f458cb79f9aa31a7d7ab81b,65af55fd304b05200d920863,2024-01-23_06h00.54.101,bars,2023.2.3,Win32,59.88023952,657b66ea316d21385b68909f,,,,,,,,,,,1618.1972,1619.1903,,,1619.6905,1619.9403,,163,163,,,,,,,,,,,,,,,,bars/021.png,bars/mask007.png,,,,,,,,,,,,0,1,,,,,,,0,4,0,2,,,,,,,,,,,1619.1903,1619.6905,1619.9403,1623.0903,space,3.1409,,1623.0903,8,87,1624.0902,1624.0902,1624.0979,,,,0,23,23,23,1,155,70,,,,,,,,
,,5f458cb79f9aa31a7d7ab81b,65af55fd304b05200d920863,2024-01-23_06h00.54.101,bars,2023.2.3,Win32,59.88023952,657b66ea316d21385b68909f,,,,,,,,,,,1624.0981,1625.0901,,,1625.5902,1625.8402,,166,-14,,,,,,,,,,,,,,,,bars/014.png,bars/mask002.png,,,,,,,,,,,,1,2,,,,,,,2,2,2,1,,,,,,,,,,,1625.0901,1625.5902,1625.8402,1629.1235,space,3.2672,,1629.1235,86,14,1630.1234,1630.1234,1630.1312,,,,0,24,24,24,1,80,0,,,,,,,,
,,5f458cb79f9aa31a7d7ab81b,65af55fd304b05200d920863,2024-01-23_06h00.54.101,bars,2023.2.3,Win32,59.88023952,657b66ea316d21385b68909f,,,,,,,,,,,1630.1313,1631.1234,,,1631.6233,1631.8736,,65,65,,,,,,,,,,,,,,,,bars/010.png,bars/mask001.png,,,,,,,,,,,,3,2,,,,,,,4,4,3,5,,,,,,,,,,,1631.1234,1631.6233,1631.8736,1634.8399,space,2.9513,,1634.84,80,10,1635.8399,1635.84,1635.8467,,,,0,25,25,25,1,165,55,,,,,,,,
,,5f458cb79f9aa31a7d7ab81b,65af55fd304b05200d920863,2024-01-23_06h00.54.101,bars,2023.2.3,Win32,59.88023952,657b66ea316d21385b68909f,,,,,,,,,,,1635.8469,1636.8398,,,1637.3398,1637.5899,,30,30,,,,,,,,,,,,,,,,bars/036.png,bars/mask002.png,,,,,,,,,,,,2,2,,,,,,,6,2,6,3,,,,,,,,,,,1636.84,1637.3398,1637.59,1640.1399,space,2.5334,,1640.1399,65,10,1641.1397,1641.1397,1641.1466,,,,0,26,26,26,1,145,20,,,,,,,,
,,5f458cb79f9aa31a7d7ab81b,65af55fd304b05200d920863,2024-01-23_06h00.54.101,bars,2023.2.3,Win32,59.88023952,657b66ea316d21385b68909f,,,,,,,,,,,1641.1467,1642.1398,,,1642.6397,1642.8898,,139,139,,,,,,,,,,,,,,,,bars/035.png,bars/mask005.png,,,,,,,,,,,,0,1,,,,,,,8,4,7,4,,,,,,,,,,,1642.1398,1642.6397,1642.8898,1644.9231,space,2.0236,,1644.9231,36,79,1645.923,1645.923,1645.9245,,,,0,27,27,27,1,175,60,,,,,,,,
,,5f458cb79f9aa31a7d7ab81b,65af55fd304b05200d920863,2024-01-23_06h00.54.101,bars,2023.2.3,Win32,59.88023952,657b66ea316d21385b68909f,,,,,,,,,,,1645.9247,1646.9229,,,1647.423,1647.6729,,44,44,,,,,,,,,,,,,,,,bars/027.png,bars/mask008.png,,,,,,,,,,,,4,2,,,,,,,10,6,10,5,,,,,,,,,,,1646.9229,1647.423,1647.673,1649.1396,space,1.4503,,1649.1396,66,6,1650.1395,1650.1396,1650.1411,,,,0,28,28,28,1,110,50,,,,,,,,
,,5f458cb79f9aa31a7d7ab81b,65af55fd304b05200d920863,2024-01-23_06h00.54.101,bars,2023.2.3,Win32,59.88023952,657b66ea316d21385b68909f,,,,,,,,,,,1650.1412,1651.1395,,,1651.6396,1651.8895,,48,48,,,,,,,,,,,,,,,,bars/031.png,bars/mask000.png,,,,,,,,,,,,2,2,,,,,,,10,4,10,4,,,,,,,,,,,1651.1395,1651.6395,1651.8896,1655.9394,space,4.0396,,1655.9395,72,13,1656.9393,1656.9394,1656.9464,,,,0,29,29,29,1,120,35,,,,,,,,
,,5f458cb79f9aa31a7d7ab81b,65af55fd304b05200d920863,2024-01-23_06h00.54.101,bars,2023.2.3,Win32,59.88023952,657b66ea316d21385b68909f,,,,,,,,,,,1656.9466,1657.9393,,,1658.4393,1658.6894,,89,89,,,,,,,,,,,,,,,,bars/013.png,bars/mask008.png,,,,,,,,,,,,4,1,,,,,,,8,6,7,5,,,,,,,,,,,1657.9394,1658.4393,1658.6894,1661.3227,space,2.6169,,1661.3228,14,79,1662.3225,1662.3226,1662.33,,,,0,30,30,30,1,75,10,,,,,,,,
,,5f458cb79f9aa31a7d7ab81b,65af55fd304b05200d920863,2024-01-23_06h00.54.101,bars,2023.2.3,Win32,59.88023952,657b66ea316d21385b68909f,,,,,,,,,,,1662.3303,1663.3226,,,1663.8227,1664.0725,,167,-13,,,,,,,,,,,,,,,,bars/039.png,bars/mask001.png,,,,,,,,,,,,4,1,,,,,,,6,8,6,10,,,,,,,,,,,1663.3226,1663.8226,1664.0726,1667.1727,space,3.0969,,1667.1728,8,62,1668.1725,1668.1725,1668.1793,,,,0,31,31,31,1,175,105,,,,,,,,
,,5f458cb79f9aa31a7d7ab81b,65af55fd304b05200d920863,2024-01-23_06h00.54.101,bars,2023.2.3,Win32,59.88023952,657b66ea316d21385b68909f,,,,,,,,,,,1668.1796,1669.1724,,,1669.6725,1669.9226,,163,-17,,,,,,,,,,,,,,,,bars/008.png,bars/mask002.png,,,,,,,,,,,,4,2,,,,,,,4,10,4,10,,,,,,,,,,,1669.1724,1669.6725,1669.9226,1671.9725,space,2.0465,,1671.9726,53,17,1672.9724,1672.9724,1672.9799,,,,0,32,32,32,1,110,0,,,,,,,,
,,5f458cb79f9aa31a7d7ab81b,65af55fd304b05200d920863,2024-01-23_06h00.54.101,bars,2023.2.3,Win32,59.88023952,657b66ea316d21385b68909f,,,,,,,,,,,1672.98,1673.9723,,,1674.4727,1674.7223,,94,94,,,,,,,,,,,,,,,,bars/019.png,bars/mask007.png,,,,,,,,,,,,6,2,,,,,,,2,10,2,9,,,,,,,,,,,1673.9723,1674.4726,1674.7224,1678.4224,space,3.6868,,1678.4225,49,11,1679.4222,1679.4222,1679.4288,,,,0,33,33,33,1,45,105,,,,,,,,
,,5f458cb79f9aa31a7d7ab81b,65af55fd304b05200d920863,2024-01-23_06h00.54.101,bars,2023.2.3,Win32,59.88023952,657b66ea316d21385b68909f,,,,,,,,,,,1679.429,1680.4222,,,1680.9222,1681.1725,,1,1,,,,,,,,,,,,,,,,bars/045.png,bars/mask005.png,,,,,,,,,,,,5,2,,,,,,,0,8,1,7,,,,,,,,,,,1680.4222,1680.9222,1681.1725,1684.5555,space,3.3669,,1684.5556,81,9,1685.5554,1685.5554,1685.5621,,,,0,34,34,34,1,100,10,,,,,,,,
,,5f458cb79f9aa31a7d7ab81b,65af55fd304b05200d920863,2024-01-23_06h00.54.101,bars,2023.2.3,Win32,59.88023952,657b66ea316d21385b68909f,,,,,,,,,,,1685.5623,1686.5553,,,1687.0553,1687.3053,,146,146,,,,,,,,,,,,,,,,bars/035.png,bars/mask009.png,,,,,,,,,,,,0,1,,,,,,,0,10,0,9,,,,,,,,,,,1686.5553,1687.0553,1687.3053,1688.5387,space,1.2246,,1688.5387,29,86,1689.5387,1689.5387,1689.5403,,,,0,35,35,35,1,175,60,,,,,,,,
,,5f458cb79f9aa31a7d7ab81b,65af55fd304b05200d920863,2024-01-23_06h00.54.101,bars,2023.2.3,Win32,59.88023952,657b66ea316d21385b68909f,,,,,,,,,,,1689.5404,1690.5386,,,1691.0386,1691.2886,,166,-14,,,,,,,,,,,,,,,,bars/033.png,bars/mask008.png,,,,,,,,,,,,4,2,,,,,,,2,8,4,7,,,,,,,,,,,1690.5387,1691.0386,1691.2886,1696.0221,space,4.7206,,1696.0222,39,11,1697.0218,1697.0218,1697.0292,,,,0,36,36,36,1,25,155,,,,,,,,
,,5f458cb79f9aa31a7d7ab81b,65af55fd304b05200d920863,2024-01-23_06h00.54.101,bars,2023.2.3,Win32,59.88023952,657b66ea316d21385b68909f,,,,,,,,,,,1697.0294,1698.0217,,,1698.5218,1698.7718,,166,166,,,,,,,,,,,,,,,,bars/008.png,bars/mask009.png,,,,,,,,,,,,3,2,,,,,,,0,6,0,5,,,,,,,,,,,1698.0217,1698.5218,1698.7718,1702.0384,space,3.2534,,1702.0385,56,14,1703.0383,1703.0384,1703.0448,,,,0,37,37,37,1,110,0,,,,,,,,
,,5f458cb79f9aa31a7d7ab81b,65af55fd304b05200d920863,2024-01-23_06h00.54.101,bars,2023.2.3,Win32,59.88023952,657b66ea316d21385b68909f,,,,,,,,,,,1703.0449,1704.0383,,,1704.5383,1704.7882,,113,113,,,,,,,,,,,,,,,,bars/001.png,bars/mask002.png,,,,,,,,,,,,1,1,,,,,,,2,8,2,8,,,,,,,,,,,1704.0383,1704.5383,1704.7882,1705.9551,space,1.1572,,1705.9551,17,28,1706.9548,1706.9548,1706.9624,,,,0,38,38,38,1,130,85,,,,,,,,
,,5f458cb79f9aa31a7d7ab81b,65af55fd304b05200d920863,2024-01-23_06h00.54.101,bars,2023.2.3,Win32,59.88023952,657b66ea316d21385b68909f,,,,,,,,,,,1706.9625,1707.9549,,,1708.4549,1708.7048,,72,72,,,,,,,,,,,,,,,,bars/038.png,bars/mask003.png,,,,,,,,,,,,9,2,,,,,,,4,10,5,10,,,,,,,,,,,1707.9549,1708.4549,1708.7048,1711.5549,space,2.8337,,1711.5549,87,2,1712.5548,1712.5548,1712.5624,,,,0,39,39,39,1,165,70,,,,,,,,
,,5f458cb79f9aa31a7d7ab81b,65af55fd304b05200d920863,2024-01-23_06h00.54.101,bars,2023.2.3,Win32,59.88023952,657b66ea316d21385b68909f,,,,,,,,,,,1712.5625,1713.5547,,,1714.0548,1714.3048,,68,68,,,,,,,,,,,,,,,,bars/042.png,bars/mask008.png,,,,,,,,,,,,8,2,,,,,,,6,10,5,10,,,,,,,,,,,1713.5547,1714.0547,1714.3048,1718.0382,space,3.7205,,1718.0382,77,7,1719.038,1719.038,1719.0445,,,,0,40,40,40,1,145,75,,,,,,,,
,,5f458cb79f9aa31a7d7ab81b,65af55fd304b05200d920863,2024-01-23_06h00.54.101,bars,2023.2.3,Win32,59.88023952,657b66ea316d21385b68909f,,,,,,,,,,,1719.0447,1720.0379,,,1720.5379,1720.788,,75,75,,,,,,,,,,,,,,,,bars/002.png,bars/mask008.png,,,,,,,,,,,,4,2,,,,,,,8,8,8,6,,,,,,,,,,,1720.0379,1720.5379,1720.788,1724.6215,space,3.8299,,1724.6215,55,10,1725.621,1725.6211,1725.6278,,,,0,41,41,41,1,130,85,,,,,,,,
,,5f458cb79f9aa31a7d7ab81b,65af55fd304b05200d920863,2024-01-23_06h00.54.101,bars,2023.2.3,Win32,59.88023952,657b66ea316d21385b68909f,,,,,,,,,,,1725.628,1726.621,,,1727.1212,1727.3711,,135,-45,,,,,,,,,,,,,,,,bars/021.png,bars/mask001.png,,,,,,,,,,,,2,1,,,,,,,6,10,5,10,,,,,,,,,,,1726.6211,1727.1211,1727.3711,1731.1882,space,3.8148,,1731.1882,20,65,1732.1876,1732.1877,1732.1954,,,,0,42,42,42,1,155,70,,,,,,,,
,,5f458cb79f9aa31a7d7ab81b,65af55fd304b05200d920863,2024-01-23_06h00.54.101,bars,2023.2.3,Win32,59.88023952,657b66ea316d21385b68909f,,,,,,,,,,,1732.1957,1733.1876,,,1733.6877,1733.9378,,103,103,,,,,,,,,,,,,,,,bars/019.png,bars/mask005.png,,,,,,,,,,,,9,2,,,,,,,8,10,9,10,,,,,,,,,,,1733.1876,1733.6877,1733.9378,1738.3542,space,4.4084,,1738.3542,58,2,1739.3541,1739.3541,1739.3613,,,,0,43,43,43,1,45,105,,,,,,,,
,,5f458cb79f9aa31a7d7ab81b,65af55fd304b05200d920863,2024-01-23_06h00.54.101,bars,2023.2.3,Win32,59.88023952,657b66ea316d21385b68909f,,,,,,,,,,,1739.3615,1740.3541,,,1740.8541,1741.1041,,1,181,,,,,,,,,,,,,,,,bars/033.png,bars/mask001.png,,,,,,,,,,,,2,1,,,,,,,10,10,10,10,,,,,,,,,,,1740.3542,1740.8541,1741.1041,1744.8207,space,3.7136,,1744.8207,24,26,1745.8211,1745.8212,1745.8301,,,,0,44,44,44,1,25,155,,,,,,,,
,,5f458cb79f9aa31a7d7ab81b,65af55fd304b05200d920863,2024-01-23_06h00.54.101,bars,2023.2.3,Win32,59.88023952,657b66ea316d21385b68909f,,,,,,,,,,,1745.8304,1746.8207,,,1747.3207,1747.5706,,2,182,,,,,,,,,,,,,,,,bars/023.png,bars/mask003.png,,,,,,,,,,,,4,1,,,,,,,10,8,10,8,,,,,,,,,,,1746.8208,1747.3207,1747.5706,1750.6373,space,3.0627,,1750.6373,18,67,1751.6372,1751.6372,1751.6439,,,,0,45,45,45,1,20,115,,,,,,,,
,,5f458cb79f9aa31a7d7ab81b,65af55fd304b05200d920863,2024-01-23_06h00.54.101,bars,2023.2.3,Win32,59.88023952,657b66ea316d21385b68909f,,,,,,,,,,,1751.644,1752.6371,,,1753.1371,1753.3872,,166,166,,,,,,,,,,,,,,,,bars/010.png,bars/mask001.png,,,,,,,,,,,,10,1,,,,,,,10,10,10,10,,,,,,,,,,,1752.6371,1753.1371,1753.3872,1756.2371,space,2.8457,,1756.2371,1,69,1757.237,1757.2371,1757.2437,,,,0,46,46,46,1,165,55,,,,,,,,
,,5f458cb79f9aa31a7d7ab81b,65af55fd304b05200d920863,2024-01-23_06h00.54.101,bars,2023.2.3,Win32,59.88023952,657b66ea316d21385b68909f,,,,,,,,,,,1757.2438,1758.237,,,1758.737,1758.987,,72,252,,,,,,,,,,,,,,,,bars/029.png,bars/mask009.png,,,,,,,,,,,,4,1,,,,,,,10,10,10,10,,,,,,,,,,,1758.237,1758.7369,1758.9871,1763.2704,space,4.2783,,1763.2705,18,27,1764.2702,1764.2702,1764.2768,,,,0,47,47,47,1,90,45,,,,,,,,
,,5f458cb79f9aa31a7d7ab81b,65af55fd304b05200d920863,2024-01-23_06h00.54.101,bars,2023.2.3,Win32,59.88023952,657b66ea316d21385b68909f,,,,,,,,,,,1764.277,1765.2701,,,1765.7701,1766.0202,,36,36,,,,,,,,,,,,,,,,bars/029.png,bars/mask004.png,,,,,,,,,,,,7,2,,,,,,,10,10,10,10,,,,,,,,,,,1765.2701,1765.7701,1766.0202,1767.9202,space,1.8936,,1767.9202,54,9,1768.9201,1768.9201,1768.9278,,,,0,48,48,48,1,90,45,,,,,,,,
,,5f458cb79f9aa31a7d7ab81b,65af55fd304b05200d920863,2024-01-23_06h00.54.101,bars,2023.2.3,Win32,59.88023952,657b66ea316d21385b68909f,,,,,,,,,,,1768.9279,1769.9201,,,1770.4201,1770.67,,79,79,,,,,,,,,,,,,,,,bars/030.png,bars/mask009.png,,,,,,,,,,,,3,2,,,,,,,8,8,6,6,,,,,,,,,,,1769.9201,1770.42,1770.6701,1774.3369,space,3.6593,,1774.337,61,14,1775.3366,1775.3366,1775.3432,,,,0,49,49,49,1,140,65,,,,,,,,
,,5f458cb79f9aa31a7d7ab81b,65af55fd304b05200d920863,2024-01-23_06h00.54.101,bars,2023.2.3,Win32,59.88023952,657b66ea316d21385b68909f,,,,,,,,,,,,,,,,,,,,,,,,,,,,,,,,,,,,,,,,,,,,,,,,,,,,,,,,,,,,,,,,,,,,,,,,,,,,,,,,,,,,,,,,,,,,,1775.3433,1835.3353,0,3,3,3,1,sequence_tables/blk041.csv
,,5f458cb79f9aa31a7d7ab81b,65af55fd304b05200d920863,2024-01-23_06h00.54.101,bars,2023.2.3,Win32,59.88023952,657b66ea316d21385b68909f,,,,,,,,,,,1877.994,1878.9841,,,1879.4841,1879.7342,,114,114,,,,,,,,,,,,,,,,bars/037.png,bars/mask003.png,,,,,,,,,,,,6,2,,,,,,,8,8,9,9,,,,,,1835.3422,1877.9844,space,42.6274,,1878.9841,1879.4841,1879.7342,1882.7341,space,2.9956,,1882.7342,36,9,1883.7341,1883.7341,1883.7407,,,,0,0,0,0,1,150,105,,,,,,,,
,,5f458cb79f9aa31a7d7ab81b,65af55fd304b05200d920863,2024-01-23_06h00.54.101,bars,2023.2.3,Win32,59.88023952,657b66ea316d21385b68909f,,,,,,,,,,,1883.7409,1884.734,,,1885.2341,1885.484,,65,65,,,,,,,,,,,,,,,,bars/011.png,bars/mask007.png,,,,,,,,,,,,2,2,,,,,,,10,6,8,6,,,,,,,,,,,1884.734,1885.2341,1885.4841,1889.3674,space,3.8695,,1889.3674,85,20,1890.3672,1890.3672,1890.3739,,,,0,1,1,1,1,160,85,,,,,,,,
,,5f458cb79f9aa31a7d7ab81b,65af55fd304b05200d920863,2024-01-23_06h00.54.101,bars,2023.2.3,Win32,59.88023952,657b66ea316d21385b68909f,,,,,,,,,,,1890.3741,1891.3672,,,1891.8672,1892.1175,,151,-29,,,,,,,,,,,,,,,,bars/039.png,bars/mask006.png,,,,,,,,,,,,2,1,,,,,,,8,8,10,8,,,,,,,,,,,1891.3673,1891.8672,1892.1175,1895.4505,space,3.3169,,1895.4506,24,46,1896.4504,1896.4504,1896.4579,,,,0,2,2,2,1,175,105,,,,,,,,
,,5f458cb79f9aa31a7d7ab81b,65af55fd304b05200d920863,2024-01-23_06h00.54.101,bars,2023.2.3,Win32,59.88023952,657b66ea316d21385b68909f,,,,,,,,,,,1896.458,1897.4505,,,1897.9506,1898.2003,,85,85,,,,,,,,,,,,,,,,bars/041.png,bars/mask001.png,,,,,,,,,,,,7,2,,,,,,,6,6,4,7,,,,,,,,,,,1897.4505,1897.9506,1898.2004,1900.0842,space,1.8814,,1900.0842,65,0,1901.0836,1901.0836,1901.091,,,,0,3,3,3,1,20,85,,,,,,,,
,,5f458cb79f9aa31a7d7ab81b,65af55fd304b05200d920863,2024-01-23_06h00.54.101,bars,2023.2.3,Win32,59.88023952,657b66ea316d21385b68909f,,,,,,,,,,,1901.0912,1902.0836,,,1902.5836,1902.8336,,92,92,,,,,,,,,,,,,,,,bars/001.png,bars/mask006.png,,,,,,,,,,,,5,2,,,,,,,4,8,5,7,,,,,,,,,,,1902.0836,1902.5836,1902.8336,1906.1002,space,3.2639,,1906.1002,38,7,1907.1002,1907.1002,1907.1067,,,,0,4,4,4,1,130,85,,,,,,,,
,,5f458cb79f9aa31a7d7ab81b,65af55fd304b05200d920863,2024-01-23_06h00.54.101,bars,2023.2.3,Win32,59.88023952,657b66ea316d21385b68909f,,,,,,,,,,,1907.1069,1908.1001,,,1908.6002,1908.8501,,171,171,,,,,,,,,,,,,,,,bars/046.png,bars/mask003.png,,,,,,,,,,,,0,1,,,,,,,2,6,1,6,,,,,,,,,,,1908.1001,1908.6002,1908.8501,1912.3335,space,3.4794,,1912.3335,16,86,1913.3333,1913.3334,1913.3407,,,,0,5,5,5,1,155,85,,,,,,,,
,,5f458cb79f9aa31a7d7ab81b,65af55fd304b05200d920863,2024-01-23_06h00.54.101,bars,2023.2.3,Win32,59.88023952,657b66ea316d21385b68909f,,,,,,,,,,,1913.3409,1914.3333,,,1914.8333,1915.0834,,89,89,,,,,,,,,,,,,,,,bars/022.png,bars/mask000.png,,,,,,,,,,,,2,1,,,,,,,4,4,3,6,,,,,,,,,,,1914.3333,1914.8333,1915.0834,1919.0166,space,3.9267,,1919.0168,6,69,1920.0166,1920.0166,1920.0232,,,,0,6,6,6,1,95,20,,,,,,,,
,,5f458cb79f9aa31a7d7ab81b,65af55fd304b05200d920863,2024-01-23_06h00.54.101,bars,2023.2.3,Win32,59.88023952,657b66ea316d21385b68909f,,,,,,,,,,,1920.0233,1921.0164,,,1921.5165,1921.7665,,16,196,,,,,,,,,,,,,,,,bars/045.png,bars/mask004.png,,,,,,,,,,,,1,2,,,,,,,2,2,1,1,,,,,,,,,,,1921.0164,1921.5165,1921.7665,1923.85,space,2.0672,,1923.85,84,6,1924.8497,1924.8497,1924.857,,,,0,7,7,7,1,100,10,,,,,,,,
,,5f458cb79f9aa31a7d7ab81b,65af55fd304b05200d920863,2024-01-23_06h00.54.101,bars,2023.2.3,Win32,59.88023952,657b66ea316d21385b68909f,,,,,,,,,,,1924.8573,1925.8506,,,1926.35,1926.5998,,15,15,,,,,,,,,,,,,,,,bars/041.png,bars/mask006.png,,,,,,,,,,,,3,1,,,,,,,4,4,3,3,,,,,,,,,,,1925.8507,1926.35,1926.5999,1929.933,space,3.3303,,1929.9331,5,70,1930.933,1930.933,1930.9402,,,,0,8,8,8,1,20,85,,,,,,,,
,,5f458cb79f9aa31a7d7ab81b,65af55fd304b05200d920863,2024-01-23_06h00.54.101,bars,2023.2.3,Win32,59.88023952,657b66ea316d21385b68909f,,,,,,,,,,,1930.9405,1931.9329,,,1932.433,1932.6829,,113,113,,,,,,,,,,,,,,,,bars/031.png,bars/mask005.png,,,,,,,,,,,,2,1,,,,,,,2,6,3,7,,,,,,,,,,,1931.9329,1932.433,1932.6829,1936.9496,space,4.2547,,1936.9496,7,78,1937.9495,1937.9495,1937.9562,,,,0,9,9,9,1,120,35,,,,,,,,
,,5f458cb79f9aa31a7d7ab81b,65af55fd304b05200d920863,2024-01-23_06h00.54.101,bars,2023.2.3,Win32,59.88023952,657b66ea316d21385b68909f,,,,,,,,,,,1937.9563,1938.9494,,,1939.4494,1939.6994,,157,-23,,,,,,,,,,,,,,,,bars/036.png,bars/mask009.png,,,,,,,,,,,,2,1,,,,,,,4,8,4,8,,,,,,,,,,,1938.9494,1939.4493,1939.6994,1941.6994,space,1.9836,,1941.6995,12,43,1942.6992,1942.6992,1942.7058,,,,0,10,10,10,1,145,20,,,,,,,,
,,5f458cb79f9aa31a7d7ab81b,65af55fd304b05200d920863,2024-01-23_06h00.54.101,bars,2023.2.3,Win32,59.88023952,657b66ea316d21385b68909f,,,,,,,,,,,1942.7061,1943.6993,,,1944.1993,1944.4493,,118,-62,,,,,,,,,,,,,,,,bars/034.png,bars/mask007.png,,,,,,,,,,,,5,1,,,,,,,6,6,6,6,,,,,,,,,,,1943.6993,1944.1993,1944.4493,1948.016,space,3.5523,,1948.016,7,53,1949.0158,1949.0159,1949.0226,,,,0,11,11,11,1,125,65,,,,,,,,
,,5f458cb79f9aa31a7d7ab81b,65af55fd304b05200d920863,2024-01-23_06h00.54.101,bars,2023.2.3,Win32,59.88023952,657b66ea316d21385b68909f,,,,,,,,,,,1949.0227,1950.0159,,,1950.5159,1950.7659,,104,104,,,,,,,,,,,,,,,,bars/031.png,bars/mask004.png,,,,,,,,,,,,1,1,,,,,,,4,4,3,3,,,,,,,,,,,1950.0159,1950.5159,1950.7659,1953.5826,space,2.8119,,1953.5827,16,69,1954.5824,1954.5825,1954.5892,,,,0,12,12,12,1,120,35,,,,,,,,
