init_variables.started,init_variables.stopped,participant,session,date,expName,psychopyVersion,OS,frameRate,study_id,instruction_exp.started,instruction_exp.stopped,key_resp_8.keys,key_resp_8.rt,key_resp_8.duration,instruction_single.started,instruction_single.stopped,key_resp_2.keys,key_resp_2.rt,key_resp_2.duration,interval.started,interval.stopped,cue_single.started,cue_single.stopped,mask.started,mask.stopped,ori_response_single.started,res_ori,res,ori_response_single.stopped,key_resp_single.keys,key_resp_single.rt,key_resp_single.duration,disp_single.started,disp_single.stopped,key_resp.keys,key_resp.rt,key_resp.duration,single.thisRepN,single.thisTrialN,single.thisN,single.thisIndex,single.ran,ori,path,mask_path,instruction_bandit.started,instruction_bandit.stopped,key_resp_6.keys,key_resp_6.rt,key_resp_6.duration,cue_bandit.started,cue_bandit.stopped,bandit_res.keys,bandit_res.rt,bandit_res.duration,outcome_bandit.started,rew,action,outcome_bandit.stopped,bandit.thisRepN,bandit.thisTrialN,bandit.thisN,bandit.thisIndex,bandit.ran,actual_rew1,actual_rew2,rew1,rew2,instruction_task.started,instruction_task.stopped,key_resp_7.keys,key_resp_7.rt,key_resp_7.duration,wait_ready.started,wait_ready.stopped,key_resp_3.keys,key_resp_3.rt,key_resp_3.duration,cue.started,cue.stopped,ori_response.started,ori_response.stopped,key_resp_5.keys,key_resp_5.rt,key_resp_5.duration,outcome.started,diff1,diff2,outcome.stopped,disp_outcome_practice.started,disp_outcome_practice.stopped,key_resp_4.keys,key_resp_4.rt,key_resp_4.duration,trials.thisRepN,trials.thisTrialN,trials.thisN,trials.thisIndex,trials.ran,ori1,ori2,break_blk.started,break_blk.stopped,block.thisRepN,block.thisTrialN,block.thisN,block.thisIndex,block.ran,condition_file
0.0005,0.0006,5deef5412dc5c65901b17bef,65af5605fa16a017ecb780d2,2024-01-23_08h01.03.511,bars,2023.2.3,Win32,59.88023952,657b66ea316d21385b68909f,,,,,,,,,,,,,,,,,,,,,,,,,,,,,,,,,,,,,,,,,,,,,,,,,,,,,,,,,,,,,,,,,,,,,,,,,,,,,,,,,,,,,,,,,,,,,,,,,,,,
,,5deef5412dc5c65901b17bef,65af5605fa16a017ecb780d2,2024-01-23_08h01.03.511,bars,2023.2.3,Win32,59.88023952,657b66ea316d21385b68909f,0.0007,140.6427,y,140.6329,,,,,,,,,,,,,,,,,,,,,,,,,,,,,,,,,,,,,,,,,,,,,,,,,,,,,,,,,,,,,,,,,,,,,,,,,,,,,,,,,,,,,,,,,,,,,,,,
,,5deef5412dc5c65901b17bef,65af5605fa16a017ecb780d2,2024-01-23_08h01.03.511,bars,2023.2.3,Win32,59.88023952,657b66ea316d21385b68909f,,,,,,140.6429,144.4748,space,3.8157,,,,,,,,,,,,,,,,,,,,,,,,,,,,,,,,,,,,,,,,,,,,,,,,,,,,,,,,,,,,,,,,,,,,,,,,,,,,,,,,,,,,,,,,,,,
,,5deef5412dc5c65901b17bef,65af5605fa16a017ecb780d2,2024-01-23_08h01.03.511,bars,2023.2.3,Win32,59.88023952,657b66ea316d21385b68909f,,,,,,,,,,,144.4779,145.4753,145.4755,145.9753,145.9756,146.2246,146.2247,159,159,150.4259,space,4.1833,,150.4262,154.3914,space,3.9212,,0,0,0,8,1,160,bars/single008.png,bars/mask004.png,,,,,,,,,,,,,,,,,,,,,,,,,,,,,,,,,,,,,,,,,,,,,,,,,,,,,,,,,,,,,,,,
,,5deef5412dc5c65901b17bef,65af5605fa16a017ecb780d2,2024-01-23_08h01.03.511,bars,2023.2.3,Win32,59.88023952,657b66ea316d21385b68909f,,,,,,,,,,,154.3967,155.3914,155.3915,155.8913,155.8913,156.1411,156.1412,91,91,160.4418,space,4.2905,,160.4419,162.4411,space,1.9649,,0,1,1,4,1,95,bars/single004.png,bars/mask004.png,,,,,,,,,,,,,,,,,,,,,,,,,,,,,,,,,,,,,,,,,,,,,,,,,,,,,,,,,,,,,,,,
,,5deef5412dc5c65901b17bef,65af5605fa16a017ecb780d2,2024-01-23_08h01.03.511,bars,2023.2.3,Win32,59.88023952,657b66ea316d21385b68909f,,,,,,,,,,,162.4413,163.4414,163.4414,163.9415,163.9416,164.1916,164.1916,176,176,166.5251,space,2.327,,166.5251,172.9246,space,6.3876,,0,2,2,0,1,150,bars/single000.png,bars/mask006.png,,,,,,,,,,,,,,,,,,,,,,,,,,,,,,,,,,,,,,,,,,,,,,,,,,,,,,,,,,,,,,,,
,,5deef5412dc5c65901b17bef,65af5605fa16a017ecb780d2,2024-01-23_08h01.03.511,bars,2023.2.3,Win32,59.88023952,657b66ea316d21385b68909f,,,,,,,,,,,172.9393,173.9411,173.9411,174.4248,174.4249,174.6744,174.6744,175,175,179.9248,space,5.2457,,179.9249,183.7244,space,3.7723,,0,3,3,9,1,20,bars/single009.png,bars/mask006.png,,,,,,,,,,,,,,,,,,,,,,,,,,,,,,,,,,,,,,,,,,,,,,,,,,,,,,,,,,,,,,,,
,,5deef5412dc5c65901b17bef,65af5605fa16a017ecb780d2,2024-01-23_08h01.03.511,bars,2023.2.3,Win32,59.88023952,657b66ea316d21385b68909f,,,,,,,,,,,183.733,184.7243,184.7244,185.2244,185.2244,185.4744,185.4744,36,36,188.0577,space,2.5802,,188.0577,189.4416,space,1.3661,,0,4,4,1,1,20,bars/single001.png,bars/mask006.png,,,,,,,,,,,,,,,,,,,,,,,,,,,,,,,,,,,,,,,,,,,,,,,,,,,,,,,,,,,,,,,,
,,5deef5412dc5c65901b17bef,65af5605fa16a017ecb780d2,2024-01-23_08h01.03.511,bars,2023.2.3,Win32,59.88023952,657b66ea316d21385b68909f,,,,,,,,,,,189.4423,190.4412,190.4412,190.9414,190.9414,191.1911,191.1912,23,203,197.6577,space,6.4511,,197.6577,201.3909,space,3.7116,,0,5,5,7,1,45,bars/single007.png,bars/mask009.png,,,,,,,,,,,,,,,,,,,,,,,,,,,,,,,,,,,,,,,,,,,,,,,,,,,,,,,,,,,,,,,,
,,5deef5412dc5c65901b17bef,65af5605fa16a017ecb780d2,2024-01-23_08h01.03.511,bars,2023.2.3,Win32,59.88023952,657b66ea316d21385b68909f,,,,,,,,,,,201.3971,202.391,202.391,202.8913,202.8913,203.1409,203.1409,158,158,204.9246,space,1.7774,,204.9246,206.341,space,1.3994,,0,6,6,6,1,175,bars/single006.png,bars/mask005.png,,,,,,,,,,,,,,,,,,,,,,,,,,,,,,,,,,,,,,,,,,,,,,,,,,,,,,,,,,,,,,,,
,,5deef5412dc5c65901b17bef,65af5605fa16a017ecb780d2,2024-01-23_08h01.03.511,bars,2023.2.3,Win32,59.88023952,657b66ea316d21385b68909f,,,,,,,,,,,206.3411,207.3414,207.3415,207.8408,207.8408,208.0909,208.0909,85,265,212.6243,space,4.5246,,212.6243,215.6577,space,3.024,,0,7,7,5,1,55,bars/single005.png,bars/mask008.png,,,,,,,,,,,,,,,,,,,,,,,,,,,,,,,,,,,,,,,,,,,,,,,,,,,,,,,,,,,,,,,,
,,5deef5412dc5c65901b17bef,65af5605fa16a017ecb780d2,2024-01-23_08h01.03.511,bars,2023.2.3,Win32,59.88023952,657b66ea316d21385b68909f,,,,,,,,,,,215.6666,216.6583,216.6583,217.1575,217.1575,217.408,217.4081,9,9,221.1744,space,3.7572,,221.1744,223.9076,space,2.7016,,0,8,8,3,1,20,bars/single003.png,bars/mask005.png,,,,,,,,,,,,,,,,,,,,,,,,,,,,,,,,,,,,,,,,,,,,,,,,,,,,,,,,,,,,,,,,
,,5deef5412dc5c65901b17bef,65af5605fa16a017ecb780d2,2024-01-23_08h01.03.511,bars,2023.2.3,Win32,59.88023952,657b66ea316d21385b68909f,,,,,,,,,,,223.9133,224.9076,224.9076,225.4079,225.408,225.6575,225.6575,157,-23,227.9074,space,2.2448,,227.9074,229.6248,space,1.7049,,0,9,9,2,1,145,bars/single002.png,bars/mask003.png,,,,,,,,,,,,,,,,,,,,,,,,,,,,,,,,,,,,,,,,,,,,,,,,,,,,,,,,,,,,,,,,
,,5deef5412dc5c65901b17bef,65af5605fa16a017ecb780d2,2024-01-23_08h01.03.511,bars,2023.2.3,Win32,59.88023952,657b66ea316d21385b68909f,,,,,,,,,,,,,,,,,,,,,,,,,,,,,,,,,,,,,229.6263,234.4583,space,4.8249,,,,,,,,,,,,,,,,,,,,,,,,,,,,,,,,,,,,,,,,,,,,,,,,,,,,,,,,,,,,
,,5deef5412dc5c65901b17bef,65af5605fa16a017ecb780d2,2024-01-23_08h01.03.511,bars,2023.2.3,Win32,59.88023952,657b66ea316d21385b68909f,,,,,,,,,,,,,,,,,,,,,,,,,,,,,,,,,,,,,,,,,,234.4759,235.891,right,1.3948,,235.891,2,2,236.891,0,0,0,0,1,9,1,9,2,,,,,,,,,,,,,,,,,,,,,,,,,,,,,,,,,,,,,,,,,
,,5deef5412dc5c65901b17bef,65af5605fa16a017ecb780d2,2024-01-23_08h01.03.511,bars,2023.2.3,Win32,59.88023952,657b66ea316d21385b68909f,,,,,,,,,,,,,,,,,,,,,,,,,,,,,,,,,,,,,,,,,,236.8913,237.6574,right,0.7541,,237.6574,1,2,238.6577,0,1,1,1,1,10,0,10,1,,,,,,,,,,,,,,,,,,,,,,,,,,,,,,,,,,,,,,,,,
,,5deef5412dc5c65901b17bef,65af5605fa16a017ecb780d2,2024-01-23_08h01.03.511,bars,2023.2.3,Win32,59.88023952,657b66ea316d21385b68909f,,,,,,,,,,,,,,,,,,,,,,,,,,,,,,,,,,,,,,,,,,238.6582,239.0587,left,0.3858,,239.0588,10,1,240.0578,0,2,2,2,1,10,2,10,2,,,,,,,,,,,,,,,,,,,,,,,,,,,,,,,,,,,,,,,,,
,,5deef5412dc5c65901b17bef,65af5605fa16a017ecb780d2,2024-01-23_08h01.03.511,bars,2023.2.3,Win32,59.88023952,657b66ea316d21385b68909f,,,,,,,,,,,,,,,,,,,,,,,,,,,,,,,,,,,,,,,,,,240.0583,240.4583,left,0.3973,,240.4584,7,1,241.4576,0,3,3,3,1,8,4,7,3,,,,,,,,,,,,,,,,,,,,,,,,,,,,,,,,,,,,,,,,,
,,5deef5412dc5c65901b17bef,65af5605fa16a017ecb780d2,2024-01-23_08h01.03.511,bars,2023.2.3,Win32,59.88023952,657b66ea316d21385b68909f,,,,,,,,,,,,,,,,,,,,,,,,,,,,,,,,,,,,,,,,,,241.458,241.7915,left,0.3217,,241.7916,5,1,242.7912,0,4,4,4,1,6,2,5,1,,,,,,,,,,,,,,,,,,,,,,,,,,,,,,,,,,,,,,,,,
,,5deef5412dc5c65901b17bef,65af5605fa16a017ecb780d2,2024-01-23_08h01.03.511,bars,2023.2.3,Win32,59.88023952,657b66ea316d21385b68909f,,,,,,,,,,,,,,,,,,,,,,,,,,,,,,,,,,,,,,,,,,242.7918,242.9412,left,0.1427,,242.9413,4,1,243.9416,0,5,5,5,1,4,4,4,4,,,,,,,,,,,,,,,,,,,,,,,,,,,,,,,,,,,,,,,,,
,,5deef5412dc5c65901b17bef,65af5605fa16a017ecb780d2,2024-01-23_08h01.03.511,bars,2023.2.3,Win32,59.88023952,657b66ea316d21385b68909f,,,,,,,,,,,,,,,,,,,,,,,,,,,,,,,,,,,,,,,,,,243.9423,244.2741,right,0.3178,,244.2741,2,2,245.2745,0,6,6,6,1,2,2,1,2,,,,,,,,,,,,,,,,,,,,,,,,,,,,,,,,,,,,,,,,,
,,5deef5412dc5c65901b17bef,65af5605fa16a017ecb780d2,2024-01-23_08h01.03.511,bars,2023.2.3,Win32,59.88023952,657b66ea316d21385b68909f,,,,,,,,,,,,,,,,,,,,,,,,,,,,,,,,,,,,,,,,,,245.275,245.5246,left,0.2364,,245.5247,0,1,246.5243,0,7,7,7,1,0,0,0,1,,,,,,,,,,,,,,,,,,,,,,,,,,,,,,,,,,,,,,,,,
,,5deef5412dc5c65901b17bef,65af5605fa16a017ecb780d2,2024-01-23_08h01.03.511,bars,2023.2.3,Win32,59.88023952,657b66ea316d21385b68909f,,,,,,,,,,,,,,,,,,,,,,,,,,,,,,,,,,,,,,,,,,246.5247,246.6916,right,0.1559,,246.6918,0,2,247.6911,0,8,8,8,1,0,2,1,0,,,,,,,,,,,,,,,,,,,,,,,,,,,,,,,,,,,,,,,,,
,,5deef5412dc5c65901b17bef,65af5605fa16a017ecb780d2,2024-01-23_08h01.03.511,bars,2023.2.3,Win32,59.88023952,657b66ea316d21385b68909f,,,,,,,,,,,,,,,,,,,,,,,,,,,,,,,,,,,,,,,,,,247.6921,247.9074,right,0.2096,,247.9074,3,2,248.9076,0,9,9,9,1,2,4,2,3,,,,,,,,,,,,,,,,,,,,,,,,,,,,,,,,,,,,,,,,,
,,5deef5412dc5c65901b17bef,65af5605fa16a017ecb780d2,2024-01-23_08h01.03.511,bars,2023.2.3,Win32,59.88023952,657b66ea316d21385b68909f,,,,,,,,,,,,,,,,,,,,,,,,,,,,,,,,,,,,,,,,,,248.9082,249.1913,right,0.2679,,249.1914,3,2,250.1907,0,10,10,10,1,0,2,0,3,,,,,,,,,,,,,,,,,,,,,,,,,,,,,,,,,,,,,,,,,
,,5deef5412dc5c65901b17bef,65af5605fa16a017ecb780d2,2024-01-23_08h01.03.511,bars,2023.2.3,Win32,59.88023952,657b66ea316d21385b68909f,,,,,,,,,,,,,,,,,,,,,,,,,,,,,,,,,,,,,,,,,,250.1908,250.4247,left,0.2236,,250.4248,0,1,251.424,0,11,11,11,1,0,4,0,3,,,,,,,,,,,,,,,,,,,,,,,,,,,,,,,,,,,,,,,,,
,,5deef5412dc5c65901b17bef,65af5605fa16a017ecb780d2,2024-01-23_08h01.03.511,bars,2023.2.3,Win32,59.88023952,657b66ea316d21385b68909f,,,,,,,,,,,,,,,,,,,,,,,,,,,,,,,,,,,,,,,,,,251.4242,251.4575,right,0.0222,,251.4576,6,2,252.4579,0,12,12,12,1,2,6,1,6,,,,,,,,,,,,,,,,,,,,,,,,,,,,,,,,,,,,,,,,,
,,5deef5412dc5c65901b17bef,65af5605fa16a017ecb780d2,2024-01-23_08h01.03.511,bars,2023.2.3,Win32,59.88023952,657b66ea316d21385b68909f,,,,,,,,,,,,,,,,,,,,,,,,,,,,,,,,,,,,,,,,,,252.4588,252.6408,right,0.1782,,252.6408,3,2,253.6406,0,13,13,13,1,0,4,1,3,,,,,,,,,,,,,,,,,,,,,,,,,,,,,,,,,,,,,,,,,
,,5deef5412dc5c65901b17bef,65af5605fa16a017ecb780d2,2024-01-23_08h01.03.511,bars,2023.2.3,Win32,59.88023952,657b66ea316d21385b68909f,,,,,,,,,,,,,,,,,,,,,,,,,,,,,,,,,,,,,,,,,,253.6409,253.791,right,0.1422,,253.7911,7,2,254.7913,0,14,14,14,1,2,6,2,7,,,,,,,,,,,,,,,,,,,,,,,,,,,,,,,,,,,,,,,,,
,,5deef5412dc5c65901b17bef,65af5605fa16a017ecb780d2,2024-01-23_08h01.03.511,bars,2023.2.3,Win32,59.88023952,657b66ea316d21385b68909f,,,,,,,,,,,,,,,,,,,,,,,,,,,,,,,,,,,,,,,,,,254.7919,255.0739,right,0.2781,,255.0739,9,2,256.0744,0,15,15,15,1,4,8,3,9,,,,,,,,,,,,,,,,,,,,,,,,,,,,,,,,,,,,,,,,,
,,5deef5412dc5c65901b17bef,65af5605fa16a017ecb780d2,2024-01-23_08h01.03.511,bars,2023.2.3,Win32,59.88023952,657b66ea316d21385b68909f,,,,,,,,,,,,,,,,,,,,,,,,,,,,,,,,,,,,,,,,,,256.075,256.3074,right,0.2268,,256.3074,7,2,257.3074,0,16,16,16,1,6,6,7,7,,,,,,,,,,,,,,,,,,,,,,,,,,,,,,,,,,,,,,,,,
,,5deef5412dc5c65901b17bef,65af5605fa16a017ecb780d2,2024-01-23_08h01.03.511,bars,2023.2.3,Win32,59.88023952,657b66ea316d21385b68909f,,,,,,,,,,,,,,,,,,,,,,,,,,,,,,,,,,,,,,,,,,257.3078,257.4244,right,0.1146,,257.4244,5,2,258.4245,0,17,17,17,1,8,4,9,5,,,,,,,,,,,,,,,,,,,,,,,,,,,,,,,,,,,,,,,,,
,,5deef5412dc5c65901b17bef,65af5605fa16a017ecb780d2,2024-01-23_08h01.03.511,bars,2023.2.3,Win32,59.88023952,657b66ea316d21385b68909f,,,,,,,,,,,,,,,,,,,,,,,,,,,,,,,,,,,,,,,,,,258.4251,258.6073,left,0.1626,,258.6073,5,1,259.6074,0,18,18,18,1,6,2,5,1,,,,,,,,,,,,,,,,,,,,,,,,,,,,,,,,,,,,,,,,,
,,5deef5412dc5c65901b17bef,65af5605fa16a017ecb780d2,2024-01-23_08h01.03.511,bars,2023.2.3,Win32,59.88023952,657b66ea316d21385b68909f,,,,,,,,,,,,,,,,,,,,,,,,,,,,,,,,,,,,,,,,,,259.6076,259.8911,right,0.272,,259.8912,0,2,260.8908,0,19,19,19,1,8,0,7,0,,,,,,,,,,,,,,,,,,,,,,,,,,,,,,,,,,,,,,,,,
,,5deef5412dc5c65901b17bef,65af5605fa16a017ecb780d2,2024-01-23_08h01.03.511,bars,2023.2.3,Win32,59.88023952,657b66ea316d21385b68909f,,,,,,,,,,,,,,,,,,,,,,,,,,,,,,,,,,,,,,,,,,,,,,,,,,,,,,,,,,,,260.8914,270.791,space,9.8869,,,,,,,,,,,,,,,,,,,,,,,,,,,,,,,,,,,,,
,,5deef5412dc5c65901b17bef,65af5605fa16a017ecb780d2,2024-01-23_08h01.03.511,bars,2023.2.3,Win32,59.88023952,657b66ea316d21385b68909f,,,,,,,,,,,272.2264,273.2243,,,273.724,273.9741,,167,167,,,,,,,,,,,,,,,,bars/021.png,bars/mask007.png,,,,,,,,,,,,1,1,,,,,,,2,4,2,5,,,,,,270.7983,272.2243,space,1.4223,,273.2247,273.724,273.9744,277.4419,space,3.4459,,277.4422,12,83,278.4414,278.4418,283.8582,space,5.391,,0,0,0,0,1,155,70,,,,,,,,
,,5deef5412dc5c65901b17bef,65af5605fa16a017ecb780d2,2024-01-23_08h01.03.511,bars,2023.2.3,Win32,59.88023952,657b66ea316d21385b68909f,,,,,,,,,,,283.8701,284.8742,,,285.3741,285.6238,,154,154,,,,,,,,,,,,,,,,bars/024.png,bars/mask006.png,,,,,,,,,,,,3,2,,,,,,,4,6,4,7,,,,,,,,,,,284.8743,285.3741,285.6239,289.3912,space,3.7579,,289.3915,34,16,290.3906,290.3906,296.6738,space,6.2643,,0,1,1,1,1,120,170,,,,,,,,
,,5deef5412dc5c65901b17bef,65af5605fa16a017ecb780d2,2024-01-23_08h01.03.511,bars,2023.2.3,Win32,59.88023952,657b66ea316d21385b68909f,,,,,,,,,,,296.6791,297.6739,,,298.1742,298.4241,,165,165,,,,,,,,,,,,,,,,bars/003.png,bars/mask000.png,,,,,,,,,,,,1,2,,,,,,,6,8,5,8,,,,,,,,,,,297.6739,298.1742,298.4241,300.9906,space,2.5489,,300.9907,40,25,301.9907,301.9908,303.8738,space,1.8516,,0,2,2,2,1,25,140,,,,,,,,
,,5deef5412dc5c65901b17bef,65af5605fa16a017ecb780d2,2024-01-23_08h01.03.511,bars,2023.2.3,Win32,59.88023952,657b66ea316d21385b68909f,,,,,,,,,,,303.874,304.8739,,,305.3744,305.6242,,35,35,,,,,,,,,,,,,,,,bars/032.png,bars/mask003.png,,,,,,,,,,,,4,2,,,,,,,4,6,2,7,,,,,,,,,,,304.8739,305.3743,305.6242,309.491,space,3.8551,,309.4911,90,15,310.4908,310.4909,312.4416,space,1.9149,,0,3,3,3,1,125,20,,,,,,,,
,,5deef5412dc5c65901b17bef,65af5605fa16a017ecb780d2,2024-01-23_08h01.03.511,bars,2023.2.3,Win32,59.88023952,657b66ea316d21385b68909f,,,,,,,,,,,312.4427,313.4408,,,313.9407,314.1908,,55,55,,,,,,,,,,,,,,,,bars/031.png,bars/mask008.png,,,,,,,,,,,,1,2,,,,,,,6,4,6,4,,,,,,,,,,,313.4408,313.9407,314.1908,315.8245,space,1.6221,,315.8246,65,20,316.824,316.8241,317.8743,space,1.0253,,0,4,4,4,1,120,35,,,,,,,,
,,5deef5412dc5c65901b17bef,65af5605fa16a017ecb780d2,2024-01-23_08h01.03.511,bars,2023.2.3,Win32,59.88023952,657b66ea316d21385b68909f,,,,,,,,,,,317.8749,318.8741,,,319.3741,319.6238,,75,75,,,,,,,,,,,,,,,,bars/009.png,bars/mask003.png,,,,,,,,,,,,0,2,,,,,,,8,2,9,3,,,,,,,,,,,318.8742,319.3741,319.6238,322.1571,space,2.525,,322.1571,60,30,323.1575,323.1576,324.4409,space,1.2483,,0,5,5,5,1,15,105,,,,,,,,
,,5deef5412dc5c65901b17bef,65af5605fa16a017ecb780d2,2024-01-23_08h01.03.511,bars,2023.2.3,Win32,59.88023952,657b66ea316d21385b68909f,,,,,,,,,,,324.4418,325.4407,,,325.9409,326.1908,,161,-19,,,,,,,,,,,,,,,,bars/049.png,bars/mask006.png,,,,,,,,,,,,7,1,,,,,,,6,0,7,0,,,,,,,,,,,325.4407,325.9408,326.1908,331.5077,space,5.3041,,331.5079,1,46,332.5075,332.5075,335.6408,space,3.0962,,0,6,6,6,1,160,115,,,,,,,,
,,5deef5412dc5c65901b17bef,65af5605fa16a017ecb780d2,2024-01-23_08h01.03.511,bars,2023.2.3,Win32,59.88023952,657b66ea316d21385b68909f,,,,,,,,,,,335.6574,336.6575,,,337.1575,337.4073,,3,183,,,,,,,,,,,,,,,,bars/047.png,bars/mask005.png,,,,,,,,,,,,2,1,,,,,,,4,2,4,2,,,,,,,,,,,336.6576,337.1575,337.4074,339.407,space,1.9903,,339.407,12,67,340.4074,340.4074,341.5578,space,1.1389,,0,7,7,7,1,15,70,,,,,,,,
,,5deef5412dc5c65901b17bef,65af5605fa16a017ecb780d2,2024-01-23_08h01.03.511,bars,2023.2.3,Win32,59.88023952,657b66ea316d21385b68909f,,,,,,,,,,,341.5583,342.557,,,343.0572,343.3074,,17,197,,,,,,,,,,,,,,,,bars/016.png,bars/mask003.png,,,,,,,,,,,,0,1,,,,,,,2,4,2,5,,,,,,,,,,,342.557,343.0571,343.3075,345.2743,space,1.954,,345.2744,23,32,346.2744,346.2744,347.3909,space,1.1032,,0,8,8,8,1,40,165,,,,,,,,
,,5deef5412dc5c65901b17bef,65af5605fa16a017ecb780d2,2024-01-23_08h01.03.511,bars,2023.2.3,Win32,59.88023952,657b66ea316d21385b68909f,,,,,,,,,,,347.3912,348.3903,,,348.8907,349.1406,,69,69,,,,,,,,,,,,,,,,bars/019.png,bars/mask005.png,,,,,,,,,,,,1,1,,,,,,,4,2,5,2,,,,,,,,,,,348.3903,348.8906,349.1406,350.6576,space,1.4993,,350.6576,24,36,351.6572,351.6573,352.2737,space,0.5982,,0,9,9,9,1,45,105,,,,,,,,
,,5deef5412dc5c65901b17bef,65af5605fa16a017ecb780d2,2024-01-23_08h01.03.511,bars,2023.2.3,Win32,59.88023952,657b66ea316d21385b68909f,,,,,,,,,,,352.2741,353.2736,,,353.7741,354.0239,,22,202,,,,,,,,,,,,,,,,bars/025.png,bars/mask001.png,,,,,,,,,,,,2,2,,,,,,,6,4,9,4,,,,,,,,,,,353.2736,353.7741,354.0239,357.4239,space,3.3833,,357.4239,83,18,358.4236,358.4236,361.807,space,3.3665,,0,10,10,10,1,105,40,,,,,,,,
,,5deef5412dc5c65901b17bef,65af5605fa16a017ecb780d2,2024-01-23_08h01.03.511,bars,2023.2.3,Win32,59.88023952,657b66ea316d21385b68909f,,,,,,,,,,,361.8125,362.8073,,,363.3072,363.5569,,175,175,,,,,,,,,,,,,,,,bars/014.png,bars/mask004.png,,,,,,,,,,,,0,2,,,,,,,8,2,8,0,,,,,,,,,,,362.8073,363.3071,363.557,365.8738,space,2.3046,,365.8738,85,5,366.8737,366.8737,367.7574,space,0.8677,,0,11,11,11,1,80,0,,,,,,,,
,,5deef5412dc5c65901b17bef,65af5605fa16a017ecb780d2,2024-01-23_08h01.03.511,bars,2023.2.3,Win32,59.88023952,657b66ea316d21385b68909f,,,,,,,,,,,367.7581,368.7571,,,369.2571,369.5073,,120,120,,,,,,,,,,,,,,,,bars/031.png,bars/mask003.png,,,,,,,,,,,,10,1,,,,,,,10,4,10,4,,,,,,,,,,,368.7572,369.2571,369.5073,371.9572,space,2.4313,,371.9573,0,85,372.9572,372.9573,374.1076,space,1.1161,,0,12,12,12,1,120,35,,,,,,,,
,,5deef5412dc5c65901b17bef,65af5605fa16a017ecb780d2,2024-01-23_08h01.03.511,bars,2023.2.3,Win32,59.88023952,657b66ea316d21385b68909f,,,,,,,,,,,374.1083,375.1074,,,375.6075,375.8571,,170,170,,,,,,,,,,,,,,,,bars/001.png,bars/mask002.png,,,,,,,,,,,,0,1,,,,,,,8,2,8,1,,,,,,,,,,,375.1075,375.6075,375.8572,378.7734,space,2.9065,,378.7734,40,85,379.774,379.774,380.5072,space,0.6993,,0,13,13,13,1,130,85,,,,,,,,
,,5deef5412dc5c65901b17bef,65af5605fa16a017ecb780d2,2024-01-23_08h01.03.511,bars,2023.2.3,Win32,59.88023952,657b66ea316d21385b68909f,,,,,,,,,,,380.5076,381.5073,,,382.0069,382.2572,,123,123,,,,,,,,,,,,,,,,bars/030.png,bars/mask003.png,,,,,,,,,,,,4,1,,,,,,,10,4,10,4,,,,,,,,,,,381.5073,382.0068,382.2572,385.1735,space,2.9005,,385.1735,17,58,386.1739,386.174,389.0742,space,2.8758,,0,14,14,14,1,140,65,,,,,,,,
,,5deef5412dc5c65901b17bef,65af5605fa16a017ecb780d2,2024-01-23_08h01.03.511,bars,2023.2.3,Win32,59.88023952,657b66ea316d21385b68909f,,,,,,,,,,,389.0911,390.0904,,,390.5903,390.8404,,52,52,,,,,,,,,,,,,,,,bars/028.png,bars/mask007.png,,,,,,,,,,,,5,1,,,,,,,8,6,6,5,,,,,,,,,,,390.0904,390.5903,390.8404,392.1905,space,1.3345,,392.1905,7,68,393.1901,393.1902,395.1409,space,1.932,,0,15,15,15,1,45,120,,,,,,,,
,,5deef5412dc5c65901b17bef,65af5605fa16a017ecb780d2,2024-01-23_08h01.03.511,bars,2023.2.3,Win32,59.88023952,657b66ea316d21385b68909f,,,,,,,,,,,395.1416,396.1409,,,396.6402,396.8903,,86,86,,,,,,,,,,,,,,,,bars/022.png,bars/mask009.png,,,,,,,,,,,,4,1,,,,,,,6,8,6,6,,,,,,,,,,,396.141,396.6401,396.8904,398.4408,space,1.5466,,398.4409,9,66,399.4405,399.4405,400.2241,space,0.7439,,0,16,16,16,1,95,20,,,,,,,,
,,5deef5412dc5c65901b17bef,65af5605fa16a017ecb780d2,2024-01-23_08h01.03.511,bars,2023.2.3,Win32,59.88023952,657b66ea316d21385b68909f,,,,,,,,,,,400.2248,401.2235,,,401.7238,401.9734,,56,56,,,,,,,,,,,,,,,,bars/016.png,bars/mask002.png,,,,,,,,,,,,2,1,,,,,,,4,6,4,6,,,,,,,,,,,401.2235,401.7238,401.9734,403.1072,space,1.1222,,403.1072,16,71,404.107,404.107,404.724,space,0.6074,,0,17,17,17,1,40,165,,,,,,,,
,,5deef5412dc5c65901b17bef,65af5605fa16a017ecb780d2,2024-01-23_08h01.03.511,bars,2023.2.3,Win32,59.88023952,657b66ea316d21385b68909f,,,,,,,,,,,404.7248,405.7233,,,406.2235,406.4736,,132,132,,,,,,,,,,,,,,,,bars/002.png,bars/mask000.png,,,,,,,,,,,,2,1,,,,,,,2,4,2,5,,,,,,,,,,,405.7233,406.2235,406.4736,409.2234,space,2.735,,409.2234,2,47,410.2233,410.2234,413.3233,space,3.0817,,0,18,18,18,1,130,85,,,,,,,,
,,5deef5412dc5c65901b17bef,65af5605fa16a017ecb780d2,2024-01-23_08h01.03.511,bars,2023.2.3,Win32,59.88023952,657b66ea316d21385b68909f,,,,,,,,,,,413.3286,414.3238,,,414.8234,415.0735,,110,-70,,,,,,,,,,,,,,,,bars/018.png,bars/mask005.png,,,,,,,,,,,,1,2,,,,,,,0,2,0,3,,,,,,,,,,,414.3238,414.8234,415.0735,419.0401,space,3.951,,419.0402,40,20,420.0404,420.0405,420.74,space,0.6599,,0,19,19,19,1,150,90,,,,,,,,
,,5deef5412dc5c65901b17bef,65af5605fa16a017ecb780d2,2024-01-23_08h01.03.511,bars,2023.2.3,Win32,59.88023952,657b66ea316d21385b68909f,,,,,,,,,,,420.7403,421.7402,,,422.2399,422.4901,,57,57,,,,,,,,,,,,,,,,bars/016.png,bars/mask008.png,,,,,,,,,,,,0,1,,,,,,,2,0,0,1,,,,,,,,,,,421.7402,422.2399,422.4901,423.8403,space,1.335,,423.8403,17,72,424.8403,424.8403,425.4406,space,0.5869,,0,20,20,20,1,40,165,,,,,,,,
,,5deef5412dc5c65901b17bef,65af5605fa16a017ecb780d2,2024-01-23_08h01.03.511,bars,2023.2.3,Win32,59.88023952,657b66ea316d21385b68909f,,,,,,,,,,,425.4411,426.4403,,,426.9405,427.19,,113,-67,,,,,,,,,,,,,,,,bars/027.png,bars/mask006.png,,,,,,,,,,,,6,1,,,,,,,4,2,7,2,,,,,,,,,,,426.4404,426.9404,427.1901,431.0739,space,3.8737,,431.074,3,63,432.0732,432.0732,478.7737,space,46.6806,,0,21,21,21,1,110,50,,,,,,,,
,,5deef5412dc5c65901b17bef,65af5605fa16a017ecb780d2,2024-01-23_08h01.03.511,bars,2023.2.3,Win32,59.88023952,657b66ea316d21385b68909f,,,,,,,,,,,478.795,479.7902,,,480.29,480.5397,,163,163,,,,,,,,,,,,,,,,bars/046.png,bars/mask008.png,,,,,,,,,,,,1,1,,,,,,,2,0,1,0,,,,,,,,,,,479.7902,480.29,480.5397,482.4398,space,1.8978,,482.4399,8,78,483.4397,483.4398,483.9232,space,0.4652,,0,22,22,22,1,155,85,,,,,,,,
,,5deef5412dc5c65901b17bef,65af5605fa16a017ecb780d2,2024-01-23_08h01.03.511,bars,2023.2.3,Win32,59.88023952,657b66ea316d21385b68909f,,,,,,,,,,,483.9236,484.9233,,,485.4235,485.6733,,169,169,,,,,,,,,,,,,,,,bars/036.png,bars/mask006.png,,,,,,,,,,,,0,1,,,,,,,0,0,0,3,,,,,,,,,,,484.9233,485.4234,485.6733,489.4074,space,3.7251,,489.4075,24,31,490.4067,490.4068,490.9731,space,0.5394,,0,23,23,23,1,145,20,,,,,,,,
,,5deef5412dc5c65901b17bef,65af5605fa16a017ecb780d2,2024-01-23_08h01.03.511,bars,2023.2.3,Win32,59.88023952,657b66ea316d21385b68909f,,,,,,,,,,,490.9734,491.9734,,,492.4733,492.723,,164,164,,,,,,,,,,,,,,,,bars/014.png,bars/mask008.png,,,,,,,,,,,,1,2,,,,,,,2,2,2,2,,,,,,,,,,,491.9734,492.4733,492.723,495.3069,space,2.5713,,495.307,84,16,496.3065,496.3066,496.9902,space,0.6471,,0,24,24,24,1,80,0,,,,,,,,
,,5deef5412dc5c65901b17bef,65af5605fa16a017ecb780d2,2024-01-23_08h01.03.511,bars,2023.2.3,Win32,59.88023952,657b66ea316d21385b68909f,,,,,,,,,,,496.9907,497.99,,,498.49,498.7396,,1,181,,,,,,,,,,,,,,,,bars/013.png,bars/mask001.png,,,,,,,,,,,,0,2,,,,,,,4,0,2,0,,,,,,,,,,,497.99,498.49,498.7396,502.0567,space,3.3045,,502.0568,74,9,503.0565,503.0566,503.4901,space,0.4033,,0,25,25,25,1,75,10,,,,,,,,
,,5deef5412dc5c65901b17bef,65af5605fa16a017ecb780d2,2024-01-23_08h01.03.511,bars,2023.2.3,Win32,59.88023952,657b66ea316d21385b68909f,,,,,,,,,,,503.4907,504.4895,,,504.9895,505.24,,102,102,,,,,,,,,,,,,,,,bars/029.png,bars/mask008.png,,,,,,,,,,,,1,1,,,,,,,2,2,2,2,,,,,,,,,,,504.4895,504.9895,505.24,506.4396,space,1.1827,,506.4396,12,57,507.44,507.4401,508.1733,space,0.7221,,0,26,26,26,1,90,45,,,,,,,,
,,5deef5412dc5c65901b17bef,65af5605fa16a017ecb780d2,2024-01-23_08h01.03.511,bars,2023.2.3,Win32,59.88023952,657b66ea316d21385b68909f,,,,,,,,,,,508.1738,509.1733,,,509.6733,509.9232,,94,-86,,,,,,,,,,,,,,,,bars/025.png,bars/mask003.png,,,,,,,,,,,,0,1,,,,,,,0,4,0,6,,,,,,,,,,,509.1733,509.6732,509.9232,513.5234,space,3.5874,,513.5235,11,54,514.5233,514.5233,514.9732,space,0.4256,,0,27,27,27,1,105,40,,,,,,,,
,,5deef5412dc5c65901b17bef,65af5605fa16a017ecb780d2,2024-01-23_08h01.03.511,bars,2023.2.3,Win32,59.88023952,657b66ea316d21385b68909f,,,,,,,,,,,514.9736,515.9731,,,516.4733,516.7229,,75,75,,,,,,,,,,,,,,,,bars/009.png,bars/mask006.png,,,,,,,,,,,,0,2,,,,,,,2,2,1,3,,,,,,,,,,,515.9731,516.4732,516.723,518.4562,space,1.7246,,518.4562,60,30,519.4565,519.4565,520.1234,space,0.6323,,0,28,28,28,1,15,105,,,,,,,,
,,5deef5412dc5c65901b17bef,65af5605fa16a017ecb780d2,2024-01-23_08h01.03.511,bars,2023.2.3,Win32,59.88023952,657b66ea316d21385b68909f,,,,,,,,,,,520.1241,521.123,,,521.6234,521.8732,,90,90,,,,,,,,,,,,,,,,bars/007.png,bars/mask001.png,,,,,,,,,,,,0,2,,,,,,,0,0,0,1,,,,,,,,,,,521.1231,521.6233,521.8732,524.457,space,2.5679,,524.457,85,35,525.4568,525.4568,525.9228,space,0.4326,,0,29,29,29,1,175,55,,,,,,,,
,,5deef5412dc5c65901b17bef,65af5605fa16a017ecb780d2,2024-01-23_08h01.03.511,bars,2023.2.3,Win32,59.88023952,657b66ea316d21385b68909f,,,,,,,,,,,525.9232,526.9228,,,527.4233,527.6731,,148,148,,,,,,,,,,,,,,,,bars/033.png,bars/mask002.png,,,,,,,,,,,,1,2,,,,,,,2,2,3,1,,,,,,,,,,,526.9229,527.4233,527.6731,529.1568,space,1.4701,,529.1568,57,7,530.1567,530.1567,530.5394,space,0.3742,,0,30,30,30,1,25,155,,,,,,,,
,,5deef5412dc5c65901b17bef,65af5605fa16a017ecb780d2,2024-01-23_08h01.03.511,bars,2023.2.3,Win32,59.88023952,657b66ea316d21385b68909f,,,,,,,,,,,530.5397,531.5395,,,532.0395,532.2897,,53,233,,,,,,,,,,,,,,,,bars/000.png,bars/mask004.png,,,,,,,,,,,,0,1,,,,,,,0,0,0,0,,,,,,,,,,,531.5396,532.0395,532.2898,536.0899,space,3.7969,,536.0899,13,88,537.0896,537.0897,539.7234,space,2.6008,,0,31,31,31,1,40,145,,,,,,,,
,,5deef5412dc5c65901b17bef,65af5605fa16a017ecb780d2,2024-01-23_08h01.03.511,bars,2023.2.3,Win32,59.88023952,657b66ea316d21385b68909f,,,,,,,,,,,539.7241,540.7227,,,541.2233,541.4727,,44,224,,,,,,,,,,,,,,,,bars/003.png,bars/mask008.png,,,,,,,,,,,,0,1,,,,,,,0,0,1,0,,,,,,,,,,,540.7227,541.2232,541.4728,545.6232,space,4.136,,545.6232,19,84,546.6232,546.6232,547.6735,space,1.025,,0,32,32,32,1,25,140,,,,,,,,
,,5deef5412dc5c65901b17bef,65af5605fa16a017ecb780d2,2024-01-23_08h01.03.511,bars,2023.2.3,Win32,59.88023952,657b66ea316d21385b68909f,,,,,,,,,,,547.6742,548.6731,,,549.1732,549.423,,102,102,,,,,,,,,,,,,,,,bars/012.png,bars/mask005.png,,,,,,,,,,,,1,1,,,,,,,2,0,1,2,,,,,,,,,,,548.6732,549.1731,549.4231,553.3561,space,3.9262,,553.3561,12,87,554.356,554.356,555.0394,space,0.6692,,0,33,33,33,1,90,15,,,,,,,,
,,5deef5412dc5c65901b17bef,65af5605fa16a017ecb780d2,2024-01-23_08h01.03.511,bars,2023.2.3,Win32,59.88023952,657b66ea316d21385b68909f,,,,,,,,,,,555.0397,556.0394,,,556.5394,556.7894,,74,74,,,,,,,,,,,,,,,,bars/044.png,bars/mask007.png,,,,,,,,,,,,0,1,,,,,,,0,0,0,0,,,,,,,,,,,556.0394,556.5394,556.7895,560.2893,space,3.4955,,560.2893,1,81,561.2894,561.2894,562.0733,space,0.7682,,0,34,34,34,1,75,155,,,,,,,,
,,5deef5412dc5c65901b17bef,65af5605fa16a017ecb780d2,2024-01-23_08h01.03.511,bars,2023.2.3,Win32,59.88023952,657b66ea316d21385b68909f,,,,,,,,,,,562.0739,563.0729,,,563.5727,563.8227,,125,125,,,,,,,,,,,,,,,,bars/002.png,bars/mask000.png,,,,,,,,,,,,2,1,,,,,,,2,2,2,2,,,,,,,,,,,563.0729,563.5727,563.8227,564.923,space,1.0962,,564.923,5,40,565.9229,565.9229,566.64,space,0.7014,,0,35,35,35,1,130,85,,,,,,,,
,,5deef5412dc5c65901b17bef,65af5605fa16a017ecb780d2,2024-01-23_08h01.03.511,bars,2023.2.3,Win32,59.88023952,657b66ea316d21385b68909f,,,,,,,,,,,566.6406,567.6397,,,568.1397,568.3895,,117,117,,,,,,,,,,,,,,,,bars/037.png,bars/mask006.png,,,,,,,,,,,,0,2,,,,,,,0,0,0,0,,,,,,,,,,,567.6398,568.1396,568.3895,570.4395,space,2.0413,,570.4395,33,12,571.4396,571.4397,571.6059,space,0.1375,,0,36,36,36,1,150,105,,,,,,,,
,,5deef5412dc5c65901b17bef,65af5605fa16a017ecb780d2,2024-01-23_08h01.03.511,bars,2023.2.3,Win32,59.88023952,657b66ea316d21385b68909f,,,,,,,,,,,571.6062,572.6062,,,573.1063,573.3562,,146,-34,,,,,,,,,,,,,,,,bars/032.png,bars/mask007.png,,,,,,,,,,,,0,1,,,,,,,0,0,0,0,,,,,,,,,,,572.6063,573.1063,573.3562,575.8065,space,2.4436,,575.8065,21,54,576.806,576.8061,577.1061,space,0.2827,,0,37,37,37,1,125,20,,,,,,,,
,,5deef5412dc5c65901b17bef,65af5605fa16a017ecb780d2,2024-01-23_08h01.03.511,bars,2023.2.3,Win32,59.88023952,657b66ea316d21385b68909f,,,,,,,,,,,577.1062,578.1062,,,578.6059,578.8562,,177,177,,,,,,,,,,,,,,,,bars/023.png,bars/mask007.png,,,,,,,,,,,,0,1,,,,,,,0,0,0,0,,,,,,,,,,,578.1063,578.6059,578.8563,582.8894,space,4.0217,,582.8894,23,62,583.8892,583.8892,584.3564,space,0.4487,,0,38,38,38,1,20,115,,,,,,,,
,,5deef5412dc5c65901b17bef,65af5605fa16a017ecb780d2,2024-01-23_08h01.03.511,bars,2023.2.3,Win32,59.88023952,657b66ea316d21385b68909f,,,,,,,,,,,584.3568,585.3564,,,585.8562,586.1059,,144,144,,,,,,,,,,,,,,,,bars/008.png,bars/mask004.png,,,,,,,,,,,,0,1,,,,,,,0,2,0,3,,,,,,,,,,,585.3564,585.8561,586.1059,587.5227,space,1.4049,,587.5228,34,36,588.5225,588.5225,589.1231,space,0.5885,,0,39,39,39,1,110,0,,,,,,,,
,,5deef5412dc5c65901b17bef,65af5605fa16a017ecb780d2,2024-01-23_08h01.03.511,bars,2023.2.3,Win32,59.88023952,657b66ea316d21385b68909f,,,,,,,,,,,589.1236,590.1229,,,590.6231,590.8725,,159,159,,,,,,,,,,,,,,,,bars/042.png,bars/mask009.png,,,,,,,,,,,,1,1,,,,,,,2,0,1,1,,,,,,,,,,,590.1229,590.623,590.8725,592.1726,space,1.2867,,592.1726,14,84,593.1729,593.1731,593.1953,space,0.0005,,0,40,40,40,1,145,75,,,,,,,,
,,5deef5412dc5c65901b17bef,65af5605fa16a017ecb780d2,2024-01-23_08h01.03.511,bars,2023.2.3,Win32,59.88023952,657b66ea316d21385b68909f,,,,,,,,,,,593.1955,594.1895,,,594.6897,594.9393,,57,57,,,,,,,,,,,,,,,,bars/034.png,bars/mask007.png,,,,,,,,,,,,2,2,,,,,,,4,2,5,3,,,,,,,,,,,594.1896,594.6896,594.9393,597.0394,space,2.0805,,597.0395,68,8,598.0395,598.0395,600.3565,space,2.2801,,0,41,41,41,1,125,65,,,,,,,,
,,5deef5412dc5c65901b17bef,65af5605fa16a017ecb780d2,2024-01-23_08h01.03.511,bars,2023.2.3,Win32,59.88023952,657b66ea316d21385b68909f,,,,,,,,,,,600.3572,601.3562,,,601.8562,602.1061,,18,18,,,,,,,,,,,,,,,,bars/040.png,bars/mask005.png,,,,,,,,,,,,3,2,,,,,,,2,4,2,5,,,,,,,,,,,601.3563,601.8561,602.1061,603.8725,space,1.7444,,603.8725,58,13,604.8727,604.8727,606.0564,space,1.1549,,0,42,42,42,1,140,5,,,,,,,,
,,5deef5412dc5c65901b17bef,65af5605fa16a017ecb780d2,2024-01-23_08h01.03.511,bars,2023.2.3,Win32,59.88023952,657b66ea316d21385b68909f,,,,,,,,,,,606.057,607.056,,,607.5558,607.8063,,140,-40,,,,,,,,,,,,,,,,bars/014.png,bars/mask006.png,,,,,,,,,,,,0,2,,,,,,,4,2,3,2,,,,,,,,,,,607.056,607.5558,607.8064,611.3891,space,3.5743,,611.3891,60,40,612.3895,612.3895,632.5737,space,20.1508,,0,43,43,43,1,80,0,,,,,,,,
,,5deef5412dc5c65901b17bef,65af5605fa16a017ecb780d2,2024-01-23_08h01.03.511,bars,2023.2.3,Win32,59.88023952,657b66ea316d21385b68909f,,,,,,,,,,,632.6007,633.5891,,,634.0889,634.339,,176,176,,,,,,,,,,,,,,,,bars/043.png,bars/mask007.png,,,,,,,,,,,,0,1,,,,,,,2,0,1,0,,,,,,,,,,,633.5891,634.0889,634.3391,637.7224,space,3.367,,637.7224,34,46,638.7224,638.7224,640.389,space,1.6413,,0,44,44,44,1,30,130,,,,,,,,
,,5deef5412dc5c65901b17bef,65af5605fa16a017ecb780d2,2024-01-23_08h01.03.511,bars,2023.2.3,Win32,59.88023952,657b66ea316d21385b68909f,,,,,,,,,,,640.3893,641.389,,,641.889,642.139,,74,74,,,,,,,,,,,,,,,,bars/020.png,bars/mask006.png,,,,,,,,,,,,0,1,,,,,,,0,2,0,2,,,,,,,,,,,641.389,641.889,642.139,645.5557,space,3.4065,,645.5558,41,84,646.5557,646.5557,648.9397,space,2.3638,,0,45,45,45,1,115,170,,,,,,,,
,,5deef5412dc5c65901b17bef,65af5605fa16a017ecb780d2,2024-01-23_08h01.03.511,bars,2023.2.3,Win32,59.88023952,657b66ea316d21385b68909f,,,,,,,,,,,648.9405,649.9388,,,650.4391,650.689,,122,122,,,,,,,,,,,,,,,,bars/011.png,bars/mask009.png,,,,,,,,,,,,0,2,,,,,,,2,0,2,0,,,,,,,,,,,649.9388,650.4391,650.689,654.7558,space,4.0563,,654.7558,38,37,655.7556,655.7556,657.0057,space,1.2275,,0,46,46,46,1,160,85,,,,,,,,
,,5deef5412dc5c65901b17bef,65af5605fa16a017ecb780d2,2024-01-23_08h01.03.511,bars,2023.2.3,Win32,59.88023952,657b66ea316d21385b68909f,,,,,,,,,,,657.006,658.0057,,,658.5057,658.7556,,167,167,,,,,,,,,,,,,,,,bars/001.png,bars/mask008.png,,,,,,,,,,,,0,1,,,,,,,4,2,3,2,,,,,,,,,,,658.0057,658.5057,658.7556,662.2059,space,3.4336,,662.2059,37,82,663.2056,663.2056,664.3223,space,1.1021,,0,47,47,47,1,130,85,,,,,,,,
,,5deef5412dc5c65901b17bef,65af5605fa16a017ecb780d2,2024-01-23_08h01.03.511,bars,2023.2.3,Win32,59.88023952,657b66ea316d21385b68909f,,,,,,,,,,,664.3226,665.3223,,,665.8222,666.0722,,109,109,,,,,,,,,,,,,,,,bars/028.png,bars/mask004.png,,,,,,,,,,,,1,2,,,,,,,6,0,5,2,,,,,,,,,,,665.3223,665.8222,666.0722,670.4393,space,4.353,,670.4393,64,11,671.4389,671.4389,676.4056,space,4.9458,,0,48,48,48,1,45,120,,,,,,,,
,,5deef5412dc5c65901b17bef,65af5605fa16a017ecb780d2,2024-01-23_08h01.03.511,bars,2023.2.3,Win32,59.88023952,657b66ea316d21385b68909f,,,,,,,,,,,676.4109,677.4055,,,677.9055,678.1556,,67,67,,,,,,,,,,,,,,,,bars/043.png,bars/mask006.png,,,,,,,,,,,,0,1,,,,,,,4,0,4,1,,,,,,,,,,,677.4055,677.9055,678.1556,682.1055,space,3.9342,,682.1056,37,63,683.1055,683.1055,683.4898,space,0.3631,,0,49,49,49,1,30,130,,,,,,,,
,,5deef5412dc5c65901b17bef,65af5605fa16a017ecb780d2,2024-01-23_08h01.03.511,bars,2023.2.3,Win32,59.88023952,657b66ea316d21385b68909f,,,,,,,,,,,,,,,,,,,,,,,,,,,,,,,,,,,,,,,,,,,,,,,,,,,,,,,,,,,,,,,,,,,,,,,,,,,,,,,,,,,,,,,,,,,,,683.4917,743.4894,0,0,0,3,1,sequence_tables/blk040.csv
,,5deef5412dc5c65901b17bef,65af5605fa16a017ecb780d2,2024-01-23_08h01.03.511,bars,2023.2.3,Win32,59.88023952,657b66ea316d21385b68909f,,,,,,,,,,,753.0135,754.0055,,,754.5054,754.7555,,1,181,,,,,,,,,,,,,,,,bars/012.png,bars/mask009.png,,,,,,,,,,,,2,2,,,,,,,3,3,2,3,,,,,,743.4979,753.0052,space,9.4996,,754.0055,754.5054,754.7556,758.5888,space,3.8179,,758.5889,89,14,759.5886,759.5886,759.5999,,,,0,0,0,0,1,90,15,,,,,,,,
,,5deef5412dc5c65901b17bef,65af5605fa16a017ecb780d2,2024-01-23_08h01.03.511,bars,2023.2.3,Win32,59.88023952,657b66ea316d21385b68909f,,,,,,,,,,,759.6001,760.5884,,,761.089,761.3389,,150,150,,,,,,,,,,,,,,,,bars/018.png,bars/mask005.png,,,,,,,,,,,,1,1,,,,,,,1,1,1,2,,,,,,,,,,,760.5884,761.089,761.3389,764.6889,space,3.3342,,764.689,0,60,765.6885,765.6885,765.6974,,,,0,1,1,1,1,150,90,,,,,,,,
,,5deef5412dc5c65901b17bef,65af5605fa16a017ecb780d2,2024-01-23_08h01.03.511,bars,2023.2.3,Win32,59.88023952,657b66ea316d21385b68909f,,,,,,,,,,,765.6976,766.6884,,,767.1888,767.439,,66,66,,,,,,,,,,,,,,,,bars/048.png,bars/mask004.png,,,,,,,,,,,,2,1,,,,,,,3,0,4,0,,,,,,,,,,,766.6884,767.1887,767.4391,771.0392,space,3.5905,,771.0393,16,71,772.0384,772.0384,772.0441,,,,0,2,2,2,1,50,175,,,,,,,,
,,5deef5412dc5c65901b17bef,65af5605fa16a017ecb780d2,2024-01-23_08h01.03.511,bars,2023.2.3,Win32,59.88023952,657b66ea316d21385b68909f,,,,,,,,,,,772.0443,773.0387,,,773.5389,773.7886,,83,83,,,,,,,,,,,,,,,,bars/014.png,bars/mask009.png,,,,,,,,,,,,0,1,,,,,,,1,2,0,4,,,,,,,,,,,773.0388,773.5389,773.7887,775.439,space,1.6425,,775.439,3,83,776.4389,776.4389,776.4404,,,,0,3,3,3,1,80,0,,,,,,,,
,,5deef5412dc5c65901b17bef,65af5605fa16a017ecb780d2,2024-01-23_08h01.03.511,bars,2023.2.3,Win32,59.88023952,657b66ea316d21385b68909f,,,,,,,,,,,776.4409,777.4388,,,777.9388,778.1886,,109,109,,,,,,,,,,,,,,,,bars/015.png,bars/mask002.png,,,,,,,,,,,,4,1,,,,,,,3,4,4,4,,,,,,,,,,,777.4388,777.9387,778.1886,779.2551,space,1.0504,,779.2551,1,51,780.2551,780.2551,780.2559,,,,0,4,4,4,1,110,160,,,,,,,,
,,5deef5412dc5c65901b17bef,65af5605fa16a017ecb780d2,2024-01-23_08h01.03.511,bars,2023.2.3,Win32,59.88023952,657b66ea316d21385b68909f,,,,,,,,,,,780.2561,781.2554,,,781.755,782.0051,,106,106,,,,,,,,,,,,,,,,bars/025.png,bars/mask006.png,,,,,,,,,,,,2,1,,,,,,,1,6,2,6,,,,,,,,,,,781.2554,781.755,782.0051,786.5886,space,4.5774,,786.5887,1,66,787.5887,787.5887,787.5942,,,,0,5,5,5,1,105,40,,,,,,,,
,,5deef5412dc5c65901b17bef,65af5605fa16a017ecb780d2,2024-01-23_08h01.03.511,bars,2023.2.3,Win32,59.88023952,657b66ea316d21385b68909f,,,,,,,,,,,787.5943,788.5888,,,789.0885,789.3386,,107,107,,,,,,,,,,,,,,,,bars/039.png,bars/mask007.png,,,,,,,,,,,,6,2,,,,,,,0,8,0,6,,,,,,,,,,,788.5888,789.0885,789.3387,791.4885,space,2.1343,,791.4886,68,2,792.4882,792.4882,792.4925,,,,0,6,6,6,1,175,105,,,,,,,,
,,5deef5412dc5c65901b17bef,65af5605fa16a017ecb780d2,2024-01-23_08h01.03.511,bars,2023.2.3,Win32,59.88023952,657b66ea316d21385b68909f,,,,,,,,,,,792.4926,793.4883,,,793.9885,794.2384,,33,33,,,,,,,,,,,,,,,,bars/000.png,bars/mask001.png,,,,,,,,,,,,0,1,,,,,,,0,6,0,6,,,,,,,,,,,793.4883,793.9885,794.2384,795.9883,space,1.7428,,795.9884,7,68,796.9884,796.9885,796.9894,,,,0,7,7,7,1,40,145,,,,,,,,
,,5deef5412dc5c65901b17bef,65af5605fa16a017ecb780d2,2024-01-23_08h01.03.511,bars,2023.2.3,Win32,59.88023952,657b66ea316d21385b68909f,,,,,,,,,,,796.9895,797.9882,,,798.4882,798.7383,,143,143,,,,,,,,,,,,,,,,bars/040.png,bars/mask003.png,,,,,,,,,,,,1,1,,,,,,,2,4,1,4,,,,,,,,,,,797.9882,798.4882,798.7383,801.1054,space,2.3504,,801.1055,3,42,802.1048,802.1048,802.1105,,,,0,8,8,8,1,140,5,,,,,,,,
,,5deef5412dc5c65901b17bef,65af5605fa16a017ecb780d2,2024-01-23_08h01.03.511,bars,2023.2.3,Win32,59.88023952,657b66ea316d21385b68909f,,,,,,,,,,,802.1105,803.1049,,,803.6052,803.8549,,165,165,,,,,,,,,,,,,,,,bars/030.png,bars/mask005.png,,,,,,,,,,,,0,1,,,,,,,4,6,3,6,,,,,,,,,,,803.1049,803.6052,803.8549,808.8221,space,4.9498,,808.8221,25,80,809.8218,809.8218,809.8351,,,,0,9,9,9,1,140,65,,,,,,,,
,,5deef5412dc5c65901b17bef,65af5605fa16a017ecb780d2,2024-01-23_08h01.03.511,bars,2023.2.3,Win32,59.88023952,657b66ea316d21385b68909f,,,,,,,,,,,809.8354,810.8385,,,811.3383,811.5885,,81,81,,,,,,,,,,,,,,,,bars/022.png,bars/mask000.png,,,,,,,,,,,,4,1,,,,,,,6,8,7,9,,,,,,,,,,,810.8385,811.3383,811.5885,814.7885,space,3.1874,,814.7885,14,61,815.7882,815.7882,815.7961,,,,0,10,10,10,1,95,20,,,,,,,,
,,5deef5412dc5c65901b17bef,65af5605fa16a017ecb780d2,2024-01-23_08h01.03.511,bars,2023.2.3,Win32,59.88023952,657b66ea316d21385b68909f,,,,,,,,,,,815.7962,816.7882,,,817.2888,817.5387,,158,-22,,,,,,,,,,,,,,,,bars/011.png,bars/mask005.png,,,,,,,,,,,,4,1,,,,,,,4,6,4,5,,,,,,,,,,,816.7882,817.2888,817.5388,820.0549,space,2.4985,,820.0549,2,73,821.055,821.055,821.0655,,,,0,11,11,11,1,160,85,,,,,,,,
,,5deef5412dc5c65901b17bef,65af5605fa16a017ecb780d2,2024-01-23_08h01.03.511,bars,2023.2.3,Win32,59.88023952,657b66ea316d21385b68909f,,,,,,,,,,,821.0656,822.055,,,822.555,822.8048,,96,96,,,,,,,,,,,,,,,,bars/029.png,bars/mask001.png,,,,,,,,,,,,2,1,,,,,,,2,8,2,9,,,,,,,,,,,822.055,822.555,822.8048,825.3384,space,2.5293,,825.3384,6,51,826.3383,826.3383,826.3521,,,,0,12,12,12,1,90,45,,,,,,,,
,,5deef5412dc5c65901b17bef,65af5605fa16a017ecb780d2,2024-01-23_08h01.03.511,bars,2023.2.3,Win32,59.88023952,657b66ea316d21385b68909f,,,,,,,,,,,826.3523,827.3553,,,827.8552,828.1055,,161,161,,,,,,,,,,,,,,,,bars/007.png,bars/mask000.png,,,,,,,,,,,,1,1,,,,,,,0,10,1,9,,,,,,,,,,,827.3554,827.8552,828.1057,829.1382,space,1.0271,,829.1383,14,74,830.1387,830.1387,830.1401,,,,0,13,13,13,1,175,55,,,,,,,,
,,5deef5412dc5c65901b17bef,65af5605fa16a017ecb780d2,2024-01-23_08h01.03.511,bars,2023.2.3,Win32,59.88023952,657b66ea316d21385b68909f,,,,,,,,,,,830.1412,831.1383,,,831.6381,831.8881,,27,27,,,,,,,,,,,,,,,,bars/005.png,bars/mask001.png,,,,,,,,,,,,0,1,,,,,,,2,10,1,10,,,,,,,,,,,831.1383,831.6381,831.8881,833.8221,space,1.9167,,833.8221,17,67,834.8219,834.8219,834.8232,,,,0,14,14,14,1,10,140,,,,,,,,
,,5deef5412dc5c65901b17bef,65af5605fa16a017ecb780d2,2024-01-23_08h01.03.511,bars,2023.2.3,Win32,59.88023952,657b66ea316d21385b68909f,,,,,,,,,,,834.8237,835.8217,,,836.3214,836.5714,,73,73,,,,,,,,,,,,,,,,bars/025.png,bars/mask009.png,,,,,,,,,,,,0,1,,,,,,,0,8,0,8,,,,,,,,,,,835.8217,836.3214,836.5715,859.6884,space,23.1123,,859.6884,32,33,860.6882,860.6882,860.701,,,,0,15,15,15,1,105,40,,,,,,,,
,,5deef5412dc5c65901b17bef,65af5605fa16a017ecb780d2,2024-01-23_08h01.03.511,bars,2023.2.3,Win32,59.88023952,657b66ea316d21385b68909f,,,,,,,,,,,860.7012,861.7048,,,862.2051,862.4548,,96,96,,,,,,,,,,,,,,,,bars/024.png,bars/mask005.png,,,,,,,,,,,,0,1,,,,,,,0,10,1,8,,,,,,,,,,,861.7048,862.205,862.4548,863.6714,space,1.2006,,863.6714,24,74,864.6715,864.6715,864.6722,,,,0,16,16,16,1,120,170,,,,,,,,
,,5deef5412dc5c65901b17bef,65af5605fa16a017ecb780d2,2024-01-23_08h01.03.511,bars,2023.2.3,Win32,59.88023952,657b66ea316d21385b68909f,,,,,,,,,,,864.6726,865.6714,,,866.1716,866.4215,,157,157,,,,,,,,,,,,,,,,bars/040.png,bars/mask000.png,,,,,,,,,,,,0,1,,,,,,,0,10,0,9,,,,,,,,,,,865.6714,866.1716,866.4216,867.5047,space,1.0792,,867.5047,17,28,868.5047,868.5048,868.5054,,,,0,17,17,17,1,140,5,,,,,,,,
,,5deef5412dc5c65901b17bef,65af5605fa16a017ecb780d2,2024-01-23_08h01.03.511,bars,2023.2.3,Win32,59.88023952,657b66ea316d21385b68909f,,,,,,,,,,,868.5055,869.5049,,,870.0048,870.2548,,164,164,,,,,,,,,,,,,,,,bars/018.png,bars/mask003.png,,,,,,,,,,,,1,1,,,,,,,2,10,2,10,,,,,,,,,,,869.5049,870.0048,870.2548,872.705,space,2.4391,,872.705,14,74,873.7047,873.7047,873.7112,,,,0,18,18,18,1,150,90,,,,,,,,
,,5deef5412dc5c65901b17bef,65af5605fa16a017ecb780d2,2024-01-23_08h01.03.511,bars,2023.2.3,Win32,59.88023952,657b66ea316d21385b68909f,,,,,,,,,,,873.7114,874.705,,,875.2049,875.455,,109,109,,,,,,,,,,,,,,,,bars/027.png,bars/mask001.png,,,,,,,,,,,,5,1,,,,,,,4,8,5,8,,,,,,,,,,,874.7051,875.2049,875.4551,878.238,space,2.772,,878.238,1,59,879.2383,879.2383,879.2515,,,,0,19,19,19,1,110,50,,,,,,,,
,,5deef5412dc5c65901b17bef,65af5605fa16a017ecb780d2,2024-01-23_08h01.03.511,bars,2023.2.3,Win32,59.88023952,657b66ea316d21385b68909f,,,,,,,,,,,879.2518,880.2549,,,880.7549,881.0049,,156,156,,,,,,,,,,,,,,,,bars/042.png,bars/mask007.png,,,,,,,,,,,,4,1,,,,,,,6,10,7,10,,,,,,,,,,,880.2549,880.7549,881.0049,883.905,space,2.8873,,883.905,11,81,884.9046,884.9046,884.912,,,,0,20,20,20,1,145,75,,,,,,,,
,,5deef5412dc5c65901b17bef,65af5605fa16a017ecb780d2,2024-01-23_08h01.03.511,bars,2023.2.3,Win32,59.88023952,657b66ea316d21385b68909f,,,,,,,,,,,884.912,885.9048,,,886.4048,886.6548,,21,201,,,,,,,,,,,,,,,,bars/041.png,bars/mask000.png,,,,,,,,,,,,7,1,,,,,,,8,8,7,7,,,,,,,,,,,885.9048,886.4048,886.6548,888.8881,space,2.2194,,888.8881,1,64,889.888,889.888,889.8982,,,,0,21,21,21,1,20,85,,,,,,,,
,,5deef5412dc5c65901b17bef,65af5605fa16a017ecb780d2,2024-01-23_08h01.03.511,bars,2023.2.3,Win32,59.88023952,657b66ea316d21385b68909f,,,,,,,,,,,889.8984,890.8881,,,891.3882,891.6379,,93,93,,,,,,,,,,,,,,,,bars/012.png,bars/mask003.png,,,,,,,,,,,,5,1,,,,,,,6,10,6,10,,,,,,,,,,,890.8881,891.3882,891.6379,895.0047,space,3.3502,,895.0047,3,78,896.0047,896.0047,896.019,,,,0,22,22,22,1,90,15,,,,,,,,
,,5deef5412dc5c65901b17bef,65af5605fa16a017ecb780d2,2024-01-23_08h01.03.511,bars,2023.2.3,Win32,59.88023952,657b66ea316d21385b68909f,,,,,,,,,,,896.0191,897.0214,,,897.5215,897.7713,,56,56,,,,,,,,,,,,,,,,bars/019.png,bars/mask006.png,,,,,,,,,,,,2,1,,,,,,,4,8,3,7,,,,,,,,,,,897.0214,897.5215,897.7713,900.388,space,2.6104,,900.388,11,49,901.3881,901.3881,901.4023,,,,0,23,23,23,1,45,105,,,,,,,,
,,5deef5412dc5c65901b17bef,65af5605fa16a017ecb780d2,2024-01-23_08h01.03.511,bars,2023.2.3,Win32,59.88023952,657b66ea316d21385b68909f,,,,,,,,,,,901.4025,902.4048,,,902.9048,903.1545,,162,-18,,,,,,,,,,,,,,,,bars/035.png,bars/mask001.png,,,,,,,,,,,,3,1,,,,,,,6,10,6,10,,,,,,,,,,,902.4048,902.9048,903.1545,906.505,space,3.341,,906.505,13,78,907.5045,907.5045,907.5107,,,,0,24,24,24,1,175,60,,,,,,,,
,,5deef5412dc5c65901b17bef,65af5605fa16a017ecb780d2,2024-01-23_08h01.03.511,bars,2023.2.3,Win32,59.88023952,657b66ea316d21385b68909f,,,,,,,,,,,907.5108,908.5047,,,909.0048,909.2546,,80,260,,,,,,,,,,,,,,,,bars/044.png,bars/mask009.png,,,,,,,,,,,,7,1,,,,,,,8,10,8,9,,,,,,,,,,,908.5047,909.0048,909.2547,913.8214,space,4.5545,,913.8214,5,75,914.8214,914.8214,914.8334,,,,0,25,25,25,1,75,155,,,,,,,,
,,5deef5412dc5c65901b17bef,65af5605fa16a017ecb780d2,2024-01-23_08h01.03.511,bars,2023.2.3,Win32,59.88023952,657b66ea316d21385b68909f,,,,,,,,,,,914.8336,915.8214,,,916.3214,916.5714,,123,123,,,,,,,,,,,,,,,,bars/024.png,bars/mask003.png,,,,,,,,,,,,9,1,,,,,,,10,8,10,8,,,,,,,,,,,915.8214,916.3213,916.5715,919.2048,space,2.6243,,919.2048,3,47,920.2049,920.2049,920.2176,,,,0,26,26,26,1,120,170,,,,,,,,
,,5deef5412dc5c65901b17bef,65af5605fa16a017ecb780d2,2024-01-23_08h01.03.511,bars,2023.2.3,Win32,59.88023952,657b66ea316d21385b68909f,,,,,,,,,,,920.2177,921.2214,,,921.7212,921.9713,,96,96,,,,,,,,,,,,,,,,bars/031.png,bars/mask004.png,,,,,,,,,,,,2,1,,,,,,,10,10,10,10,,,,,,,,,,,921.2214,921.7212,921.9713,924.838,space,2.8479,,924.838,24,61,925.8378,925.8379,925.8499,,,,0,27,27,27,1,120,35,,,,,,,,
,,5deef5412dc5c65901b17bef,65af5605fa16a017ecb780d2,2024-01-23_08h01.03.511,bars,2023.2.3,Win32,59.88023952,657b66ea316d21385b68909f,,,,,,,,,,,925.8501,926.8378,,,927.3381,927.5878,,172,172,,,,,,,,,,,,,,,,bars/042.png,bars/mask007.png,,,,,,,,,,,,1,1,,,,,,,8,10,8,10,,,,,,,,,,,926.8378,927.3381,927.5878,929.4379,space,1.8337,,929.4379,27,83,930.4377,930.4377,930.4383,,,,0,28,28,28,1,145,75,,,,,,,,
,,5deef5412dc5c65901b17bef,65af5605fa16a017ecb780d2,2024-01-23_08h01.03.511,bars,2023.2.3,Win32,59.88023952,657b66ea316d21385b68909f,,,,,,,,,,,930.4385,931.4379,,,931.9378,932.188,,144,144,,,,,,,,,,,,,,,,bars/001.png,bars/mask005.png,,,,,,,,,,,,5,1,,,,,,,10,8,9,9,,,,,,,,,,,931.4379,931.9378,932.188,933.9545,space,1.7612,,933.9545,14,59,934.9546,934.9547,934.9625,,,,0,29,29,29,1,130,85,,,,,,,,
,,5deef5412dc5c65901b17bef,65af5605fa16a017ecb780d2,2024-01-23_08h01.03.511,bars,2023.2.3,Win32,59.88023952,657b66ea316d21385b68909f,,,,,,,,,,,934.9627,935.9544,,,936.4546,936.7047,,39,39,,,,,,,,,,,,,,,,bars/023.png,bars/mask005.png,,,,,,,,,,,,3,1,,,,,,,8,10,7,10,,,,,,,,,,,935.9544,936.4546,936.7047,937.7544,space,1.0403,,937.7544,19,76,938.7546,938.7546,938.7687,,,,0,30,30,30,1,20,115,,,,,,,,
,,5deef5412dc5c65901b17bef,65af5605fa16a017ecb780d2,2024-01-23_08h01.03.511,bars,2023.2.3,Win32,59.88023952,657b66ea316d21385b68909f,,,,,,,,,,,938.7688,939.7712,,,940.2713,940.5211,,102,102,,,,,,,,,,,,,,,,bars/022.png,bars/mask000.png,,,,,,,,,,,,4,1,,,,,,,6,10,5,10,,,,,,,,,,,939.7712,940.2712,940.5211,941.5378,space,1.0128,,941.5378,7,82,942.5381,942.5381,942.5388,,,,0,31,31,31,1,95,20,,,,,,,,
,,5deef5412dc5c65901b17bef,65af5605fa16a017ecb780d2,2024-01-23_08h01.03.511,bars,2023.2.3,Win32,59.88023952,657b66ea316d21385b68909f,,,,,,,,,,,942.539,943.5378,,,944.0381,944.2879,,157,-23,,,,,,,,,,,,,,,,bars/049.png,bars/mask003.png,,,,,,,,,,,,1,1,,,,,,,4,10,1,9,,,,,,,,,,,943.5378,944.038,944.288,947.7712,space,3.477,,947.7712,3,42,948.7716,948.7716,948.7866,,,,0,32,32,32,1,160,115,,,,,,,,
,,5deef5412dc5c65901b17bef,65af5605fa16a017ecb780d2,2024-01-23_08h01.03.511,bars,2023.2.3,Win32,59.88023952,657b66ea316d21385b68909f,,,,,,,,,,,948.7868,949.7879,,,950.2877,950.5378,,68,68,,,,,,,,,,,,,,,,bars/012.png,bars/mask008.png,,,,,,,,,,,,1,1,,,,,,,2,8,2,8,,,,,,,,,,,949.7879,950.2877,950.5378,953.3378,space,2.793,,953.3379,22,53,954.3379,954.3379,954.3522,,,,0,33,33,33,1,90,15,,,,,,,,
,,5deef5412dc5c65901b17bef,65af5605fa16a017ecb780d2,2024-01-23_08h01.03.511,bars,2023.2.3,Win32,59.88023952,657b66ea316d21385b68909f,,,,,,,,,,,954.3525,955.3544,,,955.8545,956.1047,,159,-21,,,,,,,,,,,,,,,,bars/026.png,bars/mask009.png,,,,,,,,,,,,0,1,,,,,,,4,6,5,8,,,,,,,,,,,955.3544,955.8545,956.1047,966.6378,space,10.5219,,966.6379,56,74,967.6376,967.6376,967.6446,,,,0,34,34,34,1,35,85,,,,,,,,
,,5deef5412dc5c65901b17bef,65af5605fa16a017ecb780d2,2024-01-23_08h01.03.511,bars,2023.2.3,Win32,59.88023952,657b66ea316d21385b68909f,,,,,,,,,,,967.6448,968.6376,,,969.1377,969.3875,,35,215,,,,,,,,,,,,,,,,bars/043.png,bars/mask007.png,,,,,,,,,,,,4,1,,,,,,,6,8,5,9,,,,,,,,,,,968.6376,969.1377,969.3875,974.2051,space,4.8102,,974.2051,5,85,975.2043,975.2043,975.2157,,,,0,35,35,35,1,30,130,,,,,,,,
,,5deef5412dc5c65901b17bef,65af5605fa16a017ecb780d2,2024-01-23_08h01.03.511,bars,2023.2.3,Win32,59.88023952,657b66ea316d21385b68909f,,,,,,,,,,,975.2159,976.2042,,,976.7045,976.9544,,151,151,,,,,,,,,,,,,,,,bars/042.png,bars/mask006.png,,,,,,,,,,,,7,1,,,,,,,8,10,9,9,,,,,,,,,,,976.2042,976.7045,976.9544,981.0712,space,4.1068,,981.0712,6,76,982.0711,982.0711,982.0836,,,,0,36,36,36,1,145,75,,,,,,,,
,,5deef5412dc5c65901b17bef,65af5605fa16a017ecb780d2,2024-01-23_08h01.03.511,bars,2023.2.3,Win32,59.88023952,657b66ea316d21385b68909f,,,,,,,,,,,982.0838,983.088,,,983.5879,983.8378,,33,213,,,,,,,,,,,,,,,,bars/003.png,bars/mask007.png,,,,,,,,,,,,7,1,,,,,,,10,8,9,9,,,,,,,,,,,983.088,983.5878,983.8378,988.7378,space,4.8952,,988.7378,8,73,989.7378,989.7378,989.7537,,,,0,37,37,37,1,25,140,,,,,,,,
,,5deef5412dc5c65901b17bef,65af5605fa16a017ecb780d2,2024-01-23_08h01.03.511,bars,2023.2.3,Win32,59.88023952,657b66ea316d21385b68909f,,,,,,,,,,,989.754,990.7543,,,991.2541,991.5042,,21,21,,,,,,,,,,,,,,,,bars/026.png,bars/mask005.png,,,,,,,,,,,,5,1,,,,,,,10,10,10,10,,,,,,,,,,,990.7543,991.2541,991.5042,992.9707,space,1.4489,,992.9708,14,64,993.971,993.971,993.9826,,,,0,38,38,38,1,35,85,,,,,,,,
,,5deef5412dc5c65901b17bef,65af5605fa16a017ecb780d2,2024-01-23_08h01.03.511,bars,2023.2.3,Win32,59.88023952,657b66ea316d21385b68909f,,,,,,,,,,,993.9828,994.9709,,,995.471,995.7209,,166,166,,,,,,,,,,,,,,,,bars/047.png,bars/mask009.png,,,,,,,,,,,,0,1,,,,,,,10,10,10,10,,,,,,,,,,,994.9709,995.471,995.7209,999.3042,space,3.5672,,999.3042,29,84,1000.3043,1000.3044,1000.3177,,,,0,39,39,39,1,15,70,,,,,,,,
,,5deef5412dc5c65901b17bef,65af5605fa16a017ecb780d2,2024-01-23_08h01.03.511,bars,2023.2.3,Win32,59.88023952,657b66ea316d21385b68909f,,,,,,,,,,,1000.3178,1001.3211,,,1001.821,1002.071,,28,28,,,,,,,,,,,,,,,,bars/048.png,bars/mask001.png,,,,,,,,,,,,2,1,,,,,,,8,8,7,7,,,,,,,,,,,1001.3211,1001.8209,1002.071,1004.7044,space,2.6212,,1004.7044,22,33,1005.7043,1005.7043,1005.7182,,,,0,40,40,40,1,50,175,,,,,,,,
,,5deef5412dc5c65901b17bef,65af5605fa16a017ecb780d2,2024-01-23_08h01.03.511,bars,2023.2.3,Win32,59.88023952,657b66ea316d21385b68909f,,,,,,,,,,,1005.7185,1006.721,,,1007.2211,1007.4714,,42,222,,,,,,,,,,,,,,,,bars/000.png,bars/mask007.png,,,,,,,,,,,,9,1,,,,,,,10,6,10,7,,,,,,,,,,,1006.721,1007.2211,1007.4714,1011.788,space,4.2951,,1011.788,2,77,1012.7877,1012.7877,1012.8018,,,,0,41,41,41,1,40,145,,,,,,,,
,,5deef5412dc5c65901b17bef,65af5605fa16a017ecb780d2,2024-01-23_08h01.03.511,bars,2023.2.3,Win32,59.88023952,657b66ea316d21385b68909f,,,,,,,,,,,1012.8019,1013.8043,,,1014.3041,1014.5544,,153,-27,,,,,,,,,,,,,,,,bars/049.png,bars/mask006.png,,,,,,,,,,,,8,1,,,,,,,10,4,10,4,,,,,,,,,,,1013.8044,1014.3041,1014.5544,1020.7209,space,6.1552,,1020.7209,7,38,1021.7207,1021.7207,1021.727,,,,0,42,42,42,1,160,115,,,,,,,,
,,5deef5412dc5c65901b17bef,65af5605fa16a017ecb780d2,2024-01-23_08h01.03.511,bars,2023.2.3,Win32,59.88023952,657b66ea316d21385b68909f,,,,,,,,,,,1021.7271,1022.7209,,,1023.221,1023.4709,,16,196,,,,,,,,,,,,,,,,bars/010.png,bars/mask008.png,,,,,,,,,,,,0,1,,,,,,,8,6,7,7,,,,,,,,,,,1022.7209,1023.221,1023.4709,1024.9713,space,1.4867,,1024.9714,31,39,1025.9708,1025.9708,1025.9845,,,,0,43,43,43,1,165,55,,,,,,,,
,,5deef5412dc5c65901b17bef,65af5605fa16a017ecb780d2,2024-01-23_08h01.03.511,bars,2023.2.3,Win32,59.88023952,657b66ea316d21385b68909f,,,,,,,,,,,1025.9847,1026.9878,,,1027.4875,1027.7374,,167,167,,,,,,,,,,,,,,,,bars/005.png,bars/mask004.png,,,,,,,,,,,,2,1,,,,,,,10,8,10,9,,,,,,,,,,,1026.9878,1027.4874,1027.7374,1028.7374,space,0.995,,1028.7375,23,27,1029.7374,1029.7375,1029.748,,,,0,44,44,44,1,10,140,,,,,,,,
,,5deef5412dc5c65901b17bef,65af5605fa16a017ecb780d2,2024-01-23_08h01.03.511,bars,2023.2.3,Win32,59.88023952,657b66ea316d21385b68909f,,,,,,,,,,,1029.7483,1030.7375,,,1031.2374,1031.4877,,111,111,,,,,,,,,,,,,,,,bars/013.png,bars/mask001.png,,,,,,,,,,,,0,1,,,,,,,10,10,10,10,,,,,,,,,,,1030.7375,1031.2374,1031.4877,1045.2876,space,13.7883,,1045.2877,36,79,1046.2874,1046.2874,1046.2971,,,,0,45,45,45,1,75,10,,,,,,,,
,,5deef5412dc5c65901b17bef,65af5605fa16a017ecb780d2,2024-01-23_08h01.03.511,bars,2023.2.3,Win32,59.88023952,657b66ea316d21385b68909f,,,,,,,,,,,1046.2973,1047.2876,,,1047.7873,1048.0376,,21,21,,,,,,,,,,,,,,,,bars/004.png,bars/mask009.png,,,,,,,,,,,,6,1,,,,,,,8,8,7,8,,,,,,,,,,,1047.2876,1047.7872,1048.0376,1049.5376,space,1.4862,,1049.5376,4,76,1050.5373,1050.5373,1050.5447,,,,0,46,46,46,1,25,125,,,,,,,,
,,5deef5412dc5c65901b17bef,65af5605fa16a017ecb780d2,2024-01-23_08h01.03.511,bars,2023.2.3,Win32,59.88023952,657b66ea316d21385b68909f,,,,,,,,,,,1050.5448,1051.5375,,,1052.0374,1052.2876,,101,101,,,,,,,,,,,,,,,,bars/022.png,bars/mask007.png,,,,,,,,,,,,8,1,,,,,,,10,10,10,10,,,,,,,,,,,1051.5375,1052.0374,1052.2876,1062.3378,space,10.0379,,1062.3379,6,81,1063.3372,1063.3372,1063.3433,,,,0,47,47,47,1,95,20,,,,,,,,
,,5deef5412dc5c65901b17bef,65af5605fa16a017ecb780d2,2024-01-23_08h01.03.511,bars,2023.2.3,Win32,59.88023952,657b66ea316d21385b68909f,,,,,,,,,,,1063.3434,1064.3373,,,1064.8373,1065.0873,,87,-93,,,,,,,,,,,,,,,,bars/008.png,bars/mask009.png,,,,,,,,,,,,2,1,,,,,,,8,8,8,8,,,,,,,,,,,1064.3374,1064.8372,1065.0874,1070.1714,space,5.0694,,1070.1715,23,87,1071.1707,1071.1707,1071.1841,,,,0,48,48,48,1,110,0,,,,,,,,
,,5deef5412dc5c65901b17bef,65af5605fa16a017ecb780d2,2024-01-23_08h01.03.511,bars,2023.2.3,Win32,59.88023952,657b66ea316d21385b68909f,,,,,,,,,,,1071.1842,1072.1874,,,1072.6874,1072.9373,,129,-51,,,,,,,,,,,,,,,,bars/008.png,bars/mask004.png,,,,,,,,,,,,4,1,,,,,,,10,6,10,6,,,,,,,,,,,1072.1874,1072.6873,1072.9373,1076.4379,space,3.4923,,1076.438,19,51,1077.4374,1077.4374,1077.4506,,,,0,49,49,49,1,110,0,,,,,,,,
,,5deef5412dc5c65901b17bef,65af5605fa16a017ecb780d2,2024-01-23_08h01.03.511,bars,2023.2.3,Win32,59.88023952,657b66ea316d21385b68909f,,,,,,,,,,,,,,,,,,,,,,,,,,,,,,,,,,,,,,,,,,,,,,,,,,,,,,,,,,,,,,,,,,,,,,,,,,,,,,,,,,,,,,,,,,,,,1077.4507,1137.4538,0,1,1,0,1,sequence_tables/blk029.csv
,,5deef5412dc5c65901b17bef,65af5605fa16a017ecb780d2,2024-01-23_08h01.03.511,bars,2023.2.3,Win32,59.88023952,657b66ea316d21385b68909f,,,,,,,,,,,1140.9897,1141.9871,,,1142.4871,1142.7371,,68,68,,,,,,,,,,,,,,,,bars/019.png,bars/mask001.png,,,,,,,,,,,,2,1,,,,,,,7,6,8,7,,,,,,1137.4688,1140.9869,space,3.5019,,1141.9871,1142.487,1142.7372,1145.7871,space,3.0397,,1145.7871,23,37,1146.7872,1146.7872,1146.8037,,,,0,0,0,0,1,45,105,,,,,,,,
,,5deef5412dc5c65901b17bef,65af5605fa16a017ecb780d2,2024-01-23_08h01.03.511,bars,2023.2.3,Win32,59.88023952,657b66ea316d21385b68909f,,,,,,,,,,,1146.804,1147.8041,,,1148.3037,1148.5537,,172,-8,,,,,,,,,,,,,,,,bars/023.png,bars/mask009.png,,,,,,,,,,,,0,1,,,,,,,5,4,7,3,,,,,,,,,,,1147.8041,1148.3037,1148.5537,1152.3536,space,3.7953,,1152.3537,28,57,1153.354,1153.3541,1153.3807,,,,0,1,1,1,1,20,115,,,,,,,,
,,5deef5412dc5c65901b17bef,65af5605fa16a017ecb780d2,2024-01-23_08h01.03.511,bars,2023.2.3,Win32,59.88023952,657b66ea316d21385b68909f,,,,,,,,,,,1153.3809,1154.3701,,,1154.8703,1155.1205,,142,-38,,,,,,,,,,,,,,,,bars/021.png,bars/mask000.png,,,,,,,,,,,,1,1,,,,,,,3,2,2,2,,,,,,,,,,,1154.3701,1154.8703,1155.1205,1158.0869,space,2.9511,,1158.0869,13,72,1159.0869,1159.087,1159.099,,,,0,2,2,2,1,155,70,,,,,,,,
,,5deef5412dc5c65901b17bef,65af5605fa16a017ecb780d2,2024-01-23_08h01.03.511,bars,2023.2.3,Win32,59.88023952,657b66ea316d21385b68909f,,,,,,,,,,,1159.0992,1160.0873,,,1160.5869,1160.8368,,86,86,,,,,,,,,,,,,,,,bars/044.png,bars/mask009.png,,,,,,,,,,,,0,1,,,,,,,1,0,0,0,,,,,,,,,,,1160.0873,1160.5869,1160.8368,1161.9201,space,1.0707,,1161.9201,11,69,1162.9203,1162.9203,1162.9208,,,,0,3,3,3,1,75,155,,,,,,,,
,,5deef5412dc5c65901b17bef,65af5605fa16a017ecb780d2,2024-01-23_08h01.03.511,bars,2023.2.3,Win32,59.88023952,657b66ea316d21385b68909f,,,,,,,,,,,1162.9213,1163.9203,,,1164.4203,1164.6704,,165,165,,,,,,,,,,,,,,,,bars/046.png,bars/mask000.png,,,,,,,,,,,,3,1,,,,,,,3,0,4,0,,,,,,,,,,,1163.9203,1164.4203,1164.6704,1168.3369,space,3.6605,,1168.337,10,80,1169.337,1169.3371,1169.3497,,,,0,4,4,4,1,155,85,,,,,,,,
,,5deef5412dc5c65901b17bef,65af5605fa16a017ecb780d2,2024-01-23_08h01.03.511,bars,2023.2.3,Win32,59.88023952,657b66ea316d21385b68909f,,,,,,,,,,,1169.3499,1170.3537,,,1170.8537,1171.104,,139,139,,,,,,,,,,,,,,,,bars/036.png,bars/mask006.png,,,,,,,,,,,,2,1,,,,,,,1,2,2,1,,,,,,,,,,,1170.3537,1170.8537,1171.104,1173.3535,space,2.2356,,1173.3535,6,61,1174.3534,1174.3534,1174.3594,,,,0,5,5,5,1,145,20,,,,,,,,
,,5deef5412dc5c65901b17bef,65af5605fa16a017ecb780d2,2024-01-23_08h01.03.511,bars,2023.2.3,Win32,59.88023952,657b66ea316d21385b68909f,,,,,,,,,,,1174.3595,1175.3539,,,1175.8536,1176.1037,,159,-21,,,,,,,,,,,,,,,,bars/038.png,bars/mask008.png,,,,,,,,,,,,0,1,,,,,,,0,4,0,5,,,,,,,,,,,1175.354,1175.8536,1176.1037,1179.3035,space,3.1827,,1179.3035,6,89,1180.3036,1180.3037,1180.321,,,,0,6,6,6,1,165,70,,,,,,,,
,,5deef5412dc5c65901b17bef,65af5605fa16a017ecb780d2,2024-01-23_08h01.03.511,bars,2023.2.3,Win32,59.88023952,657b66ea316d21385b68909f,,,,,,,,,,,1180.3212,1181.3205,,,1181.8201,1182.0701,,23,23,,,,,,,,,,,,,,,,bars/041.png,bars/mask006.png,,,,,,,,,,,,1,1,,,,,,,2,6,1,5,,,,,,,,,,,1181.3205,1181.8201,1182.0701,1185.27,space,3.1906,,1185.27,3,62,1186.2701,1186.2701,1186.2755,,,,0,7,7,7,1,20,85,,,,,,,,
,,5deef5412dc5c65901b17bef,65af5605fa16a017ecb780d2,2024-01-23_08h01.03.511,bars,2023.2.3,Win32,59.88023952,657b66ea316d21385b68909f,,,,,,,,,,,1186.2756,1187.2702,,,1187.77,1188.02,,136,-44,,,,,,,,,,,,,,,,bars/041.png,bars/mask006.png,,,,,,,,,,,,0,2,,,,,,,4,4,3,2,,,,,,,,,,,1187.2703,1187.77,1188.02,1192.0703,space,4.0388,,1192.0703,64,51,1193.0702,1193.0702,1193.0852,,,,0,8,8,8,1,20,85,,,,,,,,
,,5deef5412dc5c65901b17bef,65af5605fa16a017ecb780d2,2024-01-23_08h01.03.511,bars,2023.2.3,Win32,59.88023952,657b66ea316d21385b68909f,,,,,,,,,,,1193.0854,1194.0866,,,1194.5869,1194.8367,,48,228,,,,,,,,,,,,,,,,bars/043.png,bars/mask006.png,,,,,,,,,,,,1,1,,,,,,,2,2,2,1,,,,,,,,,,,1194.0866,1194.5869,1194.8368,1199.7537,space,4.9108,,1199.7537,18,82,1200.7533,1200.7533,1200.7597,,,,0,9,9,9,1,30,130,,,,,,,,
,,5deef5412dc5c65901b17bef,65af5605fa16a017ecb780d2,2024-01-23_08h01.03.511,bars,2023.2.3,Win32,59.88023952,657b66ea316d21385b68909f,,,,,,,,,,,1200.7597,1201.7535,,,1202.2535,1202.5035,,28,28,,,,,,,,,,,,,,,,bars/006.png,bars/mask006.png,,,,,,,,,,,,0,1,,,,,,,0,4,0,3,,,,,,,,,,,1201.7535,1202.2535,1202.5035,1211.8373,space,9.3252,,1211.8373,7,72,1212.8366,1212.8367,1212.845,,,,0,10,10,10,1,35,100,,,,,,,,
,,5deef5412dc5c65901b17bef,65af5605fa16a017ecb780d2,2024-01-23_08h01.03.511,bars,2023.2.3,Win32,59.88023952,657b66ea316d21385b68909f,,,,,,,,,,,1212.8452,1213.8367,,,1214.3367,1214.5868,,166,-14,,,,,,,,,,,,,,,,bars/049.png,bars/mask004.png,,,,,,,,,,,,1,1,,,,,,,0,6,1,6,,,,,,,,,,,1213.8368,1214.3367,1214.5869,1217.1369,space,2.5464,,1217.1369,6,51,1218.1365,1218.1365,1218.1427,,,,0,11,11,11,1,160,115,,,,,,,,
,,5deef5412dc5c65901b17bef,65af5605fa16a017ecb780d2,2024-01-23_08h01.03.511,bars,2023.2.3,Win32,59.88023952,657b66ea316d21385b68909f,,,,,,,,,,,1218.1429,1219.1366,,,1219.6365,1219.8867,,40,220,,,,,,,,,,,,,,,,bars/016.png,bars/mask009.png,,,,,,,,,,,,2,1,,,,,,,0,4,2,3,,,,,,,,,,,1219.1366,1219.6365,1219.8867,1223.2201,space,3.3263,,1223.2201,0,55,1224.22,1224.22,1224.2338,,,,0,12,12,12,1,40,165,,,,,,,,
,,5deef5412dc5c65901b17bef,65af5605fa16a017ecb780d2,2024-01-23_08h01.03.511,bars,2023.2.3,Win32,59.88023952,657b66ea316d21385b68909f,,,,,,,,,,,1224.2341,1225.2369,,,1225.7367,1225.9869,,133,133,,,,,,,,,,,,,,,,bars/018.png,bars/mask009.png,,,,,,,,,,,,0,1,,,,,,,0,6,0,5,,,,,,,,,,,1225.237,1225.7366,1225.9869,1230.47,space,4.4665,,1230.47,17,43,1231.4699,1231.47,1231.4841,,,,0,13,13,13,1,150,90,,,,,,,,
,,5deef5412dc5c65901b17bef,65af5605fa16a017ecb780d2,2024-01-23_08h01.03.511,bars,2023.2.3,Win32,59.88023952,657b66ea316d21385b68909f,,,,,,,,,,,1231.4843,1232.4867,,,1232.9866,1233.2367,,70,70,,,,,,,,,,,,,,,,bars/048.png,bars/mask007.png,,,,,,,,,,,,0,1,,,,,,,2,8,1,8,,,,,,,,,,,1232.4868,1232.9866,1233.2367,1236.9868,space,3.7419,,1236.9868,20,75,1237.9866,1237.9867,1237.9994,,,,0,14,14,14,1,50,175,,,,,,,,
,,5deef5412dc5c65901b17bef,65af5605fa16a017ecb780d2,2024-01-23_08h01.03.511,bars,2023.2.3,Win32,59.88023952,657b66ea316d21385b68909f,,,,,,,,,,,1237.9996,1239.0031,,,1239.5034,1239.7532,,46,46,,,,,,,,,,,,,,,,bars/003.png,bars/mask000.png,,,,,,,,,,,,0,1,,,,,,,0,6,1,5,,,,,,,,,,,1239.0031,1239.5034,1239.7533,1241.2364,space,1.4678,,1241.2364,21,86,1242.2364,1242.2365,1242.2371,,,,0,15,15,15,1,25,140,,,,,,,,
,,5deef5412dc5c65901b17bef,65af5605fa16a017ecb780d2,2024-01-23_08h01.03.511,bars,2023.2.3,Win32,59.88023952,657b66ea316d21385b68909f,,,,,,,,,,,1242.2373,1243.2366,,,1243.7372,1243.9867,,33,33,,,,,,,,,,,,,,,,bars/028.png,bars/mask003.png,,,,,,,,,,,,1,1,,,,,,,0,8,1,9,,,,,,,,,,,1243.2366,1243.7371,1243.9867,1246.6538,space,2.6582,,1246.6539,12,87,1247.6532,1247.6532,1247.6654,,,,0,16,16,16,1,45,120,,,,,,,,
,,5deef5412dc5c65901b17bef,65af5605fa16a017ecb780d2,2024-01-23_08h01.03.511,bars,2023.2.3,Win32,59.88023952,657b66ea316d21385b68909f,,,,,,,,,,,1247.6656,1248.67,,,1249.1698,1249.4199,,73,73,,,,,,,,,,,,,,,,bars/028.png,bars/mask006.png,,,,,,,,,,,,0,1,,,,,,,2,10,1,10,,,,,,,,,,,1248.6702,1249.1698,1249.4199,1251.5031,space,2.069,,1251.5032,28,47,1252.5033,1252.5033,1252.5038,,,,0,17,17,17,1,45,120,,,,,,,,
,,5deef5412dc5c65901b17bef,65af5605fa16a017ecb780d2,2024-01-23_08h01.03.511,bars,2023.2.3,Win32,59.88023952,657b66ea316d21385b68909f,,,,,,,,,,,1252.5041,1253.5032,,,1254.0032,1254.2533,,163,-17,,,,,,,,,,,,,,,,bars/014.png,bars/mask006.png,,,,,,,,,,,,4,2,,,,,,,4,10,2,9,,,,,,,,,,,1253.5032,1254.0032,1254.2534,1257.0031,space,2.7352,,1257.0031,83,17,1258.0032,1258.0033,1258.0182,,,,0,18,18,18,1,80,0,,,,,,,,
,,5deef5412dc5c65901b17bef,65af5605fa16a017ecb780d2,2024-01-23_08h01.03.511,bars,2023.2.3,Win32,59.88023952,657b66ea316d21385b68909f,,,,,,,,,,,1258.0184,1259.0197,,,1259.5198,1259.77,,88,88,,,,,,,,,,,,,,,,bars/038.png,bars/mask007.png,,,,,,,,,,,,4,2,,,,,,,2,10,3,10,,,,,,,,,,,1259.0197,1259.5198,1259.77,1262.9872,space,3.2044,,1262.9872,77,18,1263.9864,1263.9865,1263.9971,,,,0,19,19,19,1,165,70,,,,,,,,
,,5deef5412dc5c65901b17bef,65af5605fa16a017ecb780d2,2024-01-23_08h01.03.511,bars,2023.2.3,Win32,59.88023952,657b66ea316d21385b68909f,,,,,,,,,,,1263.9973,1264.9866,,,1265.4866,1265.7366,,38,38,,,,,,,,,,,,,,,,bars/025.png,bars/mask008.png,,,,,,,,,,,,7,2,,,,,,,0,8,0,8,,,,,,,,,,,1264.9866,1265.4866,1265.7367,1268.7034,space,2.9463,,1268.7035,67,2,1269.7031,1269.7031,1269.7089,,,,0,20,20,20,1,105,40,,,,,,,,
,,5deef5412dc5c65901b17bef,65af5605fa16a017ecb780d2,2024-01-23_08h01.03.511,bars,2023.2.3,Win32,59.88023952,657b66ea316d21385b68909f,,,,,,,,,,,1269.709,1270.703,,,1271.2033,1271.4531,,87,87,,,,,,,,,,,,,,,,bars/034.png,bars/mask004.png,,,,,,,,,,,,3,2,,,,,,,0,10,3,10,,,,,,,,,,,1270.703,1271.2033,1271.4531,1273.8197,space,2.3601,,1273.8197,38,22,1274.8198,1274.8198,1274.8202,,,,0,21,21,21,1,125,65,,,,,,,,
,,5deef5412dc5c65901b17bef,65af5605fa16a017ecb780d2,2024-01-23_08h01.03.511,bars,2023.2.3,Win32,59.88023952,657b66ea316d21385b68909f,,,,,,,,,,,1274.8205,1275.8198,,,1276.3196,1276.5697,,70,70,,,,,,,,,,,,,,,,bars/001.png,bars/mask003.png,,,,,,,,,,,,5,2,,,,,,,2,10,3,9,,,,,,,,,,,1275.8198,1276.3196,1276.5697,1278.3697,space,1.7941,,1278.3697,60,15,1279.3698,1279.3698,1279.3833,,,,0,22,22,22,1,130,85,,,,,,,,
,,5deef5412dc5c65901b17bef,65af5605fa16a017ecb780d2,2024-01-23_08h01.03.511,bars,2023.2.3,Win32,59.88023952,657b66ea316d21385b68909f,,,,,,,,,,,1279.3834,1280.3865,,,1280.8865,1281.1364,,120,120,,,,,,,,,,,,,,,,bars/011.png,bars/mask009.png,,,,,,,,,,,,0,2,,,,,,,0,8,0,8,,,,,,,,,,,1280.3865,1280.8864,1281.1364,1282.2363,space,1.0902,,1282.2363,40,35,1283.2365,1283.2365,1283.238,,,,0,23,23,23,1,160,85,,,,,,,,
,,5deef5412dc5c65901b17bef,65af5605fa16a017ecb780d2,2024-01-23_08h01.03.511,bars,2023.2.3,Win32,59.88023952,657b66ea316d21385b68909f,,,,,,,,,,,1283.2384,1284.2365,,,1284.7363,1284.9864,,108,-72,,,,,,,,,,,,,,,,bars/022.png,bars/mask007.png,,,,,,,,,,,,1,1,,,,,,,2,10,1,10,,,,,,,,,,,1284.2365,1284.7363,1284.9865,1289.4863,space,4.4905,,1289.4864,13,88,1290.4863,1290.4863,1290.4931,,,,0,24,24,24,1,95,20,,,,,,,,
,,5deef5412dc5c65901b17bef,65af5605fa16a017ecb780d2,2024-01-23_08h01.03.511,bars,2023.2.3,Win32,59.88023952,657b66ea316d21385b68909f,,,,,,,,,,,1290.4932,1291.4864,,,1291.9867,1292.2365,,41,41,,,,,,,,,,,,,,,,bars/017.png,bars/mask004.png,,,,,,,,,,,,7,2,,,,,,,4,8,3,8,,,,,,,,,,,1291.4864,1291.9867,1292.2365,1294.7196,space,2.4786,,1294.7197,76,4,1295.7195,1295.7195,1295.7265,,,,0,25,25,25,1,145,45,,,,,,,,
,,5deef5412dc5c65901b17bef,65af5605fa16a017ecb780d2,2024-01-23_08h01.03.511,bars,2023.2.3,Win32,59.88023952,657b66ea316d21385b68909f,,,,,,,,,,,1295.7266,1296.7196,,,1297.2202,1297.4695,,106,106,,,,,,,,,,,,,,,,bars/037.png,bars/mask000.png,,,,,,,,,,,,9,2,,,,,,,6,10,6,9,,,,,,,,,,,1296.7196,1297.2202,1297.4695,1298.5195,space,1.0337,,1298.5196,44,1,1299.52,1299.52,1299.5212,,,,0,26,26,26,1,150,105,,,,,,,,
,,5deef5412dc5c65901b17bef,65af5605fa16a017ecb780d2,2024-01-23_08h01.03.511,bars,2023.2.3,Win32,59.88023952,657b66ea316d21385b68909f,,,,,,,,,,,1299.5215,1300.5198,,,1301.0196,1301.2697,,81,81,,,,,,,,,,,,,,,,bars/021.png,bars/mask008.png,,,,,,,,,,,,6,2,,,,,,,4,10,5,10,,,,,,,,,,,1300.5199,1301.0196,1301.2698,1314.8871,space,13.6061,,1314.8872,74,11,1315.8861,1315.8861,1315.8945,,,,0,27,27,27,1,155,70,,,,,,,,
,,5deef5412dc5c65901b17bef,65af5605fa16a017ecb780d2,2024-01-23_08h01.03.511,bars,2023.2.3,Win32,59.88023952,657b66ea316d21385b68909f,,,,,,,,,,,1315.8947,1316.8864,,,1317.3861,1317.6365,,137,137,,,,,,,,,,,,,,,,bars/044.png,bars/mask003.png,,,,,,,,,,,,4,2,,,,,,,6,10,7,10,,,,,,,,,,,1316.8864,1317.386,1317.6365,1319.2196,space,1.5651,,1319.2196,62,18,1320.2196,1320.2196,1320.2328,,,,0,28,28,28,1,75,155,,,,,,,,
,,5deef5412dc5c65901b17bef,65af5605fa16a017ecb780d2,2024-01-23_08h01.03.511,bars,2023.2.3,Win32,59.88023952,657b66ea316d21385b68909f,,,,,,,,,,,1320.233,1321.2362,,,1321.7361,1321.9861,,34,34,,,,,,,,,,,,,,,,bars/036.png,bars/mask007.png,,,,,,,,,,,,5,2,,,,,,,4,10,4,9,,,,,,,,,,,1321.2363,1321.7361,1321.9861,1325.9527,space,3.9627,,1325.9528,69,14,1326.9529,1326.953,1326.9667,,,,0,29,29,29,1,145,20,,,,,,,,
,,5deef5412dc5c65901b17bef,65af5605fa16a017ecb780d2,2024-01-23_08h01.03.511,bars,2023.2.3,Win32,59.88023952,657b66ea316d21385b68909f,,,,,,,,,,,1326.9669,1327.9696,,,1328.4694,1328.7197,,70,70,,,,,,,,,,,,,,,,bars/034.png,bars/mask008.png,,,,,,,,,,,,7,2,,,,,,,6,8,6,8,,,,,,,,,,,1327.9697,1328.4694,1328.7197,1330.9027,space,2.1735,,1330.9027,55,5,1331.9028,1331.9029,1331.9161,,,,0,30,30,30,1,125,65,,,,,,,,
,,5deef5412dc5c65901b17bef,65af5605fa16a017ecb780d2,2024-01-23_08h01.03.511,bars,2023.2.3,Win32,59.88023952,657b66ea316d21385b68909f,,,,,,,,,,,1331.9164,1332.9199,,,1333.4196,1333.6695,,139,-41,,,,,,,,,,,,,,,,bars/049.png,bars/mask003.png,,,,,,,,,,,,2,1,,,,,,,4,6,5,6,,,,,,,,,,,1332.92,1333.4196,1333.6695,1336.7862,space,3.1013,,1336.7863,21,24,1337.7863,1337.7863,1337.7999,,,,0,31,31,31,1,160,115,,,,,,,,
,,5deef5412dc5c65901b17bef,65af5605fa16a017ecb780d2,2024-01-23_08h01.03.511,bars,2023.2.3,Win32,59.88023952,657b66ea316d21385b68909f,,,,,,,,,,,1337.8001,1338.8029,,,1339.3029,1339.5529,,63,63,,,,,,,,,,,,,,,,bars/031.png,bars/mask008.png,,,,,,,,,,,,0,2,,,,,,,2,8,1,6,,,,,,,,,,,1338.8029,1339.3029,1339.5529,1340.9195,space,1.3564,,1340.9195,57,28,1341.9193,1341.9193,1341.9253,,,,0,32,32,32,1,120,35,,,,,,,,
,,5deef5412dc5c65901b17bef,65af5605fa16a017ecb780d2,2024-01-23_08h01.03.511,bars,2023.2.3,Win32,59.88023952,657b66ea316d21385b68909f,,,,,,,,,,,1341.9254,1342.9195,,,1343.4198,1343.6699,,112,112,,,,,,,,,,,,,,,,bars/023.png,bars/mask005.png,,,,,,,,,,,,5,2,,,,,,,0,6,0,6,,,,,,,,,,,1342.9195,1343.4198,1343.6699,1345.8529,space,2.1731,,1345.8529,88,3,1346.8528,1346.8529,1346.8653,,,,0,33,33,33,1,20,115,,,,,,,,
,,5deef5412dc5c65901b17bef,65af5605fa16a017ecb780d2,2024-01-23_08h01.03.511,bars,2023.2.3,Win32,59.88023952,657b66ea316d21385b68909f,,,,,,,,,,,1346.8654,1347.87,,,1348.3693,1348.6194,,48,228,,,,,,,,,,,,,,,,bars/029.png,bars/mask001.png,,,,,,,,,,,,8,2,,,,,,,2,8,3,9,,,,,,,,,,,1347.87,1348.3693,1348.6194,1353.286,space,4.6577,,1353.2861,42,3,1354.2862,1354.2862,1354.2995,,,,0,34,34,34,1,90,45,,,,,,,,
,,5deef5412dc5c65901b17bef,65af5605fa16a017ecb780d2,2024-01-23_08h01.03.511,bars,2023.2.3,Win32,59.88023952,657b66ea316d21385b68909f,,,,,,,,,,,1354.2997,1355.3026,,,1355.8027,1356.0528,,95,95,,,,,,,,,,,,,,,,bars/010.png,bars/mask008.png,,,,,,,,,,,,0,2,,,,,,,0,10,0,9,,,,,,,,,,,1355.3026,1355.8027,1356.0528,1357.8028,space,1.7362,,1357.8028,70,40,1358.8026,1358.8026,1358.8093,,,,0,35,35,35,1,165,55,,,,,,,,
,,5deef5412dc5c65901b17bef,65af5605fa16a017ecb780d2,2024-01-23_08h01.03.511,bars,2023.2.3,Win32,59.88023952,657b66ea316d21385b68909f,,,,,,,,,,,1358.8095,1359.8026,,,1360.3029,1360.5528,,143,143,,,,,,,,,,,,,,,,bars/000.png,bars/mask006.png,,,,,,,,,,,,8,2,,,,,,,0,8,0,9,,,,,,,,,,,1359.8027,1360.3029,1360.5528,1363.1026,space,2.5318,,1363.1026,77,2,1364.1028,1364.1028,1364.1174,,,,0,36,36,36,1,40,145,,,,,,,,
,,5deef5412dc5c65901b17bef,65af5605fa16a017ecb780d2,2024-01-23_08h01.03.511,bars,2023.2.3,Win32,59.88023952,657b66ea316d21385b68909f,,,,,,,,,,,1364.1177,1365.1197,,,1365.6196,1365.8694,,91,-89,,,,,,,,,,,,,,,,bars/011.png,bars/mask005.png,,,,,,,,,,,,5,2,,,,,,,2,6,3,6,,,,,,,,,,,1365.1198,1365.6196,1365.8695,1370.2858,space,4.3998,,1370.2858,69,6,1371.2859,1371.2861,1371.2963,,,,0,37,37,37,1,160,85,,,,,,,,
,,5deef5412dc5c65901b17bef,65af5605fa16a017ecb780d2,2024-01-23_08h01.03.511,bars,2023.2.3,Win32,59.88023952,657b66ea316d21385b68909f,,,,,,,,,,,1371.2965,1372.2861,,,1372.7861,1373.0361,,19,199,,,,,,,,,,,,,,,,bars/040.png,bars/mask004.png,,,,,,,,,,,,4,2,,,,,,,4,8,4,7,,,,,,,,,,,1372.2862,1372.7861,1373.0361,1374.9528,space,1.9027,,1374.9528,59,14,1375.9527,1375.9527,1375.9663,,,,0,38,38,38,1,140,5,,,,,,,,
,,5deef5412dc5c65901b17bef,65af5605fa16a017ecb780d2,2024-01-23_08h01.03.511,bars,2023.2.3,Win32,59.88023952,657b66ea316d21385b68909f,,,,,,,,,,,1375.9665,1376.9695,,,1377.4694,1377.7193,,112,-68,,,,,,,,,,,,,,,,bars/004.png,bars/mask005.png,,,,,,,,,,,,3,2,,,,,,,2,6,1,6,,,,,,,,,,,1376.9695,1377.4693,1377.7193,1381.7859,space,4.0532,,1381.786,87,13,1382.7859,1382.786,1382.7931,,,,0,39,39,39,1,25,125,,,,,,,,
,,5deef5412dc5c65901b17bef,65af5605fa16a017ecb780d2,2024-01-23_08h01.03.511,bars,2023.2.3,Win32,59.88023952,657b66ea316d21385b68909f,,,,,,,,,,,1382.7932,1383.7861,,,1384.2861,1384.5358,,126,126,,,,,,,,,,,,,,,,bars/023.png,bars/mask006.png,,,,,,,,,,,,2,2,,,,,,,0,4,0,3,,,,,,,,,,,1383.7861,1384.286,1384.5359,1388.3529,space,3.8029,,1388.3529,74,11,1389.3526,1389.3527,1389.361,,,,0,40,40,40,1,20,115,,,,,,,,
,,5deef5412dc5c65901b17bef,65af5605fa16a017ecb780d2,2024-01-23_08h01.03.511,bars,2023.2.3,Win32,59.88023952,657b66ea316d21385b68909f,,,,,,,,,,,1389.3611,1390.3526,,,1390.8526,1391.1024,,79,79,,,,,,,,,,,,,,,,bars/011.png,bars/mask000.png,,,,,,,,,,,,4,2,,,,,,,2,6,1,5,,,,,,,,,,,1390.3526,1390.8526,1391.1024,1393.4691,space,2.3563,,1393.4691,81,6,1394.4693,1394.4693,1394.4819,,,,0,41,41,41,1,160,85,,,,,,,,
,,5deef5412dc5c65901b17bef,65af5605fa16a017ecb780d2,2024-01-23_08h01.03.511,bars,2023.2.3,Win32,59.88023952,657b66ea316d21385b68909f,,,,,,,,,,,1394.482,1395.486,,,1395.986,1396.236,,136,136,,,,,,,,,,,,,,,,bars/003.png,bars/mask008.png,,,,,,,,,,,,6,2,,,,,,,4,8,4,7,,,,,,,,,,,1395.486,1395.986,1396.236,1398.6193,space,2.3671,,1398.6193,69,4,1399.6193,1399.6194,1399.62,,,,0,42,42,42,1,25,140,,,,,,,,
,,5deef5412dc5c65901b17bef,65af5605fa16a017ecb780d2,2024-01-23_08h01.03.511,bars,2023.2.3,Win32,59.88023952,657b66ea316d21385b68909f,,,,,,,,,,,1399.6204,1400.6193,,,1401.1193,1401.3693,,104,104,,,,,,,,,,,,,,,,bars/006.png,bars/mask001.png,,,,,,,,,,,,4,2,,,,,,,2,6,3,5,,,,,,,,,,,1400.6193,1401.1193,1401.3693,1404.2527,space,2.8738,,1404.2527,69,4,1405.2526,1405.2527,1405.2671,,,,0,43,43,43,1,35,100,,,,,,,,
,,5deef5412dc5c65901b17bef,65af5605fa16a017ecb780d2,2024-01-23_08h01.03.511,bars,2023.2.3,Win32,59.88023952,657b66ea316d21385b68909f,,,,,,,,,,,1405.2673,1406.2691,,,1406.7691,1407.019,,157,157,,,,,,,,,,,,,,,,bars/044.png,bars/mask000.png,,,,,,,,,,,,8,2,,,,,,,4,8,6,9,,,,,,,,,,,1406.2691,1406.7691,1407.019,1409.3194,space,2.2885,,1409.3194,82,2,1410.319,1410.319,1410.3245,,,,0,44,44,44,1,75,155,,,,,,,,
,,5deef5412dc5c65901b17bef,65af5605fa16a017ecb780d2,2024-01-23_08h01.03.511,bars,2023.2.3,Win32,59.88023952,657b66ea316d21385b68909f,,,,,,,,,,,1410.3246,1411.319,,,1411.8193,1412.0692,,71,71,,,,,,,,,,,,,,,,bars/021.png,bars/mask006.png,,,,,,,,,,,,6,2,,,,,,,2,6,1,6,,,,,,,,,,,1411.319,1411.8192,1412.0692,1415.4192,space,3.3355,,1415.4192,84,1,1416.419,1416.419,1416.4273,,,,0,45,45,45,1,155,70,,,,,,,,
,,5deef5412dc5c65901b17bef,65af5605fa16a017ecb780d2,2024-01-23_08h01.03.511,bars,2023.2.3,Win32,59.88023952,657b66ea316d21385b68909f,,,,,,,,,,,1416.4274,1417.419,,,1417.919,1418.1692,,97,97,,,,,,,,,,,,,,,,bars/026.png,bars/mask002.png,,,,,,,,,,,,4,2,,,,,,,4,8,4,7,,,,,,,,,,,1417.419,1417.919,1418.1692,1419.8357,space,1.6521,,1419.8358,62,12,1420.8358,1420.8358,1420.8451,,,,0,46,46,46,1,35,85,,,,,,,,
,,5deef5412dc5c65901b17bef,65af5605fa16a017ecb780d2,2024-01-23_08h01.03.511,bars,2023.2.3,Win32,59.88023952,657b66ea316d21385b68909f,,,,,,,,,,,1420.8452,1421.8359,,,1422.3358,1422.5857,,105,105,,,,,,,,,,,,,,,,bars/011.png,bars/mask006.png,,,,,,,,,,,,2,2,,,,,,,6,6,7,5,,,,,,,,,,,1421.8359,1422.3357,1422.5857,1424.619,space,2.0273,,1424.619,55,20,1425.6192,1425.6192,1425.6199,,,,0,47,47,47,1,160,85,,,,,,,,
,,5deef5412dc5c65901b17bef,65af5605fa16a017ecb780d2,2024-01-23_08h01.03.511,bars,2023.2.3,Win32,59.88023952,657b66ea316d21385b68909f,,,,,,,,,,,1425.6202,1426.6191,,,1427.1193,1427.3691,,93,93,,,,,,,,,,,,,,,,bars/009.png,bars/mask006.png,,,,,,,,,,,,6,2,,,,,,,8,8,7,10,,,,,,,,,,,1426.6191,1427.1193,1427.3691,1430.1858,space,2.8118,,1430.1858,78,12,1431.1859,1431.1859,1431.1993,,,,0,48,48,48,1,15,105,,,,,,,,
,,5deef5412dc5c65901b17bef,65af5605fa16a017ecb780d2,2024-01-23_08h01.03.511,bars,2023.2.3,Win32,59.88023952,657b66ea316d21385b68909f,,,,,,,,,,,1431.1996,1432.2026,,,1432.7026,1432.9525,,35,35,,,,,,,,,,,,,,,,bars/022.png,bars/mask006.png,,,,,,,,,,,,3,2,,,,,,,10,6,10,6,,,,,,,,,,,1432.2026,1432.7025,1432.9525,1434.1526,space,1.1966,,1434.1527,60,15,1435.1524,1435.1524,1435.1531,,,,0,49,49,49,1,95,20,,,,,,,,
,,5deef5412dc5c65901b17bef,65af5605fa16a017ecb780d2,2024-01-23_08h01.03.511,bars,2023.2.3,Win32,59.88023952,657b66ea316d21385b68909f,,,,,,,,,,,,,,,,,,,,,,,,,,,,,,,,,,,,,,,,,,,,,,,,,,,,,,,,,,,,,,,,,,,,,,,,,,,,,,,,,,,,,,,,,,,,,1435.1533,1495.1523,0,2,2,4,1,sequence_tables/blk049.csv
,,5deef5412dc5c65901b17bef,65af5605fa16a017ecb780d2,2024-01-23_08h01.03.511,bars,2023.2.3,Win32,59.88023952,657b66ea316d21385b68909f,,,,,,,,,,,1687.901,1688.901,,,1689.4016,1689.6512,,115,-65,,,,,,,,,,,,,,,,bars/002.png,bars/mask008.png,,,,,,,,,,,,2,1,,,,,,,4,1,3,0,,,,,,1495.1601,1687.8847,space,192.7117,,1688.901,1689.4015,1689.6513,1693.4012,space,3.7449,,1693.4012,15,30,1694.4011,1694.4011,1694.4071,,,,0,0,0,0,1,130,85,,,,,,,,
,,5deef5412dc5c65901b17bef,65af5605fa16a017ecb780d2,2024-01-23_08h01.03.511,bars,2023.2.3,Win32,59.88023952,657b66ea316d21385b68909f,,,,,,,,,,,1694.4072,1695.4011,,,1695.9012,1696.1512,,55,55,,,,,,,,,,,,,,,,bars/034.png,bars/mask002.png,,,,,,,,,,,,0,2,,,,,,,6,0,5,0,,,,,,,,,,,1695.4011,1695.9012,1696.1513,1698.0845,space,1.9252,,1698.0845,70,10,1699.0849,1699.085,1699.0884,,,,0,1,1,1,1,125,65,,,,,,,,
,,5deef5412dc5c65901b17bef,65af5605fa16a017ecb780d2,2024-01-23_08h01.03.511,bars,2023.2.3,Win32,59.88023952,657b66ea316d21385b68909f,,,,,,,,,,,1699.0888,1700.0843,,,1700.5846,1700.8345,,142,142,,,,,,,,,,,,,,,,bars/007.png,bars/mask004.png,,,,,,,,,,,,0,1,,,,,,,4,0,4,3,,,,,,,,,,,1700.0844,1700.5846,1700.8345,1701.7844,space,0.9372,,1701.7844,33,87,1702.7845,1702.7845,1702.7858,,,,0,2,2,2,1,175,55,,,,,,,,
,,5deef5412dc5c65901b17bef,65af5605fa16a017ecb780d2,2024-01-23_08h01.03.511,bars,2023.2.3,Win32,59.88023952,657b66ea316d21385b68909f,,,,,,,,,,,1702.7859,1703.7845,,,1704.2845,1704.5345,,50,50,,,,,,,,,,,,,,,,bars/030.png,bars/mask009.png,,,,,,,,,,,,1,2,,,,,,,2,2,3,1,,,,,,,,,,,1703.7845,1704.2845,1704.5345,1706.0512,space,1.5102,,1706.0512,90,15,1707.0512,1707.0513,1707.0534,,,,0,3,3,3,1,140,65,,,,,,,,
,,5deef5412dc5c65901b17bef,65af5605fa16a017ecb780d2,2024-01-23_08h01.03.511,bars,2023.2.3,Win32,59.88023952,657b66ea316d21385b68909f,,,,,,,,,,,1707.0538,1708.0511,,,1708.5512,1708.8012,,131,131,,,,,,,,,,,,,,,,bars/028.png,bars/mask006.png,,,,,,,,,,,,3,2,,,,,,,4,4,4,4,,,,,,,,,,,1708.0511,1708.5512,1708.8012,1711.0679,space,2.2559,,1711.068,86,11,1712.0677,1712.0678,1712.0735,,,,0,4,4,4,1,45,120,,,,,,,,
,,5deef5412dc5c65901b17bef,65af5605fa16a017ecb780d2,2024-01-23_08h01.03.511,bars,2023.2.3,Win32,59.88023952,657b66ea316d21385b68909f,,,,,,,,,,,1712.0737,1713.0679,,,1713.5679,1713.8177,,103,103,,,,,,,,,,,,,,,,bars/009.png,bars/mask004.png,,,,,,,,,,,,6,2,,,,,,,2,6,2,6,,,,,,,,,,,1713.068,1713.5677,1713.8177,1722.9843,space,9.1633,,1722.9844,88,2,1723.9845,1723.9845,1723.9964,,,,0,5,5,5,1,15,105,,,,,,,,
,,5deef5412dc5c65901b17bef,65af5605fa16a017ecb780d2,2024-01-23_08h01.03.511,bars,2023.2.3,Win32,59.88023952,657b66ea316d21385b68909f,,,,,,,,,,,1723.9966,1724.9845,,,1725.4846,1725.7345,,111,111,,,,,,,,,,,,,,,,bars/009.png,bars/mask009.png,,,,,,,,,,,,3,2,,,,,,,4,4,5,4,,,,,,,,,,,1724.9845,1725.4845,1725.7345,1727.1179,space,1.3695,,1727.118,84,6,1728.1178,1728.1178,1728.1292,,,,0,6,6,6,1,15,105,,,,,,,,
,,5deef5412dc5c65901b17bef,65af5605fa16a017ecb780d2,2024-01-23_08h01.03.511,bars,2023.2.3,Win32,59.88023952,657b66ea316d21385b68909f,,,,,,,,,,,1728.1294,1729.1177,,,1729.6178,1729.8678,,171,-9,,,,,,,,,,,,,,,,bars/016.png,bars/mask002.png,,,,,,,,,,,,4,2,,,,,,,2,6,1,5,,,,,,,,,,,1729.1177,1729.6178,1729.8678,1732.6344,space,2.7599,,1732.6344,49,6,1733.6343,1733.6343,1733.6428,,,,0,7,7,7,1,40,165,,,,,,,,
,,5deef5412dc5c65901b17bef,65af5605fa16a017ecb780d2,2024-01-23_08h01.03.511,bars,2023.2.3,Win32,59.88023952,657b66ea316d21385b68909f,,,,,,,,,,,1733.643,1734.6345,,,1735.1345,1735.3845,,75,75,,,,,,,,,,,,,,,,bars/002.png,bars/mask000.png,,,,,,,,,,,,3,2,,,,,,,0,4,0,5,,,,,,,,,,,1734.6345,1735.1345,1735.3846,1738.801,space,3.4032,,1738.801,55,10,1739.801,1739.801,1739.8069,,,,0,8,8,8,1,130,85,,,,,,,,
,,5deef5412dc5c65901b17bef,65af5605fa16a017ecb780d2,2024-01-23_08h01.03.511,bars,2023.2.3,Win32,59.88023952,657b66ea316d21385b68909f,,,,,,,,,,,1739.807,1740.8011,,,1741.3012,1741.551,,106,106,,,,,,,,,,,,,,,,bars/039.png,bars/mask009.png,,,,,,,,,,,,5,2,,,,,,,2,6,3,5,,,,,,,,,,,1740.8012,1741.3012,1741.551,1742.701,space,1.1333,,1742.7011,69,1,1743.701,1743.7011,1743.7016,,,,0,9,9,9,1,175,105,,,,,,,,
,,5deef5412dc5c65901b17bef,65af5605fa16a017ecb780d2,2024-01-23_08h01.03.511,bars,2023.2.3,Win32,59.88023952,657b66ea316d21385b68909f,,,,,,,,,,,1743.7019,1744.701,,,1745.201,1745.451,,173,173,,,,,,,,,,,,,,,,bars/016.png,bars/mask008.png,,,,,,,,,,,,6,2,,,,,,,4,8,7,8,,,,,,,,,,,1744.701,1745.201,1745.4511,1746.6011,space,1.1465,,1746.6011,47,8,1747.6011,1747.6011,1747.6019,,,,0,10,10,10,1,40,165,,,,,,,,
,,5deef5412dc5c65901b17bef,65af5605fa16a017ecb780d2,2024-01-23_08h01.03.511,bars,2023.2.3,Win32,59.88023952,657b66ea316d21385b68909f,,,,,,,,,,,1747.6022,1748.6009,,,1749.101,1749.3513,,98,98,,,,,,,,,,,,,,,,bars/002.png,bars/mask001.png,,,,,,,,,,,,5,2,,,,,,,2,10,3,8,,,,,,,,,,,1748.6009,1749.101,1749.3514,1750.9849,space,1.6211,,1750.9849,32,13,1751.9844,1751.9844,1751.9851,,,,0,11,11,11,1,130,85,,,,,,,,
,,5deef5412dc5c65901b17bef,65af5605fa16a017ecb780d2,2024-01-23_08h01.03.511,bars,2023.2.3,Win32,59.88023952,657b66ea316d21385b68909f,,,,,,,,,,,1751.9853,1752.9845,,,1753.4844,1753.7347,,169,169,,,,,,,,,,,,,,,,bars/015.png,bars/mask006.png,,,,,,,,,,,,7,2,,,,,,,0,10,2,10,,,,,,,,,,,1752.9845,1753.4843,1753.7347,1756.2844,space,2.5337,,1756.2845,59,9,1757.2842,1757.2842,1757.2962,,,,0,12,12,12,1,110,160,,,,,,,,
,,5deef5412dc5c65901b17bef,65af5605fa16a017ecb780d2,2024-01-23_08h01.03.511,bars,2023.2.3,Win32,59.88023952,657b66ea316d21385b68909f,,,,,,,,,,,1757.2964,1758.2843,,,1758.7843,1759.0342,,88,88,,,,,,,,,,,,,,,,bars/019.png,bars/mask002.png,,,,,,,,,,,,3,2,,,,,,,2,8,2,8,,,,,,,,,,,1758.2843,1758.7843,1759.0342,1762.4676,space,3.4238,,1762.4676,43,17,1763.4676,1763.4676,1763.48,,,,0,13,13,13,1,45,105,,,,,,,,
,,5deef5412dc5c65901b17bef,65af5605fa16a017ecb780d2,2024-01-23_08h01.03.511,bars,2023.2.3,Win32,59.88023952,657b66ea316d21385b68909f,,,,,,,,,,,1763.4802,1764.4843,,,1764.9841,1765.2343,,164,164,,,,,,,,,,,,,,,,bars/020.png,bars/mask008.png,,,,,,,,,,,,4,2,,,,,,,4,6,5,5,,,,,,,,,,,1764.4843,1764.9841,1765.2343,1768.2841,space,3.041,,1768.2841,49,6,1769.2842,1769.2842,1769.2903,,,,0,14,14,14,1,115,170,,,,,,,,
,,5deef5412dc5c65901b17bef,65af5605fa16a017ecb780d2,2024-01-23_08h01.03.511,bars,2023.2.3,Win32,59.88023952,657b66ea316d21385b68909f,,,,,,,,,,,1769.2904,1770.2842,,,1770.7842,1771.035,,65,245,,,,,,,,,,,,,,,,bars/001.png,bars/mask008.png,,,,,,,,,,,,3,2,,,,,,,6,8,5,8,,,,,,,,,,,1770.2843,1770.7841,1771.035,1775.851,space,4.8017,,1775.851,65,20,1776.8508,1776.8508,1776.8598,,,,0,15,15,15,1,130,85,,,,,,,,
,,5deef5412dc5c65901b17bef,65af5605fa16a017ecb780d2,2024-01-23_08h01.03.511,bars,2023.2.3,Win32,59.88023952,657b66ea316d21385b68909f,,,,,,,,,,,1776.86,1777.8508,,,1778.3509,1778.6009,,151,151,,,,,,,,,,,,,,,,bars/049.png,bars/mask001.png,,,,,,,,,,,,6,1,,,,,,,8,6,8,7,,,,,,,,,,,1777.8508,1778.3509,1778.6009,1780.7674,space,2.1538,,1780.7674,9,36,1781.7675,1781.7675,1781.7698,,,,0,16,16,16,1,160,115,,,,,,,,
,,5deef5412dc5c65901b17bef,65af5605fa16a017ecb780d2,2024-01-23_08h01.03.511,bars,2023.2.3,Win32,59.88023952,657b66ea316d21385b68909f,,,,,,,,,,,1781.7701,1782.7677,,,1783.2675,1783.5175,,89,89,,,,,,,,,,,,,,,,bars/023.png,bars/mask002.png,,,,,,,,,,,,0,2,,,,,,,10,4,10,3,,,,,,,,,,,1782.7677,1783.2675,1783.5176,1785.1841,space,1.6629,,1785.1841,69,26,1786.1842,1786.1842,1786.1989,,,,0,17,17,17,1,20,115,,,,,,,,
,,5deef5412dc5c65901b17bef,65af5605fa16a017ecb780d2,2024-01-23_08h01.03.511,bars,2023.2.3,Win32,59.88023952,657b66ea316d21385b68909f,,,,,,,,,,,1786.1991,1787.2008,,,1787.7008,1787.9508,,130,130,,,,,,,,,,,,,,,,bars/044.png,bars/mask001.png,,,,,,,,,,,,0,2,,,,,,,10,2,10,2,,,,,,,,,,,1787.2009,1787.7008,1787.9508,1789.101,space,1.1418,,1789.101,55,25,1790.101,1790.101,1790.1099,,,,0,18,18,18,1,75,155,,,,,,,,
,,5deef5412dc5c65901b17bef,65af5605fa16a017ecb780d2,2024-01-23_08h01.03.511,bars,2023.2.3,Win32,59.88023952,657b66ea316d21385b68909f,,,,,,,,,,,1790.11,1791.1008,,,1791.6007,1791.8508,,67,67,,,,,,,,,,,,,,,,bars/027.png,bars/mask005.png,,,,,,,,,,,,2,2,,,,,,,8,4,9,4,,,,,,,,,,,1791.1008,1791.6007,1791.8508,1794.2007,space,2.3459,,1794.2007,43,17,1795.2009,1795.2009,1795.2141,,,,0,19,19,19,1,110,50,,,,,,,,
,,5deef5412dc5c65901b17bef,65af5605fa16a017ecb780d2,2024-01-23_08h01.03.511,bars,2023.2.3,Win32,59.88023952,657b66ea316d21385b68909f,,,,,,,,,,,1795.2143,1796.2174,,,1796.7175,1796.9674,,85,265,,,,,,,,,,,,,,,,bars/041.png,bars/mask001.png,,,,,,,,,,,,3,2,,,,,,,10,2,10,3,,,,,,,,,,,1796.2175,1796.7175,1796.9674,1800.434,space,3.4522,,1800.434,65,0,1801.4341,1801.4341,1801.4453,,,,0,20,20,20,1,20,85,,,,,,,,
,,5deef5412dc5c65901b17bef,65af5605fa16a017ecb780d2,2024-01-23_08h01.03.511,bars,2023.2.3,Win32,59.88023952,657b66ea316d21385b68909f,,,,,,,,,,,1801.4454,1802.4339,,,1802.9342,1803.1841,,48,48,,,,,,,,,,,,,,,,bars/017.png,bars/mask001.png,,,,,,,,,,,,0,2,,,,,,,10,0,9,0,,,,,,,,,,,1802.434,1802.9342,1803.1841,1805.0013,space,1.8045,,1805.0013,83,3,1806.0008,1806.0008,1806.0014,,,,0,21,21,21,1,145,45,,,,,,,,
,,5deef5412dc5c65901b17bef,65af5605fa16a017ecb780d2,2024-01-23_08h01.03.511,bars,2023.2.3,Win32,59.88023952,657b66ea316d21385b68909f,,,,,,,,,,,1806.0016,1807.0008,,,1807.5009,1807.7508,,49,229,,,,,,,,,,,,,,,,bars/043.png,bars/mask007.png,,,,,,,,,,,,3,1,,,,,,,8,0,7,0,,,,,,,,,,,1807.0008,1807.5009,1807.7508,1810.7844,space,3.0222,,1810.7845,19,81,1811.7839,1811.7839,1811.7899,,,,0,22,22,22,1,30,130,,,,,,,,
,,5deef5412dc5c65901b17bef,65af5605fa16a017ecb780d2,2024-01-23_08h01.03.511,bars,2023.2.3,Win32,59.88023952,657b66ea316d21385b68909f,,,,,,,,,,,1811.79,1812.7839,,,1813.2839,1813.5339,,74,74,,,,,,,,,,,,,,,,bars/012.png,bars/mask003.png,,,,,,,,,,,,2,1,,,,,,,6,0,4,0,,,,,,,,,,,1812.7839,1813.2839,1813.534,1816.7179,space,3.174,,1816.7179,16,59,1817.7174,1817.7174,1817.7287,,,,0,23,23,23,1,90,15,,,,,,,,
,,5deef5412dc5c65901b17bef,65af5605fa16a017ecb780d2,2024-01-23_08h01.03.511,bars,2023.2.3,Win32,59.88023952,657b66ea316d21385b68909f,,,,,,,,,,,1817.7289,1818.7174,,,1819.2175,1819.4675,,129,129,,,,,,,,,,,,,,,,bars/039.png,bars/mask004.png,,,,,,,,,,,,0,2,,,,,,,8,0,8,0,,,,,,,,,,,1818.7174,1819.2174,1819.4675,1821.4008,space,1.9273,,1821.4008,46,24,1822.4006,1822.4006,1822.4075,,,,0,24,24,24,1,175,105,,,,,,,,
,,5deef5412dc5c65901b17bef,65af5605fa16a017ecb780d2,2024-01-23_08h01.03.511,bars,2023.2.3,Win32,59.88023952,657b66ea316d21385b68909f,,,,,,,,,,,1822.4076,1823.4007,,,1823.9007,1824.1507,,96,96,,,,,,,,,,,,,,,,bars/032.png,bars/mask007.png,,,,,,,,,,,,0,1,,,,,,,6,0,5,0,,,,,,,,,,,1823.4007,1823.9007,1824.1507,1826.6672,space,2.5094,,1826.6673,29,76,1827.6673,1827.6674,1827.6821,,,,0,25,25,25,1,125,20,,,,,,,,
,,5deef5412dc5c65901b17bef,65af5605fa16a017ecb780d2,2024-01-23_08h01.03.511,bars,2023.2.3,Win32,59.88023952,657b66ea316d21385b68909f,,,,,,,,,,,1827.6823,1828.684,,,1829.1841,1829.434,,170,170,,,,,,,,,,,,,,,,bars/008.png,bars/mask001.png,,,,,,,,,,,,3,2,,,,,,,8,2,7,4,,,,,,,,,,,1828.684,1829.1841,1829.4341,1831.4176,space,1.976,,1831.4176,60,10,1832.4173,1832.4173,1832.4271,,,,0,26,26,26,1,110,0,,,,,,,,
,,5deef5412dc5c65901b17bef,65af5605fa16a017ecb780d2,2024-01-23_08h01.03.511,bars,2023.2.3,Win32,59.88023952,657b66ea316d21385b68909f,,,,,,,,,,,1832.4272,1833.4173,,,1833.9173,1834.1672,,62,62,,,,,,,,,,,,,,,,bars/036.png,bars/mask002.png,,,,,,,,,,,,0,2,,,,,,,6,0,6,1,,,,,,,,,,,1833.4173,1833.9173,1834.1673,1836.2006,space,2.0193,,1836.2006,83,42,1837.2007,1837.2007,1837.2126,,,,0,27,27,27,1,145,20,,,,,,,,
,,5deef5412dc5c65901b17bef,65af5605fa16a017ecb780d2,2024-01-23_08h01.03.511,bars,2023.2.3,Win32,59.88023952,657b66ea316d21385b68909f,,,,,,,,,,,1837.2128,1838.2005,,,1838.7006,1838.9505,,10,10,,,,,,,,,,,,,,,,bars/012.png,bars/mask003.png,,,,,,,,,,,,3,2,,,,,,,4,2,4,3,,,,,,,,,,,1838.2005,1838.7006,1838.9505,1840.8841,space,1.9234,,1840.8841,80,5,1841.8839,1841.8839,1841.8845,,,,0,28,28,28,1,90,15,,,,,,,,
,,5deef5412dc5c65901b17bef,65af5605fa16a017ecb780d2,2024-01-23_08h01.03.511,bars,2023.2.3,Win32,59.88023952,657b66ea316d21385b68909f,,,,,,,,,,,1841.8847,1842.884,,,1843.384,1843.6338,,167,-13,,,,,,,,,,,,,,,,bars/040.png,bars/mask009.png,,,,,,,,,,,,0,2,,,,,,,2,0,2,0,,,,,,,,,,,1842.8841,1843.384,1843.6338,1847.5843,space,3.9383,,1847.5843,27,18,1848.5841,1848.5842,1848.5977,,,,0,29,29,29,1,140,5,,,,,,,,
,,5deef5412dc5c65901b17bef,65af5605fa16a017ecb780d2,2024-01-23_08h01.03.511,bars,2023.2.3,Win32,59.88023952,657b66ea316d21385b68909f,,,,,,,,,,,1848.598,1849.6006,,,1850.1005,1850.3505,,68,248,,,,,,,,,,,,,,,,bars/047.png,bars/mask007.png,,,,,,,,,,,,0,2,,,,,,,4,0,4,0,,,,,,,,,,,1849.6006,1850.1005,1850.3507,1854.5672,space,4.2143,,1854.5672,53,2,1855.567,1855.567,1855.5732,,,,0,30,30,30,1,15,70,,,,,,,,
,,5deef5412dc5c65901b17bef,65af5605fa16a017ecb780d2,2024-01-23_08h01.03.511,bars,2023.2.3,Win32,59.88023952,657b66ea316d21385b68909f,,,,,,,,,,,1855.5733,1856.567,,,1857.0672,1857.3171,,99,99,,,,,,,,,,,,,,,,bars/035.png,bars/mask005.png,,,,,,,,,,,,0,2,,,,,,,2,0,0,0,,,,,,,,,,,1856.567,1857.0672,1857.3172,1859.6844,space,2.3553,,1859.6845,76,39,1860.6839,1860.6839,1860.6959,,,,0,31,31,31,1,175,60,,,,,,,,
,,5deef5412dc5c65901b17bef,65af5605fa16a017ecb780d2,2024-01-23_08h01.03.511,bars,2023.2.3,Win32,59.88023952,657b66ea316d21385b68909f,,,,,,,,,,,1860.696,1861.6839,,,1862.1837,1862.4342,,100,-80,,,,,,,,,,,,,,,,bars/026.png,bars/mask009.png,,,,,,,,,,,,0,2,,,,,,,0,0,0,0,,,,,,,,,,,1861.6839,1862.1837,1862.4342,1866.7677,space,4.3186,,1866.7678,65,15,1867.7671,1867.7671,1867.7737,,,,0,32,32,32,1,35,85,,,,,,,,
,,5deef5412dc5c65901b17bef,65af5605fa16a017ecb780d2,2024-01-23_08h01.03.511,bars,2023.2.3,Win32,59.88023952,657b66ea316d21385b68909f,,,,,,,,,,,1867.7738,1868.767,,,1869.2672,1869.5171,,58,58,,,,,,,,,,,,,,,,bars/000.png,bars/mask004.png,,,,,,,,,,,,0,1,,,,,,,0,2,0,3,,,,,,,,,,,1868.767,1869.2671,1869.5171,1871.6504,space,2.1269,,1871.6504,18,87,1872.6504,1872.6505,1872.6654,,,,0,33,33,33,1,40,145,,,,,,,,
,,5deef5412dc5c65901b17bef,65af5605fa16a017ecb780d2,2024-01-23_08h01.03.511,bars,2023.2.3,Win32,59.88023952,657b66ea316d21385b68909f,,,,,,,,,,,1872.6656,1873.6672,,,1874.1672,1874.4171,,76,76,,,,,,,,,,,,,,,,bars/010.png,bars/mask003.png,,,,,,,,,,,,1,2,,,,,,,2,4,0,4,,,,,,,,,,,1873.6672,1874.1672,1874.4172,1876.3006,space,1.8679,,1876.3006,89,21,1877.3005,1877.3005,1877.3025,,,,0,34,34,34,1,165,55,,,,,,,,
,,5deef5412dc5c65901b17bef,65af5605fa16a017ecb780d2,2024-01-23_08h01.03.511,bars,2023.2.3,Win32,59.88023952,657b66ea316d21385b68909f,,,,,,,,,,,1877.3027,1878.3005,,,1878.8005,1879.0505,,153,-27,,,,,,,,,,,,,,,,bars/012.png,bars/mask003.png,,,,,,,,,,,,0,2,,,,,,,4,6,5,5,,,,,,,,,,,1878.3007,1878.8005,1879.0505,1883.017,space,3.9618,,1883.0171,63,42,1884.017,1884.017,1884.0233,,,,0,35,35,35,1,90,15,,,,,,,,
,,5deef5412dc5c65901b17bef,65af5605fa16a017ecb780d2,2024-01-23_08h01.03.511,bars,2023.2.3,Win32,59.88023952,657b66ea316d21385b68909f,,,,,,,,,,,1884.0234,1885.0171,,,1885.5171,1885.767,,18,198,,,,,,,,,,,,,,,,bars/032.png,bars/mask003.png,,,,,,,,,,,,3,2,,,,,,,6,4,6,3,,,,,,,,,,,1885.0171,1885.5171,1885.7671,1887.8507,space,2.0754,,1887.8507,73,2,1888.8502,1888.8502,1888.8576,,,,0,36,36,36,1,125,20,,,,,,,,
,,5deef5412dc5c65901b17bef,65af5605fa16a017ecb780d2,2024-01-23_08h01.03.511,bars,2023.2.3,Win32,59.88023952,657b66ea316d21385b68909f,,,,,,,,,,,1888.8578,1889.8505,,,1890.3504,1890.6004,,88,-92,,,,,,,,,,,,,,,,bars/023.png,bars/mask005.png,,,,,,,,,,,,1,2,,,,,,,4,6,4,6,,,,,,,,,,,1889.8505,1890.3503,1890.6005,1895.3838,space,4.7777,,1895.3838,68,27,1896.3838,1896.3838,1896.3947,,,,0,37,37,37,1,20,115,,,,,,,,
,,5deef5412dc5c65901b17bef,65af5605fa16a017ecb780d2,2024-01-23_08h01.03.511,bars,2023.2.3,Win32,59.88023952,657b66ea316d21385b68909f,,,,,,,,,,,1896.3949,1897.3837,,,1897.8836,1898.1336,,46,46,,,,,,,,,,,,,,,,bars/025.png,bars/mask002.png,,,,,,,,,,,,6,2,,,,,,,2,8,2,8,,,,,,,,,,,1897.3837,1897.8836,1898.1336,1902.167,space,4.0216,,1902.167,59,6,1903.1671,1903.1671,1903.1814,,,,0,38,38,38,1,105,40,,,,,,,,
,,5deef5412dc5c65901b17bef,65af5605fa16a017ecb780d2,2024-01-23_08h01.03.511,bars,2023.2.3,Win32,59.88023952,657b66ea316d21385b68909f,,,,,,,,,,,1903.1817,1904.1838,,,1904.6836,1904.9336,,112,-68,,,,,,,,,,,,,,,,bars/049.png,bars/mask009.png,,,,,,,,,,,,9,2,,,,,,,4,10,4,10,,,,,,,,,,,1904.1839,1904.6836,1904.9336,1909.5005,space,4.551,,1909.5006,48,3,1910.5004,1910.5004,1910.5132,,,,0,39,39,39,1,160,115,,,,,,,,
,,5deef5412dc5c65901b17bef,65af5605fa16a017ecb780d2,2024-01-23_08h01.03.511,bars,2023.2.3,Win32,59.88023952,657b66ea316d21385b68909f,,,,,,,,,,,1910.5134,1911.5172,,,1912.0174,1912.267,,81,81,,,,,,,,,,,,,,,,bars/047.png,bars/mask007.png,,,,,,,,,,,,5,2,,,,,,,2,8,3,8,,,,,,,,,,,1911.5173,1912.0174,1912.267,1915.7669,space,3.4876,,1915.7669,66,11,1916.7669,1916.767,1916.7728,,,,0,40,40,40,1,15,70,,,,,,,,
,,5deef5412dc5c65901b17bef,65af5605fa16a017ecb780d2,2024-01-23_08h01.03.511,bars,2023.2.3,Win32,59.88023952,657b66ea316d21385b68909f,,,,,,,,,,,1916.7729,1917.7669,,,1918.2669,1918.517,,178,178,,,,,,,,,,,,,,,,bars/048.png,bars/mask005.png,,,,,,,,,,,,5,2,,,,,,,4,6,4,6,,,,,,,,,,,1917.7669,1918.2669,1918.517,1921.3668,space,2.8332,,1921.3669,52,3,1922.3668,1922.3669,1922.3755,,,,0,41,41,41,1,50,175,,,,,,,,
,,5deef5412dc5c65901b17bef,65af5605fa16a017ecb780d2,2024-01-23_08h01.03.511,bars,2023.2.3,Win32,59.88023952,657b66ea316d21385b68909f,,,,,,,,,,,1922.3757,1923.3669,,,1923.867,1924.1169,,142,-38,,,,,,,,,,,,,,,,bars/003.png,bars/mask008.png,,,,,,,,,,,,9,2,,,,,,,6,8,4,10,,,,,,,,,,,1923.3669,1923.867,1924.1169,1928.1336,space,4.0064,,1928.1336,63,2,1929.1336,1929.1337,1929.147,,,,0,42,42,42,1,25,140,,,,,,,,
,,5deef5412dc5c65901b17bef,65af5605fa16a017ecb780d2,2024-01-23_08h01.03.511,bars,2023.2.3,Win32,59.88023952,657b66ea316d21385b68909f,,,,,,,,,,,1929.1473,1930.1504,,,1930.6503,1930.9002,,114,114,,,,,,,,,,,,,,,,bars/037.png,bars/mask004.png,,,,,,,,,,,,7,2,,,,,,,8,10,8,10,,,,,,,,,,,1930.1504,1930.6503,1930.9002,1932.3668,space,1.4452,,1932.3669,36,9,1933.3668,1933.3669,1933.3674,,,,0,43,43,43,1,150,105,,,,,,,,
,,5deef5412dc5c65901b17bef,65af5605fa16a017ecb780d2,2024-01-23_08h01.03.511,bars,2023.2.3,Win32,59.88023952,657b66ea316d21385b68909f,,,,,,,,,,,1933.3676,1934.3668,,,1934.8669,1935.117,,57,57,,,,,,,,,,,,,,,,bars/038.png,bars/mask000.png,,,,,,,,,,,,6,2,,,,,,,6,10,5,10,,,,,,,,,,,1934.3669,1934.8669,1935.117,1937.1835,space,2.0631,,1937.1835,72,13,1938.1836,1938.1836,1938.1976,,,,0,44,44,44,1,165,70,,,,,,,,
,,5deef5412dc5c65901b17bef,65af5605fa16a017ecb780d2,2024-01-23_08h01.03.511,bars,2023.2.3,Win32,59.88023952,657b66ea316d21385b68909f,,,,,,,,,,,1938.1978,1939.2003,,,1939.7002,1939.9501,,74,254,,,,,,,,,,,,,,,,bars/041.png,bars/mask008.png,,,,,,,,,,,,6,2,,,,,,,4,10,4,10,,,,,,,,,,,1939.2003,1939.7002,1939.9501,1943.4002,space,3.4459,,1943.4003,54,11,1944.4001,1944.4001,1944.4125,,,,0,45,45,45,1,20,85,,,,,,,,
,,5deef5412dc5c65901b17bef,65af5605fa16a017ecb780d2,2024-01-23_08h01.03.511,bars,2023.2.3,Win32,59.88023952,657b66ea316d21385b68909f,,,,,,,,,,,1944.4127,1945.4166,,,1945.9169,1946.1669,,35,35,,,,,,,,,,,,,,,,bars/017.png,bars/mask001.png,,,,,,,,,,,,6,2,,,,,,,6,10,6,9,,,,,,,,,,,1945.4166,1945.9168,1946.1669,1948.6,space,2.4285,,1948.6,70,10,1949.6001,1949.6001,1949.6081,,,,0,46,46,46,1,145,45,,,,,,,,
,,5deef5412dc5c65901b17bef,65af5605fa16a017ecb780d2,2024-01-23_08h01.03.511,bars,2023.2.3,Win32,59.88023952,657b66ea316d21385b68909f,,,,,,,,,,,1949.6082,1950.6001,,,1951.1002,1951.3502,,129,129,,,,,,,,,,,,,,,,bars/004.png,bars/mask006.png,,,,,,,,,,,,7,2,,,,,,,4,8,2,8,,,,,,,,,,,1950.6002,1951.1002,1951.3502,1954.3834,space,3.0216,,1954.3835,76,4,1955.3834,1955.3835,1955.3913,,,,0,47,47,47,1,25,125,,,,,,,,
,,5deef5412dc5c65901b17bef,65af5605fa16a017ecb780d2,2024-01-23_08h01.03.511,bars,2023.2.3,Win32,59.88023952,657b66ea316d21385b68909f,,,,,,,,,,,1955.3914,1956.3835,,,1956.8836,1957.1335,,44,44,,,,,,,,,,,,,,,,bars/029.png,bars/mask002.png,,,,,,,,,,,,10,2,,,,,,,6,10,6,10,,,,,,,,,,,1956.3835,1956.8836,1957.1335,1961.8333,space,4.6949,,1961.8334,46,1,1962.8335,1962.8336,1962.8486,,,,0,48,48,48,1,90,45,,,,,,,,
,,5deef5412dc5c65901b17bef,65af5605fa16a017ecb780d2,2024-01-23_08h01.03.511,bars,2023.2.3,Win32,59.88023952,657b66ea316d21385b68909f,,,,,,,,,,,1962.8488,1963.8502,,,1964.35,1964.6,,55,55,,,,,,,,,,,,,,,,bars/034.png,bars/mask001.png,,,,,,,,,,,,7,2,,,,,,,4,10,6,10,,,,,,,,,,,1963.8502,1964.35,1964.6,1966.9001,space,2.2807,,1966.9001,70,10,1967.9002,1967.9002,1967.9007,,,,0,49,49,49,1,125,65,,,,,,,,
,,5deef5412dc5c65901b17bef,65af5605fa16a017ecb780d2,2024-01-23_08h01.03.511,bars,2023.2.3,Win32,59.88023952,657b66ea316d21385b68909f,,,,,,,,,,,,,,,,,,,,,,,,,,,,,,,,,,,,,,,,,,,,,,,,,,,,,,,,,,,,,,,,,,,,,,,,,,,,,,,,,,,,,,,,,,,,,1967.901,2027.8997,0,3,3,2,1,sequence_tables/blk008.csv
,,5deef5412dc5c65901b17bef,65af5605fa16a017ecb780d2,2024-01-23_08h01.03.511,bars,2023.2.3,Win32,59.88023952,657b66ea316d21385b68909f,,,,,,,,,,,2189.9573,2190.9491,,,2191.449,2191.6989,,114,-66,,,,,,,,,,,,,,,,bars/006.png,bars/mask006.png,,,,,,,,,,,,4,2,,,,,,,4,7,3,7,,,,,,2027.9055,2189.9491,space,162.0245,,2190.9492,2191.449,2191.699,2196.9157,space,5.202,,2196.9157,79,14,2197.916,2197.916,2197.9318,,,,0,0,0,0,1,35,100,,,,,,,,
,,5deef5412dc5c65901b17bef,65af5605fa16a017ecb780d2,2024-01-23_08h01.03.511,bars,2023.2.3,Win32,59.88023952,657b66ea316d21385b68909f,,,,,,,,,,,2197.9321,2198.9324,,,2199.4323,2199.6824,,104,104,,,,,,,,,,,,,,,,bars/026.png,bars/mask009.png,,,,,,,,,,,,2,2,,,,,,,6,5,7,5,,,,,,,,,,,2198.9324,2199.4323,2199.6824,2200.949,space,1.2585,,2200.9491,69,19,2201.9492,2201.9493,2201.9501,,,,0,1,1,1,1,35,85,,,,,,,,
,,5deef5412dc5c65901b17bef,65af5605fa16a017ecb780d2,2024-01-23_08h01.03.511,bars,2023.2.3,Win32,59.88023952,657b66ea316d21385b68909f,,,,,,,,,,,2201.9503,2202.9489,,,2203.449,2203.699,,45,45,,,,,,,,,,,,,,,,bars/025.png,bars/mask000.png,,,,,,,,,,,,3,2,,,,,,,4,3,4,4,,,,,,,,,,,2202.9489,2203.449,2203.699,2206.3657,space,2.6492,,2206.3657,60,5,2207.3655,2207.3656,2207.3713,,,,0,2,2,2,1,105,40,,,,,,,,
,,5deef5412dc5c65901b17bef,65af5605fa16a017ecb780d2,2024-01-23_08h01.03.511,bars,2023.2.3,Win32,59.88023952,657b66ea316d21385b68909f,,,,,,,,,,,2207.3714,2208.3655,,,2208.8656,2209.1157,,22,22,,,,,,,,,,,,,,,,bars/022.png,bars/mask001.png,,,,,,,,,,,,5,2,,,,,,,2,5,2,5,,,,,,,,,,,2208.3655,2208.8655,2209.1158,2211.8992,space,2.7768,,2211.8992,73,2,2212.8991,2212.8992,2212.9148,,,,0,3,3,3,1,95,20,,,,,,,,
,,5deef5412dc5c65901b17bef,65af5605fa16a017ecb780d2,2024-01-23_08h01.03.511,bars,2023.2.3,Win32,59.88023952,657b66ea316d21385b68909f,,,,,,,,,,,2212.915,2213.9156,,,2214.4157,2214.6655,,65,65,,,,,,,,,,,,,,,,bars/035.png,bars/mask006.png,,,,,,,,,,,,3,2,,,,,,,0,3,1,4,,,,,,,,,,,2213.9156,2214.4157,2214.6655,2216.0825,space,1.3979,,2216.0825,70,5,2217.082,2217.0821,2217.0824,,,,0,4,4,4,1,175,60,,,,,,,,
,,5deef5412dc5c65901b17bef,65af5605fa16a017ecb780d2,2024-01-23_08h01.03.511,bars,2023.2.3,Win32,59.88023952,657b66ea316d21385b68909f,,,,,,,,,,,2217.0826,2218.0822,,,2218.5824,2218.8322,,132,132,,,,,,,,,,,,,,,,bars/014.png,bars/mask009.png,,,,,,,,,,,,0,2,,,,,,,0,5,0,2,,,,,,,,,,,2218.0822,2218.5824,2218.8322,2221.049,space,2.2125,,2221.049,52,48,2222.0489,2222.0489,2222.0561,,,,0,5,5,5,1,80,0,,,,,,,,
,,5deef5412dc5c65901b17bef,65af5605fa16a017ecb780d2,2024-01-23_08h01.03.511,bars,2023.2.3,Win32,59.88023952,657b66ea316d21385b68909f,,,,,,,,,,,2222.0562,2223.0492,,,2223.549,2223.799,,112,112,,,,,,,,,,,,,,,,bars/037.png,bars/mask002.png,,,,,,,,,,,,5,2,,,,,,,2,7,3,6,,,,,,,,,,,2223.0492,2223.549,2223.7991,2227.0655,space,3.2513,,2227.0655,38,7,2228.0656,2228.0656,2228.0774,,,,0,6,6,6,1,150,105,,,,,,,,
,,5deef5412dc5c65901b17bef,65af5605fa16a017ecb780d2,2024-01-23_08h01.03.511,bars,2023.2.3,Win32,59.88023952,657b66ea316d21385b68909f,,,,,,,,,,,2228.0776,2229.0658,,,2229.5654,2229.8155,,53,53,,,,,,,,,,,,,,,,bars/031.png,bars/mask007.png,,,,,,,,,,,,4,2,,,,,,,0,9,0,9,,,,,,,,,,,2229.0658,2229.5654,2229.8155,2230.7157,space,0.8903,,2230.7157,67,18,2231.7156,2231.7156,2231.7159,,,,0,7,7,7,1,120,35,,,,,,,,
,,5deef5412dc5c65901b17bef,65af5605fa16a017ecb780d2,2024-01-23_08h01.03.511,bars,2023.2.3,Win32,59.88023952,657b66ea316d21385b68909f,,,,,,,,,,,2231.7161,2232.7159,,,2233.2156,2233.4657,,75,75,,,,,,,,,,,,,,,,bars/002.png,bars/mask009.png,,,,,,,,,,,,7,2,,,,,,,0,10,0,10,,,,,,,,,,,2232.7161,2233.2156,2233.4657,2235.6822,space,2.2089,,2235.6822,55,10,2236.6822,2236.6822,2236.6876,,,,0,8,8,8,1,130,85,,,,,,,,
,,5deef5412dc5c65901b17bef,65af5605fa16a017ecb780d2,2024-01-23_08h01.03.511,bars,2023.2.3,Win32,59.88023952,657b66ea316d21385b68909f,,,,,,,,,,,2236.6876,2237.6821,,,2238.1823,2238.4322,,38,38,,,,,,,,,,,,,,,,bars/017.png,bars/mask007.png,,,,,,,,,,,,8,2,,,,,,,2,10,2,10,,,,,,,,,,,2237.6821,2238.1823,2238.4322,2240.4495,space,2.0025,,2240.4495,73,7,2241.4488,2241.4488,2241.4492,,,,0,9,9,9,1,145,45,,,,,,,,
,,5deef5412dc5c65901b17bef,65af5605fa16a017ecb780d2,2024-01-23_08h01.03.511,bars,2023.2.3,Win32,59.88023952,657b66ea316d21385b68909f,,,,,,,,,,,2241.4494,2242.4488,,,2242.9488,2243.1988,,163,-17,,,,,,,,,,,,,,,,bars/012.png,bars/mask008.png,,,,,,,,,,,,0,2,,,,,,,4,10,4,10,,,,,,,,,,,2242.4488,2242.9488,2243.1989,2245.1822,space,1.9722,,2245.1822,73,32,2246.1821,2246.1822,2246.1877,,,,0,10,10,10,1,90,15,,,,,,,,
,,5deef5412dc5c65901b17bef,65af5605fa16a017ecb780d2,2024-01-23_08h01.03.511,bars,2023.2.3,Win32,59.88023952,657b66ea316d21385b68909f,,,,,,,,,,,2246.1879,2247.1821,,,2247.682,2247.9324,,84,264,,,,,,,,,,,,,,,,bars/001.png,bars/mask004.png,,,,,,,,,,,,10,2,,,,,,,2,10,0,10,,,,,,,,,,,2247.1823,2247.682,2247.9324,2252.8324,space,4.8883,,2252.8324,46,1,2253.8321,2253.8321,2253.8376,,,,0,11,11,11,1,130,85,,,,,,,,
