init_variables.started,init_variables.stopped,participant,session,date,expName,psychopyVersion,OS,frameRate,study_id,instruction_exp.started,instruction_exp.stopped,key_resp_8.keys,key_resp_8.rt,key_resp_8.duration,instruction_single.started,instruction_single.stopped,key_resp_2.keys,key_resp_2.rt,key_resp_2.duration,interval.started,interval.stopped,cue_single.started,cue_single.stopped,mask.started,mask.stopped,ori_response_single.started,res_ori,res,ori_response_single.stopped,key_resp_single.keys,key_resp_single.rt,key_resp_single.duration,disp_single.started,disp_single.stopped,key_resp.keys,key_resp.rt,key_resp.duration,single.thisRepN,single.thisTrialN,single.thisN,single.thisIndex,single.ran,ori,path,mask_path,instruction_bandit.started,instruction_bandit.stopped,key_resp_6.keys,key_resp_6.rt,key_resp_6.duration,cue_bandit.started,cue_bandit.stopped,bandit_res.keys,bandit_res.rt,bandit_res.duration,outcome_bandit.started,rew,action,outcome_bandit.stopped,bandit.thisRepN,bandit.thisTrialN,bandit.thisN,bandit.thisIndex,bandit.ran,actual_rew1,actual_rew2,rew1,rew2,instruction_task.started,instruction_task.stopped,key_resp_7.keys,key_resp_7.rt,key_resp_7.duration,wait_ready.started,wait_ready.stopped,key_resp_3.keys,key_resp_3.rt,key_resp_3.duration,cue.started,cue.stopped,ori_response.started,ori_response.stopped,key_resp_5.keys,key_resp_5.rt,key_resp_5.duration,outcome.started,diff1,diff2,outcome.stopped,disp_outcome_practice.started,disp_outcome_practice.stopped,key_resp_4.keys,key_resp_4.rt,key_resp_4.duration,trials.thisRepN,trials.thisTrialN,trials.thisN,trials.thisIndex,trials.ran,ori1,ori2,break_blk.started,break_blk.stopped,block.thisRepN,block.thisTrialN,block.thisN,block.thisIndex,block.ran,condition_file
0.0006,0.0009,5f35ea51f0cfd606d35d01e5,65af5613eba6f5fa810a1699,2024-01-22_23h02.03.717,bars,2023.2.3,Win32,59.88023952,657b66ea316d21385b68909f,,,,,,,,,,,,,,,,,,,,,,,,,,,,,,,,,,,,,,,,,,,,,,,,,,,,,,,,,,,,,,,,,,,,,,,,,,,,,,,,,,,,,,,,,,,,,,,,,,,,
,,5f35ea51f0cfd606d35d01e5,65af5613eba6f5fa810a1699,2024-01-22_23h02.03.717,bars,2023.2.3,Win32,59.88023952,657b66ea316d21385b68909f,0.0013,55.1611,y,55.1029,,,,,,,,,,,,,,,,,,,,,,,,,,,,,,,,,,,,,,,,,,,,,,,,,,,,,,,,,,,,,,,,,,,,,,,,,,,,,,,,,,,,,,,,,,,,,,,,
,,5f35ea51f0cfd606d35d01e5,65af5613eba6f5fa810a1699,2024-01-22_23h02.03.717,bars,2023.2.3,Win32,59.88023952,657b66ea316d21385b68909f,,,,,,55.1613,79.4998,space,24.3179,,,,,,,,,,,,,,,,,,,,,,,,,,,,,,,,,,,,,,,,,,,,,,,,,,,,,,,,,,,,,,,,,,,,,,,,,,,,,,,,,,,,,,,,,,,
,,5f35ea51f0cfd606d35d01e5,65af5613eba6f5fa810a1699,2024-01-22_23h02.03.717,bars,2023.2.3,Win32,59.88023952,657b66ea316d21385b68909f,,,,,,,,,,,79.5065,80.5049,80.5052,81.0042,81.0044,81.2489,81.2496,122,122,90.1167,space,8.8098,,90.1169,102.1856,space,12.034,,0,0,0,0,1,150,bars/single000.png,bars/mask006.png,,,,,,,,,,,,,,,,,,,,,,,,,,,,,,,,,,,,,,,,,,,,,,,,,,,,,,,,,,,,,,,,
,,5f35ea51f0cfd606d35d01e5,65af5613eba6f5fa810a1699,2024-01-22_23h02.03.717,bars,2023.2.3,Win32,59.88023952,657b66ea316d21385b68909f,,,,,,,,,,,102.1995,103.1987,103.1989,103.6881,103.6881,103.9321,103.9323,99,99,110.7727,space,6.8172,,110.7728,114.7829,space,3.9861,,0,1,1,6,1,175,bars/single006.png,bars/mask005.png,,,,,,,,,,,,,,,,,,,,,,,,,,,,,,,,,,,,,,,,,,,,,,,,,,,,,,,,,,,,,,,,
,,5f35ea51f0cfd606d35d01e5,65af5613eba6f5fa810a1699,2024-01-22_23h02.03.717,bars,2023.2.3,Win32,59.88023952,657b66ea316d21385b68909f,,,,,,,,,,,114.7841,115.7824,115.7826,116.2882,116.2883,116.5324,116.5325,33,213,119.7402,space,3.185,,119.7403,123.683,space,3.9162,,0,2,2,7,1,45,bars/single007.png,bars/mask009.png,,,,,,,,,,,,,,,,,,,,,,,,,,,,,,,,,,,,,,,,,,,,,,,,,,,,,,,,,,,,,,,,
,,5f35ea51f0cfd606d35d01e5,65af5613eba6f5fa810a1699,2024-01-22_23h02.03.717,bars,2023.2.3,Win32,59.88023952,657b66ea316d21385b68909f,,,,,,,,,,,123.6958,124.6994,124.6995,125.1994,125.1995,125.4496,125.4497,152,-28,130.5832,space,5.1018,,130.5833,134.8675,space,4.2511,,0,3,3,2,1,145,bars/single002.png,bars/mask003.png,,,,,,,,,,,,,,,,,,,,,,,,,,,,,,,,,,,,,,,,,,,,,,,,,,,,,,,,,,,,,,,,
,,5f35ea51f0cfd606d35d01e5,65af5613eba6f5fa810a1699,2024-01-22_23h02.03.717,bars,2023.2.3,Win32,59.88023952,657b66ea316d21385b68909f,,,,,,,,,,,134.8795,135.883,135.8831,136.383,136.383,136.6229,136.6231,163,163,139.1833,space,2.5342,,139.1836,145.288,space,6.0805,,0,4,4,1,1,20,bars/single001.png,bars/mask006.png,,,,,,,,,,,,,,,,,,,,,,,,,,,,,,,,,,,,,,,,,,,,,,,,,,,,,,,,,,,,,,,,
,,5f35ea51f0cfd606d35d01e5,65af5613eba6f5fa810a1699,2024-01-22_23h02.03.717,bars,2023.2.3,Win32,59.88023952,657b66ea316d21385b68909f,,,,,,,,,,,145.3009,146.2999,146.3001,146.7999,146.8001,147.0499,147.05,29,209,150.8413,space,3.7687,,150.8414,157.0508,space,6.1831,,0,5,5,9,1,20,bars/single009.png,bars/mask006.png,,,,,,,,,,,,,,,,,,,,,,,,,,,,,,,,,,,,,,,,,,,,,,,,,,,,,,,,,,,,,,,,
,,5f35ea51f0cfd606d35d01e5,65af5613eba6f5fa810a1699,2024-01-22_23h02.03.717,bars,2023.2.3,Win32,59.88023952,657b66ea316d21385b68909f,,,,,,,,,,,157.067,158.0565,158.0566,158.553,158.5531,158.8005,158.8006,88,88,162.7078,space,3.8837,,162.7079,164.1178,space,1.3789,,0,6,6,4,1,95,bars/single004.png,bars/mask004.png,,,,,,,,,,,,,,,,,,,,,,,,,,,,,,,,,,,,,,,,,,,,,,,,,,,,,,,,,,,,,,,,
,,5f35ea51f0cfd606d35d01e5,65af5613eba6f5fa810a1699,2024-01-22_23h02.03.717,bars,2023.2.3,Win32,59.88023952,657b66ea316d21385b68909f,,,,,,,,,,,164.1188,165.1076,165.1077,165.601,165.6011,165.8506,165.8507,165,165,166.7351,space,0.8576,,166.7353,168.6751,space,1.9175,,0,7,7,8,1,160,bars/single008.png,bars/mask004.png,,,,,,,,,,,,,,,,,,,,,,,,,,,,,,,,,,,,,,,,,,,,,,,,,,,,,,,,,,,,,,,,
,,5f35ea51f0cfd606d35d01e5,65af5613eba6f5fa810a1699,2024-01-22_23h02.03.717,bars,2023.2.3,Win32,59.88023952,657b66ea316d21385b68909f,,,,,,,,,,,168.6756,169.6675,169.6676,170.1674,170.1675,170.4174,170.4175,58,58,172.8246,space,2.3841,,172.8247,174.5678,space,1.7191,,0,8,8,5,1,55,bars/single005.png,bars/mask008.png,,,,,,,,,,,,,,,,,,,,,,,,,,,,,,,,,,,,,,,,,,,,,,,,,,,,,,,,,,,,,,,,
,,5f35ea51f0cfd606d35d01e5,65af5613eba6f5fa810a1699,2024-01-22_23h02.03.717,bars,2023.2.3,Win32,59.88023952,657b66ea316d21385b68909f,,,,,,,,,,,174.5691,175.5731,175.5732,176.0675,176.0676,176.3174,176.3175,22,22,178.6082,space,2.2679,,178.6083,179.8585,space,1.2342,,0,9,9,3,1,20,bars/single003.png,bars/mask005.png,,,,,,,,,,,,,,,,,,,,,,,,,,,,,,,,,,,,,,,,,,,,,,,,,,,,,,,,,,,,,,,,
,,5f35ea51f0cfd606d35d01e5,65af5613eba6f5fa810a1699,2024-01-22_23h02.03.717,bars,2023.2.3,Win32,59.88023952,657b66ea316d21385b68909f,,,,,,,,,,,,,,,,,,,,,,,,,,,,,,,,,,,,,179.8595,211.8369,space,31.9512,,,,,,,,,,,,,,,,,,,,,,,,,,,,,,,,,,,,,,,,,,,,,,,,,,,,,,,,,,,,
,,5f35ea51f0cfd606d35d01e5,65af5613eba6f5fa810a1699,2024-01-22_23h02.03.717,bars,2023.2.3,Win32,59.88023952,657b66ea316d21385b68909f,,,,,,,,,,,,,,,,,,,,,,,,,,,,,,,,,,,,,,,,,,211.8531,214.3863,left,2.4991,,214.3866,9,1,215.391,0,0,0,0,1,9,1,9,2,,,,,,,,,,,,,,,,,,,,,,,,,,,,,,,,,,,,,,,,,
,,5f35ea51f0cfd606d35d01e5,65af5613eba6f5fa810a1699,2024-01-22_23h02.03.717,bars,2023.2.3,Win32,59.88023952,657b66ea316d21385b68909f,,,,,,,,,,,,,,,,,,,,,,,,,,,,,,,,,,,,,,,,,,215.3917,216.4249,left,1.0171,,216.425,10,1,217.4186,0,1,1,1,1,10,0,10,1,,,,,,,,,,,,,,,,,,,,,,,,,,,,,,,,,,,,,,,,,
,,5f35ea51f0cfd606d35d01e5,65af5613eba6f5fa810a1699,2024-01-22_23h02.03.717,bars,2023.2.3,Win32,59.88023952,657b66ea316d21385b68909f,,,,,,,,,,,,,,,,,,,,,,,,,,,,,,,,,,,,,,,,,,217.4203,217.8524,left,0.405,,217.8524,10,1,218.8519,0,2,2,2,1,10,2,10,2,,,,,,,,,,,,,,,,,,,,,,,,,,,,,,,,,,,,,,,,,
,,5f35ea51f0cfd606d35d01e5,65af5613eba6f5fa810a1699,2024-01-22_23h02.03.717,bars,2023.2.3,Win32,59.88023952,657b66ea316d21385b68909f,,,,,,,,,,,,,,,,,,,,,,,,,,,,,,,,,,,,,,,,,,218.8529,219.8521,right,0.9735,,219.8524,3,2,220.8406,0,3,3,3,1,8,4,7,3,,,,,,,,,,,,,,,,,,,,,,,,,,,,,,,,,,,,,,,,,
,,5f35ea51f0cfd606d35d01e5,65af5613eba6f5fa810a1699,2024-01-22_23h02.03.717,bars,2023.2.3,Win32,59.88023952,657b66ea316d21385b68909f,,,,,,,,,,,,,,,,,,,,,,,,,,,,,,,,,,,,,,,,,,220.8411,221.219,left,0.3543,,221.2192,5,1,222.2187,0,4,4,4,1,6,2,5,1,,,,,,,,,,,,,,,,,,,,,,,,,,,,,,,,,,,,,,,,,
,,5f35ea51f0cfd606d35d01e5,65af5613eba6f5fa810a1699,2024-01-22_23h02.03.717,bars,2023.2.3,Win32,59.88023952,657b66ea316d21385b68909f,,,,,,,,,,,,,,,,,,,,,,,,,,,,,,,,,,,,,,,,,,222.2195,222.6363,left,0.3847,,222.6365,4,1,223.6354,0,5,5,5,1,4,4,4,4,,,,,,,,,,,,,,,,,,,,,,,,,,,,,,,,,,,,,,,,,
,,5f35ea51f0cfd606d35d01e5,65af5613eba6f5fa810a1699,2024-01-22_23h02.03.717,bars,2023.2.3,Win32,59.88023952,657b66ea316d21385b68909f,,,,,,,,,,,,,,,,,,,,,,,,,,,,,,,,,,,,,,,,,,223.6364,224.019,right,0.3519,,224.0192,2,2,225.0187,0,6,6,6,1,2,2,1,2,,,,,,,,,,,,,,,,,,,,,,,,,,,,,,,,,,,,,,,,,
,,5f35ea51f0cfd606d35d01e5,65af5613eba6f5fa810a1699,2024-01-22_23h02.03.717,bars,2023.2.3,Win32,59.88023952,657b66ea316d21385b68909f,,,,,,,,,,,,,,,,,,,,,,,,,,,,,,,,,,,,,,,,,,225.0195,225.3523,left,0.3024,,225.3524,0,1,226.3523,0,7,7,7,1,0,0,0,1,,,,,,,,,,,,,,,,,,,,,,,,,,,,,,,,,,,,,,,,,
,,5f35ea51f0cfd606d35d01e5,65af5613eba6f5fa810a1699,2024-01-22_23h02.03.717,bars,2023.2.3,Win32,59.88023952,657b66ea316d21385b68909f,,,,,,,,,,,,,,,,,,,,,,,,,,,,,,,,,,,,,,,,,,226.3533,227.2023,left,0.8266,,227.2025,1,1,228.2024,0,8,8,8,1,0,2,1,0,,,,,,,,,,,,,,,,,,,,,,,,,,,,,,,,,,,,,,,,,
,,5f35ea51f0cfd606d35d01e5,65af5613eba6f5fa810a1699,2024-01-22_23h02.03.717,bars,2023.2.3,Win32,59.88023952,657b66ea316d21385b68909f,,,,,,,,,,,,,,,,,,,,,,,,,,,,,,,,,,,,,,,,,,228.2038,228.5254,right,0.2997,,228.5254,3,2,229.5189,0,9,9,9,1,2,4,2,3,,,,,,,,,,,,,,,,,,,,,,,,,,,,,,,,,,,,,,,,,
,,5f35ea51f0cfd606d35d01e5,65af5613eba6f5fa810a1699,2024-01-22_23h02.03.717,bars,2023.2.3,Win32,59.88023952,657b66ea316d21385b68909f,,,,,,,,,,,,,,,,,,,,,,,,,,,,,,,,,,,,,,,,,,229.5197,229.8596,right,0.3176,,229.8596,3,2,230.8522,0,10,10,10,1,0,2,0,3,,,,,,,,,,,,,,,,,,,,,,,,,,,,,,,,,,,,,,,,,
,,5f35ea51f0cfd606d35d01e5,65af5613eba6f5fa810a1699,2024-01-22_23h02.03.717,bars,2023.2.3,Win32,59.88023952,657b66ea316d21385b68909f,,,,,,,,,,,,,,,,,,,,,,,,,,,,,,,,,,,,,,,,,,230.853,231.2029,right,0.3188,,231.2031,3,2,232.2023,0,11,11,11,1,0,4,0,3,,,,,,,,,,,,,,,,,,,,,,,,,,,,,,,,,,,,,,,,,
,,5f35ea51f0cfd606d35d01e5,65af5613eba6f5fa810a1699,2024-01-22_23h02.03.717,bars,2023.2.3,Win32,59.88023952,657b66ea316d21385b68909f,,,,,,,,,,,,,,,,,,,,,,,,,,,,,,,,,,,,,,,,,,232.2034,232.5362,left,0.3036,,232.5365,1,1,233.5356,0,12,12,12,1,2,6,1,6,,,,,,,,,,,,,,,,,,,,,,,,,,,,,,,,,,,,,,,,,
,,5f35ea51f0cfd606d35d01e5,65af5613eba6f5fa810a1699,2024-01-22_23h02.03.717,bars,2023.2.3,Win32,59.88023952,657b66ea316d21385b68909f,,,,,,,,,,,,,,,,,,,,,,,,,,,,,,,,,,,,,,,,,,233.5366,233.836,right,0.277,,233.8362,3,2,234.8357,0,13,13,13,1,0,4,1,3,,,,,,,,,,,,,,,,,,,,,,,,,,,,,,,,,,,,,,,,,
,,5f35ea51f0cfd606d35d01e5,65af5613eba6f5fa810a1699,2024-01-22_23h02.03.717,bars,2023.2.3,Win32,59.88023952,657b66ea316d21385b68909f,,,,,,,,,,,,,,,,,,,,,,,,,,,,,,,,,,,,,,,,,,234.8366,235.1859,right,0.3203,,235.186,7,2,236.1856,0,14,14,14,1,2,6,2,7,,,,,,,,,,,,,,,,,,,,,,,,,,,,,,,,,,,,,,,,,
,,5f35ea51f0cfd606d35d01e5,65af5613eba6f5fa810a1699,2024-01-22_23h02.03.717,bars,2023.2.3,Win32,59.88023952,657b66ea316d21385b68909f,,,,,,,,,,,,,,,,,,,,,,,,,,,,,,,,,,,,,,,,,,236.1867,236.5032,right,0.2883,,236.5033,9,2,237.5024,0,15,15,15,1,4,8,3,9,,,,,,,,,,,,,,,,,,,,,,,,,,,,,,,,,,,,,,,,,
,,5f35ea51f0cfd606d35d01e5,65af5613eba6f5fa810a1699,2024-01-22_23h02.03.717,bars,2023.2.3,Win32,59.88023952,657b66ea316d21385b68909f,,,,,,,,,,,,,,,,,,,,,,,,,,,,,,,,,,,,,,,,,,237.5036,237.8585,right,0.3333,,237.8586,7,2,238.8524,0,16,16,16,1,6,6,7,7,,,,,,,,,,,,,,,,,,,,,,,,,,,,,,,,,,,,,,,,,
,,5f35ea51f0cfd606d35d01e5,65af5613eba6f5fa810a1699,2024-01-22_23h02.03.717,bars,2023.2.3,Win32,59.88023952,657b66ea316d21385b68909f,,,,,,,,,,,,,,,,,,,,,,,,,,,,,,,,,,,,,,,,,,238.8531,239.686,left,0.808,,239.6862,9,1,240.6742,0,17,17,17,1,8,4,9,5,,,,,,,,,,,,,,,,,,,,,,,,,,,,,,,,,,,,,,,,,
,,5f35ea51f0cfd606d35d01e5,65af5613eba6f5fa810a1699,2024-01-22_23h02.03.717,bars,2023.2.3,Win32,59.88023952,657b66ea316d21385b68909f,,,,,,,,,,,,,,,,,,,,,,,,,,,,,,,,,,,,,,,,,,240.6746,240.9696,left,0.2729,,240.9698,5,1,241.9693,0,18,18,18,1,6,2,5,1,,,,,,,,,,,,,,,,,,,,,,,,,,,,,,,,,,,,,,,,,
,,5f35ea51f0cfd606d35d01e5,65af5613eba6f5fa810a1699,2024-01-22_23h02.03.717,bars,2023.2.3,Win32,59.88023952,657b66ea316d21385b68909f,,,,,,,,,,,,,,,,,,,,,,,,,,,,,,,,,,,,,,,,,,241.9704,242.4363,left,0.4364,,242.4365,7,1,243.4418,0,19,19,19,1,8,0,7,0,,,,,,,,,,,,,,,,,,,,,,,,,,,,,,,,,,,,,,,,,
,,5f35ea51f0cfd606d35d01e5,65af5613eba6f5fa810a1699,2024-01-22_23h02.03.717,bars,2023.2.3,Win32,59.88023952,657b66ea316d21385b68909f,,,,,,,,,,,,,,,,,,,,,,,,,,,,,,,,,,,,,,,,,,,,,,,,,,,,,,,,,,,,243.4427,256.5715,space,13.1053,,,,,,,,,,,,,,,,,,,,,,,,,,,,,,,,,,,,,
,,5f35ea51f0cfd606d35d01e5,65af5613eba6f5fa810a1699,2024-01-22_23h02.03.717,bars,2023.2.3,Win32,59.88023952,657b66ea316d21385b68909f,,,,,,,,,,,258.9283,259.9196,,,260.4202,260.6698,,87,87,,,,,,,,,,,,,,,,bars/002.png,bars/mask000.png,,,,,,,,,,,,0,2,,,,,,,10,1,8,0,,,,,,256.5866,258.9208,space,2.3115,,259.9203,260.42,260.6707,263.9376,space,3.2349,,263.9381,43,2,264.9364,264.9367,274.4709,space,9.502,,0,0,0,0,1,130,85,,,,,,,,
,,5f35ea51f0cfd606d35d01e5,65af5613eba6f5fa810a1699,2024-01-22_23h02.03.717,bars,2023.2.3,Win32,59.88023952,657b66ea316d21385b68909f,,,,,,,,,,,274.4844,275.4865,,,275.9867,276.2366,,26,26,,,,,,,,,,,,,,,,bars/024.png,bars/mask000.png,,,,,,,,,,,,0,2,,,,,,,8,0,8,0,,,,,,,,,,,275.4866,275.9866,276.2367,279.4534,space,3.204,,279.4536,86,36,280.4533,280.4534,295.4206,space,14.9374,,0,1,1,1,1,120,170,,,,,,,,
,,5f35ea51f0cfd606d35d01e5,65af5613eba6f5fa810a1699,2024-01-22_23h02.03.717,bars,2023.2.3,Win32,59.88023952,657b66ea316d21385b68909f,,,,,,,,,,,295.4343,296.4372,,,296.9373,297.1871,,31,31,,,,,,,,,,,,,,,,bars/043.png,bars/mask006.png,,,,,,,,,,,,5,1,,,,,,,6,0,5,0,,,,,,,,,,,296.4372,296.9373,297.1872,301.5707,space,4.3677,,301.5708,1,81,302.5706,302.5708,308.9048,space,6.2996,,0,2,2,2,1,30,130,,,,,,,,
,,5f35ea51f0cfd606d35d01e5,65af5613eba6f5fa810a1699,2024-01-22_23h02.03.717,bars,2023.2.3,Win32,59.88023952,657b66ea316d21385b68909f,,,,,,,,,,,308.9177,309.9101,,,310.4046,310.6545,,121,121,,,,,,,,,,,,,,,,bars/031.png,bars/mask003.png,,,,,,,,,,,,3,1,,,,,,,4,2,3,0,,,,,,,,,,,309.9102,310.4045,310.6547,313.8547,space,3.1686,,313.8547,1,86,314.8547,314.8548,317.1716,space,2.2879,,0,3,3,3,1,120,35,,,,,,,,
,,5f35ea51f0cfd606d35d01e5,65af5613eba6f5fa810a1699,2024-01-22_23h02.03.717,bars,2023.2.3,Win32,59.88023952,657b66ea316d21385b68909f,,,,,,,,,,,317.1727,318.1769,,,318.6714,318.9217,,148,-32,,,,,,,,,,,,,,,,bars/024.png,bars/mask000.png,,,,,,,,,,,,0,2,,,,,,,6,0,5,0,,,,,,,,,,,318.177,318.6714,318.9219,321.9453,space,3.0014,,321.9454,28,22,322.9381,322.9382,325.9723,space,2.9958,,0,4,4,4,1,120,170,,,,,,,,
,,5f35ea51f0cfd606d35d01e5,65af5613eba6f5fa810a1699,2024-01-22_23h02.03.717,bars,2023.2.3,Win32,59.88023952,657b66ea316d21385b68909f,,,,,,,,,,,325.9845,326.9883,,,327.4885,327.7384,,22,202,,,,,,,,,,,,,,,,bars/024.png,bars/mask001.png,,,,,,,,,,,,0,2,,,,,,,8,2,10,5,,,,,,,,,,,326.9884,327.4884,327.7385,330.1624,space,2.4013,,330.1624,82,32,331.1549,331.1551,332.0891,space,0.9028,,0,5,5,5,1,120,170,,,,,,,,
,,5f35ea51f0cfd606d35d01e5,65af5613eba6f5fa810a1699,2024-01-22_23h02.03.717,bars,2023.2.3,Win32,59.88023952,657b66ea316d21385b68909f,,,,,,,,,,,332.09,333.0883,,,333.5887,333.8385,,112,112,,,,,,,,,,,,,,,,bars/028.png,bars/mask000.png,,,,,,,,,,,,1,2,,,,,,,10,0,10,1,,,,,,,,,,,333.0884,333.5887,333.8386,336.5453,space,2.6843,,336.5454,67,8,337.5385,337.5387,339.1721,space,1.6025,,0,6,6,6,1,45,120,,,,,,,,
,,5f35ea51f0cfd606d35d01e5,65af5613eba6f5fa810a1699,2024-01-22_23h02.03.717,bars,2023.2.3,Win32,59.88023952,657b66ea316d21385b68909f,,,,,,,,,,,339.1733,340.1777,,,340.6723,340.9221,,44,44,,,,,,,,,,,,,,,,bars/033.png,bars/mask000.png,,,,,,,,,,,,4,1,,,,,,,10,0,10,0,,,,,,,,,,,340.1777,340.6721,340.9221,344.0222,space,3.0753,,344.0223,19,69,345.0222,345.0224,345.9396,space,0.8849,,0,7,7,7,1,25,155,,,,,,,,
,,5f35ea51f0cfd606d35d01e5,65af5613eba6f5fa810a1699,2024-01-22_23h02.03.717,bars,2023.2.3,Win32,59.88023952,657b66ea316d21385b68909f,,,,,,,,,,,345.9403,346.9386,,,347.4388,347.6888,,75,75,,,,,,,,,,,,,,,,bars/044.png,bars/mask002.png,,,,,,,,,,,,8,1,,,,,,,10,0,8,0,,,,,,,,,,,346.9386,347.4387,347.6889,350.2391,space,2.5346,,350.2392,0,80,351.2389,351.239,352.9057,space,1.6366,,0,8,8,8,1,75,155,,,,,,,,
,,5f35ea51f0cfd606d35d01e5,65af5613eba6f5fa810a1699,2024-01-22_23h02.03.717,bars,2023.2.3,Win32,59.88023952,657b66ea316d21385b68909f,,,,,,,,,,,352.9064,353.9056,,,354.4056,354.6554,,14,14,,,,,,,,,,,,,,,,bars/007.png,bars/mask005.png,,,,,,,,,,,,3,1,,,,,,,8,0,9,0,,,,,,,,,,,353.9056,354.4056,354.6556,357.3559,space,2.6852,,357.3559,19,41,358.3556,358.3557,361.9058,space,3.5202,,0,9,9,9,1,175,55,,,,,,,,
,,5f35ea51f0cfd606d35d01e5,65af5613eba6f5fa810a1699,2024-01-22_23h02.03.717,bars,2023.2.3,Win32,59.88023952,657b66ea316d21385b68909f,,,,,,,,,,,361.9187,362.906,,,363.4059,363.6559,,169,-11,,,,,,,,,,,,,,,,bars/035.png,bars/mask005.png,,,,,,,,,,,,6,1,,,,,,,10,2,7,4,,,,,,,,,,,362.9061,363.4058,363.6559,369.1561,space,5.4927,,369.1561,6,71,370.1559,370.156,371.0061,space,0.82,,0,10,10,10,1,175,60,,,,,,,,
,,5f35ea51f0cfd606d35d01e5,65af5613eba6f5fa810a1699,2024-01-22_23h02.03.717,bars,2023.2.3,Win32,59.88023952,657b66ea316d21385b68909f,,,,,,,,,,,371.0067,372.0061,,,372.506,372.7559,,168,168,,,,,,,,,,,,,,,,bars/049.png,bars/mask000.png,,,,,,,,,,,,7,1,,,,,,,10,4,10,4,,,,,,,,,,,372.0061,372.5059,372.7559,374.2732,space,1.5098,,374.2733,8,53,375.2727,375.2728,376.5231,space,1.2358,,0,11,11,11,1,160,115,,,,,,,,
,,5f35ea51f0cfd606d35d01e5,65af5613eba6f5fa810a1699,2024-01-22_23h02.03.717,bars,2023.2.3,Win32,59.88023952,657b66ea316d21385b68909f,,,,,,,,,,,376.5235,377.5229,,,378.0229,378.2728,,126,126,,,,,,,,,,,,,,,,bars/017.png,bars/mask008.png,,,,,,,,,,,,3,1,,,,,,,8,6,7,8,,,,,,,,,,,377.523,378.0228,378.2729,380.0896,space,1.8005,,380.0897,19,81,381.0898,381.0898,381.7065,space,0.5871,,0,12,12,12,1,145,45,,,,,,,,
,,5f35ea51f0cfd606d35d01e5,65af5613eba6f5fa810a1699,2024-01-22_23h02.03.717,bars,2023.2.3,Win32,59.88023952,657b66ea316d21385b68909f,,,,,,,,,,,381.7072,382.7063,,,383.2063,383.4563,,82,-98,,,,,,,,,,,,,,,,bars/022.png,bars/mask007.png,,,,,,,,,,,,3,1,,,,,,,6,4,6,2,,,,,,,,,,,382.7063,383.2063,383.4563,387.8566,space,4.3833,,387.8566,13,62,388.8564,388.8564,389.5234,space,0.637,,0,13,13,13,1,95,20,,,,,,,,
,,5f35ea51f0cfd606d35d01e5,65af5613eba6f5fa810a1699,2024-01-22_23h02.03.717,bars,2023.2.3,Win32,59.88023952,657b66ea316d21385b68909f,,,,,,,,,,,389.5241,390.5231,,,391.0235,391.273,,161,161,,,,,,,,,,,,,,,,bars/005.png,bars/mask006.png,,,,,,,,,,,,2,2,,,,,,,4,6,4,6,,,,,,,,,,,390.5231,391.0234,391.2732,394.6734,space,3.3845,,394.6735,29,21,395.6733,395.6734,396.4899,space,0.7806,,0,14,14,14,1,10,140,,,,,,,,
,,5f35ea51f0cfd606d35d01e5,65af5613eba6f5fa810a1699,2024-01-22_23h02.03.717,bars,2023.2.3,Win32,59.88023952,657b66ea316d21385b68909f,,,,,,,,,,,396.4905,397.4898,,,397.9899,398.2399,,173,173,,,,,,,,,,,,,,,,bars/010.png,bars/mask006.png,,,,,,,,,,,,4,1,,,,,,,6,4,5,3,,,,,,,,,,,397.4899,397.9898,398.2399,400.2734,space,2.0239,,400.2734,8,62,401.2734,401.2734,403.6811,space,2.3782,,0,15,15,15,1,165,55,,,,,,,,
,,5f35ea51f0cfd606d35d01e5,65af5613eba6f5fa810a1699,2024-01-22_23h02.03.717,bars,2023.2.3,Win32,59.88023952,657b66ea316d21385b68909f,,,,,,,,,,,403.6814,404.6739,,,405.1739,405.4242,,18,18,,,,,,,,,,,,,,,,bars/016.png,bars/mask003.png,,,,,,,,,,,,1,1,,,,,,,4,2,3,3,,,,,,,,,,,404.6741,405.1739,405.4244,407.4136,space,1.9665,,407.4137,22,33,408.4071,408.4073,409.0074,space,0.5683,,0,16,16,16,1,40,165,,,,,,,,
,,5f35ea51f0cfd606d35d01e5,65af5613eba6f5fa810a1699,2024-01-22_23h02.03.717,bars,2023.2.3,Win32,59.88023952,657b66ea316d21385b68909f,,,,,,,,,,,409.0087,409.9972,,,410.4907,410.7465,,108,108,,,,,,,,,,,,,,,,bars/002.png,bars/mask002.png,,,,,,,,,,,,1,1,,,,,,,2,4,2,4,,,,,,,,,,,409.9972,410.4906,410.7465,413.3807,space,2.6177,,413.3807,22,23,414.3739,414.374,415.7579,space,1.3511,,0,17,17,17,1,130,85,,,,,,,,
,,5f35ea51f0cfd606d35d01e5,65af5613eba6f5fa810a1699,2024-01-22_23h02.03.717,bars,2023.2.3,Win32,59.88023952,657b66ea316d21385b68909f,,,,,,,,,,,415.7589,416.763,,,417.2575,417.5074,,149,149,,,,,,,,,,,,,,,,bars/016.png,bars/mask004.png,,,,,,,,,,,,1,2,,,,,,,0,2,0,2,,,,,,,,,,,416.7631,417.2574,417.5075,419.4982,space,1.9681,,419.4982,71,16,420.4907,420.4908,421.2583,space,0.7318,,0,18,18,18,1,40,165,,,,,,,,
,,5f35ea51f0cfd606d35d01e5,65af5613eba6f5fa810a1699,2024-01-22_23h02.03.717,bars,2023.2.3,Win32,59.88023952,657b66ea316d21385b68909f,,,,,,,,,,,421.2593,422.2576,,,422.7578,423.0139,,71,71,,,,,,,,,,,,,,,,bars/011.png,bars/mask007.png,,,,,,,,,,,,2,2,,,,,,,0,4,0,4,,,,,,,,,,,422.2577,422.7575,423.014,425.2082,space,2.1753,,425.2086,89,14,426.2076,426.2078,426.708,space,0.4739,,0,19,19,19,1,160,85,,,,,,,,
,,5f35ea51f0cfd606d35d01e5,65af5613eba6f5fa810a1699,2024-01-22_23h02.03.717,bars,2023.2.3,Win32,59.88023952,657b66ea316d21385b68909f,,,,,,,,,,,426.7093,427.7132,,,428.2082,428.4577,,177,-3,,,,,,,,,,,,,,,,bars/047.png,bars/mask000.png,,,,,,,,,,,,0,1,,,,,,,2,2,1,3,,,,,,,,,,,427.7133,428.208,428.4578,431.0646,space,2.5842,,431.0646,18,73,432.0577,432.0578,432.6581,space,0.5659,,0,20,20,20,1,15,70,,,,,,,,
,,5f35ea51f0cfd606d35d01e5,65af5613eba6f5fa810a1699,2024-01-22_23h02.03.717,bars,2023.2.3,Win32,59.88023952,657b66ea316d21385b68909f,,,,,,,,,,,432.6594,433.6578,,,434.158,434.4078,,119,-61,,,,,,,,,,,,,,,,bars/032.png,bars/mask007.png,,,,,,,,,,,,0,1,,,,,,,0,4,0,5,,,,,,,,,,,433.6579,434.1578,434.4078,437.7155,space,3.285,,437.7156,6,81,438.7079,438.7081,440.5317,space,1.8006,,0,21,21,21,1,125,20,,,,,,,,
,,5f35ea51f0cfd606d35d01e5,65af5613eba6f5fa810a1699,2024-01-22_23h02.03.717,bars,2023.2.3,Win32,59.88023952,657b66ea316d21385b68909f,,,,,,,,,,,440.532,441.5246,,,442.0248,442.2807,,82,82,,,,,,,,,,,,,,,,bars/001.png,bars/mask003.png,,,,,,,,,,,,2,2,,,,,,,2,2,2,2,,,,,,,,,,,441.5246,442.0247,442.2807,444.8083,space,2.5016,,444.8084,48,3,445.8081,445.8083,445.8404,space,0.001,,0,22,22,22,1,130,85,,,,,,,,
,,5f35ea51f0cfd606d35d01e5,65af5613eba6f5fa810a1699,2024-01-22_23h02.03.717,bars,2023.2.3,Win32,59.88023952,657b66ea316d21385b68909f,,,,,,,,,,,445.8413,446.8416,,,447.331,447.5749,,102,102,,,,,,,,,,,,,,,,bars/021.png,bars/mask007.png,,,,,,,,,,,,0,2,,,,,,,0,4,0,2,,,,,,,,,,,446.8416,447.3309,447.575,449.9087,space,2.3087,,449.909,53,32,450.9083,450.9083,451.3485,space,0.4162,,0,23,23,23,1,155,70,,,,,,,,
,,5f35ea51f0cfd606d35d01e5,65af5613eba6f5fa810a1699,2024-01-22_23h02.03.717,bars,2023.2.3,Win32,59.88023952,657b66ea316d21385b68909f,,,,,,,,,,,451.349,452.3416,,,452.8418,453.0939,,163,-17,,,,,,,,,,,,,,,,bars/014.png,bars/mask002.png,,,,,,,,,,,,0,2,,,,,,,2,2,2,1,,,,,,,,,,,452.3417,452.8416,453.094,456.9831,space,3.8686,,456.9831,83,17,457.9753,457.9754,459.5495,space,1.551,,0,24,24,24,1,80,0,,,,,,,,
,,5f35ea51f0cfd606d35d01e5,65af5613eba6f5fa810a1699,2024-01-22_23h02.03.717,bars,2023.2.3,Win32,59.88023952,657b66ea316d21385b68909f,,,,,,,,,,,459.55,460.5477,,,461.0478,461.2919,,164,164,,,,,,,,,,,,,,,,bars/010.png,bars/mask001.png,,,,,,,,,,,,3,1,,,,,,,4,4,3,5,,,,,,,,,,,460.5477,461.0478,461.292,463.8422,space,2.5253,,463.8425,1,71,464.8419,464.842,465.5419,space,0.661,,0,25,25,25,1,165,55,,,,,,,,
,,5f35ea51f0cfd606d35d01e5,65af5613eba6f5fa810a1699,2024-01-22_23h02.03.717,bars,2023.2.3,Win32,59.88023952,657b66ea316d21385b68909f,,,,,,,,,,,465.5426,466.5418,,,467.0419,467.2917,,159,159,,,,,,,,,,,,,,,,bars/036.png,bars/mask002.png,,,,,,,,,,,,3,1,,,,,,,6,2,6,3,,,,,,,,,,,466.5418,467.0419,467.2918,470.7588,space,3.4515,,470.7588,14,41,471.7586,471.7586,472.592,space,0.8031,,0,26,26,26,1,145,20,,,,,,,,
,,5f35ea51f0cfd606d35d01e5,65af5613eba6f5fa810a1699,2024-01-22_23h02.03.717,bars,2023.2.3,Win32,59.88023952,657b66ea316d21385b68909f,,,,,,,,,,,472.5926,473.5919,,,474.0921,474.342,,161,-19,,,,,,,,,,,,,,,,bars/035.png,bars/mask005.png,,,,,,,,,,,,4,1,,,,,,,8,4,7,4,,,,,,,,,,,473.5919,474.0921,474.342,477.7758,space,3.4252,,477.7758,14,79,478.7756,478.7757,479.809,space,1.0087,,0,27,27,27,1,175,60,,,,,,,,
,,5f35ea51f0cfd606d35d01e5,65af5613eba6f5fa810a1699,2024-01-22_23h02.03.717,bars,2023.2.3,Win32,59.88023952,657b66ea316d21385b68909f,,,,,,,,,,,479.8096,480.8088,,,481.309,481.5588,,99,99,,,,,,,,,,,,,,,,bars/027.png,bars/mask008.png,,,,,,,,,,,,6,1,,,,,,,10,6,10,5,,,,,,,,,,,480.8088,481.309,481.5589,482.9258,space,1.3526,,482.9259,11,49,483.9257,483.9257,484.3757,space,0.4302,,0,28,28,28,1,110,50,,,,,,,,
,,5f35ea51f0cfd606d35d01e5,65af5613eba6f5fa810a1699,2024-01-22_23h02.03.717,bars,2023.2.3,Win32,59.88023952,657b66ea316d21385b68909f,,,,,,,,,,,484.3762,485.3755,,,485.8757,486.1257,,112,-68,,,,,,,,,,,,,,,,bars/031.png,bars/mask000.png,,,,,,,,,,,,7,1,,,,,,,10,4,10,4,,,,,,,,,,,485.3756,485.8756,486.1258,490.1927,space,4.0575,,490.1927,8,77,491.1925,491.1926,492.526,space,1.2981,,0,29,29,29,1,120,35,,,,,,,,
,,5f35ea51f0cfd606d35d01e5,65af5613eba6f5fa810a1699,2024-01-22_23h02.03.717,bars,2023.2.3,Win32,59.88023952,657b66ea316d21385b68909f,,,,,,,,,,,492.5265,493.5258,,,494.0259,494.2759,,85,85,,,,,,,,,,,,,,,,bars/013.png,bars/mask008.png,,,,,,,,,,,,5,1,,,,,,,8,6,7,5,,,,,,,,,,,493.5259,494.0258,494.276,496.2928,space,2.0035,,496.2929,10,75,497.2926,497.2926,499.7595,space,2.4423,,0,30,30,30,1,75,10,,,,,,,,
,,5f35ea51f0cfd606d35d01e5,65af5613eba6f5fa810a1699,2024-01-22_23h02.03.717,bars,2023.2.3,Win32,59.88023952,657b66ea316d21385b68909f,,,,,,,,,,,499.76,500.7595,,,501.2595,501.5095,,168,168,,,,,,,,,,,,,,,,bars/039.png,bars/mask001.png,,,,,,,,,,,,5,1,,,,,,,6,8,6,10,,,,,,,,,,,500.7595,501.2595,501.5095,504.0096,space,2.484,,504.0097,7,63,505.0095,505.0096,506.4264,space,1.3914,,0,31,31,31,1,175,105,,,,,,,,
,,5f35ea51f0cfd606d35d01e5,65af5613eba6f5fa810a1699,2024-01-22_23h02.03.717,bars,2023.2.3,Win32,59.88023952,657b66ea316d21385b68909f,,,,,,,,,,,506.4269,507.4262,,,507.9263,508.1762,,112,-68,,,,,,,,,,,,,,,,bars/008.png,bars/mask002.png,,,,,,,,,,,,4,1,,,,,,,4,10,4,10,,,,,,,,,,,507.4263,507.9262,508.1762,511.5597,space,3.3682,,511.5599,2,68,512.5597,512.5598,513.5765,space,0.9862,,0,32,32,32,1,110,0,,,,,,,,
,,5f35ea51f0cfd606d35d01e5,65af5613eba6f5fa810a1699,2024-01-22_23h02.03.717,bars,2023.2.3,Win32,59.88023952,657b66ea316d21385b68909f,,,,,,,,,,,513.5772,514.5764,,,515.0765,515.3265,,48,48,,,,,,,,,,,,,,,,bars/019.png,bars/mask007.png,,,,,,,,,,,,2,1,,,,,,,2,10,2,9,,,,,,,,,,,514.5764,515.0765,515.3265,517.8267,space,2.4872,,517.8268,3,57,518.8265,518.8267,519.5767,space,0.7226,,0,33,33,33,1,45,105,,,,,,,,
,,5f35ea51f0cfd606d35d01e5,65af5613eba6f5fa810a1699,2024-01-22_23h02.03.717,bars,2023.2.3,Win32,59.88023952,657b66ea316d21385b68909f,,,,,,,,,,,519.5772,520.5766,,,521.0767,521.3266,,91,91,,,,,,,,,,,,,,,,bars/045.png,bars/mask005.png,,,,,,,,,,,,1,1,,,,,,,0,8,1,7,,,,,,,,,,,520.5766,521.0767,521.3266,522.8768,space,1.5334,,522.8769,9,81,523.8766,523.8767,525.0103,space,1.1163,,0,34,34,34,1,100,10,,,,,,,,
,,5f35ea51f0cfd606d35d01e5,65af5613eba6f5fa810a1699,2024-01-22_23h02.03.717,bars,2023.2.3,Win32,59.88023952,657b66ea316d21385b68909f,,,,,,,,,,,525.0108,526.01,,,526.5101,526.7601,,51,51,,,,,,,,,,,,,,,,bars/035.png,bars/mask009.png,,,,,,,,,,,,6,2,,,,,,,0,10,0,9,,,,,,,,,,,526.0101,526.5101,526.7602,529.5104,space,2.7361,,529.5105,56,9,530.5102,530.5103,531.0777,space,0.5263,,0,35,35,35,1,175,60,,,,,,,,
,,5f35ea51f0cfd606d35d01e5,65af5613eba6f5fa810a1699,2024-01-22_23h02.03.717,bars,2023.2.3,Win32,59.88023952,657b66ea316d21385b68909f,,,,,,,,,,,531.0788,532.0775,,,532.5775,532.8272,,129,129,,,,,,,,,,,,,,,,bars/033.png,bars/mask008.png,,,,,,,,,,,,1,2,,,,,,,2,8,4,7,,,,,,,,,,,532.0775,532.5775,532.8274,534.7775,space,1.9244,,534.7776,76,26,535.7772,535.7773,536.4111,space,0.6021,,0,36,36,36,1,25,155,,,,,,,,
,,5f35ea51f0cfd606d35d01e5,65af5613eba6f5fa810a1699,2024-01-22_23h02.03.717,bars,2023.2.3,Win32,59.88023952,657b66ea316d21385b68909f,,,,,,,,,,,536.4125,537.4106,,,537.9109,538.1606,,1,181,,,,,,,,,,,,,,,,bars/008.png,bars/mask009.png,,,,,,,,,,,,5,2,,,,,,,0,6,0,5,,,,,,,,,,,537.4107,537.9108,538.1608,541.934,space,3.7508,,541.9341,71,1,542.9274,542.9275,543.6512,space,0.7007,,0,37,37,37,1,110,0,,,,,,,,
,,5f35ea51f0cfd606d35d01e5,65af5613eba6f5fa810a1699,2024-01-22_23h02.03.717,bars,2023.2.3,Win32,59.88023952,657b66ea316d21385b68909f,,,,,,,,,,,543.6515,544.6501,,,545.1506,545.3942,,93,93,,,,,,,,,,,,,,,,bars/001.png,bars/mask002.png,,,,,,,,,,,,6,2,,,,,,,2,8,2,8,,,,,,,,,,,544.6501,545.1506,545.3944,546.9509,space,1.5339,,546.951,37,8,547.9442,547.9444,548.3846,space,0.417,,0,38,38,38,1,130,85,,,,,,,,
,,5f35ea51f0cfd606d35d01e5,65af5613eba6f5fa810a1699,2024-01-22_23h02.03.717,bars,2023.2.3,Win32,59.88023952,657b66ea316d21385b68909f,,,,,,,,,,,548.385,549.3842,,,549.8839,550.1278,,63,63,,,,,,,,,,,,,,,,bars/038.png,bars/mask003.png,,,,,,,,,,,,8,2,,,,,,,4,10,5,10,,,,,,,,,,,549.3843,549.8838,550.1279,552.7177,space,2.5672,,552.7177,78,7,553.7164,553.7164,554.1446,space,0.4019,,0,39,39,39,1,165,70,,,,,,,,
,,5f35ea51f0cfd606d35d01e5,65af5613eba6f5fa810a1699,2024-01-22_23h02.03.717,bars,2023.2.3,Win32,59.88023952,657b66ea316d21385b68909f,,,,,,,,,,,554.1457,555.1446,,,555.6446,555.8946,,77,77,,,,,,,,,,,,,,,,bars/042.png,bars/mask008.png,,,,,,,,,,,,9,2,,,,,,,6,10,5,10,,,,,,,,,,,555.1446,555.6445,555.8946,559.185,space,3.2678,,559.185,68,2,560.1781,560.1781,560.5449,space,0.3423,,0,40,40,40,1,145,75,,,,,,,,
,,5f35ea51f0cfd606d35d01e5,65af5613eba6f5fa810a1699,2024-01-22_23h02.03.717,bars,2023.2.3,Win32,59.88023952,657b66ea316d21385b68909f,,,,,,,,,,,560.5465,561.5446,,,562.0448,562.2949,,80,80,,,,,,,,,,,,,,,,bars/002.png,bars/mask008.png,,,,,,,,,,,,5,2,,,,,,,8,8,8,6,,,,,,,,,,,561.5446,562.0447,562.295,564.1949,space,1.8684,,564.195,50,5,565.1947,565.1948,565.4787,space,0.2521,,0,41,41,41,1,130,85,,,,,,,,
,,5f35ea51f0cfd606d35d01e5,65af5613eba6f5fa810a1699,2024-01-22_23h02.03.717,bars,2023.2.3,Win32,59.88023952,657b66ea316d21385b68909f,,,,,,,,,,,565.48,566.4784,,,566.9783,567.2343,,74,74,,,,,,,,,,,,,,,,bars/021.png,bars/mask001.png,,,,,,,,,,,,9,2,,,,,,,6,10,5,10,,,,,,,,,,,566.4784,566.9782,567.2344,569.7788,space,2.5196,,569.779,81,4,570.7781,570.7782,571.6785,space,0.8728,,0,42,42,42,1,155,70,,,,,,,,
,,5f35ea51f0cfd606d35d01e5,65af5613eba6f5fa810a1699,2024-01-22_23h02.03.717,bars,2023.2.3,Win32,59.88023952,657b66ea316d21385b68909f,,,,,,,,,,,571.6797,572.6784,,,573.1785,573.4175,,100,100,,,,,,,,,,,,,,,,bars/019.png,bars/mask005.png,,,,,,,,,,,,8,2,,,,,,,8,10,9,10,,,,,,,,,,,572.6784,573.1783,573.4175,577.5186,space,4.0842,,577.5186,55,5,578.5117,578.5118,579.1454,space,0.6052,,0,43,43,43,1,45,105,,,,,,,,
,,5f35ea51f0cfd606d35d01e5,65af5613eba6f5fa810a1699,2024-01-22_23h02.03.717,bars,2023.2.3,Win32,59.88023952,657b66ea316d21385b68909f,,,,,,,,,,,579.1466,580.1452,,,580.6453,580.8849,,156,156,,,,,,,,,,,,,,,,bars/033.png,bars/mask001.png,,,,,,,,,,,,10,2,,,,,,,10,10,10,10,,,,,,,,,,,580.1453,580.6453,580.8849,585.9293,space,5.0182,,585.9295,49,1,586.9289,586.929,587.9124,space,0.952,,0,44,44,44,1,25,155,,,,,,,,
,,5f35ea51f0cfd606d35d01e5,65af5613eba6f5fa810a1699,2024-01-22_23h02.03.717,bars,2023.2.3,Win32,59.88023952,657b66ea316d21385b68909f,,,,,,,,,,,587.9136,588.9126,,,589.4123,589.6621,,86,86,,,,,,,,,,,,,,,,bars/023.png,bars/mask003.png,,,,,,,,,,,,0,2,,,,,,,10,8,10,8,,,,,,,,,,,588.9129,589.4123,589.6622,592.4124,space,2.7183,,592.4125,66,29,593.4123,593.4123,595.6793,space,2.2363,,0,45,45,45,1,20,115,,,,,,,,
,,5f35ea51f0cfd606d35d01e5,65af5613eba6f5fa810a1699,2024-01-22_23h02.03.717,bars,2023.2.3,Win32,59.88023952,657b66ea316d21385b68909f,,,,,,,,,,,595.6803,596.6789,,,597.1795,597.429,,60,60,,,,,,,,,,,,,,,,bars/010.png,bars/mask001.png,,,,,,,,,,,,8,2,,,,,,,10,10,10,10,,,,,,,,,,,596.679,597.1793,597.429,602.8878,space,5.4352,,602.8879,75,5,603.8793,603.8794,604.7462,space,0.8325,,0,46,46,46,1,165,55,,,,,,,,
,,5f35ea51f0cfd606d35d01e5,65af5613eba6f5fa810a1699,2024-01-22_23h02.03.717,bars,2023.2.3,Win32,59.88023952,657b66ea316d21385b68909f,,,,,,,,,,,604.7475,605.7458,,,606.2462,606.496,,64,244,,,,,,,,,,,,,,,,bars/029.png,bars/mask009.png,,,,,,,,,,,,4,2,,,,,,,10,10,10,10,,,,,,,,,,,605.7459,606.2461,606.496,609.3962,space,2.8705,,609.3964,26,19,610.396,610.3961,610.8302,space,0.4094,,0,47,47,47,1,90,45,,,,,,,,
,,5f35ea51f0cfd606d35d01e5,65af5613eba6f5fa810a1699,2024-01-22_23h02.03.717,bars,2023.2.3,Win32,59.88023952,657b66ea316d21385b68909f,,,,,,,,,,,610.8312,611.8295,,,612.3296,612.5793,,60,60,,,,,,,,,,,,,,,,bars/029.png,bars/mask004.png,,,,,,,,,,,,5,2,,,,,,,10,10,10,10,,,,,,,,,,,611.8295,612.3295,612.5793,615.3964,space,2.7884,,615.3965,30,15,616.3848,616.3849,616.8326,space,0.4282,,0,48,48,48,1,90,45,,,,,,,,
,,5f35ea51f0cfd606d35d01e5,65af5613eba6f5fa810a1699,2024-01-22_23h02.03.717,bars,2023.2.3,Win32,59.88023952,657b66ea316d21385b68909f,,,,,,,,,,,616.8331,617.8295,,,618.3299,618.5794,,159,159,,,,,,,,,,,,,,,,bars/030.png,bars/mask009.png,,,,,,,,,,,,2,1,,,,,,,8,8,6,6,,,,,,,,,,,617.8296,618.3298,618.5795,619.9966,space,1.385,,619.9969,19,86,620.9963,620.9964,621.3468,space,0.316,,0,49,49,49,1,140,65,,,,,,,,
,,5f35ea51f0cfd606d35d01e5,65af5613eba6f5fa810a1699,2024-01-22_23h02.03.717,bars,2023.2.3,Win32,59.88023952,657b66ea316d21385b68909f,,,,,,,,,,,,,,,,,,,,,,,,,,,,,,,,,,,,,,,,,,,,,,,,,,,,,,,,,,,,,,,,,,,,,,,,,,,,,,,,,,,,,,,,,,,,,621.3479,681.3486,0,0,0,2,1,sequence_tables/blk041.csv
,,5f35ea51f0cfd606d35d01e5,65af5613eba6f5fa810a1699,2024-01-22_23h02.03.717,bars,2023.2.3,Win32,59.88023952,657b66ea316d21385b68909f,,,,,,,,,,,687.8828,688.8813,,,689.3813,689.6314,,82,82,,,,,,,,,,,,,,,,bars/002.png,bars/mask004.png,,,,,,,,,,,,4,2,,,,,,,3,2,6,4,,,,,,681.3621,687.8648,space,6.4877,,688.8814,689.3813,689.6316,698.4317,space,8.7909,,698.4318,48,3,699.4316,699.4316,699.4518,,,,0,0,0,0,1,130,85,,,,,,,,
,,5f35ea51f0cfd606d35d01e5,65af5613eba6f5fa810a1699,2024-01-22_23h02.03.717,bars,2023.2.3,Win32,59.88023952,657b66ea316d21385b68909f,,,,,,,,,,,699.4521,700.4482,,,700.9483,701.1981,,75,75,,,,,,,,,,,,,,,,bars/042.png,bars/mask004.png,,,,,,,,,,,,4,2,,,,,,,1,4,1,4,,,,,,,,,,,700.4482,700.9483,701.1982,705.3652,space,4.1518,,705.3652,70,0,706.365,706.3651,706.3775,,,,0,1,1,1,1,145,75,,,,,,,,
,,5f35ea51f0cfd606d35d01e5,65af5613eba6f5fa810a1699,2024-01-22_23h02.03.717,bars,2023.2.3,Win32,59.88023952,657b66ea316d21385b68909f,,,,,,,,,,,706.3778,707.3817,,,707.882,708.1318,,160,160,,,,,,,,,,,,,,,,bars/000.png,bars/mask005.png,,,,,,,,,,,,3,2,,,,,,,3,6,4,5,,,,,,,,,,,707.3818,707.8819,708.132,710.1821,space,2.0389,,710.1822,60,15,711.1818,711.1819,711.183,,,,0,2,2,2,1,40,145,,,,,,,,
,,5f35ea51f0cfd606d35d01e5,65af5613eba6f5fa810a1699,2024-01-22_23h02.03.717,bars,2023.2.3,Win32,59.88023952,657b66ea316d21385b68909f,,,,,,,,,,,711.1835,712.1818,,,712.682,712.932,,84,84,,,,,,,,,,,,,,,,bars/041.png,bars/mask004.png,,,,,,,,,,,,4,2,,,,,,,5,4,5,4,,,,,,,,,,,712.1819,712.6819,712.9321,714.9155,space,1.9716,,714.9155,64,1,715.9153,715.9154,715.9283,,,,0,3,3,3,1,20,85,,,,,,,,
,,5f35ea51f0cfd606d35d01e5,65af5613eba6f5fa810a1699,2024-01-22_23h02.03.717,bars,2023.2.3,Win32,59.88023952,657b66ea316d21385b68909f,,,,,,,,,,,715.9286,716.932,,,717.4322,717.682,,40,40,,,,,,,,,,,,,,,,bars/017.png,bars/mask000.png,,,,,,,,,,,,5,2,,,,,,,3,6,3,6,,,,,,,,,,,716.9321,717.4322,717.6821,719.2655,space,1.5685,,719.2657,75,5,720.2655,720.2655,720.2789,,,,0,4,4,4,1,145,45,,,,,,,,
,,5f35ea51f0cfd606d35d01e5,65af5613eba6f5fa810a1699,2024-01-22_23h02.03.717,bars,2023.2.3,Win32,59.88023952,657b66ea316d21385b68909f,,,,,,,,,,,720.2791,721.2825,,,721.7822,722.0323,,156,156,,,,,,,,,,,,,,,,bars/033.png,bars/mask009.png,,,,,,,,,,,,8,2,,,,,,,5,8,4,8,,,,,,,,,,,721.2825,721.7821,722.0323,725.9158,space,3.8729,,725.9158,49,1,726.9157,726.9158,726.9292,,,,0,5,5,5,1,25,155,,,,,,,,
,,5f35ea51f0cfd606d35d01e5,65af5613eba6f5fa810a1699,2024-01-22_23h02.03.717,bars,2023.2.3,Win32,59.88023952,657b66ea316d21385b68909f,,,,,,,,,,,726.9295,727.9324,,,728.4325,728.6823,,44,224,,,,,,,,,,,,,,,,bars/031.png,bars/mask004.png,,,,,,,,,,,,4,2,,,,,,,3,6,2,6,,,,,,,,,,,727.9325,728.4325,728.6824,732.6661,space,3.9731,,732.6661,76,9,733.6657,733.6658,733.6789,,,,0,6,6,6,1,120,35,,,,,,,,
,,5f35ea51f0cfd606d35d01e5,65af5613eba6f5fa810a1699,2024-01-22_23h02.03.717,bars,2023.2.3,Win32,59.88023952,657b66ea316d21385b68909f,,,,,,,,,,,733.6792,734.6827,,,735.1826,735.4326,,91,91,,,,,,,,,,,,,,,,bars/026.png,bars/mask000.png,,,,,,,,,,,,3,2,,,,,,,1,4,2,4,,,,,,,,,,,734.6829,735.1825,735.4328,737.1661,space,1.7163,,737.1662,56,6,738.1659,738.166,738.1799,,,,0,7,7,7,1,35,85,,,,,,,,
,,5f35ea51f0cfd606d35d01e5,65af5613eba6f5fa810a1699,2024-01-22_23h02.03.717,bars,2023.2.3,Win32,59.88023952,657b66ea316d21385b68909f,,,,,,,,,,,738.1801,739.1828,,,739.6828,739.9327,,77,77,,,,,,,,,,,,,,,,bars/027.png,bars/mask005.png,,,,,,,,,,,,0,2,,,,,,,0,2,0,2,,,,,,,,,,,739.1828,739.6826,739.9327,743.7996,space,3.8502,,743.7997,33,27,744.7994,744.7996,744.813,,,,0,8,8,8,1,110,50,,,,,,,,
,,5f35ea51f0cfd606d35d01e5,65af5613eba6f5fa810a1699,2024-01-22_23h02.03.717,bars,2023.2.3,Win32,59.88023952,657b66ea316d21385b68909f,,,,,,,,,,,744.8133,745.8165,,,746.3162,746.5662,,75,75,,,,,,,,,,,,,,,,bars/013.png,bars/mask003.png,,,,,,,,,,,,0,1,,,,,,,0,4,0,3,,,,,,,,,,,745.8165,746.3162,746.5663,750.6332,space,4.0589,,750.6332,0,65,751.633,751.6331,751.6469,,,,0,9,9,9,1,75,10,,,,,,,,
,,5f35ea51f0cfd606d35d01e5,65af5613eba6f5fa810a1699,2024-01-22_23h02.03.717,bars,2023.2.3,Win32,59.88023952,657b66ea316d21385b68909f,,,,,,,,,,,751.6471,752.6498,,,753.1498,753.3998,,102,102,,,,,,,,,,,,,,,,bars/039.png,bars/mask007.png,,,,,,,,,,,,5,2,,,,,,,0,6,0,5,,,,,,,,,,,752.6498,753.1497,753.3998,754.95,space,1.5371,,754.9501,73,3,755.9498,755.9499,755.9638,,,,0,10,10,10,1,175,105,,,,,,,,
,,5f35ea51f0cfd606d35d01e5,65af5613eba6f5fa810a1699,2024-01-22_23h02.03.717,bars,2023.2.3,Win32,59.88023952,657b66ea316d21385b68909f,,,,,,,,,,,755.964,756.9668,,,757.4665,757.7167,,51,51,,,,,,,,,,,,,,,,bars/035.png,bars/mask005.png,,,,,,,,,,,,6,2,,,,,,,0,8,0,9,,,,,,,,,,,756.9668,757.4664,757.7167,759.0836,space,1.353,,759.0837,56,9,760.0831,760.0833,760.0967,,,,0,11,11,11,1,175,60,,,,,,,,
,,5f35ea51f0cfd606d35d01e5,65af5613eba6f5fa810a1699,2024-01-22_23h02.03.717,bars,2023.2.3,Win32,59.88023952,657b66ea316d21385b68909f,,,,,,,,,,,760.0969,761.1002,,,761.6003,761.8501,,55,55,,,,,,,,,,,,,,,,bars/010.png,bars/mask005.png,,,,,,,,,,,,9,2,,,,,,,2,10,2,9,,,,,,,,,,,761.1002,761.6003,761.8501,765.367,space,3.5054,,765.3671,70,0,766.367,766.367,766.3833,,,,0,12,12,12,1,165,55,,,,,,,,
,,5f35ea51f0cfd606d35d01e5,65af5613eba6f5fa810a1699,2024-01-22_23h02.03.717,bars,2023.2.3,Win32,59.88023952,657b66ea316d21385b68909f,,,,,,,,,,,766.3839,767.3836,,,767.8835,768.1337,,127,127,,,,,,,,,,,,,,,,bars/043.png,bars/mask005.png,,,,,,,,,,,,9,2,,,,,,,0,10,0,10,,,,,,,,,,,767.3837,767.8835,768.1337,770.2687,space,2.1272,,770.2688,83,3,771.2669,771.2671,771.2683,,,,0,13,13,13,1,30,130,,,,,,,,
,,5f35ea51f0cfd606d35d01e5,65af5613eba6f5fa810a1699,2024-01-22_23h02.03.717,bars,2023.2.3,Win32,59.88023952,657b66ea316d21385b68909f,,,,,,,,,,,771.2688,772.2671,,,772.7672,773.0173,,54,54,,,,,,,,,,,,,,,,bars/010.png,bars/mask002.png,,,,,,,,,,,,10,2,,,,,,,0,10,0,10,,,,,,,,,,,772.2671,772.7672,773.0173,775.8839,space,2.8511,,775.884,69,1,776.8838,776.8839,776.8969,,,,0,14,14,14,1,165,55,,,,,,,,
,,5f35ea51f0cfd606d35d01e5,65af5613eba6f5fa810a1699,2024-01-22_23h02.03.717,bars,2023.2.3,Win32,59.88023952,657b66ea316d21385b68909f,,,,,,,,,,,776.897,777.9008,,,778.4006,778.6506,,155,155,,,,,,,,,,,,,,,,bars/044.png,bars/mask007.png,,,,,,,,,,,,8,2,,,,,,,2,8,3,8,,,,,,,,,,,777.9008,778.4006,778.6506,780.1009,space,1.44,,780.1009,80,0,781.1008,781.1009,781.1024,,,,0,15,15,15,1,75,155,,,,,,,,
,,5f35ea51f0cfd606d35d01e5,65af5613eba6f5fa810a1699,2024-01-22_23h02.03.717,bars,2023.2.3,Win32,59.88023952,657b66ea316d21385b68909f,,,,,,,,,,,781.1032,782.1006,,,782.6009,782.8522,,52,52,,,,,,,,,,,,,,,,bars/025.png,bars/mask000.png,,,,,,,,,,,,3,2,,,,,,,0,6,0,5,,,,,,,,,,,782.1006,782.6008,782.8522,786.5023,space,3.6422,,786.5023,53,12,787.5007,787.5008,787.5137,,,,0,16,16,16,1,105,40,,,,,,,,
,,5f35ea51f0cfd606d35d01e5,65af5613eba6f5fa810a1699,2024-01-22_23h02.03.717,bars,2023.2.3,Win32,59.88023952,657b66ea316d21385b68909f,,,,,,,,,,,787.5139,788.5178,,,789.0177,789.2677,,48,48,,,,,,,,,,,,,,,,bars/027.png,bars/mask004.png,,,,,,,,,,,,3,2,,,,,,,2,4,2,3,,,,,,,,,,,788.5179,789.0176,789.2677,791.4011,space,2.1196,,791.4012,62,2,792.4008,792.4009,792.4133,,,,0,17,17,17,1,110,50,,,,,,,,
,,5f35ea51f0cfd606d35d01e5,65af5613eba6f5fa810a1699,2024-01-22_23h02.03.717,bars,2023.2.3,Win32,59.88023952,657b66ea316d21385b68909f,,,,,,,,,,,792.4137,793.4176,,,793.9176,794.1678,,73,73,,,,,,,,,,,,,,,,bars/018.png,bars/mask009.png,,,,,,,,,,,,3,2,,,,,,,0,6,1,7,,,,,,,,,,,793.4176,793.9175,794.1678,796.835,space,2.651,,796.8351,77,17,797.8345,797.8345,797.8472,,,,0,18,18,18,1,150,90,,,,,,,,
,,5f35ea51f0cfd606d35d01e5,65af5613eba6f5fa810a1699,2024-01-22_23h02.03.717,bars,2023.2.3,Win32,59.88023952,657b66ea316d21385b68909f,,,,,,,,,,,797.8475,798.8511,,,799.3513,799.6012,,158,158,,,,,,,,,,,,,,,,bars/011.png,bars/mask000.png,,,,,,,,,,,,2,1,,,,,,,2,8,2,8,,,,,,,,,,,798.8511,799.3513,799.6013,802.5848,space,2.9671,,802.5848,2,73,803.5845,803.5846,803.5989,,,,0,19,19,19,1,160,85,,,,,,,,
,,5f35ea51f0cfd606d35d01e5,65af5613eba6f5fa810a1699,2024-01-22_23h02.03.717,bars,2023.2.3,Win32,59.88023952,657b66ea316d21385b68909f,,,,,,,,,,,803.5992,804.6026,,,805.1014,805.3515,,34,214,,,,,,,,,,,,,,,,bars/023.png,bars/mask003.png,,,,,,,,,,,,2,1,,,,,,,4,6,4,8,,,,,,,,,,,804.6026,805.1013,805.3515,808.385,space,3.0187,,808.385,14,81,809.3849,809.3849,809.4002,,,,0,20,20,20,1,20,115,,,,,,,,
,,5f35ea51f0cfd606d35d01e5,65af5613eba6f5fa810a1699,2024-01-22_23h02.03.717,bars,2023.2.3,Win32,59.88023952,657b66ea316d21385b68909f,,,,,,,,,,,809.4005,810.4016,,,810.9017,811.1516,,179,-1,,,,,,,,,,,,,,,,bars/045.png,bars/mask007.png,,,,,,,,,,,,3,2,,,,,,,6,4,6,4,,,,,,,,,,,810.4016,810.9016,811.1516,815.302,space,4.1352,,815.3021,79,11,816.3015,816.3016,816.3154,,,,0,21,21,21,1,100,10,,,,,,,,
,,5f35ea51f0cfd606d35d01e5,65af5613eba6f5fa810a1699,2024-01-22_23h02.03.717,bars,2023.2.3,Win32,59.88023952,657b66ea316d21385b68909f,,,,,,,,,,,816.3157,817.3184,,,817.8184,818.0684,,66,246,,,,,,,,,,,,,,,,bars/027.png,bars/mask003.png,,,,,,,,,,,,1,2,,,,,,,8,2,8,2,,,,,,,,,,,817.3184,817.8184,818.0684,820.7353,space,2.6508,,820.7353,44,16,821.7352,821.7353,821.7483,,,,0,22,22,22,1,110,50,,,,,,,,
,,5f35ea51f0cfd606d35d01e5,65af5613eba6f5fa810a1699,2024-01-22_23h02.03.717,bars,2023.2.3,Win32,59.88023952,657b66ea316d21385b68909f,,,,,,,,,,,821.7485,822.7521,,,823.2519,823.5018,,156,156,,,,,,,,,,,,,,,,bars/044.png,bars/mask004.png,,,,,,,,,,,,6,2,,,,,,,6,4,6,6,,,,,,,,,,,822.7521,823.2518,823.5019,827.5688,space,4.0513,,827.5689,81,1,828.5685,828.5687,828.5813,,,,0,23,23,23,1,75,155,,,,,,,,
,,5f35ea51f0cfd606d35d01e5,65af5613eba6f5fa810a1699,2024-01-22_23h02.03.717,bars,2023.2.3,Win32,59.88023952,657b66ea316d21385b68909f,,,,,,,,,,,828.5816,829.5859,,,830.0856,830.3354,,110,110,,,,,,,,,,,,,,,,bars/009.png,bars/mask006.png,,,,,,,,,,,,1,2,,,,,,,4,2,3,1,,,,,,,,,,,829.5859,830.0855,830.3354,834.6192,space,4.2682,,834.6192,85,5,835.6188,835.6189,835.6317,,,,0,24,24,24,1,15,105,,,,,,,,
,,5f35ea51f0cfd606d35d01e5,65af5613eba6f5fa810a1699,2024-01-22_23h02.03.717,bars,2023.2.3,Win32,59.88023952,657b66ea316d21385b68909f,,,,,,,,,,,835.6319,836.6356,,,837.1356,837.3856,,49,49,,,,,,,,,,,,,,,,bars/033.png,bars/mask004.png,,,,,,,,,,,,0,1,,,,,,,2,4,2,2,,,,,,,,,,,836.6357,837.1356,837.3857,839.3192,space,1.9231,,839.3194,24,74,840.319,840.3191,840.3323,,,,0,25,25,25,1,25,155,,,,,,,,
,,5f35ea51f0cfd606d35d01e5,65af5613eba6f5fa810a1699,2024-01-22_23h02.03.717,bars,2023.2.3,Win32,59.88023952,657b66ea316d21385b68909f,,,,,,,,,,,840.3325,841.3357,,,841.8356,842.0857,,148,-32,,,,,,,,,,,,,,,,bars/046.png,bars/mask009.png,,,,,,,,,,,,3,1,,,,,,,4,6,4,6,,,,,,,,,,,841.3357,841.8356,842.0857,845.5861,space,3.4845,,845.5861,7,63,846.5858,846.5858,846.5989,,,,0,26,26,26,1,155,85,,,,,,,,
,,5f35ea51f0cfd606d35d01e5,65af5613eba6f5fa810a1699,2024-01-22_23h02.03.717,bars,2023.2.3,Win32,59.88023952,657b66ea316d21385b68909f,,,,,,,,,,,846.5992,847.6029,,,848.1031,848.3426,,147,147,,,,,,,,,,,,,,,,bars/007.png,bars/mask006.png,,,,,,,,,,,,0,1,,,,,,,2,4,1,1,,,,,,,,,,,847.6031,848.1029,848.3426,851.0863,space,2.7227,,851.0864,28,88,852.0863,852.0863,852.0997,,,,0,27,27,27,1,175,55,,,,,,,,
,,5f35ea51f0cfd606d35d01e5,65af5613eba6f5fa810a1699,2024-01-22_23h02.03.717,bars,2023.2.3,Win32,59.88023952,657b66ea316d21385b68909f,,,,,,,,,,,852.0999,853.1028,,,853.6052,853.8531,,65,65,,,,,,,,,,,,,,,,bars/026.png,bars/mask002.png,,,,,,,,,,,,1,2,,,,,,,4,2,5,3,,,,,,,,,,,853.1029,853.6051,853.8532,856.1608,space,2.2856,,856.1608,30,20,857.153,857.1531,857.1564,,,,0,28,28,28,1,35,85,,,,,,,,
,,5f35ea51f0cfd606d35d01e5,65af5613eba6f5fa810a1699,2024-01-22_23h02.03.717,bars,2023.2.3,Win32,59.88023952,657b66ea316d21385b68909f,,,,,,,,,,,857.1567,858.1529,,,858.653,858.9029,,159,159,,,,,,,,,,,,,,,,bars/035.png,bars/mask008.png,,,,,,,,,,,,1,1,,,,,,,2,0,3,0,,,,,,,,,,,858.1529,858.653,858.9029,860.9093,space,1.9833,,860.9093,16,81,861.9029,861.903,861.9167,,,,0,29,29,29,1,175,60,,,,,,,,
,,5f35ea51f0cfd606d35d01e5,65af5613eba6f5fa810a1699,2024-01-22_23h02.03.717,bars,2023.2.3,Win32,59.88023952,657b66ea316d21385b68909f,,,,,,,,,,,861.917,862.92,,,863.4199,863.6596,,65,65,,,,,,,,,,,,,,,,bars/001.png,bars/mask002.png,,,,,,,,,,,,0,2,,,,,,,0,0,2,0,,,,,,,,,,,862.92,863.4198,863.6597,865.8109,space,2.134,,865.811,65,20,866.8031,866.8031,866.8179,,,,0,30,30,30,1,130,85,,,,,,,,
,,5f35ea51f0cfd606d35d01e5,65af5613eba6f5fa810a1699,2024-01-22_23h02.03.717,bars,2023.2.3,Win32,59.88023952,657b66ea316d21385b68909f,,,,,,,,,,,866.8182,867.8198,,,868.3199,868.5698,,84,264,,,,,,,,,,,,,,,,bars/023.png,bars/mask007.png,,,,,,,,,,,,0,2,,,,,,,2,0,1,0,,,,,,,,,,,867.8199,868.3199,868.5698,872.52,space,3.9342,,872.52,64,31,873.5198,873.5198,873.5334,,,,0,31,31,31,1,20,115,,,,,,,,
,,5f35ea51f0cfd606d35d01e5,65af5613eba6f5fa810a1699,2024-01-22_23h02.03.717,bars,2023.2.3,Win32,59.88023952,657b66ea316d21385b68909f,,,,,,,,,,,873.5336,874.5367,,,875.0367,875.2867,,172,172,,,,,,,,,,,,,,,,bars/033.png,bars/mask005.png,,,,,,,,,,,,0,2,,,,,,,0,0,0,0,,,,,,,,,,,874.5367,875.0366,875.2867,878.9207,space,3.6224,,878.9209,33,17,879.92,879.9201,879.9328,,,,0,32,32,32,1,25,155,,,,,,,,
,,5f35ea51f0cfd606d35d01e5,65af5613eba6f5fa810a1699,2024-01-22_23h02.03.717,bars,2023.2.3,Win32,59.88023952,657b66ea316d21385b68909f,,,,,,,,,,,879.933,880.9368,,,881.4368,881.6867,,9,9,,,,,,,,,,,,,,,,bars/009.png,bars/mask001.png,,,,,,,,,,,,0,1,,,,,,,0,2,0,2,,,,,,,,,,,880.9368,881.4367,881.6868,882.487,space,0.7849,,882.4871,6,84,883.4868,883.4869,883.4896,,,,0,33,33,33,1,15,105,,,,,,,,
,,5f35ea51f0cfd606d35d01e5,65af5613eba6f5fa810a1699,2024-01-22_23h02.03.717,bars,2023.2.3,Win32,59.88023952,657b66ea316d21385b68909f,,,,,,,,,,,883.4899,884.4873,,,884.987,885.2369,,91,-89,,,,,,,,,,,,,,,,bars/006.png,bars/mask002.png,,,,,,,,,,,,1,2,,,,,,,2,0,2,1,,,,,,,,,,,884.4873,884.987,885.237,888.6375,space,3.3862,,888.6375,56,9,889.6368,889.6369,889.6499,,,,0,34,34,34,1,35,100,,,,,,,,
,,5f35ea51f0cfd606d35d01e5,65af5613eba6f5fa810a1699,2024-01-22_23h02.03.717,bars,2023.2.3,Win32,59.88023952,657b66ea316d21385b68909f,,,,,,,,,,,889.6501,890.6539,,,891.1538,891.4038,,164,164,,,,,,,,,,,,,,,,bars/049.png,bars/mask004.png,,,,,,,,,,,,0,1,,,,,,,0,2,0,1,,,,,,,,,,,890.654,891.1538,891.4038,894.9711,space,3.5504,,894.9712,4,49,895.9704,895.9704,895.9834,,,,0,35,35,35,1,160,115,,,,,,,,
,,5f35ea51f0cfd606d35d01e5,65af5613eba6f5fa810a1699,2024-01-22_23h02.03.717,bars,2023.2.3,Win32,59.88023952,657b66ea316d21385b68909f,,,,,,,,,,,895.9837,896.9873,,,897.4873,897.7372,,103,103,,,,,,,,,,,,,,,,bars/049.png,bars/mask001.png,,,,,,,,,,,,0,2,,,,,,,2,0,3,0,,,,,,,,,,,896.9873,897.4871,897.7372,898.804,space,1.0509,,898.8041,57,12,899.804,899.804,899.817,,,,0,36,36,36,1,160,115,,,,,,,,
,,5f35ea51f0cfd606d35d01e5,65af5613eba6f5fa810a1699,2024-01-22_23h02.03.717,bars,2023.2.3,Win32,59.88023952,657b66ea316d21385b68909f,,,,,,,,,,,899.8173,900.8207,,,901.3206,901.5706,,155,155,,,,,,,,,,,,,,,,bars/030.png,bars/mask006.png,,,,,,,,,,,,3,1,,,,,,,4,2,5,1,,,,,,,,,,,900.8207,901.3206,901.5707,904.6549,space,3.0679,,904.655,15,90,905.654,905.654,905.6673,,,,0,37,37,37,1,140,65,,,,,,,,
,,5f35ea51f0cfd606d35d01e5,65af5613eba6f5fa810a1699,2024-01-22_23h02.03.717,bars,2023.2.3,Win32,59.88023952,657b66ea316d21385b68909f,,,,,,,,,,,905.6675,906.6711,,,907.1709,907.4209,,19,199,,,,,,,,,,,,,,,,bars/022.png,bars/mask000.png,,,,,,,,,,,,5,2,,,,,,,2,4,2,5,,,,,,,,,,,906.6712,907.1709,907.4209,910.7712,space,3.3353,,910.7713,76,1,911.7709,911.771,911.785,,,,0,38,38,38,1,95,20,,,,,,,,
,,5f35ea51f0cfd606d35d01e5,65af5613eba6f5fa810a1699,2024-01-22_23h02.03.717,bars,2023.2.3,Win32,59.88023952,657b66ea316d21385b68909f,,,,,,,,,,,911.7853,912.7877,,,913.2877,913.5377,,160,160,,,,,,,,,,,,,,,,bars/023.png,bars/mask006.png,,,,,,,,,,,,0,1,,,,,,,4,6,3,6,,,,,,,,,,,912.7879,913.2877,913.5378,915.0044,space,1.4586,,915.0045,40,45,916.0045,916.0045,916.0198,,,,0,39,39,39,1,20,115,,,,,,,,
,,5f35ea51f0cfd606d35d01e5,65af5613eba6f5fa810a1699,2024-01-22_23h02.03.717,bars,2023.2.3,Win32,59.88023952,657b66ea316d21385b68909f,,,,,,,,,,,916.02,917.0211,,,917.5211,917.7711,,56,56,,,,,,,,,,,,,,,,bars/047.png,bars/mask002.png,,,,,,,,,,,,2,2,,,,,,,2,4,1,3,,,,,,,,,,,917.0211,917.5211,917.7712,920.9881,space,3.2077,,920.9882,41,14,921.988,921.988,922.0014,,,,0,40,40,40,1,15,70,,,,,,,,
,,5f35ea51f0cfd606d35d01e5,65af5613eba6f5fa810a1699,2024-01-22_23h02.03.717,bars,2023.2.3,Win32,59.88023952,657b66ea316d21385b68909f,,,,,,,,,,,922.0017,923.0046,,,923.5047,923.7547,,33,33,,,,,,,,,,,,,,,,bars/007.png,bars/mask008.png,,,,,,,,,,,,1,2,,,,,,,4,2,3,2,,,,,,,,,,,923.0047,923.5047,923.7548,926.5048,space,2.735,,926.5049,38,22,927.5048,927.5049,927.5171,,,,0,41,41,41,1,175,55,,,,,,,,
,,5f35ea51f0cfd606d35d01e5,65af5613eba6f5fa810a1699,2024-01-22_23h02.03.717,bars,2023.2.3,Win32,59.88023952,657b66ea316d21385b68909f,,,,,,,,,,,927.5173,928.5214,,,929.0214,929.2714,,57,57,,,,,,,,,,,,,,,,bars/029.png,bars/mask009.png,,,,,,,,,,,,1,2,,,,,,,6,0,7,1,,,,,,,,,,,928.5214,929.0214,929.2714,931.1215,space,1.8344,,931.1216,33,12,932.1214,932.1215,932.1336,,,,0,42,42,42,1,90,45,,,,,,,,
,,5f35ea51f0cfd606d35d01e5,65af5613eba6f5fa810a1699,2024-01-22_23h02.03.717,bars,2023.2.3,Win32,59.88023952,657b66ea316d21385b68909f,,,,,,,,,,,932.1339,933.1218,,,933.6219,933.8716,,4,4,,,,,,,,,,,,,,,,bars/012.png,bars/mask003.png,,,,,,,,,,,,0,2,,,,,,,4,0,6,0,,,,,,,,,,,933.1219,933.6218,933.8717,935.855,space,1.9676,,935.855,86,11,936.8551,936.8551,936.8684,,,,0,43,43,43,1,90,15,,,,,,,,
,,5f35ea51f0cfd606d35d01e5,65af5613eba6f5fa810a1699,2024-01-22_23h02.03.717,bars,2023.2.3,Win32,59.88023952,657b66ea316d21385b68909f,,,,,,,,,,,936.8687,937.8718,,,938.3718,938.6218,,89,269,,,,,,,,,,,,,,,,bars/018.png,bars/mask003.png,,,,,,,,,,,,0,2,,,,,,,2,0,2,0,,,,,,,,,,,937.8718,938.3717,938.6219,942.8053,space,4.1681,,942.8053,61,1,943.8053,943.8053,943.8234,,,,0,44,44,44,1,150,90,,,,,,,,
,,5f35ea51f0cfd606d35d01e5,65af5613eba6f5fa810a1699,2024-01-22_23h02.03.717,bars,2023.2.3,Win32,59.88023952,657b66ea316d21385b68909f,,,,,,,,,,,943.8242,944.8219,,,945.3219,945.5718,,159,-21,,,,,,,,,,,,,,,,bars/013.png,bars/mask001.png,,,,,,,,,,,,0,2,,,,,,,0,0,0,2,,,,,,,,,,,944.822,945.3218,945.5718,947.639,space,2.0512,,947.6391,84,31,948.6387,948.6388,948.6514,,,,0,45,45,45,1,75,10,,,,,,,,
,,5f35ea51f0cfd606d35d01e5,65af5613eba6f5fa810a1699,2024-01-22_23h02.03.717,bars,2023.2.3,Win32,59.88023952,657b66ea316d21385b68909f,,,,,,,,,,,948.6516,949.6555,,,950.1554,950.4054,,8,8,,,,,,,,,,,,,,,,bars/047.png,bars/mask008.png,,,,,,,,,,,,2,1,,,,,,,2,2,2,1,,,,,,,,,,,949.6555,950.1554,950.4055,953.8225,space,3.4084,,953.8227,7,62,954.8221,954.8222,954.8356,,,,0,46,46,46,1,15,70,,,,,,,,
,,5f35ea51f0cfd606d35d01e5,65af5613eba6f5fa810a1699,2024-01-22_23h02.03.717,bars,2023.2.3,Win32,59.88023952,657b66ea316d21385b68909f,,,,,,,,,,,954.8358,955.8389,,,956.3389,956.5891,,6,6,,,,,,,,,,,,,,,,bars/031.png,bars/mask005.png,,,,,,,,,,,,0,2,,,,,,,4,0,5,1,,,,,,,,,,,955.839,956.3388,956.5891,958.7724,space,2.1738,,958.7725,66,29,959.7725,959.7726,959.7867,,,,0,47,47,47,1,120,35,,,,,,,,
,,5f35ea51f0cfd606d35d01e5,65af5613eba6f5fa810a1699,2024-01-22_23h02.03.717,bars,2023.2.3,Win32,59.88023952,657b66ea316d21385b68909f,,,,,,,,,,,959.787,960.7892,,,961.2891,961.5391,,65,65,,,,,,,,,,,,,,,,bars/022.png,bars/mask006.png,,,,,,,,,,,,0,1,,,,,,,6,2,7,3,,,,,,,,,,,960.7893,961.2891,961.5391,964.2559,space,2.7036,,964.256,30,45,965.2559,965.2559,965.2692,,,,0,48,48,48,1,95,20,,,,,,,,
,,5f35ea51f0cfd606d35d01e5,65af5613eba6f5fa810a1699,2024-01-22_23h02.03.717,bars,2023.2.3,Win32,59.88023952,657b66ea316d21385b68909f,,,,,,,,,,,965.2695,966.2725,,,966.7733,967.0228,,45,45,,,,,,,,,,,,,,,,bars/025.png,bars/mask003.png,,,,,,,,,,,,3,2,,,,,,,4,4,3,4,,,,,,,,,,,966.2726,966.7732,967.0229,971.4727,space,4.4334,,971.4727,60,5,972.4726,972.4726,972.4861,,,,0,49,49,49,1,105,40,,,,,,,,
,,5f35ea51f0cfd606d35d01e5,65af5613eba6f5fa810a1699,2024-01-22_23h02.03.717,bars,2023.2.3,Win32,59.88023952,657b66ea316d21385b68909f,,,,,,,,,,,,,,,,,,,,,,,,,,,,,,,,,,,,,,,,,,,,,,,,,,,,,,,,,,,,,,,,,,,,,,,,,,,,,,,,,,,,,,,,,,,,,972.4863,1032.4745,0,1,1,0,1,sequence_tables/blk023.csv
,,5f35ea51f0cfd606d35d01e5,65af5613eba6f5fa810a1699,2024-01-22_23h02.03.717,bars,2023.2.3,Win32,59.88023952,657b66ea316d21385b68909f,,,,,,,,,,,1043.2635,1044.2579,,,1044.7579,1045.0083,,126,126,,,,,,,,,,,,,,,,bars/024.png,bars/mask003.png,,,,,,,,,,,,2,1,,,,,,,1,3,2,3,,,,,,1032.4888,1043.2416,space,10.7354,,1044.2579,1044.7579,1045.0084,1050.0917,space,5.0672,,1050.0918,6,44,1051.0916,1051.0916,1051.1055,,,,0,0,0,0,1,120,170,,,,,,,,
,,5f35ea51f0cfd606d35d01e5,65af5613eba6f5fa810a1699,2024-01-22_23h02.03.717,bars,2023.2.3,Win32,59.88023952,657b66ea316d21385b68909f,,,,,,,,,,,1051.1058,1052.1082,,,1052.6083,1052.8581,,164,-16,,,,,,,,,,,,,,,,bars/047.png,bars/mask000.png,,,,,,,,,,,,0,1,,,,,,,3,5,4,6,,,,,,,,,,,1052.1083,1052.6082,1052.8583,1058.642,space,5.7762,,1058.6421,31,86,1059.6418,1059.642,1059.6562,,,,0,1,1,1,1,15,70,,,,,,,,
,,5f35ea51f0cfd606d35d01e5,65af5613eba6f5fa810a1699,2024-01-22_23h02.03.717,bars,2023.2.3,Win32,59.88023952,657b66ea316d21385b68909f,,,,,,,,,,,1059.6565,1060.6587,,,1061.1596,1061.4086,,154,154,,,,,,,,,,,,,,,,bars/046.png,bars/mask000.png,,,,,,,,,,,,2,1,,,,,,,1,3,2,3,,,,,,,,,,,1060.6588,1061.1594,1061.4087,1064.1165,space,2.6853,,1064.1165,1,69,1065.1085,1065.1087,1065.1221,,,,0,2,2,2,1,155,85,,,,,,,,
,,5f35ea51f0cfd606d35d01e5,65af5613eba6f5fa810a1699,2024-01-22_23h02.03.717,bars,2023.2.3,Win32,59.88023952,657b66ea316d21385b68909f,,,,,,,,,,,1065.1223,1066.1253,,,1066.6257,1066.8656,,117,117,,,,,,,,,,,,,,,,bars/032.png,bars/mask001.png,,,,,,,,,,,,1,1,,,,,,,0,1,1,1,,,,,,,,,,,1066.1254,1066.6255,1066.8656,1069.3427,space,2.4512,,1069.3429,8,83,1070.3425,1070.3426,1070.356,,,,0,3,3,3,1,125,20,,,,,,,,
,,5f35ea51f0cfd606d35d01e5,65af5613eba6f5fa810a1699,2024-01-22_23h02.03.717,bars,2023.2.3,Win32,59.88023952,657b66ea316d21385b68909f,,,,,,,,,,,1070.3563,1071.3589,,,1071.8592,1072.1088,,145,145,,,,,,,,,,,,,,,,bars/007.png,bars/mask002.png,,,,,,,,,,,,0,1,,,,,,,2,3,1,3,,,,,,,,,,,1071.359,1071.859,1072.1088,1074.0823,space,1.9498,,1074.0823,30,90,1075.0759,1075.0759,1075.0776,,,,0,4,4,4,1,175,55,,,,,,,,
,,5f35ea51f0cfd606d35d01e5,65af5613eba6f5fa810a1699,2024-01-22_23h02.03.717,bars,2023.2.3,Win32,59.88023952,657b66ea316d21385b68909f,,,,,,,,,,,1075.078,1076.0833,,,1076.5758,1076.8161,,78,78,,,,,,,,,,,,,,,,bars/001.png,bars/mask001.png,,,,,,,,,,,,1,2,,,,,,,4,1,3,1,,,,,,,,,,,1076.0833,1076.5757,1076.8162,1080.5169,space,3.6846,,1080.5169,52,7,1081.5092,1081.5094,1081.5235,,,,0,5,5,5,1,130,85,,,,,,,,
,,5f35ea51f0cfd606d35d01e5,65af5613eba6f5fa810a1699,2024-01-22_23h02.03.717,bars,2023.2.3,Win32,59.88023952,657b66ea316d21385b68909f,,,,,,,,,,,1081.5238,1082.5261,,,1083.0262,1083.2825,,63,63,,,,,,,,,,,,,,,,bars/038.png,bars/mask004.png,,,,,,,,,,,,2,2,,,,,,,6,3,5,2,,,,,,,,,,,1082.5261,1083.0261,1083.2826,1086.2505,space,2.9511,,1086.2505,78,7,1087.2425,1087.2426,1087.256,,,,0,6,6,6,1,165,70,,,,,,,,
,,5f35ea51f0cfd606d35d01e5,65af5613eba6f5fa810a1699,2024-01-22_23h02.03.717,bars,2023.2.3,Win32,59.88023952,657b66ea316d21385b68909f,,,,,,,,,,,1087.2566,1088.2593,,,1088.7592,1089.0093,,164,-16,,,,,,,,,,,,,,,,bars/048.png,bars/mask007.png,,,,,,,,,,,,3,2,,,,,,,4,5,5,4,,,,,,,,,,,1088.2595,1088.7591,1089.0094,1092.4596,space,3.4365,,1092.4597,66,11,1093.4593,1093.4593,1093.4717,,,,0,7,7,7,1,50,175,,,,,,,,
,,5f35ea51f0cfd606d35d01e5,65af5613eba6f5fa810a1699,2024-01-22_23h02.03.717,bars,2023.2.3,Win32,59.88023952,657b66ea316d21385b68909f,,,,,,,,,,,1093.472,1094.4759,,,1094.9761,1095.226,,33,33,,,,,,,,,,,,,,,,bars/031.png,bars/mask004.png,,,,,,,,,,,,7,2,,,,,,,6,7,7,8,,,,,,,,,,,1094.476,1094.9761,1095.2262,1097.3263,space,2.0843,,1097.3264,87,2,1098.326,1098.3261,1098.3388,,,,0,8,8,8,1,120,35,,,,,,,,
,,5f35ea51f0cfd606d35d01e5,65af5613eba6f5fa810a1699,2024-01-22_23h02.03.717,bars,2023.2.3,Win32,59.88023952,657b66ea316d21385b68909f,,,,,,,,,,,1098.3391,1099.3429,,,1099.8429,1100.0928,,83,83,,,,,,,,,,,,,,,,bars/026.png,bars/mask003.png,,,,,,,,,,,,7,2,,,,,,,4,9,5,8,,,,,,,,,,,1099.3431,1099.8429,1100.0929,1102.093,space,1.9836,,1102.0931,48,2,1103.0928,1103.0929,1103.094,,,,0,9,9,9,1,35,85,,,,,,,,
,,5f35ea51f0cfd606d35d01e5,65af5613eba6f5fa810a1699,2024-01-22_23h02.03.717,bars,2023.2.3,Win32,59.88023952,657b66ea316d21385b68909f,,,,,,,,,,,1103.0944,1104.0929,,,1104.5931,1104.8429,,57,57,,,,,,,,,,,,,,,,bars/042.png,bars/mask006.png,,,,,,,,,,,,4,2,,,,,,,6,10,6,10,,,,,,,,,,,1104.093,1104.593,1104.843,1107.8934,space,3.0344,,1107.8934,88,18,1108.893,1108.8931,1108.9054,,,,0,10,10,10,1,145,75,,,,,,,,
,,5f35ea51f0cfd606d35d01e5,65af5613eba6f5fa810a1699,2024-01-22_23h02.03.717,bars,2023.2.3,Win32,59.88023952,657b66ea316d21385b68909f,,,,,,,,,,,1108.9057,1109.9099,,,1110.4098,1110.6597,,160,-20,,,,,,,,,,,,,,,,bars/040.png,bars/mask007.png,,,,,,,,,,,,3,1,,,,,,,8,8,9,9,,,,,,,,,,,1109.9101,1110.4097,1110.6598,1113.1434,space,2.4705,,1113.1435,20,25,1114.1431,1114.1431,1114.1568,,,,0,11,11,11,1,140,5,,,,,,,,
,,5f35ea51f0cfd606d35d01e5,65af5613eba6f5fa810a1699,2024-01-22_23h02.03.717,bars,2023.2.3,Win32,59.88023952,657b66ea316d21385b68909f,,,,,,,,,,,1114.1572,1115.1598,,,1115.6599,1115.9099,,47,227,,,,,,,,,,,,,,,,bars/029.png,bars/mask004.png,,,,,,,,,,,,7,2,,,,,,,6,6,5,8,,,,,,,,,,,1115.1599,1115.6599,1115.9099,1119.427,space,3.5013,,1119.4271,43,2,1120.4267,1120.4268,1120.4398,,,,0,12,12,12,1,90,45,,,,,,,,
,,5f35ea51f0cfd606d35d01e5,65af5613eba6f5fa810a1699,2024-01-22_23h02.03.717,bars,2023.2.3,Win32,59.88023952,657b66ea316d21385b68909f,,,,,,,,,,,1120.4401,1121.4433,,,1121.9434,1122.1935,,172,-8,,,,,,,,,,,,,,,,bars/045.png,bars/mask001.png,,,,,,,,,,,,2,2,,,,,,,4,4,4,5,,,,,,,,,,,1121.4434,1121.9434,1122.1935,1125.744,space,3.5375,,1125.744,72,18,1126.7435,1126.7435,1126.7562,,,,0,13,13,13,1,100,10,,,,,,,,
,,5f35ea51f0cfd606d35d01e5,65af5613eba6f5fa810a1699,2024-01-22_23h02.03.717,bars,2023.2.3,Win32,59.88023952,657b66ea316d21385b68909f,,,,,,,,,,,1126.7566,1127.7604,,,1128.2608,1128.5105,,32,212,,,,,,,,,,,,,,,,bars/028.png,bars/mask008.png,,,,,,,,,,,,3,1,,,,,,,6,6,6,7,,,,,,,,,,,1127.7604,1128.2605,1128.5105,1133.1773,space,4.6549,,1133.1774,13,88,1134.177,1134.1771,1134.1909,,,,0,14,14,14,1,45,120,,,,,,,,
,,5f35ea51f0cfd606d35d01e5,65af5613eba6f5fa810a1699,2024-01-22_23h02.03.717,bars,2023.2.3,Win32,59.88023952,657b66ea316d21385b68909f,,,,,,,,,,,1134.1912,1135.1937,,,1135.694,1135.9438,,11,11,,,,,,,,,,,,,,,,bars/047.png,bars/mask008.png,,,,,,,,,,,,7,1,,,,,,,8,4,8,3,,,,,,,,,,,1135.1938,1135.6939,1135.9438,1139.0941,space,3.134,,1139.0942,4,59,1140.0939,1140.094,1140.1061,,,,0,15,15,15,1,15,70,,,,,,,,
,,5f35ea51f0cfd606d35d01e5,65af5613eba6f5fa810a1699,2024-01-22_23h02.03.717,bars,2023.2.3,Win32,59.88023952,657b66ea316d21385b68909f,,,,,,,,,,,1140.1063,1141.111,,,1141.6107,1141.8606,,161,-19,,,,,,,,,,,,,,,,bars/010.png,bars/mask006.png,,,,,,,,,,,,9,1,,,,,,,10,6,10,4,,,,,,,,,,,1141.111,1141.6107,1141.8606,1145.0294,space,3.1611,,1145.0295,4,74,1146.0275,1146.0275,1146.0449,,,,0,16,16,16,1,165,55,,,,,,,,
,,5f35ea51f0cfd606d35d01e5,65af5613eba6f5fa810a1699,2024-01-22_23h02.03.717,bars,2023.2.3,Win32,59.88023952,657b66ea316d21385b68909f,,,,,,,,,,,1146.0456,1147.0443,,,1147.5443,1147.794,,85,85,,,,,,,,,,,,,,,,bars/027.png,bars/mask004.png,,,,,,,,,,,,2,1,,,,,,,10,4,10,5,,,,,,,,,,,1147.0443,1147.5442,1147.7941,1150.7278,space,2.9183,,1150.7279,25,35,1151.7277,1151.7277,1151.7409,,,,0,17,17,17,1,110,50,,,,,,,,
,,5f35ea51f0cfd606d35d01e5,65af5613eba6f5fa810a1699,2024-01-22_23h02.03.717,bars,2023.2.3,Win32,59.88023952,657b66ea316d21385b68909f,,,,,,,,,,,1151.7412,1152.7442,,,1153.2443,1153.4943,,79,79,,,,,,,,,,,,,,,,bars/002.png,bars/mask008.png,,,,,,,,,,,,6,2,,,,,,,10,6,9,8,,,,,,,,,,,1152.7443,1153.2442,1153.4944,1154.9112,space,1.4034,,1154.9112,51,6,1155.911,1155.9111,1155.9241,,,,0,18,18,18,1,130,85,,,,,,,,
,,5f35ea51f0cfd606d35d01e5,65af5613eba6f5fa810a1699,2024-01-22_23h02.03.717,bars,2023.2.3,Win32,59.88023952,657b66ea316d21385b68909f,,,,,,,,,,,1155.9243,1156.9278,,,1157.4278,1157.678,,97,97,,,,,,,,,,,,,,,,bars/006.png,bars/mask009.png,,,,,,,,,,,,7,2,,,,,,,10,8,10,8,,,,,,,,,,,1156.9279,1157.4278,1157.6781,1158.4948,space,0.8042,,1158.4948,62,3,1159.4945,1159.4946,1159.4967,,,,0,19,19,19,1,35,100,,,,,,,,
,,5f35ea51f0cfd606d35d01e5,65af5613eba6f5fa810a1699,2024-01-22_23h02.03.717,bars,2023.2.3,Win32,59.88023952,657b66ea316d21385b68909f,,,,,,,,,,,1159.4972,1160.4945,,,1160.9946,1161.2446,,19,19,,,,,,,,,,,,,,,,bars/022.png,bars/mask004.png,,,,,,,,,,,,6,2,,,,,,,10,6,10,6,,,,,,,,,,,1160.4945,1160.9945,1161.2446,1166.8117,space,5.5522,,1166.8117,76,1,1167.8114,1167.8114,1167.824,,,,0,20,20,20,1,95,20,,,,,,,,
,,5f35ea51f0cfd606d35d01e5,65af5613eba6f5fa810a1699,2024-01-22_23h02.03.717,bars,2023.2.3,Win32,59.88023952,657b66ea316d21385b68909f,,,,,,,,,,,1167.8242,1168.828,,,1169.3282,1169.5782,,166,-14,,,,,,,,,,,,,,,,bars/014.png,bars/mask004.png,,,,,,,,,,,,4,2,,,,,,,8,4,7,7,,,,,,,,,,,1168.8281,1169.3281,1169.5783,1171.4116,space,1.8214,,1171.4118,86,14,1172.4115,1172.4115,1172.4242,,,,0,21,21,21,1,80,0,,,,,,,,
,,5f35ea51f0cfd606d35d01e5,65af5613eba6f5fa810a1699,2024-01-22_23h02.03.717,bars,2023.2.3,Win32,59.88023952,657b66ea316d21385b68909f,,,,,,,,,,,1172.4246,1173.4282,,,1173.9283,1174.1783,,73,73,,,,,,,,,,,,,,,,bars/021.png,bars/mask001.png,,,,,,,,,,,,2,2,,,,,,,10,2,10,2,,,,,,,,,,,1173.4283,1173.9283,1174.1783,1176.1452,space,1.9512,,1176.1453,82,3,1177.1449,1177.145,1177.1461,,,,0,22,22,22,1,155,70,,,,,,,,
,,5f35ea51f0cfd606d35d01e5,65af5613eba6f5fa810a1699,2024-01-22_23h02.03.717,bars,2023.2.3,Win32,59.88023952,657b66ea316d21385b68909f,,,,,,,,,,,1177.1465,1178.1449,,,1178.645,1178.8951,,155,-25,,,,,,,,,,,,,,,,bars/039.png,bars/mask000.png,,,,,,,,,,,,3,1,,,,,,,10,0,9,0,,,,,,,,,,,1178.145,1178.645,1178.8952,1180.962,space,2.0583,,1180.9621,20,50,1181.9618,1181.9618,1181.9756,,,,0,23,23,23,1,175,105,,,,,,,,
,,5f35ea51f0cfd606d35d01e5,65af5613eba6f5fa810a1699,2024-01-22_23h02.03.717,bars,2023.2.3,Win32,59.88023952,657b66ea316d21385b68909f,,,,,,,,,,,1181.9758,1182.9786,,,1183.4784,1183.7284,,50,230,,,,,,,,,,,,,,,,bars/019.png,bars/mask009.png,,,,,,,,,,,,7,1,,,,,,,8,2,8,2,,,,,,,,,,,1182.9786,1183.4784,1183.7284,1186.8454,space,3.1091,,1186.8455,5,55,1187.8453,1187.8454,1187.8581,,,,0,24,24,24,1,45,105,,,,,,,,
,,5f35ea51f0cfd606d35d01e5,65af5613eba6f5fa810a1699,2024-01-22_23h02.03.717,bars,2023.2.3,Win32,59.88023952,657b66ea316d21385b68909f,,,,,,,,,,,1187.8584,1188.8621,,,1189.362,1189.6119,,43,43,,,,,,,,,,,,,,,,bars/019.png,bars/mask007.png,,,,,,,,,,,,9,1,,,,,,,10,4,10,3,,,,,,,,,,,1188.8622,1189.3619,1189.612,1192.2622,space,2.6423,,1192.2622,2,62,1193.2621,1193.2621,1193.2748,,,,0,25,25,25,1,45,105,,,,,,,,
,,5f35ea51f0cfd606d35d01e5,65af5613eba6f5fa810a1699,2024-01-22_23h02.03.717,bars,2023.2.3,Win32,59.88023952,657b66ea316d21385b68909f,,,,,,,,,,,1193.2751,1194.2787,,,1194.7789,1195.0288,,161,-19,,,,,,,,,,,,,,,,bars/018.png,bars/mask000.png,,,,,,,,,,,,5,1,,,,,,,8,6,8,6,,,,,,,,,,,1194.2788,1194.7789,1195.0289,1197.5457,space,2.5086,,1197.5458,11,71,1198.5455,1198.5455,1198.558,,,,0,26,26,26,1,150,90,,,,,,,,
,,5f35ea51f0cfd606d35d01e5,65af5613eba6f5fa810a1699,2024-01-22_23h02.03.717,bars,2023.2.3,Win32,59.88023952,657b66ea316d21385b68909f,,,,,,,,,,,1198.5583,1199.5624,,,1200.0623,1200.3123,,149,-31,,,,,,,,,,,,,,,,bars/030.png,bars/mask000.png,,,,,,,,,,,,5,1,,,,,,,6,4,7,4,,,,,,,,,,,1199.5624,1200.0622,1200.3123,1203.43,space,3.1059,,1203.4301,9,84,1204.429,1204.4291,1204.4445,,,,0,27,27,27,1,140,65,,,,,,,,
,,5f35ea51f0cfd606d35d01e5,65af5613eba6f5fa810a1699,2024-01-22_23h02.03.717,bars,2023.2.3,Win32,59.88023952,657b66ea316d21385b68909f,,,,,,,,,,,1204.4449,1205.4458,,,1205.9459,1206.1958,,107,107,,,,,,,,,,,,,,,,bars/015.png,bars/mask000.png,,,,,,,,,,,,6,1,,,,,,,8,6,7,7,,,,,,,,,,,1205.4458,1205.9458,1206.1958,1208.9293,space,2.7177,,1208.9293,3,53,1209.9292,1209.9292,1209.9413,,,,0,28,28,28,1,110,160,,,,,,,,
,,5f35ea51f0cfd606d35d01e5,65af5613eba6f5fa810a1699,2024-01-22_23h02.03.717,bars,2023.2.3,Win32,59.88023952,657b66ea316d21385b68909f,,,,,,,,,,,1209.9416,1210.9461,,,1211.446,1211.6961,,150,150,,,,,,,,,,,,,,,,bars/017.png,bars/mask008.png,,,,,,,,,,,,8,1,,,,,,,10,4,9,5,,,,,,,,,,,1210.9461,1211.446,1211.6961,1213.8629,space,2.1555,,1213.863,5,75,1214.8628,1214.8629,1214.8755,,,,0,29,29,29,1,145,45,,,,,,,,
,,5f35ea51f0cfd606d35d01e5,65af5613eba6f5fa810a1699,2024-01-22_23h02.03.717,bars,2023.2.3,Win32,59.88023952,657b66ea316d21385b68909f,,,,,,,,,,,1214.8756,1215.8795,,,1216.3794,1216.6294,,11,11,,,,,,,,,,,,,,,,bars/005.png,bars/mask001.png,,,,,,,,,,,,8,1,,,,,,,8,2,8,0,,,,,,,,,,,1215.8795,1216.3794,1216.6295,1218.263,space,1.617,,1218.2631,1,51,1219.2628,1219.2629,1219.264,,,,0,30,30,30,1,10,140,,,,,,,,
,,5f35ea51f0cfd606d35d01e5,65af5613eba6f5fa810a1699,2024-01-22_23h02.03.717,bars,2023.2.3,Win32,59.88023952,657b66ea316d21385b68909f,,,,,,,,,,,1219.2644,1220.2628,,,1220.7629,1221.0129,,137,-43,,,,,,,,,,,,,,,,bars/034.png,bars/mask004.png,,,,,,,,,,,,6,1,,,,,,,10,4,10,4,,,,,,,,,,,1220.2629,1220.7628,1221.013,1223.8965,space,2.8698,,1223.8965,12,72,1224.8963,1224.8964,1224.916,,,,0,31,31,31,1,125,65,,,,,,,,
,,5f35ea51f0cfd606d35d01e5,65af5613eba6f5fa810a1699,2024-01-22_23h02.03.717,bars,2023.2.3,Win32,59.88023952,657b66ea316d21385b68909f,,,,,,,,,,,1224.9163,1225.9132,,,1226.413,1226.6631,,30,210,,,,,,,,,,,,,,,,bars/003.png,bars/mask002.png,,,,,,,,,,,,6,1,,,,,,,8,2,7,2,,,,,,,,,,,1225.9132,1226.413,1226.6632,1229.6133,space,2.9367,,1229.6134,5,70,1230.6132,1230.6133,1230.6268,,,,0,32,32,32,1,25,140,,,,,,,,
,,5f35ea51f0cfd606d35d01e5,65af5613eba6f5fa810a1699,2024-01-22_23h02.03.717,bars,2023.2.3,Win32,59.88023952,657b66ea316d21385b68909f,,,,,,,,,,,1230.6272,1231.6298,,,1232.13,1232.3802,,158,158,,,,,,,,,,,,,,,,bars/030.png,bars/mask005.png,,,,,,,,,,,,4,1,,,,,,,10,0,10,1,,,,,,,,,,,1231.6298,1232.1299,1232.3802,1234.6134,space,2.2171,,1234.6136,18,87,1235.6132,1235.6134,1235.6143,,,,0,33,33,33,1,140,65,,,,,,,,
,,5f35ea51f0cfd606d35d01e5,65af5613eba6f5fa810a1699,2024-01-22_23h02.03.717,bars,2023.2.3,Win32,59.88023952,657b66ea316d21385b68909f,,,,,,,,,,,1235.6147,1236.6133,,,1237.1136,1237.3637,,16,16,,,,,,,,,,,,,,,,bars/016.png,bars/mask002.png,,,,,,,,,,,,2,1,,,,,,,10,0,10,1,,,,,,,,,,,1236.6133,1237.1135,1237.3639,1239.6968,space,2.3222,,1239.6969,24,31,1240.6968,1240.6968,1240.7095,,,,0,34,34,34,1,40,165,,,,,,,,
,,5f35ea51f0cfd606d35d01e5,65af5613eba6f5fa810a1699,2024-01-22_23h02.03.717,bars,2023.2.3,Win32,59.88023952,657b66ea316d21385b68909f,,,,,,,,,,,1240.7098,1241.7136,,,1242.2134,1242.4635,,123,-57,,,,,,,,,,,,,,,,bars/001.png,bars/mask000.png,,,,,,,,,,,,6,1,,,,,,,8,2,8,2,,,,,,,,,,,1241.7137,1242.2134,1242.4636,1245.4805,space,3.0028,,1245.4806,7,38,1246.4802,1246.4803,1246.4929,,,,0,35,35,35,1,130,85,,,,,,,,
,,5f35ea51f0cfd606d35d01e5,65af5613eba6f5fa810a1699,2024-01-22_23h02.03.717,bars,2023.2.3,Win32,59.88023952,657b66ea316d21385b68909f,,,,,,,,,,,1246.4932,1247.497,,,1247.997,1248.247,,1,181,,,,,,,,,,,,,,,,bars/005.png,bars/mask002.png,,,,,,,,,,,,4,1,,,,,,,6,0,6,1,,,,,,,,,,,1247.4972,1247.9969,1248.247,1252.4305,space,4.1685,,1252.4306,9,41,1253.4304,1253.4305,1253.443,,,,0,36,36,36,1,10,140,,,,,,,,
,,5f35ea51f0cfd606d35d01e5,65af5613eba6f5fa810a1699,2024-01-22_23h02.03.717,bars,2023.2.3,Win32,59.88023952,657b66ea316d21385b68909f,,,,,,,,,,,1253.4432,1254.4473,,,1254.9474,1255.1972,,158,158,,,,,,,,,,,,,,,,bars/036.png,bars/mask007.png,,,,,,,,,,,,5,1,,,,,,,8,2,9,2,,,,,,,,,,,1254.4474,1254.9473,1255.1973,1258.0646,space,2.8504,,1258.0647,13,42,1259.0638,1259.0638,1259.0823,,,,0,37,37,37,1,145,20,,,,,,,,
,,5f35ea51f0cfd606d35d01e5,65af5613eba6f5fa810a1699,2024-01-22_23h02.03.717,bars,2023.2.3,Win32,59.88023952,657b66ea316d21385b68909f,,,,,,,,,,,1259.083,1260.0808,,,1260.5808,1260.8307,,73,73,,,,,,,,,,,,,,,,bars/044.png,bars/mask005.png,,,,,,,,,,,,9,1,,,,,,,10,4,10,6,,,,,,,,,,,1260.0808,1260.5807,1260.8308,1262.981,space,2.136,,1262.981,2,82,1263.9805,1263.9806,1263.9928,,,,0,38,38,38,1,75,155,,,,,,,,
,,5f35ea51f0cfd606d35d01e5,65af5613eba6f5fa810a1699,2024-01-22_23h02.03.717,bars,2023.2.3,Win32,59.88023952,657b66ea316d21385b68909f,,,,,,,,,,,1263.993,1264.9807,,,1265.4808,1265.7308,,85,85,,,,,,,,,,,,,,,,bars/012.png,bars/mask002.png,,,,,,,,,,,,8,1,,,,,,,10,6,9,5,,,,,,,,,,,1264.9807,1265.4808,1265.7308,1268.249,space,2.511,,1268.2491,5,70,1269.2478,1269.2479,1269.2645,,,,0,39,39,39,1,90,15,,,,,,,,
,,5f35ea51f0cfd606d35d01e5,65af5613eba6f5fa810a1699,2024-01-22_23h02.03.717,bars,2023.2.3,Win32,59.88023952,657b66ea316d21385b68909f,,,,,,,,,,,1269.265,1270.2642,,,1270.7641,1271.0142,,167,167,,,,,,,,,,,,,,,,bars/018.png,bars/mask005.png,,,,,,,,,,,,4,1,,,,,,,10,4,10,3,,,,,,,,,,,1270.2642,1270.7641,1271.0143,1273.8477,space,2.826,,1273.8478,17,77,1274.8477,1274.8478,1274.8603,,,,0,40,40,40,1,150,90,,,,,,,,
,,5f35ea51f0cfd606d35d01e5,65af5613eba6f5fa810a1699,2024-01-22_23h02.03.717,bars,2023.2.3,Win32,59.88023952,657b66ea316d21385b68909f,,,,,,,,,,,1274.8605,1275.8644,,,1276.3643,1276.6145,,175,-5,,,,,,,,,,,,,,,,bars/039.png,bars/mask000.png,,,,,,,,,,,,10,1,,,,,,,10,2,10,2,,,,,,,,,,,1275.8646,1276.3643,1276.6146,1278.3812,space,1.7531,,1278.3812,0,70,1279.3811,1279.3811,1279.3821,,,,0,41,41,41,1,175,105,,,,,,,,
,,5f35ea51f0cfd606d35d01e5,65af5613eba6f5fa810a1699,2024-01-22_23h02.03.717,bars,2023.2.3,Win32,59.88023952,657b66ea316d21385b68909f,,,,,,,,,,,1279.3826,1280.3811,,,1280.8812,1281.1311,,153,-27,,,,,,,,,,,,,,,,bars/038.png,bars/mask003.png,,,,,,,,,,,,4,1,,,,,,,8,0,7,0,,,,,,,,,,,1280.3811,1280.8811,1281.1312,1282.7979,space,1.6508,,1282.798,12,83,1283.798,1283.798,1283.799,,,,0,42,42,42,1,165,70,,,,,,,,
,,5f35ea51f0cfd606d35d01e5,65af5613eba6f5fa810a1699,2024-01-22_23h02.03.717,bars,2023.2.3,Win32,59.88023952,657b66ea316d21385b68909f,,,,,,,,,,,1283.7995,1284.798,,,1285.2981,1285.5481,,155,155,,,,,,,,,,,,,,,,bars/037.png,bars/mask005.png,,,,,,,,,,,,4,1,,,,,,,6,0,5,1,,,,,,,,,,,1284.7981,1285.2981,1285.5481,1287.0987,space,1.5357,,1287.0989,5,50,1288.098,1288.0981,1288.1108,,,,0,43,43,43,1,150,105,,,,,,,,
,,5f35ea51f0cfd606d35d01e5,65af5613eba6f5fa810a1699,2024-01-22_23h02.03.717,bars,2023.2.3,Win32,59.88023952,657b66ea316d21385b68909f,,,,,,,,,,,1288.111,1289.1147,,,1289.6148,1289.8651,,27,207,,,,,,,,,,,,,,,,bars/043.png,bars/mask008.png,,,,,,,,,,,,8,1,,,,,,,8,0,9,0,,,,,,,,,,,1289.1148,1289.6148,1289.8651,1292.5163,space,2.6431,,1292.5164,3,77,1293.515,1293.515,1293.5306,,,,0,44,44,44,1,30,130,,,,,,,,
,,5f35ea51f0cfd606d35d01e5,65af5613eba6f5fa810a1699,2024-01-22_23h02.03.717,bars,2023.2.3,Win32,59.88023952,657b66ea316d21385b68909f,,,,,,,,,,,1293.5314,1294.5317,,,1295.0315,1295.2817,,31,211,,,,,,,,,,,,,,,,bars/048.png,bars/mask004.png,,,,,,,,,,,,4,1,,,,,,,10,0,10,0,,,,,,,,,,,1294.5318,1295.0314,1295.2817,1298.7319,space,3.4344,,1298.7319,19,36,1299.7316,1299.7317,1299.7452,,,,0,45,45,45,1,50,175,,,,,,,,
,,5f35ea51f0cfd606d35d01e5,65af5613eba6f5fa810a1699,2024-01-22_23h02.03.717,bars,2023.2.3,Win32,59.88023952,657b66ea316d21385b68909f,,,,,,,,,,,1299.7455,1300.749,,,1301.2485,1301.4984,,158,158,,,,,,,,,,,,,,,,bars/011.png,bars/mask007.png,,,,,,,,,,,,7,1,,,,,,,8,2,7,3,,,,,,,,,,,1300.7491,1301.2484,1301.4985,1304.1988,space,2.684,,1304.1989,2,73,1305.1985,1305.1986,1305.2109,,,,0,46,46,46,1,160,85,,,,,,,,
,,5f35ea51f0cfd606d35d01e5,65af5613eba6f5fa810a1699,2024-01-22_23h02.03.717,bars,2023.2.3,Win32,59.88023952,657b66ea316d21385b68909f,,,,,,,,,,,1305.2112,1306.2152,,,1306.7153,1306.9653,,10,10,,,,,,,,,,,,,,,,bars/041.png,bars/mask002.png,,,,,,,,,,,,7,1,,,,,,,10,0,10,0,,,,,,,,,,,1306.2153,1306.7152,1306.9653,1309.4655,space,2.4852,,1309.4656,10,75,1310.4652,1310.4653,1310.4778,,,,0,47,47,47,1,20,85,,,,,,,,
,,5f35ea51f0cfd606d35d01e5,65af5613eba6f5fa810a1699,2024-01-22_23h02.03.717,bars,2023.2.3,Win32,59.88023952,657b66ea316d21385b68909f,,,,,,,,,,,1310.4781,1311.482,,,1311.9819,1312.232,,88,88,,,,,,,,,,,,,,,,bars/001.png,bars/mask000.png,,,,,,,,,,,,2,2,,,,,,,8,2,6,2,,,,,,,,,,,1311.4821,1311.9819,1312.2321,1313.4323,space,1.1875,,1313.4324,42,3,1314.4321,1314.4322,1314.435,,,,0,48,48,48,1,130,85,,,,,,,,
,,5f35ea51f0cfd606d35d01e5,65af5613eba6f5fa810a1699,2024-01-22_23h02.03.717,bars,2023.2.3,Win32,59.88023952,657b66ea316d21385b68909f,,,,,,,,,,,1314.4353,1315.4322,,,1315.9322,1316.1822,,68,68,,,,,,,,,,,,,,,,bars/046.png,bars/mask004.png,,,,,,,,,,,,2,2,,,,,,,10,4,9,4,,,,,,,,,,,1315.4322,1315.9321,1316.1822,1318.3657,space,2.168,,1318.3659,87,17,1319.3655,1319.3655,1319.3776,,,,0,49,49,49,1,155,85,,,,,,,,
,,5f35ea51f0cfd606d35d01e5,65af5613eba6f5fa810a1699,2024-01-22_23h02.03.717,bars,2023.2.3,Win32,59.88023952,657b66ea316d21385b68909f,,,,,,,,,,,,,,,,,,,,,,,,,,,,,,,,,,,,,,,,,,,,,,,,,,,,,,,,,,,,,,,,,,,,,,,,,,,,,,,,,,,,,,,,,,,,,1319.3778,1379.3673,0,2,2,3,1,sequence_tables/blk036.csv
,,5f35ea51f0cfd606d35d01e5,65af5613eba6f5fa810a1699,2024-01-22_23h02.03.717,bars,2023.2.3,Win32,59.88023952,657b66ea316d21385b68909f,,,,,,,,,,,1382.1767,1383.1674,,,1383.6675,1383.9173,,68,68,,,,,,,,,,,,,,,,bars/041.png,bars/mask001.png,,,,,,,,,,,,0,2,,,,,,,4,2,4,1,,,,,,1379.381,1382.168,space,2.7701,,1383.1677,1383.6674,1383.9173,1385.9847,space,2.0547,,1385.985,48,17,1386.984,1386.984,1386.9853,,,,0,0,0,0,1,20,85,,,,,,,,
,,5f35ea51f0cfd606d35d01e5,65af5613eba6f5fa810a1699,2024-01-22_23h02.03.717,bars,2023.2.3,Win32,59.88023952,657b66ea316d21385b68909f,,,,,,,,,,,1387.0193,1388.0007,,,1388.5008,1388.7507,,75,75,,,,,,,,,,,,,,,,bars/029.png,bars/mask005.png,,,,,,,,,,,,2,1,,,,,,,2,4,3,3,,,,,,,,,,,1388.0008,1388.5008,1388.7507,1392.3677,space,3.6058,,1392.3678,15,30,1393.3675,1393.3675,1393.3813,,,,0,1,1,1,1,90,45,,,,,,,,
,,5f35ea51f0cfd606d35d01e5,65af5613eba6f5fa810a1699,2024-01-22_23h02.03.717,bars,2023.2.3,Win32,59.88023952,657b66ea316d21385b68909f,,,,,,,,,,,1393.3816,1394.3841,,,1394.8842,1395.1343,,112,112,,,,,,,,,,,,,,,,bars/031.png,bars/mask005.png,,,,,,,,,,,,0,1,,,,,,,0,6,0,6,,,,,,,,,,,1394.3842,1394.8841,1395.1344,1398.1677,space,3.0174,,1398.1678,8,77,1399.1677,1399.1677,1399.18,,,,0,2,2,2,1,120,35,,,,,,,,
,,5f35ea51f0cfd606d35d01e5,65af5613eba6f5fa810a1699,2024-01-22_23h02.03.717,bars,2023.2.3,Win32,59.88023952,657b66ea316d21385b68909f,,,,,,,,,,,1399.1803,1400.1846,,,1400.6843,1400.9343,,71,71,,,,,,,,,,,,,,,,bars/035.png,bars/mask006.png,,,,,,,,,,,,3,2,,,,,,,2,4,0,5,,,,,,,,,,,1400.1846,1400.6843,1400.9344,1408.718,space,7.768,,1408.7181,76,11,1409.7179,1409.7179,1409.7321,,,,0,3,3,3,1,175,60,,,,,,,,
,,5f35ea51f0cfd606d35d01e5,65af5613eba6f5fa810a1699,2024-01-22_23h02.03.717,bars,2023.2.3,Win32,59.88023952,657b66ea316d21385b68909f,,,,,,,,,,,1409.7324,1410.7346,,,1411.2347,1411.4847,,39,39,,,,,,,,,,,,,,,,bars/036.png,bars/mask005.png,,,,,,,,,,,,1,2,,,,,,,0,2,0,3,,,,,,,,,,,1410.7347,1411.2347,1411.4847,1416.5017,space,5.0077,,1416.5017,74,19,1417.5014,1417.5015,1417.5137,,,,0,4,4,4,1,145,20,,,,,,,,
,,5f35ea51f0cfd606d35d01e5,65af5613eba6f5fa810a1699,2024-01-22_23h02.03.717,bars,2023.2.3,Win32,59.88023952,657b66ea316d21385b68909f,,,,,,,,,,,1417.514,1418.5183,,,1419.0182,1419.2681,,136,136,,,,,,,,,,,,,,,,bars/005.png,bars/mask008.png,,,,,,,,,,,,4,2,,,,,,,0,4,0,5,,,,,,,,,,,1418.5183,1419.0181,1419.2683,1421.085,space,1.8032,,1421.085,54,4,1422.085,1422.0851,1422.0992,,,,0,5,5,5,1,10,140,,,,,,,,
,,5f35ea51f0cfd606d35d01e5,65af5613eba6f5fa810a1699,2024-01-22_23h02.03.717,bars,2023.2.3,Win32,59.88023952,657b66ea316d21385b68909f,,,,,,,,,,,1422.0996,1423.1018,,,1423.6016,1423.8518,,87,87,,,,,,,,,,,,,,,,bars/039.png,bars/mask008.png,,,,,,,,,,,,0,2,,,,,,,0,2,0,1,,,,,,,,,,,1423.1018,1423.6016,1423.8518,1427.0187,space,3.1518,,1427.0188,88,18,1428.0185,1428.0185,1428.0316,,,,0,6,6,6,1,175,105,,,,,,,,
,,5f35ea51f0cfd606d35d01e5,65af5613eba6f5fa810a1699,2024-01-22_23h02.03.717,bars,2023.2.3,Win32,59.88023952,657b66ea316d21385b68909f,,,,,,,,,,,1428.0319,1429.0352,,,1429.5351,1429.7851,,91,91,,,,,,,,,,,,,,,,bars/037.png,bars/mask009.png,,,,,,,,,,,,1,2,,,,,,,0,0,1,1,,,,,,,,,,,1429.0352,1429.5351,1429.7852,1433.2687,space,3.4686,,1433.2687,59,14,1434.2686,1434.2686,1434.2808,,,,0,7,7,7,1,150,105,,,,,,,,
,,5f35ea51f0cfd606d35d01e5,65af5613eba6f5fa810a1699,2024-01-22_23h02.03.717,bars,2023.2.3,Win32,59.88023952,657b66ea316d21385b68909f,,,,,,,,,,,1434.2811,1435.2854,,,1435.7854,1436.0352,,164,164,,,,,,,,,,,,,,,,bars/049.png,bars/mask001.png,,,,,,,,,,,,0,1,,,,,,,0,2,0,2,,,,,,,,,,,1435.2855,1435.7853,1436.0354,1439.1698,space,3.1237,,1439.1698,4,49,1440.1687,1440.1688,1440.1824,,,,0,8,8,8,1,160,115,,,,,,,,
,,5f35ea51f0cfd606d35d01e5,65af5613eba6f5fa810a1699,2024-01-22_23h02.03.717,bars,2023.2.3,Win32,59.88023952,657b66ea316d21385b68909f,,,,,,,,,,,1440.1827,1441.1853,,,1441.6856,1441.9355,,167,167,,,,,,,,,,,,,,,,bars/011.png,bars/mask003.png,,,,,,,,,,,,1,1,,,,,,,2,0,1,1,,,,,,,,,,,1441.1855,1441.6855,1441.9356,1443.8023,space,1.8499,,1443.8025,7,82,1444.8021,1444.8023,1444.815,,,,0,9,9,9,1,160,85,,,,,,,,
,,5f35ea51f0cfd606d35d01e5,65af5613eba6f5fa810a1699,2024-01-22_23h02.03.717,bars,2023.2.3,Win32,59.88023952,657b66ea316d21385b68909f,,,,,,,,,,,1444.8153,1445.8191,,,1446.319,1446.569,,5,5,,,,,,,,,,,,,,,,bars/040.png,bars/mask003.png,,,,,,,,,,,,0,2,,,,,,,0,0,0,0,,,,,,,,,,,1445.8191,1446.3189,1446.569,1449.0858,space,2.5054,,1449.0858,45,0,1450.0858,1450.0859,1450.0987,,,,0,10,10,10,1,140,5,,,,,,,,
,,5f35ea51f0cfd606d35d01e5,65af5613eba6f5fa810a1699,2024-01-22_23h02.03.717,bars,2023.2.3,Win32,59.88023952,657b66ea316d21385b68909f,,,,,,,,,,,1450.0989,1451.1024,,,1451.6025,1451.8524,,155,155,,,,,,,,,,,,,,,,bars/033.png,bars/mask004.png,,,,,,,,,,,,3,2,,,,,,,2,2,3,3,,,,,,,,,,,1451.1024,1451.6024,1451.8525,1455.2027,space,3.3392,,1455.2027,50,0,1456.2026,1456.2026,1456.2147,,,,0,11,11,11,1,25,155,,,,,,,,
,,5f35ea51f0cfd606d35d01e5,65af5613eba6f5fa810a1699,2024-01-22_23h02.03.717,bars,2023.2.3,Win32,59.88023952,657b66ea316d21385b68909f,,,,,,,,,,,1456.2149,1457.2197,,,1457.7194,1457.9692,,74,74,,,,,,,,,,,,,,,,bars/019.png,bars/mask001.png,,,,,,,,,,,,0,1,,,,,,,0,0,0,0,,,,,,,,,,,1457.2198,1457.7192,1457.9693,1460.2195,space,2.2342,,1460.2196,29,31,1461.2196,1461.2196,1461.2333,,,,0,12,12,12,1,45,105,,,,,,,,
,,5f35ea51f0cfd606d35d01e5,65af5613eba6f5fa810a1699,2024-01-22_23h02.03.717,bars,2023.2.3,Win32,59.88023952,657b66ea316d21385b68909f,,,,,,,,,,,1461.2336,1462.2362,,,1462.7361,1462.986,,99,99,,,,,,,,,,,,,,,,bars/019.png,bars/mask003.png,,,,,,,,,,,,0,2,,,,,,,0,2,0,0,,,,,,,,,,,1462.2362,1462.7361,1462.9861,1464.4862,space,1.4826,,1464.4862,54,6,1465.4861,1465.4862,1465.4889,,,,0,13,13,13,1,45,105,,,,,,,,
,,5f35ea51f0cfd606d35d01e5,65af5613eba6f5fa810a1699,2024-01-22_23h02.03.717,bars,2023.2.3,Win32,59.88023952,657b66ea316d21385b68909f,,,,,,,,,,,1465.4893,1466.4861,,,1466.9861,1467.2362,,99,99,,,,,,,,,,,,,,,,bars/019.png,bars/mask005.png,,,,,,,,,,,,3,2,,,,,,,0,4,0,4,,,,,,,,,,,1466.4862,1466.9861,1467.2363,1471.1531,space,3.9059,,1471.1531,54,6,1472.1529,1472.153,1472.1655,,,,0,14,14,14,1,45,105,,,,,,,,
,,5f35ea51f0cfd606d35d01e5,65af5613eba6f5fa810a1699,2024-01-22_23h02.03.717,bars,2023.2.3,Win32,59.88023952,657b66ea316d21385b68909f,,,,,,,,,,,1472.1658,1473.1696,,,1473.6697,1473.9197,,119,119,,,,,,,,,,,,,,,,bars/005.png,bars/mask002.png,,,,,,,,,,,,1,2,,,,,,,2,2,3,2,,,,,,,,,,,1473.1697,1473.6697,1473.9198,1476.1032,space,2.1703,,1476.1033,71,21,1477.1031,1477.1031,1477.1153,,,,0,15,15,15,1,10,140,,,,,,,,
,,5f35ea51f0cfd606d35d01e5,65af5613eba6f5fa810a1699,2024-01-22_23h02.03.717,bars,2023.2.3,Win32,59.88023952,657b66ea316d21385b68909f,,,,,,,,,,,1477.1156,1478.12,,,1478.6199,1478.8698,,14,14,,,,,,,,,,,,,,,,bars/022.png,bars/mask007.png,,,,,,,,,,,,0,2,,,,,,,0,0,0,0,,,,,,,,,,,1478.1201,1478.6198,1478.8698,1481.5034,space,2.6181,,1481.5036,81,6,1482.5032,1482.5033,1482.5159,,,,0,16,16,16,1,95,20,,,,,,,,
,,5f35ea51f0cfd606d35d01e5,65af5613eba6f5fa810a1699,2024-01-22_23h02.03.717,bars,2023.2.3,Win32,59.88023952,657b66ea316d21385b68909f,,,,,,,,,,,1482.5161,1483.52,,,1484.0199,1484.2701,,71,71,,,,,,,,,,,,,,,,bars/042.png,bars/mask003.png,,,,,,,,,,,,2,2,,,,,,,0,2,0,2,,,,,,,,,,,1483.5201,1484.0199,1484.2701,1487.0872,space,2.8091,,1487.0873,74,4,1488.0867,1488.0868,1488.0996,,,,0,17,17,17,1,145,75,,,,,,,,
,,5f35ea51f0cfd606d35d01e5,65af5613eba6f5fa810a1699,2024-01-22_23h02.03.717,bars,2023.2.3,Win32,59.88023952,657b66ea316d21385b68909f,,,,,,,,,,,1488.0999,1489.1037,,,1489.6035,1489.8534,,174,174,,,,,,,,,,,,,,,,bars/008.png,bars/mask007.png,,,,,,,,,,,,2,2,,,,,,,0,4,0,2,,,,,,,,,,,1489.1038,1489.6034,1489.8534,1493.8037,space,3.9414,,1493.8038,64,6,1494.8036,1494.8036,1494.8157,,,,0,18,18,18,1,110,0,,,,,,,,
,,5f35ea51f0cfd606d35d01e5,65af5613eba6f5fa810a1699,2024-01-22_23h02.03.717,bars,2023.2.3,Win32,59.88023952,657b66ea316d21385b68909f,,,,,,,,,,,1494.8161,1495.8203,,,1496.3204,1496.5703,,149,149,,,,,,,,,,,,,,,,bars/021.png,bars/mask005.png,,,,,,,,,,,,3,1,,,,,,,2,6,4,8,,,,,,,,,,,1495.8203,1496.3203,1496.5704,1500.1873,space,3.6086,,1500.1873,6,79,1501.187,1501.1871,1501.2009,,,,0,19,19,19,1,155,70,,,,,,,,
,,5f35ea51f0cfd606d35d01e5,65af5613eba6f5fa810a1699,2024-01-22_23h02.03.717,bars,2023.2.3,Win32,59.88023952,657b66ea316d21385b68909f,,,,,,,,,,,1501.2012,1502.2038,,,1502.704,1502.9538,,53,53,,,,,,,,,,,,,,,,bars/048.png,bars/mask009.png,,,,,,,,,,,,0,1,,,,,,,0,4,0,3,,,,,,,,,,,1502.2038,1502.7039,1502.9539,1505.0207,space,2.0556,,1505.0207,3,58,1506.0206,1506.0207,1506.0339,,,,0,20,20,20,1,50,175,,,,,,,,
,,5f35ea51f0cfd606d35d01e5,65af5613eba6f5fa810a1699,2024-01-22_23h02.03.717,bars,2023.2.3,Win32,59.88023952,657b66ea316d21385b68909f,,,,,,,,,,,1506.0344,1507.0372,,,1507.5373,1507.7873,,35,35,,,,,,,,,,,,,,,,bars/040.png,bars/mask006.png,,,,,,,,,,,,0,2,,,,,,,2,6,3,7,,,,,,,,,,,1507.0374,1507.5373,1507.7873,1509.7709,space,1.9678,,1509.7709,75,30,1510.7707,1510.7707,1510.7837,,,,0,21,21,21,1,140,5,,,,,,,,
,,5f35ea51f0cfd606d35d01e5,65af5613eba6f5fa810a1699,2024-01-22_23h02.03.717,bars,2023.2.3,Win32,59.88023952,657b66ea316d21385b68909f,,,,,,,,,,,1510.784,1511.7873,,,1512.2875,1512.5374,,151,151,,,,,,,,,,,,,,,,bars/007.png,bars/mask006.png,,,,,,,,,,,,0,1,,,,,,,0,8,0,9,,,,,,,,,,,1511.7874,1512.2874,1512.5375,1515.7877,space,3.2388,,1515.7877,24,84,1516.7875,1516.7875,1516.8015,,,,0,22,22,22,1,175,55,,,,,,,,
,,5f35ea51f0cfd606d35d01e5,65af5613eba6f5fa810a1699,2024-01-22_23h02.03.717,bars,2023.2.3,Win32,59.88023952,657b66ea316d21385b68909f,,,,,,,,,,,1516.8018,1517.8042,,,1518.3043,1518.5544,,134,134,,,,,,,,,,,,,,,,bars/019.png,bars/mask008.png,,,,,,,,,,,,0,2,,,,,,,0,6,1,5,,,,,,,,,,,1517.8043,1518.3042,1518.5544,1521.5213,space,2.9515,,1521.5214,89,29,1522.521,1522.5211,1522.5344,,,,0,23,23,23,1,45,105,,,,,,,,
,,5f35ea51f0cfd606d35d01e5,65af5613eba6f5fa810a1699,2024-01-22_23h02.03.717,bars,2023.2.3,Win32,59.88023952,657b66ea316d21385b68909f,,,,,,,,,,,1522.5348,1523.5377,,,1524.0379,1524.2878,,169,169,,,,,,,,,,,,,,,,bars/008.png,bars/mask006.png,,,,,,,,,,,,6,2,,,,,,,2,8,2,9,,,,,,,,,,,1523.5379,1524.0379,1524.2879,1526.3427,space,2.0353,,1526.3428,59,11,1527.3377,1527.3378,1527.339,,,,0,24,24,24,1,110,0,,,,,,,,
,,5f35ea51f0cfd606d35d01e5,65af5613eba6f5fa810a1699,2024-01-22_23h02.03.717,bars,2023.2.3,Win32,59.88023952,657b66ea316d21385b68909f,,,,,,,,,,,1527.3395,1528.3378,,,1528.838,1529.0878,,89,89,,,,,,,,,,,,,,,,bars/040.png,bars/mask003.png,,,,,,,,,,,,0,1,,,,,,,0,10,1,10,,,,,,,,,,,1528.3378,1528.8379,1529.0879,1530.8714,space,1.7662,,1530.8714,51,84,1531.8713,1531.8713,1531.8848,,,,0,25,25,25,1,140,5,,,,,,,,
,,5f35ea51f0cfd606d35d01e5,65af5613eba6f5fa810a1699,2024-01-22_23h02.03.717,bars,2023.2.3,Win32,59.88023952,657b66ea316d21385b68909f,,,,,,,,,,,1531.8851,1532.8881,,,1533.388,1533.638,,163,163,,,,,,,,,,,,,,,,bars/035.png,bars/mask000.png,,,,,,,,,,,,2,1,,,,,,,2,8,3,9,,,,,,,,,,,1532.8881,1533.3879,1533.6381,1535.9048,space,2.2498,,1535.9048,12,77,1536.9047,1536.9048,1536.9175,,,,0,26,26,26,1,175,60,,,,,,,,
,,5f35ea51f0cfd606d35d01e5,65af5613eba6f5fa810a1699,2024-01-22_23h02.03.717,bars,2023.2.3,Win32,59.88023952,657b66ea316d21385b68909f,,,,,,,,,,,1536.9177,1537.9216,,,1538.4216,1538.6715,,61,61,,,,,,,,,,,,,,,,bars/044.png,bars/mask000.png,,,,,,,,,,,,0,1,,,,,,,0,10,0,10,,,,,,,,,,,1537.9217,1538.4215,1538.6717,1541.1551,space,2.4687,,1541.1551,14,86,1542.155,1542.1551,1542.1765,,,,0,27,27,27,1,75,155,,,,,,,,
,,5f35ea51f0cfd606d35d01e5,65af5613eba6f5fa810a1699,2024-01-22_23h02.03.717,bars,2023.2.3,Win32,59.88023952,657b66ea316d21385b68909f,,,,,,,,,,,1542.1768,1543.1719,,,1543.672,1543.9113,,22,22,,,,,,,,,,,,,,,,bars/041.png,bars/mask000.png,,,,,,,,,,,,0,1,,,,,,,0,10,0,10,,,,,,,,,,,1543.172,1543.6718,1543.9114,1546.3889,space,2.4622,,1546.3891,2,63,1547.3888,1547.3888,1547.4016,,,,0,28,28,28,1,20,85,,,,,,,,
,,5f35ea51f0cfd606d35d01e5,65af5613eba6f5fa810a1699,2024-01-22_23h02.03.717,bars,2023.2.3,Win32,59.88023952,657b66ea316d21385b68909f,,,,,,,,,,,1547.4017,1548.4053,,,1548.9112,1549.1554,,39,39,,,,,,,,,,,,,,,,bars/033.png,bars/mask007.png,,,,,,,,,,,,1,1,,,,,,,0,10,1,10,,,,,,,,,,,1548.4053,1548.9111,1549.1555,1550.5754,space,1.3973,,1550.5754,14,64,1551.5773,1551.5773,1551.5781,,,,0,29,29,29,1,25,155,,,,,,,,
,,5f35ea51f0cfd606d35d01e5,65af5613eba6f5fa810a1699,2024-01-22_23h02.03.717,bars,2023.2.3,Win32,59.88023952,657b66ea316d21385b68909f,,,,,,,,,,,1551.5784,1552.5721,,,1553.0729,1553.3248,,165,165,,,,,,,,,,,,,,,,bars/049.png,bars/mask008.png,,,,,,,,,,,,2,1,,,,,,,2,8,2,6,,,,,,,,,,,1552.5722,1553.0728,1553.3248,1555.096,space,1.7505,,1555.096,5,50,1556.0888,1556.0889,1556.1021,,,,0,30,30,30,1,160,115,,,,,,,,
,,5f35ea51f0cfd606d35d01e5,65af5613eba6f5fa810a1699,2024-01-22_23h02.03.717,bars,2023.2.3,Win32,59.88023952,657b66ea316d21385b68909f,,,,,,,,,,,1556.1023,1557.1057,,,1557.6058,1557.8557,,157,157,,,,,,,,,,,,,,,,bars/038.png,bars/mask001.png,,,,,,,,,,,,3,1,,,,,,,4,6,4,7,,,,,,,,,,,1557.1057,1557.6056,1557.8558,1561.4458,space,3.5675,,1561.4458,8,87,1562.439,1562.4391,1562.4516,,,,0,31,31,31,1,165,70,,,,,,,,
,,5f35ea51f0cfd606d35d01e5,65af5613eba6f5fa810a1699,2024-01-22_23h02.03.717,bars,2023.2.3,Win32,59.88023952,657b66ea316d21385b68909f,,,,,,,,,,,1562.4519,1563.4558,,,1563.9561,1564.2059,,98,98,,,,,,,,,,,,,,,,bars/015.png,bars/mask008.png,,,,,,,,,,,,1,1,,,,,,,2,8,1,10,,,,,,,,,,,1563.4559,1563.956,1564.2059,1566.2459,space,2.0174,,1566.246,12,62,1567.2391,1567.2392,1567.2521,,,,0,32,32,32,1,110,160,,,,,,,,
,,5f35ea51f0cfd606d35d01e5,65af5613eba6f5fa810a1699,2024-01-22_23h02.03.717,bars,2023.2.3,Win32,59.88023952,657b66ea316d21385b68909f,,,,,,,,,,,1567.2524,1568.2562,,,1568.7561,1569.006,,151,151,,,,,,,,,,,,,,,,bars/021.png,bars/mask001.png,,,,,,,,,,,,1,1,,,,,,,0,10,1,8,,,,,,,,,,,1568.2563,1568.756,1569.0061,1572.1292,space,3.1008,,1572.1292,4,81,1573.1226,1573.1227,1573.1356,,,,0,33,33,33,1,155,70,,,,,,,,
,,5f35ea51f0cfd606d35d01e5,65af5613eba6f5fa810a1699,2024-01-22_23h02.03.717,bars,2023.2.3,Win32,59.88023952,657b66ea316d21385b68909f,,,,,,,,,,,1573.1358,1574.1396,,,1574.6452,1574.8893,,158,-22,,,,,,,,,,,,,,,,bars/017.png,bars/mask006.png,,,,,,,,,,,,1,1,,,,,,,2,8,2,9,,,,,,,,,,,1574.1397,1574.6451,1574.8894,1577.8966,space,2.9847,,1577.8966,13,67,1578.8895,1578.8896,1578.9038,,,,0,34,34,34,1,145,45,,,,,,,,
,,5f35ea51f0cfd606d35d01e5,65af5613eba6f5fa810a1699,2024-01-22_23h02.03.717,bars,2023.2.3,Win32,59.88023952,657b66ea316d21385b68909f,,,,,,,,,,,1578.9041,1579.9061,,,1580.4065,1580.6562,,97,97,,,,,,,,,,,,,,,,bars/036.png,bars/mask005.png,,,,,,,,,,,,0,1,,,,,,,4,6,4,7,,,,,,,,,,,1579.9062,1580.4064,1580.6563,1582.0966,space,1.4181,,1582.0967,48,77,1583.0897,1583.0897,1583.0915,,,,0,35,35,35,1,145,20,,,,,,,,
,,5f35ea51f0cfd606d35d01e5,65af5613eba6f5fa810a1699,2024-01-22_23h02.03.717,bars,2023.2.3,Win32,59.88023952,657b66ea316d21385b68909f,,,,,,,,,,,1583.0918,1584.0897,,,1584.5897,1584.8396,,161,161,,,,,,,,,,,,,,,,bars/007.png,bars/mask000.png,,,,,,,,,,,,4,1,,,,,,,6,4,7,2,,,,,,,,,,,1584.0899,1584.5897,1584.8397,1587.7648,space,2.9026,,1587.7649,14,74,1588.7565,1588.7566,1588.7699,,,,0,36,36,36,1,175,55,,,,,,,,
,,5f35ea51f0cfd606d35d01e5,65af5613eba6f5fa810a1699,2024-01-22_23h02.03.717,bars,2023.2.3,Win32,59.88023952,657b66ea316d21385b68909f,,,,,,,,,,,1588.7701,1589.7732,,,1590.2732,1590.5232,,155,-25,,,,,,,,,,,,,,,,bars/037.png,bars/mask006.png,,,,,,,,,,,,4,1,,,,,,,4,6,5,6,,,,,,,,,,,1589.7733,1590.2732,1590.5233,1593.4071,space,2.8566,,1593.4073,5,50,1594.4067,1594.4068,1594.4196,,,,0,37,37,37,1,150,105,,,,,,,,
,,5f35ea51f0cfd606d35d01e5,65af5613eba6f5fa810a1699,2024-01-22_23h02.03.717,bars,2023.2.3,Win32,59.88023952,657b66ea316d21385b68909f,,,,,,,,,,,1594.4198,1595.4232,,,1595.9234,1596.1733,,29,29,,,,,,,,,,,,,,,,bars/023.png,bars/mask007.png,,,,,,,,,,,,2,1,,,,,,,2,8,3,9,,,,,,,,,,,1595.4233,1595.9233,1596.1734,1597.8137,space,1.6177,,1597.8137,9,86,1598.8068,1598.807,1598.8206,,,,0,38,38,38,1,20,115,,,,,,,,
,,5f35ea51f0cfd606d35d01e5,65af5613eba6f5fa810a1699,2024-01-22_23h02.03.717,bars,2023.2.3,Win32,59.88023952,657b66ea316d21385b68909f,,,,,,,,,,,1598.8208,1599.8236,,,1600.3236,1600.5734,,165,-15,,,,,,,,,,,,,,,,bars/049.png,bars/mask006.png,,,,,,,,,,,,1,1,,,,,,,0,10,1,10,,,,,,,,,,,1599.8237,1600.3236,1600.5735,1604.0471,space,3.4503,,1604.0472,5,50,1605.0402,1605.0403,1605.0536,,,,0,39,39,39,1,160,115,,,,,,,,
,,5f35ea51f0cfd606d35d01e5,65af5613eba6f5fa810a1699,2024-01-22_23h02.03.717,bars,2023.2.3,Win32,59.88023952,657b66ea316d21385b68909f,,,,,,,,,,,1605.054,1606.0572,,,1606.5571,1606.807,,156,-24,,,,,,,,,,,,,,,,bars/046.png,bars/mask008.png,,,,,,,,,,,,2,1,,,,,,,2,10,2,10,,,,,,,,,,,1606.0572,1606.557,1606.8072,1609.7981,space,2.968,,1609.7982,1,71,1610.7904,1610.7906,1610.803,,,,0,40,40,40,1,155,85,,,,,,,,
,,5f35ea51f0cfd606d35d01e5,65af5613eba6f5fa810a1699,2024-01-22_23h02.03.717,bars,2023.2.3,Win32,59.88023952,657b66ea316d21385b68909f,,,,,,,,,,,1610.8032,1611.8072,,,1612.3073,1612.5571,,21,21,,,,,,,,,,,,,,,,bars/041.png,bars/mask008.png,,,,,,,,,,,,3,1,,,,,,,4,8,3,6,,,,,,,,,,,1611.8072,1612.3072,1612.5572,1614.9304,space,2.3507,,1614.9305,1,64,1615.9239,1615.924,1615.9257,,,,0,41,41,41,1,20,85,,,,,,,,
,,5f35ea51f0cfd606d35d01e5,65af5613eba6f5fa810a1699,2024-01-22_23h02.03.717,bars,2023.2.3,Win32,59.88023952,657b66ea316d21385b68909f,,,,,,,,,,,1615.9262,1616.9239,,,1617.424,1617.6739,,144,144,,,,,,,,,,,,,,,,bars/038.png,bars/mask006.png,,,,,,,,,,,,2,1,,,,,,,6,10,5,9,,,,,,,,,,,1616.9239,1617.424,1617.674,1619.2475,space,1.5506,,1619.2476,21,74,1620.2431,1620.2431,1620.2552,,,,0,42,42,42,1,165,70,,,,,,,,
,,5f35ea51f0cfd606d35d01e5,65af5613eba6f5fa810a1699,2024-01-22_23h02.03.717,bars,2023.2.3,Win32,59.88023952,657b66ea316d21385b68909f,,,,,,,,,,,1620.2554,1621.243,,,1621.7409,1621.9907,,28,208,,,,,,,,,,,,,,,,bars/023.png,bars/mask005.png,,,,,,,,,,,,4,1,,,,,,,4,10,5,9,,,,,,,,,,,1621.2431,1621.7407,1621.9908,1624.2147,space,2.2014,,1624.2147,8,87,1625.2076,1625.2077,1625.2202,,,,0,43,43,43,1,20,115,,,,,,,,
,,5f35ea51f0cfd606d35d01e5,65af5613eba6f5fa810a1699,2024-01-22_23h02.03.717,bars,2023.2.3,Win32,59.88023952,657b66ea316d21385b68909f,,,,,,,,,,,1625.2204,1626.2243,,,1626.7242,1626.9743,,64,64,,,,,,,,,,,,,,,,bars/044.png,bars/mask001.png,,,,,,,,,,,,2,1,,,,,,,2,10,3,10,,,,,,,,,,,1626.2243,1626.7241,1626.9744,1630.4087,space,3.4004,,1630.409,11,89,1631.4078,1631.4079,1631.421,,,,0,44,44,44,1,75,155,,,,,,,,
,,5f35ea51f0cfd606d35d01e5,65af5613eba6f5fa810a1699,2024-01-22_23h02.03.717,bars,2023.2.3,Win32,59.88023952,657b66ea316d21385b68909f,,,,,,,,,,,1631.4213,1632.4244,,,1632.9244,1633.1743,,5,5,,,,,,,,,,,,,,,,bars/047.png,bars/mask008.png,,,,,,,,,,,,0,1,,,,,,,0,10,0,10,,,,,,,,,,,1632.4244,1632.9243,1633.1743,1635.9413,space,2.7388,,1635.9414,10,65,1636.9411,1636.9413,1636.9538,,,,0,45,45,45,1,15,70,,,,,,,,
,,5f35ea51f0cfd606d35d01e5,65af5613eba6f5fa810a1699,2024-01-22_23h02.03.717,bars,2023.2.3,Win32,59.88023952,657b66ea316d21385b68909f,,,,,,,,,,,1636.954,1637.9471,,,1638.4413,1638.6971,,10,10,,,,,,,,,,,,,,,,bars/041.png,bars/mask009.png,,,,,,,,,,,,1,1,,,,,,,0,10,1,10,,,,,,,,,,,1637.9471,1638.4411,1638.6971,1641.2748,space,2.5653,,1641.2749,10,75,1642.2746,1642.2746,1642.2764,,,,0,46,46,46,1,20,85,,,,,,,,
,,5f35ea51f0cfd606d35d01e5,65af5613eba6f5fa810a1699,2024-01-22_23h02.03.717,bars,2023.2.3,Win32,59.88023952,657b66ea316d21385b68909f,,,,,,,,,,,1642.2766,1643.2746,,,1643.7748,1644.0248,,74,74,,,,,,,,,,,,,,,,bars/019.png,bars/mask002.png,,,,,,,,,,,,0,1,,,,,,,0,10,3,10,,,,,,,,,,,1643.2747,1643.7747,1644.0248,1645.1145,space,1.0669,,1645.1145,29,31,1646.108,1646.108,1646.1099,,,,0,47,47,47,1,45,105,,,,,,,,
,,5f35ea51f0cfd606d35d01e5,65af5613eba6f5fa810a1699,2024-01-22_23h02.03.717,bars,2023.2.3,Win32,59.88023952,657b66ea316d21385b68909f,,,,,,,,,,,1646.1102,1647.1083,,,1647.6083,1647.8641,,162,-18,,,,,,,,,,,,,,,,bars/007.png,bars/mask007.png,,,,,,,,,,,,0,1,,,,,,,0,10,0,10,,,,,,,,,,,1647.1084,1647.6083,1647.8642,1650.4985,space,2.6174,,1650.4985,13,73,1651.4916,1651.4916,1651.5053,,,,0,48,48,48,1,175,55,,,,,,,,
,,5f35ea51f0cfd606d35d01e5,65af5613eba6f5fa810a1699,2024-01-22_23h02.03.717,bars,2023.2.3,Win32,59.88023952,657b66ea316d21385b68909f,,,,,,,,,,,1651.5055,1652.5085,,,1653.0084,1653.2584,,45,45,,,,,,,,,,,,,,,,bars/030.png,bars/mask005.png,,,,,,,,,,,,3,2,,,,,,,2,8,1,8,,,,,,,,,,,1652.5085,1653.0082,1653.2585,1656.3148,space,3.0339,,1656.3149,85,20,1657.3084,1657.3085,1657.3226,,,,0,49,49,49,1,140,65,,,,,,,,
,,5f35ea51f0cfd606d35d01e5,65af5613eba6f5fa810a1699,2024-01-22_23h02.03.717,bars,2023.2.3,Win32,59.88023952,657b66ea316d21385b68909f,,,,,,,,,,,,,,,,,,,,,,,,,,,,,,,,,,,,,,,,,,,,,,,,,,,,,,,,,,,,,,,,,,,,,,,,,,,,,,,,,,,,,,,,,,,,,1657.3226,1717.327,0,3,3,4,1,sequence_tables/blk012.csv
,,5f35ea51f0cfd606d35d01e5,65af5613eba6f5fa810a1699,2024-01-22_23h02.03.717,bars,2023.2.3,Win32,59.88023952,657b66ea316d21385b68909f,,,,,,,,,,,1720.1165,1721.1102,,,1721.6103,1721.8602,,116,116,,,,,,,,,,,,,,,,bars/048.png,bars/mask003.png,,,,,,,,,,,,0,2,,,,,,,8,7,10,8,,,,,,1717.341,1720.1103,space,2.7564,,1721.1103,1721.6102,1721.8603,1724.6674,space,2.7882,,1724.6675,66,59,1725.6603,1725.6603,1725.673,,,,0,0,0,0,1,50,175,,,,,,,,
,,5f35ea51f0cfd606d35d01e5,65af5613eba6f5fa810a1699,2024-01-22_23h02.03.717,bars,2023.2.3,Win32,59.88023952,657b66ea316d21385b68909f,,,,,,,,,,,1725.6733,1726.6772,,,1727.1774,1727.427,,52,52,,,,,,,,,,,,,,,,bars/038.png,bars/mask006.png,,,,,,,,,,,,2,2,,,,,,,6,5,6,4,,,,,,,,,,,1726.6773,1727.1773,1727.4272,1729.2277,space,1.7684,,1729.2279,67,18,1730.2271,1730.2272,1730.2403,,,,0,1,1,1,1,165,70,,,,,,,,
,,5f35ea51f0cfd606d35d01e5,65af5613eba6f5fa810a1699,2024-01-22_23h02.03.717,bars,2023.2.3,Win32,59.88023952,657b66ea316d21385b68909f,,,,,,,,,,,1730.2405,1731.2441,,,1731.733,1731.9771,,111,111,,,,,,,,,,,,,,,,bars/000.png,bars/mask008.png,,,,,,,,,,,,0,2,,,,,,,8,7,8,9,,,,,,,,,,,1731.2443,1731.733,1731.9772,1734.8177,space,2.8181,,1734.8178,71,34,1735.8105,1735.8106,1735.8238,,,,0,2,2,2,1,40,145,,,,,,,,
,,5f35ea51f0cfd606d35d01e5,65af5613eba6f5fa810a1699,2024-01-22_23h02.03.717,bars,2023.2.3,Win32,59.88023952,657b66ea316d21385b68909f,,,,,,,,,,,1735.8241,1736.8279,,,1737.3274,1737.5773,,35,215,,,,,,,,,,,,,,,,bars/004.png,bars/mask005.png,,,,,,,,,,,,6,1,,,,,,,10,5,9,4,,,,,,,,,,,1736.8279,1737.3273,1737.5775,1741.7442,space,4.14,,1741.7444,10,90,1742.7446,1742.7448,1742.7587,,,,0,3,3,3,1,25,125,,,,,,,,
,,5f35ea51f0cfd606d35d01e5,65af5613eba6f5fa810a1699,2024-01-22_23h02.03.717,bars,2023.2.3,Win32,59.88023952,657b66ea316d21385b68909f,,,,,,,,,,,1742.7589,1743.761,,,1744.2497,1744.4944,,109,109,,,,,,,,,,,,,,,,bars/020.png,bars/mask008.png,,,,,,,,,,,,8,1,,,,,,,10,7,10,8,,,,,,,,,,,1743.7611,1744.2496,1744.4945,1748.3524,space,3.8355,,1748.3524,6,61,1749.3446,1749.3446,1749.3583,,,,0,4,4,4,1,115,170,,,,,,,,
,,5f35ea51f0cfd606d35d01e5,65af5613eba6f5fa810a1699,2024-01-22_23h02.03.717,bars,2023.2.3,Win32,59.88023952,657b66ea316d21385b68909f,,,,,,,,,,,1749.3585,1750.3501,,,1750.8504,1751.0945,,20,200,,,,,,,,,,,,,,,,bars/016.png,bars/mask005.png,,,,,,,,,,,,3,1,,,,,,,10,5,10,6,,,,,,,,,,,1750.3501,1750.8504,1751.0946,1754.0446,space,2.9218,,1754.0448,20,35,1755.0329,1755.0329,1755.0474,,,,0,5,5,5,1,40,165,,,,,,,,
,,5f35ea51f0cfd606d35d01e5,65af5613eba6f5fa810a1699,2024-01-22_23h02.03.717,bars,2023.2.3,Win32,59.88023952,657b66ea316d21385b68909f,,,,,,,,,,,1755.0477,1756.0443,,,1756.5447,1756.7945,,24,24,,,,,,,,,,,,,,,,bars/003.png,bars/mask002.png,,,,,,,,,,,,10,1,,,,,,,10,7,10,7,,,,,,,,,,,1756.0444,1756.5445,1756.7946,1759.5948,space,2.7738,,1759.5949,1,64,1760.5954,1760.5955,1760.6091,,,,0,6,6,6,1,25,140,,,,,,,,
,,5f35ea51f0cfd606d35d01e5,65af5613eba6f5fa810a1699,2024-01-22_23h02.03.717,bars,2023.2.3,Win32,59.88023952,657b66ea316d21385b68909f,,,,,,,,,,,1760.6094,1761.6114,,,1762.1115,1762.3678,,151,151,,,,,,,,,,,,,,,,bars/011.png,bars/mask005.png,,,,,,,,,,,,6,1,,,,,,,10,5,9,7,,,,,,,,,,,1761.6115,1762.1113,1762.3678,1765.2617,space,2.8688,,1765.2619,9,66,1766.2615,1766.2615,1766.2741,,,,0,7,7,7,1,160,85,,,,,,,,
,,5f35ea51f0cfd606d35d01e5,65af5613eba6f5fa810a1699,2024-01-22_23h02.03.717,bars,2023.2.3,Win32,59.88023952,657b66ea316d21385b68909f,,,,,,,,,,,1766.2743,1767.2782,,,1767.7781,1768.0283,,26,206,,,,,,,,,,,,,,,,bars/023.png,bars/mask009.png,,,,,,,,,,,,7,1,,,,,,,8,3,9,3,,,,,,,,,,,1767.2783,1767.7781,1768.0283,1769.9622,space,1.9023,,1769.9623,6,89,1770.9615,1770.9616,1770.9632,,,,0,8,8,8,1,20,115,,,,,,,,
,,5f35ea51f0cfd606d35d01e5,65af5613eba6f5fa810a1699,2024-01-22_23h02.03.717,bars,2023.2.3,Win32,59.88023952,657b66ea316d21385b68909f,,,,,,,,,,,1770.9635,1771.9615,,,1772.4617,1772.7117,,102,102,,,,,,,,,,,,,,,,bars/022.png,bars/mask000.png,,,,,,,,,,,,5,1,,,,,,,6,1,7,0,,,,,,,,,,,1771.9617,1772.4616,1772.7118,1775.2522,space,2.5181,,1775.2523,7,82,1776.245,1776.2451,1776.2577,,,,0,9,9,9,1,95,20,,,,,,,,
,,5f35ea51f0cfd606d35d01e5,65af5613eba6f5fa810a1699,2024-01-22_23h02.03.717,bars,2023.2.3,Win32,59.88023952,657b66ea316d21385b68909f,,,,,,,,,,,1776.2579,1777.2622,,,1777.7618,1778.0117,,13,13,,,,,,,,,,,,,,,,bars/006.png,bars/mask002.png,,,,,,,,,,,,1,1,,,,,,,4,3,5,4,,,,,,,,,,,1777.2623,1777.7616,1778.0118,1780.5191,space,2.4843,,1780.5191,22,87,1781.512,1781.5121,1781.5139,,,,0,10,10,10,1,35,100,,,,,,,,
,,5f35ea51f0cfd606d35d01e5,65af5613eba6f5fa810a1699,2024-01-22_23h02.03.717,bars,2023.2.3,Win32,59.88023952,657b66ea316d21385b68909f,,,,,,,,,,,1781.5143,1782.5118,,,1783.0119,1783.2676,,32,32,,,,,,,,,,,,,,,,bars/031.png,bars/mask001.png,,,,,,,,,,,,0,2,,,,,,,6,1,5,0,,,,,,,,,,,1782.5118,1783.0119,1783.2676,1785.1121,space,1.8345,,1785.1122,88,3,1786.112,1786.112,1786.1267,,,,0,11,11,11,1,120,35,,,,,,,,
,,5f35ea51f0cfd606d35d01e5,65af5613eba6f5fa810a1699,2024-01-22_23h02.03.717,bars,2023.2.3,Win32,59.88023952,657b66ea316d21385b68909f,,,,,,,,,,,1786.1269,1787.1287,,,1787.6288,1787.8786,,94,94,,,,,,,,,,,,,,,,bars/006.png,bars/mask000.png,,,,,,,,,,,,1,2,,,,,,,8,0,9,1,,,,,,,,,,,1787.1287,1787.6287,1787.8786,1790.7191,space,2.818,,1790.7191,59,6,1791.712,1791.7122,1791.7251,,,,0,12,12,12,1,35,100,,,,,,,,
