init_variables.started,init_variables.stopped,participant,session,date,expName,psychopyVersion,OS,frameRate,study_id,instruction_exp.started,instruction_exp.stopped,key_resp_8.keys,key_resp_8.rt,key_resp_8.duration,instruction_single.started,instruction_single.stopped,key_resp_2.keys,key_resp_2.rt,key_resp_2.duration,interval.started,interval.stopped,cue_single.started,cue_single.stopped,mask.started,mask.stopped,ori_response_single.started,res_ori,res,ori_response_single.stopped,key_resp_single.keys,key_resp_single.rt,key_resp_single.duration,disp_single.started,disp_single.stopped,key_resp.keys,key_resp.rt,key_resp.duration,single.thisRepN,single.thisTrialN,single.thisN,single.thisIndex,single.ran,ori,path,mask_path,instruction_bandit.started,instruction_bandit.stopped,key_resp_6.keys,key_resp_6.rt,key_resp_6.duration,cue_bandit.started,cue_bandit.stopped,bandit_res.keys,bandit_res.rt,bandit_res.duration,outcome_bandit.started,rew,action,outcome_bandit.stopped,bandit.thisRepN,bandit.thisTrialN,bandit.thisN,bandit.thisIndex,bandit.ran,actual_rew1,actual_rew2,rew1,rew2,instruction_task.started,instruction_task.stopped,key_resp_7.keys,key_resp_7.rt,key_resp_7.duration,wait_ready.started,wait_ready.stopped,key_resp_3.keys,key_resp_3.rt,key_resp_3.duration,cue.started,cue.stopped,ori_response.started,ori_response.stopped,key_resp_5.keys,key_resp_5.rt,key_resp_5.duration,outcome.started,diff1,diff2,outcome.stopped,disp_outcome_practice.started,disp_outcome_practice.stopped,key_resp_4.keys,key_resp_4.rt,key_resp_4.duration,trials.thisRepN,trials.thisTrialN,trials.thisN,trials.thisIndex,trials.ran,ori1,ori2,break_blk.started,break_blk.stopped,block.thisRepN,block.thisTrialN,block.thisN,block.thisIndex,block.ran,condition_file
0.0011,0.0015,56cfd0ddd691bb000697baef,65af53a2be6af047326a9879,2024-01-22_23h51.23.665,bars,2023.2.3,Linux x86_64,59.88023952,657b66ea316d21385b68909f,,,,,,,,,,,,,,,,,,,,,,,,,,,,,,,,,,,,,,,,,,,,,,,,,,,,,,,,,,,,,,,,,,,,,,,,,,,,,,,,,,,,,,,,,,,,,,,,,,,,
,,56cfd0ddd691bb000697baef,65af53a2be6af047326a9879,2024-01-22_23h51.23.665,bars,2023.2.3,Linux x86_64,59.88023952,657b66ea316d21385b68909f,0.0024,7.8967,y,7.8664,,,,,,,,,,,,,,,,,,,,,,,,,,,,,,,,,,,,,,,,,,,,,,,,,,,,,,,,,,,,,,,,,,,,,,,,,,,,,,,,,,,,,,,,,,,,,,,,
,,56cfd0ddd691bb000697baef,65af53a2be6af047326a9879,2024-01-22_23h51.23.665,bars,2023.2.3,Linux x86_64,59.88023952,657b66ea316d21385b68909f,,,,,,7.8973,368.9009,space,360.9797,,,,,,,,,,,,,,,,,,,,,,,,,,,,,,,,,,,,,,,,,,,,,,,,,,,,,,,,,,,,,,,,,,,,,,,,,,,,,,,,,,,,,,,,,,,
,,56cfd0ddd691bb000697baef,65af53a2be6af047326a9879,2024-01-22_23h51.23.665,bars,2023.2.3,Linux x86_64,59.88023952,657b66ea316d21385b68909f,,,,,,,,,,,368.9135,369.9034,369.9035,370.4041,370.4045,370.6554,370.6557,29,29,375.235,space,4.5411,,375.2353,378.9974,space,3.7081,,0,0,0,9,1,20,bars/single009.png,bars/mask006.png,,,,,,,,,,,,,,,,,,,,,,,,,,,,,,,,,,,,,,,,,,,,,,,,,,,,,,,,,,,,,,,,
,,56cfd0ddd691bb000697baef,65af53a2be6af047326a9879,2024-01-22_23h51.23.665,bars,2023.2.3,Linux x86_64,59.88023952,657b66ea316d21385b68909f,,,,,,,,,,,379.0358,380.0133,380.0134,380.5001,380.5002,380.7496,380.7496,29,209,386.0999,space,5.3422,,386.1,388.3217,space,2.1649,,0,1,1,8,1,160,bars/single008.png,bars/mask004.png,,,,,,,,,,,,,,,,,,,,,,,,,,,,,,,,,,,,,,,,,,,,,,,,,,,,,,,,,,,,,,,,
,,56cfd0ddd691bb000697baef,65af53a2be6af047326a9879,2024-01-22_23h51.23.665,bars,2023.2.3,Linux x86_64,59.88023952,657b66ea316d21385b68909f,,,,,,,,,,,388.3228,389.3224,389.3225,389.8242,389.8243,390.0758,390.0759,167,-13,394.2715,space,4.1855,,394.2716,396.9107,space,2.583,,0,2,2,6,1,175,bars/single006.png,bars/mask005.png,,,,,,,,,,,,,,,,,,,,,,,,,,,,,,,,,,,,,,,,,,,,,,,,,,,,,,,,,,,,,,,,
,,56cfd0ddd691bb000697baef,65af53a2be6af047326a9879,2024-01-22_23h51.23.665,bars,2023.2.3,Linux x86_64,59.88023952,657b66ea316d21385b68909f,,,,,,,,,,,396.9125,397.9144,397.9144,398.4147,398.4148,398.6648,398.6648,21,21,401.408,space,2.734,,401.4082,403.9629,space,2.5308,,0,3,3,3,1,20,bars/single003.png,bars/mask005.png,,,,,,,,,,,,,,,,,,,,,,,,,,,,,,,,,,,,,,,,,,,,,,,,,,,,,,,,,,,,,,,,
,,56cfd0ddd691bb000697baef,65af53a2be6af047326a9879,2024-01-22_23h51.23.665,bars,2023.2.3,Linux x86_64,59.88023952,657b66ea316d21385b68909f,,,,,,,,,,,403.9969,404.9707,404.9715,405.4681,405.4682,405.718,405.718,91,91,410.9338,space,5.2082,,410.9339,414.3749,space,3.3899,,0,4,4,5,1,55,bars/single005.png,bars/mask008.png,,,,,,,,,,,,,,,,,,,,,,,,,,,,,,,,,,,,,,,,,,,,,,,,,,,,,,,,,,,,,,,,
,,56cfd0ddd691bb000697baef,65af53a2be6af047326a9879,2024-01-22_23h51.23.665,bars,2023.2.3,Linux x86_64,59.88023952,657b66ea316d21385b68909f,,,,,,,,,,,414.4118,415.3825,415.3826,415.879,415.8791,416.1298,416.1299,89,89,419.4734,space,3.3275,,419.4735,421.8292,space,2.3355,,0,5,5,4,1,95,bars/single004.png,bars/mask004.png,,,,,,,,,,,,,,,,,,,,,,,,,,,,,,,,,,,,,,,,,,,,,,,,,,,,,,,,,,,,,,,,
,,56cfd0ddd691bb000697baef,65af53a2be6af047326a9879,2024-01-22_23h51.23.665,bars,2023.2.3,Linux x86_64,59.88023952,657b66ea316d21385b68909f,,,,,,,,,,,421.8664,422.8318,422.8318,423.3336,423.3336,423.5845,423.5846,8,8,427.2769,space,3.6788,,427.277,431.0883,space,3.755,,0,6,6,1,1,20,bars/single001.png,bars/mask006.png,,,,,,,,,,,,,,,,,,,,,,,,,,,,,,,,,,,,,,,,,,,,,,,,,,,,,,,,,,,,,,,,
,,56cfd0ddd691bb000697baef,65af53a2be6af047326a9879,2024-01-22_23h51.23.665,bars,2023.2.3,Linux x86_64,59.88023952,657b66ea316d21385b68909f,,,,,,,,,,,431.1253,432.0909,432.0911,432.5922,432.5923,432.8418,432.8418,0,180,437.1209,space,4.2682,,437.121,440.8155,space,3.65,,0,7,7,0,1,150,bars/single000.png,bars/mask006.png,,,,,,,,,,,,,,,,,,,,,,,,,,,,,,,,,,,,,,,,,,,,,,,,,,,,,,,,,,,,,,,,
,,56cfd0ddd691bb000697baef,65af53a2be6af047326a9879,2024-01-22_23h51.23.665,bars,2023.2.3,Linux x86_64,59.88023952,657b66ea316d21385b68909f,,,,,,,,,,,440.8518,441.8172,441.8172,442.3231,442.3231,442.5681,442.5682,153,153,447.2982,space,4.719,,447.2983,451.394,space,4.041,,0,8,8,2,1,145,bars/single002.png,bars/mask003.png,,,,,,,,,,,,,,,,,,,,,,,,,,,,,,,,,,,,,,,,,,,,,,,,,,,,,,,,,,,,,,,,
,,56cfd0ddd691bb000697baef,65af53a2be6af047326a9879,2024-01-22_23h51.23.665,bars,2023.2.3,Linux x86_64,59.88023952,657b66ea316d21385b68909f,,,,,,,,,,,451.4332,452.3965,452.3966,452.8971,452.8972,453.1479,453.1479,45,45,455.5219,space,2.3573,,455.5222,458.9142,space,3.3765,,0,9,9,7,1,45,bars/single007.png,bars/mask009.png,,,,,,,,,,,,,,,,,,,,,,,,,,,,,,,,,,,,,,,,,,,,,,,,,,,,,,,,,,,,,,,,
,,56cfd0ddd691bb000697baef,65af53a2be6af047326a9879,2024-01-22_23h51.23.665,bars,2023.2.3,Linux x86_64,59.88023952,657b66ea316d21385b68909f,,,,,,,,,,,,,,,,,,,,,,,,,,,,,,,,,,,,,458.9473,499.7784,space,40.8117,,,,,,,,,,,,,,,,,,,,,,,,,,,,,,,,,,,,,,,,,,,,,,,,,,,,,,,,,,,,
,,56cfd0ddd691bb000697baef,65af53a2be6af047326a9879,2024-01-22_23h51.23.665,bars,2023.2.3,Linux x86_64,59.88023952,657b66ea316d21385b68909f,,,,,,,,,,,,,,,,,,,,,,,,,,,,,,,,,,,,,,,,,,499.8264,503.6204,left,3.7684,,503.6208,9,1,504.6264,0,0,0,0,1,9,1,9,2,,,,,,,,,,,,,,,,,,,,,,,,,,,,,,,,,,,,,,,,,
,,56cfd0ddd691bb000697baef,65af53a2be6af047326a9879,2024-01-22_23h51.23.665,bars,2023.2.3,Linux x86_64,59.88023952,657b66ea316d21385b68909f,,,,,,,,,,,,,,,,,,,,,,,,,,,,,,,,,,,,,,,,,,504.6271,507.4142,left,2.7813,,507.4143,10,1,508.4162,0,1,1,1,1,10,0,10,1,,,,,,,,,,,,,,,,,,,,,,,,,,,,,,,,,,,,,,,,,
,,56cfd0ddd691bb000697baef,65af53a2be6af047326a9879,2024-01-22_23h51.23.665,bars,2023.2.3,Linux x86_64,59.88023952,657b66ea316d21385b68909f,,,,,,,,,,,,,,,,,,,,,,,,,,,,,,,,,,,,,,,,,,508.4169,510.2052,right,1.7785,,510.2053,2,2,511.2076,0,2,2,2,1,10,2,10,2,,,,,,,,,,,,,,,,,,,,,,,,,,,,,,,,,,,,,,,,,
,,56cfd0ddd691bb000697baef,65af53a2be6af047326a9879,2024-01-22_23h51.23.665,bars,2023.2.3,Linux x86_64,59.88023952,657b66ea316d21385b68909f,,,,,,,,,,,,,,,,,,,,,,,,,,,,,,,,,,,,,,,,,,511.2082,511.9159,left,0.6998,,511.916,7,1,512.9122,0,3,3,3,1,8,4,7,3,,,,,,,,,,,,,,,,,,,,,,,,,,,,,,,,,,,,,,,,,
,,56cfd0ddd691bb000697baef,65af53a2be6af047326a9879,2024-01-22_23h51.23.665,bars,2023.2.3,Linux x86_64,59.88023952,657b66ea316d21385b68909f,,,,,,,,,,,,,,,,,,,,,,,,,,,,,,,,,,,,,,,,,,512.9128,513.7972,left,0.8702,,513.7975,5,1,514.7999,0,4,4,4,1,6,2,5,1,,,,,,,,,,,,,,,,,,,,,,,,,,,,,,,,,,,,,,,,,
,,56cfd0ddd691bb000697baef,65af53a2be6af047326a9879,2024-01-22_23h51.23.665,bars,2023.2.3,Linux x86_64,59.88023952,657b66ea316d21385b68909f,,,,,,,,,,,,,,,,,,,,,,,,,,,,,,,,,,,,,,,,,,514.8006,515.7217,left,0.9122,,515.7218,4,1,516.7224,0,5,5,5,1,4,4,4,4,,,,,,,,,,,,,,,,,,,,,,,,,,,,,,,,,,,,,,,,,
,,56cfd0ddd691bb000697baef,65af53a2be6af047326a9879,2024-01-22_23h51.23.665,bars,2023.2.3,Linux x86_64,59.88023952,657b66ea316d21385b68909f,,,,,,,,,,,,,,,,,,,,,,,,,,,,,,,,,,,,,,,,,,516.7233,518.3945,left,1.6575,,518.3946,1,1,519.3972,0,6,6,6,1,2,2,1,2,,,,,,,,,,,,,,,,,,,,,,,,,,,,,,,,,,,,,,,,,
,,56cfd0ddd691bb000697baef,65af53a2be6af047326a9879,2024-01-22_23h51.23.665,bars,2023.2.3,Linux x86_64,59.88023952,657b66ea316d21385b68909f,,,,,,,,,,,,,,,,,,,,,,,,,,,,,,,,,,,,,,,,,,519.3979,519.8644,right,0.4509,,519.8645,1,2,520.8667,0,7,7,7,1,0,0,0,1,,,,,,,,,,,,,,,,,,,,,,,,,,,,,,,,,,,,,,,,,
,,56cfd0ddd691bb000697baef,65af53a2be6af047326a9879,2024-01-22_23h51.23.665,bars,2023.2.3,Linux x86_64,59.88023952,657b66ea316d21385b68909f,,,,,,,,,,,,,,,,,,,,,,,,,,,,,,,,,,,,,,,,,,520.8674,521.9087,left,1.0313,,521.9089,1,1,522.9065,0,8,8,8,1,0,2,1,0,,,,,,,,,,,,,,,,,,,,,,,,,,,,,,,,,,,,,,,,,
,,56cfd0ddd691bb000697baef,65af53a2be6af047326a9879,2024-01-22_23h51.23.665,bars,2023.2.3,Linux x86_64,59.88023952,657b66ea316d21385b68909f,,,,,,,,,,,,,,,,,,,,,,,,,,,,,,,,,,,,,,,,,,522.9068,524.5612,left,1.6407,,524.5613,2,1,525.5636,0,9,9,9,1,2,4,2,3,,,,,,,,,,,,,,,,,,,,,,,,,,,,,,,,,,,,,,,,,
,,56cfd0ddd691bb000697baef,65af53a2be6af047326a9879,2024-01-22_23h51.23.665,bars,2023.2.3,Linux x86_64,59.88023952,657b66ea316d21385b68909f,,,,,,,,,,,,,,,,,,,,,,,,,,,,,,,,,,,,,,,,,,525.5645,526.3171,left,0.7396,,526.3172,0,1,527.3184,0,10,10,10,1,0,2,0,3,,,,,,,,,,,,,,,,,,,,,,,,,,,,,,,,,,,,,,,,,
,,56cfd0ddd691bb000697baef,65af53a2be6af047326a9879,2024-01-22_23h51.23.665,bars,2023.2.3,Linux x86_64,59.88023952,657b66ea316d21385b68909f,,,,,,,,,,,,,,,,,,,,,,,,,,,,,,,,,,,,,,,,,,527.3192,528.5725,left,1.2395,,528.5726,0,1,529.5744,0,11,11,11,1,0,4,0,3,,,,,,,,,,,,,,,,,,,,,,,,,,,,,,,,,,,,,,,,,
,,56cfd0ddd691bb000697baef,65af53a2be6af047326a9879,2024-01-22_23h51.23.665,bars,2023.2.3,Linux x86_64,59.88023952,657b66ea316d21385b68909f,,,,,,,,,,,,,,,,,,,,,,,,,,,,,,,,,,,,,,,,,,529.5751,529.8924,right,0.3014,,529.8925,6,2,530.8949,0,12,12,12,1,2,6,1,6,,,,,,,,,,,,,,,,,,,,,,,,,,,,,,,,,,,,,,,,,
,,56cfd0ddd691bb000697baef,65af53a2be6af047326a9879,2024-01-22_23h51.23.665,bars,2023.2.3,Linux x86_64,59.88023952,657b66ea316d21385b68909f,,,,,,,,,,,,,,,,,,,,,,,,,,,,,,,,,,,,,,,,,,530.8958,532.6167,left,1.7061,,532.6167,1,1,533.619,0,13,13,13,1,0,4,1,3,,,,,,,,,,,,,,,,,,,,,,,,,,,,,,,,,,,,,,,,,
,,56cfd0ddd691bb000697baef,65af53a2be6af047326a9879,2024-01-22_23h51.23.665,bars,2023.2.3,Linux x86_64,59.88023952,657b66ea316d21385b68909f,,,,,,,,,,,,,,,,,,,,,,,,,,,,,,,,,,,,,,,,,,533.6196,534.8408,right,1.2053,,534.8409,7,2,535.841,0,14,14,14,1,2,6,2,7,,,,,,,,,,,,,,,,,,,,,,,,,,,,,,,,,,,,,,,,,
,,56cfd0ddd691bb000697baef,65af53a2be6af047326a9879,2024-01-22_23h51.23.665,bars,2023.2.3,Linux x86_64,59.88023952,657b66ea316d21385b68909f,,,,,,,,,,,,,,,,,,,,,,,,,,,,,,,,,,,,,,,,,,535.8415,536.7961,right,0.9367,,536.7962,9,2,537.7968,0,15,15,15,1,4,8,3,9,,,,,,,,,,,,,,,,,,,,,,,,,,,,,,,,,,,,,,,,,
,,56cfd0ddd691bb000697baef,65af53a2be6af047326a9879,2024-01-22_23h51.23.665,bars,2023.2.3,Linux x86_64,59.88023952,657b66ea316d21385b68909f,,,,,,,,,,,,,,,,,,,,,,,,,,,,,,,,,,,,,,,,,,537.7972,538.5542,right,0.75,,538.5543,7,2,539.5511,0,16,16,16,1,6,6,7,7,,,,,,,,,,,,,,,,,,,,,,,,,,,,,,,,,,,,,,,,,
,,56cfd0ddd691bb000697baef,65af53a2be6af047326a9879,2024-01-22_23h51.23.665,bars,2023.2.3,Linux x86_64,59.88023952,657b66ea316d21385b68909f,,,,,,,,,,,,,,,,,,,,,,,,,,,,,,,,,,,,,,,,,,539.5532,540.1538,right,0.5868,,540.1539,5,2,541.1566,0,17,17,17,1,8,4,9,5,,,,,,,,,,,,,,,,,,,,,,,,,,,,,,,,,,,,,,,,,
,,56cfd0ddd691bb000697baef,65af53a2be6af047326a9879,2024-01-22_23h51.23.665,bars,2023.2.3,Linux x86_64,59.88023952,657b66ea316d21385b68909f,,,,,,,,,,,,,,,,,,,,,,,,,,,,,,,,,,,,,,,,,,541.1574,541.775,left,0.6011,,541.7752,5,1,542.7766,0,18,18,18,1,6,2,5,1,,,,,,,,,,,,,,,,,,,,,,,,,,,,,,,,,,,,,,,,,
,,56cfd0ddd691bb000697baef,65af53a2be6af047326a9879,2024-01-22_23h51.23.665,bars,2023.2.3,Linux x86_64,59.88023952,657b66ea316d21385b68909f,,,,,,,,,,,,,,,,,,,,,,,,,,,,,,,,,,,,,,,,,,542.777,543.6969,left,0.9086,,543.697,7,1,544.699,0,19,19,19,1,8,0,7,0,,,,,,,,,,,,,,,,,,,,,,,,,,,,,,,,,,,,,,,,,
,,56cfd0ddd691bb000697baef,65af53a2be6af047326a9879,2024-01-22_23h51.23.665,bars,2023.2.3,Linux x86_64,59.88023952,657b66ea316d21385b68909f,,,,,,,,,,,,,,,,,,,,,,,,,,,,,,,,,,,,,,,,,,,,,,,,,,,,,,,,,,,,544.7013,574.9188,space,30.1895,,,,,,,,,,,,,,,,,,,,,,,,,,,,,,,,,,,,,
,,56cfd0ddd691bb000697baef,65af53a2be6af047326a9879,2024-01-22_23h51.23.665,bars,2023.2.3,Linux x86_64,59.88023952,657b66ea316d21385b68909f,,,,,,,,,,,576.6646,577.6564,,,578.1575,578.4076,,54,234,,,,,,,,,,,,,,,,bars/028.png,bars/mask008.png,,,,,,,,,,,,6,1,,,,,,,9,4,9,4,,,,,,574.9639,576.6541,space,1.6681,,577.6568,578.1574,578.4079,582.7901,space,4.3599,,582.7906,9,66,583.7907,583.7911,588.3197,space,4.5013,,0,0,0,0,1,45,120,,,,,,,,
,,56cfd0ddd691bb000697baef,65af53a2be6af047326a9879,2024-01-22_23h51.23.665,bars,2023.2.3,Linux x86_64,59.88023952,657b66ea316d21385b68909f,,,,,,,,,,,588.3531,589.3221,,,589.8235,590.0737,,132,132,,,,,,,,,,,,,,,,bars/034.png,bars/mask000.png,,,,,,,,,,,,5,1,,,,,,,7,2,7,0,,,,,,,,,,,589.3222,589.8234,590.0737,595.8901,space,5.8047,,595.8903,7,67,596.8928,596.8928,600.0007,space,3.0578,,0,1,1,1,1,125,65,,,,,,,,
,,56cfd0ddd691bb000697baef,65af53a2be6af047326a9879,2024-01-22_23h51.23.665,bars,2023.2.3,Linux x86_64,59.88023952,657b66ea316d21385b68909f,,,,,,,,,,,600.0313,601.0031,,,601.5053,601.7562,,66,66,,,,,,,,,,,,,,,,bars/012.png,bars/mask005.png,,,,,,,,,,,,2,1,,,,,,,9,0,8,1,,,,,,,,,,,601.0037,601.5053,601.7563,606.0695,space,4.302,,606.0696,24,51,607.0709,607.071,609.9452,space,2.8162,,0,2,2,2,1,90,15,,,,,,,,
,,56cfd0ddd691bb000697baef,65af53a2be6af047326a9879,2024-01-22_23h51.23.665,bars,2023.2.3,Linux x86_64,59.88023952,657b66ea316d21385b68909f,,,,,,,,,,,609.9459,610.9474,,,611.4489,611.7024,,96,96,,,,,,,,,,,,,,,,bars/018.png,bars/mask003.png,,,,,,,,,,,,2,2,,,,,,,7,2,8,2,,,,,,,,,,,610.9475,611.4488,611.7026,615.7343,space,4.0221,,615.7345,54,6,616.7301,616.7302,620.7247,space,3.9387,,0,3,3,3,1,150,90,,,,,,,,
,,56cfd0ddd691bb000697baef,65af53a2be6af047326a9879,2024-01-22_23h51.23.665,bars,2023.2.3,Linux x86_64,59.88023952,657b66ea316d21385b68909f,,,,,,,,,,,620.7579,621.7269,,,622.2295,622.4788,,134,134,,,,,,,,,,,,,,,,bars/003.png,bars/mask005.png,,,,,,,,,,,,3,2,,,,,,,9,4,9,4,,,,,,,,,,,621.727,622.2295,622.4788,625.22,space,2.7287,,625.2201,71,6,626.223,626.223,631.7209,space,5.4418,,0,4,4,4,1,25,140,,,,,,,,
,,56cfd0ddd691bb000697baef,65af53a2be6af047326a9879,2024-01-22_23h51.23.665,bars,2023.2.3,Linux x86_64,59.88023952,657b66ea316d21385b68909f,,,,,,,,,,,631.7543,632.7243,,,633.2261,633.4763,,133,-47,,,,,,,,,,,,,,,,bars/037.png,bars/mask007.png,,,,,,,,,,,,4,1,,,,,,,10,6,10,6,,,,,,,,,,,632.7243,633.226,633.4764,638.6298,space,5.1449,,638.6299,17,28,639.6261,639.6262,646.4451,space,6.7647,,0,5,5,5,1,150,105,,,,,,,,
,,56cfd0ddd691bb000697baef,65af53a2be6af047326a9879,2024-01-22_23h51.23.665,bars,2023.2.3,Linux x86_64,59.88023952,657b66ea316d21385b68909f,,,,,,,,,,,646.4848,647.4475,,,647.9486,648.2001,,93,93,,,,,,,,,,,,,,,,bars/022.png,bars/mask005.png,,,,,,,,,,,,8,1,,,,,,,8,4,9,6,,,,,,,,,,,647.4475,647.9486,648.2018,651.7267,space,3.5127,,651.7269,2,73,652.7309,652.7309,658.5788,space,5.7992,,0,6,6,6,1,95,20,,,,,,,,
,,56cfd0ddd691bb000697baef,65af53a2be6af047326a9879,2024-01-22_23h51.23.665,bars,2023.2.3,Linux x86_64,59.88023952,657b66ea316d21385b68909f,,,,,,,,,,,658.6187,659.5806,,,660.0821,660.3335,,124,124,,,,,,,,,,,,,,,,bars/020.png,bars/mask002.png,,,,,,,,,,,,7,1,,,,,,,10,2,10,2,,,,,,,,,,,659.5807,660.0821,660.3336,664.2944,space,3.9456,,664.2944,9,46,665.2971,665.2972,668.6398,space,3.2899,,0,7,7,7,1,115,170,,,,,,,,
,,56cfd0ddd691bb000697baef,65af53a2be6af047326a9879,2024-01-22_23h51.23.665,bars,2023.2.3,Linux x86_64,59.88023952,657b66ea316d21385b68909f,,,,,,,,,,,668.6404,669.6416,,,670.1433,670.3946,,37,217,,,,,,,,,,,,,,,,bars/043.png,bars/mask006.png,,,,,,,,,,,,8,1,,,,,,,10,4,10,4,,,,,,,,,,,669.6417,670.1432,670.3947,673.9212,space,3.5101,,673.9212,7,87,674.9239,674.9239,677.1628,space,2.1851,,0,8,8,8,1,30,130,,,,,,,,
,,56cfd0ddd691bb000697baef,65af53a2be6af047326a9879,2024-01-22_23h51.23.665,bars,2023.2.3,Linux x86_64,59.88023952,657b66ea316d21385b68909f,,,,,,,,,,,677.1635,678.166,,,678.6665,678.9238,,176,176,,,,,,,,,,,,,,,,bars/039.png,bars/mask001.png,,,,,,,,,,,,6,1,,,,,,,8,6,6,5,,,,,,,,,,,678.1661,678.6665,678.9239,682.177,space,3.2449,,682.1771,1,71,683.1795,683.1796,684.8847,space,1.6466,,0,9,9,9,1,175,105,,,,,,,,
,,56cfd0ddd691bb000697baef,65af53a2be6af047326a9879,2024-01-22_23h51.23.665,bars,2023.2.3,Linux x86_64,59.88023952,657b66ea316d21385b68909f,,,,,,,,,,,684.8859,685.8748,,,686.372,686.6228,,102,102,,,,,,,,,,,,,,,,bars/022.png,bars/mask004.png,,,,,,,,,,,,5,1,,,,,,,6,4,6,5,,,,,,,,,,,685.8748,686.372,686.6229,688.7957,space,2.1658,,688.7958,7,82,689.7974,689.7974,693.4747,space,3.6224,,0,10,10,10,1,95,20,,,,,,,,
,,56cfd0ddd691bb000697baef,65af53a2be6af047326a9879,2024-01-22_23h51.23.665,bars,2023.2.3,Linux x86_64,59.88023952,657b66ea316d21385b68909f,,,,,,,,,,,693.5088,694.4776,,,694.9785,695.2291,,175,-5,,,,,,,,,,,,,,,,bars/007.png,bars/mask006.png,,,,,,,,,,,,3,1,,,,,,,4,2,3,2,,,,,,,,,,,694.4777,694.9785,695.2292,698.5552,space,3.3196,,698.5552,0,60,699.5575,699.5575,703.6528,space,4.0428,,0,11,11,11,1,175,55,,,,,,,,
,,56cfd0ddd691bb000697baef,65af53a2be6af047326a9879,2024-01-22_23h51.23.665,bars,2023.2.3,Linux x86_64,59.88023952,657b66ea316d21385b68909f,,,,,,,,,,,703.6921,704.6545,,,705.1586,705.4065,,151,-29,,,,,,,,,,,,,,,,bars/043.png,bars/mask005.png,,,,,,,,,,,,1,2,,,,,,,2,0,3,2,,,,,,,,,,,704.6545,705.1585,705.4065,708.0136,space,2.5968,,708.0136,59,21,709.0164,709.0164,713.3127,space,4.237,,0,12,12,12,1,30,130,,,,,,,,
,,56cfd0ddd691bb000697baef,65af53a2be6af047326a9879,2024-01-22_23h51.23.665,bars,2023.2.3,Linux x86_64,59.88023952,657b66ea316d21385b68909f,,,,,,,,,,,713.3469,714.3142,,,714.8164,715.0675,,100,100,,,,,,,,,,,,,,,,bars/039.png,bars/mask007.png,,,,,,,,,,,,0,2,,,,,,,4,0,4,0,,,,,,,,,,,714.3142,714.8164,715.0675,716.6884,space,1.6087,,716.6885,75,5,717.6907,717.6907,719.8967,space,2.1579,,0,13,13,13,1,175,105,,,,,,,,
,,56cfd0ddd691bb000697baef,65af53a2be6af047326a9879,2024-01-22_23h51.23.665,bars,2023.2.3,Linux x86_64,59.88023952,657b66ea316d21385b68909f,,,,,,,,,,,719.8973,720.8992,,,721.4011,721.6517,,26,26,,,,,,,,,,,,,,,,bars/004.png,bars/mask009.png,,,,,,,,,,,,5,1,,,,,,,6,2,5,2,,,,,,,,,,,720.8993,721.401,721.6518,725.6788,space,4.0134,,725.679,1,81,726.6811,726.6813,729.1722,space,2.4319,,0,14,14,14,1,25,125,,,,,,,,
,,56cfd0ddd691bb000697baef,65af53a2be6af047326a9879,2024-01-22_23h51.23.665,bars,2023.2.3,Linux x86_64,59.88023952,657b66ea316d21385b68909f,,,,,,,,,,,729.1731,730.1751,,,730.6756,730.9277,,165,165,,,,,,,,,,,,,,,,bars/049.png,bars/mask004.png,,,,,,,,,,,,8,1,,,,,,,8,4,10,6,,,,,,,,,,,730.1752,730.6755,730.9278,732.7319,space,1.7917,,732.732,5,50,733.7345,733.7346,736.293,space,2.5063,,0,15,15,15,1,160,115,,,,,,,,
,,56cfd0ddd691bb000697baef,65af53a2be6af047326a9879,2024-01-22_23h51.23.665,bars,2023.2.3,Linux x86_64,59.88023952,657b66ea316d21385b68909f,,,,,,,,,,,736.2947,737.2946,,,737.797,738.048,,118,118,,,,,,,,,,,,,,,,bars/034.png,bars/mask002.png,,,,,,,,,,,,8,1,,,,,,,10,6,10,7,,,,,,,,,,,737.2946,737.797,738.048,741.072,space,3.0074,,741.0721,7,53,742.0747,742.0748,744.0677,space,1.9458,,0,16,16,16,1,125,65,,,,,,,,
,,56cfd0ddd691bb000697baef,65af53a2be6af047326a9879,2024-01-22_23h51.23.665,bars,2023.2.3,Linux x86_64,59.88023952,657b66ea316d21385b68909f,,,,,,,,,,,744.0691,745.0656,,,745.5669,745.8177,,177,177,,,,,,,,,,,,,,,,bars/011.png,bars/mask000.png,,,,,,,,,,,,3,1,,,,,,,8,4,8,5,,,,,,,,,,,745.0657,745.5667,745.8178,747.2549,space,1.4219,,747.2551,17,88,748.2574,748.2575,749.3442,space,1.0619,,0,17,17,17,1,160,85,,,,,,,,
,,56cfd0ddd691bb000697baef,65af53a2be6af047326a9879,2024-01-22_23h51.23.665,bars,2023.2.3,Linux x86_64,59.88023952,657b66ea316d21385b68909f,,,,,,,,,,,749.3454,750.3466,,,750.8482,751.0992,,68,68,,,,,,,,,,,,,,,,bars/012.png,bars/mask004.png,,,,,,,,,,,,1,1,,,,,,,6,6,5,6,,,,,,,,,,,750.3467,750.8481,751.0993,753.6739,space,2.5598,,753.6739,22,53,754.6758,754.6758,756.5814,space,1.8479,,0,18,18,18,1,90,15,,,,,,,,
,,56cfd0ddd691bb000697baef,65af53a2be6af047326a9879,2024-01-22_23h51.23.665,bars,2023.2.3,Linux x86_64,59.88023952,657b66ea316d21385b68909f,,,,,,,,,,,756.5822,757.5836,,,758.0853,758.3275,,29,29,,,,,,,,,,,,,,,,bars/007.png,bars/mask005.png,,,,,,,,,,,,1,2,,,,,,,8,8,8,8,,,,,,,,,,,757.5838,758.0852,758.3276,762.9818,space,4.6397,,762.9819,34,26,763.9847,763.9847,765.6386,space,1.594,,0,19,19,19,1,175,55,,,,,,,,
,,56cfd0ddd691bb000697baef,65af53a2be6af047326a9879,2024-01-22_23h51.23.665,bars,2023.2.3,Linux x86_64,59.88023952,657b66ea316d21385b68909f,,,,,,,,,,,765.6395,766.6412,,,767.1424,767.3936,,138,138,,,,,,,,,,,,,,,,bars/037.png,bars/mask004.png,,,,,,,,,,,,6,1,,,,,,,10,6,10,5,,,,,,,,,,,766.6413,767.1424,767.3937,770.8367,space,3.4332,,770.8367,12,33,771.8397,771.8398,774.5468,space,2.6488,,0,20,20,20,1,150,105,,,,,,,,
,,56cfd0ddd691bb000697baef,65af53a2be6af047326a9879,2024-01-22_23h51.23.665,bars,2023.2.3,Linux x86_64,59.88023952,657b66ea316d21385b68909f,,,,,,,,,,,774.5481,775.5497,,,776.0516,776.3011,,125,125,,,,,,,,,,,,,,,,bars/030.png,bars/mask003.png,,,,,,,,,,,,4,1,,,,,,,8,8,8,8,,,,,,,,,,,775.5497,776.0515,776.3012,780.9481,space,4.635,,780.9481,15,60,781.9509,781.9509,784.9585,space,2.9537,,0,21,21,21,1,140,65,,,,,,,,
,,56cfd0ddd691bb000697baef,65af53a2be6af047326a9879,2024-01-22_23h51.23.665,bars,2023.2.3,Linux x86_64,59.88023952,657b66ea316d21385b68909f,,,,,,,,,,,784.9592,785.9612,,,786.4627,786.7138,,157,157,,,,,,,,,,,,,,,,bars/010.png,bars/mask000.png,,,,,,,,,,,,3,1,,,,,,,6,10,4,10,,,,,,,,,,,785.9613,786.4626,786.7139,788.5178,space,1.7887,,788.5179,8,78,789.5207,789.5208,791.0662,space,1.5306,,0,22,22,22,1,165,55,,,,,,,,
,,56cfd0ddd691bb000697baef,65af53a2be6af047326a9879,2024-01-22_23h51.23.665,bars,2023.2.3,Linux x86_64,59.88023952,657b66ea316d21385b68909f,,,,,,,,,,,791.0669,792.0613,,,792.5631,792.8135,,163,-17,,,,,,,,,,,,,,,,bars/033.png,bars/mask008.png,,,,,,,,,,,,7,2,,,,,,,4,10,4,9,,,,,,,,,,,792.0613,792.563,792.8136,794.8361,space,2.0103,,794.8362,42,8,795.839,795.839,797.7109,space,1.8207,,0,23,23,23,1,25,155,,,,,,,,
,,56cfd0ddd691bb000697baef,65af53a2be6af047326a9879,2024-01-22_23h51.23.665,bars,2023.2.3,Linux x86_64,59.88023952,657b66ea316d21385b68909f,,,,,,,,,,,797.7117,798.7126,,,799.2147,799.4645,,76,76,,,,,,,,,,,,,,,,bars/046.png,bars/mask002.png,,,,,,,,,,,,6,2,,,,,,,6,8,7,8,,,,,,,,,,,798.7126,799.2147,799.4645,802.9406,space,3.463,,802.9407,79,9,803.944,803.9442,805.6492,space,1.6499,,0,24,24,24,1,155,85,,,,,,,,
,,56cfd0ddd691bb000697baef,65af53a2be6af047326a9879,2024-01-22_23h51.23.665,bars,2023.2.3,Linux x86_64,59.88023952,657b66ea316d21385b68909f,,,,,,,,,,,805.6498,806.6516,,,807.1526,807.4032,,175,-5,,,,,,,,,,,,,,,,bars/045.png,bars/mask000.png,,,,,,,,,,,,2,2,,,,,,,8,6,9,4,,,,,,,,,,,806.6516,807.1526,807.4032,811.7817,space,4.3653,,811.7818,75,15,812.7848,812.7848,813.9547,space,1.1114,,0,25,25,25,1,100,10,,,,,,,,
,,56cfd0ddd691bb000697baef,65af53a2be6af047326a9879,2024-01-22_23h51.23.665,bars,2023.2.3,Linux x86_64,59.88023952,657b66ea316d21385b68909f,,,,,,,,,,,813.955,814.9579,,,815.4587,815.7088,,23,23,,,,,,,,,,,,,,,,bars/022.png,bars/mask008.png,,,,,,,,,,,,5,2,,,,,,,10,4,10,5,,,,,,,,,,,814.958,815.4586,815.7089,818.9191,space,3.2008,,818.9192,72,3,819.921,819.921,820.8979,space,0.9319,,0,26,26,26,1,95,20,,,,,,,,
,,56cfd0ddd691bb000697baef,65af53a2be6af047326a9879,2024-01-22_23h51.23.665,bars,2023.2.3,Linux x86_64,59.88023952,657b66ea316d21385b68909f,,,,,,,,,,,820.8989,821.8929,,,822.3947,822.6451,,28,28,,,,,,,,,,,,,,,,bars/031.png,bars/mask006.png,,,,,,,,,,,,4,2,,,,,,,8,6,9,5,,,,,,,,,,,821.8929,822.3947,822.6452,827.0917,space,4.4325,,827.0917,88,7,828.0933,828.0933,829.1308,space,0.9904,,0,27,27,27,1,120,35,,,,,,,,
,,56cfd0ddd691bb000697baef,65af53a2be6af047326a9879,2024-01-22_23h51.23.665,bars,2023.2.3,Linux x86_64,59.88023952,657b66ea316d21385b68909f,,,,,,,,,,,829.1321,830.1334,,,830.6339,830.8846,,79,79,,,,,,,,,,,,,,,,bars/038.png,bars/mask009.png,,,,,,,,,,,,7,2,,,,,,,10,8,10,10,,,,,,,,,,,830.1335,830.6339,830.8846,833.6596,space,2.7592,,833.6597,86,9,834.6651,834.6652,835.9647,space,1.2428,,0,28,28,28,1,165,70,,,,,,,,
,,56cfd0ddd691bb000697baef,65af53a2be6af047326a9879,2024-01-22_23h51.23.665,bars,2023.2.3,Linux x86_64,59.88023952,657b66ea316d21385b68909f,,,,,,,,,,,835.9653,836.9683,,,837.4695,837.7197,,6,6,,,,,,,,,,,,,,,,bars/036.png,bars/mask003.png,,,,,,,,,,,,3,2,,,,,,,8,6,10,6,,,,,,,,,,,836.9684,837.4694,837.7199,840.1452,space,2.4202,,840.1454,41,14,841.1459,841.1461,843.8549,space,2.6621,,0,29,29,29,1,145,20,,,,,,,,
,,56cfd0ddd691bb000697baef,65af53a2be6af047326a9879,2024-01-22_23h51.23.665,bars,2023.2.3,Linux x86_64,59.88023952,657b66ea316d21385b68909f,,,,,,,,,,,843.8904,844.856,,,845.3585,845.6079,,1,1,,,,,,,,,,,,,,,,bars/008.png,bars/mask001.png,,,,,,,,,,,,9,2,,,,,,,6,8,7,9,,,,,,,,,,,844.8561,845.3584,845.6079,848.4659,space,2.8465,,848.466,71,1,849.4688,849.4688,853.6811,space,4.1581,,0,30,30,30,1,110,0,,,,,,,,
,,56cfd0ddd691bb000697baef,65af53a2be6af047326a9879,2024-01-22_23h51.23.665,bars,2023.2.3,Linux x86_64,59.88023952,657b66ea316d21385b68909f,,,,,,,,,,,853.7208,854.6834,,,855.1841,855.4354,,0,180,,,,,,,,,,,,,,,,bars/012.png,bars/mask001.png,,,,,,,,,,,,3,2,,,,,,,4,6,3,6,,,,,,,,,,,854.6834,855.1841,855.4354,858.0429,space,2.5915,,858.043,90,15,859.0457,859.0458,863.8787,space,4.7924,,0,31,31,31,1,90,15,,,,,,,,
,,56cfd0ddd691bb000697baef,65af53a2be6af047326a9879,2024-01-22_23h51.23.665,bars,2023.2.3,Linux x86_64,59.88023952,657b66ea316d21385b68909f,,,,,,,,,,,863.9122,864.8953,,,865.3794,865.6297,,150,-30,,,,,,,,,,,,,,,,bars/043.png,bars/mask001.png,,,,,,,,,,,,1,2,,,,,,,6,4,5,3,,,,,,,,,,,864.8953,865.3794,865.6298,867.9543,space,2.3076,,867.9544,60,20,868.9559,868.9559,872.183,space,3.1798,,0,32,32,32,1,30,130,,,,,,,,
,,56cfd0ddd691bb000697baef,65af53a2be6af047326a9879,2024-01-22_23h51.23.665,bars,2023.2.3,Linux x86_64,59.88023952,657b66ea316d21385b68909f,,,,,,,,,,,872.222,873.1838,,,873.6862,873.9357,,28,208,,,,,,,,,,,,,,,,bars/016.png,bars/mask003.png,,,,,,,,,,,,6,1,,,,,,,8,2,10,2,,,,,,,,,,,873.1839,873.6861,873.9358,877.4808,space,3.5299,,877.4809,12,43,878.4822,878.4824,880.1531,space,1.6081,,0,33,33,33,1,40,165,,,,,,,,
,,56cfd0ddd691bb000697baef,65af53a2be6af047326a9879,2024-01-22_23h51.23.665,bars,2023.2.3,Linux x86_64,59.88023952,657b66ea316d21385b68909f,,,,,,,,,,,880.1542,881.1556,,,881.6567,881.909,,21,21,,,,,,,,,,,,,,,,bars/004.png,bars/mask004.png,,,,,,,,,,,,5,1,,,,,,,6,0,6,0,,,,,,,,,,,881.1557,881.6567,881.9091,883.6128,space,1.6872,,883.6128,4,76,884.6156,884.6156,885.6527,space,0.9644,,0,34,34,34,1,25,125,,,,,,,,
,,56cfd0ddd691bb000697baef,65af53a2be6af047326a9879,2024-01-22_23h51.23.665,bars,2023.2.3,Linux x86_64,59.88023952,657b66ea316d21385b68909f,,,,,,,,,,,885.6535,886.6546,,,887.1555,887.407,,23,23,,,,,,,,,,,,,,,,bars/006.png,bars/mask000.png,,,,,,,,,,,,1,1,,,,,,,4,0,1,0,,,,,,,,,,,886.6547,887.1554,887.407,890.6653,space,3.2436,,890.6653,12,77,891.6688,891.6689,894.1921,space,2.461,,0,35,35,35,1,35,100,,,,,,,,
,,56cfd0ddd691bb000697baef,65af53a2be6af047326a9879,2024-01-22_23h51.23.665,bars,2023.2.3,Linux x86_64,59.88023952,657b66ea316d21385b68909f,,,,,,,,,,,894.2305,895.195,,,895.6958,895.9464,,120,-60,,,,,,,,,,,,,,,,bars/031.png,bars/mask001.png,,,,,,,,,,,,6,1,,,,,,,6,2,6,3,,,,,,,,,,,895.195,895.6957,895.9465,899.7268,space,3.7732,,899.7269,0,85,900.7267,900.7267,903.1826,space,2.3996,,0,36,36,36,1,120,35,,,,,,,,
,,56cfd0ddd691bb000697baef,65af53a2be6af047326a9879,2024-01-22_23h51.23.665,bars,2023.2.3,Linux x86_64,59.88023952,657b66ea316d21385b68909f,,,,,,,,,,,903.1832,904.1855,,,904.6875,904.938,,110,110,,,,,,,,,,,,,,,,bars/045.png,bars/mask001.png,,,,,,,,,,,,3,1,,,,,,,4,0,5,1,,,,,,,,,,,904.1856,904.6874,904.9381,907.4953,space,2.544,,907.4954,10,80,908.4973,908.4974,909.9011,space,1.3466,,0,37,37,37,1,100,10,,,,,,,,
,,56cfd0ddd691bb000697baef,65af53a2be6af047326a9879,2024-01-22_23h51.23.665,bars,2023.2.3,Linux x86_64,59.88023952,657b66ea316d21385b68909f,,,,,,,,,,,909.9018,910.9041,,,911.4063,911.6559,,172,172,,,,,,,,,,,,,,,,bars/048.png,bars/mask001.png,,,,,,,,,,,,0,2,,,,,,,2,0,1,0,,,,,,,,,,,910.9041,911.4063,911.6559,914.9817,space,3.3127,,914.9818,58,3,915.9851,915.9852,918.8472,space,2.8083,,0,38,38,38,1,50,175,,,,,,,,
,,56cfd0ddd691bb000697baef,65af53a2be6af047326a9879,2024-01-22_23h51.23.665,bars,2023.2.3,Linux x86_64,59.88023952,657b66ea316d21385b68909f,,,,,,,,,,,918.8874,919.8626,,,920.3633,920.5981,,129,129,,,,,,,,,,,,,,,,bars/017.png,bars/mask004.png,,,,,,,,,,,,0,1,,,,,,,0,2,0,2,,,,,,,,,,,919.8626,920.3631,920.5981,923.4064,space,2.8003,,923.4064,16,84,924.4118,924.4119,926.1645,space,1.6981,,0,39,39,39,1,145,45,,,,,,,,
,,56cfd0ddd691bb000697baef,65af53a2be6af047326a9879,2024-01-22_23h51.23.665,bars,2023.2.3,Linux x86_64,59.88023952,657b66ea316d21385b68909f,,,,,,,,,,,926.1664,927.166,,,927.667,927.9182,,90,90,,,,,,,,,,,,,,,,bars/045.png,bars/mask002.png,,,,,,,,,,,,1,1,,,,,,,0,0,1,2,,,,,,,,,,,927.1661,927.6669,927.9183,930.8925,space,2.9587,,930.8926,10,80,931.8956,931.8957,932.898,space,0.9511,,0,40,40,40,1,100,10,,,,,,,,
,,56cfd0ddd691bb000697baef,65af53a2be6af047326a9879,2024-01-22_23h51.23.665,bars,2023.2.3,Linux x86_64,59.88023952,657b66ea316d21385b68909f,,,,,,,,,,,932.8984,933.9015,,,934.3896,934.6356,,28,208,,,,,,,,,,,,,,,,bars/023.png,bars/mask009.png,,,,,,,,,,,,0,1,,,,,,,0,0,0,0,,,,,,,,,,,933.9016,934.3896,934.6357,937.1767,space,2.5322,,937.1768,8,87,938.1789,938.179,939.082,space,0.8471,,0,41,41,41,1,20,115,,,,,,,,
,,56cfd0ddd691bb000697baef,65af53a2be6af047326a9879,2024-01-22_23h51.23.665,bars,2023.2.3,Linux x86_64,59.88023952,657b66ea316d21385b68909f,,,,,,,,,,,939.0835,940.0838,,,940.5853,940.8359,,167,-13,,,,,,,,,,,,,,,,bars/014.png,bars/mask005.png,,,,,,,,,,,,1,2,,,,,,,2,0,1,1,,,,,,,,,,,940.0839,940.5851,940.8359,943.1108,space,2.2575,,943.111,87,13,944.1114,944.1114,945.2991,space,1.1576,,0,42,42,42,1,80,0,,,,,,,,
,,56cfd0ddd691bb000697baef,65af53a2be6af047326a9879,2024-01-22_23h51.23.665,bars,2023.2.3,Linux x86_64,59.88023952,657b66ea316d21385b68909f,,,,,,,,,,,945.2998,946.3018,,,946.804,947.0535,,15,15,,,,,,,,,,,,,,,,bars/014.png,bars/mask003.png,,,,,,,,,,,,0,2,,,,,,,0,0,0,0,,,,,,,,,,,946.3018,946.8029,947.0536,950.2957,space,3.2309,,950.2958,65,15,951.3025,951.3025,952.0175,space,0.6661,,0,43,43,43,1,80,0,,,,,,,,
,,56cfd0ddd691bb000697baef,65af53a2be6af047326a9879,2024-01-22_23h51.23.665,bars,2023.2.3,Linux x86_64,59.88023952,657b66ea316d21385b68909f,,,,,,,,,,,952.0183,953.0195,,,953.5242,953.7721,,129,-51,,,,,,,,,,,,,,,,bars/023.png,bars/mask006.png,,,,,,,,,,,,1,2,,,,,,,2,0,2,1,,,,,,,,,,,953.0195,953.524,953.7721,957.7829,space,3.9991,,957.783,71,14,958.785,958.785,959.6551,space,0.8267,,0,44,44,44,1,20,115,,,,,,,,
,,56cfd0ddd691bb000697baef,65af53a2be6af047326a9879,2024-01-22_23h51.23.665,bars,2023.2.3,Linux x86_64,59.88023952,657b66ea316d21385b68909f,,,,,,,,,,,959.6555,960.6576,,,961.159,961.4096,,171,-9,,,,,,,,,,,,,,,,bars/007.png,bars/mask008.png,,,,,,,,,,,,3,1,,,,,,,4,2,4,2,,,,,,,,,,,960.6577,961.1589,961.4096,964.5684,space,3.1453,,964.5685,4,64,965.5715,965.5716,967.1759,space,1.5461,,0,45,45,45,1,175,55,,,,,,,,
,,56cfd0ddd691bb000697baef,65af53a2be6af047326a9879,2024-01-22_23h51.23.665,bars,2023.2.3,Linux x86_64,59.88023952,657b66ea316d21385b68909f,,,,,,,,,,,967.1766,968.1786,,,968.6797,968.9301,,177,177,,,,,,,,,,,,,,,,bars/021.png,bars/mask002.png,,,,,,,,,,,,1,1,,,,,,,2,4,2,4,,,,,,,,,,,968.1787,968.6797,968.9302,971.2737,space,2.3344,,971.2737,22,73,972.2721,972.2721,973.6617,space,1.3334,,0,46,46,46,1,155,70,,,,,,,,
,,56cfd0ddd691bb000697baef,65af53a2be6af047326a9879,2024-01-22_23h51.23.665,bars,2023.2.3,Linux x86_64,59.88023952,657b66ea316d21385b68909f,,,,,,,,,,,973.6623,974.6626,,,975.1644,975.4152,,63,63,,,,,,,,,,,,,,,,bars/044.png,bars/mask008.png,,,,,,,,,,,,2,1,,,,,,,4,2,4,2,,,,,,,,,,,974.6627,975.1644,975.4153,977.9055,space,2.474,,977.9056,12,88,978.9079,978.9079,983.8211,space,4.8546,,0,47,47,47,1,75,155,,,,,,,,
,,56cfd0ddd691bb000697baef,65af53a2be6af047326a9879,2024-01-22_23h51.23.665,bars,2023.2.3,Linux x86_64,59.88023952,657b66ea316d21385b68909f,,,,,,,,,,,983.859,984.824,,,985.3249,985.5759,,15,195,,,,,,,,,,,,,,,,bars/023.png,bars/mask008.png,,,,,,,,,,,,4,1,,,,,,,6,0,5,0,,,,,,,,,,,984.8241,985.3248,985.576,989.7882,space,4.1922,,989.7883,5,80,990.7902,990.7903,991.6931,space,0.8468,,0,48,48,48,1,20,115,,,,,,,,
,,56cfd0ddd691bb000697baef,65af53a2be6af047326a9879,2024-01-22_23h51.23.665,bars,2023.2.3,Linux x86_64,59.88023952,657b66ea316d21385b68909f,,,,,,,,,,,991.6937,992.6959,,,993.196,993.447,,155,-25,,,,,,,,,,,,,,,,bars/046.png,bars/mask007.png,,,,,,,,,,,,6,1,,,,,,,4,0,6,0,,,,,,,,,,,992.6959,993.1959,993.447,997.3271,space,3.87,,997.3272,0,70,998.327,998.327,1000.6516,space,2.2806,,0,49,49,49,1,155,85,,,,,,,,
,,56cfd0ddd691bb000697baef,65af53a2be6af047326a9879,2024-01-22_23h51.23.665,bars,2023.2.3,Linux x86_64,59.88023952,657b66ea316d21385b68909f,,,,,,,,,,,,,,,,,,,,,,,,,,,,,,,,,,,,,,,,,,,,,,,,,,,,,,,,,,,,,,,,,,,,,,,,,,,,,,,,,,,,,,,,,,,,,1000.6535,1060.6497,0,0,0,4,1,sequence_tables/blk027.csv
,,56cfd0ddd691bb000697baef,65af53a2be6af047326a9879,2024-01-22_23h51.23.665,bars,2023.2.3,Linux x86_64,59.88023952,657b66ea316d21385b68909f,,,,,,,,,,,1066.8001,1067.7517,,,1068.2531,1068.5037,,155,-25,,,,,,,,,,,,,,,,bars/004.png,bars/mask002.png,,,,,,,,,,,,0,2,,,,,,,8,4,8,5,,,,,,1060.6906,1066.7492,space,6.0429,,1067.7518,1068.2531,1068.5038,1071.0608,space,2.5399,,1071.0608,50,30,1072.0633,1072.0633,1072.0931,,,,0,0,0,0,1,25,125,,,,,,,,
,,56cfd0ddd691bb000697baef,65af53a2be6af047326a9879,2024-01-22_23h51.23.665,bars,2023.2.3,Linux x86_64,59.88023952,657b66ea316d21385b68909f,,,,,,,,,,,1072.0939,1073.0822,,,1073.5734,1073.8175,,16,16,,,,,,,,,,,,,,,,bars/013.png,bars/mask008.png,,,,,,,,,,,,6,2,,,,,,,10,6,10,8,,,,,,,,,,,1073.0822,1073.5733,1073.8176,1076.1753,space,2.3513,,1076.1755,59,6,1077.177,1077.1771,1077.2138,,,,0,1,1,1,1,75,10,,,,,,,,
,,56cfd0ddd691bb000697baef,65af53a2be6af047326a9879,2024-01-22_23h51.23.665,bars,2023.2.3,Linux x86_64,59.88023952,657b66ea316d21385b68909f,,,,,,,,,,,1077.2144,1078.2131,,,1078.7146,1078.9654,,110,-70,,,,,,,,,,,,,,,,bars/015.png,bars/mask009.png,,,,,,,,,,,,10,1,,,,,,,10,4,10,5,,,,,,,,,,,1078.2131,1078.7145,1078.9654,1084.1461,space,5.1648,,1084.1462,0,50,1085.1495,1085.1495,1085.1908,,,,0,2,2,2,1,110,160,,,,,,,,
,,56cfd0ddd691bb000697baef,65af53a2be6af047326a9879,2024-01-22_23h51.23.665,bars,2023.2.3,Linux x86_64,59.88023952,657b66ea316d21385b68909f,,,,,,,,,,,1085.1916,1086.1862,,,1086.6872,1086.9375,,120,-60,,,,,,,,,,,,,,,,bars/024.png,bars/mask001.png,,,,,,,,,,,,8,1,,,,,,,8,6,8,5,,,,,,,,,,,1086.1862,1086.6872,1086.9376,1096.1959,space,9.2481,,1096.1959,0,50,1097.1989,1097.199,1097.2326,,,,0,3,3,3,1,120,170,,,,,,,,
,,56cfd0ddd691bb000697baef,65af53a2be6af047326a9879,2024-01-22_23h51.23.665,bars,2023.2.3,Linux x86_64,59.88023952,657b66ea316d21385b68909f,,,,,,,,,,,1097.2332,1098.2348,,,1098.736,1098.9874,,118,-62,,,,,,,,,,,,,,,,bars/002.png,bars/mask003.png,,,,,,,,,,,,6,1,,,,,,,10,8,10,9,,,,,,,,,,,1098.2348,1098.736,1098.9875,1104.0521,space,5.0536,,1104.0521,12,33,1105.0544,1105.0545,1105.0875,,,,0,4,4,4,1,130,85,,,,,,,,
,,56cfd0ddd691bb000697baef,65af53a2be6af047326a9879,2024-01-22_23h51.23.665,bars,2023.2.3,Linux x86_64,59.88023952,657b66ea316d21385b68909f,,,,,,,,,,,1105.0883,1106.0915,,,1106.5909,1106.8416,,64,64,,,,,,,,,,,,,,,,bars/025.png,bars/mask005.png,,,,,,,,,,,,2,2,,,,,,,8,10,8,10,,,,,,,,,,,1106.0915,1106.5908,1106.8416,1109.8067,space,2.9558,,1109.8067,41,24,1110.8029,1110.803,1110.8462,,,,0,5,5,5,1,105,40,,,,,,,,
,,56cfd0ddd691bb000697baef,65af53a2be6af047326a9879,2024-01-22_23h51.23.665,bars,2023.2.3,Linux x86_64,59.88023952,657b66ea316d21385b68909f,,,,,,,,,,,1110.8469,1111.839,,,1112.3407,1112.5907,,21,201,,,,,,,,,,,,,,,,bars/007.png,bars/mask002.png,,,,,,,,,,,,1,1,,,,,,,10,10,10,10,,,,,,,,,,,1111.839,1112.3406,1112.5907,1116.6854,space,4.0798,,1116.6855,26,34,1117.6888,1117.6888,1117.7305,,,,0,6,6,6,1,175,55,,,,,,,,
,,56cfd0ddd691bb000697baef,65af53a2be6af047326a9879,2024-01-22_23h51.23.665,bars,2023.2.3,Linux x86_64,59.88023952,657b66ea316d21385b68909f,,,,,,,,,,,1117.7312,1118.725,,,1119.2257,1119.4771,,27,27,,,,,,,,,,,,,,,,bars/016.png,bars/mask007.png,,,,,,,,,,,,4,1,,,,,,,8,10,7,10,,,,,,,,,,,1118.7251,1119.2256,1119.4772,1122.703,space,3.2155,,1122.7031,13,42,1123.705,1123.7051,1123.7383,,,,0,7,7,7,1,40,165,,,,,,,,
,,56cfd0ddd691bb000697baef,65af53a2be6af047326a9879,2024-01-22_23h51.23.665,bars,2023.2.3,Linux x86_64,59.88023952,657b66ea316d21385b68909f,,,,,,,,,,,1123.7396,1124.7409,,,1125.2427,1125.4934,,48,228,,,,,,,,,,,,,,,,bars/018.png,bars/mask008.png,,,,,,,,,,,,0,2,,,,,,,6,10,6,10,,,,,,,,,,,1124.7409,1125.2427,1125.4934,1129.5037,space,3.9949,,1129.5038,78,42,1130.5075,1130.5076,1130.5493,,,,0,8,8,8,1,150,90,,,,,,,,
,,56cfd0ddd691bb000697baef,65af53a2be6af047326a9879,2024-01-22_23h51.23.665,bars,2023.2.3,Linux x86_64,59.88023952,657b66ea316d21385b68909f,,,,,,,,,,,1130.5502,1131.5428,,,1132.0447,1132.2962,,54,234,,,,,,,,,,,,,,,,bars/019.png,bars/mask003.png,,,,,,,,,,,,6,1,,,,,,,8,8,8,8,,,,,,,,,,,1131.5428,1132.0447,1132.2962,1136.1064,space,3.7864,,1136.1065,9,51,1137.1082,1137.1083,1137.1484,,,,0,9,9,9,1,45,105,,,,,,,,
,,56cfd0ddd691bb000697baef,65af53a2be6af047326a9879,2024-01-22_23h51.23.665,bars,2023.2.3,Linux x86_64,59.88023952,657b66ea316d21385b68909f,,,,,,,,,,,1137.1491,1138.1453,,,1138.646,1138.8978,,147,-33,,,,,,,,,,,,,,,,bars/024.png,bars/mask000.png,,,,,,,,,,,,2,2,,,,,,,6,10,4,10,,,,,,,,,,,1138.1454,1138.6459,1138.8979,1144.9642,space,6.0505,,1144.9644,27,23,1145.9657,1145.9657,1146.0078,,,,0,10,10,10,1,120,170,,,,,,,,
,,56cfd0ddd691bb000697baef,65af53a2be6af047326a9879,2024-01-22_23h51.23.665,bars,2023.2.3,Linux x86_64,59.88023952,657b66ea316d21385b68909f,,,,,,,,,,,1146.0083,1147.0019,,,1147.5039,1147.7547,,144,-36,,,,,,,,,,,,,,,,bars/020.png,bars/mask005.png,,,,,,,,,,,,1,2,,,,,,,4,8,3,10,,,,,,,,,,,1147.002,1147.5038,1147.7547,1151.883,space,4.1141,,1151.883,29,26,1152.8846,1152.8846,1152.92,,,,0,11,11,11,1,115,170,,,,,,,,
,,56cfd0ddd691bb000697baef,65af53a2be6af047326a9879,2024-01-22_23h51.23.665,bars,2023.2.3,Linux x86_64,59.88023952,657b66ea316d21385b68909f,,,,,,,,,,,1152.9205,1153.9214,,,1154.4229,1154.6742,,177,-3,,,,,,,,,,,,,,,,bars/007.png,bars/mask006.png,,,,,,,,,,,,6,1,,,,,,,6,6,6,5,,,,,,,,,,,1153.9216,1154.4229,1154.6742,1157.8037,space,3.1207,,1157.8037,2,58,1158.8007,1158.8008,1158.8414,,,,0,12,12,12,1,175,55,,,,,,,,
,,56cfd0ddd691bb000697baef,65af53a2be6af047326a9879,2024-01-22_23h51.23.665,bars,2023.2.3,Linux x86_64,59.88023952,657b66ea316d21385b68909f,,,,,,,,,,,1158.8421,1159.8372,,,1160.3385,1160.5897,,171,171,,,,,,,,,,,,,,,,bars/011.png,bars/mask006.png,,,,,,,,,,,,4,1,,,,,,,8,8,7,7,,,,,,,,,,,1159.8374,1160.3385,1160.5898,1163.0149,space,2.4179,,1163.015,11,86,1164.0151,1164.0153,1164.0166,,,,0,13,13,13,1,160,85,,,,,,,,
,,56cfd0ddd691bb000697baef,65af53a2be6af047326a9879,2024-01-22_23h51.23.665,bars,2023.2.3,Linux x86_64,59.88023952,657b66ea316d21385b68909f,,,,,,,,,,,1164.0172,1165.0183,,,1165.5197,1165.7701,,161,161,,,,,,,,,,,,,,,,bars/011.png,bars/mask007.png,,,,,,,,,,,,6,1,,,,,,,6,10,6,10,,,,,,,,,,,1165.0184,1165.5196,1165.7701,1168.4953,space,2.7076,,1168.4954,1,76,1169.4977,1169.4977,1169.53,,,,0,14,14,14,1,160,85,,,,,,,,
,,56cfd0ddd691bb000697baef,65af53a2be6af047326a9879,2024-01-22_23h51.23.665,bars,2023.2.3,Linux x86_64,59.88023952,657b66ea316d21385b68909f,,,,,,,,,,,1169.5306,1170.5334,,,1171.0355,1171.2852,,79,259,,,,,,,,,,,,,,,,bars/029.png,bars/mask000.png,,,,,,,,,,,,3,1,,,,,,,4,10,5,10,,,,,,,,,,,1170.5337,1171.0355,1171.2853,1182.3007,space,11.0056,,1182.3007,11,34,1183.3026,1183.3027,1183.3427,,,,0,15,15,15,1,90,45,,,,,,,,
,,56cfd0ddd691bb000697baef,65af53a2be6af047326a9879,2024-01-22_23h51.23.665,bars,2023.2.3,Linux x86_64,59.88023952,657b66ea316d21385b68909f,,,,,,,,,,,1183.3433,1184.3377,,,1184.8401,1185.0916,,9,9,,,,,,,,,,,,,,,,bars/000.png,bars/mask003.png,,,,,,,,,,,,0,1,,,,,,,2,8,3,7,,,,,,,,,,,1184.3377,1184.8401,1185.0916,1188.9676,space,3.8596,,1188.9677,31,44,1189.9705,1189.9706,1190.0083,,,,0,16,16,16,1,40,145,,,,,,,,
,,56cfd0ddd691bb000697baef,65af53a2be6af047326a9879,2024-01-22_23h51.23.665,bars,2023.2.3,Linux x86_64,59.88023952,657b66ea316d21385b68909f,,,,,,,,,,,1190.0088,1191.0059,,,1191.508,1191.7589,,30,30,,,,,,,,,,,,,,,,bars/023.png,bars/mask009.png,,,,,,,,,,,,3,1,,,,,,,4,6,4,7,,,,,,,,,,,1191.006,1191.5079,1191.7589,1193.3289,space,1.558,,1193.3289,10,85,1194.3318,1194.3319,1194.3338,,,,0,17,17,17,1,20,115,,,,,,,,
,,56cfd0ddd691bb000697baef,65af53a2be6af047326a9879,2024-01-22_23h51.23.665,bars,2023.2.3,Linux x86_64,59.88023952,657b66ea316d21385b68909f,,,,,,,,,,,1194.3344,1195.3346,,,1195.8371,1196.0889,,172,-8,,,,,,,,,,,,,,,,bars/036.png,bars/mask006.png,,,,,,,,,,,,1,1,,,,,,,6,4,6,5,,,,,,,,,,,1195.3346,1195.837,1196.0889,1200.3991,space,4.2957,,1200.3991,27,28,1201.4014,1201.4015,1201.4338,,,,0,18,18,18,1,145,20,,,,,,,,
,,56cfd0ddd691bb000697baef,65af53a2be6af047326a9879,2024-01-22_23h51.23.665,bars,2023.2.3,Linux x86_64,59.88023952,657b66ea316d21385b68909f,,,,,,,,,,,1201.4345,1202.4378,,,1202.9387,1203.1901,,41,41,,,,,,,,,,,,,,,,bars/048.png,bars/mask006.png,,,,,,,,,,,,2,1,,,,,,,4,2,3,3,,,,,,,,,,,1202.4379,1202.9386,1203.1901,1206.1811,space,2.9793,,1206.1813,9,46,1207.1846,1207.1846,1207.2168,,,,0,19,19,19,1,50,175,,,,,,,,
,,56cfd0ddd691bb000697baef,65af53a2be6af047326a9879,2024-01-22_23h51.23.665,bars,2023.2.3,Linux x86_64,59.88023952,657b66ea316d21385b68909f,,,,,,,,,,,1207.2175,1208.2206,,,1208.7225,1208.9727,,167,-13,,,,,,,,,,,,,,,,bars/021.png,bars/mask007.png,,,,,,,,,,,,1,1,,,,,,,2,0,1,0,,,,,,,,,,,1208.2207,1208.7225,1208.9728,1211.5793,space,2.5926,,1211.5794,12,83,1212.5815,1212.5816,1212.6134,,,,0,20,20,20,1,155,70,,,,,,,,
,,56cfd0ddd691bb000697baef,65af53a2be6af047326a9879,2024-01-22_23h51.23.665,bars,2023.2.3,Linux x86_64,59.88023952,657b66ea316d21385b68909f,,,,,,,,,,,1212.6142,1213.6019,,,1214.1037,1214.3539,,118,118,,,,,,,,,,,,,,,,bars/002.png,bars/mask009.png,,,,,,,,,,,,3,1,,,,,,,4,0,5,0,,,,,,,,,,,1213.6019,1214.1036,1214.354,1216.1088,space,1.745,,1216.1088,12,33,1217.1115,1217.1116,1217.1145,,,,0,21,21,21,1,130,85,,,,,,,,
,,56cfd0ddd691bb000697baef,65af53a2be6af047326a9879,2024-01-22_23h51.23.665,bars,2023.2.3,Linux x86_64,59.88023952,657b66ea316d21385b68909f,,,,,,,,,,,1217.1153,1218.1136,,,1218.6162,1218.866,,124,124,,,,,,,,,,,,,,,,bars/008.png,bars/mask005.png,,,,,,,,,,,,3,1,,,,,,,6,0,5,0,,,,,,,,,,,1218.1136,1218.6162,1218.866,1220.9057,space,2.0245,,1220.9058,14,56,1221.9087,1221.9087,1221.9467,,,,0,22,22,22,1,110,0,,,,,,,,
,,56cfd0ddd691bb000697baef,65af53a2be6af047326a9879,2024-01-22_23h51.23.665,bars,2023.2.3,Linux x86_64,59.88023952,657b66ea316d21385b68909f,,,,,,,,,,,1221.9473,1222.9431,,,1223.4447,1223.6965,,157,157,,,,,,,,,,,,,,,,bars/049.png,bars/mask000.png,,,,,,,,,,,,7,1,,,,,,,8,0,8,0,,,,,,,,,,,1222.9433,1223.4447,1223.6965,1275.1391,space,51.4262,,1275.1392,3,42,1276.1397,1276.1398,1276.18,,,,0,23,23,23,1,160,115,,,,,,,,
,,56cfd0ddd691bb000697baef,65af53a2be6af047326a9879,2024-01-22_23h51.23.665,bars,2023.2.3,Linux x86_64,59.88023952,657b66ea316d21385b68909f,,,,,,,,,,,1276.1808,1277.176,,,1277.6771,1277.9287,,56,56,,,,,,,,,,,,,,,,bars/048.png,bars/mask004.png,,,,,,,,,,,,8,1,,,,,,,10,0,10,2,,,,,,,,,,,1277.1763,1277.677,1277.9288,1280.473,space,2.5338,,1280.473,6,61,1281.4721,1281.4721,1281.5108,,,,0,24,24,24,1,50,175,,,,,,,,
,,56cfd0ddd691bb000697baef,65af53a2be6af047326a9879,2024-01-22_23h51.23.665,bars,2023.2.3,Linux x86_64,59.88023952,657b66ea316d21385b68909f,,,,,,,,,,,1281.5113,1282.508,,,1283.0096,1283.2601,,28,208,,,,,,,,,,,,,,,,bars/016.png,bars/mask007.png,,,,,,,,,,,,6,1,,,,,,,10,2,10,3,,,,,,,,,,,1282.5081,1283.0096,1283.2602,1288.156,space,4.8791,,1288.156,12,43,1289.159,1289.1591,1289.1931,,,,0,25,25,25,1,40,165,,,,,,,,
,,56cfd0ddd691bb000697baef,65af53a2be6af047326a9879,2024-01-22_23h51.23.665,bars,2023.2.3,Linux x86_64,59.88023952,657b66ea316d21385b68909f,,,,,,,,,,,1289.1937,1290.1957,,,1290.6968,1290.9473,,109,109,,,,,,,,,,,,,,,,bars/025.png,bars/mask005.png,,,,,,,,,,,,6,1,,,,,,,8,4,7,3,,,,,,,,,,,1290.1958,1290.6968,1290.9473,1293.9721,space,3.0155,,1293.9722,4,69,1294.9744,1294.9744,1295.0092,,,,0,26,26,26,1,105,40,,,,,,,,
,,56cfd0ddd691bb000697baef,65af53a2be6af047326a9879,2024-01-22_23h51.23.665,bars,2023.2.3,Linux x86_64,59.88023952,657b66ea316d21385b68909f,,,,,,,,,,,1295.0097,1296.0114,,,1296.5131,1296.7638,,158,158,,,,,,,,,,,,,,,,bars/049.png,bars/mask004.png,,,,,,,,,,,,7,1,,,,,,,6,2,7,2,,,,,,,,,,,1296.0114,1296.5131,1296.7639,1299.6231,space,2.8519,,1299.6231,2,43,1300.6244,1300.6244,1300.6648,,,,0,27,27,27,1,160,115,,,,,,,,
,,56cfd0ddd691bb000697baef,65af53a2be6af047326a9879,2024-01-22_23h51.23.665,bars,2023.2.3,Linux x86_64,59.88023952,657b66ea316d21385b68909f,,,,,,,,,,,1300.6656,1301.6603,,,1302.1616,1302.4116,,161,161,,,,,,,,,,,,,,,,bars/038.png,bars/mask005.png,,,,,,,,,,,,3,1,,,,,,,4,0,3,1,,,,,,,,,,,1301.6604,1302.1616,1302.4117,1314.2287,space,11.7979,,1314.2288,4,89,1315.2304,1315.2304,1315.2702,,,,0,28,28,28,1,165,70,,,,,,,,
,,56cfd0ddd691bb000697baef,65af53a2be6af047326a9879,2024-01-22_23h51.23.665,bars,2023.2.3,Linux x86_64,59.88023952,657b66ea316d21385b68909f,,,,,,,,,,,1315.2708,1316.2672,,,1316.7677,1317.0198,,111,111,,,,,,,,,,,,,,,,bars/020.png,bars/mask008.png,,,,,,,,,,,,5,1,,,,,,,6,2,6,1,,,,,,,,,,,1316.2672,1316.7677,1317.02,1319.0412,space,2.0094,,1319.0412,4,59,1320.0436,1320.0436,1320.0771,,,,0,29,29,29,1,115,170,,,,,,,,
,,56cfd0ddd691bb000697baef,65af53a2be6af047326a9879,2024-01-22_23h51.23.665,bars,2023.2.3,Linux x86_64,59.88023952,657b66ea316d21385b68909f,,,,,,,,,,,1320.0776,1321.0809,,,1321.581,1321.8317,,4,4,,,,,,,,,,,,,,,,bars/003.png,bars/mask006.png,,,,,,,,,,,,1,1,,,,,,,4,0,2,1,,,,,,,,,,,1321.0809,1321.5809,1321.8317,1324.0883,space,2.2485,,1324.0884,21,44,1325.0914,1325.0915,1325.0946,,,,0,30,30,30,1,25,140,,,,,,,,
,,56cfd0ddd691bb000697baef,65af53a2be6af047326a9879,2024-01-22_23h51.23.665,bars,2023.2.3,Linux x86_64,59.88023952,657b66ea316d21385b68909f,,,,,,,,,,,1325.0953,1326.0939,,,1326.5952,1326.8455,,41,41,,,,,,,,,,,,,,,,bars/019.png,bars/mask005.png,,,,,,,,,,,,1,1,,,,,,,2,2,1,3,,,,,,,,,,,1326.0939,1326.5951,1326.8455,1329.2371,space,2.3829,,1329.2372,4,64,1330.2383,1330.2384,1330.2772,,,,0,31,31,31,1,45,105,,,,,,,,
,,56cfd0ddd691bb000697baef,65af53a2be6af047326a9879,2024-01-22_23h51.23.665,bars,2023.2.3,Linux x86_64,59.88023952,657b66ea316d21385b68909f,,,,,,,,,,,1330.2779,1331.2745,,,1331.7767,1332.0267,,146,146,,,,,,,,,,,,,,,,bars/032.png,bars/mask004.png,,,,,,,,,,,,1,1,,,,,,,4,4,3,4,,,,,,,,,,,1331.2746,1331.7767,1332.0268,1336.1211,space,4.0767,,1336.1212,21,54,1337.1244,1337.1245,1337.1624,,,,0,32,32,32,1,125,20,,,,,,,,
,,56cfd0ddd691bb000697baef,65af53a2be6af047326a9879,2024-01-22_23h51.23.665,bars,2023.2.3,Linux x86_64,59.88023952,657b66ea316d21385b68909f,,,,,,,,,,,1337.1631,1338.1609,,,1338.6501,1338.896,,124,124,,,,,,,,,,,,,,,,bars/024.png,bars/mask005.png,,,,,,,,,,,,3,1,,,,,,,6,6,4,4,,,,,,,,,,,1338.1609,1338.6501,1338.896,1341.0015,space,2.0935,,1341.0016,4,46,1342.0034,1342.0034,1342.0361,,,,0,33,33,33,1,120,170,,,,,,,,
,,56cfd0ddd691bb000697baef,65af53a2be6af047326a9879,2024-01-22_23h51.23.665,bars,2023.2.3,Linux x86_64,59.88023952,657b66ea316d21385b68909f,,,,,,,,,,,1342.0366,1343.0403,,,1343.5413,1343.7916,,103,103,,,,,,,,,,,,,,,,bars/020.png,bars/mask006.png,,,,,,,,,,,,2,1,,,,,,,4,8,4,8,,,,,,,,,,,1343.0403,1343.5412,1343.7917,1347.0847,space,3.2762,,1347.0848,12,67,1348.088,1348.0881,1348.1263,,,,0,34,34,34,1,115,170,,,,,,,,
,,56cfd0ddd691bb000697baef,65af53a2be6af047326a9879,2024-01-22_23h51.23.665,bars,2023.2.3,Linux x86_64,59.88023952,657b66ea316d21385b68909f,,,,,,,,,,,1348.1269,1349.124,,,1349.6301,1349.8761,,60,60,,,,,,,,,,,,,,,,bars/013.png,bars/mask004.png,,,,,,,,,,,,1,1,,,,,,,2,10,1,9,,,,,,,,,,,1349.1241,1349.63,1349.8761,1353.7377,space,3.8535,,1353.7379,15,50,1354.7395,1354.7395,1354.7793,,,,0,35,35,35,1,75,10,,,,,,,,
,,56cfd0ddd691bb000697baef,65af53a2be6af047326a9879,2024-01-22_23h51.23.665,bars,2023.2.3,Linux x86_64,59.88023952,657b66ea316d21385b68909f,,,,,,,,,,,1354.7799,1355.7769,,,1356.2785,1356.5272,,166,-14,,,,,,,,,,,,,,,,bars/033.png,bars/mask000.png,,,,,,,,,,,,5,2,,,,,,,4,8,3,8,,,,,,,,,,,1355.7769,1356.2785,1356.5273,1360.656,space,4.1108,,1360.6561,39,11,1361.6582,1361.6583,1361.7001,,,,0,36,36,36,1,25,155,,,,,,,,
,,56cfd0ddd691bb000697baef,65af53a2be6af047326a9879,2024-01-22_23h51.23.665,bars,2023.2.3,Linux x86_64,59.88023952,657b66ea316d21385b68909f,,,,,,,,,,,1361.7008,1362.6942,,,1363.1958,1363.4461,,59,59,,,,,,,,,,,,,,,,bars/034.png,bars/mask009.png,,,,,,,,,,,,4,2,,,,,,,2,6,2,5,,,,,,,,,,,1362.6944,1363.1957,1363.4461,1365.0717,space,1.6197,,1365.0718,66,6,1366.0704,1366.0704,1366.109,,,,0,37,37,37,1,125,65,,,,,,,,
,,56cfd0ddd691bb000697baef,65af53a2be6af047326a9879,2024-01-22_23h51.23.665,bars,2023.2.3,Linux x86_64,59.88023952,657b66ea316d21385b68909f,,,,,,,,,,,1366.1096,1367.1071,,,1367.6088,1367.8588,,94,94,,,,,,,,,,,,,,,,bars/018.png,bars/mask002.png,,,,,,,,,,,,9,2,,,,,,,4,8,4,10,,,,,,,,,,,1367.1072,1367.6085,1367.8588,1370.3839,space,2.5069,,1370.3841,56,4,1371.3863,1371.3864,1371.3887,,,,0,38,38,38,1,150,90,,,,,,,,
,,56cfd0ddd691bb000697baef,65af53a2be6af047326a9879,2024-01-22_23h51.23.665,bars,2023.2.3,Linux x86_64,59.88023952,657b66ea316d21385b68909f,,,,,,,,,,,1371.3893,1372.3887,,,1372.8896,1373.1405,,165,-15,,,,,,,,,,,,,,,,bars/015.png,bars/mask002.png,,,,,,,,,,,,4,2,,,,,,,2,6,2,5,,,,,,,,,,,1372.3887,1372.8892,1373.1406,1377.5357,space,4.3798,,1377.5359,55,5,1378.5388,1378.5389,1378.5741,,,,0,39,39,39,1,110,160,,,,,,,,
,,56cfd0ddd691bb000697baef,65af53a2be6af047326a9879,2024-01-22_23h51.23.665,bars,2023.2.3,Linux x86_64,59.88023952,657b66ea316d21385b68909f,,,,,,,,,,,1378.5748,1379.5739,,,1380.0755,1380.326,,76,76,,,,,,,,,,,,,,,,bars/046.png,bars/mask001.png,,,,,,,,,,,,5,2,,,,,,,4,8,2,7,,,,,,,,,,,1379.574,1380.0755,1380.3261,1383.4518,space,3.111,,1383.4519,79,9,1384.4533,1384.4534,1384.4912,,,,0,40,40,40,1,155,85,,,,,,,,
,,56cfd0ddd691bb000697baef,65af53a2be6af047326a9879,2024-01-22_23h51.23.665,bars,2023.2.3,Linux x86_64,59.88023952,657b66ea316d21385b68909f,,,,,,,,,,,1384.4919,1385.4902,,,1385.9972,1386.2422,,68,68,,,,,,,,,,,,,,,,bars/041.png,bars/mask004.png,,,,,,,,,,,,4,2,,,,,,,6,10,5,10,,,,,,,,,,,1385.4902,1385.9971,1386.2423,1388.2316,space,1.9756,,1388.2316,48,17,1389.2339,1389.2339,1389.2359,,,,0,41,41,41,1,20,85,,,,,,,,
,,56cfd0ddd691bb000697baef,65af53a2be6af047326a9879,2024-01-22_23h51.23.665,bars,2023.2.3,Linux x86_64,59.88023952,657b66ea316d21385b68909f,,,,,,,,,,,1389.2367,1390.2366,,,1390.7381,1390.9886,,75,75,,,,,,,,,,,,,,,,bars/022.png,bars/mask004.png,,,,,,,,,,,,3,1,,,,,,,8,8,8,10,,,,,,,,,,,1390.2366,1390.7381,1390.9887,1393.4456,space,2.4434,,1393.4457,20,55,1394.4487,1394.4488,1394.4895,,,,0,42,42,42,1,95,20,,,,,,,,
,,56cfd0ddd691bb000697baef,65af53a2be6af047326a9879,2024-01-22_23h51.23.665,bars,2023.2.3,Linux x86_64,59.88023952,657b66ea316d21385b68909f,,,,,,,,,,,1394.4902,1395.4844,,,1395.9842,1396.2365,,45,45,,,,,,,,,,,,,,,,bars/042.png,bars/mask002.png,,,,,,,,,,,,0,2,,,,,,,10,6,10,6,,,,,,,,,,,1395.4844,1395.9841,1396.2365,1399.563,space,3.3107,,1399.563,80,30,1400.5648,1400.5649,1400.6066,,,,0,43,43,43,1,145,75,,,,,,,,
,,56cfd0ddd691bb000697baef,65af53a2be6af047326a9879,2024-01-22_23h51.23.665,bars,2023.2.3,Linux x86_64,59.88023952,657b66ea316d21385b68909f,,,,,,,,,,,1400.6072,1401.6013,,,1402.1024,1402.3525,,117,117,,,,,,,,,,,,,,,,bars/015.png,bars/mask007.png,,,,,,,,,,,,8,1,,,,,,,8,4,10,5,,,,,,,,,,,1401.6014,1402.1023,1402.3526,1404.1578,space,1.7911,,1404.1578,7,43,1405.1608,1405.1609,1405.167,,,,0,44,44,44,1,110,160,,,,,,,,
,,56cfd0ddd691bb000697baef,65af53a2be6af047326a9879,2024-01-22_23h51.23.665,bars,2023.2.3,Linux x86_64,59.88023952,657b66ea316d21385b68909f,,,,,,,,,,,1405.1676,1406.1633,,,1406.6643,1406.9161,,54,54,,,,,,,,,,,,,,,,bars/044.png,bars/mask007.png,,,,,,,,,,,,2,1,,,,,,,6,2,7,2,,,,,,,,,,,1406.1633,1406.6642,1406.9162,1411.4961,space,4.5702,,1411.4962,21,79,1412.4983,1412.4986,1412.5314,,,,0,45,45,45,1,75,155,,,,,,,,
,,56cfd0ddd691bb000697baef,65af53a2be6af047326a9879,2024-01-22_23h51.23.665,bars,2023.2.3,Linux x86_64,59.88023952,657b66ea316d21385b68909f,,,,,,,,,,,1412.5322,1413.5337,,,1414.0367,1414.2861,,152,152,,,,,,,,,,,,,,,,bars/037.png,bars/mask007.png,,,,,,,,,,,,5,1,,,,,,,4,0,5,0,,,,,,,,,,,1413.5338,1414.0366,1414.2862,1417.5613,space,3.2609,,1417.5614,2,47,1418.5638,1418.5639,1418.604,,,,0,46,46,46,1,150,105,,,,,,,,
,,56cfd0ddd691bb000697baef,65af53a2be6af047326a9879,2024-01-22_23h51.23.665,bars,2023.2.3,Linux x86_64,59.88023952,657b66ea316d21385b68909f,,,,,,,,,,,1418.6046,1419.6,,,1420.1025,1420.3528,,52,52,,,,,,,,,,,,,,,,bars/044.png,bars/mask005.png,,,,,,,,,,,,0,1,,,,,,,2,2,2,2,,,,,,,,,,,1419.6,1420.1025,1420.3528,1423.4108,space,3.0501,,1423.4108,23,77,1424.4142,1424.4143,1424.4507,,,,0,47,47,47,1,75,155,,,,,,,,
,,56cfd0ddd691bb000697baef,65af53a2be6af047326a9879,2024-01-22_23h51.23.665,bars,2023.2.3,Linux x86_64,59.88023952,657b66ea316d21385b68909f,,,,,,,,,,,1424.4513,1425.4499,,,1425.9513,1426.203,,161,161,,,,,,,,,,,,,,,,bars/017.png,bars/mask004.png,,,,,,,,,,,,0,1,,,,,,,0,4,1,5,,,,,,,,,,,1425.4499,1425.9512,1426.2032,1430.3138,space,4.0968,,1430.3138,16,64,1431.317,1431.317,1431.3578,,,,0,48,48,48,1,145,45,,,,,,,,
,,56cfd0ddd691bb000697baef,65af53a2be6af047326a9879,2024-01-22_23h51.23.665,bars,2023.2.3,Linux x86_64,59.88023952,657b66ea316d21385b68909f,,,,,,,,,,,1431.3584,1432.3533,,,1432.8543,1433.1045,,22,22,,,,,,,,,,,,,,,,bars/029.png,bars/mask004.png,,,,,,,,,,,,0,2,,,,,,,2,2,3,2,,,,,,,,,,,1432.3533,1432.8543,1433.1045,1435.6281,space,2.5071,,1435.6282,68,23,1436.6309,1436.631,1436.6735,,,,0,49,49,49,1,90,45,,,,,,,,
,,56cfd0ddd691bb000697baef,65af53a2be6af047326a9879,2024-01-22_23h51.23.665,bars,2023.2.3,Linux x86_64,59.88023952,657b66ea316d21385b68909f,,,,,,,,,,,,,,,,,,,,,,,,,,,,,,,,,,,,,,,,,,,,,,,,,,,,,,,,,,,,,,,,,,,,,,,,,,,,,,,,,,,,,,,,,,,,,1436.6739,1496.6617,0,1,1,1,1,sequence_tables/blk028.csv
,,56cfd0ddd691bb000697baef,65af53a2be6af047326a9879,2024-01-22_23h51.23.665,bars,2023.2.3,Linux x86_64,59.88023952,657b66ea316d21385b68909f,,,,,,,,,,,1841.4261,1842.3795,,,1842.8805,1843.1316,,104,104,,,,,,,,,,,,,,,,bars/034.png,bars/mask002.png,,,,,,,,,,,,2,1,,,,,,,7,2,8,3,,,,,,1496.6969,1841.377,space,344.6644,,1842.3796,1842.8804,1843.1317,1846.6752,space,3.5347,,1846.6753,21,39,1847.6778,1847.6778,1847.7187,,,,0,0,0,0,1,125,65,,,,,,,,
,,56cfd0ddd691bb000697baef,65af53a2be6af047326a9879,2024-01-22_23h51.23.665,bars,2023.2.3,Linux x86_64,59.88023952,657b66ea316d21385b68909f,,,,,,,,,,,1847.7194,1848.7174,,,1849.2147,1849.4647,,160,160,,,,,,,,,,,,,,,,bars/033.png,bars/mask008.png,,,,,,,,,,,,4,2,,,,,,,9,4,8,5,,,,,,,,,,,1848.7175,1849.2146,1849.4647,1853.4262,space,3.9457,,1853.4264,45,5,1854.4295,1854.4295,1854.4702,,,,0,1,1,1,1,25,155,,,,,,,,
,,56cfd0ddd691bb000697baef,65af53a2be6af047326a9879,2024-01-22_23h51.23.665,bars,2023.2.3,Linux x86_64,59.88023952,657b66ea316d21385b68909f,,,,,,,,,,,1854.4708,1855.4661,,,1855.9663,1856.2172,,25,25,,,,,,,,,,,,,,,,bars/032.png,bars/mask009.png,,,,,,,,,,,,5,2,,,,,,,7,6,6,6,,,,,,,,,,,1855.4662,1855.9663,1856.2172,1857.5881,space,1.3498,,1857.5881,80,5,1858.5907,1858.5907,1858.5929,,,,0,2,2,2,1,125,20,,,,,,,,
,,56cfd0ddd691bb000697baef,65af53a2be6af047326a9879,2024-01-22_23h51.23.665,bars,2023.2.3,Linux x86_64,59.88023952,657b66ea316d21385b68909f,,,,,,,,,,,1858.5935,1859.5934,,,1860.0947,1860.3449,,65,65,,,,,,,,,,,,,,,,bars/030.png,bars/mask004.png,,,,,,,,,,,,9,2,,,,,,,5,8,6,9,,,,,,,,,,,1859.5935,1860.0947,1860.3449,1861.4823,space,1.1213,,1861.4824,75,0,1862.4843,1862.4844,1862.4864,,,,0,3,3,3,1,140,65,,,,,,,,
,,56cfd0ddd691bb000697baef,65af53a2be6af047326a9879,2024-01-22_23h51.23.665,bars,2023.2.3,Linux x86_64,59.88023952,657b66ea316d21385b68909f,,,,,,,,,,,1862.4873,1863.4879,,,1863.989,1864.2387,,8,8,,,,,,,,,,,,,,,,bars/012.png,bars/mask003.png,,,,,,,,,,,,5,2,,,,,,,3,6,2,6,,,,,,,,,,,1863.4879,1863.9889,1864.2388,1866.0275,space,1.7763,,1866.0275,82,7,1867.0308,1867.0308,1867.0336,,,,0,4,4,4,1,90,15,,,,,,,,
,,56cfd0ddd691bb000697baef,65af53a2be6af047326a9879,2024-01-22_23h51.23.665,bars,2023.2.3,Linux x86_64,59.88023952,657b66ea316d21385b68909f,,,,,,,,,,,1867.0342,1868.0343,,,1868.5352,1868.785,,166,166,,,,,,,,,,,,,,,,bars/015.png,bars/mask007.png,,,,,,,,,,,,4,2,,,,,,,5,4,4,5,,,,,,,,,,,1868.0343,1868.5352,1868.785,1872.9639,space,4.1638,,1872.964,56,6,1873.9656,1873.9656,1874.0064,,,,0,5,5,5,1,110,160,,,,,,,,
,,56cfd0ddd691bb000697baef,65af53a2be6af047326a9879,2024-01-22_23h51.23.665,bars,2023.2.3,Linux x86_64,59.88023952,657b66ea316d21385b68909f,,,,,,,,,,,1874.007,1875.0093,,,1875.5034,1875.7544,,16,16,,,,,,,,,,,,,,,,bars/012.png,bars/mask003.png,,,,,,,,,,,,3,2,,,,,,,3,2,3,3,,,,,,,,,,,1875.0093,1875.5034,1875.7544,1877.5779,space,1.815,,1877.5779,74,1,1878.5852,1878.5853,1878.6242,,,,0,6,6,6,1,90,15,,,,,,,,
,,56cfd0ddd691bb000697baef,65af53a2be6af047326a9879,2024-01-22_23h51.23.665,bars,2023.2.3,Linux x86_64,59.88023952,657b66ea316d21385b68909f,,,,,,,,,,,1878.6249,1879.6145,,,1880.1165,1880.3675,,176,-4,,,,,,,,,,,,,,,,bars/014.png,bars/mask006.png,,,,,,,,,,,,3,2,,,,,,,1,4,2,3,,,,,,,,,,,1879.6145,1880.1164,1880.3676,1883.0739,space,2.6972,,1883.074,84,4,1884.0811,1884.0812,1884.1193,,,,0,7,7,7,1,80,0,,,,,,,,
,,56cfd0ddd691bb000697baef,65af53a2be6af047326a9879,2024-01-22_23h51.23.665,bars,2023.2.3,Linux x86_64,59.88023952,657b66ea316d21385b68909f,,,,,,,,,,,1884.12,1885.1144,,,1885.615,1885.8658,,8,8,,,,,,,,,,,,,,,,bars/035.png,bars/mask000.png,,,,,,,,,,,,0,1,,,,,,,0,2,0,3,,,,,,,,,,,1885.1145,1885.6149,1885.8659,1888.9247,space,3.0422,,1888.9247,13,52,1889.9267,1889.9267,1889.964,,,,0,8,8,8,1,175,60,,,,,,,,
,,56cfd0ddd691bb000697baef,65af53a2be6af047326a9879,2024-01-22_23h51.23.665,bars,2023.2.3,Linux x86_64,59.88023952,657b66ea316d21385b68909f,,,,,,,,,,,1889.9647,1890.9628,,,1891.4639,1891.7147,,159,159,,,,,,,,,,,,,,,,bars/021.png,bars/mask000.png,,,,,,,,,,,,0,1,,,,,,,0,4,0,5,,,,,,,,,,,1890.9629,1891.4638,1891.7148,1894.8073,space,3.0812,,1894.8073,4,89,1895.8092,1895.8094,1895.845,,,,0,9,9,9,1,155,70,,,,,,,,
,,56cfd0ddd691bb000697baef,65af53a2be6af047326a9879,2024-01-22_23h51.23.665,bars,2023.2.3,Linux x86_64,59.88023952,657b66ea316d21385b68909f,,,,,,,,,,,1895.8458,1896.846,,,1897.3469,1897.5969,,151,151,,,,,,,,,,,,,,,,bars/001.png,bars/mask001.png,,,,,,,,,,,,0,1,,,,,,,0,6,0,6,,,,,,,,,,,1896.846,1897.3468,1897.5969,1900.0379,space,2.426,,1900.0379,21,66,1901.041,1901.0411,1901.0799,,,,0,10,10,10,1,130,85,,,,,,,,
,,56cfd0ddd691bb000697baef,65af53a2be6af047326a9879,2024-01-22_23h51.23.665,bars,2023.2.3,Linux x86_64,59.88023952,657b66ea316d21385b68909f,,,,,,,,,,,1901.0808,1902.0769,,,1902.5783,1902.829,,76,76,,,,,,,,,,,,,,,,bars/018.png,bars/mask006.png,,,,,,,,,,,,4,2,,,,,,,2,8,2,8,,,,,,,,,,,1902.077,1902.5783,1902.829,1904.1155,space,1.2699,,1904.1156,74,14,1905.1195,1905.1195,1905.1281,,,,0,11,11,11,1,150,90,,,,,,,,
,,56cfd0ddd691bb000697baef,65af53a2be6af047326a9879,2024-01-22_23h51.23.665,bars,2023.2.3,Linux x86_64,59.88023952,657b66ea316d21385b68909f,,,,,,,,,,,1905.1285,1906.1217,,,1906.6233,1906.8738,,171,171,,,,,,,,,,,,,,,,bars/033.png,bars/mask003.png,,,,,,,,,,,,3,2,,,,,,,4,6,5,6,,,,,,,,,,,1906.1218,1906.6232,1906.8739,1908.9629,space,2.0827,,1908.9629,34,16,1909.9653,1909.9653,1910.0044,,,,0,12,12,12,1,25,155,,,,,,,,
,,56cfd0ddd691bb000697baef,65af53a2be6af047326a9879,2024-01-22_23h51.23.665,bars,2023.2.3,Linux x86_64,59.88023952,657b66ea316d21385b68909f,,,,,,,,,,,1910.0052,1911.0012,,,1911.5027,1911.7531,,6,186,,,,,,,,,,,,,,,,bars/015.png,bars/mask009.png,,,,,,,,,,,,1,2,,,,,,,2,8,1,8,,,,,,,,,,,1911.0013,1911.5026,1911.7532,1913.8107,space,2.0404,,1913.8108,76,26,1914.8007,1914.8008,1914.8397,,,,0,13,13,13,1,110,160,,,,,,,,
,,56cfd0ddd691bb000697baef,65af53a2be6af047326a9879,2024-01-22_23h51.23.665,bars,2023.2.3,Linux x86_64,59.88023952,657b66ea316d21385b68909f,,,,,,,,,,,1914.8404,1915.8315,,,1916.332,1916.5833,,14,14,,,,,,,,,,,,,,,,bars/006.png,bars/mask005.png,,,,,,,,,,,,1,1,,,,,,,4,10,3,10,,,,,,,,,,,1915.8316,1916.3318,1916.5833,1917.9211,space,1.3213,,1917.9212,21,86,1918.9234,1918.9235,1918.931,,,,0,14,14,14,1,35,100,,,,,,,,
,,56cfd0ddd691bb000697baef,65af53a2be6af047326a9879,2024-01-22_23h51.23.665,bars,2023.2.3,Linux x86_64,59.88023952,657b66ea316d21385b68909f,,,,,,,,,,,1918.9328,1919.9256,,,1920.4265,1920.6773,,119,119,,,,,,,,,,,,,,,,bars/024.png,bars/mask009.png,,,,,,,,,,,,3,1,,,,,,,2,10,3,9,,,,,,,,,,,1919.9257,1920.4265,1920.6773,1922.7002,space,2.0125,,1922.7002,1,51,1923.7025,1923.7025,1923.7035,,,,0,15,15,15,1,120,170,,,,,,,,
,,56cfd0ddd691bb000697baef,65af53a2be6af047326a9879,2024-01-22_23h51.23.665,bars,2023.2.3,Linux x86_64,59.88023952,657b66ea316d21385b68909f,,,,,,,,,,,1923.7039,1924.6941,,,1925.1905,1925.4405,,40,40,,,,,,,,,,,,,,,,bars/026.png,bars/mask002.png,,,,,,,,,,,,0,1,,,,,,,0,10,0,8,,,,,,,,,,,1924.6942,1925.1904,1925.4405,1926.9455,space,1.4931,,1926.9456,5,45,1927.9479,1927.948,1927.9825,,,,0,16,16,16,1,35,85,,,,,,,,
,,56cfd0ddd691bb000697baef,65af53a2be6af047326a9879,2024-01-22_23h51.23.665,bars,2023.2.3,Linux x86_64,59.88023952,657b66ea316d21385b68909f,,,,,,,,,,,1927.9832,1928.9846,,,1929.486,1929.7359,,127,127,,,,,,,,,,,,,,,,bars/040.png,bars/mask004.png,,,,,,,,,,,,1,1,,,,,,,2,8,2,10,,,,,,,,,,,1928.9846,1929.4859,1929.7359,1931.1428,space,1.394,,1931.1429,13,58,1932.1422,1932.1422,1932.1811,,,,0,17,17,17,1,140,5,,,,,,,,
,,56cfd0ddd691bb000697baef,65af53a2be6af047326a9879,2024-01-22_23h51.23.665,bars,2023.2.3,Linux x86_64,59.88023952,657b66ea316d21385b68909f,,,,,,,,,,,1932.1816,1933.1791,,,1933.6806,1933.9309,,39,39,,,,,,,,,,,,,,,,bars/016.png,bars/mask004.png,,,,,,,,,,,,5,1,,,,,,,4,10,5,10,,,,,,,,,,,1933.1792,1933.6806,1933.931,1935.769,space,1.8256,,1935.7692,1,54,1936.7726,1936.7727,1936.808,,,,0,18,18,18,1,40,165,,,,,,,,
,,56cfd0ddd691bb000697baef,65af53a2be6af047326a9879,2024-01-22_23h51.23.665,bars,2023.2.3,Linux x86_64,59.88023952,657b66ea316d21385b68909f,,,,,,,,,,,1936.8085,1937.8081,,,1938.3096,1938.5607,,171,171,,,,,,,,,,,,,,,,bars/011.png,bars/mask009.png,,,,,,,,,,,,3,1,,,,,,,6,10,5,10,,,,,,,,,,,1937.8083,1938.3096,1938.5608,1941.1845,space,2.6085,,1941.1846,11,86,1942.1866,1942.1866,1942.2259,,,,0,19,19,19,1,160,85,,,,,,,,
,,56cfd0ddd691bb000697baef,65af53a2be6af047326a9879,2024-01-22_23h51.23.665,bars,2023.2.3,Linux x86_64,59.88023952,657b66ea316d21385b68909f,,,,,,,,,,,1942.2264,1943.223,,,1943.7241,1943.9745,,170,-10,,,,,,,,,,,,,,,,bars/009.png,bars/mask002.png,,,,,,,,,,,,1,1,,,,,,,8,10,9,10,,,,,,,,,,,1943.223,1943.724,1943.9746,1945.9813,space,1.9953,,1945.9813,25,65,1946.983,1946.983,1947.0129,,,,0,20,20,20,1,15,105,,,,,,,,
,,56cfd0ddd691bb000697baef,65af53a2be6af047326a9879,2024-01-22_23h51.23.665,bars,2023.2.3,Linux x86_64,59.88023952,657b66ea316d21385b68909f,,,,,,,,,,,1947.0136,1948.0035,,,1948.5039,1948.7546,,147,-33,,,,,,,,,,,,,,,,bars/040.png,bars/mask002.png,,,,,,,,,,,,5,1,,,,,,,6,8,6,10,,,,,,,,,,,1948.0036,1948.5038,1948.7546,1951.3962,space,2.6249,,1951.3962,7,38,1952.3984,1952.3985,1952.4387,,,,0,21,21,21,1,140,5,,,,,,,,
,,56cfd0ddd691bb000697baef,65af53a2be6af047326a9879,2024-01-22_23h51.23.665,bars,2023.2.3,Linux x86_64,59.88023952,657b66ea316d21385b68909f,,,,,,,,,,,1952.4394,1953.4349,,,1953.9357,1954.1861,,2,182,,,,,,,,,,,,,,,,bars/011.png,bars/mask001.png,,,,,,,,,,,,2,1,,,,,,,4,6,6,5,,,,,,,,,,,1953.4349,1953.9357,1954.1862,1958.3662,space,4.1689,,1958.3666,22,83,1959.367,1959.3671,1959.4014,,,,0,22,22,22,1,160,85,,,,,,,,
,,56cfd0ddd691bb000697baef,65af53a2be6af047326a9879,2024-01-22_23h51.23.665,bars,2023.2.3,Linux x86_64,59.88023952,657b66ea316d21385b68909f,,,,,,,,,,,1959.4021,1960.4037,,,1960.906,1961.1564,,142,142,,,,,,,,,,,,,,,,bars/040.png,bars/mask008.png,,,,,,,,,,,,2,1,,,,,,,2,8,2,8,,,,,,,,,,,1960.4037,1960.9059,1961.1565,1962.6609,space,1.4887,,1962.6609,2,43,1963.6623,1963.6631,1963.6657,,,,0,23,23,23,1,140,5,,,,,,,,
,,56cfd0ddd691bb000697baef,65af53a2be6af047326a9879,2024-01-22_23h51.23.665,bars,2023.2.3,Linux x86_64,59.88023952,657b66ea316d21385b68909f,,,,,,,,,,,1963.6664,1964.6675,,,1965.1667,1965.4179,,163,-17,,,,,,,,,,,,,,,,bars/039.png,bars/mask008.png,,,,,,,,,,,,2,1,,,,,,,4,10,4,10,,,,,,,,,,,1964.6675,1965.1667,1965.418,1967.4568,space,2.0227,,1967.4568,12,58,1968.4587,1968.4587,1968.497,,,,0,24,24,24,1,175,105,,,,,,,,
,,56cfd0ddd691bb000697baef,65af53a2be6af047326a9879,2024-01-22_23h51.23.665,bars,2023.2.3,Linux x86_64,59.88023952,657b66ea316d21385b68909f,,,,,,,,,,,1968.4976,1969.496,,,1969.9971,1970.2476,,0,0,,,,,,,,,,,,,,,,bars/035.png,bars/mask003.png,,,,,,,,,,,,3,1,,,,,,,2,8,3,7,,,,,,,,,,,1969.4961,1969.9971,1970.2478,1972.4707,space,2.2092,,1972.4707,5,60,1973.473,1973.473,1973.4742,,,,0,25,25,25,1,175,60,,,,,,,,
,,56cfd0ddd691bb000697baef,65af53a2be6af047326a9879,2024-01-22_23h51.23.665,bars,2023.2.3,Linux x86_64,59.88023952,657b66ea316d21385b68909f,,,,,,,,,,,1973.4757,1974.4763,,,1974.9774,1975.2282,,55,55,,,,,,,,,,,,,,,,bars/026.png,bars/mask000.png,,,,,,,,,,,,0,1,,,,,,,0,10,0,10,,,,,,,,,,,1974.4763,1974.9773,1975.2282,1976.6326,space,1.3938,,1976.6327,20,30,1977.6341,1977.6342,1977.6364,,,,0,26,26,26,1,35,85,,,,,,,,
,,56cfd0ddd691bb000697baef,65af53a2be6af047326a9879,2024-01-22_23h51.23.665,bars,2023.2.3,Linux x86_64,59.88023952,657b66ea316d21385b68909f,,,,,,,,,,,1977.6378,1978.6367,,,1979.1391,1979.3898,,133,133,,,,,,,,,,,,,,,,bars/020.png,bars/mask007.png,,,,,,,,,,,,1,1,,,,,,,2,10,2,10,,,,,,,,,,,1978.6368,1979.1389,1979.3899,1982.0314,space,2.6253,,1982.0314,18,37,1983.0326,1983.0326,1983.0725,,,,0,27,27,27,1,115,170,,,,,,,,
,,56cfd0ddd691bb000697baef,65af53a2be6af047326a9879,2024-01-22_23h51.23.665,bars,2023.2.3,Linux x86_64,59.88023952,657b66ea316d21385b68909f,,,,,,,,,,,1983.0731,1984.0692,,,1984.5703,1984.8215,,4,4,,,,,,,,,,,,,,,,bars/009.png,bars/mask009.png,,,,,,,,,,,,1,1,,,,,,,0,10,1,10,,,,,,,,,,,1984.0693,1984.5702,1984.8215,1987.0599,space,2.2237,,1987.06,11,79,1988.0636,1988.0637,1988.103,,,,0,28,28,28,1,15,105,,,,,,,,
,,56cfd0ddd691bb000697baef,65af53a2be6af047326a9879,2024-01-22_23h51.23.665,bars,2023.2.3,Linux x86_64,59.88023952,657b66ea316d21385b68909f,,,,,,,,,,,1988.1035,1989.0991,,,1989.6005,1989.8522,,42,42,,,,,,,,,,,,,,,,bars/026.png,bars/mask002.png,,,,,,,,,,,,2,1,,,,,,,0,8,2,8,,,,,,,,,,,1989.0991,1989.6004,1989.8522,1991.5729,space,1.7031,,1991.573,7,43,1992.5764,1992.5765,1992.6152,,,,0,29,29,29,1,35,85,,,,,,,,
,,56cfd0ddd691bb000697baef,65af53a2be6af047326a9879,2024-01-22_23h51.23.665,bars,2023.2.3,Linux x86_64,59.88023952,657b66ea316d21385b68909f,,,,,,,,,,,1992.6158,1993.6125,,,1994.1126,1994.3638,,121,121,,,,,,,,,,,,,,,,bars/042.png,bars/mask000.png,,,,,,,,,,,,0,1,,,,,,,0,10,0,10,,,,,,,,,,,1993.6125,1994.1126,1994.3639,1996.1016,space,1.728,,1996.1017,24,46,1997.1048,1997.1048,1997.106,,,,0,30,30,30,1,145,75,,,,,,,,
,,56cfd0ddd691bb000697baef,65af53a2be6af047326a9879,2024-01-22_23h51.23.665,bars,2023.2.3,Linux x86_64,59.88023952,657b66ea316d21385b68909f,,,,,,,,,,,1997.1065,1998.1078,,,1998.6084,1998.8593,,63,63,,,,,,,,,,,,,,,,bars/029.png,bars/mask006.png,,,,,,,,,,,,4,2,,,,,,,0,10,0,9,,,,,,,,,,,1998.1079,1998.6084,1998.8594,2001.8359,space,2.968,,2001.8361,27,18,2002.8364,2002.8365,2002.8782,,,,0,31,31,31,1,90,45,,,,,,,,
,,56cfd0ddd691bb000697baef,65af53a2be6af047326a9879,2024-01-22_23h51.23.665,bars,2023.2.3,Linux x86_64,59.88023952,657b66ea316d21385b68909f,,,,,,,,,,,2002.8789,2003.8733,,,2004.3746,2004.6252,,134,134,,,,,,,,,,,,,,,,bars/031.png,bars/mask001.png,,,,,,,,,,,,0,1,,,,,,,0,8,0,8,,,,,,,,,,,2003.8734,2004.3743,2004.6252,2007.0164,space,2.3823,,2007.0164,14,81,2008.0199,2008.02,2008.0226,,,,0,32,32,32,1,120,35,,,,,,,,
,,56cfd0ddd691bb000697baef,65af53a2be6af047326a9879,2024-01-22_23h51.23.665,bars,2023.2.3,Linux x86_64,59.88023952,657b66ea316d21385b68909f,,,,,,,,,,,2008.0231,2009.02,,,2009.522,2009.7733,,66,66,,,,,,,,,,,,,,,,bars/030.png,bars/mask004.png,,,,,,,,,,,,6,2,,,,,,,0,6,0,6,,,,,,,,,,,2009.02,2009.5219,2009.7734,2012.5136,space,2.7266,,2012.5138,74,1,2013.5158,2013.5158,2013.5545,,,,0,33,33,33,1,140,65,,,,,,,,
,,56cfd0ddd691bb000697baef,65af53a2be6af047326a9879,2024-01-22_23h51.23.665,bars,2023.2.3,Linux x86_64,59.88023952,657b66ea316d21385b68909f,,,,,,,,,,,2013.5551,2014.553,,,2015.055,2015.3048,,14,14,,,,,,,,,,,,,,,,bars/047.png,bars/mask002.png,,,,,,,,,,,,0,1,,,,,,,0,4,0,3,,,,,,,,,,,2014.553,2015.055,2015.3048,2017.663,space,2.3486,,2017.663,1,56,2018.6645,2018.6646,2018.7077,,,,0,34,34,34,1,15,70,,,,,,,,
,,56cfd0ddd691bb000697baef,65af53a2be6af047326a9879,2024-01-22_23h51.23.665,bars,2023.2.3,Linux x86_64,59.88023952,657b66ea316d21385b68909f,,,,,,,,,,,2018.7083,2019.7015,,,2020.2008,2020.4522,,31,211,,,,,,,,,,,,,,,,bars/007.png,bars/mask002.png,,,,,,,,,,,,0,2,,,,,,,2,2,4,1,,,,,,,,,,,2019.7017,2020.2008,2020.4522,2022.7942,space,2.3318,,2022.7943,36,24,2023.7941,2023.7942,2023.7987,,,,0,35,35,35,1,175,55,,,,,,,,
,,56cfd0ddd691bb000697baef,65af53a2be6af047326a9879,2024-01-22_23h51.23.665,bars,2023.2.3,Linux x86_64,59.88023952,657b66ea316d21385b68909f,,,,,,,,,,,2023.7993,2024.7979,,,2025.2991,2025.5495,,42,42,,,,,,,,,,,,,,,,bars/025.png,bars/mask001.png,,,,,,,,,,,,0,2,,,,,,,0,0,2,0,,,,,,,,,,,2024.798,2025.299,2025.5496,2027.974,space,2.4104,,2027.974,63,2,2028.9755,2028.9755,2029.0106,,,,0,36,36,36,1,105,40,,,,,,,,
,,56cfd0ddd691bb000697baef,65af53a2be6af047326a9879,2024-01-22_23h51.23.665,bars,2023.2.3,Linux x86_64,59.88023952,657b66ea316d21385b68909f,,,,,,,,,,,2029.0109,2030.0114,,,2030.5135,2030.7637,,45,45,,,,,,,,,,,,,,,,bars/026.png,bars/mask000.png,,,,,,,,,,,,0,1,,,,,,,0,2,0,1,,,,,,,,,,,2030.0114,2030.5135,2030.7637,2033.1217,space,2.3503,,2033.1217,10,40,2034.1226,2034.1226,2034.1289,,,,0,37,37,37,1,35,85,,,,,,,,
,,56cfd0ddd691bb000697baef,65af53a2be6af047326a9879,2024-01-22_23h51.23.665,bars,2023.2.3,Linux x86_64,59.88023952,657b66ea316d21385b68909f,,,,,,,,,,,2034.1295,2035.1261,,,2035.6276,2035.8779,,27,207,,,,,,,,,,,,,,,,bars/041.png,bars/mask009.png,,,,,,,,,,,,2,1,,,,,,,2,4,3,2,,,,,,,,,,,2035.1262,2035.6275,2035.8779,2040.2899,space,4.4021,,2040.2899,7,58,2041.293,2041.2931,2041.3324,,,,0,38,38,38,1,20,85,,,,,,,,
,,56cfd0ddd691bb000697baef,65af53a2be6af047326a9879,2024-01-22_23h51.23.665,bars,2023.2.3,Linux x86_64,59.88023952,657b66ea316d21385b68909f,,,,,,,,,,,2041.333,2042.3285,,,2042.8312,2043.0807,,149,-31,,,,,,,,,,,,,,,,bars/037.png,bars/mask000.png,,,,,,,,,,,,3,1,,,,,,,4,2,3,1,,,,,,,,,,,2042.3285,2042.8312,2043.0807,2045.6886,space,2.5943,,2045.6887,1,44,2046.6931,2046.6931,2046.7284,,,,0,39,39,39,1,150,105,,,,,,,,
,,56cfd0ddd691bb000697baef,65af53a2be6af047326a9879,2024-01-22_23h51.23.665,bars,2023.2.3,Linux x86_64,59.88023952,657b66ea316d21385b68909f,,,,,,,,,,,2046.729,2047.7266,,,2048.2279,2048.4788,,164,-16,,,,,,,,,,,,,,,,bars/005.png,bars/mask004.png,,,,,,,,,,,,0,2,,,,,,,6,0,5,0,,,,,,,,,,,2047.7267,2048.2278,2048.4789,2052.2083,space,3.7189,,2052.2085,26,24,2053.2094,2053.2094,2053.2531,,,,0,40,40,40,1,10,140,,,,,,,,
,,56cfd0ddd691bb000697baef,65af53a2be6af047326a9879,2024-01-22_23h51.23.665,bars,2023.2.3,Linux x86_64,59.88023952,657b66ea316d21385b68909f,,,,,,,,,,,2053.2537,2054.2446,,,2054.7459,2054.9971,,167,-13,,,,,,,,,,,,,,,,bars/040.png,bars/mask009.png,,,,,,,,,,,,1,2,,,,,,,8,2,10,3,,,,,,,,,,,2054.2446,2054.7459,2054.9972,2058.0883,space,3.0729,,2058.0883,27,18,2059.0759,2059.076,2059.1101,,,,0,41,41,41,1,140,5,,,,,,,,
,,56cfd0ddd691bb000697baef,65af53a2be6af047326a9879,2024-01-22_23h51.23.665,bars,2023.2.3,Linux x86_64,59.88023952,657b66ea316d21385b68909f,,,,,,,,,,,2059.1107,2060.1198,,,2060.6126,2060.8629,,79,-101,,,,,,,,,,,,,,,,bars/045.png,bars/mask005.png,,,,,,,,,,,,2,1,,,,,,,6,4,7,4,,,,,,,,,,,2060.1199,2060.6124,2060.863,2065.3923,space,4.517,,2065.3924,21,69,2066.3837,2066.3838,2066.4271,,,,0,42,42,42,1,100,10,,,,,,,,
,,56cfd0ddd691bb000697baef,65af53a2be6af047326a9879,2024-01-22_23h51.23.665,bars,2023.2.3,Linux x86_64,59.88023952,657b66ea316d21385b68909f,,,,,,,,,,,2066.428,2067.4309,,,2067.9327,2068.1833,,70,250,,,,,,,,,,,,,,,,bars/028.png,bars/mask008.png,,,,,,,,,,,,1,1,,,,,,,4,6,4,6,,,,,,,,,,,2067.431,2067.9327,2068.1834,2072.5462,space,4.3473,,2072.5463,25,50,2073.5481,2073.5481,2073.5873,,,,0,43,43,43,1,45,120,,,,,,,,
,,56cfd0ddd691bb000697baef,65af53a2be6af047326a9879,2024-01-22_23h51.23.665,bars,2023.2.3,Linux x86_64,59.88023952,657b66ea316d21385b68909f,,,,,,,,,,,2073.5878,2074.5844,,,2075.0861,2075.3357,,173,-7,,,,,,,,,,,,,,,,bars/023.png,bars/mask002.png,,,,,,,,,,,,0,1,,,,,,,6,8,5,9,,,,,,,,,,,2074.5844,2075.0861,2075.3358,2078.178,space,2.8265,,2078.1781,27,58,2079.1801,2079.1801,2079.2194,,,,0,44,44,44,1,20,115,,,,,,,,
,,56cfd0ddd691bb000697baef,65af53a2be6af047326a9879,2024-01-22_23h51.23.665,bars,2023.2.3,Linux x86_64,59.88023952,657b66ea316d21385b68909f,,,,,,,,,,,2079.2199,2080.216,,,2080.7181,2080.9688,,4,4,,,,,,,,,,,,,,,,bars/032.png,bars/mask006.png,,,,,,,,,,,,5,2,,,,,,,8,10,7,10,,,,,,,,,,,2080.2161,2080.718,2080.9689,2084.9969,space,4.0154,,2084.997,59,16,2085.9989,2085.999,2086.0348,,,,0,45,45,45,1,125,20,,,,,,,,
,,56cfd0ddd691bb000697baef,65af53a2be6af047326a9879,2024-01-22_23h51.23.665,bars,2023.2.3,Linux x86_64,59.88023952,657b66ea316d21385b68909f,,,,,,,,,,,2086.0353,2087.0354,,,2087.5365,2087.7868,,175,175,,,,,,,,,,,,,,,,bars/015.png,bars/mask009.png,,,,,,,,,,,,5,2,,,,,,,6,8,5,9,,,,,,,,,,,2087.0354,2087.5365,2087.7869,2090.779,space,2.9767,,2090.779,65,15,2091.7812,2091.7812,2091.8209,,,,0,46,46,46,1,110,160,,,,,,,,
,,56cfd0ddd691bb000697baef,65af53a2be6af047326a9879,2024-01-22_23h51.23.665,bars,2023.2.3,Linux x86_64,59.88023952,657b66ea316d21385b68909f,,,,,,,,,,,2091.8215,2092.8178,,,2093.3252,2093.5693,,58,238,,,,,,,,,,,,,,,,bars/029.png,bars/mask008.png,,,,,,,,,,,,4,2,,,,,,,4,6,3,7,,,,,,,,,,,2092.8179,2093.3251,2093.5693,2097.5865,space,4.0081,,2097.5865,32,13,2098.583,2098.583,2098.6228,,,,0,47,47,47,1,90,45,,,,,,,,
,,56cfd0ddd691bb000697baef,65af53a2be6af047326a9879,2024-01-22_23h51.23.665,bars,2023.2.3,Linux x86_64,59.88023952,657b66ea316d21385b68909f,,,,,,,,,,,2098.6233,2099.6191,,,2100.1212,2100.3723,,52,52,,,,,,,,,,,,,,,,bars/027.png,bars/mask001.png,,,,,,,,,,,,7,2,,,,,,,6,8,3,8,,,,,,,,,,,2099.6191,2100.1211,2100.3724,2102.0773,space,1.6899,,2102.0774,58,2,2103.065,2103.0651,2103.1036,,,,0,48,48,48,1,110,50,,,,,,,,
,,56cfd0ddd691bb000697baef,65af53a2be6af047326a9879,2024-01-22_23h51.23.665,bars,2023.2.3,Linux x86_64,59.88023952,657b66ea316d21385b68909f,,,,,,,,,,,2103.1042,2104.0989,,,2104.5995,2104.8508,,28,208,,,,,,,,,,,,,,,,bars/029.png,bars/mask006.png,,,,,,,,,,,,4,2,,,,,,,4,10,4,10,,,,,,,,,,,2104.099,2104.5994,2104.8509,2108.8951,space,4.0358,,2108.8952,62,17,2109.8985,2109.8985,2109.9364,,,,0,49,49,49,1,90,45,,,,,,,,
,,56cfd0ddd691bb000697baef,65af53a2be6af047326a9879,2024-01-22_23h51.23.665,bars,2023.2.3,Linux x86_64,59.88023952,657b66ea316d21385b68909f,,,,,,,,,,,,,,,,,,,,,,,,,,,,,,,,,,,,,,,,,,,,,,,,,,,,,,,,,,,,,,,,,,,,,,,,,,,,,,,,,,,,,,,,,,,,,2109.9368,2169.9296,0,2,2,0,1,sequence_tables/blk010.csv
,,56cfd0ddd691bb000697baef,65af53a2be6af047326a9879,2024-01-22_23h51.23.665,bars,2023.2.3,Linux x86_64,59.88023952,657b66ea316d21385b68909f,,,,,,,,,,,2596.4208,2597.3699,,,2597.8714,2598.1215,,34,34,,,,,,,,,,,,,,,,bars/028.png,bars/mask003.png,,,,,,,,,,,,3,1,,,,,,,2,7,4,8,,,,,,2169.964,2596.3685,space,426.3847,,2597.3699,2597.8713,2598.1216,2602.3169,space,4.1835,,2602.317,11,86,2603.3194,2603.3195,2603.3605,,,,0,0,0,0,1,45,120,,,,,,,,
,,56cfd0ddd691bb000697baef,65af53a2be6af047326a9879,2024-01-22_23h51.23.665,bars,2023.2.3,Linux x86_64,59.88023952,657b66ea316d21385b68909f,,,,,,,,,,,2603.3611,2604.3559,,,2604.858,2605.108,,112,112,,,,,,,,,,,,,,,,bars/044.png,bars/mask000.png,,,,,,,,,,,,0,1,,,,,,,4,5,3,5,,,,,,,,,,,2604.3559,2604.858,2605.108,2608.2831,space,3.1664,,2608.2832,37,43,2609.2865,2609.2866,2609.3254,,,,0,1,1,1,1,75,155,,,,,,,,
,,56cfd0ddd691bb000697baef,65af53a2be6af047326a9879,2024-01-22_23h51.23.665,bars,2023.2.3,Linux x86_64,59.88023952,657b66ea316d21385b68909f,,,,,,,,,,,2609.3259,2610.3225,,,2610.8234,2611.074,,115,-65,,,,,,,,,,,,,,,,bars/020.png,bars/mask003.png,,,,,,,,,,,,7,1,,,,,,,6,7,7,8,,,,,,,,,,,2610.3225,2610.8234,2611.074,2614.6348,space,3.5518,,2614.6348,0,55,2615.6373,2615.6373,2615.6756,,,,0,2,2,2,1,115,170,,,,,,,,
,,56cfd0ddd691bb000697baef,65af53a2be6af047326a9879,2024-01-22_23h51.23.665,bars,2023.2.3,Linux x86_64,59.88023952,657b66ea316d21385b68909f,,,,,,,,,,,2615.6761,2616.6737,,,2617.1746,2617.4258,,26,26,,,,,,,,,,,,,,,,bars/026.png,bars/mask002.png,,,,,,,,,,,,5,1,,,,,,,8,5,7,5,,,,,,,,,,,2616.6738,2617.1745,2617.4258,2619.4153,space,1.9822,,2619.4154,9,59,2620.4166,2620.4167,2620.4185,,,,0,3,3,3,1,35,85,,,,,,,,
,,56cfd0ddd691bb000697baef,65af53a2be6af047326a9879,2024-01-22_23h51.23.665,bars,2023.2.3,Linux x86_64,59.88023952,657b66ea316d21385b68909f,,,,,,,,,,,2620.4206,2621.4188,,,2621.9206,2622.1718,,133,133,,,,,,,,,,,,,,,,bars/002.png,bars/mask009.png,,,,,,,,,,,,5,1,,,,,,,6,3,6,2,,,,,,,,,,,2621.4189,2621.9206,2622.1718,2624.8719,space,2.6913,,2624.872,3,48,2625.8645,2625.8645,2625.8999,,,,0,4,4,4,1,130,85,,,,,,,,
,,56cfd0ddd691bb000697baef,65af53a2be6af047326a9879,2024-01-22_23h51.23.665,bars,2023.2.3,Linux x86_64,59.88023952,657b66ea316d21385b68909f,,,,,,,,,,,2625.9005,2626.9013,,,2627.4031,2627.6539,,157,157,,,,,,,,,,,,,,,,bars/036.png,bars/mask009.png,,,,,,,,,,,,2,1,,,,,,,4,5,4,6,,,,,,,,,,,2626.9013,2627.4031,2627.654,2630.4613,space,2.7961,,2630.4613,12,43,2631.4639,2631.464,2631.5026,,,,0,5,5,5,1,145,20,,,,,,,,
,,56cfd0ddd691bb000697baef,65af53a2be6af047326a9879,2024-01-22_23h51.23.665,bars,2023.2.3,Linux x86_64,59.88023952,657b66ea316d21385b68909f,,,,,,,,,,,2631.5032,2632.5002,,,2633.0008,2633.2521,,49,229,,,,,,,,,,,,,,,,bars/013.png,bars/mask007.png,,,,,,,,,,,,0,1,,,,,,,2,3,3,3,,,,,,,,,,,2632.5003,2633.0008,2633.2522,2637.2966,space,4.0337,,2637.2966,26,39,2638.2994,2638.2994,2638.3334,,,,0,6,6,6,1,75,10,,,,,,,,
,,56cfd0ddd691bb000697baef,65af53a2be6af047326a9879,2024-01-22_23h51.23.665,bars,2023.2.3,Linux x86_64,59.88023952,657b66ea316d21385b68909f,,,,,,,,,,,2638.334,2639.3353,,,2639.8365,2640.0879,,119,119,,,,,,,,,,,,,,,,bars/014.png,bars/mask002.png,,,,,,,,,,,,0,1,,,,,,,4,1,6,2,,,,,,,,,,,2639.3354,2639.8365,2640.0879,2645.0008,space,4.8984,,2645.0008,39,61,2646.0034,2646.0034,2646.0439,,,,0,7,7,7,1,80,0,,,,,,,,
,,56cfd0ddd691bb000697baef,65af53a2be6af047326a9879,2024-01-22_23h51.23.665,bars,2023.2.3,Linux x86_64,59.88023952,657b66ea316d21385b68909f,,,,,,,,,,,2646.0445,2647.0397,,,2647.5411,2647.7915,,100,100,,,,,,,,,,,,,,,,bars/022.png,bars/mask005.png,,,,,,,,,,,,4,1,,,,,,,6,3,5,4,,,,,,,,,,,2647.0398,2647.541,2647.7917,2653.1902,space,5.3877,,2653.1902,5,80,2654.1937,2654.1937,2654.2304,,,,0,8,8,8,1,95,20,,,,,,,,
,,56cfd0ddd691bb000697baef,65af53a2be6af047326a9879,2024-01-22_23h51.23.665,bars,2023.2.3,Linux x86_64,59.88023952,657b66ea316d21385b68909f,,,,,,,,,,,2654.2309,2655.229,,,2655.7306,2655.9814,,24,204,,,,,,,,,,,,,,,,bars/047.png,bars/mask007.png,,,,,,,,,,,,5,1,,,,,,,8,5,7,5,,,,,,,,,,,2655.2291,2655.7306,2655.9815,2659.5584,space,3.5589,,2659.5585,9,46,2660.5601,2660.5602,2660.5958,,,,0,9,9,9,1,15,70,,,,,,,,
,,56cfd0ddd691bb000697baef,65af53a2be6af047326a9879,2024-01-22_23h51.23.665,bars,2023.2.3,Linux x86_64,59.88023952,657b66ea316d21385b68909f,,,,,,,,,,,2660.5964,2661.5971,,,2662.0984,2662.3488,,84,84,,,,,,,,,,,,,,,,bars/014.png,bars/mask001.png,,,,,,,,,,,,9,1,,,,,,,10,3,10,4,,,,,,,,,,,2661.5971,2662.0984,2662.3488,2664.6904,space,2.3331,,2664.6905,4,84,2665.6905,2665.6905,2665.7283,,,,0,10,10,10,1,80,0,,,,,,,,
,,56cfd0ddd691bb000697baef,65af53a2be6af047326a9879,2024-01-22_23h51.23.665,bars,2023.2.3,Linux x86_64,59.88023952,657b66ea316d21385b68909f,,,,,,,,,,,2665.7291,2666.7272,,,2667.2287,2667.4793,,144,-36,,,,,,,,,,,,,,,,bars/021.png,bars/mask006.png,,,,,,,,,,,,6,1,,,,,,,10,1,10,4,,,,,,,,,,,2666.7272,2667.2286,2667.4794,2669.4678,space,1.9804,,2669.4679,11,74,2670.4712,2670.4712,2670.4725,,,,0,11,11,11,1,155,70,,,,,,,,
,,56cfd0ddd691bb000697baef,65af53a2be6af047326a9879,2024-01-22_23h51.23.665,bars,2023.2.3,Linux x86_64,59.88023952,657b66ea316d21385b68909f,,,,,,,,,,,2670.4731,2671.4735,,,2671.976,2672.2256,,46,46,,,,,,,,,,,,,,,,bars/006.png,bars/mask001.png,,,,,,,,,,,,6,1,,,,,,,10,3,10,3,,,,,,,,,,,2671.4735,2671.9759,2672.2257,2673.3806,space,1.1373,,2673.3806,11,54,2674.382,2674.3821,2674.3833,,,,0,12,12,12,1,35,100,,,,,,,,
,,56cfd0ddd691bb000697baef,65af53a2be6af047326a9879,2024-01-22_23h51.23.665,bars,2023.2.3,Linux x86_64,59.88023952,657b66ea316d21385b68909f,,,,,,,,,,,2674.384,2675.3852,,,2675.8733,2676.1198,,110,110,,,,,,,,,,,,,,,,bars/025.png,bars/mask001.png,,,,,,,,,,,,5,1,,,,,,,8,5,6,3,,,,,,,,,,,2675.3852,2675.8733,2676.1198,2678.0581,space,1.9259,,2678.0582,5,70,2679.0611,2679.0611,2679.098,,,,0,13,13,13,1,105,40,,,,,,,,
,,56cfd0ddd691bb000697baef,65af53a2be6af047326a9879,2024-01-22_23h51.23.665,bars,2023.2.3,Linux x86_64,59.88023952,657b66ea316d21385b68909f,,,,,,,,,,,2679.0986,2680.0975,,,2680.5981,2680.8498,,163,163,,,,,,,,,,,,,,,,bars/042.png,bars/mask009.png,,,,,,,,,,,,4,1,,,,,,,10,7,10,8,,,,,,,,,,,2680.0975,2680.5981,2680.8498,2683.7234,space,2.8602,,2683.7234,18,88,2684.7286,2684.7286,2684.7809,,,,0,14,14,14,1,145,75,,,,,,,,
,,56cfd0ddd691bb000697baef,65af53a2be6af047326a9879,2024-01-22_23h51.23.665,bars,2023.2.3,Linux x86_64,59.88023952,657b66ea316d21385b68909f,,,,,,,,,,,2684.7817,2685.7803,,,2686.281,2686.5326,,147,147,,,,,,,,,,,,,,,,bars/024.png,bars/mask005.png,,,,,,,,,,,,1,2,,,,,,,8,5,7,4,,,,,,,,,,,2685.7803,2686.2809,2686.5327,2690.7269,space,4.1812,,2690.7269,27,23,2691.7291,2691.7292,2691.7706,,,,0,15,15,15,1,120,170,,,,,,,,
,,56cfd0ddd691bb000697baef,65af53a2be6af047326a9879,2024-01-22_23h51.23.665,bars,2023.2.3,Linux x86_64,59.88023952,657b66ea316d21385b68909f,,,,,,,,,,,2691.7712,2692.7659,,,2693.2679,2693.5179,,79,79,,,,,,,,,,,,,,,,bars/013.png,bars/mask008.png,,,,,,,,,,,,4,1,,,,,,,6,3,5,5,,,,,,,,,,,2692.766,2693.2678,2693.5179,2696.5589,space,3.0297,,2696.5589,4,69,2697.5618,2697.5619,2697.6033,,,,0,16,16,16,1,75,10,,,,,,,,
,,56cfd0ddd691bb000697baef,65af53a2be6af047326a9879,2024-01-22_23h51.23.665,bars,2023.2.3,Linux x86_64,59.88023952,657b66ea316d21385b68909f,,,,,,,,,,,2697.604,2698.5983,,,2699.0992,2699.3499,,147,-33,,,,,,,,,,,,,,,,bars/015.png,bars/mask001.png,,,,,,,,,,,,3,2,,,,,,,8,5,8,5,,,,,,,,,,,2698.5984,2699.0991,2699.35,2702.0587,space,2.6952,,2702.0587,37,13,2703.061,2703.0611,2703.0954,,,,0,17,17,17,1,110,160,,,,,,,,
,,56cfd0ddd691bb000697baef,65af53a2be6af047326a9879,2024-01-22_23h51.23.665,bars,2023.2.3,Linux x86_64,59.88023952,657b66ea316d21385b68909f,,,,,,,,,,,2703.0961,2704.0966,,,2704.5982,2704.8489,,157,157,,,,,,,,,,,,,,,,bars/042.png,bars/mask006.png,,,,,,,,,,,,4,1,,,,,,,6,3,7,3,,,,,,,,,,,2704.0967,2704.5982,2704.849,2708.493,space,3.6329,,2708.4931,12,82,2709.494,2709.4941,2709.5314,,,,0,18,18,18,1,145,75,,,,,,,,
,,56cfd0ddd691bb000697baef,65af53a2be6af047326a9879,2024-01-22_23h51.23.665,bars,2023.2.3,Linux x86_64,59.88023952,657b66ea316d21385b68909f,,,,,,,,,,,2709.532,2710.5313,,,2711.0325,2711.2831,,16,16,,,,,,,,,,,,,,,,bars/016.png,bars/mask009.png,,,,,,,,,,,,2,1,,,,,,,8,1,9,1,,,,,,,,,,,2710.5314,2711.0325,2711.2831,2713.6055,space,2.3114,,2713.6055,24,31,2714.6086,2714.6086,2714.6095,,,,0,19,19,19,1,40,165,,,,,,,,
,,56cfd0ddd691bb000697baef,65af53a2be6af047326a9879,2024-01-22_23h51.23.665,bars,2023.2.3,Linux x86_64,59.88023952,657b66ea316d21385b68909f,,,,,,,,,,,2714.6099,2715.6114,,,2716.1128,2716.3636,,48,48,,,,,,,,,,,,,,,,bars/043.png,bars/mask004.png,,,,,,,,,,,,4,1,,,,,,,10,0,10,0,,,,,,,,,,,2715.6115,2716.1128,2716.3637,2718.0698,space,1.6995,,2718.0699,18,82,2719.0708,2719.0709,2719.1049,,,,0,20,20,20,1,30,130,,,,,,,,
,,56cfd0ddd691bb000697baef,65af53a2be6af047326a9879,2024-01-22_23h51.23.665,bars,2023.2.3,Linux x86_64,59.88023952,657b66ea316d21385b68909f,,,,,,,,,,,2719.1055,2720.1071,,,2720.6096,2720.859,,46,226,,,,,,,,,,,,,,,,bars/043.png,bars/mask002.png,,,,,,,,,,,,3,1,,,,,,,8,0,6,0,,,,,,,,,,,2720.1071,2720.6095,2720.8591,2723.4171,space,2.5462,,2723.4172,16,84,2724.4199,2724.4199,2724.4564,,,,0,21,21,21,1,30,130,,,,,,,,
,,56cfd0ddd691bb000697baef,65af53a2be6af047326a9879,2024-01-22_23h51.23.665,bars,2023.2.3,Linux x86_64,59.88023952,657b66ea316d21385b68909f,,,,,,,,,,,2724.457,2725.4557,,,2725.9571,2726.2077,,125,125,,,,,,,,,,,,,,,,bars/045.png,bars/mask004.png,,,,,,,,,,,,1,1,,,,,,,6,0,7,0,,,,,,,,,,,2725.4557,2725.957,2726.2077,2728.8477,space,2.6244,,2728.8477,25,65,2729.8502,2729.8503,2729.8876,,,,0,22,22,22,1,100,10,,,,,,,,
,,56cfd0ddd691bb000697baef,65af53a2be6af047326a9879,2024-01-22_23h51.23.665,bars,2023.2.3,Linux x86_64,59.88023952,657b66ea316d21385b68909f,,,,,,,,,,,2729.8882,2730.8869,,,2731.388,2731.6391,,155,-25,,,,,,,,,,,,,,,,bars/021.png,bars/mask001.png,,,,,,,,,,,,2,1,,,,,,,4,2,2,1,,,,,,,,,,,2730.8869,2731.388,2731.6392,2734.6826,space,3.0344,,2734.6826,0,85,2735.684,2735.6841,2735.7198,,,,0,23,23,23,1,155,70,,,,,,,,
,,56cfd0ddd691bb000697baef,65af53a2be6af047326a9879,2024-01-22_23h51.23.665,bars,2023.2.3,Linux x86_64,59.88023952,657b66ea316d21385b68909f,,,,,,,,,,,2735.7204,2736.7195,,,2737.2206,2737.4714,,118,118,,,,,,,,,,,,,,,,bars/018.png,bars/mask008.png,,,,,,,,,,,,0,2,,,,,,,2,4,0,4,,,,,,,,,,,2736.7195,2737.2206,2737.4714,2739.846,space,2.3607,,2739.846,32,28,2740.8476,2740.848,2740.8515,,,,0,24,24,24,1,150,90,,,,,,,,
,,56cfd0ddd691bb000697baef,65af53a2be6af047326a9879,2024-01-22_23h51.23.665,bars,2023.2.3,Linux x86_64,59.88023952,657b66ea316d21385b68909f,,,,,,,,,,,2740.852,2741.8505,,,2742.3523,2742.6035,,163,-17,,,,,,,,,,,,,,,,bars/048.png,bars/mask004.png,,,,,,,,,,,,4,2,,,,,,,0,6,0,6,,,,,,,,,,,2741.8506,2742.3523,2742.6036,2746.5296,space,3.9164,,2746.5296,67,12,2747.5329,2747.533,2747.5736,,,,0,25,25,25,1,50,175,,,,,,,,
,,56cfd0ddd691bb000697baef,65af53a2be6af047326a9879,2024-01-22_23h51.23.665,bars,2023.2.3,Linux x86_64,59.88023952,657b66ea316d21385b68909f,,,,,,,,,,,2747.5741,2748.5684,,,2749.0708,2749.3202,,142,142,,,,,,,,,,,,,,,,bars/000.png,bars/mask006.png,,,,,,,,,,,,7,2,,,,,,,2,8,3,8,,,,,,,,,,,2748.5684,2749.0708,2749.3203,2751.5099,space,2.1763,,2751.5102,78,3,2752.5134,2752.5135,2752.5147,,,,0,26,26,26,1,40,145,,,,,,,,
,,56cfd0ddd691bb000697baef,65af53a2be6af047326a9879,2024-01-22_23h51.23.665,bars,2023.2.3,Linux x86_64,59.88023952,657b66ea316d21385b68909f,,,,,,,,,,,2752.5153,2753.5154,,,2754.0059,2754.2507,,78,-102,,,,,,,,,,,,,,,,bars/011.png,bars/mask001.png,,,,,,,,,,,,5,2,,,,,,,0,6,0,6,,,,,,,,,,,2753.5154,2754.0058,2754.2508,2758.7473,space,4.4772,,2758.7473,82,7,2759.749,2759.7491,2759.7795,,,,0,27,27,27,1,160,85,,,,,,,,
,,56cfd0ddd691bb000697baef,65af53a2be6af047326a9879,2024-01-22_23h51.23.665,bars,2023.2.3,Linux x86_64,59.88023952,657b66ea316d21385b68909f,,,,,,,,,,,2759.7803,2760.7693,,,2761.2703,2761.5209,,63,63,,,,,,,,,,,,,,,,bars/042.png,bars/mask005.png,,,,,,,,,,,,5,2,,,,,,,0,8,0,8,,,,,,,,,,,2760.7694,2761.2702,2761.521,2763.6102,space,2.0797,,2763.6103,82,12,2764.6129,2764.6129,2764.6141,,,,0,28,28,28,1,145,75,,,,,,,,
,,56cfd0ddd691bb000697baef,65af53a2be6af047326a9879,2024-01-22_23h51.23.665,bars,2023.2.3,Linux x86_64,59.88023952,657b66ea316d21385b68909f,,,,,,,,,,,2764.6146,2765.6154,,,2766.1168,2766.368,,95,95,,,,,,,,,,,,,,,,bars/018.png,bars/mask008.png,,,,,,,,,,,,6,2,,,,,,,2,6,2,7,,,,,,,,,,,2765.6154,2766.1168,2766.368,2768.156,space,1.7726,,2768.156,55,5,2769.1584,2769.1585,2769.1985,,,,0,29,29,29,1,150,90,,,,,,,,
,,56cfd0ddd691bb000697baef,65af53a2be6af047326a9879,2024-01-22_23h51.23.665,bars,2023.2.3,Linux x86_64,59.88023952,657b66ea316d21385b68909f,,,,,,,,,,,2769.1993,2770.195,,,2770.6958,2770.9469,,135,135,,,,,,,,,,,,,,,,bars/023.png,bars/mask002.png,,,,,,,,,,,,3,2,,,,,,,0,8,0,10,,,,,,,,,,,2770.1951,2770.6956,2770.9469,2772.2507,space,1.2786,,2772.2507,65,20,2773.2402,2773.2402,2773.2791,,,,0,30,30,30,1,20,115,,,,,,,,
,,56cfd0ddd691bb000697baef,65af53a2be6af047326a9879,2024-01-22_23h51.23.665,bars,2023.2.3,Linux x86_64,59.88023952,657b66ea316d21385b68909f,,,,,,,,,,,2773.2797,2774.2733,,,2774.7747,2775.0243,,54,54,,,,,,,,,,,,,,,,bars/045.png,bars/mask005.png,,,,,,,,,,,,0,2,,,,,,,0,6,0,6,,,,,,,,,,,2774.2734,2774.7746,2775.0244,2779.793,space,4.7618,,2779.793,46,44,2780.791,2780.791,2780.8301,,,,0,31,31,31,1,100,10,,,,,,,,
,,56cfd0ddd691bb000697baef,65af53a2be6af047326a9879,2024-01-22_23h51.23.665,bars,2023.2.3,Linux x86_64,59.88023952,657b66ea316d21385b68909f,,,,,,,,,,,2780.8307,2781.8268,,,2782.3278,2782.5812,,35,35,,,,,,,,,,,,,,,,bars/033.png,bars/mask008.png,,,,,,,,,,,,2,1,,,,,,,2,8,3,7,,,,,,,,,,,2781.8269,2782.3278,2782.5813,2784.8516,space,2.2575,,2784.8516,10,60,2785.854,2785.854,2785.8953,,,,0,32,32,32,1,25,155,,,,,,,,
,,56cfd0ddd691bb000697baef,65af53a2be6af047326a9879,2024-01-22_23h51.23.665,bars,2023.2.3,Linux x86_64,59.88023952,657b66ea316d21385b68909f,,,,,,,,,,,2785.8959,2786.8904,,,2787.3915,2787.6428,,143,-37,,,,,,,,,,,,,,,,bars/017.png,bars/mask003.png,,,,,,,,,,,,2,1,,,,,,,4,10,2,10,,,,,,,,,,,2786.8904,2787.3914,2787.6429,2791.036,space,3.3824,,2791.0361,2,82,2792.0381,2792.0382,2792.0725,,,,0,33,33,33,1,145,45,,,,,,,,
,,56cfd0ddd691bb000697baef,65af53a2be6af047326a9879,2024-01-22_23h51.23.665,bars,2023.2.3,Linux x86_64,59.88023952,657b66ea316d21385b68909f,,,,,,,,,,,2792.073,2793.0739,,,2793.5758,2793.8268,,76,76,,,,,,,,,,,,,,,,bars/014.png,bars/mask000.png,,,,,,,,,,,,6,1,,,,,,,6,10,7,8,,,,,,,,,,,2793.0739,2793.5758,2793.8269,2795.382,space,1.5367,,2795.382,4,76,2796.3843,2796.3844,2796.3857,,,,0,34,34,34,1,80,0,,,,,,,,
,,56cfd0ddd691bb000697baef,65af53a2be6af047326a9879,2024-01-22_23h51.23.665,bars,2023.2.3,Linux x86_64,59.88023952,657b66ea316d21385b68909f,,,,,,,,,,,2796.3862,2797.386,,,2797.8884,2798.139,,116,116,,,,,,,,,,,,,,,,bars/046.png,bars/mask005.png,,,,,,,,,,,,0,2,,,,,,,8,8,9,9,,,,,,,,,,,2797.3861,2797.8883,2798.1391,2801.315,space,3.1684,,2801.3151,39,31,2802.3157,2802.3157,2802.3512,,,,0,35,35,35,1,155,85,,,,,,,,
,,56cfd0ddd691bb000697baef,65af53a2be6af047326a9879,2024-01-22_23h51.23.665,bars,2023.2.3,Linux x86_64,59.88023952,657b66ea316d21385b68909f,,,,,,,,,,,2802.3521,2803.3528,,,2803.854,2804.1043,,80,80,,,,,,,,,,,,,,,,bars/027.png,bars/mask001.png,,,,,,,,,,,,0,2,,,,,,,6,10,7,10,,,,,,,,,,,2803.3528,2803.854,2804.1044,2808.1662,space,4.0444,,2808.1663,30,30,2809.1688,2809.1688,2809.2072,,,,0,36,36,36,1,110,50,,,,,,,,
,,56cfd0ddd691bb000697baef,65af53a2be6af047326a9879,2024-01-22_23h51.23.665,bars,2023.2.3,Linux x86_64,59.88023952,657b66ea316d21385b68909f,,,,,,,,,,,2809.2078,2810.2043,,,2810.706,2810.9573,,118,118,,,,,,,,,,,,,,,,bars/001.png,bars/mask004.png,,,,,,,,,,,,5,1,,,,,,,8,8,9,8,,,,,,,,,,,2810.2044,2810.706,2810.9573,2814.0015,space,3.0378,,2814.0016,12,33,2815.0016,2815.0016,2815.0283,,,,0,37,37,37,1,130,85,,,,,,,,
,,56cfd0ddd691bb000697baef,65af53a2be6af047326a9879,2024-01-22_23h51.23.665,bars,2023.2.3,Linux x86_64,59.88023952,657b66ea316d21385b68909f,,,,,,,,,,,2815.0287,2816.0204,,,2816.522,2816.7734,,34,34,,,,,,,,,,,,,,,,bars/006.png,bars/mask007.png,,,,,,,,,,,,10,1,,,,,,,10,10,10,10,,,,,,,,,,,2816.0205,2816.522,2816.7734,2818.6787,space,1.8942,,2818.6787,1,66,2819.6807,2819.6808,2819.7147,,,,0,38,38,38,1,35,100,,,,,,,,
,,56cfd0ddd691bb000697baef,65af53a2be6af047326a9879,2024-01-22_23h51.23.665,bars,2023.2.3,Linux x86_64,59.88023952,657b66ea316d21385b68909f,,,,,,,,,,,2819.7153,2820.7163,,,2821.218,2821.4695,,142,142,,,,,,,,,,,,,,,,bars/002.png,bars/mask005.png,,,,,,,,,,,,6,1,,,,,,,10,10,10,10,,,,,,,,,,,2820.7164,2821.218,2821.4696,2823.6082,space,2.1291,,2823.6085,12,57,2824.6125,2824.6126,2824.6512,,,,0,39,39,39,1,130,85,,,,,,,,
,,56cfd0ddd691bb000697baef,65af53a2be6af047326a9879,2024-01-22_23h51.23.665,bars,2023.2.3,Linux x86_64,59.88023952,657b66ea316d21385b68909f,,,,,,,,,,,2824.6518,2825.6478,,,2826.1494,2826.4004,,110,110,,,,,,,,,,,,,,,,bars/020.png,bars/mask000.png,,,,,,,,,,,,6,1,,,,,,,8,8,7,7,,,,,,,,,,,2825.6478,2826.1494,2826.4004,2829.2247,space,2.8083,,2829.2248,5,60,2830.2262,2830.2262,2830.2605,,,,0,40,40,40,1,115,170,,,,,,,,
,,56cfd0ddd691bb000697baef,65af53a2be6af047326a9879,2024-01-22_23h51.23.665,bars,2023.2.3,Linux x86_64,59.88023952,657b66ea316d21385b68909f,,,,,,,,,,,2830.2612,2831.2622,,,2831.7631,2832.0153,,154,154,,,,,,,,,,,,,,,,bars/037.png,bars/mask007.png,,,,,,,,,,,,9,1,,,,,,,10,6,10,5,,,,,,,,,,,2831.2622,2831.7631,2832.0153,2833.552,space,1.5271,,2833.552,4,49,2834.5551,2834.5551,2834.5564,,,,0,41,41,41,1,150,105,,,,,,,,
,,56cfd0ddd691bb000697baef,65af53a2be6af047326a9879,2024-01-22_23h51.23.665,bars,2023.2.3,Linux x86_64,59.88023952,657b66ea316d21385b68909f,,,,,,,,,,,2834.5571,2835.5571,,,2836.0588,2836.318,,163,-17,,,,,,,,,,,,,,,,bars/039.png,bars/mask002.png,,,,,,,,,,,,4,1,,,,,,,8,8,7,7,,,,,,,,,,,2835.5572,2836.0588,2836.318,2838.4323,space,2.0979,,2838.4324,12,58,2839.4344,2839.4345,2839.4732,,,,0,42,42,42,1,175,105,,,,,,,,
,,56cfd0ddd691bb000697baef,65af53a2be6af047326a9879,2024-01-22_23h51.23.665,bars,2023.2.3,Linux x86_64,59.88023952,657b66ea316d21385b68909f,,,,,,,,,,,2839.4738,2840.4705,,,2840.9729,2841.2231,,171,171,,,,,,,,,,,,,,,,bars/035.png,bars/mask005.png,,,,,,,,,,,,3,1,,,,,,,6,6,4,5,,,,,,,,,,,2840.4706,2840.9729,2841.2231,2843.8703,space,2.6398,,2843.8703,4,69,2844.867,2844.8671,2844.9052,,,,0,43,43,43,1,175,60,,,,,,,,
,,56cfd0ddd691bb000697baef,65af53a2be6af047326a9879,2024-01-22_23h51.23.665,bars,2023.2.3,Linux x86_64,59.88023952,657b66ea316d21385b68909f,,,,,,,,,,,2844.906,2845.9025,,,2846.4045,2846.6544,,14,14,,,,,,,,,,,,,,,,bars/009.png,bars/mask003.png,,,,,,,,,,,,7,1,,,,,,,8,4,7,4,,,,,,,,,,,2845.9026,2846.4044,2846.6545,2849.3461,space,2.6803,,2849.3463,1,89,2850.348,2850.3481,2850.3834,,,,0,44,44,44,1,15,105,,,,,,,,
,,56cfd0ddd691bb000697baef,65af53a2be6af047326a9879,2024-01-22_23h51.23.665,bars,2023.2.3,Linux x86_64,59.88023952,657b66ea316d21385b68909f,,,,,,,,,,,2850.384,2851.3846,,,2851.8863,2852.1362,,28,208,,,,,,,,,,,,,,,,bars/016.png,bars/mask002.png,,,,,,,,,,,,6,1,,,,,,,10,6,10,6,,,,,,,,,,,2851.3847,2851.8863,2852.1362,2854.5288,space,2.3823,,2854.5289,12,43,2855.5291,2855.5292,2855.5646,,,,0,45,45,45,1,40,165,,,,,,,,
,,56cfd0ddd691bb000697baef,65af53a2be6af047326a9879,2024-01-22_23h51.23.665,bars,2023.2.3,Linux x86_64,59.88023952,657b66ea316d21385b68909f,,,,,,,,,,,2855.5652,2856.5658,,,2857.0669,2857.3173,,75,255,,,,,,,,,,,,,,,,bars/014.png,bars/mask001.png,,,,,,,,,,,,6,1,,,,,,,8,4,7,5,,,,,,,,,,,2856.5659,2857.0669,2857.3173,2860.7936,space,3.4593,,2860.7936,5,75,2861.7962,2861.7962,2861.8315,,,,0,46,46,46,1,80,0,,,,,,,,
,,56cfd0ddd691bb000697baef,65af53a2be6af047326a9879,2024-01-22_23h51.23.665,bars,2023.2.3,Linux x86_64,59.88023952,657b66ea316d21385b68909f,,,,,,,,,,,2861.8323,2862.8327,,,2863.3344,2863.5843,,134,134,,,,,,,,,,,,,,,,bars/015.png,bars/mask008.png,,,,,,,,,,,,2,1,,,,,,,10,6,10,5,,,,,,,,,,,2862.8328,2863.3344,2863.5843,2865.3733,space,1.7758,,2865.3734,24,26,2866.376,2866.376,2866.4111,,,,0,47,47,47,1,110,160,,,,,,,,
,,56cfd0ddd691bb000697baef,65af53a2be6af047326a9879,2024-01-22_23h51.23.665,bars,2023.2.3,Linux x86_64,59.88023952,657b66ea316d21385b68909f,,,,,,,,,,,2866.4116,2867.4116,,,2867.9131,2868.164,,163,163,,,,,,,,,,,,,,,,bars/037.png,bars/mask009.png,,,,,,,,,,,,4,1,,,,,,,8,8,7,8,,,,,,,,,,,2867.4117,2867.913,2868.164,2869.6519,space,1.4722,,2869.652,13,58,2870.6536,2870.6536,2870.6549,,,,0,48,48,48,1,150,105,,,,,,,,
,,56cfd0ddd691bb000697baef,65af53a2be6af047326a9879,2024-01-22_23h51.23.665,bars,2023.2.3,Linux x86_64,59.88023952,657b66ea316d21385b68909f,,,,,,,,,,,2870.6569,2871.6563,,,2872.1442,2872.3922,,68,248,,,,,,,,,,,,,,,,bars/044.png,bars/mask009.png,,,,,,,,,,,,5,1,,,,,,,6,10,7,10,,,,,,,,,,,2871.6564,2872.1442,2872.3923,2878.0752,space,5.6725,,2878.0753,7,87,2879.0774,2879.0775,2879.1181,,,,0,49,49,49,1,75,155,,,,,,,,
,,56cfd0ddd691bb000697baef,65af53a2be6af047326a9879,2024-01-22_23h51.23.665,bars,2023.2.3,Linux x86_64,59.88023952,657b66ea316d21385b68909f,,,,,,,,,,,,,,,,,,,,,,,,,,,,,,,,,,,,,,,,,,,,,,,,,,,,,,,,,,,,,,,,,,,,,,,,,,,,,,,,,,,,,,,,,,,,,2879.1186,2939.1099,0,3,3,2,1,sequence_tables/blk009.csv
,,56cfd0ddd691bb000697baef,65af53a2be6af047326a9879,2024-01-22_23h51.23.665,bars,2023.2.3,Linux x86_64,59.88023952,657b66ea316d21385b68909f,,,,,,,,,,,3068.8623,3069.8176,,,3070.32,3070.5695,,117,-63,,,,,,,,,,,,,,,,bars/008.png,bars/mask004.png,,,,,,,,,,,,2,1,,,,,,,2,8,2,9,,,,,,2939.1485,3068.8147,space,129.6517,,3069.8176,3070.32,3070.5695,3074.2462,space,3.6628,,3074.2463,7,63,3075.249,3075.249,3075.2829,,,,0,0,0,0,1,110,0,,,,,,,,
,,56cfd0ddd691bb000697baef,65af53a2be6af047326a9879,2024-01-22_23h51.23.665,bars,2023.2.3,Linux x86_64,59.88023952,657b66ea316d21385b68909f,,,,,,,,,,,3075.2834,3076.2846,,,3076.7871,3077.0381,,144,144,,,,,,,,,,,,,,,,bars/031.png,bars/mask006.png,,,,,,,,,,,,1,1,,,,,,,4,10,5,10,,,,,,,,,,,3076.2847,3076.7871,3077.0382,3078.1736,space,1.1231,,3078.1737,24,71,3079.1768,3079.1769,3079.2158,,,,0,1,1,1,1,120,35,,,,,,,,
,,56cfd0ddd691bb000697baef,65af53a2be6af047326a9879,2024-01-22_23h51.23.665,bars,2023.2.3,Linux x86_64,59.88023952,657b66ea316d21385b68909f,,,,,,,,,,,3079.2165,3080.2126,,,3080.7153,3080.9658,,95,95,,,,,,,,,,,,,,,,bars/011.png,bars/mask003.png,,,,,,,,,,,,5,2,,,,,,,6,8,7,7,,,,,,,,,,,3080.2126,3080.7153,3080.9659,3082.6702,space,1.69,,3082.6703,65,10,3083.6722,3083.6723,3083.7134,,,,0,2,2,2,1,160,85,,,,,,,,
,,56cfd0ddd691bb000697baef,65af53a2be6af047326a9879,2024-01-22_23h51.23.665,bars,2023.2.3,Linux x86_64,59.88023952,657b66ea316d21385b68909f,,,,,,,,,,,3083.714,3084.7092,,,3085.2103,3085.4605,,80,80,,,,,,,,,,,,,,,,bars/006.png,bars/mask001.png,,,,,,,,,,,,3,2,,,,,,,8,10,7,9,,,,,,,,,,,3084.7093,3085.2101,3085.4605,3089.1379,space,3.6623,,3089.1379,45,20,3090.1395,3090.1396,3090.1731,,,,0,3,3,3,1,35,100,,,,,,,,
,,56cfd0ddd691bb000697baef,65af53a2be6af047326a9879,2024-01-22_23h51.23.665,bars,2023.2.3,Linux x86_64,59.88023952,657b66ea316d21385b68909f,,,,,,,,,,,3090.1736,3091.1757,,,3091.6782,3091.928,,136,136,,,,,,,,,,,,,,,,bars/043.png,bars/mask005.png,,,,,,,,,,,,6,2,,,,,,,10,8,10,7,,,,,,,,,,,3091.1758,3091.6781,3091.9281,3094.9699,space,3.0269,,3094.9699,74,6,3095.9725,3095.9726,3096.0051,,,,0,4,4,4,1,30,130,,,,,,,,
,,56cfd0ddd691bb000697baef,65af53a2be6af047326a9879,2024-01-22_23h51.23.665,bars,2023.2.3,Linux x86_64,59.88023952,657b66ea316d21385b68909f,,,,,,,,,,,3096.0062,3097.0092,,,3097.5105,3097.7609,,88,88,,,,,,,,,,,,,,,,bars/019.png,bars/mask006.png,,,,,,,,,,,,2,2,,,,,,,8,6,9,5,,,,,,,,,,,3097.0093,3097.5104,3097.7609,3099.8164,space,2.044,,3099.8165,43,17,3100.8199,3100.8199,3100.8226,,,,0,5,5,5,1,45,105,,,,,,,,
,,56cfd0ddd691bb000697baef,65af53a2be6af047326a9879,2024-01-22_23h51.23.665,bars,2023.2.3,Linux x86_64,59.88023952,657b66ea316d21385b68909f,,,,,,,,,,,3100.8235,3101.822,,,3102.3105,3102.557,,33,213,,,,,,,,,,,,,,,,bars/007.png,bars/mask009.png,,,,,,,,,,,,1,2,,,,,,,6,4,5,5,,,,,,,,,,,3101.8221,3102.3105,3102.557,3106.3012,space,3.7195,,3106.3013,38,22,3107.3033,3107.3034,3107.3428,,,,0,6,6,6,1,175,55,,,,,,,,
