init_variables.started,init_variables.stopped,participant,session,date,expName,psychopyVersion,OS,frameRate,study_id,instruction_exp.started,instruction_exp.stopped,key_resp_8.keys,key_resp_8.rt,key_resp_8.duration,instruction_single.started,instruction_single.stopped,key_resp_2.keys,key_resp_2.rt,key_resp_2.duration,interval.started,interval.stopped,cue_single.started,cue_single.stopped,mask.started,mask.stopped,ori_response_single.started,res_ori,res,ori_response_single.stopped,key_resp_single.keys,key_resp_single.rt,key_resp_single.duration,disp_single.started,disp_single.stopped,key_resp.keys,key_resp.rt,key_resp.duration,single.thisRepN,single.thisTrialN,single.thisN,single.thisIndex,single.ran,ori,path,mask_path,instruction_bandit.started,instruction_bandit.stopped,key_resp_6.keys,key_resp_6.rt,key_resp_6.duration,cue_bandit.started,cue_bandit.stopped,bandit_res.keys,bandit_res.rt,bandit_res.duration,outcome_bandit.started,rew,action,outcome_bandit.stopped,bandit.thisRepN,bandit.thisTrialN,bandit.thisN,bandit.thisIndex,bandit.ran,actual_rew1,actual_rew2,rew1,rew2,instruction_task.started,instruction_task.stopped,key_resp_7.keys,key_resp_7.rt,key_resp_7.duration,wait_ready.started,wait_ready.stopped,key_resp_3.keys,key_resp_3.rt,key_resp_3.duration,cue.started,cue.stopped,ori_response.started,ori_response.stopped,key_resp_5.keys,key_resp_5.rt,key_resp_5.duration,outcome.started,diff1,diff2,outcome.stopped,disp_outcome_practice.started,disp_outcome_practice.stopped,key_resp_4.keys,key_resp_4.rt,key_resp_4.duration,trials.thisRepN,trials.thisTrialN,trials.thisN,trials.thisIndex,trials.ran,ori1,ori2,break_blk.started,break_blk.stopped,block.thisRepN,block.thisTrialN,block.thisN,block.thisIndex,block.ran,condition_file
0.0004,0.0005,60e5c4869429cc6413394d94,65af548eb1b2d753c01809fa,2024-01-23_08h01.36.655,bars,2023.2.3,Win32,59.17159763,657b66ea316d21385b68909f,,,,,,,,,,,,,,,,,,,,,,,,,,,,,,,,,,,,,,,,,,,,,,,,,,,,,,,,,,,,,,,,,,,,,,,,,,,,,,,,,,,,,,,,,,,,,,,,,,,,
,,60e5c4869429cc6413394d94,65af548eb1b2d753c01809fa,2024-01-23_08h01.36.655,bars,2023.2.3,Win32,59.17159763,657b66ea316d21385b68909f,0.0007,36.8864,y,36.8738,,,,,,,,,,,,,,,,,,,,,,,,,,,,,,,,,,,,,,,,,,,,,,,,,,,,,,,,,,,,,,,,,,,,,,,,,,,,,,,,,,,,,,,,,,,,,,,,
,,60e5c4869429cc6413394d94,65af548eb1b2d753c01809fa,2024-01-23_08h01.36.655,bars,2023.2.3,Win32,59.17159763,657b66ea316d21385b68909f,,,,,,36.8865,59.1042,space,22.2,,,,,,,,,,,,,,,,,,,,,,,,,,,,,,,,,,,,,,,,,,,,,,,,,,,,,,,,,,,,,,,,,,,,,,,,,,,,,,,,,,,,,,,,,,,
,,60e5c4869429cc6413394d94,65af548eb1b2d753c01809fa,2024-01-23_08h01.36.655,bars,2023.2.3,Win32,59.17159763,657b66ea316d21385b68909f,,,,,,,,,,,59.1098,60.099,60.0993,60.5874,60.5878,60.8371,60.8373,0,180,76.2645,space,15.3904,,76.2648,95.3647,space,19.0671,,0,0,0,9,1,20,bars/single009.png,bars/mask006.png,,,,,,,,,,,,,,,,,,,,,,,,,,,,,,,,,,,,,,,,,,,,,,,,,,,,,,,,,,,,,,,,
,,60e5c4869429cc6413394d94,65af548eb1b2d753c01809fa,2024-01-23_08h01.36.655,bars,2023.2.3,Win32,59.17159763,657b66ea316d21385b68909f,,,,,,,,,,,95.3807,96.3795,96.3799,96.8673,96.8674,97.1129,97.113,139,-41,104.5633,space,7.4262,,104.5634,112.6964,space,8.1058,,0,1,1,0,1,150,bars/single000.png,bars/mask006.png,,,,,,,,,,,,,,,,,,,,,,,,,,,,,,,,,,,,,,,,,,,,,,,,,,,,,,,,,,,,,,,,
,,60e5c4869429cc6413394d94,65af548eb1b2d753c01809fa,2024-01-23_08h01.36.655,bars,2023.2.3,Win32,59.17159763,657b66ea316d21385b68909f,,,,,,,,,,,112.7093,113.7128,113.7129,114.212,114.2121,114.4664,114.4664,39,39,122.6835,space,8.2004,,122.6836,129.9158,space,7.2117,,0,2,2,7,1,45,bars/single007.png,bars/mask009.png,,,,,,,,,,,,,,,,,,,,,,,,,,,,,,,,,,,,,,,,,,,,,,,,,,,,,,,,,,,,,,,,
,,60e5c4869429cc6413394d94,65af548eb1b2d753c01809fa,2024-01-23_08h01.36.655,bars,2023.2.3,Win32,59.17159763,657b66ea316d21385b68909f,,,,,,,,,,,129.9291,130.9278,130.928,131.4278,131.4278,131.6774,131.6776,149,-31,139.9265,space,8.2212,,139.9266,158.0143,space,18.0661,,0,3,3,8,1,160,bars/single008.png,bars/mask004.png,,,,,,,,,,,,,,,,,,,,,,,,,,,,,,,,,,,,,,,,,,,,,,,,,,,,,,,,,,,,,,,,
,,60e5c4869429cc6413394d94,65af548eb1b2d753c01809fa,2024-01-23_08h01.36.655,bars,2023.2.3,Win32,59.17159763,657b66ea316d21385b68909f,,,,,,,,,,,158.029,159.0263,159.0264,159.5263,159.5264,159.7761,159.7761,175,-5,167.6655,space,7.8683,,167.6655,169.9098,space,2.218,,0,4,4,1,1,20,bars/single001.png,bars/mask006.png,,,,,,,,,,,,,,,,,,,,,,,,,,,,,,,,,,,,,,,,,,,,,,,,,,,,,,,,,,,,,,,,
,,60e5c4869429cc6413394d94,65af548eb1b2d753c01809fa,2024-01-23_08h01.36.655,bars,2023.2.3,Win32,59.17159763,657b66ea316d21385b68909f,,,,,,,,,,,169.9106,170.9132,170.9133,171.4088,171.4089,171.6613,171.6613,100,100,178.9809,space,7.314,,178.9811,192.6084,space,13.5963,,0,5,5,4,1,95,bars/single004.png,bars/mask004.png,,,,,,,,,,,,,,,,,,,,,,,,,,,,,,,,,,,,,,,,,,,,,,,,,,,,,,,,,,,,,,,,
,,60e5c4869429cc6413394d94,65af548eb1b2d753c01809fa,2024-01-23_08h01.36.655,bars,2023.2.3,Win32,59.17159763,657b66ea316d21385b68909f,,,,,,,,,,,192.6274,193.6248,193.6249,194.1241,194.1243,194.3741,194.3742,0,0,203.1246,space,8.7219,,203.1247,205.8413,space,2.6948,,0,6,6,6,1,175,bars/single006.png,bars/mask005.png,,,,,,,,,,,,,,,,,,,,,,,,,,,,,,,,,,,,,,,,,,,,,,,,,,,,,,,,,,,,,,,,
,,60e5c4869429cc6413394d94,65af548eb1b2d753c01809fa,2024-01-23_08h01.36.655,bars,2023.2.3,Win32,59.17159763,657b66ea316d21385b68909f,,,,,,,,,,,205.8419,206.8402,206.8404,207.3403,207.3405,207.5904,207.5905,119,119,216.6072,space,8.9895,,216.6073,218.2236,space,1.5871,,0,7,7,2,1,145,bars/single002.png,bars/mask003.png,,,,,,,,,,,,,,,,,,,,,,,,,,,,,,,,,,,,,,,,,,,,,,,,,,,,,,,,,,,,,,,,
,,60e5c4869429cc6413394d94,65af548eb1b2d753c01809fa,2024-01-23_08h01.36.655,bars,2023.2.3,Win32,59.17159763,657b66ea316d21385b68909f,,,,,,,,,,,218.2244,219.2231,219.2232,219.723,219.7231,219.9731,219.9732,27,207,225.2421,space,5.2479,,225.2422,227.9564,space,2.6871,,0,8,8,3,1,20,bars/single003.png,bars/mask005.png,,,,,,,,,,,,,,,,,,,,,,,,,,,,,,,,,,,,,,,,,,,,,,,,,,,,,,,,,,,,,,,,
,,60e5c4869429cc6413394d94,65af548eb1b2d753c01809fa,2024-01-23_08h01.36.655,bars,2023.2.3,Win32,59.17159763,657b66ea316d21385b68909f,,,,,,,,,,,227.9573,228.9607,228.9607,229.4594,229.4595,229.7057,229.7058,90,90,232.9436,space,3.2163,,232.9436,234.2561,space,1.284,,0,9,9,5,1,55,bars/single005.png,bars/mask008.png,,,,,,,,,,,,,,,,,,,,,,,,,,,,,,,,,,,,,,,,,,,,,,,,,,,,,,,,,,,,,,,,
,,60e5c4869429cc6413394d94,65af548eb1b2d753c01809fa,2024-01-23_08h01.36.655,bars,2023.2.3,Win32,59.17159763,657b66ea316d21385b68909f,,,,,,,,,,,,,,,,,,,,,,,,,,,,,,,,,,,,,234.258,305.3226,space,71.0445,,,,,,,,,,,,,,,,,,,,,,,,,,,,,,,,,,,,,,,,,,,,,,,,,,,,,,,,,,,,
,,60e5c4869429cc6413394d94,65af548eb1b2d753c01809fa,2024-01-23_08h01.36.655,bars,2023.2.3,Win32,59.17159763,657b66ea316d21385b68909f,,,,,,,,,,,,,,,,,,,,,,,,,,,,,,,,,,,,,,,,,,305.3372,307.474,left,2.1283,,307.4743,9,1,308.4693,0,0,0,0,1,9,1,9,2,,,,,,,,,,,,,,,,,,,,,,,,,,,,,,,,,,,,,,,,,
,,60e5c4869429cc6413394d94,65af548eb1b2d753c01809fa,2024-01-23_08h01.36.655,bars,2023.2.3,Win32,59.17159763,657b66ea316d21385b68909f,,,,,,,,,,,,,,,,,,,,,,,,,,,,,,,,,,,,,,,,,,308.4699,310.869,left,2.3718,,310.8691,10,1,311.8724,0,1,1,1,1,10,0,10,1,,,,,,,,,,,,,,,,,,,,,,,,,,,,,,,,,,,,,,,,,
,,60e5c4869429cc6413394d94,65af548eb1b2d753c01809fa,2024-01-23_08h01.36.655,bars,2023.2.3,Win32,59.17159763,657b66ea316d21385b68909f,,,,,,,,,,,,,,,,,,,,,,,,,,,,,,,,,,,,,,,,,,311.8878,313.0224,left,1.1295,,313.0225,10,1,314.017,0,2,2,2,1,10,2,10,2,,,,,,,,,,,,,,,,,,,,,,,,,,,,,,,,,,,,,,,,,
,,60e5c4869429cc6413394d94,65af548eb1b2d753c01809fa,2024-01-23_08h01.36.655,bars,2023.2.3,Win32,59.17159763,657b66ea316d21385b68909f,,,,,,,,,,,,,,,,,,,,,,,,,,,,,,,,,,,,,,,,,,314.0179,314.9875,right,0.9487,,314.9876,3,2,315.9849,0,3,3,3,1,8,4,7,3,,,,,,,,,,,,,,,,,,,,,,,,,,,,,,,,,,,,,,,,,
,,60e5c4869429cc6413394d94,65af548eb1b2d753c01809fa,2024-01-23_08h01.36.655,bars,2023.2.3,Win32,59.17159763,657b66ea316d21385b68909f,,,,,,,,,,,,,,,,,,,,,,,,,,,,,,,,,,,,,,,,,,315.986,317.3684,right,1.3525,,317.3687,1,2,318.3675,0,4,4,4,1,6,2,5,1,,,,,,,,,,,,,,,,,,,,,,,,,,,,,,,,,,,,,,,,,
,,60e5c4869429cc6413394d94,65af548eb1b2d753c01809fa,2024-01-23_08h01.36.655,bars,2023.2.3,Win32,59.17159763,657b66ea316d21385b68909f,,,,,,,,,,,,,,,,,,,,,,,,,,,,,,,,,,,,,,,,,,318.3686,319.0683,left,0.6723,,319.0684,4,1,320.071,0,5,5,5,1,4,4,4,4,,,,,,,,,,,,,,,,,,,,,,,,,,,,,,,,,,,,,,,,,
,,60e5c4869429cc6413394d94,65af548eb1b2d753c01809fa,2024-01-23_08h01.36.655,bars,2023.2.3,Win32,59.17159763,657b66ea316d21385b68909f,,,,,,,,,,,,,,,,,,,,,,,,,,,,,,,,,,,,,,,,,,320.0715,320.6394,left,0.5508,,320.6394,1,1,321.6338,0,6,6,6,1,2,2,1,2,,,,,,,,,,,,,,,,,,,,,,,,,,,,,,,,,,,,,,,,,
,,60e5c4869429cc6413394d94,65af548eb1b2d753c01809fa,2024-01-23_08h01.36.655,bars,2023.2.3,Win32,59.17159763,657b66ea316d21385b68909f,,,,,,,,,,,,,,,,,,,,,,,,,,,,,,,,,,,,,,,,,,321.6349,322.0846,left,0.4259,,322.0847,0,1,323.0838,0,7,7,7,1,0,0,0,1,,,,,,,,,,,,,,,,,,,,,,,,,,,,,,,,,,,,,,,,,
,,60e5c4869429cc6413394d94,65af548eb1b2d753c01809fa,2024-01-23_08h01.36.655,bars,2023.2.3,Win32,59.17159763,657b66ea316d21385b68909f,,,,,,,,,,,,,,,,,,,,,,,,,,,,,,,,,,,,,,,,,,323.085,323.9514,left,0.8387,,323.9517,1,1,324.9505,0,8,8,8,1,0,2,1,0,,,,,,,,,,,,,,,,,,,,,,,,,,,,,,,,,,,,,,,,,
,,60e5c4869429cc6413394d94,65af548eb1b2d753c01809fa,2024-01-23_08h01.36.655,bars,2023.2.3,Win32,59.17159763,657b66ea316d21385b68909f,,,,,,,,,,,,,,,,,,,,,,,,,,,,,,,,,,,,,,,,,,324.9514,325.3393,right,0.3677,,325.3394,3,2,326.334,0,9,9,9,1,2,4,2,3,,,,,,,,,,,,,,,,,,,,,,,,,,,,,,,,,,,,,,,,,
,,60e5c4869429cc6413394d94,65af548eb1b2d753c01809fa,2024-01-23_08h01.36.655,bars,2023.2.3,Win32,59.17159763,657b66ea316d21385b68909f,,,,,,,,,,,,,,,,,,,,,,,,,,,,,,,,,,,,,,,,,,326.3352,326.9395,right,0.5845,,326.9396,3,2,327.9337,0,10,10,10,1,0,2,0,3,,,,,,,,,,,,,,,,,,,,,,,,,,,,,,,,,,,,,,,,,
,,60e5c4869429cc6413394d94,65af548eb1b2d753c01809fa,2024-01-23_08h01.36.655,bars,2023.2.3,Win32,59.17159763,657b66ea316d21385b68909f,,,,,,,,,,,,,,,,,,,,,,,,,,,,,,,,,,,,,,,,,,327.9348,328.4842,right,0.5187,,328.4843,3,2,329.4838,0,11,11,11,1,0,4,0,3,,,,,,,,,,,,,,,,,,,,,,,,,,,,,,,,,,,,,,,,,
,,60e5c4869429cc6413394d94,65af548eb1b2d753c01809fa,2024-01-23_08h01.36.655,bars,2023.2.3,Win32,59.17159763,657b66ea316d21385b68909f,,,,,,,,,,,,,,,,,,,,,,,,,,,,,,,,,,,,,,,,,,329.4849,330.0339,right,0.5203,,330.0342,6,2,331.0335,0,12,12,12,1,2,6,1,6,,,,,,,,,,,,,,,,,,,,,,,,,,,,,,,,,,,,,,,,,
,,60e5c4869429cc6413394d94,65af548eb1b2d753c01809fa,2024-01-23_08h01.36.655,bars,2023.2.3,Win32,59.17159763,657b66ea316d21385b68909f,,,,,,,,,,,,,,,,,,,,,,,,,,,,,,,,,,,,,,,,,,331.0346,331.5849,right,0.5298,,331.585,3,2,332.5838,0,13,13,13,1,0,4,1,3,,,,,,,,,,,,,,,,,,,,,,,,,,,,,,,,,,,,,,,,,
,,60e5c4869429cc6413394d94,65af548eb1b2d753c01809fa,2024-01-23_08h01.36.655,bars,2023.2.3,Win32,59.17159763,657b66ea316d21385b68909f,,,,,,,,,,,,,,,,,,,,,,,,,,,,,,,,,,,,,,,,,,332.5849,333.0006,left,0.385,,333.0008,2,1,333.9998,0,14,14,14,1,2,6,2,7,,,,,,,,,,,,,,,,,,,,,,,,,,,,,,,,,,,,,,,,,
,,60e5c4869429cc6413394d94,65af548eb1b2d753c01809fa,2024-01-23_08h01.36.655,bars,2023.2.3,Win32,59.17159763,657b66ea316d21385b68909f,,,,,,,,,,,,,,,,,,,,,,,,,,,,,,,,,,,,,,,,,,334.0011,334.7005,left,0.6724,,334.7008,3,1,335.6996,0,15,15,15,1,4,8,3,9,,,,,,,,,,,,,,,,,,,,,,,,,,,,,,,,,,,,,,,,,
,,60e5c4869429cc6413394d94,65af548eb1b2d753c01809fa,2024-01-23_08h01.36.655,bars,2023.2.3,Win32,59.17159763,657b66ea316d21385b68909f,,,,,,,,,,,,,,,,,,,,,,,,,,,,,,,,,,,,,,,,,,335.7006,336.2212,left,0.4997,,336.2212,7,1,337.2166,0,16,16,16,1,6,6,7,7,,,,,,,,,,,,,,,,,,,,,,,,,,,,,,,,,,,,,,,,,
,,60e5c4869429cc6413394d94,65af548eb1b2d753c01809fa,2024-01-23_08h01.36.655,bars,2023.2.3,Win32,59.17159763,657b66ea316d21385b68909f,,,,,,,,,,,,,,,,,,,,,,,,,,,,,,,,,,,,,,,,,,337.2176,337.7863,left,0.5485,,337.7864,9,1,338.7832,0,17,17,17,1,8,4,9,5,,,,,,,,,,,,,,,,,,,,,,,,,,,,,,,,,,,,,,,,,
,,60e5c4869429cc6413394d94,65af548eb1b2d753c01809fa,2024-01-23_08h01.36.655,bars,2023.2.3,Win32,59.17159763,657b66ea316d21385b68909f,,,,,,,,,,,,,,,,,,,,,,,,,,,,,,,,,,,,,,,,,,338.7843,339.2506,left,0.4435,,339.2508,5,1,340.2523,0,18,18,18,1,6,2,5,1,,,,,,,,,,,,,,,,,,,,,,,,,,,,,,,,,,,,,,,,,
,,60e5c4869429cc6413394d94,65af548eb1b2d753c01809fa,2024-01-23_08h01.36.655,bars,2023.2.3,Win32,59.17159763,657b66ea316d21385b68909f,,,,,,,,,,,,,,,,,,,,,,,,,,,,,,,,,,,,,,,,,,340.253,340.7205,left,0.4494,,340.7206,7,1,341.716,0,19,19,19,1,8,0,7,0,,,,,,,,,,,,,,,,,,,,,,,,,,,,,,,,,,,,,,,,,
,,60e5c4869429cc6413394d94,65af548eb1b2d753c01809fa,2024-01-23_08h01.36.655,bars,2023.2.3,Win32,59.17159763,657b66ea316d21385b68909f,,,,,,,,,,,,,,,,,,,,,,,,,,,,,,,,,,,,,,,,,,,,,,,,,,,,,,,,,,,,341.7177,356.8338,space,15.0844,,,,,,,,,,,,,,,,,,,,,,,,,,,,,,,,,,,,,
,,60e5c4869429cc6413394d94,65af548eb1b2d753c01809fa,2024-01-23_08h01.36.655,bars,2023.2.3,Win32,59.17159763,657b66ea316d21385b68909f,,,,,,,,,,,358.2236,359.2154,,,359.7161,359.9656,,56,56,,,,,,,,,,,,,,,,bars/002.png,bars/mask004.png,,,,,,,,,,,,0,2,,,,,,,3,2,6,4,,,,,,356.8496,358.2163,space,1.3522,,359.2161,359.716,359.9663,364.488,space,4.4997,,364.4883,74,29,365.4818,365.4822,370.5651,space,5.0667,,0,0,0,0,1,130,85,,,,,,,,
,,60e5c4869429cc6413394d94,65af548eb1b2d753c01809fa,2024-01-23_08h01.36.655,bars,2023.2.3,Win32,59.17159763,657b66ea316d21385b68909f,,,,,,,,,,,370.5786,371.5809,,,372.081,372.331,,53,53,,,,,,,,,,,,,,,,bars/042.png,bars/mask004.png,,,,,,,,,,,,1,2,,,,,,,1,4,1,4,,,,,,,,,,,371.581,372.0809,372.3311,377.2811,space,4.9339,,377.2813,88,22,378.2803,378.2805,381.8806,space,3.5782,,0,1,1,1,1,145,75,,,,,,,,
,,60e5c4869429cc6413394d94,65af548eb1b2d753c01809fa,2024-01-23_08h01.36.655,bars,2023.2.3,Win32,59.17159763,657b66ea316d21385b68909f,,,,,,,,,,,381.8943,382.8971,,,383.3975,383.647,,144,144,,,,,,,,,,,,,,,,bars/000.png,bars/mask005.png,,,,,,,,,,,,5,2,,,,,,,3,6,4,5,,,,,,,,,,,382.8971,383.3974,383.647,388.3469,space,4.6815,,388.3469,76,1,389.3464,389.3465,397.78,space,8.4009,,0,2,2,2,1,40,145,,,,,,,,
,,60e5c4869429cc6413394d94,65af548eb1b2d753c01809fa,2024-01-23_08h01.36.655,bars,2023.2.3,Win32,59.17159763,657b66ea316d21385b68909f,,,,,,,,,,,397.795,398.796,,,399.2958,399.5455,,134,134,,,,,,,,,,,,,,,,bars/041.png,bars/mask004.png,,,,,,,,,,,,0,2,,,,,,,5,4,5,4,,,,,,,,,,,398.7961,399.2957,399.5455,403.5628,space,4.0015,,403.5628,66,49,404.5624,404.5625,411.1459,space,6.5518,,0,3,3,3,1,20,85,,,,,,,,
,,60e5c4869429cc6413394d94,65af548eb1b2d753c01809fa,2024-01-23_08h01.36.655,bars,2023.2.3,Win32,59.17159763,657b66ea316d21385b68909f,,,,,,,,,,,411.1633,412.1619,,,412.6622,412.9123,,33,33,,,,,,,,,,,,,,,,bars/017.png,bars/mask000.png,,,,,,,,,,,,4,2,,,,,,,3,6,3,6,,,,,,,,,,,412.162,412.6622,412.9124,421.0785,space,8.1502,,421.0787,68,12,422.0781,422.0782,424.5619,space,2.4518,,0,4,4,4,1,145,45,,,,,,,,
,,60e5c4869429cc6413394d94,65af548eb1b2d753c01809fa,2024-01-23_08h01.36.655,bars,2023.2.3,Win32,59.17159763,657b66ea316d21385b68909f,,,,,,,,,,,424.5625,425.5616,,,426.0614,426.3112,,130,130,,,,,,,,,,,,,,,,bars/033.png,bars/mask009.png,,,,,,,,,,,,1,2,,,,,,,5,8,4,8,,,,,,,,,,,425.5617,426.0614,426.3112,429.5456,space,3.2269,,429.5458,75,25,430.5449,430.5451,431.6119,space,1.0358,,0,5,5,5,1,25,155,,,,,,,,
,,60e5c4869429cc6413394d94,65af548eb1b2d753c01809fa,2024-01-23_08h01.36.655,bars,2023.2.3,Win32,59.17159763,657b66ea316d21385b68909f,,,,,,,,,,,431.6127,432.6148,,,433.1118,433.3662,,56,56,,,,,,,,,,,,,,,,bars/031.png,bars/mask004.png,,,,,,,,,,,,2,2,,,,,,,3,6,2,6,,,,,,,,,,,432.6148,433.1117,433.3662,436.2787,space,2.8905,,436.279,64,21,437.2779,437.278,440.6782,space,3.3723,,0,6,6,6,1,120,35,,,,,,,,
,,60e5c4869429cc6413394d94,65af548eb1b2d753c01809fa,2024-01-23_08h01.36.655,bars,2023.2.3,Win32,59.17159763,657b66ea316d21385b68909f,,,,,,,,,,,440.6924,441.68,,,442.1778,442.4274,,38,38,,,,,,,,,,,,,,,,bars/026.png,bars/mask000.png,,,,,,,,,,,,2,1,,,,,,,1,4,2,4,,,,,,,,,,,441.6801,442.1777,442.4275,444.4616,space,2.0016,,444.4618,3,47,445.4611,445.4613,447.1614,space,1.6744,,0,7,7,7,1,35,85,,,,,,,,
,,60e5c4869429cc6413394d94,65af548eb1b2d753c01809fa,2024-01-23_08h01.36.655,bars,2023.2.3,Win32,59.17159763,657b66ea316d21385b68909f,,,,,,,,,,,447.1618,448.1646,,,448.6605,448.9104,,165,165,,,,,,,,,,,,,,,,bars/027.png,bars/mask005.png,,,,,,,,,,,,0,1,,,,,,,0,2,0,2,,,,,,,,,,,448.1646,448.6602,448.9105,452.1329,space,3.2011,,452.133,55,65,453.1274,453.1276,454.7104,space,1.5544,,0,8,8,8,1,110,50,,,,,,,,
,,60e5c4869429cc6413394d94,65af548eb1b2d753c01809fa,2024-01-23_08h01.36.655,bars,2023.2.3,Win32,59.17159763,657b66ea316d21385b68909f,,,,,,,,,,,454.7114,455.7138,,,456.2135,456.4602,,166,166,,,,,,,,,,,,,,,,bars/013.png,bars/mask003.png,,,,,,,,,,,,1,2,,,,,,,0,4,0,3,,,,,,,,,,,455.7139,456.2135,456.4603,461.0274,space,4.5382,,461.0275,89,24,462.0307,462.0308,462.0764,space,0.0112,,0,9,9,9,1,75,10,,,,,,,,
,,60e5c4869429cc6413394d94,65af548eb1b2d753c01809fa,2024-01-23_08h01.36.655,bars,2023.2.3,Win32,59.17159763,657b66ea316d21385b68909f,,,,,,,,,,,462.0775,463.0764,,,463.5766,463.8267,,117,117,,,,,,,,,,,,,,,,bars/039.png,bars/mask007.png,,,,,,,,,,,,3,2,,,,,,,0,6,0,5,,,,,,,,,,,463.0765,463.5764,463.8268,467.1266,space,3.2674,,467.1268,58,12,468.126,468.1263,470.311,space,2.1548,,0,10,10,10,1,175,105,,,,,,,,
,,60e5c4869429cc6413394d94,65af548eb1b2d753c01809fa,2024-01-23_08h01.36.655,bars,2023.2.3,Win32,59.17159763,657b66ea316d21385b68909f,,,,,,,,,,,470.3243,471.3264,,,471.8262,472.0761,,143,143,,,,,,,,,,,,,,,,bars/035.png,bars/mask005.png,,,,,,,,,,,,0,1,,,,,,,0,8,0,9,,,,,,,,,,,471.3267,471.8261,472.0762,475.0815,space,2.9845,,475.0816,32,83,476.0756,476.0757,476.1088,space,0.0071,,0,11,11,11,1,175,60,,,,,,,,
,,60e5c4869429cc6413394d94,65af548eb1b2d753c01809fa,2024-01-23_08h01.36.655,bars,2023.2.3,Win32,59.17159763,657b66ea316d21385b68909f,,,,,,,,,,,476.1099,477.1088,,,477.6092,477.8591,,42,42,,,,,,,,,,,,,,,,bars/010.png,bars/mask005.png,,,,,,,,,,,,5,2,,,,,,,2,10,2,9,,,,,,,,,,,477.109,477.6092,477.8591,482.8926,space,5.0083,,482.8927,57,13,483.892,483.8921,486.1762,space,2.2581,,0,12,12,12,1,165,55,,,,,,,,
,,60e5c4869429cc6413394d94,65af548eb1b2d753c01809fa,2024-01-23_08h01.36.655,bars,2023.2.3,Win32,59.17159763,657b66ea316d21385b68909f,,,,,,,,,,,486.1769,487.1752,,,487.6751,487.9254,,37,37,,,,,,,,,,,,,,,,bars/043.png,bars/mask005.png,,,,,,,,,,,,0,1,,,,,,,0,10,0,10,,,,,,,,,,,487.1754,487.675,487.9256,493.545,space,5.5987,,493.5451,7,87,494.5418,494.542,497.5588,space,2.9909,,0,13,13,13,1,30,130,,,,,,,,
,,60e5c4869429cc6413394d94,65af548eb1b2d753c01809fa,2024-01-23_08h01.36.655,bars,2023.2.3,Win32,59.17159763,657b66ea316d21385b68909f,,,,,,,,,,,497.5595,498.5622,,,499.0589,499.3084,,29,29,,,,,,,,,,,,,,,,bars/010.png,bars/mask002.png,,,,,,,,,,,,1,2,,,,,,,0,10,0,10,,,,,,,,,,,498.5623,499.0589,499.3086,503.8134,space,4.4841,,503.8134,44,26,504.8111,504.8111,506.1963,space,1.3618,,0,14,14,14,1,165,55,,,,,,,,
,,60e5c4869429cc6413394d94,65af548eb1b2d753c01809fa,2024-01-23_08h01.36.655,bars,2023.2.3,Win32,59.17159763,657b66ea316d21385b68909f,,,,,,,,,,,506.1969,507.1905,,,507.6909,507.9453,,30,30,,,,,,,,,,,,,,,,bars/044.png,bars/mask007.png,,,,,,,,,,,,0,1,,,,,,,2,8,3,8,,,,,,,,,,,507.1908,507.6908,507.9454,511.3627,space,3.4009,,511.3627,45,55,512.3572,512.3576,514.6235,space,2.2427,,0,15,15,15,1,75,155,,,,,,,,
,,60e5c4869429cc6413394d94,65af548eb1b2d753c01809fa,2024-01-23_08h01.36.655,bars,2023.2.3,Win32,59.17159763,657b66ea316d21385b68909f,,,,,,,,,,,514.6247,515.6233,,,516.1237,516.3737,,144,144,,,,,,,,,,,,,,,,bars/025.png,bars/mask000.png,,,,,,,,,,,,0,1,,,,,,,0,6,0,5,,,,,,,,,,,515.6234,516.1237,516.3738,519.178,space,2.7831,,519.1781,39,76,520.1732,520.1733,520.3238,space,0.1182,,0,16,16,16,1,105,40,,,,,,,,
,,60e5c4869429cc6413394d94,65af548eb1b2d753c01809fa,2024-01-23_08h01.36.655,bars,2023.2.3,Win32,59.17159763,657b66ea316d21385b68909f,,,,,,,,,,,520.3248,521.3228,,,521.8225,522.0724,,137,137,,,,,,,,,,,,,,,,bars/027.png,bars/mask004.png,,,,,,,,,,,,0,1,,,,,,,2,4,2,3,,,,,,,,,,,521.323,521.8225,522.0724,529.3567,space,7.2608,,529.3568,27,87,530.356,530.3561,534.0897,space,3.701,,0,17,17,17,1,110,50,,,,,,,,
,,60e5c4869429cc6413394d94,65af548eb1b2d753c01809fa,2024-01-23_08h01.36.655,bars,2023.2.3,Win32,59.17159763,657b66ea316d21385b68909f,,,,,,,,,,,534.0904,535.0895,,,535.5902,535.8417,,33,33,,,,,,,,,,,,,,,,bars/018.png,bars/mask009.png,,,,,,,,,,,,0,2,,,,,,,0,6,1,7,,,,,,,,,,,535.0896,535.5901,535.8417,540.6231,space,4.7696,,540.6232,63,57,541.6225,541.6227,545.1948,space,3.5416,,0,18,18,18,1,150,90,,,,,,,,
,,60e5c4869429cc6413394d94,65af548eb1b2d753c01809fa,2024-01-23_08h01.36.655,bars,2023.2.3,Win32,59.17159763,657b66ea316d21385b68909f,,,,,,,,,,,545.2081,546.2054,,,546.7055,546.9552,,146,146,,,,,,,,,,,,,,,,bars/011.png,bars/mask000.png,,,,,,,,,,,,1,1,,,,,,,2,8,2,8,,,,,,,,,,,546.2056,546.7054,546.9554,551.1888,space,4.2077,,551.189,14,61,552.1882,552.1884,579.0259,space,26.8138,,0,19,19,19,1,160,85,,,,,,,,
,,60e5c4869429cc6413394d94,65af548eb1b2d753c01809fa,2024-01-23_08h01.36.655,bars,2023.2.3,Win32,59.17159763,657b66ea316d21385b68909f,,,,,,,,,,,579.0425,580.0359,,,580.5363,580.789,,122,122,,,,,,,,,,,,,,,,bars/023.png,bars/mask003.png,,,,,,,,,,,,6,2,,,,,,,4,6,4,8,,,,,,,,,,,580.0359,580.5362,580.789,586.9086,space,6.1006,,586.9087,78,7,587.9024,587.9024,589.9728,space,2.0484,,0,20,20,20,1,20,115,,,,,,,,
,,60e5c4869429cc6413394d94,65af548eb1b2d753c01809fa,2024-01-23_08h01.36.655,bars,2023.2.3,Win32,59.17159763,657b66ea316d21385b68909f,,,,,,,,,,,589.9734,590.9695,,,591.4698,591.7205,,137,137,,,,,,,,,,,,,,,,bars/045.png,bars/mask007.png,,,,,,,,,,,,0,1,,,,,,,6,4,6,4,,,,,,,,,,,590.9697,591.4696,591.7205,617.5357,space,25.7925,,617.5358,37,53,618.5347,618.5349,620.2521,space,1.6829,,0,21,21,21,1,100,10,,,,,,,,
,,60e5c4869429cc6413394d94,65af548eb1b2d753c01809fa,2024-01-23_08h01.36.655,bars,2023.2.3,Win32,59.17159763,657b66ea316d21385b68909f,,,,,,,,,,,620.253,621.2512,,,621.7519,622.0019,,126,126,,,,,,,,,,,,,,,,bars/027.png,bars/mask003.png,,,,,,,,,,,,4,1,,,,,,,8,2,8,2,,,,,,,,,,,621.2514,621.7517,622.002,631.537,space,9.5147,,631.5371,16,76,632.5389,632.5389,633.5181,space,0.9506,,0,22,22,22,1,110,50,,,,,,,,
,,60e5c4869429cc6413394d94,65af548eb1b2d753c01809fa,2024-01-23_08h01.36.655,bars,2023.2.3,Win32,59.17159763,657b66ea316d21385b68909f,,,,,,,,,,,633.5189,634.5169,,,635.0175,635.2673,,14,14,,,,,,,,,,,,,,,,bars/044.png,bars/mask004.png,,,,,,,,,,,,0,2,,,,,,,6,4,6,6,,,,,,,,,,,634.5171,635.0174,635.2674,639.5051,space,4.2162,,639.5051,61,39,640.5004,640.5006,641.5674,space,1.0346,,0,23,23,23,1,75,155,,,,,,,,
,,60e5c4869429cc6413394d94,65af548eb1b2d753c01809fa,2024-01-23_08h01.36.655,bars,2023.2.3,Win32,59.17159763,657b66ea316d21385b68909f,,,,,,,,,,,641.5682,642.5668,,,643.0669,643.3174,,22,22,,,,,,,,,,,,,,,,bars/009.png,bars/mask006.png,,,,,,,,,,,,2,1,,,,,,,4,2,3,1,,,,,,,,,,,642.5668,643.0668,643.3176,649.5506,space,6.2087,,649.5507,7,83,650.55,650.5501,653.1172,space,2.5334,,0,24,24,24,1,15,105,,,,,,,,
,,60e5c4869429cc6413394d94,65af548eb1b2d753c01809fa,2024-01-23_08h01.36.655,bars,2023.2.3,Win32,59.17159763,657b66ea316d21385b68909f,,,,,,,,,,,653.1342,654.1328,,,654.6332,654.871,,21,21,,,,,,,,,,,,,,,,bars/033.png,bars/mask004.png,,,,,,,,,,,,2,1,,,,,,,2,4,2,2,,,,,,,,,,,654.133,654.633,654.8711,659.1331,space,4.2347,,659.1333,4,46,660.1371,660.1371,661.7545,space,1.5942,,0,25,25,25,1,25,155,,,,,,,,
,,60e5c4869429cc6413394d94,65af548eb1b2d753c01809fa,2024-01-23_08h01.36.655,bars,2023.2.3,Win32,59.17159763,657b66ea316d21385b68909f,,,,,,,,,,,661.7551,662.749,,,663.2494,663.4991,,35,35,,,,,,,,,,,,,,,,bars/046.png,bars/mask009.png,,,,,,,,,,,,0,2,,,,,,,4,6,4,6,,,,,,,,,,,662.7491,663.2492,663.4992,671.7494,space,8.2248,,671.7495,60,50,672.748,672.7481,673.8496,space,1.0678,,0,26,26,26,1,155,85,,,,,,,,
,,60e5c4869429cc6413394d94,65af548eb1b2d753c01809fa,2024-01-23_08h01.36.655,bars,2023.2.3,Win32,59.17159763,657b66ea316d21385b68909f,,,,,,,,,,,673.8501,674.8484,,,675.3486,675.5983,,1,1,,,,,,,,,,,,,,,,bars/007.png,bars/mask006.png,,,,,,,,,,,,1,1,,,,,,,2,4,1,1,,,,,,,,,,,674.8486,675.3485,675.5985,679.3038,space,3.684,,679.3038,6,54,680.298,680.2982,682.3652,space,2.0334,,0,27,27,27,1,175,55,,,,,,,,
,,60e5c4869429cc6413394d94,65af548eb1b2d753c01809fa,2024-01-23_08h01.36.655,bars,2023.2.3,Win32,59.17159763,657b66ea316d21385b68909f,,,,,,,,,,,682.3662,683.3652,,,683.867,684.1151,,25,25,,,,,,,,,,,,,,,,bars/026.png,bars/mask002.png,,,,,,,,,,,,3,1,,,,,,,4,2,5,3,,,,,,,,,,,683.3654,683.867,684.1154,689.8865,space,5.75,,689.8865,10,60,690.8809,690.8811,692.2364,space,1.3342,,0,28,28,28,1,35,85,,,,,,,,
,,60e5c4869429cc6413394d94,65af548eb1b2d753c01809fa,2024-01-23_08h01.36.655,bars,2023.2.3,Win32,59.17159763,657b66ea316d21385b68909f,,,,,,,,,,,692.237,693.2354,,,693.7334,693.9809,,5,185,,,,,,,,,,,,,,,,bars/035.png,bars/mask008.png,,,,,,,,,,,,2,1,,,,,,,2,0,3,0,,,,,,,,,,,693.2354,693.7334,693.9811,698.8525,space,4.8505,,698.8526,10,55,699.8471,699.8473,700.7335,space,0.8642,,0,29,29,29,1,175,60,,,,,,,,
,,60e5c4869429cc6413394d94,65af548eb1b2d753c01809fa,2024-01-23_08h01.36.655,bars,2023.2.3,Win32,59.17159763,657b66ea316d21385b68909f,,,,,,,,,,,700.7339,701.7302,,,702.2304,702.4849,,150,150,,,,,,,,,,,,,,,,bars/001.png,bars/mask002.png,,,,,,,,,,,,1,1,,,,,,,0,0,2,0,,,,,,,,,,,701.7304,702.2303,702.485,706.5664,space,4.0651,,706.5664,20,65,707.5632,707.5634,708.7973,space,1.1973,,0,30,30,30,1,130,85,,,,,,,,
,,60e5c4869429cc6413394d94,65af548eb1b2d753c01809fa,2024-01-23_08h01.36.655,bars,2023.2.3,Win32,59.17159763,657b66ea316d21385b68909f,,,,,,,,,,,708.7982,709.7966,,,710.2965,710.5462,,136,-44,,,,,,,,,,,,,,,,bars/023.png,bars/mask007.png,,,,,,,,,,,,0,2,,,,,,,2,0,1,0,,,,,,,,,,,709.7967,710.2965,710.5463,717.0134,space,6.4398,,717.0137,64,21,718.0131,718.0134,719.7492,space,1.7103,,0,31,31,31,1,20,115,,,,,,,,
,,60e5c4869429cc6413394d94,65af548eb1b2d753c01809fa,2024-01-23_08h01.36.655,bars,2023.2.3,Win32,59.17159763,657b66ea316d21385b68909f,,,,,,,,,,,719.7497,720.7459,,,721.2502,721.5009,,124,124,,,,,,,,,,,,,,,,bars/033.png,bars/mask005.png,,,,,,,,,,,,0,2,,,,,,,0,0,0,0,,,,,,,,,,,720.7462,721.2501,721.5009,727.0342,space,5.5168,,727.0343,81,31,728.0293,728.0294,728.1507,space,0.0997,,0,32,32,32,1,25,155,,,,,,,,
,,60e5c4869429cc6413394d94,65af548eb1b2d753c01809fa,2024-01-23_08h01.36.655,bars,2023.2.3,Win32,59.17159763,657b66ea316d21385b68909f,,,,,,,,,,,728.1512,729.1454,,,729.6505,729.8956,,14,14,,,,,,,,,,,,,,,,bars/009.png,bars/mask001.png,,,,,,,,,,,,0,1,,,,,,,0,2,0,2,,,,,,,,,,,729.1456,729.6505,729.8957,734.6485,space,4.7314,,734.6486,1,89,735.6451,735.6452,755.4156,space,19.7489,,0,33,33,33,1,15,105,,,,,,,,
,,60e5c4869429cc6413394d94,65af548eb1b2d753c01809fa,2024-01-23_08h01.36.655,bars,2023.2.3,Win32,59.17159763,657b66ea316d21385b68909f,,,,,,,,,,,755.4303,756.4273,,,756.9276,757.1775,,127,127,,,,,,,,,,,,,,,,bars/006.png,bars/mask002.png,,,,,,,,,,,,0,2,,,,,,,2,0,2,1,,,,,,,,,,,756.4275,756.9274,757.1777,761.8825,space,4.684,,761.8825,88,27,762.8769,762.8772,766.0613,space,3.1495,,0,34,34,34,1,35,100,,,,,,,,
,,60e5c4869429cc6413394d94,65af548eb1b2d753c01809fa,2024-01-23_08h01.36.655,bars,2023.2.3,Win32,59.17159763,657b66ea316d21385b68909f,,,,,,,,,,,766.0784,767.0767,,,767.5637,767.8107,,144,144,,,,,,,,,,,,,,,,bars/049.png,bars/mask004.png,,,,,,,,,,,,0,1,,,,,,,0,2,0,1,,,,,,,,,,,767.0772,767.5636,767.811,770.2486,space,2.4173,,770.2487,16,29,771.2458,771.2459,772.4937,space,1.2229,,0,35,35,35,1,160,115,,,,,,,,
,,60e5c4869429cc6413394d94,65af548eb1b2d753c01809fa,2024-01-23_08h01.36.655,bars,2023.2.3,Win32,59.17159763,657b66ea316d21385b68909f,,,,,,,,,,,772.4947,773.4931,,,773.9955,774.2426,,150,150,,,,,,,,,,,,,,,,bars/049.png,bars/mask001.png,,,,,,,,,,,,2,1,,,,,,,2,0,3,0,,,,,,,,,,,773.4934,773.9955,774.2428,779.9098,space,5.6347,,779.9101,10,35,780.9091,780.9092,786.0315,space,5.0994,,0,36,36,36,1,160,115,,,,,,,,
,,60e5c4869429cc6413394d94,65af548eb1b2d753c01809fa,2024-01-23_08h01.36.655,bars,2023.2.3,Win32,59.17159763,657b66ea316d21385b68909f,,,,,,,,,,,786.0476,787.0423,,,787.5427,787.7926,,147,147,,,,,,,,,,,,,,,,bars/030.png,bars/mask006.png,,,,,,,,,,,,4,1,,,,,,,4,2,5,1,,,,,,,,,,,787.0424,787.5424,787.7927,791.5645,space,3.751,,791.5646,7,82,792.5587,792.5589,795.3421,space,2.7552,,0,37,37,37,1,140,65,,,,,,,,
,,60e5c4869429cc6413394d94,65af548eb1b2d753c01809fa,2024-01-23_08h01.36.655,bars,2023.2.3,Win32,59.17159763,657b66ea316d21385b68909f,,,,,,,,,,,795.343,796.3465,,,796.8419,797.0919,,38,38,,,,,,,,,,,,,,,,bars/022.png,bars/mask000.png,,,,,,,,,,,,2,2,,,,,,,2,4,2,5,,,,,,,,,,,796.3466,796.8417,797.092,803.5281,space,6.4146,,803.5282,57,18,804.525,804.5252,805.5804,space,1.0305,,0,38,38,38,1,95,20,,,,,,,,
,,60e5c4869429cc6413394d94,65af548eb1b2d753c01809fa,2024-01-23_08h01.36.655,bars,2023.2.3,Win32,59.17159763,657b66ea316d21385b68909f,,,,,,,,,,,805.5809,806.5796,,,807.0754,807.3244,,29,209,,,,,,,,,,,,,,,,bars/023.png,bars/mask006.png,,,,,,,,,,,,2,1,,,,,,,4,6,3,6,,,,,,,,,,,806.5797,807.0752,807.3246,810.7965,space,3.451,,810.7966,9,86,811.7937,811.7937,814.2133,space,2.3952,,0,39,39,39,1,20,115,,,,,,,,
,,60e5c4869429cc6413394d94,65af548eb1b2d753c01809fa,2024-01-23_08h01.36.655,bars,2023.2.3,Win32,59.17159763,657b66ea316d21385b68909f,,,,,,,,,,,814.2138,815.2078,,,815.7075,815.9575,,14,14,,,,,,,,,,,,,,,,bars/047.png,bars/mask002.png,,,,,,,,,,,,1,1,,,,,,,2,4,1,3,,,,,,,,,,,815.208,815.7073,815.9577,823.5963,space,7.6174,,823.5964,1,56,824.5906,824.5907,828.9949,space,4.3805,,0,40,40,40,1,15,70,,,,,,,,
,,60e5c4869429cc6413394d94,65af548eb1b2d753c01809fa,2024-01-23_08h01.36.655,bars,2023.2.3,Win32,59.17159763,657b66ea316d21385b68909f,,,,,,,,,,,829.0096,830.0066,,,830.509,830.7564,,15,195,,,,,,,,,,,,,,,,bars/007.png,bars/mask008.png,,,,,,,,,,,,1,1,,,,,,,4,2,3,2,,,,,,,,,,,830.0068,830.509,830.7566,835.1777,space,4.4002,,835.1778,20,40,836.1731,836.1733,836.9612,space,0.7621,,0,41,41,41,1,175,55,,,,,,,,
,,60e5c4869429cc6413394d94,65af548eb1b2d753c01809fa,2024-01-23_08h01.36.655,bars,2023.2.3,Win32,59.17159763,657b66ea316d21385b68909f,,,,,,,,,,,836.9618,837.9566,,,838.4563,838.7086,,55,235,,,,,,,,,,,,,,,,bars/029.png,bars/mask009.png,,,,,,,,,,,,1,2,,,,,,,6,0,7,1,,,,,,,,,,,837.9568,838.4561,838.7086,846.0616,space,7.3337,,846.0617,35,10,847.0559,847.056,849.4566,space,2.3696,,0,42,42,42,1,90,45,,,,,,,,
,,60e5c4869429cc6413394d94,65af548eb1b2d753c01809fa,2024-01-23_08h01.36.655,bars,2023.2.3,Win32,59.17159763,657b66ea316d21385b68909f,,,,,,,,,,,849.4573,850.455,,,850.9559,851.2054,,129,309,,,,,,,,,,,,,,,,bars/012.png,bars/mask003.png,,,,,,,,,,,,0,1,,,,,,,4,0,6,0,,,,,,,,,,,850.455,850.9558,851.2055,857.7587,space,6.5318,,857.7587,39,66,858.7549,858.755,858.889,space,0.0982,,0,43,43,43,1,90,15,,,,,,,,
,,60e5c4869429cc6413394d94,65af548eb1b2d753c01809fa,2024-01-23_08h01.36.655,bars,2023.2.3,Win32,59.17159763,657b66ea316d21385b68909f,,,,,,,,,,,858.8897,859.8883,,,860.3923,860.6386,,7,7,,,,,,,,,,,,,,,,bars/018.png,bars/mask003.png,,,,,,,,,,,,0,1,,,,,,,2,0,2,0,,,,,,,,,,,859.8886,860.3923,860.6388,863.4415,space,2.782,,863.4415,37,83,864.4379,864.438,865.1413,space,0.6813,,0,44,44,44,1,150,90,,,,,,,,
,,60e5c4869429cc6413394d94,65af548eb1b2d753c01809fa,2024-01-23_08h01.36.655,bars,2023.2.3,Win32,59.17159763,657b66ea316d21385b68909f,,,,,,,,,,,865.1417,866.1379,,,866.6382,866.8912,,52,232,,,,,,,,,,,,,,,,bars/013.png,bars/mask001.png,,,,,,,,,,,,0,1,,,,,,,0,0,0,2,,,,,,,,,,,866.1381,866.638,866.8912,871.7056,space,4.7861,,871.7057,23,42,872.7044,872.7044,873.9886,space,1.2588,,0,45,45,45,1,75,10,,,,,,,,
,,60e5c4869429cc6413394d94,65af548eb1b2d753c01809fa,2024-01-23_08h01.36.655,bars,2023.2.3,Win32,59.17159763,657b66ea316d21385b68909f,,,,,,,,,,,873.9893,874.9877,,,875.4874,875.7259,,73,73,,,,,,,,,,,,,,,,bars/047.png,bars/mask008.png,,,,,,,,,,,,1,2,,,,,,,2,2,2,1,,,,,,,,,,,874.9879,875.4872,875.726,884.3259,space,8.5836,,884.3259,58,3,885.3203,885.3205,889.2262,space,3.8814,,0,46,46,46,1,15,70,,,,,,,,
,,60e5c4869429cc6413394d94,65af548eb1b2d753c01809fa,2024-01-23_08h01.36.655,bars,2023.2.3,Win32,59.17159763,657b66ea316d21385b68909f,,,,,,,,,,,889.2268,890.2202,,,890.7204,890.9703,,34,214,,,,,,,,,,,,,,,,bars/031.png,bars/mask005.png,,,,,,,,,,,,1,2,,,,,,,4,0,5,1,,,,,,,,,,,890.2204,890.7203,890.9704,898.7576,space,7.7663,,898.7577,86,1,899.7577,899.7577,903.2037,space,3.4177,,0,47,47,47,1,120,35,,,,,,,,
,,60e5c4869429cc6413394d94,65af548eb1b2d753c01809fa,2024-01-23_08h01.36.655,bars,2023.2.3,Win32,59.17159763,657b66ea316d21385b68909f,,,,,,,,,,,903.2044,904.203,,,904.703,904.9525,,59,239,,,,,,,,,,,,,,,,bars/022.png,bars/mask006.png,,,,,,,,,,,,0,1,,,,,,,6,2,7,3,,,,,,,,,,,904.2032,904.7029,904.9527,914.9199,space,9.9357,,914.92,36,39,915.9195,915.9196,919.6528,space,3.6977,,0,48,48,48,1,95,20,,,,,,,,
,,60e5c4869429cc6413394d94,65af548eb1b2d753c01809fa,2024-01-23_08h01.36.655,bars,2023.2.3,Win32,59.17159763,657b66ea316d21385b68909f,,,,,,,,,,,919.6535,920.6519,,,921.1401,921.3879,,124,304,,,,,,,,,,,,,,,,bars/025.png,bars/mask003.png,,,,,,,,,,,,1,1,,,,,,,4,4,3,4,,,,,,,,,,,920.6521,921.1399,921.3879,928.123,space,6.7162,,928.1231,19,84,929.1181,929.1183,931.1548,space,2.0112,,0,49,49,49,1,105,40,,,,,,,,
,,60e5c4869429cc6413394d94,65af548eb1b2d753c01809fa,2024-01-23_08h01.36.655,bars,2023.2.3,Win32,59.17159763,657b66ea316d21385b68909f,,,,,,,,,,,,,,,,,,,,,,,,,,,,,,,,,,,,,,,,,,,,,,,,,,,,,,,,,,,,,,,,,,,,,,,,,,,,,,,,,,,,,,,,,,,,,931.1561,991.1499,0,0,0,2,1,sequence_tables/blk023.csv
,,60e5c4869429cc6413394d94,65af548eb1b2d753c01809fa,2024-01-23_08h01.36.655,bars,2023.2.3,Win32,59.17159763,657b66ea316d21385b68909f,,,,,,,,,,,1079.0608,1080.06,,,1080.5602,1080.81,,26,26,,,,,,,,,,,,,,,,bars/047.png,bars/mask000.png,,,,,,,,,,,,3,1,,,,,,,5,5,5,6,,,,,,991.1665,1079.044,space,87.8643,,1080.0602,1080.56,1080.8103,1086.4438,space,5.6068,,1086.4441,11,44,1087.4432,1087.4434,1087.4597,,,,0,0,0,0,1,15,70,,,,,,,,
,,60e5c4869429cc6413394d94,65af548eb1b2d753c01809fa,2024-01-23_08h01.36.655,bars,2023.2.3,Win32,59.17159763,657b66ea316d21385b68909f,,,,,,,,,,,1087.4601,1088.4597,,,1088.9604,1089.2097,,144,324,,,,,,,,,,,,,,,,bars/008.png,bars/mask006.png,,,,,,,,,,,,0,1,,,,,,,3,3,1,3,,,,,,,,,,,1088.4598,1088.9601,1089.2098,1096.7977,space,7.5673,,1096.7978,34,36,1097.7927,1097.7928,1097.8012,,,,0,1,1,1,1,110,0,,,,,,,,
,,60e5c4869429cc6413394d94,65af548eb1b2d753c01809fa,2024-01-23_08h01.36.655,bars,2023.2.3,Win32,59.17159763,657b66ea316d21385b68909f,,,,,,,,,,,1097.8013,1098.7924,,,1099.2927,1099.542,,148,148,,,,,,,,,,,,,,,,bars/034.png,bars/mask007.png,,,,,,,,,,,,0,1,,,,,,,1,5,2,7,,,,,,,,,,,1098.7925,1099.2925,1099.5421,1103.0093,space,3.4386,,1103.0094,23,83,1104.009,1104.0093,1104.026,,,,0,2,2,2,1,125,65,,,,,,,,
,,60e5c4869429cc6413394d94,65af548eb1b2d753c01809fa,2024-01-23_08h01.36.655,bars,2023.2.3,Win32,59.17159763,657b66ea316d21385b68909f,,,,,,,,,,,1104.0262,1105.0255,,,1105.5261,1105.7778,,157,157,,,,,,,,,,,,,,,,bars/000.png,bars/mask008.png,,,,,,,,,,,,5,2,,,,,,,0,7,0,9,,,,,,,,,,,1105.0256,1105.5259,1105.7779,1108.5796,space,2.783,,1108.5796,63,12,1109.5748,1109.575,1109.5922,,,,0,3,3,3,1,40,145,,,,,,,,
,,60e5c4869429cc6413394d94,65af548eb1b2d753c01809fa,2024-01-23_08h01.36.655,bars,2023.2.3,Win32,59.17159763,657b66ea316d21385b68909f,,,,,,,,,,,1109.5925,1110.5918,,,1111.0918,1111.3422,,147,-33,,,,,,,,,,,,,,,,bars/041.png,bars/mask005.png,,,,,,,,,,,,0,1,,,,,,,0,5,2,4,,,,,,,,,,,1110.5918,1111.0916,1111.3424,1115.7241,space,4.3555,,1115.7243,53,62,1116.7249,1116.725,1116.7424,,,,0,4,4,4,1,20,85,,,,,,,,
,,60e5c4869429cc6413394d94,65af548eb1b2d753c01809fa,2024-01-23_08h01.36.655,bars,2023.2.3,Win32,59.17159763,657b66ea316d21385b68909f,,,,,,,,,,,1116.7426,1117.7413,,,1118.244,1118.4909,,159,159,,,,,,,,,,,,,,,,bars/022.png,bars/mask006.png,,,,,,,,,,,,0,2,,,,,,,2,7,3,8,,,,,,,,,,,1117.7415,1118.244,1118.491,1120.8083,space,2.2924,,1120.8084,64,41,1121.808,1121.808,1121.8111,,,,0,5,5,5,1,95,20,,,,,,,,
,,60e5c4869429cc6413394d94,65af548eb1b2d753c01809fa,2024-01-23_08h01.36.655,bars,2023.2.3,Win32,59.17159763,657b66ea316d21385b68909f,,,,,,,,,,,1121.8114,1122.8076,,,1123.3081,1123.5579,,45,45,,,,,,,,,,,,,,,,bars/041.png,bars/mask005.png,,,,,,,,,,,,1,1,,,,,,,4,9,4,10,,,,,,,,,,,1122.8077,1123.308,1123.5579,1125.9286,space,2.3492,,1125.9287,25,40,1126.9241,1126.9243,1126.9403,,,,0,6,6,6,1,20,85,,,,,,,,
,,60e5c4869429cc6413394d94,65af548eb1b2d753c01809fa,2024-01-23_08h01.36.655,bars,2023.2.3,Win32,59.17159763,657b66ea316d21385b68909f,,,,,,,,,,,1126.9408,1127.9411,,,1128.4411,1128.6932,,40,40,,,,,,,,,,,,,,,,bars/043.png,bars/mask003.png,,,,,,,,,,,,1,1,,,,,,,2,10,1,9,,,,,,,,,,,1127.9412,1128.4409,1128.6933,1132.0119,space,3.2996,,1132.012,10,90,1133.0072,1133.0074,1133.0245,,,,0,7,7,7,1,30,130,,,,,,,,
,,60e5c4869429cc6413394d94,65af548eb1b2d753c01809fa,2024-01-23_08h01.36.655,bars,2023.2.3,Win32,59.17159763,657b66ea316d21385b68909f,,,,,,,,,,,1133.0247,1134.0242,,,1134.5239,1134.7739,,159,159,,,,,,,,,,,,,,,,bars/013.png,bars/mask002.png,,,,,,,,,,,,0,2,,,,,,,4,8,2,8,,,,,,,,,,,1134.0243,1134.5238,1134.7739,1137.2409,space,2.4393,,1137.2411,84,31,1138.2404,1138.2405,1138.2569,,,,0,8,8,8,1,75,10,,,,,,,,
,,60e5c4869429cc6413394d94,65af548eb1b2d753c01809fa,2024-01-23_08h01.36.655,bars,2023.2.3,Win32,59.17159763,657b66ea316d21385b68909f,,,,,,,,,,,1138.2576,1139.2601,,,1139.7565,1140.0068,,159,159,,,,,,,,,,,,,,,,bars/045.png,bars/mask005.png,,,,,,,,,,,,0,2,,,,,,,6,6,7,7,,,,,,,,,,,1139.2602,1139.7565,1140.0069,1144.9428,space,4.9143,,1144.9429,59,31,1145.9401,1145.9402,1145.9559,,,,0,9,9,9,1,100,10,,,,,,,,
,,60e5c4869429cc6413394d94,65af548eb1b2d753c01809fa,2024-01-23_08h01.36.655,bars,2023.2.3,Win32,59.17159763,657b66ea316d21385b68909f,,,,,,,,,,,1145.9564,1146.957,,,1147.4565,1147.7064,,31,31,,,,,,,,,,,,,,,,bars/005.png,bars/mask000.png,,,,,,,,,,,,1,1,,,,,,,4,4,3,6,,,,,,,,,,,1146.9571,1147.4563,1147.7065,1152.4775,space,4.7497,,1152.4776,21,71,1153.4728,1153.473,1153.4923,,,,0,10,10,10,1,10,140,,,,,,,,
,,60e5c4869429cc6413394d94,65af548eb1b2d753c01809fa,2024-01-23_08h01.36.655,bars,2023.2.3,Win32,59.17159763,657b66ea316d21385b68909f,,,,,,,,,,,1153.4925,1154.4896,,,1154.9896,1155.2418,,24,24,,,,,,,,,,,,,,,,bars/019.png,bars/mask004.png,,,,,,,,,,,,2,1,,,,,,,6,6,6,8,,,,,,,,,,,1154.4898,1154.9894,1155.2418,1159.7254,space,4.4649,,1159.7255,21,81,1160.7224,1160.7225,1160.7377,,,,0,11,11,11,1,45,105,,,,,,,,
,,60e5c4869429cc6413394d94,65af548eb1b2d753c01809fa,2024-01-23_08h01.36.655,bars,2023.2.3,Win32,59.17159763,657b66ea316d21385b68909f,,,,,,,,,,,1160.7378,1161.7394,,,1162.2391,1162.4887,,31,31,,,,,,,,,,,,,,,,bars/022.png,bars/mask006.png,,,,,,,,,,,,4,2,,,,,,,8,8,8,7,,,,,,,,,,,1161.7395,1162.239,1162.4889,1167.6093,space,5.099,,1167.6095,64,11,1168.605,1168.6051,1168.6203,,,,0,12,12,12,1,95,20,,,,,,,,
,,60e5c4869429cc6413394d94,65af548eb1b2d753c01809fa,2024-01-23_08h01.36.655,bars,2023.2.3,Win32,59.17159763,657b66ea316d21385b68909f,,,,,,,,,,,1168.6204,1169.622,,,1170.122,1170.3717,,25,25,,,,,,,,,,,,,,,,bars/020.png,bars/mask000.png,,,,,,,,,,,,0,2,,,,,,,10,6,10,3,,,,,,,,,,,1169.6221,1170.1219,1170.3719,1174.6942,space,4.3009,,1174.6942,90,35,1175.6883,1175.6883,1175.7061,,,,0,13,13,13,1,115,170,,,,,,,,
,,60e5c4869429cc6413394d94,65af548eb1b2d753c01809fa,2024-01-23_08h01.36.655,bars,2023.2.3,Win32,59.17159763,657b66ea316d21385b68909f,,,,,,,,,,,1175.7062,1176.7051,,,1177.2088,1177.4548,,133,133,,,,,,,,,,,,,,,,bars/045.png,bars/mask003.png,,,,,,,,,,,,0,1,,,,,,,10,4,8,5,,,,,,,,,,,1176.7053,1177.2088,1177.455,1181.8766,space,4.4009,,1181.8766,33,57,1182.8711,1182.8713,1182.8899,,,,0,14,14,14,1,100,10,,,,,,,,
,,60e5c4869429cc6413394d94,65af548eb1b2d753c01809fa,2024-01-23_08h01.36.655,bars,2023.2.3,Win32,59.17159763,657b66ea316d21385b68909f,,,,,,,,,,,1182.8901,1183.8878,,,1184.3883,1184.6379,,27,27,,,,,,,,,,,,,,,,bars/048.png,bars/mask002.png,,,,,,,,,,,,2,1,,,,,,,10,6,10,5,,,,,,,,,,,1183.888,1184.3882,1184.6379,1189.9752,space,5.3174,,1189.9752,23,32,1190.9707,1190.9708,1190.9895,,,,0,15,15,15,1,50,175,,,,,,,,
,,60e5c4869429cc6413394d94,65af548eb1b2d753c01809fa,2024-01-23_08h01.36.655,bars,2023.2.3,Win32,59.17159763,657b66ea316d21385b68909f,,,,,,,,,,,1190.9897,1191.9871,,,1192.4874,1192.7374,,45,45,,,,,,,,,,,,,,,,bars/025.png,bars/mask005.png,,,,,,,,,,,,8,2,,,,,,,10,8,10,9,,,,,,,,,,,1191.9872,1192.4873,1192.7376,1195.976,space,3.2176,,1195.9761,60,5,1196.9703,1196.9704,1196.9876,,,,0,16,16,16,1,105,40,,,,,,,,
,,60e5c4869429cc6413394d94,65af548eb1b2d753c01809fa,2024-01-23_08h01.36.655,bars,2023.2.3,Win32,59.17159763,657b66ea316d21385b68909f,,,,,,,,,,,1196.9879,1197.9866,,,1198.4875,1198.74,,39,39,,,,,,,,,,,,,,,,bars/020.png,bars/mask000.png,,,,,,,,,,,,0,2,,,,,,,8,10,8,8,,,,,,,,,,,1197.9868,1198.4874,1198.74,1201.1536,space,2.3933,,1201.1538,76,49,1202.1569,1202.1569,1202.1721,,,,0,17,17,17,1,115,170,,,,,,,,
,,60e5c4869429cc6413394d94,65af548eb1b2d753c01809fa,2024-01-23_08h01.36.655,bars,2023.2.3,Win32,59.17159763,657b66ea316d21385b68909f,,,,,,,,,,,1202.1724,1203.1698,,,1203.67,1203.9199,,120,120,,,,,,,,,,,,,,,,bars/025.png,bars/mask000.png,,,,,,,,,,,,2,1,,,,,,,6,8,4,9,,,,,,,,,,,1203.1699,1203.6698,1203.92,1207.0256,space,3.0842,,1207.0256,15,80,1208.0195,1208.0196,1208.0388,,,,0,18,18,18,1,105,40,,,,,,,,
,,60e5c4869429cc6413394d94,65af548eb1b2d753c01809fa,2024-01-23_08h01.36.655,bars,2023.2.3,Win32,59.17159763,657b66ea316d21385b68909f,,,,,,,,,,,1208.0389,1209.0363,,,1209.5364,1209.7863,,55,55,,,,,,,,,,,,,,,,bars/014.png,bars/mask008.png,,,,,,,,,,,,1,1,,,,,,,4,6,5,5,,,,,,,,,,,1209.0364,1209.5363,1209.7864,1215.353,space,5.5341,,1215.3531,25,55,1216.3529,1216.353,1216.368,,,,0,19,19,19,1,80,0,,,,,,,,
,,60e5c4869429cc6413394d94,65af548eb1b2d753c01809fa,2024-01-23_08h01.36.655,bars,2023.2.3,Win32,59.17159763,657b66ea316d21385b68909f,,,,,,,,,,,1216.3681,1217.3694,,,1217.8698,1218.1194,,52,52,,,,,,,,,,,,,,,,bars/046.png,bars/mask004.png,,,,,,,,,,,,0,2,,,,,,,6,8,7,9,,,,,,,,,,,1217.3695,1217.8697,1218.1196,1220.2919,space,2.1511,,1220.2919,77,33,1221.2859,1221.286,1221.3026,,,,0,20,20,20,1,155,85,,,,,,,,
,,60e5c4869429cc6413394d94,65af548eb1b2d753c01809fa,2024-01-23_08h01.36.655,bars,2023.2.3,Win32,59.17159763,657b66ea316d21385b68909f,,,,,,,,,,,1221.3031,1222.3031,,,1222.807,1223.0524,,144,144,,,,,,,,,,,,,,,,bars/039.png,bars/mask006.png,,,,,,,,,,,,0,1,,,,,,,4,10,5,10,,,,,,,,,,,1222.3032,1222.807,1223.0525,1228.2735,space,5.1997,,1228.2735,31,39,1229.2689,1229.269,1229.2868,,,,0,21,21,21,1,175,105,,,,,,,,
,,60e5c4869429cc6413394d94,65af548eb1b2d753c01809fa,2024-01-23_08h01.36.655,bars,2023.2.3,Win32,59.17159763,657b66ea316d21385b68909f,,,,,,,,,,,1229.287,1230.2877,,,1230.79,1231.0352,,91,91,,,,,,,,,,,,,,,,bars/006.png,bars/mask000.png,,,,,,,,,,,,7,2,,,,,,,2,8,2,10,,,,,,,,,,,1230.2877,1230.79,1231.0353,1239.4518,space,8.3862,,1239.452,56,9,1240.4512,1240.4513,1240.4694,,,,0,22,22,22,1,35,100,,,,,,,,
,,60e5c4869429cc6413394d94,65af548eb1b2d753c01809fa,2024-01-23_08h01.36.655,bars,2023.2.3,Win32,59.17159763,657b66ea316d21385b68909f,,,,,,,,,,,1240.4696,1241.472,,,1241.9719,1242.2183,,3,3,,,,,,,,,,,,,,,,bars/037.png,bars/mask002.png,,,,,,,,,,,,0,1,,,,,,,0,6,0,6,,,,,,,,,,,1241.472,1241.9718,1242.2185,1247.3231,space,5.0836,,1247.3232,33,78,1248.3184,1248.3185,1248.3361,,,,0,23,23,23,1,150,105,,,,,,,,
,,60e5c4869429cc6413394d94,65af548eb1b2d753c01809fa,2024-01-23_08h01.36.655,bars,2023.2.3,Win32,59.17159763,657b66ea316d21385b68909f,,,,,,,,,,,1248.3363,1249.3343,,,1249.8349,1250.0892,,169,169,,,,,,,,,,,,,,,,bars/032.png,bars/mask003.png,,,,,,,,,,,,0,2,,,,,,,2,8,2,9,,,,,,,,,,,1249.3344,1249.8347,1250.0892,1252.7016,space,2.5933,,1252.7018,44,31,1253.7007,1253.7009,1253.7178,,,,0,24,24,24,1,125,20,,,,,,,,
,,60e5c4869429cc6413394d94,65af548eb1b2d753c01809fa,2024-01-23_08h01.36.655,bars,2023.2.3,Win32,59.17159763,657b66ea316d21385b68909f,,,,,,,,,,,1253.7182,1254.7172,,,1255.2174,1255.4672,,23,23,,,,,,,,,,,,,,,,bars/035.png,bars/mask003.png,,,,,,,,,,,,0,1,,,,,,,0,10,0,10,,,,,,,,,,,1254.7173,1255.2171,1255.4673,1260.8011,space,5.3046,,1260.8012,28,37,1261.8002,1261.8003,1261.8165,,,,0,25,25,25,1,175,60,,,,,,,,
,,60e5c4869429cc6413394d94,65af548eb1b2d753c01809fa,2024-01-23_08h01.36.655,bars,2023.2.3,Win32,59.17159763,657b66ea316d21385b68909f,,,,,,,,,,,1261.8169,1262.8043,,,1263.3035,1263.5505,,72,72,,,,,,,,,,,,,,,,bars/033.png,bars/mask008.png,,,,,,,,,,,,0,1,,,,,,,0,8,0,9,,,,,,,,,,,1262.8043,1263.3035,1263.5506,1299.3656,space,35.7861,,1299.3658,47,83,1300.3649,1300.365,1300.3667,,,,0,26,26,26,1,25,155,,,,,,,,
,,60e5c4869429cc6413394d94,65af548eb1b2d753c01809fa,2024-01-23_08h01.36.655,bars,2023.2.3,Win32,59.17159763,657b66ea316d21385b68909f,,,,,,,,,,,1300.3672,1301.3649,,,1301.8645,1302.1143,,32,32,,,,,,,,,,,,,,,,bars/005.png,bars/mask003.png,,,,,,,,,,,,1,1,,,,,,,0,6,3,5,,,,,,,,,,,1301.365,1301.8643,1302.1144,1307.4648,space,5.3192,,1307.4649,22,72,1308.4638,1308.4639,1308.4801,,,,0,27,27,27,1,10,140,,,,,,,,
,,60e5c4869429cc6413394d94,65af548eb1b2d753c01809fa,2024-01-23_08h01.36.655,bars,2023.2.3,Win32,59.17159763,657b66ea316d21385b68909f,,,,,,,,,,,1308.4804,1309.4816,,,1309.9818,1310.2307,,39,39,,,,,,,,,,,,,,,,bars/030.png,bars/mask001.png,,,,,,,,,,,,1,2,,,,,,,0,8,1,8,,,,,,,,,,,1309.4817,1309.9816,1310.2309,1313.9475,space,3.6947,,1313.9476,79,26,1314.9522,1314.9522,1314.9686,,,,0,28,28,28,1,140,65,,,,,,,,
,,60e5c4869429cc6413394d94,65af548eb1b2d753c01809fa,2024-01-23_08h01.36.655,bars,2023.2.3,Win32,59.17159763,657b66ea316d21385b68909f,,,,,,,,,,,1314.9687,1315.9635,,,1316.4643,1316.7142,,133,-47,,,,,,,,,,,,,,,,bars/023.png,bars/mask005.png,,,,,,,,,,,,3,2,,,,,,,0,6,2,8,,,,,,,,,,,1315.9636,1316.4642,1316.7144,1321.9989,space,5.264,,1321.999,67,18,1323.0006,1323.0007,1323.0174,,,,0,29,29,29,1,20,115,,,,,,,,
,,60e5c4869429cc6413394d94,65af548eb1b2d753c01809fa,2024-01-23_08h01.36.655,bars,2023.2.3,Win32,59.17159763,657b66ea316d21385b68909f,,,,,,,,,,,1323.0176,1324.0135,,,1324.5182,1324.7637,,45,45,,,,,,,,,,,,,,,,bars/025.png,bars/mask007.png,,,,,,,,,,,,6,2,,,,,,,0,8,0,7,,,,,,,,,,,1324.0137,1324.5181,1324.7638,1327.8689,space,3.0841,,1327.869,60,5,1328.8627,1328.8629,1328.8701,,,,0,30,30,30,1,105,40,,,,,,,,
,,60e5c4869429cc6413394d94,65af548eb1b2d753c01809fa,2024-01-23_08h01.36.655,bars,2023.2.3,Win32,59.17159763,657b66ea316d21385b68909f,,,,,,,,,,,1328.8702,1329.8629,,,1330.3636,1330.613,,126,-54,,,,,,,,,,,,,,,,bars/038.png,bars/mask002.png,,,,,,,,,,,,0,1,,,,,,,2,10,0,10,,,,,,,,,,,1329.8631,1330.3635,1330.6132,1334.3519,space,3.7176,,1334.352,39,56,1335.3464,1335.3466,1335.3653,,,,0,31,31,31,1,165,70,,,,,,,,
,,60e5c4869429cc6413394d94,65af548eb1b2d753c01809fa,2024-01-23_08h01.36.655,bars,2023.2.3,Win32,59.17159763,657b66ea316d21385b68909f,,,,,,,,,,,1335.3655,1336.3626,,,1336.8629,1337.1132,,27,27,,,,,,,,,,,,,,,,bars/002.png,bars/mask009.png,,,,,,,,,,,,0,2,,,,,,,4,10,5,9,,,,,,,,,,,1336.3627,1336.8629,1337.1134,1343.4012,space,6.2668,,1343.4012,77,58,1344.395,1344.395,1344.403,,,,0,32,32,32,1,130,85,,,,,,,,
,,60e5c4869429cc6413394d94,65af548eb1b2d753c01809fa,2024-01-23_08h01.36.655,bars,2023.2.3,Win32,59.17159763,657b66ea316d21385b68909f,,,,,,,,,,,1344.4032,1345.395,,,1345.8958,1346.1456,,175,175,,,,,,,,,,,,,,,,bars/047.png,bars/mask001.png,,,,,,,,,,,,2,1,,,,,,,6,8,7,8,,,,,,,,,,,1345.395,1345.8958,1346.1457,1348.0132,space,1.8372,,1348.0133,20,75,1349.0122,1349.0124,1349.0266,,,,0,33,33,33,1,15,70,,,,,,,,
,,60e5c4869429cc6413394d94,65af548eb1b2d753c01809fa,2024-01-23_08h01.36.655,bars,2023.2.3,Win32,59.17159763,657b66ea316d21385b68909f,,,,,,,,,,,1349.0268,1350.0293,,,1350.5294,1350.7823,,22,22,,,,,,,,,,,,,,,,bars/023.png,bars/mask002.png,,,,,,,,,,,,4,1,,,,,,,4,6,4,7,,,,,,,,,,,1350.0295,1350.5293,1350.7823,1353.7002,space,2.9004,,1353.7003,2,87,1354.6952,1354.6953,1354.7079,,,,0,34,34,34,1,20,115,,,,,,,,
,,60e5c4869429cc6413394d94,65af548eb1b2d753c01809fa,2024-01-23_08h01.36.655,bars,2023.2.3,Win32,59.17159763,657b66ea316d21385b68909f,,,,,,,,,,,1354.7081,1355.7119,,,1356.2122,1356.4499,,169,169,,,,,,,,,,,,,,,,bars/039.png,bars/mask000.png,,,,,,,,,,,,5,1,,,,,,,6,8,6,7,,,,,,,,,,,1355.712,1356.2121,1356.4499,1358.3677,space,1.9128,,1358.3678,6,64,1359.3622,1359.3624,1359.3783,,,,0,35,35,35,1,175,105,,,,,,,,
,,60e5c4869429cc6413394d94,65af548eb1b2d753c01809fa,2024-01-23_08h01.36.655,bars,2023.2.3,Win32,59.17159763,657b66ea316d21385b68909f,,,,,,,,,,,1359.3788,1360.3785,,,1360.8785,1361.1281,,65,65,,,,,,,,,,,,,,,,bars/006.png,bars/mask008.png,,,,,,,,,,,,0,1,,,,,,,8,10,7,9,,,,,,,,,,,1360.3786,1360.8784,1361.1281,1362.8475,space,1.6979,,1362.8476,30,35,1363.8453,1363.8455,1363.8467,,,,0,36,36,36,1,35,100,,,,,,,,
,,60e5c4869429cc6413394d94,65af548eb1b2d753c01809fa,2024-01-23_08h01.36.655,bars,2023.2.3,Win32,59.17159763,657b66ea316d21385b68909f,,,,,,,,,,,1363.847,1364.845,,,1365.3451,1365.5954,,24,24,,,,,,,,,,,,,,,,bars/033.png,bars/mask006.png,,,,,,,,,,,,9,1,,,,,,,10,10,9,10,,,,,,,,,,,1364.8451,1365.3449,1365.5955,1367.481,space,1.8647,,1367.481,1,49,1368.4785,1368.4788,1368.4964,,,,0,37,37,37,1,25,155,,,,,,,,
,,60e5c4869429cc6413394d94,65af548eb1b2d753c01809fa,2024-01-23_08h01.36.655,bars,2023.2.3,Win32,59.17159763,657b66ea316d21385b68909f,,,,,,,,,,,1368.4966,1369.4948,,,1369.9947,1370.2442,,122,122,,,,,,,,,,,,,,,,bars/000.png,bars/mask005.png,,,,,,,,,,,,2,2,,,,,,,10,8,10,8,,,,,,,,,,,1369.4949,1369.9945,1370.2443,1372.0291,space,1.7627,,1372.0291,82,23,1373.0325,1373.0326,1373.0493,,,,0,38,38,38,1,40,145,,,,,,,,
,,60e5c4869429cc6413394d94,65af548eb1b2d753c01809fa,2024-01-23_08h01.36.655,bars,2023.2.3,Win32,59.17159763,657b66ea316d21385b68909f,,,,,,,,,,,1373.0496,1374.0491,,,1374.5445,1374.7969,,93,93,,,,,,,,,,,,,,,,bars/014.png,bars/mask005.png,,,,,,,,,,,,6,1,,,,,,,10,10,10,9,,,,,,,,,,,1374.0491,1374.5444,1374.7969,1376.5446,space,1.7247,,1376.5448,13,87,1377.5444,1377.5445,1377.547,,,,0,39,39,39,1,80,0,,,,,,,,
,,60e5c4869429cc6413394d94,65af548eb1b2d753c01809fa,2024-01-23_08h01.36.655,bars,2023.2.3,Win32,59.17159763,657b66ea316d21385b68909f,,,,,,,,,,,1377.5473,1378.5482,,,1379.044,1379.2939,,118,118,,,,,,,,,,,,,,,,bars/046.png,bars/mask002.png,,,,,,,,,,,,0,2,,,,,,,10,8,9,8,,,,,,,,,,,1378.5482,1379.0439,1379.2939,1381.0639,space,1.7488,,1381.064,37,33,1382.0604,1382.0605,1382.0631,,,,0,40,40,40,1,155,85,,,,,,,,
,,60e5c4869429cc6413394d94,65af548eb1b2d753c01809fa,2024-01-23_08h01.36.655,bars,2023.2.3,Win32,59.17159763,657b66ea316d21385b68909f,,,,,,,,,,,1382.0634,1383.0603,,,1383.561,1383.8144,,50,50,,,,,,,,,,,,,,,,bars/048.png,bars/mask000.png,,,,,,,,,,,,7,1,,,,,,,8,6,7,7,,,,,,,,,,,1383.0606,1383.5609,1383.8144,1388.8104,space,4.9774,,1388.8106,0,55,1389.81,1389.8102,1389.8278,,,,0,41,41,41,1,50,175,,,,,,,,
,,60e5c4869429cc6413394d94,65af548eb1b2d753c01809fa,2024-01-23_08h01.36.655,bars,2023.2.3,Win32,59.17159763,657b66ea316d21385b68909f,,,,,,,,,,,1389.8281,1390.8268,,,1391.3266,1391.5765,,5,5,,,,,,,,,,,,,,,,bars/018.png,bars/mask007.png,,,,,,,,,,,,0,1,,,,,,,10,4,10,3,,,,,,,,,,,1390.827,1391.3265,1391.5766,1394.3943,space,2.7908,,1394.3944,35,85,1395.3929,1395.393,1395.409,,,,0,42,42,42,1,150,90,,,,,,,,
,,60e5c4869429cc6413394d94,65af548eb1b2d753c01809fa,2024-01-23_08h01.36.655,bars,2023.2.3,Win32,59.17159763,657b66ea316d21385b68909f,,,,,,,,,,,1395.4095,1396.4105,,,1396.9101,1397.1595,,132,132,,,,,,,,,,,,,,,,bars/025.png,bars/mask004.png,,,,,,,,,,,,1,1,,,,,,,10,6,10,6,,,,,,,,,,,1396.4105,1396.91,1397.1596,1401.08,space,3.8993,,1401.08,27,88,1402.0756,1402.0757,1402.0946,,,,0,43,43,43,1,105,40,,,,,,,,
,,60e5c4869429cc6413394d94,65af548eb1b2d753c01809fa,2024-01-23_08h01.36.655,bars,2023.2.3,Win32,59.17159763,657b66ea316d21385b68909f,,,,,,,,,,,1402.0948,1403.0967,,,1403.5928,1403.8429,,30,30,,,,,,,,,,,,,,,,bars/016.png,bars/mask003.png,,,,,,,,,,,,6,1,,,,,,,10,4,9,5,,,,,,,,,,,1403.0967,1403.5927,1403.8429,1408.879,space,5.0149,,1408.879,10,45,1409.8758,1409.876,1409.8928,,,,0,44,44,44,1,40,165,,,,,,,,
,,60e5c4869429cc6413394d94,65af548eb1b2d753c01809fa,2024-01-23_08h01.36.655,bars,2023.2.3,Win32,59.17159763,657b66ea316d21385b68909f,,,,,,,,,,,1409.8931,1410.8933,,,1411.3928,1411.6423,,14,14,,,,,,,,,,,,,,,,bars/007.png,bars/mask005.png,,,,,,,,,,,,3,1,,,,,,,8,2,7,0,,,,,,,,,,,1410.8935,1411.3926,1411.6424,1414.2432,space,2.5723,,1414.2433,19,41,1415.242,1415.2422,1415.2569,,,,0,45,45,45,1,175,55,,,,,,,,
,,60e5c4869429cc6413394d94,65af548eb1b2d753c01809fa,2024-01-23_08h01.36.655,bars,2023.2.3,Win32,59.17159763,657b66ea316d21385b68909f,,,,,,,,,,,1415.2571,1416.2589,,,1416.7593,1417.0088,,143,143,,,,,,,,,,,,,,,,bars/037.png,bars/mask006.png,,,,,,,,,,,,3,1,,,,,,,6,4,4,4,,,,,,,,,,,1416.2591,1416.7591,1417.009,1422.809,space,5.7703,,1422.8092,7,38,1423.8118,1423.8118,1423.8277,,,,0,46,46,46,1,150,105,,,,,,,,
,,60e5c4869429cc6413394d94,65af548eb1b2d753c01809fa,2024-01-23_08h01.36.655,bars,2023.2.3,Win32,59.17159763,657b66ea316d21385b68909f,,,,,,,,,,,1423.8279,1424.8251,,,1425.325,1425.5748,,39,219,,,,,,,,,,,,,,,,bars/030.png,bars/mask006.png,,,,,,,,,,,,0,2,,,,,,,8,2,9,1,,,,,,,,,,,1424.8252,1425.3248,1425.5749,1429.2254,space,3.6263,,1429.2256,79,26,1430.2248,1430.2249,1430.2403,,,,0,47,47,47,1,140,65,,,,,,,,
,,60e5c4869429cc6413394d94,65af548eb1b2d753c01809fa,2024-01-23_08h01.36.655,bars,2023.2.3,Win32,59.17159763,657b66ea316d21385b68909f,,,,,,,,,,,1430.2406,1431.2412,,,1431.7412,1431.9909,,137,137,,,,,,,,,,,,,,,,bars/049.png,bars/mask007.png,,,,,,,,,,,,0,2,,,,,,,10,0,10,0,,,,,,,,,,,1431.2413,1431.741,1431.991,1434.3111,space,2.2983,,1434.3112,23,22,1435.3102,1435.3103,1435.3262,,,,0,48,48,48,1,160,115,,,,,,,,
,,60e5c4869429cc6413394d94,65af548eb1b2d753c01809fa,2024-01-23_08h01.36.655,bars,2023.2.3,Win32,59.17159763,657b66ea316d21385b68909f,,,,,,,,,,,1435.3264,1436.3241,,,1436.8246,1437.0744,,48,48,,,,,,,,,,,,,,,,bars/031.png,bars/mask005.png,,,,,,,,,,,,2,2,,,,,,,10,2,10,3,,,,,,,,,,,1436.3243,1436.8244,1437.0744,1440.2245,space,3.1257,,1440.2246,72,13,1441.2241,1441.2242,1441.2415,,,,0,49,49,49,1,120,35,,,,,,,,
,,60e5c4869429cc6413394d94,65af548eb1b2d753c01809fa,2024-01-23_08h01.36.655,bars,2023.2.3,Win32,59.17159763,657b66ea316d21385b68909f,,,,,,,,,,,,,,,,,,,,,,,,,,,,,,,,,,,,,,,,,,,,,,,,,,,,,,,,,,,,,,,,,,,,,,,,,,,,,,,,,,,,,,,,,,,,,1441.2418,1501.238,0,1,1,1,1,sequence_tables/blk024.csv
,,60e5c4869429cc6413394d94,65af548eb1b2d753c01809fa,2024-01-23_08h01.36.655,bars,2023.2.3,Win32,59.17159763,657b66ea316d21385b68909f,,,,,,,,,,,1512.6046,1513.6036,,,1514.1037,1514.3398,,43,43,,,,,,,,,,,,,,,,bars/042.png,bars/mask000.png,,,,,,,,,,,,0,2,,,,,,,5,5,5,2,,,,,,1501.2527,1512.5878,space,11.3271,,1513.6038,1514.1036,1514.3398,1518.9876,space,4.6238,,1518.9878,78,32,1519.9863,1519.9865,1520.0053,,,,0,0,0,0,1,145,75,,,,,,,,
,,60e5c4869429cc6413394d94,65af548eb1b2d753c01809fa,2024-01-23_08h01.36.655,bars,2023.2.3,Win32,59.17159763,657b66ea316d21385b68909f,,,,,,,,,,,1520.0056,1521.0035,,,1521.5028,1521.7529,,153,153,,,,,,,,,,,,,,,,bars/034.png,bars/mask005.png,,,,,,,,,,,,1,1,,,,,,,7,3,8,4,,,,,,,,,,,1521.0037,1521.5028,1521.7531,1523.64,space,1.8654,,1523.64,28,88,1524.6393,1524.6393,1524.6415,,,,0,1,1,1,1,125,65,,,,,,,,
,,60e5c4869429cc6413394d94,65af548eb1b2d753c01809fa,2024-01-23_08h01.36.655,bars,2023.2.3,Win32,59.17159763,657b66ea316d21385b68909f,,,,,,,,,,,1524.6418,1525.6363,,,1526.1361,1526.3865,,149,149,,,,,,,,,,,,,,,,bars/031.png,bars/mask006.png,,,,,,,,,,,,0,1,,,,,,,5,5,4,6,,,,,,,,,,,1525.6364,1526.136,1526.3866,1530.6407,space,4.2327,,1530.6407,29,66,1531.6359,1531.636,1531.6507,,,,0,2,2,2,1,120,35,,,,,,,,
,,60e5c4869429cc6413394d94,65af548eb1b2d753c01809fa,2024-01-23_08h01.36.655,bars,2023.2.3,Win32,59.17159763,657b66ea316d21385b68909f,,,,,,,,,,,1531.6509,1532.6524,,,1533.1526,1533.4024,,154,154,,,,,,,,,,,,,,,,bars/028.png,bars/mask001.png,,,,,,,,,,,,0,2,,,,,,,7,7,7,7,,,,,,,,,,,1532.6525,1533.1524,1533.4026,1535.808,space,2.3839,,1535.808,71,34,1536.8016,1536.8017,1536.8117,,,,0,3,3,3,1,45,120,,,,,,,,
,,60e5c4869429cc6413394d94,65af548eb1b2d753c01809fa,2024-01-23_08h01.36.655,bars,2023.2.3,Win32,59.17159763,657b66ea316d21385b68909f,,,,,,,,,,,1536.8119,1537.8025,,,1538.3019,1538.5517,,151,151,,,,,,,,,,,,,,,,bars/007.png,bars/mask004.png,,,,,,,,,,,,1,1,,,,,,,5,5,6,4,,,,,,,,,,,1537.8027,1538.3018,1538.5518,1543.8025,space,5.2276,,1543.8027,24,84,1544.8049,1544.805,1544.8239,,,,0,4,4,4,1,175,55,,,,,,,,
,,60e5c4869429cc6413394d94,65af548eb1b2d753c01809fa,2024-01-23_08h01.36.655,bars,2023.2.3,Win32,59.17159763,657b66ea316d21385b68909f,,,,,,,,,,,1544.8241,1545.8179,,,1546.3181,1546.5684,,111,111,,,,,,,,,,,,,,,,bars/012.png,bars/mask009.png,,,,,,,,,,,,2,1,,,,,,,7,7,8,8,,,,,,,,,,,1545.8181,1546.3179,1546.5685,1549.2349,space,2.6397,,1549.2351,21,84,1550.235,1550.2351,1550.2537,,,,0,5,5,5,1,90,15,,,,,,,,
,,60e5c4869429cc6413394d94,65af548eb1b2d753c01809fa,2024-01-23_08h01.36.655,bars,2023.2.3,Win32,59.17159763,657b66ea316d21385b68909f,,,,,,,,,,,1550.2538,1551.2565,,,1551.7548,1552.0017,,122,122,,,,,,,,,,,,,,,,bars/026.png,bars/mask002.png,,,,,,,,,,,,0,2,,,,,,,9,9,7,9,,,,,,,,,,,1551.2565,1551.7548,1552.0019,1555.4731,space,3.4501,,1555.4732,87,37,1556.4671,1556.4672,1556.4749,,,,0,6,6,6,1,35,85,,,,,,,,
,,60e5c4869429cc6413394d94,65af548eb1b2d753c01809fa,2024-01-23_08h01.36.655,bars,2023.2.3,Win32,59.17159763,657b66ea316d21385b68909f,,,,,,,,,,,1556.475,1557.4669,,,1557.9681,1558.2205,,155,155,,,,,,,,,,,,,,,,bars/038.png,bars/mask004.png,,,,,,,,,,,,7,1,,,,,,,10,10,10,8,,,,,,,,,,,1557.467,1557.968,1558.2206,1568.6675,space,10.4176,,1568.6677,10,85,1569.6674,1569.6678,1569.676,,,,0,7,7,7,1,165,70,,,,,,,,
,,60e5c4869429cc6413394d94,65af548eb1b2d753c01809fa,2024-01-23_08h01.36.655,bars,2023.2.3,Win32,59.17159763,657b66ea316d21385b68909f,,,,,,,,,,,1569.6762,1570.6665,,,1571.1674,1571.4172,,10,10,,,,,,,,,,,,,,,,bars/032.png,bars/mask007.png,,,,,,,,,,,,7,2,,,,,,,10,10,10,10,,,,,,,,,,,1570.6666,1571.1673,1571.4174,1575.9038,space,4.4651,,1575.9039,65,10,1576.9001,1576.9003,1576.9173,,,,0,8,8,8,1,125,20,,,,,,,,
,,60e5c4869429cc6413394d94,65af548eb1b2d753c01809fa,2024-01-23_08h01.36.655,bars,2023.2.3,Win32,59.17159763,657b66ea316d21385b68909f,,,,,,,,,,,1576.9178,1577.9166,,,1578.4167,1578.6669,,17,17,,,,,,,,,,,,,,,,bars/035.png,bars/mask005.png,,,,,,,,,,,,2,1,,,,,,,8,10,9,10,,,,,,,,,,,1577.9168,1578.4165,1578.667,1583.2837,space,4.5897,,1583.2839,22,43,1584.2832,1584.2834,1584.3002,,,,0,9,9,9,1,175,60,,,,,,,,
,,60e5c4869429cc6413394d94,65af548eb1b2d753c01809fa,2024-01-23_08h01.36.655,bars,2023.2.3,Win32,59.17159763,657b66ea316d21385b68909f,,,,,,,,,,,1584.3008,1585.2998,,,1585.7995,1586.0376,,29,29,,,,,,,,,,,,,,,,bars/026.png,bars/mask002.png,,,,,,,,,,,,6,1,,,,,,,6,8,7,7,,,,,,,,,,,1585.2999,1585.7994,1586.0376,1589.5384,space,3.4838,,1589.5385,6,56,1590.5358,1590.5359,1590.5516,,,,0,10,10,10,1,35,85,,,,,,,,
,,60e5c4869429cc6413394d94,65af548eb1b2d753c01809fa,2024-01-23_08h01.36.655,bars,2023.2.3,Win32,59.17159763,657b66ea316d21385b68909f,,,,,,,,,,,1590.5517,1591.5498,,,1592.0492,1592.2997,,137,-43,,,,,,,,,,,,,,,,bars/049.png,bars/mask005.png,,,,,,,,,,,,1,2,,,,,,,4,6,5,5,,,,,,,,,,,1591.5499,1592.0491,1592.2998,1597.3173,space,4.9851,,1597.3173,23,22,1598.3184,1598.3184,1598.3347,,,,0,11,11,11,1,160,115,,,,,,,,
,,60e5c4869429cc6413394d94,65af548eb1b2d753c01809fa,2024-01-23_08h01.36.655,bars,2023.2.3,Win32,59.17159763,657b66ea316d21385b68909f,,,,,,,,,,,1598.3348,1599.3322,,,1599.8369,1600.0825,,88,88,,,,,,,,,,,,,,,,bars/025.png,bars/mask004.png,,,,,,,,,,,,3,1,,,,,,,6,4,6,3,,,,,,,,,,,1599.3323,1599.8369,1600.0827,1606.1166,space,6.0024,,1606.1166,17,48,1607.1152,1607.1152,1607.1354,,,,0,12,12,12,1,105,40,,,,,,,,
,,60e5c4869429cc6413394d94,65af548eb1b2d753c01809fa,2024-01-23_08h01.36.655,bars,2023.2.3,Win32,59.17159763,657b66ea316d21385b68909f,,,,,,,,,,,1607.1357,1608.1369,,,1608.6321,1608.8818,,136,136,,,,,,,,,,,,,,,,bars/004.png,bars/mask003.png,,,,,,,,,,,,4,2,,,,,,,8,6,6,6,,,,,,,,,,,1608.137,1608.632,1608.8819,1613.4519,space,4.5483,,1613.452,69,11,1614.4509,1614.451,1614.4675,,,,0,13,13,13,1,25,125,,,,,,,,
,,60e5c4869429cc6413394d94,65af548eb1b2d753c01809fa,2024-01-23_08h01.36.655,bars,2023.2.3,Win32,59.17159763,657b66ea316d21385b68909f,,,,,,,,,,,1614.4678,1615.4645,,,1615.9653,1616.2146,,126,126,,,,,,,,,,,,,,,,bars/042.png,bars/mask003.png,,,,,,,,,,,,2,1,,,,,,,6,4,5,4,,,,,,,,,,,1615.4647,1615.9649,1616.2148,1622.582,space,6.3376,,1622.5823,19,51,1623.5808,1623.5809,1623.5973,,,,0,14,14,14,1,145,75,,,,,,,,
,,60e5c4869429cc6413394d94,65af548eb1b2d753c01809fa,2024-01-23_08h01.36.655,bars,2023.2.3,Win32,59.17159763,657b66ea316d21385b68909f,,,,,,,,,,,1623.5978,1624.5969,,,1625.0974,1625.3475,,61,61,,,,,,,,,,,,,,,,bars/039.png,bars/mask005.png,,,,,,,,,,,,0,2,,,,,,,4,2,3,2,,,,,,,,,,,1624.5969,1625.0972,1625.3476,1632.5481,space,7.1764,,1632.5483,66,44,1633.5467,1633.5468,1633.5672,,,,0,15,15,15,1,175,105,,,,,,,,
,,60e5c4869429cc6413394d94,65af548eb1b2d753c01809fa,2024-01-23_08h01.36.655,bars,2023.2.3,Win32,59.17159763,657b66ea316d21385b68909f,,,,,,,,,,,1633.5674,1634.5638,,,1635.064,1635.3133,,125,125,,,,,,,,,,,,,,,,bars/031.png,bars/mask008.png,,,,,,,,,,,,3,1,,,,,,,2,4,3,5,,,,,,,,,,,1634.5639,1635.0638,1635.3134,1644.2687,space,8.9331,,1644.2687,5,90,1645.263,1645.2631,1645.2821,,,,0,16,16,16,1,120,35,,,,,,,,
,,60e5c4869429cc6413394d94,65af548eb1b2d753c01809fa,2024-01-23_08h01.36.655,bars,2023.2.3,Win32,59.17159763,657b66ea316d21385b68909f,,,,,,,,,,,1645.2823,1646.2799,,,1646.7802,1647.0296,,35,35,,,,,,,,,,,,,,,,bars/019.png,bars/mask009.png,,,,,,,,,,,,0,1,,,,,,,0,2,0,4,,,,,,,,,,,1646.2801,1646.7801,1647.0297,1651.802,space,4.7506,,1651.802,10,70,1652.7966,1652.7968,1652.8123,,,,0,17,17,17,1,45,105,,,,,,,,
,,60e5c4869429cc6413394d94,65af548eb1b2d753c01809fa,2024-01-23_08h01.36.655,bars,2023.2.3,Win32,59.17159763,657b66ea316d21385b68909f,,,,,,,,,,,1652.8131,1653.8158,,,1654.3129,1654.563,,144,144,,,,,,,,,,,,,,,,bars/042.png,bars/mask003.png,,,,,,,,,,,,2,1,,,,,,,0,0,2,1,,,,,,,,,,,1653.8159,1654.3127,1654.5632,1659.6127,space,5.0232,,1659.6128,1,69,1660.6119,1660.6121,1660.6276,,,,0,18,18,18,1,145,75,,,,,,,,
,,60e5c4869429cc6413394d94,65af548eb1b2d753c01809fa,2024-01-23_08h01.36.655,bars,2023.2.3,Win32,59.17159763,657b66ea316d21385b68909f,,,,,,,,,,,1660.6279,1661.6293,,,1662.1291,1662.3792,,129,129,,,,,,,,,,,,,,,,bars/041.png,bars/mask004.png,,,,,,,,,,,,0,2,,,,,,,0,0,1,0,,,,,,,,,,,1661.6295,1662.129,1662.3792,1667.1522,space,4.7515,,1667.1522,71,44,1668.1454,1668.1455,1668.1637,,,,0,19,19,19,1,20,85,,,,,,,,
,,60e5c4869429cc6413394d94,65af548eb1b2d753c01809fa,2024-01-23_08h01.36.655,bars,2023.2.3,Win32,59.17159763,657b66ea316d21385b68909f,,,,,,,,,,,1668.1639,1669.162,,,1669.6623,1669.912,,125,125,,,,,,,,,,,,,,,,bars/041.png,bars/mask008.png,,,,,,,,,,,,0,2,,,,,,,2,2,3,2,,,,,,,,,,,1669.1621,1669.6621,1669.9121,1673.765,space,3.8321,,1673.765,75,40,1674.7616,1674.7617,1674.7774,,,,0,20,20,20,1,20,85,,,,,,,,
,,60e5c4869429cc6413394d94,65af548eb1b2d753c01809fa,2024-01-23_08h01.36.655,bars,2023.2.3,Win32,59.17159763,657b66ea316d21385b68909f,,,,,,,,,,,1674.7779,1675.7782,,,1676.2811,1676.5282,,150,-30,,,,,,,,,,,,,,,,bars/021.png,bars/mask006.png,,,,,,,,,,,,0,1,,,,,,,0,0,0,0,,,,,,,,,,,1675.7783,1676.2811,1676.5283,1680.8116,space,4.2585,,1680.8117,5,80,1681.8112,1681.8113,1681.8291,,,,0,21,21,21,1,155,70,,,,,,,,
,,60e5c4869429cc6413394d94,65af548eb1b2d753c01809fa,2024-01-23_08h01.36.655,bars,2023.2.3,Win32,59.17159763,657b66ea316d21385b68909f,,,,,,,,,,,1681.8294,1682.8277,,,1683.3281,1683.578,,144,-36,,,,,,,,,,,,,,,,bars/015.png,bars/mask009.png,,,,,,,,,,,,1,2,,,,,,,0,2,0,2,,,,,,,,,,,1682.828,1683.3279,1683.5783,1686.7835,space,3.184,,1686.7835,34,16,1687.7778,1687.7779,1687.7951,,,,0,22,22,22,1,110,160,,,,,,,,
,,60e5c4869429cc6413394d94,65af548eb1b2d753c01809fa,2024-01-23_08h01.36.655,bars,2023.2.3,Win32,59.17159763,657b66ea316d21385b68909f,,,,,,,,,,,1687.7955,1688.7943,,,1689.294,1689.544,,154,-26,,,,,,,,,,,,,,,,bars/005.png,bars/mask007.png,,,,,,,,,,,,3,2,,,,,,,2,4,2,6,,,,,,,,,,,1688.7944,1689.294,1689.5442,1692.2808,space,2.7155,,1692.2808,36,14,1693.2773,1693.2774,1693.2965,,,,0,23,23,23,1,10,140,,,,,,,,
,,60e5c4869429cc6413394d94,65af548eb1b2d753c01809fa,2024-01-23_08h01.36.655,bars,2023.2.3,Win32,59.17159763,657b66ea316d21385b68909f,,,,,,,,,,,1693.2967,1694.2937,,,1694.7936,1695.0439,,120,-60,,,,,,,,,,,,,,,,bars/026.png,bars/mask000.png,,,,,,,,,,,,0,2,,,,,,,4,2,5,3,,,,,,,,,,,1694.2938,1694.7935,1695.0441,1700.049,space,4.9834,,1700.049,85,35,1701.0434,1701.0435,1701.0595,,,,0,24,24,24,1,35,85,,,,,,,,
,,60e5c4869429cc6413394d94,65af548eb1b2d753c01809fa,2024-01-23_08h01.36.655,bars,2023.2.3,Win32,59.17159763,657b66ea316d21385b68909f,,,,,,,,,,,1701.0603,1702.0599,,,1702.5598,1702.8153,,118,118,,,,,,,,,,,,,,,,bars/040.png,bars/mask000.png,,,,,,,,,,,,1,1,,,,,,,2,4,2,4,,,,,,,,,,,1702.0601,1702.5597,1702.8153,1707.4102,space,4.5767,,1707.4104,22,67,1708.4095,1708.4097,1708.4281,,,,0,25,25,25,1,140,5,,,,,,,,
,,60e5c4869429cc6413394d94,65af548eb1b2d753c01809fa,2024-01-23_08h01.36.655,bars,2023.2.3,Win32,59.17159763,657b66ea316d21385b68909f,,,,,,,,,,,1708.4284,1709.4262,,,1709.9262,1710.1764,,126,126,,,,,,,,,,,,,,,,bars/034.png,bars/mask004.png,,,,,,,,,,,,0,1,,,,,,,0,6,0,7,,,,,,,,,,,1709.4262,1709.926,1710.1765,1716.5988,space,6.4005,,1716.5988,1,61,1717.5955,1717.5956,1717.6132,,,,0,26,26,26,1,125,65,,,,,,,,
,,60e5c4869429cc6413394d94,65af548eb1b2d753c01809fa,2024-01-23_08h01.36.655,bars,2023.2.3,Win32,59.17159763,657b66ea316d21385b68909f,,,,,,,,,,,1717.6135,1718.6147,,,1719.1093,1719.3594,,157,157,,,,,,,,,,,,,,,,bars/038.png,bars/mask000.png,,,,,,,,,,,,1,1,,,,,,,2,8,2,9,,,,,,,,,,,1718.6147,1719.1091,1719.3595,1721.814,space,2.4333,,1721.814,8,87,1722.8098,1722.8099,1722.8253,,,,0,27,27,27,1,165,70,,,,,,,,
,,60e5c4869429cc6413394d94,65af548eb1b2d753c01809fa,2024-01-23_08h01.36.655,bars,2023.2.3,Win32,59.17159763,657b66ea316d21385b68909f,,,,,,,,,,,1722.8257,1723.8258,,,1724.3282,1724.5751,,157,157,,,,,,,,,,,,,,,,bars/004.png,bars/mask006.png,,,,,,,,,,,,0,2,,,,,,,0,6,0,5,,,,,,,,,,,1723.8259,1724.3282,1724.5753,1727.7587,space,3.1609,,1727.7588,48,32,1728.7587,1728.7588,1728.7739,,,,0,28,28,28,1,25,125,,,,,,,,
,,60e5c4869429cc6413394d94,65af548eb1b2d753c01809fa,2024-01-23_08h01.36.655,bars,2023.2.3,Win32,59.17159763,657b66ea316d21385b68909f,,,,,,,,,,,1728.774,1729.7756,,,1730.2761,1730.5252,,145,145,,,,,,,,,,,,,,,,bars/018.png,bars/mask008.png,,,,,,,,,,,,0,1,,,,,,,0,4,0,4,,,,,,,,,,,1729.7757,1730.2759,1730.5253,1732.0951,space,1.5481,,1732.0952,5,55,1733.0914,1733.0915,1733.0944,,,,0,29,29,29,1,150,90,,,,,,,,
,,60e5c4869429cc6413394d94,65af548eb1b2d753c01809fa,2024-01-23_08h01.36.655,bars,2023.2.3,Win32,59.17159763,657b66ea316d21385b68909f,,,,,,,,,,,1733.0947,1734.0923,,,1734.5914,1734.8459,,18,198,,,,,,,,,,,,,,,,bars/032.png,bars/mask007.png,,,,,,,,,,,,7,2,,,,,,,2,6,2,7,,,,,,,,,,,1734.0925,1734.5913,1734.8459,1740.514,space,5.6505,,1740.514,73,2,1741.5081,1741.5081,1741.526,,,,0,30,30,30,1,125,20,,,,,,,,
,,60e5c4869429cc6413394d94,65af548eb1b2d753c01809fa,2024-01-23_08h01.36.655,bars,2023.2.3,Win32,59.17159763,657b66ea316d21385b68909f,,,,,,,,,,,1741.5262,1742.5244,,,1743.0249,1743.2742,,57,57,,,,,,,,,,,,,,,,bars/031.png,bars/mask002.png,,,,,,,,,,,,1,2,,,,,,,0,4,0,4,,,,,,,,,,,1742.5246,1743.0247,1743.2744,1745.0806,space,1.7845,,1745.0806,63,22,1746.0752,1746.0753,1746.0924,,,,0,31,31,31,1,120,35,,,,,,,,
,,60e5c4869429cc6413394d94,65af548eb1b2d753c01809fa,2024-01-23_08h01.36.655,bars,2023.2.3,Win32,59.17159763,657b66ea316d21385b68909f,,,,,,,,,,,1746.0925,1747.0913,,,1747.5911,1747.8412,,159,159,,,,,,,,,,,,,,,,bars/021.png,bars/mask001.png,,,,,,,,,,,,2,1,,,,,,,2,6,2,5,,,,,,,,,,,1747.0913,1747.591,1747.8413,1753.0943,space,5.2315,,1753.0944,4,89,1754.0909,1754.0909,1754.1093,,,,0,32,32,32,1,155,70,,,,,,,,
,,60e5c4869429cc6413394d94,65af548eb1b2d753c01809fa,2024-01-23_08h01.36.655,bars,2023.2.3,Win32,59.17159763,657b66ea316d21385b68909f,,,,,,,,,,,1754.1095,1755.1069,,,1755.6078,1755.8601,,164,164,,,,,,,,,,,,,,,,bars/009.png,bars/mask001.png,,,,,,,,,,,,0,1,,,,,,,4,4,4,5,,,,,,,,,,,1755.107,1755.6077,1755.8601,1758.0439,space,2.1669,,1758.0439,31,59,1759.0429,1759.043,1759.0593,,,,0,33,33,33,1,15,105,,,,,,,,
,,60e5c4869429cc6413394d94,65af548eb1b2d753c01809fa,2024-01-23_08h01.36.655,bars,2023.2.3,Win32,59.17159763,657b66ea316d21385b68909f,,,,,,,,,,,1759.0595,1760.0571,,,1760.5572,1760.8076,,31,31,,,,,,,,,,,,,,,,bars/029.png,bars/mask000.png,,,,,,,,,,,,1,2,,,,,,,2,2,2,2,,,,,,,,,,,1760.0572,1760.557,1760.8078,1763.4961,space,2.6673,,1763.4962,59,14,1764.4901,1764.4903,1764.5078,,,,0,34,34,34,1,90,45,,,,,,,,
,,60e5c4869429cc6413394d94,65af548eb1b2d753c01809fa,2024-01-23_08h01.36.655,bars,2023.2.3,Win32,59.17159763,657b66ea316d21385b68909f,,,,,,,,,,,1764.508,1765.5069,,,1765.9951,1766.2401,,143,143,,,,,,,,,,,,,,,,bars/017.png,bars/mask000.png,,,,,,,,,,,,0,1,,,,,,,0,0,0,0,,,,,,,,,,,1765.507,1765.9951,1766.2402,1769.8955,space,3.6333,,1769.8956,2,82,1770.8941,1770.8942,1770.9104,,,,0,35,35,35,1,145,45,,,,,,,,
,,60e5c4869429cc6413394d94,65af548eb1b2d753c01809fa,2024-01-23_08h01.36.655,bars,2023.2.3,Win32,59.17159763,657b66ea316d21385b68909f,,,,,,,,,,,1770.9106,1771.9064,,,1772.4065,1772.6566,,159,159,,,,,,,,,,,,,,,,bars/011.png,bars/mask006.png,,,,,,,,,,,,3,1,,,,,,,2,2,3,2,,,,,,,,,,,1771.9065,1772.4063,1772.6566,1778.3953,space,5.7174,,1778.3953,1,74,1779.3894,1779.3896,1779.4089,,,,0,36,36,36,1,160,85,,,,,,,,
,,60e5c4869429cc6413394d94,65af548eb1b2d753c01809fa,2024-01-23_08h01.36.655,bars,2023.2.3,Win32,59.17159763,657b66ea316d21385b68909f,,,,,,,,,,,1779.4091,1780.4062,,,1780.9062,1781.156,,151,151,,,,,,,,,,,,,,,,bars/018.png,bars/mask000.png,,,,,,,,,,,,3,1,,,,,,,4,0,3,0,,,,,,,,,,,1780.4063,1780.906,1781.1561,1786.0729,space,4.8905,,1786.0731,1,61,1787.0725,1787.0726,1787.0902,,,,0,37,37,37,1,150,90,,,,,,,,
,,60e5c4869429cc6413394d94,65af548eb1b2d753c01809fa,2024-01-23_08h01.36.655,bars,2023.2.3,Win32,59.17159763,657b66ea316d21385b68909f,,,,,,,,,,,1787.0905,1788.0888,,,1788.589,1788.8388,,159,159,,,,,,,,,,,,,,,,bars/015.png,bars/mask008.png,,,,,,,,,,,,3,2,,,,,,,2,2,2,3,,,,,,,,,,,1788.0889,1788.5888,1788.8389,1790.7727,space,1.9014,,1790.7728,49,1,1791.7719,1791.7721,1791.7752,,,,0,38,38,38,1,110,160,,,,,,,,
,,60e5c4869429cc6413394d94,65af548eb1b2d753c01809fa,2024-01-23_08h01.36.655,bars,2023.2.3,Win32,59.17159763,657b66ea316d21385b68909f,,,,,,,,,,,1791.7755,1792.7719,,,1793.2723,1793.522,,90,90,,,,,,,,,,,,,,,,bars/025.png,bars/mask001.png,,,,,,,,,,,,3,1,,,,,,,4,4,5,5,,,,,,,,,,,1792.772,1793.272,1793.5222,1795.5437,space,1.9998,,1795.5437,15,50,1796.5385,1796.5387,1796.5561,,,,0,39,39,39,1,105,40,,,,,,,,
,,60e5c4869429cc6413394d94,65af548eb1b2d753c01809fa,2024-01-23_08h01.36.655,bars,2023.2.3,Win32,59.17159763,657b66ea316d21385b68909f,,,,,,,,,,,1796.5564,1797.5552,,,1798.055,1798.3048,,48,48,,,,,,,,,,,,,,,,bars/028.png,bars/mask000.png,,,,,,,,,,,,5,1,,,,,,,6,2,6,1,,,,,,,,,,,1797.5553,1798.0549,1798.3049,1800.3554,space,2.0238,,1800.3557,3,72,1801.3548,1801.3548,1801.3705,,,,0,40,40,40,1,45,120,,,,,,,,
,,60e5c4869429cc6413394d94,65af548eb1b2d753c01809fa,2024-01-23_08h01.36.655,bars,2023.2.3,Win32,59.17159763,657b66ea316d21385b68909f,,,,,,,,,,,1801.3707,1802.3716,,,1802.8722,1803.1214,,13,13,,,,,,,,,,,,,,,,bars/040.png,bars/mask008.png,,,,,,,,,,,,3,2,,,,,,,4,4,3,4,,,,,,,,,,,1802.3717,1802.872,1803.1214,1804.8103,space,1.6672,,1804.8104,53,8,1805.8088,1805.8088,1805.8112,,,,0,41,41,41,1,140,5,,,,,,,,
,,60e5c4869429cc6413394d94,65af548eb1b2d753c01809fa,2024-01-23_08h01.36.655,bars,2023.2.3,Win32,59.17159763,657b66ea316d21385b68909f,,,,,,,,,,,1805.8115,1806.804,,,1807.3051,1807.5427,,134,134,,,,,,,,,,,,,,,,bars/047.png,bars/mask009.png,,,,,,,,,,,,0,1,,,,,,,6,2,5,1,,,,,,,,,,,1806.8041,1807.3049,1807.5428,1810.5922,space,3.0332,,1810.5922,61,64,1811.5873,1811.5874,1811.6072,,,,0,42,42,42,1,15,70,,,,,,,,
,,60e5c4869429cc6413394d94,65af548eb1b2d753c01809fa,2024-01-23_08h01.36.655,bars,2023.2.3,Win32,59.17159763,657b66ea316d21385b68909f,,,,,,,,,,,1811.6074,1812.6042,,,1813.1046,1813.3542,,35,35,,,,,,,,,,,,,,,,bars/035.png,bars/mask004.png,,,,,,,,,,,,0,2,,,,,,,8,0,8,0,,,,,,,,,,,1812.6043,1813.1045,1813.3543,1818.1414,space,4.7658,,1818.1414,40,25,1819.1373,1819.1375,1819.1565,,,,0,43,43,43,1,175,60,,,,,,,,
,,60e5c4869429cc6413394d94,65af548eb1b2d753c01809fa,2024-01-23_08h01.36.655,bars,2023.2.3,Win32,59.17159763,657b66ea316d21385b68909f,,,,,,,,,,,1819.1566,1820.1565,,,1820.6536,1820.9039,,148,148,,,,,,,,,,,,,,,,bars/011.png,bars/mask005.png,,,,,,,,,,,,4,1,,,,,,,6,2,7,0,,,,,,,,,,,1820.1565,1820.6535,1820.904,1823.2427,space,2.3174,,1823.2428,12,63,1824.2367,1824.2369,1824.2406,,,,0,44,44,44,1,160,85,,,,,,,,
,,60e5c4869429cc6413394d94,65af548eb1b2d753c01809fa,2024-01-23_08h01.36.655,bars,2023.2.3,Win32,59.17159763,657b66ea316d21385b68909f,,,,,,,,,,,1824.2409,1825.237,,,1825.7399,1825.9866,,8,188,,,,,,,,,,,,,,,,bars/007.png,bars/mask004.png,,,,,,,,,,,,3,1,,,,,,,4,4,5,5,,,,,,,,,,,1825.2372,1825.7399,1825.9867,1828.0367,space,2.0214,,1828.0368,13,47,1829.0364,1829.0365,1829.0556,,,,0,45,45,45,1,175,55,,,,,,,,
,,60e5c4869429cc6413394d94,65af548eb1b2d753c01809fa,2024-01-23_08h01.36.655,bars,2023.2.3,Win32,59.17159763,657b66ea316d21385b68909f,,,,,,,,,,,1829.0558,1830.0533,,,1830.5537,1830.8033,,148,-32,,,,,,,,,,,,,,,,bars/014.png,bars/mask004.png,,,,,,,,,,,,0,2,,,,,,,6,6,7,4,,,,,,,,,,,1830.0533,1830.5537,1830.8033,1836.4043,space,5.5685,,1836.4045,68,32,1837.4032,1837.4033,1837.423,,,,0,46,46,46,1,80,0,,,,,,,,
,,60e5c4869429cc6413394d94,65af548eb1b2d753c01809fa,2024-01-23_08h01.36.655,bars,2023.2.3,Win32,59.17159763,657b66ea316d21385b68909f,,,,,,,,,,,1837.4233,1838.4224,,,1838.9194,1839.1695,,39,219,,,,,,,,,,,,,,,,bars/028.png,bars/mask006.png,,,,,,,,,,,,2,1,,,,,,,4,8,3,6,,,,,,,,,,,1838.4224,1838.9192,1839.1697,1842.6358,space,3.4394,,1842.6359,6,81,1843.6358,1843.6361,1843.6508,,,,0,47,47,47,1,45,120,,,,,,,,
,,60e5c4869429cc6413394d94,65af548eb1b2d753c01809fa,2024-01-23_08h01.36.655,bars,2023.2.3,Win32,59.17159763,657b66ea316d21385b68909f,,,,,,,,,,,1843.6509,1844.6526,,,1845.1531,1845.4028,,151,151,,,,,,,,,,,,,,,,bars/046.png,bars/mask007.png,,,,,,,,,,,,6,1,,,,,,,6,10,7,10,,,,,,,,,,,1844.6528,1845.1529,1845.4029,1847.7023,space,2.2773,,1847.7024,4,66,1848.7025,1848.7027,1848.7215,,,,0,48,48,48,1,155,85,,,,,,,,
,,60e5c4869429cc6413394d94,65af548eb1b2d753c01809fa,2024-01-23_08h01.36.655,bars,2023.2.3,Win32,59.17159763,657b66ea316d21385b68909f,,,,,,,,,,,1848.7217,1849.7189,,,1850.2242,1850.4689,,148,148,,,,,,,,,,,,,,,,bars/007.png,bars/mask001.png,,,,,,,,,,,,1,1,,,,,,,8,10,8,10,,,,,,,,,,,1849.719,1850.2241,1850.469,1852.5365,space,2.0405,,1852.5367,27,87,1853.5344,1853.5345,1853.5429,,,,0,49,49,49,1,175,55,,,,,,,,
,,60e5c4869429cc6413394d94,65af548eb1b2d753c01809fa,2024-01-23_08h01.36.655,bars,2023.2.3,Win32,59.17159763,657b66ea316d21385b68909f,,,,,,,,,,,,,,,,,,,,,,,,,,,,,,,,,,,,,,,,,,,,,,,,,,,,,,,,,,,,,,,,,,,,,,,,,,,,,,,,,,,,,,,,,,,,,1853.543,1913.5327,0,2,2,3,1,sequence_tables/blk011.csv
,,60e5c4869429cc6413394d94,65af548eb1b2d753c01809fa,2024-01-23_08h01.36.655,bars,2023.2.3,Win32,59.17159763,657b66ea316d21385b68909f,,,,,,,,,,,1914.8727,1915.8653,,,1916.3651,1916.6152,,161,161,,,,,,,,,,,,,,,,bars/015.png,bars/mask001.png,,,,,,,,,,,,6,2,,,,,,,7,5,7,6,,,,,,1913.5484,1914.8654,space,1.301,,1915.8655,1916.365,1916.6153,1923.5531,space,6.9163,,1923.5531,51,1,1924.5482,1924.5483,1924.5659,,,,0,0,0,0,1,110,160,,,,,,,,
,,60e5c4869429cc6413394d94,65af548eb1b2d753c01809fa,2024-01-23_08h01.36.655,bars,2023.2.3,Win32,59.17159763,657b66ea316d21385b68909f,,,,,,,,,,,1924.5661,1925.5647,,,1926.065,1926.3142,,158,158,,,,,,,,,,,,,,,,bars/000.png,bars/mask009.png,,,,,,,,,,,,1,2,,,,,,,9,3,10,2,,,,,,,,,,,1925.5647,1926.0648,1926.3143,1930.3149,space,3.9722,,1930.315,62,13,1931.3147,1931.3149,1931.3307,,,,0,1,1,1,1,40,145,,,,,,,,
,,60e5c4869429cc6413394d94,65af548eb1b2d753c01809fa,2024-01-23_08h01.36.655,bars,2023.2.3,Win32,59.17159763,657b66ea316d21385b68909f,,,,,,,,,,,1931.3311,1932.3316,,,1932.8311,1933.0815,,24,24,,,,,,,,,,,,,,,,bars/043.png,bars/mask003.png,,,,,,,,,,,,5,1,,,,,,,7,1,6,2,,,,,,,,,,,1932.3318,1932.8309,1933.0818,1936.0366,space,2.9339,,1936.0367,6,74,1937.0311,1937.0314,1937.0475,,,,0,2,2,2,1,30,130,,,,,,,,
,,60e5c4869429cc6413394d94,65af548eb1b2d753c01809fa,2024-01-23_08h01.36.655,bars,2023.2.3,Win32,59.17159763,657b66ea316d21385b68909f,,,,,,,,,,,1937.048,1938.0472,,,1938.5476,1938.7975,,152,152,,,,,,,,,,,,,,,,bars/042.png,bars/mask001.png,,,,,,,,,,,,4,1,,,,,,,5,3,5,2,,,,,,,,,,,1938.0473,1938.5475,1938.7976,1946.0695,space,7.2506,,1946.0696,7,77,1947.0636,1947.0638,1947.0796,,,,0,3,3,3,1,145,75,,,,,,,,
,,60e5c4869429cc6413394d94,65af548eb1b2d753c01809fa,2024-01-23_08h01.36.655,bars,2023.2.3,Win32,59.17159763,657b66ea316d21385b68909f,,,,,,,,,,,1947.08,1948.0803,,,1948.5684,1948.8135,,144,144,,,,,,,,,,,,,,,,bars/042.png,bars/mask002.png,,,,,,,,,,,,6,1,,,,,,,7,1,6,2,,,,,,,,,,,1948.0805,1948.5684,1948.8136,1955.4966,space,6.6513,,1955.4967,1,69,1956.485,1956.485,1956.5011,,,,0,4,4,4,1,145,75,,,,,,,,
,,60e5c4869429cc6413394d94,65af548eb1b2d753c01809fa,2024-01-23_08h01.36.655,bars,2023.2.3,Win32,59.17159763,657b66ea316d21385b68909f,,,,,,,,,,,1956.5014,1957.4964,,,1957.9968,1958.2466,,100,100,,,,,,,,,,,,,,,,bars/029.png,bars/mask004.png,,,,,,,,,,,,3,1,,,,,,,5,0,5,0,,,,,,,,,,,1957.4965,1957.9967,1958.2466,1963.7348,space,5.4667,,1963.7349,10,55,1964.7293,1964.7294,1964.7435,,,,0,5,5,5,1,90,45,,,,,,,,
,,60e5c4869429cc6413394d94,65af548eb1b2d753c01809fa,2024-01-23_08h01.36.655,bars,2023.2.3,Win32,59.17159763,657b66ea316d21385b68909f,,,,,,,,,,,1964.7436,1965.7465,,,1966.2461,1966.5011,,37,37,,,,,,,,,,,,,,,,bars/045.png,bars/mask004.png,,,,,,,,,,,,0,2,,,,,,,7,2,8,3,,,,,,,,,,,1965.7466,1966.2461,1966.5011,1969.2682,space,2.7505,,1969.2682,63,27,1970.2625,1970.2627,1970.2779,,,,0,6,6,6,1,100,10,,,,,,,,
,,60e5c4869429cc6413394d94,65af548eb1b2d753c01809fa,2024-01-23_08h01.36.655,bars,2023.2.3,Win32,59.17159763,657b66ea316d21385b68909f,,,,,,,,,,,1970.2781,1971.2818,,,1971.7798,1972.029,,27,27,,,,,,,,,,,,,,,,bars/044.png,bars/mask000.png,,,,,,,,,,,,0,1,,,,,,,9,0,10,1,,,,,,,,,,,1971.2819,1971.7795,1972.0292,1976.0657,space,4.0147,,1976.0657,48,52,1977.0622,1977.0624,1977.0777,,,,0,7,7,7,1,75,155,,,,,,,,
,,60e5c4869429cc6413394d94,65af548eb1b2d753c01809fa,2024-01-23_08h01.36.655,bars,2023.2.3,Win32,59.17159763,657b66ea316d21385b68909f,,,,,,,,,,,1977.0778,1978.0786,,,1978.5789,1978.8287,,49,49,,,,,,,,,,,,,,,,bars/012.png,bars/mask009.png,,,,,,,,,,,,0,2,,,,,,,7,0,6,0,,,,,,,,,,,1978.0787,1978.5787,1978.8288,1984.1449,space,5.2935,,1984.1451,41,34,1985.1449,1985.1451,1985.1634,,,,0,8,8,8,1,90,15,,,,,,,,
,,60e5c4869429cc6413394d94,65af548eb1b2d753c01809fa,2024-01-23_08h01.36.655,bars,2023.2.3,Win32,59.17159763,657b66ea316d21385b68909f,,,,,,,,,,,1985.1635,1986.1613,,,1986.6616,1986.9117,,119,119,,,,,,,,,,,,,,,,bars/029.png,bars/mask004.png,,,,,,,,,,,,0,1,,,,,,,5,2,4,1,,,,,,,,,,,1986.1614,1986.6615,1986.9119,1989.2335,space,2.3005,,1989.2336,29,74,1990.2278,1990.2279,1990.2445,,,,0,9,9,9,1,90,45,,,,,,,,
,,60e5c4869429cc6413394d94,65af548eb1b2d753c01809fa,2024-01-23_08h01.36.655,bars,2023.2.3,Win32,59.17159763,657b66ea316d21385b68909f,,,,,,,,,,,1990.245,1991.2445,,,1991.7449,1991.9975,,115,115,,,,,,,,,,,,,,,,bars/037.png,bars/mask001.png,,,,,,,,,,,,0,2,,,,,,,3,0,4,0,,,,,,,,,,,1991.2446,1991.7447,1991.9975,2017.2435,space,25.2181,,2017.2437,35,10,2018.2437,2018.2439,2018.2601,,,,0,10,10,10,1,150,105,,,,,,,,
,,60e5c4869429cc6413394d94,65af548eb1b2d753c01809fa,2024-01-23_08h01.36.655,bars,2023.2.3,Win32,59.17159763,657b66ea316d21385b68909f,,,,,,,,,,,2018.2608,2019.2628,,,2019.7598,2020.0102,,36,36,,,,,,,,,,,,,,,,bars/041.png,bars/mask003.png,,,,,,,,,,,,0,1,,,,,,,1,0,1,0,,,,,,,,,,,2019.2629,2019.7596,2020.0105,2023.1655,space,3.1341,,2023.1655,16,49,2024.1597,2024.1598,2024.1775,,,,0,11,11,11,1,20,85,,,,,,,,
,,60e5c4869429cc6413394d94,65af548eb1b2d753c01809fa,2024-01-23_08h01.36.655,bars,2023.2.3,Win32,59.17159763,657b66ea316d21385b68909f,,,,,,,,,,,2024.1777,2025.1791,,,2025.6768,2025.9291,,49,229,,,,,,,,,,,,,,,,bars/027.png,bars/mask001.png,,,,,,,,,,,,0,2,,,,,,,3,0,3,0,,,,,,,,,,,2025.1791,2025.6766,2025.9291,2030.7261,space,4.7732,,2030.7262,61,1,2031.7261,2031.7262,2031.7437,,,,0,12,12,12,1,110,50,,,,,,,,
,,60e5c4869429cc6413394d94,65af548eb1b2d753c01809fa,2024-01-23_08h01.36.655,bars,2023.2.3,Win32,59.17159763,657b66ea316d21385b68909f,,,,,,,,,,,2031.7438,2032.7421,,,2033.2427,2033.4952,,140,140,,,,,,,,,,,,,,,,bars/008.png,bars/mask007.png,,,,,,,,,,,,0,1,,,,,,,5,0,4,0,,,,,,,,,,,2032.7423,2033.2425,2033.4952,2035.5296,space,2.0155,,2035.5297,30,40,2036.5261,2036.5263,2036.5441,,,,0,13,13,13,1,110,0,,,,,,,,
,,60e5c4869429cc6413394d94,65af548eb1b2d753c01809fa,2024-01-23_08h01.36.655,bars,2023.2.3,Win32,59.17159763,657b66ea316d21385b68909f,,,,,,,,,,,2036.5441,2037.5453,,,2038.0466,2038.2924,,167,167,,,,,,,,,,,,,,,,bars/003.png,bars/mask001.png,,,,,,,,,,,,0,2,,,,,,,3,0,3,2,,,,,,,,,,,2037.5454,2038.0466,2038.2925,2041.0588,space,2.743,,2041.059,38,27,2042.0636,2042.0637,2042.0798,,,,0,14,14,14,1,25,140,,,,,,,,
,,60e5c4869429cc6413394d94,65af548eb1b2d753c01809fa,2024-01-23_08h01.36.655,bars,2023.2.3,Win32,59.17159763,657b66ea316d21385b68909f,,,,,,,,,,,2042.0799,2043.0804,,,2043.5758,2043.8256,,164,164,,,,,,,,,,,,,,,,bars/007.png,bars/mask004.png,,,,,,,,,,,,3,1,,,,,,,5,2,4,3,,,,,,,,,,,2043.0805,2043.5757,2043.8258,2049.1143,space,5.2673,,2049.1143,11,71,2050.1112,2050.1112,2050.1279,,,,0,15,15,15,1,175,55,,,,,,,,
,,60e5c4869429cc6413394d94,65af548eb1b2d753c01809fa,2024-01-23_08h01.36.655,bars,2023.2.3,Win32,59.17159763,657b66ea316d21385b68909f,,,,,,,,,,,2050.128,2051.1243,,,2051.6245,2051.8746,,154,154,,,,,,,,,,,,,,,,bars/049.png,bars/mask008.png,,,,,,,,,,,,6,1,,,,,,,7,4,8,3,,,,,,,,,,,2051.1245,2051.6244,2051.8748,2054.6639,space,2.7677,,2054.6639,6,39,2055.6578,2055.6579,2055.6735,,,,0,16,16,16,1,160,115,,,,,,,,
,,60e5c4869429cc6413394d94,65af548eb1b2d753c01809fa,2024-01-23_08h01.36.655,bars,2023.2.3,Win32,59.17159763,657b66ea316d21385b68909f,,,,,,,,,,,2055.6742,2056.6748,,,2057.1627,2057.4074,,155,155,,,,,,,,,,,,,,,,bars/021.png,bars/mask002.png,,,,,,,,,,,,9,1,,,,,,,9,2,9,3,,,,,,,,,,,2056.6749,2057.1627,2057.4075,2062.691,space,5.2599,,2062.6912,0,85,2063.6907,2063.6908,2063.7098,,,,0,17,17,17,1,155,70,,,,,,,,
,,60e5c4869429cc6413394d94,65af548eb1b2d753c01809fa,2024-01-23_08h01.36.655,bars,2023.2.3,Win32,59.17159763,657b66ea316d21385b68909f,,,,,,,,,,,2063.71,2064.7074,,,2065.2099,2065.4569,,160,160,,,,,,,,,,,,,,,,bars/021.png,bars/mask009.png,,,,,,,,,,,,8,1,,,,,,,10,0,10,1,,,,,,,,,,,2064.7076,2065.2099,2065.4571,2070.4575,space,4.9843,,2070.4576,5,90,2071.4569,2071.457,2071.4719,,,,0,18,18,18,1,155,70,,,,,,,,
,,60e5c4869429cc6413394d94,65af548eb1b2d753c01809fa,2024-01-23_08h01.36.655,bars,2023.2.3,Win32,59.17159763,657b66ea316d21385b68909f,,,,,,,,,,,2071.4721,2072.4775,,,2072.9738,2073.2238,,93,93,,,,,,,,,,,,,,,,bars/023.png,bars/mask006.png,,,,,,,,,,,,0,2,,,,,,,10,0,7,0,,,,,,,,,,,2072.4775,2072.9737,2073.2239,2077.7735,space,4.5181,,2077.7736,73,22,2078.7735,2078.7737,2078.7923,,,,0,19,19,19,1,20,115,,,,,,,,
,,60e5c4869429cc6413394d94,65af548eb1b2d753c01809fa,2024-01-23_08h01.36.655,bars,2023.2.3,Win32,59.17159763,657b66ea316d21385b68909f,,,,,,,,,,,2078.7925,2079.79,,,2080.2941,2080.5428,,55,55,,,,,,,,,,,,,,,,bars/030.png,bars/mask000.png,,,,,,,,,,,,2,2,,,,,,,8,2,7,3,,,,,,,,,,,2079.7902,2080.2941,2080.5429,2083.579,space,3.0178,,2083.579,85,10,2084.5729,2084.573,2084.5921,,,,0,20,20,20,1,140,65,,,,,,,,
,,60e5c4869429cc6413394d94,65af548eb1b2d753c01809fa,2024-01-23_08h01.36.655,bars,2023.2.3,Win32,59.17159763,657b66ea316d21385b68909f,,,,,,,,,,,2084.5923,2085.5898,,,2086.09,2086.3397,,49,49,,,,,,,,,,,,,,,,bars/026.png,bars/mask004.png,,,,,,,,,,,,5,1,,,,,,,10,4,10,4,,,,,,,,,,,2085.59,2086.0898,2086.3398,2089.0396,space,2.6726,,2089.0399,14,36,2090.0394,2090.0396,2090.0581,,,,0,21,21,21,1,35,85,,,,,,,,
,,60e5c4869429cc6413394d94,65af548eb1b2d753c01809fa,2024-01-23_08h01.36.655,bars,2023.2.3,Win32,59.17159763,657b66ea316d21385b68909f,,,,,,,,,,,2090.0582,2091.0559,,,2091.5561,2091.8059,,137,137,,,,,,,,,,,,,,,,bars/012.png,bars/mask009.png,,,,,,,,,,,,0,1,,,,,,,8,2,7,2,,,,,,,,,,,2091.056,2091.556,2091.8061,2095.4932,space,3.6656,,2095.4933,47,58,2096.4892,2096.4894,2096.5081,,,,0,22,22,22,1,90,15,,,,,,,,
,,60e5c4869429cc6413394d94,65af548eb1b2d753c01809fa,2024-01-23_08h01.36.655,bars,2023.2.3,Win32,59.17159763,657b66ea316d21385b68909f,,,,,,,,,,,2096.5084,2097.5062,,,2098.0056,2098.2595,,144,144,,,,,,,,,,,,,,,,bars/011.png,bars/mask008.png,,,,,,,,,,,,4,1,,,,,,,10,0,9,0,,,,,,,,,,,2097.5064,2098.0055,2098.2595,2105.372,space,7.0884,,2105.3721,16,59,2106.3721,2106.3723,2106.3908,,,,0,23,23,23,1,160,85,,,,,,,,
,,60e5c4869429cc6413394d94,65af548eb1b2d753c01809fa,2024-01-23_08h01.36.655,bars,2023.2.3,Win32,59.17159763,657b66ea316d21385b68909f,,,,,,,,,,,2106.3909,2107.3888,,,2107.8877,2108.1377,,167,167,,,,,,,,,,,,,,,,bars/010.png,bars/mask002.png,,,,,,,,,,,,9,1,,,,,,,10,0,10,0,,,,,,,,,,,2107.3889,2107.8876,2108.1378,2110.8214,space,2.6615,,2110.8217,2,68,2111.8215,2111.8216,2111.837,,,,0,24,24,24,1,165,55,,,,,,,,
,,60e5c4869429cc6413394d94,65af548eb1b2d753c01809fa,2024-01-23_08h01.36.655,bars,2023.2.3,Win32,59.17159763,657b66ea316d21385b68909f,,,,,,,,,,,2111.8373,2112.8384,,,2113.3383,2113.5885,,127,127,,,,,,,,,,,,,,,,bars/008.png,bars/mask006.png,,,,,,,,,,,,3,1,,,,,,,8,0,8,2,,,,,,,,,,,2112.8384,2113.3381,2113.5885,2119.2711,space,5.6596,,2119.2712,17,53,2120.2711,2120.2712,2120.2858,,,,0,25,25,25,1,110,0,,,,,,,,
,,60e5c4869429cc6413394d94,65af548eb1b2d753c01809fa,2024-01-23_08h01.36.655,bars,2023.2.3,Win32,59.17159763,657b66ea316d21385b68909f,,,,,,,,,,,2120.2859,2121.2878,,,2121.7878,2122.0404,,10,10,,,,,,,,,,,,,,,,bars/006.png,bars/mask008.png,,,,,,,,,,,,2,1,,,,,,,10,0,10,2,,,,,,,,,,,2121.288,2121.7877,2122.0404,2134.5254,space,12.4662,,2134.5254,25,90,2135.5214,2135.5215,2135.5354,,,,0,26,26,26,1,35,100,,,,,,,,
,,60e5c4869429cc6413394d94,65af548eb1b2d753c01809fa,2024-01-23_08h01.36.655,bars,2023.2.3,Win32,59.17159763,657b66ea316d21385b68909f,,,,,,,,,,,2135.5357,2136.537,,,2137.0374,2137.2869,,164,164,,,,,,,,,,,,,,,,bars/003.png,bars/mask000.png,,,,,,,,,,,,0,2,,,,,,,8,2,6,2,,,,,,,,,,,2136.5372,2137.0373,2137.2871,2142.059,space,4.7503,,2142.059,41,24,2143.0532,2143.0533,2143.0735,,,,0,27,27,27,1,25,140,,,,,,,,
,,60e5c4869429cc6413394d94,65af548eb1b2d753c01809fa,2024-01-23_08h01.36.655,bars,2023.2.3,Win32,59.17159763,657b66ea316d21385b68909f,,,,,,,,,,,2143.0737,2144.0701,,,2144.5696,2144.8201,,44,44,,,,,,,,,,,,,,,,bars/001.png,bars/mask003.png,,,,,,,,,,,,0,2,,,,,,,6,4,6,4,,,,,,,,,,,2144.0703,2144.5695,2144.8203,2149.453,space,4.6036,,2149.4532,86,41,2150.4529,2150.4531,2150.4678,,,,0,28,28,28,1,130,85,,,,,,,,
,,60e5c4869429cc6413394d94,65af548eb1b2d753c01809fa,2024-01-23_08h01.36.655,bars,2023.2.3,Win32,59.17159763,657b66ea316d21385b68909f,,,,,,,,,,,2150.468,2151.4695,,,2151.9696,2152.2221,,123,123,,,,,,,,,,,,,,,,bars/025.png,bars/mask007.png,,,,,,,,,,,,2,1,,,,,,,4,6,5,7,,,,,,,,,,,2151.4697,2151.9695,2152.2222,2154.5362,space,2.2893,,2154.5363,18,83,2155.536,2155.5361,2155.5391,,,,0,29,29,29,1,105,40,,,,,,,,
,,60e5c4869429cc6413394d94,65af548eb1b2d753c01809fa,2024-01-23_08h01.36.655,bars,2023.2.3,Win32,59.17159763,657b66ea316d21385b68909f,,,,,,,,,,,2155.5394,2156.5358,,,2157.036,2157.2859,,132,132,,,,,,,,,,,,,,,,bars/028.png,bars/mask002.png,,,,,,,,,,,,5,2,,,,,,,6,8,7,8,,,,,,,,,,,2156.5359,2157.0359,2157.2864,2160.7581,space,3.4505,,2160.7582,87,12,2161.7519,2161.7521,2161.77,,,,0,30,30,30,1,45,120,,,,,,,,
,,60e5c4869429cc6413394d94,65af548eb1b2d753c01809fa,2024-01-23_08h01.36.655,bars,2023.2.3,Win32,59.17159763,657b66ea316d21385b68909f,,,,,,,,,,,2161.7702,2162.7688,,,2163.2689,2163.5193,,31,31,,,,,,,,,,,,,,,,bars/019.png,bars/mask009.png,,,,,,,,,,,,4,1,,,,,,,8,6,7,6,,,,,,,,,,,2162.7689,2163.2688,2163.5195,2167.0052,space,3.4659,,2167.0053,14,74,2168.0023,2168.0026,2168.0194,,,,0,31,31,31,1,45,105,,,,,,,,
,,60e5c4869429cc6413394d94,65af548eb1b2d753c01809fa,2024-01-23_08h01.36.655,bars,2023.2.3,Win32,59.17159763,657b66ea316d21385b68909f,,,,,,,,,,,2168.0198,2169.0194,,,2169.5186,2169.7682,,24,24,,,,,,,,,,,,,,,,bars/014.png,bars/mask005.png,,,,,,,,,,,,1,2,,,,,,,6,4,7,3,,,,,,,,,,,2169.0195,2169.5185,2169.7683,2175.9011,space,6.1036,,2175.9013,56,24,2176.901,2176.901,2176.9186,,,,0,32,32,32,1,80,0,,,,,,,,
,,60e5c4869429cc6413394d94,65af548eb1b2d753c01809fa,2024-01-23_08h01.36.655,bars,2023.2.3,Win32,59.17159763,657b66ea316d21385b68909f,,,,,,,,,,,2176.9191,2177.9217,,,2178.4183,2178.6678,,19,19,,,,,,,,,,,,,,,,bars/029.png,bars/mask005.png,,,,,,,,,,,,1,2,,,,,,,8,6,8,4,,,,,,,,,,,2177.9218,2178.4183,2178.668,2186.6174,space,7.9184,,2186.6175,71,26,2187.6171,2187.6172,2187.6362,,,,0,33,33,33,1,90,45,,,,,,,,
,,60e5c4869429cc6413394d94,65af548eb1b2d753c01809fa,2024-01-23_08h01.36.655,bars,2023.2.3,Win32,59.17159763,657b66ea316d21385b68909f,,,,,,,,,,,2187.6365,2188.634,,,2189.135,2189.384,,146,146,,,,,,,,,,,,,,,,bars/040.png,bars/mask003.png,,,,,,,,,,,,8,1,,,,,,,10,8,10,7,,,,,,,,,,,2188.6341,2189.1348,2189.384,2195.7374,space,6.3477,,2195.7374,6,39,2196.7337,2196.7339,2196.753,,,,0,34,34,34,1,140,5,,,,,,,,
,,60e5c4869429cc6413394d94,65af548eb1b2d753c01809fa,2024-01-23_08h01.36.655,bars,2023.2.3,Win32,59.17159763,657b66ea316d21385b68909f,,,,,,,,,,,2196.7531,2197.7504,,,2198.251,2198.5007,,124,124,,,,,,,,,,,,,,,,bars/042.png,bars/mask003.png,,,,,,,,,,,,2,1,,,,,,,8,10,6,10,,,,,,,,,,,2197.7505,2198.2507,2198.501,2202.2165,space,3.6864,,2202.2168,21,49,2203.217,2203.217,2203.2248,,,,0,35,35,35,1,145,75,,,,,,,,
,,60e5c4869429cc6413394d94,65af548eb1b2d753c01809fa,2024-01-23_08h01.36.655,bars,2023.2.3,Win32,59.17159763,657b66ea316d21385b68909f,,,,,,,,,,,2203.2249,2204.2164,,,2204.7167,2204.9671,,116,116,,,,,,,,,,,,,,,,bars/036.png,bars/mask009.png,,,,,,,,,,,,0,1,,,,,,,6,8,7,8,,,,,,,,,,,2204.2166,2204.7166,2204.9672,2208.753,space,3.7649,,2208.753,29,84,2209.7493,2209.7495,2209.7652,,,,0,36,36,36,1,145,20,,,,,,,,
,,60e5c4869429cc6413394d94,65af548eb1b2d753c01809fa,2024-01-23_08h01.36.655,bars,2023.2.3,Win32,59.17159763,657b66ea316d21385b68909f,,,,,,,,,,,2209.7654,2210.7715,,,2211.2663,2211.516,,44,44,,,,,,,,,,,,,,,,bars/044.png,bars/mask001.png,,,,,,,,,,,,0,1,,,,,,,4,6,4,6,,,,,,,,,,,2210.7715,2211.2662,2211.516,2216.9881,space,5.4507,,2216.9881,31,69,2217.9826,2217.9828,2218.0015,,,,0,37,37,37,1,75,155,,,,,,,,
,,60e5c4869429cc6413394d94,65af548eb1b2d753c01809fa,2024-01-23_08h01.36.655,bars,2023.2.3,Win32,59.17159763,657b66ea316d21385b68909f,,,,,,,,,,,2218.0018,2218.9989,,,2219.4988,2219.7492,,158,158,,,,,,,,,,,,,,,,bars/014.png,bars/mask002.png,,,,,,,,,,,,1,2,,,,,,,6,4,6,4,,,,,,,,,,,2218.999,2219.4987,2219.7493,2223.8318,space,4.0517,,2223.8321,78,22,2224.8328,2224.8329,2224.8516,,,,0,38,38,38,1,80,0,,,,,,,,
,,60e5c4869429cc6413394d94,65af548eb1b2d753c01809fa,2024-01-23_08h01.36.655,bars,2023.2.3,Win32,59.17159763,657b66ea316d21385b68909f,,,,,,,,,,,2224.8518,2225.8488,,,2226.3484,2226.5985,,57,57,,,,,,,,,,,,,,,,bars/048.png,bars/mask002.png,,,,,,,,,,,,5,1,,,,,,,8,6,7,6,,,,,,,,,,,2225.8489,2226.3482,2226.5987,2228.7821,space,2.1544,,2228.7821,7,62,2229.7812,2229.7814,2229.788,,,,0,39,39,39,1,50,175,,,,,,,,
,,60e5c4869429cc6413394d94,65af548eb1b2d753c01809fa,2024-01-23_08h01.36.655,bars,2023.2.3,Win32,59.17159763,657b66ea316d21385b68909f,,,,,,,,,,,2229.7881,2230.7819,,,2231.2818,2231.532,,139,139,,,,,,,,,,,,,,,,bars/040.png,bars/mask008.png,,,,,,,,,,,,9,1,,,,,,,10,4,9,3,,,,,,,,,,,2230.782,2231.2818,2231.5322,2237.4709,space,5.9175,,2237.4709,1,46,2238.4648,2238.4648,2238.4794,,,,0,40,40,40,1,140,5,,,,,,,,
,,60e5c4869429cc6413394d94,65af548eb1b2d753c01809fa,2024-01-23_08h01.36.655,bars,2023.2.3,Win32,59.17159763,657b66ea316d21385b68909f,,,,,,,,,,,2238.4796,2239.4815,,,2239.9814,2240.2314,,147,147,,,,,,,,,,,,,,,,bars/027.png,bars/mask006.png,,,,,,,,,,,,0,1,,,,,,,8,2,9,0,,,,,,,,,,,2239.4816,2239.9813,2240.2315,2243.953,space,3.7001,,2243.9532,37,83,2244.9475,2244.9476,2244.9622,,,,0,41,41,41,1,110,50,,,,,,,,
,,60e5c4869429cc6413394d94,65af548eb1b2d753c01809fa,2024-01-23_08h01.36.655,bars,2023.2.3,Win32,59.17159763,657b66ea316d21385b68909f,,,,,,,,,,,2244.9623,2245.9643,,,2246.4643,2246.7143,,118,118,,,,,,,,,,,,,,,,bars/025.png,bars/mask009.png,,,,,,,,,,,,6,1,,,,,,,10,0,10,0,,,,,,,,,,,2245.9644,2246.4642,2246.7145,2250.8976,space,4.1596,,2250.8977,13,78,2251.8973,2251.8975,2251.9126,,,,0,42,42,42,1,105,40,,,,,,,,
,,60e5c4869429cc6413394d94,65af548eb1b2d753c01809fa,2024-01-23_08h01.36.655,bars,2023.2.3,Win32,59.17159763,657b66ea316d21385b68909f,,,,,,,,,,,2251.9128,2252.9143,,,2253.4144,2253.664,,150,150,,,,,,,,,,,,,,,,bars/017.png,bars/mask006.png,,,,,,,,,,,,7,1,,,,,,,8,2,8,2,,,,,,,,,,,2252.9144,2253.4144,2253.6641,2256.8304,space,3.1415,,2256.8305,5,75,2257.8306,2257.8307,2257.8464,,,,0,43,43,43,1,145,45,,,,,,,,
,,60e5c4869429cc6413394d94,65af548eb1b2d753c01809fa,2024-01-23_08h01.36.655,bars,2023.2.3,Win32,59.17159763,657b66ea316d21385b68909f,,,,,,,,,,,2257.8469,2258.8482,,,2259.347,2259.5969,,125,125,,,,,,,,,,,,,,,,bars/029.png,bars/mask000.png,,,,,,,,,,,,0,1,,,,,,,10,0,10,1,,,,,,,,,,,2258.8483,2259.347,2259.5969,2264.8335,space,5.2151,,2264.8336,35,80,2265.8301,2265.8303,2265.8493,,,,0,44,44,44,1,90,45,,,,,,,,
,,60e5c4869429cc6413394d94,65af548eb1b2d753c01809fa,2024-01-23_08h01.36.655,bars,2023.2.3,Win32,59.17159763,657b66ea316d21385b68909f,,,,,,,,,,,2265.8494,2266.8464,,,2267.3466,2267.5968,,148,148,,,,,,,,,,,,,,,,bars/034.png,bars/mask000.png,,,,,,,,,,,,2,1,,,,,,,8,0,8,0,,,,,,,,,,,2266.8466,2267.3466,2267.5968,2273.6018,space,5.9837,,2273.6018,23,83,2274.5961,2274.5962,2274.6149,,,,0,45,45,45,1,125,65,,,,,,,,
,,60e5c4869429cc6413394d94,65af548eb1b2d753c01809fa,2024-01-23_08h01.36.655,bars,2023.2.3,Win32,59.17159763,657b66ea316d21385b68909f,,,,,,,,,,,2274.615,2275.6129,,,2276.113,2276.351,,178,178,,,,,,,,,,,,,,,,bars/012.png,bars/mask001.png,,,,,,,,,,,,1,2,,,,,,,10,2,10,3,,,,,,,,,,,2275.613,2276.1127,2276.351,2279.1132,space,2.7344,,2279.1135,88,17,2280.1177,2280.1177,2280.1356,,,,0,46,46,46,1,90,15,,,,,,,,
,,60e5c4869429cc6413394d94,65af548eb1b2d753c01809fa,2024-01-23_08h01.36.655,bars,2023.2.3,Win32,59.17159763,657b66ea316d21385b68909f,,,,,,,,,,,2280.1358,2281.129,,,2281.6293,2281.8796,,152,152,,,,,,,,,,,,,,,,bars/049.png,bars/mask006.png,,,,,,,,,,,,6,1,,,,,,,8,0,8,0,,,,,,,,,,,2281.1291,2281.6291,2281.8797,2283.8679,space,1.9673,,2283.8679,8,37,2284.8621,2284.8621,2284.8819,,,,0,47,47,47,1,160,115,,,,,,,,
,,60e5c4869429cc6413394d94,65af548eb1b2d753c01809fa,2024-01-23_08h01.36.655,bars,2023.2.3,Win32,59.17159763,657b66ea316d21385b68909f,,,,,,,,,,,2284.8822,2285.8789,,,2286.3793,2286.6293,,168,168,,,,,,,,,,,,,,,,bars/045.png,bars/mask001.png,,,,,,,,,,,,1,2,,,,,,,6,2,5,5,,,,,,,,,,,2285.879,2286.3792,2286.6293,2288.8787,space,2.2232,,2288.8789,68,22,2289.8786,2289.8788,2289.8984,,,,0,48,48,48,1,100,10,,,,,,,,
,,60e5c4869429cc6413394d94,65af548eb1b2d753c01809fa,2024-01-23_08h01.36.655,bars,2023.2.3,Win32,59.17159763,657b66ea316d21385b68909f,,,,,,,,,,,2289.8986,2290.8957,,,2291.3955,2291.6456,,31,31,,,,,,,,,,,,,,,,bars/047.png,bars/mask006.png,,,,,,,,,,,,4,1,,,,,,,8,4,8,4,,,,,,,,,,,2290.8958,2291.3953,2291.6457,2293.8009,space,2.1339,,2293.801,16,39,2294.7952,2294.7953,2294.8126,,,,0,49,49,49,1,15,70,,,,,,,,
,,60e5c4869429cc6413394d94,65af548eb1b2d753c01809fa,2024-01-23_08h01.36.655,bars,2023.2.3,Win32,59.17159763,657b66ea316d21385b68909f,,,,,,,,,,,,,,,,,,,,,,,,,,,,,,,,,,,,,,,,,,,,,,,,,,,,,,,,,,,,,,,,,,,,,,,,,,,,,,,,,,,,,,,,,,,,,2294.8129,2354.8087,0,3,3,0,1,sequence_tables/blk004.csv
,,60e5c4869429cc6413394d94,65af548eb1b2d753c01809fa,2024-01-23_08h01.36.655,bars,2023.2.3,Win32,59.17159763,657b66ea316d21385b68909f,,,,,,,,,,,2385.9486,2386.9403,,,2387.4404,2387.6899,,28,28,,,,,,,,,,,,,,,,bars/032.png,bars/mask004.png,,,,,,,,,,,,7,2,,,,,,,9,8,9,9,,,,,,2354.8281,2385.9236,space,31.0801,,2386.9405,2387.4403,2387.6902,2391.5738,space,3.8584,,2391.574,83,8,2392.5725,2392.5726,2392.5834,,,,0,0,0,0,1,125,20,,,,,,,,
,,60e5c4869429cc6413394d94,65af548eb1b2d753c01809fa,2024-01-23_08h01.36.655,bars,2023.2.3,Win32,59.17159763,657b66ea316d21385b68909f,,,,,,,,,,,2392.5836,2393.573,,,2394.0724,2394.323,,179,179,,,,,,,,,,,,,,,,bars/049.png,bars/mask000.png,,,,,,,,,,,,3,1,,,,,,,7,10,7,10,,,,,,,,,,,2393.5732,2394.0723,2394.3232,2397.574,space,3.2268,,2397.5741,19,64,2398.5722,2398.5724,2398.5792,,,,0,1,1,1,1,160,115,,,,,,,,
,,60e5c4869429cc6413394d94,65af548eb1b2d753c01809fa,2024-01-23_08h01.36.655,bars,2023.2.3,Win32,59.17159763,657b66ea316d21385b68909f,,,,,,,,,,,2398.5793,2399.5725,,,2400.0612,2400.3061,,17,17,,,,,,,,,,,,,,,,bars/020.png,bars/mask006.png,,,,,,,,,,,,1,2,,,,,,,9,10,9,10,,,,,,,,,,,2399.5728,2400.0612,2400.3063,2404.1738,space,3.8452,,2404.1739,82,27,2405.1723,2405.1723,2405.1888,,,,0,2,2,2,1,115,170,,,,,,,,
,,60e5c4869429cc6413394d94,65af548eb1b2d753c01809fa,2024-01-23_08h01.36.655,bars,2023.2.3,Win32,59.17159763,657b66ea316d21385b68909f,,,,,,,,,,,2405.1892,2406.1777,,,2406.6728,2406.9225,,35,215,,,,,,,,,,,,,,,,bars/009.png,bars/mask006.png,,,,,,,,,,,,3,1,,,,,,,7,8,8,6,,,,,,,,,,,2406.1778,2406.6726,2406.9225,2428.7885,space,21.8433,,2428.7889,20,70,2429.7878,2429.7879,2429.7974,,,,0,3,3,3,1,15,105,,,,,,,,
,,60e5c4869429cc6413394d94,65af548eb1b2d753c01809fa,2024-01-23_08h01.36.655,bars,2023.2.3,Win32,59.17159763,657b66ea316d21385b68909f,,,,,,,,,,,2429.7975,2430.7882,,,2431.293,2431.5376,,42,42,,,,,,,,,,,,,,,,bars/047.png,bars/mask003.png,,,,,,,,,,,,1,1,,,,,,,5,10,6,10,,,,,,,,,,,2430.7883,2431.293,2431.5376,2458.9593,space,27.3996,,2458.9594,27,28,2459.9528,2459.953,2459.9715,,,,0,4,4,4,1,15,70,,,,,,,,
,,60e5c4869429cc6413394d94,65af548eb1b2d753c01809fa,2024-01-23_08h01.36.655,bars,2023.2.3,Win32,59.17159763,657b66ea316d21385b68909f,,,,,,,,,,,2459.9717,2460.9699,,,2461.4701,2461.7197,,125,125,,,,,,,,,,,,,,,,bars/020.png,bars/mask006.png,,,,,,,,,,,,5,1,,,,,,,7,8,7,8,,,,,,,,,,,2460.97,2461.4699,2461.7198,2465.5249,space,3.7835,,2465.5249,10,45,2466.5191,2466.5194,2466.5342,,,,0,5,5,5,1,115,170,,,,,,,,
,,60e5c4869429cc6413394d94,65af548eb1b2d753c01809fa,2024-01-23_08h01.36.655,bars,2023.2.3,Win32,59.17159763,657b66ea316d21385b68909f,,,,,,,,,,,2466.5343,2467.536,,,2468.0361,2468.2859,,77,77,,,,,,,,,,,,,,,,bars/006.png,bars/mask007.png,,,,,,,,,,,,1,2,,,,,,,9,6,9,5,,,,,,,,,,,2467.5361,2468.0359,2468.286,2471.3731,space,3.0653,,2471.3732,42,23,2472.3692,2472.3694,2472.387,,,,0,6,6,6,1,35,100,,,,,,,,
,,60e5c4869429cc6413394d94,65af548eb1b2d753c01809fa,2024-01-23_08h01.36.655,bars,2023.2.3,Win32,59.17159763,657b66ea316d21385b68909f,,,,,,,,,,,2472.3871,2473.3849,,,2473.8858,2474.1385,,41,41,,,,,,,,,,,,,,,,bars/031.png,bars/mask007.png,,,,,,,,,,,,2,2,,,,,,,7,4,7,2,,,,,,,,,,,2473.3851,2473.8857,2474.1385,2476.2415,space,2.0842,,2476.2415,79,6,2477.2359,2477.2361,2477.253,,,,0,7,7,7,1,120,35,,,,,,,,
,,60e5c4869429cc6413394d94,65af548eb1b2d753c01809fa,2024-01-23_08h01.36.655,bars,2023.2.3,Win32,59.17159763,657b66ea316d21385b68909f,,,,,,,,,,,2477.2531,2478.2522,,,2478.7521,2479.0017,,158,158,,,,,,,,,,,,,,,,bars/047.png,bars/mask000.png,,,,,,,,,,,,0,1,,,,,,,5,2,6,3,,,,,,,,,,,2478.2523,2478.7519,2479.0019,2481.7908,space,2.7674,,2481.7909,37,88,2482.7892,2482.7893,2482.8049,,,,0,8,8,8,1,15,70,,,,,,,,
,,60e5c4869429cc6413394d94,65af548eb1b2d753c01809fa,2024-01-23_08h01.36.655,bars,2023.2.3,Win32,59.17159763,657b66ea316d21385b68909f,,,,,,,,,,,2482.8051,2483.8015,,,2484.3014,2484.5523,,177,-3,,,,,,,,,,,,,,,,bars/039.png,bars/mask002.png,,,,,,,,,,,,7,1,,,,,,,7,4,8,4,,,,,,,,,,,2483.8016,2484.3013,2484.5525,2487.2246,space,2.6509,,2487.2246,2,72,2488.2175,2488.2176,2488.233,,,,0,9,9,9,1,175,105,,,,,,,,
,,60e5c4869429cc6413394d94,65af548eb1b2d753c01809fa,2024-01-23_08h01.36.655,bars,2023.2.3,Win32,59.17159763,657b66ea316d21385b68909f,,,,,,,,,,,2488.2331,2489.2207,,,2489.7183,2489.9721,,144,144,,,,,,,,,,,,,,,,bars/046.png,bars/mask004.png,,,,,,,,,,,,6,1,,,,,,,9,2,10,2,,,,,,,,,,,2489.2208,2489.7182,2489.9721,2493.5024,space,3.5037,,2493.5025,11,59,2494.5008,2494.501,2494.5172,,,,0,10,10,10,1,155,85,,,,,,,,
