init_variables.started,init_variables.stopped,participant,session,date,expName,psychopyVersion,OS,frameRate,study_id,instruction_exp.started,instruction_exp.stopped,key_resp_8.keys,key_resp_8.rt,key_resp_8.duration,instruction_single.started,instruction_single.stopped,key_resp_2.keys,key_resp_2.rt,key_resp_2.duration,interval.started,interval.stopped,cue_single.started,cue_single.stopped,mask.started,mask.stopped,ori_response_single.started,res_ori,res,ori_response_single.stopped,key_resp_single.keys,key_resp_single.rt,key_resp_single.duration,disp_single.started,disp_single.stopped,key_resp.keys,key_resp.rt,key_resp.duration,single.thisRepN,single.thisTrialN,single.thisN,single.thisIndex,single.ran,ori,path,mask_path,instruction_bandit.started,instruction_bandit.stopped,key_resp_6.keys,key_resp_6.rt,key_resp_6.duration,cue_bandit.started,cue_bandit.stopped,bandit_res.keys,bandit_res.rt,bandit_res.duration,outcome_bandit.started,rew,action,outcome_bandit.stopped,bandit.thisRepN,bandit.thisTrialN,bandit.thisN,bandit.thisIndex,bandit.ran,actual_rew1,actual_rew2,rew1,rew2,instruction_task.started,instruction_task.stopped,key_resp_7.keys,key_resp_7.rt,key_resp_7.duration,wait_ready.started,wait_ready.stopped,key_resp_3.keys,key_resp_3.rt,key_resp_3.duration,cue.started,cue.stopped,ori_response.started,ori_response.stopped,key_resp_5.keys,key_resp_5.rt,key_resp_5.duration,outcome.started,diff1,diff2,outcome.stopped,disp_outcome_practice.started,disp_outcome_practice.stopped,key_resp_4.keys,key_resp_4.rt,key_resp_4.duration,trials.thisRepN,trials.thisTrialN,trials.thisN,trials.thisIndex,trials.ran,ori1,ori2,break_blk.started,break_blk.stopped,block.thisRepN,block.thisTrialN,block.thisN,block.thisIndex,block.ran,condition_file
0.0003,0.0004,64a1f97573d3517a71ca803f,65af56bf60bcc53ab4af7c3e,2024-01-23_19h07.21.537,bars,2023.2.3,MacIntel,60.24096386,657b66ea316d21385b68909f,,,,,,,,,,,,,,,,,,,,,,,,,,,,,,,,,,,,,,,,,,,,,,,,,,,,,,,,,,,,,,,,,,,,,,,,,,,,,,,,,,,,,,,,,,,,,,,,,,,,
,,64a1f97573d3517a71ca803f,65af56bf60bcc53ab4af7c3e,2024-01-23_19h07.21.537,bars,2023.2.3,MacIntel,60.24096386,657b66ea316d21385b68909f,0.0005,12.2442,y,12.1347,,,,,,,,,,,,,,,,,,,,,,,,,,,,,,,,,,,,,,,,,,,,,,,,,,,,,,,,,,,,,,,,,,,,,,,,,,,,,,,,,,,,,,,,,,,,,,,,
,,64a1f97573d3517a71ca803f,65af56bf60bcc53ab4af7c3e,2024-01-23_19h07.21.537,bars,2023.2.3,MacIntel,60.24096386,657b66ea316d21385b68909f,,,,,,12.2446,26.1093,space,13.8451,,,,,,,,,,,,,,,,,,,,,,,,,,,,,,,,,,,,,,,,,,,,,,,,,,,,,,,,,,,,,,,,,,,,,,,,,,,,,,,,,,,,,,,,,,,
,,64a1f97573d3517a71ca803f,65af56bf60bcc53ab4af7c3e,2024-01-23_19h07.21.537,bars,2023.2.3,MacIntel,60.24096386,657b66ea316d21385b68909f,,,,,,,,,,,26.1143,27.1112,27.1114,27.6103,27.6107,27.8609,27.8611,83,83,34.0806,space,6.1804,,34.0809,40.3256,space,6.2098,,0,0,0,5,1,55,bars/single005.png,bars/mask008.png,,,,,,,,,,,,,,,,,,,,,,,,,,,,,,,,,,,,,,,,,,,,,,,,,,,,,,,,,,,,,,,,
,,64a1f97573d3517a71ca803f,65af56bf60bcc53ab4af7c3e,2024-01-23_19h07.21.537,bars,2023.2.3,MacIntel,60.24096386,657b66ea316d21385b68909f,,,,,,,,,,,40.3359,41.326,41.3262,41.8262,41.8262,42.0792,42.0793,136,136,44.2633,space,2.1717,,44.2634,48.6254,space,4.3403,,0,1,1,2,1,145,bars/single002.png,bars/mask003.png,,,,,,,,,,,,,,,,,,,,,,,,,,,,,,,,,,,,,,,,,,,,,,,,,,,,,,,,,,,,,,,,
,,64a1f97573d3517a71ca803f,65af56bf60bcc53ab4af7c3e,2024-01-23_19h07.21.537,bars,2023.2.3,MacIntel,60.24096386,657b66ea316d21385b68909f,,,,,,,,,,,48.6352,49.6263,49.6264,50.1277,50.1277,50.3782,50.3786,174,-6,56.8619,space,6.465,,56.862,61.2432,space,4.3612,,0,2,2,1,1,20,bars/single001.png,bars/mask006.png,,,,,,,,,,,,,,,,,,,,,,,,,,,,,,,,,,,,,,,,,,,,,,,,,,,,,,,,,,,,,,,,
,,64a1f97573d3517a71ca803f,65af56bf60bcc53ab4af7c3e,2024-01-23_19h07.21.537,bars,2023.2.3,MacIntel,60.24096386,657b66ea316d21385b68909f,,,,,,,,,,,61.2527,62.2431,62.2431,62.7449,62.7449,62.9943,62.9944,95,95,66.6615,space,3.6499,,66.6616,68.3777,space,1.6981,,0,3,3,4,1,95,bars/single004.png,bars/mask004.png,,,,,,,,,,,,,,,,,,,,,,,,,,,,,,,,,,,,,,,,,,,,,,,,,,,,,,,,,,,,,,,,
,,64a1f97573d3517a71ca803f,65af56bf60bcc53ab4af7c3e,2024-01-23_19h07.21.537,bars,2023.2.3,MacIntel,60.24096386,657b66ea316d21385b68909f,,,,,,,,,,,68.3785,69.3778,69.3779,69.8774,69.8774,70.1274,70.1274,175,175,74.2435,space,4.1013,,74.2435,77.5269,space,3.2646,,0,4,4,9,1,20,bars/single009.png,bars/mask006.png,,,,,,,,,,,,,,,,,,,,,,,,,,,,,,,,,,,,,,,,,,,,,,,,,,,,,,,,,,,,,,,,
,,64a1f97573d3517a71ca803f,65af56bf60bcc53ab4af7c3e,2024-01-23_19h07.21.537,bars,2023.2.3,MacIntel,60.24096386,657b66ea316d21385b68909f,,,,,,,,,,,77.5375,78.5293,78.5293,79.0284,79.0285,79.2759,79.2759,2,182,86.2427,space,6.9494,,86.2428,87.4255,space,1.1659,,0,5,5,6,1,175,bars/single006.png,bars/mask005.png,,,,,,,,,,,,,,,,,,,,,,,,,,,,,,,,,,,,,,,,,,,,,,,,,,,,,,,,,,,,,,,,
,,64a1f97573d3517a71ca803f,65af56bf60bcc53ab4af7c3e,2024-01-23_19h07.21.537,bars,2023.2.3,MacIntel,60.24096386,657b66ea316d21385b68909f,,,,,,,,,,,87.4257,88.4271,88.4272,88.927,88.927,89.1755,89.1755,73,73,96.2122,space,7.0176,,96.2122,97.4931,space,1.2632,,0,6,6,7,1,45,bars/single007.png,bars/mask009.png,,,,,,,,,,,,,,,,,,,,,,,,,,,,,,,,,,,,,,,,,,,,,,,,,,,,,,,,,,,,,,,,
,,64a1f97573d3517a71ca803f,65af56bf60bcc53ab4af7c3e,2024-01-23_19h07.21.537,bars,2023.2.3,MacIntel,60.24096386,657b66ea316d21385b68909f,,,,,,,,,,,97.4934,98.4916,98.4917,98.9932,98.9932,99.2434,99.2435,169,-11,102.9948,space,3.7344,,102.9949,105.5256,space,2.5129,,0,7,7,8,1,160,bars/single008.png,bars/mask004.png,,,,,,,,,,,,,,,,,,,,,,,,,,,,,,,,,,,,,,,,,,,,,,,,,,,,,,,,,,,,,,,,
,,64a1f97573d3517a71ca803f,65af56bf60bcc53ab4af7c3e,2024-01-23_19h07.21.537,bars,2023.2.3,MacIntel,60.24096386,657b66ea316d21385b68909f,,,,,,,,,,,105.5259,106.5255,106.5256,107.0266,107.0266,107.2769,107.2769,174,-6,110.0587,space,2.7614,,110.0587,111.3261,space,1.2452,,0,8,8,0,1,150,bars/single000.png,bars/mask006.png,,,,,,,,,,,,,,,,,,,,,,,,,,,,,,,,,,,,,,,,,,,,,,,,,,,,,,,,,,,,,,,,
,,64a1f97573d3517a71ca803f,65af56bf60bcc53ab4af7c3e,2024-01-23_19h07.21.537,bars,2023.2.3,MacIntel,60.24096386,657b66ea316d21385b68909f,,,,,,,,,,,111.3263,112.328,112.328,112.8293,112.8293,113.0767,113.0768,6,186,115.3952,space,2.2996,,115.3953,116.3942,space,0.9879,,0,9,9,3,1,20,bars/single003.png,bars/mask005.png,,,,,,,,,,,,,,,,,,,,,,,,,,,,,,,,,,,,,,,,,,,,,,,,,,,,,,,,,,,,,,,,
,,64a1f97573d3517a71ca803f,65af56bf60bcc53ab4af7c3e,2024-01-23_19h07.21.537,bars,2023.2.3,MacIntel,60.24096386,657b66ea316d21385b68909f,,,,,,,,,,,,,,,,,,,,,,,,,,,,,,,,,,,,,116.3946,678.223,space,561.8151,,,,,,,,,,,,,,,,,,,,,,,,,,,,,,,,,,,,,,,,,,,,,,,,,,,,,,,,,,,,
,,64a1f97573d3517a71ca803f,65af56bf60bcc53ab4af7c3e,2024-01-23_19h07.21.537,bars,2023.2.3,MacIntel,60.24096386,657b66ea316d21385b68909f,,,,,,,,,,,,,,,,,,,,,,,,,,,,,,,,,,,,,,,,,,678.2363,682.0067,right,3.7014,,682.0068,2,2,683.0073,0,0,0,0,1,9,1,9,2,,,,,,,,,,,,,,,,,,,,,,,,,,,,,,,,,,,,,,,,,
,,64a1f97573d3517a71ca803f,65af56bf60bcc53ab4af7c3e,2024-01-23_19h07.21.537,bars,2023.2.3,MacIntel,60.24096386,657b66ea316d21385b68909f,,,,,,,,,,,,,,,,,,,,,,,,,,,,,,,,,,,,,,,,,,683.0084,683.8373,left,0.8173,,683.8373,10,1,684.8251,0,1,1,1,1,10,0,10,1,,,,,,,,,,,,,,,,,,,,,,,,,,,,,,,,,,,,,,,,,
,,64a1f97573d3517a71ca803f,65af56bf60bcc53ab4af7c3e,2024-01-23_19h07.21.537,bars,2023.2.3,MacIntel,60.24096386,657b66ea316d21385b68909f,,,,,,,,,,,,,,,,,,,,,,,,,,,,,,,,,,,,,,,,,,684.8255,685.1575,left,0.3181,,685.1576,10,1,686.1537,0,2,2,2,1,10,2,10,2,,,,,,,,,,,,,,,,,,,,,,,,,,,,,,,,,,,,,,,,,
,,64a1f97573d3517a71ca803f,65af56bf60bcc53ab4af7c3e,2024-01-23_19h07.21.537,bars,2023.2.3,MacIntel,60.24096386,657b66ea316d21385b68909f,,,,,,,,,,,,,,,,,,,,,,,,,,,,,,,,,,,,,,,,,,686.1542,686.4407,left,0.2684,,686.4408,7,1,687.4418,0,3,3,3,1,8,4,7,3,,,,,,,,,,,,,,,,,,,,,,,,,,,,,,,,,,,,,,,,,
,,64a1f97573d3517a71ca803f,65af56bf60bcc53ab4af7c3e,2024-01-23_19h07.21.537,bars,2023.2.3,MacIntel,60.24096386,657b66ea316d21385b68909f,,,,,,,,,,,,,,,,,,,,,,,,,,,,,,,,,,,,,,,,,,687.4422,688.8373,left,1.3834,,688.8374,5,1,689.8419,0,4,4,4,1,6,2,5,1,,,,,,,,,,,,,,,,,,,,,,,,,,,,,,,,,,,,,,,,,
,,64a1f97573d3517a71ca803f,65af56bf60bcc53ab4af7c3e,2024-01-23_19h07.21.537,bars,2023.2.3,MacIntel,60.24096386,657b66ea316d21385b68909f,,,,,,,,,,,,,,,,,,,,,,,,,,,,,,,,,,,,,,,,,,689.8425,691.5066,right,1.6543,,691.5066,4,2,692.5054,0,5,5,5,1,4,4,4,4,,,,,,,,,,,,,,,,,,,,,,,,,,,,,,,,,,,,,,,,,
,,64a1f97573d3517a71ca803f,65af56bf60bcc53ab4af7c3e,2024-01-23_19h07.21.537,bars,2023.2.3,MacIntel,60.24096386,657b66ea316d21385b68909f,,,,,,,,,,,,,,,,,,,,,,,,,,,,,,,,,,,,,,,,,,692.5152,692.8406,left,0.3179,,692.8406,1,1,693.8374,0,6,6,6,1,2,2,1,2,,,,,,,,,,,,,,,,,,,,,,,,,,,,,,,,,,,,,,,,,
,,64a1f97573d3517a71ca803f,65af56bf60bcc53ab4af7c3e,2024-01-23_19h07.21.537,bars,2023.2.3,MacIntel,60.24096386,657b66ea316d21385b68909f,,,,,,,,,,,,,,,,,,,,,,,,,,,,,,,,,,,,,,,,,,693.8378,694.1075,right,0.2507,,694.1075,1,2,695.1081,0,7,7,7,1,0,0,0,1,,,,,,,,,,,,,,,,,,,,,,,,,,,,,,,,,,,,,,,,,
,,64a1f97573d3517a71ca803f,65af56bf60bcc53ab4af7c3e,2024-01-23_19h07.21.537,bars,2023.2.3,MacIntel,60.24096386,657b66ea316d21385b68909f,,,,,,,,,,,,,,,,,,,,,,,,,,,,,,,,,,,,,,,,,,695.1086,695.4578,left,0.3331,,695.4578,1,1,696.4559,0,8,8,8,1,0,2,1,0,,,,,,,,,,,,,,,,,,,,,,,,,,,,,,,,,,,,,,,,,
,,64a1f97573d3517a71ca803f,65af56bf60bcc53ab4af7c3e,2024-01-23_19h07.21.537,bars,2023.2.3,MacIntel,60.24096386,657b66ea316d21385b68909f,,,,,,,,,,,,,,,,,,,,,,,,,,,,,,,,,,,,,,,,,,696.4563,696.7872,left,0.3184,,696.7872,2,1,697.7875,0,9,9,9,1,2,4,2,3,,,,,,,,,,,,,,,,,,,,,,,,,,,,,,,,,,,,,,,,,
,,64a1f97573d3517a71ca803f,65af56bf60bcc53ab4af7c3e,2024-01-23_19h07.21.537,bars,2023.2.3,MacIntel,60.24096386,657b66ea316d21385b68909f,,,,,,,,,,,,,,,,,,,,,,,,,,,,,,,,,,,,,,,,,,697.7879,698.0239,right,0.2184,,698.024,3,2,699.022,0,10,10,10,1,0,2,0,3,,,,,,,,,,,,,,,,,,,,,,,,,,,,,,,,,,,,,,,,,
,,64a1f97573d3517a71ca803f,65af56bf60bcc53ab4af7c3e,2024-01-23_19h07.21.537,bars,2023.2.3,MacIntel,60.24096386,657b66ea316d21385b68909f,,,,,,,,,,,,,,,,,,,,,,,,,,,,,,,,,,,,,,,,,,699.0225,699.2727,right,0.2416,,699.2727,3,2,700.2722,0,11,11,11,1,0,4,0,3,,,,,,,,,,,,,,,,,,,,,,,,,,,,,,,,,,,,,,,,,
,,64a1f97573d3517a71ca803f,65af56bf60bcc53ab4af7c3e,2024-01-23_19h07.21.537,bars,2023.2.3,MacIntel,60.24096386,657b66ea316d21385b68909f,,,,,,,,,,,,,,,,,,,,,,,,,,,,,,,,,,,,,,,,,,700.2726,700.6701,left,0.3783,,700.6701,1,1,701.6705,0,12,12,12,1,2,6,1,6,,,,,,,,,,,,,,,,,,,,,,,,,,,,,,,,,,,,,,,,,
,,64a1f97573d3517a71ca803f,65af56bf60bcc53ab4af7c3e,2024-01-23_19h07.21.537,bars,2023.2.3,MacIntel,60.24096386,657b66ea316d21385b68909f,,,,,,,,,,,,,,,,,,,,,,,,,,,,,,,,,,,,,,,,,,701.6709,701.9048,right,0.2108,,701.905,3,2,702.9047,0,13,13,13,1,0,4,1,3,,,,,,,,,,,,,,,,,,,,,,,,,,,,,,,,,,,,,,,,,
,,64a1f97573d3517a71ca803f,65af56bf60bcc53ab4af7c3e,2024-01-23_19h07.21.537,bars,2023.2.3,MacIntel,60.24096386,657b66ea316d21385b68909f,,,,,,,,,,,,,,,,,,,,,,,,,,,,,,,,,,,,,,,,,,702.9053,703.0708,right,0.1571,,703.0708,7,2,704.0702,0,14,14,14,1,2,6,2,7,,,,,,,,,,,,,,,,,,,,,,,,,,,,,,,,,,,,,,,,,
,,64a1f97573d3517a71ca803f,65af56bf60bcc53ab4af7c3e,2024-01-23_19h07.21.537,bars,2023.2.3,MacIntel,60.24096386,657b66ea316d21385b68909f,,,,,,,,,,,,,,,,,,,,,,,,,,,,,,,,,,,,,,,,,,704.0707,704.3871,right,0.2944,,704.3871,9,2,705.3895,0,15,15,15,1,4,8,3,9,,,,,,,,,,,,,,,,,,,,,,,,,,,,,,,,,,,,,,,,,
,,64a1f97573d3517a71ca803f,65af56bf60bcc53ab4af7c3e,2024-01-23_19h07.21.537,bars,2023.2.3,MacIntel,60.24096386,657b66ea316d21385b68909f,,,,,,,,,,,,,,,,,,,,,,,,,,,,,,,,,,,,,,,,,,705.3899,705.6202,right,0.2198,,705.6203,7,2,706.6204,0,16,16,16,1,6,6,7,7,,,,,,,,,,,,,,,,,,,,,,,,,,,,,,,,,,,,,,,,,
,,64a1f97573d3517a71ca803f,65af56bf60bcc53ab4af7c3e,2024-01-23_19h07.21.537,bars,2023.2.3,MacIntel,60.24096386,657b66ea316d21385b68909f,,,,,,,,,,,,,,,,,,,,,,,,,,,,,,,,,,,,,,,,,,706.6208,706.8536,right,0.211,,706.8537,5,2,707.8578,0,17,17,17,1,8,4,9,5,,,,,,,,,,,,,,,,,,,,,,,,,,,,,,,,,,,,,,,,,
,,64a1f97573d3517a71ca803f,65af56bf60bcc53ab4af7c3e,2024-01-23_19h07.21.537,bars,2023.2.3,MacIntel,60.24096386,657b66ea316d21385b68909f,,,,,,,,,,,,,,,,,,,,,,,,,,,,,,,,,,,,,,,,,,707.8583,708.0869,left,0.2098,,708.087,5,1,709.0869,0,18,18,18,1,6,2,5,1,,,,,,,,,,,,,,,,,,,,,,,,,,,,,,,,,,,,,,,,,
,,64a1f97573d3517a71ca803f,65af56bf60bcc53ab4af7c3e,2024-01-23_19h07.21.537,bars,2023.2.3,MacIntel,60.24096386,657b66ea316d21385b68909f,,,,,,,,,,,,,,,,,,,,,,,,,,,,,,,,,,,,,,,,,,709.0873,709.3721,left,0.2782,,709.3721,7,1,710.371,0,19,19,19,1,8,0,7,0,,,,,,,,,,,,,,,,,,,,,,,,,,,,,,,,,,,,,,,,,
,,64a1f97573d3517a71ca803f,65af56bf60bcc53ab4af7c3e,2024-01-23_19h07.21.537,bars,2023.2.3,MacIntel,60.24096386,657b66ea316d21385b68909f,,,,,,,,,,,,,,,,,,,,,,,,,,,,,,,,,,,,,,,,,,,,,,,,,,,,,,,,,,,,710.372,734.9544,space,24.562,,,,,,,,,,,,,,,,,,,,,,,,,,,,,,,,,,,,,
,,64a1f97573d3517a71ca803f,65af56bf60bcc53ab4af7c3e,2024-01-23_19h07.21.537,bars,2023.2.3,MacIntel,60.24096386,657b66ea316d21385b68909f,,,,,,,,,,,736.044,737.0387,,,737.5389,737.7891,,84,84,,,,,,,,,,,,,,,,bars/042.png,bars/mask000.png,,,,,,,,,,,,1,2,,,,,,,5,5,5,2,,,,,,734.9649,736.0384,space,1.0543,,737.0389,737.5388,737.7894,741.3559,space,3.5512,,741.3562,61,9,742.3576,742.3579,749.2921,space,6.9004,,0,0,0,0,1,145,75,,,,,,,,
,,64a1f97573d3517a71ca803f,65af56bf60bcc53ab4af7c3e,2024-01-23_19h07.21.537,bars,2023.2.3,MacIntel,60.24096386,657b66ea316d21385b68909f,,,,,,,,,,,749.3046,750.3031,,,750.8031,751.0559,,68,68,,,,,,,,,,,,,,,,bars/034.png,bars/mask005.png,,,,,,,,,,,,4,2,,,,,,,7,3,8,4,,,,,,,,,,,750.3032,750.803,751.056,754.1232,space,3.0563,,754.1235,57,3,755.1218,755.1219,758.8913,space,3.7494,,0,1,1,1,1,125,65,,,,,,,,
,,64a1f97573d3517a71ca803f,65af56bf60bcc53ab4af7c3e,2024-01-23_19h07.21.537,bars,2023.2.3,MacIntel,60.24096386,657b66ea316d21385b68909f,,,,,,,,,,,758.8918,759.8903,,,760.3874,760.6367,,16,16,,,,,,,,,,,,,,,,bars/031.png,bars/mask006.png,,,,,,,,,,,,2,2,,,,,,,5,5,4,6,,,,,,,,,,,759.8904,760.3873,760.6367,761.4371,space,0.7902,,761.4371,76,19,762.4395,762.4396,765.7693,space,3.3176,,0,2,2,2,1,120,35,,,,,,,,
,,64a1f97573d3517a71ca803f,65af56bf60bcc53ab4af7c3e,2024-01-23_19h07.21.537,bars,2023.2.3,MacIntel,60.24096386,657b66ea316d21385b68909f,,,,,,,,,,,765.7788,766.7693,,,767.2728,767.5228,,108,108,,,,,,,,,,,,,,,,bars/028.png,bars/mask001.png,,,,,,,,,,,,4,2,,,,,,,7,7,7,7,,,,,,,,,,,766.7697,767.2728,767.523,775.14,space,7.601,,775.1401,63,12,776.1373,776.1374,779.1527,space,2.9923,,0,3,3,3,1,45,120,,,,,,,,
,,64a1f97573d3517a71ca803f,65af56bf60bcc53ab4af7c3e,2024-01-23_19h07.21.537,bars,2023.2.3,MacIntel,60.24096386,657b66ea316d21385b68909f,,,,,,,,,,,779.1529,780.153,,,780.6539,780.9035,,21,21,,,,,,,,,,,,,,,,bars/007.png,bars/mask004.png,,,,,,,,,,,,1,1,,,,,,,5,5,6,4,,,,,,,,,,,780.1531,780.6539,780.9035,786.553,space,5.6342,,786.553,26,34,787.5525,787.5528,790.8374,space,3.2535,,0,4,4,4,1,175,55,,,,,,,,
,,64a1f97573d3517a71ca803f,65af56bf60bcc53ab4af7c3e,2024-01-23_19h07.21.537,bars,2023.2.3,MacIntel,60.24096386,657b66ea316d21385b68909f,,,,,,,,,,,790.8376,791.837,,,792.3394,792.5873,,103,103,,,,,,,,,,,,,,,,bars/012.png,bars/mask009.png,,,,,,,,,,,,5,1,,,,,,,7,7,8,8,,,,,,,,,,,791.8371,792.3394,792.5873,796.5208,space,3.9146,,796.5208,13,88,797.5227,797.5227,798.7884,space,1.2438,,0,5,5,5,1,90,15,,,,,,,,
,,64a1f97573d3517a71ca803f,65af56bf60bcc53ab4af7c3e,2024-01-23_19h07.21.537,bars,2023.2.3,MacIntel,60.24096386,657b66ea316d21385b68909f,,,,,,,,,,,798.7891,799.7864,,,800.2888,800.5395,,95,95,,,,,,,,,,,,,,,,bars/026.png,bars/mask002.png,,,,,,,,,,,,6,2,,,,,,,9,9,7,9,,,,,,,,,,,799.7864,800.2884,800.5397,804.7688,space,4.2171,,804.7689,60,10,805.7712,805.7712,806.2209,space,0.4172,,0,6,6,6,1,35,85,,,,,,,,
,,64a1f97573d3517a71ca803f,65af56bf60bcc53ab4af7c3e,2024-01-23_19h07.21.537,bars,2023.2.3,MacIntel,60.24096386,657b66ea316d21385b68909f,,,,,,,,,,,806.2212,807.2197,,,807.7206,807.9699,,83,83,,,,,,,,,,,,,,,,bars/038.png,bars/mask004.png,,,,,,,,,,,,5,2,,,,,,,10,10,10,8,,,,,,,,,,,807.2198,807.7206,807.9699,812.3368,space,4.3505,,812.3369,82,13,813.3366,813.3367,813.5201,space,0.1643,,0,7,7,7,1,165,70,,,,,,,,
,,64a1f97573d3517a71ca803f,65af56bf60bcc53ab4af7c3e,2024-01-23_19h07.21.537,bars,2023.2.3,MacIntel,60.24096386,657b66ea316d21385b68909f,,,,,,,,,,,813.5205,814.521,,,815.0203,815.2691,,178,178,,,,,,,,,,,,,,,,bars/032.png,bars/mask007.png,,,,,,,,,,,,3,2,,,,,,,10,10,10,10,,,,,,,,,,,814.521,815.0203,815.2695,822.8028,space,7.5169,,822.8028,53,22,823.802,823.8022,824.4878,space,0.6627,,0,8,8,8,1,125,20,,,,,,,,
,,64a1f97573d3517a71ca803f,65af56bf60bcc53ab4af7c3e,2024-01-23_19h07.21.537,bars,2023.2.3,MacIntel,60.24096386,657b66ea316d21385b68909f,,,,,,,,,,,824.4889,825.4853,,,825.9869,826.2358,,125,125,,,,,,,,,,,,,,,,bars/035.png,bars/mask005.png,,,,,,,,,,,,0,1,,,,,,,8,10,9,10,,,,,,,,,,,825.4854,825.9868,826.2358,827.3524,space,1.101,,827.3524,50,65,828.3531,828.3532,829.1368,space,0.7646,,0,9,9,9,1,175,60,,,,,,,,
,,64a1f97573d3517a71ca803f,65af56bf60bcc53ab4af7c3e,2024-01-23_19h07.21.537,bars,2023.2.3,MacIntel,60.24096386,657b66ea316d21385b68909f,,,,,,,,,,,829.1372,830.1391,,,830.6391,830.8859,,88,88,,,,,,,,,,,,,,,,bars/026.png,bars/mask002.png,,,,,,,,,,,,6,2,,,,,,,6,8,7,7,,,,,,,,,,,830.1391,830.639,830.886,836.3057,space,5.4007,,836.3057,53,3,837.3055,837.3055,837.6889,space,0.3522,,0,10,10,10,1,35,85,,,,,,,,
,,64a1f97573d3517a71ca803f,65af56bf60bcc53ab4af7c3e,2024-01-23_19h07.21.537,bars,2023.2.3,MacIntel,60.24096386,657b66ea316d21385b68909f,,,,,,,,,,,837.6894,838.6864,,,839.1856,839.4361,,105,105,,,,,,,,,,,,,,,,bars/049.png,bars/mask005.png,,,,,,,,,,,,3,2,,,,,,,4,6,5,5,,,,,,,,,,,838.6864,839.1856,839.4362,844.9547,space,5.4993,,844.9548,55,10,845.953,845.953,846.7531,space,0.7803,,0,11,11,11,1,160,115,,,,,,,,
,,64a1f97573d3517a71ca803f,65af56bf60bcc53ab4af7c3e,2024-01-23_19h07.21.537,bars,2023.2.3,MacIntel,60.24096386,657b66ea316d21385b68909f,,,,,,,,,,,846.7534,847.7523,,,848.2556,848.5019,,92,92,,,,,,,,,,,,,,,,bars/025.png,bars/mask004.png,,,,,,,,,,,,3,1,,,,,,,6,4,6,3,,,,,,,,,,,847.7523,848.2556,848.502,849.7191,space,1.1979,,849.7192,13,52,850.7271,850.7271,851.0174,space,0.2444,,0,12,12,12,1,105,40,,,,,,,,
,,64a1f97573d3517a71ca803f,65af56bf60bcc53ab4af7c3e,2024-01-23_19h07.21.537,bars,2023.2.3,MacIntel,60.24096386,657b66ea316d21385b68909f,,,,,,,,,,,851.0177,852.02,,,852.5213,852.7685,,1,181,,,,,,,,,,,,,,,,bars/004.png,bars/mask003.png,,,,,,,,,,,,1,1,,,,,,,8,6,6,6,,,,,,,,,,,852.02,852.5212,852.7685,854.4701,space,1.6773,,854.4702,24,56,855.4728,855.4729,856.3373,space,0.8541,,0,13,13,13,1,25,125,,,,,,,,
,,64a1f97573d3517a71ca803f,65af56bf60bcc53ab4af7c3e,2024-01-23_19h07.21.537,bars,2023.2.3,MacIntel,60.24096386,657b66ea316d21385b68909f,,,,,,,,,,,856.3376,857.3376,,,857.838,858.0872,,109,109,,,,,,,,,,,,,,,,bars/042.png,bars/mask003.png,,,,,,,,,,,,0,2,,,,,,,6,4,5,4,,,,,,,,,,,857.3377,857.838,858.0872,859.138,space,1.0424,,859.1381,36,34,860.1372,860.1373,860.22,space,0.05,,0,14,14,14,1,145,75,,,,,,,,
,,64a1f97573d3517a71ca803f,65af56bf60bcc53ab4af7c3e,2024-01-23_19h07.21.537,bars,2023.2.3,MacIntel,60.24096386,657b66ea316d21385b68909f,,,,,,,,,,,860.2202,861.2219,,,861.7232,861.9726,,93,93,,,,,,,,,,,,,,,,bars/039.png,bars/mask005.png,,,,,,,,,,,,1,2,,,,,,,4,2,3,2,,,,,,,,,,,861.2219,861.7232,861.9726,862.7898,space,0.8088,,862.7898,82,12,863.7861,863.7861,864.5389,space,0.7353,,0,15,15,15,1,175,105,,,,,,,,
,,64a1f97573d3517a71ca803f,65af56bf60bcc53ab4af7c3e,2024-01-23_19h07.21.537,bars,2023.2.3,MacIntel,60.24096386,657b66ea316d21385b68909f,,,,,,,,,,,864.5394,865.5389,,,866.0355,866.2846,,23,203,,,,,,,,,,,,,,,,bars/031.png,bars/mask008.png,,,,,,,,,,,,3,2,,,,,,,2,4,3,5,,,,,,,,,,,865.539,866.0353,866.2847,872.9504,space,6.6467,,872.9505,83,12,873.9516,873.9517,874.237,space,0.263,,0,16,16,16,1,120,35,,,,,,,,
,,64a1f97573d3517a71ca803f,65af56bf60bcc53ab4af7c3e,2024-01-23_19h07.21.537,bars,2023.2.3,MacIntel,60.24096386,657b66ea316d21385b68909f,,,,,,,,,,,874.2373,875.2381,,,875.7375,875.9862,,93,93,,,,,,,,,,,,,,,,bars/019.png,bars/mask009.png,,,,,,,,,,,,2,2,,,,,,,0,2,0,4,,,,,,,,,,,875.2381,875.7374,875.9862,882.1886,space,6.1845,,882.1886,48,12,883.1855,883.1855,883.5874,space,0.3799,,0,17,17,17,1,45,105,,,,,,,,
,,64a1f97573d3517a71ca803f,65af56bf60bcc53ab4af7c3e,2024-01-23_19h07.21.537,bars,2023.2.3,MacIntel,60.24096386,657b66ea316d21385b68909f,,,,,,,,,,,883.5881,884.5876,,,885.0867,885.3381,,86,86,,,,,,,,,,,,,,,,bars/042.png,bars/mask003.png,,,,,,,,,,,,1,2,,,,,,,0,0,2,1,,,,,,,,,,,884.5877,885.0867,885.3381,888.8539,space,3.5069,,888.854,59,11,889.851,889.8511,889.9562,space,0.0829,,0,18,18,18,1,145,75,,,,,,,,
,,64a1f97573d3517a71ca803f,65af56bf60bcc53ab4af7c3e,2024-01-23_19h07.21.537,bars,2023.2.3,MacIntel,60.24096386,657b66ea316d21385b68909f,,,,,,,,,,,889.9568,890.9511,,,891.4551,891.7013,,9,189,,,,,,,,,,,,,,,,bars/041.png,bars/mask004.png,,,,,,,,,,,,1,1,,,,,,,0,0,1,0,,,,,,,,,,,890.9512,891.4551,891.7013,894.5509,space,2.8296,,894.5509,11,76,895.5525,895.5525,895.8345,space,0.2467,,0,19,19,19,1,20,85,,,,,,,,
,,64a1f97573d3517a71ca803f,65af56bf60bcc53ab4af7c3e,2024-01-23_19h07.21.537,bars,2023.2.3,MacIntel,60.24096386,657b66ea316d21385b68909f,,,,,,,,,,,895.8348,896.8367,,,897.3362,897.5844,,92,92,,,,,,,,,,,,,,,,bars/041.png,bars/mask008.png,,,,,,,,,,,,2,2,,,,,,,2,2,3,2,,,,,,,,,,,896.8367,897.3362,897.5844,899.2354,space,1.6333,,899.2354,72,7,900.2347,900.2347,900.4723,space,0.2041,,0,20,20,20,1,20,85,,,,,,,,
,,64a1f97573d3517a71ca803f,65af56bf60bcc53ab4af7c3e,2024-01-23_19h07.21.537,bars,2023.2.3,MacIntel,60.24096386,657b66ea316d21385b68909f,,,,,,,,,,,900.4725,901.4687,,,901.968,902.2222,,19,19,,,,,,,,,,,,,,,,bars/021.png,bars/mask006.png,,,,,,,,,,,,0,1,,,,,,,0,0,0,0,,,,,,,,,,,901.4687,901.968,902.2222,905.5228,space,3.2841,,905.5228,44,51,906.5189,906.519,907.0225,space,0.4719,,0,21,21,21,1,155,70,,,,,,,,
,,64a1f97573d3517a71ca803f,65af56bf60bcc53ab4af7c3e,2024-01-23_19h07.21.537,bars,2023.2.3,MacIntel,60.24096386,657b66ea316d21385b68909f,,,,,,,,,,,907.0229,908.0191,,,908.5187,908.7688,,165,165,,,,,,,,,,,,,,,,bars/015.png,bars/mask009.png,,,,,,,,,,,,2,2,,,,,,,0,2,0,2,,,,,,,,,,,908.0192,908.5186,908.7689,917.8859,space,9.1004,,917.886,55,5,918.8855,918.8856,919.2013,space,0.2867,,0,22,22,22,1,110,160,,,,,,,,
,,64a1f97573d3517a71ca803f,65af56bf60bcc53ab4af7c3e,2024-01-23_19h07.21.537,bars,2023.2.3,MacIntel,60.24096386,657b66ea316d21385b68909f,,,,,,,,,,,919.2016,920.201,,,920.701,920.9507,,11,11,,,,,,,,,,,,,,,,bars/005.png,bars/mask007.png,,,,,,,,,,,,2,1,,,,,,,2,4,2,6,,,,,,,,,,,920.2011,920.701,920.951,927.3843,space,6.416,,927.3843,1,51,928.3845,928.3847,928.4335,space,0.0193,,0,23,23,23,1,10,140,,,,,,,,
,,64a1f97573d3517a71ca803f,65af56bf60bcc53ab4af7c3e,2024-01-23_19h07.21.537,bars,2023.2.3,MacIntel,60.24096386,657b66ea316d21385b68909f,,,,,,,,,,,928.4338,929.4338,,,929.9371,930.1854,,90,90,,,,,,,,,,,,,,,,bars/026.png,bars/mask000.png,,,,,,,,,,,,3,2,,,,,,,4,2,5,3,,,,,,,,,,,929.4338,929.9369,930.1854,934.735,space,4.5348,,934.7351,55,5,935.7347,935.7347,936.1186,space,0.3524,,0,24,24,24,1,35,85,,,,,,,,
,,64a1f97573d3517a71ca803f,65af56bf60bcc53ab4af7c3e,2024-01-23_19h07.21.537,bars,2023.2.3,MacIntel,60.24096386,657b66ea316d21385b68909f,,,,,,,,,,,936.1189,937.1169,,,937.6213,937.8673,,16,196,,,,,,,,,,,,,,,,bars/040.png,bars/mask000.png,,,,,,,,,,,,3,2,,,,,,,2,4,2,4,,,,,,,,,,,937.1169,937.6212,937.8673,942.1351,space,4.2499,,942.1352,56,11,943.1371,943.1371,943.7031,space,0.5341,,0,25,25,25,1,140,5,,,,,,,,
,,64a1f97573d3517a71ca803f,65af56bf60bcc53ab4af7c3e,2024-01-23_19h07.21.537,bars,2023.2.3,MacIntel,60.24096386,657b66ea316d21385b68909f,,,,,,,,,,,943.7038,944.7015,,,945.2028,945.4507,,95,95,,,,,,,,,,,,,,,,bars/034.png,bars/mask004.png,,,,,,,,,,,,0,2,,,,,,,0,6,0,7,,,,,,,,,,,944.7016,945.2026,945.4507,953.8516,space,8.3766,,953.8516,30,30,954.852,954.852,955.1725,space,0.2986,,0,26,26,26,1,125,65,,,,,,,,
,,64a1f97573d3517a71ca803f,65af56bf60bcc53ab4af7c3e,2024-01-23_19h07.21.537,bars,2023.2.3,MacIntel,60.24096386,657b66ea316d21385b68909f,,,,,,,,,,,955.1729,956.167,,,956.6669,956.9172,,72,72,,,,,,,,,,,,,,,,bars/038.png,bars/mask000.png,,,,,,,,,,,,8,2,,,,,,,2,8,2,9,,,,,,,,,,,956.1671,956.6669,956.9172,961.4037,space,4.4676,,961.4037,87,2,962.4034,962.4035,963.4399,space,1.0042,,0,27,27,27,1,165,70,,,,,,,,
,,64a1f97573d3517a71ca803f,65af56bf60bcc53ab4af7c3e,2024-01-23_19h07.21.537,bars,2023.2.3,MacIntel,60.24096386,657b66ea316d21385b68909f,,,,,,,,,,,963.4404,964.4335,,,964.9338,965.1854,,109,109,,,,,,,,,,,,,,,,bars/004.png,bars/mask006.png,,,,,,,,,,,,2,2,,,,,,,0,6,0,5,,,,,,,,,,,964.4336,964.9338,965.1855,972.1534,space,6.9589,,972.1534,84,16,973.1517,973.1518,974.0705,space,0.8975,,0,28,28,28,1,25,125,,,,,,,,
,,64a1f97573d3517a71ca803f,65af56bf60bcc53ab4af7c3e,2024-01-23_19h07.21.537,bars,2023.2.3,MacIntel,60.24096386,657b66ea316d21385b68909f,,,,,,,,,,,974.0708,975.067,,,975.5681,975.8167,,96,96,,,,,,,,,,,,,,,,bars/018.png,bars/mask008.png,,,,,,,,,,,,3,2,,,,,,,0,4,0,4,,,,,,,,,,,975.0671,975.568,975.8168,980.536,space,4.7017,,980.536,54,6,981.5378,981.5378,981.8332,space,0.2603,,0,29,29,29,1,150,90,,,,,,,,
,,64a1f97573d3517a71ca803f,65af56bf60bcc53ab4af7c3e,2024-01-23_19h07.21.537,bars,2023.2.3,MacIntel,60.24096386,657b66ea316d21385b68909f,,,,,,,,,,,981.8336,982.834,,,983.3335,983.5876,,12,192,,,,,,,,,,,,,,,,bars/032.png,bars/mask007.png,,,,,,,,,,,,5,2,,,,,,,2,6,2,7,,,,,,,,,,,982.8341,983.3335,983.5876,987.0024,space,3.401,,987.0024,67,8,988.003,988.003,988.7833,space,0.7455,,0,30,30,30,1,125,20,,,,,,,,
,,64a1f97573d3517a71ca803f,65af56bf60bcc53ab4af7c3e,2024-01-23_19h07.21.537,bars,2023.2.3,MacIntel,60.24096386,657b66ea316d21385b68909f,,,,,,,,,,,988.7837,989.783,,,990.2839,990.5341,,16,196,,,,,,,,,,,,,,,,bars/031.png,bars/mask002.png,,,,,,,,,,,,1,2,,,,,,,0,4,0,4,,,,,,,,,,,989.7831,990.2839,990.5341,998.2015,space,7.6504,,998.2016,76,19,999.2004,999.2004,1034.9858,space,35.7638,,0,31,31,31,1,120,35,,,,,,,,
,,64a1f97573d3517a71ca803f,65af56bf60bcc53ab4af7c3e,2024-01-23_19h07.21.537,bars,2023.2.3,MacIntel,60.24096386,657b66ea316d21385b68909f,,,,,,,,,,,1034.9953,1035.9865,,,1036.4841,1036.7342,,85,85,,,,,,,,,,,,,,,,bars/021.png,bars/mask001.png,,,,,,,,,,,,3,2,,,,,,,2,6,2,5,,,,,,,,,,,1035.9865,1036.4841,1036.7343,1041.3485,space,4.5944,,1041.3485,70,15,1042.3365,1042.3366,1042.6691,space,0.3033,,0,32,32,32,1,155,70,,,,,,,,
,,64a1f97573d3517a71ca803f,65af56bf60bcc53ab4af7c3e,2024-01-23_19h07.21.537,bars,2023.2.3,MacIntel,60.24096386,657b66ea316d21385b68909f,,,,,,,,,,,1042.6693,1043.6657,,,1044.1669,1044.4195,,100,100,,,,,,,,,,,,,,,,bars/009.png,bars/mask001.png,,,,,,,,,,,,4,2,,,,,,,4,4,4,5,,,,,,,,,,,1043.6657,1044.1669,1044.4195,1048.184,space,3.7551,,1048.184,85,5,1049.1843,1049.1843,1049.4683,space,0.2642,,0,33,33,33,1,15,105,,,,,,,,
,,64a1f97573d3517a71ca803f,65af56bf60bcc53ab4af7c3e,2024-01-23_19h07.21.537,bars,2023.2.3,MacIntel,60.24096386,657b66ea316d21385b68909f,,,,,,,,,,,1049.4686,1050.4681,,,1050.9699,1051.2173,,41,41,,,,,,,,,,,,,,,,bars/029.png,bars/mask000.png,,,,,,,,,,,,2,2,,,,,,,2,2,2,2,,,,,,,,,,,1050.4681,1050.9698,1051.2173,1054.9987,space,3.761,,1054.9987,49,4,1056.002,1056.002,1056.4986,space,0.4635,,0,34,34,34,1,90,45,,,,,,,,
,,64a1f97573d3517a71ca803f,65af56bf60bcc53ab4af7c3e,2024-01-23_19h07.21.537,bars,2023.2.3,MacIntel,60.24096386,657b66ea316d21385b68909f,,,,,,,,,,,1056.4989,1057.4865,,,1057.9842,1058.2348,,51,51,,,,,,,,,,,,,,,,bars/017.png,bars/mask000.png,,,,,,,,,,,,0,2,,,,,,,0,0,0,0,,,,,,,,,,,1057.4865,1057.9842,1058.2349,1061.0828,space,2.839,,1061.0829,86,6,1062.0845,1062.0845,1062.6678,space,0.5614,,0,35,35,35,1,145,45,,,,,,,,
,,64a1f97573d3517a71ca803f,65af56bf60bcc53ab4af7c3e,2024-01-23_19h07.21.537,bars,2023.2.3,MacIntel,60.24096386,657b66ea316d21385b68909f,,,,,,,,,,,1062.6681,1063.6698,,,1064.1676,1064.4163,,100,100,,,,,,,,,,,,,,,,bars/011.png,bars/mask006.png,,,,,,,,,,,,1,2,,,,,,,2,2,3,2,,,,,,,,,,,1063.6698,1064.1676,1064.4164,1069.6006,space,5.177,,1069.6007,60,15,1070.6023,1070.6023,1071.1204,space,0.4875,,0,36,36,36,1,160,85,,,,,,,,
,,64a1f97573d3517a71ca803f,65af56bf60bcc53ab4af7c3e,2024-01-23_19h07.21.537,bars,2023.2.3,MacIntel,60.24096386,657b66ea316d21385b68909f,,,,,,,,,,,1071.1209,1072.1154,,,1072.616,1072.8685,,90,90,,,,,,,,,,,,,,,,bars/018.png,bars/mask000.png,,,,,,,,,,,,0,2,,,,,,,4,0,3,0,,,,,,,,,,,1072.1155,1072.6159,1072.8687,1080.0827,space,7.2056,,1080.0827,60,0,1081.0845,1081.0845,1082.7322,space,1.623,,0,37,37,37,1,150,90,,,,,,,,
,,64a1f97573d3517a71ca803f,65af56bf60bcc53ab4af7c3e,2024-01-23_19h07.21.537,bars,2023.2.3,MacIntel,60.24096386,657b66ea316d21385b68909f,,,,,,,,,,,1082.7326,1083.7358,,,1084.2319,1084.4844,,119,119,,,,,,,,,,,,,,,,bars/015.png,bars/mask008.png,,,,,,,,,,,,1,1,,,,,,,2,2,2,3,,,,,,,,,,,1083.7359,1084.2319,1084.4844,1087.7866,space,3.2944,,1087.7867,9,41,1088.7849,1088.7849,1089.02,space,0.2018,,0,38,38,38,1,110,160,,,,,,,,
,,64a1f97573d3517a71ca803f,65af56bf60bcc53ab4af7c3e,2024-01-23_19h07.21.537,bars,2023.2.3,MacIntel,60.24096386,657b66ea316d21385b68909f,,,,,,,,,,,1089.0203,1090.0195,,,1090.5183,1090.7695,,85,85,,,,,,,,,,,,,,,,bars/025.png,bars/mask001.png,,,,,,,,,,,,2,1,,,,,,,4,4,5,5,,,,,,,,,,,1090.0196,1090.5183,1090.7695,1097.3484,space,6.5578,,1097.3485,20,45,1098.3513,1098.3513,1098.666,space,0.2837,,0,39,39,39,1,105,40,,,,,,,,
,,64a1f97573d3517a71ca803f,65af56bf60bcc53ab4af7c3e,2024-01-23_19h07.21.537,bars,2023.2.3,MacIntel,60.24096386,657b66ea316d21385b68909f,,,,,,,,,,,1098.6665,1099.6675,,,1100.1652,1100.4177,,121,121,,,,,,,,,,,,,,,,bars/028.png,bars/mask000.png,,,,,,,,,,,,1,2,,,,,,,6,2,6,1,,,,,,,,,,,1099.6676,1100.1651,1100.4177,1104.6336,space,4.2064,,1104.6336,76,1,1105.6341,1105.6341,1105.9021,space,0.2334,,0,40,40,40,1,45,120,,,,,,,,
,,64a1f97573d3517a71ca803f,65af56bf60bcc53ab4af7c3e,2024-01-23_19h07.21.537,bars,2023.2.3,MacIntel,60.24096386,657b66ea316d21385b68909f,,,,,,,,,,,1105.9026,1106.8982,,,1107.4025,1107.6486,,170,170,,,,,,,,,,,,,,,,bars/040.png,bars/mask008.png,,,,,,,,,,,,2,2,,,,,,,4,4,3,4,,,,,,,,,,,1106.8982,1107.4023,1107.6487,1109.6489,space,1.9898,,1109.6489,30,15,1110.6527,1110.6527,1111.3143,space,0.6433,,0,41,41,41,1,140,5,,,,,,,,
,,64a1f97573d3517a71ca803f,65af56bf60bcc53ab4af7c3e,2024-01-23_19h07.21.537,bars,2023.2.3,MacIntel,60.24096386,657b66ea316d21385b68909f,,,,,,,,,,,1111.3146,1112.3194,,,1112.815,1113.0691,,16,196,,,,,,,,,,,,,,,,bars/047.png,bars/mask009.png,,,,,,,,,,,,5,1,,,,,,,6,2,5,1,,,,,,,,,,,1112.3194,1112.815,1113.0692,1117.9017,space,4.8238,,1117.9017,1,54,1118.9012,1118.9013,1119.1004,space,0.1641,,0,42,42,42,1,15,70,,,,,,,,
,,64a1f97573d3517a71ca803f,65af56bf60bcc53ab4af7c3e,2024-01-23_19h07.21.537,bars,2023.2.3,MacIntel,60.24096386,657b66ea316d21385b68909f,,,,,,,,,,,1119.1009,1120.0989,,,1120.5984,1120.8483,,6,186,,,,,,,,,,,,,,,,bars/035.png,bars/mask004.png,,,,,,,,,,,,5,1,,,,,,,8,0,8,0,,,,,,,,,,,1120.0989,1120.5984,1120.8484,1127.299,space,6.4336,,1127.299,11,54,1128.2989,1128.2989,1128.5021,space,0.1791,,0,43,43,43,1,175,60,,,,,,,,
,,64a1f97573d3517a71ca803f,65af56bf60bcc53ab4af7c3e,2024-01-23_19h07.21.537,bars,2023.2.3,MacIntel,60.24096386,657b66ea316d21385b68909f,,,,,,,,,,,1128.5025,1129.4982,,,1130.0001,1130.2513,,164,-16,,,,,,,,,,,,,,,,bars/011.png,bars/mask005.png,,,,,,,,,,,,6,1,,,,,,,6,2,7,0,,,,,,,,,,,1129.4982,1130.0001,1130.2513,1134.7847,space,4.5214,,1134.7847,4,79,1135.7852,1135.7852,1136.3024,space,0.488,,0,44,44,44,1,160,85,,,,,,,,
,,64a1f97573d3517a71ca803f,65af56bf60bcc53ab4af7c3e,2024-01-23_19h07.21.537,bars,2023.2.3,MacIntel,60.24096386,657b66ea316d21385b68909f,,,,,,,,,,,1136.303,1137.297,,,1137.798,1138.0482,,4,4,,,,,,,,,,,,,,,,bars/007.png,bars/mask004.png,,,,,,,,,,,,4,1,,,,,,,4,4,5,5,,,,,,,,,,,1137.2971,1137.7979,1138.0483,1142.301,space,4.2436,,1142.3011,9,51,1143.2997,1143.2998,1143.6522,space,0.3303,,0,45,45,45,1,175,55,,,,,,,,
,,64a1f97573d3517a71ca803f,65af56bf60bcc53ab4af7c3e,2024-01-23_19h07.21.537,bars,2023.2.3,MacIntel,60.24096386,657b66ea316d21385b68909f,,,,,,,,,,,1143.6525,1144.6479,,,1145.149,1145.3979,,16,196,,,,,,,,,,,,,,,,bars/014.png,bars/mask004.png,,,,,,,,,,,,2,2,,,,,,,6,6,7,4,,,,,,,,,,,1144.6479,1145.149,1145.3979,1154.8825,space,9.463,,1154.8826,64,16,1155.8832,1155.8832,1156.1684,space,0.2534,,0,46,46,46,1,80,0,,,,,,,,
,,64a1f97573d3517a71ca803f,65af56bf60bcc53ab4af7c3e,2024-01-23_19h07.21.537,bars,2023.2.3,MacIntel,60.24096386,657b66ea316d21385b68909f,,,,,,,,,,,1156.1687,1157.1666,,,1157.6653,1157.9154,,133,-47,,,,,,,,,,,,,,,,bars/028.png,bars/mask006.png,,,,,,,,,,,,3,2,,,,,,,4,8,3,6,,,,,,,,,,,1157.1667,1157.6653,1157.9154,1164.0141,space,6.0896,,1164.0141,88,13,1165.0135,1165.0135,1165.6161,space,0.5745,,0,47,47,47,1,45,120,,,,,,,,
,,64a1f97573d3517a71ca803f,65af56bf60bcc53ab4af7c3e,2024-01-23_19h07.21.537,bars,2023.2.3,MacIntel,60.24096386,657b66ea316d21385b68909f,,,,,,,,,,,1165.6164,1166.6141,,,1167.1162,1167.3661,,102,102,,,,,,,,,,,,,,,,bars/046.png,bars/mask007.png,,,,,,,,,,,,4,2,,,,,,,6,10,7,10,,,,,,,,,,,1166.6142,1167.1161,1167.3662,1176.2637,space,8.8803,,1176.2637,53,17,1177.2668,1177.2668,1177.5522,space,0.2551,,0,48,48,48,1,155,85,,,,,,,,
,,64a1f97573d3517a71ca803f,65af56bf60bcc53ab4af7c3e,2024-01-23_19h07.21.537,bars,2023.2.3,MacIntel,60.24096386,657b66ea316d21385b68909f,,,,,,,,,,,1177.5525,1178.5472,,,1179.0517,1179.3004,,3,3,,,,,,,,,,,,,,,,bars/007.png,bars/mask001.png,,,,,,,,,,,,6,1,,,,,,,8,10,8,10,,,,,,,,,,,1178.5473,1179.0516,1179.3004,1185.1673,space,5.8587,,1185.1674,8,52,1186.1664,1186.1664,1186.3479,space,0.1483,,0,49,49,49,1,175,55,,,,,,,,
,,64a1f97573d3517a71ca803f,65af56bf60bcc53ab4af7c3e,2024-01-23_19h07.21.537,bars,2023.2.3,MacIntel,60.24096386,657b66ea316d21385b68909f,,,,,,,,,,,,,,,,,,,,,,,,,,,,,,,,,,,,,,,,,,,,,,,,,,,,,,,,,,,,,,,,,,,,,,,,,,,,,,,,,,,,,,,,,,,,,1186.3485,1246.3515,0,0,0,4,1,sequence_tables/blk011.csv
,,64a1f97573d3517a71ca803f,65af56bf60bcc53ab4af7c3e,2024-01-23_19h07.21.537,bars,2023.2.3,MacIntel,60.24096386,657b66ea316d21385b68909f,,,,,,,,,,,1252.6811,1253.6825,,,1254.1797,1254.4309,,93,93,,,,,,,,,,,,,,,,bars/004.png,bars/mask007.png,,,,,,,,,,,,0,2,,,,,,,1,9,1,7,,,,,,1246.3643,1252.6677,space,6.2876,,1253.6825,1254.1796,1254.431,1258.013,space,3.5698,,1258.0131,68,32,1259.0172,1259.0172,1259.0317,,,,0,0,0,0,1,25,125,,,,,,,,
,,64a1f97573d3517a71ca803f,65af56bf60bcc53ab4af7c3e,2024-01-23_19h07.21.537,bars,2023.2.3,MacIntel,60.24096386,657b66ea316d21385b68909f,,,,,,,,,,,1259.032,1260.033,,,1260.5326,1260.7799,,172,-8,,,,,,,,,,,,,,,,bars/008.png,bars/mask004.png,,,,,,,,,,,,4,2,,,,,,,3,7,5,6,,,,,,,,,,,1260.0332,1260.5326,1260.7799,1264.5493,space,3.7501,,1264.5493,62,8,1265.5488,1265.5488,1265.5614,,,,0,1,1,1,1,110,0,,,,,,,,
,,64a1f97573d3517a71ca803f,65af56bf60bcc53ab4af7c3e,2024-01-23_19h07.21.537,bars,2023.2.3,MacIntel,60.24096386,657b66ea316d21385b68909f,,,,,,,,,,,1265.5615,1266.5642,,,1267.065,1267.316,,177,-3,,,,,,,,,,,,,,,,bars/032.png,bars/mask001.png,,,,,,,,,,,,2,2,,,,,,,5,9,4,9,,,,,,,,,,,1266.5643,1267.0649,1267.316,1273.3015,space,5.977,,1273.3015,52,23,1274.2974,1274.2974,1274.3098,,,,0,2,2,2,1,125,20,,,,,,,,
,,64a1f97573d3517a71ca803f,65af56bf60bcc53ab4af7c3e,2024-01-23_19h07.21.537,bars,2023.2.3,MacIntel,60.24096386,657b66ea316d21385b68909f,,,,,,,,,,,1274.3099,1275.316,,,1275.8154,1276.0627,,40,40,,,,,,,,,,,,,,,,bars/036.png,bars/mask007.png,,,,,,,,,,,,3,2,,,,,,,3,7,5,10,,,,,,,,,,,1275.316,1275.8153,1276.0628,1280.5469,space,4.4597,,1280.5469,75,20,1281.5462,1281.5463,1281.5595,,,,0,3,3,3,1,145,20,,,,,,,,
,,64a1f97573d3517a71ca803f,65af56bf60bcc53ab4af7c3e,2024-01-23_19h07.21.537,bars,2023.2.3,MacIntel,60.24096386,657b66ea316d21385b68909f,,,,,,,,,,,1281.5595,1282.5623,,,1283.0636,1283.313,,83,83,,,,,,,,,,,,,,,,bars/034.png,bars/mask007.png,,,,,,,,,,,,2,2,,,,,,,1,5,1,4,,,,,,,,,,,1282.5623,1283.0635,1283.313,1287.9505,space,4.6194,,1287.9505,42,18,1288.9462,1288.9463,1288.9593,,,,0,4,4,4,1,125,65,,,,,,,,
,,64a1f97573d3517a71ca803f,65af56bf60bcc53ab4af7c3e,2024-01-23_19h07.21.537,bars,2023.2.3,MacIntel,60.24096386,657b66ea316d21385b68909f,,,,,,,,,,,1288.9594,1289.9486,,,1290.4489,1290.6962,,12,192,,,,,,,,,,,,,,,,bars/023.png,bars/mask000.png,,,,,,,,,,,,4,1,,,,,,,3,3,5,1,,,,,,,,,,,1289.9487,1290.4489,1290.6962,1295.3322,space,4.6173,,1295.3323,8,77,1296.3288,1296.3288,1296.343,,,,0,5,5,5,1,20,115,,,,,,,,
,,64a1f97573d3517a71ca803f,65af56bf60bcc53ab4af7c3e,2024-01-23_19h07.21.537,bars,2023.2.3,MacIntel,60.24096386,657b66ea316d21385b68909f,,,,,,,,,,,1296.3432,1297.3312,,,1297.8323,1298.0833,,102,102,,,,,,,,,,,,,,,,bars/001.png,bars/mask002.png,,,,,,,,,,,,1,2,,,,,,,5,1,7,2,,,,,,,,,,,1297.3312,1297.8322,1298.0833,1306.1325,space,8.0324,,1306.1326,28,17,1307.132,1307.132,1307.1458,,,,0,6,6,6,1,130,85,,,,,,,,
,,64a1f97573d3517a71ca803f,65af56bf60bcc53ab4af7c3e,2024-01-23_19h07.21.537,bars,2023.2.3,MacIntel,60.24096386,657b66ea316d21385b68909f,,,,,,,,,,,1307.146,1308.1461,,,1308.6501,1308.8961,,8,188,,,,,,,,,,,,,,,,bars/003.png,bars/mask004.png,,,,,,,,,,,,1,1,,,,,,,3,3,3,3,,,,,,,,,,,1308.1461,1308.6501,1308.8961,1316.5479,space,7.6342,,1316.548,17,48,1317.5453,1317.5454,1317.5595,,,,0,7,7,7,1,25,140,,,,,,,,
,,64a1f97573d3517a71ca803f,65af56bf60bcc53ab4af7c3e,2024-01-23_19h07.21.537,bars,2023.2.3,MacIntel,60.24096386,657b66ea316d21385b68909f,,,,,,,,,,,1317.5597,1318.5496,,,1319.0463,1319.2992,,176,176,,,,,,,,,,,,,,,,bars/007.png,bars/mask008.png,,,,,,,,,,,,3,1,,,,,,,5,1,3,1,,,,,,,,,,,1318.5497,1319.0462,1319.2992,1325.081,space,5.7729,,1325.0811,1,59,1326.0816,1326.0816,1326.0944,,,,0,8,8,8,1,175,55,,,,,,,,
,,64a1f97573d3517a71ca803f,65af56bf60bcc53ab4af7c3e,2024-01-23_19h07.21.537,bars,2023.2.3,MacIntel,60.24096386,657b66ea316d21385b68909f,,,,,,,,,,,1326.0947,1327.0984,,,1327.5955,1327.8454,,109,109,,,,,,,,,,,,,,,,bars/020.png,bars/mask001.png,,,,,,,,,,,,2,1,,,,,,,3,3,2,5,,,,,,,,,,,1327.0984,1327.5955,1327.8454,1334.5647,space,6.7001,,1334.5648,6,61,1335.5618,1335.5618,1335.5753,,,,0,9,9,9,1,115,170,,,,,,,,
,,64a1f97573d3517a71ca803f,65af56bf60bcc53ab4af7c3e,2024-01-23_19h07.21.537,bars,2023.2.3,MacIntel,60.24096386,657b66ea316d21385b68909f,,,,,,,,,,,1335.5754,1336.5658,,,1337.062,1337.3152,,156,156,,,,,,,,,,,,,,,,bars/005.png,bars/mask004.png,,,,,,,,,,,,0,2,,,,,,,1,1,0,0,,,,,,,,,,,1336.5658,1337.0619,1337.3152,1340.1301,space,2.8062,,1340.1301,34,16,1341.1317,1341.1317,1341.1449,,,,0,10,10,10,1,10,140,,,,,,,,
,,64a1f97573d3517a71ca803f,65af56bf60bcc53ab4af7c3e,2024-01-23_19h07.21.537,bars,2023.2.3,MacIntel,60.24096386,657b66ea316d21385b68909f,,,,,,,,,,,1341.1451,1342.1461,,,1342.6475,1342.8961,,42,42,,,,,,,,,,,,,,,,bars/000.png,bars/mask003.png,,,,,,,,,,,,3,1,,,,,,,3,0,3,0,,,,,,,,,,,1342.1461,1342.6475,1342.8962,1347.3162,space,4.4007,,1347.3162,2,77,1348.3116,1348.3116,1348.3253,,,,0,11,11,11,1,40,145,,,,,,,,
,,64a1f97573d3517a71ca803f,65af56bf60bcc53ab4af7c3e,2024-01-23_19h07.21.537,bars,2023.2.3,MacIntel,60.24096386,657b66ea316d21385b68909f,,,,,,,,,,,1348.3254,1349.3132,,,1349.8156,1350.063,,173,173,,,,,,,,,,,,,,,,bars/007.png,bars/mask009.png,,,,,,,,,,,,6,1,,,,,,,5,0,6,0,,,,,,,,,,,1349.3132,1349.8156,1350.063,1356.4145,space,6.3345,,1356.4145,2,62,1357.4112,1357.4113,1357.4242,,,,0,12,12,12,1,175,55,,,,,,,,
,,64a1f97573d3517a71ca803f,65af56bf60bcc53ab4af7c3e,2024-01-23_19h07.21.537,bars,2023.2.3,MacIntel,60.24096386,657b66ea316d21385b68909f,,,,,,,,,,,1357.4245,1358.4283,,,1358.9283,1359.1784,,163,163,,,,,,,,,,,,,,,,bars/048.png,bars/mask009.png,,,,,,,,,,,,1,2,,,,,,,7,2,7,2,,,,,,,,,,,1358.4283,1358.9283,1359.1784,1360.0113,space,0.8104,,1360.0114,67,12,1361.0136,1361.0137,1361.0165,,,,0,13,13,13,1,50,175,,,,,,,,
,,64a1f97573d3517a71ca803f,65af56bf60bcc53ab4af7c3e,2024-01-23_19h07.21.537,bars,2023.2.3,MacIntel,60.24096386,657b66ea316d21385b68909f,,,,,,,,,,,1361.0168,1362.0111,,,1362.5154,1362.764,,103,103,,,,,,,,,,,,,,,,bars/001.png,bars/mask004.png,,,,,,,,,,,,2,2,,,,,,,5,4,6,5,,,,,,,,,,,1362.0111,1362.5153,1362.764,1367.5616,space,4.7889,,1367.5616,27,18,1368.5654,1368.5654,1368.5777,,,,0,14,14,14,1,130,85,,,,,,,,
,,64a1f97573d3517a71ca803f,65af56bf60bcc53ab4af7c3e,2024-01-23_19h07.21.537,bars,2023.2.3,MacIntel,60.24096386,657b66ea316d21385b68909f,,,,,,,,,,,1368.5779,1369.5785,,,1370.0783,1370.33,,17,17,,,,,,,,,,,,,,,,bars/014.png,bars/mask002.png,,,,,,,,,,,,0,2,,,,,,,3,2,3,1,,,,,,,,,,,1369.5785,1370.0782,1370.33,1372.6168,space,2.2783,,1372.6168,63,17,1373.6124,1373.6124,1373.6131,,,,0,15,15,15,1,80,0,,,,,,,,
,,64a1f97573d3517a71ca803f,65af56bf60bcc53ab4af7c3e,2024-01-23_19h07.21.537,bars,2023.2.3,MacIntel,60.24096386,657b66ea316d21385b68909f,,,,,,,,,,,1373.6135,1374.6152,,,1375.1132,1375.3652,,55,235,,,,,,,,,,,,,,,,bars/027.png,bars/mask000.png,,,,,,,,,,,,0,2,,,,,,,1,0,3,0,,,,,,,,,,,1374.6152,1375.1132,1375.3652,1382.9802,space,7.6074,,1382.9802,55,5,1383.9821,1383.9822,1383.9974,,,,0,16,16,16,1,110,50,,,,,,,,
,,64a1f97573d3517a71ca803f,65af56bf60bcc53ab4af7c3e,2024-01-23_19h07.21.537,bars,2023.2.3,MacIntel,60.24096386,657b66ea316d21385b68909f,,,,,,,,,,,1383.9975,1384.9977,,,1385.4946,1385.7476,,84,84,,,,,,,,,,,,,,,,bars/006.png,bars/mask006.png,,,,,,,,,,,,0,2,,,,,,,0,2,0,1,,,,,,,,,,,1384.9978,1385.4946,1385.7476,1387.9115,space,2.1543,,1387.9116,49,16,1388.9122,1388.9123,1388.9245,,,,0,17,17,17,1,35,100,,,,,,,,
,,64a1f97573d3517a71ca803f,65af56bf60bcc53ab4af7c3e,2024-01-23_19h07.21.537,bars,2023.2.3,MacIntel,60.24096386,657b66ea316d21385b68909f,,,,,,,,,,,1388.9246,1389.9122,,,1390.4141,1390.6611,,107,107,,,,,,,,,,,,,,,,bars/011.png,bars/mask006.png,,,,,,,,,,,,1,2,,,,,,,2,4,2,5,,,,,,,,,,,1389.9123,1390.4141,1390.6612,1400.3496,space,9.669,,1400.3497,53,22,1401.3443,1401.3443,1401.3579,,,,0,18,18,18,1,160,85,,,,,,,,
,,64a1f97573d3517a71ca803f,65af56bf60bcc53ab4af7c3e,2024-01-23_19h07.21.537,bars,2023.2.3,MacIntel,60.24096386,657b66ea316d21385b68909f,,,,,,,,,,,1401.358,1402.3636,,,1402.8609,1403.1112,,34,34,,,,,,,,,,,,,,,,bars/026.png,bars/mask001.png,,,,,,,,,,,,0,1,,,,,,,0,2,0,2,,,,,,,,,,,1402.3638,1402.8608,1403.1112,1406.4122,space,3.2833,,1406.4123,1,51,1407.4123,1407.4123,1407.4253,,,,0,19,19,19,1,35,85,,,,,,,,
,,64a1f97573d3517a71ca803f,65af56bf60bcc53ab4af7c3e,2024-01-23_19h07.21.537,bars,2023.2.3,MacIntel,60.24096386,657b66ea316d21385b68909f,,,,,,,,,,,1407.4255,1408.4285,,,1408.9286,1409.1781,,89,89,,,,,,,,,,,,,,,,bars/029.png,bars/mask004.png,,,,,,,,,,,,0,1,,,,,,,0,4,0,4,,,,,,,,,,,1408.4285,1408.9286,1409.1781,1412.3454,space,3.1523,,1412.3455,1,44,1413.3441,1413.3442,1413.3575,,,,0,20,20,20,1,90,45,,,,,,,,
,,64a1f97573d3517a71ca803f,65af56bf60bcc53ab4af7c3e,2024-01-23_19h07.21.537,bars,2023.2.3,MacIntel,60.24096386,657b66ea316d21385b68909f,,,,,,,,,,,1413.3577,1414.3614,,,1414.8609,1415.111,,29,29,,,,,,,,,,,,,,,,bars/012.png,bars/mask003.png,,,,,,,,,,,,4,2,,,,,,,0,6,1,7,,,,,,,,,,,1414.3615,1414.8609,1415.111,1420.263,space,5.1332,,1420.2631,61,14,1421.2614,1421.2614,1421.2747,,,,0,21,21,21,1,90,15,,,,,,,,
,,64a1f97573d3517a71ca803f,65af56bf60bcc53ab4af7c3e,2024-01-23_19h07.21.537,bars,2023.2.3,MacIntel,60.24096386,657b66ea316d21385b68909f,,,,,,,,,,,1421.2749,1422.2786,,,1422.7787,1423.0277,,87,87,,,,,,,,,,,,,,,,bars/019.png,bars/mask004.png,,,,,,,,,,,,2,2,,,,,,,0,4,0,5,,,,,,,,,,,1422.2786,1422.7786,1423.0277,1427.2458,space,4.2004,,1427.2458,42,18,1428.2444,1428.2444,1428.2567,,,,0,22,22,22,1,45,105,,,,,,,,
,,64a1f97573d3517a71ca803f,65af56bf60bcc53ab4af7c3e,2024-01-23_19h07.21.537,bars,2023.2.3,MacIntel,60.24096386,657b66ea316d21385b68909f,,,,,,,,,,,1428.2569,1429.2612,,,1429.762,1430.0106,,120,120,,,,,,,,,,,,,,,,bars/000.png,bars/mask002.png,,,,,,,,,,,,1,2,,,,,,,0,6,1,6,,,,,,,,,,,1429.2612,1429.762,1430.0106,1435.2292,space,5.2001,,1435.2293,80,25,1436.2293,1436.2293,1436.241,,,,0,23,23,23,1,40,145,,,,,,,,
,,64a1f97573d3517a71ca803f,65af56bf60bcc53ab4af7c3e,2024-01-23_19h07.21.537,bars,2023.2.3,MacIntel,60.24096386,657b66ea316d21385b68909f,,,,,,,,,,,1436.2411,1437.2437,,,1437.7448,1437.9954,,160,-20,,,,,,,,,,,,,,,,bars/005.png,bars/mask008.png,,,,,,,,,,,,2,2,,,,,,,0,4,1,6,,,,,,,,,,,1437.2437,1437.7447,1437.9955,1448.1282,space,10.1158,,1448.1283,30,20,1449.1282,1449.1282,1449.1407,,,,0,24,24,24,1,10,140,,,,,,,,
,,64a1f97573d3517a71ca803f,65af56bf60bcc53ab4af7c3e,2024-01-23_19h07.21.537,bars,2023.2.3,MacIntel,60.24096386,657b66ea316d21385b68909f,,,,,,,,,,,1449.1409,1450.1285,,,1450.6283,1450.8805,,171,171,,,,,,,,,,,,,,,,bars/020.png,bars/mask002.png,,,,,,,,,,,,1,2,,,,,,,0,2,0,1,,,,,,,,,,,1450.1285,1450.6283,1450.8805,1454.2113,space,3.3176,,1454.2113,56,1,1455.2138,1455.2138,1455.2246,,,,0,25,25,25,1,115,170,,,,,,,,
,,64a1f97573d3517a71ca803f,65af56bf60bcc53ab4af7c3e,2024-01-23_19h07.21.537,bars,2023.2.3,MacIntel,60.24096386,657b66ea316d21385b68909f,,,,,,,,,,,1455.2248,1456.2306,,,1456.7283,1456.9783,,99,99,,,,,,,,,,,,,,,,bars/001.png,bars/mask009.png,,,,,,,,,,,,2,2,,,,,,,2,4,4,4,,,,,,,,,,,1456.2307,1456.7283,1456.9783,1462.5786,space,5.5841,,1462.5786,31,14,1463.577,1463.577,1463.5905,,,,0,26,26,26,1,130,85,,,,,,,,
,,64a1f97573d3517a71ca803f,65af56bf60bcc53ab4af7c3e,2024-01-23_19h07.21.537,bars,2023.2.3,MacIntel,60.24096386,657b66ea316d21385b68909f,,,,,,,,,,,1463.5907,1464.5972,,,1465.0941,1465.3443,,66,66,,,,,,,,,,,,,,,,bars/000.png,bars/mask009.png,,,,,,,,,,,,0,1,,,,,,,0,2,0,5,,,,,,,,,,,1464.5972,1465.0936,1465.3443,1468.5442,space,3.1844,,1468.5442,26,79,1469.5447,1469.5448,1469.5573,,,,0,27,27,27,1,40,145,,,,,,,,
,,64a1f97573d3517a71ca803f,65af56bf60bcc53ab4af7c3e,2024-01-23_19h07.21.537,bars,2023.2.3,MacIntel,60.24096386,657b66ea316d21385b68909f,,,,,,,,,,,1469.5576,1470.5609,,,1471.0621,1471.3117,,116,116,,,,,,,,,,,,,,,,bars/004.png,bars/mask008.png,,,,,,,,,,,,3,2,,,,,,,2,4,1,4,,,,,,,,,,,1470.561,1471.062,1471.3117,1474.0618,space,2.7341,,1474.0619,89,9,1475.0615,1475.0615,1475.0722,,,,0,28,28,28,1,25,125,,,,,,,,
,,64a1f97573d3517a71ca803f,65af56bf60bcc53ab4af7c3e,2024-01-23_19h07.21.537,bars,2023.2.3,MacIntel,60.24096386,657b66ea316d21385b68909f,,,,,,,,,,,1475.0723,1476.0601,,,1476.5635,1476.8137,,80,80,,,,,,,,,,,,,,,,bars/024.png,bars/mask000.png,,,,,,,,,,,,0,1,,,,,,,0,2,0,3,,,,,,,,,,,1476.0601,1476.5635,1476.8137,1477.9942,space,1.1687,,1477.9942,40,90,1478.993,1478.9931,1478.998,,,,0,29,29,29,1,120,170,,,,,,,,
,,64a1f97573d3517a71ca803f,65af56bf60bcc53ab4af7c3e,2024-01-23_19h07.21.537,bars,2023.2.3,MacIntel,60.24096386,657b66ea316d21385b68909f,,,,,,,,,,,1478.9983,1479.9954,,,1480.4968,1480.7467,,18,198,,,,,,,,,,,,,,,,bars/040.png,bars/mask001.png,,,,,,,,,,,,3,2,,,,,,,0,4,0,6,,,,,,,,,,,1479.9954,1480.4968,1480.7467,1487.2119,space,6.4501,,1487.2119,58,13,1488.2118,1488.2118,1488.2245,,,,0,30,30,30,1,140,5,,,,,,,,
,,64a1f97573d3517a71ca803f,65af56bf60bcc53ab4af7c3e,2024-01-23_19h07.21.537,bars,2023.2.3,MacIntel,60.24096386,657b66ea316d21385b68909f,,,,,,,,,,,1488.2247,1489.2284,,,1489.7286,1489.9783,,177,177,,,,,,,,,,,,,,,,bars/046.png,bars/mask003.png,,,,,,,,,,,,0,1,,,,,,,0,2,1,1,,,,,,,,,,,1489.2284,1489.7286,1489.9783,1497.1259,space,7.1341,,1497.1259,22,88,1498.1273,1498.1273,1498.1407,,,,0,31,31,31,1,155,85,,,,,,,,
,,64a1f97573d3517a71ca803f,65af56bf60bcc53ab4af7c3e,2024-01-23_19h07.21.537,bars,2023.2.3,MacIntel,60.24096386,657b66ea316d21385b68909f,,,,,,,,,,,1498.1408,1499.1303,,,1499.6289,1499.8786,,98,98,,,,,,,,,,,,,,,,bars/045.png,bars/mask003.png,,,,,,,,,,,,1,1,,,,,,,2,4,1,5,,,,,,,,,,,1499.1304,1499.6287,1499.8786,1505.4791,space,5.5928,,1505.4792,2,88,1506.4762,1506.4762,1506.4892,,,,0,32,32,32,1,100,10,,,,,,,,
,,64a1f97573d3517a71ca803f,65af56bf60bcc53ab4af7c3e,2024-01-23_19h07.21.537,bars,2023.2.3,MacIntel,60.24096386,657b66ea316d21385b68909f,,,,,,,,,,,1506.4894,1507.4967,,,1507.9953,1508.2432,,69,69,,,,,,,,,,,,,,,,bars/047.png,bars/mask009.png,,,,,,,,,,,,4,2,,,,,,,4,2,2,4,,,,,,,,,,,1507.4968,1507.9953,1508.2433,1509.262,space,1.0006,,1509.2621,54,1,1510.2618,1510.2618,1510.2647,,,,0,33,33,33,1,15,70,,,,,,,,
,,64a1f97573d3517a71ca803f,65af56bf60bcc53ab4af7c3e,2024-01-23_19h07.21.537,bars,2023.2.3,MacIntel,60.24096386,657b66ea316d21385b68909f,,,,,,,,,,,1510.265,1511.2617,,,1511.7619,1512.0094,,13,193,,,,,,,,,,,,,,,,bars/012.png,bars/mask002.png,,,,,,,,,,,,3,2,,,,,,,2,4,0,3,,,,,,,,,,,1511.2617,1511.7619,1512.0098,1515.3633,space,3.3359,,1515.3635,77,2,1516.3604,1516.3604,1516.3729,,,,0,34,34,34,1,90,15,,,,,,,,
,,64a1f97573d3517a71ca803f,65af56bf60bcc53ab4af7c3e,2024-01-23_19h07.21.537,bars,2023.2.3,MacIntel,60.24096386,657b66ea316d21385b68909f,,,,,,,,,,,1516.3731,1517.3618,,,1517.8621,1518.1115,,7,7,,,,,,,,,,,,,,,,bars/014.png,bars/mask004.png,,,,,,,,,,,,5,2,,,,,,,0,6,0,6,,,,,,,,,,,1517.3619,1517.8618,1518.1115,1524.7114,space,6.5846,,1524.7114,73,7,1525.7091,1525.7091,1525.7227,,,,0,35,35,35,1,80,0,,,,,,,,
,,64a1f97573d3517a71ca803f,65af56bf60bcc53ab4af7c3e,2024-01-23_19h07.21.537,bars,2023.2.3,MacIntel,60.24096386,657b66ea316d21385b68909f,,,,,,,,,,,1525.7229,1526.7124,,,1527.2102,1527.4597,,160,-20,,,,,,,,,,,,,,,,bars/000.png,bars/mask001.png,,,,,,,,,,,,2,2,,,,,,,0,4,0,3,,,,,,,,,,,1526.7125,1527.2102,1527.4597,1533.9793,space,6.4993,,1533.9793,60,15,1534.9773,1534.9773,1534.9893,,,,0,36,36,36,1,40,145,,,,,,,,
,,64a1f97573d3517a71ca803f,65af56bf60bcc53ab4af7c3e,2024-01-23_19h07.21.537,bars,2023.2.3,MacIntel,60.24096386,657b66ea316d21385b68909f,,,,,,,,,,,1534.9894,1535.9926,,,1536.4927,1536.746,,99,99,,,,,,,,,,,,,,,,bars/037.png,bars/mask001.png,,,,,,,,,,,,4,2,,,,,,,0,6,0,5,,,,,,,,,,,1535.9927,1536.4923,1536.746,1540.8135,space,4.0505,,1540.8135,51,6,1541.8126,1541.8127,1541.823,,,,0,37,37,37,1,150,105,,,,,,,,
,,64a1f97573d3517a71ca803f,65af56bf60bcc53ab4af7c3e,2024-01-23_19h07.21.537,bars,2023.2.3,MacIntel,60.24096386,657b66ea316d21385b68909f,,,,,,,,,,,1541.8231,1542.812,,,1543.3088,1543.559,,46,46,,,,,,,,,,,,,,,,bars/036.png,bars/mask008.png,,,,,,,,,,,,1,2,,,,,,,0,4,0,6,,,,,,,,,,,1542.8122,1543.3088,1543.5591,1547.3124,space,3.7339,,1547.3126,81,26,1548.3125,1548.3125,1548.323,,,,0,38,38,38,1,145,20,,,,,,,,
,,64a1f97573d3517a71ca803f,65af56bf60bcc53ab4af7c3e,2024-01-23_19h07.21.537,bars,2023.2.3,MacIntel,60.24096386,657b66ea316d21385b68909f,,,,,,,,,,,1548.3232,1549.3126,,,1549.8091,1550.0625,,76,76,,,,,,,,,,,,,,,,bars/030.png,bars/mask005.png,,,,,,,,,,,,1,2,,,,,,,2,2,1,2,,,,,,,,,,,1549.3131,1549.8087,1550.0626,1556.31,space,6.235,,1556.31,64,11,1557.3118,1557.3118,1557.323,,,,0,39,39,39,1,140,65,,,,,,,,
,,64a1f97573d3517a71ca803f,65af56bf60bcc53ab4af7c3e,2024-01-23_19h07.21.537,bars,2023.2.3,MacIntel,60.24096386,657b66ea316d21385b68909f,,,,,,,,,,,1557.3232,1558.3125,,,1558.8126,1559.0589,,13,13,,,,,,,,,,,,,,,,bars/014.png,bars/mask009.png,,,,,,,,,,,,2,2,,,,,,,4,4,4,3,,,,,,,,,,,1558.3125,1558.8126,1559.0589,1563.2435,space,4.1667,,1563.2435,67,13,1564.2436,1564.2436,1564.256,,,,0,40,40,40,1,80,0,,,,,,,,
,,64a1f97573d3517a71ca803f,65af56bf60bcc53ab4af7c3e,2024-01-23_19h07.21.537,bars,2023.2.3,MacIntel,60.24096386,657b66ea316d21385b68909f,,,,,,,,,,,1564.2562,1565.2595,,,1565.7625,1566.009,,35,35,,,,,,,,,,,,,,,,bars/035.png,bars/mask001.png,,,,,,,,,,,,0,2,,,,,,,6,2,5,3,,,,,,,,,,,1565.2595,1565.7625,1566.009,1567.7102,space,1.6835,,1567.7102,40,25,1568.7102,1568.7102,1568.711,,,,0,41,41,41,1,175,60,,,,,,,,
,,64a1f97573d3517a71ca803f,65af56bf60bcc53ab4af7c3e,2024-01-23_19h07.21.537,bars,2023.2.3,MacIntel,60.24096386,657b66ea316d21385b68909f,,,,,,,,,,,1568.7114,1569.7108,,,1570.2101,1570.4587,,3,183,,,,,,,,,,,,,,,,bars/024.png,bars/mask005.png,,,,,,,,,,,,2,2,,,,,,,4,4,4,3,,,,,,,,,,,1569.711,1570.2101,1570.4588,1574.2787,space,3.8034,,1574.2787,63,13,1575.2791,1575.2792,1575.2917,,,,0,42,42,42,1,120,170,,,,,,,,
,,64a1f97573d3517a71ca803f,65af56bf60bcc53ab4af7c3e,2024-01-23_19h07.21.537,bars,2023.2.3,MacIntel,60.24096386,657b66ea316d21385b68909f,,,,,,,,,,,1575.2918,1576.2918,,,1576.7957,1577.0448,,177,177,,,,,,,,,,,,,,,,bars/015.png,bars/mask008.png,,,,,,,,,,,,3,2,,,,,,,2,6,4,6,,,,,,,,,,,1576.2918,1576.7956,1577.0448,1579.975,space,2.9209,,1579.975,67,17,1580.9751,1580.9752,1580.9884,,,,0,43,43,43,1,110,160,,,,,,,,
,,64a1f97573d3517a71ca803f,65af56bf60bcc53ab4af7c3e,2024-01-23_19h07.21.537,bars,2023.2.3,MacIntel,60.24096386,657b66ea316d21385b68909f,,,,,,,,,,,1580.9885,1581.9765,,,1582.4752,1582.7272,,158,158,,,,,,,,,,,,,,,,bars/007.png,bars/mask000.png,,,,,,,,,,,,2,1,,,,,,,4,4,5,3,,,,,,,,,,,1581.9765,1582.4752,1582.7272,1588.2759,space,5.5398,,1588.276,17,77,1589.2775,1589.2776,1589.2915,,,,0,44,44,44,1,175,55,,,,,,,,
,,64a1f97573d3517a71ca803f,65af56bf60bcc53ab4af7c3e,2024-01-23_19h07.21.537,bars,2023.2.3,MacIntel,60.24096386,657b66ea316d21385b68909f,,,,,,,,,,,1589.2917,1590.2918,,,1590.7957,1591.0447,,86,86,,,,,,,,,,,,,,,,bars/047.png,bars/mask008.png,,,,,,,,,,,,3,2,,,,,,,6,6,5,6,,,,,,,,,,,1590.2918,1590.7956,1591.0447,1593.7463,space,2.6933,,1593.7463,71,16,1594.7452,1594.7453,1594.759,,,,0,45,45,45,1,15,70,,,,,,,,
,,64a1f97573d3517a71ca803f,65af56bf60bcc53ab4af7c3e,2024-01-23_19h07.21.537,bars,2023.2.3,MacIntel,60.24096386,657b66ea316d21385b68909f,,,,,,,,,,,1594.7593,1595.7605,,,1596.2617,1596.4786,,167,167,,,,,,,,,,,,,,,,bars/048.png,bars/mask007.png,,,,,,,,,,,,4,2,,,,,,,4,4,3,5,,,,,,,,,,,1595.7606,1596.2617,1596.4786,1604.1927,space,7.6986,,1604.1927,63,8,1605.1939,1605.1939,1605.2066,,,,0,46,46,46,1,50,175,,,,,,,,
,,64a1f97573d3517a71ca803f,65af56bf60bcc53ab4af7c3e,2024-01-23_19h07.21.537,bars,2023.2.3,MacIntel,60.24096386,657b66ea316d21385b68909f,,,,,,,,,,,1605.2068,1606.1952,,,1606.6914,1606.929,,165,165,,,,,,,,,,,,,,,,bars/024.png,bars/mask006.png,,,,,,,,,,,,4,2,,,,,,,6,6,6,5,,,,,,,,,,,1606.1953,1606.6914,1606.9291,1612.7419,space,5.8034,,1612.7419,45,5,1613.7443,1613.7444,1613.7568,,,,0,47,47,47,1,120,170,,,,,,,,
,,64a1f97573d3517a71ca803f,65af56bf60bcc53ab4af7c3e,2024-01-23_19h07.21.537,bars,2023.2.3,MacIntel,60.24096386,657b66ea316d21385b68909f,,,,,,,,,,,1613.757,1614.7446,,,1615.2448,1615.4958,,83,83,,,,,,,,,,,,,,,,bars/042.png,bars/mask006.png,,,,,,,,,,,,7,2,,,,,,,4,8,5,9,,,,,,,,,,,1614.7446,1615.2448,1615.4958,1616.2595,space,0.7439,,1616.2595,62,8,1617.2605,1617.2605,1617.2614,,,,0,48,48,48,1,145,75,,,,,,,,
,,64a1f97573d3517a71ca803f,65af56bf60bcc53ab4af7c3e,2024-01-23_19h07.21.537,bars,2023.2.3,MacIntel,60.24096386,657b66ea316d21385b68909f,,,,,,,,,,,1617.2617,1618.2606,,,1618.7623,1619.0099,,160,160,,,,,,,,,,,,,,,,bars/040.png,bars/mask007.png,,,,,,,,,,,,1,1,,,,,,,2,10,2,10,,,,,,,,,,,1618.2606,1618.7623,1619.0099,1625.1077,space,6.0814,,1625.1078,20,25,1626.1082,1626.1083,1626.1223,,,,0,49,49,49,1,140,5,,,,,,,,
,,64a1f97573d3517a71ca803f,65af56bf60bcc53ab4af7c3e,2024-01-23_19h07.21.537,bars,2023.2.3,MacIntel,60.24096386,657b66ea316d21385b68909f,,,,,,,,,,,,,,,,,,,,,,,,,,,,,,,,,,,,,,,,,,,,,,,,,,,,,,,,,,,,,,,,,,,,,,,,,,,,,,,,,,,,,,,,,,,,,1626.1224,1686.1249,0,1,1,0,1,sequence_tables/blk022.csv
,,64a1f97573d3517a71ca803f,65af56bf60bcc53ab4af7c3e,2024-01-23_19h07.21.537,bars,2023.2.3,MacIntel,60.24096386,657b66ea316d21385b68909f,,,,,,,,,,,1687.298,1688.2945,,,1688.7945,1689.0423,,96,96,,,,,,,,,,,,,,,,bars/019.png,bars/mask001.png,,,,,,,,,,,,5,2,,,,,,,7,6,8,7,,,,,,1686.1375,1687.2919,space,1.1451,,1688.2945,1688.7944,1689.0423,1691.2231,space,2.1706,,1691.2231,51,9,1692.225,1692.225,1692.2383,,,,0,0,0,0,1,45,105,,,,,,,,
,,64a1f97573d3517a71ca803f,65af56bf60bcc53ab4af7c3e,2024-01-23_19h07.21.537,bars,2023.2.3,MacIntel,60.24096386,657b66ea316d21385b68909f,,,,,,,,,,,1692.2385,1693.2429,,,1693.741,1693.9903,,97,97,,,,,,,,,,,,,,,,bars/023.png,bars/mask009.png,,,,,,,,,,,,1,2,,,,,,,5,4,7,3,,,,,,,,,,,1693.243,1693.7409,1693.9903,1695.3117,space,1.3007,,1695.3118,77,18,1696.307,1696.307,1696.3208,,,,0,1,1,1,1,20,115,,,,,,,,
,,64a1f97573d3517a71ca803f,65af56bf60bcc53ab4af7c3e,2024-01-23_19h07.21.537,bars,2023.2.3,MacIntel,60.24096386,657b66ea316d21385b68909f,,,,,,,,,,,1696.3211,1697.3248,,,1697.8239,1698.0738,,59,59,,,,,,,,,,,,,,,,bars/021.png,bars/mask000.png,,,,,,,,,,,,1,2,,,,,,,3,2,2,2,,,,,,,,,,,1697.3249,1697.8239,1698.0738,1699.3581,space,1.2572,,1699.3581,84,11,1700.3571,1700.3571,1700.3711,,,,0,2,2,2,1,155,70,,,,,,,,
,,64a1f97573d3517a71ca803f,65af56bf60bcc53ab4af7c3e,2024-01-23_19h07.21.537,bars,2023.2.3,MacIntel,60.24096386,657b66ea316d21385b68909f,,,,,,,,,,,1700.3712,1701.3593,,,1701.8581,1702.107,,171,171,,,,,,,,,,,,,,,,bars/044.png,bars/mask009.png,,,,,,,,,,,,0,2,,,,,,,1,0,0,0,,,,,,,,,,,1701.3594,1701.8581,1702.107,1704.4736,space,2.3452,,1704.4738,84,16,1705.475,1705.4751,1705.4874,,,,0,3,3,3,1,75,155,,,,,,,,
,,64a1f97573d3517a71ca803f,65af56bf60bcc53ab4af7c3e,2024-01-23_19h07.21.537,bars,2023.2.3,MacIntel,60.24096386,657b66ea316d21385b68909f,,,,,,,,,,,1705.4875,1706.4917,,,1706.9941,1707.2414,,79,79,,,,,,,,,,,,,,,,bars/046.png,bars/mask000.png,,,,,,,,,,,,0,2,,,,,,,3,0,4,0,,,,,,,,,,,1706.492,1706.994,1707.2414,1715.4739,space,8.2166,,1715.4739,76,6,1716.4737,1716.4738,1716.4867,,,,0,4,4,4,1,155,85,,,,,,,,
,,64a1f97573d3517a71ca803f,65af56bf60bcc53ab4af7c3e,2024-01-23_19h07.21.537,bars,2023.2.3,MacIntel,60.24096386,657b66ea316d21385b68909f,,,,,,,,,,,1716.4868,1717.4893,,,1717.9944,1718.2421,,18,18,,,,,,,,,,,,,,,,bars/036.png,bars/mask006.png,,,,,,,,,,,,1,2,,,,,,,1,2,2,1,,,,,,,,,,,1717.4893,1717.9943,1718.2421,1720.3259,space,2.0674,,1720.326,53,2,1721.3236,1721.3236,1721.3365,,,,0,5,5,5,1,145,20,,,,,,,,
,,64a1f97573d3517a71ca803f,65af56bf60bcc53ab4af7c3e,2024-01-23_19h07.21.537,bars,2023.2.3,MacIntel,60.24096386,657b66ea316d21385b68909f,,,,,,,,,,,1721.3367,1722.3268,,,1722.8261,1723.075,,81,81,,,,,,,,,,,,,,,,bars/038.png,bars/mask008.png,,,,,,,,,,,,3,2,,,,,,,0,4,0,5,,,,,,,,,,,1722.3268,1722.826,1723.075,1730.5571,space,7.4702,,1730.5572,84,11,1731.5569,1731.557,1731.5707,,,,0,6,6,6,1,165,70,,,,,,,,
,,64a1f97573d3517a71ca803f,65af56bf60bcc53ab4af7c3e,2024-01-23_19h07.21.537,bars,2023.2.3,MacIntel,60.24096386,657b66ea316d21385b68909f,,,,,,,,,,,1731.5709,1732.561,,,1733.0594,1733.3096,,98,98,,,,,,,,,,,,,,,,bars/041.png,bars/mask006.png,,,,,,,,,,,,3,2,,,,,,,2,6,1,5,,,,,,,,,,,1732.5611,1733.0593,1733.3096,1735.1732,space,1.8511,,1735.1732,78,13,1736.1727,1736.1728,1736.1732,,,,0,7,7,7,1,20,85,,,,,,,,
,,64a1f97573d3517a71ca803f,65af56bf60bcc53ab4af7c3e,2024-01-23_19h07.21.537,bars,2023.2.3,MacIntel,60.24096386,657b66ea316d21385b68909f,,,,,,,,,,,1736.1734,1737.1731,,,1737.6756,1737.9253,,96,96,,,,,,,,,,,,,,,,bars/041.png,bars/mask006.png,,,,,,,,,,,,1,2,,,,,,,4,4,3,2,,,,,,,,,,,1737.1732,1737.6756,1737.9253,1744.7605,space,6.8274,,1744.7605,76,11,1745.7601,1745.7601,1745.7729,,,,0,8,8,8,1,20,85,,,,,,,,
,,64a1f97573d3517a71ca803f,65af56bf60bcc53ab4af7c3e,2024-01-23_19h07.21.537,bars,2023.2.3,MacIntel,60.24096386,657b66ea316d21385b68909f,,,,,,,,,,,1745.7732,1746.7769,,,1747.275,1747.5222,,130,130,,,,,,,,,,,,,,,,bars/043.png,bars/mask006.png,,,,,,,,,,,,1,2,,,,,,,2,2,2,1,,,,,,,,,,,1746.7769,1747.275,1747.5222,1753.824,space,6.2767,,1753.8241,80,0,1754.8267,1754.8268,1754.8393,,,,0,9,9,9,1,30,130,,,,,,,,
,,64a1f97573d3517a71ca803f,65af56bf60bcc53ab4af7c3e,2024-01-23_19h07.21.537,bars,2023.2.3,MacIntel,60.24096386,657b66ea316d21385b68909f,,,,,,,,,,,1754.8395,1755.8409,,,1756.3391,1756.5933,,96,96,,,,,,,,,,,,,,,,bars/006.png,bars/mask006.png,,,,,,,,,,,,3,2,,,,,,,0,4,0,3,,,,,,,,,,,1755.8409,1756.3391,1756.5934,1758.5408,space,1.9368,,1758.5408,61,4,1759.5424,1759.5425,1759.5536,,,,0,10,10,10,1,35,100,,,,,,,,
,,64a1f97573d3517a71ca803f,65af56bf60bcc53ab4af7c3e,2024-01-23_19h07.21.537,bars,2023.2.3,MacIntel,60.24096386,657b66ea316d21385b68909f,,,,,,,,,,,1759.5537,1760.5576,,,1761.0577,1761.3076,,98,98,,,,,,,,,,,,,,,,bars/049.png,bars/mask004.png,,,,,,,,,,,,3,2,,,,,,,0,6,1,6,,,,,,,,,,,1760.5576,1761.0577,1761.3076,1764.8917,space,3.5683,,1764.8918,62,17,1765.8895,1765.8895,1765.902,,,,0,11,11,11,1,160,115,,,,,,,,
,,64a1f97573d3517a71ca803f,65af56bf60bcc53ab4af7c3e,2024-01-23_19h07.21.537,bars,2023.2.3,MacIntel,60.24096386,657b66ea316d21385b68909f,,,,,,,,,,,1765.9023,1766.8912,,,1767.3898,1767.6395,,17,197,,,,,,,,,,,,,,,,bars/016.png,bars/mask009.png,,,,,,,,,,,,0,1,,,,,,,0,4,2,3,,,,,,,,,,,1766.8912,1767.3893,1767.6396,1774.0409,space,6.3833,,1774.0409,23,32,1775.0386,1775.0386,1775.0514,,,,0,12,12,12,1,40,165,,,,,,,,
,,64a1f97573d3517a71ca803f,65af56bf60bcc53ab4af7c3e,2024-01-23_19h07.21.537,bars,2023.2.3,MacIntel,60.24096386,657b66ea316d21385b68909f,,,,,,,,,,,1775.0516,1776.0583,,,1776.5569,1776.8069,,96,96,,,,,,,,,,,,,,,,bars/018.png,bars/mask009.png,,,,,,,,,,,,4,2,,,,,,,0,6,0,5,,,,,,,,,,,1776.0583,1776.5569,1776.8069,1780.6579,space,3.8344,,1780.6579,54,6,1781.6597,1781.6597,1781.6707,,,,0,13,13,13,1,150,90,,,,,,,,
,,64a1f97573d3517a71ca803f,65af56bf60bcc53ab4af7c3e,2024-01-23_19h07.21.537,bars,2023.2.3,MacIntel,60.24096386,657b66ea316d21385b68909f,,,,,,,,,,,1781.6709,1782.6724,,,1783.1741,1783.424,,10,10,,,,,,,,,,,,,,,,bars/048.png,bars/mask007.png,,,,,,,,,,,,4,2,,,,,,,2,8,1,8,,,,,,,,,,,1782.6724,1783.174,1783.4241,1787.5382,space,4.0984,,1787.5382,40,15,1788.5388,1788.5389,1788.5523,,,,0,14,14,14,1,50,175,,,,,,,,
,,64a1f97573d3517a71ca803f,65af56bf60bcc53ab4af7c3e,2024-01-23_19h07.21.537,bars,2023.2.3,MacIntel,60.24096386,657b66ea316d21385b68909f,,,,,,,,,,,1788.5525,1789.5556,,,1790.0577,1790.3078,,171,-9,,,,,,,,,,,,,,,,bars/003.png,bars/mask000.png,,,,,,,,,,,,0,2,,,,,,,0,6,1,5,,,,,,,,,,,1789.5556,1790.0576,1790.3079,1795.839,space,5.5182,,1795.8391,34,31,1796.8401,1796.8402,1796.8529,,,,0,15,15,15,1,25,140,,,,,,,,
,,64a1f97573d3517a71ca803f,65af56bf60bcc53ab4af7c3e,2024-01-23_19h07.21.537,bars,2023.2.3,MacIntel,60.24096386,657b66ea316d21385b68909f,,,,,,,,,,,1796.853,1797.8571,,,1798.3564,1798.6092,,109,109,,,,,,,,,,,,,,,,bars/028.png,bars/mask003.png,,,,,,,,,,,,6,2,,,,,,,0,8,1,9,,,,,,,,,,,1797.8571,1798.3564,1798.6092,1802.507,space,3.8849,,1802.507,64,11,1803.5069,1803.507,1803.5185,,,,0,16,16,16,1,45,120,,,,,,,,
,,64a1f97573d3517a71ca803f,65af56bf60bcc53ab4af7c3e,2024-01-23_19h07.21.537,bars,2023.2.3,MacIntel,60.24096386,657b66ea316d21385b68909f,,,,,,,,,,,1803.5187,1804.524,,,1805.0234,1805.2736,,110,110,,,,,,,,,,,,,,,,bars/028.png,bars/mask006.png,,,,,,,,,,,,7,2,,,,,,,2,10,1,10,,,,,,,,,,,1804.524,1805.0234,1805.2736,1808.0557,space,2.7662,,1808.0558,65,10,1809.0553,1809.0553,1809.0673,,,,0,17,17,17,1,45,120,,,,,,,,
,,64a1f97573d3517a71ca803f,65af56bf60bcc53ab4af7c3e,2024-01-23_19h07.21.537,bars,2023.2.3,MacIntel,60.24096386,657b66ea316d21385b68909f,,,,,,,,,,,1809.0674,1810.0568,,,1810.5555,1810.806,,22,22,,,,,,,,,,,,,,,,bars/014.png,bars/mask006.png,,,,,,,,,,,,2,2,,,,,,,4,10,2,9,,,,,,,,,,,1810.0568,1810.5555,1810.8061,1816.0087,space,5.1842,,1816.0087,58,22,1817.0052,1817.0052,1817.0145,,,,0,18,18,18,1,80,0,,,,,,,,
,,64a1f97573d3517a71ca803f,65af56bf60bcc53ab4af7c3e,2024-01-23_19h07.21.537,bars,2023.2.3,MacIntel,60.24096386,657b66ea316d21385b68909f,,,,,,,,,,,1817.0147,1818.0055,,,1818.5062,1818.7579,,76,76,,,,,,,,,,,,,,,,bars/038.png,bars/mask007.png,,,,,,,,,,,,8,2,,,,,,,2,10,3,10,,,,,,,,,,,1818.0055,1818.5062,1818.7579,1819.589,space,0.8169,,1819.5891,89,6,1820.5889,1820.5889,1820.5903,,,,0,19,19,19,1,165,70,,,,,,,,
,,64a1f97573d3517a71ca803f,65af56bf60bcc53ab4af7c3e,2024-01-23_19h07.21.537,bars,2023.2.3,MacIntel,60.24096386,657b66ea316d21385b68909f,,,,,,,,,,,1820.5907,1821.5905,,,1822.0912,1822.3423,,39,39,,,,,,,,,,,,,,,,bars/025.png,bars/mask008.png,,,,,,,,,,,,8,2,,,,,,,0,8,0,8,,,,,,,,,,,1821.5911,1822.0912,1822.3423,1824.6636,space,2.3104,,1824.6636,66,1,1825.6554,1825.6554,1825.6684,,,,0,20,20,20,1,105,40,,,,,,,,
,,64a1f97573d3517a71ca803f,65af56bf60bcc53ab4af7c3e,2024-01-23_19h07.21.537,bars,2023.2.3,MacIntel,60.24096386,657b66ea316d21385b68909f,,,,,,,,,,,1825.6686,1826.6592,,,1827.1574,1827.4052,,61,61,,,,,,,,,,,,,,,,bars/034.png,bars/mask004.png,,,,,,,,,,,,9,2,,,,,,,0,10,3,10,,,,,,,,,,,1826.6592,1827.1574,1827.4052,1828.1435,space,0.7191,,1828.1436,64,4,1829.1402,1829.1402,1829.1409,,,,0,21,21,21,1,125,65,,,,,,,,
,,64a1f97573d3517a71ca803f,65af56bf60bcc53ab4af7c3e,2024-01-23_19h07.21.537,bars,2023.2.3,MacIntel,60.24096386,657b66ea316d21385b68909f,,,,,,,,,,,1829.1416,1830.1386,,,1830.6414,1830.8885,,98,98,,,,,,,,,,,,,,,,bars/001.png,bars/mask003.png,,,,,,,,,,,,5,2,,,,,,,2,10,3,9,,,,,,,,,,,1830.1386,1830.6414,1830.8885,1836.7744,space,5.8659,,1836.7745,32,13,1837.7721,1837.7721,1837.7851,,,,0,22,22,22,1,130,85,,,,,,,,
,,64a1f97573d3517a71ca803f,65af56bf60bcc53ab4af7c3e,2024-01-23_19h07.21.537,bars,2023.2.3,MacIntel,60.24096386,657b66ea316d21385b68909f,,,,,,,,,,,1837.7853,1838.791,,,1839.2921,1839.5413,,96,96,,,,,,,,,,,,,,,,bars/011.png,bars/mask009.png,,,,,,,,,,,,5,2,,,,,,,0,8,0,8,,,,,,,,,,,1838.7911,1839.2921,1839.5413,1846.8596,space,7.31,,1846.8596,64,11,1847.855,1847.855,1847.8681,,,,0,23,23,23,1,160,85,,,,,,,,
,,64a1f97573d3517a71ca803f,65af56bf60bcc53ab4af7c3e,2024-01-23_19h07.21.537,bars,2023.2.3,MacIntel,60.24096386,657b66ea316d21385b68909f,,,,,,,,,,,1847.8683,1848.8735,,,1849.3717,1849.6256,,8,188,,,,,,,,,,,,,,,,bars/022.png,bars/mask007.png,,,,,,,,,,,,6,2,,,,,,,2,10,1,10,,,,,,,,,,,1848.8735,1849.3715,1849.6256,1855.1055,space,5.4682,,1855.1056,87,12,1856.1093,1856.1093,1856.1234,,,,0,24,24,24,1,95,20,,,,,,,,
,,64a1f97573d3517a71ca803f,65af56bf60bcc53ab4af7c3e,2024-01-23_19h07.21.537,bars,2023.2.3,MacIntel,60.24096386,657b66ea316d21385b68909f,,,,,,,,,,,1856.1238,1857.1258,,,1857.622,1857.8737,,53,53,,,,,,,,,,,,,,,,bars/017.png,bars/mask004.png,,,,,,,,,,,,6,2,,,,,,,4,8,3,8,,,,,,,,,,,1857.1258,1857.622,1857.8738,1862.6884,space,4.8018,,1862.6884,88,8,1863.6913,1863.6913,1863.7038,,,,0,25,25,25,1,145,45,,,,,,,,
,,64a1f97573d3517a71ca803f,65af56bf60bcc53ab4af7c3e,2024-01-23_19h07.21.537,bars,2023.2.3,MacIntel,60.24096386,657b66ea316d21385b68909f,,,,,,,,,,,1863.7039,1864.7069,,,1865.2079,1865.4553,,107,107,,,,,,,,,,,,,,,,bars/037.png,bars/mask000.png,,,,,,,,,,,,8,2,,,,,,,6,10,6,9,,,,,,,,,,,1864.7069,1865.2077,1865.4553,1871.0214,space,5.5436,,1871.0217,43,2,1872.0218,1872.0218,1872.0349,,,,0,26,26,26,1,150,105,,,,,,,,
,,64a1f97573d3517a71ca803f,65af56bf60bcc53ab4af7c3e,2024-01-23_19h07.21.537,bars,2023.2.3,MacIntel,60.24096386,657b66ea316d21385b68909f,,,,,,,,,,,1872.0351,1873.0425,,,1873.5425,1873.788,,83,83,,,,,,,,,,,,,,,,bars/021.png,bars/mask008.png,,,,,,,,,,,,6,2,,,,,,,4,10,5,10,,,,,,,,,,,1873.0425,1873.5425,1873.7881,1875.2051,space,1.394,,1875.2051,72,13,1876.2046,1876.2046,1876.2057,,,,0,27,27,27,1,155,70,,,,,,,,
,,64a1f97573d3517a71ca803f,65af56bf60bcc53ab4af7c3e,2024-01-23_19h07.21.537,bars,2023.2.3,MacIntel,60.24096386,657b66ea316d21385b68909f,,,,,,,,,,,1876.2063,1877.2084,,,1877.709,1877.9563,,166,-14,,,,,,,,,,,,,,,,bars/044.png,bars/mask003.png,,,,,,,,,,,,6,2,,,,,,,6,10,7,10,,,,,,,,,,,1877.2086,1877.709,1877.9564,1883.9754,space,6.0111,,1883.9754,89,11,1884.9759,1884.976,1884.9886,,,,0,28,28,28,1,75,155,,,,,,,,
,,64a1f97573d3517a71ca803f,65af56bf60bcc53ab4af7c3e,2024-01-23_19h07.21.537,bars,2023.2.3,MacIntel,60.24096386,657b66ea316d21385b68909f,,,,,,,,,,,1884.9888,1885.9923,,,1886.4911,1886.7389,,24,24,,,,,,,,,,,,,,,,bars/036.png,bars/mask007.png,,,,,,,,,,,,8,2,,,,,,,4,10,4,9,,,,,,,,,,,1885.9923,1886.491,1886.7389,1888.4543,space,1.695,,1888.4544,59,4,1889.4586,1889.4587,1889.4691,,,,0,29,29,29,1,145,20,,,,,,,,
,,64a1f97573d3517a71ca803f,65af56bf60bcc53ab4af7c3e,2024-01-23_19h07.21.537,bars,2023.2.3,MacIntel,60.24096386,657b66ea316d21385b68909f,,,,,,,,,,,1889.4693,1890.4578,,,1890.9574,1891.2055,,51,51,,,,,,,,,,,,,,,,bars/034.png,bars/mask008.png,,,,,,,,,,,,4,2,,,,,,,6,8,6,8,,,,,,,,,,,1890.4578,1890.9571,1891.2055,1895.7762,space,4.5527,,1895.7762,74,14,1896.771,1896.771,1896.7844,,,,0,30,30,30,1,125,65,,,,,,,,
,,64a1f97573d3517a71ca803f,65af56bf60bcc53ab4af7c3e,2024-01-23_19h07.21.537,bars,2023.2.3,MacIntel,60.24096386,657b66ea316d21385b68909f,,,,,,,,,,,1896.7846,1897.7739,,,1898.2709,1898.5258,,113,113,,,,,,,,,,,,,,,,bars/049.png,bars/mask003.png,,,,,,,,,,,,6,2,,,,,,,4,6,5,6,,,,,,,,,,,1897.7739,1898.2709,1898.5258,1901.2399,space,2.7053,,1901.2399,47,2,1902.2413,1902.2413,1902.2538,,,,0,31,31,31,1,160,115,,,,,,,,
,,64a1f97573d3517a71ca803f,65af56bf60bcc53ab4af7c3e,2024-01-23_19h07.21.537,bars,2023.2.3,MacIntel,60.24096386,657b66ea316d21385b68909f,,,,,,,,,,,1902.254,1903.255,,,1903.7556,1904.0057,,32,32,,,,,,,,,,,,,,,,bars/031.png,bars/mask008.png,,,,,,,,,,,,5,2,,,,,,,2,8,1,6,,,,,,,,,,,1903.255,1903.7556,1904.0057,1910.1401,space,6.1175,,1910.1402,88,3,1911.139,1911.139,1911.151,,,,0,32,32,32,1,120,35,,,,,,,,
,,64a1f97573d3517a71ca803f,65af56bf60bcc53ab4af7c3e,2024-01-23_19h07.21.537,bars,2023.2.3,MacIntel,60.24096386,657b66ea316d21385b68909f,,,,,,,,,,,1911.1512,1912.1391,,,1912.6377,1912.8912,,114,114,,,,,,,,,,,,,,,,bars/023.png,bars/mask005.png,,,,,,,,,,,,6,2,,,,,,,0,6,0,6,,,,,,,,,,,1912.1391,1912.6376,1912.8912,1919.3547,space,6.4504,,1919.3547,86,1,1920.3535,1920.3541,1920.3672,,,,0,33,33,33,1,20,115,,,,,,,,
,,64a1f97573d3517a71ca803f,65af56bf60bcc53ab4af7c3e,2024-01-23_19h07.21.537,bars,2023.2.3,MacIntel,60.24096386,657b66ea316d21385b68909f,,,,,,,,,,,1920.3675,1921.3723,,,1921.8713,1922.1207,,47,47,,,,,,,,,,,,,,,,bars/029.png,bars/mask001.png,,,,,,,,,,,,8,2,,,,,,,2,8,3,9,,,,,,,,,,,1921.3723,1921.8709,1922.1207,1924.3058,space,2.1671,,1924.3058,43,2,1925.308,1925.308,1925.3184,,,,0,34,34,34,1,90,45,,,,,,,,
,,64a1f97573d3517a71ca803f,65af56bf60bcc53ab4af7c3e,2024-01-23_19h07.21.537,bars,2023.2.3,MacIntel,60.24096386,657b66ea316d21385b68909f,,,,,,,,,,,1925.3185,1926.322,,,1926.8222,1927.0724,,70,70,,,,,,,,,,,,,,,,bars/010.png,bars/mask008.png,,,,,,,,,,,,5,2,,,,,,,0,10,0,9,,,,,,,,,,,1926.322,1926.8221,1927.0724,1929.4573,space,2.3701,,1929.4573,85,15,1930.4555,1930.4555,1930.4679,,,,0,35,35,35,1,165,55,,,,,,,,
,,64a1f97573d3517a71ca803f,65af56bf60bcc53ab4af7c3e,2024-01-23_19h07.21.537,bars,2023.2.3,MacIntel,60.24096386,657b66ea316d21385b68909f,,,,,,,,,,,1930.468,1931.4725,,,1931.9721,1932.2223,,144,144,,,,,,,,,,,,,,,,bars/000.png,bars/mask006.png,,,,,,,,,,,,9,2,,,,,,,0,8,0,9,,,,,,,,,,,1931.4725,1931.9721,1932.2223,1942.0207,space,9.7843,,1942.0207,76,1,1943.0223,1943.0223,1943.0349,,,,0,36,36,36,1,40,145,,,,,,,,
,,64a1f97573d3517a71ca803f,65af56bf60bcc53ab4af7c3e,2024-01-23_19h07.21.537,bars,2023.2.3,MacIntel,60.24096386,657b66ea316d21385b68909f,,,,,,,,,,,1943.0352,1944.0389,,,1944.5391,1944.7883,,93,93,,,,,,,,,,,,,,,,bars/011.png,bars/mask005.png,,,,,,,,,,,,4,2,,,,,,,2,6,3,6,,,,,,,,,,,1944.0389,1944.5391,1944.7883,1946.957,space,2.1524,,1946.9571,67,8,1947.9557,1947.9558,1947.9674,,,,0,37,37,37,1,160,85,,,,,,,,
,,64a1f97573d3517a71ca803f,65af56bf60bcc53ab4af7c3e,2024-01-23_19h07.21.537,bars,2023.2.3,MacIntel,60.24096386,657b66ea316d21385b68909f,,,,,,,,,,,1947.9675,1948.9553,,,1949.4557,1949.7057,,10,190,,,,,,,,,,,,,,,,bars/040.png,bars/mask004.png,,,,,,,,,,,,6,2,,,,,,,4,8,4,7,,,,,,,,,,,1948.9553,1949.4556,1949.7057,1954.4209,space,4.7018,,1954.4209,50,5,1955.4219,1955.4219,1955.4341,,,,0,38,38,38,1,140,5,,,,,,,,
,,64a1f97573d3517a71ca803f,65af56bf60bcc53ab4af7c3e,2024-01-23_19h07.21.537,bars,2023.2.3,MacIntel,60.24096386,657b66ea316d21385b68909f,,,,,,,,,,,1955.4343,1956.4224,,,1956.9202,1957.1702,,7,187,,,,,,,,,,,,,,,,bars/004.png,bars/mask005.png,,,,,,,,,,,,0,1,,,,,,,2,6,1,6,,,,,,,,,,,1956.4224,1956.9201,1957.1703,1966.5903,space,9.4019,,1966.5904,18,62,1967.5905,1967.5906,1967.6041,,,,0,39,39,39,1,25,125,,,,,,,,
,,64a1f97573d3517a71ca803f,65af56bf60bcc53ab4af7c3e,2024-01-23_19h07.21.537,bars,2023.2.3,MacIntel,60.24096386,657b66ea316d21385b68909f,,,,,,,,,,,1967.6048,1968.6041,,,1969.1056,1969.3552,,103,103,,,,,,,,,,,,,,,,bars/023.png,bars/mask006.png,,,,,,,,,,,,2,2,,,,,,,0,4,0,3,,,,,,,,,,,1968.6041,1969.1056,1969.3552,1972.9725,space,3.5992,,1972.9726,83,12,1973.9719,1973.9719,1973.9842,,,,0,40,40,40,1,20,115,,,,,,,,
,,64a1f97573d3517a71ca803f,65af56bf60bcc53ab4af7c3e,2024-01-23_19h07.21.537,bars,2023.2.3,MacIntel,60.24096386,657b66ea316d21385b68909f,,,,,,,,,,,1973.9844,1974.9723,,,1975.4697,1975.7197,,94,94,,,,,,,,,,,,,,,,bars/011.png,bars/mask000.png,,,,,,,,,,,,4,2,,,,,,,2,6,1,5,,,,,,,,,,,1974.9723,1975.4697,1975.7202,1978.9207,space,3.1834,,1978.9207,66,9,1979.9213,1979.9214,1979.9333,,,,0,41,41,41,1,160,85,,,,,,,,
,,64a1f97573d3517a71ca803f,65af56bf60bcc53ab4af7c3e,2024-01-23_19h07.21.537,bars,2023.2.3,MacIntel,60.24096386,657b66ea316d21385b68909f,,,,,,,,,,,1979.9335,1980.9223,,,1981.4222,1981.6702,,115,115,,,,,,,,,,,,,,,,bars/003.png,bars/mask008.png,,,,,,,,,,,,1,2,,,,,,,4,8,4,7,,,,,,,,,,,1980.9224,1981.4222,1981.6702,1989.672,space,7.985,,1989.6725,90,25,1990.6727,1990.6728,1990.6841,,,,0,42,42,42,1,25,140,,,,,,,,
,,64a1f97573d3517a71ca803f,65af56bf60bcc53ab4af7c3e,2024-01-23_19h07.21.537,bars,2023.2.3,MacIntel,60.24096386,657b66ea316d21385b68909f,,,,,,,,,,,1990.6843,1991.6723,,,1992.1698,1992.4223,,94,94,,,,,,,,,,,,,,,,bars/006.png,bars/mask001.png,,,,,,,,,,,,4,2,,,,,,,2,6,3,5,,,,,,,,,,,1991.6723,1992.1698,1992.4224,2000.7868,space,8.3492,,2000.7871,59,6,2001.7864,2001.7865,2001.7991,,,,0,43,43,43,1,35,100,,,,,,,,
,,64a1f97573d3517a71ca803f,65af56bf60bcc53ab4af7c3e,2024-01-23_19h07.21.537,bars,2023.2.3,MacIntel,60.24096386,657b66ea316d21385b68909f,,,,,,,,,,,2001.7993,2002.8045,,,2003.3031,2003.5528,,173,-7,,,,,,,,,,,,,,,,bars/044.png,bars/mask000.png,,,,,,,,,,,,4,2,,,,,,,4,8,6,9,,,,,,,,,,,2002.8045,2003.3026,2003.5528,2010.5366,space,6.9669,,2010.5366,82,18,2011.536,2011.536,2011.5496,,,,0,44,44,44,1,75,155,,,,,,,,
,,64a1f97573d3517a71ca803f,65af56bf60bcc53ab4af7c3e,2024-01-23_19h07.21.537,bars,2023.2.3,MacIntel,60.24096386,657b66ea316d21385b68909f,,,,,,,,,,,2011.5497,2012.5385,,,2013.0376,2013.286,,92,92,,,,,,,,,,,,,,,,bars/021.png,bars/mask006.png,,,,,,,,,,,,2,2,,,,,,,2,6,1,6,,,,,,,,,,,2012.5385,2013.0376,2013.2861,2014.8202,space,1.5171,,2014.8202,63,22,2015.823,2015.823,2015.834,,,,0,45,45,45,1,155,70,,,,,,,,
,,64a1f97573d3517a71ca803f,65af56bf60bcc53ab4af7c3e,2024-01-23_19h07.21.537,bars,2023.2.3,MacIntel,60.24096386,657b66ea316d21385b68909f,,,,,,,,,,,2015.8342,2016.8377,,,2017.3365,2017.5896,,81,81,,,,,,,,,,,,,,,,bars/026.png,bars/mask002.png,,,,,,,,,,,,6,2,,,,,,,4,8,4,7,,,,,,,,,,,2016.8377,2017.3365,2017.5897,2019.7551,space,2.1511,,2019.7551,46,4,2020.7523,2020.7524,2020.7636,,,,0,46,46,46,1,35,85,,,,,,,,
,,64a1f97573d3517a71ca803f,65af56bf60bcc53ab4af7c3e,2024-01-23_19h07.21.537,bars,2023.2.3,MacIntel,60.24096386,657b66ea316d21385b68909f,,,,,,,,,,,2020.7639,2021.7524,,,2022.2524,2022.5065,,91,91,,,,,,,,,,,,,,,,bars/011.png,bars/mask006.png,,,,,,,,,,,,4,2,,,,,,,6,6,7,5,,,,,,,,,,,2021.7524,2022.2524,2022.5065,2028.9708,space,6.451,,2028.9709,69,6,2029.9689,2029.9689,2029.9807,,,,0,47,47,47,1,160,85,,,,,,,,
,,64a1f97573d3517a71ca803f,65af56bf60bcc53ab4af7c3e,2024-01-23_19h07.21.537,bars,2023.2.3,MacIntel,60.24096386,657b66ea316d21385b68909f,,,,,,,,,,,2029.9809,2030.9695,,,2031.47,2031.7195,,92,92,,,,,,,,,,,,,,,,bars/009.png,bars/mask006.png,,,,,,,,,,,,6,2,,,,,,,8,8,7,10,,,,,,,,,,,2030.9696,2031.4697,2031.7195,2036.0369,space,4.2998,,2036.0369,77,13,2037.0371,2037.0372,2037.0491,,,,0,48,48,48,1,15,105,,,,,,,,
,,64a1f97573d3517a71ca803f,65af56bf60bcc53ab4af7c3e,2024-01-23_19h07.21.537,bars,2023.2.3,MacIntel,60.24096386,657b66ea316d21385b68909f,,,,,,,,,,,2037.0492,2038.0371,,,2038.5363,2038.7869,,90,90,,,,,,,,,,,,,,,,bars/022.png,bars/mask006.png,,,,,,,,,,,,8,1,,,,,,,10,6,10,6,,,,,,,,,,,2038.0371,2038.5363,2038.7869,2044.389,space,5.5836,,2044.389,5,70,2045.3874,2045.3875,2045.399,,,,0,49,49,49,1,95,20,,,,,,,,
,,64a1f97573d3517a71ca803f,65af56bf60bcc53ab4af7c3e,2024-01-23_19h07.21.537,bars,2023.2.3,MacIntel,60.24096386,657b66ea316d21385b68909f,,,,,,,,,,,,,,,,,,,,,,,,,,,,,,,,,,,,,,,,,,,,,,,,,,,,,,,,,,,,,,,,,,,,,,,,,,,,,,,,,,,,,,,,,,,,,2045.3991,2105.4033,0,2,2,3,1,sequence_tables/blk049.csv
,,64a1f97573d3517a71ca803f,65af56bf60bcc53ab4af7c3e,2024-01-23_19h07.21.537,bars,2023.2.3,MacIntel,60.24096386,657b66ea316d21385b68909f,,,,,,,,,,,2111.1318,2112.1359,,,2112.6191,2112.8701,,91,91,,,,,,,,,,,,,,,,bars/002.png,bars/mask000.png,,,,,,,,,,,,0,2,,,,,,,10,1,8,0,,,,,,2105.4153,2111.1188,space,5.6943,,2112.1359,2112.619,2112.8701,2113.886,space,1.0007,,2113.886,39,6,2114.8862,2114.8862,2114.8896,,,,0,0,0,0,1,130,85,,,,,,,,
,,64a1f97573d3517a71ca803f,65af56bf60bcc53ab4af7c3e,2024-01-23_19h07.21.537,bars,2023.2.3,MacIntel,60.24096386,657b66ea316d21385b68909f,,,,,,,,,,,2114.8898,2115.8841,,,2116.3852,2116.6365,,6,6,,,,,,,,,,,,,,,,bars/024.png,bars/mask000.png,,,,,,,,,,,,0,2,,,,,,,8,0,8,0,,,,,,,,,,,2115.8842,2116.3852,2116.6365,2119.0195,space,2.3675,,2119.0196,66,16,2120.0183,2120.0185,2120.031,,,,0,1,1,1,1,120,170,,,,,,,,
,,64a1f97573d3517a71ca803f,65af56bf60bcc53ab4af7c3e,2024-01-23_19h07.21.537,bars,2023.2.3,MacIntel,60.24096386,657b66ea316d21385b68909f,,,,,,,,,,,2120.0312,2121.0194,,,2121.5211,2121.7709,,111,111,,,,,,,,,,,,,,,,bars/043.png,bars/mask006.png,,,,,,,,,,,,0,2,,,,,,,6,0,5,0,,,,,,,,,,,2121.0194,2121.5211,2121.771,2129.1185,space,7.3316,,2129.1185,81,19,2130.1181,2130.1182,2130.1317,,,,0,2,2,2,1,30,130,,,,,,,,
,,64a1f97573d3517a71ca803f,65af56bf60bcc53ab4af7c3e,2024-01-23_19h07.21.537,bars,2023.2.3,MacIntel,60.24096386,657b66ea316d21385b68909f,,,,,,,,,,,2130.1318,2131.1364,,,2131.6383,2131.8846,,32,32,,,,,,,,,,,,,,,,bars/031.png,bars/mask003.png,,,,,,,,,,,,0,2,,,,,,,4,2,3,0,,,,,,,,,,,2131.1364,2131.6382,2131.885,2134.3364,space,2.4343,,2134.3365,88,3,2135.3352,2135.3352,2135.3361,,,,0,3,3,3,1,120,35,,,,,,,,
,,64a1f97573d3517a71ca803f,65af56bf60bcc53ab4af7c3e,2024-01-23_19h07.21.537,bars,2023.2.3,MacIntel,60.24096386,657b66ea316d21385b68909f,,,,,,,,,,,2135.3364,2136.3364,,,2136.8345,2137.0853,,110,110,,,,,,,,,,,,,,,,bars/024.png,bars/mask000.png,,,,,,,,,,,,3,1,,,,,,,6,0,5,0,,,,,,,,,,,2136.3365,2136.8345,2137.0854,2144.1702,space,7.0657,,2144.1702,10,60,2145.1711,2145.1711,2145.183,,,,0,4,4,4,1,120,170,,,,,,,,
,,64a1f97573d3517a71ca803f,65af56bf60bcc53ab4af7c3e,2024-01-23_19h07.21.537,bars,2023.2.3,MacIntel,60.24096386,657b66ea316d21385b68909f,,,,,,,,,,,2145.1832,2146.1872,,,2146.6843,2146.9379,,101,101,,,,,,,,,,,,,,,,bars/024.png,bars/mask001.png,,,,,,,,,,,,4,1,,,,,,,8,2,10,5,,,,,,,,,,,2146.1874,2146.6838,2146.9379,2150.8683,space,3.9185,,2150.8683,19,69,2151.8687,2151.8688,2151.8809,,,,0,5,5,5,1,120,170,,,,,,,,
,,64a1f97573d3517a71ca803f,65af56bf60bcc53ab4af7c3e,2024-01-23_19h07.21.537,bars,2023.2.3,MacIntel,60.24096386,657b66ea316d21385b68909f,,,,,,,,,,,2151.881,2152.869,,,2153.3673,2153.6181,,43,43,,,,,,,,,,,,,,,,bars/028.png,bars/mask000.png,,,,,,,,,,,,9,1,,,,,,,10,0,10,1,,,,,,,,,,,2152.869,2153.3673,2153.6183,2157.0385,space,3.4007,,2157.0385,2,77,2158.0357,2158.0357,2158.0479,,,,0,6,6,6,1,45,120,,,,,,,,
,,64a1f97573d3517a71ca803f,65af56bf60bcc53ab4af7c3e,2024-01-23_19h07.21.537,bars,2023.2.3,MacIntel,60.24096386,657b66ea316d21385b68909f,,,,,,,,,,,2158.048,2159.0364,,,2159.5348,2159.784,,20,20,,,,,,,,,,,,,,,,bars/033.png,bars/mask000.png,,,,,,,,,,,,8,1,,,,,,,10,0,10,0,,,,,,,,,,,2159.0365,2159.5348,2159.784,2166.0532,space,6.2508,,2166.0532,5,45,2167.0546,2167.0546,2167.065,,,,0,7,7,7,1,25,155,,,,,,,,
,,64a1f97573d3517a71ca803f,65af56bf60bcc53ab4af7c3e,2024-01-23_19h07.21.537,bars,2023.2.3,MacIntel,60.24096386,657b66ea316d21385b68909f,,,,,,,,,,,2167.0652,2168.0542,,,2168.5518,2168.8012,,70,250,,,,,,,,,,,,,,,,bars/044.png,bars/mask002.png,,,,,,,,,,,,7,1,,,,,,,10,0,8,0,,,,,,,,,,,2168.0543,2168.5518,2168.8013,2179.102,space,10.2837,,2179.102,5,85,2180.102,2180.1021,2180.1145,,,,0,8,8,8,1,75,155,,,,,,,,
,,64a1f97573d3517a71ca803f,65af56bf60bcc53ab4af7c3e,2024-01-23_19h07.21.537,bars,2023.2.3,MacIntel,60.24096386,657b66ea316d21385b68909f,,,,,,,,,,,2180.1147,2181.1184,,,2181.6176,2181.867,,177,177,,,,,,,,,,,,,,,,bars/007.png,bars/mask005.png,,,,,,,,,,,,8,1,,,,,,,8,0,9,0,,,,,,,,,,,2181.1184,2181.6172,2181.867,2187.5187,space,5.6344,,2187.5187,2,58,2188.5206,2188.5206,2188.5312,,,,0,9,9,9,1,175,55,,,,,,,,
,,64a1f97573d3517a71ca803f,65af56bf60bcc53ab4af7c3e,2024-01-23_19h07.21.537,bars,2023.2.3,MacIntel,60.24096386,657b66ea316d21385b68909f,,,,,,,,,,,2188.5313,2189.5373,,,2190.0355,2190.2846,,172,-8,,,,,,,,,,,,,,,,bars/035.png,bars/mask005.png,,,,,,,,,,,,6,1,,,,,,,10,2,7,4,,,,,,,,,,,2189.5373,2190.0354,2190.2846,2194.7516,space,4.4508,,2194.7516,3,68,2195.7503,2195.7503,2195.7635,,,,0,10,10,10,1,175,60,,,,,,,,
,,64a1f97573d3517a71ca803f,65af56bf60bcc53ab4af7c3e,2024-01-23_19h07.21.537,bars,2023.2.3,MacIntel,60.24096386,657b66ea316d21385b68909f,,,,,,,,,,,2195.7636,2196.7524,,,2197.254,2197.4999,,175,-5,,,,,,,,,,,,,,,,bars/049.png,bars/mask000.png,,,,,,,,,,,,5,1,,,,,,,10,4,10,4,,,,,,,,,,,2196.7525,2197.2539,2197.5003,2205.3169,space,7.797,,2205.317,15,60,2206.3192,2206.3193,2206.3319,,,,0,11,11,11,1,160,115,,,,,,,,
,,64a1f97573d3517a71ca803f,65af56bf60bcc53ab4af7c3e,2024-01-23_19h07.21.537,bars,2023.2.3,MacIntel,60.24096386,657b66ea316d21385b68909f,,,,,,,,,,,2206.3321,2207.3348,,,2207.835,2208.0833,,164,164,,,,,,,,,,,,,,,,bars/017.png,bars/mask008.png,,,,,,,,,,,,3,1,,,,,,,8,6,7,8,,,,,,,,,,,2207.3348,2207.835,2208.0834,2208.9666,space,0.8602,,2208.9666,19,61,2209.9691,2209.9691,2209.97,,,,0,12,12,12,1,145,45,,,,,,,,
,,64a1f97573d3517a71ca803f,65af56bf60bcc53ab4af7c3e,2024-01-23_19h07.21.537,bars,2023.2.3,MacIntel,60.24096386,657b66ea316d21385b68909f,,,,,,,,,,,2209.9704,2210.967,,,2211.4668,2211.7178,,91,91,,,,,,,,,,,,,,,,bars/022.png,bars/mask007.png,,,,,,,,,,,,5,1,,,,,,,6,4,6,2,,,,,,,,,,,2210.9671,2211.4667,2211.7178,2220.3863,space,8.6495,,2220.3864,4,71,2221.3852,2221.3852,2221.3981,,,,0,13,13,13,1,95,20,,,,,,,,
,,64a1f97573d3517a71ca803f,65af56bf60bcc53ab4af7c3e,2024-01-23_19h07.21.537,bars,2023.2.3,MacIntel,60.24096386,657b66ea316d21385b68909f,,,,,,,,,,,2221.3982,2222.387,,,2222.8873,2223.1347,,8,8,,,,,,,,,,,,,,,,bars/005.png,bars/mask006.png,,,,,,,,,,,,4,1,,,,,,,4,6,4,6,,,,,,,,,,,2222.3871,2222.8872,2223.1347,2232.5342,space,9.3813,,2232.5342,2,48,2233.5343,2233.5344,2233.5468,,,,0,14,14,14,1,10,140,,,,,,,,
,,64a1f97573d3517a71ca803f,65af56bf60bcc53ab4af7c3e,2024-01-23_19h07.21.537,bars,2023.2.3,MacIntel,60.24096386,657b66ea316d21385b68909f,,,,,,,,,,,2233.5469,2234.5508,,,2235.0521,2235.2996,,173,173,,,,,,,,,,,,,,,,bars/010.png,bars/mask006.png,,,,,,,,,,,,4,1,,,,,,,6,4,5,3,,,,,,,,,,,2234.5509,2235.0521,2235.2996,2239.8834,space,4.562,,2239.8834,8,62,2240.8828,2240.8828,2240.8933,,,,0,15,15,15,1,165,55,,,,,,,,
,,64a1f97573d3517a71ca803f,65af56bf60bcc53ab4af7c3e,2024-01-23_19h07.21.537,bars,2023.2.3,MacIntel,60.24096386,657b66ea316d21385b68909f,,,,,,,,,,,2240.8935,2241.8868,,,2242.3842,2242.6351,,18,198,,,,,,,,,,,,,,,,bars/016.png,bars/mask003.png,,,,,,,,,,,,1,1,,,,,,,4,2,3,3,,,,,,,,,,,2241.8868,2242.3842,2242.6351,2250.8,space,8.1498,,2250.8001,22,33,2251.8007,2251.8008,2251.813,,,,0,16,16,16,1,40,165,,,,,,,,
,,64a1f97573d3517a71ca803f,65af56bf60bcc53ab4af7c3e,2024-01-23_19h07.21.537,bars,2023.2.3,MacIntel,60.24096386,657b66ea316d21385b68909f,,,,,,,,,,,2251.8132,2252.8171,,,2253.3181,2253.568,,163,-17,,,,,,,,,,,,,,,,bars/002.png,bars/mask002.png,,,,,,,,,,,,0,1,,,,,,,2,4,2,4,,,,,,,,,,,2252.8171,2253.3181,2253.568,2258.5185,space,4.9364,,2258.5185,33,78,2259.5159,2259.516,2259.5292,,,,0,17,17,17,1,130,85,,,,,,,,
,,64a1f97573d3517a71ca803f,65af56bf60bcc53ab4af7c3e,2024-01-23_19h07.21.537,bars,2023.2.3,MacIntel,60.24096386,657b66ea316d21385b68909f,,,,,,,,,,,2259.5294,2260.5337,,,2261.0356,2261.2868,,1,181,,,,,,,,,,,,,,,,bars/016.png,bars/mask004.png,,,,,,,,,,,,1,2,,,,,,,0,2,0,2,,,,,,,,,,,2260.5337,2261.0356,2261.2868,2268.2829,space,6.9766,,2268.283,39,16,2269.284,2269.2841,2269.297,,,,0,18,18,18,1,40,165,,,,,,,,
,,64a1f97573d3517a71ca803f,65af56bf60bcc53ab4af7c3e,2024-01-23_19h07.21.537,bars,2023.2.3,MacIntel,60.24096386,657b66ea316d21385b68909f,,,,,,,,,,,2269.2971,2270.2864,,,2270.7841,2271.0339,,0,180,,,,,,,,,,,,,,,,bars/011.png,bars/mask007.png,,,,,,,,,,,,0,1,,,,,,,0,4,0,4,,,,,,,,,,,2270.2865,2270.7841,2271.0339,2276.1992,space,5.1415,,2276.1992,20,85,2277.201,2277.2011,2277.2144,,,,0,19,19,19,1,160,85,,,,,,,,
,,64a1f97573d3517a71ca803f,65af56bf60bcc53ab4af7c3e,2024-01-23_19h07.21.537,bars,2023.2.3,MacIntel,60.24096386,657b66ea316d21385b68909f,,,,,,,,,,,2277.2146,2278.2172,,,2278.7173,2278.97,,50,50,,,,,,,,,,,,,,,,bars/047.png,bars/mask000.png,,,,,,,,,,,,1,2,,,,,,,2,2,1,3,,,,,,,,,,,2278.2173,2278.7173,2278.97,2281.8149,space,2.8308,,2281.815,35,20,2282.8171,2282.8171,2282.8302,,,,0,20,20,20,1,15,70,,,,,,,,
,,64a1f97573d3517a71ca803f,65af56bf60bcc53ab4af7c3e,2024-01-23_19h07.21.537,bars,2023.2.3,MacIntel,60.24096386,657b66ea316d21385b68909f,,,,,,,,,,,2282.8303,2283.8187,,,2284.3202,2284.5659,,179,179,,,,,,,,,,,,,,,,bars/032.png,bars/mask007.png,,,,,,,,,,,,2,2,,,,,,,0,4,0,5,,,,,,,,,,,2283.8187,2284.3202,2284.5659,2285.3539,space,0.7688,,2285.3539,54,21,2286.3491,2286.3491,2286.3501,,,,0,21,21,21,1,125,20,,,,,,,,
,,64a1f97573d3517a71ca803f,65af56bf60bcc53ab4af7c3e,2024-01-23_19h07.21.537,bars,2023.2.3,MacIntel,60.24096386,657b66ea316d21385b68909f,,,,,,,,,,,2286.3503,2287.3492,,,2287.8492,2288.099,,93,93,,,,,,,,,,,,,,,,bars/001.png,bars/mask003.png,,,,,,,,,,,,1,2,,,,,,,2,2,2,2,,,,,,,,,,,2287.3493,2287.8491,2288.099,2295.6859,space,7.5675,,2295.6859,37,8,2296.6836,2296.6837,2296.6962,,,,0,22,22,22,1,130,85,,,,,,,,
,,64a1f97573d3517a71ca803f,65af56bf60bcc53ab4af7c3e,2024-01-23_19h07.21.537,bars,2023.2.3,MacIntel,60.24096386,657b66ea316d21385b68909f,,,,,,,,,,,2296.6964,2297.7022,,,2298.2026,2298.4508,,98,98,,,,,,,,,,,,,,,,bars/021.png,bars/mask007.png,,,,,,,,,,,,0,2,,,,,,,0,4,0,2,,,,,,,,,,,2297.7023,2298.2025,2298.4509,2303.9865,space,5.528,,2303.9865,57,28,2304.9863,2304.9863,2304.9971,,,,0,23,23,23,1,155,70,,,,,,,,
,,64a1f97573d3517a71ca803f,65af56bf60bcc53ab4af7c3e,2024-01-23_19h07.21.537,bars,2023.2.3,MacIntel,60.24096386,657b66ea316d21385b68909f,,,,,,,,,,,2304.9972,2306.0029,,,2306.5022,2306.7487,,6,186,,,,,,,,,,,,,,,,bars/014.png,bars/mask002.png,,,,,,,,,,,,1,2,,,,,,,2,2,2,1,,,,,,,,,,,2306.003,2306.502,2306.7488,2314.7485,space,7.9742,,2314.7486,74,6,2315.7498,2315.7498,2315.7623,,,,0,24,24,24,1,80,0,,,,,,,,
,,64a1f97573d3517a71ca803f,65af56bf60bcc53ab4af7c3e,2024-01-23_19h07.21.537,bars,2023.2.3,MacIntel,60.24096386,657b66ea316d21385b68909f,,,,,,,,,,,2315.7625,2316.7507,,,2317.2512,2317.4988,,57,57,,,,,,,,,,,,,,,,bars/010.png,bars/mask001.png,,,,,,,,,,,,5,2,,,,,,,4,4,3,5,,,,,,,,,,,2316.7507,2317.2511,2317.4988,2318.2173,space,0.6984,,2318.2173,72,2,2319.2192,2319.2192,2319.2199,,,,0,25,25,25,1,165,55,,,,,,,,
,,64a1f97573d3517a71ca803f,65af56bf60bcc53ab4af7c3e,2024-01-23_19h07.21.537,bars,2023.2.3,MacIntel,60.24096386,657b66ea316d21385b68909f,,,,,,,,,,,2319.2204,2320.2153,,,2320.7148,2320.9653,,40,40,,,,,,,,,,,,,,,,bars/036.png,bars/mask002.png,,,,,,,,,,,,1,2,,,,,,,6,2,6,3,,,,,,,,,,,2320.2153,2320.7147,2320.9653,2322.6356,space,1.6514,,2322.6356,75,20,2323.6348,2323.6348,2323.6356,,,,0,26,26,26,1,145,20,,,,,,,,
,,64a1f97573d3517a71ca803f,65af56bf60bcc53ab4af7c3e,2024-01-23_19h07.21.537,bars,2023.2.3,MacIntel,60.24096386,657b66ea316d21385b68909f,,,,,,,,,,,2323.6359,2324.6331,,,2325.133,2325.3821,,63,63,,,,,,,,,,,,,,,,bars/035.png,bars/mask005.png,,,,,,,,,,,,4,2,,,,,,,8,4,7,4,,,,,,,,,,,2324.6331,2325.1329,2325.3821,2331.1845,space,5.7951,,2331.1846,68,3,2332.1849,2332.1849,2332.1974,,,,0,27,27,27,1,175,60,,,,,,,,
,,64a1f97573d3517a71ca803f,65af56bf60bcc53ab4af7c3e,2024-01-23_19h07.21.537,bars,2023.2.3,MacIntel,60.24096386,657b66ea316d21385b68909f,,,,,,,,,,,2332.1976,2333.2005,,,2333.7021,2333.9494,,66,66,,,,,,,,,,,,,,,,bars/027.png,bars/mask008.png,,,,,,,,,,,,2,2,,,,,,,10,6,10,5,,,,,,,,,,,2333.2006,2333.7021,2333.9494,2335.9847,space,2.016,,2335.9847,44,16,2336.983,2336.9831,2336.995,,,,0,28,28,28,1,110,50,,,,,,,,
,,64a1f97573d3517a71ca803f,65af56bf60bcc53ab4af7c3e,2024-01-23_19h07.21.537,bars,2023.2.3,MacIntel,60.24096386,657b66ea316d21385b68909f,,,,,,,,,,,2336.9951,2337.9983,,,2338.4982,2338.75,,16,16,,,,,,,,,,,,,,,,bars/031.png,bars/mask000.png,,,,,,,,,,,,1,2,,,,,,,10,4,10,4,,,,,,,,,,,2337.9984,2338.4981,2338.75,2344.4491,space,5.683,,2344.4492,76,19,2345.451,2345.4511,2345.4606,,,,0,29,29,29,1,120,35,,,,,,,,
,,64a1f97573d3517a71ca803f,65af56bf60bcc53ab4af7c3e,2024-01-23_19h07.21.537,bars,2023.2.3,MacIntel,60.24096386,657b66ea316d21385b68909f,,,,,,,,,,,2345.4607,2346.4501,,,2346.9499,2347.2009,,20,200,,,,,,,,,,,,,,,,bars/013.png,bars/mask008.png,,,,,,,,,,,,3,2,,,,,,,8,6,7,5,,,,,,,,,,,2346.4501,2346.9499,2347.2011,2351.2853,space,4.0675,,2351.2853,55,10,2352.2831,2352.2832,2352.2952,,,,0,30,30,30,1,75,10,,,,,,,,
,,64a1f97573d3517a71ca803f,65af56bf60bcc53ab4af7c3e,2024-01-23_19h07.21.537,bars,2023.2.3,MacIntel,60.24096386,657b66ea316d21385b68909f,,,,,,,,,,,2352.2954,2353.2978,,,2353.7985,2354.0497,,97,97,,,,,,,,,,,,,,,,bars/039.png,bars/mask001.png,,,,,,,,,,,,7,2,,,,,,,6,8,6,10,,,,,,,,,,,2353.2978,2353.7985,2354.0498,2359.3673,space,5.3043,,2359.3673,78,8,2360.3673,2360.3674,2360.38,,,,0,31,31,31,1,175,105,,,,,,,,
,,64a1f97573d3517a71ca803f,65af56bf60bcc53ab4af7c3e,2024-01-23_19h07.21.537,bars,2023.2.3,MacIntel,60.24096386,657b66ea316d21385b68909f,,,,,,,,,,,2360.3801,2361.368,,,2361.8647,2362.119,,173,-7,,,,,,,,,,,,,,,,bars/008.png,bars/mask002.png,,,,,,,,,,,,8,2,,,,,,,4,10,4,10,,,,,,,,,,,2361.368,2361.8647,2362.1191,2364.386,space,2.2586,,2364.386,63,7,2365.3815,2365.3816,2365.3945,,,,0,32,32,32,1,110,0,,,,,,,,
,,64a1f97573d3517a71ca803f,65af56bf60bcc53ab4af7c3e,2024-01-23_19h07.21.537,bars,2023.2.3,MacIntel,60.24096386,657b66ea316d21385b68909f,,,,,,,,,,,2365.3947,2366.4004,,,2366.8979,2367.1519,,101,101,,,,,,,,,,,,,,,,bars/019.png,bars/mask007.png,,,,,,,,,,,,8,2,,,,,,,2,10,2,9,,,,,,,,,,,2366.4004,2366.8979,2367.1519,2373.6168,space,6.457,,2373.6169,56,4,2374.6145,2374.6145,2374.628,,,,0,33,33,33,1,45,105,,,,,,,,
,,64a1f97573d3517a71ca803f,65af56bf60bcc53ab4af7c3e,2024-01-23_19h07.21.537,bars,2023.2.3,MacIntel,60.24096386,657b66ea316d21385b68909f,,,,,,,,,,,2374.6281,2375.6162,,,2376.1145,2376.3643,,10,190,,,,,,,,,,,,,,,,bars/045.png,bars/mask005.png,,,,,,,,,,,,7,2,,,,,,,0,8,1,7,,,,,,,,,,,2375.6162,2376.1145,2376.3643,2380.3664,space,3.9842,,2380.3665,90,0,2381.3661,2381.3661,2381.378,,,,0,34,34,34,1,100,10,,,,,,,,
,,64a1f97573d3517a71ca803f,65af56bf60bcc53ab4af7c3e,2024-01-23_19h07.21.537,bars,2023.2.3,MacIntel,60.24096386,657b66ea316d21385b68909f,,,,,,,,,,,2381.3783,2382.3832,,,2382.8812,2383.1317,,67,247,,,,,,,,,,,,,,,,bars/035.png,bars/mask009.png,,,,,,,,,,,,7,2,,,,,,,0,10,0,9,,,,,,,,,,,2382.3832,2382.8808,2383.1317,2391.6153,space,8.4659,,2391.6153,72,7,2392.6143,2392.6143,2392.6278,,,,0,35,35,35,1,175,60,,,,,,,,
,,64a1f97573d3517a71ca803f,65af56bf60bcc53ab4af7c3e,2024-01-23_19h07.21.537,bars,2023.2.3,MacIntel,60.24096386,657b66ea316d21385b68909f,,,,,,,,,,,2392.6279,2393.6325,,,2394.1346,2394.3807,,175,175,,,,,,,,,,,,,,,,bars/033.png,bars/mask008.png,,,,,,,,,,,,2,2,,,,,,,2,8,4,7,,,,,,,,,,,2393.6326,2394.1346,2394.3808,2400.1323,space,5.7355,,2400.1323,30,20,2401.1307,2401.1308,2401.1436,,,,0,36,36,36,1,25,155,,,,,,,,
,,64a1f97573d3517a71ca803f,65af56bf60bcc53ab4af7c3e,2024-01-23_19h07.21.537,bars,2023.2.3,MacIntel,60.24096386,657b66ea316d21385b68909f,,,,,,,,,,,2401.1438,2402.132,,,2402.632,2402.8845,,179,-1,,,,,,,,,,,,,,,,bars/008.png,bars/mask009.png,,,,,,,,,,,,5,2,,,,,,,0,6,0,5,,,,,,,,,,,2402.132,2402.632,2402.8845,2410.3652,space,7.4676,,2410.3652,69,1,2411.3659,2411.366,2411.3781,,,,0,37,37,37,1,110,0,,,,,,,,
,,64a1f97573d3517a71ca803f,65af56bf60bcc53ab4af7c3e,2024-01-23_19h07.21.537,bars,2023.2.3,MacIntel,60.24096386,657b66ea316d21385b68909f,,,,,,,,,,,2411.3783,2412.3676,,,2412.8651,2413.1152,,85,85,,,,,,,,,,,,,,,,bars/001.png,bars/mask002.png,,,,,,,,,,,,8,2,,,,,,,2,8,2,8,,,,,,,,,,,2412.3676,2412.8651,2413.1153,2415.9509,space,2.8157,,2415.951,45,0,2416.9477,2416.9477,2416.9599,,,,0,38,38,38,1,130,85,,,,,,,,
,,64a1f97573d3517a71ca803f,65af56bf60bcc53ab4af7c3e,2024-01-23_19h07.21.537,bars,2023.2.3,MacIntel,60.24096386,657b66ea316d21385b68909f,,,,,,,,,,,2416.96,2417.9477,,,2418.449,2418.6972,,79,79,,,,,,,,,,,,,,,,bars/038.png,bars/mask003.png,,,,,,,,,,,,7,2,,,,,,,4,10,5,10,,,,,,,,,,,2417.9477,2418.4489,2418.6972,2424.7021,space,5.986,,2424.7021,86,9,2425.7003,2425.7004,2425.713,,,,0,39,39,39,1,165,70,,,,,,,,
,,64a1f97573d3517a71ca803f,65af56bf60bcc53ab4af7c3e,2024-01-23_19h07.21.537,bars,2023.2.3,MacIntel,60.24096386,657b66ea316d21385b68909f,,,,,,,,,,,2425.7131,2426.7179,,,2427.2179,2427.4658,,88,88,,,,,,,,,,,,,,,,bars/042.png,bars/mask008.png,,,,,,,,,,,,6,2,,,,,,,6,10,5,10,,,,,,,,,,,2426.7179,2427.2178,2427.4658,2430.6992,space,3.2097,,2430.6992,57,13,2431.6984,2431.6984,2431.7107,,,,0,40,40,40,1,145,75,,,,,,,,
,,64a1f97573d3517a71ca803f,65af56bf60bcc53ab4af7c3e,2024-01-23_19h07.21.537,bars,2023.2.3,MacIntel,60.24096386,657b66ea316d21385b68909f,,,,,,,,,,,2431.7108,2432.7175,,,2433.215,2433.4636,,84,84,,,,,,,,,,,,,,,,bars/002.png,bars/mask008.png,,,,,,,,,,,,6,2,,,,,,,8,8,8,6,,,,,,,,,,,2432.7175,2433.215,2433.4637,2439.765,space,6.2805,,2439.765,46,1,2440.7636,2440.7637,2440.7741,,,,0,41,41,41,1,130,85,,,,,,,,
,,64a1f97573d3517a71ca803f,65af56bf60bcc53ab4af7c3e,2024-01-23_19h07.21.537,bars,2023.2.3,MacIntel,60.24096386,657b66ea316d21385b68909f,,,,,,,,,,,2440.7743,2441.7651,,,2442.2639,2442.515,,88,88,,,,,,,,,,,,,,,,bars/021.png,bars/mask001.png,,,,,,,,,,,,4,2,,,,,,,6,10,5,10,,,,,,,,,,,2441.7651,2442.2639,2442.5151,2447.1334,space,4.601,,2447.1335,67,18,2448.134,2448.134,2448.1446,,,,0,42,42,42,1,155,70,,,,,,,,
,,64a1f97573d3517a71ca803f,65af56bf60bcc53ab4af7c3e,2024-01-23_19h07.21.537,bars,2023.2.3,MacIntel,60.24096386,657b66ea316d21385b68909f,,,,,,,,,,,2448.1447,2449.1503,,,2449.6482,2449.8995,,102,-78,,,,,,,,,,,,,,,,bars/019.png,bars/mask005.png,,,,,,,,,,,,9,2,,,,,,,8,10,9,10,,,,,,,,,,,2449.1504,2449.6481,2449.8995,2457.5304,space,7.6181,,2457.5304,57,3,2458.529,2458.5291,2458.54,,,,0,43,43,43,1,45,105,,,,,,,,
,,64a1f97573d3517a71ca803f,65af56bf60bcc53ab4af7c3e,2024-01-23_19h07.21.537,bars,2023.2.3,MacIntel,60.24096386,657b66ea316d21385b68909f,,,,,,,,,,,2458.5401,2459.5313,,,2460.03,2460.2836,,2,2,,,,,,,,,,,,,,,,bars/033.png,bars/mask001.png,,,,,,,,,,,,2,1,,,,,,,10,10,10,10,,,,,,,,,,,2459.5313,2460.0299,2460.2836,2463.0141,space,2.7154,,2463.0142,23,27,2464.0157,2464.0157,2464.0282,,,,0,44,44,44,1,25,155,,,,,,,,
,,64a1f97573d3517a71ca803f,65af56bf60bcc53ab4af7c3e,2024-01-23_19h07.21.537,bars,2023.2.3,MacIntel,60.24096386,657b66ea316d21385b68909f,,,,,,,,,,,2464.0283,2465.0301,,,2465.5314,2465.782,,106,106,,,,,,,,,,,,,,,,bars/023.png,bars/mask003.png,,,,,,,,,,,,6,2,,,,,,,10,8,10,8,,,,,,,,,,,2465.0301,2465.5314,2465.782,2472.2147,space,6.4191,,2472.2148,86,9,2473.2133,2473.2133,2473.2271,,,,0,45,45,45,1,20,115,,,,,,,,
,,64a1f97573d3517a71ca803f,65af56bf60bcc53ab4af7c3e,2024-01-23_19h07.21.537,bars,2023.2.3,MacIntel,60.24096386,657b66ea316d21385b68909f,,,,,,,,,,,2473.2272,2474.2292,,,2474.7312,2474.982,,69,69,,,,,,,,,,,,,,,,bars/010.png,bars/mask001.png,,,,,,,,,,,,5,2,,,,,,,10,10,10,10,,,,,,,,,,,2474.2292,2474.7311,2474.982,2484.8662,space,9.8663,,2484.8663,84,14,2485.8665,2485.8666,2485.8773,,,,0,46,46,46,1,165,55,,,,,,,,
,,64a1f97573d3517a71ca803f,65af56bf60bcc53ab4af7c3e,2024-01-23_19h07.21.537,bars,2023.2.3,MacIntel,60.24096386,657b66ea316d21385b68909f,,,,,,,,,,,2485.8775,2486.88,,,2487.3804,2487.6333,,57,57,,,,,,,,,,,,,,,,bars/029.png,bars/mask009.png,,,,,,,,,,,,6,2,,,,,,,10,10,10,10,,,,,,,,,,,2486.8801,2487.3804,2487.6333,2488.5321,space,0.8848,,2488.5321,33,12,2489.5315,2489.5315,2489.5322,,,,0,47,47,47,1,90,45,,,,,,,,
,,64a1f97573d3517a71ca803f,65af56bf60bcc53ab4af7c3e,2024-01-23_19h07.21.537,bars,2023.2.3,MacIntel,60.24096386,657b66ea316d21385b68909f,,,,,,,,,,,2489.5331,2490.5296,,,2491.0296,2491.2796,,39,39,,,,,,,,,,,,,,,,bars/029.png,bars/mask004.png,,,,,,,,,,,,8,2,,,,,,,10,10,10,10,,,,,,,,,,,2490.5296,2491.0295,2491.2797,2491.9981,space,0.7016,,2491.9982,51,6,2492.9977,2492.9977,2492.9983,,,,0,48,48,48,1,90,45,,,,,,,,
,,64a1f97573d3517a71ca803f,65af56bf60bcc53ab4af7c3e,2024-01-23_19h07.21.537,bars,2023.2.3,MacIntel,60.24096386,657b66ea316d21385b68909f,,,,,,,,,,,2492.9986,2493.9993,,,2494.4976,2494.7501,,72,72,,,,,,,,,,,,,,,,bars/030.png,bars/mask009.png,,,,,,,,,,,,5,2,,,,,,,8,8,6,6,,,,,,,,,,,2493.9994,2494.4976,2494.7502,2501.4969,space,6.7345,,2501.4969,68,7,2502.4972,2502.4973,2502.5095,,,,0,49,49,49,1,140,65,,,,,,,,
,,64a1f97573d3517a71ca803f,65af56bf60bcc53ab4af7c3e,2024-01-23_19h07.21.537,bars,2023.2.3,MacIntel,60.24096386,657b66ea316d21385b68909f,,,,,,,,,,,,,,,,,,,,,,,,,,,,,,,,,,,,,,,,,,,,,,,,,,,,,,,,,,,,,,,,,,,,,,,,,,,,,,,,,,,,,,,,,,,,,2502.5097,2562.4991,0,3,3,2,1,sequence_tables/blk041.csv
,,64a1f97573d3517a71ca803f,65af56bf60bcc53ab4af7c3e,2024-01-23_19h07.21.537,bars,2023.2.3,MacIntel,60.24096386,657b66ea316d21385b68909f,,,,,,,,,,,3144.746,3145.7367,,,3146.2369,3146.4865,,6,186,,,,,,,,,,,,,,,,bars/012.png,bars/mask001.png,,,,,,,,,,,,5,2,,,,,,,5,8,5,7,,,,,,2562.5116,3144.7266,space,582.191,0.0043,3145.7369,3146.2367,3146.4866,3153.3049,space,6.7945,,3153.3051,84,9,3154.3072,3154.3073,3154.322,,,,0,0,0,0,1,90,15,,,,,,,,
,,64a1f97573d3517a71ca803f,65af56bf60bcc53ab4af7c3e,2024-01-23_19h07.21.537,bars,2023.2.3,MacIntel,60.24096386,657b66ea316d21385b68909f,,,,,,,,,,,3154.3223,3155.3207,,,3155.8206,3156.0705,,78,78,,,,,,,,,,,,,,,,bars/034.png,bars/mask001.png,,,,,,,,,,,,5,2,,,,,,,3,6,4,8,,,,,,,,,,,3155.3207,3155.8206,3156.0705,3159.587,space,3.506,,3159.5871,47,13,3160.589,3160.589,3160.6021,,,,0,1,1,1,1,125,65,,,,,,,,
,,64a1f97573d3517a71ca803f,65af56bf60bcc53ab4af7c3e,2024-01-23_19h07.21.537,bars,2023.2.3,MacIntel,60.24096386,657b66ea316d21385b68909f,,,,,,,,,,,3160.6023,3161.6053,,,3162.1035,3162.3537,,108,108,,,,,,,,,,,,,,,,bars/013.png,bars/mask002.png,,,,,,,,,,,,0,1,,,,,,,5,8,5,9,,,,,,,,,,,3161.6053,3162.1034,3162.3538,3164.1048,space,1.7392,,3164.1049,33,82,3165.1044,3165.1045,3165.1188,,,,0,2,2,2,1,75,10,,,,,,,,
,,64a1f97573d3517a71ca803f,65af56bf60bcc53ab4af7c3e,2024-01-23_19h07.21.537,bars,2023.2.3,MacIntel,60.24096386,657b66ea316d21385b68909f,,,,,,,,,,,3165.1191,3166.1197,,,3166.6197,3166.8718,,166,-14,,,,,,,,,,,,,,,,bars/049.png,bars/mask009.png,,,,,,,,,,,,6,1,,,,,,,7,6,7,5,,,,,,,,,,,3166.1197,3166.6197,3166.8718,3200.1861,space,33.301,,3200.1863,6,51,3201.1874,3201.1875,3201.2011,,,,0,3,3,3,1,160,115,,,,,,,,
,,64a1f97573d3517a71ca803f,65af56bf60bcc53ab4af7c3e,2024-01-23_19h07.21.537,bars,2023.2.3,MacIntel,60.24096386,657b66ea316d21385b68909f,,,,,,,,,,,3201.2014,3202.2026,,,3202.7043,3202.9551,,64,64,,,,,,,,,,,,,,,,bars/046.png,bars/mask000.png,,,,,,,,,,,,1,2,,,,,,,9,4,8,2,,,,,,,,,,,3202.2026,3202.7042,3202.9551,3208.2034,space,5.2352,,3208.2035,89,21,3209.2027,3209.2028,3209.2176,,,,0,4,4,4,1,155,85,,,,,,,,
,,64a1f97573d3517a71ca803f,65af56bf60bcc53ab4af7c3e,2024-01-23_19h07.21.537,bars,2023.2.3,MacIntel,60.24096386,657b66ea316d21385b68909f,,,,,,,,,,,3209.2177,3210.2212,,,3210.7202,3210.9702,,65,65,,,,,,,,,,,,,,,,bars/016.png,bars/mask006.png,,,,,,,,,,,,1,1,,,,,,,7,6,8,4,,,,,,,,,,,3210.2212,3210.7202,3210.9702,3212.3035,space,1.3211,,3212.3035,25,80,3213.3026,3213.3026,3213.3174,,,,0,5,5,5,1,40,165,,,,,,,,
,,64a1f97573d3517a71ca803f,65af56bf60bcc53ab4af7c3e,2024-01-23_19h07.21.537,bars,2023.2.3,MacIntel,60.24096386,657b66ea316d21385b68909f,,,,,,,,,,,3213.3176,3214.3194,,,3214.8211,3215.0701,,72,72,,,,,,,,,,,,,,,,bars/027.png,bars/mask006.png,,,,,,,,,,,,2,2,,,,,,,9,8,9,7,,,,,,,,,,,3214.3194,3214.8211,3215.0702,3221.5704,space,6.4844,,3221.5704,38,22,3222.5699,3222.5699,3222.5843,,,,0,6,6,6,1,110,50,,,,,,,,
,,64a1f97573d3517a71ca803f,65af56bf60bcc53ab4af7c3e,2024-01-23_19h07.21.537,bars,2023.2.3,MacIntel,60.24096386,657b66ea316d21385b68909f,,,,,,,,,,,3222.5844,3223.5879,,,3224.0886,3224.3363,,0,0,,,,,,,,,,,,,,,,bars/015.png,bars/mask006.png,,,,,,,,,,,,3,2,,,,,,,7,10,7,10,,,,,,,,,,,3223.5879,3224.0885,3224.3363,3225.2032,space,0.8564,,3225.2032,70,20,3226.2046,3226.2047,3226.2054,,,,0,7,7,7,1,110,160,,,,,,,,
,,64a1f97573d3517a71ca803f,65af56bf60bcc53ab4af7c3e,2024-01-23_19h07.21.537,bars,2023.2.3,MacIntel,60.24096386,657b66ea316d21385b68909f,,,,,,,,,,,3226.2058,3227.203,,,3227.7029,3227.955,,78,78,,,,,,,,,,,,,,,,bars/046.png,bars/mask006.png,,,,,,,,,,,,7,2,,,,,,,5,10,4,9,,,,,,,,,,,3227.203,3227.7029,3227.955,3230.9861,space,3.0138,,3230.9861,77,7,3231.9865,3231.9865,3232.0002,,,,0,8,8,8,1,155,85,,,,,,,,
