init_variables.started,init_variables.stopped,participant,session,date,expName,psychopyVersion,OS,frameRate,study_id,instruction_exp.started,instruction_exp.stopped,key_resp_8.keys,key_resp_8.rt,key_resp_8.duration,instruction_single.started,instruction_single.stopped,key_resp_2.keys,key_resp_2.rt,key_resp_2.duration,interval.started,interval.stopped,cue_single.started,cue_single.stopped,mask.started,mask.stopped,ori_response_single.started,res_ori,res,ori_response_single.stopped,key_resp_single.keys,key_resp_single.rt,key_resp_single.duration,disp_single.started,disp_single.stopped,key_resp.keys,key_resp.rt,key_resp.duration,single.thisRepN,single.thisTrialN,single.thisN,single.thisIndex,single.ran,ori,path,mask_path,instruction_bandit.started,instruction_bandit.stopped,key_resp_6.keys,key_resp_6.rt,key_resp_6.duration,cue_bandit.started,cue_bandit.stopped,bandit_res.keys,bandit_res.rt,bandit_res.duration,outcome_bandit.started,rew,action,outcome_bandit.stopped,bandit.thisRepN,bandit.thisTrialN,bandit.thisN,bandit.thisIndex,bandit.ran,actual_rew1,actual_rew2,rew1,rew2,instruction_task.started,instruction_task.stopped,key_resp_7.keys,key_resp_7.rt,key_resp_7.duration,wait_ready.started,wait_ready.stopped,key_resp_3.keys,key_resp_3.rt,key_resp_3.duration,cue.started,cue.stopped,ori_response.started,ori_response.stopped,key_resp_5.keys,key_resp_5.rt,key_resp_5.duration,outcome.started,diff1,diff2,outcome.stopped,disp_outcome_practice.started,disp_outcome_practice.stopped,key_resp_4.keys,key_resp_4.rt,key_resp_4.duration,trials.thisRepN,trials.thisTrialN,trials.thisN,trials.thisIndex,trials.ran,ori1,ori2,break_blk.started,break_blk.stopped,block.thisRepN,block.thisTrialN,block.thisN,block.thisIndex,block.ran,condition_file
0.0011,0.003,646a18d69a871ffc84c0ce29,65af55ba14893441390476a8,2024-01-23_08h05.37.419,bars,2023.2.3,Win32,60.24096386,657b66ea316d21385b68909f,,,,,,,,,,,,,,,,,,,,,,,,,,,,,,,,,,,,,,,,,,,,,,,,,,,,,,,,,,,,,,,,,,,,,,,,,,,,,,,,,,,,,,,,,,,,,,,,,,,,
,,646a18d69a871ffc84c0ce29,65af55ba14893441390476a8,2024-01-23_08h05.37.419,bars,2023.2.3,Win32,60.24096386,657b66ea316d21385b68909f,0.0038,9.6732,y,9.6481,,,,,,,,,,,,,,,,,,,,,,,,,,,,,,,,,,,,,,,,,,,,,,,,,,,,,,,,,,,,,,,,,,,,,,,,,,,,,,,,,,,,,,,,,,,,,,,,
,,646a18d69a871ffc84c0ce29,65af55ba14893441390476a8,2024-01-23_08h05.37.419,bars,2023.2.3,Win32,60.24096386,657b66ea316d21385b68909f,,,,,,9.6734,21.5367,space,11.8447,,,,,,,,,,,,,,,,,,,,,,,,,,,,,,,,,,,,,,,,,,,,,,,,,,,,,,,,,,,,,,,,,,,,,,,,,,,,,,,,,,,,,,,,,,,
,,646a18d69a871ffc84c0ce29,65af55ba14893441390476a8,2024-01-23_08h05.37.419,bars,2023.2.3,Win32,60.24096386,657b66ea316d21385b68909f,,,,,,,,,,,21.546,22.5388,22.539,23.0387,23.0389,23.2807,23.281,126,126,30.8731,space,7.5459,,30.8733,38.5749,space,7.6546,,0,0,0,8,1,160,bars/single008.png,bars/mask004.png,,,,,,,,,,,,,,,,,,,,,,,,,,,,,,,,,,,,,,,,,,,,,,,,,,,,,,,,,,,,,,,,
,,646a18d69a871ffc84c0ce29,65af55ba14893441390476a8,2024-01-23_08h05.37.419,bars,2023.2.3,Win32,60.24096386,657b66ea316d21385b68909f,,,,,,,,,,,38.5894,39.5887,39.5888,40.08,40.0802,40.3299,40.33,25,25,47.2233,space,6.8613,,47.2234,52.8275,space,5.5774,,0,1,1,1,1,20,bars/single001.png,bars/mask006.png,,,,,,,,,,,,,,,,,,,,,,,,,,,,,,,,,,,,,,,,,,,,,,,,,,,,,,,,,,,,,,,,
,,646a18d69a871ffc84c0ce29,65af55ba14893441390476a8,2024-01-23_08h05.37.419,bars,2023.2.3,Win32,60.24096386,657b66ea316d21385b68909f,,,,,,,,,,,52.8411,53.8417,53.8418,54.3328,54.3329,54.5825,54.5826,91,91,60.0531,space,5.4456,,60.0532,62.0585,space,1.9731,,0,2,2,9,1,20,bars/single009.png,bars/mask006.png,,,,,,,,,,,,,,,,,,,,,,,,,,,,,,,,,,,,,,,,,,,,,,,,,,,,,,,,,,,,,,,,
,,646a18d69a871ffc84c0ce29,65af55ba14893441390476a8,2024-01-23_08h05.37.419,bars,2023.2.3,Win32,60.24096386,657b66ea316d21385b68909f,,,,,,,,,,,62.0592,63.0571,63.0573,63.5567,63.5568,63.807,63.807,32,32,68.6522,space,4.8293,,68.6524,70.1339,space,1.448,,0,3,3,0,1,150,bars/single000.png,bars/mask006.png,,,,,,,,,,,,,,,,,,,,,,,,,,,,,,,,,,,,,,,,,,,,,,,,,,,,,,,,,,,,,,,,
,,646a18d69a871ffc84c0ce29,65af55ba14893441390476a8,2024-01-23_08h05.37.419,bars,2023.2.3,Win32,60.24096386,657b66ea316d21385b68909f,,,,,,,,,,,70.1345,71.1328,71.1329,71.6322,71.6322,71.8819,71.882,13,193,75.7121,space,3.8106,,75.7121,77.1109,space,1.3661,,0,4,4,7,1,45,bars/single007.png,bars/mask009.png,,,,,,,,,,,,,,,,,,,,,,,,,,,,,,,,,,,,,,,,,,,,,,,,,,,,,,,,,,,,,,,,
,,646a18d69a871ffc84c0ce29,65af55ba14893441390476a8,2024-01-23_08h05.37.419,bars,2023.2.3,Win32,60.24096386,657b66ea316d21385b68909f,,,,,,,,,,,77.1115,78.1096,78.1097,78.6085,78.6086,78.8582,78.8583,113,113,84.417,space,5.5485,,84.4172,85.9851,space,1.5265,,0,5,5,2,1,145,bars/single002.png,bars/mask003.png,,,,,,,,,,,,,,,,,,,,,,,,,,,,,,,,,,,,,,,,,,,,,,,,,,,,,,,,,,,,,,,,
,,646a18d69a871ffc84c0ce29,65af55ba14893441390476a8,2024-01-23_08h05.37.419,bars,2023.2.3,Win32,60.24096386,657b66ea316d21385b68909f,,,,,,,,,,,85.9858,86.9838,86.9838,87.4834,87.4836,87.7328,87.7329,93,93,90.6812,space,2.9347,,90.6812,92.0802,space,1.3675,,0,6,6,6,1,175,bars/single006.png,bars/mask005.png,,,,,,,,,,,,,,,,,,,,,,,,,,,,,,,,,,,,,,,,,,,,,,,,,,,,,,,,,,,,,,,,
,,646a18d69a871ffc84c0ce29,65af55ba14893441390476a8,2024-01-23_08h05.37.419,bars,2023.2.3,Win32,60.24096386,657b66ea316d21385b68909f,,,,,,,,,,,92.0809,93.0784,93.0785,93.5777,93.5779,93.8278,93.8279,33,33,97.3468,space,3.4937,,97.3468,98.5731,space,1.1941,,0,7,7,3,1,20,bars/single003.png,bars/mask005.png,,,,,,,,,,,,,,,,,,,,,,,,,,,,,,,,,,,,,,,,,,,,,,,,,,,,,,,,,,,,,,,,
,,646a18d69a871ffc84c0ce29,65af55ba14893441390476a8,2024-01-23_08h05.37.419,bars,2023.2.3,Win32,60.24096386,657b66ea316d21385b68909f,,,,,,,,,,,98.5737,99.58,99.58,100.0715,100.0715,100.3212,100.3213,145,145,104.9336,space,4.5875,,104.9337,105.9823,space,1.0171,,0,8,8,5,1,55,bars/single005.png,bars/mask008.png,,,,,,,,,,,,,,,,,,,,,,,,,,,,,,,,,,,,,,,,,,,,,,,,,,,,,,,,,,,,,,,,
,,646a18d69a871ffc84c0ce29,65af55ba14893441390476a8,2024-01-23_08h05.37.419,bars,2023.2.3,Win32,60.24096386,657b66ea316d21385b68909f,,,,,,,,,,,105.9829,106.9818,106.9819,107.481,107.4811,107.731,107.731,90,90,110.3953,space,2.6314,,110.3954,112.6541,space,2.234,,0,9,9,4,1,95,bars/single004.png,bars/mask004.png,,,,,,,,,,,,,,,,,,,,,,,,,,,,,,,,,,,,,,,,,,,,,,,,,,,,,,,,,,,,,,,,
,,646a18d69a871ffc84c0ce29,65af55ba14893441390476a8,2024-01-23_08h05.37.419,bars,2023.2.3,Win32,60.24096386,657b66ea316d21385b68909f,,,,,,,,,,,,,,,,,,,,,,,,,,,,,,,,,,,,,112.6553,124.3081,space,11.6295,,,,,,,,,,,,,,,,,,,,,,,,,,,,,,,,,,,,,,,,,,,,,,,,,,,,,,,,,,,,
,,646a18d69a871ffc84c0ce29,65af55ba14893441390476a8,2024-01-23_08h05.37.419,bars,2023.2.3,Win32,60.24096386,657b66ea316d21385b68909f,,,,,,,,,,,,,,,,,,,,,,,,,,,,,,,,,,,,,,,,,,124.3277,126.6461,right,2.2886,,126.6463,2,2,127.6447,0,0,0,0,1,9,1,9,2,,,,,,,,,,,,,,,,,,,,,,,,,,,,,,,,,,,,,,,,,
,,646a18d69a871ffc84c0ce29,65af55ba14893441390476a8,2024-01-23_08h05.37.419,bars,2023.2.3,Win32,60.24096386,657b66ea316d21385b68909f,,,,,,,,,,,,,,,,,,,,,,,,,,,,,,,,,,,,,,,,,,127.6454,130.9084,left,3.2479,,130.9085,10,1,131.9072,0,1,1,1,1,10,0,10,1,,,,,,,,,,,,,,,,,,,,,,,,,,,,,,,,,,,,,,,,,
,,646a18d69a871ffc84c0ce29,65af55ba14893441390476a8,2024-01-23_08h05.37.419,bars,2023.2.3,Win32,60.24096386,657b66ea316d21385b68909f,,,,,,,,,,,,,,,,,,,,,,,,,,,,,,,,,,,,,,,,,,131.9236,134.765,left,2.8328,,134.765,10,1,135.7535,0,2,2,2,1,10,2,10,2,,,,,,,,,,,,,,,,,,,,,,,,,,,,,,,,,,,,,,,,,
,,646a18d69a871ffc84c0ce29,65af55ba14893441390476a8,2024-01-23_08h05.37.419,bars,2023.2.3,Win32,60.24096386,657b66ea316d21385b68909f,,,,,,,,,,,,,,,,,,,,,,,,,,,,,,,,,,,,,,,,,,135.7706,138.9349,right,3.1537,,138.9349,3,2,139.9324,0,3,3,3,1,8,4,7,3,,,,,,,,,,,,,,,,,,,,,,,,,,,,,,,,,,,,,,,,,
,,646a18d69a871ffc84c0ce29,65af55ba14893441390476a8,2024-01-23_08h05.37.419,bars,2023.2.3,Win32,60.24096386,657b66ea316d21385b68909f,,,,,,,,,,,,,,,,,,,,,,,,,,,,,,,,,,,,,,,,,,139.9542,141.0587,left,1.0943,,141.0589,5,1,142.047,0,4,4,4,1,6,2,5,1,,,,,,,,,,,,,,,,,,,,,,,,,,,,,,,,,,,,,,,,,
,,646a18d69a871ffc84c0ce29,65af55ba14893441390476a8,2024-01-23_08h05.37.419,bars,2023.2.3,Win32,60.24096386,657b66ea316d21385b68909f,,,,,,,,,,,,,,,,,,,,,,,,,,,,,,,,,,,,,,,,,,142.0476,143.1738,left,1.1009,,143.1738,4,1,144.1673,0,5,5,5,1,4,4,4,4,,,,,,,,,,,,,,,,,,,,,,,,,,,,,,,,,,,,,,,,,
,,646a18d69a871ffc84c0ce29,65af55ba14893441390476a8,2024-01-23_08h05.37.419,bars,2023.2.3,Win32,60.24096386,657b66ea316d21385b68909f,,,,,,,,,,,,,,,,,,,,,,,,,,,,,,,,,,,,,,,,,,144.168,145.2057,right,1.0175,,145.2059,2,2,146.203,0,6,6,6,1,2,2,1,2,,,,,,,,,,,,,,,,,,,,,,,,,,,,,,,,,,,,,,,,,
,,646a18d69a871ffc84c0ce29,65af55ba14893441390476a8,2024-01-23_08h05.37.419,bars,2023.2.3,Win32,60.24096386,657b66ea316d21385b68909f,,,,,,,,,,,,,,,,,,,,,,,,,,,,,,,,,,,,,,,,,,146.2038,146.8213,right,0.6008,,146.8214,1,2,147.8143,0,7,7,7,1,0,0,0,1,,,,,,,,,,,,,,,,,,,,,,,,,,,,,,,,,,,,,,,,,
,,646a18d69a871ffc84c0ce29,65af55ba14893441390476a8,2024-01-23_08h05.37.419,bars,2023.2.3,Win32,60.24096386,657b66ea316d21385b68909f,,,,,,,,,,,,,,,,,,,,,,,,,,,,,,,,,,,,,,,,,,147.815,149.0195,left,1.1831,,149.02,1,1,150.0159,0,8,8,8,1,0,2,1,0,,,,,,,,,,,,,,,,,,,,,,,,,,,,,,,,,,,,,,,,,
,,646a18d69a871ffc84c0ce29,65af55ba14893441390476a8,2024-01-23_08h05.37.419,bars,2023.2.3,Win32,60.24096386,657b66ea316d21385b68909f,,,,,,,,,,,,,,,,,,,,,,,,,,,,,,,,,,,,,,,,,,150.0165,150.7657,left,0.7319,,150.7658,2,1,151.7631,0,9,9,9,1,2,4,2,3,,,,,,,,,,,,,,,,,,,,,,,,,,,,,,,,,,,,,,,,,
,,646a18d69a871ffc84c0ce29,65af55ba14893441390476a8,2024-01-23_08h05.37.419,bars,2023.2.3,Win32,60.24096386,657b66ea316d21385b68909f,,,,,,,,,,,,,,,,,,,,,,,,,,,,,,,,,,,,,,,,,,151.7636,152.4136,left,0.6331,,152.4137,0,1,153.4028,0,10,10,10,1,0,2,0,3,,,,,,,,,,,,,,,,,,,,,,,,,,,,,,,,,,,,,,,,,
,,646a18d69a871ffc84c0ce29,65af55ba14893441390476a8,2024-01-23_08h05.37.419,bars,2023.2.3,Win32,60.24096386,657b66ea316d21385b68909f,,,,,,,,,,,,,,,,,,,,,,,,,,,,,,,,,,,,,,,,,,153.4034,154.6276,right,1.1989,,154.6277,3,2,155.6169,0,11,11,11,1,0,4,0,3,,,,,,,,,,,,,,,,,,,,,,,,,,,,,,,,,,,,,,,,,
,,646a18d69a871ffc84c0ce29,65af55ba14893441390476a8,2024-01-23_08h05.37.419,bars,2023.2.3,Win32,60.24096386,657b66ea316d21385b68909f,,,,,,,,,,,,,,,,,,,,,,,,,,,,,,,,,,,,,,,,,,155.6176,156.4496,left,0.8072,,156.4497,1,1,157.4489,0,12,12,12,1,2,6,1,6,,,,,,,,,,,,,,,,,,,,,,,,,,,,,,,,,,,,,,,,,
,,646a18d69a871ffc84c0ce29,65af55ba14893441390476a8,2024-01-23_08h05.37.419,bars,2023.2.3,Win32,60.24096386,657b66ea316d21385b68909f,,,,,,,,,,,,,,,,,,,,,,,,,,,,,,,,,,,,,,,,,,157.4497,158.2751,left,0.8008,,158.2752,1,1,159.2642,0,13,13,13,1,0,4,1,3,,,,,,,,,,,,,,,,,,,,,,,,,,,,,,,,,,,,,,,,,
,,646a18d69a871ffc84c0ce29,65af55ba14893441390476a8,2024-01-23_08h05.37.419,bars,2023.2.3,Win32,60.24096386,657b66ea316d21385b68909f,,,,,,,,,,,,,,,,,,,,,,,,,,,,,,,,,,,,,,,,,,159.2653,160.1911,right,0.9018,,160.1912,7,2,161.1796,0,14,14,14,1,2,6,2,7,,,,,,,,,,,,,,,,,,,,,,,,,,,,,,,,,,,,,,,,,
,,646a18d69a871ffc84c0ce29,65af55ba14893441390476a8,2024-01-23_08h05.37.419,bars,2023.2.3,Win32,60.24096386,657b66ea316d21385b68909f,,,,,,,,,,,,,,,,,,,,,,,,,,,,,,,,,,,,,,,,,,161.1802,162.756,left,1.5498,,162.7562,3,1,163.753,0,15,15,15,1,4,8,3,9,,,,,,,,,,,,,,,,,,,,,,,,,,,,,,,,,,,,,,,,,
,,646a18d69a871ffc84c0ce29,65af55ba14893441390476a8,2024-01-23_08h05.37.419,bars,2023.2.3,Win32,60.24096386,657b66ea316d21385b68909f,,,,,,,,,,,,,,,,,,,,,,,,,,,,,,,,,,,,,,,,,,163.7536,165.0585,left,1.2835,,165.0587,7,1,166.0572,0,16,16,16,1,6,6,7,7,,,,,,,,,,,,,,,,,,,,,,,,,,,,,,,,,,,,,,,,,
,,646a18d69a871ffc84c0ce29,65af55ba14893441390476a8,2024-01-23_08h05.37.419,bars,2023.2.3,Win32,60.24096386,657b66ea316d21385b68909f,,,,,,,,,,,,,,,,,,,,,,,,,,,,,,,,,,,,,,,,,,166.058,166.7305,right,0.6473,,166.7305,5,2,167.7323,0,17,17,17,1,8,4,9,5,,,,,,,,,,,,,,,,,,,,,,,,,,,,,,,,,,,,,,,,,
,,646a18d69a871ffc84c0ce29,65af55ba14893441390476a8,2024-01-23_08h05.37.419,bars,2023.2.3,Win32,60.24096386,657b66ea316d21385b68909f,,,,,,,,,,,,,,,,,,,,,,,,,,,,,,,,,,,,,,,,,,167.7328,168.5907,right,0.8406,,168.5907,1,2,169.5799,0,18,18,18,1,6,2,5,1,,,,,,,,,,,,,,,,,,,,,,,,,,,,,,,,,,,,,,,,,
,,646a18d69a871ffc84c0ce29,65af55ba14893441390476a8,2024-01-23_08h05.37.419,bars,2023.2.3,Win32,60.24096386,657b66ea316d21385b68909f,,,,,,,,,,,,,,,,,,,,,,,,,,,,,,,,,,,,,,,,,,169.5805,170.2306,right,0.6337,,170.2306,0,2,171.2185,0,19,19,19,1,8,0,7,0,,,,,,,,,,,,,,,,,,,,,,,,,,,,,,,,,,,,,,,,,
,,646a18d69a871ffc84c0ce29,65af55ba14893441390476a8,2024-01-23_08h05.37.419,bars,2023.2.3,Win32,60.24096386,657b66ea316d21385b68909f,,,,,,,,,,,,,,,,,,,,,,,,,,,,,,,,,,,,,,,,,,,,,,,,,,,,,,,,,,,,171.2198,184.217,space,12.9702,,,,,,,,,,,,,,,,,,,,,,,,,,,,,,,,,,,,,
,,646a18d69a871ffc84c0ce29,65af55ba14893441390476a8,2024-01-23_08h05.37.419,bars,2023.2.3,Win32,60.24096386,657b66ea316d21385b68909f,,,,,,,,,,,185.8072,186.8111,,,187.3039,187.5462,,90,90,,,,,,,,,,,,,,,,bars/002.png,bars/mask004.png,,,,,,,,,,,,3,2,,,,,,,3,2,6,4,,,,,,184.2396,185.7986,space,1.5461,,186.8115,187.3037,187.5466,191.8915,space,4.3197,,191.8917,40,5,192.8809,192.8813,199.8253,space,6.9138,,0,0,0,0,1,130,85,,,,,,,,
,,646a18d69a871ffc84c0ce29,65af55ba14893441390476a8,2024-01-23_08h05.37.419,bars,2023.2.3,Win32,60.24096386,657b66ea316d21385b68909f,,,,,,,,,,,199.842,200.8399,,,201.3474,201.5888,,143,143,,,,,,,,,,,,,,,,bars/042.png,bars/mask004.png,,,,,,,,,,,,1,1,,,,,,,1,4,1,4,,,,,,,,,,,200.84,201.3474,201.5889,205.5617,space,3.9479,,205.5618,2,68,206.5511,206.5511,212.2127,space,5.6227,,0,1,1,1,1,145,75,,,,,,,,
,,646a18d69a871ffc84c0ce29,65af55ba14893441390476a8,2024-01-23_08h05.37.419,bars,2023.2.3,Win32,60.24096386,657b66ea316d21385b68909f,,,,,,,,,,,212.2337,213.2311,,,213.7172,213.9607,,154,154,,,,,,,,,,,,,,,,bars/000.png,bars/mask005.png,,,,,,,,,,,,4,2,,,,,,,3,6,4,5,,,,,,,,,,,213.2312,213.7172,213.9607,219.0644,space,5.0757,,219.0645,66,9,220.0539,220.054,222.5686,space,2.4774,,0,2,2,2,1,40,145,,,,,,,,
,,646a18d69a871ffc84c0ce29,65af55ba14893441390476a8,2024-01-23_08h05.37.419,bars,2023.2.3,Win32,60.24096386,657b66ea316d21385b68909f,,,,,,,,,,,222.5828,223.5844,,,224.0849,224.334,,11,11,,,,,,,,,,,,,,,,bars/041.png,bars/mask004.png,,,,,,,,,,,,4,1,,,,,,,5,4,5,4,,,,,,,,,,,223.5845,224.0848,224.3341,227.7301,space,3.381,,227.7302,9,74,228.7289,228.7289,231.427,space,2.6548,,0,3,3,3,1,20,85,,,,,,,,
,,646a18d69a871ffc84c0ce29,65af55ba14893441390476a8,2024-01-23_08h05.37.419,bars,2023.2.3,Win32,60.24096386,657b66ea316d21385b68909f,,,,,,,,,,,231.4277,232.4254,,,232.9258,233.1748,,24,24,,,,,,,,,,,,,,,,bars/017.png,bars/mask000.png,,,,,,,,,,,,2,2,,,,,,,3,6,3,6,,,,,,,,,,,232.4257,232.9257,233.1748,236.1825,space,2.9968,,236.1826,59,21,237.1705,237.1706,239.6372,space,2.4321,,0,4,4,4,1,145,45,,,,,,,,
,,646a18d69a871ffc84c0ce29,65af55ba14893441390476a8,2024-01-23_08h05.37.419,bars,2023.2.3,Win32,60.24096386,657b66ea316d21385b68909f,,,,,,,,,,,239.6381,240.6346,,,241.1335,241.3838,,52,52,,,,,,,,,,,,,,,,bars/033.png,bars/mask009.png,,,,,,,,,,,,0,1,,,,,,,5,8,4,8,,,,,,,,,,,240.6347,241.1335,241.3838,248.1436,space,6.7475,,248.1439,27,77,249.1428,249.1429,252.0078,space,2.828,,0,5,5,5,1,25,155,,,,,,,,
,,646a18d69a871ffc84c0ce29,65af55ba14893441390476a8,2024-01-23_08h05.37.419,bars,2023.2.3,Win32,60.24096386,657b66ea316d21385b68909f,,,,,,,,,,,252.0086,252.9892,,,253.4874,253.7374,,36,36,,,,,,,,,,,,,,,,bars/031.png,bars/mask004.png,,,,,,,,,,,,6,2,,,,,,,3,6,2,6,,,,,,,,,,,252.9894,253.4872,253.7376,258.0197,space,4.2633,,258.0198,84,1,259.0473,259.0474,261.6153,space,2.5029,,0,6,6,6,1,120,35,,,,,,,,
,,646a18d69a871ffc84c0ce29,65af55ba14893441390476a8,2024-01-23_08h05.37.419,bars,2023.2.3,Win32,60.24096386,657b66ea316d21385b68909f,,,,,,,,,,,261.6161,262.6127,,,263.1233,263.3615,,126,126,,,,,,,,,,,,,,,,bars/026.png,bars/mask000.png,,,,,,,,,,,,0,2,,,,,,,1,4,2,4,,,,,,,,,,,262.6128,263.1232,263.3616,266.8558,space,3.4662,,266.8558,89,41,267.8572,267.8573,269.7052,space,1.8094,,0,7,7,7,1,35,85,,,,,,,,
,,646a18d69a871ffc84c0ce29,65af55ba14893441390476a8,2024-01-23_08h05.37.419,bars,2023.2.3,Win32,60.24096386,657b66ea316d21385b68909f,,,,,,,,,,,269.7058,270.7059,,,271.2004,271.4442,,46,46,,,,,,,,,,,,,,,,bars/027.png,bars/mask005.png,,,,,,,,,,,,2,2,,,,,,,0,2,0,2,,,,,,,,,,,270.706,271.2004,271.4442,274.5159,space,3.0484,,274.5161,64,4,275.5131,275.5131,278.1292,space,2.5807,,0,8,8,8,1,110,50,,,,,,,,
,,646a18d69a871ffc84c0ce29,65af55ba14893441390476a8,2024-01-23_08h05.37.419,bars,2023.2.3,Win32,60.24096386,657b66ea316d21385b68909f,,,,,,,,,,,278.1299,279.1404,,,279.6354,279.8922,,44,44,,,,,,,,,,,,,,,,bars/013.png,bars/mask003.png,,,,,,,,,,,,0,1,,,,,,,0,4,0,3,,,,,,,,,,,279.1404,279.6353,279.8922,283.9446,space,4.0355,,283.9447,31,34,284.9539,284.954,286.915,space,1.9216,,0,9,9,9,1,75,10,,,,,,,,
,,646a18d69a871ffc84c0ce29,65af55ba14893441390476a8,2024-01-23_08h05.37.419,bars,2023.2.3,Win32,60.24096386,657b66ea316d21385b68909f,,,,,,,,,,,286.9157,287.9041,,,288.4001,288.653,,103,103,,,,,,,,,,,,,,,,bars/039.png,bars/mask007.png,,,,,,,,,,,,5,2,,,,,,,0,6,0,5,,,,,,,,,,,287.9041,288.4001,288.6531,290.8862,space,2.2149,,290.8862,72,2,291.8811,291.8812,293.4477,space,1.5242,,0,10,10,10,1,175,105,,,,,,,,
,,646a18d69a871ffc84c0ce29,65af55ba14893441390476a8,2024-01-23_08h05.37.419,bars,2023.2.3,Win32,60.24096386,657b66ea316d21385b68909f,,,,,,,,,,,293.4485,294.4452,,,294.9468,295.1811,,142,142,,,,,,,,,,,,,,,,bars/035.png,bars/mask005.png,,,,,,,,,,,,0,1,,,,,,,0,8,0,9,,,,,,,,,,,294.4452,294.9466,295.1811,298.062,space,2.8634,,298.0621,33,82,299.0607,299.0608,300.6085,space,1.5062,,0,11,11,11,1,175,60,,,,,,,,
,,646a18d69a871ffc84c0ce29,65af55ba14893441390476a8,2024-01-23_08h05.37.419,bars,2023.2.3,Win32,60.24096386,657b66ea316d21385b68909f,,,,,,,,,,,300.6091,301.6206,,,302.1213,302.3634,,1,1,,,,,,,,,,,,,,,,bars/010.png,bars/mask005.png,,,,,,,,,,,,1,1,,,,,,,2,10,2,9,,,,,,,,,,,301.6206,302.1212,302.3635,305.0354,space,2.6481,,305.0354,16,54,306.0264,306.0265,307.4854,space,1.425,,0,12,12,12,1,165,55,,,,,,,,
,,646a18d69a871ffc84c0ce29,65af55ba14893441390476a8,2024-01-23_08h05.37.419,bars,2023.2.3,Win32,60.24096386,657b66ea316d21385b68909f,,,,,,,,,,,307.4862,308.481,,,308.9842,309.2322,,154,154,,,,,,,,,,,,,,,,bars/043.png,bars/mask005.png,,,,,,,,,,,,2,2,,,,,,,0,10,0,10,,,,,,,,,,,308.4811,308.9841,309.2322,315.0757,space,5.8252,,315.0758,56,24,316.0795,316.0796,317.424,space,1.2841,,0,13,13,13,1,30,130,,,,,,,,
,,646a18d69a871ffc84c0ce29,65af55ba14893441390476a8,2024-01-23_08h05.37.419,bars,2023.2.3,Win32,60.24096386,657b66ea316d21385b68909f,,,,,,,,,,,317.4248,318.4208,,,318.9142,319.1541,,48,48,,,,,,,,,,,,,,,,bars/010.png,bars/mask002.png,,,,,,,,,,,,8,2,,,,,,,0,10,0,10,,,,,,,,,,,318.4208,318.9141,319.1542,322.5288,space,3.3582,,322.5289,63,7,323.5327,323.5329,325.544,space,1.9736,,0,14,14,14,1,165,55,,,,,,,,
,,646a18d69a871ffc84c0ce29,65af55ba14893441390476a8,2024-01-23_08h05.37.419,bars,2023.2.3,Win32,60.24096386,657b66ea316d21385b68909f,,,,,,,,,,,325.5446,326.5238,,,326.9993,327.2495,,1,181,,,,,,,,,,,,,,,,bars/044.png,bars/mask007.png,,,,,,,,,,,,1,2,,,,,,,2,8,3,8,,,,,,,,,,,326.5239,326.9993,327.2496,330.3665,space,3.0977,,330.3666,74,26,331.3603,331.3604,332.4862,space,1.0898,,0,15,15,15,1,75,155,,,,,,,,
,,646a18d69a871ffc84c0ce29,65af55ba14893441390476a8,2024-01-23_08h05.37.419,bars,2023.2.3,Win32,60.24096386,657b66ea316d21385b68909f,,,,,,,,,,,332.4868,333.4828,,,333.9896,334.242,,49,49,,,,,,,,,,,,,,,,bars/025.png,bars/mask000.png,,,,,,,,,,,,4,2,,,,,,,0,6,0,5,,,,,,,,,,,333.4828,333.9894,334.242,336.8734,space,2.6116,,336.8735,56,9,337.8557,337.8557,339.2392,space,1.3461,,0,16,16,16,1,105,40,,,,,,,,
,,646a18d69a871ffc84c0ce29,65af55ba14893441390476a8,2024-01-23_08h05.37.419,bars,2023.2.3,Win32,60.24096386,657b66ea316d21385b68909f,,,,,,,,,,,339.2397,340.2456,,,340.7491,340.9878,,57,57,,,,,,,,,,,,,,,,bars/027.png,bars/mask004.png,,,,,,,,,,,,2,2,,,,,,,2,4,2,3,,,,,,,,,,,340.2457,340.7491,340.9879,343.4793,space,2.466,,343.4794,53,7,344.4756,344.4757,346.2775,space,1.7707,,0,17,17,17,1,110,50,,,,,,,,
,,646a18d69a871ffc84c0ce29,65af55ba14893441390476a8,2024-01-23_08h05.37.419,bars,2023.2.3,Win32,60.24096386,657b66ea316d21385b68909f,,,,,,,,,,,346.2782,347.2742,,,347.7624,348.0221,,51,51,,,,,,,,,,,,,,,,bars/018.png,bars/mask009.png,,,,,,,,,,,,0,2,,,,,,,0,6,1,7,,,,,,,,,,,347.2743,347.7624,348.0222,352.0758,space,4.0299,,352.076,81,39,353.0658,353.0658,355.1161,space,2.021,,0,18,18,18,1,150,90,,,,,,,,
,,646a18d69a871ffc84c0ce29,65af55ba14893441390476a8,2024-01-23_08h05.37.419,bars,2023.2.3,Win32,60.24096386,657b66ea316d21385b68909f,,,,,,,,,,,355.1167,356.1047,,,356.6043,356.8632,,98,98,,,,,,,,,,,,,,,,bars/011.png,bars/mask000.png,,,,,,,,,,,,5,2,,,,,,,2,8,2,8,,,,,,,,,,,356.1047,356.6043,356.8633,360.3961,space,3.5159,,360.3961,62,13,361.397,361.397,362.9741,space,1.5286,,0,19,19,19,1,160,85,,,,,,,,
,,646a18d69a871ffc84c0ce29,65af55ba14893441390476a8,2024-01-23_08h05.37.419,bars,2023.2.3,Win32,60.24096386,657b66ea316d21385b68909f,,,,,,,,,,,362.9746,363.9637,,,364.4636,364.7127,,101,101,,,,,,,,,,,,,,,,bars/023.png,bars/mask003.png,,,,,,,,,,,,4,2,,,,,,,4,6,4,8,,,,,,,,,,,363.9637,364.4635,364.7127,368.3208,space,3.5827,,368.3209,81,14,369.3252,369.3253,371.0237,space,1.6688,,0,20,20,20,1,20,115,,,,,,,,
,,646a18d69a871ffc84c0ce29,65af55ba14893441390476a8,2024-01-23_08h05.37.419,bars,2023.2.3,Win32,60.24096386,657b66ea316d21385b68909f,,,,,,,,,,,371.0244,372.0137,,,372.5054,372.7465,,22,22,,,,,,,,,,,,,,,,bars/045.png,bars/mask007.png,,,,,,,,,,,,2,2,,,,,,,6,4,6,4,,,,,,,,,,,372.0138,372.5053,372.7465,376.1608,space,3.3973,,376.1609,78,12,377.1511,377.1512,378.5172,space,1.333,,0,21,21,21,1,100,10,,,,,,,,
,,646a18d69a871ffc84c0ce29,65af55ba14893441390476a8,2024-01-23_08h05.37.419,bars,2023.2.3,Win32,60.24096386,657b66ea316d21385b68909f,,,,,,,,,,,378.5178,379.5157,,,380.0061,380.2523,,60,60,,,,,,,,,,,,,,,,bars/027.png,bars/mask003.png,,,,,,,,,,,,1,2,,,,,,,8,2,8,2,,,,,,,,,,,379.5158,380.006,380.2523,385.8597,space,5.5796,,385.8598,50,10,386.8661,386.8661,388.09,space,1.1878,,0,22,22,22,1,110,50,,,,,,,,
,,646a18d69a871ffc84c0ce29,65af55ba14893441390476a8,2024-01-23_08h05.37.419,bars,2023.2.3,Win32,60.24096386,657b66ea316d21385b68909f,,,,,,,,,,,388.0906,389.089,,,389.5884,389.8381,,168,168,,,,,,,,,,,,,,,,bars/044.png,bars/mask004.png,,,,,,,,,,,,3,2,,,,,,,6,4,6,6,,,,,,,,,,,389.0891,389.5884,389.8382,395.7507,space,5.899,,395.7508,87,13,396.7481,396.7482,398.3148,space,1.5346,,0,23,23,23,1,75,155,,,,,,,,
,,646a18d69a871ffc84c0ce29,65af55ba14893441390476a8,2024-01-23_08h05.37.419,bars,2023.2.3,Win32,60.24096386,657b66ea316d21385b68909f,,,,,,,,,,,398.3156,399.3056,,,399.7958,400.045,,100,100,,,,,,,,,,,,,,,,bars/009.png,bars/mask006.png,,,,,,,,,,,,1,2,,,,,,,4,2,3,1,,,,,,,,,,,399.3056,399.7956,400.045,403.0807,space,3.0128,,403.0808,85,5,404.0743,404.0744,405.1686,space,1.0645,,0,24,24,24,1,15,105,,,,,,,,
,,646a18d69a871ffc84c0ce29,65af55ba14893441390476a8,2024-01-23_08h05.37.419,bars,2023.2.3,Win32,60.24096386,657b66ea316d21385b68909f,,,,,,,,,,,405.1692,406.1724,,,406.682,406.9323,,41,41,,,,,,,,,,,,,,,,bars/033.png,bars/mask004.png,,,,,,,,,,,,1,1,,,,,,,2,4,2,2,,,,,,,,,,,406.1727,406.6819,406.9324,410.6261,space,3.6775,,410.6261,16,66,411.6298,411.6299,413.0471,space,1.3774,,0,25,25,25,1,25,155,,,,,,,,
,,646a18d69a871ffc84c0ce29,65af55ba14893441390476a8,2024-01-23_08h05.37.419,bars,2023.2.3,Win32,60.24096386,657b66ea316d21385b68909f,,,,,,,,,,,413.0477,414.0478,,,414.5475,414.7983,,60,60,,,,,,,,,,,,,,,,bars/046.png,bars/mask009.png,,,,,,,,,,,,1,2,,,,,,,4,6,4,6,,,,,,,,,,,414.0478,414.5474,414.7984,415.8014,space,0.9869,,415.8015,85,25,416.7782,416.7783,418.0367,space,1.2273,,0,26,26,26,1,155,85,,,,,,,,
,,646a18d69a871ffc84c0ce29,65af55ba14893441390476a8,2024-01-23_08h05.37.419,bars,2023.2.3,Win32,60.24096386,657b66ea316d21385b68909f,,,,,,,,,,,418.0372,419.03,,,419.53,419.7781,,50,50,,,,,,,,,,,,,,,,bars/007.png,bars/mask006.png,,,,,,,,,,,,1,2,,,,,,,2,4,1,1,,,,,,,,,,,419.0301,419.5298,419.7782,423.4973,space,3.6909,,423.4973,55,5,424.5006,424.5006,425.4886,space,0.9515,,0,27,27,27,1,175,55,,,,,,,,
,,646a18d69a871ffc84c0ce29,65af55ba14893441390476a8,2024-01-23_08h05.37.419,bars,2023.2.3,Win32,60.24096386,657b66ea316d21385b68909f,,,,,,,,,,,425.4891,426.4775,,,426.9849,427.2511,,117,117,,,,,,,,,,,,,,,,bars/026.png,bars/mask002.png,,,,,,,,,,,,0,2,,,,,,,4,2,5,3,,,,,,,,,,,426.4776,426.9849,427.2512,430.1964,space,2.9265,,430.1965,82,32,431.1873,431.1874,432.2768,space,1.0535,,0,28,28,28,1,35,85,,,,,,,,
,,646a18d69a871ffc84c0ce29,65af55ba14893441390476a8,2024-01-23_08h05.37.419,bars,2023.2.3,Win32,60.24096386,657b66ea316d21385b68909f,,,,,,,,,,,432.2773,433.2795,,,433.7739,434.0248,,74,74,,,,,,,,,,,,,,,,bars/035.png,bars/mask008.png,,,,,,,,,,,,0,2,,,,,,,2,0,3,0,,,,,,,,,,,433.2795,433.7738,434.0249,437.4731,space,3.4304,,437.4731,79,14,438.4872,438.4873,439.5297,space,1.0088,,0,29,29,29,1,175,60,,,,,,,,
,,646a18d69a871ffc84c0ce29,65af55ba14893441390476a8,2024-01-23_08h05.37.419,bars,2023.2.3,Win32,60.24096386,657b66ea316d21385b68909f,,,,,,,,,,,439.5303,440.5241,,,441.018,441.2562,,113,-67,,,,,,,,,,,,,,,,bars/001.png,bars/mask002.png,,,,,,,,,,,,1,1,,,,,,,0,0,2,0,,,,,,,,,,,440.5241,441.018,441.2563,445.9821,space,4.7024,,445.9826,17,28,446.9789,446.9789,448.3129,space,1.2967,,0,30,30,30,1,130,85,,,,,,,,
,,646a18d69a871ffc84c0ce29,65af55ba14893441390476a8,2024-01-23_08h05.37.419,bars,2023.2.3,Win32,60.24096386,657b66ea316d21385b68909f,,,,,,,,,,,448.3138,449.3099,,,449.8276,450.0759,,116,116,,,,,,,,,,,,,,,,bars/023.png,bars/mask007.png,,,,,,,,,,,,0,2,,,,,,,2,0,1,0,,,,,,,,,,,449.3099,449.8276,450.076,452.5773,space,2.4834,,452.5774,84,1,453.5653,453.5654,454.942,space,1.3372,,0,31,31,31,1,20,115,,,,,,,,
,,646a18d69a871ffc84c0ce29,65af55ba14893441390476a8,2024-01-23_08h05.37.419,bars,2023.2.3,Win32,60.24096386,657b66ea316d21385b68909f,,,,,,,,,,,454.9426,455.9369,,,456.4341,456.6726,,135,135,,,,,,,,,,,,,,,,bars/033.png,bars/mask005.png,,,,,,,,,,,,0,2,,,,,,,0,0,0,0,,,,,,,,,,,455.937,456.4339,456.6727,460.9441,space,4.2405,,460.9442,70,20,461.9475,461.9475,463.1757,space,1.1935,,0,32,32,32,1,25,155,,,,,,,,
,,646a18d69a871ffc84c0ce29,65af55ba14893441390476a8,2024-01-23_08h05.37.419,bars,2023.2.3,Win32,60.24096386,657b66ea316d21385b68909f,,,,,,,,,,,463.1763,464.1705,,,464.6624,464.9118,,116,116,,,,,,,,,,,,,,,,bars/009.png,bars/mask001.png,,,,,,,,,,,,1,2,,,,,,,0,2,0,2,,,,,,,,,,,464.1705,464.6624,464.9118,466.8437,space,1.9152,,466.8437,79,11,467.8369,467.837,468.9759,space,1.1017,,0,33,33,33,1,15,105,,,,,,,,
,,646a18d69a871ffc84c0ce29,65af55ba14893441390476a8,2024-01-23_08h05.37.419,bars,2023.2.3,Win32,60.24096386,657b66ea316d21385b68909f,,,,,,,,,,,468.9765,469.9662,,,470.4588,470.7225,,32,212,,,,,,,,,,,,,,,,bars/006.png,bars/mask002.png,,,,,,,,,,,,2,1,,,,,,,2,0,2,1,,,,,,,,,,,469.9663,470.4588,470.7226,476.6318,space,5.89,,476.6319,3,68,477.6324,477.6325,478.9506,space,1.2753,,0,34,34,34,1,35,100,,,,,,,,
,,646a18d69a871ffc84c0ce29,65af55ba14893441390476a8,2024-01-23_08h05.37.419,bars,2023.2.3,Win32,60.24096386,657b66ea316d21385b68909f,,,,,,,,,,,478.9512,479.9394,,,480.4299,480.6728,,146,146,,,,,,,,,,,,,,,,bars/049.png,bars/mask004.png,,,,,,,,,,,,0,1,,,,,,,0,2,0,1,,,,,,,,,,,479.9395,480.4299,480.6728,481.6297,space,0.9333,,481.6298,14,31,482.6278,482.6279,483.822,space,1.1768,,0,35,35,35,1,160,115,,,,,,,,
,,646a18d69a871ffc84c0ce29,65af55ba14893441390476a8,2024-01-23_08h05.37.419,bars,2023.2.3,Win32,60.24096386,657b66ea316d21385b68909f,,,,,,,,,,,483.8226,484.8252,,,485.3237,485.5732,,161,161,,,,,,,,,,,,,,,,bars/049.png,bars/mask001.png,,,,,,,,,,,,3,1,,,,,,,2,0,3,0,,,,,,,,,,,484.8252,485.3236,485.5733,489.5718,space,3.9819,,489.5718,1,46,490.5734,490.5734,491.6504,space,1.0489,,0,36,36,36,1,160,115,,,,,,,,
,,646a18d69a871ffc84c0ce29,65af55ba14893441390476a8,2024-01-23_08h05.37.419,bars,2023.2.3,Win32,60.24096386,657b66ea316d21385b68909f,,,,,,,,,,,491.651,492.6471,,,493.1387,493.3978,,152,152,,,,,,,,,,,,,,,,bars/030.png,bars/mask006.png,,,,,,,,,,,,3,1,,,,,,,4,2,5,1,,,,,,,,,,,492.6472,493.1385,493.3979,495.2664,space,1.852,,495.2664,12,87,496.2619,496.2619,497.2957,space,1.0026,,0,37,37,37,1,140,65,,,,,,,,
,,646a18d69a871ffc84c0ce29,65af55ba14893441390476a8,2024-01-23_08h05.37.419,bars,2023.2.3,Win32,60.24096386,657b66ea316d21385b68909f,,,,,,,,,,,497.2962,498.2992,,,498.7926,499.041,,129,129,,,,,,,,,,,,,,,,bars/022.png,bars/mask000.png,,,,,,,,,,,,0,1,,,,,,,2,4,2,5,,,,,,,,,,,498.2993,498.7926,499.0411,503.7269,space,4.6646,,503.7272,34,71,504.7257,504.7258,505.7698,space,1.0147,,0,38,38,38,1,95,20,,,,,,,,
,,646a18d69a871ffc84c0ce29,65af55ba14893441390476a8,2024-01-23_08h05.37.419,bars,2023.2.3,Win32,60.24096386,657b66ea316d21385b68909f,,,,,,,,,,,505.7703,506.7673,,,507.2677,507.5157,,94,94,,,,,,,,,,,,,,,,bars/023.png,bars/mask006.png,,,,,,,,,,,,2,2,,,,,,,4,6,3,6,,,,,,,,,,,506.7673,507.2676,507.5157,510.9374,space,3.4045,,510.9375,74,21,511.929,511.9291,512.9222,space,0.9564,,0,39,39,39,1,20,115,,,,,,,,
,,646a18d69a871ffc84c0ce29,65af55ba14893441390476a8,2024-01-23_08h05.37.419,bars,2023.2.3,Win32,60.24096386,657b66ea316d21385b68909f,,,,,,,,,,,512.9227,513.9108,,,514.4001,514.6594,,38,38,,,,,,,,,,,,,,,,bars/047.png,bars/mask002.png,,,,,,,,,,,,0,1,,,,,,,2,4,1,3,,,,,,,,,,,513.9108,514.4,514.6595,516.5756,space,1.8995,,516.5757,23,32,517.564,517.5641,518.5742,space,0.9822,,0,40,40,40,1,15,70,,,,,,,,
,,646a18d69a871ffc84c0ce29,65af55ba14893441390476a8,2024-01-23_08h05.37.419,bars,2023.2.3,Win32,60.24096386,657b66ea316d21385b68909f,,,,,,,,,,,518.575,519.5782,,,520.0712,520.313,,31,31,,,,,,,,,,,,,,,,bars/007.png,bars/mask008.png,,,,,,,,,,,,0,2,,,,,,,4,2,3,2,,,,,,,,,,,519.5783,520.0711,520.3131,522.2611,space,1.9233,,522.2612,36,24,523.2578,523.2579,524.3426,space,1.0617,,0,41,41,41,1,175,55,,,,,,,,
,,646a18d69a871ffc84c0ce29,65af55ba14893441390476a8,2024-01-23_08h05.37.419,bars,2023.2.3,Win32,60.24096386,657b66ea316d21385b68909f,,,,,,,,,,,524.3434,525.3396,,,525.8388,526.0886,,70,70,,,,,,,,,,,,,,,,bars/029.png,bars/mask009.png,,,,,,,,,,,,2,1,,,,,,,6,0,7,1,,,,,,,,,,,525.3397,525.8387,526.0888,529.7692,space,3.6657,,529.7693,20,25,530.7731,530.7731,531.7709,space,0.9536,,0,42,42,42,1,90,45,,,,,,,,
,,646a18d69a871ffc84c0ce29,65af55ba14893441390476a8,2024-01-23_08h05.37.419,bars,2023.2.3,Win32,60.24096386,657b66ea316d21385b68909f,,,,,,,,,,,531.7715,532.781,,,533.2826,533.5282,,35,35,,,,,,,,,,,,,,,,bars/012.png,bars/mask003.png,,,,,,,,,,,,0,2,,,,,,,4,0,6,0,,,,,,,,,,,532.7812,533.2826,533.5283,537.2625,space,3.7175,,537.2625,55,20,538.2593,538.2594,539.477,space,1.174,,0,43,43,43,1,90,15,,,,,,,,
,,646a18d69a871ffc84c0ce29,65af55ba14893441390476a8,2024-01-23_08h05.37.419,bars,2023.2.3,Win32,60.24096386,657b66ea316d21385b68909f,,,,,,,,,,,539.4775,540.4723,,,540.981,541.2275,,134,134,,,,,,,,,,,,,,,,bars/018.png,bars/mask003.png,,,,,,,,,,,,1,1,,,,,,,2,0,2,0,,,,,,,,,,,540.4723,540.9809,541.2275,545.1844,space,3.9306,,545.1845,16,44,546.1753,546.1754,547.2332,space,1.0174,,0,44,44,44,1,150,90,,,,,,,,
,,646a18d69a871ffc84c0ce29,65af55ba14893441390476a8,2024-01-23_08h05.37.419,bars,2023.2.3,Win32,60.24096386,657b66ea316d21385b68909f,,,,,,,,,,,547.2341,548.2229,,,548.7116,548.9543,,32,32,,,,,,,,,,,,,,,,bars/013.png,bars/mask001.png,,,,,,,,,,,,1,2,,,,,,,0,0,0,2,,,,,,,,,,,548.2229,548.7115,548.9543,551.5968,space,2.6182,,551.597,43,22,552.5927,552.5929,553.4869,space,0.8511,,0,45,45,45,1,75,10,,,,,,,,
,,646a18d69a871ffc84c0ce29,65af55ba14893441390476a8,2024-01-23_08h05.37.419,bars,2023.2.3,Win32,60.24096386,657b66ea316d21385b68909f,,,,,,,,,,,553.4876,554.4887,,,554.9775,555.2185,,47,47,,,,,,,,,,,,,,,,bars/047.png,bars/mask008.png,,,,,,,,,,,,0,2,,,,,,,2,2,2,1,,,,,,,,,,,554.4889,554.9774,555.2185,559.1724,space,3.932,,559.1725,32,23,560.1688,560.1688,561.0698,space,0.8647,,0,46,46,46,1,15,70,,,,,,,,
,,646a18d69a871ffc84c0ce29,65af55ba14893441390476a8,2024-01-23_08h05.37.419,bars,2023.2.3,Win32,60.24096386,657b66ea316d21385b68909f,,,,,,,,,,,561.0708,562.0828,,,562.5597,562.7878,,42,42,,,,,,,,,,,,,,,,bars/031.png,bars/mask005.png,,,,,,,,,,,,1,2,,,,,,,4,0,5,1,,,,,,,,,,,562.0828,562.5596,562.788,567.113,space,4.3056,,567.1132,78,7,568.1238,568.1238,569.3985,space,1.2168,,0,47,47,47,1,120,35,,,,,,,,
,,646a18d69a871ffc84c0ce29,65af55ba14893441390476a8,2024-01-23_08h05.37.419,bars,2023.2.3,Win32,60.24096386,657b66ea316d21385b68909f,,,,,,,,,,,569.4001,570.3976,,,570.8987,571.1578,,69,69,,,,,,,,,,,,,,,,bars/022.png,bars/mask006.png,,,,,,,,,,,,1,1,,,,,,,6,2,7,3,,,,,,,,,,,570.3976,570.8986,571.1578,574.0091,space,2.8338,,574.0091,26,49,575.0031,575.0033,575.9209,space,0.8745,,0,48,48,48,1,95,20,,,,,,,,
,,646a18d69a871ffc84c0ce29,65af55ba14893441390476a8,2024-01-23_08h05.37.419,bars,2023.2.3,Win32,60.24096386,657b66ea316d21385b68909f,,,,,,,,,,,575.9215,576.9158,,,577.4098,577.6498,,26,26,,,,,,,,,,,,,,,,bars/025.png,bars/mask003.png,,,,,,,,,,,,2,2,,,,,,,4,4,3,4,,,,,,,,,,,576.9158,577.4097,577.6499,579.8964,space,2.2296,,579.8965,79,14,580.8848,580.8849,582.018,space,1.0909,,0,49,49,49,1,105,40,,,,,,,,
,,646a18d69a871ffc84c0ce29,65af55ba14893441390476a8,2024-01-23_08h05.37.419,bars,2023.2.3,Win32,60.24096386,657b66ea316d21385b68909f,,,,,,,,,,,,,,,,,,,,,,,,,,,,,,,,,,,,,,,,,,,,,,,,,,,,,,,,,,,,,,,,,,,,,,,,,,,,,,,,,,,,,,,,,,,,,582.0198,642.0121,0,0,0,2,1,sequence_tables/blk023.csv
,,646a18d69a871ffc84c0ce29,65af55ba14893441390476a8,2024-01-23_08h05.37.419,bars,2023.2.3,Win32,60.24096386,657b66ea316d21385b68909f,,,,,,,,,,,643.8226,644.815,,,645.3185,645.5685,,156,156,,,,,,,,,,,,,,,,bars/021.png,bars/mask007.png,,,,,,,,,,,,2,1,,,,,,,2,4,2,5,,,,,,642.0369,643.8073,space,1.7571,,644.8152,645.3184,645.5686,649.9691,space,4.3838,,649.9692,1,86,650.9629,650.9629,650.9863,,,,0,0,0,0,1,155,70,,,,,,,,
,,646a18d69a871ffc84c0ce29,65af55ba14893441390476a8,2024-01-23_08h05.37.419,bars,2023.2.3,Win32,60.24096386,657b66ea316d21385b68909f,,,,,,,,,,,650.9868,651.9789,,,652.4819,652.7282,,66,66,,,,,,,,,,,,,,,,bars/024.png,bars/mask006.png,,,,,,,,,,,,0,1,,,,,,,4,6,4,7,,,,,,,,,,,651.979,652.4818,652.7282,656.8116,space,4.0669,,656.8117,54,76,657.8078,657.8079,657.8303,,,,0,1,1,1,1,120,170,,,,,,,,
,,646a18d69a871ffc84c0ce29,65af55ba14893441390476a8,2024-01-23_08h05.37.419,bars,2023.2.3,Win32,60.24096386,657b66ea316d21385b68909f,,,,,,,,,,,657.8307,658.8198,,,659.3096,659.5549,,128,128,,,,,,,,,,,,,,,,bars/003.png,bars/mask000.png,,,,,,,,,,,,5,2,,,,,,,6,8,5,8,,,,,,,,,,,658.8199,659.3095,659.5549,663.7063,space,4.1354,,663.7063,77,12,664.6973,664.6973,664.7211,,,,0,2,2,2,1,25,140,,,,,,,,
,,646a18d69a871ffc84c0ce29,65af55ba14893441390476a8,2024-01-23_08h05.37.419,bars,2023.2.3,Win32,60.24096386,657b66ea316d21385b68909f,,,,,,,,,,,664.7217,665.7317,,,666.2513,666.4805,,22,22,,,,,,,,,,,,,,,,bars/032.png,bars/mask003.png,,,,,,,,,,,,7,2,,,,,,,4,6,2,7,,,,,,,,,,,665.7317,666.2513,666.4806,669.0633,space,2.5664,,669.0633,77,2,670.0654,670.0655,670.0866,,,,0,3,3,3,1,125,20,,,,,,,,
,,646a18d69a871ffc84c0ce29,65af55ba14893441390476a8,2024-01-23_08h05.37.419,bars,2023.2.3,Win32,60.24096386,657b66ea316d21385b68909f,,,,,,,,,,,670.0873,671.0998,,,671.6097,671.8408,,45,45,,,,,,,,,,,,,,,,bars/031.png,bars/mask008.png,,,,,,,,,,,,3,2,,,,,,,6,4,6,4,,,,,,,,,,,671.0999,671.6096,671.8409,676.1061,space,4.2487,,676.1062,75,10,677.1039,677.1039,677.1247,,,,0,4,4,4,1,120,35,,,,,,,,
,,646a18d69a871ffc84c0ce29,65af55ba14893441390476a8,2024-01-23_08h05.37.419,bars,2023.2.3,Win32,60.24096386,657b66ea316d21385b68909f,,,,,,,,,,,677.1251,678.1129,,,678.623,678.8708,,144,144,,,,,,,,,,,,,,,,bars/009.png,bars/mask003.png,,,,,,,,,,,,0,2,,,,,,,8,2,9,3,,,,,,,,,,,678.113,678.623,678.8709,681.5586,space,2.6584,,681.5587,51,39,682.5485,682.5486,682.5691,,,,0,5,5,5,1,15,105,,,,,,,,
,,646a18d69a871ffc84c0ce29,65af55ba14893441390476a8,2024-01-23_08h05.37.419,bars,2023.2.3,Win32,60.24096386,657b66ea316d21385b68909f,,,,,,,,,,,682.5695,683.5632,,,684.0631,684.3137,,130,130,,,,,,,,,,,,,,,,bars/049.png,bars/mask006.png,,,,,,,,,,,,0,2,,,,,,,6,0,7,0,,,,,,,,,,,683.5632,684.0631,684.3138,687.7808,space,3.4496,,687.7809,30,15,688.7795,688.7795,688.8002,,,,0,6,6,6,1,160,115,,,,,,,,
,,646a18d69a871ffc84c0ce29,65af55ba14893441390476a8,2024-01-23_08h05.37.419,bars,2023.2.3,Win32,60.24096386,657b66ea316d21385b68909f,,,,,,,,,,,688.8006,689.7956,,,690.295,690.5445,,51,51,,,,,,,,,,,,,,,,bars/047.png,bars/mask005.png,,,,,,,,,,,,1,2,,,,,,,4,2,4,2,,,,,,,,,,,689.7956,690.295,690.5446,694.7581,space,4.195,,694.7583,36,19,695.756,695.7561,695.7763,,,,0,7,7,7,1,15,70,,,,,,,,
,,646a18d69a871ffc84c0ce29,65af55ba14893441390476a8,2024-01-23_08h05.37.419,bars,2023.2.3,Win32,60.24096386,657b66ea316d21385b68909f,,,,,,,,,,,695.7767,696.772,,,697.2716,697.521,,139,139,,,,,,,,,,,,,,,,bars/016.png,bars/mask003.png,,,,,,,,,,,,1,2,,,,,,,2,4,2,5,,,,,,,,,,,696.772,697.2716,697.521,701.7336,space,4.1975,,701.7336,81,26,702.7324,702.7325,702.7523,,,,0,8,8,8,1,40,165,,,,,,,,
,,646a18d69a871ffc84c0ce29,65af55ba14893441390476a8,2024-01-23_08h05.37.419,bars,2023.2.3,Win32,60.24096386,657b66ea316d21385b68909f,,,,,,,,,,,702.7527,703.7481,,,704.2478,704.4975,,122,-58,,,,,,,,,,,,,,,,bars/019.png,bars/mask005.png,,,,,,,,,,,,1,2,,,,,,,4,2,5,2,,,,,,,,,,,703.7481,704.2477,704.4976,709.4143,space,4.9018,,709.4144,77,17,710.4024,710.4025,710.4232,,,,0,9,9,9,1,45,105,,,,,,,,
,,646a18d69a871ffc84c0ce29,65af55ba14893441390476a8,2024-01-23_08h05.37.419,bars,2023.2.3,Win32,60.24096386,657b66ea316d21385b68909f,,,,,,,,,,,710.4236,711.4239,,,711.9236,712.1637,,31,31,,,,,,,,,,,,,,,,bars/025.png,bars/mask001.png,,,,,,,,,,,,3,2,,,,,,,6,4,9,4,,,,,,,,,,,711.424,711.9236,712.1637,713.8271,space,1.6407,,713.8272,74,9,714.8183,714.8184,714.8203,,,,0,10,10,10,1,105,40,,,,,,,,
,,646a18d69a871ffc84c0ce29,65af55ba14893441390476a8,2024-01-23_08h05.37.419,bars,2023.2.3,Win32,60.24096386,657b66ea316d21385b68909f,,,,,,,,,,,714.8209,715.8138,,,716.2981,716.5482,,152,152,,,,,,,,,,,,,,,,bars/014.png,bars/mask004.png,,,,,,,,,,,,0,2,,,,,,,8,2,8,0,,,,,,,,,,,715.8139,716.298,716.5482,722.295,space,5.722,,722.295,72,28,723.2847,723.2848,723.3061,,,,0,11,11,11,1,80,0,,,,,,,,
,,646a18d69a871ffc84c0ce29,65af55ba14893441390476a8,2024-01-23_08h05.37.419,bars,2023.2.3,Win32,60.24096386,657b66ea316d21385b68909f,,,,,,,,,,,723.3067,724.308,,,724.8098,725.074,,44,44,,,,,,,,,,,,,,,,bars/031.png,bars/mask003.png,,,,,,,,,,,,3,2,,,,,,,10,4,10,4,,,,,,,,,,,724.3091,724.8098,725.0741,726.5909,space,1.5003,,726.591,76,9,727.5882,727.5882,727.6105,,,,0,12,12,12,1,120,35,,,,,,,,
,,646a18d69a871ffc84c0ce29,65af55ba14893441390476a8,2024-01-23_08h05.37.419,bars,2023.2.3,Win32,60.24096386,657b66ea316d21385b68909f,,,,,,,,,,,727.6111,728.5935,,,729.0886,729.3411,,108,108,,,,,,,,,,,,,,,,bars/001.png,bars/mask002.png,,,,,,,,,,,,2,1,,,,,,,8,2,8,1,,,,,,,,,,,728.5936,729.0884,729.3412,731.4834,space,2.1238,,731.4835,22,23,732.4815,732.4815,732.5036,,,,0,13,13,13,1,130,85,,,,,,,,
,,646a18d69a871ffc84c0ce29,65af55ba14893441390476a8,2024-01-23_08h05.37.419,bars,2023.2.3,Win32,60.24096386,657b66ea316d21385b68909f,,,,,,,,,,,732.5041,733.4956,,,733.9859,734.2301,,64,64,,,,,,,,,,,,,,,,bars/030.png,bars/mask003.png,,,,,,,,,,,,4,2,,,,,,,10,4,10,4,,,,,,,,,,,733.4956,733.9859,734.2302,737.2992,space,3.0484,,737.2993,76,1,738.308,738.3081,738.33,,,,0,14,14,14,1,140,65,,,,,,,,
,,646a18d69a871ffc84c0ce29,65af55ba14893441390476a8,2024-01-23_08h05.37.419,bars,2023.2.3,Win32,60.24096386,657b66ea316d21385b68909f,,,,,,,,,,,738.3308,739.3299,,,739.8266,740.0792,,126,126,,,,,,,,,,,,,,,,bars/028.png,bars/mask007.png,,,,,,,,,,,,4,2,,,,,,,8,6,6,5,,,,,,,,,,,739.33,739.8264,740.0793,743.3095,space,3.202,,743.3095,81,6,744.3062,744.3062,744.33,,,,0,15,15,15,1,45,120,,,,,,,,
,,646a18d69a871ffc84c0ce29,65af55ba14893441390476a8,2024-01-23_08h05.37.419,bars,2023.2.3,Win32,60.24096386,657b66ea316d21385b68909f,,,,,,,,,,,744.3305,745.3232,,,745.8234,746.064,,27,27,,,,,,,,,,,,,,,,bars/022.png,bars/mask009.png,,,,,,,,,,,,5,2,,,,,,,6,8,6,6,,,,,,,,,,,745.3233,745.8233,746.0641,750.4553,space,4.3682,,750.4555,68,7,751.4646,751.4647,751.4866,,,,0,16,16,16,1,95,20,,,,,,,,
,,646a18d69a871ffc84c0ce29,65af55ba14893441390476a8,2024-01-23_08h05.37.419,bars,2023.2.3,Win32,60.24096386,657b66ea316d21385b68909f,,,,,,,,,,,751.487,752.4839,,,752.9968,753.2367,,156,-24,,,,,,,,,,,,,,,,bars/016.png,bars/mask002.png,,,,,,,,,,,,4,2,,,,,,,4,6,4,6,,,,,,,,,,,752.4839,752.9967,753.2368,756.6776,space,3.4143,,756.6776,64,9,757.6756,757.6756,757.6979,,,,0,17,17,17,1,40,165,,,,,,,,
,,646a18d69a871ffc84c0ce29,65af55ba14893441390476a8,2024-01-23_08h05.37.419,bars,2023.2.3,Win32,60.24096386,657b66ea316d21385b68909f,,,,,,,,,,,757.6983,758.6911,,,759.1906,759.4357,,45,45,,,,,,,,,,,,,,,,bars/002.png,bars/mask000.png,,,,,,,,,,,,0,2,,,,,,,2,4,2,5,,,,,,,,,,,758.6911,759.1905,759.4357,762.2389,space,2.7818,,762.239,85,40,763.2404,763.2406,763.2594,,,,0,18,18,18,1,130,85,,,,,,,,
,,646a18d69a871ffc84c0ce29,65af55ba14893441390476a8,2024-01-23_08h05.37.419,bars,2023.2.3,Win32,60.24096386,657b66ea316d21385b68909f,,,,,,,,,,,763.2598,764.2659,,,764.761,765.0018,,48,48,,,,,,,,,,,,,,,,bars/018.png,bars/mask005.png,,,,,,,,,,,,0,2,,,,,,,0,2,0,3,,,,,,,,,,,764.266,764.761,765.0019,770.4931,space,5.4749,,770.4932,78,42,771.4821,771.4821,771.503,,,,0,19,19,19,1,150,90,,,,,,,,
,,646a18d69a871ffc84c0ce29,65af55ba14893441390476a8,2024-01-23_08h05.37.419,bars,2023.2.3,Win32,60.24096386,657b66ea316d21385b68909f,,,,,,,,,,,771.5034,772.4981,,,772.9974,773.2473,,150,150,,,,,,,,,,,,,,,,bars/016.png,bars/mask008.png,,,,,,,,,,,,1,2,,,,,,,2,0,0,1,,,,,,,,,,,772.4982,772.9973,773.2475,778.6021,space,5.3297,,778.6022,70,15,779.5912,779.5912,779.6098,,,,0,20,20,20,1,40,165,,,,,,,,
,,646a18d69a871ffc84c0ce29,65af55ba14893441390476a8,2024-01-23_08h05.37.419,bars,2023.2.3,Win32,60.24096386,657b66ea316d21385b68909f,,,,,,,,,,,779.6101,780.6067,,,781.1059,781.3463,,112,112,,,,,,,,,,,,,,,,bars/027.png,bars/mask006.png,,,,,,,,,,,,7,1,,,,,,,4,2,7,2,,,,,,,,,,,780.6068,781.1058,781.3464,783.9039,space,2.5351,,783.9041,2,62,784.9026,784.9026,784.9273,,,,0,21,21,21,1,110,50,,,,,,,,
,,646a18d69a871ffc84c0ce29,65af55ba14893441390476a8,2024-01-23_08h05.37.419,bars,2023.2.3,Win32,60.24096386,657b66ea316d21385b68909f,,,,,,,,,,,784.9278,785.9291,,,786.4296,786.6708,,102,102,,,,,,,,,,,,,,,,bars/046.png,bars/mask008.png,,,,,,,,,,,,0,2,,,,,,,2,0,1,0,,,,,,,,,,,785.9291,786.4294,786.671,789.2126,space,2.5174,,789.2127,53,17,790.2258,790.2258,790.2291,,,,0,22,22,22,1,155,85,,,,,,,,
,,646a18d69a871ffc84c0ce29,65af55ba14893441390476a8,2024-01-23_08h05.37.419,bars,2023.2.3,Win32,60.24096386,657b66ea316d21385b68909f,,,,,,,,,,,790.2298,791.2303,,,791.7255,791.9752,,154,-26,,,,,,,,,,,,,,,,bars/036.png,bars/mask006.png,,,,,,,,,,,,0,1,,,,,,,0,0,0,3,,,,,,,,,,,791.2303,791.7255,791.9752,795.874,space,3.8822,,795.8742,9,46,796.8743,796.8744,796.8975,,,,0,23,23,23,1,145,20,,,,,,,,
,,646a18d69a871ffc84c0ce29,65af55ba14893441390476a8,2024-01-23_08h05.37.419,bars,2023.2.3,Win32,60.24096386,657b66ea316d21385b68909f,,,,,,,,,,,796.8981,797.8893,,,798.3845,798.6474,,135,135,,,,,,,,,,,,,,,,bars/014.png,bars/mask008.png,,,,,,,,,,,,0,2,,,,,,,2,2,2,2,,,,,,,,,,,797.8893,798.3844,798.6474,801.9275,space,3.2585,,801.9275,55,45,802.9082,802.9082,802.9316,,,,0,24,24,24,1,80,0,,,,,,,,
,,646a18d69a871ffc84c0ce29,65af55ba14893441390476a8,2024-01-23_08h05.37.419,bars,2023.2.3,Win32,60.24096386,657b66ea316d21385b68909f,,,,,,,,,,,802.9322,803.9469,,,804.4468,804.6902,,14,194,,,,,,,,,,,,,,,,bars/013.png,bars/mask001.png,,,,,,,,,,,,0,2,,,,,,,4,0,2,0,,,,,,,,,,,803.947,804.4467,804.6902,808.9931,space,4.2803,,808.9932,61,4,809.9841,809.9842,810.0054,,,,0,25,25,25,1,75,10,,,,,,,,
,,646a18d69a871ffc84c0ce29,65af55ba14893441390476a8,2024-01-23_08h05.37.419,bars,2023.2.3,Win32,60.24096386,657b66ea316d21385b68909f,,,,,,,,,,,810.006,810.9997,,,811.4895,811.7392,,46,46,,,,,,,,,,,,,,,,bars/029.png,bars/mask008.png,,,,,,,,,,,,2,2,,,,,,,2,2,2,2,,,,,,,,,,,810.9997,811.4894,811.7393,816.7795,space,5.0237,,816.7796,44,1,817.783,817.7831,817.8051,,,,0,26,26,26,1,90,45,,,,,,,,
,,646a18d69a871ffc84c0ce29,65af55ba14893441390476a8,2024-01-23_08h05.37.419,bars,2023.2.3,Win32,60.24096386,657b66ea316d21385b68909f,,,,,,,,,,,817.8055,818.7992,,,819.2923,819.5484,,41,41,,,,,,,,,,,,,,,,bars/025.png,bars/mask003.png,,,,,,,,,,,,6,2,,,,,,,0,4,0,6,,,,,,,,,,,818.7993,819.2922,819.5484,823.9936,space,4.4288,,823.9937,64,1,824.9932,824.9933,825.0149,,,,0,27,27,27,1,105,40,,,,,,,,
,,646a18d69a871ffc84c0ce29,65af55ba14893441390476a8,2024-01-23_08h05.37.419,bars,2023.2.3,Win32,60.24096386,657b66ea316d21385b68909f,,,,,,,,,,,825.0154,826.0255,,,826.5184,826.761,,118,118,,,,,,,,,,,,,,,,bars/009.png,bars/mask006.png,,,,,,,,,,,,2,2,,,,,,,2,2,1,3,,,,,,,,,,,826.0255,826.5184,826.7611,829.0741,space,2.2947,,829.0742,77,13,830.0711,830.0712,830.0927,,,,0,28,28,28,1,15,105,,,,,,,,
,,646a18d69a871ffc84c0ce29,65af55ba14893441390476a8,2024-01-23_08h05.37.419,bars,2023.2.3,Win32,60.24096386,657b66ea316d21385b68909f,,,,,,,,,,,830.0932,831.1036,,,831.6034,831.8485,,57,57,,,,,,,,,,,,,,,,bars/007.png,bars/mask001.png,,,,,,,,,,,,1,2,,,,,,,0,0,0,1,,,,,,,,,,,831.1037,831.6033,831.8485,834.5682,space,2.7026,,834.5682,62,2,835.5672,835.5672,835.5879,,,,0,29,29,29,1,175,55,,,,,,,,
,,646a18d69a871ffc84c0ce29,65af55ba14893441390476a8,2024-01-23_08h05.37.419,bars,2023.2.3,Win32,60.24096386,657b66ea316d21385b68909f,,,,,,,,,,,835.5883,836.5819,,,837.0717,837.3353,,136,136,,,,,,,,,,,,,,,,bars/033.png,bars/mask002.png,,,,,,,,,,,,0,2,,,,,,,2,2,3,1,,,,,,,,,,,836.582,837.0715,837.3353,842.2808,space,4.9159,,842.2809,69,19,843.2921,843.2922,843.3129,,,,0,30,30,30,1,25,155,,,,,,,,
,,646a18d69a871ffc84c0ce29,65af55ba14893441390476a8,2024-01-23_08h05.37.419,bars,2023.2.3,Win32,60.24096386,657b66ea316d21385b68909f,,,,,,,,,,,843.3134,844.3075,,,844.8007,845.0567,,151,151,,,,,,,,,,,,,,,,bars/000.png,bars/mask004.png,,,,,,,,,,,,0,2,,,,,,,0,0,0,0,,,,,,,,,,,844.3075,844.8006,845.0568,845.9404,space,0.8673,,845.9405,69,6,846.9547,846.9548,846.9562,,,,0,31,31,31,1,40,145,,,,,,,,
,,646a18d69a871ffc84c0ce29,65af55ba14893441390476a8,2024-01-23_08h05.37.419,bars,2023.2.3,Win32,60.24096386,657b66ea316d21385b68909f,,,,,,,,,,,846.9567,847.962,,,848.4571,848.6972,,120,120,,,,,,,,,,,,,,,,bars/003.png,bars/mask008.png,,,,,,,,,,,,0,2,,,,,,,0,0,1,0,,,,,,,,,,,847.962,848.4568,848.6972,852.2672,space,3.547,,852.2673,85,20,853.2647,853.2648,853.2862,,,,0,32,32,32,1,25,140,,,,,,,,
,,646a18d69a871ffc84c0ce29,65af55ba14893441390476a8,2024-01-23_08h05.37.419,bars,2023.2.3,Win32,60.24096386,657b66ea316d21385b68909f,,,,,,,,,,,853.2866,854.2749,,,854.7637,855.0171,,162,162,,,,,,,,,,,,,,,,bars/012.png,bars/mask005.png,,,,,,,,,,,,0,2,,,,,,,2,0,1,2,,,,,,,,,,,854.275,854.7637,855.0172,856.7814,space,1.7485,,856.7815,72,33,857.7709,857.771,857.7926,,,,0,33,33,33,1,90,15,,,,,,,,
,,646a18d69a871ffc84c0ce29,65af55ba14893441390476a8,2024-01-23_08h05.37.419,bars,2023.2.3,Win32,60.24096386,657b66ea316d21385b68909f,,,,,,,,,,,857.7931,858.7933,,,859.2929,859.537,,161,161,,,,,,,,,,,,,,,,bars/044.png,bars/mask007.png,,,,,,,,,,,,0,2,,,,,,,0,0,0,0,,,,,,,,,,,858.7934,859.2929,859.5371,864.419,space,4.8598,,864.4191,86,6,865.4071,865.4071,865.4295,,,,0,34,34,34,1,75,155,,,,,,,,
,,646a18d69a871ffc84c0ce29,65af55ba14893441390476a8,2024-01-23_08h05.37.419,bars,2023.2.3,Win32,60.24096386,657b66ea316d21385b68909f,,,,,,,,,,,865.4299,866.43,,,866.9218,867.1852,,65,65,,,,,,,,,,,,,,,,bars/002.png,bars/mask000.png,,,,,,,,,,,,1,2,,,,,,,2,2,2,2,,,,,,,,,,,866.4301,866.9217,867.1852,871.2991,space,4.0975,,871.2991,65,20,872.2899,872.2899,872.3112,,,,0,35,35,35,1,130,85,,,,,,,,
,,646a18d69a871ffc84c0ce29,65af55ba14893441390476a8,2024-01-23_08h05.37.419,bars,2023.2.3,Win32,60.24096386,657b66ea316d21385b68909f,,,,,,,,,,,872.3117,873.3042,,,873.7956,874.046,,51,51,,,,,,,,,,,,,,,,bars/037.png,bars/mask006.png,,,,,,,,,,,,0,2,,,,,,,0,0,0,0,,,,,,,,,,,873.3042,873.7956,874.0461,875.3792,space,1.3164,,875.3792,81,54,876.3811,876.3812,876.404,,,,0,36,36,36,1,150,105,,,,,,,,
,,646a18d69a871ffc84c0ce29,65af55ba14893441390476a8,2024-01-23_08h05.37.419,bars,2023.2.3,Win32,60.24096386,657b66ea316d21385b68909f,,,,,,,,,,,876.4045,877.395,,,877.8908,878.1413,,26,206,,,,,,,,,,,,,,,,bars/032.png,bars/mask007.png,,,,,,,,,,,,0,2,,,,,,,0,0,0,0,,,,,,,,,,,877.395,877.8907,878.1413,882.9881,space,4.8299,,882.9881,81,6,883.978,883.978,883.9996,,,,0,37,37,37,1,125,20,,,,,,,,
,,646a18d69a871ffc84c0ce29,65af55ba14893441390476a8,2024-01-23_08h05.37.419,bars,2023.2.3,Win32,60.24096386,657b66ea316d21385b68909f,,,,,,,,,,,884,884.9942,,,885.4872,885.7338,,108,108,,,,,,,,,,,,,,,,bars/023.png,bars/mask007.png,,,,,,,,,,,,0,2,,,,,,,0,0,0,0,,,,,,,,,,,884.9942,885.4872,885.7339,888.7031,space,2.9529,,888.7031,88,7,889.696,889.696,889.7165,,,,0,38,38,38,1,20,115,,,,,,,,
,,646a18d69a871ffc84c0ce29,65af55ba14893441390476a8,2024-01-23_08h05.37.419,bars,2023.2.3,Win32,60.24096386,657b66ea316d21385b68909f,,,,,,,,,,,889.7169,890.7127,,,891.2056,891.4485,,27,27,,,,,,,,,,,,,,,,bars/008.png,bars/mask004.png,,,,,,,,,,,,0,2,,,,,,,0,2,0,3,,,,,,,,,,,890.7128,891.2054,891.4486,892.805,space,1.327,,892.8051,83,27,893.7966,893.7966,893.7979,,,,0,39,39,39,1,110,0,,,,,,,,
,,646a18d69a871ffc84c0ce29,65af55ba14893441390476a8,2024-01-23_08h05.37.419,bars,2023.2.3,Win32,60.24096386,657b66ea316d21385b68909f,,,,,,,,,,,893.7984,894.8081,,,895.3062,895.5602,,149,-31,,,,,,,,,,,,,,,,bars/042.png,bars/mask009.png,,,,,,,,,,,,1,1,,,,,,,2,0,1,1,,,,,,,,,,,894.8081,895.3061,895.5602,898.927,space,3.3528,,898.927,4,74,899.9146,899.9147,899.9344,,,,0,40,40,40,1,145,75,,,,,,,,
,,646a18d69a871ffc84c0ce29,65af55ba14893441390476a8,2024-01-23_08h05.37.419,bars,2023.2.3,Win32,60.24096386,657b66ea316d21385b68909f,,,,,,,,,,,899.9349,900.9385,,,901.4387,901.6849,,128,128,,,,,,,,,,,,,,,,bars/034.png,bars/mask007.png,,,,,,,,,,,,5,1,,,,,,,4,2,5,3,,,,,,,,,,,900.9387,901.4387,901.6849,904.4767,space,2.7799,,904.4767,3,63,905.4749,905.4749,905.4964,,,,0,41,41,41,1,125,65,,,,,,,,
,,646a18d69a871ffc84c0ce29,65af55ba14893441390476a8,2024-01-23_08h05.37.419,bars,2023.2.3,Win32,60.24096386,657b66ea316d21385b68909f,,,,,,,,,,,905.4969,906.4895,,,906.9826,907.229,,128,128,,,,,,,,,,,,,,,,bars/040.png,bars/mask005.png,,,,,,,,,,,,1,1,,,,,,,2,4,2,5,,,,,,,,,,,906.4897,906.9826,907.2291,910.6154,space,3.3688,,910.6154,12,57,911.625,911.625,911.6465,,,,0,42,42,42,1,140,5,,,,,,,,
,,646a18d69a871ffc84c0ce29,65af55ba14893441390476a8,2024-01-23_08h05.37.419,bars,2023.2.3,Win32,60.24096386,657b66ea316d21385b68909f,,,,,,,,,,,911.6469,912.6505,,,913.1465,913.3796,,105,105,,,,,,,,,,,,,,,,bars/014.png,bars/mask006.png,,,,,,,,,,,,0,1,,,,,,,4,2,3,2,,,,,,,,,,,912.6507,913.1464,913.3796,914.3847,space,0.9779,,914.3848,25,75,915.3847,915.3848,915.386,,,,0,43,43,43,1,80,0,,,,,,,,
,,646a18d69a871ffc84c0ce29,65af55ba14893441390476a8,2024-01-23_08h05.37.419,bars,2023.2.3,Win32,60.24096386,657b66ea316d21385b68909f,,,,,,,,,,,915.3866,916.3747,,,916.8743,917.1132,,39,219,,,,,,,,,,,,,,,,bars/043.png,bars/mask007.png,,,,,,,,,,,,1,1,,,,,,,2,0,1,0,,,,,,,,,,,916.3749,916.8742,917.1133,920.6365,space,3.4975,,920.6365,9,89,921.6254,921.6255,921.6473,,,,0,44,44,44,1,30,130,,,,,,,,
,,646a18d69a871ffc84c0ce29,65af55ba14893441390476a8,2024-01-23_08h05.37.419,bars,2023.2.3,Win32,60.24096386,657b66ea316d21385b68909f,,,,,,,,,,,921.6478,922.6476,,,923.1474,923.4136,,125,125,,,,,,,,,,,,,,,,bars/020.png,bars/mask006.png,,,,,,,,,,,,0,1,,,,,,,0,2,0,2,,,,,,,,,,,922.6477,923.1474,923.4137,926.2316,space,2.8015,,926.2317,10,45,927.227,927.227,927.2478,,,,0,45,45,45,1,115,170,,,,,,,,
,,646a18d69a871ffc84c0ce29,65af55ba14893441390476a8,2024-01-23_08h05.37.419,bars,2023.2.3,Win32,60.24096386,657b66ea316d21385b68909f,,,,,,,,,,,927.2482,928.2418,,,928.7064,928.9502,,150,-30,,,,,,,,,,,,,,,,bars/011.png,bars/mask009.png,,,,,,,,,,,,1,1,,,,,,,2,0,2,0,,,,,,,,,,,928.2419,928.7063,928.9503,931.7066,space,2.7316,,931.7066,10,65,932.7041,932.7041,932.7253,,,,0,46,46,46,1,160,85,,,,,,,,
,,646a18d69a871ffc84c0ce29,65af55ba14893441390476a8,2024-01-23_08h05.37.419,bars,2023.2.3,Win32,60.24096386,657b66ea316d21385b68909f,,,,,,,,,,,932.7258,933.72,,,934.2366,934.4893,,125,125,,,,,,,,,,,,,,,,bars/001.png,bars/mask008.png,,,,,,,,,,,,3,1,,,,,,,4,2,3,2,,,,,,,,,,,933.7201,934.2365,934.4894,937.0723,space,2.553,,937.0723,5,40,938.0585,938.0585,938.0856,,,,0,47,47,47,1,130,85,,,,,,,,
,,646a18d69a871ffc84c0ce29,65af55ba14893441390476a8,2024-01-23_08h05.37.419,bars,2023.2.3,Win32,60.24096386,657b66ea316d21385b68909f,,,,,,,,,,,938.0863,939.1012,,,939.5939,939.8439,,118,118,,,,,,,,,,,,,,,,bars/028.png,bars/mask004.png,,,,,,,,,,,,2,2,,,,,,,6,0,5,2,,,,,,,,,,,939.1013,939.5936,939.8439,946.7959,space,6.9138,,946.796,73,2,947.7839,947.784,947.8444,,,,0,48,48,48,1,45,120,,,,,,,,
,,646a18d69a871ffc84c0ce29,65af55ba14893441390476a8,2024-01-23_08h05.37.419,bars,2023.2.3,Win32,60.24096386,657b66ea316d21385b68909f,,,,,,,,,,,947.8454,948.8368,,,949.3385,949.5732,,138,138,,,,,,,,,,,,,,,,bars/043.png,bars/mask006.png,,,,,,,,,,,,1,2,,,,,,,4,0,4,1,,,,,,,,,,,948.8368,949.3384,949.5735,952.3207,space,2.7141,,952.3208,72,8,953.3214,953.3215,953.3431,,,,0,49,49,49,1,30,130,,,,,,,,
,,646a18d69a871ffc84c0ce29,65af55ba14893441390476a8,2024-01-23_08h05.37.419,bars,2023.2.3,Win32,60.24096386,657b66ea316d21385b68909f,,,,,,,,,,,,,,,,,,,,,,,,,,,,,,,,,,,,,,,,,,,,,,,,,,,,,,,,,,,,,,,,,,,,,,,,,,,,,,,,,,,,,,,,,,,,,953.3432,1013.346,0,1,1,4,1,sequence_tables/blk040.csv
,,646a18d69a871ffc84c0ce29,65af55ba14893441390476a8,2024-01-23_08h05.37.419,bars,2023.2.3,Win32,60.24096386,657b66ea316d21385b68909f,,,,,,,,,,,1021.77,1022.7383,,,1023.2309,1023.4695,,102,102,,,,,,,,,,,,,,,,bars/018.png,bars/mask005.png,,,,,,,,,,,,4,2,,,,,,,9,7,10,7,,,,,,1013.3722,1021.7353,space,8.3497,,1022.7383,1023.2308,1023.4696,1026.6162,space,3.1322,,1026.6164,48,12,1027.6116,1027.6117,1027.6343,,,,0,0,0,0,1,150,90,,,,,,,,
,,646a18d69a871ffc84c0ce29,65af55ba14893441390476a8,2024-01-23_08h05.37.419,bars,2023.2.3,Win32,60.24096386,657b66ea316d21385b68909f,,,,,,,,,,,1027.6347,1028.6308,,,1029.1195,1029.3739,,42,222,,,,,,,,,,,,,,,,bars/038.png,bars/mask001.png,,,,,,,,,,,,0,2,,,,,,,7,5,7,4,,,,,,,,,,,1028.6308,1029.1194,1029.374,1032.9359,space,3.5397,,1032.936,57,28,1033.9347,1033.9348,1033.9577,,,,0,1,1,1,1,165,70,,,,,,,,
,,646a18d69a871ffc84c0ce29,65af55ba14893441390476a8,2024-01-23_08h05.37.419,bars,2023.2.3,Win32,60.24096386,657b66ea316d21385b68909f,,,,,,,,,,,1033.9586,1034.956,,,1035.4576,1035.7033,,116,116,,,,,,,,,,,,,,,,bars/002.png,bars/mask001.png,,,,,,,,,,,,2,1,,,,,,,5,7,3,7,,,,,,,,,,,1034.956,1035.4576,1035.7033,1038.1385,space,2.4172,,1038.1386,14,31,1039.1337,1039.1337,1039.1567,,,,0,2,2,2,1,130,85,,,,,,,,
,,646a18d69a871ffc84c0ce29,65af55ba14893441390476a8,2024-01-23_08h05.37.419,bars,2023.2.3,Win32,60.24096386,657b66ea316d21385b68909f,,,,,,,,,,,1039.1573,1040.1665,,,1040.6676,1040.9184,,54,54,,,,,,,,,,,,,,,,bars/046.png,bars/mask004.png,,,,,,,,,,,,0,2,,,,,,,7,5,6,6,,,,,,,,,,,1040.1666,1040.6676,1040.9185,1042.4348,space,1.4974,,1042.4349,79,31,1043.4298,1043.4299,1043.4338,,,,0,3,3,3,1,155,85,,,,,,,,
,,646a18d69a871ffc84c0ce29,65af55ba14893441390476a8,2024-01-23_08h05.37.419,bars,2023.2.3,Win32,60.24096386,657b66ea316d21385b68909f,,,,,,,,,,,1043.4344,1044.4267,,,1044.9159,1045.1615,,144,144,,,,,,,,,,,,,,,,bars/033.png,bars/mask009.png,,,,,,,,,,,,4,2,,,,,,,9,7,9,7,,,,,,,,,,,1044.4268,1044.9159,1045.1616,1046.9486,space,1.7705,,1046.9486,61,11,1047.9431,1047.9432,1047.9656,,,,0,4,4,4,1,25,155,,,,,,,,
,,646a18d69a871ffc84c0ce29,65af55ba14893441390476a8,2024-01-23_08h05.37.419,bars,2023.2.3,Win32,60.24096386,657b66ea316d21385b68909f,,,,,,,,,,,1047.9661,1048.9626,,,1049.462,1049.7072,,46,46,,,,,,,,,,,,,,,,bars/007.png,bars/mask002.png,,,,,,,,,,,,4,2,,,,,,,7,5,6,5,,,,,,,,,,,1048.9626,1049.4616,1049.7073,1051.4728,space,1.7495,,1051.4729,51,9,1052.4749,1052.475,1052.4982,,,,0,5,5,5,1,175,55,,,,,,,,
,,646a18d69a871ffc84c0ce29,65af55ba14893441390476a8,2024-01-23_08h05.37.419,bars,2023.2.3,Win32,60.24096386,657b66ea316d21385b68909f,,,,,,,,,,,1052.4988,1053.5011,,,1053.9943,1054.2394,,71,71,,,,,,,,,,,,,,,,bars/018.png,bars/mask008.png,,,,,,,,,,,,1,2,,,,,,,5,3,5,3,,,,,,,,,,,1053.5011,1053.9943,1054.2395,1056.069,space,1.8166,,1056.0691,79,19,1057.0589,1057.0589,1057.0605,,,,0,6,6,6,1,150,90,,,,,,,,
,,646a18d69a871ffc84c0ce29,65af55ba14893441390476a8,2024-01-23_08h05.37.419,bars,2023.2.3,Win32,60.24096386,657b66ea316d21385b68909f,,,,,,,,,,,1057.0611,1058.0637,,,1058.5649,1058.8136,,60,60,,,,,,,,,,,,,,,,bars/042.png,bars/mask006.png,,,,,,,,,,,,1,2,,,,,,,7,1,7,2,,,,,,,,,,,1058.0637,1058.5649,1058.8136,1061.3165,space,2.485,,1061.3166,85,15,1062.3145,1062.3146,1062.3372,,,,0,7,7,7,1,145,75,,,,,,,,
,,646a18d69a871ffc84c0ce29,65af55ba14893441390476a8,2024-01-23_08h05.37.419,bars,2023.2.3,Win32,60.24096386,657b66ea316d21385b68909f,,,,,,,,,,,1062.338,1063.3258,,,1063.8247,1064.0756,,20,20,,,,,,,,,,,,,,,,bars/013.png,bars/mask000.png,,,,,,,,,,,,2,2,,,,,,,9,3,9,3,,,,,,,,,,,1063.3259,1063.8247,1064.0757,1066.3114,space,2.2191,,1066.3115,55,10,1067.2993,1067.2994,1067.3194,,,,0,8,8,8,1,75,10,,,,,,,,
,,646a18d69a871ffc84c0ce29,65af55ba14893441390476a8,2024-01-23_08h05.37.419,bars,2023.2.3,Win32,60.24096386,657b66ea316d21385b68909f,,,,,,,,,,,1067.3198,1068.3101,,,1068.8061,1069.0482,,24,204,,,,,,,,,,,,,,,,bars/040.png,bars/mask007.png,,,,,,,,,,,,3,2,,,,,,,10,5,10,8,,,,,,,,,,,1068.3103,1068.8061,1069.0482,1072.8189,space,3.7478,,1072.8189,64,19,1073.8161,1073.8161,1073.8366,,,,0,9,9,9,1,140,5,,,,,,,,
,,646a18d69a871ffc84c0ce29,65af55ba14893441390476a8,2024-01-23_08h05.37.419,bars,2023.2.3,Win32,60.24096386,657b66ea316d21385b68909f,,,,,,,,,,,1073.8371,1074.8311,,,1075.3303,1075.5798,,48,48,,,,,,,,,,,,,,,,bars/035.png,bars/mask000.png,,,,,,,,,,,,3,2,,,,,,,8,7,7,5,,,,,,,,,,,1074.8311,1075.3303,1075.5799,1079.5483,space,3.9506,,1079.5484,53,12,1080.5466,1080.5468,1080.5686,,,,0,10,10,10,1,175,60,,,,,,,,
,,646a18d69a871ffc84c0ce29,65af55ba14893441390476a8,2024-01-23_08h05.37.419,bars,2023.2.3,Win32,60.24096386,657b66ea316d21385b68909f,,,,,,,,,,,1080.5691,1081.5626,,,1082.0621,1082.3118,,111,111,,,,,,,,,,,,,,,,bars/039.png,bars/mask002.png,,,,,,,,,,,,4,2,,,,,,,10,5,10,5,,,,,,,,,,,1081.5628,1082.0619,1082.3119,1085.0392,space,2.7127,,1085.0393,64,6,1086.0362,1086.0363,1086.0565,,,,0,11,11,11,1,175,105,,,,,,,,
,,646a18d69a871ffc84c0ce29,65af55ba14893441390476a8,2024-01-23_08h05.37.419,bars,2023.2.3,Win32,60.24096386,657b66ea316d21385b68909f,,,,,,,,,,,1086.0569,1087.0447,,,1087.5536,1087.8029,,134,134,,,,,,,,,,,,,,,,bars/016.png,bars/mask006.png,,,,,,,,,,,,0,2,,,,,,,10,3,8,2,,,,,,,,,,,1087.0447,1087.5536,1087.803,1090.4217,space,2.6025,,1090.4217,86,31,1091.4196,1091.4197,1091.4423,,,,0,12,12,12,1,40,165,,,,,,,,
,,646a18d69a871ffc84c0ce29,65af55ba14893441390476a8,2024-01-23_08h05.37.419,bars,2023.2.3,Win32,60.24096386,657b66ea316d21385b68909f,,,,,,,,,,,1091.4429,1092.4321,,,1092.9348,1093.1794,,139,139,,,,,,,,,,,,,,,,bars/043.png,bars/mask000.png,,,,,,,,,,,,4,2,,,,,,,8,5,7,5,,,,,,,,,,,1092.4322,1092.9347,1093.1794,1098.5104,space,5.3144,,1098.5105,71,9,1099.5082,1099.5083,1099.5298,,,,0,13,13,13,1,30,130,,,,,,,,
,,646a18d69a871ffc84c0ce29,65af55ba14893441390476a8,2024-01-23_08h05.37.419,bars,2023.2.3,Win32,60.24096386,657b66ea316d21385b68909f,,,,,,,,,,,1099.5303,1100.5237,,,1101.027,1101.273,,25,205,,,,,,,,,,,,,,,,bars/035.png,bars/mask006.png,,,,,,,,,,,,0,1,,,,,,,10,7,9,6,,,,,,,,,,,1100.5237,1101.0267,1101.273,1105.3732,space,4.0843,,1105.3733,30,35,1106.3716,1106.3716,1106.396,,,,0,14,14,14,1,175,60,,,,,,,,
,,646a18d69a871ffc84c0ce29,65af55ba14893441390476a8,2024-01-23_08h05.37.419,bars,2023.2.3,Win32,60.24096386,657b66ea316d21385b68909f,,,,,,,,,,,1106.3965,1107.4011,,,1107.8987,1108.1436,,6,186,,,,,,,,,,,,,,,,bars/016.png,bars/mask000.png,,,,,,,,,,,,3,2,,,,,,,8,9,9,10,,,,,,,,,,,1107.4011,1107.8986,1108.1436,1110.4416,space,2.2765,,1110.4416,34,21,1111.4457,1111.4457,1111.4727,,,,0,15,15,15,1,40,165,,,,,,,,
,,646a18d69a871ffc84c0ce29,65af55ba14893441390476a8,2024-01-23_08h05.37.419,bars,2023.2.3,Win32,60.24096386,657b66ea316d21385b68909f,,,,,,,,,,,1111.4734,1112.4783,,,1112.9719,1113.2115,,60,60,,,,,,,,,,,,,,,,bars/002.png,bars/mask004.png,,,,,,,,,,,,2,2,,,,,,,6,10,6,10,,,,,,,,,,,1112.4784,1112.9718,1113.2115,1114.7605,space,1.5325,,1114.7605,70,25,1115.7621,1115.7621,1115.7639,,,,0,16,16,16,1,130,85,,,,,,,,
,,646a18d69a871ffc84c0ce29,65af55ba14893441390476a8,2024-01-23_08h05.37.419,bars,2023.2.3,Win32,60.24096386,657b66ea316d21385b68909f,,,,,,,,,,,1115.7645,1116.758,,,1117.2517,1117.4946,,26,26,,,,,,,,,,,,,,,,bars/022.png,bars/mask000.png,,,,,,,,,,,,6,2,,,,,,,8,10,8,8,,,,,,,,,,,1116.7582,1117.2516,1117.4947,1119.257,space,1.7459,,1119.2571,69,6,1120.2543,1120.2543,1120.2559,,,,0,17,17,17,1,95,20,,,,,,,,
,,646a18d69a871ffc84c0ce29,65af55ba14893441390476a8,2024-01-23_08h05.37.419,bars,2023.2.3,Win32,60.24096386,657b66ea316d21385b68909f,,,,,,,,,,,1120.2565,1121.2517,,,1121.7467,1122,,161,161,,,,,,,,,,,,,,,,bars/044.png,bars/mask006.png,,,,,,,,,,,,8,2,,,,,,,10,10,10,10,,,,,,,,,,,1121.2518,1121.7466,1122,1125.3558,space,3.3361,,1125.3559,86,6,1126.3481,1126.3482,1126.3712,,,,0,18,18,18,1,75,155,,,,,,,,
,,646a18d69a871ffc84c0ce29,65af55ba14893441390476a8,2024-01-23_08h05.37.419,bars,2023.2.3,Win32,60.24096386,657b66ea316d21385b68909f,,,,,,,,,,,1126.3716,1127.3634,,,1127.8669,1128.112,,68,68,,,,,,,,,,,,,,,,bars/042.png,bars/mask002.png,,,,,,,,,,,,8,2,,,,,,,8,10,8,10,,,,,,,,,,,1127.3636,1127.8669,1128.112,1130.3965,space,2.2673,,1130.3966,77,7,1131.397,1131.3971,1131.42,,,,0,19,19,19,1,145,75,,,,,,,,
,,646a18d69a871ffc84c0ce29,65af55ba14893441390476a8,2024-01-23_08h05.37.419,bars,2023.2.3,Win32,60.24096386,657b66ea316d21385b68909f,,,,,,,,,,,1131.4206,1132.426,,,1132.9256,1133.1662,,134,134,,,,,,,,,,,,,,,,bars/008.png,bars/mask008.png,,,,,,,,,,,,1,1,,,,,,,6,10,6,10,,,,,,,,,,,1132.426,1132.9255,1133.1663,1135.191,space,2.0003,,1135.1911,24,46,1136.193,1136.193,1136.1971,,,,0,20,20,20,1,110,0,,,,,,,,
,,646a18d69a871ffc84c0ce29,65af55ba14893441390476a8,2024-01-23_08h05.37.419,bars,2023.2.3,Win32,60.24096386,657b66ea316d21385b68909f,,,,,,,,,,,1136.1976,1137.1976,,,1137.6908,1137.9375,,126,126,,,,,,,,,,,,,,,,bars/023.png,bars/mask003.png,,,,,,,,,,,,6,2,,,,,,,8,10,10,10,,,,,,,,,,,1137.1977,1137.6907,1137.9377,1140.2033,space,2.2492,,1140.2033,74,11,1141.2007,1141.2007,1141.2252,,,,0,21,21,21,1,20,115,,,,,,,,
,,646a18d69a871ffc84c0ce29,65af55ba14893441390476a8,2024-01-23_08h05.37.419,bars,2023.2.3,Win32,60.24096386,657b66ea316d21385b68909f,,,,,,,,,,,1141.2259,1142.2216,,,1142.7163,1142.9662,,30,30,,,,,,,,,,,,,,,,bars/036.png,bars/mask000.png,,,,,,,,,,,,5,2,,,,,,,6,8,8,8,,,,,,,,,,,1142.2217,1142.7163,1142.9662,1149.8268,space,6.8421,,1149.8269,65,10,1150.8281,1150.8281,1150.8508,,,,0,22,22,22,1,145,20,,,,,,,,
,,646a18d69a871ffc84c0ce29,65af55ba14893441390476a8,2024-01-23_08h05.37.419,bars,2023.2.3,Win32,60.24096386,657b66ea316d21385b68909f,,,,,,,,,,,1150.8513,1151.8554,,,1152.3564,1152.6024,,150,150,,,,,,,,,,,,,,,,bars/044.png,bars/mask002.png,,,,,,,,,,,,8,2,,,,,,,8,10,7,9,,,,,,,,,,,1151.8554,1152.3564,1152.6025,1154.5248,space,1.9,,1154.5249,75,5,1155.5204,1155.5204,1155.5421,,,,0,23,23,23,1,75,155,,,,,,,,
,,646a18d69a871ffc84c0ce29,65af55ba14893441390476a8,2024-01-23_08h05.37.419,bars,2023.2.3,Win32,60.24096386,657b66ea316d21385b68909f,,,,,,,,,,,1155.5427,1156.5506,,,1157.0399,1157.2887,,46,46,,,,,,,,,,,,,,,,bars/017.png,bars/mask008.png,,,,,,,,,,,,10,2,,,,,,,6,10,7,10,,,,,,,,,,,1156.5507,1157.0399,1157.2888,1159.9172,space,2.6135,,1159.9173,81,1,1160.9,1160.9001,1160.9462,,,,0,24,24,24,1,145,45,,,,,,,,
,,646a18d69a871ffc84c0ce29,65af55ba14893441390476a8,2024-01-23_08h05.37.419,bars,2023.2.3,Win32,60.24096386,657b66ea316d21385b68909f,,,,,,,,,,,1161.001,1161.9589,,,1162.4502,1162.7042,,17,17,,,,,,,,,,,,,,,,bars/032.png,bars/mask009.png,,,,,,,,,,,,7,2,,,,,,,4,8,4,8,,,,,,,,,,,1161.959,1162.45,1162.7042,1164.2393,space,1.5045,,1164.2393,72,3,1165.2321,1165.2322,1165.2357,,,,0,25,25,25,1,125,20,,,,,,,,
,,646a18d69a871ffc84c0ce29,65af55ba14893441390476a8,2024-01-23_08h05.37.419,bars,2023.2.3,Win32,60.24096386,657b66ea316d21385b68909f,,,,,,,,,,,1165.2362,1166.2253,,,1166.7168,1166.9605,,21,21,,,,,,,,,,,,,,,,bars/040.png,bars/mask004.png,,,,,,,,,,,,5,2,,,,,,,2,10,3,10,,,,,,,,,,,1166.2254,1166.7168,1166.9605,1167.8092,space,0.8298,,1167.8092,61,16,1168.807,1168.8071,1168.8081,,,,0,26,26,26,1,140,5,,,,,,,,
,,646a18d69a871ffc84c0ce29,65af55ba14893441390476a8,2024-01-23_08h05.37.419,bars,2023.2.3,Win32,60.24096386,657b66ea316d21385b68909f,,,,,,,,,,,1168.8085,1169.8061,,,1170.3061,1170.5602,,53,53,,,,,,,,,,,,,,,,bars/018.png,bars/mask007.png,,,,,,,,,,,,0,2,,,,,,,0,8,0,9,,,,,,,,,,,1169.8061,1170.306,1170.5602,1174.0262,space,3.4504,,1174.0263,83,37,1175.0221,1175.0222,1175.0445,,,,0,27,27,27,1,150,90,,,,,,,,
,,646a18d69a871ffc84c0ce29,65af55ba14893441390476a8,2024-01-23_08h05.37.419,bars,2023.2.3,Win32,60.24096386,657b66ea316d21385b68909f,,,,,,,,,,,1175.0451,1176.0504,,,1176.543,1176.7998,,42,42,,,,,,,,,,,,,,,,bars/007.png,bars/mask008.png,,,,,,,,,,,,6,2,,,,,,,0,10,0,10,,,,,,,,,,,1176.0504,1176.543,1176.7999,1180.7739,space,3.9574,,1180.774,47,13,1181.7783,1181.7783,1181.8002,,,,0,28,28,28,1,175,55,,,,,,,,
,,646a18d69a871ffc84c0ce29,65af55ba14893441390476a8,2024-01-23_08h05.37.419,bars,2023.2.3,Win32,60.24096386,657b66ea316d21385b68909f,,,,,,,,,,,1181.8007,1182.7892,,,1183.289,1183.52,,125,125,,,,,,,,,,,,,,,,bars/049.png,bars/mask009.png,,,,,,,,,,,,6,2,,,,,,,2,10,2,9,,,,,,,,,,,1182.7892,1183.2888,1183.5201,1184.5451,space,0.9993,,1184.5452,35,10,1185.534,1185.5342,1185.5355,,,,0,29,29,29,1,160,115,,,,,,,,
,,646a18d69a871ffc84c0ce29,65af55ba14893441390476a8,2024-01-23_08h05.37.419,bars,2023.2.3,Win32,60.24096386,657b66ea316d21385b68909f,,,,,,,,,,,1185.5361,1186.5326,,,1187.0259,1187.2664,,133,133,,,,,,,,,,,,,,,,bars/033.png,bars/mask005.png,,,,,,,,,,,,2,2,,,,,,,0,8,0,8,,,,,,,,,,,1186.5326,1187.0259,1187.2664,1192.0358,space,4.7462,,1192.0359,72,22,1193.0332,1193.0333,1193.0546,,,,0,30,30,30,1,25,155,,,,,,,,
,,646a18d69a871ffc84c0ce29,65af55ba14893441390476a8,2024-01-23_08h05.37.419,bars,2023.2.3,Win32,60.24096386,657b66ea316d21385b68909f,,,,,,,,,,,1193.0552,1194.0491,,,1194.5408,1194.7967,,48,48,,,,,,,,,,,,,,,,bars/025.png,bars/mask004.png,,,,,,,,,,,,7,2,,,,,,,2,10,3,9,,,,,,,,,,,1194.0492,1194.5408,1194.7967,1201.3371,space,6.5231,,1201.3371,57,8,1202.3469,1202.3469,1202.3745,,,,0,31,31,31,1,105,40,,,,,,,,
,,646a18d69a871ffc84c0ce29,65af55ba14893441390476a8,2024-01-23_08h05.37.419,bars,2023.2.3,Win32,60.24096386,657b66ea316d21385b68909f,,,,,,,,,,,1202.3751,1203.3541,,,1203.86,1204.1073,,123,123,,,,,,,,,,,,,,,,bars/019.png,bars/mask005.png,,,,,,,,,,,,4,2,,,,,,,4,10,3,10,,,,,,,,,,,1203.3542,1203.86,1204.1073,1205.7914,space,1.6632,,1205.7915,78,18,1206.7908,1206.7908,1206.8152,,,,0,32,32,32,1,45,105,,,,,,,,
,,646a18d69a871ffc84c0ce29,65af55ba14893441390476a8,2024-01-23_08h05.37.419,bars,2023.2.3,Win32,60.24096386,657b66ea316d21385b68909f,,,,,,,,,,,1206.8157,1207.8167,,,1208.3057,1208.5363,,133,133,,,,,,,,,,,,,,,,bars/044.png,bars/mask001.png,,,,,,,,,,,,3,2,,,,,,,2,10,4,10,,,,,,,,,,,1207.8168,1208.3056,1208.5364,1213.8897,space,5.32,,1213.8898,58,22,1214.8922,1214.8922,1214.9161,,,,0,33,33,33,1,75,155,,,,,,,,
,,646a18d69a871ffc84c0ce29,65af55ba14893441390476a8,2024-01-23_08h05.37.419,bars,2023.2.3,Win32,60.24096386,657b66ea316d21385b68909f,,,,,,,,,,,1214.9166,1215.9111,,,1216.4105,1216.6606,,48,48,,,,,,,,,,,,,,,,bars/001.png,bars/mask008.png,,,,,,,,,,,,0,2,,,,,,,0,8,0,8,,,,,,,,,,,1215.9111,1216.4104,1216.6606,1221.234,space,4.5566,,1221.234,82,37,1222.238,1222.2382,1222.2611,,,,0,34,34,34,1,130,85,,,,,,,,
,,646a18d69a871ffc84c0ce29,65af55ba14893441390476a8,2024-01-23_08h05.37.419,bars,2023.2.3,Win32,60.24096386,657b66ea316d21385b68909f,,,,,,,,,,,1222.2619,1223.254,,,1223.7443,1223.9897,,33,33,,,,,,,,,,,,,,,,bars/025.png,bars/mask009.png,,,,,,,,,,,,5,2,,,,,,,2,6,2,6,,,,,,,,,,,1223.254,1223.7442,1223.9898,1229.5489,space,5.5422,,1229.549,72,7,1230.5469,1230.547,1230.5708,,,,0,35,35,35,1,105,40,,,,,,,,
,,646a18d69a871ffc84c0ce29,65af55ba14893441390476a8,2024-01-23_08h05.37.419,bars,2023.2.3,Win32,60.24096386,657b66ea316d21385b68909f,,,,,,,,,,,1230.5712,1231.5796,,,1232.0788,1232.3218,,45,45,,,,,,,,,,,,,,,,bars/036.png,bars/mask006.png,,,,,,,,,,,,1,2,,,,,,,4,4,4,4,,,,,,,,,,,1231.5797,1232.0787,1232.3218,1235.0938,space,2.7483,,1235.0938,80,25,1236.0915,1236.0916,1236.1146,,,,0,36,36,36,1,145,20,,,,,,,,
,,646a18d69a871ffc84c0ce29,65af55ba14893441390476a8,2024-01-23_08h05.37.419,bars,2023.2.3,Win32,60.24096386,657b66ea316d21385b68909f,,,,,,,,,,,1236.1149,1237.1073,,,1237.5991,1237.8397,,19,19,,,,,,,,,,,,,,,,bars/004.png,bars/mask001.png,,,,,,,,,,,,2,1,,,,,,,2,6,3,8,,,,,,,,,,,1237.1073,1237.5991,1237.8398,1238.9897,space,1.134,,1238.9898,6,74,1239.9865,1239.9866,1239.9902,,,,0,37,37,37,1,25,125,,,,,,,,
,,646a18d69a871ffc84c0ce29,65af55ba14893441390476a8,2024-01-23_08h05.37.419,bars,2023.2.3,Win32,60.24096386,657b66ea316d21385b68909f,,,,,,,,,,,1239.9907,1240.9894,,,1241.4879,1241.7267,,37,37,,,,,,,,,,,,,,,,bars/017.png,bars/mask008.png,,,,,,,,,,,,5,2,,,,,,,4,8,4,7,,,,,,,,,,,1240.9894,1241.4879,1241.7268,1245.4829,space,3.7319,,1245.483,72,8,1246.482,1246.4821,1246.5062,,,,0,38,38,38,1,145,45,,,,,,,,
,,646a18d69a871ffc84c0ce29,65af55ba14893441390476a8,2024-01-23_08h05.37.419,bars,2023.2.3,Win32,60.24096386,657b66ea316d21385b68909f,,,,,,,,,,,1246.5067,1247.5003,,,1248.0001,1248.2495,,59,59,,,,,,,,,,,,,,,,bars/002.png,bars/mask002.png,,,,,,,,,,,,1,2,,,,,,,6,10,5,10,,,,,,,,,,,1247.5004,1248,1248.2496,1250.9324,space,2.6683,,1250.9324,71,26,1251.9342,1251.9343,1251.9579,,,,0,39,39,39,1,130,85,,,,,,,,
,,646a18d69a871ffc84c0ce29,65af55ba14893441390476a8,2024-01-23_08h05.37.419,bars,2023.2.3,Win32,60.24096386,657b66ea316d21385b68909f,,,,,,,,,,,1251.9585,1252.948,,,1253.4561,1253.7075,,44,44,,,,,,,,,,,,,,,,bars/026.png,bars/mask004.png,,,,,,,,,,,,4,1,,,,,,,8,8,6,8,,,,,,,,,,,1252.9481,1253.4561,1253.7075,1258.8873,space,5.1628,,1258.8874,9,41,1259.8886,1259.8887,1259.911,,,,0,40,40,40,1,35,85,,,,,,,,
,,646a18d69a871ffc84c0ce29,65af55ba14893441390476a8,2024-01-23_08h05.37.419,bars,2023.2.3,Win32,60.24096386,657b66ea316d21385b68909f,,,,,,,,,,,1259.9115,1260.9041,,,1261.4035,1261.6533,,141,141,,,,,,,,,,,,,,,,bars/049.png,bars/mask008.png,,,,,,,,,,,,2,1,,,,,,,6,6,5,6,,,,,,,,,,,1260.9043,1261.4034,1261.6534,1265.547,space,3.879,,1265.5471,19,26,1266.5619,1266.5619,1266.584,,,,0,41,41,41,1,160,115,,,,,,,,
,,646a18d69a871ffc84c0ce29,65af55ba14893441390476a8,2024-01-23_08h05.37.419,bars,2023.2.3,Win32,60.24096386,657b66ea316d21385b68909f,,,,,,,,,,,1266.5845,1267.5909,,,1268.0802,1268.3171,,46,46,,,,,,,,,,,,,,,,bars/017.png,bars/mask008.png,,,,,,,,,,,,7,2,,,,,,,4,8,6,7,,,,,,,,,,,1267.5909,1268.0801,1268.3172,1270.4981,space,2.1545,,1270.4981,81,1,1271.4933,1271.4934,1271.5184,,,,0,42,42,42,1,145,45,,,,,,,,
,,646a18d69a871ffc84c0ce29,65af55ba14893441390476a8,2024-01-23_08h05.37.419,bars,2023.2.3,Win32,60.24096386,657b66ea316d21385b68909f,,,,,,,,,,,1271.519,1272.5155,,,1273.0095,1273.27,,111,291,,,,,,,,,,,,,,,,bars/023.png,bars/mask001.png,,,,,,,,,,,,8,2,,,,,,,6,10,5,9,,,,,,,,,,,1272.5156,1273.0095,1273.2701,1278.6535,space,5.3643,,1278.6536,89,4,1279.6524,1279.6524,1279.6736,,,,0,43,43,43,1,20,115,,,,,,,,
,,646a18d69a871ffc84c0ce29,65af55ba14893441390476a8,2024-01-23_08h05.37.419,bars,2023.2.3,Win32,60.24096386,657b66ea316d21385b68909f,,,,,,,,,,,1279.6741,1280.668,,,1281.1676,1281.4173,,157,157,,,,,,,,,,,,,,,,bars/016.png,bars/mask007.png,,,,,,,,,,,,4,2,,,,,,,4,8,4,6,,,,,,,,,,,1280.6682,1281.1675,1281.4173,1283.3467,space,1.9146,,1283.3467,63,8,1284.3424,1284.3424,1284.3438,,,,0,44,44,44,1,40,165,,,,,,,,
,,646a18d69a871ffc84c0ce29,65af55ba14893441390476a8,2024-01-23_08h05.37.419,bars,2023.2.3,Win32,60.24096386,657b66ea316d21385b68909f,,,,,,,,,,,1284.3444,1285.3334,,,1285.841,1286.0927,,58,58,,,,,,,,,,,,,,,,bars/018.png,bars/mask006.png,,,,,,,,,,,,0,2,,,,,,,6,10,6,8,,,,,,,,,,,1285.3335,1285.8409,1286.0928,1289.7216,space,3.6123,,1289.7216,88,32,1290.7211,1290.7212,1290.742,,,,0,45,45,45,1,150,90,,,,,,,,
,,646a18d69a871ffc84c0ce29,65af55ba14893441390476a8,2024-01-23_08h05.37.419,bars,2023.2.3,Win32,60.24096386,657b66ea316d21385b68909f,,,,,,,,,,,1290.7426,1291.7406,,,1292.2531,1292.4997,,145,145,,,,,,,,,,,,,,,,bars/040.png,bars/mask008.png,,,,,,,,,,,,8,1,,,,,,,8,10,9,10,,,,,,,,,,,1291.7406,1292.253,1292.4998,1293.9014,space,1.3879,,1293.9015,5,40,1294.9041,1294.9042,1294.9077,,,,0,46,46,46,1,140,5,,,,,,,,
,,646a18d69a871ffc84c0ce29,65af55ba14893441390476a8,2024-01-23_08h05.37.419,bars,2023.2.3,Win32,60.24096386,657b66ea316d21385b68909f,,,,,,,,,,,1294.9081,1295.8995,,,1296.3993,1296.6431,,127,127,,,,,,,,,,,,,,,,bars/009.png,bars/mask008.png,,,,,,,,,,,,2,2,,,,,,,10,8,10,8,,,,,,,,,,,1295.8995,1296.3993,1296.6432,1299.2149,space,2.5487,,1299.215,68,22,1300.2153,1300.2154,1300.2407,,,,0,47,47,47,1,15,105,,,,,,,,
,,646a18d69a871ffc84c0ce29,65af55ba14893441390476a8,2024-01-23_08h05.37.419,bars,2023.2.3,Win32,60.24096386,657b66ea316d21385b68909f,,,,,,,,,,,1300.2412,1301.2424,,,1301.744,1301.9956,,58,58,,,,,,,,,,,,,,,,bars/038.png,bars/mask006.png,,,,,,,,,,,,4,2,,,,,,,10,6,10,7,,,,,,,,,,,1301.2424,1301.7439,1301.9957,1306.1586,space,4.1466,,1306.1587,73,12,1307.1485,1307.1487,1307.1703,,,,0,48,48,48,1,165,70,,,,,,,,
,,646a18d69a871ffc84c0ce29,65af55ba14893441390476a8,2024-01-23_08h05.37.419,bars,2023.2.3,Win32,60.24096386,657b66ea316d21385b68909f,,,,,,,,,,,1307.1708,1308.1709,,,1308.6614,1308.9037,,57,57,,,,,,,,,,,,,,,,bars/041.png,bars/mask004.png,,,,,,,,,,,,0,2,,,,,,,8,8,8,7,,,,,,,,,,,1308.171,1308.6612,1308.9038,1310.4367,space,1.5165,,1310.4368,37,28,1311.4379,1311.4381,1311.4405,,,,0,49,49,49,1,20,85,,,,,,,,
,,646a18d69a871ffc84c0ce29,65af55ba14893441390476a8,2024-01-23_08h05.37.419,bars,2023.2.3,Win32,60.24096386,657b66ea316d21385b68909f,,,,,,,,,,,,,,,,,,,,,,,,,,,,,,,,,,,,,,,,,,,,,,,,,,,,,,,,,,,,,,,,,,,,,,,,,,,,,,,,,,,,,,,,,,,,,1311.4408,1371.4304,0,2,2,1,1,sequence_tables/blk032.csv
,,646a18d69a871ffc84c0ce29,65af55ba14893441390476a8,2024-01-23_08h05.37.419,bars,2023.2.3,Win32,60.24096386,657b66ea316d21385b68909f,,,,,,,,,,,1374.7041,1375.7046,,,1376.2048,1376.4478,,47,227,,,,,,,,,,,,,,,,bars/007.png,bars/mask002.png,,,,,,,,,,,,7,2,,,,,,,2,9,1,9,,,,,,1371.4974,1374.6907,space,3.1774,,1375.7047,1376.2048,1376.4478,1380.2685,space,3.7971,,1380.2685,52,8,1381.2703,1381.2704,1381.2923,,,,0,0,0,0,1,175,55,,,,,,,,
,,646a18d69a871ffc84c0ce29,65af55ba14893441390476a8,2024-01-23_08h05.37.419,bars,2023.2.3,Win32,60.24096386,657b66ea316d21385b68909f,,,,,,,,,,,1381.2928,1382.2853,,,1382.7818,1383.0346,,36,36,,,,,,,,,,,,,,,,bars/043.png,bars/mask004.png,,,,,,,,,,,,6,1,,,,,,,4,7,7,6,,,,,,,,,,,1382.2854,1382.7818,1383.0346,1388.1506,space,5.0853,,1388.1508,6,86,1389.1586,1389.1587,1389.1823,,,,0,1,1,1,1,30,130,,,,,,,,
,,646a18d69a871ffc84c0ce29,65af55ba14893441390476a8,2024-01-23_08h05.37.419,bars,2023.2.3,Win32,60.24096386,657b66ea316d21385b68909f,,,,,,,,,,,1389.1828,1390.1743,,,1390.6784,1390.9172,,32,212,,,,,,,,,,,,,,,,bars/032.png,bars/mask002.png,,,,,,,,,,,,5,2,,,,,,,6,9,6,8,,,,,,,,,,,1390.1743,1390.6783,1390.9174,1394.4904,space,3.5491,,1394.4905,87,12,1395.4892,1395.4893,1395.5128,,,,0,2,2,2,1,125,20,,,,,,,,
,,646a18d69a871ffc84c0ce29,65af55ba14893441390476a8,2024-01-23_08h05.37.419,bars,2023.2.3,Win32,60.24096386,657b66ea316d21385b68909f,,,,,,,,,,,1395.5133,1396.506,,,1397.0159,1397.2557,,116,116,,,,,,,,,,,,,,,,bars/039.png,bars/mask004.png,,,,,,,,,,,,5,2,,,,,,,8,7,6,8,,,,,,,,,,,1396.5061,1397.0158,1397.2557,1399.3189,space,2.0352,,1399.319,59,11,1400.3178,1400.3178,1400.3389,,,,0,3,3,3,1,175,105,,,,,,,,
,,646a18d69a871ffc84c0ce29,65af55ba14893441390476a8,2024-01-23_08h05.37.419,bars,2023.2.3,Win32,60.24096386,657b66ea316d21385b68909f,,,,,,,,,,,1400.3393,1401.3333,,,1401.8329,1402.0827,,142,142,,,,,,,,,,,,,,,,bars/004.png,bars/mask000.png,,,,,,,,,,,,4,2,,,,,,,6,9,5,9,,,,,,,,,,,1401.3334,1401.8328,1402.0827,1407.1613,space,5.0634,,1407.1615,63,17,1408.1602,1408.1603,1408.1821,,,,0,4,4,4,1,25,125,,,,,,,,
,,646a18d69a871ffc84c0ce29,65af55ba14893441390476a8,2024-01-23_08h05.37.419,bars,2023.2.3,Win32,60.24096386,657b66ea316d21385b68909f,,,,,,,,,,,1408.1826,1409.1759,,,1409.6753,1409.925,,43,43,,,,,,,,,,,,,,,,bars/025.png,bars/mask004.png,,,,,,,,,,,,7,2,,,,,,,8,7,8,8,,,,,,,,,,,1409.176,1409.6753,1409.925,1414.0899,space,4.1502,,1414.09,62,3,1415.0877,1415.0877,1415.1105,,,,0,5,5,5,1,105,40,,,,,,,,
,,646a18d69a871ffc84c0ce29,65af55ba14893441390476a8,2024-01-23_08h05.37.419,bars,2023.2.3,Win32,60.24096386,657b66ea316d21385b68909f,,,,,,,,,,,1415.1111,1416.1025,,,1416.602,1416.8521,,135,135,,,,,,,,,,,,,,,,bars/019.png,bars/mask000.png,,,,,,,,,,,,0,2,,,,,,,6,5,6,7,,,,,,,,,,,1416.1026,1416.6019,1416.8521,1422.6296,space,5.7618,,1422.6298,90,30,1423.6415,1423.6416,1423.6637,,,,0,6,6,6,1,45,105,,,,,,,,
,,646a18d69a871ffc84c0ce29,65af55ba14893441390476a8,2024-01-23_08h05.37.419,bars,2023.2.3,Win32,60.24096386,657b66ea316d21385b68909f,,,,,,,,,,,1423.6642,1424.6738,,,1425.1884,1425.4141,,159,159,,,,,,,,,,,,,,,,bars/043.png,bars/mask007.png,,,,,,,,,,,,0,2,,,,,,,4,7,2,6,,,,,,,,,,,1424.6739,1425.1883,1425.4141,1431.1232,space,5.6849,,1431.1233,51,29,1432.12,1432.1201,1432.1431,,,,0,7,7,7,1,30,130,,,,,,,,
,,646a18d69a871ffc84c0ce29,65af55ba14893441390476a8,2024-01-23_08h05.37.419,bars,2023.2.3,Win32,60.24096386,657b66ea316d21385b68909f,,,,,,,,,,,1432.1436,1433.1361,,,1433.6353,1433.8849,,66,66,,,,,,,,,,,,,,,,bars/038.png,bars/mask008.png,,,,,,,,,,,,7,2,,,,,,,2,9,2,8,,,,,,,,,,,1433.1362,1433.6353,1433.885,1435.7318,space,1.8319,,1435.7319,81,4,1436.7321,1436.7321,1436.7549,,,,0,8,8,8,1,165,70,,,,,,,,
,,646a18d69a871ffc84c0ce29,65af55ba14893441390476a8,2024-01-23_08h05.37.419,bars,2023.2.3,Win32,60.24096386,657b66ea316d21385b68909f,,,,,,,,,,,1436.7554,1437.7539,,,1438.2445,1438.4807,,126,126,,,,,,,,,,,,,,,,bars/028.png,bars/mask009.png,,,,,,,,,,,,8,2,,,,,,,0,10,1,10,,,,,,,,,,,1437.7539,1438.2444,1438.4807,1440.9094,space,2.3984,,1440.9095,81,6,1441.8984,1441.8984,1441.8998,,,,0,9,9,9,1,45,120,,,,,,,,
,,646a18d69a871ffc84c0ce29,65af55ba14893441390476a8,2024-01-23_08h05.37.419,bars,2023.2.3,Win32,60.24096386,657b66ea316d21385b68909f,,,,,,,,,,,1441.9004,1442.9054,,,1443.3993,1443.6291,,136,136,,,,,,,,,,,,,,,,bars/009.png,bars/mask001.png,,,,,,,,,,,,0,2,,,,,,,2,8,3,7,,,,,,,,,,,1442.9055,1443.3993,1443.6292,1448.1217,space,4.4682,,1448.1218,59,31,1449.1061,1449.1062,1449.1286,,,,0,10,10,10,1,15,105,,,,,,,,
,,646a18d69a871ffc84c0ce29,65af55ba14893441390476a8,2024-01-23_08h05.37.419,bars,2023.2.3,Win32,60.24096386,657b66ea316d21385b68909f,,,,,,,,,,,1449.1291,1450.1192,,,1450.609,1450.8469,,120,120,,,,,,,,,,,,,,,,bars/004.png,bars/mask006.png,,,,,,,,,,,,8,2,,,,,,,0,10,0,10,,,,,,,,,,,1450.1192,1450.6089,1450.847,1452.8168,space,1.9501,,1452.817,85,5,1453.812,1453.8121,1453.8134,,,,0,11,11,11,1,25,125,,,,,,,,
,,646a18d69a871ffc84c0ce29,65af55ba14893441390476a8,2024-01-23_08h05.37.419,bars,2023.2.3,Win32,60.24096386,657b66ea316d21385b68909f,,,,,,,,,,,1453.8137,1454.8112,,,1455.3044,1455.5438,,138,-42,,,,,,,,,,,,,,,,bars/003.png,bars/mask004.png,,,,,,,,,,,,6,2,,,,,,,2,8,2,6,,,,,,,,,,,1454.8113,1455.3044,1455.5439,1459.8552,space,4.2933,,1459.8552,67,2,1460.8456,1460.8457,1460.8672,,,,0,12,12,12,1,25,140,,,,,,,,
,,646a18d69a871ffc84c0ce29,65af55ba14893441390476a8,2024-01-23_08h05.37.419,bars,2023.2.3,Win32,60.24096386,657b66ea316d21385b68909f,,,,,,,,,,,1460.8676,1461.8575,,,1462.3493,1462.6017,,140,140,,,,,,,,,,,,,,,,bars/016.png,bars/mask000.png,,,,,,,,,,,,1,2,,,,,,,4,10,5,9,,,,,,,,,,,1461.8575,1462.3492,1462.6018,1468.1763,space,5.5485,,1468.1764,80,25,1469.1743,1469.1744,1469.199,,,,0,13,13,13,1,40,165,,,,,,,,
,,646a18d69a871ffc84c0ce29,65af55ba14893441390476a8,2024-01-23_08h05.37.419,bars,2023.2.3,Win32,60.24096386,657b66ea316d21385b68909f,,,,,,,,,,,1469.1997,1470.1945,,,1470.6896,1470.9348,,119,119,,,,,,,,,,,,,,,,bars/041.png,bars/mask001.png,,,,,,,,,,,,0,2,,,,,,,2,10,2,10,,,,,,,,,,,1470.1946,1470.6894,1470.9349,1473.0561,space,2.0936,,1473.0562,81,34,1474.0457,1474.0458,1474.0706,,,,0,14,14,14,1,20,85,,,,,,,,
,,646a18d69a871ffc84c0ce29,65af55ba14893441390476a8,2024-01-23_08h05.37.419,bars,2023.2.3,Win32,60.24096386,657b66ea316d21385b68909f,,,,,,,,,,,1474.0712,1475.064,,,1475.558,1475.8006,,56,56,,,,,,,,,,,,,,,,bars/030.png,bars/mask007.png,,,,,,,,,,,,7,2,,,,,,,0,10,0,10,,,,,,,,,,,1475.0641,1475.5579,1475.8007,1478.3208,space,2.4964,,1478.3209,84,9,1479.3238,1479.3239,1479.3473,,,,0,15,15,15,1,140,65,,,,,,,,
,,646a18d69a871ffc84c0ce29,65af55ba14893441390476a8,2024-01-23_08h05.37.419,bars,2023.2.3,Win32,60.24096386,657b66ea316d21385b68909f,,,,,,,,,,,1479.3478,1480.3521,,,1480.8526,1481.0955,,123,123,,,,,,,,,,,,,,,,bars/004.png,bars/mask006.png,,,,,,,,,,,,9,2,,,,,,,2,10,2,10,,,,,,,,,,,1480.3522,1480.8526,1481.0956,1484.3504,space,3.2316,,1484.3505,82,2,1485.3462,1485.3463,1485.3675,,,,0,16,16,16,1,25,125,,,,,,,,
,,646a18d69a871ffc84c0ce29,65af55ba14893441390476a8,2024-01-23_08h05.37.419,bars,2023.2.3,Win32,60.24096386,657b66ea316d21385b68909f,,,,,,,,,,,1485.368,1486.3616,,,1486.8611,1487.1081,,53,53,,,,,,,,,,,,,,,,bars/030.png,bars/mask004.png,,,,,,,,,,,,5,2,,,,,,,0,10,0,8,,,,,,,,,,,1486.3616,1486.8611,1487.1081,1489.3591,space,2.2283,,1489.3591,87,12,1490.3595,1490.3596,1490.3818,,,,0,17,17,17,1,140,65,,,,,,,,
,,646a18d69a871ffc84c0ce29,65af55ba14893441390476a8,2024-01-23_08h05.37.419,bars,2023.2.3,Win32,60.24096386,657b66ea316d21385b68909f,,,,,,,,,,,1490.3823,1491.3734,,,1491.8618,1492.1093,,41,41,,,,,,,,,,,,,,,,bars/013.png,bars/mask008.png,,,,,,,,,,,,0,2,,,,,,,2,10,2,10,,,,,,,,,,,1491.3734,1491.8617,1492.1094,1496.5692,space,4.4425,,1496.5694,34,31,1497.5728,1497.573,1497.5957,,,,0,18,18,18,1,75,10,,,,,,,,
,,646a18d69a871ffc84c0ce29,65af55ba14893441390476a8,2024-01-23_08h05.37.419,bars,2023.2.3,Win32,60.24096386,657b66ea316d21385b68909f,,,,,,,,,,,1497.5963,1498.5984,,,1499.0994,1499.3378,,64,64,,,,,,,,,,,,,,,,bars/018.png,bars/mask001.png,,,,,,,,,,,,1,2,,,,,,,0,10,1,10,,,,,,,,,,,1498.5985,1499.0993,1499.338,1501.7202,space,2.3525,,1501.7203,86,26,1502.7178,1502.718,1502.7403,,,,0,19,19,19,1,150,90,,,,,,,,
,,646a18d69a871ffc84c0ce29,65af55ba14893441390476a8,2024-01-23_08h05.37.419,bars,2023.2.3,Win32,60.24096386,657b66ea316d21385b68909f,,,,,,,,,,,1502.7408,1503.7338,,,1504.2335,1504.4826,,169,169,,,,,,,,,,,,,,,,bars/045.png,bars/mask009.png,,,,,,,,,,,,2,2,,,,,,,2,10,1,8,,,,,,,,,,,1503.7338,1504.2334,1504.4826,1505.4155,space,0.9167,,1505.4157,69,21,1506.4142,1506.4143,1506.4158,,,,0,20,20,20,1,100,10,,,,,,,,
,,646a18d69a871ffc84c0ce29,65af55ba14893441390476a8,2024-01-23_08h05.37.419,bars,2023.2.3,Win32,60.24096386,657b66ea316d21385b68909f,,,,,,,,,,,1506.4164,1507.4133,,,1507.9136,1508.1503,,147,147,,,,,,,,,,,,,,,,bars/043.png,bars/mask005.png,,,,,,,,,,,,3,2,,,,,,,4,8,3,8,,,,,,,,,,,1507.4133,1507.9135,1508.1503,1511.776,space,3.6028,,1511.7762,63,17,1512.7746,1512.7747,1512.7968,,,,0,21,21,21,1,30,130,,,,,,,,
,,646a18d69a871ffc84c0ce29,65af55ba14893441390476a8,2024-01-23_08h05.37.419,bars,2023.2.3,Win32,60.24096386,657b66ea316d21385b68909f,,,,,,,,,,,1512.7974,1513.7853,,,1514.2846,1514.5227,,21,201,,,,,,,,,,,,,,,,bars/024.png,bars/mask003.png,,,,,,,,,,,,0,2,,,,,,,6,10,7,10,,,,,,,,,,,1513.7854,1514.2846,1514.5227,1517.9654,space,3.4307,,1517.9654,81,31,1518.9684,1518.9684,1518.9904,,,,0,22,22,22,1,120,170,,,,,,,,
,,646a18d69a871ffc84c0ce29,65af55ba14893441390476a8,2024-01-23_08h05.37.419,bars,2023.2.3,Win32,60.24096386,657b66ea316d21385b68909f,,,,,,,,,,,1518.9909,1519.9844,,,1520.4783,1520.719,,118,118,,,,,,,,,,,,,,,,bars/049.png,bars/mask003.png,,,,,,,,,,,,9,2,,,,,,,4,10,4,10,,,,,,,,,,,1519.9844,1520.4783,1520.7191,1522.5284,space,1.7831,,1522.5285,42,3,1523.5205,1523.5205,1523.5423,,,,0,23,23,23,1,160,115,,,,,,,,
,,646a18d69a871ffc84c0ce29,65af55ba14893441390476a8,2024-01-23_08h05.37.419,bars,2023.2.3,Win32,60.24096386,657b66ea316d21385b68909f,,,,,,,,,,,1523.5428,1524.5358,,,1525.0397,1525.3305,,59,59,,,,,,,,,,,,,,,,bars/046.png,bars/mask008.png,,,,,,,,,,,,1,2,,,,,,,6,8,5,9,,,,,,,,,,,1524.5358,1525.0397,1525.3305,1528.9899,space,3.6356,,1528.99,84,26,1529.9876,1529.9876,1530.0107,,,,0,24,24,24,1,155,85,,,,,,,,
,,646a18d69a871ffc84c0ce29,65af55ba14893441390476a8,2024-01-23_08h05.37.419,bars,2023.2.3,Win32,60.24096386,657b66ea316d21385b68909f,,,,,,,,,,,1530.0113,1531.0014,,,1531.4903,1531.7395,,64,64,,,,,,,,,,,,,,,,bars/021.png,bars/mask009.png,,,,,,,,,,,,6,2,,,,,,,4,6,4,7,,,,,,,,,,,1531.0014,1531.4901,1531.7396,1536.8513,space,5.0961,,1536.8515,89,6,1537.8501,1537.8502,1537.8734,,,,0,25,25,25,1,155,70,,,,,,,,
,,646a18d69a871ffc84c0ce29,65af55ba14893441390476a8,2024-01-23_08h05.37.419,bars,2023.2.3,Win32,60.24096386,657b66ea316d21385b68909f,,,,,,,,,,,1537.874,1538.8768,,,1539.3667,1539.6165,,67,67,,,,,,,,,,,,,,,,bars/034.png,bars/mask005.png,,,,,,,,,,,,7,2,,,,,,,2,8,1,8,,,,,,,,,,,1538.8768,1539.3666,1539.6166,1540.65,space,1.0175,,1540.6501,58,2,1541.6473,1541.6473,1541.6484,,,,0,26,26,26,1,125,65,,,,,,,,
,,646a18d69a871ffc84c0ce29,65af55ba14893441390476a8,2024-01-23_08h05.37.419,bars,2023.2.3,Win32,60.24096386,657b66ea316d21385b68909f,,,,,,,,,,,1541.6489,1542.6461,,,1543.1455,1543.3946,,22,22,,,,,,,,,,,,,,,,bars/012.png,bars/mask008.png,,,,,,,,,,,,7,2,,,,,,,4,10,5,9,,,,,,,,,,,1542.6461,1543.1453,1543.3946,1546.1274,space,2.7181,,1546.1275,68,7,1547.1256,1547.1257,1547.1485,,,,0,27,27,27,1,90,15,,,,,,,,
,,646a18d69a871ffc84c0ce29,65af55ba14893441390476a8,2024-01-23_08h05.37.419,bars,2023.2.3,Win32,60.24096386,657b66ea316d21385b68909f,,,,,,,,,,,1547.149,1548.1462,,,1548.6705,1548.9193,,133,133,,,,,,,,,,,,,,,,bars/015.png,bars/mask009.png,,,,,,,,,,,,0,1,,,,,,,2,10,2,9,,,,,,,,,,,1548.1462,1548.6704,1548.9194,1552.9266,space,3.9907,,1552.9267,23,27,1553.9174,1553.9175,1553.9406,,,,0,28,28,28,1,110,160,,,,,,,,
,,646a18d69a871ffc84c0ce29,65af55ba14893441390476a8,2024-01-23_08h05.37.419,bars,2023.2.3,Win32,60.24096386,657b66ea316d21385b68909f,,,,,,,,,,,1553.941,1554.9333,,,1555.4328,1555.6827,,138,138,,,,,,,,,,,,,,,,bars/015.png,bars/mask000.png,,,,,,,,,,,,2,2,,,,,,,0,8,0,8,,,,,,,,,,,1554.9334,1555.4328,1555.6828,1559.3127,space,3.6135,,1559.3127,28,22,1560.3116,1560.3118,1560.3352,,,,0,29,29,29,1,110,160,,,,,,,,
,,646a18d69a871ffc84c0ce29,65af55ba14893441390476a8,2024-01-23_08h05.37.419,bars,2023.2.3,Win32,60.24096386,657b66ea316d21385b68909f,,,,,,,,,,,1560.336,1561.324,,,1561.8233,1562.0666,,43,43,,,,,,,,,,,,,,,,bars/035.png,bars/mask000.png,,,,,,,,,,,,4,2,,,,,,,2,10,2,9,,,,,,,,,,,1561.3241,1561.8232,1562.0666,1564.5052,space,2.4156,,1564.5054,48,17,1565.4687,1565.4688,1565.5,,,,0,30,30,30,1,175,60,,,,,,,,
,,646a18d69a871ffc84c0ce29,65af55ba14893441390476a8,2024-01-23_08h05.37.419,bars,2023.2.3,Win32,60.24096386,657b66ea316d21385b68909f,,,,,,,,,,,1565.5007,1566.5012,,,1567.0016,1567.251,,111,111,,,,,,,,,,,,,,,,bars/019.png,bars/mask008.png,,,,,,,,,,,,6,2,,,,,,,0,8,0,8,,,,,,,,,,,1566.5012,1567.0015,1567.251,1568.189,space,0.9205,,1568.1891,66,6,1569.186,1569.1861,1569.1875,,,,0,31,31,31,1,45,105,,,,,,,,
,,646a18d69a871ffc84c0ce29,65af55ba14893441390476a8,2024-01-23_08h05.37.419,bars,2023.2.3,Win32,60.24096386,657b66ea316d21385b68909f,,,,,,,,,,,1569.188,1570.1853,,,1570.6847,1570.9345,,158,158,,,,,,,,,,,,,,,,bars/048.png,bars/mask007.png,,,,,,,,,,,,2,2,,,,,,,0,6,0,5,,,,,,,,,,,1570.1853,1570.6847,1570.9345,1573.6132,space,2.6635,,1573.6133,72,17,1574.6089,1574.609,1574.6308,,,,0,32,32,32,1,50,175,,,,,,,,
,,646a18d69a871ffc84c0ce29,65af55ba14893441390476a8,2024-01-23_08h05.37.419,bars,2023.2.3,Win32,60.24096386,657b66ea316d21385b68909f,,,,,,,,,,,1574.6312,1575.6243,,,1576.1185,1576.3738,,15,195,,,,,,,,,,,,,,,,bars/016.png,bars/mask003.png,,,,,,,,,,,,0,1,,,,,,,0,4,1,4,,,,,,,,,,,1575.6243,1576.1185,1576.3739,1579.023,space,2.6324,,1579.0232,25,30,1580.0124,1580.0125,1580.0157,,,,0,33,33,33,1,40,165,,,,,,,,
,,646a18d69a871ffc84c0ce29,65af55ba14893441390476a8,2024-01-23_08h05.37.419,bars,2023.2.3,Win32,60.24096386,657b66ea316d21385b68909f,,,,,,,,,,,1580.0163,1581.0191,,,1581.5075,1581.757,,32,212,,,,,,,,,,,,,,,,bars/027.png,bars/mask000.png,,,,,,,,,,,,2,2,,,,,,,0,6,1,6,,,,,,,,,,,1581.0191,1581.5074,1581.7572,1584.322,space,2.5488,,1584.3221,78,18,1585.3203,1585.3205,1585.3448,,,,0,34,34,34,1,110,50,,,,,,,,
,,646a18d69a871ffc84c0ce29,65af55ba14893441390476a8,2024-01-23_08h05.37.419,bars,2023.2.3,Win32,60.24096386,657b66ea316d21385b68909f,,,,,,,,,,,1585.3453,1586.3358,,,1586.8469,1587.0893,,30,30,,,,,,,,,,,,,,,,bars/022.png,bars/mask003.png,,,,,,,,,,,,5,2,,,,,,,2,8,2,7,,,,,,,,,,,1586.3359,1586.8469,1587.0893,1589.8164,space,2.7011,,1589.8166,65,10,1590.8265,1590.8265,1590.8457,,,,0,35,35,35,1,95,20,,,,,,,,
,,646a18d69a871ffc84c0ce29,65af55ba14893441390476a8,2024-01-23_08h05.37.419,bars,2023.2.3,Win32,60.24096386,657b66ea316d21385b68909f,,,,,,,,,,,1590.8462,1591.8476,,,1592.3467,1592.5864,,27,207,,,,,,,,,,,,,,,,bars/012.png,bars/mask000.png,,,,,,,,,,,,4,2,,,,,,,4,6,4,6,,,,,,,,,,,1591.8477,1592.3466,1592.5865,1598.9214,space,6.3117,,1598.9214,63,12,1599.9105,1599.9106,1599.932,,,,0,36,36,36,1,90,15,,,,,,,,
,,646a18d69a871ffc84c0ce29,65af55ba14893441390476a8,2024-01-23_08h05.37.419,bars,2023.2.3,Win32,60.24096386,657b66ea316d21385b68909f,,,,,,,,,,,1599.9325,1600.9214,,,1601.4115,1601.651,,44,44,,,,,,,,,,,,,,,,bars/035.png,bars/mask000.png,,,,,,,,,,,,4,2,,,,,,,6,8,6,8,,,,,,,,,,,1600.9214,1601.4114,1601.6511,1603.9862,space,2.3169,,1603.9863,49,16,1604.9845,1604.9845,1605.0052,,,,0,37,37,37,1,175,60,,,,,,,,
,,646a18d69a871ffc84c0ce29,65af55ba14893441390476a8,2024-01-23_08h05.37.419,bars,2023.2.3,Win32,60.24096386,657b66ea316d21385b68909f,,,,,,,,,,,1605.0057,1606.0004,,,1606.4998,1606.7493,,106,106,,,,,,,,,,,,,,,,bars/026.png,bars/mask007.png,,,,,,,,,,,,2,2,,,,,,,8,6,8,6,,,,,,,,,,,1606.0005,1606.4998,1606.7495,1607.6166,space,0.8518,,1607.6166,71,21,1608.6143,1608.6143,1608.6159,,,,0,38,38,38,1,35,85,,,,,,,,
,,646a18d69a871ffc84c0ce29,65af55ba14893441390476a8,2024-01-23_08h05.37.419,bars,2023.2.3,Win32,60.24096386,657b66ea316d21385b68909f,,,,,,,,,,,1608.6166,1609.6136,,,1610.113,1610.3629,,44,44,,,,,,,,,,,,,,,,bars/018.png,bars/mask004.png,,,,,,,,,,,,0,2,,,,,,,6,4,4,4,,,,,,,,,,,1609.6136,1610.1129,1610.363,1612.8439,space,2.4652,,1612.844,74,46,1613.843,1613.8431,1613.8654,,,,0,39,39,39,1,150,90,,,,,,,,
,,646a18d69a871ffc84c0ce29,65af55ba14893441390476a8,2024-01-23_08h05.37.419,bars,2023.2.3,Win32,60.24096386,657b66ea316d21385b68909f,,,,,,,,,,,1613.866,1614.8624,,,1615.354,1615.6042,,32,32,,,,,,,,,,,,,,,,bars/008.png,bars/mask007.png,,,,,,,,,,,,0,2,,,,,,,4,6,5,5,,,,,,,,,,,1614.8625,1615.354,1615.6042,1616.7401,space,1.1184,,1616.7402,78,32,1617.7186,1617.7188,1617.7206,,,,0,40,40,40,1,110,0,,,,,,,,
,,646a18d69a871ffc84c0ce29,65af55ba14893441390476a8,2024-01-23_08h05.37.419,bars,2023.2.3,Win32,60.24096386,657b66ea316d21385b68909f,,,,,,,,,,,1617.7215,1618.7103,,,1619.204,1619.454,,122,122,,,,,,,,,,,,,,,,bars/019.png,bars/mask008.png,,,,,,,,,,,,3,2,,,,,,,6,8,8,8,,,,,,,,,,,1618.7104,1619.2039,1619.4541,1623.5339,space,4.0637,,1623.534,77,17,1624.5322,1624.5324,1624.5545,,,,0,41,41,41,1,45,105,,,,,,,,
,,646a18d69a871ffc84c0ce29,65af55ba14893441390476a8,2024-01-23_08h05.37.419,bars,2023.2.3,Win32,60.24096386,657b66ea316d21385b68909f,,,,,,,,,,,1624.555,1625.5513,,,1626.0606,1626.3042,,44,224,,,,,,,,,,,,,,,,bars/002.png,bars/mask003.png,,,,,,,,,,,,0,2,,,,,,,8,6,7,7,,,,,,,,,,,1625.5514,1626.0605,1626.3042,1629.7074,space,3.3804,,1629.7075,86,41,1630.6962,1630.6963,1630.718,,,,0,42,42,42,1,130,85,,,,,,,,
,,646a18d69a871ffc84c0ce29,65af55ba14893441390476a8,2024-01-23_08h05.37.419,bars,2023.2.3,Win32,60.24096386,657b66ea316d21385b68909f,,,,,,,,,,,1630.7184,1631.7121,,,1632.2193,1632.4574,,124,124,,,,,,,,,,,,,,,,bars/023.png,bars/mask008.png,,,,,,,,,,,,4,2,,,,,,,6,4,6,5,,,,,,,,,,,1631.7122,1632.2193,1632.4574,1636.6223,space,4.1362,,1636.6224,76,9,1637.6193,1637.6193,1637.6422,,,,0,43,43,43,1,20,115,,,,,,,,
,,646a18d69a871ffc84c0ce29,65af55ba14893441390476a8,2024-01-23_08h05.37.419,bars,2023.2.3,Win32,60.24096386,657b66ea316d21385b68909f,,,,,,,,,,,1637.6426,1638.6311,,,1639.1307,1639.3807,,122,122,,,,,,,,,,,,,,,,bars/037.png,bars/mask009.png,,,,,,,,,,,,1,2,,,,,,,4,2,5,2,,,,,,,,,,,1638.6311,1639.1307,1639.3808,1643.4303,space,4.0319,,1643.4305,28,17,1644.4291,1644.4294,1644.4522,,,,0,44,44,44,1,150,105,,,,,,,,
,,646a18d69a871ffc84c0ce29,65af55ba14893441390476a8,2024-01-23_08h05.37.419,bars,2023.2.3,Win32,60.24096386,657b66ea316d21385b68909f,,,,,,,,,,,1644.4531,1645.4451,,,1645.9396,1646.1842,,18,18,,,,,,,,,,,,,,,,bars/032.png,bars/mask001.png,,,,,,,,,,,,0,2,,,,,,,2,0,4,0,,,,,,,,,,,1645.4452,1645.9394,1646.1843,1647.8739,space,1.6662,,1647.874,73,2,1648.8862,1648.8863,1648.8877,,,,0,45,45,45,1,125,20,,,,,,,,
,,646a18d69a871ffc84c0ce29,65af55ba14893441390476a8,2024-01-23_08h05.37.419,bars,2023.2.3,Win32,60.24096386,657b66ea316d21385b68909f,,,,,,,,,,,1648.8882,1649.8864,,,1650.3868,1650.6333,,63,63,,,,,,,,,,,,,,,,bars/002.png,bars/mask002.png,,,,,,,,,,,,0,2,,,,,,,4,0,2,0,,,,,,,,,,,1649.8864,1650.3867,1650.6333,1655.4825,space,4.8137,,1655.4827,67,22,1656.4709,1656.471,1656.4924,,,,0,46,46,46,1,130,85,,,,,,,,
,,646a18d69a871ffc84c0ce29,65af55ba14893441390476a8,2024-01-23_08h05.37.419,bars,2023.2.3,Win32,60.24096386,657b66ea316d21385b68909f,,,,,,,,,,,1656.4929,1657.4963,,,1657.9895,1658.2295,,92,92,,,,,,,,,,,,,,,,bars/019.png,bars/mask000.png,,,,,,,,,,,,1,2,,,,,,,2,2,1,1,,,,,,,,,,,1657.4964,1657.9895,1658.2295,1660.0487,space,1.8027,,1660.0488,47,13,1661.0465,1661.0465,1661.0481,,,,0,47,47,47,1,45,105,,,,,,,,
,,646a18d69a871ffc84c0ce29,65af55ba14893441390476a8,2024-01-23_08h05.37.419,bars,2023.2.3,Win32,60.24096386,657b66ea316d21385b68909f,,,,,,,,,,,1661.0487,1662.0454,,,1662.5455,1662.7947,,127,127,,,,,,,,,,,,,,,,bars/009.png,bars/mask004.png,,,,,,,,,,,,0,2,,,,,,,4,0,4,0,,,,,,,,,,,1662.0454,1662.5455,1662.7947,1665.9145,space,3.1049,,1665.9145,68,22,1666.9073,1666.9074,1666.9298,,,,0,48,48,48,1,15,105,,,,,,,,
,,646a18d69a871ffc84c0ce29,65af55ba14893441390476a8,2024-01-23_08h05.37.419,bars,2023.2.3,Win32,60.24096386,657b66ea316d21385b68909f,,,,,,,,,,,1666.9304,1667.9261,,,1668.4191,1668.6606,,131,131,,,,,,,,,,,,,,,,bars/000.png,bars/mask008.png,,,,,,,,,,,,1,2,,,,,,,6,0,6,1,,,,,,,,,,,1667.9262,1668.4191,1668.6607,1670.6475,space,1.9614,,1670.6475,89,14,1671.6491,1671.6492,1671.6727,,,,0,49,49,49,1,40,145,,,,,,,,
,,646a18d69a871ffc84c0ce29,65af55ba14893441390476a8,2024-01-23_08h05.37.419,bars,2023.2.3,Win32,60.24096386,657b66ea316d21385b68909f,,,,,,,,,,,,,,,,,,,,,,,,,,,,,,,,,,,,,,,,,,,,,,,,,,,,,,,,,,,,,,,,,,,,,,,,,,,,,,,,,,,,,,,,,,,,,1671.6729,1731.6743,0,3,3,3,1,sequence_tables/blk030.csv
,,646a18d69a871ffc84c0ce29,65af55ba14893441390476a8,2024-01-23_08h05.37.419,bars,2023.2.3,Win32,60.24096386,657b66ea316d21385b68909f,,,,,,,,,,,1747.3621,1748.3275,,,1748.8272,1749.0742,,45,45,,,,,,,,,,,,,,,,bars/012.png,bars/mask004.png,,,,,,,,,,,,0,2,,,,,,,8,2,9,1,,,,,,1731.7054,1747.327,space,15.6084,,1748.3276,1748.8272,1749.0742,1753.939,space,4.8481,,1753.9392,45,30,1754.9331,1754.9333,1754.9536,,,,0,0,0,0,1,90,15,,,,,,,,
,,646a18d69a871ffc84c0ce29,65af55ba14893441390476a8,2024-01-23_08h05.37.419,bars,2023.2.3,Win32,60.24096386,657b66ea316d21385b68909f,,,,,,,,,,,1754.9545,1755.965,,,1756.4647,1756.7166,,135,135,,,,,,,,,,,,,,,,bars/026.png,bars/mask000.png,,,,,,,,,,,,0,2,,,,,,,6,4,6,4,,,,,,,,,,,1755.9651,1756.4647,1756.7166,1757.6369,space,0.9041,,1757.6371,80,50,1758.6314,1758.6314,1758.6327,,,,0,1,1,1,1,35,85,,,,,,,,
,,646a18d69a871ffc84c0ce29,65af55ba14893441390476a8,2024-01-23_08h05.37.419,bars,2023.2.3,Win32,60.24096386,657b66ea316d21385b68909f,,,,,,,,,,,1758.6336,1759.6346,,,1760.1344,1760.3843,,52,52,,,,,,,,,,,,,,,,bars/034.png,bars/mask003.png,,,,,,,,,,,,1,2,,,,,,,8,2,8,2,,,,,,,,,,,1759.6347,1760.1344,1760.3844,1762.1994,space,1.7996,,1762.1994,73,13,1763.2097,1763.2098,1763.2112,,,,0,2,2,2,1,125,65,,,,,,,,
,,646a18d69a871ffc84c0ce29,65af55ba14893441390476a8,2024-01-23_08h05.37.419,bars,2023.2.3,Win32,60.24096386,657b66ea316d21385b68909f,,,,,,,,,,,1763.2119,1764.212,,,1764.712,1764.9617,,144,144,,,,,,,,,,,,,,,,bars/028.png,bars/mask004.png,,,,,,,,,,,,1,2,,,,,,,6,4,5,5,,,,,,,,,,,1764.212,1764.7119,1764.9618,1767.4931,space,2.5151,,1767.4932,81,24,1768.5046,1768.5046,1768.5272,,,,0,3,3,3,1,45,120,,,,,,,,
,,646a18d69a871ffc84c0ce29,65af55ba14893441390476a8,2024-01-23_08h05.37.419,bars,2023.2.3,Win32,60.24096386,657b66ea316d21385b68909f,,,,,,,,,,,1768.5277,1769.5184,,,1770.0184,1770.2629,,36,36,,,,,,,,,,,,,,,,bars/023.png,bars/mask004.png,,,,,,,,,,,,2,1,,,,,,,4,2,5,1,,,,,,,,,,,1769.5185,1770.0184,1770.263,1773.0372,space,2.7501,,1773.0373,16,79,1774.0253,1774.0253,1774.0477,,,,0,4,4,4,1,20,115,,,,,,,,
,,646a18d69a871ffc84c0ce29,65af55ba14893441390476a8,2024-01-23_08h05.37.419,bars,2023.2.3,Win32,60.24096386,657b66ea316d21385b68909f,,,,,,,,,,,1774.0483,1775.0398,,,1775.5327,1775.7848,,44,44,,,,,,,,,,,,,,,,bars/017.png,bars/mask000.png,,,,,,,,,,,,2,2,,,,,,,2,0,3,2,,,,,,,,,,,1775.0399,1775.5326,1775.7848,1779.5478,space,3.7472,,1779.5479,79,1,1780.5464,1780.5464,1780.57,,,,0,5,5,5,1,145,45,,,,,,,,
,,646a18d69a871ffc84c0ce29,65af55ba14893441390476a8,2024-01-23_08h05.37.419,bars,2023.2.3,Win32,60.24096386,657b66ea316d21385b68909f,,,,,,,,,,,1780.5706,1781.5618,,,1782.0495,1782.2957,,122,122,,,,,,,,,,,,,,,,bars/049.png,bars/mask009.png,,,,,,,,,,,,2,2,,,,,,,0,2,1,3,,,,,,,,,,,1781.562,1782.0493,1782.2957,1784.1452,space,1.8227,,1784.1453,38,7,1785.1418,1785.1419,1785.1432,,,,0,6,6,6,1,160,115,,,,,,,,
,,646a18d69a871ffc84c0ce29,65af55ba14893441390476a8,2024-01-23_08h05.37.419,bars,2023.2.3,Win32,60.24096386,657b66ea316d21385b68909f,,,,,,,,,,,1785.1438,1786.1411,,,1786.6416,1786.89,,132,132,,,,,,,,,,,,,,,,bars/023.png,bars/mask007.png,,,,,,,,,,,,0,2,,,,,,,2,0,2,0,,,,,,,,,,,1786.1411,1786.6415,1786.8901,1790.1558,space,3.2509,,1790.1559,68,17,1791.1538,1791.1539,1791.1757,,,,0,7,7,7,1,20,115,,,,,,,,
,,646a18d69a871ffc84c0ce29,65af55ba14893441390476a8,2024-01-23_08h05.37.419,bars,2023.2.3,Win32,60.24096386,657b66ea316d21385b68909f,,,,,,,,,,,1791.1762,1792.1792,,,1792.674,1792.912,,131,131,,,,,,,,,,,,,,,,bars/037.png,bars/mask007.png,,,,,,,,,,,,0,1,,,,,,,0,2,0,2,,,,,,,,,,,1792.1795,1792.6739,1792.912,1797.3513,space,4.4221,,1797.3514,19,26,1798.3587,1798.3587,1798.3813,,,,0,8,8,8,1,150,105,,,,,,,,
,,646a18d69a871ffc84c0ce29,65af55ba14893441390476a8,2024-01-23_08h05.37.419,bars,2023.2.3,Win32,60.24096386,657b66ea316d21385b68909f,,,,,,,,,,,1798.3819,1799.3741,,,1799.8939,1800.1383,,44,44,,,,,,,,,,,,,,,,bars/007.png,bars/mask002.png,,,,,,,,,,,,3,2,,,,,,,0,4,0,4,,,,,,,,,,,1799.3742,1799.8939,1800.1383,1803.4976,space,3.3322,,1803.4977,49,11,1804.4734,1804.4735,1804.4998,,,,0,9,9,9,1,175,55,,,,,,,,
,,646a18d69a871ffc84c0ce29,65af55ba14893441390476a8,2024-01-23_08h05.37.419,bars,2023.2.3,Win32,60.24096386,657b66ea316d21385b68909f,,,,,,,,,,,1804.5003,1805.4882,,,1805.9888,1806.2073,,29,209,,,,,,,,,,,,,,,,bars/040.png,bars/mask005.png,,,,,,,,,,,,1,2,,,,,,,0,6,3,5,,,,,,,,,,,1805.4883,1805.9888,1806.2074,1809.1456,space,2.9035,,1809.1457,69,24,1810.1408,1810.1409,1810.1652,,,,0,10,10,10,1,140,5,,,,,,,,
,,646a18d69a871ffc84c0ce29,65af55ba14893441390476a8,2024-01-23_08h05.37.419,bars,2023.2.3,Win32,60.24096386,657b66ea316d21385b68909f,,,,,,,,,,,1810.1658,1811.156,,,1811.661,1811.9164,,149,149,,,,,,,,,,,,,,,,bars/010.png,bars/mask004.png,,,,,,,,,,,,1,1,,,,,,,2,4,3,5,,,,,,,,,,,1811.156,1811.6609,1811.9166,1812.8223,space,0.8837,,1812.8224,16,86,1813.8348,1813.8349,1813.839,,,,0,11,11,11,1,165,55,,,,,,,,
,,646a18d69a871ffc84c0ce29,65af55ba14893441390476a8,2024-01-23_08h05.37.419,bars,2023.2.3,Win32,60.24096386,657b66ea316d21385b68909f,,,,,,,,,,,1813.8396,1814.8371,,,1815.3294,1815.5787,,46,46,,,,,,,,,,,,,,,,bars/010.png,bars/mask004.png,,,,,,,,,,,,4,2,,,,,,,0,6,0,5,,,,,,,,,,,1814.8371,1815.3294,1815.5788,1821.0033,space,5.4059,,1821.0034,61,9,1822.0057,1822.0058,1822.0302,,,,0,12,12,12,1,165,55,,,,,,,,
