init_variables.started,init_variables.stopped,participant,session,date,expName,psychopyVersion,OS,frameRate,study_id,instruction_exp.started,instruction_exp.stopped,key_resp_8.keys,key_resp_8.rt,key_resp_8.duration,instruction_single.started,instruction_single.stopped,key_resp_2.keys,key_resp_2.rt,key_resp_2.duration,interval.started,interval.stopped,cue_single.started,cue_single.stopped,mask.started,mask.stopped,ori_response_single.started,res_ori,res,ori_response_single.stopped,key_resp_single.keys,key_resp_single.rt,key_resp_single.duration,disp_single.started,disp_single.stopped,key_resp.keys,key_resp.rt,key_resp.duration,single.thisRepN,single.thisTrialN,single.thisN,single.thisIndex,single.ran,ori,path,mask_path,instruction_bandit.started,instruction_bandit.stopped,key_resp_6.keys,key_resp_6.rt,key_resp_6.duration,cue_bandit.started,cue_bandit.stopped,bandit_res.keys,bandit_res.rt,bandit_res.duration,outcome_bandit.started,rew,action,outcome_bandit.stopped,bandit.thisRepN,bandit.thisTrialN,bandit.thisN,bandit.thisIndex,bandit.ran,actual_rew1,actual_rew2,rew1,rew2,instruction_task.started,instruction_task.stopped,key_resp_7.keys,key_resp_7.rt,key_resp_7.duration,wait_ready.started,wait_ready.stopped,key_resp_3.keys,key_resp_3.rt,key_resp_3.duration,cue.started,cue.stopped,ori_response.started,ori_response.stopped,key_resp_5.keys,key_resp_5.rt,key_resp_5.duration,outcome.started,diff1,diff2,outcome.stopped,disp_outcome_practice.started,disp_outcome_practice.stopped,key_resp_4.keys,key_resp_4.rt,key_resp_4.duration,trials.thisRepN,trials.thisTrialN,trials.thisN,trials.thisIndex,trials.ran,ori1,ori2,break_blk.started,break_blk.stopped,block.thisRepN,block.thisTrialN,block.thisN,block.thisIndex,block.ran,condition_file
0.0021,0.0022,65ae0c9dc54cd53ea9424357,65af53f0ba138c82e9dc71d3,2024-01-23_16h53.48.789,bars,2023.2.3,Win32,60.60606061,657b66ea316d21385b68909f,,,,,,,,,,,,,,,,,,,,,,,,,,,,,,,,,,,,,,,,,,,,,,,,,,,,,,,,,,,,,,,,,,,,,,,,,,,,,,,,,,,,,,,,,,,,,,,,,,,,
,,65ae0c9dc54cd53ea9424357,65af53f0ba138c82e9dc71d3,2024-01-23_16h53.48.789,bars,2023.2.3,Win32,60.60606061,657b66ea316d21385b68909f,0.0023,6.7138,y,6.6865,,,,,,,,,,,,,,,,,,,,,,,,,,,,,,,,,,,,,,,,,,,,,,,,,,,,,,,,,,,,,,,,,,,,,,,,,,,,,,,,,,,,,,,,,,,,,,,,
,,65ae0c9dc54cd53ea9424357,65af53f0ba138c82e9dc71d3,2024-01-23_16h53.48.789,bars,2023.2.3,Win32,60.60606061,657b66ea316d21385b68909f,,,,,,6.7139,15.9067,space,9.1709,,,,,,,,,,,,,,,,,,,,,,,,,,,,,,,,,,,,,,,,,,,,,,,,,,,,,,,,,,,,,,,,,,,,,,,,,,,,,,,,,,,,,,,,,,,
,,65ae0c9dc54cd53ea9424357,65af53f0ba138c82e9dc71d3,2024-01-23_16h53.48.789,bars,2023.2.3,Win32,60.60606061,657b66ea316d21385b68909f,,,,,,,,,,,15.9112,16.9044,16.9049,17.3979,17.3984,17.6481,17.6485,0,180,26.3987,space,8.723,,26.3992,35.1486,space,8.7177,,0,0,0,9,1,20,bars/single009.png,bars/mask006.png,,,,,,,,,,,,,,,,,,,,,,,,,,,,,,,,,,,,,,,,,,,,,,,,,,,,,,,,,,,,,,,,
,,65ae0c9dc54cd53ea9424357,65af53f0ba138c82e9dc71d3,2024-01-23_16h53.48.789,bars,2023.2.3,Win32,60.60606061,657b66ea316d21385b68909f,,,,,,,,,,,35.1578,36.1472,36.1473,36.6527,36.6528,36.8974,36.8976,18,198,42.7801,space,5.854,,42.7803,50.947,space,8.1448,,0,1,1,6,1,175,bars/single006.png,bars/mask005.png,,,,,,,,,,,,,,,,,,,,,,,,,,,,,,,,,,,,,,,,,,,,,,,,,,,,,,,,,,,,,,,,
,,65ae0c9dc54cd53ea9424357,65af53f0ba138c82e9dc71d3,2024-01-23_16h53.48.789,bars,2023.2.3,Win32,60.60606061,657b66ea316d21385b68909f,,,,,,,,,,,50.9572,51.9466,51.9466,52.447,52.4471,52.6971,52.6972,165,-15,58.913,space,6.2036,,58.9131,62.9466,space,4.0045,,0,2,2,4,1,95,bars/single004.png,bars/mask004.png,,,,,,,,,,,,,,,,,,,,,,,,,,,,,,,,,,,,,,,,,,,,,,,,,,,,,,,,,,,,,,,,
,,65ae0c9dc54cd53ea9424357,65af53f0ba138c82e9dc71d3,2024-01-23_16h53.48.789,bars,2023.2.3,Win32,60.60606061,657b66ea316d21385b68909f,,,,,,,,,,,62.9554,63.9467,63.9468,64.4471,64.4472,64.6963,64.6964,107,107,69.0807,space,4.3688,,69.0808,73.1964,space,4.087,,0,3,3,1,1,20,bars/single001.png,bars/mask006.png,,,,,,,,,,,,,,,,,,,,,,,,,,,,,,,,,,,,,,,,,,,,,,,,,,,,,,,,,,,,,,,,
,,65ae0c9dc54cd53ea9424357,65af53f0ba138c82e9dc71d3,2024-01-23_16h53.48.789,bars,2023.2.3,Win32,60.60606061,657b66ea316d21385b68909f,,,,,,,,,,,73.2028,74.1968,74.1968,74.6972,74.6973,74.9472,74.9473,20,20,77.0799,space,2.1161,,77.0799,79.8297,space,2.724,,0,4,4,7,1,45,bars/single007.png,bars/mask009.png,,,,,,,,,,,,,,,,,,,,,,,,,,,,,,,,,,,,,,,,,,,,,,,,,,,,,,,,,,,,,,,,
,,65ae0c9dc54cd53ea9424357,65af53f0ba138c82e9dc71d3,2024-01-23_16h53.48.789,bars,2023.2.3,Win32,60.60606061,657b66ea316d21385b68909f,,,,,,,,,,,79.8351,80.8307,80.8308,81.3304,81.3304,81.5801,81.5802,49,49,84.3806,space,2.784,,84.3807,87.8642,space,3.4513,,0,5,5,2,1,145,bars/single002.png,bars/mask003.png,,,,,,,,,,,,,,,,,,,,,,,,,,,,,,,,,,,,,,,,,,,,,,,,,,,,,,,,,,,,,,,,
,,65ae0c9dc54cd53ea9424357,65af53f0ba138c82e9dc71d3,2024-01-23_16h53.48.789,bars,2023.2.3,Win32,60.60606061,657b66ea316d21385b68909f,,,,,,,,,,,87.8752,88.8638,88.8639,89.3635,89.3636,89.6134,89.6136,137,137,93.0293,space,3.3886,,93.0294,98.4806,space,5.4244,,0,6,6,3,1,20,bars/single003.png,bars/mask005.png,,,,,,,,,,,,,,,,,,,,,,,,,,,,,,,,,,,,,,,,,,,,,,,,,,,,,,,,,,,,,,,,
,,65ae0c9dc54cd53ea9424357,65af53f0ba138c82e9dc71d3,2024-01-23_16h53.48.789,bars,2023.2.3,Win32,60.60606061,657b66ea316d21385b68909f,,,,,,,,,,,98.4911,99.4804,99.4805,99.9806,99.9807,100.2301,100.2302,19,199,105.7297,space,5.4816,,105.7297,107.3633,space,1.6086,,0,7,7,8,1,160,bars/single008.png,bars/mask004.png,,,,,,,,,,,,,,,,,,,,,,,,,,,,,,,,,,,,,,,,,,,,,,,,,,,,,,,,,,,,,,,,
,,65ae0c9dc54cd53ea9424357,65af53f0ba138c82e9dc71d3,2024-01-23_16h53.48.789,bars,2023.2.3,Win32,60.60606061,657b66ea316d21385b68909f,,,,,,,,,,,107.364,108.3636,108.3637,108.8638,108.8639,109.1137,109.1137,159,159,110.3968,space,1.2717,,110.3969,114.6301,space,4.2106,,0,8,8,0,1,150,bars/single000.png,bars/mask006.png,,,,,,,,,,,,,,,,,,,,,,,,,,,,,,,,,,,,,,,,,,,,,,,,,,,,,,,,,,,,,,,,
,,65ae0c9dc54cd53ea9424357,65af53f0ba138c82e9dc71d3,2024-01-23_16h53.48.789,bars,2023.2.3,Win32,60.60606061,657b66ea316d21385b68909f,,,,,,,,,,,114.6397,115.6304,115.6305,116.1366,116.1367,116.3809,116.3809,144,144,121.1138,space,4.716,,121.1139,123.4132,space,2.2772,,0,9,9,5,1,55,bars/single005.png,bars/mask008.png,,,,,,,,,,,,,,,,,,,,,,,,,,,,,,,,,,,,,,,,,,,,,,,,,,,,,,,,,,,,,,,,
,,65ae0c9dc54cd53ea9424357,65af53f0ba138c82e9dc71d3,2024-01-23_16h53.48.789,bars,2023.2.3,Win32,60.60606061,657b66ea316d21385b68909f,,,,,,,,,,,,,,,,,,,,,,,,,,,,,,,,,,,,,123.4222,145.3814,space,21.939,,,,,,,,,,,,,,,,,,,,,,,,,,,,,,,,,,,,,,,,,,,,,,,,,,,,,,,,,,,,
,,65ae0c9dc54cd53ea9424357,65af53f0ba138c82e9dc71d3,2024-01-23_16h53.48.789,bars,2023.2.3,Win32,60.60606061,657b66ea316d21385b68909f,,,,,,,,,,,,,,,,,,,,,,,,,,,,,,,,,,,,,,,,,,145.3912,153.1037,left,7.7017,,153.104,9,1,154.0965,0,0,0,0,1,9,1,9,2,,,,,,,,,,,,,,,,,,,,,,,,,,,,,,,,,,,,,,,,,
,,65ae0c9dc54cd53ea9424357,65af53f0ba138c82e9dc71d3,2024-01-23_16h53.48.789,bars,2023.2.3,Win32,60.60606061,657b66ea316d21385b68909f,,,,,,,,,,,,,,,,,,,,,,,,,,,,,,,,,,,,,,,,,,154.0973,156.7634,left,2.6369,,156.7635,10,1,157.7627,0,1,1,1,1,10,0,10,1,,,,,,,,,,,,,,,,,,,,,,,,,,,,,,,,,,,,,,,,,
,,65ae0c9dc54cd53ea9424357,65af53f0ba138c82e9dc71d3,2024-01-23_16h53.48.789,bars,2023.2.3,Win32,60.60606061,657b66ea316d21385b68909f,,,,,,,,,,,,,,,,,,,,,,,,,,,,,,,,,,,,,,,,,,157.763,158.83,left,1.0352,,158.8302,10,1,159.83,0,2,2,2,1,10,2,10,2,,,,,,,,,,,,,,,,,,,,,,,,,,,,,,,,,,,,,,,,,
,,65ae0c9dc54cd53ea9424357,65af53f0ba138c82e9dc71d3,2024-01-23_16h53.48.789,bars,2023.2.3,Win32,60.60606061,657b66ea316d21385b68909f,,,,,,,,,,,,,,,,,,,,,,,,,,,,,,,,,,,,,,,,,,159.8309,160.4965,right,0.6421,,160.4965,3,2,161.4963,0,3,3,3,1,8,4,7,3,,,,,,,,,,,,,,,,,,,,,,,,,,,,,,,,,,,,,,,,,
,,65ae0c9dc54cd53ea9424357,65af53f0ba138c82e9dc71d3,2024-01-23_16h53.48.789,bars,2023.2.3,Win32,60.60606061,657b66ea316d21385b68909f,,,,,,,,,,,,,,,,,,,,,,,,,,,,,,,,,,,,,,,,,,161.497,162.1296,left,0.6011,,162.1296,5,1,163.1366,0,4,4,4,1,6,2,5,1,,,,,,,,,,,,,,,,,,,,,,,,,,,,,,,,,,,,,,,,,
,,65ae0c9dc54cd53ea9424357,65af53f0ba138c82e9dc71d3,2024-01-23_16h53.48.789,bars,2023.2.3,Win32,60.60606061,657b66ea316d21385b68909f,,,,,,,,,,,,,,,,,,,,,,,,,,,,,,,,,,,,,,,,,,163.1375,163.7305,left,0.5782,,163.7307,4,1,164.7295,0,5,5,5,1,4,4,4,4,,,,,,,,,,,,,,,,,,,,,,,,,,,,,,,,,,,,,,,,,
,,65ae0c9dc54cd53ea9424357,65af53f0ba138c82e9dc71d3,2024-01-23_16h53.48.789,bars,2023.2.3,Win32,60.60606061,657b66ea316d21385b68909f,,,,,,,,,,,,,,,,,,,,,,,,,,,,,,,,,,,,,,,,,,164.7298,165.68,right,0.9206,,165.6801,2,2,166.6804,0,6,6,6,1,2,2,1,2,,,,,,,,,,,,,,,,,,,,,,,,,,,,,,,,,,,,,,,,,
,,65ae0c9dc54cd53ea9424357,65af53f0ba138c82e9dc71d3,2024-01-23_16h53.48.789,bars,2023.2.3,Win32,60.60606061,657b66ea316d21385b68909f,,,,,,,,,,,,,,,,,,,,,,,,,,,,,,,,,,,,,,,,,,166.6815,168.1517,left,1.4503,,168.1518,0,1,169.1464,0,7,7,7,1,0,0,0,1,,,,,,,,,,,,,,,,,,,,,,,,,,,,,,,,,,,,,,,,,
,,65ae0c9dc54cd53ea9424357,65af53f0ba138c82e9dc71d3,2024-01-23_16h53.48.789,bars,2023.2.3,Win32,60.60606061,657b66ea316d21385b68909f,,,,,,,,,,,,,,,,,,,,,,,,,,,,,,,,,,,,,,,,,,169.1471,169.8799,left,0.7,,169.8801,1,1,170.8801,0,8,8,8,1,0,2,1,0,,,,,,,,,,,,,,,,,,,,,,,,,,,,,,,,,,,,,,,,,
,,65ae0c9dc54cd53ea9424357,65af53f0ba138c82e9dc71d3,2024-01-23_16h53.48.789,bars,2023.2.3,Win32,60.60606061,657b66ea316d21385b68909f,,,,,,,,,,,,,,,,,,,,,,,,,,,,,,,,,,,,,,,,,,170.8809,171.2131,left,0.3107,,171.2131,2,1,172.2126,0,9,9,9,1,2,4,2,3,,,,,,,,,,,,,,,,,,,,,,,,,,,,,,,,,,,,,,,,,
,,65ae0c9dc54cd53ea9424357,65af53f0ba138c82e9dc71d3,2024-01-23_16h53.48.789,bars,2023.2.3,Win32,60.60606061,657b66ea316d21385b68909f,,,,,,,,,,,,,,,,,,,,,,,,,,,,,,,,,,,,,,,,,,172.2132,172.5699,left,0.3349,,172.5701,0,1,173.5635,0,10,10,10,1,0,2,0,3,,,,,,,,,,,,,,,,,,,,,,,,,,,,,,,,,,,,,,,,,
,,65ae0c9dc54cd53ea9424357,65af53f0ba138c82e9dc71d3,2024-01-23_16h53.48.789,bars,2023.2.3,Win32,60.60606061,657b66ea316d21385b68909f,,,,,,,,,,,,,,,,,,,,,,,,,,,,,,,,,,,,,,,,,,173.5645,173.8632,left,0.2684,,173.8632,0,1,174.8531,0,11,11,11,1,0,4,0,3,,,,,,,,,,,,,,,,,,,,,,,,,,,,,,,,,,,,,,,,,
,,65ae0c9dc54cd53ea9424357,65af53f0ba138c82e9dc71d3,2024-01-23_16h53.48.789,bars,2023.2.3,Win32,60.60606061,657b66ea316d21385b68909f,,,,,,,,,,,,,,,,,,,,,,,,,,,,,,,,,,,,,,,,,,174.8541,175.1295,right,0.2563,,175.1295,6,2,176.1186,0,12,12,12,1,2,6,1,6,,,,,,,,,,,,,,,,,,,,,,,,,,,,,,,,,,,,,,,,,
,,65ae0c9dc54cd53ea9424357,65af53f0ba138c82e9dc71d3,2024-01-23_16h53.48.789,bars,2023.2.3,Win32,60.60606061,657b66ea316d21385b68909f,,,,,,,,,,,,,,,,,,,,,,,,,,,,,,,,,,,,,,,,,,176.1195,176.6961,right,0.5494,,176.6962,3,2,177.6958,0,13,13,13,1,0,4,1,3,,,,,,,,,,,,,,,,,,,,,,,,,,,,,,,,,,,,,,,,,
,,65ae0c9dc54cd53ea9424357,65af53f0ba138c82e9dc71d3,2024-01-23_16h53.48.789,bars,2023.2.3,Win32,60.60606061,657b66ea316d21385b68909f,,,,,,,,,,,,,,,,,,,,,,,,,,,,,,,,,,,,,,,,,,177.6961,178.9133,left,1.1891,,178.9134,2,1,179.9184,0,14,14,14,1,2,6,2,7,,,,,,,,,,,,,,,,,,,,,,,,,,,,,,,,,,,,,,,,,
,,65ae0c9dc54cd53ea9424357,65af53f0ba138c82e9dc71d3,2024-01-23_16h53.48.789,bars,2023.2.3,Win32,60.60606061,657b66ea316d21385b68909f,,,,,,,,,,,,,,,,,,,,,,,,,,,,,,,,,,,,,,,,,,179.9192,180.2128,right,0.2717,,180.2129,9,2,181.2133,0,15,15,15,1,4,8,3,9,,,,,,,,,,,,,,,,,,,,,,,,,,,,,,,,,,,,,,,,,
,,65ae0c9dc54cd53ea9424357,65af53f0ba138c82e9dc71d3,2024-01-23_16h53.48.789,bars,2023.2.3,Win32,60.60606061,657b66ea316d21385b68909f,,,,,,,,,,,,,,,,,,,,,,,,,,,,,,,,,,,,,,,,,,181.2144,182.7127,left,1.4744,,182.7127,7,1,183.7125,0,16,16,16,1,6,6,7,7,,,,,,,,,,,,,,,,,,,,,,,,,,,,,,,,,,,,,,,,,
,,65ae0c9dc54cd53ea9424357,65af53f0ba138c82e9dc71d3,2024-01-23_16h53.48.789,bars,2023.2.3,Win32,60.60606061,657b66ea316d21385b68909f,,,,,,,,,,,,,,,,,,,,,,,,,,,,,,,,,,,,,,,,,,183.7192,184.4792,right,0.7402,,184.4793,5,2,185.4679,0,17,17,17,1,8,4,9,5,,,,,,,,,,,,,,,,,,,,,,,,,,,,,,,,,,,,,,,,,
,,65ae0c9dc54cd53ea9424357,65af53f0ba138c82e9dc71d3,2024-01-23_16h53.48.789,bars,2023.2.3,Win32,60.60606061,657b66ea316d21385b68909f,,,,,,,,,,,,,,,,,,,,,,,,,,,,,,,,,,,,,,,,,,185.4682,187.6961,right,2.207,,187.6962,1,2,188.6963,0,18,18,18,1,6,2,5,1,,,,,,,,,,,,,,,,,,,,,,,,,,,,,,,,,,,,,,,,,
,,65ae0c9dc54cd53ea9424357,65af53f0ba138c82e9dc71d3,2024-01-23_16h53.48.789,bars,2023.2.3,Win32,60.60606061,657b66ea316d21385b68909f,,,,,,,,,,,,,,,,,,,,,,,,,,,,,,,,,,,,,,,,,,188.7079,189.0037,left,0.2857,,189.0038,7,1,189.9961,0,19,19,19,1,8,0,7,0,,,,,,,,,,,,,,,,,,,,,,,,,,,,,,,,,,,,,,,,,
,,65ae0c9dc54cd53ea9424357,65af53f0ba138c82e9dc71d3,2024-01-23_16h53.48.789,bars,2023.2.3,Win32,60.60606061,657b66ea316d21385b68909f,,,,,,,,,,,,,,,,,,,,,,,,,,,,,,,,,,,,,,,,,,,,,,,,,,,,,,,,,,,,189.9969,211.4639,space,21.4414,,,,,,,,,,,,,,,,,,,,,,,,,,,,,,,,,,,,,
,,65ae0c9dc54cd53ea9424357,65af53f0ba138c82e9dc71d3,2024-01-23_16h53.48.789,bars,2023.2.3,Win32,60.60606061,657b66ea316d21385b68909f,,,,,,,,,,,214.2986,215.2961,,,215.7958,216.0458,,10,190,,,,,,,,,,,,,,,,bars/012.png,bars/mask004.png,,,,,,,,,,,,1,2,,,,,,,8,2,9,1,,,,,,211.4751,214.2963,space,2.8072,,215.2966,215.7958,216.0462,224.9133,space,8.8343,,224.9136,80,5,225.9132,225.9136,237.5143,space,11.5662,,0,0,0,0,1,90,15,,,,,,,,
,,65ae0c9dc54cd53ea9424357,65af53f0ba138c82e9dc71d3,2024-01-23_16h53.48.789,bars,2023.2.3,Win32,60.60606061,657b66ea316d21385b68909f,,,,,,,,,,,237.5236,238.5131,,,239.0138,239.2631,,54,54,,,,,,,,,,,,,,,,bars/026.png,bars/mask000.png,,,,,,,,,,,,2,1,,,,,,,6,4,6,4,,,,,,,,,,,238.5133,239.0137,239.2632,242.8128,space,3.516,,242.8129,19,31,243.813,243.8131,251.9625,space,8.126,,0,1,1,1,1,35,85,,,,,,,,
,,65ae0c9dc54cd53ea9424357,65af53f0ba138c82e9dc71d3,2024-01-23_16h53.48.789,bars,2023.2.3,Win32,60.60606061,657b66ea316d21385b68909f,,,,,,,,,,,251.9689,252.9632,,,253.4628,253.7126,,60,60,,,,,,,,,,,,,,,,bars/034.png,bars/mask003.png,,,,,,,,,,,,2,2,,,,,,,8,2,8,2,,,,,,,,,,,252.9633,253.4628,253.7127,255.1134,space,1.3846,,255.1136,65,5,256.1132,256.1132,259.979,space,3.8328,,0,2,2,2,1,125,65,,,,,,,,
,,65ae0c9dc54cd53ea9424357,65af53f0ba138c82e9dc71d3,2024-01-23_16h53.48.789,bars,2023.2.3,Win32,60.60606061,657b66ea316d21385b68909f,,,,,,,,,,,259.9855,260.9794,,,261.4796,261.73,,60,240,,,,,,,,,,,,,,,,bars/028.png,bars/mask004.png,,,,,,,,,,,,3,1,,,,,,,6,4,5,5,,,,,,,,,,,260.9796,261.4795,261.73,265.7631,space,4.017,,265.7632,15,60,266.762,266.762,272.6798,space,5.8876,,0,3,3,3,1,45,120,,,,,,,,
,,65ae0c9dc54cd53ea9424357,65af53f0ba138c82e9dc71d3,2024-01-23_16h53.48.789,bars,2023.2.3,Win32,60.60606061,657b66ea316d21385b68909f,,,,,,,,,,,272.6906,273.6796,,,274.1788,274.4297,,134,134,,,,,,,,,,,,,,,,bars/023.png,bars/mask004.png,,,,,,,,,,,,0,2,,,,,,,4,2,5,1,,,,,,,,,,,273.6796,274.1788,274.4297,277.3464,space,2.9004,,277.3464,66,19,278.3463,278.3464,281.4132,space,3.0361,,0,4,4,4,1,20,115,,,,,,,,
,,65ae0c9dc54cd53ea9424357,65af53f0ba138c82e9dc71d3,2024-01-23_16h53.48.789,bars,2023.2.3,Win32,60.60606061,657b66ea316d21385b68909f,,,,,,,,,,,281.4141,282.4126,,,282.9125,283.163,,157,157,,,,,,,,,,,,,,,,bars/017.png,bars/mask000.png,,,,,,,,,,,,2,1,,,,,,,2,0,3,2,,,,,,,,,,,282.4127,282.9124,283.163,286.5625,space,3.3695,,286.5626,12,68,287.5628,287.563,291.1626,space,3.568,,0,5,5,5,1,145,45,,,,,,,,
,,65ae0c9dc54cd53ea9424357,65af53f0ba138c82e9dc71d3,2024-01-23_16h53.48.789,bars,2023.2.3,Win32,60.60606061,657b66ea316d21385b68909f,,,,,,,,,,,291.1633,292.1629,,,292.663,292.9121,,150,150,,,,,,,,,,,,,,,,bars/049.png,bars/mask009.png,,,,,,,,,,,,1,1,,,,,,,0,2,1,3,,,,,,,,,,,292.1629,292.6629,292.9122,294.9128,space,1.9867,,294.9129,10,35,295.9119,295.912,300.6793,space,4.7376,,0,6,6,6,1,160,115,,,,,,,,
,,65ae0c9dc54cd53ea9424357,65af53f0ba138c82e9dc71d3,2024-01-23_16h53.48.789,bars,2023.2.3,Win32,60.60606061,657b66ea316d21385b68909f,,,,,,,,,,,300.6882,301.6784,,,302.1789,302.4285,,61,61,,,,,,,,,,,,,,,,bars/023.png,bars/mask007.png,,,,,,,,,,,,0,1,,,,,,,2,0,2,0,,,,,,,,,,,301.6784,302.1789,302.4285,305.679,space,3.2379,,305.679,41,54,306.6791,306.6792,309.7842,space,3.0839,,0,7,7,7,1,20,115,,,,,,,,
,,65ae0c9dc54cd53ea9424357,65af53f0ba138c82e9dc71d3,2024-01-23_16h53.48.789,bars,2023.2.3,Win32,60.60606061,657b66ea316d21385b68909f,,,,,,,,,,,309.793,310.7954,,,311.3005,311.5464,,143,143,,,,,,,,,,,,,,,,bars/037.png,bars/mask007.png,,,,,,,,,,,,0,1,,,,,,,0,2,0,2,,,,,,,,,,,310.7955,311.3005,311.5464,313.9121,space,2.3562,,313.9122,7,38,314.9121,314.9121,317.2115,space,2.2702,,0,8,8,8,1,150,105,,,,,,,,
,,65ae0c9dc54cd53ea9424357,65af53f0ba138c82e9dc71d3,2024-01-23_16h53.48.789,bars,2023.2.3,Win32,60.60606061,657b66ea316d21385b68909f,,,,,,,,,,,317.2117,318.2119,,,318.7119,318.9624,,33,213,,,,,,,,,,,,,,,,bars/007.png,bars/mask002.png,,,,,,,,,,,,1,2,,,,,,,0,4,0,4,,,,,,,,,,,318.212,318.7119,318.9625,323.4625,space,4.4938,,323.4626,38,22,324.4627,324.4628,328.3952,space,3.9094,,0,9,9,9,1,175,55,,,,,,,,
,,65ae0c9dc54cd53ea9424357,65af53f0ba138c82e9dc71d3,2024-01-23_16h53.48.789,bars,2023.2.3,Win32,60.60606061,657b66ea316d21385b68909f,,,,,,,,,,,328.4016,329.3959,,,329.8959,330.146,,6,6,,,,,,,,,,,,,,,,bars/040.png,bars/mask005.png,,,,,,,,,,,,5,2,,,,,,,0,6,3,5,,,,,,,,,,,329.396,329.8959,330.1461,332.7286,space,2.5632,,332.7286,46,1,333.729,333.7291,337.1791,space,3.4194,,0,10,10,10,1,140,5,,,,,,,,
,,65ae0c9dc54cd53ea9424357,65af53f0ba138c82e9dc71d3,2024-01-23_16h53.48.789,bars,2023.2.3,Win32,60.60606061,657b66ea316d21385b68909f,,,,,,,,,,,337.1798,338.1791,,,338.6792,338.9285,,78,78,,,,,,,,,,,,,,,,bars/010.png,bars/mask004.png,,,,,,,,,,,,1,2,,,,,,,2,4,3,5,,,,,,,,,,,338.1792,338.6792,338.9285,340.5622,space,1.6088,,340.5622,87,23,341.5626,341.5627,344.9293,space,3.3338,,0,11,11,11,1,165,55,,,,,,,,
,,65ae0c9dc54cd53ea9424357,65af53f0ba138c82e9dc71d3,2024-01-23_16h53.48.789,bars,2023.2.3,Win32,60.60606061,657b66ea316d21385b68909f,,,,,,,,,,,344.9385,345.9286,,,346.4294,346.6794,,57,57,,,,,,,,,,,,,,,,bars/010.png,bars/mask004.png,,,,,,,,,,,,5,2,,,,,,,0,6,0,5,,,,,,,,,,,345.9287,346.4293,346.6795,350.3789,space,3.6844,,350.379,72,2,351.3789,351.3789,354.4625,space,3.0533,,0,12,12,12,1,165,55,,,,,,,,
,,65ae0c9dc54cd53ea9424357,65af53f0ba138c82e9dc71d3,2024-01-23_16h53.48.789,bars,2023.2.3,Win32,60.60606061,657b66ea316d21385b68909f,,,,,,,,,,,354.4732,355.4621,,,355.9623,356.2122,,49,49,,,,,,,,,,,,,,,,bars/006.png,bars/mask006.png,,,,,,,,,,,,1,1,,,,,,,2,4,2,4,,,,,,,,,,,355.4623,355.9622,356.2122,359.412,space,3.1908,,359.412,14,51,360.4126,360.4126,364.2004,space,3.767,,0,13,13,13,1,35,100,,,,,,,,
,,65ae0c9dc54cd53ea9424357,65af53f0ba138c82e9dc71d3,2024-01-23_16h53.48.789,bars,2023.2.3,Win32,60.60606061,657b66ea316d21385b68909f,,,,,,,,,,,364.2078,365.2124,,,365.712,365.9622,,8,8,,,,,,,,,,,,,,,,bars/036.png,bars/mask003.png,,,,,,,,,,,,4,2,,,,,,,0,6,0,6,,,,,,,,,,,365.2124,365.712,365.9623,367.662,space,1.6919,,367.6621,43,12,368.6621,368.6621,371.778,space,3.0901,,0,14,14,14,1,145,20,,,,,,,,
,,65ae0c9dc54cd53ea9424357,65af53f0ba138c82e9dc71d3,2024-01-23_16h53.48.789,bars,2023.2.3,Win32,60.60606061,657b66ea316d21385b68909f,,,,,,,,,,,371.7847,372.7781,,,373.2791,373.5289,,130,130,,,,,,,,,,,,,,,,bars/044.png,bars/mask006.png,,,,,,,,,,,,1,2,,,,,,,2,8,1,8,,,,,,,,,,,372.7781,373.2789,373.5291,379.5462,space,6.0024,,379.5464,55,25,380.5359,380.536,382.0121,space,1.452,,0,15,15,15,1,75,155,,,,,,,,
,,65ae0c9dc54cd53ea9424357,65af53f0ba138c82e9dc71d3,2024-01-23_16h53.48.789,bars,2023.2.3,Win32,60.60606061,657b66ea316d21385b68909f,,,,,,,,,,,382.0128,383.0124,,,383.5123,383.7623,,96,96,,,,,,,,,,,,,,,,bars/041.png,bars/mask004.png,,,,,,,,,,,,6,2,,,,,,,0,10,0,9,,,,,,,,,,,383.0124,383.5122,383.7624,385.5955,space,1.8179,,385.5955,76,11,386.5847,386.5848,389.2789,space,2.6743,,0,16,16,16,1,20,85,,,,,,,,
,,65ae0c9dc54cd53ea9424357,65af53f0ba138c82e9dc71d3,2024-01-23_16h53.48.789,bars,2023.2.3,Win32,60.60606061,657b66ea316d21385b68909f,,,,,,,,,,,389.2795,390.2791,,,390.7781,391.0353,,21,201,,,,,,,,,,,,,,,,bars/040.png,bars/mask000.png,,,,,,,,,,,,5,2,,,,,,,0,10,0,10,,,,,,,,,,,390.2792,390.778,391.0354,395.7951,space,4.7344,,395.7952,61,16,396.7953,396.7953,398.2625,space,1.4417,,0,17,17,17,1,140,5,,,,,,,,
,,65ae0c9dc54cd53ea9424357,65af53f0ba138c82e9dc71d3,2024-01-23_16h53.48.789,bars,2023.2.3,Win32,60.60606061,657b66ea316d21385b68909f,,,,,,,,,,,398.2631,399.2622,,,399.7624,400.0121,,96,-84,,,,,,,,,,,,,,,,bars/018.png,bars/mask000.png,,,,,,,,,,,,7,2,,,,,,,0,10,0,9,,,,,,,,,,,399.2623,399.7624,400.0122,405.1955,space,5.1686,,405.1957,54,6,406.1957,406.1958,408.0291,space,1.8049,,0,18,18,18,1,150,90,,,,,,,,
,,65ae0c9dc54cd53ea9424357,65af53f0ba138c82e9dc71d3,2024-01-23_16h53.48.789,bars,2023.2.3,Win32,60.60606061,657b66ea316d21385b68909f,,,,,,,,,,,408.0299,409.0283,,,409.5289,409.7779,,152,152,,,,,,,,,,,,,,,,bars/020.png,bars/mask005.png,,,,,,,,,,,,3,2,,,,,,,2,8,2,8,,,,,,,,,,,409.0283,409.5289,409.7779,411.4788,space,1.6866,,411.4788,37,18,412.479,412.4791,414.6284,space,2.1265,,0,19,19,19,1,115,170,,,,,,,,
,,65ae0c9dc54cd53ea9424357,65af53f0ba138c82e9dc71d3,2024-01-23_16h53.48.789,bars,2023.2.3,Win32,60.60606061,657b66ea316d21385b68909f,,,,,,,,,,,414.629,415.629,,,416.1288,416.3782,,87,87,,,,,,,,,,,,,,,,bars/019.png,bars/mask006.png,,,,,,,,,,,,2,2,,,,,,,0,6,1,6,,,,,,,,,,,415.629,416.1287,416.3783,418.7129,space,2.318,,418.7129,42,18,419.7188,419.7189,421.3125,space,1.5669,,0,20,20,20,1,45,105,,,,,,,,
,,65ae0c9dc54cd53ea9424357,65af53f0ba138c82e9dc71d3,2024-01-23_16h53.48.789,bars,2023.2.3,Win32,60.60606061,657b66ea316d21385b68909f,,,,,,,,,,,421.3134,422.3122,,,422.8122,423.0617,,165,-15,,,,,,,,,,,,,,,,bars/044.png,bars/mask000.png,,,,,,,,,,,,3,2,,,,,,,2,8,2,5,,,,,,,,,,,422.3123,422.8121,423.0618,426.5126,space,3.4297,,426.5127,90,10,427.5125,427.5126,429.4289,space,1.8879,,0,21,21,21,1,75,155,,,,,,,,
,,65ae0c9dc54cd53ea9424357,65af53f0ba138c82e9dc71d3,2024-01-23_16h53.48.789,bars,2023.2.3,Win32,60.60606061,657b66ea316d21385b68909f,,,,,,,,,,,429.4301,430.4293,,,430.9281,431.1788,,171,-9,,,,,,,,,,,,,,,,bars/048.png,bars/mask008.png,,,,,,,,,,,,6,2,,,,,,,4,6,4,7,,,,,,,,,,,430.4294,430.9281,431.1788,433.6456,space,2.4526,,433.6457,59,4,434.6454,434.6455,436.0285,space,1.3562,,0,22,22,22,1,50,175,,,,,,,,
,,65ae0c9dc54cd53ea9424357,65af53f0ba138c82e9dc71d3,2024-01-23_16h53.48.789,bars,2023.2.3,Win32,60.60606061,657b66ea316d21385b68909f,,,,,,,,,,,436.0291,437.0278,,,437.5281,437.7778,,100,100,,,,,,,,,,,,,,,,bars/042.png,bars/mask000.png,,,,,,,,,,,,1,2,,,,,,,2,4,3,4,,,,,,,,,,,437.0278,437.528,437.7778,438.9624,space,1.1533,,438.9625,45,25,439.9621,439.9622,442.3796,space,2.3872,,0,23,23,23,1,145,75,,,,,,,,
,,65ae0c9dc54cd53ea9424357,65af53f0ba138c82e9dc71d3,2024-01-23_16h53.48.789,bars,2023.2.3,Win32,60.60606061,657b66ea316d21385b68909f,,,,,,,,,,,442.3804,443.379,,,443.8792,444.129,,154,154,,,,,,,,,,,,,,,,bars/020.png,bars/mask002.png,,,,,,,,,,,,1,2,,,,,,,0,2,1,3,,,,,,,,,,,443.3791,443.8791,444.1291,445.4282,space,1.2912,,445.4282,39,16,446.4285,446.4286,447.4623,space,1.0024,,0,24,24,24,1,115,170,,,,,,,,
,,65ae0c9dc54cd53ea9424357,65af53f0ba138c82e9dc71d3,2024-01-23_16h53.48.789,bars,2023.2.3,Win32,60.60606061,657b66ea316d21385b68909f,,,,,,,,,,,447.463,448.4623,,,448.9619,449.2116,,12,192,,,,,,,,,,,,,,,,bars/032.png,bars/mask008.png,,,,,,,,,,,,0,2,,,,,,,0,0,2,0,,,,,,,,,,,448.4625,448.9618,449.2117,454.4122,space,5.1892,,454.4124,67,8,455.4118,455.4118,457.7447,space,2.3009,,0,25,25,25,1,125,20,,,,,,,,
,,65ae0c9dc54cd53ea9424357,65af53f0ba138c82e9dc71d3,2024-01-23_16h53.48.789,bars,2023.2.3,Win32,60.60606061,657b66ea316d21385b68909f,,,,,,,,,,,457.7493,458.745,,,459.2453,459.4952,,33,33,,,,,,,,,,,,,,,,bars/022.png,bars/mask001.png,,,,,,,,,,,,0,2,,,,,,,2,0,1,0,,,,,,,,,,,458.745,459.2452,459.4953,461.5454,space,2.0351,,461.5455,62,13,462.5448,462.5448,470.146,space,7.57,,0,26,26,26,1,95,20,,,,,,,,
,,65ae0c9dc54cd53ea9424357,65af53f0ba138c82e9dc71d3,2024-01-23_16h53.48.789,bars,2023.2.3,Win32,60.60606061,657b66ea316d21385b68909f,,,,,,,,,,,470.157,471.1621,,,471.6615,471.9109,,152,152,,,,,,,,,,,,,,,,bars/000.png,bars/mask000.png,,,,,,,,,,,,2,2,,,,,,,0,2,0,2,,,,,,,,,,,471.1622,471.6615,471.9111,472.7945,space,0.8553,,472.7945,68,7,473.7946,473.7946,478.1121,space,4.2878,,0,27,27,27,1,40,145,,,,,,,,
,,65ae0c9dc54cd53ea9424357,65af53f0ba138c82e9dc71d3,2024-01-23_16h53.48.789,bars,2023.2.3,Win32,60.60606061,657b66ea316d21385b68909f,,,,,,,,,,,478.1237,479.1118,,,479.6119,479.8618,,169,169,,,,,,,,,,,,,,,,bars/049.png,bars/mask003.png,,,,,,,,,,,,0,1,,,,,,,0,0,0,1,,,,,,,,,,,479.1119,479.6118,479.8619,482.7781,space,2.9004,,482.7782,9,54,483.7776,483.7777,485.211,space,1.4058,,0,28,28,28,1,160,115,,,,,,,,
,,65ae0c9dc54cd53ea9424357,65af53f0ba138c82e9dc71d3,2024-01-23_16h53.48.789,bars,2023.2.3,Win32,60.60606061,657b66ea316d21385b68909f,,,,,,,,,,,485.2114,486.212,,,486.7122,486.9617,,138,138,,,,,,,,,,,,,,,,bars/038.png,bars/mask009.png,,,,,,,,,,,,0,1,,,,,,,2,0,2,0,,,,,,,,,,,486.212,486.7121,486.9618,489.2953,space,2.3183,,489.2955,27,68,490.295,490.2951,492.928,space,2.6061,,0,29,29,29,1,165,70,,,,,,,,
,,65ae0c9dc54cd53ea9424357,65af53f0ba138c82e9dc71d3,2024-01-23_16h53.48.789,bars,2023.2.3,Win32,60.60606061,657b66ea316d21385b68909f,,,,,,,,,,,492.9285,493.9281,,,494.4278,494.6783,,58,58,,,,,,,,,,,,,,,,bars/022.png,bars/mask000.png,,,,,,,,,,,,0,1,,,,,,,0,2,0,2,,,,,,,,,,,493.9281,494.4278,494.6784,500.0276,space,5.3375,,500.0277,37,38,501.0282,501.0282,505.9447,space,4.8946,,0,30,30,30,1,95,20,,,,,,,,
,,65ae0c9dc54cd53ea9424357,65af53f0ba138c82e9dc71d3,2024-01-23_16h53.48.789,bars,2023.2.3,Win32,60.60606061,657b66ea316d21385b68909f,,,,,,,,,,,505.9549,506.9451,,,507.4451,507.6941,,43,43,,,,,,,,,,,,,,,,bars/000.png,bars/mask005.png,,,,,,,,,,,,1,1,,,,,,,2,0,1,0,,,,,,,,,,,506.9452,507.445,507.6942,511.3117,space,3.6069,,511.3119,3,78,512.3113,512.3113,514.7778,space,2.4377,,0,31,31,31,1,40,145,,,,,,,,
,,65ae0c9dc54cd53ea9424357,65af53f0ba138c82e9dc71d3,2024-01-23_16h53.48.789,bars,2023.2.3,Win32,60.60606061,657b66ea316d21385b68909f,,,,,,,,,,,514.7783,515.7784,,,516.2782,516.534,,56,56,,,,,,,,,,,,,,,,bars/007.png,bars/mask000.png,,,,,,,,,,,,2,2,,,,,,,4,2,5,2,,,,,,,,,,,515.7785,516.278,516.5341,518.6457,space,2.0945,,518.6458,61,1,519.6451,519.6452,523.0785,space,3.4036,,0,32,32,32,1,175,55,,,,,,,,
,,65ae0c9dc54cd53ea9424357,65af53f0ba138c82e9dc71d3,2024-01-23_16h53.48.789,bars,2023.2.3,Win32,60.60606061,657b66ea316d21385b68909f,,,,,,,,,,,523.0894,524.0779,,,524.5782,524.8279,,84,84,,,,,,,,,,,,,,,,bars/023.png,bars/mask001.png,,,,,,,,,,,,0,2,,,,,,,2,0,3,1,,,,,,,,,,,524.0781,524.5781,524.8279,529.2953,space,4.4509,,529.2954,64,31,530.295,530.295,531.4449,space,1.1209,,0,33,33,33,1,20,115,,,,,,,,
,,65ae0c9dc54cd53ea9424357,65af53f0ba138c82e9dc71d3,2024-01-23_16h53.48.789,bars,2023.2.3,Win32,60.60606061,657b66ea316d21385b68909f,,,,,,,,,,,531.4457,532.4447,,,532.945,533.1955,,72,72,,,,,,,,,,,,,,,,bars/042.png,bars/mask002.png,,,,,,,,,,,,0,2,,,,,,,0,0,0,0,,,,,,,,,,,532.4448,532.945,533.1955,536.9669,space,3.7505,,536.9671,73,3,537.9614,537.9614,539.7777,space,1.7935,,0,34,34,34,1,145,75,,,,,,,,
,,65ae0c9dc54cd53ea9424357,65af53f0ba138c82e9dc71d3,2024-01-23_16h53.48.789,bars,2023.2.3,Win32,60.60606061,657b66ea316d21385b68909f,,,,,,,,,,,539.7783,540.7777,,,541.2777,541.5279,,43,43,,,,,,,,,,,,,,,,bars/031.png,bars/mask002.png,,,,,,,,,,,,1,2,,,,,,,0,2,1,1,,,,,,,,,,,540.7777,541.2776,541.528,543.2277,space,1.6926,,543.2277,77,8,544.2279,544.228,545.7773,space,1.5269,,0,35,35,35,1,120,35,,,,,,,,
,,65ae0c9dc54cd53ea9424357,65af53f0ba138c82e9dc71d3,2024-01-23_16h53.48.789,bars,2023.2.3,Win32,60.60606061,657b66ea316d21385b68909f,,,,,,,,,,,545.7776,546.7778,,,547.2785,547.5275,,112,112,,,,,,,,,,,,,,,,bars/039.png,bars/mask006.png,,,,,,,,,,,,0,2,,,,,,,0,0,0,0,,,,,,,,,,,546.7778,547.2783,547.5277,550.3281,space,2.7952,,550.3281,63,7,551.3278,551.3279,553.3611,space,2.011,,0,36,36,36,1,175,105,,,,,,,,
,,65ae0c9dc54cd53ea9424357,65af53f0ba138c82e9dc71d3,2024-01-23_16h53.48.789,bars,2023.2.3,Win32,60.60606061,657b66ea316d21385b68909f,,,,,,,,,,,553.3616,554.3612,,,554.8616,555.1114,,77,77,,,,,,,,,,,,,,,,bars/009.png,bars/mask006.png,,,,,,,,,,,,0,2,,,,,,,0,0,0,0,,,,,,,,,,,554.3612,554.8616,555.1114,556.6605,space,1.5335,,556.6605,62,28,557.6607,557.6607,562.311,space,4.6167,,0,37,37,37,1,15,105,,,,,,,,
,,65ae0c9dc54cd53ea9424357,65af53f0ba138c82e9dc71d3,2024-01-23_16h53.48.789,bars,2023.2.3,Win32,60.60606061,657b66ea316d21385b68909f,,,,,,,,,,,562.3202,563.311,,,563.8108,564.0507,,63,63,,,,,,,,,,,,,,,,bars/025.png,bars/mask001.png,,,,,,,,,,,,0,2,,,,,,,0,0,0,1,,,,,,,,,,,563.3111,563.8108,564.0508,567.515,space,3.4578,,567.5151,42,23,568.5115,568.5115,570.1984,space,1.6658,,0,38,38,38,1,105,40,,,,,,,,
,,65ae0c9dc54cd53ea9424357,65af53f0ba138c82e9dc71d3,2024-01-23_16h53.48.789,bars,2023.2.3,Win32,60.60606061,657b66ea316d21385b68909f,,,,,,,,,,,570.1991,571.1943,,,571.6943,571.9446,,82,82,,,,,,,,,,,,,,,,bars/046.png,bars/mask002.png,,,,,,,,,,,,0,2,,,,,,,2,0,3,0,,,,,,,,,,,571.1944,571.6942,571.9446,574.8449,space,2.8846,,574.845,73,3,575.8446,575.8447,578.9117,space,3.0419,,0,39,39,39,1,155,85,,,,,,,,
,,65ae0c9dc54cd53ea9424357,65af53f0ba138c82e9dc71d3,2024-01-23_16h53.48.789,bars,2023.2.3,Win32,60.60606061,657b66ea316d21385b68909f,,,,,,,,,,,578.923,579.9108,,,580.4114,580.661,,90,90,,,,,,,,,,,,,,,,bars/037.png,bars/mask001.png,,,,,,,,,,,,1,2,,,,,,,4,0,4,1,,,,,,,,,,,579.9109,580.4113,580.661,583.4277,space,2.7608,,583.4278,60,15,584.4275,584.4275,588.5947,space,4.1371,,0,40,40,40,1,150,105,,,,,,,,
,,65ae0c9dc54cd53ea9424357,65af53f0ba138c82e9dc71d3,2024-01-23_16h53.48.789,bars,2023.2.3,Win32,60.60606061,657b66ea316d21385b68909f,,,,,,,,,,,588.6062,589.5938,,,590.0947,590.3444,,164,164,,,,,,,,,,,,,,,,bars/033.png,bars/mask005.png,,,,,,,,,,,,0,2,,,,,,,6,0,4,0,,,,,,,,,,,589.5939,590.0947,590.3444,592.9275,space,2.5545,,592.9275,41,9,593.9273,593.9274,595.5113,space,1.5522,,0,41,41,41,1,25,155,,,,,,,,
,,65ae0c9dc54cd53ea9424357,65af53f0ba138c82e9dc71d3,2024-01-23_16h53.48.789,bars,2023.2.3,Win32,60.60606061,657b66ea316d21385b68909f,,,,,,,,,,,595.5119,596.5111,,,597.0113,597.2603,,132,132,,,,,,,,,,,,,,,,bars/023.png,bars/mask004.png,,,,,,,,,,,,1,2,,,,,,,4,2,5,2,,,,,,,,,,,596.5112,597.0111,597.2603,600.0117,space,2.7196,,600.0118,68,17,601.0107,601.0108,602.5776,space,1.5366,,0,42,42,42,1,20,115,,,,,,,,
,,65ae0c9dc54cd53ea9424357,65af53f0ba138c82e9dc71d3,2024-01-23_16h53.48.789,bars,2023.2.3,Win32,60.60606061,657b66ea316d21385b68909f,,,,,,,,,,,602.5781,603.5813,,,604.078,604.3281,,141,141,,,,,,,,,,,,,,,,bars/036.png,bars/mask002.png,,,,,,,,,,,,6,1,,,,,,,6,0,7,1,,,,,,,,,,,603.5813,604.0779,604.3282,607.8444,space,3.4863,,607.8445,4,59,608.8445,608.8446,612.2946,space,3.4281,,0,43,43,43,1,145,20,,,,,,,,
,,65ae0c9dc54cd53ea9424357,65af53f0ba138c82e9dc71d3,2024-01-23_16h53.48.789,bars,2023.2.3,Win32,60.60606061,657b66ea316d21385b68909f,,,,,,,,,,,612.3024,613.2945,,,613.7941,614.044,,23,23,,,,,,,,,,,,,,,,bars/000.png,bars/mask006.png,,,,,,,,,,,,3,1,,,,,,,4,2,6,2,,,,,,,,,,,613.2946,613.7941,614.044,615.7115,space,1.6527,,615.7115,17,58,616.7104,616.7104,618.0941,space,1.3541,,0,44,44,44,1,40,145,,,,,,,,
,,65ae0c9dc54cd53ea9424357,65af53f0ba138c82e9dc71d3,2024-01-23_16h53.48.789,bars,2023.2.3,Win32,60.60606061,657b66ea316d21385b68909f,,,,,,,,,,,618.0945,619.0943,,,619.5944,619.844,,138,-42,,,,,,,,,,,,,,,,bars/020.png,bars/mask002.png,,,,,,,,,,,,1,1,,,,,,,2,4,3,4,,,,,,,,,,,619.0945,619.5943,619.8441,624.1512,space,4.3009,,624.1513,23,32,625.1436,625.1437,626.777,space,1.6024,,0,45,45,45,1,115,170,,,,,,,,
,,65ae0c9dc54cd53ea9424357,65af53f0ba138c82e9dc71d3,2024-01-23_16h53.48.789,bars,2023.2.3,Win32,60.60606061,657b66ea316d21385b68909f,,,,,,,,,,,626.7772,627.7772,,,628.2777,628.5277,,145,145,,,,,,,,,,,,,,,,bars/035.png,bars/mask001.png,,,,,,,,,,,,0,1,,,,,,,4,2,4,1,,,,,,,,,,,627.7772,628.2777,628.5277,630.0611,space,1.518,,630.0612,30,85,631.0673,631.0674,632.9612,space,1.8672,,0,46,46,46,1,175,60,,,,,,,,
,,65ae0c9dc54cd53ea9424357,65af53f0ba138c82e9dc71d3,2024-01-23_16h53.48.789,bars,2023.2.3,Win32,60.60606061,657b66ea316d21385b68909f,,,,,,,,,,,632.9616,633.9605,,,634.4493,634.6945,,34,214,,,,,,,,,,,,,,,,bars/048.png,bars/mask002.png,,,,,,,,,,,,3,1,,,,,,,6,0,6,0,,,,,,,,,,,633.9605,634.4493,634.6945,639.6612,space,4.9496,,639.6613,16,39,640.6609,640.6609,643.244,space,2.5595,,0,47,47,47,1,50,175,,,,,,,,
,,65ae0c9dc54cd53ea9424357,65af53f0ba138c82e9dc71d3,2024-01-23_16h53.48.789,bars,2023.2.3,Win32,60.60606061,657b66ea316d21385b68909f,,,,,,,,,,,643.2445,644.2447,,,644.7446,644.994,,157,-23,,,,,,,,,,,,,,,,bars/017.png,bars/mask007.png,,,,,,,,,,,,3,1,,,,,,,4,2,5,2,,,,,,,,,,,644.2448,644.7446,644.994,648.2436,space,3.2388,,648.2436,12,68,649.2435,649.2435,650.2275,space,0.9557,,0,48,48,48,1,145,45,,,,,,,,
,,65ae0c9dc54cd53ea9424357,65af53f0ba138c82e9dc71d3,2024-01-23_16h53.48.789,bars,2023.2.3,Win32,60.60606061,657b66ea316d21385b68909f,,,,,,,,,,,650.2282,651.2276,,,651.7277,651.9777,,39,39,,,,,,,,,,,,,,,,bars/003.png,bars/mask001.png,,,,,,,,,,,,2,1,,,,,,,2,4,4,3,,,,,,,,,,,651.2276,651.7276,651.9777,652.9273,space,0.9237,,652.9274,14,79,653.9271,653.9271,655.2777,space,1.3199,,0,49,49,49,1,25,140,,,,,,,,
,,65ae0c9dc54cd53ea9424357,65af53f0ba138c82e9dc71d3,2024-01-23_16h53.48.789,bars,2023.2.3,Win32,60.60606061,657b66ea316d21385b68909f,,,,,,,,,,,,,,,,,,,,,,,,,,,,,,,,,,,,,,,,,,,,,,,,,,,,,,,,,,,,,,,,,,,,,,,,,,,,,,,,,,,,,,,,,,,,,655.2792,715.2778,0,0,0,0,1,sequence_tables/blk015.csv
,,65ae0c9dc54cd53ea9424357,65af53f0ba138c82e9dc71d3,2024-01-23_16h53.48.789,bars,2023.2.3,Win32,60.60606061,657b66ea316d21385b68909f,,,,,,,,,,,725.004,725.9938,,,726.4931,726.743,,58,58,,,,,,,,,,,,,,,,bars/034.png,bars/mask002.png,,,,,,,,,,,,2,2,,,,,,,7,2,8,3,,,,,,715.2843,724.9936,space,9.6913,,725.9939,726.4931,726.7431,729.344,space,2.5898,,729.3441,67,7,730.3438,730.3439,730.3615,,,,0,0,0,0,1,125,65,,,,,,,,
,,65ae0c9dc54cd53ea9424357,65af53f0ba138c82e9dc71d3,2024-01-23_16h53.48.789,bars,2023.2.3,Win32,60.60606061,657b66ea316d21385b68909f,,,,,,,,,,,730.3617,731.3598,,,731.86,732.1102,,166,-14,,,,,,,,,,,,,,,,bars/033.png,bars/mask008.png,,,,,,,,,,,,3,2,,,,,,,9,4,8,5,,,,,,,,,,,731.3599,731.86,732.1103,735.1942,space,3.0699,,735.1944,39,11,736.1939,736.1939,736.2061,,,,0,1,1,1,1,25,155,,,,,,,,
,,65ae0c9dc54cd53ea9424357,65af53f0ba138c82e9dc71d3,2024-01-23_16h53.48.789,bars,2023.2.3,Win32,60.60606061,657b66ea316d21385b68909f,,,,,,,,,,,736.2063,737.1979,,,737.6942,737.9434,,11,191,,,,,,,,,,,,,,,,bars/032.png,bars/mask009.png,,,,,,,,,,,,4,2,,,,,,,7,6,6,6,,,,,,,,,,,737.1979,737.6941,737.9435,740.7106,space,2.7521,,740.7107,66,9,741.7102,741.7103,741.7221,,,,0,2,2,2,1,125,20,,,,,,,,
,,65ae0c9dc54cd53ea9424357,65af53f0ba138c82e9dc71d3,2024-01-23_16h53.48.789,bars,2023.2.3,Win32,60.60606061,657b66ea316d21385b68909f,,,,,,,,,,,741.7222,742.7101,,,743.2104,743.4603,,92,92,,,,,,,,,,,,,,,,bars/030.png,bars/mask004.png,,,,,,,,,,,,1,2,,,,,,,5,8,6,9,,,,,,,,,,,742.7102,743.2104,743.4603,745.8609,space,2.3847,,745.861,48,27,746.8605,746.8605,746.8736,,,,0,3,3,3,1,140,65,,,,,,,,
,,65ae0c9dc54cd53ea9424357,65af53f0ba138c82e9dc71d3,2024-01-23_16h53.48.789,bars,2023.2.3,Win32,60.60606061,657b66ea316d21385b68909f,,,,,,,,,,,746.8738,747.8765,,,748.3772,748.6271,,10,10,,,,,,,,,,,,,,,,bars/012.png,bars/mask003.png,,,,,,,,,,,,5,2,,,,,,,3,6,2,6,,,,,,,,,,,747.8766,748.3772,748.6272,750.8274,space,2.1826,,750.8275,80,5,751.8269,751.827,751.839,,,,0,4,4,4,1,90,15,,,,,,,,
,,65ae0c9dc54cd53ea9424357,65af53f0ba138c82e9dc71d3,2024-01-23_16h53.48.789,bars,2023.2.3,Win32,60.60606061,657b66ea316d21385b68909f,,,,,,,,,,,751.8392,752.8437,,,753.3334,753.5769,,157,157,,,,,,,,,,,,,,,,bars/015.png,bars/mask007.png,,,,,,,,,,,,5,2,,,,,,,5,4,4,5,,,,,,,,,,,752.8437,753.3333,753.577,755.3437,space,1.7383,,755.3437,47,3,756.3431,756.3431,756.3509,,,,0,5,5,5,1,110,160,,,,,,,,
,,65ae0c9dc54cd53ea9424357,65af53f0ba138c82e9dc71d3,2024-01-23_16h53.48.789,bars,2023.2.3,Win32,60.60606061,657b66ea316d21385b68909f,,,,,,,,,,,756.351,757.3431,,,757.8436,758.0939,,177,-3,,,,,,,,,,,,,,,,bars/012.png,bars/mask003.png,,,,,,,,,,,,1,2,,,,,,,3,2,3,3,,,,,,,,,,,757.3431,757.8436,758.0939,761.6603,space,3.5508,,761.6604,87,18,762.6603,762.6604,762.6724,,,,0,6,6,6,1,90,15,,,,,,,,
,,65ae0c9dc54cd53ea9424357,65af53f0ba138c82e9dc71d3,2024-01-23_16h53.48.789,bars,2023.2.3,Win32,60.60606061,657b66ea316d21385b68909f,,,,,,,,,,,762.6725,763.6769,,,764.177,764.4271,,23,23,,,,,,,,,,,,,,,,bars/014.png,bars/mask006.png,,,,,,,,,,,,1,2,,,,,,,1,4,2,3,,,,,,,,,,,763.6769,764.177,764.4271,768.2603,space,3.8216,,768.2603,57,23,769.2603,769.2603,769.2723,,,,0,7,7,7,1,80,0,,,,,,,,
,,65ae0c9dc54cd53ea9424357,65af53f0ba138c82e9dc71d3,2024-01-23_16h53.48.789,bars,2023.2.3,Win32,60.60606061,657b66ea316d21385b68909f,,,,,,,,,,,769.2724,770.2601,,,770.7603,771.0103,,28,28,,,,,,,,,,,,,,,,bars/035.png,bars/mask000.png,,,,,,,,,,,,0,2,,,,,,,0,2,0,3,,,,,,,,,,,770.2602,770.7602,771.0103,773.5104,space,2.4862,,773.5104,33,32,774.5167,774.5168,774.5267,,,,0,8,8,8,1,175,60,,,,,,,,
,,65ae0c9dc54cd53ea9424357,65af53f0ba138c82e9dc71d3,2024-01-23_16h53.48.789,bars,2023.2.3,Win32,60.60606061,657b66ea316d21385b68909f,,,,,,,,,,,774.5269,775.5268,,,776.0264,776.2769,,88,88,,,,,,,,,,,,,,,,bars/021.png,bars/mask000.png,,,,,,,,,,,,2,2,,,,,,,0,4,0,5,,,,,,,,,,,775.5268,776.0263,776.2769,779.644,space,3.356,,779.644,67,18,780.6441,780.6441,780.6552,,,,0,9,9,9,1,155,70,,,,,,,,
,,65ae0c9dc54cd53ea9424357,65af53f0ba138c82e9dc71d3,2024-01-23_16h53.48.789,bars,2023.2.3,Win32,60.60606061,657b66ea316d21385b68909f,,,,,,,,,,,780.6555,781.6437,,,782.1437,782.3928,,148,148,,,,,,,,,,,,,,,,bars/001.png,bars/mask001.png,,,,,,,,,,,,0,1,,,,,,,0,6,0,6,,,,,,,,,,,781.6437,782.1437,782.3928,789.5102,space,7.0885,,789.5102,18,63,790.5105,790.5106,790.5274,,,,0,10,10,10,1,130,85,,,,,,,,
,,65ae0c9dc54cd53ea9424357,65af53f0ba138c82e9dc71d3,2024-01-23_16h53.48.789,bars,2023.2.3,Win32,60.60606061,657b66ea316d21385b68909f,,,,,,,,,,,790.5277,791.5271,,,792.0268,792.2771,,111,111,,,,,,,,,,,,,,,,bars/018.png,bars/mask006.png,,,,,,,,,,,,2,2,,,,,,,2,8,2,8,,,,,,,,,,,791.5272,792.0267,792.2772,794.9264,space,2.6339,,794.9265,39,21,795.9262,795.9262,795.9381,,,,0,11,11,11,1,150,90,,,,,,,,
,,65ae0c9dc54cd53ea9424357,65af53f0ba138c82e9dc71d3,2024-01-23_16h53.48.789,bars,2023.2.3,Win32,60.60606061,657b66ea316d21385b68909f,,,,,,,,,,,795.9384,796.9267,,,797.4273,797.676,,164,-16,,,,,,,,,,,,,,,,bars/033.png,bars/mask003.png,,,,,,,,,,,,4,2,,,,,,,4,6,5,6,,,,,,,,,,,796.9268,797.4272,797.676,800.1761,space,2.475,,800.1761,41,9,801.177,801.1771,801.1787,,,,0,12,12,12,1,25,155,,,,,,,,
,,65ae0c9dc54cd53ea9424357,65af53f0ba138c82e9dc71d3,2024-01-23_16h53.48.789,bars,2023.2.3,Win32,60.60606061,657b66ea316d21385b68909f,,,,,,,,,,,801.1794,802.177,,,802.677,802.9265,,161,161,,,,,,,,,,,,,,,,bars/015.png,bars/mask009.png,,,,,,,,,,,,8,2,,,,,,,2,8,1,8,,,,,,,,,,,802.177,802.6769,802.9265,805.8607,space,2.9236,,805.8607,51,1,806.8601,806.8602,806.8707,,,,0,13,13,13,1,110,160,,,,,,,,
,,65ae0c9dc54cd53ea9424357,65af53f0ba138c82e9dc71d3,2024-01-23_16h53.48.789,bars,2023.2.3,Win32,60.60606061,657b66ea316d21385b68909f,,,,,,,,,,,806.871,807.8602,,,808.3597,808.6103,,98,98,,,,,,,,,,,,,,,,bars/006.png,bars/mask005.png,,,,,,,,,,,,9,2,,,,,,,4,10,3,10,,,,,,,,,,,807.8602,808.3596,808.6103,811.8772,space,3.2518,,811.8773,63,2,812.8768,812.8769,812.8867,,,,0,14,14,14,1,35,100,,,,,,,,
,,65ae0c9dc54cd53ea9424357,65af53f0ba138c82e9dc71d3,2024-01-23_16h53.48.789,bars,2023.2.3,Win32,60.60606061,657b66ea316d21385b68909f,,,,,,,,,,,812.8869,813.8769,,,814.3767,814.6267,,157,157,,,,,,,,,,,,,,,,bars/024.png,bars/mask009.png,,,,,,,,,,,,5,2,,,,,,,2,10,3,9,,,,,,,,,,,813.8769,814.3767,814.6268,816.2604,space,1.6202,,816.2605,37,13,817.2604,817.2604,817.2622,,,,0,15,15,15,1,120,170,,,,,,,,
,,65ae0c9dc54cd53ea9424357,65af53f0ba138c82e9dc71d3,2024-01-23_16h53.48.789,bars,2023.2.3,Win32,60.60606061,657b66ea316d21385b68909f,,,,,,,,,,,817.2629,818.26,,,818.7603,819.0102,,81,81,,,,,,,,,,,,,,,,bars/026.png,bars/mask002.png,,,,,,,,,,,,7,2,,,,,,,0,10,0,8,,,,,,,,,,,818.2601,818.7602,819.0102,821.2269,space,2.2033,,821.2271,46,4,822.2263,822.2264,822.2369,,,,0,16,16,16,1,35,85,,,,,,,,
,,65ae0c9dc54cd53ea9424357,65af53f0ba138c82e9dc71d3,2024-01-23_16h53.48.789,bars,2023.2.3,Win32,60.60606061,657b66ea316d21385b68909f,,,,,,,,,,,822.2371,823.2268,,,823.7261,823.9766,,143,143,,,,,,,,,,,,,,,,bars/040.png,bars/mask004.png,,,,,,,,,,,,2,1,,,,,,,2,8,2,10,,,,,,,,,,,823.2269,823.726,823.9766,825.3934,space,1.4078,,825.3934,3,42,826.3934,826.3935,826.4001,,,,0,17,17,17,1,140,5,,,,,,,,
,,65ae0c9dc54cd53ea9424357,65af53f0ba138c82e9dc71d3,2024-01-23_16h53.48.789,bars,2023.2.3,Win32,60.60606061,657b66ea316d21385b68909f,,,,,,,,,,,826.4004,827.3936,,,827.894,828.1437,,140,140,,,,,,,,,,,,,,,,bars/016.png,bars/mask004.png,,,,,,,,,,,,2,2,,,,,,,4,10,5,10,,,,,,,,,,,827.3936,827.894,828.1438,830.9997,space,2.8482,,830.9997,80,25,831.9934,831.9935,832.0069,,,,0,18,18,18,1,40,165,,,,,,,,
,,65ae0c9dc54cd53ea9424357,65af53f0ba138c82e9dc71d3,2024-01-23_16h53.48.789,bars,2023.2.3,Win32,60.60606061,657b66ea316d21385b68909f,,,,,,,,,,,832.0071,833.0099,,,833.5103,833.7602,,84,84,,,,,,,,,,,,,,,,bars/011.png,bars/mask009.png,,,,,,,,,,,,10,2,,,,,,,6,10,5,10,,,,,,,,,,,833.0099,833.5103,833.7603,835.4429,space,1.675,,835.443,76,1,836.4432,836.4433,836.4451,,,,0,19,19,19,1,160,85,,,,,,,,
,,65ae0c9dc54cd53ea9424357,65af53f0ba138c82e9dc71d3,2024-01-23_16h53.48.789,bars,2023.2.3,Win32,60.60606061,657b66ea316d21385b68909f,,,,,,,,,,,836.4457,837.4432,,,837.943,838.1932,,103,103,,,,,,,,,,,,,,,,bars/009.png,bars/mask002.png,,,,,,,,,,,,9,2,,,,,,,8,10,9,10,,,,,,,,,,,837.4432,837.9429,838.1933,841.3769,space,3.1709,,841.377,88,2,842.3768,842.3769,842.3882,,,,0,20,20,20,1,15,105,,,,,,,,
,,65ae0c9dc54cd53ea9424357,65af53f0ba138c82e9dc71d3,2024-01-23_16h53.48.789,bars,2023.2.3,Win32,60.60606061,657b66ea316d21385b68909f,,,,,,,,,,,842.3883,843.3765,,,843.8816,844.1258,,136,136,,,,,,,,,,,,,,,,bars/040.png,bars/mask002.png,,,,,,,,,,,,5,1,,,,,,,6,8,6,10,,,,,,,,,,,843.3765,843.8816,844.1258,846.8762,space,2.7374,,846.8763,4,49,847.8767,847.8768,847.8911,,,,0,21,21,21,1,140,5,,,,,,,,
,,65ae0c9dc54cd53ea9424357,65af53f0ba138c82e9dc71d3,2024-01-23_16h53.48.789,bars,2023.2.3,Win32,60.60606061,657b66ea316d21385b68909f,,,,,,,,,,,847.8914,848.8831,,,849.3768,849.6266,,80,80,,,,,,,,,,,,,,,,bars/011.png,bars/mask001.png,,,,,,,,,,,,4,2,,,,,,,4,6,6,5,,,,,,,,,,,848.8831,849.3767,849.6266,850.9266,space,1.2824,,850.9266,80,5,851.9259,851.9259,851.9377,,,,0,22,22,22,1,160,85,,,,,,,,
,,65ae0c9dc54cd53ea9424357,65af53f0ba138c82e9dc71d3,2024-01-23_16h53.48.789,bars,2023.2.3,Win32,60.60606061,657b66ea316d21385b68909f,,,,,,,,,,,851.938,852.9263,,,853.4266,853.6764,,135,135,,,,,,,,,,,,,,,,bars/040.png,bars/mask008.png,,,,,,,,,,,,2,1,,,,,,,2,8,2,8,,,,,,,,,,,852.9263,853.4265,853.6765,857.443,space,3.7575,,857.443,5,50,858.4433,858.4434,858.4575,,,,0,23,23,23,1,140,5,,,,,,,,
,,65ae0c9dc54cd53ea9424357,65af53f0ba138c82e9dc71d3,2024-01-23_16h53.48.789,bars,2023.2.3,Win32,60.60606061,657b66ea316d21385b68909f,,,,,,,,,,,858.4577,859.4599,,,859.9599,860.21,,83,83,,,,,,,,,,,,,,,,bars/039.png,bars/mask008.png,,,,,,,,,,,,3,2,,,,,,,4,10,4,10,,,,,,,,,,,859.4601,859.9598,860.21,862.9089,space,2.6881,,862.9089,88,22,863.9098,863.9098,863.9251,,,,0,24,24,24,1,175,105,,,,,,,,
,,65ae0c9dc54cd53ea9424357,65af53f0ba138c82e9dc71d3,2024-01-23_16h53.48.789,bars,2023.2.3,Win32,60.60606061,657b66ea316d21385b68909f,,,,,,,,,,,863.9253,864.9265,,,865.4267,865.6766,,28,28,,,,,,,,,,,,,,,,bars/035.png,bars/mask003.png,,,,,,,,,,,,0,2,,,,,,,2,8,3,7,,,,,,,,,,,864.9266,865.4266,865.6766,867.6591,space,1.968,,867.6591,33,32,868.6603,868.6603,868.6706,,,,0,25,25,25,1,175,60,,,,,,,,
,,65ae0c9dc54cd53ea9424357,65af53f0ba138c82e9dc71d3,2024-01-23_16h53.48.789,bars,2023.2.3,Win32,60.60606061,657b66ea316d21385b68909f,,,,,,,,,,,868.6708,869.6598,,,870.1602,870.41,,77,77,,,,,,,,,,,,,,,,bars/026.png,bars/mask000.png,,,,,,,,,,,,7,2,,,,,,,0,10,0,10,,,,,,,,,,,869.6598,870.1602,870.4101,872.7929,space,2.3588,,872.793,42,8,873.782,873.782,873.7907,,,,0,26,26,26,1,35,85,,,,,,,,
,,65ae0c9dc54cd53ea9424357,65af53f0ba138c82e9dc71d3,2024-01-23_16h53.48.789,bars,2023.2.3,Win32,60.60606061,657b66ea316d21385b68909f,,,,,,,,,,,873.7908,874.7931,,,875.2934,875.5433,,140,140,,,,,,,,,,,,,,,,bars/020.png,bars/mask007.png,,,,,,,,,,,,0,1,,,,,,,2,10,2,10,,,,,,,,,,,874.7932,875.2934,875.5433,876.8932,space,1.3342,,876.8933,25,30,877.8927,877.8928,877.9058,,,,0,27,27,27,1,115,170,,,,,,,,
,,65ae0c9dc54cd53ea9424357,65af53f0ba138c82e9dc71d3,2024-01-23_16h53.48.789,bars,2023.2.3,Win32,60.60606061,657b66ea316d21385b68909f,,,,,,,,,,,877.906,878.9091,,,879.4097,879.6599,,105,105,,,,,,,,,,,,,,,,bars/009.png,bars/mask009.png,,,,,,,,,,,,10,2,,,,,,,0,10,1,10,,,,,,,,,,,878.9092,879.4097,879.6601,880.8824,space,1.215,,880.8825,90,0,881.8758,881.8759,881.8849,,,,0,28,28,28,1,15,105,,,,,,,,
,,65ae0c9dc54cd53ea9424357,65af53f0ba138c82e9dc71d3,2024-01-23_16h53.48.789,bars,2023.2.3,Win32,60.60606061,657b66ea316d21385b68909f,,,,,,,,,,,881.885,882.8765,,,883.3764,883.6265,,85,85,,,,,,,,,,,,,,,,bars/026.png,bars/mask002.png,,,,,,,,,,,,8,2,,,,,,,0,8,2,8,,,,,,,,,,,882.8765,883.3763,883.6266,886.5097,space,2.8657,,886.5098,50,0,887.5097,887.5097,887.5218,,,,0,29,29,29,1,35,85,,,,,,,,
,,65ae0c9dc54cd53ea9424357,65af53f0ba138c82e9dc71d3,2024-01-23_16h53.48.789,bars,2023.2.3,Win32,60.60606061,657b66ea316d21385b68909f,,,,,,,,,,,887.5219,888.5096,,,889.0097,889.2596,,41,221,,,,,,,,,,,,,,,,bars/042.png,bars/mask000.png,,,,,,,,,,,,0,2,,,,,,,0,10,0,10,,,,,,,,,,,888.5097,889.0096,889.2597,892.4937,space,3.2196,,892.4938,76,34,893.4934,893.4935,893.5073,,,,0,30,30,30,1,145,75,,,,,,,,
,,65ae0c9dc54cd53ea9424357,65af53f0ba138c82e9dc71d3,2024-01-23_16h53.48.789,bars,2023.2.3,Win32,60.60606061,657b66ea316d21385b68909f,,,,,,,,,,,893.5075,894.5095,,,895.0101,895.2597,,63,63,,,,,,,,,,,,,,,,bars/029.png,bars/mask006.png,,,,,,,,,,,,4,2,,,,,,,0,10,0,9,,,,,,,,,,,894.5096,895.01,895.2597,899.1929,space,3.9249,,899.193,27,18,900.1936,900.1936,900.2049,,,,0,31,31,31,1,90,45,,,,,,,,
,,65ae0c9dc54cd53ea9424357,65af53f0ba138c82e9dc71d3,2024-01-23_16h53.48.789,bars,2023.2.3,Win32,60.60606061,657b66ea316d21385b68909f,,,,,,,,,,,900.2051,901.1934,,,901.6927,901.9432,,25,205,,,,,,,,,,,,,,,,bars/031.png,bars/mask001.png,,,,,,,,,,,,5,2,,,,,,,0,8,0,8,,,,,,,,,,,901.1935,901.6927,901.9432,905.0598,space,3.1013,,905.0599,85,10,906.0599,906.06,906.0726,,,,0,32,32,32,1,120,35,,,,,,,,
,,65ae0c9dc54cd53ea9424357,65af53f0ba138c82e9dc71d3,2024-01-23_16h53.48.789,bars,2023.2.3,Win32,60.60606061,657b66ea316d21385b68909f,,,,,,,,,,,906.0727,907.0762,,,907.5763,907.8265,,54,234,,,,,,,,,,,,,,,,bars/030.png,bars/mask004.png,,,,,,,,,,,,4,2,,,,,,,0,6,0,6,,,,,,,,,,,907.0762,907.5762,907.8266,913.0433,space,5.1862,,913.0434,86,11,914.0434,914.0435,914.0564,,,,0,33,33,33,1,140,65,,,,,,,,
,,65ae0c9dc54cd53ea9424357,65af53f0ba138c82e9dc71d3,2024-01-23_16h53.48.789,bars,2023.2.3,Win32,60.60606061,657b66ea316d21385b68909f,,,,,,,,,,,914.0565,915.0596,,,915.5599,915.8095,,57,57,,,,,,,,,,,,,,,,bars/047.png,bars/mask002.png,,,,,,,,,,,,2,2,,,,,,,0,4,0,3,,,,,,,,,,,915.0597,915.5598,915.8096,916.8254,space,1.0036,,916.8255,42,13,917.8261,917.8261,917.8337,,,,0,34,34,34,1,15,70,,,,,,,,
,,65ae0c9dc54cd53ea9424357,65af53f0ba138c82e9dc71d3,2024-01-23_16h53.48.789,bars,2023.2.3,Win32,60.60606061,657b66ea316d21385b68909f,,,,,,,,,,,917.8337,918.8261,,,919.3257,919.576,,17,197,,,,,,,,,,,,,,,,bars/007.png,bars/mask002.png,,,,,,,,,,,,1,1,,,,,,,2,2,4,1,,,,,,,,,,,918.8261,919.3257,919.576,922.9596,space,3.3758,,922.9597,22,38,923.9592,923.9592,923.9675,,,,0,35,35,35,1,175,55,,,,,,,,
,,65ae0c9dc54cd53ea9424357,65af53f0ba138c82e9dc71d3,2024-01-23_16h53.48.789,bars,2023.2.3,Win32,60.60606061,657b66ea316d21385b68909f,,,,,,,,,,,923.9676,924.9597,,,925.4599,925.7097,,75,75,,,,,,,,,,,,,,,,bars/025.png,bars/mask001.png,,,,,,,,,,,,0,1,,,,,,,0,0,2,0,,,,,,,,,,,924.9598,925.4598,925.7098,929.5257,space,3.8089,,929.5257,30,35,930.5254,930.5255,930.5326,,,,0,36,36,36,1,105,40,,,,,,,,
,,65ae0c9dc54cd53ea9424357,65af53f0ba138c82e9dc71d3,2024-01-23_16h53.48.789,bars,2023.2.3,Win32,60.60606061,657b66ea316d21385b68909f,,,,,,,,,,,930.5328,931.5262,,,932.0264,932.2768,,102,102,,,,,,,,,,,,,,,,bars/026.png,bars/mask000.png,,,,,,,,,,,,0,2,,,,,,,0,2,0,1,,,,,,,,,,,931.5263,932.0263,932.2768,934.4927,space,2.1973,,934.4928,67,17,935.4931,935.4932,935.5028,,,,0,37,37,37,1,35,85,,,,,,,,
,,65ae0c9dc54cd53ea9424357,65af53f0ba138c82e9dc71d3,2024-01-23_16h53.48.789,bars,2023.2.3,Win32,60.60606061,657b66ea316d21385b68909f,,,,,,,,,,,935.503,936.4931,,,936.9932,937.2436,,103,103,,,,,,,,,,,,,,,,bars/041.png,bars/mask009.png,,,,,,,,,,,,1,2,,,,,,,2,4,3,2,,,,,,,,,,,936.4932,936.9931,937.2437,939.8094,space,2.5543,,939.8095,83,18,940.8096,940.8097,940.8218,,,,0,38,38,38,1,20,85,,,,,,,,
,,65ae0c9dc54cd53ea9424357,65af53f0ba138c82e9dc71d3,2024-01-23_16h53.48.789,bars,2023.2.3,Win32,60.60606061,657b66ea316d21385b68909f,,,,,,,,,,,940.8219,941.8268,,,942.3258,942.5767,,88,88,,,,,,,,,,,,,,,,bars/037.png,bars/mask000.png,,,,,,,,,,,,0,2,,,,,,,4,2,3,1,,,,,,,,,,,941.8268,942.3258,942.5767,944.2761,space,1.6843,,944.2762,62,17,945.2759,945.2759,945.2771,,,,0,39,39,39,1,150,105,,,,,,,,
,,65ae0c9dc54cd53ea9424357,65af53f0ba138c82e9dc71d3,2024-01-23_16h53.48.789,bars,2023.2.3,Win32,60.60606061,657b66ea316d21385b68909f,,,,,,,,,,,945.2777,946.2763,,,946.7758,947.0264,,157,157,,,,,,,,,,,,,,,,bars/005.png,bars/mask004.png,,,,,,,,,,,,0,2,,,,,,,6,0,5,0,,,,,,,,,,,946.2763,946.7758,947.0264,949.5427,space,2.5004,,949.5428,33,17,950.5431,950.5432,950.5548,,,,0,40,40,40,1,10,140,,,,,,,,
,,65ae0c9dc54cd53ea9424357,65af53f0ba138c82e9dc71d3,2024-01-23_16h53.48.789,bars,2023.2.3,Win32,60.60606061,657b66ea316d21385b68909f,,,,,,,,,,,950.5549,951.5594,,,952.0587,952.3095,,126,126,,,,,,,,,,,,,,,,bars/040.png,bars/mask009.png,,,,,,,,,,,,5,1,,,,,,,8,2,10,3,,,,,,,,,,,951.5595,952.0586,952.3095,953.9259,space,1.5996,,953.9259,14,59,954.9254,954.9255,954.9298,,,,0,41,41,41,1,140,5,,,,,,,,
,,65ae0c9dc54cd53ea9424357,65af53f0ba138c82e9dc71d3,2024-01-23_16h53.48.789,bars,2023.2.3,Win32,60.60606061,657b66ea316d21385b68909f,,,,,,,,,,,954.9301,955.9254,,,956.4262,956.6755,,105,105,,,,,,,,,,,,,,,,bars/045.png,bars/mask005.png,,,,,,,,,,,,6,1,,,,,,,6,4,7,4,,,,,,,,,,,955.9254,956.4262,956.6755,959.1596,space,2.471,,959.1597,5,85,960.1594,960.1595,960.1717,,,,0,42,42,42,1,100,10,,,,,,,,
,,65ae0c9dc54cd53ea9424357,65af53f0ba138c82e9dc71d3,2024-01-23_16h53.48.789,bars,2023.2.3,Win32,60.60606061,657b66ea316d21385b68909f,,,,,,,,,,,960.1718,961.1593,,,961.6592,961.9094,,105,105,,,,,,,,,,,,,,,,bars/028.png,bars/mask008.png,,,,,,,,,,,,3,2,,,,,,,4,6,4,6,,,,,,,,,,,961.1594,961.6592,961.9095,966.4092,space,4.49,,966.4093,60,15,967.4087,967.4087,967.4177,,,,0,43,43,43,1,45,120,,,,,,,,
,,65ae0c9dc54cd53ea9424357,65af53f0ba138c82e9dc71d3,2024-01-23_16h53.48.789,bars,2023.2.3,Win32,60.60606061,657b66ea316d21385b68909f,,,,,,,,,,,967.4182,968.4091,,,968.9092,969.1595,,14,14,,,,,,,,,,,,,,,,bars/023.png,bars/mask002.png,,,,,,,,,,,,4,1,,,,,,,6,8,5,9,,,,,,,,,,,968.4092,968.9092,969.1596,972.3758,space,3.2077,,972.3759,6,79,973.3759,973.376,973.3888,,,,0,44,44,44,1,20,115,,,,,,,,
,,65ae0c9dc54cd53ea9424357,65af53f0ba138c82e9dc71d3,2024-01-23_16h53.48.789,bars,2023.2.3,Win32,60.60606061,657b66ea316d21385b68909f,,,,,,,,,,,973.389,974.3929,,,974.8925,975.1427,,53,233,,,,,,,,,,,,,,,,bars/032.png,bars/mask006.png,,,,,,,,,,,,0,2,,,,,,,8,10,7,10,,,,,,,,,,,974.393,974.8924,975.1427,980.5264,space,5.3668,,980.5264,72,33,981.5255,981.5255,981.5381,,,,0,45,45,45,1,125,20,,,,,,,,
,,65ae0c9dc54cd53ea9424357,65af53f0ba138c82e9dc71d3,2024-01-23_16h53.48.789,bars,2023.2.3,Win32,60.60606061,657b66ea316d21385b68909f,,,,,,,,,,,981.5383,982.5428,,,983.043,983.2927,,104,104,,,,,,,,,,,,,,,,bars/015.png,bars/mask009.png,,,,,,,,,,,,4,1,,,,,,,6,8,5,9,,,,,,,,,,,982.543,983.0429,983.2928,986.9422,space,3.6369,,986.9423,6,56,987.9429,987.9429,987.9564,,,,0,46,46,46,1,110,160,,,,,,,,
,,65ae0c9dc54cd53ea9424357,65af53f0ba138c82e9dc71d3,2024-01-23_16h53.48.789,bars,2023.2.3,Win32,60.60606061,657b66ea316d21385b68909f,,,,,,,,,,,987.9567,988.9593,,,989.4586,989.7086,,55,55,,,,,,,,,,,,,,,,bars/029.png,bars/mask008.png,,,,,,,,,,,,5,2,,,,,,,4,6,3,7,,,,,,,,,,,988.9594,989.4585,989.7086,993.7749,space,4.0575,,993.775,35,10,994.7748,994.7749,994.7822,,,,0,47,47,47,1,90,45,,,,,,,,
,,65ae0c9dc54cd53ea9424357,65af53f0ba138c82e9dc71d3,2024-01-23_16h53.48.789,bars,2023.2.3,Win32,60.60606061,657b66ea316d21385b68909f,,,,,,,,,,,994.7825,995.7753,,,996.276,996.5257,,103,103,,,,,,,,,,,,,,,,bars/027.png,bars/mask001.png,,,,,,,,,,,,2,1,,,,,,,6,8,3,8,,,,,,,,,,,995.7753,996.2759,996.5259,999.393,space,2.8515,,999.3931,7,53,1000.3923,1000.3923,1000.4012,,,,0,48,48,48,1,110,50,,,,,,,,
,,65ae0c9dc54cd53ea9424357,65af53f0ba138c82e9dc71d3,2024-01-23_16h53.48.789,bars,2023.2.3,Win32,60.60606061,657b66ea316d21385b68909f,,,,,,,,,,,1000.4013,1001.3927,,,1001.8927,1002.1424,,96,96,,,,,,,,,,,,,,,,bars/029.png,bars/mask006.png,,,,,,,,,,,,3,1,,,,,,,4,10,4,10,,,,,,,,,,,1001.3927,1001.8925,1002.1424,1004.2425,space,2.0876,,1004.2426,6,51,1005.2426,1005.2426,1005.2439,,,,0,49,49,49,1,90,45,,,,,,,,
,,65ae0c9dc54cd53ea9424357,65af53f0ba138c82e9dc71d3,2024-01-23_16h53.48.789,bars,2023.2.3,Win32,60.60606061,657b66ea316d21385b68909f,,,,,,,,,,,,,,,,,,,,,,,,,,,,,,,,,,,,,,,,,,,,,,,,,,,,,,,,,,,,,,,,,,,,,,,,,,,,,,,,,,,,,,,,,,,,,1005.2442,1065.2428,0,1,1,4,1,sequence_tables/blk010.csv
,,65ae0c9dc54cd53ea9424357,65af53f0ba138c82e9dc71d3,2024-01-23_16h53.48.789,bars,2023.2.3,Win32,60.60606061,657b66ea316d21385b68909f,,,,,,,,,,,1095.4892,1096.4757,,,1096.9753,1097.2294,,74,74,,,,,,,,,,,,,,,,bars/047.png,bars/mask002.png,,,,,,,,,,,,1,2,,,,,,,5,1,6,1,,,,,,1065.2541,1095.4752,space,30.2035,,1096.4759,1096.9751,1097.2295,1099.3593,space,2.1034,,1099.3595,59,4,1100.3588,1100.3589,1100.3749,,,,0,0,0,0,1,15,70,,,,,,,,
,,65ae0c9dc54cd53ea9424357,65af53f0ba138c82e9dc71d3,2024-01-23_16h53.48.789,bars,2023.2.3,Win32,60.60606061,657b66ea316d21385b68909f,,,,,,,,,,,1100.3753,1101.3756,,,1101.8751,1102.1245,,30,30,,,,,,,,,,,,,,,,bars/025.png,bars/mask002.png,,,,,,,,,,,,0,2,,,,,,,3,0,3,0,,,,,,,,,,,1101.3757,1101.875,1102.1246,1104.5083,space,2.3601,,1104.5084,75,10,1105.5152,1105.5153,1105.5242,,,,0,1,1,1,1,105,40,,,,,,,,
,,65ae0c9dc54cd53ea9424357,65af53f0ba138c82e9dc71d3,2024-01-23_16h53.48.789,bars,2023.2.3,Win32,60.60606061,657b66ea316d21385b68909f,,,,,,,,,,,1105.5242,1106.5254,,,1107.0253,1107.2752,,121,121,,,,,,,,,,,,,,,,bars/012.png,bars/mask007.png,,,,,,,,,,,,0,1,,,,,,,5,0,4,1,,,,,,,,,,,1106.5254,1107.0253,1107.2753,1108.9925,space,1.7105,,1108.9926,31,74,1109.9919,1109.9919,1110.0065,,,,0,2,2,2,1,90,15,,,,,,,,
,,65ae0c9dc54cd53ea9424357,65af53f0ba138c82e9dc71d3,2024-01-23_16h53.48.789,bars,2023.2.3,Win32,60.60606061,657b66ea316d21385b68909f,,,,,,,,,,,1110.0067,1111.0147,,,1111.5086,1111.7584,,101,101,,,,,,,,,,,,,,,,bars/045.png,bars/mask005.png,,,,,,,,,,,,3,1,,,,,,,3,0,3,2,,,,,,,,,,,1111.0148,1111.5086,1111.7585,1112.7079,space,0.9341,,1112.7079,1,89,1113.7083,1113.7085,1113.7098,,,,0,3,3,3,1,100,10,,,,,,,,
,,65ae0c9dc54cd53ea9424357,65af53f0ba138c82e9dc71d3,2024-01-23_16h53.48.789,bars,2023.2.3,Win32,60.60606061,657b66ea316d21385b68909f,,,,,,,,,,,1113.7104,1114.7082,,,1115.2089,1115.4587,,125,125,,,,,,,,,,,,,,,,bars/034.png,bars/mask003.png,,,,,,,,,,,,2,1,,,,,,,1,0,2,1,,,,,,,,,,,1114.7082,1115.2088,1115.4587,1118.1428,space,2.6672,,1118.1429,0,60,1119.142,1119.1421,1119.1515,,,,0,4,4,4,1,125,65,,,,,,,,
,,65ae0c9dc54cd53ea9424357,65af53f0ba138c82e9dc71d3,2024-01-23_16h53.48.789,bars,2023.2.3,Win32,60.60606061,657b66ea316d21385b68909f,,,,,,,,,,,1119.1516,1120.1421,,,1120.642,1120.8919,,54,54,,,,,,,,,,,,,,,,bars/000.png,bars/mask005.png,,,,,,,,,,,,0,1,,,,,,,0,2,0,2,,,,,,,,,,,1120.1422,1120.642,1120.8919,1124.5248,space,3.6255,,1124.5248,14,89,1125.5247,1125.5247,1125.5348,,,,0,5,5,5,1,40,145,,,,,,,,
,,65ae0c9dc54cd53ea9424357,65af53f0ba138c82e9dc71d3,2024-01-23_16h53.48.789,bars,2023.2.3,Win32,60.60606061,657b66ea316d21385b68909f,,,,,,,,,,,1125.5349,1126.5246,,,1127.0256,1127.2757,,136,136,,,,,,,,,,,,,,,,bars/024.png,bars/mask002.png,,,,,,,,,,,,1,1,,,,,,,0,0,2,0,,,,,,,,,,,1126.5246,1127.0255,1127.2758,1131.2763,space,3.9828,,1131.2764,16,34,1132.2755,1132.2755,1132.2855,,,,0,6,6,6,1,120,170,,,,,,,,
,,65ae0c9dc54cd53ea9424357,65af53f0ba138c82e9dc71d3,2024-01-23_16h53.48.789,bars,2023.2.3,Win32,60.60606061,657b66ea316d21385b68909f,,,,,,,,,,,1132.2857,1133.2757,,,1133.7744,1134.0243,,166,166,,,,,,,,,,,,,,,,bars/049.png,bars/mask002.png,,,,,,,,,,,,0,1,,,,,,,0,2,0,3,,,,,,,,,,,1133.2758,1133.7744,1134.0243,1135.1077,space,1.0787,,1135.1077,6,51,1136.1089,1136.109,1136.1106,,,,0,7,7,7,1,160,115,,,,,,,,
,,65ae0c9dc54cd53ea9424357,65af53f0ba138c82e9dc71d3,2024-01-23_16h53.48.789,bars,2023.2.3,Win32,60.60606061,657b66ea316d21385b68909f,,,,,,,,,,,1136.1113,1137.1129,,,1137.6088,1137.8586,,156,-24,,,,,,,,,,,,,,,,bars/017.png,bars/mask003.png,,,,,,,,,,,,1,1,,,,,,,0,0,1,0,,,,,,,,,,,1137.1129,1137.6088,1137.8587,1141.1257,space,3.2372,,1141.1258,11,69,1142.1255,1142.1255,1142.1371,,,,0,8,8,8,1,145,45,,,,,,,,
,,65ae0c9dc54cd53ea9424357,65af53f0ba138c82e9dc71d3,2024-01-23_16h53.48.789,bars,2023.2.3,Win32,60.60606061,657b66ea316d21385b68909f,,,,,,,,,,,1142.1372,1143.1253,,,1143.6248,1143.8751,,123,123,,,,,,,,,,,,,,,,bars/037.png,bars/mask005.png,,,,,,,,,,,,0,2,,,,,,,2,0,4,1,,,,,,,,,,,1143.1254,1143.6247,1143.8752,1146.9083,space,3.0099,,1146.9083,27,18,1147.9087,1147.9088,1147.9239,,,,0,9,9,9,1,150,105,,,,,,,,
,,65ae0c9dc54cd53ea9424357,65af53f0ba138c82e9dc71d3,2024-01-23_16h53.48.789,bars,2023.2.3,Win32,60.60606061,657b66ea316d21385b68909f,,,,,,,,,,,1147.9243,1148.9246,,,1149.4254,1149.6753,,53,53,,,,,,,,,,,,,,,,bars/007.png,bars/mask002.png,,,,,,,,,,,,0,2,,,,,,,4,0,3,0,,,,,,,,,,,1148.9246,1149.4253,1149.6753,1152.491,space,2.8052,,1152.491,58,2,1153.4922,1153.4923,1153.5042,,,,0,10,10,10,1,175,55,,,,,,,,
,,65ae0c9dc54cd53ea9424357,65af53f0ba138c82e9dc71d3,2024-01-23_16h53.48.789,bars,2023.2.3,Win32,60.60606061,657b66ea316d21385b68909f,,,,,,,,,,,1153.5044,1154.4922,,,1154.9921,1155.2417,,103,103,,,,,,,,,,,,,,,,bars/044.png,bars/mask005.png,,,,,,,,,,,,0,1,,,,,,,6,2,6,2,,,,,,,,,,,1154.4923,1154.992,1155.2418,1157.5582,space,2.294,,1157.5582,28,52,1158.5583,1158.5584,1158.5704,,,,0,11,11,11,1,75,155,,,,,,,,
,,65ae0c9dc54cd53ea9424357,65af53f0ba138c82e9dc71d3,2024-01-23_16h53.48.789,bars,2023.2.3,Win32,60.60606061,657b66ea316d21385b68909f,,,,,,,,,,,1158.5706,1159.5585,,,1160.058,1160.3089,,67,67,,,,,,,,,,,,,,,,bars/014.png,bars/mask004.png,,,,,,,,,,,,4,1,,,,,,,8,0,7,0,,,,,,,,,,,1159.5586,1160.058,1160.309,1162.6256,space,2.2996,,1162.6257,13,67,1163.6313,1163.6314,1163.6429,,,,0,12,12,12,1,80,0,,,,,,,,
,,65ae0c9dc54cd53ea9424357,65af53f0ba138c82e9dc71d3,2024-01-23_16h53.48.789,bars,2023.2.3,Win32,60.60606061,657b66ea316d21385b68909f,,,,,,,,,,,1163.643,1164.6417,,,1165.1458,1165.3919,,127,127,,,,,,,,,,,,,,,,bars/027.png,bars/mask001.png,,,,,,,,,,,,4,1,,,,,,,10,0,10,2,,,,,,,,,,,1164.6417,1165.1458,1165.3919,1167.4256,space,2.0162,,1167.4257,17,77,1168.4241,1168.4241,1168.4293,,,,0,13,13,13,1,110,50,,,,,,,,
,,65ae0c9dc54cd53ea9424357,65af53f0ba138c82e9dc71d3,2024-01-23_16h53.48.789,bars,2023.2.3,Win32,60.60606061,657b66ea316d21385b68909f,,,,,,,,,,,1168.4293,1169.4248,,,1169.9247,1170.1751,,157,-23,,,,,,,,,,,,,,,,bars/038.png,bars/mask002.png,,,,,,,,,,,,6,1,,,,,,,8,2,8,3,,,,,,,,,,,1169.4249,1169.9246,1170.1751,1172.9423,space,2.7354,,1172.9424,8,87,1173.9417,1173.9419,1173.9527,,,,0,14,14,14,1,165,70,,,,,,,,
,,65ae0c9dc54cd53ea9424357,65af53f0ba138c82e9dc71d3,2024-01-23_16h53.48.789,bars,2023.2.3,Win32,60.60606061,657b66ea316d21385b68909f,,,,,,,,,,,1173.9529,1174.942,,,1175.4417,1175.6918,,83,83,,,,,,,,,,,,,,,,bars/022.png,bars/mask002.png,,,,,,,,,,,,6,1,,,,,,,10,0,10,0,,,,,,,,,,,1174.942,1175.4416,1175.6918,1176.9921,space,1.2851,,1176.9922,12,63,1177.9915,1177.9915,1178.0023,,,,0,15,15,15,1,95,20,,,,,,,,
,,65ae0c9dc54cd53ea9424357,65af53f0ba138c82e9dc71d3,2024-01-23_16h53.48.789,bars,2023.2.3,Win32,60.60606061,657b66ea316d21385b68909f,,,,,,,,,,,1178.0025,1178.9914,,,1179.4917,1179.7417,,156,-24,,,,,,,,,,,,,,,,bars/034.png,bars/mask000.png,,,,,,,,,,,,0,1,,,,,,,8,0,8,1,,,,,,,,,,,1178.9914,1179.4917,1179.7418,1182.7417,space,2.9752,,1182.7418,31,89,1183.7418,1183.7419,1183.7523,,,,0,16,16,16,1,125,65,,,,,,,,
,,65ae0c9dc54cd53ea9424357,65af53f0ba138c82e9dc71d3,2024-01-23_16h53.48.789,bars,2023.2.3,Win32,60.60606061,657b66ea316d21385b68909f,,,,,,,,,,,1183.7525,1184.7407,,,1185.2419,1185.4917,,158,-22,,,,,,,,,,,,,,,,bars/040.png,bars/mask003.png,,,,,,,,,,,,2,1,,,,,,,6,0,6,1,,,,,,,,,,,1184.7407,1185.2418,1185.4917,1188.1089,space,2.6023,,1188.109,18,27,1189.1082,1189.1082,1189.1182,,,,0,17,17,17,1,140,5,,,,,,,,
,,65ae0c9dc54cd53ea9424357,65af53f0ba138c82e9dc71d3,2024-01-23_16h53.48.789,bars,2023.2.3,Win32,60.60606061,657b66ea316d21385b68909f,,,,,,,,,,,1189.1183,1190.1075,,,1190.6081,1190.8583,,170,-10,,,,,,,,,,,,,,,,bars/024.png,bars/mask006.png,,,,,,,,,,,,2,2,,,,,,,8,2,8,2,,,,,,,,,,,1190.1076,1190.6081,1190.8583,1192.6418,space,1.7645,,1192.6418,50,0,1193.6409,1193.6411,1193.6513,,,,0,18,18,18,1,120,170,,,,,,,,
,,65ae0c9dc54cd53ea9424357,65af53f0ba138c82e9dc71d3,2024-01-23_16h53.48.789,bars,2023.2.3,Win32,60.60606061,657b66ea316d21385b68909f,,,,,,,,,,,1193.6516,1194.6416,,,1195.141,1195.3919,,161,-19,,,,,,,,,,,,,,,,bars/033.png,bars/mask002.png,,,,,,,,,,,,4,2,,,,,,,6,4,8,5,,,,,,,,,,,1194.6418,1195.141,1195.392,1197.3418,space,1.9346,,1197.3419,44,6,1198.3418,1198.3419,1198.3546,,,,0,19,19,19,1,25,155,,,,,,,,
,,65ae0c9dc54cd53ea9424357,65af53f0ba138c82e9dc71d3,2024-01-23_16h53.48.789,bars,2023.2.3,Win32,60.60606061,657b66ea316d21385b68909f,,,,,,,,,,,1198.3548,1199.3584,,,1199.8586,1200.1087,,9,9,,,,,,,,,,,,,,,,bars/022.png,bars/mask003.png,,,,,,,,,,,,0,2,,,,,,,8,2,8,0,,,,,,,,,,,1199.3584,1199.8585,1200.1089,1202.8911,space,2.7628,,1202.8912,86,11,1203.8917,1203.8918,1203.902,,,,0,20,20,20,1,95,20,,,,,,,,
,,65ae0c9dc54cd53ea9424357,65af53f0ba138c82e9dc71d3,2024-01-23_16h53.48.789,bars,2023.2.3,Win32,60.60606061,657b66ea316d21385b68909f,,,,,,,,,,,1203.9021,1204.8915,,,1205.3924,1205.6419,,3,3,,,,,,,,,,,,,,,,bars/010.png,bars/mask006.png,,,,,,,,,,,,4,1,,,,,,,10,4,10,2,,,,,,,,,,,1204.8916,1205.3923,1205.642,1209.9076,space,4.2496,,1209.9076,18,52,1210.9083,1210.9084,1210.9219,,,,0,21,21,21,1,165,55,,,,,,,,
,,65ae0c9dc54cd53ea9424357,65af53f0ba138c82e9dc71d3,2024-01-23_16h53.48.789,bars,2023.2.3,Win32,60.60606061,657b66ea316d21385b68909f,,,,,,,,,,,1210.9221,1211.9255,,,1212.4253,1212.6788,,4,184,,,,,,,,,,,,,,,,bars/010.png,bars/mask007.png,,,,,,,,,,,,4,1,,,,,,,10,2,10,2,,,,,,,,,,,1211.9256,1212.4252,1212.6788,1217.0576,space,4.3746,,1217.0576,19,51,1218.0575,1218.0575,1218.0643,,,,0,22,22,22,1,165,55,,,,,,,,
,,65ae0c9dc54cd53ea9424357,65af53f0ba138c82e9dc71d3,2024-01-23_16h53.48.789,bars,2023.2.3,Win32,60.60606061,657b66ea316d21385b68909f,,,,,,,,,,,1218.0644,1219.0584,,,1219.5583,1219.808,,3,3,,,,,,,,,,,,,,,,bars/010.png,bars/mask002.png,,,,,,,,,,,,3,1,,,,,,,10,4,8,4,,,,,,,,,,,1219.0585,1219.5583,1219.8081,1224.3415,space,4.519,,1224.3416,18,52,1225.3416,1225.3417,1225.3529,,,,0,23,23,23,1,165,55,,,,,,,,
,,65ae0c9dc54cd53ea9424357,65af53f0ba138c82e9dc71d3,2024-01-23_16h53.48.789,bars,2023.2.3,Win32,60.60606061,657b66ea316d21385b68909f,,,,,,,,,,,1225.353,1226.3419,,,1226.8415,1227.0795,,164,-16,,,,,,,,,,,,,,,,bars/049.png,bars/mask007.png,,,,,,,,,,,,6,1,,,,,,,8,6,7,6,,,,,,,,,,,1226.342,1226.8415,1227.0796,1229.0418,space,1.9483,,1229.0418,4,49,1230.0418,1230.0418,1230.0538,,,,0,24,24,24,1,160,115,,,,,,,,
,,65ae0c9dc54cd53ea9424357,65af53f0ba138c82e9dc71d3,2024-01-23_16h53.48.789,bars,2023.2.3,Win32,60.60606061,657b66ea316d21385b68909f,,,,,,,,,,,1230.0539,1231.0582,,,1231.5585,1231.8076,,129,129,,,,,,,,,,,,,,,,bars/036.png,bars/mask008.png,,,,,,,,,,,,2,1,,,,,,,6,8,4,8,,,,,,,,,,,1231.0582,1231.5584,1231.8076,1233.3408,space,1.5257,,1233.3408,16,71,1234.3416,1234.3417,1234.3513,,,,0,25,25,25,1,145,20,,,,,,,,
,,65ae0c9dc54cd53ea9424357,65af53f0ba138c82e9dc71d3,2024-01-23_16h53.48.789,bars,2023.2.3,Win32,60.60606061,657b66ea316d21385b68909f,,,,,,,,,,,1234.3515,1235.3417,,,1235.8418,1236.0914,,82,82,,,,,,,,,,,,,,,,bars/014.png,bars/mask008.png,,,,,,,,,,,,7,1,,,,,,,8,10,8,10,,,,,,,,,,,1235.3418,1235.8417,1236.0915,1238.6418,space,2.5347,,1238.6419,2,82,1239.6414,1239.6416,1239.6432,,,,0,26,26,26,1,80,0,,,,,,,,
,,65ae0c9dc54cd53ea9424357,65af53f0ba138c82e9dc71d3,2024-01-23_16h53.48.789,bars,2023.2.3,Win32,60.60606061,657b66ea316d21385b68909f,,,,,,,,,,,1239.6438,1240.6412,,,1241.1417,1241.3919,,108,108,,,,,,,,,,,,,,,,bars/015.png,bars/mask000.png,,,,,,,,,,,,9,1,,,,,,,10,10,10,9,,,,,,,,,,,1240.6412,1241.1417,1241.392,1243.1251,space,1.7162,,1243.1252,2,52,1244.1247,1244.1248,1244.1346,,,,0,27,27,27,1,110,160,,,,,,,,
,,65ae0c9dc54cd53ea9424357,65af53f0ba138c82e9dc71d3,2024-01-23_16h53.48.789,bars,2023.2.3,Win32,60.60606061,657b66ea316d21385b68909f,,,,,,,,,,,1244.1347,1245.1244,,,1245.625,1245.8754,,65,65,,,,,,,,,,,,,,,,bars/019.png,bars/mask009.png,,,,,,,,,,,,3,1,,,,,,,10,10,10,9,,,,,,,,,,,1245.1244,1245.625,1245.8755,1248.2239,space,2.3304,,1248.2239,20,40,1249.2245,1249.2246,1249.236,,,,0,28,28,28,1,45,105,,,,,,,,
,,65ae0c9dc54cd53ea9424357,65af53f0ba138c82e9dc71d3,2024-01-23_16h53.48.789,bars,2023.2.3,Win32,60.60606061,657b66ea316d21385b68909f,,,,,,,,,,,1249.2361,1250.2248,,,1250.725,1250.9739,,179,179,,,,,,,,,,,,,,,,bars/039.png,bars/mask008.png,,,,,,,,,,,,9,1,,,,,,,10,10,10,8,,,,,,,,,,,1250.2249,1250.7249,1250.974,1255.274,space,4.2936,,1255.274,4,74,1256.2742,1256.2743,1256.2809,,,,0,29,29,29,1,175,105,,,,,,,,
,,65ae0c9dc54cd53ea9424357,65af53f0ba138c82e9dc71d3,2024-01-23_16h53.48.789,bars,2023.2.3,Win32,60.60606061,657b66ea316d21385b68909f,,,,,,,,,,,1256.281,1257.2751,,,1257.7743,1258.0241,,97,97,,,,,,,,,,,,,,,,bars/019.png,bars/mask000.png,,,,,,,,,,,,6,2,,,,,,,8,8,9,8,,,,,,,,,,,1257.2752,1257.7743,1258.0242,1261.1907,space,3.1511,,1261.1907,52,8,1262.191,1262.191,1262.2051,,,,0,30,30,30,1,45,105,,,,,,,,
,,65ae0c9dc54cd53ea9424357,65af53f0ba138c82e9dc71d3,2024-01-23_16h53.48.789,bars,2023.2.3,Win32,60.60606061,657b66ea316d21385b68909f,,,,,,,,,,,1262.2054,1263.2078,,,1263.7078,1263.9573,,10,10,,,,,,,,,,,,,,,,bars/035.png,bars/mask006.png,,,,,,,,,,,,4,1,,,,,,,10,6,7,5,,,,,,,,,,,1263.2078,1263.7078,1263.9574,1265.4583,space,1.4868,,1265.4583,15,50,1266.4578,1266.4579,1266.4708,,,,0,31,31,31,1,175,60,,,,,,,,
,,65ae0c9dc54cd53ea9424357,65af53f0ba138c82e9dc71d3,2024-01-23_16h53.48.789,bars,2023.2.3,Win32,60.60606061,657b66ea316d21385b68909f,,,,,,,,,,,1266.471,1267.4744,,,1267.9743,1268.2244,,164,-16,,,,,,,,,,,,,,,,bars/016.png,bars/mask009.png,,,,,,,,,,,,6,2,,,,,,,10,4,10,6,,,,,,,,,,,1267.4745,1267.9743,1268.2244,1271.2239,space,2.9865,,1271.224,56,1,1272.2245,1272.2247,1272.2374,,,,0,32,32,32,1,40,165,,,,,,,,
,,65ae0c9dc54cd53ea9424357,65af53f0ba138c82e9dc71d3,2024-01-23_16h53.48.789,bars,2023.2.3,Win32,60.60606061,657b66ea316d21385b68909f,,,,,,,,,,,1272.2376,1273.2407,,,1273.7405,1273.9911,,133,-47,,,,,,,,,,,,,,,,bars/004.png,bars/mask000.png,,,,,,,,,,,,6,2,,,,,,,8,6,8,8,,,,,,,,,,,1273.2407,1273.7405,1273.9911,1279.4405,space,5.4389,,1279.4405,72,8,1280.4412,1280.4412,1280.4514,,,,0,33,33,33,1,25,125,,,,,,,,
,,65ae0c9dc54cd53ea9424357,65af53f0ba138c82e9dc71d3,2024-01-23_16h53.48.789,bars,2023.2.3,Win32,60.60606061,657b66ea316d21385b68909f,,,,,,,,,,,1280.4516,1281.4414,,,1281.9406,1282.1912,,17,17,,,,,,,,,,,,,,,,bars/010.png,bars/mask008.png,,,,,,,,,,,,0,1,,,,,,,10,4,9,3,,,,,,,,,,,1281.4415,1281.9406,1282.1913,1285.0247,space,2.8184,,1285.0247,32,38,1286.0248,1286.0249,1286.0387,,,,0,34,34,34,1,165,55,,,,,,,,
,,65ae0c9dc54cd53ea9424357,65af53f0ba138c82e9dc71d3,2024-01-23_16h53.48.789,bars,2023.2.3,Win32,60.60606061,657b66ea316d21385b68909f,,,,,,,,,,,1286.0389,1287.0416,,,1287.5415,1287.7904,,115,115,,,,,,,,,,,,,,,,bars/005.png,bars/mask001.png,,,,,,,,,,,,0,2,,,,,,,10,2,10,3,,,,,,,,,,,1287.0417,1287.5414,1287.7905,1289.3914,space,1.588,,1289.3915,75,25,1290.3911,1290.3912,1290.4087,,,,0,35,35,35,1,10,140,,,,,,,,
,,65ae0c9dc54cd53ea9424357,65af53f0ba138c82e9dc71d3,2024-01-23_16h53.48.789,bars,2023.2.3,Win32,60.60606061,657b66ea316d21385b68909f,,,,,,,,,,,1290.409,1291.4077,,,1291.908,1292.1585,,169,-11,,,,,,,,,,,,,,,,bars/038.png,bars/mask004.png,,,,,,,,,,,,9,1,,,,,,,10,0,10,1,,,,,,,,,,,1291.4079,1291.908,1292.1585,1293.8746,space,1.7007,,1293.8748,4,81,1294.8746,1294.8746,1294.8816,,,,0,36,36,36,1,165,70,,,,,,,,
,,65ae0c9dc54cd53ea9424357,65af53f0ba138c82e9dc71d3,2024-01-23_16h53.48.789,bars,2023.2.3,Win32,60.60606061,657b66ea316d21385b68909f,,,,,,,,,,,1294.8819,1295.8744,,,1296.3748,1296.6243,,102,102,,,,,,,,,,,,,,,,bars/012.png,bars/mask000.png,,,,,,,,,,,,6,1,,,,,,,10,2,10,3,,,,,,,,,,,1295.8744,1296.3746,1296.6244,1298.0575,space,1.4146,,1298.0577,12,87,1299.0577,1299.0577,1299.0594,,,,0,37,37,37,1,90,15,,,,,,,,
,,65ae0c9dc54cd53ea9424357,65af53f0ba138c82e9dc71d3,2024-01-23_16h53.48.789,bars,2023.2.3,Win32,60.60606061,657b66ea316d21385b68909f,,,,,,,,,,,1299.0599,1300.0587,,,1300.5575,1300.8077,,136,136,,,,,,,,,,,,,,,,bars/017.png,bars/mask005.png,,,,,,,,,,,,6,1,,,,,,,8,4,9,5,,,,,,,,,,,1300.0587,1300.5574,1300.8077,1303.3747,space,2.5515,,1303.3748,9,89,1304.3748,1304.3749,1304.386,,,,0,38,38,38,1,145,45,,,,,,,,
,,65ae0c9dc54cd53ea9424357,65af53f0ba138c82e9dc71d3,2024-01-23_16h53.48.789,bars,2023.2.3,Win32,60.60606061,657b66ea316d21385b68909f,,,,,,,,,,,1304.3862,1305.3741,,,1305.8741,1306.1317,,47,47,,,,,,,,,,,,,,,,bars/026.png,bars/mask005.png,,,,,,,,,,,,6,1,,,,,,,10,6,10,6,,,,,,,,,,,1305.3741,1305.8741,1306.1318,1307.7243,space,1.5733,,1307.7243,12,38,1308.7245,1308.7246,1308.7263,,,,0,39,39,39,1,35,85,,,,,,,,
,,65ae0c9dc54cd53ea9424357,65af53f0ba138c82e9dc71d3,2024-01-23_16h53.48.789,bars,2023.2.3,Win32,60.60606061,657b66ea316d21385b68909f,,,,,,,,,,,1308.7269,1309.7244,,,1310.2248,1310.4749,,95,95,,,,,,,,,,,,,,,,bars/045.png,bars/mask000.png,,,,,,,,,,,,8,1,,,,,,,10,8,10,8,,,,,,,,,,,1309.7244,1310.2248,1310.4749,1314.191,space,3.7005,,1314.1911,5,85,1315.1907,1315.1908,1315.1969,,,,0,40,40,40,1,100,10,,,,,,,,
,,65ae0c9dc54cd53ea9424357,65af53f0ba138c82e9dc71d3,2024-01-23_16h53.48.789,bars,2023.2.3,Win32,60.60606061,657b66ea316d21385b68909f,,,,,,,,,,,1315.197,1316.1914,,,1316.6909,1316.941,,80,80,,,,,,,,,,,,,,,,bars/014.png,bars/mask004.png,,,,,,,,,,,,8,1,,,,,,,8,10,8,10,,,,,,,,,,,1316.1914,1316.6908,1316.941,1319.5406,space,2.5896,,1319.5406,0,80,1320.541,1320.541,1320.55,,,,0,41,41,41,1,80,0,,,,,,,,
,,65ae0c9dc54cd53ea9424357,65af53f0ba138c82e9dc71d3,2024-01-23_16h53.48.789,bars,2023.2.3,Win32,60.60606061,657b66ea316d21385b68909f,,,,,,,,,,,1320.5502,1321.5409,,,1322.0405,1322.2909,,60,60,,,,,,,,,,,,,,,,bars/004.png,bars/mask003.png,,,,,,,,,,,,0,1,,,,,,,10,8,9,7,,,,,,,,,,,1321.541,1322.0405,1322.291,1324.9744,space,2.6678,,1324.9744,35,65,1325.9743,1325.9744,1325.9857,,,,0,42,42,42,1,25,125,,,,,,,,
,,65ae0c9dc54cd53ea9424357,65af53f0ba138c82e9dc71d3,2024-01-23_16h53.48.789,bars,2023.2.3,Win32,60.60606061,657b66ea316d21385b68909f,,,,,,,,,,,1325.9859,1326.9743,,,1327.4736,1327.7244,,162,162,,,,,,,,,,,,,,,,bars/024.png,bars/mask002.png,,,,,,,,,,,,7,2,,,,,,,8,10,9,10,,,,,,,,,,,1326.9744,1327.4736,1327.7245,1330.6069,space,2.8641,,1330.6069,42,8,1331.608,1331.608,1331.6215,,,,0,43,43,43,1,120,170,,,,,,,,
,,65ae0c9dc54cd53ea9424357,65af53f0ba138c82e9dc71d3,2024-01-23_16h53.48.789,bars,2023.2.3,Win32,60.60606061,657b66ea316d21385b68909f,,,,,,,,,,,1331.6217,1332.6244,,,1333.1248,1333.3744,,68,68,,,,,,,,,,,,,,,,bars/034.png,bars/mask001.png,,,,,,,,,,,,5,2,,,,,,,6,8,6,5,,,,,,,,,,,1332.6245,1333.1248,1333.3744,1336.2577,space,2.8674,,1336.2578,57,3,1337.2573,1337.2575,1337.2628,,,,0,44,44,44,1,125,65,,,,,,,,
,,65ae0c9dc54cd53ea9424357,65af53f0ba138c82e9dc71d3,2024-01-23_16h53.48.789,bars,2023.2.3,Win32,60.60606061,657b66ea316d21385b68909f,,,,,,,,,,,1337.2628,1338.2569,,,1338.7576,1339.0076,,98,98,,,,,,,,,,,,,,,,bars/041.png,bars/mask002.png,,,,,,,,,,,,6,2,,,,,,,4,10,3,10,,,,,,,,,,,1338.2569,1338.7576,1339.0077,1343.657,space,4.6315,,1343.6571,78,13,1344.6574,1344.6574,1344.6693,,,,0,45,45,45,1,20,85,,,,,,,,
,,65ae0c9dc54cd53ea9424357,65af53f0ba138c82e9dc71d3,2024-01-23_16h53.48.789,bars,2023.2.3,Win32,60.60606061,657b66ea316d21385b68909f,,,,,,,,,,,1344.6695,1345.6576,,,1346.1576,1346.4078,,79,79,,,,,,,,,,,,,,,,bars/002.png,bars/mask009.png,,,,,,,,,,,,8,2,,,,,,,6,10,6,10,,,,,,,,,,,1345.6577,1346.1576,1346.4079,1348.8742,space,2.4496,,1348.8744,51,6,1349.8742,1349.8742,1349.8866,,,,0,46,46,46,1,130,85,,,,,,,,
,,65ae0c9dc54cd53ea9424357,65af53f0ba138c82e9dc71d3,2024-01-23_16h53.48.789,bars,2023.2.3,Win32,60.60606061,657b66ea316d21385b68909f,,,,,,,,,,,1349.8867,1350.8905,,,1351.3909,1351.6404,,164,-16,,,,,,,,,,,,,,,,bars/015.png,bars/mask002.png,,,,,,,,,,,,7,2,,,,,,,8,8,7,8,,,,,,,,,,,1350.8906,1351.3908,1351.6405,1353.5573,space,1.9055,,1353.5573,54,4,1354.5575,1354.5575,1354.5697,,,,0,47,47,47,1,110,160,,,,,,,,
,,65ae0c9dc54cd53ea9424357,65af53f0ba138c82e9dc71d3,2024-01-23_16h53.48.789,bars,2023.2.3,Win32,60.60606061,657b66ea316d21385b68909f,,,,,,,,,,,1354.5698,1355.5573,,,1356.0574,1356.3071,,26,26,,,,,,,,,,,,,,,,bars/022.png,bars/mask000.png,,,,,,,,,,,,5,2,,,,,,,6,6,8,6,,,,,,,,,,,1355.5574,1356.0573,1356.3071,1357.691,space,1.3699,,1357.6911,69,6,1358.6905,1358.6905,1358.6916,,,,0,48,48,48,1,95,20,,,,,,,,
,,65ae0c9dc54cd53ea9424357,65af53f0ba138c82e9dc71d3,2024-01-23_16h53.48.789,bars,2023.2.3,Win32,60.60606061,657b66ea316d21385b68909f,,,,,,,,,,,1358.6919,1359.6907,,,1360.1909,1360.4409,,89,89,,,,,,,,,,,,,,,,bars/001.png,bars/mask000.png,,,,,,,,,,,,7,2,,,,,,,4,8,5,8,,,,,,,,,,,1359.6908,1360.1908,1360.4409,1362.7079,space,2.2504,,1362.708,41,4,1363.7076,1363.7077,1363.7092,,,,0,49,49,49,1,130,85,,,,,,,,
,,65ae0c9dc54cd53ea9424357,65af53f0ba138c82e9dc71d3,2024-01-23_16h53.48.789,bars,2023.2.3,Win32,60.60606061,657b66ea316d21385b68909f,,,,,,,,,,,,,,,,,,,,,,,,,,,,,,,,,,,,,,,,,,,,,,,,,,,,,,,,,,,,,,,,,,,,,,,,,,,,,,,,,,,,,,,,,,,,,1363.7098,1517.9814,0,2,2,2,1,sequence_tables/blk035.csv
,,65ae0c9dc54cd53ea9424357,65af53f0ba138c82e9dc71d3,2024-01-23_16h53.48.789,bars,2023.2.3,Win32,60.60606061,657b66ea316d21385b68909f,,,,,,,,,,,1518.9707,1519.9732,,,1520.4787,1520.7235,,116,116,,,,,,,,,,,,,,,,bars/028.png,bars/mask003.png,,,,,,,,,,,,7,2,,,,,,,2,7,4,8,,,,,,1517.9908,1518.9636,space,0.9603,,1519.9733,1520.4786,1520.7237,1525.5231,space,4.7843,,1525.5232,71,4,1526.5235,1526.5236,1526.5352,,,,0,0,0,0,1,45,120,,,,,,,,
,,65ae0c9dc54cd53ea9424357,65af53f0ba138c82e9dc71d3,2024-01-23_16h53.48.789,bars,2023.2.3,Win32,60.60606061,657b66ea316d21385b68909f,,,,,,,,,,,1526.5354,1527.5241,,,1528.0232,1528.2736,,150,150,,,,,,,,,,,,,,,,bars/044.png,bars/mask000.png,,,,,,,,,,,,4,2,,,,,,,4,5,3,5,,,,,,,,,,,1527.5242,1528.0231,1528.2738,1529.0072,space,0.7181,,1529.0073,75,5,1530.0063,1530.0064,1530.0078,,,,0,1,1,1,1,75,155,,,,,,,,
,,65ae0c9dc54cd53ea9424357,65af53f0ba138c82e9dc71d3,2024-01-23_16h53.48.789,bars,2023.2.3,Win32,60.60606061,657b66ea316d21385b68909f,,,,,,,,,,,1530.0083,1531.0065,,,1531.5059,1531.7565,,164,-16,,,,,,,,,,,,,,,,bars/020.png,bars/mask003.png,,,,,,,,,,,,6,2,,,,,,,6,7,7,8,,,,,,,,,,,1531.0065,1531.5058,1531.7566,1534.2905,space,2.5182,,1534.2906,49,6,1535.2897,1535.2897,1535.3001,,,,0,2,2,2,1,115,170,,,,,,,,
,,65ae0c9dc54cd53ea9424357,65af53f0ba138c82e9dc71d3,2024-01-23_16h53.48.789,bars,2023.2.3,Win32,60.60606061,657b66ea316d21385b68909f,,,,,,,,,,,1535.3003,1536.2901,,,1536.7895,1537.0401,,72,72,,,,,,,,,,,,,,,,bars/026.png,bars/mask002.png,,,,,,,,,,,,3,2,,,,,,,8,5,7,5,,,,,,,,,,,1536.2901,1536.7894,1537.0401,1539.6406,space,2.5849,,1539.6407,37,13,1540.64,1540.6401,1540.6531,,,,0,3,3,3,1,35,85,,,,,,,,
,,65ae0c9dc54cd53ea9424357,65af53f0ba138c82e9dc71d3,2024-01-23_16h53.48.789,bars,2023.2.3,Win32,60.60606061,657b66ea316d21385b68909f,,,,,,,,,,,1540.6533,1541.6564,,,1542.1564,1542.4067,,92,92,,,,,,,,,,,,,,,,bars/002.png,bars/mask009.png,,,,,,,,,,,,2,2,,,,,,,6,3,6,2,,,,,,,,,,,1541.6565,1542.1564,1542.4067,1545.2899,space,2.8765,,1545.29,38,7,1546.2901,1546.2903,1546.3017,,,,0,4,4,4,1,130,85,,,,,,,,
,,65ae0c9dc54cd53ea9424357,65af53f0ba138c82e9dc71d3,2024-01-23_16h53.48.789,bars,2023.2.3,Win32,60.60606061,657b66ea316d21385b68909f,,,,,,,,,,,1546.3018,1547.2897,,,1547.7895,1548.0399,,164,-16,,,,,,,,,,,,,,,,bars/036.png,bars/mask009.png,,,,,,,,,,,,1,1,,,,,,,4,5,4,6,,,,,,,,,,,1547.2898,1547.7895,1548.0399,1550.0734,space,2.0178,,1550.0735,19,36,1551.0734,1551.0734,1551.0832,,,,0,5,5,5,1,145,20,,,,,,,,
,,65ae0c9dc54cd53ea9424357,65af53f0ba138c82e9dc71d3,2024-01-23_16h53.48.789,bars,2023.2.3,Win32,60.60606061,657b66ea316d21385b68909f,,,,,,,,,,,1551.0834,1552.0732,,,1552.5733,1552.8236,,76,76,,,,,,,,,,,,,,,,bars/013.png,bars/mask007.png,,,,,,,,,,,,3,1,,,,,,,2,3,3,3,,,,,,,,,,,1552.0733,1552.5732,1552.8237,1555.9062,space,3.0747,,1555.9063,1,66,1556.9064,1556.9065,1556.9167,,,,0,6,6,6,1,75,10,,,,,,,,
,,65ae0c9dc54cd53ea9424357,65af53f0ba138c82e9dc71d3,2024-01-23_16h53.48.789,bars,2023.2.3,Win32,60.60606061,657b66ea316d21385b68909f,,,,,,,,,,,1556.9169,1557.9057,,,1558.4065,1558.6563,,71,71,,,,,,,,,,,,,,,,bars/014.png,bars/mask002.png,,,,,,,,,,,,4,1,,,,,,,4,1,6,2,,,,,,,,,,,1557.9057,1558.4064,1558.6563,1560.2233,space,1.5519,,1560.2233,9,71,1561.2225,1561.2226,1561.2234,,,,0,7,7,7,1,80,0,,,,,,,,
,,65ae0c9dc54cd53ea9424357,65af53f0ba138c82e9dc71d3,2024-01-23_16h53.48.789,bars,2023.2.3,Win32,60.60606061,657b66ea316d21385b68909f,,,,,,,,,,,1561.2237,1562.2236,,,1562.7234,1562.9731,,40,40,,,,,,,,,,,,,,,,bars/022.png,bars/mask005.png,,,,,,,,,,,,1,2,,,,,,,6,3,5,4,,,,,,,,,,,1562.2237,1562.7233,1562.9732,1565.006,space,2.014,,1565.006,55,20,1566.0064,1566.0065,1566.0147,,,,0,8,8,8,1,95,20,,,,,,,,
,,65ae0c9dc54cd53ea9424357,65af53f0ba138c82e9dc71d3,2024-01-23_16h53.48.789,bars,2023.2.3,Win32,60.60606061,657b66ea316d21385b68909f,,,,,,,,,,,1566.015,1567.0066,,,1567.5056,1567.7565,,11,11,,,,,,,,,,,,,,,,bars/047.png,bars/mask007.png,,,,,,,,,,,,6,1,,,,,,,8,5,7,5,,,,,,,,,,,1567.0066,1567.5055,1567.7565,1568.8736,space,1.1016,,1568.8737,4,59,1569.873,1569.8731,1569.8808,,,,0,9,9,9,1,15,70,,,,,,,,
,,65ae0c9dc54cd53ea9424357,65af53f0ba138c82e9dc71d3,2024-01-23_16h53.48.789,bars,2023.2.3,Win32,60.60606061,657b66ea316d21385b68909f,,,,,,,,,,,1569.8811,1570.8729,,,1571.3731,1571.6222,,100,100,,,,,,,,,,,,,,,,bars/014.png,bars/mask001.png,,,,,,,,,,,,3,1,,,,,,,10,3,10,4,,,,,,,,,,,1570.873,1571.3731,1571.6222,1575.206,space,3.5735,,1575.2061,20,80,1576.2058,1576.2059,1576.2162,,,,0,10,10,10,1,80,0,,,,,,,,
,,65ae0c9dc54cd53ea9424357,65af53f0ba138c82e9dc71d3,2024-01-23_16h53.48.789,bars,2023.2.3,Win32,60.60606061,657b66ea316d21385b68909f,,,,,,,,,,,1576.2163,1577.2055,,,1577.7069,1577.9558,,136,136,,,,,,,,,,,,,,,,bars/021.png,bars/mask006.png,,,,,,,,,,,,4,1,,,,,,,10,1,10,4,,,,,,,,,,,1577.2055,1577.7068,1577.9559,1579.5234,space,1.5532,,1579.5234,19,66,1580.5221,1580.5221,1580.5292,,,,0,11,11,11,1,155,70,,,,,,,,
,,65ae0c9dc54cd53ea9424357,65af53f0ba138c82e9dc71d3,2024-01-23_16h53.48.789,bars,2023.2.3,Win32,60.60606061,657b66ea316d21385b68909f,,,,,,,,,,,1580.5294,1581.5229,,,1582.0229,1582.2726,,60,60,,,,,,,,,,,,,,,,bars/006.png,bars/mask001.png,,,,,,,,,,,,2,1,,,,,,,10,3,10,3,,,,,,,,,,,1581.523,1582.0229,1582.2726,1583.0394,space,0.7501,,1583.0394,25,40,1584.0396,1584.0397,1584.0414,,,,0,12,12,12,1,35,100,,,,,,,,
,,65ae0c9dc54cd53ea9424357,65af53f0ba138c82e9dc71d3,2024-01-23_16h53.48.789,bars,2023.2.3,Win32,60.60606061,657b66ea316d21385b68909f,,,,,,,,,,,1584.042,1585.04,,,1585.5388,1585.7892,,99,99,,,,,,,,,,,,,,,,bars/025.png,bars/mask001.png,,,,,,,,,,,,5,1,,,,,,,8,5,6,3,,,,,,,,,,,1585.04,1585.5388,1585.7892,1587.5892,space,1.7924,,1587.5893,6,59,1588.5889,1588.5889,1588.5955,,,,0,13,13,13,1,105,40,,,,,,,,
,,65ae0c9dc54cd53ea9424357,65af53f0ba138c82e9dc71d3,2024-01-23_16h53.48.789,bars,2023.2.3,Win32,60.60606061,657b66ea316d21385b68909f,,,,,,,,,,,1588.5956,1589.5897,,,1590.0896,1590.3393,,160,-20,,,,,,,,,,,,,,,,bars/042.png,bars/mask009.png,,,,,,,,,,,,5,1,,,,,,,10,7,10,8,,,,,,,,,,,1589.5898,1590.0895,1590.3394,1593.5893,space,3.2422,,1593.5893,15,85,1594.5898,1594.5899,1594.5987,,,,0,14,14,14,1,145,75,,,,,,,,
,,65ae0c9dc54cd53ea9424357,65af53f0ba138c82e9dc71d3,2024-01-23_16h53.48.789,bars,2023.2.3,Win32,60.60606061,657b66ea316d21385b68909f,,,,,,,,,,,1594.5988,1595.5901,,,1596.0897,1596.3402,,121,121,,,,,,,,,,,,,,,,bars/024.png,bars/mask005.png,,,,,,,,,,,,7,1,,,,,,,8,5,7,4,,,,,,,,,,,1595.5901,1596.0897,1596.3403,1599.2394,space,2.8885,,1599.2395,1,49,1600.2396,1600.2396,1600.2497,,,,0,15,15,15,1,120,170,,,,,,,,
,,65ae0c9dc54cd53ea9424357,65af53f0ba138c82e9dc71d3,2024-01-23_16h53.48.789,bars,2023.2.3,Win32,60.60606061,657b66ea316d21385b68909f,,,,,,,,,,,1600.2498,1601.2394,,,1601.7399,1601.9895,,76,76,,,,,,,,,,,,,,,,bars/013.png,bars/mask008.png,,,,,,,,,,,,5,1,,,,,,,6,3,5,5,,,,,,,,,,,1601.2394,1601.7399,1601.9896,1606.1398,space,4.1339,,1606.1399,1,66,1607.1387,1607.1388,1607.1454,,,,0,16,16,16,1,75,10,,,,,,,,
,,65ae0c9dc54cd53ea9424357,65af53f0ba138c82e9dc71d3,2024-01-23_16h53.48.789,bars,2023.2.3,Win32,60.60606061,657b66ea316d21385b68909f,,,,,,,,,,,1607.1456,1608.1391,,,1608.6397,1608.8898,,109,109,,,,,,,,,,,,,,,,bars/015.png,bars/mask001.png,,,,,,,,,,,,8,1,,,,,,,8,5,8,5,,,,,,,,,,,1608.1392,1608.6397,1608.8899,1611.0059,space,2.1088,,1611.0059,1,51,1612.0066,1612.0066,1612.0087,,,,0,17,17,17,1,110,160,,,,,,,,
,,65ae0c9dc54cd53ea9424357,65af53f0ba138c82e9dc71d3,2024-01-23_16h53.48.789,bars,2023.2.3,Win32,60.60606061,657b66ea316d21385b68909f,,,,,,,,,,,1612.0095,1613.0066,,,1613.5065,1613.7562,,169,-11,,,,,,,,,,,,,,,,bars/042.png,bars/mask006.png,,,,,,,,,,,,1,1,,,,,,,6,3,7,3,,,,,,,,,,,1613.0067,1613.5063,1613.7563,1616.4398,space,2.668,,1616.4398,24,86,1617.4395,1617.4395,1617.4496,,,,0,18,18,18,1,145,75,,,,,,,,
,,65ae0c9dc54cd53ea9424357,65af53f0ba138c82e9dc71d3,2024-01-23_16h53.48.789,bars,2023.2.3,Win32,60.60606061,657b66ea316d21385b68909f,,,,,,,,,,,1617.4497,1618.4395,,,1618.9398,1619.1895,,164,164,,,,,,,,,,,,,,,,bars/016.png,bars/mask009.png,,,,,,,,,,,,1,2,,,,,,,8,1,9,1,,,,,,,,,,,1618.4396,1618.9396,1619.1896,1621.7564,space,2.5507,,1621.7565,56,1,1622.756,1622.7561,1622.771,,,,0,19,19,19,1,40,165,,,,,,,,
,,65ae0c9dc54cd53ea9424357,65af53f0ba138c82e9dc71d3,2024-01-23_16h53.48.789,bars,2023.2.3,Win32,60.60606061,657b66ea316d21385b68909f,,,,,,,,,,,1622.7713,1623.7721,,,1624.273,1624.5228,,112,112,,,,,,,,,,,,,,,,bars/043.png,bars/mask004.png,,,,,,,,,,,,0,2,,,,,,,10,0,10,0,,,,,,,,,,,1623.7721,1624.273,1624.5228,1628.29,space,3.7496,,1628.2901,82,18,1629.2892,1629.2892,1629.2996,,,,0,20,20,20,1,30,130,,,,,,,,
,,65ae0c9dc54cd53ea9424357,65af53f0ba138c82e9dc71d3,2024-01-23_16h53.48.789,bars,2023.2.3,Win32,60.60606061,657b66ea316d21385b68909f,,,,,,,,,,,1629.2997,1630.2896,,,1630.7888,1631.0393,,28,28,,,,,,,,,,,,,,,,bars/043.png,bars/mask002.png,,,,,,,,,,,,6,1,,,,,,,8,0,6,0,,,,,,,,,,,1630.2896,1630.7887,1631.0393,1631.8222,space,0.773,,1631.8223,2,78,1632.8223,1632.8223,1632.8289,,,,0,21,21,21,1,30,130,,,,,,,,
,,65ae0c9dc54cd53ea9424357,65af53f0ba138c82e9dc71d3,2024-01-23_16h53.48.789,bars,2023.2.3,Win32,60.60606061,657b66ea316d21385b68909f,,,,,,,,,,,1632.8293,1633.8227,,,1634.3229,1634.5721,,112,112,,,,,,,,,,,,,,,,bars/045.png,bars/mask004.png,,,,,,,,,,,,4,1,,,,,,,6,0,7,0,,,,,,,,,,,1633.8228,1634.3228,1634.5721,1636.4392,space,1.8569,,1636.4393,12,78,1637.4384,1637.4384,1637.4388,,,,0,22,22,22,1,100,10,,,,,,,,
,,65ae0c9dc54cd53ea9424357,65af53f0ba138c82e9dc71d3,2024-01-23_16h53.48.789,bars,2023.2.3,Win32,60.60606061,657b66ea316d21385b68909f,,,,,,,,,,,1637.4391,1638.4395,,,1638.9393,1639.1895,,147,-33,,,,,,,,,,,,,,,,bars/021.png,bars/mask001.png,,,,,,,,,,,,1,1,,,,,,,4,2,2,1,,,,,,,,,,,1638.4396,1638.9393,1639.1895,1642.7723,space,3.5713,,1642.7723,8,77,1643.7723,1643.7723,1643.7777,,,,0,23,23,23,1,155,70,,,,,,,,
,,65ae0c9dc54cd53ea9424357,65af53f0ba138c82e9dc71d3,2024-01-23_16h53.48.789,bars,2023.2.3,Win32,60.60606061,657b66ea316d21385b68909f,,,,,,,,,,,1643.7778,1644.7723,,,1645.2727,1645.5232,,168,168,,,,,,,,,,,,,,,,bars/018.png,bars/mask008.png,,,,,,,,,,,,0,1,,,,,,,2,4,0,4,,,,,,,,,,,1644.7723,1645.2727,1645.5232,1647.2896,space,1.7564,,1647.2896,18,78,1648.2889,1648.289,1648.2973,,,,0,24,24,24,1,150,90,,,,,,,,
,,65ae0c9dc54cd53ea9424357,65af53f0ba138c82e9dc71d3,2024-01-23_16h53.48.789,bars,2023.2.3,Win32,60.60606061,657b66ea316d21385b68909f,,,,,,,,,,,1648.2974,1649.2894,,,1649.7889,1650.039,,161,161,,,,,,,,,,,,,,,,bars/048.png,bars/mask004.png,,,,,,,,,,,,3,2,,,,,,,0,6,0,6,,,,,,,,,,,1649.2895,1649.7889,1650.039,1653.4059,space,3.359,,1653.4059,69,14,1654.4061,1654.4062,1654.4205,,,,0,25,25,25,1,50,175,,,,,,,,
,,65ae0c9dc54cd53ea9424357,65af53f0ba138c82e9dc71d3,2024-01-23_16h53.48.789,bars,2023.2.3,Win32,60.60606061,657b66ea316d21385b68909f,,,,,,,,,,,1654.4209,1655.4228,,,1655.9223,1656.1726,,176,176,,,,,,,,,,,,,,,,bars/000.png,bars/mask006.png,,,,,,,,,,,,0,2,,,,,,,2,8,3,8,,,,,,,,,,,1655.4229,1655.9223,1656.1726,1659.9221,space,3.7376,,1659.9221,44,31,1660.9224,1660.9224,1660.9314,,,,0,26,26,26,1,40,145,,,,,,,,
,,65ae0c9dc54cd53ea9424357,65af53f0ba138c82e9dc71d3,2024-01-23_16h53.48.789,bars,2023.2.3,Win32,60.60606061,657b66ea316d21385b68909f,,,,,,,,,,,1660.9315,1661.922,,,1662.423,1662.6729,,92,-88,,,,,,,,,,,,,,,,bars/011.png,bars/mask001.png,,,,,,,,,,,,5,2,,,,,,,0,6,0,6,,,,,,,,,,,1661.922,1662.423,1662.673,1666.9222,space,4.2387,,1666.9222,68,7,1667.9217,1667.9217,1667.9266,,,,0,27,27,27,1,160,85,,,,,,,,
,,65ae0c9dc54cd53ea9424357,65af53f0ba138c82e9dc71d3,2024-01-23_16h53.48.789,bars,2023.2.3,Win32,60.60606061,657b66ea316d21385b68909f,,,,,,,,,,,1667.9267,1668.9221,,,1669.4219,1669.6727,,59,59,,,,,,,,,,,,,,,,bars/042.png,bars/mask005.png,,,,,,,,,,,,4,2,,,,,,,0,8,0,8,,,,,,,,,,,1668.9221,1669.4219,1669.6728,1671.2884,space,1.6079,,1671.2884,86,16,1672.2893,1672.2895,1672.3009,,,,0,28,28,28,1,145,75,,,,,,,,
,,65ae0c9dc54cd53ea9424357,65af53f0ba138c82e9dc71d3,2024-01-23_16h53.48.789,bars,2023.2.3,Win32,60.60606061,657b66ea316d21385b68909f,,,,,,,,,,,1672.3011,1673.2896,,,1673.7888,1674.0394,,116,116,,,,,,,,,,,,,,,,bars/018.png,bars/mask008.png,,,,,,,,,,,,1,2,,,,,,,2,6,2,7,,,,,,,,,,,1673.2897,1673.7887,1674.0395,1674.723,space,0.6678,,1674.7231,34,26,1675.722,1675.722,1675.7226,,,,0,29,29,29,1,150,90,,,,,,,,
,,65ae0c9dc54cd53ea9424357,65af53f0ba138c82e9dc71d3,2024-01-23_16h53.48.789,bars,2023.2.3,Win32,60.60606061,657b66ea316d21385b68909f,,,,,,,,,,,1675.7228,1676.7229,,,1677.2231,1677.4721,,20,200,,,,,,,,,,,,,,,,bars/023.png,bars/mask002.png,,,,,,,,,,,,0,1,,,,,,,0,8,0,10,,,,,,,,,,,1676.723,1677.2229,1677.4722,1680.455,space,2.9703,,1680.455,0,85,1681.4553,1681.4553,1681.4635,,,,0,30,30,30,1,20,115,,,,,,,,
,,65ae0c9dc54cd53ea9424357,65af53f0ba138c82e9dc71d3,2024-01-23_16h53.48.789,bars,2023.2.3,Win32,60.60606061,657b66ea316d21385b68909f,,,,,,,,,,,1681.4637,1682.4559,,,1682.9561,1683.2058,,118,118,,,,,,,,,,,,,,,,bars/045.png,bars/mask005.png,,,,,,,,,,,,0,1,,,,,,,0,6,0,6,,,,,,,,,,,1682.456,1682.9561,1683.2058,1685.8221,space,2.6041,,1685.8221,18,72,1686.8221,1686.8221,1686.8294,,,,0,31,31,31,1,100,10,,,,,,,,
,,65ae0c9dc54cd53ea9424357,65af53f0ba138c82e9dc71d3,2024-01-23_16h53.48.789,bars,2023.2.3,Win32,60.60606061,657b66ea316d21385b68909f,,,,,,,,,,,1686.8295,1687.8231,,,1688.3227,1688.5724,,161,-19,,,,,,,,,,,,,,,,bars/033.png,bars/mask008.png,,,,,,,,,,,,6,2,,,,,,,2,8,3,7,,,,,,,,,,,1687.8232,1688.3226,1688.5725,1691.5562,space,2.9692,,1691.5563,44,6,1692.5558,1692.5558,1692.5692,,,,0,32,32,32,1,25,155,,,,,,,,
,,65ae0c9dc54cd53ea9424357,65af53f0ba138c82e9dc71d3,2024-01-23_16h53.48.789,bars,2023.2.3,Win32,60.60606061,657b66ea316d21385b68909f,,,,,,,,,,,1692.5694,1693.5729,,,1694.0718,1694.3217,,44,44,,,,,,,,,,,,,,,,bars/017.png,bars/mask003.png,,,,,,,,,,,,10,2,,,,,,,4,10,2,10,,,,,,,,,,,1693.573,1694.0718,1694.3217,1695.0553,space,0.723,,1695.0553,79,1,1696.0555,1696.0557,1696.0567,,,,0,33,33,33,1,145,45,,,,,,,,
,,65ae0c9dc54cd53ea9424357,65af53f0ba138c82e9dc71d3,2024-01-23_16h53.48.789,bars,2023.2.3,Win32,60.60606061,657b66ea316d21385b68909f,,,,,,,,,,,1696.0572,1697.0549,,,1697.555,1697.805,,177,-3,,,,,,,,,,,,,,,,bars/014.png,bars/mask000.png,,,,,,,,,,,,7,2,,,,,,,6,10,7,8,,,,,,,,,,,1697.0549,1697.555,1697.805,1701.256,space,3.4381,,1701.2561,83,3,1702.2557,1702.2558,1702.2658,,,,0,34,34,34,1,80,0,,,,,,,,
,,65ae0c9dc54cd53ea9424357,65af53f0ba138c82e9dc71d3,2024-01-23_16h53.48.789,bars,2023.2.3,Win32,60.60606061,657b66ea316d21385b68909f,,,,,,,,,,,1702.2659,1703.2557,,,1703.756,1704.005,,86,86,,,,,,,,,,,,,,,,bars/046.png,bars/mask005.png,,,,,,,,,,,,9,2,,,,,,,8,8,9,9,,,,,,,,,,,1703.2558,1703.7559,1704.005,1707.2894,space,3.2695,,1707.2895,69,1,1708.2894,1708.2894,1708.2995,,,,0,35,35,35,1,155,85,,,,,,,,
,,65ae0c9dc54cd53ea9424357,65af53f0ba138c82e9dc71d3,2024-01-23_16h53.48.789,bars,2023.2.3,Win32,60.60606061,657b66ea316d21385b68909f,,,,,,,,,,,1708.2996,1709.2892,,,1709.7885,1710.0383,,62,62,,,,,,,,,,,,,,,,bars/027.png,bars/mask001.png,,,,,,,,,,,,6,2,,,,,,,6,10,7,10,,,,,,,,,,,1709.2892,1709.7885,1710.0384,1710.8047,space,0.7587,,1710.8048,48,12,1711.8056,1711.8057,1711.8067,,,,0,36,36,36,1,110,50,,,,,,,,
,,65ae0c9dc54cd53ea9424357,65af53f0ba138c82e9dc71d3,2024-01-23_16h53.48.789,bars,2023.2.3,Win32,60.60606061,657b66ea316d21385b68909f,,,,,,,,,,,1711.8072,1712.8054,,,1713.3057,1713.5557,,76,76,,,,,,,,,,,,,,,,bars/001.png,bars/mask004.png,,,,,,,,,,,,6,2,,,,,,,8,8,9,8,,,,,,,,,,,1712.8055,1713.3056,1713.5557,1716.6416,space,3.0686,,1716.6417,54,9,1717.6387,1717.6387,1717.6484,,,,0,37,37,37,1,130,85,,,,,,,,
,,65ae0c9dc54cd53ea9424357,65af53f0ba138c82e9dc71d3,2024-01-23_16h53.48.789,bars,2023.2.3,Win32,60.60606061,657b66ea316d21385b68909f,,,,,,,,,,,1717.6486,1718.639,,,1719.1392,1719.389,,101,101,,,,,,,,,,,,,,,,bars/006.png,bars/mask007.png,,,,,,,,,,,,10,2,,,,,,,10,10,10,10,,,,,,,,,,,1718.6392,1719.1391,1719.3891,1722.3054,space,2.9073,,1722.3055,66,1,1723.3054,1723.3055,1723.3164,,,,0,38,38,38,1,35,100,,,,,,,,
,,65ae0c9dc54cd53ea9424357,65af53f0ba138c82e9dc71d3,2024-01-23_16h53.48.789,bars,2023.2.3,Win32,60.60606061,657b66ea316d21385b68909f,,,,,,,,,,,1723.3166,1724.3054,,,1724.8054,1725.0554,,100,100,,,,,,,,,,,,,,,,bars/002.png,bars/mask005.png,,,,,,,,,,,,5,2,,,,,,,10,10,10,10,,,,,,,,,,,1724.3054,1724.8053,1725.0555,1725.7554,space,0.6912,,1725.7554,30,15,1726.7551,1726.7551,1726.7559,,,,0,39,39,39,1,130,85,,,,,,,,
,,65ae0c9dc54cd53ea9424357,65af53f0ba138c82e9dc71d3,2024-01-23_16h53.48.789,bars,2023.2.3,Win32,60.60606061,657b66ea316d21385b68909f,,,,,,,,,,,1726.7561,1727.7555,,,1728.2557,1728.5047,,0,180,,,,,,,,,,,,,,,,bars/020.png,bars/mask000.png,,,,,,,,,,,,5,2,,,,,,,8,8,7,7,,,,,,,,,,,1727.7555,1728.2556,1728.5048,1732.7386,space,4.2282,,1732.7387,65,10,1733.7389,1733.739,1733.7489,,,,0,40,40,40,1,115,170,,,,,,,,
,,65ae0c9dc54cd53ea9424357,65af53f0ba138c82e9dc71d3,2024-01-23_16h53.48.789,bars,2023.2.3,Win32,60.60606061,657b66ea316d21385b68909f,,,,,,,,,,,1733.749,1734.7389,,,1735.238,1735.4887,,115,115,,,,,,,,,,,,,,,,bars/037.png,bars/mask007.png,,,,,,,,,,,,3,2,,,,,,,10,6,10,5,,,,,,,,,,,1734.7389,1735.238,1735.4888,1738.1388,space,2.6316,,1738.1389,35,10,1739.1383,1739.1383,1739.1461,,,,0,41,41,41,1,150,105,,,,,,,,
,,65ae0c9dc54cd53ea9424357,65af53f0ba138c82e9dc71d3,2024-01-23_16h53.48.789,bars,2023.2.3,Win32,60.60606061,657b66ea316d21385b68909f,,,,,,,,,,,1739.1463,1740.1384,,,1740.6382,1740.8891,,118,118,,,,,,,,,,,,,,,,bars/039.png,bars/mask002.png,,,,,,,,,,,,4,2,,,,,,,8,8,7,7,,,,,,,,,,,1740.1385,1740.6382,1740.8892,1744.2891,space,3.3842,,1744.2892,57,13,1745.2887,1745.2887,1745.2966,,,,0,42,42,42,1,175,105,,,,,,,,
,,65ae0c9dc54cd53ea9424357,65af53f0ba138c82e9dc71d3,2024-01-23_16h53.48.789,bars,2023.2.3,Win32,60.60606061,657b66ea316d21385b68909f,,,,,,,,,,,1745.2968,1746.2887,,,1746.7886,1747.0387,,19,199,,,,,,,,,,,,,,,,bars/035.png,bars/mask005.png,,,,,,,,,,,,1,1,,,,,,,6,6,4,5,,,,,,,,,,,1746.2889,1746.7885,1747.0388,1750.9051,space,3.8579,,1750.9051,24,41,1751.9054,1751.9054,1751.915,,,,0,43,43,43,1,175,60,,,,,,,,
,,65ae0c9dc54cd53ea9424357,65af53f0ba138c82e9dc71d3,2024-01-23_16h53.48.789,bars,2023.2.3,Win32,60.60606061,657b66ea316d21385b68909f,,,,,,,,,,,1751.9151,1752.9051,,,1753.4057,1753.6557,,105,105,,,,,,,,,,,,,,,,bars/009.png,bars/mask003.png,,,,,,,,,,,,4,2,,,,,,,8,4,7,4,,,,,,,,,,,1752.9052,1753.4057,1753.6558,1757.5386,space,3.8761,,1757.5386,90,0,1758.5391,1758.5392,1758.554,,,,0,44,44,44,1,15,105,,,,,,,,
,,65ae0c9dc54cd53ea9424357,65af53f0ba138c82e9dc71d3,2024-01-23_16h53.48.789,bars,2023.2.3,Win32,60.60606061,657b66ea316d21385b68909f,,,,,,,,,,,1758.5542,1759.5546,,,1760.0546,1760.3055,,145,145,,,,,,,,,,,,,,,,bars/016.png,bars/mask002.png,,,,,,,,,,,,2,2,,,,,,,10,6,10,6,,,,,,,,,,,1759.5546,1760.0546,1760.3057,1763.738,space,3.4188,,1763.738,75,20,1764.7388,1764.7389,1764.7507,,,,0,45,45,45,1,40,165,,,,,,,,
,,65ae0c9dc54cd53ea9424357,65af53f0ba138c82e9dc71d3,2024-01-23_16h53.48.789,bars,2023.2.3,Win32,60.60606061,657b66ea316d21385b68909f,,,,,,,,,,,1764.7509,1765.7389,,,1766.2384,1766.4894,,0,180,,,,,,,,,,,,,,,,bars/014.png,bars/mask001.png,,,,,,,,,,,,5,2,,,,,,,8,4,7,5,,,,,,,,,,,1765.739,1766.2384,1766.4894,1770.9391,space,4.4365,,1770.9392,80,0,1771.9387,1771.9388,1771.95,,,,0,46,46,46,1,80,0,,,,,,,,
,,65ae0c9dc54cd53ea9424357,65af53f0ba138c82e9dc71d3,2024-01-23_16h53.48.789,bars,2023.2.3,Win32,60.60606061,657b66ea316d21385b68909f,,,,,,,,,,,1771.9502,1772.9382,,,1773.439,1773.6883,,107,107,,,,,,,,,,,,,,,,bars/015.png,bars/mask008.png,,,,,,,,,,,,9,1,,,,,,,10,6,10,5,,,,,,,,,,,1772.9382,1773.4389,1773.6883,1777.8051,space,4.102,,1777.8052,3,53,1778.8046,1778.8046,1778.8148,,,,0,47,47,47,1,110,160,,,,,,,,
,,65ae0c9dc54cd53ea9424357,65af53f0ba138c82e9dc71d3,2024-01-23_16h53.48.789,bars,2023.2.3,Win32,60.60606061,657b66ea316d21385b68909f,,,,,,,,,,,1778.815,1779.8058,,,1780.3061,1780.5553,,100,100,,,,,,,,,,,,,,,,bars/037.png,bars/mask009.png,,,,,,,,,,,,7,2,,,,,,,8,8,7,8,,,,,,,,,,,1779.8059,1780.3061,1780.5553,1784.2878,space,3.7167,,1784.2878,50,5,1785.2892,1785.2893,1785.3041,,,,0,48,48,48,1,150,105,,,,,,,,
,,65ae0c9dc54cd53ea9424357,65af53f0ba138c82e9dc71d3,2024-01-23_16h53.48.789,bars,2023.2.3,Win32,60.60606061,657b66ea316d21385b68909f,,,,,,,,,,,1785.3043,1786.3057,,,1786.8044,1787.0557,,164,164,,,,,,,,,,,,,,,,bars/044.png,bars/mask009.png,,,,,,,,,,,,7,2,,,,,,,6,10,7,10,,,,,,,,,,,1786.3058,1786.8044,1787.0558,1789.489,space,2.4175,,1789.4891,89,9,1790.4878,1790.4878,1790.4929,,,,0,49,49,49,1,75,155,,,,,,,,
,,65ae0c9dc54cd53ea9424357,65af53f0ba138c82e9dc71d3,2024-01-23_16h53.48.789,bars,2023.2.3,Win32,60.60606061,657b66ea316d21385b68909f,,,,,,,,,,,,,,,,,,,,,,,,,,,,,,,,,,,,,,,,,,,,,,,,,,,,,,,,,,,,,,,,,,,,,,,,,,,,,,,,,,,,,,,,,,,,,1790.493,1827.5006,0,3,3,1,1,sequence_tables/blk009.csv
,,65ae0c9dc54cd53ea9424357,65af53f0ba138c82e9dc71d3,2024-01-23_16h53.48.789,bars,2023.2.3,Win32,60.60606061,657b66ea316d21385b68909f,,,,,,,,,,,1829.145,1830.1384,,,1830.6387,1830.8886,,78,78,,,,,,,,,,,,,,,,bars/012.png,bars/mask009.png,,,,,,,,,,,,1,1,,,,,,,3,3,2,3,,,,,,1827.5077,1829.1392,space,1.6254,,1830.1385,1830.6385,1830.8886,1834.34,space,3.4447,,1834.34,12,63,1835.3383,1835.3384,1835.3494,,,,0,0,0,0,1,90,15,,,,,,,,
,,65ae0c9dc54cd53ea9424357,65af53f0ba138c82e9dc71d3,2024-01-23_16h53.48.789,bars,2023.2.3,Win32,60.60606061,657b66ea316d21385b68909f,,,,,,,,,,,1835.3496,1836.3381,,,1836.8385,1837.0884,,147,147,,,,,,,,,,,,,,,,bars/018.png,bars/mask005.png,,,,,,,,,,,,1,1,,,,,,,1,1,1,2,,,,,,,,,,,1836.3382,1836.8385,1837.0885,1838.9386,space,1.8394,,1838.9388,3,57,1839.9383,1839.9384,1839.9489,,,,0,1,1,1,1,150,90,,,,,,,,
,,65ae0c9dc54cd53ea9424357,65af53f0ba138c82e9dc71d3,2024-01-23_16h53.48.789,bars,2023.2.3,Win32,60.60606061,657b66ea316d21385b68909f,,,,,,,,,,,1839.9491,1840.9384,,,1841.4384,1841.6878,,150,150,,,,,,,,,,,,,,,,bars/048.png,bars/mask004.png,,,,,,,,,,,,0,2,,,,,,,3,0,4,0,,,,,,,,,,,1840.9384,1841.4383,1841.6879,1846.5554,space,4.8371,,1846.5555,80,25,1847.5549,1847.5551,1847.5651,,,,0,2,2,2,1,50,175,,,,,,,,
,,65ae0c9dc54cd53ea9424357,65af53f0ba138c82e9dc71d3,2024-01-23_16h53.48.789,bars,2023.2.3,Win32,60.60606061,657b66ea316d21385b68909f,,,,,,,,,,,1847.5652,1848.5551,,,1849.0557,1849.3104,,70,70,,,,,,,,,,,,,,,,bars/014.png,bars/mask009.png,,,,,,,,,,,,0,1,,,,,,,1,2,0,4,,,,,,,,,,,1848.5552,1849.0557,1849.3104,1850.705,space,1.3863,,1850.7051,10,70,1851.7052,1851.7054,1851.7185,,,,0,3,3,3,1,80,0,,,,,,,,
,,65ae0c9dc54cd53ea9424357,65af53f0ba138c82e9dc71d3,2024-01-23_16h53.48.789,bars,2023.2.3,Win32,60.60606061,657b66ea316d21385b68909f,,,,,,,,,,,1851.7186,1852.7216,,,1853.2219,1853.4714,,159,159,,,,,,,,,,,,,,,,bars/015.png,bars/mask002.png,,,,,,,,,,,,4,2,,,,,,,3,4,4,4,,,,,,,,,,,1852.7217,1853.2218,1853.4715,1856.2055,space,2.719,,1856.2055,49,1,1857.2051,1857.2052,1857.2198,,,,0,4,4,4,1,110,160,,,,,,,,
,,65ae0c9dc54cd53ea9424357,65af53f0ba138c82e9dc71d3,2024-01-23_16h53.48.789,bars,2023.2.3,Win32,60.60606061,657b66ea316d21385b68909f,,,,,,,,,,,1857.2202,1858.2221,,,1858.7216,1858.9714,,37,37,,,,,,,,,,,,,,,,bars/025.png,bars/mask006.png,,,,,,,,,,,,5,2,,,,,,,1,6,2,6,,,,,,,,,,,1858.2223,1858.7216,1858.9715,1860.0051,space,1.0189,,1860.0052,68,3,1861.005,1861.005,1861.0065,,,,0,5,5,5,1,105,40,,,,,,,,
,,65ae0c9dc54cd53ea9424357,65af53f0ba138c82e9dc71d3,2024-01-23_16h53.48.789,bars,2023.2.3,Win32,60.60606061,657b66ea316d21385b68909f,,,,,,,,,,,1861.0071,1862.0051,,,1862.5049,1862.7552,,98,98,,,,,,,,,,,,,,,,bars/039.png,bars/mask007.png,,,,,,,,,,,,5,2,,,,,,,0,8,0,6,,,,,,,,,,,1862.0052,1862.5048,1862.7552,1864.3043,space,1.5342,,1864.3043,77,7,1865.305,1865.3051,1865.3067,,,,0,6,6,6,1,175,105,,,,,,,,
,,65ae0c9dc54cd53ea9424357,65af53f0ba138c82e9dc71d3,2024-01-23_16h53.48.789,bars,2023.2.3,Win32,60.60606061,657b66ea316d21385b68909f,,,,,,,,,,,1865.3074,1866.3052,,,1866.8051,1867.0552,,130,130,,,,,,,,,,,,,,,,bars/000.png,bars/mask001.png,,,,,,,,,,,,3,2,,,,,,,0,6,0,6,,,,,,,,,,,1866.3053,1866.805,1867.0553,1870.5883,space,3.5178,,1870.5884,90,15,1871.5885,1871.5886,1871.5991,,,,0,7,7,7,1,40,145,,,,,,,,
,,65ae0c9dc54cd53ea9424357,65af53f0ba138c82e9dc71d3,2024-01-23_16h53.48.789,bars,2023.2.3,Win32,60.60606061,657b66ea316d21385b68909f,,,,,,,,,,,1871.5992,1872.5885,,,1873.0883,1873.3383,,164,164,,,,,,,,,,,,,,,,bars/040.png,bars/mask003.png,,,,,,,,,,,,1,2,,,,,,,2,4,1,4,,,,,,,,,,,1872.5885,1873.0883,1873.3383,1878.0212,space,4.6731,,1878.0213,24,21,1879.0219,1879.022,1879.0322,,,,0,8,8,8,1,140,5,,,,,,,,
,,65ae0c9dc54cd53ea9424357,65af53f0ba138c82e9dc71d3,2024-01-23_16h53.48.789,bars,2023.2.3,Win32,60.60606061,657b66ea316d21385b68909f,,,,,,,,,,,1879.0324,1880.022,,,1880.5209,1880.7705,,86,86,,,,,,,,,,,,,,,,bars/030.png,bars/mask005.png,,,,,,,,,,,,2,2,,,,,,,4,6,3,6,,,,,,,,,,,1880.022,1880.5209,1880.7706,1881.4219,space,0.6378,,1881.422,54,21,1882.4217,1882.4217,1882.4233,,,,0,9,9,9,1,140,65,,,,,,,,
,,65ae0c9dc54cd53ea9424357,65af53f0ba138c82e9dc71d3,2024-01-23_16h53.48.789,bars,2023.2.3,Win32,60.60606061,657b66ea316d21385b68909f,,,,,,,,,,,1882.424,1883.4216,,,1883.9212,1884.172,,85,85,,,,,,,,,,,,,,,,bars/022.png,bars/mask000.png,,,,,,,,,,,,5,1,,,,,,,6,8,7,9,,,,,,,,,,,1883.4217,1883.9211,1884.172,1888.2217,space,4.0334,,1888.2218,10,65,1889.2216,1889.2217,1889.2343,,,,0,10,10,10,1,95,20,,,,,,,,
,,65ae0c9dc54cd53ea9424357,65af53f0ba138c82e9dc71d3,2024-01-23_16h53.48.789,bars,2023.2.3,Win32,60.60606061,657b66ea316d21385b68909f,,,,,,,,,,,1889.2346,1890.2379,,,1890.7379,1890.9883,,150,150,,,,,,,,,,,,,,,,bars/011.png,bars/mask005.png,,,,,,,,,,,,3,1,,,,,,,4,6,4,5,,,,,,,,,,,1890.238,1890.7379,1890.9883,1894.0712,space,3.069,,1894.0712,10,65,1895.0713,1895.0714,1895.0791,,,,0,11,11,11,1,160,85,,,,,,,,
,,65ae0c9dc54cd53ea9424357,65af53f0ba138c82e9dc71d3,2024-01-23_16h53.48.789,bars,2023.2.3,Win32,60.60606061,657b66ea316d21385b68909f,,,,,,,,,,,1895.0792,1896.0716,,,1896.5714,1896.8217,,72,72,,,,,,,,,,,,,,,,bars/029.png,bars/mask001.png,,,,,,,,,,,,1,1,,,,,,,2,8,2,9,,,,,,,,,,,1896.0717,1896.5714,1896.8218,1898.6049,space,1.7696,,1898.6049,18,27,1899.6063,1899.6063,1899.6165,,,,0,12,12,12,1,90,45,,,,,,,,
