init_variables.started,init_variables.stopped,participant,session,date,expName,psychopyVersion,OS,frameRate,study_id,instruction_exp.started,instruction_exp.stopped,key_resp_8.keys,key_resp_8.rt,key_resp_8.duration,instruction_single.started,instruction_single.stopped,key_resp_2.keys,key_resp_2.rt,key_resp_2.duration,interval.started,interval.stopped,cue_single.started,cue_single.stopped,mask.started,mask.stopped,ori_response_single.started,res_ori,res,ori_response_single.stopped,key_resp_single.keys,key_resp_single.rt,key_resp_single.duration,disp_single.started,disp_single.stopped,key_resp.keys,key_resp.rt,key_resp.duration,single.thisRepN,single.thisTrialN,single.thisN,single.thisIndex,single.ran,ori,path,mask_path,instruction_bandit.started,instruction_bandit.stopped,key_resp_6.keys,key_resp_6.rt,key_resp_6.duration,cue_bandit.started,cue_bandit.stopped,bandit_res.keys,bandit_res.rt,bandit_res.duration,outcome_bandit.started,rew,action,outcome_bandit.stopped,bandit.thisRepN,bandit.thisTrialN,bandit.thisN,bandit.thisIndex,bandit.ran,actual_rew1,actual_rew2,rew1,rew2,instruction_task.started,instruction_task.stopped,key_resp_7.keys,key_resp_7.rt,key_resp_7.duration,wait_ready.started,wait_ready.stopped,key_resp_3.keys,key_resp_3.rt,key_resp_3.duration,cue.started,cue.stopped,ori_response.started,ori_response.stopped,key_resp_5.keys,key_resp_5.rt,key_resp_5.duration,outcome.started,diff1,diff2,outcome.stopped,disp_outcome_practice.started,disp_outcome_practice.stopped,key_resp_4.keys,key_resp_4.rt,key_resp_4.duration,trials.thisRepN,trials.thisTrialN,trials.thisN,trials.thisIndex,trials.ran,ori1,ori2,break_blk.started,break_blk.stopped,block.thisRepN,block.thisTrialN,block.thisN,block.thisIndex,block.ran,condition_file
0.0004,0.0005,5f37827296047220405dccd3,65b1a114615e993797c11079,2024-01-24_17h45.59.499,bars,2023.2.3,Win32,60.24096386,657b66ea316d21385b68909f,,,,,,,,,,,,,,,,,,,,,,,,,,,,,,,,,,,,,,,,,,,,,,,,,,,,,,,,,,,,,,,,,,,,,,,,,,,,,,,,,,,,,,,,,,,,,,,,,,,,
,,5f37827296047220405dccd3,65b1a114615e993797c11079,2024-01-24_17h45.59.499,bars,2023.2.3,Win32,60.24096386,657b66ea316d21385b68909f,0.0006,12.6708,y,12.6498,,,,,,,,,,,,,,,,,,,,,,,,,,,,,,,,,,,,,,,,,,,,,,,,,,,,,,,,,,,,,,,,,,,,,,,,,,,,,,,,,,,,,,,,,,,,,,,,
,,5f37827296047220405dccd3,65b1a114615e993797c11079,2024-01-24_17h45.59.499,bars,2023.2.3,Win32,60.24096386,657b66ea316d21385b68909f,,,,,,12.671,20.0531,space,7.3646,,,,,,,,,,,,,,,,,,,,,,,,,,,,,,,,,,,,,,,,,,,,,,,,,,,,,,,,,,,,,,,,,,,,,,,,,,,,,,,,,,,,,,,,,,,
,,5f37827296047220405dccd3,65b1a114615e993797c11079,2024-01-24_17h45.59.499,bars,2023.2.3,Win32,60.24096386,657b66ea316d21385b68909f,,,,,,,,,,,20.0583,21.0525,21.0528,21.5528,21.5532,21.8029,21.8031,132,132,26.1201,space,4.2954,,26.1203,31.3535,space,5.2108,,0,0,0,2,1,145,bars/single002.png,bars/mask003.png,,,,,,,,,,,,,,,,,,,,,,,,,,,,,,,,,,,,,,,,,,,,,,,,,,,,,,,,,,,,,,,,
,,5f37827296047220405dccd3,65b1a114615e993797c11079,2024-01-24_17h45.59.499,bars,2023.2.3,Win32,60.24096386,657b66ea316d21385b68909f,,,,,,,,,,,31.354,32.3528,32.353,32.8522,32.8523,33.1019,33.1019,1,1,40.6689,space,7.5583,,40.6691,55.2519,space,14.5543,,0,1,1,6,1,175,bars/single006.png,bars/mask005.png,,,,,,,,,,,,,,,,,,,,,,,,,,,,,,,,,,,,,,,,,,,,,,,,,,,,,,,,,,,,,,,,
,,5f37827296047220405dccd3,65b1a114615e993797c11079,2024-01-24_17h45.59.499,bars,2023.2.3,Win32,60.24096386,657b66ea316d21385b68909f,,,,,,,,,,,55.2611,56.2513,56.2513,56.7514,56.7514,57.0013,57.0013,89,89,60.4009,space,3.3861,,60.4011,65.418,space,4.9984,,0,2,2,4,1,95,bars/single004.png,bars/mask004.png,,,,,,,,,,,,,,,,,,,,,,,,,,,,,,,,,,,,,,,,,,,,,,,,,,,,,,,,,,,,,,,,
,,5f37827296047220405dccd3,65b1a114615e993797c11079,2024-01-24_17h45.59.499,bars,2023.2.3,Win32,60.24096386,657b66ea316d21385b68909f,,,,,,,,,,,65.4265,66.4174,66.4174,66.9176,66.9176,67.1675,67.1675,143,143,69.9343,space,2.7509,,69.9344,71.801,space,1.8484,,0,3,3,0,1,150,bars/single000.png,bars/mask006.png,,,,,,,,,,,,,,,,,,,,,,,,,,,,,,,,,,,,,,,,,,,,,,,,,,,,,,,,,,,,,,,,
,,5f37827296047220405dccd3,65b1a114615e993797c11079,2024-01-24_17h45.59.499,bars,2023.2.3,Win32,60.24096386,657b66ea316d21385b68909f,,,,,,,,,,,71.8014,72.8006,72.8006,73.3006,73.3006,73.5505,73.5505,28,208,78.9175,space,5.3537,,78.9176,85.7505,space,6.8067,,0,4,4,9,1,20,bars/single009.png,bars/mask006.png,,,,,,,,,,,,,,,,,,,,,,,,,,,,,,,,,,,,,,,,,,,,,,,,,,,,,,,,,,,,,,,,
,,5f37827296047220405dccd3,65b1a114615e993797c11079,2024-01-24_17h45.59.499,bars,2023.2.3,Win32,60.24096386,657b66ea316d21385b68909f,,,,,,,,,,,85.76,86.7499,86.7499,87.2498,87.2499,87.4997,87.4998,53,53,89.2505,space,1.7338,,89.2507,92.1832,space,2.9261,,0,5,5,5,1,55,bars/single005.png,bars/mask008.png,,,,,,,,,,,,,,,,,,,,,,,,,,,,,,,,,,,,,,,,,,,,,,,,,,,,,,,,,,,,,,,,
,,5f37827296047220405dccd3,65b1a114615e993797c11079,2024-01-24_17h45.59.499,bars,2023.2.3,Win32,60.24096386,657b66ea316d21385b68909f,,,,,,,,,,,92.1918,93.1823,93.1823,93.6831,93.6831,93.9325,93.9326,47,47,95.7829,space,1.8443,,95.783,97.9329,space,2.1323,,0,6,6,7,1,45,bars/single007.png,bars/mask009.png,,,,,,,,,,,,,,,,,,,,,,,,,,,,,,,,,,,,,,,,,,,,,,,,,,,,,,,,,,,,,,,,
,,5f37827296047220405dccd3,65b1a114615e993797c11079,2024-01-24_17h45.59.499,bars,2023.2.3,Win32,60.24096386,657b66ea316d21385b68909f,,,,,,,,,,,97.9333,98.9324,98.9324,99.4328,99.4328,99.6827,99.6829,11,11,102.8994,space,3.1999,,102.8995,104.0822,space,1.1716,,0,7,7,3,1,20,bars/single003.png,bars/mask005.png,,,,,,,,,,,,,,,,,,,,,,,,,,,,,,,,,,,,,,,,,,,,,,,,,,,,,,,,,,,,,,,,
,,5f37827296047220405dccd3,65b1a114615e993797c11079,2024-01-24_17h45.59.499,bars,2023.2.3,Win32,60.24096386,657b66ea316d21385b68909f,,,,,,,,,,,104.083,105.0826,105.0826,105.5824,105.5824,105.8326,105.8326,15,195,108.0661,space,2.2171,,108.0661,108.9826,space,0.9023,,0,8,8,1,1,20,bars/single001.png,bars/mask006.png,,,,,,,,,,,,,,,,,,,,,,,,,,,,,,,,,,,,,,,,,,,,,,,,,,,,,,,,,,,,,,,,
,,5f37827296047220405dccd3,65b1a114615e993797c11079,2024-01-24_17h45.59.499,bars,2023.2.3,Win32,60.24096386,657b66ea316d21385b68909f,,,,,,,,,,,108.9831,109.9818,109.9818,110.4819,110.482,110.7323,110.7323,135,135,113.1655,space,2.4231,,113.1658,115.2491,space,2.0637,,0,9,9,8,1,160,bars/single008.png,bars/mask004.png,,,,,,,,,,,,,,,,,,,,,,,,,,,,,,,,,,,,,,,,,,,,,,,,,,,,,,,,,,,,,,,,
,,5f37827296047220405dccd3,65b1a114615e993797c11079,2024-01-24_17h45.59.499,bars,2023.2.3,Win32,60.24096386,657b66ea316d21385b68909f,,,,,,,,,,,,,,,,,,,,,,,,,,,,,,,,,,,,,115.2501,123.9658,space,8.7037,,,,,,,,,,,,,,,,,,,,,,,,,,,,,,,,,,,,,,,,,,,,,,,,,,,,,,,,,,,,
,,5f37827296047220405dccd3,65b1a114615e993797c11079,2024-01-24_17h45.59.499,bars,2023.2.3,Win32,60.24096386,657b66ea316d21385b68909f,,,,,,,,,,,,,,,,,,,,,,,,,,,,,,,,,,,,,,,,,,123.9781,126.7819,right,2.7824,,126.7823,2,2,127.7812,0,0,0,0,1,9,1,9,2,,,,,,,,,,,,,,,,,,,,,,,,,,,,,,,,,,,,,,,,,
,,5f37827296047220405dccd3,65b1a114615e993797c11079,2024-01-24_17h45.59.499,bars,2023.2.3,Win32,60.24096386,657b66ea316d21385b68909f,,,,,,,,,,,,,,,,,,,,,,,,,,,,,,,,,,,,,,,,,,127.7819,128.8817,left,1.0819,,128.8817,10,1,129.8809,0,1,1,1,1,10,0,10,1,,,,,,,,,,,,,,,,,,,,,,,,,,,,,,,,,,,,,,,,,
,,5f37827296047220405dccd3,65b1a114615e993797c11079,2024-01-24_17h45.59.499,bars,2023.2.3,Win32,60.24096386,657b66ea316d21385b68909f,,,,,,,,,,,,,,,,,,,,,,,,,,,,,,,,,,,,,,,,,,129.8814,131.1645,left,1.2658,,131.1647,10,1,132.1639,0,2,2,2,1,10,2,10,2,,,,,,,,,,,,,,,,,,,,,,,,,,,,,,,,,,,,,,,,,
,,5f37827296047220405dccd3,65b1a114615e993797c11079,2024-01-24_17h45.59.499,bars,2023.2.3,Win32,60.24096386,657b66ea316d21385b68909f,,,,,,,,,,,,,,,,,,,,,,,,,,,,,,,,,,,,,,,,,,132.1729,133.1982,right,1.0102,,133.1982,3,2,134.1977,0,3,3,3,1,8,4,7,3,,,,,,,,,,,,,,,,,,,,,,,,,,,,,,,,,,,,,,,,,
,,5f37827296047220405dccd3,65b1a114615e993797c11079,2024-01-24_17h45.59.499,bars,2023.2.3,Win32,60.24096386,657b66ea316d21385b68909f,,,,,,,,,,,,,,,,,,,,,,,,,,,,,,,,,,,,,,,,,,134.1984,134.5143,left,0.3037,,134.5144,5,1,135.514,0,4,4,4,1,6,2,5,1,,,,,,,,,,,,,,,,,,,,,,,,,,,,,,,,,,,,,,,,,
,,5f37827296047220405dccd3,65b1a114615e993797c11079,2024-01-24_17h45.59.499,bars,2023.2.3,Win32,60.24096386,657b66ea316d21385b68909f,,,,,,,,,,,,,,,,,,,,,,,,,,,,,,,,,,,,,,,,,,135.5146,136.198,left,0.6673,,136.1981,4,1,137.1976,0,5,5,5,1,4,4,4,4,,,,,,,,,,,,,,,,,,,,,,,,,,,,,,,,,,,,,,,,,
,,5f37827296047220405dccd3,65b1a114615e993797c11079,2024-01-24_17h45.59.499,bars,2023.2.3,Win32,60.24096386,657b66ea316d21385b68909f,,,,,,,,,,,,,,,,,,,,,,,,,,,,,,,,,,,,,,,,,,137.1983,137.5308,right,0.3209,,137.5309,2,2,138.5309,0,6,6,6,1,2,2,1,2,,,,,,,,,,,,,,,,,,,,,,,,,,,,,,,,,,,,,,,,,
,,5f37827296047220405dccd3,65b1a114615e993797c11079,2024-01-24_17h45.59.499,bars,2023.2.3,Win32,60.24096386,657b66ea316d21385b68909f,,,,,,,,,,,,,,,,,,,,,,,,,,,,,,,,,,,,,,,,,,138.5316,138.8977,right,0.3545,,138.8978,1,2,139.8976,0,7,7,7,1,0,0,0,1,,,,,,,,,,,,,,,,,,,,,,,,,,,,,,,,,,,,,,,,,
,,5f37827296047220405dccd3,65b1a114615e993797c11079,2024-01-24_17h45.59.499,bars,2023.2.3,Win32,60.24096386,657b66ea316d21385b68909f,,,,,,,,,,,,,,,,,,,,,,,,,,,,,,,,,,,,,,,,,,139.8982,139.9978,left,0.09,,139.998,1,1,140.9975,0,8,8,8,1,0,2,1,0,,,,,,,,,,,,,,,,,,,,,,,,,,,,,,,,,,,,,,,,,
,,5f37827296047220405dccd3,65b1a114615e993797c11079,2024-01-24_17h45.59.499,bars,2023.2.3,Win32,60.24096386,657b66ea316d21385b68909f,,,,,,,,,,,,,,,,,,,,,,,,,,,,,,,,,,,,,,,,,,140.9982,141.3641,right,0.3598,,141.3641,3,2,142.3638,0,9,9,9,1,2,4,2,3,,,,,,,,,,,,,,,,,,,,,,,,,,,,,,,,,,,,,,,,,
,,5f37827296047220405dccd3,65b1a114615e993797c11079,2024-01-24_17h45.59.499,bars,2023.2.3,Win32,60.24096386,657b66ea316d21385b68909f,,,,,,,,,,,,,,,,,,,,,,,,,,,,,,,,,,,,,,,,,,142.3644,142.6637,right,0.291,,142.6637,3,2,143.664,0,10,10,10,1,0,2,0,3,,,,,,,,,,,,,,,,,,,,,,,,,,,,,,,,,,,,,,,,,
,,5f37827296047220405dccd3,65b1a114615e993797c11079,2024-01-24_17h45.59.499,bars,2023.2.3,Win32,60.24096386,657b66ea316d21385b68909f,,,,,,,,,,,,,,,,,,,,,,,,,,,,,,,,,,,,,,,,,,143.6646,144.0136,right,0.3432,,144.0137,3,2,145.0138,0,11,11,11,1,0,4,0,3,,,,,,,,,,,,,,,,,,,,,,,,,,,,,,,,,,,,,,,,,
,,5f37827296047220405dccd3,65b1a114615e993797c11079,2024-01-24_17h45.59.499,bars,2023.2.3,Win32,60.24096386,657b66ea316d21385b68909f,,,,,,,,,,,,,,,,,,,,,,,,,,,,,,,,,,,,,,,,,,145.0144,145.231,right,0.2036,,145.2311,6,2,146.2304,0,12,12,12,1,2,6,1,6,,,,,,,,,,,,,,,,,,,,,,,,,,,,,,,,,,,,,,,,,
,,5f37827296047220405dccd3,65b1a114615e993797c11079,2024-01-24_17h45.59.499,bars,2023.2.3,Win32,60.24096386,657b66ea316d21385b68909f,,,,,,,,,,,,,,,,,,,,,,,,,,,,,,,,,,,,,,,,,,146.231,146.4138,left,0.1697,,146.4138,1,1,147.4136,0,13,13,13,1,0,4,1,3,,,,,,,,,,,,,,,,,,,,,,,,,,,,,,,,,,,,,,,,,
,,5f37827296047220405dccd3,65b1a114615e993797c11079,2024-01-24_17h45.59.499,bars,2023.2.3,Win32,60.24096386,657b66ea316d21385b68909f,,,,,,,,,,,,,,,,,,,,,,,,,,,,,,,,,,,,,,,,,,147.4141,147.5807,right,0.1604,,147.5809,7,2,148.5804,0,14,14,14,1,2,6,2,7,,,,,,,,,,,,,,,,,,,,,,,,,,,,,,,,,,,,,,,,,
,,5f37827296047220405dccd3,65b1a114615e993797c11079,2024-01-24_17h45.59.499,bars,2023.2.3,Win32,60.24096386,657b66ea316d21385b68909f,,,,,,,,,,,,,,,,,,,,,,,,,,,,,,,,,,,,,,,,,,148.5811,148.8474,right,0.2568,,148.8475,9,2,149.8468,0,15,15,15,1,4,8,3,9,,,,,,,,,,,,,,,,,,,,,,,,,,,,,,,,,,,,,,,,,
,,5f37827296047220405dccd3,65b1a114615e993797c11079,2024-01-24_17h45.59.499,bars,2023.2.3,Win32,60.24096386,657b66ea316d21385b68909f,,,,,,,,,,,,,,,,,,,,,,,,,,,,,,,,,,,,,,,,,,149.8475,150.4477,right,0.5834,,150.4478,7,2,151.4469,0,16,16,16,1,6,6,7,7,,,,,,,,,,,,,,,,,,,,,,,,,,,,,,,,,,,,,,,,,
,,5f37827296047220405dccd3,65b1a114615e993797c11079,2024-01-24_17h45.59.499,bars,2023.2.3,Win32,60.24096386,657b66ea316d21385b68909f,,,,,,,,,,,,,,,,,,,,,,,,,,,,,,,,,,,,,,,,,,151.4477,152.0306,left,0.5661,,152.0306,9,1,153.0302,0,17,17,17,1,8,4,9,5,,,,,,,,,,,,,,,,,,,,,,,,,,,,,,,,,,,,,,,,,
,,5f37827296047220405dccd3,65b1a114615e993797c11079,2024-01-24_17h45.59.499,bars,2023.2.3,Win32,60.24096386,657b66ea316d21385b68909f,,,,,,,,,,,,,,,,,,,,,,,,,,,,,,,,,,,,,,,,,,153.0306,153.4139,left,0.3759,,153.414,5,1,154.4134,0,18,18,18,1,6,2,5,1,,,,,,,,,,,,,,,,,,,,,,,,,,,,,,,,,,,,,,,,,
,,5f37827296047220405dccd3,65b1a114615e993797c11079,2024-01-24_17h45.59.499,bars,2023.2.3,Win32,60.24096386,657b66ea316d21385b68909f,,,,,,,,,,,,,,,,,,,,,,,,,,,,,,,,,,,,,,,,,,154.4138,154.6805,right,0.2566,,154.6807,0,2,155.6802,0,19,19,19,1,8,0,7,0,,,,,,,,,,,,,,,,,,,,,,,,,,,,,,,,,,,,,,,,,
,,5f37827296047220405dccd3,65b1a114615e993797c11079,2024-01-24_17h45.59.499,bars,2023.2.3,Win32,60.24096386,657b66ea316d21385b68909f,,,,,,,,,,,,,,,,,,,,,,,,,,,,,,,,,,,,,,,,,,,,,,,,,,,,,,,,,,,,155.681,169.297,space,13.6049,,,,,,,,,,,,,,,,,,,,,,,,,,,,,,,,,,,,,
,,5f37827296047220405dccd3,65b1a114615e993797c11079,2024-01-24_17h45.59.499,bars,2023.2.3,Win32,60.24096386,657b66ea316d21385b68909f,,,,,,,,,,,170.7183,171.7128,,,172.2131,172.4626,,49,49,,,,,,,,,,,,,,,,bars/012.png,bars/mask004.png,,,,,,,,,,,,0,2,,,,,,,8,2,9,1,,,,,,169.3076,170.7137,space,1.3918,,171.7131,172.213,172.463,176.0798,space,3.6012,,176.0799,41,34,177.0793,177.0797,190.2293,space,13.1279,,0,0,0,0,1,90,15,,,,,,,,
,,5f37827296047220405dccd3,65b1a114615e993797c11079,2024-01-24_17h45.59.499,bars,2023.2.3,Win32,60.24096386,657b66ea316d21385b68909f,,,,,,,,,,,190.2394,191.2282,,,191.7285,191.9785,,90,90,,,,,,,,,,,,,,,,bars/026.png,bars/mask000.png,,,,,,,,,,,,3,2,,,,,,,6,4,6,4,,,,,,,,,,,191.2284,191.7285,191.9786,195.7121,space,3.7232,,195.7122,55,5,196.7115,196.7116,201.3783,space,4.6453,,0,1,1,1,1,35,85,,,,,,,,
,,5f37827296047220405dccd3,65b1a114615e993797c11079,2024-01-24_17h45.59.499,bars,2023.2.3,Win32,60.24096386,657b66ea316d21385b68909f,,,,,,,,,,,201.3874,202.378,,,202.8781,203.1277,,48,228,,,,,,,,,,,,,,,,bars/034.png,bars/mask003.png,,,,,,,,,,,,1,2,,,,,,,8,2,8,2,,,,,,,,,,,202.3781,202.8781,203.1278,206.6279,space,3.4938,,206.6281,77,17,207.6277,207.6278,210.0442,space,2.3925,,0,2,2,2,1,125,65,,,,,,,,
,,5f37827296047220405dccd3,65b1a114615e993797c11079,2024-01-24_17h45.59.499,bars,2023.2.3,Win32,60.24096386,657b66ea316d21385b68909f,,,,,,,,,,,210.0449,211.0435,,,211.5436,211.7936,,51,51,,,,,,,,,,,,,,,,bars/028.png,bars/mask004.png,,,,,,,,,,,,4,1,,,,,,,6,4,5,5,,,,,,,,,,,211.0437,211.5435,211.7936,213.5278,space,1.7156,,213.5279,6,69,214.5275,214.5276,216.0445,space,1.4896,,0,3,3,3,1,45,120,,,,,,,,
,,5f37827296047220405dccd3,65b1a114615e993797c11079,2024-01-24_17h45.59.499,bars,2023.2.3,Win32,60.24096386,657b66ea316d21385b68909f,,,,,,,,,,,216.0449,217.0441,,,217.5442,217.7937,,128,-52,,,,,,,,,,,,,,,,bars/023.png,bars/mask004.png,,,,,,,,,,,,1,2,,,,,,,4,2,5,1,,,,,,,,,,,217.0441,217.5441,217.7938,221.3602,space,3.5612,,221.3604,72,13,222.3605,222.3605,223.4276,space,1.0393,,0,4,4,4,1,20,115,,,,,,,,
,,5f37827296047220405dccd3,65b1a114615e993797c11079,2024-01-24_17h45.59.499,bars,2023.2.3,Win32,60.24096386,657b66ea316d21385b68909f,,,,,,,,,,,223.4281,224.4266,,,224.9268,225.1769,,34,34,,,,,,,,,,,,,,,,bars/017.png,bars/mask000.png,,,,,,,,,,,,1,2,,,,,,,2,0,3,2,,,,,,,,,,,224.4267,224.9268,225.1769,226.6273,space,1.4341,,226.6276,69,11,227.6269,227.6269,228.3937,space,0.7487,,0,5,5,5,1,145,45,,,,,,,,
,,5f37827296047220405dccd3,65b1a114615e993797c11079,2024-01-24_17h45.59.499,bars,2023.2.3,Win32,60.24096386,657b66ea316d21385b68909f,,,,,,,,,,,228.3943,229.3927,,,229.8934,230.1436,,142,142,,,,,,,,,,,,,,,,bars/049.png,bars/mask009.png,,,,,,,,,,,,0,1,,,,,,,0,2,1,3,,,,,,,,,,,229.3928,229.8933,230.1436,233.1607,space,3.0003,,233.1608,18,27,234.1598,234.1599,235.5934,space,1.4068,,0,6,6,6,1,160,115,,,,,,,,
,,5f37827296047220405dccd3,65b1a114615e993797c11079,2024-01-24_17h45.59.499,bars,2023.2.3,Win32,60.24096386,657b66ea316d21385b68909f,,,,,,,,,,,235.5942,236.5931,,,237.0926,237.3432,,139,139,,,,,,,,,,,,,,,,bars/023.png,bars/mask007.png,,,,,,,,,,,,0,2,,,,,,,2,0,2,0,,,,,,,,,,,236.5931,237.0926,237.3432,241.8091,space,4.4609,,241.8091,61,24,242.8096,242.8096,243.8599,space,1.0284,,0,7,7,7,1,20,115,,,,,,,,
,,5f37827296047220405dccd3,65b1a114615e993797c11079,2024-01-24_17h45.59.499,bars,2023.2.3,Win32,60.24096386,657b66ea316d21385b68909f,,,,,,,,,,,243.8604,244.8594,,,245.3592,245.609,,80,80,,,,,,,,,,,,,,,,bars/037.png,bars/mask007.png,,,,,,,,,,,,0,2,,,,,,,0,2,0,2,,,,,,,,,,,244.8594,245.3591,245.609,248.9597,space,3.337,,248.9598,70,25,249.9588,249.9589,250.626,space,0.6483,,0,8,8,8,1,150,105,,,,,,,,
,,5f37827296047220405dccd3,65b1a114615e993797c11079,2024-01-24_17h45.59.499,bars,2023.2.3,Win32,60.24096386,657b66ea316d21385b68909f,,,,,,,,,,,250.6266,251.6257,,,252.1255,252.3754,,37,217,,,,,,,,,,,,,,,,bars/007.png,bars/mask002.png,,,,,,,,,,,,2,2,,,,,,,0,4,0,4,,,,,,,,,,,251.6257,252.1255,252.3755,256.6419,space,4.2496,,256.642,42,18,257.6422,257.6422,260.2422,space,2.5847,,0,9,9,9,1,175,55,,,,,,,,
,,5f37827296047220405dccd3,65b1a114615e993797c11079,2024-01-24_17h45.59.499,bars,2023.2.3,Win32,60.24096386,657b66ea316d21385b68909f,,,,,,,,,,,260.2427,261.2414,,,261.7421,261.992,,117,117,,,,,,,,,,,,,,,,bars/040.png,bars/mask005.png,,,,,,,,,,,,1,1,,,,,,,0,6,3,5,,,,,,,,,,,261.2414,261.742,261.9921,263.6252,space,1.6168,,263.6254,23,68,264.6249,264.6249,265.3248,space,0.6755,,0,10,10,10,1,140,5,,,,,,,,
,,5f37827296047220405dccd3,65b1a114615e993797c11079,2024-01-24_17h45.59.499,bars,2023.2.3,Win32,60.24096386,657b66ea316d21385b68909f,,,,,,,,,,,265.3255,266.3247,,,266.825,267.0749,,44,44,,,,,,,,,,,,,,,,bars/010.png,bars/mask004.png,,,,,,,,,,,,3,2,,,,,,,2,4,3,5,,,,,,,,,,,266.3248,266.825,267.075,268.8248,space,1.7361,,268.8248,59,11,269.8248,269.8248,272.6086,space,2.7724,,0,11,11,11,1,165,55,,,,,,,,
,,5f37827296047220405dccd3,65b1a114615e993797c11079,2024-01-24_17h45.59.499,bars,2023.2.3,Win32,60.24096386,657b66ea316d21385b68909f,,,,,,,,,,,272.6175,273.6078,,,274.1083,274.3581,,61,61,,,,,,,,,,,,,,,,bars/010.png,bars/mask004.png,,,,,,,,,,,,4,2,,,,,,,0,6,0,5,,,,,,,,,,,273.6079,274.1083,274.3581,276.1415,space,1.7665,,276.1417,76,6,277.1411,277.1411,278.4918,space,1.3364,,0,12,12,12,1,165,55,,,,,,,,
,,5f37827296047220405dccd3,65b1a114615e993797c11079,2024-01-24_17h45.59.499,bars,2023.2.3,Win32,60.24096386,657b66ea316d21385b68909f,,,,,,,,,,,278.492,279.4909,,,279.9913,280.2411,,24,204,,,,,,,,,,,,,,,,bars/006.png,bars/mask006.png,,,,,,,,,,,,1,1,,,,,,,2,4,2,4,,,,,,,,,,,279.4909,279.9913,280.2412,282.8082,space,2.5596,,282.8084,11,76,283.8073,283.8074,284.6077,space,0.7771,,0,13,13,13,1,35,100,,,,,,,,
,,5f37827296047220405dccd3,65b1a114615e993797c11079,2024-01-24_17h45.59.499,bars,2023.2.3,Win32,60.24096386,657b66ea316d21385b68909f,,,,,,,,,,,284.6084,285.6075,,,286.1077,286.3572,,139,-41,,,,,,,,,,,,,,,,bars/036.png,bars/mask003.png,,,,,,,,,,,,0,1,,,,,,,0,6,0,6,,,,,,,,,,,285.6075,286.1076,286.3574,290.9908,space,4.6285,,290.9909,6,61,291.9906,291.9907,293.6576,space,1.6416,,0,14,14,14,1,145,20,,,,,,,,
,,5f37827296047220405dccd3,65b1a114615e993797c11079,2024-01-24_17h45.59.499,bars,2023.2.3,Win32,60.24096386,657b66ea316d21385b68909f,,,,,,,,,,,293.6581,294.6565,,,295.1571,295.4071,,152,-28,,,,,,,,,,,,,,,,bars/044.png,bars/mask006.png,,,,,,,,,,,,7,2,,,,,,,2,8,1,8,,,,,,,,,,,294.6566,295.157,295.4071,297.5568,space,2.1337,,297.557,77,3,298.5563,298.5564,299.4733,space,0.8918,,0,15,15,15,1,75,155,,,,,,,,
,,5f37827296047220405dccd3,65b1a114615e993797c11079,2024-01-24_17h45.59.499,bars,2023.2.3,Win32,60.24096386,657b66ea316d21385b68909f,,,,,,,,,,,299.474,300.4736,,,300.9735,301.2235,,29,209,,,,,,,,,,,,,,,,bars/041.png,bars/mask004.png,,,,,,,,,,,,0,1,,,,,,,0,10,0,9,,,,,,,,,,,300.4736,300.9735,301.2235,302.9905,space,1.7598,,302.9905,9,56,303.99,303.99,304.6403,space,0.6367,,0,16,16,16,1,20,85,,,,,,,,
,,5f37827296047220405dccd3,65b1a114615e993797c11079,2024-01-24_17h45.59.499,bars,2023.2.3,Win32,60.24096386,657b66ea316d21385b68909f,,,,,,,,,,,304.6408,305.6397,,,306.14,306.3899,,10,190,,,,,,,,,,,,,,,,bars/040.png,bars/mask000.png,,,,,,,,,,,,8,2,,,,,,,0,10,0,10,,,,,,,,,,,305.6399,306.14,306.39,308.2238,space,1.8225,,308.224,50,5,309.2231,309.2231,310.0235,space,0.7725,,0,17,17,17,1,140,5,,,,,,,,
,,5f37827296047220405dccd3,65b1a114615e993797c11079,2024-01-24_17h45.59.499,bars,2023.2.3,Win32,60.24096386,657b66ea316d21385b68909f,,,,,,,,,,,310.0241,311.0229,,,311.5231,311.7729,,70,70,,,,,,,,,,,,,,,,bars/018.png,bars/mask000.png,,,,,,,,,,,,3,2,,,,,,,0,10,0,9,,,,,,,,,,,311.0229,311.523,311.773,313.7564,space,1.9669,,313.7565,80,20,314.7561,314.7561,315.6063,space,0.8281,,0,18,18,18,1,150,90,,,,,,,,
,,5f37827296047220405dccd3,65b1a114615e993797c11079,2024-01-24_17h45.59.499,bars,2023.2.3,Win32,60.24096386,657b66ea316d21385b68909f,,,,,,,,,,,315.607,316.606,,,317.1059,317.3559,,95,95,,,,,,,,,,,,,,,,bars/020.png,bars/mask005.png,,,,,,,,,,,,1,1,,,,,,,2,8,2,8,,,,,,,,,,,316.606,317.1059,317.356,319.389,space,2.0172,,319.389,20,75,320.3892,320.3893,322.2054,space,1.8002,,0,19,19,19,1,115,170,,,,,,,,
,,5f37827296047220405dccd3,65b1a114615e993797c11079,2024-01-24_17h45.59.499,bars,2023.2.3,Win32,60.24096386,657b66ea316d21385b68909f,,,,,,,,,,,322.2061,323.2056,,,323.7056,323.9558,,89,89,,,,,,,,,,,,,,,,bars/019.png,bars/mask006.png,,,,,,,,,,,,3,2,,,,,,,0,6,1,6,,,,,,,,,,,323.2057,323.7056,323.9558,325.4895,space,1.5225,,325.4896,44,16,326.4889,326.489,331.9057,space,5.3897,,0,20,20,20,1,45,105,,,,,,,,
,,5f37827296047220405dccd3,65b1a114615e993797c11079,2024-01-24_17h45.59.499,bars,2023.2.3,Win32,60.24096386,657b66ea316d21385b68909f,,,,,,,,,,,331.9143,332.9051,,,333.4053,333.6553,,156,156,,,,,,,,,,,,,,,,bars/044.png,bars/mask000.png,,,,,,,,,,,,5,2,,,,,,,2,8,2,5,,,,,,,,,,,332.9053,333.4052,333.6553,335.3724,space,1.7064,,335.3725,81,1,336.3715,336.3717,339.8552,space,3.4622,,0,21,21,21,1,75,155,,,,,,,,
,,5f37827296047220405dccd3,65b1a114615e993797c11079,2024-01-24_17h45.59.499,bars,2023.2.3,Win32,60.24096386,657b66ea316d21385b68909f,,,,,,,,,,,339.8557,340.8544,,,341.3546,341.6044,,10,190,,,,,,,,,,,,,,,,bars/048.png,bars/mask008.png,,,,,,,,,,,,4,2,,,,,,,4,6,4,7,,,,,,,,,,,340.8544,341.3546,341.6044,343.8546,space,2.233,,343.8547,40,15,344.8543,344.8543,351.0385,space,6.1654,,0,22,22,22,1,50,175,,,,,,,,
,,5f37827296047220405dccd3,65b1a114615e993797c11079,2024-01-24_17h45.59.499,bars,2023.2.3,Win32,60.24096386,657b66ea316d21385b68909f,,,,,,,,,,,351.0473,352.0374,,,352.5379,352.7879,,69,69,,,,,,,,,,,,,,,,bars/042.png,bars/mask000.png,,,,,,,,,,,,3,2,,,,,,,2,4,3,4,,,,,,,,,,,352.0375,352.5378,352.788,354.9048,space,2.1119,,354.9049,76,6,355.9038,355.9038,356.688,space,0.7743,,0,23,23,23,1,145,75,,,,,,,,
,,5f37827296047220405dccd3,65b1a114615e993797c11079,2024-01-24_17h45.59.499,bars,2023.2.3,Win32,60.24096386,657b66ea316d21385b68909f,,,,,,,,,,,356.6886,357.6875,,,358.1877,358.4375,,155,155,,,,,,,,,,,,,,,,bars/020.png,bars/mask002.png,,,,,,,,,,,,2,2,,,,,,,0,2,1,3,,,,,,,,,,,357.6877,358.1875,358.4376,359.4382,space,0.9836,,359.4382,40,15,360.437,360.4371,361.3711,space,0.9091,,0,24,24,24,1,115,170,,,,,,,,
,,5f37827296047220405dccd3,65b1a114615e993797c11079,2024-01-24_17h45.59.499,bars,2023.2.3,Win32,60.24096386,657b66ea316d21385b68909f,,,,,,,,,,,361.3716,362.3706,,,364.109,364.1102,,152,152,,,,,,,,,,,,,,,,bars/032.png,bars/mask008.png,,,,,,,,,,,,0,1,,,,,,,0,0,2,0,,,,,,,,,,,362.3706,364.109,364.1102,366.2541,space,2.1237,,366.2542,27,48,367.2538,367.2539,368.871,space,1.5888,,0,25,25,25,1,125,20,,,,,,,,
,,5f37827296047220405dccd3,65b1a114615e993797c11079,2024-01-24_17h45.59.499,bars,2023.2.3,Win32,60.24096386,657b66ea316d21385b68909f,,,,,,,,,,,368.8715,369.8704,,,370.3704,370.6198,,92,92,,,,,,,,,,,,,,,,bars/022.png,bars/mask001.png,,,,,,,,,,,,1,1,,,,,,,2,0,1,0,,,,,,,,,,,369.8704,370.3704,370.6199,372.2705,space,1.6423,,372.2706,3,72,373.2701,373.2702,374.3875,space,1.1054,,0,26,26,26,1,95,20,,,,,,,,
,,5f37827296047220405dccd3,65b1a114615e993797c11079,2024-01-24_17h45.59.499,bars,2023.2.3,Win32,60.24096386,657b66ea316d21385b68909f,,,,,,,,,,,374.3879,375.3862,,,375.8867,376.1369,,120,-60,,,,,,,,,,,,,,,,bars/000.png,bars/mask000.png,,,,,,,,,,,,0,2,,,,,,,0,2,0,2,,,,,,,,,,,375.3862,375.8866,376.1369,380.2368,space,4.0908,,380.237,80,25,381.2365,381.2366,381.7537,space,0.4878,,0,27,27,27,1,40,145,,,,,,,,
,,5f37827296047220405dccd3,65b1a114615e993797c11079,2024-01-24_17h45.59.499,bars,2023.2.3,Win32,60.24096386,657b66ea316d21385b68909f,,,,,,,,,,,381.7543,382.7528,,,383.2533,383.503,,135,-45,,,,,,,,,,,,,,,,bars/049.png,bars/mask003.png,,,,,,,,,,,,0,2,,,,,,,0,0,0,1,,,,,,,,,,,382.7528,383.2532,383.5031,386.103,space,2.5917,,386.1031,25,20,387.1029,387.1029,387.9703,space,0.8409,,0,28,28,28,1,160,115,,,,,,,,
,,5f37827296047220405dccd3,65b1a114615e993797c11079,2024-01-24_17h45.59.499,bars,2023.2.3,Win32,60.24096386,657b66ea316d21385b68909f,,,,,,,,,,,387.9705,388.9696,,,389.4694,389.7196,,125,-55,,,,,,,,,,,,,,,,bars/038.png,bars/mask009.png,,,,,,,,,,,,0,1,,,,,,,2,0,2,0,,,,,,,,,,,388.9696,389.4694,389.7196,392.3865,space,2.6579,,392.3865,40,55,393.3859,393.386,396.1529,space,2.7379,,0,29,29,29,1,165,70,,,,,,,,
,,5f37827296047220405dccd3,65b1a114615e993797c11079,2024-01-24_17h45.59.499,bars,2023.2.3,Win32,60.24096386,657b66ea316d21385b68909f,,,,,,,,,,,396.1538,397.1524,,,397.6526,397.9026,,47,47,,,,,,,,,,,,,,,,bars/022.png,bars/mask000.png,,,,,,,,,,,,0,2,,,,,,,0,2,0,2,,,,,,,,,,,397.1524,397.6525,397.9026,399.0031,space,1.0913,,399.0031,48,27,400.0024,400.0024,402.5187,space,2.5058,,0,30,30,30,1,95,20,,,,,,,,
,,5f37827296047220405dccd3,65b1a114615e993797c11079,2024-01-24_17h45.59.499,bars,2023.2.3,Win32,60.24096386,657b66ea316d21385b68909f,,,,,,,,,,,402.5277,403.5184,,,404.0183,404.2681,,144,144,,,,,,,,,,,,,,,,bars/000.png,bars/mask005.png,,,,,,,,,,,,0,2,,,,,,,2,0,1,0,,,,,,,,,,,403.5185,404.0182,404.2682,406.2688,space,1.9897,,406.2688,76,1,407.2685,407.2685,410.1191,space,2.826,,0,31,31,31,1,40,145,,,,,,,,
,,5f37827296047220405dccd3,65b1a114615e993797c11079,2024-01-24_17h45.59.499,bars,2023.2.3,Win32,60.24096386,657b66ea316d21385b68909f,,,,,,,,,,,410.1195,411.1185,,,411.6182,411.8685,,28,28,,,,,,,,,,,,,,,,bars/007.png,bars/mask000.png,,,,,,,,,,,,0,2,,,,,,,4,2,5,2,,,,,,,,,,,411.1186,411.6181,411.8686,413.2847,space,1.4094,,413.2849,33,27,414.2844,414.2844,414.9018,space,0.6034,,0,32,32,32,1,175,55,,,,,,,,
,,5f37827296047220405dccd3,65b1a114615e993797c11079,2024-01-24_17h45.59.499,bars,2023.2.3,Win32,60.24096386,657b66ea316d21385b68909f,,,,,,,,,,,414.9023,415.9017,,,416.4017,416.6515,,134,134,,,,,,,,,,,,,,,,bars/023.png,bars/mask001.png,,,,,,,,,,,,0,2,,,,,,,2,0,3,1,,,,,,,,,,,415.9017,416.4017,416.6515,418.752,space,2.0848,,418.7521,66,19,419.7511,419.7513,420.4679,space,0.7107,,0,33,33,33,1,20,115,,,,,,,,
,,5f37827296047220405dccd3,65b1a114615e993797c11079,2024-01-24_17h45.59.499,bars,2023.2.3,Win32,60.24096386,657b66ea316d21385b68909f,,,,,,,,,,,420.4685,421.4681,,,421.9681,422.2181,,83,83,,,,,,,,,,,,,,,,bars/042.png,bars/mask002.png,,,,,,,,,,,,0,2,,,,,,,0,0,0,0,,,,,,,,,,,421.4682,421.968,422.2181,424.7683,space,2.5318,,424.7684,62,8,425.7678,425.7679,429.1682,space,3.3753,,0,34,34,34,1,145,75,,,,,,,,
,,5f37827296047220405dccd3,65b1a114615e993797c11079,2024-01-24_17h45.59.499,bars,2023.2.3,Win32,60.24096386,657b66ea316d21385b68909f,,,,,,,,,,,429.1776,430.1673,,,430.6676,430.9175,,62,62,,,,,,,,,,,,,,,,bars/031.png,bars/mask002.png,,,,,,,,,,,,0,2,,,,,,,0,2,1,1,,,,,,,,,,,430.1674,430.6676,430.9178,435.9173,space,4.9873,,435.9174,58,27,436.9173,436.9174,440.8008,space,3.8637,,0,35,35,35,1,120,35,,,,,,,,
,,5f37827296047220405dccd3,65b1a114615e993797c11079,2024-01-24_17h45.59.499,bars,2023.2.3,Win32,60.24096386,657b66ea316d21385b68909f,,,,,,,,,,,440.8094,441.8,,,442.3003,442.5497,,3,3,,,,,,,,,,,,,,,,bars/039.png,bars/mask006.png,,,,,,,,,,,,0,1,,,,,,,0,0,0,0,,,,,,,,,,,441.8,442.3003,442.5499,443.6667,space,1.1058,,443.6667,8,78,444.667,444.6671,445.5173,space,0.8268,,0,36,36,36,1,175,105,,,,,,,,
,,5f37827296047220405dccd3,65b1a114615e993797c11079,2024-01-24_17h45.59.499,bars,2023.2.3,Win32,60.24096386,657b66ea316d21385b68909f,,,,,,,,,,,445.5179,446.5163,,,447.017,447.2666,,91,91,,,,,,,,,,,,,,,,bars/009.png,bars/mask006.png,,,,,,,,,,,,0,2,,,,,,,0,0,0,0,,,,,,,,,,,446.5165,447.017,447.2666,448.4672,space,1.1923,,448.4672,76,14,449.4666,449.4666,450.0004,space,0.5132,,0,37,37,37,1,15,105,,,,,,,,
,,5f37827296047220405dccd3,65b1a114615e993797c11079,2024-01-24_17h45.59.499,bars,2023.2.3,Win32,60.24096386,657b66ea316d21385b68909f,,,,,,,,,,,450.001,450.9999,,,451.4999,451.7496,,101,101,,,,,,,,,,,,,,,,bars/025.png,bars/mask001.png,,,,,,,,,,,,0,1,,,,,,,0,0,0,1,,,,,,,,,,,451.0001,451.4997,451.7498,453.7002,space,1.9413,,453.7003,4,61,454.6996,454.6997,464.1997,space,9.4741,,0,38,38,38,1,105,40,,,,,,,,
,,5f37827296047220405dccd3,65b1a114615e993797c11079,2024-01-24_17h45.59.499,bars,2023.2.3,Win32,60.24096386,657b66ea316d21385b68909f,,,,,,,,,,,464.2092,465.1993,,,465.6995,465.9494,,5,5,,,,,,,,,,,,,,,,bars/046.png,bars/mask002.png,,,,,,,,,,,,0,1,,,,,,,2,0,3,0,,,,,,,,,,,465.1994,465.6995,465.9494,467.4832,space,1.5269,,467.4832,30,80,468.4819,468.4819,469.0496,space,0.5521,,0,39,39,39,1,155,85,,,,,,,,
,,5f37827296047220405dccd3,65b1a114615e993797c11079,2024-01-24_17h45.59.499,bars,2023.2.3,Win32,60.24096386,657b66ea316d21385b68909f,,,,,,,,,,,469.0501,470.0485,,,470.5489,470.7991,,127,127,,,,,,,,,,,,,,,,bars/037.png,bars/mask001.png,,,,,,,,,,,,0,2,,,,,,,4,0,4,1,,,,,,,,,,,470.0485,470.5488,470.7991,473.8658,space,3.0508,,473.8659,23,22,474.8649,474.865,475.4492,space,0.5595,,0,40,40,40,1,150,105,,,,,,,,
,,5f37827296047220405dccd3,65b1a114615e993797c11079,2024-01-24_17h45.59.499,bars,2023.2.3,Win32,60.24096386,657b66ea316d21385b68909f,,,,,,,,,,,475.45,476.4488,,,476.9488,477.1988,,164,-16,,,,,,,,,,,,,,,,bars/033.png,bars/mask005.png,,,,,,,,,,,,0,2,,,,,,,6,0,4,0,,,,,,,,,,,476.449,476.9488,477.1988,481.3822,space,4.1735,,481.3822,41,9,482.3822,482.3822,483.1657,space,0.7583,,0,41,41,41,1,25,155,,,,,,,,
,,5f37827296047220405dccd3,65b1a114615e993797c11079,2024-01-24_17h45.59.499,bars,2023.2.3,Win32,60.24096386,657b66ea316d21385b68909f,,,,,,,,,,,483.1661,484.1649,,,484.665,484.9148,,124,-56,,,,,,,,,,,,,,,,bars/023.png,bars/mask004.png,,,,,,,,,,,,1,2,,,,,,,4,2,5,2,,,,,,,,,,,484.1649,484.665,484.9149,487.4649,space,2.5429,,487.465,76,9,488.4649,488.465,489.1988,space,0.7175,,0,42,42,42,1,20,115,,,,,,,,
,,5f37827296047220405dccd3,65b1a114615e993797c11079,2024-01-24_17h45.59.499,bars,2023.2.3,Win32,60.24096386,657b66ea316d21385b68909f,,,,,,,,,,,489.1993,490.1979,,,490.6983,490.9482,,28,208,,,,,,,,,,,,,,,,bars/036.png,bars/mask002.png,,,,,,,,,,,,1,2,,,,,,,6,0,7,1,,,,,,,,,,,490.1981,490.6982,490.9482,493.6646,space,2.71,,493.6647,63,8,494.6643,494.6643,495.2311,space,0.549,,0,43,43,43,1,145,20,,,,,,,,
,,5f37827296047220405dccd3,65b1a114615e993797c11079,2024-01-24_17h45.59.499,bars,2023.2.3,Win32,60.24096386,657b66ea316d21385b68909f,,,,,,,,,,,495.2318,496.231,,,496.7312,496.9814,,36,216,,,,,,,,,,,,,,,,bars/000.png,bars/mask006.png,,,,,,,,,,,,5,1,,,,,,,4,2,6,2,,,,,,,,,,,496.2311,496.7312,496.9814,500.6814,space,3.6874,,500.6815,4,71,501.681,501.6812,502.2479,space,0.5397,,0,44,44,44,1,40,145,,,,,,,,
,,5f37827296047220405dccd3,65b1a114615e993797c11079,2024-01-24_17h45.59.499,bars,2023.2.3,Win32,60.24096386,657b66ea316d21385b68909f,,,,,,,,,,,502.2487,503.2477,,,503.7471,503.9972,,108,108,,,,,,,,,,,,,,,,bars/020.png,bars/mask002.png,,,,,,,,,,,,2,1,,,,,,,2,4,3,4,,,,,,,,,,,503.2477,503.7471,503.9973,505.0815,space,1.0654,,505.0816,7,62,506.0808,506.0809,506.6973,space,0.6035,,0,45,45,45,1,115,170,,,,,,,,
,,5f37827296047220405dccd3,65b1a114615e993797c11079,2024-01-24_17h45.59.499,bars,2023.2.3,Win32,60.24096386,657b66ea316d21385b68909f,,,,,,,,,,,506.6978,507.6974,,,508.1972,508.4471,,36,36,,,,,,,,,,,,,,,,bars/035.png,bars/mask001.png,,,,,,,,,,,,0,2,,,,,,,4,2,4,1,,,,,,,,,,,507.6974,508.1971,508.4472,509.6638,space,1.2058,,509.6638,41,24,510.6636,510.6636,511.2475,space,0.5621,,0,46,46,46,1,175,60,,,,,,,,
,,5f37827296047220405dccd3,65b1a114615e993797c11079,2024-01-24_17h45.59.499,bars,2023.2.3,Win32,60.24096386,657b66ea316d21385b68909f,,,,,,,,,,,511.248,512.2472,,,512.747,512.9968,,55,55,,,,,,,,,,,,,,,,bars/048.png,bars/mask002.png,,,,,,,,,,,,5,1,,,,,,,6,0,6,0,,,,,,,,,,,512.2473,512.7469,512.9968,516.1476,space,3.1351,,516.1477,5,60,517.1466,517.1466,520.5305,space,3.3654,,0,47,47,47,1,50,175,,,,,,,,
,,5f37827296047220405dccd3,65b1a114615e993797c11079,2024-01-24_17h45.59.499,bars,2023.2.3,Win32,60.24096386,657b66ea316d21385b68909f,,,,,,,,,,,520.5392,521.5302,,,522.0299,522.2801,,45,45,,,,,,,,,,,,,,,,bars/017.png,bars/mask007.png,,,,,,,,,,,,2,2,,,,,,,4,2,5,2,,,,,,,,,,,521.5302,522.0299,522.2802,524.8301,space,2.5325,,524.8303,80,0,525.8297,525.8297,528.5636,space,2.7141,,0,48,48,48,1,145,45,,,,,,,,
,,5f37827296047220405dccd3,65b1a114615e993797c11079,2024-01-24_17h45.59.499,bars,2023.2.3,Win32,60.24096386,657b66ea316d21385b68909f,,,,,,,,,,,528.5724,529.5632,,,530.0631,530.3132,,13,13,,,,,,,,,,,,,,,,bars/003.png,bars/mask001.png,,,,,,,,,,,,2,1,,,,,,,2,4,4,3,,,,,,,,,,,529.5632,530.063,530.3132,532.9466,space,2.6156,,532.9468,12,53,533.946,533.9461,534.4961,space,0.5241,,0,49,49,49,1,25,140,,,,,,,,
,,5f37827296047220405dccd3,65b1a114615e993797c11079,2024-01-24_17h45.59.499,bars,2023.2.3,Win32,60.24096386,657b66ea316d21385b68909f,,,,,,,,,,,,,,,,,,,,,,,,,,,,,,,,,,,,,,,,,,,,,,,,,,,,,,,,,,,,,,,,,,,,,,,,,,,,,,,,,,,,,,,,,,,,,534.497,594.4945,0,0,0,4,1,sequence_tables/blk015.csv
,,5f37827296047220405dccd3,65b1a114615e993797c11079,2024-01-24_17h45.59.499,bars,2023.2.3,Win32,60.24096386,657b66ea316d21385b68909f,,,,,,,,,,,679.0864,680.0895,,,680.5897,680.8394,,137,137,,,,,,,,,,,,,,,,bars/038.png,bars/mask001.png,,,,,,,,,,,,0,1,,,,,,,3,6,4,7,,,,,,594.5037,679.0734,space,84.5547,,680.0897,680.5897,680.8395,682.9231,space,2.0676,,682.9232,28,67,683.9225,683.9226,683.9315,,,,0,0,0,0,1,165,70,,,,,,,,
,,5f37827296047220405dccd3,65b1a114615e993797c11079,2024-01-24_17h45.59.499,bars,2023.2.3,Win32,60.24096386,657b66ea316d21385b68909f,,,,,,,,,,,683.9317,684.9225,,,685.4228,685.6727,,49,229,,,,,,,,,,,,,,,,bars/042.png,bars/mask005.png,,,,,,,,,,,,1,2,,,,,,,5,8,3,7,,,,,,,,,,,684.9226,685.4228,685.6727,689.5557,space,3.8775,,689.5559,84,26,690.5555,690.5557,690.566,,,,0,1,1,1,1,145,75,,,,,,,,
,,5f37827296047220405dccd3,65b1a114615e993797c11079,2024-01-24_17h45.59.499,bars,2023.2.3,Win32,60.24096386,657b66ea316d21385b68909f,,,,,,,,,,,690.5662,691.5554,,,692.0558,692.3056,,24,204,,,,,,,,,,,,,,,,bars/014.png,bars/mask007.png,,,,,,,,,,,,2,2,,,,,,,7,10,8,10,,,,,,,,,,,691.5554,692.0558,692.3056,694.7057,space,2.3829,,694.7057,56,24,695.7053,695.7055,695.7143,,,,0,2,2,2,1,80,0,,,,,,,,
,,5f37827296047220405dccd3,65b1a114615e993797c11079,2024-01-24_17h45.59.499,bars,2023.2.3,Win32,60.24096386,657b66ea316d21385b68909f,,,,,,,,,,,695.7145,696.705,,,697.2053,697.4551,,127,-53,,,,,,,,,,,,,,,,bars/049.png,bars/mask003.png,,,,,,,,,,,,6,2,,,,,,,5,10,5,10,,,,,,,,,,,696.7051,697.2052,697.4551,699.9883,space,2.517,,699.9884,33,12,700.9886,700.9886,700.9895,,,,0,3,3,3,1,160,115,,,,,,,,
,,5f37827296047220405dccd3,65b1a114615e993797c11079,2024-01-24_17h45.59.499,bars,2023.2.3,Win32,60.24096386,657b66ea316d21385b68909f,,,,,,,,,,,700.9898,701.9885,,,702.4886,702.7386,,42,42,,,,,,,,,,,,,,,,bars/008.png,bars/mask008.png,,,,,,,,,,,,0,2,,,,,,,3,10,2,8,,,,,,,,,,,701.9886,702.4885,702.7386,704.9388,space,2.1881,,704.939,68,42,705.9379,705.938,705.9478,,,,0,4,4,4,1,110,0,,,,,,,,
,,5f37827296047220405dccd3,65b1a114615e993797c11079,2024-01-24_17h45.59.499,bars,2023.2.3,Win32,60.24096386,657b66ea316d21385b68909f,,,,,,,,,,,705.948,706.9383,,,707.4384,707.6877,,49,49,,,,,,,,,,,,,,,,bars/007.png,bars/mask004.png,,,,,,,,,,,,7,2,,,,,,,1,10,1,9,,,,,,,,,,,706.9383,707.4383,707.6877,709.2046,space,1.5048,,709.2047,54,6,710.2044,710.2044,710.2055,,,,0,5,5,5,1,175,55,,,,,,,,
,,5f37827296047220405dccd3,65b1a114615e993797c11079,2024-01-24_17h45.59.499,bars,2023.2.3,Win32,60.24096386,657b66ea316d21385b68909f,,,,,,,,,,,710.2057,711.2045,,,711.7043,711.9543,,59,59,,,,,,,,,,,,,,,,bars/044.png,bars/mask000.png,,,,,,,,,,,,0,1,,,,,,,3,10,1,10,,,,,,,,,,,711.2046,711.7043,711.9543,713.5879,space,1.624,,713.5879,16,84,714.588,714.5881,714.5907,,,,0,6,6,6,1,75,155,,,,,,,,
,,5f37827296047220405dccd3,65b1a114615e993797c11079,2024-01-24_17h45.59.499,bars,2023.2.3,Win32,60.24096386,657b66ea316d21385b68909f,,,,,,,,,,,714.591,715.5881,,,716.0881,716.338,,79,79,,,,,,,,,,,,,,,,bars/018.png,bars/mask007.png,,,,,,,,,,,,6,2,,,,,,,5,10,5,10,,,,,,,,,,,715.5881,716.088,716.3381,719.2374,space,2.8851,,719.2375,71,11,720.2378,720.2379,720.2475,,,,0,7,7,7,1,150,90,,,,,,,,
,,5f37827296047220405dccd3,65b1a114615e993797c11079,2024-01-24_17h45.59.499,bars,2023.2.3,Win32,60.24096386,657b66ea316d21385b68909f,,,,,,,,,,,720.2477,721.2374,,,721.7376,721.9875,,67,247,,,,,,,,,,,,,,,,bars/038.png,bars/mask000.png,,,,,,,,,,,,8,2,,,,,,,7,8,7,9,,,,,,,,,,,721.2374,721.7375,721.9875,726.5381,space,4.5364,,726.5382,82,3,727.5374,727.5374,727.5461,,,,0,8,8,8,1,165,70,,,,,,,,
,,5f37827296047220405dccd3,65b1a114615e993797c11079,2024-01-24_17h45.59.499,bars,2023.2.3,Win32,60.24096386,657b66ea316d21385b68909f,,,,,,,,,,,727.5463,728.5373,,,729.0375,729.2876,,132,132,,,,,,,,,,,,,,,,bars/023.png,bars/mask008.png,,,,,,,,,,,,2,2,,,,,,,5,6,7,5,,,,,,,,,,,728.5374,729.0375,729.2876,730.887,space,1.5862,,730.8872,68,17,731.8872,731.8872,731.8961,,,,0,9,9,9,1,20,115,,,,,,,,
,,5f37827296047220405dccd3,65b1a114615e993797c11079,2024-01-24_17h45.59.499,bars,2023.2.3,Win32,60.24096386,657b66ea316d21385b68909f,,,,,,,,,,,731.8963,732.8873,,,733.3869,733.6369,,145,145,,,,,,,,,,,,,,,,bars/020.png,bars/mask004.png,,,,,,,,,,,,2,2,,,,,,,7,8,7,10,,,,,,,,,,,732.8873,733.3868,733.6369,734.6211,space,0.972,,734.6212,30,25,735.6202,735.6203,735.6213,,,,0,10,10,10,1,115,170,,,,,,,,
,,5f37827296047220405dccd3,65b1a114615e993797c11079,2024-01-24_17h45.59.499,bars,2023.2.3,Win32,60.24096386,657b66ea316d21385b68909f,,,,,,,,,,,735.6218,736.6197,,,737.1202,737.3704,,132,132,,,,,,,,,,,,,,,,bars/023.png,bars/mask000.png,,,,,,,,,,,,4,2,,,,,,,9,10,8,9,,,,,,,,,,,736.6198,737.1202,737.3704,739.0535,space,1.6704,,739.0536,68,17,740.0529,740.0529,740.0541,,,,0,11,11,11,1,20,115,,,,,,,,
,,5f37827296047220405dccd3,65b1a114615e993797c11079,2024-01-24_17h45.59.499,bars,2023.2.3,Win32,60.24096386,657b66ea316d21385b68909f,,,,,,,,,,,740.0545,741.0532,,,741.5534,741.8037,,157,157,,,,,,,,,,,,,,,,bars/043.png,bars/mask008.png,,,,,,,,,,,,1,2,,,,,,,10,10,9,10,,,,,,,,,,,741.0533,741.5534,741.8037,744.3705,space,2.5593,,744.3706,53,27,745.37,745.37,745.3793,,,,0,12,12,12,1,30,130,,,,,,,,
,,5f37827296047220405dccd3,65b1a114615e993797c11079,2024-01-24_17h45.59.499,bars,2023.2.3,Win32,60.24096386,657b66ea316d21385b68909f,,,,,,,,,,,745.3793,746.3699,,,746.8697,747.1197,,109,-71,,,,,,,,,,,,,,,,bars/039.png,bars/mask005.png,,,,,,,,,,,,7,2,,,,,,,8,8,8,8,,,,,,,,,,,746.37,746.8697,747.1197,751.4702,space,4.3352,,751.4703,66,4,752.4696,752.4697,752.4784,,,,0,13,13,13,1,175,105,,,,,,,,
,,5f37827296047220405dccd3,65b1a114615e993797c11079,2024-01-24_17h45.59.499,bars,2023.2.3,Win32,60.24096386,657b66ea316d21385b68909f,,,,,,,,,,,752.4786,753.4695,,,753.9694,754.2196,,129,129,,,,,,,,,,,,,,,,bars/004.png,bars/mask006.png,,,,,,,,,,,,9,2,,,,,,,10,10,10,10,,,,,,,,,,,753.4696,753.9693,754.2197,757.0192,space,2.7826,,757.0193,76,4,758.0193,758.0194,758.0284,,,,0,14,14,14,1,25,125,,,,,,,,
,,5f37827296047220405dccd3,65b1a114615e993797c11079,2024-01-24_17h45.59.499,bars,2023.2.3,Win32,60.24096386,657b66ea316d21385b68909f,,,,,,,,,,,758.0285,759.0193,,,759.5193,759.7694,,110,-70,,,,,,,,,,,,,,,,bars/045.png,bars/mask001.png,,,,,,,,,,,,4,1,,,,,,,8,10,6,10,,,,,,,,,,,759.0193,759.5193,759.7695,764.4521,space,4.6672,,764.4521,10,80,765.4525,765.4525,765.4623,,,,0,15,15,15,1,100,10,,,,,,,,
,,5f37827296047220405dccd3,65b1a114615e993797c11079,2024-01-24_17h45.59.499,bars,2023.2.3,Win32,60.24096386,657b66ea316d21385b68909f,,,,,,,,,,,765.4625,766.4521,,,766.9524,767.2023,,35,215,,,,,,,,,,,,,,,,bars/012.png,bars/mask009.png,,,,,,,,,,,,3,2,,,,,,,10,10,10,9,,,,,,,,,,,766.4521,766.9523,767.2025,770.0192,space,2.8038,,770.0193,55,20,771.0181,771.0182,771.0293,,,,0,16,16,16,1,90,15,,,,,,,,
,,5f37827296047220405dccd3,65b1a114615e993797c11079,2024-01-24_17h45.59.499,bars,2023.2.3,Win32,60.24096386,657b66ea316d21385b68909f,,,,,,,,,,,771.0296,772.0188,,,772.5189,772.7688,,59,59,,,,,,,,,,,,,,,,bars/042.png,bars/mask004.png,,,,,,,,,,,,5,2,,,,,,,10,10,10,10,,,,,,,,,,,772.0188,772.5187,772.7688,774.3852,space,1.6091,,774.3853,86,16,775.3852,775.3852,775.3944,,,,0,17,17,17,1,145,75,,,,,,,,
,,5f37827296047220405dccd3,65b1a114615e993797c11079,2024-01-24_17h45.59.499,bars,2023.2.3,Win32,60.24096386,657b66ea316d21385b68909f,,,,,,,,,,,775.3948,776.3846,,,776.8851,777.135,,64,64,,,,,,,,,,,,,,,,bars/021.png,bars/mask000.png,,,,,,,,,,,,8,2,,,,,,,10,10,9,10,,,,,,,,,,,776.3846,776.885,777.135,781.7851,space,4.6329,,781.7851,89,6,782.7844,782.7844,782.7937,,,,0,18,18,18,1,155,70,,,,,,,,
,,5f37827296047220405dccd3,65b1a114615e993797c11079,2024-01-24_17h45.59.499,bars,2023.2.3,Win32,60.24096386,657b66ea316d21385b68909f,,,,,,,,,,,782.7939,783.7844,,,784.2844,784.5344,,13,13,,,,,,,,,,,,,,,,bars/014.png,bars/mask001.png,,,,,,,,,,,,5,2,,,,,,,8,8,10,8,,,,,,,,,,,783.7844,784.2844,784.5344,785.9515,space,1.4084,,785.9516,67,13,786.9515,786.9515,786.9525,,,,0,19,19,19,1,80,0,,,,,,,,
,,5f37827296047220405dccd3,65b1a114615e993797c11079,2024-01-24_17h45.59.499,bars,2023.2.3,Win32,60.24096386,657b66ea316d21385b68909f,,,,,,,,,,,786.9527,787.9516,,,788.4515,788.7011,,132,-48,,,,,,,,,,,,,,,,bars/005.png,bars/mask003.png,,,,,,,,,,,,4,2,,,,,,,10,6,10,5,,,,,,,,,,,787.9516,788.4515,788.7011,791.9185,space,3.2075,,791.9185,58,8,792.9178,792.9178,792.9267,,,,0,20,20,20,1,10,140,,,,,,,,
,,5f37827296047220405dccd3,65b1a114615e993797c11079,2024-01-24_17h45.59.499,bars,2023.2.3,Win32,60.24096386,657b66ea316d21385b68909f,,,,,,,,,,,792.9268,793.9177,,,794.4179,794.6678,,89,89,,,,,,,,,,,,,,,,bars/006.png,bars/mask008.png,,,,,,,,,,,,3,2,,,,,,,10,4,10,5,,,,,,,,,,,793.9178,794.4179,794.6679,797.6682,space,2.9856,,797.6683,54,11,798.6674,798.6675,798.6763,,,,0,21,21,21,1,35,100,,,,,,,,
,,5f37827296047220405dccd3,65b1a114615e993797c11079,2024-01-24_17h45.59.499,bars,2023.2.3,Win32,60.24096386,657b66ea316d21385b68909f,,,,,,,,,,,798.6764,799.6674,,,800.1676,800.4176,,39,39,,,,,,,,,,,,,,,,bars/042.png,bars/mask003.png,,,,,,,,,,,,0,2,,,,,,,8,2,9,0,,,,,,,,,,,799.6676,800.1675,800.4176,803.5343,space,3.1002,,803.5344,74,36,804.5334,804.5334,804.5422,,,,0,22,22,22,1,145,75,,,,,,,,
,,5f37827296047220405dccd3,65b1a114615e993797c11079,2024-01-24_17h45.59.499,bars,2023.2.3,Win32,60.24096386,657b66ea316d21385b68909f,,,,,,,,,,,804.5424,805.5335,,,806.0332,806.2836,,18,18,,,,,,,,,,,,,,,,bars/013.png,bars/mask005.png,,,,,,,,,,,,2,2,,,,,,,6,4,6,3,,,,,,,,,,,805.5336,806.0332,806.2836,807.8336,space,1.5332,,807.8337,57,8,808.8336,808.8337,808.8347,,,,0,23,23,23,1,75,10,,,,,,,,
,,5f37827296047220405dccd3,65b1a114615e993797c11079,2024-01-24_17h45.59.499,bars,2023.2.3,Win32,60.24096386,657b66ea316d21385b68909f,,,,,,,,,,,808.8349,809.8335,,,810.3338,810.5837,,48,228,,,,,,,,,,,,,,,,bars/044.png,bars/mask008.png,,,,,,,,,,,,1,1,,,,,,,8,6,8,6,,,,,,,,,,,809.8335,810.3338,810.5837,812.9003,space,2.3007,,812.9003,27,73,813.9001,813.9002,813.9097,,,,0,24,24,24,1,75,155,,,,,,,,
,,5f37827296047220405dccd3,65b1a114615e993797c11079,2024-01-24_17h45.59.499,bars,2023.2.3,Win32,60.24096386,657b66ea316d21385b68909f,,,,,,,,,,,813.9099,814.9002,,,815.4003,815.6501,,116,-64,,,,,,,,,,,,,,,,bars/039.png,bars/mask001.png,,,,,,,,,,,,3,2,,,,,,,10,4,10,5,,,,,,,,,,,814.9003,815.4001,815.6502,818.4833,space,2.8217,,818.4833,59,11,819.4834,819.4834,819.4934,,,,0,25,25,25,1,175,105,,,,,,,,
,,5f37827296047220405dccd3,65b1a114615e993797c11079,2024-01-24_17h45.59.499,bars,2023.2.3,Win32,60.24096386,657b66ea316d21385b68909f,,,,,,,,,,,819.4937,820.483,,,820.9832,821.233,,138,138,,,,,,,,,,,,,,,,bars/044.png,bars/mask008.png,,,,,,,,,,,,1,2,,,,,,,10,2,10,2,,,,,,,,,,,820.483,820.9832,821.2331,822.5666,space,1.3172,,822.5666,63,17,823.5661,823.5662,823.5755,,,,0,26,26,26,1,75,155,,,,,,,,
,,5f37827296047220405dccd3,65b1a114615e993797c11079,2024-01-24_17h45.59.499,bars,2023.2.3,Win32,60.24096386,657b66ea316d21385b68909f,,,,,,,,,,,823.5757,824.5663,,,825.0663,825.3165,,39,219,,,,,,,,,,,,,,,,bars/029.png,bars/mask004.png,,,,,,,,,,,,3,2,,,,,,,8,4,7,4,,,,,,,,,,,824.5664,825.0662,825.3165,828.4167,space,3.0871,,828.4168,51,6,829.4161,829.4161,829.425,,,,0,27,27,27,1,90,45,,,,,,,,
,,5f37827296047220405dccd3,65b1a114615e993797c11079,2024-01-24_17h45.59.499,bars,2023.2.3,Win32,60.24096386,657b66ea316d21385b68909f,,,,,,,,,,,829.4253,830.4156,,,830.9159,831.1661,,47,47,,,,,,,,,,,,,,,,bars/029.png,bars/mask000.png,,,,,,,,,,,,7,2,,,,,,,6,6,4,7,,,,,,,,,,,830.4156,830.9158,831.1661,833.1999,space,2.0264,,833.2,43,2,834.1992,834.1994,834.2088,,,,0,28,28,28,1,90,45,,,,,,,,
,,5f37827296047220405dccd3,65b1a114615e993797c11079,2024-01-24_17h45.59.499,bars,2023.2.3,Win32,60.24096386,657b66ea316d21385b68909f,,,,,,,,,,,834.2089,835.1992,,,835.6993,835.9492,,1,1,,,,,,,,,,,,,,,,bars/014.png,bars/mask004.png,,,,,,,,,,,,4,2,,,,,,,4,4,3,4,,,,,,,,,,,835.1993,835.6993,835.9494,839.9655,space,4.0104,,839.9655,79,1,840.9655,840.9656,840.9747,,,,0,29,29,29,1,80,0,,,,,,,,
,,5f37827296047220405dccd3,65b1a114615e993797c11079,2024-01-24_17h45.59.499,bars,2023.2.3,Win32,60.24096386,657b66ea316d21385b68909f,,,,,,,,,,,840.9749,841.9651,,,842.4656,842.7153,,141,-39,,,,,,,,,,,,,,,,bars/044.png,bars/mask001.png,,,,,,,,,,,,2,2,,,,,,,6,2,6,3,,,,,,,,,,,841.9651,842.4655,842.7154,846.0494,space,3.3216,,846.0495,66,14,847.0484,847.0485,847.0576,,,,0,30,30,30,1,75,155,,,,,,,,
,,5f37827296047220405dccd3,65b1a114615e993797c11079,2024-01-24_17h45.59.499,bars,2023.2.3,Win32,60.24096386,657b66ea316d21385b68909f,,,,,,,,,,,847.0578,848.0484,,,848.5488,848.7986,,150,-30,,,,,,,,,,,,,,,,bars/043.png,bars/mask000.png,,,,,,,,,,,,0,2,,,,,,,4,0,5,0,,,,,,,,,,,848.0485,848.5487,848.7986,851.4989,space,2.6862,,851.499,60,20,852.4981,852.4981,852.5069,,,,0,31,31,31,1,30,130,,,,,,,,
,,5f37827296047220405dccd3,65b1a114615e993797c11079,2024-01-24_17h45.59.499,bars,2023.2.3,Win32,60.24096386,657b66ea316d21385b68909f,,,,,,,,,,,852.5071,853.498,,,853.9983,854.2484,,51,231,,,,,,,,,,,,,,,,bars/007.png,bars/mask001.png,,,,,,,,,,,,2,2,,,,,,,6,2,6,2,,,,,,,,,,,853.4981,853.9982,854.2484,857.0148,space,2.7581,,857.0148,56,4,858.0143,858.0144,858.0236,,,,0,32,32,32,1,175,55,,,,,,,,
,,5f37827296047220405dccd3,65b1a114615e993797c11079,2024-01-24_17h45.59.499,bars,2023.2.3,Win32,60.24096386,657b66ea316d21385b68909f,,,,,,,,,,,858.0239,859.0145,,,859.5144,859.7644,,161,161,,,,,,,,,,,,,,,,bars/036.png,bars/mask004.png,,,,,,,,,,,,5,1,,,,,,,8,4,10,5,,,,,,,,,,,859.0146,859.5143,859.7645,862.0147,space,2.2362,,862.0148,16,39,863.0142,863.0142,863.0169,,,,0,33,33,33,1,145,20,,,,,,,,
,,5f37827296047220405dccd3,65b1a114615e993797c11079,2024-01-24_17h45.59.499,bars,2023.2.3,Win32,60.24096386,657b66ea316d21385b68909f,,,,,,,,,,,863.0172,864.0141,,,864.5144,864.7641,,57,57,,,,,,,,,,,,,,,,bars/030.png,bars/mask000.png,,,,,,,,,,,,4,2,,,,,,,10,6,8,5,,,,,,,,,,,864.0141,864.5144,864.7641,867.4815,space,2.7008,,867.4818,83,8,868.4804,868.4806,868.4902,,,,0,34,34,34,1,140,65,,,,,,,,
,,5f37827296047220405dccd3,65b1a114615e993797c11079,2024-01-24_17h45.59.499,bars,2023.2.3,Win32,60.24096386,657b66ea316d21385b68909f,,,,,,,,,,,868.4904,869.4811,,,869.981,870.2309,,59,59,,,,,,,,,,,,,,,,bars/042.png,bars/mask000.png,,,,,,,,,,,,4,2,,,,,,,10,8,10,8,,,,,,,,,,,869.4811,869.9809,870.2311,872.3978,space,2.1595,,872.3979,86,16,873.3973,873.3975,873.4066,,,,0,35,35,35,1,145,75,,,,,,,,
,,5f37827296047220405dccd3,65b1a114615e993797c11079,2024-01-24_17h45.59.499,bars,2023.2.3,Win32,60.24096386,657b66ea316d21385b68909f,,,,,,,,,,,873.4068,874.3975,,,874.8976,875.1475,,22,202,,,,,,,,,,,,,,,,bars/040.png,bars/mask005.png,,,,,,,,,,,,4,2,,,,,,,8,10,8,10,,,,,,,,,,,874.3976,874.8976,875.1475,877.5969,space,2.4323,,877.597,62,17,878.5972,878.5972,878.6061,,,,0,36,36,36,1,140,5,,,,,,,,
,,5f37827296047220405dccd3,65b1a114615e993797c11079,2024-01-24_17h45.59.499,bars,2023.2.3,Win32,60.24096386,657b66ea316d21385b68909f,,,,,,,,,,,878.6063,879.597,,,880.0968,880.3466,,138,138,,,,,,,,,,,,,,,,bars/005.png,bars/mask002.png,,,,,,,,,,,,8,2,,,,,,,6,10,5,9,,,,,,,,,,,879.597,880.0967,880.3468,882.8638,space,2.4996,,882.864,52,2,883.8634,883.8635,883.8724,,,,0,37,37,37,1,10,140,,,,,,,,
,,5f37827296047220405dccd3,65b1a114615e993797c11079,2024-01-24_17h45.59.499,bars,2023.2.3,Win32,60.24096386,657b66ea316d21385b68909f,,,,,,,,,,,883.8725,884.8633,,,885.3634,885.6129,,91,-89,,,,,,,,,,,,,,,,bars/019.png,bars/mask007.png,,,,,,,,,,,,4,2,,,,,,,4,8,4,8,,,,,,,,,,,884.8634,885.3634,885.613,889.0803,space,3.4506,,889.0803,46,14,890.08,890.08,890.0894,,,,0,38,38,38,1,45,105,,,,,,,,
,,5f37827296047220405dccd3,65b1a114615e993797c11079,2024-01-24_17h45.59.499,bars,2023.2.3,Win32,60.24096386,657b66ea316d21385b68909f,,,,,,,,,,,890.0896,891.08,,,891.58,891.8301,,133,133,,,,,,,,,,,,,,,,bars/024.png,bars/mask008.png,,,,,,,,,,,,1,1,,,,,,,2,6,2,5,,,,,,,,,,,891.0801,891.58,891.8302,893.1804,space,1.3346,,893.1805,13,37,894.1799,894.18,894.1824,,,,0,39,39,39,1,120,170,,,,,,,,
,,5f37827296047220405dccd3,65b1a114615e993797c11079,2024-01-24_17h45.59.499,bars,2023.2.3,Win32,60.24096386,657b66ea316d21385b68909f,,,,,,,,,,,894.1827,895.1797,,,895.6793,895.9296,,56,56,,,,,,,,,,,,,,,,bars/029.png,bars/mask003.png,,,,,,,,,,,,4,2,,,,,,,4,8,5,7,,,,,,,,,,,895.1797,895.6793,895.9296,898.2132,space,2.2668,,898.2132,34,11,899.2129,899.2129,899.2226,,,,0,40,40,40,1,90,45,,,,,,,,
,,5f37827296047220405dccd3,65b1a114615e993797c11079,2024-01-24_17h45.59.499,bars,2023.2.3,Win32,60.24096386,657b66ea316d21385b68909f,,,,,,,,,,,899.2229,900.2127,,,900.713,900.9629,,76,76,,,,,,,,,,,,,,,,bars/011.png,bars/mask006.png,,,,,,,,,,,,4,2,,,,,,,2,6,2,5,,,,,,,,,,,900.2128,900.7129,900.963,904.1962,space,3.2196,,904.1964,84,9,905.1959,905.196,905.2049,,,,0,41,41,41,1,160,85,,,,,,,,
,,5f37827296047220405dccd3,65b1a114615e993797c11079,2024-01-24_17h45.59.499,bars,2023.2.3,Win32,60.24096386,657b66ea316d21385b68909f,,,,,,,,,,,905.2051,906.1958,,,906.6959,906.9454,,146,-34,,,,,,,,,,,,,,,,bars/048.png,bars/mask005.png,,,,,,,,,,,,0,2,,,,,,,0,4,0,3,,,,,,,,,,,906.1959,906.6957,906.9456,909.163,space,2.2047,,909.1632,84,29,910.1625,910.1626,910.1719,,,,0,42,42,42,1,50,175,,,,,,,,
,,5f37827296047220405dccd3,65b1a114615e993797c11079,2024-01-24_17h45.59.499,bars,2023.2.3,Win32,60.24096386,657b66ea316d21385b68909f,,,,,,,,,,,910.1721,911.1627,,,911.6624,911.9119,,64,244,,,,,,,,,,,,,,,,bars/017.png,bars/mask006.png,,,,,,,,,,,,1,2,,,,,,,2,2,1,3,,,,,,,,,,,911.1627,911.6624,911.912,915.0628,space,3.141,,915.0629,81,19,916.062,916.062,916.0712,,,,0,43,43,43,1,145,45,,,,,,,,
,,5f37827296047220405dccd3,65b1a114615e993797c11079,2024-01-24_17h45.59.499,bars,2023.2.3,Win32,60.24096386,657b66ea316d21385b68909f,,,,,,,,,,,916.0714,917.0622,,,917.5624,917.8121,,69,249,,,,,,,,,,,,,,,,bars/038.png,bars/mask004.png,,,,,,,,,,,,4,2,,,,,,,4,4,5,4,,,,,,,,,,,917.0622,917.5624,917.8121,921.4789,space,3.6493,,921.479,84,1,922.4782,922.4783,922.4874,,,,0,44,44,44,1,165,70,,,,,,,,
,,5f37827296047220405dccd3,65b1a114615e993797c11079,2024-01-24_17h45.59.499,bars,2023.2.3,Win32,60.24096386,657b66ea316d21385b68909f,,,,,,,,,,,922.4876,923.4786,,,923.9783,924.2284,,53,53,,,,,,,,,,,,,,,,bars/017.png,bars/mask004.png,,,,,,,,,,,,1,2,,,,,,,6,2,5,2,,,,,,,,,,,923.4786,923.9782,924.2284,928.0121,space,3.7716,,928.0122,88,8,929.0117,929.0117,929.0209,,,,0,45,45,45,1,145,45,,,,,,,,
,,5f37827296047220405dccd3,65b1a114615e993797c11079,2024-01-24_17h45.59.499,bars,2023.2.3,Win32,60.24096386,657b66ea316d21385b68909f,,,,,,,,,,,929.0211,930.0113,,,930.5118,930.7617,,126,126,,,,,,,,,,,,,,,,bars/043.png,bars/mask006.png,,,,,,,,,,,,2,2,,,,,,,4,4,5,2,,,,,,,,,,,930.0114,930.5118,930.7617,933.9449,space,3.1664,,933.945,84,4,934.9445,934.9445,934.9538,,,,0,46,46,46,1,30,130,,,,,,,,
,,5f37827296047220405dccd3,65b1a114615e993797c11079,2024-01-24_17h45.59.499,bars,2023.2.3,Win32,60.24096386,657b66ea316d21385b68909f,,,,,,,,,,,934.954,935.9443,,,936.444,936.6945,,30,210,,,,,,,,,,,,,,,,bars/009.png,bars/mask006.png,,,,,,,,,,,,4,1,,,,,,,6,2,7,2,,,,,,,,,,,935.9443,936.444,936.6945,939.5945,space,2.8859,,939.5946,15,75,940.5939,940.5939,940.6036,,,,0,47,47,47,1,15,105,,,,,,,,
,,5f37827296047220405dccd3,65b1a114615e993797c11079,2024-01-24_17h45.59.499,bars,2023.2.3,Win32,60.24096386,657b66ea316d21385b68909f,,,,,,,,,,,940.6039,941.594,,,942.094,942.3442,,22,202,,,,,,,,,,,,,,,,bars/033.png,bars/mask009.png,,,,,,,,,,,,3,1,,,,,,,4,4,3,3,,,,,,,,,,,941.594,942.0939,942.3443,944.0278,space,1.6747,,944.0278,3,47,945.0271,945.0271,945.0282,,,,0,48,48,48,1,25,155,,,,,,,,
,,5f37827296047220405dccd3,65b1a114615e993797c11079,2024-01-24_17h45.59.499,bars,2023.2.3,Win32,60.24096386,657b66ea316d21385b68909f,,,,,,,,,,,945.0285,946.0275,,,946.5276,946.7776,,46,46,,,,,,,,,,,,,,,,bars/017.png,bars/mask008.png,,,,,,,,,,,,2,2,,,,,,,2,2,1,2,,,,,,,,,,,946.0275,946.5276,946.7776,948.7281,space,1.9427,,948.7282,81,1,949.7273,949.7273,949.737,,,,0,49,49,49,1,145,45,,,,,,,,
,,5f37827296047220405dccd3,65b1a114615e993797c11079,2024-01-24_17h45.59.499,bars,2023.2.3,Win32,60.24096386,657b66ea316d21385b68909f,,,,,,,,,,,,,,,,,,,,,,,,,,,,,,,,,,,,,,,,,,,,,,,,,,,,,,,,,,,,,,,,,,,,,,,,,,,,,,,,,,,,,,,,,,,,,949.7371,1009.7414,0,1,1,1,1,sequence_tables/blk020.csv
,,5f37827296047220405dccd3,65b1a114615e993797c11079,2024-01-24_17h45.59.499,bars,2023.2.3,Win32,60.24096386,657b66ea316d21385b68909f,,,,,,,,,,,1027.9379,1028.9239,,,1029.424,1029.6734,,41,41,,,,,,,,,,,,,,,,bars/047.png,bars/mask000.png,,,,,,,,,,,,1,1,,,,,,,5,5,5,6,,,,,,1009.7512,1027.9237,space,18.1632,,1028.924,1029.4238,1029.6734,1030.6409,space,0.9533,,1030.641,26,29,1031.6403,1031.6403,1031.6426,,,,0,0,0,0,1,15,70,,,,,,,,
,,5f37827296047220405dccd3,65b1a114615e993797c11079,2024-01-24_17h45.59.499,bars,2023.2.3,Win32,60.24096386,657b66ea316d21385b68909f,,,,,,,,,,,1031.6429,1032.6396,,,1033.1402,1033.3902,,35,35,,,,,,,,,,,,,,,,bars/008.png,bars/mask006.png,,,,,,,,,,,,0,2,,,,,,,3,3,1,3,,,,,,,,,,,1032.6398,1033.1402,1033.3902,1035.6407,space,2.2422,,1035.6408,75,35,1036.6395,1036.6395,1036.6494,,,,0,1,1,1,1,110,0,,,,,,,,
,,5f37827296047220405dccd3,65b1a114615e993797c11079,2024-01-24_17h45.59.499,bars,2023.2.3,Win32,60.24096386,657b66ea316d21385b68909f,,,,,,,,,,,1036.6495,1037.6399,,,1038.1401,1038.39,,62,62,,,,,,,,,,,,,,,,bars/034.png,bars/mask007.png,,,,,,,,,,,,6,2,,,,,,,1,5,2,7,,,,,,,,,,,1037.6401,1038.14,1038.3901,1040.5901,space,2.1899,,1040.5902,63,3,1041.5893,1041.5894,1041.5907,,,,0,2,2,2,1,125,65,,,,,,,,
,,5f37827296047220405dccd3,65b1a114615e993797c11079,2024-01-24_17h45.59.499,bars,2023.2.3,Win32,60.24096386,657b66ea316d21385b68909f,,,,,,,,,,,1041.5911,1042.5898,,,1043.0897,1043.3395,,119,119,,,,,,,,,,,,,,,,bars/000.png,bars/mask008.png,,,,,,,,,,,,1,2,,,,,,,0,7,0,9,,,,,,,,,,,1042.5899,1043.0897,1043.3395,1044.6062,space,1.261,,1044.6063,79,26,1045.6063,1045.6065,1045.6074,,,,0,3,3,3,1,40,145,,,,,,,,
,,5f37827296047220405dccd3,65b1a114615e993797c11079,2024-01-24_17h45.59.499,bars,2023.2.3,Win32,60.24096386,657b66ea316d21385b68909f,,,,,,,,,,,1045.6078,1046.606,,,1047.1062,1047.3564,,74,74,,,,,,,,,,,,,,,,bars/041.png,bars/mask005.png,,,,,,,,,,,,3,2,,,,,,,0,5,2,4,,,,,,,,,,,1046.6062,1047.1061,1047.3564,1049.2064,space,1.8359,,1049.2064,54,11,1050.206,1050.206,1050.2153,,,,0,4,4,4,1,20,85,,,,,,,,
,,5f37827296047220405dccd3,65b1a114615e993797c11079,2024-01-24_17h45.59.499,bars,2023.2.3,Win32,60.24096386,657b66ea316d21385b68909f,,,,,,,,,,,1050.2154,1051.206,,,1051.7059,1051.956,,34,34,,,,,,,,,,,,,,,,bars/022.png,bars/mask006.png,,,,,,,,,,,,4,2,,,,,,,2,7,3,8,,,,,,,,,,,1051.2061,1051.7059,1051.9561,1053.1398,space,1.1654,,1053.1399,61,14,1054.1393,1054.1393,1054.1484,,,,0,5,5,5,1,95,20,,,,,,,,
,,5f37827296047220405dccd3,65b1a114615e993797c11079,2024-01-24_17h45.59.499,bars,2023.2.3,Win32,60.24096386,657b66ea316d21385b68909f,,,,,,,,,,,1054.1486,1055.1392,,,1055.6394,1055.8892,,120,120,,,,,,,,,,,,,,,,bars/041.png,bars/mask005.png,,,,,,,,,,,,0,2,,,,,,,4,9,4,10,,,,,,,,,,,1055.1393,1055.6393,1055.8893,1057.373,space,1.4664,,1057.3731,80,35,1058.3724,1058.3724,1058.3815,,,,0,6,6,6,1,20,85,,,,,,,,
,,5f37827296047220405dccd3,65b1a114615e993797c11079,2024-01-24_17h45.59.499,bars,2023.2.3,Win32,60.24096386,657b66ea316d21385b68909f,,,,,,,,,,,1058.3818,1059.3723,,,1059.8726,1060.1224,,145,145,,,,,,,,,,,,,,,,bars/043.png,bars/mask003.png,,,,,,,,,,,,5,2,,,,,,,2,10,1,9,,,,,,,,,,,1059.3724,1059.8724,1060.1225,1062.156,space,2.0285,,1062.156,65,15,1063.1553,1063.1553,1063.1646,,,,0,7,7,7,1,30,130,,,,,,,,
,,5f37827296047220405dccd3,65b1a114615e993797c11079,2024-01-24_17h45.59.499,bars,2023.2.3,Win32,60.24096386,657b66ea316d21385b68909f,,,,,,,,,,,1063.1648,1064.1552,,,1064.6552,1064.9054,,32,32,,,,,,,,,,,,,,,,bars/013.png,bars/mask002.png,,,,,,,,,,,,2,2,,,,,,,4,8,2,8,,,,,,,,,,,1064.1553,1064.6552,1064.9054,1066.7388,space,1.8217,,1066.7389,43,22,1067.7386,1067.7387,1067.74,,,,0,8,8,8,1,75,10,,,,,,,,
,,5f37827296047220405dccd3,65b1a114615e993797c11079,2024-01-24_17h45.59.499,bars,2023.2.3,Win32,60.24096386,657b66ea316d21385b68909f,,,,,,,,,,,1067.7402,1068.7386,,,1069.2387,1069.4887,,30,210,,,,,,,,,,,,,,,,bars/045.png,bars/mask005.png,,,,,,,,,,,,2,2,,,,,,,6,6,7,7,,,,,,,,,,,1068.7386,1069.2387,1069.4887,1073.7713,space,4.2779,,1073.7713,70,20,1074.7718,1074.7718,1074.7812,,,,0,9,9,9,1,100,10,,,,,,,,
,,5f37827296047220405dccd3,65b1a114615e993797c11079,2024-01-24_17h45.59.499,bars,2023.2.3,Win32,60.24096386,657b66ea316d21385b68909f,,,,,,,,,,,1074.7815,1075.7717,,,1076.2715,1076.5215,,143,143,,,,,,,,,,,,,,,,bars/005.png,bars/mask000.png,,,,,,,,,,,,5,2,,,,,,,4,4,3,6,,,,,,,,,,,1075.7718,1076.2715,1076.5215,1078.2886,space,1.7494,,1078.2888,47,3,1079.2879,1079.288,1079.289,,,,0,10,10,10,1,10,140,,,,,,,,
,,5f37827296047220405dccd3,65b1a114615e993797c11079,2024-01-24_17h45.59.499,bars,2023.2.3,Win32,60.24096386,657b66ea316d21385b68909f,,,,,,,,,,,1079.2893,1080.2882,,,1080.7881,1081.0382,,122,122,,,,,,,,,,,,,,,,bars/019.png,bars/mask004.png,,,,,,,,,,,,3,2,,,,,,,6,6,6,8,,,,,,,,,,,1080.2883,1080.7881,1081.0382,1083.9045,space,2.8592,,1083.9047,77,17,1084.9045,1084.9045,1084.9134,,,,0,11,11,11,1,45,105,,,,,,,,
,,5f37827296047220405dccd3,65b1a114615e993797c11079,2024-01-24_17h45.59.499,bars,2023.2.3,Win32,60.24096386,657b66ea316d21385b68909f,,,,,,,,,,,1084.9136,1085.9043,,,1086.4044,1086.6542,,44,44,,,,,,,,,,,,,,,,bars/022.png,bars/mask006.png,,,,,,,,,,,,1,2,,,,,,,8,8,8,7,,,,,,,,,,,1085.9044,1086.4044,1086.6543,1088.9047,space,2.234,,1088.9048,51,24,1089.9041,1089.9041,1089.9051,,,,0,12,12,12,1,95,20,,,,,,,,
,,5f37827296047220405dccd3,65b1a114615e993797c11079,2024-01-24_17h45.59.499,bars,2023.2.3,Win32,60.24096386,657b66ea316d21385b68909f,,,,,,,,,,,1089.9053,1090.9039,,,1091.4039,1091.6536,,143,143,,,,,,,,,,,,,,,,bars/020.png,bars/mask000.png,,,,,,,,,,,,0,2,,,,,,,10,6,10,3,,,,,,,,,,,1090.9039,1091.4039,1091.6537,1092.8714,space,1.2,,1092.8714,28,27,1093.8706,1093.8706,1093.8718,,,,0,13,13,13,1,115,170,,,,,,,,
,,5f37827296047220405dccd3,65b1a114615e993797c11079,2024-01-24_17h45.59.499,bars,2023.2.3,Win32,60.24096386,657b66ea316d21385b68909f,,,,,,,,,,,1093.8722,1094.8707,,,1095.3709,1095.6208,,13,13,,,,,,,,,,,,,,,,bars/045.png,bars/mask003.png,,,,,,,,,,,,5,2,,,,,,,10,4,8,5,,,,,,,,,,,1094.8709,1095.3709,1095.6208,1097.4378,space,1.8021,,1097.4378,87,3,1098.4365,1098.4366,1098.4458,,,,0,14,14,14,1,100,10,,,,,,,,
,,5f37827296047220405dccd3,65b1a114615e993797c11079,2024-01-24_17h45.59.499,bars,2023.2.3,Win32,60.24096386,657b66ea316d21385b68909f,,,,,,,,,,,1098.446,1099.4372,,,1099.9366,1100.187,,151,-29,,,,,,,,,,,,,,,,bars/048.png,bars/mask002.png,,,,,,,,,,,,1,2,,,,,,,10,6,10,5,,,,,,,,,,,1099.4373,1099.9366,1100.187,1104.4036,space,4.2099,,1104.4037,79,24,1105.4031,1105.4032,1105.4127,,,,0,15,15,15,1,50,175,,,,,,,,
,,5f37827296047220405dccd3,65b1a114615e993797c11079,2024-01-24_17h45.59.499,bars,2023.2.3,Win32,60.24096386,657b66ea316d21385b68909f,,,,,,,,,,,1105.4129,1106.4035,,,1106.9034,1107.154,,50,50,,,,,,,,,,,,,,,,bars/025.png,bars/mask005.png,,,,,,,,,,,,6,2,,,,,,,10,8,10,9,,,,,,,,,,,1106.4036,1106.9033,1107.154,1109.9695,space,2.8092,,1109.9695,55,10,1110.97,1110.97,1110.979,,,,0,16,16,16,1,105,40,,,,,,,,
,,5f37827296047220405dccd3,65b1a114615e993797c11079,2024-01-24_17h45.59.499,bars,2023.2.3,Win32,60.24096386,657b66ea316d21385b68909f,,,,,,,,,,,1110.9792,1111.97,,,1112.47,1112.72,,147,-33,,,,,,,,,,,,,,,,bars/020.png,bars/mask000.png,,,,,,,,,,,,2,2,,,,,,,8,10,8,8,,,,,,,,,,,1111.97,1112.47,1112.7201,1114.9704,space,2.2404,,1114.9705,32,23,1115.9698,1115.9699,1115.9709,,,,0,17,17,17,1,115,170,,,,,,,,
,,5f37827296047220405dccd3,65b1a114615e993797c11079,2024-01-24_17h45.59.499,bars,2023.2.3,Win32,60.24096386,657b66ea316d21385b68909f,,,,,,,,,,,1115.9711,1116.9697,,,1117.4697,1117.7197,,48,228,,,,,,,,,,,,,,,,bars/025.png,bars/mask000.png,,,,,,,,,,,,7,2,,,,,,,6,8,4,9,,,,,,,,,,,1116.9698,1117.4696,1117.7197,1122.0526,space,4.3194,,1122.0528,57,8,1123.0528,1123.0528,1123.0617,,,,0,18,18,18,1,105,40,,,,,,,,
,,5f37827296047220405dccd3,65b1a114615e993797c11079,2024-01-24_17h45.59.499,bars,2023.2.3,Win32,60.24096386,657b66ea316d21385b68909f,,,,,,,,,,,1123.0619,1124.0528,,,1124.5528,1124.8028,,8,8,,,,,,,,,,,,,,,,bars/014.png,bars/mask008.png,,,,,,,,,,,,4,2,,,,,,,4,6,5,5,,,,,,,,,,,1124.0529,1124.5528,1124.8029,1126.4697,space,1.6554,,1126.4698,72,8,1127.4692,1127.4692,1127.4703,,,,0,19,19,19,1,80,0,,,,,,,,
,,5f37827296047220405dccd3,65b1a114615e993797c11079,2024-01-24_17h45.59.499,bars,2023.2.3,Win32,60.24096386,657b66ea316d21385b68909f,,,,,,,,,,,1127.4706,1128.4694,,,1128.9687,1129.2193,,157,-23,,,,,,,,,,,,,,,,bars/046.png,bars/mask004.png,,,,,,,,,,,,7,1,,,,,,,6,8,7,9,,,,,,,,,,,1128.4695,1128.9687,1129.2193,1132.3028,space,3.0664,,1132.303,2,72,1133.3024,1133.3024,1133.3119,,,,0,20,20,20,1,155,85,,,,,,,,
,,5f37827296047220405dccd3,65b1a114615e993797c11079,2024-01-24_17h45.59.499,bars,2023.2.3,Win32,60.24096386,657b66ea316d21385b68909f,,,,,,,,,,,1133.312,1134.3016,,,1134.8025,1135.0522,,6,6,,,,,,,,,,,,,,,,bars/039.png,bars/mask006.png,,,,,,,,,,,,3,1,,,,,,,4,10,5,10,,,,,,,,,,,1134.3016,1134.8024,1135.0524,1136.8689,space,1.806,,1136.869,11,81,1137.8689,1137.8689,1137.8701,,,,0,21,21,21,1,175,105,,,,,,,,
,,5f37827296047220405dccd3,65b1a114615e993797c11079,2024-01-24_17h45.59.499,bars,2023.2.3,Win32,60.24096386,657b66ea316d21385b68909f,,,,,,,,,,,1137.8704,1138.8685,,,1139.3689,1139.6188,,117,117,,,,,,,,,,,,,,,,bars/006.png,bars/mask000.png,,,,,,,,,,,,4,2,,,,,,,2,8,2,10,,,,,,,,,,,1138.8686,1139.3688,1139.6189,1141.8193,space,2.1877,,1141.8194,82,17,1142.8186,1142.8188,1142.8285,,,,0,22,22,22,1,35,100,,,,,,,,
,,5f37827296047220405dccd3,65b1a114615e993797c11079,2024-01-24_17h45.59.499,bars,2023.2.3,Win32,60.24096386,657b66ea316d21385b68909f,,,,,,,,,,,1142.8287,1143.8185,,,1144.3181,1144.5685,,113,113,,,,,,,,,,,,,,,,bars/037.png,bars/mask002.png,,,,,,,,,,,,4,2,,,,,,,0,6,0,6,,,,,,,,,,,1143.8185,1144.318,1144.5686,1146.4019,space,1.8268,,1146.4019,37,8,1147.4014,1147.4014,1147.4026,,,,0,23,23,23,1,150,105,,,,,,,,
,,5f37827296047220405dccd3,65b1a114615e993797c11079,2024-01-24_17h45.59.499,bars,2023.2.3,Win32,60.24096386,657b66ea316d21385b68909f,,,,,,,,,,,1147.4029,1148.4016,,,1148.9018,1149.1517,,21,21,,,,,,,,,,,,,,,,bars/032.png,bars/mask003.png,,,,,,,,,,,,9,2,,,,,,,2,8,2,9,,,,,,,,,,,1148.4017,1148.9018,1149.1518,1150.4346,space,1.2653,,1150.4347,76,1,1151.4347,1151.4347,1151.4357,,,,0,24,24,24,1,125,20,,,,,,,,
,,5f37827296047220405dccd3,65b1a114615e993797c11079,2024-01-24_17h45.59.499,bars,2023.2.3,Win32,60.24096386,657b66ea316d21385b68909f,,,,,,,,,,,1151.4361,1152.4343,,,1152.9348,1153.1843,,54,54,,,,,,,,,,,,,,,,bars/035.png,bars/mask003.png,,,,,,,,,,,,8,2,,,,,,,0,10,0,10,,,,,,,,,,,1152.4343,1152.9347,1153.1843,1154.9181,space,1.718,,1154.9181,59,6,1155.9179,1155.918,1155.9189,,,,0,25,25,25,1,175,60,,,,,,,,
,,5f37827296047220405dccd3,65b1a114615e993797c11079,2024-01-24_17h45.59.499,bars,2023.2.3,Win32,60.24096386,657b66ea316d21385b68909f,,,,,,,,,,,1155.9191,1156.918,,,1157.4181,1157.6681,,18,18,,,,,,,,,,,,,,,,bars/033.png,bars/mask008.png,,,,,,,,,,,,0,1,,,,,,,0,8,0,9,,,,,,,,,,,1156.9181,1157.4181,1157.6681,1159.5843,space,1.9077,,1159.5844,7,43,1160.5844,1160.5845,1160.594,,,,0,26,26,26,1,25,155,,,,,,,,
,,5f37827296047220405dccd3,65b1a114615e993797c11079,2024-01-24_17h45.59.499,bars,2023.2.3,Win32,60.24096386,657b66ea316d21385b68909f,,,,,,,,,,,1160.5942,1161.5842,,,1162.084,1162.3343,,133,133,,,,,,,,,,,,,,,,bars/005.png,bars/mask003.png,,,,,,,,,,,,4,2,,,,,,,0,6,3,5,,,,,,,,,,,1161.5842,1162.0839,1162.3343,1164.3345,space,1.9824,,1164.3346,57,7,1165.3336,1165.3337,1165.3358,,,,0,27,27,27,1,10,140,,,,,,,,
,,5f37827296047220405dccd3,65b1a114615e993797c11079,2024-01-24_17h45.59.499,bars,2023.2.3,Win32,60.24096386,657b66ea316d21385b68909f,,,,,,,,,,,1165.3362,1166.3336,,,1166.8338,1167.0839,,51,51,,,,,,,,,,,,,,,,bars/030.png,bars/mask001.png,,,,,,,,,,,,4,2,,,,,,,0,8,1,8,,,,,,,,,,,1166.3336,1166.8338,1167.0839,1168.8174,space,1.7224,,1168.8175,89,14,1169.8174,1169.8174,1169.8186,,,,0,28,28,28,1,140,65,,,,,,,,
,,5f37827296047220405dccd3,65b1a114615e993797c11079,2024-01-24_17h45.59.499,bars,2023.2.3,Win32,60.24096386,657b66ea316d21385b68909f,,,,,,,,,,,1169.819,1170.8174,,,1171.3171,1171.5671,,126,-54,,,,,,,,,,,,,,,,bars/023.png,bars/mask005.png,,,,,,,,,,,,5,2,,,,,,,0,6,2,8,,,,,,,,,,,1170.8174,1171.3171,1171.5672,1174.4177,space,2.8367,,1174.4177,74,11,1175.4168,1175.4169,1175.4258,,,,0,29,29,29,1,20,115,,,,,,,,
,,5f37827296047220405dccd3,65b1a114615e993797c11079,2024-01-24_17h45.59.499,bars,2023.2.3,Win32,60.24096386,657b66ea316d21385b68909f,,,,,,,,,,,1175.4259,1176.4169,,,1176.9167,1177.1668,,52,52,,,,,,,,,,,,,,,,bars/025.png,bars/mask007.png,,,,,,,,,,,,4,2,,,,,,,0,8,0,7,,,,,,,,,,,1176.417,1176.9167,1177.167,1178.4009,space,1.2172,,1178.401,53,12,1179.4003,1179.4004,1179.4014,,,,0,30,30,30,1,105,40,,,,,,,,
,,5f37827296047220405dccd3,65b1a114615e993797c11079,2024-01-24_17h45.59.499,bars,2023.2.3,Win32,60.24096386,657b66ea316d21385b68909f,,,,,,,,,,,1179.4018,1180.4003,,,1180.9002,1181.1496,,143,143,,,,,,,,,,,,,,,,bars/038.png,bars/mask002.png,,,,,,,,,,,,0,1,,,,,,,2,10,0,10,,,,,,,,,,,1180.4003,1180.9002,1181.1496,1182.9672,space,1.8083,,1182.9672,22,73,1183.9666,1183.9667,1183.9689,,,,0,31,31,31,1,165,70,,,,,,,,
,,5f37827296047220405dccd3,65b1a114615e993797c11079,2024-01-24_17h45.59.499,bars,2023.2.3,Win32,60.24096386,657b66ea316d21385b68909f,,,,,,,,,,,1183.9692,1184.9667,,,1185.4668,1185.7167,,54,54,,,,,,,,,,,,,,,,bars/002.png,bars/mask009.png,,,,,,,,,,,,0,2,,,,,,,4,10,5,9,,,,,,,,,,,1184.9667,1185.4668,1185.7167,1188.9667,space,3.2451,,1188.9668,76,31,1189.9664,1189.9664,1189.9763,,,,0,32,32,32,1,130,85,,,,,,,,
,,5f37827296047220405dccd3,65b1a114615e993797c11079,2024-01-24_17h45.59.499,bars,2023.2.3,Win32,60.24096386,657b66ea316d21385b68909f,,,,,,,,,,,1189.9765,1190.9664,,,1191.4665,1191.7163,,42,42,,,,,,,,,,,,,,,,bars/047.png,bars/mask001.png,,,,,,,,,,,,1,1,,,,,,,6,8,7,8,,,,,,,,,,,1190.9664,1191.4664,1191.7164,1192.8503,space,1.1248,,1192.8504,27,28,1193.8496,1193.8496,1193.8519,,,,0,33,33,33,1,15,70,,,,,,,,
,,5f37827296047220405dccd3,65b1a114615e993797c11079,2024-01-24_17h45.59.499,bars,2023.2.3,Win32,60.24096386,657b66ea316d21385b68909f,,,,,,,,,,,1193.8521,1194.8496,,,1195.3495,1195.5996,,129,129,,,,,,,,,,,,,,,,bars/023.png,bars/mask002.png,,,,,,,,,,,,4,2,,,,,,,4,6,4,7,,,,,,,,,,,1194.8497,1195.3494,1195.5997,1197.2826,space,1.6657,,1197.2827,71,14,1198.2825,1198.2825,1198.2923,,,,0,34,34,34,1,20,115,,,,,,,,
,,5f37827296047220405dccd3,65b1a114615e993797c11079,2024-01-24_17h45.59.499,bars,2023.2.3,Win32,60.24096386,657b66ea316d21385b68909f,,,,,,,,,,,1198.2925,1199.2822,,,1199.7824,1200.0327,,94,94,,,,,,,,,,,,,,,,bars/039.png,bars/mask000.png,,,,,,,,,,,,4,2,,,,,,,6,8,6,7,,,,,,,,,,,1199.2824,1199.7824,1200.0328,1202.0832,space,2.034,,1202.0834,81,11,1203.0826,1203.0826,1203.092,,,,0,35,35,35,1,175,105,,,,,,,,
,,5f37827296047220405dccd3,65b1a114615e993797c11079,2024-01-24_17h45.59.499,bars,2023.2.3,Win32,60.24096386,657b66ea316d21385b68909f,,,,,,,,,,,1203.0921,1204.0824,,,1204.5825,1204.8325,,119,119,,,,,,,,,,,,,,,,bars/006.png,bars/mask008.png,,,,,,,,,,,,3,2,,,,,,,8,10,7,9,,,,,,,,,,,1204.0824,1204.5825,1204.8325,1208.4827,space,3.6428,,1208.4827,84,19,1209.4823,1209.4824,1209.4912,,,,0,36,36,36,1,35,100,,,,,,,,
,,5f37827296047220405dccd3,65b1a114615e993797c11079,2024-01-24_17h45.59.499,bars,2023.2.3,Win32,60.24096386,657b66ea316d21385b68909f,,,,,,,,,,,1209.4914,1210.4816,,,1210.9823,1211.2322,,23,23,,,,,,,,,,,,,,,,bars/033.png,bars/mask006.png,,,,,,,,,,,,8,1,,,,,,,10,10,9,10,,,,,,,,,,,1210.4818,1210.9823,1211.2322,1213.2319,space,1.9903,,1213.232,2,48,1214.2321,1214.2321,1214.242,,,,0,37,37,37,1,25,155,,,,,,,,
,,5f37827296047220405dccd3,65b1a114615e993797c11079,2024-01-24_17h45.59.499,bars,2023.2.3,Win32,60.24096386,657b66ea316d21385b68909f,,,,,,,,,,,1214.2422,1215.2319,,,1215.7322,1215.9819,,126,126,,,,,,,,,,,,,,,,bars/000.png,bars/mask005.png,,,,,,,,,,,,3,2,,,,,,,10,8,10,8,,,,,,,,,,,1215.2319,1215.7321,1215.982,1217.6988,space,1.6995,,1217.6989,86,19,1218.6985,1218.6985,1218.7085,,,,0,38,38,38,1,40,145,,,,,,,,
,,5f37827296047220405dccd3,65b1a114615e993797c11079,2024-01-24_17h45.59.499,bars,2023.2.3,Win32,60.24096386,657b66ea316d21385b68909f,,,,,,,,,,,1218.7086,1219.6982,,,1220.1983,1220.4485,,39,219,,,,,,,,,,,,,,,,bars/014.png,bars/mask005.png,,,,,,,,,,,,0,2,,,,,,,10,10,10,9,,,,,,,,,,,1219.6982,1220.1982,1220.4485,1223.1985,space,2.7334,,1223.1986,41,39,1224.198,1224.198,1224.207,,,,0,39,39,39,1,80,0,,,,,,,,
,,5f37827296047220405dccd3,65b1a114615e993797c11079,2024-01-24_17h45.59.499,bars,2023.2.3,Win32,60.24096386,657b66ea316d21385b68909f,,,,,,,,,,,1224.2073,1225.1979,,,1225.6982,1225.9483,,77,77,,,,,,,,,,,,,,,,bars/046.png,bars/mask002.png,,,,,,,,,,,,6,2,,,,,,,10,8,9,8,,,,,,,,,,,1225.1979,1225.6982,1225.9485,1229.6484,space,3.6891,,1229.6485,78,8,1230.6476,1230.6477,1230.6565,,,,0,40,40,40,1,155,85,,,,,,,,
,,5f37827296047220405dccd3,65b1a114615e993797c11079,2024-01-24_17h45.59.499,bars,2023.2.3,Win32,60.24096386,657b66ea316d21385b68909f,,,,,,,,,,,1230.6567,1231.6478,,,1232.148,1232.398,,66,66,,,,,,,,,,,,,,,,bars/048.png,bars/mask000.png,,,,,,,,,,,,3,1,,,,,,,8,6,7,7,,,,,,,,,,,1231.6479,1232.1479,1232.3981,1235.7481,space,3.3334,,1235.7482,16,71,1236.7475,1236.7476,1236.7573,,,,0,41,41,41,1,50,175,,,,,,,,
,,5f37827296047220405dccd3,65b1a114615e993797c11079,2024-01-24_17h45.59.499,bars,2023.2.3,Win32,60.24096386,657b66ea316d21385b68909f,,,,,,,,,,,1236.7575,1237.7475,,,1238.2473,1238.4977,,62,62,,,,,,,,,,,,,,,,bars/018.png,bars/mask007.png,,,,,,,,,,,,0,2,,,,,,,10,4,10,3,,,,,,,,,,,1237.7475,1238.2473,1238.4977,1240.1807,space,1.6725,,1240.1809,88,28,1241.1801,1241.1803,1241.1826,,,,0,42,42,42,1,150,90,,,,,,,,
,,5f37827296047220405dccd3,65b1a114615e993797c11079,2024-01-24_17h45.59.499,bars,2023.2.3,Win32,60.24096386,657b66ea316d21385b68909f,,,,,,,,,,,1241.1829,1242.1805,,,1242.6807,1242.9307,,35,35,,,,,,,,,,,,,,,,bars/025.png,bars/mask004.png,,,,,,,,,,,,5,2,,,,,,,10,6,10,6,,,,,,,,,,,1242.1805,1242.6807,1242.9307,1244.3477,space,1.4095,,1244.3477,70,5,1245.3471,1245.3472,1245.3483,,,,0,43,43,43,1,105,40,,,,,,,,
,,5f37827296047220405dccd3,65b1a114615e993797c11079,2024-01-24_17h45.59.499,bars,2023.2.3,Win32,60.24096386,657b66ea316d21385b68909f,,,,,,,,,,,1245.3488,1246.3466,,,1246.8474,1247.0965,,145,145,,,,,,,,,,,,,,,,bars/016.png,bars/mask003.png,,,,,,,,,,,,2,2,,,,,,,10,4,9,5,,,,,,,,,,,1246.3466,1246.8473,1247.0966,1249.0308,space,1.9173,,1249.0309,75,20,1250.0301,1250.0302,1250.0313,,,,0,44,44,44,1,40,165,,,,,,,,
,,5f37827296047220405dccd3,65b1a114615e993797c11079,2024-01-24_17h45.59.499,bars,2023.2.3,Win32,60.24096386,657b66ea316d21385b68909f,,,,,,,,,,,1250.0316,1251.0301,,,1251.5303,1251.7804,,36,36,,,,,,,,,,,,,,,,bars/007.png,bars/mask005.png,,,,,,,,,,,,0,2,,,,,,,8,2,7,0,,,,,,,,,,,1251.0301,1251.5303,1251.7804,1253.1975,space,1.3995,,1253.1976,41,19,1254.1962,1254.1962,1254.2052,,,,0,45,45,45,1,175,55,,,,,,,,
,,5f37827296047220405dccd3,65b1a114615e993797c11079,2024-01-24_17h45.59.499,bars,2023.2.3,Win32,60.24096386,657b66ea316d21385b68909f,,,,,,,,,,,1254.2055,1255.1967,,,1255.6969,1255.9465,,134,134,,,,,,,,,,,,,,,,bars/037.png,bars/mask006.png,,,,,,,,,,,,2,1,,,,,,,6,4,4,4,,,,,,,,,,,1255.1968,1255.6968,1255.9465,1258.5303,space,2.5743,,1258.5304,16,29,1259.53,1259.5301,1259.5399,,,,0,46,46,46,1,150,105,,,,,,,,
,,5f37827296047220405dccd3,65b1a114615e993797c11079,2024-01-24_17h45.59.499,bars,2023.2.3,Win32,60.24096386,657b66ea316d21385b68909f,,,,,,,,,,,1259.5401,1260.5298,,,1261.0298,1261.2798,,43,43,,,,,,,,,,,,,,,,bars/030.png,bars/mask006.png,,,,,,,,,,,,0,2,,,,,,,8,2,9,1,,,,,,,,,,,1260.5299,1261.0296,1261.2799,1263.4968,space,2.204,,1263.4969,83,22,1264.4964,1264.4965,1264.5064,,,,0,47,47,47,1,140,65,,,,,,,,
,,5f37827296047220405dccd3,65b1a114615e993797c11079,2024-01-24_17h45.59.499,bars,2023.2.3,Win32,60.24096386,657b66ea316d21385b68909f,,,,,,,,,,,1264.5066,1265.4959,,,1265.9961,1266.2461,,132,-48,,,,,,,,,,,,,,,,bars/049.png,bars/mask007.png,,,,,,,,,,,,0,2,,,,,,,10,0,10,0,,,,,,,,,,,1265.4959,1265.9961,1266.2462,1268.6635,space,2.4091,,1268.6636,28,17,1269.6627,1269.6629,1269.6717,,,,0,48,48,48,1,160,115,,,,,,,,
,,5f37827296047220405dccd3,65b1a114615e993797c11079,2024-01-24_17h45.59.499,bars,2023.2.3,Win32,60.24096386,657b66ea316d21385b68909f,,,,,,,,,,,1269.6719,1270.6626,,,1271.1629,1271.4128,,42,42,,,,,,,,,,,,,,,,bars/031.png,bars/mask005.png,,,,,,,,,,,,2,2,,,,,,,10,2,10,3,,,,,,,,,,,1270.6627,1271.1627,1271.4129,1273.0794,space,1.6608,,1273.0795,78,7,1274.0794,1274.0794,1274.0885,,,,0,49,49,49,1,120,35,,,,,,,,
,,5f37827296047220405dccd3,65b1a114615e993797c11079,2024-01-24_17h45.59.499,bars,2023.2.3,Win32,60.24096386,657b66ea316d21385b68909f,,,,,,,,,,,,,,,,,,,,,,,,,,,,,,,,,,,,,,,,,,,,,,,,,,,,,,,,,,,,,,,,,,,,,,,,,,,,,,,,,,,,,,,,,,,,,1274.0885,1334.0766,0,2,2,0,1,sequence_tables/blk024.csv
,,5f37827296047220405dccd3,65b1a114615e993797c11079,2024-01-24_17h45.59.499,bars,2023.2.3,Win32,60.24096386,657b66ea316d21385b68909f,,,,,,,,,,,1337.4307,1338.4259,,,1338.9263,1339.1764,,43,223,,,,,,,,,,,,,,,,bars/013.png,bars/mask001.png,,,,,,,,,,,,0,1,,,,,,,10,2,10,0,,,,,,1334.086,1337.4268,space,3.3301,,1338.4259,1338.9262,1339.1765,1342.7932,space,3.599,,1342.7932,32,33,1343.7924,1343.7925,1343.8024,,,,0,0,0,0,1,75,10,,,,,,,,
,,5f37827296047220405dccd3,65b1a114615e993797c11079,2024-01-24_17h45.59.499,bars,2023.2.3,Win32,60.24096386,657b66ea316d21385b68909f,,,,,,,,,,,1343.8027,1344.7926,,,1345.2929,1345.5427,,134,-46,,,,,,,,,,,,,,,,bars/028.png,bars/mask002.png,,,,,,,,,,,,1,2,,,,,,,10,0,10,1,,,,,,,,,,,1344.7926,1345.2929,1345.5429,1348.6263,space,3.0651,,1348.6266,89,14,1349.6258,1349.6258,1349.636,,,,0,1,1,1,1,45,120,,,,,,,,
,,5f37827296047220405dccd3,65b1a114615e993797c11079,2024-01-24_17h45.59.499,bars,2023.2.3,Win32,60.24096386,657b66ea316d21385b68909f,,,,,,,,,,,1349.6362,1350.6256,,,1351.1259,1351.3759,,43,223,,,,,,,,,,,,,,,,bars/010.png,bars/mask006.png,,,,,,,,,,,,0,2,,,,,,,8,2,8,0,,,,,,,,,,,1350.6256,1351.1258,1351.3759,1355.0428,space,3.6551,,1355.0429,58,12,1356.0422,1356.0423,1356.0512,,,,0,2,2,2,1,165,55,,,,,,,,
,,5f37827296047220405dccd3,65b1a114615e993797c11079,2024-01-24_17h45.59.499,bars,2023.2.3,Win32,60.24096386,657b66ea316d21385b68909f,,,,,,,,,,,1356.0513,1357.0424,,,1357.5423,1357.7915,,132,132,,,,,,,,,,,,,,,,bars/003.png,bars/mask003.png,,,,,,,,,,,,0,2,,,,,,,6,0,6,0,,,,,,,,,,,1357.0424,1357.5423,1357.7915,1359.5096,space,1.7098,,1359.5097,73,8,1360.5088,1360.5089,1360.5178,,,,0,3,3,3,1,25,140,,,,,,,,
,,5f37827296047220405dccd3,65b1a114615e993797c11079,2024-01-24_17h45.59.499,bars,2023.2.3,Win32,60.24096386,657b66ea316d21385b68909f,,,,,,,,,,,1360.518,1361.5086,,,1362.0088,1362.2583,,130,130,,,,,,,,,,,,,,,,bars/040.png,bars/mask006.png,,,,,,,,,,,,5,1,,,,,,,8,0,8,0,,,,,,,,,,,1361.5086,1362.0087,1362.2585,1364.4924,space,2.2174,,1364.4925,10,55,1365.4919,1365.4919,1365.5016,,,,0,4,4,4,1,140,5,,,,,,,,
,,5f37827296047220405dccd3,65b1a114615e993797c11079,2024-01-24_17h45.59.499,bars,2023.2.3,Win32,60.24096386,657b66ea316d21385b68909f,,,,,,,,,,,1365.5018,1366.4918,,,1366.9918,1367.2419,,129,129,,,,,,,,,,,,,,,,bars/049.png,bars/mask006.png,,,,,,,,,,,,2,2,,,,,,,6,2,7,3,,,,,,,,,,,1366.4919,1366.9918,1367.242,1369.1081,space,1.8563,,1369.1081,31,14,1370.1083,1370.1083,1370.1184,,,,0,5,5,5,1,160,115,,,,,,,,
,,5f37827296047220405dccd3,65b1a114615e993797c11079,2024-01-24_17h45.59.499,bars,2023.2.3,Win32,60.24096386,657b66ea316d21385b68909f,,,,,,,,,,,1370.1187,1371.1081,,,1371.6084,1371.8579,,166,-14,,,,,,,,,,,,,,,,bars/008.png,bars/mask002.png,,,,,,,,,,,,2,2,,,,,,,8,4,6,3,,,,,,,,,,,1371.1081,1371.6083,1371.8581,1374.4249,space,2.5492,,1374.425,56,14,1375.4242,1375.4242,1375.4331,,,,0,6,6,6,1,110,0,,,,,,,,
,,5f37827296047220405dccd3,65b1a114615e993797c11079,2024-01-24_17h45.59.499,bars,2023.2.3,Win32,60.24096386,657b66ea316d21385b68909f,,,,,,,,,,,1375.4333,1376.4242,,,1376.9246,1377.174,,29,29,,,,,,,,,,,,,,,,bars/007.png,bars/mask008.png,,,,,,,,,,,,0,2,,,,,,,6,2,6,3,,,,,,,,,,,1376.4242,1376.9246,1377.1741,1378.2416,space,1.0581,,1378.2418,34,26,1379.2412,1379.2412,1379.2422,,,,0,7,7,7,1,175,55,,,,,,,,
,,5f37827296047220405dccd3,65b1a114615e993797c11079,2024-01-24_17h45.59.499,bars,2023.2.3,Win32,60.24096386,657b66ea316d21385b68909f,,,,,,,,,,,1379.2425,1380.2413,,,1380.7412,1380.9907,,127,-53,,,,,,,,,,,,,,,,bars/023.png,bars/mask004.png,,,,,,,,,,,,0,2,,,,,,,8,0,8,0,,,,,,,,,,,1380.2413,1380.7412,1380.9908,1385.5742,space,4.5661,,1385.5743,73,12,1386.5738,1386.5738,1386.5827,,,,0,8,8,8,1,20,115,,,,,,,,
,,5f37827296047220405dccd3,65b1a114615e993797c11079,2024-01-24_17h45.59.499,bars,2023.2.3,Win32,60.24096386,657b66ea316d21385b68909f,,,,,,,,,,,1386.5829,1387.5738,,,1388.0735,1388.3239,,125,125,,,,,,,,,,,,,,,,bars/022.png,bars/mask003.png,,,,,,,,,,,,0,1,,,,,,,6,0,7,0,,,,,,,,,,,1387.5739,1388.0735,1388.3239,1393.9736,space,5.6366,,1393.9736,30,75,1394.9732,1394.9733,1394.9843,,,,0,9,9,9,1,95,20,,,,,,,,
,,5f37827296047220405dccd3,65b1a114615e993797c11079,2024-01-24_17h45.59.499,bars,2023.2.3,Win32,60.24096386,657b66ea316d21385b68909f,,,,,,,,,,,1394.9846,1395.973,,,1396.4731,1396.7231,,158,158,,,,,,,,,,,,,,,,bars/015.png,bars/mask004.png,,,,,,,,,,,,2,2,,,,,,,8,2,7,2,,,,,,,,,,,1395.973,1396.473,1396.7231,1398.6737,space,1.9365,,1398.6738,48,2,1399.6735,1399.6735,1399.6758,,,,0,10,10,10,1,110,160,,,,,,,,
,,5f37827296047220405dccd3,65b1a114615e993797c11079,2024-01-24_17h45.59.499,bars,2023.2.3,Win32,60.24096386,657b66ea316d21385b68909f,,,,,,,,,,,1399.6761,1400.6737,,,1401.1736,1401.4233,,15,195,,,,,,,,,,,,,,,,bars/036.png,bars/mask008.png,,,,,,,,,,,,3,2,,,,,,,6,4,6,3,,,,,,,,,,,1400.6738,1401.1735,1401.4233,1405.3241,space,3.8828,,1405.3242,50,5,1406.3233,1406.3234,1406.3324,,,,0,11,11,11,1,145,20,,,,,,,,
,,5f37827296047220405dccd3,65b1a114615e993797c11079,2024-01-24_17h45.59.499,bars,2023.2.3,Win32,60.24096386,657b66ea316d21385b68909f,,,,,,,,,,,1406.3325,1407.323,,,1407.8231,1408.0733,,138,-42,,,,,,,,,,,,,,,,bars/021.png,bars/mask000.png,,,,,,,,,,,,2,1,,,,,,,4,2,4,0,,,,,,,,,,,1407.323,1407.823,1408.0734,1411.9231,space,3.8349,,1411.9232,17,68,1412.9231,1412.9231,1412.933,,,,0,12,12,12,1,155,70,,,,,,,,
,,5f37827296047220405dccd3,65b1a114615e993797c11079,2024-01-24_17h45.59.499,bars,2023.2.3,Win32,60.24096386,657b66ea316d21385b68909f,,,,,,,,,,,1412.9332,1413.9228,,,1414.423,1414.673,,143,-37,,,,,,,,,,,,,,,,bars/012.png,bars/mask000.png,,,,,,,,,,,,0,2,,,,,,,2,4,2,4,,,,,,,,,,,1413.9228,1414.4229,1414.6731,1417.7901,space,3.0992,,1417.7902,53,52,1418.7895,1418.7895,1418.7991,,,,0,13,13,13,1,90,15,,,,,,,,
,,5f37827296047220405dccd3,65b1a114615e993797c11079,2024-01-24_17h45.59.499,bars,2023.2.3,Win32,60.24096386,657b66ea316d21385b68909f,,,,,,,,,,,1418.7993,1419.7892,,,1420.2895,1420.5394,,134,134,,,,,,,,,,,,,,,,bars/049.png,bars/mask004.png,,,,,,,,,,,,0,2,,,,,,,0,2,0,0,,,,,,,,,,,1419.7893,1420.2895,1420.5394,1423.7064,space,3.1579,,1423.7065,26,19,1424.7056,1424.7057,1424.7146,,,,0,14,14,14,1,160,115,,,,,,,,
,,5f37827296047220405dccd3,65b1a114615e993797c11079,2024-01-24_17h45.59.499,bars,2023.2.3,Win32,60.24096386,657b66ea316d21385b68909f,,,,,,,,,,,1424.7148,1425.7057,,,1426.2057,1426.4558,,35,215,,,,,,,,,,,,,,,,bars/031.png,bars/mask004.png,,,,,,,,,,,,3,2,,,,,,,0,4,0,3,,,,,,,,,,,1425.7057,1426.2056,1426.4558,1431.1392,space,4.6782,,1431.1392,85,0,1432.1388,1432.1388,1432.1477,,,,0,15,15,15,1,120,35,,,,,,,,
,,5f37827296047220405dccd3,65b1a114615e993797c11079,2024-01-24_17h45.59.499,bars,2023.2.3,Win32,60.24096386,657b66ea316d21385b68909f,,,,,,,,,,,1432.148,1433.1389,,,1433.6388,1433.8885,,131,-49,,,,,,,,,,,,,,,,bars/005.png,bars/mask002.png,,,,,,,,,,,,2,2,,,,,,,2,2,3,3,,,,,,,,,,,1433.1389,1433.6387,1433.8886,1436.589,space,2.6906,,1436.5891,59,9,1437.5886,1437.5886,1437.5978,,,,0,16,16,16,1,10,140,,,,,,,,
,,5f37827296047220405dccd3,65b1a114615e993797c11079,2024-01-24_17h45.59.499,bars,2023.2.3,Win32,60.24096386,657b66ea316d21385b68909f,,,,,,,,,,,1437.5979,1438.5885,,,1439.0885,1439.3386,,133,133,,,,,,,,,,,,,,,,bars/049.png,bars/mask006.png,,,,,,,,,,,,2,2,,,,,,,4,4,2,4,,,,,,,,,,,1438.5885,1439.0885,1439.3386,1441.4388,space,2.0834,,1441.4389,27,18,1442.4383,1442.4383,1442.4478,,,,0,17,17,17,1,160,115,,,,,,,,
,,5f37827296047220405dccd3,65b1a114615e993797c11079,2024-01-24_17h45.59.499,bars,2023.2.3,Win32,60.24096386,657b66ea316d21385b68909f,,,,,,,,,,,1442.4481,1443.4383,,,1443.9384,1444.1879,,136,-44,,,,,,,,,,,,,,,,bars/038.png,bars/mask000.png,,,,,,,,,,,,0,1,,,,,,,6,2,7,3,,,,,,,,,,,1443.4383,1443.9384,1444.188,1446.5386,space,2.3345,,1446.5387,29,66,1447.5374,1447.5374,1447.5476,,,,0,18,18,18,1,165,70,,,,,,,,
,,5f37827296047220405dccd3,65b1a114615e993797c11079,2024-01-24_17h45.59.499,bars,2023.2.3,Win32,60.24096386,657b66ea316d21385b68909f,,,,,,,,,,,1447.5477,1448.538,,,1449.0381,1449.288,,142,142,,,,,,,,,,,,,,,,bars/020.png,bars/mask002.png,,,,,,,,,,,,0,1,,,,,,,4,4,3,6,,,,,,,,,,,1448.5382,1449.038,1449.288,1451.2713,space,1.9708,,1451.2713,27,28,1452.2709,1452.2709,1452.2799,,,,0,19,19,19,1,115,170,,,,,,,,
,,5f37827296047220405dccd3,65b1a114615e993797c11079,2024-01-24_17h45.59.499,bars,2023.2.3,Win32,60.24096386,657b66ea316d21385b68909f,,,,,,,,,,,1452.28,1453.2709,,,1453.7713,1454.0214,,144,-36,,,,,,,,,,,,,,,,bars/025.png,bars/mask004.png,,,,,,,,,,,,0,1,,,,,,,6,2,6,2,,,,,,,,,,,1453.2709,1453.7713,1454.0214,1463.1036,space,9.0685,,1463.1037,39,76,1464.1034,1464.1034,1464.1131,,,,0,20,20,20,1,105,40,,,,,,,,
,,5f37827296047220405dccd3,65b1a114615e993797c11079,2024-01-24_17h45.59.499,bars,2023.2.3,Win32,60.24096386,657b66ea316d21385b68909f,,,,,,,,,,,1464.1132,1465.1034,,,1465.6037,1465.8536,,94,-86,,,,,,,,,,,,,,,,bars/019.png,bars/mask009.png,,,,,,,,,,,,4,2,,,,,,,8,4,10,7,,,,,,,,,,,1465.1035,1465.6037,1465.8536,1471.604,space,5.7403,,1471.604,49,11,1472.6035,1472.6035,1472.6138,,,,0,21,21,21,1,45,105,,,,,,,,
,,5f37827296047220405dccd3,65b1a114615e993797c11079,2024-01-24_17h45.59.499,bars,2023.2.3,Win32,60.24096386,657b66ea316d21385b68909f,,,,,,,,,,,1472.614,1473.6037,,,1474.1037,1474.3533,,138,138,,,,,,,,,,,,,,,,bars/040.png,bars/mask007.png,,,,,,,,,,,,9,1,,,,,,,10,6,10,6,,,,,,,,,,,1473.6037,1474.1037,1474.3533,1477.1872,space,2.8265,,1477.1872,2,47,1478.1866,1478.1866,1478.1963,,,,0,22,22,22,1,140,5,,,,,,,,
,,5f37827296047220405dccd3,65b1a114615e993797c11079,2024-01-24_17h45.59.499,bars,2023.2.3,Win32,60.24096386,657b66ea316d21385b68909f,,,,,,,,,,,1478.1964,1479.1867,,,1479.6866,1479.9367,,125,125,,,,,,,,,,,,,,,,bars/000.png,bars/mask009.png,,,,,,,,,,,,1,2,,,,,,,8,4,8,3,,,,,,,,,,,1479.1867,1479.6864,1479.9367,1481.4036,space,1.4534,,1481.4037,85,20,1482.4026,1482.4027,1482.4125,,,,0,23,23,23,1,40,145,,,,,,,,
,,5f37827296047220405dccd3,65b1a114615e993797c11079,2024-01-24_17h45.59.499,bars,2023.2.3,Win32,60.24096386,657b66ea316d21385b68909f,,,,,,,,,,,1482.4127,1483.4029,,,1483.9031,1484.153,,135,-45,,,,,,,,,,,,,,,,bars/043.png,bars/mask001.png,,,,,,,,,,,,7,2,,,,,,,6,6,6,8,,,,,,,,,,,1483.4031,1483.903,1484.153,1490.4528,space,6.2923,,1490.4529,75,5,1491.4521,1491.4521,1491.4615,,,,0,24,24,24,1,30,130,,,,,,,,
,,5f37827296047220405dccd3,65b1a114615e993797c11079,2024-01-24_17h45.59.499,bars,2023.2.3,Win32,60.24096386,657b66ea316d21385b68909f,,,,,,,,,,,1491.4617,1492.4529,,,1492.9528,1493.2027,,137,137,,,,,,,,,,,,,,,,bars/011.png,bars/mask005.png,,,,,,,,,,,,1,1,,,,,,,4,8,5,8,,,,,,,,,,,1492.4529,1492.9528,1493.2028,1498.1359,space,4.926,,1498.1359,23,52,1499.1357,1499.1357,1499.1453,,,,0,25,25,25,1,160,85,,,,,,,,
,,5f37827296047220405dccd3,65b1a114615e993797c11079,2024-01-24_17h45.59.499,bars,2023.2.3,Win32,60.24096386,657b66ea316d21385b68909f,,,,,,,,,,,1499.1454,1500.1355,,,1500.6353,1500.8851,,172,172,,,,,,,,,,,,,,,,bars/048.png,bars/mask004.png,,,,,,,,,,,,9,2,,,,,,,6,10,6,10,,,,,,,,,,,1500.1355,1500.6353,1500.8852,1502.3525,space,1.4511,,1502.3526,58,3,1503.3523,1503.3523,1503.3548,,,,0,26,26,26,1,50,175,,,,,,,,
,,5f37827296047220405dccd3,65b1a114615e993797c11079,2024-01-24_17h45.59.499,bars,2023.2.3,Win32,60.24096386,657b66ea316d21385b68909f,,,,,,,,,,,1503.355,1504.3521,,,1504.852,1505.1021,,153,153,,,,,,,,,,,,,,,,bars/043.png,bars/mask002.png,,,,,,,,,,,,2,2,,,,,,,4,8,2,7,,,,,,,,,,,1504.3522,1504.8519,1505.1022,1507.8852,space,2.7777,,1507.8853,57,23,1508.8851,1508.8852,1508.8941,,,,0,27,27,27,1,30,130,,,,,,,,
,,5f37827296047220405dccd3,65b1a114615e993797c11079,2024-01-24_17h45.59.499,bars,2023.2.3,Win32,60.24096386,657b66ea316d21385b68909f,,,,,,,,,,,1508.8944,1509.8851,,,1510.3852,1510.6346,,150,-30,,,,,,,,,,,,,,,,bars/008.png,bars/mask008.png,,,,,,,,,,,,0,2,,,,,,,6,10,8,10,,,,,,,,,,,1509.8853,1510.3851,1510.6347,1514.1851,space,3.542,,1514.1853,40,30,1515.1848,1515.1848,1515.1937,,,,0,28,28,28,1,110,0,,,,,,,,
,,5f37827296047220405dccd3,65b1a114615e993797c11079,2024-01-24_17h45.59.499,bars,2023.2.3,Win32,60.24096386,657b66ea316d21385b68909f,,,,,,,,,,,1515.1938,1516.1849,,,1516.6846,1516.9345,,22,202,,,,,,,,,,,,,,,,bars/014.png,bars/mask002.png,,,,,,,,,,,,3,2,,,,,,,8,10,7,10,,,,,,,,,,,1516.185,1516.6845,1516.9346,1518.9513,space,2.0115,,1518.9514,58,22,1519.9513,1519.9514,1519.9524,,,,0,29,29,29,1,80,0,,,,,,,,
,,5f37827296047220405dccd3,65b1a114615e993797c11079,2024-01-24_17h45.59.499,bars,2023.2.3,Win32,60.24096386,657b66ea316d21385b68909f,,,,,,,,,,,1519.9525,1520.9514,,,1521.4514,1521.7011,,126,-54,,,,,,,,,,,,,,,,bars/049.png,bars/mask007.png,,,,,,,,,,,,6,2,,,,,,,6,10,6,10,,,,,,,,,,,1520.9514,1521.4514,1521.7011,1525.6682,space,3.9518,,1525.6684,34,11,1526.668,1526.668,1526.6767,,,,0,30,30,30,1,160,115,,,,,,,,
,,5f37827296047220405dccd3,65b1a114615e993797c11079,2024-01-24_17h45.59.499,bars,2023.2.3,Win32,60.24096386,657b66ea316d21385b68909f,,,,,,,,,,,1526.677,1527.6678,,,1528.1679,1528.4178,,154,154,,,,,,,,,,,,,,,,bars/033.png,bars/mask009.png,,,,,,,,,,,,9,2,,,,,,,8,8,10,9,,,,,,,,,,,1527.6678,1528.1678,1528.4178,1529.3841,space,0.9491,,1529.3841,51,1,1530.3842,1530.3842,1530.3853,,,,0,31,31,31,1,25,155,,,,,,,,
,,5f37827296047220405dccd3,65b1a114615e993797c11079,2024-01-24_17h45.59.499,bars,2023.2.3,Win32,60.24096386,657b66ea316d21385b68909f,,,,,,,,,,,1530.3858,1531.3841,,,1531.8841,1532.1338,,150,150,,,,,,,,,,,,,,,,bars/048.png,bars/mask000.png,,,,,,,,,,,,1,2,,,,,,,10,6,10,6,,,,,,,,,,,1531.3841,1531.884,1532.1338,1533.6672,space,1.5283,,1533.6672,80,25,1534.6673,1534.6673,1534.6764,,,,0,32,32,32,1,50,175,,,,,,,,
,,5f37827296047220405dccd3,65b1a114615e993797c11079,2024-01-24_17h45.59.499,bars,2023.2.3,Win32,60.24096386,657b66ea316d21385b68909f,,,,,,,,,,,1534.6766,1535.6675,,,1536.1671,1536.4176,,109,109,,,,,,,,,,,,,,,,bars/009.png,bars/mask000.png,,,,,,,,,,,,6,2,,,,,,,10,8,10,7,,,,,,,,,,,1535.6675,1536.167,1536.4176,1539.4511,space,3.0286,,1539.4511,86,4,1540.4506,1540.4507,1540.4598,,,,0,33,33,33,1,15,105,,,,,,,,
,,5f37827296047220405dccd3,65b1a114615e993797c11079,2024-01-24_17h45.59.499,bars,2023.2.3,Win32,60.24096386,657b66ea316d21385b68909f,,,,,,,,,,,1540.4599,1541.4504,,,1541.9506,1542.2005,,46,46,,,,,,,,,,,,,,,,bars/007.png,bars/mask001.png,,,,,,,,,,,,4,2,,,,,,,8,6,7,6,,,,,,,,,,,1541.4505,1541.9505,1542.2005,1545.7835,space,3.5725,,1545.7837,51,9,1546.7832,1546.7833,1546.7923,,,,0,34,34,34,1,175,55,,,,,,,,
,,5f37827296047220405dccd3,65b1a114615e993797c11079,2024-01-24_17h45.59.499,bars,2023.2.3,Win32,60.24096386,657b66ea316d21385b68909f,,,,,,,,,,,1546.7925,1547.7835,,,1548.2838,1548.5336,,39,219,,,,,,,,,,,,,,,,bars/017.png,bars/mask004.png,,,,,,,,,,,,4,2,,,,,,,10,4,10,5,,,,,,,,,,,1547.7835,1548.2837,1548.5336,1551.5673,space,3.025,,1551.5674,74,6,1552.5666,1552.5667,1552.5759,,,,0,35,35,35,1,145,45,,,,,,,,
,,5f37827296047220405dccd3,65b1a114615e993797c11079,2024-01-24_17h45.59.499,bars,2023.2.3,Win32,60.24096386,657b66ea316d21385b68909f,,,,,,,,,,,1552.5761,1553.5666,,,1554.0668,1554.3165,,71,71,,,,,,,,,,,,,,,,bars/001.png,bars/mask004.png,,,,,,,,,,,,4,2,,,,,,,10,6,10,8,,,,,,,,,,,1553.5666,1554.0667,1554.3166,1556.1829,space,1.8601,,1556.183,59,14,1557.1826,1557.1826,1557.1914,,,,0,36,36,36,1,130,85,,,,,,,,
,,5f37827296047220405dccd3,65b1a114615e993797c11079,2024-01-24_17h45.59.499,bars,2023.2.3,Win32,60.24096386,657b66ea316d21385b68909f,,,,,,,,,,,1557.1916,1558.1831,,,1558.6832,1558.9326,,80,-100,,,,,,,,,,,,,,,,bars/002.png,bars/mask002.png,,,,,,,,,,,,3,2,,,,,,,10,4,10,3,,,,,,,,,,,1558.1831,1558.6832,1558.9326,1563.3332,space,4.3956,,1563.3333,50,5,1564.3328,1564.3328,1564.3418,,,,0,37,37,37,1,130,85,,,,,,,,
,,5f37827296047220405dccd3,65b1a114615e993797c11079,2024-01-24_17h45.59.499,bars,2023.2.3,Win32,60.24096386,657b66ea316d21385b68909f,,,,,,,,,,,1564.3421,1565.3327,,,1565.8329,1566.0831,,133,-47,,,,,,,,,,,,,,,,bars/038.png,bars/mask005.png,,,,,,,,,,,,0,1,,,,,,,8,2,7,3,,,,,,,,,,,1565.3328,1565.8328,1566.0833,1569.1497,space,3.0562,,1569.1498,32,63,1570.1492,1570.1492,1570.1593,,,,0,38,38,38,1,165,70,,,,,,,,
,,5f37827296047220405dccd3,65b1a114615e993797c11079,2024-01-24_17h45.59.499,bars,2023.2.3,Win32,60.24096386,657b66ea316d21385b68909f,,,,,,,,,,,1570.1595,1571.149,,,1571.6493,1571.8992,,106,106,,,,,,,,,,,,,,,,bars/019.png,bars/mask006.png,,,,,,,,,,,,4,2,,,,,,,10,4,8,4,,,,,,,,,,,1571.1491,1571.6493,1571.8992,1573.7996,space,1.8836,,1573.7997,61,1,1574.7991,1574.7992,1574.8088,,,,0,39,39,39,1,45,105,,,,,,,,
,,5f37827296047220405dccd3,65b1a114615e993797c11079,2024-01-24_17h45.59.499,bars,2023.2.3,Win32,60.24096386,657b66ea316d21385b68909f,,,,,,,,,,,1574.8091,1575.7983,,,1576.2987,1576.5491,,20,200,,,,,,,,,,,,,,,,bars/014.png,bars/mask007.png,,,,,,,,,,,,1,2,,,,,,,8,2,7,3,,,,,,,,,,,1575.7985,1576.2986,1576.5491,1579.1985,space,2.6402,,1579.1986,60,20,1580.1987,1580.1988,1580.2077,,,,0,40,40,40,1,80,0,,,,,,,,
,,5f37827296047220405dccd3,65b1a114615e993797c11079,2024-01-24_17h45.59.499,bars,2023.2.3,Win32,60.24096386,657b66ea316d21385b68909f,,,,,,,,,,,1580.2079,1581.1986,,,1581.6983,1581.9488,,67,67,,,,,,,,,,,,,,,,bars/029.png,bars/mask009.png,,,,,,,,,,,,1,2,,,,,,,6,4,6,4,,,,,,,,,,,1581.1987,1581.6983,1581.9489,1583.549,space,1.5904,,1583.5491,23,22,1584.5485,1584.5485,1584.5573,,,,0,41,41,41,1,90,45,,,,,,,,
,,5f37827296047220405dccd3,65b1a114615e993797c11079,2024-01-24_17h45.59.499,bars,2023.2.3,Win32,60.24096386,657b66ea316d21385b68909f,,,,,,,,,,,1584.5574,1585.5484,,,1586.0482,1586.2985,,121,-59,,,,,,,,,,,,,,,,bars/045.png,bars/mask007.png,,,,,,,,,,,,2,1,,,,,,,4,6,5,5,,,,,,,,,,,1585.5485,1586.0482,1586.2986,1589.832,space,3.5236,,1589.8321,21,69,1590.8316,1590.8316,1590.8412,,,,0,42,42,42,1,100,10,,,,,,,,
,,5f37827296047220405dccd3,65b1a114615e993797c11079,2024-01-24_17h45.59.499,bars,2023.2.3,Win32,60.24096386,657b66ea316d21385b68909f,,,,,,,,,,,1590.8414,1591.8316,,,1592.3315,1592.5816,,50,230,,,,,,,,,,,,,,,,bars/007.png,bars/mask004.png,,,,,,,,,,,,3,2,,,,,,,2,4,1,3,,,,,,,,,,,1591.8316,1592.3315,1592.5816,1595.0148,space,2.423,,1595.0149,55,5,1596.0141,1596.0142,1596.0163,,,,0,43,43,43,1,175,55,,,,,,,,
,,5f37827296047220405dccd3,65b1a114615e993797c11079,2024-01-24_17h45.59.499,bars,2023.2.3,Win32,60.24096386,657b66ea316d21385b68909f,,,,,,,,,,,1596.0166,1597.0142,,,1597.5144,1597.764,,18,198,,,,,,,,,,,,,,,,bars/048.png,bars/mask005.png,,,,,,,,,,,,2,2,,,,,,,0,6,0,7,,,,,,,,,,,1597.0142,1597.5142,1597.764,1601.4316,space,3.6597,,1601.4317,32,23,1602.431,1602.431,1602.4402,,,,0,44,44,44,1,50,175,,,,,,,,
,,5f37827296047220405dccd3,65b1a114615e993797c11079,2024-01-24_17h45.59.499,bars,2023.2.3,Win32,60.24096386,657b66ea316d21385b68909f,,,,,,,,,,,1602.4404,1603.4308,,,1603.9311,1604.1806,,17,17,,,,,,,,,,,,,,,,bars/032.png,bars/mask000.png,,,,,,,,,,,,8,2,,,,,,,0,8,0,9,,,,,,,,,,,1603.4309,1603.9311,1604.1806,1606.5978,space,2.4012,,1606.5978,72,3,1607.5975,1607.5976,1607.6064,,,,0,45,45,45,1,125,20,,,,,,,,
,,5f37827296047220405dccd3,65b1a114615e993797c11079,2024-01-24_17h45.59.499,bars,2023.2.3,Win32,60.24096386,657b66ea316d21385b68909f,,,,,,,,,,,1607.6066,1608.5972,,,1609.0974,1609.3475,,51,51,,,,,,,,,,,,,,,,bars/038.png,bars/mask001.png,,,,,,,,,,,,3,2,,,,,,,0,6,0,7,,,,,,,,,,,1608.5973,1609.0974,1609.3475,1611.2308,space,1.8653,,1611.231,66,19,1612.2299,1612.23,1612.2388,,,,0,46,46,46,1,165,70,,,,,,,,
,,5f37827296047220405dccd3,65b1a114615e993797c11079,2024-01-24_17h45.59.499,bars,2023.2.3,Win32,60.24096386,657b66ea316d21385b68909f,,,,,,,,,,,1612.239,1613.23,,,1613.7306,1613.9803,,50,50,,,,,,,,,,,,,,,,bars/035.png,bars/mask008.png,,,,,,,,,,,,5,2,,,,,,,2,8,3,7,,,,,,,,,,,1613.2301,1613.7305,1613.9804,1615.2306,space,1.233,,1615.2308,55,10,1616.2304,1616.2305,1616.2395,,,,0,47,47,47,1,175,60,,,,,,,,
,,5f37827296047220405dccd3,65b1a114615e993797c11079,2024-01-24_17h45.59.499,bars,2023.2.3,Win32,60.24096386,657b66ea316d21385b68909f,,,,,,,,,,,1616.2397,1617.2303,,,1617.7304,1617.9802,,158,-22,,,,,,,,,,,,,,,,bars/024.png,bars/mask003.png,,,,,,,,,,,,3,2,,,,,,,0,6,0,5,,,,,,,,,,,1617.2306,1617.7304,1617.9803,1619.3137,space,1.3214,,1619.3137,38,12,1620.3129,1620.313,1620.3215,,,,0,48,48,48,1,120,170,,,,,,,,
,,5f37827296047220405dccd3,65b1a114615e993797c11079,2024-01-24_17h45.59.499,bars,2023.2.3,Win32,60.24096386,657b66ea316d21385b68909f,,,,,,,,,,,1620.3218,1621.3137,,,1621.8136,1622.0634,,135,135,,,,,,,,,,,,,,,,bars/023.png,bars/mask006.png,,,,,,,,,,,,2,2,,,,,,,0,8,1,7,,,,,,,,,,,1621.3137,1621.8135,1622.0635,1624.5804,space,2.5009,,1624.5804,65,20,1625.5801,1625.5801,1625.5891,,,,0,49,49,49,1,20,115,,,,,,,,
,,5f37827296047220405dccd3,65b1a114615e993797c11079,2024-01-24_17h45.59.499,bars,2023.2.3,Win32,60.24096386,657b66ea316d21385b68909f,,,,,,,,,,,,,,,,,,,,,,,,,,,,,,,,,,,,,,,,,,,,,,,,,,,,,,,,,,,,,,,,,,,,,,,,,,,,,,,,,,,,,,,,,,,,,1625.5891,1685.5774,0,3,3,3,1,sequence_tables/blk013.csv
,,5f37827296047220405dccd3,65b1a114615e993797c11079,2024-01-24_17h45.59.499,bars,2023.2.3,Win32,60.24096386,657b66ea316d21385b68909f,,,,,,,,,,,1730.7218,1731.7251,,,1732.2249,1732.475,,140,140,,,,,,,,,,,,,,,,bars/038.png,bars/mask000.png,,,,,,,,,,,,0,1,,,,,,,2,7,0,6,,,,,,1685.5869,1730.709,space,45.1067,,1731.7251,1732.2249,1732.4751,1734.8092,space,2.3241,,1734.8093,25,70,1735.8078,1735.8078,1735.8177,,,,0,0,0,0,1,165,70,,,,,,,,
,,5f37827296047220405dccd3,65b1a114615e993797c11079,2024-01-24_17h45.59.499,bars,2023.2.3,Win32,60.24096386,657b66ea316d21385b68909f,,,,,,,,,,,1735.8179,1736.8083,,,1737.3084,1737.5583,,130,130,,,,,,,,,,,,,,,,bars/049.png,bars/mask005.png,,,,,,,,,,,,5,2,,,,,,,0,9,1,10,,,,,,,,,,,1736.8084,1737.3083,1737.5585,1740.442,space,2.866,,1740.4421,30,15,1741.4414,1741.4415,1741.4513,,,,0,1,1,1,1,160,115,,,,,,,,
,,5f37827296047220405dccd3,65b1a114615e993797c11079,2024-01-24_17h45.59.499,bars,2023.2.3,Win32,60.24096386,657b66ea316d21385b68909f,,,,,,,,,,,1741.4515,1742.4415,,,1742.9414,1743.1914,,94,94,,,,,,,,,,,,,,,,bars/026.png,bars/mask009.png,,,,,,,,,,,,5,2,,,,,,,0,7,1,7,,,,,,,,,,,1742.4415,1742.9414,1743.1914,1745.8251,space,2.6257,,1745.8253,59,9,1746.8243,1746.8244,1746.8333,,,,0,2,2,2,1,35,85,,,,,,,,
,,5f37827296047220405dccd3,65b1a114615e993797c11079,2024-01-24_17h45.59.499,bars,2023.2.3,Win32,60.24096386,657b66ea316d21385b68909f,,,,,,,,,,,1746.8335,1747.824,,,1748.3243,1748.5739,,118,118,,,,,,,,,,,,,,,,bars/041.png,bars/mask009.png,,,,,,,,,,,,0,2,,,,,,,2,9,1,9,,,,,,,,,,,1747.824,1748.3243,1748.5739,1751.8079,space,3.2253,,1751.808,82,33,1752.8075,1752.8076,1752.8168,,,,0,3,3,3,1,20,85,,,,,,,,
,,5f37827296047220405dccd3,65b1a114615e993797c11079,2024-01-24_17h45.59.499,bars,2023.2.3,Win32,60.24096386,657b66ea316d21385b68909f,,,,,,,,,,,1752.817,1753.8075,,,1754.3076,1754.5571,,139,139,,,,,,,,,,,,,,,,bars/024.png,bars/mask000.png,,,,,,,,,,,,1,1,,,,,,,4,10,4,10,,,,,,,,,,,1753.8077,1754.3075,1754.5573,1756.3576,space,1.7869,,1756.3578,19,31,1757.3574,1757.3574,1757.3671,,,,0,4,4,4,1,120,170,,,,,,,,
,,5f37827296047220405dccd3,65b1a114615e993797c11079,2024-01-24_17h45.59.499,bars,2023.2.3,Win32,60.24096386,657b66ea316d21385b68909f,,,,,,,,,,,1757.3674,1758.3573,,,1758.8573,1759.1073,,39,39,,,,,,,,,,,,,,,,bars/028.png,bars/mask003.png,,,,,,,,,,,,0,1,,,,,,,2,10,0,10,,,,,,,,,,,1758.3573,1758.8573,1759.1074,1761.3744,space,2.2501,,1761.3745,6,81,1762.3736,1762.3737,1762.3748,,,,0,5,5,5,1,45,120,,,,,,,,
,,5f37827296047220405dccd3,65b1a114615e993797c11079,2024-01-24_17h45.59.499,bars,2023.2.3,Win32,60.24096386,657b66ea316d21385b68909f,,,,,,,,,,,1762.3753,1763.3735,,,1763.8733,1764.1238,,33,33,,,,,,,,,,,,,,,,bars/035.png,bars/mask007.png,,,,,,,,,,,,1,2,,,,,,,4,10,5,9,,,,,,,,,,,1763.3735,1763.8733,1764.1239,1765.8573,space,1.7176,,1765.8575,38,27,1766.857,1766.857,1766.8667,,,,0,6,6,6,1,175,60,,,,,,,,
,,5f37827296047220405dccd3,65b1a114615e993797c11079,2024-01-24_17h45.59.499,bars,2023.2.3,Win32,60.24096386,657b66ea316d21385b68909f,,,,,,,,,,,1766.8668,1767.8565,,,1768.3568,1768.6065,,48,48,,,,,,,,,,,,,,,,bars/038.png,bars/mask006.png,,,,,,,,,,,,2,2,,,,,,,2,8,2,8,,,,,,,,,,,1767.8566,1768.3568,1768.6066,1770.8736,space,2.2493,,1770.8736,63,22,1771.8733,1771.8733,1771.8821,,,,0,7,7,7,1,165,70,,,,,,,,
,,5f37827296047220405dccd3,65b1a114615e993797c11079,2024-01-24_17h45.59.499,bars,2023.2.3,Win32,60.24096386,657b66ea316d21385b68909f,,,,,,,,,,,1771.8823,1772.8727,,,1773.3733,1773.6232,,41,41,,,,,,,,,,,,,,,,bars/029.png,bars/mask009.png,,,,,,,,,,,,9,2,,,,,,,0,10,0,10,,,,,,,,,,,1772.8728,1773.3732,1773.6233,1775.0235,space,1.3932,,1775.0236,49,4,1776.0231,1776.0232,1776.0243,,,,0,8,8,8,1,90,45,,,,,,,,
,,5f37827296047220405dccd3,65b1a114615e993797c11079,2024-01-24_17h45.59.499,bars,2023.2.3,Win32,60.24096386,657b66ea316d21385b68909f,,,,,,,,,,,1776.0245,1777.0232,,,1777.5229,1777.7731,,146,146,,,,,,,,,,,,,,,,bars/016.png,bars/mask005.png,,,,,,,,,,,,3,2,,,,,,,2,8,2,8,,,,,,,,,,,1777.0232,1777.5229,1777.7731,1779.1068,space,1.3159,,1779.107,74,19,1780.1064,1780.1066,1780.1073,,,,0,9,9,9,1,40,165,,,,,,,,
,,5f37827296047220405dccd3,65b1a114615e993797c11079,2024-01-24_17h45.59.499,bars,2023.2.3,Win32,60.24096386,657b66ea316d21385b68909f,,,,,,,,,,,1780.1076,1781.1063,,,1781.6064,1781.8563,,27,27,,,,,,,,,,,,,,,,bars/035.png,bars/mask003.png,,,,,,,,,,,,0,1,,,,,,,0,10,0,10,,,,,,,,,,,1781.1063,1781.6063,1781.8564,1785.89,space,4.0152,,1785.8901,32,33,1786.8894,1786.8894,1786.8994,,,,0,10,10,10,1,175,60,,,,,,,,
,,5f37827296047220405dccd3,65b1a114615e993797c11079,2024-01-24_17h45.59.499,bars,2023.2.3,Win32,60.24096386,657b66ea316d21385b68909f,,,,,,,,,,,1786.8995,1787.8893,,,1788.3894,1788.6392,,99,99,,,,,,,,,,,,,,,,bars/006.png,bars/mask002.png,,,,,,,,,,,,8,2,,,,,,,0,8,1,8,,,,,,,,,,,1787.8895,1788.3894,1788.6392,1790.106,space,1.4514,,1790.106,64,1,1791.1056,1791.1057,1791.1154,,,,0,11,11,11,1,35,100,,,,,,,,
,,5f37827296047220405dccd3,65b1a114615e993797c11079,2024-01-24_17h45.59.499,bars,2023.2.3,Win32,60.24096386,657b66ea316d21385b68909f,,,,,,,,,,,1791.1156,1792.1052,,,1792.6056,1792.8558,,31,31,,,,,,,,,,,,,,,,bars/010.png,bars/mask001.png,,,,,,,,,,,,1,2,,,,,,,0,6,1,5,,,,,,,,,,,1792.1053,1792.6056,1792.8558,1795.2393,space,2.3771,,1795.2393,46,24,1796.2391,1796.2391,1796.2483,,,,0,12,12,12,1,165,55,,,,,,,,
