init_variables.started,init_variables.stopped,participant,session,date,expName,psychopyVersion,OS,frameRate,study_id,instruction_exp.started,instruction_exp.stopped,key_resp_8.keys,key_resp_8.rt,key_resp_8.duration,instruction_single.started,instruction_single.stopped,key_resp_2.keys,key_resp_2.rt,key_resp_2.duration,interval.started,interval.stopped,cue_single.started,cue_single.stopped,mask.started,mask.stopped,ori_response_single.started,res_ori,res,ori_response_single.stopped,key_resp_single.keys,key_resp_single.rt,key_resp_single.duration,disp_single.started,disp_single.stopped,key_resp.keys,key_resp.rt,key_resp.duration,single.thisRepN,single.thisTrialN,single.thisN,single.thisIndex,single.ran,ori,path,mask_path,instruction_bandit.started,instruction_bandit.stopped,key_resp_6.keys,key_resp_6.rt,key_resp_6.duration,cue_bandit.started,cue_bandit.stopped,bandit_res.keys,bandit_res.rt,bandit_res.duration,outcome_bandit.started,rew,action,outcome_bandit.stopped,bandit.thisRepN,bandit.thisTrialN,bandit.thisN,bandit.thisIndex,bandit.ran,actual_rew1,actual_rew2,rew1,rew2,instruction_task.started,instruction_task.stopped,key_resp_7.keys,key_resp_7.rt,key_resp_7.duration,wait_ready.started,wait_ready.stopped,key_resp_3.keys,key_resp_3.rt,key_resp_3.duration,cue.started,cue.stopped,ori_response.started,ori_response.stopped,key_resp_5.keys,key_resp_5.rt,key_resp_5.duration,outcome.started,diff1,diff2,outcome.stopped,disp_outcome_practice.started,disp_outcome_practice.stopped,key_resp_4.keys,key_resp_4.rt,key_resp_4.duration,trials.thisRepN,trials.thisTrialN,trials.thisN,trials.thisIndex,trials.ran,ori1,ori2,break_blk.started,break_blk.stopped,block.thisRepN,block.thisTrialN,block.thisN,block.thisIndex,block.ran,condition_file
0.0004,0.0006,650279e620b9fcb3b662bb2b,65af52dfdc8991f4776b9ea4,2024-01-23_16h48.34.588,bars,2023.2.3,Win32,59.17159763,657b66ea316d21385b68909f,,,,,,,,,,,,,,,,,,,,,,,,,,,,,,,,,,,,,,,,,,,,,,,,,,,,,,,,,,,,,,,,,,,,,,,,,,,,,,,,,,,,,,,,,,,,,,,,,,,,
,,650279e620b9fcb3b662bb2b,65af52dfdc8991f4776b9ea4,2024-01-23_16h48.34.588,bars,2023.2.3,Win32,59.17159763,657b66ea316d21385b68909f,0.0008,244.3622,y,244.3378,,,,,,,,,,,,,,,,,,,,,,,,,,,,,,,,,,,,,,,,,,,,,,,,,,,,,,,,,,,,,,,,,,,,,,,,,,,,,,,,,,,,,,,,,,,,,,,,
,,650279e620b9fcb3b662bb2b,65af52dfdc8991f4776b9ea4,2024-01-23_16h48.34.588,bars,2023.2.3,Win32,59.17159763,657b66ea316d21385b68909f,,,,,,244.3626,251.3515,space,6.9688,,,,,,,,,,,,,,,,,,,,,,,,,,,,,,,,,,,,,,,,,,,,,,,,,,,,,,,,,,,,,,,,,,,,,,,,,,,,,,,,,,,,,,,,,,,
,,650279e620b9fcb3b662bb2b,65af52dfdc8991f4776b9ea4,2024-01-23_16h48.34.588,bars,2023.2.3,Win32,59.17159763,657b66ea316d21385b68909f,,,,,,,,,,,251.3689,252.3684,252.3689,252.852,252.8524,253.1033,253.1035,161,161,259.5594,space,6.4329,,259.5596,262.1301,space,2.5487,,0,0,0,0,1,150,bars/single000.png,bars/mask006.png,,,,,,,,,,,,,,,,,,,,,,,,,,,,,,,,,,,,,,,,,,,,,,,,,,,,,,,,,,,,,,,,
,,650279e620b9fcb3b662bb2b,65af52dfdc8991f4776b9ea4,2024-01-23_16h48.34.588,bars,2023.2.3,Win32,59.17159763,657b66ea316d21385b68909f,,,,,,,,,,,262.1306,263.1287,263.1289,263.6292,263.6293,263.8795,263.8796,65,65,266.5324,space,2.6416,,266.5324,274.5077,space,7.9581,,0,1,1,5,1,55,bars/single005.png,bars/mask008.png,,,,,,,,,,,,,,,,,,,,,,,,,,,,,,,,,,,,,,,,,,,,,,,,,,,,,,,,,,,,,,,,
,,650279e620b9fcb3b662bb2b,65af52dfdc8991f4776b9ea4,2024-01-23_16h48.34.588,bars,2023.2.3,Win32,59.17159763,657b66ea316d21385b68909f,,,,,,,,,,,274.5215,275.5244,275.5244,276.0081,276.0082,276.2585,276.2586,169,-11,279.5455,space,3.2728,,279.5455,281.3481,space,1.778,,0,2,2,6,1,175,bars/single006.png,bars/mask005.png,,,,,,,,,,,,,,,,,,,,,,,,,,,,,,,,,,,,,,,,,,,,,,,,,,,,,,,,,,,,,,,,
,,650279e620b9fcb3b662bb2b,65af52dfdc8991f4776b9ea4,2024-01-23_16h48.34.588,bars,2023.2.3,Win32,59.17159763,657b66ea316d21385b68909f,,,,,,,,,,,281.3487,282.3478,282.3478,282.8486,282.8486,283.0987,283.0987,35,35,285.0675,space,1.9628,,285.0676,287.1696,space,2.0868,,0,3,3,7,1,45,bars/single007.png,bars/mask009.png,,,,,,,,,,,,,,,,,,,,,,,,,,,,,,,,,,,,,,,,,,,,,,,,,,,,,,,,,,,,,,,,
,,650279e620b9fcb3b662bb2b,65af52dfdc8991f4776b9ea4,2024-01-23_16h48.34.588,bars,2023.2.3,Win32,59.17159763,657b66ea316d21385b68909f,,,,,,,,,,,287.1701,288.1703,288.1704,288.6709,288.671,288.9212,288.9213,146,-34,291.3076,space,2.3734,,291.3077,292.5086,space,1.1866,,0,4,4,8,1,160,bars/single008.png,bars/mask004.png,,,,,,,,,,,,,,,,,,,,,,,,,,,,,,,,,,,,,,,,,,,,,,,,,,,,,,,,,,,,,,,,
,,650279e620b9fcb3b662bb2b,65af52dfdc8991f4776b9ea4,2024-01-23_16h48.34.588,bars,2023.2.3,Win32,59.17159763,657b66ea316d21385b68909f,,,,,,,,,,,292.5092,293.5091,293.5092,294.0097,294.0098,294.2595,294.2595,88,88,297.7641,space,3.4907,,297.7643,298.7822,space,0.9875,,0,5,5,4,1,95,bars/single004.png,bars/mask004.png,,,,,,,,,,,,,,,,,,,,,,,,,,,,,,,,,,,,,,,,,,,,,,,,,,,,,,,,,,,,,,,,
,,650279e620b9fcb3b662bb2b,65af52dfdc8991f4776b9ea4,2024-01-23_16h48.34.588,bars,2023.2.3,Win32,59.17159763,657b66ea316d21385b68909f,,,,,,,,,,,298.7829,299.782,299.7821,300.2826,300.2826,300.5328,300.5331,145,145,303.6696,space,3.1192,,303.6698,306.1884,space,2.5016,,0,6,6,2,1,145,bars/single002.png,bars/mask003.png,,,,,,,,,,,,,,,,,,,,,,,,,,,,,,,,,,,,,,,,,,,,,,,,,,,,,,,,,,,,,,,,
,,650279e620b9fcb3b662bb2b,65af52dfdc8991f4776b9ea4,2024-01-23_16h48.34.588,bars,2023.2.3,Win32,59.17159763,657b66ea316d21385b68909f,,,,,,,,,,,306.1891,307.1898,307.1902,307.69,307.6901,307.9402,307.9402,34,34,310.6765,space,2.7214,,310.6765,313.3466,space,2.64,,0,7,7,9,1,20,bars/single009.png,bars/mask006.png,,,,,,,,,,,,,,,,,,,,,,,,,,,,,,,,,,,,,,,,,,,,,,,,,,,,,,,,,,,,,,,,
,,650279e620b9fcb3b662bb2b,65af52dfdc8991f4776b9ea4,2024-01-23_16h48.34.588,bars,2023.2.3,Win32,59.17159763,657b66ea316d21385b68909f,,,,,,,,,,,313.3474,314.3469,314.3469,314.8471,314.8471,315.1003,315.1004,152,152,317.233,space,2.1166,,317.2332,318.9848,space,1.737,,0,8,8,1,1,20,bars/single001.png,bars/mask006.png,,,,,,,,,,,,,,,,,,,,,,,,,,,,,,,,,,,,,,,,,,,,,,,,,,,,,,,,,,,,,,,,
,,650279e620b9fcb3b662bb2b,65af52dfdc8991f4776b9ea4,2024-01-23_16h48.34.588,bars,2023.2.3,Win32,59.17159763,657b66ea316d21385b68909f,,,,,,,,,,,318.9856,319.9854,319.9856,320.4859,320.4859,320.737,320.7371,32,32,321.7207,space,0.967,,321.7208,323.2229,space,1.4837,,0,9,9,3,1,20,bars/single003.png,bars/mask005.png,,,,,,,,,,,,,,,,,,,,,,,,,,,,,,,,,,,,,,,,,,,,,,,,,,,,,,,,,,,,,,,,
,,650279e620b9fcb3b662bb2b,65af52dfdc8991f4776b9ea4,2024-01-23_16h48.34.588,bars,2023.2.3,Win32,59.17159763,657b66ea316d21385b68909f,,,,,,,,,,,,,,,,,,,,,,,,,,,,,,,,,,,,,323.2241,332.0823,space,8.8369,,,,,,,,,,,,,,,,,,,,,,,,,,,,,,,,,,,,,,,,,,,,,,,,,,,,,,,,,,,,
,,650279e620b9fcb3b662bb2b,65af52dfdc8991f4776b9ea4,2024-01-23_16h48.34.588,bars,2023.2.3,Win32,59.17159763,657b66ea316d21385b68909f,,,,,,,,,,,,,,,,,,,,,,,,,,,,,,,,,,,,,,,,,,332.0967,333.8505,left,1.7353,,333.8508,9,1,334.8524,0,0,0,0,1,9,1,9,2,,,,,,,,,,,,,,,,,,,,,,,,,,,,,,,,,,,,,,,,,
,,650279e620b9fcb3b662bb2b,65af52dfdc8991f4776b9ea4,2024-01-23_16h48.34.588,bars,2023.2.3,Win32,59.17159763,657b66ea316d21385b68909f,,,,,,,,,,,,,,,,,,,,,,,,,,,,,,,,,,,,,,,,,,334.8542,335.451,left,0.5791,,335.451,10,1,336.4518,0,1,1,1,1,10,0,10,1,,,,,,,,,,,,,,,,,,,,,,,,,,,,,,,,,,,,,,,,,
,,650279e620b9fcb3b662bb2b,65af52dfdc8991f4776b9ea4,2024-01-23_16h48.34.588,bars,2023.2.3,Win32,59.17159763,657b66ea316d21385b68909f,,,,,,,,,,,,,,,,,,,,,,,,,,,,,,,,,,,,,,,,,,336.4523,336.8024,left,0.3333,,336.8025,10,1,337.8032,0,2,2,2,1,10,2,10,2,,,,,,,,,,,,,,,,,,,,,,,,,,,,,,,,,,,,,,,,,
,,650279e620b9fcb3b662bb2b,65af52dfdc8991f4776b9ea4,2024-01-23_16h48.34.588,bars,2023.2.3,Win32,59.17159763,657b66ea316d21385b68909f,,,,,,,,,,,,,,,,,,,,,,,,,,,,,,,,,,,,,,,,,,337.8037,338.1038,left,0.2879,,338.1038,7,1,339.1045,0,3,3,3,1,8,4,7,3,,,,,,,,,,,,,,,,,,,,,,,,,,,,,,,,,,,,,,,,,
,,650279e620b9fcb3b662bb2b,65af52dfdc8991f4776b9ea4,2024-01-23_16h48.34.588,bars,2023.2.3,Win32,59.17159763,657b66ea316d21385b68909f,,,,,,,,,,,,,,,,,,,,,,,,,,,,,,,,,,,,,,,,,,339.1055,339.375,left,0.2541,,339.3751,5,1,340.3725,0,4,4,4,1,6,2,5,1,,,,,,,,,,,,,,,,,,,,,,,,,,,,,,,,,,,,,,,,,
,,650279e620b9fcb3b662bb2b,65af52dfdc8991f4776b9ea4,2024-01-23_16h48.34.588,bars,2023.2.3,Win32,59.17159763,657b66ea316d21385b68909f,,,,,,,,,,,,,,,,,,,,,,,,,,,,,,,,,,,,,,,,,,340.3733,341.324,right,0.9388,,341.3241,4,2,342.3244,0,5,5,5,1,4,4,4,4,,,,,,,,,,,,,,,,,,,,,,,,,,,,,,,,,,,,,,,,,
,,650279e620b9fcb3b662bb2b,65af52dfdc8991f4776b9ea4,2024-01-23_16h48.34.588,bars,2023.2.3,Win32,59.17159763,657b66ea316d21385b68909f,,,,,,,,,,,,,,,,,,,,,,,,,,,,,,,,,,,,,,,,,,342.3253,343.0091,left,0.6677,,343.0093,1,1,344.0097,0,6,6,6,1,2,2,1,2,,,,,,,,,,,,,,,,,,,,,,,,,,,,,,,,,,,,,,,,,
,,650279e620b9fcb3b662bb2b,65af52dfdc8991f4776b9ea4,2024-01-23_16h48.34.588,bars,2023.2.3,Win32,59.17159763,657b66ea316d21385b68909f,,,,,,,,,,,,,,,,,,,,,,,,,,,,,,,,,,,,,,,,,,344.0107,344.2941,right,0.2707,,344.2943,1,2,345.2938,0,7,7,7,1,0,0,0,1,,,,,,,,,,,,,,,,,,,,,,,,,,,,,,,,,,,,,,,,,
,,650279e620b9fcb3b662bb2b,65af52dfdc8991f4776b9ea4,2024-01-23_16h48.34.588,bars,2023.2.3,Win32,59.17159763,657b66ea316d21385b68909f,,,,,,,,,,,,,,,,,,,,,,,,,,,,,,,,,,,,,,,,,,345.2943,346.2289,left,0.927,,346.229,1,1,347.2293,0,8,8,8,1,0,2,1,0,,,,,,,,,,,,,,,,,,,,,,,,,,,,,,,,,,,,,,,,,
,,650279e620b9fcb3b662bb2b,65af52dfdc8991f4776b9ea4,2024-01-23_16h48.34.588,bars,2023.2.3,Win32,59.17159763,657b66ea316d21385b68909f,,,,,,,,,,,,,,,,,,,,,,,,,,,,,,,,,,,,,,,,,,347.2302,347.4965,right,0.2607,,347.4965,3,2,348.4972,0,9,9,9,1,2,4,2,3,,,,,,,,,,,,,,,,,,,,,,,,,,,,,,,,,,,,,,,,,
,,650279e620b9fcb3b662bb2b,65af52dfdc8991f4776b9ea4,2024-01-23_16h48.34.588,bars,2023.2.3,Win32,59.17159763,657b66ea316d21385b68909f,,,,,,,,,,,,,,,,,,,,,,,,,,,,,,,,,,,,,,,,,,348.498,348.7505,right,0.2453,,348.7506,3,2,349.7486,0,10,10,10,1,0,2,0,3,,,,,,,,,,,,,,,,,,,,,,,,,,,,,,,,,,,,,,,,,
,,650279e620b9fcb3b662bb2b,65af52dfdc8991f4776b9ea4,2024-01-23_16h48.34.588,bars,2023.2.3,Win32,59.17159763,657b66ea316d21385b68909f,,,,,,,,,,,,,,,,,,,,,,,,,,,,,,,,,,,,,,,,,,349.7491,350.0658,left,0.3019,,350.0658,0,1,351.0664,0,11,11,11,1,0,4,0,3,,,,,,,,,,,,,,,,,,,,,,,,,,,,,,,,,,,,,,,,,
,,650279e620b9fcb3b662bb2b,65af52dfdc8991f4776b9ea4,2024-01-23_16h48.34.588,bars,2023.2.3,Win32,59.17159763,657b66ea316d21385b68909f,,,,,,,,,,,,,,,,,,,,,,,,,,,,,,,,,,,,,,,,,,351.0671,351.2674,right,0.194,,351.2675,6,2,352.2676,0,12,12,12,1,2,6,1,6,,,,,,,,,,,,,,,,,,,,,,,,,,,,,,,,,,,,,,,,,
,,650279e620b9fcb3b662bb2b,65af52dfdc8991f4776b9ea4,2024-01-23_16h48.34.588,bars,2023.2.3,Win32,59.17159763,657b66ea316d21385b68909f,,,,,,,,,,,,,,,,,,,,,,,,,,,,,,,,,,,,,,,,,,352.2684,352.5514,right,0.2678,,352.5515,3,2,353.5522,0,13,13,13,1,0,4,1,3,,,,,,,,,,,,,,,,,,,,,,,,,,,,,,,,,,,,,,,,,
,,650279e620b9fcb3b662bb2b,65af52dfdc8991f4776b9ea4,2024-01-23_16h48.34.588,bars,2023.2.3,Win32,59.17159763,657b66ea316d21385b68909f,,,,,,,,,,,,,,,,,,,,,,,,,,,,,,,,,,,,,,,,,,353.5529,353.8868,right,0.3284,,353.8869,7,2,354.8869,0,14,14,14,1,2,6,2,7,,,,,,,,,,,,,,,,,,,,,,,,,,,,,,,,,,,,,,,,,
,,650279e620b9fcb3b662bb2b,65af52dfdc8991f4776b9ea4,2024-01-23_16h48.34.588,bars,2023.2.3,Win32,59.17159763,657b66ea316d21385b68909f,,,,,,,,,,,,,,,,,,,,,,,,,,,,,,,,,,,,,,,,,,354.8878,355.1712,right,0.2677,,355.1713,9,2,356.1714,0,15,15,15,1,4,8,3,9,,,,,,,,,,,,,,,,,,,,,,,,,,,,,,,,,,,,,,,,,
,,650279e620b9fcb3b662bb2b,65af52dfdc8991f4776b9ea4,2024-01-23_16h48.34.588,bars,2023.2.3,Win32,59.17159763,657b66ea316d21385b68909f,,,,,,,,,,,,,,,,,,,,,,,,,,,,,,,,,,,,,,,,,,356.1718,356.4721,right,0.2841,,356.4722,7,2,357.4728,0,16,16,16,1,6,6,7,7,,,,,,,,,,,,,,,,,,,,,,,,,,,,,,,,,,,,,,,,,
,,650279e620b9fcb3b662bb2b,65af52dfdc8991f4776b9ea4,2024-01-23_16h48.34.588,bars,2023.2.3,Win32,59.17159763,657b66ea316d21385b68909f,,,,,,,,,,,,,,,,,,,,,,,,,,,,,,,,,,,,,,,,,,357.4736,357.8914,right,0.4089,,357.8916,5,2,358.8908,0,17,17,17,1,8,4,9,5,,,,,,,,,,,,,,,,,,,,,,,,,,,,,,,,,,,,,,,,,
,,650279e620b9fcb3b662bb2b,65af52dfdc8991f4776b9ea4,2024-01-23_16h48.34.588,bars,2023.2.3,Win32,59.17159763,657b66ea316d21385b68909f,,,,,,,,,,,,,,,,,,,,,,,,,,,,,,,,,,,,,,,,,,358.8913,359.3085,right,0.4096,,359.3088,1,2,360.309,0,18,18,18,1,6,2,5,1,,,,,,,,,,,,,,,,,,,,,,,,,,,,,,,,,,,,,,,,,
,,650279e620b9fcb3b662bb2b,65af52dfdc8991f4776b9ea4,2024-01-23_16h48.34.588,bars,2023.2.3,Win32,59.17159763,657b66ea316d21385b68909f,,,,,,,,,,,,,,,,,,,,,,,,,,,,,,,,,,,,,,,,,,360.31,360.6766,right,0.3613,,360.6767,0,2,361.6771,0,19,19,19,1,8,0,7,0,,,,,,,,,,,,,,,,,,,,,,,,,,,,,,,,,,,,,,,,,
,,650279e620b9fcb3b662bb2b,65af52dfdc8991f4776b9ea4,2024-01-23_16h48.34.588,bars,2023.2.3,Win32,59.17159763,657b66ea316d21385b68909f,,,,,,,,,,,,,,,,,,,,,,,,,,,,,,,,,,,,,,,,,,,,,,,,,,,,,,,,,,,,361.6782,368.8864,space,7.1908,,,,,,,,,,,,,,,,,,,,,,,,,,,,,,,,,,,,,
,,650279e620b9fcb3b662bb2b,65af52dfdc8991f4776b9ea4,2024-01-23_16h48.34.588,bars,2023.2.3,Win32,59.17159763,657b66ea316d21385b68909f,,,,,,,,,,,369.5591,370.5527,,,371.0548,371.3035,,137,137,,,,,,,,,,,,,,,,bars/028.png,bars/mask003.png,,,,,,,,,,,,3,2,,,,,,,2,7,4,8,,,,,,368.9027,369.5529,space,0.635,,370.5532,371.0546,371.304,373.6905,space,2.3649,,373.691,88,17,374.6905,374.691,380.4302,space,5.7158,,0,0,0,0,1,45,120,,,,,,,,
,,650279e620b9fcb3b662bb2b,65af52dfdc8991f4776b9ea4,2024-01-23_16h48.34.588,bars,2023.2.3,Win32,59.17159763,657b66ea316d21385b68909f,,,,,,,,,,,380.4388,381.4299,,,381.931,382.1809,,61,61,,,,,,,,,,,,,,,,bars/044.png,bars/mask000.png,,,,,,,,,,,,2,1,,,,,,,4,5,3,5,,,,,,,,,,,381.43,381.9309,382.181,384.1165,space,1.9297,,384.1168,14,86,385.1171,385.1172,386.5189,space,1.3683,,0,1,1,1,1,75,155,,,,,,,,
,,650279e620b9fcb3b662bb2b,65af52dfdc8991f4776b9ea4,2024-01-23_16h48.34.588,bars,2023.2.3,Win32,59.17159763,657b66ea316d21385b68909f,,,,,,,,,,,386.5196,387.5195,,,388.0202,388.2701,,109,109,,,,,,,,,,,,,,,,bars/020.png,bars/mask003.png,,,,,,,,,,,,6,1,,,,,,,6,7,7,8,,,,,,,,,,,387.5196,388.02,388.2702,389.94,space,1.6623,,389.94,6,61,390.9394,390.9395,393.1096,space,2.1529,,0,2,2,2,1,115,170,,,,,,,,
,,650279e620b9fcb3b662bb2b,65af52dfdc8991f4776b9ea4,2024-01-23_16h48.34.588,bars,2023.2.3,Win32,59.17159763,657b66ea316d21385b68909f,,,,,,,,,,,393.1103,394.1091,,,394.61,394.8602,,35,215,,,,,,,,,,,,,,,,bars/026.png,bars/mask002.png,,,,,,,,,,,,7,1,,,,,,,8,5,7,5,,,,,,,,,,,394.1093,394.61,394.8603,398.5147,space,3.6405,,398.515,0,50,399.5148,399.5149,400.7167,space,1.1751,,0,3,3,3,1,35,85,,,,,,,,
,,650279e620b9fcb3b662bb2b,65af52dfdc8991f4776b9ea4,2024-01-23_16h48.34.588,bars,2023.2.3,Win32,59.17159763,657b66ea316d21385b68909f,,,,,,,,,,,400.7173,401.7169,,,402.2174,402.4679,,115,-65,,,,,,,,,,,,,,,,bars/002.png,bars/mask009.png,,,,,,,,,,,,3,1,,,,,,,6,3,6,2,,,,,,,,,,,401.717,402.2174,402.4679,406.5233,space,4.0389,,406.5233,15,30,407.5226,407.5226,409.5088,space,1.9609,,0,4,4,4,1,130,85,,,,,,,,
,,650279e620b9fcb3b662bb2b,65af52dfdc8991f4776b9ea4,2024-01-23_16h48.34.588,bars,2023.2.3,Win32,59.17159763,657b66ea316d21385b68909f,,,,,,,,,,,409.5096,410.5091,,,411.01,411.2598,,161,-19,,,,,,,,,,,,,,,,bars/036.png,bars/mask009.png,,,,,,,,,,,,2,1,,,,,,,4,5,4,6,,,,,,,,,,,410.5092,411.0099,411.26,415.198,space,3.9214,,415.1982,16,39,416.1981,416.1982,418.6853,space,2.4576,,0,5,5,5,1,145,20,,,,,,,,
,,650279e620b9fcb3b662bb2b,65af52dfdc8991f4776b9ea4,2024-01-23_16h48.34.588,bars,2023.2.3,Win32,59.17159763,657b66ea316d21385b68909f,,,,,,,,,,,418.6858,419.6869,,,420.1856,420.4357,,59,59,,,,,,,,,,,,,,,,bars/013.png,bars/mask007.png,,,,,,,,,,,,1,1,,,,,,,2,3,3,3,,,,,,,,,,,419.687,420.1856,420.4359,422.2554,space,1.8044,,422.2556,16,49,423.2551,423.2552,427.3096,space,4.0356,,0,6,6,6,1,75,10,,,,,,,,
,,650279e620b9fcb3b662bb2b,65af52dfdc8991f4776b9ea4,2024-01-23_16h48.34.588,bars,2023.2.3,Win32,59.17159763,657b66ea316d21385b68909f,,,,,,,,,,,427.3207,428.3103,,,428.8107,429.061,,3,183,,,,,,,,,,,,,,,,bars/014.png,bars/mask002.png,,,,,,,,,,,,2,2,,,,,,,4,1,6,2,,,,,,,,,,,428.3105,428.8107,429.0611,430.9652,space,1.8894,,430.9654,77,3,431.9649,431.9656,433.6825,space,1.6857,,0,7,7,7,1,80,0,,,,,,,,
,,650279e620b9fcb3b662bb2b,65af52dfdc8991f4776b9ea4,2024-01-23_16h48.34.588,bars,2023.2.3,Win32,59.17159763,657b66ea316d21385b68909f,,,,,,,,,,,433.6832,434.6832,,,435.1842,435.4342,,81,81,,,,,,,,,,,,,,,,bars/022.png,bars/mask005.png,,,,,,,,,,,,3,1,,,,,,,6,3,5,4,,,,,,,,,,,434.6832,435.184,435.4343,440.4062,space,4.9652,,440.4065,14,61,441.4067,441.4068,443.2093,space,1.7807,,0,8,8,8,1,95,20,,,,,,,,
,,650279e620b9fcb3b662bb2b,65af52dfdc8991f4776b9ea4,2024-01-23_16h48.34.588,bars,2023.2.3,Win32,59.17159763,657b66ea316d21385b68909f,,,,,,,,,,,443.2098,444.2094,,,444.71,444.9601,,21,21,,,,,,,,,,,,,,,,bars/047.png,bars/mask007.png,,,,,,,,,,,,6,1,,,,,,,8,5,7,5,,,,,,,,,,,444.2094,444.71,444.9601,446.8456,space,1.8699,,446.8457,6,49,447.8467,447.8468,447.9328,space,0.0472,,0,9,9,9,1,15,70,,,,,,,,
,,650279e620b9fcb3b662bb2b,65af52dfdc8991f4776b9ea4,2024-01-23_16h48.34.588,bars,2023.2.3,Win32,59.17159763,657b66ea316d21385b68909f,,,,,,,,,,,447.9337,448.9307,,,449.4312,449.6815,,99,99,,,,,,,,,,,,,,,,bars/014.png,bars/mask001.png,,,,,,,,,,,,4,1,,,,,,,10,3,10,4,,,,,,,,,,,448.9307,449.4312,449.6815,452.4513,space,2.7575,,452.4515,19,81,453.452,453.452,453.9713,space,0.4909,,0,10,10,10,1,80,0,,,,,,,,
,,650279e620b9fcb3b662bb2b,65af52dfdc8991f4776b9ea4,2024-01-23_16h48.34.588,bars,2023.2.3,Win32,59.17159763,657b66ea316d21385b68909f,,,,,,,,,,,453.9726,454.972,,,455.4708,455.721,,139,139,,,,,,,,,,,,,,,,bars/021.png,bars/mask006.png,,,,,,,,,,,,5,1,,,,,,,10,1,10,4,,,,,,,,,,,454.9724,455.4707,455.7211,458.908,space,3.1783,,458.9082,16,69,459.9092,459.9103,461.5941,space,1.6392,,0,11,11,11,1,155,70,,,,,,,,
,,650279e620b9fcb3b662bb2b,65af52dfdc8991f4776b9ea4,2024-01-23_16h48.34.588,bars,2023.2.3,Win32,59.17159763,657b66ea316d21385b68909f,,,,,,,,,,,461.5947,462.5944,,,463.096,463.3451,,43,43,,,,,,,,,,,,,,,,bars/006.png,bars/mask001.png,,,,,,,,,,,,7,1,,,,,,,10,3,10,3,,,,,,,,,,,462.5945,463.0959,463.3452,465.998,space,2.6382,,465.9981,8,57,466.9989,466.9989,467.6665,space,0.644,,0,12,12,12,1,35,100,,,,,,,,
,,650279e620b9fcb3b662bb2b,65af52dfdc8991f4776b9ea4,2024-01-23_16h48.34.588,bars,2023.2.3,Win32,59.17159763,657b66ea316d21385b68909f,,,,,,,,,,,467.6673,468.6672,,,469.1688,469.4179,,112,-68,,,,,,,,,,,,,,,,bars/025.png,bars/mask001.png,,,,,,,,,,,,5,1,,,,,,,8,5,6,3,,,,,,,,,,,468.6672,469.1687,469.418,473.7562,space,4.3215,,473.7564,7,72,474.7569,474.7569,475.8748,space,1.0917,,0,13,13,13,1,105,40,,,,,,,,
,,650279e620b9fcb3b662bb2b,65af52dfdc8991f4776b9ea4,2024-01-23_16h48.34.588,bars,2023.2.3,Win32,59.17159763,657b66ea316d21385b68909f,,,,,,,,,,,475.8757,476.8754,,,477.3758,477.626,,140,140,,,,,,,,,,,,,,,,bars/042.png,bars/mask009.png,,,,,,,,,,,,8,1,,,,,,,10,7,10,8,,,,,,,,,,,476.8754,477.3757,477.626,479.0311,space,1.3848,,479.0311,5,65,480.0284,480.0285,480.6803,space,0.6334,,0,14,14,14,1,145,75,,,,,,,,
,,650279e620b9fcb3b662bb2b,65af52dfdc8991f4776b9ea4,2024-01-23_16h48.34.588,bars,2023.2.3,Win32,59.17159763,657b66ea316d21385b68909f,,,,,,,,,,,480.681,481.68,,,482.1806,482.4308,,137,137,,,,,,,,,,,,,,,,bars/024.png,bars/mask005.png,,,,,,,,,,,,3,1,,,,,,,8,5,7,4,,,,,,,,,,,481.68,482.1805,482.4308,486.5185,space,4.0782,,486.5185,17,33,487.5195,487.5196,488.1535,space,0.6082,,0,15,15,15,1,120,170,,,,,,,,
,,650279e620b9fcb3b662bb2b,65af52dfdc8991f4776b9ea4,2024-01-23_16h48.34.588,bars,2023.2.3,Win32,59.17159763,657b66ea316d21385b68909f,,,,,,,,,,,488.1541,489.1542,,,489.655,489.9048,,55,55,,,,,,,,,,,,,,,,bars/013.png,bars/mask008.png,,,,,,,,,,,,2,1,,,,,,,6,3,5,5,,,,,,,,,,,489.1542,489.655,489.9048,491.6407,space,1.719,,491.6409,20,45,492.641,492.6411,493.6762,space,1.0166,,0,16,16,16,1,75,10,,,,,,,,
,,650279e620b9fcb3b662bb2b,65af52dfdc8991f4776b9ea4,2024-01-23_16h48.34.588,bars,2023.2.3,Win32,59.17159763,657b66ea316d21385b68909f,,,,,,,,,,,493.677,494.6764,,,495.1771,495.4274,,125,125,,,,,,,,,,,,,,,,bars/015.png,bars/mask001.png,,,,,,,,,,,,4,1,,,,,,,8,5,8,5,,,,,,,,,,,494.6765,495.177,495.4275,497.1295,space,1.6881,,497.1296,15,35,498.1298,498.1299,499.7991,space,1.6491,,0,17,17,17,1,110,160,,,,,,,,
,,650279e620b9fcb3b662bb2b,65af52dfdc8991f4776b9ea4,2024-01-23_16h48.34.588,bars,2023.2.3,Win32,59.17159763,657b66ea316d21385b68909f,,,,,,,,,,,499.7998,500.7992,,,501.2998,501.5499,,146,146,,,,,,,,,,,,,,,,bars/042.png,bars/mask006.png,,,,,,,,,,,,7,1,,,,,,,6,3,7,3,,,,,,,,,,,500.7993,501.2997,501.5499,505.6044,space,4.0484,,505.6046,1,71,506.6049,506.6049,507.8588,space,1.2292,,0,18,18,18,1,145,75,,,,,,,,
,,650279e620b9fcb3b662bb2b,65af52dfdc8991f4776b9ea4,2024-01-23_16h48.34.588,bars,2023.2.3,Win32,59.17159763,657b66ea316d21385b68909f,,,,,,,,,,,507.859,508.8571,,,509.3578,509.6081,,35,35,,,,,,,,,,,,,,,,bars/016.png,bars/mask009.png,,,,,,,,,,,,8,1,,,,,,,8,1,9,1,,,,,,,,,,,508.8572,509.3577,509.6081,511.7105,space,2.0903,,511.7106,5,50,512.7111,512.7111,513.4796,space,0.7564,,0,19,19,19,1,40,165,,,,,,,,
,,650279e620b9fcb3b662bb2b,65af52dfdc8991f4776b9ea4,2024-01-23_16h48.34.588,bars,2023.2.3,Win32,59.17159763,657b66ea316d21385b68909f,,,,,,,,,,,513.4803,514.4795,,,514.9798,515.2306,,37,217,,,,,,,,,,,,,,,,bars/043.png,bars/mask004.png,,,,,,,,,,,,8,1,,,,,,,10,0,10,0,,,,,,,,,,,514.4795,514.9798,515.2307,519.3346,space,4.0969,,519.3348,7,87,520.3354,520.3354,522.038,space,1.6775,,0,20,20,20,1,30,130,,,,,,,,
,,650279e620b9fcb3b662bb2b,65af52dfdc8991f4776b9ea4,2024-01-23_16h48.34.588,bars,2023.2.3,Win32,59.17159763,657b66ea316d21385b68909f,,,,,,,,,,,522.0386,523.0381,,,523.5385,523.7888,,38,38,,,,,,,,,,,,,,,,bars/043.png,bars/mask002.png,,,,,,,,,,,,4,1,,,,,,,8,0,6,0,,,,,,,,,,,523.0382,523.5385,523.7888,526.1601,space,2.3593,,526.1602,8,88,527.1588,527.1589,528.2445,space,1.0715,,0,21,21,21,1,30,130,,,,,,,,
,,650279e620b9fcb3b662bb2b,65af52dfdc8991f4776b9ea4,2024-01-23_16h48.34.588,bars,2023.2.3,Win32,59.17159763,657b66ea316d21385b68909f,,,,,,,,,,,528.2447,529.2457,,,529.7447,529.9951,,95,95,,,,,,,,,,,,,,,,bars/045.png,bars/mask004.png,,,,,,,,,,,,6,1,,,,,,,6,0,7,0,,,,,,,,,,,529.2457,529.7446,529.9952,531.3474,space,1.3436,,531.3475,5,85,532.3483,532.3493,533.0154,space,0.6545,,0,22,22,22,1,100,10,,,,,,,,
,,650279e620b9fcb3b662bb2b,65af52dfdc8991f4776b9ea4,2024-01-23_16h48.34.588,bars,2023.2.3,Win32,59.17159763,657b66ea316d21385b68909f,,,,,,,,,,,533.0161,534.0156,,,534.5162,534.7665,,139,139,,,,,,,,,,,,,,,,bars/021.png,bars/mask001.png,,,,,,,,,,,,1,1,,,,,,,4,2,2,1,,,,,,,,,,,534.0157,534.5162,534.7665,538.1719,space,3.3876,,538.172,16,69,539.1707,539.1708,540.256,space,1.059,,0,23,23,23,1,155,70,,,,,,,,
,,650279e620b9fcb3b662bb2b,65af52dfdc8991f4776b9ea4,2024-01-23_16h48.34.588,bars,2023.2.3,Win32,59.17159763,657b66ea316d21385b68909f,,,,,,,,,,,540.2565,541.2563,,,541.7567,542.0088,,146,146,,,,,,,,,,,,,,,,bars/018.png,bars/mask008.png,,,,,,,,,,,,0,1,,,,,,,2,4,0,4,,,,,,,,,,,541.2563,541.7565,542.0088,545.8279,space,3.8088,,545.828,4,56,546.8287,546.8287,549.2647,space,2.4035,,0,24,24,24,1,150,90,,,,,,,,
,,650279e620b9fcb3b662bb2b,65af52dfdc8991f4776b9ea4,2024-01-23_16h48.34.588,bars,2023.2.3,Win32,59.17159763,657b66ea316d21385b68909f,,,,,,,,,,,549.2736,550.2653,,,550.7658,551.0161,,145,145,,,,,,,,,,,,,,,,bars/048.png,bars/mask004.png,,,,,,,,,,,,0,2,,,,,,,0,6,0,6,,,,,,,,,,,550.2655,550.7658,551.0161,552.1014,space,1.0723,,552.1016,85,30,553.1015,553.1015,558.6419,space,5.5162,,0,25,25,25,1,50,175,,,,,,,,
,,650279e620b9fcb3b662bb2b,65af52dfdc8991f4776b9ea4,2024-01-23_16h48.34.588,bars,2023.2.3,Win32,59.17159763,657b66ea316d21385b68909f,,,,,,,,,,,558.6503,559.6413,,,560.1419,560.3921,,152,152,,,,,,,,,,,,,,,,bars/000.png,bars/mask006.png,,,,,,,,,,,,6,2,,,,,,,2,8,3,8,,,,,,,,,,,559.6413,560.1418,560.3922,561.9606,space,1.5563,,561.9609,68,7,562.9621,562.9624,563.529,space,0.5498,,0,26,26,26,1,40,145,,,,,,,,
,,650279e620b9fcb3b662bb2b,65af52dfdc8991f4776b9ea4,2024-01-23_16h48.34.588,bars,2023.2.3,Win32,59.17159763,657b66ea316d21385b68909f,,,,,,,,,,,563.5297,564.5295,,,565.0302,565.2801,,98,98,,,,,,,,,,,,,,,,bars/011.png,bars/mask001.png,,,,,,,,,,,,3,2,,,,,,,0,6,0,6,,,,,,,,,,,564.5295,565.0302,565.2802,568.0667,space,2.7696,,568.0668,62,13,569.068,569.068,569.7853,space,0.6861,,0,27,27,27,1,160,85,,,,,,,,
,,650279e620b9fcb3b662bb2b,65af52dfdc8991f4776b9ea4,2024-01-23_16h48.34.588,bars,2023.2.3,Win32,59.17159763,657b66ea316d21385b68909f,,,,,,,,,,,569.7861,570.7859,,,571.2864,571.5365,,69,69,,,,,,,,,,,,,,,,bars/042.png,bars/mask005.png,,,,,,,,,,,,6,2,,,,,,,0,8,0,8,,,,,,,,,,,570.786,571.2863,571.5365,574.0559,space,2.5111,,574.0559,76,6,575.0566,575.0568,575.374,space,0.2977,,0,28,28,28,1,145,75,,,,,,,,
,,650279e620b9fcb3b662bb2b,65af52dfdc8991f4776b9ea4,2024-01-23_16h48.34.588,bars,2023.2.3,Win32,59.17159763,657b66ea316d21385b68909f,,,,,,,,,,,575.3746,576.3745,,,576.8753,577.1254,,90,90,,,,,,,,,,,,,,,,bars/018.png,bars/mask008.png,,,,,,,,,,,,7,2,,,,,,,2,6,2,7,,,,,,,,,,,576.3745,576.8752,577.1255,582.3316,space,5.1955,,582.3318,60,0,583.3332,583.3333,584.5167,space,1.159,,0,29,29,29,1,150,90,,,,,,,,
,,650279e620b9fcb3b662bb2b,65af52dfdc8991f4776b9ea4,2024-01-23_16h48.34.588,bars,2023.2.3,Win32,59.17159763,657b66ea316d21385b68909f,,,,,,,,,,,584.5174,585.5171,,,586.0177,586.2679,,130,130,,,,,,,,,,,,,,,,bars/023.png,bars/mask002.png,,,,,,,,,,,,5,2,,,,,,,0,8,0,10,,,,,,,,,,,585.5171,586.0176,586.268,587.6027,space,1.3279,,587.6029,70,15,588.6038,588.6039,589.1383,space,0.5203,,0,30,30,30,1,20,115,,,,,,,,
,,650279e620b9fcb3b662bb2b,65af52dfdc8991f4776b9ea4,2024-01-23_16h48.34.588,bars,2023.2.3,Win32,59.17159763,657b66ea316d21385b68909f,,,,,,,,,,,589.1391,590.1383,,,590.6387,590.8891,,178,178,,,,,,,,,,,,,,,,bars/045.png,bars/mask005.png,,,,,,,,,,,,4,2,,,,,,,0,6,0,6,,,,,,,,,,,590.1384,590.6387,590.8891,595.2605,space,4.3584,,595.2606,78,12,596.2611,596.2612,597.2482,space,0.9573,,0,31,31,31,1,100,10,,,,,,,,
,,650279e620b9fcb3b662bb2b,65af52dfdc8991f4776b9ea4,2024-01-23_16h48.34.588,bars,2023.2.3,Win32,59.17159763,657b66ea316d21385b68909f,,,,,,,,,,,597.2489,598.2466,,,598.747,598.9972,,38,38,,,,,,,,,,,,,,,,bars/033.png,bars/mask008.png,,,,,,,,,,,,2,1,,,,,,,2,8,3,7,,,,,,,,,,,598.2467,598.7469,598.9972,600.7323,space,1.7199,,600.7325,13,63,601.7333,601.7333,603.0352,space,1.2694,,0,32,32,32,1,25,155,,,,,,,,
,,650279e620b9fcb3b662bb2b,65af52dfdc8991f4776b9ea4,2024-01-23_16h48.34.588,bars,2023.2.3,Win32,59.17159763,657b66ea316d21385b68909f,,,,,,,,,,,603.0359,604.0357,,,604.5363,604.7864,,53,233,,,,,,,,,,,,,,,,bars/017.png,bars/mask003.png,,,,,,,,,,,,7,2,,,,,,,4,10,2,10,,,,,,,,,,,604.0357,604.5362,604.7864,609.141,space,4.3412,,609.1411,88,8,610.142,610.142,610.426,space,0.2476,,0,33,33,33,1,145,45,,,,,,,,
,,650279e620b9fcb3b662bb2b,65af52dfdc8991f4776b9ea4,2024-01-23_16h48.34.588,bars,2023.2.3,Win32,59.17159763,657b66ea316d21385b68909f,,,,,,,,,,,610.4269,611.4264,,,611.9268,612.1797,,1,181,,,,,,,,,,,,,,,,bars/014.png,bars/mask000.png,,,,,,,,,,,,8,2,,,,,,,6,10,7,8,,,,,,,,,,,611.4265,611.9268,612.1798,616.5815,space,4.3871,,616.5815,79,1,617.5826,617.5826,618.0668,space,0.458,,0,34,34,34,1,80,0,,,,,,,,
,,650279e620b9fcb3b662bb2b,65af52dfdc8991f4776b9ea4,2024-01-23_16h48.34.588,bars,2023.2.3,Win32,59.17159763,657b66ea316d21385b68909f,,,,,,,,,,,618.0677,619.0672,,,619.5676,619.818,,73,73,,,,,,,,,,,,,,,,bars/046.png,bars/mask005.png,,,,,,,,,,,,5,2,,,,,,,8,8,9,9,,,,,,,,,,,619.0673,619.5676,619.8182,621.3545,space,1.5305,,621.3545,82,12,622.3539,622.3539,623.055,space,0.6818,,0,35,35,35,1,155,85,,,,,,,,
,,650279e620b9fcb3b662bb2b,65af52dfdc8991f4776b9ea4,2024-01-23_16h48.34.588,bars,2023.2.3,Win32,59.17159763,657b66ea316d21385b68909f,,,,,,,,,,,623.0559,624.0584,,,624.5563,624.8065,,71,71,,,,,,,,,,,,,,,,bars/027.png,bars/mask001.png,,,,,,,,,,,,3,2,,,,,,,6,10,7,10,,,,,,,,,,,624.0585,624.5561,624.8066,627.5929,space,2.7806,,627.5931,39,21,628.5935,628.5936,629.0779,space,0.4502,,0,36,36,36,1,110,50,,,,,,,,
,,650279e620b9fcb3b662bb2b,65af52dfdc8991f4776b9ea4,2024-01-23_16h48.34.588,bars,2023.2.3,Win32,59.17159763,657b66ea316d21385b68909f,,,,,,,,,,,629.0787,630.0782,,,630.5788,630.8291,,106,106,,,,,,,,,,,,,,,,bars/001.png,bars/mask004.png,,,,,,,,,,,,2,2,,,,,,,8,8,9,8,,,,,,,,,,,630.0782,630.5787,630.8291,631.7647,space,0.9295,,631.7649,24,21,632.7642,632.7643,633.4503,space,0.6688,,0,37,37,37,1,130,85,,,,,,,,
,,650279e620b9fcb3b662bb2b,65af52dfdc8991f4776b9ea4,2024-01-23_16h48.34.588,bars,2023.2.3,Win32,59.17159763,657b66ea316d21385b68909f,,,,,,,,,,,633.452,634.4492,,,634.9498,635.2001,,93,93,,,,,,,,,,,,,,,,bars/006.png,bars/mask007.png,,,,,,,,,,,,8,2,,,,,,,10,10,10,10,,,,,,,,,,,634.4493,634.9498,635.2003,636.0177,space,0.807,,636.0177,58,7,637.0184,637.0185,637.7366,space,0.6997,,0,38,38,38,1,35,100,,,,,,,,
,,650279e620b9fcb3b662bb2b,65af52dfdc8991f4776b9ea4,2024-01-23_16h48.34.588,bars,2023.2.3,Win32,59.17159763,657b66ea316d21385b68909f,,,,,,,,,,,637.7373,638.7368,,,639.2375,639.4876,,78,78,,,,,,,,,,,,,,,,bars/002.png,bars/mask005.png,,,,,,,,,,,,8,2,,,,,,,10,10,10,10,,,,,,,,,,,638.7369,639.2374,639.4876,642.1405,space,2.6396,,642.1405,52,7,643.1414,643.1415,643.4922,space,0.3187,,0,39,39,39,1,130,85,,,,,,,,
,,650279e620b9fcb3b662bb2b,65af52dfdc8991f4776b9ea4,2024-01-23_16h48.34.588,bars,2023.2.3,Win32,59.17159763,657b66ea316d21385b68909f,,,,,,,,,,,643.4928,644.4926,,,644.9932,645.2433,,148,148,,,,,,,,,,,,,,,,bars/020.png,bars/mask000.png,,,,,,,,,,,,2,2,,,,,,,8,8,7,7,,,,,,,,,,,644.4927,644.9932,645.2435,646.6953,space,1.4345,,646.6953,33,22,647.6958,647.6959,648.4471,space,0.7302,,0,40,40,40,1,115,170,,,,,,,,
,,650279e620b9fcb3b662bb2b,65af52dfdc8991f4776b9ea4,2024-01-23_16h48.34.588,bars,2023.2.3,Win32,59.17159763,657b66ea316d21385b68909f,,,,,,,,,,,648.4478,649.4477,,,649.948,650.1982,,123,123,,,,,,,,,,,,,,,,bars/037.png,bars/mask007.png,,,,,,,,,,,,2,2,,,,,,,10,6,10,5,,,,,,,,,,,649.4478,649.9479,650.1982,653.1515,space,2.9391,,653.1515,27,18,654.1521,654.1521,656.2878,space,2.1105,,0,41,41,41,1,150,105,,,,,,,,
,,650279e620b9fcb3b662bb2b,65af52dfdc8991f4776b9ea4,2024-01-23_16h48.34.588,bars,2023.2.3,Win32,59.17159763,657b66ea316d21385b68909f,,,,,,,,,,,656.2884,657.2885,,,657.7891,658.0393,,179,-1,,,,,,,,,,,,,,,,bars/039.png,bars/mask002.png,,,,,,,,,,,,6,1,,,,,,,8,8,7,7,,,,,,,,,,,657.2886,657.789,658.0393,662.0604,space,4.0071,,662.0604,4,74,663.0611,663.0611,664.0956,space,1.0114,,0,42,42,42,1,175,105,,,,,,,,
,,650279e620b9fcb3b662bb2b,65af52dfdc8991f4776b9ea4,2024-01-23_16h48.34.588,bars,2023.2.3,Win32,59.17159763,657b66ea316d21385b68909f,,,,,,,,,,,664.0963,665.0963,,,665.5969,665.8471,,155,155,,,,,,,,,,,,,,,,bars/035.png,bars/mask005.png,,,,,,,,,,,,1,1,,,,,,,6,6,4,5,,,,,,,,,,,665.0964,665.5969,665.8472,668.6337,space,2.7699,,668.6339,20,85,669.6364,669.6364,670.2023,space,0.5371,,0,43,43,43,1,175,60,,,,,,,,
,,650279e620b9fcb3b662bb2b,65af52dfdc8991f4776b9ea4,2024-01-23_16h48.34.588,bars,2023.2.3,Win32,59.17159763,657b66ea316d21385b68909f,,,,,,,,,,,670.2031,671.2028,,,671.7032,671.9534,,123,-57,,,,,,,,,,,,,,,,bars/009.png,bars/mask003.png,,,,,,,,,,,,2,2,,,,,,,8,4,7,4,,,,,,,,,,,671.2028,671.703,671.9536,677.6101,space,5.6461,,677.6101,72,18,678.6113,678.6114,679.0783,space,0.4429,,0,44,44,44,1,15,105,,,,,,,,
,,650279e620b9fcb3b662bb2b,65af52dfdc8991f4776b9ea4,2024-01-23_16h48.34.588,bars,2023.2.3,Win32,59.17159763,657b66ea316d21385b68909f,,,,,,,,,,,679.0791,680.0785,,,680.5788,680.829,,140,140,,,,,,,,,,,,,,,,bars/016.png,bars/mask002.png,,,,,,,,,,,,1,2,,,,,,,10,6,10,6,,,,,,,,,,,680.0785,680.5788,680.829,683.3152,space,2.4695,,683.3153,80,25,684.3155,684.3155,684.884,space,0.5493,,0,45,45,45,1,40,165,,,,,,,,
,,650279e620b9fcb3b662bb2b,65af52dfdc8991f4776b9ea4,2024-01-23_16h48.34.588,bars,2023.2.3,Win32,59.17159763,657b66ea316d21385b68909f,,,,,,,,,,,684.8848,685.885,,,686.3843,686.635,,93,93,,,,,,,,,,,,,,,,bars/014.png,bars/mask001.png,,,,,,,,,,,,4,1,,,,,,,8,4,7,5,,,,,,,,,,,685.8851,686.3843,686.635,690.0721,space,3.4315,,690.0723,13,87,691.0728,691.0728,691.7239,space,0.62,,0,46,46,46,1,80,0,,,,,,,,
,,650279e620b9fcb3b662bb2b,65af52dfdc8991f4776b9ea4,2024-01-23_16h48.34.588,bars,2023.2.3,Win32,59.17159763,657b66ea316d21385b68909f,,,,,,,,,,,691.7249,692.7239,,,693.2248,693.4747,,123,123,,,,,,,,,,,,,,,,bars/015.png,bars/mask008.png,,,,,,,,,,,,6,1,,,,,,,10,6,10,5,,,,,,,,,,,692.724,693.2248,693.4748,696.6633,space,3.1833,,696.6633,13,37,697.6635,697.6639,698.1634,space,0.4748,,0,47,47,47,1,110,160,,,,,,,,
,,650279e620b9fcb3b662bb2b,65af52dfdc8991f4776b9ea4,2024-01-23_16h48.34.588,bars,2023.2.3,Win32,59.17159763,657b66ea316d21385b68909f,,,,,,,,,,,698.1641,699.1642,,,699.6662,699.9149,,153,153,,,,,,,,,,,,,,,,bars/037.png,bars/mask009.png,,,,,,,,,,,,6,1,,,,,,,8,8,7,8,,,,,,,,,,,699.1642,699.666,699.9149,702.084,space,2.1521,,702.0841,3,48,703.0842,703.0842,703.5184,space,0.4213,,0,48,48,48,1,150,105,,,,,,,,
,,650279e620b9fcb3b662bb2b,65af52dfdc8991f4776b9ea4,2024-01-23_16h48.34.588,bars,2023.2.3,Win32,59.17159763,657b66ea316d21385b68909f,,,,,,,,,,,703.5191,704.5199,,,705.0202,705.2703,,48,48,,,,,,,,,,,,,,,,bars/044.png,bars/mask009.png,,,,,,,,,,,,1,1,,,,,,,6,10,7,10,,,,,,,,,,,704.5199,705.0202,705.2703,707.3892,space,2.1063,,707.3892,27,73,708.39,708.3901,709.024,space,0.6085,,0,49,49,49,1,75,155,,,,,,,,
,,650279e620b9fcb3b662bb2b,65af52dfdc8991f4776b9ea4,2024-01-23_16h48.34.588,bars,2023.2.3,Win32,59.17159763,657b66ea316d21385b68909f,,,,,,,,,,,,,,,,,,,,,,,,,,,,,,,,,,,,,,,,,,,,,,,,,,,,,,,,,,,,,,,,,,,,,,,,,,,,,,,,,,,,,,,,,,,,,709.0253,769.0183,0,0,0,2,1,sequence_tables/blk009.csv
,,650279e620b9fcb3b662bb2b,65af52dfdc8991f4776b9ea4,2024-01-23_16h48.34.588,bars,2023.2.3,Win32,59.17159763,657b66ea316d21385b68909f,,,,,,,,,,,777.1392,778.1267,,,778.6269,778.877,,73,73,,,,,,,,,,,,,,,,bars/012.png,bars/mask004.png,,,,,,,,,,,,4,1,,,,,,,8,2,9,1,,,,,,769.0314,777.1254,space,8.0849,,778.1271,778.6268,778.8771,783.5154,space,4.6215,,783.5156,17,58,784.5155,784.5155,784.5267,,,,0,0,0,0,1,90,15,,,,,,,,
,,650279e620b9fcb3b662bb2b,65af52dfdc8991f4776b9ea4,2024-01-23_16h48.34.588,bars,2023.2.3,Win32,59.17159763,657b66ea316d21385b68909f,,,,,,,,,,,784.527,785.5171,,,786.0173,786.2676,,38,38,,,,,,,,,,,,,,,,bars/026.png,bars/mask000.png,,,,,,,,,,,,5,1,,,,,,,6,4,6,4,,,,,,,,,,,785.5171,786.0173,786.2677,789.3379,space,3.053,,789.338,3,47,790.3388,790.339,790.356,,,,0,1,1,1,1,35,85,,,,,,,,
,,650279e620b9fcb3b662bb2b,65af52dfdc8991f4776b9ea4,2024-01-23_16h48.34.588,bars,2023.2.3,Win32,59.17159763,657b66ea316d21385b68909f,,,,,,,,,,,790.3562,791.3561,,,791.8567,792.1081,,126,126,,,,,,,,,,,,,,,,bars/034.png,bars/mask003.png,,,,,,,,,,,,8,1,,,,,,,8,2,8,2,,,,,,,,,,,791.3561,791.8567,792.1081,796.4123,space,4.291,,796.4123,1,61,797.4123,797.4123,797.4268,,,,0,2,2,2,1,125,65,,,,,,,,
,,650279e620b9fcb3b662bb2b,65af52dfdc8991f4776b9ea4,2024-01-23_16h48.34.588,bars,2023.2.3,Win32,59.17159763,657b66ea316d21385b68909f,,,,,,,,,,,797.427,798.4302,,,798.9303,799.1803,,57,57,,,,,,,,,,,,,,,,bars/028.png,bars/mask004.png,,,,,,,,,,,,3,1,,,,,,,6,4,5,5,,,,,,,,,,,798.4302,798.9302,799.1803,800.6656,space,1.4753,,800.6657,12,63,801.6665,801.6666,801.675,,,,0,3,3,3,1,45,120,,,,,,,,
,,650279e620b9fcb3b662bb2b,65af52dfdc8991f4776b9ea4,2024-01-23_16h48.34.588,bars,2023.2.3,Win32,59.17159763,657b66ea316d21385b68909f,,,,,,,,,,,801.675,802.6671,,,803.1687,803.4179,,31,31,,,,,,,,,,,,,,,,bars/023.png,bars/mask004.png,,,,,,,,,,,,3,1,,,,,,,4,2,5,1,,,,,,,,,,,802.6672,803.1687,803.418,808.4572,space,5.0281,,808.4575,11,84,809.4578,809.4579,809.4739,,,,0,4,4,4,1,20,115,,,,,,,,
,,650279e620b9fcb3b662bb2b,65af52dfdc8991f4776b9ea4,2024-01-23_16h48.34.588,bars,2023.2.3,Win32,59.17159763,657b66ea316d21385b68909f,,,,,,,,,,,809.4741,810.4752,,,810.9756,811.2261,,148,148,,,,,,,,,,,,,,,,bars/017.png,bars/mask000.png,,,,,,,,,,,,3,1,,,,,,,2,0,3,2,,,,,,,,,,,810.4752,810.9756,811.2261,813.3784,space,2.1395,,813.3784,3,77,814.3792,814.3792,814.3937,,,,0,5,5,5,1,145,45,,,,,,,,
,,650279e620b9fcb3b662bb2b,65af52dfdc8991f4776b9ea4,2024-01-23_16h48.34.588,bars,2023.2.3,Win32,59.17159763,657b66ea316d21385b68909f,,,,,,,,,,,814.3938,815.3969,,,815.8969,816.1476,,141,-39,,,,,,,,,,,,,,,,bars/049.png,bars/mask009.png,,,,,,,,,,,,0,1,,,,,,,0,2,1,3,,,,,,,,,,,815.397,815.8969,816.1476,822.788,space,6.6273,,822.7881,19,26,823.7886,823.7887,823.8032,,,,0,6,6,6,1,160,115,,,,,,,,
,,650279e620b9fcb3b662bb2b,65af52dfdc8991f4776b9ea4,2024-01-23_16h48.34.588,bars,2023.2.3,Win32,59.17159763,657b66ea316d21385b68909f,,,,,,,,,,,823.8035,824.8063,,,825.3076,825.5571,,177,-3,,,,,,,,,,,,,,,,bars/023.png,bars/mask007.png,,,,,,,,,,,,0,1,,,,,,,2,0,2,0,,,,,,,,,,,824.8063,825.3076,825.5571,828.2946,space,2.7216,,828.2947,23,62,829.294,829.294,829.3034,,,,0,7,7,7,1,20,115,,,,,,,,
,,650279e620b9fcb3b662bb2b,65af52dfdc8991f4776b9ea4,2024-01-23_16h48.34.588,bars,2023.2.3,Win32,59.17159763,657b66ea316d21385b68909f,,,,,,,,,,,829.3035,830.2951,,,830.7954,831.0458,,99,99,,,,,,,,,,,,,,,,bars/037.png,bars/mask007.png,,,,,,,,,,,,2,2,,,,,,,0,2,0,2,,,,,,,,,,,830.2952,830.7954,831.046,833.065,space,2.0022,,833.0651,51,6,834.0666,834.0666,834.0762,,,,0,8,8,8,1,150,105,,,,,,,,
,,650279e620b9fcb3b662bb2b,65af52dfdc8991f4776b9ea4,2024-01-23_16h48.34.588,bars,2023.2.3,Win32,59.17159763,657b66ea316d21385b68909f,,,,,,,,,,,834.0764,835.0663,,,835.567,835.8172,,55,55,,,,,,,,,,,,,,,,bars/007.png,bars/mask002.png,,,,,,,,,,,,4,2,,,,,,,0,4,0,4,,,,,,,,,,,835.0663,835.567,835.8172,839.1209,space,3.2875,,839.121,60,0,840.1214,840.1215,840.1349,,,,0,9,9,9,1,175,55,,,,,,,,
,,650279e620b9fcb3b662bb2b,65af52dfdc8991f4776b9ea4,2024-01-23_16h48.34.588,bars,2023.2.3,Win32,59.17159763,657b66ea316d21385b68909f,,,,,,,,,,,840.135,841.1226,,,841.6228,841.8731,,1,1,,,,,,,,,,,,,,,,bars/040.png,bars/mask005.png,,,,,,,,,,,,4,2,,,,,,,0,6,3,5,,,,,,,,,,,841.1226,841.6227,841.8731,846.1445,space,4.2615,,846.1446,41,4,847.1453,847.1455,847.1556,,,,0,10,10,10,1,140,5,,,,,,,,
,,650279e620b9fcb3b662bb2b,65af52dfdc8991f4776b9ea4,2024-01-23_16h48.34.588,bars,2023.2.3,Win32,59.17159763,657b66ea316d21385b68909f,,,,,,,,,,,847.1558,848.1462,,,848.6468,848.8973,,49,49,,,,,,,,,,,,,,,,bars/010.png,bars/mask004.png,,,,,,,,,,,,4,2,,,,,,,2,4,3,5,,,,,,,,,,,848.1463,848.6468,848.8974,853.1018,space,4.1881,,853.1021,64,6,854.102,854.102,854.1115,,,,0,11,11,11,1,165,55,,,,,,,,
,,650279e620b9fcb3b662bb2b,65af52dfdc8991f4776b9ea4,2024-01-23_16h48.34.588,bars,2023.2.3,Win32,59.17159763,657b66ea316d21385b68909f,,,,,,,,,,,854.1117,855.1026,,,855.6034,855.8537,,56,56,,,,,,,,,,,,,,,,bars/010.png,bars/mask004.png,,,,,,,,,,,,5,2,,,,,,,0,6,0,5,,,,,,,,,,,855.1027,855.6033,855.8537,858.5232,space,2.6604,,858.5234,71,1,859.5242,859.5242,859.5337,,,,0,12,12,12,1,165,55,,,,,,,,
,,650279e620b9fcb3b662bb2b,65af52dfdc8991f4776b9ea4,2024-01-23_16h48.34.588,bars,2023.2.3,Win32,59.17159763,657b66ea316d21385b68909f,,,,,,,,,,,859.5339,860.5251,,,861.0261,861.2759,,104,104,,,,,,,,,,,,,,,,bars/006.png,bars/mask006.png,,,,,,,,,,,,3,2,,,,,,,2,4,2,4,,,,,,,,,,,860.5252,861.0261,861.276,864.9307,space,3.6377,,864.9308,69,4,865.9306,865.9308,865.946,,,,0,13,13,13,1,35,100,,,,,,,,
,,650279e620b9fcb3b662bb2b,65af52dfdc8991f4776b9ea4,2024-01-23_16h48.34.588,bars,2023.2.3,Win32,59.17159763,657b66ea316d21385b68909f,,,,,,,,,,,865.9462,866.9504,,,867.4489,867.6991,,13,193,,,,,,,,,,,,,,,,bars/036.png,bars/mask003.png,,,,,,,,,,,,5,2,,,,,,,0,6,0,6,,,,,,,,,,,866.9506,867.4489,867.6991,871.0031,space,3.2899,,871.0032,48,7,872.004,872.0042,872.0237,,,,0,14,14,14,1,145,20,,,,,,,,
,,650279e620b9fcb3b662bb2b,65af52dfdc8991f4776b9ea4,2024-01-23_16h48.34.588,bars,2023.2.3,Win32,59.17159763,657b66ea316d21385b68909f,,,,,,,,,,,872.0238,873.0217,,,873.5216,873.7718,,139,139,,,,,,,,,,,,,,,,bars/044.png,bars/mask006.png,,,,,,,,,,,,4,2,,,,,,,2,8,1,8,,,,,,,,,,,873.0221,873.5215,873.7718,875.2916,space,1.5136,,875.2916,64,16,876.2908,876.2908,876.3046,,,,0,15,15,15,1,75,155,,,,,,,,
,,650279e620b9fcb3b662bb2b,65af52dfdc8991f4776b9ea4,2024-01-23_16h48.34.588,bars,2023.2.3,Win32,59.17159763,657b66ea316d21385b68909f,,,,,,,,,,,876.3048,877.3087,,,877.8092,878.0608,,76,76,,,,,,,,,,,,,,,,bars/041.png,bars/mask004.png,,,,,,,,,,,,6,2,,,,,,,0,10,0,9,,,,,,,,,,,877.3088,877.8092,878.0609,879.7111,space,1.6345,,879.7112,56,9,880.712,880.712,880.7217,,,,0,16,16,16,1,20,85,,,,,,,,
,,650279e620b9fcb3b662bb2b,65af52dfdc8991f4776b9ea4,2024-01-23_16h48.34.588,bars,2023.2.3,Win32,59.17159763,657b66ea316d21385b68909f,,,,,,,,,,,880.7219,881.7128,,,882.2134,882.4637,,0,0,,,,,,,,,,,,,,,,bars/040.png,bars/mask000.png,,,,,,,,,,,,8,2,,,,,,,0,10,0,10,,,,,,,,,,,881.7128,882.2133,882.4638,888.0694,space,5.5997,,888.0696,40,5,889.0737,889.0738,889.09,,,,0,17,17,17,1,140,5,,,,,,,,
,,650279e620b9fcb3b662bb2b,65af52dfdc8991f4776b9ea4,2024-01-23_16h48.34.588,bars,2023.2.3,Win32,59.17159763,657b66ea316d21385b68909f,,,,,,,,,,,889.0902,890.0878,,,890.5888,890.839,,90,90,,,,,,,,,,,,,,,,bars/018.png,bars/mask000.png,,,,,,,,,,,,9,2,,,,,,,0,10,0,9,,,,,,,,,,,890.0878,890.5887,890.8391,894.8102,space,3.9551,,894.8103,60,0,895.8106,895.8106,895.8213,,,,0,18,18,18,1,150,90,,,,,,,,
,,650279e620b9fcb3b662bb2b,65af52dfdc8991f4776b9ea4,2024-01-23_16h48.34.588,bars,2023.2.3,Win32,59.17159763,657b66ea316d21385b68909f,,,,,,,,,,,895.8216,896.8115,,,897.3114,897.5621,,154,-26,,,,,,,,,,,,,,,,bars/020.png,bars/mask005.png,,,,,,,,,,,,4,2,,,,,,,2,8,2,8,,,,,,,,,,,896.8116,897.3114,897.5621,901.0844,space,3.5111,,901.0844,39,16,902.0836,902.0836,902.0923,,,,0,19,19,19,1,115,170,,,,,,,,
,,650279e620b9fcb3b662bb2b,65af52dfdc8991f4776b9ea4,2024-01-23_16h48.34.588,bars,2023.2.3,Win32,59.17159763,657b66ea316d21385b68909f,,,,,,,,,,,902.0924,903.0841,,,903.5844,903.835,,90,90,,,,,,,,,,,,,,,,bars/019.png,bars/mask006.png,,,,,,,,,,,,3,2,,,,,,,0,6,1,6,,,,,,,,,,,903.0841,903.5844,903.835,907.8726,space,4.0198,,907.8726,45,15,908.8732,908.8732,908.8844,,,,0,20,20,20,1,45,105,,,,,,,,
,,650279e620b9fcb3b662bb2b,65af52dfdc8991f4776b9ea4,2024-01-23_16h48.34.588,bars,2023.2.3,Win32,59.17159763,657b66ea316d21385b68909f,,,,,,,,,,,908.8846,909.874,,,910.375,910.6251,,164,164,,,,,,,,,,,,,,,,bars/044.png,bars/mask000.png,,,,,,,,,,,,4,2,,,,,,,2,8,2,5,,,,,,,,,,,909.8741,910.375,910.6252,912.2609,space,1.6193,,912.2611,89,9,913.262,913.2623,913.2655,,,,0,21,21,21,1,75,155,,,,,,,,
,,650279e620b9fcb3b662bb2b,65af52dfdc8991f4776b9ea4,2024-01-23_16h48.34.588,bars,2023.2.3,Win32,59.17159763,657b66ea316d21385b68909f,,,,,,,,,,,913.2661,914.2647,,,914.7627,915.0126,,176,176,,,,,,,,,,,,,,,,bars/048.png,bars/mask008.png,,,,,,,,,,,,7,2,,,,,,,4,6,4,7,,,,,,,,,,,914.2648,914.7627,915.0127,919.1358,space,4.1152,,919.1358,54,1,920.1346,920.1346,920.1464,,,,0,22,22,22,1,50,175,,,,,,,,
,,650279e620b9fcb3b662bb2b,65af52dfdc8991f4776b9ea4,2024-01-23_16h48.34.588,bars,2023.2.3,Win32,59.17159763,657b66ea316d21385b68909f,,,,,,,,,,,920.1466,921.1356,,,921.6363,921.8869,,58,58,,,,,,,,,,,,,,,,bars/042.png,bars/mask000.png,,,,,,,,,,,,2,2,,,,,,,2,4,3,4,,,,,,,,,,,921.1356,921.6362,921.8869,926.8453,space,4.9383,,926.8454,87,17,927.8419,927.842,927.8432,,,,0,23,23,23,1,145,75,,,,,,,,
,,650279e620b9fcb3b662bb2b,65af52dfdc8991f4776b9ea4,2024-01-23_16h48.34.588,bars,2023.2.3,Win32,59.17159763,657b66ea316d21385b68909f,,,,,,,,,,,927.8436,928.8429,,,929.3435,929.5937,,158,158,,,,,,,,,,,,,,,,bars/020.png,bars/mask002.png,,,,,,,,,,,,2,2,,,,,,,0,2,1,3,,,,,,,,,,,928.8429,929.3434,929.5938,933.2815,space,3.673,,933.2817,43,12,934.2822,934.2822,934.2953,,,,0,24,24,24,1,115,170,,,,,,,,
,,650279e620b9fcb3b662bb2b,65af52dfdc8991f4776b9ea4,2024-01-23_16h48.34.588,bars,2023.2.3,Win32,59.17159763,657b66ea316d21385b68909f,,,,,,,,,,,934.2954,935.2828,,,935.7837,936.0339,,4,4,,,,,,,,,,,,,,,,bars/032.png,bars/mask008.png,,,,,,,,,,,,0,2,,,,,,,0,0,2,0,,,,,,,,,,,935.2829,935.7836,936.034,944.6267,space,8.5794,,944.6268,59,16,945.6275,945.6275,945.637,,,,0,25,25,25,1,125,20,,,,,,,,
,,650279e620b9fcb3b662bb2b,65af52dfdc8991f4776b9ea4,2024-01-23_16h48.34.588,bars,2023.2.3,Win32,59.17159763,657b66ea316d21385b68909f,,,,,,,,,,,945.6373,946.6277,,,947.1284,947.3785,,35,35,,,,,,,,,,,,,,,,bars/022.png,bars/mask001.png,,,,,,,,,,,,0,2,,,,,,,2,0,1,0,,,,,,,,,,,946.6277,947.1283,947.3785,949.0305,space,1.6458,,949.0308,60,15,950.0312,950.0313,950.0467,,,,0,26,26,26,1,95,20,,,,,,,,
,,650279e620b9fcb3b662bb2b,65af52dfdc8991f4776b9ea4,2024-01-23_16h48.34.588,bars,2023.2.3,Win32,59.17159763,657b66ea316d21385b68909f,,,,,,,,,,,950.0469,951.049,,,951.5494,951.8011,,35,35,,,,,,,,,,,,,,,,bars/000.png,bars/mask000.png,,,,,,,,,,,,0,1,,,,,,,0,2,0,2,,,,,,,,,,,951.049,951.5494,951.8011,953.8197,space,2.002,,953.8197,5,70,954.8192,954.8192,954.8287,,,,0,27,27,27,1,40,145,,,,,,,,
,,650279e620b9fcb3b662bb2b,65af52dfdc8991f4776b9ea4,2024-01-23_16h48.34.588,bars,2023.2.3,Win32,59.17159763,657b66ea316d21385b68909f,,,,,,,,,,,954.8289,955.8221,,,956.3209,956.5709,,118,-62,,,,,,,,,,,,,,,,bars/049.png,bars/mask003.png,,,,,,,,,,,,1,2,,,,,,,0,0,0,1,,,,,,,,,,,955.8221,956.3208,956.571,960.0913,space,3.5028,,960.0914,42,3,961.0921,961.0922,961.1054,,,,0,28,28,28,1,160,115,,,,,,,,
,,650279e620b9fcb3b662bb2b,65af52dfdc8991f4776b9ea4,2024-01-23_16h48.34.588,bars,2023.2.3,Win32,59.17159763,657b66ea316d21385b68909f,,,,,,,,,,,961.1056,962.1095,,,962.6104,962.8614,,52,52,,,,,,,,,,,,,,,,bars/038.png,bars/mask009.png,,,,,,,,,,,,0,2,,,,,,,2,0,2,0,,,,,,,,,,,962.1095,962.6104,962.8614,965.0296,space,2.1553,,965.0297,67,18,966.0305,966.0305,966.0441,,,,0,29,29,29,1,165,70,,,,,,,,
,,650279e620b9fcb3b662bb2b,65af52dfdc8991f4776b9ea4,2024-01-23_16h48.34.588,bars,2023.2.3,Win32,59.17159763,657b66ea316d21385b68909f,,,,,,,,,,,966.0443,967.0324,,,967.5317,967.7823,,90,90,,,,,,,,,,,,,,,,bars/022.png,bars/mask000.png,,,,,,,,,,,,0,1,,,,,,,0,2,0,2,,,,,,,,,,,967.0325,967.5316,967.7823,973.4896,space,5.701,,973.4897,5,70,974.489,974.489,974.5079,,,,0,30,30,30,1,95,20,,,,,,,,
,,650279e620b9fcb3b662bb2b,65af52dfdc8991f4776b9ea4,2024-01-23_16h48.34.588,bars,2023.2.3,Win32,59.17159763,657b66ea316d21385b68909f,,,,,,,,,,,974.5081,975.5066,,,976.0089,976.2575,,152,-28,,,,,,,,,,,,,,,,bars/000.png,bars/mask005.png,,,,,,,,,,,,0,2,,,,,,,2,0,1,0,,,,,,,,,,,975.5066,976.0088,976.2575,980.2617,space,3.9864,,980.2619,68,7,981.2623,981.2624,981.2781,,,,0,31,31,31,1,40,145,,,,,,,,
,,650279e620b9fcb3b662bb2b,65af52dfdc8991f4776b9ea4,2024-01-23_16h48.34.588,bars,2023.2.3,Win32,59.17159763,657b66ea316d21385b68909f,,,,,,,,,,,981.2785,982.2802,,,982.7806,983.0311,,173,173,,,,,,,,,,,,,,,,bars/007.png,bars/mask000.png,,,,,,,,,,,,5,1,,,,,,,4,2,5,2,,,,,,,,,,,982.2803,982.7806,983.0314,986.1341,space,3.0859,,986.1342,2,62,987.1344,987.1344,987.1472,,,,0,32,32,32,1,175,55,,,,,,,,
,,650279e620b9fcb3b662bb2b,65af52dfdc8991f4776b9ea4,2024-01-23_16h48.34.588,bars,2023.2.3,Win32,59.17159763,657b66ea316d21385b68909f,,,,,,,,,,,987.1474,988.1357,,,988.6366,988.888,,127,127,,,,,,,,,,,,,,,,bars/023.png,bars/mask001.png,,,,,,,,,,,,1,2,,,,,,,2,0,3,1,,,,,,,,,,,988.1359,988.6364,988.888,991.1725,space,2.2751,,991.1725,73,12,992.1731,992.1732,992.1767,,,,0,33,33,33,1,20,115,,,,,,,,
,,650279e620b9fcb3b662bb2b,65af52dfdc8991f4776b9ea4,2024-01-23_16h48.34.588,bars,2023.2.3,Win32,59.17159763,657b66ea316d21385b68909f,,,,,,,,,,,992.177,993.1741,,,993.675,993.9259,,71,71,,,,,,,,,,,,,,,,bars/042.png,bars/mask002.png,,,,,,,,,,,,0,2,,,,,,,0,0,0,0,,,,,,,,,,,993.1742,993.6749,993.9259,995.8105,space,1.8707,,995.8105,74,4,996.811,996.8111,996.8208,,,,0,34,34,34,1,145,75,,,,,,,,
,,650279e620b9fcb3b662bb2b,65af52dfdc8991f4776b9ea4,2024-01-23_16h48.34.588,bars,2023.2.3,Win32,59.17159763,657b66ea316d21385b68909f,,,,,,,,,,,996.8209,997.8122,,,998.3131,998.563,,33,33,,,,,,,,,,,,,,,,bars/031.png,bars/mask002.png,,,,,,,,,,,,1,2,,,,,,,0,2,1,1,,,,,,,,,,,997.8122,998.313,998.5631,1001.2162,space,2.6389,,1001.2163,87,2,1002.2165,1002.2166,1002.2304,,,,0,35,35,35,1,120,35,,,,,,,,
,,650279e620b9fcb3b662bb2b,65af52dfdc8991f4776b9ea4,2024-01-23_16h48.34.588,bars,2023.2.3,Win32,59.17159763,657b66ea316d21385b68909f,,,,,,,,,,,1002.2305,1003.2349,,,1003.7348,1003.9847,,111,111,,,,,,,,,,,,,,,,bars/039.png,bars/mask006.png,,,,,,,,,,,,0,2,,,,,,,0,0,0,0,,,,,,,,,,,1003.235,1003.7347,1003.9847,1007.0714,space,3.073,,1007.0715,64,6,1008.0749,1008.0749,1008.0949,,,,0,36,36,36,1,175,105,,,,,,,,
,,650279e620b9fcb3b662bb2b,65af52dfdc8991f4776b9ea4,2024-01-23_16h48.34.588,bars,2023.2.3,Win32,59.17159763,657b66ea316d21385b68909f,,,,,,,,,,,1008.0952,1009.0903,,,1009.5907,1009.8412,,111,-69,,,,,,,,,,,,,,,,bars/009.png,bars/mask006.png,,,,,,,,,,,,0,2,,,,,,,0,0,0,0,,,,,,,,,,,1009.0903,1009.5907,1009.8413,1014.5129,space,4.6601,,1014.513,84,6,1015.5133,1015.5135,1015.5307,,,,0,37,37,37,1,15,105,,,,,,,,
,,650279e620b9fcb3b662bb2b,65af52dfdc8991f4776b9ea4,2024-01-23_16h48.34.588,bars,2023.2.3,Win32,59.17159763,657b66ea316d21385b68909f,,,,,,,,,,,1015.5309,1016.5309,,,1017.0313,1017.2818,,43,43,,,,,,,,,,,,,,,,bars/025.png,bars/mask001.png,,,,,,,,,,,,1,2,,,,,,,0,0,0,1,,,,,,,,,,,1016.5309,1017.0312,1017.2819,1019.4006,space,2.1005,,1019.4007,62,3,1020.4014,1020.4014,1020.4028,,,,0,38,38,38,1,105,40,,,,,,,,
,,650279e620b9fcb3b662bb2b,65af52dfdc8991f4776b9ea4,2024-01-23_16h48.34.588,bars,2023.2.3,Win32,59.17159763,657b66ea316d21385b68909f,,,,,,,,,,,1020.4032,1021.4024,,,1021.9029,1022.1531,,65,65,,,,,,,,,,,,,,,,bars/046.png,bars/mask002.png,,,,,,,,,,,,0,2,,,,,,,2,0,3,0,,,,,,,,,,,1021.4025,1021.9028,1022.1531,1024.4726,space,2.3094,,1024.4726,90,20,1025.4739,1025.4741,1025.4936,,,,0,39,39,39,1,155,85,,,,,,,,
,,650279e620b9fcb3b662bb2b,65af52dfdc8991f4776b9ea4,2024-01-23_16h48.34.588,bars,2023.2.3,Win32,59.17159763,657b66ea316d21385b68909f,,,,,,,,,,,1025.4938,1026.4907,,,1026.9912,1027.2415,,143,-37,,,,,,,,,,,,,,,,bars/037.png,bars/mask001.png,,,,,,,,,,,,3,1,,,,,,,4,0,4,1,,,,,,,,,,,1026.4908,1026.9912,1027.2417,1032.8806,space,5.6211,,1032.8809,7,38,1033.8814,1033.8816,1033.8966,,,,0,40,40,40,1,150,105,,,,,,,,
,,650279e620b9fcb3b662bb2b,65af52dfdc8991f4776b9ea4,2024-01-23_16h48.34.588,bars,2023.2.3,Win32,59.17159763,657b66ea316d21385b68909f,,,,,,,,,,,1033.8969,1034.8994,,,1035.4018,1035.6497,,33,213,,,,,,,,,,,,,,,,bars/033.png,bars/mask005.png,,,,,,,,,,,,3,1,,,,,,,6,0,4,0,,,,,,,,,,,1034.8994,1035.4018,1035.6498,1038.9037,space,3.2423,,1038.9038,8,58,1039.9041,1039.9042,1039.9177,,,,0,41,41,41,1,25,155,,,,,,,,
,,650279e620b9fcb3b662bb2b,65af52dfdc8991f4776b9ea4,2024-01-23_16h48.34.588,bars,2023.2.3,Win32,59.17159763,657b66ea316d21385b68909f,,,,,,,,,,,1039.9179,1040.9218,,,1041.4223,1041.6729,,171,171,,,,,,,,,,,,,,,,bars/023.png,bars/mask004.png,,,,,,,,,,,,0,1,,,,,,,4,2,5,2,,,,,,,,,,,1040.9218,1041.4223,1041.6729,1043.6252,space,1.94,,1043.6254,29,56,1044.6254,1044.6255,1044.6398,,,,0,42,42,42,1,20,115,,,,,,,,
,,650279e620b9fcb3b662bb2b,65af52dfdc8991f4776b9ea4,2024-01-23_16h48.34.588,bars,2023.2.3,Win32,59.17159763,657b66ea316d21385b68909f,,,,,,,,,,,1044.64,1045.643,,,1046.1438,1046.3955,,147,-33,,,,,,,,,,,,,,,,bars/036.png,bars/mask002.png,,,,,,,,,,,,7,1,,,,,,,6,0,7,1,,,,,,,,,,,1045.643,1046.1438,1046.3956,1049.8974,space,3.4918,,1049.8975,2,53,1050.8988,1050.899,1050.9169,,,,0,43,43,43,1,145,20,,,,,,,,
,,650279e620b9fcb3b662bb2b,65af52dfdc8991f4776b9ea4,2024-01-23_16h48.34.588,bars,2023.2.3,Win32,59.17159763,657b66ea316d21385b68909f,,,,,,,,,,,1050.9171,1051.9162,,,1052.417,1052.667,,32,32,,,,,,,,,,,,,,,,bars/000.png,bars/mask006.png,,,,,,,,,,,,4,1,,,,,,,4,2,6,2,,,,,,,,,,,1051.9162,1052.417,1052.6671,1054.4691,space,1.7864,,1054.4693,8,67,1055.4699,1055.4699,1055.4823,,,,0,44,44,44,1,40,145,,,,,,,,
,,650279e620b9fcb3b662bb2b,65af52dfdc8991f4776b9ea4,2024-01-23_16h48.34.588,bars,2023.2.3,Win32,59.17159763,657b66ea316d21385b68909f,,,,,,,,,,,1055.4824,1056.471,,,1056.9711,1057.222,,110,-70,,,,,,,,,,,,,,,,bars/020.png,bars/mask002.png,,,,,,,,,,,,3,1,,,,,,,2,4,3,4,,,,,,,,,,,1056.471,1056.971,1057.2221,1061.893,space,4.6493,,1061.8932,5,60,1062.8938,1062.8938,1062.9094,,,,0,45,45,45,1,115,170,,,,,,,,
,,650279e620b9fcb3b662bb2b,65af52dfdc8991f4776b9ea4,2024-01-23_16h48.34.588,bars,2023.2.3,Win32,59.17159763,657b66ea316d21385b68909f,,,,,,,,,,,1062.9096,1063.9114,,,1064.4115,1064.6624,,161,-19,,,,,,,,,,,,,,,,bars/035.png,bars/mask001.png,,,,,,,,,,,,2,1,,,,,,,4,2,4,1,,,,,,,,,,,1063.9114,1064.4115,1064.6625,1070.5686,space,5.8991,,1070.5687,14,79,1071.5691,1071.5692,1071.5801,,,,0,46,46,46,1,175,60,,,,,,,,
,,650279e620b9fcb3b662bb2b,65af52dfdc8991f4776b9ea4,2024-01-23_16h48.34.588,bars,2023.2.3,Win32,59.17159763,657b66ea316d21385b68909f,,,,,,,,,,,1071.5802,1072.5702,,,1073.0704,1073.321,,39,39,,,,,,,,,,,,,,,,bars/048.png,bars/mask002.png,,,,,,,,,,,,4,1,,,,,,,6,0,6,0,,,,,,,,,,,1072.5703,1073.0704,1073.321,1074.5223,space,1.1897,,1074.5223,11,44,1075.5229,1075.523,1075.5244,,,,0,47,47,47,1,50,175,,,,,,,,
,,650279e620b9fcb3b662bb2b,65af52dfdc8991f4776b9ea4,2024-01-23_16h48.34.588,bars,2023.2.3,Win32,59.17159763,657b66ea316d21385b68909f,,,,,,,,,,,1075.5247,1076.524,,,1077.0246,1077.2748,,132,132,,,,,,,,,,,,,,,,bars/017.png,bars/mask007.png,,,,,,,,,,,,3,1,,,,,,,4,2,5,2,,,,,,,,,,,1076.524,1077.0245,1077.2749,1078.5774,space,1.2965,,1078.5775,13,87,1079.5773,1079.5774,1079.5789,,,,0,48,48,48,1,145,45,,,,,,,,
,,650279e620b9fcb3b662bb2b,65af52dfdc8991f4776b9ea4,2024-01-23_16h48.34.588,bars,2023.2.3,Win32,59.17159763,657b66ea316d21385b68909f,,,,,,,,,,,1079.5794,1080.5782,,,1081.0784,1081.3287,,42,42,,,,,,,,,,,,,,,,bars/003.png,bars/mask001.png,,,,,,,,,,,,2,1,,,,,,,2,4,4,3,,,,,,,,,,,1080.5783,1081.0783,1081.3287,1084.7162,space,3.3664,,1084.7162,17,82,1085.7166,1085.7167,1085.7303,,,,0,49,49,49,1,25,140,,,,,,,,
,,650279e620b9fcb3b662bb2b,65af52dfdc8991f4776b9ea4,2024-01-23_16h48.34.588,bars,2023.2.3,Win32,59.17159763,657b66ea316d21385b68909f,,,,,,,,,,,,,,,,,,,,,,,,,,,,,,,,,,,,,,,,,,,,,,,,,,,,,,,,,,,,,,,,,,,,,,,,,,,,,,,,,,,,,,,,,,,,,1085.7304,1153.3231,0,1,1,1,1,sequence_tables/blk015.csv
,,650279e620b9fcb3b662bb2b,65af52dfdc8991f4776b9ea4,2024-01-23_16h48.34.588,bars,2023.2.3,Win32,59.17159763,657b66ea316d21385b68909f,,,,,,,,,,,1154.5585,1155.5532,,,1156.054,1156.3036,,116,-64,,,,,,,,,,,,,,,,bars/015.png,bars/mask001.png,,,,,,,,,,,,6,1,,,,,,,7,5,7,6,,,,,,1153.3413,1154.554,space,1.2061,,1155.5533,1156.0539,1156.3037,1160.3576,space,4.0417,,1160.3577,6,44,1161.359,1161.3591,1161.3707,,,,0,0,0,0,1,110,160,,,,,,,,
,,650279e620b9fcb3b662bb2b,65af52dfdc8991f4776b9ea4,2024-01-23_16h48.34.588,bars,2023.2.3,Win32,59.17159763,657b66ea316d21385b68909f,,,,,,,,,,,1161.3708,1162.3595,,,1162.8616,1163.1107,,106,106,,,,,,,,,,,,,,,,bars/000.png,bars/mask009.png,,,,,,,,,,,,0,2,,,,,,,9,3,10,2,,,,,,,,,,,1162.3596,1162.8616,1163.1108,1164.4949,space,1.3681,,1164.4949,66,39,1165.496,1165.496,1165.5052,,,,0,1,1,1,1,40,145,,,,,,,,
,,650279e620b9fcb3b662bb2b,65af52dfdc8991f4776b9ea4,2024-01-23_16h48.34.588,bars,2023.2.3,Win32,59.17159763,657b66ea316d21385b68909f,,,,,,,,,,,1165.5053,1166.4978,,,1166.9982,1167.2485,,40,40,,,,,,,,,,,,,,,,bars/043.png,bars/mask003.png,,,,,,,,,,,,4,1,,,,,,,7,1,6,2,,,,,,,,,,,1166.4978,1166.9981,1167.2485,1169.5673,space,2.3082,,1169.5674,10,90,1170.5682,1170.5684,1170.5823,,,,0,2,2,2,1,30,130,,,,,,,,
,,650279e620b9fcb3b662bb2b,65af52dfdc8991f4776b9ea4,2024-01-23_16h48.34.588,bars,2023.2.3,Win32,59.17159763,657b66ea316d21385b68909f,,,,,,,,,,,1170.5824,1171.5859,,,1172.0872,1172.3366,,141,141,,,,,,,,,,,,,,,,bars/042.png,bars/mask001.png,,,,,,,,,,,,4,1,,,,,,,5,3,5,2,,,,,,,,,,,1171.5859,1172.0871,1172.3367,1174.0893,space,1.7403,,1174.0895,4,66,1175.0909,1175.0911,1175.0935,,,,0,3,3,3,1,145,75,,,,,,,,
,,650279e620b9fcb3b662bb2b,65af52dfdc8991f4776b9ea4,2024-01-23_16h48.34.588,bars,2023.2.3,Win32,59.17159763,657b66ea316d21385b68909f,,,,,,,,,,,1175.0939,1176.0907,,,1176.5907,1176.841,,120,120,,,,,,,,,,,,,,,,bars/042.png,bars/mask002.png,,,,,,,,,,,,1,1,,,,,,,7,1,6,2,,,,,,,,,,,1176.0909,1176.5907,1176.841,1178.1259,space,1.2765,,1178.126,25,45,1179.1263,1179.1263,1179.1274,,,,0,4,4,4,1,145,75,,,,,,,,
,,650279e620b9fcb3b662bb2b,65af52dfdc8991f4776b9ea4,2024-01-23_16h48.34.588,bars,2023.2.3,Win32,59.17159763,657b66ea316d21385b68909f,,,,,,,,,,,1179.1279,1180.128,,,1180.6284,1180.8785,,74,74,,,,,,,,,,,,,,,,bars/029.png,bars/mask004.png,,,,,,,,,,,,2,1,,,,,,,5,0,5,0,,,,,,,,,,,1180.128,1180.6284,1180.8785,1183.082,space,2.1984,,1183.0821,16,29,1184.0816,1184.0817,1184.0916,,,,0,5,5,5,1,90,45,,,,,,,,
,,650279e620b9fcb3b662bb2b,65af52dfdc8991f4776b9ea4,2024-01-23_16h48.34.588,bars,2023.2.3,Win32,59.17159763,657b66ea316d21385b68909f,,,,,,,,,,,1184.0918,1185.0828,,,1185.5832,1185.8334,,116,116,,,,,,,,,,,,,,,,bars/045.png,bars/mask004.png,,,,,,,,,,,,4,1,,,,,,,7,2,8,3,,,,,,,,,,,1185.0829,1185.583,1185.8335,1188.953,space,3.1039,,1188.9531,16,74,1189.9542,1189.9542,1189.9674,,,,0,6,6,6,1,100,10,,,,,,,,
,,650279e620b9fcb3b662bb2b,65af52dfdc8991f4776b9ea4,2024-01-23_16h48.34.588,bars,2023.2.3,Win32,59.17159763,657b66ea316d21385b68909f,,,,,,,,,,,1189.9674,1190.9552,,,1191.4559,1191.7061,,74,74,,,,,,,,,,,,,,,,bars/044.png,bars/mask000.png,,,,,,,,,,,,10,1,,,,,,,9,0,10,1,,,,,,,,,,,1190.9552,1191.4558,1191.7061,1193.6245,space,1.9102,,1193.6246,1,81,1194.6255,1194.6256,1194.6267,,,,0,7,7,7,1,75,155,,,,,,,,
,,650279e620b9fcb3b662bb2b,65af52dfdc8991f4776b9ea4,2024-01-23_16h48.34.588,bars,2023.2.3,Win32,59.17159763,657b66ea316d21385b68909f,,,,,,,,,,,1194.6272,1195.6267,,,1196.127,1196.3771,,93,93,,,,,,,,,,,,,,,,bars/012.png,bars/mask009.png,,,,,,,,,,,,5,1,,,,,,,7,0,6,0,,,,,,,,,,,1195.6267,1196.1269,1196.3773,1200.1644,space,3.7777,,1200.1644,3,78,1201.1657,1201.1658,1201.1756,,,,0,8,8,8,1,90,15,,,,,,,,
,,650279e620b9fcb3b662bb2b,65af52dfdc8991f4776b9ea4,2024-01-23_16h48.34.588,bars,2023.2.3,Win32,59.17159763,657b66ea316d21385b68909f,,,,,,,,,,,1201.1759,1202.1664,,,1202.667,1202.9172,,54,54,,,,,,,,,,,,,,,,bars/029.png,bars/mask004.png,,,,,,,,,,,,1,2,,,,,,,5,2,4,1,,,,,,,,,,,1202.1667,1202.667,1202.9172,1204.6021,space,1.6687,,1204.6023,36,9,1205.6033,1205.6034,1205.6178,,,,0,9,9,9,1,90,45,,,,,,,,
,,650279e620b9fcb3b662bb2b,65af52dfdc8991f4776b9ea4,2024-01-23_16h48.34.588,bars,2023.2.3,Win32,59.17159763,657b66ea316d21385b68909f,,,,,,,,,,,1205.6181,1206.6061,,,1207.1048,1207.3549,,142,-38,,,,,,,,,,,,,,,,bars/037.png,bars/mask001.png,,,,,,,,,,,,3,1,,,,,,,3,0,4,0,,,,,,,,,,,1206.6062,1207.1048,1207.355,1209.6573,space,2.2905,,1209.6573,8,37,1210.6579,1210.6579,1210.6712,,,,0,10,10,10,1,150,105,,,,,,,,
,,650279e620b9fcb3b662bb2b,65af52dfdc8991f4776b9ea4,2024-01-23_16h48.34.588,bars,2023.2.3,Win32,59.17159763,657b66ea316d21385b68909f,,,,,,,,,,,1210.6715,1211.6594,,,1212.1599,1212.4102,,27,27,,,,,,,,,,,,,,,,bars/041.png,bars/mask003.png,,,,,,,,,,,,1,1,,,,,,,1,0,1,0,,,,,,,,,,,1211.6595,1212.1599,1212.4102,1214.5955,space,2.1747,,1214.5955,7,58,1215.5966,1215.5967,1215.6087,,,,0,11,11,11,1,20,85,,,,,,,,
,,650279e620b9fcb3b662bb2b,65af52dfdc8991f4776b9ea4,2024-01-23_16h48.34.588,bars,2023.2.3,Win32,59.17159763,657b66ea316d21385b68909f,,,,,,,,,,,1215.6088,1216.5975,,,1217.0982,1217.3484,,113,113,,,,,,,,,,,,,,,,bars/027.png,bars/mask001.png,,,,,,,,,,,,3,1,,,,,,,3,0,3,0,,,,,,,,,,,1216.5976,1217.0981,1217.3484,1220.6011,space,3.2372,,1220.6012,3,63,1221.6026,1221.6027,1221.6125,,,,0,12,12,12,1,110,50,,,,,,,,
,,650279e620b9fcb3b662bb2b,65af52dfdc8991f4776b9ea4,2024-01-23_16h48.34.588,bars,2023.2.3,Win32,59.17159763,657b66ea316d21385b68909f,,,,,,,,,,,1221.6126,1222.603,,,1223.1047,1223.3542,,110,110,,,,,,,,,,,,,,,,bars/008.png,bars/mask007.png,,,,,,,,,,,,4,1,,,,,,,5,0,4,0,,,,,,,,,,,1222.6031,1223.1046,1223.3542,1224.9727,space,1.6113,,1224.9727,0,70,1225.9734,1225.9734,1225.9833,,,,0,13,13,13,1,110,0,,,,,,,,
,,650279e620b9fcb3b662bb2b,65af52dfdc8991f4776b9ea4,2024-01-23_16h48.34.588,bars,2023.2.3,Win32,59.17159763,657b66ea316d21385b68909f,,,,,,,,,,,1225.9836,1226.9743,,,1227.4747,1227.7256,,3,183,,,,,,,,,,,,,,,,bars/003.png,bars/mask001.png,,,,,,,,,,,,1,1,,,,,,,3,0,3,2,,,,,,,,,,,1226.9745,1227.4746,1227.7257,1229.9443,space,2.2025,,1229.9443,22,43,1230.9451,1230.9452,1230.9468,,,,0,14,14,14,1,25,140,,,,,,,,
,,650279e620b9fcb3b662bb2b,65af52dfdc8991f4776b9ea4,2024-01-23_16h48.34.588,bars,2023.2.3,Win32,59.17159763,657b66ea316d21385b68909f,,,,,,,,,,,1230.9471,1231.946,,,1232.4467,1232.6969,,151,-29,,,,,,,,,,,,,,,,bars/007.png,bars/mask004.png,,,,,,,,,,,,1,1,,,,,,,5,2,4,3,,,,,,,,,,,1231.9462,1232.4466,1232.6969,1235.8834,space,3.17,,1235.8834,24,84,1236.8871,1236.8872,1236.8982,,,,0,15,15,15,1,175,55,,,,,,,,
,,650279e620b9fcb3b662bb2b,65af52dfdc8991f4776b9ea4,2024-01-23_16h48.34.588,bars,2023.2.3,Win32,59.17159763,657b66ea316d21385b68909f,,,,,,,,,,,1236.8984,1237.9016,,,1238.4027,1238.6528,,157,157,,,,,,,,,,,,,,,,bars/049.png,bars/mask008.png,,,,,,,,,,,,7,1,,,,,,,7,4,8,3,,,,,,,,,,,1237.9016,1238.4026,1238.6528,1241.2221,space,2.5624,,1241.2222,3,42,1242.2233,1242.2234,1242.2379,,,,0,16,16,16,1,160,115,,,,,,,,
,,650279e620b9fcb3b662bb2b,65af52dfdc8991f4776b9ea4,2024-01-23_16h48.34.588,bars,2023.2.3,Win32,59.17159763,657b66ea316d21385b68909f,,,,,,,,,,,1242.2381,1243.2411,,,1243.7411,1243.9909,,138,138,,,,,,,,,,,,,,,,bars/021.png,bars/mask002.png,,,,,,,,,,,,4,1,,,,,,,9,2,9,3,,,,,,,,,,,1243.2412,1243.7411,1243.991,1247.0146,space,3.0177,,1247.0147,17,68,1248.0124,1248.0124,1248.0254,,,,0,17,17,17,1,155,70,,,,,,,,
,,650279e620b9fcb3b662bb2b,65af52dfdc8991f4776b9ea4,2024-01-23_16h48.34.588,bars,2023.2.3,Win32,59.17159763,657b66ea316d21385b68909f,,,,,,,,,,,1248.0255,1249.0153,,,1249.5136,1249.7636,,135,135,,,,,,,,,,,,,,,,bars/021.png,bars/mask009.png,,,,,,,,,,,,3,1,,,,,,,10,0,10,1,,,,,,,,,,,1249.0155,1249.5135,1249.7636,1255.1862,space,5.4117,,1255.1863,20,65,1256.1871,1256.1871,1256.2014,,,,0,18,18,18,1,155,70,,,,,,,,
,,650279e620b9fcb3b662bb2b,65af52dfdc8991f4776b9ea4,2024-01-23_16h48.34.588,bars,2023.2.3,Win32,59.17159763,657b66ea316d21385b68909f,,,,,,,,,,,1256.2016,1257.2047,,,1257.7053,1257.9553,,18,198,,,,,,,,,,,,,,,,bars/023.png,bars/mask006.png,,,,,,,,,,,,7,1,,,,,,,10,0,7,0,,,,,,,,,,,1257.2047,1257.7053,1257.9553,1260.1408,space,2.1695,,1260.1408,2,83,1261.1419,1261.142,1261.143,,,,0,19,19,19,1,20,115,,,,,,,,
,,650279e620b9fcb3b662bb2b,65af52dfdc8991f4776b9ea4,2024-01-23_16h48.34.588,bars,2023.2.3,Win32,59.17159763,657b66ea316d21385b68909f,,,,,,,,,,,1261.1434,1262.143,,,1262.6455,1262.8931,,116,116,,,,,,,,,,,,,,,,bars/030.png,bars/mask000.png,,,,,,,,,,,,1,1,,,,,,,8,2,7,3,,,,,,,,,,,1262.143,1262.6453,1262.8931,1264.9119,space,2.011,,1264.9119,24,51,1265.9133,1265.9133,1265.9294,,,,0,20,20,20,1,140,65,,,,,,,,
,,650279e620b9fcb3b662bb2b,65af52dfdc8991f4776b9ea4,2024-01-23_16h48.34.588,bars,2023.2.3,Win32,59.17159763,657b66ea316d21385b68909f,,,,,,,,,,,1265.9299,1266.9311,,,1267.4315,1267.6816,,44,224,,,,,,,,,,,,,,,,bars/026.png,bars/mask004.png,,,,,,,,,,,,7,1,,,,,,,10,4,10,4,,,,,,,,,,,1266.9312,1267.4314,1267.6817,1271.5209,space,3.8347,,1271.521,9,41,1272.5211,1272.5211,1272.5311,,,,0,21,21,21,1,35,85,,,,,,,,
,,650279e620b9fcb3b662bb2b,65af52dfdc8991f4776b9ea4,2024-01-23_16h48.34.588,bars,2023.2.3,Win32,59.17159763,657b66ea316d21385b68909f,,,,,,,,,,,1272.5313,1273.5218,,,1274.0217,1274.2718,,84,84,,,,,,,,,,,,,,,,bars/012.png,bars/mask009.png,,,,,,,,,,,,6,1,,,,,,,8,2,7,2,,,,,,,,,,,1273.5218,1274.0217,1274.2719,1277.9588,space,3.6722,,1277.9589,6,69,1278.9598,1278.96,1278.9726,,,,0,22,22,22,1,90,15,,,,,,,,
,,650279e620b9fcb3b662bb2b,65af52dfdc8991f4776b9ea4,2024-01-23_16h48.34.588,bars,2023.2.3,Win32,59.17159763,657b66ea316d21385b68909f,,,,,,,,,,,1278.9728,1279.9609,,,1280.4629,1280.7115,,144,-36,,,,,,,,,,,,,,,,bars/011.png,bars/mask008.png,,,,,,,,,,,,4,1,,,,,,,10,0,9,0,,,,,,,,,,,1279.961,1280.4628,1280.7115,1287.5847,space,6.8577,,1287.5847,16,59,1288.5867,1288.5869,1288.5971,,,,0,23,23,23,1,160,85,,,,,,,,
,,650279e620b9fcb3b662bb2b,65af52dfdc8991f4776b9ea4,2024-01-23_16h48.34.588,bars,2023.2.3,Win32,59.17159763,657b66ea316d21385b68909f,,,,,,,,,,,1288.5973,1289.5874,,,1290.0879,1290.3378,,176,176,,,,,,,,,,,,,,,,bars/010.png,bars/mask002.png,,,,,,,,,,,,6,1,,,,,,,10,0,10,0,,,,,,,,,,,1289.5875,1290.0878,1290.3379,1294.5094,space,4.1667,,1294.5095,11,59,1295.5097,1295.5097,1295.521,,,,0,24,24,24,1,165,55,,,,,,,,
,,650279e620b9fcb3b662bb2b,65af52dfdc8991f4776b9ea4,2024-01-23_16h48.34.588,bars,2023.2.3,Win32,59.17159763,657b66ea316d21385b68909f,,,,,,,,,,,1295.5211,1296.5107,,,1297.0111,1297.2609,,113,113,,,,,,,,,,,,,,,,bars/008.png,bars/mask006.png,,,,,,,,,,,,7,1,,,,,,,8,0,8,2,,,,,,,,,,,1296.5107,1297.0111,1297.2609,1301.3323,space,4.0632,,1301.3324,3,67,1302.3333,1302.3333,1302.3472,,,,0,25,25,25,1,110,0,,,,,,,,
,,650279e620b9fcb3b662bb2b,65af52dfdc8991f4776b9ea4,2024-01-23_16h48.34.588,bars,2023.2.3,Win32,59.17159763,657b66ea316d21385b68909f,,,,,,,,,,,1302.3474,1303.351,,,1303.8525,1304.1015,,40,220,,,,,,,,,,,,,,,,bars/006.png,bars/mask008.png,,,,,,,,,,,,8,1,,,,,,,10,0,10,2,,,,,,,,,,,1303.351,1303.8524,1304.1015,1307.3546,space,3.2369,,1307.3547,5,60,1308.3559,1308.3559,1308.3692,,,,0,26,26,26,1,35,100,,,,,,,,
,,650279e620b9fcb3b662bb2b,65af52dfdc8991f4776b9ea4,2024-01-23_16h48.34.588,bars,2023.2.3,Win32,59.17159763,657b66ea316d21385b68909f,,,,,,,,,,,1308.3694,1309.3737,,,1309.8737,1310.1242,,29,209,,,,,,,,,,,,,,,,bars/003.png,bars/mask000.png,,,,,,,,,,,,5,1,,,,,,,8,2,6,2,,,,,,,,,,,1309.3737,1309.8736,1310.1243,1313.394,space,3.2532,,1313.3941,4,69,1314.3955,1314.3956,1314.4125,,,,0,27,27,27,1,25,140,,,,,,,,
,,650279e620b9fcb3b662bb2b,65af52dfdc8991f4776b9ea4,2024-01-23_16h48.34.588,bars,2023.2.3,Win32,59.17159763,657b66ea316d21385b68909f,,,,,,,,,,,1314.413,1315.4128,,,1315.9139,1316.1635,,128,128,,,,,,,,,,,,,,,,bars/001.png,bars/mask003.png,,,,,,,,,,,,6,1,,,,,,,6,4,6,4,,,,,,,,,,,1315.4129,1315.9138,1316.1635,1317.9487,space,1.7706,,1317.9488,2,43,1318.9498,1318.95,1318.9638,,,,0,28,28,28,1,130,85,,,,,,,,
,,650279e620b9fcb3b662bb2b,65af52dfdc8991f4776b9ea4,2024-01-23_16h48.34.588,bars,2023.2.3,Win32,59.17159763,657b66ea316d21385b68909f,,,,,,,,,,,1318.964,1319.9672,,,1320.468,1320.7182,,117,117,,,,,,,,,,,,,,,,bars/025.png,bars/mask007.png,,,,,,,,,,,,3,1,,,,,,,4,6,5,7,,,,,,,,,,,1319.9675,1320.4679,1320.7182,1325.0898,space,4.3656,,1325.09,12,77,1326.0902,1326.0903,1326.0998,,,,0,29,29,29,1,105,40,,,,,,,,
,,650279e620b9fcb3b662bb2b,65af52dfdc8991f4776b9ea4,2024-01-23_16h48.34.588,bars,2023.2.3,Win32,59.17159763,657b66ea316d21385b68909f,,,,,,,,,,,1326.0998,1327.0918,,,1327.5915,1327.8415,,38,38,,,,,,,,,,,,,,,,bars/028.png,bars/mask002.png,,,,,,,,,,,,5,1,,,,,,,6,8,7,8,,,,,,,,,,,1327.0918,1327.5915,1327.8416,1329.6435,space,1.7922,,1329.6436,7,82,1330.6446,1330.6448,1330.6581,,,,0,30,30,30,1,45,120,,,,,,,,
,,650279e620b9fcb3b662bb2b,65af52dfdc8991f4776b9ea4,2024-01-23_16h48.34.588,bars,2023.2.3,Win32,59.17159763,657b66ea316d21385b68909f,,,,,,,,,,,1330.6583,1331.6626,,,1332.1629,1332.4131,,48,48,,,,,,,,,,,,,,,,bars/019.png,bars/mask009.png,,,,,,,,,,,,6,1,,,,,,,8,6,7,6,,,,,,,,,,,1331.6627,1332.1627,1332.4131,1335.7167,space,3.291,,1335.7167,3,57,1336.7175,1336.7178,1336.7324,,,,0,31,31,31,1,45,105,,,,,,,,
,,650279e620b9fcb3b662bb2b,65af52dfdc8991f4776b9ea4,2024-01-23_16h48.34.588,bars,2023.2.3,Win32,59.17159763,657b66ea316d21385b68909f,,,,,,,,,,,1336.7326,1337.7356,,,1338.2351,1338.4858,,88,88,,,,,,,,,,,,,,,,bars/014.png,bars/mask005.png,,,,,,,,,,,,5,1,,,,,,,6,4,7,3,,,,,,,,,,,1337.7356,1338.2351,1338.4858,1340.6212,space,2.1288,,1340.6213,8,88,1341.6222,1341.6223,1341.6321,,,,0,32,32,32,1,80,0,,,,,,,,
,,650279e620b9fcb3b662bb2b,65af52dfdc8991f4776b9ea4,2024-01-23_16h48.34.588,bars,2023.2.3,Win32,59.17159763,657b66ea316d21385b68909f,,,,,,,,,,,1341.6322,1342.623,,,1343.1235,1343.374,,90,90,,,,,,,,,,,,,,,,bars/029.png,bars/mask005.png,,,,,,,,,,,,8,1,,,,,,,8,6,8,4,,,,,,,,,,,1342.623,1343.1235,1343.374,1345.4591,space,2.0806,,1345.4591,0,45,1346.4603,1346.4603,1346.4613,,,,0,33,33,33,1,90,45,,,,,,,,
,,650279e620b9fcb3b662bb2b,65af52dfdc8991f4776b9ea4,2024-01-23_16h48.34.588,bars,2023.2.3,Win32,59.17159763,657b66ea316d21385b68909f,,,,,,,,,,,1346.4616,1347.461,,,1347.9621,1348.2123,,128,128,,,,,,,,,,,,,,,,bars/040.png,bars/mask003.png,,,,,,,,,,,,6,1,,,,,,,10,8,10,7,,,,,,,,,,,1347.461,1347.9619,1348.2123,1352.2497,space,4.0216,,1352.2497,12,57,1353.2504,1353.2505,1353.2604,,,,0,34,34,34,1,140,5,,,,,,,,
,,650279e620b9fcb3b662bb2b,65af52dfdc8991f4776b9ea4,2024-01-23_16h48.34.588,bars,2023.2.3,Win32,59.17159763,657b66ea316d21385b68909f,,,,,,,,,,,1353.2606,1354.2514,,,1354.7516,1355.0023,,148,148,,,,,,,,,,,,,,,,bars/042.png,bars/mask003.png,,,,,,,,,,,,5,1,,,,,,,8,10,6,10,,,,,,,,,,,1354.2514,1354.7516,1355.0024,1357.8054,space,2.7913,,1357.8056,3,73,1358.8061,1358.8062,1358.8159,,,,0,35,35,35,1,145,75,,,,,,,,
,,650279e620b9fcb3b662bb2b,65af52dfdc8991f4776b9ea4,2024-01-23_16h48.34.588,bars,2023.2.3,Win32,59.17159763,657b66ea316d21385b68909f,,,,,,,,,,,1358.8161,1359.807,,,1360.3081,1360.5577,,133,133,,,,,,,,,,,,,,,,bars/036.png,bars/mask009.png,,,,,,,,,,,,4,1,,,,,,,6,8,7,8,,,,,,,,,,,1359.8071,1360.3079,1360.5578,1362.0588,space,1.4945,,1362.0588,12,67,1363.0616,1363.0617,1363.0797,,,,0,36,36,36,1,145,20,,,,,,,,
,,650279e620b9fcb3b662bb2b,65af52dfdc8991f4776b9ea4,2024-01-23_16h48.34.588,bars,2023.2.3,Win32,59.17159763,657b66ea316d21385b68909f,,,,,,,,,,,1363.0799,1364.0782,,,1364.5786,1364.829,,73,73,,,,,,,,,,,,,,,,bars/044.png,bars/mask001.png,,,,,,,,,,,,4,1,,,,,,,4,6,4,6,,,,,,,,,,,1364.0782,1364.5785,1364.829,1366.4307,space,1.585,,1366.4307,2,82,1367.4316,1367.4318,1367.4481,,,,0,37,37,37,1,75,155,,,,,,,,
,,650279e620b9fcb3b662bb2b,65af52dfdc8991f4776b9ea4,2024-01-23_16h48.34.588,bars,2023.2.3,Win32,59.17159763,657b66ea316d21385b68909f,,,,,,,,,,,1367.4486,1368.4491,,,1368.9499,1369.1996,,79,79,,,,,,,,,,,,,,,,bars/014.png,bars/mask002.png,,,,,,,,,,,,6,1,,,,,,,6,4,6,4,,,,,,,,,,,1368.4494,1368.9499,1369.1996,1372.3696,space,3.1636,,1372.3697,1,79,1373.3703,1373.3705,1373.3807,,,,0,38,38,38,1,80,0,,,,,,,,
,,650279e620b9fcb3b662bb2b,65af52dfdc8991f4776b9ea4,2024-01-23_16h48.34.588,bars,2023.2.3,Win32,59.17159763,657b66ea316d21385b68909f,,,,,,,,,,,1373.3808,1374.3717,,,1374.872,1375.1225,,71,71,,,,,,,,,,,,,,,,bars/048.png,bars/mask002.png,,,,,,,,,,,,2,1,,,,,,,8,6,7,6,,,,,,,,,,,1374.3717,1374.872,1375.1225,1377.9752,space,2.8403,,1377.9752,21,76,1378.9762,1378.9764,1378.99,,,,0,39,39,39,1,50,175,,,,,,,,
,,650279e620b9fcb3b662bb2b,65af52dfdc8991f4776b9ea4,2024-01-23_16h48.34.588,bars,2023.2.3,Win32,59.17159763,657b66ea316d21385b68909f,,,,,,,,,,,1378.9901,1379.9942,,,1380.4949,1380.7451,,141,141,,,,,,,,,,,,,,,,bars/040.png,bars/mask008.png,,,,,,,,,,,,9,1,,,,,,,10,4,9,3,,,,,,,,,,,1379.9943,1380.4948,1380.7452,1382.7988,space,2.0495,,1382.7989,1,44,1383.798,1383.7981,1383.8119,,,,0,40,40,40,1,140,5,,,,,,,,
,,650279e620b9fcb3b662bb2b,65af52dfdc8991f4776b9ea4,2024-01-23_16h48.34.588,bars,2023.2.3,Win32,59.17159763,657b66ea316d21385b68909f,,,,,,,,,,,1383.8121,1384.8159,,,1385.3165,1385.5663,,88,88,,,,,,,,,,,,,,,,bars/027.png,bars/mask006.png,,,,,,,,,,,,2,1,,,,,,,8,2,9,0,,,,,,,,,,,1384.816,1385.3164,1385.5664,1388.4361,space,2.8576,,1388.4363,22,38,1389.437,1389.4371,1389.4537,,,,0,41,41,41,1,110,50,,,,,,,,
,,650279e620b9fcb3b662bb2b,65af52dfdc8991f4776b9ea4,2024-01-23_16h48.34.588,bars,2023.2.3,Win32,59.17159763,657b66ea316d21385b68909f,,,,,,,,,,,1389.454,1390.4551,,,1390.9549,1391.2052,,115,115,,,,,,,,,,,,,,,,bars/025.png,bars/mask009.png,,,,,,,,,,,,7,1,,,,,,,10,0,10,0,,,,,,,,,,,1390.4551,1390.9549,1391.2052,1394.5251,space,3.3078,,1394.5252,10,75,1395.5262,1395.5262,1395.5353,,,,0,42,42,42,1,105,40,,,,,,,,
,,650279e620b9fcb3b662bb2b,65af52dfdc8991f4776b9ea4,2024-01-23_16h48.34.588,bars,2023.2.3,Win32,59.17159763,657b66ea316d21385b68909f,,,,,,,,,,,1395.5355,1396.5276,,,1397.0275,1397.2776,,132,132,,,,,,,,,,,,,,,,bars/017.png,bars/mask006.png,,,,,,,,,,,,5,1,,,,,,,8,2,8,2,,,,,,,,,,,1396.5276,1397.0275,1397.2777,1401.2652,space,3.9752,,1401.2652,13,87,1402.2661,1402.2662,1402.2759,,,,0,43,43,43,1,145,45,,,,,,,,
,,650279e620b9fcb3b662bb2b,65af52dfdc8991f4776b9ea4,2024-01-23_16h48.34.588,bars,2023.2.3,Win32,59.17159763,657b66ea316d21385b68909f,,,,,,,,,,,1402.276,1403.2667,,,1403.7685,1404.0183,,68,68,,,,,,,,,,,,,,,,bars/029.png,bars/mask000.png,,,,,,,,,,,,3,1,,,,,,,10,0,10,1,,,,,,,,,,,1403.2667,1403.7683,1404.0184,1406.7071,space,2.6846,,1406.7071,22,23,1407.7046,1407.7048,1407.7158,,,,0,44,44,44,1,90,45,,,,,,,,
,,650279e620b9fcb3b662bb2b,65af52dfdc8991f4776b9ea4,2024-01-23_16h48.34.588,bars,2023.2.3,Win32,59.17159763,657b66ea316d21385b68909f,,,,,,,,,,,1407.7159,1408.7058,,,1409.2063,1409.4562,,136,-44,,,,,,,,,,,,,,,,bars/034.png,bars/mask000.png,,,,,,,,,,,,5,1,,,,,,,8,0,8,0,,,,,,,,,,,1408.7058,1409.2062,1409.4562,1414.3613,space,4.8892,,1414.3614,11,71,1415.3626,1415.3626,1415.3769,,,,0,45,45,45,1,125,65,,,,,,,,
,,650279e620b9fcb3b662bb2b,65af52dfdc8991f4776b9ea4,2024-01-23_16h48.34.588,bars,2023.2.3,Win32,59.17159763,657b66ea316d21385b68909f,,,,,,,,,,,1415.3771,1416.3817,,,1416.8808,1417.1308,,91,91,,,,,,,,,,,,,,,,bars/012.png,bars/mask001.png,,,,,,,,,,,,10,1,,,,,,,10,2,10,3,,,,,,,,,,,1416.3818,1416.8808,1417.1308,1418.7994,space,1.6525,,1418.7994,1,76,1419.8005,1419.8005,1419.8019,,,,0,46,46,46,1,90,15,,,,,,,,
,,650279e620b9fcb3b662bb2b,65af52dfdc8991f4776b9ea4,2024-01-23_16h48.34.588,bars,2023.2.3,Win32,59.17159763,657b66ea316d21385b68909f,,,,,,,,,,,1419.8023,1420.8012,,,1421.3017,1421.552,,152,152,,,,,,,,,,,,,,,,bars/049.png,bars/mask006.png,,,,,,,,,,,,6,1,,,,,,,8,0,8,0,,,,,,,,,,,1420.8012,1421.3017,1421.552,1423.7208,space,2.1529,,1423.7209,8,37,1424.7216,1424.7216,1424.7231,,,,0,47,47,47,1,160,115,,,,,,,,
,,650279e620b9fcb3b662bb2b,65af52dfdc8991f4776b9ea4,2024-01-23_16h48.34.588,bars,2023.2.3,Win32,59.17159763,657b66ea316d21385b68909f,,,,,,,,,,,1424.7235,1425.7249,,,1426.223,1426.4734,,116,116,,,,,,,,,,,,,,,,bars/045.png,bars/mask001.png,,,,,,,,,,,,2,1,,,,,,,6,2,5,5,,,,,,,,,,,1425.7251,1426.223,1426.4734,1428.0251,space,1.5396,,1428.0251,16,74,1429.0262,1429.0262,1429.0354,,,,0,48,48,48,1,100,10,,,,,,,,
,,650279e620b9fcb3b662bb2b,65af52dfdc8991f4776b9ea4,2024-01-23_16h48.34.588,bars,2023.2.3,Win32,59.17159763,657b66ea316d21385b68909f,,,,,,,,,,,1429.0356,1430.0272,,,1430.5278,1430.7777,,23,203,,,,,,,,,,,,,,,,bars/047.png,bars/mask006.png,,,,,,,,,,,,6,1,,,,,,,8,4,8,4,,,,,,,,,,,1430.0274,1430.5277,1430.7778,1433.0981,space,2.3099,,1433.0983,8,47,1434.0981,1434.0982,1434.1109,,,,0,49,49,49,1,15,70,,,,,,,,
,,650279e620b9fcb3b662bb2b,65af52dfdc8991f4776b9ea4,2024-01-23_16h48.34.588,bars,2023.2.3,Win32,59.17159763,657b66ea316d21385b68909f,,,,,,,,,,,,,,,,,,,,,,,,,,,,,,,,,,,,,,,,,,,,,,,,,,,,,,,,,,,,,,,,,,,,,,,,,,,,,,,,,,,,,,,,,,,,,1434.1111,1494.1081,0,2,2,0,1,sequence_tables/blk004.csv
,,650279e620b9fcb3b662bb2b,65af52dfdc8991f4776b9ea4,2024-01-23_16h48.34.588,bars,2023.2.3,Win32,59.17159763,657b66ea316d21385b68909f,,,,,,,,,,,1504.2158,1505.2023,,,1505.7022,1505.9533,,39,39,,,,,,,,,,,,,,,,bars/048.png,bars/mask008.png,,,,,,,,,,,,3,1,,,,,,,5,9,5,7,,,,,,1494.1221,1504.2012,space,10.0704,0.0003,1505.2027,1505.7022,1505.9533,1508.0381,space,2.079,,1508.0381,11,44,1509.0393,1509.0396,1509.0524,,,,0,0,0,0,1,50,175,,,,,,,,
,,650279e620b9fcb3b662bb2b,65af52dfdc8991f4776b9ea4,2024-01-23_16h48.34.588,bars,2023.2.3,Win32,59.17159763,657b66ea316d21385b68909f,,,,,,,,,,,1509.0525,1510.057,,,1510.5577,1510.8077,,146,146,,,,,,,,,,,,,,,,bars/035.png,bars/mask003.png,,,,,,,,,,,,0,1,,,,,,,7,7,10,5,,,,,,,,,,,1510.057,1510.5576,1510.8078,1513.9607,space,3.1363,,1513.9608,29,86,1514.9623,1514.9624,1514.9788,,,,0,1,1,1,1,175,60,,,,,,,,
,,650279e620b9fcb3b662bb2b,65af52dfdc8991f4776b9ea4,2024-01-23_16h48.34.588,bars,2023.2.3,Win32,59.17159763,657b66ea316d21385b68909f,,,,,,,,,,,1514.9791,1515.9799,,,1516.4825,1516.7305,,138,-42,,,,,,,,,,,,,,,,bars/018.png,bars/mask001.png,,,,,,,,,,,,4,1,,,,,,,5,5,6,3,,,,,,,,,,,1515.9801,1516.4825,1516.7306,1519.2676,space,2.5325,,1519.2676,12,48,1520.2667,1520.2667,1520.2785,,,,0,2,2,2,1,150,90,,,,,,,,
,,650279e620b9fcb3b662bb2b,65af52dfdc8991f4776b9ea4,2024-01-23_16h48.34.588,bars,2023.2.3,Win32,59.17159763,657b66ea316d21385b68909f,,,,,,,,,,,1520.2787,1521.2688,,,1521.7691,1522.019,,130,130,,,,,,,,,,,,,,,,bars/031.png,bars/mask008.png,,,,,,,,,,,,4,1,,,,,,,7,3,6,6,,,,,,,,,,,1521.2689,1521.769,1522.019,1524.2043,space,2.1729,,1524.2044,10,85,1525.206,1525.206,1525.2229,,,,0,3,3,3,1,120,35,,,,,,,,
,,650279e620b9fcb3b662bb2b,65af52dfdc8991f4776b9ea4,2024-01-23_16h48.34.588,bars,2023.2.3,Win32,59.17159763,657b66ea316d21385b68909f,,,,,,,,,,,1525.2233,1526.2231,,,1526.7234,1526.9739,,123,123,,,,,,,,,,,,,,,,bars/040.png,bars/mask007.png,,,,,,,,,,,,4,1,,,,,,,9,5,9,6,,,,,,,,,,,1526.2231,1526.7233,1526.9739,1529.828,space,2.8486,,1529.8281,17,62,1530.8275,1530.8275,1530.8357,,,,0,4,4,4,1,140,5,,,,,,,,
,,650279e620b9fcb3b662bb2b,65af52dfdc8991f4776b9ea4,2024-01-23_16h48.34.588,bars,2023.2.3,Win32,59.17159763,657b66ea316d21385b68909f,,,,,,,,,,,1530.8359,1531.829,,,1532.3293,1532.5795,,28,208,,,,,,,,,,,,,,,,bars/005.png,bars/mask005.png,,,,,,,,,,,,4,1,,,,,,,10,7,9,6,,,,,,,,,,,1531.8291,1532.3293,1532.5796,1537.4183,space,4.8261,,1537.4184,18,68,1538.4185,1538.4185,1538.4268,,,,0,5,5,5,1,10,140,,,,,,,,
,,650279e620b9fcb3b662bb2b,65af52dfdc8991f4776b9ea4,2024-01-23_16h48.34.588,bars,2023.2.3,Win32,59.17159763,657b66ea316d21385b68909f,,,,,,,,,,,1538.4269,1539.4205,,,1539.9202,1540.1706,,51,51,,,,,,,,,,,,,,,,bars/019.png,bars/mask004.png,,,,,,,,,,,,6,1,,,,,,,8,5,7,4,,,,,,,,,,,1539.4207,1539.9202,1540.1707,1541.2044,space,1.0204,,1541.2044,6,54,1542.2058,1542.2059,1542.2074,,,,0,6,6,6,1,45,105,,,,,,,,
,,650279e620b9fcb3b662bb2b,65af52dfdc8991f4776b9ea4,2024-01-23_16h48.34.588,bars,2023.2.3,Win32,59.17159763,657b66ea316d21385b68909f,,,,,,,,,,,1542.2077,1543.2068,,,1543.7073,1543.958,,137,137,,,,,,,,,,,,,,,,bars/040.png,bars/mask007.png,,,,,,,,,,,,5,1,,,,,,,6,7,6,8,,,,,,,,,,,1543.2068,1543.7073,1543.9581,1545.2588,space,1.2936,,1545.2589,3,48,1546.2597,1546.2598,1546.2737,,,,0,7,7,7,1,140,5,,,,,,,,
,,650279e620b9fcb3b662bb2b,65af52dfdc8991f4776b9ea4,2024-01-23_16h48.34.588,bars,2023.2.3,Win32,59.17159763,657b66ea316d21385b68909f,,,,,,,,,,,1546.2738,1547.2781,,,1547.7783,1548.0295,,166,-14,,,,,,,,,,,,,,,,bars/007.png,bars/mask009.png,,,,,,,,,,,,6,1,,,,,,,8,5,9,6,,,,,,,,,,,1547.2782,1547.7782,1548.0296,1552.2996,space,4.2611,,1552.2996,9,69,1553.3008,1553.3008,1553.3158,,,,0,8,8,8,1,175,55,,,,,,,,
,,650279e620b9fcb3b662bb2b,65af52dfdc8991f4776b9ea4,2024-01-23_16h48.34.588,bars,2023.2.3,Win32,59.17159763,657b66ea316d21385b68909f,,,,,,,,,,,1553.3164,1554.3178,,,1554.8185,1555.0687,,145,145,,,,,,,,,,,,,,,,bars/035.png,bars/mask002.png,,,,,,,,,,,,0,1,,,,,,,10,7,10,8,,,,,,,,,,,1554.3178,1554.8183,1555.0687,1558.1717,space,3.0931,,1558.1717,30,85,1559.1728,1559.1728,1559.1861,,,,0,9,9,9,1,175,60,,,,,,,,
,,650279e620b9fcb3b662bb2b,65af52dfdc8991f4776b9ea4,2024-01-23_16h48.34.588,bars,2023.2.3,Win32,59.17159763,657b66ea316d21385b68909f,,,,,,,,,,,1559.1863,1560.1902,,,1560.6906,1560.9408,,40,40,,,,,,,,,,,,,,,,bars/016.png,bars/mask000.png,,,,,,,,,,,,8,1,,,,,,,8,9,8,9,,,,,,,,,,,1560.1902,1560.6905,1560.9408,1562.6763,space,1.7197,,1562.6763,0,55,1563.6777,1563.6778,1563.6799,,,,0,10,10,10,1,40,165,,,,,,,,
,,650279e620b9fcb3b662bb2b,65af52dfdc8991f4776b9ea4,2024-01-23_16h48.34.588,bars,2023.2.3,Win32,59.17159763,657b66ea316d21385b68909f,,,,,,,,,,,1563.6804,1564.6783,,,1565.1791,1565.4292,,143,-37,,,,,,,,,,,,,,,,bars/038.png,bars/mask008.png,,,,,,,,,,,,1,1,,,,,,,6,10,5,10,,,,,,,,,,,1564.6784,1565.1791,1565.4292,1569.6664,space,4.2217,,1569.6666,22,73,1570.6675,1570.6675,1570.6769,,,,0,11,11,11,1,165,70,,,,,,,,
,,650279e620b9fcb3b662bb2b,65af52dfdc8991f4776b9ea4,2024-01-23_16h48.34.588,bars,2023.2.3,Win32,59.17159763,657b66ea316d21385b68909f,,,,,,,,,,,1570.677,1571.6685,,,1572.1691,1572.4194,,119,119,,,,,,,,,,,,,,,,bars/040.png,bars/mask004.png,,,,,,,,,,,,3,1,,,,,,,8,10,10,8,,,,,,,,,,,1571.6685,1572.1691,1572.4195,1576.1064,space,3.6711,,1576.1064,21,66,1577.1073,1577.1074,1577.1166,,,,0,12,12,12,1,140,5,,,,,,,,
,,650279e620b9fcb3b662bb2b,65af52dfdc8991f4776b9ea4,2024-01-23_16h48.34.588,bars,2023.2.3,Win32,59.17159763,657b66ea316d21385b68909f,,,,,,,,,,,1577.1167,1578.1082,,,1578.609,1578.859,,140,-40,,,,,,,,,,,,,,,,bars/046.png,bars/mask008.png,,,,,,,,,,,,5,1,,,,,,,10,10,10,8,,,,,,,,,,,1578.1082,1578.609,1578.8591,1582.0788,space,3.2049,,1582.0789,15,55,1583.0795,1583.0795,1583.0914,,,,0,13,13,13,1,155,85,,,,,,,,
,,650279e620b9fcb3b662bb2b,65af52dfdc8991f4776b9ea4,2024-01-23_16h48.34.588,bars,2023.2.3,Win32,59.17159763,657b66ea316d21385b68909f,,,,,,,,,,,1583.0916,1584.0809,,,1584.5814,1584.8316,,34,214,,,,,,,,,,,,,,,,bars/041.png,bars/mask000.png,,,,,,,,,,,,4,1,,,,,,,8,8,7,8,,,,,,,,,,,1584.0809,1584.5813,1584.8316,1587.9849,space,3.1391,,1587.985,14,51,1588.9858,1588.9859,1588.9971,,,,0,14,14,14,1,20,85,,,,,,,,
,,650279e620b9fcb3b662bb2b,65af52dfdc8991f4776b9ea4,2024-01-23_16h48.34.588,bars,2023.2.3,Win32,59.17159763,657b66ea316d21385b68909f,,,,,,,,,,,1588.9973,1589.9866,,,1590.4875,1590.7389,,38,38,,,,,,,,,,,,,,,,bars/000.png,bars/mask009.png,,,,,,,,,,,,7,1,,,,,,,6,6,7,6,,,,,,,,,,,1589.9866,1590.4875,1590.7391,1591.8067,space,1.0618,,1591.8068,2,73,1592.8062,1592.8062,1592.8073,,,,0,15,15,15,1,40,145,,,,,,,,
,,650279e620b9fcb3b662bb2b,65af52dfdc8991f4776b9ea4,2024-01-23_16h48.34.588,bars,2023.2.3,Win32,59.17159763,657b66ea316d21385b68909f,,,,,,,,,,,1592.8077,1593.8073,,,1594.3078,1594.5579,,126,126,,,,,,,,,,,,,,,,bars/034.png,bars/mask007.png,,,,,,,,,,,,7,1,,,,,,,8,4,7,2,,,,,,,,,,,1593.8073,1594.3078,1594.5579,1595.8256,space,1.2492,,1595.8257,1,61,1596.8269,1596.827,1596.8282,,,,0,16,16,16,1,125,65,,,,,,,,
,,650279e620b9fcb3b662bb2b,65af52dfdc8991f4776b9ea4,2024-01-23_16h48.34.588,bars,2023.2.3,Win32,59.17159763,657b66ea316d21385b68909f,,,,,,,,,,,1596.8286,1597.8274,,,1598.3286,1598.5783,,176,-4,,,,,,,,,,,,,,,,bars/007.png,bars/mask004.png,,,,,,,,,,,,9,1,,,,,,,10,2,9,2,,,,,,,,,,,1597.8275,1598.3285,1598.5784,1600.5149,space,1.9224,,1600.5152,1,59,1601.5153,1601.5154,1601.517,,,,0,17,17,17,1,175,55,,,,,,,,
,,650279e620b9fcb3b662bb2b,65af52dfdc8991f4776b9ea4,2024-01-23_16h48.34.588,bars,2023.2.3,Win32,59.17159763,657b66ea316d21385b68909f,,,,,,,,,,,1601.5174,1602.5155,,,1603.0161,1603.2665,,6,6,,,,,,,,,,,,,,,,bars/035.png,bars/mask009.png,,,,,,,,,,,,4,1,,,,,,,8,0,6,0,,,,,,,,,,,1602.5156,1603.0161,1603.2665,1605.436,space,2.1643,,1605.436,11,54,1606.4365,1606.4366,1606.451,,,,0,18,18,18,1,175,60,,,,,,,,
,,650279e620b9fcb3b662bb2b,65af52dfdc8991f4776b9ea4,2024-01-23_16h48.34.588,bars,2023.2.3,Win32,59.17159763,657b66ea316d21385b68909f,,,,,,,,,,,1606.4513,1607.4543,,,1607.9547,1608.2047,,23,23,,,,,,,,,,,,,,,,bars/006.png,bars/mask005.png,,,,,,,,,,,,6,1,,,,,,,10,0,10,2,,,,,,,,,,,1607.4543,1607.9547,1608.2047,1610.5571,space,2.3352,,1610.5572,12,77,1611.5587,1611.5587,1611.5724,,,,0,19,19,19,1,35,100,,,,,,,,
,,650279e620b9fcb3b662bb2b,65af52dfdc8991f4776b9ea4,2024-01-23_16h48.34.588,bars,2023.2.3,Win32,59.17159763,657b66ea316d21385b68909f,,,,,,,,,,,1611.5727,1612.5758,,,1613.0772,1613.3267,,38,218,,,,,,,,,,,,,,,,bars/048.png,bars/mask001.png,,,,,,,,,,,,6,1,,,,,,,10,0,10,0,,,,,,,,,,,1612.5758,1613.0772,1613.3267,1616.9469,space,3.6035,,1616.947,12,43,1617.9481,1617.9481,1617.9578,,,,0,20,20,20,1,50,175,,,,,,,,
,,650279e620b9fcb3b662bb2b,65af52dfdc8991f4776b9ea4,2024-01-23_16h48.34.588,bars,2023.2.3,Win32,59.17159763,657b66ea316d21385b68909f,,,,,,,,,,,1617.9579,1618.949,,,1619.4496,1619.6998,,36,36,,,,,,,,,,,,,,,,bars/006.png,bars/mask003.png,,,,,,,,,,,,5,1,,,,,,,8,0,5,0,,,,,,,,,,,1618.9491,1619.4496,1619.6999,1620.317,space,0.611,,1620.3171,1,64,1621.3185,1621.3185,1621.3199,,,,0,21,21,21,1,35,100,,,,,,,,
,,650279e620b9fcb3b662bb2b,65af52dfdc8991f4776b9ea4,2024-01-23_16h48.34.588,bars,2023.2.3,Win32,59.17159763,657b66ea316d21385b68909f,,,,,,,,,,,1621.3203,1622.3193,,,1622.8197,1623.0699,,119,119,,,,,,,,,,,,,,,,bars/034.png,bars/mask001.png,,,,,,,,,,,,7,1,,,,,,,10,0,9,0,,,,,,,,,,,1622.3193,1622.8197,1623.0699,1624.2548,space,1.1713,,1624.2549,6,54,1625.2554,1625.2554,1625.257,,,,0,22,22,22,1,125,65,,,,,,,,
,,650279e620b9fcb3b662bb2b,65af52dfdc8991f4776b9ea4,2024-01-23_16h48.34.588,bars,2023.2.3,Win32,59.17159763,657b66ea316d21385b68909f,,,,,,,,,,,1625.2574,1626.2563,,,1626.757,1627.0071,,108,108,,,,,,,,,,,,,,,,bars/030.png,bars/mask007.png,,,,,,,,,,,,0,1,,,,,,,10,2,9,1,,,,,,,,,,,1626.2563,1626.757,1627.0072,1628.8591,space,1.8362,,1628.8592,32,43,1629.86,1629.8601,1629.8613,,,,0,23,23,23,1,140,65,,,,,,,,
,,650279e620b9fcb3b662bb2b,65af52dfdc8991f4776b9ea4,2024-01-23_16h48.34.588,bars,2023.2.3,Win32,59.17159763,657b66ea316d21385b68909f,,,,,,,,,,,1629.8618,1630.8623,,,1631.3608,1631.6115,,142,-38,,,,,,,,,,,,,,,,bars/001.png,bars/mask001.png,,,,,,,,,,,,5,1,,,,,,,8,0,8,0,,,,,,,,,,,1630.8623,1631.3608,1631.6116,1635.2005,space,3.5789,,1635.2008,12,57,1636.1996,1636.1999,1636.214,,,,0,24,24,24,1,130,85,,,,,,,,
,,650279e620b9fcb3b662bb2b,65af52dfdc8991f4776b9ea4,2024-01-23_16h48.34.588,bars,2023.2.3,Win32,59.17159763,657b66ea316d21385b68909f,,,,,,,,,,,1636.2142,1637.2173,,,1637.7177,1637.9679,,130,130,,,,,,,,,,,,,,,,bars/034.png,bars/mask009.png,,,,,,,,,,,,3,1,,,,,,,6,0,4,0,,,,,,,,,,,1637.2173,1637.7177,1637.9681,1639.6529,space,1.6716,,1639.6529,5,65,1640.6537,1640.654,1640.6676,,,,0,25,25,25,1,125,65,,,,,,,,
,,650279e620b9fcb3b662bb2b,65af52dfdc8991f4776b9ea4,2024-01-23_16h48.34.588,bars,2023.2.3,Win32,59.17159763,657b66ea316d21385b68909f,,,,,,,,,,,1640.6678,1641.6713,,,1642.1733,1642.4234,,28,208,,,,,,,,,,,,,,,,bars/004.png,bars/mask003.png,,,,,,,,,,,,3,1,,,,,,,4,2,3,1,,,,,,,,,,,1641.6713,1642.1732,1642.4235,1644.4579,space,2.0266,,1644.458,3,83,1645.4589,1645.4591,1645.4721,,,,0,26,26,26,1,25,125,,,,,,,,
,,650279e620b9fcb3b662bb2b,65af52dfdc8991f4776b9ea4,2024-01-23_16h48.34.588,bars,2023.2.3,Win32,59.17159763,657b66ea316d21385b68909f,,,,,,,,,,,1645.4723,1646.4599,,,1646.9605,1647.2102,,1,181,,,,,,,,,,,,,,,,bars/039.png,bars/mask006.png,,,,,,,,,,,,2,1,,,,,,,2,0,2,0,,,,,,,,,,,1646.4599,1646.9604,1647.2102,1651.2152,space,3.9995,,1651.2152,6,76,1652.2151,1652.2151,1652.2267,,,,0,27,27,27,1,175,105,,,,,,,,
,,650279e620b9fcb3b662bb2b,65af52dfdc8991f4776b9ea4,2024-01-23_16h48.34.588,bars,2023.2.3,Win32,59.17159763,657b66ea316d21385b68909f,,,,,,,,,,,1652.2269,1653.2166,,,1653.7171,1653.9673,,1,1,,,,,,,,,,,,,,,,bars/023.png,bars/mask000.png,,,,,,,,,,,,0,1,,,,,,,0,2,1,1,,,,,,,,,,,1653.2166,1653.717,1653.9673,1655.9363,space,1.9524,,1655.9363,19,66,1656.9369,1656.937,1656.9475,,,,0,28,28,28,1,20,115,,,,,,,,
,,650279e620b9fcb3b662bb2b,65af52dfdc8991f4776b9ea4,2024-01-23_16h48.34.588,bars,2023.2.3,Win32,59.17159763,657b66ea316d21385b68909f,,,,,,,,,,,1656.9477,1657.9383,,,1658.4388,1658.6887,,39,219,,,,,,,,,,,,,,,,bars/004.png,bars/mask008.png,,,,,,,,,,,,2,1,,,,,,,2,0,3,0,,,,,,,,,,,1657.9384,1658.4388,1658.6887,1661.2083,space,2.5118,,1661.2084,14,86,1662.2091,1662.2091,1662.2102,,,,0,29,29,29,1,25,125,,,,,,,,
,,650279e620b9fcb3b662bb2b,65af52dfdc8991f4776b9ea4,2024-01-23_16h48.34.588,bars,2023.2.3,Win32,59.17159763,657b66ea316d21385b68909f,,,,,,,,,,,1662.2107,1663.2098,,,1663.7104,1663.9606,,107,-73,,,,,,,,,,,,,,,,bars/045.png,bars/mask008.png,,,,,,,,,,,,2,1,,,,,,,4,2,3,1,,,,,,,,,,,1663.2099,1663.7103,1663.9606,1668.4487,space,4.4785,,1668.4488,7,83,1669.4496,1669.4496,1669.4645,,,,0,30,30,30,1,100,10,,,,,,,,
,,650279e620b9fcb3b662bb2b,65af52dfdc8991f4776b9ea4,2024-01-23_16h48.34.588,bars,2023.2.3,Win32,59.17159763,657b66ea316d21385b68909f,,,,,,,,,,,1669.4647,1670.4672,,,1670.9677,1671.2188,,109,109,,,,,,,,,,,,,,,,bars/045.png,bars/mask004.png,,,,,,,,,,,,3,1,,,,,,,2,4,4,5,,,,,,,,,,,1670.4673,1670.9676,1671.2189,1672.0021,space,0.7696,,1672.0022,9,81,1673.0029,1673.0029,1673.004,,,,0,31,31,31,1,100,10,,,,,,,,
,,650279e620b9fcb3b662bb2b,65af52dfdc8991f4776b9ea4,2024-01-23_16h48.34.588,bars,2023.2.3,Win32,59.17159763,657b66ea316d21385b68909f,,,,,,,,,,,1673.0044,1674.0041,,,1674.5047,1674.755,,108,108,,,,,,,,,,,,,,,,bars/025.png,bars/mask008.png,,,,,,,,,,,,1,1,,,,,,,0,6,1,5,,,,,,,,,,,1674.0041,1674.5047,1674.755,1678.0598,space,3.2946,,1678.0598,3,68,1679.0611,1679.0611,1679.0781,,,,0,32,32,32,1,105,40,,,,,,,,
,,650279e620b9fcb3b662bb2b,65af52dfdc8991f4776b9ea4,2024-01-23_16h48.34.588,bars,2023.2.3,Win32,59.17159763,657b66ea316d21385b68909f,,,,,,,,,,,1679.0783,1680.0766,,,1680.5773,1680.8273,,100,100,,,,,,,,,,,,,,,,bars/037.png,bars/mask000.png,,,,,,,,,,,,7,2,,,,,,,0,8,0,8,,,,,,,,,,,1680.0768,1680.5773,1680.8274,1682.0286,space,1.186,,1682.0286,50,5,1683.0319,1683.0322,1683.0369,,,,0,33,33,33,1,150,105,,,,,,,,
,,650279e620b9fcb3b662bb2b,65af52dfdc8991f4776b9ea4,2024-01-23_16h48.34.588,bars,2023.2.3,Win32,59.17159763,657b66ea316d21385b68909f,,,,,,,,,,,1683.0374,1684.0304,,,1684.5312,1684.7812,,115,115,,,,,,,,,,,,,,,,bars/040.png,bars/mask006.png,,,,,,,,,,,,0,1,,,,,,,0,6,0,6,,,,,,,,,,,1684.0305,1684.5311,1684.7813,1685.6493,space,0.8585,,1685.6495,25,70,1686.65,1686.65,1686.6526,,,,0,34,34,34,1,140,5,,,,,,,,
,,650279e620b9fcb3b662bb2b,65af52dfdc8991f4776b9ea4,2024-01-23_16h48.34.588,bars,2023.2.3,Win32,59.17159763,657b66ea316d21385b68909f,,,,,,,,,,,1686.6529,1687.651,,,1688.1516,1688.4017,,109,109,,,,,,,,,,,,,,,,bars/025.png,bars/mask007.png,,,,,,,,,,,,0,1,,,,,,,0,8,0,7,,,,,,,,,,,1687.651,1688.1515,1688.4017,1690.1875,space,1.7683,,1690.1875,4,69,1691.1875,1691.1876,1691.1975,,,,0,35,35,35,1,105,40,,,,,,,,
,,650279e620b9fcb3b662bb2b,65af52dfdc8991f4776b9ea4,2024-01-23_16h48.34.588,bars,2023.2.3,Win32,59.17159763,657b66ea316d21385b68909f,,,,,,,,,,,1691.1976,1692.1886,,,1692.6895,1692.9394,,63,63,,,,,,,,,,,,,,,,bars/029.png,bars/mask000.png,,,,,,,,,,,,2,2,,,,,,,2,6,2,6,,,,,,,,,,,1692.1887,1692.6895,1692.9395,1696.4615,space,3.5077,,1696.4618,27,18,1697.4606,1697.4606,1697.4706,,,,0,36,36,36,1,90,45,,,,,,,,
,,650279e620b9fcb3b662bb2b,65af52dfdc8991f4776b9ea4,2024-01-23_16h48.34.588,bars,2023.2.3,Win32,59.17159763,657b66ea316d21385b68909f,,,,,,,,,,,1697.4708,1698.4618,,,1698.9619,1699.2125,,86,86,,,,,,,,,,,,,,,,bars/029.png,bars/mask007.png,,,,,,,,,,,,1,1,,,,,,,0,8,1,7,,,,,,,,,,,1698.4618,1698.9619,1699.2126,1703.2668,space,4.0474,,1703.2668,4,41,1704.2674,1704.2674,1704.2765,,,,0,37,37,37,1,90,45,,,,,,,,
,,650279e620b9fcb3b662bb2b,65af52dfdc8991f4776b9ea4,2024-01-23_16h48.34.588,bars,2023.2.3,Win32,59.17159763,657b66ea316d21385b68909f,,,,,,,,,,,1704.2767,1705.2681,,,1705.7714,1706.0193,,0,180,,,,,,,,,,,,,,,,bars/005.png,bars/mask001.png,,,,,,,,,,,,3,1,,,,,,,2,10,5,9,,,,,,,,,,,1705.2682,1705.7712,1706.0193,1709.0724,space,3.0403,,1709.0725,10,40,1710.0733,1710.0733,1710.0855,,,,0,38,38,38,1,10,140,,,,,,,,
,,650279e620b9fcb3b662bb2b,65af52dfdc8991f4776b9ea4,2024-01-23_16h48.34.588,bars,2023.2.3,Win32,59.17159763,657b66ea316d21385b68909f,,,,,,,,,,,1710.0857,1711.0743,,,1711.5745,1711.825,,34,34,,,,,,,,,,,,,,,,bars/016.png,bars/mask001.png,,,,,,,,,,,,0,1,,,,,,,0,10,0,10,,,,,,,,,,,1711.0743,1711.5745,1711.8251,1712.7095,space,0.8752,,1712.7095,6,49,1713.7107,1713.7108,1713.7132,,,,0,39,39,39,1,40,165,,,,,,,,
,,650279e620b9fcb3b662bb2b,65af52dfdc8991f4776b9ea4,2024-01-23_16h48.34.588,bars,2023.2.3,Win32,59.17159763,657b66ea316d21385b68909f,,,,,,,,,,,1713.7138,1714.7114,,,1715.2118,1715.4621,,120,120,,,,,,,,,,,,,,,,bars/025.png,bars/mask003.png,,,,,,,,,,,,2,1,,,,,,,2,10,3,10,,,,,,,,,,,1714.7115,1715.2118,1715.4621,1719.5669,space,4.0919,,1719.5669,15,80,1720.5668,1720.5669,1720.5823,,,,0,40,40,40,1,105,40,,,,,,,,
,,650279e620b9fcb3b662bb2b,65af52dfdc8991f4776b9ea4,2024-01-23_16h48.34.588,bars,2023.2.3,Win32,59.17159763,657b66ea316d21385b68909f,,,,,,,,,,,1720.5836,1721.5859,,,1722.0854,1722.3355,,0,180,,,,,,,,,,,,,,,,bars/007.png,bars/mask000.png,,,,,,,,,,,,5,1,,,,,,,4,10,6,10,,,,,,,,,,,1721.5859,1722.0854,1722.3356,1724.9883,space,2.6369,,1724.9883,5,55,1725.9892,1725.9894,1725.9989,,,,0,41,41,41,1,175,55,,,,,,,,
,,650279e620b9fcb3b662bb2b,65af52dfdc8991f4776b9ea4,2024-01-23_16h48.34.588,bars,2023.2.3,Win32,59.17159763,657b66ea316d21385b68909f,,,,,,,,,,,1725.999,1726.9909,,,1727.4908,1727.742,,112,112,,,,,,,,,,,,,,,,bars/040.png,bars/mask006.png,,,,,,,,,,,,0,1,,,,,,,2,10,2,10,,,,,,,,,,,1726.9909,1727.4908,1727.7422,1731.2781,space,3.527,,1731.2781,28,73,1732.2789,1732.279,1732.2889,,,,0,42,42,42,1,140,5,,,,,,,,
,,650279e620b9fcb3b662bb2b,65af52dfdc8991f4776b9ea4,2024-01-23_16h48.34.588,bars,2023.2.3,Win32,59.17159763,657b66ea316d21385b68909f,,,,,,,,,,,1732.2891,1733.2802,,,1733.7811,1734.0309,,145,145,,,,,,,,,,,,,,,,bars/011.png,bars/mask004.png,,,,,,,,,,,,2,1,,,,,,,4,10,4,9,,,,,,,,,,,1733.2802,1733.7807,1734.0309,1735.2985,space,1.2573,,1735.2986,15,60,1736.2997,1736.2997,1736.3007,,,,0,43,43,43,1,160,85,,,,,,,,
,,650279e620b9fcb3b662bb2b,65af52dfdc8991f4776b9ea4,2024-01-23_16h48.34.588,bars,2023.2.3,Win32,59.17159763,657b66ea316d21385b68909f,,,,,,,,,,,1736.3012,1737.3005,,,1737.8018,1738.0508,,27,27,,,,,,,,,,,,,,,,bars/037.png,bars/mask003.png,,,,,,,,,,,,0,1,,,,,,,6,8,7,8,,,,,,,,,,,1737.3005,1737.8018,1738.0508,1741.0377,space,2.9707,,1741.0377,57,78,1742.0387,1742.0387,1742.0472,,,,0,44,44,44,1,150,105,,,,,,,,
,,650279e620b9fcb3b662bb2b,65af52dfdc8991f4776b9ea4,2024-01-23_16h48.34.588,bars,2023.2.3,Win32,59.17159763,657b66ea316d21385b68909f,,,,,,,,,,,1742.0473,1743.0395,,,1743.5402,1743.7917,,107,107,,,,,,,,,,,,,,,,bars/031.png,bars/mask005.png,,,,,,,,,,,,1,1,,,,,,,4,10,2,10,,,,,,,,,,,1743.0395,1743.5402,1743.7917,1746.1596,space,2.3571,,1746.1597,13,72,1747.1606,1747.1606,1747.1698,,,,0,45,45,45,1,120,35,,,,,,,,
,,650279e620b9fcb3b662bb2b,65af52dfdc8991f4776b9ea4,2024-01-23_16h48.34.588,bars,2023.2.3,Win32,59.17159763,657b66ea316d21385b68909f,,,,,,,,,,,1747.17,1748.1617,,,1748.6613,1748.914,,70,70,,,,,,,,,,,,,,,,bars/013.png,bars/mask009.png,,,,,,,,,,,,2,1,,,,,,,2,8,2,6,,,,,,,,,,,1748.1617,1748.6613,1748.9143,1750.63,space,1.7024,,1750.6301,5,60,1751.6317,1751.6317,1751.6332,,,,0,46,46,46,1,75,10,,,,,,,,
,,650279e620b9fcb3b662bb2b,65af52dfdc8991f4776b9ea4,2024-01-23_16h48.34.588,bars,2023.2.3,Win32,59.17159763,657b66ea316d21385b68909f,,,,,,,,,,,1751.6336,1752.6323,,,1753.1332,1753.3834,,42,42,,,,,,,,,,,,,,,,bars/028.png,bars/mask009.png,,,,,,,,,,,,4,1,,,,,,,4,6,4,7,,,,,,,,,,,1752.6325,1753.133,1753.3835,1757.2869,space,3.8876,,1757.287,3,78,1758.288,1758.2881,1758.2985,,,,0,47,47,47,1,45,120,,,,,,,,
,,650279e620b9fcb3b662bb2b,65af52dfdc8991f4776b9ea4,2024-01-23_16h48.34.588,bars,2023.2.3,Win32,59.17159763,657b66ea316d21385b68909f,,,,,,,,,,,1758.2986,1759.2894,,,1759.7907,1760.0406,,50,230,,,,,,,,,,,,,,,,bars/013.png,bars/mask000.png,,,,,,,,,,,,0,1,,,,,,,2,8,2,7,,,,,,,,,,,1759.2897,1759.7907,1760.0408,1762.8425,space,2.7878,,1762.8425,25,40,1763.8439,1763.844,1763.8535,,,,0,48,48,48,1,75,10,,,,,,,,
,,650279e620b9fcb3b662bb2b,65af52dfdc8991f4776b9ea4,2024-01-23_16h48.34.588,bars,2023.2.3,Win32,59.17159763,657b66ea316d21385b68909f,,,,,,,,,,,1763.8538,1764.8455,,,1765.3447,1765.5953,,165,165,,,,,,,,,,,,,,,,bars/023.png,bars/mask005.png,,,,,,,,,,,,0,1,,,,,,,0,10,0,10,,,,,,,,,,,1764.8456,1765.3446,1765.5954,1767.4133,space,1.8034,,1767.4135,35,50,1768.4151,1768.4151,1768.4163,,,,0,49,49,49,1,20,115,,,,,,,,
,,650279e620b9fcb3b662bb2b,65af52dfdc8991f4776b9ea4,2024-01-23_16h48.34.588,bars,2023.2.3,Win32,59.17159763,657b66ea316d21385b68909f,,,,,,,,,,,,,,,,,,,,,,,,,,,,,,,,,,,,,,,,,,,,,,,,,,,,,,,,,,,,,,,,,,,,,,,,,,,,,,,,,,,,,,,,,,,,,1768.4165,1828.4084,0,3,3,4,1,sequence_tables/blk026.csv
,,650279e620b9fcb3b662bb2b,65af52dfdc8991f4776b9ea4,2024-01-23_16h48.34.588,bars,2023.2.3,Win32,59.17159763,657b66ea316d21385b68909f,,,,,,,,,,,1830.3169,1831.3109,,,1831.8115,1832.0617,,139,-41,,,,,,,,,,,,,,,,bars/010.png,bars/mask007.png,,,,,,,,,,,,1,1,,,,,,,9,9,7,10,,,,,,1828.423,1830.3113,space,1.8719,0.0004,1831.3109,1831.8115,1832.0618,1838.9355,space,6.8618,,1838.9355,26,84,1839.9361,1839.9362,1839.9464,,,,0,0,0,0,1,165,55,,,,,,,,
,,650279e620b9fcb3b662bb2b,65af52dfdc8991f4776b9ea4,2024-01-23_16h48.34.588,bars,2023.2.3,Win32,59.17159763,657b66ea316d21385b68909f,,,,,,,,,,,1839.9465,1840.9374,,,1841.438,1841.6883,,179,179,,,,,,,,,,,,,,,,bars/033.png,bars/mask007.png,,,,,,,,,,,,2,2,,,,,,,7,10,7,10,,,,,,,,,,,1840.9374,1841.438,1841.6884,1844.1103,space,2.4166,,1844.1104,26,24,1845.109,1845.109,1845.1209,,,,0,1,1,1,1,25,155,,,,,,,,
,,650279e620b9fcb3b662bb2b,65af52dfdc8991f4776b9ea4,2024-01-23_16h48.34.588,bars,2023.2.3,Win32,59.17159763,657b66ea316d21385b68909f,,,,,,,,,,,1845.121,1846.1267,,,1846.6263,1846.8767,,117,117,,,,,,,,,,,,,,,,bars/032.png,bars/mask006.png,,,,,,,,,,,,7,1,,,,,,,9,8,9,8,,,,,,,,,,,1846.1267,1846.6263,1846.8767,1850.1129,space,3.2264,,1850.1129,8,83,1851.1142,1851.1143,1851.1248,,,,0,2,2,2,1,125,20,,,,,,,,
,,650279e620b9fcb3b662bb2b,65af52dfdc8991f4776b9ea4,2024-01-23_16h48.34.588,bars,2023.2.3,Win32,59.17159763,657b66ea316d21385b68909f,,,,,,,,,,,1851.1249,1852.1149,,,1852.6156,1852.8659,,3,183,,,,,,,,,,,,,,,,bars/035.png,bars/mask000.png,,,,,,,,,,,,6,1,,,,,,,10,6,8,7,,,,,,,,,,,1852.1152,1852.6156,1852.8659,1854.6677,space,1.7876,,1854.6678,8,57,1855.6685,1855.6685,1855.6697,,,,0,3,3,3,1,175,60,,,,,,,,
,,650279e620b9fcb3b662bb2b,65af52dfdc8991f4776b9ea4,2024-01-23_16h48.34.588,bars,2023.2.3,Win32,59.17159763,657b66ea316d21385b68909f,,,,,,,,,,,1855.6702,1856.6726,,,1857.1702,1857.4206,,65,65,,,,,,,,,,,,,,,,bars/044.png,bars/mask003.png,,,,,,,,,,,,6,1,,,,,,,10,4,9,4,,,,,,,,,,,1856.6726,1857.1701,1857.4206,1859.4558,space,2.0228,,1859.4559,10,90,1860.4595,1860.4596,1860.46,,,,0,4,4,4,1,75,155,,,,,,,,
,,650279e620b9fcb3b662bb2b,65af52dfdc8991f4776b9ea4,2024-01-23_16h48.34.588,bars,2023.2.3,Win32,59.17159763,657b66ea316d21385b68909f,,,,,,,,,,,1860.4603,1861.4577,,,1861.9581,1862.2083,,54,54,,,,,,,,,,,,,,,,bars/041.png,bars/mask004.png,,,,,,,,,,,,0,2,,,,,,,8,2,8,3,,,,,,,,,,,1861.4577,1861.958,1862.2084,1865.262,space,3.0377,,1865.2621,34,31,1866.2627,1866.2629,1866.2729,,,,0,5,5,5,1,20,85,,,,,,,,
,,650279e620b9fcb3b662bb2b,65af52dfdc8991f4776b9ea4,2024-01-23_16h48.34.588,bars,2023.2.3,Win32,59.17159763,657b66ea316d21385b68909f,,,,,,,,,,,1866.2731,1867.264,,,1867.764,1868.0141,,127,127,,,,,,,,,,,,,,,,bars/011.png,bars/mask007.png,,,,,,,,,,,,0,1,,,,,,,6,4,6,4,,,,,,,,,,,1867.264,1867.764,1868.0141,1869.6169,space,1.5887,,1869.6171,33,42,1870.6169,1870.6169,1870.6278,,,,0,6,6,6,1,160,85,,,,,,,,
,,650279e620b9fcb3b662bb2b,65af52dfdc8991f4776b9ea4,2024-01-23_16h48.34.588,bars,2023.2.3,Win32,59.17159763,657b66ea316d21385b68909f,,,,,,,,,,,1870.6279,1874.7111,,,1874.7249,1874.7261,,145,145,,,,,,,,,,,,,,,,bars/048.png,bars/mask000.png,,,,,,,,,,,,0,2,,,,,,,8,6,9,6,,,,,,,,,,,1874.7111,1874.7249,1874.7261,1877.7408,space,3.0064,,1877.7409,85,30,1878.7415,1878.7416,1878.7547,,,,0,7,7,7,1,50,175,,,,,,,,
,,650279e620b9fcb3b662bb2b,65af52dfdc8991f4776b9ea4,2024-01-23_16h48.34.588,bars,2023.2.3,Win32,59.17159763,657b66ea316d21385b68909f,,,,,,,,,,,1878.7548,1879.7427,,,1880.2429,1880.493,,133,133,,,,,,,,,,,,,,,,bars/034.png,bars/mask005.png,,,,,,,,,,,,7,1,,,,,,,10,8,10,8,,,,,,,,,,,1879.7427,1880.2429,1880.493,1882.2787,space,1.7701,,1882.2787,8,68,1883.2799,1883.2799,1883.2827,,,,0,8,8,8,1,125,65,,,,,,,,
,,650279e620b9fcb3b662bb2b,65af52dfdc8991f4776b9ea4,2024-01-23_16h48.34.588,bars,2023.2.3,Win32,59.17159763,657b66ea316d21385b68909f,,,,,,,,,,,1883.2829,1884.2808,,,1884.7806,1885.0311,,131,131,,,,,,,,,,,,,,,,bars/007.png,bars/mask003.png,,,,,,,,,,,,0,1,,,,,,,8,10,6,10,,,,,,,,,,,1884.2809,1884.7806,1885.0311,1887.6839,space,2.6407,,1887.6841,44,76,1888.6845,1888.6847,1888.6944,,,,0,9,9,9,1,175,55,,,,,,,,
,,650279e620b9fcb3b662bb2b,65af52dfdc8991f4776b9ea4,2024-01-23_16h48.34.588,bars,2023.2.3,Win32,59.17159763,657b66ea316d21385b68909f,,,,,,,,,,,1888.6946,1889.6862,,,1890.1868,1890.437,,51,51,,,,,,,,,,,,,,,,bars/019.png,bars/mask006.png,,,,,,,,,,,,8,1,,,,,,,10,10,10,10,,,,,,,,,,,1889.6863,1890.1867,1890.4371,1892.6223,space,2.1692,,1892.6223,6,54,1893.6234,1893.6234,1893.6247,,,,0,10,10,10,1,45,105,,,,,,,,
,,650279e620b9fcb3b662bb2b,65af52dfdc8991f4776b9ea4,2024-01-23_16h48.34.588,bars,2023.2.3,Win32,59.17159763,657b66ea316d21385b68909f,,,,,,,,,,,1893.625,1894.6244,,,1895.1253,1895.3749,,72,72,,,,,,,,,,,,,,,,bars/014.png,bars/mask002.png,,,,,,,,,,,,7,1,,,,,,,8,10,9,10,,,,,,,,,,,1894.6244,1895.1253,1895.375,1897.7112,space,2.3192,,1897.7113,8,72,1898.7115,1898.7116,1898.7263,,,,0,11,11,11,1,80,0,,,,,,,,
