init_variables.started,init_variables.stopped,participant,session,date,expName,psychopyVersion,OS,frameRate,study_id,instruction_exp.started,instruction_exp.stopped,key_resp_8.keys,key_resp_8.rt,key_resp_8.duration,instruction_single.started,instruction_single.stopped,key_resp_2.keys,key_resp_2.rt,key_resp_2.duration,interval.started,interval.stopped,cue_single.started,cue_single.stopped,mask.started,mask.stopped,ori_response_single.started,res_ori,res,ori_response_single.stopped,key_resp_single.keys,key_resp_single.rt,key_resp_single.duration,disp_single.started,disp_single.stopped,key_resp.keys,key_resp.rt,key_resp.duration,single.thisRepN,single.thisTrialN,single.thisN,single.thisIndex,single.ran,ori,path,mask_path,instruction_bandit.started,instruction_bandit.stopped,key_resp_6.keys,key_resp_6.rt,key_resp_6.duration,cue_bandit.started,cue_bandit.stopped,bandit_res.keys,bandit_res.rt,bandit_res.duration,outcome_bandit.started,rew,action,outcome_bandit.stopped,bandit.thisRepN,bandit.thisTrialN,bandit.thisN,bandit.thisIndex,bandit.ran,actual_rew1,actual_rew2,rew1,rew2,instruction_task.started,instruction_task.stopped,key_resp_7.keys,key_resp_7.rt,key_resp_7.duration,wait_ready.started,wait_ready.stopped,key_resp_3.keys,key_resp_3.rt,key_resp_3.duration,cue.started,cue.stopped,ori_response.started,ori_response.stopped,key_resp_5.keys,key_resp_5.rt,key_resp_5.duration,outcome.started,diff1,diff2,outcome.stopped,disp_outcome_practice.started,disp_outcome_practice.stopped,key_resp_4.keys,key_resp_4.rt,key_resp_4.duration,trials.thisRepN,trials.thisTrialN,trials.thisN,trials.thisIndex,trials.ran,ori1,ori2,break_blk.started,break_blk.stopped,block.thisRepN,block.thisTrialN,block.thisN,block.thisIndex,block.ran,condition_file
0.0009,0.0011,5ed263aeba65480a03b6c31f,65af54b8ebaa6ae4e2c75634,2024-01-23_07h55.48.335,bars,2023.2.3,Win32,117.6470588,657b66ea316d21385b68909f,,,,,,,,,,,,,,,,,,,,,,,,,,,,,,,,,,,,,,,,,,,,,,,,,,,,,,,,,,,,,,,,,,,,,,,,,,,,,,,,,,,,,,,,,,,,,,,,,,,,
,,5ed263aeba65480a03b6c31f,65af54b8ebaa6ae4e2c75634,2024-01-23_07h55.48.335,bars,2023.2.3,Win32,117.6470588,657b66ea316d21385b68909f,0.0012,5.7726,y,5.7538,,,,,,,,,,,,,,,,,,,,,,,,,,,,,,,,,,,,,,,,,,,,,,,,,,,,,,,,,,,,,,,,,,,,,,,,,,,,,,,,,,,,,,,,,,,,,,,,
,,5ed263aeba65480a03b6c31f,65af54b8ebaa6ae4e2c75634,2024-01-23_07h55.48.335,bars,2023.2.3,Win32,117.6470588,657b66ea316d21385b68909f,,,,,,5.7727,17.1654,space,11.377,,,,,,,,,,,,,,,,,,,,,,,,,,,,,,,,,,,,,,,,,,,,,,,,,,,,,,,,,,,,,,,,,,,,,,,,,,,,,,,,,,,,,,,,,,,
,,5ed263aeba65480a03b6c31f,65af54b8ebaa6ae4e2c75634,2024-01-23_07h55.48.335,bars,2023.2.3,Win32,117.6470588,657b66ea316d21385b68909f,,,,,,,,,,,17.1691,18.1669,18.1671,18.6677,18.668,18.9196,18.9197,90,90,27.798,space,8.8527,,27.7981,36.4036,space,8.587,,0,0,0,9,1,20,bars/single009.png,bars/mask006.png,,,,,,,,,,,,,,,,,,,,,,,,,,,,,,,,,,,,,,,,,,,,,,,,,,,,,,,,,,,,,,,,
,,5ed263aeba65480a03b6c31f,65af54b8ebaa6ae4e2c75634,2024-01-23_07h55.48.335,bars,2023.2.3,Win32,117.6470588,657b66ea316d21385b68909f,,,,,,,,,,,36.4095,37.404,37.4042,37.9047,37.9048,38.1569,38.1569,90,90,47.2692,space,9.0979,,47.2692,52.8025,space,5.5163,,0,1,1,5,1,55,bars/single005.png,bars/mask008.png,,,,,,,,,,,,,,,,,,,,,,,,,,,,,,,,,,,,,,,,,,,,,,,,,,,,,,,,,,,,,,,,
,,5ed263aeba65480a03b6c31f,65af54b8ebaa6ae4e2c75634,2024-01-23_07h55.48.335,bars,2023.2.3,Win32,117.6470588,657b66ea316d21385b68909f,,,,,,,,,,,52.8127,53.804,53.8041,54.3048,54.3049,54.5551,54.5552,63,63,56.7252,space,2.1541,,56.7253,58.528,space,1.791,,0,2,2,8,1,160,bars/single008.png,bars/mask004.png,,,,,,,,,,,,,,,,,,,,,,,,,,,,,,,,,,,,,,,,,,,,,,,,,,,,,,,,,,,,,,,,
,,5ed263aeba65480a03b6c31f,65af54b8ebaa6ae4e2c75634,2024-01-23_07h55.48.335,bars,2023.2.3,Win32,117.6470588,657b66ea316d21385b68909f,,,,,,,,,,,58.5288,59.5294,59.5294,60.0243,60.0243,60.2721,60.2722,67,67,63.5772,space,3.2898,,63.5772,64.9378,space,1.3441,,0,3,3,0,1,150,bars/single000.png,bars/mask006.png,,,,,,,,,,,,,,,,,,,,,,,,,,,,,,,,,,,,,,,,,,,,,,,,,,,,,,,,,,,,,,,,
,,5ed263aeba65480a03b6c31f,65af54b8ebaa6ae4e2c75634,2024-01-23_07h55.48.335,bars,2023.2.3,Win32,117.6470588,657b66ea316d21385b68909f,,,,,,,,,,,64.9386,65.9392,65.9393,66.44,66.4401,66.6902,66.6902,1,181,69.8286,space,3.1238,,69.8286,71.0135,space,1.1701,,0,4,4,1,1,20,bars/single001.png,bars/mask006.png,,,,,,,,,,,,,,,,,,,,,,,,,,,,,,,,,,,,,,,,,,,,,,,,,,,,,,,,,,,,,,,,
,,5ed263aeba65480a03b6c31f,65af54b8ebaa6ae4e2c75634,2024-01-23_07h55.48.335,bars,2023.2.3,Win32,117.6470588,657b66ea316d21385b68909f,,,,,,,,,,,71.014,72.0149,72.015,72.5157,72.5157,72.766,72.766,136,136,76.672,space,3.8951,,76.6721,78.0413,space,1.352,,0,5,5,7,1,45,bars/single007.png,bars/mask009.png,,,,,,,,,,,,,,,,,,,,,,,,,,,,,,,,,,,,,,,,,,,,,,,,,,,,,,,,,,,,,,,,
,,5ed263aeba65480a03b6c31f,65af54b8ebaa6ae4e2c75634,2024-01-23_07h55.48.335,bars,2023.2.3,Win32,117.6470588,657b66ea316d21385b68909f,,,,,,,,,,,78.042,79.0425,79.0426,79.5432,79.5434,79.7937,79.7937,13,13,81.5046,space,1.6989,,81.5047,82.9487,space,1.428,,0,6,6,4,1,95,bars/single004.png,bars/mask004.png,,,,,,,,,,,,,,,,,,,,,,,,,,,,,,,,,,,,,,,,,,,,,,,,,,,,,,,,,,,,,,,,
,,5ed263aeba65480a03b6c31f,65af54b8ebaa6ae4e2c75634,2024-01-23_07h55.48.335,bars,2023.2.3,Win32,117.6470588,657b66ea316d21385b68909f,,,,,,,,,,,82.9492,83.9498,83.95,84.4509,84.4509,84.7011,84.7011,19,19,86.3618,space,1.646,,86.3618,87.8476,space,1.4699,,0,7,7,3,1,20,bars/single003.png,bars/mask005.png,,,,,,,,,,,,,,,,,,,,,,,,,,,,,,,,,,,,,,,,,,,,,,,,,,,,,,,,,,,,,,,,
,,5ed263aeba65480a03b6c31f,65af54b8ebaa6ae4e2c75634,2024-01-23_07h55.48.335,bars,2023.2.3,Win32,117.6470588,657b66ea316d21385b68909f,,,,,,,,,,,87.8483,88.8491,88.8492,89.3496,89.3497,89.6001,89.6002,145,145,91.7871,space,2.1706,,91.7871,93.6733,space,1.8703,,0,8,8,6,1,175,bars/single006.png,bars/mask005.png,,,,,,,,,,,,,,,,,,,,,,,,,,,,,,,,,,,,,,,,,,,,,,,,,,,,,,,,,,,,,,,,
,,5ed263aeba65480a03b6c31f,65af54b8ebaa6ae4e2c75634,2024-01-23_07h55.48.335,bars,2023.2.3,Win32,117.6470588,657b66ea316d21385b68909f,,,,,,,,,,,93.674,94.6744,94.6745,95.1752,95.1754,95.4256,95.4256,13,193,98.5471,space,3.1059,,98.5472,99.3404,space,0.7768,,0,9,9,2,1,145,bars/single002.png,bars/mask003.png,,,,,,,,,,,,,,,,,,,,,,,,,,,,,,,,,,,,,,,,,,,,,,,,,,,,,,,,,,,,,,,,
,,5ed263aeba65480a03b6c31f,65af54b8ebaa6ae4e2c75634,2024-01-23_07h55.48.335,bars,2023.2.3,Win32,117.6470588,657b66ea316d21385b68909f,,,,,,,,,,,,,,,,,,,,,,,,,,,,,,,,,,,,,99.3414,111.2007,space,11.8443,,,,,,,,,,,,,,,,,,,,,,,,,,,,,,,,,,,,,,,,,,,,,,,,,,,,,,,,,,,,
,,5ed263aeba65480a03b6c31f,65af54b8ebaa6ae4e2c75634,2024-01-23_07h55.48.335,bars,2023.2.3,Win32,117.6470588,657b66ea316d21385b68909f,,,,,,,,,,,,,,,,,,,,,,,,,,,,,,,,,,,,,,,,,,111.209,117.2676,left,6.0426,,117.2677,9,1,118.2692,0,0,0,0,1,9,1,9,2,,,,,,,,,,,,,,,,,,,,,,,,,,,,,,,,,,,,,,,,,
,,5ed263aeba65480a03b6c31f,65af54b8ebaa6ae4e2c75634,2024-01-23_07h55.48.335,bars,2023.2.3,Win32,117.6470588,657b66ea316d21385b68909f,,,,,,,,,,,,,,,,,,,,,,,,,,,,,,,,,,,,,,,,,,118.2701,120.0799,left,1.796,,120.08,10,1,121.0812,0,1,1,1,1,10,0,10,1,,,,,,,,,,,,,,,,,,,,,,,,,,,,,,,,,,,,,,,,,
,,5ed263aeba65480a03b6c31f,65af54b8ebaa6ae4e2c75634,2024-01-23_07h55.48.335,bars,2023.2.3,Win32,117.6470588,657b66ea316d21385b68909f,,,,,,,,,,,,,,,,,,,,,,,,,,,,,,,,,,,,,,,,,,121.0818,122.8207,left,1.7281,,122.8207,10,1,123.8189,0,2,2,2,1,10,2,10,2,,,,,,,,,,,,,,,,,,,,,,,,,,,,,,,,,,,,,,,,,
,,5ed263aeba65480a03b6c31f,65af54b8ebaa6ae4e2c75634,2024-01-23_07h55.48.335,bars,2023.2.3,Win32,117.6470588,657b66ea316d21385b68909f,,,,,,,,,,,,,,,,,,,,,,,,,,,,,,,,,,,,,,,,,,123.8251,125.1961,left,1.3649,,125.1961,7,1,126.1975,0,3,3,3,1,8,4,7,3,,,,,,,,,,,,,,,,,,,,,,,,,,,,,,,,,,,,,,,,,
,,5ed263aeba65480a03b6c31f,65af54b8ebaa6ae4e2c75634,2024-01-23_07h55.48.335,bars,2023.2.3,Win32,117.6470588,657b66ea316d21385b68909f,,,,,,,,,,,,,,,,,,,,,,,,,,,,,,,,,,,,,,,,,,126.1982,127.1742,right,0.9604,,127.1742,1,2,128.1756,0,4,4,4,1,6,2,5,1,,,,,,,,,,,,,,,,,,,,,,,,,,,,,,,,,,,,,,,,,
,,5ed263aeba65480a03b6c31f,65af54b8ebaa6ae4e2c75634,2024-01-23_07h55.48.335,bars,2023.2.3,Win32,117.6470588,657b66ea316d21385b68909f,,,,,,,,,,,,,,,,,,,,,,,,,,,,,,,,,,,,,,,,,,128.1764,128.6513,left,0.4607,,128.6513,4,1,129.6528,0,5,5,5,1,4,4,4,4,,,,,,,,,,,,,,,,,,,,,,,,,,,,,,,,,,,,,,,,,
,,5ed263aeba65480a03b6c31f,65af54b8ebaa6ae4e2c75634,2024-01-23_07h55.48.335,bars,2023.2.3,Win32,117.6470588,657b66ea316d21385b68909f,,,,,,,,,,,,,,,,,,,,,,,,,,,,,,,,,,,,,,,,,,129.6536,129.9783,left,0.3093,,129.9784,1,1,130.9797,0,6,6,6,1,2,2,1,2,,,,,,,,,,,,,,,,,,,,,,,,,,,,,,,,,,,,,,,,,
,,5ed263aeba65480a03b6c31f,65af54b8ebaa6ae4e2c75634,2024-01-23_07h55.48.335,bars,2023.2.3,Win32,117.6470588,657b66ea316d21385b68909f,,,,,,,,,,,,,,,,,,,,,,,,,,,,,,,,,,,,,,,,,,130.9804,131.806,left,0.8151,,131.8061,0,1,132.8077,0,7,7,7,1,0,0,0,1,,,,,,,,,,,,,,,,,,,,,,,,,,,,,,,,,,,,,,,,,
,,5ed263aeba65480a03b6c31f,65af54b8ebaa6ae4e2c75634,2024-01-23_07h55.48.335,bars,2023.2.3,Win32,117.6470588,657b66ea316d21385b68909f,,,,,,,,,,,,,,,,,,,,,,,,,,,,,,,,,,,,,,,,,,132.8086,133.4754,left,0.655,,133.4754,1,1,134.4766,0,8,8,8,1,0,2,1,0,,,,,,,,,,,,,,,,,,,,,,,,,,,,,,,,,,,,,,,,,
,,5ed263aeba65480a03b6c31f,65af54b8ebaa6ae4e2c75634,2024-01-23_07h55.48.335,bars,2023.2.3,Win32,117.6470588,657b66ea316d21385b68909f,,,,,,,,,,,,,,,,,,,,,,,,,,,,,,,,,,,,,,,,,,134.4769,134.7942,right,0.3002,,134.7943,3,2,135.7953,0,9,9,9,1,2,4,2,3,,,,,,,,,,,,,,,,,,,,,,,,,,,,,,,,,,,,,,,,,
,,5ed263aeba65480a03b6c31f,65af54b8ebaa6ae4e2c75634,2024-01-23_07h55.48.335,bars,2023.2.3,Win32,117.6470588,657b66ea316d21385b68909f,,,,,,,,,,,,,,,,,,,,,,,,,,,,,,,,,,,,,,,,,,135.7959,136.1627,left,0.3511,,136.1627,0,1,137.1643,0,10,10,10,1,0,2,0,3,,,,,,,,,,,,,,,,,,,,,,,,,,,,,,,,,,,,,,,,,
,,5ed263aeba65480a03b6c31f,65af54b8ebaa6ae4e2c75634,2024-01-23_07h55.48.335,bars,2023.2.3,Win32,117.6470588,657b66ea316d21385b68909f,,,,,,,,,,,,,,,,,,,,,,,,,,,,,,,,,,,,,,,,,,137.165,137.4815,right,0.3018,,137.4816,3,2,138.4828,0,11,11,11,1,0,4,0,3,,,,,,,,,,,,,,,,,,,,,,,,,,,,,,,,,,,,,,,,,
,,5ed263aeba65480a03b6c31f,65af54b8ebaa6ae4e2c75634,2024-01-23_07h55.48.335,bars,2023.2.3,Win32,117.6470588,657b66ea316d21385b68909f,,,,,,,,,,,,,,,,,,,,,,,,,,,,,,,,,,,,,,,,,,138.4834,138.7498,right,0.2508,,138.75,6,2,139.7516,0,12,12,12,1,2,6,1,6,,,,,,,,,,,,,,,,,,,,,,,,,,,,,,,,,,,,,,,,,
,,5ed263aeba65480a03b6c31f,65af54b8ebaa6ae4e2c75634,2024-01-23_07h55.48.335,bars,2023.2.3,Win32,117.6470588,657b66ea316d21385b68909f,,,,,,,,,,,,,,,,,,,,,,,,,,,,,,,,,,,,,,,,,,139.7524,140.1771,right,0.4107,,140.1772,3,2,141.1785,0,13,13,13,1,0,4,1,3,,,,,,,,,,,,,,,,,,,,,,,,,,,,,,,,,,,,,,,,,
,,5ed263aeba65480a03b6c31f,65af54b8ebaa6ae4e2c75634,2024-01-23_07h55.48.335,bars,2023.2.3,Win32,117.6470588,657b66ea316d21385b68909f,,,,,,,,,,,,,,,,,,,,,,,,,,,,,,,,,,,,,,,,,,141.1789,141.5543,left,0.3643,,141.5544,2,1,142.5556,0,14,14,14,1,2,6,2,7,,,,,,,,,,,,,,,,,,,,,,,,,,,,,,,,,,,,,,,,,
,,5ed263aeba65480a03b6c31f,65af54b8ebaa6ae4e2c75634,2024-01-23_07h55.48.335,bars,2023.2.3,Win32,117.6470588,657b66ea316d21385b68909f,,,,,,,,,,,,,,,,,,,,,,,,,,,,,,,,,,,,,,,,,,142.5561,142.8564,right,0.2842,,142.8564,9,2,143.8577,0,15,15,15,1,4,8,3,9,,,,,,,,,,,,,,,,,,,,,,,,,,,,,,,,,,,,,,,,,
,,5ed263aeba65480a03b6c31f,65af54b8ebaa6ae4e2c75634,2024-01-23_07h55.48.335,bars,2023.2.3,Win32,117.6470588,657b66ea316d21385b68909f,,,,,,,,,,,,,,,,,,,,,,,,,,,,,,,,,,,,,,,,,,143.8584,144.317,right,0.4418,,144.317,7,2,145.3182,0,16,16,16,1,6,6,7,7,,,,,,,,,,,,,,,,,,,,,,,,,,,,,,,,,,,,,,,,,
,,5ed263aeba65480a03b6c31f,65af54b8ebaa6ae4e2c75634,2024-01-23_07h55.48.335,bars,2023.2.3,Win32,117.6470588,657b66ea316d21385b68909f,,,,,,,,,,,,,,,,,,,,,,,,,,,,,,,,,,,,,,,,,,145.3189,145.8608,right,0.5302,,145.8608,5,2,146.8623,0,17,17,17,1,8,4,9,5,,,,,,,,,,,,,,,,,,,,,,,,,,,,,,,,,,,,,,,,,
,,5ed263aeba65480a03b6c31f,65af54b8ebaa6ae4e2c75634,2024-01-23_07h55.48.335,bars,2023.2.3,Win32,117.6470588,657b66ea316d21385b68909f,,,,,,,,,,,,,,,,,,,,,,,,,,,,,,,,,,,,,,,,,,146.8631,147.3213,left,0.4466,,147.3213,5,1,148.3228,0,18,18,18,1,6,2,5,1,,,,,,,,,,,,,,,,,,,,,,,,,,,,,,,,,,,,,,,,,
,,5ed263aeba65480a03b6c31f,65af54b8ebaa6ae4e2c75634,2024-01-23_07h55.48.335,bars,2023.2.3,Win32,117.6470588,657b66ea316d21385b68909f,,,,,,,,,,,,,,,,,,,,,,,,,,,,,,,,,,,,,,,,,,148.3234,148.7571,left,0.4173,,148.7572,7,1,149.7583,0,19,19,19,1,8,0,7,0,,,,,,,,,,,,,,,,,,,,,,,,,,,,,,,,,,,,,,,,,
,,5ed263aeba65480a03b6c31f,65af54b8ebaa6ae4e2c75634,2024-01-23_07h55.48.335,bars,2023.2.3,Win32,117.6470588,657b66ea316d21385b68909f,,,,,,,,,,,,,,,,,,,,,,,,,,,,,,,,,,,,,,,,,,,,,,,,,,,,,,,,,,,,149.7596,163.205,space,13.4282,,,,,,,,,,,,,,,,,,,,,,,,,,,,,,,,,,,,,
,,5ed263aeba65480a03b6c31f,65af54b8ebaa6ae4e2c75634,2024-01-23_07h55.48.335,bars,2023.2.3,Win32,117.6470588,657b66ea316d21385b68909f,,,,,,,,,,,164.0659,165.065,,,165.566,165.8162,,28,208,,,,,,,,,,,,,,,,bars/010.png,bars/mask007.png,,,,,,,,,,,,1,2,,,,,,,9,9,7,10,,,,,,163.2127,164.0638,space,0.8425,,165.0652,165.5659,165.8164,170.8158,space,4.9841,,170.816,43,27,171.8171,171.8172,177.9274,space,6.0885,,0,0,0,0,1,165,55,,,,,,,,
,,5ed263aeba65480a03b6c31f,65af54b8ebaa6ae4e2c75634,2024-01-23_07h55.48.335,bars,2023.2.3,Win32,117.6470588,657b66ea316d21385b68909f,,,,,,,,,,,177.9334,178.9277,,,179.4311,179.679,,133,-47,,,,,,,,,,,,,,,,bars/033.png,bars/mask007.png,,,,,,,,,,,,3,2,,,,,,,7,10,7,10,,,,,,,,,,,178.9278,179.431,179.6791,182.2828,space,2.5916,,182.283,72,22,183.2844,183.2846,186.431,space,3.1326,,0,1,1,1,1,25,155,,,,,,,,
,,5ed263aeba65480a03b6c31f,65af54b8ebaa6ae4e2c75634,2024-01-23_07h55.48.335,bars,2023.2.3,Win32,117.6470588,657b66ea316d21385b68909f,,,,,,,,,,,186.4318,187.4326,,,187.9331,188.1834,,127,-53,,,,,,,,,,,,,,,,bars/032.png,bars/mask006.png,,,,,,,,,,,,8,1,,,,,,,9,8,9,8,,,,,,,,,,,187.4326,187.9331,188.1836,192.7824,space,4.5823,,192.7825,2,73,193.7841,193.7841,196.0538,space,2.2508,,0,2,2,2,1,125,20,,,,,,,,
,,5ed263aeba65480a03b6c31f,65af54b8ebaa6ae4e2c75634,2024-01-23_07h55.48.335,bars,2023.2.3,Win32,117.6470588,657b66ea316d21385b68909f,,,,,,,,,,,196.0541,197.0554,,,197.5561,197.8065,,37,37,,,,,,,,,,,,,,,,bars/035.png,bars/mask000.png,,,,,,,,,,,,2,2,,,,,,,10,6,8,7,,,,,,,,,,,197.0555,197.5561,197.8065,201.7375,space,3.925,,201.7376,42,23,202.7389,202.739,203.6989,space,0.9429,,0,3,3,3,1,175,60,,,,,,,,
,,5ed263aeba65480a03b6c31f,65af54b8ebaa6ae4e2c75634,2024-01-23_07h55.48.335,bars,2023.2.3,Win32,117.6470588,657b66ea316d21385b68909f,,,,,,,,,,,203.6992,204.7002,,,205.2011,205.4514,,169,-11,,,,,,,,,,,,,,,,bars/044.png,bars/mask003.png,,,,,,,,,,,,2,2,,,,,,,10,4,9,4,,,,,,,,,,,204.7003,205.2011,205.4515,208.8483,space,3.393,,208.8484,86,14,209.8497,209.8498,210.5844,space,0.7152,,0,4,4,4,1,75,155,,,,,,,,
,,5ed263aeba65480a03b6c31f,65af54b8ebaa6ae4e2c75634,2024-01-23_07h55.48.335,bars,2023.2.3,Win32,117.6470588,657b66ea316d21385b68909f,,,,,,,,,,,210.5846,211.5859,,,212.0866,212.337,,43,223,,,,,,,,,,,,,,,,bars/041.png,bars/mask004.png,,,,,,,,,,,,2,1,,,,,,,8,2,8,3,,,,,,,,,,,211.5859,212.0865,212.337,215.7921,space,3.4496,,215.7921,23,42,216.7936,216.7937,217.5615,space,0.7497,,0,5,5,5,1,20,85,,,,,,,,
,,5ed263aeba65480a03b6c31f,65af54b8ebaa6ae4e2c75634,2024-01-23_07h55.48.335,bars,2023.2.3,Win32,117.6470588,657b66ea316d21385b68909f,,,,,,,,,,,217.5619,218.5632,,,219.0638,219.3142,,31,31,,,,,,,,,,,,,,,,bars/011.png,bars/mask007.png,,,,,,,,,,,,0,1,,,,,,,6,4,6,4,,,,,,,,,,,218.5633,219.0638,219.3143,221.1171,space,1.7937,,221.1171,51,54,222.1185,222.1185,222.7697,space,0.6323,,0,6,6,6,1,160,85,,,,,,,,
,,5ed263aeba65480a03b6c31f,65af54b8ebaa6ae4e2c75634,2024-01-23_07h55.48.335,bars,2023.2.3,Win32,117.6470588,657b66ea316d21385b68909f,,,,,,,,,,,222.7702,223.7708,,,224.272,224.5221,,143,143,,,,,,,,,,,,,,,,bars/048.png,bars/mask000.png,,,,,,,,,,,,0,2,,,,,,,8,6,9,6,,,,,,,,,,,223.7709,224.272,224.5221,226.5252,space,1.9992,,226.5252,87,32,227.5267,227.5267,228.0695,space,0.5224,,0,7,7,7,1,50,175,,,,,,,,
,,5ed263aeba65480a03b6c31f,65af54b8ebaa6ae4e2c75634,2024-01-23_07h55.48.335,bars,2023.2.3,Win32,117.6470588,657b66ea316d21385b68909f,,,,,,,,,,,228.0703,229.0707,,,229.5726,229.8219,,149,149,,,,,,,,,,,,,,,,bars/034.png,bars/mask005.png,,,,,,,,,,,,2,1,,,,,,,10,8,10,8,,,,,,,,,,,229.0708,229.5723,229.8219,230.86,space,1.0271,,230.8601,24,84,231.8583,231.8584,232.476,space,0.6032,,0,8,8,8,1,125,65,,,,,,,,
,,5ed263aeba65480a03b6c31f,65af54b8ebaa6ae4e2c75634,2024-01-23_07h55.48.335,bars,2023.2.3,Win32,117.6470588,657b66ea316d21385b68909f,,,,,,,,,,,232.4764,233.4778,,,233.9785,234.2287,,35,-145,,,,,,,,,,,,,,,,bars/007.png,bars/mask003.png,,,,,,,,,,,,3,2,,,,,,,8,10,6,10,,,,,,,,,,,233.4778,233.9785,234.2288,239.5449,space,5.3053,,239.545,40,20,240.5465,240.5466,241.3145,space,0.7457,,0,9,9,9,1,175,55,,,,,,,,
,,5ed263aeba65480a03b6c31f,65af54b8ebaa6ae4e2c75634,2024-01-23_07h55.48.335,bars,2023.2.3,Win32,117.6470588,657b66ea316d21385b68909f,,,,,,,,,,,241.315,242.3158,,,242.8166,243.0669,,172,-8,,,,,,,,,,,,,,,,bars/019.png,bars/mask006.png,,,,,,,,,,,,0,1,,,,,,,10,10,10,10,,,,,,,,,,,242.3158,242.8166,243.067,246.3638,space,3.2905,,246.3638,53,67,247.3654,247.3654,247.9578,space,0.5762,,0,10,10,10,1,45,105,,,,,,,,
,,5ed263aeba65480a03b6c31f,65af54b8ebaa6ae4e2c75634,2024-01-23_07h55.48.335,bars,2023.2.3,Win32,117.6470588,657b66ea316d21385b68909f,,,,,,,,,,,247.9581,248.9593,,,249.4601,249.7106,,73,73,,,,,,,,,,,,,,,,bars/014.png,bars/mask002.png,,,,,,,,,,,,7,1,,,,,,,8,10,9,10,,,,,,,,,,,248.9594,249.46,249.7106,250.7704,space,1.0531,,250.7704,7,73,251.7719,251.7719,252.5566,space,0.7773,,0,11,11,11,1,80,0,,,,,,,,
,,5ed263aeba65480a03b6c31f,65af54b8ebaa6ae4e2c75634,2024-01-23_07h55.48.335,bars,2023.2.3,Win32,117.6470588,657b66ea316d21385b68909f,,,,,,,,,,,252.5569,253.5581,,,254.0588,254.3091,,133,-47,,,,,,,,,,,,,,,,bars/046.png,bars/mask008.png,,,,,,,,,,,,2,1,,,,,,,10,8,8,7,,,,,,,,,,,253.5581,254.0588,254.3091,257.9396,space,3.6275,,257.9398,22,48,258.9411,258.9411,259.2167,space,0.2564,,0,12,12,12,1,155,85,,,,,,,,
,,5ed263aeba65480a03b6c31f,65af54b8ebaa6ae4e2c75634,2024-01-23_07h55.48.335,bars,2023.2.3,Win32,117.6470588,657b66ea316d21385b68909f,,,,,,,,,,,259.2171,260.2181,,,260.7188,260.9694,,118,118,,,,,,,,,,,,,,,,bars/044.png,bars/mask000.png,,,,,,,,,,,,0,2,,,,,,,10,6,10,6,,,,,,,,,,,260.2181,260.7188,260.9694,262.914,space,1.9355,,262.914,43,37,263.9154,263.9154,264.5831,space,0.6506,,0,13,13,13,1,75,155,,,,,,,,
,,5ed263aeba65480a03b6c31f,65af54b8ebaa6ae4e2c75634,2024-01-23_07h55.48.335,bars,2023.2.3,Win32,117.6470588,657b66ea316d21385b68909f,,,,,,,,,,,264.5835,265.5847,,,266.0855,266.3357,,68,68,,,,,,,,,,,,,,,,bars/009.png,bars/mask008.png,,,,,,,,,,,,0,2,,,,,,,8,4,9,4,,,,,,,,,,,265.5848,266.0854,266.3358,269.2237,space,2.8795,,269.2237,53,37,270.2249,270.2249,270.7009,space,0.4567,,0,14,14,14,1,15,105,,,,,,,,
,,5ed263aeba65480a03b6c31f,65af54b8ebaa6ae4e2c75634,2024-01-23_07h55.48.335,bars,2023.2.3,Win32,117.6470588,657b66ea316d21385b68909f,,,,,,,,,,,270.7013,271.7022,,,272.2033,272.4534,,5,5,,,,,,,,,,,,,,,,bars/001.png,bars/mask008.png,,,,,,,,,,,,0,1,,,,,,,10,2,10,2,,,,,,,,,,,271.7022,272.2032,272.4534,274.2063,space,1.7487,,274.2063,55,80,275.2075,275.2075,275.8086,space,0.5842,,0,15,15,15,1,130,85,,,,,,,,
,,5ed263aeba65480a03b6c31f,65af54b8ebaa6ae4e2c75634,2024-01-23_07h55.48.335,bars,2023.2.3,Win32,117.6470588,657b66ea316d21385b68909f,,,,,,,,,,,275.8089,276.8099,,,277.3108,277.5611,,125,125,,,,,,,,,,,,,,,,bars/019.png,bars/mask005.png,,,,,,,,,,,,0,2,,,,,,,8,0,9,1,,,,,,,,,,,276.81,277.3108,277.5611,281.7843,space,4.2186,,281.7843,80,20,282.7857,282.7857,282.8051,space,0.0008,,0,16,16,16,1,45,105,,,,,,,,
,,5ed263aeba65480a03b6c31f,65af54b8ebaa6ae4e2c75634,2024-01-23_07h55.48.335,bars,2023.2.3,Win32,117.6470588,657b66ea316d21385b68909f,,,,,,,,,,,282.8052,283.804,,,284.3049,284.555,,18,18,,,,,,,,,,,,,,,,bars/031.png,bars/mask002.png,,,,,,,,,,,,0,2,,,,,,,10,0,10,0,,,,,,,,,,,283.804,284.3049,284.5551,286.0908,space,1.5278,,286.0909,78,17,287.0925,287.0925,287.6266,space,0.5224,,0,17,17,17,1,120,35,,,,,,,,
,,5ed263aeba65480a03b6c31f,65af54b8ebaa6ae4e2c75634,2024-01-23_07h55.48.335,bars,2023.2.3,Win32,117.6470588,657b66ea316d21385b68909f,,,,,,,,,,,287.6269,288.628,,,289.1287,289.3792,,137,137,,,,,,,,,,,,,,,,bars/048.png,bars/mask007.png,,,,,,,,,,,,0,2,,,,,,,10,2,10,4,,,,,,,,,,,288.628,289.1287,289.3792,291.6913,space,2.3034,,291.6913,87,38,292.6925,292.6926,292.9432,space,0.2316,,0,18,18,18,1,50,175,,,,,,,,
,,5ed263aeba65480a03b6c31f,65af54b8ebaa6ae4e2c75634,2024-01-23_07h55.48.335,bars,2023.2.3,Win32,117.6470588,657b66ea316d21385b68909f,,,,,,,,,,,292.9436,293.9449,,,294.4452,294.6955,,50,50,,,,,,,,,,,,,,,,bars/021.png,bars/mask007.png,,,,,,,,,,,,1,2,,,,,,,8,4,8,4,,,,,,,,,,,293.945,294.4452,294.6956,297.4582,space,2.7545,,297.4582,75,20,298.4595,298.4595,302.1737,space,3.6981,,0,19,19,19,1,155,70,,,,,,,,
,,5ed263aeba65480a03b6c31f,65af54b8ebaa6ae4e2c75634,2024-01-23_07h55.48.335,bars,2023.2.3,Win32,117.6470588,657b66ea316d21385b68909f,,,,,,,,,,,302.1798,303.1751,,,303.6759,303.9263,,51,231,,,,,,,,,,,,,,,,bars/036.png,bars/mask008.png,,,,,,,,,,,,0,2,,,,,,,10,6,9,5,,,,,,,,,,,303.1751,303.6759,303.9263,307.891,space,3.9615,,307.891,86,31,308.8921,308.8922,310.0107,space,1.1029,,0,20,20,20,1,145,20,,,,,,,,
,,5ed263aeba65480a03b6c31f,65af54b8ebaa6ae4e2c75634,2024-01-23_07h55.48.335,bars,2023.2.3,Win32,117.6470588,657b66ea316d21385b68909f,,,,,,,,,,,310.011,311.0121,,,311.5131,311.7633,,11,11,,,,,,,,,,,,,,,,bars/004.png,bars/mask001.png,,,,,,,,,,,,5,1,,,,,,,8,4,9,4,,,,,,,,,,,311.0121,311.5131,311.7633,314.6179,space,2.847,,314.6179,14,66,315.6191,315.6192,316.963,space,1.3263,,0,21,21,21,1,25,125,,,,,,,,
,,5ed263aeba65480a03b6c31f,65af54b8ebaa6ae4e2c75634,2024-01-23_07h55.48.335,bars,2023.2.3,Win32,117.6470588,657b66ea316d21385b68909f,,,,,,,,,,,316.9634,317.9643,,,318.4652,318.7155,,175,-5,,,,,,,,,,,,,,,,bars/042.png,bars/mask002.png,,,,,,,,,,,,0,1,,,,,,,6,6,8,5,,,,,,,,,,,317.9643,318.4652,318.7155,320.6687,space,1.9455,,320.6687,30,80,321.67,321.67,322.1711,space,0.4874,,0,22,22,22,1,145,75,,,,,,,,
,,5ed263aeba65480a03b6c31f,65af54b8ebaa6ae4e2c75634,2024-01-23_07h55.48.335,bars,2023.2.3,Win32,117.6470588,657b66ea316d21385b68909f,,,,,,,,,,,322.1716,323.1722,,,323.6732,323.9235,,71,71,,,,,,,,,,,,,,,,bars/040.png,bars/mask007.png,,,,,,,,,,,,0,2,,,,,,,8,4,8,2,,,,,,,,,,,323.1723,323.6732,323.9235,325.409,space,1.4776,,325.4092,69,66,326.4107,326.4107,326.5442,space,0.1236,,0,23,23,23,1,140,5,,,,,,,,
,,5ed263aeba65480a03b6c31f,65af54b8ebaa6ae4e2c75634,2024-01-23_07h55.48.335,bars,2023.2.3,Win32,117.6470588,657b66ea316d21385b68909f,,,,,,,,,,,326.5445,327.5455,,,328.0463,328.2967,,77,77,,,,,,,,,,,,,,,,bars/040.png,bars/mask003.png,,,,,,,,,,,,0,1,,,,,,,10,6,10,6,,,,,,,,,,,327.5456,328.0463,328.2967,329.0479,space,0.7438,,329.0479,63,72,330.0496,330.0496,331.193,space,1.133,,0,24,24,24,1,140,5,,,,,,,,
,,5ed263aeba65480a03b6c31f,65af54b8ebaa6ae4e2c75634,2024-01-23_07h55.48.335,bars,2023.2.3,Win32,117.6470588,657b66ea316d21385b68909f,,,,,,,,,,,331.1934,332.1948,,,332.6951,332.9455,,178,-2,,,,,,,,,,,,,,,,bars/019.png,bars/mask006.png,,,,,,,,,,,,0,1,,,,,,,8,4,7,4,,,,,,,,,,,332.1948,332.6951,332.9455,336.1922,space,3.2386,,336.1922,47,73,337.1937,337.1937,337.7029,space,0.4972,,0,25,25,25,1,45,105,,,,,,,,
,,5ed263aeba65480a03b6c31f,65af54b8ebaa6ae4e2c75634,2024-01-23_07h55.48.335,bars,2023.2.3,Win32,117.6470588,657b66ea316d21385b68909f,,,,,,,,,,,337.7032,338.7042,,,339.2051,339.4559,,37,37,,,,,,,,,,,,,,,,bars/003.png,bars/mask003.png,,,,,,,,,,,,5,1,,,,,,,10,6,9,6,,,,,,,,,,,338.7043,339.2051,339.4559,341.6173,space,2.1533,,341.6173,12,77,342.6186,342.6186,343.9623,space,1.3284,,0,26,26,26,1,25,140,,,,,,,,
,,5ed263aeba65480a03b6c31f,65af54b8ebaa6ae4e2c75634,2024-01-23_07h55.48.335,bars,2023.2.3,Win32,117.6470588,657b66ea316d21385b68909f,,,,,,,,,,,343.9627,344.9639,,,345.4648,345.7149,,7,187,,,,,,,,,,,,,,,,bars/003.png,bars/mask008.png,,,,,,,,,,,,4,1,,,,,,,8,4,9,4,,,,,,,,,,,344.964,345.4647,345.715,351.8244,space,6.1009,,351.8245,18,47,352.8258,352.8259,361.3889,space,8.5543,,0,27,27,27,1,25,140,,,,,,,,
,,5ed263aeba65480a03b6c31f,65af54b8ebaa6ae4e2c75634,2024-01-23_07h55.48.335,bars,2023.2.3,Win32,117.6470588,657b66ea316d21385b68909f,,,,,,,,,,,361.3955,362.3905,,,362.8911,363.1417,,42,222,,,,,,,,,,,,,,,,bars/022.png,bars/mask000.png,,,,,,,,,,,,2,2,,,,,,,6,6,6,6,,,,,,,,,,,362.3905,362.891,363.1417,367.8319,space,4.6856,,367.8319,53,22,368.8335,368.8335,370.9368,space,2.0848,,0,28,28,28,1,95,20,,,,,,,,
,,5ed263aeba65480a03b6c31f,65af54b8ebaa6ae4e2c75634,2024-01-23_07h55.48.335,bars,2023.2.3,Win32,117.6470588,657b66ea316d21385b68909f,,,,,,,,,,,370.9372,371.9383,,,372.4389,372.6894,,19,199,,,,,,,,,,,,,,,,bars/028.png,bars/mask003.png,,,,,,,,,,,,0,1,,,,,,,4,4,3,5,,,,,,,,,,,371.9384,372.4389,372.6894,376.7711,space,4.0788,,376.7711,26,79,377.7721,377.7721,378.4565,space,0.6652,,0,29,29,29,1,45,120,,,,,,,,
,,5ed263aeba65480a03b6c31f,65af54b8ebaa6ae4e2c75634,2024-01-23_07h55.48.335,bars,2023.2.3,Win32,117.6470588,657b66ea316d21385b68909f,,,,,,,,,,,378.457,379.4581,,,379.9588,380.2091,,113,-67,,,,,,,,,,,,,,,,bars/037.png,bars/mask004.png,,,,,,,,,,,,1,2,,,,,,,2,2,1,2,,,,,,,,,,,379.4582,379.9588,380.2091,384.9081,space,4.6908,,384.9081,37,8,385.9097,385.9097,387.9546,space,2.0313,,0,30,30,30,1,150,105,,,,,,,,
,,5ed263aeba65480a03b6c31f,65af54b8ebaa6ae4e2c75634,2024-01-23_07h55.48.335,bars,2023.2.3,Win32,117.6470588,657b66ea316d21385b68909f,,,,,,,,,,,387.955,388.9558,,,389.4567,389.7069,,44,44,,,,,,,,,,,,,,,,bars/033.png,bars/mask001.png,,,,,,,,,,,,1,1,,,,,,,4,4,4,3,,,,,,,,,,,388.9558,389.4566,389.707,393.1289,space,3.4135,,393.1289,19,69,394.1303,394.1304,394.8398,space,0.69,,0,31,31,31,1,25,155,,,,,,,,
,,5ed263aeba65480a03b6c31f,65af54b8ebaa6ae4e2c75634,2024-01-23_07h55.48.335,bars,2023.2.3,Win32,117.6470588,657b66ea316d21385b68909f,,,,,,,,,,,394.8404,395.8412,,,396.3422,396.5924,,141,141,,,,,,,,,,,,,,,,bars/048.png,bars/mask003.png,,,,,,,,,,,,0,2,,,,,,,2,2,2,1,,,,,,,,,,,395.8413,396.3421,396.5925,397.8611,space,1.2656,,397.8611,89,34,398.8627,398.8627,399.7306,space,0.8557,,0,32,32,32,1,50,175,,,,,,,,
,,5ed263aeba65480a03b6c31f,65af54b8ebaa6ae4e2c75634,2024-01-23_07h55.48.335,bars,2023.2.3,Win32,117.6470588,657b66ea316d21385b68909f,,,,,,,,,,,399.731,400.7321,,,401.2328,401.4832,,61,61,,,,,,,,,,,,,,,,bars/013.png,bars/mask009.png,,,,,,,,,,,,2,1,,,,,,,4,4,4,4,,,,,,,,,,,400.7321,401.2327,401.4833,405.3976,space,3.9064,,405.3977,14,51,406.399,406.399,407.192,space,0.7749,,0,33,33,33,1,75,10,,,,,,,,
,,5ed263aeba65480a03b6c31f,65af54b8ebaa6ae4e2c75634,2024-01-23_07h55.48.335,bars,2023.2.3,Win32,117.6470588,657b66ea316d21385b68909f,,,,,,,,,,,407.1925,408.1933,,,408.6945,408.9445,,131,131,,,,,,,,,,,,,,,,bars/038.png,bars/mask002.png,,,,,,,,,,,,0,1,,,,,,,6,6,5,4,,,,,,,,,,,408.1934,408.6944,408.9445,412.3415,space,3.3892,,412.3415,34,61,413.3429,413.343,413.9774,space,0.618,,0,34,34,34,1,165,70,,,,,,,,
,,5ed263aeba65480a03b6c31f,65af54b8ebaa6ae4e2c75634,2024-01-23_07h55.48.335,bars,2023.2.3,Win32,117.6470588,657b66ea316d21385b68909f,,,,,,,,,,,413.9778,414.9787,,,415.4798,415.7298,,164,164,,,,,,,,,,,,,,,,bars/047.png,bars/mask001.png,,,,,,,,,,,,0,1,,,,,,,4,4,5,3,,,,,,,,,,,414.9788,415.4797,415.7299,418.7512,space,3.0174,,418.7513,31,86,419.7527,419.7527,420.3872,space,0.6237,,0,35,35,35,1,15,70,,,,,,,,
,,5ed263aeba65480a03b6c31f,65af54b8ebaa6ae4e2c75634,2024-01-23_07h55.48.335,bars,2023.2.3,Win32,117.6470588,657b66ea316d21385b68909f,,,,,,,,,,,420.3876,421.3884,,,421.8893,422.1396,,50,50,,,,,,,,,,,,,,,,bars/024.png,bars/mask001.png,,,,,,,,,,,,0,2,,,,,,,2,2,3,2,,,,,,,,,,,421.3884,421.8893,422.1396,424.0092,space,1.8616,,424.0093,70,60,425.0107,425.0107,425.7788,space,0.754,,0,36,36,36,1,120,170,,,,,,,,
,,5ed263aeba65480a03b6c31f,65af54b8ebaa6ae4e2c75634,2024-01-23_07h55.48.335,bars,2023.2.3,Win32,117.6470588,657b66ea316d21385b68909f,,,,,,,,,,,425.7792,426.7801,,,427.2809,427.5312,,87,87,,,,,,,,,,,,,,,,bars/005.png,bars/mask005.png,,,,,,,,,,,,0,2,,,,,,,0,0,0,0,,,,,,,,,,,426.7801,427.2809,427.5312,429.4675,space,1.9308,,429.4675,77,53,430.469,430.469,431.1117,space,0.626,,0,37,37,37,1,10,140,,,,,,,,
,,5ed263aeba65480a03b6c31f,65af54b8ebaa6ae4e2c75634,2024-01-23_07h55.48.335,bars,2023.2.3,Win32,117.6470588,657b66ea316d21385b68909f,,,,,,,,,,,431.1122,432.1131,,,432.6139,432.8642,,41,221,,,,,,,,,,,,,,,,bars/015.png,bars/mask003.png,,,,,,,,,,,,0,2,,,,,,,2,2,2,2,,,,,,,,,,,432.1131,432.6139,432.8643,435.5851,space,2.7171,,435.5851,69,61,436.5868,436.5869,437.4297,space,0.827,,0,38,38,38,1,110,160,,,,,,,,
,,5ed263aeba65480a03b6c31f,65af54b8ebaa6ae4e2c75634,2024-01-23_07h55.48.335,bars,2023.2.3,Win32,117.6470588,657b66ea316d21385b68909f,,,,,,,,,,,437.43,438.4312,,,438.932,439.1825,,121,121,,,,,,,,,,,,,,,,bars/013.png,bars/mask001.png,,,,,,,,,,,,0,1,,,,,,,4,4,6,5,,,,,,,,,,,438.4312,438.9319,439.1825,442.1118,space,2.9214,,442.1118,46,69,443.1132,443.1132,443.3388,space,0.2091,,0,39,39,39,1,75,10,,,,,,,,
,,5ed263aeba65480a03b6c31f,65af54b8ebaa6ae4e2c75634,2024-01-23_07h55.48.335,bars,2023.2.3,Win32,117.6470588,657b66ea316d21385b68909f,,,,,,,,,,,443.3392,444.3401,,,444.8409,445.0912,,57,237,,,,,,,,,,,,,,,,bars/014.png,bars/mask000.png,,,,,,,,,,,,0,1,,,,,,,2,2,2,2,,,,,,,,,,,444.3401,444.8409,445.0913,448.2127,space,3.1131,,448.2129,23,57,449.2142,449.2142,450.1323,space,0.9,,0,40,40,40,1,80,0,,,,,,,,
,,5ed263aeba65480a03b6c31f,65af54b8ebaa6ae4e2c75634,2024-01-23_07h55.48.335,bars,2023.2.3,Win32,117.6470588,657b66ea316d21385b68909f,,,,,,,,,,,450.1328,451.1339,,,451.6346,451.8849,,142,322,,,,,,,,,,,,,,,,bars/030.png,bars/mask005.png,,,,,,,,,,,,2,1,,,,,,,4,4,2,2,,,,,,,,,,,451.1339,451.6346,451.8849,457.4602,space,5.5697,,457.4603,2,77,458.4616,458.4617,460.3646,space,1.8832,,0,41,41,41,1,140,65,,,,,,,,
,,5ed263aeba65480a03b6c31f,65af54b8ebaa6ae4e2c75634,2024-01-23_07h55.48.335,bars,2023.2.3,Win32,117.6470588,657b66ea316d21385b68909f,,,,,,,,,,,460.365,461.366,,,461.8668,462.1172,,133,133,,,,,,,,,,,,,,,,bars/013.png,bars/mask000.png,,,,,,,,,,,,0,2,,,,,,,2,6,1,7,,,,,,,,,,,461.3661,461.8668,462.1172,465.347,space,3.2257,,465.3471,58,57,466.3487,466.3487,470.8888,space,4.5238,,0,42,42,42,1,75,10,,,,,,,,
,,5ed263aeba65480a03b6c31f,65af54b8ebaa6ae4e2c75634,2024-01-23_07h55.48.335,bars,2023.2.3,Win32,117.6470588,657b66ea316d21385b68909f,,,,,,,,,,,470.8944,471.8905,,,472.3911,472.6415,,53,53,,,,,,,,,,,,,,,,bars/037.png,bars/mask008.png,,,,,,,,,,,,0,2,,,,,,,0,8,0,8,,,,,,,,,,,471.8905,472.3911,472.6415,475.4041,space,2.7591,,475.4041,83,52,476.4055,476.4056,477.1485,space,0.7278,,0,43,43,43,1,150,105,,,,,,,,
,,5ed263aeba65480a03b6c31f,65af54b8ebaa6ae4e2c75634,2024-01-23_07h55.48.335,bars,2023.2.3,Win32,117.6470588,657b66ea316d21385b68909f,,,,,,,,,,,477.1488,478.1499,,,478.6508,478.901,,36,216,,,,,,,,,,,,,,,,bars/032.png,bars/mask000.png,,,,,,,,,,,,2,2,,,,,,,0,6,1,5,,,,,,,,,,,478.1499,478.6508,478.9011,482.6152,space,3.7061,,482.6152,89,16,483.6166,483.6167,484.7268,space,1.0986,,0,44,44,44,1,125,20,,,,,,,,
,,5ed263aeba65480a03b6c31f,65af54b8ebaa6ae4e2c75634,2024-01-23_07h55.48.335,bars,2023.2.3,Win32,117.6470588,657b66ea316d21385b68909f,,,,,,,,,,,484.7272,485.728,,,486.2288,486.4792,,136,136,,,,,,,,,,,,,,,,bars/035.png,bars/mask003.png,,,,,,,,,,,,0,1,,,,,,,2,4,1,5,,,,,,,,,,,485.7281,486.2288,486.4792,491.0028,space,4.5155,,491.0029,39,76,492.0042,492.0043,492.7138,space,0.6906,,0,45,45,45,1,175,60,,,,,,,,
,,5ed263aeba65480a03b6c31f,65af54b8ebaa6ae4e2c75634,2024-01-23_07h55.48.335,bars,2023.2.3,Win32,117.6470588,657b66ea316d21385b68909f,,,,,,,,,,,492.7142,493.7155,,,494.216,494.4666,,51,51,,,,,,,,,,,,,,,,bars/035.png,bars/mask008.png,,,,,,,,,,,,2,2,,,,,,,4,2,3,3,,,,,,,,,,,493.7155,494.2159,494.4666,499.6327,space,5.1532,,499.6327,56,9,500.6282,500.6282,511.0667,space,10.4196,,0,46,46,46,1,175,60,,,,,,,,
,,5ed263aeba65480a03b6c31f,65af54b8ebaa6ae4e2c75634,2024-01-23_07h55.48.335,bars,2023.2.3,Win32,117.6470588,657b66ea316d21385b68909f,,,,,,,,,,,511.0728,512.0683,,,512.5691,512.8196,,84,84,,,,,,,,,,,,,,,,bars/028.png,bars/mask006.png,,,,,,,,,,,,0,2,,,,,,,6,4,7,4,,,,,,,,,,,512.0684,512.5691,512.8196,517.802,space,4.9668,,517.802,39,36,518.8034,518.8035,519.9805,space,1.1604,,0,47,47,47,1,45,120,,,,,,,,
,,5ed263aeba65480a03b6c31f,65af54b8ebaa6ae4e2c75634,2024-01-23_07h55.48.335,bars,2023.2.3,Win32,117.6470588,657b66ea316d21385b68909f,,,,,,,,,,,519.9809,520.9818,,,521.4826,521.7328,,134,-46,,,,,,,,,,,,,,,,bars/029.png,bars/mask009.png,,,,,,,,,,,,0,1,,,,,,,4,2,4,2,,,,,,,,,,,520.9818,521.4826,521.7328,524.5709,space,2.8266,,524.571,44,89,525.5721,525.5722,526.7825,space,1.1912,,0,48,48,48,1,90,45,,,,,,,,
,,5ed263aeba65480a03b6c31f,65af54b8ebaa6ae4e2c75634,2024-01-23_07h55.48.335,bars,2023.2.3,Win32,117.6470588,657b66ea316d21385b68909f,,,,,,,,,,,526.7828,527.7838,,,528.2845,528.535,,48,48,,,,,,,,,,,,,,,,bars/015.png,bars/mask008.png,,,,,,,,,,,,0,1,,,,,,,6,4,6,5,,,,,,,,,,,527.7839,528.2845,528.5351,532.1404,space,3.59,,532.1404,62,68,533.1419,533.142,533.6931,space,0.5352,,0,49,49,49,1,110,160,,,,,,,,
,,5ed263aeba65480a03b6c31f,65af54b8ebaa6ae4e2c75634,2024-01-23_07h55.48.335,bars,2023.2.3,Win32,117.6470588,657b66ea316d21385b68909f,,,,,,,,,,,,,,,,,,,,,,,,,,,,,,,,,,,,,,,,,,,,,,,,,,,,,,,,,,,,,,,,,,,,,,,,,,,,,,,,,,,,,,,,,,,,,533.6941,593.693,0,0,0,4,1,sequence_tables/blk048.csv
,,5ed263aeba65480a03b6c31f,65af54b8ebaa6ae4e2c75634,2024-01-23_07h55.48.335,bars,2023.2.3,Win32,117.6470588,657b66ea316d21385b68909f,,,,,,,,,,,1564.3729,1565.3704,,,1565.8712,1566.1218,,13,13,,,,,,,,,,,,,,,,bars/028.png,bars/mask008.png,,,,,,,,,,,,0,1,,,,,,,9,4,9,4,,,,,,593.6993,1564.369,space,970.6589,,1565.3704,1565.8712,1566.1218,1568.3168,space,2.1836,,1568.317,32,73,1569.318,1569.3181,1569.3251,,,,0,0,0,0,1,45,120,,,,,,,,
,,5ed263aeba65480a03b6c31f,65af54b8ebaa6ae4e2c75634,2024-01-23_07h55.48.335,bars,2023.2.3,Win32,117.6470588,657b66ea316d21385b68909f,,,,,,,,,,,1569.3253,1570.3195,,,1570.8203,1571.0707,,29,29,,,,,,,,,,,,,,,,bars/034.png,bars/mask000.png,,,,,,,,,,,,0,2,,,,,,,7,2,7,0,,,,,,,,,,,1570.3196,1570.8202,1571.0707,1576.4372,space,5.3617,,1576.4372,84,36,1577.4386,1577.4386,1577.4468,,,,0,1,1,1,1,125,65,,,,,,,,
,,5ed263aeba65480a03b6c31f,65af54b8ebaa6ae4e2c75634,2024-01-23_07h55.48.335,bars,2023.2.3,Win32,117.6470588,657b66ea316d21385b68909f,,,,,,,,,,,1577.447,1578.4485,,,1578.9493,1579.1997,,177,177,,,,,,,,,,,,,,,,bars/012.png,bars/mask005.png,,,,,,,,,,,,0,2,,,,,,,9,0,8,1,,,,,,,,,,,1578.4485,1578.9493,1579.1997,1580.3264,space,1.1208,,1580.3265,87,18,1581.3279,1581.3279,1581.3287,,,,0,2,2,2,1,90,15,,,,,,,,
,,5ed263aeba65480a03b6c31f,65af54b8ebaa6ae4e2c75634,2024-01-23_07h55.48.335,bars,2023.2.3,Win32,117.6470588,657b66ea316d21385b68909f,,,,,,,,,,,1581.3288,1582.3293,,,1582.8301,1583.0806,,0,0,,,,,,,,,,,,,,,,bars/018.png,bars/mask003.png,,,,,,,,,,,,0,1,,,,,,,7,2,8,2,,,,,,,,,,,1582.3294,1582.8301,1583.0806,1586.4207,space,3.3309,,1586.4207,30,90,1587.4206,1587.4206,1587.4286,,,,0,3,3,3,1,150,90,,,,,,,,
,,5ed263aeba65480a03b6c31f,65af54b8ebaa6ae4e2c75634,2024-01-23_07h55.48.335,bars,2023.2.3,Win32,117.6470588,657b66ea316d21385b68909f,,,,,,,,,,,1587.4287,1588.425,,,1588.9256,1589.1733,,69,69,,,,,,,,,,,,,,,,bars/003.png,bars/mask005.png,,,,,,,,,,,,0,1,,,,,,,9,4,9,4,,,,,,,,,,,1588.425,1588.9256,1589.1734,1589.9664,space,0.7768,,1589.9665,44,71,1590.9676,1590.9677,1590.969,,,,0,4,4,4,1,25,140,,,,,,,,
,,5ed263aeba65480a03b6c31f,65af54b8ebaa6ae4e2c75634,2024-01-23_07h55.48.335,bars,2023.2.3,Win32,117.6470588,657b66ea316d21385b68909f,,,,,,,,,,,1590.9692,1591.9691,,,1592.4698,1592.7156,,122,-58,,,,,,,,,,,,,,,,bars/037.png,bars/mask007.png,,,,,,,,,,,,3,2,,,,,,,10,6,10,6,,,,,,,,,,,1591.9692,1592.4698,1592.7157,1596.209,space,3.4813,,1596.2091,28,17,1597.2106,1597.2106,1597.2184,,,,0,5,5,5,1,150,105,,,,,,,,
,,5ed263aeba65480a03b6c31f,65af54b8ebaa6ae4e2c75634,2024-01-23_07h55.48.335,bars,2023.2.3,Win32,117.6470588,657b66ea316d21385b68909f,,,,,,,,,,,1597.2186,1598.2204,,,1598.7157,1598.9633,,63,63,,,,,,,,,,,,,,,,bars/022.png,bars/mask005.png,,,,,,,,,,,,0,1,,,,,,,8,4,9,6,,,,,,,,,,,1598.2205,1598.7156,1598.9633,1599.8231,space,0.8484,,1599.8231,32,43,1600.8246,1600.8246,1600.8269,,,,0,6,6,6,1,95,20,,,,,,,,
,,5ed263aeba65480a03b6c31f,65af54b8ebaa6ae4e2c75634,2024-01-23_07h55.48.335,bars,2023.2.3,Win32,117.6470588,657b66ea316d21385b68909f,,,,,,,,,,,1600.827,1601.8258,,,1602.3267,1602.577,,175,-5,,,,,,,,,,,,,,,,bars/020.png,bars/mask002.png,,,,,,,,,,,,2,2,,,,,,,10,2,10,2,,,,,,,,,,,1601.8258,1602.3266,1602.577,1606.0574,space,3.4654,,1606.0575,60,5,1607.059,1607.059,1607.0664,,,,0,7,7,7,1,115,170,,,,,,,,
,,5ed263aeba65480a03b6c31f,65af54b8ebaa6ae4e2c75634,2024-01-23_07h55.48.335,bars,2023.2.3,Win32,117.6470588,657b66ea316d21385b68909f,,,,,,,,,,,1607.0665,1608.0604,,,1608.5611,1608.8114,,15,195,,,,,,,,,,,,,,,,bars/043.png,bars/mask006.png,,,,,,,,,,,,5,1,,,,,,,10,4,10,4,,,,,,,,,,,1608.0604,1608.5611,1608.8115,1612.4671,space,3.6411,,1612.4672,15,65,1613.4687,1613.4687,1613.4767,,,,0,8,8,8,1,30,130,,,,,,,,
,,5ed263aeba65480a03b6c31f,65af54b8ebaa6ae4e2c75634,2024-01-23_07h55.48.335,bars,2023.2.3,Win32,117.6470588,657b66ea316d21385b68909f,,,,,,,,,,,1613.4769,1614.4784,,,1614.9794,1615.2297,,66,66,,,,,,,,,,,,,,,,bars/039.png,bars/mask001.png,,,,,,,,,,,,0,2,,,,,,,8,6,6,5,,,,,,,,,,,1614.4784,1614.9792,1615.2297,1617.2827,space,2.0385,,1617.2828,71,39,1618.2842,1618.2842,1618.2869,,,,0,9,9,9,1,175,105,,,,,,,,
,,5ed263aeba65480a03b6c31f,65af54b8ebaa6ae4e2c75634,2024-01-23_07h55.48.335,bars,2023.2.3,Win32,117.6470588,657b66ea316d21385b68909f,,,,,,,,,,,1618.287,1619.2856,,,1619.7866,1620.0369,,9,189,,,,,,,,,,,,,,,,bars/022.png,bars/mask004.png,,,,,,,,,,,,3,2,,,,,,,6,4,6,5,,,,,,,,,,,1619.2856,1619.7865,1620.037,1623.0699,space,3.0218,,1623.07,86,11,1624.068,1624.0681,1624.075,,,,0,10,10,10,1,95,20,,,,,,,,
,,5ed263aeba65480a03b6c31f,65af54b8ebaa6ae4e2c75634,2024-01-23_07h55.48.335,bars,2023.2.3,Win32,117.6470588,657b66ea316d21385b68909f,,,,,,,,,,,1624.0752,1625.0695,,,1625.5706,1625.8207,,72,72,,,,,,,,,,,,,,,,bars/007.png,bars/mask006.png,,,,,,,,,,,,1,2,,,,,,,4,2,3,2,,,,,,,,,,,1625.0695,1625.5704,1625.8207,1628.2163,space,2.3839,,1628.2163,77,17,1629.2177,1629.2177,1629.2246,,,,0,11,11,11,1,175,55,,,,,,,,
,,5ed263aeba65480a03b6c31f,65af54b8ebaa6ae4e2c75634,2024-01-23_07h55.48.335,bars,2023.2.3,Win32,117.6470588,657b66ea316d21385b68909f,,,,,,,,,,,1629.2248,1630.2194,,,1630.7141,1630.9622,,132,-48,,,,,,,,,,,,,,,,bars/043.png,bars/mask005.png,,,,,,,,,,,,2,2,,,,,,,2,0,3,2,,,,,,,,,,,1630.2194,1630.7141,1630.9622,1633.3407,space,2.3624,,1633.3408,78,2,1634.3419,1634.342,1634.349,,,,0,12,12,12,1,30,130,,,,,,,,
,,5ed263aeba65480a03b6c31f,65af54b8ebaa6ae4e2c75634,2024-01-23_07h55.48.335,bars,2023.2.3,Win32,117.6470588,657b66ea316d21385b68909f,,,,,,,,,,,1634.3491,1635.3434,,,1635.8443,1636.0946,,23,23,,,,,,,,,,,,,,,,bars/039.png,bars/mask007.png,,,,,,,,,,,,0,1,,,,,,,4,0,4,0,,,,,,,,,,,1635.3435,1635.8442,1636.0946,1638.8239,space,2.7127,,1638.8239,28,82,1639.8254,1639.8254,1639.8332,,,,0,13,13,13,1,175,105,,,,,,,,
,,5ed263aeba65480a03b6c31f,65af54b8ebaa6ae4e2c75634,2024-01-23_07h55.48.335,bars,2023.2.3,Win32,117.6470588,657b66ea316d21385b68909f,,,,,,,,,,,1639.8334,1640.8353,,,1641.336,1641.5866,,153,153,,,,,,,,,,,,,,,,bars/004.png,bars/mask009.png,,,,,,,,,,,,0,2,,,,,,,6,2,5,2,,,,,,,,,,,1640.8354,1641.336,1641.5866,1642.5713,space,0.9719,,1642.5713,52,28,1643.5727,1643.5727,1643.5746,,,,0,14,14,14,1,25,125,,,,,,,,
,,5ed263aeba65480a03b6c31f,65af54b8ebaa6ae4e2c75634,2024-01-23_07h55.48.335,bars,2023.2.3,Win32,117.6470588,657b66ea316d21385b68909f,,,,,,,,,,,1643.5748,1644.5745,,,1645.0752,1645.3255,,42,42,,,,,,,,,,,,,,,,bars/049.png,bars/mask004.png,,,,,,,,,,,,0,1,,,,,,,8,4,10,6,,,,,,,,,,,1644.5745,1645.0752,1645.3255,1647.6625,space,2.3204,,1647.6626,62,73,1648.6637,1648.6638,1648.6663,,,,0,15,15,15,1,160,115,,,,,,,,
,,5ed263aeba65480a03b6c31f,65af54b8ebaa6ae4e2c75634,2024-01-23_07h55.48.335,bars,2023.2.3,Win32,117.6470588,657b66ea316d21385b68909f,,,,,,,,,,,1648.6665,1649.6655,,,1650.1664,1650.4164,,14,14,,,,,,,,,,,,,,,,bars/034.png,bars/mask002.png,,,,,,,,,,,,0,2,,,,,,,10,6,10,7,,,,,,,,,,,1649.6655,1650.1663,1650.4166,1653.6715,space,3.2389,,1653.6716,69,51,1654.6732,1654.6732,1654.6806,,,,0,16,16,16,1,125,65,,,,,,,,
,,5ed263aeba65480a03b6c31f,65af54b8ebaa6ae4e2c75634,2024-01-23_07h55.48.335,bars,2023.2.3,Win32,117.6470588,657b66ea316d21385b68909f,,,,,,,,,,,1654.6806,1655.6828,,,1656.1837,1656.434,,106,106,,,,,,,,,,,,,,,,bars/011.png,bars/mask000.png,,,,,,,,,,,,2,2,,,,,,,8,4,8,5,,,,,,,,,,,1655.6829,1656.1836,1656.4342,1657.9281,space,1.4803,,1657.9281,54,21,1658.9294,1658.9295,1658.9364,,,,0,17,17,17,1,160,85,,,,,,,,
,,5ed263aeba65480a03b6c31f,65af54b8ebaa6ae4e2c75634,2024-01-23_07h55.48.335,bars,2023.2.3,Win32,117.6470588,657b66ea316d21385b68909f,,,,,,,,,,,1658.9366,1659.931,,,1660.4318,1660.6846,,92,92,,,,,,,,,,,,,,,,bars/012.png,bars/mask004.png,,,,,,,,,,,,5,1,,,,,,,6,6,5,6,,,,,,,,,,,1659.931,1660.4317,1660.6846,1664.1876,space,3.4927,,1664.1877,2,77,1665.1835,1665.1835,1665.1904,,,,0,18,18,18,1,90,15,,,,,,,,
,,5ed263aeba65480a03b6c31f,65af54b8ebaa6ae4e2c75634,2024-01-23_07h55.48.335,bars,2023.2.3,Win32,117.6470588,657b66ea316d21385b68909f,,,,,,,,,,,1665.1905,1666.1904,,,1666.692,1666.9418,,8,188,,,,,,,,,,,,,,,,bars/007.png,bars/mask005.png,,,,,,,,,,,,5,1,,,,,,,8,8,8,8,,,,,,,,,,,1666.1904,1666.6919,1666.9419,1669.7294,space,2.7735,,1669.7294,13,47,1670.7308,1670.7308,1670.7373,,,,0,19,19,19,1,175,55,,,,,,,,
,,5ed263aeba65480a03b6c31f,65af54b8ebaa6ae4e2c75634,2024-01-23_07h55.48.335,bars,2023.2.3,Win32,117.6470588,657b66ea316d21385b68909f,,,,,,,,,,,1670.7373,1671.7341,,,1672.2331,1672.4834,,114,114,,,,,,,,,,,,,,,,bars/037.png,bars/mask004.png,,,,,,,,,,,,4,2,,,,,,,10,6,10,5,,,,,,,,,,,1671.7341,1672.233,1672.4834,1675.705,space,3.2052,,1675.7051,36,9,1676.7018,1676.7019,1676.71,,,,0,20,20,20,1,150,105,,,,,,,,
,,5ed263aeba65480a03b6c31f,65af54b8ebaa6ae4e2c75634,2024-01-23_07h55.48.335,bars,2023.2.3,Win32,117.6470588,657b66ea316d21385b68909f,,,,,,,,,,,1676.7101,1677.708,,,1678.209,1678.4592,,63,63,,,,,,,,,,,,,,,,bars/030.png,bars/mask003.png,,,,,,,,,,,,7,2,,,,,,,8,8,8,8,,,,,,,,,,,1677.708,1678.2089,1678.4593,1681.2552,space,2.7922,,1681.2552,77,2,1682.2566,1682.2566,1682.2632,,,,0,21,21,21,1,140,65,,,,,,,,
,,5ed263aeba65480a03b6c31f,65af54b8ebaa6ae4e2c75634,2024-01-23_07h55.48.335,bars,2023.2.3,Win32,117.6470588,657b66ea316d21385b68909f,,,,,,,,,,,1682.2633,1683.2582,,,1683.7589,1684.0094,,5,185,,,,,,,,,,,,,,,,bars/010.png,bars/mask000.png,,,,,,,,,,,,1,1,,,,,,,6,10,4,10,,,,,,,,,,,1683.2583,1683.7589,1684.0094,1686.897,space,2.8718,,1686.897,20,50,1687.8986,1687.8987,1687.9067,,,,0,22,22,22,1,165,55,,,,,,,,
,,5ed263aeba65480a03b6c31f,65af54b8ebaa6ae4e2c75634,2024-01-23_07h55.48.335,bars,2023.2.3,Win32,117.6470588,657b66ea316d21385b68909f,,,,,,,,,,,1687.9069,1688.9083,,,1689.4092,1689.6596,,118,298,,,,,,,,,,,,,,,,bars/033.png,bars/mask008.png,,,,,,,,,,,,0,2,,,,,,,4,10,4,9,,,,,,,,,,,1688.9083,1689.4092,1689.6597,1694.5004,space,4.8272,,1694.5005,87,37,1695.5018,1695.5018,1695.5099,,,,0,23,23,23,1,25,155,,,,,,,,
,,5ed263aeba65480a03b6c31f,65af54b8ebaa6ae4e2c75634,2024-01-23_07h55.48.335,bars,2023.2.3,Win32,117.6470588,657b66ea316d21385b68909f,,,,,,,,,,,1695.5101,1696.5119,,,1697.0125,1697.2627,,130,130,,,,,,,,,,,,,,,,bars/046.png,bars/mask002.png,,,,,,,,,,,,1,1,,,,,,,6,8,7,8,,,,,,,,,,,1696.5119,1697.0124,1697.2627,1699.2578,space,1.9787,,1699.2579,25,45,1700.259,1700.259,1700.2607,,,,0,24,24,24,1,155,85,,,,,,,,
,,5ed263aeba65480a03b6c31f,65af54b8ebaa6ae4e2c75634,2024-01-23_07h55.48.335,bars,2023.2.3,Win32,117.6470588,657b66ea316d21385b68909f,,,,,,,,,,,1700.2609,1701.2606,,,1701.7638,1702.0118,,166,166,,,,,,,,,,,,,,,,bars/045.png,bars/mask000.png,,,,,,,,,,,,1,2,,,,,,,8,6,9,4,,,,,,,,,,,1701.2606,1701.7638,1702.0119,1704.958,space,2.9313,,1704.9581,66,24,1705.9594,1705.9595,1705.9671,,,,0,25,25,25,1,100,10,,,,,,,,
,,5ed263aeba65480a03b6c31f,65af54b8ebaa6ae4e2c75634,2024-01-23_07h55.48.335,bars,2023.2.3,Win32,117.6470588,657b66ea316d21385b68909f,,,,,,,,,,,1705.9673,1706.9693,,,1707.4699,1707.7205,,33,213,,,,,,,,,,,,,,,,bars/022.png,bars/mask008.png,,,,,,,,,,,,3,2,,,,,,,10,4,10,5,,,,,,,,,,,1706.9694,1707.4699,1707.7206,1713.4461,space,5.7099,,1713.4461,62,13,1714.4474,1714.4476,1714.4542,,,,0,26,26,26,1,95,20,,,,,,,,
,,5ed263aeba65480a03b6c31f,65af54b8ebaa6ae4e2c75634,2024-01-23_07h55.48.335,bars,2023.2.3,Win32,117.6470588,657b66ea316d21385b68909f,,,,,,,,,,,1714.4544,1715.4487,,,1715.9497,1716.2003,,6,6,,,,,,,,,,,,,,,,bars/031.png,bars/mask006.png,,,,,,,,,,,,0,2,,,,,,,8,6,9,5,,,,,,,,,,,1715.4488,1715.9496,1716.2004,1721.6836,space,5.4681,,1721.6836,66,29,1722.6848,1722.6849,1722.6918,,,,0,27,27,27,1,120,35,,,,,,,,
,,5ed263aeba65480a03b6c31f,65af54b8ebaa6ae4e2c75634,2024-01-23_07h55.48.335,bars,2023.2.3,Win32,117.6470588,657b66ea316d21385b68909f,,,,,,,,,,,1722.6921,1723.6864,,,1724.1872,1724.4377,,6,6,,,,,,,,,,,,,,,,bars/038.png,bars/mask009.png,,,,,,,,,,,,3,1,,,,,,,10,8,10,10,,,,,,,,,,,1723.6865,1724.1871,1724.4377,1746.8552,space,22.4017,,1746.8552,21,64,1747.8564,1747.8564,1747.8656,,,,0,28,28,28,1,165,70,,,,,,,,
,,5ed263aeba65480a03b6c31f,65af54b8ebaa6ae4e2c75634,2024-01-23_07h55.48.335,bars,2023.2.3,Win32,117.6470588,657b66ea316d21385b68909f,,,,,,,,,,,1747.866,1748.8665,,,1749.3671,1749.6177,,106,106,,,,,,,,,,,,,,,,bars/036.png,bars/mask003.png,,,,,,,,,,,,0,1,,,,,,,8,6,10,6,,,,,,,,,,,1748.8665,1749.3671,1749.6178,1752.2968,space,2.6639,,1752.2969,39,86,1753.2982,1753.2982,1753.305,,,,0,29,29,29,1,145,20,,,,,,,,
,,5ed263aeba65480a03b6c31f,65af54b8ebaa6ae4e2c75634,2024-01-23_07h55.48.335,bars,2023.2.3,Win32,117.6470588,657b66ea316d21385b68909f,,,,,,,,,,,1753.3051,1754.2997,,,1754.8006,1755.0507,,17,17,,,,,,,,,,,,,,,,bars/008.png,bars/mask001.png,,,,,,,,,,,,4,2,,,,,,,6,8,7,9,,,,,,,,,,,1754.2998,1754.8006,1755.0508,1758.9485,space,3.883,,1758.9485,87,17,1759.95,1759.95,1759.958,,,,0,30,30,30,1,110,0,,,,,,,,
,,5ed263aeba65480a03b6c31f,65af54b8ebaa6ae4e2c75634,2024-01-23_07h55.48.335,bars,2023.2.3,Win32,117.6470588,657b66ea316d21385b68909f,,,,,,,,,,,1759.9582,1760.954,,,1761.4521,1761.7027,,150,-30,,,,,,,,,,,,,,,,bars/012.png,bars/mask001.png,,,,,,,,,,,,0,2,,,,,,,4,6,3,6,,,,,,,,,,,1760.954,1761.4521,1761.7027,1767.3362,space,5.6183,,1767.3363,60,45,1768.3375,1768.3377,1768.3457,,,,0,31,31,31,1,90,15,,,,,,,,
,,5ed263aeba65480a03b6c31f,65af54b8ebaa6ae4e2c75634,2024-01-23_07h55.48.335,bars,2023.2.3,Win32,117.6470588,657b66ea316d21385b68909f,,,,,,,,,,,1768.3458,1769.3474,,,1769.8483,1770.0986,,131,131,,,,,,,,,,,,,,,,bars/043.png,bars/mask001.png,,,,,,,,,,,,3,2,,,,,,,6,4,5,3,,,,,,,,,,,1769.3475,1769.8483,1770.0987,1772.945,space,2.8321,,1772.9451,79,1,1773.9461,1773.9461,1773.9537,,,,0,32,32,32,1,30,130,,,,,,,,
,,5ed263aeba65480a03b6c31f,65af54b8ebaa6ae4e2c75634,2024-01-23_07h55.48.335,bars,2023.2.3,Win32,117.6470588,657b66ea316d21385b68909f,,,,,,,,,,,1773.9538,1774.9562,,,1775.4511,1775.6989,,36,36,,,,,,,,,,,,,,,,bars/016.png,bars/mask003.png,,,,,,,,,,,,9,1,,,,,,,8,2,10,2,,,,,,,,,,,1774.9563,1775.451,1775.6989,1778.4865,space,2.772,,1778.4867,4,51,1779.4902,1779.4902,1779.4979,,,,0,33,33,33,1,40,165,,,,,,,,
,,5ed263aeba65480a03b6c31f,65af54b8ebaa6ae4e2c75634,2024-01-23_07h55.48.335,bars,2023.2.3,Win32,117.6470588,657b66ea316d21385b68909f,,,,,,,,,,,1779.4979,1780.4978,,,1780.9988,1781.249,,11,11,,,,,,,,,,,,,,,,bars/004.png,bars/mask004.png,,,,,,,,,,,,3,1,,,,,,,6,0,6,0,,,,,,,,,,,1780.4978,1780.9986,1781.2491,1784.7295,space,3.4676,,1784.7295,14,66,1785.7307,1785.7308,1785.7375,,,,0,34,34,34,1,25,125,,,,,,,,
,,5ed263aeba65480a03b6c31f,65af54b8ebaa6ae4e2c75634,2024-01-23_07h55.48.335,bars,2023.2.3,Win32,117.6470588,657b66ea316d21385b68909f,,,,,,,,,,,1785.7376,1786.7324,,,1787.2332,1787.4837,,75,75,,,,,,,,,,,,,,,,bars/006.png,bars/mask000.png,,,,,,,,,,,,0,2,,,,,,,4,0,1,0,,,,,,,,,,,1786.7325,1787.2331,1787.4837,1790.9307,space,3.4333,,1790.9307,40,25,1791.932,1791.932,1791.9396,,,,0,35,35,35,1,35,100,,,,,,,,
,,5ed263aeba65480a03b6c31f,65af54b8ebaa6ae4e2c75634,2024-01-23_07h55.48.335,bars,2023.2.3,Win32,117.6470588,657b66ea316d21385b68909f,,,,,,,,,,,1791.9398,1792.9419,,,1793.4426,1793.6932,,23,23,,,,,,,,,,,,,,,,bars/031.png,bars/mask001.png,,,,,,,,,,,,2,2,,,,,,,6,2,6,3,,,,,,,,,,,1792.942,1793.4425,1793.6932,1797.3988,space,3.6923,,1797.3988,83,12,1798.4001,1798.4002,1798.4071,,,,0,36,36,36,1,120,35,,,,,,,,
,,5ed263aeba65480a03b6c31f,65af54b8ebaa6ae4e2c75634,2024-01-23_07h55.48.335,bars,2023.2.3,Win32,117.6470588,657b66ea316d21385b68909f,,,,,,,,,,,1798.4074,1799.4016,,,1799.9024,1800.1554,,30,30,,,,,,,,,,,,,,,,bars/045.png,bars/mask001.png,,,,,,,,,,,,0,2,,,,,,,4,0,5,1,,,,,,,,,,,1799.4016,1799.9024,1800.1554,1803.8338,space,3.6654,,1803.8338,70,20,1804.8349,1804.8349,1804.8418,,,,0,37,37,37,1,100,10,,,,,,,,
,,5ed263aeba65480a03b6c31f,65af54b8ebaa6ae4e2c75634,2024-01-23_07h55.48.335,bars,2023.2.3,Win32,117.6470588,657b66ea316d21385b68909f,,,,,,,,,,,1804.842,1805.8363,,,1806.3373,1806.5879,,35,35,,,,,,,,,,,,,,,,bars/048.png,bars/mask001.png,,,,,,,,,,,,1,1,,,,,,,2,0,1,0,,,,,,,,,,,1805.8363,1806.3372,1806.5879,1812.747,space,6.1431,,1812.7471,15,40,1813.7485,1813.7485,1813.7553,,,,0,38,38,38,1,50,175,,,,,,,,
,,5ed263aeba65480a03b6c31f,65af54b8ebaa6ae4e2c75634,2024-01-23_07h55.48.335,bars,2023.2.3,Win32,117.6470588,657b66ea316d21385b68909f,,,,,,,,,,,1813.7555,1814.75,,,1815.2509,1815.5011,,98,-82,,,,,,,,,,,,,,,,bars/017.png,bars/mask004.png,,,,,,,,,,,,0,1,,,,,,,0,2,0,2,,,,,,,,,,,1814.75,1815.2508,1815.5011,1819.1567,space,3.6416,,1819.1567,47,53,1820.1585,1820.1586,1820.165,,,,0,39,39,39,1,145,45,,,,,,,,
,,5ed263aeba65480a03b6c31f,65af54b8ebaa6ae4e2c75634,2024-01-23_07h55.48.335,bars,2023.2.3,Win32,117.6470588,657b66ea316d21385b68909f,,,,,,,,,,,1820.1651,1821.1597,,,1821.6606,1821.911,,144,-36,,,,,,,,,,,,,,,,bars/045.png,bars/mask002.png,,,,,,,,,,,,0,1,,,,,,,0,0,1,2,,,,,,,,,,,1821.1597,1821.6605,1821.911,1824.5984,space,2.6735,,1824.5985,44,46,1825.5997,1825.5999,1825.6062,,,,0,40,40,40,1,100,10,,,,,,,,
,,5ed263aeba65480a03b6c31f,65af54b8ebaa6ae4e2c75634,2024-01-23_07h55.48.335,bars,2023.2.3,Win32,117.6470588,657b66ea316d21385b68909f,,,,,,,,,,,1825.6063,1826.6016,,,1827.1024,1827.3525,,150,150,,,,,,,,,,,,,,,,bars/023.png,bars/mask009.png,,,,,,,,,,,,0,2,,,,,,,0,0,0,0,,,,,,,,,,,1826.6017,1827.1022,1827.3525,1832.3267,space,4.9581,,1832.3267,50,35,1833.3283,1833.3283,1833.3357,,,,0,41,41,41,1,20,115,,,,,,,,
,,5ed263aeba65480a03b6c31f,65af54b8ebaa6ae4e2c75634,2024-01-23_07h55.48.335,bars,2023.2.3,Win32,117.6470588,657b66ea316d21385b68909f,,,,,,,,,,,1833.336,1834.3298,,,1834.8308,1835.0809,,67,67,,,,,,,,,,,,,,,,bars/014.png,bars/mask005.png,,,,,,,,,,,,1,1,,,,,,,2,0,1,1,,,,,,,,,,,1834.3298,1834.8308,1835.0809,1837.8769,space,2.7806,,1837.877,13,67,1838.8785,1838.8786,1838.8865,,,,0,42,42,42,1,80,0,,,,,,,,
,,5ed263aeba65480a03b6c31f,65af54b8ebaa6ae4e2c75634,2024-01-23_07h55.48.335,bars,2023.2.3,Win32,117.6470588,657b66ea316d21385b68909f,,,,,,,,,,,1838.8866,1839.8882,,,1840.3891,1840.6394,,115,115,,,,,,,,,,,,,,,,bars/014.png,bars/mask003.png,,,,,,,,,,,,0,1,,,,,,,0,0,0,0,,,,,,,,,,,1839.8882,1840.389,1840.6394,1842.7426,space,2.0918,,1842.7426,35,65,1843.7442,1843.7442,1843.7452,,,,0,43,43,43,1,80,0,,,,,,,,
,,5ed263aeba65480a03b6c31f,65af54b8ebaa6ae4e2c75634,2024-01-23_07h55.48.335,bars,2023.2.3,Win32,117.6470588,657b66ea316d21385b68909f,,,,,,,,,,,1843.7454,1844.7458,,,1845.2465,1845.4968,,154,-26,,,,,,,,,,,,,,,,bars/023.png,bars/mask006.png,,,,,,,,,,,,0,2,,,,,,,2,0,2,1,,,,,,,,,,,1844.7458,1845.2464,1845.4968,1847.6167,space,2.1073,,1847.6169,46,39,1848.6183,1848.6184,1848.6259,,,,0,44,44,44,1,20,115,,,,,,,,
,,5ed263aeba65480a03b6c31f,65af54b8ebaa6ae4e2c75634,2024-01-23_07h55.48.335,bars,2023.2.3,Win32,117.6470588,657b66ea316d21385b68909f,,,,,,,,,,,1848.6262,1849.6281,,,1850.1289,1850.3792,,67,247,,,,,,,,,,,,,,,,bars/007.png,bars/mask008.png,,,,,,,,,,,,1,2,,,,,,,4,2,4,2,,,,,,,,,,,1849.6282,1850.1288,1850.3793,1854.8529,space,4.4607,,1854.8529,72,12,1855.8541,1855.8542,1855.8604,,,,0,45,45,45,1,175,55,,,,,,,,
,,5ed263aeba65480a03b6c31f,65af54b8ebaa6ae4e2c75634,2024-01-23_07h55.48.335,bars,2023.2.3,Win32,117.6470588,657b66ea316d21385b68909f,,,,,,,,,,,1855.8605,1856.8558,,,1857.3565,1857.6069,,98,98,,,,,,,,,,,,,,,,bars/021.png,bars/mask002.png,,,,,,,,,,,,0,2,,,,,,,2,4,2,4,,,,,,,,,,,1856.8559,1857.3565,1857.607,1859.3345,space,1.7156,,1859.3346,57,28,1860.3361,1860.3362,1860.3415,,,,0,46,46,46,1,155,70,,,,,,,,
,,5ed263aeba65480a03b6c31f,65af54b8ebaa6ae4e2c75634,2024-01-23_07h55.48.335,bars,2023.2.3,Win32,117.6470588,657b66ea316d21385b68909f,,,,,,,,,,,1860.3416,1861.3376,,,1861.8388,1862.6184,,65,65,,,,,,,,,,,,,,,,bars/044.png,bars/mask008.png,,,,,,,,,,,,3,1,,,,,,,4,2,4,2,,,,,,,,,,,1861.3376,1861.8387,1862.6184,1866.2064,space,3.5814,,1866.2064,10,90,1867.2049,1867.205,1867.2127,,,,0,47,47,47,1,75,155,,,,,,,,
,,5ed263aeba65480a03b6c31f,65af54b8ebaa6ae4e2c75634,2024-01-23_07h55.48.335,bars,2023.2.3,Win32,117.6470588,657b66ea316d21385b68909f,,,,,,,,,,,1867.2128,1868.2147,,,1868.7103,1868.9575,,178,-2,,,,,,,,,,,,,,,,bars/023.png,bars/mask008.png,,,,,,,,,,,,1,1,,,,,,,6,0,5,0,,,,,,,,,,,1868.2147,1868.7102,1868.9575,1873.0891,space,4.1204,,1873.0892,22,63,1874.0903,1874.0903,1874.0961,,,,0,48,48,48,1,20,115,,,,,,,,
,,5ed263aeba65480a03b6c31f,65af54b8ebaa6ae4e2c75634,2024-01-23_07h55.48.335,bars,2023.2.3,Win32,117.6470588,657b66ea316d21385b68909f,,,,,,,,,,,1874.0962,1875.0947,,,1875.5953,1875.8458,,45,225,,,,,,,,,,,,,,,,bars/046.png,bars/mask007.png,,,,,,,,,,,,0,2,,,,,,,4,0,6,0,,,,,,,,,,,1875.0947,1875.5953,1875.8458,1880.7867,space,4.9326,,1880.7868,70,40,1881.7879,1881.788,1881.7944,,,,0,49,49,49,1,155,85,,,,,,,,
,,5ed263aeba65480a03b6c31f,65af54b8ebaa6ae4e2c75634,2024-01-23_07h55.48.335,bars,2023.2.3,Win32,117.6470588,657b66ea316d21385b68909f,,,,,,,,,,,,,,,,,,,,,,,,,,,,,,,,,,,,,,,,,,,,,,,,,,,,,,,,,,,,,,,,,,,,,,,,,,,,,,,,,,,,,,,,,,,,,1881.7946,1941.7963,0,1,1,0,1,sequence_tables/blk027.csv
,,5ed263aeba65480a03b6c31f,65af54b8ebaa6ae4e2c75634,2024-01-23_07h55.48.335,bars,2023.2.3,Win32,117.6470588,657b66ea316d21385b68909f,,,,,,,,,,,1961.6417,1962.6334,,,1963.1344,1963.3846,,30,210,,,,,,,,,,,,,,,,bars/041.png,bars/mask001.png,,,,,,,,,,,,3,1,,,,,,,4,2,4,1,,,,,,1941.8035,1961.6322,space,19.8191,,1962.6335,1963.1342,1963.3847,1967.7913,space,4.3905,,1967.7915,10,55,1968.7928,1968.7928,1968.7994,,,,0,0,0,0,1,20,85,,,,,,,,
,,5ed263aeba65480a03b6c31f,65af54b8ebaa6ae4e2c75634,2024-01-23_07h55.48.335,bars,2023.2.3,Win32,117.6470588,657b66ea316d21385b68909f,,,,,,,,,,,1968.7996,1969.7943,,,1970.2952,1970.5455,,136,136,,,,,,,,,,,,,,,,bars/029.png,bars/mask005.png,,,,,,,,,,,,0,1,,,,,,,2,4,3,3,,,,,,,,,,,1969.7943,1970.2952,1970.5457,1973.4667,space,2.905,,1973.4667,46,89,1974.4683,1974.4683,1974.4751,,,,0,1,1,1,1,90,45,,,,,,,,
,,5ed263aeba65480a03b6c31f,65af54b8ebaa6ae4e2c75634,2024-01-23_07h55.48.335,bars,2023.2.3,Win32,117.6470588,657b66ea316d21385b68909f,,,,,,,,,,,1974.4752,1975.4697,,,1975.9705,1976.2208,,176,176,,,,,,,,,,,,,,,,bars/031.png,bars/mask005.png,,,,,,,,,,,,0,2,,,,,,,0,6,0,6,,,,,,,,,,,1975.4698,1975.9704,1976.2209,1981.1643,space,4.9326,,1981.1643,56,39,1982.1633,1982.1634,1982.1701,,,,0,2,2,2,1,120,35,,,,,,,,
,,5ed263aeba65480a03b6c31f,65af54b8ebaa6ae4e2c75634,2024-01-23_07h55.48.335,bars,2023.2.3,Win32,117.6470588,657b66ea316d21385b68909f,,,,,,,,,,,1982.1703,1983.1647,,,1983.6655,1983.9159,,157,157,,,,,,,,,,,,,,,,bars/035.png,bars/mask006.png,,,,,,,,,,,,0,1,,,,,,,2,4,0,5,,,,,,,,,,,1983.1647,1983.6655,1983.9159,1985.0119,space,1.0849,,1985.012,18,83,1986.0134,1986.0135,1986.0217,,,,0,3,3,3,1,175,60,,,,,,,,
,,5ed263aeba65480a03b6c31f,65af54b8ebaa6ae4e2c75634,2024-01-23_07h55.48.335,bars,2023.2.3,Win32,117.6470588,657b66ea316d21385b68909f,,,,,,,,,,,1986.0218,1987.0205,,,1987.5215,1987.7717,,58,58,,,,,,,,,,,,,,,,bars/036.png,bars/mask005.png,,,,,,,,,,,,0,2,,,,,,,0,2,0,3,,,,,,,,,,,1987.0206,1987.5214,1987.7717,1989.6329,space,1.8519,,1989.6329,87,38,1990.6345,1990.6346,1990.6425,,,,0,4,4,4,1,145,20,,,,,,,,
,,5ed263aeba65480a03b6c31f,65af54b8ebaa6ae4e2c75634,2024-01-23_07h55.48.335,bars,2023.2.3,Win32,117.6470588,657b66ea316d21385b68909f,,,,,,,,,,,1990.6427,1991.6444,,,1992.1451,1992.3954,,18,18,,,,,,,,,,,,,,,,bars/005.png,bars/mask008.png,,,,,,,,,,,,0,1,,,,,,,0,4,0,5,,,,,,,,,,,1991.6444,1992.145,1992.3955,1995.9428,space,3.5383,,1995.9428,8,58,1996.944,1996.944,1996.9516,,,,0,5,5,5,1,10,140,,,,,,,,
,,5ed263aeba65480a03b6c31f,65af54b8ebaa6ae4e2c75634,2024-01-23_07h55.48.335,bars,2023.2.3,Win32,117.6470588,657b66ea316d21385b68909f,,,,,,,,,,,1996.9517,1997.9456,,,1998.4463,1998.6972,,12,12,,,,,,,,,,,,,,,,bars/039.png,bars/mask008.png,,,,,,,,,,,,0,1,,,,,,,0,2,0,1,,,,,,,,,,,1997.9456,1998.4462,1998.6972,2001.1839,space,2.4809,,2001.184,17,87,2002.1855,2002.1855,2002.1925,,,,0,6,6,6,1,175,105,,,,,,,,
,,5ed263aeba65480a03b6c31f,65af54b8ebaa6ae4e2c75634,2024-01-23_07h55.48.335,bars,2023.2.3,Win32,117.6470588,657b66ea316d21385b68909f,,,,,,,,,,,2002.1926,2003.1867,,,2003.6878,2003.938,,135,-45,,,,,,,,,,,,,,,,bars/037.png,bars/mask009.png,,,,,,,,,,,,1,1,,,,,,,0,0,1,1,,,,,,,,,,,2003.1868,2003.6878,2003.938,2006.951,space,3.0075,,2006.951,15,30,2007.9524,2007.9524,2007.9593,,,,0,7,7,7,1,150,105,,,,,,,,
,,5ed263aeba65480a03b6c31f,65af54b8ebaa6ae4e2c75634,2024-01-23_07h55.48.335,bars,2023.2.3,Win32,117.6470588,657b66ea316d21385b68909f,,,,,,,,,,,2007.9594,2008.9539,,,2009.4548,2009.7053,,45,45,,,,,,,,,,,,,,,,bars/049.png,bars/mask001.png,,,,,,,,,,,,0,1,,,,,,,0,2,0,2,,,,,,,,,,,2008.9539,2009.4547,2009.7053,2010.2728,space,0.5587,,2010.2728,65,70,2011.2741,2011.2741,2011.2748,,,,0,8,8,8,1,160,115,,,,,,,,
,,5ed263aeba65480a03b6c31f,65af54b8ebaa6ae4e2c75634,2024-01-23_07h55.48.335,bars,2023.2.3,Win32,117.6470588,657b66ea316d21385b68909f,,,,,,,,,,,2011.275,2012.2758,,,2012.7765,2013.027,,173,-7,,,,,,,,,,,,,,,,bars/011.png,bars/mask003.png,,,,,,,,,,,,1,1,,,,,,,2,0,1,1,,,,,,,,,,,2012.2758,2012.7764,2013.0271,2016.9329,space,3.8998,,2016.9329,13,88,2017.9343,2017.9343,2017.9411,,,,0,9,9,9,1,160,85,,,,,,,,
,,5ed263aeba65480a03b6c31f,65af54b8ebaa6ae4e2c75634,2024-01-23_07h55.48.335,bars,2023.2.3,Win32,117.6470588,657b66ea316d21385b68909f,,,,,,,,,,,2017.9412,2018.9358,,,2019.4368,2019.687,,123,-57,,,,,,,,,,,,,,,,bars/040.png,bars/mask003.png,,,,,,,,,,,,0,1,,,,,,,0,0,0,0,,,,,,,,,,,2018.9358,2019.4367,2019.687,2022.3243,space,2.6341,,2022.3244,17,62,2023.3258,2023.3258,2023.332,,,,0,10,10,10,1,140,5,,,,,,,,
,,5ed263aeba65480a03b6c31f,65af54b8ebaa6ae4e2c75634,2024-01-23_07h55.48.335,bars,2023.2.3,Win32,117.6470588,657b66ea316d21385b68909f,,,,,,,,,,,2023.3322,2024.3274,,,2024.8282,2025.0785,,156,-24,,,,,,,,,,,,,,,,bars/033.png,bars/mask004.png,,,,,,,,,,,,3,2,,,,,,,2,2,3,3,,,,,,,,,,,2024.3274,2024.8282,2025.0785,2027.5073,space,2.4201,,2027.5073,49,1,2028.5087,2028.5087,2028.5169,,,,0,11,11,11,1,25,155,,,,,,,,
,,5ed263aeba65480a03b6c31f,65af54b8ebaa6ae4e2c75634,2024-01-23_07h55.48.335,bars,2023.2.3,Win32,117.6470588,657b66ea316d21385b68909f,,,,,,,,,,,2028.517,2029.5185,,,2030.0194,2030.2697,,145,-35,,,,,,,,,,,,,,,,bars/019.png,bars/mask001.png,,,,,,,,,,,,0,2,,,,,,,0,0,0,0,,,,,,,,,,,2029.5186,2030.0194,2030.2698,2034.3759,space,4.0991,,2034.376,80,40,2035.3775,2035.3776,2035.3844,,,,0,12,12,12,1,45,105,,,,,,,,
,,5ed263aeba65480a03b6c31f,65af54b8ebaa6ae4e2c75634,2024-01-23_07h55.48.335,bars,2023.2.3,Win32,117.6470588,657b66ea316d21385b68909f,,,,,,,,,,,2035.3845,2036.379,,,2036.8797,2037.1302,,49,49,,,,,,,,,,,,,,,,bars/019.png,bars/mask003.png,,,,,,,,,,,,0,1,,,,,,,0,2,0,0,,,,,,,,,,,2036.379,2036.8797,2037.1302,2038.8077,space,1.673,,2038.8077,4,56,2039.8093,2039.8093,2039.8162,,,,0,13,13,13,1,45,105,,,,,,,,
,,5ed263aeba65480a03b6c31f,65af54b8ebaa6ae4e2c75634,2024-01-23_07h55.48.335,bars,2023.2.3,Win32,117.6470588,657b66ea316d21385b68909f,,,,,,,,,,,2039.8163,2040.8107,,,2041.3118,2041.5619,,144,-36,,,,,,,,,,,,,,,,bars/019.png,bars/mask005.png,,,,,,,,,,,,0,2,,,,,,,0,4,0,4,,,,,,,,,,,2040.8107,2041.3117,2041.5619,2043.0811,space,1.5156,,2043.0811,81,39,2044.0826,2044.0826,2044.0909,,,,0,14,14,14,1,45,105,,,,,,,,
,,5ed263aeba65480a03b6c31f,65af54b8ebaa6ae4e2c75634,2024-01-23_07h55.48.335,bars,2023.2.3,Win32,117.6470588,657b66ea316d21385b68909f,,,,,,,,,,,2044.0911,2045.0923,,,2045.5932,2045.8435,,36,216,,,,,,,,,,,,,,,,bars/005.png,bars/mask002.png,,,,,,,,,,,,0,1,,,,,,,2,2,3,2,,,,,,,,,,,2045.0924,2045.5931,2045.8436,2048.6987,space,2.8434,,2048.6988,26,76,2049.6994,2049.6995,2049.7074,,,,0,15,15,15,1,10,140,,,,,,,,
,,5ed263aeba65480a03b6c31f,65af54b8ebaa6ae4e2c75634,2024-01-23_07h55.48.335,bars,2023.2.3,Win32,117.6470588,657b66ea316d21385b68909f,,,,,,,,,,,2049.7075,2050.7045,,,2051.2018,2051.452,,116,-64,,,,,,,,,,,,,,,,bars/022.png,bars/mask007.png,,,,,,,,,,,,0,1,,,,,,,0,0,0,0,,,,,,,,,,,2050.7045,2051.2017,2051.4521,2055.9759,space,4.5075,,2055.9759,21,84,2056.9771,2056.9771,2056.9832,,,,0,16,16,16,1,95,20,,,,,,,,
,,5ed263aeba65480a03b6c31f,65af54b8ebaa6ae4e2c75634,2024-01-23_07h55.48.335,bars,2023.2.3,Win32,117.6470588,657b66ea316d21385b68909f,,,,,,,,,,,2056.9833,2057.9785,,,2058.4794,2058.7299,,39,39,,,,,,,,,,,,,,,,bars/042.png,bars/mask003.png,,,,,,,,,,,,0,2,,,,,,,0,2,0,2,,,,,,,,,,,2057.9786,2058.4793,2058.7299,2061.7094,space,2.9644,,2061.7095,74,36,2062.7062,2062.7063,2062.714,,,,0,17,17,17,1,145,75,,,,,,,,
,,5ed263aeba65480a03b6c31f,65af54b8ebaa6ae4e2c75634,2024-01-23_07h55.48.335,bars,2023.2.3,Win32,117.6470588,657b66ea316d21385b68909f,,,,,,,,,,,2062.7141,2063.7124,,,2064.2133,2064.4637,,171,171,,,,,,,,,,,,,,,,bars/008.png,bars/mask007.png,,,,,,,,,,,,1,2,,,,,,,0,4,0,2,,,,,,,,,,,2063.7125,2064.2132,2064.4637,2073.0684,space,8.5973,,2073.0685,61,9,2074.0697,2074.0697,2074.0763,,,,0,18,18,18,1,110,0,,,,,,,,
,,5ed263aeba65480a03b6c31f,65af54b8ebaa6ae4e2c75634,2024-01-23_07h55.48.335,bars,2023.2.3,Win32,117.6470588,657b66ea316d21385b68909f,,,,,,,,,,,2074.0764,2075.0714,,,2075.5721,2075.8225,,145,145,,,,,,,,,,,,,,,,bars/021.png,bars/mask005.png,,,,,,,,,,,,3,1,,,,,,,2,6,4,8,,,,,,,,,,,2075.0714,2075.5721,2075.8226,2080.1625,space,4.3326,,2080.1625,10,75,2081.1641,2081.1641,2081.172,,,,0,19,19,19,1,155,70,,,,,,,,
,,5ed263aeba65480a03b6c31f,65af54b8ebaa6ae4e2c75634,2024-01-23_07h55.48.335,bars,2023.2.3,Win32,117.6470588,657b66ea316d21385b68909f,,,,,,,,,,,2081.1722,2082.1738,,,2082.6748,2082.9249,,136,136,,,,,,,,,,,,,,,,bars/048.png,bars/mask009.png,,,,,,,,,,,,0,2,,,,,,,0,4,0,3,,,,,,,,,,,2082.1739,2082.6748,2082.9249,2087.2233,space,4.2932,,2087.2234,86,39,2088.2247,2088.2247,2088.2324,,,,0,20,20,20,1,50,175,,,,,,,,
,,5ed263aeba65480a03b6c31f,65af54b8ebaa6ae4e2c75634,2024-01-23_07h55.48.335,bars,2023.2.3,Win32,117.6470588,657b66ea316d21385b68909f,,,,,,,,,,,2088.2326,2089.2345,,,2089.7353,2089.9858,,171,171,,,,,,,,,,,,,,,,bars/040.png,bars/mask006.png,,,,,,,,,,,,4,2,,,,,,,2,6,3,7,,,,,,,,,,,2089.2345,2089.7353,2089.9858,2093.6998,space,3.7061,,2093.6998,31,14,2094.7012,2094.7012,2094.708,,,,0,21,21,21,1,140,5,,,,,,,,
,,5ed263aeba65480a03b6c31f,65af54b8ebaa6ae4e2c75634,2024-01-23_07h55.48.335,bars,2023.2.3,Win32,117.6470588,657b66ea316d21385b68909f,,,,,,,,,,,2094.7083,2095.7028,,,2096.2036,2096.454,,100,100,,,,,,,,,,,,,,,,bars/007.png,bars/mask006.png,,,,,,,,,,,,0,2,,,,,,,0,8,0,9,,,,,,,,,,,2095.7028,2096.2035,2096.4541,2099.2248,space,2.767,,2099.2249,75,45,2100.2262,2100.2262,2100.233,,,,0,22,22,22,1,175,55,,,,,,,,
,,5ed263aeba65480a03b6c31f,65af54b8ebaa6ae4e2c75634,2024-01-23_07h55.48.335,bars,2023.2.3,Win32,117.6470588,657b66ea316d21385b68909f,,,,,,,,,,,2100.2332,2101.228,,,2101.7288,2101.9789,,1,181,,,,,,,,,,,,,,,,bars/019.png,bars/mask008.png,,,,,,,,,,,,0,1,,,,,,,0,6,1,5,,,,,,,,,,,2101.2281,2101.7288,2101.9789,2105.0086,space,3.0221,,2105.0086,44,76,2106.0101,2106.0101,2106.0181,,,,0,23,23,23,1,45,105,,,,,,,,
,,5ed263aeba65480a03b6c31f,65af54b8ebaa6ae4e2c75634,2024-01-23_07h55.48.335,bars,2023.2.3,Win32,117.6470588,657b66ea316d21385b68909f,,,,,,,,,,,2106.0182,2107.0199,,,2107.5206,2107.7711,,25,25,,,,,,,,,,,,,,,,bars/008.png,bars/mask006.png,,,,,,,,,,,,1,2,,,,,,,2,8,2,9,,,,,,,,,,,2107.0199,2107.5206,2107.7712,2110.6839,space,2.9049,,2110.684,85,25,2111.6854,2111.6854,2111.6932,,,,0,24,24,24,1,110,0,,,,,,,,
,,5ed263aeba65480a03b6c31f,65af54b8ebaa6ae4e2c75634,2024-01-23_07h55.48.335,bars,2023.2.3,Win32,117.6470588,657b66ea316d21385b68909f,,,,,,,,,,,2111.6932,2112.6958,,,2113.196,2113.4464,,179,-1,,,,,,,,,,,,,,,,bars/040.png,bars/mask003.png,,,,,,,,,,,,8,2,,,,,,,0,10,1,10,,,,,,,,,,,2112.6958,2113.196,2113.4464,2116.6181,space,3.1636,,2116.6181,39,6,2117.6194,2117.6194,2117.6262,,,,0,25,25,25,1,140,5,,,,,,,,
,,5ed263aeba65480a03b6c31f,65af54b8ebaa6ae4e2c75634,2024-01-23_07h55.48.335,bars,2023.2.3,Win32,117.6470588,657b66ea316d21385b68909f,,,,,,,,,,,2117.6264,2118.621,,,2119.1217,2119.3721,,160,160,,,,,,,,,,,,,,,,bars/035.png,bars/mask000.png,,,,,,,,,,,,2,1,,,,,,,2,8,3,9,,,,,,,,,,,2118.6211,2119.1217,2119.3722,2122.1682,space,2.7898,,2122.1682,15,80,2123.1696,2123.1696,2123.1772,,,,0,26,26,26,1,175,60,,,,,,,,
,,5ed263aeba65480a03b6c31f,65af54b8ebaa6ae4e2c75634,2024-01-23_07h55.48.335,bars,2023.2.3,Win32,117.6470588,657b66ea316d21385b68909f,,,,,,,,,,,2123.1774,2124.1712,,,2124.6719,2124.9222,,15,15,,,,,,,,,,,,,,,,bars/044.png,bars/mask000.png,,,,,,,,,,,,0,2,,,,,,,0,10,0,10,,,,,,,,,,,2124.1712,2124.6719,2124.9222,2127.8017,space,2.8716,,2127.8017,60,40,2128.8031,2128.8032,2128.8109,,,,0,27,27,27,1,75,155,,,,,,,,
,,5ed263aeba65480a03b6c31f,65af54b8ebaa6ae4e2c75634,2024-01-23_07h55.48.335,bars,2023.2.3,Win32,117.6470588,657b66ea316d21385b68909f,,,,,,,,,,,2128.811,2129.8129,,,2130.3138,2130.5643,,39,219,,,,,,,,,,,,,,,,bars/041.png,bars/mask000.png,,,,,,,,,,,,0,1,,,,,,,0,10,0,10,,,,,,,,,,,2129.8129,2130.3138,2130.5643,2134.0694,space,3.5018,,2134.0694,19,46,2135.071,2135.071,2135.078,,,,0,28,28,28,1,20,85,,,,,,,,
,,5ed263aeba65480a03b6c31f,65af54b8ebaa6ae4e2c75634,2024-01-23_07h55.48.335,bars,2023.2.3,Win32,117.6470588,657b66ea316d21385b68909f,,,,,,,,,,,2135.0781,2136.0726,,,2136.5732,2136.8238,,146,-34,,,,,,,,,,,,,,,,bars/033.png,bars/mask007.png,,,,,,,,,,,,7,2,,,,,,,0,10,1,10,,,,,,,,,,,2136.0726,2136.5732,2136.8238,2140.204,space,3.3727,,2140.2041,59,9,2141.2054,2141.2054,2141.2132,,,,0,29,29,29,1,25,155,,,,,,,,
,,5ed263aeba65480a03b6c31f,65af54b8ebaa6ae4e2c75634,2024-01-23_07h55.48.335,bars,2023.2.3,Win32,117.6470588,657b66ea316d21385b68909f,,,,,,,,,,,2141.2134,2142.2152,,,2142.7161,2142.9663,,7,7,,,,,,,,,,,,,,,,bars/049.png,bars/mask008.png,,,,,,,,,,,,0,1,,,,,,,2,8,2,6,,,,,,,,,,,2142.2153,2142.716,2142.9663,2146.8807,space,3.9077,,2146.8808,27,72,2147.8825,2147.8825,2147.8903,,,,0,30,30,30,1,160,115,,,,,,,,
,,5ed263aeba65480a03b6c31f,65af54b8ebaa6ae4e2c75634,2024-01-23_07h55.48.335,bars,2023.2.3,Win32,117.6470588,657b66ea316d21385b68909f,,,,,,,,,,,2147.8904,2148.892,,,2149.3928,2149.6431,,129,-51,,,,,,,,,,,,,,,,bars/038.png,bars/mask001.png,,,,,,,,,,,,0,1,,,,,,,4,6,4,7,,,,,,,,,,,2148.892,2149.3928,2149.6431,2152.9399,space,3.2889,,2152.9399,36,59,2153.9417,2153.9417,2153.9479,,,,0,31,31,31,1,165,70,,,,,,,,
,,5ed263aeba65480a03b6c31f,65af54b8ebaa6ae4e2c75634,2024-01-23_07h55.48.335,bars,2023.2.3,Win32,117.6470588,657b66ea316d21385b68909f,,,,,,,,,,,2153.948,2154.9429,,,2155.4436,2155.694,,87,87,,,,,,,,,,,,,,,,bars/015.png,bars/mask008.png,,,,,,,,,,,,0,1,,,,,,,2,8,1,10,,,,,,,,,,,2154.9429,2155.4436,2155.6941,2158.7071,space,3.0052,,2158.7072,23,73,2159.7085,2159.7085,2159.7151,,,,0,32,32,32,1,110,160,,,,,,,,
,,5ed263aeba65480a03b6c31f,65af54b8ebaa6ae4e2c75634,2024-01-23_07h55.48.335,bars,2023.2.3,Win32,117.6470588,657b66ea316d21385b68909f,,,,,,,,,,,2159.7154,2160.7101,,,2161.2108,2161.4611,,99,99,,,,,,,,,,,,,,,,bars/021.png,bars/mask001.png,,,,,,,,,,,,0,2,,,,,,,0,10,1,8,,,,,,,,,,,2160.7102,2161.2108,2161.4612,2164.6994,space,3.2308,,2164.6995,56,29,2165.7011,2165.7011,2165.708,,,,0,33,33,33,1,155,70,,,,,,,,
,,5ed263aeba65480a03b6c31f,65af54b8ebaa6ae4e2c75634,2024-01-23_07h55.48.335,bars,2023.2.3,Win32,117.6470588,657b66ea316d21385b68909f,,,,,,,,,,,2165.7082,2166.7025,,,2167.2033,2167.4536,,34,214,,,,,,,,,,,,,,,,bars/017.png,bars/mask006.png,,,,,,,,,,,,6,2,,,,,,,2,8,2,9,,,,,,,,,,,2166.7025,2167.2032,2167.4536,2173.6131,space,6.1518,,2173.6132,69,11,2174.6145,2174.6146,2174.6217,,,,0,34,34,34,1,145,45,,,,,,,,
,,5ed263aeba65480a03b6c31f,65af54b8ebaa6ae4e2c75634,2024-01-23_07h55.48.335,bars,2023.2.3,Win32,117.6470588,657b66ea316d21385b68909f,,,,,,,,,,,2174.6219,2175.6162,,,2176.1169,2176.3672,,36,216,,,,,,,,,,,,,,,,bars/036.png,bars/mask005.png,,,,,,,,,,,,3,2,,,,,,,4,6,4,7,,,,,,,,,,,2175.6163,2176.1169,2176.3672,2183.3862,space,7.0109,,2183.3863,71,16,2184.3878,2184.3879,2184.395,,,,0,35,35,35,1,145,20,,,,,,,,
,,5ed263aeba65480a03b6c31f,65af54b8ebaa6ae4e2c75634,2024-01-23_07h55.48.335,bars,2023.2.3,Win32,117.6470588,657b66ea316d21385b68909f,,,,,,,,,,,2184.3951,2185.3894,,,2185.8903,2186.1403,,45,45,,,,,,,,,,,,,,,,bars/007.png,bars/mask000.png,,,,,,,,,,,,1,2,,,,,,,6,4,7,2,,,,,,,,,,,2185.3895,2185.8902,2186.1403,2190.6891,space,4.5444,,2190.6891,50,10,2191.6906,2191.6906,2191.6972,,,,0,36,36,36,1,175,55,,,,,,,,
,,5ed263aeba65480a03b6c31f,65af54b8ebaa6ae4e2c75634,2024-01-23_07h55.48.335,bars,2023.2.3,Win32,117.6470588,657b66ea316d21385b68909f,,,,,,,,,,,2191.6974,2192.6928,,,2193.1929,2193.4434,,138,138,,,,,,,,,,,,,,,,bars/037.png,bars/mask006.png,,,,,,,,,,,,3,1,,,,,,,4,6,5,6,,,,,,,,,,,2192.6928,2193.1929,2193.4434,2196.0472,space,2.597,,2196.0472,12,33,2197.0486,2197.0486,2197.0562,,,,0,37,37,37,1,150,105,,,,,,,,
,,5ed263aeba65480a03b6c31f,65af54b8ebaa6ae4e2c75634,2024-01-23_07h55.48.335,bars,2023.2.3,Win32,117.6470588,657b66ea316d21385b68909f,,,,,,,,,,,2197.0564,2198.0585,,,2198.5596,2198.8098,,125,-55,,,,,,,,,,,,,,,,bars/023.png,bars/mask007.png,,,,,,,,,,,,6,2,,,,,,,2,8,3,9,,,,,,,,,,,2198.0585,2198.5595,2198.8098,2201.7977,space,2.9806,,2201.7977,75,10,2202.7992,2202.7993,2202.8067,,,,0,38,38,38,1,20,115,,,,,,,,
,,5ed263aeba65480a03b6c31f,65af54b8ebaa6ae4e2c75634,2024-01-23_07h55.48.335,bars,2023.2.3,Win32,117.6470588,657b66ea316d21385b68909f,,,,,,,,,,,2202.8069,2203.8089,,,2204.3097,2204.5601,,160,-20,,,,,,,,,,,,,,,,bars/049.png,bars/mask006.png,,,,,,,,,,,,1,1,,,,,,,0,10,1,10,,,,,,,,,,,2203.8089,2204.3096,2204.5601,2207.9569,space,3.3899,,2207.957,0,45,2208.9584,2208.9585,2208.9662,,,,0,39,39,39,1,160,115,,,,,,,,
,,5ed263aeba65480a03b6c31f,65af54b8ebaa6ae4e2c75634,2024-01-23_07h55.48.335,bars,2023.2.3,Win32,117.6470588,657b66ea316d21385b68909f,,,,,,,,,,,2208.9663,2209.9687,,,2210.4692,2210.7196,,26,26,,,,,,,,,,,,,,,,bars/046.png,bars/mask008.png,,,,,,,,,,,,0,1,,,,,,,2,10,2,10,,,,,,,,,,,2209.9687,2210.4691,2210.7196,2214.1246,space,3.3976,,2214.1248,51,59,2215.1262,2215.1262,2215.1329,,,,0,40,40,40,1,155,85,,,,,,,,
,,5ed263aeba65480a03b6c31f,65af54b8ebaa6ae4e2c75634,2024-01-23_07h55.48.335,bars,2023.2.3,Win32,117.6470588,657b66ea316d21385b68909f,,,,,,,,,,,2215.1331,2216.1277,,,2216.6285,2216.8789,,161,161,,,,,,,,,,,,,,,,bars/041.png,bars/mask008.png,,,,,,,,,,,,0,1,,,,,,,4,8,3,6,,,,,,,,,,,2216.1278,2216.6284,2216.8789,2220.6429,space,3.7603,,2220.6429,39,76,2221.6445,2221.6445,2221.6513,,,,0,41,41,41,1,20,85,,,,,,,,
,,5ed263aeba65480a03b6c31f,65af54b8ebaa6ae4e2c75634,2024-01-23_07h55.48.335,bars,2023.2.3,Win32,117.6470588,657b66ea316d21385b68909f,,,,,,,,,,,2221.6514,2222.6461,,,2223.1469,2223.3972,,143,143,,,,,,,,,,,,,,,,bars/038.png,bars/mask006.png,,,,,,,,,,,,1,1,,,,,,,6,10,5,9,,,,,,,,,,,2222.6461,2223.1468,2223.3972,2226.3767,space,2.9739,,2226.3768,22,73,2227.3783,2227.3783,2227.3853,,,,0,42,42,42,1,165,70,,,,,,,,
,,5ed263aeba65480a03b6c31f,65af54b8ebaa6ae4e2c75634,2024-01-23_07h55.48.335,bars,2023.2.3,Win32,117.6470588,657b66ea316d21385b68909f,,,,,,,,,,,2227.3855,2228.3797,,,2228.8806,2229.1309,,51,51,,,,,,,,,,,,,,,,bars/023.png,bars/mask005.png,,,,,,,,,,,,0,1,,,,,,,4,10,5,9,,,,,,,,,,,2228.3797,2228.8806,2229.1309,2231.0255,space,1.8906,,2231.0255,31,64,2232.0269,2232.027,2232.0281,,,,0,43,43,43,1,20,115,,,,,,,,
,,5ed263aeba65480a03b6c31f,65af54b8ebaa6ae4e2c75634,2024-01-23_07h55.48.335,bars,2023.2.3,Win32,117.6470588,657b66ea316d21385b68909f,,,,,,,,,,,2232.0285,2233.0283,,,2233.5293,2233.7796,,22,22,,,,,,,,,,,,,,,,bars/044.png,bars/mask001.png,,,,,,,,,,,,0,2,,,,,,,2,10,3,10,,,,,,,,,,,2233.0284,2233.5292,2233.7796,2238.5035,space,4.7196,,2238.5035,53,47,2239.5049,2239.505,2239.5127,,,,0,44,44,44,1,75,155,,,,,,,,
,,5ed263aeba65480a03b6c31f,65af54b8ebaa6ae4e2c75634,2024-01-23_07h55.48.335,bars,2023.2.3,Win32,117.6470588,657b66ea316d21385b68909f,,,,,,,,,,,2239.5129,2240.5149,,,2241.0156,2241.2659,,22,22,,,,,,,,,,,,,,,,bars/047.png,bars/mask008.png,,,,,,,,,,,,0,1,,,,,,,0,10,0,10,,,,,,,,,,,2240.5149,2241.0156,2241.266,2245.4558,space,4.184,,2245.4559,7,48,2246.4573,2246.4573,2246.4649,,,,0,45,45,45,1,15,70,,,,,,,,
,,5ed263aeba65480a03b6c31f,65af54b8ebaa6ae4e2c75634,2024-01-23_07h55.48.335,bars,2023.2.3,Win32,117.6470588,657b66ea316d21385b68909f,,,,,,,,,,,2246.4651,2247.4592,,,2247.9596,2248.2099,,60,60,,,,,,,,,,,,,,,,bars/041.png,bars/mask009.png,,,,,,,,,,,,2,2,,,,,,,0,10,1,10,,,,,,,,,,,2247.4592,2247.9596,2248.2099,2250.4467,space,2.2291,,2250.4467,40,25,2251.4483,2251.4483,2251.4561,,,,0,46,46,46,1,20,85,,,,,,,,
,,5ed263aeba65480a03b6c31f,65af54b8ebaa6ae4e2c75634,2024-01-23_07h55.48.335,bars,2023.2.3,Win32,117.6470588,657b66ea316d21385b68909f,,,,,,,,,,,2251.4562,2252.458,,,2252.9588,2253.2091,,24,24,,,,,,,,,,,,,,,,bars/019.png,bars/mask002.png,,,,,,,,,,,,1,1,,,,,,,0,10,3,10,,,,,,,,,,,2252.4581,2252.9588,2253.2092,2254.9035,space,1.6872,,2254.9035,21,81,2255.905,2255.905,2255.9071,,,,0,47,47,47,1,45,105,,,,,,,,
,,5ed263aeba65480a03b6c31f,65af54b8ebaa6ae4e2c75634,2024-01-23_07h55.48.335,bars,2023.2.3,Win32,117.6470588,657b66ea316d21385b68909f,,,,,,,,,,,2255.9072,2256.9064,,,2257.4072,2257.6576,,148,-32,,,,,,,,,,,,,,,,bars/007.png,bars/mask007.png,,,,,,,,,,,,0,1,,,,,,,0,10,0,10,,,,,,,,,,,2256.9064,2257.4072,2257.6577,2260.103,space,2.4418,,2260.103,27,87,2261.1045,2261.1045,2261.1114,,,,0,48,48,48,1,175,55,,,,,,,,
,,5ed263aeba65480a03b6c31f,65af54b8ebaa6ae4e2c75634,2024-01-23_07h55.48.335,bars,2023.2.3,Win32,117.6470588,657b66ea316d21385b68909f,,,,,,,,,,,2261.1116,2262.106,,,2262.6068,2262.8575,,23,23,,,,,,,,,,,,,,,,bars/030.png,bars/mask005.png,,,,,,,,,,,,0,2,,,,,,,2,8,1,8,,,,,,,,,,,2262.106,2262.6068,2262.8576,2265.1774,space,2.314,,2265.1774,63,42,2266.1789,2266.1789,2266.1813,,,,0,49,49,49,1,140,65,,,,,,,,
,,5ed263aeba65480a03b6c31f,65af54b8ebaa6ae4e2c75634,2024-01-23_07h55.48.335,bars,2023.2.3,Win32,117.6470588,657b66ea316d21385b68909f,,,,,,,,,,,,,,,,,,,,,,,,,,,,,,,,,,,,,,,,,,,,,,,,,,,,,,,,,,,,,,,,,,,,,,,,,,,,,,,,,,,,,,,,,,,,,2266.1814,2326.1786,0,2,2,3,1,sequence_tables/blk012.csv
,,5ed263aeba65480a03b6c31f,65af54b8ebaa6ae4e2c75634,2024-01-23_07h55.48.335,bars,2023.2.3,Win32,117.6470588,657b66ea316d21385b68909f,,,,,,,,,,,2330.8107,2331.8038,,,2332.3049,2332.5549,,42,222,,,,,,,,,,,,,,,,bars/024.png,bars/mask003.png,,,,,,,,,,,,0,2,,,,,,,1,3,2,3,,,,,,2326.185,2330.8025,space,4.6081,,2331.8038,2332.3049,2332.5549,2337.2622,space,4.6996,,2337.2624,78,52,2338.2637,2338.2637,2338.2706,,,,0,0,0,0,1,120,170,,,,,,,,
,,5ed263aeba65480a03b6c31f,65af54b8ebaa6ae4e2c75634,2024-01-23_07h55.48.335,bars,2023.2.3,Win32,117.6470588,657b66ea316d21385b68909f,,,,,,,,,,,2338.2709,2339.2655,,,2339.766,2340.0164,,175,175,,,,,,,,,,,,,,,,bars/047.png,bars/mask000.png,,,,,,,,,,,,1,1,,,,,,,3,5,4,6,,,,,,,,,,,2339.2656,2339.766,2340.0164,2343.2379,space,3.2183,,2343.2379,20,75,2344.2394,2344.2394,2344.2472,,,,0,1,1,1,1,15,70,,,,,,,,
,,5ed263aeba65480a03b6c31f,65af54b8ebaa6ae4e2c75634,2024-01-23_07h55.48.335,bars,2023.2.3,Win32,117.6470588,657b66ea316d21385b68909f,,,,,,,,,,,2344.2473,2345.2493,,,2345.7499,2346.0005,,156,-24,,,,,,,,,,,,,,,,bars/046.png,bars/mask000.png,,,,,,,,,,,,2,1,,,,,,,1,3,2,3,,,,,,,,,,,2345.2494,2345.7499,2346.0005,2349.9398,space,3.9322,,2349.9398,1,71,2350.9413,2350.9413,2350.9477,,,,0,2,2,2,1,155,85,,,,,,,,
,,5ed263aeba65480a03b6c31f,65af54b8ebaa6ae4e2c75634,2024-01-23_07h55.48.335,bars,2023.2.3,Win32,117.6470588,657b66ea316d21385b68909f,,,,,,,,,,,2350.9477,2351.9429,,,2352.4436,2352.6948,,85,85,,,,,,,,,,,,,,,,bars/032.png,bars/mask001.png,,,,,,,,,,,,0,1,,,,,,,0,1,1,1,,,,,,,,,,,2351.9429,2352.4436,2352.6948,2356.1576,space,3.459,,2356.1576,40,65,2357.1591,2357.1591,2357.166,,,,0,3,3,3,1,125,20,,,,,,,,
,,5ed263aeba65480a03b6c31f,65af54b8ebaa6ae4e2c75634,2024-01-23_07h55.48.335,bars,2023.2.3,Win32,117.6470588,657b66ea316d21385b68909f,,,,,,,,,,,2357.1662,2358.1606,,,2358.6614,2358.9119,,179,179,,,,,,,,,,,,,,,,bars/007.png,bars/mask002.png,,,,,,,,,,,,1,1,,,,,,,2,3,1,3,,,,,,,,,,,2358.1606,2358.6614,2358.9119,2360.0636,space,1.1446,,2360.0636,4,56,2361.065,2361.065,2361.0659,,,,0,4,4,4,1,175,55,,,,,,,,
,,5ed263aeba65480a03b6c31f,65af54b8ebaa6ae4e2c75634,2024-01-23_07h55.48.335,bars,2023.2.3,Win32,117.6470588,657b66ea316d21385b68909f,,,,,,,,,,,2361.0664,2362.0668,,,2362.5675,2362.8177,,108,108,,,,,,,,,,,,,,,,bars/001.png,bars/mask001.png,,,,,,,,,,,,1,1,,,,,,,4,1,3,1,,,,,,,,,,,2362.0668,2362.5675,2362.8177,2364.0865,space,1.2612,,2364.0866,22,23,2365.0878,2365.0878,2365.0886,,,,0,5,5,5,1,130,85,,,,,,,,
,,5ed263aeba65480a03b6c31f,65af54b8ebaa6ae4e2c75634,2024-01-23_07h55.48.335,bars,2023.2.3,Win32,117.6470588,657b66ea316d21385b68909f,,,,,,,,,,,2365.0888,2366.0895,,,2366.5901,2366.8406,,168,168,,,,,,,,,,,,,,,,bars/038.png,bars/mask004.png,,,,,,,,,,,,5,1,,,,,,,6,3,5,2,,,,,,,,,,,2366.0895,2366.5901,2366.8406,2368.7935,space,1.9463,,2368.7936,3,82,2369.795,2369.795,2369.7961,,,,0,6,6,6,1,165,70,,,,,,,,
,,5ed263aeba65480a03b6c31f,65af54b8ebaa6ae4e2c75634,2024-01-23_07h55.48.335,bars,2023.2.3,Win32,117.6470588,657b66ea316d21385b68909f,,,,,,,,,,,2369.7964,2370.7966,,,2371.2974,2371.5476,,25,25,,,,,,,,,,,,,,,,bars/048.png,bars/mask007.png,,,,,,,,,,,,1,1,,,,,,,4,5,5,4,,,,,,,,,,,2370.7966,2371.2973,2371.5477,2373.8181,space,2.2632,,2373.8182,25,30,2374.8193,2374.8193,2374.8261,,,,0,7,7,7,1,50,175,,,,,,,,
,,5ed263aeba65480a03b6c31f,65af54b8ebaa6ae4e2c75634,2024-01-23_07h55.48.335,bars,2023.2.3,Win32,117.6470588,657b66ea316d21385b68909f,,,,,,,,,,,2374.8262,2375.8208,,,2376.3216,2376.5721,,164,164,,,,,,,,,,,,,,,,bars/031.png,bars/mask004.png,,,,,,,,,,,,0,1,,,,,,,6,7,7,8,,,,,,,,,,,2375.8208,2376.3216,2376.5721,2378.2746,space,1.6989,,2378.2746,44,51,2379.2762,2379.2762,2379.277,,,,0,8,8,8,1,120,35,,,,,,,,
,,5ed263aeba65480a03b6c31f,65af54b8ebaa6ae4e2c75634,2024-01-23_07h55.48.335,bars,2023.2.3,Win32,117.6470588,657b66ea316d21385b68909f,,,,,,,,,,,2379.2773,2380.2776,,,2380.7786,2381.0288,,63,63,,,,,,,,,,,,,,,,bars/026.png,bars/mask003.png,,,,,,,,,,,,2,2,,,,,,,4,9,5,8,,,,,,,,,,,2380.2776,2380.7786,2381.0288,2384.7344,space,3.6985,,2384.7344,28,22,2385.736,2385.736,2385.7436,,,,0,9,9,9,1,35,85,,,,,,,,
,,5ed263aeba65480a03b6c31f,65af54b8ebaa6ae4e2c75634,2024-01-23_07h55.48.335,bars,2023.2.3,Win32,117.6470588,657b66ea316d21385b68909f,,,,,,,,,,,2385.7438,2386.7457,,,2387.2466,2387.4969,,22,202,,,,,,,,,,,,,,,,bars/042.png,bars/mask006.png,,,,,,,,,,,,0,2,,,,,,,6,10,6,10,,,,,,,,,,,2386.7457,2387.2466,2387.4969,2389.884,space,2.3797,,2389.884,57,53,2390.8856,2390.8857,2390.893,,,,0,10,10,10,1,145,75,,,,,,,,
,,5ed263aeba65480a03b6c31f,65af54b8ebaa6ae4e2c75634,2024-01-23_07h55.48.335,bars,2023.2.3,Win32,117.6470588,657b66ea316d21385b68909f,,,,,,,,,,,2390.8932,2391.8953,,,2392.3962,2392.6464,,34,34,,,,,,,,,,,,,,,,bars/040.png,bars/mask007.png,,,,,,,,,,,,0,2,,,,,,,8,8,9,9,,,,,,,,,,,2391.8953,2392.3962,2392.6466,2395.668,space,3.0156,,2395.668,74,29,2396.6692,2396.6693,2396.6759,,,,0,11,11,11,1,140,5,,,,,,,,
,,5ed263aeba65480a03b6c31f,65af54b8ebaa6ae4e2c75634,2024-01-23_07h55.48.335,bars,2023.2.3,Win32,117.6470588,657b66ea316d21385b68909f,,,,,,,,,,,2396.6761,2397.6709,,,2398.1716,2398.4221,,139,139,,,,,,,,,,,,,,,,bars/029.png,bars/mask004.png,,,,,,,,,,,,0,1,,,,,,,6,6,5,8,,,,,,,,,,,2397.6709,2398.1715,2398.4221,2401.3682,space,2.9415,,2401.3682,49,86,2402.3696,2402.3696,2402.3775,,,,0,12,12,12,1,90,45,,,,,,,,
,,5ed263aeba65480a03b6c31f,65af54b8ebaa6ae4e2c75634,2024-01-23_07h55.48.335,bars,2023.2.3,Win32,117.6470588,657b66ea316d21385b68909f,,,,,,,,,,,2402.3777,2403.3794,,,2403.8803,2404.1307,,168,168,,,,,,,,,,,,,,,,bars/045.png,bars/mask001.png,,,,,,,,,,,,1,2,,,,,,,4,4,4,5,,,,,,,,,,,2403.3794,2403.8802,2404.1307,2407.7779,space,3.6422,,2407.778,68,22,2408.7793,2408.7794,2408.7872,,,,0,13,13,13,1,100,10,,,,,,,,
,,5ed263aeba65480a03b6c31f,65af54b8ebaa6ae4e2c75634,2024-01-23_07h55.48.335,bars,2023.2.3,Win32,117.6470588,657b66ea316d21385b68909f,,,,,,,,,,,2408.7875,2409.7895,,,2410.29,2410.5404,,28,208,,,,,,,,,,,,,,,,bars/028.png,bars/mask008.png,,,,,,,,,,,,3,1,,,,,,,6,6,6,7,,,,,,,,,,,2409.7895,2410.2899,2410.5404,2414.0875,space,3.5402,,2414.0875,17,88,2415.089,2415.089,2415.0968,,,,0,14,14,14,1,45,120,,,,,,,,
,,5ed263aeba65480a03b6c31f,65af54b8ebaa6ae4e2c75634,2024-01-23_07h55.48.335,bars,2023.2.3,Win32,117.6470588,657b66ea316d21385b68909f,,,,,,,,,,,2415.0969,2416.0988,,,2416.5998,2416.8499,,49,49,,,,,,,,,,,,,,,,bars/047.png,bars/mask008.png,,,,,,,,,,,,1,2,,,,,,,8,4,8,3,,,,,,,,,,,2416.0989,2416.5997,2416.85,2419.7879,space,2.9299,,2419.7879,34,21,2420.7893,2420.7894,2420.7967,,,,0,15,15,15,1,15,70,,,,,,,,
,,5ed263aeba65480a03b6c31f,65af54b8ebaa6ae4e2c75634,2024-01-23_07h55.48.335,bars,2023.2.3,Win32,117.6470588,657b66ea316d21385b68909f,,,,,,,,,,,2420.7969,2421.7991,,,2422.3002,2422.5503,,150,150,,,,,,,,,,,,,,,,bars/010.png,bars/mask006.png,,,,,,,,,,,,5,1,,,,,,,10,6,10,4,,,,,,,,,,,2421.7992,2422.3001,2422.5503,2426.64,space,4.0845,,2426.64,15,85,2427.6417,2427.6417,2427.6495,,,,0,16,16,16,1,165,55,,,,,,,,
,,5ed263aeba65480a03b6c31f,65af54b8ebaa6ae4e2c75634,2024-01-23_07h55.48.335,bars,2023.2.3,Win32,117.6470588,657b66ea316d21385b68909f,,,,,,,,,,,2427.6498,2428.6512,,,2429.1521,2429.4023,,5,185,,,,,,,,,,,,,,,,bars/027.png,bars/mask004.png,,,,,,,,,,,,0,2,,,,,,,10,4,10,5,,,,,,,,,,,2428.6512,2429.152,2429.4023,2432.5574,space,3.147,,2432.5575,75,45,2433.5587,2433.5588,2433.5665,,,,0,17,17,17,1,110,50,,,,,,,,
,,5ed263aeba65480a03b6c31f,65af54b8ebaa6ae4e2c75634,2024-01-23_07h55.48.335,bars,2023.2.3,Win32,117.6470588,657b66ea316d21385b68909f,,,,,,,,,,,2433.5667,2434.5687,,,2435.0694,2435.3199,,64,64,,,,,,,,,,,,,,,,bars/002.png,bars/mask008.png,,,,,,,,,,,,2,2,,,,,,,10,6,9,8,,,,,,,,,,,2434.5687,2435.0693,2435.3199,2436.6801,space,1.3561,,2436.6801,66,21,2437.6818,2437.6818,2437.6825,,,,0,18,18,18,1,130,85,,,,,,,,
,,5ed263aeba65480a03b6c31f,65af54b8ebaa6ae4e2c75634,2024-01-23_07h55.48.335,bars,2023.2.3,Win32,117.6470588,657b66ea316d21385b68909f,,,,,,,,,,,2437.6827,2438.6833,,,2439.1841,2439.4343,,80,80,,,,,,,,,,,,,,,,bars/006.png,bars/mask009.png,,,,,,,,,,,,3,2,,,,,,,10,8,10,8,,,,,,,,,,,2438.6834,2439.1841,2439.4344,2442.5558,space,3.1171,,2442.5558,45,20,2443.5573,2443.5573,2443.564,,,,0,19,19,19,1,35,100,,,,,,,,
,,5ed263aeba65480a03b6c31f,65af54b8ebaa6ae4e2c75634,2024-01-23_07h55.48.335,bars,2023.2.3,Win32,117.6470588,657b66ea316d21385b68909f,,,,,,,,,,,2443.5641,2444.5588,,,2445.0598,2445.3099,,31,31,,,,,,,,,,,,,,,,bars/022.png,bars/mask004.png,,,,,,,,,,,,4,2,,,,,,,10,6,10,6,,,,,,,,,,,2444.5588,2445.0598,2445.31,2449.4329,space,4.1176,,2449.433,64,11,2450.4343,2450.4344,2450.441,,,,0,20,20,20,1,95,20,,,,,,,,
,,5ed263aeba65480a03b6c31f,65af54b8ebaa6ae4e2c75634,2024-01-23_07h55.48.335,bars,2023.2.3,Win32,117.6470588,657b66ea316d21385b68909f,,,,,,,,,,,2450.4411,2451.4359,,,2451.9367,2452.1871,,162,-18,,,,,,,,,,,,,,,,bars/014.png,bars/mask004.png,,,,,,,,,,,,3,2,,,,,,,8,4,7,7,,,,,,,,,,,2451.4359,2451.9367,2452.1872,2456.3019,space,4.1068,,2456.302,82,18,2457.3032,2457.3032,2457.3104,,,,0,21,21,21,1,80,0,,,,,,,,
,,5ed263aeba65480a03b6c31f,65af54b8ebaa6ae4e2c75634,2024-01-23_07h55.48.335,bars,2023.2.3,Win32,117.6470588,657b66ea316d21385b68909f,,,,,,,,,,,2457.3106,2458.305,,,2458.8055,2459.0563,,169,169,,,,,,,,,,,,,,,,bars/021.png,bars/mask001.png,,,,,,,,,,,,5,1,,,,,,,10,2,10,2,,,,,,,,,,,2458.305,2458.8055,2459.0563,2459.6569,space,0.5927,,2459.657,14,81,2460.6585,2460.6585,2460.6607,,,,0,22,22,22,1,155,70,,,,,,,,
,,5ed263aeba65480a03b6c31f,65af54b8ebaa6ae4e2c75634,2024-01-23_07h55.48.335,bars,2023.2.3,Win32,117.6470588,657b66ea316d21385b68909f,,,,,,,,,,,2460.6609,2461.6598,,,2462.1609,2462.4109,,167,167,,,,,,,,,,,,,,,,bars/039.png,bars/mask000.png,,,,,,,,,,,,7,1,,,,,,,10,0,9,0,,,,,,,,,,,2461.6599,2462.1608,2462.4109,2467.494,space,5.0781,,2467.494,8,62,2468.4952,2468.4953,2468.5022,,,,0,23,23,23,1,175,105,,,,,,,,
,,5ed263aeba65480a03b6c31f,65af54b8ebaa6ae4e2c75634,2024-01-23_07h55.48.335,bars,2023.2.3,Win32,117.6470588,657b66ea316d21385b68909f,,,,,,,,,,,2468.5024,2469.4969,,,2469.9976,2470.2481,,145,145,,,,,,,,,,,,,,,,bars/019.png,bars/mask009.png,,,,,,,,,,,,0,2,,,,,,,8,2,8,2,,,,,,,,,,,2469.4969,2469.9976,2470.2481,2471.3084,space,1.0574,,2471.3084,80,40,2472.3094,2472.3094,2472.3118,,,,0,24,24,24,1,45,105,,,,,,,,
,,5ed263aeba65480a03b6c31f,65af54b8ebaa6ae4e2c75634,2024-01-23_07h55.48.335,bars,2023.2.3,Win32,117.6470588,657b66ea316d21385b68909f,,,,,,,,,,,2472.3121,2473.3109,,,2473.8117,2474.0622,,116,116,,,,,,,,,,,,,,,,bars/019.png,bars/mask007.png,,,,,,,,,,,,2,2,,,,,,,10,4,10,3,,,,,,,,,,,2473.3109,2473.8116,2474.0622,2476.0568,space,1.9869,,2476.0569,71,11,2477.0582,2477.0583,2477.0642,,,,0,25,25,25,1,45,105,,,,,,,,
,,5ed263aeba65480a03b6c31f,65af54b8ebaa6ae4e2c75634,2024-01-23_07h55.48.335,bars,2023.2.3,Win32,117.6470588,657b66ea316d21385b68909f,,,,,,,,,,,2477.0643,2478.0598,,,2478.5607,2478.8109,,61,61,,,,,,,,,,,,,,,,bars/018.png,bars/mask000.png,,,,,,,,,,,,0,2,,,,,,,8,6,8,6,,,,,,,,,,,2478.0599,2478.5606,2478.811,2480.7058,space,1.8869,,2480.7058,89,29,2481.707,2481.707,2481.7078,,,,0,26,26,26,1,150,90,,,,,,,,
,,5ed263aeba65480a03b6c31f,65af54b8ebaa6ae4e2c75634,2024-01-23_07h55.48.335,bars,2023.2.3,Win32,117.6470588,657b66ea316d21385b68909f,,,,,,,,,,,2481.708,2482.7085,,,2483.2093,2483.4599,,154,-26,,,,,,,,,,,,,,,,bars/030.png,bars/mask000.png,,,,,,,,,,,,4,1,,,,,,,6,4,7,4,,,,,,,,,,,2482.7085,2483.2093,2483.4599,2488.1084,space,4.6432,,2488.1085,14,89,2489.11,2489.11,2489.1175,,,,0,27,27,27,1,140,65,,,,,,,,
,,5ed263aeba65480a03b6c31f,65af54b8ebaa6ae4e2c75634,2024-01-23_07h55.48.335,bars,2023.2.3,Win32,117.6470588,657b66ea316d21385b68909f,,,,,,,,,,,2489.1176,2490.1115,,,2490.6124,2490.8627,,12,192,,,,,,,,,,,,,,,,bars/015.png,bars/mask000.png,,,,,,,,,,,,0,2,,,,,,,8,6,7,7,,,,,,,,,,,2490.1115,2490.6124,2490.8627,2496.2375,space,5.3712,,2496.2375,82,32,2497.2392,2497.2392,2497.2463,,,,0,28,28,28,1,110,160,,,,,,,,
,,5ed263aeba65480a03b6c31f,65af54b8ebaa6ae4e2c75634,2024-01-23_07h55.48.335,bars,2023.2.3,Win32,117.6470588,657b66ea316d21385b68909f,,,,,,,,,,,2497.2465,2498.2405,,,2498.7415,2498.9918,,79,79,,,,,,,,,,,,,,,,bars/017.png,bars/mask008.png,,,,,,,,,,,,0,2,,,,,,,10,4,9,5,,,,,,,,,,,2498.2406,2498.7415,2498.9918,2500.1604,space,1.1605,,2500.1605,66,34,2501.1617,2501.1617,2501.1626,,,,0,29,29,29,1,145,45,,,,,,,,
,,5ed263aeba65480a03b6c31f,65af54b8ebaa6ae4e2c75634,2024-01-23_07h55.48.335,bars,2023.2.3,Win32,117.6470588,657b66ea316d21385b68909f,,,,,,,,,,,2501.163,2502.1634,,,2502.664,2502.9144,,53,53,,,,,,,,,,,,,,,,bars/005.png,bars/mask001.png,,,,,,,,,,,,0,1,,,,,,,8,2,8,0,,,,,,,,,,,2502.1634,2502.664,2502.9144,2505.3097,space,2.3923,,2505.3097,43,87,2506.3112,2506.3113,2506.3137,,,,0,30,30,30,1,10,140,,,,,,,,
,,5ed263aeba65480a03b6c31f,65af54b8ebaa6ae4e2c75634,2024-01-23_07h55.48.335,bars,2023.2.3,Win32,117.6470588,657b66ea316d21385b68909f,,,,,,,,,,,2506.3138,2507.3127,,,2507.8136,2508.0641,,129,-51,,,,,,,,,,,,,,,,bars/034.png,bars/mask004.png,,,,,,,,,,,,9,1,,,,,,,10,4,10,4,,,,,,,,,,,2507.3128,2507.8136,2508.0641,2510.4844,space,2.4119,,2510.4845,4,64,2511.4858,2511.4858,2511.4929,,,,0,31,31,31,1,125,65,,,,,,,,
,,5ed263aeba65480a03b6c31f,65af54b8ebaa6ae4e2c75634,2024-01-23_07h55.48.335,bars,2023.2.3,Win32,117.6470588,657b66ea316d21385b68909f,,,,,,,,,,,2511.4931,2512.4874,,,2512.9881,2513.2383,,117,117,,,,,,,,,,,,,,,,bars/003.png,bars/mask002.png,,,,,,,,,,,,0,2,,,,,,,8,2,7,2,,,,,,,,,,,2512.4874,2512.988,2513.2384,2515.5008,space,2.2568,,2515.5008,88,23,2516.5017,2516.5017,2516.5094,,,,0,32,32,32,1,25,140,,,,,,,,
,,5ed263aeba65480a03b6c31f,65af54b8ebaa6ae4e2c75634,2024-01-23_07h55.48.335,bars,2023.2.3,Win32,117.6470588,657b66ea316d21385b68909f,,,,,,,,,,,2516.5095,2517.5034,,,2518.004,2518.2543,,69,69,,,,,,,,,,,,,,,,bars/030.png,bars/mask005.png,,,,,,,,,,,,1,2,,,,,,,10,0,10,1,,,,,,,,,,,2517.5034,2518.0039,2518.2543,2521.2757,space,3.0188,,2521.2758,71,4,2522.2772,2522.2772,2522.2832,,,,0,33,33,33,1,140,65,,,,,,,,
,,5ed263aeba65480a03b6c31f,65af54b8ebaa6ae4e2c75634,2024-01-23_07h55.48.335,bars,2023.2.3,Win32,117.6470588,657b66ea316d21385b68909f,,,,,,,,,,,2522.2834,2523.2786,,,2523.7795,2524.0298,,66,66,,,,,,,,,,,,,,,,bars/016.png,bars/mask002.png,,,,,,,,,,,,1,1,,,,,,,10,0,10,1,,,,,,,,,,,2523.2786,2523.7794,2524.0298,2527.1513,space,3.1138,,2527.1514,26,81,2528.1534,2528.1535,2528.1608,,,,0,34,34,34,1,40,165,,,,,,,,
,,5ed263aeba65480a03b6c31f,65af54b8ebaa6ae4e2c75634,2024-01-23_07h55.48.335,bars,2023.2.3,Win32,117.6470588,657b66ea316d21385b68909f,,,,,,,,,,,2528.161,2529.1628,,,2529.6635,2529.9139,,152,152,,,,,,,,,,,,,,,,bars/001.png,bars/mask000.png,,,,,,,,,,,,2,1,,,,,,,8,2,8,2,,,,,,,,,,,2529.1628,2529.6634,2529.9139,2531.6999,space,1.7818,,2531.6999,22,67,2532.6938,2532.6938,2532.7003,,,,0,35,35,35,1,130,85,,,,,,,,
,,5ed263aeba65480a03b6c31f,65af54b8ebaa6ae4e2c75634,2024-01-23_07h55.48.335,bars,2023.2.3,Win32,117.6470588,657b66ea316d21385b68909f,,,,,,,,,,,2532.7005,2533.6947,,,2534.1954,2534.4458,,117,117,,,,,,,,,,,,,,,,bars/005.png,bars/mask002.png,,,,,,,,,,,,0,2,,,,,,,6,0,6,1,,,,,,,,,,,2533.6947,2534.1954,2534.4458,2536.6075,space,2.1537,,2536.6075,73,23,2537.6089,2537.6089,2537.6156,,,,0,36,36,36,1,10,140,,,,,,,,
,,5ed263aeba65480a03b6c31f,65af54b8ebaa6ae4e2c75634,2024-01-23_07h55.48.335,bars,2023.2.3,Win32,117.6470588,657b66ea316d21385b68909f,,,,,,,,,,,2537.6157,2538.6103,,,2539.1111,2539.3615,,57,237,,,,,,,,,,,,,,,,bars/036.png,bars/mask007.png,,,,,,,,,,,,0,2,,,,,,,8,2,9,2,,,,,,,,,,,2538.6103,2539.1111,2539.3615,2543.1507,space,3.7814,,2543.1507,88,37,2544.1521,2544.1521,2544.1586,,,,0,37,37,37,1,145,20,,,,,,,,
,,5ed263aeba65480a03b6c31f,65af54b8ebaa6ae4e2c75634,2024-01-23_07h55.48.335,bars,2023.2.3,Win32,117.6470588,657b66ea316d21385b68909f,,,,,,,,,,,2544.1588,2545.1538,,,2545.6545,2545.9048,,63,243,,,,,,,,,,,,,,,,bars/044.png,bars/mask005.png,,,,,,,,,,,,6,1,,,,,,,10,4,10,6,,,,,,,,,,,2545.1538,2545.6544,2545.9049,2550.0277,space,4.1195,,2550.0278,12,88,2551.0293,2551.0293,2551.0364,,,,0,38,38,38,1,75,155,,,,,,,,
,,5ed263aeba65480a03b6c31f,65af54b8ebaa6ae4e2c75634,2024-01-23_07h55.48.335,bars,2023.2.3,Win32,117.6470588,657b66ea316d21385b68909f,,,,,,,,,,,2551.0366,2552.0308,,,2552.5315,2552.7819,,138,138,,,,,,,,,,,,,,,,bars/012.png,bars/mask002.png,,,,,,,,,,,,0,1,,,,,,,10,6,9,5,,,,,,,,,,,2552.0308,2552.5315,2552.782,2555.5362,space,2.7467,,2555.5363,48,57,2556.5376,2556.5377,2556.5442,,,,0,39,39,39,1,90,15,,,,,,,,
,,5ed263aeba65480a03b6c31f,65af54b8ebaa6ae4e2c75634,2024-01-23_07h55.48.335,bars,2023.2.3,Win32,117.6470588,657b66ea316d21385b68909f,,,,,,,,,,,2556.5444,2557.5391,,,2558.0402,2558.2903,,166,166,,,,,,,,,,,,,,,,bars/018.png,bars/mask005.png,,,,,,,,,,,,5,1,,,,,,,10,4,10,3,,,,,,,,,,,2557.5392,2558.0401,2558.2904,2561.5787,space,3.2803,,2561.5787,16,76,2562.5801,2562.5801,2562.5869,,,,0,40,40,40,1,150,90,,,,,,,,
,,5ed263aeba65480a03b6c31f,65af54b8ebaa6ae4e2c75634,2024-01-23_07h55.48.335,bars,2023.2.3,Win32,117.6470588,657b66ea316d21385b68909f,,,,,,,,,,,2562.5871,2563.5819,,,2564.0826,2564.3329,,169,169,,,,,,,,,,,,,,,,bars/039.png,bars/mask000.png,,,,,,,,,,,,8,1,,,,,,,10,2,10,2,,,,,,,,,,,2563.5819,2564.0826,2564.3329,2566.8869,space,2.5464,,2566.8869,6,64,2567.8883,2567.8883,2567.8944,,,,0,41,41,41,1,175,105,,,,,,,,
,,5ed263aeba65480a03b6c31f,65af54b8ebaa6ae4e2c75634,2024-01-23_07h55.48.335,bars,2023.2.3,Win32,117.6470588,657b66ea316d21385b68909f,,,,,,,,,,,2567.8945,2568.89,,,2569.3906,2569.6412,,152,152,,,,,,,,,,,,,,,,bars/038.png,bars/mask003.png,,,,,,,,,,,,4,1,,,,,,,8,0,7,0,,,,,,,,,,,2568.89,2569.3906,2569.6413,2574.7069,space,5.0615,,2574.7069,13,82,2575.7085,2575.7085,2575.7152,,,,0,42,42,42,1,165,70,,,,,,,,
,,5ed263aeba65480a03b6c31f,65af54b8ebaa6ae4e2c75634,2024-01-23_07h55.48.335,bars,2023.2.3,Win32,117.6470588,657b66ea316d21385b68909f,,,,,,,,,,,2575.7153,2576.7101,,,2577.2108,2577.4613,,175,175,,,,,,,,,,,,,,,,bars/037.png,bars/mask005.png,,,,,,,,,,,,1,1,,,,,,,6,0,5,1,,,,,,,,,,,2576.7101,2577.2107,2577.4613,2579.1472,space,1.6783,,2579.1472,25,70,2580.1486,2580.1486,2580.1494,,,,0,43,43,43,1,150,105,,,,,,,,
,,5ed263aeba65480a03b6c31f,65af54b8ebaa6ae4e2c75634,2024-01-23_07h55.48.335,bars,2023.2.3,Win32,117.6470588,657b66ea316d21385b68909f,,,,,,,,,,,2580.1496,2581.1502,,,2581.651,2581.9013,,154,-26,,,,,,,,,,,,,,,,bars/043.png,bars/mask008.png,,,,,,,,,,,,0,2,,,,,,,8,0,9,0,,,,,,,,,,,2581.1503,2581.6509,2581.9013,2584.7556,space,2.8457,,2584.7556,56,24,2585.7572,2585.7573,2585.7648,,,,0,44,44,44,1,30,130,,,,,,,,
,,5ed263aeba65480a03b6c31f,65af54b8ebaa6ae4e2c75634,2024-01-23_07h55.48.335,bars,2023.2.3,Win32,117.6470588,657b66ea316d21385b68909f,,,,,,,,,,,2585.765,2586.767,,,2587.2679,2587.5181,,50,50,,,,,,,,,,,,,,,,bars/048.png,bars/mask004.png,,,,,,,,,,,,10,1,,,,,,,10,0,10,0,,,,,,,,,,,2586.767,2587.2679,2587.5182,2589.4463,space,1.9243,,2589.4463,0,55,2590.4475,2590.4476,2590.4498,,,,0,45,45,45,1,50,175,,,,,,,,
,,5ed263aeba65480a03b6c31f,65af54b8ebaa6ae4e2c75634,2024-01-23_07h55.48.335,bars,2023.2.3,Win32,117.6470588,657b66ea316d21385b68909f,,,,,,,,,,,2590.4499,2591.4492,,,2591.9499,2592.2003,,42,42,,,,,,,,,,,,,,,,bars/011.png,bars/mask007.png,,,,,,,,,,,,0,2,,,,,,,8,2,7,3,,,,,,,,,,,2591.4492,2591.9499,2592.2003,2595.2216,space,3.013,,2595.2217,62,43,2596.2232,2596.2232,2596.231,,,,0,46,46,46,1,160,85,,,,,,,,
,,5ed263aeba65480a03b6c31f,65af54b8ebaa6ae4e2c75634,2024-01-23_07h55.48.335,bars,2023.2.3,Win32,117.6470588,657b66ea316d21385b68909f,,,,,,,,,,,2596.2312,2597.233,,,2597.7339,2597.9841,,76,76,,,,,,,,,,,,,,,,bars/041.png,bars/mask002.png,,,,,,,,,,,,0,2,,,,,,,10,0,10,0,,,,,,,,,,,2597.233,2597.7338,2597.9841,2599.3363,space,1.3448,,2599.3363,56,9,2600.3377,2600.3377,2600.3385,,,,0,47,47,47,1,20,85,,,,,,,,
,,5ed263aeba65480a03b6c31f,65af54b8ebaa6ae4e2c75634,2024-01-23_07h55.48.335,bars,2023.2.3,Win32,117.6470588,657b66ea316d21385b68909f,,,,,,,,,,,2600.3389,2601.3392,,,2601.84,2602.0904,,129,129,,,,,,,,,,,,,,,,bars/001.png,bars/mask000.png,,,,,,,,,,,,6,1,,,,,,,8,2,6,2,,,,,,,,,,,2601.3392,2601.84,2602.0905,2605.4955,space,3.3998,,2605.4955,1,44,2606.497,2606.497,2606.5053,,,,0,48,48,48,1,130,85,,,,,,,,
,,5ed263aeba65480a03b6c31f,65af54b8ebaa6ae4e2c75634,2024-01-23_07h55.48.335,bars,2023.2.3,Win32,117.6470588,657b66ea316d21385b68909f,,,,,,,,,,,2606.5054,2607.5069,,,2608.0078,2608.2581,,170,170,,,,,,,,,,,,,,,,bars/046.png,bars/mask004.png,,,,,,,,,,,,5,1,,,,,,,10,4,9,4,,,,,,,,,,,2607.5069,2608.0078,2608.2581,2611.5715,space,3.3068,,2611.5715,15,85,2612.573,2612.573,2612.5798,,,,0,49,49,49,1,155,85,,,,,,,,
,,5ed263aeba65480a03b6c31f,65af54b8ebaa6ae4e2c75634,2024-01-23_07h55.48.335,bars,2023.2.3,Win32,117.6470588,657b66ea316d21385b68909f,,,,,,,,,,,,,,,,,,,,,,,,,,,,,,,,,,,,,,,,,,,,,,,,,,,,,,,,,,,,,,,,,,,,,,,,,,,,,,,,,,,,,,,,,,,,,2612.58,2672.5809,0,3,3,2,1,sequence_tables/blk036.csv
,,5ed263aeba65480a03b6c31f,65af54b8ebaa6ae4e2c75634,2024-01-23_07h55.48.335,bars,2023.2.3,Win32,117.6470588,657b66ea316d21385b68909f,,,,,,,,,,,2674.721,2675.7192,,,2676.2203,2676.4702,,72,72,,,,,,,,,,,,,,,,bars/007.png,bars/mask002.png,,,,,,,,,,,,4,2,,,,,,,2,9,1,9,,,,,,2672.588,2674.7177,space,2.1227,,2675.7192,2676.2201,2676.4703,2678.0227,space,1.5479,,2678.0227,77,17,2679.0241,2679.0241,2679.031,,,,0,0,0,0,1,175,55,,,,,,,,
,,5ed263aeba65480a03b6c31f,65af54b8ebaa6ae4e2c75634,2024-01-23_07h55.48.335,bars,2023.2.3,Win32,117.6470588,657b66ea316d21385b68909f,,,,,,,,,,,2679.0313,2680.0259,,,2680.5267,2680.7771,,147,-33,,,,,,,,,,,,,,,,bars/043.png,bars/mask004.png,,,,,,,,,,,,3,2,,,,,,,4,7,7,6,,,,,,,,,,,2680.0259,2680.5267,2680.7771,2683.2809,space,2.4965,,2683.2809,63,17,2684.2821,2684.2821,2684.2889,,,,0,1,1,1,1,30,130,,,,,,,,
,,5ed263aeba65480a03b6c31f,65af54b8ebaa6ae4e2c75634,2024-01-23_07h55.48.335,bars,2023.2.3,Win32,117.6470588,657b66ea316d21385b68909f,,,,,,,,,,,2684.2892,2685.2836,,,2685.7845,2686.0348,,43,43,,,,,,,,,,,,,,,,bars/032.png,bars/mask002.png,,,,,,,,,,,,2,2,,,,,,,6,9,6,8,,,,,,,,,,,2685.2837,2685.7845,2686.0349,2689.9909,space,3.9478,,2689.991,82,23,2690.9923,2690.9923,2690.9993,,,,0,2,2,2,1,125,20,,,,,,,,
,,5ed263aeba65480a03b6c31f,65af54b8ebaa6ae4e2c75634,2024-01-23_07h55.48.335,bars,2023.2.3,Win32,117.6470588,657b66ea316d21385b68909f,,,,,,,,,,,2690.9995,2691.9938,,,2692.4948,2692.7451,,145,-35,,,,,,,,,,,,,,,,bars/039.png,bars/mask004.png,,,,,,,,,,,,0,1,,,,,,,8,7,6,8,,,,,,,,,,,2691.9938,2692.4948,2692.7451,2695.6412,space,2.8925,,2695.6412,30,40,2696.6425,2696.6426,2696.6506,,,,0,3,3,3,1,175,105,,,,,,,,
,,5ed263aeba65480a03b6c31f,65af54b8ebaa6ae4e2c75634,2024-01-23_07h55.48.335,bars,2023.2.3,Win32,117.6470588,657b66ea316d21385b68909f,,,,,,,,,,,2696.6507,2697.6527,,,2698.1533,2698.4035,,18,18,,,,,,,,,,,,,,,,bars/004.png,bars/mask000.png,,,,,,,,,,,,4,1,,,,,,,6,9,5,9,,,,,,,,,,,2697.6528,2698.1533,2698.4035,2700.0398,space,1.6283,,2700.0398,7,73,2701.041,2701.041,2701.0486,,,,0,4,4,4,1,25,125,,,,,,,,
,,5ed263aeba65480a03b6c31f,65af54b8ebaa6ae4e2c75634,2024-01-23_07h55.48.335,bars,2023.2.3,Win32,117.6470588,657b66ea316d21385b68909f,,,,,,,,,,,2701.0488,2702.0427,,,2702.5433,2702.7936,,22,202,,,,,,,,,,,,,,,,bars/025.png,bars/mask004.png,,,,,,,,,,,,3,2,,,,,,,8,7,8,8,,,,,,,,,,,2702.0427,2702.5433,2702.7937,2706.1738,space,3.3721,,2706.1738,83,18,2707.1754,2707.1754,2707.1834,,,,0,5,5,5,1,105,40,,,,,,,,
,,5ed263aeba65480a03b6c31f,65af54b8ebaa6ae4e2c75634,2024-01-23_07h55.48.335,bars,2023.2.3,Win32,117.6470588,657b66ea316d21385b68909f,,,,,,,,,,,2707.1835,2708.1851,,,2708.6862,2708.9363,,125,125,,,,,,,,,,,,,,,,bars/019.png,bars/mask000.png,,,,,,,,,,,,2,2,,,,,,,6,5,6,7,,,,,,,,,,,2708.1852,2708.6862,2708.9363,2712.6337,space,3.6895,,2712.6338,80,20,2713.6353,2713.6353,2713.6428,,,,0,6,6,6,1,45,105,,,,,,,,
,,5ed263aeba65480a03b6c31f,65af54b8ebaa6ae4e2c75634,2024-01-23_07h55.48.335,bars,2023.2.3,Win32,117.6470588,657b66ea316d21385b68909f,,,,,,,,,,,2713.643,2714.645,,,2715.1458,2715.3961,,5,185,,,,,,,,,,,,,,,,bars/043.png,bars/mask007.png,,,,,,,,,,,,0,1,,,,,,,4,7,2,6,,,,,,,,,,,2714.6451,2715.1458,2715.3961,2717.925,space,2.5216,,2717.9251,25,55,2718.9266,2718.9266,2718.9342,,,,0,7,7,7,1,30,130,,,,,,,,
,,5ed263aeba65480a03b6c31f,65af54b8ebaa6ae4e2c75634,2024-01-23_07h55.48.335,bars,2023.2.3,Win32,117.6470588,657b66ea316d21385b68909f,,,,,,,,,,,2718.9343,2719.9363,,,2720.4375,2720.6876,,75,75,,,,,,,,,,,,,,,,bars/038.png,bars/mask008.png,,,,,,,,,,,,7,2,,,,,,,2,9,2,8,,,,,,,,,,,2719.9364,2720.4374,2720.6877,2724.0762,space,3.3816,,2724.0762,90,5,2725.0776,2725.0776,2725.0849,,,,0,8,8,8,1,165,70,,,,,,,,
,,5ed263aeba65480a03b6c31f,65af54b8ebaa6ae4e2c75634,2024-01-23_07h55.48.335,bars,2023.2.3,Win32,117.6470588,657b66ea316d21385b68909f,,,,,,,,,,,2725.085,2726.0792,,,2726.5799,2726.8303,,149,-31,,,,,,,,,,,,,,,,bars/028.png,bars/mask009.png,,,,,,,,,,,,0,2,,,,,,,0,10,1,10,,,,,,,,,,,2726.0792,2726.5799,2726.8303,2731.4623,space,4.6263,,2731.4624,76,29,2732.4638,2732.4639,2732.4715,,,,0,9,9,9,1,45,120,,,,,,,,
,,5ed263aeba65480a03b6c31f,65af54b8ebaa6ae4e2c75634,2024-01-23_07h55.48.335,bars,2023.2.3,Win32,117.6470588,657b66ea316d21385b68909f,,,,,,,,,,,2732.4717,2733.4738,,,2733.9745,2734.2249,,3,183,,,,,,,,,,,,,,,,bars/009.png,bars/mask001.png,,,,,,,,,,,,2,1,,,,,,,2,8,3,7,,,,,,,,,,,2733.4738,2733.9745,2734.2249,2737.7886,space,3.5564,,2737.7887,12,78,2738.7902,2738.7902,2738.797,,,,0,10,10,10,1,15,105,,,,,,,,
