init_variables.started,init_variables.stopped,participant,session,date,expName,psychopyVersion,OS,frameRate,study_id,instruction_exp.started,instruction_exp.stopped,key_resp_8.keys,key_resp_8.rt,key_resp_8.duration,instruction_single.started,instruction_single.stopped,key_resp_2.keys,key_resp_2.rt,key_resp_2.duration,interval.started,interval.stopped,cue_single.started,cue_single.stopped,mask.started,mask.stopped,ori_response_single.started,res_ori,res,ori_response_single.stopped,key_resp_single.keys,key_resp_single.rt,key_resp_single.duration,disp_single.started,disp_single.stopped,key_resp.keys,key_resp.rt,key_resp.duration,single.thisRepN,single.thisTrialN,single.thisN,single.thisIndex,single.ran,ori,path,mask_path,instruction_bandit.started,instruction_bandit.stopped,key_resp_6.keys,key_resp_6.rt,key_resp_6.duration,cue_bandit.started,cue_bandit.stopped,bandit_res.keys,bandit_res.rt,bandit_res.duration,outcome_bandit.started,rew,action,outcome_bandit.stopped,bandit.thisRepN,bandit.thisTrialN,bandit.thisN,bandit.thisIndex,bandit.ran,actual_rew1,actual_rew2,rew1,rew2,instruction_task.started,instruction_task.stopped,key_resp_7.keys,key_resp_7.rt,key_resp_7.duration,wait_ready.started,wait_ready.stopped,key_resp_3.keys,key_resp_3.rt,key_resp_3.duration,cue.started,cue.stopped,ori_response.started,ori_response.stopped,key_resp_5.keys,key_resp_5.rt,key_resp_5.duration,outcome.started,diff1,diff2,outcome.stopped,disp_outcome_practice.started,disp_outcome_practice.stopped,key_resp_4.keys,key_resp_4.rt,key_resp_4.duration,trials.thisRepN,trials.thisTrialN,trials.thisN,trials.thisIndex,trials.ran,ori1,ori2,break_blk.started,break_blk.stopped,block.thisRepN,block.thisTrialN,block.thisN,block.thisIndex,block.ran,condition_file
0.0035,0.004,614e351010435c9f51dee6bf,65af5608941b6f73074ccf9c,2024-01-23_08h08.04.163,bars,2023.2.3,Win32,0.613911228,657b66ea316d21385b68909f,,,,,,,,,,,,,,,,,,,,,,,,,,,,,,,,,,,,,,,,,,,,,,,,,,,,,,,,,,,,,,,,,,,,,,,,,,,,,,,,,,,,,,,,,,,,,,,,,,,,
,,614e351010435c9f51dee6bf,65af5608941b6f73074ccf9c,2024-01-23_08h08.04.163,bars,2023.2.3,Win32,0.613911228,657b66ea316d21385b68909f,0.0056,25.7076,y,24.3883,0.0017,,,,,,,,,,,,,,,,,,,,,,,,,,,,,,,,,,,,,,,,,,,,,,,,,,,,,,,,,,,,,,,,,,,,,,,,,,,,,,,,,,,,,,,,,,,,,,,
,,614e351010435c9f51dee6bf,65af5608941b6f73074ccf9c,2024-01-23_08h08.04.163,bars,2023.2.3,Win32,0.613911228,657b66ea316d21385b68909f,,,,,,25.7081,56.9721,space,29.8997,0.001,,,,,,,,,,,,,,,,,,,,,,,,,,,,,,,,,,,,,,,,,,,,,,,,,,,,,,,,,,,,,,,,,,,,,,,,,,,,,,,,,,,,,,,,,,
,,614e351010435c9f51dee6bf,65af5608941b6f73074ccf9c,2024-01-23_08h08.04.163,bars,2023.2.3,Win32,0.613911228,657b66ea316d21385b68909f,,,,,,,,,,,57.0446,58.2591,58.2593,58.3048,58.3052,58.309,58.3093,138,138,84.6962,space,24.9876,0.0012,84.6964,107.4729,space,22.3052,0.0007,0,0,0,1,1,20,bars/single001.png,bars/mask006.png,,,,,,,,,,,,,,,,,,,,,,,,,,,,,,,,,,,,,,,,,,,,,,,,,,,,,,,,,,,,,,,,
,,614e351010435c9f51dee6bf,65af5608941b6f73074ccf9c,2024-01-23_08h08.04.163,bars,2023.2.3,Win32,0.613911228,657b66ea316d21385b68909f,,,,,,,,,,,107.4872,108.4295,108.4297,108.9836,108.9837,108.9859,108.9868,8,8,153.1268,space,43.6618,0.0008,153.1269,166.5217,space,12.8992,0.0008,0,1,1,6,1,175,bars/single006.png,bars/mask005.png,,,,,,,,,,,,,,,,,,,,,,,,,,,,,,,,,,,,,,,,,,,,,,,,,,,,,,,,,,,,,,,,
,,614e351010435c9f51dee6bf,65af5608941b6f73074ccf9c,2024-01-23_08h08.04.163,bars,2023.2.3,Win32,0.613911228,657b66ea316d21385b68909f,,,,,,,,,,,166.5368,167.4971,167.4972,167.9951,167.9953,167.9973,167.9974,177,177,191.7345,space,23.2505,,191.7345,201.4499,space,9.202,,0,2,2,7,1,45,bars/single007.png,bars/mask009.png,,,,,,,,,,,,,,,,,,,,,,,,,,,,,,,,,,,,,,,,,,,,,,,,,,,,,,,,,,,,,,,,
,,614e351010435c9f51dee6bf,65af5608941b6f73074ccf9c,2024-01-23_08h08.04.163,bars,2023.2.3,Win32,0.613911228,657b66ea316d21385b68909f,,,,,,,,,,,201.4649,202.4376,202.4376,202.9638,202.9638,202.9655,202.9655,179,179,216.7222,space,13.2598,0.0003,216.7223,229.7562,space,12.5105,,0,3,3,4,1,95,bars/single004.png,bars/mask004.png,,,,,,,,,,,,,,,,,,,,,,,,,,,,,,,,,,,,,,,,,,,,,,,,,,,,,,,,,,,,,,,,
,,614e351010435c9f51dee6bf,65af5608941b6f73074ccf9c,2024-01-23_08h08.04.163,bars,2023.2.3,Win32,0.613911228,657b66ea316d21385b68909f,,,,,,,,,,,229.771,230.7209,230.721,231.226,231.226,231.2272,231.2273,20,20,244.6923,space,12.9731,0.0008,244.6924,252.1236,space,6.9288,0.0006,0,4,4,2,1,145,bars/single002.png,bars/mask003.png,,,,,,,,,,,,,,,,,,,,,,,,,,,,,,,,,,,,,,,,,,,,,,,,,,,,,,,,,,,,,,,,
,,614e351010435c9f51dee6bf,65af5608941b6f73074ccf9c,2024-01-23_08h08.04.163,bars,2023.2.3,Win32,0.613911228,657b66ea316d21385b68909f,,,,,,,,,,,252.1415,253.103,253.1031,253.611,253.6111,253.6129,253.613,95,95,270.522,space,16.4227,,270.5223,280.0269,space,9.0106,,0,5,5,5,1,55,bars/single005.png,bars/mask008.png,,,,,,,,,,,,,,,,,,,,,,,,,,,,,,,,,,,,,,,,,,,,,,,,,,,,,,,,,,,,,,,,
,,614e351010435c9f51dee6bf,65af5608941b6f73074ccf9c,2024-01-23_08h08.04.163,bars,2023.2.3,Win32,0.613911228,657b66ea316d21385b68909f,,,,,,,,,,,280.0412,281.0177,281.0177,281.5195,281.5195,281.5216,281.5216,130,130,309.574,space,27.4782,,309.5754,314.4352,space,4.2961,0.0005,0,6,6,0,1,150,bars/single000.png,bars/mask006.png,,,,,,,,,,,,,,,,,,,,,,,,,,,,,,,,,,,,,,,,,,,,,,,,,,,,,,,,,,,,,,,,
,,614e351010435c9f51dee6bf,65af5608941b6f73074ccf9c,2024-01-23_08h08.04.163,bars,2023.2.3,Win32,0.613911228,657b66ea316d21385b68909f,,,,,,,,,,,314.4364,315.4382,315.4382,315.9409,315.941,315.942,315.942,59,59,342.1171,space,25.6797,0.0006,342.1171,352.2759,space,9.6163,0.0004,0,7,7,9,1,20,bars/single009.png,bars/mask006.png,,,,,,,,,,,,,,,,,,,,,,,,,,,,,,,,,,,,,,,,,,,,,,,,,,,,,,,,,,,,,,,,
,,614e351010435c9f51dee6bf,65af5608941b6f73074ccf9c,2024-01-23_08h08.04.163,bars,2023.2.3,Win32,0.613911228,657b66ea316d21385b68909f,,,,,,,,,,,352.2904,353.2483,353.2483,353.7662,353.7663,353.7679,353.768,150,150,373.0786,space,18.8209,0.0006,373.0786,379.98,space,6.4004,,0,8,8,8,1,160,bars/single008.png,bars/mask004.png,,,,,,,,,,,,,,,,,,,,,,,,,,,,,,,,,,,,,,,,,,,,,,,,,,,,,,,,,,,,,,,,
,,614e351010435c9f51dee6bf,65af5608941b6f73074ccf9c,2024-01-23_08h08.04.163,bars,2023.2.3,Win32,0.613911228,657b66ea316d21385b68909f,,,,,,,,,,,379.9944,380.9786,380.9787,381.4805,381.4806,381.4824,381.4825,121,121,394.6523,space,12.693,,394.6524,399.4405,space,4.2736,,0,9,9,3,1,20,bars/single003.png,bars/mask005.png,,,,,,,,,,,,,,,,,,,,,,,,,,,,,,,,,,,,,,,,,,,,,,,,,,,,,,,,,,,,,,,,
,,614e351010435c9f51dee6bf,65af5608941b6f73074ccf9c,2024-01-23_08h08.04.163,bars,2023.2.3,Win32,0.613911228,657b66ea316d21385b68909f,,,,,,,,,,,,,,,,,,,,,,,,,,,,,,,,,,,,,399.4554,432.4193,space,32.4465,0.0005,,,,,,,,,,,,,,,,,,,,,,,,,,,,,,,,,,,,,,,,,,,,,,,,,,,,,,,,,,,
,,614e351010435c9f51dee6bf,65af5608941b6f73074ccf9c,2024-01-23_08h08.04.163,bars,2023.2.3,Win32,0.613911228,657b66ea316d21385b68909f,,,,,,,,,,,,,,,,,,,,,,,,,,,,,,,,,,,,,,,,,,432.4369,438.092,right,5.1715,0.0004,438.0921,2,2,439.057,0,0,0,0,1,9,1,9,2,,,,,,,,,,,,,,,,,,,,,,,,,,,,,,,,,,,,,,,,,
,,614e351010435c9f51dee6bf,65af5608941b6f73074ccf9c,2024-01-23_08h08.04.163,bars,2023.2.3,Win32,0.613911228,657b66ea316d21385b68909f,,,,,,,,,,,,,,,,,,,,,,,,,,,,,,,,,,,,,,,,,,439.0581,443.783,left,4.2223,,443.783,10,1,444.8174,0,1,1,1,1,10,0,10,1,,,,,,,,,,,,,,,,,,,,,,,,,,,,,,,,,,,,,,,,,
,,614e351010435c9f51dee6bf,65af5608941b6f73074ccf9c,2024-01-23_08h08.04.163,bars,2023.2.3,Win32,0.613911228,657b66ea316d21385b68909f,,,,,,,,,,,,,,,,,,,,,,,,,,,,,,,,,,,,,,,,,,444.8315,447.9095,left,2.6031,,447.9096,10,1,448.9094,0,2,2,2,1,10,2,10,2,,,,,,,,,,,,,,,,,,,,,,,,,,,,,,,,,,,,,,,,,
,,614e351010435c9f51dee6bf,65af5608941b6f73074ccf9c,2024-01-23_08h08.04.163,bars,2023.2.3,Win32,0.613911228,657b66ea316d21385b68909f,,,,,,,,,,,,,,,,,,,,,,,,,,,,,,,,,,,,,,,,,,448.923,452.014,left,2.6095,,452.0141,7,1,452.987,0,3,3,3,1,8,4,7,3,,,,,,,,,,,,,,,,,,,,,,,,,,,,,,,,,,,,,,,,,
,,614e351010435c9f51dee6bf,65af5608941b6f73074ccf9c,2024-01-23_08h08.04.163,bars,2023.2.3,Win32,0.613911228,657b66ea316d21385b68909f,,,,,,,,,,,,,,,,,,,,,,,,,,,,,,,,,,,,,,,,,,452.9882,455.7674,right,2.1675,0.0009,455.7674,1,2,456.7574,0,4,4,4,1,6,2,5,1,,,,,,,,,,,,,,,,,,,,,,,,,,,,,,,,,,,,,,,,,
,,614e351010435c9f51dee6bf,65af5608941b6f73074ccf9c,2024-01-23_08h08.04.163,bars,2023.2.3,Win32,0.613911228,657b66ea316d21385b68909f,,,,,,,,,,,,,,,,,,,,,,,,,,,,,,,,,,,,,,,,,,456.7714,459.8941,left,2.5948,0.0004,459.8942,4,1,460.9049,0,5,5,5,1,4,4,4,4,,,,,,,,,,,,,,,,,,,,,,,,,,,,,,,,,,,,,,,,,
,,614e351010435c9f51dee6bf,65af5608941b6f73074ccf9c,2024-01-23_08h08.04.163,bars,2023.2.3,Win32,0.613911228,657b66ea316d21385b68909f,,,,,,,,,,,,,,,,,,,,,,,,,,,,,,,,,,,,,,,,,,460.9059,462.4566,left,1.0567,0.0004,462.4567,1,1,463.4678,0,6,6,6,1,2,2,1,2,,,,,,,,,,,,,,,,,,,,,,,,,,,,,,,,,,,,,,,,,
,,614e351010435c9f51dee6bf,65af5608941b6f73074ccf9c,2024-01-23_08h08.04.163,bars,2023.2.3,Win32,0.613911228,657b66ea316d21385b68909f,,,,,,,,,,,,,,,,,,,,,,,,,,,,,,,,,,,,,,,,,,463.469,465.6535,right,1.6919,0.0002,465.6536,1,2,466.6228,0,7,7,7,1,0,0,0,1,,,,,,,,,,,,,,,,,,,,,,,,,,,,,,,,,,,,,,,,,
,,614e351010435c9f51dee6bf,65af5608941b6f73074ccf9c,2024-01-23_08h08.04.163,bars,2023.2.3,Win32,0.613911228,657b66ea316d21385b68909f,,,,,,,,,,,,,,,,,,,,,,,,,,,,,,,,,,,,,,,,,,466.6241,468.7643,right,1.6205,0.0004,468.7644,0,2,469.7919,0,8,8,8,1,0,2,1,0,,,,,,,,,,,,,,,,,,,,,,,,,,,,,,,,,,,,,,,,,
,,614e351010435c9f51dee6bf,65af5608941b6f73074ccf9c,2024-01-23_08h08.04.163,bars,2023.2.3,Win32,0.613911228,657b66ea316d21385b68909f,,,,,,,,,,,,,,,,,,,,,,,,,,,,,,,,,,,,,,,,,,469.806,471.8691,left,1.5924,0.0004,471.8692,2,1,472.8891,0,9,9,9,1,2,4,2,3,,,,,,,,,,,,,,,,,,,,,,,,,,,,,,,,,,,,,,,,,
,,614e351010435c9f51dee6bf,65af5608941b6f73074ccf9c,2024-01-23_08h08.04.163,bars,2023.2.3,Win32,0.613911228,657b66ea316d21385b68909f,,,,,,,,,,,,,,,,,,,,,,,,,,,,,,,,,,,,,,,,,,472.8899,474.5366,left,1.1361,0.0003,474.5366,0,1,475.574,0,10,10,10,1,0,2,0,3,,,,,,,,,,,,,,,,,,,,,,,,,,,,,,,,,,,,,,,,,
,,614e351010435c9f51dee6bf,65af5608941b6f73074ccf9c,2024-01-23_08h08.04.163,bars,2023.2.3,Win32,0.613911228,657b66ea316d21385b68909f,,,,,,,,,,,,,,,,,,,,,,,,,,,,,,,,,,,,,,,,,,475.5755,476.6716,left,0.5361,,476.6716,0,1,477.6651,0,11,11,11,1,0,4,0,3,,,,,,,,,,,,,,,,,,,,,,,,,,,,,,,,,,,,,,,,,
,,614e351010435c9f51dee6bf,65af5608941b6f73074ccf9c,2024-01-23_08h08.04.163,bars,2023.2.3,Win32,0.613911228,657b66ea316d21385b68909f,,,,,,,,,,,,,,,,,,,,,,,,,,,,,,,,,,,,,,,,,,477.6665,479.2394,right,1.0902,0.0005,479.2395,6,2,480.2022,0,12,12,12,1,2,6,1,6,,,,,,,,,,,,,,,,,,,,,,,,,,,,,,,,,,,,,,,,,
,,614e351010435c9f51dee6bf,65af5608941b6f73074ccf9c,2024-01-23_08h08.04.163,bars,2023.2.3,Win32,0.613911228,657b66ea316d21385b68909f,,,,,,,,,,,,,,,,,,,,,,,,,,,,,,,,,,,,,,,,,,480.2036,481.7614,right,1.071,0.0005,481.7614,3,2,482.7518,0,13,13,13,1,0,4,1,3,,,,,,,,,,,,,,,,,,,,,,,,,,,,,,,,,,,,,,,,,
,,614e351010435c9f51dee6bf,65af5608941b6f73074ccf9c,2024-01-23_08h08.04.163,bars,2023.2.3,Win32,0.613911228,657b66ea316d21385b68909f,,,,,,,,,,,,,,,,,,,,,,,,,,,,,,,,,,,,,,,,,,482.7531,484.8766,left,1.6338,0.0005,484.8767,2,1,485.8706,0,14,14,14,1,2,6,2,7,,,,,,,,,,,,,,,,,,,,,,,,,,,,,,,,,,,,,,,,,
,,614e351010435c9f51dee6bf,65af5608941b6f73074ccf9c,2024-01-23_08h08.04.163,bars,2023.2.3,Win32,0.613911228,657b66ea316d21385b68909f,,,,,,,,,,,,,,,,,,,,,,,,,,,,,,,,,,,,,,,,,,485.8715,487.4111,right,1.0543,0.0005,487.4112,9,2,488.4234,0,15,15,15,1,4,8,3,9,,,,,,,,,,,,,,,,,,,,,,,,,,,,,,,,,,,,,,,,,
,,614e351010435c9f51dee6bf,65af5608941b6f73074ccf9c,2024-01-23_08h08.04.163,bars,2023.2.3,Win32,0.613911228,657b66ea316d21385b68909f,,,,,,,,,,,,,,,,,,,,,,,,,,,,,,,,,,,,,,,,,,488.4248,489.4657,right,0.5577,,489.4658,7,2,490.4368,0,16,16,16,1,6,6,7,7,,,,,,,,,,,,,,,,,,,,,,,,,,,,,,,,,,,,,,,,,
,,614e351010435c9f51dee6bf,65af5608941b6f73074ccf9c,2024-01-23_08h08.04.163,bars,2023.2.3,Win32,0.613911228,657b66ea316d21385b68909f,,,,,,,,,,,,,,,,,,,,,,,,,,,,,,,,,,,,,,,,,,490.4378,492.0017,right,1.0632,0.0005,492.0018,5,2,493.039,0,17,17,17,1,8,4,9,5,,,,,,,,,,,,,,,,,,,,,,,,,,,,,,,,,,,,,,,,,
,,614e351010435c9f51dee6bf,65af5608941b6f73074ccf9c,2024-01-23_08h08.04.163,bars,2023.2.3,Win32,0.613911228,657b66ea316d21385b68909f,,,,,,,,,,,,,,,,,,,,,,,,,,,,,,,,,,,,,,,,,,493.0405,494.0994,right,0.5616,0.0005,494.0998,1,2,495.144,0,18,18,18,1,6,2,5,1,,,,,,,,,,,,,,,,,,,,,,,,,,,,,,,,,,,,,,,,,
,,614e351010435c9f51dee6bf,65af5608941b6f73074ccf9c,2024-01-23_08h08.04.163,bars,2023.2.3,Win32,0.613911228,657b66ea316d21385b68909f,,,,,,,,,,,,,,,,,,,,,,,,,,,,,,,,,,,,,,,,,,495.1454,496.1813,left,0.5317,,496.1814,7,1,497.2004,0,19,19,19,1,8,0,7,0,,,,,,,,,,,,,,,,,,,,,,,,,,,,,,,,,,,,,,,,,
,,614e351010435c9f51dee6bf,65af5608941b6f73074ccf9c,2024-01-23_08h08.04.163,bars,2023.2.3,Win32,0.613911228,657b66ea316d21385b68909f,,,,,,,,,,,,,,,,,,,,,,,,,,,,,,,,,,,,,,,,,,,,,,,,,,,,,,,,,,,,497.2011,536.6574,space,38.8736,0.0005,,,,,,,,,,,,,,,,,,,,,,,,,,,,,,,,,,,,
,,614e351010435c9f51dee6bf,65af5608941b6f73074ccf9c,2024-01-23_08h08.04.163,bars,2023.2.3,Win32,0.613911228,657b66ea316d21385b68909f,,,,,,,,,,,540.6796,541.6362,,,542.1425,542.1434,,147,147,,,,,,,,,,,,,,,,bars/018.png,bars/mask005.png,,,,,,,,,,,,9,1,,,,,,,9,7,10,7,,,,,,536.6757,540.6688,space,3.5366,0.0007,541.6367,542.1425,542.1437,553.7506,space,11.1232,0.0007,553.7509,3,57,554.7525,554.7528,564.6101,space,9.3514,,0,0,0,0,1,150,90,,,,,,,,
,,614e351010435c9f51dee6bf,65af5608941b6f73074ccf9c,2024-01-23_08h08.04.163,bars,2023.2.3,Win32,0.613911228,657b66ea316d21385b68909f,,,,,,,,,,,564.6251,565.6215,,,566.1246,566.1267,,135,135,,,,,,,,,,,,,,,,bars/038.png,bars/mask001.png,,,,,,,,,,,,0,1,,,,,,,7,5,7,4,,,,,,,,,,,565.6216,566.1245,566.1268,577.7243,space,11.0667,,577.726,30,65,578.7508,578.7509,585.8886,space,6.6217,0.0007,0,1,1,1,1,165,70,,,,,,,,
,,614e351010435c9f51dee6bf,65af5608941b6f73074ccf9c,2024-01-23_08h08.04.163,bars,2023.2.3,Win32,0.613911228,657b66ea316d21385b68909f,,,,,,,,,,,585.9024,586.9117,,,587.4217,587.4224,,26,26,,,,,,,,,,,,,,,,bars/002.png,bars/mask001.png,,,,,,,,,,,,0,2,,,,,,,5,7,3,7,,,,,,,,,,,586.9118,587.4217,587.4224,601.5437,space,13.6361,0.0004,601.5438,76,59,602.535,602.5351,606.822,space,3.7804,,0,2,2,2,1,130,85,,,,,,,,
,,614e351010435c9f51dee6bf,65af5608941b6f73074ccf9c,2024-01-23_08h08.04.163,bars,2023.2.3,Win32,0.613911228,657b66ea316d21385b68909f,,,,,,,,,,,606.8352,607.7909,,,608.2907,608.2925,,131,131,,,,,,,,,,,,,,,,bars/046.png,bars/mask004.png,,,,,,,,,,,,1,1,,,,,,,7,5,6,6,,,,,,,,,,,607.7911,608.2906,608.2925,621.4737,space,12.6704,0.0007,621.4738,24,46,622.4717,622.4718,626.7305,space,3.7488,0.0008,0,3,3,3,1,155,85,,,,,,,,
,,614e351010435c9f51dee6bf,65af5608941b6f73074ccf9c,2024-01-23_08h08.04.163,bars,2023.2.3,Win32,0.613911228,657b66ea316d21385b68909f,,,,,,,,,,,626.7315,627.7254,,,628.2269,628.2281,,89,89,,,,,,,,,,,,,,,,bars/033.png,bars/mask009.png,,,,,,,,,,,,0,1,,,,,,,9,7,9,7,,,,,,,,,,,627.7254,628.2268,628.2281,651.2099,space,22.5076,,651.21,64,66,652.1832,652.1832,656.499,space,3.7714,,0,4,4,4,1,25,155,,,,,,,,
,,614e351010435c9f51dee6bf,65af5608941b6f73074ccf9c,2024-01-23_08h08.04.163,bars,2023.2.3,Win32,0.613911228,657b66ea316d21385b68909f,,,,,,,,,,,656.5132,657.5102,,,658.0389,658.0402,,49,49,,,,,,,,,,,,,,,,bars/007.png,bars/mask002.png,,,,,,,,,,,,4,2,,,,,,,7,5,6,5,,,,,,,,,,,657.5103,658.0389,658.0403,689.9498,space,31.4187,,689.95,54,6,691.0167,691.0168,695.3966,space,3.8223,,0,5,5,5,1,175,55,,,,,,,,
,,614e351010435c9f51dee6bf,65af5608941b6f73074ccf9c,2024-01-23_08h08.04.163,bars,2023.2.3,Win32,0.613911228,657b66ea316d21385b68909f,,,,,,,,,,,695.4112,696.3926,,,696.8996,696.9004,,116,116,,,,,,,,,,,,,,,,bars/018.png,bars/mask008.png,,,,,,,,,,,,0,2,,,,,,,5,3,5,3,,,,,,,,,,,696.3926,696.8995,696.9004,706.6818,space,9.2009,0.0005,706.6818,34,26,707.6666,707.6667,712.0988,space,3.8911,0.0007,0,6,6,6,1,150,90,,,,,,,,
,,614e351010435c9f51dee6bf,65af5608941b6f73074ccf9c,2024-01-23_08h08.04.163,bars,2023.2.3,Win32,0.613911228,657b66ea316d21385b68909f,,,,,,,,,,,712.1131,713.1004,,,713.6308,713.6325,,21,21,,,,,,,,,,,,,,,,bars/042.png,bars/mask006.png,,,,,,,,,,,,0,2,,,,,,,7,1,7,2,,,,,,,,,,,713.1004,713.6308,713.6326,741.7405,space,27.6121,0.0007,741.7406,56,54,742.7277,742.7278,747.1029,space,3.8356,0.0007,0,7,7,7,1,145,75,,,,,,,,
,,614e351010435c9f51dee6bf,65af5608941b6f73074ccf9c,2024-01-23_08h08.04.163,bars,2023.2.3,Win32,0.613911228,657b66ea316d21385b68909f,,,,,,,,,,,747.1039,748.1167,,,748.6157,748.6176,,50,50,,,,,,,,,,,,,,,,bars/013.png,bars/mask000.png,,,,,,,,,,,,1,1,,,,,,,9,3,9,3,,,,,,,,,,,748.1168,748.6156,748.6176,751.7686,space,2.6053,0.0007,751.7688,25,40,752.8091,752.8092,757.2651,space,3.9391,0.0007,0,8,8,8,1,75,10,,,,,,,,
,,614e351010435c9f51dee6bf,65af5608941b6f73074ccf9c,2024-01-23_08h08.04.163,bars,2023.2.3,Win32,0.613911228,657b66ea316d21385b68909f,,,,,,,,,,,757.2795,758.2562,,,758.7698,758.7716,,92,92,,,,,,,,,,,,,,,,bars/040.png,bars/mask007.png,,,,,,,,,,,,0,1,,,,,,,10,5,10,8,,,,,,,,,,,758.2563,758.7698,758.7716,783.0426,space,23.7796,0.0007,783.0427,48,87,784.0575,784.0576,787.4393,space,2.8321,,0,9,9,9,1,140,5,,,,,,,,
,,614e351010435c9f51dee6bf,65af5608941b6f73074ccf9c,2024-01-23_08h08.04.163,bars,2023.2.3,Win32,0.613911228,657b66ea316d21385b68909f,,,,,,,,,,,787.4406,788.5014,,,789.0455,789.0472,,16,16,,,,,,,,,,,,,,,,bars/035.png,bars/mask000.png,,,,,,,,,,,,2,1,,,,,,,8,7,7,5,,,,,,,,,,,788.5014,789.0454,789.0472,800.0351,space,10.478,0.0007,800.0351,21,44,801.0909,801.091,805.6063,space,3.9935,,0,10,10,10,1,175,60,,,,,,,,
,,614e351010435c9f51dee6bf,65af5608941b6f73074ccf9c,2024-01-23_08h08.04.163,bars,2023.2.3,Win32,0.613911228,657b66ea316d21385b68909f,,,,,,,,,,,805.622,806.1143,,,806.1153,806.1163,,92,92,,,,,,,,,,,,,,,,bars/039.png,bars/mask002.png,,,,,,,,,,,,3,2,,,,,,,10,5,10,5,,,,,,,,,,,806.1143,806.1153,806.1163,825.3776,space,18.7531,,825.3778,83,13,826.3903,826.3904,831.8746,space,4.9535,0.0005,0,11,11,11,1,175,105,,,,,,,,
,,614e351010435c9f51dee6bf,65af5608941b6f73074ccf9c,2024-01-23_08h08.04.163,bars,2023.2.3,Win32,0.613911228,657b66ea316d21385b68909f,,,,,,,,,,,831.8756,832.8618,,,833.3855,833.3873,,121,121,,,,,,,,,,,,,,,,bars/016.png,bars/mask006.png,,,,,,,,,,,,0,2,,,,,,,10,3,8,2,,,,,,,,,,,832.8618,833.3854,833.3873,846.3688,space,12.4978,0.0005,846.3688,81,44,847.3916,847.3917,849.5205,space,1.6064,,0,12,12,12,1,40,165,,,,,,,,
,,614e351010435c9f51dee6bf,65af5608941b6f73074ccf9c,2024-01-23_08h08.04.163,bars,2023.2.3,Win32,0.613911228,657b66ea316d21385b68909f,,,,,,,,,,,849.5215,850.4881,,,850.9964,850.9981,,157,157,,,,,,,,,,,,,,,,bars/043.png,bars/mask000.png,,,,,,,,,,,,0,2,,,,,,,8,5,7,5,,,,,,,,,,,850.4881,850.9963,850.9981,861.9385,space,10.4507,0.0007,861.9385,53,27,862.9899,862.99,865.9336,space,2.4017,0.0007,0,13,13,13,1,30,130,,,,,,,,
,,614e351010435c9f51dee6bf,65af5608941b6f73074ccf9c,2024-01-23_08h08.04.163,bars,2023.2.3,Win32,0.613911228,657b66ea316d21385b68909f,,,,,,,,,,,865.9346,866.9593,,,867.5571,867.562,,154,154,,,,,,,,,,,,,,,,bars/035.png,bars/mask006.png,,,,,,,,,,,,3,1,,,,,,,10,7,9,6,,,,,,,,,,,866.9593,867.5571,867.5621,881.3892,space,13.2949,0.0007,881.3893,21,86,882.3797,882.3798,901.6548,space,18.6799,0.0006,0,14,14,14,1,175,60,,,,,,,,
,,614e351010435c9f51dee6bf,65af5608941b6f73074ccf9c,2024-01-23_08h08.04.163,bars,2023.2.3,Win32,0.613911228,657b66ea316d21385b68909f,,,,,,,,,,,901.6697,902.6457,,,903.189,903.1901,,91,91,,,,,,,,,,,,,,,,bars/016.png,bars/mask000.png,,,,,,,,,,,,0,1,,,,,,,8,9,9,10,,,,,,,,,,,902.6458,903.1889,903.1901,921.6528,space,17.9685,0.0006,921.653,51,74,922.6547,922.6548,925.3507,space,2.1734,,0,15,15,15,1,40,165,,,,,,,,
,,614e351010435c9f51dee6bf,65af5608941b6f73074ccf9c,2024-01-23_08h08.04.163,bars,2023.2.3,Win32,0.613911228,657b66ea316d21385b68909f,,,,,,,,,,,925.3515,926.3239,,,926.8244,926.8262,,142,142,,,,,,,,,,,,,,,,bars/002.png,bars/mask004.png,,,,,,,,,,,,4,1,,,,,,,6,10,6,10,,,,,,,,,,,926.324,926.8243,926.8262,933.0758,space,5.7642,0.0006,933.0758,12,57,934.1382,934.1383,936.9932,space,2.2835,,0,16,16,16,1,130,85,,,,,,,,
,,614e351010435c9f51dee6bf,65af5608941b6f73074ccf9c,2024-01-23_08h08.04.163,bars,2023.2.3,Win32,0.613911228,657b66ea316d21385b68909f,,,,,,,,,,,936.9944,937.9743,,,938.4751,938.4768,,141,141,,,,,,,,,,,,,,,,bars/022.png,bars/mask000.png,,,,,,,,,,,,0,1,,,,,,,8,10,8,8,,,,,,,,,,,937.9743,938.4749,938.4768,949.2484,space,10.2612,0.0007,949.2485,46,59,950.2183,950.2184,952.5192,space,1.7628,0.0005,0,17,17,17,1,95,20,,,,,,,,
,,614e351010435c9f51dee6bf,65af5608941b6f73074ccf9c,2024-01-23_08h08.04.163,bars,2023.2.3,Win32,0.613911228,657b66ea316d21385b68909f,,,,,,,,,,,952.5202,953.5436,,,954.0437,954.0454,,20,20,,,,,,,,,,,,,,,,bars/044.png,bars/mask006.png,,,,,,,,,,,,0,2,,,,,,,10,10,10,10,,,,,,,,,,,953.5436,954.0436,954.0455,974.1333,space,19.5979,0.0005,974.1333,55,45,975.2017,975.2017,977.5004,space,1.7402,0.0005,0,18,18,18,1,75,155,,,,,,,,
,,614e351010435c9f51dee6bf,65af5608941b6f73074ccf9c,2024-01-23_08h08.04.163,bars,2023.2.3,Win32,0.613911228,657b66ea316d21385b68909f,,,,,,,,,,,977.5027,978.5264,,,979.0389,979.0401,,66,66,,,,,,,,,,,,,,,,bars/042.png,bars/mask002.png,,,,,,,,,,,,7,2,,,,,,,8,10,8,10,,,,,,,,,,,978.5265,979.0388,979.0401,999.4453,space,19.9089,0.0014,999.4454,79,9,1000.4599,1000.46,1003.2034,space,2.2355,0.0007,0,19,19,19,1,145,75,,,,,,,,
,,614e351010435c9f51dee6bf,65af5608941b6f73074ccf9c,2024-01-23_08h08.04.163,bars,2023.2.3,Win32,0.613911228,657b66ea316d21385b68909f,,,,,,,,,,,1003.2044,1004.2322,,,1004.7305,1004.7336,,0,0,,,,,,,,,,,,,,,,bars/008.png,bars/mask008.png,,,,,,,,,,,,10,2,,,,,,,6,10,6,10,,,,,,,,,,,1004.2322,1004.7305,1004.7336,1025.9303,space,20.6982,0.0007,1025.9304,70,0,1026.922,1026.922,1033.0302,space,5.5605,0.0007,0,20,20,20,1,110,0,,,,,,,,
,,614e351010435c9f51dee6bf,65af5608941b6f73074ccf9c,2024-01-23_08h08.04.163,bars,2023.2.3,Win32,0.613911228,657b66ea316d21385b68909f,,,,,,,,,,,1033.0448,1034.0937,,,1034.6028,1034.6057,,149,149,,,,,,,,,,,,,,,,bars/023.png,bars/mask003.png,,,,,,,,,,,,0,2,,,,,,,8,10,10,10,,,,,,,,,,,1034.0938,1034.6027,1034.6057,1057.2634,space,22.1235,,1057.2635,51,34,1058.3107,1058.3107,1060.5555,space,1.7028,0.0004,0,21,21,21,1,20,115,,,,,,,,
,,614e351010435c9f51dee6bf,65af5608941b6f73074ccf9c,2024-01-23_08h08.04.163,bars,2023.2.3,Win32,0.613911228,657b66ea316d21385b68909f,,,,,,,,,,,1060.5564,1061.5417,,,1062.0403,1062.0419,,124,124,,,,,,,,,,,,,,,,bars/036.png,bars/mask000.png,,,,,,,,,,,,2,1,,,,,,,6,8,8,8,,,,,,,,,,,1061.5425,1062.0402,1062.0419,1073.7542,space,11.2176,0.0003,1073.7542,21,76,1074.7269,1074.727,1077.9645,space,2.7225,,0,22,22,22,1,145,20,,,,,,,,
,,614e351010435c9f51dee6bf,65af5608941b6f73074ccf9c,2024-01-23_08h08.04.163,bars,2023.2.3,Win32,0.613911228,657b66ea316d21385b68909f,,,,,,,,,,,1077.9652,1078.9509,,,1079.4818,1079.4833,,15,15,,,,,,,,,,,,,,,,bars/044.png,bars/mask002.png,,,,,,,,,,,,0,2,,,,,,,8,10,7,9,,,,,,,,,,,1078.9509,1079.4817,1079.4833,1092.6518,space,12.6501,0.0006,1092.6518,60,40,1093.7616,1093.7617,1096.0853,space,1.7797,0.0003,0,23,23,23,1,75,155,,,,,,,,
,,614e351010435c9f51dee6bf,65af5608941b6f73074ccf9c,2024-01-23_08h08.04.163,bars,2023.2.3,Win32,0.613911228,657b66ea316d21385b68909f,,,,,,,,,,,1096.0857,1097.0855,,,1097.0878,1097.0887,,119,119,,,,,,,,,,,,,,,,bars/017.png,bars/mask008.png,,,,,,,,,,,,1,1,,,,,,,6,10,7,10,,,,,,,,,,,1097.0855,1097.0877,1097.0887,1122.3968,space,24.807,0.0007,1122.3969,26,74,1123.3938,1123.3938,1125.6152,space,1.6556,0.0004,0,24,24,24,1,145,45,,,,,,,,
,,614e351010435c9f51dee6bf,65af5608941b6f73074ccf9c,2024-01-23_08h08.04.163,bars,2023.2.3,Win32,0.613911228,657b66ea316d21385b68909f,,,,,,,,,,,1125.6158,1126.6224,,,1127.1455,1127.1473,,24,24,,,,,,,,,,,,,,,,bars/032.png,bars/mask009.png,,,,,,,,,,,,7,2,,,,,,,4,8,4,8,,,,,,,,,,,1126.6224,1127.1454,1127.1474,1138.681,space,11.0217,0.0007,1138.6812,79,4,1139.6889,1139.689,1143.0714,space,2.7797,,0,25,25,25,1,125,20,,,,,,,,
,,614e351010435c9f51dee6bf,65af5608941b6f73074ccf9c,2024-01-23_08h08.04.163,bars,2023.2.3,Win32,0.613911228,657b66ea316d21385b68909f,,,,,,,,,,,1143.0724,1144.0844,,,1144.6203,1144.622,,161,-19,,,,,,,,,,,,,,,,bars/040.png,bars/mask004.png,,,,,,,,,,,,1,1,,,,,,,2,10,3,10,,,,,,,,,,,1144.0845,1144.6202,1144.6221,1165.5231,space,20.4018,0.0007,1165.5231,21,24,1166.5646,1166.5646,1168.8049,space,1.7283,0.0004,0,26,26,26,1,140,5,,,,,,,,
,,614e351010435c9f51dee6bf,65af5608941b6f73074ccf9c,2024-01-23_08h08.04.163,bars,2023.2.3,Win32,0.613911228,657b66ea316d21385b68909f,,,,,,,,,,,1168.8057,1169.8179,,,1170.3371,1170.3386,,14,14,,,,,,,,,,,,,,,,bars/018.png,bars/mask007.png,,,,,,,,,,,,0,1,,,,,,,0,8,0,9,,,,,,,,,,,1169.8179,1170.3371,1170.3386,1173.4633,space,2.6262,0.0006,1173.4634,44,76,1174.5051,1174.5051,1176.2128,space,1.1625,0.0005,0,27,27,27,1,150,90,,,,,,,,
,,614e351010435c9f51dee6bf,65af5608941b6f73074ccf9c,2024-01-23_08h08.04.163,bars,2023.2.3,Win32,0.613911228,657b66ea316d21385b68909f,,,,,,,,,,,1176.2136,1176.7917,,,1177.3275,1177.3283,,169,169,,,,,,,,,,,,,,,,bars/007.png,bars/mask008.png,,,,,,,,,,,,0,1,,,,,,,0,10,0,10,,,,,,,,,,,1176.7918,1177.3274,1177.3283,1185.487,space,7.6503,0.0005,1185.487,6,66,1186.5009,1186.501,1193.2493,space,6.1821,0.0008,0,28,28,28,1,175,55,,,,,,,,
,,614e351010435c9f51dee6bf,65af5608941b6f73074ccf9c,2024-01-23_08h08.04.163,bars,2023.2.3,Win32,0.613911228,657b66ea316d21385b68909f,,,,,,,,,,,1193.2641,1194.2741,,,1194.7869,1194.7879,,20,20,,,,,,,,,,,,,,,,bars/049.png,bars/mask009.png,,,,,,,,,,,,0,1,,,,,,,2,10,2,9,,,,,,,,,,,1194.2742,1194.7868,1194.7879,1206.8405,space,11.5205,0.0006,1206.8405,40,85,1207.8014,1207.8014,1222.4326,space,14.116,0.0005,0,29,29,29,1,160,115,,,,,,,,
,,614e351010435c9f51dee6bf,65af5608941b6f73074ccf9c,2024-01-23_08h08.04.163,bars,2023.2.3,Win32,0.613911228,657b66ea316d21385b68909f,,,,,,,,,,,1222.4463,1223.4084,,,1223.9427,1223.9444,,160,160,,,,,,,,,,,,,,,,bars/033.png,bars/mask005.png,,,,,,,,,,,,7,2,,,,,,,0,8,0,8,,,,,,,,,,,1223.4084,1223.9426,1223.9445,1234.9654,space,10.5323,,1234.9654,45,5,1235.9696,1235.9697,1238.6823,space,2.1656,0.0006,0,30,30,30,1,25,155,,,,,,,,
,,614e351010435c9f51dee6bf,65af5608941b6f73074ccf9c,2024-01-23_08h08.04.163,bars,2023.2.3,Win32,0.613911228,657b66ea316d21385b68909f,,,,,,,,,,,1238.6833,1239.6803,,,1240.1958,1240.1976,,33,33,,,,,,,,,,,,,,,,bars/025.png,bars/mask004.png,,,,,,,,,,,,7,2,,,,,,,2,10,3,9,,,,,,,,,,,1239.6803,1240.1956,1240.1976,1250.8466,space,10.1716,0.0008,1250.8466,72,7,1251.8182,1251.8182,1254.0173,space,1.634,0.0007,0,31,31,31,1,105,40,,,,,,,,
,,614e351010435c9f51dee6bf,65af5608941b6f73074ccf9c,2024-01-23_08h08.04.163,bars,2023.2.3,Win32,0.613911228,657b66ea316d21385b68909f,,,,,,,,,,,1254.0182,1255.0092,,,1255.5507,1255.5518,,32,32,,,,,,,,,,,,,,,,bars/019.png,bars/mask005.png,,,,,,,,,,,,2,1,,,,,,,4,10,3,10,,,,,,,,,,,1255.0093,1255.5506,1255.5519,1267.173,space,11.1292,,1267.1731,13,73,1268.1861,1268.1862,1269.8231,space,1.1312,,0,32,32,32,1,45,105,,,,,,,,
,,614e351010435c9f51dee6bf,65af5608941b6f73074ccf9c,2024-01-23_08h08.04.163,bars,2023.2.3,Win32,0.613911228,657b66ea316d21385b68909f,,,,,,,,,,,1269.824,1270.8072,,,1271.2985,1271.3005,,30,30,,,,,,,,,,,,,,,,bars/044.png,bars/mask001.png,,,,,,,,,,,,0,1,,,,,,,2,10,4,10,,,,,,,,,,,1270.8073,1271.2985,1271.3005,1290.5773,space,18.7792,0.0007,1290.5774,45,55,1291.5676,1291.5676,1293.7719,space,1.6879,0.0005,0,33,33,33,1,75,155,,,,,,,,
,,614e351010435c9f51dee6bf,65af5608941b6f73074ccf9c,2024-01-23_08h08.04.163,bars,2023.2.3,Win32,0.613911228,657b66ea316d21385b68909f,,,,,,,,,,,1293.7728,1294.7367,,,1295.2498,1295.251,,134,134,,,,,,,,,,,,,,,,bars/001.png,bars/mask008.png,,,,,,,,,,,,0,1,,,,,,,0,8,0,8,,,,,,,,,,,1294.7367,1295.2497,1295.2511,1308.086,space,12.3114,0.0006,1308.086,4,49,1309.0663,1309.0664,1311.7498,space,2.1538,0.0013,0,34,34,34,1,130,85,,,,,,,,
,,614e351010435c9f51dee6bf,65af5608941b6f73074ccf9c,2024-01-23_08h08.04.163,bars,2023.2.3,Win32,0.613911228,657b66ea316d21385b68909f,,,,,,,,,,,1311.7507,1312.7515,,,1313.2588,1313.2603,,0,180,,,,,,,,,,,,,,,,bars/025.png,bars/mask009.png,,,,,,,,,,,,0,2,,,,,,,2,6,2,6,,,,,,,,,,,1312.7515,1313.2586,1313.2604,1326.0713,space,12.3181,0.0006,1326.0713,75,40,1327.1017,1327.1017,1331.1206,space,3.4362,0.0008,0,35,35,35,1,105,40,,,,,,,,
,,614e351010435c9f51dee6bf,65af5608941b6f73074ccf9c,2024-01-23_08h08.04.163,bars,2023.2.3,Win32,0.613911228,657b66ea316d21385b68909f,,,,,,,,,,,1331.1218,1332.1142,,,1332.64,1332.642,,117,117,,,,,,,,,,,,,,,,bars/036.png,bars/mask006.png,,,,,,,,,,,,0,1,,,,,,,4,4,4,4,,,,,,,,,,,1332.1142,1332.64,1332.642,1338.8735,space,5.6948,0.0043,1338.8736,28,83,1339.3795,1339.3796,1342.7344,space,2.8367,0.0004,0,36,36,36,1,145,20,,,,,,,,
,,614e351010435c9f51dee6bf,65af5608941b6f73074ccf9c,2024-01-23_08h08.04.163,bars,2023.2.3,Win32,0.613911228,657b66ea316d21385b68909f,,,,,,,,,,,1342.7354,1343.7738,,,1344.283,1344.2843,,21,201,,,,,,,,,,,,,,,,bars/004.png,bars/mask001.png,,,,,,,,,,,,3,1,,,,,,,2,6,3,8,,,,,,,,,,,1343.7738,1344.283,1344.2843,1359.6236,space,14.833,0.0007,1359.6236,4,76,1360.6725,1360.6725,1362.3754,space,1.1653,,0,37,37,37,1,25,125,,,,,,,,
,,614e351010435c9f51dee6bf,65af5608941b6f73074ccf9c,2024-01-23_08h08.04.163,bars,2023.2.3,Win32,0.613911228,657b66ea316d21385b68909f,,,,,,,,,,,1362.3764,1363.3646,,,1363.859,1363.8603,,167,167,,,,,,,,,,,,,,,,bars/017.png,bars/mask008.png,,,,,,,,,,,,1,1,,,,,,,4,8,4,7,,,,,,,,,,,1363.3647,1363.859,1363.8604,1379.5375,space,15.1885,,1379.5375,22,58,1380.5348,1380.5349,1383.8954,space,2.8285,0.0005,0,38,38,38,1,145,45,,,,,,,,
,,614e351010435c9f51dee6bf,65af5608941b6f73074ccf9c,2024-01-23_08h08.04.163,bars,2023.2.3,Win32,0.613911228,657b66ea316d21385b68909f,,,,,,,,,,,1383.9105,1384.8884,,,1385.3937,1385.3952,,139,139,,,,,,,,,,,,,,,,bars/002.png,bars/mask002.png,,,,,,,,,,,,4,1,,,,,,,6,10,5,10,,,,,,,,,,,1384.8885,1385.3936,1385.3952,1388.7269,space,2.8273,,1388.727,9,54,1389.8062,1389.8062,1391.4368,space,1.1024,,0,39,39,39,1,130,85,,,,,,,,
,,614e351010435c9f51dee6bf,65af5608941b6f73074ccf9c,2024-01-23_08h08.04.163,bars,2023.2.3,Win32,0.613911228,657b66ea316d21385b68909f,,,,,,,,,,,1391.4379,1392.4158,,,1392.9885,1392.9914,,93,93,,,,,,,,,,,,,,,,bars/026.png,bars/mask004.png,,,,,,,,,,,,6,2,,,,,,,8,8,6,8,,,,,,,,,,,1392.4158,1392.9884,1392.9915,1403.2942,space,9.8063,,1403.2944,58,8,1404.3242,1404.3242,1406.4768,space,1.6185,0.0005,0,40,40,40,1,35,85,,,,,,,,
,,614e351010435c9f51dee6bf,65af5608941b6f73074ccf9c,2024-01-23_08h08.04.163,bars,2023.2.3,Win32,0.613911228,657b66ea316d21385b68909f,,,,,,,,,,,1406.4775,1407.4695,,,1407.999,1408.0005,,74,74,,,,,,,,,,,,,,,,bars/049.png,bars/mask008.png,,,,,,,,,,,,0,2,,,,,,,6,6,5,6,,,,,,,,,,,1407.4697,1407.9989,1408.0005,1421.9537,space,13.487,0.0004,1421.9538,86,41,1422.9823,1422.9824,1424.6362,space,1.086,0.0007,0,41,41,41,1,160,115,,,,,,,,
,,614e351010435c9f51dee6bf,65af5608941b6f73074ccf9c,2024-01-23_08h08.04.163,bars,2023.2.3,Win32,0.613911228,657b66ea316d21385b68909f,,,,,,,,,,,1424.6392,1425.623,,,1426.122,1426.1233,,130,130,,,,,,,,,,,,,,,,bars/017.png,bars/mask008.png,,,,,,,,,,,,3,1,,,,,,,4,8,6,7,,,,,,,,,,,1425.6231,1426.122,1426.1233,1436.9394,space,10.3075,0.0007,1436.9394,15,85,1437.9318,1437.9319,1439.599,space,1.1132,,0,42,42,42,1,145,45,,,,,,,,
,,614e351010435c9f51dee6bf,65af5608941b6f73074ccf9c,2024-01-23_08h08.04.163,bars,2023.2.3,Win32,0.613911228,657b66ea316d21385b68909f,,,,,,,,,,,1439.6,1440.5877,,,1441.0895,1441.0915,,75,75,,,,,,,,,,,,,,,,bars/023.png,bars/mask001.png,,,,,,,,,,,,0,2,,,,,,,6,10,5,9,,,,,,,,,,,1440.5878,1441.0894,1441.0915,1453.5008,space,11.8428,0.0007,1453.5008,55,40,1454.5166,1454.5167,1455.6241,space,0.5867,,0,43,43,43,1,20,115,,,,,,,,
,,614e351010435c9f51dee6bf,65af5608941b6f73074ccf9c,2024-01-23_08h08.04.163,bars,2023.2.3,Win32,0.613911228,657b66ea316d21385b68909f,,,,,,,,,,,1455.6253,1456.6526,,,1457.1502,1457.1525,,170,-10,,,,,,,,,,,,,,,,bars/016.png,bars/mask007.png,,,,,,,,,,,,5,2,,,,,,,4,8,4,6,,,,,,,,,,,1456.6526,1457.1502,1457.1525,1471.5975,space,13.953,0.0007,1471.5976,50,5,1472.6112,1472.6113,1474.2556,space,1.114,,0,44,44,44,1,40,165,,,,,,,,
,,614e351010435c9f51dee6bf,65af5608941b6f73074ccf9c,2024-01-23_08h08.04.163,bars,2023.2.3,Win32,0.613911228,657b66ea316d21385b68909f,,,,,,,,,,,1474.2564,1475.2656,,,1475.7946,1475.7965,,177,177,,,,,,,,,,,,,,,,bars/018.png,bars/mask006.png,,,,,,,,,,,,1,1,,,,,,,6,10,6,8,,,,,,,,,,,1475.2657,1475.7946,1475.7965,1497.5285,space,21.2262,0.0007,1497.5286,27,87,1498.5001,1498.5007,1501.7601,space,2.7255,0.0007,0,45,45,45,1,150,90,,,,,,,,
,,614e351010435c9f51dee6bf,65af5608941b6f73074ccf9c,2024-01-23_08h08.04.163,bars,2023.2.3,Win32,0.613911228,657b66ea316d21385b68909f,,,,,,,,,,,1501.761,1502.7676,,,1503.2668,1503.2685,,1,1,,,,,,,,,,,,,,,,bars/040.png,bars/mask008.png,,,,,,,,,,,,9,2,,,,,,,8,10,9,10,,,,,,,,,,,1502.7678,1503.2668,1503.2685,1507.8578,space,4.084,0.0006,1507.8579,41,4,1508.9002,1508.9002,1510.5337,space,1.1112,0.0007,0,46,46,46,1,140,5,,,,,,,,
,,614e351010435c9f51dee6bf,65af5608941b6f73074ccf9c,2024-01-23_08h08.04.163,bars,2023.2.3,Win32,0.613911228,657b66ea316d21385b68909f,,,,,,,,,,,1510.5347,1511.507,,,1512.0731,1512.0746,,47,47,,,,,,,,,,,,,,,,bars/009.png,bars/mask008.png,,,,,,,,,,,,0,1,,,,,,,10,8,10,8,,,,,,,,,,,1511.507,1512.073,1512.0747,1521.567,space,9.0109,0.0006,1521.567,32,58,1522.5422,1522.5423,1524.1637,space,1.09,,0,47,47,47,1,15,105,,,,,,,,
,,614e351010435c9f51dee6bf,65af5608941b6f73074ccf9c,2024-01-23_08h08.04.163,bars,2023.2.3,Win32,0.613911228,657b66ea316d21385b68909f,,,,,,,,,,,1524.1647,1525.1655,,,1525.7618,1525.7629,,166,166,,,,,,,,,,,,,,,,bars/038.png,bars/mask006.png,,,,,,,,,,,,10,1,,,,,,,10,6,10,7,,,,,,,,,,,1525.1655,1525.7617,1525.7629,1537.4596,space,11.1811,,1537.4597,1,84,1538.5066,1538.5066,1540.1286,space,1.096,0.0006,0,48,48,48,1,165,70,,,,,,,,
,,614e351010435c9f51dee6bf,65af5608941b6f73074ccf9c,2024-01-23_08h08.04.163,bars,2023.2.3,Win32,0.613911228,657b66ea316d21385b68909f,,,,,,,,,,,1540.1294,1541.0803,,,1541.5867,1541.5882,,68,68,,,,,,,,,,,,,,,,bars/041.png,bars/mask004.png,,,,,,,,,,,,3,2,,,,,,,8,8,8,7,,,,,,,,,,,1541.0803,1541.5866,1541.5882,1550.5254,space,8.4122,0.0006,1550.5255,48,17,1551.5386,1551.5386,1553.7278,space,1.6802,0.0006,0,49,49,49,1,20,85,,,,,,,,
,,614e351010435c9f51dee6bf,65af5608941b6f73074ccf9c,2024-01-23_08h08.04.163,bars,2023.2.3,Win32,0.613911228,657b66ea316d21385b68909f,,,,,,,,,,,,,,,,,,,,,,,,,,,,,,,,,,,,,,,,,,,,,,,,,,,,,,,,,,,,,,,,,,,,,,,,,,,,,,,,,,,,,,,,,,,,,1553.73,1613.6469,0,0,0,4,1,sequence_tables/blk032.csv
,,614e351010435c9f51dee6bf,65af5608941b6f73074ccf9c,2024-01-23_08h08.04.163,bars,2023.2.3,Win32,0.613911228,657b66ea316d21385b68909f,,,,,,,,,,,1616.8163,1617.782,,,1618.2784,1618.2797,,91,91,,,,,,,,,,,,,,,,bars/004.png,bars/mask007.png,,,,,,,,,,,,0,2,,,,,,,1,9,1,7,,,,,,1613.6615,1616.8068,space,2.654,,1617.782,1618.2783,1618.2797,1626.8999,space,8.1327,,1626.8999,66,34,1627.8863,1627.8863,1627.9017,,,,0,0,0,0,1,25,125,,,,,,,,
,,614e351010435c9f51dee6bf,65af5608941b6f73074ccf9c,2024-01-23_08h08.04.163,bars,2023.2.3,Win32,0.613911228,657b66ea316d21385b68909f,,,,,,,,,,,1627.9025,1628.854,,,1629.3493,1629.3523,,23,23,,,,,,,,,,,,,,,,bars/008.png,bars/mask004.png,,,,,,,,,,,,1,2,,,,,,,3,7,5,6,,,,,,,,,,,1628.8542,1629.3493,1629.3523,1637.9412,space,8.1279,,1637.9413,87,23,1638.9087,1638.9088,1638.9101,,,,0,1,1,1,1,110,0,,,,,,,,
,,614e351010435c9f51dee6bf,65af5608941b6f73074ccf9c,2024-01-23_08h08.04.163,bars,2023.2.3,Win32,0.613911228,657b66ea316d21385b68909f,,,,,,,,,,,1638.9107,1639.9,,,1640.4157,1640.417,,25,25,,,,,,,,,,,,,,,,bars/032.png,bars/mask001.png,,,,,,,,,,,,8,2,,,,,,,5,9,4,9,,,,,,,,,,,1639.9001,1640.4156,1640.4171,1653.1275,space,12.2155,0.0005,1653.1276,80,5,1654.1831,1654.1832,1654.1845,,,,0,2,2,2,1,125,20,,,,,,,,
,,614e351010435c9f51dee6bf,65af5608941b6f73074ccf9c,2024-01-23_08h08.04.163,bars,2023.2.3,Win32,0.613911228,657b66ea316d21385b68909f,,,,,,,,,,,1654.1851,1655.2978,,,1655.8492,1655.8505,,59,59,,,,,,,,,,,,,,,,bars/036.png,bars/mask007.png,,,,,,,,,,,,0,2,,,,,,,3,7,5,10,,,,,,,,,,,1655.2979,1655.8492,1655.8506,1662.3278,space,6.0202,0.0003,1662.3278,86,39,1663.2989,1663.299,1663.3143,,,,0,3,3,3,1,145,20,,,,,,,,
,,614e351010435c9f51dee6bf,65af5608941b6f73074ccf9c,2024-01-23_08h08.04.163,bars,2023.2.3,Win32,0.613911228,657b66ea316d21385b68909f,,,,,,,,,,,1663.3151,1664.3171,,,1664.8109,1664.8129,,3,183,,,,,,,,,,,,,,,,bars/034.png,bars/mask007.png,,,,,,,,,,,,0,1,,,,,,,1,5,1,4,,,,,,,,,,,1664.3172,1664.8108,1664.8129,1672.9948,space,7.6889,0.0003,1672.9948,58,62,1674.0195,1674.0196,1674.0366,,,,0,4,4,4,1,125,65,,,,,,,,
,,614e351010435c9f51dee6bf,65af5608941b6f73074ccf9c,2024-01-23_08h08.04.163,bars,2023.2.3,Win32,0.613911228,657b66ea316d21385b68909f,,,,,,,,,,,1674.0373,1675.0075,,,1675.5399,1675.5411,,113,113,,,,,,,,,,,,,,,,bars/023.png,bars/mask000.png,,,,,,,,,,,,1,2,,,,,,,3,3,5,1,,,,,,,,,,,1675.0076,1675.5399,1675.5411,1681.5058,space,5.4876,0.0006,1681.5059,87,2,1682.4843,1682.4844,1682.5029,,,,0,5,5,5,1,20,115,,,,,,,,
,,614e351010435c9f51dee6bf,65af5608941b6f73074ccf9c,2024-01-23_08h08.04.163,bars,2023.2.3,Win32,0.613911228,657b66ea316d21385b68909f,,,,,,,,,,,1682.5036,1683.5027,,,1684.001,1684.0024,,77,77,,,,,,,,,,,,,,,,bars/001.png,bars/mask002.png,,,,,,,,,,,,1,2,,,,,,,5,1,7,2,,,,,,,,,,,1683.5028,1684.0009,1684.0024,1704.6244,space,20.1515,,1704.6245,53,8,1705.644,1705.644,1705.6457,,,,0,6,6,6,1,130,85,,,,,,,,
,,614e351010435c9f51dee6bf,65af5608941b6f73074ccf9c,2024-01-23_08h08.04.163,bars,2023.2.3,Win32,0.613911228,657b66ea316d21385b68909f,,,,,,,,,,,1705.6465,1706.604,,,1707.1093,1707.1107,,37,37,,,,,,,,,,,,,,,,bars/003.png,bars/mask004.png,,,,,,,,,,,,2,1,,,,,,,3,3,3,3,,,,,,,,,,,1706.6041,1707.1092,1707.1107,1714.6671,space,7.0959,,1714.6672,12,77,1715.6375,1715.6376,1715.6538,,,,0,7,7,7,1,25,140,,,,,,,,
,,614e351010435c9f51dee6bf,65af5608941b6f73074ccf9c,2024-01-23_08h08.04.163,bars,2023.2.3,Win32,0.613911228,657b66ea316d21385b68909f,,,,,,,,,,,1715.6545,1716.6166,,,1717.176,1717.178,,140,140,,,,,,,,,,,,,,,,bars/007.png,bars/mask008.png,,,,,,,,,,,,0,1,,,,,,,5,1,3,1,,,,,,,,,,,1716.6166,1717.176,1717.1781,1731.7452,space,14.0848,0.0006,1731.7453,35,85,1732.7467,1732.7468,1732.7617,,,,0,8,8,8,1,175,55,,,,,,,,
,,614e351010435c9f51dee6bf,65af5608941b6f73074ccf9c,2024-01-23_08h08.04.163,bars,2023.2.3,Win32,0.613911228,657b66ea316d21385b68909f,,,,,,,,,,,1732.7623,1733.7435,,,1734.2525,1734.2535,,166,166,,,,,,,,,,,,,,,,bars/020.png,bars/mask001.png,,,,,,,,,,,,4,2,,,,,,,3,3,2,5,,,,,,,,,,,1733.7436,1734.2525,1734.2536,1741.0541,space,6.3224,,1741.0542,51,4,1742.0535,1742.0535,1742.0709,,,,0,9,9,9,1,115,170,,,,,,,,
,,614e351010435c9f51dee6bf,65af5608941b6f73074ccf9c,2024-01-23_08h08.04.163,bars,2023.2.3,Win32,0.613911228,657b66ea316d21385b68909f,,,,,,,,,,,1742.0728,1743.0782,,,1743.579,1743.58,,119,119,,,,,,,,,,,,,,,,bars/005.png,bars/mask004.png,,,,,,,,,,,,0,2,,,,,,,1,1,0,0,,,,,,,,,,,1743.0782,1743.5789,1743.58,1752.6046,space,8.5057,,1752.6046,71,21,1753.6042,1753.6042,1753.606,,,,0,10,10,10,1,10,140,,,,,,,,
,,614e351010435c9f51dee6bf,65af5608941b6f73074ccf9c,2024-01-23_08h08.04.163,bars,2023.2.3,Win32,0.613911228,657b66ea316d21385b68909f,,,,,,,,,,,1753.6068,1754.6112,,,1755.1104,1755.1118,,156,156,,,,,,,,,,,,,,,,bars/000.png,bars/mask003.png,,,,,,,,,,,,0,2,,,,,,,3,0,3,0,,,,,,,,,,,1754.6113,1755.1102,1755.1118,1763.8068,space,8.2278,0.0007,1763.8069,64,11,1764.8434,1764.8435,1764.8584,,,,0,11,11,11,1,40,145,,,,,,,,
,,614e351010435c9f51dee6bf,65af5608941b6f73074ccf9c,2024-01-23_08h08.04.163,bars,2023.2.3,Win32,0.613911228,657b66ea316d21385b68909f,,,,,,,,,,,1764.8591,1765.8368,,,1766.3577,1766.3587,,141,141,,,,,,,,,,,,,,,,bars/007.png,bars/mask009.png,,,,,,,,,,,,0,1,,,,,,,5,0,6,0,,,,,,,,,,,1765.8368,1766.3577,1766.3587,1776.8303,space,9.9573,0.0008,1776.8303,34,86,1777.8103,1777.8103,1777.8275,,,,0,12,12,12,1,175,55,,,,,,,,
,,614e351010435c9f51dee6bf,65af5608941b6f73074ccf9c,2024-01-23_08h08.04.163,bars,2023.2.3,Win32,0.613911228,657b66ea316d21385b68909f,,,,,,,,,,,1777.8283,1778.7985,,,1779.3134,1779.3149,,105,105,,,,,,,,,,,,,,,,bars/048.png,bars/mask009.png,,,,,,,,,,,,0,1,,,,,,,7,2,7,2,,,,,,,,,,,1778.7985,1779.3133,1779.315,1785.9417,space,6.1279,0.0006,1785.9417,55,70,1786.9031,1786.9031,1786.9187,,,,0,13,13,13,1,50,175,,,,,,,,
,,614e351010435c9f51dee6bf,65af5608941b6f73074ccf9c,2024-01-23_08h08.04.163,bars,2023.2.3,Win32,0.613911228,657b66ea316d21385b68909f,,,,,,,,,,,1786.9192,1787.962,,,1788.5035,1788.5047,,46,46,,,,,,,,,,,,,,,,bars/001.png,bars/mask004.png,,,,,,,,,,,,0,2,,,,,,,5,4,6,5,,,,,,,,,,,1787.962,1788.5034,1788.5047,1795.6161,space,6.6138,0.0006,1795.6161,84,39,1796.6312,1796.6313,1796.6486,,,,0,14,14,14,1,130,85,,,,,,,,
,,614e351010435c9f51dee6bf,65af5608941b6f73074ccf9c,2024-01-23_08h08.04.163,bars,2023.2.3,Win32,0.613911228,657b66ea316d21385b68909f,,,,,,,,,,,1796.6497,1797.6775,,,1798.1701,1798.1719,,23,23,,,,,,,,,,,,,,,,bars/014.png,bars/mask002.png,,,,,,,,,,,,0,2,,,,,,,3,2,3,1,,,,,,,,,,,1797.6775,1798.1701,1798.1719,1804.8433,space,6.2154,,1804.8434,57,23,1805.8113,1805.8114,1805.8268,,,,0,15,15,15,1,80,0,,,,,,,,
,,614e351010435c9f51dee6bf,65af5608941b6f73074ccf9c,2024-01-23_08h08.04.163,bars,2023.2.3,Win32,0.613911228,657b66ea316d21385b68909f,,,,,,,,,,,1805.8276,1806.8434,,,1807.3651,1807.3662,,90,90,,,,,,,,,,,,,,,,bars/027.png,bars/mask000.png,,,,,,,,,,,,1,1,,,,,,,1,0,3,0,,,,,,,,,,,1806.8434,1807.3651,1807.3663,1810.8854,space,3.0436,,1810.8855,20,40,1811.8939,1811.8939,1811.8973,,,,0,16,16,16,1,110,50,,,,,,,,
,,614e351010435c9f51dee6bf,65af5608941b6f73074ccf9c,2024-01-23_08h08.04.163,bars,2023.2.3,Win32,0.613911228,657b66ea316d21385b68909f,,,,,,,,,,,1811.898,1812.8918,,,1813.4347,1813.4357,,134,134,,,,,,,,,,,,,,,,bars/006.png,bars/mask006.png,,,,,,,,,,,,0,2,,,,,,,0,2,0,1,,,,,,,,,,,1812.8919,1813.4347,1813.4357,1824.0939,space,10.1897,0.0006,1824.0939,81,34,1825.0635,1825.0636,1825.0803,,,,0,17,17,17,1,35,100,,,,,,,,
,,614e351010435c9f51dee6bf,65af5608941b6f73074ccf9c,2024-01-23_08h08.04.163,bars,2023.2.3,Win32,0.613911228,657b66ea316d21385b68909f,,,,,,,,,,,1825.081,1826.0352,,,1826.5265,1826.528,,17,197,,,,,,,,,,,,,,,,bars/011.png,bars/mask006.png,,,,,,,,,,,,0,1,,,,,,,2,4,2,5,,,,,,,,,,,1826.0353,1826.5264,1826.5281,1835.7999,space,8.806,0.0003,1835.8,37,68,1836.7631,1836.7632,1836.7671,,,,0,18,18,18,1,160,85,,,,,,,,
,,614e351010435c9f51dee6bf,65af5608941b6f73074ccf9c,2024-01-23_08h08.04.163,bars,2023.2.3,Win32,0.613911228,657b66ea316d21385b68909f,,,,,,,,,,,1836.7678,1837.7177,,,1838.25,1838.2511,,158,158,,,,,,,,,,,,,,,,bars/026.png,bars/mask001.png,,,,,,,,,,,,0,1,,,,,,,0,2,0,2,,,,,,,,,,,1837.7177,1838.25,1838.2511,1843.7858,space,5.0688,,1843.7859,57,73,1844.7451,1844.7451,1844.7465,,,,0,19,19,19,1,35,85,,,,,,,,
,,614e351010435c9f51dee6bf,65af5608941b6f73074ccf9c,2024-01-23_08h08.04.163,bars,2023.2.3,Win32,0.613911228,657b66ea316d21385b68909f,,,,,,,,,,,1844.7471,1845.7126,,,1846.2029,1846.2041,,101,101,,,,,,,,,,,,,,,,bars/029.png,bars/mask004.png,,,,,,,,,,,,0,1,,,,,,,0,4,0,4,,,,,,,,,,,1845.7126,1846.2028,1846.2041,1858.7864,space,12.1249,0.0007,1858.7865,11,56,1859.7736,1859.7737,1859.7753,,,,0,20,20,20,1,90,45,,,,,,,,
,,614e351010435c9f51dee6bf,65af5608941b6f73074ccf9c,2024-01-23_08h08.04.163,bars,2023.2.3,Win32,0.613911228,657b66ea316d21385b68909f,,,,,,,,,,,1859.776,1860.7581,,,1861.304,1861.305,,60,60,,,,,,,,,,,,,,,,bars/012.png,bars/mask003.png,,,,,,,,,,,,0,1,,,,,,,0,6,1,7,,,,,,,,,,,1860.7581,1861.304,1861.305,1864.2214,space,2.4389,0.0008,1864.2215,30,45,1865.1757,1865.1757,1865.19,,,,0,21,21,21,1,90,15,,,,,,,,
,,614e351010435c9f51dee6bf,65af5608941b6f73074ccf9c,2024-01-23_08h08.04.163,bars,2023.2.3,Win32,0.613911228,657b66ea316d21385b68909f,,,,,,,,,,,1865.1906,1866.1679,,,1866.6597,1866.6613,,27,27,,,,,,,,,,,,,,,,bars/019.png,bars/mask004.png,,,,,,,,,,,,0,1,,,,,,,0,4,0,5,,,,,,,,,,,1866.168,1866.6597,1866.6614,1876.5089,space,9.3927,0.0007,1876.509,18,78,1877.4695,1877.4696,1877.4825,,,,0,22,22,22,1,45,105,,,,,,,,
,,614e351010435c9f51dee6bf,65af5608941b6f73074ccf9c,2024-01-23_08h08.04.163,bars,2023.2.3,Win32,0.613911228,657b66ea316d21385b68909f,,,,,,,,,,,1877.4831,1878.4668,,,1878.9611,1878.9623,,14,14,,,,,,,,,,,,,,,,bars/000.png,bars/mask002.png,,,,,,,,,,,,0,1,,,,,,,0,6,1,6,,,,,,,,,,,1878.4669,1878.9611,1878.9623,1887.4918,space,8.0747,0.0007,1887.4919,26,49,1888.4557,1888.4558,1888.4692,,,,0,23,23,23,1,40,145,,,,,,,,
,,614e351010435c9f51dee6bf,65af5608941b6f73074ccf9c,2024-01-23_08h08.04.163,bars,2023.2.3,Win32,0.613911228,657b66ea316d21385b68909f,,,,,,,,,,,1888.4697,1889.4378,,,1889.9234,1889.9252,,130,130,,,,,,,,,,,,,,,,bars/005.png,bars/mask008.png,,,,,,,,,,,,4,2,,,,,,,0,4,1,6,,,,,,,,,,,1889.4379,1889.9233,1889.9252,1897.752,space,7.3692,0.0007,1897.7521,60,10,1898.7251,1898.7251,1898.742,,,,0,24,24,24,1,10,140,,,,,,,,
,,614e351010435c9f51dee6bf,65af5608941b6f73074ccf9c,2024-01-23_08h08.04.163,bars,2023.2.3,Win32,0.613911228,657b66ea316d21385b68909f,,,,,,,,,,,1898.7427,1899.7523,,,1900.2521,1900.254,,35,35,,,,,,,,,,,,,,,,bars/020.png,bars/mask002.png,,,,,,,,,,,,0,2,,,,,,,0,2,0,1,,,,,,,,,,,1899.7524,1900.2521,1900.2541,1906.8648,space,6.1214,0.0006,1906.8649,80,45,1907.8321,1907.8322,1907.8468,,,,0,25,25,25,1,115,170,,,,,,,,
,,614e351010435c9f51dee6bf,65af5608941b6f73074ccf9c,2024-01-23_08h08.04.163,bars,2023.2.3,Win32,0.613911228,657b66ea316d21385b68909f,,,,,,,,,,,1907.8475,1908.7962,,,1909.2928,1909.2951,,32,32,,,,,,,,,,,,,,,,bars/001.png,bars/mask009.png,,,,,,,,,,,,0,2,,,,,,,2,4,4,4,,,,,,,,,,,1908.7963,1909.2928,1909.2951,1915.7242,space,5.9808,0.0007,1915.7243,82,53,1916.6944,1916.6944,1916.6963,,,,0,26,26,26,1,130,85,,,,,,,,
,,614e351010435c9f51dee6bf,65af5608941b6f73074ccf9c,2024-01-23_08h08.04.163,bars,2023.2.3,Win32,0.613911228,657b66ea316d21385b68909f,,,,,,,,,,,1916.6969,1917.6541,,,1918.1796,1918.1809,,167,167,,,,,,,,,,,,,,,,bars/000.png,bars/mask009.png,,,,,,,,,,,,1,2,,,,,,,0,2,0,5,,,,,,,,,,,1917.6542,1918.1795,1918.1809,1930.8426,space,12.2075,,1930.8426,53,22,1931.8119,1931.8121,1931.8258,,,,0,27,27,27,1,40,145,,,,,,,,
,,614e351010435c9f51dee6bf,65af5608941b6f73074ccf9c,2024-01-23_08h08.04.163,bars,2023.2.3,Win32,0.613911228,657b66ea316d21385b68909f,,,,,,,,,,,1931.8265,1932.831,,,1933.3464,1933.3475,,78,78,,,,,,,,,,,,,,,,bars/004.png,bars/mask008.png,,,,,,,,,,,,0,2,,,,,,,2,4,1,4,,,,,,,,,,,1932.8311,1933.3464,1933.3475,1944.9991,space,11.1846,0.0007,1944.9991,53,47,1945.9959,1945.996,1946.0116,,,,0,28,28,28,1,25,125,,,,,,,,
,,614e351010435c9f51dee6bf,65af5608941b6f73074ccf9c,2024-01-23_08h08.04.163,bars,2023.2.3,Win32,0.613911228,657b66ea316d21385b68909f,,,,,,,,,,,1946.0122,1947.0075,,,1947.5525,1947.5533,,133,133,,,,,,,,,,,,,,,,bars/024.png,bars/mask000.png,,,,,,,,,,,,0,1,,,,,,,0,2,0,3,,,,,,,,,,,1947.0076,1947.5525,1947.5533,1954.4037,space,6.336,0.0008,1954.4037,13,37,1955.3798,1955.3799,1955.3841,,,,0,29,29,29,1,120,170,,,,,,,,
,,614e351010435c9f51dee6bf,65af5608941b6f73074ccf9c,2024-01-23_08h08.04.163,bars,2023.2.3,Win32,0.613911228,657b66ea316d21385b68909f,,,,,,,,,,,1955.3848,1956.3681,,,1956.9006,1956.9022,,18,18,,,,,,,,,,,,,,,,bars/040.png,bars/mask001.png,,,,,,,,,,,,3,2,,,,,,,0,4,0,6,,,,,,,,,,,1956.3681,1956.9006,1956.9022,1969.274,space,11.8273,0.0004,1969.2741,58,13,1970.2442,1970.2443,1970.2599,,,,0,30,30,30,1,140,5,,,,,,,,
,,614e351010435c9f51dee6bf,65af5608941b6f73074ccf9c,2024-01-23_08h08.04.163,bars,2023.2.3,Win32,0.613911228,657b66ea316d21385b68909f,,,,,,,,,,,1970.2606,1971.2082,,,1971.6995,1971.7012,,139,139,,,,,,,,,,,,,,,,bars/046.png,bars/mask003.png,,,,,,,,,,,,0,1,,,,,,,0,2,1,1,,,,,,,,,,,1971.2082,1971.6995,1971.7012,1982.659,space,10.4787,0.0008,1982.6591,16,54,1983.6338,1983.6339,1983.6516,,,,0,31,31,31,1,155,85,,,,,,,,
,,614e351010435c9f51dee6bf,65af5608941b6f73074ccf9c,2024-01-23_08h08.04.163,bars,2023.2.3,Win32,0.613911228,657b66ea316d21385b68909f,,,,,,,,,,,1983.6523,1984.656,,,1985.1648,1985.1657,,38,38,,,,,,,,,,,,,,,,bars/045.png,bars/mask003.png,,,,,,,,,,,,0,2,,,,,,,2,4,1,5,,,,,,,,,,,1984.6561,1985.1647,1985.1657,1995.8223,space,10.2014,0.0008,1995.8224,62,28,1996.7888,1996.7888,1996.8672,,,,0,32,32,32,1,100,10,,,,,,,,
,,614e351010435c9f51dee6bf,65af5608941b6f73074ccf9c,2024-01-23_08h08.04.163,bars,2023.2.3,Win32,0.613911228,657b66ea316d21385b68909f,,,,,,,,,,,1996.8684,1997.8197,,,1998.3919,1998.3934,,119,119,,,,,,,,,,,,,,,,bars/047.png,bars/mask009.png,,,,,,,,,,,,0,2,,,,,,,4,2,2,4,,,,,,,,,,,1997.8198,1998.3918,1998.3935,2007.4379,space,8.5898,0.0006,2007.4381,76,49,2008.3916,2008.3917,2008.3937,,,,0,33,33,33,1,15,70,,,,,,,,
,,614e351010435c9f51dee6bf,65af5608941b6f73074ccf9c,2024-01-23_08h08.04.163,bars,2023.2.3,Win32,0.613911228,657b66ea316d21385b68909f,,,,,,,,,,,2008.3946,2009.3964,,,2009.8857,2009.8871,,47,47,,,,,,,,,,,,,,,,bars/012.png,bars/mask002.png,,,,,,,,,,,,0,2,,,,,,,2,4,0,3,,,,,,,,,,,2009.3964,2009.8857,2009.8871,2017.9385,space,7.5773,0.0006,2017.9386,43,32,2018.9322,2018.9322,2018.9456,,,,0,34,34,34,1,90,15,,,,,,,,
,,614e351010435c9f51dee6bf,65af5608941b6f73074ccf9c,2024-01-23_08h08.04.163,bars,2023.2.3,Win32,0.613911228,657b66ea316d21385b68909f,,,,,,,,,,,2018.9462,2019.904,,,2020.3915,2020.393,,108,108,,,,,,,,,,,,,,,,bars/014.png,bars/mask004.png,,,,,,,,,,,,0,1,,,,,,,0,6,0,6,,,,,,,,,,,2019.9041,2020.3915,2020.393,2031.4271,space,10.5498,0.0005,2031.4271,28,72,2032.4093,2032.4094,2032.425,,,,0,35,35,35,1,80,0,,,,,,,,
,,614e351010435c9f51dee6bf,65af5608941b6f73074ccf9c,2024-01-23_08h08.04.163,bars,2023.2.3,Win32,0.613911228,657b66ea316d21385b68909f,,,,,,,,,,,2032.4258,2033.4067,,,2033.8869,2033.8887,,142,142,,,,,,,,,,,,,,,,bars/000.png,bars/mask001.png,,,,,,,,,,,,3,2,,,,,,,0,4,0,3,,,,,,,,,,,2033.4067,2033.8868,2033.8887,2042.1811,space,7.8355,0.0007,2042.1811,78,3,2043.1695,2043.1696,2043.1858,,,,0,36,36,36,1,40,145,,,,,,,,
,,614e351010435c9f51dee6bf,65af5608941b6f73074ccf9c,2024-01-23_08h08.04.163,bars,2023.2.3,Win32,0.613911228,657b66ea316d21385b68909f,,,,,,,,,,,2043.1867,2044.1574,,,2044.6495,2044.6505,,150,150,,,,,,,,,,,,,,,,bars/037.png,bars/mask001.png,,,,,,,,,,,,0,1,,,,,,,0,6,0,5,,,,,,,,,,,2044.1575,2044.6494,2044.6505,2051.0547,space,5.9472,0.0005,2051.0548,0,45,2052.0047,2052.0048,2052.0204,,,,0,37,37,37,1,150,105,,,,,,,,
,,614e351010435c9f51dee6bf,65af5608941b6f73074ccf9c,2024-01-23_08h08.04.163,bars,2023.2.3,Win32,0.613911228,657b66ea316d21385b68909f,,,,,,,,,,,2052.0212,2052.9692,,,2053.4848,2053.4856,,58,58,,,,,,,,,,,,,,,,bars/036.png,bars/mask008.png,,,,,,,,,,,,0,2,,,,,,,0,4,0,6,,,,,,,,,,,2052.9692,2053.4848,2053.4856,2065.8458,space,11.9024,0.0004,2065.8459,87,38,2066.805,2066.805,2066.8208,,,,0,38,38,38,1,145,20,,,,,,,,
,,614e351010435c9f51dee6bf,65af5608941b6f73074ccf9c,2024-01-23_08h08.04.163,bars,2023.2.3,Win32,0.613911228,657b66ea316d21385b68909f,,,,,,,,,,,2066.8216,2067.7671,,,2068.2702,2068.2712,,152,152,,,,,,,,,,,,,,,,bars/030.png,bars/mask005.png,,,,,,,,,,,,1,1,,,,,,,2,2,1,2,,,,,,,,,,,2067.7672,2068.2701,2068.2713,2076.7383,space,8,,2076.7383,12,87,2077.7353,2077.7354,2077.7505,,,,0,39,39,39,1,140,65,,,,,,,,
,,614e351010435c9f51dee6bf,65af5608941b6f73074ccf9c,2024-01-23_08h08.04.163,bars,2023.2.3,Win32,0.613911228,657b66ea316d21385b68909f,,,,,,,,,,,2077.7513,2078.7117,,,2079.1935,2079.1958,,100,100,,,,,,,,,,,,,,,,bars/014.png,bars/mask009.png,,,,,,,,,,,,1,1,,,,,,,4,4,4,3,,,,,,,,,,,2078.7117,2079.1934,2079.1959,2103.0776,space,23.4205,0.0007,2103.0777,20,80,2104.068,2104.0681,2104.0841,,,,0,40,40,40,1,80,0,,,,,,,,
,,614e351010435c9f51dee6bf,65af5608941b6f73074ccf9c,2024-01-23_08h08.04.163,bars,2023.2.3,Win32,0.613911228,657b66ea316d21385b68909f,,,,,,,,,,,2104.0857,2105.0378,,,2105.5367,2105.5387,,20,20,,,,,,,,,,,,,,,,bars/035.png,bars/mask001.png,,,,,,,,,,,,1,1,,,,,,,6,2,5,3,,,,,,,,,,,2105.0379,2105.5367,2105.5387,2125.1803,space,19.1662,0.0006,2125.1804,25,40,2126.1621,2126.1622,2126.1765,,,,0,41,41,41,1,175,60,,,,,,,,
,,614e351010435c9f51dee6bf,65af5608941b6f73074ccf9c,2024-01-23_08h08.04.163,bars,2023.2.3,Win32,0.613911228,657b66ea316d21385b68909f,,,,,,,,,,,2126.1771,2127.1204,,,2127.6114,2127.613,,131,131,,,,,,,,,,,,,,,,bars/024.png,bars/mask005.png,,,,,,,,,,,,3,1,,,,,,,4,4,4,3,,,,,,,,,,,2127.1205,2127.6114,2127.6132,2131.0068,space,2.9121,0.0006,2131.0069,11,39,2131.9584,2131.9585,2131.9599,,,,0,42,42,42,1,120,170,,,,,,,,
,,614e351010435c9f51dee6bf,65af5608941b6f73074ccf9c,2024-01-23_08h08.04.163,bars,2023.2.3,Win32,0.613911228,657b66ea316d21385b68909f,,,,,,,,,,,2131.9604,2132.9318,,,2133.4217,2133.4235,,105,105,,,,,,,,,,,,,,,,bars/015.png,bars/mask008.png,,,,,,,,,,,,3,1,,,,,,,2,6,4,6,,,,,,,,,,,2132.9319,2133.4216,2133.4235,2146.7887,space,12.9141,0.0002,2146.7887,5,55,2147.7509,2147.7511,2147.7648,,,,0,43,43,43,1,110,160,,,,,,,,
,,614e351010435c9f51dee6bf,65af5608941b6f73074ccf9c,2024-01-23_08h08.04.163,bars,2023.2.3,Win32,0.613911228,657b66ea316d21385b68909f,,,,,,,,,,,2147.7655,2148.6957,,,2149.2044,2149.2061,,89,89,,,,,,,,,,,,,,,,bars/007.png,bars/mask000.png,,,,,,,,,,,,0,2,,,,,,,4,4,5,3,,,,,,,,,,,2148.6958,2149.2043,2149.2061,2175.9321,space,26.2707,,2175.9322,86,34,2176.8869,2176.887,2176.9045,,,,0,44,44,44,1,175,55,,,,,,,,
,,614e351010435c9f51dee6bf,65af5608941b6f73074ccf9c,2024-01-23_08h08.04.163,bars,2023.2.3,Win32,0.613911228,657b66ea316d21385b68909f,,,,,,,,,,,2176.9049,2177.8888,,,2178.3948,2178.3962,,102,102,,,,,,,,,,,,,,,,bars/047.png,bars/mask008.png,,,,,,,,,,,,0,2,,,,,,,6,6,5,6,,,,,,,,,,,2177.8888,2178.3947,2178.3962,2194.2846,space,15.4387,,2194.2847,87,32,2195.2979,2195.298,2195.3133,,,,0,45,45,45,1,15,70,,,,,,,,
,,614e351010435c9f51dee6bf,65af5608941b6f73074ccf9c,2024-01-23_08h08.04.163,bars,2023.2.3,Win32,0.613911228,657b66ea316d21385b68909f,,,,,,,,,,,2195.3137,2196.3136,,,2196.8159,2196.8171,,175,175,,,,,,,,,,,,,,,,bars/048.png,bars/mask007.png,,,,,,,,,,,,5,2,,,,,,,4,4,3,5,,,,,,,,,,,2196.3136,2196.8158,2196.8172,2206.3234,space,9.0201,0.0007,2206.3234,55,0,2207.291,2207.291,2207.3046,,,,0,46,46,46,1,50,175,,,,,,,,
,,614e351010435c9f51dee6bf,65af5608941b6f73074ccf9c,2024-01-23_08h08.04.163,bars,2023.2.3,Win32,0.613911228,657b66ea316d21385b68909f,,,,,,,,,,,2207.3052,2208.2782,,,2208.7639,2208.7652,,6,6,,,,,,,,,,,,,,,,bars/024.png,bars/mask006.png,,,,,,,,,,,,2,2,,,,,,,6,6,6,5,,,,,,,,,,,2208.2783,2208.7638,2208.7652,2228.3314,space,19.1124,,2228.3315,66,16,2229.3175,2229.3176,2229.332,,,,0,47,47,47,1,120,170,,,,,,,,
,,614e351010435c9f51dee6bf,65af5608941b6f73074ccf9c,2024-01-23_08h08.04.163,bars,2023.2.3,Win32,0.613911228,657b66ea316d21385b68909f,,,,,,,,,,,2229.3326,2230.2745,,,2230.7947,2230.7959,,14,14,,,,,,,,,,,,,,,,bars/042.png,bars/mask006.png,,,,,,,,,,,,0,1,,,,,,,4,8,5,9,,,,,,,,,,,2230.2746,2230.7946,2230.7959,2251.4213,space,20.1663,0.0006,2251.4214,49,61,2252.3787,2252.3787,2252.3942,,,,0,48,48,48,1,145,75,,,,,,,,
,,614e351010435c9f51dee6bf,65af5608941b6f73074ccf9c,2024-01-23_08h08.04.163,bars,2023.2.3,Win32,0.613911228,657b66ea316d21385b68909f,,,,,,,,,,,2252.395,2253.3351,,,2253.8629,2253.8644,,151,151,,,,,,,,,,,,,,,,bars/040.png,bars/mask007.png,,,,,,,,,,,,1,1,,,,,,,2,10,2,10,,,,,,,,,,,2253.3352,2253.8628,2253.8644,2262.1498,space,7.831,0.0006,2262.1498,11,34,2263.104,2263.104,2263.1185,,,,0,49,49,49,1,140,5,,,,,,,,
,,614e351010435c9f51dee6bf,65af5608941b6f73074ccf9c,2024-01-23_08h08.04.163,bars,2023.2.3,Win32,0.613911228,657b66ea316d21385b68909f,,,,,,,,,,,,,,,,,,,,,,,,,,,,,,,,,,,,,,,,,,,,,,,,,,,,,,,,,,,,,,,,,,,,,,,,,,,,,,,,,,,,,,,,,,,,,2263.1186,2322.9132,0,1,1,0,1,sequence_tables/blk022.csv
,,614e351010435c9f51dee6bf,65af5608941b6f73074ccf9c,2024-01-23_08h08.04.163,bars,2023.2.3,Win32,0.613911228,657b66ea316d21385b68909f,,,,,,,,,,,2336.2074,2337.151,,,2337.6536,2337.6554,,17,17,,,,,,,,,,,,,,,,bars/012.png,bars/mask009.png,,,,,,,,,,,,3,2,,,,,,,3,3,2,3,,,,,,2322.9283,2336.1758,space,12.7573,0.0007,2337.151,2337.6536,2337.6555,2343.5224,space,5.4127,0.0007,2343.5225,73,2,2344.5241,2344.5242,2344.5393,,,,0,0,0,0,1,90,15,,,,,,,,
,,614e351010435c9f51dee6bf,65af5608941b6f73074ccf9c,2024-01-23_08h08.04.163,bars,2023.2.3,Win32,0.613911228,657b66ea316d21385b68909f,,,,,,,,,,,2344.5401,2345.482,,,2345.9778,2345.9802,,105,105,,,,,,,,,,,,,,,,bars/018.png,bars/mask005.png,,,,,,,,,,,,1,2,,,,,,,1,1,1,2,,,,,,,,,,,2345.482,2345.9778,2345.9802,2356.0036,space,9.5654,,2356.0037,45,15,2356.9984,2356.9984,2357.0127,,,,0,1,1,1,1,150,90,,,,,,,,
,,614e351010435c9f51dee6bf,65af5608941b6f73074ccf9c,2024-01-23_08h08.04.163,bars,2023.2.3,Win32,0.613911228,657b66ea316d21385b68909f,,,,,,,,,,,2357.0133,2357.9446,,,2358.4551,2358.4568,,75,75,,,,,,,,,,,,,,,,bars/048.png,bars/mask004.png,,,,,,,,,,,,1,1,,,,,,,3,0,4,0,,,,,,,,,,,2357.9448,2358.4551,2358.4568,2364.3687,space,5.4529,0.0006,2364.3688,25,80,2365.3141,2365.3142,2365.3299,,,,0,2,2,2,1,50,175,,,,,,,,
,,614e351010435c9f51dee6bf,65af5608941b6f73074ccf9c,2024-01-23_08h08.04.163,bars,2023.2.3,Win32,0.613911228,657b66ea316d21385b68909f,,,,,,,,,,,2365.3307,2366.3085,,,2366.8173,2366.8184,,155,155,,,,,,,,,,,,,,,,bars/014.png,bars/mask009.png,,,,,,,,,,,,1,2,,,,,,,1,2,0,4,,,,,,,,,,,2366.3086,2366.8172,2366.8184,2381.9192,space,14.6372,,2381.9192,75,25,2382.9118,2382.9118,2382.9289,,,,0,3,3,3,1,80,0,,,,,,,,
,,614e351010435c9f51dee6bf,65af5608941b6f73074ccf9c,2024-01-23_08h08.04.163,bars,2023.2.3,Win32,0.613911228,657b66ea316d21385b68909f,,,,,,,,,,,2382.9298,2383.8711,,,2384.3789,2384.3805,,1,1,,,,,,,,,,,,,,,,bars/015.png,bars/mask002.png,,,,,,,,,,,,1,2,,,,,,,3,4,4,4,,,,,,,,,,,2383.8711,2384.3788,2384.3805,2400,space,15.1599,0.0004,2400,71,21,2400.9493,2400.9494,2400.9515,,,,0,4,4,4,1,110,160,,,,,,,,
,,614e351010435c9f51dee6bf,65af5608941b6f73074ccf9c,2024-01-23_08h08.04.163,bars,2023.2.3,Win32,0.613911228,657b66ea316d21385b68909f,,,,,,,,,,,2400.9522,2401.9141,,,2402.4223,2402.4239,,24,24,,,,,,,,,,,,,,,,bars/025.png,bars/mask006.png,,,,,,,,,,,,3,2,,,,,,,1,6,2,6,,,,,,,,,,,2401.9143,2402.4223,2402.4239,2413.4682,space,10.5919,,2413.4682,81,16,2414.4455,2414.4456,2414.4607,,,,0,5,5,5,1,105,40,,,,,,,,
,,614e351010435c9f51dee6bf,65af5608941b6f73074ccf9c,2024-01-23_08h08.04.163,bars,2023.2.3,Win32,0.613911228,657b66ea316d21385b68909f,,,,,,,,,,,2414.4613,2415.4398,,,2415.9502,2415.9519,,9,189,,,,,,,,,,,,,,,,bars/039.png,bars/mask007.png,,,,,,,,,,,,0,1,,,,,,,0,8,0,6,,,,,,,,,,,2415.4399,2415.9501,2415.9519,2429.491,space,13.0859,,2429.491,14,84,2430.4415,2430.4415,2430.4452,,,,0,6,6,6,1,175,105,,,,,,,,
,,614e351010435c9f51dee6bf,65af5608941b6f73074ccf9c,2024-01-23_08h08.04.163,bars,2023.2.3,Win32,0.613911228,657b66ea316d21385b68909f,,,,,,,,,,,2430.446,2431.3943,,,2431.9187,2431.92,,66,66,,,,,,,,,,,,,,,,bars/000.png,bars/mask001.png,,,,,,,,,,,,0,1,,,,,,,0,6,0,6,,,,,,,,,,,2431.3944,2431.9186,2431.9201,2439.4276,space,7.0459,,2439.4277,26,79,2440.4249,2440.425,2440.4374,,,,0,7,7,7,1,40,145,,,,,,,,
,,614e351010435c9f51dee6bf,65af5608941b6f73074ccf9c,2024-01-23_08h08.04.163,bars,2023.2.3,Win32,0.613911228,657b66ea316d21385b68909f,,,,,,,,,,,2440.4381,2441.4123,,,2441.8985,2441.9007,,157,157,,,,,,,,,,,,,,,,bars/040.png,bars/mask003.png,,,,,,,,,,,,0,1,,,,,,,2,4,1,4,,,,,,,,,,,2441.4124,2441.8985,2441.9007,2457.4736,space,15.1155,0.0007,2457.4737,17,28,2458.4206,2458.4208,2458.4336,,,,0,8,8,8,1,140,5,,,,,,,,
,,614e351010435c9f51dee6bf,65af5608941b6f73074ccf9c,2024-01-23_08h08.04.163,bars,2023.2.3,Win32,0.613911228,657b66ea316d21385b68909f,,,,,,,,,,,2458.4342,2459.3693,,,2459.9129,2459.9148,,158,-22,,,,,,,,,,,,,,,,bars/030.png,bars/mask005.png,,,,,,,,,,,,1,1,,,,,,,4,6,3,6,,,,,,,,,,,2459.3693,2459.9129,2459.9148,2494.7291,space,34.3388,0.0006,2494.7291,18,87,2495.6957,2495.6959,2495.7092,,,,0,9,9,9,1,140,65,,,,,,,,
,,614e351010435c9f51dee6bf,65af5608941b6f73074ccf9c,2024-01-23_08h08.04.163,bars,2023.2.3,Win32,0.613911228,657b66ea316d21385b68909f,,,,,,,,,,,2495.7098,2496.6514,,,2497.146,2497.1483,,146,146,,,,,,,,,,,,,,,,bars/022.png,bars/mask000.png,,,,,,,,,,,,0,1,,,,,,,6,8,7,9,,,,,,,,,,,2496.6515,2497.1459,2497.1484,2512.5766,space,14.954,0.0006,2512.5767,51,54,2513.5602,2513.5603,2513.5753,,,,0,10,10,10,1,95,20,,,,,,,,
,,614e351010435c9f51dee6bf,65af5608941b6f73074ccf9c,2024-01-23_08h08.04.163,bars,2023.2.3,Win32,0.613911228,657b66ea316d21385b68909f,,,,,,,,,,,2513.5761,2514.613,,,2515.1388,2515.1406,,117,117,,,,,,,,,,,,,,,,bars/011.png,bars/mask005.png,,,,,,,,,,,,0,2,,,,,,,4,6,4,5,,,,,,,,,,,2514.6131,2515.1387,2515.1407,2532.1072,space,16.4825,0.0006,2532.1073,43,32,2533.1064,2533.1064,2533.1343,,,,0,11,11,11,1,160,85,,,,,,,,
,,614e351010435c9f51dee6bf,65af5608941b6f73074ccf9c,2024-01-23_08h08.04.163,bars,2023.2.3,Win32,0.613911228,657b66ea316d21385b68909f,,,,,,,,,,,2533.1352,2534.0979,,,2534.6053,2534.6065,,104,104,,,,,,,,,,,,,,,,bars/029.png,bars/mask001.png,,,,,,,,,,,,1,1,,,,,,,2,8,2,9,,,,,,,,,,,2534.0979,2534.6053,2534.6066,2544.7465,space,9.6707,0.0003,2544.7466,14,59,2545.8067,2545.8067,2545.8521,,,,0,12,12,12,1,90,45,,,,,,,,
,,614e351010435c9f51dee6bf,65af5608941b6f73074ccf9c,2024-01-23_08h08.04.163,bars,2023.2.3,Win32,0.613911228,657b66ea316d21385b68909f,,,,,,,,,,,2545.853,2546.8461,,,2547.3504,2547.3513,,67,67,,,,,,,,,,,,,,,,bars/007.png,bars/mask000.png,,,,,,,,,,,,5,2,,,,,,,0,10,1,9,,,,,,,,,,,2546.8461,2547.3504,2547.3514,2556.6874,space,8.8582,,2556.6875,72,12,2557.69,2557.69,2557.7079,,,,0,13,13,13,1,175,55,,,,,,,,
,,614e351010435c9f51dee6bf,65af5608941b6f73074ccf9c,2024-01-23_08h08.04.163,bars,2023.2.3,Win32,0.613911228,657b66ea316d21385b68909f,,,,,,,,,,,2557.7088,2558.7228,,,2559.2886,2559.2898,,102,102,,,,,,,,,,,,,,,,bars/005.png,bars/mask001.png,,,,,,,,,,,,0,2,,,,,,,2,10,1,10,,,,,,,,,,,2558.7229,2559.2882,2559.2898,2587.4441,space,27.6828,,2587.4441,88,38,2588.4458,2588.4458,2588.4611,,,,0,14,14,14,1,10,140,,,,,,,,
,,614e351010435c9f51dee6bf,65af5608941b6f73074ccf9c,2024-01-23_08h08.04.163,bars,2023.2.3,Win32,0.613911228,657b66ea316d21385b68909f,,,,,,,,,,,2588.4617,2589.4828,,,2589.9698,2589.971,,124,124,,,,,,,,,,,,,,,,bars/025.png,bars/mask009.png,,,,,,,,,,,,0,1,,,,,,,0,8,0,8,,,,,,,,,,,2589.4829,2589.9697,2589.9711,2592.4391,space,2.0111,0.0005,2592.4391,19,84,2593.4477,2593.4478,2593.4515,,,,0,15,15,15,1,105,40,,,,,,,,
,,614e351010435c9f51dee6bf,65af5608941b6f73074ccf9c,2024-01-23_08h08.04.163,bars,2023.2.3,Win32,0.613911228,657b66ea316d21385b68909f,,,,,,,,,,,2593.4526,2594.4215,,,2594.9129,2594.9147,,111,111,,,,,,,,,,,,,,,,bars/024.png,bars/mask005.png,,,,,,,,,,,,1,1,,,,,,,0,10,1,8,,,,,,,,,,,2594.4215,2594.9128,2594.9147,2610.4246,space,15.0559,0.0005,2610.4246,9,59,2611.3805,2611.3806,2611.3824,,,,0,16,16,16,1,120,170,,,,,,,,
,,614e351010435c9f51dee6bf,65af5608941b6f73074ccf9c,2024-01-23_08h08.04.163,bars,2023.2.3,Win32,0.613911228,657b66ea316d21385b68909f,,,,,,,,,,,2611.383,2612.3388,,,2612.8347,2612.8364,,141,141,,,,,,,,,,,,,,,,bars/040.png,bars/mask000.png,,,,,,,,,,,,0,1,,,,,,,0,10,0,9,,,,,,,,,,,2612.3388,2612.8346,2612.8364,2615.2541,space,1.963,0.0005,2615.2543,1,44,2616.2015,2616.2016,2616.2036,,,,0,17,17,17,1,140,5,,,,,,,,
,,614e351010435c9f51dee6bf,65af5608941b6f73074ccf9c,2024-01-23_08h08.04.163,bars,2023.2.3,Win32,0.613911228,657b66ea316d21385b68909f,,,,,,,,,,,2616.2043,2617.1916,,,2617.6911,2617.6927,,70,70,,,,,,,,,,,,,,,,bars/018.png,bars/mask003.png,,,,,,,,,,,,3,2,,,,,,,2,10,2,10,,,,,,,,,,,2617.1916,2617.691,2617.6928,2625.6277,space,7.4773,0.0005,2625.6279,80,20,2626.5752,2626.5753,2626.5788,,,,0,18,18,18,1,150,90,,,,,,,,
,,614e351010435c9f51dee6bf,65af5608941b6f73074ccf9c,2024-01-23_08h08.04.163,bars,2023.2.3,Win32,0.613911228,657b66ea316d21385b68909f,,,,,,,,,,,2626.5795,2627.5288,,,2628.04,2628.0418,,159,159,,,,,,,,,,,,,,,,bars/027.png,bars/mask001.png,,,,,,,,,,,,0,1,,,,,,,4,8,5,8,,,,,,,,,,,2627.5288,2628.0399,2628.0418,2636.4694,space,7.9729,,2636.4694,49,71,2637.4572,2637.4572,2637.4735,,,,0,19,19,19,1,110,50,,,,,,,,
,,614e351010435c9f51dee6bf,65af5608941b6f73074ccf9c,2024-01-23_08h08.04.163,bars,2023.2.3,Win32,0.613911228,657b66ea316d21385b68909f,,,,,,,,,,,2637.4742,2638.4083,,,2638.9026,2638.9041,,150,150,,,,,,,,,,,,,,,,bars/042.png,bars/mask007.png,,,,,,,,,,,,6,1,,,,,,,6,10,7,10,,,,,,,,,,,2638.4083,2638.9025,2638.9041,2664.4348,space,25.0717,0.0006,2664.4349,5,75,2665.4125,2665.4126,2665.4273,,,,0,20,20,20,1,145,75,,,,,,,,
,,614e351010435c9f51dee6bf,65af5608941b6f73074ccf9c,2024-01-23_08h08.04.163,bars,2023.2.3,Win32,0.613911228,657b66ea316d21385b68909f,,,,,,,,,,,2665.4279,2666.3842,,,2666.9008,2666.902,,134,134,,,,,,,,,,,,,,,,bars/041.png,bars/mask000.png,,,,,,,,,,,,0,2,,,,,,,8,8,7,7,,,,,,,,,,,2666.3842,2666.9008,2666.902,2690.1097,space,22.7595,0.0007,2690.1097,66,49,2691.069,2691.069,2691.0724,,,,0,21,21,21,1,20,85,,,,,,,,
,,614e351010435c9f51dee6bf,65af5608941b6f73074ccf9c,2024-01-23_08h08.04.163,bars,2023.2.3,Win32,0.613911228,657b66ea316d21385b68909f,,,,,,,,,,,2691.0737,2692.0407,,,2692.5314,2692.533,,40,40,,,,,,,,,,,,,,,,bars/012.png,bars/mask003.png,,,,,,,,,,,,2,2,,,,,,,6,10,6,10,,,,,,,,,,,2692.0408,2692.5312,2692.533,2702.8776,space,9.8843,0.0006,2702.8777,50,25,2703.8497,2703.8498,2703.8694,,,,0,22,22,22,1,90,15,,,,,,,,
,,614e351010435c9f51dee6bf,65af5608941b6f73074ccf9c,2024-01-23_08h08.04.163,bars,2023.2.3,Win32,0.613911228,657b66ea316d21385b68909f,,,,,,,,,,,2703.8701,2704.7998,,,2705.2973,2705.2991,,126,126,,,,,,,,,,,,,,,,bars/019.png,bars/mask006.png,,,,,,,,,,,,2,2,,,,,,,4,8,3,7,,,,,,,,,,,2704.7998,2705.2973,2705.2992,2713.8301,space,8.0584,0.0006,2713.8301,81,21,2714.811,2714.8111,2714.8131,,,,0,23,23,23,1,45,105,,,,,,,,
,,614e351010435c9f51dee6bf,65af5608941b6f73074ccf9c,2024-01-23_08h08.04.163,bars,2023.2.3,Win32,0.613911228,657b66ea316d21385b68909f,,,,,,,,,,,2714.814,2715.7549,,,2716.2386,2716.2405,,123,123,,,,,,,,,,,,,,,,bars/035.png,bars/mask001.png,,,,,,,,,,,,0,1,,,,,,,6,10,6,10,,,,,,,,,,,2715.755,2716.2386,2716.2405,2734.7094,space,18.0117,0.0006,2734.7094,52,63,2735.6846,2735.6847,2735.6998,,,,0,24,24,24,1,175,60,,,,,,,,
,,614e351010435c9f51dee6bf,65af5608941b6f73074ccf9c,2024-01-23_08h08.04.163,bars,2023.2.3,Win32,0.613911228,657b66ea316d21385b68909f,,,,,,,,,,,2735.7005,2736.6433,,,2737.1296,2737.1312,,58,58,,,,,,,,,,,,,,,,bars/044.png,bars/mask009.png,,,,,,,,,,,,3,1,,,,,,,8,10,8,9,,,,,,,,,,,2736.6434,2737.1295,2737.1313,2747.1559,space,9.5587,0.0008,2747.156,17,83,2748.1139,2748.114,2748.1272,,,,0,25,25,25,1,75,155,,,,,,,,
,,614e351010435c9f51dee6bf,65af5608941b6f73074ccf9c,2024-01-23_08h08.04.163,bars,2023.2.3,Win32,0.613911228,657b66ea316d21385b68909f,,,,,,,,,,,2748.1278,2749.0599,,,2749.5742,2749.5761,,65,65,,,,,,,,,,,,,,,,bars/024.png,bars/mask003.png,,,,,,,,,,,,0,1,,,,,,,10,8,10,8,,,,,,,,,,,2749.0599,2749.5742,2749.5761,2762.1031,space,12.0316,,2762.1031,55,75,2763.0502,2763.0503,2763.0516,,,,0,26,26,26,1,120,170,,,,,,,,
,,614e351010435c9f51dee6bf,65af5608941b6f73074ccf9c,2024-01-23_08h08.04.163,bars,2023.2.3,Win32,0.613911228,657b66ea316d21385b68909f,,,,,,,,,,,2763.0523,2764.0286,,,2764.5219,2764.523,,133,133,,,,,,,,,,,,,,,,bars/031.png,bars/mask004.png,,,,,,,,,,,,6,1,,,,,,,10,10,10,10,,,,,,,,,,,2764.0286,2764.5218,2764.5231,2773.058,space,8.0846,,2773.0581,13,82,2774.0669,2774.067,2774.0684,,,,0,27,27,27,1,120,35,,,,,,,,
,,614e351010435c9f51dee6bf,65af5608941b6f73074ccf9c,2024-01-23_08h08.04.163,bars,2023.2.3,Win32,0.613911228,657b66ea316d21385b68909f,,,,,,,,,,,2774.0688,2775.0174,,,2775.5076,2775.5089,,6,6,,,,,,,,,,,,,,,,bars/042.png,bars/mask007.png,,,,,,,,,,,,0,1,,,,,,,8,10,8,10,,,,,,,,,,,2775.0174,2775.5075,2775.5091,2787.9872,space,12.0284,,2787.9872,41,69,2788.9624,2788.9625,2788.9639,,,,0,28,28,28,1,145,75,,,,,,,,
,,614e351010435c9f51dee6bf,65af5608941b6f73074ccf9c,2024-01-23_08h08.04.163,bars,2023.2.3,Win32,0.613911228,657b66ea316d21385b68909f,,,,,,,,,,,2788.9644,2789.9218,,,2790.4164,2790.4177,,48,48,,,,,,,,,,,,,,,,bars/001.png,bars/mask005.png,,,,,,,,,,,,0,2,,,,,,,10,8,9,9,,,,,,,,,,,2789.9219,2790.4164,2790.4177,2799.2881,space,8.419,,2799.2881,82,37,2800.2708,2800.2708,2800.2875,,,,0,29,29,29,1,130,85,,,,,,,,
,,614e351010435c9f51dee6bf,65af5608941b6f73074ccf9c,2024-01-23_08h08.04.163,bars,2023.2.3,Win32,0.613911228,657b66ea316d21385b68909f,,,,,,,,,,,2800.2882,2801.2416,,,2801.7857,2801.7866,,29,29,,,,,,,,,,,,,,,,bars/023.png,bars/mask005.png,,,,,,,,,,,,5,1,,,,,,,8,10,7,10,,,,,,,,,,,2801.2417,2801.7857,2801.7866,2805.4611,space,3.2152,,2805.4611,9,86,2806.4518,2806.4518,2806.4549,,,,0,30,30,30,1,20,115,,,,,,,,
,,614e351010435c9f51dee6bf,65af5608941b6f73074ccf9c,2024-01-23_08h08.04.163,bars,2023.2.3,Win32,0.613911228,657b66ea316d21385b68909f,,,,,,,,,,,2806.4557,2807.5007,,,2808.0224,2808.0236,,75,75,,,,,,,,,,,,,,,,bars/022.png,bars/mask000.png,,,,,,,,,,,,2,1,,,,,,,6,10,5,10,,,,,,,,,,,2807.5007,2808.0223,2808.0236,2813.4862,space,4.9909,0.0007,2813.4862,20,55,2814.4599,2814.46,2814.4734,,,,0,31,31,31,1,95,20,,,,,,,,
,,614e351010435c9f51dee6bf,65af5608941b6f73074ccf9c,2024-01-23_08h08.04.163,bars,2023.2.3,Win32,0.613911228,657b66ea316d21385b68909f,,,,,,,,,,,2814.4741,2815.4379,,,2815.9339,2815.9353,,168,168,,,,,,,,,,,,,,,,bars/049.png,bars/mask003.png,,,,,,,,,,,,1,1,,,,,,,4,10,1,9,,,,,,,,,,,2815.4379,2815.9339,2815.9353,2822.9017,space,6.4666,,2822.9017,8,53,2823.8823,2823.8823,2823.8989,,,,0,32,32,32,1,160,115,,,,,,,,
,,614e351010435c9f51dee6bf,65af5608941b6f73074ccf9c,2024-01-23_08h08.04.163,bars,2023.2.3,Win32,0.613911228,657b66ea316d21385b68909f,,,,,,,,,,,2823.8997,2824.8301,,,2825.3188,2825.3289,,49,49,,,,,,,,,,,,,,,,bars/012.png,bars/mask008.png,,,,,,,,,,,,0,2,,,,,,,2,8,2,8,,,,,,,,,,,2824.8302,2825.3187,2825.329,2832.3936,space,6.5742,,2832.3936,41,34,2833.3779,2833.3779,2833.3942,,,,0,33,33,33,1,90,15,,,,,,,,
,,614e351010435c9f51dee6bf,65af5608941b6f73074ccf9c,2024-01-23_08h08.04.163,bars,2023.2.3,Win32,0.613911228,657b66ea316d21385b68909f,,,,,,,,,,,2833.395,2834.3544,,,2834.8409,2834.8422,,46,46,,,,,,,,,,,,,,,,bars/026.png,bars/mask009.png,,,,,,,,,,,,3,1,,,,,,,4,6,5,8,,,,,,,,,,,2834.3545,2834.8409,2834.8423,2840.3658,space,5.0413,0.0004,2840.3658,11,39,2841.3162,2841.3163,2841.3201,,,,0,34,34,34,1,35,85,,,,,,,,
,,614e351010435c9f51dee6bf,65af5608941b6f73074ccf9c,2024-01-23_08h08.04.163,bars,2023.2.3,Win32,0.613911228,657b66ea316d21385b68909f,,,,,,,,,,,2841.3209,2842.2966,,,2842.7866,2842.7883,,32,32,,,,,,,,,,,,,,,,bars/043.png,bars/mask007.png,,,,,,,,,,,,5,1,,,,,,,6,8,5,9,,,,,,,,,,,2842.2966,2842.7865,2842.7884,2850.8884,space,7.6326,,2850.8884,2,82,2851.8917,2851.8917,2851.8941,,,,0,35,35,35,1,30,130,,,,,,,,
,,614e351010435c9f51dee6bf,65af5608941b6f73074ccf9c,2024-01-23_08h08.04.163,bars,2023.2.3,Win32,0.613911228,657b66ea316d21385b68909f,,,,,,,,,,,2851.8948,2852.9472,,,2853.5114,2853.5131,,160,160,,,,,,,,,,,,,,,,bars/042.png,bars/mask006.png,,,,,,,,,,,,5,1,,,,,,,8,10,9,9,,,,,,,,,,,2852.9473,2853.5114,2853.5132,2860.5404,space,6.5674,0.0007,2860.5404,15,85,2861.5422,2861.5422,2861.5595,,,,0,36,36,36,1,145,75,,,,,,,,
,,614e351010435c9f51dee6bf,65af5608941b6f73074ccf9c,2024-01-23_08h08.04.163,bars,2023.2.3,Win32,0.613911228,657b66ea316d21385b68909f,,,,,,,,,,,2861.5603,2862.5508,,,2863.0445,2863.046,,43,43,,,,,,,,,,,,,,,,bars/003.png,bars/mask007.png,,,,,,,,,,,,4,1,,,,,,,10,8,9,9,,,,,,,,,,,2862.5508,2863.0444,2863.046,2871.5754,space,8.0705,,2871.5754,18,83,2872.5367,2872.5368,2872.5499,,,,0,37,37,37,1,25,140,,,,,,,,
,,614e351010435c9f51dee6bf,65af5608941b6f73074ccf9c,2024-01-23_08h08.04.163,bars,2023.2.3,Win32,0.613911228,657b66ea316d21385b68909f,,,,,,,,,,,2872.5504,2873.5233,,,2874.0278,2874.0291,,160,160,,,,,,,,,,,,,,,,bars/026.png,bars/mask005.png,,,,,,,,,,,,0,1,,,,,,,10,10,10,10,,,,,,,,,,,2873.5233,2874.0278,2874.0291,2881.9785,space,7.4796,,2881.9785,55,75,2882.9515,2882.9515,2882.9529,,,,0,38,38,38,1,35,85,,,,,,,,
,,614e351010435c9f51dee6bf,65af5608941b6f73074ccf9c,2024-01-23_08h08.04.163,bars,2023.2.3,Win32,0.613911228,657b66ea316d21385b68909f,,,,,,,,,,,2882.9535,2883.9149,,,2884.404,2884.4058,,150,150,,,,,,,,,,,,,,,,bars/047.png,bars/mask009.png,,,,,,,,,,,,0,1,,,,,,,10,10,10,10,,,,,,,,,,,2883.9149,2884.404,2884.4058,2891.9327,space,7.0562,0.0007,2891.9328,45,80,2892.8923,2892.8923,2892.9055,,,,0,39,39,39,1,15,70,,,,,,,,
,,614e351010435c9f51dee6bf,65af5608941b6f73074ccf9c,2024-01-23_08h08.04.163,bars,2023.2.3,Win32,0.613911228,657b66ea316d21385b68909f,,,,,,,,,,,2892.9063,2893.8645,,,2894.4088,2894.4106,,12,12,,,,,,,,,,,,,,,,bars/048.png,bars/mask001.png,,,,,,,,,,,,3,2,,,,,,,8,8,7,7,,,,,,,,,,,2893.8645,2894.4088,2894.4107,2901.8398,space,6.98,0.0004,2901.8399,38,17,2902.8,2902.8,2902.8152,,,,0,40,40,40,1,50,175,,,,,,,,
,,614e351010435c9f51dee6bf,65af5608941b6f73074ccf9c,2024-01-23_08h08.04.163,bars,2023.2.3,Win32,0.613911228,657b66ea316d21385b68909f,,,,,,,,,,,2902.8159,2903.7804,,,2904.2722,2904.2739,,22,22,,,,,,,,,,,,,,,,bars/000.png,bars/mask007.png,,,,,,,,,,,,4,1,,,,,,,10,6,10,7,,,,,,,,,,,2903.7804,2904.2721,2904.2739,2911.7227,space,6.9869,0.0003,2911.7227,18,57,2912.6905,2912.6906,2912.7065,,,,0,41,41,41,1,40,145,,,,,,,,
,,614e351010435c9f51dee6bf,65af5608941b6f73074ccf9c,2024-01-23_08h08.04.163,bars,2023.2.3,Win32,0.613911228,657b66ea316d21385b68909f,,,,,,,,,,,2912.7072,2913.6661,,,2914.1789,2914.18,,44,44,,,,,,,,,,,,,,,,bars/049.png,bars/mask006.png,,,,,,,,,,,,0,1,,,,,,,10,4,10,4,,,,,,,,,,,2913.6661,2914.1789,2914.18,2923.1118,space,8.4803,,2923.1119,64,71,2924.0817,2924.0817,2924.097,,,,0,42,42,42,1,160,115,,,,,,,,
,,614e351010435c9f51dee6bf,65af5608941b6f73074ccf9c,2024-01-23_08h08.04.163,bars,2023.2.3,Win32,0.613911228,657b66ea316d21385b68909f,,,,,,,,,,,2924.0978,2925.0409,,,2925.5263,2925.5277,,62,62,,,,,,,,,,,,,,,,bars/010.png,bars/mask008.png,,,,,,,,,,,,5,2,,,,,,,8,6,7,7,,,,,,,,,,,2925.041,2925.5262,2925.5277,2932.5443,space,6.4896,,2932.5444,77,7,2933.5308,2933.5308,2933.5342,,,,0,43,43,43,1,165,55,,,,,,,,
,,614e351010435c9f51dee6bf,65af5608941b6f73074ccf9c,2024-01-23_08h08.04.163,bars,2023.2.3,Win32,0.613911228,657b66ea316d21385b68909f,,,,,,,,,,,2933.5349,2934.4883,,,2934.98,2934.9818,,82,82,,,,,,,,,,,,,,,,bars/005.png,bars/mask004.png,,,,,,,,,,,,0,2,,,,,,,10,8,10,9,,,,,,,,,,,2934.4884,2934.9799,2934.9818,2938.5437,space,3.0628,0.0006,2938.5437,72,58,2939.4997,2939.4998,2939.5025,,,,0,44,44,44,1,10,140,,,,,,,,
,,614e351010435c9f51dee6bf,65af5608941b6f73074ccf9c,2024-01-23_08h08.04.163,bars,2023.2.3,Win32,0.613911228,657b66ea316d21385b68909f,,,,,,,,,,,2939.5044,2940.4831,,,2941.0022,2941.0031,,70,70,,,,,,,,,,,,,,,,bars/013.png,bars/mask001.png,,,,,,,,,,,,8,1,,,,,,,10,10,10,10,,,,,,,,,,,2940.4832,2941.0021,2941.0031,2946.5544,space,5.0739,0.0007,2946.5546,5,60,2947.6301,2947.6301,2947.6342,,,,0,45,45,45,1,75,10,,,,,,,,
,,614e351010435c9f51dee6bf,65af5608941b6f73074ccf9c,2024-01-23_08h08.04.163,bars,2023.2.3,Win32,0.613911228,657b66ea316d21385b68909f,,,,,,,,,,,2947.6346,2948.5718,,,2949.0653,2949.0668,,36,36,,,,,,,,,,,,,,,,bars/004.png,bars/mask009.png,,,,,,,,,,,,4,1,,,,,,,8,8,7,8,,,,,,,,,,,2948.5719,2949.0652,2949.0668,2951.5274,space,1.9822,0.0008,2951.5275,11,89,2952.5038,2952.5038,2952.5055,,,,0,46,46,46,1,25,125,,,,,,,,
,,614e351010435c9f51dee6bf,65af5608941b6f73074ccf9c,2024-01-23_08h08.04.163,bars,2023.2.3,Win32,0.613911228,657b66ea316d21385b68909f,,,,,,,,,,,2952.5061,2953.4464,,,2953.9332,2953.9349,,129,129,,,,,,,,,,,,,,,,bars/022.png,bars/mask007.png,,,,,,,,,,,,0,1,,,,,,,10,10,10,10,,,,,,,,,,,2953.4465,2953.9332,2953.9349,2960.8952,space,6.4479,,2960.8952,34,71,2961.884,2961.884,2961.897,,,,0,47,47,47,1,95,20,,,,,,,,
,,614e351010435c9f51dee6bf,65af5608941b6f73074ccf9c,2024-01-23_08h08.04.163,bars,2023.2.3,Win32,0.613911228,657b66ea316d21385b68909f,,,,,,,,,,,2961.8975,2962.8515,,,2963.352,2963.353,,122,122,,,,,,,,,,,,,,,,bars/008.png,bars/mask009.png,,,,,,,,,,,,5,1,,,,,,,8,8,8,8,,,,,,,,,,,2962.8515,2963.352,2963.353,2968.8808,space,5.0484,,2968.8808,12,58,2969.8502,2969.8503,2969.8517,,,,0,48,48,48,1,110,0,,,,,,,,
,,614e351010435c9f51dee6bf,65af5608941b6f73074ccf9c,2024-01-23_08h08.04.163,bars,2023.2.3,Win32,0.613911228,657b66ea316d21385b68909f,,,,,,,,,,,2969.8522,2970.8018,,,2971.3265,2971.3278,,74,74,,,,,,,,,,,,,,,,bars/008.png,bars/mask004.png,,,,,,,,,,,,0,1,,,,,,,10,6,10,6,,,,,,,,,,,2970.8019,2971.3264,2971.3279,2978.2981,space,6.5173,,2978.2982,36,74,2979.2747,2979.2748,2979.2759,,,,0,49,49,49,1,110,0,,,,,,,,
,,614e351010435c9f51dee6bf,65af5608941b6f73074ccf9c,2024-01-23_08h08.04.163,bars,2023.2.3,Win32,0.613911228,657b66ea316d21385b68909f,,,,,,,,,,,,,,,,,,,,,,,,,,,,,,,,,,,,,,,,,,,,,,,,,,,,,,,,,,,,,,,,,,,,,,,,,,,,,,,,,,,,,,,,,,,,,2979.276,3039.1953,0,2,2,3,1,sequence_tables/blk029.csv
,,614e351010435c9f51dee6bf,65af5608941b6f73074ccf9c,2024-01-23_08h08.04.163,bars,2023.2.3,Win32,0.613911228,657b66ea316d21385b68909f,,,,,,,,,,,3058.4876,3059.485,,,3060.0449,3060.0468,,139,139,,,,,,,,,,,,,,,,bars/028.png,bars/mask008.png,,,,,,,,,,,,1,2,,,,,,,9,4,9,4,,,,,,3039.2093,3058.4582,space,18.7888,0.0007,3059.4851,3060.0449,3060.0468,3066.9185,space,6.3824,,3066.9186,86,19,3067.9232,3067.9232,3067.9398,,,,0,0,0,0,1,45,120,,,,,,,,
,,614e351010435c9f51dee6bf,65af5608941b6f73074ccf9c,2024-01-23_08h08.04.163,bars,2023.2.3,Win32,0.613911228,657b66ea316d21385b68909f,,,,,,,,,,,3067.9406,3068.9248,,,3069.4368,3069.4383,,121,121,,,,,,,,,,,,,,,,bars/034.png,bars/mask000.png,,,,,,,,,,,,6,1,,,,,,,7,2,7,0,,,,,,,,,,,3068.9248,3069.4366,3069.4383,3071.5429,space,1.5284,,3071.5429,4,56,3072.525,3072.5251,3072.5293,,,,0,1,1,1,1,125,65,,,,,,,,
,,614e351010435c9f51dee6bf,65af5608941b6f73074ccf9c,2024-01-23_08h08.04.163,bars,2023.2.3,Win32,0.613911228,657b66ea316d21385b68909f,,,,,,,,,,,3072.53,3073.5183,,,3074.024,3074.0257,,126,126,,,,,,,,,,,,,,,,bars/012.png,bars/mask005.png,,,,,,,,,,,,0,1,,,,,,,9,0,8,1,,,,,,,,,,,3073.5184,3074.024,3074.0257,3079.1741,space,4.6679,0.0007,3079.1742,36,69,3080.1805,3080.1805,3080.1817,,,,0,2,2,2,1,90,15,,,,,,,,
,,614e351010435c9f51dee6bf,65af5608941b6f73074ccf9c,2024-01-23_08h08.04.163,bars,2023.2.3,Win32,0.613911228,657b66ea316d21385b68909f,,,,,,,,,,,3080.1825,3081.2006,,,3081.7271,3081.7281,,97,97,,,,,,,,,,,,,,,,bars/018.png,bars/mask003.png,,,,,,,,,,,,2,2,,,,,,,7,2,8,2,,,,,,,,,,,3081.2007,3081.7271,3081.7281,3089.2959,space,7.1037,,3089.2959,53,7,3090.2455,3090.2456,3090.2488,,,,0,3,3,3,1,150,90,,,,,,,,
,,614e351010435c9f51dee6bf,65af5608941b6f73074ccf9c,2024-01-23_08h08.04.163,bars,2023.2.3,Win32,0.613911228,657b66ea316d21385b68909f,,,,,,,,,,,3090.2495,3091.228,,,3091.7152,3091.7163,,170,-10,,,,,,,,,,,,,,,,bars/003.png,bars/mask005.png,,,,,,,,,,,,0,2,,,,,,,9,4,9,4,,,,,,,,,,,3091.2281,3091.7151,3091.7164,3100.1353,space,7.9637,,3100.1353,35,30,3101.1347,3101.1347,3101.1487,,,,0,4,4,4,1,25,140,,,,,,,,
,,614e351010435c9f51dee6bf,65af5608941b6f73074ccf9c,2024-01-23_08h08.04.163,bars,2023.2.3,Win32,0.613911228,657b66ea316d21385b68909f,,,,,,,,,,,3101.1495,3102.1031,,,3102.5933,3102.5952,,16,16,,,,,,,,,,,,,,,,bars/037.png,bars/mask007.png,,,,,,,,,,,,0,1,,,,,,,10,6,10,6,,,,,,,,,,,3102.1032,3102.5933,3102.5952,3107.0668,space,4.0196,,3107.0668,46,89,3108.0258,3108.0258,3108.0294,,,,0,5,5,5,1,150,105,,,,,,,,
,,614e351010435c9f51dee6bf,65af5608941b6f73074ccf9c,2024-01-23_08h08.04.163,bars,2023.2.3,Win32,0.613911228,657b66ea316d21385b68909f,,,,,,,,,,,3108.0302,3109.0217,,,3109.5035,3109.5049,,71,71,,,,,,,,,,,,,,,,bars/022.png,bars/mask005.png,,,,,,,,,,,,2,1,,,,,,,8,4,9,6,,,,,,,,,,,3109.0217,3109.5035,3109.5049,3117.5125,space,7.5581,,3117.5125,24,51,3118.4938,3118.4938,3118.5067,,,,0,6,6,6,1,95,20,,,,,,,,
,,614e351010435c9f51dee6bf,65af5608941b6f73074ccf9c,2024-01-23_08h08.04.163,bars,2023.2.3,Win32,0.613911228,657b66ea316d21385b68909f,,,,,,,,,,,3118.5073,3119.511,,,3120.078,3120.0789,,107,107,,,,,,,,,,,,,,,,bars/020.png,bars/mask002.png,,,,,,,,,,,,7,1,,,,,,,10,2,10,2,,,,,,,,,,,3119.511,3120.078,3120.0789,3128.4781,space,7.8881,0.0006,3128.4782,8,63,3129.4663,3129.4664,3129.4815,,,,0,7,7,7,1,115,170,,,,,,,,
,,614e351010435c9f51dee6bf,65af5608941b6f73074ccf9c,2024-01-23_08h08.04.163,bars,2023.2.3,Win32,0.613911228,657b66ea316d21385b68909f,,,,,,,,,,,3129.4821,3130.4779,,,3130.9973,3130.9997,,28,28,,,,,,,,,,,,,,,,bars/043.png,bars/mask006.png,,,,,,,,,,,,9,1,,,,,,,10,4,10,4,,,,,,,,,,,3130.4779,3130.9972,3130.9997,3137.9739,space,6.5093,0.0007,3137.9739,2,78,3138.948,3138.9481,3138.9616,,,,0,8,8,8,1,30,130,,,,,,,,
,,614e351010435c9f51dee6bf,65af5608941b6f73074ccf9c,2024-01-23_08h08.04.163,bars,2023.2.3,Win32,0.613911228,657b66ea316d21385b68909f,,,,,,,,,,,3138.9622,3139.9557,,,3140.4453,3140.4467,,94,94,,,,,,,,,,,,,,,,bars/039.png,bars/mask001.png,,,,,,,,,,,,3,2,,,,,,,8,6,6,5,,,,,,,,,,,3139.9557,3140.4451,3140.4467,3145.4669,space,4.5656,,3145.467,81,11,3146.4268,3146.4268,3146.4428,,,,0,9,9,9,1,175,105,,,,,,,,
,,614e351010435c9f51dee6bf,65af5608941b6f73074ccf9c,2024-01-23_08h08.04.163,bars,2023.2.3,Win32,0.613911228,657b66ea316d21385b68909f,,,,,,,,,,,3146.4435,3147.3931,,,3147.8921,3147.8935,,37,37,,,,,,,,,,,,,,,,bars/022.png,bars/mask004.png,,,,,,,,,,,,2,2,,,,,,,6,4,6,5,,,,,,,,,,,3147.3931,3147.892,3147.8936,3152.4283,space,4.0785,0.0008,3152.4283,58,17,3153.4054,3153.4055,3153.407,,,,0,10,10,10,1,95,20,,,,,,,,
,,614e351010435c9f51dee6bf,65af5608941b6f73074ccf9c,2024-01-23_08h08.04.163,bars,2023.2.3,Win32,0.613911228,657b66ea316d21385b68909f,,,,,,,,,,,3153.4077,3154.4829,,,3155.027,3155.0288,,136,136,,,,,,,,,,,,,,,,bars/007.png,bars/mask006.png,,,,,,,,,,,,0,1,,,,,,,4,2,3,2,,,,,,,,,,,3154.4829,3155.0269,3155.0288,3161.4626,space,5.9322,,3161.4627,39,81,3162.444,3162.444,3162.4475,,,,0,11,11,11,1,175,55,,,,,,,,
,,614e351010435c9f51dee6bf,65af5608941b6f73074ccf9c,2024-01-23_08h08.04.163,bars,2023.2.3,Win32,0.613911228,657b66ea316d21385b68909f,,,,,,,,,,,3162.4482,3163.4124,,,3163.9084,3163.91,,5,185,,,,,,,,,,,,,,,,bars/043.png,bars/mask005.png,,,,,,,,,,,,0,1,,,,,,,2,0,3,2,,,,,,,,,,,3163.4124,3163.9083,3163.9101,3169.9374,space,5.5657,,3169.9375,25,55,3170.8864,3170.8865,3170.8878,,,,0,12,12,12,1,30,130,,,,,,,,
,,614e351010435c9f51dee6bf,65af5608941b6f73074ccf9c,2024-01-23_08h08.04.163,bars,2023.2.3,Win32,0.613911228,657b66ea316d21385b68909f,,,,,,,,,,,3170.8885,3171.8464,,,3172.3681,3172.3693,,134,134,,,,,,,,,,,,,,,,bars/039.png,bars/mask007.png,,,,,,,,,,,,0,2,,,,,,,4,0,4,0,,,,,,,,,,,3171.8465,3172.368,3172.3693,3176.948,space,4.1021,,3176.9481,41,29,3177.9111,3177.9112,3177.9144,,,,0,13,13,13,1,175,105,,,,,,,,
,,614e351010435c9f51dee6bf,65af5608941b6f73074ccf9c,2024-01-23_08h08.04.163,bars,2023.2.3,Win32,0.613911228,657b66ea316d21385b68909f,,,,,,,,,,,3177.9153,3178.884,,,3179.4031,3179.404,,91,91,,,,,,,,,,,,,,,,bars/004.png,bars/mask009.png,,,,,,,,,,,,0,2,,,,,,,6,2,5,2,,,,,,,,,,,3178.8841,3179.403,3179.4041,3181.8542,space,1.9652,0.0005,3181.8543,66,34,3182.8145,3182.8145,3182.8159,,,,0,14,14,14,1,25,125,,,,,,,,
,,614e351010435c9f51dee6bf,65af5608941b6f73074ccf9c,2024-01-23_08h08.04.163,bars,2023.2.3,Win32,0.613911228,657b66ea316d21385b68909f,,,,,,,,,,,3182.8165,3183.7992,,,3184.2891,3184.2902,,35,35,,,,,,,,,,,,,,,,bars/049.png,bars/mask004.png,,,,,,,,,,,,0,1,,,,,,,8,4,10,6,,,,,,,,,,,3183.7993,3184.2891,3184.2902,3186.2038,space,1.4635,,3186.2039,55,80,3187.1584,3187.1585,3187.1627,,,,0,15,15,15,1,160,115,,,,,,,,
,,614e351010435c9f51dee6bf,65af5608941b6f73074ccf9c,2024-01-23_08h08.04.163,bars,2023.2.3,Win32,0.613911228,657b66ea316d21385b68909f,,,,,,,,,,,3187.1636,3188.1408,,,3188.6293,3188.6306,,163,163,,,,,,,,,,,,,,,,bars/034.png,bars/mask002.png,,,,,,,,,,,,0,1,,,,,,,10,6,10,7,,,,,,,,,,,3188.1409,3188.6292,3188.6306,3195.6248,space,6.5161,0.0002,3195.6249,38,82,3196.628,3196.6281,3196.6301,,,,0,16,16,16,1,125,65,,,,,,,,
,,614e351010435c9f51dee6bf,65af5608941b6f73074ccf9c,2024-01-23_08h08.04.163,bars,2023.2.3,Win32,0.613911228,657b66ea316d21385b68909f,,,,,,,,,,,3196.6309,3197.6454,,,3198.1312,3198.1328,,178,178,,,,,,,,,,,,,,,,bars/011.png,bars/mask000.png,,,,,,,,,,,,3,1,,,,,,,8,4,8,5,,,,,,,,,,,3197.6454,3198.1311,3198.1329,3206.5954,space,8.0036,0.0006,3206.5955,18,87,3207.5479,3207.5479,3207.563,,,,0,17,17,17,1,160,85,,,,,,,,
,,614e351010435c9f51dee6bf,65af5608941b6f73074ccf9c,2024-01-23_08h08.04.163,bars,2023.2.3,Win32,0.613911228,657b66ea316d21385b68909f,,,,,,,,,,,3207.5638,3208.514,,,3209.0186,3209.0195,,30,30,,,,,,,,,,,,,,,,bars/012.png,bars/mask004.png,,,,,,,,,,,,3,2,,,,,,,6,6,5,6,,,,,,,,,,,3208.5142,3209.0185,3209.0196,3215.4033,space,5.9272,,3215.4033,60,15,3216.399,3216.399,3216.4144,,,,0,18,18,18,1,90,15,,,,,,,,
,,614e351010435c9f51dee6bf,65af5608941b6f73074ccf9c,2024-01-23_08h08.04.163,bars,2023.2.3,Win32,0.613911228,657b66ea316d21385b68909f,,,,,,,,,,,3216.4152,3217.3506,,,3217.8365,3217.8384,,58,58,,,,,,,,,,,,,,,,bars/007.png,bars/mask005.png,,,,,,,,,,,,7,2,,,,,,,8,8,8,8,,,,,,,,,,,3217.3506,3217.8365,3217.8385,3226.7323,space,8.4116,,3226.7324,63,3,3227.6995,3227.6995,3227.7009,,,,0,19,19,19,1,175,55,,,,,,,,
,,614e351010435c9f51dee6bf,65af5608941b6f73074ccf9c,2024-01-23_08h08.04.163,bars,2023.2.3,Win32,0.613911228,657b66ea316d21385b68909f,,,,,,,,,,,3227.7014,3228.6797,,,3229.1735,3229.1762,,16,16,,,,,,,,,,,,,,,,bars/037.png,bars/mask004.png,,,,,,,,,,,,0,1,,,,,,,10,6,10,5,,,,,,,,,,,3228.6798,3229.1735,3229.1762,3237.7026,space,8.0574,0.0002,3237.7027,46,89,3238.6968,3238.6968,3238.7006,,,,0,20,20,20,1,150,105,,,,,,,,
,,614e351010435c9f51dee6bf,65af5608941b6f73074ccf9c,2024-01-23_08h08.04.163,bars,2023.2.3,Win32,0.613911228,657b66ea316d21385b68909f,,,,,,,,,,,3238.7014,3239.6583,,,3240.1476,3240.1518,,150,-30,,,,,,,,,,,,,,,,bars/030.png,bars/mask003.png,,,,,,,,,,,,5,1,,,,,,,8,8,8,8,,,,,,,,,,,3239.6584,3240.1476,3240.1518,3281.2921,space,40.6773,,3281.2923,10,85,3282.2835,3282.2836,3282.2853,,,,0,21,21,21,1,140,65,,,,,,,,
,,614e351010435c9f51dee6bf,65af5608941b6f73074ccf9c,2024-01-23_08h08.04.163,bars,2023.2.3,Win32,0.613911228,657b66ea316d21385b68909f,,,,,,,,,,,3282.2861,3283.2202,,,3283.7088,3283.7102,,98,98,,,,,,,,,,,,,,,,bars/010.png,bars/mask000.png,,,,,,,,,,,,0,2,,,,,,,6,10,4,10,,,,,,,,,,,3283.2202,3283.7088,3283.7103,3294.5991,space,10.4194,0.0007,3294.5991,67,43,3295.5861,3295.5861,3295.603,,,,0,22,22,22,1,165,55,,,,,,,,
,,614e351010435c9f51dee6bf,65af5608941b6f73074ccf9c,2024-01-23_08h08.04.163,bars,2023.2.3,Win32,0.613911228,657b66ea316d21385b68909f,,,,,,,,,,,3295.6039,3296.5786,,,3297.1069,3297.1082,,139,139,,,,,,,,,,,,,,,,bars/033.png,bars/mask008.png,,,,,,,,,,,,4,2,,,,,,,4,10,4,9,,,,,,,,,,,3296.5787,3297.1068,3297.1083,3306.618,space,9.0047,,3306.6181,66,16,3307.6638,3307.6638,3307.68,,,,0,23,23,23,1,25,155,,,,,,,,
,,614e351010435c9f51dee6bf,65af5608941b6f73074ccf9c,2024-01-23_08h08.04.163,bars,2023.2.3,Win32,0.613911228,657b66ea316d21385b68909f,,,,,,,,,,,3307.6804,3308.765,,,3309.2679,3309.2696,,159,159,,,,,,,,,,,,,,,,bars/046.png,bars/mask002.png,,,,,,,,,,,,6,1,,,,,,,6,8,7,8,,,,,,,,,,,3308.765,3309.2678,3309.2697,3318.6492,space,8.8484,,3318.6492,4,74,3319.6364,3319.6364,3319.6536,,,,0,24,24,24,1,155,85,,,,,,,,
,,614e351010435c9f51dee6bf,65af5608941b6f73074ccf9c,2024-01-23_08h08.04.163,bars,2023.2.3,Win32,0.613911228,657b66ea316d21385b68909f,,,,,,,,,,,3319.6546,3320.6048,,,3321.1058,3321.1081,,155,155,,,,,,,,,,,,,,,,bars/045.png,bars/mask000.png,,,,,,,,,,,,0,2,,,,,,,8,6,9,4,,,,,,,,,,,3320.6048,3321.1057,3321.1081,3331.7691,space,10.1709,0.0002,3331.7692,55,35,3332.7375,3332.7375,3332.7531,,,,0,25,25,25,1,100,10,,,,,,,,
,,614e351010435c9f51dee6bf,65af5608941b6f73074ccf9c,2024-01-23_08h08.04.163,bars,2023.2.3,Win32,0.613911228,657b66ea316d21385b68909f,,,,,,,,,,,3332.7539,3333.7296,,,3334.2114,3334.2131,,32,32,,,,,,,,,,,,,,,,bars/022.png,bars/mask008.png,,,,,,,,,,,,3,2,,,,,,,10,4,10,5,,,,,,,,,,,3333.7297,3334.2114,3334.2132,3345.6016,space,10.9334,0.0007,3345.6016,63,12,3346.5581,3346.5581,3346.5715,,,,0,26,26,26,1,95,20,,,,,,,,
,,614e351010435c9f51dee6bf,65af5608941b6f73074ccf9c,2024-01-23_08h08.04.163,bars,2023.2.3,Win32,0.613911228,657b66ea316d21385b68909f,,,,,,,,,,,3346.5721,3347.5375,,,3348.0238,3348.0253,,166,-14,,,,,,,,,,,,,,,,bars/031.png,bars/mask006.png,,,,,,,,,,,,0,1,,,,,,,8,6,9,5,,,,,,,,,,,3347.5393,3348.0237,3348.0253,3364.6129,space,16.1239,,3364.6129,46,49,3365.5679,3365.5679,3365.5832,,,,0,27,27,27,1,120,35,,,,,,,,
,,614e351010435c9f51dee6bf,65af5608941b6f73074ccf9c,2024-01-23_08h08.04.163,bars,2023.2.3,Win32,0.613911228,657b66ea316d21385b68909f,,,,,,,,,,,3365.5845,3366.5496,,,3367.0403,3367.042,,136,136,,,,,,,,,,,,,,,,bars/038.png,bars/mask009.png,,,,,,,,,,,,0,1,,,,,,,10,8,10,10,,,,,,,,,,,3366.5496,3367.0402,3367.042,3374.1122,space,6.6174,,3374.1124,29,66,3375.0568,3375.0568,3375.0725,,,,0,28,28,28,1,165,70,,,,,,,,
,,614e351010435c9f51dee6bf,65af5608941b6f73074ccf9c,2024-01-23_08h08.04.163,bars,2023.2.3,Win32,0.613911228,657b66ea316d21385b68909f,,,,,,,,,,,3375.0735,3376.0425,,,3376.5474,3376.5492,,42,42,,,,,,,,,,,,,,,,bars/036.png,bars/mask003.png,,,,,,,,,,,,2,2,,,,,,,8,6,10,6,,,,,,,,,,,3376.0426,3376.5473,3376.5492,3382.4888,space,5.4776,,3382.4889,77,22,3383.4559,3383.456,3383.4721,,,,0,29,29,29,1,145,20,,,,,,,,
,,614e351010435c9f51dee6bf,65af5608941b6f73074ccf9c,2024-01-23_08h08.04.163,bars,2023.2.3,Win32,0.613911228,657b66ea316d21385b68909f,,,,,,,,,,,3383.4729,3384.4053,,,3384.9337,3384.9349,,116,116,,,,,,,,,,,,,,,,bars/008.png,bars/mask001.png,,,,,,,,,,,,6,1,,,,,,,6,8,7,9,,,,,,,,,,,3384.4053,3384.9336,3384.9349,3401.4297,space,16.0479,,3401.4297,6,64,3402.3904,3402.3904,3402.4068,,,,0,30,30,30,1,110,0,,,,,,,,
,,614e351010435c9f51dee6bf,65af5608941b6f73074ccf9c,2024-01-23_08h08.04.163,bars,2023.2.3,Win32,0.613911228,657b66ea316d21385b68909f,,,,,,,,,,,3402.4077,3403.3588,,,3403.8526,3403.8541,,13,13,,,,,,,,,,,,,,,,bars/012.png,bars/mask001.png,,,,,,,,,,,,6,2,,,,,,,4,6,3,6,,,,,,,,,,,3403.3588,3403.8525,3403.8541,3410.6857,space,6.3749,,3410.6857,77,2,3411.6434,3411.6435,3411.6586,,,,0,31,31,31,1,90,15,,,,,,,,
,,614e351010435c9f51dee6bf,65af5608941b6f73074ccf9c,2024-01-23_08h08.04.163,bars,2023.2.3,Win32,0.613911228,657b66ea316d21385b68909f,,,,,,,,,,,3411.6593,3412.5986,,,3413.1107,3413.1118,,66,66,,,,,,,,,,,,,,,,bars/043.png,bars/mask001.png,,,,,,,,,,,,0,1,,,,,,,6,4,5,3,,,,,,,,,,,3412.5986,3413.1106,3413.1118,3419.007,space,5.4398,0.0006,3419.007,36,64,3419.9704,3419.9705,3419.9869,,,,0,32,32,32,1,30,130,,,,,,,,
,,614e351010435c9f51dee6bf,65af5608941b6f73074ccf9c,2024-01-23_08h08.04.163,bars,2023.2.3,Win32,0.613911228,657b66ea316d21385b68909f,,,,,,,,,,,3419.9877,3420.9727,,,3421.4644,3421.4653,,109,109,,,,,,,,,,,,,,,,bars/016.png,bars/mask003.png,,,,,,,,,,,,0,2,,,,,,,8,2,10,2,,,,,,,,,,,3420.9728,3421.4644,3421.4654,3442.1204,space,20.188,0.0003,3442.1205,69,56,3443.1966,3443.1966,3443.2159,,,,0,33,33,33,1,40,165,,,,,,,,
,,614e351010435c9f51dee6bf,65af5608941b6f73074ccf9c,2024-01-23_08h08.04.163,bars,2023.2.3,Win32,0.613911228,657b66ea316d21385b68909f,,,,,,,,,,,3443.2166,3444.3544,,,3444.9185,3444.9246,,131,131,,,,,,,,,,,,,,,,bars/004.png,bars/mask004.png,,,,,,,,,,,,0,2,,,,,,,6,0,6,0,,,,,,,,,,,3444.3545,3444.9184,3444.9246,3449.8189,space,4.3546,,3449.819,74,6,3450.9609,3450.9609,3450.9772,,,,0,34,34,34,1,25,125,,,,,,,,
,,614e351010435c9f51dee6bf,65af5608941b6f73074ccf9c,2024-01-23_08h08.04.163,bars,2023.2.3,Win32,0.613911228,657b66ea316d21385b68909f,,,,,,,,,,,3450.9778,3451.945,,,3452.4534,3452.455,,78,78,,,,,,,,,,,,,,,,bars/006.png,bars/mask000.png,,,,,,,,,,,,0,2,,,,,,,4,0,1,0,,,,,,,,,,,3451.9451,3452.4533,3452.455,3473.2837,space,20.3441,,3473.2837,43,22,3474.2854,3474.2854,3474.3023,,,,0,35,35,35,1,35,100,,,,,,,,
,,614e351010435c9f51dee6bf,65af5608941b6f73074ccf9c,2024-01-23_08h08.04.163,bars,2023.2.3,Win32,0.613911228,657b66ea316d21385b68909f,,,,,,,,,,,3474.3027,3475.2697,,,3475.7852,3475.7874,,179,179,,,,,,,,,,,,,,,,bars/031.png,bars/mask001.png,,,,,,,,,,,,0,2,,,,,,,6,2,6,3,,,,,,,,,,,3475.2697,3475.7851,3475.7875,3479.769,space,3.518,0.0002,3479.769,59,36,3480.7365,3480.7366,3480.7383,,,,0,36,36,36,1,120,35,,,,,,,,
,,614e351010435c9f51dee6bf,65af5608941b6f73074ccf9c,2024-01-23_08h08.04.163,bars,2023.2.3,Win32,0.613911228,657b66ea316d21385b68909f,,,,,,,,,,,3480.739,3481.7556,,,3482.2541,3482.2551,,145,145,,,,,,,,,,,,,,,,bars/045.png,bars/mask001.png,,,,,,,,,,,,0,2,,,,,,,4,0,5,1,,,,,,,,,,,3481.7557,3482.254,3482.2551,3489.4626,space,6.7481,,3489.4626,45,45,3490.4556,3490.4556,3490.4711,,,,0,37,37,37,1,100,10,,,,,,,,
,,614e351010435c9f51dee6bf,65af5608941b6f73074ccf9c,2024-01-23_08h08.04.163,bars,2023.2.3,Win32,0.613911228,657b66ea316d21385b68909f,,,,,,,,,,,3490.4718,3491.4242,,,3491.9126,3491.9136,,171,171,,,,,,,,,,,,,,,,bars/048.png,bars/mask001.png,,,,,,,,,,,,0,2,,,,,,,2,0,1,0,,,,,,,,,,,3491.4243,3491.9124,3491.9136,3503.4923,space,11.1297,0.0006,3503.4924,59,4,3504.4799,3504.48,3504.4935,,,,0,38,38,38,1,50,175,,,,,,,,
,,614e351010435c9f51dee6bf,65af5608941b6f73074ccf9c,2024-01-23_08h08.04.163,bars,2023.2.3,Win32,0.613911228,657b66ea316d21385b68909f,,,,,,,,,,,3504.4941,3505.4376,,,3505.9323,3505.9338,,44,44,,,,,,,,,,,,,,,,bars/017.png,bars/mask004.png,,,,,,,,,,,,2,2,,,,,,,0,2,0,2,,,,,,,,,,,3505.4377,3505.9322,3505.9338,3517.3192,space,10.9335,,3517.3193,79,1,3518.2799,3518.28,3518.2942,,,,0,39,39,39,1,145,45,,,,,,,,
,,614e351010435c9f51dee6bf,65af5608941b6f73074ccf9c,2024-01-23_08h08.04.163,bars,2023.2.3,Win32,0.613911228,657b66ea316d21385b68909f,,,,,,,,,,,3518.2949,3519.2612,,,3519.7497,3519.7508,,100,100,,,,,,,,,,,,,,,,bars/045.png,bars/mask002.png,,,,,,,,,,,,1,1,,,,,,,0,0,1,2,,,,,,,,,,,3519.2613,3519.7496,3519.7508,3532.3485,space,12.143,0.0007,3532.3485,0,90,3533.3856,3533.3857,3533.402,,,,0,40,40,40,1,100,10,,,,,,,,
,,614e351010435c9f51dee6bf,65af5608941b6f73074ccf9c,2024-01-23_08h08.04.163,bars,2023.2.3,Win32,0.613911228,657b66ea316d21385b68909f,,,,,,,,,,,3533.4024,3534.4074,,,3534.9006,3534.9024,,61,61,,,,,,,,,,,,,,,,bars/023.png,bars/mask009.png,,,,,,,,,,,,0,1,,,,,,,0,0,0,0,,,,,,,,,,,3534.4074,3534.9006,3534.9024,3545.3641,space,9.9748,,3545.3641,41,54,3546.3457,3546.3458,3546.3606,,,,0,41,41,41,1,20,115,,,,,,,,
,,614e351010435c9f51dee6bf,65af5608941b6f73074ccf9c,2024-01-23_08h08.04.163,bars,2023.2.3,Win32,0.613911228,657b66ea316d21385b68909f,,,,,,,,,,,3546.3613,3547.3245,,,3547.8163,3547.818,,27,27,,,,,,,,,,,,,,,,bars/014.png,bars/mask005.png,,,,,,,,,,,,0,2,,,,,,,2,0,1,1,,,,,,,,,,,3547.3245,3547.8162,3547.8181,3553.8458,space,5.5669,,3553.8458,53,27,3554.8324,3554.8324,3554.8358,,,,0,42,42,42,1,80,0,,,,,,,,
,,614e351010435c9f51dee6bf,65af5608941b6f73074ccf9c,2024-01-23_08h08.04.163,bars,2023.2.3,Win32,0.613911228,657b66ea316d21385b68909f,,,,,,,,,,,3554.8369,3555.8287,,,3556.3398,3556.3413,,113,113,,,,,,,,,,,,,,,,bars/014.png,bars/mask003.png,,,,,,,,,,,,0,1,,,,,,,0,0,0,0,,,,,,,,,,,3555.8288,3556.3398,3556.3413,3565.0419,space,8.2371,,3565.0419,33,67,3566.0094,3566.0095,3566.0261,,,,0,43,43,43,1,80,0,,,,,,,,
,,614e351010435c9f51dee6bf,65af5608941b6f73074ccf9c,2024-01-23_08h08.04.163,bars,2023.2.3,Win32,0.613911228,657b66ea316d21385b68909f,,,,,,,,,,,3566.0268,3566.9745,,,3567.493,3567.4944,,119,119,,,,,,,,,,,,,,,,bars/023.png,bars/mask006.png,,,,,,,,,,,,1,2,,,,,,,2,0,2,1,,,,,,,,,,,3566.9745,3567.493,3567.4944,3572.5562,space,4.6031,0.0003,3572.5562,81,4,3573.5249,3573.525,3573.5281,,,,0,44,44,44,1,20,115,,,,,,,,
,,614e351010435c9f51dee6bf,65af5608941b6f73074ccf9c,2024-01-23_08h08.04.163,bars,2023.2.3,Win32,0.613911228,657b66ea316d21385b68909f,,,,,,,,,,,3573.529,3574.4905,,,3575.0115,3575.0125,,149,149,,,,,,,,,,,,,,,,bars/007.png,bars/mask008.png,,,,,,,,,,,,1,1,,,,,,,4,2,4,2,,,,,,,,,,,3574.4906,3575.0114,3575.0125,3579.5144,space,4.0446,0.0006,3579.5145,26,86,3580.4702,3580.4703,3580.4875,,,,0,45,45,45,1,175,55,,,,,,,,
,,614e351010435c9f51dee6bf,65af5608941b6f73074ccf9c,2024-01-23_08h08.04.163,bars,2023.2.3,Win32,0.613911228,657b66ea316d21385b68909f,,,,,,,,,,,3580.4883,3581.4267,,,3581.9665,3581.9676,,102,102,,,,,,,,,,,,,,,,bars/021.png,bars/mask002.png,,,,,,,,,,,,0,2,,,,,,,2,4,2,4,,,,,,,,,,,3581.4267,3581.9665,3581.9677,3588.9835,space,6.5605,0.0006,3588.9837,53,32,3589.9428,3589.9429,3589.9465,,,,0,46,46,46,1,155,70,,,,,,,,
,,614e351010435c9f51dee6bf,65af5608941b6f73074ccf9c,2024-01-23_08h08.04.163,bars,2023.2.3,Win32,0.613911228,657b66ea316d21385b68909f,,,,,,,,,,,3589.9473,3590.8871,,,3591.428,3591.4289,,167,167,,,,,,,,,,,,,,,,bars/044.png,bars/mask008.png,,,,,,,,,,,,1,2,,,,,,,4,2,4,2,,,,,,,,,,,3590.8871,3591.428,3591.429,3593.9225,space,2.0156,0.0007,3593.9225,88,12,3594.8734,3594.8735,3594.8747,,,,0,47,47,47,1,75,155,,,,,,,,
,,614e351010435c9f51dee6bf,65af5608941b6f73074ccf9c,2024-01-23_08h08.04.163,bars,2023.2.3,Win32,0.613911228,657b66ea316d21385b68909f,,,,,,,,,,,3594.8753,3595.8828,,,3596.3716,3596.373,,165,165,,,,,,,,,,,,,,,,bars/023.png,bars/mask008.png,,,,,,,,,,,,0,1,,,,,,,6,0,5,0,,,,,,,,,,,3595.8828,3596.3715,3596.373,3603.849,space,7.0196,,3603.8491,35,50,3604.8481,3604.8482,3604.853,,,,0,48,48,48,1,20,115,,,,,,,,
,,614e351010435c9f51dee6bf,65af5608941b6f73074ccf9c,2024-01-23_08h08.04.163,bars,2023.2.3,Win32,0.613911228,657b66ea316d21385b68909f,,,,,,,,,,,3604.8538,3605.8075,,,3606.3012,3606.3027,,144,144,,,,,,,,,,,,,,,,bars/046.png,bars/mask007.png,,,,,,,,,,,,4,1,,,,,,,4,0,6,0,,,,,,,,,,,3605.8076,3606.301,3606.3027,3615.2555,space,8.5017,,3615.2555,11,59,3616.2142,3616.2142,3616.2156,,,,0,49,49,49,1,155,85,,,,,,,,
,,614e351010435c9f51dee6bf,65af5608941b6f73074ccf9c,2024-01-23_08h08.04.163,bars,2023.2.3,Win32,0.613911228,657b66ea316d21385b68909f,,,,,,,,,,,,,,,,,,,,,,,,,,,,,,,,,,,,,,,,,,,,,,,,,,,,,,,,,,,,,,,,,,,,,,,,,,,,,,,,,,,,,,,,,,,,,3616.2157,3676.0933,0,3,3,1,1,sequence_tables/blk027.csv
,,614e351010435c9f51dee6bf,65af5608941b6f73074ccf9c,2024-01-23_08h08.04.163,bars,2023.2.3,Win32,0.613911228,657b66ea316d21385b68909f,,,,,,,,,,,3687.8819,3688.8194,,,3689.3043,3689.306,,20,20,,,,,,,,,,,,,,,,bars/000.png,bars/mask001.png,,,,,,,,,,,,3,1,,,,,,,10,7,10,7,,,,,,3676.1072,3687.8628,space,11.2819,0.0007,3688.8195,3689.3042,3689.306,3699.0729,space,9.3138,,3699.073,20,55,3700.0454,3700.0454,3700.0588,,,,0,0,0,0,1,40,145,,,,,,,,
,,614e351010435c9f51dee6bf,65af5608941b6f73074ccf9c,2024-01-23_08h08.04.163,bars,2023.2.3,Win32,0.613911228,657b66ea316d21385b68909f,,,,,,,,,,,3700.0594,3700.9995,,,3701.4934,3701.4947,,60,60,,,,,,,,,,,,,,,,bars/047.png,bars/mask004.png,,,,,,,,,,,,5,2,,,,,,,8,9,8,8,,,,,,,,,,,3700.9995,3701.4934,3701.4947,3708.4613,space,6.5159,,3708.4614,45,10,3709.4348,3709.4349,3709.4502,,,,0,1,1,1,1,15,70,,,,,,,,
,,614e351010435c9f51dee6bf,65af5608941b6f73074ccf9c,2024-01-23_08h08.04.163,bars,2023.2.3,Win32,0.613911228,657b66ea316d21385b68909f,,,,,,,,,,,3709.4509,3710.3877,,,3710.8978,3710.9003,,80,80,,,,,,,,,,,,,,,,bars/026.png,bars/mask008.png,,,,,,,,,,,,6,2,,,,,,,6,7,4,7,,,,,,,,,,,3710.3878,3710.8978,3710.9004,3719.815,space,8.4296,0.0006,3719.815,45,5,3720.7876,3720.7877,3720.801,,,,0,2,2,2,1,35,85,,,,,,,,
,,614e351010435c9f51dee6bf,65af5608941b6f73074ccf9c,2024-01-23_08h08.04.163,bars,2023.2.3,Win32,0.613911228,657b66ea316d21385b68909f,,,,,,,,,,,3720.8017,3721.748,,,3722.2317,3722.2333,,38,38,,,,,,,,,,,,,,,,bars/036.png,bars/mask001.png,,,,,,,,,,,,4,2,,,,,,,8,9,8,10,,,,,,,,,,,3721.7481,3722.2316,3722.2333,3725.6873,space,2.9956,0.0005,3725.6874,73,18,3726.6472,3726.6473,3726.649,,,,0,3,3,3,1,145,20,,,,,,,,
,,614e351010435c9f51dee6bf,65af5608941b6f73074ccf9c,2024-01-23_08h08.04.163,bars,2023.2.3,Win32,0.613911228,657b66ea316d21385b68909f,,,,,,,,,,,3726.6497,3727.6263,,,3728.1125,3728.1143,,149,149,,,,,,,,,,,,,,,,bars/043.png,bars/mask006.png,,,,,,,,,,,,3,2,,,,,,,10,7,9,7,,,,,,,,,,,3727.6263,3728.1125,3728.1143,3733.4838,space,4.9088,0.0007,3733.4839,61,19,3734.4322,3734.4323,3734.4459,,,,0,4,4,4,1,30,130,,,,,,,,
,,614e351010435c9f51dee6bf,65af5608941b6f73074ccf9c,2024-01-23_08h08.04.163,bars,2023.2.3,Win32,0.613911228,657b66ea316d21385b68909f,,,,,,,,,,,3734.4465,3735.3989,,,3735.9,3735.9015,,114,114,,,,,,,,,,,,,,,,bars/001.png,bars/mask000.png,,,,,,,,,,,,4,1,,,,,,,8,5,8,7,,,,,,,,,,,3735.399,3735.8999,3735.9015,3743.297,space,6.9405,0.0004,3743.297,16,29,3744.2794,3744.2795,3744.2973,,,,0,5,5,5,1,130,85,,,,,,,,
,,614e351010435c9f51dee6bf,65af5608941b6f73074ccf9c,2024-01-23_08h08.04.163,bars,2023.2.3,Win32,0.613911228,657b66ea316d21385b68909f,,,,,,,,,,,3744.298,3745.2343,,,3745.7192,3745.7204,,133,133,,,,,,,,,,,,,,,,bars/033.png,bars/mask007.png,,,,,,,,,,,,1,2,,,,,,,10,3,10,3,,,,,,,,,,,3745.2343,3745.719,3745.7204,3753.1261,space,6.9285,0.0005,3753.1261,72,22,3754.077,3754.0771,3754.0802,,,,0,6,6,6,1,25,155,,,,,,,,
