init_variables.started,init_variables.stopped,participant,session,date,expName,psychopyVersion,OS,frameRate,study_id,instruction_exp.started,instruction_exp.stopped,key_resp_8.keys,key_resp_8.rt,key_resp_8.duration,instruction_single.started,instruction_single.stopped,key_resp_2.keys,key_resp_2.rt,key_resp_2.duration,interval.started,interval.stopped,cue_single.started,cue_single.stopped,mask.started,mask.stopped,ori_response_single.started,res_ori,res,ori_response_single.stopped,key_resp_single.keys,key_resp_single.rt,key_resp_single.duration,disp_single.started,disp_single.stopped,key_resp.keys,key_resp.rt,key_resp.duration,single.thisRepN,single.thisTrialN,single.thisN,single.thisIndex,single.ran,ori,path,mask_path,instruction_bandit.started,instruction_bandit.stopped,key_resp_6.keys,key_resp_6.rt,key_resp_6.duration,cue_bandit.started,cue_bandit.stopped,bandit_res.keys,bandit_res.rt,bandit_res.duration,outcome_bandit.started,rew,action,outcome_bandit.stopped,bandit.thisRepN,bandit.thisTrialN,bandit.thisN,bandit.thisIndex,bandit.ran,actual_rew1,actual_rew2,rew1,rew2,instruction_task.started,instruction_task.stopped,key_resp_7.keys,key_resp_7.rt,key_resp_7.duration,wait_ready.started,wait_ready.stopped,key_resp_3.keys,key_resp_3.rt,key_resp_3.duration,cue.started,cue.stopped,ori_response.started,ori_response.stopped,key_resp_5.keys,key_resp_5.rt,key_resp_5.duration,outcome.started,diff1,diff2,outcome.stopped,disp_outcome_practice.started,disp_outcome_practice.stopped,key_resp_4.keys,key_resp_4.rt,key_resp_4.duration,trials.thisRepN,trials.thisTrialN,trials.thisN,trials.thisIndex,trials.ran,ori1,ori2,break_blk.started,break_blk.stopped,block.thisRepN,block.thisTrialN,block.thisN,block.thisIndex,block.ran,condition_file
0.0006,0.0009,5f8038ceefbc9f02632dce3c,65af5689a4d6aa58b7daa711,2024-01-23_08h16.43.553,bars,2023.2.3,Win32,40.98360656,657b66ea316d21385b68909f,,,,,,,,,,,,,,,,,,,,,,,,,,,,,,,,,,,,,,,,,,,,,,,,,,,,,,,,,,,,,,,,,,,,,,,,,,,,,,,,,,,,,,,,,,,,,,,,,,,,
,,5f8038ceefbc9f02632dce3c,65af5689a4d6aa58b7daa711,2024-01-23_08h16.43.553,bars,2023.2.3,Win32,40.98360656,657b66ea316d21385b68909f,0.0013,349.6775,y,349.6317,,,,,,,,,,,,,,,,,,,,,,,,,,,,,,,,,,,,,,,,,,,,,,,,,,,,,,,,,,,,,,,,,,,,,,,,,,,,,,,,,,,,,,,,,,,,,,,,
,,5f8038ceefbc9f02632dce3c,65af5689a4d6aa58b7daa711,2024-01-23_08h16.43.553,bars,2023.2.3,Win32,40.98360656,657b66ea316d21385b68909f,,,,,,349.6777,390.7393,space,41.0358,,,,,,,,,,,,,,,,,,,,,,,,,,,,,,,,,,,,,,,,,,,,,,,,,,,,,,,,,,,,,,,,,,,,,,,,,,,,,,,,,,,,,,,,,,,
,,5f8038ceefbc9f02632dce3c,65af5689a4d6aa58b7daa711,2024-01-23_08h16.43.553,bars,2023.2.3,Win32,40.98360656,657b66ea316d21385b68909f,,,,,,,,,,,390.7637,391.7522,391.7525,392.24,392.2402,392.4836,392.4838,4,4,427.0731,space,34.5257,,427.0735,430.9768,space,3.8349,,0,0,0,2,1,145,bars/single002.png,bars/mask003.png,,,,,,,,,,,,,,,,,,,,,,,,,,,,,,,,,,,,,,,,,,,,,,,,,,,,,,,,,,,,,,,,
,,5f8038ceefbc9f02632dce3c,65af5689a4d6aa58b7daa711,2024-01-23_08h16.43.553,bars,2023.2.3,Win32,40.98360656,657b66ea316d21385b68909f,,,,,,,,,,,430.9777,431.9653,431.9655,432.4513,432.4513,432.6948,432.6948,153,-27,437.2368,space,4.5277,,437.2368,460.8645,space,23.5827,,0,1,1,9,1,20,bars/single009.png,bars/mask006.png,,,,,,,,,,,,,,,,,,,,,,,,,,,,,,,,,,,,,,,,,,,,,,,,,,,,,,,,,,,,,,,,
,,5f8038ceefbc9f02632dce3c,65af5689a4d6aa58b7daa711,2024-01-23_08h16.43.553,bars,2023.2.3,Win32,40.98360656,657b66ea316d21385b68909f,,,,,,,,,,,460.8798,461.8824,461.8825,462.3857,462.3857,462.6312,462.6313,81,81,466.4113,space,3.7734,,466.4113,470.7017,space,4.2638,,0,2,2,4,1,95,bars/single004.png,bars/mask004.png,,,,,,,,,,,,,,,,,,,,,,,,,,,,,,,,,,,,,,,,,,,,,,,,,,,,,,,,,,,,,,,,
,,5f8038ceefbc9f02632dce3c,65af5689a4d6aa58b7daa711,2024-01-23_08h16.43.553,bars,2023.2.3,Win32,40.98360656,657b66ea316d21385b68909f,,,,,,,,,,,470.7147,471.7025,471.7026,472.1905,472.1905,472.4334,472.4334,171,171,507.792,space,35.337,,507.7921,511.3373,space,3.5168,,0,3,3,0,1,150,bars/single000.png,bars/mask006.png,,,,,,,,,,,,,,,,,,,,,,,,,,,,,,,,,,,,,,,,,,,,,,,,,,,,,,,,,,,,,,,,
,,5f8038ceefbc9f02632dce3c,65af5689a4d6aa58b7daa711,2024-01-23_08h16.43.553,bars,2023.2.3,Win32,40.98360656,657b66ea316d21385b68909f,,,,,,,,,,,511.3382,512.3333,512.3333,512.8203,512.8204,513.0636,513.0636,67,67,519.2188,space,6.1398,,519.2189,521.6667,space,2.4155,,0,4,4,5,1,55,bars/single005.png,bars/mask008.png,,,,,,,,,,,,,,,,,,,,,,,,,,,,,,,,,,,,,,,,,,,,,,,,,,,,,,,,,,,,,,,,
,,5f8038ceefbc9f02632dce3c,65af5689a4d6aa58b7daa711,2024-01-23_08h16.43.553,bars,2023.2.3,Win32,40.98360656,657b66ea316d21385b68909f,,,,,,,,,,,521.6671,522.6623,522.6623,523.1517,523.1517,523.3948,523.3948,69,69,526.4717,space,3.062,,526.4717,527.6901,space,1.1826,,0,5,5,6,1,175,bars/single006.png,bars/mask005.png,,,,,,,,,,,,,,,,,,,,,,,,,,,,,,,,,,,,,,,,,,,,,,,,,,,,,,,,,,,,,,,,
,,5f8038ceefbc9f02632dce3c,65af5689a4d6aa58b7daa711,2024-01-23_08h16.43.553,bars,2023.2.3,Win32,40.98360656,657b66ea316d21385b68909f,,,,,,,,,,,527.6905,528.6891,528.6892,529.1758,529.1759,529.4207,529.4207,35,35,531.9681,space,2.5325,,531.9681,534.4515,space,2.443,,0,6,6,7,1,45,bars/single007.png,bars/mask009.png,,,,,,,,,,,,,,,,,,,,,,,,,,,,,,,,,,,,,,,,,,,,,,,,,,,,,,,,,,,,,,,,
,,5f8038ceefbc9f02632dce3c,65af5689a4d6aa58b7daa711,2024-01-23_08h16.43.553,bars,2023.2.3,Win32,40.98360656,657b66ea316d21385b68909f,,,,,,,,,,,534.4521,535.4472,535.4473,535.9345,535.9346,536.1703,536.1703,25,25,542.2432,space,6.0516,,542.2434,544.3122,space,2.0351,,0,7,7,1,1,20,bars/single001.png,bars/mask006.png,,,,,,,,,,,,,,,,,,,,,,,,,,,,,,,,,,,,,,,,,,,,,,,,,,,,,,,,,,,,,,,,
,,5f8038ceefbc9f02632dce3c,65af5689a4d6aa58b7daa711,2024-01-23_08h16.43.553,bars,2023.2.3,Win32,40.98360656,657b66ea316d21385b68909f,,,,,,,,,,,544.3134,545.3005,545.3005,545.8027,545.8028,546.0461,546.0461,16,16,547.7482,space,1.6963,,547.7483,552.3876,space,4.6098,,0,8,8,3,1,20,bars/single003.png,bars/mask005.png,,,,,,,,,,,,,,,,,,,,,,,,,,,,,,,,,,,,,,,,,,,,,,,,,,,,,,,,,,,,,,,,
,,5f8038ceefbc9f02632dce3c,65af5689a4d6aa58b7daa711,2024-01-23_08h16.43.553,bars,2023.2.3,Win32,40.98360656,657b66ea316d21385b68909f,,,,,,,,,,,552.4013,553.3845,553.3845,553.8712,553.8713,554.1067,554.1067,164,164,562.2578,space,8.1386,,562.2579,594.163,space,31.8713,,0,9,9,8,1,160,bars/single008.png,bars/mask004.png,,,,,,,,,,,,,,,,,,,,,,,,,,,,,,,,,,,,,,,,,,,,,,,,,,,,,,,,,,,,,,,,
,,5f8038ceefbc9f02632dce3c,65af5689a4d6aa58b7daa711,2024-01-23_08h16.43.553,bars,2023.2.3,Win32,40.98360656,657b66ea316d21385b68909f,,,,,,,,,,,,,,,,,,,,,,,,,,,,,,,,,,,,,594.1797,603.8371,space,9.6276,,,,,,,,,,,,,,,,,,,,,,,,,,,,,,,,,,,,,,,,,,,,,,,,,,,,,,,,,,,,
,,5f8038ceefbc9f02632dce3c,65af5689a4d6aa58b7daa711,2024-01-23_08h16.43.553,bars,2023.2.3,Win32,40.98360656,657b66ea316d21385b68909f,,,,,,,,,,,,,,,,,,,,,,,,,,,,,,,,,,,,,,,,,,603.8682,605.4668,left,1.5587,,605.4671,9,1,606.464,0,0,0,0,1,9,1,9,2,,,,,,,,,,,,,,,,,,,,,,,,,,,,,,,,,,,,,,,,,
,,5f8038ceefbc9f02632dce3c,65af5689a4d6aa58b7daa711,2024-01-23_08h16.43.553,bars,2023.2.3,Win32,40.98360656,657b66ea316d21385b68909f,,,,,,,,,,,,,,,,,,,,,,,,,,,,,,,,,,,,,,,,,,606.4645,607.0948,right,0.6098,,607.0949,1,2,608.0903,0,1,1,1,1,10,0,10,1,,,,,,,,,,,,,,,,,,,,,,,,,,,,,,,,,,,,,,,,,
,,5f8038ceefbc9f02632dce3c,65af5689a4d6aa58b7daa711,2024-01-23_08h16.43.553,bars,2023.2.3,Win32,40.98360656,657b66ea316d21385b68909f,,,,,,,,,,,,,,,,,,,,,,,,,,,,,,,,,,,,,,,,,,608.0908,608.6743,left,0.56,,608.6744,10,1,609.6717,0,2,2,2,1,10,2,10,2,,,,,,,,,,,,,,,,,,,,,,,,,,,,,,,,,,,,,,,,,
,,5f8038ceefbc9f02632dce3c,65af5689a4d6aa58b7daa711,2024-01-23_08h16.43.553,bars,2023.2.3,Win32,40.98360656,657b66ea316d21385b68909f,,,,,,,,,,,,,,,,,,,,,,,,,,,,,,,,,,,,,,,,,,609.6725,610.5387,left,0.8534,,610.5387,7,1,611.5303,0,3,3,3,1,8,4,7,3,,,,,,,,,,,,,,,,,,,,,,,,,,,,,,,,,,,,,,,,,
,,5f8038ceefbc9f02632dce3c,65af5689a4d6aa58b7daa711,2024-01-23_08h16.43.553,bars,2023.2.3,Win32,40.98360656,657b66ea316d21385b68909f,,,,,,,,,,,,,,,,,,,,,,,,,,,,,,,,,,,,,,,,,,611.5307,611.8957,left,0.3579,,611.8958,5,1,612.8904,0,4,4,4,1,6,2,5,1,,,,,,,,,,,,,,,,,,,,,,,,,,,,,,,,,,,,,,,,,
,,5f8038ceefbc9f02632dce3c,65af5689a4d6aa58b7daa711,2024-01-23_08h16.43.553,bars,2023.2.3,Win32,40.98360656,657b66ea316d21385b68909f,,,,,,,,,,,,,,,,,,,,,,,,,,,,,,,,,,,,,,,,,,612.891,618.7783,left,5.868,,618.7783,4,1,619.7758,0,5,5,5,1,4,4,4,4,,,,,,,,,,,,,,,,,,,,,,,,,,,,,,,,,,,,,,,,,
,,5f8038ceefbc9f02632dce3c,65af5689a4d6aa58b7daa711,2024-01-23_08h16.43.553,bars,2023.2.3,Win32,40.98360656,657b66ea316d21385b68909f,,,,,,,,,,,,,,,,,,,,,,,,,,,,,,,,,,,,,,,,,,619.791,620.4335,right,0.6183,,620.4336,2,2,621.4296,0,6,6,6,1,2,2,1,2,,,,,,,,,,,,,,,,,,,,,,,,,,,,,,,,,,,,,,,,,
,,5f8038ceefbc9f02632dce3c,65af5689a4d6aa58b7daa711,2024-01-23_08h16.43.553,bars,2023.2.3,Win32,40.98360656,657b66ea316d21385b68909f,,,,,,,,,,,,,,,,,,,,,,,,,,,,,,,,,,,,,,,,,,621.43,622.1345,left,0.6926,,622.1346,0,1,623.1233,0,7,7,7,1,0,0,0,1,,,,,,,,,,,,,,,,,,,,,,,,,,,,,,,,,,,,,,,,,
,,5f8038ceefbc9f02632dce3c,65af5689a4d6aa58b7daa711,2024-01-23_08h16.43.553,bars,2023.2.3,Win32,40.98360656,657b66ea316d21385b68909f,,,,,,,,,,,,,,,,,,,,,,,,,,,,,,,,,,,,,,,,,,623.1238,623.7804,right,0.6424,,623.7804,0,2,624.7778,0,8,8,8,1,0,2,1,0,,,,,,,,,,,,,,,,,,,,,,,,,,,,,,,,,,,,,,,,,
,,5f8038ceefbc9f02632dce3c,65af5689a4d6aa58b7daa711,2024-01-23_08h16.43.553,bars,2023.2.3,Win32,40.98360656,657b66ea316d21385b68909f,,,,,,,,,,,,,,,,,,,,,,,,,,,,,,,,,,,,,,,,,,624.7782,625.5794,left,0.7929,,625.5794,2,1,626.575,0,9,9,9,1,2,4,2,3,,,,,,,,,,,,,,,,,,,,,,,,,,,,,,,,,,,,,,,,,
,,5f8038ceefbc9f02632dce3c,65af5689a4d6aa58b7daa711,2024-01-23_08h16.43.553,bars,2023.2.3,Win32,40.98360656,657b66ea316d21385b68909f,,,,,,,,,,,,,,,,,,,,,,,,,,,,,,,,,,,,,,,,,,626.5755,626.941,left,0.3593,,626.941,0,1,627.9376,0,10,10,10,1,0,2,0,3,,,,,,,,,,,,,,,,,,,,,,,,,,,,,,,,,,,,,,,,,
,,5f8038ceefbc9f02632dce3c,65af5689a4d6aa58b7daa711,2024-01-23_08h16.43.553,bars,2023.2.3,Win32,40.98360656,657b66ea316d21385b68909f,,,,,,,,,,,,,,,,,,,,,,,,,,,,,,,,,,,,,,,,,,627.9382,628.8372,left,0.8903,,628.8373,0,1,629.8335,0,11,11,11,1,0,4,0,3,,,,,,,,,,,,,,,,,,,,,,,,,,,,,,,,,,,,,,,,,
,,5f8038ceefbc9f02632dce3c,65af5689a4d6aa58b7daa711,2024-01-23_08h16.43.553,bars,2023.2.3,Win32,40.98360656,657b66ea316d21385b68909f,,,,,,,,,,,,,,,,,,,,,,,,,,,,,,,,,,,,,,,,,,629.8338,630.1741,right,0.3154,,630.1741,6,2,631.1654,0,12,12,12,1,2,6,1,6,,,,,,,,,,,,,,,,,,,,,,,,,,,,,,,,,,,,,,,,,
,,5f8038ceefbc9f02632dce3c,65af5689a4d6aa58b7daa711,2024-01-23_08h16.43.553,bars,2023.2.3,Win32,40.98360656,657b66ea316d21385b68909f,,,,,,,,,,,,,,,,,,,,,,,,,,,,,,,,,,,,,,,,,,631.1659,631.5032,right,0.3174,,631.5033,3,2,632.4979,0,13,13,13,1,0,4,1,3,,,,,,,,,,,,,,,,,,,,,,,,,,,,,,,,,,,,,,,,,
,,5f8038ceefbc9f02632dce3c,65af5689a4d6aa58b7daa711,2024-01-23_08h16.43.553,bars,2023.2.3,Win32,40.98360656,657b66ea316d21385b68909f,,,,,,,,,,,,,,,,,,,,,,,,,,,,,,,,,,,,,,,,,,632.4984,648.1951,left,15.6741,,648.1952,2,1,649.1843,0,14,14,14,1,2,6,2,7,,,,,,,,,,,,,,,,,,,,,,,,,,,,,,,,,,,,,,,,,
,,5f8038ceefbc9f02632dce3c,65af5689a4d6aa58b7daa711,2024-01-23_08h16.43.553,bars,2023.2.3,Win32,40.98360656,657b66ea316d21385b68909f,,,,,,,,,,,,,,,,,,,,,,,,,,,,,,,,,,,,,,,,,,649.2009,651.3746,right,2.1506,,651.3746,9,2,652.3717,0,15,15,15,1,4,8,3,9,,,,,,,,,,,,,,,,,,,,,,,,,,,,,,,,,,,,,,,,,
,,5f8038ceefbc9f02632dce3c,65af5689a4d6aa58b7daa711,2024-01-23_08h16.43.553,bars,2023.2.3,Win32,40.98360656,657b66ea316d21385b68909f,,,,,,,,,,,,,,,,,,,,,,,,,,,,,,,,,,,,,,,,,,652.3723,652.7383,right,0.3535,,652.7383,7,2,653.7385,0,16,16,16,1,6,6,7,7,,,,,,,,,,,,,,,,,,,,,,,,,,,,,,,,,,,,,,,,,
,,5f8038ceefbc9f02632dce3c,65af5689a4d6aa58b7daa711,2024-01-23_08h16.43.553,bars,2023.2.3,Win32,40.98360656,657b66ea316d21385b68909f,,,,,,,,,,,,,,,,,,,,,,,,,,,,,,,,,,,,,,,,,,653.7388,654.1033,right,0.3559,,654.1033,5,2,655.0906,0,17,17,17,1,8,4,9,5,,,,,,,,,,,,,,,,,,,,,,,,,,,,,,,,,,,,,,,,,
,,5f8038ceefbc9f02632dce3c,65af5689a4d6aa58b7daa711,2024-01-23_08h16.43.553,bars,2023.2.3,Win32,40.98360656,657b66ea316d21385b68909f,,,,,,,,,,,,,,,,,,,,,,,,,,,,,,,,,,,,,,,,,,655.091,655.5048,right,0.3894,,655.5048,1,2,656.5041,0,18,18,18,1,6,2,5,1,,,,,,,,,,,,,,,,,,,,,,,,,,,,,,,,,,,,,,,,,
,,5f8038ceefbc9f02632dce3c,65af5689a4d6aa58b7daa711,2024-01-23_08h16.43.553,bars,2023.2.3,Win32,40.98360656,657b66ea316d21385b68909f,,,,,,,,,,,,,,,,,,,,,,,,,,,,,,,,,,,,,,,,,,656.5045,656.7955,left,0.2849,,656.7956,7,1,657.7927,0,19,19,19,1,8,0,7,0,,,,,,,,,,,,,,,,,,,,,,,,,,,,,,,,,,,,,,,,,
,,5f8038ceefbc9f02632dce3c,65af5689a4d6aa58b7daa711,2024-01-23_08h16.43.553,bars,2023.2.3,Win32,40.98360656,657b66ea316d21385b68909f,,,,,,,,,,,,,,,,,,,,,,,,,,,,,,,,,,,,,,,,,,,,,,,,,,,,,,,,,,,,657.7937,782.8178,space,125.0007,,,,,,,,,,,,,,,,,,,,,,,,,,,,,,,,,,,,,
,,5f8038ceefbc9f02632dce3c,65af5689a4d6aa58b7daa711,2024-01-23_08h16.43.553,bars,2023.2.3,Win32,40.98360656,657b66ea316d21385b68909f,,,,,,,,,,,783.9567,784.9468,,,785.4345,785.6767,,155,155,,,,,,,,,,,,,,,,bars/000.png,bars/mask009.png,,,,,,,,,,,,3,2,,,,,,,5,5,4,5,,,,,,782.8375,783.9512,space,1.0961,,784.9473,785.4344,785.677,789.0307,space,3.3201,,789.0309,65,10,790.0245,790.0248,799.1385,space,9.0732,,0,0,0,0,1,40,145,,,,,,,,
,,5f8038ceefbc9f02632dce3c,65af5689a4d6aa58b7daa711,2024-01-23_08h16.43.553,bars,2023.2.3,Win32,40.98360656,657b66ea316d21385b68909f,,,,,,,,,,,799.1541,800.1599,,,800.6455,800.8885,,39,39,,,,,,,,,,,,,,,,bars/043.png,bars/mask007.png,,,,,,,,,,,,1,1,,,,,,,3,3,2,2,,,,,,,,,,,800.1599,800.6454,800.8886,805.9026,space,5.003,,805.9028,9,89,806.8928,806.8929,815.3868,space,8.4465,,0,1,1,1,1,30,130,,,,,,,,
,,5f8038ceefbc9f02632dce3c,65af5689a4d6aa58b7daa711,2024-01-23_08h16.43.553,bars,2023.2.3,Win32,40.98360656,657b66ea316d21385b68909f,,,,,,,,,,,815.4018,816.3855,,,816.8723,817.1153,,126,126,,,,,,,,,,,,,,,,bars/003.png,bars/mask008.png,,,,,,,,,,,,1,2,,,,,,,5,1,6,1,,,,,,,,,,,816.3856,816.8722,817.1154,820.5281,space,3.3899,,820.5282,79,14,821.5179,821.518,828.362,space,6.8017,,0,2,2,2,1,25,140,,,,,,,,
,,5f8038ceefbc9f02632dce3c,65af5689a4d6aa58b7daa711,2024-01-23_08h16.43.553,bars,2023.2.3,Win32,40.98360656,657b66ea316d21385b68909f,,,,,,,,,,,828.3785,829.3823,,,829.8676,830.1108,,34,34,,,,,,,,,,,,,,,,bars/023.png,bars/mask004.png,,,,,,,,,,,,3,1,,,,,,,3,3,5,4,,,,,,,,,,,829.3824,829.8675,830.1108,834.9423,space,4.8222,,834.9424,14,81,835.9376,835.9378,838.933,space,2.9399,,0,3,3,3,1,20,115,,,,,,,,
,,5f8038ceefbc9f02632dce3c,65af5689a4d6aa58b7daa711,2024-01-23_08h16.43.553,bars,2023.2.3,Win32,40.98360656,657b66ea316d21385b68909f,,,,,,,,,,,838.9336,839.931,,,840.417,840.661,,166,166,,,,,,,,,,,,,,,,bars/040.png,bars/mask008.png,,,,,,,,,,,,2,2,,,,,,,1,5,1,5,,,,,,,,,,,839.931,840.4169,840.661,842.4047,space,1.7293,,842.4048,26,19,843.4008,843.4009,847.0638,space,3.6239,,0,4,4,4,1,140,5,,,,,,,,
,,5f8038ceefbc9f02632dce3c,65af5689a4d6aa58b7daa711,2024-01-23_08h16.43.553,bars,2023.2.3,Win32,40.98360656,657b66ea316d21385b68909f,,,,,,,,,,,847.0786,848.0854,,,848.5707,848.8147,,154,-26,,,,,,,,,,,,,,,,bars/007.png,bars/mask001.png,,,,,,,,,,,,0,1,,,,,,,0,3,0,2,,,,,,,,,,,848.0854,848.5707,848.8147,851.0907,space,2.2575,,851.0909,21,81,852.0963,852.0964,854.9878,space,2.856,,0,5,5,5,1,175,55,,,,,,,,
,,5f8038ceefbc9f02632dce3c,65af5689a4d6aa58b7daa711,2024-01-23_08h16.43.553,bars,2023.2.3,Win32,40.98360656,657b66ea316d21385b68909f,,,,,,,,,,,854.9884,855.988,,,856.4759,856.7188,,27,27,,,,,,,,,,,,,,,,bars/013.png,bars/mask003.png,,,,,,,,,,,,0,2,,,,,,,2,1,3,1,,,,,,,,,,,855.9881,856.4759,856.7189,860.6701,space,3.926,,860.6702,48,17,861.6673,861.6673,865.5001,space,3.7939,,0,6,6,6,1,75,10,,,,,,,,
,,5f8038ceefbc9f02632dce3c,65af5689a4d6aa58b7daa711,2024-01-23_08h16.43.553,bars,2023.2.3,Win32,40.98360656,657b66ea316d21385b68909f,,,,,,,,,,,865.5144,866.5204,,,867.0247,867.2701,,105,105,,,,,,,,,,,,,,,,bars/008.png,bars/mask001.png,,,,,,,,,,,,4,1,,,,,,,4,3,5,3,,,,,,,,,,,866.5205,867.0247,867.2702,870.852,space,3.5742,,870.8521,5,75,871.8449,871.8449,875.5613,space,3.6991,,0,7,7,7,1,110,0,,,,,,,,
,,5f8038ceefbc9f02632dce3c,65af5689a4d6aa58b7daa711,2024-01-23_08h16.43.553,bars,2023.2.3,Win32,40.98360656,657b66ea316d21385b68909f,,,,,,,,,,,875.5756,876.56,,,877.0466,877.2907,,11,11,,,,,,,,,,,,,,,,bars/012.png,bars/mask003.png,,,,,,,,,,,,5,2,,,,,,,2,5,1,6,,,,,,,,,,,876.5601,877.0466,877.2908,879.7481,space,2.4345,,879.7482,79,4,880.7476,880.7476,882.4985,space,1.7151,,0,8,8,8,1,90,15,,,,,,,,
,,5f8038ceefbc9f02632dce3c,65af5689a4d6aa58b7daa711,2024-01-23_08h16.43.553,bars,2023.2.3,Win32,40.98360656,657b66ea316d21385b68909f,,,,,,,,,,,882.499,883.4957,,,883.9969,884.2396,,123,123,,,,,,,,,,,,,,,,bars/001.png,bars/mask008.png,,,,,,,,,,,,3,1,,,,,,,4,3,4,4,,,,,,,,,,,883.4958,883.9968,884.2396,887.3269,space,3.0639,,887.327,7,38,888.3257,888.3257,889.3753,space,1.0196,,0,9,9,9,1,130,85,,,,,,,,
,,5f8038ceefbc9f02632dce3c,65af5689a4d6aa58b7daa711,2024-01-23_08h16.43.553,bars,2023.2.3,Win32,40.98360656,657b66ea316d21385b68909f,,,,,,,,,,,889.3759,890.3722,,,890.8589,891.1036,,99,99,,,,,,,,,,,,,,,,bars/039.png,bars/mask000.png,,,,,,,,,,,,4,2,,,,,,,2,5,3,5,,,,,,,,,,,890.3722,890.8588,891.1037,894.6993,space,3.5813,,894.6994,76,6,895.6979,895.6979,920.8232,space,25.0975,,0,10,10,10,1,175,105,,,,,,,,
,,5f8038ceefbc9f02632dce3c,65af5689a4d6aa58b7daa711,2024-01-23_08h16.43.553,bars,2023.2.3,Win32,40.98360656,657b66ea316d21385b68909f,,,,,,,,,,,920.8417,921.8461,,,922.3341,922.5768,,110,110,,,,,,,,,,,,,,,,bars/025.png,bars/mask002.png,,,,,,,,,,,,0,1,,,,,,,0,7,0,6,,,,,,,,,,,921.8461,922.3341,922.5769,924.8985,space,2.3118,,924.8986,5,70,925.892,925.892,929.5504,space,3.6313,,0,11,11,11,1,105,40,,,,,,,,
,,5f8038ceefbc9f02632dce3c,65af5689a4d6aa58b7daa711,2024-01-23_08h16.43.553,bars,2023.2.3,Win32,40.98360656,657b66ea316d21385b68909f,,,,,,,,,,,929.5642,930.5508,,,931.0411,931.2848,,45,45,,,,,,,,,,,,,,,,bars/035.png,bars/mask008.png,,,,,,,,,,,,4,2,,,,,,,0,9,0,8,,,,,,,,,,,930.5508,931.041,931.2849,934.2119,space,2.9129,,934.2119,50,15,935.2043,935.2043,941.9598,space,6.7264,,0,12,12,12,1,175,60,,,,,,,,
,,5f8038ceefbc9f02632dce3c,65af5689a4d6aa58b7daa711,2024-01-23_08h16.43.553,bars,2023.2.3,Win32,40.98360656,657b66ea316d21385b68909f,,,,,,,,,,,941.9747,942.961,,,943.4499,943.6942,,56,56,,,,,,,,,,,,,,,,bars/019.png,bars/mask000.png,,,,,,,,,,,,2,1,,,,,,,2,7,3,7,,,,,,,,,,,942.961,943.4498,943.6942,949.5767,space,5.8592,,949.5767,11,49,950.5757,950.5757,953.5825,space,2.9697,,0,13,13,13,1,45,105,,,,,,,,
,,5f8038ceefbc9f02632dce3c,65af5689a4d6aa58b7daa711,2024-01-23_08h16.43.553,bars,2023.2.3,Win32,40.98360656,657b66ea316d21385b68909f,,,,,,,,,,,953.5966,954.5828,,,955.0711,955.3147,,43,43,,,,,,,,,,,,,,,,bars/035.png,bars/mask006.png,,,,,,,,,,,,4,2,,,,,,,0,9,0,10,,,,,,,,,,,954.5829,955.071,955.3147,959.5118,space,4.1842,,959.5118,48,17,960.5106,960.5106,962.3913,space,1.8428,,0,14,14,14,1,175,60,,,,,,,,
,,5f8038ceefbc9f02632dce3c,65af5689a4d6aa58b7daa711,2024-01-23_08h16.43.553,bars,2023.2.3,Win32,40.98360656,657b66ea316d21385b68909f,,,,,,,,,,,962.3918,963.3925,,,963.8955,964.141,,49,49,,,,,,,,,,,,,,,,bars/026.png,bars/mask008.png,,,,,,,,,,,,1,1,,,,,,,0,7,1,7,,,,,,,,,,,963.3925,963.8955,964.1411,966.0946,space,1.9346,,966.0947,14,36,967.0822,967.0822,970.0182,space,2.8992,,0,15,15,15,1,35,85,,,,,,,,
,,5f8038ceefbc9f02632dce3c,65af5689a4d6aa58b7daa711,2024-01-23_08h16.43.553,bars,2023.2.3,Win32,40.98360656,657b66ea316d21385b68909f,,,,,,,,,,,970.0187,971.0206,,,971.5087,971.7529,,51,51,,,,,,,,,,,,,,,,bars/035.png,bars/mask006.png,,,,,,,,,,,,4,2,,,,,,,0,9,2,6,,,,,,,,,,,971.0207,971.5086,971.7529,972.9016,space,1.1365,,972.9017,56,9,973.9055,973.9056,974.6127,space,0.6835,,0,16,16,16,1,175,60,,,,,,,,
,,5f8038ceefbc9f02632dce3c,65af5689a4d6aa58b7daa711,2024-01-23_08h16.43.553,bars,2023.2.3,Win32,40.98360656,657b66ea316d21385b68909f,,,,,,,,,,,974.6132,975.6131,,,976.1003,976.3444,,107,107,,,,,,,,,,,,,,,,bars/024.png,bars/mask006.png,,,,,,,,,,,,1,1,,,,,,,2,7,2,7,,,,,,,,,,,975.6132,976.1003,976.3444,977.8615,space,1.4958,,977.8616,13,63,978.8637,978.8637,979.668,space,0.7753,,0,17,17,17,1,120,170,,,,,,,,
,,5f8038ceefbc9f02632dce3c,65af5689a4d6aa58b7daa711,2024-01-23_08h16.43.553,bars,2023.2.3,Win32,40.98360656,657b66ea316d21385b68909f,,,,,,,,,,,979.6685,980.671,,,981.159,981.4039,,80,80,,,,,,,,,,,,,,,,bars/026.png,bars/mask004.png,,,,,,,,,,,,3,2,,,,,,,0,5,0,4,,,,,,,,,,,980.6711,981.159,981.4039,983.4247,space,1.9971,,983.4248,45,5,984.4257,984.4258,985.038,space,0.5932,,0,18,18,18,1,35,85,,,,,,,,
,,5f8038ceefbc9f02632dce3c,65af5689a4d6aa58b7daa711,2024-01-23_08h16.43.553,bars,2023.2.3,Win32,40.98360656,657b66ea316d21385b68909f,,,,,,,,,,,985.0385,986.0385,,,986.5251,986.7704,,6,6,,,,,,,,,,,,,,,,bars/047.png,bars/mask002.png,,,,,,,,,,,,1,1,,,,,,,2,7,1,8,,,,,,,,,,,986.0386,986.525,986.7704,992.3959,space,5.6207,,992.396,9,64,993.3971,993.3972,994.1353,space,0.6984,,0,19,19,19,1,15,70,,,,,,,,
,,5f8038ceefbc9f02632dce3c,65af5689a4d6aa58b7daa711,2024-01-23_08h16.43.553,bars,2023.2.3,Win32,40.98360656,657b66ea316d21385b68909f,,,,,,,,,,,994.1358,995.1336,,,995.6226,995.8673,,63,243,,,,,,,,,,,,,,,,bars/038.png,bars/mask004.png,,,,,,,,,,,,4,2,,,,,,,0,5,0,5,,,,,,,,,,,995.1336,995.6225,995.8673,998.9195,space,3.0315,,998.9195,78,7,999.9207,999.9208,1001.289,space,1.3345,,0,20,20,20,1,165,70,,,,,,,,
,,5f8038ceefbc9f02632dce3c,65af5689a4d6aa58b7daa711,2024-01-23_08h16.43.553,bars,2023.2.3,Win32,40.98360656,657b66ea316d21385b68909f,,,,,,,,,,,1001.2894,1002.2904,,,1002.7787,1003.0227,,123,123,,,,,,,,,,,,,,,,bars/002.png,bars/mask009.png,,,,,,,,,,,,2,1,,,,,,,2,3,2,4,,,,,,,,,,,1002.2905,1002.7787,1003.0227,1004.6215,space,1.5937,,1004.6216,7,38,1005.6206,1005.6207,1006.9154,space,1.2643,,0,21,21,21,1,130,85,,,,,,,,
,,5f8038ceefbc9f02632dce3c,65af5689a4d6aa58b7daa711,2024-01-23_08h16.43.553,bars,2023.2.3,Win32,40.98360656,657b66ea316d21385b68909f,,,,,,,,,,,1006.916,1007.9173,,,1008.3995,1008.6446,,68,68,,,,,,,,,,,,,,,,bars/026.png,bars/mask009.png,,,,,,,,,,,,2,2,,,,,,,4,5,3,4,,,,,,,,,,,1007.9174,1008.3995,1008.6447,1010.7479,space,2.0947,,1010.748,33,17,1011.7404,1011.7405,1013.6446,space,1.8783,,0,22,22,22,1,35,85,,,,,,,,
,,5f8038ceefbc9f02632dce3c,65af5689a4d6aa58b7daa711,2024-01-23_08h16.43.553,bars,2023.2.3,Win32,40.98360656,657b66ea316d21385b68909f,,,,,,,,,,,1013.6451,1014.6429,,,1015.1304,1015.3741,,147,147,,,,,,,,,,,,,,,,bars/024.png,bars/mask001.png,,,,,,,,,,,,0,2,,,,,,,6,3,5,2,,,,,,,,,,,1014.6429,1015.1303,1015.3742,1020.9368,space,5.5536,,1020.9368,27,23,1021.9386,1021.9387,1025.0799,space,3.0989,,0,23,23,23,1,120,170,,,,,,,,
,,5f8038ceefbc9f02632dce3c,65af5689a4d6aa58b7daa711,2024-01-23_08h16.43.553,bars,2023.2.3,Win32,40.98360656,657b66ea316d21385b68909f,,,,,,,,,,,1025.0945,1026.0823,,,1026.5717,1026.814,,162,-18,,,,,,,,,,,,,,,,bars/037.png,bars/mask009.png,,,,,,,,,,,,2,1,,,,,,,4,1,4,3,,,,,,,,,,,1026.0823,1026.5716,1026.814,1031.7106,space,4.8901,,1031.7107,12,57,1032.7094,1032.7095,1034.0507,space,1.3096,,0,24,24,24,1,150,105,,,,,,,,
,,5f8038ceefbc9f02632dce3c,65af5689a4d6aa58b7daa711,2024-01-23_08h16.43.553,bars,2023.2.3,Win32,40.98360656,657b66ea316d21385b68909f,,,,,,,,,,,1034.0511,1035.0408,,,1035.528,1035.7679,,22,202,,,,,,,,,,,,,,,,bars/036.png,bars/mask000.png,,,,,,,,,,,,0,2,,,,,,,2,0,1,0,,,,,,,,,,,1035.0409,1035.5279,1035.768,1040.153,space,4.3732,,1040.1532,57,2,1041.1568,1041.1568,1043.8736,space,2.6755,,0,25,25,25,1,145,20,,,,,,,,
,,5f8038ceefbc9f02632dce3c,65af5689a4d6aa58b7daa711,2024-01-23_08h16.43.553,bars,2023.2.3,Win32,40.98360656,657b66ea316d21385b68909f,,,,,,,,,,,1043.874,1044.8734,,,1045.3614,1045.6056,,46,46,,,,,,,,,,,,,,,,bars/028.png,bars/mask004.png,,,,,,,,,,,,1,1,,,,,,,0,0,1,1,,,,,,,,,,,1044.8734,1045.3614,1045.6057,1046.2875,space,0.6584,,1046.2876,1,74,1047.2882,1047.2882,1047.8743,space,0.5658,,0,26,26,26,1,45,120,,,,,,,,
,,5f8038ceefbc9f02632dce3c,65af5689a4d6aa58b7daa711,2024-01-23_08h16.43.553,bars,2023.2.3,Win32,40.98360656,657b66ea316d21385b68909f,,,,,,,,,,,1047.8747,1048.8702,,,1049.3568,1049.6,,84,84,,,,,,,,,,,,,,,,bars/028.png,bars/mask009.png,,,,,,,,,,,,0,2,,,,,,,0,0,1,0,,,,,,,,,,,1048.8702,1049.3567,1049.6,1050.4998,space,0.8865,,1050.4998,39,36,1051.4959,1051.4959,1052.7071,space,1.2026,,0,27,27,27,1,45,120,,,,,,,,
,,5f8038ceefbc9f02632dce3c,65af5689a4d6aa58b7daa711,2024-01-23_08h16.43.553,bars,2023.2.3,Win32,40.98360656,657b66ea316d21385b68909f,,,,,,,,,,,1052.7076,1053.6995,,,1054.1882,1054.4318,,56,56,,,,,,,,,,,,,,,,bars/016.png,bars/mask001.png,,,,,,,,,,,,0,1,,,,,,,0,0,0,0,,,,,,,,,,,1053.6996,1054.1881,1054.4318,1057.3197,space,2.8783,,1057.3198,16,71,1058.3192,1058.3192,1059.2455,space,0.8898,,0,28,28,28,1,40,165,,,,,,,,
,,5f8038ceefbc9f02632dce3c,65af5689a4d6aa58b7daa711,2024-01-23_08h16.43.553,bars,2023.2.3,Win32,40.98360656,657b66ea316d21385b68909f,,,,,,,,,,,1059.2458,1060.2447,,,1060.7339,1060.9787,,167,-13,,,,,,,,,,,,,,,,bars/032.png,bars/mask001.png,,,,,,,,,,,,0,2,,,,,,,0,2,0,2,,,,,,,,,,,1060.2447,1060.7339,1060.9787,1063.3885,space,2.4039,,1063.3886,42,33,1064.3876,1064.3877,1070.2391,space,5.7955,,0,29,29,29,1,125,20,,,,,,,,
,,5f8038ceefbc9f02632dce3c,65af5689a4d6aa58b7daa711,2024-01-23_08h16.43.553,bars,2023.2.3,Win32,40.98360656,657b66ea316d21385b68909f,,,,,,,,,,,1070.2543,1071.2605,,,1071.7486,1071.9922,,10,190,,,,,,,,,,,,,,,,bars/043.png,bars/mask005.png,,,,,,,,,,,,1,1,,,,,,,2,4,3,3,,,,,,,,,,,1071.2606,1071.7486,1071.9922,1075.6569,space,3.6543,,1075.6569,20,60,1076.6559,1076.656,1077.623,space,0.9352,,0,30,30,30,1,30,130,,,,,,,,
,,5f8038ceefbc9f02632dce3c,65af5689a4d6aa58b7daa711,2024-01-23_08h16.43.553,bars,2023.2.3,Win32,40.98360656,657b66ea316d21385b68909f,,,,,,,,,,,1077.6236,1078.6253,,,1079.1133,1079.3572,,142,142,,,,,,,,,,,,,,,,bars/012.png,bars/mask002.png,,,,,,,,,,,,0,1,,,,,,,4,2,4,2,,,,,,,,,,,1078.6253,1079.1133,1079.3573,1085.2845,space,5.9081,,1085.2846,52,53,1086.2796,1086.2796,1091.6366,space,5.3275,,0,31,31,31,1,90,15,,,,,,,,
,,5f8038ceefbc9f02632dce3c,65af5689a4d6aa58b7daa711,2024-01-23_08h16.43.553,bars,2023.2.3,Win32,40.98360656,657b66ea316d21385b68909f,,,,,,,,,,,1091.6523,1092.6348,,,1093.1225,1093.3667,,46,46,,,,,,,,,,,,,,,,bars/031.png,bars/mask001.png,,,,,,,,,,,,3,2,,,,,,,6,4,6,4,,,,,,,,,,,1092.6349,1093.1224,1093.3667,1095.5845,space,2.1943,,1095.5845,74,11,1096.584,1096.5841,1097.9714,space,1.3626,,0,32,32,32,1,120,35,,,,,,,,
,,5f8038ceefbc9f02632dce3c,65af5689a4d6aa58b7daa711,2024-01-23_08h16.43.553,bars,2023.2.3,Win32,40.98360656,657b66ea316d21385b68909f,,,,,,,,,,,1097.9718,1098.9703,,,1099.4575,1099.7003,,148,-32,,,,,,,,,,,,,,,,bars/002.png,bars/mask004.png,,,,,,,,,,,,3,1,,,,,,,8,6,7,5,,,,,,,,,,,1098.9703,1099.4575,1099.7003,1102.6981,space,2.9742,,1102.6982,18,63,1103.6989,1103.699,1103.7475,space,0.0206,,0,33,33,33,1,130,85,,,,,,,,
,,5f8038ceefbc9f02632dce3c,65af5689a4d6aa58b7daa711,2024-01-23_08h16.43.553,bars,2023.2.3,Win32,40.98360656,657b66ea316d21385b68909f,,,,,,,,,,,1103.7481,1104.7484,,,1105.2358,1105.4793,,61,61,,,,,,,,,,,,,,,,bars/029.png,bars/mask002.png,,,,,,,,,,,,2,2,,,,,,,6,4,6,5,,,,,,,,,,,1104.7485,1105.2358,1105.4795,1106.4063,space,0.9036,,1106.4064,29,16,1107.4098,1107.4099,1108.1407,space,0.7083,,0,34,34,34,1,90,45,,,,,,,,
,,5f8038ceefbc9f02632dce3c,65af5689a4d6aa58b7daa711,2024-01-23_08h16.43.553,bars,2023.2.3,Win32,40.98360656,657b66ea316d21385b68909f,,,,,,,,,,,1108.1413,1109.1374,,,1109.6266,1109.8702,,171,-9,,,,,,,,,,,,,,,,bars/007.png,bars/mask006.png,,,,,,,,,,,,6,1,,,,,,,8,2,7,3,,,,,,,,,,,1109.1376,1109.6265,1109.8703,1112.6817,space,2.8003,,1112.6818,4,64,1113.6847,1113.6847,1174.9116,space,61.1931,,0,35,35,35,1,175,55,,,,,,,,
,,5f8038ceefbc9f02632dce3c,65af5689a4d6aa58b7daa711,2024-01-23_08h16.43.553,bars,2023.2.3,Win32,40.98360656,657b66ea316d21385b68909f,,,,,,,,,,,1174.928,1175.9104,,,1176.3984,1176.6417,,103,103,,,,,,,,,,,,,,,,bars/005.png,bars/mask007.png,,,,,,,,,,,,0,2,,,,,,,6,0,7,0,,,,,,,,,,,1175.9104,1176.3984,1176.6417,1177.349,space,0.6942,,1177.3492,87,37,1178.3501,1178.3502,1180.8548,space,2.485,,0,36,36,36,1,10,140,,,,,,,,
,,5f8038ceefbc9f02632dce3c,65af5689a4d6aa58b7daa711,2024-01-23_08h16.43.553,bars,2023.2.3,Win32,40.98360656,657b66ea316d21385b68909f,,,,,,,,,,,1180.8554,1181.8559,,,1182.3434,1182.5866,,41,41,,,,,,,,,,,,,,,,bars/029.png,bars/mask009.png,,,,,,,,,,,,1,2,,,,,,,4,2,3,1,,,,,,,,,,,1181.8559,1182.3433,1182.5866,1185.269,space,2.6607,,1185.269,49,4,1186.2703,1186.2703,1190.3818,space,4.0939,,0,37,37,37,1,90,45,,,,,,,,
,,5f8038ceefbc9f02632dce3c,65af5689a4d6aa58b7daa711,2024-01-23_08h16.43.553,bars,2023.2.3,Win32,40.98360656,657b66ea316d21385b68909f,,,,,,,,,,,1190.4007,1191.4065,,,1191.8948,1192.1374,,104,104,,,,,,,,,,,,,,,,bars/024.png,bars/mask008.png,,,,,,,,,,,,0,1,,,,,,,2,4,1,4,,,,,,,,,,,1191.4065,1191.8948,1192.1374,1195.3935,space,3.2315,,1195.3935,16,66,1196.3914,1196.3915,1250.4139,space,53.9762,,0,38,38,38,1,120,170,,,,,,,,
,,5f8038ceefbc9f02632dce3c,65af5689a4d6aa58b7daa711,2024-01-23_08h16.43.553,bars,2023.2.3,Win32,40.98360656,657b66ea316d21385b68909f,,,,,,,,,,,1250.4268,1251.4124,,,1251.9177,1252.1626,,152,-28,,,,,,,,,,,,,,,,bars/020.png,bars/mask003.png,,,,,,,,,,,,2,2,,,,,,,4,6,4,6,,,,,,,,,,,1251.4125,1251.9177,1252.1626,1255.1387,space,2.9584,,1255.1388,37,18,1256.1277,1256.1277,1257.2232,space,1.0548,,0,39,39,39,1,115,170,,,,,,,,
,,5f8038ceefbc9f02632dce3c,65af5689a4d6aa58b7daa711,2024-01-23_08h16.43.553,bars,2023.2.3,Win32,40.98360656,657b66ea316d21385b68909f,,,,,,,,,,,1257.2237,1258.2312,,,1258.7211,1258.9663,,30,30,,,,,,,,,,,,,,,,bars/043.png,bars/mask003.png,,,,,,,,,,,,2,1,,,,,,,2,4,2,2,,,,,,,,,,,1258.2312,1258.721,1258.9663,1259.6274,space,0.6376,,1259.6274,0,80,1260.6177,1260.6177,1261.691,space,1.0436,,0,40,40,40,1,30,130,,,,,,,,
,,5f8038ceefbc9f02632dce3c,65af5689a4d6aa58b7daa711,2024-01-23_08h16.43.553,bars,2023.2.3,Win32,40.98360656,657b66ea316d21385b68909f,,,,,,,,,,,1261.6916,1262.683,,,1263.1866,1263.4322,,160,160,,,,,,,,,,,,,,,,bars/016.png,bars/mask003.png,,,,,,,,,,,,2,2,,,,,,,4,2,7,2,,,,,,,,,,,1262.6831,1263.1866,1263.4323,1264.7176,space,1.2615,,1264.7177,60,5,1265.7158,1265.7158,1266.6928,space,0.9612,,0,41,41,41,1,40,165,,,,,,,,
,,5f8038ceefbc9f02632dce3c,65af5689a4d6aa58b7daa711,2024-01-23_08h16.43.553,bars,2023.2.3,Win32,40.98360656,657b66ea316d21385b68909f,,,,,,,,,,,1266.6934,1267.6948,,,1268.1842,1268.4292,,30,30,,,,,,,,,,,,,,,,bars/028.png,bars/mask000.png,,,,,,,,,,,,4,1,,,,,,,6,4,7,5,,,,,,,,,,,1267.6948,1268.1841,1268.4292,1269.7694,space,1.3322,,1269.7694,15,90,1270.76,1270.7602,1272.2758,space,1.4908,,0,42,42,42,1,45,120,,,,,,,,
,,5f8038ceefbc9f02632dce3c,65af5689a4d6aa58b7daa711,2024-01-23_08h16.43.553,bars,2023.2.3,Win32,40.98360656,657b66ea316d21385b68909f,,,,,,,,,,,1272.2763,1273.2654,,,1273.7534,1273.9959,,48,48,,,,,,,,,,,,,,,,bars/022.png,bars/mask008.png,,,,,,,,,,,,0,2,,,,,,,4,2,4,3,,,,,,,,,,,1273.2654,1273.7534,1273.996,1276.771,space,2.7498,,1276.771,47,28,1277.7603,1277.7604,1279.1045,space,1.3083,,0,43,43,43,1,95,20,,,,,,,,
,,5f8038ceefbc9f02632dce3c,65af5689a4d6aa58b7daa711,2024-01-23_08h16.43.553,bars,2023.2.3,Win32,40.98360656,657b66ea316d21385b68909f,,,,,,,,,,,1279.105,1280.0962,,,1280.578,1280.8224,,29,29,,,,,,,,,,,,,,,,bars/023.png,bars/mask003.png,,,,,,,,,,,,4,1,,,,,,,6,0,5,1,,,,,,,,,,,1280.0962,1280.578,1280.8225,1282.4911,space,1.6482,,1282.4911,9,86,1283.4862,1283.4863,1301.2572,space,17.7432,,0,44,44,44,1,20,115,,,,,,,,
,,5f8038ceefbc9f02632dce3c,65af5689a4d6aa58b7daa711,2024-01-23_08h16.43.553,bars,2023.2.3,Win32,40.98360656,657b66ea316d21385b68909f,,,,,,,,,,,1301.2696,1302.258,,,1302.7458,1302.9911,,96,96,,,,,,,,,,,,,,,,bars/037.png,bars/mask000.png,,,,,,,,,,,,0,2,,,,,,,4,0,3,0,,,,,,,,,,,1302.258,1302.7457,1302.9911,1304.4816,space,1.4685,,1304.4816,54,9,1305.4847,1305.4848,1330.1731,space,24.6507,,0,45,45,45,1,150,105,,,,,,,,
,,5f8038ceefbc9f02632dce3c,65af5689a4d6aa58b7daa711,2024-01-23_08h16.43.553,bars,2023.2.3,Win32,40.98360656,657b66ea316d21385b68909f,,,,,,,,,,,1330.1857,1331.1886,,,1331.6684,1331.9129,,14,14,,,,,,,,,,,,,,,,bars/005.png,bars/mask003.png,,,,,,,,,,,,5,1,,,,,,,6,2,6,1,,,,,,,,,,,1331.1887,1331.6684,1331.913,1335.4748,space,3.5395,,1335.4748,4,54,1336.4768,1336.4768,1336.9593,space,0.4406,,0,46,46,46,1,10,140,,,,,,,,
,,5f8038ceefbc9f02632dce3c,65af5689a4d6aa58b7daa711,2024-01-23_08h16.43.553,bars,2023.2.3,Win32,40.98360656,657b66ea316d21385b68909f,,,,,,,,,,,1336.9598,1337.9534,,,1338.4406,1338.6992,,105,105,,,,,,,,,,,,,,,,bars/004.png,bars/mask006.png,,,,,,,,,,,,2,2,,,,,,,4,4,3,5,,,,,,,,,,,1337.9535,1338.4406,1338.6993,1339.6755,space,0.9607,,1339.6756,80,20,1340.6791,1340.6791,1373.5852,space,32.8917,,0,47,47,47,1,25,125,,,,,,,,
,,5f8038ceefbc9f02632dce3c,65af5689a4d6aa58b7daa711,2024-01-23_08h16.43.553,bars,2023.2.3,Win32,40.98360656,657b66ea316d21385b68909f,,,,,,,,,,,1373.5989,1374.5871,,,1375.0727,1375.3165,,65,65,,,,,,,,,,,,,,,,bars/022.png,bars/mask009.png,,,,,,,,,,,,0,1,,,,,,,2,2,2,3,,,,,,,,,,,1374.5872,1375.0726,1375.3166,1378.3322,space,3.0081,,1378.3322,30,45,1379.3319,1379.332,1380.2504,space,0.8772,,0,48,48,48,1,95,20,,,,,,,,
,,5f8038ceefbc9f02632dce3c,65af5689a4d6aa58b7daa711,2024-01-23_08h16.43.553,bars,2023.2.3,Win32,40.98360656,657b66ea316d21385b68909f,,,,,,,,,,,1380.2509,1381.2509,,,1381.7395,1381.9826,,74,74,,,,,,,,,,,,,,,,bars/019.png,bars/mask007.png,,,,,,,,,,,,0,1,,,,,,,0,0,0,0,,,,,,,,,,,1381.2509,1381.7394,1381.9827,1383.9829,space,1.9844,,1383.9829,29,31,1384.9827,1384.9827,1386.9101,space,1.9012,,0,49,49,49,1,45,105,,,,,,,,
,,5f8038ceefbc9f02632dce3c,65af5689a4d6aa58b7daa711,2024-01-23_08h16.43.553,bars,2023.2.3,Win32,40.98360656,657b66ea316d21385b68909f,,,,,,,,,,,,,,,,,,,,,,,,,,,,,,,,,,,,,,,,,,,,,,,,,,,,,,,,,,,,,,,,,,,,,,,,,,,,,,,,,,,,,,,,,,,,,1386.9134,1446.9012,0,0,0,2,1,sequence_tables/blk014.csv
,,5f8038ceefbc9f02632dce3c,65af5689a4d6aa58b7daa711,2024-01-23_08h16.43.553,bars,2023.2.3,Win32,40.98360656,657b66ea316d21385b68909f,,,,,,,,,,,1564.1905,1565.1635,,,1565.7068,1565.9031,,47,47,,,,,,,,,,,,,,,,bars/001.png,bars/mask001.png,,,,,,,,,,,,0,2,,,,,,,1,9,1,9,,,,,,1446.9105,1564.1442,space,117.2273,0.0004,1565.1635,1565.7068,1565.9032,1575.6994,space,9.7799,,1575.6995,83,38,1576.7007,1576.7007,1576.7187,,,,0,0,0,0,1,130,85,,,,,,,,
,,5f8038ceefbc9f02632dce3c,65af5689a4d6aa58b7daa711,2024-01-23_08h16.43.553,bars,2023.2.3,Win32,40.98360656,657b66ea316d21385b68909f,,,,,,,,,,,1576.719,1577.7213,,,1578.2082,1578.4438,,129,129,,,,,,,,,,,,,,,,bars/004.png,bars/mask006.png,,,,,,,,,,,,9,2,,,,,,,0,10,1,10,,,,,,,,,,,1577.7213,1578.2081,1578.4439,1580.8709,space,2.4125,,1580.871,76,4,1581.8699,1581.8699,1581.8839,,,,0,1,1,1,1,25,125,,,,,,,,
,,5f8038ceefbc9f02632dce3c,65af5689a4d6aa58b7daa711,2024-01-23_08h16.43.553,bars,2023.2.3,Win32,40.98360656,657b66ea316d21385b68909f,,,,,,,,,,,1581.8842,1582.87,,,1583.3598,1583.6033,,70,70,,,,,,,,,,,,,,,,bars/030.png,bars/mask002.png,,,,,,,,,,,,7,2,,,,,,,0,8,0,8,,,,,,,,,,,1582.8701,1583.3597,1583.6034,1586.5681,space,2.9573,,1586.5681,70,5,1587.5696,1587.5697,1587.5816,,,,0,2,2,2,1,140,65,,,,,,,,
,,5f8038ceefbc9f02632dce3c,65af5689a4d6aa58b7daa711,2024-01-23_08h16.43.553,bars,2023.2.3,Win32,40.98360656,657b66ea316d21385b68909f,,,,,,,,,,,1587.5818,1588.5859,,,1589.0729,1589.3167,,173,173,,,,,,,,,,,,,,,,bars/011.png,bars/mask006.png,,,,,,,,,,,,1,1,,,,,,,2,10,1,9,,,,,,,,,,,1588.5859,1589.0728,1589.3167,1592.1884,space,2.8648,,1592.1885,13,88,1593.1883,1593.1883,1593.2008,,,,0,3,3,3,1,160,85,,,,,,,,
,,5f8038ceefbc9f02632dce3c,65af5689a4d6aa58b7daa711,2024-01-23_08h16.43.553,bars,2023.2.3,Win32,40.98360656,657b66ea316d21385b68909f,,,,,,,,,,,1593.2009,1594.188,,,1594.6703,1594.9136,,38,38,,,,,,,,,,,,,,,,bars/044.png,bars/mask007.png,,,,,,,,,,,,0,1,,,,,,,0,10,0,10,,,,,,,,,,,1594.1881,1594.6703,1594.9136,1596.7126,space,1.7907,,1596.7127,37,63,1597.7163,1597.7164,1597.7282,,,,0,4,4,4,1,75,155,,,,,,,,
,,5f8038ceefbc9f02632dce3c,65af5689a4d6aa58b7daa711,2024-01-23_08h16.43.553,bars,2023.2.3,Win32,40.98360656,657b66ea316d21385b68909f,,,,,,,,,,,1597.7285,1598.7155,,,1599.2018,1599.4462,,53,233,,,,,,,,,,,,,,,,bars/041.png,bars/mask007.png,,,,,,,,,,,,0,2,,,,,,,0,10,1,9,,,,,,,,,,,1598.7155,1599.2018,1599.4462,1603.3457,space,3.8815,,1603.3458,33,32,1604.3439,1604.3439,1604.3592,,,,0,5,5,5,1,20,85,,,,,,,,
,,5f8038ceefbc9f02632dce3c,65af5689a4d6aa58b7daa711,2024-01-23_08h16.43.553,bars,2023.2.3,Win32,40.98360656,657b66ea316d21385b68909f,,,,,,,,,,,1604.3595,1605.3631,,,1605.8499,1606.0937,,172,-8,,,,,,,,,,,,,,,,bars/015.png,bars/mask009.png,,,,,,,,,,,,5,2,,,,,,,2,10,2,9,,,,,,,,,,,1605.3631,1605.8499,1606.0938,1610.3187,space,4.2,,1610.3188,62,12,1611.3192,1611.3192,1611.3353,,,,0,6,6,6,1,110,160,,,,,,,,
,,5f8038ceefbc9f02632dce3c,65af5689a4d6aa58b7daa711,2024-01-23_08h16.43.553,bars,2023.2.3,Win32,40.98360656,657b66ea316d21385b68909f,,,,,,,,,,,1611.3357,1612.3366,,,1612.8255,1613.0712,,5,5,,,,,,,,,,,,,,,,bars/015.png,bars/mask004.png,,,,,,,,,,,,1,2,,,,,,,0,8,0,8,,,,,,,,,,,1612.3367,1612.8255,1613.0712,1617.8656,space,4.7756,,1617.8656,75,25,1618.8575,1618.8576,1618.8704,,,,0,7,7,7,1,110,160,,,,,,,,
,,5f8038ceefbc9f02632dce3c,65af5689a4d6aa58b7daa711,2024-01-23_08h16.43.553,bars,2023.2.3,Win32,40.98360656,657b66ea316d21385b68909f,,,,,,,,,,,1618.8706,1619.8526,,,1620.3432,1620.5868,,48,48,,,,,,,,,,,,,,,,bars/031.png,bars/mask006.png,,,,,,,,,,,,5,2,,,,,,,0,10,0,9,,,,,,,,,,,1619.8526,1620.3431,1620.5868,1622.5803,space,1.9796,,1622.5804,72,13,1623.5823,1623.5825,1623.6025,,,,0,8,8,8,1,120,35,,,,,,,,
,,5f8038ceefbc9f02632dce3c,65af5689a4d6aa58b7daa711,2024-01-23_08h16.43.553,bars,2023.2.3,Win32,40.98360656,657b66ea316d21385b68909f,,,,,,,,,,,1623.603,1624.5874,,,1625.0777,1625.3157,,139,139,,,,,,,,,,,,,,,,bars/037.png,bars/mask008.png,,,,,,,,,,,,2,1,,,,,,,2,10,3,10,,,,,,,,,,,1624.5874,1625.0777,1625.3157,1626.8297,space,1.4918,,1626.8298,11,34,1627.8349,1627.835,1627.8395,,,,0,9,9,9,1,150,105,,,,,,,,
,,5f8038ceefbc9f02632dce3c,65af5689a4d6aa58b7daa711,2024-01-23_08h16.43.553,bars,2023.2.3,Win32,40.98360656,657b66ea316d21385b68909f,,,,,,,,,,,1627.8402,1628.8469,,,1629.3361,1629.5793,,54,54,,,,,,,,,,,,,,,,bars/011.png,bars/mask009.png,,,,,,,,,,,,0,2,,,,,,,4,10,4,10,,,,,,,,,,,1628.847,1629.3361,1629.5793,1634.5258,space,4.9321,,1634.5259,74,31,1635.5219,1635.5219,1635.5439,,,,0,10,10,10,1,160,85,,,,,,,,
,,5f8038ceefbc9f02632dce3c,65af5689a4d6aa58b7daa711,2024-01-23_08h16.43.553,bars,2023.2.3,Win32,40.98360656,657b66ea316d21385b68909f,,,,,,,,,,,1635.5443,1636.542,,,1637.0455,1637.2817,,166,-14,,,,,,,,,,,,,,,,bars/018.png,bars/mask001.png,,,,,,,,,,,,1,1,,,,,,,2,10,3,10,,,,,,,,,,,1636.5421,1637.0454,1637.2818,1640.7218,space,3.4196,,1640.7218,16,76,1641.7151,1641.7152,1641.7335,,,,0,11,11,11,1,150,90,,,,,,,,
,,5f8038ceefbc9f02632dce3c,65af5689a4d6aa58b7daa711,2024-01-23_08h16.43.553,bars,2023.2.3,Win32,40.98360656,657b66ea316d21385b68909f,,,,,,,,,,,1641.7337,1642.7393,,,1643.2247,1643.4675,,33,33,,,,,,,,,,,,,,,,bars/047.png,bars/mask004.png,,,,,,,,,,,,2,1,,,,,,,4,8,4,8,,,,,,,,,,,1642.7393,1643.2247,1643.4675,1645.3715,space,1.8806,,1645.3715,18,37,1646.3703,1646.3704,1646.3719,,,,0,12,12,12,1,15,70,,,,,,,,
,,5f8038ceefbc9f02632dce3c,65af5689a4d6aa58b7daa711,2024-01-23_08h16.43.553,bars,2023.2.3,Win32,40.98360656,657b66ea316d21385b68909f,,,,,,,,,,,1646.3725,1647.3593,,,1647.8457,1648.089,,158,-22,,,,,,,,,,,,,,,,bars/004.png,bars/mask008.png,,,,,,,,,,,,0,2,,,,,,,2,10,2,9,,,,,,,,,,,1647.3593,1647.8457,1648.0891,1650.2345,space,2.1367,,1650.2345,47,33,1651.2243,1651.2243,1651.2436,,,,0,13,13,13,1,25,125,,,,,,,,
,,5f8038ceefbc9f02632dce3c,65af5689a4d6aa58b7daa711,2024-01-23_08h16.43.553,bars,2023.2.3,Win32,40.98360656,657b66ea316d21385b68909f,,,,,,,,,,,1651.2439,1652.2421,,,1652.7473,1652.9901,,19,199,,,,,,,,,,,,,,,,bars/009.png,bars/mask007.png,,,,,,,,,,,,4,1,,,,,,,4,10,5,10,,,,,,,,,,,1652.2421,1652.7472,1652.9902,1655.5917,space,2.5806,,1655.5917,4,86,1656.5872,1656.5872,1656.6044,,,,0,14,14,14,1,15,105,,,,,,,,
,,5f8038ceefbc9f02632dce3c,65af5689a4d6aa58b7daa711,2024-01-23_08h16.43.553,bars,2023.2.3,Win32,40.98360656,657b66ea316d21385b68909f,,,,,,,,,,,1656.6047,1657.6047,,,1658.0913,1658.3351,,71,71,,,,,,,,,,,,,,,,bars/021.png,bars/mask002.png,,,,,,,,,,,,9,2,,,,,,,6,8,6,9,,,,,,,,,,,1657.6047,1658.0913,1658.3352,1662.6968,space,4.3553,,1662.6968,84,1,1663.6984,1663.6985,1663.7084,,,,0,15,15,15,1,155,70,,,,,,,,
,,5f8038ceefbc9f02632dce3c,65af5689a4d6aa58b7daa711,2024-01-23_08h16.43.553,bars,2023.2.3,Win32,40.98360656,657b66ea316d21385b68909f,,,,,,,,,,,1663.7087,1664.6967,,,1665.1843,1665.4278,,39,219,,,,,,,,,,,,,,,,bars/028.png,bars/mask000.png,,,,,,,,,,,,2,1,,,,,,,4,6,3,7,,,,,,,,,,,1664.6967,1665.1843,1665.4279,1668.8152,space,3.3756,,1668.8153,6,81,1669.807,1669.807,1669.819,,,,0,16,16,16,1,45,120,,,,,,,,
,,5f8038ceefbc9f02632dce3c,65af5689a4d6aa58b7daa711,2024-01-23_08h16.43.553,bars,2023.2.3,Win32,40.98360656,657b66ea316d21385b68909f,,,,,,,,,,,1669.8292,1670.8201,,,1671.3073,1671.5505,,2,2,,,,,,,,,,,,,,,,bars/040.png,bars/mask003.png,,,,,,,,,,,,5,2,,,,,,,6,4,7,6,,,,,,,,,,,1670.8202,1671.3073,1671.5506,1673.5514,space,1.9851,,1673.5514,42,3,1674.5453,1674.5454,1674.5482,,,,0,17,17,17,1,140,5,,,,,,,,
,,5f8038ceefbc9f02632dce3c,65af5689a4d6aa58b7daa711,2024-01-23_08h16.43.553,bars,2023.2.3,Win32,40.98360656,657b66ea316d21385b68909f,,,,,,,,,,,1674.5486,1675.5356,,,1676.0255,1676.2681,,172,172,,,,,,,,,,,,,,,,bars/018.png,bars/mask005.png,,,,,,,,,,,,2,1,,,,,,,8,2,8,2,,,,,,,,,,,1675.5357,1676.0255,1676.2681,1678.269,space,1.9771,,1678.2691,22,82,1679.2687,1679.2687,1679.282,,,,0,18,18,18,1,150,90,,,,,,,,
,,5f8038ceefbc9f02632dce3c,65af5689a4d6aa58b7daa711,2024-01-23_08h16.43.553,bars,2023.2.3,Win32,40.98360656,657b66ea316d21385b68909f,,,,,,,,,,,1679.2822,1680.2791,,,1680.782,1681.0249,,15,195,,,,,,,,,,,,,,,,bars/048.png,bars/mask004.png,,,,,,,,,,,,1,2,,,,,,,10,4,10,3,,,,,,,,,,,1680.2791,1680.7819,1681.0249,1683.3812,space,2.3418,,1683.3812,35,20,1684.3796,1684.3796,1684.3961,,,,0,19,19,19,1,50,175,,,,,,,,
,,5f8038ceefbc9f02632dce3c,65af5689a4d6aa58b7daa711,2024-01-23_08h16.43.553,bars,2023.2.3,Win32,40.98360656,657b66ea316d21385b68909f,,,,,,,,,,,1684.3965,1685.3981,,,1685.8878,1686.1315,,147,-33,,,,,,,,,,,,,,,,bars/015.png,bars/mask008.png,,,,,,,,,,,,3,2,,,,,,,10,6,10,6,,,,,,,,,,,1685.3982,1685.8878,1686.1315,1688.7796,space,2.6332,,1688.7796,37,13,1689.7728,1689.7728,1689.7861,,,,0,20,20,20,1,110,160,,,,,,,,
,,5f8038ceefbc9f02632dce3c,65af5689a4d6aa58b7daa711,2024-01-23_08h16.43.553,bars,2023.2.3,Win32,40.98360656,657b66ea316d21385b68909f,,,,,,,,,,,1689.7863,1690.7872,,,1691.2748,1691.518,,72,72,,,,,,,,,,,,,,,,bars/001.png,bars/mask007.png,,,,,,,,,,,,2,2,,,,,,,10,4,9,4,,,,,,,,,,,1690.7872,1691.2748,1691.5181,1693.91,space,2.3731,,1693.91,58,13,1694.9091,1694.9091,1694.91,,,,0,21,21,21,1,130,85,,,,,,,,
,,5f8038ceefbc9f02632dce3c,65af5689a4d6aa58b7daa711,2024-01-23_08h16.43.553,bars,2023.2.3,Win32,40.98360656,657b66ea316d21385b68909f,,,,,,,,,,,1694.9103,1695.9105,,,1696.3983,1696.6422,,174,174,,,,,,,,,,,,,,,,bars/023.png,bars/mask008.png,,,,,,,,,,,,1,1,,,,,,,10,6,10,7,,,,,,,,,,,1695.9105,1696.3982,1696.6423,1697.7654,space,1.1009,,1697.7654,26,59,1698.766,1698.7661,1698.7679,,,,0,22,22,22,1,20,115,,,,,,,,
,,5f8038ceefbc9f02632dce3c,65af5689a4d6aa58b7daa711,2024-01-23_08h16.43.553,bars,2023.2.3,Win32,40.98360656,657b66ea316d21385b68909f,,,,,,,,,,,1698.7682,1699.7619,,,1700.25,1700.4938,,31,31,,,,,,,,,,,,,,,,bars/048.png,bars/mask006.png,,,,,,,,,,,,3,1,,,,,,,8,4,7,4,,,,,,,,,,,1699.7619,1700.2499,1700.4939,1702.5575,space,2.0393,,1702.5575,19,36,1703.5589,1703.5589,1703.5701,,,,0,23,23,23,1,50,175,,,,,,,,
,,5f8038ceefbc9f02632dce3c,65af5689a4d6aa58b7daa711,2024-01-23_08h16.43.553,bars,2023.2.3,Win32,40.98360656,657b66ea316d21385b68909f,,,,,,,,,,,1703.5703,1704.5613,,,1705.0493,1705.2939,,164,-16,,,,,,,,,,,,,,,,bars/010.png,bars/mask000.png,,,,,,,,,,,,6,1,,,,,,,6,6,6,6,,,,,,,,,,,1704.5613,1705.0493,1705.2939,1708.319,space,3.0062,,1708.3191,1,71,1709.3223,1709.3223,1709.3368,,,,0,24,24,24,1,165,55,,,,,,,,
,,5f8038ceefbc9f02632dce3c,65af5689a4d6aa58b7daa711,2024-01-23_08h16.43.553,bars,2023.2.3,Win32,40.98360656,657b66ea316d21385b68909f,,,,,,,,,,,1709.337,1710.3221,,,1710.8137,1711.056,,69,69,,,,,,,,,,,,,,,,bars/006.png,bars/mask007.png,,,,,,,,,,,,0,2,,,,,,,4,8,4,8,,,,,,,,,,,1710.3221,1710.8136,1711.056,1714.2506,space,3.1758,,1714.2507,34,31,1715.2515,1715.2516,1715.2666,,,,0,25,25,25,1,35,100,,,,,,,,
,,5f8038ceefbc9f02632dce3c,65af5689a4d6aa58b7daa711,2024-01-23_08h16.43.553,bars,2023.2.3,Win32,40.98360656,657b66ea316d21385b68909f,,,,,,,,,,,1715.267,1716.2677,,,1716.7549,1716.998,,125,125,,,,,,,,,,,,,,,,bars/042.png,bars/mask002.png,,,,,,,,,,,,1,1,,,,,,,6,6,4,6,,,,,,,,,,,1716.2677,1716.7549,1716.998,1719.0182,space,2.0082,,1719.0183,20,50,1720.0171,1720.0172,1720.0335,,,,0,26,26,26,1,145,75,,,,,,,,
,,5f8038ceefbc9f02632dce3c,65af5689a4d6aa58b7daa711,2024-01-23_08h16.43.553,bars,2023.2.3,Win32,40.98360656,657b66ea316d21385b68909f,,,,,,,,,,,1720.0338,1721.0173,,,1721.5051,1721.7507,,109,109,,,,,,,,,,,,,,,,bars/028.png,bars/mask002.png,,,,,,,,,,,,5,2,,,,,,,4,8,3,8,,,,,,,,,,,1721.0173,1721.5051,1721.7507,1724.6283,space,2.8538,,1724.6283,64,11,1725.6223,1725.6224,1725.6344,,,,0,27,27,27,1,45,120,,,,,,,,
,,5f8038ceefbc9f02632dce3c,65af5689a4d6aa58b7daa711,2024-01-23_08h16.43.553,bars,2023.2.3,Win32,40.98360656,657b66ea316d21385b68909f,,,,,,,,,,,1725.6346,1726.6233,,,1727.1102,1727.3542,,110,110,,,,,,,,,,,,,,,,bars/015.png,bars/mask008.png,,,,,,,,,,,,7,1,,,,,,,6,6,7,5,,,,,,,,,,,1726.6233,1727.1101,1727.3542,1729.4049,space,2.0321,,1729.405,0,50,1730.3949,1730.395,1730.3973,,,,0,28,28,28,1,110,160,,,,,,,,
,,5f8038ceefbc9f02632dce3c,65af5689a4d6aa58b7daa711,2024-01-23_08h16.43.553,bars,2023.2.3,Win32,40.98360656,657b66ea316d21385b68909f,,,,,,,,,,,1730.3976,1731.395,,,1731.8833,1732.1268,,175,-5,,,,,,,,,,,,,,,,bars/024.png,bars/mask001.png,,,,,,,,,,,,8,2,,,,,,,4,8,5,9,,,,,,,,,,,1731.395,1731.8833,1732.1269,1733.9038,space,1.7717,,1733.9039,55,5,1734.9037,1734.9037,1734.9063,,,,0,29,29,29,1,120,170,,,,,,,,
,,5f8038ceefbc9f02632dce3c,65af5689a4d6aa58b7daa711,2024-01-23_08h16.43.553,bars,2023.2.3,Win32,40.98360656,657b66ea316d21385b68909f,,,,,,,,,,,1734.9068,1735.9039,,,1736.3909,1736.6344,,48,48,,,,,,,,,,,,,,,,bars/025.png,bars/mask007.png,,,,,,,,,,,,4,2,,,,,,,6,6,5,5,,,,,,,,,,,1735.9041,1736.3909,1736.6344,1738.4792,space,1.8258,,1738.4793,57,8,1739.48,1739.48,1739.4963,,,,0,30,30,30,1,105,40,,,,,,,,
,,5f8038ceefbc9f02632dce3c,65af5689a4d6aa58b7daa711,2024-01-23_08h16.43.553,bars,2023.2.3,Win32,40.98360656,657b66ea316d21385b68909f,,,,,,,,,,,1739.4965,1740.4807,,,1740.9683,1741.2133,,102,102,,,,,,,,,,,,,,,,bars/027.png,bars/mask003.png,,,,,,,,,,,,2,1,,,,,,,4,8,3,10,,,,,,,,,,,1740.4807,1740.9683,1741.2133,1743.521,space,2.2928,,1743.5211,8,52,1744.5044,1744.5044,1744.5206,,,,0,31,31,31,1,110,50,,,,,,,,
,,5f8038ceefbc9f02632dce3c,65af5689a4d6aa58b7daa711,2024-01-23_08h16.43.553,bars,2023.2.3,Win32,40.98360656,657b66ea316d21385b68909f,,,,,,,,,,,1744.5209,1745.506,,,1745.9949,1746.2397,,79,79,,,,,,,,,,,,,,,,bars/028.png,bars/mask008.png,,,,,,,,,,,,0,1,,,,,,,2,6,4,7,,,,,,,,,,,1745.506,1745.9949,1746.2397,1748.2388,space,1.9762,,1748.2388,34,41,1749.2306,1749.2306,1749.2442,,,,0,32,32,32,1,45,120,,,,,,,,
,,5f8038ceefbc9f02632dce3c,65af5689a4d6aa58b7daa711,2024-01-23_08h16.43.553,bars,2023.2.3,Win32,40.98360656,657b66ea316d21385b68909f,,,,,,,,,,,1749.2444,1750.2294,,,1750.717,1750.9625,,169,-11,,,,,,,,,,,,,,,,bars/046.png,bars/mask002.png,,,,,,,,,,,,0,1,,,,,,,0,8,0,8,,,,,,,,,,,1750.2294,1750.717,1750.9625,1755.2117,space,4.2288,,1755.2117,14,84,1756.2052,1756.2054,1756.2204,,,,0,33,33,33,1,155,85,,,,,,,,
,,5f8038ceefbc9f02632dce3c,65af5689a4d6aa58b7daa711,2024-01-23_08h16.43.553,bars,2023.2.3,Win32,40.98360656,657b66ea316d21385b68909f,,,,,,,,,,,1756.2208,1757.2043,,,1757.6903,1757.9348,,76,76,,,,,,,,,,,,,,,,bars/014.png,bars/mask009.png,,,,,,,,,,,,2,1,,,,,,,2,6,2,7,,,,,,,,,,,1757.2044,1757.6903,1757.9348,1759.5158,space,1.5753,,1759.5159,4,76,1760.5159,1760.5159,1760.5172,,,,0,34,34,34,1,80,0,,,,,,,,
,,5f8038ceefbc9f02632dce3c,65af5689a4d6aa58b7daa711,2024-01-23_08h16.43.553,bars,2023.2.3,Win32,40.98360656,657b66ea316d21385b68909f,,,,,,,,,,,1760.5177,1761.5183,,,1762.0048,1762.2488,,58,238,,,,,,,,,,,,,,,,bars/002.png,bars/mask004.png,,,,,,,,,,,,0,2,,,,,,,0,4,1,4,,,,,,,,,,,1761.5184,1762.0047,1762.2488,1765.3614,space,3.0963,,1765.3615,72,27,1766.3578,1766.3578,1766.3744,,,,0,35,35,35,1,130,85,,,,,,,,
,,5f8038ceefbc9f02632dce3c,65af5689a4d6aa58b7daa711,2024-01-23_08h16.43.553,bars,2023.2.3,Win32,40.98360656,657b66ea316d21385b68909f,,,,,,,,,,,1766.3747,1767.3747,,,1767.8638,1768.108,,148,148,,,,,,,,,,,,,,,,bars/046.png,bars/mask008.png,,,,,,,,,,,,0,1,,,,,,,0,6,0,4,,,,,,,,,,,1767.3748,1767.8638,1768.108,1769.5338,space,1.4145,,1769.5339,7,63,1770.5325,1770.5325,1770.5354,,,,0,36,36,36,1,155,85,,,,,,,,
,,5f8038ceefbc9f02632dce3c,65af5689a4d6aa58b7daa711,2024-01-23_08h16.43.553,bars,2023.2.3,Win32,40.98360656,657b66ea316d21385b68909f,,,,,,,,,,,1770.5357,1771.5343,,,1772.0223,1772.2656,,95,95,,,,,,,,,,,,,,,,bars/044.png,bars/mask001.png,,,,,,,,,,,,1,1,,,,,,,2,4,2,5,,,,,,,,,,,1771.5343,1772.0222,1772.2657,1774.246,space,1.9603,,1774.2461,20,60,1775.244,1775.2441,1775.2588,,,,0,37,37,37,1,75,155,,,,,,,,
,,5f8038ceefbc9f02632dce3c,65af5689a4d6aa58b7daa711,2024-01-23_08h16.43.553,bars,2023.2.3,Win32,40.98360656,657b66ea316d21385b68909f,,,,,,,,,,,1775.2591,1776.2457,,,1776.735,1776.9795,,64,64,,,,,,,,,,,,,,,,bars/038.png,bars/mask007.png,,,,,,,,,,,,5,2,,,,,,,4,6,5,6,,,,,,,,,,,1776.2458,1776.735,1776.9795,1779.0046,space,2.0194,,1779.0046,79,6,1780.0053,1780.0053,1780.0207,,,,0,38,38,38,1,165,70,,,,,,,,
,,5f8038ceefbc9f02632dce3c,65af5689a4d6aa58b7daa711,2024-01-23_08h16.43.553,bars,2023.2.3,Win32,40.98360656,657b66ea316d21385b68909f,,,,,,,,,,,1780.0209,1781.0052,,,1781.4918,1781.7369,,40,40,,,,,,,,,,,,,,,,bars/006.png,bars/mask003.png,,,,,,,,,,,,1,1,,,,,,,2,8,1,8,,,,,,,,,,,1781.0052,1781.4918,1781.7369,1783.8123,space,2.0641,,1783.8125,5,60,1784.8142,1784.8143,1784.8171,,,,0,39,39,39,1,35,100,,,,,,,,
,,5f8038ceefbc9f02632dce3c,65af5689a4d6aa58b7daa711,2024-01-23_08h16.43.553,bars,2023.2.3,Win32,40.98360656,657b66ea316d21385b68909f,,,,,,,,,,,1784.8174,1785.8132,,,1786.3,1786.5439,,121,121,,,,,,,,,,,,,,,,bars/004.png,bars/mask003.png,,,,,,,,,,,,9,2,,,,,,,0,10,0,10,,,,,,,,,,,1785.8132,1786.3,1786.544,1789.8188,space,3.2507,,1789.8188,84,4,1790.8201,1790.8202,1790.8361,,,,0,40,40,40,1,25,125,,,,,,,,
,,5f8038ceefbc9f02632dce3c,65af5689a4d6aa58b7daa711,2024-01-23_08h16.43.553,bars,2023.2.3,Win32,40.98360656,657b66ea316d21385b68909f,,,,,,,,,,,1790.8365,1791.8361,,,1792.3241,1792.5673,,36,216,,,,,,,,,,,,,,,,bars/028.png,bars/mask009.png,,,,,,,,,,,,1,1,,,,,,,0,8,1,10,,,,,,,,,,,1791.8362,1792.3241,1792.5673,1796.833,space,4.242,,1796.833,9,84,1797.8318,1797.8318,1797.85,,,,0,41,41,41,1,45,120,,,,,,,,
,,5f8038ceefbc9f02632dce3c,65af5689a4d6aa58b7daa711,2024-01-23_08h16.43.553,bars,2023.2.3,Win32,40.98360656,657b66ea316d21385b68909f,,,,,,,,,,,1797.8505,1798.8529,,,1799.3399,1799.5839,,15,15,,,,,,,,,,,,,,,,bars/012.png,bars/mask008.png,,,,,,,,,,,,10,2,,,,,,,0,10,0,10,,,,,,,,,,,1798.8529,1799.3399,1799.5839,1803.2804,space,3.6756,,1803.2805,75,0,1804.2827,1804.2827,1804.2983,,,,0,42,42,42,1,90,15,,,,,,,,
,,5f8038ceefbc9f02632dce3c,65af5689a4d6aa58b7daa711,2024-01-23_08h16.43.553,bars,2023.2.3,Win32,40.98360656,657b66ea316d21385b68909f,,,,,,,,,,,1804.2989,1805.2861,,,1805.7752,1806.0206,,123,123,,,,,,,,,,,,,,,,bars/019.png,bars/mask002.png,,,,,,,,,,,,4,2,,,,,,,2,10,2,10,,,,,,,,,,,1805.2861,1805.7752,1806.0207,1808.4553,space,2.4278,,1808.4553,78,18,1809.4537,1809.4538,1809.4709,,,,0,43,43,43,1,45,105,,,,,,,,
,,5f8038ceefbc9f02632dce3c,65af5689a4d6aa58b7daa711,2024-01-23_08h16.43.553,bars,2023.2.3,Win32,40.98360656,657b66ea316d21385b68909f,,,,,,,,,,,1809.4712,1810.4749,,,1810.9638,1811.2077,,155,-25,,,,,,,,,,,,,,,,bars/009.png,bars/mask008.png,,,,,,,,,,,,0,1,,,,,,,0,8,1,9,,,,,,,,,,,1810.4749,1810.9637,1811.2077,1815.253,space,4.0338,,1815.253,40,50,1816.2528,1816.2528,1816.2704,,,,0,44,44,44,1,15,105,,,,,,,,
,,5f8038ceefbc9f02632dce3c,65af5689a4d6aa58b7daa711,2024-01-23_08h16.43.553,bars,2023.2.3,Win32,40.98360656,657b66ea316d21385b68909f,,,,,,,,,,,1816.2708,1817.2532,,,1817.7408,1817.9857,,118,118,,,,,,,,,,,,,,,,bars/045.png,bars/mask006.png,,,,,,,,,,,,0,1,,,,,,,0,10,0,10,,,,,,,,,,,1817.2533,1817.7407,1817.9857,1821.7178,space,3.7081,,1821.7179,18,72,1822.7069,1822.7069,1822.7192,,,,0,45,45,45,1,100,10,,,,,,,,
,,5f8038ceefbc9f02632dce3c,65af5689a4d6aa58b7daa711,2024-01-23_08h16.43.553,bars,2023.2.3,Win32,40.98360656,657b66ea316d21385b68909f,,,,,,,,,,,1822.7194,1823.7094,,,1824.1947,1824.4379,,10,190,,,,,,,,,,,,,,,,bars/025.png,bars/mask005.png,,,,,,,,,,,,0,2,,,,,,,0,10,0,10,,,,,,,,,,,1823.7094,1824.1947,1824.4379,1827.2427,space,2.7821,,1827.2428,85,30,1828.2334,1828.2335,1828.2499,,,,0,46,46,46,1,105,40,,,,,,,,
,,5f8038ceefbc9f02632dce3c,65af5689a4d6aa58b7daa711,2024-01-23_08h16.43.553,bars,2023.2.3,Win32,40.98360656,657b66ea316d21385b68909f,,,,,,,,,,,1828.2502,1829.234,,,1829.7224,1829.966,,155,155,,,,,,,,,,,,,,,,bars/011.png,bars/mask004.png,,,,,,,,,,,,0,1,,,,,,,0,8,0,8,,,,,,,,,,,1829.234,1829.7223,1829.966,1832.0468,space,2.0589,,1832.0468,5,70,1833.0466,1833.0466,1833.0495,,,,0,47,47,47,1,160,85,,,,,,,,
,,5f8038ceefbc9f02632dce3c,65af5689a4d6aa58b7daa711,2024-01-23_08h16.43.553,bars,2023.2.3,Win32,40.98360656,657b66ea316d21385b68909f,,,,,,,,,,,1833.0499,1834.0506,,,1834.5378,1834.781,,145,145,,,,,,,,,,,,,,,,bars/028.png,bars/mask004.png,,,,,,,,,,,,1,2,,,,,,,0,6,0,7,,,,,,,,,,,1834.0507,1834.5378,1834.781,1836.7382,space,1.944,,1836.7383,80,25,1837.7393,1837.7393,1837.7563,,,,0,48,48,48,1,45,120,,,,,,,,
,,5f8038ceefbc9f02632dce3c,65af5689a4d6aa58b7daa711,2024-01-23_08h16.43.553,bars,2023.2.3,Win32,40.98360656,657b66ea316d21385b68909f,,,,,,,,,,,1837.7566,1838.7403,,,1839.2291,1839.4722,,169,-11,,,,,,,,,,,,,,,,bars/046.png,bars/mask006.png,,,,,,,,,,,,2,1,,,,,,,2,4,3,5,,,,,,,,,,,1838.7403,1839.229,1839.4723,1844.5287,space,5.0329,,1844.5287,14,84,1845.5276,1845.5276,1845.5448,,,,0,49,49,49,1,155,85,,,,,,,,
,,5f8038ceefbc9f02632dce3c,65af5689a4d6aa58b7daa711,2024-01-23_08h16.43.553,bars,2023.2.3,Win32,40.98360656,657b66ea316d21385b68909f,,,,,,,,,,,,,,,,,,,,,,,,,,,,,,,,,,,,,,,,,,,,,,,,,,,,,,,,,,,,,,,,,,,,,,,,,,,,,,,,,,,,,,,,,,,,,1845.5449,1905.5503,0,1,1,3,1,sequence_tables/blk003.csv
,,5f8038ceefbc9f02632dce3c,65af5689a4d6aa58b7daa711,2024-01-23_08h16.43.553,bars,2023.2.3,Win32,40.98360656,657b66ea316d21385b68909f,,,,,,,,,,,1917.7197,1918.7031,,,1919.1905,1919.4337,,47,47,,,,,,,,,,,,,,,,bars/049.png,bars/mask001.png,,,,,,,,,,,,0,1,,,,,,,4,1,4,1,,,,,,1905.5763,1917.7018,space,12.1162,,1918.7032,1919.1904,1919.4338,1921.4172,space,1.9652,,1921.4172,67,68,1922.4179,1922.4179,1922.4346,,,,0,0,0,0,1,160,115,,,,,,,,
,,5f8038ceefbc9f02632dce3c,65af5689a4d6aa58b7daa711,2024-01-23_08h16.43.553,bars,2023.2.3,Win32,40.98360656,657b66ea316d21385b68909f,,,,,,,,,,,1922.4348,1923.4333,,,1923.9229,1924.1673,,125,125,,,,,,,,,,,,,,,,bars/002.png,bars/mask000.png,,,,,,,,,,,,7,1,,,,,,,6,0,8,0,,,,,,,,,,,1923.4333,1923.9229,1924.1674,1926.0847,space,1.8937,,1926.0848,5,40,1927.0854,1927.0855,1927.0865,,,,0,1,1,1,1,130,85,,,,,,,,
,,5f8038ceefbc9f02632dce3c,65af5689a4d6aa58b7daa711,2024-01-23_08h16.43.553,bars,2023.2.3,Win32,40.98360656,657b66ea316d21385b68909f,,,,,,,,,,,1927.0868,1928.08,,,1928.5673,1928.8129,,25,25,,,,,,,,,,,,,,,,bars/022.png,bars/mask006.png,,,,,,,,,,,,2,2,,,,,,,4,2,2,2,,,,,,,,,,,1928.08,1928.5673,1928.8129,1930.4873,space,1.6659,,1930.4873,70,5,1931.4866,1931.4866,1931.4893,,,,0,2,2,2,1,95,20,,,,,,,,
,,5f8038ceefbc9f02632dce3c,65af5689a4d6aa58b7daa711,2024-01-23_08h16.43.553,bars,2023.2.3,Win32,40.98360656,657b66ea316d21385b68909f,,,,,,,,,,,1931.4896,1932.4764,,,1932.9639,1933.1998,,23,203,,,,,,,,,,,,,,,,bars/014.png,bars/mask002.png,,,,,,,,,,,,0,2,,,,,,,2,0,2,0,,,,,,,,,,,1932.4765,1932.9639,1933.1999,1936.5915,space,3.3845,,1936.5916,57,23,1937.5891,1937.5891,1937.6036,,,,0,3,3,3,1,80,0,,,,,,,,
,,5f8038ceefbc9f02632dce3c,65af5689a4d6aa58b7daa711,2024-01-23_08h16.43.553,bars,2023.2.3,Win32,40.98360656,657b66ea316d21385b68909f,,,,,,,,,,,1937.6039,1938.5879,,,1939.0775,1939.3217,,130,130,,,,,,,,,,,,,,,,bars/018.png,bars/mask007.png,,,,,,,,,,,,1,1,,,,,,,4,0,4,0,,,,,,,,,,,1938.5879,1939.0773,1939.3217,1940.6597,space,1.3089,,1940.6597,20,40,1941.6611,1941.6611,1941.6637,,,,0,4,4,4,1,150,90,,,,,,,,
,,5f8038ceefbc9f02632dce3c,65af5689a4d6aa58b7daa711,2024-01-23_08h16.43.553,bars,2023.2.3,Win32,40.98360656,657b66ea316d21385b68909f,,,,,,,,,,,1941.6641,1942.6602,,,1943.148,1943.3848,,31,211,,,,,,,,,,,,,,,,bars/000.png,bars/mask008.png,,,,,,,,,,,,2,1,,,,,,,2,2,3,1,,,,,,,,,,,1942.6602,1943.1479,1943.3848,1945.8966,space,2.4885,,1945.8967,9,66,1946.9,1946.9,1946.9134,,,,0,5,5,5,1,40,145,,,,,,,,
,,5f8038ceefbc9f02632dce3c,65af5689a4d6aa58b7daa711,2024-01-23_08h16.43.553,bars,2023.2.3,Win32,40.98360656,657b66ea316d21385b68909f,,,,,,,,,,,1946.9136,1947.9008,,,1948.3876,1948.6336,,71,71,,,,,,,,,,,,,,,,bars/018.png,bars/mask009.png,,,,,,,,,,,,1,2,,,,,,,0,4,1,3,,,,,,,,,,,1947.9008,1948.3876,1948.6336,1950.1106,space,1.4551,,1950.1107,79,19,1951.1111,1951.1111,1951.1132,,,,0,6,6,6,1,150,90,,,,,,,,
,,5f8038ceefbc9f02632dce3c,65af5689a4d6aa58b7daa711,2024-01-23_08h16.43.553,bars,2023.2.3,Win32,40.98360656,657b66ea316d21385b68909f,,,,,,,,,,,1951.1137,1952.1123,,,1952.6007,1952.8436,,6,186,,,,,,,,,,,,,,,,bars/035.png,bars/mask002.png,,,,,,,,,,,,0,1,,,,,,,0,6,0,7,,,,,,,,,,,1952.1124,1952.6006,1952.8437,1956.992,space,4.138,,1956.9921,11,54,1957.9932,1957.9932,1958.0056,,,,0,7,7,7,1,175,60,,,,,,,,
,,5f8038ceefbc9f02632dce3c,65af5689a4d6aa58b7daa711,2024-01-23_08h16.43.553,bars,2023.2.3,Win32,40.98360656,657b66ea316d21385b68909f,,,,,,,,,,,1958.0058,1958.9935,,,1959.4839,1959.7301,,27,207,,,,,,,,,,,,,,,,bars/025.png,bars/mask005.png,,,,,,,,,,,,5,2,,,,,,,2,8,2,8,,,,,,,,,,,1958.9936,1959.4839,1959.7302,1965.1221,space,5.3581,,1965.1227,78,13,1966.1529,1966.153,1966.1749,,,,0,8,8,8,1,105,40,,,,,,,,
,,5f8038ceefbc9f02632dce3c,65af5689a4d6aa58b7daa711,2024-01-23_08h16.43.553,bars,2023.2.3,Win32,40.98360656,657b66ea316d21385b68909f,,,,,,,,,,,1966.1755,1967.1685,,,1967.6605,1967.8997,,170,-10,,,,,,,,,,,,,,,,bars/045.png,bars/mask007.png,,,,,,,,,,,,2,2,,,,,,,4,6,4,7,,,,,,,,,,,1967.1685,1967.6605,1967.8997,1972.2554,space,4.3426,,1972.2555,70,20,1973.2478,1973.2478,1973.2628,,,,0,9,9,9,1,100,10,,,,,,,,
,,5f8038ceefbc9f02632dce3c,65af5689a4d6aa58b7daa711,2024-01-23_08h16.43.553,bars,2023.2.3,Win32,40.98360656,657b66ea316d21385b68909f,,,,,,,,,,,1973.2631,1974.2652,,,1974.7529,1974.9973,,168,-12,,,,,,,,,,,,,,,,bars/049.png,bars/mask008.png,,,,,,,,,,,,0,1,,,,,,,2,8,0,8,,,,,,,,,,,1974.2652,1974.7529,1974.9973,1976.7985,space,1.7776,,1976.7985,8,53,1977.7976,1977.7976,1977.8003,,,,0,10,10,10,1,160,115,,,,,,,,
,,5f8038ceefbc9f02632dce3c,65af5689a4d6aa58b7daa711,2024-01-23_08h16.43.553,bars,2023.2.3,Win32,40.98360656,657b66ea316d21385b68909f,,,,,,,,,,,1977.8008,1978.7955,,,1979.2837,1979.5289,,152,152,,,,,,,,,,,,,,,,bars/048.png,bars/mask001.png,,,,,,,,,,,,2,2,,,,,,,4,10,4,8,,,,,,,,,,,1978.7956,1979.2837,1979.5289,1981.2071,space,1.6544,,1981.2071,78,23,1982.2032,1982.2033,1982.2164,,,,0,11,11,11,1,50,175,,,,,,,,
,,5f8038ceefbc9f02632dce3c,65af5689a4d6aa58b7daa711,2024-01-23_08h16.43.553,bars,2023.2.3,Win32,40.98360656,657b66ea316d21385b68909f,,,,,,,,,,,1982.2167,1983.2035,,,1983.6914,1983.9358,,23,23,,,,,,,,,,,,,,,,bars/006.png,bars/mask009.png,,,,,,,,,,,,2,1,,,,,,,2,8,3,10,,,,,,,,,,,1983.2036,1983.6914,1983.9359,1984.9391,space,0.9794,,1984.9392,12,77,1985.9421,1985.9422,1985.9581,,,,0,12,12,12,1,35,100,,,,,,,,
,,5f8038ceefbc9f02632dce3c,65af5689a4d6aa58b7daa711,2024-01-23_08h16.43.553,bars,2023.2.3,Win32,40.98360656,657b66ea316d21385b68909f,,,,,,,,,,,1985.9584,1986.9586,,,1987.4452,1987.6886,,16,196,,,,,,,,,,,,,,,,bars/035.png,bars/mask008.png,,,,,,,,,,,,0,1,,,,,,,0,10,0,9,,,,,,,,,,,1986.9586,1987.4452,1987.6887,1990.6445,space,2.9326,,1990.6445,21,44,1991.63,1991.63,1991.6452,,,,0,13,13,13,1,175,60,,,,,,,,
,,5f8038ceefbc9f02632dce3c,65af5689a4d6aa58b7daa711,2024-01-23_08h16.43.553,bars,2023.2.3,Win32,40.98360656,657b66ea316d21385b68909f,,,,,,,,,,,1991.6454,1992.629,,,1993.1182,1993.3625,,22,202,,,,,,,,,,,,,,,,bars/033.png,bars/mask003.png,,,,,,,,,,,,1,1,,,,,,,2,10,1,10,,,,,,,,,,,1992.6291,1993.1181,1993.3626,1996.4879,space,3.1031,,1996.4879,3,47,1997.489,1997.489,1997.5046,,,,0,14,14,14,1,25,155,,,,,,,,
,,5f8038ceefbc9f02632dce3c,65af5689a4d6aa58b7daa711,2024-01-23_08h16.43.553,bars,2023.2.3,Win32,40.98360656,657b66ea316d21385b68909f,,,,,,,,,,,1997.5051,1998.49,,,1998.9779,1999.2213,,142,142,,,,,,,,,,,,,,,,bars/028.png,bars/mask002.png,,,,,,,,,,,,2,2,,,,,,,0,8,0,6,,,,,,,,,,,1998.4901,1998.9779,1999.2213,2043.9565,space,44.7227,,2043.9565,83,22,2044.9561,2044.9563,2044.9843,,,,0,15,15,15,1,45,120,,,,,,,,
,,5f8038ceefbc9f02632dce3c,65af5689a4d6aa58b7daa711,2024-01-23_08h16.43.553,bars,2023.2.3,Win32,40.98360656,657b66ea316d21385b68909f,,,,,,,,,,,2044.9847,2045.995,,,2046.4832,2046.7257,,57,57,,,,,,,,,,,,,,,,bars/025.png,bars/mask001.png,,,,,,,,,,,,2,2,,,,,,,0,6,1,5,,,,,,,,,,,2045.995,2046.4832,2046.7259,2049.3357,space,2.5847,,2049.3357,48,17,2050.3324,2050.3324,2050.3466,,,,0,16,16,16,1,105,40,,,,,,,,
,,5f8038ceefbc9f02632dce3c,65af5689a4d6aa58b7daa711,2024-01-23_08h16.43.553,bars,2023.2.3,Win32,40.98360656,657b66ea316d21385b68909f,,,,,,,,,,,2050.3468,2051.3315,,,2051.8186,2052.0633,,119,119,,,,,,,,,,,,,,,,bars/039.png,bars/mask005.png,,,,,,,,,,,,4,2,,,,,,,0,8,0,8,,,,,,,,,,,2051.3315,2051.8186,2052.0634,2059.9717,space,7.884,,2059.9717,56,14,2060.9725,2060.9725,2060.9872,,,,0,17,17,17,1,175,105,,,,,,,,
,,5f8038ceefbc9f02632dce3c,65af5689a4d6aa58b7daa711,2024-01-23_08h16.43.553,bars,2023.2.3,Win32,40.98360656,657b66ea316d21385b68909f,,,,,,,,,,,2060.9874,2061.993,,,2062.4802,2062.7233,,54,54,,,,,,,,,,,,,,,,bars/026.png,bars/mask007.png,,,,,,,,,,,,0,1,,,,,,,0,10,0,10,,,,,,,,,,,2061.993,2062.4802,2062.7233,2064.6975,space,1.9664,,2064.6976,19,31,2065.6975,2065.6975,2065.7128,,,,0,18,18,18,1,35,85,,,,,,,,
,,5f8038ceefbc9f02632dce3c,65af5689a4d6aa58b7daa711,2024-01-23_08h16.43.553,bars,2023.2.3,Win32,40.98360656,657b66ea316d21385b68909f,,,,,,,,,,,2065.7132,2066.7133,,,2067.2003,2067.4425,,160,160,,,,,,,,,,,,,,,,bars/033.png,bars/mask007.png,,,,,,,,,,,,8,2,,,,,,,2,8,2,9,,,,,,,,,,,2066.7134,2067.2003,2067.4426,2100.6447,space,33.184,,2100.6447,45,5,2101.6455,2101.6456,2101.6629,,,,0,19,19,19,1,25,155,,,,,,,,
,,5f8038ceefbc9f02632dce3c,65af5689a4d6aa58b7daa711,2024-01-23_08h16.43.553,bars,2023.2.3,Win32,40.98360656,657b66ea316d21385b68909f,,,,,,,,,,,2101.6632,2102.6465,,,2103.1514,2103.3955,,44,224,,,,,,,,,,,,,,,,bars/027.png,bars/mask003.png,,,,,,,,,,,,6,2,,,,,,,4,6,4,7,,,,,,,,,,,2102.6466,2103.1513,2103.3955,2108.0291,space,4.6273,,2108.0292,66,6,2109.0219,2109.022,2109.035,,,,0,20,20,20,1,110,50,,,,,,,,
,,5f8038ceefbc9f02632dce3c,65af5689a4d6aa58b7daa711,2024-01-23_08h16.43.553,bars,2023.2.3,Win32,40.98360656,657b66ea316d21385b68909f,,,,,,,,,,,2109.0351,2110.0242,,,2110.5143,2110.7578,,154,154,,,,,,,,,,,,,,,,bars/020.png,bars/mask007.png,,,,,,,,,,,,3,2,,,,,,,6,8,7,7,,,,,,,,,,,2110.0242,2110.5143,2110.7579,2128.866,space,18.0976,,2128.866,39,16,2129.8681,2129.8681,2129.8823,,,,0,21,21,21,1,115,170,,,,,,,,
,,5f8038ceefbc9f02632dce3c,65af5689a4d6aa58b7daa711,2024-01-23_08h16.43.553,bars,2023.2.3,Win32,40.98360656,657b66ea316d21385b68909f,,,,,,,,,,,2129.8825,2130.8723,,,2131.3598,2131.6041,,162,162,,,,,,,,,,,,,,,,bars/016.png,bars/mask006.png,,,,,,,,,,,,9,2,,,,,,,4,10,5,10,,,,,,,,,,,2130.8723,2131.3598,2131.6041,2140.271,space,8.6541,,2140.2711,58,3,2141.2736,2141.2737,2141.289,,,,0,22,22,22,1,40,165,,,,,,,,
,,5f8038ceefbc9f02632dce3c,65af5689a4d6aa58b7daa711,2024-01-23_08h16.43.553,bars,2023.2.3,Win32,40.98360656,657b66ea316d21385b68909f,,,,,,,,,,,2141.2893,2142.2751,,,2142.7616,2143.0053,,113,113,,,,,,,,,,,,,,,,bars/004.png,bars/mask006.png,,,,,,,,,,,,5,2,,,,,,,6,8,7,9,,,,,,,,,,,2142.2751,2142.7616,2143.0054,2145.9037,space,2.8826,,2145.9039,88,12,2146.9032,2146.9033,2146.9132,,,,0,23,23,23,1,25,125,,,,,,,,
,,5f8038ceefbc9f02632dce3c,65af5689a4d6aa58b7daa711,2024-01-23_08h16.43.553,bars,2023.2.3,Win32,40.98360656,657b66ea316d21385b68909f,,,,,,,,,,,2146.9134,2147.9057,,,2148.3964,2148.6407,,41,41,,,,,,,,,,,,,,,,bars/033.png,bars/mask008.png,,,,,,,,,,,,4,1,,,,,,,8,10,9,10,,,,,,,,,,,2147.9058,2148.3964,2148.6408,2151.6318,space,2.9688,,2151.6319,16,66,2152.6303,2152.6303,2152.6442,,,,0,24,24,24,1,25,155,,,,,,,,
,,5f8038ceefbc9f02632dce3c,65af5689a4d6aa58b7daa711,2024-01-23_08h16.43.553,bars,2023.2.3,Win32,40.98360656,657b66ea316d21385b68909f,,,,,,,,,,,2152.6444,2153.6291,,,2154.1169,2154.3622,,118,-62,,,,,,,,,,,,,,,,bars/034.png,bars/mask004.png,,,,,,,,,,,,8,1,,,,,,,10,8,10,9,,,,,,,,,,,2153.6292,2154.1168,2154.3623,2158.2923,space,3.9109,,2158.2923,7,53,2159.292,2159.292,2159.3066,,,,0,25,25,25,1,125,65,,,,,,,,
,,5f8038ceefbc9f02632dce3c,65af5689a4d6aa58b7daa711,2024-01-23_08h16.43.553,bars,2023.2.3,Win32,40.98360656,657b66ea316d21385b68909f,,,,,,,,,,,2159.307,2160.3099,,,2160.7992,2161.0415,,157,-23,,,,,,,,,,,,,,,,bars/049.png,bars/mask007.png,,,,,,,,,,,,9,1,,,,,,,10,10,10,10,,,,,,,,,,,2160.3099,2160.7992,2161.0415,2164.2748,space,3.2251,,2164.2748,3,42,2165.2768,2165.2768,2165.2919,,,,0,26,26,26,1,160,115,,,,,,,,
,,5f8038ceefbc9f02632dce3c,65af5689a4d6aa58b7daa711,2024-01-23_08h16.43.553,bars,2023.2.3,Win32,40.98360656,657b66ea316d21385b68909f,,,,,,,,,,,2165.2921,2166.2774,,,2166.7686,2167.0139,,68,68,,,,,,,,,,,,,,,,bars/030.png,bars/mask002.png,,,,,,,,,,,,9,2,,,,,,,8,10,7,10,,,,,,,,,,,2166.2774,2166.7685,2167.0139,2168.8929,space,1.8605,,2168.893,72,3,2169.8942,2169.8942,2169.9127,,,,0,27,27,27,1,140,65,,,,,,,,
,,5f8038ceefbc9f02632dce3c,65af5689a4d6aa58b7daa711,2024-01-23_08h16.43.553,bars,2023.2.3,Win32,40.98360656,657b66ea316d21385b68909f,,,,,,,,,,,2169.9131,2170.8953,,,2171.383,2171.6261,,81,81,,,,,,,,,,,,,,,,bars/025.png,bars/mask003.png,,,,,,,,,,,,2,1,,,,,,,10,8,10,7,,,,,,,,,,,2170.8953,2171.383,2171.6261,2187.7872,space,16.145,,2187.7872,24,41,2188.788,2188.7881,2188.8065,,,,0,28,28,28,1,105,40,,,,,,,,
,,5f8038ceefbc9f02632dce3c,65af5689a4d6aa58b7daa711,2024-01-23_08h16.43.553,bars,2023.2.3,Win32,40.98360656,657b66ea316d21385b68909f,,,,,,,,,,,2188.8068,2189.809,,,2190.2985,2190.5443,,31,31,,,,,,,,,,,,,,,,bars/043.png,bars/mask008.png,,,,,,,,,,,,10,1,,,,,,,10,6,10,5,,,,,,,,,,,2189.8091,2190.2985,2190.5444,2192.738,space,2.1821,,2192.738,1,81,2193.7279,2193.728,2193.7434,,,,0,29,29,29,1,30,130,,,,,,,,
,,5f8038ceefbc9f02632dce3c,65af5689a4d6aa58b7daa711,2024-01-23_08h16.43.553,bars,2023.2.3,Win32,40.98360656,657b66ea316d21385b68909f,,,,,,,,,,,2193.7436,2194.746,,,2195.2347,2195.4787,,152,-28,,,,,,,,,,,,,,,,bars/043.png,bars/mask009.png,,,,,,,,,,,,2,2,,,,,,,8,8,7,8,,,,,,,,,,,2194.746,2195.2346,2195.4787,2197.6467,space,2.1504,,2197.6468,58,22,2198.6433,2198.6434,2198.6456,,,,0,30,30,30,1,30,130,,,,,,,,
,,5f8038ceefbc9f02632dce3c,65af5689a4d6aa58b7daa711,2024-01-23_08h16.43.553,bars,2023.2.3,Win32,40.98360656,657b66ea316d21385b68909f,,,,,,,,,,,2198.646,2199.6435,,,2200.1301,2200.3737,,66,66,,,,,,,,,,,,,,,,bars/034.png,bars/mask008.png,,,,,,,,,,,,10,2,,,,,,,6,10,5,10,,,,,,,,,,,2199.6436,2200.1301,2200.3737,2201.7079,space,1.3142,,2201.7079,59,1,2202.7079,2202.7079,2202.7089,,,,0,31,31,31,1,125,65,,,,,,,,
,,5f8038ceefbc9f02632dce3c,65af5689a4d6aa58b7daa711,2024-01-23_08h16.43.553,bars,2023.2.3,Win32,40.98360656,657b66ea316d21385b68909f,,,,,,,,,,,2202.7092,2203.7005,,,2204.1876,2204.4304,,117,117,,,,,,,,,,,,,,,,bars/025.png,bars/mask006.png,,,,,,,,,,,,2,1,,,,,,,4,10,4,10,,,,,,,,,,,2203.7005,2204.1875,2204.4304,2206.8203,space,2.3708,,2206.8203,12,77,2207.8238,2207.8238,2207.8398,,,,0,32,32,32,1,105,40,,,,,,,,
,,5f8038ceefbc9f02632dce3c,65af5689a4d6aa58b7daa711,2024-01-23_08h16.43.553,bars,2023.2.3,Win32,40.98360656,657b66ea316d21385b68909f,,,,,,,,,,,2207.8401,2208.845,,,2209.3333,2209.5777,,56,236,,,,,,,,,,,,,,,,bars/042.png,bars/mask009.png,,,,,,,,,,,,4,2,,,,,,,6,10,5,10,,,,,,,,,,,2208.845,2209.3333,2209.5777,2212.9457,space,3.3626,,2212.9457,89,19,2213.9428,2213.9428,2213.9585,,,,0,33,33,33,1,145,75,,,,,,,,
,,5f8038ceefbc9f02632dce3c,65af5689a4d6aa58b7daa711,2024-01-23_08h16.43.553,bars,2023.2.3,Win32,40.98360656,657b66ea316d21385b68909f,,,,,,,,,,,2213.9588,2214.9421,,,2215.4303,2215.6744,,69,69,,,,,,,,,,,,,,,,bars/048.png,bars/mask009.png,,,,,,,,,,,,1,1,,,,,,,4,10,3,10,,,,,,,,,,,2214.9421,2215.4302,2215.6744,2217.2891,space,1.6034,0.0047,2217.2891,19,74,2218.2811,2218.2812,2218.2839,,,,0,34,34,34,1,50,175,,,,,,,,
,,5f8038ceefbc9f02632dce3c,65af5689a4d6aa58b7daa711,2024-01-23_08h16.43.553,bars,2023.2.3,Win32,40.98360656,657b66ea316d21385b68909f,,,,,,,,,,,2218.2842,2219.278,,,2219.7673,2220.012,,55,55,,,,,,,,,,,,,,,,bars/017.png,bars/mask004.png,,,,,,,,,,,,5,2,,,,,,,6,8,6,7,,,,,,,,,,,2219.278,2219.7672,2220.0121,2222.4184,space,2.3882,,2222.4185,90,10,2223.421,2223.421,2223.437,,,,0,35,35,35,1,145,45,,,,,,,,
,,5f8038ceefbc9f02632dce3c,65af5689a4d6aa58b7daa711,2024-01-23_08h16.43.553,bars,2023.2.3,Win32,40.98360656,657b66ea316d21385b68909f,,,,,,,,,,,2223.4372,2224.4391,,,2224.9256,2225.1695,,37,37,,,,,,,,,,,,,,,,bars/019.png,bars/mask002.png,,,,,,,,,,,,7,1,,,,,,,8,10,9,10,,,,,,,,,,,2224.4392,2224.9256,2225.1695,2226.5042,space,1.3177,,2226.5042,8,68,2227.5009,2227.501,2227.5033,,,,0,36,36,36,1,45,105,,,,,,,,
,,5f8038ceefbc9f02632dce3c,65af5689a4d6aa58b7daa711,2024-01-23_08h16.43.553,bars,2023.2.3,Win32,40.98360656,657b66ea316d21385b68909f,,,,,,,,,,,2227.5039,2228.4897,,,2228.9775,2229.2231,,142,142,,,,,,,,,,,,,,,,bars/044.png,bars/mask001.png,,,,,,,,,,,,5,2,,,,,,,10,8,10,9,,,,,,,,,,,2228.4897,2228.9774,2229.2231,2235.4825,space,6.2373,,2235.4826,67,13,2236.4814,2236.4814,2236.4998,,,,0,37,37,37,1,75,155,,,,,,,,
,,5f8038ceefbc9f02632dce3c,65af5689a4d6aa58b7daa711,2024-01-23_08h16.43.553,bars,2023.2.3,Win32,40.98360656,657b66ea316d21385b68909f,,,,,,,,,,,2236.5,2237.5056,,,2237.9929,2238.2298,,32,32,,,,,,,,,,,,,,,,bars/012.png,bars/mask001.png,,,,,,,,,,,,4,2,,,,,,,8,10,7,10,,,,,,,,,,,2237.5057,2237.9929,2238.23,2241.0605,space,2.8058,,2241.0606,58,17,2242.0593,2242.0593,2242.0744,,,,0,38,38,38,1,90,15,,,,,,,,
,,5f8038ceefbc9f02632dce3c,65af5689a4d6aa58b7daa711,2024-01-23_08h16.43.553,bars,2023.2.3,Win32,40.98360656,657b66ea316d21385b68909f,,,,,,,,,,,2242.0746,2243.0585,,,2243.5458,2243.7975,,28,28,,,,,,,,,,,,,,,,bars/041.png,bars/mask000.png,,,,,,,,,,,,4,1,,,,,,,6,10,5,10,,,,,,,,,,,2243.0585,2243.5458,2243.7975,2245.0875,space,1.2768,,2245.0876,8,57,2246.0828,2246.0828,2246.0853,,,,0,39,39,39,1,20,85,,,,,,,,
,,5f8038ceefbc9f02632dce3c,65af5689a4d6aa58b7daa711,2024-01-23_08h16.43.553,bars,2023.2.3,Win32,40.98360656,657b66ea316d21385b68909f,,,,,,,,,,,2246.0857,2247.0863,,,2247.5684,2247.812,,27,207,,,,,,,,,,,,,,,,bars/036.png,bars/mask000.png,,,,,,,,,,,,8,2,,,,,,,4,10,2,10,,,,,,,,,,,2247.0863,2247.5683,2247.8121,2250.3762,space,2.5397,,2250.3762,62,7,2251.3748,2251.3748,2251.3943,,,,0,40,40,40,1,145,20,,,,,,,,
,,5f8038ceefbc9f02632dce3c,65af5689a4d6aa58b7daa711,2024-01-23_08h16.43.553,bars,2023.2.3,Win32,40.98360656,657b66ea316d21385b68909f,,,,,,,,,,,2251.3947,2252.3964,,,2252.8855,2253.131,,46,46,,,,,,,,,,,,,,,,bars/016.png,bars/mask006.png,,,,,,,,,,,,4,1,,,,,,,6,10,5,10,,,,,,,,,,,2252.3965,2252.8854,2253.131,2254.569,space,1.4233,,2254.5691,6,61,2255.57,2255.5701,2255.589,,,,0,41,41,41,1,40,165,,,,,,,,
,,5f8038ceefbc9f02632dce3c,65af5689a4d6aa58b7daa711,2024-01-23_08h16.43.553,bars,2023.2.3,Win32,40.98360656,657b66ea316d21385b68909f,,,,,,,,,,,2255.5894,2256.5918,,,2257.0787,2257.3218,,55,55,,,,,,,,,,,,,,,,bars/048.png,bars/mask000.png,,,,,,,,,,,,3,1,,,,,,,4,10,4,10,,,,,,,,,,,2256.5918,2257.0787,2257.3218,2261.127,space,3.7862,,2261.1271,5,60,2262.1255,2262.1256,2262.1348,,,,0,42,42,42,1,50,175,,,,,,,,
,,5f8038ceefbc9f02632dce3c,65af5689a4d6aa58b7daa711,2024-01-23_08h16.43.553,bars,2023.2.3,Win32,40.98360656,657b66ea316d21385b68909f,,,,,,,,,,,2262.135,2263.1258,,,2263.6154,2263.8602,,42,222,,,,,,,,,,,,,,,,bars/035.png,bars/mask000.png,,,,,,,,,,,,4,2,,,,,,,2,10,1,9,,,,,,,,,,,2263.1259,2263.6154,2263.8603,2266.9922,space,3.125,,2266.9922,47,18,2267.9849,2267.9849,2268.0027,,,,0,43,43,43,1,175,60,,,,,,,,
,,5f8038ceefbc9f02632dce3c,65af5689a4d6aa58b7daa711,2024-01-23_08h16.43.553,bars,2023.2.3,Win32,40.98360656,657b66ea316d21385b68909f,,,,,,,,,,,2268.003,2269.0084,,,2269.4974,2269.7393,,128,128,,,,,,,,,,,,,,,,bars/004.png,bars/mask005.png,,,,,,,,,,,,5,2,,,,,,,0,8,0,6,,,,,,,,,,,2269.0085,2269.4974,2269.7394,2271.5971,space,1.8513,,2271.5971,77,3,2272.5972,2272.5973,2272.5982,,,,0,44,44,44,1,25,125,,,,,,,,
,,5f8038ceefbc9f02632dce3c,65af5689a4d6aa58b7daa711,2024-01-23_08h16.43.553,bars,2023.2.3,Win32,40.98360656,657b66ea316d21385b68909f,,,,,,,,,,,2272.5986,2273.5953,,,2274.0821,2274.3172,,110,110,,,,,,,,,,,,,,,,bars/032.png,bars/mask005.png,,,,,,,,,,,,1,1,,,,,,,0,10,1,10,,,,,,,,,,,2273.5954,2274.082,2274.3173,2275.8028,space,1.4684,,2275.8029,15,90,2276.8011,2276.8011,2276.8032,,,,0,45,45,45,1,125,20,,,,,,,,
,,5f8038ceefbc9f02632dce3c,65af5689a4d6aa58b7daa711,2024-01-23_08h16.43.553,bars,2023.2.3,Win32,40.98360656,657b66ea316d21385b68909f,,,,,,,,,,,2276.8036,2277.8005,,,2278.2854,2278.527,,59,59,,,,,,,,,,,,,,,,bars/004.png,bars/mask005.png,,,,,,,,,,,,0,1,,,,,,,2,10,2,10,,,,,,,,,,,2277.8006,2278.2853,2278.5271,2280.4399,space,1.9026,,2280.4399,34,66,2281.4278,2281.4278,2281.4427,,,,0,46,46,46,1,25,125,,,,,,,,
,,5f8038ceefbc9f02632dce3c,65af5689a4d6aa58b7daa711,2024-01-23_08h16.43.553,bars,2023.2.3,Win32,40.98360656,657b66ea316d21385b68909f,,,,,,,,,,,2281.443,2282.4405,,,2282.9265,2283.1702,,20,200,,,,,,,,,,,,,,,,bars/027.png,bars/mask002.png,,,,,,,,,,,,0,2,,,,,,,0,10,1,10,,,,,,,,,,,2282.4405,2282.9263,2283.1703,2287.0058,space,3.8239,,2287.0059,90,30,2287.9987,2287.9989,2288.0166,,,,0,47,47,47,1,110,50,,,,,,,,
,,5f8038ceefbc9f02632dce3c,65af5689a4d6aa58b7daa711,2024-01-23_08h16.43.553,bars,2023.2.3,Win32,40.98360656,657b66ea316d21385b68909f,,,,,,,,,,,2288.0169,2289.0219,,,2289.5095,2289.7531,,26,26,,,,,,,,,,,,,,,,bars/044.png,bars/mask003.png,,,,,,,,,,,,0,1,,,,,,,2,10,2,10,,,,,,,,,,,2289.022,2289.5095,2289.7531,2291.5379,space,1.769,,2291.5379,49,51,2292.5395,2292.5395,2292.5421,,,,0,48,48,48,1,75,155,,,,,,,,
,,5f8038ceefbc9f02632dce3c,65af5689a4d6aa58b7daa711,2024-01-23_08h16.43.553,bars,2023.2.3,Win32,40.98360656,657b66ea316d21385b68909f,,,,,,,,,,,2292.5423,2293.542,,,2294.0288,2294.2734,,173,173,,,,,,,,,,,,,,,,bars/045.png,bars/mask008.png,,,,,,,,,,,,3,2,,,,,,,0,10,0,8,,,,,,,,,,,2293.542,2294.0287,2294.2735,2295.4955,space,1.2127,,2295.4955,73,17,2296.4901,2296.4901,2296.4928,,,,0,49,49,49,1,100,10,,,,,,,,
,,5f8038ceefbc9f02632dce3c,65af5689a4d6aa58b7daa711,2024-01-23_08h16.43.553,bars,2023.2.3,Win32,40.98360656,657b66ea316d21385b68909f,,,,,,,,,,,,,,,,,,,,,,,,,,,,,,,,,,,,,,,,,,,,,,,,,,,,,,,,,,,,,,,,,,,,,,,,,,,,,,,,,,,,,,,,,,,,,2296.4929,2356.4955,0,2,2,1,1,sequence_tables/blk031.csv
,,5f8038ceefbc9f02632dce3c,65af5689a4d6aa58b7daa711,2024-01-23_08h16.43.553,bars,2023.2.3,Win32,40.98360656,657b66ea316d21385b68909f,,,,,,,,,,,2408.3732,2409.3533,,,2409.8429,2410.0877,,66,66,,,,,,,,,,,,,,,,bars/034.png,bars/mask002.png,,,,,,,,,,,,3,2,,,,,,,7,2,8,3,,,,,,2356.5062,2408.3307,space,51.8189,,2409.3534,2409.8429,2410.0878,2411.6005,space,1.4923,,2411.6006,59,1,2412.6041,2412.6041,2412.6207,,,,0,0,0,0,1,125,65,,,,,,,,
,,5f8038ceefbc9f02632dce3c,65af5689a4d6aa58b7daa711,2024-01-23_08h16.43.553,bars,2023.2.3,Win32,40.98360656,657b66ea316d21385b68909f,,,,,,,,,,,2412.6211,2413.625,,,2414.1123,2414.3555,,20,200,,,,,,,,,,,,,,,,bars/033.png,bars/mask008.png,,,,,,,,,,,,7,1,,,,,,,9,4,8,5,,,,,,,,,,,2413.6251,2414.1123,2414.3555,2416.5688,space,2.1992,,2416.5689,5,45,2417.5539,2417.554,2417.568,,,,0,1,1,1,1,25,155,,,,,,,,
,,5f8038ceefbc9f02632dce3c,65af5689a4d6aa58b7daa711,2024-01-23_08h16.43.553,bars,2023.2.3,Win32,40.98360656,657b66ea316d21385b68909f,,,,,,,,,,,2417.5681,2418.554,,,2419.043,2419.2867,,27,27,,,,,,,,,,,,,,,,bars/032.png,bars/mask009.png,,,,,,,,,,,,5,2,,,,,,,7,6,6,6,,,,,,,,,,,2418.554,2419.043,2419.2867,2422.2589,space,2.9639,,2422.259,82,7,2423.2437,2423.2437,2423.2616,,,,0,2,2,2,1,125,20,,,,,,,,
,,5f8038ceefbc9f02632dce3c,65af5689a4d6aa58b7daa711,2024-01-23_08h16.43.553,bars,2023.2.3,Win32,40.98360656,657b66ea316d21385b68909f,,,,,,,,,,,2423.2619,2424.2443,,,2424.7311,2424.9759,,156,-24,,,,,,,,,,,,,,,,bars/030.png,bars/mask004.png,,,,,,,,,,,,3,1,,,,,,,5,8,6,9,,,,,,,,,,,2424.2445,2424.7311,2424.976,2428.458,space,3.4581,,2428.458,16,89,2429.4575,2429.4575,2429.4737,,,,0,3,3,3,1,140,65,,,,,,,,
,,5f8038ceefbc9f02632dce3c,65af5689a4d6aa58b7daa711,2024-01-23_08h16.43.553,bars,2023.2.3,Win32,40.98360656,657b66ea316d21385b68909f,,,,,,,,,,,2429.4741,2430.4793,,,2430.9669,2431.2113,,164,164,,,,,,,,,,,,,,,,bars/012.png,bars/mask003.png,,,,,,,,,,,,0,2,,,,,,,3,6,2,6,,,,,,,,,,,2430.4795,2430.9668,2431.2113,2433.4682,space,2.2474,,2433.4682,74,31,2434.4674,2434.4675,2434.4836,,,,0,4,4,4,1,90,15,,,,,,,,
,,5f8038ceefbc9f02632dce3c,65af5689a4d6aa58b7daa711,2024-01-23_08h16.43.553,bars,2023.2.3,Win32,40.98360656,657b66ea316d21385b68909f,,,,,,,,,,,2434.4839,2435.4796,,,2435.967,2436.2101,,121,121,,,,,,,,,,,,,,,,bars/015.png,bars/mask007.png,,,,,,,,,,,,3,1,,,,,,,5,4,4,5,,,,,,,,,,,2435.4796,2435.967,2436.2102,2437.8914,space,1.6585,,2437.8915,11,39,2438.8898,2438.8899,2438.9076,,,,0,5,5,5,1,110,160,,,,,,,,
,,5f8038ceefbc9f02632dce3c,65af5689a4d6aa58b7daa711,2024-01-23_08h16.43.553,bars,2023.2.3,Win32,40.98360656,657b66ea316d21385b68909f,,,,,,,,,,,2438.9079,2439.9036,,,2440.392,2440.6351,,40,220,,,,,,,,,,,,,,,,bars/012.png,bars/mask003.png,,,,,,,,,,,,0,2,,,,,,,3,2,3,3,,,,,,,,,,,2439.9037,2440.392,2440.6351,2444.9224,space,4.276,,2444.9225,50,25,2445.915,2445.915,2445.931,,,,0,6,6,6,1,90,15,,,,,,,,
,,5f8038ceefbc9f02632dce3c,65af5689a4d6aa58b7daa711,2024-01-23_08h16.43.553,bars,2023.2.3,Win32,40.98360656,657b66ea316d21385b68909f,,,,,,,,,,,2445.9316,2446.9358,,,2447.4387,2447.6845,,69,69,,,,,,,,,,,,,,,,bars/014.png,bars/mask006.png,,,,,,,,,,,,1,1,,,,,,,1,4,2,3,,,,,,,,,,,2446.9359,2447.4387,2447.6845,2449.3373,space,1.6464,,2449.3374,11,69,2450.3387,2450.3388,2450.3413,,,,0,7,7,7,1,80,0,,,,,,,,
,,5f8038ceefbc9f02632dce3c,65af5689a4d6aa58b7daa711,2024-01-23_08h16.43.553,bars,2023.2.3,Win32,40.98360656,657b66ea316d21385b68909f,,,,,,,,,,,2450.3417,2451.3421,,,2451.8303,2452.0746,,145,145,,,,,,,,,,,,,,,,bars/035.png,bars/mask000.png,,,,,,,,,,,,0,1,,,,,,,0,2,0,3,,,,,,,,,,,2451.3422,2451.8303,2452.0747,2454.0054,space,1.9137,,2454.0055,30,85,2455.0081,2455.0082,2455.023,,,,0,8,8,8,1,175,60,,,,,,,,
,,5f8038ceefbc9f02632dce3c,65af5689a4d6aa58b7daa711,2024-01-23_08h16.43.553,bars,2023.2.3,Win32,40.98360656,657b66ea316d21385b68909f,,,,,,,,,,,2455.0233,2456.0264,,,2456.5159,2456.7591,,76,76,,,,,,,,,,,,,,,,bars/021.png,bars/mask000.png,,,,,,,,,,,,4,2,,,,,,,0,4,0,5,,,,,,,,,,,2456.0264,2456.5159,2456.7591,2459.6851,space,2.9031,,2459.6852,79,6,2460.6886,2460.6886,2460.7033,,,,0,9,9,9,1,155,70,,,,,,,,
,,5f8038ceefbc9f02632dce3c,65af5689a4d6aa58b7daa711,2024-01-23_08h16.43.553,bars,2023.2.3,Win32,40.98360656,657b66ea316d21385b68909f,,,,,,,,,,,2460.7037,2461.6884,,,2462.1761,2462.4216,,165,-15,,,,,,,,,,,,,,,,bars/001.png,bars/mask001.png,,,,,,,,,,,,0,1,,,,,,,0,6,0,6,,,,,,,,,,,2461.6885,2462.1761,2462.4216,2465.0163,space,2.577,,2465.0163,35,80,2466.0193,2466.0194,2466.0381,,,,0,10,10,10,1,130,85,,,,,,,,
,,5f8038ceefbc9f02632dce3c,65af5689a4d6aa58b7daa711,2024-01-23_08h16.43.553,bars,2023.2.3,Win32,40.98360656,657b66ea316d21385b68909f,,,,,,,,,,,2466.0384,2467.036,,,2467.526,2467.7695,,100,100,,,,,,,,,,,,,,,,bars/018.png,bars/mask006.png,,,,,,,,,,,,5,2,,,,,,,2,8,2,8,,,,,,,,,,,2467.0361,2467.526,2467.7695,2469.356,space,1.5776,,2469.356,50,10,2470.3597,2470.3598,2470.3624,,,,0,11,11,11,1,150,90,,,,,,,,
,,5f8038ceefbc9f02632dce3c,65af5689a4d6aa58b7daa711,2024-01-23_08h16.43.553,bars,2023.2.3,Win32,40.98360656,657b66ea316d21385b68909f,,,,,,,,,,,2470.3628,2471.3618,,,2471.85,2472.0947,,77,77,,,,,,,,,,,,,,,,bars/033.png,bars/mask003.png,,,,,,,,,,,,0,1,,,,,,,4,6,5,6,,,,,,,,,,,2471.3619,2471.85,2472.0947,2473.9978,space,1.8799,,2473.998,52,78,2474.9965,2474.9965,2475.0089,,,,0,12,12,12,1,25,155,,,,,,,,
,,5f8038ceefbc9f02632dce3c,65af5689a4d6aa58b7daa711,2024-01-23_08h16.43.553,bars,2023.2.3,Win32,40.98360656,657b66ea316d21385b68909f,,,,,,,,,,,2475.009,2475.9998,,,2476.4857,2476.7285,,7,7,,,,,,,,,,,,,,,,bars/015.png,bars/mask009.png,,,,,,,,,,,,1,2,,,,,,,2,8,1,8,,,,,,,,,,,2475.9999,2476.4856,2476.7285,2478.6288,space,1.8756,,2478.6289,77,27,2479.6263,2479.6264,2479.6298,,,,0,13,13,13,1,110,160,,,,,,,,
,,5f8038ceefbc9f02632dce3c,65af5689a4d6aa58b7daa711,2024-01-23_08h16.43.553,bars,2023.2.3,Win32,40.98360656,657b66ea316d21385b68909f,,,,,,,,,,,2479.6303,2480.6278,,,2481.1174,2481.3531,,23,203,,,,,,,,,,,,,,,,bars/006.png,bars/mask005.png,,,,,,,,,,,,2,1,,,,,,,4,10,3,10,,,,,,,,,,,2480.6279,2481.1172,2481.3532,2484.3791,space,3.0045,,2484.3791,12,77,2485.3816,2485.3816,2485.398,,,,0,14,14,14,1,35,100,,,,,,,,
,,5f8038ceefbc9f02632dce3c,65af5689a4d6aa58b7daa711,2024-01-23_08h16.43.553,bars,2023.2.3,Win32,40.98360656,657b66ea316d21385b68909f,,,,,,,,,,,2485.3983,2486.3971,,,2486.8875,2487.1307,,151,151,,,,,,,,,,,,,,,,bars/024.png,bars/mask009.png,,,,,,,,,,,,3,2,,,,,,,2,10,3,9,,,,,,,,,,,2486.3971,2486.8875,2487.1307,2490.3001,space,3.1466,,2490.3002,31,19,2491.2932,2491.2932,2491.308,,,,0,15,15,15,1,120,170,,,,,,,,
,,5f8038ceefbc9f02632dce3c,65af5689a4d6aa58b7daa711,2024-01-23_08h16.43.553,bars,2023.2.3,Win32,40.98360656,657b66ea316d21385b68909f,,,,,,,,,,,2491.3082,2492.2946,,,2492.7813,2493.0248,,60,60,,,,,,,,,,,,,,,,bars/026.png,bars/mask002.png,,,,,,,,,,,,1,2,,,,,,,0,10,0,8,,,,,,,,,,,2492.2947,2492.7813,2493.0249,2495.4813,space,2.4385,,2495.4813,25,25,2496.4746,2496.4747,2496.4757,,,,0,16,16,16,1,35,85,,,,,,,,
,,5f8038ceefbc9f02632dce3c,65af5689a4d6aa58b7daa711,2024-01-23_08h16.43.553,bars,2023.2.3,Win32,40.98360656,657b66ea316d21385b68909f,,,,,,,,,,,2496.4761,2497.4751,,,2497.9635,2498.2062,,151,-29,,,,,,,,,,,,,,,,bars/040.png,bars/mask004.png,,,,,,,,,,,,1,1,,,,,,,2,8,2,10,,,,,,,,,,,2497.4751,2497.9634,2498.2063,2501.4102,space,3.1793,,2501.4103,11,34,2502.413,2502.4132,2502.4316,,,,0,17,17,17,1,140,5,,,,,,,,
,,5f8038ceefbc9f02632dce3c,65af5689a4d6aa58b7daa711,2024-01-23_08h16.43.553,bars,2023.2.3,Win32,40.98360656,657b66ea316d21385b68909f,,,,,,,,,,,2502.4319,2503.4164,,,2503.905,2504.1495,,140,140,,,,,,,,,,,,,,,,bars/016.png,bars/mask004.png,,,,,,,,,,,,2,2,,,,,,,4,10,5,10,,,,,,,,,,,2503.4165,2503.905,2504.1496,2506.6904,space,2.527,,2506.6904,80,25,2507.6939,2507.694,2507.7077,,,,0,18,18,18,1,40,165,,,,,,,,
,,5f8038ceefbc9f02632dce3c,65af5689a4d6aa58b7daa711,2024-01-23_08h16.43.553,bars,2023.2.3,Win32,40.98360656,657b66ea316d21385b68909f,,,,,,,,,,,2507.7079,2508.6906,,,2509.1796,2509.4229,,142,-38,,,,,,,,,,,,,,,,bars/011.png,bars/mask009.png,,,,,,,,,,,,2,1,,,,,,,6,10,5,10,,,,,,,,,,,2508.6907,2509.1796,2509.4229,2512.4366,space,2.9979,,2512.4367,18,57,2513.4392,2513.4392,2513.457,,,,0,19,19,19,1,160,85,,,,,,,,
,,5f8038ceefbc9f02632dce3c,65af5689a4d6aa58b7daa711,2024-01-23_08h16.43.553,bars,2023.2.3,Win32,40.98360656,657b66ea316d21385b68909f,,,,,,,,,,,2513.4574,2514.4649,,,2514.95,2515.1947,,13,193,,,,,,,,,,,,,,,,bars/009.png,bars/mask002.png,,,,,,,,,,,,8,1,,,,,,,8,10,9,10,,,,,,,,,,,2514.4649,2514.9499,2515.1947,2518.9919,space,3.7794,,2518.992,2,88,2519.9921,2519.9921,2520.0077,,,,0,20,20,20,1,15,105,,,,,,,,
,,5f8038ceefbc9f02632dce3c,65af5689a4d6aa58b7daa711,2024-01-23_08h16.43.553,bars,2023.2.3,Win32,40.98360656,657b66ea316d21385b68909f,,,,,,,,,,,2520.0081,2521.0091,,,2521.4961,2521.7388,,163,163,,,,,,,,,,,,,,,,bars/040.png,bars/mask002.png,,,,,,,,,,,,3,2,,,,,,,6,8,6,10,,,,,,,,,,,2521.0092,2521.496,2521.7388,2526.0643,space,4.3022,,2526.0644,23,22,2527.0653,2527.0653,2527.0824,,,,0,21,21,21,1,140,5,,,,,,,,
,,5f8038ceefbc9f02632dce3c,65af5689a4d6aa58b7daa711,2024-01-23_08h16.43.553,bars,2023.2.3,Win32,40.98360656,657b66ea316d21385b68909f,,,,,,,,,,,2527.0828,2528.0799,,,2528.5683,2528.8105,,38,38,,,,,,,,,,,,,,,,bars/011.png,bars/mask001.png,,,,,,,,,,,,0,2,,,,,,,4,6,6,5,,,,,,,,,,,2528.08,2528.5683,2528.8106,2530.614,space,1.7924,,2530.614,58,47,2531.6234,2531.6235,2531.6244,,,,0,22,22,22,1,160,85,,,,,,,,
,,5f8038ceefbc9f02632dce3c,65af5689a4d6aa58b7daa711,2024-01-23_08h16.43.553,bars,2023.2.3,Win32,40.98360656,657b66ea316d21385b68909f,,,,,,,,,,,2531.6247,2532.6161,,,2533.1022,2533.3463,,154,154,,,,,,,,,,,,,,,,bars/040.png,bars/mask008.png,,,,,,,,,,,,1,1,,,,,,,2,8,2,8,,,,,,,,,,,2532.6161,2533.1021,2533.3463,2536.9671,space,3.6072,,2536.9672,14,31,2537.96,2537.96,2537.9754,,,,0,23,23,23,1,140,5,,,,,,,,
,,5f8038ceefbc9f02632dce3c,65af5689a4d6aa58b7daa711,2024-01-23_08h16.43.553,bars,2023.2.3,Win32,40.98360656,657b66ea316d21385b68909f,,,,,,,,,,,2537.9756,2538.9687,,,2539.4586,2539.7026,,110,110,,,,,,,,,,,,,,,,bars/039.png,bars/mask008.png,,,,,,,,,,,,8,2,,,,,,,4,10,4,10,,,,,,,,,,,2538.9687,2539.4585,2539.7026,2542.3934,space,2.6675,,2542.3934,65,5,2543.3932,2543.3933,2543.4103,,,,0,24,24,24,1,175,105,,,,,,,,
,,5f8038ceefbc9f02632dce3c,65af5689a4d6aa58b7daa711,2024-01-23_08h16.43.553,bars,2023.2.3,Win32,40.98360656,657b66ea316d21385b68909f,,,,,,,,,,,2543.4106,2544.3961,,,2544.8851,2545.1284,,15,15,,,,,,,,,,,,,,,,bars/035.png,bars/mask003.png,,,,,,,,,,,,1,1,,,,,,,2,8,3,7,,,,,,,,,,,2544.3961,2544.8851,2545.1284,2547.47,space,2.3272,,2547.4701,20,45,2548.4719,2548.4719,2548.4745,,,,0,25,25,25,1,175,60,,,,,,,,
,,5f8038ceefbc9f02632dce3c,65af5689a4d6aa58b7daa711,2024-01-23_08h16.43.553,bars,2023.2.3,Win32,40.98360656,657b66ea316d21385b68909f,,,,,,,,,,,2548.475,2549.4754,,,2549.9637,2550.2078,,122,122,,,,,,,,,,,,,,,,bars/026.png,bars/mask000.png,,,,,,,,,,,,0,2,,,,,,,0,10,0,10,,,,,,,,,,,2549.4755,2549.9636,2550.2078,2552.4056,space,2.1801,,2552.4057,87,37,2553.408,2553.408,2553.4252,,,,0,26,26,26,1,35,85,,,,,,,,
,,5f8038ceefbc9f02632dce3c,65af5689a4d6aa58b7daa711,2024-01-23_08h16.43.553,bars,2023.2.3,Win32,40.98360656,657b66ea316d21385b68909f,,,,,,,,,,,2553.4254,2554.4078,,,2554.8967,2555.1415,,123,123,,,,,,,,,,,,,,,,bars/020.png,bars/mask007.png,,,,,,,,,,,,1,1,,,,,,,2,10,2,10,,,,,,,,,,,2554.4078,2554.8967,2555.1415,2556.6977,space,1.5343,,2556.6978,8,47,2557.6995,2557.6996,2557.702,,,,0,27,27,27,1,115,170,,,,,,,,
,,5f8038ceefbc9f02632dce3c,65af5689a4d6aa58b7daa711,2024-01-23_08h16.43.553,bars,2023.2.3,Win32,40.98360656,657b66ea316d21385b68909f,,,,,,,,,,,2557.7024,2558.6942,,,2559.1821,2559.428,,162,-18,,,,,,,,,,,,,,,,bars/009.png,bars/mask009.png,,,,,,,,,,,,0,1,,,,,,,0,10,1,10,,,,,,,,,,,2558.6942,2559.1821,2559.4281,2561.9854,space,2.5409,,2561.9854,33,57,2562.9798,2562.9798,2562.9939,,,,0,28,28,28,1,15,105,,,,,,,,
,,5f8038ceefbc9f02632dce3c,65af5689a4d6aa58b7daa711,2024-01-23_08h16.43.553,bars,2023.2.3,Win32,40.98360656,657b66ea316d21385b68909f,,,,,,,,,,,2562.9942,2563.9816,,,2564.4698,2564.7151,,21,201,,,,,,,,,,,,,,,,bars/026.png,bars/mask002.png,,,,,,,,,,,,1,1,,,,,,,0,8,2,8,,,,,,,,,,,2563.9817,2564.4698,2564.7151,2568.907,space,4.182,,2568.9071,14,64,2569.9095,2569.9096,2569.9298,,,,0,29,29,29,1,35,85,,,,,,,,
,,5f8038ceefbc9f02632dce3c,65af5689a4d6aa58b7daa711,2024-01-23_08h16.43.553,bars,2023.2.3,Win32,40.98360656,657b66ea316d21385b68909f,,,,,,,,,,,2569.9301,2570.9362,,,2571.4239,2571.6675,,154,154,,,,,,,,,,,,,,,,bars/042.png,bars/mask000.png,,,,,,,,,,,,0,1,,,,,,,0,10,0,10,,,,,,,,,,,2570.9362,2571.4239,2571.6675,2572.8162,space,1.1301,,2572.8163,9,79,2573.8081,2573.8082,2573.8096,,,,0,30,30,30,1,145,75,,,,,,,,
,,5f8038ceefbc9f02632dce3c,65af5689a4d6aa58b7daa711,2024-01-23_08h16.43.553,bars,2023.2.3,Win32,40.98360656,657b66ea316d21385b68909f,,,,,,,,,,,2573.8101,2574.8118,,,2575.3081,2575.5523,,107,107,,,,,,,,,,,,,,,,bars/029.png,bars/mask006.png,,,,,,,,,,,,0,1,,,,,,,0,10,0,9,,,,,,,,,,,2574.8118,2575.308,2575.5523,2577.1921,space,1.6328,,2577.1921,17,62,2578.1968,2578.1969,2578.1977,,,,0,31,31,31,1,90,45,,,,,,,,
,,5f8038ceefbc9f02632dce3c,65af5689a4d6aa58b7daa711,2024-01-23_08h16.43.553,bars,2023.2.3,Win32,40.98360656,657b66ea316d21385b68909f,,,,,,,,,,,2578.1982,2579.1993,,,2579.6877,2579.9327,,67,67,,,,,,,,,,,,,,,,bars/031.png,bars/mask001.png,,,,,,,,,,,,0,2,,,,,,,0,8,0,8,,,,,,,,,,,2579.1994,2579.6876,2579.9328,2581.8205,space,1.864,,2581.8205,53,32,2582.8253,2582.8254,2582.8415,,,,0,32,32,32,1,120,35,,,,,,,,
,,5f8038ceefbc9f02632dce3c,65af5689a4d6aa58b7daa711,2024-01-23_08h16.43.553,bars,2023.2.3,Win32,40.98360656,657b66ea316d21385b68909f,,,,,,,,,,,2582.8418,2583.8237,,,2584.306,2584.5499,,114,114,,,,,,,,,,,,,,,,bars/030.png,bars/mask004.png,,,,,,,,,,,,0,1,,,,,,,0,6,0,6,,,,,,,,,,,2583.8237,2584.3059,2584.55,2585.9995,space,1.4247,,2585.9995,26,49,2586.9978,2586.9979,2587.0159,,,,0,33,33,33,1,140,65,,,,,,,,
,,5f8038ceefbc9f02632dce3c,65af5689a4d6aa58b7daa711,2024-01-23_08h16.43.553,bars,2023.2.3,Win32,40.98360656,657b66ea316d21385b68909f,,,,,,,,,,,2587.0162,2588.0001,,,2588.4858,2588.7297,,44,224,,,,,,,,,,,,,,,,bars/047.png,bars/mask002.png,,,,,,,,,,,,0,2,,,,,,,0,4,0,3,,,,,,,,,,,2588.0002,2588.4857,2588.7297,2591.9107,space,3.1712,,2591.9108,29,26,2592.9139,2592.914,2592.9296,,,,0,34,34,34,1,15,70,,,,,,,,
,,5f8038ceefbc9f02632dce3c,65af5689a4d6aa58b7daa711,2024-01-23_08h16.43.553,bars,2023.2.3,Win32,40.98360656,657b66ea316d21385b68909f,,,,,,,,,,,2592.9299,2593.9362,,,2594.423,2594.6668,,147,147,,,,,,,,,,,,,,,,bars/007.png,bars/mask002.png,,,,,,,,,,,,0,1,,,,,,,2,2,4,1,,,,,,,,,,,2593.9362,2594.4229,2594.6669,2596.0522,space,1.3751,,2596.0522,28,88,2597.0521,2597.0521,2597.0679,,,,0,35,35,35,1,175,55,,,,,,,,
,,5f8038ceefbc9f02632dce3c,65af5689a4d6aa58b7daa711,2024-01-23_08h16.43.553,bars,2023.2.3,Win32,40.98360656,657b66ea316d21385b68909f,,,,,,,,,,,2597.0682,2598.0717,,,2598.5608,2598.8053,,63,63,,,,,,,,,,,,,,,,bars/025.png,bars/mask001.png,,,,,,,,,,,,0,2,,,,,,,0,0,2,0,,,,,,,,,,,2598.0718,2598.5608,2598.8053,2601.1788,space,2.3631,,2601.1789,42,23,2602.1791,2602.1792,2602.1968,,,,0,36,36,36,1,105,40,,,,,,,,
,,5f8038ceefbc9f02632dce3c,65af5689a4d6aa58b7daa711,2024-01-23_08h16.43.553,bars,2023.2.3,Win32,40.98360656,657b66ea316d21385b68909f,,,,,,,,,,,2602.1971,2603.1811,,,2603.6701,2603.9148,,48,48,,,,,,,,,,,,,,,,bars/026.png,bars/mask000.png,,,,,,,,,,,,0,1,,,,,,,0,2,0,1,,,,,,,,,,,2603.1811,2603.6701,2603.9148,2604.8163,space,0.8828,0.0065,2604.8163,13,37,2605.8155,2605.8155,2605.8179,,,,0,37,37,37,1,35,85,,,,,,,,
,,5f8038ceefbc9f02632dce3c,65af5689a4d6aa58b7daa711,2024-01-23_08h16.43.553,bars,2023.2.3,Win32,40.98360656,657b66ea316d21385b68909f,,,,,,,,,,,2605.8182,2606.8142,,,2607.3053,2607.5474,,10,190,,,,,,,,,,,,,,,,bars/041.png,bars/mask009.png,,,,,,,,,,,,2,1,,,,,,,2,4,3,2,,,,,,,,,,,2606.8142,2607.3052,2607.5474,2611.0911,space,3.5184,,2611.0911,10,75,2612.0919,2612.092,2612.1082,,,,0,38,38,38,1,20,85,,,,,,,,
,,5f8038ceefbc9f02632dce3c,65af5689a4d6aa58b7daa711,2024-01-23_08h16.43.553,bars,2023.2.3,Win32,40.98360656,657b66ea316d21385b68909f,,,,,,,,,,,2612.1085,2613.0911,,,2613.5778,2613.8216,,114,114,,,,,,,,,,,,,,,,bars/037.png,bars/mask000.png,,,,,,,,,,,,1,2,,,,,,,4,2,3,1,,,,,,,,,,,2613.0911,2613.5778,2613.8216,2616.6823,space,2.8555,,2616.6823,36,9,2617.6811,2617.6811,2617.6963,,,,0,39,39,39,1,150,105,,,,,,,,
,,5f8038ceefbc9f02632dce3c,65af5689a4d6aa58b7daa711,2024-01-23_08h16.43.553,bars,2023.2.3,Win32,40.98360656,657b66ea316d21385b68909f,,,,,,,,,,,2617.6966,2618.6962,,,2619.1849,2619.428,,36,36,,,,,,,,,,,,,,,,bars/005.png,bars/mask004.png,,,,,,,,,,,,1,1,,,,,,,6,0,5,0,,,,,,,,,,,2618.6963,2619.1849,2619.428,2621.3292,space,1.8951,,2621.3292,26,76,2622.3312,2622.3312,2622.3337,,,,0,40,40,40,1,10,140,,,,,,,,
,,5f8038ceefbc9f02632dce3c,65af5689a4d6aa58b7daa711,2024-01-23_08h16.43.553,bars,2023.2.3,Win32,40.98360656,657b66ea316d21385b68909f,,,,,,,,,,,2622.334,2623.3298,,,2623.8188,2624.0645,,7,7,,,,,,,,,,,,,,,,bars/040.png,bars/mask009.png,,,,,,,,,,,,3,2,,,,,,,8,2,10,3,,,,,,,,,,,2623.3298,2623.8187,2624.0645,2625.5026,space,1.4203,,2625.5027,47,2,2626.5029,2626.503,2626.5057,,,,0,41,41,41,1,140,5,,,,,,,,
,,5f8038ceefbc9f02632dce3c,65af5689a4d6aa58b7daa711,2024-01-23_08h16.43.553,bars,2023.2.3,Win32,40.98360656,657b66ea316d21385b68909f,,,,,,,,,,,2626.5061,2627.5022,,,2627.9885,2628.2335,,121,121,,,,,,,,,,,,,,,,bars/045.png,bars/mask005.png,,,,,,,,,,,,2,1,,,,,,,6,4,7,4,,,,,,,,,,,2627.5022,2627.9884,2628.2335,2630.4074,space,2.1654,,2630.4075,21,69,2631.4073,2631.4074,2631.4196,,,,0,42,42,42,1,100,10,,,,,,,,
,,5f8038ceefbc9f02632dce3c,65af5689a4d6aa58b7daa711,2024-01-23_08h16.43.553,bars,2023.2.3,Win32,40.98360656,657b66ea316d21385b68909f,,,,,,,,,,,2631.4199,2632.406,,,2632.8923,2633.1366,,103,103,,,,,,,,,,,,,,,,bars/028.png,bars/mask008.png,,,,,,,,,,,,3,2,,,,,,,4,6,4,6,,,,,,,,,,,2632.4061,2632.8923,2633.1367,2634.6213,space,1.4595,,2634.6214,58,17,2635.622,2635.6221,2635.6243,,,,0,43,43,43,1,45,120,,,,,,,,
,,5f8038ceefbc9f02632dce3c,65af5689a4d6aa58b7daa711,2024-01-23_08h16.43.553,bars,2023.2.3,Win32,40.98360656,657b66ea316d21385b68909f,,,,,,,,,,,2635.6247,2636.623,,,2637.1291,2637.371,,23,203,,,,,,,,,,,,,,,,bars/023.png,bars/mask002.png,,,,,,,,,,,,5,1,,,,,,,6,8,5,9,,,,,,,,,,,2636.623,2637.129,2637.371,2641.9014,space,4.5084,,2641.9014,3,88,2642.898,2642.8981,2642.9134,,,,0,44,44,44,1,20,115,,,,,,,,
,,5f8038ceefbc9f02632dce3c,65af5689a4d6aa58b7daa711,2024-01-23_08h16.43.553,bars,2023.2.3,Win32,40.98360656,657b66ea316d21385b68909f,,,,,,,,,,,2642.9138,2643.9001,,,2644.3891,2644.6325,,11,191,,,,,,,,,,,,,,,,bars/032.png,bars/mask006.png,,,,,,,,,,,,7,2,,,,,,,8,10,7,10,,,,,,,,,,,2643.9002,2644.389,2644.6325,2647.9334,space,3.2891,,2647.9334,66,9,2648.9355,2648.9355,2648.951,,,,0,45,45,45,1,125,20,,,,,,,,
,,5f8038ceefbc9f02632dce3c,65af5689a4d6aa58b7daa711,2024-01-23_08h16.43.553,bars,2023.2.3,Win32,40.98360656,657b66ea316d21385b68909f,,,,,,,,,,,2648.9513,2649.9396,,,2650.426,2650.6682,,7,7,,,,,,,,,,,,,,,,bars/015.png,bars/mask009.png,,,,,,,,,,,,1,2,,,,,,,6,8,5,9,,,,,,,,,,,2649.9396,2650.426,2650.6682,2653.2975,space,2.6103,,2653.2975,77,27,2654.2966,2654.2967,2654.3122,,,,0,46,46,46,1,110,160,,,,,,,,
,,5f8038ceefbc9f02632dce3c,65af5689a4d6aa58b7daa711,2024-01-23_08h16.43.553,bars,2023.2.3,Win32,40.98360656,657b66ea316d21385b68909f,,,,,,,,,,,2654.3126,2655.2968,,,2655.7846,2656.0282,,41,221,,,,,,,,,,,,,,,,bars/029.png,bars/mask008.png,,,,,,,,,,,,6,2,,,,,,,4,6,3,7,,,,,,,,,,,2655.2969,2655.7846,2656.0283,2659.4168,space,3.366,,2659.4168,49,4,2660.4153,2660.4154,2660.4294,,,,0,47,47,47,1,90,45,,,,,,,,
,,5f8038ceefbc9f02632dce3c,65af5689a4d6aa58b7daa711,2024-01-23_08h16.43.553,bars,2023.2.3,Win32,40.98360656,657b66ea316d21385b68909f,,,,,,,,,,,2660.4297,2661.418,,,2661.9048,2662.1491,,108,108,,,,,,,,,,,,,,,,bars/027.png,bars/mask001.png,,,,,,,,,,,,3,1,,,,,,,6,8,3,8,,,,,,,,,,,2661.418,2661.9047,2662.1491,2664.3273,space,2.1719,,2664.3273,2,58,2665.3171,2665.3172,2665.3351,,,,0,48,48,48,1,110,50,,,,,,,,
,,5f8038ceefbc9f02632dce3c,65af5689a4d6aa58b7daa711,2024-01-23_08h16.43.553,bars,2023.2.3,Win32,40.98360656,657b66ea316d21385b68909f,,,,,,,,,,,2665.3354,2666.3361,,,2666.8247,2667.0674,,48,228,,,,,,,,,,,,,,,,bars/029.png,bars/mask006.png,,,,,,,,,,,,9,2,,,,,,,4,10,4,10,,,,,,,,,,,2666.3361,2666.8246,2667.0675,2671.1661,space,4.0753,,2671.1662,42,3,2672.1686,2672.1687,2672.1817,,,,0,49,49,49,1,90,45,,,,,,,,
,,5f8038ceefbc9f02632dce3c,65af5689a4d6aa58b7daa711,2024-01-23_08h16.43.553,bars,2023.2.3,Win32,40.98360656,657b66ea316d21385b68909f,,,,,,,,,,,,,,,,,,,,,,,,,,,,,,,,,,,,,,,,,,,,,,,,,,,,,,,,,,,,,,,,,,,,,,,,,,,,,,,,,,,,,,,,,,,,,2672.1819,2732.1818,0,3,3,4,1,sequence_tables/blk010.csv
,,5f8038ceefbc9f02632dce3c,65af5689a4d6aa58b7daa711,2024-01-23_08h16.43.553,bars,2023.2.3,Win32,40.98360656,657b66ea316d21385b68909f,,,,,,,,,,,2862.8758,2863.859,,,2864.3453,2864.5884,,18,198,,,,,,,,,,,,,,,,bars/004.png,bars/mask002.png,,,,,,,,,,,,6,1,,,,,,,8,4,8,5,,,,,,2732.1967,2862.8569,space,130.6391,,2863.8591,2864.3453,2864.5885,2869.1871,space,4.5933,,2869.1872,7,73,2870.1865,2870.1866,2870.2034,,,,0,0,0,0,1,25,125,,,,,,,,
,,5f8038ceefbc9f02632dce3c,65af5689a4d6aa58b7daa711,2024-01-23_08h16.43.553,bars,2023.2.3,Win32,40.98360656,657b66ea316d21385b68909f,,,,,,,,,,,2870.2037,2871.1915,,,2871.6808,2871.9246,,170,-10,,,,,,,,,,,,,,,,bars/013.png,bars/mask008.png,,,,,,,,,,,,3,2,,,,,,,10,6,10,8,,,,,,,,,,,2871.1915,2871.6808,2871.9247,2876.6314,space,4.6834,,2876.6315,85,20,2877.6332,2877.6332,2877.6493,,,,0,1,1,1,1,75,10,,,,,,,,
,,5f8038ceefbc9f02632dce3c,65af5689a4d6aa58b7daa711,2024-01-23_08h16.43.553,bars,2023.2.3,Win32,40.98360656,657b66ea316d21385b68909f,,,,,,,,,,,2877.6497,2878.6335,,,2879.1217,2879.366,,125,125,,,,,,,,,,,,,,,,bars/015.png,bars/mask009.png,,,,,,,,,,,,5,1,,,,,,,10,4,10,5,,,,,,,,,,,2878.6335,2879.1215,2879.366,2881.3241,space,1.952,,2881.3241,15,35,2882.3215,2882.3215,2882.3241,,,,0,2,2,2,1,110,160,,,,,,,,
,,5f8038ceefbc9f02632dce3c,65af5689a4d6aa58b7daa711,2024-01-23_08h16.43.553,bars,2023.2.3,Win32,40.98360656,657b66ea316d21385b68909f,,,,,,,,,,,2882.3244,2883.323,,,2883.8112,2884.0547,,130,130,,,,,,,,,,,,,,,,bars/024.png,bars/mask001.png,,,,,,,,,,,,5,1,,,,,,,8,6,8,5,,,,,,,,,,,2883.3231,2883.8112,2884.0547,2885.5177,space,1.4539,,2885.5178,10,40,2886.5147,2886.5147,2886.5155,,,,0,3,3,3,1,120,170,,,,,,,,
,,5f8038ceefbc9f02632dce3c,65af5689a4d6aa58b7daa711,2024-01-23_08h16.43.553,bars,2023.2.3,Win32,40.98360656,657b66ea316d21385b68909f,,,,,,,,,,,2886.5157,2887.5158,,,2888.0045,2888.2467,,60,60,,,,,,,,,,,,,,,,bars/002.png,bars/mask003.png,,,,,,,,,,,,1,2,,,,,,,10,8,10,9,,,,,,,,,,,2887.5159,2888.0045,2888.2467,2889.6624,space,1.3961,,2889.6625,70,25,2890.6652,2890.6652,2890.6676,,,,0,4,4,4,1,130,85,,,,,,,,
,,5f8038ceefbc9f02632dce3c,65af5689a4d6aa58b7daa711,2024-01-23_08h16.43.553,bars,2023.2.3,Win32,40.98360656,657b66ea316d21385b68909f,,,,,,,,,,,2890.668,2891.678,,,2892.1693,2892.4139,,136,-44,,,,,,,,,,,,,,,,bars/025.png,bars/mask005.png,,,,,,,,,,,,0,1,,,,,,,8,10,8,10,,,,,,,,,,,2891.678,2892.1693,2892.414,2900.4816,space,8.0463,,2900.4816,31,84,2901.4798,2901.4799,2901.4969,,,,0,5,5,5,1,105,40,,,,,,,,
,,5f8038ceefbc9f02632dce3c,65af5689a4d6aa58b7daa711,2024-01-23_08h16.43.553,bars,2023.2.3,Win32,40.98360656,657b66ea316d21385b68909f,,,,,,,,,,,2901.4973,2902.5023,,,2902.9907,2903.235,,34,214,,,,,,,,,,,,,,,,bars/007.png,bars/mask002.png,,,,,,,,,,,,3,2,,,,,,,10,10,10,10,,,,,,,,,,,2902.5023,2902.9906,2903.235,2907.5649,space,4.3227,,2907.565,39,21,2908.5675,2908.5676,2908.5776,,,,0,6,6,6,1,175,55,,,,,,,,
,,5f8038ceefbc9f02632dce3c,65af5689a4d6aa58b7daa711,2024-01-23_08h16.43.553,bars,2023.2.3,Win32,40.98360656,657b66ea316d21385b68909f,,,,,,,,,,,2908.5778,2909.5649,,,2910.0528,2910.2983,,150,150,,,,,,,,,,,,,,,,bars/016.png,bars/mask007.png,,,,,,,,,,,,5,2,,,,,,,8,10,7,10,,,,,,,,,,,2909.565,2910.0528,2910.2984,2912.0433,space,1.733,,2912.0433,70,15,2913.0417,2913.0417,2913.0426,,,,0,7,7,7,1,40,165,,,,,,,,
,,5f8038ceefbc9f02632dce3c,65af5689a4d6aa58b7daa711,2024-01-23_08h16.43.553,bars,2023.2.3,Win32,40.98360656,657b66ea316d21385b68909f,,,,,,,,,,,2913.0428,2914.0392,,,2914.5262,2914.7698,,159,159,,,,,,,,,,,,,,,,bars/018.png,bars/mask008.png,,,,,,,,,,,,4,1,,,,,,,6,10,6,10,,,,,,,,,,,2914.0392,2914.5262,2914.7698,2916.3304,space,1.5394,,2916.3305,9,69,2917.3288,2917.3288,2917.3315,,,,0,8,8,8,1,150,90,,,,,,,,
,,5f8038ceefbc9f02632dce3c,65af5689a4d6aa58b7daa711,2024-01-23_08h16.43.553,bars,2023.2.3,Win32,40.98360656,657b66ea316d21385b68909f,,,,,,,,,,,2917.332,2918.333,,,2918.8209,2919.0639,,27,207,,,,,,,,,,,,,,,,bars/019.png,bars/mask003.png,,,,,,,,,,,,3,1,,,,,,,8,8,8,8,,,,,,,,,,,2918.333,2918.8208,2919.0639,2921.2855,space,2.1971,,2921.2855,18,78,2922.2842,2922.2843,2922.2985,,,,0,9,9,9,1,45,105,,,,,,,,
