init_variables.started,init_variables.stopped,participant,session,date,expName,psychopyVersion,OS,frameRate,study_id,instruction_exp.started,instruction_exp.stopped,key_resp_8.keys,key_resp_8.rt,key_resp_8.duration,instruction_single.started,instruction_single.stopped,key_resp_2.keys,key_resp_2.rt,key_resp_2.duration,interval.started,interval.stopped,cue_single.started,cue_single.stopped,mask.started,mask.stopped,ori_response_single.started,res_ori,res,ori_response_single.stopped,key_resp_single.keys,key_resp_single.rt,key_resp_single.duration,disp_single.started,disp_single.stopped,key_resp.keys,key_resp.rt,key_resp.duration,single.thisRepN,single.thisTrialN,single.thisN,single.thisIndex,single.ran,ori,path,mask_path,instruction_bandit.started,instruction_bandit.stopped,key_resp_6.keys,key_resp_6.rt,key_resp_6.duration,cue_bandit.started,cue_bandit.stopped,bandit_res.keys,bandit_res.rt,bandit_res.duration,outcome_bandit.started,rew,action,outcome_bandit.stopped,bandit.thisRepN,bandit.thisTrialN,bandit.thisN,bandit.thisIndex,bandit.ran,actual_rew1,actual_rew2,rew1,rew2,instruction_task.started,instruction_task.stopped,key_resp_7.keys,key_resp_7.rt,key_resp_7.duration,wait_ready.started,wait_ready.stopped,key_resp_3.keys,key_resp_3.rt,key_resp_3.duration,cue.started,cue.stopped,ori_response.started,ori_response.stopped,key_resp_5.keys,key_resp_5.rt,key_resp_5.duration,outcome.started,diff1,diff2,outcome.stopped,disp_outcome_practice.started,disp_outcome_practice.stopped,key_resp_4.keys,key_resp_4.rt,key_resp_4.duration,trials.thisRepN,trials.thisTrialN,trials.thisN,trials.thisIndex,trials.ran,ori1,ori2,break_blk.started,break_blk.stopped,block.thisRepN,block.thisTrialN,block.thisN,block.thisIndex,block.ran,condition_file
0.0003,0.0005,5bec8053b6b5ab00017c7349,65af56682b7145c5d8c759d9,2024-01-23_06h02.34.272,bars,2023.2.3,Win32,59.88023952,657b66ea316d21385b68909f,,,,,,,,,,,,,,,,,,,,,,,,,,,,,,,,,,,,,,,,,,,,,,,,,,,,,,,,,,,,,,,,,,,,,,,,,,,,,,,,,,,,,,,,,,,,,,,,,,,,
,,5bec8053b6b5ab00017c7349,65af56682b7145c5d8c759d9,2024-01-23_06h02.34.272,bars,2023.2.3,Win32,59.88023952,657b66ea316d21385b68909f,0.0007,8.2688,y,8.2557,,,,,,,,,,,,,,,,,,,,,,,,,,,,,,,,,,,,,,,,,,,,,,,,,,,,,,,,,,,,,,,,,,,,,,,,,,,,,,,,,,,,,,,,,,,,,,,,
,,5bec8053b6b5ab00017c7349,65af56682b7145c5d8c759d9,2024-01-23_06h02.34.272,bars,2023.2.3,Win32,59.88023952,657b66ea316d21385b68909f,,,,,,8.2689,18.462,space,10.1703,,,,,,,,,,,,,,,,,,,,,,,,,,,,,,,,,,,,,,,,,,,,,,,,,,,,,,,,,,,,,,,,,,,,,,,,,,,,,,,,,,,,,,,,,,,
,,5bec8053b6b5ab00017c7349,65af56682b7145c5d8c759d9,2024-01-23_06h02.34.272,bars,2023.2.3,Win32,59.88023952,657b66ea316d21385b68909f,,,,,,,,,,,18.4706,19.4716,19.4718,19.9728,19.9731,20.213,20.2136,158,-22,27.2824,space,7.0083,,27.2828,30.6831,space,3.3676,,0,0,0,9,1,20,bars/single009.png,bars/mask006.png,,,,,,,,,,,,,,,,,,,,,,,,,,,,,,,,,,,,,,,,,,,,,,,,,,,,,,,,,,,,,,,,
,,5bec8053b6b5ab00017c7349,65af56682b7145c5d8c759d9,2024-01-23_06h02.34.272,bars,2023.2.3,Win32,59.88023952,657b66ea316d21385b68909f,,,,,,,,,,,30.6844,31.6825,31.6828,32.1823,32.1823,32.4426,32.4427,171,171,36.9625,space,4.5029,,36.9626,40.8798,space,3.9022,,0,1,1,0,1,150,bars/single000.png,bars/mask006.png,,,,,,,,,,,,,,,,,,,,,,,,,,,,,,,,,,,,,,,,,,,,,,,,,,,,,,,,,,,,,,,,
,,5bec8053b6b5ab00017c7349,65af56682b7145c5d8c759d9,2024-01-23_06h02.34.272,bars,2023.2.3,Win32,59.88023952,657b66ea316d21385b68909f,,,,,,,,,,,40.8806,41.8785,41.8786,42.3691,42.3692,42.6128,42.6128,62,242,46.223,space,3.5936,,46.2231,49.9216,space,3.669,,0,2,2,7,1,45,bars/single007.png,bars/mask009.png,,,,,,,,,,,,,,,,,,,,,,,,,,,,,,,,,,,,,,,,,,,,,,,,,,,,,,,,,,,,,,,,
,,5bec8053b6b5ab00017c7349,65af56682b7145c5d8c759d9,2024-01-23_06h02.34.272,bars,2023.2.3,Win32,59.88023952,657b66ea316d21385b68909f,,,,,,,,,,,49.9228,50.9219,50.922,51.4143,51.4144,51.6565,51.6566,162,-18,53.3839,space,1.7019,,53.384,55.8397,space,2.4347,,0,3,3,6,1,175,bars/single006.png,bars/mask005.png,,,,,,,,,,,,,,,,,,,,,,,,,,,,,,,,,,,,,,,,,,,,,,,,,,,,,,,,,,,,,,,,
,,5bec8053b6b5ab00017c7349,65af56682b7145c5d8c759d9,2024-01-23_06h02.34.272,bars,2023.2.3,Win32,59.88023952,657b66ea316d21385b68909f,,,,,,,,,,,55.8403,56.8402,56.8403,57.35,57.35,57.5904,57.5905,39,39,60.7859,space,3.1689,,60.786,64.9763,space,4.1509,,0,4,4,3,1,20,bars/single003.png,bars/mask005.png,,,,,,,,,,,,,,,,,,,,,,,,,,,,,,,,,,,,,,,,,,,,,,,,,,,,,,,,,,,,,,,,
,,5bec8053b6b5ab00017c7349,65af56682b7145c5d8c759d9,2024-01-23_06h02.34.272,bars,2023.2.3,Win32,59.88023952,657b66ea316d21385b68909f,,,,,,,,,,,65.0038,65.9927,65.9927,66.4767,66.4767,66.7267,66.7267,171,-9,70.3612,space,3.6156,,70.3614,72.3619,space,1.9621,,0,5,5,1,1,20,bars/single001.png,bars/mask006.png,,,,,,,,,,,,,,,,,,,,,,,,,,,,,,,,,,,,,,,,,,,,,,,,,,,,,,,,,,,,,,,,
,,5bec8053b6b5ab00017c7349,65af56682b7145c5d8c759d9,2024-01-23_06h02.34.272,bars,2023.2.3,Win32,59.88023952,657b66ea316d21385b68909f,,,,,,,,,,,72.3624,73.3614,73.3614,73.8629,73.863,74.1126,74.1128,153,153,78.4636,space,4.3346,,78.4636,81.6153,space,3.1192,,0,6,6,8,1,160,bars/single008.png,bars/mask004.png,,,,,,,,,,,,,,,,,,,,,,,,,,,,,,,,,,,,,,,,,,,,,,,,,,,,,,,,,,,,,,,,
,,5bec8053b6b5ab00017c7349,65af56682b7145c5d8c759d9,2024-01-23_06h02.34.272,bars,2023.2.3,Win32,59.88023952,657b66ea316d21385b68909f,,,,,,,,,,,81.6427,82.6313,82.6317,83.1319,83.1321,83.3744,83.3744,82,82,86.7352,space,3.3436,,86.7353,87.9668,space,1.1886,,0,7,7,5,1,55,bars/single005.png,bars/mask008.png,,,,,,,,,,,,,,,,,,,,,,,,,,,,,,,,,,,,,,,,,,,,,,,,,,,,,,,,,,,,,,,,
,,5bec8053b6b5ab00017c7349,65af56682b7145c5d8c759d9,2024-01-23_06h02.34.272,bars,2023.2.3,Win32,59.88023952,657b66ea316d21385b68909f,,,,,,,,,,,87.9676,88.9668,88.9668,89.467,89.4671,89.717,89.7171,120,120,93.9861,space,4.257,,93.9862,95.2136,space,1.1873,,0,8,8,4,1,95,bars/single004.png,bars/mask004.png,,,,,,,,,,,,,,,,,,,,,,,,,,,,,,,,,,,,,,,,,,,,,,,,,,,,,,,,,,,,,,,,
,,5bec8053b6b5ab00017c7349,65af56682b7145c5d8c759d9,2024-01-23_06h02.34.272,bars,2023.2.3,Win32,59.88023952,657b66ea316d21385b68909f,,,,,,,,,,,95.2143,96.2024,96.2026,96.7026,96.7026,96.9526,96.9526,168,168,99.9703,space,2.9906,,99.9704,100.9538,space,0.9507,,0,9,9,2,1,145,bars/single002.png,bars/mask003.png,,,,,,,,,,,,,,,,,,,,,,,,,,,,,,,,,,,,,,,,,,,,,,,,,,,,,,,,,,,,,,,,
,,5bec8053b6b5ab00017c7349,65af56682b7145c5d8c759d9,2024-01-23_06h02.34.272,bars,2023.2.3,Win32,59.88023952,657b66ea316d21385b68909f,,,,,,,,,,,,,,,,,,,,,,,,,,,,,,,,,,,,,100.9552,121.0784,space,20.0935,,,,,,,,,,,,,,,,,,,,,,,,,,,,,,,,,,,,,,,,,,,,,,,,,,,,,,,,,,,,
,,5bec8053b6b5ab00017c7349,65af56682b7145c5d8c759d9,2024-01-23_06h02.34.272,bars,2023.2.3,Win32,59.88023952,657b66ea316d21385b68909f,,,,,,,,,,,,,,,,,,,,,,,,,,,,,,,,,,,,,,,,,,121.1108,122.8288,left,1.6805,,122.8292,9,1,123.8281,0,0,0,0,1,9,1,9,2,,,,,,,,,,,,,,,,,,,,,,,,,,,,,,,,,,,,,,,,,
,,5bec8053b6b5ab00017c7349,65af56682b7145c5d8c759d9,2024-01-23_06h02.34.272,bars,2023.2.3,Win32,59.88023952,657b66ea316d21385b68909f,,,,,,,,,,,,,,,,,,,,,,,,,,,,,,,,,,,,,,,,,,123.829,124.8124,right,0.9681,,124.8125,1,2,125.8116,0,1,1,1,1,10,0,10,1,,,,,,,,,,,,,,,,,,,,,,,,,,,,,,,,,,,,,,,,,
,,5bec8053b6b5ab00017c7349,65af56682b7145c5d8c759d9,2024-01-23_06h02.34.272,bars,2023.2.3,Win32,59.88023952,657b66ea316d21385b68909f,,,,,,,,,,,,,,,,,,,,,,,,,,,,,,,,,,,,,,,,,,125.8125,126.2952,left,0.4667,,126.2953,10,1,127.295,0,2,2,2,1,10,2,10,2,,,,,,,,,,,,,,,,,,,,,,,,,,,,,,,,,,,,,,,,,
,,5bec8053b6b5ab00017c7349,65af56682b7145c5d8c759d9,2024-01-23_06h02.34.272,bars,2023.2.3,Win32,59.88023952,657b66ea316d21385b68909f,,,,,,,,,,,,,,,,,,,,,,,,,,,,,,,,,,,,,,,,,,127.2955,127.9465,left,0.6401,,127.9465,7,1,128.9453,0,3,3,3,1,8,4,7,3,,,,,,,,,,,,,,,,,,,,,,,,,,,,,,,,,,,,,,,,,
,,5bec8053b6b5ab00017c7349,65af56682b7145c5d8c759d9,2024-01-23_06h02.34.272,bars,2023.2.3,Win32,59.88023952,657b66ea316d21385b68909f,,,,,,,,,,,,,,,,,,,,,,,,,,,,,,,,,,,,,,,,,,128.9457,129.6138,right,0.6526,,129.614,1,2,130.6133,0,4,4,4,1,6,2,5,1,,,,,,,,,,,,,,,,,,,,,,,,,,,,,,,,,,,,,,,,,
,,5bec8053b6b5ab00017c7349,65af56682b7145c5d8c759d9,2024-01-23_06h02.34.272,bars,2023.2.3,Win32,59.88023952,657b66ea316d21385b68909f,,,,,,,,,,,,,,,,,,,,,,,,,,,,,,,,,,,,,,,,,,130.614,131.2809,left,0.6514,,131.2809,4,1,132.2801,0,5,5,5,1,4,4,4,4,,,,,,,,,,,,,,,,,,,,,,,,,,,,,,,,,,,,,,,,,
,,5bec8053b6b5ab00017c7349,65af56682b7145c5d8c759d9,2024-01-23_06h02.34.272,bars,2023.2.3,Win32,59.88023952,657b66ea316d21385b68909f,,,,,,,,,,,,,,,,,,,,,,,,,,,,,,,,,,,,,,,,,,132.2807,133.0481,left,0.7517,,133.0483,1,1,134.0475,0,6,6,6,1,2,2,1,2,,,,,,,,,,,,,,,,,,,,,,,,,,,,,,,,,,,,,,,,,
,,5bec8053b6b5ab00017c7349,65af56682b7145c5d8c759d9,2024-01-23_06h02.34.272,bars,2023.2.3,Win32,59.88023952,657b66ea316d21385b68909f,,,,,,,,,,,,,,,,,,,,,,,,,,,,,,,,,,,,,,,,,,134.0482,135.1323,left,1.0683,,135.1324,0,1,136.1312,0,7,7,7,1,0,0,0,1,,,,,,,,,,,,,,,,,,,,,,,,,,,,,,,,,,,,,,,,,
,,5bec8053b6b5ab00017c7349,65af56682b7145c5d8c759d9,2024-01-23_06h02.34.272,bars,2023.2.3,Win32,59.88023952,657b66ea316d21385b68909f,,,,,,,,,,,,,,,,,,,,,,,,,,,,,,,,,,,,,,,,,,136.1316,136.5324,right,0.3842,,136.5325,0,2,137.532,0,8,8,8,1,0,2,1,0,,,,,,,,,,,,,,,,,,,,,,,,,,,,,,,,,,,,,,,,,
,,5bec8053b6b5ab00017c7349,65af56682b7145c5d8c759d9,2024-01-23_06h02.34.272,bars,2023.2.3,Win32,59.88023952,657b66ea316d21385b68909f,,,,,,,,,,,,,,,,,,,,,,,,,,,,,,,,,,,,,,,,,,137.5326,138.1498,left,0.6013,,138.1498,2,1,139.1491,0,9,9,9,1,2,4,2,3,,,,,,,,,,,,,,,,,,,,,,,,,,,,,,,,,,,,,,,,,
,,5bec8053b6b5ab00017c7349,65af56682b7145c5d8c759d9,2024-01-23_06h02.34.272,bars,2023.2.3,Win32,59.88023952,657b66ea316d21385b68909f,,,,,,,,,,,,,,,,,,,,,,,,,,,,,,,,,,,,,,,,,,139.1498,139.5828,left,0.4168,,139.5829,0,1,140.583,0,10,10,10,1,0,2,0,3,,,,,,,,,,,,,,,,,,,,,,,,,,,,,,,,,,,,,,,,,
,,5bec8053b6b5ab00017c7349,65af56682b7145c5d8c759d9,2024-01-23_06h02.34.272,bars,2023.2.3,Win32,59.88023952,657b66ea316d21385b68909f,,,,,,,,,,,,,,,,,,,,,,,,,,,,,,,,,,,,,,,,,,140.5837,141.2161,right,0.6166,,141.2162,3,2,142.2167,0,11,11,11,1,0,4,0,3,,,,,,,,,,,,,,,,,,,,,,,,,,,,,,,,,,,,,,,,,
,,5bec8053b6b5ab00017c7349,65af56682b7145c5d8c759d9,2024-01-23_06h02.34.272,bars,2023.2.3,Win32,59.88023952,657b66ea316d21385b68909f,,,,,,,,,,,,,,,,,,,,,,,,,,,,,,,,,,,,,,,,,,142.2175,143.5012,right,1.2704,,143.5013,6,2,144.5007,0,12,12,12,1,2,6,1,6,,,,,,,,,,,,,,,,,,,,,,,,,,,,,,,,,,,,,,,,,
,,5bec8053b6b5ab00017c7349,65af56682b7145c5d8c759d9,2024-01-23_06h02.34.272,bars,2023.2.3,Win32,59.88023952,657b66ea316d21385b68909f,,,,,,,,,,,,,,,,,,,,,,,,,,,,,,,,,,,,,,,,,,144.5014,145.285,right,0.77,,145.2851,3,2,146.285,0,13,13,13,1,0,4,1,3,,,,,,,,,,,,,,,,,,,,,,,,,,,,,,,,,,,,,,,,,
,,5bec8053b6b5ab00017c7349,65af56682b7145c5d8c759d9,2024-01-23_06h02.34.272,bars,2023.2.3,Win32,59.88023952,657b66ea316d21385b68909f,,,,,,,,,,,,,,,,,,,,,,,,,,,,,,,,,,,,,,,,,,146.2858,146.6848,left,0.3836,,146.6848,2,1,147.6851,0,14,14,14,1,2,6,2,7,,,,,,,,,,,,,,,,,,,,,,,,,,,,,,,,,,,,,,,,,
,,5bec8053b6b5ab00017c7349,65af56682b7145c5d8c759d9,2024-01-23_06h02.34.272,bars,2023.2.3,Win32,59.88023952,657b66ea316d21385b68909f,,,,,,,,,,,,,,,,,,,,,,,,,,,,,,,,,,,,,,,,,,147.6857,149.9199,right,2.2186,,149.92,9,2,150.9195,0,15,15,15,1,4,8,3,9,,,,,,,,,,,,,,,,,,,,,,,,,,,,,,,,,,,,,,,,,
,,5bec8053b6b5ab00017c7349,65af56682b7145c5d8c759d9,2024-01-23_06h02.34.272,bars,2023.2.3,Win32,59.88023952,657b66ea316d21385b68909f,,,,,,,,,,,,,,,,,,,,,,,,,,,,,,,,,,,,,,,,,,150.9201,151.9539,right,1.018,,151.954,7,2,152.9535,0,16,16,16,1,6,6,7,7,,,,,,,,,,,,,,,,,,,,,,,,,,,,,,,,,,,,,,,,,
,,5bec8053b6b5ab00017c7349,65af56682b7145c5d8c759d9,2024-01-23_06h02.34.272,bars,2023.2.3,Win32,59.88023952,657b66ea316d21385b68909f,,,,,,,,,,,,,,,,,,,,,,,,,,,,,,,,,,,,,,,,,,152.9541,154.1547,right,1.1901,,154.1548,5,2,155.1541,0,17,17,17,1,8,4,9,5,,,,,,,,,,,,,,,,,,,,,,,,,,,,,,,,,,,,,,,,,
,,5bec8053b6b5ab00017c7349,65af56682b7145c5d8c759d9,2024-01-23_06h02.34.272,bars,2023.2.3,Win32,59.88023952,657b66ea316d21385b68909f,,,,,,,,,,,,,,,,,,,,,,,,,,,,,,,,,,,,,,,,,,155.1815,156.0045,right,0.8071,,156.0049,1,2,157.0046,0,18,18,18,1,6,2,5,1,,,,,,,,,,,,,,,,,,,,,,,,,,,,,,,,,,,,,,,,,
,,5bec8053b6b5ab00017c7349,65af56682b7145c5d8c759d9,2024-01-23_06h02.34.272,bars,2023.2.3,Win32,59.88023952,657b66ea316d21385b68909f,,,,,,,,,,,,,,,,,,,,,,,,,,,,,,,,,,,,,,,,,,157.0053,157.3712,left,0.3522,,157.3713,7,1,158.3714,0,19,19,19,1,8,0,7,0,,,,,,,,,,,,,,,,,,,,,,,,,,,,,,,,,,,,,,,,,
,,5bec8053b6b5ab00017c7349,65af56682b7145c5d8c759d9,2024-01-23_06h02.34.272,bars,2023.2.3,Win32,59.88023952,657b66ea316d21385b68909f,,,,,,,,,,,,,,,,,,,,,,,,,,,,,,,,,,,,,,,,,,,,,,,,,,,,,,,,,,,,158.3723,180.1957,space,21.7948,,,,,,,,,,,,,,,,,,,,,,,,,,,,,,,,,,,,,
,,5bec8053b6b5ab00017c7349,65af56682b7145c5d8c759d9,2024-01-23_06h02.34.272,bars,2023.2.3,Win32,59.88023952,657b66ea316d21385b68909f,,,,,,,,,,,181.306,182.2968,,,182.7959,183.0457,,161,-19,,,,,,,,,,,,,,,,bars/028.png,bars/mask008.png,,,,,,,,,,,,0,2,,,,,,,9,4,9,4,,,,,,180.215,181.2959,space,1.0631,,182.2972,182.7959,183.046,185.9477,space,2.8825,,185.9482,64,41,186.9474,186.9479,199.336,space,12.3503,,0,0,0,0,1,45,120,,,,,,,,
,,5bec8053b6b5ab00017c7349,65af56682b7145c5d8c759d9,2024-01-23_06h02.34.272,bars,2023.2.3,Win32,59.88023952,657b66ea316d21385b68909f,,,,,,,,,,,199.3595,200.3513,,,200.851,201.1015,,82,82,,,,,,,,,,,,,,,,bars/034.png,bars/mask000.png,,,,,,,,,,,,0,2,,,,,,,7,2,7,0,,,,,,,,,,,200.3515,200.8509,201.102,203.2859,space,2.168,,203.2863,43,17,204.2858,204.2859,208.0368,space,3.7047,,0,1,1,1,1,125,65,,,,,,,,
,,5bec8053b6b5ab00017c7349,65af56682b7145c5d8c759d9,2024-01-23_06h02.34.272,bars,2023.2.3,Win32,59.88023952,657b66ea316d21385b68909f,,,,,,,,,,,208.0525,209.0414,,,209.5372,209.7873,,3,183,,,,,,,,,,,,,,,,bars/012.png,bars/mask005.png,,,,,,,,,,,,1,2,,,,,,,9,0,8,1,,,,,,,,,,,209.0414,209.5371,209.7873,214.5246,space,4.711,,214.5246,87,12,215.5221,215.5222,218.5571,space,3.0049,,0,2,2,2,1,90,15,,,,,,,,
,,5bec8053b6b5ab00017c7349,65af56682b7145c5d8c759d9,2024-01-23_06h02.34.272,bars,2023.2.3,Win32,59.88023952,657b66ea316d21385b68909f,,,,,,,,,,,218.5578,219.5572,,,220.0574,220.3114,,167,167,,,,,,,,,,,,,,,,bars/018.png,bars/mask003.png,,,,,,,,,,,,3,1,,,,,,,7,2,8,2,,,,,,,,,,,219.5572,220.0573,220.3114,223.6694,space,3.3358,,223.6695,17,77,224.6679,224.6679,227.3765,space,2.6637,,0,3,3,3,1,150,90,,,,,,,,
,,5bec8053b6b5ab00017c7349,65af56682b7145c5d8c759d9,2024-01-23_06h02.34.272,bars,2023.2.3,Win32,59.88023952,657b66ea316d21385b68909f,,,,,,,,,,,227.3773,228.3766,,,228.877,229.1269,,155,155,,,,,,,,,,,,,,,,bars/003.png,bars/mask005.png,,,,,,,,,,,,2,2,,,,,,,9,4,9,4,,,,,,,,,,,228.3767,228.877,229.127,232.1289,space,2.9759,,232.1289,50,15,233.121,233.1211,235.5954,space,2.4217,,0,4,4,4,1,25,140,,,,,,,,
,,5bec8053b6b5ab00017c7349,65af56682b7145c5d8c759d9,2024-01-23_06h02.34.272,bars,2023.2.3,Win32,59.88023952,657b66ea316d21385b68909f,,,,,,,,,,,235.6218,236.5958,,,237.0956,237.346,,82,82,,,,,,,,,,,,,,,,bars/037.png,bars/mask007.png,,,,,,,,,,,,1,2,,,,,,,10,6,10,6,,,,,,,,,,,236.5958,237.0956,237.346,242.9589,space,5.5863,,242.959,68,23,243.948,243.9481,246.5327,space,2.5367,,0,5,5,5,1,150,105,,,,,,,,
,,5bec8053b6b5ab00017c7349,65af56682b7145c5d8c759d9,2024-01-23_06h02.34.272,bars,2023.2.3,Win32,59.88023952,657b66ea316d21385b68909f,,,,,,,,,,,246.5334,247.5324,,,248.0323,248.2759,,10,10,,,,,,,,,,,,,,,,bars/022.png,bars/mask005.png,,,,,,,,,,,,4,2,,,,,,,8,4,9,6,,,,,,,,,,,247.5326,248.0323,248.2759,250.242,space,1.9501,,250.2421,85,10,251.233,251.2331,254.8514,space,3.586,,0,6,6,6,1,95,20,,,,,,,,
,,5bec8053b6b5ab00017c7349,65af56682b7145c5d8c759d9,2024-01-23_06h02.34.272,bars,2023.2.3,Win32,59.88023952,657b66ea316d21385b68909f,,,,,,,,,,,254.8792,255.8517,,,256.3616,256.6022,,170,170,,,,,,,,,,,,,,,,bars/020.png,bars/mask002.png,,,,,,,,,,,,2,2,,,,,,,10,2,10,2,,,,,,,,,,,255.8518,256.3615,256.6023,259.8369,space,3.2204,,259.8371,55,0,260.8364,260.8364,263.6382,space,2.7694,,0,7,7,7,1,115,170,,,,,,,,
,,5bec8053b6b5ab00017c7349,65af56682b7145c5d8c759d9,2024-01-23_06h02.34.272,bars,2023.2.3,Win32,59.88023952,657b66ea316d21385b68909f,,,,,,,,,,,263.6655,264.6544,,,265.1545,265.4045,,164,-16,,,,,,,,,,,,,,,,bars/043.png,bars/mask006.png,,,,,,,,,,,,0,2,,,,,,,10,4,10,4,,,,,,,,,,,264.6545,265.1545,265.4045,269.584,space,4.153,,269.5841,46,34,270.5726,270.5726,272.9905,space,2.3888,,0,8,8,8,1,30,130,,,,,,,,
,,5bec8053b6b5ab00017c7349,65af56682b7145c5d8c759d9,2024-01-23_06h02.34.272,bars,2023.2.3,Win32,59.88023952,657b66ea316d21385b68909f,,,,,,,,,,,272.9915,273.9907,,,274.4908,274.734,,100,100,,,,,,,,,,,,,,,,bars/039.png,bars/mask001.png,,,,,,,,,,,,4,2,,,,,,,8,6,6,5,,,,,,,,,,,273.9907,274.4908,274.734,277.7253,space,2.9686,,277.7253,75,5,278.7181,278.7181,280.1255,space,1.3578,,0,9,9,9,1,175,105,,,,,,,,
,,5bec8053b6b5ab00017c7349,65af56682b7145c5d8c759d9,2024-01-23_06h02.34.272,bars,2023.2.3,Win32,59.88023952,657b66ea316d21385b68909f,,,,,,,,,,,280.126,281.126,,,281.6264,281.8764,,5,5,,,,,,,,,,,,,,,,bars/022.png,bars/mask004.png,,,,,,,,,,,,3,2,,,,,,,6,4,6,5,,,,,,,,,,,281.126,281.6264,281.8765,287.1112,space,5.2184,,287.1112,90,15,288.1118,288.1118,289.2453,space,1.086,,0,10,10,10,1,95,20,,,,,,,,
,,5bec8053b6b5ab00017c7349,65af56682b7145c5d8c759d9,2024-01-23_06h02.34.272,bars,2023.2.3,Win32,59.88023952,657b66ea316d21385b68909f,,,,,,,,,,,289.2458,290.2457,,,290.7384,290.9787,,34,214,,,,,,,,,,,,,,,,bars/007.png,bars/mask006.png,,,,,,,,,,,,1,2,,,,,,,4,2,3,2,,,,,,,,,,,290.2458,290.7384,290.9787,294.4747,space,3.4695,,294.4748,39,21,295.4639,295.464,297.0088,space,1.5044,,0,11,11,11,1,175,55,,,,,,,,
,,5bec8053b6b5ab00017c7349,65af56682b7145c5d8c759d9,2024-01-23_06h02.34.272,bars,2023.2.3,Win32,59.88023952,657b66ea316d21385b68909f,,,,,,,,,,,297.0094,298.0029,,,298.5078,298.7577,,155,-25,,,,,,,,,,,,,,,,bars/043.png,bars/mask005.png,,,,,,,,,,,,0,2,,,,,,,2,0,3,2,,,,,,,,,,,298.003,298.5077,298.7577,301.3433,space,2.5684,,301.3434,55,25,302.3327,302.3327,303.483,space,1.1047,,0,12,12,12,1,30,130,,,,,,,,
,,5bec8053b6b5ab00017c7349,65af56682b7145c5d8c759d9,2024-01-23_06h02.34.272,bars,2023.2.3,Win32,59.88023952,657b66ea316d21385b68909f,,,,,,,,,,,303.4834,304.472,,,304.967,305.2052,,100,100,,,,,,,,,,,,,,,,bars/039.png,bars/mask007.png,,,,,,,,,,,,0,2,,,,,,,4,0,4,0,,,,,,,,,,,304.472,304.9669,305.2053,306.6673,space,1.4343,,306.6674,75,5,307.6774,307.6775,308.9869,space,1.2928,,0,13,13,13,1,175,105,,,,,,,,
,,5bec8053b6b5ab00017c7349,65af56682b7145c5d8c759d9,2024-01-23_06h02.34.272,bars,2023.2.3,Win32,59.88023952,657b66ea316d21385b68909f,,,,,,,,,,,308.9874,309.9778,,,310.4727,310.7182,,130,130,,,,,,,,,,,,,,,,bars/004.png,bars/mask009.png,,,,,,,,,,,,2,2,,,,,,,6,2,5,2,,,,,,,,,,,309.9779,310.4726,310.7182,313.5136,space,2.7687,,313.5137,75,5,314.5123,314.5123,315.5864,space,1.0324,,0,14,14,14,1,25,125,,,,,,,,
,,5bec8053b6b5ab00017c7349,65af56682b7145c5d8c759d9,2024-01-23_06h02.34.272,bars,2023.2.3,Win32,59.88023952,657b66ea316d21385b68909f,,,,,,,,,,,315.5867,316.5867,,,317.0874,317.3374,,121,121,,,,,,,,,,,,,,,,bars/049.png,bars/mask004.png,,,,,,,,,,,,5,2,,,,,,,8,4,10,6,,,,,,,,,,,316.5867,317.0873,317.3376,321.6717,space,4.3146,,321.6718,39,6,322.6724,322.6725,323.8231,space,1.1042,,0,15,15,15,1,160,115,,,,,,,,
,,5bec8053b6b5ab00017c7349,65af56682b7145c5d8c759d9,2024-01-23_06h02.34.272,bars,2023.2.3,Win32,59.88023952,657b66ea316d21385b68909f,,,,,,,,,,,323.8239,324.8229,,,325.3232,325.5732,,51,51,,,,,,,,,,,,,,,,bars/034.png,bars/mask002.png,,,,,,,,,,,,4,2,,,,,,,10,6,10,7,,,,,,,,,,,324.823,325.3231,325.5732,328.9079,space,3.32,,328.9079,74,14,329.9079,329.908,330.9251,space,0.9736,,0,16,16,16,1,125,65,,,,,,,,
,,5bec8053b6b5ab00017c7349,65af56682b7145c5d8c759d9,2024-01-23_06h02.34.272,bars,2023.2.3,Win32,59.88023952,657b66ea316d21385b68909f,,,,,,,,,,,330.926,331.9247,,,332.4254,332.6753,,92,92,,,,,,,,,,,,,,,,bars/011.png,bars/mask000.png,,,,,,,,,,,,4,2,,,,,,,8,4,8,5,,,,,,,,,,,331.9247,332.4254,332.6754,335.6264,space,2.9189,,335.6266,68,7,336.6266,336.6267,337.4603,space,0.7876,,0,17,17,17,1,160,85,,,,,,,,
,,5bec8053b6b5ab00017c7349,65af56682b7145c5d8c759d9,2024-01-23_06h02.34.272,bars,2023.2.3,Win32,59.88023952,657b66ea316d21385b68909f,,,,,,,,,,,337.4608,338.4697,,,338.9609,339.2108,,172,-8,,,,,,,,,,,,,,,,bars/012.png,bars/mask004.png,,,,,,,,,,,,1,2,,,,,,,6,6,5,6,,,,,,,,,,,338.4699,338.9608,339.2109,345.0404,space,5.803,,345.0404,82,23,346.0296,346.0296,346.7134,space,0.6404,,0,18,18,18,1,90,15,,,,,,,,
,,5bec8053b6b5ab00017c7349,65af56682b7145c5d8c759d9,2024-01-23_06h02.34.272,bars,2023.2.3,Win32,59.88023952,657b66ea316d21385b68909f,,,,,,,,,,,346.7142,347.7129,,,348.2137,348.4637,,26,206,,,,,,,,,,,,,,,,bars/007.png,bars/mask005.png,,,,,,,,,,,,0,2,,,,,,,8,8,8,8,,,,,,,,,,,347.7129,348.2136,348.4637,351.0646,space,2.5851,,351.0647,31,29,352.0647,352.0648,353.1154,space,1.0073,,0,19,19,19,1,175,55,,,,,,,,
,,5bec8053b6b5ab00017c7349,65af56682b7145c5d8c759d9,2024-01-23_06h02.34.272,bars,2023.2.3,Win32,59.88023952,657b66ea316d21385b68909f,,,,,,,,,,,353.1162,354.1154,,,354.6156,354.8658,,129,-51,,,,,,,,,,,,,,,,bars/037.png,bars/mask004.png,,,,,,,,,,,,3,1,,,,,,,10,6,10,5,,,,,,,,,,,354.1154,354.6155,354.8658,357.8334,space,2.9554,,357.8335,21,24,358.8333,358.8334,359.6505,space,0.7709,,0,20,20,20,1,150,105,,,,,,,,
,,5bec8053b6b5ab00017c7349,65af56682b7145c5d8c759d9,2024-01-23_06h02.34.272,bars,2023.2.3,Win32,59.88023952,657b66ea316d21385b68909f,,,,,,,,,,,359.6513,360.6506,,,361.1509,361.401,,44,44,,,,,,,,,,,,,,,,bars/030.png,bars/mask003.png,,,,,,,,,,,,2,2,,,,,,,8,8,8,8,,,,,,,,,,,360.6507,361.1509,361.401,363.9687,space,2.5518,,363.9688,84,21,364.9688,364.9688,365.853,space,0.8276,,0,21,21,21,1,140,65,,,,,,,,
,,5bec8053b6b5ab00017c7349,65af56682b7145c5d8c759d9,2024-01-23_06h02.34.272,bars,2023.2.3,Win32,59.88023952,657b66ea316d21385b68909f,,,,,,,,,,,365.8537,366.8526,,,367.3528,367.6126,,46,46,,,,,,,,,,,,,,,,bars/010.png,bars/mask000.png,,,,,,,,,,,,7,2,,,,,,,6,10,4,10,,,,,,,,,,,366.8526,367.3527,367.6127,372.5488,space,4.928,,372.5488,61,9,373.5382,373.5382,374.5386,space,0.9579,,0,22,22,22,1,165,55,,,,,,,,
,,5bec8053b6b5ab00017c7349,65af56682b7145c5d8c759d9,2024-01-23_06h02.34.272,bars,2023.2.3,Win32,59.88023952,657b66ea316d21385b68909f,,,,,,,,,,,374.5393,375.5484,,,376.039,376.289,,175,-5,,,,,,,,,,,,,,,,bars/033.png,bars/mask008.png,,,,,,,,,,,,3,2,,,,,,,4,10,4,9,,,,,,,,,,,375.5484,376.0389,376.289,381.368,space,5.0526,,381.368,30,20,382.3671,382.3671,383.2906,space,0.8787,,0,23,23,23,1,25,155,,,,,,,,
,,5bec8053b6b5ab00017c7349,65af56682b7145c5d8c759d9,2024-01-23_06h02.34.272,bars,2023.2.3,Win32,59.88023952,657b66ea316d21385b68909f,,,,,,,,,,,383.2908,384.2915,,,384.7913,385.0418,,83,263,,,,,,,,,,,,,,,,bars/046.png,bars/mask002.png,,,,,,,,,,,,7,2,,,,,,,6,8,7,8,,,,,,,,,,,384.2915,384.7912,385.0419,390.6099,space,5.5406,,390.6101,72,2,391.6031,391.6033,392.8383,space,1.2015,,0,24,24,24,1,155,85,,,,,,,,
,,5bec8053b6b5ab00017c7349,65af56682b7145c5d8c759d9,2024-01-23_06h02.34.272,bars,2023.2.3,Win32,59.88023952,657b66ea316d21385b68909f,,,,,,,,,,,392.8388,393.8276,,,394.3277,394.5855,,173,-7,,,,,,,,,,,,,,,,bars/045.png,bars/mask000.png,,,,,,,,,,,,2,2,,,,,,,8,6,9,4,,,,,,,,,,,393.8277,394.3276,394.5855,397.3733,space,2.7689,,397.3733,73,17,398.3623,398.3624,399.0961,space,0.7047,,0,25,25,25,1,100,10,,,,,,,,
,,5bec8053b6b5ab00017c7349,65af56682b7145c5d8c759d9,2024-01-23_06h02.34.272,bars,2023.2.3,Win32,59.88023952,657b66ea316d21385b68909f,,,,,,,,,,,399.0966,400.0963,,,400.5965,400.8465,,9,9,,,,,,,,,,,,,,,,bars/022.png,bars/mask008.png,,,,,,,,,,,,3,2,,,,,,,10,4,10,5,,,,,,,,,,,400.0963,400.5964,400.8466,401.9573,space,1.0842,,401.9574,86,11,402.9469,402.947,403.7977,space,0.819,,0,26,26,26,1,95,20,,,,,,,,
,,5bec8053b6b5ab00017c7349,65af56682b7145c5d8c759d9,2024-01-23_06h02.34.272,bars,2023.2.3,Win32,59.88023952,657b66ea316d21385b68909f,,,,,,,,,,,403.7985,404.7977,,,405.3077,405.548,,32,32,,,,,,,,,,,,,,,,bars/031.png,bars/mask006.png,,,,,,,,,,,,5,2,,,,,,,8,6,9,5,,,,,,,,,,,404.7977,405.3077,405.5481,406.9094,space,1.3514,,406.9094,88,3,407.9082,407.9083,409.1327,space,1.2033,,0,27,27,27,1,120,35,,,,,,,,
,,5bec8053b6b5ab00017c7349,65af56682b7145c5d8c759d9,2024-01-23_06h02.34.272,bars,2023.2.3,Win32,59.88023952,657b66ea316d21385b68909f,,,,,,,,,,,409.1337,410.1326,,,410.6259,410.866,,74,74,,,,,,,,,,,,,,,,bars/038.png,bars/mask009.png,,,,,,,,,,,,9,2,,,,,,,10,8,10,10,,,,,,,,,,,410.1326,410.6259,410.866,413.1459,space,2.2536,,413.146,89,4,414.15,414.1501,415.3175,space,1.134,,0,28,28,28,1,165,70,,,,,,,,
,,5bec8053b6b5ab00017c7349,65af56682b7145c5d8c759d9,2024-01-23_06h02.34.272,bars,2023.2.3,Win32,59.88023952,657b66ea316d21385b68909f,,,,,,,,,,,415.318,416.3181,,,416.8063,417.0515,,12,12,,,,,,,,,,,,,,,,bars/036.png,bars/mask003.png,,,,,,,,,,,,4,2,,,,,,,8,6,10,6,,,,,,,,,,,416.3182,416.8061,417.0515,419.1798,space,2.1017,,419.1799,47,8,420.1691,420.1692,421.9366,space,1.7348,,0,29,29,29,1,145,20,,,,,,,,
,,5bec8053b6b5ab00017c7349,65af56682b7145c5d8c759d9,2024-01-23_06h02.34.272,bars,2023.2.3,Win32,59.88023952,657b66ea316d21385b68909f,,,,,,,,,,,421.9373,422.9365,,,423.437,423.6869,,166,-14,,,,,,,,,,,,,,,,bars/008.png,bars/mask001.png,,,,,,,,,,,,5,2,,,,,,,6,8,7,9,,,,,,,,,,,422.9366,423.4369,423.687,426.3547,space,2.656,,426.3548,56,14,427.3546,427.3547,428.9721,space,1.5773,,0,30,30,30,1,110,0,,,,,,,,
,,5bec8053b6b5ab00017c7349,65af56682b7145c5d8c759d9,2024-01-23_06h02.34.272,bars,2023.2.3,Win32,59.88023952,657b66ea316d21385b68909f,,,,,,,,,,,428.973,429.9721,,,430.4722,430.7221,,8,188,,,,,,,,,,,,,,,,bars/012.png,bars/mask001.png,,,,,,,,,,,,5,2,,,,,,,4,6,3,6,,,,,,,,,,,429.9722,430.4721,430.7222,434.4903,space,3.7497,,434.4904,82,7,435.4905,435.4907,436.3243,space,0.7896,,0,31,31,31,1,90,15,,,,,,,,
,,5bec8053b6b5ab00017c7349,65af56682b7145c5d8c759d9,2024-01-23_06h02.34.272,bars,2023.2.3,Win32,59.88023952,657b66ea316d21385b68909f,,,,,,,,,,,436.3248,437.3245,,,437.8246,438.0744,,160,-20,,,,,,,,,,,,,,,,bars/043.png,bars/mask001.png,,,,,,,,,,,,0,2,,,,,,,6,4,5,3,,,,,,,,,,,437.3245,437.8245,438.0744,441.0928,space,3.003,,441.0929,50,30,442.0922,442.0923,443.4831,space,1.3626,,0,32,32,32,1,30,130,,,,,,,,
,,5bec8053b6b5ab00017c7349,65af56682b7145c5d8c759d9,2024-01-23_06h02.34.272,bars,2023.2.3,Win32,59.88023952,657b66ea316d21385b68909f,,,,,,,,,,,443.484,444.4767,,,444.9858,445.2269,,165,165,,,,,,,,,,,,,,,,bars/016.png,bars/mask003.png,,,,,,,,,,,,2,2,,,,,,,8,2,10,2,,,,,,,,,,,444.4767,444.9857,445.2269,447.3051,space,2.0519,,447.3051,55,0,448.2954,448.2955,449.6811,space,1.3601,,0,33,33,33,1,40,165,,,,,,,,
,,5bec8053b6b5ab00017c7349,65af56682b7145c5d8c759d9,2024-01-23_06h02.34.272,bars,2023.2.3,Win32,59.88023952,657b66ea316d21385b68909f,,,,,,,,,,,449.6819,450.6785,,,451.1788,451.4288,,166,166,,,,,,,,,,,,,,,,bars/004.png,bars/mask004.png,,,,,,,,,,,,0,1,,,,,,,6,0,6,0,,,,,,,,,,,450.6786,451.1787,451.4288,455.3056,space,3.851,,455.3056,39,41,456.2968,456.2969,457.0141,space,0.6622,,0,34,34,34,1,25,125,,,,,,,,
,,5bec8053b6b5ab00017c7349,65af56682b7145c5d8c759d9,2024-01-23_06h02.34.272,bars,2023.2.3,Win32,59.88023952,657b66ea316d21385b68909f,,,,,,,,,,,457.0149,458.0142,,,458.5146,458.7643,,104,104,,,,,,,,,,,,,,,,bars/006.png,bars/mask000.png,,,,,,,,,,,,0,2,,,,,,,4,0,1,0,,,,,,,,,,,458.0143,458.5144,458.7644,460.4144,space,1.6312,,460.4145,69,4,461.4152,461.4152,462.401,space,0.9388,,0,35,35,35,1,35,100,,,,,,,,
,,5bec8053b6b5ab00017c7349,65af56682b7145c5d8c759d9,2024-01-23_06h02.34.272,bars,2023.2.3,Win32,59.88023952,657b66ea316d21385b68909f,,,,,,,,,,,462.4016,463.4083,,,463.9087,464.1494,,26,206,,,,,,,,,,,,,,,,bars/031.png,bars/mask001.png,,,,,,,,,,,,2,2,,,,,,,6,2,6,3,,,,,,,,,,,463.4083,463.9087,464.1495,466.9836,space,2.8019,,466.9836,86,9,467.9839,467.9839,468.7005,space,0.6712,,0,36,36,36,1,120,35,,,,,,,,
,,5bec8053b6b5ab00017c7349,65af56682b7145c5d8c759d9,2024-01-23_06h02.34.272,bars,2023.2.3,Win32,59.88023952,657b66ea316d21385b68909f,,,,,,,,,,,468.7009,469.7107,,,470.2013,470.4512,,6,186,,,,,,,,,,,,,,,,bars/045.png,bars/mask001.png,,,,,,,,,,,,1,2,,,,,,,4,0,5,1,,,,,,,,,,,469.7108,470.2013,470.4512,471.9872,space,1.5095,,471.9873,86,4,472.9854,472.9855,473.7188,space,0.6893,,0,37,37,37,1,100,10,,,,,,,,
,,5bec8053b6b5ab00017c7349,65af56682b7145c5d8c759d9,2024-01-23_06h02.34.272,bars,2023.2.3,Win32,59.88023952,657b66ea316d21385b68909f,,,,,,,,,,,473.7193,474.7193,,,475.2195,475.4695,,177,-3,,,,,,,,,,,,,,,,bars/048.png,bars/mask001.png,,,,,,,,,,,,0,2,,,,,,,2,0,1,0,,,,,,,,,,,474.7193,475.2195,475.4696,478.504,space,3.0152,,478.5041,53,2,479.5042,479.5042,480.265,space,0.7206,,0,38,38,38,1,50,175,,,,,,,,
,,5bec8053b6b5ab00017c7349,65af56682b7145c5d8c759d9,2024-01-23_06h02.34.272,bars,2023.2.3,Win32,59.88023952,657b66ea316d21385b68909f,,,,,,,,,,,480.2655,481.2544,,,481.7546,481.998,,39,219,,,,,,,,,,,,,,,,bars/017.png,bars/mask004.png,,,,,,,,,,,,2,2,,,,,,,0,2,0,2,,,,,,,,,,,481.2545,481.7545,481.9981,484.8838,space,2.8691,,484.8839,74,6,485.8728,485.8728,486.617,space,0.704,,0,39,39,39,1,145,45,,,,,,,,
,,5bec8053b6b5ab00017c7349,65af56682b7145c5d8c759d9,2024-01-23_06h02.34.272,bars,2023.2.3,Win32,59.88023952,657b66ea316d21385b68909f,,,,,,,,,,,486.6176,487.6162,,,488.1069,488.3568,,9,189,,,,,,,,,,,,,,,,bars/045.png,bars/mask002.png,,,,,,,,,,,,2,2,,,,,,,0,0,1,2,,,,,,,,,,,487.6163,488.1068,488.3568,490.3174,space,1.9345,,490.3175,89,1,491.3076,491.3076,491.8806,space,0.5434,,0,40,40,40,1,100,10,,,,,,,,
,,5bec8053b6b5ab00017c7349,65af56682b7145c5d8c759d9,2024-01-23_06h02.34.272,bars,2023.2.3,Win32,59.88023952,657b66ea316d21385b68909f,,,,,,,,,,,491.8814,492.8748,,,493.3683,493.6181,,124,-56,,,,,,,,,,,,,,,,bars/023.png,bars/mask009.png,,,,,,,,,,,,0,2,,,,,,,0,0,0,0,,,,,,,,,,,492.8749,493.3682,493.6182,499.0313,space,5.397,,499.0313,76,9,500.0271,500.0271,500.6776,space,0.605,,0,41,41,41,1,20,115,,,,,,,,
,,5bec8053b6b5ab00017c7349,65af56682b7145c5d8c759d9,2024-01-23_06h02.34.272,bars,2023.2.3,Win32,59.88023952,657b66ea316d21385b68909f,,,,,,,,,,,500.6783,501.6774,,,502.1777,502.4376,,8,8,,,,,,,,,,,,,,,,bars/014.png,bars/mask005.png,,,,,,,,,,,,1,2,,,,,,,2,0,1,1,,,,,,,,,,,501.6774,502.1776,502.4377,504.2065,space,1.7515,,504.2067,72,8,505.1962,505.1962,506.0453,space,0.8031,,0,42,42,42,1,80,0,,,,,,,,
,,5bec8053b6b5ab00017c7349,65af56682b7145c5d8c759d9,2024-01-23_06h02.34.272,bars,2023.2.3,Win32,59.88023952,657b66ea316d21385b68909f,,,,,,,,,,,506.0455,507.0389,,,507.5295,507.7794,,178,-2,,,,,,,,,,,,,,,,bars/014.png,bars/mask003.png,,,,,,,,,,,,0,2,,,,,,,0,0,0,0,,,,,,,,,,,507.0389,507.5295,507.7795,511.5426,space,3.7361,,511.5426,82,2,512.5316,512.5318,513.2977,space,0.7331,,0,43,43,43,1,80,0,,,,,,,,
,,5bec8053b6b5ab00017c7349,65af56682b7145c5d8c759d9,2024-01-23_06h02.34.272,bars,2023.2.3,Win32,59.88023952,657b66ea316d21385b68909f,,,,,,,,,,,513.2983,514.2978,,,514.7909,515.0315,,130,-50,,,,,,,,,,,,,,,,bars/023.png,bars/mask006.png,,,,,,,,,,,,1,2,,,,,,,2,0,2,1,,,,,,,,,,,514.2979,514.7909,515.0315,518.3604,space,3.3023,,518.3604,70,15,519.3496,519.3497,520.0669,space,0.6742,,0,44,44,44,1,20,115,,,,,,,,
,,5bec8053b6b5ab00017c7349,65af56682b7145c5d8c759d9,2024-01-23_06h02.34.272,bars,2023.2.3,Win32,59.88023952,657b66ea316d21385b68909f,,,,,,,,,,,520.0676,521.067,,,521.5672,521.8172,,55,235,,,,,,,,,,,,,,,,bars/007.png,bars/mask008.png,,,,,,,,,,,,2,2,,,,,,,4,2,4,2,,,,,,,,,,,521.067,521.5671,521.8173,527.0027,space,5.1567,,527.0028,60,0,528.0025,528.0026,528.7361,space,0.6871,,0,45,45,45,1,175,55,,,,,,,,
,,5bec8053b6b5ab00017c7349,65af56682b7145c5d8c759d9,2024-01-23_06h02.34.272,bars,2023.2.3,Win32,59.88023952,657b66ea316d21385b68909f,,,,,,,,,,,528.7368,529.7364,,,530.2366,530.4796,,104,104,,,,,,,,,,,,,,,,bars/021.png,bars/mask002.png,,,,,,,,,,,,0,2,,,,,,,2,4,2,4,,,,,,,,,,,529.7364,530.2364,530.4796,534.3986,space,3.9021,,534.3987,51,34,535.3881,535.3882,536.0385,space,0.6112,,0,46,46,46,1,155,70,,,,,,,,
,,5bec8053b6b5ab00017c7349,65af56682b7145c5d8c759d9,2024-01-23_06h02.34.272,bars,2023.2.3,Win32,59.88023952,657b66ea316d21385b68909f,,,,,,,,,,,536.0391,537.0386,,,537.5386,537.7886,,158,-22,,,,,,,,,,,,,,,,bars/044.png,bars/mask008.png,,,,,,,,,,,,2,2,,,,,,,4,2,4,2,,,,,,,,,,,537.0387,537.5386,537.7886,542.9241,space,5.124,,542.9243,83,3,543.9241,543.9241,544.7667,space,0.8027,,0,47,47,47,1,75,155,,,,,,,,
,,5bec8053b6b5ab00017c7349,65af56682b7145c5d8c759d9,2024-01-23_06h02.34.272,bars,2023.2.3,Win32,59.88023952,657b66ea316d21385b68909f,,,,,,,,,,,544.7671,545.7579,,,546.2508,546.4925,,88,-92,,,,,,,,,,,,,,,,bars/023.png,bars/mask008.png,,,,,,,,,,,,0,2,,,,,,,6,0,5,0,,,,,,,,,,,545.7579,546.2507,546.4925,551.3786,space,4.8605,,551.3787,68,27,552.3863,552.3864,553.2599,space,0.8283,,0,48,48,48,1,20,115,,,,,,,,
,,5bec8053b6b5ab00017c7349,65af56682b7145c5d8c759d9,2024-01-23_06h02.34.272,bars,2023.2.3,Win32,59.88023952,657b66ea316d21385b68909f,,,,,,,,,,,553.2602,554.2607,,,554.7609,555.011,,59,59,,,,,,,,,,,,,,,,bars/046.png,bars/mask007.png,,,,,,,,,,,,0,2,,,,,,,4,0,6,0,,,,,,,,,,,554.2608,554.7608,555.0111,557.6125,space,2.5863,,557.6126,84,26,558.6118,558.6119,559.4627,space,0.8186,,0,49,49,49,1,155,85,,,,,,,,
,,5bec8053b6b5ab00017c7349,65af56682b7145c5d8c759d9,2024-01-23_06h02.34.272,bars,2023.2.3,Win32,59.88023952,657b66ea316d21385b68909f,,,,,,,,,,,,,,,,,,,,,,,,,,,,,,,,,,,,,,,,,,,,,,,,,,,,,,,,,,,,,,,,,,,,,,,,,,,,,,,,,,,,,,,,,,,,,559.4644,619.4654,0,0,0,4,1,sequence_tables/blk027.csv
,,5bec8053b6b5ab00017c7349,65af56682b7145c5d8c759d9,2024-01-23_06h02.34.272,bars,2023.2.3,Win32,59.88023952,657b66ea316d21385b68909f,,,,,,,,,,,620.8771,621.8812,,,622.3647,622.6147,,166,166,,,,,,,,,,,,,,,,bars/001.png,bars/mask001.png,,,,,,,,,,,,0,1,,,,,,,1,9,1,9,,,,,,619.4946,620.8646,space,1.3535,,621.8813,622.3647,622.6149,624.7986,space,2.1666,,624.7986,36,81,625.7988,625.7988,625.8072,,,,0,0,0,0,1,130,85,,,,,,,,
,,5bec8053b6b5ab00017c7349,65af56682b7145c5d8c759d9,2024-01-23_06h02.34.272,bars,2023.2.3,Win32,59.88023952,657b66ea316d21385b68909f,,,,,,,,,,,625.8073,626.7991,,,627.2995,627.5496,,160,-20,,,,,,,,,,,,,,,,bars/004.png,bars/mask006.png,,,,,,,,,,,,0,2,,,,,,,0,10,1,10,,,,,,,,,,,626.7991,627.2995,627.5497,631.985,space,4.4205,,631.985,45,35,632.9849,632.9849,633.0158,,,,0,1,1,1,1,25,125,,,,,,,,
,,5bec8053b6b5ab00017c7349,65af56682b7145c5d8c759d9,2024-01-23_06h02.34.272,bars,2023.2.3,Win32,59.88023952,657b66ea316d21385b68909f,,,,,,,,,,,633.0164,634.0185,,,634.5285,634.7688,,59,59,,,,,,,,,,,,,,,,bars/030.png,bars/mask002.png,,,,,,,,,,,,6,2,,,,,,,0,8,0,8,,,,,,,,,,,634.0186,634.5285,634.7688,637.6198,space,2.8373,,637.6198,81,6,638.6199,638.6199,638.6447,,,,0,2,2,2,1,140,65,,,,,,,,
,,5bec8053b6b5ab00017c7349,65af56682b7145c5d8c759d9,2024-01-23_06h02.34.272,bars,2023.2.3,Win32,59.88023952,657b66ea316d21385b68909f,,,,,,,,,,,638.645,639.6369,,,640.141,640.3968,,94,94,,,,,,,,,,,,,,,,bars/011.png,bars/mask006.png,,,,,,,,,,,,6,2,,,,,,,2,10,1,9,,,,,,,,,,,639.6369,640.141,640.3969,644.0715,space,3.6579,,644.0715,66,9,645.072,645.0721,645.0998,,,,0,3,3,3,1,160,85,,,,,,,,
,,5bec8053b6b5ab00017c7349,65af56682b7145c5d8c759d9,2024-01-23_06h02.34.272,bars,2023.2.3,Win32,59.88023952,657b66ea316d21385b68909f,,,,,,,,,,,645.1003,646.0889,,,646.5892,646.8392,,8,188,,,,,,,,,,,,,,,,bars/044.png,bars/mask007.png,,,,,,,,,,,,0,2,,,,,,,0,10,0,10,,,,,,,,,,,646.089,646.5891,646.8392,650.924,space,4.0721,,650.924,67,33,651.9241,651.9241,651.9519,,,,0,4,4,4,1,75,155,,,,,,,,
,,5bec8053b6b5ab00017c7349,65af56682b7145c5d8c759d9,2024-01-23_06h02.34.272,bars,2023.2.3,Win32,59.88023952,657b66ea316d21385b68909f,,,,,,,,,,,651.9524,652.9409,,,653.4413,653.6913,,90,270,,,,,,,,,,,,,,,,bars/041.png,bars/mask007.png,,,,,,,,,,,,8,2,,,,,,,0,10,1,9,,,,,,,,,,,652.9409,653.4412,653.6914,657.8928,space,4.1843,,657.8928,70,5,658.8927,658.8928,658.9203,,,,0,5,5,5,1,20,85,,,,,,,,
,,5bec8053b6b5ab00017c7349,65af56682b7145c5d8c759d9,2024-01-23_06h02.34.272,bars,2023.2.3,Win32,59.88023952,657b66ea316d21385b68909f,,,,,,,,,,,658.9205,659.9101,,,660.4101,660.66,,161,-19,,,,,,,,,,,,,,,,bars/015.png,bars/mask009.png,,,,,,,,,,,,9,2,,,,,,,2,10,2,9,,,,,,,,,,,659.9102,660.41,660.6601,662.9106,space,2.2307,,662.9107,51,1,663.911,663.9111,663.9367,,,,0,6,6,6,1,110,160,,,,,,,,
,,5bec8053b6b5ab00017c7349,65af56682b7145c5d8c759d9,2024-01-23_06h02.34.272,bars,2023.2.3,Win32,59.88023952,657b66ea316d21385b68909f,,,,,,,,,,,663.9371,664.928,,,665.4281,665.6783,,170,-10,,,,,,,,,,,,,,,,bars/015.png,bars/mask004.png,,,,,,,,,,,,5,2,,,,,,,0,8,0,8,,,,,,,,,,,664.928,665.4281,665.6784,668.5626,space,2.8687,,668.5626,60,10,669.5629,669.563,669.5905,,,,0,7,7,7,1,110,160,,,,,,,,
,,5bec8053b6b5ab00017c7349,65af56682b7145c5d8c759d9,2024-01-23_06h02.34.272,bars,2023.2.3,Win32,59.88023952,657b66ea316d21385b68909f,,,,,,,,,,,669.5909,670.5801,,,671.0798,671.3303,,31,31,,,,,,,,,,,,,,,,bars/031.png,bars/mask006.png,,,,,,,,,,,,8,2,,,,,,,0,10,0,9,,,,,,,,,,,670.5802,671.0798,671.3304,674.8496,space,3.508,,674.8496,89,4,675.8479,675.8479,675.8664,,,,0,8,8,8,1,120,35,,,,,,,,
,,5bec8053b6b5ab00017c7349,65af56682b7145c5d8c759d9,2024-01-23_06h02.34.272,bars,2023.2.3,Win32,59.88023952,657b66ea316d21385b68909f,,,,,,,,,,,675.8667,676.8653,,,677.3654,677.6154,,72,252,,,,,,,,,,,,,,,,bars/037.png,bars/mask008.png,,,,,,,,,,,,0,2,,,,,,,2,10,3,10,,,,,,,,,,,676.8654,677.3653,677.6154,681.3163,space,3.6837,,681.3163,78,33,682.3165,682.3166,682.3327,,,,0,9,9,9,1,150,105,,,,,,,,
,,5bec8053b6b5ab00017c7349,65af56682b7145c5d8c759d9,2024-01-23_06h02.34.272,bars,2023.2.3,Win32,59.88023952,657b66ea316d21385b68909f,,,,,,,,,,,682.3331,683.3335,,,683.8341,684.0748,,76,256,,,,,,,,,,,,,,,,bars/011.png,bars/mask009.png,,,,,,,,,,,,7,2,,,,,,,4,10,4,10,,,,,,,,,,,683.3335,683.8341,684.0748,688.246,space,4.1524,,688.2462,84,9,689.2367,689.2367,689.2647,,,,0,10,10,10,1,160,85,,,,,,,,
,,5bec8053b6b5ab00017c7349,65af56682b7145c5d8c759d9,2024-01-23_06h02.34.272,bars,2023.2.3,Win32,59.88023952,657b66ea316d21385b68909f,,,,,,,,,,,689.2652,690.2693,,,690.7695,691.0291,,102,102,,,,,,,,,,,,,,,,bars/018.png,bars/mask001.png,,,,,,,,,,,,6,2,,,,,,,2,10,3,10,,,,,,,,,,,690.2693,690.7695,691.0291,692.6798,space,1.6431,,692.6799,48,12,693.6702,693.6702,693.672,,,,0,11,11,11,1,150,90,,,,,,,,
,,5bec8053b6b5ab00017c7349,65af56682b7145c5d8c759d9,2024-01-23_06h02.34.272,bars,2023.2.3,Win32,59.88023952,657b66ea316d21385b68909f,,,,,,,,,,,693.6726,694.6706,,,695.1709,695.4306,,54,54,,,,,,,,,,,,,,,,bars/047.png,bars/mask004.png,,,,,,,,,,,,4,2,,,,,,,4,8,4,8,,,,,,,,,,,694.6706,695.1708,695.4306,698.4159,space,2.9685,,698.416,39,16,699.4062,699.4062,699.4343,,,,0,12,12,12,1,15,70,,,,,,,,
,,5bec8053b6b5ab00017c7349,65af56682b7145c5d8c759d9,2024-01-23_06h02.34.272,bars,2023.2.3,Win32,59.88023952,657b66ea316d21385b68909f,,,,,,,,,,,699.4349,700.4391,,,700.9393,701.1895,,148,148,,,,,,,,,,,,,,,,bars/004.png,bars/mask008.png,,,,,,,,,,,,2,2,,,,,,,2,10,2,9,,,,,,,,,,,700.4391,700.9392,701.1896,703.1901,space,1.9854,,703.1902,57,23,704.1902,704.1902,704.2183,,,,0,13,13,13,1,25,125,,,,,,,,
,,5bec8053b6b5ab00017c7349,65af56682b7145c5d8c759d9,2024-01-23_06h02.34.272,bars,2023.2.3,Win32,59.88023952,657b66ea316d21385b68909f,,,,,,,,,,,704.2188,705.2072,,,705.7167,705.9671,,115,115,,,,,,,,,,,,,,,,bars/009.png,bars/mask007.png,,,,,,,,,,,,7,2,,,,,,,4,10,5,10,,,,,,,,,,,705.2072,705.7166,705.9671,708.1358,space,2.1604,,708.1358,80,10,709.1251,709.1251,709.1528,,,,0,14,14,14,1,15,105,,,,,,,,
,,5bec8053b6b5ab00017c7349,65af56682b7145c5d8c759d9,2024-01-23_06h02.34.272,bars,2023.2.3,Win32,59.88023952,657b66ea316d21385b68909f,,,,,,,,,,,709.1533,710.1423,,,710.6423,710.8918,,81,81,,,,,,,,,,,,,,,,bars/021.png,bars/mask002.png,,,,,,,,,,,,6,2,,,,,,,6,8,6,9,,,,,,,,,,,710.1424,710.6422,710.8918,713.3759,space,2.4726,,713.376,74,11,714.3765,714.3765,714.3954,,,,0,15,15,15,1,155,70,,,,,,,,
,,5bec8053b6b5ab00017c7349,65af56682b7145c5d8c759d9,2024-01-23_06h02.34.272,bars,2023.2.3,Win32,59.88023952,657b66ea316d21385b68909f,,,,,,,,,,,714.3957,715.3936,,,715.8938,716.1439,,143,-37,,,,,,,,,,,,,,,,bars/028.png,bars/mask000.png,,,,,,,,,,,,2,2,,,,,,,4,6,3,7,,,,,,,,,,,715.3936,715.8938,716.1439,720.1955,space,4.0216,,720.1956,82,23,721.1954,721.1954,721.2232,,,,0,16,16,16,1,45,120,,,,,,,,
,,5bec8053b6b5ab00017c7349,65af56682b7145c5d8c759d9,2024-01-23_06h02.34.272,bars,2023.2.3,Win32,59.88023952,657b66ea316d21385b68909f,,,,,,,,,,,721.2238,722.2119,,,722.7126,722.9558,,169,-11,,,,,,,,,,,,,,,,bars/040.png,bars/mask003.png,,,,,,,,,,,,3,2,,,,,,,6,4,7,6,,,,,,,,,,,722.212,722.7126,722.9558,727.197,space,4.2204,,727.197,29,16,728.2027,728.2028,728.2306,,,,0,17,17,17,1,140,5,,,,,,,,
,,5bec8053b6b5ab00017c7349,65af56682b7145c5d8c759d9,2024-01-23_06h02.34.272,bars,2023.2.3,Win32,59.88023952,657b66ea316d21385b68909f,,,,,,,,,,,728.231,729.2313,,,729.7314,729.9812,,97,97,,,,,,,,,,,,,,,,bars/018.png,bars/mask005.png,,,,,,,,,,,,2,2,,,,,,,8,2,8,2,,,,,,,,,,,729.2313,729.7314,729.9812,733.4679,space,3.4758,,733.4679,53,7,734.4663,734.4664,734.4922,,,,0,18,18,18,1,150,90,,,,,,,,
,,5bec8053b6b5ab00017c7349,65af56682b7145c5d8c759d9,2024-01-23_06h02.34.272,bars,2023.2.3,Win32,59.88023952,657b66ea316d21385b68909f,,,,,,,,,,,734.4924,735.4827,,,735.983,736.2335,,170,-10,,,,,,,,,,,,,,,,bars/048.png,bars/mask004.png,,,,,,,,,,,,3,2,,,,,,,10,4,10,3,,,,,,,,,,,735.4827,735.983,736.2335,738.6844,space,2.435,,738.6845,60,5,739.6845,739.6846,739.6858,,,,0,19,19,19,1,50,175,,,,,,,,
,,5bec8053b6b5ab00017c7349,65af56682b7145c5d8c759d9,2024-01-23_06h02.34.272,bars,2023.2.3,Win32,59.88023952,657b66ea316d21385b68909f,,,,,,,,,,,739.6863,740.6944,,,741.185,741.4348,,167,-13,,,,,,,,,,,,,,,,bars/015.png,bars/mask008.png,,,,,,,,,,,,5,2,,,,,,,10,6,10,6,,,,,,,,,,,740.6944,741.185,741.4349,744.5804,space,3.1359,,744.5806,57,7,745.5696,745.5697,745.5941,,,,0,20,20,20,1,110,160,,,,,,,,
,,5bec8053b6b5ab00017c7349,65af56682b7145c5d8c759d9,2024-01-23_06h02.34.272,bars,2023.2.3,Win32,59.88023952,657b66ea316d21385b68909f,,,,,,,,,,,745.5945,746.5921,,,747.0968,747.3368,,90,270,,,,,,,,,,,,,,,,bars/001.png,bars/mask007.png,,,,,,,,,,,,3,2,,,,,,,10,4,9,4,,,,,,,,,,,746.5921,747.0967,747.3368,751.4157,space,4.069,,751.4158,40,5,752.4056,752.4057,752.4321,,,,0,21,21,21,1,130,85,,,,,,,,
,,5bec8053b6b5ab00017c7349,65af56682b7145c5d8c759d9,2024-01-23_06h02.34.272,bars,2023.2.3,Win32,59.88023952,657b66ea316d21385b68909f,,,,,,,,,,,752.4324,753.4218,,,753.9225,754.1723,,133,133,,,,,,,,,,,,,,,,bars/023.png,bars/mask008.png,,,,,,,,,,,,3,2,,,,,,,10,6,10,7,,,,,,,,,,,753.4219,753.9225,754.1724,756.0731,space,1.8924,,756.0733,67,18,757.0729,757.0729,757.093,,,,0,22,22,22,1,20,115,,,,,,,,
,,5bec8053b6b5ab00017c7349,65af56682b7145c5d8c759d9,2024-01-23_06h02.34.272,bars,2023.2.3,Win32,59.88023952,657b66ea316d21385b68909f,,,,,,,,,,,757.0936,758.0898,,,758.5903,758.8453,,169,-11,,,,,,,,,,,,,,,,bars/048.png,bars/mask006.png,,,,,,,,,,,,3,2,,,,,,,8,4,7,4,,,,,,,,,,,758.0898,758.5902,758.8453,761.7853,space,2.9184,,761.7854,61,6,762.7757,762.7758,762.8038,,,,0,23,23,23,1,50,175,,,,,,,,
,,5bec8053b6b5ab00017c7349,65af56682b7145c5d8c759d9,2024-01-23_06h02.34.272,bars,2023.2.3,Win32,59.88023952,657b66ea316d21385b68909f,,,,,,,,,,,762.8044,763.8084,,,764.3089,764.559,,29,29,,,,,,,,,,,,,,,,bars/010.png,bars/mask000.png,,,,,,,,,,,,1,2,,,,,,,6,6,6,6,,,,,,,,,,,763.8084,764.3088,764.559,766.2432,space,1.6692,,766.2435,44,26,767.243,767.2431,767.2444,,,,0,24,24,24,1,165,55,,,,,,,,
,,5bec8053b6b5ab00017c7349,65af56682b7145c5d8c759d9,2024-01-23_06h02.34.272,bars,2023.2.3,Win32,59.88023952,657b66ea316d21385b68909f,,,,,,,,,,,767.2451,768.2433,,,768.743,768.9934,,100,280,,,,,,,,,,,,,,,,bars/006.png,bars/mask007.png,,,,,,,,,,,,8,2,,,,,,,4,8,4,8,,,,,,,,,,,768.2433,768.743,768.9934,773.4621,space,4.453,,773.4625,65,0,774.4619,774.4619,774.4854,,,,0,25,25,25,1,35,100,,,,,,,,
,,5bec8053b6b5ab00017c7349,65af56682b7145c5d8c759d9,2024-01-23_06h02.34.272,bars,2023.2.3,Win32,59.88023952,657b66ea316d21385b68909f,,,,,,,,,,,774.4857,775.4789,,,775.9883,776.2292,,105,285,,,,,,,,,,,,,,,,bars/042.png,bars/mask002.png,,,,,,,,,,,,0,2,,,,,,,6,6,4,6,,,,,,,,,,,775.4789,775.9883,776.2292,781.0747,space,4.8357,,781.0748,40,30,782.0643,782.0644,782.0922,,,,0,26,26,26,1,145,75,,,,,,,,
,,5bec8053b6b5ab00017c7349,65af56682b7145c5d8c759d9,2024-01-23_06h02.34.272,bars,2023.2.3,Win32,59.88023952,657b66ea316d21385b68909f,,,,,,,,,,,782.0927,783.0815,,,783.5816,783.8315,,132,132,,,,,,,,,,,,,,,,bars/028.png,bars/mask002.png,,,,,,,,,,,,5,2,,,,,,,4,8,3,8,,,,,,,,,,,783.0815,783.5815,783.8316,785.5928,space,1.7495,,785.5929,87,12,786.5823,786.5824,786.6105,,,,0,27,27,27,1,45,120,,,,,,,,
,,5bec8053b6b5ab00017c7349,65af56682b7145c5d8c759d9,2024-01-23_06h02.34.272,bars,2023.2.3,Win32,59.88023952,657b66ea316d21385b68909f,,,,,,,,,,,786.611,787.5995,,,788.0994,788.3492,,174,174,,,,,,,,,,,,,,,,bars/015.png,bars/mask008.png,,,,,,,,,,,,3,2,,,,,,,6,6,7,5,,,,,,,,,,,787.5996,788.0994,788.3492,791.9847,space,3.6237,,791.9847,64,14,792.9844,792.9845,793.0122,,,,0,28,28,28,1,110,160,,,,,,,,
,,5bec8053b6b5ab00017c7349,65af56682b7145c5d8c759d9,2024-01-23_06h02.34.272,bars,2023.2.3,Win32,59.88023952,657b66ea316d21385b68909f,,,,,,,,,,,793.0127,794.0018,,,794.5013,794.7513,,168,-12,,,,,,,,,,,,,,,,bars/024.png,bars/mask001.png,,,,,,,,,,,,8,2,,,,,,,4,8,5,9,,,,,,,,,,,794.0018,794.5013,794.7513,798.6135,space,3.836,,798.6137,48,2,799.6025,799.6025,799.6119,,,,0,29,29,29,1,120,170,,,,,,,,
,,5bec8053b6b5ab00017c7349,65af56682b7145c5d8c759d9,2024-01-23_06h02.34.272,bars,2023.2.3,Win32,59.88023952,657b66ea316d21385b68909f,,,,,,,,,,,799.6122,800.6033,,,801.0955,801.3367,,39,39,,,,,,,,,,,,,,,,bars/025.png,bars/mask007.png,,,,,,,,,,,,5,2,,,,,,,6,6,5,5,,,,,,,,,,,800.6033,801.0955,801.3368,802.8715,space,1.5135,,802.8716,66,1,803.8711,803.8711,803.8726,,,,0,30,30,30,1,105,40,,,,,,,,
,,5bec8053b6b5ab00017c7349,65af56682b7145c5d8c759d9,2024-01-23_06h02.34.272,bars,2023.2.3,Win32,59.88023952,657b66ea316d21385b68909f,,,,,,,,,,,803.8731,804.8711,,,805.3714,805.6217,,57,237,,,,,,,,,,,,,,,,bars/027.png,bars/mask003.png,,,,,,,,,,,,8,2,,,,,,,4,8,3,10,,,,,,,,,,,804.8712,805.3714,805.6218,810.7171,space,5.0693,,810.7171,53,7,811.7066,811.7067,811.7353,,,,0,31,31,31,1,110,50,,,,,,,,
,,5bec8053b6b5ab00017c7349,65af56682b7145c5d8c759d9,2024-01-23_06h02.34.272,bars,2023.2.3,Win32,59.88023952,657b66ea316d21385b68909f,,,,,,,,,,,811.7357,812.7241,,,813.224,813.4737,,140,140,,,,,,,,,,,,,,,,bars/028.png,bars/mask008.png,,,,,,,,,,,,2,2,,,,,,,2,6,4,7,,,,,,,,,,,812.7242,813.2239,813.4737,816.5585,space,3.0733,,816.5586,85,20,817.5683,817.5683,817.5964,,,,0,32,32,32,1,45,120,,,,,,,,
,,5bec8053b6b5ab00017c7349,65af56682b7145c5d8c759d9,2024-01-23_06h02.34.272,bars,2023.2.3,Win32,59.88023952,657b66ea316d21385b68909f,,,,,,,,,,,817.5969,818.6021,,,819.0924,819.3424,,106,106,,,,,,,,,,,,,,,,bars/046.png,bars/mask002.png,,,,,,,,,,,,2,2,,,,,,,0,8,0,8,,,,,,,,,,,818.6022,819.0924,819.3425,822.0373,space,2.6852,,822.0374,49,21,823.036,823.036,823.0548,,,,0,33,33,33,1,155,85,,,,,,,,
,,5bec8053b6b5ab00017c7349,65af56682b7145c5d8c759d9,2024-01-23_06h02.34.272,bars,2023.2.3,Win32,59.88023952,657b66ea316d21385b68909f,,,,,,,,,,,823.0551,824.0436,,,824.5442,824.7944,,163,-17,,,,,,,,,,,,,,,,bars/014.png,bars/mask009.png,,,,,,,,,,,,3,2,,,,,,,2,6,2,7,,,,,,,,,,,824.0436,824.5442,824.7944,828.8953,space,4.0926,,828.8955,83,17,829.8953,829.8953,829.9028,,,,0,34,34,34,1,80,0,,,,,,,,
,,5bec8053b6b5ab00017c7349,65af56682b7145c5d8c759d9,2024-01-23_06h02.34.272,bars,2023.2.3,Win32,59.88023952,657b66ea316d21385b68909f,,,,,,,,,,,829.903,830.896,,,831.3963,831.6457,,104,104,,,,,,,,,,,,,,,,bars/002.png,bars/mask004.png,,,,,,,,,,,,1,2,,,,,,,0,4,1,4,,,,,,,,,,,830.8961,831.3963,831.6457,834.7307,space,3.0668,,834.7308,26,19,835.7305,835.7305,835.7428,,,,0,35,35,35,1,130,85,,,,,,,,
,,5bec8053b6b5ab00017c7349,65af56682b7145c5d8c759d9,2024-01-23_06h02.34.272,bars,2023.2.3,Win32,59.88023952,657b66ea316d21385b68909f,,,,,,,,,,,835.7433,836.7311,,,837.2314,837.4811,,78,78,,,,,,,,,,,,,,,,bars/046.png,bars/mask008.png,,,,,,,,,,,,3,2,,,,,,,0,6,0,4,,,,,,,,,,,836.7312,837.2313,837.4811,839.9991,space,2.5065,,839.9992,77,7,840.999,840.999,841.0197,,,,0,36,36,36,1,155,85,,,,,,,,
,,5bec8053b6b5ab00017c7349,65af56682b7145c5d8c759d9,2024-01-23_06h02.34.272,bars,2023.2.3,Win32,59.88023952,657b66ea316d21385b68909f,,,,,,,,,,,841.0201,842.0255,,,842.5163,842.7663,,0,180,,,,,,,,,,,,,,,,bars/044.png,bars/mask001.png,,,,,,,,,,,,1,2,,,,,,,2,4,2,5,,,,,,,,,,,842.0255,842.5163,842.7664,844.7202,space,1.9278,,844.7203,75,25,845.727,845.727,845.7556,,,,0,37,37,37,1,75,155,,,,,,,,
,,5bec8053b6b5ab00017c7349,65af56682b7145c5d8c759d9,2024-01-23_06h02.34.272,bars,2023.2.3,Win32,59.88023952,657b66ea316d21385b68909f,,,,,,,,,,,845.7561,846.7515,,,847.251,847.5012,,91,91,,,,,,,,,,,,,,,,bars/038.png,bars/mask007.png,,,,,,,,,,,,2,2,,,,,,,4,6,5,6,,,,,,,,,,,846.7515,847.251,847.5012,856.6324,space,9.1055,,856.6324,74,21,857.6209,857.6209,857.6509,,,,0,38,38,38,1,165,70,,,,,,,,
,,5bec8053b6b5ab00017c7349,65af56682b7145c5d8c759d9,2024-01-23_06h02.34.272,bars,2023.2.3,Win32,59.88023952,657b66ea316d21385b68909f,,,,,,,,,,,857.6514,858.643,,,859.1382,859.3883,,92,92,,,,,,,,,,,,,,,,bars/006.png,bars/mask003.png,,,,,,,,,,,,6,2,,,,,,,2,8,1,8,,,,,,,,,,,858.643,859.1381,859.3883,861.8222,space,2.4081,,861.8223,57,8,862.8226,862.8226,862.8506,,,,0,39,39,39,1,35,100,,,,,,,,
,,5bec8053b6b5ab00017c7349,65af56682b7145c5d8c759d9,2024-01-23_06h02.34.272,bars,2023.2.3,Win32,59.88023952,657b66ea316d21385b68909f,,,,,,,,,,,862.8511,863.8395,,,864.3398,864.5897,,161,-19,,,,,,,,,,,,,,,,bars/004.png,bars/mask003.png,,,,,,,,,,,,0,2,,,,,,,0,10,0,10,,,,,,,,,,,863.8396,864.3397,864.5898,868.091,space,3.482,,868.0911,44,36,869.0912,869.0912,869.1189,,,,0,40,40,40,1,25,125,,,,,,,,
,,5bec8053b6b5ab00017c7349,65af56682b7145c5d8c759d9,2024-01-23_06h02.34.272,bars,2023.2.3,Win32,59.88023952,657b66ea316d21385b68909f,,,,,,,,,,,869.1195,870.1085,,,870.6085,870.8584,,140,140,,,,,,,,,,,,,,,,bars/028.png,bars/mask009.png,,,,,,,,,,,,3,2,,,,,,,0,8,1,10,,,,,,,,,,,870.1085,870.6084,870.8585,875.7434,space,4.8647,,875.7435,85,20,876.7434,876.7435,876.7714,,,,0,41,41,41,1,45,120,,,,,,,,
,,5bec8053b6b5ab00017c7349,65af56682b7145c5d8c759d9,2024-01-23_06h02.34.272,bars,2023.2.3,Win32,59.88023952,657b66ea316d21385b68909f,,,,,,,,,,,876.7719,877.7604,,,878.2605,878.5108,,0,180,,,,,,,,,,,,,,,,bars/012.png,bars/mask008.png,,,,,,,,,,,,5,2,,,,,,,0,10,0,10,,,,,,,,,,,877.7605,878.2605,878.5109,880.0443,space,1.5157,,880.0443,90,15,881.0446,881.0446,881.0454,,,,0,42,42,42,1,90,15,,,,,,,,
,,5bec8053b6b5ab00017c7349,65af56682b7145c5d8c759d9,2024-01-23_06h02.34.272,bars,2023.2.3,Win32,59.88023952,657b66ea316d21385b68909f,,,,,,,,,,,881.0457,882.0448,,,882.5454,882.7951,,92,92,,,,,,,,,,,,,,,,bars/019.png,bars/mask002.png,,,,,,,,,,,,6,2,,,,,,,2,10,2,10,,,,,,,,,,,882.0448,882.5453,882.7952,885.0455,space,2.2378,,885.0456,47,13,886.0465,886.0466,886.0744,,,,0,43,43,43,1,45,105,,,,,,,,
,,5bec8053b6b5ab00017c7349,65af56682b7145c5d8c759d9,2024-01-23_06h02.34.272,bars,2023.2.3,Win32,59.88023952,657b66ea316d21385b68909f,,,,,,,,,,,886.0748,887.063,,,887.5634,887.8135,,101,101,,,,,,,,,,,,,,,,bars/009.png,bars/mask008.png,,,,,,,,,,,,8,2,,,,,,,0,8,1,9,,,,,,,,,,,887.063,887.5634,887.8135,891.6318,space,3.8056,,891.6318,86,4,892.6318,892.632,892.6603,,,,0,44,44,44,1,15,105,,,,,,,,
,,5bec8053b6b5ab00017c7349,65af56682b7145c5d8c759d9,2024-01-23_06h02.34.272,bars,2023.2.3,Win32,59.88023952,657b66ea316d21385b68909f,,,,,,,,,,,892.6608,893.6489,,,894.1582,894.4081,,8,188,,,,,,,,,,,,,,,,bars/045.png,bars/mask006.png,,,,,,,,,,,,9,2,,,,,,,0,10,0,10,,,,,,,,,,,893.649,894.1582,894.4081,896.7298,space,2.3047,,896.7298,88,2,897.7333,897.7334,897.7346,,,,0,45,45,45,1,100,10,,,,,,,,
,,5bec8053b6b5ab00017c7349,65af56682b7145c5d8c759d9,2024-01-23_06h02.34.272,bars,2023.2.3,Win32,59.88023952,657b66ea316d21385b68909f,,,,,,,,,,,897.7352,898.7434,,,899.2337,899.4722,,17,17,,,,,,,,,,,,,,,,bars/025.png,bars/mask005.png,,,,,,,,,,,,2,2,,,,,,,0,10,0,10,,,,,,,,,,,898.7434,899.2337,899.4722,904.5856,space,5.0896,,904.5857,88,23,905.579,905.579,905.6081,,,,0,46,46,46,1,105,40,,,,,,,,
,,5bec8053b6b5ab00017c7349,65af56682b7145c5d8c759d9,2024-01-23_06h02.34.272,bars,2023.2.3,Win32,59.88023952,657b66ea316d21385b68909f,,,,,,,,,,,905.6086,906.6023,,,907.1031,907.3529,,99,99,,,,,,,,,,,,,,,,bars/011.png,bars/mask004.png,,,,,,,,,,,,4,2,,,,,,,0,8,0,8,,,,,,,,,,,906.6023,907.103,907.3529,909.932,space,2.553,,909.9321,61,14,910.9305,910.9305,910.9587,,,,0,47,47,47,1,160,85,,,,,,,,
,,5bec8053b6b5ab00017c7349,65af56682b7145c5d8c759d9,2024-01-23_06h02.34.272,bars,2023.2.3,Win32,59.88023952,657b66ea316d21385b68909f,,,,,,,,,,,910.9592,911.9642,,,912.4545,912.7043,,111,-69,,,,,,,,,,,,,,,,bars/028.png,bars/mask004.png,,,,,,,,,,,,5,2,,,,,,,0,6,0,7,,,,,,,,,,,911.9642,912.4545,912.7044,918.2226,space,5.485,,918.2226,66,9,919.2234,919.2234,919.2513,,,,0,48,48,48,1,45,120,,,,,,,,
,,5bec8053b6b5ab00017c7349,65af56682b7145c5d8c759d9,2024-01-23_06h02.34.272,bars,2023.2.3,Win32,59.88023952,657b66ea316d21385b68909f,,,,,,,,,,,919.2518,920.2403,,,920.7404,920.99,,61,61,,,,,,,,,,,,,,,,bars/046.png,bars/mask006.png,,,,,,,,,,,,1,2,,,,,,,2,4,3,5,,,,,,,,,,,920.2404,920.7403,920.9901,923.3913,space,2.3901,,923.3913,86,24,924.3915,924.3916,924.4197,,,,0,49,49,49,1,155,85,,,,,,,,
,,5bec8053b6b5ab00017c7349,65af56682b7145c5d8c759d9,2024-01-23_06h02.34.272,bars,2023.2.3,Win32,59.88023952,657b66ea316d21385b68909f,,,,,,,,,,,,,,,,,,,,,,,,,,,,,,,,,,,,,,,,,,,,,,,,,,,,,,,,,,,,,,,,,,,,,,,,,,,,,,,,,,,,,,,,,,,,,924.4199,984.4098,0,1,1,0,1,sequence_tables/blk003.csv
,,5bec8053b6b5ab00017c7349,65af56682b7145c5d8c759d9,2024-01-23_06h02.34.272,bars,2023.2.3,Win32,59.88023952,657b66ea316d21385b68909f,,,,,,,,,,,985.6594,986.6617,,,987.1445,987.3946,,134,-46,,,,,,,,,,,,,,,,bars/028.png,bars/mask003.png,,,,,,,,,,,,4,2,,,,,,,2,7,4,8,,,,,,984.4247,985.6442,space,1.2061,,986.6617,987.1445,987.3946,990.8129,space,3.4017,,990.813,89,14,991.8127,991.8128,991.8409,,,,0,0,0,0,1,45,120,,,,,,,,
,,5bec8053b6b5ab00017c7349,65af56682b7145c5d8c759d9,2024-01-23_06h02.34.272,bars,2023.2.3,Win32,59.88023952,657b66ea316d21385b68909f,,,,,,,,,,,991.8414,992.8295,,,993.3296,993.5797,,174,-6,,,,,,,,,,,,,,,,bars/044.png,bars/mask000.png,,,,,,,,,,,,2,2,,,,,,,4,5,3,5,,,,,,,,,,,992.8296,993.3295,993.5798,997.2309,space,3.6355,,997.231,81,19,998.2307,998.2307,998.2438,,,,0,1,1,1,1,75,155,,,,,,,,
,,5bec8053b6b5ab00017c7349,65af56682b7145c5d8c759d9,2024-01-23_06h02.34.272,bars,2023.2.3,Win32,59.88023952,657b66ea316d21385b68909f,,,,,,,,,,,998.244,999.248,,,999.7481,999.9978,,164,-16,,,,,,,,,,,,,,,,bars/020.png,bars/mask003.png,,,,,,,,,,,,6,2,,,,,,,6,7,7,8,,,,,,,,,,,999.2481,999.7481,999.9978,1002.5834,space,2.5746,,1002.5835,49,6,1003.5823,1003.5824,1003.6008,,,,0,2,2,2,1,115,170,,,,,,,,
,,5bec8053b6b5ab00017c7349,65af56682b7145c5d8c759d9,2024-01-23_06h02.34.272,bars,2023.2.3,Win32,59.88023952,657b66ea316d21385b68909f,,,,,,,,,,,1003.601,1004.5997,,,1005.109,1005.3598,,72,72,,,,,,,,,,,,,,,,bars/026.png,bars/mask002.png,,,,,,,,,,,,3,2,,,,,,,8,5,7,5,,,,,,,,,,,1004.5997,1005.109,1005.3598,1009.7787,space,4.4028,,1009.7788,37,13,1010.7682,1010.7683,1010.796,,,,0,3,3,3,1,35,85,,,,,,,,
,,5bec8053b6b5ab00017c7349,65af56682b7145c5d8c759d9,2024-01-23_06h02.34.272,bars,2023.2.3,Win32,59.88023952,657b66ea316d21385b68909f,,,,,,,,,,,1010.7966,1011.7851,,,1012.2855,1012.5355,,109,109,,,,,,,,,,,,,,,,bars/002.png,bars/mask009.png,,,,,,,,,,,,2,1,,,,,,,6,3,6,2,,,,,,,,,,,1011.7851,1012.2854,1012.5356,1016.4367,space,3.8882,,1016.4368,21,24,1017.4369,1017.437,1017.4669,,,,0,4,4,4,1,130,85,,,,,,,,
,,5bec8053b6b5ab00017c7349,65af56682b7145c5d8c759d9,2024-01-23_06h02.34.272,bars,2023.2.3,Win32,59.88023952,657b66ea316d21385b68909f,,,,,,,,,,,1017.4674,1018.4707,,,1018.9709,1019.2204,,13,193,,,,,,,,,,,,,,,,bars/036.png,bars/mask009.png,,,,,,,,,,,,5,2,,,,,,,4,5,4,6,,,,,,,,,,,1018.4708,1018.9708,1019.2204,1023.3559,space,4.1202,,1023.3561,48,7,1024.3558,1024.3558,1024.386,,,,0,5,5,5,1,145,20,,,,,,,,
,,5bec8053b6b5ab00017c7349,65af56682b7145c5d8c759d9,2024-01-23_06h02.34.272,bars,2023.2.3,Win32,59.88023952,657b66ea316d21385b68909f,,,,,,,,,,,1024.3865,1025.3895,,,1025.8896,1026.1397,,2,2,,,,,,,,,,,,,,,,bars/013.png,bars/mask007.png,,,,,,,,,,,,2,2,,,,,,,2,3,3,3,,,,,,,,,,,1025.3895,1025.8895,1026.1398,1030.3246,space,4.1689,,1030.3246,73,8,1031.3246,1031.3247,1031.3527,,,,0,6,6,6,1,75,10,,,,,,,,
,,5bec8053b6b5ab00017c7349,65af56682b7145c5d8c759d9,2024-01-23_06h02.34.272,bars,2023.2.3,Win32,59.88023952,657b66ea316d21385b68909f,,,,,,,,,,,1031.3532,1032.3417,,,1032.8421,1033.0919,,12,12,,,,,,,,,,,,,,,,bars/014.png,bars/mask002.png,,,,,,,,,,,,1,2,,,,,,,4,1,6,2,,,,,,,,,,,1032.3419,1032.842,1033.092,1036.6097,space,3.4983,,1036.6098,68,12,1037.6096,1037.6096,1037.6253,,,,0,7,7,7,1,80,0,,,,,,,,
,,5bec8053b6b5ab00017c7349,65af56682b7145c5d8c759d9,2024-01-23_06h02.34.272,bars,2023.2.3,Win32,59.88023952,657b66ea316d21385b68909f,,,,,,,,,,,1037.6256,1038.6269,,,1039.1271,1039.377,,16,196,,,,,,,,,,,,,,,,bars/022.png,bars/mask005.png,,,,,,,,,,,,3,2,,,,,,,6,3,5,4,,,,,,,,,,,1038.6269,1039.1271,1039.3771,1041.4387,space,2.0352,,1041.4387,79,4,1042.4373,1042.4373,1042.4385,,,,0,8,8,8,1,95,20,,,,,,,,
,,5bec8053b6b5ab00017c7349,65af56682b7145c5d8c759d9,2024-01-23_06h02.34.272,bars,2023.2.3,Win32,59.88023952,657b66ea316d21385b68909f,,,,,,,,,,,1042.4392,1043.438,,,1043.9385,1044.1884,,65,245,,,,,,,,,,,,,,,,bars/047.png,bars/mask007.png,,,,,,,,,,,,4,2,,,,,,,8,5,7,5,,,,,,,,,,,1043.4381,1043.9384,1044.1884,1047.9685,space,3.7641,,1047.9686,50,5,1048.9633,1048.9633,1048.9862,,,,0,9,9,9,1,15,70,,,,,,,,
,,5bec8053b6b5ab00017c7349,65af56682b7145c5d8c759d9,2024-01-23_06h02.34.272,bars,2023.2.3,Win32,59.88023952,657b66ea316d21385b68909f,,,,,,,,,,,1048.9864,1049.9803,,,1050.4853,1050.7306,,20,200,,,,,,,,,,,,,,,,bars/014.png,bars/mask001.png,,,,,,,,,,,,1,2,,,,,,,10,3,10,4,,,,,,,,,,,1049.9804,1050.4853,1050.7306,1052.9578,space,2.2011,,1052.9578,60,20,1053.9533,1053.9533,1053.9811,,,,0,10,10,10,1,80,0,,,,,,,,
,,5bec8053b6b5ab00017c7349,65af56682b7145c5d8c759d9,2024-01-23_06h02.34.272,bars,2023.2.3,Win32,59.88023952,657b66ea316d21385b68909f,,,,,,,,,,,1053.9816,1054.9906,,,1055.492,1055.7322,,58,58,,,,,,,,,,,,,,,,bars/021.png,bars/mask006.png,,,,,,,,,,,,2,2,,,,,,,10,1,10,4,,,,,,,,,,,1054.9906,1055.492,1055.7323,1057.9602,space,2.2017,,1057.9604,83,12,1058.9497,1058.9498,1058.974,,,,0,11,11,11,1,155,70,,,,,,,,
,,5bec8053b6b5ab00017c7349,65af56682b7145c5d8c759d9,2024-01-23_06h02.34.272,bars,2023.2.3,Win32,59.88023952,657b66ea316d21385b68909f,,,,,,,,,,,1058.9743,1059.9756,,,1060.472,1060.7171,,113,113,,,,,,,,,,,,,,,,bars/006.png,bars/mask001.png,,,,,,,,,,,,2,2,,,,,,,10,3,10,3,,,,,,,,,,,1059.9756,1060.472,1060.7171,1064.1629,space,3.4355,,1064.163,78,13,1065.1523,1065.1523,1065.1801,,,,0,12,12,12,1,35,100,,,,,,,,
,,5bec8053b6b5ab00017c7349,65af56682b7145c5d8c759d9,2024-01-23_06h02.34.272,bars,2023.2.3,Win32,59.88023952,657b66ea316d21385b68909f,,,,,,,,,,,1065.1806,1066.1689,,,1066.6689,1066.919,,39,39,,,,,,,,,,,,,,,,bars/025.png,bars/mask001.png,,,,,,,,,,,,3,2,,,,,,,8,5,6,3,,,,,,,,,,,1066.1689,1066.6688,1066.919,1069.3199,space,2.3815,,1069.32,66,1,1070.3199,1070.3199,1070.3447,,,,0,13,13,13,1,105,40,,,,,,,,
,,5bec8053b6b5ab00017c7349,65af56682b7145c5d8c759d9,2024-01-23_06h02.34.272,bars,2023.2.3,Win32,59.88023952,657b66ea316d21385b68909f,,,,,,,,,,,1070.345,1071.3364,,,1071.8367,1072.0803,,77,77,,,,,,,,,,,,,,,,bars/042.png,bars/mask009.png,,,,,,,,,,,,7,2,,,,,,,10,7,10,8,,,,,,,,,,,1071.3364,1071.8367,1072.0803,1074.5213,space,2.4214,,1074.5214,68,2,1075.5215,1075.5216,1075.5499,,,,0,14,14,14,1,145,75,,,,,,,,
,,5bec8053b6b5ab00017c7349,65af56682b7145c5d8c759d9,2024-01-23_06h02.34.272,bars,2023.2.3,Win32,59.88023952,657b66ea316d21385b68909f,,,,,,,,,,,1075.5504,1076.5384,,,1077.0386,1077.2887,,164,164,,,,,,,,,,,,,,,,bars/024.png,bars/mask005.png,,,,,,,,,,,,3,2,,,,,,,8,5,7,4,,,,,,,,,,,1076.5385,1077.0386,1077.2888,1079.456,space,2.1531,,1079.456,44,6,1080.4562,1080.4562,1080.4572,,,,0,15,15,15,1,120,170,,,,,,,,
,,5bec8053b6b5ab00017c7349,65af56682b7145c5d8c759d9,2024-01-23_06h02.34.272,bars,2023.2.3,Win32,59.88023952,657b66ea316d21385b68909f,,,,,,,,,,,1080.4575,1081.4568,,,1081.9568,1082.207,,23,203,,,,,,,,,,,,,,,,bars/013.png,bars/mask008.png,,,,,,,,,,,,3,2,,,,,,,6,3,5,5,,,,,,,,,,,1081.4568,1081.9567,1082.2071,1084.2412,space,2.0139,,1084.2412,52,13,1085.2412,1085.2412,1085.2691,,,,0,16,16,16,1,75,10,,,,,,,,
,,5bec8053b6b5ab00017c7349,65af56682b7145c5d8c759d9,2024-01-23_06h02.34.272,bars,2023.2.3,Win32,59.88023952,657b66ea316d21385b68909f,,,,,,,,,,,1085.2696,1086.2582,,,1086.7585,1087.0084,,163,-17,,,,,,,,,,,,,,,,bars/015.png,bars/mask001.png,,,,,,,,,,,,5,2,,,,,,,8,5,8,5,,,,,,,,,,,1086.2583,1086.7584,1087.0084,1088.8598,space,1.8386,,1088.86,53,3,1089.8592,1089.8593,1089.8606,,,,0,17,17,17,1,110,160,,,,,,,,
,,5bec8053b6b5ab00017c7349,65af56682b7145c5d8c759d9,2024-01-23_06h02.34.272,bars,2023.2.3,Win32,59.88023952,657b66ea316d21385b68909f,,,,,,,,,,,1089.8611,1090.8596,,,1091.3598,1091.6146,,78,78,,,,,,,,,,,,,,,,bars/042.png,bars/mask006.png,,,,,,,,,,,,3,2,,,,,,,6,3,7,3,,,,,,,,,,,1090.8596,1091.3597,1091.6147,1094.7779,space,3.1354,,1094.7779,67,3,1095.7779,1095.778,1095.8057,,,,0,18,18,18,1,145,75,,,,,,,,
,,5bec8053b6b5ab00017c7349,65af56682b7145c5d8c759d9,2024-01-23_06h02.34.272,bars,2023.2.3,Win32,59.88023952,657b66ea316d21385b68909f,,,,,,,,,,,1095.8063,1096.795,,,1097.2949,1097.5451,,160,-20,,,,,,,,,,,,,,,,bars/016.png,bars/mask009.png,,,,,,,,,,,,1,2,,,,,,,8,1,9,1,,,,,,,,,,,1096.795,1097.2949,1097.5451,1101.7461,space,4.1803,,1101.7462,60,5,1102.7467,1102.7468,1102.7723,,,,0,19,19,19,1,40,165,,,,,,,,
,,5bec8053b6b5ab00017c7349,65af56682b7145c5d8c759d9,2024-01-23_06h02.34.272,bars,2023.2.3,Win32,59.88023952,657b66ea316d21385b68909f,,,,,,,,,,,1102.7724,1103.7638,,,1104.264,1104.514,,148,-32,,,,,,,,,,,,,,,,bars/043.png,bars/mask004.png,,,,,,,,,,,,0,2,,,,,,,10,0,10,0,,,,,,,,,,,1103.7638,1104.2639,1104.5142,1106.815,space,2.285,,1106.815,62,18,1107.8148,1107.8148,1107.8351,,,,0,20,20,20,1,30,130,,,,,,,,
,,5bec8053b6b5ab00017c7349,65af56682b7145c5d8c759d9,2024-01-23_06h02.34.272,bars,2023.2.3,Win32,59.88023952,657b66ea316d21385b68909f,,,,,,,,,,,1107.8355,1108.8321,,,1109.3323,1109.5825,,151,-29,,,,,,,,,,,,,,,,bars/043.png,bars/mask002.png,,,,,,,,,,,,0,2,,,,,,,8,0,6,0,,,,,,,,,,,1108.8322,1109.3322,1109.5825,1113.5837,space,3.9855,,1113.5839,59,21,1114.5837,1114.5837,1114.6113,,,,0,21,21,21,1,30,130,,,,,,,,
,,5bec8053b6b5ab00017c7349,65af56682b7145c5d8c759d9,2024-01-23_06h02.34.272,bars,2023.2.3,Win32,59.88023952,657b66ea316d21385b68909f,,,,,,,,,,,1114.612,1115.6004,,,1116.1007,1116.3508,,4,184,,,,,,,,,,,,,,,,bars/045.png,bars/mask004.png,,,,,,,,,,,,0,2,,,,,,,6,0,7,0,,,,,,,,,,,1115.6005,1116.1007,1116.3508,1117.9517,space,1.5878,,1117.9517,84,6,1118.9519,1118.952,1118.9798,,,,0,22,22,22,1,100,10,,,,,,,,
,,5bec8053b6b5ab00017c7349,65af56682b7145c5d8c759d9,2024-01-23_06h02.34.272,bars,2023.2.3,Win32,59.88023952,657b66ea316d21385b68909f,,,,,,,,,,,1118.9803,1119.9687,,,1120.4688,1120.7185,,72,252,,,,,,,,,,,,,,,,bars/021.png,bars/mask001.png,,,,,,,,,,,,1,2,,,,,,,4,2,2,1,,,,,,,,,,,1119.9687,1120.4687,1120.7186,1124.2537,space,3.5201,,1124.2538,83,2,1125.2536,1125.2536,1125.2813,,,,0,23,23,23,1,155,70,,,,,,,,
,,5bec8053b6b5ab00017c7349,65af56682b7145c5d8c759d9,2024-01-23_06h02.34.272,bars,2023.2.3,Win32,59.88023952,657b66ea316d21385b68909f,,,,,,,,,,,1125.2818,1126.2707,,,1126.7708,1127.0209,,101,281,,,,,,,,,,,,,,,,bars/018.png,bars/mask008.png,,,,,,,,,,,,3,2,,,,,,,2,4,0,4,,,,,,,,,,,1126.2707,1126.7708,1127.0209,1131.4559,space,4.4021,,1131.4559,49,11,1132.4559,1132.4559,1132.4841,,,,0,24,24,24,1,150,90,,,,,,,,
,,5bec8053b6b5ab00017c7349,65af56682b7145c5d8c759d9,2024-01-23_06h02.34.272,bars,2023.2.3,Win32,59.88023952,657b66ea316d21385b68909f,,,,,,,,,,,1132.4847,1133.4725,,,1133.9728,1134.2231,,168,-12,,,,,,,,,,,,,,,,bars/048.png,bars/mask004.png,,,,,,,,,,,,5,2,,,,,,,0,6,0,6,,,,,,,,,,,1133.4725,1133.9727,1134.2231,1137.2179,space,2.9868,,1137.218,62,7,1138.2076,1138.2077,1138.2328,,,,0,25,25,25,1,50,175,,,,,,,,
,,5bec8053b6b5ab00017c7349,65af56682b7145c5d8c759d9,2024-01-23_06h02.34.272,bars,2023.2.3,Win32,59.88023952,657b66ea316d21385b68909f,,,,,,,,,,,1138.2331,1139.2255,,,1139.7175,1139.9594,,162,-18,,,,,,,,,,,,,,,,bars/000.png,bars/mask006.png,,,,,,,,,,,,3,2,,,,,,,2,8,3,8,,,,,,,,,,,1139.2256,1139.7175,1139.9595,1144.2692,space,4.2851,,1144.2692,58,17,1145.2597,1145.2597,1145.2877,,,,0,26,26,26,1,40,145,,,,,,,,
,,5bec8053b6b5ab00017c7349,65af56682b7145c5d8c759d9,2024-01-23_06h02.34.272,bars,2023.2.3,Win32,59.88023952,657b66ea316d21385b68909f,,,,,,,,,,,1145.2882,1146.2766,,,1146.777,1147.0271,,78,78,,,,,,,,,,,,,,,,bars/011.png,bars/mask001.png,,,,,,,,,,,,5,2,,,,,,,0,6,0,6,,,,,,,,,,,1146.2767,1146.7769,1147.0271,1150.3616,space,3.3189,,1150.3616,82,7,1151.3614,1151.3615,1151.3825,,,,0,27,27,27,1,160,85,,,,,,,,
,,5bec8053b6b5ab00017c7349,65af56682b7145c5d8c759d9,2024-01-23_06h02.34.272,bars,2023.2.3,Win32,59.88023952,657b66ea316d21385b68909f,,,,,,,,,,,1151.383,1152.3835,,,1152.8723,1153.1122,,94,94,,,,,,,,,,,,,,,,bars/042.png,bars/mask005.png,,,,,,,,,,,,3,2,,,,,,,0,8,0,8,,,,,,,,,,,1152.3835,1152.8723,1153.1122,1155.3741,space,2.2353,,1155.3741,51,19,1156.3632,1156.3632,1156.3918,,,,0,28,28,28,1,145,75,,,,,,,,
,,5bec8053b6b5ab00017c7349,65af56682b7145c5d8c759d9,2024-01-23_06h02.34.272,bars,2023.2.3,Win32,59.88023952,657b66ea316d21385b68909f,,,,,,,,,,,1156.3923,1157.3805,,,1157.8804,1158.13,,78,78,,,,,,,,,,,,,,,,bars/018.png,bars/mask008.png,,,,,,,,,,,,4,2,,,,,,,2,6,2,7,,,,,,,,,,,1157.3805,1157.8803,1158.13,1161.0314,space,2.8884,,1161.0315,72,12,1162.0316,1162.0317,1162.0556,,,,0,29,29,29,1,150,90,,,,,,,,
,,5bec8053b6b5ab00017c7349,65af56682b7145c5d8c759d9,2024-01-23_06h02.34.272,bars,2023.2.3,Win32,59.88023952,657b66ea316d21385b68909f,,,,,,,,,,,1162.056,1163.0581,,,1163.5488,1163.7989,,128,128,,,,,,,,,,,,,,,,bars/023.png,bars/mask002.png,,,,,,,,,,,,6,2,,,,,,,0,8,0,10,,,,,,,,,,,1163.0581,1163.5488,1163.7989,1165.1602,space,1.3354,,1165.1603,72,13,1166.1491,1166.1491,1166.1496,,,,0,30,30,30,1,20,115,,,,,,,,
,,5bec8053b6b5ab00017c7349,65af56682b7145c5d8c759d9,2024-01-23_06h02.34.272,bars,2023.2.3,Win32,59.88023952,657b66ea316d21385b68909f,,,,,,,,,,,1166.1498,1167.1597,,,1167.6501,1167.9001,,0,0,,,,,,,,,,,,,,,,bars/045.png,bars/mask005.png,,,,,,,,,,,,4,2,,,,,,,0,6,0,6,,,,,,,,,,,1167.1599,1167.65,1167.9001,1169.9617,space,2.0519,,1169.9617,80,10,1170.9511,1170.9511,1170.9527,,,,0,31,31,31,1,100,10,,,,,,,,
,,5bec8053b6b5ab00017c7349,65af56682b7145c5d8c759d9,2024-01-23_06h02.34.272,bars,2023.2.3,Win32,59.88023952,657b66ea316d21385b68909f,,,,,,,,,,,1170.9531,1171.9516,,,1172.4512,1172.6947,,173,173,,,,,,,,,,,,,,,,bars/033.png,bars/mask008.png,,,,,,,,,,,,3,2,,,,,,,2,8,3,7,,,,,,,,,,,1171.9517,1172.4512,1172.6947,1175.0787,space,2.3679,,1175.0787,32,18,1176.074,1176.0742,1176.1029,,,,0,32,32,32,1,25,155,,,,,,,,
,,5bec8053b6b5ab00017c7349,65af56682b7145c5d8c759d9,2024-01-23_06h02.34.272,bars,2023.2.3,Win32,59.88023952,657b66ea316d21385b68909f,,,,,,,,,,,1176.1034,1177.103,,,1177.6033,1177.8532,,30,30,,,,,,,,,,,,,,,,bars/017.png,bars/mask003.png,,,,,,,,,,,,5,2,,,,,,,4,10,2,10,,,,,,,,,,,1177.103,1177.6032,1177.8533,1180.3877,space,2.5154,,1180.3878,65,15,1181.3876,1181.3877,1181.4157,,,,0,33,33,33,1,145,45,,,,,,,,
,,5bec8053b6b5ab00017c7349,65af56682b7145c5d8c759d9,2024-01-23_06h02.34.272,bars,2023.2.3,Win32,59.88023952,657b66ea316d21385b68909f,,,,,,,,,,,1181.4161,1182.4044,,,1182.9049,1183.1548,,6,186,,,,,,,,,,,,,,,,bars/014.png,bars/mask000.png,,,,,,,,,,,,6,2,,,,,,,6,10,7,8,,,,,,,,,,,1182.4044,1182.9048,1183.1549,1184.7881,space,1.622,,1184.7881,74,6,1185.7887,1185.7888,1185.8046,,,,0,34,34,34,1,80,0,,,,,,,,
,,5bec8053b6b5ab00017c7349,65af56682b7145c5d8c759d9,2024-01-23_06h02.34.272,bars,2023.2.3,Win32,59.88023952,657b66ea316d21385b68909f,,,,,,,,,,,1185.805,1186.7941,,,1187.2896,1187.5396,,71,71,,,,,,,,,,,,,,,,bars/046.png,bars/mask005.png,,,,,,,,,,,,5,2,,,,,,,8,8,9,9,,,,,,,,,,,1186.7941,1187.2895,1187.5396,1190.5738,space,3.025,,1190.5739,84,14,1191.5741,1191.5742,1191.6011,,,,0,35,35,35,1,155,85,,,,,,,,
,,5bec8053b6b5ab00017c7349,65af56682b7145c5d8c759d9,2024-01-23_06h02.34.272,bars,2023.2.3,Win32,59.88023952,657b66ea316d21385b68909f,,,,,,,,,,,1191.6015,1192.5912,,,1193.0913,1193.3414,,33,33,,,,,,,,,,,,,,,,bars/027.png,bars/mask001.png,,,,,,,,,,,,4,2,,,,,,,6,10,7,10,,,,,,,,,,,1192.5912,1193.0913,1193.3415,1196.5254,space,3.172,,1196.5254,77,17,1197.5257,1197.5257,1197.5416,,,,0,36,36,36,1,110,50,,,,,,,,
,,5bec8053b6b5ab00017c7349,65af56682b7145c5d8c759d9,2024-01-23_06h02.34.272,bars,2023.2.3,Win32,59.88023952,657b66ea316d21385b68909f,,,,,,,,,,,1197.5422,1198.5425,,,1199.043,1199.2817,,46,46,,,,,,,,,,,,,,,,bars/001.png,bars/mask004.png,,,,,,,,,,,,0,2,,,,,,,8,8,9,8,,,,,,,,,,,1198.5426,1199.043,1199.2817,1201.6549,space,2.352,,1201.6549,84,39,1202.6439,1202.6439,1202.657,,,,0,37,37,37,1,130,85,,,,,,,,
,,5bec8053b6b5ab00017c7349,65af56682b7145c5d8c759d9,2024-01-23_06h02.34.272,bars,2023.2.3,Win32,59.88023952,657b66ea316d21385b68909f,,,,,,,,,,,1202.6572,1203.6456,,,1204.1442,1204.3943,,103,103,,,,,,,,,,,,,,,,bars/006.png,bars/mask007.png,,,,,,,,,,,,9,2,,,,,,,10,10,10,10,,,,,,,,,,,1203.6456,1204.1442,1204.3943,1206.5057,space,2.0851,,1206.5057,68,3,1207.4957,1207.4957,1207.5235,,,,0,38,38,38,1,35,100,,,,,,,,
,,5bec8053b6b5ab00017c7349,65af56682b7145c5d8c759d9,2024-01-23_06h02.34.272,bars,2023.2.3,Win32,59.88023952,657b66ea316d21385b68909f,,,,,,,,,,,1207.5241,1208.5125,,,1209.0129,1209.263,,64,64,,,,,,,,,,,,,,,,bars/002.png,bars/mask005.png,,,,,,,,,,,,3,2,,,,,,,10,10,10,10,,,,,,,,,,,1208.5125,1209.0129,1209.263,1213.0138,space,3.734,,1213.0138,66,21,1214.0144,1214.0144,1214.0416,,,,0,39,39,39,1,130,85,,,,,,,,
,,5bec8053b6b5ab00017c7349,65af56682b7145c5d8c759d9,2024-01-23_06h02.34.272,bars,2023.2.3,Win32,59.88023952,657b66ea316d21385b68909f,,,,,,,,,,,1214.0419,1215.0308,,,1215.531,1215.7811,,155,155,,,,,,,,,,,,,,,,bars/020.png,bars/mask000.png,,,,,,,,,,,,4,2,,,,,,,8,8,7,7,,,,,,,,,,,1215.0309,1215.531,1215.7811,1218.699,space,2.9052,,1218.6991,40,15,1219.6992,1219.6992,1219.7151,,,,0,40,40,40,1,115,170,,,,,,,,
,,5bec8053b6b5ab00017c7349,65af56682b7145c5d8c759d9,2024-01-23_06h02.34.272,bars,2023.2.3,Win32,59.88023952,657b66ea316d21385b68909f,,,,,,,,,,,1219.7153,1220.716,,,1221.2166,1221.4772,,156,-24,,,,,,,,,,,,,,,,bars/037.png,bars/mask007.png,,,,,,,,,,,,8,1,,,,,,,10,6,10,5,,,,,,,,,,,1220.716,1221.2166,1221.4772,1225.8607,space,4.3687,,1225.8607,6,51,1226.8612,1226.8612,1226.8878,,,,0,41,41,41,1,150,105,,,,,,,,
,,5bec8053b6b5ab00017c7349,65af56682b7145c5d8c759d9,2024-01-23_06h02.34.272,bars,2023.2.3,Win32,59.88023952,657b66ea316d21385b68909f,,,,,,,,,,,1226.8883,1227.89,,,1228.3855,1228.6355,,124,124,,,,,,,,,,,,,,,,bars/039.png,bars/mask002.png,,,,,,,,,,,,3,2,,,,,,,8,8,7,7,,,,,,,,,,,1227.89,1228.3855,1228.6355,1232.4477,space,3.7854,,1232.4477,51,19,1233.4368,1233.4368,1233.4567,,,,0,42,42,42,1,175,105,,,,,,,,
,,5bec8053b6b5ab00017c7349,65af56682b7145c5d8c759d9,2024-01-23_06h02.34.272,bars,2023.2.3,Win32,59.88023952,657b66ea316d21385b68909f,,,,,,,,,,,1233.4571,1234.454,,,1234.9543,1235.214,,33,33,,,,,,,,,,,,,,,,bars/035.png,bars/mask005.png,,,,,,,,,,,,0,2,,,,,,,6,6,4,5,,,,,,,,,,,1234.454,1234.9543,1235.2142,1237.4993,space,2.277,,1237.4993,38,27,1238.4883,1238.4884,1238.5166,,,,0,43,43,43,1,175,60,,,,,,,,
,,5bec8053b6b5ab00017c7349,65af56682b7145c5d8c759d9,2024-01-23_06h02.34.272,bars,2023.2.3,Win32,59.88023952,657b66ea316d21385b68909f,,,,,,,,,,,1238.5171,1239.5058,,,1240.0058,1240.2559,,120,120,,,,,,,,,,,,,,,,bars/009.png,bars/mask003.png,,,,,,,,,,,,2,2,,,,,,,8,4,7,4,,,,,,,,,,,1239.5058,1240.0057,1240.2559,1243.8401,space,3.5516,,1243.8401,75,15,1244.8406,1244.8406,1244.8684,,,,0,44,44,44,1,15,105,,,,,,,,
,,5bec8053b6b5ab00017c7349,65af56682b7145c5d8c759d9,2024-01-23_06h02.34.272,bars,2023.2.3,Win32,59.88023952,657b66ea316d21385b68909f,,,,,,,,,,,1244.8688,1245.8576,,,1246.3573,1246.6074,,8,188,,,,,,,,,,,,,,,,bars/016.png,bars/mask002.png,,,,,,,,,,,,1,2,,,,,,,10,6,10,6,,,,,,,,,,,1245.8576,1246.3573,1246.6074,1249.4088,space,2.7912,,1249.4089,32,23,1250.4086,1250.4086,1250.4246,,,,0,45,45,45,1,40,165,,,,,,,,
,,5bec8053b6b5ab00017c7349,65af56682b7145c5d8c759d9,2024-01-23_06h02.34.272,bars,2023.2.3,Win32,59.88023952,657b66ea316d21385b68909f,,,,,,,,,,,1250.4249,1251.431,,,1251.9261,1252.1643,,171,-9,,,,,,,,,,,,,,,,bars/014.png,bars/mask001.png,,,,,,,,,,,,4,2,,,,,,,8,4,7,5,,,,,,,,,,,1251.4311,1251.9261,1252.1643,1256.161,space,3.9823,,1256.1611,89,9,1257.1609,1257.1609,1257.1794,,,,0,46,46,46,1,80,0,,,,,,,,
,,5bec8053b6b5ab00017c7349,65af56682b7145c5d8c759d9,2024-01-23_06h02.34.272,bars,2023.2.3,Win32,59.88023952,657b66ea316d21385b68909f,,,,,,,,,,,1257.1798,1258.178,,,1258.678,1258.9283,,168,-12,,,,,,,,,,,,,,,,bars/015.png,bars/mask008.png,,,,,,,,,,,,4,2,,,,,,,10,6,10,5,,,,,,,,,,,1258.1781,1258.678,1258.9283,1262.1216,space,3.1843,,1262.1217,58,8,1263.1129,1263.113,1263.141,,,,0,47,47,47,1,110,160,,,,,,,,
,,5bec8053b6b5ab00017c7349,65af56682b7145c5d8c759d9,2024-01-23_06h02.34.272,bars,2023.2.3,Win32,59.88023952,657b66ea316d21385b68909f,,,,,,,,,,,1263.1416,1264.1298,,,1264.6301,1264.88,,103,-77,,,,,,,,,,,,,,,,bars/037.png,bars/mask009.png,,,,,,,,,,,,7,2,,,,,,,8,8,7,8,,,,,,,,,,,1264.1298,1264.63,1264.8801,1268.5981,space,3.7022,,1268.5981,47,2,1269.5982,1269.5983,1269.626,,,,0,48,48,48,1,150,105,,,,,,,,
,,5bec8053b6b5ab00017c7349,65af56682b7145c5d8c759d9,2024-01-23_06h02.34.272,bars,2023.2.3,Win32,59.88023952,657b66ea316d21385b68909f,,,,,,,,,,,1269.6264,1270.6154,,,1271.1154,1271.3655,,167,167,,,,,,,,,,,,,,,,bars/044.png,bars/mask009.png,,,,,,,,,,,,6,2,,,,,,,6,10,7,10,,,,,,,,,,,1270.6154,1271.1154,1271.3655,1274.7,space,3.3227,,1274.7,88,12,1275.7001,1275.7001,1275.7247,,,,0,49,49,49,1,75,155,,,,,,,,
,,5bec8053b6b5ab00017c7349,65af56682b7145c5d8c759d9,2024-01-23_06h02.34.272,bars,2023.2.3,Win32,59.88023952,657b66ea316d21385b68909f,,,,,,,,,,,,,,,,,,,,,,,,,,,,,,,,,,,,,,,,,,,,,,,,,,,,,,,,,,,,,,,,,,,,,,,,,,,,,,,,,,,,,,,,,,,,,1275.7248,1335.7187,0,2,2,3,1,sequence_tables/blk009.csv
,,5bec8053b6b5ab00017c7349,65af56682b7145c5d8c759d9,2024-01-23_06h02.34.272,bars,2023.2.3,Win32,59.88023952,657b66ea316d21385b68909f,,,,,,,,,,,1339.3323,1340.3367,,,1340.8203,1341.0702,,75,255,,,,,,,,,,,,,,,,bars/047.png,bars/mask008.png,,,,,,,,,,,,6,2,,,,,,,1,6,1,7,,,,,,1335.7477,1339.32,space,3.555,,1340.3367,1340.8202,1341.0703,1344.6382,space,3.5519,,1344.6383,60,5,1345.6384,1345.6385,1345.6671,,,,0,0,0,0,1,15,70,,,,,,,,
,,5bec8053b6b5ab00017c7349,65af56682b7145c5d8c759d9,2024-01-23_06h02.34.272,bars,2023.2.3,Win32,59.88023952,657b66ea316d21385b68909f,,,,,,,,,,,1345.6676,1346.6553,,,1347.1556,1347.4056,,154,154,,,,,,,,,,,,,,,,bars/028.png,bars/mask009.png,,,,,,,,,,,,0,2,,,,,,,3,4,2,5,,,,,,,,,,,1346.6554,1347.1556,1347.4057,1351.2737,space,3.8476,,1351.2738,71,34,1352.2738,1352.2739,1352.3016,,,,0,1,1,1,1,45,120,,,,,,,,
,,5bec8053b6b5ab00017c7349,65af56682b7145c5d8c759d9,2024-01-23_06h02.34.272,bars,2023.2.3,Win32,59.88023952,657b66ea316d21385b68909f,,,,,,,,,,,1352.3022,1353.2906,,,1353.791,1354.0411,,3,3,,,,,,,,,,,,,,,,bars/031.png,bars/mask001.png,,,,,,,,,,,,0,2,,,,,,,1,6,2,5,,,,,,,,,,,1353.2907,1353.791,1354.0411,1356.0081,space,1.9462,,1356.0081,63,32,1357.0086,1357.0086,1357.0104,,,,0,2,2,2,1,120,35,,,,,,,,
,,5bec8053b6b5ab00017c7349,65af56682b7145c5d8c759d9,2024-01-23_06h02.34.272,bars,2023.2.3,Win32,59.88023952,657b66ea316d21385b68909f,,,,,,,,,,,1357.0109,1358.0088,,,1358.5092,1358.7687,,163,-17,,,,,,,,,,,,,,,,bars/036.png,bars/mask004.png,,,,,,,,,,,,1,1,,,,,,,3,4,3,5,,,,,,,,,,,1358.0088,1358.5091,1358.7688,1360.5596,space,1.768,,1360.5596,18,37,1361.56,1361.5601,1361.5633,,,,0,3,3,3,1,145,20,,,,,,,,
,,5bec8053b6b5ab00017c7349,65af56682b7145c5d8c759d9,2024-01-23_06h02.34.272,bars,2023.2.3,Win32,59.88023952,657b66ea316d21385b68909f,,,,,,,,,,,1361.5637,1362.5603,,,1363.0606,1363.3107,,43,43,,,,,,,,,,,,,,,,bars/029.png,bars/mask003.png,,,,,,,,,,,,6,2,,,,,,,1,6,1,6,,,,,,,,,,,1362.5605,1363.0606,1363.3109,1365.1786,space,1.8515,,1365.1786,47,2,1366.1782,1366.1782,1366.2082,,,,0,4,4,4,1,90,45,,,,,,,,
,,5bec8053b6b5ab00017c7349,65af56682b7145c5d8c759d9,2024-01-23_06h02.34.272,bars,2023.2.3,Win32,59.88023952,657b66ea316d21385b68909f,,,,,,,,,,,1366.2087,1367.212,,,1367.7118,1367.9618,,71,71,,,,,,,,,,,,,,,,bars/021.png,bars/mask003.png,,,,,,,,,,,,4,2,,,,,,,3,4,4,4,,,,,,,,,,,1367.212,1367.7118,1367.9618,1369.3126,space,1.3367,,1369.3126,84,1,1370.3122,1370.3122,1370.3197,,,,0,5,5,5,1,155,70,,,,,,,,
,,5bec8053b6b5ab00017c7349,65af56682b7145c5d8c759d9,2024-01-23_06h02.34.272,bars,2023.2.3,Win32,59.88023952,657b66ea316d21385b68909f,,,,,,,,,,,1370.3199,1371.3129,,,1371.8126,1372.063,,2,2,,,,,,,,,,,,,,,,bars/032.png,bars/mask005.png,,,,,,,,,,,,2,2,,,,,,,5,6,4,6,,,,,,,,,,,1371.3129,1371.8126,1372.063,1375.6142,space,3.5185,,1375.6143,57,18,1376.6072,1376.6072,1376.635,,,,0,6,6,6,1,125,20,,,,,,,,
,,5bec8053b6b5ab00017c7349,65af56682b7145c5d8c759d9,2024-01-23_06h02.34.272,bars,2023.2.3,Win32,59.88023952,657b66ea316d21385b68909f,,,,,,,,,,,1376.6356,1377.6364,,,1378.1415,1378.3915,,35,35,,,,,,,,,,,,,,,,bars/010.png,bars/mask009.png,,,,,,,,,,,,1,2,,,,,,,7,4,9,4,,,,,,,,,,,1377.6364,1378.1414,1378.3915,1381.5335,space,3.1253,,1381.5337,50,20,1382.533,1382.533,1382.5613,,,,0,7,7,7,1,165,55,,,,,,,,
,,5bec8053b6b5ab00017c7349,65af56682b7145c5d8c759d9,2024-01-23_06h02.34.272,bars,2023.2.3,Win32,59.88023952,657b66ea316d21385b68909f,,,,,,,,,,,1382.5618,1383.5497,,,1384.05,1384.3004,,19,19,,,,,,,,,,,,,,,,bars/017.png,bars/mask008.png,,,,,,,,,,,,1,2,,,,,,,9,6,9,7,,,,,,,,,,,1383.5497,1384.0499,1384.3004,1387.9349,space,3.6186,,1387.9349,54,26,1388.9351,1388.9352,1388.9632,,,,0,8,8,8,1,145,45,,,,,,,,
,,5bec8053b6b5ab00017c7349,65af56682b7145c5d8c759d9,2024-01-23_06h02.34.272,bars,2023.2.3,Win32,59.88023952,657b66ea316d21385b68909f,,,,,,,,,,,1388.9637,1389.9518,,,1390.4522,1390.7023,,41,41,,,,,,,,,,,,,,,,bars/030.png,bars/mask000.png,,,,,,,,,,,,1,2,,,,,,,10,4,10,5,,,,,,,,,,,1389.9518,1390.4522,1390.7025,1393.1029,space,2.3863,,1393.1029,81,24,1394.1033,1394.1034,1394.1304,,,,0,9,9,9,1,140,65,,,,,,,,
,,5bec8053b6b5ab00017c7349,65af56682b7145c5d8c759d9,2024-01-23_06h02.34.272,bars,2023.2.3,Win32,59.88023952,657b66ea316d21385b68909f,,,,,,,,,,,1394.1308,1395.1203,,,1395.6199,1395.8701,,18,18,,,,,,,,,,,,,,,,bars/031.png,bars/mask002.png,,,,,,,,,,,,1,2,,,,,,,8,2,9,3,,,,,,,,,,,1395.1203,1395.6199,1395.8701,1399.7386,space,3.8562,,1399.7387,78,17,1400.7387,1400.7388,1400.7666,,,,0,10,10,10,1,120,35,,,,,,,,
,,5bec8053b6b5ab00017c7349,65af56682b7145c5d8c759d9,2024-01-23_06h02.34.272,bars,2023.2.3,Win32,59.88023952,657b66ea316d21385b68909f,,,,,,,,,,,1400.767,1401.7555,,,1402.2557,1402.5059,,3,3,,,,,,,,,,,,,,,,bars/012.png,bars/mask007.png,,,,,,,,,,,,3,2,,,,,,,6,4,6,5,,,,,,,,,,,1401.7555,1402.2556,1402.506,1406.8078,space,4.2872,,1406.8078,87,12,1407.8076,1407.8077,1407.8356,,,,0,11,11,11,1,90,15,,,,,,,,
,,5bec8053b6b5ab00017c7349,65af56682b7145c5d8c759d9,2024-01-23_06h02.34.272,bars,2023.2.3,Win32,59.88023952,657b66ea316d21385b68909f,,,,,,,,,,,1407.8361,1408.8246,,,1409.325,1409.5748,,93,93,,,,,,,,,,,,,,,,bars/011.png,bars/mask000.png,,,,,,,,,,,,4,2,,,,,,,8,6,8,5,,,,,,,,,,,1408.8246,1409.3248,1409.5749,1413.6263,space,4.0381,,1413.6263,67,8,1414.6261,1414.6261,1414.642,,,,0,12,12,12,1,160,85,,,,,,,,
,,5bec8053b6b5ab00017c7349,65af56682b7145c5d8c759d9,2024-01-23_06h02.34.272,bars,2023.2.3,Win32,59.88023952,657b66ea316d21385b68909f,,,,,,,,,,,1414.6423,1415.6309,,,1416.1269,1416.3769,,94,94,,,,,,,,,,,,,,,,bars/002.png,bars/mask006.png,,,,,,,,,,,,3,2,,,,,,,6,4,5,4,,,,,,,,,,,1415.6309,1416.1269,1416.377,1419.0445,space,2.6352,,1419.0447,36,9,1420.0376,1420.0378,1420.0658,,,,0,13,13,13,1,130,85,,,,,,,,
,,5bec8053b6b5ab00017c7349,65af56682b7145c5d8c759d9,2024-01-23_06h02.34.272,bars,2023.2.3,Win32,59.88023952,657b66ea316d21385b68909f,,,,,,,,,,,1420.0663,1421.066,,,1421.5717,1421.8119,,167,-13,,,,,,,,,,,,,,,,bars/045.png,bars/mask004.png,,,,,,,,,,,,1,2,,,,,,,8,6,7,5,,,,,,,,,,,1421.066,1421.5716,1421.812,1423.3959,space,1.5683,,1423.396,67,23,1424.3843,1424.3843,1424.4127,,,,0,14,14,14,1,100,10,,,,,,,,
,,5bec8053b6b5ab00017c7349,65af56682b7145c5d8c759d9,2024-01-23_06h02.34.272,bars,2023.2.3,Win32,59.88023952,657b66ea316d21385b68909f,,,,,,,,,,,1424.4133,1425.4132,,,1425.9233,1426.1627,,75,75,,,,,,,,,,,,,,,,bars/041.png,bars/mask008.png,,,,,,,,,,,,6,2,,,,,,,6,8,6,9,,,,,,,,,,,1425.4133,1425.9233,1426.1627,1429.4321,space,3.24,,1429.4322,55,10,1430.431,1430.431,1430.4471,,,,0,15,15,15,1,20,85,,,,,,,,
,,5bec8053b6b5ab00017c7349,65af56682b7145c5d8c759d9,2024-01-23_06h02.34.272,bars,2023.2.3,Win32,59.88023952,657b66ea316d21385b68909f,,,,,,,,,,,1430.4475,1431.4478,,,1431.9488,1432.1984,,95,95,,,,,,,,,,,,,,,,bars/038.png,bars/mask006.png,,,,,,,,,,,,2,2,,,,,,,8,10,9,10,,,,,,,,,,,1431.4478,1431.9487,1432.1984,1434.9168,space,2.7024,,1434.917,70,25,1435.9163,1435.9165,1435.9446,,,,0,16,16,16,1,165,70,,,,,,,,
,,5bec8053b6b5ab00017c7349,65af56682b7145c5d8c759d9,2024-01-23_06h02.34.272,bars,2023.2.3,Win32,59.88023952,657b66ea316d21385b68909f,,,,,,,,,,,1435.945,1436.9331,,,1437.4334,1437.6834,,5,185,,,,,,,,,,,,,,,,bars/012.png,bars/mask001.png,,,,,,,,,,,,5,2,,,,,,,6,10,5,8,,,,,,,,,,,1436.9331,1437.4334,1437.6834,1439.3013,space,1.6096,,1439.3014,85,10,1440.3009,1440.3009,1440.3286,,,,0,17,17,17,1,90,15,,,,,,,,
,,5bec8053b6b5ab00017c7349,65af56682b7145c5d8c759d9,2024-01-23_06h02.34.272,bars,2023.2.3,Win32,59.88023952,657b66ea316d21385b68909f,,,,,,,,,,,1440.3291,1441.318,,,1441.8182,1442.0682,,167,167,,,,,,,,,,,,,,,,bars/015.png,bars/mask009.png,,,,,,,,,,,,8,2,,,,,,,4,10,4,10,,,,,,,,,,,1441.318,1441.8181,1442.0683,1444.7029,space,2.6249,,1444.7031,57,7,1445.7026,1445.7027,1445.7308,,,,0,18,18,18,1,110,160,,,,,,,,
,,5bec8053b6b5ab00017c7349,65af56682b7145c5d8c759d9,2024-01-23_06h02.34.272,bars,2023.2.3,Win32,59.88023952,657b66ea316d21385b68909f,,,,,,,,,,,1445.7313,1446.7192,,,1447.2197,1447.4698,,143,-37,,,,,,,,,,,,,,,,bars/004.png,bars/mask007.png,,,,,,,,,,,,3,2,,,,,,,6,8,6,8,,,,,,,,,,,1446.7192,1447.2197,1447.4699,1450.1708,space,2.685,,1450.1708,62,18,1451.1709,1451.171,1451.1986,,,,0,19,19,19,1,25,125,,,,,,,,
,,5bec8053b6b5ab00017c7349,65af56682b7145c5d8c759d9,2024-01-23_06h02.34.272,bars,2023.2.3,Win32,59.88023952,657b66ea316d21385b68909f,,,,,,,,,,,1451.1991,1452.1885,,,1452.6879,1452.9383,,169,-11,,,,,,,,,,,,,,,,bars/032.png,bars/mask002.png,,,,,,,,,,,,0,2,,,,,,,4,6,4,6,,,,,,,,,,,1452.1885,1452.6879,1452.9383,1454.8054,space,1.855,,1454.8056,44,31,1455.8053,1455.8053,1455.8057,,,,0,20,20,20,1,125,20,,,,,,,,
,,5bec8053b6b5ab00017c7349,65af56682b7145c5d8c759d9,2024-01-23_06h02.34.272,bars,2023.2.3,Win32,59.88023952,657b66ea316d21385b68909f,,,,,,,,,,,1455.8059,1456.806,,,1457.3062,1457.5563,,163,-17,,,,,,,,,,,,,,,,bars/045.png,bars/mask009.png,,,,,,,,,,,,1,2,,,,,,,2,8,3,8,,,,,,,,,,,1456.8061,1457.3061,1457.5564,1465.1925,space,7.6244,,1465.1925,63,27,1466.1918,1466.1918,1466.1995,,,,0,21,21,21,1,100,10,,,,,,,,
,,5bec8053b6b5ab00017c7349,65af56682b7145c5d8c759d9,2024-01-23_06h02.34.272,bars,2023.2.3,Win32,59.88023952,657b66ea316d21385b68909f,,,,,,,,,,,1466.1995,1467.1921,,,1467.6924,1467.9426,,54,54,,,,,,,,,,,,,,,,bars/007.png,bars/mask000.png,,,,,,,,,,,,8,2,,,,,,,4,6,5,8,,,,,,,,,,,1467.1921,1467.6923,1467.9426,1471.3439,space,3.3909,,1471.344,59,1,1472.3436,1472.3436,1472.3523,,,,0,22,22,22,1,175,55,,,,,,,,
,,5bec8053b6b5ab00017c7349,65af56682b7145c5d8c759d9,2024-01-23_06h02.34.272,bars,2023.2.3,Win32,59.88023952,657b66ea316d21385b68909f,,,,,,,,,,,1472.3525,1473.3444,,,1473.8448,1474.0947,,117,117,,,,,,,,,,,,,,,,bars/023.png,bars/mask001.png,,,,,,,,,,,,8,2,,,,,,,6,8,4,9,,,,,,,,,,,1473.3445,1473.8448,1474.0948,1477.779,space,3.6712,,1477.7791,83,2,1478.7792,1478.7793,1478.7951,,,,0,23,23,23,1,20,115,,,,,,,,
,,5bec8053b6b5ab00017c7349,65af56682b7145c5d8c759d9,2024-01-23_06h02.34.272,bars,2023.2.3,Win32,59.88023952,657b66ea316d21385b68909f,,,,,,,,,,,1478.7953,1479.7965,,,1480.2968,1480.5466,,43,223,,,,,,,,,,,,,,,,bars/025.png,bars/mask001.png,,,,,,,,,,,,7,2,,,,,,,8,6,8,8,,,,,,,,,,,1479.7966,1480.2967,1480.5466,1484.6316,space,4.061,,1484.6317,62,3,1485.6318,1485.6319,1485.6599,,,,0,24,24,24,1,105,40,,,,,,,,
,,5bec8053b6b5ab00017c7349,65af56682b7145c5d8c759d9,2024-01-23_06h02.34.272,bars,2023.2.3,Win32,59.88023952,657b66ea316d21385b68909f,,,,,,,,,,,1485.6605,1486.6489,,,1487.1487,1487.3989,,52,52,,,,,,,,,,,,,,,,bars/035.png,bars/mask000.png,,,,,,,,,,,,6,2,,,,,,,6,8,7,8,,,,,,,,,,,1486.6489,1487.1487,1487.3991,1491.6004,space,4.1822,,1491.6005,57,8,1492.6004,1492.6005,1492.6282,,,,0,25,25,25,1,175,60,,,,,,,,
,,5bec8053b6b5ab00017c7349,65af56682b7145c5d8c759d9,2024-01-23_06h02.34.272,bars,2023.2.3,Win32,59.88023952,657b66ea316d21385b68909f,,,,,,,,,,,1492.6287,1493.6171,,,1494.1177,1494.3677,,162,-18,,,,,,,,,,,,,,,,bars/012.png,bars/mask001.png,,,,,,,,,,,,0,2,,,,,,,4,6,5,5,,,,,,,,,,,1493.6172,1494.1177,1494.3678,1497.7857,space,3.4017,,1497.7859,72,33,1498.7856,1498.7857,1498.8134,,,,0,26,26,26,1,90,15,,,,,,,,
,,5bec8053b6b5ab00017c7349,65af56682b7145c5d8c759d9,2024-01-23_06h02.34.272,bars,2023.2.3,Win32,59.88023952,657b66ea316d21385b68909f,,,,,,,,,,,1498.8139,1499.8031,,,1500.3029,1500.5528,,55,235,,,,,,,,,,,,,,,,bars/017.png,bars/mask007.png,,,,,,,,,,,,2,2,,,,,,,6,4,6,3,,,,,,,,,,,1499.8032,1500.3028,1500.5529,1504.1543,space,3.5819,,1504.1544,90,10,1505.1543,1505.1544,1505.1821,,,,0,27,27,27,1,145,45,,,,,,,,
,,5bec8053b6b5ab00017c7349,65af56682b7145c5d8c759d9,2024-01-23_06h02.34.272,bars,2023.2.3,Win32,59.88023952,657b66ea316d21385b68909f,,,,,,,,,,,1505.1825,1506.1713,,,1506.6714,1506.9215,,105,105,,,,,,,,,,,,,,,,bars/001.png,bars/mask005.png,,,,,,,,,,,,1,2,,,,,,,8,2,6,2,,,,,,,,,,,1506.1713,1506.6713,1506.9216,1509.2393,space,2.3019,,1509.2395,25,20,1510.239,1510.239,1510.2399,,,,0,28,28,28,1,130,85,,,,,,,,
,,5bec8053b6b5ab00017c7349,65af56682b7145c5d8c759d9,2024-01-23_06h02.34.272,bars,2023.2.3,Win32,59.88023952,657b66ea316d21385b68909f,,,,,,,,,,,1510.2403,1511.2395,,,1511.7397,1511.9898,,143,143,,,,,,,,,,,,,,,,bars/015.png,bars/mask004.png,,,,,,,,,,,,0,2,,,,,,,6,0,7,0,,,,,,,,,,,1511.2396,1511.7397,1511.9898,1513.9073,space,1.899,,1513.9074,33,17,1514.9074,1514.9074,1514.9358,,,,0,29,29,29,1,110,160,,,,,,,,
,,5bec8053b6b5ab00017c7349,65af56682b7145c5d8c759d9,2024-01-23_06h02.34.272,bars,2023.2.3,Win32,59.88023952,657b66ea316d21385b68909f,,,,,,,,,,,1514.9364,1515.9245,,,1516.4246,1516.6745,,142,142,,,,,,,,,,,,,,,,bars/004.png,bars/mask009.png,,,,,,,,,,,,0,2,,,,,,,8,0,9,0,,,,,,,,,,,1515.9245,1516.4245,1516.6746,1518.6748,space,1.983,,1518.6748,63,17,1519.6755,1519.6755,1519.6772,,,,0,30,30,30,1,25,125,,,,,,,,
,,5bec8053b6b5ab00017c7349,65af56682b7145c5d8c759d9,2024-01-23_06h02.34.272,bars,2023.2.3,Win32,59.88023952,657b66ea316d21385b68909f,,,,,,,,,,,1519.6777,1520.6759,,,1521.1761,1521.426,,152,152,,,,,,,,,,,,,,,,bars/043.png,bars/mask003.png,,,,,,,,,,,,1,2,,,,,,,10,0,10,2,,,,,,,,,,,1520.6759,1521.1761,1521.4261,1522.9543,space,1.5164,,1522.9544,58,22,1523.9436,1523.9436,1523.9449,,,,0,31,31,31,1,30,130,,,,,,,,
,,5bec8053b6b5ab00017c7349,65af56682b7145c5d8c759d9,2024-01-23_06h02.34.272,bars,2023.2.3,Win32,59.88023952,657b66ea316d21385b68909f,,,,,,,,,,,1523.9453,1524.9438,,,1525.444,1525.6937,,166,166,,,,,,,,,,,,,,,,bars/044.png,bars/mask002.png,,,,,,,,,,,,0,2,,,,,,,10,0,9,0,,,,,,,,,,,1524.9438,1525.444,1525.6937,1528.2449,space,2.5239,,1528.2449,89,11,1529.2451,1529.2451,1529.273,,,,0,32,32,32,1,75,155,,,,,,,,
,,5bec8053b6b5ab00017c7349,65af56682b7145c5d8c759d9,2024-01-23_06h02.34.272,bars,2023.2.3,Win32,59.88023952,657b66ea316d21385b68909f,,,,,,,,,,,1529.2735,1530.2622,,,1530.7713,1531.0123,,165,165,,,,,,,,,,,,,,,,bars/020.png,bars/mask000.png,,,,,,,,,,,,1,2,,,,,,,10,0,10,1,,,,,,,,,,,1530.2622,1530.7713,1531.0124,1532.857,space,1.8182,,1532.8571,50,5,1533.8464,1533.8465,1533.8477,,,,0,33,33,33,1,115,170,,,,,,,,
,,5bec8053b6b5ab00017c7349,65af56682b7145c5d8c759d9,2024-01-23_06h02.34.272,bars,2023.2.3,Win32,59.88023952,657b66ea316d21385b68909f,,,,,,,,,,,1533.8482,1534.8467,,,1535.3471,1535.5971,,39,39,,,,,,,,,,,,,,,,bars/000.png,bars/mask005.png,,,,,,,,,,,,9,1,,,,,,,8,2,9,2,,,,,,,,,,,1534.8467,1535.347,1535.5971,1538.0979,space,2.4858,,1538.098,1,74,1539.0977,1539.0977,1539.1066,,,,0,34,34,34,1,40,145,,,,,,,,
,,5bec8053b6b5ab00017c7349,65af56682b7145c5d8c759d9,2024-01-23_06h02.34.272,bars,2023.2.3,Win32,59.88023952,657b66ea316d21385b68909f,,,,,,,,,,,1539.1067,1540.1076,,,1540.6034,1540.8585,,93,93,,,,,,,,,,,,,,,,bars/045.png,bars/mask002.png,,,,,,,,,,,,8,1,,,,,,,10,4,10,5,,,,,,,,,,,1540.1077,1540.6034,1540.8585,1542.7257,space,1.8509,,1542.7258,7,83,1543.716,1543.7161,1543.717,,,,0,35,35,35,1,100,10,,,,,,,,
,,5bec8053b6b5ab00017c7349,65af56682b7145c5d8c759d9,2024-01-23_06h02.34.272,bars,2023.2.3,Win32,59.88023952,657b66ea316d21385b68909f,,,,,,,,,,,1543.7174,1544.7165,,,1545.2168,1545.467,,179,179,,,,,,,,,,,,,,,,bars/011.png,bars/mask004.png,,,,,,,,,,,,3,1,,,,,,,8,6,7,5,,,,,,,,,,,1544.7165,1545.2168,1545.467,1548.3843,space,2.902,,1548.3843,19,86,1549.3842,1549.3842,1549.3929,,,,0,36,36,36,1,160,85,,,,,,,,
,,5bec8053b6b5ab00017c7349,65af56682b7145c5d8c759d9,2024-01-23_06h02.34.272,bars,2023.2.3,Win32,59.88023952,657b66ea316d21385b68909f,,,,,,,,,,,1549.3931,1550.3847,,,1550.885,1551.1347,,39,39,,,,,,,,,,,,,,,,bars/034.png,bars/mask006.png,,,,,,,,,,,,1,2,,,,,,,6,8,7,9,,,,,,,,,,,1550.3848,1550.8849,1551.1347,1552.9189,space,1.7702,,1552.9189,86,26,1553.9193,1553.9193,1553.9228,,,,0,37,37,37,1,125,65,,,,,,,,
,,5bec8053b6b5ab00017c7349,65af56682b7145c5d8c759d9,2024-01-23_06h02.34.272,bars,2023.2.3,Win32,59.88023952,657b66ea316d21385b68909f,,,,,,,,,,,1553.9233,1554.9196,,,1555.4196,1555.6696,,17,17,,,,,,,,,,,,,,,,bars/025.png,bars/mask000.png,,,,,,,,,,,,2,2,,,,,,,8,6,8,7,,,,,,,,,,,1554.9197,1555.4196,1555.6696,1558.915,space,3.2382,,1558.9151,88,23,1559.9041,1559.9041,1559.9145,,,,0,38,38,38,1,105,40,,,,,,,,
,,5bec8053b6b5ab00017c7349,65af56682b7145c5d8c759d9,2024-01-23_06h02.34.272,bars,2023.2.3,Win32,59.88023952,657b66ea316d21385b68909f,,,,,,,,,,,1559.9148,1560.905,,,1561.4052,1561.6551,,175,-5,,,,,,,,,,,,,,,,bars/012.png,bars/mask005.png,,,,,,,,,,,,1,2,,,,,,,10,4,9,3,,,,,,,,,,,1560.905,1561.4051,1561.6552,1562.6556,space,0.9846,,1562.6557,85,20,1563.6555,1563.6556,1563.6569,,,,0,39,39,39,1,90,15,,,,,,,,
,,5bec8053b6b5ab00017c7349,65af56682b7145c5d8c759d9,2024-01-23_06h02.34.272,bars,2023.2.3,Win32,59.88023952,657b66ea316d21385b68909f,,,,,,,,,,,1563.6574,1564.656,,,1565.156,1565.4064,,91,91,,,,,,,,,,,,,,,,bars/038.png,bars/mask002.png,,,,,,,,,,,,1,2,,,,,,,10,2,10,3,,,,,,,,,,,1564.6561,1565.156,1565.4064,1567.5241,space,2.0968,,1567.5241,74,21,1568.5236,1568.5237,1568.5425,,,,0,40,40,40,1,165,70,,,,,,,,
,,5bec8053b6b5ab00017c7349,65af56682b7145c5d8c759d9,2024-01-23_06h02.34.272,bars,2023.2.3,Win32,59.88023952,657b66ea316d21385b68909f,,,,,,,,,,,1568.5429,1569.541,,,1570.0408,1570.3003,,103,103,,,,,,,,,,,,,,,,bars/028.png,bars/mask003.png,,,,,,,,,,,,0,2,,,,,,,10,0,10,0,,,,,,,,,,,1569.541,1570.0408,1570.3003,1573.3184,space,3.0015,,1573.3184,58,17,1574.3089,1574.309,1574.3371,,,,0,41,41,41,1,45,120,,,,,,,,
,,5bec8053b6b5ab00017c7349,65af56682b7145c5d8c759d9,2024-01-23_06h02.34.272,bars,2023.2.3,Win32,59.88023952,657b66ea316d21385b68909f,,,,,,,,,,,1574.3376,1575.3256,,,1575.8263,1576.0762,,166,-14,,,,,,,,,,,,,,,,bars/014.png,bars/mask004.png,,,,,,,,,,,,1,2,,,,,,,10,2,10,2,,,,,,,,,,,1575.3256,1575.8262,1576.0763,1578.6769,space,2.5883,,1578.6769,86,14,1579.6774,1579.6775,1579.7052,,,,0,42,42,42,1,80,0,,,,,,,,
,,5bec8053b6b5ab00017c7349,65af56682b7145c5d8c759d9,2024-01-23_06h02.34.272,bars,2023.2.3,Win32,59.88023952,657b66ea316d21385b68909f,,,,,,,,,,,1579.7057,1580.6942,,,1581.1946,1581.4441,,37,37,,,,,,,,,,,,,,,,bars/017.png,bars/mask008.png,,,,,,,,,,,,0,2,,,,,,,8,0,8,0,,,,,,,,,,,1580.6942,1581.1945,1581.4441,1582.578,space,1.1171,,1582.5782,72,8,1583.5786,1583.5787,1583.58,,,,0,43,43,43,1,145,45,,,,,,,,
,,5bec8053b6b5ab00017c7349,65af56682b7145c5d8c759d9,2024-01-23_06h02.34.272,bars,2023.2.3,Win32,59.88023952,657b66ea316d21385b68909f,,,,,,,,,,,1583.5806,1584.5789,,,1585.0792,1585.3291,,28,28,,,,,,,,,,,,,,,,bars/031.png,bars/mask008.png,,,,,,,,,,,,0,2,,,,,,,6,0,6,0,,,,,,,,,,,1584.5789,1585.0791,1585.3293,1588.3298,space,2.9833,,1588.3299,88,7,1589.3304,1589.3304,1589.3581,,,,0,44,44,44,1,120,35,,,,,,,,
,,5bec8053b6b5ab00017c7349,65af56682b7145c5d8c759d9,2024-01-23_06h02.34.272,bars,2023.2.3,Win32,59.88023952,657b66ea316d21385b68909f,,,,,,,,,,,1589.3585,1590.3474,,,1590.8473,1591.0973,,163,-17,,,,,,,,,,,,,,,,bars/032.png,bars/mask001.png,,,,,,,,,,,,0,2,,,,,,,4,0,4,0,,,,,,,,,,,1590.3474,1590.8473,1591.0973,1596.6161,space,5.5038,,1596.6162,38,37,1597.6163,1597.6163,1597.6442,,,,0,45,45,45,1,125,20,,,,,,,,
,,5bec8053b6b5ab00017c7349,65af56682b7145c5d8c759d9,2024-01-23_06h02.34.272,bars,2023.2.3,Win32,59.88023952,657b66ea316d21385b68909f,,,,,,,,,,,1597.6447,1598.633,,,1599.1336,1599.3932,,168,-12,,,,,,,,,,,,,,,,bars/040.png,bars/mask000.png,,,,,,,,,,,,1,2,,,,,,,6,2,4,2,,,,,,,,,,,1598.6331,1599.1335,1599.3934,1603.5632,space,4.1535,,1603.5633,28,17,1604.5519,1604.552,1604.5796,,,,0,46,46,46,1,140,5,,,,,,,,
,,5bec8053b6b5ab00017c7349,65af56682b7145c5d8c759d9,2024-01-23_06h02.34.272,bars,2023.2.3,Win32,59.88023952,657b66ea316d21385b68909f,,,,,,,,,,,1604.5801,1605.5691,,,1606.0689,1606.319,,52,52,,,,,,,,,,,,,,,,bars/027.png,bars/mask008.png,,,,,,,,,,,,4,2,,,,,,,4,4,4,4,,,,,,,,,,,1605.5692,1606.0689,1606.3191,1608.2026,space,1.8669,,1608.2028,58,2,1609.2031,1609.2031,1609.2316,,,,0,47,47,47,1,110,50,,,,,,,,
,,5bec8053b6b5ab00017c7349,65af56682b7145c5d8c759d9,2024-01-23_06h02.34.272,bars,2023.2.3,Win32,59.88023952,657b66ea316d21385b68909f,,,,,,,,,,,1609.2321,1610.2201,,,1610.7203,1610.9699,,57,237,,,,,,,,,,,,,,,,bars/031.png,bars/mask001.png,,,,,,,,,,,,1,2,,,,,,,6,6,7,5,,,,,,,,,,,1610.2202,1610.7203,1610.9699,1616.3548,space,5.3722,,1616.3548,63,22,1617.3556,1617.3557,1617.3804,,,,0,48,48,48,1,120,35,,,,,,,,
,,5bec8053b6b5ab00017c7349,65af56682b7145c5d8c759d9,2024-01-23_06h02.34.272,bars,2023.2.3,Win32,59.88023952,657b66ea316d21385b68909f,,,,,,,,,,,1617.3808,1618.3731,,,1618.8729,1619.1234,,165,-15,,,,,,,,,,,,,,,,bars/016.png,bars/mask000.png,,,,,,,,,,,,8,2,,,,,,,8,8,9,8,,,,,,,,,,,1618.3732,1618.8729,1619.1234,1621.374,space,2.2384,,1621.3742,55,0,1622.3742,1622.3743,1622.3756,,,,0,49,49,49,1,40,165,,,,,,,,
,,5bec8053b6b5ab00017c7349,65af56682b7145c5d8c759d9,2024-01-23_06h02.34.272,bars,2023.2.3,Win32,59.88023952,657b66ea316d21385b68909f,,,,,,,,,,,,,,,,,,,,,,,,,,,,,,,,,,,,,,,,,,,,,,,,,,,,,,,,,,,,,,,,,,,,,,,,,,,,,,,,,,,,,,,,,,,,,1622.3759,1682.3758,0,3,3,1,1,sequence_tables/blk034.csv
,,5bec8053b6b5ab00017c7349,65af56682b7145c5d8c759d9,2024-01-23_06h02.34.272,bars,2023.2.3,Win32,59.88023952,657b66ea316d21385b68909f,,,,,,,,,,,1684.4074,1685.3944,,,1685.8937,1686.1437,,118,118,,,,,,,,,,,,,,,,bars/037.png,bars/mask003.png,,,,,,,,,,,,5,2,,,,,,,8,8,9,9,,,,,,1682.3958,1684.3933,space,1.9839,,1685.3944,1685.8936,1686.1438,1688.278,space,2.1187,,1688.278,32,13,1689.2781,1689.2781,1689.3058,,,,0,0,0,0,1,150,105,,,,,,,,
,,5bec8053b6b5ab00017c7349,65af56682b7145c5d8c759d9,2024-01-23_06h02.34.272,bars,2023.2.3,Win32,59.88023952,657b66ea316d21385b68909f,,,,,,,,,,,1689.3064,1690.2948,,,1690.7951,1691.0453,,95,95,,,,,,,,,,,,,,,,bars/011.png,bars/mask007.png,,,,,,,,,,,,4,2,,,,,,,10,6,8,6,,,,,,,,,,,1690.2949,1690.795,1691.0453,1695.1459,space,4.0829,,1695.146,65,10,1696.1467,1696.1468,1696.1744,,,,0,1,1,1,1,160,85,,,,,,,,
,,5bec8053b6b5ab00017c7349,65af56682b7145c5d8c759d9,2024-01-23_06h02.34.272,bars,2023.2.3,Win32,59.88023952,657b66ea316d21385b68909f,,,,,,,,,,,1696.1749,1697.1636,,,1697.6639,1697.9139,,67,67,,,,,,,,,,,,,,,,bars/039.png,bars/mask006.png,,,,,,,,,,,,0,2,,,,,,,8,8,10,8,,,,,,,,,,,1697.1636,1697.6638,1697.914,1700.2922,space,2.3523,,1700.2923,72,38,1701.2812,1701.2813,1701.2972,,,,0,2,2,2,1,175,105,,,,,,,,
,,5bec8053b6b5ab00017c7349,65af56682b7145c5d8c759d9,2024-01-23_06h02.34.272,bars,2023.2.3,Win32,59.88023952,657b66ea316d21385b68909f,,,,,,,,,,,1701.2976,1702.2915,,,1702.7822,1703.0322,,95,95,,,,,,,,,,,,,,,,bars/041.png,bars/mask001.png,,,,,,,,,,,,5,2,,,,,,,6,6,4,7,,,,,,,,,,,1702.2916,1702.7822,1703.0323,1707.6231,space,4.5646,,1707.6232,75,10,1708.6168,1708.6168,1708.6268,,,,0,3,3,3,1,20,85,,,,,,,,
,,5bec8053b6b5ab00017c7349,65af56682b7145c5d8c759d9,2024-01-23_06h02.34.272,bars,2023.2.3,Win32,59.88023952,657b66ea316d21385b68909f,,,,,,,,,,,1708.6269,1709.6174,,,1710.1271,1710.3776,,39,39,,,,,,,,,,,,,,,,bars/001.png,bars/mask006.png,,,,,,,,,,,,0,2,,,,,,,4,8,5,7,,,,,,,,,,,1709.6174,1710.127,1710.3776,1714.9466,space,4.5524,,1714.9467,89,46,1715.9361,1715.9361,1715.9639,,,,0,4,4,4,1,130,85,,,,,,,,
,,5bec8053b6b5ab00017c7349,65af56682b7145c5d8c759d9,2024-01-23_06h02.34.272,bars,2023.2.3,Win32,59.88023952,657b66ea316d21385b68909f,,,,,,,,,,,1715.9645,1716.9531,,,1717.4534,1717.7032,,106,106,,,,,,,,,,,,,,,,bars/046.png,bars/mask003.png,,,,,,,,,,,,2,2,,,,,,,2,6,1,6,,,,,,,,,,,1716.9531,1717.4534,1717.7033,1719.0207,space,1.3013,,1719.0209,49,21,1720.0205,1720.0206,1720.0215,,,,0,5,5,5,1,155,85,,,,,,,,
,,5bec8053b6b5ab00017c7349,65af56682b7145c5d8c759d9,2024-01-23_06h02.34.272,bars,2023.2.3,Win32,59.88023952,657b66ea316d21385b68909f,,,,,,,,,,,1720.0222,1721.021,,,1721.5213,1721.7711,,6,186,,,,,,,,,,,,,,,,bars/022.png,bars/mask000.png,,,,,,,,,,,,3,2,,,,,,,4,4,3,6,,,,,,,,,,,1721.0211,1721.5212,1721.7712,1723.7724,space,1.9889,,1723.7725,89,14,1724.7719,1724.772,1724.7878,,,,0,6,6,6,1,95,20,,,,,,,,
,,5bec8053b6b5ab00017c7349,65af56682b7145c5d8c759d9,2024-01-23_06h02.34.272,bars,2023.2.3,Win32,59.88023952,657b66ea316d21385b68909f,,,,,,,,,,,1724.7882,1725.7824,,,1726.2722,1726.5227,,172,172,,,,,,,,,,,,,,,,bars/045.png,bars/mask004.png,,,,,,,,,,,,0,2,,,,,,,2,2,1,1,,,,,,,,,,,1725.7824,1726.2722,1726.5228,1728.484,space,1.9348,,1728.484,72,18,1729.4735,1729.4736,1729.5007,,,,0,7,7,7,1,100,10,,,,,,,,
,,5bec8053b6b5ab00017c7349,65af56682b7145c5d8c759d9,2024-01-23_06h02.34.272,bars,2023.2.3,Win32,59.88023952,657b66ea316d21385b68909f,,,,,,,,,,,1729.5009,1730.4908,,,1730.9906,1731.241,,73,73,,,,,,,,,,,,,,,,bars/041.png,bars/mask006.png,,,,,,,,,,,,2,2,,,,,,,4,4,3,3,,,,,,,,,,,1730.4909,1730.9905,1731.241,1734.7089,space,3.4554,,1734.7091,53,12,1735.7089,1735.7089,1735.7366,,,,0,8,8,8,1,20,85,,,,,,,,
,,5bec8053b6b5ab00017c7349,65af56682b7145c5d8c759d9,2024-01-23_06h02.34.272,bars,2023.2.3,Win32,59.88023952,657b66ea316d21385b68909f,,,,,,,,,,,1735.7371,1736.7261,,,1737.2259,1737.4762,,10,10,,,,,,,,,,,,,,,,bars/031.png,bars/mask005.png,,,,,,,,,,,,1,2,,,,,,,2,6,3,7,,,,,,,,,,,1736.7262,1737.2258,1737.4762,1740.4434,space,2.9555,,1740.4436,70,25,1741.4439,1741.444,1741.471,,,,0,9,9,9,1,120,35,,,,,,,,
,,5bec8053b6b5ab00017c7349,65af56682b7145c5d8c759d9,2024-01-23_06h02.34.272,bars,2023.2.3,Win32,59.88023952,657b66ea316d21385b68909f,,,,,,,,,,,1741.4712,1742.4609,,,1742.9612,1743.2112,,166,166,,,,,,,,,,,,,,,,bars/036.png,bars/mask009.png,,,,,,,,,,,,1,1,,,,,,,4,8,4,8,,,,,,,,,,,1742.461,1742.9612,1743.2112,1747.6963,space,4.4691,,1747.6963,21,34,1748.6962,1748.6962,1748.7263,,,,0,10,10,10,1,145,20,,,,,,,,
,,5bec8053b6b5ab00017c7349,65af56682b7145c5d8c759d9,2024-01-23_06h02.34.272,bars,2023.2.3,Win32,59.88023952,657b66ea316d21385b68909f,,,,,,,,,,,1748.7268,1749.7298,,,1750.2301,1750.4799,,29,29,,,,,,,,,,,,,,,,bars/034.png,bars/mask007.png,,,,,,,,,,,,0,2,,,,,,,6,6,6,6,,,,,,,,,,,1749.7298,1750.2301,1750.4799,1752.2805,space,1.7877,,1752.2805,84,36,1753.281,1753.2811,1753.3107,,,,0,11,11,11,1,125,65,,,,,,,,
,,5bec8053b6b5ab00017c7349,65af56682b7145c5d8c759d9,2024-01-23_06h02.34.272,bars,2023.2.3,Win32,59.88023952,657b66ea316d21385b68909f,,,,,,,,,,,1753.3113,1754.3146,,,1754.8143,1755.0648,,11,191,,,,,,,,,,,,,,,,bars/031.png,bars/mask004.png,,,,,,,,,,,,1,2,,,,,,,4,4,3,3,,,,,,,,,,,1754.3146,1754.8143,1755.0649,1757.5825,space,2.5028,,1757.5825,71,24,1758.5826,1758.5827,1758.5839,,,,0,12,12,12,1,120,35,,,,,,,,
