init_variables.started,init_variables.stopped,participant,session,date,expName,psychopyVersion,OS,frameRate,study_id,instruction_exp.started,instruction_exp.stopped,key_resp_8.keys,key_resp_8.rt,key_resp_8.duration,instruction_single.started,instruction_single.stopped,key_resp_2.keys,key_resp_2.rt,key_resp_2.duration,interval.started,interval.stopped,cue_single.started,cue_single.stopped,mask.started,mask.stopped,ori_response_single.started,res_ori,res,ori_response_single.stopped,key_resp_single.keys,key_resp_single.rt,key_resp_single.duration,disp_single.started,disp_single.stopped,key_resp.keys,key_resp.rt,key_resp.duration,single.thisRepN,single.thisTrialN,single.thisN,single.thisIndex,single.ran,ori,path,mask_path,instruction_bandit.started,instruction_bandit.stopped,key_resp_6.keys,key_resp_6.rt,key_resp_6.duration,cue_bandit.started,cue_bandit.stopped,bandit_res.keys,bandit_res.rt,bandit_res.duration,outcome_bandit.started,rew,action,outcome_bandit.stopped,bandit.thisRepN,bandit.thisTrialN,bandit.thisN,bandit.thisIndex,bandit.ran,actual_rew1,actual_rew2,rew1,rew2,instruction_task.started,instruction_task.stopped,key_resp_7.keys,key_resp_7.rt,key_resp_7.duration,wait_ready.started,wait_ready.stopped,key_resp_3.keys,key_resp_3.rt,key_resp_3.duration,cue.started,cue.stopped,ori_response.started,ori_response.stopped,key_resp_5.keys,key_resp_5.rt,key_resp_5.duration,outcome.started,diff1,diff2,outcome.stopped,disp_outcome_practice.started,disp_outcome_practice.stopped,key_resp_4.keys,key_resp_4.rt,key_resp_4.duration,trials.thisRepN,trials.thisTrialN,trials.thisN,trials.thisIndex,trials.ran,ori1,ori2,break_blk.started,break_blk.stopped,block.thisRepN,block.thisTrialN,block.thisN,block.thisIndex,block.ran,condition_file
0.0004,0.0005,6125ed1e651031550dfcad1a,65af569f30852ac05a101dec,2024-01-23_08h04.05.010,bars,2023.2.3,Win32,121.9512195,657b66ea316d21385b68909f,,,,,,,,,,,,,,,,,,,,,,,,,,,,,,,,,,,,,,,,,,,,,,,,,,,,,,,,,,,,,,,,,,,,,,,,,,,,,,,,,,,,,,,,,,,,,,,,,,,,
,,6125ed1e651031550dfcad1a,65af569f30852ac05a101dec,2024-01-23_08h04.05.010,bars,2023.2.3,Win32,121.9512195,657b66ea316d21385b68909f,0.0007,30.7888,y,30.749,,,,,,,,,,,,,,,,,,,,,,,,,,,,,,,,,,,,,,,,,,,,,,,,,,,,,,,,,,,,,,,,,,,,,,,,,,,,,,,,,,,,,,,,,,,,,,,,
,,6125ed1e651031550dfcad1a,65af569f30852ac05a101dec,2024-01-23_08h04.05.010,bars,2023.2.3,Win32,121.9512195,657b66ea316d21385b68909f,,,,,,30.7891,54.8449,space,24.0412,,,,,,,,,,,,,,,,,,,,,,,,,,,,,,,,,,,,,,,,,,,,,,,,,,,,,,,,,,,,,,,,,,,,,,,,,,,,,,,,,,,,,,,,,,,
,,6125ed1e651031550dfcad1a,65af569f30852ac05a101dec,2024-01-23_08h04.05.010,bars,2023.2.3,Win32,121.9512195,657b66ea316d21385b68909f,,,,,,,,,,,54.8512,55.8456,55.8458,56.3461,56.3463,56.5956,56.5958,70,70,62.9539,space,6.3331,,62.9541,76.5102,space,13.5217,,0,0,0,6,1,175,bars/single006.png,bars/mask005.png,,,,,,,,,,,,,,,,,,,,,,,,,,,,,,,,,,,,,,,,,,,,,,,,,,,,,,,,,,,,,,,,
,,6125ed1e651031550dfcad1a,65af569f30852ac05a101dec,2024-01-23_08h04.05.010,bars,2023.2.3,Win32,121.9512195,657b66ea316d21385b68909f,,,,,,,,,,,76.5283,77.5172,77.5173,78.0174,78.0177,78.2644,78.2644,122,122,84.8746,space,6.6019,,84.8747,87.7079,space,2.8059,,0,1,1,3,1,20,bars/single003.png,bars/mask005.png,,,,,,,,,,,,,,,,,,,,,,,,,,,,,,,,,,,,,,,,,,,,,,,,,,,,,,,,,,,,,,,,
,,6125ed1e651031550dfcad1a,65af569f30852ac05a101dec,2024-01-23_08h04.05.010,bars,2023.2.3,Win32,121.9512195,657b66ea316d21385b68909f,,,,,,,,,,,87.7085,88.7072,88.7073,89.2075,89.2077,89.4573,89.4573,149,149,90.3907,space,0.9262,,90.3908,96.1817,space,5.7821,,0,2,2,8,1,160,bars/single008.png,bars/mask004.png,,,,,,,,,,,,,,,,,,,,,,,,,,,,,,,,,,,,,,,,,,,,,,,,,,,,,,,,,,,,,,,,
,,6125ed1e651031550dfcad1a,65af569f30852ac05a101dec,2024-01-23_08h04.05.010,bars,2023.2.3,Win32,121.9512195,657b66ea316d21385b68909f,,,,,,,,,,,96.1988,97.1896,97.1897,97.6897,97.6898,97.9397,97.9398,168,168,98.7974,space,0.8515,,98.7975,101.2227,space,2.4105,,0,3,3,4,1,95,bars/single004.png,bars/mask004.png,,,,,,,,,,,,,,,,,,,,,,,,,,,,,,,,,,,,,,,,,,,,,,,,,,,,,,,,,,,,,,,,
,,6125ed1e651031550dfcad1a,65af569f30852ac05a101dec,2024-01-23_08h04.05.010,bars,2023.2.3,Win32,121.9512195,657b66ea316d21385b68909f,,,,,,,,,,,101.2403,102.2263,102.2264,102.7231,102.7232,102.9725,102.9726,47,47,103.9473,space,0.9669,,103.9473,105.2304,space,1.2734,,0,4,4,1,1,20,bars/single001.png,bars/mask006.png,,,,,,,,,,,,,,,,,,,,,,,,,,,,,,,,,,,,,,,,,,,,,,,,,,,,,,,,,,,,,,,,
,,6125ed1e651031550dfcad1a,65af569f30852ac05a101dec,2024-01-23_08h04.05.010,bars,2023.2.3,Win32,121.9512195,657b66ea316d21385b68909f,,,,,,,,,,,105.2309,106.2304,106.2304,106.7303,106.7303,106.9802,106.9802,63,63,107.6048,space,0.6183,,107.6048,108.1883,space,0.5735,,0,5,5,2,1,145,bars/single002.png,bars/mask003.png,,,,,,,,,,,,,,,,,,,,,,,,,,,,,,,,,,,,,,,,,,,,,,,,,,,,,,,,,,,,,,,,
,,6125ed1e651031550dfcad1a,65af569f30852ac05a101dec,2024-01-23_08h04.05.010,bars,2023.2.3,Win32,121.9512195,657b66ea316d21385b68909f,,,,,,,,,,,108.1888,109.1878,109.1879,109.6882,109.6883,109.9379,109.938,176,176,110.5879,space,0.6429,,110.588,111.2965,space,0.6974,,0,6,6,7,1,45,bars/single007.png,bars/mask009.png,,,,,,,,,,,,,,,,,,,,,,,,,,,,,,,,,,,,,,,,,,,,,,,,,,,,,,,,,,,,,,,,
,,6125ed1e651031550dfcad1a,65af569f30852ac05a101dec,2024-01-23_08h04.05.010,bars,2023.2.3,Win32,121.9512195,657b66ea316d21385b68909f,,,,,,,,,,,111.2971,112.2959,112.296,112.7961,112.7961,113.0462,113.0462,12,12,113.5792,space,0.5259,,113.5792,114.029,space,0.4402,,0,7,7,0,1,150,bars/single000.png,bars/mask006.png,,,,,,,,,,,,,,,,,,,,,,,,,,,,,,,,,,,,,,,,,,,,,,,,,,,,,,,,,,,,,,,,
,,6125ed1e651031550dfcad1a,65af569f30852ac05a101dec,2024-01-23_08h04.05.010,bars,2023.2.3,Win32,121.9512195,657b66ea316d21385b68909f,,,,,,,,,,,114.0295,115.0287,115.0288,115.5287,115.5288,115.7787,115.7787,78,78,116.5122,space,0.7262,,116.5122,116.9953,space,0.4737,,0,8,8,5,1,55,bars/single005.png,bars/mask008.png,,,,,,,,,,,,,,,,,,,,,,,,,,,,,,,,,,,,,,,,,,,,,,,,,,,,,,,,,,,,,,,,
,,6125ed1e651031550dfcad1a,65af569f30852ac05a101dec,2024-01-23_08h04.05.010,bars,2023.2.3,Win32,121.9512195,657b66ea316d21385b68909f,,,,,,,,,,,116.9958,117.9957,117.9957,118.4955,118.4955,118.7449,118.7449,14,14,119.2006,space,0.4497,,119.2006,119.5757,space,0.3661,,0,9,9,9,1,20,bars/single009.png,bars/mask006.png,,,,,,,,,,,,,,,,,,,,,,,,,,,,,,,,,,,,,,,,,,,,,,,,,,,,,,,,,,,,,,,,
,,6125ed1e651031550dfcad1a,65af569f30852ac05a101dec,2024-01-23_08h04.05.010,bars,2023.2.3,Win32,121.9512195,657b66ea316d21385b68909f,,,,,,,,,,,,,,,,,,,,,,,,,,,,,,,,,,,,,119.5769,136.7691,space,17.1749,,,,,,,,,,,,,,,,,,,,,,,,,,,,,,,,,,,,,,,,,,,,,,,,,,,,,,,,,,,,
,,6125ed1e651031550dfcad1a,65af569f30852ac05a101dec,2024-01-23_08h04.05.010,bars,2023.2.3,Win32,121.9512195,657b66ea316d21385b68909f,,,,,,,,,,,,,,,,,,,,,,,,,,,,,,,,,,,,,,,,,,136.7889,141.0266,right,4.2194,,141.027,2,2,142.0257,0,0,0,0,1,9,1,9,2,,,,,,,,,,,,,,,,,,,,,,,,,,,,,,,,,,,,,,,,,
,,6125ed1e651031550dfcad1a,65af569f30852ac05a101dec,2024-01-23_08h04.05.010,bars,2023.2.3,Win32,121.9512195,657b66ea316d21385b68909f,,,,,,,,,,,,,,,,,,,,,,,,,,,,,,,,,,,,,,,,,,142.0265,144.1758,right,2.1352,,144.176,1,2,145.1755,0,1,1,1,1,10,0,10,1,,,,,,,,,,,,,,,,,,,,,,,,,,,,,,,,,,,,,,,,,
,,6125ed1e651031550dfcad1a,65af569f30852ac05a101dec,2024-01-23_08h04.05.010,bars,2023.2.3,Win32,121.9512195,657b66ea316d21385b68909f,,,,,,,,,,,,,,,,,,,,,,,,,,,,,,,,,,,,,,,,,,145.1917,146.1792,right,0.9817,,146.1793,2,2,147.1752,0,2,2,2,1,10,2,10,2,,,,,,,,,,,,,,,,,,,,,,,,,,,,,,,,,,,,,,,,,
,,6125ed1e651031550dfcad1a,65af569f30852ac05a101dec,2024-01-23_08h04.05.010,bars,2023.2.3,Win32,121.9512195,657b66ea316d21385b68909f,,,,,,,,,,,,,,,,,,,,,,,,,,,,,,,,,,,,,,,,,,147.1757,148.3831,left,1.1947,,148.3832,7,1,149.3833,0,3,3,3,1,8,4,7,3,,,,,,,,,,,,,,,,,,,,,,,,,,,,,,,,,,,,,,,,,
,,6125ed1e651031550dfcad1a,65af569f30852ac05a101dec,2024-01-23_08h04.05.010,bars,2023.2.3,Win32,121.9512195,657b66ea316d21385b68909f,,,,,,,,,,,,,,,,,,,,,,,,,,,,,,,,,,,,,,,,,,149.3838,150.2248,left,0.8336,,150.2249,5,1,151.2248,0,4,4,4,1,6,2,5,1,,,,,,,,,,,,,,,,,,,,,,,,,,,,,,,,,,,,,,,,,
,,6125ed1e651031550dfcad1a,65af569f30852ac05a101dec,2024-01-23_08h04.05.010,bars,2023.2.3,Win32,121.9512195,657b66ea316d21385b68909f,,,,,,,,,,,,,,,,,,,,,,,,,,,,,,,,,,,,,,,,,,151.2252,151.7077,right,0.4681,,151.7077,4,2,152.7073,0,5,5,5,1,4,4,4,4,,,,,,,,,,,,,,,,,,,,,,,,,,,,,,,,,,,,,,,,,
,,6125ed1e651031550dfcad1a,65af569f30852ac05a101dec,2024-01-23_08h04.05.010,bars,2023.2.3,Win32,121.9512195,657b66ea316d21385b68909f,,,,,,,,,,,,,,,,,,,,,,,,,,,,,,,,,,,,,,,,,,152.7079,153.2784,right,0.5585,,153.2785,2,2,154.2742,0,6,6,6,1,2,2,1,2,,,,,,,,,,,,,,,,,,,,,,,,,,,,,,,,,,,,,,,,,
,,6125ed1e651031550dfcad1a,65af569f30852ac05a101dec,2024-01-23_08h04.05.010,bars,2023.2.3,Win32,121.9512195,657b66ea316d21385b68909f,,,,,,,,,,,,,,,,,,,,,,,,,,,,,,,,,,,,,,,,,,154.2747,154.6247,right,0.3356,,154.6247,1,2,155.6241,0,7,7,7,1,0,0,0,1,,,,,,,,,,,,,,,,,,,,,,,,,,,,,,,,,,,,,,,,,
,,6125ed1e651031550dfcad1a,65af569f30852ac05a101dec,2024-01-23_08h04.05.010,bars,2023.2.3,Win32,121.9512195,657b66ea316d21385b68909f,,,,,,,,,,,,,,,,,,,,,,,,,,,,,,,,,,,,,,,,,,155.6246,156.0242,left,0.3918,,156.0243,1,1,157.0238,0,8,8,8,1,0,2,1,0,,,,,,,,,,,,,,,,,,,,,,,,,,,,,,,,,,,,,,,,,
,,6125ed1e651031550dfcad1a,65af569f30852ac05a101dec,2024-01-23_08h04.05.010,bars,2023.2.3,Win32,121.9512195,657b66ea316d21385b68909f,,,,,,,,,,,,,,,,,,,,,,,,,,,,,,,,,,,,,,,,,,157.0243,157.3704,left,0.3347,,157.3704,2,1,158.3649,0,9,9,9,1,2,4,2,3,,,,,,,,,,,,,,,,,,,,,,,,,,,,,,,,,,,,,,,,,
,,6125ed1e651031550dfcad1a,65af569f30852ac05a101dec,2024-01-23_08h04.05.010,bars,2023.2.3,Win32,121.9512195,657b66ea316d21385b68909f,,,,,,,,,,,,,,,,,,,,,,,,,,,,,,,,,,,,,,,,,,158.3653,158.7149,left,0.3423,,158.715,0,1,159.715,0,10,10,10,1,0,2,0,3,,,,,,,,,,,,,,,,,,,,,,,,,,,,,,,,,,,,,,,,,
,,6125ed1e651031550dfcad1a,65af569f30852ac05a101dec,2024-01-23_08h04.05.010,bars,2023.2.3,Win32,121.9512195,657b66ea316d21385b68909f,,,,,,,,,,,,,,,,,,,,,,,,,,,,,,,,,,,,,,,,,,159.7155,160.0317,right,0.3089,,160.0318,3,2,161.0315,0,11,11,11,1,0,4,0,3,,,,,,,,,,,,,,,,,,,,,,,,,,,,,,,,,,,,,,,,,
,,6125ed1e651031550dfcad1a,65af569f30852ac05a101dec,2024-01-23_08h04.05.010,bars,2023.2.3,Win32,121.9512195,657b66ea316d21385b68909f,,,,,,,,,,,,,,,,,,,,,,,,,,,,,,,,,,,,,,,,,,161.0319,161.3315,right,0.2935,,161.3316,6,2,162.3313,0,12,12,12,1,2,6,1,6,,,,,,,,,,,,,,,,,,,,,,,,,,,,,,,,,,,,,,,,,
,,6125ed1e651031550dfcad1a,65af569f30852ac05a101dec,2024-01-23_08h04.05.010,bars,2023.2.3,Win32,121.9512195,657b66ea316d21385b68909f,,,,,,,,,,,,,,,,,,,,,,,,,,,,,,,,,,,,,,,,,,162.3317,162.7481,left,0.4092,,162.7481,1,1,163.7478,0,13,13,13,1,0,4,1,3,,,,,,,,,,,,,,,,,,,,,,,,,,,,,,,,,,,,,,,,,
,,6125ed1e651031550dfcad1a,65af569f30852ac05a101dec,2024-01-23_08h04.05.010,bars,2023.2.3,Win32,121.9512195,657b66ea316d21385b68909f,,,,,,,,,,,,,,,,,,,,,,,,,,,,,,,,,,,,,,,,,,163.7483,164.0669,left,0.3088,,164.0669,2,1,165.0644,0,14,14,14,1,2,6,2,7,,,,,,,,,,,,,,,,,,,,,,,,,,,,,,,,,,,,,,,,,
,,6125ed1e651031550dfcad1a,65af569f30852ac05a101dec,2024-01-23_08h04.05.010,bars,2023.2.3,Win32,121.9512195,657b66ea316d21385b68909f,,,,,,,,,,,,,,,,,,,,,,,,,,,,,,,,,,,,,,,,,,165.0649,165.2224,right,0.1512,,165.2225,9,2,166.2226,0,15,15,15,1,4,8,3,9,,,,,,,,,,,,,,,,,,,,,,,,,,,,,,,,,,,,,,,,,
,,6125ed1e651031550dfcad1a,65af569f30852ac05a101dec,2024-01-23_08h04.05.010,bars,2023.2.3,Win32,121.9512195,657b66ea316d21385b68909f,,,,,,,,,,,,,,,,,,,,,,,,,,,,,,,,,,,,,,,,,,166.223,166.506,right,0.2767,,166.506,7,2,167.5057,0,16,16,16,1,6,6,7,7,,,,,,,,,,,,,,,,,,,,,,,,,,,,,,,,,,,,,,,,,
,,6125ed1e651031550dfcad1a,65af569f30852ac05a101dec,2024-01-23_08h04.05.010,bars,2023.2.3,Win32,121.9512195,657b66ea316d21385b68909f,,,,,,,,,,,,,,,,,,,,,,,,,,,,,,,,,,,,,,,,,,167.506,167.7475,right,0.234,,167.7475,5,2,168.7471,0,17,17,17,1,8,4,9,5,,,,,,,,,,,,,,,,,,,,,,,,,,,,,,,,,,,,,,,,,
,,6125ed1e651031550dfcad1a,65af569f30852ac05a101dec,2024-01-23_08h04.05.010,bars,2023.2.3,Win32,121.9512195,657b66ea316d21385b68909f,,,,,,,,,,,,,,,,,,,,,,,,,,,,,,,,,,,,,,,,,,168.7477,169.0554,right,0.3009,,169.0555,1,2,170.0554,0,18,18,18,1,6,2,5,1,,,,,,,,,,,,,,,,,,,,,,,,,,,,,,,,,,,,,,,,,
,,6125ed1e651031550dfcad1a,65af569f30852ac05a101dec,2024-01-23_08h04.05.010,bars,2023.2.3,Win32,121.9512195,657b66ea316d21385b68909f,,,,,,,,,,,,,,,,,,,,,,,,,,,,,,,,,,,,,,,,,,170.056,170.23,left,0.1616,,170.2301,7,1,171.2303,0,19,19,19,1,8,0,7,0,,,,,,,,,,,,,,,,,,,,,,,,,,,,,,,,,,,,,,,,,
,,6125ed1e651031550dfcad1a,65af569f30852ac05a101dec,2024-01-23_08h04.05.010,bars,2023.2.3,Win32,121.9512195,657b66ea316d21385b68909f,,,,,,,,,,,,,,,,,,,,,,,,,,,,,,,,,,,,,,,,,,,,,,,,,,,,,,,,,,,,171.2315,182.396,space,11.1508,,,,,,,,,,,,,,,,,,,,,,,,,,,,,,,,,,,,,
,,6125ed1e651031550dfcad1a,65af569f30852ac05a101dec,2024-01-23_08h04.05.010,bars,2023.2.3,Win32,121.9512195,657b66ea316d21385b68909f,,,,,,,,,,,183.9094,184.9038,,,185.404,185.6535,,64,64,,,,,,,,,,,,,,,,bars/002.png,bars/mask000.png,,,,,,,,,,,,0,2,,,,,,,10,1,8,0,,,,,,182.4151,183.9039,space,1.478,,184.9043,185.4039,185.6538,189.6286,space,3.9611,,189.6293,66,21,190.6279,190.6283,199.7197,space,9.0744,,0,0,0,0,1,130,85,,,,,,,,
,,6125ed1e651031550dfcad1a,65af569f30852ac05a101dec,2024-01-23_08h04.05.010,bars,2023.2.3,Win32,121.9512195,657b66ea316d21385b68909f,,,,,,,,,,,199.7365,200.7261,,,201.2231,201.4731,,88,88,,,,,,,,,,,,,,,,bars/024.png,bars/mask000.png,,,,,,,,,,,,0,1,,,,,,,8,0,8,0,,,,,,,,,,,200.7263,201.223,201.4731,204.9922,space,3.5091,,204.9922,32,82,205.992,205.9921,207.9004,space,1.8862,,0,1,1,1,1,120,170,,,,,,,,
,,6125ed1e651031550dfcad1a,65af569f30852ac05a101dec,2024-01-23_08h04.05.010,bars,2023.2.3,Win32,121.9512195,657b66ea316d21385b68909f,,,,,,,,,,,207.9011,208.9001,,,209.4002,209.6498,,123,123,,,,,,,,,,,,,,,,bars/043.png,bars/mask006.png,,,,,,,,,,,,0,2,,,,,,,6,0,5,0,,,,,,,,,,,208.9002,209.4001,209.6499,212.0168,space,2.3599,,212.0168,87,7,213.016,213.016,216.0409,space,3.0003,,0,2,2,2,1,30,130,,,,,,,,
,,6125ed1e651031550dfcad1a,65af569f30852ac05a101dec,2024-01-23_08h04.05.010,bars,2023.2.3,Win32,121.9512195,657b66ea316d21385b68909f,,,,,,,,,,,216.0565,217.0412,,,217.5411,217.7914,,30,210,,,,,,,,,,,,,,,,bars/031.png,bars/mask003.png,,,,,,,,,,,,0,2,,,,,,,4,2,3,0,,,,,,,,,,,217.0412,217.541,217.7914,222.3573,space,4.5584,,222.3574,90,5,223.3568,223.3569,228.4398,space,5.0558,,0,3,3,3,1,120,35,,,,,,,,
,,6125ed1e651031550dfcad1a,65af569f30852ac05a101dec,2024-01-23_08h04.05.010,bars,2023.2.3,Win32,121.9512195,657b66ea316d21385b68909f,,,,,,,,,,,228.4563,229.4477,,,229.9475,230.1975,,136,136,,,,,,,,,,,,,,,,bars/024.png,bars/mask000.png,,,,,,,,,,,,2,1,,,,,,,6,0,5,0,,,,,,,,,,,229.4478,229.9475,230.1976,232.4392,space,2.227,,232.4392,16,34,233.4391,233.4391,234.7851,space,1.3324,,0,4,4,4,1,120,170,,,,,,,,
,,6125ed1e651031550dfcad1a,65af569f30852ac05a101dec,2024-01-23_08h04.05.010,bars,2023.2.3,Win32,121.9512195,657b66ea316d21385b68909f,,,,,,,,,,,234.7855,235.78,,,236.2806,236.5303,,45,45,,,,,,,,,,,,,,,,bars/024.png,bars/mask001.png,,,,,,,,,,,,0,2,,,,,,,8,2,10,5,,,,,,,,,,,235.7801,236.2805,236.5303,239.0094,space,2.467,,239.0095,75,55,240.0045,240.0046,241.2673,space,1.2441,,0,5,5,5,1,120,170,,,,,,,,
,,6125ed1e651031550dfcad1a,65af569f30852ac05a101dec,2024-01-23_08h04.05.010,bars,2023.2.3,Win32,121.9512195,657b66ea316d21385b68909f,,,,,,,,,,,241.2678,242.263,,,242.7628,243.0126,,45,225,,,,,,,,,,,,,,,,bars/028.png,bars/mask000.png,,,,,,,,,,,,10,1,,,,,,,10,0,10,1,,,,,,,,,,,242.263,242.7627,243.0127,246.4507,space,3.4319,,246.4509,0,75,247.4456,247.4457,250.1122,space,2.6425,,0,6,6,6,1,45,120,,,,,,,,
,,6125ed1e651031550dfcad1a,65af569f30852ac05a101dec,2024-01-23_08h04.05.010,bars,2023.2.3,Win32,121.9512195,657b66ea316d21385b68909f,,,,,,,,,,,250.1288,251.1195,,,251.6196,251.8652,,175,-5,,,,,,,,,,,,,,,,bars/033.png,bars/mask000.png,,,,,,,,,,,,0,2,,,,,,,10,0,10,0,,,,,,,,,,,251.1195,251.6196,251.8653,255.0526,space,3.18,,255.0526,30,20,256.0526,256.0526,257.5694,space,1.4857,,0,7,7,7,1,25,155,,,,,,,,
,,6125ed1e651031550dfcad1a,65af569f30852ac05a101dec,2024-01-23_08h04.05.010,bars,2023.2.3,Win32,121.9512195,657b66ea316d21385b68909f,,,,,,,,,,,257.5703,258.5692,,,259.0694,259.3189,,70,70,,,,,,,,,,,,,,,,bars/044.png,bars/mask002.png,,,,,,,,,,,,7,1,,,,,,,10,0,8,0,,,,,,,,,,,258.5693,259.0694,259.3189,260.5936,space,1.2675,,260.5936,5,85,261.5937,261.5938,262.2437,space,0.6341,,0,8,8,8,1,75,155,,,,,,,,
,,6125ed1e651031550dfcad1a,65af569f30852ac05a101dec,2024-01-23_08h04.05.010,bars,2023.2.3,Win32,121.9512195,657b66ea316d21385b68909f,,,,,,,,,,,262.2442,263.2429,,,263.7439,263.9937,,4,4,,,,,,,,,,,,,,,,bars/007.png,bars/mask005.png,,,,,,,,,,,,6,1,,,,,,,8,0,9,0,,,,,,,,,,,263.243,263.7439,263.9937,265.0016,space,0.9999,,265.0017,9,51,266.0014,266.0015,268.0016,space,1.9718,,0,9,9,9,1,175,55,,,,,,,,
,,6125ed1e651031550dfcad1a,65af569f30852ac05a101dec,2024-01-23_08h04.05.010,bars,2023.2.3,Win32,121.9512195,657b66ea316d21385b68909f,,,,,,,,,,,268.0024,269.0011,,,269.5006,269.7509,,3,3,,,,,,,,,,,,,,,,bars/035.png,bars/mask005.png,,,,,,,,,,,,5,1,,,,,,,10,2,7,4,,,,,,,,,,,269.0012,269.5005,269.751,270.2257,space,0.4673,,270.2258,8,57,271.2255,271.2256,271.6505,space,0.4144,,0,10,10,10,1,175,60,,,,,,,,
,,6125ed1e651031550dfcad1a,65af569f30852ac05a101dec,2024-01-23_08h04.05.010,bars,2023.2.3,Win32,121.9512195,657b66ea316d21385b68909f,,,,,,,,,,,271.651,272.6505,,,273.1503,273.4005,,12,12,,,,,,,,,,,,,,,,bars/049.png,bars/mask000.png,,,,,,,,,,,,0,1,,,,,,,10,4,10,4,,,,,,,,,,,272.6505,273.1503,273.4005,273.8338,space,0.4257,,273.8339,32,77,274.8336,274.8336,275.1335,space,0.2878,,0,11,11,11,1,160,115,,,,,,,,
,,6125ed1e651031550dfcad1a,65af569f30852ac05a101dec,2024-01-23_08h04.05.010,bars,2023.2.3,Win32,121.9512195,657b66ea316d21385b68909f,,,,,,,,,,,275.1339,276.1332,,,276.6337,276.8836,,102,102,,,,,,,,,,,,,,,,bars/017.png,bars/mask008.png,,,,,,,,,,,,0,1,,,,,,,8,6,7,8,,,,,,,,,,,276.1333,276.6337,276.8837,277.3755,space,0.4846,,277.3755,43,57,278.3749,278.375,278.6751,space,0.2857,,0,12,12,12,1,145,45,,,,,,,,
,,6125ed1e651031550dfcad1a,65af569f30852ac05a101dec,2024-01-23_08h04.05.010,bars,2023.2.3,Win32,121.9512195,657b66ea316d21385b68909f,,,,,,,,,,,278.6757,279.674,,,280.1752,280.4244,,110,110,,,,,,,,,,,,,,,,bars/022.png,bars/mask007.png,,,,,,,,,,,,3,1,,,,,,,6,4,6,2,,,,,,,,,,,279.674,280.1751,280.4245,280.7747,space,0.3432,,280.7747,15,90,281.7745,281.7745,282.0075,space,0.2228,,0,13,13,13,1,95,20,,,,,,,,
,,6125ed1e651031550dfcad1a,65af569f30852ac05a101dec,2024-01-23_08h04.05.010,bars,2023.2.3,Win32,121.9512195,657b66ea316d21385b68909f,,,,,,,,,,,282.0081,283.0072,,,283.5075,283.7571,,13,13,,,,,,,,,,,,,,,,bars/005.png,bars/mask006.png,,,,,,,,,,,,4,1,,,,,,,4,6,4,6,,,,,,,,,,,283.0072,283.5074,283.7571,284.1242,space,0.3592,,284.1243,3,53,285.1239,285.124,285.3988,space,0.2653,,0,14,14,14,1,10,140,,,,,,,,
,,6125ed1e651031550dfcad1a,65af569f30852ac05a101dec,2024-01-23_08h04.05.010,bars,2023.2.3,Win32,121.9512195,657b66ea316d21385b68909f,,,,,,,,,,,285.3992,286.3984,,,286.899,287.1448,,120,120,,,,,,,,,,,,,,,,bars/010.png,bars/mask006.png,,,,,,,,,,,,0,1,,,,,,,6,4,5,3,,,,,,,,,,,286.3985,286.899,287.1448,287.4158,space,0.2631,,287.4158,45,65,288.4187,288.4187,288.6402,space,0.2113,,0,15,15,15,1,165,55,,,,,,,,
,,6125ed1e651031550dfcad1a,65af569f30852ac05a101dec,2024-01-23_08h04.05.010,bars,2023.2.3,Win32,121.9512195,657b66ea316d21385b68909f,,,,,,,,,,,288.6408,289.6398,,,290.1405,290.3897,,166,166,,,,,,,,,,,,,,,,bars/016.png,bars/mask003.png,,,,,,,,,,,,3,2,,,,,,,4,2,3,3,,,,,,,,,,,289.6399,290.1405,290.3899,290.7656,space,0.3692,,290.7656,54,1,291.7651,291.7652,291.9242,space,0.1456,,0,16,16,16,1,40,165,,,,,,,,
,,6125ed1e651031550dfcad1a,65af569f30852ac05a101dec,2024-01-23_08h04.05.010,bars,2023.2.3,Win32,121.9512195,657b66ea316d21385b68909f,,,,,,,,,,,291.9247,292.9227,,,293.4232,293.6733,,52,52,,,,,,,,,,,,,,,,bars/002.png,bars/mask002.png,,,,,,,,,,,,0,2,,,,,,,2,4,2,4,,,,,,,,,,,292.9227,293.4232,293.6733,294.0479,space,0.3665,,294.048,78,33,295.0477,295.0478,295.2363,space,0.1763,,0,17,17,17,1,130,85,,,,,,,,
,,6125ed1e651031550dfcad1a,65af569f30852ac05a101dec,2024-01-23_08h04.05.010,bars,2023.2.3,Win32,121.9512195,657b66ea316d21385b68909f,,,,,,,,,,,295.2369,296.2392,,,296.7393,296.9891,,167,167,,,,,,,,,,,,,,,,bars/016.png,bars/mask004.png,,,,,,,,,,,,2,2,,,,,,,0,2,0,2,,,,,,,,,,,296.2394,296.7392,296.9892,297.1145,space,0.1117,,297.1145,53,2,298.1143,298.1143,298.1971,space,0.0696,,0,18,18,18,1,40,165,,,,,,,,
,,6125ed1e651031550dfcad1a,65af569f30852ac05a101dec,2024-01-23_08h04.05.010,bars,2023.2.3,Win32,121.9512195,657b66ea316d21385b68909f,,,,,,,,,,,298.1978,299.197,,,299.6966,299.9469,,123,123,,,,,,,,,,,,,,,,bars/011.png,bars/mask007.png,,,,,,,,,,,,0,1,,,,,,,0,4,0,4,,,,,,,,,,,299.1971,299.6966,299.9469,300.1051,space,0.1516,,300.1053,37,38,301.1052,301.1052,301.3306,space,0.2132,,0,19,19,19,1,160,85,,,,,,,,
,,6125ed1e651031550dfcad1a,65af569f30852ac05a101dec,2024-01-23_08h04.05.010,bars,2023.2.3,Win32,121.9512195,657b66ea316d21385b68909f,,,,,,,,,,,301.3313,302.3298,,,302.8298,303.0799,,103,103,,,,,,,,,,,,,,,,bars/047.png,bars/mask000.png,,,,,,,,,,,,0,2,,,,,,,2,2,1,3,,,,,,,,,,,302.3299,302.8298,303.0799,304.1635,space,1.0768,,304.1636,88,33,305.163,305.1631,305.8549,space,0.6781,,0,20,20,20,1,15,70,,,,,,,,
,,6125ed1e651031550dfcad1a,65af569f30852ac05a101dec,2024-01-23_08h04.05.010,bars,2023.2.3,Win32,121.9512195,657b66ea316d21385b68909f,,,,,,,,,,,305.8554,306.8546,,,307.3543,307.6045,,111,111,,,,,,,,,,,,,,,,bars/032.png,bars/mask007.png,,,,,,,,,,,,0,1,,,,,,,0,4,0,5,,,,,,,,,,,306.8547,307.3542,307.6046,307.9797,space,0.3681,,307.9798,14,89,308.9792,308.9794,309.2763,space,0.2842,,0,21,21,21,1,125,20,,,,,,,,
,,6125ed1e651031550dfcad1a,65af569f30852ac05a101dec,2024-01-23_08h04.05.010,bars,2023.2.3,Win32,121.9512195,657b66ea316d21385b68909f,,,,,,,,,,,309.2767,310.2711,,,310.7709,311.0207,,51,51,,,,,,,,,,,,,,,,bars/001.png,bars/mask003.png,,,,,,,,,,,,0,2,,,,,,,2,2,2,2,,,,,,,,,,,310.2711,310.7709,311.0207,311.4959,space,0.4686,,311.4959,79,34,312.4956,312.4957,312.7706,space,0.2609,,0,22,22,22,1,130,85,,,,,,,,
,,6125ed1e651031550dfcad1a,65af569f30852ac05a101dec,2024-01-23_08h04.05.010,bars,2023.2.3,Win32,121.9512195,657b66ea316d21385b68909f,,,,,,,,,,,312.7712,313.7703,,,314.2703,314.52,,43,43,,,,,,,,,,,,,,,,bars/021.png,bars/mask007.png,,,,,,,,,,,,0,2,,,,,,,0,4,0,2,,,,,,,,,,,313.7704,314.2702,314.52,315.0204,space,0.4932,,315.0204,68,27,316.0205,316.0205,316.2535,space,0.2208,,0,23,23,23,1,155,70,,,,,,,,
,,6125ed1e651031550dfcad1a,65af569f30852ac05a101dec,2024-01-23_08h04.05.010,bars,2023.2.3,Win32,121.9512195,657b66ea316d21385b68909f,,,,,,,,,,,316.2541,317.2534,,,317.7535,317.9976,,107,107,,,,,,,,,,,,,,,,bars/014.png,bars/mask002.png,,,,,,,,,,,,0,1,,,,,,,2,2,2,1,,,,,,,,,,,317.2535,317.7535,317.9977,318.428,space,0.4239,,318.4281,27,73,319.4281,319.4282,319.7029,space,0.2592,,0,24,24,24,1,80,0,,,,,,,,
,,6125ed1e651031550dfcad1a,65af569f30852ac05a101dec,2024-01-23_08h04.05.010,bars,2023.2.3,Win32,121.9512195,657b66ea316d21385b68909f,,,,,,,,,,,319.7033,320.7036,,,321.2026,321.4527,,138,138,,,,,,,,,,,,,,,,bars/010.png,bars/mask001.png,,,,,,,,,,,,0,1,,,,,,,4,4,3,5,,,,,,,,,,,320.7036,321.2025,321.4528,321.9194,space,0.4606,,321.9195,27,83,322.9191,322.9191,323.2106,space,0.2811,,0,25,25,25,1,165,55,,,,,,,,
,,6125ed1e651031550dfcad1a,65af569f30852ac05a101dec,2024-01-23_08h04.05.010,bars,2023.2.3,Win32,121.9512195,657b66ea316d21385b68909f,,,,,,,,,,,323.2109,324.2101,,,324.7109,324.9608,,31,31,,,,,,,,,,,,,,,,bars/036.png,bars/mask002.png,,,,,,,,,,,,2,2,,,,,,,6,2,6,3,,,,,,,,,,,324.2101,324.7108,324.9608,325.3797,space,0.4127,,325.3797,66,11,326.3768,326.3769,326.6683,space,0.2778,,0,26,26,26,1,145,20,,,,,,,,
,,6125ed1e651031550dfcad1a,65af569f30852ac05a101dec,2024-01-23_08h04.05.010,bars,2023.2.3,Win32,121.9512195,657b66ea316d21385b68909f,,,,,,,,,,,326.6693,327.6681,,,328.1683,328.4183,,140,140,,,,,,,,,,,,,,,,bars/035.png,bars/mask005.png,,,,,,,,,,,,0,1,,,,,,,8,4,7,4,,,,,,,,,,,327.6682,328.1683,328.4184,328.8435,space,0.418,,328.8435,35,80,329.8433,329.8434,329.9263,space,0.0692,,0,27,27,27,1,175,60,,,,,,,,
,,6125ed1e651031550dfcad1a,65af569f30852ac05a101dec,2024-01-23_08h04.05.010,bars,2023.2.3,Win32,121.9512195,657b66ea316d21385b68909f,,,,,,,,,,,329.9269,330.9259,,,331.4258,331.676,,140,140,,,,,,,,,,,,,,,,bars/027.png,bars/mask008.png,,,,,,,,,,,,0,1,,,,,,,10,6,10,5,,,,,,,,,,,330.9259,331.4258,331.6761,332.0974,space,0.4164,,332.0976,30,90,333.0928,333.0928,333.1678,space,0.0606,,0,28,28,28,1,110,50,,,,,,,,
,,6125ed1e651031550dfcad1a,65af569f30852ac05a101dec,2024-01-23_08h04.05.010,bars,2023.2.3,Win32,121.9512195,657b66ea316d21385b68909f,,,,,,,,,,,333.1682,334.1672,,,334.667,334.9172,,67,67,,,,,,,,,,,,,,,,bars/031.png,bars/mask000.png,,,,,,,,,,,,0,2,,,,,,,10,4,10,4,,,,,,,,,,,334.1673,334.6669,334.9172,335.3178,space,0.3918,,335.318,53,32,336.3176,336.3176,336.4256,space,0.0925,,0,29,29,29,1,120,35,,,,,,,,
,,6125ed1e651031550dfcad1a,65af569f30852ac05a101dec,2024-01-23_08h04.05.010,bars,2023.2.3,Win32,121.9512195,657b66ea316d21385b68909f,,,,,,,,,,,336.4261,337.425,,,337.9255,338.1751,,176,176,,,,,,,,,,,,,,,,bars/013.png,bars/mask008.png,,,,,,,,,,,,3,2,,,,,,,8,6,7,5,,,,,,,,,,,337.425,337.9254,338.1752,338.7416,space,0.5598,,338.7416,79,14,339.7417,339.7417,339.9333,space,0.181,,0,30,30,30,1,75,10,,,,,,,,
,,6125ed1e651031550dfcad1a,65af569f30852ac05a101dec,2024-01-23_08h04.05.010,bars,2023.2.3,Win32,121.9512195,657b66ea316d21385b68909f,,,,,,,,,,,339.9337,340.9334,,,341.4336,341.683,,130,130,,,,,,,,,,,,,,,,bars/039.png,bars/mask001.png,,,,,,,,,,,,2,2,,,,,,,6,8,6,10,,,,,,,,,,,340.9335,341.4335,341.683,342.2001,space,0.5098,,342.2002,45,25,343.1993,343.1993,343.3996,space,0.1904,,0,31,31,31,1,175,105,,,,,,,,
,,6125ed1e651031550dfcad1a,65af569f30852ac05a101dec,2024-01-23_08h04.05.010,bars,2023.2.3,Win32,121.9512195,657b66ea316d21385b68909f,,,,,,,,,,,343.4003,344.3995,,,344.8995,345.1493,,6,6,,,,,,,,,,,,,,,,bars/008.png,bars/mask002.png,,,,,,,,,,,,8,2,,,,,,,4,10,4,10,,,,,,,,,,,344.3996,344.8995,345.1493,345.5245,space,0.3685,,345.5245,76,6,346.5241,346.5241,346.8077,space,0.2728,,0,32,32,32,1,110,0,,,,,,,,
,,6125ed1e651031550dfcad1a,65af569f30852ac05a101dec,2024-01-23_08h04.05.010,bars,2023.2.3,Win32,121.9512195,657b66ea316d21385b68909f,,,,,,,,,,,346.8082,347.8073,,,348.3076,348.5572,,129,129,,,,,,,,,,,,,,,,bars/019.png,bars/mask007.png,,,,,,,,,,,,2,2,,,,,,,2,10,2,9,,,,,,,,,,,347.8073,348.3075,348.5573,349.1407,space,0.5753,,349.1407,84,24,350.1405,350.1406,350.2991,space,0.1489,,0,33,33,33,1,45,105,,,,,,,,
,,6125ed1e651031550dfcad1a,65af569f30852ac05a101dec,2024-01-23_08h04.05.010,bars,2023.2.3,Win32,121.9512195,657b66ea316d21385b68909f,,,,,,,,,,,350.2995,351.2987,,,351.7986,352.0485,,9,9,,,,,,,,,,,,,,,,bars/045.png,bars/mask005.png,,,,,,,,,,,,7,2,,,,,,,0,8,1,7,,,,,,,,,,,351.2988,351.7986,352.0485,352.3404,space,0.2848,,352.3405,89,1,353.3402,353.3402,353.6149,space,0.2639,,0,34,34,34,1,100,10,,,,,,,,
,,6125ed1e651031550dfcad1a,65af569f30852ac05a101dec,2024-01-23_08h04.05.010,bars,2023.2.3,Win32,121.9512195,657b66ea316d21385b68909f,,,,,,,,,,,353.6153,354.6147,,,355.1111,355.3552,,110,110,,,,,,,,,,,,,,,,bars/035.png,bars/mask009.png,,,,,,,,,,,,0,2,,,,,,,0,10,0,9,,,,,,,,,,,354.6147,355.111,355.3552,355.8199,space,0.4585,,355.82,65,50,356.8148,356.8148,358.1243,space,1.2936,,0,35,35,35,1,175,60,,,,,,,,
,,6125ed1e651031550dfcad1a,65af569f30852ac05a101dec,2024-01-23_08h04.05.010,bars,2023.2.3,Win32,121.9512195,657b66ea316d21385b68909f,,,,,,,,,,,358.1249,359.1225,,,359.6228,359.8726,,58,58,,,,,,,,,,,,,,,,bars/033.png,bars/mask008.png,,,,,,,,,,,,0,1,,,,,,,2,8,4,7,,,,,,,,,,,359.1226,359.6227,359.8728,360.6393,space,0.7592,,360.6394,33,83,361.6393,361.6395,361.8734,space,0.2214,,0,36,36,36,1,25,155,,,,,,,,
,,6125ed1e651031550dfcad1a,65af569f30852ac05a101dec,2024-01-23_08h04.05.010,bars,2023.2.3,Win32,121.9512195,657b66ea316d21385b68909f,,,,,,,,,,,361.8739,362.8726,,,363.3726,363.6219,,157,157,,,,,,,,,,,,,,,,bars/008.png,bars/mask009.png,,,,,,,,,,,,1,2,,,,,,,0,6,0,5,,,,,,,,,,,362.8726,363.3726,363.6219,364.256,space,0.6258,,364.2561,47,23,365.2557,365.2558,365.7716,space,0.5008,,0,37,37,37,1,110,0,,,,,,,,
,,6125ed1e651031550dfcad1a,65af569f30852ac05a101dec,2024-01-23_08h04.05.010,bars,2023.2.3,Win32,121.9512195,657b66ea316d21385b68909f,,,,,,,,,,,365.7723,366.7718,,,367.2716,367.5216,,93,93,,,,,,,,,,,,,,,,bars/001.png,bars/mask002.png,,,,,,,,,,,,6,2,,,,,,,2,8,2,8,,,,,,,,,,,366.7718,367.2716,367.5216,368.38,space,0.8503,,368.3801,37,8,369.3795,369.3795,369.8796,space,0.4906,,0,38,38,38,1,130,85,,,,,,,,
,,6125ed1e651031550dfcad1a,65af569f30852ac05a101dec,2024-01-23_08h04.05.010,bars,2023.2.3,Win32,121.9512195,657b66ea316d21385b68909f,,,,,,,,,,,369.88,370.8796,,,371.3797,371.6294,,7,7,,,,,,,,,,,,,,,,bars/038.png,bars/mask003.png,,,,,,,,,,,,1,1,,,,,,,4,10,5,10,,,,,,,,,,,370.8796,371.3797,371.6295,371.9383,space,0.3012,,371.9383,22,63,372.9372,372.9373,373.2714,space,0.3193,,0,39,39,39,1,165,70,,,,,,,,
,,6125ed1e651031550dfcad1a,65af569f30852ac05a101dec,2024-01-23_08h04.05.010,bars,2023.2.3,Win32,121.9512195,657b66ea316d21385b68909f,,,,,,,,,,,373.272,374.2709,,,374.771,375.0208,,144,144,,,,,,,,,,,,,,,,bars/042.png,bars/mask008.png,,,,,,,,,,,,5,1,,,,,,,6,10,5,10,,,,,,,,,,,374.271,374.7708,375.0208,375.6206,space,0.593,,375.6206,1,69,376.6208,376.6209,376.8295,space,0.1956,,0,40,40,40,1,145,75,,,,,,,,
,,6125ed1e651031550dfcad1a,65af569f30852ac05a101dec,2024-01-23_08h04.05.010,bars,2023.2.3,Win32,121.9512195,657b66ea316d21385b68909f,,,,,,,,,,,376.83,377.8291,,,378.3291,378.5783,,87,87,,,,,,,,,,,,,,,,bars/002.png,bars/mask008.png,,,,,,,,,,,,6,2,,,,,,,8,8,8,6,,,,,,,,,,,377.8291,378.329,378.5785,379.2949,space,0.7084,,379.2949,43,2,380.2948,380.2949,380.612,space,0.3017,,0,41,41,41,1,130,85,,,,,,,,
,,6125ed1e651031550dfcad1a,65af569f30852ac05a101dec,2024-01-23_08h04.05.010,bars,2023.2.3,Win32,121.9512195,657b66ea316d21385b68909f,,,,,,,,,,,380.6126,381.6116,,,382.1115,382.3612,,95,95,,,,,,,,,,,,,,,,bars/021.png,bars/mask001.png,,,,,,,,,,,,2,2,,,,,,,6,10,5,10,,,,,,,,,,,381.6117,382.1114,382.3613,384.0778,space,1.709,,384.0779,60,25,385.0775,385.0775,385.1277,space,0.0406,,0,42,42,42,1,155,70,,,,,,,,
,,6125ed1e651031550dfcad1a,65af569f30852ac05a101dec,2024-01-23_08h04.05.010,bars,2023.2.3,Win32,121.9512195,657b66ea316d21385b68909f,,,,,,,,,,,385.1283,386.1274,,,386.6276,386.8772,,152,152,,,,,,,,,,,,,,,,bars/019.png,bars/mask005.png,,,,,,,,,,,,0,2,,,,,,,8,10,9,10,,,,,,,,,,,386.1275,386.6276,386.8772,389.1357,space,2.2509,,389.1357,73,47,390.1353,390.1353,391.4631,space,1.3029,,0,43,43,43,1,45,105,,,,,,,,
,,6125ed1e651031550dfcad1a,65af569f30852ac05a101dec,2024-01-23_08h04.05.010,bars,2023.2.3,Win32,121.9512195,657b66ea316d21385b68909f,,,,,,,,,,,391.4634,392.4599,,,392.9605,393.2048,,136,136,,,,,,,,,,,,,,,,bars/033.png,bars/mask001.png,,,,,,,,,,,,4,2,,,,,,,10,10,10,10,,,,,,,,,,,392.46,392.9604,393.2049,393.885,space,0.6727,,393.885,69,19,394.8849,394.885,396.0514,space,1.1527,,0,44,44,44,1,25,155,,,,,,,,
,,6125ed1e651031550dfcad1a,65af569f30852ac05a101dec,2024-01-23_08h04.05.010,bars,2023.2.3,Win32,121.9512195,657b66ea316d21385b68909f,,,,,,,,,,,396.052,397.0515,,,397.5514,397.8011,,149,149,,,,,,,,,,,,,,,,bars/023.png,bars/mask003.png,,,,,,,,,,,,0,2,,,,,,,10,8,10,8,,,,,,,,,,,397.0515,397.5514,397.8011,398.6595,space,0.851,,398.6596,51,34,399.6589,399.6589,399.9176,space,0.2441,,0,45,45,45,1,20,115,,,,,,,,
,,6125ed1e651031550dfcad1a,65af569f30852ac05a101dec,2024-01-23_08h04.05.010,bars,2023.2.3,Win32,121.9512195,657b66ea316d21385b68909f,,,,,,,,,,,399.9185,400.9172,,,401.4178,401.667,,149,149,,,,,,,,,,,,,,,,bars/010.png,bars/mask001.png,,,,,,,,,,,,5,1,,,,,,,10,10,10,10,,,,,,,,,,,400.9172,401.4177,401.667,402.9289,space,1.2556,,402.9289,16,86,403.9252,403.9252,404.3191,space,0.381,,0,46,46,46,1,165,55,,,,,,,,
,,6125ed1e651031550dfcad1a,65af569f30852ac05a101dec,2024-01-23_08h04.05.010,bars,2023.2.3,Win32,121.9512195,657b66ea316d21385b68909f,,,,,,,,,,,404.3193,405.3165,,,405.8208,406.0667,,171,171,,,,,,,,,,,,,,,,bars/029.png,bars/mask009.png,,,,,,,,,,,,0,2,,,,,,,10,10,10,10,,,,,,,,,,,405.3166,405.8208,406.0668,406.1168,space,0.0431,,406.1168,81,54,407.1167,407.1168,407.6835,space,0.5513,,0,47,47,47,1,90,45,,,,,,,,
,,6125ed1e651031550dfcad1a,65af569f30852ac05a101dec,2024-01-23_08h04.05.010,bars,2023.2.3,Win32,121.9512195,657b66ea316d21385b68909f,,,,,,,,,,,407.684,408.6833,,,409.183,409.4333,,64,64,,,,,,,,,,,,,,,,bars/029.png,bars/mask004.png,,,,,,,,,,,,4,2,,,,,,,10,10,10,10,,,,,,,,,,,408.6834,409.183,409.4333,409.4497,space,0.0103,,409.4497,26,19,410.4491,410.4491,411.4161,space,0.9521,,0,48,48,48,1,90,45,,,,,,,,
,,6125ed1e651031550dfcad1a,65af569f30852ac05a101dec,2024-01-23_08h04.05.010,bars,2023.2.3,Win32,121.9512195,657b66ea316d21385b68909f,,,,,,,,,,,411.4165,412.4155,,,412.9161,413.1655,,39,39,,,,,,,,,,,,,,,,bars/030.png,bars/mask009.png,,,,,,,,,,,,1,2,,,,,,,8,8,6,6,,,,,,,,,,,412.4156,412.916,413.1657,413.7742,space,0.6014,,413.7743,79,26,414.7734,414.7734,415.8572,space,1.0711,,0,49,49,49,1,140,65,,,,,,,,
,,6125ed1e651031550dfcad1a,65af569f30852ac05a101dec,2024-01-23_08h04.05.010,bars,2023.2.3,Win32,121.9512195,657b66ea316d21385b68909f,,,,,,,,,,,,,,,,,,,,,,,,,,,,,,,,,,,,,,,,,,,,,,,,,,,,,,,,,,,,,,,,,,,,,,,,,,,,,,,,,,,,,,,,,,,,,415.8585,475.8588,0,0,0,4,1,sequence_tables/blk041.csv
,,6125ed1e651031550dfcad1a,65af569f30852ac05a101dec,2024-01-23_08h04.05.010,bars,2023.2.3,Win32,121.9512195,657b66ea316d21385b68909f,,,,,,,,,,,478.1761,479.1743,,,479.6745,479.9239,,116,116,,,,,,,,,,,,,,,,bars/019.png,bars/mask002.png,,,,,,,,,,,,5,2,,,,,,,10,7,10,8,,,,,,475.8758,478.1669,space,2.2845,,479.1743,479.6745,479.924,480.5656,space,0.6336,,480.5657,71,11,481.5653,481.5654,481.5665,,,,0,0,0,0,1,45,105,,,,,,,,
,,6125ed1e651031550dfcad1a,65af569f30852ac05a101dec,2024-01-23_08h04.05.010,bars,2023.2.3,Win32,121.9512195,657b66ea316d21385b68909f,,,,,,,,,,,481.5669,482.5652,,,483.0655,483.3152,,16,16,,,,,,,,,,,,,,,,bars/039.png,bars/mask008.png,,,,,,,,,,,,3,1,,,,,,,10,5,10,6,,,,,,,,,,,482.5652,483.0654,483.3153,483.9818,space,0.659,,483.9819,21,89,484.9815,484.9816,484.9847,,,,0,1,1,1,1,175,105,,,,,,,,
,,6125ed1e651031550dfcad1a,65af569f30852ac05a101dec,2024-01-23_08h04.05.010,bars,2023.2.3,Win32,121.9512195,657b66ea316d21385b68909f,,,,,,,,,,,484.9851,485.9812,,,486.4817,486.7314,,42,42,,,,,,,,,,,,,,,,bars/009.png,bars/mask009.png,,,,,,,,,,,,1,1,,,,,,,10,3,9,3,,,,,,,,,,,485.9812,486.4816,486.7315,487.2564,space,0.5175,,487.2564,27,63,488.2561,488.2561,488.257,,,,0,2,2,2,1,15,105,,,,,,,,
,,6125ed1e651031550dfcad1a,65af569f30852ac05a101dec,2024-01-23_08h04.05.010,bars,2023.2.3,Win32,121.9512195,657b66ea316d21385b68909f,,,,,,,,,,,488.2576,489.256,,,489.756,490.0061,,84,84,,,,,,,,,,,,,,,,bars/034.png,bars/mask009.png,,,,,,,,,,,,0,2,,,,,,,8,1,6,0,,,,,,,,,,,489.256,489.7559,490.0062,490.7898,space,0.7763,,490.7899,41,19,491.7891,491.7894,491.7916,,,,0,3,3,3,1,125,65,,,,,,,,
,,6125ed1e651031550dfcad1a,65af569f30852ac05a101dec,2024-01-23_08h04.05.010,bars,2023.2.3,Win32,121.9512195,657b66ea316d21385b68909f,,,,,,,,,,,491.7919,492.7888,,,493.289,493.5394,,13,13,,,,,,,,,,,,,,,,bars/013.png,bars/mask005.png,,,,,,,,,,,,1,2,,,,,,,10,0,10,1,,,,,,,,,,,492.7889,493.2888,493.5394,494.2475,space,0.7018,,494.2476,62,3,495.2463,495.2464,495.2478,,,,0,4,4,4,1,75,10,,,,,,,,
,,6125ed1e651031550dfcad1a,65af569f30852ac05a101dec,2024-01-23_08h04.05.010,bars,2023.2.3,Win32,121.9512195,657b66ea316d21385b68909f,,,,,,,,,,,495.2481,496.2467,,,496.7465,497.0015,,111,111,,,,,,,,,,,,,,,,bars/018.png,bars/mask008.png,,,,,,,,,,,,0,2,,,,,,,8,0,9,1,,,,,,,,,,,496.2468,496.7465,497.0016,498.6719,space,1.6625,,498.672,39,21,499.6714,499.6715,499.6725,,,,0,5,5,5,1,150,90,,,,,,,,
,,6125ed1e651031550dfcad1a,65af569f30852ac05a101dec,2024-01-23_08h04.05.010,bars,2023.2.3,Win32,121.9512195,657b66ea316d21385b68909f,,,,,,,,,,,499.6727,500.6708,,,501.1715,501.4211,,11,11,,,,,,,,,,,,,,,,bars/003.png,bars/mask005.png,,,,,,,,,,,,4,1,,,,,,,6,2,7,2,,,,,,,,,,,500.6709,501.1715,501.4211,502.2959,space,0.8679,,502.296,14,51,503.2957,503.2958,503.2986,,,,0,6,6,6,1,25,140,,,,,,,,
,,6125ed1e651031550dfcad1a,65af569f30852ac05a101dec,2024-01-23_08h04.05.010,bars,2023.2.3,Win32,121.9512195,657b66ea316d21385b68909f,,,,,,,,,,,503.299,504.2956,,,504.7956,505.0459,,132,132,,,,,,,,,,,,,,,,bars/021.png,bars/mask003.png,,,,,,,,,,,,2,1,,,,,,,8,0,9,0,,,,,,,,,,,504.2956,504.7955,505.0459,505.8877,space,0.8332,,505.8878,23,62,506.8876,506.8876,506.8884,,,,0,7,7,7,1,155,70,,,,,,,,
,,6125ed1e651031550dfcad1a,65af569f30852ac05a101dec,2024-01-23_08h04.05.010,bars,2023.2.3,Win32,121.9512195,657b66ea316d21385b68909f,,,,,,,,,,,506.8888,507.8832,,,508.3786,508.6282,,93,93,,,,,,,,,,,,,,,,bars/044.png,bars/mask008.png,,,,,,,,,,,,2,1,,,,,,,6,2,6,2,,,,,,,,,,,507.8832,508.3786,508.6283,513.8197,space,5.1762,,513.8198,18,62,514.819,514.8191,514.8323,,,,0,8,8,8,1,75,155,,,,,,,,
,,6125ed1e651031550dfcad1a,65af569f30852ac05a101dec,2024-01-23_08h04.05.010,bars,2023.2.3,Win32,121.9512195,657b66ea316d21385b68909f,,,,,,,,,,,514.8326,515.8274,,,516.3274,516.5778,,123,123,,,,,,,,,,,,,,,,bars/014.png,bars/mask001.png,,,,,,,,,,,,0,1,,,,,,,8,0,6,0,,,,,,,,,,,515.8274,516.3273,516.5778,518.7357,space,2.1494,,518.7357,43,57,519.7356,519.7356,519.7368,,,,0,9,9,9,1,80,0,,,,,,,,
,,6125ed1e651031550dfcad1a,65af569f30852ac05a101dec,2024-01-23_08h04.05.010,bars,2023.2.3,Win32,121.9512195,657b66ea316d21385b68909f,,,,,,,,,,,519.7372,520.7355,,,521.2354,521.485,,47,47,,,,,,,,,,,,,,,,bars/001.png,bars/mask006.png,,,,,,,,,,,,0,2,,,,,,,10,2,10,1,,,,,,,,,,,520.7355,521.2353,521.485,521.8686,space,0.3755,,521.8687,83,38,522.8679,522.8679,522.8703,,,,0,10,10,10,1,130,85,,,,,,,,
,,6125ed1e651031550dfcad1a,65af569f30852ac05a101dec,2024-01-23_08h04.05.010,bars,2023.2.3,Win32,121.9512195,657b66ea316d21385b68909f,,,,,,,,,,,522.8707,523.868,,,524.368,524.6184,,52,52,,,,,,,,,,,,,,,,bars/007.png,bars/mask006.png,,,,,,,,,,,,4,2,,,,,,,10,4,10,4,,,,,,,,,,,523.8681,524.368,524.6184,525.5186,space,0.8918,,525.5186,57,3,526.5174,526.5175,526.5187,,,,0,11,11,11,1,175,55,,,,,,,,
,,6125ed1e651031550dfcad1a,65af569f30852ac05a101dec,2024-01-23_08h04.05.010,bars,2023.2.3,Win32,121.9512195,657b66ea316d21385b68909f,,,,,,,,,,,526.519,527.5178,,,528.0176,528.2674,,155,155,,,,,,,,,,,,,,,,bars/044.png,bars/mask006.png,,,,,,,,,,,,2,2,,,,,,,10,2,8,2,,,,,,,,,,,527.5179,528.0176,528.2675,528.6512,space,0.3762,,528.6512,80,0,529.6508,529.6509,529.6521,,,,0,12,12,12,1,75,155,,,,,,,,
,,6125ed1e651031550dfcad1a,65af569f30852ac05a101dec,2024-01-23_08h04.05.010,bars,2023.2.3,Win32,121.9512195,657b66ea316d21385b68909f,,,,,,,,,,,529.6525,530.6508,,,531.1467,531.3927,,83,83,,,,,,,,,,,,,,,,bars/012.png,bars/mask000.png,,,,,,,,,,,,6,1,,,,,,,8,4,8,4,,,,,,,,,,,530.6508,531.1466,531.3927,531.9342,space,0.5345,,531.9343,7,68,532.9345,532.9346,532.9373,,,,0,13,13,13,1,90,15,,,,,,,,
,,6125ed1e651031550dfcad1a,65af569f30852ac05a101dec,2024-01-23_08h04.05.010,bars,2023.2.3,Win32,121.9512195,657b66ea316d21385b68909f,,,,,,,,,,,532.9377,533.9334,,,534.4339,534.6837,,31,31,,,,,,,,,,,,,,,,bars/044.png,bars/mask002.png,,,,,,,,,,,,0,1,,,,,,,10,6,9,7,,,,,,,,,,,533.9335,534.4339,534.6837,535.6585,space,0.967,,535.6585,44,56,536.6581,536.6581,536.66,,,,0,14,14,14,1,75,155,,,,,,,,
,,6125ed1e651031550dfcad1a,65af569f30852ac05a101dec,2024-01-23_08h04.05.010,bars,2023.2.3,Win32,121.9512195,657b66ea316d21385b68909f,,,,,,,,,,,536.6605,537.6579,,,538.1577,538.4078,,45,45,,,,,,,,,,,,,,,,bars/005.png,bars/mask008.png,,,,,,,,,,,,0,1,,,,,,,8,8,9,8,,,,,,,,,,,537.6579,538.1576,538.4079,540.2831,space,1.8683,,540.2831,35,85,541.2828,541.2828,541.2837,,,,0,15,15,15,1,10,140,,,,,,,,
,,6125ed1e651031550dfcad1a,65af569f30852ac05a101dec,2024-01-23_08h04.05.010,bars,2023.2.3,Win32,121.9512195,657b66ea316d21385b68909f,,,,,,,,,,,541.284,542.2825,,,542.7827,543.0327,,93,93,,,,,,,,,,,,,,,,bars/033.png,bars/mask009.png,,,,,,,,,,,,0,2,,,,,,,6,10,8,9,,,,,,,,,,,542.2825,542.7826,543.0328,545.007,space,1.967,,545.007,68,62,546.007,546.007,546.0245,,,,0,16,16,16,1,25,155,,,,,,,,
,,6125ed1e651031550dfcad1a,65af569f30852ac05a101dec,2024-01-23_08h04.05.010,bars,2023.2.3,Win32,121.9512195,657b66ea316d21385b68909f,,,,,,,,,,,546.0249,547.0234,,,547.5239,547.7735,,148,148,,,,,,,,,,,,,,,,bars/011.png,bars/mask007.png,,,,,,,,,,,,2,1,,,,,,,4,10,3,10,,,,,,,,,,,547.0234,547.5238,547.7736,550.1231,space,2.3429,,550.1231,12,63,551.1231,551.1231,551.1398,,,,0,17,17,17,1,160,85,,,,,,,,
,,6125ed1e651031550dfcad1a,65af569f30852ac05a101dec,2024-01-23_08h04.05.010,bars,2023.2.3,Win32,121.9512195,657b66ea316d21385b68909f,,,,,,,,,,,551.1401,552.1439,,,552.639,552.8891,,2,2,,,,,,,,,,,,,,,,bars/024.png,bars/mask008.png,,,,,,,,,,,,5,2,,,,,,,2,10,1,9,,,,,,,,,,,552.144,552.639,552.8892,553.5316,space,0.6352,,553.5317,62,12,554.5304,554.5305,554.5327,,,,0,18,18,18,1,120,170,,,,,,,,
,,6125ed1e651031550dfcad1a,65af569f30852ac05a101dec,2024-01-23_08h04.05.010,bars,2023.2.3,Win32,121.9512195,657b66ea316d21385b68909f,,,,,,,,,,,554.5329,555.5305,,,556.0314,556.2811,,88,88,,,,,,,,,,,,,,,,bars/045.png,bars/mask002.png,,,,,,,,,,,,0,1,,,,,,,0,8,0,8,,,,,,,,,,,555.5305,556.0314,556.2811,556.3228,space,0.0338,,556.3229,12,78,557.3224,557.3224,557.3246,,,,0,19,19,19,1,100,10,,,,,,,,
,,6125ed1e651031550dfcad1a,65af569f30852ac05a101dec,2024-01-23_08h04.05.010,bars,2023.2.3,Win32,121.9512195,657b66ea316d21385b68909f,,,,,,,,,,,557.325,558.322,,,558.8225,559.0724,,75,75,,,,,,,,,,,,,,,,bars/003.png,bars/mask001.png,,,,,,,,,,,,0,1,,,,,,,0,10,1,10,,,,,,,,,,,558.3221,558.8225,559.0724,559.6723,space,0.5924,,559.6724,50,65,560.672,560.672,560.6731,,,,0,20,20,20,1,25,140,,,,,,,,
,,6125ed1e651031550dfcad1a,65af569f30852ac05a101dec,2024-01-23_08h04.05.010,bars,2023.2.3,Win32,121.9512195,657b66ea316d21385b68909f,,,,,,,,,,,560.6734,561.6715,,,562.1718,562.4214,,75,75,,,,,,,,,,,,,,,,bars/003.png,bars/mask006.png,,,,,,,,,,,,0,1,,,,,,,0,10,0,9,,,,,,,,,,,561.6716,562.1717,562.4215,563.8219,space,1.3921,,563.822,50,65,564.8231,564.8232,564.8238,,,,0,21,21,21,1,25,140,,,,,,,,
,,6125ed1e651031550dfcad1a,65af569f30852ac05a101dec,2024-01-23_08h04.05.010,bars,2023.2.3,Win32,121.9512195,657b66ea316d21385b68909f,,,,,,,,,,,564.8242,565.8213,,,566.3209,566.5711,,79,79,,,,,,,,,,,,,,,,bars/028.png,bars/mask008.png,,,,,,,,,,,,0,1,,,,,,,2,10,2,10,,,,,,,,,,,565.8214,566.3208,566.5711,568.4046,space,1.8193,,568.4046,34,41,569.4041,569.4041,569.4055,,,,0,22,22,22,1,45,120,,,,,,,,
,,6125ed1e651031550dfcad1a,65af569f30852ac05a101dec,2024-01-23_08h04.05.010,bars,2023.2.3,Win32,121.9512195,657b66ea316d21385b68909f,,,,,,,,,,,569.4059,570.4041,,,570.9037,571.1539,,176,176,,,,,,,,,,,,,,,,bars/015.png,bars/mask008.png,,,,,,,,,,,,4,2,,,,,,,4,10,3,9,,,,,,,,,,,570.4041,570.9037,571.154,572.0958,space,0.9357,,572.0959,66,16,573.0954,573.0954,573.0978,,,,0,23,23,23,1,110,160,,,,,,,,
,,6125ed1e651031550dfcad1a,65af569f30852ac05a101dec,2024-01-23_08h04.05.010,bars,2023.2.3,Win32,121.9512195,657b66ea316d21385b68909f,,,,,,,,,,,573.0981,574.0952,,,574.5953,574.8452,,83,83,,,,,,,,,,,,,,,,bars/028.png,bars/mask001.png,,,,,,,,,,,,0,2,,,,,,,2,10,2,8,,,,,,,,,,,574.0952,574.5953,574.8453,576.5954,space,1.7426,,576.5955,38,37,577.5945,577.5945,577.5957,,,,0,24,24,24,1,45,120,,,,,,,,
,,6125ed1e651031550dfcad1a,65af569f30852ac05a101dec,2024-01-23_08h04.05.010,bars,2023.2.3,Win32,121.9512195,657b66ea316d21385b68909f,,,,,,,,,,,577.5962,578.5943,,,579.0945,579.3448,,5,5,,,,,,,,,,,,,,,,bars/012.png,bars/mask004.png,,,,,,,,,,,,7,2,,,,,,,0,10,0,10,,,,,,,,,,,578.5943,579.0945,579.3449,579.3776,space,0.0256,,579.3777,85,10,580.3774,580.3774,580.3787,,,,0,25,25,25,1,90,15,,,,,,,,
,,6125ed1e651031550dfcad1a,65af569f30852ac05a101dec,2024-01-23_08h04.05.010,bars,2023.2.3,Win32,121.9512195,657b66ea316d21385b68909f,,,,,,,,,,,580.3791,581.3776,,,581.8773,582.1271,,17,17,,,,,,,,,,,,,,,,bars/034.png,bars/mask005.png,,,,,,,,,,,,0,2,,,,,,,0,10,0,10,,,,,,,,,,,581.3776,581.8772,582.1271,583.361,space,1.2255,,583.361,72,48,584.3601,584.3602,584.3769,,,,0,26,26,26,1,125,65,,,,,,,,
,,6125ed1e651031550dfcad1a,65af569f30852ac05a101dec,2024-01-23_08h04.05.010,bars,2023.2.3,Win32,121.9512195,657b66ea316d21385b68909f,,,,,,,,,,,584.3774,585.377,,,585.8769,586.1267,,73,73,,,,,,,,,,,,,,,,bars/020.png,bars/mask002.png,,,,,,,,,,,,0,1,,,,,,,0,8,0,6,,,,,,,,,,,585.3771,585.8768,586.1268,587.1856,space,1.0507,,587.1856,42,83,588.1852,588.1852,588.2034,,,,0,27,27,27,1,115,170,,,,,,,,
,,6125ed1e651031550dfcad1a,65af569f30852ac05a101dec,2024-01-23_08h04.05.010,bars,2023.2.3,Win32,121.9512195,657b66ea316d21385b68909f,,,,,,,,,,,588.2037,589.2016,,,589.7015,589.9513,,48,48,,,,,,,,,,,,,,,,bars/011.png,bars/mask008.png,,,,,,,,,,,,0,2,,,,,,,2,6,2,5,,,,,,,,,,,589.2016,589.7015,589.9514,590.6396,space,0.6822,,590.6397,68,37,591.6348,591.6349,591.6371,,,,0,28,28,28,1,160,85,,,,,,,,
,,6125ed1e651031550dfcad1a,65af569f30852ac05a101dec,2024-01-23_08h04.05.010,bars,2023.2.3,Win32,121.9512195,657b66ea316d21385b68909f,,,,,,,,,,,591.6375,592.634,,,593.1346,593.3841,,137,137,,,,,,,,,,,,,,,,bars/040.png,bars/mask000.png,,,,,,,,,,,,0,1,,,,,,,0,8,0,8,,,,,,,,,,,592.6341,593.1346,593.3841,595.2929,space,1.9009,,595.2929,3,48,596.2923,596.2926,596.3108,,,,0,29,29,29,1,140,5,,,,,,,,
,,6125ed1e651031550dfcad1a,65af569f30852ac05a101dec,2024-01-23_08h04.05.010,bars,2023.2.3,Win32,121.9512195,657b66ea316d21385b68909f,,,,,,,,,,,596.3112,597.3087,,,597.8031,598.0506,,60,60,,,,,,,,,,,,,,,,bars/025.png,bars/mask004.png,,,,,,,,,,,,2,2,,,,,,,0,6,0,7,,,,,,,,,,,597.3088,597.803,598.0507,599.417,space,1.3599,,599.417,45,20,600.4161,600.4162,600.4331,,,,0,30,30,30,1,105,40,,,,,,,,
,,6125ed1e651031550dfcad1a,65af569f30852ac05a101dec,2024-01-23_08h04.05.010,bars,2023.2.3,Win32,121.9512195,657b66ea316d21385b68909f,,,,,,,,,,,600.4335,601.4335,,,601.9376,602.1831,,79,79,,,,,,,,,,,,,,,,bars/029.png,bars/mask009.png,,,,,,,,,,,,1,1,,,,,,,0,8,1,10,,,,,,,,,,,601.4336,601.9376,602.1831,602.9163,space,0.7259,,602.9163,11,34,603.9163,603.9165,603.9192,,,,0,31,31,31,1,90,45,,,,,,,,
,,6125ed1e651031550dfcad1a,65af569f30852ac05a101dec,2024-01-23_08h04.05.010,bars,2023.2.3,Win32,121.9512195,657b66ea316d21385b68909f,,,,,,,,,,,603.9196,604.9161,,,605.4163,605.6662,,156,156,,,,,,,,,,,,,,,,bars/010.png,bars/mask000.png,,,,,,,,,,,,0,1,,,,,,,0,10,0,10,,,,,,,,,,,604.9161,605.4163,605.6662,606.2573,space,0.5855,,606.2574,9,79,607.2574,607.2574,607.2588,,,,0,32,32,32,1,165,55,,,,,,,,
,,6125ed1e651031550dfcad1a,65af569f30852ac05a101dec,2024-01-23_08h04.05.010,bars,2023.2.3,Win32,121.9512195,657b66ea316d21385b68909f,,,,,,,,,,,607.2592,608.2572,,,608.7572,609.0071,,146,146,,,,,,,,,,,,,,,,bars/010.png,bars/mask006.png,,,,,,,,,,,,0,1,,,,,,,0,10,0,9,,,,,,,,,,,608.2574,608.7571,609.0071,609.2073,space,0.1925,,609.2073,19,89,610.2072,610.2072,610.2083,,,,0,33,33,33,1,165,55,,,,,,,,
,,6125ed1e651031550dfcad1a,65af569f30852ac05a101dec,2024-01-23_08h04.05.010,bars,2023.2.3,Win32,121.9512195,657b66ea316d21385b68909f,,,,,,,,,,,610.2088,611.2067,,,611.7068,611.9566,,15,15,,,,,,,,,,,,,,,,bars/046.png,bars/mask001.png,,,,,,,,,,,,0,1,,,,,,,2,8,1,7,,,,,,,,,,,611.2068,611.7068,611.9567,612.6986,space,0.7274,,612.6987,40,70,613.6988,613.6989,613.7002,,,,0,34,34,34,1,155,85,,,,,,,,
,,6125ed1e651031550dfcad1a,65af569f30852ac05a101dec,2024-01-23_08h04.05.010,bars,2023.2.3,Win32,121.9512195,657b66ea316d21385b68909f,,,,,,,,,,,613.7007,614.6981,,,615.1979,615.4478,,130,130,,,,,,,,,,,,,,,,bars/027.png,bars/mask002.png,,,,,,,,,,,,0,1,,,,,,,0,6,0,7,,,,,,,,,,,614.6982,615.1978,615.4478,616.3649,space,0.911,,616.365,20,80,617.3643,617.3644,617.3657,,,,0,35,35,35,1,110,50,,,,,,,,
,,6125ed1e651031550dfcad1a,65af569f30852ac05a101dec,2024-01-23_08h04.05.010,bars,2023.2.3,Win32,121.9512195,657b66ea316d21385b68909f,,,,,,,,,,,617.366,618.3646,,,618.8646,619.1147,,3,3,,,,,,,,,,,,,,,,bars/011.png,bars/mask006.png,,,,,,,,,,,,0,1,,,,,,,0,8,2,8,,,,,,,,,,,618.3646,618.8646,619.1147,619.5224,space,0.4016,,619.5225,23,82,620.5219,620.5221,620.5234,,,,0,36,36,36,1,160,85,,,,,,,,
,,6125ed1e651031550dfcad1a,65af569f30852ac05a101dec,2024-01-23_08h04.05.010,bars,2023.2.3,Win32,121.9512195,657b66ea316d21385b68909f,,,,,,,,,,,620.5239,621.5225,,,622.0218,622.2744,,54,54,,,,,,,,,,,,,,,,bars/028.png,bars/mask007.png,,,,,,,,,,,,0,1,,,,,,,0,6,0,7,,,,,,,,,,,621.5226,622.0218,622.2744,630.1474,space,7.8677,,630.1475,9,66,631.1461,631.1461,631.1471,,,,0,37,37,37,1,45,120,,,,,,,,
,,6125ed1e651031550dfcad1a,65af569f30852ac05a101dec,2024-01-23_08h04.05.010,bars,2023.2.3,Win32,121.9512195,657b66ea316d21385b68909f,,,,,,,,,,,631.1475,632.15,,,632.6457,632.8915,,89,89,,,,,,,,,,,,,,,,bars/049.png,bars/mask005.png,,,,,,,,,,,,1,2,,,,,,,0,8,1,9,,,,,,,,,,,632.15,632.6457,632.8915,634.3545,space,1.4551,,634.3546,71,26,635.3535,635.3535,635.3679,,,,0,38,38,38,1,160,115,,,,,,,,
,,6125ed1e651031550dfcad1a,65af569f30852ac05a101dec,2024-01-23_08h04.05.010,bars,2023.2.3,Win32,121.9512195,657b66ea316d21385b68909f,,,,,,,,,,,635.3681,636.3701,,,636.8697,637.1201,,31,31,,,,,,,,,,,,,,,,bars/004.png,bars/mask001.png,,,,,,,,,,,,2,1,,,,,,,2,6,2,7,,,,,,,,,,,636.3702,636.8697,637.1201,638.0452,space,0.9183,,638.0452,6,86,639.045,639.0451,639.0477,,,,0,39,39,39,1,25,125,,,,,,,,
,,6125ed1e651031550dfcad1a,65af569f30852ac05a101dec,2024-01-23_08h04.05.010,bars,2023.2.3,Win32,121.9512195,657b66ea316d21385b68909f,,,,,,,,,,,639.048,640.045,,,640.5451,640.7947,,2,2,,,,,,,,,,,,,,,,bars/041.png,bars/mask007.png,,,,,,,,,,,,2,1,,,,,,,4,4,5,3,,,,,,,,,,,640.0451,640.545,640.7947,640.8359,space,0.0272,,640.8359,18,83,641.8367,641.8368,641.8378,,,,0,40,40,40,1,20,85,,,,,,,,
,,6125ed1e651031550dfcad1a,65af569f30852ac05a101dec,2024-01-23_08h04.05.010,bars,2023.2.3,Win32,121.9512195,657b66ea316d21385b68909f,,,,,,,,,,,641.8384,642.8364,,,643.3361,643.586,,47,47,,,,,,,,,,,,,,,,bars/045.png,bars/mask002.png,,,,,,,,,,,,0,2,,,,,,,2,6,1,7,,,,,,,,,,,642.8364,643.336,643.5861,646.9273,space,3.3343,,646.9273,53,37,647.9271,647.9271,647.9448,,,,0,41,41,41,1,100,10,,,,,,,,
,,6125ed1e651031550dfcad1a,65af569f30852ac05a101dec,2024-01-23_08h04.05.010,bars,2023.2.3,Win32,121.9512195,657b66ea316d21385b68909f,,,,,,,,,,,647.9452,648.9434,,,649.4439,649.6935,,57,57,,,,,,,,,,,,,,,,bars/017.png,bars/mask005.png,,,,,,,,,,,,2,2,,,,,,,4,4,3,3,,,,,,,,,,,648.9435,649.4439,649.6936,652.0849,space,2.3852,,652.0849,88,12,653.085,653.085,653.0859,,,,0,42,42,42,1,145,45,,,,,,,,
,,6125ed1e651031550dfcad1a,65af569f30852ac05a101dec,2024-01-23_08h04.05.010,bars,2023.2.3,Win32,121.9512195,657b66ea316d21385b68909f,,,,,,,,,,,653.0864,654.0849,,,654.5846,654.8345,,131,131,,,,,,,,,,,,,,,,bars/019.png,bars/mask009.png,,,,,,,,,,,,1,2,,,,,,,2,6,4,6,,,,,,,,,,,654.085,654.5846,654.8345,656.1178,space,1.2762,,656.1178,86,26,657.1176,657.1176,657.1188,,,,0,43,43,43,1,45,105,,,,,,,,
,,6125ed1e651031550dfcad1a,65af569f30852ac05a101dec,2024-01-23_08h04.05.010,bars,2023.2.3,Win32,121.9512195,657b66ea316d21385b68909f,,,,,,,,,,,657.1193,658.1173,,,658.6174,658.8674,,142,142,,,,,,,,,,,,,,,,bars/024.png,bars/mask002.png,,,,,,,,,,,,0,1,,,,,,,0,8,0,8,,,,,,,,,,,658.1173,658.6174,658.8674,659.8588,space,0.9854,,659.8589,22,28,660.8589,660.859,660.862,,,,0,44,44,44,1,120,170,,,,,,,,
,,6125ed1e651031550dfcad1a,65af569f30852ac05a101dec,2024-01-23_08h04.05.010,bars,2023.2.3,Win32,121.9512195,657b66ea316d21385b68909f,,,,,,,,,,,660.8623,661.8584,,,662.3584,662.6084,,77,77,,,,,,,,,,,,,,,,bars/049.png,bars/mask008.png,,,,,,,,,,,,0,2,,,,,,,2,6,1,7,,,,,,,,,,,661.8584,662.3584,662.6084,663.6167,space,1.0011,,663.6167,83,38,664.6167,664.6168,664.6196,,,,0,45,45,45,1,160,115,,,,,,,,
,,6125ed1e651031550dfcad1a,65af569f30852ac05a101dec,2024-01-23_08h04.05.010,bars,2023.2.3,Win32,121.9512195,657b66ea316d21385b68909f,,,,,,,,,,,664.6199,665.6163,,,666.1165,666.3663,,70,70,,,,,,,,,,,,,,,,bars/009.png,bars/mask003.png,,,,,,,,,,,,0,2,,,,,,,0,4,0,4,,,,,,,,,,,665.6164,666.1165,666.3664,667.2331,space,0.8594,,667.2331,55,35,668.2327,668.2327,668.2338,,,,0,46,46,46,1,15,105,,,,,,,,
,,6125ed1e651031550dfcad1a,65af569f30852ac05a101dec,2024-01-23_08h04.05.010,bars,2023.2.3,Win32,121.9512195,657b66ea316d21385b68909f,,,,,,,,,,,668.2344,669.2327,,,669.7324,669.983,,10,10,,,,,,,,,,,,,,,,bars/006.png,bars/mask000.png,,,,,,,,,,,,0,1,,,,,,,2,6,2,6,,,,,,,,,,,669.2328,669.7324,669.983,670.5992,space,0.6089,,670.5993,25,90,671.599,671.599,671.6014,,,,0,47,47,47,1,35,100,,,,,,,,
,,6125ed1e651031550dfcad1a,65af569f30852ac05a101dec,2024-01-23_08h04.05.010,bars,2023.2.3,Win32,121.9512195,657b66ea316d21385b68909f,,,,,,,,,,,671.6017,672.5989,,,673.099,673.3486,,159,159,,,,,,,,,,,,,,,,bars/000.png,bars/mask004.png,,,,,,,,,,,,2,2,,,,,,,0,4,0,3,,,,,,,,,,,672.5989,673.0989,673.3487,673.724,space,0.3677,,673.724,61,14,674.7234,674.7234,674.7257,,,,0,48,48,48,1,40,145,,,,,,,,
,,6125ed1e651031550dfcad1a,65af569f30852ac05a101dec,2024-01-23_08h04.05.010,bars,2023.2.3,Win32,121.9512195,657b66ea316d21385b68909f,,,,,,,,,,,674.726,675.7233,,,676.2232,676.4737,,55,55,,,,,,,,,,,,,,,,bars/025.png,bars/mask003.png,,,,,,,,,,,,2,2,,,,,,,2,2,2,3,,,,,,,,,,,675.7233,676.2231,676.4738,677.3234,space,0.8426,,677.3234,50,15,678.3232,678.3232,678.325,,,,0,49,49,49,1,105,40,,,,,,,,
,,6125ed1e651031550dfcad1a,65af569f30852ac05a101dec,2024-01-23_08h04.05.010,bars,2023.2.3,Win32,121.9512195,657b66ea316d21385b68909f,,,,,,,,,,,,,,,,,,,,,,,,,,,,,,,,,,,,,,,,,,,,,,,,,,,,,,,,,,,,,,,,,,,,,,,,,,,,,,,,,,,,,,,,,,,,,678.3254,738.3244,0,1,1,3,1,sequence_tables/blk043.csv
,,6125ed1e651031550dfcad1a,65af569f30852ac05a101dec,2024-01-23_08h04.05.010,bars,2023.2.3,Win32,121.9512195,657b66ea316d21385b68909f,,,,,,,,,,,741.0821,742.0818,,,742.5817,742.8319,,173,173,,,,,,,,,,,,,,,,bars/049.png,bars/mask001.png,,,,,,,,,,,,2,1,,,,,,,4,1,4,1,,,,,,738.3414,741.0739,space,2.726,,742.0818,742.5816,742.8321,745.0812,space,2.2425,,745.0813,13,58,746.0817,746.0817,746.0843,,,,0,0,0,0,1,160,115,,,,,,,,
,,6125ed1e651031550dfcad1a,65af569f30852ac05a101dec,2024-01-23_08h04.05.010,bars,2023.2.3,Win32,121.9512195,657b66ea316d21385b68909f,,,,,,,,,,,746.0847,747.0814,,,747.5813,747.8313,,171,171,,,,,,,,,,,,,,,,bars/002.png,bars/mask000.png,,,,,,,,,,,,0,1,,,,,,,6,0,8,0,,,,,,,,,,,747.0814,747.5812,747.8314,748.806,space,0.967,,748.8061,41,86,749.8019,749.802,749.8034,,,,0,1,1,1,1,130,85,,,,,,,,
,,6125ed1e651031550dfcad1a,65af569f30852ac05a101dec,2024-01-23_08h04.05.010,bars,2023.2.3,Win32,121.9512195,657b66ea316d21385b68909f,,,,,,,,,,,749.8039,750.8057,,,751.3053,751.5552,,127,127,,,,,,,,,,,,,,,,bars/022.png,bars/mask006.png,,,,,,,,,,,,0,1,,,,,,,4,2,2,2,,,,,,,,,,,750.8058,751.3053,751.5552,752.2052,space,0.6423,,752.2053,32,73,753.2053,753.2053,753.2063,,,,0,2,2,2,1,95,20,,,,,,,,
,,6125ed1e651031550dfcad1a,65af569f30852ac05a101dec,2024-01-23_08h04.05.010,bars,2023.2.3,Win32,121.9512195,657b66ea316d21385b68909f,,,,,,,,,,,753.2067,754.2053,,,754.7052,754.9551,,61,61,,,,,,,,,,,,,,,,bars/014.png,bars/mask002.png,,,,,,,,,,,,1,1,,,,,,,2,0,2,0,,,,,,,,,,,754.2053,754.7051,754.9552,755.63,space,0.6676,,755.6301,19,61,756.6297,756.6298,756.6305,,,,0,3,3,3,1,80,0,,,,,,,,
,,6125ed1e651031550dfcad1a,65af569f30852ac05a101dec,2024-01-23_08h04.05.010,bars,2023.2.3,Win32,121.9512195,657b66ea316d21385b68909f,,,,,,,,,,,756.6309,757.6293,,,758.1297,758.3796,,176,176,,,,,,,,,,,,,,,,bars/018.png,bars/mask007.png,,,,,,,,,,,,1,1,,,,,,,4,0,4,0,,,,,,,,,,,757.6294,758.1297,758.3796,759.4544,space,1.0682,,759.4545,26,86,760.4467,760.4469,760.4621,,,,0,4,4,4,1,150,90,,,,,,,,
,,6125ed1e651031550dfcad1a,65af569f30852ac05a101dec,2024-01-23_08h04.05.010,bars,2023.2.3,Win32,121.9512195,657b66ea316d21385b68909f,,,,,,,,,,,760.4624,761.4629,,,761.9627,762.2129,,147,147,,,,,,,,,,,,,,,,bars/000.png,bars/mask008.png,,,,,,,,,,,,1,2,,,,,,,2,2,3,1,,,,,,,,,,,761.463,761.9626,762.213,763.0569,space,0.8379,,763.0571,73,2,764.0543,764.0544,764.0567,,,,0,5,5,5,1,40,145,,,,,,,,
,,6125ed1e651031550dfcad1a,65af569f30852ac05a101dec,2024-01-23_08h04.05.010,bars,2023.2.3,Win32,121.9512195,657b66ea316d21385b68909f,,,,,,,,,,,764.0569,765.0543,,,765.5541,765.804,,128,128,,,,,,,,,,,,,,,,bars/018.png,bars/mask009.png,,,,,,,,,,,,0,1,,,,,,,0,4,1,3,,,,,,,,,,,765.0543,765.554,765.8041,766.7703,space,0.9585,,766.7703,22,38,767.7703,767.7706,767.7732,,,,0,6,6,6,1,150,90,,,,,,,,
,,6125ed1e651031550dfcad1a,65af569f30852ac05a101dec,2024-01-23_08h04.05.010,bars,2023.2.3,Win32,121.9512195,657b66ea316d21385b68909f,,,,,,,,,,,767.7736,768.7699,,,769.2702,769.52,,99,99,,,,,,,,,,,,,,,,bars/035.png,bars/mask002.png,,,,,,,,,,,,0,2,,,,,,,0,6,0,7,,,,,,,,,,,768.7699,769.2702,769.52,770.4779,space,0.9511,,770.4779,76,39,771.4778,771.4778,771.4809,,,,0,7,7,7,1,175,60,,,,,,,,
,,6125ed1e651031550dfcad1a,65af569f30852ac05a101dec,2024-01-23_08h04.05.010,bars,2023.2.3,Win32,121.9512195,657b66ea316d21385b68909f,,,,,,,,,,,771.4813,772.4777,,,772.9781,773.2276,,76,76,,,,,,,,,,,,,,,,bars/025.png,bars/mask005.png,,,,,,,,,,,,0,1,,,,,,,2,8,2,8,,,,,,,,,,,772.4778,772.978,773.2277,774.0912,space,0.858,,774.0913,29,36,775.0858,775.0858,775.0886,,,,0,8,8,8,1,105,40,,,,,,,,
,,6125ed1e651031550dfcad1a,65af569f30852ac05a101dec,2024-01-23_08h04.05.010,bars,2023.2.3,Win32,121.9512195,657b66ea316d21385b68909f,,,,,,,,,,,775.089,776.0853,,,776.5861,776.8355,,21,21,,,,,,,,,,,,,,,,bars/045.png,bars/mask007.png,,,,,,,,,,,,4,2,,,,,,,4,6,4,7,,,,,,,,,,,776.0853,776.5861,776.8356,777.1608,space,0.318,,777.1609,79,11,778.1604,778.1604,778.1643,,,,0,9,9,9,1,100,10,,,,,,,,
,,6125ed1e651031550dfcad1a,65af569f30852ac05a101dec,2024-01-23_08h04.05.010,bars,2023.2.3,Win32,121.9512195,657b66ea316d21385b68909f,,,,,,,,,,,778.1647,779.1605,,,779.6607,779.9065,,176,176,,,,,,,,,,,,,,,,bars/049.png,bars/mask008.png,,,,,,,,,,,,0,1,,,,,,,2,8,0,8,,,,,,,,,,,779.1606,779.6606,779.9066,784.7846,space,4.8715,,784.7846,16,61,785.7845,785.7845,785.8028,,,,0,10,10,10,1,160,115,,,,,,,,
,,6125ed1e651031550dfcad1a,65af569f30852ac05a101dec,2024-01-23_08h04.05.010,bars,2023.2.3,Win32,121.9512195,657b66ea316d21385b68909f,,,,,,,,,,,785.8031,786.8013,,,787.3013,787.551,,92,92,,,,,,,,,,,,,,,,bars/048.png,bars/mask001.png,,,,,,,,,,,,0,1,,,,,,,4,10,4,8,,,,,,,,,,,786.8013,787.3012,787.551,790.3757,space,2.8169,,790.3758,42,83,791.3757,791.3758,791.3923,,,,0,11,11,11,1,50,175,,,,,,,,
,,6125ed1e651031550dfcad1a,65af569f30852ac05a101dec,2024-01-23_08h04.05.010,bars,2023.2.3,Win32,121.9512195,657b66ea316d21385b68909f,,,,,,,,,,,791.3926,792.3924,,,792.8919,793.142,,106,106,,,,,,,,,,,,,,,,bars/006.png,bars/mask009.png,,,,,,,,,,,,8,2,,,,,,,2,8,3,10,,,,,,,,,,,792.3924,792.8918,793.142,794.4338,space,1.2837,,794.4338,71,6,795.4331,795.4332,795.4352,,,,0,12,12,12,1,35,100,,,,,,,,
,,6125ed1e651031550dfcad1a,65af569f30852ac05a101dec,2024-01-23_08h04.05.010,bars,2023.2.3,Win32,121.9512195,657b66ea316d21385b68909f,,,,,,,,,,,795.4356,796.4331,,,796.9328,797.1831,,112,112,,,,,,,,,,,,,,,,bars/035.png,bars/mask008.png,,,,,,,,,,,,0,2,,,,,,,0,10,0,9,,,,,,,,,,,796.4332,796.9327,797.1831,798.8577,space,1.6678,,798.8578,63,52,799.8576,799.8577,799.8586,,,,0,13,13,13,1,175,60,,,,,,,,
,,6125ed1e651031550dfcad1a,65af569f30852ac05a101dec,2024-01-23_08h04.05.010,bars,2023.2.3,Win32,121.9512195,657b66ea316d21385b68909f,,,,,,,,,,,799.859,800.8575,,,801.3577,801.6078,,159,159,,,,,,,,,,,,,,,,bars/033.png,bars/mask003.png,,,,,,,,,,,,9,2,,,,,,,2,10,1,10,,,,,,,,,,,800.8575,801.3576,801.6078,803.5321,space,1.917,,803.5321,46,4,804.5321,804.5322,804.5485,,,,0,14,14,14,1,25,155,,,,,,,,
,,6125ed1e651031550dfcad1a,65af569f30852ac05a101dec,2024-01-23_08h04.05.010,bars,2023.2.3,Win32,121.9512195,657b66ea316d21385b68909f,,,,,,,,,,,804.5488,805.5484,,,806.0485,806.2985,,5,5,,,,,,,,,,,,,,,,bars/028.png,bars/mask002.png,,,,,,,,,,,,0,1,,,,,,,0,8,0,6,,,,,,,,,,,805.5484,806.0485,806.2985,807.2734,space,0.9686,,807.2734,40,65,808.2732,808.2732,808.2764,,,,0,15,15,15,1,45,120,,,,,,,,
,,6125ed1e651031550dfcad1a,65af569f30852ac05a101dec,2024-01-23_08h04.05.010,bars,2023.2.3,Win32,121.9512195,657b66ea316d21385b68909f,,,,,,,,,,,808.277,809.2734,,,809.7732,810.0231,,114,114,,,,,,,,,,,,,,,,bars/025.png,bars/mask001.png,,,,,,,,,,,,1,1,,,,,,,0,6,1,5,,,,,,,,,,,809.2734,809.7732,810.0232,810.0315,space,0.001,,810.0316,9,74,811.0311,811.0312,811.0323,,,,0,16,16,16,1,105,40,,,,,,,,
,,6125ed1e651031550dfcad1a,65af569f30852ac05a101dec,2024-01-23_08h04.05.010,bars,2023.2.3,Win32,121.9512195,657b66ea316d21385b68909f,,,,,,,,,,,811.0327,812.0312,,,812.5313,812.7814,,112,112,,,,,,,,,,,,,,,,bars/039.png,bars/mask005.png,,,,,,,,,,,,6,2,,,,,,,0,8,0,8,,,,,,,,,,,812.0313,812.5313,812.7814,814.3607,space,1.5738,,814.3607,63,7,815.3554,815.3555,815.3579,,,,0,17,17,17,1,175,105,,,,,,,,
,,6125ed1e651031550dfcad1a,65af569f30852ac05a101dec,2024-01-23_08h04.05.010,bars,2023.2.3,Win32,121.9512195,657b66ea316d21385b68909f,,,,,,,,,,,815.3583,816.3555,,,816.8553,817.1055,,25,25,,,,,,,,,,,,,,,,bars/026.png,bars/mask007.png,,,,,,,,,,,,0,1,,,,,,,0,10,0,10,,,,,,,,,,,816.3556,816.8551,817.1055,817.7396,space,0.6254,,817.7397,10,60,818.7421,818.7422,818.7447,,,,0,18,18,18,1,35,85,,,,,,,,
,,6125ed1e651031550dfcad1a,65af569f30852ac05a101dec,2024-01-23_08h04.05.010,bars,2023.2.3,Win32,121.9512195,657b66ea316d21385b68909f,,,,,,,,,,,818.745,819.7465,,,820.2466,820.4966,,52,52,,,,,,,,,,,,,,,,bars/033.png,bars/mask007.png,,,,,,,,,,,,0,1,,,,,,,2,8,2,9,,,,,,,,,,,819.7466,820.2465,820.4966,822.5016,space,1.9991,,822.5017,27,77,823.4962,823.4963,823.5139,,,,0,19,19,19,1,25,155,,,,,,,,
,,6125ed1e651031550dfcad1a,65af569f30852ac05a101dec,2024-01-23_08h04.05.010,bars,2023.2.3,Win32,121.9512195,657b66ea316d21385b68909f,,,,,,,,,,,823.5142,824.5126,,,825.013,825.263,,26,26,,,,,,,,,,,,,,,,bars/027.png,bars/mask003.png,,,,,,,,,,,,1,2,,,,,,,4,6,4,7,,,,,,,,,,,824.5127,825.013,825.263,825.796,space,0.5267,,825.7961,84,24,826.7959,826.7959,826.7985,,,,0,20,20,20,1,110,50,,,,,,,,
,,6125ed1e651031550dfcad1a,65af569f30852ac05a101dec,2024-01-23_08h04.05.010,bars,2023.2.3,Win32,121.9512195,657b66ea316d21385b68909f,,,,,,,,,,,826.7988,827.7957,,,828.2958,828.5456,,176,176,,,,,,,,,,,,,,,,bars/020.png,bars/mask007.png,,,,,,,,,,,,6,2,,,,,,,6,8,7,7,,,,,,,,,,,827.7957,828.2957,828.5456,829.3708,space,0.819,,829.3708,61,6,830.3722,830.3723,830.3732,,,,0,21,21,21,1,115,170,,,,,,,,
,,6125ed1e651031550dfcad1a,65af569f30852ac05a101dec,2024-01-23_08h04.05.010,bars,2023.2.3,Win32,121.9512195,657b66ea316d21385b68909f,,,,,,,,,,,830.3738,831.3704,,,831.87,832.1203,,178,178,,,,,,,,,,,,,,,,bars/016.png,bars/mask006.png,,,,,,,,,,,,6,2,,,,,,,4,10,5,10,,,,,,,,,,,831.3704,831.87,832.1204,832.6531,space,0.5264,,832.6531,42,13,833.6532,833.6533,833.6541,,,,0,22,22,22,1,40,165,,,,,,,,
,,6125ed1e651031550dfcad1a,65af569f30852ac05a101dec,2024-01-23_08h04.05.010,bars,2023.2.3,Win32,121.9512195,657b66ea316d21385b68909f,,,,,,,,,,,833.6546,834.6532,,,835.1534,835.4031,,19,19,,,,,,,,,,,,,,,,bars/004.png,bars/mask006.png,,,,,,,,,,,,6,1,,,,,,,6,8,7,9,,,,,,,,,,,834.6532,835.1534,835.4032,836.1696,space,0.7599,,836.1696,6,74,837.1695,837.1695,837.1717,,,,0,23,23,23,1,25,125,,,,,,,,
,,6125ed1e651031550dfcad1a,65af569f30852ac05a101dec,2024-01-23_08h04.05.010,bars,2023.2.3,Win32,121.9512195,657b66ea316d21385b68909f,,,,,,,,,,,837.172,838.169,,,838.6689,838.9188,,106,106,,,,,,,,,,,,,,,,bars/033.png,bars/mask008.png,,,,,,,,,,,,0,2,,,,,,,8,10,9,10,,,,,,,,,,,838.169,838.6688,838.9188,839.0523,space,0.1257,,839.0523,81,49,840.0523,840.0523,840.0542,,,,0,24,24,24,1,25,155,,,,,,,,
,,6125ed1e651031550dfcad1a,65af569f30852ac05a101dec,2024-01-23_08h04.05.010,bars,2023.2.3,Win32,121.9512195,657b66ea316d21385b68909f,,,,,,,,,,,840.0544,841.0523,,,841.552,841.8021,,116,116,,,,,,,,,,,,,,,,bars/034.png,bars/mask004.png,,,,,,,,,,,,7,1,,,,,,,10,8,10,9,,,,,,,,,,,841.0524,841.552,841.8022,842.4271,space,0.6181,,842.4272,9,51,843.4267,843.4267,843.4295,,,,0,25,25,25,1,125,65,,,,,,,,
,,6125ed1e651031550dfcad1a,65af569f30852ac05a101dec,2024-01-23_08h04.05.010,bars,2023.2.3,Win32,121.9512195,657b66ea316d21385b68909f,,,,,,,,,,,843.4297,844.4282,,,844.9267,845.1767,,112,112,,,,,,,,,,,,,,,,bars/049.png,bars/mask007.png,,,,,,,,,,,,9,2,,,,,,,10,10,10,10,,,,,,,,,,,844.4284,844.9266,845.1768,846.2352,space,1.0511,,846.2352,48,3,847.2349,847.235,847.2371,,,,0,26,26,26,1,160,115,,,,,,,,
,,6125ed1e651031550dfcad1a,65af569f30852ac05a101dec,2024-01-23_08h04.05.010,bars,2023.2.3,Win32,121.9512195,657b66ea316d21385b68909f,,,,,,,,,,,847.2375,848.2349,,,848.7348,848.9848,,117,117,,,,,,,,,,,,,,,,bars/030.png,bars/mask002.png,,,,,,,,,,,,2,1,,,,,,,8,10,7,10,,,,,,,,,,,848.235,848.7348,848.9848,852.9509,space,3.9582,,852.9509,23,52,853.9506,853.9507,853.9684,,,,0,27,27,27,1,140,65,,,,,,,,
,,6125ed1e651031550dfcad1a,65af569f30852ac05a101dec,2024-01-23_08h04.05.010,bars,2023.2.3,Win32,121.9512195,657b66ea316d21385b68909f,,,,,,,,,,,853.9685,854.9669,,,855.467,855.7169,,8,8,,,,,,,,,,,,,,,,bars/025.png,bars/mask003.png,,,,,,,,,,,,0,2,,,,,,,10,8,10,7,,,,,,,,,,,854.967,855.467,855.717,857.642,space,1.9175,,857.642,83,32,858.6422,858.6422,858.6601,,,,0,28,28,28,1,105,40,,,,,,,,
,,6125ed1e651031550dfcad1a,65af569f30852ac05a101dec,2024-01-23_08h04.05.010,bars,2023.2.3,Win32,121.9512195,657b66ea316d21385b68909f,,,,,,,,,,,858.6603,859.6582,,,860.1583,860.4082,,77,77,,,,,,,,,,,,,,,,bars/043.png,bars/mask008.png,,,,,,,,,,,,0,1,,,,,,,10,6,10,5,,,,,,,,,,,859.6582,860.1582,860.4082,861.3581,space,0.9418,,861.3582,47,53,862.3579,862.358,862.3602,,,,0,29,29,29,1,30,130,,,,,,,,
,,6125ed1e651031550dfcad1a,65af569f30852ac05a101dec,2024-01-23_08h04.05.010,bars,2023.2.3,Win32,121.9512195,657b66ea316d21385b68909f,,,,,,,,,,,862.3607,863.3577,,,863.8542,864.0994,,175,175,,,,,,,,,,,,,,,,bars/043.png,bars/mask009.png,,,,,,,,,,,,0,1,,,,,,,8,8,7,8,,,,,,,,,,,863.3578,863.8542,864.0994,864.9165,space,0.8086,,864.9166,35,45,865.9159,865.9159,865.9167,,,,0,30,30,30,1,30,130,,,,,,,,
,,6125ed1e651031550dfcad1a,65af569f30852ac05a101dec,2024-01-23_08h04.05.010,bars,2023.2.3,Win32,121.9512195,657b66ea316d21385b68909f,,,,,,,,,,,865.917,866.9155,,,867.4154,867.6653,,146,146,,,,,,,,,,,,,,,,bars/034.png,bars/mask008.png,,,,,,,,,,,,2,1,,,,,,,6,10,5,10,,,,,,,,,,,866.9155,867.4153,867.6653,868.6906,space,1.0176,,868.6907,21,81,869.6905,869.6905,869.6914,,,,0,31,31,31,1,125,65,,,,,,,,
,,6125ed1e651031550dfcad1a,65af569f30852ac05a101dec,2024-01-23_08h04.05.010,bars,2023.2.3,Win32,121.9512195,657b66ea316d21385b68909f,,,,,,,,,,,869.692,870.6901,,,871.1903,871.4398,,2,2,,,,,,,,,,,,,,,,bars/025.png,bars/mask006.png,,,,,,,,,,,,0,2,,,,,,,4,10,4,10,,,,,,,,,,,870.6901,871.1902,871.4398,872.0567,space,0.6088,,872.0568,77,38,873.0565,873.0566,873.0589,,,,0,32,32,32,1,105,40,,,,,,,,
,,6125ed1e651031550dfcad1a,65af569f30852ac05a101dec,2024-01-23_08h04.05.010,bars,2023.2.3,Win32,121.9512195,657b66ea316d21385b68909f,,,,,,,,,,,873.0593,874.0562,,,874.5565,874.8063,,103,103,,,,,,,,,,,,,,,,bars/042.png,bars/mask009.png,,,,,,,,,,,,1,2,,,,,,,6,10,5,10,,,,,,,,,,,874.0562,874.5565,874.8063,875.1313,space,0.3167,,875.1313,42,28,876.1308,876.1308,876.1315,,,,0,33,33,33,1,145,75,,,,,,,,
,,6125ed1e651031550dfcad1a,65af569f30852ac05a101dec,2024-01-23_08h04.05.010,bars,2023.2.3,Win32,121.9512195,657b66ea316d21385b68909f,,,,,,,,,,,876.1318,877.1311,,,877.6308,877.8812,,97,97,,,,,,,,,,,,,,,,bars/048.png,bars/mask009.png,,,,,,,,,,,,0,1,,,,,,,4,10,3,10,,,,,,,,,,,877.1312,877.6308,877.8812,878.6974,space,0.8084,,878.6974,47,78,879.6971,879.6972,879.6996,,,,0,34,34,34,1,50,175,,,,,,,,
,,6125ed1e651031550dfcad1a,65af569f30852ac05a101dec,2024-01-23_08h04.05.010,bars,2023.2.3,Win32,121.9512195,657b66ea316d21385b68909f,,,,,,,,,,,879.7,880.6971,,,881.197,881.4469,,63,63,,,,,,,,,,,,,,,,bars/017.png,bars/mask004.png,,,,,,,,,,,,3,2,,,,,,,6,8,6,7,,,,,,,,,,,880.6972,881.1969,881.4469,881.6803,space,0.2261,,881.6805,82,18,882.6803,882.6804,882.6827,,,,0,35,35,35,1,145,45,,,,,,,,
,,6125ed1e651031550dfcad1a,65af569f30852ac05a101dec,2024-01-23_08h04.05.010,bars,2023.2.3,Win32,121.9512195,657b66ea316d21385b68909f,,,,,,,,,,,882.683,883.6846,,,884.1804,884.4299,,141,141,,,,,,,,,,,,,,,,bars/019.png,bars/mask002.png,,,,,,,,,,,,0,2,,,,,,,8,10,9,10,,,,,,,,,,,883.6847,884.1804,884.43,884.6057,space,0.1698,,884.6057,84,36,885.6053,885.6054,885.6063,,,,0,36,36,36,1,45,105,,,,,,,,
,,6125ed1e651031550dfcad1a,65af569f30852ac05a101dec,2024-01-23_08h04.05.010,bars,2023.2.3,Win32,121.9512195,657b66ea316d21385b68909f,,,,,,,,,,,885.6067,886.605,,,887.1012,887.3466,,57,57,,,,,,,,,,,,,,,,bars/044.png,bars/mask001.png,,,,,,,,,,,,4,1,,,,,,,10,8,10,9,,,,,,,,,,,886.6051,887.1012,887.3466,887.6715,space,0.3173,,887.6715,18,82,888.6718,888.6718,888.6742,,,,0,37,37,37,1,75,155,,,,,,,,
,,6125ed1e651031550dfcad1a,65af569f30852ac05a101dec,2024-01-23_08h04.05.010,bars,2023.2.3,Win32,121.9512195,657b66ea316d21385b68909f,,,,,,,,,,,888.6745,889.6715,,,890.1712,890.421,,35,35,,,,,,,,,,,,,,,,bars/012.png,bars/mask001.png,,,,,,,,,,,,3,2,,,,,,,8,10,7,10,,,,,,,,,,,889.6715,890.1712,890.4211,891.0132,space,0.5838,,891.0132,55,20,892.0128,892.0128,892.0149,,,,0,38,38,38,1,90,15,,,,,,,,
,,6125ed1e651031550dfcad1a,65af569f30852ac05a101dec,2024-01-23_08h04.05.010,bars,2023.2.3,Win32,121.9512195,657b66ea316d21385b68909f,,,,,,,,,,,892.0153,893.0124,,,893.5127,893.7623,,150,150,,,,,,,,,,,,,,,,bars/041.png,bars/mask000.png,,,,,,,,,,,,0,1,,,,,,,6,10,5,10,,,,,,,,,,,893.0125,893.5126,893.7624,895.1371,space,1.3671,,895.1372,50,65,896.1369,896.137,896.1395,,,,0,39,39,39,1,20,85,,,,,,,,
,,6125ed1e651031550dfcad1a,65af569f30852ac05a101dec,2024-01-23_08h04.05.010,bars,2023.2.3,Win32,121.9512195,657b66ea316d21385b68909f,,,,,,,,,,,896.1397,897.1364,,,897.6366,897.8864,,111,111,,,,,,,,,,,,,,,,bars/036.png,bars/mask000.png,,,,,,,,,,,,0,1,,,,,,,4,10,2,10,,,,,,,,,,,897.1365,897.6366,897.8865,898.4537,space,0.5594,,898.4538,34,89,899.4536,899.4537,899.4544,,,,0,40,40,40,1,145,20,,,,,,,,
,,6125ed1e651031550dfcad1a,65af569f30852ac05a101dec,2024-01-23_08h04.05.010,bars,2023.2.3,Win32,121.9512195,657b66ea316d21385b68909f,,,,,,,,,,,899.4547,900.4533,,,900.9534,901.2033,,16,16,,,,,,,,,,,,,,,,bars/016.png,bars/mask006.png,,,,,,,,,,,,1,1,,,,,,,6,10,5,10,,,,,,,,,,,900.4533,900.9534,901.2033,902.6693,space,1.4587,,902.6694,24,31,903.6691,903.6691,903.6708,,,,0,41,41,41,1,40,165,,,,,,,,
,,6125ed1e651031550dfcad1a,65af569f30852ac05a101dec,2024-01-23_08h04.05.010,bars,2023.2.3,Win32,121.9512195,657b66ea316d21385b68909f,,,,,,,,,,,903.6711,904.6691,,,905.1689,905.4193,,72,72,,,,,,,,,,,,,,,,bars/048.png,bars/mask000.png,,,,,,,,,,,,1,1,,,,,,,4,10,4,10,,,,,,,,,,,904.6692,905.1688,905.4193,906.9773,space,1.5502,,906.9774,22,77,907.9772,907.9772,907.9784,,,,0,42,42,42,1,50,175,,,,,,,,
,,6125ed1e651031550dfcad1a,65af569f30852ac05a101dec,2024-01-23_08h04.05.010,bars,2023.2.3,Win32,121.9512195,657b66ea316d21385b68909f,,,,,,,,,,,907.979,908.9767,,,909.477,909.7267,,0,0,,,,,,,,,,,,,,,,bars/035.png,bars/mask000.png,,,,,,,,,,,,1,1,,,,,,,2,10,1,9,,,,,,,,,,,908.9767,909.477,909.7268,910.3436,space,0.604,,910.3437,5,60,911.3437,911.3437,911.3445,,,,0,43,43,43,1,175,60,,,,,,,,
,,6125ed1e651031550dfcad1a,65af569f30852ac05a101dec,2024-01-23_08h04.05.010,bars,2023.2.3,Win32,121.9512195,657b66ea316d21385b68909f,,,,,,,,,,,911.3447,912.3436,,,912.8436,913.0933,,101,101,,,,,,,,,,,,,,,,bars/004.png,bars/mask005.png,,,,,,,,,,,,1,2,,,,,,,0,8,0,6,,,,,,,,,,,912.3436,912.8436,913.0933,916.4261,space,3.3192,,916.4263,76,24,917.4256,917.4257,917.4447,,,,0,44,44,44,1,25,125,,,,,,,,
,,6125ed1e651031550dfcad1a,65af569f30852ac05a101dec,2024-01-23_08h04.05.010,bars,2023.2.3,Win32,121.9512195,657b66ea316d21385b68909f,,,,,,,,,,,917.445,918.4427,,,918.9421,919.186,,164,164,,,,,,,,,,,,,,,,bars/032.png,bars/mask005.png,,,,,,,,,,,,0,2,,,,,,,0,10,1,10,,,,,,,,,,,918.4427,918.942,919.1861,919.8757,space,0.6827,,919.8758,39,36,920.8756,920.8757,920.8766,,,,0,45,45,45,1,125,20,,,,,,,,
,,6125ed1e651031550dfcad1a,65af569f30852ac05a101dec,2024-01-23_08h04.05.010,bars,2023.2.3,Win32,121.9512195,657b66ea316d21385b68909f,,,,,,,,,,,920.877,921.8752,,,922.3751,922.6251,,161,161,,,,,,,,,,,,,,,,bars/004.png,bars/mask005.png,,,,,,,,,,,,0,2,,,,,,,2,10,2,10,,,,,,,,,,,921.8753,922.375,922.6251,922.8085,space,0.1761,,922.8085,44,36,923.808,923.8081,923.8089,,,,0,46,46,46,1,25,125,,,,,,,,
,,6125ed1e651031550dfcad1a,65af569f30852ac05a101dec,2024-01-23_08h04.05.010,bars,2023.2.3,Win32,121.9512195,657b66ea316d21385b68909f,,,,,,,,,,,923.8094,924.8079,,,925.3079,925.5581,,110,110,,,,,,,,,,,,,,,,bars/027.png,bars/mask002.png,,,,,,,,,,,,1,1,,,,,,,0,10,1,10,,,,,,,,,,,924.8079,925.3079,925.5582,926.0746,space,0.5097,,926.0747,0,60,927.0744,927.0745,927.077,,,,0,47,47,47,1,110,50,,,,,,,,
,,6125ed1e651031550dfcad1a,65af569f30852ac05a101dec,2024-01-23_08h04.05.010,bars,2023.2.3,Win32,121.9512195,657b66ea316d21385b68909f,,,,,,,,,,,927.0774,928.0743,,,928.5747,928.8244,,176,176,,,,,,,,,,,,,,,,bars/044.png,bars/mask003.png,,,,,,,,,,,,3,2,,,,,,,2,10,2,10,,,,,,,,,,,928.0743,928.5746,928.8245,930.141,space,1.309,,930.141,79,21,931.1407,931.1407,931.1588,,,,0,48,48,48,1,75,155,,,,,,,,
,,6125ed1e651031550dfcad1a,65af569f30852ac05a101dec,2024-01-23_08h04.05.010,bars,2023.2.3,Win32,121.9512195,657b66ea316d21385b68909f,,,,,,,,,,,931.1592,932.157,,,932.6574,932.9066,,117,117,,,,,,,,,,,,,,,,bars/045.png,bars/mask008.png,,,,,,,,,,,,0,1,,,,,,,0,10,0,8,,,,,,,,,,,932.157,932.6573,932.9067,933.7484,space,0.834,,933.7484,17,73,934.7484,934.7485,934.7508,,,,0,49,49,49,1,100,10,,,,,,,,
,,6125ed1e651031550dfcad1a,65af569f30852ac05a101dec,2024-01-23_08h04.05.010,bars,2023.2.3,Win32,121.9512195,657b66ea316d21385b68909f,,,,,,,,,,,,,,,,,,,,,,,,,,,,,,,,,,,,,,,,,,,,,,,,,,,,,,,,,,,,,,,,,,,,,,,,,,,,,,,,,,,,,,,,,,,,,934.751,994.7493,0,2,2,2,1,sequence_tables/blk031.csv
,,6125ed1e651031550dfcad1a,65af569f30852ac05a101dec,2024-01-23_08h04.05.010,bars,2023.2.3,Win32,121.9512195,657b66ea316d21385b68909f,,,,,,,,,,,996.0234,997.016,,,997.5158,997.7658,,168,168,,,,,,,,,,,,,,,,bars/040.png,bars/mask001.png,,,,,,,,,,,,2,2,,,,,,,9,4,9,4,,,,,,994.7669,996.016,space,1.2405,,997.016,997.5156,997.7659,998.3318,space,0.5582,,998.3318,28,17,999.3322,999.3322,999.3347,,,,0,0,0,0,1,140,5,,,,,,,,
,,6125ed1e651031550dfcad1a,65af569f30852ac05a101dec,2024-01-23_08h04.05.010,bars,2023.2.3,Win32,121.9512195,657b66ea316d21385b68909f,,,,,,,,,,,999.3351,1000.332,,,1000.8318,1001.0819,,29,29,,,,,,,,,,,,,,,,bars/034.png,bars/mask005.png,,,,,,,,,,,,0,2,,,,,,,10,6,10,6,,,,,,,,,,,1000.3321,1000.8318,1001.082,1001.4733,space,0.3847,,1001.4734,84,36,1002.4729,1002.4729,1002.4736,,,,0,1,1,1,1,125,65,,,,,,,,
,,6125ed1e651031550dfcad1a,65af569f30852ac05a101dec,2024-01-23_08h04.05.010,bars,2023.2.3,Win32,121.9512195,657b66ea316d21385b68909f,,,,,,,,,,,1002.4739,1003.4732,,,1003.9729,1004.2231,,155,155,,,,,,,,,,,,,,,,bars/000.png,bars/mask009.png,,,,,,,,,,,,3,2,,,,,,,8,4,8,5,,,,,,,,,,,1003.4733,1003.9728,1004.2231,1005.581,space,1.3513,,1005.581,65,10,1006.5809,1006.5809,1006.5817,,,,0,2,2,2,1,40,145,,,,,,,,
,,6125ed1e651031550dfcad1a,65af569f30852ac05a101dec,2024-01-23_08h04.05.010,bars,2023.2.3,Win32,121.9512195,657b66ea316d21385b68909f,,,,,,,,,,,1006.5823,1007.5813,,,1008.0809,1008.331,,165,165,,,,,,,,,,,,,,,,bars/035.png,bars/mask008.png,,,,,,,,,,,,4,1,,,,,,,6,6,6,7,,,,,,,,,,,1007.5813,1008.0808,1008.3311,1009.8306,space,1.4924,,1009.8307,10,75,1010.8308,1010.8308,1010.8488,,,,0,3,3,3,1,175,60,,,,,,,,
,,6125ed1e651031550dfcad1a,65af569f30852ac05a101dec,2024-01-23_08h04.05.010,bars,2023.2.3,Win32,121.9512195,657b66ea316d21385b68909f,,,,,,,,,,,1010.8491,1011.847,,,1012.3513,1012.6015,,64,64,,,,,,,,,,,,,,,,bars/002.png,bars/mask005.png,,,,,,,,,,,,2,2,,,,,,,4,8,3,8,,,,,,,,,,,1011.847,1012.3513,1012.6015,1013.9187,space,1.3113,,1013.9187,66,21,1014.913,1014.913,1014.9276,,,,0,4,4,4,1,130,85,,,,,,,,
,,6125ed1e651031550dfcad1a,65af569f30852ac05a101dec,2024-01-23_08h04.05.010,bars,2023.2.3,Win32,121.9512195,657b66ea316d21385b68909f,,,,,,,,,,,1014.9278,1015.9217,,,1016.4176,1016.6632,,156,156,,,,,,,,,,,,,,,,bars/018.png,bars/mask006.png,,,,,,,,,,,,1,1,,,,,,,2,10,1,10,,,,,,,,,,,1015.9217,1016.4176,1016.6633,1019.7125,space,3.0431,,1019.7126,6,66,1020.7123,1020.7125,1020.7317,,,,0,5,5,5,1,150,90,,,,,,,,
,,6125ed1e651031550dfcad1a,65af569f30852ac05a101dec,2024-01-23_08h04.05.010,bars,2023.2.3,Win32,121.9512195,657b66ea316d21385b68909f,,,,,,,,,,,1020.7319,1021.7291,,,1022.2291,1022.4788,,168,168,,,,,,,,,,,,,,,,bars/033.png,bars/mask008.png,,,,,,,,,,,,5,2,,,,,,,4,8,4,8,,,,,,,,,,,1021.7291,1022.2291,1022.4789,1023.3707,space,0.8849,,1023.3707,37,13,1024.3707,1024.3707,1024.3729,,,,0,6,6,6,1,25,155,,,,,,,,
,,6125ed1e651031550dfcad1a,65af569f30852ac05a101dec,2024-01-23_08h04.05.010,bars,2023.2.3,Win32,121.9512195,657b66ea316d21385b68909f,,,,,,,,,,,1024.3732,1025.3705,,,1025.8705,1026.1205,,53,53,,,,,,,,,,,,,,,,bars/014.png,bars/mask001.png,,,,,,,,,,,,0,1,,,,,,,2,10,1,10,,,,,,,,,,,1025.3706,1025.8705,1026.1205,1027.2207,space,1.0919,,1027.2207,27,53,1028.2203,1028.2204,1028.2226,,,,0,7,7,7,1,80,0,,,,,,,,
,,6125ed1e651031550dfcad1a,65af569f30852ac05a101dec,2024-01-23_08h04.05.010,bars,2023.2.3,Win32,121.9512195,657b66ea316d21385b68909f,,,,,,,,,,,1028.223,1029.2195,,,1029.7193,1029.9698,,136,136,,,,,,,,,,,,,,,,bars/027.png,bars/mask005.png,,,,,,,,,,,,1,1,,,,,,,4,8,4,7,,,,,,,,,,,1029.2196,1029.7193,1029.9699,1032.0194,space,2.0425,,1032.0195,26,86,1033.0195,1033.0196,1033.0369,,,,0,8,8,8,1,110,50,,,,,,,,
,,6125ed1e651031550dfcad1a,65af569f30852ac05a101dec,2024-01-23_08h04.05.010,bars,2023.2.3,Win32,121.9512195,657b66ea316d21385b68909f,,,,,,,,,,,1033.0372,1034.0359,,,1034.5359,1034.7855,,119,119,,,,,,,,,,,,,,,,bars/003.png,bars/mask006.png,,,,,,,,,,,,2,2,,,,,,,2,6,2,7,,,,,,,,,,,1034.0361,1034.5359,1034.7856,1035.3279,space,0.534,,1035.3279,86,21,1036.3278,1036.3279,1036.3302,,,,0,9,9,9,1,25,140,,,,,,,,
,,6125ed1e651031550dfcad1a,65af569f30852ac05a101dec,2024-01-23_08h04.05.010,bars,2023.2.3,Win32,121.9512195,657b66ea316d21385b68909f,,,,,,,,,,,1036.3305,1037.327,,,1037.832,1038.0769,,69,69,,,,,,,,,,,,,,,,bars/045.png,bars/mask006.png,,,,,,,,,,,,0,1,,,,,,,4,8,3,7,,,,,,,,,,,1037.3271,1037.832,1038.0769,1039.127,space,1.0421,,1039.1271,31,59,1040.1266,1040.1266,1040.129,,,,0,10,10,10,1,100,10,,,,,,,,
,,6125ed1e651031550dfcad1a,65af569f30852ac05a101dec,2024-01-23_08h04.05.010,bars,2023.2.3,Win32,121.9512195,657b66ea316d21385b68909f,,,,,,,,,,,1040.1293,1041.1269,,,1041.6266,1041.8765,,73,73,,,,,,,,,,,,,,,,bars/032.png,bars/mask003.png,,,,,,,,,,,,0,1,,,,,,,2,6,1,7,,,,,,,,,,,1041.127,1041.6265,1041.8765,1042.2597,space,0.3762,,1042.2598,52,53,1043.2601,1043.2601,1043.261,,,,0,11,11,11,1,125,20,,,,,,,,
,,6125ed1e651031550dfcad1a,65af569f30852ac05a101dec,2024-01-23_08h04.05.010,bars,2023.2.3,Win32,121.9512195,657b66ea316d21385b68909f,,,,,,,,,,,1043.2613,1044.2601,,,1044.7597,1045.0093,,89,89,,,,,,,,,,,,,,,,bars/019.png,bars/mask001.png,,,,,,,,,,,,3,2,,,,,,,4,4,4,6,,,,,,,,,,,1044.2602,1044.7596,1045.0094,1045.6262,space,0.6039,,1045.6264,44,16,1046.6264,1046.6264,1046.6285,,,,0,12,12,12,1,45,105,,,,,,,,
,,6125ed1e651031550dfcad1a,65af569f30852ac05a101dec,2024-01-23_08h04.05.010,bars,2023.2.3,Win32,121.9512195,657b66ea316d21385b68909f,,,,,,,,,,,1046.6288,1047.626,,,1048.1262,1048.3756,,18,18,,,,,,,,,,,,,,,,bars/002.png,bars/mask003.png,,,,,,,,,,,,0,2,,,,,,,2,6,1,6,,,,,,,,,,,1047.626,1048.1261,1048.3757,1049.8672,space,1.4836,,1049.8676,68,67,1050.8668,1050.8669,1050.8681,,,,0,13,13,13,1,130,85,,,,,,,,
,,6125ed1e651031550dfcad1a,65af569f30852ac05a101dec,2024-01-23_08h04.05.010,bars,2023.2.3,Win32,121.9512195,657b66ea316d21385b68909f,,,,,,,,,,,1050.8684,1051.8668,,,1052.3668,1052.6163,,84,84,,,,,,,,,,,,,,,,bars/030.png,bars/mask007.png,,,,,,,,,,,,1,2,,,,,,,4,4,4,4,,,,,,,,,,,1051.8668,1052.3668,1052.6163,1058.3156,space,5.6921,,1058.3156,56,19,1059.3162,1059.3163,1059.3338,,,,0,14,14,14,1,140,65,,,,,,,,
,,6125ed1e651031550dfcad1a,65af569f30852ac05a101dec,2024-01-23_08h04.05.010,bars,2023.2.3,Win32,121.9512195,657b66ea316d21385b68909f,,,,,,,,,,,1059.3341,1060.3326,,,1060.833,1061.0827,,15,15,,,,,,,,,,,,,,,,bars/039.png,bars/mask006.png,,,,,,,,,,,,2,1,,,,,,,6,2,6,3,,,,,,,,,,,1060.3327,1060.833,1061.0827,1061.5741,space,0.484,,1061.5743,20,90,1062.5737,1062.5737,1062.5762,,,,0,15,15,15,1,175,105,,,,,,,,
,,6125ed1e651031550dfcad1a,65af569f30852ac05a101dec,2024-01-23_08h04.05.010,bars,2023.2.3,Win32,121.9512195,657b66ea316d21385b68909f,,,,,,,,,,,1062.5766,1063.5742,,,1064.0741,1064.3238,,24,24,,,,,,,,,,,,,,,,bars/002.png,bars/mask004.png,,,,,,,,,,,,0,2,,,,,,,8,0,8,0,,,,,,,,,,,1063.5743,1064.0739,1064.3239,1066.1063,space,1.7767,,1066.1064,74,61,1067.1064,1067.1064,1067.1092,,,,0,16,16,16,1,130,85,,,,,,,,
,,6125ed1e651031550dfcad1a,65af569f30852ac05a101dec,2024-01-23_08h04.05.010,bars,2023.2.3,Win32,121.9512195,657b66ea316d21385b68909f,,,,,,,,,,,1067.1097,1068.1063,,,1068.6072,1068.8567,,33,33,,,,,,,,,,,,,,,,bars/008.png,bars/mask002.png,,,,,,,,,,,,0,2,,,,,,,6,2,6,3,,,,,,,,,,,1068.1065,1068.6071,1068.8567,1069.556,space,0.6934,,1069.5561,77,33,1070.5563,1070.5563,1070.5572,,,,0,17,17,17,1,110,0,,,,,,,,
,,6125ed1e651031550dfcad1a,65af569f30852ac05a101dec,2024-01-23_08h04.05.010,bars,2023.2.3,Win32,121.9512195,657b66ea316d21385b68909f,,,,,,,,,,,1070.5575,1071.556,,,1072.0519,1072.2978,,159,159,,,,,,,,,,,,,,,,bars/018.png,bars/mask007.png,,,,,,,,,,,,1,1,,,,,,,4,4,1,4,,,,,,,,,,,1071.5561,1072.0519,1072.2978,1080.9797,space,8.6744,,1080.9797,9,69,1081.9795,1081.9795,1081.9981,,,,0,18,18,18,1,150,90,,,,,,,,
,,6125ed1e651031550dfcad1a,65af569f30852ac05a101dec,2024-01-23_08h04.05.010,bars,2023.2.3,Win32,121.9512195,657b66ea316d21385b68909f,,,,,,,,,,,1081.9985,1083.0006,,,1083.4964,1083.7462,,24,24,,,,,,,,,,,,,,,,bars/037.png,bars/mask009.png,,,,,,,,,,,,0,1,,,,,,,2,2,3,3,,,,,,,,,,,1083.0006,1083.4963,1083.7464,1103.8106,space,20.0562,,1103.8107,54,81,1104.8099,1104.81,1104.8273,,,,0,19,19,19,1,150,105,,,,,,,,
,,6125ed1e651031550dfcad1a,65af569f30852ac05a101dec,2024-01-23_08h04.05.010,bars,2023.2.3,Win32,121.9512195,657b66ea316d21385b68909f,,,,,,,,,,,1104.8275,1105.8265,,,1106.3266,1106.5726,,92,92,,,,,,,,,,,,,,,,bars/049.png,bars/mask006.png,,,,,,,,,,,,1,2,,,,,,,0,4,1,3,,,,,,,,,,,1105.8265,1106.3265,1106.5726,1107.4178,space,0.8385,,1107.4179,68,23,1108.4179,1108.4181,1108.4204,,,,0,20,20,20,1,160,115,,,,,,,,
,,6125ed1e651031550dfcad1a,65af569f30852ac05a101dec,2024-01-23_08h04.05.010,bars,2023.2.3,Win32,121.9512195,657b66ea316d21385b68909f,,,,,,,,,,,1108.4208,1109.4176,,,1109.9179,1110.1678,,33,33,,,,,,,,,,,,,,,,bars/036.png,bars/mask009.png,,,,,,,,,,,,2,2,,,,,,,0,2,1,4,,,,,,,,,,,1109.4177,1109.9178,1110.1678,1110.7562,space,0.5825,,1110.7563,68,13,1111.7513,1111.7513,1111.7523,,,,0,21,21,21,1,145,20,,,,,,,,
,,6125ed1e651031550dfcad1a,65af569f30852ac05a101dec,2024-01-23_08h04.05.010,bars,2023.2.3,Win32,121.9512195,657b66ea316d21385b68909f,,,,,,,,,,,1111.7526,1112.7508,,,1113.2512,1113.5008,,41,41,,,,,,,,,,,,,,,,bars/049.png,bars/mask004.png,,,,,,,,,,,,0,1,,,,,,,2,0,3,1,,,,,,,,,,,1112.7509,1113.2511,1113.501,1114.0008,space,0.4937,,1114.0009,61,74,1115.0011,1115.0012,1115.0035,,,,0,22,22,22,1,160,115,,,,,,,,
,,6125ed1e651031550dfcad1a,65af569f30852ac05a101dec,2024-01-23_08h04.05.010,bars,2023.2.3,Win32,121.9512195,657b66ea316d21385b68909f,,,,,,,,,,,1115.0039,1116.0009,,,1116.5004,1116.7506,,170,170,,,,,,,,,,,,,,,,bars/019.png,bars/mask006.png,,,,,,,,,,,,0,1,,,,,,,0,2,0,4,,,,,,,,,,,1116.001,1116.5004,1116.7506,1117.3755,space,0.6184,,1117.3755,55,65,1118.375,1118.3751,1118.3764,,,,0,23,23,23,1,45,105,,,,,,,,
,,6125ed1e651031550dfcad1a,65af569f30852ac05a101dec,2024-01-23_08h04.05.010,bars,2023.2.3,Win32,121.9512195,657b66ea316d21385b68909f,,,,,,,,,,,1118.3767,1119.3752,,,1119.8751,1120.125,,71,71,,,,,,,,,,,,,,,,bars/027.png,bars/mask005.png,,,,,,,,,,,,1,2,,,,,,,2,4,2,4,,,,,,,,,,,1119.3753,1119.875,1120.125,1120.7253,space,0.5942,,1120.7254,39,21,1121.7247,1121.7247,1121.7265,,,,0,24,24,24,1,110,50,,,,,,,,
,,6125ed1e651031550dfcad1a,65af569f30852ac05a101dec,2024-01-23_08h04.05.010,bars,2023.2.3,Win32,121.9512195,657b66ea316d21385b68909f,,,,,,,,,,,1121.7269,1122.7247,,,1123.2251,1123.4782,,26,26,,,,,,,,,,,,,,,,bars/026.png,bars/mask008.png,,,,,,,,,,,,0,1,,,,,,,0,6,0,4,,,,,,,,,,,1122.7248,1123.225,1123.4782,1124.0162,space,0.5304,,1124.0162,9,59,1125.016,1125.016,1125.0186,,,,0,25,25,25,1,35,85,,,,,,,,
,,6125ed1e651031550dfcad1a,65af569f30852ac05a101dec,2024-01-23_08h04.05.010,bars,2023.2.3,Win32,121.9512195,657b66ea316d21385b68909f,,,,,,,,,,,1125.019,1126.0154,,,1126.5156,1126.7656,,124,124,,,,,,,,,,,,,,,,bars/024.png,bars/mask003.png,,,,,,,,,,,,1,1,,,,,,,0,8,1,8,,,,,,,,,,,1126.0155,1126.5155,1126.7657,1127.2319,space,0.459,,1127.232,4,46,1128.2323,1128.2324,1128.2331,,,,0,26,26,26,1,120,170,,,,,,,,
,,6125ed1e651031550dfcad1a,65af569f30852ac05a101dec,2024-01-23_08h04.05.010,bars,2023.2.3,Win32,121.9512195,657b66ea316d21385b68909f,,,,,,,,,,,1128.2335,1129.2321,,,1129.7316,1129.9823,,0,0,,,,,,,,,,,,,,,,bars/044.png,bars/mask009.png,,,,,,,,,,,,1,2,,,,,,,0,6,0,8,,,,,,,,,,,1129.2321,1129.7316,1129.9823,1145.3304,space,15.339,,1145.3305,75,25,1146.3297,1146.33,1146.3325,,,,0,27,27,27,1,75,155,,,,,,,,
,,6125ed1e651031550dfcad1a,65af569f30852ac05a101dec,2024-01-23_08h04.05.010,bars,2023.2.3,Win32,121.9512195,657b66ea316d21385b68909f,,,,,,,,,,,1146.3329,1147.3296,,,1147.8299,1148.0801,,27,27,,,,,,,,,,,,,,,,bars/045.png,bars/mask009.png,,,,,,,,,,,,1,2,,,,,,,2,4,1,3,,,,,,,,,,,1147.3296,1147.8299,1148.0802,1148.5134,space,0.4196,,1148.5135,73,17,1149.5129,1149.5129,1149.5142,,,,0,28,28,28,1,100,10,,,,,,,,
,,6125ed1e651031550dfcad1a,65af569f30852ac05a101dec,2024-01-23_08h04.05.010,bars,2023.2.3,Win32,121.9512195,657b66ea316d21385b68909f,,,,,,,,,,,1149.5148,1150.5127,,,1151.0125,1151.2624,,103,103,,,,,,,,,,,,,,,,bars/005.png,bars/mask009.png,,,,,,,,,,,,0,2,,,,,,,4,6,3,4,,,,,,,,,,,1150.5128,1151.0124,1151.2625,1156.2784,space,5.0095,,1156.2785,87,37,1157.2784,1157.2785,1157.2929,,,,0,29,29,29,1,10,140,,,,,,,,
,,6125ed1e651031550dfcad1a,65af569f30852ac05a101dec,2024-01-23_08h04.05.010,bars,2023.2.3,Win32,121.9512195,657b66ea316d21385b68909f,,,,,,,,,,,1157.2931,1158.2952,,,1158.7951,1159.0445,,32,32,,,,,,,,,,,,,,,,bars/009.png,bars/mask002.png,,,,,,,,,,,,0,1,,,,,,,2,4,1,5,,,,,,,,,,,1158.2952,1158.7951,1159.0446,1159.6947,space,0.6431,,1159.6948,17,73,1160.6952,1160.6953,1160.6977,,,,0,30,30,30,1,15,105,,,,,,,,
,,6125ed1e651031550dfcad1a,65af569f30852ac05a101dec,2024-01-23_08h04.05.010,bars,2023.2.3,Win32,121.9512195,657b66ea316d21385b68909f,,,,,,,,,,,1160.6981,1161.6947,,,1162.1948,1162.4451,,112,112,,,,,,,,,,,,,,,,bars/038.png,bars/mask005.png,,,,,,,,,,,,0,2,,,,,,,4,6,4,6,,,,,,,,,,,1161.6948,1162.1948,1162.4451,1162.9114,space,0.4522,,1162.9114,53,42,1163.9108,1163.9109,1163.9134,,,,0,31,31,31,1,165,70,,,,,,,,
,,6125ed1e651031550dfcad1a,65af569f30852ac05a101dec,2024-01-23_08h04.05.010,bars,2023.2.3,Win32,121.9512195,657b66ea316d21385b68909f,,,,,,,,,,,1163.9137,1164.9109,,,1165.4113,1165.6607,,115,115,,,,,,,,,,,,,,,,bars/031.png,bars/mask001.png,,,,,,,,,,,,4,1,,,,,,,6,4,5,5,,,,,,,,,,,1164.911,1165.4113,1165.6607,1166.1272,space,0.459,,1166.1274,5,80,1167.1271,1167.1272,1167.1294,,,,0,32,32,32,1,120,35,,,,,,,,
,,6125ed1e651031550dfcad1a,65af569f30852ac05a101dec,2024-01-23_08h04.05.010,bars,2023.2.3,Win32,121.9512195,657b66ea316d21385b68909f,,,,,,,,,,,1167.1296,1168.1271,,,1168.6268,1168.8771,,120,120,,,,,,,,,,,,,,,,bars/012.png,bars/mask003.png,,,,,,,,,,,,0,1,,,,,,,8,6,9,8,,,,,,,,,,,1168.1271,1168.6267,1168.8771,1169.53,space,0.6462,,1169.53,30,75,1170.5265,1170.5266,1170.5276,,,,0,33,33,33,1,90,15,,,,,,,,
,,6125ed1e651031550dfcad1a,65af569f30852ac05a101dec,2024-01-23_08h04.05.010,bars,2023.2.3,Win32,121.9512195,657b66ea316d21385b68909f,,,,,,,,,,,1170.528,1171.5264,,,1172.0262,1172.2761,,65,65,,,,,,,,,,,,,,,,bars/036.png,bars/mask009.png,,,,,,,,,,,,0,2,,,,,,,6,8,6,7,,,,,,,,,,,1171.5265,1172.0262,1172.2761,1172.8181,space,0.5351,,1172.8182,80,45,1173.8179,1173.8179,1173.8204,,,,0,34,34,34,1,145,20,,,,,,,,
,,6125ed1e651031550dfcad1a,65af569f30852ac05a101dec,2024-01-23_08h04.05.010,bars,2023.2.3,Win32,121.9512195,657b66ea316d21385b68909f,,,,,,,,,,,1173.8208,1174.8177,,,1175.3175,1175.5675,,62,62,,,,,,,,,,,,,,,,bars/045.png,bars/mask003.png,,,,,,,,,,,,0,1,,,,,,,4,10,5,10,,,,,,,,,,,1174.8177,1175.3175,1175.5675,1176.1262,space,0.552,,1176.1262,38,52,1177.1257,1177.1258,1177.1283,,,,0,35,35,35,1,100,10,,,,,,,,
,,6125ed1e651031550dfcad1a,65af569f30852ac05a101dec,2024-01-23_08h04.05.010,bars,2023.2.3,Win32,121.9512195,657b66ea316d21385b68909f,,,,,,,,,,,1177.1287,1178.1255,,,1178.6253,1178.8804,,94,94,,,,,,,,,,,,,,,,bars/043.png,bars/mask004.png,,,,,,,,,,,,0,2,,,,,,,6,10,6,10,,,,,,,,,,,1178.1255,1178.6253,1178.8804,1179.4639,space,0.5777,,1179.4639,64,36,1180.4586,1180.4586,1180.4608,,,,0,36,36,36,1,30,130,,,,,,,,
,,6125ed1e651031550dfcad1a,65af569f30852ac05a101dec,2024-01-23_08h04.05.010,bars,2023.2.3,Win32,121.9512195,657b66ea316d21385b68909f,,,,,,,,,,,1180.4611,1181.4609,,,1181.9589,1182.2083,,63,63,,,,,,,,,,,,,,,,bars/045.png,bars/mask009.png,,,,,,,,,,,,0,1,,,,,,,8,8,8,7,,,,,,,,,,,1181.461,1181.9589,1182.2084,1182.7418,space,0.5267,,1182.742,37,53,1183.7422,1183.7422,1183.7443,,,,0,37,37,37,1,100,10,,,,,,,,
,,6125ed1e651031550dfcad1a,65af569f30852ac05a101dec,2024-01-23_08h04.05.010,bars,2023.2.3,Win32,121.9512195,657b66ea316d21385b68909f,,,,,,,,,,,1183.7447,1184.7415,,,1185.2417,1185.4916,,21,21,,,,,,,,,,,,,,,,bars/029.png,bars/mask001.png,,,,,,,,,,,,2,2,,,,,,,10,10,10,10,,,,,,,,,,,1184.7417,1185.2416,1185.4916,1185.9165,space,0.4174,,1185.9166,69,24,1186.9162,1186.9164,1186.9188,,,,0,38,38,38,1,90,45,,,,,,,,
,,6125ed1e651031550dfcad1a,65af569f30852ac05a101dec,2024-01-23_08h04.05.010,bars,2023.2.3,Win32,121.9512195,657b66ea316d21385b68909f,,,,,,,,,,,1186.9193,1187.916,,,1188.4161,1188.6659,,127,127,,,,,,,,,,,,,,,,bars/038.png,bars/mask000.png,,,,,,,,,,,,0,1,,,,,,,8,10,7,10,,,,,,,,,,,1187.916,1188.416,1188.666,1189.1715,space,0.4996,,1189.1715,38,57,1190.1656,1190.1656,1190.1682,,,,0,39,39,39,1,165,70,,,,,,,,
,,6125ed1e651031550dfcad1a,65af569f30852ac05a101dec,2024-01-23_08h04.05.010,bars,2023.2.3,Win32,121.9512195,657b66ea316d21385b68909f,,,,,,,,,,,1190.1686,1191.166,,,1191.6658,1191.916,,23,23,,,,,,,,,,,,,,,,bars/011.png,bars/mask005.png,,,,,,,,,,,,0,1,,,,,,,6,10,8,9,,,,,,,,,,,1191.166,1191.6658,1191.916,1192.3822,space,0.4535,,1192.3822,43,62,1193.3823,1193.3823,1193.3835,,,,0,40,40,40,1,160,85,,,,,,,,
,,6125ed1e651031550dfcad1a,65af569f30852ac05a101dec,2024-01-23_08h04.05.010,bars,2023.2.3,Win32,121.9512195,657b66ea316d21385b68909f,,,,,,,,,,,1193.3838,1194.3817,,,1194.8821,1195.1322,,98,98,,,,,,,,,,,,,,,,bars/014.png,bars/mask007.png,,,,,,,,,,,,3,1,,,,,,,8,10,8,10,,,,,,,,,,,1194.3818,1194.882,1195.1322,1195.6237,space,0.4832,,1195.6238,18,82,1196.6196,1196.6197,1196.6205,,,,0,41,41,41,1,80,0,,,,,,,,
,,6125ed1e651031550dfcad1a,65af569f30852ac05a101dec,2024-01-23_08h04.05.010,bars,2023.2.3,Win32,121.9512195,657b66ea316d21385b68909f,,,,,,,,,,,1196.6208,1197.6152,,,1198.1152,1198.3649,,85,85,,,,,,,,,,,,,,,,bars/047.png,bars/mask002.png,,,,,,,,,,,,4,2,,,,,,,6,8,4,7,,,,,,,,,,,1197.6152,1198.1151,1198.3649,1198.8565,space,0.484,,1198.8566,70,15,1199.8564,1199.8565,1199.8586,,,,0,42,42,42,1,15,70,,,,,,,,
,,6125ed1e651031550dfcad1a,65af569f30852ac05a101dec,2024-01-23_08h04.05.010,bars,2023.2.3,Win32,121.9512195,657b66ea316d21385b68909f,,,,,,,,,,,1199.8589,1200.8563,,,1201.3558,1201.6055,,0,0,,,,,,,,,,,,,,,,bars/019.png,bars/mask006.png,,,,,,,,,,,,0,1,,,,,,,8,6,10,7,,,,,,,,,,,1200.8564,1201.3558,1201.6055,1202.0312,space,0.4188,,1202.0313,45,75,1203.0308,1203.0309,1203.0331,,,,0,43,43,43,1,45,105,,,,,,,,
,,6125ed1e651031550dfcad1a,65af569f30852ac05a101dec,2024-01-23_08h04.05.010,bars,2023.2.3,Win32,121.9512195,657b66ea316d21385b68909f,,,,,,,,,,,1203.0334,1204.0313,,,1204.5264,1204.7721,,133,133,,,,,,,,,,,,,,,,bars/005.png,bars/mask001.png,,,,,,,,,,,,2,2,,,,,,,10,4,10,3,,,,,,,,,,,1204.0314,1204.5263,1204.7722,1205.1905,space,0.4097,,1205.1905,57,7,1206.1892,1206.1892,1206.1916,,,,0,44,44,44,1,10,140,,,,,,,,
,,6125ed1e651031550dfcad1a,65af569f30852ac05a101dec,2024-01-23_08h04.05.010,bars,2023.2.3,Win32,121.9512195,657b66ea316d21385b68909f,,,,,,,,,,,1206.1919,1207.1884,,,1207.6833,1207.9305,,56,56,,,,,,,,,,,,,,,,bars/003.png,bars/mask003.png,,,,,,,,,,,,0,1,,,,,,,10,2,10,1,,,,,,,,,,,1207.1884,1207.6832,1207.9306,1208.0641,space,0.126,,1208.0642,31,84,1209.0631,1209.0631,1209.0655,,,,0,45,45,45,1,25,140,,,,,,,,
,,6125ed1e651031550dfcad1a,65af569f30852ac05a101dec,2024-01-23_08h04.05.010,bars,2023.2.3,Win32,121.9512195,657b66ea316d21385b68909f,,,,,,,,,,,1209.0658,1210.0629,,,1210.5633,1210.8084,,123,123,,,,,,,,,,,,,,,,bars/021.png,bars/mask005.png,,,,,,,,,,,,0,1,,,,,,,8,0,10,0,,,,,,,,,,,1210.063,1210.5632,1210.8084,1211.2637,space,0.4497,,1211.2638,32,53,1212.2633,1212.2634,1212.2642,,,,0,46,46,46,1,155,70,,,,,,,,
,,6125ed1e651031550dfcad1a,65af569f30852ac05a101dec,2024-01-23_08h04.05.010,bars,2023.2.3,Win32,121.9512195,657b66ea316d21385b68909f,,,,,,,,,,,1212.2646,1213.2629,,,1213.7629,1214.0129,,104,104,,,,,,,,,,,,,,,,bars/021.png,bars/mask005.png,,,,,,,,,,,,0,2,,,,,,,10,0,10,0,,,,,,,,,,,1213.2629,1213.7628,1214.0129,1214.4464,space,0.4266,,1214.4464,51,34,1215.4456,1215.4456,1215.4476,,,,0,47,47,47,1,155,70,,,,,,,,
,,6125ed1e651031550dfcad1a,65af569f30852ac05a101dec,2024-01-23_08h04.05.010,bars,2023.2.3,Win32,121.9512195,657b66ea316d21385b68909f,,,,,,,,,,,1215.4479,1216.446,,,1216.9455,1217.1905,,68,68,,,,,,,,,,,,,,,,bars/018.png,bars/mask003.png,,,,,,,,,,,,0,2,,,,,,,10,0,10,0,,,,,,,,,,,1216.4461,1216.9454,1217.1905,1217.7041,space,0.5066,,1217.7041,82,22,1218.7038,1218.7038,1218.7046,,,,0,48,48,48,1,150,90,,,,,,,,
,,6125ed1e651031550dfcad1a,65af569f30852ac05a101dec,2024-01-23_08h04.05.010,bars,2023.2.3,Win32,121.9512195,657b66ea316d21385b68909f,,,,,,,,,,,1218.705,1219.7038,,,1220.2039,1220.4536,,3,3,,,,,,,,,,,,,,,,bars/042.png,bars/mask004.png,,,,,,,,,,,,0,1,,,,,,,10,0,10,0,,,,,,,,,,,1219.7038,1220.2038,1220.4537,1221.0283,space,0.5672,,1221.0284,38,72,1222.0285,1222.0286,1222.0308,,,,0,49,49,49,1,145,75,,,,,,,,
,,6125ed1e651031550dfcad1a,65af569f30852ac05a101dec,2024-01-23_08h04.05.010,bars,2023.2.3,Win32,121.9512195,657b66ea316d21385b68909f,,,,,,,,,,,,,,,,,,,,,,,,,,,,,,,,,,,,,,,,,,,,,,,,,,,,,,,,,,,,,,,,,,,,,,,,,,,,,,,,,,,,,,,,,,,,,1222.031,1282.0292,0,3,3,0,1,sequence_tables/blk018.csv
,,6125ed1e651031550dfcad1a,65af569f30852ac05a101dec,2024-01-23_08h04.05.010,bars,2023.2.3,Win32,121.9512195,657b66ea316d21385b68909f,,,,,,,,,,,1283.8781,1284.8786,,,1285.3787,1285.6287,,26,26,,,,,,,,,,,,,,,,bars/002.png,bars/mask008.png,,,,,,,,,,,,0,2,,,,,,,4,1,3,0,,,,,,1282.0476,1283.8708,space,1.8143,,1284.8787,1285.3787,1285.6288,1286.8117,space,1.177,,1286.8118,76,59,1287.8117,1287.8118,1287.815,,,,0,0,0,0,1,130,85,,,,,,,,
,,6125ed1e651031550dfcad1a,65af569f30852ac05a101dec,2024-01-23_08h04.05.010,bars,2023.2.3,Win32,121.9512195,657b66ea316d21385b68909f,,,,,,,,,,,1287.8154,1288.8113,,,1289.3116,1289.5616,,165,165,,,,,,,,,,,,,,,,bars/034.png,bars/mask002.png,,,,,,,,,,,,0,1,,,,,,,6,0,5,0,,,,,,,,,,,1288.8114,1289.3115,1289.5617,1291.6116,space,2.0421,,1291.6117,40,80,1292.6107,1292.6108,1292.629,,,,0,1,1,1,1,125,65,,,,,,,,
,,6125ed1e651031550dfcad1a,65af569f30852ac05a101dec,2024-01-23_08h04.05.010,bars,2023.2.3,Win32,121.9512195,657b66ea316d21385b68909f,,,,,,,,,,,1292.6293,1293.6275,,,1294.1279,1294.3775,,134,134,,,,,,,,,,,,,,,,bars/007.png,bars/mask004.png,,,,,,,,,,,,0,1,,,,,,,4,0,4,3,,,,,,,,,,,1293.6276,1294.1279,1294.3776,1295.0693,space,0.6777,,1295.0693,41,79,1296.0688,1296.0689,1296.0699,,,,0,2,2,2,1,175,55,,,,,,,,
,,6125ed1e651031550dfcad1a,65af569f30852ac05a101dec,2024-01-23_08h04.05.010,bars,2023.2.3,Win32,121.9512195,657b66ea316d21385b68909f,,,,,,,,,,,1296.0702,1297.0686,,,1297.5687,1297.8187,,15,15,,,,,,,,,,,,,,,,bars/030.png,bars/mask009.png,,,,,,,,,,,,0,2,,,,,,,2,2,3,1,,,,,,,,,,,1297.0687,1297.5686,1297.8187,1298.4887,space,0.6643,,1298.4888,55,50,1299.485,1299.4851,1299.4874,,,,0,3,3,3,1,140,65,,,,,,,,
,,6125ed1e651031550dfcad1a,65af569f30852ac05a101dec,2024-01-23_08h04.05.010,bars,2023.2.3,Win32,121.9512195,657b66ea316d21385b68909f,,,,,,,,,,,1299.4878,1300.4854,,,1300.989,1301.2351,,125,125,,,,,,,,,,,,,,,,bars/028.png,bars/mask006.png,,,,,,,,,,,,3,2,,,,,,,4,4,4,4,,,,,,,,,,,1300.4855,1300.989,1301.2351,1301.718,space,0.4752,,1301.7181,80,5,1302.7188,1302.7188,1302.7196,,,,0,4,4,4,1,45,120,,,,,,,,
,,6125ed1e651031550dfcad1a,65af569f30852ac05a101dec,2024-01-23_08h04.05.010,bars,2023.2.3,Win32,121.9512195,657b66ea316d21385b68909f,,,,,,,,,,,1302.7199,1303.7183,,,1304.2225,1304.4678,,47,47,,,,,,,,,,,,,,,,bars/009.png,bars/mask004.png,,,,,,,,,,,,0,1,,,,,,,2,6,2,6,,,,,,,,,,,1303.7183,1304.2224,1304.4678,1304.993,space,0.5116,,1304.993,32,58,1305.9929,1305.993,1305.9953,,,,0,5,5,5,1,15,105,,,,,,,,
,,6125ed1e651031550dfcad1a,65af569f30852ac05a101dec,2024-01-23_08h04.05.010,bars,2023.2.3,Win32,121.9512195,657b66ea316d21385b68909f,,,,,,,,,,,1305.9957,1306.9926,,,1307.4928,1307.7389,,29,29,,,,,,,,,,,,,,,,bars/009.png,bars/mask009.png,,,,,,,,,,,,3,1,,,,,,,4,4,5,4,,,,,,,,,,,1306.9927,1307.4928,1307.7389,1308.3174,space,0.5718,,1308.3174,14,76,1309.317,1309.3171,1309.318,,,,0,6,6,6,1,15,105,,,,,,,,
,,6125ed1e651031550dfcad1a,65af569f30852ac05a101dec,2024-01-23_08h04.05.010,bars,2023.2.3,Win32,121.9512195,657b66ea316d21385b68909f,,,,,,,,,,,1309.3183,1310.317,,,1310.817,1311.0667,,49,49,,,,,,,,,,,,,,,,bars/016.png,bars/mask002.png,,,,,,,,,,,,1,1,,,,,,,2,6,1,5,,,,,,,,,,,1310.317,1310.8168,1311.0668,1311.5507,space,0.4774,,1311.5508,9,64,1312.5506,1312.5507,1312.5515,,,,0,7,7,7,1,40,165,,,,,,,,
,,6125ed1e651031550dfcad1a,65af569f30852ac05a101dec,2024-01-23_08h04.05.010,bars,2023.2.3,Win32,121.9512195,657b66ea316d21385b68909f,,,,,,,,,,,1312.5518,1313.5503,,,1314.0503,1314.3003,,29,29,,,,,,,,,,,,,,,,bars/002.png,bars/mask000.png,,,,,,,,,,,,0,2,,,,,,,0,4,0,5,,,,,,,,,,,1313.5503,1314.0502,1314.3003,1314.8165,space,0.509,,1314.8165,79,56,1315.8163,1315.8163,1315.8183,,,,0,8,8,8,1,130,85,,,,,,,,
,,6125ed1e651031550dfcad1a,65af569f30852ac05a101dec,2024-01-23_08h04.05.010,bars,2023.2.3,Win32,121.9512195,657b66ea316d21385b68909f,,,,,,,,,,,1315.8186,1316.816,,,1317.3163,1317.5711,,40,40,,,,,,,,,,,,,,,,bars/039.png,bars/mask009.png,,,,,,,,,,,,0,1,,,,,,,2,6,3,5,,,,,,,,,,,1316.8161,1317.3163,1317.5711,1318.1578,space,0.5797,,1318.1579,45,65,1319.1574,1319.1574,1319.1605,,,,0,9,9,9,1,175,105,,,,,,,,
,,6125ed1e651031550dfcad1a,65af569f30852ac05a101dec,2024-01-23_08h04.05.010,bars,2023.2.3,Win32,121.9512195,657b66ea316d21385b68909f,,,,,,,,,,,1319.1609,1320.1572,,,1320.6571,1320.9075,,10,10,,,,,,,,,,,,,,,,bars/016.png,bars/mask008.png,,,,,,,,,,,,1,2,,,,,,,4,8,7,8,,,,,,,,,,,1320.1573,1320.6571,1320.9075,1321.4504,space,0.5302,,1321.4505,30,25,1322.4487,1322.4488,1322.451,,,,0,10,10,10,1,40,165,,,,,,,,
,,6125ed1e651031550dfcad1a,65af569f30852ac05a101dec,2024-01-23_08h04.05.010,bars,2023.2.3,Win32,121.9512195,657b66ea316d21385b68909f,,,,,,,,,,,1322.4513,1323.4487,,,1323.9485,1324.1983,,3,3,,,,,,,,,,,,,,,,bars/002.png,bars/mask001.png,,,,,,,,,,,,0,1,,,,,,,2,10,3,8,,,,,,,,,,,1323.4488,1323.9485,1324.1983,1324.7232,space,0.5181,,1324.7233,53,82,1325.7233,1325.7234,1325.7261,,,,0,11,11,11,1,130,85,,,,,,,,
,,6125ed1e651031550dfcad1a,65af569f30852ac05a101dec,2024-01-23_08h04.05.010,bars,2023.2.3,Win32,121.9512195,657b66ea316d21385b68909f,,,,,,,,,,,1325.7263,1326.7232,,,1327.2231,1327.4735,,140,140,,,,,,,,,,,,,,,,bars/015.png,bars/mask006.png,,,,,,,,,,,,3,2,,,,,,,0,10,2,10,,,,,,,,,,,1326.7233,1327.2231,1327.4735,1328.1064,space,0.6254,,1328.1064,30,20,1329.1061,1329.1062,1329.1085,,,,0,12,12,12,1,110,160,,,,,,,,
,,6125ed1e651031550dfcad1a,65af569f30852ac05a101dec,2024-01-23_08h04.05.010,bars,2023.2.3,Win32,121.9512195,657b66ea316d21385b68909f,,,,,,,,,,,1329.1089,1330.106,,,1330.6057,1330.856,,28,28,,,,,,,,,,,,,,,,bars/019.png,bars/mask002.png,,,,,,,,,,,,1,1,,,,,,,2,8,2,8,,,,,,,,,,,1330.1061,1330.6057,1330.856,1331.4893,space,0.6265,,1331.4893,17,77,1332.4891,1332.4892,1332.4916,,,,0,13,13,13,1,45,105,,,,,,,,
