init_variables.started,init_variables.stopped,participant,session,date,expName,psychopyVersion,OS,frameRate,study_id,instruction_exp.started,instruction_exp.stopped,key_resp_8.keys,key_resp_8.rt,key_resp_8.duration,instruction_single.started,instruction_single.stopped,key_resp_2.keys,key_resp_2.rt,key_resp_2.duration,interval.started,interval.stopped,cue_single.started,cue_single.stopped,mask.started,mask.stopped,ori_response_single.started,res_ori,res,ori_response_single.stopped,key_resp_single.keys,key_resp_single.rt,key_resp_single.duration,disp_single.started,disp_single.stopped,key_resp.keys,key_resp.rt,key_resp.duration,single.thisRepN,single.thisTrialN,single.thisN,single.thisIndex,single.ran,ori,path,mask_path,instruction_bandit.started,instruction_bandit.stopped,key_resp_6.keys,key_resp_6.rt,key_resp_6.duration,cue_bandit.started,cue_bandit.stopped,bandit_res.keys,bandit_res.rt,bandit_res.duration,outcome_bandit.started,rew,action,outcome_bandit.stopped,bandit.thisRepN,bandit.thisTrialN,bandit.thisN,bandit.thisIndex,bandit.ran,actual_rew1,actual_rew2,rew1,rew2,instruction_task.started,instruction_task.stopped,key_resp_7.keys,key_resp_7.rt,key_resp_7.duration,wait_ready.started,wait_ready.stopped,key_resp_3.keys,key_resp_3.rt,key_resp_3.duration,cue.started,cue.stopped,ori_response.started,ori_response.stopped,key_resp_5.keys,key_resp_5.rt,key_resp_5.duration,outcome.started,diff1,diff2,outcome.stopped,disp_outcome_practice.started,disp_outcome_practice.stopped,key_resp_4.keys,key_resp_4.rt,key_resp_4.duration,trials.thisRepN,trials.thisTrialN,trials.thisN,trials.thisIndex,trials.ran,ori1,ori2,break_blk.started,break_blk.stopped,block.thisRepN,block.thisTrialN,block.thisN,block.thisIndex,block.ran,condition_file
0.0002,0.0004,6580b24b0593cdbf4ce9449d,65af5532048963a67ab614d6,2024-01-22_23h58.12.853,bars,2023.2.3,Win32,59.88023952,657b66ea316d21385b68909f,,,,,,,,,,,,,,,,,,,,,,,,,,,,,,,,,,,,,,,,,,,,,,,,,,,,,,,,,,,,,,,,,,,,,,,,,,,,,,,,,,,,,,,,,,,,,,,,,,,,
,,6580b24b0593cdbf4ce9449d,65af5532048963a67ab614d6,2024-01-22_23h58.12.853,bars,2023.2.3,Win32,59.88023952,657b66ea316d21385b68909f,0.0006,436.1371,y,436.1173,,,,,,,,,,,,,,,,,,,,,,,,,,,,,,,,,,,,,,,,,,,,,,,,,,,,,,,,,,,,,,,,,,,,,,,,,,,,,,,,,,,,,,,,,,,,,,,,
,,6580b24b0593cdbf4ce9449d,65af5532048963a67ab614d6,2024-01-22_23h58.12.853,bars,2023.2.3,Win32,59.88023952,657b66ea316d21385b68909f,,,,,,436.1373,443.7593,space,7.6087,,,,,,,,,,,,,,,,,,,,,,,,,,,,,,,,,,,,,,,,,,,,,,,,,,,,,,,,,,,,,,,,,,,,,,,,,,,,,,,,,,,,,,,,,,,
,,6580b24b0593cdbf4ce9449d,65af5532048963a67ab614d6,2024-01-22_23h58.12.853,bars,2023.2.3,Win32,59.88023952,657b66ea316d21385b68909f,,,,,,,,,,,443.764,444.768,444.7682,445.2675,445.2676,445.5177,445.5179,149,149,461.9485,space,16.4007,,461.9486,476.1785,space,14.2004,,0,0,0,0,1,150,bars/single000.png,bars/mask006.png,,,,,,,,,,,,,,,,,,,,,,,,,,,,,,,,,,,,,,,,,,,,,,,,,,,,,,,,,,,,,,,,
,,6580b24b0593cdbf4ce9449d,65af5532048963a67ab614d6,2024-01-22_23h58.12.853,bars,2023.2.3,Win32,59.88023952,657b66ea316d21385b68909f,,,,,,,,,,,476.1876,477.1776,477.1777,477.6779,477.6779,477.9278,477.9278,32,32,487.4757,space,9.5401,,487.4757,496.1572,space,8.6642,,0,1,1,3,1,20,bars/single003.png,bars/mask005.png,,,,,,,,,,,,,,,,,,,,,,,,,,,,,,,,,,,,,,,,,,,,,,,,,,,,,,,,,,,,,,,,
,,6580b24b0593cdbf4ce9449d,65af5532048963a67ab614d6,2024-01-22_23h58.12.853,bars,2023.2.3,Win32,59.88023952,657b66ea316d21385b68909f,,,,,,,,,,,496.1664,497.1569,497.1569,497.6571,497.6573,497.9069,497.907,168,168,504.2889,space,6.3655,,504.2889,506.8882,space,2.5728,,0,2,2,6,1,175,bars/single006.png,bars/mask005.png,,,,,,,,,,,,,,,,,,,,,,,,,,,,,,,,,,,,,,,,,,,,,,,,,,,,,,,,,,,,,,,,
,,6580b24b0593cdbf4ce9449d,65af5532048963a67ab614d6,2024-01-22_23h58.12.853,bars,2023.2.3,Win32,59.88023952,657b66ea316d21385b68909f,,,,,,,,,,,506.8886,507.8883,507.8883,508.3879,508.3879,508.6382,508.6383,7,187,512.6376,space,3.9911,,512.6377,517.37,space,4.7045,,0,3,3,8,1,160,bars/single008.png,bars/mask004.png,,,,,,,,,,,,,,,,,,,,,,,,,,,,,,,,,,,,,,,,,,,,,,,,,,,,,,,,,,,,,,,,
,,6580b24b0593cdbf4ce9449d,65af5532048963a67ab614d6,2024-01-22_23h58.12.853,bars,2023.2.3,Win32,59.88023952,657b66ea316d21385b68909f,,,,,,,,,,,517.3781,518.3693,518.3695,518.8691,518.8691,519.119,519.1191,129,129,523.6519,space,4.5168,,523.6519,526.2851,space,2.6058,,0,4,4,2,1,145,bars/single002.png,bars/mask003.png,,,,,,,,,,,,,,,,,,,,,,,,,,,,,,,,,,,,,,,,,,,,,,,,,,,,,,,,,,,,,,,,
,,6580b24b0593cdbf4ce9449d,65af5532048963a67ab614d6,2024-01-22_23h58.12.853,bars,2023.2.3,Win32,59.88023952,657b66ea316d21385b68909f,,,,,,,,,,,526.2855,527.2842,527.2842,527.7841,527.7842,528.0338,528.0338,107,107,532.6497,space,4.6079,,532.6499,536.7494,space,4.0721,,0,5,5,4,1,95,bars/single004.png,bars/mask004.png,,,,,,,,,,,,,,,,,,,,,,,,,,,,,,,,,,,,,,,,,,,,,,,,,,,,,,,,,,,,,,,,
,,6580b24b0593cdbf4ce9449d,65af5532048963a67ab614d6,2024-01-22_23h58.12.853,bars,2023.2.3,Win32,59.88023952,657b66ea316d21385b68909f,,,,,,,,,,,536.7579,537.7485,537.7486,538.2491,538.2491,538.4985,538.4985,80,260,543.631,space,5.1154,,543.631,545.0138,space,1.3587,,0,6,6,5,1,55,bars/single005.png,bars/mask008.png,,,,,,,,,,,,,,,,,,,,,,,,,,,,,,,,,,,,,,,,,,,,,,,,,,,,,,,,,,,,,,,,
,,6580b24b0593cdbf4ce9449d,65af5532048963a67ab614d6,2024-01-22_23h58.12.853,bars,2023.2.3,Win32,59.88023952,657b66ea316d21385b68909f,,,,,,,,,,,545.014,546.0135,546.0135,546.5135,546.5136,546.7634,546.7635,47,47,548.5131,space,1.733,,548.5131,552.079,space,3.5483,,0,7,7,7,1,45,bars/single007.png,bars/mask009.png,,,,,,,,,,,,,,,,,,,,,,,,,,,,,,,,,,,,,,,,,,,,,,,,,,,,,,,,,,,,,,,,
,,6580b24b0593cdbf4ce9449d,65af5532048963a67ab614d6,2024-01-22_23h58.12.853,bars,2023.2.3,Win32,59.88023952,657b66ea316d21385b68909f,,,,,,,,,,,552.0872,553.079,553.079,553.5787,553.5787,553.8283,553.8283,35,215,559.7109,space,5.8718,,559.7109,562.777,space,3.0386,,0,8,8,9,1,20,bars/single009.png,bars/mask006.png,,,,,,,,,,,,,,,,,,,,,,,,,,,,,,,,,,,,,,,,,,,,,,,,,,,,,,,,,,,,,,,,
,,6580b24b0593cdbf4ce9449d,65af5532048963a67ab614d6,2024-01-22_23h58.12.853,bars,2023.2.3,Win32,59.88023952,657b66ea316d21385b68909f,,,,,,,,,,,562.7774,563.7764,563.7764,564.2767,564.2767,564.5261,564.5262,164,-16,570.0922,space,5.5502,,570.0923,572.3749,space,2.2588,,0,9,9,1,1,20,bars/single001.png,bars/mask006.png,,,,,,,,,,,,,,,,,,,,,,,,,,,,,,,,,,,,,,,,,,,,,,,,,,,,,,,,,,,,,,,,
,,6580b24b0593cdbf4ce9449d,65af5532048963a67ab614d6,2024-01-22_23h58.12.853,bars,2023.2.3,Win32,59.88023952,657b66ea316d21385b68909f,,,,,,,,,,,,,,,,,,,,,,,,,,,,,,,,,,,,,572.3759,580.6734,space,8.2826,,,,,,,,,,,,,,,,,,,,,,,,,,,,,,,,,,,,,,,,,,,,,,,,,,,,,,,,,,,,
,,6580b24b0593cdbf4ce9449d,65af5532048963a67ab614d6,2024-01-22_23h58.12.853,bars,2023.2.3,Win32,59.88023952,657b66ea316d21385b68909f,,,,,,,,,,,,,,,,,,,,,,,,,,,,,,,,,,,,,,,,,,580.6839,586.1561,right,5.4551,,586.1562,2,2,587.155,0,0,0,0,1,9,1,9,2,,,,,,,,,,,,,,,,,,,,,,,,,,,,,,,,,,,,,,,,,
,,6580b24b0593cdbf4ce9449d,65af5532048963a67ab614d6,2024-01-22_23h58.12.853,bars,2023.2.3,Win32,59.88023952,657b66ea316d21385b68909f,,,,,,,,,,,,,,,,,,,,,,,,,,,,,,,,,,,,,,,,,,587.1555,589.0047,right,1.8419,,589.0048,1,2,590.0046,0,1,1,1,1,10,0,10,1,,,,,,,,,,,,,,,,,,,,,,,,,,,,,,,,,,,,,,,,,
,,6580b24b0593cdbf4ce9449d,65af5532048963a67ab614d6,2024-01-22_23h58.12.853,bars,2023.2.3,Win32,59.88023952,657b66ea316d21385b68909f,,,,,,,,,,,,,,,,,,,,,,,,,,,,,,,,,,,,,,,,,,590.013,591.7875,right,1.7589,,591.7876,2,2,592.7874,0,2,2,2,1,10,2,10,2,,,,,,,,,,,,,,,,,,,,,,,,,,,,,,,,,,,,,,,,,
,,6580b24b0593cdbf4ce9449d,65af5532048963a67ab614d6,2024-01-22_23h58.12.853,bars,2023.2.3,Win32,59.88023952,657b66ea316d21385b68909f,,,,,,,,,,,,,,,,,,,,,,,,,,,,,,,,,,,,,,,,,,592.7881,595.0034,left,2.2109,,595.0035,7,1,596.003,0,3,3,3,1,8,4,7,3,,,,,,,,,,,,,,,,,,,,,,,,,,,,,,,,,,,,,,,,,
,,6580b24b0593cdbf4ce9449d,65af5532048963a67ab614d6,2024-01-22_23h58.12.853,bars,2023.2.3,Win32,59.88023952,657b66ea316d21385b68909f,,,,,,,,,,,,,,,,,,,,,,,,,,,,,,,,,,,,,,,,,,596.0112,597.1696,left,1.1547,,597.1696,5,1,598.1697,0,4,4,4,1,6,2,5,1,,,,,,,,,,,,,,,,,,,,,,,,,,,,,,,,,,,,,,,,,
,,6580b24b0593cdbf4ce9449d,65af5532048963a67ab614d6,2024-01-22_23h58.12.853,bars,2023.2.3,Win32,59.88023952,657b66ea316d21385b68909f,,,,,,,,,,,,,,,,,,,,,,,,,,,,,,,,,,,,,,,,,,598.1702,600.1025,left,1.9257,,600.1025,4,1,601.1024,0,5,5,5,1,4,4,4,4,,,,,,,,,,,,,,,,,,,,,,,,,,,,,,,,,,,,,,,,,
,,6580b24b0593cdbf4ce9449d,65af5532048963a67ab614d6,2024-01-22_23h58.12.853,bars,2023.2.3,Win32,59.88023952,657b66ea316d21385b68909f,,,,,,,,,,,,,,,,,,,,,,,,,,,,,,,,,,,,,,,,,,601.1027,602.719,left,1.6012,,602.7191,1,1,603.7183,0,6,6,6,1,2,2,1,2,,,,,,,,,,,,,,,,,,,,,,,,,,,,,,,,,,,,,,,,,
,,6580b24b0593cdbf4ce9449d,65af5532048963a67ab614d6,2024-01-22_23h58.12.853,bars,2023.2.3,Win32,59.88023952,657b66ea316d21385b68909f,,,,,,,,,,,,,,,,,,,,,,,,,,,,,,,,,,,,,,,,,,603.7266,605.4847,left,1.7418,,605.4848,0,1,606.4845,0,7,7,7,1,0,0,0,1,,,,,,,,,,,,,,,,,,,,,,,,,,,,,,,,,,,,,,,,,
,,6580b24b0593cdbf4ce9449d,65af5532048963a67ab614d6,2024-01-22_23h58.12.853,bars,2023.2.3,Win32,59.88023952,657b66ea316d21385b68909f,,,,,,,,,,,,,,,,,,,,,,,,,,,,,,,,,,,,,,,,,,606.4849,607.0844,right,0.5849,,607.0844,0,2,608.084,0,8,8,8,1,0,2,1,0,,,,,,,,,,,,,,,,,,,,,,,,,,,,,,,,,,,,,,,,,
,,6580b24b0593cdbf4ce9449d,65af5532048963a67ab614d6,2024-01-22_23h58.12.853,bars,2023.2.3,Win32,59.88023952,657b66ea316d21385b68909f,,,,,,,,,,,,,,,,,,,,,,,,,,,,,,,,,,,,,,,,,,608.0844,610.1337,right,2.033,,610.1337,3,2,611.1334,0,9,9,9,1,2,4,2,3,,,,,,,,,,,,,,,,,,,,,,,,,,,,,,,,,,,,,,,,,
,,6580b24b0593cdbf4ce9449d,65af5532048963a67ab614d6,2024-01-22_23h58.12.853,bars,2023.2.3,Win32,59.88023952,657b66ea316d21385b68909f,,,,,,,,,,,,,,,,,,,,,,,,,,,,,,,,,,,,,,,,,,611.134,614.866,left,3.718,,614.866,0,1,615.8658,0,10,10,10,1,0,2,0,3,,,,,,,,,,,,,,,,,,,,,,,,,,,,,,,,,,,,,,,,,
,,6580b24b0593cdbf4ce9449d,65af5532048963a67ab614d6,2024-01-22_23h58.12.853,bars,2023.2.3,Win32,59.88023952,657b66ea316d21385b68909f,,,,,,,,,,,,,,,,,,,,,,,,,,,,,,,,,,,,,,,,,,615.874,616.3655,right,0.4867,,616.3656,3,2,617.3655,0,11,11,11,1,0,4,0,3,,,,,,,,,,,,,,,,,,,,,,,,,,,,,,,,,,,,,,,,,
,,6580b24b0593cdbf4ce9449d,65af5532048963a67ab614d6,2024-01-22_23h58.12.853,bars,2023.2.3,Win32,59.88023952,657b66ea316d21385b68909f,,,,,,,,,,,,,,,,,,,,,,,,,,,,,,,,,,,,,,,,,,617.3659,618.8819,right,1.5032,,618.8819,6,2,619.8814,0,12,12,12,1,2,6,1,6,,,,,,,,,,,,,,,,,,,,,,,,,,,,,,,,,,,,,,,,,
,,6580b24b0593cdbf4ce9449d,65af5532048963a67ab614d6,2024-01-22_23h58.12.853,bars,2023.2.3,Win32,59.88023952,657b66ea316d21385b68909f,,,,,,,,,,,,,,,,,,,,,,,,,,,,,,,,,,,,,,,,,,619.8895,621.7814,right,1.8842,,621.7814,3,2,622.7807,0,13,13,13,1,0,4,1,3,,,,,,,,,,,,,,,,,,,,,,,,,,,,,,,,,,,,,,,,,
,,6580b24b0593cdbf4ce9449d,65af5532048963a67ab614d6,2024-01-22_23h58.12.853,bars,2023.2.3,Win32,59.88023952,657b66ea316d21385b68909f,,,,,,,,,,,,,,,,,,,,,,,,,,,,,,,,,,,,,,,,,,622.781,624.0813,right,1.2874,,624.0813,7,2,625.0808,0,14,14,14,1,2,6,2,7,,,,,,,,,,,,,,,,,,,,,,,,,,,,,,,,,,,,,,,,,
,,6580b24b0593cdbf4ce9449d,65af5532048963a67ab614d6,2024-01-22_23h58.12.853,bars,2023.2.3,Win32,59.88023952,657b66ea316d21385b68909f,,,,,,,,,,,,,,,,,,,,,,,,,,,,,,,,,,,,,,,,,,625.0811,626.2304,left,1.1433,,626.2304,3,1,627.2301,0,15,15,15,1,4,8,3,9,,,,,,,,,,,,,,,,,,,,,,,,,,,,,,,,,,,,,,,,,
,,6580b24b0593cdbf4ce9449d,65af5532048963a67ab614d6,2024-01-22_23h58.12.853,bars,2023.2.3,Win32,59.88023952,657b66ea316d21385b68909f,,,,,,,,,,,,,,,,,,,,,,,,,,,,,,,,,,,,,,,,,,627.2306,628.1965,right,0.9613,,628.1965,7,2,629.1962,0,16,16,16,1,6,6,7,7,,,,,,,,,,,,,,,,,,,,,,,,,,,,,,,,,,,,,,,,,
,,6580b24b0593cdbf4ce9449d,65af5532048963a67ab614d6,2024-01-22_23h58.12.853,bars,2023.2.3,Win32,59.88023952,657b66ea316d21385b68909f,,,,,,,,,,,,,,,,,,,,,,,,,,,,,,,,,,,,,,,,,,629.1966,630.5293,left,1.3148,,630.5294,9,1,631.5294,0,17,17,17,1,8,4,9,5,,,,,,,,,,,,,,,,,,,,,,,,,,,,,,,,,,,,,,,,,
,,6580b24b0593cdbf4ce9449d,65af5532048963a67ab614d6,2024-01-22_23h58.12.853,bars,2023.2.3,Win32,59.88023952,657b66ea316d21385b68909f,,,,,,,,,,,,,,,,,,,,,,,,,,,,,,,,,,,,,,,,,,631.5299,632.2791,left,0.7369,,632.2792,5,1,633.2788,0,18,18,18,1,6,2,5,1,,,,,,,,,,,,,,,,,,,,,,,,,,,,,,,,,,,,,,,,,
,,6580b24b0593cdbf4ce9449d,65af5532048963a67ab614d6,2024-01-22_23h58.12.853,bars,2023.2.3,Win32,59.88023952,657b66ea316d21385b68909f,,,,,,,,,,,,,,,,,,,,,,,,,,,,,,,,,,,,,,,,,,633.2792,633.8955,right,0.6047,,633.8955,0,2,634.8954,0,19,19,19,1,8,0,7,0,,,,,,,,,,,,,,,,,,,,,,,,,,,,,,,,,,,,,,,,,
,,6580b24b0593cdbf4ce9449d,65af5532048963a67ab614d6,2024-01-22_23h58.12.853,bars,2023.2.3,Win32,59.88023952,657b66ea316d21385b68909f,,,,,,,,,,,,,,,,,,,,,,,,,,,,,,,,,,,,,,,,,,,,,,,,,,,,,,,,,,,,634.8964,645.0443,space,10.133,,,,,,,,,,,,,,,,,,,,,,,,,,,,,,,,,,,,,
,,6580b24b0593cdbf4ce9449d,65af5532048963a67ab614d6,2024-01-22_23h58.12.853,bars,2023.2.3,Win32,59.88023952,657b66ea316d21385b68909f,,,,,,,,,,,646.1472,647.1426,,,647.6426,647.8926,,136,136,,,,,,,,,,,,,,,,bars/037.png,bars/mask003.png,,,,,,,,,,,,5,1,,,,,,,8,8,9,9,,,,,,645.0546,646.1433,space,1.0736,,647.1429,647.6426,647.8929,654.2417,space,6.3344,,654.2419,14,31,655.2412,655.2415,663.5067,space,8.2446,,0,0,0,0,1,150,105,,,,,,,,
,,6580b24b0593cdbf4ce9449d,65af5532048963a67ab614d6,2024-01-22_23h58.12.853,bars,2023.2.3,Win32,59.88023952,657b66ea316d21385b68909f,,,,,,,,,,,663.516,664.5057,,,665.0057,665.2555,,66,66,,,,,,,,,,,,,,,,bars/011.png,bars/mask007.png,,,,,,,,,,,,2,2,,,,,,,10,6,8,6,,,,,,,,,,,664.5058,665.0057,665.2555,668.8879,space,3.6277,,668.8881,86,19,669.8881,669.8881,673.404,space,3.488,,0,1,1,1,1,160,85,,,,,,,,
,,6580b24b0593cdbf4ce9449d,65af5532048963a67ab614d6,2024-01-22_23h58.12.853,bars,2023.2.3,Win32,59.88023952,657b66ea316d21385b68909f,,,,,,,,,,,673.4124,674.4036,,,674.9037,675.1537,,98,98,,,,,,,,,,,,,,,,bars/039.png,bars/mask006.png,,,,,,,,,,,,6,2,,,,,,,8,8,10,8,,,,,,,,,,,674.4037,674.9037,675.1537,679.3692,space,4.2056,,679.3693,77,7,680.3691,680.3692,682.9354,space,2.5399,,0,2,2,2,1,175,105,,,,,,,,
,,6580b24b0593cdbf4ce9449d,65af5532048963a67ab614d6,2024-01-22_23h58.12.853,bars,2023.2.3,Win32,59.88023952,657b66ea316d21385b68909f,,,,,,,,,,,682.936,683.9351,,,684.435,684.6852,,41,41,,,,,,,,,,,,,,,,bars/041.png,bars/mask001.png,,,,,,,,,,,,1,1,,,,,,,6,6,4,7,,,,,,,,,,,683.9352,684.435,684.6852,688.7509,space,4.0508,,688.7509,21,44,689.7506,689.7506,693.7502,space,3.9707,,0,3,3,3,1,20,85,,,,,,,,
,,6580b24b0593cdbf4ce9449d,65af5532048963a67ab614d6,2024-01-22_23h58.12.853,bars,2023.2.3,Win32,59.88023952,657b66ea316d21385b68909f,,,,,,,,,,,693.7585,694.7495,,,695.2499,695.4994,,159,159,,,,,,,,,,,,,,,,bars/001.png,bars/mask006.png,,,,,,,,,,,,0,1,,,,,,,4,8,5,7,,,,,,,,,,,694.7495,695.2499,695.4994,700.1153,space,4.6042,,700.1154,29,74,701.1151,701.1152,704.2309,space,3.0994,,0,4,4,4,1,130,85,,,,,,,,
,,6580b24b0593cdbf4ce9449d,65af5532048963a67ab614d6,2024-01-22_23h58.12.853,bars,2023.2.3,Win32,59.88023952,657b66ea316d21385b68909f,,,,,,,,,,,704.2314,705.231,,,705.7306,705.9807,,69,-111,,,,,,,,,,,,,,,,bars/046.png,bars/mask003.png,,,,,,,,,,,,3,2,,,,,,,2,6,1,6,,,,,,,,,,,705.2311,705.7306,705.9808,709.3464,space,3.3499,,709.3465,86,16,710.3463,710.3464,711.4962,space,1.1255,,0,5,5,5,1,155,85,,,,,,,,
,,6580b24b0593cdbf4ce9449d,65af5532048963a67ab614d6,2024-01-22_23h58.12.853,bars,2023.2.3,Win32,59.88023952,657b66ea316d21385b68909f,,,,,,,,,,,711.4967,712.4959,,,712.9957,713.2459,,60,60,,,,,,,,,,,,,,,,bars/022.png,bars/mask000.png,,,,,,,,,,,,0,1,,,,,,,4,4,3,6,,,,,,,,,,,712.496,712.9957,713.2459,716.0956,space,2.8411,,716.0957,35,40,717.0951,717.0951,718.8446,space,1.7281,,0,6,6,6,1,95,20,,,,,,,,
,,6580b24b0593cdbf4ce9449d,65af5532048963a67ab614d6,2024-01-22_23h58.12.853,bars,2023.2.3,Win32,59.88023952,657b66ea316d21385b68909f,,,,,,,,,,,718.845,719.8445,,,720.3443,720.5939,,119,119,,,,,,,,,,,,,,,,bars/045.png,bars/mask004.png,,,,,,,,,,,,0,1,,,,,,,2,2,1,1,,,,,,,,,,,719.8445,720.3442,720.5939,725.0437,space,4.4342,,725.0437,19,71,726.0433,726.0434,730.1263,space,4.0557,,0,7,7,7,1,100,10,,,,,,,,
,,6580b24b0593cdbf4ce9449d,65af5532048963a67ab614d6,2024-01-22_23h58.12.853,bars,2023.2.3,Win32,59.88023952,657b66ea316d21385b68909f,,,,,,,,,,,730.1344,731.1252,,,731.6251,731.8755,,72,-108,,,,,,,,,,,,,,,,bars/041.png,bars/mask006.png,,,,,,,,,,,,2,2,,,,,,,4,4,3,3,,,,,,,,,,,731.1252,731.6251,731.8756,735.9078,space,4.0161,,735.9078,52,13,736.9076,736.9077,738.1072,space,1.1713,,0,8,8,8,1,20,85,,,,,,,,
,,6580b24b0593cdbf4ce9449d,65af5532048963a67ab614d6,2024-01-22_23h58.12.853,bars,2023.2.3,Win32,59.88023952,657b66ea316d21385b68909f,,,,,,,,,,,738.1076,739.1071,,,739.6071,739.8568,,54,54,,,,,,,,,,,,,,,,bars/031.png,bars/mask005.png,,,,,,,,,,,,3,2,,,,,,,2,6,3,7,,,,,,,,,,,739.1072,739.607,739.8569,742.2898,space,2.4251,,742.2899,66,19,743.2896,743.2896,744.406,space,1.0945,,0,9,9,9,1,120,35,,,,,,,,
,,6580b24b0593cdbf4ce9449d,65af5532048963a67ab614d6,2024-01-22_23h58.12.853,bars,2023.2.3,Win32,59.88023952,657b66ea316d21385b68909f,,,,,,,,,,,744.4065,745.4057,,,745.9057,746.1555,,40,220,,,,,,,,,,,,,,,,bars/036.png,bars/mask009.png,,,,,,,,,,,,3,2,,,,,,,4,8,4,8,,,,,,,,,,,745.4058,745.9056,746.1555,752.0546,space,5.8826,,752.0547,75,20,753.0539,753.0539,755.0873,space,2.0093,,0,10,10,10,1,145,20,,,,,,,,
,,6580b24b0593cdbf4ce9449d,65af5532048963a67ab614d6,2024-01-22_23h58.12.853,bars,2023.2.3,Win32,59.88023952,657b66ea316d21385b68909f,,,,,,,,,,,755.0878,756.0867,,,756.5912,756.8367,,105,105,,,,,,,,,,,,,,,,bars/034.png,bars/mask007.png,,,,,,,,,,,,2,1,,,,,,,6,6,6,6,,,,,,,,,,,756.0868,756.5912,756.8368,762.6358,space,5.7863,,762.636,20,40,763.6354,763.6354,764.6353,space,0.9768,,0,11,11,11,1,125,65,,,,,,,,
,,6580b24b0593cdbf4ce9449d,65af5532048963a67ab614d6,2024-01-22_23h58.12.853,bars,2023.2.3,Win32,59.88023952,657b66ea316d21385b68909f,,,,,,,,,,,764.6359,765.6349,,,766.1349,766.3847,,70,70,,,,,,,,,,,,,,,,bars/031.png,bars/mask004.png,,,,,,,,,,,,0,2,,,,,,,4,4,3,3,,,,,,,,,,,765.635,766.1348,766.3847,768.1681,space,1.7763,,768.1681,50,35,769.1676,769.1676,770.5674,space,1.3705,,0,12,12,12,1,120,35,,,,,,,,
,,6580b24b0593cdbf4ce9449d,65af5532048963a67ab614d6,2024-01-22_23h58.12.853,bars,2023.2.3,Win32,59.88023952,657b66ea316d21385b68909f,,,,,,,,,,,770.5683,771.567,,,772.0669,772.3171,,67,67,,,,,,,,,,,,,,,,bars/034.png,bars/mask002.png,,,,,,,,,,,,6,2,,,,,,,2,6,1,6,,,,,,,,,,,771.5671,772.0668,772.3171,774.9331,space,2.6085,,774.9332,58,2,775.9328,775.9328,779.3655,space,3.4133,,0,13,13,13,1,125,65,,,,,,,,
,,6580b24b0593cdbf4ce9449d,65af5532048963a67ab614d6,2024-01-22_23h58.12.853,bars,2023.2.3,Win32,59.88023952,657b66ea316d21385b68909f,,,,,,,,,,,779.3756,780.3649,,,780.8653,781.115,,0,0,,,,,,,,,,,,,,,,bars/032.png,bars/mask002.png,,,,,,,,,,,,3,2,,,,,,,0,8,0,8,,,,,,,,,,,780.365,780.8653,781.1151,786.1306,space,5.0031,,786.1307,55,20,787.1307,787.1307,788.98,space,1.8209,,0,14,14,14,1,125,20,,,,,,,,
,,6580b24b0593cdbf4ce9449d,65af5532048963a67ab614d6,2024-01-22_23h58.12.853,bars,2023.2.3,Win32,59.88023952,657b66ea316d21385b68909f,,,,,,,,,,,788.9804,789.98,,,790.4795,790.7295,,33,33,,,,,,,,,,,,,,,,bars/020.png,bars/mask008.png,,,,,,,,,,,,0,2,,,,,,,0,6,0,6,,,,,,,,,,,789.9801,790.4794,790.7295,794.8457,space,4.1093,,794.8457,82,43,795.8453,795.8453,798.8449,space,2.9765,,0,15,15,15,1,115,170,,,,,,,,
,,6580b24b0593cdbf4ce9449d,65af5532048963a67ab614d6,2024-01-22_23h58.12.853,bars,2023.2.3,Win32,59.88023952,657b66ea316d21385b68909f,,,,,,,,,,,798.8453,799.8444,,,800.3443,800.5943,,102,102,,,,,,,,,,,,,,,,bars/010.png,bars/mask007.png,,,,,,,,,,,,0,2,,,,,,,2,8,3,9,,,,,,,,,,,799.8444,800.3443,800.5944,804.2936,space,3.6834,,804.2937,63,47,805.2935,805.2935,806.8765,space,1.5663,,0,16,16,16,1,165,55,,,,,,,,
,,6580b24b0593cdbf4ce9449d,65af5532048963a67ab614d6,2024-01-22_23h58.12.853,bars,2023.2.3,Win32,59.88023952,657b66ea316d21385b68909f,,,,,,,,,,,806.877,807.8763,,,808.3762,808.626,,90,90,,,,,,,,,,,,,,,,bars/034.png,bars/mask007.png,,,,,,,,,,,,2,2,,,,,,,0,10,1,10,,,,,,,,,,,807.8763,808.3761,808.626,815.8084,space,7.168,,815.8085,35,25,816.8079,816.8079,819.3576,space,2.5296,,0,17,17,17,1,125,65,,,,,,,,
,,6580b24b0593cdbf4ce9449d,65af5532048963a67ab614d6,2024-01-22_23h58.12.853,bars,2023.2.3,Win32,59.88023952,657b66ea316d21385b68909f,,,,,,,,,,,819.3666,820.3567,,,820.8567,821.1067,,113,113,,,,,,,,,,,,,,,,bars/018.png,bars/mask006.png,,,,,,,,,,,,2,2,,,,,,,2,8,1,7,,,,,,,,,,,820.3567,820.8567,821.1067,822.7065,space,1.5836,,822.7065,37,23,823.7063,823.7064,826.2726,space,2.5432,,0,18,18,18,1,150,90,,,,,,,,
,,6580b24b0593cdbf4ce9449d,65af5532048963a67ab614d6,2024-01-22_23h58.12.853,bars,2023.2.3,Win32,59.88023952,657b66ea316d21385b68909f,,,,,,,,,,,826.2733,827.2721,,,827.7719,828.022,,153,153,,,,,,,,,,,,,,,,bars/003.png,bars/mask004.png,,,,,,,,,,,,3,2,,,,,,,0,6,0,5,,,,,,,,,,,827.2723,827.7718,828.0221,829.5715,space,1.5443,,829.5716,52,13,830.5719,830.572,831.8046,space,1.2242,,0,19,19,19,1,25,140,,,,,,,,
,,6580b24b0593cdbf4ce9449d,65af5532048963a67ab614d6,2024-01-22_23h58.12.853,bars,2023.2.3,Win32,59.88023952,657b66ea316d21385b68909f,,,,,,,,,,,831.8051,832.8045,,,833.3042,833.5543,,143,143,,,,,,,,,,,,,,,,bars/016.png,bars/mask006.png,,,,,,,,,,,,2,2,,,,,,,2,8,2,8,,,,,,,,,,,832.8045,833.3041,833.5543,835.2038,space,1.6375,,835.2038,77,22,836.2039,836.2039,837.7202,space,1.506,,0,20,20,20,1,40,165,,,,,,,,
,,6580b24b0593cdbf4ce9449d,65af5532048963a67ab614d6,2024-01-22_23h58.12.853,bars,2023.2.3,Win32,59.88023952,657b66ea316d21385b68909f,,,,,,,,,,,837.7208,838.7197,,,839.22,839.4694,,35,35,,,,,,,,,,,,,,,,bars/022.png,bars/mask001.png,,,,,,,,,,,,5,2,,,,,,,4,10,5,10,,,,,,,,,,,838.7198,839.2199,839.4695,843.3522,space,3.8755,,843.3523,60,15,844.3521,844.3522,845.5853,space,1.2054,,0,21,21,21,1,95,20,,,,,,,,
,,6580b24b0593cdbf4ce9449d,65af5532048963a67ab614d6,2024-01-22_23h58.12.853,bars,2023.2.3,Win32,59.88023952,657b66ea316d21385b68909f,,,,,,,,,,,845.5859,846.585,,,847.0853,847.3349,,73,73,,,,,,,,,,,,,,,,bars/044.png,bars/mask002.png,,,,,,,,,,,,6,1,,,,,,,6,8,6,8,,,,,,,,,,,846.5851,847.0852,847.335,850.4349,space,3.0861,,850.435,2,82,851.434,851.4341,855.3999,space,3.9375,,0,22,22,22,1,75,155,,,,,,,,
,,6580b24b0593cdbf4ce9449d,65af5532048963a67ab614d6,2024-01-22_23h58.12.853,bars,2023.2.3,Win32,59.88023952,657b66ea316d21385b68909f,,,,,,,,,,,855.408,856.3994,,,856.8995,857.1497,,79,79,,,,,,,,,,,,,,,,bars/001.png,bars/mask002.png,,,,,,,,,,,,8,2,,,,,,,8,10,7,10,,,,,,,,,,,856.3995,856.8994,857.1498,859.832,space,2.672,,859.832,51,6,860.8322,860.8322,863.2317,space,2.3713,,0,23,23,23,1,130,85,,,,,,,,
,,6580b24b0593cdbf4ce9449d,65af5532048963a67ab614d6,2024-01-22_23h58.12.853,bars,2023.2.3,Win32,59.88023952,657b66ea316d21385b68909f,,,,,,,,,,,863.2401,864.2313,,,864.7311,864.9811,,108,108,,,,,,,,,,,,,,,,bars/041.png,bars/mask004.png,,,,,,,,,,,,2,2,,,,,,,10,10,10,9,,,,,,,,,,,864.2315,864.7311,864.9811,867.4306,space,2.435,,867.4306,88,23,868.4302,868.4303,870.7802,space,2.322,,0,24,24,24,1,20,85,,,,,,,,
,,6580b24b0593cdbf4ce9449d,65af5532048963a67ab614d6,2024-01-22_23h58.12.853,bars,2023.2.3,Win32,59.88023952,657b66ea316d21385b68909f,,,,,,,,,,,870.7807,871.7797,,,872.2801,872.5293,,80,80,,,,,,,,,,,,,,,,bars/048.png,bars/mask006.png,,,,,,,,,,,,0,1,,,,,,,10,10,9,9,,,,,,,,,,,871.7797,872.2801,872.5293,874.9125,space,2.3688,,874.9126,30,85,875.9121,875.9122,877.1454,space,1.2039,,0,25,25,25,1,50,175,,,,,,,,
,,6580b24b0593cdbf4ce9449d,65af5532048963a67ab614d6,2024-01-22_23h58.12.853,bars,2023.2.3,Win32,59.88023952,657b66ea316d21385b68909f,,,,,,,,,,,877.1457,878.1453,,,878.6449,878.8952,,136,136,,,,,,,,,,,,,,,,bars/037.png,bars/mask004.png,,,,,,,,,,,,4,1,,,,,,,8,10,8,10,,,,,,,,,,,878.1454,878.6448,878.8953,882.878,space,3.9669,,882.8781,14,31,883.8771,883.8772,885.0771,space,1.1728,,0,26,26,26,1,150,105,,,,,,,,
,,6580b24b0593cdbf4ce9449d,65af5532048963a67ab614d6,2024-01-22_23h58.12.853,bars,2023.2.3,Win32,59.88023952,657b66ea316d21385b68909f,,,,,,,,,,,885.0775,886.0767,,,886.5767,886.8266,,149,149,,,,,,,,,,,,,,,,bars/037.png,bars/mask002.png,,,,,,,,,,,,7,1,,,,,,,6,8,7,8,,,,,,,,,,,886.0767,886.5767,886.8267,889.9593,space,3.1262,,889.9593,1,44,890.9589,890.959,894.1582,space,3.1839,,0,27,27,27,1,150,105,,,,,,,,
,,6580b24b0593cdbf4ce9449d,65af5532048963a67ab614d6,2024-01-22_23h58.12.853,bars,2023.2.3,Win32,59.88023952,657b66ea316d21385b68909f,,,,,,,,,,,894.1668,895.1582,,,895.6579,895.908,,147,147,,,,,,,,,,,,,,,,bars/025.png,bars/mask004.png,,,,,,,,,,,,0,1,,,,,,,4,6,4,6,,,,,,,,,,,895.1582,895.6579,895.908,898.0576,space,2.1405,,898.0576,42,73,899.0576,899.0577,900.0573,space,0.9927,,0,28,28,28,1,105,40,,,,,,,,
,,6580b24b0593cdbf4ce9449d,65af5532048963a67ab614d6,2024-01-22_23h58.12.853,bars,2023.2.3,Win32,59.88023952,657b66ea316d21385b68909f,,,,,,,,,,,900.0577,901.057,,,901.5572,901.8067,,118,118,,,,,,,,,,,,,,,,bars/039.png,bars/mask004.png,,,,,,,,,,,,2,2,,,,,,,6,4,6,4,,,,,,,,,,,901.057,901.5572,901.8068,904.4731,space,2.6538,,904.4731,57,13,905.4735,905.4736,906.1228,space,0.6218,,0,29,29,29,1,175,105,,,,,,,,
,,6580b24b0593cdbf4ce9449d,65af5532048963a67ab614d6,2024-01-22_23h58.12.853,bars,2023.2.3,Win32,59.88023952,657b66ea316d21385b68909f,,,,,,,,,,,906.1233,907.1223,,,907.6223,907.8722,,41,41,,,,,,,,,,,,,,,,bars/035.png,bars/mask004.png,,,,,,,,,,,,3,2,,,,,,,8,6,10,7,,,,,,,,,,,907.1224,907.6223,907.8723,910.905,space,3.0217,,910.905,46,19,911.9048,911.9048,912.488,space,0.5631,,0,30,30,30,1,175,60,,,,,,,,
,,6580b24b0593cdbf4ce9449d,65af5532048963a67ab614d6,2024-01-22_23h58.12.853,bars,2023.2.3,Win32,59.88023952,657b66ea316d21385b68909f,,,,,,,,,,,912.4883,913.4882,,,913.9875,914.2378,,41,221,,,,,,,,,,,,,,,,bars/016.png,bars/mask006.png,,,,,,,,,,,,6,1,,,,,,,6,4,6,4,,,,,,,,,,,913.4882,913.9875,914.2379,917.3371,space,3.0862,,917.3372,1,56,918.3366,918.3367,920.7529,space,2.3889,,0,31,31,31,1,40,165,,,,,,,,
,,6580b24b0593cdbf4ce9449d,65af5532048963a67ab614d6,2024-01-22_23h58.12.853,bars,2023.2.3,Win32,59.88023952,657b66ea316d21385b68909f,,,,,,,,,,,920.7534,921.7527,,,922.2527,922.5025,,52,232,,,,,,,,,,,,,,,,bars/037.png,bars/mask008.png,,,,,,,,,,,,0,2,,,,,,,8,2,7,3,,,,,,,,,,,921.7527,922.2527,922.5025,925.8355,space,3.3283,,925.8355,82,53,926.8351,926.8351,927.6187,space,0.7538,,0,32,32,32,1,150,105,,,,,,,,
,,6580b24b0593cdbf4ce9449d,65af5532048963a67ab614d6,2024-01-22_23h58.12.853,bars,2023.2.3,Win32,59.88023952,657b66ea316d21385b68909f,,,,,,,,,,,927.6191,928.6181,,,929.118,929.3681,,105,105,,,,,,,,,,,,,,,,bars/023.png,bars/mask003.png,,,,,,,,,,,,3,2,,,,,,,10,4,9,5,,,,,,,,,,,928.6182,929.118,929.3681,933.0334,space,3.6596,,933.0335,85,10,934.0334,934.0334,934.7335,space,0.673,,0,33,33,33,1,20,115,,,,,,,,
,,6580b24b0593cdbf4ce9449d,65af5532048963a67ab614d6,2024-01-22_23h58.12.853,bars,2023.2.3,Win32,59.88023952,657b66ea316d21385b68909f,,,,,,,,,,,934.734,935.7332,,,936.233,936.4834,,10,10,,,,,,,,,,,,,,,,bars/009.png,bars/mask002.png,,,,,,,,,,,,8,1,,,,,,,10,6,10,7,,,,,,,,,,,935.7332,936.2329,936.4834,939.2156,space,2.7274,,939.2157,5,85,940.2156,940.2156,941.6159,space,1.3753,,0,34,34,34,1,15,105,,,,,,,,
,,6580b24b0593cdbf4ce9449d,65af5532048963a67ab614d6,2024-01-22_23h58.12.853,bars,2023.2.3,Win32,59.88023952,657b66ea316d21385b68909f,,,,,,,,,,,941.6163,942.615,,,943.1151,943.3651,,25,205,,,,,,,,,,,,,,,,bars/003.png,bars/mask008.png,,,,,,,,,,,,9,1,,,,,,,8,8,9,9,,,,,,,,,,,942.6151,943.115,943.3651,945.9648,space,2.5919,,945.9649,0,65,946.9643,946.9644,950.7966,space,3.8159,,0,35,35,35,1,25,140,,,,,,,,
,,6580b24b0593cdbf4ce9449d,65af5532048963a67ab614d6,2024-01-22_23h58.12.853,bars,2023.2.3,Win32,59.88023952,657b66ea316d21385b68909f,,,,,,,,,,,950.8047,951.7964,,,952.2966,952.5464,,27,27,,,,,,,,,,,,,,,,bars/006.png,bars/mask006.png,,,,,,,,,,,,7,1,,,,,,,10,6,10,6,,,,,,,,,,,951.7965,952.2965,952.5464,955.2293,space,2.6774,,955.2293,8,73,956.229,956.229,956.979,space,0.7229,,0,36,36,36,1,35,100,,,,,,,,
,,6580b24b0593cdbf4ce9449d,65af5532048963a67ab614d6,2024-01-22_23h58.12.853,bars,2023.2.3,Win32,59.88023952,657b66ea316d21385b68909f,,,,,,,,,,,956.9792,957.9785,,,958.4783,958.7282,,131,131,,,,,,,,,,,,,,,,bars/039.png,bars/mask003.png,,,,,,,,,,,,1,2,,,,,,,10,8,10,8,,,,,,,,,,,957.9786,958.4783,958.7282,961.8946,space,3.1545,,961.8946,44,26,962.8945,962.8946,964.0775,space,1.16,,0,37,37,37,1,175,105,,,,,,,,
,,6580b24b0593cdbf4ce9449d,65af5532048963a67ab614d6,2024-01-22_23h58.12.853,bars,2023.2.3,Win32,59.88023952,657b66ea316d21385b68909f,,,,,,,,,,,964.078,965.077,,,965.577,965.8271,,169,-11,,,,,,,,,,,,,,,,bars/003.png,bars/mask006.png,,,,,,,,,,,,0,2,,,,,,,8,10,8,10,,,,,,,,,,,965.0771,965.577,965.8271,970.2926,space,4.4576,,970.2927,36,29,971.2926,971.2926,972.1927,space,0.8808,,0,38,38,38,1,25,140,,,,,,,,
,,6580b24b0593cdbf4ce9449d,65af5532048963a67ab614d6,2024-01-22_23h58.12.853,bars,2023.2.3,Win32,59.88023952,657b66ea316d21385b68909f,,,,,,,,,,,972.1931,973.1921,,,973.6923,973.9421,,108,108,,,,,,,,,,,,,,,,bars/021.png,bars/mask000.png,,,,,,,,,,,,0,2,,,,,,,10,8,10,9,,,,,,,,,,,973.1922,973.6922,973.9422,977.2248,space,3.2766,,977.2248,47,38,978.2245,978.2246,978.9077,space,0.6568,,0,39,39,39,1,155,70,,,,,,,,
,,6580b24b0593cdbf4ce9449d,65af5532048963a67ab614d6,2024-01-22_23h58.12.853,bars,2023.2.3,Win32,59.88023952,657b66ea316d21385b68909f,,,,,,,,,,,978.9085,979.9073,,,980.4074,980.6574,,110,110,,,,,,,,,,,,,,,,bars/011.png,bars/mask003.png,,,,,,,,,,,,1,2,,,,,,,10,6,9,6,,,,,,,,,,,979.9073,980.4074,980.6575,984.1064,space,3.4434,,984.1065,50,25,985.1065,985.1065,986.1896,space,1.0632,,0,40,40,40,1,160,85,,,,,,,,
,,6580b24b0593cdbf4ce9449d,65af5532048963a67ab614d6,2024-01-22_23h58.12.853,bars,2023.2.3,Win32,59.88023952,657b66ea316d21385b68909f,,,,,,,,,,,986.1904,987.1891,,,987.6893,987.9392,,71,71,,,,,,,,,,,,,,,,bars/049.png,bars/mask009.png,,,,,,,,,,,,0,2,,,,,,,10,8,10,7,,,,,,,,,,,987.1892,987.6893,987.9393,991.9222,space,3.9752,,991.9223,89,44,992.9214,992.9214,998.2038,space,5.2624,,0,41,41,41,1,160,115,,,,,,,,
,,6580b24b0593cdbf4ce9449d,65af5532048963a67ab614d6,2024-01-22_23h58.12.853,bars,2023.2.3,Win32,59.88023952,657b66ea316d21385b68909f,,,,,,,,,,,998.2121,999.2038,,,999.7033,999.9533,,105,105,,,,,,,,,,,,,,,,bars/037.png,bars/mask009.png,,,,,,,,,,,,10,2,,,,,,,8,10,8,10,,,,,,,,,,,999.2038,999.7033,999.9533,1002.9529,space,2.9911,,1002.953,45,0,1003.9523,1003.9523,1009.8348,space,5.8572,,0,42,42,42,1,150,105,,,,,,,,
,,6580b24b0593cdbf4ce9449d,65af5532048963a67ab614d6,2024-01-22_23h58.12.853,bars,2023.2.3,Win32,59.88023952,657b66ea316d21385b68909f,,,,,,,,,,,1009.8432,1010.8342,,,1011.3345,1011.5841,,47,47,,,,,,,,,,,,,,,,bars/013.png,bars/mask002.png,,,,,,,,,,,,0,1,,,,,,,6,8,5,8,,,,,,,,,,,1010.8342,1011.3344,1011.5841,1016.1836,space,4.5831,,1016.1836,28,37,1017.1834,1017.1834,1021.1488,space,3.9474,,0,43,43,43,1,75,10,,,,,,,,
,,6580b24b0593cdbf4ce9449d,65af5532048963a67ab614d6,2024-01-22_23h58.12.853,bars,2023.2.3,Win32,59.88023952,657b66ea316d21385b68909f,,,,,,,,,,,1021.1569,1022.149,,,1022.6487,1022.8988,,123,123,,,,,,,,,,,,,,,,bars/032.png,bars/mask003.png,,,,,,,,,,,,3,1,,,,,,,4,10,3,10,,,,,,,,,,,1022.1491,1022.6487,1022.8989,1024.8152,space,1.9026,,1024.8153,2,77,1025.8145,1025.8146,1026.9479,space,1.1098,,0,44,44,44,1,125,20,,,,,,,,
,,6580b24b0593cdbf4ce9449d,65af5532048963a67ab614d6,2024-01-22_23h58.12.853,bars,2023.2.3,Win32,59.88023952,657b66ea316d21385b68909f,,,,,,,,,,,1026.9484,1027.9475,,,1028.4478,1028.6974,,13,13,,,,,,,,,,,,,,,,bars/043.png,bars/mask001.png,,,,,,,,,,,,3,1,,,,,,,6,8,7,8,,,,,,,,,,,1027.9475,1028.4477,1028.6974,1029.8642,space,1.1568,,1029.8642,17,63,1030.8634,1030.8635,1032.2967,space,1.417,,0,45,45,45,1,30,130,,,,,,,,
,,6580b24b0593cdbf4ce9449d,65af5532048963a67ab614d6,2024-01-22_23h58.12.853,bars,2023.2.3,Win32,59.88023952,657b66ea316d21385b68909f,,,,,,,,,,,1032.2971,1033.2963,,,1033.7964,1034.0464,,107,-73,,,,,,,,,,,,,,,,bars/008.png,bars/mask002.png,,,,,,,,,,,,4,1,,,,,,,4,6,4,5,,,,,,,,,,,1033.2963,1033.7963,1034.0465,1037.4955,space,3.4334,,1037.4955,3,73,1038.4953,1038.4953,1039.6787,space,1.1645,,0,46,46,46,1,110,0,,,,,,,,
,,6580b24b0593cdbf4ce9449d,65af5532048963a67ab614d6,2024-01-22_23h58.12.853,bars,2023.2.3,Win32,59.88023952,657b66ea316d21385b68909f,,,,,,,,,,,1039.6793,1040.6781,,,1041.1785,1041.4279,,111,111,,,,,,,,,,,,,,,,bars/036.png,bars/mask008.png,,,,,,,,,,,,0,1,,,,,,,2,4,3,4,,,,,,,,,,,1040.6781,1041.1785,1041.4279,1044.0276,space,2.5907,,1044.0276,34,89,1045.0272,1045.0272,1046.5602,space,1.513,,0,47,47,47,1,145,20,,,,,,,,
,,6580b24b0593cdbf4ce9449d,65af5532048963a67ab614d6,2024-01-22_23h58.12.853,bars,2023.2.3,Win32,59.88023952,657b66ea316d21385b68909f,,,,,,,,,,,1046.5605,1047.5601,,,1048.0608,1048.31,,106,106,,,,,,,,,,,,,,,,bars/029.png,bars/mask003.png,,,,,,,,,,,,0,1,,,,,,,0,2,0,1,,,,,,,,,,,1047.5601,1048.0608,1048.3101,1050.5429,space,2.2256,,1050.543,16,61,1051.5426,1051.5426,1054.276,space,2.7059,,0,48,48,48,1,90,45,,,,,,,,
,,6580b24b0593cdbf4ce9449d,65af5532048963a67ab614d6,2024-01-22_23h58.12.853,bars,2023.2.3,Win32,59.88023952,657b66ea316d21385b68909f,,,,,,,,,,,1054.2766,1055.2749,,,1055.7754,1056.0253,,28,28,,,,,,,,,,,,,,,,bars/016.png,bars/mask006.png,,,,,,,,,,,,0,1,,,,,,,0,4,0,5,,,,,,,,,,,1055.2749,1055.7753,1056.0254,1057.4924,space,1.4636,,1057.4924,12,43,1058.4914,1058.4914,1062.707,space,4.2053,,0,49,49,49,1,40,165,,,,,,,,
,,6580b24b0593cdbf4ce9449d,65af5532048963a67ab614d6,2024-01-22_23h58.12.853,bars,2023.2.3,Win32,59.88023952,657b66ea316d21385b68909f,,,,,,,,,,,,,,,,,,,,,,,,,,,,,,,,,,,,,,,,,,,,,,,,,,,,,,,,,,,,,,,,,,,,,,,,,,,,,,,,,,,,,,,,,,,,,1062.7154,1135.1872,0,0,0,0,1,sequence_tables/blk047.csv
,,6580b24b0593cdbf4ce9449d,65af5532048963a67ab614d6,2024-01-22_23h58.12.853,bars,2023.2.3,Win32,59.88023952,657b66ea316d21385b68909f,,,,,,,,,,,1136.1302,1137.1251,,,1137.6251,1137.8749,,108,108,,,,,,,,,,,,,,,,bars/028.png,bars/mask003.png,,,,,,,,,,,,5,2,,,,,,,2,7,4,8,,,,,,1135.2045,1136.1256,space,0.8952,,1137.1251,1137.6251,1137.875,1139.8078,space,1.917,,1139.8079,63,12,1140.8079,1140.8079,1140.8101,,,,0,0,0,0,1,45,120,,,,,,,,
,,6580b24b0593cdbf4ce9449d,65af5532048963a67ab614d6,2024-01-22_23h58.12.853,bars,2023.2.3,Win32,59.88023952,657b66ea316d21385b68909f,,,,,,,,,,,1140.8105,1141.8071,,,1142.3074,1142.5571,,64,64,,,,,,,,,,,,,,,,bars/044.png,bars/mask000.png,,,,,,,,,,,,2,1,,,,,,,4,5,3,5,,,,,,,,,,,1141.8072,1142.3073,1142.5572,1145.5233,space,2.95,,1145.5234,11,89,1146.5233,1146.5233,1146.5329,,,,0,1,1,1,1,75,155,,,,,,,,
,,6580b24b0593cdbf4ce9449d,65af5532048963a67ab614d6,2024-01-22_23h58.12.853,bars,2023.2.3,Win32,59.88023952,657b66ea316d21385b68909f,,,,,,,,,,,1146.533,1147.5227,,,1148.0228,1148.2735,,119,-61,,,,,,,,,,,,,,,,bars/020.png,bars/mask003.png,,,,,,,,,,,,6,1,,,,,,,6,7,7,8,,,,,,,,,,,1147.5228,1148.0228,1148.2736,1150.9391,space,2.648,,1150.9392,4,51,1151.9388,1151.9388,1151.9476,,,,0,2,2,2,1,115,170,,,,,,,,
,,6580b24b0593cdbf4ce9449d,65af5532048963a67ab614d6,2024-01-22_23h58.12.853,bars,2023.2.3,Win32,59.88023952,657b66ea316d21385b68909f,,,,,,,,,,,1151.9478,1152.9383,,,1153.4385,1153.6883,,112,-68,,,,,,,,,,,,,,,,bars/026.png,bars/mask002.png,,,,,,,,,,,,0,2,,,,,,,8,5,7,5,,,,,,,,,,,1152.9384,1153.4385,1153.6883,1156.3879,space,2.6907,,1156.3879,77,27,1157.3875,1157.3875,1157.3966,,,,0,3,3,3,1,35,85,,,,,,,,
,,6580b24b0593cdbf4ce9449d,65af5532048963a67ab614d6,2024-01-22_23h58.12.853,bars,2023.2.3,Win32,59.88023952,657b66ea316d21385b68909f,,,,,,,,,,,1157.3969,1158.3873,,,1158.8871,1159.1372,,91,91,,,,,,,,,,,,,,,,bars/002.png,bars/mask009.png,,,,,,,,,,,,2,2,,,,,,,6,3,6,2,,,,,,,,,,,1158.3873,1158.887,1159.1373,1161.6864,space,2.5354,,1161.6865,39,6,1162.6865,1162.6865,1162.6948,,,,0,4,4,4,1,130,85,,,,,,,,
,,6580b24b0593cdbf4ce9449d,65af5532048963a67ab614d6,2024-01-22_23h58.12.853,bars,2023.2.3,Win32,59.88023952,657b66ea316d21385b68909f,,,,,,,,,,,1162.695,1163.6865,,,1164.1859,1164.4362,,83,263,,,,,,,,,,,,,,,,bars/036.png,bars/mask009.png,,,,,,,,,,,,0,1,,,,,,,4,5,4,6,,,,,,,,,,,1163.6866,1164.1858,1164.4362,1167.2862,space,2.8359,,1167.2862,62,63,1168.2855,1168.2855,1168.2948,,,,0,5,5,5,1,145,20,,,,,,,,
,,6580b24b0593cdbf4ce9449d,65af5532048963a67ab614d6,2024-01-22_23h58.12.853,bars,2023.2.3,Win32,59.88023952,657b66ea316d21385b68909f,,,,,,,,,,,1168.295,1169.2849,,,1169.7854,1170.035,,113,113,,,,,,,,,,,,,,,,bars/013.png,bars/mask007.png,,,,,,,,,,,,0,1,,,,,,,2,3,3,3,,,,,,,,,,,1169.285,1169.7854,1170.035,1171.4848,space,1.4342,,1171.4848,38,77,1172.4845,1172.4846,1172.4855,,,,0,6,6,6,1,75,10,,,,,,,,
,,6580b24b0593cdbf4ce9449d,65af5532048963a67ab614d6,2024-01-22_23h58.12.853,bars,2023.2.3,Win32,59.88023952,657b66ea316d21385b68909f,,,,,,,,,,,1172.4861,1173.4841,,,1173.9842,1174.2338,,64,244,,,,,,,,,,,,,,,,bars/014.png,bars/mask002.png,,,,,,,,,,,,3,1,,,,,,,4,1,6,2,,,,,,,,,,,1173.4842,1173.9842,1174.2339,1177.2999,space,3.0509,,1177.3,16,64,1178.2997,1178.2998,1178.3083,,,,0,7,7,7,1,80,0,,,,,,,,
,,6580b24b0593cdbf4ce9449d,65af5532048963a67ab614d6,2024-01-22_23h58.12.853,bars,2023.2.3,Win32,59.88023952,657b66ea316d21385b68909f,,,,,,,,,,,1178.3084,1179.3,,,1179.7996,1180.05,,70,250,,,,,,,,,,,,,,,,bars/022.png,bars/mask005.png,,,,,,,,,,,,1,1,,,,,,,6,3,5,4,,,,,,,,,,,1179.3,1179.7996,1180.05,1182.4667,space,2.3993,,1182.4667,25,50,1183.4657,1183.4657,1183.4743,,,,0,8,8,8,1,95,20,,,,,,,,
,,6580b24b0593cdbf4ce9449d,65af5532048963a67ab614d6,2024-01-22_23h58.12.853,bars,2023.2.3,Win32,59.88023952,657b66ea316d21385b68909f,,,,,,,,,,,1183.4744,1184.4654,,,1184.9649,1185.2151,,50,230,,,,,,,,,,,,,,,,bars/047.png,bars/mask007.png,,,,,,,,,,,,2,2,,,,,,,8,5,7,5,,,,,,,,,,,1184.4654,1184.9649,1185.2151,1188.2147,space,2.9922,,1188.2147,35,20,1189.2143,1189.2144,1189.2234,,,,0,9,9,9,1,15,70,,,,,,,,
,,6580b24b0593cdbf4ce9449d,65af5532048963a67ab614d6,2024-01-22_23h58.12.853,bars,2023.2.3,Win32,59.88023952,657b66ea316d21385b68909f,,,,,,,,,,,1189.2237,1190.214,,,1190.7142,1190.9638,,68,248,,,,,,,,,,,,,,,,bars/014.png,bars/mask001.png,,,,,,,,,,,,6,1,,,,,,,10,3,10,4,,,,,,,,,,,1190.214,1190.7141,1190.9639,1194.1301,space,3.1585,,1194.1301,12,68,1195.1297,1195.1298,1195.1393,,,,0,10,10,10,1,80,0,,,,,,,,
,,6580b24b0593cdbf4ce9449d,65af5532048963a67ab614d6,2024-01-22_23h58.12.853,bars,2023.2.3,Win32,59.88023952,657b66ea316d21385b68909f,,,,,,,,,,,1195.1395,1196.1295,,,1196.6296,1196.8791,,69,-111,,,,,,,,,,,,,,,,bars/021.png,bars/mask006.png,,,,,,,,,,,,4,2,,,,,,,10,1,10,4,,,,,,,,,,,1196.1295,1196.6295,1196.8791,1200.0289,space,3.1373,,1200.029,86,1,1201.0286,1201.0286,1201.0377,,,,0,11,11,11,1,155,70,,,,,,,,
,,6580b24b0593cdbf4ce9449d,65af5532048963a67ab614d6,2024-01-22_23h58.12.853,bars,2023.2.3,Win32,59.88023952,657b66ea316d21385b68909f,,,,,,,,,,,1201.0379,1202.0286,,,1202.5281,1202.7785,,71,71,,,,,,,,,,,,,,,,bars/006.png,bars/mask001.png,,,,,,,,,,,,0,2,,,,,,,10,3,10,3,,,,,,,,,,,1202.0286,1202.5281,1202.7785,1204.3446,space,1.5577,,1204.3447,36,29,1205.3442,1205.3443,1205.3526,,,,0,12,12,12,1,35,100,,,,,,,,
,,6580b24b0593cdbf4ce9449d,65af5532048963a67ab614d6,2024-01-22_23h58.12.853,bars,2023.2.3,Win32,59.88023952,657b66ea316d21385b68909f,,,,,,,,,,,1205.3528,1206.3442,,,1206.8439,1207.0938,,58,58,,,,,,,,,,,,,,,,bars/025.png,bars/mask001.png,,,,,,,,,,,,1,2,,,,,,,8,5,6,3,,,,,,,,,,,1206.3442,1206.8439,1207.0939,1211.7764,space,4.6673,,1211.7764,47,18,1212.7761,1212.7762,1212.7844,,,,0,13,13,13,1,105,40,,,,,,,,
,,6580b24b0593cdbf4ce9449d,65af5532048963a67ab614d6,2024-01-22_23h58.12.853,bars,2023.2.3,Win32,59.88023952,657b66ea316d21385b68909f,,,,,,,,,,,1212.7846,1213.7759,,,1214.2758,1214.5256,,76,76,,,,,,,,,,,,,,,,bars/042.png,bars/mask009.png,,,,,,,,,,,,8,2,,,,,,,10,7,10,8,,,,,,,,,,,1213.7759,1214.2758,1214.5256,1216.0758,space,1.5375,,1216.0759,69,1,1217.0756,1217.0756,1217.0767,,,,0,14,14,14,1,145,75,,,,,,,,
,,6580b24b0593cdbf4ce9449d,65af5532048963a67ab614d6,2024-01-22_23h58.12.853,bars,2023.2.3,Win32,59.88023952,657b66ea316d21385b68909f,,,,,,,,,,,1217.077,1218.0754,,,1218.5757,1218.8248,,62,62,,,,,,,,,,,,,,,,bars/024.png,bars/mask005.png,,,,,,,,,,,,0,1,,,,,,,8,5,7,4,,,,,,,,,,,1218.0754,1218.5757,1218.8248,1221.7578,space,2.9167,,1221.7578,58,72,1222.7575,1222.7575,1222.7673,,,,0,15,15,15,1,120,170,,,,,,,,
,,6580b24b0593cdbf4ce9449d,65af5532048963a67ab614d6,2024-01-22_23h58.12.853,bars,2023.2.3,Win32,59.88023952,657b66ea316d21385b68909f,,,,,,,,,,,1222.7674,1223.7574,,,1224.2569,1224.5071,,38,38,,,,,,,,,,,,,,,,bars/013.png,bars/mask008.png,,,,,,,,,,,,0,2,,,,,,,6,3,5,5,,,,,,,,,,,1223.7574,1224.2569,1224.5071,1227.8396,space,3.3165,,1227.8397,37,28,1228.8396,1228.8396,1228.8486,,,,0,16,16,16,1,75,10,,,,,,,,
,,6580b24b0593cdbf4ce9449d,65af5532048963a67ab614d6,2024-01-22_23h58.12.853,bars,2023.2.3,Win32,59.88023952,657b66ea316d21385b68909f,,,,,,,,,,,1228.8488,1229.8393,,,1230.3392,1230.5892,,27,207,,,,,,,,,,,,,,,,bars/015.png,bars/mask001.png,,,,,,,,,,,,0,2,,,,,,,8,5,8,5,,,,,,,,,,,1229.8393,1230.3391,1230.5892,1232.2223,space,1.6166,,1232.2224,83,47,1233.2219,1233.2219,1233.2231,,,,0,17,17,17,1,110,160,,,,,,,,
,,6580b24b0593cdbf4ce9449d,65af5532048963a67ab614d6,2024-01-22_23h58.12.853,bars,2023.2.3,Win32,59.88023952,657b66ea316d21385b68909f,,,,,,,,,,,1233.2234,1234.2217,,,1234.7221,1234.9715,,74,74,,,,,,,,,,,,,,,,bars/042.png,bars/mask006.png,,,,,,,,,,,,3,2,,,,,,,6,3,7,3,,,,,,,,,,,1234.2217,1234.722,1234.9715,1237.6212,space,2.6415,,1237.6212,71,1,1238.6206,1238.6206,1238.6289,,,,0,18,18,18,1,145,75,,,,,,,,
,,6580b24b0593cdbf4ce9449d,65af5532048963a67ab614d6,2024-01-22_23h58.12.853,bars,2023.2.3,Win32,59.88023952,657b66ea316d21385b68909f,,,,,,,,,,,1238.6291,1239.6205,,,1240.1205,1240.3704,,152,152,,,,,,,,,,,,,,,,bars/016.png,bars/mask009.png,,,,,,,,,,,,1,2,,,,,,,8,1,9,1,,,,,,,,,,,1239.6205,1240.1204,1240.3704,1242.4702,space,2.0877,,1242.4702,68,13,1243.4699,1243.4699,1243.4786,,,,0,19,19,19,1,40,165,,,,,,,,
,,6580b24b0593cdbf4ce9449d,65af5532048963a67ab614d6,2024-01-22_23h58.12.853,bars,2023.2.3,Win32,59.88023952,657b66ea316d21385b68909f,,,,,,,,,,,1243.4788,1244.4695,,,1244.9696,1245.2192,,161,161,,,,,,,,,,,,,,,,bars/043.png,bars/mask004.png,,,,,,,,,,,,0,2,,,,,,,10,0,10,0,,,,,,,,,,,1244.4695,1244.9695,1245.2192,1248.2691,space,3.0335,,1248.2692,49,31,1249.2685,1249.2685,1249.2771,,,,0,20,20,20,1,30,130,,,,,,,,
,,6580b24b0593cdbf4ce9449d,65af5532048963a67ab614d6,2024-01-22_23h58.12.853,bars,2023.2.3,Win32,59.88023952,657b66ea316d21385b68909f,,,,,,,,,,,1249.2772,1250.2685,,,1250.7681,1251.0181,,39,39,,,,,,,,,,,,,,,,bars/043.png,bars/mask002.png,,,,,,,,,,,,4,1,,,,,,,8,0,6,0,,,,,,,,,,,1250.2685,1250.7681,1251.0182,1254.751,space,3.7193,,1254.7511,9,89,1255.7505,1255.7506,1255.7596,,,,0,21,21,21,1,30,130,,,,,,,,
,,6580b24b0593cdbf4ce9449d,65af5532048963a67ab614d6,2024-01-22_23h58.12.853,bars,2023.2.3,Win32,59.88023952,657b66ea316d21385b68909f,,,,,,,,,,,1255.7598,1256.7507,,,1257.2503,1257.5001,,29,29,,,,,,,,,,,,,,,,bars/045.png,bars/mask004.png,,,,,,,,,,,,0,2,,,,,,,6,0,7,0,,,,,,,,,,,1256.7507,1257.2503,1257.5002,1259.7666,space,2.2537,,1259.7666,71,19,1260.7663,1260.7664,1260.7756,,,,0,22,22,22,1,100,10,,,,,,,,
,,6580b24b0593cdbf4ce9449d,65af5532048963a67ab614d6,2024-01-22_23h58.12.853,bars,2023.2.3,Win32,59.88023952,657b66ea316d21385b68909f,,,,,,,,,,,1260.7758,1261.766,,,1262.2661,1262.5159,,72,72,,,,,,,,,,,,,,,,bars/021.png,bars/mask001.png,,,,,,,,,,,,1,2,,,,,,,4,2,2,1,,,,,,,,,,,1261.766,1262.2661,1262.516,1264.882,space,2.3497,,1264.8821,83,2,1265.882,1265.8821,1265.8912,,,,0,23,23,23,1,155,70,,,,,,,,
,,6580b24b0593cdbf4ce9449d,65af5532048963a67ab614d6,2024-01-22_23h58.12.853,bars,2023.2.3,Win32,59.88023952,657b66ea316d21385b68909f,,,,,,,,,,,1265.8914,1266.8815,,,1267.3817,1267.6316,,107,107,,,,,,,,,,,,,,,,bars/018.png,bars/mask008.png,,,,,,,,,,,,2,2,,,,,,,2,4,0,4,,,,,,,,,,,1266.8815,1267.3817,1267.6317,1271.364,space,3.7211,,1271.364,43,17,1272.3638,1272.3638,1272.3723,,,,0,24,24,24,1,150,90,,,,,,,,
,,6580b24b0593cdbf4ce9449d,65af5532048963a67ab614d6,2024-01-22_23h58.12.853,bars,2023.2.3,Win32,59.88023952,657b66ea316d21385b68909f,,,,,,,,,,,1272.3725,1273.3635,,,1273.8638,1274.1138,,61,241,,,,,,,,,,,,,,,,bars/048.png,bars/mask004.png,,,,,,,,,,,,0,1,,,,,,,0,6,0,6,,,,,,,,,,,1273.3636,1273.8637,1274.1138,1277.1628,space,3.0345,,1277.1629,11,66,1278.1628,1278.1628,1278.1727,,,,0,25,25,25,1,50,175,,,,,,,,
,,6580b24b0593cdbf4ce9449d,65af5532048963a67ab614d6,2024-01-22_23h58.12.853,bars,2023.2.3,Win32,59.88023952,657b66ea316d21385b68909f,,,,,,,,,,,1278.173,1279.1629,,,1279.6625,1279.9124,,129,-51,,,,,,,,,,,,,,,,bars/000.png,bars/mask006.png,,,,,,,,,,,,4,2,,,,,,,2,8,3,8,,,,,,,,,,,1279.1629,1279.6625,1279.9124,1282.7958,space,2.8665,,1282.7959,89,16,1283.7948,1283.7948,1283.804,,,,0,26,26,26,1,40,145,,,,,,,,
,,6580b24b0593cdbf4ce9449d,65af5532048963a67ab614d6,2024-01-22_23h58.12.853,bars,2023.2.3,Win32,59.88023952,657b66ea316d21385b68909f,,,,,,,,,,,1283.8042,1284.7947,,,1285.2948,1285.5443,,104,104,,,,,,,,,,,,,,,,bars/011.png,bars/mask001.png,,,,,,,,,,,,2,2,,,,,,,0,6,0,6,,,,,,,,,,,1284.7947,1285.2948,1285.5443,1287.2943,space,1.735,,1287.2944,56,19,1288.294,1288.294,1288.295,,,,0,27,27,27,1,160,85,,,,,,,,
,,6580b24b0593cdbf4ce9449d,65af5532048963a67ab614d6,2024-01-22_23h58.12.853,bars,2023.2.3,Win32,59.88023952,657b66ea316d21385b68909f,,,,,,,,,,,1288.2953,1289.2937,,,1289.7936,1290.0434,,81,81,,,,,,,,,,,,,,,,bars/042.png,bars/mask005.png,,,,,,,,,,,,6,2,,,,,,,0,8,0,8,,,,,,,,,,,1289.2937,1289.7935,1290.0434,1291.9435,space,1.8835,,1291.9435,64,6,1292.9427,1292.9428,1292.9434,,,,0,28,28,28,1,145,75,,,,,,,,
,,6580b24b0593cdbf4ce9449d,65af5532048963a67ab614d6,2024-01-22_23h58.12.853,bars,2023.2.3,Win32,59.88023952,657b66ea316d21385b68909f,,,,,,,,,,,1292.9439,1293.9425,,,1294.4427,1294.6927,,76,76,,,,,,,,,,,,,,,,bars/018.png,bars/mask008.png,,,,,,,,,,,,4,2,,,,,,,2,6,2,7,,,,,,,,,,,1293.9425,1294.4426,1294.6928,1296.4257,space,1.7193,,1296.4258,74,14,1297.4254,1297.4254,1297.4342,,,,0,29,29,29,1,150,90,,,,,,,,
,,6580b24b0593cdbf4ce9449d,65af5532048963a67ab614d6,2024-01-22_23h58.12.853,bars,2023.2.3,Win32,59.88023952,657b66ea316d21385b68909f,,,,,,,,,,,1297.4343,1298.4253,,,1298.9252,1299.175,,86,86,,,,,,,,,,,,,,,,bars/023.png,bars/mask002.png,,,,,,,,,,,,0,2,,,,,,,0,8,0,10,,,,,,,,,,,1298.4253,1298.9252,1299.175,1300.5585,space,1.3744,,1300.5585,66,29,1301.5578,1301.5579,1301.5665,,,,0,30,30,30,1,20,115,,,,,,,,
,,6580b24b0593cdbf4ce9449d,65af5532048963a67ab614d6,2024-01-22_23h58.12.853,bars,2023.2.3,Win32,59.88023952,657b66ea316d21385b68909f,,,,,,,,,,,1301.5666,1302.5578,,,1303.0574,1303.3077,,43,43,,,,,,,,,,,,,,,,bars/045.png,bars/mask005.png,,,,,,,,,,,,0,2,,,,,,,0,6,0,6,,,,,,,,,,,1302.5578,1303.0573,1303.3077,1305.5238,space,2.2016,,1305.5238,57,33,1306.5238,1306.5238,1306.5325,,,,0,31,31,31,1,100,10,,,,,,,,
,,6580b24b0593cdbf4ce9449d,65af5532048963a67ab614d6,2024-01-22_23h58.12.853,bars,2023.2.3,Win32,59.88023952,657b66ea316d21385b68909f,,,,,,,,,,,1306.5327,1307.5233,,,1308.0232,1308.2729,,148,148,,,,,,,,,,,,,,,,bars/033.png,bars/mask008.png,,,,,,,,,,,,5,2,,,,,,,2,8,3,7,,,,,,,,,,,1307.5233,1308.0232,1308.273,1313.2388,space,4.9601,,1313.2388,57,7,1314.2383,1314.2384,1314.2468,,,,0,32,32,32,1,25,155,,,,,,,,
,,6580b24b0593cdbf4ce9449d,65af5532048963a67ab614d6,2024-01-22_23h58.12.853,bars,2023.2.3,Win32,59.88023952,657b66ea316d21385b68909f,,,,,,,,,,,1314.2469,1315.2381,,,1315.7385,1315.988,,62,62,,,,,,,,,,,,,,,,bars/017.png,bars/mask003.png,,,,,,,,,,,,4,2,,,,,,,4,10,2,10,,,,,,,,,,,1315.2381,1315.7384,1315.988,1318.9049,space,2.9028,,1318.9049,83,17,1319.904,1319.904,1319.9126,,,,0,33,33,33,1,145,45,,,,,,,,
,,6580b24b0593cdbf4ce9449d,65af5532048963a67ab614d6,2024-01-22_23h58.12.853,bars,2023.2.3,Win32,59.88023952,657b66ea316d21385b68909f,,,,,,,,,,,1319.9127,1320.9042,,,1321.4041,1321.6536,,44,44,,,,,,,,,,,,,,,,bars/014.png,bars/mask000.png,,,,,,,,,,,,0,1,,,,,,,6,10,7,8,,,,,,,,,,,1320.9043,1321.4041,1321.6537,1323.9203,space,2.2499,,1323.9204,36,44,1324.9196,1324.9196,1324.9215,,,,0,34,34,34,1,80,0,,,,,,,,
,,6580b24b0593cdbf4ce9449d,65af5532048963a67ab614d6,2024-01-22_23h58.12.853,bars,2023.2.3,Win32,59.88023952,657b66ea316d21385b68909f,,,,,,,,,,,1324.9218,1325.9196,,,1326.4193,1326.6694,,74,74,,,,,,,,,,,,,,,,bars/046.png,bars/mask005.png,,,,,,,,,,,,6,2,,,,,,,8,8,9,9,,,,,,,,,,,1325.9196,1326.4192,1326.6694,1328.7023,space,2.0261,,1328.7023,81,11,1329.7022,1329.7023,1329.7117,,,,0,35,35,35,1,155,85,,,,,,,,
,,6580b24b0593cdbf4ce9449d,65af5532048963a67ab614d6,2024-01-22_23h58.12.853,bars,2023.2.3,Win32,59.88023952,657b66ea316d21385b68909f,,,,,,,,,,,1329.7119,1330.7017,,,1331.2016,1331.4517,,47,47,,,,,,,,,,,,,,,,bars/027.png,bars/mask001.png,,,,,,,,,,,,9,2,,,,,,,6,10,7,10,,,,,,,,,,,1330.7017,1331.2016,1331.4518,1333.3513,space,1.8851,,1333.3514,63,3,1334.3511,1334.3511,1334.3595,,,,0,36,36,36,1,110,50,,,,,,,,
,,6580b24b0593cdbf4ce9449d,65af5532048963a67ab614d6,2024-01-22_23h58.12.853,bars,2023.2.3,Win32,59.88023952,657b66ea316d21385b68909f,,,,,,,,,,,1334.3597,1335.3512,,,1335.8506,1336.1012,,81,-99,,,,,,,,,,,,,,,,bars/001.png,bars/mask004.png,,,,,,,,,,,,7,2,,,,,,,8,8,9,8,,,,,,,,,,,1335.3512,1335.8506,1336.1012,1340.1506,space,4.0331,,1340.1507,49,4,1341.1496,1341.1496,1341.1581,,,,0,37,37,37,1,130,85,,,,,,,,
,,6580b24b0593cdbf4ce9449d,65af5532048963a67ab614d6,2024-01-22_23h58.12.853,bars,2023.2.3,Win32,59.88023952,657b66ea316d21385b68909f,,,,,,,,,,,1341.1583,1342.1492,,,1342.6495,1342.8993,,106,106,,,,,,,,,,,,,,,,bars/006.png,bars/mask007.png,,,,,,,,,,,,8,2,,,,,,,10,10,10,10,,,,,,,,,,,1342.1492,1342.6495,1342.8993,1344.249,space,1.334,,1344.2491,71,6,1345.249,1345.2491,1345.2499,,,,0,38,38,38,1,35,100,,,,,,,,
,,6580b24b0593cdbf4ce9449d,65af5532048963a67ab614d6,2024-01-22_23h58.12.853,bars,2023.2.3,Win32,59.88023952,657b66ea316d21385b68909f,,,,,,,,,,,1345.2502,1346.2486,,,1346.7488,1346.999,,108,108,,,,,,,,,,,,,,,,bars/002.png,bars/mask005.png,,,,,,,,,,,,3,1,,,,,,,10,10,10,10,,,,,,,,,,,1346.2487,1346.7488,1346.999,1348.7313,space,1.7237,,1348.7313,22,23,1349.7312,1349.7312,1349.7405,,,,0,39,39,39,1,130,85,,,,,,,,
,,6580b24b0593cdbf4ce9449d,65af5532048963a67ab614d6,2024-01-22_23h58.12.853,bars,2023.2.3,Win32,59.88023952,657b66ea316d21385b68909f,,,,,,,,,,,1349.7406,1350.7309,,,1351.2309,1351.4808,,107,107,,,,,,,,,,,,,,,,bars/020.png,bars/mask000.png,,,,,,,,,,,,5,1,,,,,,,8,8,7,7,,,,,,,,,,,1350.7309,1351.2309,1351.4808,1353.4639,space,1.9675,,1353.464,8,63,1354.4635,1354.4636,1354.4721,,,,0,40,40,40,1,115,170,,,,,,,,
,,6580b24b0593cdbf4ce9449d,65af5532048963a67ab614d6,2024-01-22_23h58.12.853,bars,2023.2.3,Win32,59.88023952,657b66ea316d21385b68909f,,,,,,,,,,,1354.4723,1355.4635,,,1355.9636,1356.2131,,96,96,,,,,,,,,,,,,,,,bars/037.png,bars/mask007.png,,,,,,,,,,,,4,2,,,,,,,10,6,10,5,,,,,,,,,,,1355.4635,1355.9635,1356.2131,1359.1959,space,2.9692,,1359.1959,54,9,1360.1957,1360.1958,1360.2054,,,,0,41,41,41,1,150,105,,,,,,,,
,,6580b24b0593cdbf4ce9449d,65af5532048963a67ab614d6,2024-01-22_23h58.12.853,bars,2023.2.3,Win32,59.88023952,657b66ea316d21385b68909f,,,,,,,,,,,1360.2057,1361.1957,,,1361.6955,1361.9455,,89,89,,,,,,,,,,,,,,,,bars/039.png,bars/mask002.png,,,,,,,,,,,,3,2,,,,,,,8,8,7,7,,,,,,,,,,,1361.1957,1361.6955,1361.9455,1364.0787,space,2.1286,,1364.0787,86,16,1365.0782,1365.0783,1365.0793,,,,0,42,42,42,1,175,105,,,,,,,,
,,6580b24b0593cdbf4ce9449d,65af5532048963a67ab614d6,2024-01-22_23h58.12.853,bars,2023.2.3,Win32,59.88023952,657b66ea316d21385b68909f,,,,,,,,,,,1365.0797,1366.0783,,,1366.5783,1366.8281,,57,57,,,,,,,,,,,,,,,,bars/035.png,bars/mask005.png,,,,,,,,,,,,5,2,,,,,,,6,6,4,5,,,,,,,,,,,1366.0783,1366.5783,1366.8282,1368.0108,space,1.1687,,1368.0108,62,3,1369.0105,1369.0105,1369.0114,,,,0,43,43,43,1,175,60,,,,,,,,
,,6580b24b0593cdbf4ce9449d,65af5532048963a67ab614d6,2024-01-22_23h58.12.853,bars,2023.2.3,Win32,59.88023952,657b66ea316d21385b68909f,,,,,,,,,,,1369.0117,1370.0102,,,1370.5103,1370.7606,,137,137,,,,,,,,,,,,,,,,bars/009.png,bars/mask003.png,,,,,,,,,,,,0,2,,,,,,,8,4,7,4,,,,,,,,,,,1370.0103,1370.5103,1370.7606,1371.6098,space,0.8328,,1371.6098,58,32,1372.6099,1372.61,1372.6109,,,,0,44,44,44,1,15,105,,,,,,,,
,,6580b24b0593cdbf4ce9449d,65af5532048963a67ab614d6,2024-01-22_23h58.12.853,bars,2023.2.3,Win32,59.88023952,657b66ea316d21385b68909f,,,,,,,,,,,1372.6114,1373.6098,,,1374.1096,1374.3598,,11,11,,,,,,,,,,,,,,,,bars/016.png,bars/mask002.png,,,,,,,,,,,,1,2,,,,,,,10,6,10,6,,,,,,,,,,,1373.6098,1374.1096,1374.3598,1375.6096,space,1.2365,,1375.6097,29,26,1376.6091,1376.6091,1376.6104,,,,0,45,45,45,1,40,165,,,,,,,,
,,6580b24b0593cdbf4ce9449d,65af5532048963a67ab614d6,2024-01-22_23h58.12.853,bars,2023.2.3,Win32,59.88023952,657b66ea316d21385b68909f,,,,,,,,,,,1376.6106,1377.6088,,,1378.109,1378.3586,,79,79,,,,,,,,,,,,,,,,bars/014.png,bars/mask001.png,,,,,,,,,,,,7,1,,,,,,,8,4,7,5,,,,,,,,,,,1377.6088,1378.109,1378.3586,1380.3583,space,1.993,,1380.3584,1,79,1381.3578,1381.3579,1381.3672,,,,0,46,46,46,1,80,0,,,,,,,,
,,6580b24b0593cdbf4ce9449d,65af5532048963a67ab614d6,2024-01-22_23h58.12.853,bars,2023.2.3,Win32,59.88023952,657b66ea316d21385b68909f,,,,,,,,,,,1381.3674,1382.3575,,,1382.8575,1383.1081,,112,112,,,,,,,,,,,,,,,,bars/015.png,bars/mask008.png,,,,,,,,,,,,9,1,,,,,,,10,6,10,5,,,,,,,,,,,1382.3576,1382.8575,1383.1081,1383.8578,space,0.7434,,1383.8579,2,48,1384.8575,1384.8576,1384.8588,,,,0,47,47,47,1,110,160,,,,,,,,
,,6580b24b0593cdbf4ce9449d,65af5532048963a67ab614d6,2024-01-22_23h58.12.853,bars,2023.2.3,Win32,59.88023952,657b66ea316d21385b68909f,,,,,,,,,,,1384.8595,1385.8568,,,1386.3571,1386.607,,106,106,,,,,,,,,,,,,,,,bars/037.png,bars/mask009.png,,,,,,,,,,,,8,2,,,,,,,8,8,7,8,,,,,,,,,,,1385.8568,1386.357,1386.607,1388.3563,space,1.745,,1388.3563,44,1,1389.3566,1389.3566,1389.3664,,,,0,48,48,48,1,150,105,,,,,,,,
,,6580b24b0593cdbf4ce9449d,65af5532048963a67ab614d6,2024-01-22_23h58.12.853,bars,2023.2.3,Win32,59.88023952,657b66ea316d21385b68909f,,,,,,,,,,,1389.3666,1390.3562,,,1390.8561,1391.106,,71,71,,,,,,,,,,,,,,,,bars/044.png,bars/mask009.png,,,,,,,,,,,,6,1,,,,,,,6,10,7,10,,,,,,,,,,,1390.3563,1390.8561,1391.1061,1393.9565,space,2.834,,1393.9566,4,84,1394.9552,1394.9552,1394.9643,,,,0,49,49,49,1,75,155,,,,,,,,
,,6580b24b0593cdbf4ce9449d,65af5532048963a67ab614d6,2024-01-22_23h58.12.853,bars,2023.2.3,Win32,59.88023952,657b66ea316d21385b68909f,,,,,,,,,,,,,,,,,,,,,,,,,,,,,,,,,,,,,,,,,,,,,,,,,,,,,,,,,,,,,,,,,,,,,,,,,,,,,,,,,,,,,,,,,,,,,1394.9644,1454.9598,0,1,1,4,1,sequence_tables/blk009.csv
,,6580b24b0593cdbf4ce9449d,65af5532048963a67ab614d6,2024-01-22_23h58.12.853,bars,2023.2.3,Win32,59.88023952,657b66ea316d21385b68909f,,,,,,,,,,,1461.0363,1462.0247,,,1462.525,1462.7746,,59,59,,,,,,,,,,,,,,,,bars/034.png,bars/mask002.png,,,,,,,,,,,,2,2,,,,,,,7,2,8,3,,,,,,1454.9691,1461.0248,space,6.0509,,1462.0247,1462.525,1462.7746,1464.2743,space,1.4895,,1464.2743,66,6,1465.2745,1465.2745,1465.2837,,,,0,0,0,0,1,125,65,,,,,,,,
,,6580b24b0593cdbf4ce9449d,65af5532048963a67ab614d6,2024-01-22_23h58.12.853,bars,2023.2.3,Win32,59.88023952,657b66ea316d21385b68909f,,,,,,,,,,,1465.2838,1466.2741,,,1466.7741,1467.0241,,158,-22,,,,,,,,,,,,,,,,bars/033.png,bars/mask008.png,,,,,,,,,,,,5,2,,,,,,,9,4,8,5,,,,,,,,,,,1466.2741,1466.774,1467.0242,1469.0067,space,1.9717,,1469.0069,47,3,1470.0065,1470.0066,1470.0152,,,,0,1,1,1,1,25,155,,,,,,,,
,,6580b24b0593cdbf4ce9449d,65af5532048963a67ab614d6,2024-01-22_23h58.12.853,bars,2023.2.3,Win32,59.88023952,657b66ea316d21385b68909f,,,,,,,,,,,1470.0154,1471.0061,,,1471.5063,1471.7561,,19,19,,,,,,,,,,,,,,,,bars/032.png,bars/mask009.png,,,,,,,,,,,,6,2,,,,,,,7,6,6,6,,,,,,,,,,,1471.0062,1471.5063,1471.7561,1473.7724,space,2.01,,1473.7724,74,1,1474.772,1474.772,1474.7731,,,,0,2,2,2,1,125,20,,,,,,,,
,,6580b24b0593cdbf4ce9449d,65af5532048963a67ab614d6,2024-01-22_23h58.12.853,bars,2023.2.3,Win32,59.88023952,657b66ea316d21385b68909f,,,,,,,,,,,1474.7736,1475.7717,,,1476.2717,1476.5216,,57,57,,,,,,,,,,,,,,,,bars/030.png,bars/mask004.png,,,,,,,,,,,,7,2,,,,,,,5,8,6,9,,,,,,,,,,,1475.7717,1476.2717,1476.5216,1477.9046,space,1.3785,,1477.9046,83,8,1478.9046,1478.9046,1478.9052,,,,0,3,3,3,1,140,65,,,,,,,,
,,6580b24b0593cdbf4ce9449d,65af5532048963a67ab614d6,2024-01-22_23h58.12.853,bars,2023.2.3,Win32,59.88023952,657b66ea316d21385b68909f,,,,,,,,,,,1478.9057,1479.9044,,,1480.4044,1480.6542,,64,64,,,,,,,,,,,,,,,,bars/012.png,bars/mask003.png,,,,,,,,,,,,0,1,,,,,,,3,6,2,6,,,,,,,,,,,1479.9044,1480.4044,1480.6543,1483.8872,space,3.2179,,1483.8872,26,49,1484.8866,1484.8867,1484.896,,,,0,4,4,4,1,90,15,,,,,,,,
,,6580b24b0593cdbf4ce9449d,65af5532048963a67ab614d6,2024-01-22_23h58.12.853,bars,2023.2.3,Win32,59.88023952,657b66ea316d21385b68909f,,,,,,,,,,,1484.8962,1485.8869,,,1486.3865,1486.6366,,160,160,,,,,,,,,,,,,,,,bars/015.png,bars/mask007.png,,,,,,,,,,,,5,2,,,,,,,5,4,4,5,,,,,,,,,,,1485.8869,1486.3865,1486.6367,1488.6858,space,2.0459,,1488.6859,50,0,1489.6856,1489.6856,1489.6947,,,,0,5,5,5,1,110,160,,,,,,,,
,,6580b24b0593cdbf4ce9449d,65af5532048963a67ab614d6,2024-01-22_23h58.12.853,bars,2023.2.3,Win32,59.88023952,657b66ea316d21385b68909f,,,,,,,,,,,1489.695,1490.6854,,,1491.186,1491.4354,,139,-41,,,,,,,,,,,,,,,,bars/012.png,bars/mask003.png,,,,,,,,,,,,0,1,,,,,,,3,2,3,3,,,,,,,,,,,1490.6855,1491.1859,1491.4354,1493.8013,space,2.3535,,1493.8014,49,56,1494.8014,1494.8015,1494.8035,,,,0,6,6,6,1,90,15,,,,,,,,
,,6580b24b0593cdbf4ce9449d,65af5532048963a67ab614d6,2024-01-22_23h58.12.853,bars,2023.2.3,Win32,59.88023952,657b66ea316d21385b68909f,,,,,,,,,,,1494.8038,1495.801,,,1496.3016,1496.5511,,17,17,,,,,,,,,,,,,,,,bars/014.png,bars/mask006.png,,,,,,,,,,,,1,2,,,,,,,1,4,2,3,,,,,,,,,,,1495.801,1496.3015,1496.5512,1497.8173,space,1.2536,,1497.8173,63,17,1498.817,1498.817,1498.8196,,,,0,7,7,7,1,80,0,,,,,,,,
,,6580b24b0593cdbf4ce9449d,65af5532048963a67ab614d6,2024-01-22_23h58.12.853,bars,2023.2.3,Win32,59.88023952,657b66ea316d21385b68909f,,,,,,,,,,,1498.82,1499.8168,,,1500.3171,1500.5667,,112,-68,,,,,,,,,,,,,,,,bars/035.png,bars/mask000.png,,,,,,,,,,,,0,2,,,,,,,0,2,0,3,,,,,,,,,,,1499.8169,1500.317,1500.5667,1504.1162,space,3.5433,,1504.1162,63,52,1505.116,1505.116,1505.1248,,,,0,8,8,8,1,175,60,,,,,,,,
,,6580b24b0593cdbf4ce9449d,65af5532048963a67ab614d6,2024-01-22_23h58.12.853,bars,2023.2.3,Win32,59.88023952,657b66ea316d21385b68909f,,,,,,,,,,,1505.1249,1506.1156,,,1506.6157,1506.8654,,82,82,,,,,,,,,,,,,,,,bars/021.png,bars/mask000.png,,,,,,,,,,,,3,2,,,,,,,0,4,0,5,,,,,,,,,,,1506.1157,1506.6157,1506.8654,1509.0483,space,2.1726,,1509.0483,73,12,1510.0483,1510.0483,1510.057,,,,0,9,9,9,1,155,70,,,,,,,,
,,6580b24b0593cdbf4ce9449d,65af5532048963a67ab614d6,2024-01-22_23h58.12.853,bars,2023.2.3,Win32,59.88023952,657b66ea316d21385b68909f,,,,,,,,,,,1510.0571,1511.0481,,,1511.5481,1511.7979,,59,59,,,,,,,,,,,,,,,,bars/001.png,bars/mask001.png,,,,,,,,,,,,1,2,,,,,,,0,6,0,6,,,,,,,,,,,1511.0482,1511.5481,1511.7979,1513.2141,space,1.4006,,1513.2141,71,26,1514.2142,1514.2142,1514.2151,,,,0,10,10,10,1,130,85,,,,,,,,
,,6580b24b0593cdbf4ce9449d,65af5532048963a67ab614d6,2024-01-22_23h58.12.853,bars,2023.2.3,Win32,59.88023952,657b66ea316d21385b68909f,,,,,,,,,,,1514.2153,1515.2138,,,1515.7137,1515.9638,,80,80,,,,,,,,,,,,,,,,bars/018.png,bars/mask006.png,,,,,,,,,,,,5,2,,,,,,,2,8,2,8,,,,,,,,,,,1515.2139,1515.7137,1515.9638,1517.8802,space,1.9001,,1517.8802,70,10,1518.8796,1518.8797,1518.8809,,,,0,11,11,11,1,150,90,,,,,,,,
,,6580b24b0593cdbf4ce9449d,65af5532048963a67ab614d6,2024-01-22_23h58.12.853,bars,2023.2.3,Win32,59.88023952,657b66ea316d21385b68909f,,,,,,,,,,,1518.8812,1519.8803,,,1520.3792,1520.6298,,151,-29,,,,,,,,,,,,,,,,bars/033.png,bars/mask003.png,,,,,,,,,,,,5,2,,,,,,,4,6,5,6,,,,,,,,,,,1519.8804,1520.3792,1520.6299,1522.6621,space,2.016,,1522.6622,54,4,1523.6618,1523.6619,1523.6708,,,,0,12,12,12,1,25,155,,,,,,,,
,,6580b24b0593cdbf4ce9449d,65af5532048963a67ab614d6,2024-01-22_23h58.12.853,bars,2023.2.3,Win32,59.88023952,657b66ea316d21385b68909f,,,,,,,,,,,1523.671,1524.6619,,,1525.1617,1525.4118,,118,118,,,,,,,,,,,,,,,,bars/015.png,bars/mask009.png,,,,,,,,,,,,1,1,,,,,,,2,8,1,8,,,,,,,,,,,1524.6619,1525.1617,1525.4118,1529.4943,space,4.0667,,1529.4943,8,42,1530.4938,1530.4939,1530.5029,,,,0,13,13,13,1,110,160,,,,,,,,
,,6580b24b0593cdbf4ce9449d,65af5532048963a67ab614d6,2024-01-22_23h58.12.853,bars,2023.2.3,Win32,59.88023952,657b66ea316d21385b68909f,,,,,,,,,,,1530.5031,1531.4941,,,1531.9941,1532.2436,,104,104,,,,,,,,,,,,,,,,bars/006.png,bars/mask005.png,,,,,,,,,,,,9,2,,,,,,,4,10,3,10,,,,,,,,,,,1531.4941,1531.9941,1532.2436,1533.2936,space,1.0331,,1533.2937,69,4,1534.293,1534.293,1534.295,,,,0,14,14,14,1,35,100,,,,,,,,
,,6580b24b0593cdbf4ce9449d,65af5532048963a67ab614d6,2024-01-22_23h58.12.853,bars,2023.2.3,Win32,59.88023952,657b66ea316d21385b68909f,,,,,,,,,,,1534.2952,1535.2927,,,1535.7931,1536.0431,,17,197,,,,,,,,,,,,,,,,bars/024.png,bars/mask009.png,,,,,,,,,,,,1,2,,,,,,,2,10,3,9,,,,,,,,,,,1535.2927,1535.7931,1536.0431,1538.609,space,2.5579,,1538.6091,77,27,1539.6088,1539.6088,1539.6172,,,,0,15,15,15,1,120,170,,,,,,,,
,,6580b24b0593cdbf4ce9449d,65af5532048963a67ab614d6,2024-01-22_23h58.12.853,bars,2023.2.3,Win32,59.88023952,657b66ea316d21385b68909f,,,,,,,,,,,1539.6174,1540.6086,,,1541.1083,1541.3588,,74,74,,,,,,,,,,,,,,,,bars/026.png,bars/mask002.png,,,,,,,,,,,,5,2,,,,,,,0,10,0,8,,,,,,,,,,,1540.6087,1541.1083,1541.3589,1545.3747,space,4.0067,,1545.3747,39,11,1546.3741,1546.3742,1546.3826,,,,0,16,16,16,1,35,85,,,,,,,,
,,6580b24b0593cdbf4ce9449d,65af5532048963a67ab614d6,2024-01-22_23h58.12.853,bars,2023.2.3,Win32,59.88023952,657b66ea316d21385b68909f,,,,,,,,,,,1546.3828,1547.3738,,,1547.8737,1548.1237,,129,129,,,,,,,,,,,,,,,,bars/040.png,bars/mask004.png,,,,,,,,,,,,1,1,,,,,,,2,8,2,10,,,,,,,,,,,1547.3739,1547.8737,1548.1238,1550.5902,space,2.4495,,1550.5902,11,56,1551.5897,1551.5898,1551.5994,,,,0,17,17,17,1,140,5,,,,,,,,
,,6580b24b0593cdbf4ce9449d,65af5532048963a67ab614d6,2024-01-22_23h58.12.853,bars,2023.2.3,Win32,59.88023952,657b66ea316d21385b68909f,,,,,,,,,,,1551.5996,1552.5896,,,1553.0895,1553.3394,,159,-21,,,,,,,,,,,,,,,,bars/016.png,bars/mask004.png,,,,,,,,,,,,8,2,,,,,,,4,10,5,10,,,,,,,,,,,1552.5897,1553.0895,1553.3394,1554.6889,space,1.3428,,1554.6889,61,6,1555.689,1555.689,1555.6909,,,,0,18,18,18,1,40,165,,,,,,,,
,,6580b24b0593cdbf4ce9449d,65af5532048963a67ab614d6,2024-01-22_23h58.12.853,bars,2023.2.3,Win32,59.88023952,657b66ea316d21385b68909f,,,,,,,,,,,1555.6912,1556.6884,,,1557.1884,1557.4384,,76,76,,,,,,,,,,,,,,,,bars/011.png,bars/mask009.png,,,,,,,,,,,,7,2,,,,,,,6,10,5,10,,,,,,,,,,,1556.6884,1557.1883,1557.4385,1558.5218,space,1.078,,1558.5218,84,9,1559.5214,1559.5214,1559.5224,,,,0,19,19,19,1,160,85,,,,,,,,
,,6580b24b0593cdbf4ce9449d,65af5532048963a67ab614d6,2024-01-22_23h58.12.853,bars,2023.2.3,Win32,59.88023952,657b66ea316d21385b68909f,,,,,,,,,,,1559.5227,1560.5212,,,1561.021,1561.2708,,110,110,,,,,,,,,,,,,,,,bars/009.png,bars/mask002.png,,,,,,,,,,,,8,2,,,,,,,8,10,9,10,,,,,,,,,,,1560.5213,1561.0209,1561.2708,1563.6039,space,2.3172,,1563.604,85,5,1564.6036,1564.6037,1564.6124,,,,0,20,20,20,1,15,105,,,,,,,,
,,6580b24b0593cdbf4ce9449d,65af5532048963a67ab614d6,2024-01-22_23h58.12.853,bars,2023.2.3,Win32,59.88023952,657b66ea316d21385b68909f,,,,,,,,,,,1564.6126,1565.6033,,,1566.1034,1566.3532,,56,56,,,,,,,,,,,,,,,,bars/040.png,bars/mask002.png,,,,,,,,,,,,0,2,,,,,,,6,8,6,10,,,,,,,,,,,1565.6034,1566.1034,1566.3532,1568.6531,space,2.2834,,1568.6532,84,51,1569.6529,1569.6529,1569.6615,,,,0,21,21,21,1,140,5,,,,,,,,
,,6580b24b0593cdbf4ce9449d,65af5532048963a67ab614d6,2024-01-22_23h58.12.853,bars,2023.2.3,Win32,59.88023952,657b66ea316d21385b68909f,,,,,,,,,,,1569.6616,1570.6524,,,1571.1524,1571.4023,,97,97,,,,,,,,,,,,,,,,bars/011.png,bars/mask001.png,,,,,,,,,,,,3,2,,,,,,,4,6,6,5,,,,,,,,,,,1570.6524,1571.1524,1571.4024,1575.2516,space,3.8393,,1575.2516,63,12,1576.2515,1576.2516,1576.2599,,,,0,22,22,22,1,160,85,,,,,,,,
,,6580b24b0593cdbf4ce9449d,65af5532048963a67ab614d6,2024-01-22_23h58.12.853,bars,2023.2.3,Win32,59.88023952,657b66ea316d21385b68909f,,,,,,,,,,,1576.2601,1577.2512,,,1577.7508,1578.001,,121,-59,,,,,,,,,,,,,,,,bars/040.png,bars/mask008.png,,,,,,,,,,,,1,1,,,,,,,2,8,2,8,,,,,,,,,,,1577.2512,1577.7508,1578.001,1583.6495,space,5.6418,,1583.6495,19,64,1584.6502,1584.6502,1584.6595,,,,0,23,23,23,1,140,5,,,,,,,,
,,6580b24b0593cdbf4ce9449d,65af5532048963a67ab614d6,2024-01-22_23h58.12.853,bars,2023.2.3,Win32,59.88023952,657b66ea316d21385b68909f,,,,,,,,,,,1584.6597,1585.6494,,,1586.1493,1586.3991,,77,77,,,,,,,,,,,,,,,,bars/039.png,bars/mask008.png,,,,,,,,,,,,1,2,,,,,,,4,10,4,10,,,,,,,,,,,1585.6495,1586.1493,1586.3991,1589.182,space,2.7713,,1589.182,82,28,1590.1817,1590.1819,1590.1914,,,,0,24,24,24,1,175,105,,,,,,,,
,,6580b24b0593cdbf4ce9449d,65af5532048963a67ab614d6,2024-01-22_23h58.12.853,bars,2023.2.3,Win32,59.88023952,657b66ea316d21385b68909f,,,,,,,,,,,1590.1916,1591.1815,,,1591.6818,1591.9313,,85,85,,,,,,,,,,,,,,,,bars/035.png,bars/mask003.png,,,,,,,,,,,,1,2,,,,,,,2,8,3,7,,,,,,,,,,,1591.1815,1591.6817,1591.9314,1592.6322,space,0.6831,,1592.6322,90,25,1593.6308,1593.6308,1593.6313,,,,0,25,25,25,1,175,60,,,,,,,,
,,6580b24b0593cdbf4ce9449d,65af5532048963a67ab614d6,2024-01-22_23h58.12.853,bars,2023.2.3,Win32,59.88023952,657b66ea316d21385b68909f,,,,,,,,,,,1593.6317,1594.6307,,,1595.1308,1595.3804,,75,75,,,,,,,,,,,,,,,,bars/026.png,bars/mask000.png,,,,,,,,,,,,7,2,,,,,,,0,10,0,10,,,,,,,,,,,1594.6307,1595.1307,1595.3805,1597.4469,space,2.0499,,1597.447,40,10,1598.4466,1598.4466,1598.4475,,,,0,26,26,26,1,35,85,,,,,,,,
,,6580b24b0593cdbf4ce9449d,65af5532048963a67ab614d6,2024-01-22_23h58.12.853,bars,2023.2.3,Win32,59.88023952,657b66ea316d21385b68909f,,,,,,,,,,,1598.4476,1599.4463,,,1599.9465,1600.1963,,109,109,,,,,,,,,,,,,,,,bars/020.png,bars/mask007.png,,,,,,,,,,,,2,1,,,,,,,2,10,2,10,,,,,,,,,,,1599.4463,1599.9465,1600.1964,1601.4628,space,1.2519,,1601.4629,6,61,1602.4626,1602.4626,1602.4644,,,,0,27,27,27,1,115,170,,,,,,,,
,,6580b24b0593cdbf4ce9449d,65af5532048963a67ab614d6,2024-01-22_23h58.12.853,bars,2023.2.3,Win32,59.88023952,657b66ea316d21385b68909f,,,,,,,,,,,1602.4647,1603.4624,,,1603.9623,1604.2123,,106,106,,,,,,,,,,,,,,,,bars/009.png,bars/mask009.png,,,,,,,,,,,,10,2,,,,,,,0,10,1,10,,,,,,,,,,,1603.4624,1603.9623,1604.2123,1608.2454,space,4.0208,,1608.2455,89,1,1609.2446,1609.2446,1609.2539,,,,0,28,28,28,1,15,105,,,,,,,,
,,6580b24b0593cdbf4ce9449d,65af5532048963a67ab614d6,2024-01-22_23h58.12.853,bars,2023.2.3,Win32,59.88023952,657b66ea316d21385b68909f,,,,,,,,,,,1609.2541,1610.2442,,,1610.7443,1610.9941,,63,63,,,,,,,,,,,,,,,,bars/026.png,bars/mask002.png,,,,,,,,,,,,2,2,,,,,,,0,8,2,8,,,,,,,,,,,1610.2442,1610.7443,1610.9941,1614.1433,space,3.1394,,1614.1433,28,22,1615.1434,1615.1434,1615.1526,,,,0,29,29,29,1,35,85,,,,,,,,
,,6580b24b0593cdbf4ce9449d,65af5532048963a67ab614d6,2024-01-22_23h58.12.853,bars,2023.2.3,Win32,59.88023952,657b66ea316d21385b68909f,,,,,,,,,,,1615.1527,1616.1429,,,1616.6429,1616.8927,,49,49,,,,,,,,,,,,,,,,bars/042.png,bars/mask000.png,,,,,,,,,,,,1,2,,,,,,,0,10,0,10,,,,,,,,,,,1616.1429,1616.6429,1616.8928,1621.4255,space,4.518,,1621.4256,84,26,1622.425,1622.425,1622.4341,,,,0,30,30,30,1,145,75,,,,,,,,
,,6580b24b0593cdbf4ce9449d,65af5532048963a67ab614d6,2024-01-22_23h58.12.853,bars,2023.2.3,Win32,59.88023952,657b66ea316d21385b68909f,,,,,,,,,,,1622.4342,1623.4253,,,1623.9249,1624.1746,,56,56,,,,,,,,,,,,,,,,bars/029.png,bars/mask006.png,,,,,,,,,,,,6,2,,,,,,,0,10,0,9,,,,,,,,,,,1623.4254,1623.9248,1624.1746,1625.8748,space,1.6923,,1625.8749,34,11,1626.8743,1626.8743,1626.8752,,,,0,31,31,31,1,90,45,,,,,,,,
,,6580b24b0593cdbf4ce9449d,65af5532048963a67ab614d6,2024-01-22_23h58.12.853,bars,2023.2.3,Win32,59.88023952,657b66ea316d21385b68909f,,,,,,,,,,,1626.8755,1627.8738,,,1628.3742,1628.6236,,10,10,,,,,,,,,,,,,,,,bars/031.png,bars/mask001.png,,,,,,,,,,,,1,2,,,,,,,0,8,0,8,,,,,,,,,,,1627.8739,1628.3741,1628.6236,1631.5064,space,2.8666,,1631.5064,70,25,1632.5063,1632.5064,1632.5154,,,,0,32,32,32,1,120,35,,,,,,,,
,,6580b24b0593cdbf4ce9449d,65af5532048963a67ab614d6,2024-01-22_23h58.12.853,bars,2023.2.3,Win32,59.88023952,657b66ea316d21385b68909f,,,,,,,,,,,1632.5155,1633.5062,,,1634.0058,1634.2561,,68,68,,,,,,,,,,,,,,,,bars/030.png,bars/mask004.png,,,,,,,,,,,,5,2,,,,,,,0,6,0,6,,,,,,,,,,,1633.5062,1634.0057,1634.2561,1636.289,space,2.0251,,1636.289,72,3,1637.2889,1637.289,1637.2977,,,,0,33,33,33,1,140,65,,,,,,,,
,,6580b24b0593cdbf4ce9449d,65af5532048963a67ab614d6,2024-01-22_23h58.12.853,bars,2023.2.3,Win32,59.88023952,657b66ea316d21385b68909f,,,,,,,,,,,1637.2978,1638.2885,,,1638.7882,1639.0384,,120,120,,,,,,,,,,,,,,,,bars/047.png,bars/mask002.png,,,,,,,,,,,,0,2,,,,,,,0,4,0,3,,,,,,,,,,,1638.2886,1638.7882,1639.0385,1640.8379,space,1.7863,,1640.838,75,50,1641.8379,1641.8379,1641.8464,,,,0,34,34,34,1,15,70,,,,,,,,
,,6580b24b0593cdbf4ce9449d,65af5532048963a67ab614d6,2024-01-22_23h58.12.853,bars,2023.2.3,Win32,59.88023952,657b66ea316d21385b68909f,,,,,,,,,,,1641.8465,1642.8377,,,1643.3376,1643.5874,,52,52,,,,,,,,,,,,,,,,bars/007.png,bars/mask002.png,,,,,,,,,,,,1,2,,,,,,,2,2,4,1,,,,,,,,,,,1642.8377,1643.3376,1643.5875,1645.2203,space,1.6175,,1645.2203,57,3,1646.22,1646.2201,1646.2213,,,,0,35,35,35,1,175,55,,,,,,,,
,,6580b24b0593cdbf4ce9449d,65af5532048963a67ab614d6,2024-01-22_23h58.12.853,bars,2023.2.3,Win32,59.88023952,657b66ea316d21385b68909f,,,,,,,,,,,1646.2219,1647.2196,,,1647.7195,1647.9697,,59,239,,,,,,,,,,,,,,,,bars/025.png,bars/mask001.png,,,,,,,,,,,,0,2,,,,,,,0,0,2,0,,,,,,,,,,,1647.2197,1647.7195,1647.9697,1651.0191,space,3.0356,,1651.0191,46,19,1652.019,1652.0191,1652.0279,,,,0,36,36,36,1,105,40,,,,,,,,
,,6580b24b0593cdbf4ce9449d,65af5532048963a67ab614d6,2024-01-22_23h58.12.853,bars,2023.2.3,Win32,59.88023952,657b66ea316d21385b68909f,,,,,,,,,,,1652.028,1653.0186,,,1653.5188,1653.7685,,110,290,,,,,,,,,,,,,,,,bars/026.png,bars/mask000.png,,,,,,,,,,,,0,2,,,,,,,0,2,0,1,,,,,,,,,,,1653.0187,1653.5187,1653.7685,1656.4012,space,2.6168,,1656.4013,75,25,1657.4012,1657.4012,1657.4099,,,,0,37,37,37,1,35,85,,,,,,,,
,,6580b24b0593cdbf4ce9449d,65af5532048963a67ab614d6,2024-01-22_23h58.12.853,bars,2023.2.3,Win32,59.88023952,657b66ea316d21385b68909f,,,,,,,,,,,1657.4101,1658.4009,,,1658.9012,1659.1513,,19,199,,,,,,,,,,,,,,,,bars/041.png,bars/mask009.png,,,,,,,,,,,,3,1,,,,,,,2,4,3,2,,,,,,,,,,,1658.4009,1658.9012,1659.1513,1661.1337,space,1.9659,,1661.1337,1,66,1662.1335,1662.1335,1662.1429,,,,0,38,38,38,1,20,85,,,,,,,,
,,6580b24b0593cdbf4ce9449d,65af5532048963a67ab614d6,2024-01-22_23h58.12.853,bars,2023.2.3,Win32,59.88023952,657b66ea316d21385b68909f,,,,,,,,,,,1662.143,1663.1332,,,1663.6332,1663.8833,,108,108,,,,,,,,,,,,,,,,bars/037.png,bars/mask000.png,,,,,,,,,,,,1,2,,,,,,,4,2,3,1,,,,,,,,,,,1663.1332,1663.6332,1663.8833,1666.1494,space,2.2488,,1666.1495,42,3,1667.1496,1667.1496,1667.1593,,,,0,39,39,39,1,150,105,,,,,,,,
,,6580b24b0593cdbf4ce9449d,65af5532048963a67ab614d6,2024-01-22_23h58.12.853,bars,2023.2.3,Win32,59.88023952,657b66ea316d21385b68909f,,,,,,,,,,,1667.1595,1668.1492,,,1668.6492,1668.8986,,158,-22,,,,,,,,,,,,,,,,bars/005.png,bars/mask004.png,,,,,,,,,,,,0,2,,,,,,,6,0,5,0,,,,,,,,,,,1668.1492,1668.6491,1668.8987,1671.1316,space,2.2263,,1671.1318,32,18,1672.1316,1672.1316,1672.1402,,,,0,40,40,40,1,10,140,,,,,,,,
,,6580b24b0593cdbf4ce9449d,65af5532048963a67ab614d6,2024-01-22_23h58.12.853,bars,2023.2.3,Win32,59.88023952,657b66ea316d21385b68909f,,,,,,,,,,,1672.1404,1673.1315,,,1673.6312,1673.881,,150,150,,,,,,,,,,,,,,,,bars/040.png,bars/mask009.png,,,,,,,,,,,,7,1,,,,,,,8,2,10,3,,,,,,,,,,,1673.1315,1673.6312,1673.8811,1679.7966,space,5.906,,1679.7966,10,35,1680.7968,1680.7968,1680.8062,,,,0,41,41,41,1,140,5,,,,,,,,
,,6580b24b0593cdbf4ce9449d,65af5532048963a67ab614d6,2024-01-22_23h58.12.853,bars,2023.2.3,Win32,59.88023952,657b66ea316d21385b68909f,,,,,,,,,,,1680.8064,1681.7961,,,1682.2961,1682.546,,25,25,,,,,,,,,,,,,,,,bars/045.png,bars/mask005.png,,,,,,,,,,,,2,2,,,,,,,6,4,7,4,,,,,,,,,,,1681.7961,1682.2961,1682.5461,1685.1455,space,2.5923,,1685.1455,75,15,1686.1452,1686.1452,1686.1541,,,,0,42,42,42,1,100,10,,,,,,,,
,,6580b24b0593cdbf4ce9449d,65af5532048963a67ab614d6,2024-01-22_23h58.12.853,bars,2023.2.3,Win32,59.88023952,657b66ea316d21385b68909f,,,,,,,,,,,1686.1544,1687.145,,,1687.645,1687.8949,,93,93,,,,,,,,,,,,,,,,bars/028.png,bars/mask008.png,,,,,,,,,,,,1,2,,,,,,,4,6,4,6,,,,,,,,,,,1687.145,1687.645,1687.8949,1690.1942,space,2.2942,,1690.1942,48,27,1691.1944,1691.1945,1691.203,,,,0,43,43,43,1,45,120,,,,,,,,
,,6580b24b0593cdbf4ce9449d,65af5532048963a67ab614d6,2024-01-22_23h58.12.853,bars,2023.2.3,Win32,59.88023952,657b66ea316d21385b68909f,,,,,,,,,,,1691.2032,1692.1945,,,1692.6936,1692.9439,,125,125,,,,,,,,,,,,,,,,bars/023.png,bars/mask002.png,,,,,,,,,,,,6,2,,,,,,,6,8,5,9,,,,,,,,,,,1692.1945,1692.6936,1692.9439,1695.9939,space,3.0376,,1695.9939,75,10,1696.9931,1696.9931,1697.0017,,,,0,44,44,44,1,20,115,,,,,,,,
,,6580b24b0593cdbf4ce9449d,65af5532048963a67ab614d6,2024-01-22_23h58.12.853,bars,2023.2.3,Win32,59.88023952,657b66ea316d21385b68909f,,,,,,,,,,,1697.0019,1697.9928,,,1698.4927,1698.7429,,59,59,,,,,,,,,,,,,,,,bars/032.png,bars/mask006.png,,,,,,,,,,,,0,2,,,,,,,8,10,7,10,,,,,,,,,,,1697.9928,1698.4927,1698.7429,1702.2754,space,3.5155,,1702.2754,66,39,1703.2751,1703.2752,1703.2836,,,,0,45,45,45,1,125,20,,,,,,,,
,,6580b24b0593cdbf4ce9449d,65af5532048963a67ab614d6,2024-01-22_23h58.12.853,bars,2023.2.3,Win32,59.88023952,657b66ea316d21385b68909f,,,,,,,,,,,1703.2838,1704.2746,,,1704.7751,1705.025,,116,116,,,,,,,,,,,,,,,,bars/015.png,bars/mask009.png,,,,,,,,,,,,4,1,,,,,,,6,8,5,9,,,,,,,,,,,1704.2746,1704.7751,1705.025,1710.1403,space,5.0995,,1710.1404,6,44,1711.1402,1711.1402,1711.1505,,,,0,46,46,46,1,110,160,,,,,,,,
,,6580b24b0593cdbf4ce9449d,65af5532048963a67ab614d6,2024-01-22_23h58.12.853,bars,2023.2.3,Win32,59.88023952,657b66ea316d21385b68909f,,,,,,,,,,,1711.1506,1712.14,,,1712.6398,1712.8901,,49,49,,,,,,,,,,,,,,,,bars/029.png,bars/mask008.png,,,,,,,,,,,,6,2,,,,,,,4,6,3,7,,,,,,,,,,,1712.14,1712.6398,1712.8901,1714.3892,space,1.4932,,1714.3892,41,4,1715.3893,1715.3893,1715.3987,,,,0,47,47,47,1,90,45,,,,,,,,
,,6580b24b0593cdbf4ce9449d,65af5532048963a67ab614d6,2024-01-22_23h58.12.853,bars,2023.2.3,Win32,59.88023952,657b66ea316d21385b68909f,,,,,,,,,,,1715.3989,1716.3889,,,1716.8896,1717.1393,,43,223,,,,,,,,,,,,,,,,bars/027.png,bars/mask001.png,,,,,,,,,,,,6,2,,,,,,,6,8,3,8,,,,,,,,,,,1716.389,1716.8895,1717.1393,1719.9381,space,2.7952,,1719.9381,67,7,1720.9381,1720.9382,1720.9469,,,,0,48,48,48,1,110,50,,,,,,,,
,,6580b24b0593cdbf4ce9449d,65af5532048963a67ab614d6,2024-01-22_23h58.12.853,bars,2023.2.3,Win32,59.88023952,657b66ea316d21385b68909f,,,,,,,,,,,1720.9471,1721.9379,,,1722.4379,1722.6877,,62,62,,,,,,,,,,,,,,,,bars/029.png,bars/mask006.png,,,,,,,,,,,,4,2,,,,,,,4,10,4,10,,,,,,,,,,,1721.9379,1722.4379,1722.6877,1724.2043,space,1.5005,,1724.2043,28,17,1725.2039,1725.2039,1725.2126,,,,0,49,49,49,1,90,45,,,,,,,,
,,6580b24b0593cdbf4ce9449d,65af5532048963a67ab614d6,2024-01-22_23h58.12.853,bars,2023.2.3,Win32,59.88023952,657b66ea316d21385b68909f,,,,,,,,,,,,,,,,,,,,,,,,,,,,,,,,,,,,,,,,,,,,,,,,,,,,,,,,,,,,,,,,,,,,,,,,,,,,,,,,,,,,,,,,,,,,,1725.2127,1785.2081,0,2,2,3,1,sequence_tables/blk010.csv
,,6580b24b0593cdbf4ce9449d,65af5532048963a67ab614d6,2024-01-22_23h58.12.853,bars,2023.2.3,Win32,59.88023952,657b66ea316d21385b68909f,,,,,,,,,,,1786.4958,1787.4913,,,1787.9912,1788.2243,,102,102,,,,,,,,,,,,,,,,bars/006.png,bars/mask003.png,,,,,,,,,,,,8,2,,,,,,,0,10,1,9,,,,,,1785.2175,1786.4913,space,1.2569,,1787.4913,1787.9911,1788.2244,1791.6736,space,3.4317,,1791.6736,67,2,1792.6736,1792.6736,1792.6823,,,,0,0,0,0,1,35,100,,,,,,,,
,,6580b24b0593cdbf4ce9449d,65af5532048963a67ab614d6,2024-01-22_23h58.12.853,bars,2023.2.3,Win32,59.88023952,657b66ea316d21385b68909f,,,,,,,,,,,1792.6825,1793.6738,,,1794.1729,1794.4233,,62,62,,,,,,,,,,,,,,,,bars/035.png,bars/mask006.png,,,,,,,,,,,,9,2,,,,,,,0,10,0,10,,,,,,,,,,,1793.6739,1794.1729,1794.4234,1795.2563,space,0.8238,,1795.2564,67,2,1796.2558,1796.2558,1796.2564,,,,0,1,1,1,1,175,60,,,,,,,,
,,6580b24b0593cdbf4ce9449d,65af5532048963a67ab614d6,2024-01-22_23h58.12.853,bars,2023.2.3,Win32,59.88023952,657b66ea316d21385b68909f,,,,,,,,,,,1796.2568,1797.2558,,,1797.7557,1798.0056,,122,122,,,,,,,,,,,,,,,,bars/008.png,bars/mask003.png,,,,,,,,,,,,0,1,,,,,,,0,10,0,10,,,,,,,,,,,1797.2559,1797.7557,1798.0056,1798.7559,space,0.734,,1798.756,12,58,1799.7551,1799.7552,1799.757,,,,0,2,2,2,1,110,0,,,,,,,,
,,6580b24b0593cdbf4ce9449d,65af5532048963a67ab614d6,2024-01-22_23h58.12.853,bars,2023.2.3,Win32,59.88023952,657b66ea316d21385b68909f,,,,,,,,,,,1799.7573,1800.7549,,,1801.2548,1801.5048,,169,169,,,,,,,,,,,,,,,,bars/000.png,bars/mask003.png,,,,,,,,,,,,2,2,,,,,,,0,8,0,9,,,,,,,,,,,1800.7549,1801.2548,1801.5048,1805.0707,space,3.5576,,1805.0707,51,24,1806.0702,1806.0703,1806.0794,,,,0,3,3,3,1,40,145,,,,,,,,
,,6580b24b0593cdbf4ce9449d,65af5532048963a67ab614d6,2024-01-22_23h58.12.853,bars,2023.2.3,Win32,59.88023952,657b66ea316d21385b68909f,,,,,,,,,,,1806.0796,1807.0706,,,1807.5702,1807.8202,,117,117,,,,,,,,,,,,,,,,bars/043.png,bars/mask009.png,,,,,,,,,,,,6,2,,,,,,,2,10,3,10,,,,,,,,,,,1807.0706,1807.5702,1807.8203,1809.5871,space,1.7512,,1809.5872,87,13,1810.5864,1810.5864,1810.5871,,,,0,4,4,4,1,30,130,,,,,,,,
,,6580b24b0593cdbf4ce9449d,65af5532048963a67ab614d6,2024-01-22_23h58.12.853,bars,2023.2.3,Win32,59.88023952,657b66ea316d21385b68909f,,,,,,,,,,,1810.5874,1811.586,,,1812.0865,1812.336,,138,138,,,,,,,,,,,,,,,,bars/004.png,bars/mask002.png,,,,,,,,,,,,6,2,,,,,,,0,10,0,10,,,,,,,,,,,1811.586,1812.0864,1812.336,1814.6354,space,2.2868,,1814.6354,67,13,1815.6352,1815.6352,1815.6442,,,,0,5,5,5,1,25,125,,,,,,,,
,,6580b24b0593cdbf4ce9449d,65af5532048963a67ab614d6,2024-01-22_23h58.12.853,bars,2023.2.3,Win32,59.88023952,657b66ea316d21385b68909f,,,,,,,,,,,1815.6445,1816.6351,,,1817.1351,1817.3853,,120,120,,,,,,,,,,,,,,,,bars/049.png,bars/mask006.png,,,,,,,,,,,,8,2,,,,,,,2,10,1,10,,,,,,,,,,,1816.6351,1817.1351,1817.3854,1819.7178,space,2.322,,1819.7178,40,5,1820.7175,1820.7175,1820.726,,,,0,6,6,6,1,160,115,,,,,,,,
,,6580b24b0593cdbf4ce9449d,65af5532048963a67ab614d6,2024-01-22_23h58.12.853,bars,2023.2.3,Win32,59.88023952,657b66ea316d21385b68909f,,,,,,,,,,,1820.7261,1821.7173,,,1822.2173,1822.4672,,60,60,,,,,,,,,,,,,,,,bars/007.png,bars/mask003.png,,,,,,,,,,,,8,2,,,,,,,0,10,0,9,,,,,,,,,,,1821.7174,1822.2173,1822.4672,1825.0168,space,2.536,,1825.0169,65,5,1826.0162,1826.0162,1826.0246,,,,0,7,7,7,1,175,55,,,,,,,,
,,6580b24b0593cdbf4ce9449d,65af5532048963a67ab614d6,2024-01-22_23h58.12.853,bars,2023.2.3,Win32,59.88023952,657b66ea316d21385b68909f,,,,,,,,,,,1826.0249,1827.016,,,1827.5163,1827.7661,,71,71,,,,,,,,,,,,,,,,bars/010.png,bars/mask007.png,,,,,,,,,,,,3,2,,,,,,,2,8,2,7,,,,,,,,,,,1827.0161,1827.5162,1827.7661,1829.1832,space,1.4008,,1829.1833,86,16,1830.1821,1830.1822,1830.1832,,,,0,8,8,8,1,165,55,,,,,,,,
,,6580b24b0593cdbf4ce9449d,65af5532048963a67ab614d6,2024-01-22_23h58.12.853,bars,2023.2.3,Win32,59.88023952,657b66ea316d21385b68909f,,,,,,,,,,,1830.1834,1831.182,,,1831.682,1831.9318,,51,231,,,,,,,,,,,,,,,,bars/029.png,bars/mask006.png,,,,,,,,,,,,5,2,,,,,,,0,6,1,6,,,,,,,,,,,1831.1821,1831.682,1831.9319,1833.7654,space,1.8186,,1833.7655,39,6,1834.7649,1834.7649,1834.7658,,,,0,9,9,9,1,90,45,,,,,,,,
,,6580b24b0593cdbf4ce9449d,65af5532048963a67ab614d6,2024-01-22_23h58.12.853,bars,2023.2.3,Win32,59.88023952,657b66ea316d21385b68909f,,,,,,,,,,,1834.766,1835.7643,,,1836.2645,1836.5143,,42,42,,,,,,,,,,,,,,,,bars/025.png,bars/mask006.png,,,,,,,,,,,,7,2,,,,,,,2,8,2,7,,,,,,,,,,,1835.7643,1836.2645,1836.5143,1838.0141,space,1.491,,1838.0141,63,2,1839.0138,1839.0139,1839.0149,,,,0,10,10,10,1,105,40,,,,,,,,
,,6580b24b0593cdbf4ce9449d,65af5532048963a67ab614d6,2024-01-22_23h58.12.853,bars,2023.2.3,Win32,59.88023952,657b66ea316d21385b68909f,,,,,,,,,,,1839.0151,1840.0133,,,1840.5133,1840.7635,,64,244,,,,,,,,,,,,,,,,bars/044.png,bars/mask008.png,,,,,,,,,,,,0,1,,,,,,,0,6,0,6,,,,,,,,,,,1840.0133,1840.5133,1840.7635,1843.4629,space,2.688,,1843.463,11,89,1844.4626,1844.4626,1844.4718,,,,0,11,11,11,1,75,155,,,,,,,,
,,6580b24b0593cdbf4ce9449d,65af5532048963a67ab614d6,2024-01-22_23h58.12.853,bars,2023.2.3,Win32,59.88023952,657b66ea316d21385b68909f,,,,,,,,,,,1844.4721,1845.4625,,,1845.9624,1846.2121,,85,85,,,,,,,,,,,,,,,,bars/021.png,bars/mask006.png,,,,,,,,,,,,3,2,,,,,,,0,4,0,5,,,,,,,,,,,1845.4625,1845.9623,1846.2121,1847.812,space,1.591,,1847.812,70,15,1848.8314,1848.8314,1848.8332,,,,0,12,12,12,1,155,70,,,,,,,,
,,6580b24b0593cdbf4ce9449d,65af5532048963a67ab614d6,2024-01-22_23h58.12.853,bars,2023.2.3,Win32,59.88023952,657b66ea316d21385b68909f,,,,,,,,,,,1848.8335,1849.8285,,,1850.3278,1850.5781,,113,113,,,,,,,,,,,,,,,,bars/006.png,bars/mask009.png,,,,,,,,,,,,2,2,,,,,,,2,2,2,3,,,,,,,,,,,1849.8286,1850.3278,1850.5781,1852.5443,space,1.9604,,1852.5444,78,13,1853.5442,1853.5442,1853.5528,,,,0,13,13,13,1,35,100,,,,,,,,
,,6580b24b0593cdbf4ce9449d,65af5532048963a67ab614d6,2024-01-22_23h58.12.853,bars,2023.2.3,Win32,59.88023952,657b66ea316d21385b68909f,,,,,,,,,,,1853.5529,1854.5437,,,1855.0438,1855.2936,,112,112,,,,,,,,,,,,,,,,bars/015.png,bars/mask000.png,,,,,,,,,,,,5,1,,,,,,,4,4,5,4,,,,,,,,,,,1854.5438,1855.0437,1855.2936,1856.5933,space,1.2958,,1856.5933,2,48,1857.5935,1857.5936,1857.6028,,,,0,14,14,14,1,110,160,,,,,,,,
,,6580b24b0593cdbf4ce9449d,65af5532048963a67ab614d6,2024-01-22_23h58.12.853,bars,2023.2.3,Win32,59.88023952,657b66ea316d21385b68909f,,,,,,,,,,,1857.6029,1858.5927,,,1859.093,1859.3429,,78,78,,,,,,,,,,,,,,,,bars/006.png,bars/mask006.png,,,,,,,,,,,,1,2,,,,,,,2,6,0,3,,,,,,,,,,,1858.5928,1859.093,1859.3429,1861.1424,space,1.7905,,1861.1424,43,22,1862.1422,1862.1422,1862.1518,,,,0,15,15,15,1,35,100,,,,,,,,
,,6580b24b0593cdbf4ce9449d,65af5532048963a67ab614d6,2024-01-22_23h58.12.853,bars,2023.2.3,Win32,59.88023952,657b66ea316d21385b68909f,,,,,,,,,,,1862.152,1863.1421,,,1863.642,1863.892,,95,95,,,,,,,,,,,,,,,,bars/044.png,bars/mask000.png,,,,,,,,,,,,1,1,,,,,,,4,4,3,4,,,,,,,,,,,1863.1422,1863.642,1863.8921,1864.8252,space,0.9217,,1864.8252,20,60,1865.8245,1865.8246,1865.8268,,,,0,16,16,16,1,75,155,,,,,,,,
,,6580b24b0593cdbf4ce9449d,65af5532048963a67ab614d6,2024-01-22_23h58.12.853,bars,2023.2.3,Win32,59.88023952,657b66ea316d21385b68909f,,,,,,,,,,,1865.8272,1866.8243,,,1867.3245,1867.5746,,37,37,,,,,,,,,,,,,,,,bars/013.png,bars/mask001.png,,,,,,,,,,,,0,2,,,,,,,2,6,3,5,,,,,,,,,,,1866.8243,1867.3244,1867.5746,1868.5079,space,0.9154,,1868.5079,38,27,1869.5075,1869.5075,1869.5095,,,,0,17,17,17,1,75,10,,,,,,,,
,,6580b24b0593cdbf4ce9449d,65af5532048963a67ab614d6,2024-01-22_23h58.12.853,bars,2023.2.3,Win32,59.88023952,657b66ea316d21385b68909f,,,,,,,,,,,1869.5099,1870.5072,,,1871.0071,1871.2571,,170,170,,,,,,,,,,,,,,,,bars/008.png,bars/mask004.png,,,,,,,,,,,,5,2,,,,,,,4,8,5,8,,,,,,,,,,,1870.5072,1871.0071,1871.2571,1872.7403,space,1.4738,,1872.7403,60,10,1873.74,1873.74,1873.7484,,,,0,18,18,18,1,110,0,,,,,,,,
,,6580b24b0593cdbf4ce9449d,65af5532048963a67ab614d6,2024-01-22_23h58.12.853,bars,2023.2.3,Win32,59.88023952,657b66ea316d21385b68909f,,,,,,,,,,,1873.7486,1874.7395,,,1875.2396,1875.4893,,37,217,,,,,,,,,,,,,,,,bars/045.png,bars/mask006.png,,,,,,,,,,,,1,2,,,,,,,6,10,7,10,,,,,,,,,,,1874.7395,1875.2396,1875.4894,1878.3224,space,2.827,,1878.3224,63,27,1879.3224,1879.3224,1879.3311,,,,0,19,19,19,1,100,10,,,,,,,,
,,6580b24b0593cdbf4ce9449d,65af5532048963a67ab614d6,2024-01-22_23h58.12.853,bars,2023.2.3,Win32,59.88023952,657b66ea316d21385b68909f,,,,,,,,,,,1879.3312,1880.3216,,,1880.8219,1881.0717,,72,72,,,,,,,,,,,,,,,,bars/006.png,bars/mask007.png,,,,,,,,,,,,1,2,,,,,,,8,10,8,10,,,,,,,,,,,1880.3216,1880.8218,1881.0718,1882.8048,space,1.717,,1882.8048,37,28,1883.8045,1883.8045,1883.8138,,,,0,20,20,20,1,35,100,,,,,,,,
,,6580b24b0593cdbf4ce9449d,65af5532048963a67ab614d6,2024-01-22_23h58.12.853,bars,2023.2.3,Win32,59.88023952,657b66ea316d21385b68909f,,,,,,,,,,,1883.8139,1884.8043,,,1885.304,1885.5544,,125,-55,,,,,,,,,,,,,,,,bars/004.png,bars/mask002.png,,,,,,,,,,,,8,2,,,,,,,10,8,10,8,,,,,,,,,,,1884.8043,1885.304,1885.5545,1888.0037,space,2.4335,,1888.0037,80,0,1889.0035,1889.0036,1889.0041,,,,0,21,21,21,1,25,125,,,,,,,,
,,6580b24b0593cdbf4ce9449d,65af5532048963a67ab614d6,2024-01-22_23h58.12.853,bars,2023.2.3,Win32,59.88023952,657b66ea316d21385b68909f,,,,,,,,,,,1889.0045,1890.0033,,,1890.5029,1890.753,,138,-42,,,,,,,,,,,,,,,,bars/048.png,bars/mask006.png,,,,,,,,,,,,0,2,,,,,,,10,10,10,10,,,,,,,,,,,1890.0034,1890.5029,1890.753,1893.9362,space,3.1707,,1893.9363,88,37,1894.9356,1894.9356,1894.9447,,,,0,22,22,22,1,50,175,,,,,,,,
,,6580b24b0593cdbf4ce9449d,65af5532048963a67ab614d6,2024-01-22_23h58.12.853,bars,2023.2.3,Win32,59.88023952,657b66ea316d21385b68909f,,,,,,,,,,,1894.9448,1895.9351,,,1896.4352,1896.6852,,35,215,,,,,,,,,,,,,,,,bars/014.png,bars/mask000.png,,,,,,,,,,,,0,2,,,,,,,8,8,8,8,,,,,,,,,,,1895.9351,1896.4352,1896.6852,1899.4844,space,2.7829,,1899.4844,45,35,1900.4848,1900.4848,1900.4937,,,,0,23,23,23,1,80,0,,,,,,,,
,,6580b24b0593cdbf4ce9449d,65af5532048963a67ab614d6,2024-01-22_23h58.12.853,bars,2023.2.3,Win32,59.88023952,657b66ea316d21385b68909f,,,,,,,,,,,1900.4939,1901.4842,,,1901.9841,1902.2341,,163,163,,,,,,,,,,,,,,,,bars/016.png,bars/mask009.png,,,,,,,,,,,,9,2,,,,,,,6,10,5,10,,,,,,,,,,,1901.4843,1901.9841,1902.2341,1903.7505,space,1.5035,,1903.7506,57,2,1904.7499,1904.75,1904.7508,,,,0,24,24,24,1,40,165,,,,,,,,
,,6580b24b0593cdbf4ce9449d,65af5532048963a67ab614d6,2024-01-22_23h58.12.853,bars,2023.2.3,Win32,59.88023952,657b66ea316d21385b68909f,,,,,,,,,,,1904.7512,1905.75,,,1906.25,1906.4997,,18,18,,,,,,,,,,,,,,,,bars/008.png,bars/mask003.png,,,,,,,,,,,,4,2,,,,,,,4,10,6,10,,,,,,,,,,,1905.75,1906.2499,1906.4997,1907.9332,space,1.4173,,1907.9332,88,18,1908.9327,1908.9328,1908.9335,,,,0,25,25,25,1,110,0,,,,,,,,
,,6580b24b0593cdbf4ce9449d,65af5532048963a67ab614d6,2024-01-22_23h58.12.853,bars,2023.2.3,Win32,59.88023952,657b66ea316d21385b68909f,,,,,,,,,,,1908.9339,1909.9333,,,1910.4326,1910.6827,,69,69,,,,,,,,,,,,,,,,bars/044.png,bars/mask005.png,,,,,,,,,,,,1,1,,,,,,,2,8,1,8,,,,,,,,,,,1909.9334,1910.4325,1910.6828,1914.5149,space,3.8159,,1914.5149,6,86,1915.5145,1915.5145,1915.5239,,,,0,26,26,26,1,75,155,,,,,,,,
,,6580b24b0593cdbf4ce9449d,65af5532048963a67ab614d6,2024-01-22_23h58.12.853,bars,2023.2.3,Win32,59.88023952,657b66ea316d21385b68909f,,,,,,,,,,,1915.5242,1916.5144,,,1917.0143,1917.2642,,60,60,,,,,,,,,,,,,,,,bars/047.png,bars/mask003.png,,,,,,,,,,,,5,2,,,,,,,4,10,4,8,,,,,,,,,,,1916.5145,1917.0143,1917.2642,1919.2974,space,2.0175,,1919.2974,45,10,1920.2969,1920.2969,1920.3065,,,,0,27,27,27,1,15,70,,,,,,,,
,,6580b24b0593cdbf4ce9449d,65af5532048963a67ab614d6,2024-01-22_23h58.12.853,bars,2023.2.3,Win32,59.88023952,657b66ea316d21385b68909f,,,,,,,,,,,1920.3067,1921.2967,,,1921.7965,1922.047,,108,108,,,,,,,,,,,,,,,,bars/028.png,bars/mask004.png,,,,,,,,,,,,6,2,,,,,,,6,8,7,10,,,,,,,,,,,1921.2967,1921.7965,1922.047,1924.0462,space,1.9937,,1924.0463,63,12,1925.0457,1925.0458,1925.0465,,,,0,28,28,28,1,45,120,,,,,,,,
,,6580b24b0593cdbf4ce9449d,65af5532048963a67ab614d6,2024-01-22_23h58.12.853,bars,2023.2.3,Win32,59.88023952,657b66ea316d21385b68909f,,,,,,,,,,,1925.0471,1926.0464,,,1926.5458,1926.7958,,81,81,,,,,,,,,,,,,,,,bars/039.png,bars/mask000.png,,,,,,,,,,,,1,2,,,,,,,4,6,3,6,,,,,,,,,,,1926.0464,1926.5458,1926.7958,1928.2455,space,1.435,,1928.2455,86,24,1929.2454,1929.2455,1929.2463,,,,0,29,29,29,1,175,105,,,,,,,,
,,6580b24b0593cdbf4ce9449d,65af5532048963a67ab614d6,2024-01-22_23h58.12.853,bars,2023.2.3,Win32,59.88023952,657b66ea316d21385b68909f,,,,,,,,,,,1929.2467,1930.245,,,1930.745,1930.9952,,111,111,,,,,,,,,,,,,,,,bars/019.png,bars/mask005.png,,,,,,,,,,,,6,2,,,,,,,6,8,6,7,,,,,,,,,,,1930.245,1930.745,1930.9952,1932.2944,space,1.2922,,1932.2944,66,6,1933.2945,1933.2946,1933.3029,,,,0,30,30,30,1,45,105,,,,,,,,
,,6580b24b0593cdbf4ce9449d,65af5532048963a67ab614d6,2024-01-22_23h58.12.853,bars,2023.2.3,Win32,59.88023952,657b66ea316d21385b68909f,,,,,,,,,,,1933.303,1934.2941,,,1934.794,1935.0441,,135,135,,,,,,,,,,,,,,,,bars/049.png,bars/mask002.png,,,,,,,,,,,,3,2,,,,,,,8,10,8,10,,,,,,,,,,,1934.2941,1934.7939,1935.0441,1936.5441,space,1.4888,,1936.5442,25,20,1937.5434,1937.5434,1937.5519,,,,0,31,31,31,1,160,115,,,,,,,,
,,6580b24b0593cdbf4ce9449d,65af5532048963a67ab614d6,2024-01-22_23h58.12.853,bars,2023.2.3,Win32,59.88023952,657b66ea316d21385b68909f,,,,,,,,,,,1937.5521,1938.5435,,,1939.0433,1939.2931,,107,107,,,,,,,,,,,,,,,,bars/032.png,bars/mask006.png,,,,,,,,,,,,2,1,,,,,,,6,8,5,7,,,,,,,,,,,1938.5436,1939.0432,1939.2931,1941.9094,space,2.6056,,1941.9094,18,87,1942.909,1942.909,1942.9189,,,,0,32,32,32,1,125,20,,,,,,,,
,,6580b24b0593cdbf4ce9449d,65af5532048963a67ab614d6,2024-01-22_23h58.12.853,bars,2023.2.3,Win32,59.88023952,657b66ea316d21385b68909f,,,,,,,,,,,1942.919,1943.9086,,,1944.4087,1944.6586,,120,120,,,,,,,,,,,,,,,,bars/043.png,bars/mask005.png,,,,,,,,,,,,4,2,,,,,,,4,6,2,6,,,,,,,,,,,1943.9087,1944.4087,1944.6586,1946.6085,space,1.9365,,1946.6085,90,10,1947.6082,1947.6083,1947.6174,,,,0,33,33,33,1,30,130,,,,,,,,
,,6580b24b0593cdbf4ce9449d,65af5532048963a67ab614d6,2024-01-22_23h58.12.853,bars,2023.2.3,Win32,59.88023952,657b66ea316d21385b68909f,,,,,,,,,,,1947.6175,1948.6081,,,1949.1076,1949.3577,,126,-54,,,,,,,,,,,,,,,,bars/022.png,bars/mask001.png,,,,,,,,,,,,0,1,,,,,,,6,8,7,8,,,,,,,,,,,1948.6081,1949.1075,1949.3577,1952.1073,space,2.7367,,1952.1074,31,74,1953.1068,1953.1068,1953.1158,,,,0,34,34,34,1,95,20,,,,,,,,
,,6580b24b0593cdbf4ce9449d,65af5532048963a67ab614d6,2024-01-22_23h58.12.853,bars,2023.2.3,Win32,59.88023952,657b66ea316d21385b68909f,,,,,,,,,,,1953.1161,1954.1067,,,1954.6065,1954.8566,,139,139,,,,,,,,,,,,,,,,bars/006.png,bars/mask009.png,,,,,,,,,,,,0,2,,,,,,,4,6,3,5,,,,,,,,,,,1954.1067,1954.6065,1954.8566,1958.9056,space,4.0423,,1958.9056,76,39,1959.9055,1959.9055,1959.9146,,,,0,35,35,35,1,35,100,,,,,,,,
,,6580b24b0593cdbf4ce9449d,65af5532048963a67ab614d6,2024-01-22_23h58.12.853,bars,2023.2.3,Win32,59.88023952,657b66ea316d21385b68909f,,,,,,,,,,,1959.9148,1960.9054,,,1961.4056,1961.655,,104,104,,,,,,,,,,,,,,,,bars/045.png,bars/mask003.png,,,,,,,,,,,,0,1,,,,,,,2,8,0,9,,,,,,,,,,,1960.9055,1961.4056,1961.655,1964.6384,space,2.9666,,1964.6385,4,86,1965.6379,1965.6379,1965.6483,,,,0,36,36,36,1,100,10,,,,,,,,
,,6580b24b0593cdbf4ce9449d,65af5532048963a67ab614d6,2024-01-22_23h58.12.853,bars,2023.2.3,Win32,59.88023952,657b66ea316d21385b68909f,,,,,,,,,,,1965.6485,1966.6373,,,1967.1376,1967.3872,,118,-62,,,,,,,,,,,,,,,,bars/009.png,bars/mask007.png,,,,,,,,,,,,3,2,,,,,,,0,6,0,5,,,,,,,,,,,1966.6373,1967.1376,1967.3872,1972.5197,space,5.1163,,1972.5197,77,13,1973.5195,1973.5195,1973.5298,,,,0,37,37,37,1,15,105,,,,,,,,
,,6580b24b0593cdbf4ce9449d,65af5532048963a67ab614d6,2024-01-22_23h58.12.853,bars,2023.2.3,Win32,59.88023952,657b66ea316d21385b68909f,,,,,,,,,,,1973.5299,1974.5196,,,1975.019,1975.2692,,103,103,,,,,,,,,,,,,,,,bars/009.png,bars/mask009.png,,,,,,,,,,,,5,2,,,,,,,0,4,1,5,,,,,,,,,,,1974.5196,1975.0189,1975.2692,1977.7686,space,2.485,,1977.7687,88,2,1978.7683,1978.7684,1978.7769,,,,0,38,38,38,1,15,105,,,,,,,,
,,6580b24b0593cdbf4ce9449d,65af5532048963a67ab614d6,2024-01-22_23h58.12.853,bars,2023.2.3,Win32,59.88023952,657b66ea316d21385b68909f,,,,,,,,,,,1978.7772,1979.7681,,,1980.2681,1980.5182,,111,111,,,,,,,,,,,,,,,,bars/026.png,bars/mask002.png,,,,,,,,,,,,0,2,,,,,,,0,2,2,3,,,,,,,,,,,1979.7681,1980.268,1980.5182,1991.8156,space,11.2924,,1991.8157,76,26,1992.8159,1992.8159,1992.825,,,,0,39,39,39,1,35,85,,,,,,,,
,,6580b24b0593cdbf4ce9449d,65af5532048963a67ab614d6,2024-01-22_23h58.12.853,bars,2023.2.3,Win32,59.88023952,657b66ea316d21385b68909f,,,,,,,,,,,1992.8252,1993.8153,,,1994.315,1994.5652,,65,65,,,,,,,,,,,,,,,,bars/042.png,bars/mask000.png,,,,,,,,,,,,3,2,,,,,,,0,4,0,5,,,,,,,,,,,1993.8153,1994.315,1994.5653,1996.5312,space,1.9509,,1996.5312,80,10,1997.5313,1997.5314,1997.5419,,,,0,40,40,40,1,145,75,,,,,,,,
,,6580b24b0593cdbf4ce9449d,65af5532048963a67ab614d6,2024-01-22_23h58.12.853,bars,2023.2.3,Win32,59.88023952,657b66ea316d21385b68909f,,,,,,,,,,,1997.5421,1998.5308,,,1999.0313,1999.2808,,74,74,,,,,,,,,,,,,,,,bars/026.png,bars/mask005.png,,,,,,,,,,,,1,2,,,,,,,0,2,1,2,,,,,,,,,,,1998.5308,1999.0313,1999.2808,2000.1972,space,0.905,,2000.1972,39,11,2001.197,2001.197,2001.1979,,,,0,41,41,41,1,35,85,,,,,,,,
,,6580b24b0593cdbf4ce9449d,65af5532048963a67ab614d6,2024-01-22_23h58.12.853,bars,2023.2.3,Win32,59.88023952,657b66ea316d21385b68909f,,,,,,,,,,,2001.1981,2002.1967,,,2002.6966,2002.9466,,164,164,,,,,,,,,,,,,,,,bars/033.png,bars/mask001.png,,,,,,,,,,,,1,2,,,,,,,0,0,0,1,,,,,,,,,,,2002.1967,2002.6966,2002.9467,2003.9129,space,0.9627,,2003.913,41,9,2004.9133,2004.9133,2004.9219,,,,0,42,42,42,1,25,155,,,,,,,,
,,6580b24b0593cdbf4ce9449d,65af5532048963a67ab614d6,2024-01-22_23h58.12.853,bars,2023.2.3,Win32,59.88023952,657b66ea316d21385b68909f,,,,,,,,,,,2004.9221,2005.9125,,,2006.4125,2006.6625,,81,81,,,,,,,,,,,,,,,,bars/001.png,bars/mask008.png,,,,,,,,,,,,0,2,,,,,,,0,0,2,0,,,,,,,,,,,2005.9125,2006.4124,2006.6625,2008.962,space,2.2893,,2008.9621,49,4,2009.9619,2009.9619,2009.9708,,,,0,43,43,43,1,130,85,,,,,,,,
,,6580b24b0593cdbf4ce9449d,65af5532048963a67ab614d6,2024-01-22_23h58.12.853,bars,2023.2.3,Win32,59.88023952,657b66ea316d21385b68909f,,,,,,,,,,,2009.9709,2010.9616,,,2011.4615,2011.7114,,38,38,,,,,,,,,,,,,,,,bars/035.png,bars/mask006.png,,,,,,,,,,,,0,2,,,,,,,0,0,0,1,,,,,,,,,,,2010.9616,2011.4615,2011.7114,2013.0617,space,1.3328,,2013.0618,43,22,2014.061,2014.061,2014.0619,,,,0,44,44,44,1,175,60,,,,,,,,
,,6580b24b0593cdbf4ce9449d,65af5532048963a67ab614d6,2024-01-22_23h58.12.853,bars,2023.2.3,Win32,59.88023952,657b66ea316d21385b68909f,,,,,,,,,,,2014.0621,2015.0606,,,2015.5606,2015.8109,,66,66,,,,,,,,,,,,,,,,bars/001.png,bars/mask000.png,,,,,,,,,,,,1,2,,,,,,,2,2,1,4,,,,,,,,,,,2015.0606,2015.5606,2015.811,2017.444,space,1.6168,,2017.4441,64,19,2018.4434,2018.4435,2018.4444,,,,0,45,45,45,1,130,85,,,,,,,,
,,6580b24b0593cdbf4ce9449d,65af5532048963a67ab614d6,2024-01-22_23h58.12.853,bars,2023.2.3,Win32,59.88023952,657b66ea316d21385b68909f,,,,,,,,,,,2018.4451,2019.4434,,,2019.9433,2020.1933,,116,116,,,,,,,,,,,,,,,,bars/005.png,bars/mask000.png,,,,,,,,,,,,1,2,,,,,,,4,4,5,4,,,,,,,,,,,2019.4434,2019.9432,2020.1933,2021.976,space,1.7728,,2021.976,74,24,2022.9761,2022.9761,2022.9852,,,,0,46,46,46,1,10,140,,,,,,,,
,,6580b24b0593cdbf4ce9449d,65af5532048963a67ab614d6,2024-01-22_23h58.12.853,bars,2023.2.3,Win32,59.88023952,657b66ea316d21385b68909f,,,,,,,,,,,2022.9854,2023.976,,,2024.4758,2024.7255,,30,30,,,,,,,,,,,,,,,,bars/008.png,bars/mask004.png,,,,,,,,,,,,0,2,,,,,,,2,2,1,2,,,,,,,,,,,2023.976,2024.4757,2024.7255,2026.1923,space,1.4541,,2026.1924,80,30,2027.1919,2027.1919,2027.2023,,,,0,47,47,47,1,110,0,,,,,,,,
,,6580b24b0593cdbf4ce9449d,65af5532048963a67ab614d6,2024-01-22_23h58.12.853,bars,2023.2.3,Win32,59.88023952,657b66ea316d21385b68909f,,,,,,,,,,,2027.2026,2028.1917,,,2028.6919,2028.941,,81,81,,,,,,,,,,,,,,,,bars/006.png,bars/mask006.png,,,,,,,,,,,,0,2,,,,,,,4,0,4,1,,,,,,,,,,,2028.1917,2028.6919,2028.941,2031.2077,space,2.251,,2031.2077,46,19,2032.2075,2032.2075,2032.2159,,,,0,48,48,48,1,35,100,,,,,,,,
,,6580b24b0593cdbf4ce9449d,65af5532048963a67ab614d6,2024-01-22_23h58.12.853,bars,2023.2.3,Win32,59.88023952,657b66ea316d21385b68909f,,,,,,,,,,,2032.2161,2033.2071,,,2033.7071,2033.9571,,154,154,,,,,,,,,,,,,,,,bars/033.png,bars/mask008.png,,,,,,,,,,,,0,2,,,,,,,2,0,1,0,,,,,,,,,,,2033.2071,2033.7071,2033.9572,2035.7069,space,1.7398,,2035.707,51,1,2036.7063,2036.7063,2036.7068,,,,0,49,49,49,1,25,155,,,,,,,,
,,6580b24b0593cdbf4ce9449d,65af5532048963a67ab614d6,2024-01-22_23h58.12.853,bars,2023.2.3,Win32,59.88023952,657b66ea316d21385b68909f,,,,,,,,,,,,,,,,,,,,,,,,,,,,,,,,,,,,,,,,,,,,,,,,,,,,,,,,,,,,,,,,,,,,,,,,,,,,,,,,,,,,,,,,,,,,,2036.707,2096.7106,0,3,3,2,1,sequence_tables/blk017.csv
,,6580b24b0593cdbf4ce9449d,65af5532048963a67ab614d6,2024-01-22_23h58.12.853,bars,2023.2.3,Win32,59.88023952,657b66ea316d21385b68909f,,,,,,,,,,,2099.4135,2100.4098,,,2100.9097,2101.16,,101,101,,,,,,,,,,,,,,,,bars/002.png,bars/mask004.png,,,,,,,,,,,,2,2,,,,,,,3,2,6,4,,,,,,2096.7196,2099.4102,space,2.6731,,2100.4098,2100.9096,2101.1601,2103.4928,space,2.3285,,2103.4928,29,16,2104.4925,2104.4926,2104.4935,,,,0,0,0,0,1,130,85,,,,,,,,
,,6580b24b0593cdbf4ce9449d,65af5532048963a67ab614d6,2024-01-22_23h58.12.853,bars,2023.2.3,Win32,59.88023952,657b66ea316d21385b68909f,,,,,,,,,,,2104.4938,2105.4921,,,2105.9928,2106.2417,,78,78,,,,,,,,,,,,,,,,bars/042.png,bars/mask004.png,,,,,,,,,,,,4,2,,,,,,,1,4,1,4,,,,,,,,,,,2105.4923,2105.9927,2106.2418,2107.6754,space,1.4169,,2107.6754,67,3,2108.6746,2108.6747,2108.6755,,,,0,1,1,1,1,145,75,,,,,,,,
,,6580b24b0593cdbf4ce9449d,65af5532048963a67ab614d6,2024-01-22_23h58.12.853,bars,2023.2.3,Win32,59.88023952,657b66ea316d21385b68909f,,,,,,,,,,,2108.6758,2109.6747,,,2110.1746,2110.4245,,128,128,,,,,,,,,,,,,,,,bars/000.png,bars/mask005.png,,,,,,,,,,,,2,2,,,,,,,3,6,4,5,,,,,,,,,,,2109.6748,2110.1746,2110.4246,2111.491,space,1.0534,,2111.491,88,17,2112.4907,2112.4907,2112.4916,,,,0,2,2,2,1,40,145,,,,,,,,
,,6580b24b0593cdbf4ce9449d,65af5532048963a67ab614d6,2024-01-22_23h58.12.853,bars,2023.2.3,Win32,59.88023952,657b66ea316d21385b68909f,,,,,,,,,,,2112.4919,2113.4908,,,2113.9906,2114.2408,,60,60,,,,,,,,,,,,,,,,bars/041.png,bars/mask004.png,,,,,,,,,,,,1,2,,,,,,,5,4,5,4,,,,,,,,,,,2113.4908,2113.9906,2114.2408,2115.8069,space,1.5491,,2115.8069,40,25,2116.8066,2116.8066,2116.8153,,,,0,3,3,3,1,20,85,,,,,,,,
,,6580b24b0593cdbf4ce9449d,65af5532048963a67ab614d6,2024-01-22_23h58.12.853,bars,2023.2.3,Win32,59.88023952,657b66ea316d21385b68909f,,,,,,,,,,,2116.8155,2117.8063,,,2118.3062,2118.5563,,64,64,,,,,,,,,,,,,,,,bars/017.png,bars/mask000.png,,,,,,,,,,,,2,2,,,,,,,3,6,3,6,,,,,,,,,,,2117.8063,2118.3061,2118.5564,2120.606,space,2.0329,,2120.6061,81,19,2121.6054,2121.6054,2121.6137,,,,0,4,4,4,1,145,45,,,,,,,,
,,6580b24b0593cdbf4ce9449d,65af5532048963a67ab614d6,2024-01-22_23h58.12.853,bars,2023.2.3,Win32,59.88023952,657b66ea316d21385b68909f,,,,,,,,,,,2121.6139,2122.6053,,,2123.1052,2123.3552,,130,130,,,,,,,,,,,,,,,,bars/033.png,bars/mask009.png,,,,,,,,,,,,1,2,,,,,,,5,8,4,8,,,,,,,,,,,2122.6054,2123.1052,2123.3552,2126.588,space,3.2188,,2126.5881,75,25,2127.5875,2127.5875,2127.5961,,,,0,5,5,5,1,25,155,,,,,,,,
,,6580b24b0593cdbf4ce9449d,65af5532048963a67ab614d6,2024-01-22_23h58.12.853,bars,2023.2.3,Win32,59.88023952,657b66ea316d21385b68909f,,,,,,,,,,,2127.5963,2128.5872,,,2129.0873,2129.3375,,7,7,,,,,,,,,,,,,,,,bars/031.png,bars/mask004.png,,,,,,,,,,,,0,2,,,,,,,3,6,2,6,,,,,,,,,,,2128.5873,2129.0873,2129.3375,2132.3367,space,2.9831,,2132.3368,67,28,2133.3366,2133.3367,2133.345,,,,0,6,6,6,1,120,35,,,,,,,,
,,6580b24b0593cdbf4ce9449d,65af5532048963a67ab614d6,2024-01-22_23h58.12.853,bars,2023.2.3,Win32,59.88023952,657b66ea316d21385b68909f,,,,,,,,,,,2133.3451,2134.3362,,,2134.8361,2135.0862,,60,240,,,,,,,,,,,,,,,,bars/026.png,bars/mask000.png,,,,,,,,,,,,1,2,,,,,,,1,4,2,4,,,,,,,,,,,2134.3362,2134.8361,2135.0863,2137.7856,space,2.6834,,2137.7857,25,25,2138.7853,2138.7853,2138.7942,,,,0,7,7,7,1,35,85,,,,,,,,
,,6580b24b0593cdbf4ce9449d,65af5532048963a67ab614d6,2024-01-22_23h58.12.853,bars,2023.2.3,Win32,59.88023952,657b66ea316d21385b68909f,,,,,,,,,,,2138.7944,2139.7853,,,2140.2849,2140.5351,,115,115,,,,,,,,,,,,,,,,bars/027.png,bars/mask005.png,,,,,,,,,,,,0,1,,,,,,,0,2,0,2,,,,,,,,,,,2139.7854,2140.2849,2140.5352,2142.8678,space,2.3198,,2142.8679,5,65,2143.8675,2143.8677,2143.8769,,,,0,8,8,8,1,110,50,,,,,,,,
,,6580b24b0593cdbf4ce9449d,65af5532048963a67ab614d6,2024-01-22_23h58.12.853,bars,2023.2.3,Win32,59.88023952,657b66ea316d21385b68909f,,,,,,,,,,,2143.8772,2144.8674,,,2145.3674,2145.6172,,38,218,,,,,,,,,,,,,,,,bars/013.png,bars/mask003.png,,,,,,,,,,,,0,2,,,,,,,0,4,0,3,,,,,,,,,,,2144.8674,2145.3674,2145.6172,2147.617,space,1.9912,,2147.6171,37,28,2148.6167,2148.6167,2148.6185,,,,0,9,9,9,1,75,10,,,,,,,,
,,6580b24b0593cdbf4ce9449d,65af5532048963a67ab614d6,2024-01-22_23h58.12.853,bars,2023.2.3,Win32,59.88023952,657b66ea316d21385b68909f,,,,,,,,,,,2148.6188,2149.6164,,,2150.1164,2150.3663,,72,72,,,,,,,,,,,,,,,,bars/039.png,bars/mask007.png,,,,,,,,,,,,0,2,,,,,,,0,6,0,5,,,,,,,,,,,2149.6164,2150.1163,2150.3664,2151.7996,space,1.4146,,2151.7996,77,33,2152.7989,2152.7989,2152.8091,,,,0,10,10,10,1,175,105,,,,,,,,
