init_variables.started,init_variables.stopped,participant,session,date,expName,psychopyVersion,OS,frameRate,study_id,instruction_exp.started,instruction_exp.stopped,key_resp_8.keys,key_resp_8.rt,key_resp_8.duration,instruction_single.started,instruction_single.stopped,key_resp_2.keys,key_resp_2.rt,key_resp_2.duration,interval.started,interval.stopped,cue_single.started,cue_single.stopped,mask.started,mask.stopped,ori_response_single.started,res_ori,res,ori_response_single.stopped,key_resp_single.keys,key_resp_single.rt,key_resp_single.duration,disp_single.started,disp_single.stopped,key_resp.keys,key_resp.rt,key_resp.duration,single.thisRepN,single.thisTrialN,single.thisN,single.thisIndex,single.ran,ori,path,mask_path,instruction_bandit.started,instruction_bandit.stopped,key_resp_6.keys,key_resp_6.rt,key_resp_6.duration,cue_bandit.started,cue_bandit.stopped,bandit_res.keys,bandit_res.rt,bandit_res.duration,outcome_bandit.started,rew,action,outcome_bandit.stopped,bandit.thisRepN,bandit.thisTrialN,bandit.thisN,bandit.thisIndex,bandit.ran,actual_rew1,actual_rew2,rew1,rew2,instruction_task.started,instruction_task.stopped,key_resp_7.keys,key_resp_7.rt,key_resp_7.duration,wait_ready.started,wait_ready.stopped,key_resp_3.keys,key_resp_3.rt,key_resp_3.duration,cue.started,cue.stopped,ori_response.started,ori_response.stopped,key_resp_5.keys,key_resp_5.rt,key_resp_5.duration,outcome.started,diff1,diff2,outcome.stopped,disp_outcome_practice.started,disp_outcome_practice.stopped,key_resp_4.keys,key_resp_4.rt,key_resp_4.duration,trials.thisRepN,trials.thisTrialN,trials.thisN,trials.thisIndex,trials.ran,ori1,ori2,break_blk.started,break_blk.stopped,block.thisRepN,block.thisTrialN,block.thisN,block.thisIndex,block.ran,condition_file
0.003,0.0035,5d43c0183d65ca001a804090,65af558eb1b2d753c0180a0c,2024-01-23_24h00.54.949,bars,2023.2.3,MacIntel,59.97361161,657b66ea316d21385b68909f,,,,,,,,,,,,,,,,,,,,,,,,,,,,,,,,,,,,,,,,,,,,,,,,,,,,,,,,,,,,,,,,,,,,,,,,,,,,,,,,,,,,,,,,,,,,,,,,,,,,
,,5d43c0183d65ca001a804090,65af558eb1b2d753c0180a0c,2024-01-23_24h00.54.949,bars,2023.2.3,MacIntel,59.97361161,657b66ea316d21385b68909f,0.0046,19.9636,y,19.8858,,,,,,,,,,,,,,,,,,,,,,,,,,,,,,,,,,,,,,,,,,,,,,,,,,,,,,,,,,,,,,,,,,,,,,,,,,,,,,,,,,,,,,,,,,,,,,,,
,,5d43c0183d65ca001a804090,65af558eb1b2d753c0180a0c,2024-01-23_24h00.54.949,bars,2023.2.3,MacIntel,59.97361161,657b66ea316d21385b68909f,,,,,,19.9637,33.3884,space,13.4103,,,,,,,,,,,,,,,,,,,,,,,,,,,,,,,,,,,,,,,,,,,,,,,,,,,,,,,,,,,,,,,,,,,,,,,,,,,,,,,,,,,,,,,,,,,
,,5d43c0183d65ca001a804090,65af558eb1b2d753c0180a0c,2024-01-23_24h00.54.949,bars,2023.2.3,MacIntel,59.97361161,657b66ea316d21385b68909f,,,,,,,,,,,33.3944,34.3944,34.3946,34.8952,34.8954,35.1455,35.1457,0,180,42.8824,space,7.7064,,42.8826,52.8722,space,9.9508,,0,0,0,2,1,145,bars/single002.png,bars/mask003.png,,,,,,,,,,,,,,,,,,,,,,,,,,,,,,,,,,,,,,,,,,,,,,,,,,,,,,,,,,,,,,,,
,,5d43c0183d65ca001a804090,65af558eb1b2d753c0180a0c,2024-01-23_24h00.54.949,bars,2023.2.3,MacIntel,59.97361161,657b66ea316d21385b68909f,,,,,,,,,,,52.8844,53.8874,53.8874,54.3876,54.3877,54.6376,54.6377,150,150,61.592,space,6.939,,61.592,69.5282,space,7.9107,,0,1,1,4,1,95,bars/single004.png,bars/mask004.png,,,,,,,,,,,,,,,,,,,,,,,,,,,,,,,,,,,,,,,,,,,,,,,,,,,,,,,,,,,,,,,,
,,5d43c0183d65ca001a804090,65af558eb1b2d753c0180a0c,2024-01-23_24h00.54.949,bars,2023.2.3,MacIntel,59.97361161,657b66ea316d21385b68909f,,,,,,,,,,,69.5401,70.5294,70.5296,71.0292,71.0292,71.2793,71.2794,165,165,77.0648,space,5.7714,,77.0649,80.6994,space,3.6033,,0,2,2,8,1,160,bars/single008.png,bars/mask004.png,,,,,,,,,,,,,,,,,,,,,,,,,,,,,,,,,,,,,,,,,,,,,,,,,,,,,,,,,,,,,,,,
,,5d43c0183d65ca001a804090,65af558eb1b2d753c0180a0c,2024-01-23_24h00.54.949,bars,2023.2.3,MacIntel,59.97361161,657b66ea316d21385b68909f,,,,,,,,,,,80.6998,81.6992,81.6993,82.1997,82.1997,82.4508,82.4509,19,19,96.6403,space,14.1693,,96.6404,102.66,space,5.9974,,0,3,3,9,1,20,bars/single009.png,bars/mask006.png,,,,,,,,,,,,,,,,,,,,,,,,,,,,,,,,,,,,,,,,,,,,,,,,,,,,,,,,,,,,,,,,
,,5d43c0183d65ca001a804090,65af558eb1b2d753c0180a0c,2024-01-23_24h00.54.949,bars,2023.2.3,MacIntel,59.97361161,657b66ea316d21385b68909f,,,,,,,,,,,102.6713,103.6606,103.6607,104.16,104.16,104.4108,104.4109,13,193,111.5271,space,7.107,,111.5271,113.4153,space,1.8608,,0,4,4,1,1,20,bars/single001.png,bars/mask006.png,,,,,,,,,,,,,,,,,,,,,,,,,,,,,,,,,,,,,,,,,,,,,,,,,,,,,,,,,,,,,,,,
,,5d43c0183d65ca001a804090,65af558eb1b2d753c0180a0c,2024-01-23_24h00.54.949,bars,2023.2.3,MacIntel,59.97361161,657b66ea316d21385b68909f,,,,,,,,,,,113.4156,114.4158,114.4159,114.9162,114.9163,115.1657,115.1658,11,11,129.7558,space,14.5796,,129.7559,133.4418,space,3.6556,,0,5,5,6,1,175,bars/single006.png,bars/mask005.png,,,,,,,,,,,,,,,,,,,,,,,,,,,,,,,,,,,,,,,,,,,,,,,,,,,,,,,,,,,,,,,,
,,5d43c0183d65ca001a804090,65af558eb1b2d753c0180a0c,2024-01-23_24h00.54.949,bars,2023.2.3,MacIntel,59.97361161,657b66ea316d21385b68909f,,,,,,,,,,,133.4423,134.4418,134.4418,134.9425,134.9425,135.1915,135.1916,143,143,168.3735,space,33.1728,,168.3736,172.0425,space,3.6444,,0,6,6,0,1,150,bars/single000.png,bars/mask006.png,,,,,,,,,,,,,,,,,,,,,,,,,,,,,,,,,,,,,,,,,,,,,,,,,,,,,,,,,,,,,,,,
,,5d43c0183d65ca001a804090,65af558eb1b2d753c0180a0c,2024-01-23_24h00.54.949,bars,2023.2.3,MacIntel,59.97361161,657b66ea316d21385b68909f,,,,,,,,,,,172.043,173.0432,173.0433,173.5439,173.544,173.7943,173.7943,23,23,177.9294,space,4.1122,,177.9296,183.0813,space,5.1287,,0,7,7,7,1,45,bars/single007.png,bars/mask009.png,,,,,,,,,,,,,,,,,,,,,,,,,,,,,,,,,,,,,,,,,,,,,,,,,,,,,,,,,,,,,,,,
,,5d43c0183d65ca001a804090,65af558eb1b2d753c0180a0c,2024-01-23_24h00.54.949,bars,2023.2.3,MacIntel,59.97361161,657b66ea316d21385b68909f,,,,,,,,,,,183.0924,184.0826,184.0826,184.5818,184.5818,184.8317,184.8318,51,231,196.7551,space,11.9003,,196.7551,204.0914,space,7.3072,,0,8,8,5,1,55,bars/single005.png,bars/mask008.png,,,,,,,,,,,,,,,,,,,,,,,,,,,,,,,,,,,,,,,,,,,,,,,,,,,,,,,,,,,,,,,,
,,5d43c0183d65ca001a804090,65af558eb1b2d753c0180a0c,2024-01-23_24h00.54.949,bars,2023.2.3,MacIntel,59.97361161,657b66ea316d21385b68909f,,,,,,,,,,,204.1021,205.0913,205.0913,205.592,205.5921,205.8415,205.8415,30,30,216.8638,space,11.0068,,216.8638,225.5849,space,8.6862,,0,9,9,3,1,20,bars/single003.png,bars/mask005.png,,,,,,,,,,,,,,,,,,,,,,,,,,,,,,,,,,,,,,,,,,,,,,,,,,,,,,,,,,,,,,,,
,,5d43c0183d65ca001a804090,65af558eb1b2d753c0180a0c,2024-01-23_24h00.54.949,bars,2023.2.3,MacIntel,59.97361161,657b66ea316d21385b68909f,,,,,,,,,,,,,,,,,,,,,,,,,,,,,,,,,,,,,225.5962,276.4256,space,50.8086,,,,,,,,,,,,,,,,,,,,,,,,,,,,,,,,,,,,,,,,,,,,,,,,,,,,,,,,,,,,
,,5d43c0183d65ca001a804090,65af558eb1b2d753c0180a0c,2024-01-23_24h00.54.949,bars,2023.2.3,MacIntel,59.97361161,657b66ea316d21385b68909f,,,,,,,,,,,,,,,,,,,,,,,,,,,,,,,,,,,,,,,,,,276.4407,292.2666,left,15.7969,,292.2668,9,1,293.2662,0,0,0,0,1,9,1,9,2,,,,,,,,,,,,,,,,,,,,,,,,,,,,,,,,,,,,,,,,,
,,5d43c0183d65ca001a804090,65af558eb1b2d753c0180a0c,2024-01-23_24h00.54.949,bars,2023.2.3,MacIntel,59.97361161,657b66ea316d21385b68909f,,,,,,,,,,,,,,,,,,,,,,,,,,,,,,,,,,,,,,,,,,293.2667,304.7729,left,11.4917,,304.773,10,1,305.7628,0,1,1,1,1,10,0,10,1,,,,,,,,,,,,,,,,,,,,,,,,,,,,,,,,,,,,,,,,,
,,5d43c0183d65ca001a804090,65af558eb1b2d753c0180a0c,2024-01-23_24h00.54.949,bars,2023.2.3,MacIntel,59.97361161,657b66ea316d21385b68909f,,,,,,,,,,,,,,,,,,,,,,,,,,,,,,,,,,,,,,,,,,305.7632,322.2642,left,16.4822,,322.2642,10,1,323.2643,0,2,2,2,1,10,2,10,2,,,,,,,,,,,,,,,,,,,,,,,,,,,,,,,,,,,,,,,,,
,,5d43c0183d65ca001a804090,65af558eb1b2d753c0180a0c,2024-01-23_24h00.54.949,bars,2023.2.3,MacIntel,59.97361161,657b66ea316d21385b68909f,,,,,,,,,,,,,,,,,,,,,,,,,,,,,,,,,,,,,,,,,,323.2774,326.734,right,3.4426,,326.7341,3,2,327.7331,0,3,3,3,1,8,4,7,3,,,,,,,,,,,,,,,,,,,,,,,,,,,,,,,,,,,,,,,,,
,,5d43c0183d65ca001a804090,65af558eb1b2d753c0180a0c,2024-01-23_24h00.54.949,bars,2023.2.3,MacIntel,59.97361161,657b66ea316d21385b68909f,,,,,,,,,,,,,,,,,,,,,,,,,,,,,,,,,,,,,,,,,,327.7443,348.4925,right,20.7379,,348.4926,1,2,349.4929,0,4,4,4,1,6,2,5,1,,,,,,,,,,,,,,,,,,,,,,,,,,,,,,,,,,,,,,,,,
,,5d43c0183d65ca001a804090,65af558eb1b2d753c0180a0c,2024-01-23_24h00.54.949,bars,2023.2.3,MacIntel,59.97361161,657b66ea316d21385b68909f,,,,,,,,,,,,,,,,,,,,,,,,,,,,,,,,,,,,,,,,,,349.5052,352.8792,left,3.3631,,352.8793,4,1,353.879,0,5,5,5,1,4,4,4,4,,,,,,,,,,,,,,,,,,,,,,,,,,,,,,,,,,,,,,,,,
,,5d43c0183d65ca001a804090,65af558eb1b2d753c0180a0c,2024-01-23_24h00.54.949,bars,2023.2.3,MacIntel,59.97361161,657b66ea316d21385b68909f,,,,,,,,,,,,,,,,,,,,,,,,,,,,,,,,,,,,,,,,,,353.8901,357.564,right,3.6577,,357.5641,2,2,358.5647,0,6,6,6,1,2,2,1,2,,,,,,,,,,,,,,,,,,,,,,,,,,,,,,,,,,,,,,,,,
,,5d43c0183d65ca001a804090,65af558eb1b2d753c0180a0c,2024-01-23_24h00.54.949,bars,2023.2.3,MacIntel,59.97361161,657b66ea316d21385b68909f,,,,,,,,,,,,,,,,,,,,,,,,,,,,,,,,,,,,,,,,,,358.5762,361.066,left,2.4786,,361.066,0,1,362.0666,0,7,7,7,1,0,0,0,1,,,,,,,,,,,,,,,,,,,,,,,,,,,,,,,,,,,,,,,,,
,,5d43c0183d65ca001a804090,65af558eb1b2d753c0180a0c,2024-01-23_24h00.54.949,bars,2023.2.3,MacIntel,59.97361161,657b66ea316d21385b68909f,,,,,,,,,,,,,,,,,,,,,,,,,,,,,,,,,,,,,,,,,,362.0784,365.8521,left,3.7626,,365.8522,1,1,366.8525,0,8,8,8,1,0,2,1,0,,,,,,,,,,,,,,,,,,,,,,,,,,,,,,,,,,,,,,,,,
,,5d43c0183d65ca001a804090,65af558eb1b2d753c0180a0c,2024-01-23_24h00.54.949,bars,2023.2.3,MacIntel,59.97361161,657b66ea316d21385b68909f,,,,,,,,,,,,,,,,,,,,,,,,,,,,,,,,,,,,,,,,,,366.8664,367.7687,left,0.889,,367.7688,2,1,368.77,0,9,9,9,1,2,4,2,3,,,,,,,,,,,,,,,,,,,,,,,,,,,,,,,,,,,,,,,,,
,,5d43c0183d65ca001a804090,65af558eb1b2d753c0180a0c,2024-01-23_24h00.54.949,bars,2023.2.3,MacIntel,59.97361161,657b66ea316d21385b68909f,,,,,,,,,,,,,,,,,,,,,,,,,,,,,,,,,,,,,,,,,,368.7704,369.404,left,0.6198,,369.404,0,1,370.4068,0,10,10,10,1,0,2,0,3,,,,,,,,,,,,,,,,,,,,,,,,,,,,,,,,,,,,,,,,,
,,5d43c0183d65ca001a804090,65af558eb1b2d753c0180a0c,2024-01-23_24h00.54.949,bars,2023.2.3,MacIntel,59.97361161,657b66ea316d21385b68909f,,,,,,,,,,,,,,,,,,,,,,,,,,,,,,,,,,,,,,,,,,370.4073,374.7395,right,4.3121,,374.7396,3,2,375.74,0,11,11,11,1,0,4,0,3,,,,,,,,,,,,,,,,,,,,,,,,,,,,,,,,,,,,,,,,,
,,5d43c0183d65ca001a804090,65af558eb1b2d753c0180a0c,2024-01-23_24h00.54.949,bars,2023.2.3,MacIntel,59.97361161,657b66ea316d21385b68909f,,,,,,,,,,,,,,,,,,,,,,,,,,,,,,,,,,,,,,,,,,375.7508,380.0573,right,4.292,,380.0573,6,2,381.0579,0,12,12,12,1,2,6,1,6,,,,,,,,,,,,,,,,,,,,,,,,,,,,,,,,,,,,,,,,,
,,5d43c0183d65ca001a804090,65af558eb1b2d753c0180a0c,2024-01-23_24h00.54.949,bars,2023.2.3,MacIntel,59.97361161,657b66ea316d21385b68909f,,,,,,,,,,,,,,,,,,,,,,,,,,,,,,,,,,,,,,,,,,381.0715,386.8286,left,5.7352,,386.8286,1,1,387.829,0,13,13,13,1,0,4,1,3,,,,,,,,,,,,,,,,,,,,,,,,,,,,,,,,,,,,,,,,,
,,5d43c0183d65ca001a804090,65af558eb1b2d753c0180a0c,2024-01-23_24h00.54.949,bars,2023.2.3,MacIntel,59.97361161,657b66ea316d21385b68909f,,,,,,,,,,,,,,,,,,,,,,,,,,,,,,,,,,,,,,,,,,387.8403,392.2977,right,4.4399,,392.2978,7,2,393.2971,0,14,14,14,1,2,6,2,7,,,,,,,,,,,,,,,,,,,,,,,,,,,,,,,,,,,,,,,,,
,,5d43c0183d65ca001a804090,65af558eb1b2d753c0180a0c,2024-01-23_24h00.54.949,bars,2023.2.3,MacIntel,59.97361161,657b66ea316d21385b68909f,,,,,,,,,,,,,,,,,,,,,,,,,,,,,,,,,,,,,,,,,,393.3079,406.2534,left,12.9354,,406.2535,3,1,407.2531,0,15,15,15,1,4,8,3,9,,,,,,,,,,,,,,,,,,,,,,,,,,,,,,,,,,,,,,,,,
,,5d43c0183d65ca001a804090,65af558eb1b2d753c0180a0c,2024-01-23_24h00.54.949,bars,2023.2.3,MacIntel,59.97361161,657b66ea316d21385b68909f,,,,,,,,,,,,,,,,,,,,,,,,,,,,,,,,,,,,,,,,,,407.2674,408.2053,right,0.9275,,408.2054,7,2,409.2051,0,16,16,16,1,6,6,7,7,,,,,,,,,,,,,,,,,,,,,,,,,,,,,,,,,,,,,,,,,
,,5d43c0183d65ca001a804090,65af558eb1b2d753c0180a0c,2024-01-23_24h00.54.949,bars,2023.2.3,MacIntel,59.97361161,657b66ea316d21385b68909f,,,,,,,,,,,,,,,,,,,,,,,,,,,,,,,,,,,,,,,,,,409.2057,410.8232,right,1.5999,,410.8233,5,2,411.8235,0,17,17,17,1,8,4,9,5,,,,,,,,,,,,,,,,,,,,,,,,,,,,,,,,,,,,,,,,,
,,5d43c0183d65ca001a804090,65af558eb1b2d753c0180a0c,2024-01-23_24h00.54.949,bars,2023.2.3,MacIntel,59.97361161,657b66ea316d21385b68909f,,,,,,,,,,,,,,,,,,,,,,,,,,,,,,,,,,,,,,,,,,411.8386,412.5079,left,0.6562,,412.508,5,1,413.5069,0,18,18,18,1,6,2,5,1,,,,,,,,,,,,,,,,,,,,,,,,,,,,,,,,,,,,,,,,,
,,5d43c0183d65ca001a804090,65af558eb1b2d753c0180a0c,2024-01-23_24h00.54.949,bars,2023.2.3,MacIntel,59.97361161,657b66ea316d21385b68909f,,,,,,,,,,,,,,,,,,,,,,,,,,,,,,,,,,,,,,,,,,413.5072,417.8937,right,4.3642,,417.8938,0,2,418.8927,0,19,19,19,1,8,0,7,0,,,,,,,,,,,,,,,,,,,,,,,,,,,,,,,,,,,,,,,,,
,,5d43c0183d65ca001a804090,65af558eb1b2d753c0180a0c,2024-01-23_24h00.54.949,bars,2023.2.3,MacIntel,59.97361161,657b66ea316d21385b68909f,,,,,,,,,,,,,,,,,,,,,,,,,,,,,,,,,,,,,,,,,,,,,,,,,,,,,,,,,,,,418.8939,458.5636,space,39.6453,,,,,,,,,,,,,,,,,,,,,,,,,,,,,,,,,,,,,
,,5d43c0183d65ca001a804090,65af558eb1b2d753c0180a0c,2024-01-23_24h00.54.949,bars,2023.2.3,MacIntel,59.97361161,657b66ea316d21385b68909f,,,,,,,,,,,462.7631,463.7652,,,464.2487,464.4976,,5,5,,,,,,,,,,,,,,,,bars/042.png,bars/mask007.png,,,,,,,,,,,,0,1,,,,,,,10,7,10,6,,,,,,458.5767,462.7484,space,4.1534,,463.7654,464.2487,464.4979,481.2563,space,16.737,,481.2566,40,70,482.2573,482.2575,515.6079,space,33.3257,,0,0,0,0,1,145,75,,,,,,,,
,,5d43c0183d65ca001a804090,65af558eb1b2d753c0180a0c,2024-01-23_24h00.54.949,bars,2023.2.3,MacIntel,59.97361161,657b66ea316d21385b68909f,,,,,,,,,,,515.6191,516.6228,,,517.109,517.3572,,148,148,,,,,,,,,,,,,,,,bars/015.png,bars/mask009.png,,,,,,,,,,,,3,2,,,,,,,8,5,5,5,,,,,,,,,,,516.6228,517.109,517.3574,521.2924,space,3.9215,,521.2925,38,12,522.2925,522.2926,534.6892,space,12.371,,0,1,1,1,1,110,160,,,,,,,,
,,5d43c0183d65ca001a804090,65af558eb1b2d753c0180a0c,2024-01-23_24h00.54.949,bars,2023.2.3,MacIntel,59.97361161,657b66ea316d21385b68909f,,,,,,,,,,,534.7055,535.7007,,,536.1996,536.4495,,59,59,,,,,,,,,,,,,,,,bars/010.png,bars/mask007.png,,,,,,,,,,,,3,2,,,,,,,10,3,10,3,,,,,,,,,,,535.7009,536.1996,536.4495,555.2908,space,18.8265,,555.2908,74,4,556.2924,556.2924,566.0804,space,9.765,,0,2,2,2,1,165,55,,,,,,,,
,,5d43c0183d65ca001a804090,65af558eb1b2d753c0180a0c,2024-01-23_24h00.54.949,bars,2023.2.3,MacIntel,59.97361161,657b66ea316d21385b68909f,,,,,,,,,,,566.0915,567.0804,,,567.581,567.83,,3,3,,,,,,,,,,,,,,,,bars/041.png,bars/mask008.png,,,,,,,,,,,,4,1,,,,,,,10,1,10,1,,,,,,,,,,,567.0805,567.5809,567.83,584.9724,space,17.1225,,584.9726,17,82,585.9724,585.9724,590.0242,space,4.0214,,0,3,3,3,1,20,85,,,,,,,,
,,5d43c0183d65ca001a804090,65af558eb1b2d753c0180a0c,2024-01-23_24h00.54.949,bars,2023.2.3,MacIntel,59.97361161,657b66ea316d21385b68909f,,,,,,,,,,,590.0349,591.0245,,,591.5245,591.7759,,120,120,,,,,,,,,,,,,,,,bars/030.png,bars/mask007.png,,,,,,,,,,,,2,1,,,,,,,8,3,7,4,,,,,,,,,,,591.0246,591.5245,591.7759,603.8649,space,12.0751,,603.8651,20,55,604.8648,604.8648,620.1559,space,15.2656,,0,4,4,4,1,140,65,,,,,,,,
,,5d43c0183d65ca001a804090,65af558eb1b2d753c0180a0c,2024-01-23_24h00.54.949,bars,2023.2.3,MacIntel,59.97361161,657b66ea316d21385b68909f,,,,,,,,,,,620.1715,621.1567,,,621.6391,621.889,,139,139,,,,,,,,,,,,,,,,bars/034.png,bars/mask007.png,,,,,,,,,,,,5,1,,,,,,,10,5,9,4,,,,,,,,,,,621.1571,621.639,621.8891,629.0977,space,7.1826,,629.0978,14,74,630.0928,630.0963,638.1644,space,8.0314,,0,5,5,5,1,125,65,,,,,,,,
,,5d43c0183d65ca001a804090,65af558eb1b2d753c0180a0c,2024-01-23_24h00.54.949,bars,2023.2.3,MacIntel,59.97361161,657b66ea316d21385b68909f,,,,,,,,,,,638.1843,639.1816,,,639.6815,639.9154,,135,-45,,,,,,,,,,,,,,,,bars/004.png,bars/mask008.png,,,,,,,,,,,,5,2,,,,,,,8,7,9,7,,,,,,,,,,,639.1816,639.6814,639.9154,651.4847,space,11.5535,,651.4849,70,10,652.4804,652.4804,703.0947,space,50.5727,,0,6,6,6,1,25,125,,,,,,,,
,,5d43c0183d65ca001a804090,65af558eb1b2d753c0180a0c,2024-01-23_24h00.54.949,bars,2023.2.3,MacIntel,59.97361161,657b66ea316d21385b68909f,,,,,,,,,,,703.1121,704.1115,,,704.6125,704.8619,,115,-65,,,,,,,,,,,,,,,,bars/045.png,bars/mask000.png,,,,,,,,,,,,3,1,,,,,,,6,5,6,4,,,,,,,,,,,704.1115,704.6124,704.862,714.8459,space,9.967,0.0005,714.846,15,75,715.8344,715.8346,720.6518,space,4.7595,,0,7,7,7,1,100,10,,,,,,,,
,,5d43c0183d65ca001a804090,65af558eb1b2d753c0180a0c,2024-01-23_24h00.54.949,bars,2023.2.3,MacIntel,59.97361161,657b66ea316d21385b68909f,,,,,,,,,,,720.6842,721.6541,,,722.1438,722.3837,,73,73,,,,,,,,,,,,,,,,bars/034.png,bars/mask005.png,,,,,,,,,,,,7,2,,,,,,,8,7,9,9,,,,,,,,,,,721.6542,722.1434,722.3837,745.3806,space,22.9823,,745.3807,52,8,746.3811,746.3812,770.1596,space,23.7375,,0,8,8,8,1,125,65,,,,,,,,
,,5d43c0183d65ca001a804090,65af558eb1b2d753c0180a0c,2024-01-23_24h00.54.949,bars,2023.2.3,MacIntel,59.97361161,657b66ea316d21385b68909f,,,,,,,,,,,770.171,771.1612,,,771.6606,771.911,,46,226,,,,,,,,,,,,,,,,bars/043.png,bars/mask001.png,,,,,,,,,,,,5,1,,,,,,,10,9,10,9,,,,,,,,,,,771.1613,771.6605,771.911,783.0152,space,11.0894,,783.0153,16,84,784.0155,784.0155,793.0206,space,8.9715,,0,9,9,9,1,30,130,,,,,,,,
,,5d43c0183d65ca001a804090,65af558eb1b2d753c0180a0c,2024-01-23_24h00.54.949,bars,2023.2.3,MacIntel,59.97361161,657b66ea316d21385b68909f,,,,,,,,,,,793.0315,794.0214,,,794.5212,794.7624,,19,199,,,,,,,,,,,,,,,,bars/023.png,bars/mask008.png,,,,,,,,,,,,10,1,,,,,,,10,10,10,10,,,,,,,,,,,794.0214,794.5212,794.7624,810.4302,space,15.6411,0.0002,810.4303,1,84,811.4291,811.4291,822.1021,space,10.6426,,0,10,10,10,1,20,115,,,,,,,,
,,5d43c0183d65ca001a804090,65af558eb1b2d753c0180a0c,2024-01-23_24h00.54.949,bars,2023.2.3,MacIntel,59.97361161,657b66ea316d21385b68909f,,,,,,,,,,,822.1131,823.1009,,,823.602,823.8514,,52,52,,,,,,,,,,,,,,,,bars/030.png,bars/mask001.png,,,,,,,,,,,,5,2,,,,,,,10,10,10,9,,,,,,,,,,,823.101,823.6019,823.8514,827.2876,space,3.4192,,827.2876,88,13,828.2865,828.2866,863.605,space,35.2854,,0,11,11,11,1,140,65,,,,,,,,
,,5d43c0183d65ca001a804090,65af558eb1b2d753c0180a0c,2024-01-23_24h00.54.949,bars,2023.2.3,MacIntel,59.97361161,657b66ea316d21385b68909f,,,,,,,,,,,863.6166,864.6213,,,865.1216,865.3712,,112,112,,,,,,,,,,,,,,,,bars/034.png,bars/mask001.png,,,,,,,,,,,,4,1,,,,,,,8,8,7,9,,,,,,,,,,,864.6214,865.1215,865.3713,889.424,space,24.0422,,889.4241,13,47,890.4158,890.4158,893.8189,space,3.369,,0,12,12,12,1,125,65,,,,,,,,
,,5d43c0183d65ca001a804090,65af558eb1b2d753c0180a0c,2024-01-23_24h00.54.949,bars,2023.2.3,MacIntel,59.97361161,657b66ea316d21385b68909f,,,,,,,,,,,893.8193,894.8183,,,895.3188,895.5705,,141,141,,,,,,,,,,,,,,,,bars/024.png,bars/mask003.png,,,,,,,,,,,,3,1,,,,,,,10,10,10,10,,,,,,,,,,,894.8183,895.3187,895.5707,898.6368,space,3.0475,,898.6368,21,29,899.628,899.6281,904.7245,space,5.0604,,0,13,13,13,1,120,170,,,,,,,,
,,5d43c0183d65ca001a804090,65af558eb1b2d753c0180a0c,2024-01-23_24h00.54.949,bars,2023.2.3,MacIntel,59.97361161,657b66ea316d21385b68909f,,,,,,,,,,,904.7353,905.7242,,,906.2246,906.4742,,39,39,,,,,,,,,,,,,,,,bars/028.png,bars/mask007.png,,,,,,,,,,,,8,1,,,,,,,10,10,10,10,,,,,,,,,,,905.7242,906.2245,906.4742,921.4727,space,14.9836,,921.4727,6,81,922.4646,922.4646,944.0265,space,21.5395,,0,14,14,14,1,45,120,,,,,,,,
,,5d43c0183d65ca001a804090,65af558eb1b2d753c0180a0c,2024-01-23_24h00.54.949,bars,2023.2.3,MacIntel,59.97361161,657b66ea316d21385b68909f,,,,,,,,,,,944.0376,945.026,,,945.5263,945.7768,,18,18,,,,,,,,,,,,,,,,bars/031.png,bars/mask001.png,,,,,,,,,,,,3,2,,,,,,,8,8,8,8,,,,,,,,,,,945.026,945.5263,945.7768,951.0297,space,5.239,,951.0297,78,17,952.0296,952.0296,971.0723,space,19.0113,,0,15,15,15,1,120,35,,,,,,,,
,,5d43c0183d65ca001a804090,65af558eb1b2d753c0180a0c,2024-01-23_24h00.54.949,bars,2023.2.3,MacIntel,59.97361161,657b66ea316d21385b68909f,,,,,,,,,,,971.0839,972.0717,,,972.5728,972.8232,,13,193,,,,,,,,,,,,,,,,bars/014.png,bars/mask004.png,,,,,,,,,,,,5,2,,,,,,,6,10,5,8,,,,,,,,,,,972.0718,972.5728,972.8232,982.3776,space,9.5405,,982.3777,67,13,983.3783,983.3783,987.0622,space,3.6552,,0,16,16,16,1,80,0,,,,,,,,
,,5d43c0183d65ca001a804090,65af558eb1b2d753c0180a0c,2024-01-23_24h00.54.949,bars,2023.2.3,MacIntel,59.97361161,657b66ea316d21385b68909f,,,,,,,,,,,987.0627,988.0628,,,988.5634,988.8126,,127,127,,,,,,,,,,,,,,,,bars/032.png,bars/mask000.png,,,,,,,,,,,,5,1,,,,,,,4,10,5,10,,,,,,,,,,,988.0628,988.5633,988.8126,994.2998,space,5.4672,,994.2999,2,73,995.2998,995.2999,999.2515,space,3.9166,,0,17,17,17,1,125,20,,,,,,,,
,,5d43c0183d65ca001a804090,65af558eb1b2d753c0180a0c,2024-01-23_24h00.54.949,bars,2023.2.3,MacIntel,59.97361161,657b66ea316d21385b68909f,,,,,,,,,,,999.2623,1000.252,,,1000.7519,1001.0031,,19,19,,,,,,,,,,,,,,,,bars/008.png,bars/mask006.png,,,,,,,,,,,,3,2,,,,,,,6,8,5,9,,,,,,,,,,,1000.2521,1000.7518,1001.0031,1006.5383,space,5.5209,,1006.5383,89,19,1007.5393,1007.5393,1012.2913,space,4.7246,,0,18,18,18,1,110,0,,,,,,,,
,,5d43c0183d65ca001a804090,65af558eb1b2d753c0180a0c,2024-01-23_24h00.54.949,bars,2023.2.3,MacIntel,59.97361161,657b66ea316d21385b68909f,,,,,,,,,,,1012.3017,1013.2922,,,1013.7919,1014.0417,,11,191,,,,,,,,,,,,,,,,bars/021.png,bars/mask009.png,,,,,,,,,,,,0,1,,,,,,,8,10,9,10,,,,,,,,,,,1013.2923,1013.7918,1014.0418,1032.068,space,18.015,,1032.0681,36,59,1033.068,1033.068,1042.6391,space,9.546,,0,19,19,19,1,155,70,,,,,,,,
,,5d43c0183d65ca001a804090,65af558eb1b2d753c0180a0c,2024-01-23_24h00.54.949,bars,2023.2.3,MacIntel,59.97361161,657b66ea316d21385b68909f,,,,,,,,,,,1042.6532,1043.6562,,,1044.1573,1044.4058,,140,-40,,,,,,,,,,,,,,,,bars/005.png,bars/mask002.png,,,,,,,,,,,,9,2,,,,,,,10,10,10,9,,,,,,,,,,,1043.6563,1044.1572,1044.4058,1055.8958,space,11.4789,,1055.8958,50,0,1056.8953,1056.8954,1069.4345,space,12.5034,,0,20,20,20,1,10,140,,,,,,,,
,,5d43c0183d65ca001a804090,65af558eb1b2d753c0180a0c,2024-01-23_24h00.54.949,bars,2023.2.3,MacIntel,59.97361161,657b66ea316d21385b68909f,,,,,,,,,,,1069.4457,1070.4346,,,1070.9389,1071.1865,,33,213,,,,,,,,,,,,,,,,bars/048.png,bars/mask006.png,,,,,,,,,,,,4,1,,,,,,,10,8,10,8,,,,,,,,,,,1070.4347,1070.9389,1071.1865,1079.24,space,8.0407,,1079.2401,17,38,1080.2405,1080.2407,1083.0253,space,2.7519,,0,21,21,21,1,50,175,,,,,,,,
,,5d43c0183d65ca001a804090,65af558eb1b2d753c0180a0c,2024-01-23_24h00.54.949,bars,2023.2.3,MacIntel,59.97361161,657b66ea316d21385b68909f,,,,,,,,,,,1083.0261,1084.0245,,,1084.5256,1084.7749,,21,21,,,,,,,,,,,,,,,,bars/036.png,bars/mask002.png,,,,,,,,,,,,4,2,,,,,,,8,6,8,4,,,,,,,,,,,1084.0245,1084.5256,1084.7749,1091.0303,space,6.2361,,1091.0305,56,1,1092.0293,1092.0293,1128.1126,space,36.0561,,0,22,22,22,1,145,20,,,,,,,,
,,5d43c0183d65ca001a804090,65af558eb1b2d753c0180a0c,2024-01-23_24h00.54.949,bars,2023.2.3,MacIntel,59.97361161,657b66ea316d21385b68909f,,,,,,,,,,,1128.1239,1129.1136,,,1129.6136,1129.8634,,47,47,,,,,,,,,,,,,,,,bars/017.png,bars/mask003.png,,,,,,,,,,,,4,2,,,,,,,6,4,5,4,,,,,,,,,,,1129.1137,1129.6135,1129.8634,1136.5005,space,6.6275,,1136.5005,82,2,1137.5002,1137.5002,1143.7209,space,6.1956,,0,23,23,23,1,145,45,,,,,,,,
,,5d43c0183d65ca001a804090,65af558eb1b2d753c0180a0c,2024-01-23_24h00.54.949,bars,2023.2.3,MacIntel,59.97361161,657b66ea316d21385b68909f,,,,,,,,,,,1143.7323,1144.7217,,,1145.2221,1145.471,,145,145,,,,,,,,,,,,,,,,bars/021.png,bars/mask008.png,,,,,,,,,,,,5,1,,,,,,,8,6,8,7,,,,,,,,,,,1144.7217,1145.222,1145.4711,1152.7421,space,7.2508,,1152.7422,10,75,1153.7411,1153.7411,1160.9456,space,7.1715,,0,24,24,24,1,155,70,,,,,,,,
,,5d43c0183d65ca001a804090,65af558eb1b2d753c0180a0c,2024-01-23_24h00.54.949,bars,2023.2.3,MacIntel,59.97361161,657b66ea316d21385b68909f,,,,,,,,,,,1160.9571,1161.9458,,,1162.4319,1162.6795,,161,-19,,,,,,,,,,,,,,,,bars/048.png,bars/mask006.png,,,,,,,,,,,,4,2,,,,,,,6,8,7,7,,,,,,,,,,,1161.9458,1162.4318,1162.6796,1173.5518,space,10.8564,,1173.5519,69,14,1174.5513,1174.5513,1182.2055,space,7.6222,,0,25,25,25,1,50,175,,,,,,,,
,,5d43c0183d65ca001a804090,65af558eb1b2d753c0180a0c,2024-01-23_24h00.54.949,bars,2023.2.3,MacIntel,59.97361161,657b66ea316d21385b68909f,,,,,,,,,,,1182.2163,1183.2082,,,1183.7062,1183.9552,,48,48,,,,,,,,,,,,,,,,bars/017.png,bars/mask001.png,,,,,,,,,,,,9,2,,,,,,,8,10,8,10,,,,,,,,,,,1183.2082,1183.7062,1183.9553,1192.5271,space,8.561,,1192.5271,83,3,1193.5275,1193.5276,1199.259,space,5.6977,,0,26,26,26,1,145,45,,,,,,,,
,,5d43c0183d65ca001a804090,65af558eb1b2d753c0180a0c,2024-01-23_24h00.54.949,bars,2023.2.3,MacIntel,59.97361161,657b66ea316d21385b68909f,,,,,,,,,,,1199.2727,1200.263,,,1200.7642,1201.0138,,69,69,,,,,,,,,,,,,,,,bars/040.png,bars/mask007.png,,,,,,,,,,,,0,2,,,,,,,6,10,6,10,,,,,,,,,,,1200.2631,1200.7641,1201.0139,1216.1213,space,15.0856,,1216.1214,71,64,1217.1209,1217.1209,1253.072,space,35.9253,,0,27,27,27,1,140,5,,,,,,,,
,,5d43c0183d65ca001a804090,65af558eb1b2d753c0180a0c,2024-01-23_24h00.54.949,bars,2023.2.3,MacIntel,59.97361161,657b66ea316d21385b68909f,,,,,,,,,,,1253.0834,1254.0727,,,1254.5729,1254.823,,140,140,,,,,,,,,,,,,,,,bars/003.png,bars/mask002.png,,,,,,,,,,,,10,2,,,,,,,8,10,9,10,,,,,,,,,,,1254.0728,1254.5728,1254.8231,1272.3146,space,17.4748,,1272.3147,65,0,1273.3143,1273.3144,1377.6321,space,104.2953,,0,28,28,28,1,25,140,,,,,,,,
,,5d43c0183d65ca001a804090,65af558eb1b2d753c0180a0c,2024-01-23_24h00.54.949,bars,2023.2.3,MacIntel,59.97361161,657b66ea316d21385b68909f,,,,,,,,,,,1377.6433,1378.6319,,,1379.1324,1379.3815,,5,185,,,,,,,,,,,,,,,,bars/045.png,bars/mask004.png,,,,,,,,,,,,8,2,,,,,,,10,10,10,10,,,,,,,,,,,1378.6319,1379.1324,1379.3815,1390.3372,space,10.9316,,1390.3373,85,5,1391.338,1391.338,1394.4564,space,3.0875,,0,29,29,29,1,100,10,,,,,,,,
,,5d43c0183d65ca001a804090,65af558eb1b2d753c0180a0c,2024-01-23_24h00.54.949,bars,2023.2.3,MacIntel,59.97361161,657b66ea316d21385b68909f,,,,,,,,,,,1394.4573,1395.4569,,,1395.9564,1396.2072,,155,155,,,,,,,,,,,,,,,,bars/024.png,bars/mask005.png,,,,,,,,,,,,4,2,,,,,,,8,8,9,7,,,,,,,,,,,1395.457,1395.9564,1396.2073,1408.1449,space,11.9243,,1408.1449,35,15,1409.1454,1409.1454,1411.848,space,2.6786,,0,30,30,30,1,120,170,,,,,,,,
,,5d43c0183d65ca001a804090,65af558eb1b2d753c0180a0c,2024-01-23_24h00.54.949,bars,2023.2.3,MacIntel,59.97361161,657b66ea316d21385b68909f,,,,,,,,,,,1411.8483,1412.8417,,,1413.3321,1413.5816,,121,121,,,,,,,,,,,,,,,,bars/026.png,bars/mask008.png,,,,,,,,,,,,0,2,,,,,,,10,6,8,8,,,,,,,,,,,1412.8417,1413.3321,1413.5816,1418.7006,space,5.0989,,1418.7007,86,36,1419.7003,1419.7003,1423.7189,space,3.9956,,0,31,31,31,1,35,85,,,,,,,,
,,5d43c0183d65ca001a804090,65af558eb1b2d753c0180a0c,2024-01-23_24h00.54.949,bars,2023.2.3,MacIntel,59.97361161,657b66ea316d21385b68909f,,,,,,,,,,,1423.7335,1424.7223,,,1425.2204,1425.47,,123,123,,,,,,,,,,,,,,,,bars/004.png,bars/mask002.png,,,,,,,,,,,,8,2,,,,,,,10,8,10,9,,,,,,,,,,,1424.7224,1425.2204,1425.4701,1434.1764,space,8.6942,,1434.1764,82,2,1435.1743,1435.1744,1437.6431,space,2.4444,,0,32,32,32,1,25,125,,,,,,,,
,,5d43c0183d65ca001a804090,65af558eb1b2d753c0180a0c,2024-01-23_24h00.54.949,bars,2023.2.3,MacIntel,59.97361161,657b66ea316d21385b68909f,,,,,,,,,,,1437.654,1438.6434,,,1439.1436,1439.394,,24,204,,,,,,,,,,,,,,,,bars/015.png,bars/mask001.png,,,,,,,,,,,,0,2,,,,,,,10,10,10,10,,,,,,,,,,,1438.6435,1439.1436,1439.394,1449.3149,space,9.9043,,1449.3149,86,44,1450.315,1450.315,1454.2677,space,3.931,,0,33,33,33,1,110,160,,,,,,,,
,,5d43c0183d65ca001a804090,65af558eb1b2d753c0180a0c,2024-01-23_24h00.54.949,bars,2023.2.3,MacIntel,59.97361161,657b66ea316d21385b68909f,,,,,,,,,,,1454.2681,1455.2686,,,1455.7683,1456.0178,,130,130,,,,,,,,,,,,,,,,bars/040.png,bars/mask000.png,,,,,,,,,,,,5,1,,,,,,,8,8,7,9,,,,,,,,,,,1455.2686,1455.7683,1456.0178,1460.8039,space,4.7753,,1460.8039,10,55,1461.8037,1461.8038,1463.8068,space,1.966,,0,34,34,34,1,140,5,,,,,,,,
,,5d43c0183d65ca001a804090,65af558eb1b2d753c0180a0c,2024-01-23_24h00.54.949,bars,2023.2.3,MacIntel,59.97361161,657b66ea316d21385b68909f,,,,,,,,,,,1463.8074,1464.805,,,1465.3068,1465.5558,,18,18,,,,,,,,,,,,,,,,bars/036.png,bars/mask009.png,,,,,,,,,,,,8,2,,,,,,,6,10,6,9,,,,,,,,,,,1464.8051,1465.3067,1465.5559,1470.4921,space,4.9244,,1470.4922,53,2,1471.4918,1471.4919,1473.6439,space,2.1262,,0,35,35,35,1,145,20,,,,,,,,
,,5d43c0183d65ca001a804090,65af558eb1b2d753c0180a0c,2024-01-23_24h00.54.949,bars,2023.2.3,MacIntel,59.97361161,657b66ea316d21385b68909f,,,,,,,,,,,1473.6447,1474.6437,,,1475.1444,1475.3935,,124,124,,,,,,,,,,,,,,,,bars/006.png,bars/mask002.png,,,,,,,,,,,,1,2,,,,,,,4,8,3,6,,,,,,,,,,,1474.6438,1475.1444,1475.3935,1483.1636,space,7.744,,1483.1636,89,24,1484.1645,1484.1645,1496.6879,space,12.4976,,0,36,36,36,1,35,100,,,,,,,,
,,5d43c0183d65ca001a804090,65af558eb1b2d753c0180a0c,2024-01-23_24h00.54.949,bars,2023.2.3,MacIntel,59.97361161,657b66ea316d21385b68909f,,,,,,,,,,,1496.6984,1497.6887,,,1498.1556,1498.4043,,62,62,,,,,,,,,,,,,,,,bars/010.png,bars/mask008.png,,,,,,,,,,,,8,2,,,,,,,6,10,6,10,,,,,,,,,,,1497.6888,1498.1555,1498.4044,1511.6786,space,13.2618,,1511.6787,77,7,1512.6781,1512.6781,1547.6625,space,34.957,,0,37,37,37,1,165,55,,,,,,,,
,,5d43c0183d65ca001a804090,65af558eb1b2d753c0180a0c,2024-01-23_24h00.54.949,bars,2023.2.3,MacIntel,59.97361161,657b66ea316d21385b68909f,,,,,,,,,,,1547.6738,1548.6617,,,1549.1633,1549.4137,,48,48,,,,,,,,,,,,,,,,bars/021.png,bars/mask008.png,,,,,,,,,,,,3,2,,,,,,,8,10,10,10,,,,,,,,,,,1548.6618,1549.1632,1549.4137,1554.2978,space,4.8698,,1554.2978,73,22,1555.2988,1555.2988,1558.9666,space,3.6452,,0,38,38,38,1,155,70,,,,,,,,
,,5d43c0183d65ca001a804090,65af558eb1b2d753c0180a0c,2024-01-23_24h00.54.949,bars,2023.2.3,MacIntel,59.97361161,657b66ea316d21385b68909f,,,,,,,,,,,1558.9777,1559.9668,,,1560.4674,1560.7179,,134,-46,,,,,,,,,,,,,,,,bars/008.png,bars/mask000.png,,,,,,,,,,,,2,1,,,,,,,10,8,9,7,,,,,,,,,,,1559.9669,1560.4674,1560.7179,1574.3738,space,13.6425,,1574.3739,24,46,1575.3752,1575.3752,1576.7084,space,1.3063,,0,39,39,39,1,110,0,,,,,,,,
,,5d43c0183d65ca001a804090,65af558eb1b2d753c0180a0c,2024-01-23_24h00.54.949,bars,2023.2.3,MacIntel,59.97361161,657b66ea316d21385b68909f,,,,,,,,,,,1576.7087,1577.7092,,,1578.2089,1578.4603,,173,-7,,,,,,,,,,,,,,,,bars/017.png,bars/mask007.png,,,,,,,,,,,,1,1,,,,,,,10,6,9,5,,,,,,,,,,,1577.7093,1578.2089,1578.4604,1588.8151,space,10.3389,,1588.8152,28,52,1589.8154,1589.8155,1591.6012,space,1.7596,,0,40,40,40,1,145,45,,,,,,,,
,,5d43c0183d65ca001a804090,65af558eb1b2d753c0180a0c,2024-01-23_24h00.54.949,bars,2023.2.3,MacIntel,59.97361161,657b66ea316d21385b68909f,,,,,,,,,,,1591.6022,1592.5822,,,1593.083,1593.3336,,49,49,,,,,,,,,,,,,,,,bars/018.png,bars/mask008.png,,,,,,,,,,,,0,2,,,,,,,10,4,9,5,,,,,,,,,,,1592.5823,1593.083,1593.3337,1602.6539,space,9.3023,,1602.654,79,41,1603.6543,1603.6543,1609.0411,space,5.3531,,0,41,41,41,1,150,90,,,,,,,,
,,5d43c0183d65ca001a804090,65af558eb1b2d753c0180a0c,2024-01-23_24h00.54.949,bars,2023.2.3,MacIntel,59.97361161,657b66ea316d21385b68909f,,,,,,,,,,,1609.0521,1610.0412,,,1610.5412,1610.7909,,56,56,,,,,,,,,,,,,,,,bars/035.png,bars/mask003.png,,,,,,,,,,,,2,2,,,,,,,8,2,10,2,,,,,,,,,,,1610.0412,1610.5412,1610.7909,1618.4292,space,7.6159,,1618.4293,61,4,1619.4287,1619.4288,1628.0327,space,8.5823,,0,42,42,42,1,175,60,,,,,,,,
,,5d43c0183d65ca001a804090,65af558eb1b2d753c0180a0c,2024-01-23_24h00.54.949,bars,2023.2.3,MacIntel,59.97361161,657b66ea316d21385b68909f,,,,,,,,,,,1628.0434,1629.0331,,,1629.533,1629.7832,,105,105,,,,,,,,,,,,,,,,bars/019.png,bars/mask000.png,,,,,,,,,,,,3,2,,,,,,,6,4,6,3,,,,,,,,,,,1629.0332,1629.533,1629.7832,1636.3879,space,6.5919,,1636.388,60,0,1637.3877,1637.3877,1665.1844,space,27.7711,,0,43,43,43,1,45,105,,,,,,,,
,,5d43c0183d65ca001a804090,65af558eb1b2d753c0180a0c,2024-01-23_24h00.54.949,bars,2023.2.3,MacIntel,59.97361161,657b66ea316d21385b68909f,,,,,,,,,,,1665.1972,1666.2012,,,1666.7018,1666.9345,,35,35,,,,,,,,,,,,,,,,bars/012.png,bars/mask006.png,,,,,,,,,,,,1,2,,,,,,,4,2,4,4,,,,,,,,,,,1666.2013,1666.7018,1666.9346,1678.6582,space,11.7114,,1678.6583,55,20,1679.6583,1679.6583,1683.9437,space,4.2615,,0,44,44,44,1,90,15,,,,,,,,
,,5d43c0183d65ca001a804090,65af558eb1b2d753c0180a0c,2024-01-23_24h00.54.949,bars,2023.2.3,MacIntel,59.97361161,657b66ea316d21385b68909f,,,,,,,,,,,1683.9551,1684.9436,,,1685.4447,1685.6944,,46,46,,,,,,,,,,,,,,,,bars/025.png,bars/mask009.png,,,,,,,,,,,,2,2,,,,,,,2,0,2,2,,,,,,,,,,,1684.9437,1685.4446,1685.6944,1689.4959,space,3.7846,,1689.496,59,6,1690.4964,1690.4965,1693.0482,space,2.5268,,0,45,45,45,1,105,40,,,,,,,,
,,5d43c0183d65ca001a804090,65af558eb1b2d753c0180a0c,2024-01-23_24h00.54.949,bars,2023.2.3,MacIntel,59.97361161,657b66ea316d21385b68909f,,,,,,,,,,,1693.0487,1694.048,,,1694.548,1694.7982,,64,64,,,,,,,,,,,,,,,,bars/027.png,bars/mask004.png,,,,,,,,,,,,0,2,,,,,,,4,0,5,0,,,,,,,,,,,1694.048,1694.548,1694.7983,1698.1839,space,3.3685,,1698.1839,46,14,1699.1835,1699.1835,2087.0504,space,387.844,,0,46,46,46,1,110,50,,,,,,,,
,,5d43c0183d65ca001a804090,65af558eb1b2d753c0180a0c,2024-01-23_24h00.54.949,bars,2023.2.3,MacIntel,59.97361161,657b66ea316d21385b68909f,,,,,,,,,,,2087.0615,2088.0511,,,2088.5521,2088.8012,,55,55,,,,,,,,,,,,,,,,bars/022.png,bars/mask007.png,,,,,,,,,,,,0,2,,,,,,,2,2,3,3,,,,,,,,,,,2088.0512,2088.5521,2088.8012,2093.5204,space,4.7063,,2093.5204,40,35,2094.5203,2094.5203,2101.7413,space,7.1982,,0,47,47,47,1,95,20,,,,,,,,
,,5d43c0183d65ca001a804090,65af558eb1b2d753c0180a0c,2024-01-23_24h00.54.949,bars,2023.2.3,MacIntel,59.97361161,657b66ea316d21385b68909f,,,,,,,,,,,2101.7591,2102.7417,,,2103.2421,2103.4926,,117,117,,,,,,,,,,,,,,,,bars/025.png,bars/mask002.png,,,,,,,,,,,,0,1,,,,,,,0,4,0,3,,,,,,,,,,,2102.7417,2103.242,2103.4926,2106.6933,space,3.178,,2106.6933,12,77,2107.6943,2107.6944,2110.4785,space,2.7561,,0,48,48,48,1,105,40,,,,,,,,
,,5d43c0183d65ca001a804090,65af558eb1b2d753c0180a0c,2024-01-23_24h00.54.949,bars,2023.2.3,MacIntel,59.97361161,657b66ea316d21385b68909f,,,,,,,,,,,2110.479,2111.4794,,,2111.9675,2112.2148,,114,114,,,,,,,,,,,,,,,,bars/039.png,bars/mask006.png,,,,,,,,,,,,1,2,,,,,,,0,2,1,2,,,,,,,,,,,2111.4794,2111.9675,2112.215,2140.5423,space,28.3093,,2140.5423,61,9,2141.5432,2141.5433,2154.0927,space,12.5172,,0,49,49,49,1,175,105,,,,,,,,
,,5d43c0183d65ca001a804090,65af558eb1b2d753c0180a0c,2024-01-23_24h00.54.949,bars,2023.2.3,MacIntel,59.97361161,657b66ea316d21385b68909f,,,,,,,,,,,,,,,,,,,,,,,,,,,,,,,,,,,,,,,,,,,,,,,,,,,,,,,,,,,,,,,,,,,,,,,,,,,,,,,,,,,,,,,,,,,,,2154.1057,2214.0943,0,0,0,2,1,sequence_tables/blk039.csv
,,5d43c0183d65ca001a804090,65af558eb1b2d753c0180a0c,2024-01-23_24h00.54.949,bars,2023.2.3,MacIntel,59.97361161,657b66ea316d21385b68909f,,,,,,,,,,,2310.4064,2311.3899,,,2311.891,2312.1409,,79,-101,,,,,,,,,,,,,,,,bars/002.png,bars/mask004.png,,,,,,,,,,,,3,2,,,,,,,3,2,6,4,,,,,,2214.1061,2310.3895,space,96.2727,,2311.3899,2311.8909,2312.1409,2344.0729,space,31.9152,,2344.0729,51,6,2345.0735,2345.0735,2345.0878,,,,0,0,0,0,1,130,85,,,,,,,,
,,5d43c0183d65ca001a804090,65af558eb1b2d753c0180a0c,2024-01-23_24h00.54.949,bars,2023.2.3,MacIntel,59.97361161,657b66ea316d21385b68909f,,,,,,,,,,,2345.088,2346.0904,,,2346.5904,2346.8404,,27,27,,,,,,,,,,,,,,,,bars/042.png,bars/mask004.png,,,,,,,,,,,,0,2,,,,,,,1,4,1,4,,,,,,,,,,,2346.0904,2346.5903,2346.8405,2356.795,space,9.9441,,2356.7951,62,48,2357.7953,2357.7953,2357.8068,,,,0,1,1,1,1,145,75,,,,,,,,
,,5d43c0183d65ca001a804090,65af558eb1b2d753c0180a0c,2024-01-23_24h00.54.949,bars,2023.2.3,MacIntel,59.97361161,657b66ea316d21385b68909f,,,,,,,,,,,2357.807,2358.7956,,,2359.296,2359.5463,,145,-35,,,,,,,,,,,,,,,,bars/000.png,bars/mask005.png,,,,,,,,,,,,5,2,,,,,,,3,6,4,5,,,,,,,,,,,2358.7956,2359.2959,2359.5464,2377.3717,space,17.8094,,2377.3717,75,0,2378.3727,2378.3727,2378.3841,,,,0,2,2,2,1,40,145,,,,,,,,
,,5d43c0183d65ca001a804090,65af558eb1b2d753c0180a0c,2024-01-23_24h00.54.949,bars,2023.2.3,MacIntel,59.97361161,657b66ea316d21385b68909f,,,,,,,,,,,2378.3843,2379.3727,,,2379.8728,2380.1219,,158,-22,,,,,,,,,,,,,,,,bars/041.png,bars/mask004.png,,,,,,,,,,,,0,1,,,,,,,5,4,5,4,,,,,,,,,,,2379.3728,2379.8727,2380.122,2391.7787,space,11.645,,2391.7788,42,73,2392.7795,2392.7796,2392.7925,,,,0,3,3,3,1,20,85,,,,,,,,
,,5d43c0183d65ca001a804090,65af558eb1b2d753c0180a0c,2024-01-23_24h00.54.949,bars,2023.2.3,MacIntel,59.97361161,657b66ea316d21385b68909f,,,,,,,,,,,2392.7928,2393.7805,,,2394.303,2394.5467,,10,10,,,,,,,,,,,,,,,,bars/017.png,bars/mask000.png,,,,,,,,,,,,0,2,,,,,,,3,6,3,6,,,,,,,,,,,2393.7807,2394.303,2394.5467,2402.5836,space,8.0156,,2402.5837,45,35,2403.5842,2403.5843,2403.6008,,,,0,4,4,4,1,145,45,,,,,,,,
,,5d43c0183d65ca001a804090,65af558eb1b2d753c0180a0c,2024-01-23_24h00.54.949,bars,2023.2.3,MacIntel,59.97361161,657b66ea316d21385b68909f,,,,,,,,,,,2403.6012,2404.6012,,,2405.1009,2405.351,,162,162,,,,,,,,,,,,,,,,bars/033.png,bars/mask009.png,,,,,,,,,,,,6,2,,,,,,,5,8,4,8,,,,,,,,,,,2404.6012,2405.1009,2405.351,2431.8483,space,26.484,,2431.8483,43,7,2432.8482,2432.8483,2432.8632,,,,0,5,5,5,1,25,155,,,,,,,,
,,5d43c0183d65ca001a804090,65af558eb1b2d753c0180a0c,2024-01-23_24h00.54.949,bars,2023.2.3,MacIntel,59.97361161,657b66ea316d21385b68909f,,,,,,,,,,,2432.8635,2433.8658,,,2434.366,2434.6161,,35,35,,,,,,,,,,,,,,,,bars/031.png,bars/mask004.png,,,,,,,,,,,,6,2,,,,,,,3,6,2,6,,,,,,,,,,,2433.8658,2434.3659,2434.6161,2438.1009,space,3.469,,2438.1009,85,0,2439.1003,2439.1004,2439.1127,,,,0,6,6,6,1,120,35,,,,,,,,
,,5d43c0183d65ca001a804090,65af558eb1b2d753c0180a0c,2024-01-23_24h00.54.949,bars,2023.2.3,MacIntel,59.97361161,657b66ea316d21385b68909f,,,,,,,,,,,2439.1128,2440.1019,,,2440.601,2440.852,,61,61,,,,,,,,,,,,,,,,bars/026.png,bars/mask000.png,,,,,,,,,,,,1,2,,,,,,,1,4,2,4,,,,,,,,,,,2440.102,2440.601,2440.8521,2455.1253,space,14.2598,,2455.1254,26,24,2456.1252,2456.1253,2456.1373,,,,0,7,7,7,1,35,85,,,,,,,,
,,5d43c0183d65ca001a804090,65af558eb1b2d753c0180a0c,2024-01-23_24h00.54.949,bars,2023.2.3,MacIntel,59.97361161,657b66ea316d21385b68909f,,,,,,,,,,,2456.1374,2457.1268,,,2457.626,2457.8769,,51,51,,,,,,,,,,,,,,,,bars/027.png,bars/mask005.png,,,,,,,,,,,,2,2,,,,,,,0,2,0,2,,,,,,,,,,,2457.1269,2457.6259,2457.8769,2465.5143,space,7.6219,,2465.5143,59,1,2466.5134,2466.5134,2466.525,,,,0,8,8,8,1,110,50,,,,,,,,
,,5d43c0183d65ca001a804090,65af558eb1b2d753c0180a0c,2024-01-23_24h00.54.949,bars,2023.2.3,MacIntel,59.97361161,657b66ea316d21385b68909f,,,,,,,,,,,2466.5252,2467.5138,,,2468.0141,2468.2651,,18,198,,,,,,,,,,,,,,,,bars/013.png,bars/mask003.png,,,,,,,,,,,,2,2,,,,,,,0,4,0,3,,,,,,,,,,,2467.5138,2468.0141,2468.2652,2542.7334,space,74.4525,,2542.7334,57,8,2543.7338,2543.7338,2543.7482,,,,0,9,9,9,1,75,10,,,,,,,,
,,5d43c0183d65ca001a804090,65af558eb1b2d753c0180a0c,2024-01-23_24h00.54.949,bars,2023.2.3,MacIntel,59.97361161,657b66ea316d21385b68909f,,,,,,,,,,,2543.7485,2544.751,,,2545.2505,2545.5009,,114,114,,,,,,,,,,,,,,,,bars/039.png,bars/mask007.png,,,,,,,,,,,,4,2,,,,,,,0,6,0,5,,,,,,,,,,,2544.7511,2545.2505,2545.501,2548.5243,space,2.9971,,2548.5244,61,9,2549.5202,2549.5203,2549.5316,,,,0,10,10,10,1,175,105,,,,,,,,
,,5d43c0183d65ca001a804090,65af558eb1b2d753c0180a0c,2024-01-23_24h00.54.949,bars,2023.2.3,MacIntel,59.97361161,657b66ea316d21385b68909f,,,,,,,,,,,2549.5319,2550.5198,,,2551.0198,2551.2698,,20,20,,,,,,,,,,,,,,,,bars/035.png,bars/mask005.png,,,,,,,,,,,,0,1,,,,,,,0,8,0,9,,,,,,,,,,,2550.5198,2551.0198,2551.2698,2562.9434,space,11.6623,,2562.9435,25,40,2563.9428,2563.9429,2563.9556,,,,0,11,11,11,1,175,60,,,,,,,,
,,5d43c0183d65ca001a804090,65af558eb1b2d753c0180a0c,2024-01-23_24h00.54.949,bars,2023.2.3,MacIntel,59.97361161,657b66ea316d21385b68909f,,,,,,,,,,,2563.9558,2564.9435,,,2565.4434,2565.6955,,63,63,,,,,,,,,,,,,,,,bars/010.png,bars/mask005.png,,,,,,,,,,,,7,2,,,,,,,2,10,2,9,,,,,,,,,,,2564.9435,2565.4434,2565.6956,2573.1649,space,7.4549,,2573.1649,78,8,2574.1655,2574.1655,2574.178,,,,0,12,12,12,1,165,55,,,,,,,,
,,5d43c0183d65ca001a804090,65af558eb1b2d753c0180a0c,2024-01-23_24h00.54.949,bars,2023.2.3,MacIntel,59.97361161,657b66ea316d21385b68909f,,,,,,,,,,,2574.1783,2575.1661,,,2575.6664,2575.9161,,131,131,,,,,,,,,,,,,,,,bars/043.png,bars/mask005.png,,,,,,,,,,,,10,2,,,,,,,0,10,0,10,,,,,,,,,,,2575.1662,2575.6664,2575.9161,2579.0842,space,3.1557,,2579.0843,79,1,2580.0846,2580.0847,2580.0955,,,,0,13,13,13,1,30,130,,,,,,,,
,,5d43c0183d65ca001a804090,65af558eb1b2d753c0180a0c,2024-01-23_24h00.54.949,bars,2023.2.3,MacIntel,59.97361161,657b66ea316d21385b68909f,,,,,,,,,,,2580.0957,2581.0851,,,2581.5846,2581.8348,,46,46,,,,,,,,,,,,,,,,bars/010.png,bars/mask002.png,,,,,,,,,,,,7,2,,,,,,,0,10,0,10,,,,,,,,,,,2581.0852,2581.5845,2581.8349,2583.3531,space,1.5024,,2583.3532,61,9,2584.3536,2584.3536,2584.3658,,,,0,14,14,14,1,165,55,,,,,,,,
,,5d43c0183d65ca001a804090,65af558eb1b2d753c0180a0c,2024-01-23_24h00.54.949,bars,2023.2.3,MacIntel,59.97361161,657b66ea316d21385b68909f,,,,,,,,,,,2584.366,2585.3705,,,2585.8716,2586.12,,75,75,,,,,,,,,,,,,,,,bars/044.png,bars/mask007.png,,,,,,,,,,,,3,1,,,,,,,2,8,3,8,,,,,,,,,,,2585.3706,2585.8716,2586.12,2597.9431,space,11.8067,,2597.9432,0,80,2598.944,2598.9441,2598.9577,,,,0,15,15,15,1,75,155,,,,,,,,
,,5d43c0183d65ca001a804090,65af558eb1b2d753c0180a0c,2024-01-23_24h00.54.949,bars,2023.2.3,MacIntel,59.97361161,657b66ea316d21385b68909f,,,,,,,,,,,2598.9579,2599.9599,,,2600.4601,2600.7096,,27,207,,,,,,,,,,,,,,,,bars/025.png,bars/mask000.png,,,,,,,,,,,,3,2,,,,,,,0,6,0,5,,,,,,,,,,,2599.9599,2600.46,2600.7097,2759.2026,space,158.484,,2759.2027,78,13,2760.2039,2760.2039,2760.2166,,,,0,16,16,16,1,105,40,,,,,,,,
,,5d43c0183d65ca001a804090,65af558eb1b2d753c0180a0c,2024-01-23_24h00.54.949,bars,2023.2.3,MacIntel,59.97361161,657b66ea316d21385b68909f,,,,,,,,,,,2760.2168,2761.2207,,,2761.72,2761.9707,,42,42,,,,,,,,,,,,,,,,bars/027.png,bars/mask004.png,,,,,,,,,,,,2,2,,,,,,,2,4,2,3,,,,,,,,,,,2761.2208,2761.7199,2761.9707,2765.0066,space,3.0125,,2765.0066,68,8,2766.0054,2766.0054,2766.0182,,,,0,17,17,17,1,110,50,,,,,,,,
,,5d43c0183d65ca001a804090,65af558eb1b2d753c0180a0c,2024-01-23_24h00.54.949,bars,2023.2.3,MacIntel,59.97361161,657b66ea316d21385b68909f,,,,,,,,,,,2766.0184,2767.0069,,,2767.5067,2767.7573,,86,86,,,,,,,,,,,,,,,,bars/018.png,bars/mask009.png,,,,,,,,,,,,6,2,,,,,,,0,6,1,7,,,,,,,,,,,2767.007,2767.5066,2767.7573,2776.2946,space,8.5203,,2776.2946,64,4,2777.2941,2777.2941,2777.3063,,,,0,18,18,18,1,150,90,,,,,,,,
,,5d43c0183d65ca001a804090,65af558eb1b2d753c0180a0c,2024-01-23_24h00.54.949,bars,2023.2.3,MacIntel,59.97361161,657b66ea316d21385b68909f,,,,,,,,,,,2777.3065,2778.2953,,,2778.7963,2779.0452,,138,138,,,,,,,,,,,,,,,,bars/011.png,bars/mask000.png,,,,,,,,,,,,1,1,,,,,,,2,8,2,8,,,,,,,,,,,2778.2953,2778.7962,2779.0452,2782.7139,space,3.6522,,2782.714,22,53,2783.714,2783.7141,2783.729,,,,0,19,19,19,1,160,85,,,,,,,,
,,5d43c0183d65ca001a804090,65af558eb1b2d753c0180a0c,2024-01-23_24h00.54.949,bars,2023.2.3,MacIntel,59.97361161,657b66ea316d21385b68909f,,,,,,,,,,,2783.7294,2784.732,,,2785.2312,2785.4817,,17,17,,,,,,,,,,,,,,,,bars/023.png,bars/mask003.png,,,,,,,,,,,,4,1,,,,,,,4,6,4,8,,,,,,,,,,,2784.732,2785.2312,2785.4817,2790.3507,space,4.8542,,2790.3508,3,82,2791.3507,2791.3508,2791.3641,,,,0,20,20,20,1,20,115,,,,,,,,
,,5d43c0183d65ca001a804090,65af558eb1b2d753c0180a0c,2024-01-23_24h00.54.949,bars,2023.2.3,MacIntel,59.97361161,657b66ea316d21385b68909f,,,,,,,,,,,2791.3643,2792.3519,,,2792.852,2793.1023,,175,-5,,,,,,,,,,,,,,,,bars/045.png,bars/mask007.png,,,,,,,,,,,,2,2,,,,,,,6,4,6,4,,,,,,,,,,,2792.352,2792.8519,2793.1024,2797.5712,space,4.4523,,2797.5712,75,15,2798.5721,2798.5721,2798.5844,,,,0,21,21,21,1,100,10,,,,,,,,
,,5d43c0183d65ca001a804090,65af558eb1b2d753c0180a0c,2024-01-23_24h00.54.949,bars,2023.2.3,MacIntel,59.97361161,657b66ea316d21385b68909f,,,,,,,,,,,2798.5847,2799.589,,,2800.0895,2800.3388,,78,78,,,,,,,,,,,,,,,,bars/027.png,bars/mask003.png,,,,,,,,,,,,0,2,,,,,,,8,2,8,2,,,,,,,,,,,2799.589,2800.0895,2800.3389,2806.9415,space,6.5866,,2806.9415,32,28,2807.9419,2807.9419,2807.9537,,,,0,22,22,22,1,110,50,,,,,,,,
,,5d43c0183d65ca001a804090,65af558eb1b2d753c0180a0c,2024-01-23_24h00.54.949,bars,2023.2.3,MacIntel,59.97361161,657b66ea316d21385b68909f,,,,,,,,,,,2807.9539,2808.9429,,,2809.4434,2809.6925,,160,-20,,,,,,,,,,,,,,,,bars/044.png,bars/mask004.png,,,,,,,,,,,,5,2,,,,,,,6,4,6,6,,,,,,,,,,,2808.9429,2809.4434,2809.6925,2814.462,space,4.7551,,2814.4621,85,5,2815.4646,2815.4648,2815.4886,,,,0,23,23,23,1,75,155,,,,,,,,
,,5d43c0183d65ca001a804090,65af558eb1b2d753c0180a0c,2024-01-23_24h00.54.949,bars,2023.2.3,MacIntel,59.97361161,657b66ea316d21385b68909f,,,,,,,,,,,2815.4889,2816.48,,,2816.9795,2817.2301,,123,-57,,,,,,,,,,,,,,,,bars/009.png,bars/mask006.png,,,,,,,,,,,,0,2,,,,,,,4,2,3,1,,,,,,,,,,,2816.4801,2816.9795,2817.2302,2823.8001,space,6.5551,,2823.8002,72,18,2824.801,2824.801,2824.8124,,,,0,24,24,24,1,15,105,,,,,,,,
,,5d43c0183d65ca001a804090,65af558eb1b2d753c0180a0c,2024-01-23_24h00.54.949,bars,2023.2.3,MacIntel,59.97361161,657b66ea316d21385b68909f,,,,,,,,,,,2824.8126,2825.8008,,,2826.3018,2826.5516,,153,153,,,,,,,,,,,,,,,,bars/033.png,bars/mask004.png,,,,,,,,,,,,2,2,,,,,,,2,4,2,2,,,,,,,,,,,2825.8009,2826.3017,2826.5516,2830.2859,space,3.7211,,2830.2859,52,2,2831.2864,2831.2864,2831.2975,,,,0,25,25,25,1,25,155,,,,,,,,
,,5d43c0183d65ca001a804090,65af558eb1b2d753c0180a0c,2024-01-23_24h00.54.949,bars,2023.2.3,MacIntel,59.97361161,657b66ea316d21385b68909f,,,,,,,,,,,2831.2978,2832.2867,,,2832.7876,2833.0369,,76,76,,,,,,,,,,,,,,,,bars/046.png,bars/mask009.png,,,,,,,,,,,,4,2,,,,,,,4,6,4,6,,,,,,,,,,,2832.2867,2832.7876,2833.0369,2841.4753,space,8.423,,2841.4754,79,9,2842.4747,2842.4747,2842.4864,,,,0,26,26,26,1,155,85,,,,,,,,
,,5d43c0183d65ca001a804090,65af558eb1b2d753c0180a0c,2024-01-23_24h00.54.949,bars,2023.2.3,MacIntel,59.97361161,657b66ea316d21385b68909f,,,,,,,,,,,2842.4866,2843.4755,,,2843.9765,2844.2269,,23,23,,,,,,,,,,,,,,,,bars/007.png,bars/mask006.png,,,,,,,,,,,,0,1,,,,,,,2,4,1,1,,,,,,,,,,,2843.4755,2843.9764,2844.227,2849.012,space,4.7674,,2849.0121,28,32,2850.0121,2850.0121,2850.025,,,,0,27,27,27,1,175,55,,,,,,,,
,,5d43c0183d65ca001a804090,65af558eb1b2d753c0180a0c,2024-01-23_24h00.54.949,bars,2023.2.3,MacIntel,59.97361161,657b66ea316d21385b68909f,,,,,,,,,,,2850.0254,2851.013,,,2851.5139,2851.7626,,68,68,,,,,,,,,,,,,,,,bars/026.png,bars/mask002.png,,,,,,,,,,,,1,2,,,,,,,4,2,5,3,,,,,,,,,,,2851.0131,2851.5138,2851.7626,2862.0506,space,10.2712,,2862.0507,33,17,2863.0523,2863.0524,2863.0649,,,,0,28,28,28,1,35,85,,,,,,,,
,,5d43c0183d65ca001a804090,65af558eb1b2d753c0180a0c,2024-01-23_24h00.54.949,bars,2023.2.3,MacIntel,59.97361161,657b66ea316d21385b68909f,,,,,,,,,,,2863.0652,2864.0698,,,2864.5697,2864.8201,,65,65,,,,,,,,,,,,,,,,bars/035.png,bars/mask008.png,,,,,,,,,,,,0,2,,,,,,,2,0,3,0,,,,,,,,,,,2864.0699,2864.5697,2864.8201,2871.4729,space,6.6375,,2871.473,70,5,2872.4728,2872.4729,2872.4839,,,,0,29,29,29,1,175,60,,,,,,,,
,,5d43c0183d65ca001a804090,65af558eb1b2d753c0180a0c,2024-01-23_24h00.54.949,bars,2023.2.3,MacIntel,59.97361161,657b66ea316d21385b68909f,,,,,,,,,,,2872.4841,2873.4742,,,2873.9738,2874.2247,,105,105,,,,,,,,,,,,,,,,bars/001.png,bars/mask002.png,,,,,,,,,,,,0,2,,,,,,,0,0,2,0,,,,,,,,,,,2873.4742,2873.9738,2874.2247,2884.079,space,9.8403,,2884.0791,25,20,2885.0787,2885.0787,2885.0923,,,,0,30,30,30,1,130,85,,,,,,,,
,,5d43c0183d65ca001a804090,65af558eb1b2d753c0180a0c,2024-01-23_24h00.54.949,bars,2023.2.3,MacIntel,59.97361161,657b66ea316d21385b68909f,,,,,,,,,,,2885.0926,2886.0955,,,2886.5959,2886.8464,,74,74,,,,,,,,,,,,,,,,bars/023.png,bars/mask007.png,,,,,,,,,,,,0,2,,,,,,,2,0,1,0,,,,,,,,,,,2886.0956,2886.5959,2886.8464,2926.6495,space,39.7795,,2926.6496,54,41,2927.6499,2927.6499,2927.6618,,,,0,31,31,31,1,20,115,,,,,,,,
,,5d43c0183d65ca001a804090,65af558eb1b2d753c0180a0c,2024-01-23_24h00.54.949,bars,2023.2.3,MacIntel,59.97361161,657b66ea316d21385b68909f,,,,,,,,,,,2927.662,2928.65,,,2929.1502,2929.4006,,156,156,,,,,,,,,,,,,,,,bars/033.png,bars/mask005.png,,,,,,,,,,,,0,2,,,,,,,0,0,0,0,,,,,,,,,,,2928.65,2929.1502,2929.4006,2933.7024,space,4.2875,,2933.7024,49,1,2934.7025,2934.7026,2934.7137,,,,0,32,32,32,1,25,155,,,,,,,,
,,5d43c0183d65ca001a804090,65af558eb1b2d753c0180a0c,2024-01-23_24h00.54.949,bars,2023.2.3,MacIntel,59.97361161,657b66ea316d21385b68909f,,,,,,,,,,,2934.7139,2935.7024,,,2936.2035,2936.4526,,69,69,,,,,,,,,,,,,,,,bars/009.png,bars/mask001.png,,,,,,,,,,,,0,2,,,,,,,0,2,0,2,,,,,,,,,,,2935.7025,2936.2035,2936.4527,2941.0925,space,4.6228,,2941.0926,54,36,2942.0894,2942.0894,2942.1013,,,,0,33,33,33,1,15,105,,,,,,,,
,,5d43c0183d65ca001a804090,65af558eb1b2d753c0180a0c,2024-01-23_24h00.54.949,bars,2023.2.3,MacIntel,59.97361161,657b66ea316d21385b68909f,,,,,,,,,,,2942.1015,2943.0906,,,2943.5901,2943.8406,,88,88,,,,,,,,,,,,,,,,bars/006.png,bars/mask002.png,,,,,,,,,,,,1,2,,,,,,,2,0,2,1,,,,,,,,,,,2943.0906,2943.59,2943.8406,2946.4424,space,2.5836,,2946.4424,53,12,2947.4413,2947.4413,2947.4531,,,,0,34,34,34,1,35,100,,,,,,,,
,,5d43c0183d65ca001a804090,65af558eb1b2d753c0180a0c,2024-01-23_24h00.54.949,bars,2023.2.3,MacIntel,59.97361161,657b66ea316d21385b68909f,,,,,,,,,,,2947.4533,2948.4428,,,2948.9426,2949.193,,156,156,,,,,,,,,,,,,,,,bars/049.png,bars/mask004.png,,,,,,,,,,,,0,1,,,,,,,0,2,0,1,,,,,,,,,,,2948.4428,2948.9425,2949.193,2952.8443,space,3.6354,,2952.8444,4,41,2953.8442,2953.8442,2953.8581,,,,0,35,35,35,1,160,115,,,,,,,,
,,5d43c0183d65ca001a804090,65af558eb1b2d753c0180a0c,2024-01-23_24h00.54.949,bars,2023.2.3,MacIntel,59.97361161,657b66ea316d21385b68909f,,,,,,,,,,,2953.8584,2954.8615,,,2955.3615,2955.6114,,120,120,,,,,,,,,,,,,,,,bars/049.png,bars/mask001.png,,,,,,,,,,,,0,2,,,,,,,2,0,3,0,,,,,,,,,,,2954.8616,2955.3614,2955.6115,2959.498,space,3.8678,,2959.4981,40,5,2960.4975,2960.4975,2960.5099,,,,0,36,36,36,1,160,115,,,,,,,,
,,5d43c0183d65ca001a804090,65af558eb1b2d753c0180a0c,2024-01-23_24h00.54.949,bars,2023.2.3,MacIntel,59.97361161,657b66ea316d21385b68909f,,,,,,,,,,,2960.5101,2961.4992,,,2961.9977,2962.2489,,41,221,,,,,,,,,,,,,,,,bars/030.png,bars/mask006.png,,,,,,,,,,,,0,2,,,,,,,4,2,5,1,,,,,,,,,,,2961.4992,2961.9976,2962.2506,2971.6206,space,9.3577,,2971.6206,81,24,2972.613,2972.613,2972.6318,,,,0,37,37,37,1,140,65,,,,,,,,
,,5d43c0183d65ca001a804090,65af558eb1b2d753c0180a0c,2024-01-23_24h00.54.949,bars,2023.2.3,MacIntel,59.97361161,657b66ea316d21385b68909f,,,,,,,,,,,2972.6321,2973.6216,,,2974.1208,2974.3717,,89,89,,,,,,,,,,,,,,,,bars/022.png,bars/mask000.png,,,,,,,,,,,,2,1,,,,,,,2,4,2,5,,,,,,,,,,,2973.6217,2974.1207,2974.3717,2979.5242,space,5.137,,2979.5243,6,69,2980.5249,2980.5249,2980.5375,,,,0,38,38,38,1,95,20,,,,,,,,
,,5d43c0183d65ca001a804090,65af558eb1b2d753c0180a0c,2024-01-23_24h00.54.949,bars,2023.2.3,MacIntel,59.97361161,657b66ea316d21385b68909f,,,,,,,,,,,2980.5378,2981.5421,,,2982.0407,2982.2917,,7,187,,,,,,,,,,,,,,,,bars/023.png,bars/mask006.png,,,,,,,,,,,,2,1,,,,,,,4,6,3,6,,,,,,,,,,,2981.5422,2982.0407,2982.2918,2989.8128,space,7.5043,,2989.8128,13,72,2990.8119,2990.8119,2990.8237,,,,0,39,39,39,1,20,115,,,,,,,,
,,5d43c0183d65ca001a804090,65af558eb1b2d753c0180a0c,2024-01-23_24h00.54.949,bars,2023.2.3,MacIntel,59.97361161,657b66ea316d21385b68909f,,,,,,,,,,,2990.8239,2991.8125,,,2992.3125,2992.5626,,67,67,,,,,,,,,,,,,,,,bars/047.png,bars/mask002.png,,,,,,,,,,,,3,2,,,,,,,2,4,1,3,,,,,,,,,,,2991.8126,2992.3125,2992.5626,2996.8317,space,4.2494,,2996.8317,52,3,2997.832,2997.832,2997.8467,,,,0,40,40,40,1,15,70,,,,,,,,
,,5d43c0183d65ca001a804090,65af558eb1b2d753c0180a0c,2024-01-23_24h00.54.949,bars,2023.2.3,MacIntel,59.97361161,657b66ea316d21385b68909f,,,,,,,,,,,2997.847,2998.8582,,,2999.3497,2999.5996,,41,41,,,,,,,,,,,,,,,,bars/007.png,bars/mask008.png,,,,,,,,,,,,1,2,,,,,,,4,2,3,2,,,,,,,,,,,2998.8583,2999.3497,2999.5996,3003.9195,space,4.3085,,3003.9195,46,14,3004.9193,3004.9193,3004.9305,,,,0,41,41,41,1,175,55,,,,,,,,
,,5d43c0183d65ca001a804090,65af558eb1b2d753c0180a0c,2024-01-23_24h00.54.949,bars,2023.2.3,MacIntel,59.97361161,657b66ea316d21385b68909f,,,,,,,,,,,3004.9308,3005.92,,,3006.4201,3006.6695,,26,206,,,,,,,,,,,,,,,,bars/029.png,bars/mask009.png,,,,,,,,,,,,0,2,,,,,,,6,0,7,1,,,,,,,,,,,3005.92,3006.4201,3006.6697,3010.3879,space,3.7006,,3010.388,64,19,3011.3887,3011.3888,3011.3998,,,,0,42,42,42,1,90,45,,,,,,,,
,,5d43c0183d65ca001a804090,65af558eb1b2d753c0180a0c,2024-01-23_24h00.54.949,bars,2023.2.3,MacIntel,59.97361161,657b66ea316d21385b68909f,,,,,,,,,,,3011.4001,3012.389,,,3012.89,3013.1402,,11,191,,,,,,,,,,,,,,,,bars/012.png,bars/mask003.png,,,,,,,,,,,,0,2,,,,,,,4,0,6,0,,,,,,,,,,,3012.389,3012.89,3013.1402,3017.7747,space,4.6155,,3017.7748,79,4,3018.7772,3018.7773,3018.7891,,,,0,43,43,43,1,90,15,,,,,,,,
,,5d43c0183d65ca001a804090,65af558eb1b2d753c0180a0c,2024-01-23_24h00.54.949,bars,2023.2.3,MacIntel,59.97361161,657b66ea316d21385b68909f,,,,,,,,,,,3018.7895,3019.7946,,,3020.2939,3020.5436,,92,92,,,,,,,,,,,,,,,,bars/018.png,bars/mask003.png,,,,,,,,,,,,0,2,,,,,,,2,0,2,0,,,,,,,,,,,3019.7948,3020.2939,3020.5437,3031.3655,space,10.8002,,3031.3655,58,2,3032.3654,3032.3655,3032.3773,,,,0,44,44,44,1,150,90,,,,,,,,
,,5d43c0183d65ca001a804090,65af558eb1b2d753c0180a0c,2024-01-23_24h00.54.949,bars,2023.2.3,MacIntel,59.97361161,657b66ea316d21385b68909f,,,,,,,,,,,3032.3775,3033.3668,,,3033.8665,3034.1171,,28,208,,,,,,,,,,,,,,,,bars/013.png,bars/mask001.png,,,,,,,,,,,,1,2,,,,,,,0,0,0,2,,,,,,,,,,,3033.3669,3033.8665,3034.1172,3043.6039,space,9.4717,,3043.604,47,18,3044.6047,3044.6048,3044.6166,,,,0,45,45,45,1,75,10,,,,,,,,
,,5d43c0183d65ca001a804090,65af558eb1b2d753c0180a0c,2024-01-23_24h00.54.949,bars,2023.2.3,MacIntel,59.97361161,657b66ea316d21385b68909f,,,,,,,,,,,3044.6168,3045.6052,,,3046.1053,3046.3558,,57,57,,,,,,,,,,,,,,,,bars/047.png,bars/mask008.png,,,,,,,,,,,,1,2,,,,,,,2,2,2,1,,,,,,,,,,,3045.6052,3046.1052,3046.3558,3056.0105,space,9.6352,,3056.0106,42,13,3057.0048,3057.0048,3057.059,,,,0,46,46,46,1,15,70,,,,,,,,
,,5d43c0183d65ca001a804090,65af558eb1b2d753c0180a0c,2024-01-23_24h00.54.949,bars,2023.2.3,MacIntel,59.97361161,657b66ea316d21385b68909f,,,,,,,,,,,3057.0594,3058.0605,,,3058.5609,3058.8117,,36,36,,,,,,,,,,,,,,,,bars/031.png,bars/mask005.png,,,,,,,,,,,,1,2,,,,,,,4,0,5,1,,,,,,,,,,,3058.0605,3058.5609,3058.8118,3068.9657,space,10.1382,,3068.9657,84,1,3069.9658,3069.9658,3069.979,,,,0,47,47,47,1,120,35,,,,,,,,
,,5d43c0183d65ca001a804090,65af558eb1b2d753c0180a0c,2024-01-23_24h00.54.949,bars,2023.2.3,MacIntel,59.97361161,657b66ea316d21385b68909f,,,,,,,,,,,3069.9792,3070.9671,,,3071.467,3071.7172,,22,22,,,,,,,,,,,,,,,,bars/022.png,bars/mask006.png,,,,,,,,,,,,3,2,,,,,,,6,2,7,3,,,,,,,,,,,3070.9672,3071.4669,3071.7172,3074.67,space,2.9418,,3074.6701,73,2,3075.6696,3075.6696,3075.6811,,,,0,48,48,48,1,95,20,,,,,,,,
,,5d43c0183d65ca001a804090,65af558eb1b2d753c0180a0c,2024-01-23_24h00.54.949,bars,2023.2.3,MacIntel,59.97361161,657b66ea316d21385b68909f,,,,,,,,,,,3075.6813,3076.6702,,,3077.1703,3077.4209,,36,36,,,,,,,,,,,,,,,,bars/025.png,bars/mask003.png,,,,,,,,,,,,3,2,,,,,,,4,4,3,4,,,,,,,,,,,3076.6702,3077.1702,3077.4209,3090.3594,space,12.9227,,3090.3594,69,4,3091.3606,3091.3606,3091.3722,,,,0,49,49,49,1,105,40,,,,,,,,
,,5d43c0183d65ca001a804090,65af558eb1b2d753c0180a0c,2024-01-23_24h00.54.949,bars,2023.2.3,MacIntel,59.97361161,657b66ea316d21385b68909f,,,,,,,,,,,,,,,,,,,,,,,,,,,,,,,,,,,,,,,,,,,,,,,,,,,,,,,,,,,,,,,,,,,,,,,,,,,,,,,,,,,,,,,,,,,,,3091.3723,3151.3713,0,1,1,4,1,sequence_tables/blk023.csv
,,5d43c0183d65ca001a804090,65af558eb1b2d753c0180a0c,2024-01-23_24h00.54.949,bars,2023.2.3,MacIntel,59.97361161,657b66ea316d21385b68909f,,,,,,,,,,,3177.477,3178.4522,,,3178.9525,3179.2022,,71,71,,,,,,,,,,,,,,,,bars/019.png,bars/mask001.png,,,,,,,,,,,,1,1,,,,,,,7,6,8,7,,,,,,3151.3832,3177.4517,space,26.0567,,3178.4523,3178.9525,3179.2022,3185.3714,space,6.1536,,3185.3715,26,34,3186.3724,3186.3724,3186.3851,,,,0,0,0,0,1,45,105,,,,,,,,
,,5d43c0183d65ca001a804090,65af558eb1b2d753c0180a0c,2024-01-23_24h00.54.949,bars,2023.2.3,MacIntel,59.97361161,657b66ea316d21385b68909f,,,,,,,,,,,3186.3854,3187.389,,,3187.8887,3188.1391,,3,3,,,,,,,,,,,,,,,,bars/023.png,bars/mask009.png,,,,,,,,,,,,3,1,,,,,,,5,4,7,3,,,,,,,,,,,3187.3891,3187.8886,3188.1392,3191.2416,space,3.0883,,3191.2417,17,68,3192.2417,3192.2417,3192.2533,,,,0,1,1,1,1,20,115,,,,,,,,
,,5d43c0183d65ca001a804090,65af558eb1b2d753c0180a0c,2024-01-23_24h00.54.949,bars,2023.2.3,MacIntel,59.97361161,657b66ea316d21385b68909f,,,,,,,,,,,3192.2534,3193.242,,,3193.7421,3193.9929,,93,93,,,,,,,,,,,,,,,,bars/021.png,bars/mask000.png,,,,,,,,,,,,0,2,,,,,,,3,2,2,2,,,,,,,,,,,3193.242,3193.742,3193.9929,3195.1766,space,1.17,,3195.1767,62,23,3196.1771,3196.1771,3196.1808,,,,0,2,2,2,1,155,70,,,,,,,,
,,5d43c0183d65ca001a804090,65af558eb1b2d753c0180a0c,2024-01-23_24h00.54.949,bars,2023.2.3,MacIntel,59.97361161,657b66ea316d21385b68909f,,,,,,,,,,,3196.1812,3197.1765,,,3197.6773,3197.9274,,154,-26,,,,,,,,,,,,,,,,bars/044.png,bars/mask009.png,,,,,,,,,,,,0,2,,,,,,,1,0,0,0,,,,,,,,,,,3197.1765,3197.6772,3197.9274,3202.4632,space,4.5135,,3202.4632,79,1,3203.4628,3203.4628,3203.4745,,,,0,3,3,3,1,75,155,,,,,,,,
,,5d43c0183d65ca001a804090,65af558eb1b2d753c0180a0c,2024-01-23_24h00.54.949,bars,2023.2.3,MacIntel,59.97361161,657b66ea316d21385b68909f,,,,,,,,,,,3203.4747,3204.4636,,,3204.964,3205.2148,,97,97,,,,,,,,,,,,,,,,bars/046.png,bars/mask000.png,,,,,,,,,,,,0,2,,,,,,,3,0,4,0,,,,,,,,,,,3204.4636,3204.964,3205.2148,3208.8664,space,3.6384,,3208.8664,58,12,3209.8658,3209.8659,3209.8785,,,,0,4,4,4,1,155,85,,,,,,,,
,,5d43c0183d65ca001a804090,65af558eb1b2d753c0180a0c,2024-01-23_24h00.54.949,bars,2023.2.3,MacIntel,59.97361161,657b66ea316d21385b68909f,,,,,,,,,,,3209.8787,3210.8664,,,3211.3673,3211.6164,,161,-19,,,,,,,,,,,,,,,,bars/036.png,bars/mask006.png,,,,,,,,,,,,1,1,,,,,,,1,2,2,1,,,,,,,,,,,3210.8664,3211.3673,3211.6164,3220.571,space,8.9399,,3220.571,16,39,3221.5717,3221.5718,3221.5845,,,,0,5,5,5,1,145,20,,,,,,,,
,,5d43c0183d65ca001a804090,65af558eb1b2d753c0180a0c,2024-01-23_24h00.54.949,bars,2023.2.3,MacIntel,59.97361161,657b66ea316d21385b68909f,,,,,,,,,,,3221.5848,3222.5885,,,3223.09,3223.3409,,67,67,,,,,,,,,,,,,,,,bars/038.png,bars/mask008.png,,,,,,,,,,,,5,2,,,,,,,0,4,0,5,,,,,,,,,,,3222.5885,3223.0899,3223.3411,3226.926,space,3.5725,,3226.9263,82,3,3227.9246,3227.9246,3227.937,,,,0,6,6,6,1,165,70,,,,,,,,
,,5d43c0183d65ca001a804090,65af558eb1b2d753c0180a0c,2024-01-23_24h00.54.949,bars,2023.2.3,MacIntel,59.97361161,657b66ea316d21385b68909f,,,,,,,,,,,3227.9373,3228.9257,,,3229.425,3229.6755,,68,68,,,,,,,,,,,,,,,,bars/041.png,bars/mask006.png,,,,,,,,,,,,2,2,,,,,,,2,6,1,5,,,,,,,,,,,3228.9257,3229.425,3229.6756,3236.7616,space,7.0645,,3236.7616,48,17,3237.7633,3237.7633,3237.7746,,,,0,7,7,7,1,20,85,,,,,,,,
,,5d43c0183d65ca001a804090,65af558eb1b2d753c0180a0c,2024-01-23_24h00.54.949,bars,2023.2.3,MacIntel,59.97361161,657b66ea316d21385b68909f,,,,,,,,,,,3237.7748,3238.7628,,,3239.2645,3239.5131,,96,96,,,,,,,,,,,,,,,,bars/041.png,bars/mask006.png,,,,,,,,,,,,1,2,,,,,,,4,4,3,2,,,,,,,,,,,3238.7628,3239.2645,3239.5132,3246.3255,space,6.8023,,3246.3256,76,11,3247.3176,3247.3177,3247.3289,,,,0,8,8,8,1,20,85,,,,,,,,
,,5d43c0183d65ca001a804090,65af558eb1b2d753c0180a0c,2024-01-23_24h00.54.949,bars,2023.2.3,MacIntel,59.97361161,657b66ea316d21385b68909f,,,,,,,,,,,3247.3299,3248.3178,,,3248.8175,3249.0686,,26,26,,,,,,,,,,,,,,,,bars/043.png,bars/mask006.png,,,,,,,,,,,,2,1,,,,,,,2,2,2,1,,,,,,,,,,,3248.3179,3248.8175,3249.0686,3257.9556,space,8.8726,,3257.9556,4,76,3258.9563,3258.9563,3258.9699,,,,0,9,9,9,1,30,130,,,,,,,,
,,5d43c0183d65ca001a804090,65af558eb1b2d753c0180a0c,2024-01-23_24h00.54.949,bars,2023.2.3,MacIntel,59.97361161,657b66ea316d21385b68909f,,,,,,,,,,,3258.9701,3259.9576,,,3260.4566,3260.7075,,122,122,,,,,,,,,,,,,,,,bars/006.png,bars/mask006.png,,,,,,,,,,,,1,2,,,,,,,0,4,0,3,,,,,,,,,,,3259.9576,3260.4565,3260.7075,3265.9936,space,5.2702,,3265.9936,87,22,3266.9992,3266.9993,3267.0194,,,,0,10,10,10,1,35,100,,,,,,,,
,,5d43c0183d65ca001a804090,65af558eb1b2d753c0180a0c,2024-01-23_24h00.54.949,bars,2023.2.3,MacIntel,59.97361161,657b66ea316d21385b68909f,,,,,,,,,,,3267.0198,3268.0105,,,3268.5109,3268.7603,,139,139,,,,,,,,,,,,,,,,bars/049.png,bars/mask004.png,,,,,,,,,,,,0,1,,,,,,,0,6,1,6,,,,,,,,,,,3268.0106,3268.5108,3268.7604,3271.4289,space,2.6498,,3271.4289,21,24,3272.4294,3272.4294,3272.4417,,,,0,11,11,11,1,160,115,,,,,,,,
,,5d43c0183d65ca001a804090,65af558eb1b2d753c0180a0c,2024-01-23_24h00.54.949,bars,2023.2.3,MacIntel,59.97361161,657b66ea316d21385b68909f,,,,,,,,,,,3272.4419,3273.4468,,,3273.9474,3274.197,,31,31,,,,,,,,,,,,,,,,bars/016.png,bars/mask009.png,,,,,,,,,,,,1,1,,,,,,,0,4,2,3,,,,,,,,,,,3273.4468,3273.9474,3274.197,3277.0477,space,2.8407,,3277.0477,9,46,3278.0483,3278.0484,3278.062,,,,0,12,12,12,1,40,165,,,,,,,,
,,5d43c0183d65ca001a804090,65af558eb1b2d753c0180a0c,2024-01-23_24h00.54.949,bars,2023.2.3,MacIntel,59.97361161,657b66ea316d21385b68909f,,,,,,,,,,,3278.0622,3279.0498,,,3279.5501,3279.799,,65,65,,,,,,,,,,,,,,,,bars/018.png,bars/mask009.png,,,,,,,,,,,,1,2,,,,,,,0,6,0,5,,,,,,,,,,,3279.0499,3279.5501,3279.7991,3283.0009,space,3.1898,,3283.0009,85,25,3284.0009,3284.0009,3284.0135,,,,0,13,13,13,1,150,90,,,,,,,,
,,5d43c0183d65ca001a804090,65af558eb1b2d753c0180a0c,2024-01-23_24h00.54.949,bars,2023.2.3,MacIntel,59.97361161,657b66ea316d21385b68909f,,,,,,,,,,,3284.0137,3285.0015,,,3285.5018,3285.7518,,152,152,,,,,,,,,,,,,,,,bars/048.png,bars/mask007.png,,,,,,,,,,,,2,2,,,,,,,2,8,1,8,,,,,,,,,,,3285.0015,3285.5017,3285.7518,3289.738,space,3.9644,,3289.738,78,23,3290.7371,3290.7372,3290.752,,,,0,14,14,14,1,50,175,,,,,,,,
,,5d43c0183d65ca001a804090,65af558eb1b2d753c0180a0c,2024-01-23_24h00.54.949,bars,2023.2.3,MacIntel,59.97361161,657b66ea316d21385b68909f,,,,,,,,,,,3290.7523,3291.7544,,,3292.2543,3292.5054,,152,-28,,,,,,,,,,,,,,,,bars/003.png,bars/mask000.png,,,,,,,,,,,,3,2,,,,,,,0,6,1,5,,,,,,,,,,,3291.7544,3292.2542,3292.5055,3297.792,space,5.2707,,3297.792,53,12,3298.7917,3298.7917,3298.8035,,,,0,15,15,15,1,25,140,,,,,,,,
,,5d43c0183d65ca001a804090,65af558eb1b2d753c0180a0c,2024-01-23_24h00.54.949,bars,2023.2.3,MacIntel,59.97361161,657b66ea316d21385b68909f,,,,,,,,,,,3298.8038,3299.7921,,,3300.2921,3300.5429,,67,67,,,,,,,,,,,,,,,,bars/028.png,bars/mask003.png,,,,,,,,,,,,0,1,,,,,,,0,8,1,9,,,,,,,,,,,3299.7921,3300.292,3300.5429,3303.3442,space,2.7829,,3303.3443,22,53,3304.3445,3304.3446,3304.3608,,,,0,16,16,16,1,45,120,,,,,,,,
,,5d43c0183d65ca001a804090,65af558eb1b2d753c0180a0c,2024-01-23_24h00.54.949,bars,2023.2.3,MacIntel,59.97361161,657b66ea316d21385b68909f,,,,,,,,,,,3304.3613,3305.3622,,,3305.8628,3306.1119,,121,121,,,,,,,,,,,,,,,,bars/028.png,bars/mask006.png,,,,,,,,,,,,10,2,,,,,,,2,10,1,10,,,,,,,,,,,3305.3623,3305.8627,3306.112,3312.848,space,6.7205,,3312.8481,76,1,3313.8501,3313.8502,3313.863,,,,0,17,17,17,1,45,120,,,,,,,,
,,5d43c0183d65ca001a804090,65af558eb1b2d753c0180a0c,2024-01-23_24h00.54.949,bars,2023.2.3,MacIntel,59.97361161,657b66ea316d21385b68909f,,,,,,,,,,,3313.8633,3314.8674,,,3315.3658,3315.617,,10,190,,,,,,,,,,,,,,,,bars/014.png,bars/mask006.png,,,,,,,,,,,,6,2,,,,,,,4,10,2,9,,,,,,,,,,,3314.8674,3315.3657,3315.6171,3324.1544,space,8.5205,,3324.1544,70,10,3325.1537,3325.1537,3325.1661,,,,0,18,18,18,1,80,0,,,,,,,,
,,5d43c0183d65ca001a804090,65af558eb1b2d753c0180a0c,2024-01-23_24h00.54.949,bars,2023.2.3,MacIntel,59.97361161,657b66ea316d21385b68909f,,,,,,,,,,,3325.1664,3326.1545,,,3326.6544,3326.9046,,68,68,,,,,,,,,,,,,,,,bars/038.png,bars/mask007.png,,,,,,,,,,,,9,2,,,,,,,2,10,3,10,,,,,,,,,,,3326.1545,3326.6544,3326.9046,3330.04,space,3.1185,,3330.0401,83,2,3331.0407,3331.0408,3331.0524,,,,0,19,19,19,1,165,70,,,,,,,,
,,5d43c0183d65ca001a804090,65af558eb1b2d753c0180a0c,2024-01-23_24h00.54.949,bars,2023.2.3,MacIntel,59.97361161,657b66ea316d21385b68909f,,,,,,,,,,,3331.0527,3332.0403,,,3332.5407,3332.7915,,35,35,,,,,,,,,,,,,,,,bars/025.png,bars/mask008.png,,,,,,,,,,,,7,2,,,,,,,0,8,0,8,,,,,,,,,,,3332.0403,3332.5407,3332.7916,3334.3754,space,1.5655,,3334.3754,70,5,3335.377,3335.377,3335.3899,,,,0,20,20,20,1,105,40,,,,,,,,
,,5d43c0183d65ca001a804090,65af558eb1b2d753c0180a0c,2024-01-23_24h00.54.949,bars,2023.2.3,MacIntel,59.97361161,657b66ea316d21385b68909f,,,,,,,,,,,3335.3902,3336.3924,,,3336.8939,3337.143,,28,28,,,,,,,,,,,,,,,,bars/034.png,bars/mask004.png,,,,,,,,,,,,0,2,,,,,,,0,10,3,10,,,,,,,,,,,3336.3925,3336.8939,3337.143,3338.2111,space,1.0567,,3338.2112,83,37,3339.2104,3339.2104,3339.2223,,,,0,21,21,21,1,125,65,,,,,,,,
,,5d43c0183d65ca001a804090,65af558eb1b2d753c0180a0c,2024-01-23_24h00.54.949,bars,2023.2.3,MacIntel,59.97361161,657b66ea316d21385b68909f,,,,,,,,,,,3339.2225,3340.2123,,,3340.7112,3340.9618,,64,64,,,,,,,,,,,,,,,,bars/001.png,bars/mask003.png,,,,,,,,,,,,3,2,,,,,,,2,10,3,9,,,,,,,,,,,3340.2123,3340.7111,3340.9619,3344.0647,space,3.085,,3344.0648,66,21,3345.0634,3345.0634,3345.0742,,,,0,22,22,22,1,130,85,,,,,,,,
,,5d43c0183d65ca001a804090,65af558eb1b2d753c0180a0c,2024-01-23_24h00.54.949,bars,2023.2.3,MacIntel,59.97361161,657b66ea316d21385b68909f,,,,,,,,,,,3345.0744,3346.0637,,,3346.5648,3346.8153,,73,73,,,,,,,,,,,,,,,,bars/011.png,bars/mask009.png,,,,,,,,,,,,5,2,,,,,,,0,8,0,8,,,,,,,,,,,3346.0637,3346.5648,3346.8154,3350.8501,space,4.0204,,3350.8501,87,12,3351.8511,3351.8511,3351.8629,,,,0,23,23,23,1,160,85,,,,,,,,
,,5d43c0183d65ca001a804090,65af558eb1b2d753c0180a0c,2024-01-23_24h00.54.949,bars,2023.2.3,MacIntel,59.97361161,657b66ea316d21385b68909f,,,,,,,,,,,3351.8631,3352.8514,,,3353.3511,3353.6012,,61,61,,,,,,,,,,,,,,,,bars/022.png,bars/mask007.png,,,,,,,,,,,,0,1,,,,,,,2,10,1,10,,,,,,,,,,,3352.8515,3353.351,3353.6012,3361.6878,space,8.0715,,3361.6879,34,41,3362.6895,3362.6895,3362.7024,,,,0,24,24,24,1,95,20,,,,,,,,
,,5d43c0183d65ca001a804090,65af558eb1b2d753c0180a0c,2024-01-23_24h00.54.949,bars,2023.2.3,MacIntel,59.97361161,657b66ea316d21385b68909f,,,,,,,,,,,3362.7026,3363.7062,,,3364.2057,3364.4563,,151,-29,,,,,,,,,,,,,,,,bars/017.png,bars/mask004.png,,,,,,,,,,,,2,1,,,,,,,4,8,3,8,,,,,,,,,,,3363.7062,3364.2056,3364.4563,3374.4952,space,10.0176,,3374.4953,6,74,3375.4944,3375.4944,3375.5057,,,,0,25,25,25,1,145,45,,,,,,,,
,,5d43c0183d65ca001a804090,65af558eb1b2d753c0180a0c,2024-01-23_24h00.54.949,bars,2023.2.3,MacIntel,59.97361161,657b66ea316d21385b68909f,,,,,,,,,,,3375.506,3376.4948,,,3376.9948,3377.2456,,137,137,,,,,,,,,,,,,,,,bars/037.png,bars/mask000.png,,,,,,,,,,,,3,1,,,,,,,6,10,6,9,,,,,,,,,,,3376.4948,3376.9947,3377.2456,3378.4302,space,1.1638,,3378.4304,13,32,3379.4294,3379.4295,3379.4302,,,,0,26,26,26,1,150,105,,,,,,,,
,,5d43c0183d65ca001a804090,65af558eb1b2d753c0180a0c,2024-01-23_24h00.54.949,bars,2023.2.3,MacIntel,59.97361161,657b66ea316d21385b68909f,,,,,,,,,,,3379.4305,3380.4307,,,3380.9315,3381.1801,,130,130,,,,,,,,,,,,,,,,bars/021.png,bars/mask008.png,,,,,,,,,,,,1,1,,,,,,,4,10,5,10,,,,,,,,,,,3380.4308,3380.9315,3381.1802,3386.067,space,4.8751,,3386.067,25,60,3387.0676,3387.0676,3387.0793,,,,0,27,27,27,1,155,70,,,,,,,,
,,5d43c0183d65ca001a804090,65af558eb1b2d753c0180a0c,2024-01-23_24h00.54.949,bars,2023.2.3,MacIntel,59.97361161,657b66ea316d21385b68909f,,,,,,,,,,,3387.0795,3388.0674,,,3388.5683,3388.8177,,137,137,,,,,,,,,,,,,,,,bars/044.png,bars/mask003.png,,,,,,,,,,,,4,2,,,,,,,6,10,7,10,,,,,,,,,,,3388.0675,3388.5682,3388.8178,3392.3196,space,3.4841,,3392.3196,62,18,3393.3204,3393.3204,3393.3406,,,,0,28,28,28,1,75,155,,,,,,,,
,,5d43c0183d65ca001a804090,65af558eb1b2d753c0180a0c,2024-01-23_24h00.54.949,bars,2023.2.3,MacIntel,59.97361161,657b66ea316d21385b68909f,,,,,,,,,,,3393.3414,3394.3365,,,3394.8369,3395.0872,,141,141,,,,,,,,,,,,,,,,bars/036.png,bars/mask007.png,,,,,,,,,,,,3,1,,,,,,,4,10,4,9,,,,,,,,,,,3394.3365,3394.8369,3395.0872,3404.6586,space,9.5565,,3404.6587,4,59,3405.6599,3405.6599,3405.6735,,,,0,29,29,29,1,145,20,,,,,,,,
,,5d43c0183d65ca001a804090,65af558eb1b2d753c0180a0c,2024-01-23_24h00.54.949,bars,2023.2.3,MacIntel,59.97361161,657b66ea316d21385b68909f,,,,,,,,,,,3405.6738,3406.6762,,,3407.1767,3407.4286,,17,197,,,,,,,,,,,,,,,,bars/034.png,bars/mask008.png,,,,,,,,,,,,0,2,,,,,,,6,8,6,8,,,,,,,,,,,3406.6763,3407.1767,3407.4287,3413.2302,space,5.7899,,3413.2303,72,48,3414.2303,3414.2303,3414.2458,,,,0,30,30,30,1,125,65,,,,,,,,
,,5d43c0183d65ca001a804090,65af558eb1b2d753c0180a0c,2024-01-23_24h00.54.949,bars,2023.2.3,MacIntel,59.97361161,657b66ea316d21385b68909f,,,,,,,,,,,3414.2462,3415.2471,,,3415.7468,3415.9974,,161,161,,,,,,,,,,,,,,,,bars/049.png,bars/mask003.png,,,,,,,,,,,,5,1,,,,,,,4,6,5,6,,,,,,,,,,,3415.2471,3415.7468,3415.9975,3420.4669,space,4.4541,,3420.467,1,46,3421.467,3421.4671,3421.4827,,,,0,31,31,31,1,160,115,,,,,,,,
,,5d43c0183d65ca001a804090,65af558eb1b2d753c0180a0c,2024-01-23_24h00.54.949,bars,2023.2.3,MacIntel,59.97361161,657b66ea316d21385b68909f,,,,,,,,,,,3421.483,3422.4835,,,3422.984,3423.2338,,23,23,,,,,,,,,,,,,,,,bars/031.png,bars/mask008.png,,,,,,,,,,,,4,2,,,,,,,2,8,1,6,,,,,,,,,,,3422.4836,3422.984,3423.2338,3433.122,space,9.8712,,3433.122,83,12,3434.1233,3434.1233,3434.1359,,,,0,32,32,32,1,120,35,,,,,,,,
,,5d43c0183d65ca001a804090,65af558eb1b2d753c0180a0c,2024-01-23_24h00.54.949,bars,2023.2.3,MacIntel,59.97361161,657b66ea316d21385b68909f,,,,,,,,,,,3434.1362,3435.1238,,,3435.6229,3435.8736,,140,140,,,,,,,,,,,,,,,,bars/023.png,bars/mask005.png,,,,,,,,,,,,1,2,,,,,,,0,6,0,6,,,,,,,,,,,3435.1238,3435.6229,3435.8737,3439.2419,space,3.3523,,3439.2419,60,25,3440.2252,3440.2253,3440.2405,,,,0,33,33,33,1,20,115,,,,,,,,
,,5d43c0183d65ca001a804090,65af558eb1b2d753c0180a0c,2024-01-23_24h00.54.949,bars,2023.2.3,MacIntel,59.97361161,657b66ea316d21385b68909f,,,,,,,,,,,3440.2408,3441.2433,,,3441.743,3441.9935,,38,38,,,,,,,,,,,,,,,,bars/029.png,bars/mask001.png,,,,,,,,,,,,7,2,,,,,,,2,8,3,9,,,,,,,,,,,3441.2434,3441.743,3441.9935,3450.4633,space,8.4524,,3450.4634,52,7,3451.4648,3451.4649,3451.4767,,,,0,34,34,34,1,90,45,,,,,,,,
,,5d43c0183d65ca001a804090,65af558eb1b2d753c0180a0c,2024-01-23_24h00.54.949,bars,2023.2.3,MacIntel,59.97361161,657b66ea316d21385b68909f,,,,,,,,,,,3451.4769,3452.4816,,,3452.982,3453.2317,,40,40,,,,,,,,,,,,,,,,bars/010.png,bars/mask008.png,,,,,,,,,,,,5,2,,,,,,,0,10,0,9,,,,,,,,,,,3452.4817,3452.982,3453.2317,3457.0013,space,3.7446,,3457.0013,55,15,3458.001,3458.0011,3458.0126,,,,0,35,35,35,1,165,55,,,,,,,,
,,5d43c0183d65ca001a804090,65af558eb1b2d753c0180a0c,2024-01-23_24h00.54.949,bars,2023.2.3,MacIntel,59.97361161,657b66ea316d21385b68909f,,,,,,,,,,,3458.0128,3459.0017,,,3459.5022,3459.7526,,136,136,,,,,,,,,,,,,,,,bars/000.png,bars/mask006.png,,,,,,,,,,,,6,2,,,,,,,0,8,0,9,,,,,,,,,,,3459.0017,3459.502,3459.7527,3462.6364,space,2.8689,,3462.6364,84,9,3463.6363,3463.6363,3463.6477,,,,0,36,36,36,1,40,145,,,,,,,,
,,5d43c0183d65ca001a804090,65af558eb1b2d753c0180a0c,2024-01-23_24h00.54.949,bars,2023.2.3,MacIntel,59.97361161,657b66ea316d21385b68909f,,,,,,,,,,,3463.6479,3464.6364,,,3465.1371,3465.3882,,107,107,,,,,,,,,,,,,,,,bars/011.png,bars/mask005.png,,,,,,,,,,,,2,2,,,,,,,2,6,3,6,,,,,,,,,,,3464.6365,3465.1371,3465.3882,3471.5747,space,6.175,,3471.5747,53,22,3472.5734,3472.5734,3472.5851,,,,0,37,37,37,1,160,85,,,,,,,,
,,5d43c0183d65ca001a804090,65af558eb1b2d753c0180a0c,2024-01-23_24h00.54.949,bars,2023.2.3,MacIntel,59.97361161,657b66ea316d21385b68909f,,,,,,,,,,,3472.5852,3473.5747,,,3474.0753,3474.3252,,172,172,,,,,,,,,,,,,,,,bars/040.png,bars/mask004.png,,,,,,,,,,,,4,2,,,,,,,4,8,4,7,,,,,,,,,,,3473.5747,3474.0753,3474.3253,3480.1786,space,5.8317,,3480.1786,32,13,3481.1776,3481.1777,3481.1887,,,,0,38,38,38,1,140,5,,,,,,,,
,,5d43c0183d65ca001a804090,65af558eb1b2d753c0180a0c,2024-01-23_24h00.54.949,bars,2023.2.3,MacIntel,59.97361161,657b66ea316d21385b68909f,,,,,,,,,,,3481.1891,3482.1785,,,3482.6795,3482.9285,,135,135,,,,,,,,,,,,,,,,bars/004.png,bars/mask005.png,,,,,,,,,,,,4,2,,,,,,,2,6,1,6,,,,,,,,,,,3482.1786,3482.6795,3482.9286,3487.0981,space,4.1599,,3487.0981,70,10,3488.0991,3488.0991,3488.1104,,,,0,39,39,39,1,25,125,,,,,,,,
,,5d43c0183d65ca001a804090,65af558eb1b2d753c0180a0c,2024-01-23_24h00.54.949,bars,2023.2.3,MacIntel,59.97361161,657b66ea316d21385b68909f,,,,,,,,,,,3488.1105,3489.099,,,3489.5985,3489.8478,,173,173,,,,,,,,,,,,,,,,bars/023.png,bars/mask006.png,,,,,,,,,,,,0,1,,,,,,,0,4,0,3,,,,,,,,,,,3489.099,3489.5984,3489.8479,3495.9019,space,6.045,,3495.9019,27,58,3496.9028,3496.9028,3496.9147,,,,0,40,40,40,1,20,115,,,,,,,,
,,5d43c0183d65ca001a804090,65af558eb1b2d753c0180a0c,2024-01-23_24h00.54.949,bars,2023.2.3,MacIntel,59.97361161,657b66ea316d21385b68909f,,,,,,,,,,,3496.9149,3497.9053,,,3498.4037,3498.6533,,112,112,,,,,,,,,,,,,,,,bars/011.png,bars/mask000.png,,,,,,,,,,,,0,2,,,,,,,2,6,1,5,,,,,,,,,,,3497.9053,3498.4037,3498.6533,3502.8722,space,4.2017,,3502.8722,48,27,3503.8727,3503.8727,3503.8848,,,,0,41,41,41,1,160,85,,,,,,,,
,,5d43c0183d65ca001a804090,65af558eb1b2d753c0180a0c,2024-01-23_24h00.54.949,bars,2023.2.3,MacIntel,59.97361161,657b66ea316d21385b68909f,,,,,,,,,,,3503.8851,3504.8729,,,3505.3739,3505.6239,,138,138,,,,,,,,,,,,,,,,bars/003.png,bars/mask008.png,,,,,,,,,,,,7,2,,,,,,,4,8,4,7,,,,,,,,,,,3504.873,3505.3737,3505.624,3508.4806,space,2.8424,,3508.4807,67,2,3509.4748,3509.4748,3509.4861,,,,0,42,42,42,1,25,140,,,,,,,,
,,5d43c0183d65ca001a804090,65af558eb1b2d753c0180a0c,2024-01-23_24h00.54.949,bars,2023.2.3,MacIntel,59.97361161,657b66ea316d21385b68909f,,,,,,,,,,,3509.4864,3510.4751,,,3510.9768,3511.2262,,77,77,,,,,,,,,,,,,,,,bars/006.png,bars/mask001.png,,,,,,,,,,,,1,2,,,,,,,2,6,3,5,,,,,,,,,,,3510.4751,3510.9767,3511.2262,3516.4277,space,5.1871,,3516.4278,42,23,3517.4294,3517.4294,3517.4417,,,,0,43,43,43,1,35,100,,,,,,,,
,,5d43c0183d65ca001a804090,65af558eb1b2d753c0180a0c,2024-01-23_24h00.54.949,bars,2023.2.3,MacIntel,59.97361161,657b66ea316d21385b68909f,,,,,,,,,,,3517.4419,3518.43,,,3518.9224,3519.1629,,63,63,,,,,,,,,,,,,,,,bars/044.png,bars/mask000.png,,,,,,,,,,,,4,1,,,,,,,4,8,6,9,,,,,,,,,,,3518.43,3518.9223,3519.1629,3520.4638,space,1.2776,,3520.4639,12,88,3521.4635,3521.4635,3521.4661,,,,0,44,44,44,1,75,155,,,,,,,,
,,5d43c0183d65ca001a804090,65af558eb1b2d753c0180a0c,2024-01-23_24h00.54.949,bars,2023.2.3,MacIntel,59.97361161,657b66ea316d21385b68909f,,,,,,,,,,,3521.4667,3522.4646,,,3522.9652,3523.2144,,62,62,,,,,,,,,,,,,,,,bars/021.png,bars/mask006.png,,,,,,,,,,,,4,2,,,,,,,2,6,1,6,,,,,,,,,,,3522.4646,3522.9651,3523.2144,3527.884,space,4.66,,3527.8841,87,8,3528.8845,3528.8846,3528.8972,,,,0,45,45,45,1,155,70,,,,,,,,
,,5d43c0183d65ca001a804090,65af558eb1b2d753c0180a0c,2024-01-23_24h00.54.949,bars,2023.2.3,MacIntel,59.97361161,657b66ea316d21385b68909f,,,,,,,,,,,3528.8974,3529.8874,,,3530.3861,3530.6345,,102,102,,,,,,,,,,,,,,,,bars/026.png,bars/mask002.png,,,,,,,,,,,,3,2,,,,,,,4,8,4,7,,,,,,,,,,,3529.8874,3530.386,3530.6346,3537.6392,space,6.9871,,3537.6392,67,17,3538.6387,3538.6388,3538.6517,,,,0,46,46,46,1,35,85,,,,,,,,
,,5d43c0183d65ca001a804090,65af558eb1b2d753c0180a0c,2024-01-23_24h00.54.949,bars,2023.2.3,MacIntel,59.97361161,657b66ea316d21385b68909f,,,,,,,,,,,3538.652,3539.6554,,,3540.1568,3540.4071,,146,146,,,,,,,,,,,,,,,,bars/011.png,bars/mask006.png,,,,,,,,,,,,4,1,,,,,,,6,6,7,5,,,,,,,,,,,3539.6555,3540.1568,3540.4072,3548.3106,space,7.8805,,3548.3107,14,61,3549.3099,3549.3099,3549.3224,,,,0,47,47,47,1,160,85,,,,,,,,
,,5d43c0183d65ca001a804090,65af558eb1b2d753c0180a0c,2024-01-23_24h00.54.949,bars,2023.2.3,MacIntel,59.97361161,657b66ea316d21385b68909f,,,,,,,,,,,3549.3226,3550.3109,,,3550.8112,3551.0609,,133,133,,,,,,,,,,,,,,,,bars/009.png,bars/mask006.png,,,,,,,,,,,,1,2,,,,,,,8,8,7,10,,,,,,,,,,,3550.3109,3550.8112,3551.0609,3554.7136,space,3.6408,,3554.7137,62,28,3555.7144,3555.7145,3555.7315,,,,0,48,48,48,1,15,105,,,,,,,,
,,5d43c0183d65ca001a804090,65af558eb1b2d753c0180a0c,2024-01-23_24h00.54.949,bars,2023.2.3,MacIntel,59.97361161,657b66ea316d21385b68909f,,,,,,,,,,,3555.732,3556.7308,,,3557.2305,3557.4805,,19,199,,,,,,,,,,,,,,,,bars/022.png,bars/mask006.png,,,,,,,,,,,,6,2,,,,,,,10,6,10,6,,,,,,,,,,,3556.7308,3557.2305,3557.4806,3566.0872,space,8.5887,,3566.0873,76,1,3567.0861,3567.0861,3567.0985,,,,0,49,49,49,1,95,20,,,,,,,,
,,5d43c0183d65ca001a804090,65af558eb1b2d753c0180a0c,2024-01-23_24h00.54.949,bars,2023.2.3,MacIntel,59.97361161,657b66ea316d21385b68909f,,,,,,,,,,,,,,,,,,,,,,,,,,,,,,,,,,,,,,,,,,,,,,,,,,,,,,,,,,,,,,,,,,,,,,,,,,,,,,,,,,,,,,,,,,,,,3567.0987,3627.0978,0,2,2,1,1,sequence_tables/blk049.csv
,,5d43c0183d65ca001a804090,65af558eb1b2d753c0180a0c,2024-01-23_24h00.54.949,bars,2023.2.3,MacIntel,59.97361161,657b66ea316d21385b68909f,,,,,,,,,,,3629.7588,3630.7494,,,3631.2489,3631.4998,,50,50,,,,,,,,,,,,,,,,bars/018.png,bars/mask009.png,,,,,,,,,,,,0,2,,,,,,,8,1,8,0,,,,,,3627.1125,3629.7497,space,2.6243,,3630.7495,3631.2489,3631.4999,3635.8508,space,4.3328,,3635.8508,80,40,3636.8523,3636.8523,3636.8637,,,,0,0,0,0,1,150,90,,,,,,,,
,,5d43c0183d65ca001a804090,65af558eb1b2d753c0180a0c,2024-01-23_24h00.54.949,bars,2023.2.3,MacIntel,59.97361161,657b66ea316d21385b68909f,,,,,,,,,,,3636.864,3637.8526,,,3638.3533,3638.6024,,18,198,,,,,,,,,,,,,,,,bars/014.png,bars/mask008.png,,,,,,,,,,,,1,2,,,,,,,6,3,5,3,,,,,,,,,,,3637.8527,3638.3532,3638.6024,3645.1245,space,6.5048,,3645.1247,62,18,3646.1247,3646.1248,3646.1364,,,,0,1,1,1,1,80,0,,,,,,,,
,,5d43c0183d65ca001a804090,65af558eb1b2d753c0180a0c,2024-01-23_24h00.54.949,bars,2023.2.3,MacIntel,59.97361161,657b66ea316d21385b68909f,,,,,,,,,,,3646.1366,3647.125,,,3647.6237,3647.8734,,26,206,,,,,,,,,,,,,,,,bars/007.png,bars/mask003.png,,,,,,,,,,,,0,2,,,,,,,4,5,5,6,,,,,,,,,,,3647.125,3647.6236,3647.8734,3656.661,space,8.7721,,3656.661,31,29,3657.6628,3657.6629,3657.6748,,,,0,2,2,2,1,175,55,,,,,,,,
,,5d43c0183d65ca001a804090,65af558eb1b2d753c0180a0c,2024-01-23_24h00.54.949,bars,2023.2.3,MacIntel,59.97361161,657b66ea316d21385b68909f,,,,,,,,,,,3657.6749,3658.6796,,,3659.1789,3659.4288,,55,55,,,,,,,,,,,,,,,,bars/007.png,bars/mask008.png,,,,,,,,,,,,2,2,,,,,,,6,3,6,2,,,,,,,,,,,3658.6796,3659.1789,3659.4289,3660.5974,space,1.1573,,3660.5974,60,0,3661.5972,3661.5973,3661.598,,,,0,3,3,3,1,175,55,,,,,,,,
,,5d43c0183d65ca001a804090,65af558eb1b2d753c0180a0c,2024-01-23_24h00.54.949,bars,2023.2.3,MacIntel,59.97361161,657b66ea316d21385b68909f,,,,,,,,,,,3661.5988,3662.5969,,,3663.0972,3663.3474,,25,25,,,,,,,,,,,,,,,,bars/014.png,bars/mask003.png,,,,,,,,,,,,0,2,,,,,,,8,1,6,0,,,,,,,,,,,3662.5969,3663.0972,3663.3474,3667.0994,space,3.7421,,3667.0995,55,25,3668.1004,3668.1004,3668.1116,,,,0,4,4,4,1,80,0,,,,,,,,
,,5d43c0183d65ca001a804090,65af558eb1b2d753c0180a0c,2024-01-23_24h00.54.949,bars,2023.2.3,MacIntel,59.97361161,657b66ea316d21385b68909f,,,,,,,,,,,3668.1119,3669.1003,,,3669.6013,3669.8514,,53,53,,,,,,,,,,,,,,,,bars/027.png,bars/mask000.png,,,,,,,,,,,,3,2,,,,,,,10,3,10,3,,,,,,,,,,,3669.1003,3669.6013,3669.8514,3671.9521,space,2.0848,,3671.9522,57,3,3672.9521,3672.9522,3672.9633,,,,0,5,5,5,1,110,50,,,,,,,,
,,5d43c0183d65ca001a804090,65af558eb1b2d753c0180a0c,2024-01-23_24h00.54.949,bars,2023.2.3,MacIntel,59.97361161,657b66ea316d21385b68909f,,,,,,,,,,,3672.9635,3673.9528,,,3674.4534,3674.703,,28,208,,,,,,,,,,,,,,,,bars/032.png,bars/mask005.png,,,,,,,,,,,,0,2,,,,,,,8,1,8,0,,,,,,,,,,,3673.9529,3674.4534,3674.7031,3684.4754,space,9.7569,,3684.4755,83,8,3685.4758,3685.4758,3685.4881,,,,0,6,6,6,1,125,20,,,,,,,,
,,5d43c0183d65ca001a804090,65af558eb1b2d753c0180a0c,2024-01-23_24h00.54.949,bars,2023.2.3,MacIntel,59.97361161,657b66ea316d21385b68909f,,,,,,,,,,,3685.4883,3686.4762,,,3686.9763,3687.2267,,163,-17,,,,,,,,,,,,,,,,bars/015.png,bars/mask005.png,,,,,,,,,,,,0,2,,,,,,,6,0,6,0,,,,,,,,,,,3686.4763,3686.9763,3687.2267,3693.5954,space,6.3548,,3693.5954,53,3,3694.5954,3694.5955,3694.6069,,,,0,7,7,7,1,110,160,,,,,,,,
,,5d43c0183d65ca001a804090,65af558eb1b2d753c0180a0c,2024-01-23_24h00.54.949,bars,2023.2.3,MacIntel,59.97361161,657b66ea316d21385b68909f,,,,,,,,,,,3694.6071,3695.5961,,,3696.096,3696.347,,110,110,,,,,,,,,,,,,,,,bars/026.png,bars/mask008.png,,,,,,,,,,,,0,2,,,,,,,4,0,6,0,,,,,,,,,,,3695.5961,3696.096,3696.347,3703.1828,space,6.8196,,3703.1829,75,25,3704.1845,3704.1846,3704.1961,,,,0,8,8,8,1,35,85,,,,,,,,
,,5d43c0183d65ca001a804090,65af558eb1b2d753c0180a0c,2024-01-23_24h00.54.949,bars,2023.2.3,MacIntel,59.97361161,657b66ea316d21385b68909f,,,,,,,,,,,3704.1963,3705.185,,,3705.6848,3705.9351,,97,97,,,,,,,,,,,,,,,,bars/041.png,bars/mask005.png,,,,,,,,,,,,0,2,,,,,,,6,0,6,0,,,,,,,,,,,3705.185,3705.6847,3705.9351,3712.5376,space,6.5872,,3712.5377,77,12,3713.5389,3713.5389,3713.5499,,,,0,9,9,9,1,20,85,,,,,,,,
,,5d43c0183d65ca001a804090,65af558eb1b2d753c0180a0c,2024-01-23_24h00.54.949,bars,2023.2.3,MacIntel,59.97361161,657b66ea316d21385b68909f,,,,,,,,,,,3713.5502,3714.5389,,,3715.0388,3715.2892,,75,75,,,,,,,,,,,,,,,,bars/038.png,bars/mask000.png,,,,,,,,,,,,3,2,,,,,,,8,2,8,3,,,,,,,,,,,3714.539,3715.0387,3715.2893,3718.9287,space,3.6234,,3718.9287,90,5,3719.9248,3719.9248,3719.936,,,,0,10,10,10,1,165,70,,,,,,,,
,,5d43c0183d65ca001a804090,65af558eb1b2d753c0180a0c,2024-01-23_24h00.54.949,bars,2023.2.3,MacIntel,59.97361161,657b66ea316d21385b68909f,,,,,,,,,,,3719.9362,3720.9248,,,3721.4249,3721.675,,18,18,,,,,,,,,,,,,,,,bars/024.png,bars/mask008.png,,,,,,,,,,,,0,2,,,,,,,6,0,7,0,,,,,,,,,,,3720.9248,3721.4248,3721.675,3725.2604,space,3.5761,,3725.2604,78,28,3726.2612,3726.2612,3726.2725,,,,0,11,11,11,1,120,170,,,,,,,,
,,5d43c0183d65ca001a804090,65af558eb1b2d753c0180a0c,2024-01-23_24h00.54.949,bars,2023.2.3,MacIntel,59.97361161,657b66ea316d21385b68909f,,,,,,,,,,,3726.2727,3727.2613,,,3727.7619,3728.0127,,99,99,,,,,,,,,,,,,,,,bars/021.png,bars/mask000.png,,,,,,,,,,,,0,2,,,,,,,4,2,5,2,,,,,,,,,,,3727.2613,3727.7619,3728.0127,3734.332,space,6.2979,,3734.332,56,29,3735.332,3735.3321,3735.3438,,,,0,12,12,12,1,155,70,,,,,,,,
,,5d43c0183d65ca001a804090,65af558eb1b2d753c0180a0c,2024-01-23_24h00.54.949,bars,2023.2.3,MacIntel,59.97361161,657b66ea316d21385b68909f,,,,,,,,,,,3735.3441,3736.332,,,3736.8334,3737.0835,,120,120,,,,,,,,,,,,,,,,bars/002.png,bars/mask003.png,,,,,,,,,,,,5,1,,,,,,,6,0,7,0,,,,,,,,,,,3736.332,3736.8333,3737.0836,3748.4886,space,11.3859,,3748.4887,10,35,3749.4775,3749.4775,3749.4936,,,,0,13,13,13,1,130,85,,,,,,,,
,,5d43c0183d65ca001a804090,65af558eb1b2d753c0180a0c,2024-01-23_24h00.54.949,bars,2023.2.3,MacIntel,59.97361161,657b66ea316d21385b68909f,,,,,,,,,,,3749.4942,3750.4895,,,3750.9897,3751.2396,,18,18,,,,,,,,,,,,,,,,bars/041.png,bars/mask000.png,,,,,,,,,,,,7,1,,,,,,,8,2,7,2,,,,,,,,,,,3750.4895,3750.9896,3751.2397,3760.5261,space,9.2726,,3760.5262,2,67,3761.5266,3761.5266,3761.5412,,,,0,14,14,14,1,20,85,,,,,,,,
,,5d43c0183d65ca001a804090,65af558eb1b2d753c0180a0c,2024-01-23_24h00.54.949,bars,2023.2.3,MacIntel,59.97361161,657b66ea316d21385b68909f,,,,,,,,,,,3761.5415,3762.5442,,,3763.0447,3763.2944,,113,113,,,,,,,,,,,,,,,,bars/002.png,bars/mask007.png,,,,,,,,,,,,4,1,,,,,,,10,4,10,6,,,,,,,,,,,3762.5443,3763.0446,3763.2945,3767.8483,space,4.535,,3767.8484,17,28,3768.8475,3768.8475,3768.8585,,,,0,15,15,15,1,130,85,,,,,,,,
,,5d43c0183d65ca001a804090,65af558eb1b2d753c0180a0c,2024-01-23_24h00.54.949,bars,2023.2.3,MacIntel,59.97361161,657b66ea316d21385b68909f,,,,,,,,,,,3768.8587,3769.8478,,,3770.3482,3770.5989,,132,132,,,,,,,,,,,,,,,,bars/038.png,bars/mask000.png,,,,,,,,,,,,0,1,,,,,,,10,2,10,2,,,,,,,,,,,3769.8478,3770.3481,3770.599,3780.6038,space,9.9898,,3780.6038,33,62,3781.6029,3781.603,3781.6146,,,,0,16,16,16,1,165,70,,,,,,,,
,,5d43c0183d65ca001a804090,65af558eb1b2d753c0180a0c,2024-01-23_24h00.54.949,bars,2023.2.3,MacIntel,59.97361161,657b66ea316d21385b68909f,,,,,,,,,,,3781.6149,3782.6052,,,3783.1047,3783.3544,,65,65,,,,,,,,,,,,,,,,bars/026.png,bars/mask009.png,,,,,,,,,,,,0,2,,,,,,,8,0,6,0,,,,,,,,,,,3782.6053,3783.1047,3783.3544,3785.8562,space,2.4926,,3785.8563,30,20,3786.8566,3786.8566,3786.8711,,,,0,17,17,17,1,35,85,,,,,,,,
,,5d43c0183d65ca001a804090,65af558eb1b2d753c0180a0c,2024-01-23_24h00.54.949,bars,2023.2.3,MacIntel,59.97361161,657b66ea316d21385b68909f,,,,,,,,,,,3786.8714,3787.8743,,,3788.3744,3788.624,,122,122,,,,,,,,,,,,,,,,bars/002.png,bars/mask008.png,,,,,,,,,,,,7,1,,,,,,,10,2,10,3,,,,,,,,,,,3787.8744,3788.3744,3788.624,3797.1947,space,8.5505,,3797.1947,8,37,3798.1946,3798.1947,3798.2076,,,,0,18,18,18,1,130,85,,,,,,,,
,,5d43c0183d65ca001a804090,65af558eb1b2d753c0180a0c,2024-01-23_24h00.54.949,bars,2023.2.3,MacIntel,59.97361161,657b66ea316d21385b68909f,,,,,,,,,,,3798.2078,3799.1958,,,3799.6965,3799.9456,,157,-23,,,,,,,,,,,,,,,,bars/008.png,bars/mask008.png,,,,,,,,,,,,2,2,,,,,,,10,4,10,7,,,,,,,,,,,3799.1958,3799.6965,3799.9456,3805.0824,space,5.119,,3805.0824,47,23,3806.082,3806.0821,3806.0943,,,,0,19,19,19,1,110,0,,,,,,,,
,,5d43c0183d65ca001a804090,65af558eb1b2d753c0180a0c,2024-01-23_24h00.54.949,bars,2023.2.3,MacIntel,59.97361161,657b66ea316d21385b68909f,,,,,,,,,,,3806.0945,3807.0841,,,3807.5833,3807.8332,,32,212,,,,,,,,,,,,,,,,bars/034.png,bars/mask007.png,,,,,,,,,,,,0,2,,,,,,,8,6,8,5,,,,,,,,,,,3807.0841,3807.5833,3807.8332,3813.7867,space,5.9387,,3813.7867,87,33,3814.7874,3814.7874,3814.7995,,,,0,20,20,20,1,125,65,,,,,,,,
,,5d43c0183d65ca001a804090,65af558eb1b2d753c0180a0c,2024-01-23_24h00.54.949,bars,2023.2.3,MacIntel,59.97361161,657b66ea316d21385b68909f,,,,,,,,,,,3814.7997,3815.8029,,,3816.3046,3816.5534,,33,33,,,,,,,,,,,,,,,,bars/029.png,bars/mask006.png,,,,,,,,,,,,5,2,,,,,,,6,8,6,8,,,,,,,,,,,3815.8029,3816.3046,3816.5534,3821.0397,space,4.4753,,3821.0398,57,12,3822.0393,3822.0393,3822.0518,,,,0,21,21,21,1,90,45,,,,,,,,
,,5d43c0183d65ca001a804090,65af558eb1b2d753c0180a0c,2024-01-23_24h00.54.949,bars,2023.2.3,MacIntel,59.97361161,657b66ea316d21385b68909f,,,,,,,,,,,3822.0519,3823.0398,,,3823.5414,3823.7908,,27,207,,,,,,,,,,,,,,,,bars/007.png,bars/mask005.png,,,,,,,,,,,,0,2,,,,,,,4,6,4,7,,,,,,,,,,,3823.0398,3823.5414,3823.7909,3827.876,space,4.0704,,3827.876,32,28,3828.8763,3828.8763,3828.8906,,,,0,22,22,22,1,175,55,,,,,,,,
,,5d43c0183d65ca001a804090,65af558eb1b2d753c0180a0c,2024-01-23_24h00.54.949,bars,2023.2.3,MacIntel,59.97361161,657b66ea316d21385b68909f,,,,,,,,,,,3828.891,3829.8938,,,3830.394,3830.6445,,47,47,,,,,,,,,,,,,,,,bars/025.png,bars/mask002.png,,,,,,,,,,,,3,2,,,,,,,6,4,7,4,,,,,,,,,,,3829.8939,3830.394,3830.6445,3834.5623,space,3.9028,,3834.5623,58,7,3835.5629,3835.5629,3835.5741,,,,0,23,23,23,1,105,40,,,,,,,,
,,5d43c0183d65ca001a804090,65af558eb1b2d753c0180a0c,2024-01-23_24h00.54.949,bars,2023.2.3,MacIntel,59.97361161,657b66ea316d21385b68909f,,,,,,,,,,,3835.5743,3836.564,,,3837.0639,3837.3142,,59,59,,,,,,,,,,,,,,,,bars/010.png,bars/mask009.png,,,,,,,,,,,,4,2,,,,,,,4,6,4,5,,,,,,,,,,,3836.564,3837.0638,3837.3142,3844.2518,space,6.9228,,3844.252,74,4,3845.2515,3845.2515,3845.2635,,,,0,24,24,24,1,165,55,,,,,,,,
,,5d43c0183d65ca001a804090,65af558eb1b2d753c0180a0c,2024-01-23_24h00.54.949,bars,2023.2.3,MacIntel,59.97361161,657b66ea316d21385b68909f,,,,,,,,,,,3845.2637,3846.2687,,,3846.7678,3847.0195,,121,121,,,,,,,,,,,,,,,,bars/049.png,bars/mask008.png,,,,,,,,,,,,6,2,,,,,,,6,8,5,7,,,,,,,,,,,3846.2688,3846.7677,3847.0196,3851.9714,space,4.9306,,3851.9714,39,6,3852.9708,3852.9708,3852.9824,,,,0,25,25,25,1,160,115,,,,,,,,
,,5d43c0183d65ca001a804090,65af558eb1b2d753c0180a0c,2024-01-23_24h00.54.949,bars,2023.2.3,MacIntel,59.97361161,657b66ea316d21385b68909f,,,,,,,,,,,3852.9826,3853.9723,,,3854.4715,3854.7225,,29,29,,,,,,,,,,,,,,,,bars/029.png,bars/mask003.png,,,,,,,,,,,,4,2,,,,,,,4,10,4,9,,,,,,,,,,,3853.9723,3854.4715,3854.7226,3856.4562,space,1.7179,,3856.4563,61,16,3857.4569,3857.457,3857.458,,,,0,26,26,26,1,90,45,,,,,,,,
,,5d43c0183d65ca001a804090,65af558eb1b2d753c0180a0c,2024-01-23_24h00.54.949,bars,2023.2.3,MacIntel,59.97361161,657b66ea316d21385b68909f,,,,,,,,,,,3857.4587,3858.4573,,,3858.9572,3859.208,,47,47,,,,,,,,,,,,,,,,bars/046.png,bars/mask007.png,,,,,,,,,,,,0,2,,,,,,,6,10,6,10,,,,,,,,,,,3858.4573,3858.9572,3859.208,3863.2099,space,3.9839,,3863.2099,72,38,3864.2101,3864.2102,3864.2218,,,,0,27,27,27,1,155,85,,,,,,,,
,,5d43c0183d65ca001a804090,65af558eb1b2d753c0180a0c,2024-01-23_24h00.54.949,bars,2023.2.3,MacIntel,59.97361161,657b66ea316d21385b68909f,,,,,,,,,,,3864.222,3865.2104,,,3865.7106,3865.9609,,65,65,,,,,,,,,,,,,,,,bars/030.png,bars/mask001.png,,,,,,,,,,,,9,2,,,,,,,4,8,4,9,,,,,,,,,,,3865.2104,3865.7106,3865.9609,3871.93,space,5.9554,,3871.93,75,0,3872.9313,3872.9313,3872.9426,,,,0,28,28,28,1,140,65,,,,,,,,
,,5d43c0183d65ca001a804090,65af558eb1b2d753c0180a0c,2024-01-23_24h00.54.949,bars,2023.2.3,MacIntel,59.97361161,657b66ea316d21385b68909f,,,,,,,,,,,3872.9427,3873.9312,,,3874.4315,3874.6812,,83,83,,,,,,,,,,,,,,,,bars/018.png,bars/mask003.png,,,,,,,,,,,,8,2,,,,,,,6,10,6,10,,,,,,,,,,,3873.9312,3874.4314,3874.6812,3882.3691,space,7.677,,3882.3692,67,7,3883.3687,3883.3687,3883.3803,,,,0,29,29,29,1,150,90,,,,,,,,
,,5d43c0183d65ca001a804090,65af558eb1b2d753c0180a0c,2024-01-23_24h00.54.949,bars,2023.2.3,MacIntel,59.97361161,657b66ea316d21385b68909f,,,,,,,,,,,3883.3805,3884.3688,,,3884.8699,3885.1206,,119,119,,,,,,,,,,,,,,,,bars/023.png,bars/mask006.png,,,,,,,,,,,,6,2,,,,,,,8,8,7,7,,,,,,,,,,,3884.3688,3884.8699,3885.1206,3888.6218,space,3.4809,,3888.6218,81,4,3889.6217,3889.6217,3889.6329,,,,0,30,30,30,1,20,115,,,,,,,,
,,5d43c0183d65ca001a804090,65af558eb1b2d753c0180a0c,2024-01-23_24h00.54.949,bars,2023.2.3,MacIntel,59.97361161,657b66ea316d21385b68909f,,,,,,,,,,,3889.6331,3890.6218,,,3891.123,3891.3731,,138,138,,,,,,,,,,,,,,,,bars/023.png,bars/mask006.png,,,,,,,,,,,,2,2,,,,,,,10,6,10,8,,,,,,,,,,,3890.6218,3891.123,3891.3731,3892.1735,space,0.7819,,3892.1735,62,23,3893.1726,3893.1726,3893.1735,,,,0,31,31,31,1,20,115,,,,,,,,
,,5d43c0183d65ca001a804090,65af558eb1b2d753c0180a0c,2024-01-23_24h00.54.949,bars,2023.2.3,MacIntel,59.97361161,657b66ea316d21385b68909f,,,,,,,,,,,3893.1764,3894.1745,,,3894.6739,3894.9252,,25,25,,,,,,,,,,,,,,,,bars/034.png,bars/mask002.png,,,,,,,,,,,,0,2,,,,,,,8,8,8,8,,,,,,,,,,,3894.1746,3894.6739,3894.9252,3898.7264,space,3.7842,,3898.7264,80,40,3899.7261,3899.7261,3899.7403,,,,0,32,32,32,1,125,65,,,,,,,,
,,5d43c0183d65ca001a804090,65af558eb1b2d753c0180a0c,2024-01-23_24h00.54.949,bars,2023.2.3,MacIntel,59.97361161,657b66ea316d21385b68909f,,,,,,,,,,,3899.7406,3900.7438,,,3901.2441,3901.4952,,14,194,,,,,,,,,,,,,,,,bars/033.png,bars/mask008.png,,,,,,,,,,,,4,1,,,,,,,6,10,6,8,,,,,,,,,,,3900.7439,3901.2441,3901.4953,3913.934,space,12.424,,3913.9341,11,39,3914.9347,3914.9347,3914.9478,,,,0,33,33,33,1,25,155,,,,,,,,
,,5d43c0183d65ca001a804090,65af558eb1b2d753c0180a0c,2024-01-23_24h00.54.949,bars,2023.2.3,MacIntel,59.97361161,657b66ea316d21385b68909f,,,,,,,,,,,3914.948,3915.9519,,,3916.453,3916.7028,,6,6,,,,,,,,,,,,,,,,bars/041.png,bars/mask007.png,,,,,,,,,,,,2,1,,,,,,,4,10,3,8,,,,,,,,,,,3915.952,3916.4529,3916.7029,3923.8882,space,7.1705,,3923.8882,14,79,3924.8885,3924.8885,3924.9,,,,0,34,34,34,1,20,85,,,,,,,,
,,5d43c0183d65ca001a804090,65af558eb1b2d753c0180a0c,2024-01-23_24h00.54.949,bars,2023.2.3,MacIntel,59.97361161,657b66ea316d21385b68909f,,,,,,,,,,,3924.9001,3925.8894,,,3926.3887,3926.6394,,159,-21,,,,,,,,,,,,,,,,bars/043.png,bars/mask004.png,,,,,,,,,,,,0,2,,,,,,,6,8,5,8,,,,,,,,,,,3925.8895,3926.3887,3926.6394,3931.2254,space,4.5713,,3931.2255,51,29,3932.2259,3932.2259,3932.2381,,,,0,35,35,35,1,30,130,,,,,,,,
,,5d43c0183d65ca001a804090,65af558eb1b2d753c0180a0c,2024-01-23_24h00.54.949,bars,2023.2.3,MacIntel,59.97361161,657b66ea316d21385b68909f,,,,,,,,,,,3932.2384,3933.2421,,,3933.7423,3933.9942,,60,60,,,,,,,,,,,,,,,,bars/031.png,bars/mask006.png,,,,,,,,,,,,2,2,,,,,,,8,10,9,10,,,,,,,,,,,3933.2421,3933.7423,3933.9943,3940.8807,space,6.8709,,3940.8808,60,25,3941.8802,3941.8803,3941.892,,,,0,36,36,36,1,120,35,,,,,,,,
,,5d43c0183d65ca001a804090,65af558eb1b2d753c0180a0c,2024-01-23_24h00.54.949,bars,2023.2.3,MacIntel,59.97361161,657b66ea316d21385b68909f,,,,,,,,,,,3941.8923,3942.8804,,,3943.3812,3943.6304,,140,140,,,,,,,,,,,,,,,,bars/043.png,bars/mask009.png,,,,,,,,,,,,7,2,,,,,,,10,10,10,10,,,,,,,,,,,3942.8804,3943.3812,3943.6304,3951.3014,space,7.6533,,3951.3015,70,10,3952.3012,3952.3012,3952.3128,,,,0,37,37,37,1,30,130,,,,,,,,
,,5d43c0183d65ca001a804090,65af558eb1b2d753c0180a0c,2024-01-23_24h00.54.949,bars,2023.2.3,MacIntel,59.97361161,657b66ea316d21385b68909f,,,,,,,,,,,3952.313,3953.3027,,,3953.8027,3954.0527,,128,128,,,,,,,,,,,,,,,,bars/004.png,bars/mask005.png,,,,,,,,,,,,9,2,,,,,,,8,10,7,10,,,,,,,,,,,3953.3027,3953.8027,3954.0527,3956.704,space,2.6373,,3956.7041,77,3,3957.7049,3957.705,3957.7167,,,,0,38,38,38,1,25,125,,,,,,,,
,,5d43c0183d65ca001a804090,65af558eb1b2d753c0180a0c,2024-01-23_24h00.54.949,bars,2023.2.3,MacIntel,59.97361161,657b66ea316d21385b68909f,,,,,,,,,,,3957.717,3958.7053,,,3959.2063,3959.432,,140,140,,,,,,,,,,,,,,,,bars/037.png,bars/mask007.png,,,,,,,,,,,,6,1,,,,,,,10,8,9,9,,,,,,,,,,,3958.7053,3959.2062,3959.4321,3962.9729,space,3.5227,,3962.9729,10,35,3963.9749,3963.975,3963.9886,,,,0,39,39,39,1,150,105,,,,,,,,
,,5d43c0183d65ca001a804090,65af558eb1b2d753c0180a0c,2024-01-23_24h00.54.949,bars,2023.2.3,MacIntel,59.97361161,657b66ea316d21385b68909f,,,,,,,,,,,3963.9889,3964.9914,,,3965.4918,3965.7417,,148,-32,,,,,,,,,,,,,,,,bars/005.png,bars/mask005.png,,,,,,,,,,,,4,2,,,,,,,8,6,7,6,,,,,,,,,,,3964.9914,3965.4918,3965.7418,3972.9954,space,7.237,,3972.9954,42,8,3973.9958,3973.9958,3974.0082,,,,0,40,40,40,1,10,140,,,,,,,,
,,5d43c0183d65ca001a804090,65af558eb1b2d753c0180a0c,2024-01-23_24h00.54.949,bars,2023.2.3,MacIntel,59.97361161,657b66ea316d21385b68909f,,,,,,,,,,,3974.0085,3975.0129,,,3975.5122,3975.7621,,65,65,,,,,,,,,,,,,,,,bars/034.png,bars/mask001.png,,,,,,,,,,,,4,2,,,,,,,6,4,6,4,,,,,,,,,,,3975.0129,3975.5121,3975.7621,3981.8496,space,6.0712,,3981.8496,60,0,3982.8498,3982.8498,3982.8617,,,,0,41,41,41,1,125,65,,,,,,,,
,,5d43c0183d65ca001a804090,65af558eb1b2d753c0180a0c,2024-01-23_24h00.54.949,bars,2023.2.3,MacIntel,59.97361161,657b66ea316d21385b68909f,,,,,,,,,,,3982.8619,3983.8674,,,3984.3674,3984.6168,,102,102,,,,,,,,,,,,,,,,bars/011.png,bars/mask006.png,,,,,,,,,,,,1,2,,,,,,,4,2,3,3,,,,,,,,,,,3983.8674,3984.3674,3984.6168,3988.8693,space,4.236,,3988.8694,58,17,3989.8691,3989.8691,3989.8819,,,,0,42,42,42,1,160,85,,,,,,,,
,,5d43c0183d65ca001a804090,65af558eb1b2d753c0180a0c,2024-01-23_24h00.54.949,bars,2023.2.3,MacIntel,59.97361161,657b66ea316d21385b68909f,,,,,,,,,,,3989.8821,3990.8701,,,3991.3695,3991.6197,,53,53,,,,,,,,,,,,,,,,bars/041.png,bars/mask007.png,,,,,,,,,,,,0,2,,,,,,,6,0,6,0,,,,,,,,,,,3990.8701,3991.3694,3991.6197,3993.6716,space,2.0388,,3993.6717,33,32,3994.672,3994.672,3994.6729,,,,0,43,43,43,1,20,85,,,,,,,,
,,5d43c0183d65ca001a804090,65af558eb1b2d753c0180a0c,2024-01-23_24h00.54.949,bars,2023.2.3,MacIntel,59.97361161,657b66ea316d21385b68909f,,,,,,,,,,,3994.6737,3995.6715,,,3996.1727,3996.4231,,127,127,,,,,,,,,,,,,,,,bars/005.png,bars/mask009.png,,,,,,,,,,,,1,2,,,,,,,4,2,2,2,,,,,,,,,,,3995.6716,3996.1727,3996.4231,4012.7809,space,16.3398,,4012.781,63,13,4013.7799,4013.78,4013.7921,,,,0,44,44,44,1,10,140,,,,,,,,
,,5d43c0183d65ca001a804090,65af558eb1b2d753c0180a0c,2024-01-23_24h00.54.949,bars,2023.2.3,MacIntel,59.97361161,657b66ea316d21385b68909f,,,,,,,,,,,4013.7923,4014.7814,,,4015.2809,4015.5313,,144,144,,,,,,,,,,,,,,,,bars/020.png,bars/mask005.png,,,,,,,,,,,,0,2,,,,,,,2,0,1,1,,,,,,,,,,,4014.7815,4015.2809,4015.5314,4025.3358,space,9.7876,,4025.3359,29,26,4026.3372,4026.3372,4026.349,,,,0,45,45,45,1,115,170,,,,,,,,
,,5d43c0183d65ca001a804090,65af558eb1b2d753c0180a0c,2024-01-23_24h00.54.949,bars,2023.2.3,MacIntel,59.97361161,657b66ea316d21385b68909f,,,,,,,,,,,4026.3492,4027.344,,,4027.8369,4028.0873,,167,167,,,,,,,,,,,,,,,,bars/014.png,bars/mask008.png,,,,,,,,,,,,1,2,,,,,,,0,2,0,2,,,,,,,,,,,4027.3442,4027.8369,4028.0873,4035.6263,space,7.5298,,4035.6265,87,13,4036.6242,4036.6242,4036.6354,,,,0,46,46,46,1,80,0,,,,,,,,
,,5d43c0183d65ca001a804090,65af558eb1b2d753c0180a0c,2024-01-23_24h00.54.949,bars,2023.2.3,MacIntel,59.97361161,657b66ea316d21385b68909f,,,,,,,,,,,4036.6356,4037.6278,,,4038.1256,4038.3752,,78,78,,,,,,,,,,,,,,,,bars/046.png,bars/mask005.png,,,,,,,,,,,,3,2,,,,,,,2,4,3,4,,,,,,,,,,,4037.628,4038.1255,4038.3752,4041.9111,space,3.5201,,4041.9111,77,7,4042.9117,4042.9117,4042.9225,,,,0,47,47,47,1,155,85,,,,,,,,
,,5d43c0183d65ca001a804090,65af558eb1b2d753c0180a0c,2024-01-23_24h00.54.949,bars,2023.2.3,MacIntel,59.97361161,657b66ea316d21385b68909f,,,,,,,,,,,4042.9228,4043.9109,,,4044.4113,4044.6619,,155,155,,,,,,,,,,,,,,,,bars/014.png,bars/mask007.png,,,,,,,,,,,,1,2,,,,,,,4,2,4,4,,,,,,,,,,,4043.911,4044.4113,4044.6619,4047.6132,space,2.9423,,4047.6132,75,25,4048.6134,4048.6134,4048.6272,,,,0,48,48,48,1,80,0,,,,,,,,
,,5d43c0183d65ca001a804090,65af558eb1b2d753c0180a0c,2024-01-23_24h00.54.949,bars,2023.2.3,MacIntel,59.97361161,657b66ea316d21385b68909f,,,,,,,,,,,4048.6275,4049.6304,,,4050.1313,4050.3807,,9,9,,,,,,,,,,,,,,,,bars/008.png,bars/mask009.png,,,,,,,,,,,,2,2,,,,,,,6,4,7,3,,,,,,,,,,,4049.6304,4050.1313,4050.3807,4051.2647,space,0.8736,,4051.2648,79,9,4052.2651,4052.2651,4052.2658,,,,0,49,49,49,1,110,0,,,,,,,,
,,5d43c0183d65ca001a804090,65af558eb1b2d753c0180a0c,2024-01-23_24h00.54.949,bars,2023.2.3,MacIntel,59.97361161,657b66ea316d21385b68909f,,,,,,,,,,,,,,,,,,,,,,,,,,,,,,,,,,,,,,,,,,,,,,,,,,,,,,,,,,,,,,,,,,,,,,,,,,,,,,,,,,,,,,,,,,,,,4052.2661,4112.2603,0,3,3,0,1,sequence_tables/blk025.csv
,,5d43c0183d65ca001a804090,65af558eb1b2d753c0180a0c,2024-01-23_24h00.54.949,bars,2023.2.3,MacIntel,59.97361161,657b66ea316d21385b68909f,,,,,,,,,,,4121.6055,4122.5829,,,4123.0829,4123.3324,,64,64,,,,,,,,,,,,,,,,bars/021.png,bars/mask007.png,,,,,,,,,,,,0,2,,,,,,,6,1,6,0,,,,,,4112.2722,4121.5827,space,9.3005,,4122.5829,4123.0829,4123.3325,4128.9352,space,5.5881,,4128.9352,89,6,4129.936,4129.9361,4129.9491,,,,0,0,0,0,1,155,70,,,,,,,,
,,5d43c0183d65ca001a804090,65af558eb1b2d753c0180a0c,2024-01-23_24h00.54.949,bars,2023.2.3,MacIntel,59.97361161,657b66ea316d21385b68909f,,,,,,,,,,,4129.9493,4130.9529,,,4131.4525,4131.7026,,67,67,,,,,,,,,,,,,,,,bars/010.png,bars/mask006.png,,,,,,,,,,,,2,2,,,,,,,8,3,8,3,,,,,,,,,,,4130.9529,4131.4525,4131.7026,4140.6586,space,8.9431,,4140.6587,82,12,4141.6574,4141.6574,4141.6689,,,,0,1,1,1,1,165,55,,,,,,,,
,,5d43c0183d65ca001a804090,65af558eb1b2d753c0180a0c,2024-01-23_24h00.54.949,bars,2023.2.3,MacIntel,59.97361161,657b66ea316d21385b68909f,,,,,,,,,,,4141.6692,4142.6583,,,4143.1592,4143.4094,,103,103,,,,,,,,,,,,,,,,bars/018.png,bars/mask005.png,,,,,,,,,,,,3,2,,,,,,,10,5,10,6,,,,,,,,,,,4142.6583,4143.1592,4143.4094,4147.3947,space,3.973,,4147.3947,47,13,4148.394,4148.394,4148.4056,,,,0,2,2,2,1,150,90,,,,,,,,
,,5d43c0183d65ca001a804090,65af558eb1b2d753c0180a0c,2024-01-23_24h00.54.949,bars,2023.2.3,MacIntel,59.97361161,657b66ea316d21385b68909f,,,,,,,,,,,4148.4059,4149.3958,,,4149.896,4150.1444,,85,85,,,,,,,,,,,,,,,,bars/006.png,bars/mask006.png,,,,,,,,,,,,1,2,,,,,,,10,3,9,2,,,,,,,,,,,4149.3958,4149.896,4150.1444,4150.9795,space,0.819,,4150.9795,50,15,4151.9791,4151.9791,4151.9798,,,,0,3,3,3,1,35,100,,,,,,,,
,,5d43c0183d65ca001a804090,65af558eb1b2d753c0180a0c,2024-01-23_24h00.54.949,bars,2023.2.3,MacIntel,59.97361161,657b66ea316d21385b68909f,,,,,,,,,,,4151.9801,4152.9795,,,4153.4798,4153.7305,,77,77,,,,,,,,,,,,,,,,bars/029.png,bars/mask002.png,,,,,,,,,,,,4,1,,,,,,,8,1,7,1,,,,,,,,,,,4152.9795,4153.4798,4153.7305,4156.7995,space,3.0519,,4156.7995,13,32,4157.7994,4157.7994,4157.8118,,,,0,4,4,4,1,90,45,,,,,,,,
,,5d43c0183d65ca001a804090,65af558eb1b2d753c0180a0c,2024-01-23_24h00.54.949,bars,2023.2.3,MacIntel,59.97361161,657b66ea316d21385b68909f,,,,,,,,,,,4157.8121,4158.8165,,,4159.3165,4159.5673,,179,-1,,,,,,,,,,,,,,,,bars/024.png,bars/mask006.png,,,,,,,,,,,,0,2,,,,,,,6,0,6,0,,,,,,,,,,,4158.8165,4159.3164,4159.5673,4163.2187,space,3.6367,,4163.2188,59,9,4164.2186,4164.2186,4164.2315,,,,0,5,5,5,1,120,170,,,,,,,,
,,5d43c0183d65ca001a804090,65af558eb1b2d753c0180a0c,2024-01-23_24h00.54.949,bars,2023.2.3,MacIntel,59.97361161,657b66ea316d21385b68909f,,,,,,,,,,,4164.2317,4165.2361,,,4165.7354,4165.9867,,68,68,,,,,,,,,,,,,,,,bars/009.png,bars/mask007.png,,,,,,,,,,,,0,2,,,,,,,8,0,7,1,,,,,,,,,,,4165.2361,4165.7353,4165.9867,4173.5227,space,7.5198,,4173.5228,53,37,4174.5234,4174.5234,4174.5352,,,,0,6,6,6,1,15,105,,,,,,,,
,,5d43c0183d65ca001a804090,65af558eb1b2d753c0180a0c,2024-01-23_24h00.54.949,bars,2023.2.3,MacIntel,59.97361161,657b66ea316d21385b68909f,,,,,,,,,,,4174.5353,4175.5244,,,4176.0258,4176.2744,,89,89,,,,,,,,,,,,,,,,bars/021.png,bars/mask000.png,,,,,,,,,,,,1,2,,,,,,,10,2,10,3,,,,,,,,,,,4175.5245,4176.0258,4176.2744,4177.2421,space,0.9503,,4177.2422,66,19,4178.2418,4178.2418,4178.2427,,,,0,7,7,7,1,155,70,,,,,,,,
