init_variables.started,init_variables.stopped,participant,session,date,expName,psychopyVersion,OS,frameRate,study_id,instruction_exp.started,instruction_exp.stopped,key_resp_8.keys,key_resp_8.rt,key_resp_8.duration,instruction_single.started,instruction_single.stopped,key_resp_2.keys,key_resp_2.rt,key_resp_2.duration,interval.started,interval.stopped,cue_single.started,cue_single.stopped,mask.started,mask.stopped,ori_response_single.started,res_ori,res,ori_response_single.stopped,key_resp_single.keys,key_resp_single.rt,key_resp_single.duration,disp_single.started,disp_single.stopped,key_resp.keys,key_resp.rt,key_resp.duration,single.thisRepN,single.thisTrialN,single.thisN,single.thisIndex,single.ran,ori,path,mask_path,instruction_bandit.started,instruction_bandit.stopped,key_resp_6.keys,key_resp_6.rt,key_resp_6.duration,cue_bandit.started,cue_bandit.stopped,bandit_res.keys,bandit_res.rt,bandit_res.duration,outcome_bandit.started,rew,action,outcome_bandit.stopped,bandit.thisRepN,bandit.thisTrialN,bandit.thisN,bandit.thisIndex,bandit.ran,actual_rew1,actual_rew2,rew1,rew2,instruction_task.started,instruction_task.stopped,key_resp_7.keys,key_resp_7.rt,key_resp_7.duration,wait_ready.started,wait_ready.stopped,key_resp_3.keys,key_resp_3.rt,key_resp_3.duration,cue.started,cue.stopped,ori_response.started,ori_response.stopped,key_resp_5.keys,key_resp_5.rt,key_resp_5.duration,outcome.started,diff1,diff2,outcome.stopped,disp_outcome_practice.started,disp_outcome_practice.stopped,key_resp_4.keys,key_resp_4.rt,key_resp_4.duration,trials.thisRepN,trials.thisTrialN,trials.thisN,trials.thisIndex,trials.ran,ori1,ori2,break_blk.started,break_blk.stopped,block.thisRepN,block.thisTrialN,block.thisN,block.thisIndex,block.ran,condition_file
0.0004,0.0006,5e31e6491faa251bf58151ce,65af551af3ebe8cc90bc71b0,2024-01-23_06h57.14.475,bars,2023.2.3,Win32,60.24096386,657b66ea316d21385b68909f,,,,,,,,,,,,,,,,,,,,,,,,,,,,,,,,,,,,,,,,,,,,,,,,,,,,,,,,,,,,,,,,,,,,,,,,,,,,,,,,,,,,,,,,,,,,,,,,,,,,
,,5e31e6491faa251bf58151ce,65af551af3ebe8cc90bc71b0,2024-01-23_06h57.14.475,bars,2023.2.3,Win32,60.24096386,657b66ea316d21385b68909f,0.0007,13.392,y,13.3746,,,,,,,,,,,,,,,,,,,,,,,,,,,,,,,,,,,,,,,,,,,,,,,,,,,,,,,,,,,,,,,,,,,,,,,,,,,,,,,,,,,,,,,,,,,,,,,,
,,5e31e6491faa251bf58151ce,65af551af3ebe8cc90bc71b0,2024-01-23_06h57.14.475,bars,2023.2.3,Win32,60.24096386,657b66ea316d21385b68909f,,,,,,13.3923,95.2244,space,81.7998,,,,,,,,,,,,,,,,,,,,,,,,,,,,,,,,,,,,,,,,,,,,,,,,,,,,,,,,,,,,,,,,,,,,,,,,,,,,,,,,,,,,,,,,,,,
,,5e31e6491faa251bf58151ce,65af551af3ebe8cc90bc71b0,2024-01-23_06h57.14.475,bars,2023.2.3,Win32,60.24096386,657b66ea316d21385b68909f,,,,,,,,,,,95.2366,96.2396,96.2396,96.741,96.7415,96.9891,96.9894,0,180,110.5323,space,13.5011,,110.5324,117.6287,space,7.0707,,0,0,0,6,1,175,bars/single006.png,bars/mask005.png,,,,,,,,,,,,,,,,,,,,,,,,,,,,,,,,,,,,,,,,,,,,,,,,,,,,,,,,,,,,,,,,
,,5e31e6491faa251bf58151ce,65af551af3ebe8cc90bc71b0,2024-01-23_06h57.14.475,bars,2023.2.3,Win32,60.24096386,657b66ea316d21385b68909f,,,,,,,,,,,117.6374,118.6276,118.6277,119.1273,119.1273,119.3779,119.378,81,81,125.2249,space,5.8272,,125.225,130.9048,space,5.6569,,0,1,1,0,1,150,bars/single000.png,bars/mask006.png,,,,,,,,,,,,,,,,,,,,,,,,,,,,,,,,,,,,,,,,,,,,,,,,,,,,,,,,,,,,,,,,
,,5e31e6491faa251bf58151ce,65af551af3ebe8cc90bc71b0,2024-01-23_06h57.14.475,bars,2023.2.3,Win32,60.24096386,657b66ea316d21385b68909f,,,,,,,,,,,130.9132,131.9043,131.9044,132.4044,132.4045,132.6539,132.6539,55,55,135.4188,space,2.7588,,135.4189,137.4679,space,2.0336,,0,2,2,7,1,45,bars/single007.png,bars/mask009.png,,,,,,,,,,,,,,,,,,,,,,,,,,,,,,,,,,,,,,,,,,,,,,,,,,,,,,,,,,,,,,,,
,,5e31e6491faa251bf58151ce,65af551af3ebe8cc90bc71b0,2024-01-23_06h57.14.475,bars,2023.2.3,Win32,60.24096386,657b66ea316d21385b68909f,,,,,,,,,,,137.4681,138.4675,138.4675,138.9678,138.9679,139.2178,139.2179,19,199,144.8311,space,5.6034,,144.8312,151.8938,space,7.0306,,0,3,3,8,1,160,bars/single008.png,bars/mask004.png,,,,,,,,,,,,,,,,,,,,,,,,,,,,,,,,,,,,,,,,,,,,,,,,,,,,,,,,,,,,,,,,
,,5e31e6491faa251bf58151ce,65af551af3ebe8cc90bc71b0,2024-01-23_06h57.14.475,bars,2023.2.3,Win32,60.24096386,657b66ea316d21385b68909f,,,,,,,,,,,151.9023,152.8937,152.8938,153.3932,153.3933,153.6427,153.6427,47,47,156.7413,space,3.081,,156.7414,160.756,space,3.999,,0,4,4,9,1,20,bars/single009.png,bars/mask006.png,,,,,,,,,,,,,,,,,,,,,,,,,,,,,,,,,,,,,,,,,,,,,,,,,,,,,,,,,,,,,,,,
,,5e31e6491faa251bf58151ce,65af551af3ebe8cc90bc71b0,2024-01-23_06h57.14.475,bars,2023.2.3,Win32,60.24096386,657b66ea316d21385b68909f,,,,,,,,,,,160.7651,161.7554,161.7554,162.2552,162.2553,162.5046,162.5046,165,-15,165.2704,space,2.7477,,165.2704,173.3659,space,8.0734,,0,5,5,3,1,20,bars/single003.png,bars/mask005.png,,,,,,,,,,,,,,,,,,,,,,,,,,,,,,,,,,,,,,,,,,,,,,,,,,,,,,,,,,,,,,,,
,,5e31e6491faa251bf58151ce,65af551af3ebe8cc90bc71b0,2024-01-23_06h57.14.475,bars,2023.2.3,Win32,60.24096386,657b66ea316d21385b68909f,,,,,,,,,,,173.3758,174.366,174.3661,174.8653,174.8654,175.1148,175.1148,40,220,178.563,space,3.4387,,178.563,182.0624,space,3.4912,,0,6,6,5,1,55,bars/single005.png,bars/mask008.png,,,,,,,,,,,,,,,,,,,,,,,,,,,,,,,,,,,,,,,,,,,,,,,,,,,,,,,,,,,,,,,,
,,5e31e6491faa251bf58151ce,65af551af3ebe8cc90bc71b0,2024-01-23_06h57.14.475,bars,2023.2.3,Win32,60.24096386,657b66ea316d21385b68909f,,,,,,,,,,,182.083,183.0778,183.078,183.577,183.5771,183.8271,183.8271,86,86,185.9758,space,2.133,,185.9759,189.624,space,3.6163,,0,7,7,4,1,95,bars/single004.png,bars/mask004.png,,,,,,,,,,,,,,,,,,,,,,,,,,,,,,,,,,,,,,,,,,,,,,,,,,,,,,,,,,,,,,,,
,,5e31e6491faa251bf58151ce,65af551af3ebe8cc90bc71b0,2024-01-23_06h57.14.475,bars,2023.2.3,Win32,60.24096386,657b66ea316d21385b68909f,,,,,,,,,,,189.6339,190.6235,190.6235,191.1233,191.1235,191.373,191.373,173,173,194.6716,space,3.2664,,194.6718,199.8687,space,5.1645,,0,8,8,1,1,20,bars/single001.png,bars/mask006.png,,,,,,,,,,,,,,,,,,,,,,,,,,,,,,,,,,,,,,,,,,,,,,,,,,,,,,,,,,,,,,,,
,,5e31e6491faa251bf58151ce,65af551af3ebe8cc90bc71b0,2024-01-23_06h57.14.475,bars,2023.2.3,Win32,60.24096386,657b66ea316d21385b68909f,,,,,,,,,,,199.8779,200.8685,200.8685,201.3687,201.3689,201.6178,201.6178,149,149,203.5003,space,1.8693,,203.5003,205.0661,space,1.5417,,0,9,9,2,1,145,bars/single002.png,bars/mask003.png,,,,,,,,,,,,,,,,,,,,,,,,,,,,,,,,,,,,,,,,,,,,,,,,,,,,,,,,,,,,,,,,
,,5e31e6491faa251bf58151ce,65af551af3ebe8cc90bc71b0,2024-01-23_06h57.14.475,bars,2023.2.3,Win32,60.24096386,657b66ea316d21385b68909f,,,,,,,,,,,,,,,,,,,,,,,,,,,,,,,,,,,,,205.0687,288.2906,space,83.192,,,,,,,,,,,,,,,,,,,,,,,,,,,,,,,,,,,,,,,,,,,,,,,,,,,,,,,,,,,,
,,5e31e6491faa251bf58151ce,65af551af3ebe8cc90bc71b0,2024-01-23_06h57.14.475,bars,2023.2.3,Win32,60.24096386,657b66ea316d21385b68909f,,,,,,,,,,,,,,,,,,,,,,,,,,,,,,,,,,,,,,,,,,288.3011,296.1041,left,7.7795,,296.1043,9,1,297.1017,0,0,0,0,1,9,1,9,2,,,,,,,,,,,,,,,,,,,,,,,,,,,,,,,,,,,,,,,,,
,,5e31e6491faa251bf58151ce,65af551af3ebe8cc90bc71b0,2024-01-23_06h57.14.475,bars,2023.2.3,Win32,60.24096386,657b66ea316d21385b68909f,,,,,,,,,,,,,,,,,,,,,,,,,,,,,,,,,,,,,,,,,,297.1029,301.0824,right,3.9538,,301.0824,1,2,302.0822,0,1,1,1,1,10,0,10,1,,,,,,,,,,,,,,,,,,,,,,,,,,,,,,,,,,,,,,,,,
,,5e31e6491faa251bf58151ce,65af551af3ebe8cc90bc71b0,2024-01-23_06h57.14.475,bars,2023.2.3,Win32,60.24096386,657b66ea316d21385b68909f,,,,,,,,,,,,,,,,,,,,,,,,,,,,,,,,,,,,,,,,,,302.083,308.5124,right,6.3978,,308.5126,2,2,309.5116,0,2,2,2,1,10,2,10,2,,,,,,,,,,,,,,,,,,,,,,,,,,,,,,,,,,,,,,,,,
,,5e31e6491faa251bf58151ce,65af551af3ebe8cc90bc71b0,2024-01-23_06h57.14.475,bars,2023.2.3,Win32,60.24096386,657b66ea316d21385b68909f,,,,,,,,,,,,,,,,,,,,,,,,,,,,,,,,,,,,,,,,,,309.5312,312.9431,right,3.4046,,312.9431,3,2,313.9425,0,3,3,3,1,8,4,7,3,,,,,,,,,,,,,,,,,,,,,,,,,,,,,,,,,,,,,,,,,
,,5e31e6491faa251bf58151ce,65af551af3ebe8cc90bc71b0,2024-01-23_06h57.14.475,bars,2023.2.3,Win32,60.24096386,657b66ea316d21385b68909f,,,,,,,,,,,,,,,,,,,,,,,,,,,,,,,,,,,,,,,,,,313.9513,317.3242,right,3.3551,,317.3246,1,2,318.3234,0,4,4,4,1,6,2,5,1,,,,,,,,,,,,,,,,,,,,,,,,,,,,,,,,,,,,,,,,,
,,5e31e6491faa251bf58151ce,65af551af3ebe8cc90bc71b0,2024-01-23_06h57.14.475,bars,2023.2.3,Win32,60.24096386,657b66ea316d21385b68909f,,,,,,,,,,,,,,,,,,,,,,,,,,,,,,,,,,,,,,,,,,318.3362,319.2903,right,0.9364,,319.2906,4,2,320.2894,0,5,5,5,1,4,4,4,4,,,,,,,,,,,,,,,,,,,,,,,,,,,,,,,,,,,,,,,,,
,,5e31e6491faa251bf58151ce,65af551af3ebe8cc90bc71b0,2024-01-23_06h57.14.475,bars,2023.2.3,Win32,60.24096386,657b66ea316d21385b68909f,,,,,,,,,,,,,,,,,,,,,,,,,,,,,,,,,,,,,,,,,,320.2901,320.6888,left,0.3776,,320.6889,1,1,321.6888,0,6,6,6,1,2,2,1,2,,,,,,,,,,,,,,,,,,,,,,,,,,,,,,,,,,,,,,,,,
,,5e31e6491faa251bf58151ce,65af551af3ebe8cc90bc71b0,2024-01-23_06h57.14.475,bars,2023.2.3,Win32,60.24096386,657b66ea316d21385b68909f,,,,,,,,,,,,,,,,,,,,,,,,,,,,,,,,,,,,,,,,,,321.6898,322.9709,right,1.2595,,322.9709,1,2,323.9705,0,7,7,7,1,0,0,0,1,,,,,,,,,,,,,,,,,,,,,,,,,,,,,,,,,,,,,,,,,
,,5e31e6491faa251bf58151ce,65af551af3ebe8cc90bc71b0,2024-01-23_06h57.14.475,bars,2023.2.3,Win32,60.24096386,657b66ea316d21385b68909f,,,,,,,,,,,,,,,,,,,,,,,,,,,,,,,,,,,,,,,,,,323.9712,325.3874,right,1.3847,,325.3875,0,2,326.3857,0,8,8,8,1,0,2,1,0,,,,,,,,,,,,,,,,,,,,,,,,,,,,,,,,,,,,,,,,,
,,5e31e6491faa251bf58151ce,65af551af3ebe8cc90bc71b0,2024-01-23_06h57.14.475,bars,2023.2.3,Win32,60.24096386,657b66ea316d21385b68909f,,,,,,,,,,,,,,,,,,,,,,,,,,,,,,,,,,,,,,,,,,326.3935,327.5522,right,1.1341,,327.5523,3,2,328.5512,0,9,9,9,1,2,4,2,3,,,,,,,,,,,,,,,,,,,,,,,,,,,,,,,,,,,,,,,,,
,,5e31e6491faa251bf58151ce,65af551af3ebe8cc90bc71b0,2024-01-23_06h57.14.475,bars,2023.2.3,Win32,60.24096386,657b66ea316d21385b68909f,,,,,,,,,,,,,,,,,,,,,,,,,,,,,,,,,,,,,,,,,,328.5518,328.8178,right,0.244,,328.8178,3,2,329.8176,0,10,10,10,1,0,2,0,3,,,,,,,,,,,,,,,,,,,,,,,,,,,,,,,,,,,,,,,,,
,,5e31e6491faa251bf58151ce,65af551af3ebe8cc90bc71b0,2024-01-23_06h57.14.475,bars,2023.2.3,Win32,60.24096386,657b66ea316d21385b68909f,,,,,,,,,,,,,,,,,,,,,,,,,,,,,,,,,,,,,,,,,,329.8185,330.4677,right,0.6179,,330.4679,3,2,331.4673,0,11,11,11,1,0,4,0,3,,,,,,,,,,,,,,,,,,,,,,,,,,,,,,,,,,,,,,,,,
,,5e31e6491faa251bf58151ce,65af551af3ebe8cc90bc71b0,2024-01-23_06h57.14.475,bars,2023.2.3,Win32,60.24096386,657b66ea316d21385b68909f,,,,,,,,,,,,,,,,,,,,,,,,,,,,,,,,,,,,,,,,,,331.4683,332.1829,right,0.685,,332.183,6,2,333.1824,0,12,12,12,1,2,6,1,6,,,,,,,,,,,,,,,,,,,,,,,,,,,,,,,,,,,,,,,,,
,,5e31e6491faa251bf58151ce,65af551af3ebe8cc90bc71b0,2024-01-23_06h57.14.475,bars,2023.2.3,Win32,60.24096386,657b66ea316d21385b68909f,,,,,,,,,,,,,,,,,,,,,,,,,,,,,,,,,,,,,,,,,,333.183,333.5155,left,0.3022,,333.5156,1,1,334.5151,0,13,13,13,1,0,4,1,3,,,,,,,,,,,,,,,,,,,,,,,,,,,,,,,,,,,,,,,,,
,,5e31e6491faa251bf58151ce,65af551af3ebe8cc90bc71b0,2024-01-23_06h57.14.475,bars,2023.2.3,Win32,60.24096386,657b66ea316d21385b68909f,,,,,,,,,,,,,,,,,,,,,,,,,,,,,,,,,,,,,,,,,,334.5161,335.0832,right,0.5411,,335.0833,7,2,336.0848,0,14,14,14,1,2,6,2,7,,,,,,,,,,,,,,,,,,,,,,,,,,,,,,,,,,,,,,,,,
,,5e31e6491faa251bf58151ce,65af551af3ebe8cc90bc71b0,2024-01-23_06h57.14.475,bars,2023.2.3,Win32,60.24096386,657b66ea316d21385b68909f,,,,,,,,,,,,,,,,,,,,,,,,,,,,,,,,,,,,,,,,,,336.085,338.6798,left,2.5662,,338.68,3,1,339.6787,0,15,15,15,1,4,8,3,9,,,,,,,,,,,,,,,,,,,,,,,,,,,,,,,,,,,,,,,,,
,,5e31e6491faa251bf58151ce,65af551af3ebe8cc90bc71b0,2024-01-23_06h57.14.475,bars,2023.2.3,Win32,60.24096386,657b66ea316d21385b68909f,,,,,,,,,,,,,,,,,,,,,,,,,,,,,,,,,,,,,,,,,,339.6868,341.5781,right,1.8686,,341.5781,7,2,342.5775,0,16,16,16,1,6,6,7,7,,,,,,,,,,,,,,,,,,,,,,,,,,,,,,,,,,,,,,,,,
,,5e31e6491faa251bf58151ce,65af551af3ebe8cc90bc71b0,2024-01-23_06h57.14.475,bars,2023.2.3,Win32,60.24096386,657b66ea316d21385b68909f,,,,,,,,,,,,,,,,,,,,,,,,,,,,,,,,,,,,,,,,,,342.5968,343.111,left,0.4996,,343.1111,9,1,344.11,0,17,17,17,1,8,4,9,5,,,,,,,,,,,,,,,,,,,,,,,,,,,,,,,,,,,,,,,,,
,,5e31e6491faa251bf58151ce,65af551af3ebe8cc90bc71b0,2024-01-23_06h57.14.475,bars,2023.2.3,Win32,60.24096386,657b66ea316d21385b68909f,,,,,,,,,,,,,,,,,,,,,,,,,,,,,,,,,,,,,,,,,,344.1102,344.8931,left,0.7667,,344.8932,5,1,345.8925,0,18,18,18,1,6,2,5,1,,,,,,,,,,,,,,,,,,,,,,,,,,,,,,,,,,,,,,,,,
,,5e31e6491faa251bf58151ce,65af551af3ebe8cc90bc71b0,2024-01-23_06h57.14.475,bars,2023.2.3,Win32,60.24096386,657b66ea316d21385b68909f,,,,,,,,,,,,,,,,,,,,,,,,,,,,,,,,,,,,,,,,,,345.8932,347.0421,left,1.1164,,347.0422,7,1,348.0411,0,19,19,19,1,8,0,7,0,,,,,,,,,,,,,,,,,,,,,,,,,,,,,,,,,,,,,,,,,
,,5e31e6491faa251bf58151ce,65af551af3ebe8cc90bc71b0,2024-01-23_06h57.14.475,bars,2023.2.3,Win32,60.24096386,657b66ea316d21385b68909f,,,,,,,,,,,,,,,,,,,,,,,,,,,,,,,,,,,,,,,,,,,,,,,,,,,,,,,,,,,,348.0422,545.0921,space,197.0162,,,,,,,,,,,,,,,,,,,,,,,,,,,,,,,,,,,,,
,,5e31e6491faa251bf58151ce,65af551af3ebe8cc90bc71b0,2024-01-23_06h57.14.475,bars,2023.2.3,Win32,60.24096386,657b66ea316d21385b68909f,,,,,,,,,,,546.5752,547.5707,,,548.0703,548.3201,,72,72,,,,,,,,,,,,,,,,bars/002.png,bars/mask004.png,,,,,,,,,,,,2,2,,,,,,,3,2,6,4,,,,,,545.1163,546.5711,space,1.4334,,547.5709,548.0703,548.3205,551.785,space,3.4491,,551.7852,58,13,552.786,552.7866,562.8459,space,10.0242,,0,0,0,0,1,130,85,,,,,,,,
,,5e31e6491faa251bf58151ce,65af551af3ebe8cc90bc71b0,2024-01-23_06h57.14.475,bars,2023.2.3,Win32,60.24096386,657b66ea316d21385b68909f,,,,,,,,,,,562.8543,563.8454,,,564.3448,564.5948,,75,75,,,,,,,,,,,,,,,,bars/042.png,bars/mask004.png,,,,,,,,,,,,4,2,,,,,,,1,4,1,4,,,,,,,,,,,563.8455,564.3448,564.5948,567.4603,space,2.8475,,567.4604,70,0,568.4595,568.4596,578.1046,space,9.6186,,0,1,1,1,1,145,75,,,,,,,,
,,5e31e6491faa251bf58151ce,65af551af3ebe8cc90bc71b0,2024-01-23_06h57.14.475,bars,2023.2.3,Win32,60.24096386,657b66ea316d21385b68909f,,,,,,,,,,,578.1126,579.1038,,,579.604,579.8537,,153,-27,,,,,,,,,,,,,,,,bars/000.png,bars/mask005.png,,,,,,,,,,,,4,2,,,,,,,3,6,4,5,,,,,,,,,,,579.1038,579.6039,579.8537,583.3187,space,3.4481,,583.3187,67,8,584.3177,584.3177,588.8989,space,4.5652,,0,2,2,2,1,40,145,,,,,,,,
,,5e31e6491faa251bf58151ce,65af551af3ebe8cc90bc71b0,2024-01-23_06h57.14.475,bars,2023.2.3,Win32,60.24096386,657b66ea316d21385b68909f,,,,,,,,,,,588.9116,589.9152,,,590.4147,590.6647,,62,62,,,,,,,,,,,,,,,,bars/041.png,bars/mask004.png,,,,,,,,,,,,1,2,,,,,,,5,4,5,4,,,,,,,,,,,589.9152,590.4147,590.6647,594.6624,space,3.979,,594.6624,42,23,595.662,595.662,599.2766,space,3.5934,,0,3,3,3,1,20,85,,,,,,,,
,,5e31e6491faa251bf58151ce,65af551af3ebe8cc90bc71b0,2024-01-23_06h57.14.475,bars,2023.2.3,Win32,60.24096386,657b66ea316d21385b68909f,,,,,,,,,,,599.2853,600.2761,,,600.7759,601.0259,,80,80,,,,,,,,,,,,,,,,bars/017.png,bars/mask000.png,,,,,,,,,,,,0,2,,,,,,,3,6,3,6,,,,,,,,,,,600.2762,600.7759,601.0259,604.0076,space,2.9721,,604.0076,65,35,605.0077,605.0077,606.9563,space,1.912,,0,4,4,4,1,145,45,,,,,,,,
,,5e31e6491faa251bf58151ce,65af551af3ebe8cc90bc71b0,2024-01-23_06h57.14.475,bars,2023.2.3,Win32,60.24096386,657b66ea316d21385b68909f,,,,,,,,,,,606.9579,607.9563,,,608.4552,608.7053,,160,-20,,,,,,,,,,,,,,,,bars/033.png,bars/mask009.png,,,,,,,,,,,,7,2,,,,,,,5,8,4,8,,,,,,,,,,,607.9565,608.4552,608.7053,611.8921,space,3.1652,,611.8922,45,5,612.8862,612.8863,617.5341,space,4.6237,,0,5,5,5,1,25,155,,,,,,,,
,,5e31e6491faa251bf58151ce,65af551af3ebe8cc90bc71b0,2024-01-23_06h57.14.475,bars,2023.2.3,Win32,60.24096386,657b66ea316d21385b68909f,,,,,,,,,,,617.5473,618.5502,,,619.0502,619.2994,,61,61,,,,,,,,,,,,,,,,bars/031.png,bars/mask004.png,,,,,,,,,,,,1,2,,,,,,,3,6,2,6,,,,,,,,,,,618.5503,619.0501,619.2995,621.7824,space,2.4604,,621.7824,59,26,622.7824,622.7825,626.879,space,4.0542,,0,6,6,6,1,120,35,,,,,,,,
,,5e31e6491faa251bf58151ce,65af551af3ebe8cc90bc71b0,2024-01-23_06h57.14.475,bars,2023.2.3,Win32,60.24096386,657b66ea316d21385b68909f,,,,,,,,,,,626.8945,627.8953,,,628.3949,628.6448,,55,235,,,,,,,,,,,,,,,,bars/026.png,bars/mask000.png,,,,,,,,,,,,1,1,,,,,,,1,4,2,4,,,,,,,,,,,627.8954,628.3949,628.6448,632.0435,space,3.3858,,632.0435,20,30,633.0422,633.0423,641.1389,space,8.0775,,0,7,7,7,1,35,85,,,,,,,,
,,5e31e6491faa251bf58151ce,65af551af3ebe8cc90bc71b0,2024-01-23_06h57.14.475,bars,2023.2.3,Win32,60.24096386,657b66ea316d21385b68909f,,,,,,,,,,,641.1548,642.1545,,,642.6538,642.9036,,79,79,,,,,,,,,,,,,,,,bars/027.png,bars/mask005.png,,,,,,,,,,,,0,2,,,,,,,0,2,0,2,,,,,,,,,,,642.1545,642.6537,642.9036,644.5696,space,1.6572,,644.5698,31,29,645.5691,645.5691,648.0677,space,2.4886,,0,8,8,8,1,110,50,,,,,,,,
,,5e31e6491faa251bf58151ce,65af551af3ebe8cc90bc71b0,2024-01-23_06h57.14.475,bars,2023.2.3,Win32,60.24096386,657b66ea316d21385b68909f,,,,,,,,,,,648.0679,649.0672,,,649.5673,649.817,,44,44,,,,,,,,,,,,,,,,bars/013.png,bars/mask003.png,,,,,,,,,,,,0,1,,,,,,,0,4,0,3,,,,,,,,,,,649.0673,649.5673,649.8171,651.6509,space,1.8283,,651.651,31,34,652.6488,652.6488,659.2285,space,6.5543,,0,9,9,9,1,75,10,,,,,,,,
,,5e31e6491faa251bf58151ce,65af551af3ebe8cc90bc71b0,2024-01-23_06h57.14.475,bars,2023.2.3,Win32,60.24096386,657b66ea316d21385b68909f,,,,,,,,,,,659.2373,660.228,,,660.7283,660.9777,,121,-59,,,,,,,,,,,,,,,,bars/039.png,bars/mask007.png,,,,,,,,,,,,2,2,,,,,,,0,6,0,5,,,,,,,,,,,660.228,660.7283,660.9777,664.3593,space,3.3675,,664.3593,54,16,665.3589,665.3589,667.6575,space,2.2647,,0,10,10,10,1,175,105,,,,,,,,
,,5e31e6491faa251bf58151ce,65af551af3ebe8cc90bc71b0,2024-01-23_06h57.14.475,bars,2023.2.3,Win32,60.24096386,657b66ea316d21385b68909f,,,,,,,,,,,667.6578,668.6571,,,669.1567,669.4067,,144,-36,,,,,,,,,,,,,,,,bars/035.png,bars/mask005.png,,,,,,,,,,,,0,1,,,,,,,0,8,0,9,,,,,,,,,,,668.6571,669.1566,669.4068,674.1708,space,4.7523,,674.1709,31,84,675.1707,675.1707,679.952,space,4.7387,,0,11,11,11,1,175,60,,,,,,,,
,,5e31e6491faa251bf58151ce,65af551af3ebe8cc90bc71b0,2024-01-23_06h57.14.475,bars,2023.2.3,Win32,60.24096386,657b66ea316d21385b68909f,,,,,,,,,,,679.9674,680.9676,,,681.4673,681.7172,,28,208,,,,,,,,,,,,,,,,bars/010.png,bars/mask005.png,,,,,,,,,,,,1,2,,,,,,,2,10,2,9,,,,,,,,,,,680.9676,681.4673,681.7174,685.082,space,3.3483,,685.082,43,27,686.0815,686.0816,688.8645,space,2.756,,0,12,12,12,1,165,55,,,,,,,,
,,5e31e6491faa251bf58151ce,65af551af3ebe8cc90bc71b0,2024-01-23_06h57.14.475,bars,2023.2.3,Win32,60.24096386,657b66ea316d21385b68909f,,,,,,,,,,,688.8863,689.8792,,,690.3796,690.6291,,149,-31,,,,,,,,,,,,,,,,bars/043.png,bars/mask005.png,,,,,,,,,,,,4,2,,,,,,,0,10,0,10,,,,,,,,,,,689.8792,690.3795,690.6292,694.0775,space,3.4322,,694.0776,61,19,695.0767,695.0768,698.575,space,3.4615,,0,13,13,13,1,30,130,,,,,,,,
,,5e31e6491faa251bf58151ce,65af551af3ebe8cc90bc71b0,2024-01-23_06h57.14.475,bars,2023.2.3,Win32,60.24096386,657b66ea316d21385b68909f,,,,,,,,,,,698.5829,699.5742,,,700.074,700.3241,,50,50,,,,,,,,,,,,,,,,bars/010.png,bars/mask002.png,,,,,,,,,,,,8,2,,,,,,,0,10,0,10,,,,,,,,,,,699.5742,700.0739,700.3241,703.0408,space,2.7021,,703.0409,65,5,704.0388,704.0389,705.688,space,1.6154,,0,14,14,14,1,165,55,,,,,,,,
,,5e31e6491faa251bf58151ce,65af551af3ebe8cc90bc71b0,2024-01-23_06h57.14.475,bars,2023.2.3,Win32,60.24096386,657b66ea316d21385b68909f,,,,,,,,,,,705.6884,706.6874,,,707.1876,707.4372,,156,-24,,,,,,,,,,,,,,,,bars/044.png,bars/mask007.png,,,,,,,,,,,,8,2,,,,,,,2,8,3,8,,,,,,,,,,,706.6874,707.1875,707.4372,712.8341,space,5.3907,,712.8341,81,1,713.8334,713.8335,716.0824,space,2.2322,,0,15,15,15,1,75,155,,,,,,,,
,,5e31e6491faa251bf58151ce,65af551af3ebe8cc90bc71b0,2024-01-23_06h57.14.475,bars,2023.2.3,Win32,60.24096386,657b66ea316d21385b68909f,,,,,,,,,,,716.0826,717.082,,,717.5818,717.8312,,61,61,,,,,,,,,,,,,,,,bars/025.png,bars/mask000.png,,,,,,,,,,,,2,2,,,,,,,0,6,0,5,,,,,,,,,,,717.0821,717.5816,717.8312,720.4479,space,2.6022,,720.448,44,21,721.4461,721.4462,725.6948,space,4.2294,,0,16,16,16,1,105,40,,,,,,,,
,,5e31e6491faa251bf58151ce,65af551af3ebe8cc90bc71b0,2024-01-23_06h57.14.475,bars,2023.2.3,Win32,60.24096386,657b66ea316d21385b68909f,,,,,,,,,,,725.7191,726.7104,,,727.2101,727.4604,,147,-33,,,,,,,,,,,,,,,,bars/027.png,bars/mask004.png,,,,,,,,,,,,0,1,,,,,,,2,4,2,3,,,,,,,,,,,726.7105,727.2101,727.4605,737.7544,space,10.2779,,737.7544,37,83,738.754,738.7541,741.1193,space,2.3267,,0,17,17,17,1,110,50,,,,,,,,
,,5e31e6491faa251bf58151ce,65af551af3ebe8cc90bc71b0,2024-01-23_06h57.14.475,bars,2023.2.3,Win32,60.24096386,657b66ea316d21385b68909f,,,,,,,,,,,741.1196,742.1188,,,742.6187,742.8686,,58,58,,,,,,,,,,,,,,,,bars/018.png,bars/mask009.png,,,,,,,,,,,,0,2,,,,,,,0,6,1,7,,,,,,,,,,,742.1189,742.6187,742.8686,745.3835,space,2.5076,,745.3837,88,32,746.3831,746.3831,749.2648,space,2.8581,,0,18,18,18,1,150,90,,,,,,,,
,,5e31e6491faa251bf58151ce,65af551af3ebe8cc90bc71b0,2024-01-23_06h57.14.475,bars,2023.2.3,Win32,60.24096386,657b66ea316d21385b68909f,,,,,,,,,,,749.2729,750.2643,,,750.7645,751.0144,,159,-21,,,,,,,,,,,,,,,,bars/011.png,bars/mask000.png,,,,,,,,,,,,2,1,,,,,,,2,8,2,8,,,,,,,,,,,750.2643,750.7644,751.0144,752.9306,space,1.8984,,752.9308,1,74,753.9295,753.9296,756.6446,space,2.6808,,0,19,19,19,1,160,85,,,,,,,,
,,5e31e6491faa251bf58151ce,65af551af3ebe8cc90bc71b0,2024-01-23_06h57.14.475,bars,2023.2.3,Win32,60.24096386,657b66ea316d21385b68909f,,,,,,,,,,,756.6449,757.6441,,,758.1436,758.3937,,26,206,,,,,,,,,,,,,,,,bars/023.png,bars/mask003.png,,,,,,,,,,,,3,1,,,,,,,4,6,4,8,,,,,,,,,,,757.6441,758.1436,758.3937,762.3757,space,3.9695,,762.3758,6,89,763.3743,763.3743,765.9228,space,2.5342,,0,20,20,20,1,20,115,,,,,,,,
,,5e31e6491faa251bf58151ce,65af551af3ebe8cc90bc71b0,2024-01-23_06h57.14.475,bars,2023.2.3,Win32,60.24096386,657b66ea316d21385b68909f,,,,,,,,,,,765.9231,766.9226,,,767.4223,767.672,,138,-42,,,,,,,,,,,,,,,,bars/045.png,bars/mask007.png,,,,,,,,,,,,0,1,,,,,,,6,4,6,4,,,,,,,,,,,766.9226,767.4223,767.672,771.32,space,3.6418,,771.32,38,52,772.3198,772.3199,773.5691,space,1.215,,0,21,21,21,1,100,10,,,,,,,,
,,5e31e6491faa251bf58151ce,65af551af3ebe8cc90bc71b0,2024-01-23_06h57.14.475,bars,2023.2.3,Win32,60.24096386,657b66ea316d21385b68909f,,,,,,,,,,,773.5694,774.5696,,,775.0692,775.3182,,132,-48,,,,,,,,,,,,,,,,bars/027.png,bars/mask003.png,,,,,,,,,,,,2,1,,,,,,,8,2,8,2,,,,,,,,,,,774.5697,775.0691,775.3183,784.4802,space,9.1558,,784.4802,22,82,785.4795,785.4795,788.2947,space,2.7848,,0,22,22,22,1,110,50,,,,,,,,
,,5e31e6491faa251bf58151ce,65af551af3ebe8cc90bc71b0,2024-01-23_06h57.14.475,bars,2023.2.3,Win32,60.24096386,657b66ea316d21385b68909f,,,,,,,,,,,788.295,789.2946,,,789.7937,790.0438,,26,206,,,,,,,,,,,,,,,,bars/044.png,bars/mask004.png,,,,,,,,,,,,0,1,,,,,,,6,4,6,6,,,,,,,,,,,789.2947,789.7936,790.0439,792.5262,space,2.4685,,792.5263,49,51,793.5253,793.5254,795.0245,space,1.4781,,0,23,23,23,1,75,155,,,,,,,,
,,5e31e6491faa251bf58151ce,65af551af3ebe8cc90bc71b0,2024-01-23_06h57.14.475,bars,2023.2.3,Win32,60.24096386,657b66ea316d21385b68909f,,,,,,,,,,,795.0247,796.0239,,,796.5236,796.7742,,78,78,,,,,,,,,,,,,,,,bars/009.png,bars/mask006.png,,,,,,,,,,,,0,2,,,,,,,4,2,3,1,,,,,,,,,,,796.024,796.5235,796.7742,799.1891,space,2.4015,,799.1892,63,27,800.1885,800.1885,801.4544,space,1.2409,,0,24,24,24,1,15,105,,,,,,,,
,,5e31e6491faa251bf58151ce,65af551af3ebe8cc90bc71b0,2024-01-23_06h57.14.475,bars,2023.2.3,Win32,60.24096386,657b66ea316d21385b68909f,,,,,,,,,,,801.4547,802.4541,,,802.9542,803.2036,,162,162,,,,,,,,,,,,,,,,bars/033.png,bars/mask004.png,,,,,,,,,,,,2,2,,,,,,,2,4,2,2,,,,,,,,,,,802.4542,802.9541,803.2037,806.0192,space,2.7999,,806.0193,43,7,807.0181,807.0182,808.3182,space,1.2794,,0,25,25,25,1,25,155,,,,,,,,
,,5e31e6491faa251bf58151ce,65af551af3ebe8cc90bc71b0,2024-01-23_06h57.14.475,bars,2023.2.3,Win32,60.24096386,657b66ea316d21385b68909f,,,,,,,,,,,808.3191,809.3171,,,809.817,810.0665,,159,-21,,,,,,,,,,,,,,,,bars/046.png,bars/mask009.png,,,,,,,,,,,,3,1,,,,,,,4,6,4,6,,,,,,,,,,,809.3172,809.817,810.0665,814.9484,space,4.8671,,814.9485,4,74,815.9469,815.9469,818.8452,space,2.8681,,0,26,26,26,1,155,85,,,,,,,,
,,5e31e6491faa251bf58151ce,65af551af3ebe8cc90bc71b0,2024-01-23_06h57.14.475,bars,2023.2.3,Win32,60.24096386,657b66ea316d21385b68909f,,,,,,,,,,,818.8454,819.8446,,,820.3447,820.5943,,33,213,,,,,,,,,,,,,,,,bars/007.png,bars/mask006.png,,,,,,,,,,,,0,2,,,,,,,2,4,1,1,,,,,,,,,,,819.8446,820.3446,820.5944,823.7271,space,3.1184,,823.7272,38,22,824.7259,824.7259,825.5753,space,0.8272,,0,27,27,27,1,175,55,,,,,,,,
,,5e31e6491faa251bf58151ce,65af551af3ebe8cc90bc71b0,2024-01-23_06h57.14.475,bars,2023.2.3,Win32,60.24096386,657b66ea316d21385b68909f,,,,,,,,,,,825.5756,826.5745,,,827.0746,827.3244,,158,-22,,,,,,,,,,,,,,,,bars/026.png,bars/mask002.png,,,,,,,,,,,,0,1,,,,,,,4,2,5,3,,,,,,,,,,,826.5745,827.0746,827.3244,830.2563,space,2.9157,,830.2563,57,73,831.2556,831.2557,833.0551,space,1.7702,,0,28,28,28,1,35,85,,,,,,,,
,,5e31e6491faa251bf58151ce,65af551af3ebe8cc90bc71b0,2024-01-23_06h57.14.475,bars,2023.2.3,Win32,60.24096386,657b66ea316d21385b68909f,,,,,,,,,,,833.0554,834.0542,,,834.5542,834.8037,,162,162,,,,,,,,,,,,,,,,bars/035.png,bars/mask008.png,,,,,,,,,,,,2,1,,,,,,,2,0,3,0,,,,,,,,,,,834.0542,834.5541,834.8038,836.6529,space,1.8327,,836.6529,13,78,837.6521,837.6521,838.8356,space,1.1625,,0,29,29,29,1,175,60,,,,,,,,
,,5e31e6491faa251bf58151ce,65af551af3ebe8cc90bc71b0,2024-01-23_06h57.14.475,bars,2023.2.3,Win32,60.24096386,657b66ea316d21385b68909f,,,,,,,,,,,838.8367,839.8342,,,840.3341,840.5842,,63,63,,,,,,,,,,,,,,,,bars/001.png,bars/mask002.png,,,,,,,,,,,,0,2,,,,,,,0,0,2,0,,,,,,,,,,,839.8343,840.3341,840.5842,843.9321,space,3.3391,,843.9321,67,22,844.9318,844.9319,845.7316,space,0.7648,,0,30,30,30,1,130,85,,,,,,,,
,,5e31e6491faa251bf58151ce,65af551af3ebe8cc90bc71b0,2024-01-23_06h57.14.475,bars,2023.2.3,Win32,60.24096386,657b66ea316d21385b68909f,,,,,,,,,,,845.732,846.7315,,,847.2312,847.4807,,158,-22,,,,,,,,,,,,,,,,bars/023.png,bars/mask007.png,,,,,,,,,,,,0,1,,,,,,,2,0,1,0,,,,,,,,,,,846.7316,847.2311,847.4808,850.512,space,3.0147,,850.512,42,43,851.5121,851.5122,852.7443,space,1.1969,,0,31,31,31,1,20,115,,,,,,,,
,,5e31e6491faa251bf58151ce,65af551af3ebe8cc90bc71b0,2024-01-23_06h57.14.475,bars,2023.2.3,Win32,60.24096386,657b66ea316d21385b68909f,,,,,,,,,,,852.7445,853.7439,,,854.2433,854.4935,,169,-11,,,,,,,,,,,,,,,,bars/033.png,bars/mask005.png,,,,,,,,,,,,0,2,,,,,,,0,0,0,0,,,,,,,,,,,853.7439,854.2433,854.4936,856.5755,space,2.0743,,856.5756,36,14,857.575,857.5751,858.8576,space,1.2645,,0,32,32,32,1,25,155,,,,,,,,
,,5e31e6491faa251bf58151ce,65af551af3ebe8cc90bc71b0,2024-01-23_06h57.14.475,bars,2023.2.3,Win32,60.24096386,657b66ea316d21385b68909f,,,,,,,,,,,858.8579,859.8578,,,860.357,860.6068,,167,167,,,,,,,,,,,,,,,,bars/009.png,bars/mask001.png,,,,,,,,,,,,0,1,,,,,,,0,2,0,2,,,,,,,,,,,859.8578,860.3569,860.6069,863.7717,space,3.1571,,863.7717,28,62,864.7715,864.7715,869.7853,space,4.99,,0,33,33,33,1,15,105,,,,,,,,
,,5e31e6491faa251bf58151ce,65af551af3ebe8cc90bc71b0,2024-01-23_06h57.14.475,bars,2023.2.3,Win32,60.24096386,657b66ea316d21385b68909f,,,,,,,,,,,869.7937,870.7848,,,871.2849,871.5345,,23,23,,,,,,,,,,,,,,,,bars/006.png,bars/mask002.png,,,,,,,,,,,,1,1,,,,,,,2,0,2,1,,,,,,,,,,,870.7848,871.2849,871.5345,876.9816,space,5.4362,,876.9816,12,77,877.9812,877.9814,879.1305,space,1.1218,,0,34,34,34,1,35,100,,,,,,,,
,,5e31e6491faa251bf58151ce,65af551af3ebe8cc90bc71b0,2024-01-23_06h57.14.475,bars,2023.2.3,Win32,60.24096386,657b66ea316d21385b68909f,,,,,,,,,,,879.1307,880.13,,,880.63,880.8794,,117,117,,,,,,,,,,,,,,,,bars/049.png,bars/mask004.png,,,,,,,,,,,,1,2,,,,,,,0,2,0,1,,,,,,,,,,,880.1301,880.6298,880.8794,882.6455,space,1.7519,,882.6455,43,2,883.6448,883.6448,885.977,space,2.3075,,0,35,35,35,1,160,115,,,,,,,,
,,5e31e6491faa251bf58151ce,65af551af3ebe8cc90bc71b0,2024-01-23_06h57.14.475,bars,2023.2.3,Win32,60.24096386,657b66ea316d21385b68909f,,,,,,,,,,,885.9772,886.9765,,,887.4764,887.726,,164,164,,,,,,,,,,,,,,,,bars/049.png,bars/mask001.png,,,,,,,,,,,,3,1,,,,,,,2,0,3,0,,,,,,,,,,,886.9766,887.4764,887.726,889.175,space,1.4416,,889.175,4,49,890.1747,890.1748,893.3062,space,3.11,,0,36,36,36,1,160,115,,,,,,,,
,,5e31e6491faa251bf58151ce,65af551af3ebe8cc90bc71b0,2024-01-23_06h57.14.475,bars,2023.2.3,Win32,60.24096386,657b66ea316d21385b68909f,,,,,,,,,,,893.3065,894.3061,,,894.8058,895.0557,,24,204,,,,,,,,,,,,,,,,bars/030.png,bars/mask006.png,,,,,,,,,,,,0,2,,,,,,,4,2,5,1,,,,,,,,,,,894.3061,894.8057,895.0557,898.5214,space,3.4539,,898.5216,64,41,899.5251,899.5252,901.4083,space,1.8647,,0,37,37,37,1,140,65,,,,,,,,
,,5e31e6491faa251bf58151ce,65af551af3ebe8cc90bc71b0,2024-01-23_06h57.14.475,bars,2023.2.3,Win32,60.24096386,657b66ea316d21385b68909f,,,,,,,,,,,901.4086,902.4069,,,902.9081,903.1581,,142,142,,,,,,,,,,,,,,,,bars/022.png,bars/mask000.png,,,,,,,,,,,,0,1,,,,,,,2,4,2,5,,,,,,,,,,,902.4069,902.9081,903.1582,912.787,space,9.6129,,912.7871,47,58,913.7845,913.7845,916.6609,space,2.8293,,0,38,38,38,1,95,20,,,,,,,,
,,5e31e6491faa251bf58151ce,65af551af3ebe8cc90bc71b0,2024-01-23_06h57.14.475,bars,2023.2.3,Win32,60.24096386,657b66ea316d21385b68909f,,,,,,,,,,,916.6616,917.6607,,,918.1602,918.3989,,59,59,,,,,,,,,,,,,,,,bars/023.png,bars/mask006.png,,,,,,,,,,,,0,1,,,,,,,4,6,3,6,,,,,,,,,,,917.6608,918.1601,918.3989,921.0269,space,2.604,,921.0272,39,56,922.0248,922.0248,923.1242,space,1.0672,,0,39,39,39,1,20,115,,,,,,,,
,,5e31e6491faa251bf58151ce,65af551af3ebe8cc90bc71b0,2024-01-23_06h57.14.475,bars,2023.2.3,Win32,60.24096386,657b66ea316d21385b68909f,,,,,,,,,,,923.1246,924.1246,,,924.6237,924.8735,,60,60,,,,,,,,,,,,,,,,bars/047.png,bars/mask002.png,,,,,,,,,,,,2,2,,,,,,,2,4,1,3,,,,,,,,,,,924.1247,924.6237,924.8736,932.8694,space,7.9716,,932.8696,45,10,933.8683,933.8684,934.9844,space,1.0936,,0,40,40,40,1,15,70,,,,,,,,
,,5e31e6491faa251bf58151ce,65af551af3ebe8cc90bc71b0,2024-01-23_06h57.14.475,bars,2023.2.3,Win32,60.24096386,657b66ea316d21385b68909f,,,,,,,,,,,934.9854,935.9842,,,936.4837,936.7337,,12,12,,,,,,,,,,,,,,,,bars/007.png,bars/mask008.png,,,,,,,,,,,,1,1,,,,,,,4,2,3,2,,,,,,,,,,,935.9844,936.4837,936.7338,942.697,space,5.955,,942.697,17,43,943.6969,943.6969,945.0636,space,1.335,,0,41,41,41,1,175,55,,,,,,,,
,,5e31e6491faa251bf58151ce,65af551af3ebe8cc90bc71b0,2024-01-23_06h57.14.475,bars,2023.2.3,Win32,60.24096386,657b66ea316d21385b68909f,,,,,,,,,,,945.065,946.0626,,,946.5629,946.8126,,58,58,,,,,,,,,,,,,,,,bars/029.png,bars/mask009.png,,,,,,,,,,,,1,2,,,,,,,6,0,7,1,,,,,,,,,,,946.0627,946.5628,946.8127,949.528,space,2.6853,,949.5282,32,13,950.5266,950.5266,953.1419,space,2.5807,,0,42,42,42,1,90,45,,,,,,,,
,,5e31e6491faa251bf58151ce,65af551af3ebe8cc90bc71b0,2024-01-23_06h57.14.475,bars,2023.2.3,Win32,60.24096386,657b66ea316d21385b68909f,,,,,,,,,,,953.143,954.1413,,,954.6408,954.891,,170,-10,,,,,,,,,,,,,,,,bars/012.png,bars/mask003.png,,,,,,,,,,,,0,2,,,,,,,4,0,6,0,,,,,,,,,,,954.1414,954.6408,954.8912,958.156,space,3.2319,,958.1561,80,25,959.1559,959.156,960.5382,space,1.3394,,0,43,43,43,1,90,15,,,,,,,,
,,5e31e6491faa251bf58151ce,65af551af3ebe8cc90bc71b0,2024-01-23_06h57.14.475,bars,2023.2.3,Win32,60.24096386,657b66ea316d21385b68909f,,,,,,,,,,,960.5387,961.5372,,,962.0374,962.287,,38,218,,,,,,,,,,,,,,,,bars/018.png,bars/mask003.png,,,,,,,,,,,,0,2,,,,,,,2,0,2,0,,,,,,,,,,,961.5372,962.0374,962.287,969.3332,space,7.0348,,969.3332,68,52,970.3329,970.3329,971.6986,space,1.3311,,0,44,44,44,1,150,90,,,,,,,,
,,5e31e6491faa251bf58151ce,65af551af3ebe8cc90bc71b0,2024-01-23_06h57.14.475,bars,2023.2.3,Win32,60.24096386,657b66ea316d21385b68909f,,,,,,,,,,,971.6988,972.6985,,,973.198,973.4477,,160,-20,,,,,,,,,,,,,,,,bars/013.png,bars/mask001.png,,,,,,,,,,,,0,2,,,,,,,0,0,0,2,,,,,,,,,,,972.6985,973.198,973.4477,975.5305,space,2.0683,,975.5306,85,30,976.5302,976.5303,977.6456,space,1.0781,,0,45,45,45,1,75,10,,,,,,,,
,,5e31e6491faa251bf58151ce,65af551af3ebe8cc90bc71b0,2024-01-23_06h57.14.475,bars,2023.2.3,Win32,60.24096386,657b66ea316d21385b68909f,,,,,,,,,,,977.6463,978.645,,,979.1462,979.3948,,44,44,,,,,,,,,,,,,,,,bars/047.png,bars/mask008.png,,,,,,,,,,,,0,2,,,,,,,2,2,2,1,,,,,,,,,,,978.645,979.146,979.3948,981.0615,space,1.6571,,981.0617,29,26,982.0598,982.0598,982.9928,space,0.9009,,0,46,46,46,1,15,70,,,,,,,,
,,5e31e6491faa251bf58151ce,65af551af3ebe8cc90bc71b0,2024-01-23_06h57.14.475,bars,2023.2.3,Win32,60.24096386,657b66ea316d21385b68909f,,,,,,,,,,,982.9936,983.9921,,,984.492,984.7419,,153,-27,,,,,,,,,,,,,,,,bars/031.png,bars/mask005.png,,,,,,,,,,,,0,1,,,,,,,4,0,5,1,,,,,,,,,,,983.9921,984.492,984.742,987.1738,space,2.4167,,987.1738,33,62,988.1743,988.1743,988.8896,space,0.6775,,0,47,47,47,1,120,35,,,,,,,,
,,5e31e6491faa251bf58151ce,65af551af3ebe8cc90bc71b0,2024-01-23_06h57.14.475,bars,2023.2.3,Win32,60.24096386,657b66ea316d21385b68909f,,,,,,,,,,,988.8898,989.889,,,990.3888,990.6395,,113,113,,,,,,,,,,,,,,,,bars/022.png,bars/mask006.png,,,,,,,,,,,,3,1,,,,,,,6,2,7,3,,,,,,,,,,,989.889,990.3888,990.6395,992.9376,space,2.2868,,992.9376,18,87,993.9372,993.9372,995.5029,space,1.5505,,0,48,48,48,1,95,20,,,,,,,,
,,5e31e6491faa251bf58151ce,65af551af3ebe8cc90bc71b0,2024-01-23_06h57.14.475,bars,2023.2.3,Win32,60.24096386,657b66ea316d21385b68909f,,,,,,,,,,,995.5031,996.5024,,,997.0019,997.2522,,24,204,,,,,,,,,,,,,,,,bars/025.png,bars/mask003.png,,,,,,,,,,,,2,2,,,,,,,4,4,3,4,,,,,,,,,,,996.5024,997.0019,997.2522,1000.2504,space,2.9884,,1000.2505,81,16,1001.2501,1001.2502,1003.1156,space,1.8322,,0,49,49,49,1,105,40,,,,,,,,
,,5e31e6491faa251bf58151ce,65af551af3ebe8cc90bc71b0,2024-01-23_06h57.14.475,bars,2023.2.3,Win32,60.24096386,657b66ea316d21385b68909f,,,,,,,,,,,,,,,,,,,,,,,,,,,,,,,,,,,,,,,,,,,,,,,,,,,,,,,,,,,,,,,,,,,,,,,,,,,,,,,,,,,,,,,,,,,,,1003.116,1063.1204,0,0,0,3,1,sequence_tables/blk023.csv
,,5e31e6491faa251bf58151ce,65af551af3ebe8cc90bc71b0,2024-01-23_06h57.14.475,bars,2023.2.3,Win32,60.24096386,657b66ea316d21385b68909f,,,,,,,,,,,1064.4065,1065.3995,,,1065.8994,1066.1491,,12,12,,,,,,,,,,,,,,,,bars/048.png,bars/mask008.png,,,,,,,,,,,,3,2,,,,,,,5,9,5,7,,,,,,1063.135,1064.4002,space,1.2529,,1065.3995,1065.8994,1066.1491,1067.9651,space,1.8024,,1067.9651,38,17,1068.9645,1068.9645,1068.965,,,,0,0,0,0,1,50,175,,,,,,,,
,,5e31e6491faa251bf58151ce,65af551af3ebe8cc90bc71b0,2024-01-23_06h57.14.475,bars,2023.2.3,Win32,60.24096386,657b66ea316d21385b68909f,,,,,,,,,,,1068.9651,1069.9639,,,1070.4636,1070.7136,,57,57,,,,,,,,,,,,,,,,bars/035.png,bars/mask003.png,,,,,,,,,,,,5,2,,,,,,,7,7,10,5,,,,,,,,,,,1069.9639,1070.4636,1070.7136,1073.8122,space,3.0818,,1073.8123,62,3,1074.8114,1074.8114,1074.8206,,,,0,1,1,1,1,175,60,,,,,,,,
,,5e31e6491faa251bf58151ce,65af551af3ebe8cc90bc71b0,2024-01-23_06h57.14.475,bars,2023.2.3,Win32,60.24096386,657b66ea316d21385b68909f,,,,,,,,,,,1074.8207,1075.8109,,,1076.3106,1076.5607,,158,-22,,,,,,,,,,,,,,,,bars/018.png,bars/mask001.png,,,,,,,,,,,,4,1,,,,,,,5,5,6,3,,,,,,,,,,,1075.8109,1076.3106,1076.5608,1078.6431,space,2.0664,,1078.6432,8,68,1079.6425,1079.6425,1079.6561,,,,0,2,2,2,1,150,90,,,,,,,,
,,5e31e6491faa251bf58151ce,65af551af3ebe8cc90bc71b0,2024-01-23_06h57.14.475,bars,2023.2.3,Win32,60.24096386,657b66ea316d21385b68909f,,,,,,,,,,,1079.6564,1080.6585,,,1081.1581,1081.4081,,26,206,,,,,,,,,,,,,,,,bars/031.png,bars/mask008.png,,,,,,,,,,,,4,2,,,,,,,7,3,6,6,,,,,,,,,,,1080.6585,1081.158,1081.4081,1083.7736,space,2.3541,,1083.7736,86,9,1084.7734,1084.7735,1084.7755,,,,0,3,3,3,1,120,35,,,,,,,,
,,5e31e6491faa251bf58151ce,65af551af3ebe8cc90bc71b0,2024-01-23_06h57.14.475,bars,2023.2.3,Win32,60.24096386,657b66ea316d21385b68909f,,,,,,,,,,,1084.7758,1085.7726,,,1086.2723,1086.5225,,18,198,,,,,,,,,,,,,,,,bars/040.png,bars/mask007.png,,,,,,,,,,,,3,2,,,,,,,9,5,9,6,,,,,,,,,,,1085.7726,1086.2723,1086.5225,1088.4882,space,1.949,,1088.4883,58,13,1089.4874,1089.4874,1089.4954,,,,0,4,4,4,1,140,5,,,,,,,,
,,5e31e6491faa251bf58151ce,65af551af3ebe8cc90bc71b0,2024-01-23_06h57.14.475,bars,2023.2.3,Win32,60.24096386,657b66ea316d21385b68909f,,,,,,,,,,,1089.4956,1090.4864,,,1090.9867,1091.2364,,4,4,,,,,,,,,,,,,,,,bars/005.png,bars/mask005.png,,,,,,,,,,,,7,1,,,,,,,10,7,9,6,,,,,,,,,,,1090.4865,1090.9867,1091.2364,1093.1193,space,1.8688,,1093.1194,6,44,1094.1184,1094.1184,1094.1391,,,,0,5,5,5,1,10,140,,,,,,,,
,,5e31e6491faa251bf58151ce,65af551af3ebe8cc90bc71b0,2024-01-23_06h57.14.475,bars,2023.2.3,Win32,60.24096386,657b66ea316d21385b68909f,,,,,,,,,,,1094.1392,1095.1342,,,1095.6344,1095.8841,,65,65,,,,,,,,,,,,,,,,bars/019.png,bars/mask004.png,,,,,,,,,,,,2,1,,,,,,,8,5,7,4,,,,,,,,,,,1095.1342,1095.6344,1095.8843,1099.0155,space,3.1196,,1099.0155,20,40,1100.0149,1100.0149,1100.0253,,,,0,6,6,6,1,45,105,,,,,,,,
,,5e31e6491faa251bf58151ce,65af551af3ebe8cc90bc71b0,2024-01-23_06h57.14.475,bars,2023.2.3,Win32,60.24096386,657b66ea316d21385b68909f,,,,,,,,,,,1100.0254,1101.0151,,,1101.514,1101.764,,19,19,,,,,,,,,,,,,,,,bars/040.png,bars/mask007.png,,,,,,,,,,,,4,2,,,,,,,6,7,6,8,,,,,,,,,,,1101.0152,1101.514,1101.764,1104.7291,space,2.9548,,1104.7292,59,14,1105.7288,1105.7288,1105.7381,,,,0,7,7,7,1,140,5,,,,,,,,
,,5e31e6491faa251bf58151ce,65af551af3ebe8cc90bc71b0,2024-01-23_06h57.14.475,bars,2023.2.3,Win32,60.24096386,657b66ea316d21385b68909f,,,,,,,,,,,1105.7381,1106.728,,,1107.228,1107.4778,,63,63,,,,,,,,,,,,,,,,bars/007.png,bars/mask009.png,,,,,,,,,,,,4,2,,,,,,,8,5,9,6,,,,,,,,,,,1106.728,1107.2279,1107.4778,1112.1251,space,4.6409,,1112.1251,68,8,1113.1249,1113.125,1113.1369,,,,0,8,8,8,1,175,55,,,,,,,,
,,5e31e6491faa251bf58151ce,65af551af3ebe8cc90bc71b0,2024-01-23_06h57.14.475,bars,2023.2.3,Win32,60.24096386,657b66ea316d21385b68909f,,,,,,,,,,,1113.1371,1114.1409,,,1114.6412,1114.8906,,64,64,,,,,,,,,,,,,,,,bars/035.png,bars/mask002.png,,,,,,,,,,,,7,2,,,,,,,10,7,10,8,,,,,,,,,,,1114.141,1114.6411,1114.8907,1117.2565,space,2.343,,1117.2566,69,4,1118.2554,1118.2554,1118.2642,,,,0,9,9,9,1,175,60,,,,,,,,
,,5e31e6491faa251bf58151ce,65af551af3ebe8cc90bc71b0,2024-01-23_06h57.14.475,bars,2023.2.3,Win32,60.24096386,657b66ea316d21385b68909f,,,,,,,,,,,1118.2643,1119.2549,,,1119.755,1120.0048,,24,24,,,,,,,,,,,,,,,,bars/016.png,bars/mask000.png,,,,,,,,,,,,4,1,,,,,,,8,9,8,9,,,,,,,,,,,1119.255,1119.7549,1120.005,1121.6704,space,1.6551,,1121.6704,16,39,1122.6697,1122.6698,1122.6724,,,,0,10,10,10,1,40,165,,,,,,,,
,,5e31e6491faa251bf58151ce,65af551af3ebe8cc90bc71b0,2024-01-23_06h57.14.475,bars,2023.2.3,Win32,60.24096386,657b66ea316d21385b68909f,,,,,,,,,,,1122.6731,1123.6693,,,1124.1689,1124.4189,,69,69,,,,,,,,,,,,,,,,bars/038.png,bars/mask008.png,,,,,,,,,,,,10,2,,,,,,,6,10,5,10,,,,,,,,,,,1123.6694,1124.1689,1124.4189,1126.8014,space,2.3741,,1126.8015,84,1,1127.8003,1127.8003,1127.8086,,,,0,11,11,11,1,165,70,,,,,,,,
,,5e31e6491faa251bf58151ce,65af551af3ebe8cc90bc71b0,2024-01-23_06h57.14.475,bars,2023.2.3,Win32,60.24096386,657b66ea316d21385b68909f,,,,,,,,,,,1127.8088,1128.7998,,,1129.2998,1129.55,,116,116,,,,,,,,,,,,,,,,bars/040.png,bars/mask004.png,,,,,,,,,,,,2,1,,,,,,,8,10,10,8,,,,,,,,,,,1128.7998,1129.2998,1129.55,1138.3452,space,8.7894,,1138.3453,24,69,1139.3445,1139.3445,1139.3585,,,,0,12,12,12,1,140,5,,,,,,,,
,,5e31e6491faa251bf58151ce,65af551af3ebe8cc90bc71b0,2024-01-23_06h57.14.475,bars,2023.2.3,Win32,60.24096386,657b66ea316d21385b68909f,,,,,,,,,,,1139.3588,1140.3605,,,1140.8603,1141.1106,,65,65,,,,,,,,,,,,,,,,bars/046.png,bars/mask008.png,,,,,,,,,,,,3,2,,,,,,,10,10,10,8,,,,,,,,,,,1140.3605,1140.8603,1141.1106,1145.0256,space,3.9013,,1145.0258,90,20,1146.0246,1146.0246,1146.0429,,,,0,13,13,13,1,155,85,,,,,,,,
,,5e31e6491faa251bf58151ce,65af551af3ebe8cc90bc71b0,2024-01-23_06h57.14.475,bars,2023.2.3,Win32,60.24096386,657b66ea316d21385b68909f,,,,,,,,,,,1146.0431,1147.0406,,,1147.5404,1147.7902,,81,81,,,,,,,,,,,,,,,,bars/041.png,bars/mask000.png,,,,,,,,,,,,7,2,,,,,,,8,8,7,8,,,,,,,,,,,1147.0406,1147.5403,1147.7902,1150.0068,space,2.2025,,1150.0069,61,4,1151.0058,1151.0059,1151.0083,,,,0,14,14,14,1,20,85,,,,,,,,
,,5e31e6491faa251bf58151ce,65af551af3ebe8cc90bc71b0,2024-01-23_06h57.14.475,bars,2023.2.3,Win32,60.24096386,657b66ea316d21385b68909f,,,,,,,,,,,1151.009,1152.0051,,,1152.5042,1152.7548,,62,62,,,,,,,,,,,,,,,,bars/000.png,bars/mask009.png,,,,,,,,,,,,2,1,,,,,,,6,6,7,6,,,,,,,,,,,1152.0052,1152.5042,1152.7549,1155.7358,space,2.9736,,1155.7358,22,83,1156.7363,1156.7364,1156.7618,,,,0,15,15,15,1,40,145,,,,,,,,
,,5e31e6491faa251bf58151ce,65af551af3ebe8cc90bc71b0,2024-01-23_06h57.14.475,bars,2023.2.3,Win32,60.24096386,657b66ea316d21385b68909f,,,,,,,,,,,1156.7621,1157.7513,,,1158.2515,1158.5016,,72,72,,,,,,,,,,,,,,,,bars/034.png,bars/mask007.png,,,,,,,,,,,,2,2,,,,,,,8,4,7,2,,,,,,,,,,,1157.7513,1158.2515,1158.5017,1160.6579,space,2.1497,,1160.658,53,7,1161.6494,1161.6494,1161.6591,,,,0,16,16,16,1,125,65,,,,,,,,
,,5e31e6491faa251bf58151ce,65af551af3ebe8cc90bc71b0,2024-01-23_06h57.14.475,bars,2023.2.3,Win32,60.24096386,657b66ea316d21385b68909f,,,,,,,,,,,1161.6592,1162.6489,,,1163.1493,1163.3996,,96,96,,,,,,,,,,,,,,,,bars/007.png,bars/mask004.png,,,,,,,,,,,,0,2,,,,,,,10,2,9,2,,,,,,,,,,,1162.6489,1163.1492,1163.3997,1168.2797,space,4.863,,1168.2797,79,41,1169.2789,1169.2789,1169.2871,,,,0,17,17,17,1,175,55,,,,,,,,
,,5e31e6491faa251bf58151ce,65af551af3ebe8cc90bc71b0,2024-01-23_06h57.14.475,bars,2023.2.3,Win32,60.24096386,657b66ea316d21385b68909f,,,,,,,,,,,1169.2872,1170.2784,,,1170.7778,1171.028,,38,38,,,,,,,,,,,,,,,,bars/035.png,bars/mask009.png,,,,,,,,,,,,0,2,,,,,,,8,0,6,0,,,,,,,,,,,1170.2786,1170.7778,1171.028,1173.8263,space,2.7829,,1173.8263,43,22,1174.8259,1174.8259,1174.834,,,,0,18,18,18,1,175,60,,,,,,,,
,,5e31e6491faa251bf58151ce,65af551af3ebe8cc90bc71b0,2024-01-23_06h57.14.475,bars,2023.2.3,Win32,60.24096386,657b66ea316d21385b68909f,,,,,,,,,,,1174.8341,1175.8253,,,1176.3255,1176.5756,,81,81,,,,,,,,,,,,,,,,bars/006.png,bars/mask005.png,,,,,,,,,,,,1,2,,,,,,,10,0,10,2,,,,,,,,,,,1175.8253,1176.3254,1176.5757,1179.3799,space,2.7827,,1179.38,46,19,1180.373,1180.3731,1180.3834,,,,0,19,19,19,1,35,100,,,,,,,,
,,5e31e6491faa251bf58151ce,65af551af3ebe8cc90bc71b0,2024-01-23_06h57.14.475,bars,2023.2.3,Win32,60.24096386,657b66ea316d21385b68909f,,,,,,,,,,,1180.3836,1181.3724,,,1181.8724,1182.1223,,20,20,,,,,,,,,,,,,,,,bars/048.png,bars/mask001.png,,,,,,,,,,,,0,2,,,,,,,10,0,10,0,,,,,,,,,,,1181.3724,1181.8723,1182.1224,1183.7385,space,1.6059,,1183.7387,30,25,1184.7372,1184.7373,1184.739,,,,0,20,20,20,1,50,175,,,,,,,,
,,5e31e6491faa251bf58151ce,65af551af3ebe8cc90bc71b0,2024-01-23_06h57.14.475,bars,2023.2.3,Win32,60.24096386,657b66ea316d21385b68909f,,,,,,,,,,,1184.7398,1185.7376,,,1186.2372,1186.487,,37,37,,,,,,,,,,,,,,,,bars/006.png,bars/mask003.png,,,,,,,,,,,,5,1,,,,,,,8,0,5,0,,,,,,,,,,,1185.7376,1186.2371,1186.4871,1189.1683,space,2.668,,1189.1683,2,63,1190.1682,1190.1684,1190.1794,,,,0,21,21,21,1,35,100,,,,,,,,
,,5e31e6491faa251bf58151ce,65af551af3ebe8cc90bc71b0,2024-01-23_06h57.14.475,bars,2023.2.3,Win32,60.24096386,657b66ea316d21385b68909f,,,,,,,,,,,1190.1796,1191.1682,,,1191.6682,1191.917,,113,113,,,,,,,,,,,,,,,,bars/034.png,bars/mask001.png,,,,,,,,,,,,5,1,,,,,,,10,0,9,0,,,,,,,,,,,1191.1683,1191.6681,1191.9171,1194.4835,space,2.552,,1194.4837,12,48,1195.4822,1195.4823,1195.5019,,,,0,22,22,22,1,125,65,,,,,,,,
,,5e31e6491faa251bf58151ce,65af551af3ebe8cc90bc71b0,2024-01-23_06h57.14.475,bars,2023.2.3,Win32,60.24096386,657b66ea316d21385b68909f,,,,,,,,,,,1195.5021,1196.4978,,,1196.9977,1197.2476,,107,107,,,,,,,,,,,,,,,,bars/030.png,bars/mask007.png,,,,,,,,,,,,0,1,,,,,,,10,2,9,1,,,,,,,,,,,1196.4979,1196.9977,1197.2476,1199.0201,space,1.7672,,1199.0201,33,42,1200.0128,1200.0128,1200.0269,,,,0,23,23,23,1,140,65,,,,,,,,
,,5e31e6491faa251bf58151ce,65af551af3ebe8cc90bc71b0,2024-01-23_06h57.14.475,bars,2023.2.3,Win32,60.24096386,657b66ea316d21385b68909f,,,,,,,,,,,1200.0272,1201.0294,,,1201.5171,1201.7619,,71,251,,,,,,,,,,,,,,,,bars/001.png,bars/mask001.png,,,,,,,,,,,,0,2,,,,,,,8,0,8,0,,,,,,,,,,,1201.0295,1201.5171,1201.7619,1206.1607,space,4.3845,,1206.1608,59,14,1207.1597,1207.1598,1207.1942,,,,0,24,24,24,1,130,85,,,,,,,,
,,5e31e6491faa251bf58151ce,65af551af3ebe8cc90bc71b0,2024-01-23_06h57.14.475,bars,2023.2.3,Win32,60.24096386,657b66ea316d21385b68909f,,,,,,,,,,,1207.1946,1208.1918,,,1208.6915,1208.9412,,61,61,,,,,,,,,,,,,,,,bars/034.png,bars/mask009.png,,,,,,,,,,,,0,2,,,,,,,6,0,4,0,,,,,,,,,,,1208.1919,1208.6914,1208.9413,1211.9399,space,2.9855,,1211.9399,64,4,1212.9398,1212.9398,1212.956,,,,0,25,25,25,1,125,65,,,,,,,,
,,5e31e6491faa251bf58151ce,65af551af3ebe8cc90bc71b0,2024-01-23_06h57.14.475,bars,2023.2.3,Win32,60.24096386,657b66ea316d21385b68909f,,,,,,,,,,,1212.9562,1213.9557,,,1214.4553,1214.7049,,155,-25,,,,,,,,,,,,,,,,bars/004.png,bars/mask003.png,,,,,,,,,,,,0,2,,,,,,,4,2,3,1,,,,,,,,,,,1213.9557,1214.4553,1214.7049,1218.0867,space,3.3778,,1218.0867,50,30,1219.086,1219.0861,1219.0946,,,,0,26,26,26,1,25,125,,,,,,,,
,,5e31e6491faa251bf58151ce,65af551af3ebe8cc90bc71b0,2024-01-23_06h57.14.475,bars,2023.2.3,Win32,60.24096386,657b66ea316d21385b68909f,,,,,,,,,,,1219.0948,1220.0858,,,1220.5861,1220.8359,,149,-31,,,,,,,,,,,,,,,,bars/039.png,bars/mask006.png,,,,,,,,,,,,0,1,,,,,,,2,0,2,0,,,,,,,,,,,1220.0859,1220.5861,1220.8359,1224.5501,space,3.7017,,1224.5501,26,44,1225.5493,1225.5493,1225.5582,,,,0,27,27,27,1,175,105,,,,,,,,
,,5e31e6491faa251bf58151ce,65af551af3ebe8cc90bc71b0,2024-01-23_06h57.14.475,bars,2023.2.3,Win32,60.24096386,657b66ea316d21385b68909f,,,,,,,,,,,1225.5583,1226.549,,,1227.0487,1227.2987,,107,287,,,,,,,,,,,,,,,,bars/023.png,bars/mask000.png,,,,,,,,,,,,1,2,,,,,,,0,2,1,1,,,,,,,,,,,1226.5491,1227.0487,1227.2987,1239.9921,space,12.6792,,1239.9921,87,8,1240.9915,1240.9915,1241.0045,,,,0,28,28,28,1,20,115,,,,,,,,
,,5e31e6491faa251bf58151ce,65af551af3ebe8cc90bc71b0,2024-01-23_06h57.14.475,bars,2023.2.3,Win32,60.24096386,657b66ea316d21385b68909f,,,,,,,,,,,1241.0046,1242.0074,,,1242.5074,1242.7573,,123,123,,,,,,,,,,,,,,,,bars/004.png,bars/mask008.png,,,,,,,,,,,,0,2,,,,,,,2,0,3,0,,,,,,,,,,,1242.0075,1242.5073,1242.7574,1243.7901,space,1.0202,,1243.7901,82,2,1244.7898,1244.7898,1244.7906,,,,0,29,29,29,1,25,125,,,,,,,,
,,5e31e6491faa251bf58151ce,65af551af3ebe8cc90bc71b0,2024-01-23_06h57.14.475,bars,2023.2.3,Win32,60.24096386,657b66ea316d21385b68909f,,,,,,,,,,,1244.791,1245.7894,,,1246.2889,1246.5386,,24,204,,,,,,,,,,,,,,,,bars/045.png,bars/mask008.png,,,,,,,,,,,,1,2,,,,,,,4,2,3,1,,,,,,,,,,,1245.7895,1246.2889,1246.5387,1248.7377,space,2.1839,,1248.7377,76,14,1249.7371,1249.7371,1249.7554,,,,0,30,30,30,1,100,10,,,,,,,,
,,5e31e6491faa251bf58151ce,65af551af3ebe8cc90bc71b0,2024-01-23_06h57.14.475,bars,2023.2.3,Win32,60.24096386,657b66ea316d21385b68909f,,,,,,,,,,,1249.7557,1250.7534,,,1251.2526,1251.5025,,18,198,,,,,,,,,,,,,,,,bars/045.png,bars/mask004.png,,,,,,,,,,,,4,2,,,,,,,2,4,4,5,,,,,,,,,,,1250.7534,1251.2526,1251.5025,1257.3497,space,5.8322,,1257.3498,82,8,1258.3487,1258.3487,1258.3565,,,,0,31,31,31,1,100,10,,,,,,,,
,,5e31e6491faa251bf58151ce,65af551af3ebe8cc90bc71b0,2024-01-23_06h57.14.475,bars,2023.2.3,Win32,60.24096386,657b66ea316d21385b68909f,,,,,,,,,,,1258.3565,1259.3485,,,1259.8489,1260.0982,,71,71,,,,,,,,,,,,,,,,bars/025.png,bars/mask008.png,,,,,,,,,,,,0,2,,,,,,,0,6,1,5,,,,,,,,,,,1259.3486,1259.8487,1260.0982,1264.1463,space,4.0325,,1264.1463,34,31,1265.1452,1265.1453,1265.1537,,,,0,32,32,32,1,105,40,,,,,,,,
,,5e31e6491faa251bf58151ce,65af551af3ebe8cc90bc71b0,2024-01-23_06h57.14.475,bars,2023.2.3,Win32,60.24096386,657b66ea316d21385b68909f,,,,,,,,,,,1265.1539,1266.1452,,,1266.6445,1266.895,,112,112,,,,,,,,,,,,,,,,bars/037.png,bars/mask000.png,,,,,,,,,,,,6,2,,,,,,,0,8,0,8,,,,,,,,,,,1266.1452,1266.6445,1266.895,1274.3905,space,7.4781,,1274.3906,38,7,1275.39,1275.39,1275.3998,,,,0,33,33,33,1,150,105,,,,,,,,
,,5e31e6491faa251bf58151ce,65af551af3ebe8cc90bc71b0,2024-01-23_06h57.14.475,bars,2023.2.3,Win32,60.24096386,657b66ea316d21385b68909f,,,,,,,,,,,1275.4,1276.3899,,,1276.8894,1277.1391,,117,-63,,,,,,,,,,,,,,,,bars/040.png,bars/mask006.png,,,,,,,,,,,,0,1,,,,,,,0,6,0,6,,,,,,,,,,,1276.3899,1276.8893,1277.1391,1281.004,space,3.8548,,1281.0041,23,68,1282.0034,1282.0034,1282.0213,,,,0,34,34,34,1,140,5,,,,,,,,
,,5e31e6491faa251bf58151ce,65af551af3ebe8cc90bc71b0,2024-01-23_06h57.14.475,bars,2023.2.3,Win32,60.24096386,657b66ea316d21385b68909f,,,,,,,,,,,1282.0215,1283.0195,,,1283.5231,1283.769,,28,208,,,,,,,,,,,,,,,,bars/025.png,bars/mask007.png,,,,,,,,,,,,4,2,,,,,,,0,8,0,7,,,,,,,,,,,1283.0195,1283.5231,1283.7691,1286.8508,space,3.0641,,1286.8509,77,12,1287.8509,1287.851,1287.8786,,,,0,35,35,35,1,105,40,,,,,,,,
,,5e31e6491faa251bf58151ce,65af551af3ebe8cc90bc71b0,2024-01-23_06h57.14.475,bars,2023.2.3,Win32,60.24096386,657b66ea316d21385b68909f,,,,,,,,,,,1287.8788,1288.8831,,,1289.3828,1289.6327,,65,65,,,,,,,,,,,,,,,,bars/029.png,bars/mask000.png,,,,,,,,,,,,2,2,,,,,,,2,6,2,6,,,,,,,,,,,1288.8831,1289.3828,1289.6327,1293.1975,space,3.548,,1293.1975,25,20,1294.1973,1294.1973,1294.2153,,,,0,36,36,36,1,90,45,,,,,,,,
,,5e31e6491faa251bf58151ce,65af551af3ebe8cc90bc71b0,2024-01-23_06h57.14.475,bars,2023.2.3,Win32,60.24096386,657b66ea316d21385b68909f,,,,,,,,,,,1294.2155,1295.2135,,,1295.7132,1295.9627,,75,75,,,,,,,,,,,,,,,,bars/029.png,bars/mask007.png,,,,,,,,,,,,1,1,,,,,,,0,8,1,7,,,,,,,,,,,1295.2136,1295.7132,1295.9628,1297.4456,space,1.4672,,1297.4456,15,30,1298.4448,1298.4448,1298.446,,,,0,37,37,37,1,90,45,,,,,,,,
,,5e31e6491faa251bf58151ce,65af551af3ebe8cc90bc71b0,2024-01-23_06h57.14.475,bars,2023.2.3,Win32,60.24096386,657b66ea316d21385b68909f,,,,,,,,,,,1298.4461,1299.4444,,,1299.944,1300.1943,,10,190,,,,,,,,,,,,,,,,bars/005.png,bars/mask001.png,,,,,,,,,,,,5,1,,,,,,,2,10,5,9,,,,,,,,,,,1299.4444,1299.944,1300.1943,1302.6593,space,2.4501,,1302.6593,0,50,1303.6585,1303.6585,1303.6673,,,,0,38,38,38,1,10,140,,,,,,,,
,,5e31e6491faa251bf58151ce,65af551af3ebe8cc90bc71b0,2024-01-23_06h57.14.475,bars,2023.2.3,Win32,60.24096386,657b66ea316d21385b68909f,,,,,,,,,,,1303.6674,1304.6586,,,1305.1579,1305.4076,,156,156,,,,,,,,,,,,,,,,bars/016.png,bars/mask001.png,,,,,,,,,,,,7,2,,,,,,,0,10,0,10,,,,,,,,,,,1304.6587,1305.1578,1305.4077,1309.5057,space,4.0798,,1309.5058,64,9,1310.5049,1310.5049,1310.5135,,,,0,39,39,39,1,40,165,,,,,,,,
,,5e31e6491faa251bf58151ce,65af551af3ebe8cc90bc71b0,2024-01-23_06h57.14.475,bars,2023.2.3,Win32,60.24096386,657b66ea316d21385b68909f,,,,,,,,,,,1310.5136,1311.5045,,,1312.0043,1312.2543,,108,-72,,,,,,,,,,,,,,,,bars/025.png,bars/mask003.png,,,,,,,,,,,,3,1,,,,,,,2,10,3,10,,,,,,,,,,,1311.5045,1312.0043,1312.2543,1318.7174,space,6.4443,,1318.7175,3,68,1319.7169,1319.7169,1319.7308,,,,0,40,40,40,1,105,40,,,,,,,,
,,5e31e6491faa251bf58151ce,65af551af3ebe8cc90bc71b0,2024-01-23_06h57.14.475,bars,2023.2.3,Win32,60.24096386,657b66ea316d21385b68909f,,,,,,,,,,,1319.7312,1320.7334,,,1321.2332,1321.4827,,59,59,,,,,,,,,,,,,,,,bars/007.png,bars/mask000.png,,,,,,,,,,,,9,2,,,,,,,4,10,6,10,,,,,,,,,,,1320.7334,1321.2332,1321.4827,1325.6971,space,4.1969,,1325.6972,64,4,1326.6964,1326.6965,1326.7056,,,,0,41,41,41,1,175,55,,,,,,,,
,,5e31e6491faa251bf58151ce,65af551af3ebe8cc90bc71b0,2024-01-23_06h57.14.475,bars,2023.2.3,Win32,60.24096386,657b66ea316d21385b68909f,,,,,,,,,,,1326.7057,1327.6961,,,1328.196,1328.4458,,157,157,,,,,,,,,,,,,,,,bars/040.png,bars/mask006.png,,,,,,,,,,,,1,1,,,,,,,2,10,2,10,,,,,,,,,,,1327.6962,1328.1959,1328.4458,1331.2274,space,2.7686,,1331.2274,17,28,1332.227,1332.227,1332.2354,,,,0,42,42,42,1,140,5,,,,,,,,
,,5e31e6491faa251bf58151ce,65af551af3ebe8cc90bc71b0,2024-01-23_06h57.14.475,bars,2023.2.3,Win32,60.24096386,657b66ea316d21385b68909f,,,,,,,,,,,1332.2355,1333.2265,,,1333.7262,1333.976,,103,103,,,,,,,,,,,,,,,,bars/011.png,bars/mask004.png,,,,,,,,,,,,4,2,,,,,,,4,10,4,9,,,,,,,,,,,1333.2265,1333.7262,1333.976,1337.6076,space,3.6131,,1337.6076,57,18,1338.607,1338.607,1338.617,,,,0,43,43,43,1,160,85,,,,,,,,
,,5e31e6491faa251bf58151ce,65af551af3ebe8cc90bc71b0,2024-01-23_06h57.14.475,bars,2023.2.3,Win32,60.24096386,657b66ea316d21385b68909f,,,,,,,,,,,1338.6172,1339.6071,,,1340.1066,1340.356,,127,127,,,,,,,,,,,,,,,,bars/037.png,bars/mask003.png,,,,,,,,,,,,2,2,,,,,,,6,8,7,8,,,,,,,,,,,1339.6071,1340.1065,1340.356,1342.5393,space,2.17,,1342.5394,23,22,1343.5379,1343.5379,1343.5511,,,,0,44,44,44,1,150,105,,,,,,,,
,,5e31e6491faa251bf58151ce,65af551af3ebe8cc90bc71b0,2024-01-23_06h57.14.475,bars,2023.2.3,Win32,60.24096386,657b66ea316d21385b68909f,,,,,,,,,,,1343.5512,1344.5543,,,1345.0537,1345.3038,,42,42,,,,,,,,,,,,,,,,bars/031.png,bars/mask005.png,,,,,,,,,,,,8,2,,,,,,,4,10,2,10,,,,,,,,,,,1344.5544,1345.0537,1345.3039,1347.9523,space,2.6318,,1347.9524,78,7,1348.9522,1348.9522,1348.9726,,,,0,45,45,45,1,120,35,,,,,,,,
,,5e31e6491faa251bf58151ce,65af551af3ebe8cc90bc71b0,2024-01-23_06h57.14.475,bars,2023.2.3,Win32,60.24096386,657b66ea316d21385b68909f,,,,,,,,,,,1348.9728,1349.9685,,,1350.4673,1350.718,,68,68,,,,,,,,,,,,,,,,bars/013.png,bars/mask009.png,,,,,,,,,,,,2,1,,,,,,,2,8,2,6,,,,,,,,,,,1349.9685,1350.4673,1350.718,1355.5316,space,4.7955,,1355.5316,7,58,1356.5311,1356.5311,1356.5414,,,,0,46,46,46,1,75,10,,,,,,,,
,,5e31e6491faa251bf58151ce,65af551af3ebe8cc90bc71b0,2024-01-23_06h57.14.475,bars,2023.2.3,Win32,60.24096386,657b66ea316d21385b68909f,,,,,,,,,,,1356.5415,1357.5304,,,1358.0302,1358.2799,,129,129,,,,,,,,,,,,,,,,bars/028.png,bars/mask009.png,,,,,,,,,,,,5,2,,,,,,,4,6,4,7,,,,,,,,,,,1357.5304,1358.0302,1358.2799,1364.827,space,6.5302,,1364.827,84,9,1365.8263,1365.8263,1365.8352,,,,0,47,47,47,1,45,120,,,,,,,,
,,5e31e6491faa251bf58151ce,65af551af3ebe8cc90bc71b0,2024-01-23_06h57.14.475,bars,2023.2.3,Win32,60.24096386,657b66ea316d21385b68909f,,,,,,,,,,,1365.8354,1366.8258,,,1367.3258,1367.5754,,36,216,,,,,,,,,,,,,,,,bars/013.png,bars/mask000.png,,,,,,,,,,,,1,2,,,,,,,2,8,2,7,,,,,,,,,,,1366.8258,1367.3258,1367.5754,1370.6904,space,3.1031,,1370.6904,39,26,1371.6901,1371.6901,1371.7095,,,,0,48,48,48,1,75,10,,,,,,,,
,,5e31e6491faa251bf58151ce,65af551af3ebe8cc90bc71b0,2024-01-23_06h57.14.475,bars,2023.2.3,Win32,60.24096386,657b66ea316d21385b68909f,,,,,,,,,,,1371.7097,1372.7058,,,1373.2057,1373.4563,,121,121,,,,,,,,,,,,,,,,bars/023.png,bars/mask005.png,,,,,,,,,,,,8,2,,,,,,,0,10,0,10,,,,,,,,,,,1372.7058,1373.2057,1373.4565,1375.4378,space,1.9688,,1375.4378,79,6,1376.4373,1376.4374,1376.4553,,,,0,49,49,49,1,20,115,,,,,,,,
,,5e31e6491faa251bf58151ce,65af551af3ebe8cc90bc71b0,2024-01-23_06h57.14.475,bars,2023.2.3,Win32,60.24096386,657b66ea316d21385b68909f,,,,,,,,,,,,,,,,,,,,,,,,,,,,,,,,,,,,,,,,,,,,,,,,,,,,,,,,,,,,,,,,,,,,,,,,,,,,,,,,,,,,,,,,,,,,,1376.4554,1436.4569,0,1,1,0,1,sequence_tables/blk026.csv
,,5e31e6491faa251bf58151ce,65af551af3ebe8cc90bc71b0,2024-01-23_06h57.14.475,bars,2023.2.3,Win32,60.24096386,657b66ea316d21385b68909f,,,,,,,,,,,1437.6779,1438.6717,,,1439.1712,1439.4209,,63,63,,,,,,,,,,,,,,,,bars/018.png,bars/mask003.png,,,,,,,,,,,,0,2,,,,,,,8,3,7,2,,,,,,1436.4781,1437.672,space,1.1795,,1438.6718,1439.1711,1439.421,1443.2689,space,3.8156,,1443.2689,87,27,1444.2685,1444.2686,1444.2864,,,,0,0,0,0,1,150,90,,,,,,,,
,,5e31e6491faa251bf58151ce,65af551af3ebe8cc90bc71b0,2024-01-23_06h57.14.475,bars,2023.2.3,Win32,60.24096386,657b66ea316d21385b68909f,,,,,,,,,,,1444.2868,1445.2848,,,1445.7842,1446.0341,,104,104,,,,,,,,,,,,,,,,bars/006.png,bars/mask001.png,,,,,,,,,,,,3,2,,,,,,,6,5,6,4,,,,,,,,,,,1445.2849,1445.7842,1446.0341,1447.917,space,1.8585,,1447.9172,69,4,1448.9159,1448.9159,1448.9241,,,,0,1,1,1,1,35,100,,,,,,,,
,,5e31e6491faa251bf58151ce,65af551af3ebe8cc90bc71b0,2024-01-23_06h57.14.475,bars,2023.2.3,Win32,60.24096386,657b66ea316d21385b68909f,,,,,,,,,,,1448.9242,1449.9154,,,1450.4156,1450.6651,,52,52,,,,,,,,,,,,,,,,bars/010.png,bars/mask007.png,,,,,,,,,,,,3,2,,,,,,,8,3,8,3,,,,,,,,,,,1449.9155,1450.4155,1450.6653,1452.4807,space,1.7841,,1452.4808,67,3,1453.4812,1453.4813,1453.5056,,,,0,2,2,2,1,165,55,,,,,,,,
,,5e31e6491faa251bf58151ce,65af551af3ebe8cc90bc71b0,2024-01-23_06h57.14.475,bars,2023.2.3,Win32,60.24096386,657b66ea316d21385b68909f,,,,,,,,,,,1453.506,1454.4963,,,1454.9968,1455.247,,131,131,,,,,,,,,,,,,,,,bars/004.png,bars/mask009.png,,,,,,,,,,,,4,2,,,,,,,6,5,5,5,,,,,,,,,,,1454.4963,1454.9967,1455.2471,1461.9426,space,6.6777,,1461.9426,74,6,1462.9422,1462.9422,1462.955,,,,0,3,3,3,1,25,125,,,,,,,,
,,5e31e6491faa251bf58151ce,65af551af3ebe8cc90bc71b0,2024-01-23_06h57.14.475,bars,2023.2.3,Win32,60.24096386,657b66ea316d21385b68909f,,,,,,,,,,,1462.9552,1463.9582,,,1464.4579,1464.708,,27,27,,,,,,,,,,,,,,,,bars/031.png,bars/mask006.png,,,,,,,,,,,,2,2,,,,,,,8,3,9,3,,,,,,,,,,,1463.9582,1464.4579,1464.7081,1466.9733,space,2.2384,,1466.9733,87,8,1467.9726,1467.9726,1467.9819,,,,0,4,4,4,1,120,35,,,,,,,,
,,5e31e6491faa251bf58151ce,65af551af3ebe8cc90bc71b0,2024-01-23_06h57.14.475,bars,2023.2.3,Win32,60.24096386,657b66ea316d21385b68909f,,,,,,,,,,,1467.982,1468.9724,,,1469.472,1469.722,,148,148,,,,,,,,,,,,,,,,bars/003.png,bars/mask003.png,,,,,,,,,,,,1,2,,,,,,,6,1,6,2,,,,,,,,,,,1468.9724,1469.472,1469.722,1470.9047,space,1.177,,1470.9048,57,8,1471.9057,1471.9058,1471.9086,,,,0,5,5,5,1,25,140,,,,,,,,
,,5e31e6491faa251bf58151ce,65af551af3ebe8cc90bc71b0,2024-01-23_06h57.14.475,bars,2023.2.3,Win32,60.24096386,657b66ea316d21385b68909f,,,,,,,,,,,1471.91,1472.9038,,,1473.4034,1473.6534,,139,139,,,,,,,,,,,,,,,,bars/044.png,bars/mask000.png,,,,,,,,,,,,1,2,,,,,,,4,3,3,3,,,,,,,,,,,1472.9039,1473.4034,1473.6535,1476.0926,space,2.4166,,1476.0926,64,16,1477.0852,1477.0852,1477.1051,,,,0,6,6,6,1,75,155,,,,,,,,
,,5e31e6491faa251bf58151ce,65af551af3ebe8cc90bc71b0,2024-01-23_06h57.14.475,bars,2023.2.3,Win32,60.24096386,657b66ea316d21385b68909f,,,,,,,,,,,1477.1053,1478.1007,,,1478.6005,1478.8504,,60,240,,,,,,,,,,,,,,,,bars/027.png,bars/mask008.png,,,,,,,,,,,,1,2,,,,,,,6,1,7,1,,,,,,,,,,,1478.1007,1478.6004,1478.8504,1482.9662,space,4.105,,1482.9664,50,10,1483.9656,1483.9657,1483.9983,,,,0,7,7,7,1,110,50,,,,,,,,
,,5e31e6491faa251bf58151ce,65af551af3ebe8cc90bc71b0,2024-01-23_06h57.14.475,bars,2023.2.3,Win32,60.24096386,657b66ea316d21385b68909f,,,,,,,,,,,1483.9989,1484.9977,,,1485.497,1485.7467,,167,-13,,,,,,,,,,,,,,,,bars/032.png,bars/mask003.png,,,,,,,,,,,,0,2,,,,,,,8,3,9,4,,,,,,,,,,,1484.9979,1485.497,1485.7467,1490.3448,space,4.5837,,1490.3449,42,33,1491.3437,1491.3437,1491.3519,,,,0,8,8,8,1,125,20,,,,,,,,
,,5e31e6491faa251bf58151ce,65af551af3ebe8cc90bc71b0,2024-01-23_06h57.14.475,bars,2023.2.3,Win32,60.24096386,657b66ea316d21385b68909f,,,,,,,,,,,1491.352,1492.3435,,,1492.8434,1493.0932,,81,81,,,,,,,,,,,,,,,,bars/009.png,bars/mask005.png,,,,,,,,,,,,0,2,,,,,,,10,1,8,1,,,,,,,,,,,1492.3435,1492.8433,1493.0933,1497.1242,space,4.022,,1497.1243,66,24,1498.1235,1498.1236,1498.1318,,,,0,9,9,9,1,15,105,,,,,,,,
,,5e31e6491faa251bf58151ce,65af551af3ebe8cc90bc71b0,2024-01-23_06h57.14.475,bars,2023.2.3,Win32,60.24096386,657b66ea316d21385b68909f,,,,,,,,,,,1498.1319,1499.1232,,,1499.6229,1499.8726,,122,122,,,,,,,,,,,,,,,,bars/044.png,bars/mask007.png,,,,,,,,,,,,0,2,,,,,,,8,3,7,1,,,,,,,,,,,1499.1232,1499.6229,1499.8726,1501.7549,space,1.8677,,1501.7549,47,33,1502.7548,1502.7548,1502.7738,,,,0,10,10,10,1,75,155,,,,,,,,
,,5e31e6491faa251bf58151ce,65af551af3ebe8cc90bc71b0,2024-01-23_06h57.14.475,bars,2023.2.3,Win32,60.24096386,657b66ea316d21385b68909f,,,,,,,,,,,1502.774,1503.7713,,,1504.2705,1504.5202,,110,110,,,,,,,,,,,,,,,,bars/041.png,bars/mask000.png,,,,,,,,,,,,0,2,,,,,,,10,1,8,2,,,,,,,,,,,1503.7713,1504.2705,1504.5202,1506.7527,space,2.2163,,1506.7527,90,25,1507.7518,1507.7518,1507.7601,,,,0,11,11,11,1,20,85,,,,,,,,
,,5e31e6491faa251bf58151ce,65af551af3ebe8cc90bc71b0,2024-01-23_06h57.14.475,bars,2023.2.3,Win32,60.24096386,657b66ea316d21385b68909f,,,,,,,,,,,1507.7603,1508.7512,,,1509.2518,1509.5013,,28,208,,,,,,,,,,,,,,,,bars/015.png,bars/mask002.png,,,,,,,,,,,,0,2,,,,,,,10,0,10,0,,,,,,,,,,,1508.7512,1509.2518,1509.5013,1515.1648,space,5.6593,,1515.1649,82,48,1516.1642,1516.1642,1516.1726,,,,0,12,12,12,1,110,160,,,,,,,,
,,5e31e6491faa251bf58151ce,65af551af3ebe8cc90bc71b0,2024-01-23_06h57.14.475,bars,2023.2.3,Win32,60.24096386,657b66ea316d21385b68909f,,,,,,,,,,,1516.1726,1517.1638,,,1517.6639,1517.9134,,103,103,,,,,,,,,,,,,,,,bars/018.png,bars/mask000.png,,,,,,,,,,,,1,2,,,,,,,8,2,9,2,,,,,,,,,,,1517.1639,1517.6639,1517.9134,1519.7621,space,1.837,,1519.7622,47,13,1520.7617,1520.7617,1520.7701,,,,0,13,13,13,1,150,90,,,,,,,,
,,5e31e6491faa251bf58151ce,65af551af3ebe8cc90bc71b0,2024-01-23_06h57.14.475,bars,2023.2.3,Win32,60.24096386,657b66ea316d21385b68909f,,,,,,,,,,,1520.7703,1521.7615,,,1522.2612,1522.5112,,56,56,,,,,,,,,,,,,,,,bars/029.png,bars/mask005.png,,,,,,,,,,,,4,2,,,,,,,10,4,8,6,,,,,,,,,,,1521.7616,1522.2612,1522.5112,1524.5431,space,2.0236,,1524.5431,34,11,1525.5428,1525.5428,1525.5509,,,,0,14,14,14,1,90,45,,,,,,,,
,,5e31e6491faa251bf58151ce,65af551af3ebe8cc90bc71b0,2024-01-23_06h57.14.475,bars,2023.2.3,Win32,60.24096386,657b66ea316d21385b68909f,,,,,,,,,,,1525.5511,1526.5424,,,1527.0417,1527.2916,,45,45,,,,,,,,,,,,,,,,bars/032.png,bars/mask003.png,,,,,,,,,,,,1,2,,,,,,,8,6,8,6,,,,,,,,,,,1526.5424,1527.0417,1527.2916,1529.1081,space,1.8074,,1529.1082,80,25,1530.1072,1530.1073,1530.1083,,,,0,15,15,15,1,125,20,,,,,,,,
,,5e31e6491faa251bf58151ce,65af551af3ebe8cc90bc71b0,2024-01-23_06h57.14.475,bars,2023.2.3,Win32,60.24096386,657b66ea316d21385b68909f,,,,,,,,,,,1530.1087,1531.1066,,,1531.6064,1531.8563,,8,8,,,,,,,,,,,,,,,,bars/022.png,bars/mask004.png,,,,,,,,,,,,5,2,,,,,,,10,8,10,9,,,,,,,,,,,1531.1066,1531.6064,1531.8563,1533.5051,space,1.6297,,1533.5051,87,12,1534.5049,1534.5049,1534.5057,,,,0,16,16,16,1,95,20,,,,,,,,
,,5e31e6491faa251bf58151ce,65af551af3ebe8cc90bc71b0,2024-01-23_06h57.14.475,bars,2023.2.3,Win32,60.24096386,657b66ea316d21385b68909f,,,,,,,,,,,1534.5061,1535.5043,,,1536.0039,1536.2539,,29,29,,,,,,,,,,,,,,,,bars/033.png,bars/mask002.png,,,,,,,,,,,,9,1,,,,,,,10,10,10,10,,,,,,,,,,,1535.5043,1536.0039,1536.2539,1542.2173,space,5.9485,,1542.2173,4,54,1543.2166,1543.2166,1543.2265,,,,0,17,17,17,1,25,155,,,,,,,,
,,5e31e6491faa251bf58151ce,65af551af3ebe8cc90bc71b0,2024-01-23_06h57.14.475,bars,2023.2.3,Win32,60.24096386,657b66ea316d21385b68909f,,,,,,,,,,,1543.2267,1544.2162,,,1544.7161,1544.9662,,76,76,,,,,,,,,,,,,,,,bars/044.png,bars/mask007.png,,,,,,,,,,,,9,1,,,,,,,8,8,9,9,,,,,,,,,,,1544.2163,1544.716,1544.9662,1547.5814,space,2.6041,,1547.5814,1,79,1548.5807,1548.5807,1548.5816,,,,0,18,18,18,1,75,155,,,,,,,,
,,5e31e6491faa251bf58151ce,65af551af3ebe8cc90bc71b0,2024-01-23_06h57.14.475,bars,2023.2.3,Win32,60.24096386,657b66ea316d21385b68909f,,,,,,,,,,,1548.5819,1549.5803,,,1550.0796,1550.3295,,70,70,,,,,,,,,,,,,,,,bars/044.png,bars/mask004.png,,,,,,,,,,,,4,1,,,,,,,6,10,5,10,,,,,,,,,,,1549.5803,1550.0796,1550.3295,1552.3127,space,1.9657,,1552.3127,5,85,1553.3118,1553.3118,1553.3312,,,,0,19,19,19,1,75,155,,,,,,,,
,,5e31e6491faa251bf58151ce,65af551af3ebe8cc90bc71b0,2024-01-23_06h57.14.475,bars,2023.2.3,Win32,60.24096386,657b66ea316d21385b68909f,,,,,,,,,,,1553.3314,1554.3274,,,1554.8274,1555.0775,,67,247,,,,,,,,,,,,,,,,bars/042.png,bars/mask008.png,,,,,,,,,,,,6,2,,,,,,,8,10,7,8,,,,,,,,,,,1554.3274,1554.8274,1555.0775,1559.0262,space,3.9381,,1559.0263,78,8,1560.0244,1560.0244,1560.0327,,,,0,20,20,20,1,145,75,,,,,,,,
,,5e31e6491faa251bf58151ce,65af551af3ebe8cc90bc71b0,2024-01-23_06h57.14.475,bars,2023.2.3,Win32,60.24096386,657b66ea316d21385b68909f,,,,,,,,,,,1560.0328,1561.0241,,,1561.5242,1561.7741,,140,-40,,,,,,,,,,,,,,,,bars/031.png,bars/mask005.png,,,,,,,,,,,,2,1,,,,,,,6,8,5,8,,,,,,,,,,,1561.0241,1561.5242,1561.7741,1564.7064,space,2.9272,,1564.7065,20,75,1565.7054,1565.7055,1565.7255,,,,0,21,21,21,1,120,35,,,,,,,,
,,5e31e6491faa251bf58151ce,65af551af3ebe8cc90bc71b0,2024-01-23_06h57.14.475,bars,2023.2.3,Win32,60.24096386,657b66ea316d21385b68909f,,,,,,,,,,,1565.7258,1566.7209,,,1567.221,1567.4708,,115,115,,,,,,,,,,,,,,,,bars/009.png,bars/mask005.png,,,,,,,,,,,,7,2,,,,,,,4,10,3,10,,,,,,,,,,,1566.7209,1567.221,1567.4709,1571.5192,space,4.0353,,1571.5193,80,10,1572.5184,1572.5184,1572.5361,,,,0,22,22,22,1,15,105,,,,,,,,
,,5e31e6491faa251bf58151ce,65af551af3ebe8cc90bc71b0,2024-01-23_06h57.14.475,bars,2023.2.3,Win32,60.24096386,657b66ea316d21385b68909f,,,,,,,,,,,1572.5363,1573.5343,,,1574.0341,1574.2839,,18,198,,,,,,,,,,,,,,,,bars/007.png,bars/mask008.png,,,,,,,,,,,,0,1,,,,,,,2,10,2,10,,,,,,,,,,,1573.5343,1574.0341,1574.284,1577.7486,space,3.4502,,1577.7487,23,37,1578.7481,1578.7481,1578.7574,,,,0,23,23,23,1,175,55,,,,,,,,
,,5e31e6491faa251bf58151ce,65af551af3ebe8cc90bc71b0,2024-01-23_06h57.14.475,bars,2023.2.3,Win32,60.24096386,657b66ea316d21385b68909f,,,,,,,,,,,1578.7575,1579.7475,,,1580.2474,1580.4971,,68,68,,,,,,,,,,,,,,,,bars/010.png,bars/mask001.png,,,,,,,,,,,,5,2,,,,,,,0,8,0,8,,,,,,,,,,,1579.7475,1580.2474,1580.4971,1583.096,space,2.5805,,1583.096,83,13,1584.0953,1584.0953,1584.1068,,,,0,24,24,24,1,165,55,,,,,,,,
,,5e31e6491faa251bf58151ce,65af551af3ebe8cc90bc71b0,2024-01-23_06h57.14.475,bars,2023.2.3,Win32,60.24096386,657b66ea316d21385b68909f,,,,,,,,,,,1584.107,1585.0949,,,1585.5945,1585.8442,,126,126,,,,,,,,,,,,,,,,bars/001.png,bars/mask000.png,,,,,,,,,,,,3,1,,,,,,,2,6,3,4,,,,,,,,,,,1585.0949,1585.5945,1585.8443,1589.1763,space,3.3159,,1589.1763,4,41,1590.1762,1590.1762,1590.2032,,,,0,25,25,25,1,130,85,,,,,,,,
,,5e31e6491faa251bf58151ce,65af551af3ebe8cc90bc71b0,2024-01-23_06h57.14.475,bars,2023.2.3,Win32,60.24096386,657b66ea316d21385b68909f,,,,,,,,,,,1590.2035,1591.1915,,,1591.6924,1591.9477,,33,33,,,,,,,,,,,,,,,,bars/012.png,bars/mask008.png,,,,,,,,,,,,2,2,,,,,,,0,8,0,6,,,,,,,,,,,1591.1915,1591.6922,1591.9477,1595.656,space,3.6862,,1595.6561,57,18,1596.6555,1596.6555,1596.6649,,,,0,26,26,26,1,90,15,,,,,,,,
,,5e31e6491faa251bf58151ce,65af551af3ebe8cc90bc71b0,2024-01-23_06h57.14.475,bars,2023.2.3,Win32,60.24096386,657b66ea316d21385b68909f,,,,,,,,,,,1596.6651,1597.6549,,,1598.155,1598.4044,,149,-31,,,,,,,,,,,,,,,,bars/013.png,bars/mask000.png,,,,,,,,,,,,0,2,,,,,,,2,10,4,9,,,,,,,,,,,1597.6549,1598.1549,1598.4044,1603.2854,space,4.8657,,1603.2854,74,41,1604.2853,1604.2854,1604.3063,,,,0,27,27,27,1,75,10,,,,,,,,
,,5e31e6491faa251bf58151ce,65af551af3ebe8cc90bc71b0,2024-01-23_06h57.14.475,bars,2023.2.3,Win32,60.24096386,657b66ea316d21385b68909f,,,,,,,,,,,1604.3067,1605.301,,,1605.8014,1606.0506,,60,60,,,,,,,,,,,,,,,,bars/044.png,bars/mask005.png,,,,,,,,,,,,0,1,,,,,,,0,8,0,9,,,,,,,,,,,1605.3011,1605.8012,1606.0506,1608.6826,space,2.624,,1608.6826,15,85,1609.6822,1609.6822,1609.6955,,,,0,28,28,28,1,75,155,,,,,,,,
,,5e31e6491faa251bf58151ce,65af551af3ebe8cc90bc71b0,2024-01-23_06h57.14.475,bars,2023.2.3,Win32,60.24096386,657b66ea316d21385b68909f,,,,,,,,,,,1609.6957,1610.6986,,,1611.1978,1611.4477,,159,-21,,,,,,,,,,,,,,,,bars/005.png,bars/mask008.png,,,,,,,,,,,,4,2,,,,,,,0,10,0,10,,,,,,,,,,,1610.6986,1611.1978,1611.4477,1614.2973,space,2.8343,,1614.2974,31,19,1615.2961,1615.2961,1615.3107,,,,0,29,29,29,1,10,140,,,,,,,,
,,5e31e6491faa251bf58151ce,65af551af3ebe8cc90bc71b0,2024-01-23_06h57.14.475,bars,2023.2.3,Win32,60.24096386,657b66ea316d21385b68909f,,,,,,,,,,,1615.311,1616.3119,,,1616.8122,1617.0615,,67,247,,,,,,,,,,,,,,,,bars/046.png,bars/mask007.png,,,,,,,,,,,,4,2,,,,,,,2,8,0,9,,,,,,,,,,,1616.3119,1616.812,1617.0616,1620.8763,space,3.7858,,1620.8763,88,18,1621.8768,1621.877,1621.9065,,,,0,30,30,30,1,155,85,,,,,,,,
,,5e31e6491faa251bf58151ce,65af551af3ebe8cc90bc71b0,2024-01-23_06h57.14.475,bars,2023.2.3,Win32,60.24096386,657b66ea316d21385b68909f,,,,,,,,,,,1621.9068,1622.9091,,,1623.4082,1623.6581,,15,15,,,,,,,,,,,,,,,,bars/036.png,bars/mask002.png,,,,,,,,,,,,4,2,,,,,,,0,6,1,5,,,,,,,,,,,1622.9092,1623.4082,1623.6581,1625.457,space,1.7853,,1625.4571,50,5,1626.4567,1626.4568,1626.4576,,,,0,31,31,31,1,145,20,,,,,,,,
,,5e31e6491faa251bf58151ce,65af551af3ebe8cc90bc71b0,2024-01-23_06h57.14.475,bars,2023.2.3,Win32,60.24096386,657b66ea316d21385b68909f,,,,,,,,,,,1626.4579,1627.4568,,,1627.956,1628.2074,,115,115,,,,,,,,,,,,,,,,bars/005.png,bars/mask008.png,,,,,,,,,,,,0,2,,,,,,,2,4,2,3,,,,,,,,,,,1627.4568,1627.956,1628.2076,1630.7209,space,2.497,,1630.7209,75,25,1631.7206,1631.7206,1631.7313,,,,0,32,32,32,1,10,140,,,,,,,,
,,5e31e6491faa251bf58151ce,65af551af3ebe8cc90bc71b0,2024-01-23_06h57.14.475,bars,2023.2.3,Win32,60.24096386,657b66ea316d21385b68909f,,,,,,,,,,,1631.7314,1632.7204,,,1633.22,1633.4695,,93,93,,,,,,,,,,,,,,,,bars/025.png,bars/mask005.png,,,,,,,,,,,,2,1,,,,,,,4,2,4,2,,,,,,,,,,,1632.7204,1633.22,1633.4695,1636.0515,space,2.576,,1636.0515,12,53,1637.0514,1637.0514,1637.0746,,,,0,33,33,33,1,105,40,,,,,,,,
,,5e31e6491faa251bf58151ce,65af551af3ebe8cc90bc71b0,2024-01-23_06h57.14.475,bars,2023.2.3,Win32,60.24096386,657b66ea316d21385b68909f,,,,,,,,,,,1637.0748,1638.067,,,1638.5677,1638.8167,,108,108,,,,,,,,,,,,,,,,bars/039.png,bars/mask003.png,,,,,,,,,,,,1,2,,,,,,,6,0,5,1,,,,,,,,,,,1638.067,1638.5677,1638.8167,1641.1711,space,2.3478,,1641.1712,67,3,1642.1651,1642.1651,1642.1744,,,,0,34,34,34,1,175,105,,,,,,,,
,,5e31e6491faa251bf58151ce,65af551af3ebe8cc90bc71b0,2024-01-23_06h57.14.475,bars,2023.2.3,Win32,60.24096386,657b66ea316d21385b68909f,,,,,,,,,,,1642.1745,1643.1646,,,1643.6644,1643.9143,,168,-12,,,,,,,,,,,,,,,,bars/016.png,bars/mask009.png,,,,,,,,,,,,4,2,,,,,,,4,2,2,4,,,,,,,,,,,1643.1646,1643.6644,1643.9143,1646.1296,space,2.2067,,1646.1296,52,3,1647.1291,1647.1291,1647.1379,,,,0,35,35,35,1,40,165,,,,,,,,
,,5e31e6491faa251bf58151ce,65af551af3ebe8cc90bc71b0,2024-01-23_06h57.14.475,bars,2023.2.3,Win32,60.24096386,657b66ea316d21385b68909f,,,,,,,,,,,1647.1382,1648.1285,,,1648.6283,1648.8782,,127,127,,,,,,,,,,,,,,,,bars/000.png,bars/mask003.png,,,,,,,,,,,,2,2,,,,,,,2,4,2,4,,,,,,,,,,,1648.1285,1648.6282,1648.8782,1650.4442,space,1.5528,,1650.4443,87,18,1651.4444,1651.4445,1651.4683,,,,0,36,36,36,1,40,145,,,,,,,,
,,5e31e6491faa251bf58151ce,65af551af3ebe8cc90bc71b0,2024-01-23_06h57.14.475,bars,2023.2.3,Win32,60.24096386,657b66ea316d21385b68909f,,,,,,,,,,,1651.4685,1652.4597,,,1652.9596,1653.2091,,161,-19,,,,,,,,,,,,,,,,bars/008.png,bars/mask009.png,,,,,,,,,,,,1,2,,,,,,,4,2,4,3,,,,,,,,,,,1652.4597,1652.9595,1653.2091,1654.9426,space,1.7027,,1654.9427,51,19,1655.9413,1655.9415,1655.9438,,,,0,37,37,37,1,110,0,,,,,,,,
,,5e31e6491faa251bf58151ce,65af551af3ebe8cc90bc71b0,2024-01-23_06h57.14.475,bars,2023.2.3,Win32,60.24096386,657b66ea316d21385b68909f,,,,,,,,,,,1655.9444,1656.9406,,,1657.4415,1657.6911,,106,-74,,,,,,,,,,,,,,,,bars/018.png,bars/mask007.png,,,,,,,,,,,,2,2,,,,,,,6,4,6,5,,,,,,,,,,,1656.9406,1657.4414,1657.6912,1660.6891,space,2.9816,,1660.6892,44,16,1661.6881,1661.6882,1661.6972,,,,0,38,38,38,1,150,90,,,,,,,,
,,5e31e6491faa251bf58151ce,65af551af3ebe8cc90bc71b0,2024-01-23_06h57.14.475,bars,2023.2.3,Win32,60.24096386,657b66ea316d21385b68909f,,,,,,,,,,,1661.6973,1662.6876,,,1663.1873,1663.4372,,71,71,,,,,,,,,,,,,,,,bars/009.png,bars/mask001.png,,,,,,,,,,,,0,2,,,,,,,4,6,6,7,,,,,,,,,,,1662.6876,1663.1873,1663.4372,1665.0532,space,1.5886,,1665.0532,56,34,1666.0524,1666.0525,1666.0549,,,,0,39,39,39,1,15,105,,,,,,,,
,,5e31e6491faa251bf58151ce,65af551af3ebe8cc90bc71b0,2024-01-23_06h57.14.475,bars,2023.2.3,Win32,60.24096386,657b66ea316d21385b68909f,,,,,,,,,,,1666.0552,1667.0524,,,1667.552,1667.802,,8,8,,,,,,,,,,,,,,,,bars/014.png,bars/mask005.png,,,,,,,,,,,,3,2,,,,,,,6,4,7,4,,,,,,,,,,,1667.0525,1667.552,1667.802,1670.9179,space,3.1058,,1670.918,72,8,1671.9165,1671.9166,1671.9309,,,,0,40,40,40,1,80,0,,,,,,,,
,,5e31e6491faa251bf58151ce,65af551af3ebe8cc90bc71b0,2024-01-23_06h57.14.475,bars,2023.2.3,Win32,60.24096386,657b66ea316d21385b68909f,,,,,,,,,,,1671.931,1672.9322,,,1673.4327,1673.6821,,146,-34,,,,,,,,,,,,,,,,bars/003.png,bars/mask003.png,,,,,,,,,,,,1,2,,,,,,,4,2,5,1,,,,,,,,,,,1672.9322,1673.4327,1673.6821,1675.3157,space,1.6196,,1675.3158,59,6,1676.3138,1676.3138,1676.3158,,,,0,41,41,41,1,25,140,,,,,,,,
,,5e31e6491faa251bf58151ce,65af551af3ebe8cc90bc71b0,2024-01-23_06h57.14.475,bars,2023.2.3,Win32,60.24096386,657b66ea316d21385b68909f,,,,,,,,,,,1676.3166,1677.3135,,,1677.8133,1678.063,,84,84,,,,,,,,,,,,,,,,bars/025.png,bars/mask006.png,,,,,,,,,,,,1,1,,,,,,,2,4,3,4,,,,,,,,,,,1677.3135,1677.8133,1678.063,1680.8616,space,2.7822,,1680.8616,21,44,1681.8615,1681.8615,1681.8852,,,,0,42,42,42,1,105,40,,,,,,,,
,,5e31e6491faa251bf58151ce,65af551af3ebe8cc90bc71b0,2024-01-23_06h57.14.475,bars,2023.2.3,Win32,60.24096386,657b66ea316d21385b68909f,,,,,,,,,,,1681.8856,1682.8774,,,1683.3771,1683.6265,,63,63,,,,,,,,,,,,,,,,bars/047.png,bars/mask007.png,,,,,,,,,,,,1,2,,,,,,,4,2,5,1,,,,,,,,,,,1682.8775,1683.3771,1683.6265,1686.4766,space,2.8412,,1686.4766,48,7,1687.4747,1687.4747,1687.4898,,,,0,43,43,43,1,15,70,,,,,,,,
,,5e31e6491faa251bf58151ce,65af551af3ebe8cc90bc71b0,2024-01-23_06h57.14.475,bars,2023.2.3,Win32,60.24096386,657b66ea316d21385b68909f,,,,,,,,,,,1687.4901,1688.4908,,,1688.9911,1689.2406,,30,210,,,,,,,,,,,,,,,,bars/007.png,bars/mask004.png,,,,,,,,,,,,0,2,,,,,,,6,0,5,0,,,,,,,,,,,1688.4908,1688.9909,1689.2406,1693.1566,space,3.9092,,1693.1568,35,25,1694.1552,1694.1553,1694.1768,,,,0,44,44,44,1,175,55,,,,,,,,
,,5e31e6491faa251bf58151ce,65af551af3ebe8cc90bc71b0,2024-01-23_06h57.14.475,bars,2023.2.3,Win32,60.24096386,657b66ea316d21385b68909f,,,,,,,,,,,1694.177,1695.1707,,,1695.6703,1695.9203,,77,77,,,,,,,,,,,,,,,,bars/002.png,bars/mask007.png,,,,,,,,,,,,0,2,,,,,,,8,0,9,0,,,,,,,,,,,1695.1707,1695.6703,1695.9203,1697.8538,space,1.922,,1697.8539,53,8,1698.8519,1698.8519,1698.86,,,,0,45,45,45,1,130,85,,,,,,,,
,,5e31e6491faa251bf58151ce,65af551af3ebe8cc90bc71b0,2024-01-23_06h57.14.475,bars,2023.2.3,Win32,60.24096386,657b66ea316d21385b68909f,,,,,,,,,,,1698.8601,1699.8515,,,1700.3513,1700.6017,,161,-19,,,,,,,,,,,,,,,,bars/045.png,bars/mask009.png,,,,,,,,,,,,0,2,,,,,,,6,0,8,0,,,,,,,,,,,1699.8515,1700.3513,1700.6017,1703.2503,space,2.6328,,1703.2505,61,29,1704.2495,1704.2495,1704.2617,,,,0,46,46,46,1,100,10,,,,,,,,
,,5e31e6491faa251bf58151ce,65af551af3ebe8cc90bc71b0,2024-01-23_06h57.14.475,bars,2023.2.3,Win32,60.24096386,657b66ea316d21385b68909f,,,,,,,,,,,1704.2619,1705.2497,,,1705.7492,1705.9992,,158,158,,,,,,,,,,,,,,,,bars/015.png,bars/mask005.png,,,,,,,,,,,,3,2,,,,,,,8,2,8,3,,,,,,,,,,,1705.2499,1705.7489,1705.9994,1709.8976,space,3.8729,,1709.8976,48,2,1710.8968,1710.8968,1710.9162,,,,0,47,47,47,1,110,160,,,,,,,,
,,5e31e6491faa251bf58151ce,65af551af3ebe8cc90bc71b0,2024-01-23_06h57.14.475,bars,2023.2.3,Win32,60.24096386,657b66ea316d21385b68909f,,,,,,,,,,,1710.9165,1711.9118,,,1712.4128,1712.6626,,161,161,,,,,,,,,,,,,,,,bars/033.png,bars/mask003.png,,,,,,,,,,,,2,2,,,,,,,10,4,10,3,,,,,,,,,,,1711.9119,1712.4127,1712.6627,1714.6281,space,1.9402,,1714.6282,44,6,1715.6268,1715.6269,1715.6478,,,,0,48,48,48,1,25,155,,,,,,,,
,,5e31e6491faa251bf58151ce,65af551af3ebe8cc90bc71b0,2024-01-23_06h57.14.475,bars,2023.2.3,Win32,60.24096386,657b66ea316d21385b68909f,,,,,,,,,,,1715.648,1716.6429,,,1717.1425,1717.3925,,64,64,,,,,,,,,,,,,,,,bars/029.png,bars/mask002.png,,,,,,,,,,,,1,2,,,,,,,10,2,10,2,,,,,,,,,,,1716.6429,1717.1425,1717.3925,1719.8911,space,2.4898,,1719.8911,26,19,1720.8909,1720.891,1720.9109,,,,0,49,49,49,1,90,45,,,,,,,,
,,5e31e6491faa251bf58151ce,65af551af3ebe8cc90bc71b0,2024-01-23_06h57.14.475,bars,2023.2.3,Win32,60.24096386,657b66ea316d21385b68909f,,,,,,,,,,,,,,,,,,,,,,,,,,,,,,,,,,,,,,,,,,,,,,,,,,,,,,,,,,,,,,,,,,,,,,,,,,,,,,,,,,,,,,,,,,,,,1720.9111,1780.9092,0,2,2,2,1,sequence_tables/blk046.csv
,,5e31e6491faa251bf58151ce,65af551af3ebe8cc90bc71b0,2024-01-23_06h57.14.475,bars,2023.2.3,Win32,60.24096386,657b66ea316d21385b68909f,,,,,,,,,,,1782.1007,1783.0924,,,1783.5914,1783.8412,,69,69,,,,,,,,,,,,,,,,bars/041.png,bars/mask001.png,,,,,,,,,,,,0,2,,,,,,,4,2,4,1,,,,,,1780.9194,1782.0921,space,1.1509,,1783.0926,1783.5914,1783.8412,1786.2398,space,2.3822,,1786.2401,49,16,1787.2394,1787.2396,1787.2485,,,,0,0,0,0,1,20,85,,,,,,,,
,,5e31e6491faa251bf58151ce,65af551af3ebe8cc90bc71b0,2024-01-23_06h57.14.475,bars,2023.2.3,Win32,60.24096386,657b66ea316d21385b68909f,,,,,,,,,,,1787.2486,1788.2386,,,1788.7393,1788.9888,,62,62,,,,,,,,,,,,,,,,bars/029.png,bars/mask005.png,,,,,,,,,,,,1,2,,,,,,,2,4,3,3,,,,,,,,,,,1788.2386,1788.7391,1788.9889,1791.0555,space,2.0366,,1791.0557,28,17,1792.0546,1792.0548,1792.0876,,,,0,1,1,1,1,90,45,,,,,,,,
,,5e31e6491faa251bf58151ce,65af551af3ebe8cc90bc71b0,2024-01-23_06h57.14.475,bars,2023.2.3,Win32,60.24096386,657b66ea316d21385b68909f,,,,,,,,,,,1792.0882,1793.0865,,,1793.5865,1793.8357,,25,25,,,,,,,,,,,,,,,,bars/031.png,bars/mask005.png,,,,,,,,,,,,4,2,,,,,,,0,6,0,6,,,,,,,,,,,1793.0865,1793.5865,1793.8357,1796.5177,space,2.6719,,1796.5178,85,10,1797.5176,1797.5176,1797.5386,,,,0,2,2,2,1,120,35,,,,,,,,
,,5e31e6491faa251bf58151ce,65af551af3ebe8cc90bc71b0,2024-01-23_06h57.14.475,bars,2023.2.3,Win32,60.24096386,657b66ea316d21385b68909f,,,,,,,,,,,1797.539,1798.5341,,,1799.0331,1799.283,,69,249,,,,,,,,,,,,,,,,bars/035.png,bars/mask006.png,,,,,,,,,,,,4,2,,,,,,,2,4,0,5,,,,,,,,,,,1798.5342,1799.0331,1799.283,1804.4638,space,5.1491,,1804.464,74,9,1805.4639,1805.464,1805.494,,,,0,3,3,3,1,175,60,,,,,,,,
,,5e31e6491faa251bf58151ce,65af551af3ebe8cc90bc71b0,2024-01-23_06h57.14.475,bars,2023.2.3,Win32,60.24096386,657b66ea316d21385b68909f,,,,,,,,,,,1805.4944,1806.4964,,,1806.9955,1807.2455,,22,22,,,,,,,,,,,,,,,,bars/036.png,bars/mask005.png,,,,,,,,,,,,3,2,,,,,,,0,2,0,3,,,,,,,,,,,1806.4965,1806.9955,1807.2455,1809.1121,space,1.8525,,1809.1121,57,2,1810.1115,1810.1115,1810.1129,,,,0,4,4,4,1,145,20,,,,,,,,
,,5e31e6491faa251bf58151ce,65af551af3ebe8cc90bc71b0,2024-01-23_06h57.14.475,bars,2023.2.3,Win32,60.24096386,657b66ea316d21385b68909f,,,,,,,,,,,1810.1133,1811.11,,,1811.6105,1811.8606,,146,-34,,,,,,,,,,,,,,,,bars/005.png,bars/mask008.png,,,,,,,,,,,,4,2,,,,,,,0,4,0,5,,,,,,,,,,,1811.11,1811.6104,1811.8607,1814.775,space,2.898,,1814.775,44,6,1815.7744,1815.7744,1815.7837,,,,0,5,5,5,1,10,140,,,,,,,,
,,5e31e6491faa251bf58151ce,65af551af3ebe8cc90bc71b0,2024-01-23_06h57.14.475,bars,2023.2.3,Win32,60.24096386,657b66ea316d21385b68909f,,,,,,,,,,,1815.7838,1816.7738,,,1817.2743,1817.5232,,76,-104,,,,,,,,,,,,,,,,bars/039.png,bars/mask008.png,,,,,,,,,,,,0,2,,,,,,,0,2,0,1,,,,,,,,,,,1816.7738,1817.2743,1817.5233,1822.8383,space,5.3004,,1822.8384,81,29,1823.8375,1823.8376,1823.8652,,,,0,6,6,6,1,175,105,,,,,,,,
,,5e31e6491faa251bf58151ce,65af551af3ebe8cc90bc71b0,2024-01-23_06h57.14.475,bars,2023.2.3,Win32,60.24096386,657b66ea316d21385b68909f,,,,,,,,,,,1823.8655,1824.8695,,,1825.3693,1825.6193,,119,119,,,,,,,,,,,,,,,,bars/037.png,bars/mask009.png,,,,,,,,,,,,1,2,,,,,,,0,0,1,1,,,,,,,,,,,1824.8696,1825.3693,1825.6193,1827.102,space,1.4784,,1827.102,31,14,1828.1011,1828.1012,1828.1017,,,,0,7,7,7,1,150,105,,,,,,,,
,,5e31e6491faa251bf58151ce,65af551af3ebe8cc90bc71b0,2024-01-23_06h57.14.475,bars,2023.2.3,Win32,60.24096386,657b66ea316d21385b68909f,,,,,,,,,,,1828.1019,1829.101,,,1829.6007,1829.8506,,110,110,,,,,,,,,,,,,,,,bars/049.png,bars/mask001.png,,,,,,,,,,,,2,2,,,,,,,0,2,0,2,,,,,,,,,,,1829.101,1829.6007,1829.8506,1831.6502,space,1.7839,,1831.6502,50,5,1832.649,1832.649,1832.6495,,,,0,8,8,8,1,160,115,,,,,,,,
,,5e31e6491faa251bf58151ce,65af551af3ebe8cc90bc71b0,2024-01-23_06h57.14.475,bars,2023.2.3,Win32,60.24096386,657b66ea316d21385b68909f,,,,,,,,,,,1832.6498,1833.6482,,,1834.1481,1834.398,,99,-81,,,,,,,,,,,,,,,,bars/011.png,bars/mask003.png,,,,,,,,,,,,1,2,,,,,,,2,0,1,1,,,,,,,,,,,1833.6482,1834.1481,1834.3981,1837.7301,space,3.3148,,1837.7301,61,14,1838.7293,1838.7293,1838.7445,,,,0,9,9,9,1,160,85,,,,,,,,
,,5e31e6491faa251bf58151ce,65af551af3ebe8cc90bc71b0,2024-01-23_06h57.14.475,bars,2023.2.3,Win32,60.24096386,657b66ea316d21385b68909f,,,,,,,,,,,1838.7447,1839.745,,,1840.2448,1840.4949,,14,194,,,,,,,,,,,,,,,,bars/040.png,bars/mask003.png,,,,,,,,,,,,0,2,,,,,,,0,0,0,0,,,,,,,,,,,1839.745,1840.2448,1840.4949,1842.4772,space,1.9638,,1842.4772,54,9,1843.4766,1843.4766,1843.4848,,,,0,10,10,10,1,140,5,,,,,,,,
,,5e31e6491faa251bf58151ce,65af551af3ebe8cc90bc71b0,2024-01-23_06h57.14.475,bars,2023.2.3,Win32,60.24096386,657b66ea316d21385b68909f,,,,,,,,,,,1843.485,1844.4762,,,1844.9759,1845.2258,,155,155,,,,,,,,,,,,,,,,bars/033.png,bars/mask004.png,,,,,,,,,,,,3,2,,,,,,,2,2,3,3,,,,,,,,,,,1844.4762,1844.9758,1845.2259,1848.0408,space,2.8033,,1848.0409,50,0,1849.0404,1849.0404,1849.0533,,,,0,11,11,11,1,25,155,,,,,,,,
,,5e31e6491faa251bf58151ce,65af551af3ebe8cc90bc71b0,2024-01-23_06h57.14.475,bars,2023.2.3,Win32,60.24096386,657b66ea316d21385b68909f,,,,,,,,,,,1849.0534,1850.0566,,,1850.556,1850.8063,,98,-82,,,,,,,,,,,,,,,,bars/019.png,bars/mask001.png,,,,,,,,,,,,0,2,,,,,,,0,0,0,0,,,,,,,,,,,1850.0566,1850.556,1850.8063,1854.0886,space,3.2691,,1854.0886,53,7,1855.0872,1855.0872,1855.0956,,,,0,12,12,12,1,45,105,,,,,,,,
,,5e31e6491faa251bf58151ce,65af551af3ebe8cc90bc71b0,2024-01-23_06h57.14.475,bars,2023.2.3,Win32,60.24096386,657b66ea316d21385b68909f,,,,,,,,,,,1855.0957,1856.0868,,,1856.5863,1856.8362,,97,97,,,,,,,,,,,,,,,,bars/019.png,bars/mask003.png,,,,,,,,,,,,0,2,,,,,,,0,2,0,0,,,,,,,,,,,1856.0868,1856.5863,1856.8363,1861.8168,space,4.9698,,1861.8169,52,8,1862.8163,1862.8163,1862.8244,,,,0,13,13,13,1,45,105,,,,,,,,
,,5e31e6491faa251bf58151ce,65af551af3ebe8cc90bc71b0,2024-01-23_06h57.14.475,bars,2023.2.3,Win32,60.24096386,657b66ea316d21385b68909f,,,,,,,,,,,1862.8245,1863.8157,,,1864.3157,1864.5658,,80,80,,,,,,,,,,,,,,,,bars/019.png,bars/mask005.png,,,,,,,,,,,,1,2,,,,,,,0,4,0,4,,,,,,,,,,,1863.8157,1864.3157,1864.5659,1866.8482,space,2.2741,,1866.8483,35,25,1867.8472,1867.8472,1867.8574,,,,0,14,14,14,1,45,105,,,,,,,,
,,5e31e6491faa251bf58151ce,65af551af3ebe8cc90bc71b0,2024-01-23_06h57.14.475,bars,2023.2.3,Win32,60.24096386,657b66ea316d21385b68909f,,,,,,,,,,,1867.8576,1868.8464,,,1869.3466,1869.5964,,138,138,,,,,,,,,,,,,,,,bars/005.png,bars/mask002.png,,,,,,,,,,,,2,2,,,,,,,2,2,3,2,,,,,,,,,,,1868.8465,1869.3466,1869.5964,1872.2949,space,2.6786,,1872.2949,52,2,1873.2946,1873.2946,1873.3123,,,,0,15,15,15,1,10,140,,,,,,,,
,,5e31e6491faa251bf58151ce,65af551af3ebe8cc90bc71b0,2024-01-23_06h57.14.475,bars,2023.2.3,Win32,60.24096386,657b66ea316d21385b68909f,,,,,,,,,,,1873.3126,1874.3109,,,1874.8104,1875.0601,,39,219,,,,,,,,,,,,,,,,bars/022.png,bars/mask007.png,,,,,,,,,,,,0,2,,,,,,,0,0,0,0,,,,,,,,,,,1874.311,1874.8103,1875.0601,1880.8577,space,5.7901,,1880.8577,56,19,1881.8564,1881.8565,1881.8653,,,,0,16,16,16,1,95,20,,,,,,,,
,,5e31e6491faa251bf58151ce,65af551af3ebe8cc90bc71b0,2024-01-23_06h57.14.475,bars,2023.2.3,Win32,60.24096386,657b66ea316d21385b68909f,,,,,,,,,,,1881.8655,1882.8558,,,1883.3555,1883.6054,,74,254,,,,,,,,,,,,,,,,bars/042.png,bars/mask003.png,,,,,,,,,,,,2,2,,,,,,,0,2,0,2,,,,,,,,,,,1882.8558,1883.3555,1883.6054,1888.2367,space,4.6202,,1888.2367,71,1,1889.2361,1889.2361,1889.2443,,,,0,17,17,17,1,145,75,,,,,,,,
,,5e31e6491faa251bf58151ce,65af551af3ebe8cc90bc71b0,2024-01-23_06h57.14.475,bars,2023.2.3,Win32,60.24096386,657b66ea316d21385b68909f,,,,,,,,,,,1889.2444,1890.2354,,,1890.7353,1890.9854,,164,-16,,,,,,,,,,,,,,,,bars/008.png,bars/mask007.png,,,,,,,,,,,,1,2,,,,,,,0,4,0,2,,,,,,,,,,,1890.2354,1890.7352,1890.9854,1893.7008,space,2.6995,,1893.7009,54,16,1894.6999,1894.6999,1894.709,,,,0,18,18,18,1,110,0,,,,,,,,
,,5e31e6491faa251bf58151ce,65af551af3ebe8cc90bc71b0,2024-01-23_06h57.14.475,bars,2023.2.3,Win32,60.24096386,657b66ea316d21385b68909f,,,,,,,,,,,1894.7092,1895.6992,,,1896.1993,1896.4487,,76,76,,,,,,,,,,,,,,,,bars/021.png,bars/mask005.png,,,,,,,,,,,,6,2,,,,,,,2,6,4,8,,,,,,,,,,,1895.6992,1896.1993,1896.4487,1899.5975,space,3.1332,,1899.5975,79,6,1900.5972,1900.5973,1900.6147,,,,0,19,19,19,1,155,70,,,,,,,,
,,5e31e6491faa251bf58151ce,65af551af3ebe8cc90bc71b0,2024-01-23_06h57.14.475,bars,2023.2.3,Win32,60.24096386,657b66ea316d21385b68909f,,,,,,,,,,,1900.6149,1901.6129,,,1902.1128,1902.3625,,58,58,,,,,,,,,,,,,,,,bars/048.png,bars/mask009.png,,,,,,,,,,,,0,1,,,,,,,0,4,0,3,,,,,,,,,,,1901.6129,1902.1128,1902.3625,1904.578,space,2.2055,,1904.578,8,63,1905.5775,1905.5775,1905.5878,,,,0,20,20,20,1,50,175,,,,,,,,
,,5e31e6491faa251bf58151ce,65af551af3ebe8cc90bc71b0,2024-01-23_06h57.14.475,bars,2023.2.3,Win32,60.24096386,657b66ea316d21385b68909f,,,,,,,,,,,1905.5879,1906.5767,,,1907.0766,1907.3264,,5,5,,,,,,,,,,,,,,,,bars/040.png,bars/mask006.png,,,,,,,,,,,,7,2,,,,,,,2,6,3,7,,,,,,,,,,,1906.5767,1907.0766,1907.3264,1908.9259,space,1.5812,,1908.9259,45,0,1909.9249,1909.9249,1909.9265,,,,0,21,21,21,1,140,5,,,,,,,,
,,5e31e6491faa251bf58151ce,65af551af3ebe8cc90bc71b0,2024-01-23_06h57.14.475,bars,2023.2.3,Win32,60.24096386,657b66ea316d21385b68909f,,,,,,,,,,,1909.9269,1910.9253,,,1911.4243,1911.6742,,38,38,,,,,,,,,,,,,,,,bars/007.png,bars/mask006.png,,,,,,,,,,,,4,2,,,,,,,0,8,0,9,,,,,,,,,,,1910.9254,1911.4243,1911.6742,1913.44,space,1.7596,,1913.4401,43,17,1914.4399,1914.4399,1914.441,,,,0,22,22,22,1,175,55,,,,,,,,
,,5e31e6491faa251bf58151ce,65af551af3ebe8cc90bc71b0,2024-01-23_06h57.14.475,bars,2023.2.3,Win32,60.24096386,657b66ea316d21385b68909f,,,,,,,,,,,1914.4413,1915.4388,,,1915.9386,1916.1883,,74,254,,,,,,,,,,,,,,,,bars/019.png,bars/mask008.png,,,,,,,,,,,,0,1,,,,,,,0,6,1,5,,,,,,,,,,,1915.4388,1915.9385,1916.1883,1920.5701,space,4.3686,,1920.5702,29,31,1921.5689,1921.5689,1921.5777,,,,0,23,23,23,1,45,105,,,,,,,,
,,5e31e6491faa251bf58151ce,65af551af3ebe8cc90bc71b0,2024-01-23_06h57.14.475,bars,2023.2.3,Win32,60.24096386,657b66ea316d21385b68909f,,,,,,,,,,,1921.5778,1922.5685,,,1923.0682,1923.3179,,7,187,,,,,,,,,,,,,,,,bars/008.png,bars/mask006.png,,,,,,,,,,,,7,2,,,,,,,2,8,2,9,,,,,,,,,,,1922.5685,1923.0681,1923.318,1925.6003,space,2.2767,,1925.6003,77,7,1926.5998,1926.5998,1926.61,,,,0,24,24,24,1,110,0,,,,,,,,
,,5e31e6491faa251bf58151ce,65af551af3ebe8cc90bc71b0,2024-01-23_06h57.14.475,bars,2023.2.3,Win32,60.24096386,657b66ea316d21385b68909f,,,,,,,,,,,1926.6103,1927.5991,,,1928.0997,1928.3494,,127,127,,,,,,,,,,,,,,,,bars/040.png,bars/mask003.png,,,,,,,,,,,,1,1,,,,,,,0,10,1,10,,,,,,,,,,,1927.5991,1928.0996,1928.3494,1931.315,space,2.9506,,1931.315,13,58,1932.3136,1932.3136,1932.3231,,,,0,25,25,25,1,140,5,,,,,,,,
,,5e31e6491faa251bf58151ce,65af551af3ebe8cc90bc71b0,2024-01-23_06h57.14.475,bars,2023.2.3,Win32,60.24096386,657b66ea316d21385b68909f,,,,,,,,,,,1932.3232,1933.3129,,,1933.8131,1934.0627,,66,66,,,,,,,,,,,,,,,,bars/035.png,bars/mask000.png,,,,,,,,,,,,7,2,,,,,,,2,8,3,9,,,,,,,,,,,1933.3129,1933.8131,1934.0627,1937.9276,space,3.8507,,1937.9276,71,6,1938.9268,1938.9268,1938.9351,,,,0,26,26,26,1,175,60,,,,,,,,
,,5e31e6491faa251bf58151ce,65af551af3ebe8cc90bc71b0,2024-01-23_06h57.14.475,bars,2023.2.3,Win32,60.24096386,657b66ea316d21385b68909f,,,,,,,,,,,1938.9353,1939.9261,,,1940.4266,1940.6756,,77,77,,,,,,,,,,,,,,,,bars/044.png,bars/mask000.png,,,,,,,,,,,,0,1,,,,,,,0,10,0,10,,,,,,,,,,,1939.9261,1940.4266,1940.6756,1943.1253,space,2.4382,,1943.1253,2,78,1944.1241,1944.1241,1944.139,,,,0,27,27,27,1,75,155,,,,,,,,
,,5e31e6491faa251bf58151ce,65af551af3ebe8cc90bc71b0,2024-01-23_06h57.14.475,bars,2023.2.3,Win32,60.24096386,657b66ea316d21385b68909f,,,,,,,,,,,1944.1391,1945.1399,,,1945.6401,1945.89,,111,111,,,,,,,,,,,,,,,,bars/041.png,bars/mask000.png,,,,,,,,,,,,1,2,,,,,,,0,10,0,10,,,,,,,,,,,1945.14,1945.6401,1945.8901,1949.3881,space,3.489,,1949.3882,89,26,1950.3872,1950.3872,1950.3958,,,,0,28,28,28,1,20,85,,,,,,,,
,,5e31e6491faa251bf58151ce,65af551af3ebe8cc90bc71b0,2024-01-23_06h57.14.475,bars,2023.2.3,Win32,60.24096386,657b66ea316d21385b68909f,,,,,,,,,,,1950.3959,1951.3866,,,1951.8872,1952.1364,,153,153,,,,,,,,,,,,,,,,bars/033.png,bars/mask007.png,,,,,,,,,,,,9,2,,,,,,,0,10,1,10,,,,,,,,,,,1951.3867,1951.8872,1952.1364,1953.7356,space,1.5847,,1953.7356,52,2,1954.7349,1954.7349,1954.7353,,,,0,29,29,29,1,25,155,,,,,,,,
,,5e31e6491faa251bf58151ce,65af551af3ebe8cc90bc71b0,2024-01-23_06h57.14.475,bars,2023.2.3,Win32,60.24096386,657b66ea316d21385b68909f,,,,,,,,,,,1954.7354,1955.7348,,,1956.2345,1956.4841,,165,165,,,,,,,,,,,,,,,,bars/049.png,bars/mask008.png,,,,,,,,,,,,2,1,,,,,,,2,8,2,6,,,,,,,,,,,1955.7348,1956.2345,1956.4842,1958.3997,space,1.9051,,1958.3997,5,50,1959.3995,1959.3995,1959.4098,,,,0,30,30,30,1,160,115,,,,,,,,
,,5e31e6491faa251bf58151ce,65af551af3ebe8cc90bc71b0,2024-01-23_06h57.14.475,bars,2023.2.3,Win32,60.24096386,657b66ea316d21385b68909f,,,,,,,,,,,1959.41,1960.3991,,,1960.8988,1961.1486,,61,-119,,,,,,,,,,,,,,,,bars/038.png,bars/mask001.png,,,,,,,,,,,,5,2,,,,,,,4,6,4,7,,,,,,,,,,,1960.3991,1960.8987,1961.1486,1965.5293,space,4.3701,,1965.5293,76,9,1966.5288,1966.5289,1966.5393,,,,0,31,31,31,1,165,70,,,,,,,,
,,5e31e6491faa251bf58151ce,65af551af3ebe8cc90bc71b0,2024-01-23_06h57.14.475,bars,2023.2.3,Win32,60.24096386,657b66ea316d21385b68909f,,,,,,,,,,,1966.5395,1967.5283,,,1968.0281,1968.278,,111,111,,,,,,,,,,,,,,,,bars/015.png,bars/mask008.png,,,,,,,,,,,,1,1,,,,,,,2,8,1,10,,,,,,,,,,,1967.5283,1968.028,1968.2781,1970.56,space,2.2746,,1970.56,1,49,1971.5595,1971.5595,1971.5686,,,,0,32,32,32,1,110,160,,,,,,,,
,,5e31e6491faa251bf58151ce,65af551af3ebe8cc90bc71b0,2024-01-23_06h57.14.475,bars,2023.2.3,Win32,60.24096386,657b66ea316d21385b68909f,,,,,,,,,,,1971.5688,1972.5591,,,1973.0588,1973.3087,,104,104,,,,,,,,,,,,,,,,bars/021.png,bars/mask001.png,,,,,,,,,,,,0,2,,,,,,,0,10,1,8,,,,,,,,,,,1972.5591,1973.0587,1973.3087,1976.2745,space,2.9488,,1976.2746,51,34,1977.2734,1977.2734,1977.2825,,,,0,33,33,33,1,155,70,,,,,,,,
,,5e31e6491faa251bf58151ce,65af551af3ebe8cc90bc71b0,2024-01-23_06h57.14.475,bars,2023.2.3,Win32,60.24096386,657b66ea316d21385b68909f,,,,,,,,,,,1977.2826,1978.2728,,,1978.7724,1979.0225,,45,45,,,,,,,,,,,,,,,,bars/017.png,bars/mask006.png,,,,,,,,,,,,9,2,,,,,,,2,8,2,9,,,,,,,,,,,1978.2729,1978.7724,1979.0226,1980.4716,space,1.4374,,1980.4716,80,0,1981.4713,1981.4713,1981.4864,,,,0,34,34,34,1,145,45,,,,,,,,
,,5e31e6491faa251bf58151ce,65af551af3ebe8cc90bc71b0,2024-01-23_06h57.14.475,bars,2023.2.3,Win32,60.24096386,657b66ea316d21385b68909f,,,,,,,,,,,1981.4866,1982.4871,,,1982.987,1983.2367,,154,154,,,,,,,,,,,,,,,,bars/036.png,bars/mask005.png,,,,,,,,,,,,3,1,,,,,,,4,6,4,7,,,,,,,,,,,1982.4871,1982.9869,1983.2368,1985.6523,space,2.404,,1985.6523,9,46,1986.6519,1986.6519,1986.6622,,,,0,35,35,35,1,145,20,,,,,,,,
,,5e31e6491faa251bf58151ce,65af551af3ebe8cc90bc71b0,2024-01-23_06h57.14.475,bars,2023.2.3,Win32,60.24096386,657b66ea316d21385b68909f,,,,,,,,,,,1986.6623,1987.6514,,,1988.1512,1988.4008,,34,214,,,,,,,,,,,,,,,,bars/007.png,bars/mask000.png,,,,,,,,,,,,1,2,,,,,,,6,4,7,2,,,,,,,,,,,1987.6514,1988.1512,1988.4008,1991.9323,space,3.5166,,1991.9324,39,21,1992.9321,1992.9321,1992.9505,,,,0,36,36,36,1,175,55,,,,,,,,
,,5e31e6491faa251bf58151ce,65af551af3ebe8cc90bc71b0,2024-01-23_06h57.14.475,bars,2023.2.3,Win32,60.24096386,657b66ea316d21385b68909f,,,,,,,,,,,1992.9506,1993.9482,,,1994.448,1994.6978,,97,97,,,,,,,,,,,,,,,,bars/037.png,bars/mask006.png,,,,,,,,,,,,4,2,,,,,,,4,6,5,6,,,,,,,,,,,1993.9482,1994.448,1994.6979,1997.4796,space,2.777,,1997.4796,53,8,1998.4789,1998.4789,1998.4895,,,,0,37,37,37,1,150,105,,,,,,,,
,,5e31e6491faa251bf58151ce,65af551af3ebe8cc90bc71b0,2024-01-23_06h57.14.475,bars,2023.2.3,Win32,60.24096386,657b66ea316d21385b68909f,,,,,,,,,,,1998.4896,1999.4784,,,1999.9788,2000.2281,,108,108,,,,,,,,,,,,,,,,bars/023.png,bars/mask007.png,,,,,,,,,,,,7,2,,,,,,,2,8,3,9,,,,,,,,,,,1999.4784,1999.9787,2000.2281,2003.1931,space,2.9557,,2003.1931,88,7,2004.1926,2004.1926,2004.2012,,,,0,38,38,38,1,20,115,,,,,,,,
,,5e31e6491faa251bf58151ce,65af551af3ebe8cc90bc71b0,2024-01-23_06h57.14.475,bars,2023.2.3,Win32,60.24096386,657b66ea316d21385b68909f,,,,,,,,,,,2004.2013,2005.192,,,2005.6919,2005.9423,,174,174,,,,,,,,,,,,,,,,bars/049.png,bars/mask006.png,,,,,,,,,,,,1,1,,,,,,,0,10,1,10,,,,,,,,,,,2005.192,2005.6919,2005.9423,2007.8907,space,1.9357,,2007.8907,14,59,2008.8907,2008.8908,2008.8941,,,,0,39,39,39,1,160,115,,,,,,,,
,,5e31e6491faa251bf58151ce,65af551af3ebe8cc90bc71b0,2024-01-23_06h57.14.475,bars,2023.2.3,Win32,60.24096386,657b66ea316d21385b68909f,,,,,,,,,,,2008.8949,2009.8897,,,2010.3896,2010.6398,,62,62,,,,,,,,,,,,,,,,bars/046.png,bars/mask008.png,,,,,,,,,,,,2,2,,,,,,,2,10,2,10,,,,,,,,,,,2009.8897,2010.3896,2010.6399,2013.338,space,2.6803,,2013.338,87,23,2014.3376,2014.3377,2014.3585,,,,0,40,40,40,1,155,85,,,,,,,,
,,5e31e6491faa251bf58151ce,65af551af3ebe8cc90bc71b0,2024-01-23_06h57.14.475,bars,2023.2.3,Win32,60.24096386,657b66ea316d21385b68909f,,,,,,,,,,,2014.3587,2015.3537,,,2015.8535,2016.1029,,106,106,,,,,,,,,,,,,,,,bars/041.png,bars/mask008.png,,,,,,,,,,,,2,2,,,,,,,4,8,3,6,,,,,,,,,,,2015.3537,2015.8534,2016.1029,2019.2522,space,3.1239,,2019.2524,86,21,2020.2517,2020.2518,2020.2734,,,,0,41,41,41,1,20,85,,,,,,,,
,,5e31e6491faa251bf58151ce,65af551af3ebe8cc90bc71b0,2024-01-23_06h57.14.475,bars,2023.2.3,Win32,60.24096386,657b66ea316d21385b68909f,,,,,,,,,,,2020.2737,2021.2673,,,2021.7669,2022.0167,,67,67,,,,,,,,,,,,,,,,bars/038.png,bars/mask006.png,,,,,,,,,,,,8,2,,,,,,,6,10,5,9,,,,,,,,,,,2021.2673,2021.7668,2022.0167,2024.0709,space,2.0489,,2024.071,82,3,2025.0655,2025.0656,2025.0675,,,,0,42,42,42,1,165,70,,,,,,,,
,,5e31e6491faa251bf58151ce,65af551af3ebe8cc90bc71b0,2024-01-23_06h57.14.475,bars,2023.2.3,Win32,60.24096386,657b66ea316d21385b68909f,,,,,,,,,,,2025.0678,2026.0644,,,2026.5642,2026.8139,,19,199,,,,,,,,,,,,,,,,bars/023.png,bars/mask005.png,,,,,,,,,,,,5,1,,,,,,,4,10,5,9,,,,,,,,,,,2026.0644,2026.5642,2026.8139,2030.3123,space,3.4831,,2030.3123,1,84,2031.3118,2031.3119,2031.3223,,,,0,43,43,43,1,20,115,,,,,,,,
,,5e31e6491faa251bf58151ce,65af551af3ebe8cc90bc71b0,2024-01-23_06h57.14.475,bars,2023.2.3,Win32,60.24096386,657b66ea316d21385b68909f,,,,,,,,,,,2031.3224,2032.3121,,,2032.8109,2033.0607,,78,78,,,,,,,,,,,,,,,,bars/044.png,bars/mask001.png,,,,,,,,,,,,3,1,,,,,,,2,10,3,10,,,,,,,,,,,2032.3122,2032.8109,2033.0607,2035.1106,space,2.02,,2035.1108,3,77,2036.109,2036.109,2036.1171,,,,0,44,44,44,1,75,155,,,,,,,,
,,5e31e6491faa251bf58151ce,65af551af3ebe8cc90bc71b0,2024-01-23_06h57.14.475,bars,2023.2.3,Win32,60.24096386,657b66ea316d21385b68909f,,,,,,,,,,,2036.1172,2037.1088,,,2037.6087,2037.8584,,77,77,,,,,,,,,,,,,,,,bars/047.png,bars/mask008.png,,,,,,,,,,,,8,2,,,,,,,0,10,0,10,,,,,,,,,,,2037.1088,2037.6087,2037.8585,2039.7917,space,1.92,,2039.7918,62,7,2040.7903,2040.7903,2040.7933,,,,0,45,45,45,1,15,70,,,,,,,,
,,5e31e6491faa251bf58151ce,65af551af3ebe8cc90bc71b0,2024-01-23_06h57.14.475,bars,2023.2.3,Win32,60.24096386,657b66ea316d21385b68909f,,,,,,,,,,,2040.7934,2041.7896,,,2042.2901,2042.5392,,170,-10,,,,,,,,,,,,,,,,bars/041.png,bars/mask009.png,,,,,,,,,,,,0,1,,,,,,,0,10,1,10,,,,,,,,,,,2041.7896,2042.2899,2042.5392,2051.4344,space,8.8651,,2051.4344,30,85,2052.4351,2052.4353,2052.4576,,,,0,46,46,46,1,20,85,,,,,,,,
,,5e31e6491faa251bf58151ce,65af551af3ebe8cc90bc71b0,2024-01-23_06h57.14.475,bars,2023.2.3,Win32,60.24096386,657b66ea316d21385b68909f,,,,,,,,,,,2052.4578,2053.4501,,,2053.9501,2054.2007,,69,69,,,,,,,,,,,,,,,,bars/019.png,bars/mask002.png,,,,,,,,,,,,1,1,,,,,,,0,10,3,10,,,,,,,,,,,2053.4502,2053.95,2054.2008,2064.3624,space,10.1318,,2064.3625,24,36,2065.3614,2065.3616,2065.3869,,,,0,47,47,47,1,45,105,,,,,,,,
,,5e31e6491faa251bf58151ce,65af551af3ebe8cc90bc71b0,2024-01-23_06h57.14.475,bars,2023.2.3,Win32,60.24096386,657b66ea316d21385b68909f,,,,,,,,,,,2065.3872,2066.3767,,,2066.8766,2067.1265,,55,55,,,,,,,,,,,,,,,,bars/007.png,bars/mask007.png,,,,,,,,,,,,10,2,,,,,,,0,10,0,10,,,,,,,,,,,2066.3768,2066.8766,2067.1265,2069.0758,space,1.941,,2069.076,60,0,2070.0746,2070.0746,2070.0837,,,,0,48,48,48,1,175,55,,,,,,,,
,,5e31e6491faa251bf58151ce,65af551af3ebe8cc90bc71b0,2024-01-23_06h57.14.475,bars,2023.2.3,Win32,60.24096386,657b66ea316d21385b68909f,,,,,,,,,,,2070.0838,2071.0748,,,2071.5741,2071.8238,,160,160,,,,,,,,,,,,,,,,bars/030.png,bars/mask005.png,,,,,,,,,,,,0,1,,,,,,,2,8,1,8,,,,,,,,,,,2071.0749,2071.5741,2071.8239,2074.3894,space,2.5385,,2074.3896,20,85,2075.3888,2075.3889,2075.3927,,,,0,49,49,49,1,140,65,,,,,,,,
,,5e31e6491faa251bf58151ce,65af551af3ebe8cc90bc71b0,2024-01-23_06h57.14.475,bars,2023.2.3,Win32,60.24096386,657b66ea316d21385b68909f,,,,,,,,,,,,,,,,,,,,,,,,,,,,,,,,,,,,,,,,,,,,,,,,,,,,,,,,,,,,,,,,,,,,,,,,,,,,,,,,,,,,,,,,,,,,,2075.393,2135.3968,0,3,3,1,1,sequence_tables/blk012.csv
,,5e31e6491faa251bf58151ce,65af551af3ebe8cc90bc71b0,2024-01-23_06h57.14.475,bars,2023.2.3,Win32,60.24096386,657b66ea316d21385b68909f,,,,,,,,,,,2140.448,2141.4375,,,2141.9372,2142.187,,104,104,,,,,,,,,,,,,,,,bars/019.png,bars/mask001.png,,,,,,,,,,,,7,2,,,,,,,7,6,8,7,,,,,,2135.4148,2140.4379,space,4.9963,,2141.4376,2141.9372,2142.1871,2143.9748,space,1.7654,,2143.9749,59,1,2144.9698,2144.9699,2144.9742,,,,0,0,0,0,1,45,105,,,,,,,,
,,5e31e6491faa251bf58151ce,65af551af3ebe8cc90bc71b0,2024-01-23_06h57.14.475,bars,2023.2.3,Win32,60.24096386,657b66ea316d21385b68909f,,,,,,,,,,,2144.9748,2145.9695,,,2146.468,2146.7189,,23,203,,,,,,,,,,,,,,,,bars/023.png,bars/mask009.png,,,,,,,,,,,,6,1,,,,,,,5,4,7,3,,,,,,,,,,,2145.9697,2146.468,2146.719,2149.7498,space,3.0183,,2149.75,3,88,2150.7493,2150.7493,2150.7638,,,,0,1,1,1,1,20,115,,,,,,,,
,,5e31e6491faa251bf58151ce,65af551af3ebe8cc90bc71b0,2024-01-23_06h57.14.475,bars,2023.2.3,Win32,60.24096386,657b66ea316d21385b68909f,,,,,,,,,,,2150.764,2151.7662,,,2152.2654,2152.5157,,154,154,,,,,,,,,,,,,,,,bars/021.png,bars/mask000.png,,,,,,,,,,,,2,1,,,,,,,3,2,2,2,,,,,,,,,,,2151.7664,2152.2653,2152.5158,2154.9985,space,2.4678,,2154.9986,1,84,2155.9967,2155.9967,2156.0109,,,,0,2,2,2,1,155,70,,,,,,,,
,,5e31e6491faa251bf58151ce,65af551af3ebe8cc90bc71b0,2024-01-23_06h57.14.475,bars,2023.2.3,Win32,60.24096386,657b66ea316d21385b68909f,,,,,,,,,,,2156.0111,2157.0125,,,2157.5125,2157.7624,,168,168,,,,,,,,,,,,,,,,bars/044.png,bars/mask009.png,,,,,,,,,,,,0,2,,,,,,,1,0,0,0,,,,,,,,,,,2157.0125,2157.5125,2157.7624,2159.6613,space,1.8902,,2159.6613,87,13,2160.6606,2160.6607,2160.6647,,,,0,3,3,3,1,75,155,,,,,,,,
,,5e31e6491faa251bf58151ce,65af551af3ebe8cc90bc71b0,2024-01-23_06h57.14.475,bars,2023.2.3,Win32,60.24096386,657b66ea316d21385b68909f,,,,,,,,,,,2160.6649,2161.6605,,,2162.16,2162.4098,,65,65,,,,,,,,,,,,,,,,bars/046.png,bars/mask000.png,,,,,,,,,,,,0,2,,,,,,,3,0,4,0,,,,,,,,,,,2161.6605,2162.1599,2162.4099,2164.8753,space,2.4494,,2164.8755,90,20,2165.8747,2165.8748,2165.8829,,,,0,4,4,4,1,155,85,,,,,,,,
,,5e31e6491faa251bf58151ce,65af551af3ebe8cc90bc71b0,2024-01-23_06h57.14.475,bars,2023.2.3,Win32,60.24096386,657b66ea316d21385b68909f,,,,,,,,,,,2165.883,2166.8752,,,2167.3739,2167.6248,,13,193,,,,,,,,,,,,,,,,bars/036.png,bars/mask006.png,,,,,,,,,,,,1,2,,,,,,,1,2,2,1,,,,,,,,,,,2166.8753,2167.3739,2167.625,2172.2557,space,4.6043,,2172.2559,48,7,2173.2543,2173.2543,2173.2638,,,,0,5,5,5,1,145,20,,,,,,,,
,,5e31e6491faa251bf58151ce,65af551af3ebe8cc90bc71b0,2024-01-23_06h57.14.475,bars,2023.2.3,Win32,60.24096386,657b66ea316d21385b68909f,,,,,,,,,,,2173.2639,2174.2536,,,2174.7534,2175.0039,,73,253,,,,,,,,,,,,,,,,bars/038.png,bars/mask008.png,,,,,,,,,,,,5,2,,,,,,,0,4,0,5,,,,,,,,,,,2174.2536,2174.7533,2175.0041,2178.1683,space,3.1461,,2178.1683,88,3,2179.1676,2179.1676,2179.176,,,,0,6,6,6,1,165,70,,,,,,,,
,,5e31e6491faa251bf58151ce,65af551af3ebe8cc90bc71b0,2024-01-23_06h57.14.475,bars,2023.2.3,Win32,60.24096386,657b66ea316d21385b68909f,,,,,,,,,,,2179.1761,2180.1679,,,2180.667,2180.9175,,71,71,,,,,,,,,,,,,,,,bars/041.png,bars/mask006.png,,,,,,,,,,,,3,2,,,,,,,2,6,1,5,,,,,,,,,,,2180.168,2180.6669,2180.9176,2183.2334,space,2.2982,,2183.2335,51,14,2184.2322,2184.2323,2184.2414,,,,0,7,7,7,1,20,85,,,,,,,,
,,5e31e6491faa251bf58151ce,65af551af3ebe8cc90bc71b0,2024-01-23_06h57.14.475,bars,2023.2.3,Win32,60.24096386,657b66ea316d21385b68909f,,,,,,,,,,,2184.2416,2185.2314,,,2185.7309,2185.9817,,108,108,,,,,,,,,,,,,,,,bars/041.png,bars/mask006.png,,,,,,,,,,,,0,2,,,,,,,4,4,3,2,,,,,,,,,,,2185.2314,2185.7308,2185.9818,2188.6294,space,2.6257,,2188.6295,88,23,2189.629,2189.629,2189.6376,,,,0,8,8,8,1,20,85,,,,,,,,
,,5e31e6491faa251bf58151ce,65af551af3ebe8cc90bc71b0,2024-01-23_06h57.14.475,bars,2023.2.3,Win32,60.24096386,657b66ea316d21385b68909f,,,,,,,,,,,2189.6377,2190.6283,,,2191.1282,2191.3779,,161,161,,,,,,,,,,,,,,,,bars/043.png,bars/mask006.png,,,,,,,,,,,,0,2,,,,,,,2,2,2,1,,,,,,,,,,,2190.6283,2191.1281,2191.3779,2195.1926,space,3.7994,,2195.1926,49,31,2196.1921,2196.1921,2196.2042,,,,0,9,9,9,1,30,130,,,,,,,,
,,5e31e6491faa251bf58151ce,65af551af3ebe8cc90bc71b0,2024-01-23_06h57.14.475,bars,2023.2.3,Win32,60.24096386,657b66ea316d21385b68909f,,,,,,,,,,,2196.2045,2197.2082,,,2197.7083,2197.9581,,104,104,,,,,,,,,,,,,,,,bars/006.png,bars/mask006.png,,,,,,,,,,,,3,2,,,,,,,0,4,0,3,,,,,,,,,,,2197.2082,2197.7083,2197.9581,2199.8238,space,1.8498,,2199.824,69,4,2200.8231,2200.8231,2200.8245,,,,0,10,10,10,1,35,100,,,,,,,,
