init_variables.started,init_variables.stopped,participant,session,date,expName,psychopyVersion,OS,frameRate,study_id,instruction_exp.started,instruction_exp.stopped,key_resp_8.keys,key_resp_8.rt,key_resp_8.duration,instruction_single.started,instruction_single.stopped,key_resp_2.keys,key_resp_2.rt,key_resp_2.duration,interval.started,interval.stopped,cue_single.started,cue_single.stopped,mask.started,mask.stopped,ori_response_single.started,res_ori,res,ori_response_single.stopped,key_resp_single.keys,key_resp_single.rt,key_resp_single.duration,disp_single.started,disp_single.stopped,key_resp.keys,key_resp.rt,key_resp.duration,single.thisRepN,single.thisTrialN,single.thisN,single.thisIndex,single.ran,ori,path,mask_path,instruction_bandit.started,instruction_bandit.stopped,key_resp_6.keys,key_resp_6.rt,key_resp_6.duration,cue_bandit.started,cue_bandit.stopped,bandit_res.keys,bandit_res.rt,bandit_res.duration,outcome_bandit.started,rew,action,outcome_bandit.stopped,bandit.thisRepN,bandit.thisTrialN,bandit.thisN,bandit.thisIndex,bandit.ran,actual_rew1,actual_rew2,rew1,rew2,instruction_task.started,instruction_task.stopped,key_resp_7.keys,key_resp_7.rt,key_resp_7.duration,wait_ready.started,wait_ready.stopped,key_resp_3.keys,key_resp_3.rt,key_resp_3.duration,cue.started,cue.stopped,ori_response.started,ori_response.stopped,key_resp_5.keys,key_resp_5.rt,key_resp_5.duration,outcome.started,diff1,diff2,outcome.stopped,disp_outcome_practice.started,disp_outcome_practice.stopped,key_resp_4.keys,key_resp_4.rt,key_resp_4.duration,trials.thisRepN,trials.thisTrialN,trials.thisN,trials.thisIndex,trials.ran,ori1,ori2,break_blk.started,break_blk.stopped,block.thisRepN,block.thisTrialN,block.thisN,block.thisIndex,block.ran,condition_file
0.0002,0.0003,615ecf8f907bfe51f5a09f00,65af5632b940720aef4cd632,2024-01-23_08h06.42.939,bars,2023.2.3,Win32,60.24096386,657b66ea316d21385b68909f,,,,,,,,,,,,,,,,,,,,,,,,,,,,,,,,,,,,,,,,,,,,,,,,,,,,,,,,,,,,,,,,,,,,,,,,,,,,,,,,,,,,,,,,,,,,,,,,,,,,
,,615ecf8f907bfe51f5a09f00,65af5632b940720aef4cd632,2024-01-23_08h06.42.939,bars,2023.2.3,Win32,60.24096386,657b66ea316d21385b68909f,0.0004,8.7033,y,8.6843,,,,,,,,,,,,,,,,,,,,,,,,,,,,,,,,,,,,,,,,,,,,,,,,,,,,,,,,,,,,,,,,,,,,,,,,,,,,,,,,,,,,,,,,,,,,,,,,
,,615ecf8f907bfe51f5a09f00,65af5632b940720aef4cd632,2024-01-23_08h06.42.939,bars,2023.2.3,Win32,60.24096386,657b66ea316d21385b68909f,,,,,,8.7037,35.3699,space,26.6396,,,,,,,,,,,,,,,,,,,,,,,,,,,,,,,,,,,,,,,,,,,,,,,,,,,,,,,,,,,,,,,,,,,,,,,,,,,,,,,,,,,,,,,,,,,
,,615ecf8f907bfe51f5a09f00,65af5632b940720aef4cd632,2024-01-23_08h06.42.939,bars,2023.2.3,Win32,60.24096386,657b66ea316d21385b68909f,,,,,,,,,,,35.3741,36.3702,36.3706,36.8757,36.876,37.1201,37.1205,98,98,44.4035,space,7.2299,,44.4038,46.7026,space,2.2556,,0,0,0,0,1,150,bars/single000.png,bars/mask006.png,,,,,,,,,,,,,,,,,,,,,,,,,,,,,,,,,,,,,,,,,,,,,,,,,,,,,,,,,,,,,,,,
,,615ecf8f907bfe51f5a09f00,65af5632b940720aef4cd632,2024-01-23_08h06.42.939,bars,2023.2.3,Win32,60.24096386,657b66ea316d21385b68909f,,,,,,,,,,,46.7036,47.7021,47.7023,48.2019,48.2019,48.4522,48.4523,111,111,50.5853,space,2.1136,,50.5853,59.5192,space,8.9155,,0,1,1,9,1,20,bars/single009.png,bars/mask006.png,,,,,,,,,,,,,,,,,,,,,,,,,,,,,,,,,,,,,,,,,,,,,,,,,,,,,,,,,,,,,,,,
,,615ecf8f907bfe51f5a09f00,65af5632b940720aef4cd632,2024-01-23_08h06.42.939,bars,2023.2.3,Win32,60.24096386,657b66ea316d21385b68909f,,,,,,,,,,,59.5402,60.5358,60.536,61.0358,61.0361,61.2854,61.2855,179,179,75.0691,space,13.7515,,75.0692,87.1363,space,12.0405,,0,2,2,3,1,20,bars/single003.png,bars/mask005.png,,,,,,,,,,,,,,,,,,,,,,,,,,,,,,,,,,,,,,,,,,,,,,,,,,,,,,,,,,,,,,,,
,,615ecf8f907bfe51f5a09f00,65af5632b940720aef4cd632,2024-01-23_08h06.42.939,bars,2023.2.3,Win32,60.24096386,657b66ea316d21385b68909f,,,,,,,,,,,87.1569,88.1526,88.1527,88.6527,88.6528,88.9028,88.9028,63,63,91.8526,space,2.9264,,91.8527,95.5196,space,3.6411,,0,3,3,5,1,55,bars/single005.png,bars/mask008.png,,,,,,,,,,,,,,,,,,,,,,,,,,,,,,,,,,,,,,,,,,,,,,,,,,,,,,,,,,,,,,,,
,,615ecf8f907bfe51f5a09f00,65af5632b940720aef4cd632,2024-01-23_08h06.42.939,bars,2023.2.3,Win32,60.24096386,657b66ea316d21385b68909f,,,,,,,,,,,95.5403,96.5358,96.5361,97.036,97.036,97.2861,97.2862,57,57,102.9533,space,5.64,,102.9534,105.4863,space,2.5091,,0,4,4,2,1,145,bars/single002.png,bars/mask003.png,,,,,,,,,,,,,,,,,,,,,,,,,,,,,,,,,,,,,,,,,,,,,,,,,,,,,,,,,,,,,,,,
,,615ecf8f907bfe51f5a09f00,65af5632b940720aef4cd632,2024-01-23_08h06.42.939,bars,2023.2.3,Win32,60.24096386,657b66ea316d21385b68909f,,,,,,,,,,,105.5085,106.5023,106.5024,107.0027,107.0028,107.2527,107.2528,176,-4,113.5698,space,6.285,,113.57,121.1257,space,7.5278,,0,5,5,8,1,160,bars/single008.png,bars/mask004.png,,,,,,,,,,,,,,,,,,,,,,,,,,,,,,,,,,,,,,,,,,,,,,,,,,,,,,,,,,,,,,,,
,,615ecf8f907bfe51f5a09f00,65af5632b940720aef4cd632,2024-01-23_08h06.42.939,bars,2023.2.3,Win32,60.24096386,657b66ea316d21385b68909f,,,,,,,,,,,121.1402,122.136,122.1361,122.6363,122.6364,122.8861,122.8861,97,97,128.6697,space,5.7519,,128.6699,130.9864,space,2.2797,,0,6,6,6,1,175,bars/single006.png,bars/mask005.png,,,,,,,,,,,,,,,,,,,,,,,,,,,,,,,,,,,,,,,,,,,,,,,,,,,,,,,,,,,,,,,,
,,615ecf8f907bfe51f5a09f00,65af5632b940720aef4cd632,2024-01-23_08h06.42.939,bars,2023.2.3,Win32,60.24096386,657b66ea316d21385b68909f,,,,,,,,,,,130.9875,131.9861,131.9862,132.486,132.4861,132.7375,132.7377,0,180,137.2696,space,4.5097,,137.2697,141.1362,space,3.8295,,0,7,7,1,1,20,bars/single001.png,bars/mask006.png,,,,,,,,,,,,,,,,,,,,,,,,,,,,,,,,,,,,,,,,,,,,,,,,,,,,,,,,,,,,,,,,
,,615ecf8f907bfe51f5a09f00,65af5632b940720aef4cd632,2024-01-23_08h06.42.939,bars,2023.2.3,Win32,60.24096386,657b66ea316d21385b68909f,,,,,,,,,,,141.1562,142.1526,142.1529,142.6526,142.6528,142.9024,142.9025,130,130,148.5697,space,5.6352,,148.5697,154.0696,space,5.4631,,0,8,8,4,1,95,bars/single004.png,bars/mask004.png,,,,,,,,,,,,,,,,,,,,,,,,,,,,,,,,,,,,,,,,,,,,,,,,,,,,,,,,,,,,,,,,
,,615ecf8f907bfe51f5a09f00,65af5632b940720aef4cd632,2024-01-23_08h06.42.939,bars,2023.2.3,Win32,60.24096386,657b66ea316d21385b68909f,,,,,,,,,,,154.0896,155.0859,155.086,155.5863,155.5864,155.8362,155.8364,91,91,159.5364,space,3.6738,,159.5365,161.7863,space,2.2138,,0,9,9,7,1,45,bars/single007.png,bars/mask009.png,,,,,,,,,,,,,,,,,,,,,,,,,,,,,,,,,,,,,,,,,,,,,,,,,,,,,,,,,,,,,,,,
,,615ecf8f907bfe51f5a09f00,65af5632b940720aef4cd632,2024-01-23_08h06.42.939,bars,2023.2.3,Win32,60.24096386,657b66ea316d21385b68909f,,,,,,,,,,,,,,,,,,,,,,,,,,,,,,,,,,,,,161.8068,170.938,space,9.1106,,,,,,,,,,,,,,,,,,,,,,,,,,,,,,,,,,,,,,,,,,,,,,,,,,,,,,,,,,,,
,,615ecf8f907bfe51f5a09f00,65af5632b940720aef4cd632,2024-01-23_08h06.42.939,bars,2023.2.3,Win32,60.24096386,657b66ea316d21385b68909f,,,,,,,,,,,,,,,,,,,,,,,,,,,,,,,,,,,,,,,,,,170.9595,173.0366,left,2.0659,,173.0369,9,1,174.0359,0,0,0,0,1,9,1,9,2,,,,,,,,,,,,,,,,,,,,,,,,,,,,,,,,,,,,,,,,,
,,615ecf8f907bfe51f5a09f00,65af5632b940720aef4cd632,2024-01-23_08h06.42.939,bars,2023.2.3,Win32,60.24096386,657b66ea316d21385b68909f,,,,,,,,,,,,,,,,,,,,,,,,,,,,,,,,,,,,,,,,,,174.0368,175.8359,left,1.7855,,175.836,10,1,176.8357,0,1,1,1,1,10,0,10,1,,,,,,,,,,,,,,,,,,,,,,,,,,,,,,,,,,,,,,,,,
,,615ecf8f907bfe51f5a09f00,65af5632b940720aef4cd632,2024-01-23_08h06.42.939,bars,2023.2.3,Win32,60.24096386,657b66ea316d21385b68909f,,,,,,,,,,,,,,,,,,,,,,,,,,,,,,,,,,,,,,,,,,176.8363,177.636,left,0.7818,,177.6362,10,1,178.6358,0,2,2,2,1,10,2,10,2,,,,,,,,,,,,,,,,,,,,,,,,,,,,,,,,,,,,,,,,,
,,615ecf8f907bfe51f5a09f00,65af5632b940720aef4cd632,2024-01-23_08h06.42.939,bars,2023.2.3,Win32,60.24096386,657b66ea316d21385b68909f,,,,,,,,,,,,,,,,,,,,,,,,,,,,,,,,,,,,,,,,,,178.6363,179.336,left,0.6817,,179.336,7,1,180.3357,0,3,3,3,1,8,4,7,3,,,,,,,,,,,,,,,,,,,,,,,,,,,,,,,,,,,,,,,,,
,,615ecf8f907bfe51f5a09f00,65af5632b940720aef4cd632,2024-01-23_08h06.42.939,bars,2023.2.3,Win32,60.24096386,657b66ea316d21385b68909f,,,,,,,,,,,,,,,,,,,,,,,,,,,,,,,,,,,,,,,,,,180.3363,180.6692,left,0.3243,,180.6693,5,1,181.6691,0,4,4,4,1,6,2,5,1,,,,,,,,,,,,,,,,,,,,,,,,,,,,,,,,,,,,,,,,,
,,615ecf8f907bfe51f5a09f00,65af5632b940720aef4cd632,2024-01-23_08h06.42.939,bars,2023.2.3,Win32,60.24096386,657b66ea316d21385b68909f,,,,,,,,,,,,,,,,,,,,,,,,,,,,,,,,,,,,,,,,,,181.6696,182.4527,right,0.7755,,182.4527,4,2,183.4523,0,5,5,5,1,4,4,4,4,,,,,,,,,,,,,,,,,,,,,,,,,,,,,,,,,,,,,,,,,
,,615ecf8f907bfe51f5a09f00,65af5632b940720aef4cd632,2024-01-23_08h06.42.939,bars,2023.2.3,Win32,60.24096386,657b66ea316d21385b68909f,,,,,,,,,,,,,,,,,,,,,,,,,,,,,,,,,,,,,,,,,,183.4529,185.6026,left,2.1359,,185.6026,1,1,186.6021,0,6,6,6,1,2,2,1,2,,,,,,,,,,,,,,,,,,,,,,,,,,,,,,,,,,,,,,,,,
,,615ecf8f907bfe51f5a09f00,65af5632b940720aef4cd632,2024-01-23_08h06.42.939,bars,2023.2.3,Win32,60.24096386,657b66ea316d21385b68909f,,,,,,,,,,,,,,,,,,,,,,,,,,,,,,,,,,,,,,,,,,186.6024,186.9859,left,0.3709,,186.9859,0,1,187.9858,0,7,7,7,1,0,0,0,1,,,,,,,,,,,,,,,,,,,,,,,,,,,,,,,,,,,,,,,,,
,,615ecf8f907bfe51f5a09f00,65af5632b940720aef4cd632,2024-01-23_08h06.42.939,bars,2023.2.3,Win32,60.24096386,657b66ea316d21385b68909f,,,,,,,,,,,,,,,,,,,,,,,,,,,,,,,,,,,,,,,,,,187.9864,188.4858,left,0.4829,,188.4859,1,1,189.4858,0,8,8,8,1,0,2,1,0,,,,,,,,,,,,,,,,,,,,,,,,,,,,,,,,,,,,,,,,,
,,615ecf8f907bfe51f5a09f00,65af5632b940720aef4cd632,2024-01-23_08h06.42.939,bars,2023.2.3,Win32,60.24096386,657b66ea316d21385b68909f,,,,,,,,,,,,,,,,,,,,,,,,,,,,,,,,,,,,,,,,,,189.4863,189.9193,left,0.415,,189.9194,2,1,190.9191,0,9,9,9,1,2,4,2,3,,,,,,,,,,,,,,,,,,,,,,,,,,,,,,,,,,,,,,,,,
,,615ecf8f907bfe51f5a09f00,65af5632b940720aef4cd632,2024-01-23_08h06.42.939,bars,2023.2.3,Win32,60.24096386,657b66ea316d21385b68909f,,,,,,,,,,,,,,,,,,,,,,,,,,,,,,,,,,,,,,,,,,190.9196,191.2526,right,0.3184,,191.2526,3,2,192.2524,0,10,10,10,1,0,2,0,3,,,,,,,,,,,,,,,,,,,,,,,,,,,,,,,,,,,,,,,,,
,,615ecf8f907bfe51f5a09f00,65af5632b940720aef4cd632,2024-01-23_08h06.42.939,bars,2023.2.3,Win32,60.24096386,657b66ea316d21385b68909f,,,,,,,,,,,,,,,,,,,,,,,,,,,,,,,,,,,,,,,,,,192.2531,192.6525,right,0.392,,192.6526,3,2,193.6524,0,11,11,11,1,0,4,0,3,,,,,,,,,,,,,,,,,,,,,,,,,,,,,,,,,,,,,,,,,
,,615ecf8f907bfe51f5a09f00,65af5632b940720aef4cd632,2024-01-23_08h06.42.939,bars,2023.2.3,Win32,60.24096386,657b66ea316d21385b68909f,,,,,,,,,,,,,,,,,,,,,,,,,,,,,,,,,,,,,,,,,,193.653,194.0366,right,0.3761,,194.0367,6,2,195.0357,0,12,12,12,1,2,6,1,6,,,,,,,,,,,,,,,,,,,,,,,,,,,,,,,,,,,,,,,,,
,,615ecf8f907bfe51f5a09f00,65af5632b940720aef4cd632,2024-01-23_08h06.42.939,bars,2023.2.3,Win32,60.24096386,657b66ea316d21385b68909f,,,,,,,,,,,,,,,,,,,,,,,,,,,,,,,,,,,,,,,,,,195.0362,195.3526,right,0.3012,,195.3526,3,2,196.3524,0,13,13,13,1,0,4,1,3,,,,,,,,,,,,,,,,,,,,,,,,,,,,,,,,,,,,,,,,,
,,615ecf8f907bfe51f5a09f00,65af5632b940720aef4cd632,2024-01-23_08h06.42.939,bars,2023.2.3,Win32,60.24096386,657b66ea316d21385b68909f,,,,,,,,,,,,,,,,,,,,,,,,,,,,,,,,,,,,,,,,,,196.3529,196.6359,right,0.2649,,196.6359,7,2,197.6358,0,14,14,14,1,2,6,2,7,,,,,,,,,,,,,,,,,,,,,,,,,,,,,,,,,,,,,,,,,
,,615ecf8f907bfe51f5a09f00,65af5632b940720aef4cd632,2024-01-23_08h06.42.939,bars,2023.2.3,Win32,60.24096386,657b66ea316d21385b68909f,,,,,,,,,,,,,,,,,,,,,,,,,,,,,,,,,,,,,,,,,,197.6363,198.086,left,0.4403,,198.086,3,1,199.0857,0,15,15,15,1,4,8,3,9,,,,,,,,,,,,,,,,,,,,,,,,,,,,,,,,,,,,,,,,,
,,615ecf8f907bfe51f5a09f00,65af5632b940720aef4cd632,2024-01-23_08h06.42.939,bars,2023.2.3,Win32,60.24096386,657b66ea316d21385b68909f,,,,,,,,,,,,,,,,,,,,,,,,,,,,,,,,,,,,,,,,,,199.0863,199.486,left,0.3834,,199.486,7,1,200.4858,0,16,16,16,1,6,6,7,7,,,,,,,,,,,,,,,,,,,,,,,,,,,,,,,,,,,,,,,,,
,,615ecf8f907bfe51f5a09f00,65af5632b940720aef4cd632,2024-01-23_08h06.42.939,bars,2023.2.3,Win32,60.24096386,657b66ea316d21385b68909f,,,,,,,,,,,,,,,,,,,,,,,,,,,,,,,,,,,,,,,,,,200.4863,201.7856,left,1.2802,,201.7856,9,1,202.7857,0,17,17,17,1,8,4,9,5,,,,,,,,,,,,,,,,,,,,,,,,,,,,,,,,,,,,,,,,,
,,615ecf8f907bfe51f5a09f00,65af5632b940720aef4cd632,2024-01-23_08h06.42.939,bars,2023.2.3,Win32,60.24096386,657b66ea316d21385b68909f,,,,,,,,,,,,,,,,,,,,,,,,,,,,,,,,,,,,,,,,,,202.7863,203.336,left,0.5384,,203.336,5,1,204.3357,0,18,18,18,1,6,2,5,1,,,,,,,,,,,,,,,,,,,,,,,,,,,,,,,,,,,,,,,,,
,,615ecf8f907bfe51f5a09f00,65af5632b940720aef4cd632,2024-01-23_08h06.42.939,bars,2023.2.3,Win32,60.24096386,657b66ea316d21385b68909f,,,,,,,,,,,,,,,,,,,,,,,,,,,,,,,,,,,,,,,,,,204.3363,204.5692,left,0.2205,,204.5692,7,1,205.5691,0,19,19,19,1,8,0,7,0,,,,,,,,,,,,,,,,,,,,,,,,,,,,,,,,,,,,,,,,,
,,615ecf8f907bfe51f5a09f00,65af5632b940720aef4cd632,2024-01-23_08h06.42.939,bars,2023.2.3,Win32,60.24096386,657b66ea316d21385b68909f,,,,,,,,,,,,,,,,,,,,,,,,,,,,,,,,,,,,,,,,,,,,,,,,,,,,,,,,,,,,205.5703,215.087,space,9.4979,,,,,,,,,,,,,,,,,,,,,,,,,,,,,,,,,,,,,
,,615ecf8f907bfe51f5a09f00,65af5632b940720aef4cd632,2024-01-23_08h06.42.939,bars,2023.2.3,Win32,60.24096386,657b66ea316d21385b68909f,,,,,,,,,,,216.0781,217.0694,,,217.5702,217.8193,,64,64,,,,,,,,,,,,,,,,bars/037.png,bars/mask003.png,,,,,,,,,,,,0,2,,,,,,,8,8,9,9,,,,,,215.1088,216.0704,space,0.9517,,217.0704,217.57,217.82,223.7771,space,5.9341,,223.7776,86,41,224.7694,224.7699,229.3703,space,4.5771,,0,0,0,0,1,150,105,,,,,,,,
,,615ecf8f907bfe51f5a09f00,65af5632b940720aef4cd632,2024-01-23_08h06.42.939,bars,2023.2.3,Win32,60.24096386,657b66ea316d21385b68909f,,,,,,,,,,,229.3843,230.3858,,,230.8856,231.1358,,15,15,,,,,,,,,,,,,,,,bars/011.png,bars/mask007.png,,,,,,,,,,,,0,1,,,,,,,10,6,8,6,,,,,,,,,,,230.3858,230.8856,231.1358,235.8527,space,4.7083,,235.853,35,70,236.8524,236.8525,239.1026,space,2.2317,,0,1,1,1,1,160,85,,,,,,,,
,,615ecf8f907bfe51f5a09f00,65af5632b940720aef4cd632,2024-01-23_08h06.42.939,bars,2023.2.3,Win32,60.24096386,657b66ea316d21385b68909f,,,,,,,,,,,239.1032,240.1025,,,240.6026,240.8525,,12,12,,,,,,,,,,,,,,,,bars/039.png,bars/mask006.png,,,,,,,,,,,,4,1,,,,,,,8,8,10,8,,,,,,,,,,,240.1025,240.6025,240.8526,242.8026,space,1.9338,,242.8027,17,87,243.8025,243.8026,245.3867,space,1.5461,,0,2,2,2,1,175,105,,,,,,,,
,,615ecf8f907bfe51f5a09f00,65af5632b940720aef4cd632,2024-01-23_08h06.42.939,bars,2023.2.3,Win32,60.24096386,657b66ea316d21385b68909f,,,,,,,,,,,245.3878,246.3863,,,246.8864,247.136,,91,91,,,,,,,,,,,,,,,,bars/041.png,bars/mask001.png,,,,,,,,,,,,6,2,,,,,,,6,6,4,7,,,,,,,,,,,246.3865,246.8863,247.1362,252.4198,space,5.2538,,252.42,71,6,253.4197,253.4199,258.0035,space,4.5447,,0,3,3,3,1,20,85,,,,,,,,
,,615ecf8f907bfe51f5a09f00,65af5632b940720aef4cd632,2024-01-23_08h06.42.939,bars,2023.2.3,Win32,60.24096386,657b66ea316d21385b68909f,,,,,,,,,,,258.0224,259.0196,,,259.5201,259.7694,,64,64,,,,,,,,,,,,,,,,bars/001.png,bars/mask006.png,,,,,,,,,,,,2,2,,,,,,,4,8,5,7,,,,,,,,,,,259.0197,259.5199,259.7696,264.6197,space,4.8203,,264.6199,66,21,265.6195,265.6197,270.7532,space,5.1012,,0,4,4,4,1,130,85,,,,,,,,
,,615ecf8f907bfe51f5a09f00,65af5632b940720aef4cd632,2024-01-23_08h06.42.939,bars,2023.2.3,Win32,60.24096386,657b66ea316d21385b68909f,,,,,,,,,,,270.7723,271.7695,,,272.2698,272.5196,,3,183,,,,,,,,,,,,,,,,bars/046.png,bars/mask003.png,,,,,,,,,,,,0,1,,,,,,,2,6,1,6,,,,,,,,,,,271.7697,272.2698,272.5197,279.1866,space,6.6385,,279.1869,28,82,280.1861,280.1864,281.3199,space,1.0953,,0,5,5,5,1,155,85,,,,,,,,
,,615ecf8f907bfe51f5a09f00,65af5632b940720aef4cd632,2024-01-23_08h06.42.939,bars,2023.2.3,Win32,60.24096386,657b66ea316d21385b68909f,,,,,,,,,,,281.321,282.3195,,,282.8197,283.0695,,22,22,,,,,,,,,,,,,,,,bars/022.png,bars/mask000.png,,,,,,,,,,,,6,2,,,,,,,4,4,3,6,,,,,,,,,,,282.3198,282.8196,283.0697,287.07,space,3.9763,,287.0702,73,2,288.0696,288.0698,290.2528,space,2.1509,,0,6,6,6,1,95,20,,,,,,,,
,,615ecf8f907bfe51f5a09f00,65af5632b940720aef4cd632,2024-01-23_08h06.42.939,bars,2023.2.3,Win32,60.24096386,657b66ea316d21385b68909f,,,,,,,,,,,290.2598,291.2529,,,291.7531,292.0029,,60,60,,,,,,,,,,,,,,,,bars/045.png,bars/mask004.png,,,,,,,,,,,,0,1,,,,,,,2,2,1,1,,,,,,,,,,,291.2532,291.753,292.0031,295.7197,space,3.691,,295.7198,40,50,296.7195,296.7196,298.9868,space,2.2286,,0,7,7,7,1,100,10,,,,,,,,
,,615ecf8f907bfe51f5a09f00,65af5632b940720aef4cd632,2024-01-23_08h06.42.939,bars,2023.2.3,Win32,60.24096386,657b66ea316d21385b68909f,,,,,,,,,,,298.9881,299.9861,,,300.4864,300.7363,,78,78,,,,,,,,,,,,,,,,bars/041.png,bars/mask006.png,,,,,,,,,,,,2,2,,,,,,,4,4,3,3,,,,,,,,,,,299.9862,300.4863,300.7365,306.4098,space,5.651,,306.4099,58,7,307.4029,307.4031,312.7865,space,5.3469,,0,8,8,8,1,20,85,,,,,,,,
,,615ecf8f907bfe51f5a09f00,65af5632b940720aef4cd632,2024-01-23_08h06.42.939,bars,2023.2.3,Win32,60.24096386,657b66ea316d21385b68909f,,,,,,,,,,,312.8064,313.8028,,,314.3031,314.5528,,172,172,,,,,,,,,,,,,,,,bars/031.png,bars/mask005.png,,,,,,,,,,,,0,2,,,,,,,2,6,3,7,,,,,,,,,,,313.803,314.3028,314.553,318.1699,space,3.589,,318.1702,52,43,319.1694,319.1696,322.1028,space,2.9066,,0,9,9,9,1,120,35,,,,,,,,
,,615ecf8f907bfe51f5a09f00,65af5632b940720aef4cd632,2024-01-23_08h06.42.939,bars,2023.2.3,Win32,60.24096386,657b66ea316d21385b68909f,,,,,,,,,,,322.104,323.1032,,,323.6032,323.8531,,142,-38,,,,,,,,,,,,,,,,bars/036.png,bars/mask009.png,,,,,,,,,,,,4,1,,,,,,,4,8,4,8,,,,,,,,,,,323.1034,323.603,323.8531,328.8865,space,5.0017,,328.8866,3,58,329.8864,329.8865,331.6533,space,1.729,,0,10,10,10,1,145,20,,,,,,,,
,,615ecf8f907bfe51f5a09f00,65af5632b940720aef4cd632,2024-01-23_08h06.42.939,bars,2023.2.3,Win32,60.24096386,657b66ea316d21385b68909f,,,,,,,,,,,331.6543,332.653,,,333.1532,333.4031,,48,48,,,,,,,,,,,,,,,,bars/034.png,bars/mask007.png,,,,,,,,,,,,3,2,,,,,,,6,6,6,6,,,,,,,,,,,332.6532,333.153,333.4032,337.3866,space,3.952,,337.3868,77,17,338.3863,338.3865,339.6239,space,1.2086,,0,11,11,11,1,125,65,,,,,,,,
,,615ecf8f907bfe51f5a09f00,65af5632b940720aef4cd632,2024-01-23_08h06.42.939,bars,2023.2.3,Win32,60.24096386,657b66ea316d21385b68909f,,,,,,,,,,,339.6244,340.6196,,,341.1194,341.3697,,87,87,,,,,,,,,,,,,,,,bars/031.png,bars/mask004.png,,,,,,,,,,,,0,1,,,,,,,4,4,3,3,,,,,,,,,,,340.6197,341.1193,341.3698,345.0533,space,3.6604,,345.0535,33,52,346.0529,346.053,346.7365,space,0.6483,,0,12,12,12,1,120,35,,,,,,,,
,,615ecf8f907bfe51f5a09f00,65af5632b940720aef4cd632,2024-01-23_08h06.42.939,bars,2023.2.3,Win32,60.24096386,657b66ea316d21385b68909f,,,,,,,,,,,346.7373,347.7363,,,348.2364,348.4863,,38,218,,,,,,,,,,,,,,,,bars/034.png,bars/mask002.png,,,,,,,,,,,,1,2,,,,,,,2,6,1,6,,,,,,,,,,,347.7364,348.2363,348.4865,351.87,space,3.3519,,351.8702,87,27,352.8698,352.8699,365.0867,space,12.1855,,0,13,13,13,1,125,65,,,,,,,,
,,615ecf8f907bfe51f5a09f00,65af5632b940720aef4cd632,2024-01-23_08h06.42.939,bars,2023.2.3,Win32,60.24096386,657b66ea316d21385b68909f,,,,,,,,,,,365.1059,366.1029,,,366.6035,366.8529,,16,196,,,,,,,,,,,,,,,,bars/032.png,bars/mask002.png,,,,,,,,,,,,7,2,,,,,,,0,8,0,8,,,,,,,,,,,366.1031,366.6034,366.853,370.7035,space,3.8186,,370.7036,71,4,371.7031,371.7032,373.7033,space,1.9685,,0,14,14,14,1,125,20,,,,,,,,
,,615ecf8f907bfe51f5a09f00,65af5632b940720aef4cd632,2024-01-23_08h06.42.939,bars,2023.2.3,Win32,60.24096386,657b66ea316d21385b68909f,,,,,,,,,,,373.7044,374.7029,,,375.2033,375.4529,,144,144,,,,,,,,,,,,,,,,bars/020.png,bars/mask008.png,,,,,,,,,,,,1,2,,,,,,,0,6,0,6,,,,,,,,,,,374.703,375.2031,375.4531,379.9203,space,4.4352,,379.9204,29,26,380.9195,380.9196,384.2201,space,3.2633,,0,15,15,15,1,115,170,,,,,,,,
,,615ecf8f907bfe51f5a09f00,65af5632b940720aef4cd632,2024-01-23_08h06.42.939,bars,2023.2.3,Win32,60.24096386,657b66ea316d21385b68909f,,,,,,,,,,,384.2412,385.2364,,,385.7365,385.986,,41,41,,,,,,,,,,,,,,,,bars/010.png,bars/mask007.png,,,,,,,,,,,,5,2,,,,,,,2,8,3,9,,,,,,,,,,,385.2365,385.7364,385.986,398.8078,space,12.7988,,398.8079,56,14,399.8031,399.8033,406.6035,space,6.7632,,0,16,16,16,1,165,55,,,,,,,,
,,615ecf8f907bfe51f5a09f00,65af5632b940720aef4cd632,2024-01-23_08h06.42.939,bars,2023.2.3,Win32,60.24096386,657b66ea316d21385b68909f,,,,,,,,,,,406.6251,407.6197,,,408.1199,408.3699,,67,67,,,,,,,,,,,,,,,,bars/034.png,bars/mask007.png,,,,,,,,,,,,9,2,,,,,,,0,10,1,10,,,,,,,,,,,407.6199,408.1197,408.37,410.9202,space,2.5242,,410.9204,58,2,411.9197,411.9199,413.5702,space,1.6215,,0,17,17,17,1,125,65,,,,,,,,
,,615ecf8f907bfe51f5a09f00,65af5632b940720aef4cd632,2024-01-23_08h06.42.939,bars,2023.2.3,Win32,60.24096386,657b66ea316d21385b68909f,,,,,,,,,,,413.5714,414.5698,,,415.0702,415.3199,,163,-17,,,,,,,,,,,,,,,,bars/018.png,bars/mask006.png,,,,,,,,,,,,1,1,,,,,,,2,8,1,7,,,,,,,,,,,414.5699,415.07,415.32,421.3202,space,5.9687,,421.3203,13,73,422.3197,422.3199,426.3367,space,3.9772,,0,18,18,18,1,150,90,,,,,,,,
,,615ecf8f907bfe51f5a09f00,65af5632b940720aef4cd632,2024-01-23_08h06.42.939,bars,2023.2.3,Win32,60.24096386,657b66ea316d21385b68909f,,,,,,,,,,,426.3378,427.3362,,,427.8364,428.0863,,146,146,,,,,,,,,,,,,,,,bars/003.png,bars/mask004.png,,,,,,,,,,,,4,2,,,,,,,0,6,0,5,,,,,,,,,,,427.3364,427.8362,428.0865,433.2703,space,5.1594,,433.2704,59,6,434.2699,434.27,441.7768,space,7.4781,,0,19,19,19,1,25,140,,,,,,,,
,,615ecf8f907bfe51f5a09f00,65af5632b940720aef4cd632,2024-01-23_08h06.42.939,bars,2023.2.3,Win32,60.24096386,657b66ea316d21385b68909f,,,,,,,,,,,441.7981,442.7862,,,443.2862,443.5361,,144,144,,,,,,,,,,,,,,,,bars/016.png,bars/mask006.png,,,,,,,,,,,,2,2,,,,,,,2,8,2,8,,,,,,,,,,,442.7862,443.2861,443.5362,446.7025,space,3.1573,,446.7026,76,21,447.7028,447.7029,449.0368,space,1.2952,,0,20,20,20,1,40,165,,,,,,,,
,,615ecf8f907bfe51f5a09f00,65af5632b940720aef4cd632,2024-01-23_08h06.42.939,bars,2023.2.3,Win32,60.24096386,657b66ea316d21385b68909f,,,,,,,,,,,449.0379,450.0362,,,450.5367,450.7863,,139,139,,,,,,,,,,,,,,,,bars/022.png,bars/mask001.png,,,,,,,,,,,,0,1,,,,,,,4,10,5,10,,,,,,,,,,,450.0364,450.5365,450.7865,451.5202,space,0.7077,,451.5202,44,61,452.5198,452.5199,454.4535,space,1.9022,,0,21,21,21,1,95,20,,,,,,,,
,,615ecf8f907bfe51f5a09f00,65af5632b940720aef4cd632,2024-01-23_08h06.42.939,bars,2023.2.3,Win32,60.24096386,657b66ea316d21385b68909f,,,,,,,,,,,454.4546,455.4529,,,455.9533,456.2032,,152,152,,,,,,,,,,,,,,,,bars/044.png,bars/mask002.png,,,,,,,,,,,,7,2,,,,,,,6,8,6,8,,,,,,,,,,,455.453,455.9531,456.2033,460.9534,space,4.7228,,460.9537,77,3,461.9531,461.9534,465.2368,space,3.2445,,0,22,22,22,1,75,155,,,,,,,,
,,615ecf8f907bfe51f5a09f00,65af5632b940720aef4cd632,2024-01-23_08h06.42.939,bars,2023.2.3,Win32,60.24096386,657b66ea316d21385b68909f,,,,,,,,,,,465.238,466.2366,,,466.7367,466.9864,,91,91,,,,,,,,,,,,,,,,bars/001.png,bars/mask002.png,,,,,,,,,,,,8,2,,,,,,,8,10,7,10,,,,,,,,,,,466.2367,466.7366,466.9865,473.3035,space,6.2852,,473.3036,39,6,474.3034,474.3035,477.47,space,3.1365,,0,23,23,23,1,130,85,,,,,,,,
,,615ecf8f907bfe51f5a09f00,65af5632b940720aef4cd632,2024-01-23_08h06.42.939,bars,2023.2.3,Win32,60.24096386,657b66ea316d21385b68909f,,,,,,,,,,,477.4708,478.4698,,,478.97,479.22,,97,97,,,,,,,,,,,,,,,,bars/041.png,bars/mask004.png,,,,,,,,,,,,5,2,,,,,,,10,10,10,9,,,,,,,,,,,478.47,478.9699,479.2201,482.47,space,3.226,,482.4702,77,12,483.4701,483.4702,485.0373,space,1.5395,,0,24,24,24,1,20,85,,,,,,,,
,,615ecf8f907bfe51f5a09f00,65af5632b940720aef4cd632,2024-01-23_08h06.42.939,bars,2023.2.3,Win32,60.24096386,657b66ea316d21385b68909f,,,,,,,,,,,485.0385,486.0364,,,486.5367,486.7863,,153,153,,,,,,,,,,,,,,,,bars/048.png,bars/mask006.png,,,,,,,,,,,,2,2,,,,,,,10,10,9,9,,,,,,,,,,,486.0366,486.5365,486.7863,492.8202,space,6.0024,,492.8204,77,22,493.8199,493.8201,496.8369,space,2.9902,,0,25,25,25,1,50,175,,,,,,,,
,,615ecf8f907bfe51f5a09f00,65af5632b940720aef4cd632,2024-01-23_08h06.42.939,bars,2023.2.3,Win32,60.24096386,657b66ea316d21385b68909f,,,,,,,,,,,496.8448,497.8365,,,498.3367,498.5865,,149,-31,,,,,,,,,,,,,,,,bars/037.png,bars/mask004.png,,,,,,,,,,,,8,1,,,,,,,8,10,8,10,,,,,,,,,,,497.8367,498.3365,498.5867,501.7368,space,3.1187,,501.7369,1,44,502.7363,502.7364,505.5035,space,2.7351,,0,26,26,26,1,150,105,,,,,,,,
,,615ecf8f907bfe51f5a09f00,65af5632b940720aef4cd632,2024-01-23_08h06.42.939,bars,2023.2.3,Win32,60.24096386,657b66ea316d21385b68909f,,,,,,,,,,,505.5047,506.5031,,,507.0034,507.2533,,151,151,,,,,,,,,,,,,,,,bars/037.png,bars/mask002.png,,,,,,,,,,,,7,1,,,,,,,6,8,7,8,,,,,,,,,,,506.5032,507.0032,507.2534,512.9868,space,5.7045,,512.9869,1,46,513.9865,513.9868,516.4036,space,2.3835,,0,27,27,27,1,150,105,,,,,,,,
,,615ecf8f907bfe51f5a09f00,65af5632b940720aef4cd632,2024-01-23_08h06.42.939,bars,2023.2.3,Win32,60.24096386,657b66ea316d21385b68909f,,,,,,,,,,,516.4047,517.4032,,,517.9033,518.1532,,61,61,,,,,,,,,,,,,,,,bars/025.png,bars/mask004.png,,,,,,,,,,,,2,2,,,,,,,4,6,4,6,,,,,,,,,,,517.4033,517.9031,518.1534,521.8868,space,3.7087,,521.8869,44,21,522.8865,522.8867,523.8868,space,0.9674,,0,28,28,28,1,105,40,,,,,,,,
,,615ecf8f907bfe51f5a09f00,65af5632b940720aef4cd632,2024-01-23_08h06.42.939,bars,2023.2.3,Win32,60.24096386,657b66ea316d21385b68909f,,,,,,,,,,,523.8877,524.8866,,,525.3867,525.637,,82,82,,,,,,,,,,,,,,,,bars/039.png,bars/mask004.png,,,,,,,,,,,,1,2,,,,,,,6,4,6,4,,,,,,,,,,,524.8867,525.3866,525.637,530.3373,space,4.6891,,530.3375,87,23,531.3366,531.3368,532.2203,space,0.8518,,0,29,29,29,1,175,105,,,,,,,,
,,615ecf8f907bfe51f5a09f00,65af5632b940720aef4cd632,2024-01-23_08h06.42.939,bars,2023.2.3,Win32,60.24096386,657b66ea316d21385b68909f,,,,,,,,,,,532.2215,533.22,,,533.7202,533.9699,,176,176,,,,,,,,,,,,,,,,bars/035.png,bars/mask004.png,,,,,,,,,,,,10,1,,,,,,,8,6,10,7,,,,,,,,,,,533.2202,533.7201,533.9701,537.2536,space,3.2521,,537.2538,1,64,538.2535,538.2536,539.2928,space,1.0101,,0,30,30,30,1,175,60,,,,,,,,
,,615ecf8f907bfe51f5a09f00,65af5632b940720aef4cd632,2024-01-23_08h06.42.939,bars,2023.2.3,Win32,60.24096386,657b66ea316d21385b68909f,,,,,,,,,,,539.2931,540.2863,,,540.7867,541.0366,,148,148,,,,,,,,,,,,,,,,bars/016.png,bars/mask006.png,,,,,,,,,,,,2,2,,,,,,,6,4,6,4,,,,,,,,,,,540.2865,540.7866,541.0367,543.6203,space,2.5521,,543.6203,72,17,544.6202,544.6203,556.6865,space,12.0336,,0,31,31,31,1,40,165,,,,,,,,
,,615ecf8f907bfe51f5a09f00,65af5632b940720aef4cd632,2024-01-23_08h06.42.939,bars,2023.2.3,Win32,60.24096386,657b66ea316d21385b68909f,,,,,,,,,,,556.7079,557.703,,,558.2032,558.4529,,10,10,,,,,,,,,,,,,,,,bars/037.png,bars/mask008.png,,,,,,,,,,,,0,1,,,,,,,8,2,7,3,,,,,,,,,,,557.7031,558.2031,558.453,584.6203,space,26.1493,,584.6204,40,85,585.62,585.6201,593.5862,space,7.937,,0,32,32,32,1,150,105,,,,,,,,
,,615ecf8f907bfe51f5a09f00,65af5632b940720aef4cd632,2024-01-23_08h06.42.939,bars,2023.2.3,Win32,60.24096386,657b66ea316d21385b68909f,,,,,,,,,,,593.5936,594.5864,,,595.0865,595.3368,,52,52,,,,,,,,,,,,,,,,bars/023.png,bars/mask003.png,,,,,,,,,,,,0,1,,,,,,,10,4,9,5,,,,,,,,,,,594.5864,595.0864,595.3369,599.7867,space,4.4359,,599.7867,32,63,600.7864,600.7864,601.9529,space,1.1453,,0,33,33,33,1,20,115,,,,,,,,
,,615ecf8f907bfe51f5a09f00,65af5632b940720aef4cd632,2024-01-23_08h06.42.939,bars,2023.2.3,Win32,60.24096386,657b66ea316d21385b68909f,,,,,,,,,,,601.9532,602.9529,,,603.4532,603.7028,,127,127,,,,,,,,,,,,,,,,bars/009.png,bars/mask002.png,,,,,,,,,,,,2,2,,,,,,,10,6,10,7,,,,,,,,,,,602.9529,603.4532,603.7028,604.6195,space,0.9042,,604.6195,68,22,605.6199,605.6199,606.8199,space,1.1805,,0,34,34,34,1,15,105,,,,,,,,
,,615ecf8f907bfe51f5a09f00,65af5632b940720aef4cd632,2024-01-23_08h06.42.939,bars,2023.2.3,Win32,60.24096386,657b66ea316d21385b68909f,,,,,,,,,,,606.8206,607.8197,,,608.3198,608.5699,,140,140,,,,,,,,,,,,,,,,bars/003.png,bars/mask008.png,,,,,,,,,,,,9,2,,,,,,,8,8,9,9,,,,,,,,,,,607.8198,608.3198,608.5699,612.9201,space,4.3382,,612.9201,65,0,613.9198,613.9198,614.7201,space,0.7672,,0,35,35,35,1,25,140,,,,,,,,
,,615ecf8f907bfe51f5a09f00,65af5632b940720aef4cd632,2024-01-23_08h06.42.939,bars,2023.2.3,Win32,60.24096386,657b66ea316d21385b68909f,,,,,,,,,,,614.7207,615.7198,,,616.2198,616.4698,,2,182,,,,,,,,,,,,,,,,bars/006.png,bars/mask006.png,,,,,,,,,,,,0,1,,,,,,,10,6,10,6,,,,,,,,,,,615.7198,616.2198,616.4699,620.77,space,4.2866,,620.77,33,82,621.7698,621.7698,623.27,space,1.4683,,0,36,36,36,1,35,100,,,,,,,,
,,615ecf8f907bfe51f5a09f00,65af5632b940720aef4cd632,2024-01-23_08h06.42.939,bars,2023.2.3,Win32,60.24096386,657b66ea316d21385b68909f,,,,,,,,,,,623.2706,624.2698,,,624.7698,625.0198,,95,95,,,,,,,,,,,,,,,,bars/039.png,bars/mask003.png,,,,,,,,,,,,5,2,,,,,,,10,8,10,8,,,,,,,,,,,624.2699,624.7698,625.0199,629.77,space,4.7361,,629.77,80,10,630.7698,630.7698,646.2207,space,15.4102,,0,37,37,37,1,175,105,,,,,,,,
,,615ecf8f907bfe51f5a09f00,65af5632b940720aef4cd632,2024-01-23_08h06.42.939,bars,2023.2.3,Win32,60.24096386,657b66ea316d21385b68909f,,,,,,,,,,,646.2436,647.226,,,647.7263,647.9763,,43,43,,,,,,,,,,,,,,,,bars/003.png,bars/mask006.png,,,,,,,,,,,,3,1,,,,,,,8,10,8,10,,,,,,,,,,,647.226,647.7263,647.9763,650.8373,space,2.8439,,650.8374,18,83,651.8366,651.8367,654.6038,space,2.734,,0,38,38,38,1,25,140,,,,,,,,
,,615ecf8f907bfe51f5a09f00,65af5632b940720aef4cd632,2024-01-23_08h06.42.939,bars,2023.2.3,Win32,60.24096386,657b66ea316d21385b68909f,,,,,,,,,,,654.623,655.6202,,,656.1205,656.37,,78,258,,,,,,,,,,,,,,,,bars/021.png,bars/mask000.png,,,,,,,,,,,,7,2,,,,,,,10,8,10,9,,,,,,,,,,,655.6203,656.1203,656.3701,662.9203,space,6.5187,,662.9204,77,8,663.9201,663.9203,665.6366,space,1.6907,,0,39,39,39,1,155,70,,,,,,,,
,,615ecf8f907bfe51f5a09f00,65af5632b940720aef4cd632,2024-01-23_08h06.42.939,bars,2023.2.3,Win32,60.24096386,657b66ea316d21385b68909f,,,,,,,,,,,665.6376,666.6366,,,667.1371,667.3869,,84,84,,,,,,,,,,,,,,,,bars/011.png,bars/mask003.png,,,,,,,,,,,,6,2,,,,,,,10,6,9,6,,,,,,,,,,,666.6368,667.1369,667.387,670.9703,space,3.5564,,670.9704,76,1,671.9698,671.9698,675.6701,space,3.6683,,0,40,40,40,1,160,85,,,,,,,,
,,615ecf8f907bfe51f5a09f00,65af5632b940720aef4cd632,2024-01-23_08h06.42.939,bars,2023.2.3,Win32,60.24096386,657b66ea316d21385b68909f,,,,,,,,,,,675.6716,676.6703,,,677.1702,677.4203,,8,188,,,,,,,,,,,,,,,,bars/049.png,bars/mask009.png,,,,,,,,,,,,1,1,,,,,,,10,8,10,7,,,,,,,,,,,676.6704,677.1701,677.4204,680.1702,space,2.7187,,680.1704,28,73,681.1703,681.1705,681.8703,space,0.6618,,0,41,41,41,1,160,115,,,,,,,,
,,615ecf8f907bfe51f5a09f00,65af5632b940720aef4cd632,2024-01-23_08h06.42.939,bars,2023.2.3,Win32,60.24096386,657b66ea316d21385b68909f,,,,,,,,,,,681.8716,682.8702,,,683.3702,683.6204,,132,132,,,,,,,,,,,,,,,,bars/037.png,bars/mask009.png,,,,,,,,,,,,3,1,,,,,,,8,10,8,10,,,,,,,,,,,682.8703,683.3701,683.6205,685.787,space,2.1352,,685.7872,18,27,686.787,686.7871,687.6039,space,0.7791,,0,42,42,42,1,150,105,,,,,,,,
,,615ecf8f907bfe51f5a09f00,65af5632b940720aef4cd632,2024-01-23_08h06.42.939,bars,2023.2.3,Win32,60.24096386,657b66ea316d21385b68909f,,,,,,,,,,,687.6052,688.6035,,,689.1036,689.3535,,73,73,,,,,,,,,,,,,,,,bars/013.png,bars/mask002.png,,,,,,,,,,,,5,1,,,,,,,6,8,5,8,,,,,,,,,,,688.6036,689.1034,689.3538,692.8369,space,3.4608,,692.8371,2,63,693.8369,693.837,695.6203,space,1.7469,,0,43,43,43,1,75,10,,,,,,,,
,,615ecf8f907bfe51f5a09f00,65af5632b940720aef4cd632,2024-01-23_08h06.42.939,bars,2023.2.3,Win32,60.24096386,657b66ea316d21385b68909f,,,,,,,,,,,695.6215,696.6203,,,697.1204,697.3701,,174,-6,,,,,,,,,,,,,,,,bars/032.png,bars/mask003.png,,,,,,,,,,,,1,2,,,,,,,4,10,3,10,,,,,,,,,,,696.6204,697.1203,697.3703,699.8537,space,2.452,,699.8538,49,26,700.8536,700.8536,702.2871,space,1.3943,,0,44,44,44,1,125,20,,,,,,,,
,,615ecf8f907bfe51f5a09f00,65af5632b940720aef4cd632,2024-01-23_08h06.42.939,bars,2023.2.3,Win32,60.24096386,657b66ea316d21385b68909f,,,,,,,,,,,702.2882,703.2869,,,703.7871,704.0367,,159,159,,,,,,,,,,,,,,,,bars/043.png,bars/mask001.png,,,,,,,,,,,,0,2,,,,,,,6,8,7,8,,,,,,,,,,,703.287,703.787,704.0368,708.1537,space,4.0893,,708.1538,51,29,709.1536,709.1538,709.9704,space,0.78,,0,45,45,45,1,30,130,,,,,,,,
,,615ecf8f907bfe51f5a09f00,65af5632b940720aef4cd632,2024-01-23_08h06.42.939,bars,2023.2.3,Win32,60.24096386,657b66ea316d21385b68909f,,,,,,,,,,,709.9714,710.9702,,,711.4702,711.7202,,157,157,,,,,,,,,,,,,,,,bars/008.png,bars/mask002.png,,,,,,,,,,,,1,2,,,,,,,4,6,4,5,,,,,,,,,,,710.9702,711.4701,711.7202,714.987,space,3.2382,,714.9871,47,23,715.9867,715.9869,716.637,space,0.6157,,0,46,46,46,1,110,0,,,,,,,,
,,615ecf8f907bfe51f5a09f00,65af5632b940720aef4cd632,2024-01-23_08h06.42.939,bars,2023.2.3,Win32,60.24096386,657b66ea316d21385b68909f,,,,,,,,,,,716.6381,717.637,,,718.1371,718.387,,133,133,,,,,,,,,,,,,,,,bars/036.png,bars/mask008.png,,,,,,,,,,,,2,1,,,,,,,2,4,3,4,,,,,,,,,,,717.6371,718.1369,718.3871,722.0536,space,3.6395,,722.0538,12,67,723.0536,723.0538,724.2035,space,1.1137,,0,47,47,47,1,145,20,,,,,,,,
,,615ecf8f907bfe51f5a09f00,65af5632b940720aef4cd632,2024-01-23_08h06.42.939,bars,2023.2.3,Win32,60.24096386,657b66ea316d21385b68909f,,,,,,,,,,,724.2047,725.2036,,,725.7038,725.9535,,122,122,,,,,,,,,,,,,,,,bars/029.png,bars/mask003.png,,,,,,,,,,,,0,1,,,,,,,0,2,0,1,,,,,,,,,,,725.2036,725.7037,725.9536,728.6702,space,2.6928,,728.6703,32,77,729.6702,729.6703,730.2098,space,0.5129,,0,48,48,48,1,90,45,,,,,,,,
,,615ecf8f907bfe51f5a09f00,65af5632b940720aef4cd632,2024-01-23_08h06.42.939,bars,2023.2.3,Win32,60.24096386,657b66ea316d21385b68909f,,,,,,,,,,,730.2104,731.2036,,,731.7037,731.9535,,5,185,,,,,,,,,,,,,,,,bars/016.png,bars/mask006.png,,,,,,,,,,,,2,2,,,,,,,0,4,0,5,,,,,,,,,,,731.2038,731.7035,731.9538,734.1703,space,2.1888,,734.1705,35,20,735.1703,735.1705,736.0036,space,0.7982,,0,49,49,49,1,40,165,,,,,,,,
,,615ecf8f907bfe51f5a09f00,65af5632b940720aef4cd632,2024-01-23_08h06.42.939,bars,2023.2.3,Win32,60.24096386,657b66ea316d21385b68909f,,,,,,,,,,,,,,,,,,,,,,,,,,,,,,,,,,,,,,,,,,,,,,,,,,,,,,,,,,,,,,,,,,,,,,,,,,,,,,,,,,,,,,,,,,,,,736.0061,796.0061,0,0,0,2,1,sequence_tables/blk047.csv
,,615ecf8f907bfe51f5a09f00,65af5632b940720aef4cd632,2024-01-23_08h06.42.939,bars,2023.2.3,Win32,60.24096386,657b66ea316d21385b68909f,,,,,,,,,,,800.6287,801.6205,,,802.1206,802.3705,,84,84,,,,,,,,,,,,,,,,bars/002.png,bars/mask004.png,,,,,,,,,,,,4,2,,,,,,,3,2,6,4,,,,,,796.0253,800.6042,space,4.5607,,801.6206,802.1206,802.3706,807.9374,space,5.5402,,807.9377,46,1,808.9372,808.9373,808.9583,,,,0,0,0,0,1,130,85,,,,,,,,
,,615ecf8f907bfe51f5a09f00,65af5632b940720aef4cd632,2024-01-23_08h06.42.939,bars,2023.2.3,Win32,60.24096386,657b66ea316d21385b68909f,,,,,,,,,,,808.9585,809.9537,,,810.4535,810.7037,,56,236,,,,,,,,,,,,,,,,bars/042.png,bars/mask004.png,,,,,,,,,,,,1,2,,,,,,,1,4,1,4,,,,,,,,,,,809.954,810.4534,810.7039,814.8041,space,4.0709,,814.8043,89,19,815.8041,815.8043,815.8266,,,,0,1,1,1,1,145,75,,,,,,,,
,,615ecf8f907bfe51f5a09f00,65af5632b940720aef4cd632,2024-01-23_08h06.42.939,bars,2023.2.3,Win32,60.24096386,657b66ea316d21385b68909f,,,,,,,,,,,815.8268,816.8203,,,817.3206,817.5703,,138,138,,,,,,,,,,,,,,,,bars/000.png,bars/mask005.png,,,,,,,,,,,,4,2,,,,,,,3,6,4,5,,,,,,,,,,,816.8205,817.3205,817.5703,821.4373,space,3.8441,,821.4374,82,7,822.4371,822.4373,822.4581,,,,0,2,2,2,1,40,145,,,,,,,,
,,615ecf8f907bfe51f5a09f00,65af5632b940720aef4cd632,2024-01-23_08h06.42.939,bars,2023.2.3,Win32,60.24096386,657b66ea316d21385b68909f,,,,,,,,,,,822.4584,823.4537,,,823.9539,824.1922,,85,85,,,,,,,,,,,,,,,,bars/041.png,bars/mask004.png,,,,,,,,,,,,4,2,,,,,,,5,4,5,4,,,,,,,,,,,823.4539,823.9537,824.1922,826.4212,space,2.2113,,826.4213,65,0,827.4201,827.4202,827.4286,,,,0,3,3,3,1,20,85,,,,,,,,
,,615ecf8f907bfe51f5a09f00,65af5632b940720aef4cd632,2024-01-23_08h06.42.939,bars,2023.2.3,Win32,60.24096386,657b66ea316d21385b68909f,,,,,,,,,,,827.4288,828.4203,,,828.9232,829.1705,,137,137,,,,,,,,,,,,,,,,bars/017.png,bars/mask000.png,,,,,,,,,,,,2,1,,,,,,,3,6,3,6,,,,,,,,,,,828.4205,828.9232,829.1706,831.5378,space,2.3353,,831.538,8,88,832.5372,832.5373,832.5593,,,,0,4,4,4,1,145,45,,,,,,,,
,,615ecf8f907bfe51f5a09f00,65af5632b940720aef4cd632,2024-01-23_08h06.42.939,bars,2023.2.3,Win32,60.24096386,657b66ea316d21385b68909f,,,,,,,,,,,832.5597,833.5534,,,834.0539,834.3041,,150,150,,,,,,,,,,,,,,,,bars/033.png,bars/mask009.png,,,,,,,,,,,,7,2,,,,,,,5,8,4,8,,,,,,,,,,,833.5535,834.0538,834.3043,840.0376,space,5.7029,,840.0378,55,5,841.0373,841.0374,841.0602,,,,0,5,5,5,1,25,155,,,,,,,,
,,615ecf8f907bfe51f5a09f00,65af5632b940720aef4cd632,2024-01-23_08h06.42.939,bars,2023.2.3,Win32,60.24096386,657b66ea316d21385b68909f,,,,,,,,,,,841.0604,842.0536,,,842.5539,842.8041,,140,140,,,,,,,,,,,,,,,,bars/031.png,bars/mask004.png,,,,,,,,,,,,1,1,,,,,,,3,6,2,6,,,,,,,,,,,842.0538,842.5537,842.8042,847.4082,space,4.5824,,847.4083,20,75,848.4038,848.404,848.4275,,,,0,6,6,6,1,120,35,,,,,,,,
,,615ecf8f907bfe51f5a09f00,65af5632b940720aef4cd632,2024-01-23_08h06.42.939,bars,2023.2.3,Win32,60.24096386,657b66ea316d21385b68909f,,,,,,,,,,,848.4278,849.4204,,,849.9211,850.1705,,82,82,,,,,,,,,,,,,,,,bars/026.png,bars/mask000.png,,,,,,,,,,,,4,2,,,,,,,1,4,2,4,,,,,,,,,,,849.4205,849.9209,850.1707,854.1541,space,3.9521,,854.1543,47,3,855.1537,855.1539,855.1753,,,,0,7,7,7,1,35,85,,,,,,,,
,,615ecf8f907bfe51f5a09f00,65af5632b940720aef4cd632,2024-01-23_08h06.42.939,bars,2023.2.3,Win32,60.24096386,657b66ea316d21385b68909f,,,,,,,,,,,855.1755,856.1704,,,856.6708,856.9204,,130,130,,,,,,,,,,,,,,,,bars/027.png,bars/mask005.png,,,,,,,,,,,,0,1,,,,,,,0,2,0,2,,,,,,,,,,,856.1706,856.6707,856.9205,862.8041,space,5.8538,,862.8042,20,80,863.8039,863.804,863.8139,,,,0,8,8,8,1,110,50,,,,,,,,
,,615ecf8f907bfe51f5a09f00,65af5632b940720aef4cd632,2024-01-23_08h06.42.939,bars,2023.2.3,Win32,60.24096386,657b66ea316d21385b68909f,,,,,,,,,,,863.8139,864.8039,,,865.3036,865.554,,128,128,,,,,,,,,,,,,,,,bars/013.png,bars/mask003.png,,,,,,,,,,,,0,1,,,,,,,0,4,0,3,,,,,,,,,,,864.8041,865.3036,865.5541,871.0209,space,5.4366,,871.0211,53,62,872.0204,872.0205,872.0433,,,,0,9,9,9,1,75,10,,,,,,,,
,,615ecf8f907bfe51f5a09f00,65af5632b940720aef4cd632,2024-01-23_08h06.42.939,bars,2023.2.3,Win32,60.24096386,657b66ea316d21385b68909f,,,,,,,,,,,872.0436,873.0368,,,873.5371,873.7905,,149,149,,,,,,,,,,,,,,,,bars/039.png,bars/mask007.png,,,,,,,,,,,,0,1,,,,,,,0,6,0,5,,,,,,,,,,,873.0369,873.5371,873.7906,875.6874,space,1.8684,,875.6875,26,44,876.6875,876.6875,876.7083,,,,0,10,10,10,1,175,105,,,,,,,,
,,615ecf8f907bfe51f5a09f00,65af5632b940720aef4cd632,2024-01-23_08h06.42.939,bars,2023.2.3,Win32,60.24096386,657b66ea316d21385b68909f,,,,,,,,,,,876.7086,877.7036,,,878.2039,878.4542,,165,-15,,,,,,,,,,,,,,,,bars/035.png,bars/mask005.png,,,,,,,,,,,,0,1,,,,,,,0,8,0,9,,,,,,,,,,,877.7037,878.2038,878.4544,883.7437,space,5.2676,,883.7438,10,75,884.7373,884.7374,884.7568,,,,0,11,11,11,1,175,60,,,,,,,,
,,615ecf8f907bfe51f5a09f00,65af5632b940720aef4cd632,2024-01-23_08h06.42.939,bars,2023.2.3,Win32,60.24096386,657b66ea316d21385b68909f,,,,,,,,,,,884.7569,885.754,,,886.2537,886.5042,,70,250,,,,,,,,,,,,,,,,bars/010.png,bars/mask005.png,,,,,,,,,,,,5,2,,,,,,,2,10,2,9,,,,,,,,,,,885.754,886.2536,886.5044,891.2709,space,4.7429,,891.271,85,15,892.2707,892.2708,892.2934,,,,0,12,12,12,1,165,55,,,,,,,,
,,615ecf8f907bfe51f5a09f00,65af5632b940720aef4cd632,2024-01-23_08h06.42.939,bars,2023.2.3,Win32,60.24096386,657b66ea316d21385b68909f,,,,,,,,,,,892.2938,893.2872,,,893.7874,894.0374,,133,133,,,,,,,,,,,,,,,,bars/043.png,bars/mask005.png,,,,,,,,,,,,9,2,,,,,,,0,10,0,10,,,,,,,,,,,893.2873,893.7874,894.0374,895.971,space,1.9054,,895.9711,77,3,896.9705,896.9707,896.9923,,,,0,13,13,13,1,30,130,,,,,,,,
,,615ecf8f907bfe51f5a09f00,65af5632b940720aef4cd632,2024-01-23_08h06.42.939,bars,2023.2.3,Win32,60.24096386,657b66ea316d21385b68909f,,,,,,,,,,,896.9926,897.9869,,,898.4876,898.7373,,56,56,,,,,,,,,,,,,,,,bars/010.png,bars/mask002.png,,,,,,,,,,,,10,2,,,,,,,0,10,0,10,,,,,,,,,,,897.987,898.4874,898.7373,902.7208,space,3.952,,902.721,71,1,903.7204,903.7206,903.7425,,,,0,14,14,14,1,165,55,,,,,,,,
,,615ecf8f907bfe51f5a09f00,65af5632b940720aef4cd632,2024-01-23_08h06.42.939,bars,2023.2.3,Win32,60.24096386,657b66ea316d21385b68909f,,,,,,,,,,,903.7427,904.7375,,,905.2372,905.4869,,152,152,,,,,,,,,,,,,,,,bars/044.png,bars/mask007.png,,,,,,,,,,,,7,2,,,,,,,2,8,3,8,,,,,,,,,,,904.7376,905.2371,905.4871,911.4376,space,5.9195,,911.4377,77,3,912.4373,912.4374,912.4568,,,,0,15,15,15,1,75,155,,,,,,,,
,,615ecf8f907bfe51f5a09f00,65af5632b940720aef4cd632,2024-01-23_08h06.42.939,bars,2023.2.3,Win32,60.24096386,657b66ea316d21385b68909f,,,,,,,,,,,912.457,913.4539,,,913.954,914.2039,,57,57,,,,,,,,,,,,,,,,bars/025.png,bars/mask000.png,,,,,,,,,,,,2,2,,,,,,,0,6,0,5,,,,,,,,,,,913.4541,913.9539,914.2041,917.6379,space,3.4106,,917.6381,48,17,918.6373,918.6375,918.6586,,,,0,16,16,16,1,105,40,,,,,,,,
,,615ecf8f907bfe51f5a09f00,65af5632b940720aef4cd632,2024-01-23_08h06.42.939,bars,2023.2.3,Win32,60.24096386,657b66ea316d21385b68909f,,,,,,,,,,,918.6589,919.6541,,,920.154,920.4039,,143,143,,,,,,,,,,,,,,,,bars/027.png,bars/mask004.png,,,,,,,,,,,,0,1,,,,,,,2,4,2,3,,,,,,,,,,,919.6542,920.1538,920.4039,926.5869,space,6.1517,,926.587,33,87,927.5874,927.5876,927.6111,,,,0,17,17,17,1,110,50,,,,,,,,
,,615ecf8f907bfe51f5a09f00,65af5632b940720aef4cd632,2024-01-23_08h06.42.939,bars,2023.2.3,Win32,60.24096386,657b66ea316d21385b68909f,,,,,,,,,,,927.6113,928.6036,,,929.1041,929.3537,,157,-23,,,,,,,,,,,,,,,,bars/018.png,bars/mask009.png,,,,,,,,,,,,1,1,,,,,,,0,6,1,7,,,,,,,,,,,928.6038,929.1039,929.3538,936.0707,space,6.6923,,936.071,7,67,937.0705,937.0706,937.0851,,,,0,18,18,18,1,150,90,,,,,,,,
,,615ecf8f907bfe51f5a09f00,65af5632b940720aef4cd632,2024-01-23_08h06.42.939,bars,2023.2.3,Win32,60.24096386,657b66ea316d21385b68909f,,,,,,,,,,,937.0853,938.087,,,938.5868,938.837,,118,118,,,,,,,,,,,,,,,,bars/011.png,bars/mask000.png,,,,,,,,,,,,0,2,,,,,,,2,8,2,8,,,,,,,,,,,938.0871,938.5868,938.8371,941.1202,space,2.2564,,941.1204,42,33,942.1206,942.1208,942.1484,,,,0,19,19,19,1,160,85,,,,,,,,
,,615ecf8f907bfe51f5a09f00,65af5632b940720aef4cd632,2024-01-23_08h06.42.939,bars,2023.2.3,Win32,60.24096386,657b66ea316d21385b68909f,,,,,,,,,,,942.1486,943.1367,,,943.6371,943.887,,162,162,,,,,,,,,,,,,,,,bars/023.png,bars/mask003.png,,,,,,,,,,,,0,1,,,,,,,4,6,4,8,,,,,,,,,,,943.1367,943.637,943.8871,945.0368,space,1.1409,,945.0368,38,47,946.0369,946.0369,946.0404,,,,0,20,20,20,1,20,115,,,,,,,,
,,615ecf8f907bfe51f5a09f00,65af5632b940720aef4cd632,2024-01-23_08h06.42.939,bars,2023.2.3,Win32,60.24096386,657b66ea316d21385b68909f,,,,,,,,,,,946.0411,947.0368,,,947.537,947.787,,57,237,,,,,,,,,,,,,,,,bars/045.png,bars/mask007.png,,,,,,,,,,,,0,1,,,,,,,6,4,6,4,,,,,,,,,,,947.0368,947.537,947.7871,952.8038,space,5.0052,,952.8039,43,47,953.8037,953.8037,953.8261,,,,0,21,21,21,1,100,10,,,,,,,,
,,615ecf8f907bfe51f5a09f00,65af5632b940720aef4cd632,2024-01-23_08h06.42.939,bars,2023.2.3,Win32,60.24096386,657b66ea316d21385b68909f,,,,,,,,,,,953.8264,954.8208,,,955.321,955.5705,,128,128,,,,,,,,,,,,,,,,bars/027.png,bars/mask003.png,,,,,,,,,,,,3,1,,,,,,,8,2,8,2,,,,,,,,,,,954.821,955.3209,955.5706,958.1708,space,2.5719,,958.1709,18,78,959.1742,959.1742,959.1964,,,,0,22,22,22,1,110,50,,,,,,,,
,,615ecf8f907bfe51f5a09f00,65af5632b940720aef4cd632,2024-01-23_08h06.42.939,bars,2023.2.3,Win32,60.24096386,657b66ea316d21385b68909f,,,,,,,,,,,959.1967,960.1871,,,960.6872,960.9371,,144,144,,,,,,,,,,,,,,,,bars/044.png,bars/mask004.png,,,,,,,,,,,,4,2,,,,,,,6,4,6,6,,,,,,,,,,,960.1872,960.6872,960.9372,965.4542,space,4.4854,,965.4544,69,11,966.454,966.4541,966.4777,,,,0,23,23,23,1,75,155,,,,,,,,
,,615ecf8f907bfe51f5a09f00,65af5632b940720aef4cd632,2024-01-23_08h06.42.939,bars,2023.2.3,Win32,60.24096386,657b66ea316d21385b68909f,,,,,,,,,,,966.4781,967.4707,,,967.9703,968.2205,,147,147,,,,,,,,,,,,,,,,bars/009.png,bars/mask006.png,,,,,,,,,,,,0,2,,,,,,,4,2,3,1,,,,,,,,,,,967.4709,967.9702,968.2206,970.2708,space,2.0184,,970.271,48,42,971.2701,971.2702,971.2788,,,,0,24,24,24,1,15,105,,,,,,,,
,,615ecf8f907bfe51f5a09f00,65af5632b940720aef4cd632,2024-01-23_08h06.42.939,bars,2023.2.3,Win32,60.24096386,657b66ea316d21385b68909f,,,,,,,,,,,971.2789,972.2707,,,972.7705,973.0205,,151,151,,,,,,,,,,,,,,,,bars/033.png,bars/mask004.png,,,,,,,,,,,,2,2,,,,,,,2,4,2,2,,,,,,,,,,,972.2708,972.7705,973.0205,975.4542,space,2.4018,,975.4544,54,4,976.4538,976.454,976.477,,,,0,25,25,25,1,25,155,,,,,,,,
,,615ecf8f907bfe51f5a09f00,65af5632b940720aef4cd632,2024-01-23_08h06.42.939,bars,2023.2.3,Win32,60.24096386,657b66ea316d21385b68909f,,,,,,,,,,,976.4773,977.4707,,,977.9707,978.2204,,151,151,,,,,,,,,,,,,,,,bars/046.png,bars/mask009.png,,,,,,,,,,,,3,1,,,,,,,4,6,4,6,,,,,,,,,,,977.4709,977.9706,978.2205,980.3596,space,2.1173,,980.3597,4,66,981.354,981.3541,981.3793,,,,0,26,26,26,1,155,85,,,,,,,,
,,615ecf8f907bfe51f5a09f00,65af5632b940720aef4cd632,2024-01-23_08h06.42.939,bars,2023.2.3,Win32,60.24096386,657b66ea316d21385b68909f,,,,,,,,,,,981.3795,982.3705,,,982.8709,983.121,,146,146,,,,,,,,,,,,,,,,bars/007.png,bars/mask006.png,,,,,,,,,,,,0,1,,,,,,,2,4,1,1,,,,,,,,,,,982.3705,982.8707,983.121,988.6211,space,5.4686,,988.6214,29,89,989.621,989.6211,989.644,,,,0,27,27,27,1,175,55,,,,,,,,
,,615ecf8f907bfe51f5a09f00,65af5632b940720aef4cd632,2024-01-23_08h06.42.939,bars,2023.2.3,Win32,60.24096386,657b66ea316d21385b68909f,,,,,,,,,,,989.6442,990.6374,,,991.1377,991.3876,,85,85,,,,,,,,,,,,,,,,bars/026.png,bars/mask002.png,,,,,,,,,,,,3,2,,,,,,,4,2,5,3,,,,,,,,,,,990.6375,991.1376,991.3877,995.0102,space,3.6005,,995.0103,50,0,996.0041,996.0043,996.0243,,,,0,28,28,28,1,35,85,,,,,,,,
,,615ecf8f907bfe51f5a09f00,65af5632b940720aef4cd632,2024-01-23_08h06.42.939,bars,2023.2.3,Win32,60.24096386,657b66ea316d21385b68909f,,,,,,,,,,,996.0246,997.0207,,,997.5208,997.7706,,38,38,,,,,,,,,,,,,,,,bars/035.png,bars/mask008.png,,,,,,,,,,,,0,2,,,,,,,2,0,3,0,,,,,,,,,,,997.0207,997.5206,997.7707,999.1938,space,1.4007,,999.1938,43,22,1000.1875,1000.1876,1000.2087,,,,0,29,29,29,1,175,60,,,,,,,,
,,615ecf8f907bfe51f5a09f00,65af5632b940720aef4cd632,2024-01-23_08h06.42.939,bars,2023.2.3,Win32,60.24096386,657b66ea316d21385b68909f,,,,,,,,,,,1000.209,1001.204,,,1001.7042,1001.9539,,83,83,,,,,,,,,,,,,,,,bars/001.png,bars/mask002.png,,,,,,,,,,,,0,2,,,,,,,0,0,2,0,,,,,,,,,,,1001.2041,1001.7042,1001.954,1005.2545,space,3.2765,,1005.2546,47,2,1006.2541,1006.2543,1006.2772,,,,0,30,30,30,1,130,85,,,,,,,,
,,615ecf8f907bfe51f5a09f00,65af5632b940720aef4cd632,2024-01-23_08h06.42.939,bars,2023.2.3,Win32,60.24096386,657b66ea316d21385b68909f,,,,,,,,,,,1006.2774,1007.2709,,,1007.7706,1008.0208,,165,165,,,,,,,,,,,,,,,,bars/023.png,bars/mask007.png,,,,,,,,,,,,0,1,,,,,,,2,0,1,0,,,,,,,,,,,1007.271,1007.7705,1008.021,1009.9103,space,1.8675,,1009.9104,35,50,1010.9041,1010.9043,1010.9087,,,,0,31,31,31,1,20,115,,,,,,,,
,,615ecf8f907bfe51f5a09f00,65af5632b940720aef4cd632,2024-01-23_08h06.42.939,bars,2023.2.3,Win32,60.24096386,657b66ea316d21385b68909f,,,,,,,,,,,1010.9092,1011.9042,,,1012.4046,1012.654,,40,220,,,,,,,,,,,,,,,,bars/033.png,bars/mask005.png,,,,,,,,,,,,0,1,,,,,,,0,0,0,0,,,,,,,,,,,1011.9044,1012.4045,1012.6541,1015.1376,space,2.4566,,1015.1377,15,65,1016.1374,1016.1376,1016.1588,,,,0,32,32,32,1,25,155,,,,,,,,
,,615ecf8f907bfe51f5a09f00,65af5632b940720aef4cd632,2024-01-23_08h06.42.939,bars,2023.2.3,Win32,60.24096386,657b66ea316d21385b68909f,,,,,,,,,,,1016.159,1017.1543,,,1017.6542,1017.9044,,146,146,,,,,,,,,,,,,,,,bars/009.png,bars/mask001.png,,,,,,,,,,,,0,2,,,,,,,0,2,0,2,,,,,,,,,,,1017.1544,1017.6541,1017.9045,1019.8046,space,1.8687,,1019.8046,49,41,1020.8044,1020.8045,1020.8256,,,,0,33,33,33,1,15,105,,,,,,,,
,,615ecf8f907bfe51f5a09f00,65af5632b940720aef4cd632,2024-01-23_08h06.42.939,bars,2023.2.3,Win32,60.24096386,657b66ea316d21385b68909f,,,,,,,,,,,1020.8259,1021.8208,,,1022.321,1022.571,,43,43,,,,,,,,,,,,,,,,bars/006.png,bars/mask002.png,,,,,,,,,,,,1,1,,,,,,,2,0,2,1,,,,,,,,,,,1021.8209,1022.3209,1022.5711,1026.3376,space,3.7397,,1026.3377,8,57,1027.3375,1027.3376,1027.3484,,,,0,34,34,34,1,35,100,,,,,,,,
,,615ecf8f907bfe51f5a09f00,65af5632b940720aef4cd632,2024-01-23_08h06.42.939,bars,2023.2.3,Win32,60.24096386,657b66ea316d21385b68909f,,,,,,,,,,,1027.3485,1028.3376,,,1028.8376,1029.0876,,144,144,,,,,,,,,,,,,,,,bars/049.png,bars/mask004.png,,,,,,,,,,,,0,1,,,,,,,0,2,0,1,,,,,,,,,,,1028.3377,1028.8375,1029.0877,1031.7103,space,2.601,,1031.7103,16,29,1032.7042,1032.7045,1032.7249,,,,0,35,35,35,1,160,115,,,,,,,,
,,615ecf8f907bfe51f5a09f00,65af5632b940720aef4cd632,2024-01-23_08h06.42.939,bars,2023.2.3,Win32,60.24096386,657b66ea316d21385b68909f,,,,,,,,,,,1032.7251,1033.7208,,,1034.221,1034.4707,,142,142,,,,,,,,,,,,,,,,bars/049.png,bars/mask001.png,,,,,,,,,,,,1,1,,,,,,,2,0,3,0,,,,,,,,,,,1033.7209,1034.221,1034.4708,1038.5878,space,4.0878,,1038.588,18,27,1039.5876,1039.5877,1039.6109,,,,0,36,36,36,1,160,115,,,,,,,,
,,615ecf8f907bfe51f5a09f00,65af5632b940720aef4cd632,2024-01-23_08h06.42.939,bars,2023.2.3,Win32,60.24096386,657b66ea316d21385b68909f,,,,,,,,,,,1039.6111,1040.6041,,,1041.1043,1041.3542,,146,146,,,,,,,,,,,,,,,,bars/030.png,bars/mask006.png,,,,,,,,,,,,4,1,,,,,,,4,2,5,1,,,,,,,,,,,1040.6042,1041.104,1041.3544,1044.8212,space,3.4352,,1044.8214,6,81,1045.821,1045.8211,1045.8301,,,,0,37,37,37,1,140,65,,,,,,,,
,,615ecf8f907bfe51f5a09f00,65af5632b940720aef4cd632,2024-01-23_08h06.42.939,bars,2023.2.3,Win32,60.24096386,657b66ea316d21385b68909f,,,,,,,,,,,1045.8303,1046.821,,,1047.321,1047.5708,,175,-5,,,,,,,,,,,,,,,,bars/022.png,bars/mask000.png,,,,,,,,,,,,1,2,,,,,,,2,4,2,5,,,,,,,,,,,1046.8211,1047.3209,1047.571,1049.9044,space,2.3018,,1049.9046,80,25,1050.904,1050.9041,1050.9277,,,,0,38,38,38,1,95,20,,,,,,,,
,,615ecf8f907bfe51f5a09f00,65af5632b940720aef4cd632,2024-01-23_08h06.42.939,bars,2023.2.3,Win32,60.24096386,657b66ea316d21385b68909f,,,,,,,,,,,1050.928,1051.9206,,,1052.4213,1052.671,,49,49,,,,,,,,,,,,,,,,bars/023.png,bars/mask006.png,,,,,,,,,,,,0,1,,,,,,,4,6,3,6,,,,,,,,,,,1051.9208,1052.4211,1052.6711,1054.4544,space,1.76,,1054.4546,29,66,1055.4541,1055.4543,1055.4609,,,,0,39,39,39,1,20,115,,,,,,,,
,,615ecf8f907bfe51f5a09f00,65af5632b940720aef4cd632,2024-01-23_08h06.42.939,bars,2023.2.3,Win32,60.24096386,657b66ea316d21385b68909f,,,,,,,,,,,1055.4614,1056.4542,,,1056.9545,1057.2042,,85,85,,,,,,,,,,,,,,,,bars/047.png,bars/mask002.png,,,,,,,,,,,,2,2,,,,,,,2,4,1,3,,,,,,,,,,,1056.4543,1056.9543,1057.2043,1057.5379,space,0.302,,1057.5381,70,15,1058.5375,1058.5377,1058.5419,,,,0,40,40,40,1,15,70,,,,,,,,
,,615ecf8f907bfe51f5a09f00,65af5632b940720aef4cd632,2024-01-23_08h06.42.939,bars,2023.2.3,Win32,60.24096386,657b66ea316d21385b68909f,,,,,,,,,,,1058.5426,1059.5375,,,1060.0375,1060.2876,,10,190,,,,,,,,,,,,,,,,bars/007.png,bars/mask008.png,,,,,,,,,,,,2,1,,,,,,,4,2,3,2,,,,,,,,,,,1059.5376,1060.0374,1060.2877,1062.8881,space,2.5684,,1062.8883,15,45,1063.8875,1063.8876,1063.9052,,,,0,41,41,41,1,175,55,,,,,,,,
,,615ecf8f907bfe51f5a09f00,65af5632b940720aef4cd632,2024-01-23_08h06.42.939,bars,2023.2.3,Win32,60.24096386,657b66ea316d21385b68909f,,,,,,,,,,,1063.9055,1064.9041,,,1065.4039,1065.6542,,134,134,,,,,,,,,,,,,,,,bars/029.png,bars/mask009.png,,,,,,,,,,,,0,1,,,,,,,6,0,7,1,,,,,,,,,,,1064.9043,1065.4038,1065.6543,1069.2378,space,3.5605,,1069.2379,44,89,1070.2378,1070.2379,1070.2586,,,,0,42,42,42,1,90,45,,,,,,,,
,,615ecf8f907bfe51f5a09f00,65af5632b940720aef4cd632,2024-01-23_08h06.42.939,bars,2023.2.3,Win32,60.24096386,657b66ea316d21385b68909f,,,,,,,,,,,1070.2588,1071.2541,,,1071.7544,1072.0042,,120,120,,,,,,,,,,,,,,,,bars/012.png,bars/mask003.png,,,,,,,,,,,,0,1,,,,,,,4,0,6,0,,,,,,,,,,,1071.2542,1071.7543,1072.0043,1075.8049,space,3.7687,,1075.8054,30,75,1076.8041,1076.8043,1076.8267,,,,0,43,43,43,1,90,15,,,,,,,,
,,615ecf8f907bfe51f5a09f00,65af5632b940720aef4cd632,2024-01-23_08h06.42.939,bars,2023.2.3,Win32,60.24096386,657b66ea316d21385b68909f,,,,,,,,,,,1076.827,1077.8209,,,1078.3213,1078.5707,,150,150,,,,,,,,,,,,,,,,bars/018.png,bars/mask003.png,,,,,,,,,,,,2,1,,,,,,,2,0,2,0,,,,,,,,,,,1077.821,1078.3212,1078.5708,1082.9044,space,4.3019,,1082.9046,0,60,1083.9041,1083.9042,1083.9244,,,,0,44,44,44,1,150,90,,,,,,,,
,,615ecf8f907bfe51f5a09f00,65af5632b940720aef4cd632,2024-01-23_08h06.42.939,bars,2023.2.3,Win32,60.24096386,657b66ea316d21385b68909f,,,,,,,,,,,1083.9247,1084.9207,,,1085.4211,1085.6709,,26,206,,,,,,,,,,,,,,,,bars/013.png,bars/mask001.png,,,,,,,,,,,,1,2,,,,,,,0,0,0,2,,,,,,,,,,,1084.9208,1085.421,1085.671,1088.1608,space,2.4678,,1088.1608,49,16,1089.1545,1089.1546,1089.1754,,,,0,45,45,45,1,75,10,,,,,,,,
,,615ecf8f907bfe51f5a09f00,65af5632b940720aef4cd632,2024-01-23_08h06.42.939,bars,2023.2.3,Win32,60.24096386,657b66ea316d21385b68909f,,,,,,,,,,,1089.1756,1090.1707,,,1090.6708,1090.9208,,93,93,,,,,,,,,,,,,,,,bars/047.png,bars/mask008.png,,,,,,,,,,,,0,2,,,,,,,2,2,2,1,,,,,,,,,,,1090.1709,1090.6707,1090.9209,1092.9377,space,1.9897,,1092.9378,78,23,1093.9375,1093.9375,1093.9584,,,,0,46,46,46,1,15,70,,,,,,,,
,,615ecf8f907bfe51f5a09f00,65af5632b940720aef4cd632,2024-01-23_08h06.42.939,bars,2023.2.3,Win32,60.24096386,657b66ea316d21385b68909f,,,,,,,,,,,1093.9586,1094.9545,,,1095.4543,1095.7041,,33,213,,,,,,,,,,,,,,,,bars/031.png,bars/mask005.png,,,,,,,,,,,,1,2,,,,,,,4,0,5,1,,,,,,,,,,,1094.9547,1095.4542,1095.7042,1100.5377,space,4.802,,1100.5379,87,2,1101.5373,1101.5375,1101.5585,,,,0,47,47,47,1,120,35,,,,,,,,
,,615ecf8f907bfe51f5a09f00,65af5632b940720aef4cd632,2024-01-23_08h06.42.939,bars,2023.2.3,Win32,60.24096386,657b66ea316d21385b68909f,,,,,,,,,,,1101.5588,1102.5544,,,1103.0544,1103.3042,,53,233,,,,,,,,,,,,,,,,bars/022.png,bars/mask006.png,,,,,,,,,,,,0,2,,,,,,,6,2,7,3,,,,,,,,,,,1102.5545,1103.0543,1103.3044,1107.2544,space,3.9183,,1107.2545,42,33,1108.2542,1108.2544,1108.2745,,,,0,48,48,48,1,95,20,,,,,,,,
,,615ecf8f907bfe51f5a09f00,65af5632b940720aef4cd632,2024-01-23_08h06.42.939,bars,2023.2.3,Win32,60.24096386,657b66ea316d21385b68909f,,,,,,,,,,,1108.2747,1109.2708,,,1109.7711,1110.021,,51,231,,,,,,,,,,,,,,,,bars/025.png,bars/mask003.png,,,,,,,,,,,,3,2,,,,,,,4,4,3,4,,,,,,,,,,,1109.2709,1109.771,1110.0211,1112.8085,space,2.7654,,1112.8085,54,11,1113.8042,1113.8043,1113.8245,,,,0,49,49,49,1,105,40,,,,,,,,
,,615ecf8f907bfe51f5a09f00,65af5632b940720aef4cd632,2024-01-23_08h06.42.939,bars,2023.2.3,Win32,60.24096386,657b66ea316d21385b68909f,,,,,,,,,,,,,,,,,,,,,,,,,,,,,,,,,,,,,,,,,,,,,,,,,,,,,,,,,,,,,,,,,,,,,,,,,,,,,,,,,,,,,,,,,,,,,1113.8248,1173.8215,0,1,1,1,1,sequence_tables/blk023.csv
,,615ecf8f907bfe51f5a09f00,65af5632b940720aef4cd632,2024-01-23_08h06.42.939,bars,2023.2.3,Win32,60.24096386,657b66ea316d21385b68909f,,,,,,,,,,,1191.1952,1192.1876,,,1192.688,1192.9377,,62,62,,,,,,,,,,,,,,,,bars/038.png,bars/mask000.png,,,,,,,,,,,,4,2,,,,,,,2,7,0,6,,,,,,1173.8436,1191.1713,space,17.3163,,1192.1879,1192.688,1192.9378,1198.6214,space,5.6686,,1198.6217,77,8,1199.6211,1199.6213,1199.6441,,,,0,0,0,0,1,165,70,,,,,,,,
,,615ecf8f907bfe51f5a09f00,65af5632b940720aef4cd632,2024-01-23_08h06.42.939,bars,2023.2.3,Win32,60.24096386,657b66ea316d21385b68909f,,,,,,,,,,,1199.6444,1200.6378,,,1201.1375,1201.3878,,143,143,,,,,,,,,,,,,,,,bars/049.png,bars/mask005.png,,,,,,,,,,,,0,1,,,,,,,0,9,1,10,,,,,,,,,,,1200.6379,1201.1374,1201.3879,1206.5881,space,5.171,,1206.5883,17,28,1207.5877,1207.5879,1207.6098,,,,0,1,1,1,1,160,115,,,,,,,,
,,615ecf8f907bfe51f5a09f00,65af5632b940720aef4cd632,2024-01-23_08h06.42.939,bars,2023.2.3,Win32,60.24096386,657b66ea316d21385b68909f,,,,,,,,,,,1207.6101,1208.6043,,,1209.1047,1209.3543,,112,112,,,,,,,,,,,,,,,,bars/026.png,bars/mask009.png,,,,,,,,,,,,1,2,,,,,,,0,7,1,7,,,,,,,,,,,1208.6043,1209.1045,1209.3544,1213.5881,space,4.202,,1213.5883,77,27,1214.5876,1214.5878,1214.6097,,,,0,2,2,2,1,35,85,,,,,,,,
,,615ecf8f907bfe51f5a09f00,65af5632b940720aef4cd632,2024-01-23_08h06.42.939,bars,2023.2.3,Win32,60.24096386,657b66ea316d21385b68909f,,,,,,,,,,,1214.6099,1215.6042,,,1216.1046,1216.3544,,30,30,,,,,,,,,,,,,,,,bars/041.png,bars/mask009.png,,,,,,,,,,,,1,1,,,,,,,2,9,1,9,,,,,,,,,,,1215.6044,1216.1046,1216.3546,1217.606,space,1.2287,,1217.6061,10,55,1218.6043,1218.6045,1218.6086,,,,0,3,3,3,1,20,85,,,,,,,,
,,615ecf8f907bfe51f5a09f00,65af5632b940720aef4cd632,2024-01-23_08h06.42.939,bars,2023.2.3,Win32,60.24096386,657b66ea316d21385b68909f,,,,,,,,,,,1218.6092,1219.6047,,,1220.1046,1220.3544,,172,172,,,,,,,,,,,,,,,,bars/024.png,bars/mask000.png,,,,,,,,,,,,9,2,,,,,,,4,10,4,10,,,,,,,,,,,1219.6048,1220.1044,1220.3545,1223.1881,space,2.8025,,1223.1883,52,2,1224.1878,1224.1879,1224.2097,,,,0,4,4,4,1,120,170,,,,,,,,
,,615ecf8f907bfe51f5a09f00,65af5632b940720aef4cd632,2024-01-23_08h06.42.939,bars,2023.2.3,Win32,60.24096386,657b66ea316d21385b68909f,,,,,,,,,,,1224.2099,1225.2043,,,1225.7046,1225.9544,,126,126,,,,,,,,,,,,,,,,bars/028.png,bars/mask003.png,,,,,,,,,,,,8,2,,,,,,,2,10,0,10,,,,,,,,,,,1225.2044,1225.7044,1225.9546,1230.6056,space,4.6284,,1230.6057,81,6,1231.6044,1231.6047,1231.6269,,,,0,5,5,5,1,45,120,,,,,,,,
,,615ecf8f907bfe51f5a09f00,65af5632b940720aef4cd632,2024-01-23_08h06.42.939,bars,2023.2.3,Win32,60.24096386,657b66ea316d21385b68909f,,,,,,,,,,,1231.6272,1232.621,,,1233.1214,1233.371,,142,142,,,,,,,,,,,,,,,,bars/035.png,bars/mask007.png,,,,,,,,,,,,0,1,,,,,,,4,10,5,9,,,,,,,,,,,1232.6211,1233.1213,1233.3711,1235.5215,space,2.1236,,1235.5216,33,82,1236.5211,1236.5212,1236.5439,,,,0,6,6,6,1,175,60,,,,,,,,
,,615ecf8f907bfe51f5a09f00,65af5632b940720aef4cd632,2024-01-23_08h06.42.939,bars,2023.2.3,Win32,60.24096386,657b66ea316d21385b68909f,,,,,,,,,,,1236.5441,1237.538,,,1238.038,1238.2881,,83,83,,,,,,,,,,,,,,,,bars/038.png,bars/mask006.png,,,,,,,,,,,,5,2,,,,,,,2,8,2,8,,,,,,,,,,,1237.538,1238.0379,1238.2883,1242.0056,space,3.6951,,1242.0058,82,13,1243.0043,1243.0044,1243.0254,,,,0,7,7,7,1,165,70,,,,,,,,
,,615ecf8f907bfe51f5a09f00,65af5632b940720aef4cd632,2024-01-23_08h06.42.939,bars,2023.2.3,Win32,60.24096386,657b66ea316d21385b68909f,,,,,,,,,,,1243.0256,1244.021,,,1244.5212,1244.7713,,74,74,,,,,,,,,,,,,,,,bars/029.png,bars/mask009.png,,,,,,,,,,,,0,1,,,,,,,0,10,0,10,,,,,,,,,,,1244.0211,1244.5211,1244.7713,1247.9714,space,3.1715,,1247.9715,16,29,1248.9707,1248.9708,1248.9779,,,,0,8,8,8,1,90,45,,,,,,,,
,,615ecf8f907bfe51f5a09f00,65af5632b940720aef4cd632,2024-01-23_08h06.42.939,bars,2023.2.3,Win32,60.24096386,657b66ea316d21385b68909f,,,,,,,,,,,1248.978,1249.9709,,,1250.4713,1250.7212,,51,51,,,,,,,,,,,,,,,,bars/016.png,bars/mask005.png,,,,,,,,,,,,1,1,,,,,,,2,8,2,8,,,,,,,,,,,1249.971,1250.4712,1250.7214,1253.7778,space,3.0346,,1253.7779,11,66,1254.7713,1254.7714,1254.7925,,,,0,9,9,9,1,40,165,,,,,,,,
,,615ecf8f907bfe51f5a09f00,65af5632b940720aef4cd632,2024-01-23_08h06.42.939,bars,2023.2.3,Win32,60.24096386,657b66ea316d21385b68909f,,,,,,,,,,,1254.7926,1255.7877,,,1256.2878,1256.5379,,35,35,,,,,,,,,,,,,,,,bars/035.png,bars/mask003.png,,,,,,,,,,,,2,2,,,,,,,0,10,0,10,,,,,,,,,,,1255.7879,1256.2877,1256.538,1259.9718,space,3.4046,,1259.972,40,25,1260.9712,1260.9713,1260.9947,,,,0,10,10,10,1,175,60,,,,,,,,
,,615ecf8f907bfe51f5a09f00,65af5632b940720aef4cd632,2024-01-23_08h06.42.939,bars,2023.2.3,Win32,60.24096386,657b66ea316d21385b68909f,,,,,,,,,,,1260.9948,1261.9878,,,1262.4881,1262.7378,,106,106,,,,,,,,,,,,,,,,bars/006.png,bars/mask002.png,,,,,,,,,,,,6,2,,,,,,,0,8,1,8,,,,,,,,,,,1261.9879,1262.4879,1262.7379,1264.4057,space,1.6448,,1264.4058,71,6,1265.4045,1265.4046,1265.4076,,,,0,11,11,11,1,35,100,,,,,,,,
,,615ecf8f907bfe51f5a09f00,65af5632b940720aef4cd632,2024-01-23_08h06.42.939,bars,2023.2.3,Win32,60.24096386,657b66ea316d21385b68909f,,,,,,,,,,,1265.4081,1266.41,,,1266.9048,1267.1545,,55,55,,,,,,,,,,,,,,,,bars/010.png,bars/mask001.png,,,,,,,,,,,,5,2,,,,,,,0,6,1,5,,,,,,,,,,,1266.41,1266.9047,1267.1547,1271.2048,space,4.0204,,1271.2051,70,0,1272.2045,1272.2046,1272.227,,,,0,12,12,12,1,165,55,,,,,,,,
,,615ecf8f907bfe51f5a09f00,65af5632b940720aef4cd632,2024-01-23_08h06.42.939,bars,2023.2.3,Win32,60.24096386,657b66ea316d21385b68909f,,,,,,,,,,,1272.2272,1273.2213,,,1273.7213,1273.9711,,103,103,,,,,,,,,,,,,,,,bars/009.png,bars/mask005.png,,,,,,,,,,,,2,2,,,,,,,2,4,3,2,,,,,,,,,,,1273.2214,1273.7211,1273.9713,1276.638,space,2.6434,,1276.6382,88,2,1277.6379,1277.6379,1277.6573,,,,0,13,13,13,1,15,105,,,,,,,,
,,615ecf8f907bfe51f5a09f00,65af5632b940720aef4cd632,2024-01-23_08h06.42.939,bars,2023.2.3,Win32,60.24096386,657b66ea316d21385b68909f,,,,,,,,,,,1277.6573,1278.6544,,,1279.1552,1279.4046,,85,-95,,,,,,,,,,,,,,,,bars/026.png,bars/mask000.png,,,,,,,,,,,,1,2,,,,,,,0,2,0,1,,,,,,,,,,,1278.6545,1279.1548,1279.4048,1283.0716,space,3.6418,,1283.0718,50,0,1284.0714,1284.0715,1284.0932,,,,0,14,14,14,1,35,85,,,,,,,,
,,615ecf8f907bfe51f5a09f00,65af5632b940720aef4cd632,2024-01-23_08h06.42.939,bars,2023.2.3,Win32,60.24096386,657b66ea316d21385b68909f,,,,,,,,,,,1284.0934,1285.0879,,,1285.5881,1285.8379,,172,-8,,,,,,,,,,,,,,,,bars/016.png,bars/mask006.png,,,,,,,,,,,,1,2,,,,,,,2,0,2,1,,,,,,,,,,,1285.0881,1285.588,1285.838,1288.4716,space,2.6086,,1288.4718,48,7,1289.4711,1289.4714,1289.4929,,,,0,15,15,15,1,40,165,,,,,,,,
,,615ecf8f907bfe51f5a09f00,65af5632b940720aef4cd632,2024-01-23_08h06.42.939,bars,2023.2.3,Win32,60.24096386,657b66ea316d21385b68909f,,,,,,,,,,,1289.4932,1290.4875,,,1290.988,1291.2378,,164,164,,,,,,,,,,,,,,,,bars/003.png,bars/mask001.png,,,,,,,,,,,,1,2,,,,,,,0,2,0,3,,,,,,,,,,,1290.4876,1290.9878,1291.2381,1293.955,space,2.685,,1293.9552,41,24,1294.9547,1294.9548,1294.9658,,,,0,16,16,16,1,25,140,,,,,,,,
,,615ecf8f907bfe51f5a09f00,65af5632b940720aef4cd632,2024-01-23_08h06.42.939,bars,2023.2.3,Win32,60.24096386,657b66ea316d21385b68909f,,,,,,,,,,,1294.9659,1295.9545,,,1296.4549,1296.7048,,66,66,,,,,,,,,,,,,,,,bars/026.png,bars/mask003.png,,,,,,,,,,,,0,2,,,,,,,2,0,2,0,,,,,,,,,,,1295.9547,1296.4547,1296.7049,1300.4216,space,3.694,,1300.4217,31,19,1301.4212,1301.4212,1301.4429,,,,0,17,17,17,1,35,85,,,,,,,,
,,615ecf8f907bfe51f5a09f00,65af5632b940720aef4cd632,2024-01-23_08h06.42.939,bars,2023.2.3,Win32,60.24096386,657b66ea316d21385b68909f,,,,,,,,,,,1301.4432,1302.4378,,,1302.9382,1303.188,,77,77,,,,,,,,,,,,,,,,bars/044.png,bars/mask001.png,,,,,,,,,,,,5,1,,,,,,,4,2,5,1,,,,,,,,,,,1302.4379,1302.9381,1303.188,1306.8107,space,3.6008,,1306.8108,2,78,1307.8044,1307.8045,1307.8278,,,,0,18,18,18,1,75,155,,,,,,,,
,,615ecf8f907bfe51f5a09f00,65af5632b940720aef4cd632,2024-01-23_08h06.42.939,bars,2023.2.3,Win32,60.24096386,657b66ea316d21385b68909f,,,,,,,,,,,1307.8281,1308.8214,,,1309.3213,1309.5604,,53,53,,,,,,,,,,,,,,,,bars/017.png,bars/mask002.png,,,,,,,,,,,,4,2,,,,,,,2,4,3,5,,,,,,,,,,,1308.8215,1309.3212,1309.5604,1311.1443,space,1.5677,,1311.1443,88,8,1312.1378,1312.1381,1312.1599,,,,0,19,19,19,1,145,45,,,,,,,,
,,615ecf8f907bfe51f5a09f00,65af5632b940720aef4cd632,2024-01-23_08h06.42.939,bars,2023.2.3,Win32,60.24096386,657b66ea316d21385b68909f,,,,,,,,,,,1312.1602,1313.1545,,,1313.6551,1313.9046,,101,101,,,,,,,,,,,,,,,,bars/037.png,bars/mask009.png,,,,,,,,,,,,7,2,,,,,,,4,6,4,8,,,,,,,,,,,1313.1547,1313.6549,1313.9047,1315.705,space,1.7752,,1315.7051,49,4,1316.7045,1316.7047,1316.727,,,,0,20,20,20,1,150,105,,,,,,,,
,,615ecf8f907bfe51f5a09f00,65af5632b940720aef4cd632,2024-01-23_08h06.42.939,bars,2023.2.3,Win32,60.24096386,657b66ea316d21385b68909f,,,,,,,,,,,1316.7273,1317.7217,,,1318.2217,1318.4713,,6,6,,,,,,,,,,,,,,,,bars/032.png,bars/mask009.png,,,,,,,,,,,,2,2,,,,,,,2,4,3,4,,,,,,,,,,,1317.7219,1318.2215,1318.4714,1321.1883,space,2.6867,,1321.1884,61,14,1322.1881,1322.1882,1322.2089,,,,0,21,21,21,1,125,20,,,,,,,,
,,615ecf8f907bfe51f5a09f00,65af5632b940720aef4cd632,2024-01-23_08h06.42.939,bars,2023.2.3,Win32,60.24096386,657b66ea316d21385b68909f,,,,,,,,,,,1322.2092,1323.2047,,,1323.7048,1323.9547,,37,37,,,,,,,,,,,,,,,,bars/025.png,bars/mask002.png,,,,,,,,,,,,2,2,,,,,,,4,2,3,2,,,,,,,,,,,1323.2049,1323.7046,1323.9549,1326.2548,space,2.2714,,1326.2549,68,3,1327.2547,1327.2548,1327.2771,,,,0,22,22,22,1,105,40,,,,,,,,
,,615ecf8f907bfe51f5a09f00,65af5632b940720aef4cd632,2024-01-23_08h06.42.939,bars,2023.2.3,Win32,60.24096386,657b66ea316d21385b68909f,,,,,,,,,,,1327.2774,1328.2715,,,1328.7713,1329.0212,,68,248,,,,,,,,,,,,,,,,bars/030.png,bars/mask003.png,,,,,,,,,,,,3,2,,,,,,,2,4,1,3,,,,,,,,,,,1328.2715,1328.7712,1329.0213,1331.8879,space,2.835,,1331.8879,72,3,1332.8879,1332.8881,1332.9088,,,,0,23,23,23,1,140,65,,,,,,,,
,,615ecf8f907bfe51f5a09f00,65af5632b940720aef4cd632,2024-01-23_08h06.42.939,bars,2023.2.3,Win32,60.24096386,657b66ea316d21385b68909f,,,,,,,,,,,1332.909,1333.9046,,,1334.4046,1334.6543,,147,-33,,,,,,,,,,,,,,,,bars/016.png,bars/mask003.png,,,,,,,,,,,,1,2,,,,,,,0,2,0,3,,,,,,,,,,,1333.9047,1334.4045,1334.6545,1337.555,space,2.8725,,1337.5552,73,18,1338.5546,1338.5548,1338.5773,,,,0,24,24,24,1,40,165,,,,,,,,
,,615ecf8f907bfe51f5a09f00,65af5632b940720aef4cd632,2024-01-23_08h06.42.939,bars,2023.2.3,Win32,60.24096386,657b66ea316d21385b68909f,,,,,,,,,,,1338.5775,1339.5711,,,1340.0715,1340.3211,,51,231,,,,,,,,,,,,,,,,bars/029.png,bars/mask003.png,,,,,,,,,,,,0,2,,,,,,,2,0,4,0,,,,,,,,,,,1339.5712,1340.0713,1340.3212,1343.888,space,3.5404,,1343.8881,39,6,1344.8878,1344.8878,1344.895,,,,0,25,25,25,1,90,45,,,,,,,,
,,615ecf8f907bfe51f5a09f00,65af5632b940720aef4cd632,2024-01-23_08h06.42.939,bars,2023.2.3,Win32,60.24096386,657b66ea316d21385b68909f,,,,,,,,,,,1344.8951,1345.8876,,,1346.3879,1346.6377,,98,98,,,,,,,,,,,,,,,,bars/021.png,bars/mask009.png,,,,,,,,,,,,0,2,,,,,,,0,0,1,1,,,,,,,,,,,1345.8877,1346.3878,1346.6378,1348.4216,space,1.7527,,1348.4217,57,28,1349.4213,1349.4214,1349.4239,,,,0,26,26,26,1,155,70,,,,,,,,
,,615ecf8f907bfe51f5a09f00,65af5632b940720aef4cd632,2024-01-23_08h06.42.939,bars,2023.2.3,Win32,60.24096386,657b66ea316d21385b68909f,,,,,,,,,,,1349.4245,1350.4212,,,1350.9214,1351.1712,,120,120,,,,,,,,,,,,,,,,bars/009.png,bars/mask002.png,,,,,,,,,,,,0,2,,,,,,,2,0,3,0,,,,,,,,,,,1350.4213,1350.9213,1351.1713,1352.0381,space,0.8354,,1352.0382,75,15,1353.0379,1353.038,1353.0403,,,,0,27,27,27,1,15,105,,,,,,,,
,,615ecf8f907bfe51f5a09f00,65af5632b940720aef4cd632,2024-01-23_08h06.42.939,bars,2023.2.3,Win32,60.24096386,657b66ea316d21385b68909f,,,,,,,,,,,1353.0408,1354.0382,,,1354.5383,1354.788,,0,180,,,,,,,,,,,,,,,,bars/003.png,bars/mask004.png,,,,,,,,,,,,0,1,,,,,,,0,2,0,2,,,,,,,,,,,1354.0383,1354.5382,1354.7882,1358.1213,space,3.3059,,1358.1215,25,40,1359.1213,1359.1215,1359.144,,,,0,28,28,28,1,25,140,,,,,,,,
,,615ecf8f907bfe51f5a09f00,65af5632b940720aef4cd632,2024-01-23_08h06.42.939,bars,2023.2.3,Win32,60.24096386,657b66ea316d21385b68909f,,,,,,,,,,,1359.1444,1360.138,,,1360.6382,1360.8883,,44,224,,,,,,,,,,,,,,,,bars/007.png,bars/mask003.png,,,,,,,,,,,,0,2,,,,,,,0,0,0,0,,,,,,,,,,,1360.1381,1360.6381,1360.8884,1366.0716,space,5.1589,,1366.0717,49,11,1367.0713,1367.0714,1367.0937,,,,0,29,29,29,1,175,55,,,,,,,,
,,615ecf8f907bfe51f5a09f00,65af5632b940720aef4cd632,2024-01-23_08h06.42.939,bars,2023.2.3,Win32,60.24096386,657b66ea316d21385b68909f,,,,,,,,,,,1367.094,1368.088,,,1368.5882,1368.8381,,1,181,,,,,,,,,,,,,,,,bars/036.png,bars/mask009.png,,,,,,,,,,,,0,2,,,,,,,0,0,1,0,,,,,,,,,,,1368.0881,1368.5881,1368.8382,1371.1217,space,2.2518,,1371.1218,36,19,1372.1213,1372.1215,1372.1429,,,,0,30,30,30,1,145,20,,,,,,,,
,,615ecf8f907bfe51f5a09f00,65af5632b940720aef4cd632,2024-01-23_08h06.42.939,bars,2023.2.3,Win32,60.24096386,657b66ea316d21385b68909f,,,,,,,,,,,1372.1431,1373.1381,,,1373.638,1373.8882,,91,91,,,,,,,,,,,,,,,,bars/018.png,bars/mask004.png,,,,,,,,,,,,2,2,,,,,,,2,0,2,2,,,,,,,,,,,1373.1382,1373.6379,1373.8882,1376.2108,space,2.3008,,1376.2109,59,1,1377.2047,1377.2049,1377.227,,,,0,31,31,31,1,150,90,,,,,,,,
,,615ecf8f907bfe51f5a09f00,65af5632b940720aef4cd632,2024-01-23_08h06.42.939,bars,2023.2.3,Win32,60.24096386,657b66ea316d21385b68909f,,,,,,,,,,,1377.2272,1378.2213,,,1378.7216,1378.9712,,178,-2,,,,,,,,,,,,,,,,bars/033.png,bars/mask000.png,,,,,,,,,,,,0,2,,,,,,,4,2,4,1,,,,,,,,,,,1378.2214,1378.7215,1378.9713,1382.4883,space,3.4911,,1382.4885,27,23,1383.488,1383.4881,1383.5114,,,,0,32,32,32,1,25,155,,,,,,,,
,,615ecf8f907bfe51f5a09f00,65af5632b940720aef4cd632,2024-01-23_08h06.42.939,bars,2023.2.3,Win32,60.24096386,657b66ea316d21385b68909f,,,,,,,,,,,1383.5117,1384.5046,,,1385.0049,1385.2555,,59,59,,,,,,,,,,,,,,,,bars/035.png,bars/mask003.png,,,,,,,,,,,,4,2,,,,,,,6,4,7,4,,,,,,,,,,,1384.5047,1385.0047,1385.2557,1389.3879,space,4.103,,1389.388,64,1,1390.388,1390.3881,1390.4088,,,,0,33,33,33,1,175,60,,,,,,,,
,,615ecf8f907bfe51f5a09f00,65af5632b940720aef4cd632,2024-01-23_08h06.42.939,bars,2023.2.3,Win32,60.24096386,657b66ea316d21385b68909f,,,,,,,,,,,1390.409,1391.4045,,,1391.9047,1392.1548,,152,152,,,,,,,,,,,,,,,,bars/043.png,bars/mask000.png,,,,,,,,,,,,1,2,,,,,,,8,2,8,2,,,,,,,,,,,1391.4047,1391.9047,1392.1549,1394.7383,space,2.5521,,1394.7385,58,22,1395.738,1395.7381,1395.7587,,,,0,34,34,34,1,30,130,,,,,,,,
,,615ecf8f907bfe51f5a09f00,65af5632b940720aef4cd632,2024-01-23_08h06.42.939,bars,2023.2.3,Win32,60.24096386,657b66ea316d21385b68909f,,,,,,,,,,,1395.759,1396.7546,,,1397.2549,1397.5047,,136,136,,,,,,,,,,,,,,,,bars/028.png,bars/mask001.png,,,,,,,,,,,,0,2,,,,,,,10,0,10,0,,,,,,,,,,,1396.7548,1397.2548,1397.505,1400.3216,space,2.7851,,1400.3218,89,16,1401.3213,1401.3213,1401.3428,,,,0,35,35,35,1,45,120,,,,,,,,
,,615ecf8f907bfe51f5a09f00,65af5632b940720aef4cd632,2024-01-23_08h06.42.939,bars,2023.2.3,Win32,60.24096386,657b66ea316d21385b68909f,,,,,,,,,,,1401.343,1402.338,,,1402.838,1403.0879,,57,57,,,,,,,,,,,,,,,,bars/047.png,bars/mask005.png,,,,,,,,,,,,0,2,,,,,,,8,0,9,0,,,,,,,,,,,1402.3382,1402.8379,1403.088,1405.9219,space,2.8068,,1405.922,42,13,1406.9211,1406.9213,1406.9305,,,,0,36,36,36,1,15,70,,,,,,,,
,,615ecf8f907bfe51f5a09f00,65af5632b940720aef4cd632,2024-01-23_08h06.42.939,bars,2023.2.3,Win32,60.24096386,657b66ea316d21385b68909f,,,,,,,,,,,1406.9306,1407.9215,,,1408.4216,1408.6713,,74,74,,,,,,,,,,,,,,,,bars/017.png,bars/mask001.png,,,,,,,,,,,,0,2,,,,,,,10,2,9,3,,,,,,,,,,,1407.9216,1408.4216,1408.6714,1410.7214,space,2.0181,,1410.7215,71,29,1411.7213,1411.7215,1411.7241,,,,0,37,37,37,1,145,45,,,,,,,,
,,615ecf8f907bfe51f5a09f00,65af5632b940720aef4cd632,2024-01-23_08h06.42.939,bars,2023.2.3,Win32,60.24096386,657b66ea316d21385b68909f,,,,,,,,,,,1411.7246,1412.7214,,,1413.2216,1413.4714,,96,96,,,,,,,,,,,,,,,,bars/002.png,bars/mask003.png,,,,,,,,,,,,0,2,,,,,,,8,0,9,0,,,,,,,,,,,1412.7214,1413.2215,1413.4715,1415.805,space,2.3032,,1415.8051,34,11,1416.8046,1416.8047,1416.8269,,,,0,38,38,38,1,130,85,,,,,,,,
,,615ecf8f907bfe51f5a09f00,65af5632b940720aef4cd632,2024-01-23_08h06.42.939,bars,2023.2.3,Win32,60.24096386,657b66ea316d21385b68909f,,,,,,,,,,,1416.8271,1417.8213,,,1418.3216,1418.5717,,98,98,,,,,,,,,,,,,,,,bars/042.png,bars/mask006.png,,,,,,,,,,,,0,2,,,,,,,10,0,10,0,,,,,,,,,,,1417.8216,1418.3214,1418.5718,1420.3111,space,1.7174,,1420.3112,47,23,1421.3048,1421.305,1421.3071,,,,0,39,39,39,1,145,75,,,,,,,,
,,615ecf8f907bfe51f5a09f00,65af5632b940720aef4cd632,2024-01-23_08h06.42.939,bars,2023.2.3,Win32,60.24096386,657b66ea316d21385b68909f,,,,,,,,,,,1421.3076,1422.3049,,,1422.8051,1423.0547,,134,134,,,,,,,,,,,,,,,,bars/015.png,bars/mask005.png,,,,,,,,,,,,2,1,,,,,,,10,0,10,0,,,,,,,,,,,1422.305,1422.805,1423.0548,1424.0056,space,0.9282,,1424.0058,24,26,1425.0046,1425.0047,1425.0079,,,,0,40,40,40,1,110,160,,,,,,,,
,,615ecf8f907bfe51f5a09f00,65af5632b940720aef4cd632,2024-01-23_08h06.42.939,bars,2023.2.3,Win32,60.24096386,657b66ea316d21385b68909f,,,,,,,,,,,1425.008,1426.0046,,,1426.5049,1426.7549,,168,168,,,,,,,,,,,,,,,,bars/018.png,bars/mask004.png,,,,,,,,,,,,2,1,,,,,,,8,0,6,0,,,,,,,,,,,1426.0047,1426.5047,1426.755,1427.7883,space,1.0042,,1427.7885,18,78,1428.788,1428.7881,1428.7907,,,,0,41,41,41,1,150,90,,,,,,,,
,,615ecf8f907bfe51f5a09f00,65af5632b940720aef4cd632,2024-01-23_08h06.42.939,bars,2023.2.3,Win32,60.24096386,657b66ea316d21385b68909f,,,,,,,,,,,1428.7913,1429.7882,,,1430.2881,1430.5381,,129,129,,,,,,,,,,,,,,,,bars/023.png,bars/mask005.png,,,,,,,,,,,,2,2,,,,,,,10,2,10,3,,,,,,,,,,,1429.7884,1430.288,1430.5383,1431.3717,space,0.8051,,1431.3718,71,14,1432.3714,1432.3716,1432.3762,,,,0,42,42,42,1,20,115,,,,,,,,
,,615ecf8f907bfe51f5a09f00,65af5632b940720aef4cd632,2024-01-23_08h06.42.939,bars,2023.2.3,Win32,60.24096386,657b66ea316d21385b68909f,,,,,,,,,,,1432.3767,1433.3715,,,1433.8716,1434.1216,,150,-30,,,,,,,,,,,,,,,,bars/004.png,bars/mask008.png,,,,,,,,,,,,1,2,,,,,,,8,4,9,4,,,,,,,,,,,1433.3715,1433.8714,1434.1216,1437.6602,space,3.517,,1437.6603,55,25,1438.6546,1438.6547,1438.6769,,,,0,43,43,43,1,25,125,,,,,,,,
,,615ecf8f907bfe51f5a09f00,65af5632b940720aef4cd632,2024-01-23_08h06.42.939,bars,2023.2.3,Win32,60.24096386,657b66ea316d21385b68909f,,,,,,,,,,,1438.6771,1439.6713,,,1440.1714,1440.4216,,52,52,,,,,,,,,,,,,,,,bars/031.png,bars/mask004.png,,,,,,,,,,,,0,2,,,,,,,10,2,9,1,,,,,,,,,,,1439.6715,1440.1714,1440.4217,1443.8384,space,3.3858,,1443.8385,68,17,1444.8382,1444.8383,1444.859,,,,0,44,44,44,1,120,35,,,,,,,,
,,615ecf8f907bfe51f5a09f00,65af5632b940720aef4cd632,2024-01-23_08h06.42.939,bars,2023.2.3,Win32,60.24096386,657b66ea316d21385b68909f,,,,,,,,,,,1444.8592,1445.8546,,,1446.3551,1446.6047,,172,-8,,,,,,,,,,,,,,,,bars/032.png,bars/mask003.png,,,,,,,,,,,,0,2,,,,,,,8,0,8,0,,,,,,,,,,,1445.8548,1446.3549,1446.6049,1447.6551,space,1.0259,,1447.6552,47,28,1448.6548,1448.655,1448.6576,,,,0,45,45,45,1,125,20,,,,,,,,
,,615ecf8f907bfe51f5a09f00,65af5632b940720aef4cd632,2024-01-23_08h06.42.939,bars,2023.2.3,Win32,60.24096386,657b66ea316d21385b68909f,,,,,,,,,,,1448.658,1449.6548,,,1450.1552,1450.4048,,44,224,,,,,,,,,,,,,,,,bars/031.png,bars/mask005.png,,,,,,,,,,,,1,2,,,,,,,6,0,8,1,,,,,,,,,,,1449.6549,1450.155,1450.405,1453.8946,space,3.4676,,1453.8947,76,9,1454.888,1454.8881,1454.9088,,,,0,46,46,46,1,120,35,,,,,,,,
,,615ecf8f907bfe51f5a09f00,65af5632b940720aef4cd632,2024-01-23_08h06.42.939,bars,2023.2.3,Win32,60.24096386,657b66ea316d21385b68909f,,,,,,,,,,,1454.9091,1455.9047,,,1456.4051,1456.6547,,5,185,,,,,,,,,,,,,,,,bars/003.png,bars/mask006.png,,,,,,,,,,,,2,1,,,,,,,8,0,7,0,,,,,,,,,,,1455.9047,1456.4051,1456.6548,1457.5217,space,0.8509,,1457.5218,20,45,1458.5216,1458.5217,1458.5261,,,,0,47,47,47,1,25,140,,,,,,,,
,,615ecf8f907bfe51f5a09f00,65af5632b940720aef4cd632,2024-01-23_08h06.42.939,bars,2023.2.3,Win32,60.24096386,657b66ea316d21385b68909f,,,,,,,,,,,1458.5265,1459.5214,,,1460.0218,1460.271,,11,11,,,,,,,,,,,,,,,,bars/040.png,bars/mask000.png,,,,,,,,,,,,2,2,,,,,,,6,2,6,3,,,,,,,,,,,1459.5216,1460.0217,1460.2711,1463.3385,space,3.0354,,1463.3387,51,6,1464.338,1464.338,1464.3518,,,,0,48,48,48,1,140,5,,,,,,,,
,,615ecf8f907bfe51f5a09f00,65af5632b940720aef4cd632,2024-01-23_08h06.42.939,bars,2023.2.3,Win32,60.24096386,657b66ea316d21385b68909f,,,,,,,,,,,1464.3518,1465.3548,,,1465.855,1466.1047,,161,-19,,,,,,,,,,,,,,,,bars/005.png,bars/mask000.png,,,,,,,,,,,,1,2,,,,,,,4,4,4,3,,,,,,,,,,,1465.3548,1465.855,1466.1048,1470.1053,space,3.9739,,1470.1055,29,21,1471.1048,1471.1048,1471.127,,,,0,49,49,49,1,10,140,,,,,,,,
,,615ecf8f907bfe51f5a09f00,65af5632b940720aef4cd632,2024-01-23_08h06.42.939,bars,2023.2.3,Win32,60.24096386,657b66ea316d21385b68909f,,,,,,,,,,,,,,,,,,,,,,,,,,,,,,,,,,,,,,,,,,,,,,,,,,,,,,,,,,,,,,,,,,,,,,,,,,,,,,,,,,,,,,,,,,,,,1471.1273,1531.1249,0,2,2,4,1,sequence_tables/blk019.csv
,,615ecf8f907bfe51f5a09f00,65af5632b940720aef4cd632,2024-01-23_08h06.42.939,bars,2023.2.3,Win32,60.24096386,657b66ea316d21385b68909f,,,,,,,,,,,1550.4954,1551.4883,,,1551.9886,1552.2382,,15,195,,,,,,,,,,,,,,,,bars/018.png,bars/mask009.png,,,,,,,,,,,,0,1,,,,,,,8,1,8,0,,,,,,1531.1302,1550.4715,space,19.3252,,1551.4885,1551.9885,1552.2383,1556.4218,space,4.1527,,1556.422,45,75,1557.4216,1557.4217,1557.4441,,,,0,0,0,0,1,150,90,,,,,,,,
,,615ecf8f907bfe51f5a09f00,65af5632b940720aef4cd632,2024-01-23_08h06.42.939,bars,2023.2.3,Win32,60.24096386,657b66ea316d21385b68909f,,,,,,,,,,,1557.4444,1558.4381,,,1558.9384,1559.1886,,132,132,,,,,,,,,,,,,,,,bars/014.png,bars/mask008.png,,,,,,,,,,,,0,2,,,,,,,6,3,5,3,,,,,,,,,,,1558.4383,1558.9382,1559.1886,1561.7718,space,2.5523,,1561.772,52,48,1562.7718,1562.7719,1562.7943,,,,0,1,1,1,1,80,0,,,,,,,,
,,615ecf8f907bfe51f5a09f00,65af5632b940720aef4cd632,2024-01-23_08h06.42.939,bars,2023.2.3,Win32,60.24096386,657b66ea316d21385b68909f,,,,,,,,,,,1562.7945,1563.7883,,,1564.2883,1564.5383,,158,158,,,,,,,,,,,,,,,,bars/007.png,bars/mask003.png,,,,,,,,,,,,2,1,,,,,,,4,5,5,6,,,,,,,,,,,1563.7885,1564.2882,1564.5384,1565.7551,space,1.1852,,1565.7552,17,77,1566.7549,1566.755,1566.7719,,,,0,2,2,2,1,175,55,,,,,,,,
,,615ecf8f907bfe51f5a09f00,65af5632b940720aef4cd632,2024-01-23_08h06.42.939,bars,2023.2.3,Win32,60.24096386,657b66ea316d21385b68909f,,,,,,,,,,,1566.772,1567.7719,,,1568.2717,1568.5216,,174,-6,,,,,,,,,,,,,,,,bars/007.png,bars/mask008.png,,,,,,,,,,,,6,1,,,,,,,6,3,6,2,,,,,,,,,,,1567.7719,1568.2716,1568.5217,1572.2384,space,3.7009,,1572.2385,1,61,1573.2383,1573.2384,1573.2588,,,,0,3,3,3,1,175,55,,,,,,,,
,,615ecf8f907bfe51f5a09f00,65af5632b940720aef4cd632,2024-01-23_08h06.42.939,bars,2023.2.3,Win32,60.24096386,657b66ea316d21385b68909f,,,,,,,,,,,1573.259,1574.255,,,1574.7552,1575.0051,,173,-7,,,,,,,,,,,,,,,,bars/014.png,bars/mask003.png,,,,,,,,,,,,0,2,,,,,,,8,1,6,0,,,,,,,,,,,1574.2552,1574.7551,1575.0052,1580.1104,space,5.0835,,1580.1105,87,7,1581.1049,1581.1051,1581.1282,,,,0,4,4,4,1,80,0,,,,,,,,
,,615ecf8f907bfe51f5a09f00,65af5632b940720aef4cd632,2024-01-23_08h06.42.939,bars,2023.2.3,Win32,60.24096386,657b66ea316d21385b68909f,,,,,,,,,,,1581.1284,1582.1216,,,1582.6218,1582.8717,,122,122,,,,,,,,,,,,,,,,bars/027.png,bars/mask000.png,,,,,,,,,,,,6,1,,,,,,,10,3,10,3,,,,,,,,,,,1582.1217,1582.6217,1582.8717,1584.005,space,1.1032,,1584.0051,12,72,1585.005,1585.0052,1585.0096,,,,0,5,5,5,1,110,50,,,,,,,,
,,615ecf8f907bfe51f5a09f00,65af5632b940720aef4cd632,2024-01-23_08h06.42.939,bars,2023.2.3,Win32,60.24096386,657b66ea316d21385b68909f,,,,,,,,,,,1585.0101,1586.0049,,,1586.5051,1586.7547,,13,13,,,,,,,,,,,,,,,,bars/032.png,bars/mask005.png,,,,,,,,,,,,0,2,,,,,,,8,1,8,0,,,,,,,,,,,1586.005,1586.505,1586.7549,1591.0604,space,4.2839,,1591.0604,68,7,1592.0549,1592.0552,1592.0783,,,,0,6,6,6,1,125,20,,,,,,,,
,,615ecf8f907bfe51f5a09f00,65af5632b940720aef4cd632,2024-01-23_08h06.42.939,bars,2023.2.3,Win32,60.24096386,657b66ea316d21385b68909f,,,,,,,,,,,1592.0786,1593.0717,,,1593.5719,1593.8217,,133,133,,,,,,,,,,,,,,,,bars/015.png,bars/mask005.png,,,,,,,,,,,,1,1,,,,,,,6,0,6,0,,,,,,,,,,,1593.0719,1593.5717,1593.8218,1595.9384,space,2.0855,,1595.9385,23,27,1596.9383,1596.9384,1596.9599,,,,0,7,7,7,1,110,160,,,,,,,,
,,615ecf8f907bfe51f5a09f00,65af5632b940720aef4cd632,2024-01-23_08h06.42.939,bars,2023.2.3,Win32,60.24096386,657b66ea316d21385b68909f,,,,,,,,,,,1596.9601,1597.955,,,1598.4551,1598.705,,18,18,,,,,,,,,,,,,,,,bars/026.png,bars/mask008.png,,,,,,,,,,,,3,1,,,,,,,4,0,6,0,,,,,,,,,,,1597.9551,1598.455,1598.7051,1601.5717,space,2.8377,,1601.5719,17,67,1602.5718,1602.572,1602.5862,,,,0,8,8,8,1,35,85,,,,,,,,
,,615ecf8f907bfe51f5a09f00,65af5632b940720aef4cd632,2024-01-23_08h06.42.939,bars,2023.2.3,Win32,60.24096386,657b66ea316d21385b68909f,,,,,,,,,,,1602.5863,1603.5885,,,1604.0886,1604.3384,,53,53,,,,,,,,,,,,,,,,bars/041.png,bars/mask005.png,,,,,,,,,,,,0,2,,,,,,,6,0,6,0,,,,,,,,,,,1603.5886,1604.0885,1604.3385,1606.2218,space,1.8604,,1606.222,33,32,1607.2217,1607.2218,1607.2463,,,,0,9,9,9,1,20,85,,,,,,,,
,,615ecf8f907bfe51f5a09f00,65af5632b940720aef4cd632,2024-01-23_08h06.42.939,bars,2023.2.3,Win32,60.24096386,657b66ea316d21385b68909f,,,,,,,,,,,1607.2465,1608.2384,,,1608.7386,1608.9883,,93,93,,,,,,,,,,,,,,,,bars/038.png,bars/mask000.png,,,,,,,,,,,,1,2,,,,,,,8,2,8,3,,,,,,,,,,,1608.2384,1608.7386,1608.9883,1609.7717,space,0.77,,1609.7719,72,23,1610.7713,1610.7714,1610.773,,,,0,10,10,10,1,165,70,,,,,,,,
,,615ecf8f907bfe51f5a09f00,65af5632b940720aef4cd632,2024-01-23_08h06.42.939,bars,2023.2.3,Win32,60.24096386,657b66ea316d21385b68909f,,,,,,,,,,,1610.7734,1611.7717,,,1612.2719,1612.5217,,0,0,,,,,,,,,,,,,,,,bars/024.png,bars/mask008.png,,,,,,,,,,,,0,2,,,,,,,6,0,7,0,,,,,,,,,,,1611.7718,1612.2718,1612.5219,1615.3385,space,2.7853,,1615.3386,60,10,1616.3382,1616.3384,1616.3592,,,,0,11,11,11,1,120,170,,,,,,,,
,,615ecf8f907bfe51f5a09f00,65af5632b940720aef4cd632,2024-01-23_08h06.42.939,bars,2023.2.3,Win32,60.24096386,657b66ea316d21385b68909f,,,,,,,,,,,1616.3594,1617.355,,,1617.8553,1618.1048,,112,112,,,,,,,,,,,,,,,,bars/021.png,bars/mask000.png,,,,,,,,,,,,0,2,,,,,,,4,2,5,2,,,,,,,,,,,1617.3551,1617.8551,1618.1048,1619.589,space,1.4518,,1619.5892,43,42,1620.5885,1620.5887,1620.6075,,,,0,12,12,12,1,155,70,,,,,,,,
,,615ecf8f907bfe51f5a09f00,65af5632b940720aef4cd632,2024-01-23_08h06.42.939,bars,2023.2.3,Win32,60.24096386,657b66ea316d21385b68909f,,,,,,,,,,,1620.6076,1621.6051,,,1622.1052,1622.3553,,58,238,,,,,,,,,,,,,,,,bars/002.png,bars/mask003.png,,,,,,,,,,,,0,2,,,,,,,6,0,7,0,,,,,,,,,,,1621.6053,1622.105,1622.3554,1625.1718,space,2.7852,,1625.1719,72,27,1626.1717,1626.172,1626.193,,,,0,13,13,13,1,130,85,,,,,,,,
,,615ecf8f907bfe51f5a09f00,65af5632b940720aef4cd632,2024-01-23_08h06.42.939,bars,2023.2.3,Win32,60.24096386,657b66ea316d21385b68909f,,,,,,,,,,,1626.1931,1627.1884,,,1627.6885,1627.9382,,151,151,,,,,,,,,,,,,,,,bars/041.png,bars/mask000.png,,,,,,,,,,,,0,1,,,,,,,8,2,7,2,,,,,,,,,,,1627.1885,1627.6884,1627.9383,1628.7718,space,0.8044,,1628.7719,49,66,1629.7715,1629.7716,1629.7759,,,,0,14,14,14,1,20,85,,,,,,,,
,,615ecf8f907bfe51f5a09f00,65af5632b940720aef4cd632,2024-01-23_08h06.42.939,bars,2023.2.3,Win32,60.24096386,657b66ea316d21385b68909f,,,,,,,,,,,1629.7764,1630.772,,,1631.2714,1631.5217,,39,39,,,,,,,,,,,,,,,,bars/002.png,bars/mask007.png,,,,,,,,,,,,0,2,,,,,,,10,4,10,6,,,,,,,,,,,1630.7721,1631.2714,1631.5219,1632.3886,space,0.835,,1632.3887,89,46,1633.3885,1633.3887,1633.3928,,,,0,15,15,15,1,130,85,,,,,,,,
,,615ecf8f907bfe51f5a09f00,65af5632b940720aef4cd632,2024-01-23_08h06.42.939,bars,2023.2.3,Win32,60.24096386,657b66ea316d21385b68909f,,,,,,,,,,,1633.3932,1634.3884,,,1634.8887,1635.1384,,124,124,,,,,,,,,,,,,,,,bars/038.png,bars/mask000.png,,,,,,,,,,,,0,1,,,,,,,10,2,10,2,,,,,,,,,,,1634.3885,1634.8886,1635.1385,1636.9053,space,1.7353,,1636.9054,41,54,1637.9051,1637.9052,1637.9095,,,,0,16,16,16,1,165,70,,,,,,,,
,,615ecf8f907bfe51f5a09f00,65af5632b940720aef4cd632,2024-01-23_08h06.42.939,bars,2023.2.3,Win32,60.24096386,657b66ea316d21385b68909f,,,,,,,,,,,1637.9099,1638.905,,,1639.4052,1639.6553,,113,113,,,,,,,,,,,,,,,,bars/026.png,bars/mask009.png,,,,,,,,,,,,0,2,,,,,,,8,0,6,0,,,,,,,,,,,1638.9052,1639.4051,1639.6554,1641.6382,space,1.9518,,1641.6383,78,28,1642.6382,1642.6382,1642.646,,,,0,17,17,17,1,35,85,,,,,,,,
,,615ecf8f907bfe51f5a09f00,65af5632b940720aef4cd632,2024-01-23_08h06.42.939,bars,2023.2.3,Win32,60.24096386,657b66ea316d21385b68909f,,,,,,,,,,,1642.6461,1643.638,,,1644.1384,1644.3883,,130,130,,,,,,,,,,,,,,,,bars/002.png,bars/mask008.png,,,,,,,,,,,,10,1,,,,,,,10,2,10,3,,,,,,,,,,,1643.6381,1644.1383,1644.3883,1646.7881,space,2.3683,,1646.7882,0,45,1647.7883,1647.7884,1647.7956,,,,0,18,18,18,1,130,85,,,,,,,,
,,615ecf8f907bfe51f5a09f00,65af5632b940720aef4cd632,2024-01-23_08h06.42.939,bars,2023.2.3,Win32,60.24096386,657b66ea316d21385b68909f,,,,,,,,,,,1647.7957,1648.7886,,,1649.2884,1649.5383,,139,139,,,,,,,,,,,,,,,,bars/008.png,bars/mask008.png,,,,,,,,,,,,0,1,,,,,,,10,4,10,7,,,,,,,,,,,1648.7887,1649.2883,1649.5385,1651.8718,space,2.3018,,1651.872,29,41,1652.8717,1652.8718,1652.8931,,,,0,19,19,19,1,110,0,,,,,,,,
,,615ecf8f907bfe51f5a09f00,65af5632b940720aef4cd632,2024-01-23_08h06.42.939,bars,2023.2.3,Win32,60.24096386,657b66ea316d21385b68909f,,,,,,,,,,,1652.8934,1653.8886,,,1654.3888,1654.6385,,116,116,,,,,,,,,,,,,,,,bars/034.png,bars/mask007.png,,,,,,,,,,,,6,1,,,,,,,8,6,8,5,,,,,,,,,,,1653.8887,1654.3887,1654.6386,1655.6051,space,0.9353,,1655.6053,9,51,1656.6051,1656.6052,1656.6075,,,,0,20,20,20,1,125,65,,,,,,,,
,,615ecf8f907bfe51f5a09f00,65af5632b940720aef4cd632,2024-01-23_08h06.42.939,bars,2023.2.3,Win32,60.24096386,657b66ea316d21385b68909f,,,,,,,,,,,1656.6082,1657.6051,,,1658.1052,1658.3549,,65,65,,,,,,,,,,,,,,,,bars/029.png,bars/mask006.png,,,,,,,,,,,,3,2,,,,,,,6,8,6,8,,,,,,,,,,,1657.6052,1658.1051,1658.355,1662.3053,space,3.9213,,1662.3054,25,20,1663.3051,1663.3051,1663.3281,,,,0,21,21,21,1,90,45,,,,,,,,
,,615ecf8f907bfe51f5a09f00,65af5632b940720aef4cd632,2024-01-23_08h06.42.939,bars,2023.2.3,Win32,60.24096386,657b66ea316d21385b68909f,,,,,,,,,,,1663.3284,1664.3218,,,1664.8221,1665.0718,,5,5,,,,,,,,,,,,,,,,bars/007.png,bars/mask005.png,,,,,,,,,,,,3,1,,,,,,,4,6,4,7,,,,,,,,,,,1664.3219,1664.8219,1665.0719,1667.6219,space,2.5192,,1667.6221,10,50,1668.6218,1668.622,1668.6269,,,,0,22,22,22,1,175,55,,,,,,,,
,,615ecf8f907bfe51f5a09f00,65af5632b940720aef4cd632,2024-01-23_08h06.42.939,bars,2023.2.3,Win32,60.24096386,657b66ea316d21385b68909f,,,,,,,,,,,1668.6275,1669.6218,,,1670.1218,1670.3715,,42,42,,,,,,,,,,,,,,,,bars/025.png,bars/mask002.png,,,,,,,,,,,,4,2,,,,,,,6,4,7,4,,,,,,,,,,,1669.6218,1670.1218,1670.3716,1672.5219,space,2.1186,,1672.522,63,2,1673.5218,1673.522,1673.5432,,,,0,23,23,23,1,105,40,,,,,,,,
,,615ecf8f907bfe51f5a09f00,65af5632b940720aef4cd632,2024-01-23_08h06.42.939,bars,2023.2.3,Win32,60.24096386,657b66ea316d21385b68909f,,,,,,,,,,,1673.5433,1674.5412,,,1675.0388,1675.2884,,40,40,,,,,,,,,,,,,,,,bars/010.png,bars/mask009.png,,,,,,,,,,,,3,2,,,,,,,4,6,4,5,,,,,,,,,,,1674.5412,1675.0387,1675.2885,1676.4885,space,1.1685,,1676.4887,55,15,1677.4884,1677.4886,1677.491,,,,0,24,24,24,1,165,55,,,,,,,,
,,615ecf8f907bfe51f5a09f00,65af5632b940720aef4cd632,2024-01-23_08h06.42.939,bars,2023.2.3,Win32,60.24096386,657b66ea316d21385b68909f,,,,,,,,,,,1677.4918,1678.4885,,,1678.9886,1679.2385,,107,107,,,,,,,,,,,,,,,,bars/049.png,bars/mask008.png,,,,,,,,,,,,5,2,,,,,,,6,8,5,7,,,,,,,,,,,1678.4887,1678.9885,1679.2387,1682.472,space,3.2018,,1682.4721,53,8,1683.4718,1683.4719,1683.4931,,,,0,25,25,25,1,160,115,,,,,,,,
,,615ecf8f907bfe51f5a09f00,65af5632b940720aef4cd632,2024-01-23_08h06.42.939,bars,2023.2.3,Win32,60.24096386,657b66ea316d21385b68909f,,,,,,,,,,,1683.4933,1684.4886,,,1684.9889,1685.2386,,29,29,,,,,,,,,,,,,,,,bars/029.png,bars/mask003.png,,,,,,,,,,,,4,2,,,,,,,4,10,4,9,,,,,,,,,,,1684.4888,1684.9888,1685.2387,1686.1554,space,0.888,,1686.1555,61,16,1687.1553,1687.1554,1687.158,,,,0,26,26,26,1,90,45,,,,,,,,
,,615ecf8f907bfe51f5a09f00,65af5632b940720aef4cd632,2024-01-23_08h06.42.939,bars,2023.2.3,Win32,60.24096386,657b66ea316d21385b68909f,,,,,,,,,,,1687.1585,1688.1552,,,1688.6555,1688.9052,,39,39,,,,,,,,,,,,,,,,bars/046.png,bars/mask007.png,,,,,,,,,,,,0,2,,,,,,,6,10,6,10,,,,,,,,,,,1688.1555,1688.6552,1688.9052,1689.9553,space,1.0214,,1689.9554,64,46,1690.9552,1690.9552,1690.9773,,,,0,27,27,27,1,155,85,,,,,,,,
,,615ecf8f907bfe51f5a09f00,65af5632b940720aef4cd632,2024-01-23_08h06.42.939,bars,2023.2.3,Win32,60.24096386,657b66ea316d21385b68909f,,,,,,,,,,,1690.9775,1691.9718,,,1692.4721,1692.7217,,59,59,,,,,,,,,,,,,,,,bars/030.png,bars/mask001.png,,,,,,,,,,,,7,2,,,,,,,4,8,4,9,,,,,,,,,,,1691.9719,1692.4719,1692.7218,1694.8718,space,2.1186,,1694.8719,81,6,1695.8719,1695.872,1695.8931,,,,0,28,28,28,1,140,65,,,,,,,,
,,615ecf8f907bfe51f5a09f00,65af5632b940720aef4cd632,2024-01-23_08h06.42.939,bars,2023.2.3,Win32,60.24096386,657b66ea316d21385b68909f,,,,,,,,,,,1695.8934,1696.8887,,,1697.3887,1697.6385,,28,28,,,,,,,,,,,,,,,,bars/018.png,bars/mask003.png,,,,,,,,,,,,0,1,,,,,,,6,10,6,10,,,,,,,,,,,1696.8888,1697.3886,1697.6387,1698.872,space,1.2016,,1698.8721,58,62,1699.8721,1699.8722,1699.8762,,,,0,29,29,29,1,150,90,,,,,,,,
,,615ecf8f907bfe51f5a09f00,65af5632b940720aef4cd632,2024-01-23_08h06.42.939,bars,2023.2.3,Win32,60.24096386,657b66ea316d21385b68909f,,,,,,,,,,,1699.8767,1700.8718,,,1701.3718,1701.622,,121,121,,,,,,,,,,,,,,,,bars/023.png,bars/mask006.png,,,,,,,,,,,,6,2,,,,,,,8,8,7,7,,,,,,,,,,,1700.8718,1701.3717,1701.6222,1704.4387,space,2.7858,,1704.4388,79,6,1705.4385,1705.4387,1705.4602,,,,0,30,30,30,1,20,115,,,,,,,,
,,615ecf8f907bfe51f5a09f00,65af5632b940720aef4cd632,2024-01-23_08h06.42.939,bars,2023.2.3,Win32,60.24096386,657b66ea316d21385b68909f,,,,,,,,,,,1705.4605,1706.4553,,,1706.9555,1707.2051,,128,128,,,,,,,,,,,,,,,,bars/023.png,bars/mask006.png,,,,,,,,,,,,5,2,,,,,,,10,6,10,8,,,,,,,,,,,1706.4554,1706.9553,1707.2053,1709.7385,space,2.5022,,1709.7386,72,13,1710.7386,1710.7387,1710.759,,,,0,31,31,31,1,20,115,,,,,,,,
,,615ecf8f907bfe51f5a09f00,65af5632b940720aef4cd632,2024-01-23_08h06.42.939,bars,2023.2.3,Win32,60.24096386,657b66ea316d21385b68909f,,,,,,,,,,,1710.7592,1711.7551,,,1712.2555,1712.5052,,123,303,,,,,,,,,,,,,,,,bars/034.png,bars/mask002.png,,,,,,,,,,,,7,1,,,,,,,8,8,8,8,,,,,,,,,,,1711.7552,1712.2554,1712.5052,1717.2552,space,4.7183,,1717.2554,2,58,1718.2552,1718.2554,1718.2785,,,,0,32,32,32,1,125,65,,,,,,,,
,,615ecf8f907bfe51f5a09f00,65af5632b940720aef4cd632,2024-01-23_08h06.42.939,bars,2023.2.3,Win32,60.24096386,657b66ea316d21385b68909f,,,,,,,,,,,1718.2787,1719.2717,,,1719.7722,1720.022,,173,173,,,,,,,,,,,,,,,,bars/033.png,bars/mask008.png,,,,,,,,,,,,3,2,,,,,,,6,10,6,8,,,,,,,,,,,1719.2718,1719.772,1720.0222,1722.7721,space,2.721,,1722.7721,32,18,1723.7718,1723.7719,1723.794,,,,0,33,33,33,1,25,155,,,,,,,,
,,615ecf8f907bfe51f5a09f00,65af5632b940720aef4cd632,2024-01-23_08h06.42.939,bars,2023.2.3,Win32,60.24096386,657b66ea316d21385b68909f,,,,,,,,,,,1723.7943,1724.7891,,,1725.2888,1725.5387,,118,118,,,,,,,,,,,,,,,,bars/041.png,bars/mask007.png,,,,,,,,,,,,0,2,,,,,,,4,10,3,8,,,,,,,,,,,1724.7892,1725.2887,1725.5388,1728.7282,space,3.1675,,1728.7282,82,33,1729.7218,1729.7219,1729.7434,,,,0,34,34,34,1,20,85,,,,,,,,
,,615ecf8f907bfe51f5a09f00,65af5632b940720aef4cd632,2024-01-23_08h06.42.939,bars,2023.2.3,Win32,60.24096386,657b66ea316d21385b68909f,,,,,,,,,,,1729.7435,1730.7386,,,1731.2386,1731.4886,,149,149,,,,,,,,,,,,,,,,bars/043.png,bars/mask004.png,,,,,,,,,,,,3,2,,,,,,,6,8,5,8,,,,,,,,,,,1730.7388,1731.2384,1731.4888,1732.9721,space,1.4544,,1732.9722,61,19,1733.9719,1733.972,1733.974,,,,0,35,35,35,1,30,130,,,,,,,,
,,615ecf8f907bfe51f5a09f00,65af5632b940720aef4cd632,2024-01-23_08h06.42.939,bars,2023.2.3,Win32,60.24096386,657b66ea316d21385b68909f,,,,,,,,,,,1733.9746,1734.9776,,,1735.4722,1735.7219,,39,39,,,,,,,,,,,,,,,,bars/031.png,bars/mask006.png,,,,,,,,,,,,9,2,,,,,,,8,10,9,10,,,,,,,,,,,1734.9776,1735.4721,1735.7221,1740.4553,space,4.7086,,1740.4555,81,4,1741.4556,1741.4557,1741.466,,,,0,36,36,36,1,120,35,,,,,,,,
,,615ecf8f907bfe51f5a09f00,65af5632b940720aef4cd632,2024-01-23_08h06.42.939,bars,2023.2.3,Win32,60.24096386,657b66ea316d21385b68909f,,,,,,,,,,,1741.4661,1742.4553,,,1742.9555,1743.2054,,140,140,,,,,,,,,,,,,,,,bars/043.png,bars/mask009.png,,,,,,,,,,,,7,2,,,,,,,10,10,10,10,,,,,,,,,,,1742.4554,1742.9555,1743.2055,1747.7387,space,4.5053,,1747.7389,70,10,1748.7387,1748.7388,1748.7616,,,,0,37,37,37,1,30,130,,,,,,,,
,,615ecf8f907bfe51f5a09f00,65af5632b940720aef4cd632,2024-01-23_08h06.42.939,bars,2023.2.3,Win32,60.24096386,657b66ea316d21385b68909f,,,,,,,,,,,1748.7618,1749.7553,,,1750.2554,1750.5052,,140,140,,,,,,,,,,,,,,,,bars/004.png,bars/mask005.png,,,,,,,,,,,,5,2,,,,,,,8,10,7,10,,,,,,,,,,,1749.7555,1750.2553,1750.5052,1753.3219,space,2.7847,,1753.322,65,15,1754.3219,1754.3222,1754.3323,,,,0,38,38,38,1,25,125,,,,,,,,
,,615ecf8f907bfe51f5a09f00,65af5632b940720aef4cd632,2024-01-23_08h06.42.939,bars,2023.2.3,Win32,60.24096386,657b66ea316d21385b68909f,,,,,,,,,,,1754.3324,1755.3219,,,1755.8223,1756.0719,,123,123,,,,,,,,,,,,,,,,bars/037.png,bars/mask007.png,,,,,,,,,,,,4,2,,,,,,,10,8,9,9,,,,,,,,,,,1755.3221,1755.8221,1756.072,1758.8554,space,2.7518,,1758.8556,27,18,1759.8555,1759.8556,1759.8774,,,,0,39,39,39,1,150,105,,,,,,,,
,,615ecf8f907bfe51f5a09f00,65af5632b940720aef4cd632,2024-01-23_08h06.42.939,bars,2023.2.3,Win32,60.24096386,657b66ea316d21385b68909f,,,,,,,,,,,1759.8777,1760.8719,,,1761.3724,1761.6221,,176,176,,,,,,,,,,,,,,,,bars/005.png,bars/mask005.png,,,,,,,,,,,,4,1,,,,,,,8,6,7,6,,,,,,,,,,,1760.8721,1761.3723,1761.6222,1762.8054,space,1.161,,1762.8056,14,36,1763.8053,1763.8054,1763.8096,,,,0,40,40,40,1,10,140,,,,,,,,
,,615ecf8f907bfe51f5a09f00,65af5632b940720aef4cd632,2024-01-23_08h06.42.939,bars,2023.2.3,Win32,60.24096386,657b66ea316d21385b68909f,,,,,,,,,,,1763.8101,1764.8053,,,1765.3055,1765.5554,,130,-50,,,,,,,,,,,,,,,,bars/034.png,bars/mask001.png,,,,,,,,,,,,5,1,,,,,,,6,4,6,4,,,,,,,,,,,1764.8054,1765.3055,1765.5556,1769.4092,space,3.8319,,1769.4092,5,65,1770.4053,1770.4055,1770.4253,,,,0,41,41,41,1,125,65,,,,,,,,
,,615ecf8f907bfe51f5a09f00,65af5632b940720aef4cd632,2024-01-23_08h06.42.939,bars,2023.2.3,Win32,60.24096386,657b66ea316d21385b68909f,,,,,,,,,,,1770.4255,1771.4221,,,1771.9223,1772.1722,,164,164,,,,,,,,,,,,,,,,bars/011.png,bars/mask006.png,,,,,,,,,,,,3,1,,,,,,,4,2,3,3,,,,,,,,,,,1771.4223,1771.9222,1772.1723,1773.2553,space,1.0517,,1773.2556,4,79,1774.2553,1774.2554,1774.2579,,,,0,42,42,42,1,160,85,,,,,,,,
,,615ecf8f907bfe51f5a09f00,65af5632b940720aef4cd632,2024-01-23_08h06.42.939,bars,2023.2.3,Win32,60.24096386,657b66ea316d21385b68909f,,,,,,,,,,,1774.2584,1775.2551,,,1775.7553,1776.0055,,8,188,,,,,,,,,,,,,,,,bars/041.png,bars/mask007.png,,,,,,,,,,,,4,1,,,,,,,6,0,6,0,,,,,,,,,,,1775.2551,1775.7553,1776.0056,1781.0719,space,5.0347,,1781.072,12,77,1782.0719,1782.072,1782.0924,,,,0,43,43,43,1,20,85,,,,,,,,
,,615ecf8f907bfe51f5a09f00,65af5632b940720aef4cd632,2024-01-23_08h06.42.939,bars,2023.2.3,Win32,60.24096386,657b66ea316d21385b68909f,,,,,,,,,,,1782.0924,1783.0886,,,1783.5888,1783.8388,,133,133,,,,,,,,,,,,,,,,bars/005.png,bars/mask009.png,,,,,,,,,,,,2,2,,,,,,,4,2,2,2,,,,,,,,,,,1783.0887,1783.5886,1783.8389,1784.922,space,1.0518,,1784.9222,57,7,1785.922,1785.9222,1785.9264,,,,0,44,44,44,1,10,140,,,,,,,,
,,615ecf8f907bfe51f5a09f00,65af5632b940720aef4cd632,2024-01-23_08h06.42.939,bars,2023.2.3,Win32,60.24096386,657b66ea316d21385b68909f,,,,,,,,,,,1785.9268,1786.922,,,1787.4221,1787.6721,,147,-33,,,,,,,,,,,,,,,,bars/020.png,bars/mask005.png,,,,,,,,,,,,0,2,,,,,,,2,0,1,1,,,,,,,,,,,1786.9222,1787.4219,1787.6722,1791.3721,space,3.6707,,1791.3722,32,23,1792.372,1792.3722,1792.3933,,,,0,45,45,45,1,115,170,,,,,,,,
,,615ecf8f907bfe51f5a09f00,65af5632b940720aef4cd632,2024-01-23_08h06.42.939,bars,2023.2.3,Win32,60.24096386,657b66ea316d21385b68909f,,,,,,,,,,,1792.3935,1793.3886,,,1793.8893,1794.1386,,158,-22,,,,,,,,,,,,,,,,bars/014.png,bars/mask008.png,,,,,,,,,,,,1,2,,,,,,,0,2,0,2,,,,,,,,,,,1793.3887,1793.8891,1794.1387,1797.8385,space,3.6754,,1797.8386,78,22,1798.8387,1798.8389,1798.8615,,,,0,46,46,46,1,80,0,,,,,,,,
,,615ecf8f907bfe51f5a09f00,65af5632b940720aef4cd632,2024-01-23_08h06.42.939,bars,2023.2.3,Win32,60.24096386,657b66ea316d21385b68909f,,,,,,,,,,,1798.8618,1799.8552,,,1800.3556,1800.6054,,75,75,,,,,,,,,,,,,,,,bars/046.png,bars/mask005.png,,,,,,,,,,,,3,2,,,,,,,2,4,3,4,,,,,,,,,,,1799.8553,1800.3554,1800.6055,1801.7895,space,1.1517,,1801.7896,80,10,1802.7888,1802.7889,1802.7913,,,,0,47,47,47,1,155,85,,,,,,,,
,,615ecf8f907bfe51f5a09f00,65af5632b940720aef4cd632,2024-01-23_08h06.42.939,bars,2023.2.3,Win32,60.24096386,657b66ea316d21385b68909f,,,,,,,,,,,1802.7918,1803.7887,,,1804.2888,1804.5387,,29,209,,,,,,,,,,,,,,,,bars/014.png,bars/mask007.png,,,,,,,,,,,,0,2,,,,,,,4,2,4,4,,,,,,,,,,,1803.7889,1804.2887,1804.5388,1807.7557,space,3.1851,,1807.7557,51,29,1808.7556,1808.7557,1808.7775,,,,0,48,48,48,1,80,0,,,,,,,,
,,615ecf8f907bfe51f5a09f00,65af5632b940720aef4cd632,2024-01-23_08h06.42.939,bars,2023.2.3,Win32,60.24096386,657b66ea316d21385b68909f,,,,,,,,,,,1808.7778,1809.7721,,,1810.2724,1810.522,,154,154,,,,,,,,,,,,,,,,bars/008.png,bars/mask009.png,,,,,,,,,,,,0,2,,,,,,,6,4,7,3,,,,,,,,,,,1809.7722,1810.2723,1810.5221,1811.5898,space,1.0452,,1811.5899,44,26,1812.5887,1812.5889,1812.5913,,,,0,49,49,49,1,110,0,,,,,,,,
,,615ecf8f907bfe51f5a09f00,65af5632b940720aef4cd632,2024-01-23_08h06.42.939,bars,2023.2.3,Win32,60.24096386,657b66ea316d21385b68909f,,,,,,,,,,,,,,,,,,,,,,,,,,,,,,,,,,,,,,,,,,,,,,,,,,,,,,,,,,,,,,,,,,,,,,,,,,,,,,,,,,,,,,,,,,,,,1812.5915,1872.5891,0,3,3,0,1,sequence_tables/blk025.csv
,,615ecf8f907bfe51f5a09f00,65af5632b940720aef4cd632,2024-01-23_08h06.42.939,bars,2023.2.3,Win32,60.24096386,657b66ea316d21385b68909f,,,,,,,,,,,1883.2284,1884.2221,,,1884.7221,1884.9719,,134,134,,,,,,,,,,,,,,,,bars/048.png,bars/mask003.png,,,,,,,,,,,,0,2,,,,,,,8,7,10,8,,,,,,1872.6102,1883.206,space,10.5904,,1884.2222,1884.722,1884.972,1890.5723,space,5.5693,,1890.5725,84,41,1891.5721,1891.5721,1891.5943,,,,0,0,0,0,1,50,175,,,,,,,,
,,615ecf8f907bfe51f5a09f00,65af5632b940720aef4cd632,2024-01-23_08h06.42.939,bars,2023.2.3,Win32,60.24096386,657b66ea316d21385b68909f,,,,,,,,,,,1891.5946,1892.5889,,,1893.0891,1893.3388,,103,103,,,,,,,,,,,,,,,,bars/038.png,bars/mask006.png,,,,,,,,,,,,0,2,,,,,,,6,5,6,4,,,,,,,,,,,1892.589,1893.089,1893.3389,1895.4557,space,2.092,,1895.4558,62,33,1896.4556,1896.4558,1896.4775,,,,0,1,1,1,1,165,70,,,,,,,,
,,615ecf8f907bfe51f5a09f00,65af5632b940720aef4cd632,2024-01-23_08h06.42.939,bars,2023.2.3,Win32,60.24096386,657b66ea316d21385b68909f,,,,,,,,,,,1896.4777,1897.4724,,,1897.9722,1898.2222,,138,138,,,,,,,,,,,,,,,,bars/000.png,bars/mask008.png,,,,,,,,,,,,7,2,,,,,,,8,7,8,9,,,,,,,,,,,1897.4724,1897.9721,1898.2224,1900.3557,space,2.1022,,1900.3558,82,7,1901.3555,1901.3558,1901.3581,,,,0,2,2,2,1,40,145,,,,,,,,
,,615ecf8f907bfe51f5a09f00,65af5632b940720aef4cd632,2024-01-23_08h06.42.939,bars,2023.2.3,Win32,60.24096386,657b66ea316d21385b68909f,,,,,,,,,,,1901.3586,1902.3555,,,1902.8558,1903.1055,,130,130,,,,,,,,,,,,,,,,bars/004.png,bars/mask005.png,,,,,,,,,,,,3,2,,,,,,,10,5,9,4,,,,,,,,,,,1902.3555,1902.8557,1903.1056,1905.2229,space,2.0855,,1905.2229,75,5,1906.222,1906.2221,1906.2335,,,,0,3,3,3,1,25,125,,,,,,,,
,,615ecf8f907bfe51f5a09f00,65af5632b940720aef4cd632,2024-01-23_08h06.42.939,bars,2023.2.3,Win32,60.24096386,657b66ea316d21385b68909f,,,,,,,,,,,1906.2337,1907.2223,,,1907.7225,1907.9721,,147,147,,,,,,,,,,,,,,,,bars/020.png,bars/mask008.png,,,,,,,,,,,,2,2,,,,,,,10,7,10,8,,,,,,,,,,,1907.2224,1907.7224,1907.9723,1911.0556,space,3.0584,,1911.0557,32,23,1912.0555,1912.0557,1912.0775,,,,0,4,4,4,1,115,170,,,,,,,,
,,615ecf8f907bfe51f5a09f00,65af5632b940720aef4cd632,2024-01-23_08h06.42.939,bars,2023.2.3,Win32,60.24096386,657b66ea316d21385b68909f,,,,,,,,,,,1912.0777,1913.0721,,,1913.5724,1913.8224,,53,53,,,,,,,,,,,,,,,,bars/016.png,bars/mask005.png,,,,,,,,,,,,6,1,,,,,,,10,5,10,6,,,,,,,,,,,1913.0723,1913.5723,1913.8225,1918.1895,space,4.3449,,1918.1896,13,68,1919.1889,1919.1891,1919.2104,,,,0,5,5,5,1,40,165,,,,,,,,
,,615ecf8f907bfe51f5a09f00,65af5632b940720aef4cd632,2024-01-23_08h06.42.939,bars,2023.2.3,Win32,60.24096386,657b66ea316d21385b68909f,,,,,,,,,,,1919.2106,1920.2052,,,1920.7059,1920.9557,,122,122,,,,,,,,,,,,,,,,bars/003.png,bars/mask002.png,,,,,,,,,,,,3,2,,,,,,,10,7,10,7,,,,,,,,,,,1920.2053,1920.7057,1920.9558,1924.4557,space,3.4755,,1924.4558,83,18,1925.4557,1925.4558,1925.4785,,,,0,6,6,6,1,25,140,,,,,,,,
,,615ecf8f907bfe51f5a09f00,65af5632b940720aef4cd632,2024-01-23_08h06.42.939,bars,2023.2.3,Win32,60.24096386,657b66ea316d21385b68909f,,,,,,,,,,,1925.4787,1926.4721,,,1926.972,1927.2225,,123,123,,,,,,,,,,,,,,,,bars/011.png,bars/mask005.png,,,,,,,,,,,,0,1,,,,,,,10,5,9,7,,,,,,,,,,,1926.4722,1926.972,1927.2226,1930.1889,space,2.9369,,1930.189,37,38,1931.1889,1931.189,1931.2125,,,,0,7,7,7,1,160,85,,,,,,,,
,,615ecf8f907bfe51f5a09f00,65af5632b940720aef4cd632,2024-01-23_08h06.42.939,bars,2023.2.3,Win32,60.24096386,657b66ea316d21385b68909f,,,,,,,,,,,1931.2127,1932.2054,,,1932.7111,1932.9555,,163,-17,,,,,,,,,,,,,,,,bars/023.png,bars/mask009.png,,,,,,,,,,,,0,1,,,,,,,8,3,9,3,,,,,,,,,,,1932.2055,1932.7111,1932.9557,1937.5722,space,4.5873,,1937.5722,37,48,1938.5722,1938.5723,1938.5934,,,,0,8,8,8,1,20,115,,,,,,,,
,,615ecf8f907bfe51f5a09f00,65af5632b940720aef4cd632,2024-01-23_08h06.42.939,bars,2023.2.3,Win32,60.24096386,657b66ea316d21385b68909f,,,,,,,,,,,1938.5937,1939.5889,,,1940.0892,1940.3386,,104,104,,,,,,,,,,,,,,,,bars/022.png,bars/mask000.png,,,,,,,,,,,,5,1,,,,,,,6,1,7,0,,,,,,,,,,,1939.5891,1940.0891,1940.3387,1943.0058,space,2.6361,,1943.006,9,84,1944.0056,1944.0056,1944.0276,,,,0,9,9,9,1,95,20,,,,,,,,
,,615ecf8f907bfe51f5a09f00,65af5632b940720aef4cd632,2024-01-23_08h06.42.939,bars,2023.2.3,Win32,60.24096386,657b66ea316d21385b68909f,,,,,,,,,,,1944.0278,1945.0222,,,1945.5225,1945.7723,,89,89,,,,,,,,,,,,,,,,bars/006.png,bars/mask002.png,,,,,,,,,,,,3,2,,,,,,,4,3,5,4,,,,,,,,,,,1945.0223,1945.5224,1945.7724,1947.089,space,1.2849,,1947.0891,54,11,1948.0888,1948.089,1948.1126,,,,0,10,10,10,1,35,100,,,,,,,,
,,615ecf8f907bfe51f5a09f00,65af5632b940720aef4cd632,2024-01-23_08h06.42.939,bars,2023.2.3,Win32,60.24096386,657b66ea316d21385b68909f,,,,,,,,,,,1948.1129,1949.1057,,,1949.6059,1949.8556,,33,33,,,,,,,,,,,,,,,,bars/031.png,bars/mask001.png,,,,,,,,,,,,0,2,,,,,,,6,1,5,0,,,,,,,,,,,1949.1058,1949.6057,1949.8559,1950.8225,space,0.9434,,1950.8225,87,2,1951.8222,1951.8223,1951.8435,,,,0,11,11,11,1,120,35,,,,,,,,
