init_variables.started,init_variables.stopped,participant,session,date,expName,psychopyVersion,OS,frameRate,study_id,instruction_exp.started,instruction_exp.stopped,key_resp_8.keys,key_resp_8.rt,key_resp_8.duration,instruction_single.started,instruction_single.stopped,key_resp_2.keys,key_resp_2.rt,key_resp_2.duration,interval.started,interval.stopped,cue_single.started,cue_single.stopped,mask.started,mask.stopped,ori_response_single.started,res_ori,res,ori_response_single.stopped,key_resp_single.keys,key_resp_single.rt,key_resp_single.duration,disp_single.started,disp_single.stopped,key_resp.keys,key_resp.rt,key_resp.duration,single.thisRepN,single.thisTrialN,single.thisN,single.thisIndex,single.ran,ori,path,mask_path,instruction_bandit.started,instruction_bandit.stopped,key_resp_6.keys,key_resp_6.rt,key_resp_6.duration,cue_bandit.started,cue_bandit.stopped,bandit_res.keys,bandit_res.rt,bandit_res.duration,outcome_bandit.started,rew,action,outcome_bandit.stopped,bandit.thisRepN,bandit.thisTrialN,bandit.thisN,bandit.thisIndex,bandit.ran,actual_rew1,actual_rew2,rew1,rew2,instruction_task.started,instruction_task.stopped,key_resp_7.keys,key_resp_7.rt,key_resp_7.duration,wait_ready.started,wait_ready.stopped,key_resp_3.keys,key_resp_3.rt,key_resp_3.duration,cue.started,cue.stopped,ori_response.started,ori_response.stopped,key_resp_5.keys,key_resp_5.rt,key_resp_5.duration,outcome.started,diff1,diff2,outcome.stopped,disp_outcome_practice.started,disp_outcome_practice.stopped,key_resp_4.keys,key_resp_4.rt,key_resp_4.duration,trials.thisRepN,trials.thisTrialN,trials.thisN,trials.thisIndex,trials.ran,ori1,ori2,break_blk.started,break_blk.stopped,block.thisRepN,block.thisTrialN,block.thisN,block.thisIndex,block.ran,condition_file
0.0002,0.0003,5c9124ef3b7f9e0013728485,65af55ec9cebb2ff24f09995,2024-01-23_08h01.19.449,bars,2023.2.3,Win32,120.4819277,657b66ea316d21385b68909f,,,,,,,,,,,,,,,,,,,,,,,,,,,,,,,,,,,,,,,,,,,,,,,,,,,,,,,,,,,,,,,,,,,,,,,,,,,,,,,,,,,,,,,,,,,,,,,,,,,,
,,5c9124ef3b7f9e0013728485,65af55ec9cebb2ff24f09995,2024-01-23_08h01.19.449,bars,2023.2.3,Win32,120.4819277,657b66ea316d21385b68909f,0.0005,10.5555,y,10.5241,,,,,,,,,,,,,,,,,,,,,,,,,,,,,,,,,,,,,,,,,,,,,,,,,,,,,,,,,,,,,,,,,,,,,,,,,,,,,,,,,,,,,,,,,,,,,,,,
,,5c9124ef3b7f9e0013728485,65af55ec9cebb2ff24f09995,2024-01-23_08h01.19.449,bars,2023.2.3,Win32,120.4819277,657b66ea316d21385b68909f,,,,,,10.5556,24.776,space,14.2101,,,,,,,,,,,,,,,,,,,,,,,,,,,,,,,,,,,,,,,,,,,,,,,,,,,,,,,,,,,,,,,,,,,,,,,,,,,,,,,,,,,,,,,,,,,
,,5c9124ef3b7f9e0013728485,65af55ec9cebb2ff24f09995,2024-01-23_08h01.19.449,bars,2023.2.3,Win32,120.4819277,657b66ea316d21385b68909f,,,,,,,,,,,24.7786,25.773,25.7731,26.273,26.2732,26.5283,26.5283,0,0,35.1373,space,8.5895,,35.1375,46.0088,space,10.8552,,0,0,0,5,1,55,bars/single005.png,bars/mask008.png,,,,,,,,,,,,,,,,,,,,,,,,,,,,,,,,,,,,,,,,,,,,,,,,,,,,,,,,,,,,,,,,
,,5c9124ef3b7f9e0013728485,65af55ec9cebb2ff24f09995,2024-01-23_08h01.19.449,bars,2023.2.3,Win32,120.4819277,657b66ea316d21385b68909f,,,,,,,,,,,46.0093,47.0125,47.0125,47.5078,47.5079,47.7546,47.7546,0,0,54.5725,space,6.8084,,54.5725,63.9027,space,9.3149,,0,1,1,6,1,175,bars/single006.png,bars/mask005.png,,,,,,,,,,,,,,,,,,,,,,,,,,,,,,,,,,,,,,,,,,,,,,,,,,,,,,,,,,,,,,,,
,,5c9124ef3b7f9e0013728485,65af55ec9cebb2ff24f09995,2024-01-23_08h01.19.449,bars,2023.2.3,Win32,120.4819277,657b66ea316d21385b68909f,,,,,,,,,,,63.9091,64.9112,64.9112,65.411,65.4111,65.6609,65.6609,2,2,71.7309,space,6.0565,,71.7309,78.1011,space,6.3587,,0,2,2,8,1,160,bars/single008.png,bars/mask004.png,,,,,,,,,,,,,,,,,,,,,,,,,,,,,,,,,,,,,,,,,,,,,,,,,,,,,,,,,,,,,,,,
,,5c9124ef3b7f9e0013728485,65af55ec9cebb2ff24f09995,2024-01-23_08h01.19.449,bars,2023.2.3,Win32,120.4819277,657b66ea316d21385b68909f,,,,,,,,,,,78.1069,79.107,79.107,79.607,79.6071,79.8565,79.8566,1,1,93.0527,space,13.1813,,93.0528,97.5016,space,4.4329,,0,3,3,0,1,150,bars/single000.png,bars/mask006.png,,,,,,,,,,,,,,,,,,,,,,,,,,,,,,,,,,,,,,,,,,,,,,,,,,,,,,,,,,,,,,,,
,,5c9124ef3b7f9e0013728485,65af55ec9cebb2ff24f09995,2024-01-23_08h01.19.449,bars,2023.2.3,Win32,120.4819277,657b66ea316d21385b68909f,,,,,,,,,,,97.5072,98.5064,98.5064,99.0063,99.0063,99.2508,99.2509,89,89,107.4316,space,8.1674,,107.4317,110.2617,space,2.8164,,0,4,4,4,1,95,bars/single004.png,bars/mask004.png,,,,,,,,,,,,,,,,,,,,,,,,,,,,,,,,,,,,,,,,,,,,,,,,,,,,,,,,,,,,,,,,
,,5c9124ef3b7f9e0013728485,65af55ec9cebb2ff24f09995,2024-01-23_08h01.19.449,bars,2023.2.3,Win32,120.4819277,657b66ea316d21385b68909f,,,,,,,,,,,110.2619,111.2639,111.2639,111.7636,111.7637,112.0137,112.0138,143,-37,118.0374,space,6.0074,,118.0376,119.4083,space,1.358,,0,5,5,2,1,145,bars/single002.png,bars/mask003.png,,,,,,,,,,,,,,,,,,,,,,,,,,,,,,,,,,,,,,,,,,,,,,,,,,,,,,,,,,,,,,,,
,,5c9124ef3b7f9e0013728485,65af55ec9cebb2ff24f09995,2024-01-23_08h01.19.449,bars,2023.2.3,Win32,120.4819277,657b66ea316d21385b68909f,,,,,,,,,,,119.4085,120.403,120.403,120.9026,120.9027,121.153,121.1531,19,19,128.6141,space,7.448,,128.6141,130.0422,space,1.4134,,0,6,6,3,1,20,bars/single003.png,bars/mask005.png,,,,,,,,,,,,,,,,,,,,,,,,,,,,,,,,,,,,,,,,,,,,,,,,,,,,,,,,,,,,,,,,
,,5c9124ef3b7f9e0013728485,65af55ec9cebb2ff24f09995,2024-01-23_08h01.19.449,bars,2023.2.3,Win32,120.4819277,657b66ea316d21385b68909f,,,,,,,,,,,130.0429,131.0415,131.0416,131.5412,131.5412,131.7935,131.7936,48,48,136.748,space,4.9431,,136.7481,138.0313,space,1.2695,,0,7,7,7,1,45,bars/single007.png,bars/mask009.png,,,,,,,,,,,,,,,,,,,,,,,,,,,,,,,,,,,,,,,,,,,,,,,,,,,,,,,,,,,,,,,,
,,5c9124ef3b7f9e0013728485,65af55ec9cebb2ff24f09995,2024-01-23_08h01.19.449,bars,2023.2.3,Win32,120.4819277,657b66ea316d21385b68909f,,,,,,,,,,,138.0318,139.0307,139.0307,139.5305,139.5306,139.7805,139.7805,12,12,146.6318,space,6.8374,,146.6318,147.9364,space,1.2903,,0,8,8,1,1,20,bars/single001.png,bars/mask006.png,,,,,,,,,,,,,,,,,,,,,,,,,,,,,,,,,,,,,,,,,,,,,,,,,,,,,,,,,,,,,,,,
,,5c9124ef3b7f9e0013728485,65af55ec9cebb2ff24f09995,2024-01-23_08h01.19.449,bars,2023.2.3,Win32,120.4819277,657b66ea316d21385b68909f,,,,,,,,,,,147.9367,148.9361,148.9361,149.436,149.4361,149.6858,149.6858,24,204,154.976,space,5.2822,,154.976,155.9174,space,0.9279,,0,9,9,9,1,20,bars/single009.png,bars/mask006.png,,,,,,,,,,,,,,,,,,,,,,,,,,,,,,,,,,,,,,,,,,,,,,,,,,,,,,,,,,,,,,,,
,,5c9124ef3b7f9e0013728485,65af55ec9cebb2ff24f09995,2024-01-23_08h01.19.449,bars,2023.2.3,Win32,120.4819277,657b66ea316d21385b68909f,,,,,,,,,,,,,,,,,,,,,,,,,,,,,,,,,,,,,155.9181,174.6549,space,18.7256,,,,,,,,,,,,,,,,,,,,,,,,,,,,,,,,,,,,,,,,,,,,,,,,,,,,,,,,,,,,
,,5c9124ef3b7f9e0013728485,65af55ec9cebb2ff24f09995,2024-01-23_08h01.19.449,bars,2023.2.3,Win32,120.4819277,657b66ea316d21385b68909f,,,,,,,,,,,,,,,,,,,,,,,,,,,,,,,,,,,,,,,,,,174.6657,179.6664,left,4.9904,,179.6665,9,1,180.6685,0,0,0,0,1,9,1,9,2,,,,,,,,,,,,,,,,,,,,,,,,,,,,,,,,,,,,,,,,,
,,5c9124ef3b7f9e0013728485,65af55ec9cebb2ff24f09995,2024-01-23_08h01.19.449,bars,2023.2.3,Win32,120.4819277,657b66ea316d21385b68909f,,,,,,,,,,,,,,,,,,,,,,,,,,,,,,,,,,,,,,,,,,180.6689,183.3177,left,2.64,,183.3178,10,1,184.3171,0,1,1,1,1,10,0,10,1,,,,,,,,,,,,,,,,,,,,,,,,,,,,,,,,,,,,,,,,,
,,5c9124ef3b7f9e0013728485,65af55ec9cebb2ff24f09995,2024-01-23_08h01.19.449,bars,2023.2.3,Win32,120.4819277,657b66ea316d21385b68909f,,,,,,,,,,,,,,,,,,,,,,,,,,,,,,,,,,,,,,,,,,184.3175,186.2751,left,1.9442,,186.2752,10,1,187.2747,0,2,2,2,1,10,2,10,2,,,,,,,,,,,,,,,,,,,,,,,,,,,,,,,,,,,,,,,,,
,,5c9124ef3b7f9e0013728485,65af55ec9cebb2ff24f09995,2024-01-23_08h01.19.449,bars,2023.2.3,Win32,120.4819277,657b66ea316d21385b68909f,,,,,,,,,,,,,,,,,,,,,,,,,,,,,,,,,,,,,,,,,,187.2804,188.991,left,1.7007,,188.9911,7,1,189.9903,0,3,3,3,1,8,4,7,3,,,,,,,,,,,,,,,,,,,,,,,,,,,,,,,,,,,,,,,,,
,,5c9124ef3b7f9e0013728485,65af55ec9cebb2ff24f09995,2024-01-23_08h01.19.449,bars,2023.2.3,Win32,120.4819277,657b66ea316d21385b68909f,,,,,,,,,,,,,,,,,,,,,,,,,,,,,,,,,,,,,,,,,,189.991,191.9087,left,1.9045,,191.9088,5,1,192.9062,0,4,4,4,1,6,2,5,1,,,,,,,,,,,,,,,,,,,,,,,,,,,,,,,,,,,,,,,,,
,,5c9124ef3b7f9e0013728485,65af55ec9cebb2ff24f09995,2024-01-23_08h01.19.449,bars,2023.2.3,Win32,120.4819277,657b66ea316d21385b68909f,,,,,,,,,,,,,,,,,,,,,,,,,,,,,,,,,,,,,,,,,,192.9121,194.266,left,1.3459,,194.266,4,1,195.2638,0,5,5,5,1,4,4,4,4,,,,,,,,,,,,,,,,,,,,,,,,,,,,,,,,,,,,,,,,,
,,5c9124ef3b7f9e0013728485,65af55ec9cebb2ff24f09995,2024-01-23_08h01.19.449,bars,2023.2.3,Win32,120.4819277,657b66ea316d21385b68909f,,,,,,,,,,,,,,,,,,,,,,,,,,,,,,,,,,,,,,,,,,195.2642,196.9405,left,1.6629,,196.9406,1,1,197.9383,0,6,6,6,1,2,2,1,2,,,,,,,,,,,,,,,,,,,,,,,,,,,,,,,,,,,,,,,,,
,,5c9124ef3b7f9e0013728485,65af55ec9cebb2ff24f09995,2024-01-23_08h01.19.449,bars,2023.2.3,Win32,120.4819277,657b66ea316d21385b68909f,,,,,,,,,,,,,,,,,,,,,,,,,,,,,,,,,,,,,,,,,,197.9388,199.6295,left,1.6751,,199.6296,0,1,200.6335,0,7,7,7,1,0,0,0,1,,,,,,,,,,,,,,,,,,,,,,,,,,,,,,,,,,,,,,,,,
,,5c9124ef3b7f9e0013728485,65af55ec9cebb2ff24f09995,2024-01-23_08h01.19.449,bars,2023.2.3,Win32,120.4819277,657b66ea316d21385b68909f,,,,,,,,,,,,,,,,,,,,,,,,,,,,,,,,,,,,,,,,,,200.6337,201.7453,left,1.1028,,201.7453,1,1,202.7452,0,8,8,8,1,0,2,1,0,,,,,,,,,,,,,,,,,,,,,,,,,,,,,,,,,,,,,,,,,
,,5c9124ef3b7f9e0013728485,65af55ec9cebb2ff24f09995,2024-01-23_08h01.19.449,bars,2023.2.3,Win32,120.4819277,657b66ea316d21385b68909f,,,,,,,,,,,,,,,,,,,,,,,,,,,,,,,,,,,,,,,,,,202.751,204.1449,left,1.3839,,204.145,2,1,205.1445,0,9,9,9,1,2,4,2,3,,,,,,,,,,,,,,,,,,,,,,,,,,,,,,,,,,,,,,,,,
,,5c9124ef3b7f9e0013728485,65af55ec9cebb2ff24f09995,2024-01-23_08h01.19.449,bars,2023.2.3,Win32,120.4819277,657b66ea316d21385b68909f,,,,,,,,,,,,,,,,,,,,,,,,,,,,,,,,,,,,,,,,,,205.145,206.2632,left,1.1054,,206.2634,0,1,207.2605,0,10,10,10,1,0,2,0,3,,,,,,,,,,,,,,,,,,,,,,,,,,,,,,,,,,,,,,,,,
,,5c9124ef3b7f9e0013728485,65af55ec9cebb2ff24f09995,2024-01-23_08h01.19.449,bars,2023.2.3,Win32,120.4819277,657b66ea316d21385b68909f,,,,,,,,,,,,,,,,,,,,,,,,,,,,,,,,,,,,,,,,,,207.261,208.6525,left,1.3757,,208.6526,0,1,209.6514,0,11,11,11,1,0,4,0,3,,,,,,,,,,,,,,,,,,,,,,,,,,,,,,,,,,,,,,,,,
,,5c9124ef3b7f9e0013728485,65af55ec9cebb2ff24f09995,2024-01-23_08h01.19.449,bars,2023.2.3,Win32,120.4819277,657b66ea316d21385b68909f,,,,,,,,,,,,,,,,,,,,,,,,,,,,,,,,,,,,,,,,,,209.652,210.876,left,1.2083,,210.8761,1,1,211.8759,0,12,12,12,1,2,6,1,6,,,,,,,,,,,,,,,,,,,,,,,,,,,,,,,,,,,,,,,,,
,,5c9124ef3b7f9e0013728485,65af55ec9cebb2ff24f09995,2024-01-23_08h01.19.449,bars,2023.2.3,Win32,120.4819277,657b66ea316d21385b68909f,,,,,,,,,,,,,,,,,,,,,,,,,,,,,,,,,,,,,,,,,,211.8764,213.1837,left,1.292,,213.1837,1,1,214.1861,0,13,13,13,1,0,4,1,3,,,,,,,,,,,,,,,,,,,,,,,,,,,,,,,,,,,,,,,,,
,,5c9124ef3b7f9e0013728485,65af55ec9cebb2ff24f09995,2024-01-23_08h01.19.449,bars,2023.2.3,Win32,120.4819277,657b66ea316d21385b68909f,,,,,,,,,,,,,,,,,,,,,,,,,,,,,,,,,,,,,,,,,,214.1863,215.3083,left,1.1144,,215.3083,2,1,216.3078,0,14,14,14,1,2,6,2,7,,,,,,,,,,,,,,,,,,,,,,,,,,,,,,,,,,,,,,,,,
,,5c9124ef3b7f9e0013728485,65af55ec9cebb2ff24f09995,2024-01-23_08h01.19.449,bars,2023.2.3,Win32,120.4819277,657b66ea316d21385b68909f,,,,,,,,,,,,,,,,,,,,,,,,,,,,,,,,,,,,,,,,,,216.3083,217.5656,left,1.2419,,217.5656,3,1,218.5655,0,15,15,15,1,4,8,3,9,,,,,,,,,,,,,,,,,,,,,,,,,,,,,,,,,,,,,,,,,
,,5c9124ef3b7f9e0013728485,65af55ec9cebb2ff24f09995,2024-01-23_08h01.19.449,bars,2023.2.3,Win32,120.4819277,657b66ea316d21385b68909f,,,,,,,,,,,,,,,,,,,,,,,,,,,,,,,,,,,,,,,,,,218.566,219.6154,left,1.0338,,219.6155,7,1,220.6147,0,16,16,16,1,6,6,7,7,,,,,,,,,,,,,,,,,,,,,,,,,,,,,,,,,,,,,,,,,
,,5c9124ef3b7f9e0013728485,65af55ec9cebb2ff24f09995,2024-01-23_08h01.19.449,bars,2023.2.3,Win32,120.4819277,657b66ea316d21385b68909f,,,,,,,,,,,,,,,,,,,,,,,,,,,,,,,,,,,,,,,,,,220.615,221.9813,left,1.3501,,221.9815,9,1,222.9807,0,17,17,17,1,8,4,9,5,,,,,,,,,,,,,,,,,,,,,,,,,,,,,,,,,,,,,,,,,
,,5c9124ef3b7f9e0013728485,65af55ec9cebb2ff24f09995,2024-01-23_08h01.19.449,bars,2023.2.3,Win32,120.4819277,657b66ea316d21385b68909f,,,,,,,,,,,,,,,,,,,,,,,,,,,,,,,,,,,,,,,,,,222.9865,224.1855,left,1.1914,,224.1855,5,1,225.18,0,18,18,18,1,6,2,5,1,,,,,,,,,,,,,,,,,,,,,,,,,,,,,,,,,,,,,,,,,
,,5c9124ef3b7f9e0013728485,65af55ec9cebb2ff24f09995,2024-01-23_08h01.19.449,bars,2023.2.3,Win32,120.4819277,657b66ea316d21385b68909f,,,,,,,,,,,,,,,,,,,,,,,,,,,,,,,,,,,,,,,,,,225.1805,226.1721,left,0.9751,,226.1722,7,1,227.1711,0,19,19,19,1,8,0,7,0,,,,,,,,,,,,,,,,,,,,,,,,,,,,,,,,,,,,,,,,,
,,5c9124ef3b7f9e0013728485,65af55ec9cebb2ff24f09995,2024-01-23_08h01.19.449,bars,2023.2.3,Win32,120.4819277,657b66ea316d21385b68909f,,,,,,,,,,,,,,,,,,,,,,,,,,,,,,,,,,,,,,,,,,,,,,,,,,,,,,,,,,,,227.1718,246.3992,space,19.2114,,,,,,,,,,,,,,,,,,,,,,,,,,,,,,,,,,,,,
,,5c9124ef3b7f9e0013728485,65af55ec9cebb2ff24f09995,2024-01-23_08h01.19.449,bars,2023.2.3,Win32,120.4819277,657b66ea316d21385b68909f,,,,,,,,,,,249.0258,250.0227,,,250.523,250.7726,,90,90,,,,,,,,,,,,,,,,bars/002.png,bars/mask008.png,,,,,,,,,,,,0,2,,,,,,,4,1,3,0,,,,,,246.4058,249.0236,space,2.6076,,250.023,250.523,250.7729,261.3282,space,10.5389,,261.3284,40,5,262.3275,262.3278,277.9069,space,15.5624,,0,0,0,0,1,130,85,,,,,,,,
,,5c9124ef3b7f9e0013728485,65af55ec9cebb2ff24f09995,2024-01-23_08h01.19.449,bars,2023.2.3,Win32,120.4819277,657b66ea316d21385b68909f,,,,,,,,,,,277.9126,278.9141,,,279.4139,279.6637,,114,114,,,,,,,,,,,,,,,,bars/034.png,bars/mask002.png,,,,,,,,,,,,3,1,,,,,,,6,0,5,0,,,,,,,,,,,278.9142,279.4139,279.6638,282.428,space,2.751,,282.4281,11,49,283.4295,283.4296,287.4342,space,3.9913,,0,1,1,1,1,125,65,,,,,,,,
,,5c9124ef3b7f9e0013728485,65af55ec9cebb2ff24f09995,2024-01-23_08h01.19.449,bars,2023.2.3,Win32,120.4819277,657b66ea316d21385b68909f,,,,,,,,,,,287.4401,288.4363,,,288.9364,289.1861,,172,-8,,,,,,,,,,,,,,,,bars/007.png,bars/mask004.png,,,,,,,,,,,,4,1,,,,,,,4,0,4,3,,,,,,,,,,,288.4364,288.9363,289.1861,292.277,space,3.0833,,292.277,3,63,293.2767,293.2767,295.426,space,2.1356,,0,2,2,2,1,175,55,,,,,,,,
,,5c9124ef3b7f9e0013728485,65af55ec9cebb2ff24f09995,2024-01-23_08h01.19.449,bars,2023.2.3,Win32,120.4819277,657b66ea316d21385b68909f,,,,,,,,,,,295.4262,296.4257,,,296.9255,297.1756,,103,103,,,,,,,,,,,,,,,,bars/030.png,bars/mask009.png,,,,,,,,,,,,0,1,,,,,,,2,2,3,1,,,,,,,,,,,296.4257,296.9255,297.1756,302.5906,space,5.408,,302.5907,37,38,303.5903,303.5903,308.1555,space,4.5503,,0,3,3,3,1,140,65,,,,,,,,
,,5c9124ef3b7f9e0013728485,65af55ec9cebb2ff24f09995,2024-01-23_08h01.19.449,bars,2023.2.3,Win32,120.4819277,657b66ea316d21385b68909f,,,,,,,,,,,308.1612,309.1556,,,309.655,309.9049,,51,51,,,,,,,,,,,,,,,,bars/028.png,bars/mask006.png,,,,,,,,,,,,3,1,,,,,,,4,4,4,4,,,,,,,,,,,309.1556,309.655,309.9049,311.2128,space,1.3005,,311.2128,6,69,312.2125,312.2125,314.1206,space,1.8943,,0,4,4,4,1,45,120,,,,,,,,
,,5c9124ef3b7f9e0013728485,65af55ec9cebb2ff24f09995,2024-01-23_08h01.19.449,bars,2023.2.3,Win32,120.4819277,657b66ea316d21385b68909f,,,,,,,,,,,314.1209,315.1201,,,315.6201,315.87,,178,178,,,,,,,,,,,,,,,,bars/009.png,bars/mask004.png,,,,,,,,,,,,1,1,,,,,,,2,6,2,6,,,,,,,,,,,315.1201,315.62,315.8702,318.8274,space,2.9494,,318.8274,17,73,319.827,319.8271,324.1092,space,4.2686,,0,5,5,5,1,15,105,,,,,,,,
,,5c9124ef3b7f9e0013728485,65af55ec9cebb2ff24f09995,2024-01-23_08h01.19.449,bars,2023.2.3,Win32,120.4819277,657b66ea316d21385b68909f,,,,,,,,,,,324.1154,325.1172,,,325.6171,325.867,,4,184,,,,,,,,,,,,,,,,bars/009.png,bars/mask009.png,,,,,,,,,,,,3,1,,,,,,,4,4,5,4,,,,,,,,,,,325.1172,325.6171,325.867,329.016,space,3.1411,,329.016,11,79,330.0158,330.0158,331.1906,space,1.1622,,0,6,6,6,1,15,105,,,,,,,,
,,5c9124ef3b7f9e0013728485,65af55ec9cebb2ff24f09995,2024-01-23_08h01.19.449,bars,2023.2.3,Win32,120.4819277,657b66ea316d21385b68909f,,,,,,,,,,,331.1911,332.1899,,,332.6902,332.9399,,0,0,,,,,,,,,,,,,,,,bars/016.png,bars/mask002.png,,,,,,,,,,,,3,2,,,,,,,2,6,1,5,,,,,,,,,,,332.1899,332.6902,332.9401,337.6801,space,4.7321,,337.6801,40,15,338.6798,338.6798,341.996,space,3.2999,,0,7,7,7,1,40,165,,,,,,,,
,,5c9124ef3b7f9e0013728485,65af55ec9cebb2ff24f09995,2024-01-23_08h01.19.449,bars,2023.2.3,Win32,120.4819277,657b66ea316d21385b68909f,,,,,,,,,,,341.9962,342.9951,,,343.4951,343.745,,118,-62,,,,,,,,,,,,,,,,bars/002.png,bars/mask000.png,,,,,,,,,,,,0,1,,,,,,,0,4,0,5,,,,,,,,,,,342.9951,343.4951,343.745,348.1273,space,4.3744,,348.1273,12,33,349.1267,349.1268,350.9096,space,1.7695,,0,8,8,8,1,130,85,,,,,,,,
,,5c9124ef3b7f9e0013728485,65af55ec9cebb2ff24f09995,2024-01-23_08h01.19.449,bars,2023.2.3,Win32,120.4819277,657b66ea316d21385b68909f,,,,,,,,,,,350.9099,351.9092,,,352.4092,352.6591,,7,7,,,,,,,,,,,,,,,,bars/039.png,bars/mask009.png,,,,,,,,,,,,2,1,,,,,,,2,6,3,5,,,,,,,,,,,351.9093,352.4091,352.6592,359.3626,space,6.6976,,359.3627,12,82,360.3622,360.3622,361.773,space,1.3911,,0,9,9,9,1,175,105,,,,,,,,
,,5c9124ef3b7f9e0013728485,65af55ec9cebb2ff24f09995,2024-01-23_08h01.19.449,bars,2023.2.3,Win32,120.4819277,657b66ea316d21385b68909f,,,,,,,,,,,361.7735,362.7729,,,363.2698,363.5144,,9,189,,,,,,,,,,,,,,,,bars/016.png,bars/mask008.png,,,,,,,,,,,,2,2,,,,,,,4,8,7,8,,,,,,,,,,,362.7729,363.2698,363.5145,368.9963,space,5.4681,,368.9964,31,24,369.9955,369.9955,373.1697,space,3.157,,0,10,10,10,1,40,165,,,,,,,,
,,5c9124ef3b7f9e0013728485,65af55ec9cebb2ff24f09995,2024-01-23_08h01.19.449,bars,2023.2.3,Win32,120.4819277,657b66ea316d21385b68909f,,,,,,,,,,,373.1759,374.1776,,,374.6774,374.9275,,100,100,,,,,,,,,,,,,,,,bars/002.png,bars/mask001.png,,,,,,,,,,,,4,2,,,,,,,2,10,3,8,,,,,,,,,,,374.1776,374.6774,374.9275,382.1337,space,7.1902,,382.1338,30,15,383.1332,383.1333,384.4384,space,1.2916,,0,11,11,11,1,130,85,,,,,,,,
,,5c9124ef3b7f9e0013728485,65af55ec9cebb2ff24f09995,2024-01-23_08h01.19.449,bars,2023.2.3,Win32,120.4819277,657b66ea316d21385b68909f,,,,,,,,,,,384.4386,385.4408,,,385.9377,386.1823,,116,116,,,,,,,,,,,,,,,,bars/015.png,bars/mask006.png,,,,,,,,,,,,2,1,,,,,,,0,10,2,10,,,,,,,,,,,385.4409,385.9377,386.1824,390.7642,space,4.5679,,390.7643,6,44,391.7611,391.7611,393.0806,space,1.304,,0,12,12,12,1,110,160,,,,,,,,
,,5c9124ef3b7f9e0013728485,65af55ec9cebb2ff24f09995,2024-01-23_08h01.19.449,bars,2023.2.3,Win32,120.4819277,657b66ea316d21385b68909f,,,,,,,,,,,393.0808,394.0844,,,394.5801,394.8264,,72,72,,,,,,,,,,,,,,,,bars/019.png,bars/mask002.png,,,,,,,,,,,,0,1,,,,,,,2,8,2,8,,,,,,,,,,,394.0845,394.58,394.8264,399.2034,space,4.3711,,399.2034,27,33,400.2032,400.2032,402.0109,space,1.7935,,0,13,13,13,1,45,105,,,,,,,,
,,5c9124ef3b7f9e0013728485,65af55ec9cebb2ff24f09995,2024-01-23_08h01.19.449,bars,2023.2.3,Win32,120.4819277,657b66ea316d21385b68909f,,,,,,,,,,,402.0114,403.0108,,,403.5106,403.7608,,133,-47,,,,,,,,,,,,,,,,bars/020.png,bars/mask008.png,,,,,,,,,,,,2,1,,,,,,,4,6,5,5,,,,,,,,,,,403.0109,403.5106,403.7609,409.8336,space,6.065,,409.8336,18,37,410.8334,410.8335,412.5915,space,1.7415,,0,14,14,14,1,115,170,,,,,,,,
,,5c9124ef3b7f9e0013728485,65af55ec9cebb2ff24f09995,2024-01-23_08h01.19.449,bars,2023.2.3,Win32,120.4819277,657b66ea316d21385b68909f,,,,,,,,,,,412.592,413.5914,,,414.091,414.3406,,115,115,,,,,,,,,,,,,,,,bars/001.png,bars/mask008.png,,,,,,,,,,,,3,1,,,,,,,6,8,5,8,,,,,,,,,,,413.5915,414.0908,414.3406,418.498,space,4.1513,,418.4981,15,30,419.4975,419.4975,421.0692,space,1.5583,,0,15,15,15,1,130,85,,,,,,,,
,,5c9124ef3b7f9e0013728485,65af55ec9cebb2ff24f09995,2024-01-23_08h01.19.449,bars,2023.2.3,Win32,120.4819277,657b66ea316d21385b68909f,,,,,,,,,,,421.0694,422.0636,,,422.5636,422.8136,,147,147,,,,,,,,,,,,,,,,bars/049.png,bars/mask001.png,,,,,,,,,,,,5,1,,,,,,,8,6,8,7,,,,,,,,,,,422.0637,422.5635,422.8136,428.2201,space,5.3918,,428.2201,13,32,429.2197,429.2198,430.7692,space,1.5334,,0,16,16,16,1,160,115,,,,,,,,
,,5c9124ef3b7f9e0013728485,65af55ec9cebb2ff24f09995,2024-01-23_08h01.19.449,bars,2023.2.3,Win32,120.4819277,657b66ea316d21385b68909f,,,,,,,,,,,430.7696,431.7732,,,432.2688,432.5185,,176,176,,,,,,,,,,,,,,,,bars/023.png,bars/mask002.png,,,,,,,,,,,,2,1,,,,,,,10,4,10,3,,,,,,,,,,,431.7732,432.2688,432.5187,435.9817,space,3.4494,,435.9817,24,61,436.9756,436.9756,441.4741,space,4.4848,,0,17,17,17,1,20,115,,,,,,,,
,,5c9124ef3b7f9e0013728485,65af55ec9cebb2ff24f09995,2024-01-23_08h01.19.449,bars,2023.2.3,Win32,120.4819277,657b66ea316d21385b68909f,,,,,,,,,,,441.4796,442.474,,,442.9737,443.2238,,68,68,,,,,,,,,,,,,,,,bars/044.png,bars/mask001.png,,,,,,,,,,,,8,1,,,,,,,10,2,10,2,,,,,,,,,,,442.474,442.9737,443.2238,446.531,space,3.293,,446.5311,7,87,447.5278,447.5278,448.4306,space,0.8871,,0,18,18,18,1,75,155,,,,,,,,
,,5c9124ef3b7f9e0013728485,65af55ec9cebb2ff24f09995,2024-01-23_08h01.19.449,bars,2023.2.3,Win32,120.4819277,657b66ea316d21385b68909f,,,,,,,,,,,448.4308,449.4304,,,449.9302,450.1801,,110,110,,,,,,,,,,,,,,,,bars/027.png,bars/mask005.png,,,,,,,,,,,,9,1,,,,,,,8,4,9,4,,,,,,,,,,,449.4304,449.9302,450.1802,455.3338,space,5.1474,,455.3338,0,60,456.3334,456.3334,461.0796,space,4.7344,,0,19,19,19,1,110,50,,,,,,,,
,,5c9124ef3b7f9e0013728485,65af55ec9cebb2ff24f09995,2024-01-23_08h01.19.449,bars,2023.2.3,Win32,120.4819277,657b66ea316d21385b68909f,,,,,,,,,,,461.0845,462.0853,,,462.585,462.8344,,30,30,,,,,,,,,,,,,,,,bars/041.png,bars/mask001.png,,,,,,,,,,,,7,1,,,,,,,10,2,10,3,,,,,,,,,,,462.0853,462.5849,462.8345,468.0085,space,5.1591,,468.0085,10,55,469.008,469.008,470.0331,space,1.0084,,0,20,20,20,1,20,85,,,,,,,,
,,5c9124ef3b7f9e0013728485,65af55ec9cebb2ff24f09995,2024-01-23_08h01.19.449,bars,2023.2.3,Win32,120.4819277,657b66ea316d21385b68909f,,,,,,,,,,,470.0334,471.0324,,,471.532,471.782,,142,142,,,,,,,,,,,,,,,,bars/017.png,bars/mask001.png,,,,,,,,,,,,8,1,,,,,,,10,0,9,0,,,,,,,,,,,471.0325,471.532,471.782,477.4856,space,5.6985,,477.4856,3,83,478.4799,478.48,479.4354,space,0.9419,,0,21,21,21,1,145,45,,,,,,,,
,,5c9124ef3b7f9e0013728485,65af55ec9cebb2ff24f09995,2024-01-23_08h01.19.449,bars,2023.2.3,Win32,120.4819277,657b66ea316d21385b68909f,,,,,,,,,,,479.4356,480.4316,,,480.9294,481.1792,,22,22,,,,,,,,,,,,,,,,bars/043.png,bars/mask007.png,,,,,,,,,,,,5,1,,,,,,,8,0,7,0,,,,,,,,,,,480.4317,480.9293,481.1793,482.3337,space,1.1411,,482.3337,8,72,483.329,483.3291,484.0974,space,0.7561,,0,22,22,22,1,30,130,,,,,,,,
,,5c9124ef3b7f9e0013728485,65af55ec9cebb2ff24f09995,2024-01-23_08h01.19.449,bars,2023.2.3,Win32,120.4819277,657b66ea316d21385b68909f,,,,,,,,,,,484.0976,485.0946,,,485.5946,485.8445,,94,94,,,,,,,,,,,,,,,,bars/012.png,bars/mask003.png,,,,,,,,,,,,3,1,,,,,,,6,0,4,0,,,,,,,,,,,485.0947,485.5946,485.8445,490.8762,space,5.0176,,490.8763,4,79,491.8761,491.8762,492.745,space,0.8556,,0,23,23,23,1,90,15,,,,,,,,
,,5c9124ef3b7f9e0013728485,65af55ec9cebb2ff24f09995,2024-01-23_08h01.19.449,bars,2023.2.3,Win32,120.4819277,657b66ea316d21385b68909f,,,,,,,,,,,492.7452,493.7419,,,494.2467,494.497,,178,178,,,,,,,,,,,,,,,,bars/039.png,bars/mask004.png,,,,,,,,,,,,7,1,,,,,,,8,0,8,0,,,,,,,,,,,493.7419,494.2466,494.4971,496.5209,space,2.0192,,496.5209,3,73,497.5161,497.5161,498.3243,space,0.7919,,0,24,24,24,1,175,105,,,,,,,,
,,5c9124ef3b7f9e0013728485,65af55ec9cebb2ff24f09995,2024-01-23_08h01.19.449,bars,2023.2.3,Win32,120.4819277,657b66ea316d21385b68909f,,,,,,,,,,,498.3247,499.3237,,,499.8236,500.0737,,116,116,,,,,,,,,,,,,,,,bars/032.png,bars/mask007.png,,,,,,,,,,,,4,1,,,,,,,6,0,5,0,,,,,,,,,,,499.3238,499.8236,500.0737,506.5549,space,6.4751,,506.5549,9,84,507.5572,507.5572,508.1548,space,0.5842,,0,25,25,25,1,125,20,,,,,,,,
,,5c9124ef3b7f9e0013728485,65af55ec9cebb2ff24f09995,2024-01-23_08h01.19.449,bars,2023.2.3,Win32,120.4819277,657b66ea316d21385b68909f,,,,,,,,,,,508.1552,509.1541,,,509.6541,509.9042,,137,137,,,,,,,,,,,,,,,,bars/008.png,bars/mask001.png,,,,,,,,,,,,1,1,,,,,,,8,2,7,4,,,,,,,,,,,509.1541,509.654,509.9043,517.488,space,7.5708,,517.488,27,43,518.4846,518.4846,519.0517,space,0.5503,,0,26,26,26,1,110,0,,,,,,,,
,,5c9124ef3b7f9e0013728485,65af55ec9cebb2ff24f09995,2024-01-23_08h01.19.449,bars,2023.2.3,Win32,120.4819277,657b66ea316d21385b68909f,,,,,,,,,,,519.0522,520.0515,,,520.5486,520.7922,,129,129,,,,,,,,,,,,,,,,bars/036.png,bars/mask002.png,,,,,,,,,,,,3,1,,,,,,,6,0,6,1,,,,,,,,,,,520.0516,520.5486,520.7922,521.8172,space,1.0171,,521.8173,16,71,522.8169,522.8169,523.5835,space,0.7529,,0,27,27,27,1,145,20,,,,,,,,
,,5c9124ef3b7f9e0013728485,65af55ec9cebb2ff24f09995,2024-01-23_08h01.19.449,bars,2023.2.3,Win32,120.4819277,657b66ea316d21385b68909f,,,,,,,,,,,523.5839,524.583,,,525.0829,525.3291,,94,94,,,,,,,,,,,,,,,,bars/012.png,bars/mask003.png,,,,,,,,,,,,3,1,,,,,,,4,2,4,3,,,,,,,,,,,524.583,525.0828,525.3291,533.6637,space,8.3296,,533.6637,4,79,534.6637,534.6637,535.4243,space,0.7469,,0,28,28,28,1,90,15,,,,,,,,
,,5c9124ef3b7f9e0013728485,65af55ec9cebb2ff24f09995,2024-01-23_08h01.19.449,bars,2023.2.3,Win32,120.4819277,657b66ea316d21385b68909f,,,,,,,,,,,535.4247,536.4215,,,536.9215,537.1714,,117,117,,,,,,,,,,,,,,,,bars/040.png,bars/mask009.png,,,,,,,,,,,,0,1,,,,,,,2,0,2,0,,,,,,,,,,,536.4215,536.9214,537.1714,541.7794,space,4.5943,,541.7795,23,68,542.7775,542.7776,543.8328,space,1.0418,,0,29,29,29,1,140,5,,,,,,,,
,,5c9124ef3b7f9e0013728485,65af55ec9cebb2ff24f09995,2024-01-23_08h01.19.449,bars,2023.2.3,Win32,120.4819277,657b66ea316d21385b68909f,,,,,,,,,,,543.8329,544.8269,,,545.3268,545.5767,,13,193,,,,,,,,,,,,,,,,bars/047.png,bars/mask007.png,,,,,,,,,,,,4,1,,,,,,,4,0,4,0,,,,,,,,,,,544.827,545.3268,545.5768,549.8422,space,4.2491,,549.8423,2,57,550.8418,550.8419,556.5626,space,5.7071,,0,30,30,30,1,15,70,,,,,,,,
,,5c9124ef3b7f9e0013728485,65af55ec9cebb2ff24f09995,2024-01-23_08h01.19.449,bars,2023.2.3,Win32,120.4819277,657b66ea316d21385b68909f,,,,,,,,,,,556.5628,557.5648,,,558.0646,558.3146,,173,173,,,,,,,,,,,,,,,,bars/035.png,bars/mask005.png,,,,,,,,,,,,0,1,,,,,,,2,0,0,0,,,,,,,,,,,557.5648,558.0646,558.3147,561.958,space,3.6304,,561.9581,2,67,562.955,562.9551,563.6631,space,0.6917,,0,31,31,31,1,175,60,,,,,,,,
,,5c9124ef3b7f9e0013728485,65af55ec9cebb2ff24f09995,2024-01-23_08h01.19.449,bars,2023.2.3,Win32,120.4819277,657b66ea316d21385b68909f,,,,,,,,,,,563.6636,564.6629,,,565.1627,565.4126,,164,-16,,,,,,,,,,,,,,,,bars/026.png,bars/mask009.png,,,,,,,,,,,,0,1,,,,,,,0,0,0,0,,,,,,,,,,,564.663,565.1625,565.4127,572.5524,space,7.1258,,572.5525,51,79,573.5519,573.552,574.7904,space,1.225,,0,32,32,32,1,35,85,,,,,,,,
,,5c9124ef3b7f9e0013728485,65af55ec9cebb2ff24f09995,2024-01-23_08h01.19.449,bars,2023.2.3,Win32,120.4819277,657b66ea316d21385b68909f,,,,,,,,,,,574.7905,575.7846,,,576.2843,576.5343,,35,35,,,,,,,,,,,,,,,,bars/000.png,bars/mask004.png,,,,,,,,,,,,0,1,,,,,,,0,2,0,3,,,,,,,,,,,575.7846,576.2842,576.5343,580.475,space,3.9242,,580.4751,5,70,581.4744,581.4745,582.0993,space,0.6086,,0,33,33,33,1,40,145,,,,,,,,
,,5c9124ef3b7f9e0013728485,65af55ec9cebb2ff24f09995,2024-01-23_08h01.19.449,bars,2023.2.3,Win32,120.4819277,657b66ea316d21385b68909f,,,,,,,,,,,582.0999,583.0995,,,583.5988,583.8488,,158,158,,,,,,,,,,,,,,,,bars/010.png,bars/mask003.png,,,,,,,,,,,,0,1,,,,,,,2,4,0,4,,,,,,,,,,,583.0995,583.5988,583.8488,589.4154,space,5.5531,,589.4154,7,77,590.4168,590.4168,591.2105,space,0.7813,,0,34,34,34,1,165,55,,,,,,,,
,,5c9124ef3b7f9e0013728485,65af55ec9cebb2ff24f09995,2024-01-23_08h01.19.449,bars,2023.2.3,Win32,120.4819277,657b66ea316d21385b68909f,,,,,,,,,,,591.2107,592.2129,,,592.7099,592.9543,,87,87,,,,,,,,,,,,,,,,bars/012.png,bars/mask003.png,,,,,,,,,,,,5,1,,,,,,,4,6,5,5,,,,,,,,,,,592.2129,592.7099,592.9544,595.8534,space,2.8925,,595.8536,3,72,596.8534,596.8534,597.7778,space,0.9086,,0,35,35,35,1,90,15,,,,,,,,
,,5c9124ef3b7f9e0013728485,65af55ec9cebb2ff24f09995,2024-01-23_08h01.19.449,bars,2023.2.3,Win32,120.4819277,657b66ea316d21385b68909f,,,,,,,,,,,597.7783,598.7775,,,599.2775,599.5275,,111,111,,,,,,,,,,,,,,,,bars/032.png,bars/mask003.png,,,,,,,,,,,,3,1,,,,,,,6,4,6,3,,,,,,,,,,,598.7775,599.2774,599.5276,603.3428,space,3.8002,,603.3429,14,89,604.3426,604.3426,605.0342,space,0.6765,,0,36,36,36,1,125,20,,,,,,,,
,,5c9124ef3b7f9e0013728485,65af55ec9cebb2ff24f09995,2024-01-23_08h01.19.449,bars,2023.2.3,Win32,120.4819277,657b66ea316d21385b68909f,,,,,,,,,,,605.0347,606.0363,,,606.5362,606.7838,,3,3,,,,,,,,,,,,,,,,bars/023.png,bars/mask005.png,,,,,,,,,,,,2,1,,,,,,,4,6,4,6,,,,,,,,,,,606.0363,606.5362,606.7838,611.7678,space,4.9703,,611.7679,17,68,612.762,612.762,613.6652,space,0.8908,,0,37,37,37,1,20,115,,,,,,,,
,,5c9124ef3b7f9e0013728485,65af55ec9cebb2ff24f09995,2024-01-23_08h01.19.449,bars,2023.2.3,Win32,120.4819277,657b66ea316d21385b68909f,,,,,,,,,,,613.6657,614.6646,,,615.1644,615.4145,,113,113,,,,,,,,,,,,,,,,bars/025.png,bars/mask002.png,,,,,,,,,,,,1,1,,,,,,,2,8,2,8,,,,,,,,,,,614.6647,615.1644,615.4146,619.6879,space,4.2578,,619.688,8,73,620.6879,620.6881,621.5182,space,0.8169,,0,38,38,38,1,105,40,,,,,,,,
,,5c9124ef3b7f9e0013728485,65af55ec9cebb2ff24f09995,2024-01-23_08h01.19.449,bars,2023.2.3,Win32,120.4819277,657b66ea316d21385b68909f,,,,,,,,,,,621.5185,622.5211,,,623.0207,623.2704,,164,-16,,,,,,,,,,,,,,,,bars/049.png,bars/mask009.png,,,,,,,,,,,,3,1,,,,,,,4,10,4,10,,,,,,,,,,,622.5212,623.0206,623.2706,627.4917,space,4.2078,,627.4917,4,49,628.4856,628.4857,629.4272,space,0.9255,,0,39,39,39,1,160,115,,,,,,,,
,,5c9124ef3b7f9e0013728485,65af55ec9cebb2ff24f09995,2024-01-23_08h01.19.449,bars,2023.2.3,Win32,120.4819277,657b66ea316d21385b68909f,,,,,,,,,,,629.4276,630.4266,,,630.9263,631.1763,,14,194,,,,,,,,,,,,,,,,bars/047.png,bars/mask007.png,,,,,,,,,,,,3,1,,,,,,,2,8,3,8,,,,,,,,,,,630.4267,630.9263,631.1764,634.8755,space,3.6824,,634.8755,1,56,635.8751,635.8752,636.7916,space,0.8998,,0,40,40,40,1,15,70,,,,,,,,
,,5c9124ef3b7f9e0013728485,65af55ec9cebb2ff24f09995,2024-01-23_08h01.19.449,bars,2023.2.3,Win32,120.4819277,657b66ea316d21385b68909f,,,,,,,,,,,636.7921,637.7912,,,638.2867,638.533,,39,39,,,,,,,,,,,,,,,,bars/048.png,bars/mask005.png,,,,,,,,,,,,3,1,,,,,,,4,6,4,6,,,,,,,,,,,637.7913,638.2867,638.5331,641.9149,space,3.3667,,641.9149,11,44,642.9144,642.9145,647.6907,space,4.7624,,0,41,41,41,1,50,175,,,,,,,,
,,5c9124ef3b7f9e0013728485,65af55ec9cebb2ff24f09995,2024-01-23_08h01.19.449,bars,2023.2.3,Win32,120.4819277,657b66ea316d21385b68909f,,,,,,,,,,,647.6962,648.6962,,,649.1963,649.4459,,31,31,,,,,,,,,,,,,,,,bars/003.png,bars/mask008.png,,,,,,,,,,,,3,1,,,,,,,6,8,4,10,,,,,,,,,,,648.6962,649.1962,649.446,653.4751,space,4.0164,,653.4751,6,71,654.475,654.475,658.0516,space,3.5617,,0,42,42,42,1,25,140,,,,,,,,
,,5c9124ef3b7f9e0013728485,65af55ec9cebb2ff24f09995,2024-01-23_08h01.19.449,bars,2023.2.3,Win32,120.4819277,657b66ea316d21385b68909f,,,,,,,,,,,658.0573,659.0513,,,659.5514,659.8011,,157,157,,,,,,,,,,,,,,,,bars/037.png,bars/mask004.png,,,,,,,,,,,,6,1,,,,,,,8,10,8,10,,,,,,,,,,,659.0514,659.5513,659.8012,661.2478,space,1.4405,,661.2479,7,52,662.2436,662.2437,662.6508,space,0.3921,,0,43,43,43,1,150,105,,,,,,,,
,,5c9124ef3b7f9e0013728485,65af55ec9cebb2ff24f09995,2024-01-23_08h01.19.449,bars,2023.2.3,Win32,120.4819277,657b66ea316d21385b68909f,,,,,,,,,,,662.6513,663.6467,,,664.1418,664.3917,,144,144,,,,,,,,,,,,,,,,bars/038.png,bars/mask000.png,,,,,,,,,,,,2,1,,,,,,,6,10,5,10,,,,,,,,,,,663.6467,664.1418,664.3917,665.338,space,0.9356,,665.338,21,74,666.3327,666.3328,667.7239,space,1.3778,,0,44,44,44,1,165,70,,,,,,,,
,,5c9124ef3b7f9e0013728485,65af55ec9cebb2ff24f09995,2024-01-23_08h01.19.449,bars,2023.2.3,Win32,120.4819277,657b66ea316d21385b68909f,,,,,,,,,,,667.7243,668.7235,,,669.2236,669.4732,,10,10,,,,,,,,,,,,,,,,bars/041.png,bars/mask008.png,,,,,,,,,,,,3,1,,,,,,,4,10,4,10,,,,,,,,,,,668.7236,669.2235,669.4732,670.6062,space,1.127,,670.6062,10,75,671.6061,671.6062,672.6057,space,0.9856,,0,45,45,45,1,20,85,,,,,,,,
,,5c9124ef3b7f9e0013728485,65af55ec9cebb2ff24f09995,2024-01-23_08h01.19.449,bars,2023.2.3,Win32,120.4819277,657b66ea316d21385b68909f,,,,,,,,,,,672.6061,673.6055,,,674.1081,674.3553,,149,149,,,,,,,,,,,,,,,,bars/017.png,bars/mask001.png,,,,,,,,,,,,5,1,,,,,,,6,10,6,9,,,,,,,,,,,673.6056,674.1081,674.3553,679.3625,space,4.9908,,679.3626,4,76,680.362,680.362,681.2332,space,0.8579,,0,46,46,46,1,145,45,,,,,,,,
,,5c9124ef3b7f9e0013728485,65af55ec9cebb2ff24f09995,2024-01-23_08h01.19.449,bars,2023.2.3,Win32,120.4819277,657b66ea316d21385b68909f,,,,,,,,,,,681.2334,682.2278,,,682.728,682.9777,,38,38,,,,,,,,,,,,,,,,bars/004.png,bars/mask006.png,,,,,,,,,,,,1,1,,,,,,,4,8,2,8,,,,,,,,,,,682.2279,682.7279,682.9778,686.8436,space,3.8502,,686.8437,13,87,687.8431,687.8431,688.532,space,0.6754,,0,47,47,47,1,25,125,,,,,,,,
,,5c9124ef3b7f9e0013728485,65af55ec9cebb2ff24f09995,2024-01-23_08h01.19.449,bars,2023.2.3,Win32,120.4819277,657b66ea316d21385b68909f,,,,,,,,,,,688.5322,689.5265,,,690.0255,690.2808,,95,95,,,,,,,,,,,,,,,,bars/029.png,bars/mask002.png,,,,,,,,,,,,5,1,,,,,,,6,10,6,10,,,,,,,,,,,689.5266,690.0255,690.2808,695.9908,space,5.7023,,695.9909,5,50,696.9929,696.993,698.4748,space,1.4699,,0,48,48,48,1,90,45,,,,,,,,
,,5c9124ef3b7f9e0013728485,65af55ec9cebb2ff24f09995,2024-01-23_08h01.19.449,bars,2023.2.3,Win32,120.4819277,657b66ea316d21385b68909f,,,,,,,,,,,698.4752,699.4727,,,699.9728,700.2226,,113,113,,,,,,,,,,,,,,,,bars/034.png,bars/mask001.png,,,,,,,,,,,,4,1,,,,,,,4,10,6,10,,,,,,,,,,,699.4728,699.9727,700.2227,703.5677,space,3.3322,,703.5678,12,48,704.5633,704.5634,705.2548,space,0.678,,0,49,49,49,1,125,65,,,,,,,,
,,5c9124ef3b7f9e0013728485,65af55ec9cebb2ff24f09995,2024-01-23_08h01.19.449,bars,2023.2.3,Win32,120.4819277,657b66ea316d21385b68909f,,,,,,,,,,,,,,,,,,,,,,,,,,,,,,,,,,,,,,,,,,,,,,,,,,,,,,,,,,,,,,,,,,,,,,,,,,,,,,,,,,,,,,,,,,,,,705.2558,765.2521,0,0,0,0,1,sequence_tables/blk008.csv
,,5c9124ef3b7f9e0013728485,65af55ec9cebb2ff24f09995,2024-01-23_08h01.19.449,bars,2023.2.3,Win32,120.4819277,657b66ea316d21385b68909f,,,,,,,,,,,782.3657,783.3537,,,783.8536,784.1019,,152,-28,,,,,,,,,,,,,,,,bars/021.png,bars/mask007.png,,,,,,,,,,,,5,1,,,,,,,6,1,6,0,,,,,,765.2681,782.3501,space,17.0753,,783.3539,783.8535,784.102,788.1054,space,3.9929,,788.1056,3,82,789.105,789.105,789.1207,,,,0,0,0,0,1,155,70,,,,,,,,
,,5c9124ef3b7f9e0013728485,65af55ec9cebb2ff24f09995,2024-01-23_08h01.19.449,bars,2023.2.3,Win32,120.4819277,657b66ea316d21385b68909f,,,,,,,,,,,789.121,790.1262,,,790.6217,790.8719,,167,167,,,,,,,,,,,,,,,,bars/010.png,bars/mask006.png,,,,,,,,,,,,7,1,,,,,,,8,3,8,3,,,,,,,,,,,790.1262,790.6217,790.8719,793.0386,space,2.1599,,793.0388,2,68,794.0371,794.0371,794.0388,,,,0,1,1,1,1,165,55,,,,,,,,
,,5c9124ef3b7f9e0013728485,65af55ec9cebb2ff24f09995,2024-01-23_08h01.19.449,bars,2023.2.3,Win32,120.4819277,657b66ea316d21385b68909f,,,,,,,,,,,794.0395,795.0367,,,795.5368,795.7866,,156,156,,,,,,,,,,,,,,,,bars/018.png,bars/mask005.png,,,,,,,,,,,,8,1,,,,,,,10,5,10,6,,,,,,,,,,,795.0368,795.5367,795.7867,799.4936,space,3.7,,799.4937,6,66,800.4934,800.4934,800.5094,,,,0,2,2,2,1,150,90,,,,,,,,
,,5c9124ef3b7f9e0013728485,65af55ec9cebb2ff24f09995,2024-01-23_08h01.19.449,bars,2023.2.3,Win32,120.4819277,657b66ea316d21385b68909f,,,,,,,,,,,800.5096,801.5056,,,802.004,802.248,,24,204,,,,,,,,,,,,,,,,bars/006.png,bars/mask006.png,,,,,,,,,,,,6,1,,,,,,,10,3,9,2,,,,,,,,,,,801.5057,802.004,802.248,807.0554,space,4.7985,,807.0555,11,76,808.0543,808.0544,808.0688,,,,0,3,3,3,1,35,100,,,,,,,,
,,5c9124ef3b7f9e0013728485,65af55ec9cebb2ff24f09995,2024-01-23_08h01.19.449,bars,2023.2.3,Win32,120.4819277,657b66ea316d21385b68909f,,,,,,,,,,,808.069,809.0658,,,809.5659,809.8156,,78,78,,,,,,,,,,,,,,,,bars/029.png,bars/mask002.png,,,,,,,,,,,,4,1,,,,,,,8,1,7,1,,,,,,,,,,,809.0658,809.5658,809.8157,813.3396,space,3.5165,,813.3396,12,33,814.3393,814.3394,814.3543,,,,0,4,4,4,1,90,45,,,,,,,,
,,5c9124ef3b7f9e0013728485,65af55ec9cebb2ff24f09995,2024-01-23_08h01.19.449,bars,2023.2.3,Win32,120.4819277,657b66ea316d21385b68909f,,,,,,,,,,,814.3545,815.352,,,815.8529,816.1014,,114,-66,,,,,,,,,,,,,,,,bars/024.png,bars/mask006.png,,,,,,,,,,,,5,1,,,,,,,6,0,6,0,,,,,,,,,,,815.352,815.8528,816.1015,821.1435,space,5.0324,,821.1436,6,56,822.1385,822.1386,822.1536,,,,0,5,5,5,1,120,170,,,,,,,,
,,5c9124ef3b7f9e0013728485,65af55ec9cebb2ff24f09995,2024-01-23_08h01.19.449,bars,2023.2.3,Win32,120.4819277,657b66ea316d21385b68909f,,,,,,,,,,,822.1538,823.1484,,,823.6483,823.9002,,18,198,,,,,,,,,,,,,,,,bars/009.png,bars/mask007.png,,,,,,,,,,,,6,1,,,,,,,8,0,7,1,,,,,,,,,,,823.1484,823.6483,823.9003,826.0395,space,2.1312,,826.0395,3,87,827.0388,827.0389,827.0539,,,,0,6,6,6,1,15,105,,,,,,,,
,,5c9124ef3b7f9e0013728485,65af55ec9cebb2ff24f09995,2024-01-23_08h01.19.449,bars,2023.2.3,Win32,120.4819277,657b66ea316d21385b68909f,,,,,,,,,,,827.0541,828.0519,,,828.5518,828.7964,,138,138,,,,,,,,,,,,,,,,bars/021.png,bars/mask000.png,,,,,,,,,,,,4,1,,,,,,,10,2,10,3,,,,,,,,,,,828.052,828.5517,828.7965,842.1444,space,13.3376,,842.1444,17,68,843.1449,843.1449,843.1602,,,,0,7,7,7,1,155,70,,,,,,,,
,,5c9124ef3b7f9e0013728485,65af55ec9cebb2ff24f09995,2024-01-23_08h01.19.449,bars,2023.2.3,Win32,120.4819277,657b66ea316d21385b68909f,,,,,,,,,,,843.1605,844.1597,,,844.6596,844.9053,,155,155,,,,,,,,,,,,,,,,bars/049.png,bars/mask000.png,,,,,,,,,,,,8,1,,,,,,,8,0,9,0,,,,,,,,,,,844.1597,844.6594,844.9053,847.3099,space,2.391,,847.3099,5,40,848.3068,848.3068,848.3228,,,,0,8,8,8,1,160,115,,,,,,,,
,,5c9124ef3b7f9e0013728485,65af55ec9cebb2ff24f09995,2024-01-23_08h01.19.449,bars,2023.2.3,Win32,120.4819277,657b66ea316d21385b68909f,,,,,,,,,,,848.3231,849.3262,,,849.8258,850.0704,,131,131,,,,,,,,,,,,,,,,bars/020.png,bars/mask004.png,,,,,,,,,,,,4,1,,,,,,,6,0,8,0,,,,,,,,,,,849.3263,849.8257,850.0705,855.0439,space,4.96,,855.0441,16,39,856.0434,856.0435,856.0592,,,,0,9,9,9,1,115,170,,,,,,,,
,,5c9124ef3b7f9e0013728485,65af55ec9cebb2ff24f09995,2024-01-23_08h01.19.449,bars,2023.2.3,Win32,120.4819277,657b66ea316d21385b68909f,,,,,,,,,,,856.06,857.0609,,,857.556,857.8053,,170,170,,,,,,,,,,,,,,,,bars/035.png,bars/mask006.png,,,,,,,,,,,,3,1,,,,,,,4,2,3,0,,,,,,,,,,,857.0609,857.556,857.8055,863.7886,space,5.9744,,863.7886,5,70,864.7825,864.7826,864.7949,,,,0,10,10,10,1,175,60,,,,,,,,
,,5c9124ef3b7f9e0013728485,65af55ec9cebb2ff24f09995,2024-01-23_08h01.19.449,bars,2023.2.3,Win32,120.4819277,657b66ea316d21385b68909f,,,,,,,,,,,864.7951,865.7942,,,866.2922,866.537,,84,84,,,,,,,,,,,,,,,,bars/014.png,bars/mask003.png,,,,,,,,,,,,2,1,,,,,,,2,0,2,1,,,,,,,,,,,865.7944,866.2919,866.537,868.9964,space,2.4503,,868.9965,4,84,869.9941,869.9942,870.0082,,,,0,11,11,11,1,80,0,,,,,,,,
,,5c9124ef3b7f9e0013728485,65af55ec9cebb2ff24f09995,2024-01-23_08h01.19.449,bars,2023.2.3,Win32,120.4819277,657b66ea316d21385b68909f,,,,,,,,,,,870.0086,871.0058,,,871.5059,871.7558,,103,103,,,,,,,,,,,,,,,,bars/015.png,bars/mask001.png,,,,,,,,,,,,5,1,,,,,,,4,2,6,2,,,,,,,,,,,871.0059,871.5058,871.7559,873.755,space,1.9922,,873.755,7,57,874.7547,874.7548,874.7558,,,,0,12,12,12,1,110,160,,,,,,,,
,,5c9124ef3b7f9e0013728485,65af55ec9cebb2ff24f09995,2024-01-23_08h01.19.449,bars,2023.2.3,Win32,120.4819277,657b66ea316d21385b68909f,,,,,,,,,,,874.7561,875.7546,,,876.2542,876.5042,,124,124,,,,,,,,,,,,,,,,bars/037.png,bars/mask002.png,,,,,,,,,,,,1,2,,,,,,,2,0,2,2,,,,,,,,,,,875.7547,876.2542,876.5042,880.7452,space,4.2342,,880.7453,26,19,881.7443,881.7444,881.7561,,,,0,13,13,13,1,150,105,,,,,,,,
,,5c9124ef3b7f9e0013728485,65af55ec9cebb2ff24f09995,2024-01-23_08h01.19.449,bars,2023.2.3,Win32,120.4819277,657b66ea316d21385b68909f,,,,,,,,,,,881.7563,882.7581,,,883.2522,883.5022,,116,116,,,,,,,,,,,,,,,,bars/030.png,bars/mask006.png,,,,,,,,,,,,1,1,,,,,,,4,0,6,0,,,,,,,,,,,882.7582,883.2521,883.5023,885.1652,space,1.6516,,885.1652,24,51,886.1646,886.1646,886.1809,,,,0,14,14,14,1,140,65,,,,,,,,
,,5c9124ef3b7f9e0013728485,65af55ec9cebb2ff24f09995,2024-01-23_08h01.19.449,bars,2023.2.3,Win32,120.4819277,657b66ea316d21385b68909f,,,,,,,,,,,886.181,887.1818,,,887.6758,887.926,,45,45,,,,,,,,,,,,,,,,bars/048.png,bars/mask009.png,,,,,,,,,,,,5,1,,,,,,,6,2,6,3,,,,,,,,,,,887.1818,887.6758,887.926,892.9827,space,5.0491,,892.9828,5,50,893.9822,893.9823,893.9969,,,,0,15,15,15,1,50,175,,,,,,,,
,,5c9124ef3b7f9e0013728485,65af55ec9cebb2ff24f09995,2024-01-23_08h01.19.449,bars,2023.2.3,Win32,120.4819277,657b66ea316d21385b68909f,,,,,,,,,,,893.9971,894.9922,,,895.4877,895.7467,,169,169,,,,,,,,,,,,,,,,bars/007.png,bars/mask006.png,,,,,,,,,,,,7,1,,,,,,,8,4,9,2,,,,,,,,,,,894.9922,895.4877,895.7467,900.2717,space,4.5173,,900.2718,6,66,901.269,901.2691,901.284,,,,0,16,16,16,1,175,55,,,,,,,,
,,5c9124ef3b7f9e0013728485,65af55ec9cebb2ff24f09995,2024-01-23_08h01.19.449,bars,2023.2.3,Win32,120.4819277,657b66ea316d21385b68909f,,,,,,,,,,,901.2842,902.2817,,,902.7852,903.0298,,177,-3,,,,,,,,,,,,,,,,bars/009.png,bars/mask004.png,,,,,,,,,,,,2,1,,,,,,,6,2,5,1,,,,,,,,,,,902.2818,902.7851,903.03,905.0546,space,2.0118,,905.0546,18,72,906.0538,906.0538,906.0677,,,,0,17,17,17,1,15,105,,,,,,,,
,,5c9124ef3b7f9e0013728485,65af55ec9cebb2ff24f09995,2024-01-23_08h01.19.449,bars,2023.2.3,Win32,120.4819277,657b66ea316d21385b68909f,,,,,,,,,,,906.0679,907.0652,,,907.5655,907.8138,,178,178,,,,,,,,,,,,,,,,bars/007.png,bars/mask004.png,,,,,,,,,,,,4,1,,,,,,,4,0,4,0,,,,,,,,,,,907.0653,907.5654,907.8138,909.1838,space,1.3587,,909.1838,3,57,910.1804,910.1804,910.1809,,,,0,18,18,18,1,175,55,,,,,,,,
,,5c9124ef3b7f9e0013728485,65af55ec9cebb2ff24f09995,2024-01-23_08h01.19.449,bars,2023.2.3,Win32,120.4819277,657b66ea316d21385b68909f,,,,,,,,,,,910.181,911.1816,,,911.677,911.9236,,19,199,,,,,,,,,,,,,,,,bars/026.png,bars/mask005.png,,,,,,,,,,,,3,1,,,,,,,6,2,6,2,,,,,,,,,,,911.1816,911.6769,911.9237,914.7163,space,2.7863,,914.7163,16,66,915.7234,915.7234,915.7384,,,,0,19,19,19,1,35,85,,,,,,,,
,,5c9124ef3b7f9e0013728485,65af55ec9cebb2ff24f09995,2024-01-23_08h01.19.449,bars,2023.2.3,Win32,120.4819277,657b66ea316d21385b68909f,,,,,,,,,,,915.7386,916.7389,,,917.234,917.4837,,166,166,,,,,,,,,,,,,,,,bars/018.png,bars/mask007.png,,,,,,,,,,,,3,1,,,,,,,8,4,7,6,,,,,,,,,,,916.7391,917.2339,917.4837,920.6078,space,3.1169,,920.6079,16,76,921.6075,921.6075,921.6223,,,,0,20,20,20,1,150,90,,,,,,,,
,,5c9124ef3b7f9e0013728485,65af55ec9cebb2ff24f09995,2024-01-23_08h01.19.449,bars,2023.2.3,Win32,120.4819277,657b66ea316d21385b68909f,,,,,,,,,,,921.6224,922.6176,,,923.1209,923.3716,,161,161,,,,,,,,,,,,,,,,bars/018.png,bars/mask003.png,,,,,,,,,,,,6,1,,,,,,,10,6,9,8,,,,,,,,,,,922.6177,923.1208,923.3716,926.1407,space,2.762,,926.1408,11,71,927.1369,927.137,927.1521,,,,0,21,21,21,1,150,90,,,,,,,,
,,5c9124ef3b7f9e0013728485,65af55ec9cebb2ff24f09995,2024-01-23_08h01.19.449,bars,2023.2.3,Win32,120.4819277,657b66ea316d21385b68909f,,,,,,,,,,,927.1523,928.151,,,928.6524,928.9008,,15,15,,,,,,,,,,,,,,,,bars/041.png,bars/mask006.png,,,,,,,,,,,,7,1,,,,,,,8,4,8,4,,,,,,,,,,,928.151,928.6523,928.901,930.1372,space,1.2265,,930.1373,5,70,931.1347,931.1348,931.1359,,,,0,22,22,22,1,20,85,,,,,,,,
,,5c9124ef3b7f9e0013728485,65af55ec9cebb2ff24f09995,2024-01-23_08h01.19.449,bars,2023.2.3,Win32,120.4819277,657b66ea316d21385b68909f,,,,,,,,,,,931.1362,932.1431,,,932.6424,932.8877,,20,200,,,,,,,,,,,,,,,,bars/016.png,bars/mask006.png,,,,,,,,,,,,3,1,,,,,,,10,2,10,1,,,,,,,,,,,932.1432,932.6424,932.8877,936.3827,space,3.4812,,936.3827,20,35,937.378,937.378,937.3933,,,,0,23,23,23,1,40,165,,,,,,,,
,,5c9124ef3b7f9e0013728485,65af55ec9cebb2ff24f09995,2024-01-23_08h01.19.449,bars,2023.2.3,Win32,120.4819277,657b66ea316d21385b68909f,,,,,,,,,,,937.3936,938.3896,,,938.8906,939.1415,,159,-21,,,,,,,,,,,,,,,,bars/011.png,bars/mask002.png,,,,,,,,,,,,10,1,,,,,,,10,4,10,4,,,,,,,,,,,938.3897,938.8905,939.1415,942.649,space,3.4997,,942.6491,1,74,943.6477,943.6478,943.663,,,,0,24,24,24,1,160,85,,,,,,,,
,,5c9124ef3b7f9e0013728485,65af55ec9cebb2ff24f09995,2024-01-23_08h01.19.449,bars,2023.2.3,Win32,120.4819277,657b66ea316d21385b68909f,,,,,,,,,,,943.6632,944.6619,,,945.1635,945.414,,160,-20,,,,,,,,,,,,,,,,bars/007.png,bars/mask009.png,,,,,,,,,,,,5,1,,,,,,,10,6,9,5,,,,,,,,,,,944.6621,945.1634,945.4142,950.1138,space,4.6914,,950.1138,15,75,951.1114,951.1115,951.1264,,,,0,25,25,25,1,175,55,,,,,,,,
,,5c9124ef3b7f9e0013728485,65af55ec9cebb2ff24f09995,2024-01-23_08h01.19.449,bars,2023.2.3,Win32,120.4819277,657b66ea316d21385b68909f,,,,,,,,,,,951.1266,952.1235,,,952.6234,952.8733,,102,102,,,,,,,,,,,,,,,,bars/002.png,bars/mask008.png,,,,,,,,,,,,4,2,,,,,,,10,8,10,9,,,,,,,,,,,952.1235,952.6234,952.8733,954.9627,space,2.0825,,954.9627,28,17,955.964,955.9641,955.9796,,,,0,26,26,26,1,130,85,,,,,,,,
,,5c9124ef3b7f9e0013728485,65af55ec9cebb2ff24f09995,2024-01-23_08h01.19.449,bars,2023.2.3,Win32,120.4819277,657b66ea316d21385b68909f,,,,,,,,,,,955.9797,956.98,,,957.48,957.7274,,106,-74,,,,,,,,,,,,,,,,bars/008.png,bars/mask002.png,,,,,,,,,,,,9,1,,,,,,,10,10,10,10,,,,,,,,,,,956.9802,957.48,957.7274,963.2438,space,5.5086,,963.2438,4,74,964.2502,964.2503,964.268,,,,0,27,27,27,1,110,0,,,,,,,,
,,5c9124ef3b7f9e0013728485,65af55ec9cebb2ff24f09995,2024-01-23_08h01.19.449,bars,2023.2.3,Win32,120.4819277,657b66ea316d21385b68909f,,,,,,,,,,,964.2683,965.2679,,,965.7663,966.0174,,119,119,,,,,,,,,,,,,,,,bars/024.png,bars/mask000.png,,,,,,,,,,,,8,1,,,,,,,8,10,8,9,,,,,,,,,,,965.2679,965.7662,966.0174,968.9673,space,2.9421,,968.9674,1,51,969.9683,969.9685,969.9845,,,,0,28,28,28,1,120,170,,,,,,,,
,,5c9124ef3b7f9e0013728485,65af55ec9cebb2ff24f09995,2024-01-23_08h01.19.449,bars,2023.2.3,Win32,120.4819277,657b66ea316d21385b68909f,,,,,,,,,,,969.9847,970.9904,,,971.4894,971.7393,,10,10,,,,,,,,,,,,,,,,bars/033.png,bars/mask009.png,,,,,,,,,,,,3,1,,,,,,,6,8,5,8,,,,,,,,,,,970.9904,971.4892,971.7393,976.3412,space,4.5929,,976.3412,15,35,977.3412,977.3412,977.3538,,,,0,29,29,29,1,25,155,,,,,,,,
,,5c9124ef3b7f9e0013728485,65af55ec9cebb2ff24f09995,2024-01-23_08h01.19.449,bars,2023.2.3,Win32,120.4819277,657b66ea316d21385b68909f,,,,,,,,,,,977.3541,978.354,,,978.8539,979.1029,,44,44,,,,,,,,,,,,,,,,bars/004.png,bars/mask004.png,,,,,,,,,,,,2,1,,,,,,,4,10,5,10,,,,,,,,,,,978.3541,978.8539,979.103,984.2542,space,5.1421,,984.2543,19,81,985.2522,985.2523,985.2684,,,,0,30,30,30,1,25,125,,,,,,,,
,,5c9124ef3b7f9e0013728485,65af55ec9cebb2ff24f09995,2024-01-23_08h01.19.449,bars,2023.2.3,Win32,120.4819277,657b66ea316d21385b68909f,,,,,,,,,,,985.2686,986.2634,,,986.7634,987.0129,,88,88,,,,,,,,,,,,,,,,bars/012.png,bars/mask004.png,,,,,,,,,,,,1,1,,,,,,,2,8,1,9,,,,,,,,,,,986.2634,986.7633,987.013,989.8541,space,2.8322,,989.8541,2,73,990.8537,990.8537,990.8711,,,,0,31,31,31,1,90,15,,,,,,,,
,,5c9124ef3b7f9e0013728485,65af55ec9cebb2ff24f09995,2024-01-23_08h01.19.449,bars,2023.2.3,Win32,120.4819277,657b66ea316d21385b68909f,,,,,,,,,,,990.8713,991.8663,,,992.3619,992.6117,,28,208,,,,,,,,,,,,,,,,bars/033.png,bars/mask008.png,,,,,,,,,,,,0,1,,,,,,,0,10,0,7,,,,,,,,,,,991.8664,992.3619,992.6117,997.51,space,4.8907,,997.5101,3,53,998.5097,998.5097,998.5231,,,,0,32,32,32,1,25,155,,,,,,,,
,,5c9124ef3b7f9e0013728485,65af55ec9cebb2ff24f09995,2024-01-23_08h01.19.449,bars,2023.2.3,Win32,120.4819277,657b66ea316d21385b68909f,,,,,,,,,,,998.5232,999.5223,,,1000.0204,1000.2714,,31,31,,,,,,,,,,,,,,,,bars/026.png,bars/mask003.png,,,,,,,,,,,,2,1,,,,,,,2,8,2,7,,,,,,,,,,,999.5225,1000.0203,1000.2715,1001.4903,space,1.2086,,1001.4903,4,54,1002.4916,1002.4916,1002.4929,,,,0,33,33,33,1,35,85,,,,,,,,
,,5c9124ef3b7f9e0013728485,65af55ec9cebb2ff24f09995,2024-01-23_08h01.19.449,bars,2023.2.3,Win32,120.4819277,657b66ea316d21385b68909f,,,,,,,,,,,1002.4933,1003.4913,,,1003.9915,1004.2413,,14,14,,,,,,,,,,,,,,,,bars/009.png,bars/mask007.png,,,,,,,,,,,,1,1,,,,,,,0,10,1,10,,,,,,,,,,,1003.4913,1003.9915,1004.2413,1006.6474,space,2.3995,,1006.6475,1,89,1007.6456,1007.6456,1007.6601,,,,0,34,34,34,1,15,105,,,,,,,,
,,5c9124ef3b7f9e0013728485,65af55ec9cebb2ff24f09995,2024-01-23_08h01.19.449,bars,2023.2.3,Win32,120.4819277,657b66ea316d21385b68909f,,,,,,,,,,,1007.6602,1008.6548,,,1009.1495,1009.3959,,30,210,,,,,,,,,,,,,,,,bars/005.png,bars/mask006.png,,,,,,,,,,,,0,1,,,,,,,2,10,1,10,,,,,,,,,,,1008.6548,1009.1495,1009.3959,1014.1252,space,4.722,,1014.1253,20,70,1015.1226,1015.1226,1015.1347,,,,0,35,35,35,1,10,140,,,,,,,,
,,5c9124ef3b7f9e0013728485,65af55ec9cebb2ff24f09995,2024-01-23_08h01.19.449,bars,2023.2.3,Win32,120.4819277,657b66ea316d21385b68909f,,,,,,,,,,,1015.1348,1016.1338,,,1016.6295,1016.8827,,93,93,,,,,,,,,,,,,,,,bars/013.png,bars/mask005.png,,,,,,,,,,,,2,1,,,,,,,4,10,4,9,,,,,,,,,,,1016.1339,1016.6294,1016.8827,1019.8925,space,3.0017,,1019.8926,18,83,1020.8916,1020.8917,1020.9072,,,,0,36,36,36,1,75,10,,,,,,,,
,,5c9124ef3b7f9e0013728485,65af55ec9cebb2ff24f09995,2024-01-23_08h01.19.449,bars,2023.2.3,Win32,120.4819277,657b66ea316d21385b68909f,,,,,,,,,,,1020.9075,1021.9086,,,1022.4069,1022.6556,,38,38,,,,,,,,,,,,,,,,bars/028.png,bars/mask007.png,,,,,,,,,,,,5,1,,,,,,,6,10,6,9,,,,,,,,,,,1021.9087,1022.4067,1022.6557,1025.1738,space,2.5076,,1025.1738,7,82,1026.1718,1026.1719,1026.1877,,,,0,37,37,37,1,45,120,,,,,,,,
,,5c9124ef3b7f9e0013728485,65af55ec9cebb2ff24f09995,2024-01-23_08h01.19.449,bars,2023.2.3,Win32,120.4819277,657b66ea316d21385b68909f,,,,,,,,,,,1026.1879,1027.1899,,,1027.6903,1027.9356,,123,-57,,,,,,,,,,,,,,,,bars/024.png,bars/mask004.png,,,,,,,,,,,,8,1,,,,,,,8,10,9,8,,,,,,,,,,,1027.1899,1027.6903,1027.9359,1031.9562,space,4.008,,1031.9563,3,47,1032.9536,1032.9536,1032.9691,,,,0,38,38,38,1,120,170,,,,,,,,
,,5c9124ef3b7f9e0013728485,65af55ec9cebb2ff24f09995,2024-01-23_08h01.19.449,bars,2023.2.3,Win32,120.4819277,657b66ea316d21385b68909f,,,,,,,,,,,1032.9693,1033.9658,,,1034.4658,1034.7115,,140,140,,,,,,,,,,,,,,,,bars/001.png,bars/mask006.png,,,,,,,,,,,,5,1,,,,,,,6,8,7,9,,,,,,,,,,,1033.9659,1034.4657,1034.7117,1040.7876,space,6.0663,,1040.7877,10,55,1041.7859,1041.786,1041.8013,,,,0,39,39,39,1,130,85,,,,,,,,
,,5c9124ef3b7f9e0013728485,65af55ec9cebb2ff24f09995,2024-01-23_08h01.19.449,bars,2023.2.3,Win32,120.4819277,657b66ea316d21385b68909f,,,,,,,,,,,1041.8015,1042.8006,,,1043.3024,1043.5526,,172,172,,,,,,,,,,,,,,,,bars/039.png,bars/mask009.png,,,,,,,,,,,,4,1,,,,,,,4,6,4,6,,,,,,,,,,,1042.8006,1043.3023,1043.5526,1047.5144,space,3.9539,,1047.5145,3,67,1048.5171,1048.5172,1048.5323,,,,0,40,40,40,1,175,105,,,,,,,,
,,5c9124ef3b7f9e0013728485,65af55ec9cebb2ff24f09995,2024-01-23_08h01.19.449,bars,2023.2.3,Win32,120.4819277,657b66ea316d21385b68909f,,,,,,,,,,,1048.5326,1049.5326,,,1050.0302,1050.2825,,151,-29,,,,,,,,,,,,,,,,bars/036.png,bars/mask008.png,,,,,,,,,,,,5,1,,,,,,,6,8,6,9,,,,,,,,,,,1049.5326,1050.0301,1050.2825,1122.4655,space,72.1778,,1122.4657,6,49,1123.4644,1123.4645,1123.4778,,,,0,41,41,41,1,145,20,,,,,,,,
,,5c9124ef3b7f9e0013728485,65af55ec9cebb2ff24f09995,2024-01-23_08h01.19.449,bars,2023.2.3,Win32,120.4819277,657b66ea316d21385b68909f,,,,,,,,,,,1123.478,1124.4776,,,1124.9749,1125.2187,,106,106,,,,,,,,,,,,,,,,bars/020.png,bars/mask003.png,,,,,,,,,,,,2,1,,,,,,,4,10,3,10,,,,,,,,,,,1124.4776,1124.9747,1125.2188,1127.5715,space,2.3423,,1127.5715,9,64,1128.5682,1128.5683,1128.5839,,,,0,42,42,42,1,115,170,,,,,,,,
,,5c9124ef3b7f9e0013728485,65af55ec9cebb2ff24f09995,2024-01-23_08h01.19.449,bars,2023.2.3,Win32,120.4819277,657b66ea316d21385b68909f,,,,,,,,,,,1128.584,1129.581,,,1130.0762,1130.3255,,167,-13,,,,,,,,,,,,,,,,bars/007.png,bars/mask003.png,,,,,,,,,,,,1,1,,,,,,,2,10,2,10,,,,,,,,,,,1129.5811,1130.0762,1130.3255,1179.1707,space,48.8367,,1179.1708,8,68,1180.1692,1180.1693,1180.1861,,,,0,43,43,43,1,175,55,,,,,,,,
,,5c9124ef3b7f9e0013728485,65af55ec9cebb2ff24f09995,2024-01-23_08h01.19.449,bars,2023.2.3,Win32,120.4819277,657b66ea316d21385b68909f,,,,,,,,,,,1180.1862,1181.1807,,,1181.6804,1181.9303,,62,62,,,,,,,,,,,,,,,,bars/044.png,bars/mask002.png,,,,,,,,,,,,1,1,,,,,,,0,10,1,10,,,,,,,,,,,1181.1807,1181.6803,1181.9304,1187.0881,space,5.1496,,1187.0881,13,87,1188.0879,1188.088,1188.1035,,,,0,44,44,44,1,75,155,,,,,,,,
,,5c9124ef3b7f9e0013728485,65af55ec9cebb2ff24f09995,2024-01-23_08h01.19.449,bars,2023.2.3,Win32,120.4819277,657b66ea316d21385b68909f,,,,,,,,,,,1188.1037,1189.1088,,,1189.6086,1189.858,,32,32,,,,,,,,,,,,,,,,bars/000.png,bars/mask009.png,,,,,,,,,,,,1,1,,,,,,,2,10,1,9,,,,,,,,,,,1189.1088,1189.6084,1189.858,1192.9327,space,3.0663,,1192.9328,8,67,1193.9277,1193.9278,1193.9431,,,,0,45,45,45,1,40,145,,,,,,,,
,,5c9124ef3b7f9e0013728485,65af55ec9cebb2ff24f09995,2024-01-23_08h01.19.449,bars,2023.2.3,Win32,120.4819277,657b66ea316d21385b68909f,,,,,,,,,,,1193.9433,1194.9387,,,1195.4396,1195.6845,,123,123,,,,,,,,,,,,,,,,bars/024.png,bars/mask009.png,,,,,,,,,,,,0,1,,,,,,,0,10,0,10,,,,,,,,,,,1194.9388,1195.4394,1195.6846,1199.8125,space,4.1144,,1199.8125,3,47,1200.8079,1200.8079,1200.82,,,,0,46,46,46,1,120,170,,,,,,,,
,,5c9124ef3b7f9e0013728485,65af55ec9cebb2ff24f09995,2024-01-23_08h01.19.449,bars,2023.2.3,Win32,120.4819277,657b66ea316d21385b68909f,,,,,,,,,,,1200.8202,1201.8208,,,1202.3175,1202.5717,,42,42,,,,,,,,,,,,,,,,bars/016.png,bars/mask002.png,,,,,,,,,,,,3,1,,,,,,,2,8,3,7,,,,,,,,,,,1201.8209,1202.3175,1202.5719,1206.3205,space,3.7414,,1206.3206,2,57,1207.3147,1207.3147,1207.3299,,,,0,47,47,47,1,40,165,,,,,,,,
,,5c9124ef3b7f9e0013728485,65af55ec9cebb2ff24f09995,2024-01-23_08h01.19.449,bars,2023.2.3,Win32,120.4819277,657b66ea316d21385b68909f,,,,,,,,,,,1207.3301,1208.3281,,,1208.8247,1209.0692,,154,154,,,,,,,,,,,,,,,,bars/032.png,bars/mask007.png,,,,,,,,,,,,0,1,,,,,,,4,10,5,8,,,,,,,,,,,1208.3283,1208.8246,1209.0692,1211.0287,space,1.9536,,1211.0287,29,46,1212.0274,1212.0274,1212.0287,,,,0,48,48,48,1,125,20,,,,,,,,
,,5c9124ef3b7f9e0013728485,65af55ec9cebb2ff24f09995,2024-01-23_08h01.19.449,bars,2023.2.3,Win32,120.4819277,657b66ea316d21385b68909f,,,,,,,,,,,1212.0291,1213.0253,,,1213.521,1213.7655,,136,136,,,,,,,,,,,,,,,,bars/024.png,bars/mask007.png,,,,,,,,,,,,3,1,,,,,,,6,8,6,10,,,,,,,,,,,1213.0253,1213.5209,1213.7656,1215.899,space,2.1233,,1215.899,16,34,1216.9005,1216.9005,1216.9158,,,,0,49,49,49,1,120,170,,,,,,,,
,,5c9124ef3b7f9e0013728485,65af55ec9cebb2ff24f09995,2024-01-23_08h01.19.449,bars,2023.2.3,Win32,120.4819277,657b66ea316d21385b68909f,,,,,,,,,,,,,,,,,,,,,,,,,,,,,,,,,,,,,,,,,,,,,,,,,,,,,,,,,,,,,,,,,,,,,,,,,,,,,,,,,,,,,,,,,,,,,1216.916,1276.9107,0,1,1,1,1,sequence_tables/blk045.csv
,,5c9124ef3b7f9e0013728485,65af55ec9cebb2ff24f09995,2024-01-23_08h01.19.449,bars,2023.2.3,Win32,120.4819277,657b66ea316d21385b68909f,,,,,,,,,,,1296.2964,1297.2829,,,1297.7795,1298.0293,,22,202,,,,,,,,,,,,,,,,bars/000.png,bars/mask001.png,,,,,,,,,,,,4,1,,,,,,,10,7,10,7,,,,,,1276.9271,1296.2804,space,19.3462,,1297.2829,1297.7794,1298.0294,1301.7206,space,3.6846,,1301.7208,18,57,1302.7193,1302.7194,1302.7356,,,,0,0,0,0,1,40,145,,,,,,,,
,,5c9124ef3b7f9e0013728485,65af55ec9cebb2ff24f09995,2024-01-23_08h01.19.449,bars,2023.2.3,Win32,120.4819277,657b66ea316d21385b68909f,,,,,,,,,,,1302.736,1303.7303,,,1304.23,1304.4771,,14,194,,,,,,,,,,,,,,,,bars/047.png,bars/mask004.png,,,,,,,,,,,,8,1,,,,,,,8,9,8,8,,,,,,,,,,,1303.7304,1304.2299,1304.4772,1307.2734,space,2.7822,,1307.2735,1,56,1308.2714,1308.2715,1308.2866,,,,0,1,1,1,1,15,70,,,,,,,,
,,5c9124ef3b7f9e0013728485,65af55ec9cebb2ff24f09995,2024-01-23_08h01.19.449,bars,2023.2.3,Win32,120.4819277,657b66ea316d21385b68909f,,,,,,,,,,,1308.2868,1309.2842,,,1309.7842,1310.0342,,92,92,,,,,,,,,,,,,,,,bars/026.png,bars/mask008.png,,,,,,,,,,,,5,2,,,,,,,6,7,4,7,,,,,,,,,,,1309.2843,1309.7842,1310.0342,1314.7162,space,4.6739,,1314.7163,57,7,1315.7158,1315.7159,1315.7302,,,,0,2,2,2,1,35,85,,,,,,,,
,,5c9124ef3b7f9e0013728485,65af55ec9cebb2ff24f09995,2024-01-23_08h01.19.449,bars,2023.2.3,Win32,120.4819277,657b66ea316d21385b68909f,,,,,,,,,,,1315.7304,1316.7291,,,1317.2239,1317.4736,,154,154,,,,,,,,,,,,,,,,bars/036.png,bars/mask001.png,,,,,,,,,,,,6,1,,,,,,,8,9,8,10,,,,,,,,,,,1316.7292,1317.2239,1317.4738,1319.8807,space,2.3979,,1319.8807,9,46,1320.8804,1320.8804,1320.8922,,,,0,3,3,3,1,145,20,,,,,,,,
,,5c9124ef3b7f9e0013728485,65af55ec9cebb2ff24f09995,2024-01-23_08h01.19.449,bars,2023.2.3,Win32,120.4819277,657b66ea316d21385b68909f,,,,,,,,,,,1320.8924,1321.8889,,,1322.386,1322.6359,,37,37,,,,,,,,,,,,,,,,bars/043.png,bars/mask006.png,,,,,,,,,,,,7,1,,,,,,,10,7,9,7,,,,,,,,,,,1321.8889,1322.3859,1322.6359,1329.3901,space,6.746,,1329.3902,7,87,1330.3918,1330.392,1330.4067,,,,0,4,4,4,1,30,130,,,,,,,,
,,5c9124ef3b7f9e0013728485,65af55ec9cebb2ff24f09995,2024-01-23_08h01.19.449,bars,2023.2.3,Win32,120.4819277,657b66ea316d21385b68909f,,,,,,,,,,,1330.407,1331.4058,,,1331.908,1332.1527,,111,111,,,,,,,,,,,,,,,,bars/001.png,bars/mask000.png,,,,,,,,,,,,3,1,,,,,,,8,5,8,7,,,,,,,,,,,1331.4059,1331.908,1332.1528,1335.3563,space,3.1929,,1335.3563,19,26,1336.3567,1336.3567,1336.3718,,,,0,5,5,5,1,130,85,,,,,,,,
,,5c9124ef3b7f9e0013728485,65af55ec9cebb2ff24f09995,2024-01-23_08h01.19.449,bars,2023.2.3,Win32,120.4819277,657b66ea316d21385b68909f,,,,,,,,,,,1336.3721,1337.3729,,,1337.8677,1338.1176,,16,196,,,,,,,,,,,,,,,,bars/033.png,bars/mask007.png,,,,,,,,,,,,7,1,,,,,,,10,3,10,3,,,,,,,,,,,1337.3729,1337.8676,1338.1177,1340.7514,space,2.627,,1340.7515,9,41,1341.7497,1341.7498,1341.7646,,,,0,6,6,6,1,25,155,,,,,,,,
,,5c9124ef3b7f9e0013728485,65af55ec9cebb2ff24f09995,2024-01-23_08h01.19.449,bars,2023.2.3,Win32,120.4819277,657b66ea316d21385b68909f,,,,,,,,,,,1341.7648,1342.7628,,,1343.258,1343.5079,,95,95,,,,,,,,,,,,,,,,bars/012.png,bars/mask001.png,,,,,,,,,,,,5,1,,,,,,,8,5,6,2,,,,,,,,,,,1342.7628,1343.258,1343.5079,1347.0566,space,3.5413,,1347.0567,5,80,1348.0559,1348.0559,1348.0714,,,,0,7,7,7,1,90,15,,,,,,,,
,,5c9124ef3b7f9e0013728485,65af55ec9cebb2ff24f09995,2024-01-23_08h01.19.449,bars,2023.2.3,Win32,120.4819277,657b66ea316d21385b68909f,,,,,,,,,,,1348.0716,1349.0677,,,1349.5646,1349.8189,,121,121,,,,,,,,,,,,,,,,bars/024.png,bars/mask003.png,,,,,,,,,,,,10,1,,,,,,,10,3,10,2,,,,,,,,,,,1349.0677,1349.5646,1349.819,1354.4624,space,4.6372,,1354.4625,1,49,1355.4573,1355.4575,1355.4739,,,,0,8,8,8,1,120,170,,,,,,,,
,,5c9124ef3b7f9e0013728485,65af55ec9cebb2ff24f09995,2024-01-23_08h01.19.449,bars,2023.2.3,Win32,120.4819277,657b66ea316d21385b68909f,,,,,,,,,,,1355.4741,1356.4709,,,1356.9663,1357.217,,138,138,,,,,,,,,,,,,,,,bars/018.png,bars/mask008.png,,,,,,,,,,,,6,1,,,,,,,10,1,10,3,,,,,,,,,,,1356.471,1356.9663,1357.2171,1358.2821,space,1.0569,,1358.2822,12,48,1359.2782,1359.2782,1359.2794,,,,0,9,9,9,1,150,90,,,,,,,,
,,5c9124ef3b7f9e0013728485,65af55ec9cebb2ff24f09995,2024-01-23_08h01.19.449,bars,2023.2.3,Win32,120.4819277,657b66ea316d21385b68909f,,,,,,,,,,,1359.2796,1360.2746,,,1360.7693,1361.0188,,42,42,,,,,,,,,,,,,,,,bars/000.png,bars/mask005.png,,,,,,,,,,,,8,1,,,,,,,8,0,9,0,,,,,,,,,,,1360.2748,1360.7693,1361.0188,1366.1346,space,5.1087,,1366.1347,2,77,1367.1339,1367.134,1367.1489,,,,0,10,10,10,1,40,145,,,,,,,,
,,5c9124ef3b7f9e0013728485,65af55ec9cebb2ff24f09995,2024-01-23_08h01.19.449,bars,2023.2.3,Win32,120.4819277,657b66ea316d21385b68909f,,,,,,,,,,,1367.149,1368.1466,,,1368.6486,1368.8967,,150,-30,,,,,,,,,,,,,,,,bars/017.png,bars/mask008.png,,,,,,,,,,,,6,1,,,,,,,6,2,7,2,,,,,,,,,,,1368.1466,1368.6485,1368.8968,1371.8965,space,2.9916,,1371.8965,5,75,1372.8936,1372.8937,1372.9086,,,,0,11,11,11,1,145,45,,,,,,,,
,,5c9124ef3b7f9e0013728485,65af55ec9cebb2ff24f09995,2024-01-23_08h01.19.449,bars,2023.2.3,Win32,120.4819277,657b66ea316d21385b68909f,,,,,,,,,,,1372.9087,1373.9029,,,1374.402,1374.6537,,156,-24,,,,,,,,,,,,,,,,bars/036.png,bars/mask007.png,,,,,,,,,,,,6,1,,,,,,,8,0,9,0,,,,,,,,,,,1373.9029,1374.4019,1374.654,1379.6041,space,4.9417,,1379.6041,11,44,1380.6016,1380.6017,1380.617,,,,0,12,12,12,1,145,20,,,,,,,,
,,5c9124ef3b7f9e0013728485,65af55ec9cebb2ff24f09995,2024-01-23_08h01.19.449,bars,2023.2.3,Win32,120.4819277,657b66ea316d21385b68909f,,,,,,,,,,,1380.6173,1381.6178,,,1382.1147,1382.3683,,148,148,,,,,,,,,,,,,,,,bars/021.png,bars/mask009.png,,,,,,,,,,,,7,1,,,,,,,10,2,9,0,,,,,,,,,,,1381.6179,1382.1146,1382.3683,1384.6264,space,2.2504,,1384.6265,7,78,1385.6246,1385.6246,1385.6404,,,,0,13,13,13,1,155,70,,,,,,,,
,,5c9124ef3b7f9e0013728485,65af55ec9cebb2ff24f09995,2024-01-23_08h01.19.449,bars,2023.2.3,Win32,120.4819277,657b66ea316d21385b68909f,,,,,,,,,,,1385.6406,1386.6362,,,1387.1337,1387.3809,,66,66,,,,,,,,,,,,,,,,bars/046.png,bars/mask002.png,,,,,,,,,,,,2,2,,,,,,,8,4,10,6,,,,,,,,,,,1386.6363,1387.1334,1387.3809,1389.134,space,1.7428,,1389.1341,89,19,1390.1323,1390.1323,1390.1357,,,,0,14,14,14,1,155,85,,,,,,,,
,,5c9124ef3b7f9e0013728485,65af55ec9cebb2ff24f09995,2024-01-23_08h01.19.449,bars,2023.2.3,Win32,120.4819277,657b66ea316d21385b68909f,,,,,,,,,,,1390.1362,1391.1405,,,1391.6351,1391.8819,,10,10,,,,,,,,,,,,,,,,bars/023.png,bars/mask000.png,,,,,,,,,,,,7,1,,,,,,,10,2,10,3,,,,,,,,,,,1391.1406,1391.635,1391.8821,1395.4523,space,3.5619,,1395.4523,10,75,1396.4496,1396.4497,1396.4662,,,,0,15,15,15,1,20,115,,,,,,,,
,,5c9124ef3b7f9e0013728485,65af55ec9cebb2ff24f09995,2024-01-23_08h01.19.449,bars,2023.2.3,Win32,120.4819277,657b66ea316d21385b68909f,,,,,,,,,,,1396.4666,1397.4666,,,1397.9612,1398.2115,,83,83,,,,,,,,,,,,,,,,bars/022.png,bars/mask002.png,,,,,,,,,,,,4,1,,,,,,,8,0,7,0,,,,,,,,,,,1397.4668,1397.9611,1398.2116,1401.6981,space,3.4757,,1401.6982,12,63,1402.6947,1402.6948,1402.7087,,,,0,16,16,16,1,95,20,,,,,,,,
,,5c9124ef3b7f9e0013728485,65af55ec9cebb2ff24f09995,2024-01-23_08h01.19.449,bars,2023.2.3,Win32,120.4819277,657b66ea316d21385b68909f,,,,,,,,,,,1402.7088,1403.7077,,,1404.2065,1404.4569,,33,33,,,,,,,,,,,,,,,,bars/043.png,bars/mask000.png,,,,,,,,,,,,9,1,,,,,,,10,0,10,0,,,,,,,,,,,1403.7077,1404.2064,1404.4571,1407.0805,space,2.6175,,1407.0806,3,83,1408.0801,1408.0801,1408.0961,,,,0,17,17,17,1,30,130,,,,,,,,
,,5c9124ef3b7f9e0013728485,65af55ec9cebb2ff24f09995,2024-01-23_08h01.19.449,bars,2023.2.3,Win32,120.4819277,657b66ea316d21385b68909f,,,,,,,,,,,1408.0963,1409.0962,,,1409.5967,1409.8471,,153,153,,,,,,,,,,,,,,,,bars/010.png,bars/mask005.png,,,,,,,,,,,,5,1,,,,,,,10,2,9,4,,,,,,,,,,,1409.0963,1409.5966,1409.8472,1442.0687,space,32.2149,,1442.0689,12,82,1443.0632,1443.0634,1443.0772,,,,0,18,18,18,1,165,55,,,,,,,,
,,5c9124ef3b7f9e0013728485,65af55ec9cebb2ff24f09995,2024-01-23_08h01.19.449,bars,2023.2.3,Win32,120.4819277,657b66ea316d21385b68909f,,,,,,,,,,,1443.0774,1444.0719,,,1444.5669,1444.8151,,150,-30,,,,,,,,,,,,,,,,bars/005.png,bars/mask006.png,,,,,,,,,,,,3,2,,,,,,,10,4,10,4,,,,,,,,,,,1444.0719,1444.5669,1444.8153,1447.9243,space,3.1005,,1447.9244,40,10,1448.9214,1448.9215,1448.9366,,,,0,19,19,19,1,10,140,,,,,,,,
,,5c9124ef3b7f9e0013728485,65af55ec9cebb2ff24f09995,2024-01-23_08h01.19.449,bars,2023.2.3,Win32,120.4819277,657b66ea316d21385b68909f,,,,,,,,,,,1448.9368,1449.9344,,,1450.4342,1450.6841,,147,147,,,,,,,,,,,,,,,,bars/040.png,bars/mask003.png,,,,,,,,,,,,7,1,,,,,,,10,6,9,6,,,,,,,,,,,1449.9344,1450.4341,1450.6842,1452.5933,space,1.9027,,1452.5934,7,38,1453.588,1453.588,1453.604,,,,0,20,20,20,1,140,5,,,,,,,,
,,5c9124ef3b7f9e0013728485,65af55ec9cebb2ff24f09995,2024-01-23_08h01.19.449,bars,2023.2.3,Win32,120.4819277,657b66ea316d21385b68909f,,,,,,,,,,,1453.6041,1454.6054,,,1455.1048,1455.3543,,78,78,,,,,,,,,,,,,,,,bars/013.png,bars/mask005.png,,,,,,,,,,,,6,1,,,,,,,8,4,7,2,,,,,,,,,,,1454.6054,1455.1048,1455.3543,1459.3482,space,3.9864,,1459.3483,3,68,1460.3441,1460.3441,1460.359,,,,0,21,21,21,1,75,10,,,,,,,,
,,5c9124ef3b7f9e0013728485,65af55ec9cebb2ff24f09995,2024-01-23_08h01.19.449,bars,2023.2.3,Win32,120.4819277,657b66ea316d21385b68909f,,,,,,,,,,,1460.3593,1461.3589,,,1461.8572,1462.1056,,96,96,,,,,,,,,,,,,,,,bars/045.png,bars/mask008.png,,,,,,,,,,,,8,1,,,,,,,10,6,9,8,,,,,,,,,,,1461.3589,1461.8571,1462.1056,1464.3295,space,2.2166,,1464.3296,4,86,1465.3297,1465.3297,1465.344,,,,0,22,22,22,1,100,10,,,,,,,,
,,5c9124ef3b7f9e0013728485,65af55ec9cebb2ff24f09995,2024-01-23_08h01.19.449,bars,2023.2.3,Win32,120.4819277,657b66ea316d21385b68909f,,,,,,,,,,,1465.3441,1466.3459,,,1466.8436,1467.0972,,157,157,,,,,,,,,,,,,,,,bars/049.png,bars/mask007.png,,,,,,,,,,,,9,1,,,,,,,10,4,10,2,,,,,,,,,,,1466.3461,1466.8436,1467.0973,1469.6058,space,2.5026,,1469.6059,3,42,1470.6031,1470.6032,1470.6171,,,,0,23,23,23,1,160,115,,,,,,,,
,,5c9124ef3b7f9e0013728485,65af55ec9cebb2ff24f09995,2024-01-23_08h01.19.449,bars,2023.2.3,Win32,120.4819277,657b66ea316d21385b68909f,,,,,,,,,,,1470.6173,1471.6134,,,1472.1105,1472.3609,,151,-29,,,,,,,,,,,,,,,,bars/017.png,bars/mask005.png,,,,,,,,,,,,8,1,,,,,,,10,2,10,2,,,,,,,,,,,1471.6134,1472.1105,1472.361,1475.7595,space,3.3924,,1475.7596,6,74,1476.7547,1476.7548,1476.7704,,,,0,24,24,24,1,145,45,,,,,,,,
,,5c9124ef3b7f9e0013728485,65af55ec9cebb2ff24f09995,2024-01-23_08h01.19.449,bars,2023.2.3,Win32,120.4819277,657b66ea316d21385b68909f,,,,,,,,,,,1476.7706,1477.7722,,,1478.2677,1478.5126,,33,33,,,,,,,,,,,,,,,,bars/003.png,bars/mask006.png,,,,,,,,,,,,5,1,,,,,,,8,4,7,4,,,,,,,,,,,1477.7723,1478.2677,1478.5127,1481.8334,space,3.3101,,1481.8335,8,73,1482.828,1482.828,1482.8436,,,,0,25,25,25,1,25,140,,,,,,,,
,,5c9124ef3b7f9e0013728485,65af55ec9cebb2ff24f09995,2024-01-23_08h01.19.449,bars,2023.2.3,Win32,120.4819277,657b66ea316d21385b68909f,,,,,,,,,,,1482.8439,1483.8409,,,1484.3403,1484.5907,,142,142,,,,,,,,,,,,,,,,bars/036.png,bars/mask000.png,,,,,,,,,,,,9,1,,,,,,,10,6,10,6,,,,,,,,,,,1483.8409,1484.3401,1484.5908,1487.2153,space,2.6167,,1487.2153,3,58,1488.2142,1488.2142,1488.2252,,,,0,26,26,26,1,145,20,,,,,,,,
,,5c9124ef3b7f9e0013728485,65af55ec9cebb2ff24f09995,2024-01-23_08h01.19.449,bars,2023.2.3,Win32,120.4819277,657b66ea316d21385b68909f,,,,,,,,,,,1488.2255,1489.2226,,,1489.7227,1489.9723,,65,65,,,,,,,,,,,,,,,,bars/029.png,bars/mask000.png,,,,,,,,,,,,3,2,,,,,,,10,8,10,8,,,,,,,,,,,1489.2227,1489.7226,1489.9724,1567.7,space,77.7194,,1567.7002,25,20,1568.6992,1568.6992,1568.715,,,,0,27,27,27,1,90,45,,,,,,,,
,,5c9124ef3b7f9e0013728485,65af55ec9cebb2ff24f09995,2024-01-23_08h01.19.449,bars,2023.2.3,Win32,120.4819277,657b66ea316d21385b68909f,,,,,,,,,,,1568.7152,1569.7097,,,1570.2116,1570.4623,,136,136,,,,,,,,,,,,,,,,bars/037.png,bars/mask009.png,,,,,,,,,,,,5,1,,,,,,,8,10,10,9,,,,,,,,,,,1569.7099,1570.2116,1570.4623,1574.8396,space,4.3689,,1574.8397,14,31,1575.8386,1575.8386,1575.8544,,,,0,28,28,28,1,150,105,,,,,,,,
,,5c9124ef3b7f9e0013728485,65af55ec9cebb2ff24f09995,2024-01-23_08h01.19.449,bars,2023.2.3,Win32,120.4819277,657b66ea316d21385b68909f,,,,,,,,,,,1575.8545,1576.8519,,,1577.347,1577.5968,,103,103,,,,,,,,,,,,,,,,bars/045.png,bars/mask003.png,,,,,,,,,,,,9,1,,,,,,,10,10,10,10,,,,,,,,,,,1576.8519,1577.347,1577.5969,1833.239,space,255.6338,,1833.239,3,87,1834.237,1834.237,1834.2387,,,,0,29,29,29,1,100,10,,,,,,,,
,,5c9124ef3b7f9e0013728485,65af55ec9cebb2ff24f09995,2024-01-23_08h01.19.449,bars,2023.2.3,Win32,120.4819277,657b66ea316d21385b68909f,,,,,,,,,,,1834.2394,1835.236,,,1835.7301,1835.9763,,145,145,,,,,,,,,,,,,,,,bars/018.png,bars/mask008.png,,,,,,,,,,,,5,1,,,,,,,8,10,6,10,,,,,,,,,,,1835.236,1835.73,1835.9764,1836.7132,space,0.7267,,1836.7133,5,55,1837.7084,1837.7085,1837.7098,,,,0,30,30,30,1,150,90,,,,,,,,
,,5c9124ef3b7f9e0013728485,65af55ec9cebb2ff24f09995,2024-01-23_08h01.19.449,bars,2023.2.3,Win32,120.4819277,657b66ea316d21385b68909f,,,,,,,,,,,1837.7104,1838.7047,,,1839.2046,1839.451,,45,45,,,,,,,,,,,,,,,,bars/044.png,bars/mask009.png,,,,,,,,,,,,0,1,,,,,,,6,8,8,9,,,,,,,,,,,1838.7048,1839.2045,1839.4511,1840.377,space,0.9177,,1840.377,30,70,1841.3741,1841.3742,1841.3752,,,,0,31,31,31,1,75,155,,,,,,,,
,,5c9124ef3b7f9e0013728485,65af55ec9cebb2ff24f09995,2024-01-23_08h01.19.449,bars,2023.2.3,Win32,120.4819277,657b66ea316d21385b68909f,,,,,,,,,,,1841.3754,1842.3754,,,1842.8749,1843.1255,,109,109,,,,,,,,,,,,,,,,bars/015.png,bars/mask006.png,,,,,,,,,,,,4,1,,,,,,,4,10,4,10,,,,,,,,,,,1842.3754,1842.8749,1843.1256,1846.8376,space,3.7043,,1846.8377,1,51,1847.8319,1847.832,1847.8478,,,,0,32,32,32,1,110,160,,,,,,,,
,,5c9124ef3b7f9e0013728485,65af55ec9cebb2ff24f09995,2024-01-23_08h01.19.449,bars,2023.2.3,Win32,120.4819277,657b66ea316d21385b68909f,,,,,,,,,,,1847.8479,1848.8478,,,1849.3447,1849.5896,,104,104,,,,,,,,,,,,,,,,bars/025.png,bars/mask003.png,,,,,,,,,,,,2,1,,,,,,,2,8,2,8,,,,,,,,,,,1848.8479,1849.3447,1849.5896,1851.4238,space,1.8261,,1851.4239,1,64,1852.4196,1852.4196,1852.4209,,,,0,33,33,33,1,105,40,,,,,,,,
,,5c9124ef3b7f9e0013728485,65af55ec9cebb2ff24f09995,2024-01-23_08h01.19.449,bars,2023.2.3,Win32,120.4819277,657b66ea316d21385b68909f,,,,,,,,,,,1852.4212,1853.4125,,,1853.9113,1854.159,,152,-28,,,,,,,,,,,,,,,,bars/046.png,bars/mask006.png,,,,,,,,,,,,5,1,,,,,,,4,6,5,6,,,,,,,,,,,1853.4127,1853.9112,1854.1591,1857.7663,space,3.5938,,1857.7663,3,67,1858.7654,1858.7654,1858.7807,,,,0,34,34,34,1,155,85,,,,,,,,
,,5c9124ef3b7f9e0013728485,65af55ec9cebb2ff24f09995,2024-01-23_08h01.19.449,bars,2023.2.3,Win32,120.4819277,657b66ea316d21385b68909f,,,,,,,,,,,1858.7808,1859.7773,,,1860.2739,1860.5192,,30,30,,,,,,,,,,,,,,,,bars/033.png,bars/mask000.png,,,,,,,,,,,,2,1,,,,,,,2,4,2,4,,,,,,,,,,,1859.7773,1860.2739,1860.5192,1863.5284,space,3.0002,,1863.5285,5,55,1864.5265,1864.5265,1864.5424,,,,0,35,35,35,1,25,155,,,,,,,,
,,5c9124ef3b7f9e0013728485,65af55ec9cebb2ff24f09995,2024-01-23_08h01.19.449,bars,2023.2.3,Win32,120.4819277,657b66ea316d21385b68909f,,,,,,,,,,,1864.5425,1865.5439,,,1866.0419,1866.2923,,67,67,,,,,,,,,,,,,,,,bars/000.png,bars/mask001.png,,,,,,,,,,,,0,1,,,,,,,4,2,4,1,,,,,,,,,,,1865.544,1866.0419,1866.2923,1868.2685,space,1.9681,,1868.2686,27,78,1869.268,1869.2681,1869.2843,,,,0,36,36,36,1,40,145,,,,,,,,
,,5c9124ef3b7f9e0013728485,65af55ec9cebb2ff24f09995,2024-01-23_08h01.19.449,bars,2023.2.3,Win32,120.4819277,657b66ea316d21385b68909f,,,,,,,,,,,1869.2845,1870.2788,,,1870.7739,1871.0201,,160,-20,,,,,,,,,,,,,,,,bars/042.png,bars/mask002.png,,,,,,,,,,,,0,1,,,,,,,2,0,0,0,,,,,,,,,,,1870.2789,1870.7738,1871.0204,1874.4426,space,3.4086,,1874.4426,15,85,1875.4435,1875.4436,1875.4572,,,,0,37,37,37,1,145,75,,,,,,,,
,,5c9124ef3b7f9e0013728485,65af55ec9cebb2ff24f09995,2024-01-23_08h01.19.449,bars,2023.2.3,Win32,120.4819277,657b66ea316d21385b68909f,,,,,,,,,,,1875.4573,1876.4552,,,1876.952,1877.2016,,44,44,,,,,,,,,,,,,,,,bars/004.png,bars/mask008.png,,,,,,,,,,,,0,1,,,,,,,0,0,0,2,,,,,,,,,,,1876.4552,1876.9519,1877.2017,1879.4761,space,2.2673,,1879.4762,19,81,1880.4756,1880.4757,1880.4909,,,,0,38,38,38,1,25,125,,,,,,,,
,,5c9124ef3b7f9e0013728485,65af55ec9cebb2ff24f09995,2024-01-23_08h01.19.449,bars,2023.2.3,Win32,120.4819277,657b66ea316d21385b68909f,,,,,,,,,,,1880.4911,1881.4884,,,1881.9889,1882.2397,,37,37,,,,,,,,,,,,,,,,bars/028.png,bars/mask001.png,,,,,,,,,,,,1,1,,,,,,,2,0,2,0,,,,,,,,,,,1881.4885,1881.9889,1882.2398,1887.3296,space,5.0817,,1887.3297,8,83,1888.3279,1888.3279,1888.3436,,,,0,39,39,39,1,45,120,,,,,,,,
,,5c9124ef3b7f9e0013728485,65af55ec9cebb2ff24f09995,2024-01-23_08h01.19.449,bars,2023.2.3,Win32,120.4819277,657b66ea316d21385b68909f,,,,,,,,,,,1888.3438,1889.3397,,,1889.8402,1890.0875,,144,-36,,,,,,,,,,,,,,,,bars/010.png,bars/mask007.png,,,,,,,,,,,,1,1,,,,,,,4,0,3,0,,,,,,,,,,,1889.3398,1889.8399,1890.0876,1894.2089,space,4.1138,,1894.209,21,89,1895.2081,1895.2082,1895.2234,,,,0,40,40,40,1,165,55,,,,,,,,
,,5c9124ef3b7f9e0013728485,65af55ec9cebb2ff24f09995,2024-01-23_08h01.19.449,bars,2023.2.3,Win32,120.4819277,657b66ea316d21385b68909f,,,,,,,,,,,1895.2235,1896.2224,,,1896.7212,1896.9701,,139,139,,,,,,,,,,,,,,,,bars/038.png,bars/mask006.png,,,,,,,,,,,,0,1,,,,,,,2,0,3,0,,,,,,,,,,,1896.2224,1896.7211,1896.9701,1900.8619,space,3.885,,1900.862,26,69,1901.8618,1901.8618,1901.8742,,,,0,41,41,41,1,165,70,,,,,,,,
,,5c9124ef3b7f9e0013728485,65af55ec9cebb2ff24f09995,2024-01-23_08h01.19.449,bars,2023.2.3,Win32,120.4819277,657b66ea316d21385b68909f,,,,,,,,,,,1901.8744,1902.8716,,,1903.3688,1903.6185,,131,131,,,,,,,,,,,,,,,,bars/034.png,bars/mask000.png,,,,,,,,,,,,1,1,,,,,,,0,0,1,0,,,,,,,,,,,1902.8717,1903.3687,1903.6186,1907.2027,space,3.5774,,1907.2027,6,66,1908.2008,1908.2009,1908.2113,,,,0,42,42,42,1,125,65,,,,,,,,
,,5c9124ef3b7f9e0013728485,65af55ec9cebb2ff24f09995,2024-01-23_08h01.19.449,bars,2023.2.3,Win32,120.4819277,657b66ea316d21385b68909f,,,,,,,,,,,1908.2115,1909.2089,,,1909.7086,1909.955,,138,138,,,,,,,,,,,,,,,,bars/046.png,bars/mask004.png,,,,,,,,,,,,0,1,,,,,,,2,2,1,2,,,,,,,,,,,1909.209,1909.7086,1909.955,1911.2247,space,1.2603,,1911.2247,17,53,1912.2247,1912.2247,1912.2263,,,,0,43,43,43,1,155,85,,,,,,,,
,,5c9124ef3b7f9e0013728485,65af55ec9cebb2ff24f09995,2024-01-23_08h01.19.449,bars,2023.2.3,Win32,120.4819277,657b66ea316d21385b68909f,,,,,,,,,,,1912.2266,1913.2245,,,1913.7213,1913.9667,,29,29,,,,,,,,,,,,,,,,bars/033.png,bars/mask001.png,,,,,,,,,,,,3,1,,,,,,,4,4,4,3,,,,,,,,,,,1913.2245,1913.7212,1913.9668,1916.1378,space,2.1585,,1916.1378,4,54,1917.1451,1917.1452,1917.147,,,,0,44,44,44,1,25,155,,,,,,,,
,,5c9124ef3b7f9e0013728485,65af55ec9cebb2ff24f09995,2024-01-23_08h01.19.449,bars,2023.2.3,Win32,120.4819277,657b66ea316d21385b68909f,,,,,,,,,,,1917.1475,1918.1446,,,1918.6425,1918.8912,,78,78,,,,,,,,,,,,,,,,bars/022.png,bars/mask001.png,,,,,,,,,,,,3,1,,,,,,,6,2,6,2,,,,,,,,,,,1918.1446,1918.6424,1918.8913,1921.4723,space,2.5696,,1921.4724,17,58,1922.4713,1922.4713,1922.4838,,,,0,45,45,45,1,95,20,,,,,,,,
,,5c9124ef3b7f9e0013728485,65af55ec9cebb2ff24f09995,2024-01-23_08h01.19.449,bars,2023.2.3,Win32,120.4819277,657b66ea316d21385b68909f,,,,,,,,,,,1922.4841,1923.482,,,1923.9821,1924.2321,,52,232,,,,,,,,,,,,,,,,bars/028.png,bars/mask007.png,,,,,,,,,,,,6,1,,,,,,,8,0,8,0,,,,,,,,,,,1923.482,1923.9819,1924.2321,1929.1263,space,4.8884,,1929.1264,7,68,1930.1226,1930.1227,1930.1389,,,,0,46,46,46,1,45,120,,,,,,,,
,,5c9124ef3b7f9e0013728485,65af55ec9cebb2ff24f09995,2024-01-23_08h01.19.449,bars,2023.2.3,Win32,120.4819277,657b66ea316d21385b68909f,,,,,,,,,,,1930.1392,1931.1394,,,1931.641,1931.8865,,157,-23,,,,,,,,,,,,,,,,bars/011.png,bars/mask003.png,,,,,,,,,,,,8,1,,,,,,,10,2,9,2,,,,,,,,,,,1931.1395,1931.6409,1931.8866,1936.4508,space,4.5569,,1936.4508,3,72,1937.4512,1937.4513,1937.4658,,,,0,47,47,47,1,160,85,,,,,,,,
,,5c9124ef3b7f9e0013728485,65af55ec9cebb2ff24f09995,2024-01-23_08h01.19.449,bars,2023.2.3,Win32,120.4819277,657b66ea316d21385b68909f,,,,,,,,,,,1937.466,1938.4637,,,1938.96,1939.2083,,120,-60,,,,,,,,,,,,,,,,bars/008.png,bars/mask009.png,,,,,,,,,,,,6,1,,,,,,,8,0,9,0,,,,,,,,,,,1938.4637,1938.96,1939.2083,1943.4131,space,4.1986,,1943.4131,10,60,1944.4109,1944.411,1944.4264,,,,0,48,48,48,1,110,0,,,,,,,,
,,5c9124ef3b7f9e0013728485,65af55ec9cebb2ff24f09995,2024-01-23_08h01.19.449,bars,2023.2.3,Win32,120.4819277,657b66ea316d21385b68909f,,,,,,,,,,,1944.4265,1945.4281,,,1945.9232,1946.1698,,116,116,,,,,,,,,,,,,,,,bars/001.png,bars/mask008.png,,,,,,,,,,,,5,1,,,,,,,10,2,9,1,,,,,,,,,,,1945.4281,1945.9232,1946.1698,1948.7351,space,2.5574,,1948.7351,14,31,1949.73,1949.7301,1949.7475,,,,0,49,49,49,1,130,85,,,,,,,,
,,5c9124ef3b7f9e0013728485,65af55ec9cebb2ff24f09995,2024-01-23_08h01.19.449,bars,2023.2.3,Win32,120.4819277,657b66ea316d21385b68909f,,,,,,,,,,,,,,,,,,,,,,,,,,,,,,,,,,,,,,,,,,,,,,,,,,,,,,,,,,,,,,,,,,,,,,,,,,,,,,,,,,,,,,,,,,,,,1949.7476,2009.7458,0,2,2,2,1,sequence_tables/blk006.csv
,,5c9124ef3b7f9e0013728485,65af55ec9cebb2ff24f09995,2024-01-23_08h01.19.449,bars,2023.2.3,Win32,120.4819277,657b66ea316d21385b68909f,,,,,,,,,,,2204.9592,2205.9541,,,2206.4503,2206.697,,95,95,,,,,,,,,,,,,,,,bars/012.png,bars/mask001.png,,,,,,,,,,,,4,1,,,,,,,5,8,5,7,,,,,,2009.7635,2204.9495,space,195.1796,,2205.9543,2206.4503,2206.6972,2209.3128,space,2.6042,,2209.313,5,80,2210.3089,2210.3089,2210.3268,,,,0,0,0,0,1,90,15,,,,,,,,
,,5c9124ef3b7f9e0013728485,65af55ec9cebb2ff24f09995,2024-01-23_08h01.19.449,bars,2023.2.3,Win32,120.4819277,657b66ea316d21385b68909f,,,,,,,,,,,2210.327,2211.3293,,,2211.8294,2212.0796,,126,126,,,,,,,,,,,,,,,,bars/034.png,bars/mask001.png,,,,,,,,,,,,4,1,,,,,,,3,6,4,8,,,,,,,,,,,2211.3293,2211.8294,2212.0797,2236.0501,space,23.9605,,2236.0501,1,61,2237.0507,2237.0508,2237.0674,,,,0,1,1,1,1,125,65,,,,,,,,
,,5c9124ef3b7f9e0013728485,65af55ec9cebb2ff24f09995,2024-01-23_08h01.19.449,bars,2023.2.3,Win32,120.4819277,657b66ea316d21385b68909f,,,,,,,,,,,2237.0675,2238.066,,,2238.5655,2238.8155,,73,73,,,,,,,,,,,,,,,,bars/013.png,bars/mask002.png,,,,,,,,,,,,5,1,,,,,,,5,8,5,9,,,,,,,,,,,2238.066,2238.5655,2238.8156,2239.6156,space,0.7927,,2239.6157,2,63,2240.6154,2240.6154,2240.6165,,,,0,2,2,2,1,75,10,,,,,,,,
,,5c9124ef3b7f9e0013728485,65af55ec9cebb2ff24f09995,2024-01-23_08h01.19.449,bars,2023.2.3,Win32,120.4819277,657b66ea316d21385b68909f,,,,,,,,,,,2240.6168,2241.6148,,,2242.115,2242.365,,167,167,,,,,,,,,,,,,,,,bars/049.png,bars/mask009.png,,,,,,,,,,,,5,1,,,,,,,7,6,7,5,,,,,,,,,,,2241.6149,2242.1149,2242.365,2243.3329,space,0.9611,,2243.3329,7,52,2244.3308,2244.3309,2244.332,,,,0,3,3,3,1,160,115,,,,,,,,
,,5c9124ef3b7f9e0013728485,65af55ec9cebb2ff24f09995,2024-01-23_08h01.19.449,bars,2023.2.3,Win32,120.4819277,657b66ea316d21385b68909f,,,,,,,,,,,2244.3324,2245.3312,,,2245.8309,2246.0801,,160,-20,,,,,,,,,,,,,,,,bars/046.png,bars/mask000.png,,,,,,,,,,,,7,1,,,,,,,9,4,8,2,,,,,,,,,,,2245.3312,2245.8309,2246.0801,2248.7964,space,2.7102,,2248.7965,5,75,2249.7958,2249.7958,2249.812,,,,0,4,4,4,1,155,85,,,,,,,,
,,5c9124ef3b7f9e0013728485,65af55ec9cebb2ff24f09995,2024-01-23_08h01.19.449,bars,2023.2.3,Win32,120.4819277,657b66ea316d21385b68909f,,,,,,,,,,,2249.8122,2250.8099,,,2251.3086,2251.5547,,53,53,,,,,,,,,,,,,,,,bars/016.png,bars/mask006.png,,,,,,,,,,,,5,1,,,,,,,7,6,8,4,,,,,,,,,,,2250.81,2251.3085,2251.5548,2255.6691,space,4.1022,,2255.6692,13,68,2256.6689,2256.669,2256.6836,,,,0,5,5,5,1,40,165,,,,,,,,
,,5c9124ef3b7f9e0013728485,65af55ec9cebb2ff24f09995,2024-01-23_08h01.19.449,bars,2023.2.3,Win32,120.4819277,657b66ea316d21385b68909f,,,,,,,,,,,2256.6837,2257.6851,,,2258.1852,2258.4308,,120,120,,,,,,,,,,,,,,,,bars/027.png,bars/mask006.png,,,,,,,,,,,,6,1,,,,,,,9,8,9,7,,,,,,,,,,,2257.6851,2258.1851,2258.431,2260.5848,space,2.1481,,2260.5849,10,70,2261.581,2261.581,2261.5961,,,,0,6,6,6,1,110,50,,,,,,,,
,,5c9124ef3b7f9e0013728485,65af55ec9cebb2ff24f09995,2024-01-23_08h01.19.449,bars,2023.2.3,Win32,120.4819277,657b66ea316d21385b68909f,,,,,,,,,,,2261.5963,2262.5933,,,2263.0919,2263.342,,123,123,,,,,,,,,,,,,,,,bars/015.png,bars/mask006.png,,,,,,,,,,,,4,1,,,,,,,7,10,7,10,,,,,,,,,,,2262.5934,2263.0919,2263.3421,2265.0671,space,1.7185,,2265.0672,13,37,2266.0661,2266.0662,2266.0783,,,,0,7,7,7,1,110,160,,,,,,,,
,,5c9124ef3b7f9e0013728485,65af55ec9cebb2ff24f09995,2024-01-23_08h01.19.449,bars,2023.2.3,Win32,120.4819277,657b66ea316d21385b68909f,,,,,,,,,,,2266.0785,2267.0778,,,2267.5736,2267.8281,,134,134,,,,,,,,,,,,,,,,bars/046.png,bars/mask006.png,,,,,,,,,,,,1,1,,,,,,,5,10,4,9,,,,,,,,,,,2267.078,2267.5736,2267.8282,2272.5697,space,4.7329,,2272.5698,21,49,2273.5716,2273.5716,2273.583,,,,0,8,8,8,1,155,85,,,,,,,,
,,5c9124ef3b7f9e0013728485,65af55ec9cebb2ff24f09995,2024-01-23_08h01.19.449,bars,2023.2.3,Win32,120.4819277,657b66ea316d21385b68909f,,,,,,,,,,,2273.5833,2274.5808,,,2275.0777,2275.3267,,87,87,,,,,,,,,,,,,,,,bars/022.png,bars/mask007.png,,,,,,,,,,,,5,1,,,,,,,7,8,7,8,,,,,,,,,,,2274.5809,2275.0776,2275.3268,2278.4455,space,3.1097,,2278.4455,8,67,2279.4455,2279.4456,2279.4603,,,,0,9,9,9,1,95,20,,,,,,,,
,,5c9124ef3b7f9e0013728485,65af55ec9cebb2ff24f09995,2024-01-23_08h01.19.449,bars,2023.2.3,Win32,120.4819277,657b66ea316d21385b68909f,,,,,,,,,,,2279.4604,2280.4575,,,2280.9559,2281.2007,,139,-41,,,,,,,,,,,,,,,,bars/020.png,bars/mask001.png,,,,,,,,,,,,2,1,,,,,,,9,6,10,6,,,,,,,,,,,2280.4575,2280.9559,2281.2008,2284.3023,space,3.0931,,2284.3023,24,31,2285.302,2285.302,2285.317,,,,0,10,10,10,1,115,170,,,,,,,,
,,5c9124ef3b7f9e0013728485,65af55ec9cebb2ff24f09995,2024-01-23_08h01.19.449,bars,2023.2.3,Win32,120.4819277,657b66ea316d21385b68909f,,,,,,,,,,,2285.3171,2286.3121,,,2286.8139,2287.063,,54,54,,,,,,,,,,,,,,,,bars/043.png,bars/mask001.png,,,,,,,,,,,,2,1,,,,,,,10,8,10,7,,,,,,,,,,,2286.3123,2286.8139,2287.063,2290.3313,space,3.2582,,2290.3313,24,76,2291.3297,2291.3298,2291.3437,,,,0,11,11,11,1,30,130,,,,,,,,
,,5c9124ef3b7f9e0013728485,65af55ec9cebb2ff24f09995,2024-01-23_08h01.19.449,bars,2023.2.3,Win32,120.4819277,657b66ea316d21385b68909f,,,,,,,,,,,2291.3438,2292.338,,,2292.833,2293.0775,,40,40,,,,,,,,,,,,,,,,bars/004.png,bars/mask005.png,,,,,,,,,,,,5,1,,,,,,,8,10,10,10,,,,,,,,,,,2292.3381,2292.833,2293.0776,2295.0223,space,1.9341,,2295.0223,15,85,2296.0204,2296.0207,2296.0347,,,,0,12,12,12,1,25,125,,,,,,,,
,,5c9124ef3b7f9e0013728485,65af55ec9cebb2ff24f09995,2024-01-23_08h01.19.449,bars,2023.2.3,Win32,120.4819277,657b66ea316d21385b68909f,,,,,,,,,,,2296.0349,2297.029,,,2297.5246,2297.7734,,108,108,,,,,,,,,,,,,,,,bars/002.png,bars/mask001.png,,,,,,,,,,,,2,1,,,,,,,6,8,7,8,,,,,,,,,,,2297.029,2297.5245,2297.7735,2300.4461,space,2.6668,,2300.4463,22,23,2301.4429,2301.443,2301.4576,,,,0,13,13,13,1,130,85,,,,,,,,
,,5c9124ef3b7f9e0013728485,65af55ec9cebb2ff24f09995,2024-01-23_08h01.19.449,bars,2023.2.3,Win32,120.4819277,657b66ea316d21385b68909f,,,,,,,,,,,2301.4577,2302.461,,,2302.9611,2303.2098,,137,137,,,,,,,,,,,,,,,,bars/046.png,bars/mask003.png,,,,,,,,,,,,0,1,,,,,,,4,10,1,10,,,,,,,,,,,2302.4611,2302.9611,2303.2098,2304.5525,space,1.3337,,2304.5526,18,52,2305.5511,2305.5512,2305.5613,,,,0,14,14,14,1,155,85,,,,,,,,
,,5c9124ef3b7f9e0013728485,65af55ec9cebb2ff24f09995,2024-01-23_08h01.19.449,bars,2023.2.3,Win32,120.4819277,657b66ea316d21385b68909f,,,,,,,,,,,2305.5615,2306.5574,,,2307.058,2307.3039,,45,45,,,,,,,,,,,,,,,,bars/048.png,bars/mask000.png,,,,,,,,,,,,6,1,,,,,,,6,8,7,7,,,,,,,,,,,2306.5576,2307.058,2307.304,2308.8603,space,1.5502,,2308.8603,5,50,2309.8587,2309.8587,2309.8745,,,,0,15,15,15,1,50,175,,,,,,,,
,,5c9124ef3b7f9e0013728485,65af55ec9cebb2ff24f09995,2024-01-23_08h01.19.449,bars,2023.2.3,Win32,120.4819277,657b66ea316d21385b68909f,,,,,,,,,,,2309.8747,2310.8692,,,2311.3668,2311.6169,,26,26,,,,,,,,,,,,,,,,bars/026.png,bars/mask007.png,,,,,,,,,,,,2,1,,,,,,,4,6,3,5,,,,,,,,,,,2310.8693,2311.3668,2311.617,2313.6586,space,2.0336,,2313.6588,9,59,2314.6575,2314.6575,2314.6728,,,,0,16,16,16,1,35,85,,,,,,,,
,,5c9124ef3b7f9e0013728485,65af55ec9cebb2ff24f09995,2024-01-23_08h01.19.449,bars,2023.2.3,Win32,120.4819277,657b66ea316d21385b68909f,,,,,,,,,,,2314.6728,2315.6734,,,2316.168,2316.4128,,154,154,,,,,,,,,,,,,,,,bars/038.png,bars/mask001.png,,,,,,,,,,,,4,1,,,,,,,6,8,6,8,,,,,,,,,,,2315.6734,2316.1678,2316.4128,2317.1408,space,0.72,,2317.1409,11,84,2318.137,2318.137,2318.1387,,,,0,17,17,17,1,165,70,,,,,,,,
,,5c9124ef3b7f9e0013728485,65af55ec9cebb2ff24f09995,2024-01-23_08h01.19.449,bars,2023.2.3,Win32,120.4819277,657b66ea316d21385b68909f,,,,,,,,,,,2318.1392,2319.1373,,,2319.6378,2319.8832,,174,174,,,,,,,,,,,,,,,,bars/009.png,bars/mask008.png,,,,,,,,,,,,2,1,,,,,,,8,10,6,8,,,,,,,,,,,2319.1373,2319.6378,2319.8833,2321.83,space,1.933,,2321.8301,21,69,2322.8287,2322.8287,2322.8308,,,,0,18,18,18,1,15,105,,,,,,,,
,,5c9124ef3b7f9e0013728485,65af55ec9cebb2ff24f09995,2024-01-23_08h01.19.449,bars,2023.2.3,Win32,120.4819277,657b66ea316d21385b68909f,,,,,,,,,,,2322.8312,2323.8287,,,2324.3293,2324.5738,,31,31,,,,,,,,,,,,,,,,bars/004.png,bars/mask003.png,,,,,,,,,,,,5,1,,,,,,,6,8,6,9,,,,,,,,,,,2323.8289,2324.3292,2324.5738,2326.3909,space,1.8094,,2326.391,6,86,2327.3895,2327.3895,2327.3914,,,,0,19,19,19,1,25,125,,,,,,,,
,,5c9124ef3b7f9e0013728485,65af55ec9cebb2ff24f09995,2024-01-23_08h01.19.449,bars,2023.2.3,Win32,120.4819277,657b66ea316d21385b68909f,,,,,,,,,,,2327.3919,2328.3899,,,2328.8889,2329.1394,,12,12,,,,,,,,,,,,,,,,bars/033.png,bars/mask006.png,,,,,,,,,,,,3,1,,,,,,,4,10,5,10,,,,,,,,,,,2328.3899,2328.8889,2329.1394,2330.9553,space,1.8091,,2330.9553,13,37,2331.955,2331.9552,2331.9707,,,,0,20,20,20,1,25,155,,,,,,,,
,,5c9124ef3b7f9e0013728485,65af55ec9cebb2ff24f09995,2024-01-23_08h01.19.449,bars,2023.2.3,Win32,120.4819277,657b66ea316d21385b68909f,,,,,,,,,,,2331.9708,2332.9682,,,2333.468,2333.7127,,23,203,,,,,,,,,,,,,,,,bars/033.png,bars/mask001.png,,,,,,,,,,,,1,1,,,,,,,2,10,1,9,,,,,,,,,,,2332.9682,2333.468,2333.7127,2336.1952,space,2.4754,,2336.1952,2,48,2337.1949,2337.1949,2337.2084,,,,0,21,21,21,1,25,155,,,,,,,,
,,5c9124ef3b7f9e0013728485,65af55ec9cebb2ff24f09995,2024-01-23_08h01.19.449,bars,2023.2.3,Win32,120.4819277,657b66ea316d21385b68909f,,,,,,,,,,,2337.2087,2338.2088,,,2338.7083,2338.9565,,34,34,,,,,,,,,,,,,,,,bars/043.png,bars/mask009.png,,,,,,,,,,,,3,1,,,,,,,4,8,4,8,,,,,,,,,,,2338.2089,2338.7082,2338.9566,2341.2075,space,2.2457,,2341.2075,4,84,2342.207,2342.207,2342.2216,,,,0,22,22,22,1,30,130,,,,,,,,
,,5c9124ef3b7f9e0013728485,65af55ec9cebb2ff24f09995,2024-01-23_08h01.19.449,bars,2023.2.3,Win32,120.4819277,657b66ea316d21385b68909f,,,,,,,,,,,2342.2217,2343.224,,,2343.7227,2343.9679,,76,76,,,,,,,,,,,,,,,,bars/013.png,bars/mask007.png,,,,,,,,,,,,5,1,,,,,,,6,6,5,6,,,,,,,,,,,2343.224,2343.7225,2343.968,2346.5472,space,2.5658,,2346.5474,1,66,2347.5474,2347.5474,2347.5487,,,,0,23,23,23,1,75,10,,,,,,,,
,,5c9124ef3b7f9e0013728485,65af55ec9cebb2ff24f09995,2024-01-23_08h01.19.449,bars,2023.2.3,Win32,120.4819277,657b66ea316d21385b68909f,,,,,,,,,,,2347.5492,2348.5467,,,2349.0465,2349.2936,,154,-26,,,,,,,,,,,,,,,,bars/049.png,bars/mask006.png,,,,,,,,,,,,2,1,,,,,,,4,8,2,10,,,,,,,,,,,2348.5467,2349.0465,2349.2937,2352.5064,space,3.2025,,2352.5064,6,39,2353.5068,2353.5068,2353.5218,,,,0,24,24,24,1,160,115,,,,,,,,
,,5c9124ef3b7f9e0013728485,65af55ec9cebb2ff24f09995,2024-01-23_08h01.19.449,bars,2023.2.3,Win32,120.4819277,657b66ea316d21385b68909f,,,,,,,,,,,2353.5221,2354.5185,,,2355.0212,2355.2698,,124,124,,,,,,,,,,,,,,,,bars/036.png,bars/mask007.png,,,,,,,,,,,,2,1,,,,,,,6,10,6,10,,,,,,,,,,,2354.5185,2355.0212,2355.2698,2358.5717,space,3.293,,2358.5718,21,76,2359.5685,2359.5685,2359.5834,,,,0,25,25,25,1,145,20,,,,,,,,
,,5c9124ef3b7f9e0013728485,65af55ec9cebb2ff24f09995,2024-01-23_08h01.19.449,bars,2023.2.3,Win32,120.4819277,657b66ea316d21385b68909f,,,,,,,,,,,2359.5836,2360.5799,,,2361.0744,2361.3265,,179,-1,,,,,,,,,,,,,,,,bars/033.png,bars/mask002.png,,,,,,,,,,,,2,2,,,,,,,4,10,4,9,,,,,,,,,,,2360.58,2361.0742,2361.3265,2364.6847,space,3.35,,2364.6847,26,24,2365.6907,2365.6908,2365.7086,,,,0,26,26,26,1,25,155,,,,,,,,
,,5c9124ef3b7f9e0013728485,65af55ec9cebb2ff24f09995,2024-01-23_08h01.19.449,bars,2023.2.3,Win32,120.4819277,657b66ea316d21385b68909f,,,,,,,,,,,2365.7088,2366.7083,,,2367.2079,2367.4581,,165,-15,,,,,,,,,,,,,,,,bars/035.png,bars/mask003.png,,,,,,,,,,,,4,1,,,,,,,6,8,6,8,,,,,,,,,,,2366.7086,2367.2079,2367.4581,2370.3485,space,2.8836,,2370.3486,10,75,2371.3454,2371.3454,2371.3546,,,,0,27,27,27,1,175,60,,,,,,,,
,,5c9124ef3b7f9e0013728485,65af55ec9cebb2ff24f09995,2024-01-23_08h01.19.449,bars,2023.2.3,Win32,120.4819277,657b66ea316d21385b68909f,,,,,,,,,,,2371.3548,2372.3568,,,2372.8512,2373.1009,,139,139,,,,,,,,,,,,,,,,bars/030.png,bars/mask004.png,,,,,,,,,,,,9,1,,,,,,,8,6,9,7,,,,,,,,,,,2372.3568,2372.8511,2373.1009,2373.9352,space,0.8274,,2373.9352,1,74,2374.9336,2374.9337,2374.935,,,,0,28,28,28,1,140,65,,,,,,,,
,,5c9124ef3b7f9e0013728485,65af55ec9cebb2ff24f09995,2024-01-23_08h01.19.449,bars,2023.2.3,Win32,120.4819277,657b66ea316d21385b68909f,,,,,,,,,,,2374.9353,2375.9336,,,2376.4298,2376.68,,133,133,,,,,,,,,,,,,,,,bars/040.png,bars/mask009.png,,,,,,,,,,,,7,1,,,,,,,10,8,9,8,,,,,,,,,,,2375.9336,2376.4297,2376.68,2378.4216,space,1.7336,,2378.4217,7,52,2379.4156,2379.4157,2379.4172,,,,0,29,29,29,1,140,5,,,,,,,,
,,5c9124ef3b7f9e0013728485,65af55ec9cebb2ff24f09995,2024-01-23_08h01.19.449,bars,2023.2.3,Win32,120.4819277,657b66ea316d21385b68909f,,,,,,,,,,,2379.4175,2380.4154,,,2380.9155,2381.1652,,42,42,,,,,,,,,,,,,,,,bars/043.png,bars/mask004.png,,,,,,,,,,,,4,1,,,,,,,8,10,7,10,,,,,,,,,,,2380.4154,2380.9154,2381.1653,2381.6899,space,0.5169,,2381.69,12,88,2382.6901,2382.6903,2382.6915,,,,0,30,30,30,1,30,130,,,,,,,,
,,5c9124ef3b7f9e0013728485,65af55ec9cebb2ff24f09995,2024-01-23_08h01.19.449,bars,2023.2.3,Win32,120.4819277,657b66ea316d21385b68909f,,,,,,,,,,,2382.6918,2383.6889,,,2384.1893,2384.4394,,146,-34,,,,,,,,,,,,,,,,bars/008.png,bars/mask002.png,,,,,,,,,,,,0,2,,,,,,,10,10,9,10,,,,,,,,,,,2383.6889,2384.1892,2384.4394,2388.6968,space,4.2511,,2388.6969,36,34,2389.6962,2389.6962,2389.7118,,,,0,31,31,31,1,110,0,,,,,,,,
,,5c9124ef3b7f9e0013728485,65af55ec9cebb2ff24f09995,2024-01-23_08h01.19.449,bars,2023.2.3,Win32,120.4819277,657b66ea316d21385b68909f,,,,,,,,,,,2389.712,2390.7095,,,2391.2089,2391.4538,,125,125,,,,,,,,,,,,,,,,bars/020.png,bars/mask003.png,,,,,,,,,,,,7,1,,,,,,,10,10,10,8,,,,,,,,,,,2390.7096,2391.2089,2391.4538,2395.5028,space,4.0423,,2395.5029,10,45,2396.5025,2396.5026,2396.5171,,,,0,32,32,32,1,115,170,,,,,,,,
,,5c9124ef3b7f9e0013728485,65af55ec9cebb2ff24f09995,2024-01-23_08h01.19.449,bars,2023.2.3,Win32,120.4819277,657b66ea316d21385b68909f,,,,,,,,,,,2396.5173,2397.5187,,,2398.0195,2398.2685,,68,68,,,,,,,,,,,,,,,,bars/044.png,bars/mask000.png,,,,,,,,,,,,5,1,,,,,,,8,8,7,10,,,,,,,,,,,2397.5189,2398.0194,2398.2686,2398.8765,space,0.6007,,2398.8766,7,87,2399.8764,2399.8765,2399.8779,,,,0,33,33,33,1,75,155,,,,,,,,
,,5c9124ef3b7f9e0013728485,65af55ec9cebb2ff24f09995,2024-01-23_08h01.19.449,bars,2023.2.3,Win32,120.4819277,657b66ea316d21385b68909f,,,,,,,,,,,2399.8785,2400.8754,,,2401.3774,2401.6255,,34,214,,,,,,,,,,,,,,,,bars/003.png,bars/mask004.png,,,,,,,,,,,,6,1,,,,,,,6,6,8,6,,,,,,,,,,,2400.8754,2401.3774,2401.6255,2404.3505,space,2.718,,2404.3506,9,74,2405.3496,2405.3497,2405.3616,,,,0,34,34,34,1,25,140,,,,,,,,
,,5c9124ef3b7f9e0013728485,65af55ec9cebb2ff24f09995,2024-01-23_08h01.19.449,bars,2023.2.3,Win32,120.4819277,657b66ea316d21385b68909f,,,,,,,,,,,2405.3618,2406.3624,,,2406.862,2407.1127,,118,118,,,,,,,,,,,,,,,,bars/015.png,bars/mask000.png,,,,,,,,,,,,2,1,,,,,,,4,8,3,9,,,,,,,,,,,2406.3624,2406.862,2407.1127,2409.3307,space,2.2099,,2409.3308,8,42,2410.3291,2410.3292,2410.3436,,,,0,35,35,35,1,110,160,,,,,,,,
,,5c9124ef3b7f9e0013728485,65af55ec9cebb2ff24f09995,2024-01-23_08h01.19.449,bars,2023.2.3,Win32,120.4819277,657b66ea316d21385b68909f,,,,,,,,,,,2410.3438,2411.3442,,,2411.8447,2412.0924,,163,163,,,,,,,,,,,,,,,,bars/049.png,bars/mask006.png,,,,,,,,,,,,7,1,,,,,,,6,6,8,5,,,,,,,,,,,2411.3444,2411.8446,2412.0926,2412.6784,space,0.5756,,2412.6786,3,48,2413.6742,2413.6743,2413.6759,,,,0,36,36,36,1,160,115,,,,,,,,
,,5c9124ef3b7f9e0013728485,65af55ec9cebb2ff24f09995,2024-01-23_08h01.19.449,bars,2023.2.3,Win32,120.4819277,657b66ea316d21385b68909f,,,,,,,,,,,2413.6762,2414.6777,,,2415.1756,2415.4261,,114,114,,,,,,,,,,,,,,,,bars/025.png,bars/mask004.png,,,,,,,,,,,,3,1,,,,,,,4,8,4,10,,,,,,,,,,,2414.6777,2415.1755,2415.4262,2418.2254,space,2.7899,,2418.2254,9,74,2419.2206,2419.2206,2419.2356,,,,0,37,37,37,1,105,40,,,,,,,,
,,5c9124ef3b7f9e0013728485,65af55ec9cebb2ff24f09995,2024-01-23_08h01.19.449,bars,2023.2.3,Win32,120.4819277,657b66ea316d21385b68909f,,,,,,,,,,,2419.2358,2420.2314,,,2420.7327,2420.9783,,39,39,,,,,,,,,,,,,,,,bars/041.png,bars/mask006.png,,,,,,,,,,,,1,1,,,,,,,2,6,3,5,,,,,,,,,,,2420.2314,2420.7327,2420.9784,2423.2423,space,2.2508,,2423.2424,19,46,2424.2399,2424.24,2424.2559,,,,0,38,38,38,1,20,85,,,,,,,,
,,5c9124ef3b7f9e0013728485,65af55ec9cebb2ff24f09995,2024-01-23_08h01.19.449,bars,2023.2.3,Win32,120.4819277,657b66ea316d21385b68909f,,,,,,,,,,,2424.2562,2425.2561,,,2425.7521,2426.0018,,32,32,,,,,,,,,,,,,,,,bars/004.png,bars/mask005.png,,,,,,,,,,,,0,1,,,,,,,0,4,0,3,,,,,,,,,,,2425.2562,2425.752,2426.0019,2429.1666,space,3.1587,,2429.1667,7,87,2430.1642,2430.1642,2430.1777,,,,0,39,39,39,1,25,125,,,,,,,,
,,5c9124ef3b7f9e0013728485,65af55ec9cebb2ff24f09995,2024-01-23_08h01.19.449,bars,2023.2.3,Win32,120.4819277,657b66ea316d21385b68909f,,,,,,,,,,,2430.1778,2431.1812,,,2431.6809,2431.925,,15,15,,,,,,,,,,,,,,,,bars/005.png,bars/mask007.png,,,,,,,,,,,,1,1,,,,,,,2,2,1,2,,,,,,,,,,,2431.1812,2431.6809,2431.9251,2435.8573,space,3.9247,,2435.8573,5,55,2436.8569,2436.8569,2436.8732,,,,0,40,40,40,1,10,140,,,,,,,,
,,5c9124ef3b7f9e0013728485,65af55ec9cebb2ff24f09995,2024-01-23_08h01.19.449,bars,2023.2.3,Win32,120.4819277,657b66ea316d21385b68909f,,,,,,,,,,,2436.8734,2437.8702,,,2438.3705,2438.6147,,169,-11,,,,,,,,,,,,,,,,bars/039.png,bars/mask004.png,,,,,,,,,,,,3,1,,,,,,,4,4,4,3,,,,,,,,,,,2437.8703,2438.3704,2438.6147,2441.5814,space,2.9599,,2441.5815,6,64,2442.5808,2442.5808,2442.5949,,,,0,41,41,41,1,175,105,,,,,,,,
,,5c9124ef3b7f9e0013728485,65af55ec9cebb2ff24f09995,2024-01-23_08h01.19.449,bars,2023.2.3,Win32,120.4819277,657b66ea316d21385b68909f,,,,,,,,,,,2442.5951,2443.5933,,,2444.0932,2444.338,,168,168,,,,,,,,,,,,,,,,bars/011.png,bars/mask005.png,,,,,,,,,,,,2,1,,,,,,,2,6,3,5,,,,,,,,,,,2443.5936,2444.0932,2444.338,2449.0032,space,4.6577,,2449.0033,8,83,2450.0034,2450.0034,2450.0156,,,,0,42,42,42,1,160,85,,,,,,,,
,,5c9124ef3b7f9e0013728485,65af55ec9cebb2ff24f09995,2024-01-23_08h01.19.449,bars,2023.2.3,Win32,120.4819277,657b66ea316d21385b68909f,,,,,,,,,,,2450.0157,2451.0112,,,2451.5081,2451.7529,,162,-18,,,,,,,,,,,,,,,,bars/010.png,bars/mask004.png,,,,,,,,,,,,0,1,,,,,,,0,4,0,3,,,,,,,,,,,2451.0112,2451.508,2451.7529,2454.4685,space,2.709,,2454.4687,3,73,2455.4683,2455.4684,2455.4828,,,,0,43,43,43,1,165,55,,,,,,,,
,,5c9124ef3b7f9e0013728485,65af55ec9cebb2ff24f09995,2024-01-23_08h01.19.449,bars,2023.2.3,Win32,120.4819277,657b66ea316d21385b68909f,,,,,,,,,,,2455.483,2456.477,,,2456.9758,2457.2306,,84,84,,,,,,,,,,,,,,,,bars/029.png,bars/mask002.png,,,,,,,,,,,,0,1,,,,,,,2,2,0,2,,,,,,,,,,,2456.477,2456.9757,2457.2306,2459.9564,space,2.72,,2459.9565,6,39,2460.9529,2460.9529,2460.9693,,,,0,44,44,44,1,90,45,,,,,,,,
,,5c9124ef3b7f9e0013728485,65af55ec9cebb2ff24f09995,2024-01-23_08h01.19.449,bars,2023.2.3,Win32,120.4819277,657b66ea316d21385b68909f,,,,,,,,,,,2460.9695,2461.9659,,,2462.4628,2462.7125,,23,203,,,,,,,,,,,,,,,,bars/033.png,bars/mask001.png,,,,,,,,,,,,5,1,,,,,,,4,0,5,1,,,,,,,,,,,2461.9659,2462.4628,2462.7126,2465.1968,space,2.4755,,2465.1969,2,48,2466.1982,2466.1985,2466.2006,,,,0,45,45,45,1,25,155,,,,,,,,
,,5c9124ef3b7f9e0013728485,65af55ec9cebb2ff24f09995,2024-01-23_08h01.19.449,bars,2023.2.3,Win32,120.4819277,657b66ea316d21385b68909f,,,,,,,,,,,2466.201,2467.2012,,,2467.7026,2467.9504,,171,-9,,,,,,,,,,,,,,,,bars/039.png,bars/mask002.png,,,,,,,,,,,,2,1,,,,,,,2,0,2,1,,,,,,,,,,,2467.2012,2467.7025,2467.9505,2470.9284,space,2.9674,,2470.9285,4,66,2471.9272,2471.9272,2471.9429,,,,0,46,46,46,1,175,105,,,,,,,,
,,5c9124ef3b7f9e0013728485,65af55ec9cebb2ff24f09995,2024-01-23_08h01.19.449,bars,2023.2.3,Win32,120.4819277,657b66ea316d21385b68909f,,,,,,,,,,,2471.9431,2472.9394,,,2473.4342,2473.6849,,54,54,,,,,,,,,,,,,,,,bars/041.png,bars/mask004.png,,,,,,,,,,,,0,2,,,,,,,0,2,1,2,,,,,,,,,,,2472.9395,2473.4342,2473.685,2476.4569,space,2.7638,,2476.457,34,31,2477.4567,2477.4567,2477.4736,,,,0,47,47,47,1,20,85,,,,,,,,
,,5c9124ef3b7f9e0013728485,65af55ec9cebb2ff24f09995,2024-01-23_08h01.19.449,bars,2023.2.3,Win32,120.4819277,657b66ea316d21385b68909f,,,,,,,,,,,2477.4738,2478.4743,,,2478.9744,2479.2249,,19,199,,,,,,,,,,,,,,,,bars/047.png,bars/mask003.png,,,,,,,,,,,,2,1,,,,,,,2,0,2,0,,,,,,,,,,,2478.4744,2478.9744,2479.2249,2483.2467,space,4.0143,,2483.2468,4,51,2484.2431,2484.2431,2484.2584,,,,0,48,48,48,1,15,70,,,,,,,,
,,5c9124ef3b7f9e0013728485,65af55ec9cebb2ff24f09995,2024-01-23_08h01.19.449,bars,2023.2.3,Win32,120.4819277,657b66ea316d21385b68909f,,,,,,,,,,,2484.2586,2485.2557,,,2485.7557,2486.0063,,8,188,,,,,,,,,,,,,,,,bars/023.png,bars/mask003.png,,,,,,,,,,,,2,1,,,,,,,4,0,4,0,,,,,,,,,,,2485.2558,2485.7557,2486.0063,2488.8815,space,2.8673,,2488.8816,12,73,2489.8828,2489.8828,2489.8994,,,,0,49,49,49,1,20,115,,,,,,,,
,,5c9124ef3b7f9e0013728485,65af55ec9cebb2ff24f09995,2024-01-23_08h01.19.449,bars,2023.2.3,Win32,120.4819277,657b66ea316d21385b68909f,,,,,,,,,,,,,,,,,,,,,,,,,,,,,,,,,,,,,,,,,,,,,,,,,,,,,,,,,,,,,,,,,,,,,,,,,,,,,,,,,,,,,,,,,,,,,2489.8997,2549.8946,0,3,3,3,1,sequence_tables/blk001.csv
,,5c9124ef3b7f9e0013728485,65af55ec9cebb2ff24f09995,2024-01-23_08h01.19.449,bars,2023.2.3,Win32,120.4819277,657b66ea316d21385b68909f,,,,,,,,,,,2562.575,2563.566,,,2564.0635,2564.3075,,16,16,,,,,,,,,,,,,,,,bars/047.png,bars/mask002.png,,,,,,,,,,,,6,1,,,,,,,5,1,6,1,,,,,,2549.9096,2562.5583,space,12.6425,,2563.5661,2564.0634,2564.3075,2568.9159,space,4.6001,,2568.916,1,54,2569.9232,2569.9232,2569.9385,,,,0,0,0,0,1,15,70,,,,,,,,
,,5c9124ef3b7f9e0013728485,65af55ec9cebb2ff24f09995,2024-01-23_08h01.19.449,bars,2023.2.3,Win32,120.4819277,657b66ea316d21385b68909f,,,,,,,,,,,2569.9387,2570.9357,,,2571.4306,2571.6795,,48,48,,,,,,,,,,,,,,,,bars/025.png,bars/mask002.png,,,,,,,,,,,,0,2,,,,,,,3,0,3,0,,,,,,,,,,,2570.9357,2571.4306,2571.6796,2575.2315,space,3.5416,,2575.2315,57,8,2576.2298,2576.2299,2576.2455,,,,0,1,1,1,1,105,40,,,,,,,,
,,5c9124ef3b7f9e0013728485,65af55ec9cebb2ff24f09995,2024-01-23_08h01.19.449,bars,2023.2.3,Win32,120.4819277,657b66ea316d21385b68909f,,,,,,,,,,,2576.2457,2577.246,,,2577.7468,2577.9993,,79,79,,,,,,,,,,,,,,,,bars/012.png,bars/mask007.png,,,,,,,,,,,,3,1,,,,,,,5,0,4,1,,,,,,,,,,,2577.246,2577.7468,2577.9994,2581.9981,space,3.9921,,2581.9981,11,64,2582.9971,2582.9971,2583.0118,,,,0,2,2,2,1,90,15,,,,,,,,
,,5c9124ef3b7f9e0013728485,65af55ec9cebb2ff24f09995,2024-01-23_08h01.19.449,bars,2023.2.3,Win32,120.4819277,657b66ea316d21385b68909f,,,,,,,,,,,2583.012,2584.0107,,,2584.5083,2584.7596,,107,107,,,,,,,,,,,,,,,,bars/045.png,bars/mask005.png,,,,,,,,,,,,2,1,,,,,,,3,0,3,2,,,,,,,,,,,2584.0107,2584.5083,2584.7597,2588.1456,space,3.3766,,2588.1456,7,83,2589.1452,2589.1453,2589.1613,,,,0,3,3,3,1,100,10,,,,,,,,
,,5c9124ef3b7f9e0013728485,65af55ec9cebb2ff24f09995,2024-01-23_08h01.19.449,bars,2023.2.3,Win32,120.4819277,657b66ea316d21385b68909f,,,,,,,,,,,2589.1616,2590.1568,,,2590.6533,2590.9031,,124,124,,,,,,,,,,,,,,,,bars/034.png,bars/mask003.png,,,,,,,,,,,,2,1,,,,,,,1,0,2,1,,,,,,,,,,,2590.1569,2590.6532,2590.9031,2596.1639,space,5.2545,,2596.164,1,59,2597.1612,2597.1613,2597.1746,,,,0,4,4,4,1,125,65,,,,,,,,
,,5c9124ef3b7f9e0013728485,65af55ec9cebb2ff24f09995,2024-01-23_08h01.19.449,bars,2023.2.3,Win32,120.4819277,657b66ea316d21385b68909f,,,,,,,,,,,2597.1748,2598.1718,,,2598.6675,2598.9142,,54,54,,,,,,,,,,,,,,,,bars/000.png,bars/mask005.png,,,,,,,,,,,,0,1,,,,,,,0,2,0,2,,,,,,,,,,,2598.1718,2598.6675,2598.9142,2603.1223,space,4.1992,,2603.1224,14,89,2604.1213,2604.1215,2604.1367,,,,0,5,5,5,1,40,145,,,,,,,,
,,5c9124ef3b7f9e0013728485,65af55ec9cebb2ff24f09995,2024-01-23_08h01.19.449,bars,2023.2.3,Win32,120.4819277,657b66ea316d21385b68909f,,,,,,,,,,,2604.1369,2605.1382,,,2605.6372,2605.8869,,136,136,,,,,,,,,,,,,,,,bars/024.png,bars/mask002.png,,,,,,,,,,,,1,1,,,,,,,0,0,2,0,,,,,,,,,,,2605.1383,2605.6371,2605.8869,2607.8218,space,1.928,,2607.8218,16,34,2608.8175,2608.8177,2608.8197,,,,0,6,6,6,1,120,170,,,,,,,,
,,5c9124ef3b7f9e0013728485,65af55ec9cebb2ff24f09995,2024-01-23_08h01.19.449,bars,2023.2.3,Win32,120.4819277,657b66ea316d21385b68909f,,,,,,,,,,,2608.8202,2609.8203,,,2610.3281,2610.5789,,129,129,,,,,,,,,,,,,,,,bars/049.png,bars/mask002.png,,,,,,,,,,,,2,2,,,,,,,0,2,0,3,,,,,,,,,,,2609.8203,2610.328,2610.5789,2611.3713,space,0.7845,,2611.3713,31,14,2612.3693,2612.3693,2612.3726,,,,0,7,7,7,1,160,115,,,,,,,,
,,5c9124ef3b7f9e0013728485,65af55ec9cebb2ff24f09995,2024-01-23_08h01.19.449,bars,2023.2.3,Win32,120.4819277,657b66ea316d21385b68909f,,,,,,,,,,,2612.373,2613.3668,,,2613.8691,2614.1186,,139,139,,,,,,,,,,,,,,,,bars/017.png,bars/mask003.png,,,,,,,,,,,,1,1,,,,,,,0,0,1,0,,,,,,,,,,,2613.3668,2613.8691,2614.1186,2616.63,space,2.503,,2616.63,6,86,2617.6286,2617.6286,2617.6451,,,,0,8,8,8,1,145,45,,,,,,,,
,,5c9124ef3b7f9e0013728485,65af55ec9cebb2ff24f09995,2024-01-23_08h01.19.449,bars,2023.2.3,Win32,120.4819277,657b66ea316d21385b68909f,,,,,,,,,,,2617.6453,2618.6417,,,2619.1377,2619.3834,,132,132,,,,,,,,,,,,,,,,bars/037.png,bars/mask005.png,,,,,,,,,,,,2,1,,,,,,,2,0,4,1,,,,,,,,,,,2618.6417,2619.1376,2619.3834,2622.6087,space,3.2187,,2622.6087,18,27,2623.6049,2623.605,2623.6203,,,,0,9,9,9,1,150,105,,,,,,,,
,,5c9124ef3b7f9e0013728485,65af55ec9cebb2ff24f09995,2024-01-23_08h01.19.449,bars,2023.2.3,Win32,120.4819277,657b66ea316d21385b68909f,,,,,,,,,,,2623.6205,2624.6181,,,2625.1212,2625.373,,170,170,,,,,,,,,,,,,,,,bars/007.png,bars/mask002.png,,,,,,,,,,,,3,1,,,,,,,4,0,3,0,,,,,,,,,,,2624.6182,2625.1212,2625.3731,2628.0401,space,2.661,,2628.0402,5,65,2629.0397,2629.0397,2629.0565,,,,0,10,10,10,1,175,55,,,,,,,,
,,5c9124ef3b7f9e0013728485,65af55ec9cebb2ff24f09995,2024-01-23_08h01.19.449,bars,2023.2.3,Win32,120.4819277,657b66ea316d21385b68909f,,,,,,,,,,,2629.0567,2630.0558,,,2630.5628,2630.8103,,61,61,,,,,,,,,,,,,,,,bars/044.png,bars/mask005.png,,,,,,,,,,,,3,1,,,,,,,6,2,6,2,,,,,,,,,,,2630.0558,2630.5628,2630.8104,2632.958,space,2.1368,,2632.9581,14,86,2633.9568,2633.9569,2633.9716,,,,0,11,11,11,1,75,155,,,,,,,,
