init_variables.started,init_variables.stopped,participant,session,date,expName,psychopyVersion,OS,frameRate,study_id,instruction_exp.started,instruction_exp.stopped,key_resp_8.keys,key_resp_8.rt,key_resp_8.duration,instruction_single.started,instruction_single.stopped,key_resp_2.keys,key_resp_2.rt,key_resp_2.duration,interval.started,interval.stopped,cue_single.started,cue_single.stopped,mask.started,mask.stopped,ori_response_single.started,res_ori,res,ori_response_single.stopped,key_resp_single.keys,key_resp_single.rt,key_resp_single.duration,disp_single.started,disp_single.stopped,key_resp.keys,key_resp.rt,key_resp.duration,single.thisRepN,single.thisTrialN,single.thisN,single.thisIndex,single.ran,ori,path,mask_path,instruction_bandit.started,instruction_bandit.stopped,key_resp_6.keys,key_resp_6.rt,key_resp_6.duration,cue_bandit.started,cue_bandit.stopped,bandit_res.keys,bandit_res.rt,bandit_res.duration,outcome_bandit.started,rew,action,outcome_bandit.stopped,bandit.thisRepN,bandit.thisTrialN,bandit.thisN,bandit.thisIndex,bandit.ran,actual_rew1,actual_rew2,rew1,rew2,instruction_task.started,instruction_task.stopped,key_resp_7.keys,key_resp_7.rt,key_resp_7.duration,wait_ready.started,wait_ready.stopped,key_resp_3.keys,key_resp_3.rt,key_resp_3.duration,cue.started,cue.stopped,ori_response.started,ori_response.stopped,key_resp_5.keys,key_resp_5.rt,key_resp_5.duration,outcome.started,diff1,diff2,outcome.stopped,disp_outcome_practice.started,disp_outcome_practice.stopped,key_resp_4.keys,key_resp_4.rt,key_resp_4.duration,trials.thisRepN,trials.thisTrialN,trials.thisN,trials.thisIndex,trials.ran,ori1,ori2,break_blk.started,break_blk.stopped,block.thisRepN,block.thisTrialN,block.thisN,block.thisIndex,block.ran,condition_file
0.0003,0.0004,5c52df0c445f1d000137c6b8,65af54fcac09f8926668b55c,2024-01-23_06h07.57.090,bars,2023.2.3,Win32,59.88023952,657b66ea316d21385b68909f,,,,,,,,,,,,,,,,,,,,,,,,,,,,,,,,,,,,,,,,,,,,,,,,,,,,,,,,,,,,,,,,,,,,,,,,,,,,,,,,,,,,,,,,,,,,,,,,,,,,
,,5c52df0c445f1d000137c6b8,65af54fcac09f8926668b55c,2024-01-23_06h07.57.090,bars,2023.2.3,Win32,59.88023952,657b66ea316d21385b68909f,0.0004,291.8522,y,291.8387,,,,,,,,,,,,,,,,,,,,,,,,,,,,,,,,,,,,,,,,,,,,,,,,,,,,,,,,,,,,,,,,,,,,,,,,,,,,,,,,,,,,,,,,,,,,,,,,
,,5c52df0c445f1d000137c6b8,65af54fcac09f8926668b55c,2024-01-23_06h07.57.090,bars,2023.2.3,Win32,59.88023952,657b66ea316d21385b68909f,,,,,,291.8526,303.8026,space,11.9396,,,,,,,,,,,,,,,,,,,,,,,,,,,,,,,,,,,,,,,,,,,,,,,,,,,,,,,,,,,,,,,,,,,,,,,,,,,,,,,,,,,,,,,,,,,
,,5c52df0c445f1d000137c6b8,65af54fcac09f8926668b55c,2024-01-23_06h07.57.090,bars,2023.2.3,Win32,59.88023952,657b66ea316d21385b68909f,,,,,,,,,,,303.8061,304.8021,304.8022,305.3023,305.3024,305.5522,305.5523,51,51,313.3694,space,7.7925,,313.3695,320.0865,space,6.7017,,0,0,0,5,1,55,bars/single005.png,bars/mask008.png,,,,,,,,,,,,,,,,,,,,,,,,,,,,,,,,,,,,,,,,,,,,,,,,,,,,,,,,,,,,,,,,
,,5c52df0c445f1d000137c6b8,65af54fcac09f8926668b55c,2024-01-23_06h07.57.090,bars,2023.2.3,Win32,59.88023952,657b66ea316d21385b68909f,,,,,,,,,,,320.0939,321.0857,321.0857,321.5858,321.5859,321.8358,321.8359,169,169,329.6192,space,7.7672,,329.6193,331.7027,space,2.0613,,0,1,1,8,1,160,bars/single008.png,bars/mask004.png,,,,,,,,,,,,,,,,,,,,,,,,,,,,,,,,,,,,,,,,,,,,,,,,,,,,,,,,,,,,,,,,
,,5c52df0c445f1d000137c6b8,65af54fcac09f8926668b55c,2024-01-23_06h07.57.090,bars,2023.2.3,Win32,59.88023952,657b66ea316d21385b68909f,,,,,,,,,,,331.7031,332.7027,332.7027,333.2028,333.2028,333.4527,333.4527,1,1,337.086,space,3.6186,,337.0862,339.7863,space,2.6789,,0,2,2,1,1,20,bars/single001.png,bars/mask006.png,,,,,,,,,,,,,,,,,,,,,,,,,,,,,,,,,,,,,,,,,,,,,,,,,,,,,,,,,,,,,,,,
,,5c52df0c445f1d000137c6b8,65af54fcac09f8926668b55c,2024-01-23_06h07.57.090,bars,2023.2.3,Win32,59.88023952,657b66ea316d21385b68909f,,,,,,,,,,,339.7868,340.7861,340.7862,341.2864,341.2865,341.5362,341.5362,40,40,346.5368,space,4.9895,,346.5368,348.0199,space,1.4701,,0,3,3,9,1,20,bars/single009.png,bars/mask006.png,,,,,,,,,,,,,,,,,,,,,,,,,,,,,,,,,,,,,,,,,,,,,,,,,,,,,,,,,,,,,,,,
,,5c52df0c445f1d000137c6b8,65af54fcac09f8926668b55c,2024-01-23_06h07.57.090,bars,2023.2.3,Win32,59.88023952,657b66ea316d21385b68909f,,,,,,,,,,,348.0201,349.0197,349.0197,349.5198,349.5199,349.7697,349.7697,4,4,354.6369,space,4.8506,,354.637,356.3032,space,1.6447,,0,4,4,6,1,175,bars/single006.png,bars/mask005.png,,,,,,,,,,,,,,,,,,,,,,,,,,,,,,,,,,,,,,,,,,,,,,,,,,,,,,,,,,,,,,,,
,,5c52df0c445f1d000137c6b8,65af54fcac09f8926668b55c,2024-01-23_06h07.57.090,bars,2023.2.3,Win32,59.88023952,657b66ea316d21385b68909f,,,,,,,,,,,356.3037,357.3033,357.3033,357.8034,357.8035,358.0534,358.0534,138,138,364.2033,space,6.1423,,364.2034,365.3035,space,1.088,,0,5,5,2,1,145,bars/single002.png,bars/mask003.png,,,,,,,,,,,,,,,,,,,,,,,,,,,,,,,,,,,,,,,,,,,,,,,,,,,,,,,,,,,,,,,,
,,5c52df0c445f1d000137c6b8,65af54fcac09f8926668b55c,2024-01-23_06h07.57.090,bars,2023.2.3,Win32,59.88023952,657b66ea316d21385b68909f,,,,,,,,,,,365.3039,366.3035,366.3035,366.8038,366.8038,367.0537,367.0537,7,7,369.8037,space,2.7341,,369.8037,371.1372,space,1.3209,,0,6,6,3,1,20,bars/single003.png,bars/mask005.png,,,,,,,,,,,,,,,,,,,,,,,,,,,,,,,,,,,,,,,,,,,,,,,,,,,,,,,,,,,,,,,,
,,5c52df0c445f1d000137c6b8,65af54fcac09f8926668b55c,2024-01-23_06h07.57.090,bars,2023.2.3,Win32,59.88023952,657b66ea316d21385b68909f,,,,,,,,,,,371.1374,372.137,372.137,372.6372,372.6372,372.8871,372.8872,150,150,375.9041,space,3.0063,,375.9041,378.3879,space,2.4737,,0,7,7,0,1,150,bars/single000.png,bars/mask006.png,,,,,,,,,,,,,,,,,,,,,,,,,,,,,,,,,,,,,,,,,,,,,,,,,,,,,,,,,,,,,,,,
,,5c52df0c445f1d000137c6b8,65af54fcac09f8926668b55c,2024-01-23_06h07.57.090,bars,2023.2.3,Win32,59.88023952,657b66ea316d21385b68909f,,,,,,,,,,,378.3882,379.3872,379.3872,379.8873,379.8873,380.1372,380.1372,37,37,386.1876,space,6.0358,,386.1876,387.6708,space,1.4623,,0,8,8,7,1,45,bars/single007.png,bars/mask009.png,,,,,,,,,,,,,,,,,,,,,,,,,,,,,,,,,,,,,,,,,,,,,,,,,,,,,,,,,,,,,,,,
,,5c52df0c445f1d000137c6b8,65af54fcac09f8926668b55c,2024-01-23_06h07.57.090,bars,2023.2.3,Win32,59.88023952,657b66ea316d21385b68909f,,,,,,,,,,,387.6711,388.6709,388.6709,389.1707,389.1707,389.4208,389.4208,92,92,396.7378,space,7.301,,396.7378,398.205,space,1.4568,,0,9,9,4,1,95,bars/single004.png,bars/mask004.png,,,,,,,,,,,,,,,,,,,,,,,,,,,,,,,,,,,,,,,,,,,,,,,,,,,,,,,,,,,,,,,,
,,5c52df0c445f1d000137c6b8,65af54fcac09f8926668b55c,2024-01-23_06h07.57.090,bars,2023.2.3,Win32,59.88023952,657b66ea316d21385b68909f,,,,,,,,,,,,,,,,,,,,,,,,,,,,,,,,,,,,,398.2055,408.7722,space,10.5494,,,,,,,,,,,,,,,,,,,,,,,,,,,,,,,,,,,,,,,,,,,,,,,,,,,,,,,,,,,,
,,5c52df0c445f1d000137c6b8,65af54fcac09f8926668b55c,2024-01-23_06h07.57.090,bars,2023.2.3,Win32,59.88023952,657b66ea316d21385b68909f,,,,,,,,,,,,,,,,,,,,,,,,,,,,,,,,,,,,,,,,,,408.781,411.2716,left,2.4712,,411.2717,9,1,412.2716,0,0,0,0,1,9,1,9,2,,,,,,,,,,,,,,,,,,,,,,,,,,,,,,,,,,,,,,,,,
,,5c52df0c445f1d000137c6b8,65af54fcac09f8926668b55c,2024-01-23_06h07.57.090,bars,2023.2.3,Win32,59.88023952,657b66ea316d21385b68909f,,,,,,,,,,,,,,,,,,,,,,,,,,,,,,,,,,,,,,,,,,412.2722,413.5881,left,1.3074,,413.5881,10,1,414.5883,0,1,1,1,1,10,0,10,1,,,,,,,,,,,,,,,,,,,,,,,,,,,,,,,,,,,,,,,,,
,,5c52df0c445f1d000137c6b8,65af54fcac09f8926668b55c,2024-01-23_06h07.57.090,bars,2023.2.3,Win32,59.88023952,657b66ea316d21385b68909f,,,,,,,,,,,,,,,,,,,,,,,,,,,,,,,,,,,,,,,,,,414.5885,415.2715,left,0.6664,,415.2715,10,1,416.2714,0,2,2,2,1,10,2,10,2,,,,,,,,,,,,,,,,,,,,,,,,,,,,,,,,,,,,,,,,,
,,5c52df0c445f1d000137c6b8,65af54fcac09f8926668b55c,2024-01-23_06h07.57.090,bars,2023.2.3,Win32,59.88023952,657b66ea316d21385b68909f,,,,,,,,,,,,,,,,,,,,,,,,,,,,,,,,,,,,,,,,,,416.2716,416.7884,left,0.5065,,416.7884,7,1,417.7881,0,3,3,3,1,8,4,7,3,,,,,,,,,,,,,,,,,,,,,,,,,,,,,,,,,,,,,,,,,
,,5c52df0c445f1d000137c6b8,65af54fcac09f8926668b55c,2024-01-23_06h07.57.090,bars,2023.2.3,Win32,59.88023952,657b66ea316d21385b68909f,,,,,,,,,,,,,,,,,,,,,,,,,,,,,,,,,,,,,,,,,,417.7883,418.2216,left,0.4219,,418.2217,5,1,419.2217,0,4,4,4,1,6,2,5,1,,,,,,,,,,,,,,,,,,,,,,,,,,,,,,,,,,,,,,,,,
,,5c52df0c445f1d000137c6b8,65af54fcac09f8926668b55c,2024-01-23_06h07.57.090,bars,2023.2.3,Win32,59.88023952,657b66ea316d21385b68909f,,,,,,,,,,,,,,,,,,,,,,,,,,,,,,,,,,,,,,,,,,419.2221,419.6551,right,0.4242,,419.6552,4,2,420.655,0,5,5,5,1,4,4,4,4,,,,,,,,,,,,,,,,,,,,,,,,,,,,,,,,,,,,,,,,,
,,5c52df0c445f1d000137c6b8,65af54fcac09f8926668b55c,2024-01-23_06h07.57.090,bars,2023.2.3,Win32,59.88023952,657b66ea316d21385b68909f,,,,,,,,,,,,,,,,,,,,,,,,,,,,,,,,,,,,,,,,,,420.6554,421.0385,left,0.3758,,421.0386,1,1,422.0385,0,6,6,6,1,2,2,1,2,,,,,,,,,,,,,,,,,,,,,,,,,,,,,,,,,,,,,,,,,
,,5c52df0c445f1d000137c6b8,65af54fcac09f8926668b55c,2024-01-23_06h07.57.090,bars,2023.2.3,Win32,59.88023952,657b66ea316d21385b68909f,,,,,,,,,,,,,,,,,,,,,,,,,,,,,,,,,,,,,,,,,,422.0389,422.9552,right,0.9015,,422.9552,1,2,423.9553,0,7,7,7,1,0,0,0,1,,,,,,,,,,,,,,,,,,,,,,,,,,,,,,,,,,,,,,,,,
,,5c52df0c445f1d000137c6b8,65af54fcac09f8926668b55c,2024-01-23_06h07.57.090,bars,2023.2.3,Win32,59.88023952,657b66ea316d21385b68909f,,,,,,,,,,,,,,,,,,,,,,,,,,,,,,,,,,,,,,,,,,423.9556,424.6061,left,0.6462,,424.6062,1,1,425.6051,0,8,8,8,1,0,2,1,0,,,,,,,,,,,,,,,,,,,,,,,,,,,,,,,,,,,,,,,,,
,,5c52df0c445f1d000137c6b8,65af54fcac09f8926668b55c,2024-01-23_06h07.57.090,bars,2023.2.3,Win32,59.88023952,657b66ea316d21385b68909f,,,,,,,,,,,,,,,,,,,,,,,,,,,,,,,,,,,,,,,,,,425.6056,426.0221,right,0.4025,,426.0221,3,2,427.0219,0,9,9,9,1,2,4,2,3,,,,,,,,,,,,,,,,,,,,,,,,,,,,,,,,,,,,,,,,,
,,5c52df0c445f1d000137c6b8,65af54fcac09f8926668b55c,2024-01-23_06h07.57.090,bars,2023.2.3,Win32,59.88023952,657b66ea316d21385b68909f,,,,,,,,,,,,,,,,,,,,,,,,,,,,,,,,,,,,,,,,,,427.0221,427.3885,right,0.3496,,427.3885,3,2,428.3885,0,10,10,10,1,0,2,0,3,,,,,,,,,,,,,,,,,,,,,,,,,,,,,,,,,,,,,,,,,
,,5c52df0c445f1d000137c6b8,65af54fcac09f8926668b55c,2024-01-23_06h07.57.090,bars,2023.2.3,Win32,59.88023952,657b66ea316d21385b68909f,,,,,,,,,,,,,,,,,,,,,,,,,,,,,,,,,,,,,,,,,,428.3888,428.7885,right,0.3934,,428.7885,3,2,429.7886,0,11,11,11,1,0,4,0,3,,,,,,,,,,,,,,,,,,,,,,,,,,,,,,,,,,,,,,,,,
,,5c52df0c445f1d000137c6b8,65af54fcac09f8926668b55c,2024-01-23_06h07.57.090,bars,2023.2.3,Win32,59.88023952,657b66ea316d21385b68909f,,,,,,,,,,,,,,,,,,,,,,,,,,,,,,,,,,,,,,,,,,429.7888,430.2721,right,0.4662,,430.2721,6,2,431.2718,0,12,12,12,1,2,6,1,6,,,,,,,,,,,,,,,,,,,,,,,,,,,,,,,,,,,,,,,,,
,,5c52df0c445f1d000137c6b8,65af54fcac09f8926668b55c,2024-01-23_06h07.57.090,bars,2023.2.3,Win32,59.88023952,657b66ea316d21385b68909f,,,,,,,,,,,,,,,,,,,,,,,,,,,,,,,,,,,,,,,,,,431.272,431.7222,right,0.4345,,431.7222,3,2,432.722,0,13,13,13,1,0,4,1,3,,,,,,,,,,,,,,,,,,,,,,,,,,,,,,,,,,,,,,,,,
,,5c52df0c445f1d000137c6b8,65af54fcac09f8926668b55c,2024-01-23_06h07.57.090,bars,2023.2.3,Win32,59.88023952,657b66ea316d21385b68909f,,,,,,,,,,,,,,,,,,,,,,,,,,,,,,,,,,,,,,,,,,432.7224,433.2055,left,0.474,,433.2055,2,1,434.2055,0,14,14,14,1,2,6,2,7,,,,,,,,,,,,,,,,,,,,,,,,,,,,,,,,,,,,,,,,,
,,5c52df0c445f1d000137c6b8,65af54fcac09f8926668b55c,2024-01-23_06h07.57.090,bars,2023.2.3,Win32,59.88023952,657b66ea316d21385b68909f,,,,,,,,,,,,,,,,,,,,,,,,,,,,,,,,,,,,,,,,,,434.2059,434.6555,right,0.4375,,434.6555,9,2,435.6554,0,15,15,15,1,4,8,3,9,,,,,,,,,,,,,,,,,,,,,,,,,,,,,,,,,,,,,,,,,
,,5c52df0c445f1d000137c6b8,65af54fcac09f8926668b55c,2024-01-23_06h07.57.090,bars,2023.2.3,Win32,59.88023952,657b66ea316d21385b68909f,,,,,,,,,,,,,,,,,,,,,,,,,,,,,,,,,,,,,,,,,,435.6557,436.0224,right,0.3608,,436.0224,7,2,437.0222,0,16,16,16,1,6,6,7,7,,,,,,,,,,,,,,,,,,,,,,,,,,,,,,,,,,,,,,,,,
,,5c52df0c445f1d000137c6b8,65af54fcac09f8926668b55c,2024-01-23_06h07.57.090,bars,2023.2.3,Win32,59.88023952,657b66ea316d21385b68909f,,,,,,,,,,,,,,,,,,,,,,,,,,,,,,,,,,,,,,,,,,437.0225,437.4723,right,0.4332,,437.4724,5,2,438.4719,0,17,17,17,1,8,4,9,5,,,,,,,,,,,,,,,,,,,,,,,,,,,,,,,,,,,,,,,,,
,,5c52df0c445f1d000137c6b8,65af54fcac09f8926668b55c,2024-01-23_06h07.57.090,bars,2023.2.3,Win32,59.88023952,657b66ea316d21385b68909f,,,,,,,,,,,,,,,,,,,,,,,,,,,,,,,,,,,,,,,,,,438.4722,438.9222,left,0.4386,,438.9223,5,1,439.9223,0,18,18,18,1,6,2,5,1,,,,,,,,,,,,,,,,,,,,,,,,,,,,,,,,,,,,,,,,,
,,5c52df0c445f1d000137c6b8,65af54fcac09f8926668b55c,2024-01-23_06h07.57.090,bars,2023.2.3,Win32,59.88023952,657b66ea316d21385b68909f,,,,,,,,,,,,,,,,,,,,,,,,,,,,,,,,,,,,,,,,,,439.9226,440.3056,left,0.3705,,440.3056,7,1,441.3054,0,19,19,19,1,8,0,7,0,,,,,,,,,,,,,,,,,,,,,,,,,,,,,,,,,,,,,,,,,
,,5c52df0c445f1d000137c6b8,65af54fcac09f8926668b55c,2024-01-23_06h07.57.090,bars,2023.2.3,Win32,59.88023952,657b66ea316d21385b68909f,,,,,,,,,,,,,,,,,,,,,,,,,,,,,,,,,,,,,,,,,,,,,,,,,,,,,,,,,,,,441.3061,458.1565,space,16.8408,,,,,,,,,,,,,,,,,,,,,,,,,,,,,,,,,,,,,
,,5c52df0c445f1d000137c6b8,65af54fcac09f8926668b55c,2024-01-23_06h07.57.090,bars,2023.2.3,Win32,59.88023952,657b66ea316d21385b68909f,,,,,,,,,,,459.7921,460.7896,,,461.2894,461.5395,,9,9,,,,,,,,,,,,,,,,bars/004.png,bars/mask002.png,,,,,,,,,,,,4,1,,,,,,,8,4,8,5,,,,,,458.1649,459.7897,space,1.6112,,460.7898,461.2894,461.5397,467.6735,space,6.1167,,467.6737,16,64,468.673,468.6731,474.7401,space,6.058,,0,0,0,0,1,25,125,,,,,,,,
,,5c52df0c445f1d000137c6b8,65af54fcac09f8926668b55c,2024-01-23_06h07.57.090,bars,2023.2.3,Win32,59.88023952,657b66ea316d21385b68909f,,,,,,,,,,,474.7482,475.7397,,,476.2399,476.4898,,6,6,,,,,,,,,,,,,,,,bars/013.png,bars/mask008.png,,,,,,,,,,,,7,2,,,,,,,10,6,10,8,,,,,,,,,,,475.7397,476.2399,476.4899,482.0402,space,5.5364,,482.0402,69,4,483.0401,483.0401,484.6736,space,1.6099,,0,1,1,1,1,75,10,,,,,,,,
,,5c52df0c445f1d000137c6b8,65af54fcac09f8926668b55c,2024-01-23_06h07.57.090,bars,2023.2.3,Win32,59.88023952,657b66ea316d21385b68909f,,,,,,,,,,,484.674,485.6735,,,486.1736,486.4234,,174,174,,,,,,,,,,,,,,,,bars/015.png,bars/mask009.png,,,,,,,,,,,,3,2,,,,,,,10,4,10,5,,,,,,,,,,,485.6735,486.1736,486.4235,489.8068,space,3.3679,,489.8068,64,14,490.8069,490.807,492.7736,space,1.9443,,0,2,2,2,1,110,160,,,,,,,,
,,5c52df0c445f1d000137c6b8,65af54fcac09f8926668b55c,2024-01-23_06h07.57.090,bars,2023.2.3,Win32,59.88023952,657b66ea316d21385b68909f,,,,,,,,,,,492.7739,493.7736,,,494.2736,494.5236,,139,139,,,,,,,,,,,,,,,,bars/024.png,bars/mask001.png,,,,,,,,,,,,3,1,,,,,,,8,6,8,5,,,,,,,,,,,493.7736,494.2735,494.5236,495.607,space,1.0705,,495.607,19,31,496.607,496.607,502.3071,space,5.6928,,0,3,3,3,1,120,170,,,,,,,,
,,5c52df0c445f1d000137c6b8,65af54fcac09f8926668b55c,2024-01-23_06h07.57.090,bars,2023.2.3,Win32,59.88023952,657b66ea316d21385b68909f,,,,,,,,,,,502.3141,503.3072,,,503.8072,504.057,,144,144,,,,,,,,,,,,,,,,bars/002.png,bars/mask003.png,,,,,,,,,,,,5,1,,,,,,,10,8,10,9,,,,,,,,,,,503.3072,503.8072,504.0571,506.7574,space,2.6921,,506.7575,14,59,507.7574,507.7574,509.5241,space,1.7535,,0,4,4,4,1,130,85,,,,,,,,
,,5c52df0c445f1d000137c6b8,65af54fcac09f8926668b55c,2024-01-23_06h07.57.090,bars,2023.2.3,Win32,59.88023952,657b66ea316d21385b68909f,,,,,,,,,,,509.5245,510.524,,,511.0241,511.274,,95,95,,,,,,,,,,,,,,,,bars/025.png,bars/mask005.png,,,,,,,,,,,,5,1,,,,,,,8,10,8,10,,,,,,,,,,,510.524,511.0241,511.274,515.7243,space,4.4397,,515.7244,10,55,516.7242,516.7242,573.326,space,56.5775,,0,5,5,5,1,105,40,,,,,,,,
,,5c52df0c445f1d000137c6b8,65af54fcac09f8926668b55c,2024-01-23_06h07.57.090,bars,2023.2.3,Win32,59.88023952,657b66ea316d21385b68909f,,,,,,,,,,,573.3339,574.3258,,,574.8258,575.0756,,179,179,,,,,,,,,,,,,,,,bars/007.png,bars/mask002.png,,,,,,,,,,,,9,1,,,,,,,10,10,10,10,,,,,,,,,,,574.3259,574.8258,575.0756,577.626,space,2.5456,,577.626,4,56,578.6258,578.626,579.6093,space,0.9658,,0,6,6,6,1,175,55,,,,,,,,
,,5c52df0c445f1d000137c6b8,65af54fcac09f8926668b55c,2024-01-23_06h07.57.090,bars,2023.2.3,Win32,59.88023952,657b66ea316d21385b68909f,,,,,,,,,,,579.6096,580.6093,,,581.1093,581.3591,,23,23,,,,,,,,,,,,,,,,bars/016.png,bars/mask007.png,,,,,,,,,,,,3,1,,,,,,,8,10,7,10,,,,,,,,,,,580.6093,581.1093,581.3592,583.8927,space,2.5167,,583.8928,17,38,584.8927,584.8927,587.5763,space,2.6661,,0,7,7,7,1,40,165,,,,,,,,
,,5c52df0c445f1d000137c6b8,65af54fcac09f8926668b55c,2024-01-23_06h07.57.090,bars,2023.2.3,Win32,59.88023952,657b66ea316d21385b68909f,,,,,,,,,,,587.5833,588.576,,,589.0761,589.326,,171,171,,,,,,,,,,,,,,,,bars/018.png,bars/mask008.png,,,,,,,,,,,,2,1,,,,,,,6,10,6,10,,,,,,,,,,,588.576,589.076,589.3261,595.7931,space,6.4528,,595.7932,21,81,596.7931,596.7931,598.2599,space,1.4539,,0,8,8,8,1,150,90,,,,,,,,
,,5c52df0c445f1d000137c6b8,65af54fcac09f8926668b55c,2024-01-23_06h07.57.090,bars,2023.2.3,Win32,59.88023952,657b66ea316d21385b68909f,,,,,,,,,,,598.2604,599.2597,,,599.7598,600.0098,,91,91,,,,,,,,,,,,,,,,bars/019.png,bars/mask003.png,,,,,,,,,,,,4,2,,,,,,,8,8,8,8,,,,,,,,,,,599.2597,599.7598,600.0098,602.91,space,2.8842,,602.91,46,14,603.9099,603.91,605.2431,space,1.3194,,0,9,9,9,1,45,105,,,,,,,,
,,5c52df0c445f1d000137c6b8,65af54fcac09f8926668b55c,2024-01-23_06h07.57.090,bars,2023.2.3,Win32,59.88023952,657b66ea316d21385b68909f,,,,,,,,,,,605.2436,606.2432,,,606.7432,606.993,,174,174,,,,,,,,,,,,,,,,bars/024.png,bars/mask000.png,,,,,,,,,,,,9,2,,,,,,,6,10,4,10,,,,,,,,,,,606.2433,606.7432,606.993,612.1935,space,5.1842,,612.1936,54,4,613.1933,613.1934,614.3604,space,1.1527,,0,10,10,10,1,120,170,,,,,,,,
,,5c52df0c445f1d000137c6b8,65af54fcac09f8926668b55c,2024-01-23_06h07.57.090,bars,2023.2.3,Win32,59.88023952,657b66ea316d21385b68909f,,,,,,,,,,,614.3607,615.3601,,,615.8603,616.1099,,173,173,,,,,,,,,,,,,,,,bars/020.png,bars/mask005.png,,,,,,,,,,,,9,2,,,,,,,4,8,3,10,,,,,,,,,,,615.3601,615.8603,616.1099,623.5939,space,7.467,,623.5939,58,3,624.5938,624.5938,625.777,space,1.1622,,0,11,11,11,1,115,170,,,,,,,,
,,5c52df0c445f1d000137c6b8,65af54fcac09f8926668b55c,2024-01-23_06h07.57.090,bars,2023.2.3,Win32,59.88023952,657b66ea316d21385b68909f,,,,,,,,,,,625.7773,626.777,,,627.2771,627.5271,,53,53,,,,,,,,,,,,,,,,bars/007.png,bars/mask006.png,,,,,,,,,,,,5,2,,,,,,,6,6,6,5,,,,,,,,,,,626.777,627.2771,627.5271,630.8771,space,3.3336,,630.8771,58,2,631.8773,631.8775,636.4109,space,4.5125,,0,12,12,12,1,175,55,,,,,,,,
,,5c52df0c445f1d000137c6b8,65af54fcac09f8926668b55c,2024-01-23_06h07.57.090,bars,2023.2.3,Win32,59.88023952,657b66ea316d21385b68909f,,,,,,,,,,,636.4176,637.4108,,,637.9108,638.1607,,85,85,,,,,,,,,,,,,,,,bars/011.png,bars/mask006.png,,,,,,,,,,,,7,2,,,,,,,8,8,7,7,,,,,,,,,,,637.4108,637.9107,638.1608,642.4443,space,4.267,,642.4443,75,0,643.4443,643.4443,644.8276,space,1.3614,,0,13,13,13,1,160,85,,,,,,,,
,,5c52df0c445f1d000137c6b8,65af54fcac09f8926668b55c,2024-01-23_06h07.57.090,bars,2023.2.3,Win32,59.88023952,657b66ea316d21385b68909f,,,,,,,,,,,644.8278,645.8276,,,646.3277,646.5775,,88,88,,,,,,,,,,,,,,,,bars/011.png,bars/mask007.png,,,,,,,,,,,,9,2,,,,,,,6,10,6,10,,,,,,,,,,,645.8276,646.3277,646.5775,649.0278,space,2.4411,,649.0278,72,3,650.0276,650.0276,651.6111,space,1.5631,,0,14,14,14,1,160,85,,,,,,,,
,,5c52df0c445f1d000137c6b8,65af54fcac09f8926668b55c,2024-01-23_06h07.57.090,bars,2023.2.3,Win32,59.88023952,657b66ea316d21385b68909f,,,,,,,,,,,651.6115,652.6111,,,653.1111,653.3609,,67,67,,,,,,,,,,,,,,,,bars/029.png,bars/mask000.png,,,,,,,,,,,,3,2,,,,,,,4,10,5,10,,,,,,,,,,,652.6112,653.1111,653.3609,659.3115,space,5.9347,,659.3115,23,22,660.3112,660.3113,661.9281,space,1.5933,,0,15,15,15,1,90,45,,,,,,,,
,,5c52df0c445f1d000137c6b8,65af54fcac09f8926668b55c,2024-01-23_06h07.57.090,bars,2023.2.3,Win32,59.88023952,657b66ea316d21385b68909f,,,,,,,,,,,661.9285,662.9282,,,663.4281,663.6781,,78,-102,,,,,,,,,,,,,,,,bars/000.png,bars/mask003.png,,,,,,,,,,,,0,1,,,,,,,2,8,3,7,,,,,,,,,,,662.9282,663.4281,663.6781,670.7451,space,7.0541,,670.7451,38,67,671.745,671.745,674.1285,space,2.3674,,0,16,16,16,1,40,145,,,,,,,,
,,5c52df0c445f1d000137c6b8,65af54fcac09f8926668b55c,2024-01-23_06h07.57.090,bars,2023.2.3,Win32,59.88023952,657b66ea316d21385b68909f,,,,,,,,,,,674.1288,675.1284,,,675.6285,675.8784,,1,181,,,,,,,,,,,,,,,,bars/023.png,bars/mask009.png,,,,,,,,,,,,1,1,,,,,,,4,6,4,7,,,,,,,,,,,675.1285,675.6285,675.8784,683.2618,space,7.3766,,683.2619,19,66,684.262,684.2622,686.4457,space,2.1677,,0,17,17,17,1,20,115,,,,,,,,
,,5c52df0c445f1d000137c6b8,65af54fcac09f8926668b55c,2024-01-23_06h07.57.090,bars,2023.2.3,Win32,59.88023952,657b66ea316d21385b68909f,,,,,,,,,,,686.446,687.4454,,,687.9455,688.1955,,157,157,,,,,,,,,,,,,,,,bars/036.png,bars/mask006.png,,,,,,,,,,,,4,1,,,,,,,6,4,6,5,,,,,,,,,,,687.4455,687.9455,688.1955,691.1289,space,2.9174,,691.129,12,43,692.1289,692.1289,693.1623,space,1.0107,,0,18,18,18,1,145,20,,,,,,,,
,,5c52df0c445f1d000137c6b8,65af54fcac09f8926668b55c,2024-01-23_06h07.57.090,bars,2023.2.3,Win32,59.88023952,657b66ea316d21385b68909f,,,,,,,,,,,693.1628,694.1624,,,694.6626,694.9123,,45,45,,,,,,,,,,,,,,,,bars/048.png,bars/mask006.png,,,,,,,,,,,,3,1,,,,,,,4,2,3,3,,,,,,,,,,,694.1624,694.6625,694.9124,702.379,space,7.4609,,702.3791,5,50,703.3791,703.3791,704.396,space,1.0035,,0,19,19,19,1,50,175,,,,,,,,
,,5c52df0c445f1d000137c6b8,65af54fcac09f8926668b55c,2024-01-23_06h07.57.090,bars,2023.2.3,Win32,59.88023952,657b66ea316d21385b68909f,,,,,,,,,,,704.3962,705.3958,,,705.8961,706.1459,,91,91,,,,,,,,,,,,,,,,bars/021.png,bars/mask007.png,,,,,,,,,,,,0,2,,,,,,,2,0,1,0,,,,,,,,,,,705.3959,705.896,706.1459,712.4961,space,6.3456,,712.4961,64,21,713.496,713.496,714.7461,space,1.2277,,0,20,20,20,1,155,70,,,,,,,,
,,5c52df0c445f1d000137c6b8,65af54fcac09f8926668b55c,2024-01-23_06h07.57.090,bars,2023.2.3,Win32,59.88023952,657b66ea316d21385b68909f,,,,,,,,,,,714.7464,715.7461,,,716.2461,716.496,,78,78,,,,,,,,,,,,,,,,bars/002.png,bars/mask009.png,,,,,,,,,,,,0,2,,,,,,,4,0,5,0,,,,,,,,,,,715.7461,716.2461,716.496,725.1964,space,8.6925,,725.1965,52,7,726.1966,726.1966,727.9133,space,1.6985,,0,21,21,21,1,130,85,,,,,,,,
,,5c52df0c445f1d000137c6b8,65af54fcac09f8926668b55c,2024-01-23_06h07.57.090,bars,2023.2.3,Win32,59.88023952,657b66ea316d21385b68909f,,,,,,,,,,,727.9137,728.9132,,,729.4133,729.6633,,85,85,,,,,,,,,,,,,,,,bars/008.png,bars/mask005.png,,,,,,,,,,,,1,1,,,,,,,6,0,5,0,,,,,,,,,,,728.9132,729.4132,729.6633,734.5634,space,4.8941,,734.5636,25,85,735.5633,735.5634,736.3135,space,0.727,,0,22,22,22,1,110,0,,,,,,,,
,,5c52df0c445f1d000137c6b8,65af54fcac09f8926668b55c,2024-01-23_06h07.57.090,bars,2023.2.3,Win32,59.88023952,657b66ea316d21385b68909f,,,,,,,,,,,736.3139,737.3132,,,737.8135,738.0634,,146,146,,,,,,,,,,,,,,,,bars/049.png,bars/mask000.png,,,,,,,,,,,,4,1,,,,,,,8,0,8,0,,,,,,,,,,,737.3132,737.8135,738.0635,740.6803,space,2.6,,740.6804,14,31,741.6802,741.6802,742.597,space,0.9053,,0,23,23,23,1,160,115,,,,,,,,
,,5c52df0c445f1d000137c6b8,65af54fcac09f8926668b55c,2024-01-23_06h07.57.090,bars,2023.2.3,Win32,59.88023952,657b66ea316d21385b68909f,,,,,,,,,,,742.5973,743.5969,,,744.097,744.3469,,31,31,,,,,,,,,,,,,,,,bars/048.png,bars/mask004.png,,,,,,,,,,,,4,1,,,,,,,10,0,10,2,,,,,,,,,,,743.597,744.0969,744.347,748.3137,space,3.9551,,748.3137,19,36,749.3136,749.3136,750.2304,space,0.9056,,0,24,24,24,1,50,175,,,,,,,,
,,5c52df0c445f1d000137c6b8,65af54fcac09f8926668b55c,2024-01-23_06h07.57.090,bars,2023.2.3,Win32,59.88023952,657b66ea316d21385b68909f,,,,,,,,,,,750.2306,751.2305,,,751.7304,751.9805,,24,24,,,,,,,,,,,,,,,,bars/016.png,bars/mask007.png,,,,,,,,,,,,5,1,,,,,,,10,2,10,3,,,,,,,,,,,751.2305,751.7303,751.9805,754.664,space,2.6666,,754.6641,16,39,755.6638,755.6638,756.7306,space,1.0535,,0,25,25,25,1,40,165,,,,,,,,
,,5c52df0c445f1d000137c6b8,65af54fcac09f8926668b55c,2024-01-23_06h07.57.090,bars,2023.2.3,Win32,59.88023952,657b66ea316d21385b68909f,,,,,,,,,,,756.7308,757.7307,,,758.2306,758.4807,,87,87,,,,,,,,,,,,,,,,bars/025.png,bars/mask005.png,,,,,,,,,,,,3,1,,,,,,,8,4,7,3,,,,,,,,,,,757.7307,758.2306,758.4807,760.8975,space,2.3999,,760.8976,18,47,761.8973,761.8973,762.7975,space,0.8869,,0,26,26,26,1,105,40,,,,,,,,
,,5c52df0c445f1d000137c6b8,65af54fcac09f8926668b55c,2024-01-23_06h07.57.090,bars,2023.2.3,Win32,59.88023952,657b66ea316d21385b68909f,,,,,,,,,,,762.7977,763.7972,,,764.2975,764.5475,,144,144,,,,,,,,,,,,,,,,bars/049.png,bars/mask004.png,,,,,,,,,,,,3,1,,,,,,,6,2,7,2,,,,,,,,,,,763.7972,764.2974,764.5475,769.4143,space,4.8577,,769.4144,16,29,770.4142,770.4143,771.8979,space,1.4685,,0,27,27,27,1,160,115,,,,,,,,
,,5c52df0c445f1d000137c6b8,65af54fcac09f8926668b55c,2024-01-23_06h07.57.090,bars,2023.2.3,Win32,59.88023952,657b66ea316d21385b68909f,,,,,,,,,,,771.8981,772.8977,,,773.3978,773.6476,,151,151,,,,,,,,,,,,,,,,bars/038.png,bars/mask005.png,,,,,,,,,,,,2,1,,,,,,,4,0,3,1,,,,,,,,,,,772.8977,773.3978,773.6476,780.7813,space,7.1265,,780.7813,14,81,781.7813,781.7813,782.6313,space,0.8311,,0,28,28,28,1,165,70,,,,,,,,
,,5c52df0c445f1d000137c6b8,65af54fcac09f8926668b55c,2024-01-23_06h07.57.090,bars,2023.2.3,Win32,59.88023952,657b66ea316d21385b68909f,,,,,,,,,,,782.6315,783.6313,,,784.1314,784.3813,,134,-46,,,,,,,,,,,,,,,,bars/020.png,bars/mask008.png,,,,,,,,,,,,2,1,,,,,,,6,2,6,1,,,,,,,,,,,783.6313,784.1314,784.3814,788.5148,space,4.1273,,788.5149,19,36,789.5148,789.5148,790.5483,space,1.0148,,0,29,29,29,1,115,170,,,,,,,,
,,5c52df0c445f1d000137c6b8,65af54fcac09f8926668b55c,2024-01-23_06h07.57.090,bars,2023.2.3,Win32,59.88023952,657b66ea316d21385b68909f,,,,,,,,,,,790.5486,791.5482,,,792.0483,792.2982,,46,46,,,,,,,,,,,,,,,,bars/003.png,bars/mask006.png,,,,,,,,,,,,1,1,,,,,,,4,0,2,1,,,,,,,,,,,791.5482,792.0482,792.2982,803.4651,space,11.1607,,803.4652,21,86,804.4651,804.4651,808.7988,space,4.3194,,0,30,30,30,1,25,140,,,,,,,,
,,5c52df0c445f1d000137c6b8,65af54fcac09f8926668b55c,2024-01-23_06h07.57.090,bars,2023.2.3,Win32,59.88023952,657b66ea316d21385b68909f,,,,,,,,,,,808.8061,809.7987,,,810.2985,810.5484,,100,-80,,,,,,,,,,,,,,,,bars/019.png,bars/mask005.png,,,,,,,,,,,,3,2,,,,,,,2,2,1,3,,,,,,,,,,,809.7988,810.2985,810.5484,817.499,space,6.9346,,817.499,55,5,818.4989,818.4989,819.3491,space,0.8247,,0,31,31,31,1,45,105,,,,,,,,
,,5c52df0c445f1d000137c6b8,65af54fcac09f8926668b55c,2024-01-23_06h07.57.090,bars,2023.2.3,Win32,59.88023952,657b66ea316d21385b68909f,,,,,,,,,,,819.3495,820.3489,,,820.849,821.099,,9,189,,,,,,,,,,,,,,,,bars/032.png,bars/mask004.png,,,,,,,,,,,,3,2,,,,,,,4,4,3,4,,,,,,,,,,,820.3489,820.849,821.099,826.5327,space,5.4266,,826.5328,64,11,827.5325,827.5326,828.4658,space,0.9101,,0,32,32,32,1,125,20,,,,,,,,
,,5c52df0c445f1d000137c6b8,65af54fcac09f8926668b55c,2024-01-23_06h07.57.090,bars,2023.2.3,Win32,59.88023952,657b66ea316d21385b68909f,,,,,,,,,,,828.4661,829.4659,,,829.9659,830.2158,,5,185,,,,,,,,,,,,,,,,bars/024.png,bars/mask005.png,,,,,,,,,,,,2,2,,,,,,,6,6,4,4,,,,,,,,,,,829.4659,829.9658,830.2159,833.9828,space,3.753,,833.9828,65,15,834.9827,834.9827,835.9161,space,0.9225,,0,33,33,33,1,120,170,,,,,,,,
,,5c52df0c445f1d000137c6b8,65af54fcac09f8926668b55c,2024-01-23_06h07.57.090,bars,2023.2.3,Win32,59.88023952,657b66ea316d21385b68909f,,,,,,,,,,,835.9165,836.916,,,837.4159,837.6661,,168,168,,,,,,,,,,,,,,,,bars/020.png,bars/mask006.png,,,,,,,,,,,,7,2,,,,,,,4,8,4,8,,,,,,,,,,,836.9161,837.4159,837.6661,843.8163,space,6.1428,,843.8164,53,2,844.8163,844.8164,848.5664,space,3.7359,,0,34,34,34,1,115,170,,,,,,,,
,,5c52df0c445f1d000137c6b8,65af54fcac09f8926668b55c,2024-01-23_06h07.57.090,bars,2023.2.3,Win32,59.88023952,657b66ea316d21385b68909f,,,,,,,,,,,848.5736,849.5664,,,850.0665,850.3163,,11,191,,,,,,,,,,,,,,,,bars/013.png,bars/mask004.png,,,,,,,,,,,,9,2,,,,,,,2,10,1,9,,,,,,,,,,,849.5664,850.0665,850.3163,853.7832,space,3.4529,,853.7832,64,1,854.7832,854.7832,855.5,space,0.7059,,0,35,35,35,1,75,10,,,,,,,,
,,5c52df0c445f1d000137c6b8,65af54fcac09f8926668b55c,2024-01-23_06h07.57.090,bars,2023.2.3,Win32,59.88023952,657b66ea316d21385b68909f,,,,,,,,,,,855.5003,856.4999,,,857,857.2499,,7,7,,,,,,,,,,,,,,,,bars/033.png,bars/mask000.png,,,,,,,,,,,,1,1,,,,,,,4,8,3,8,,,,,,,,,,,856.4999,857,857.2499,860.9503,space,3.6837,,860.9503,18,32,861.95,861.9501,864.9503,space,2.9805,,0,36,36,36,1,25,155,,,,,,,,
,,5c52df0c445f1d000137c6b8,65af54fcac09f8926668b55c,2024-01-23_06h07.57.090,bars,2023.2.3,Win32,59.88023952,657b66ea316d21385b68909f,,,,,,,,,,,864.9573,865.95,,,866.45,866.7001,,96,-84,,,,,,,,,,,,,,,,bars/034.png,bars/mask009.png,,,,,,,,,,,,0,1,,,,,,,2,6,2,5,,,,,,,,,,,865.95,866.45,866.7001,872.0337,space,5.3173,,872.0338,29,31,873.0336,873.0336,873.8671,space,0.8162,,0,37,37,37,1,125,65,,,,,,,,
,,5c52df0c445f1d000137c6b8,65af54fcac09f8926668b55c,2024-01-23_06h07.57.090,bars,2023.2.3,Win32,59.88023952,657b66ea316d21385b68909f,,,,,,,,,,,873.8674,874.8671,,,875.3672,875.6171,,90,90,,,,,,,,,,,,,,,,bars/018.png,bars/mask002.png,,,,,,,,,,,,10,2,,,,,,,4,8,4,10,,,,,,,,,,,874.8671,875.3671,875.6172,879.7173,space,4.0931,,879.7174,60,0,880.7173,880.7173,881.8339,space,1.101,,0,38,38,38,1,150,90,,,,,,,,
,,5c52df0c445f1d000137c6b8,65af54fcac09f8926668b55c,2024-01-23_06h07.57.090,bars,2023.2.3,Win32,59.88023952,657b66ea316d21385b68909f,,,,,,,,,,,881.8341,882.8339,,,883.334,883.5839,,4,184,,,,,,,,,,,,,,,,bars/015.png,bars/mask002.png,,,,,,,,,,,,1,2,,,,,,,2,6,2,5,,,,,,,,,,,882.8339,883.3339,883.584,886.6677,space,3.0679,,886.6678,74,24,887.6676,887.6676,888.4839,space,0.7944,,0,39,39,39,1,110,160,,,,,,,,
,,5c52df0c445f1d000137c6b8,65af54fcac09f8926668b55c,2024-01-23_06h07.57.090,bars,2023.2.3,Win32,59.88023952,657b66ea316d21385b68909f,,,,,,,,,,,888.4843,889.4841,,,889.984,890.2341,,89,89,,,,,,,,,,,,,,,,bars/046.png,bars/mask001.png,,,,,,,,,,,,6,2,,,,,,,4,8,2,7,,,,,,,,,,,889.4841,889.984,890.2341,893.0677,space,2.8276,,893.0678,66,4,894.0675,894.0675,894.9178,space,0.8285,,0,40,40,40,1,155,85,,,,,,,,
,,5c52df0c445f1d000137c6b8,65af54fcac09f8926668b55c,2024-01-23_06h07.57.090,bars,2023.2.3,Win32,59.88023952,657b66ea316d21385b68909f,,,,,,,,,,,894.9182,895.9176,,,896.4174,896.6673,,88,88,,,,,,,,,,,,,,,,bars/041.png,bars/mask004.png,,,,,,,,,,,,9,2,,,,,,,6,10,5,10,,,,,,,,,,,895.9177,896.4174,896.6674,900.0846,space,3.4001,,900.0847,68,3,901.0842,901.0843,901.7843,space,0.6779,,0,41,41,41,1,20,85,,,,,,,,
,,5c52df0c445f1d000137c6b8,65af54fcac09f8926668b55c,2024-01-23_06h07.57.090,bars,2023.2.3,Win32,59.88023952,657b66ea316d21385b68909f,,,,,,,,,,,901.7847,902.7845,,,903.2845,903.5344,,12,12,,,,,,,,,,,,,,,,bars/022.png,bars/mask004.png,,,,,,,,,,,,7,2,,,,,,,8,8,8,10,,,,,,,,,,,902.7846,903.2844,903.5345,908.8515,space,5.3003,,908.8515,83,8,909.8512,909.8512,910.4347,space,0.5665,,0,42,42,42,1,95,20,,,,,,,,
,,5c52df0c445f1d000137c6b8,65af54fcac09f8926668b55c,2024-01-23_06h07.57.090,bars,2023.2.3,Win32,59.88023952,657b66ea316d21385b68909f,,,,,,,,,,,910.4351,911.4346,,,911.9346,912.1847,,84,84,,,,,,,,,,,,,,,,bars/042.png,bars/mask002.png,,,,,,,,,,,,4,2,,,,,,,10,6,10,6,,,,,,,,,,,911.4347,911.9346,912.1848,916.168,space,3.9723,,916.1681,61,9,917.1679,917.168,917.8184,space,0.6266,,0,43,43,43,1,145,75,,,,,,,,
,,5c52df0c445f1d000137c6b8,65af54fcac09f8926668b55c,2024-01-23_06h07.57.090,bars,2023.2.3,Win32,59.88023952,657b66ea316d21385b68909f,,,,,,,,,,,917.8188,918.818,,,919.3182,919.5683,,160,160,,,,,,,,,,,,,,,,bars/015.png,bars/mask007.png,,,,,,,,,,,,5,2,,,,,,,8,4,10,5,,,,,,,,,,,918.8181,919.3182,919.5684,925.552,space,5.9753,,925.552,50,0,926.5516,926.5517,928.0353,space,1.4615,,0,44,44,44,1,110,160,,,,,,,,
,,5c52df0c445f1d000137c6b8,65af54fcac09f8926668b55c,2024-01-23_06h07.57.090,bars,2023.2.3,Win32,59.88023952,657b66ea316d21385b68909f,,,,,,,,,,,928.0357,929.0352,,,929.5353,929.7851,,157,157,,,,,,,,,,,,,,,,bars/044.png,bars/mask007.png,,,,,,,,,,,,2,2,,,,,,,6,2,7,2,,,,,,,,,,,929.0353,929.5353,929.7851,934.2187,space,4.4158,,934.2187,82,2,935.2186,935.2186,936.0188,space,0.7821,,0,45,45,45,1,75,155,,,,,,,,
,,5c52df0c445f1d000137c6b8,65af54fcac09f8926668b55c,2024-01-23_06h07.57.090,bars,2023.2.3,Win32,59.88023952,657b66ea316d21385b68909f,,,,,,,,,,,936.0192,937.0188,,,937.5188,937.7687,,154,154,,,,,,,,,,,,,,,,bars/037.png,bars/mask007.png,,,,,,,,,,,,4,1,,,,,,,4,0,5,0,,,,,,,,,,,937.0188,937.5187,937.7687,942.2687,space,4.4827,,942.2687,4,49,943.2688,943.2688,943.9524,space,0.6627,,0,46,46,46,1,150,105,,,,,,,,
,,5c52df0c445f1d000137c6b8,65af54fcac09f8926668b55c,2024-01-23_06h07.57.090,bars,2023.2.3,Win32,59.88023952,657b66ea316d21385b68909f,,,,,,,,,,,943.9529,944.9523,,,945.4523,945.7023,,66,66,,,,,,,,,,,,,,,,bars/044.png,bars/mask005.png,,,,,,,,,,,,1,1,,,,,,,2,2,2,2,,,,,,,,,,,944.9524,945.4523,945.7024,948.0688,space,2.3574,,948.0688,9,89,949.0688,949.0688,949.9858,space,0.9036,,0,47,47,47,1,75,155,,,,,,,,
,,5c52df0c445f1d000137c6b8,65af54fcac09f8926668b55c,2024-01-23_06h07.57.090,bars,2023.2.3,Win32,59.88023952,657b66ea316d21385b68909f,,,,,,,,,,,949.9861,950.9856,,,951.4859,951.7355,,150,150,,,,,,,,,,,,,,,,bars/017.png,bars/mask004.png,,,,,,,,,,,,1,1,,,,,,,0,4,1,5,,,,,,,,,,,950.9856,951.4859,951.7355,953.6524,space,1.8995,,953.6524,5,75,954.6525,954.6525,955.3192,space,0.6499,,0,48,48,48,1,145,45,,,,,,,,
,,5c52df0c445f1d000137c6b8,65af54fcac09f8926668b55c,2024-01-23_06h07.57.090,bars,2023.2.3,Win32,59.88023952,657b66ea316d21385b68909f,,,,,,,,,,,955.3194,956.3192,,,956.8194,957.0692,,85,85,,,,,,,,,,,,,,,,bars/029.png,bars/mask004.png,,,,,,,,,,,,3,1,,,,,,,2,2,3,2,,,,,,,,,,,956.3192,956.8193,957.0693,961.3027,space,4.2238,,961.3027,5,40,962.3025,962.3025,963.3193,space,1.0047,,0,49,49,49,1,90,45,,,,,,,,
,,5c52df0c445f1d000137c6b8,65af54fcac09f8926668b55c,2024-01-23_06h07.57.090,bars,2023.2.3,Win32,59.88023952,657b66ea316d21385b68909f,,,,,,,,,,,,,,,,,,,,,,,,,,,,,,,,,,,,,,,,,,,,,,,,,,,,,,,,,,,,,,,,,,,,,,,,,,,,,,,,,,,,,,,,,,,,,963.3199,1023.3216,0,0,0,2,1,sequence_tables/blk028.csv
,,5c52df0c445f1d000137c6b8,65af54fcac09f8926668b55c,2024-01-23_06h07.57.090,bars,2023.2.3,Win32,59.88023952,657b66ea316d21385b68909f,,,,,,,,,,,1064.5837,1065.5722,,,1066.0721,1066.3222,,179,-1,,,,,,,,,,,,,,,,bars/008.png,bars/mask004.png,,,,,,,,,,,,9,2,,,,,,,2,8,2,9,,,,,,1023.3291,1064.5723,space,41.231,,1065.5722,1066.0721,1066.3223,1068.3724,space,2.0342,,1068.3724,69,1,1069.3723,1069.3723,1069.3803,,,,0,0,0,0,1,110,0,,,,,,,,
,,5c52df0c445f1d000137c6b8,65af54fcac09f8926668b55c,2024-01-23_06h07.57.090,bars,2023.2.3,Win32,59.88023952,657b66ea316d21385b68909f,,,,,,,,,,,1069.3804,1070.3721,,,1070.8724,1071.1224,,36,36,,,,,,,,,,,,,,,,bars/031.png,bars/mask006.png,,,,,,,,,,,,10,2,,,,,,,4,10,5,10,,,,,,,,,,,1070.3722,1070.8724,1071.1224,1074.0058,space,2.8671,,1074.0059,84,1,1075.0058,1075.0059,1075.013,,,,0,1,1,1,1,120,35,,,,,,,,
,,5c52df0c445f1d000137c6b8,65af54fcac09f8926668b55c,2024-01-23_06h07.57.090,bars,2023.2.3,Win32,59.88023952,657b66ea316d21385b68909f,,,,,,,,,,,1075.0131,1076.0057,,,1076.5057,1076.7558,,88,88,,,,,,,,,,,,,,,,bars/011.png,bars/mask003.png,,,,,,,,,,,,6,2,,,,,,,6,8,7,7,,,,,,,,,,,1076.0057,1076.5057,1076.7559,1078.0225,space,1.2529,,1078.0225,72,3,1079.0225,1079.0226,1079.0299,,,,0,2,2,2,1,160,85,,,,,,,,
,,5c52df0c445f1d000137c6b8,65af54fcac09f8926668b55c,2024-01-23_06h07.57.090,bars,2023.2.3,Win32,59.88023952,657b66ea316d21385b68909f,,,,,,,,,,,1079.03,1080.0225,,,1080.5225,1080.7724,,106,106,,,,,,,,,,,,,,,,bars/006.png,bars/mask001.png,,,,,,,,,,,,7,2,,,,,,,8,10,7,9,,,,,,,,,,,1080.0226,1080.5225,1080.7724,1083.0893,space,2.3086,,1083.0894,71,6,1084.0893,1084.0893,1084.0964,,,,0,3,3,3,1,35,100,,,,,,,,
,,5c52df0c445f1d000137c6b8,65af54fcac09f8926668b55c,2024-01-23_06h07.57.090,bars,2023.2.3,Win32,59.88023952,657b66ea316d21385b68909f,,,,,,,,,,,1084.0965,1085.0894,,,1085.5895,1085.8393,,123,123,,,,,,,,,,,,,,,,bars/043.png,bars/mask005.png,,,,,,,,,,,,5,2,,,,,,,10,8,10,7,,,,,,,,,,,1085.0894,1085.5895,1085.8393,1091.0227,space,5.1714,,1091.0228,87,7,1092.0229,1092.0229,1092.0301,,,,0,4,4,4,1,30,130,,,,,,,,
,,5c52df0c445f1d000137c6b8,65af54fcac09f8926668b55c,2024-01-23_06h07.57.090,bars,2023.2.3,Win32,59.88023952,657b66ea316d21385b68909f,,,,,,,,,,,1092.0302,1093.0228,,,1093.5228,1093.7727,,87,87,,,,,,,,,,,,,,,,bars/019.png,bars/mask006.png,,,,,,,,,,,,2,2,,,,,,,8,6,9,5,,,,,,,,,,,1093.0228,1093.5228,1093.7727,1097.1398,space,3.3499,,1097.1399,42,18,1098.1398,1098.1399,1098.147,,,,0,5,5,5,1,45,105,,,,,,,,
,,5c52df0c445f1d000137c6b8,65af54fcac09f8926668b55c,2024-01-23_06h07.57.090,bars,2023.2.3,Win32,59.88023952,657b66ea316d21385b68909f,,,,,,,,,,,1098.1472,1099.1398,,,1099.6398,1099.8898,,40,40,,,,,,,,,,,,,,,,bars/007.png,bars/mask009.png,,,,,,,,,,,,3,2,,,,,,,6,4,5,5,,,,,,,,,,,1099.1399,1099.6398,1099.8898,1105.4067,space,5.5075,,1105.4067,45,15,1106.4065,1106.4066,1106.4138,,,,0,6,6,6,1,175,55,,,,,,,,
,,5c52df0c445f1d000137c6b8,65af54fcac09f8926668b55c,2024-01-23_06h07.57.090,bars,2023.2.3,Win32,59.88023952,657b66ea316d21385b68909f,,,,,,,,,,,1106.414,1107.4066,,,1107.9065,1108.1567,,146,-34,,,,,,,,,,,,,,,,bars/006.png,bars/mask006.png,,,,,,,,,,,,0,2,,,,,,,8,2,7,1,,,,,,,,,,,1107.4066,1107.9065,1108.1567,1112.6235,space,4.458,,1112.6235,69,46,1113.6235,1113.6235,1113.6308,,,,0,7,7,7,1,35,100,,,,,,,,
,,5c52df0c445f1d000137c6b8,65af54fcac09f8926668b55c,2024-01-23_06h07.57.090,bars,2023.2.3,Win32,59.88023952,657b66ea316d21385b68909f,,,,,,,,,,,1113.6309,1114.6235,,,1115.1233,1115.3735,,32,32,,,,,,,,,,,,,,,,bars/007.png,bars/mask007.png,,,,,,,,,,,,0,2,,,,,,,6,0,6,0,,,,,,,,,,,1114.6235,1115.1233,1115.3735,1119.0735,space,3.6892,,1119.0736,37,23,1120.0736,1120.0736,1120.0809,,,,0,8,8,8,1,175,55,,,,,,,,
,,5c52df0c445f1d000137c6b8,65af54fcac09f8926668b55c,2024-01-23_06h07.57.090,bars,2023.2.3,Win32,59.88023952,657b66ea316d21385b68909f,,,,,,,,,,,1120.081,1121.0737,,,1121.5737,1121.8237,,17,17,,,,,,,,,,,,,,,,bars/047.png,bars/mask000.png,,,,,,,,,,,,4,1,,,,,,,4,2,4,0,,,,,,,,,,,1121.0737,1121.5737,1121.8238,1123.8236,space,1.9876,,1123.8236,2,53,1124.8236,1124.8236,1124.8318,,,,0,9,9,9,1,15,70,,,,,,,,
,,5c52df0c445f1d000137c6b8,65af54fcac09f8926668b55c,2024-01-23_06h07.57.090,bars,2023.2.3,Win32,59.88023952,657b66ea316d21385b68909f,,,,,,,,,,,1124.8319,1125.8236,,,1126.3237,1126.5736,,126,126,,,,,,,,,,,,,,,,bars/032.png,bars/mask009.png,,,,,,,,,,,,3,1,,,,,,,2,4,3,4,,,,,,,,,,,1125.8236,1126.3237,1126.5737,1131.0574,space,4.467,,1131.0575,1,74,1132.0572,1132.0572,1132.0645,,,,0,10,10,10,1,125,20,,,,,,,,
,,5c52df0c445f1d000137c6b8,65af54fcac09f8926668b55c,2024-01-23_06h07.57.090,bars,2023.2.3,Win32,59.88023952,657b66ea316d21385b68909f,,,,,,,,,,,1132.0646,1133.0573,,,1133.5573,1133.8072,,158,158,,,,,,,,,,,,,,,,bars/036.png,bars/mask005.png,,,,,,,,,,,,3,1,,,,,,,4,6,5,6,,,,,,,,,,,1133.0573,1133.5572,1133.8072,1136.0572,space,2.235,,1136.0573,13,42,1137.0573,1137.0574,1137.0647,,,,0,11,11,11,1,145,20,,,,,,,,
,,5c52df0c445f1d000137c6b8,65af54fcac09f8926668b55c,2024-01-23_06h07.57.090,bars,2023.2.3,Win32,59.88023952,657b66ea316d21385b68909f,,,,,,,,,,,1137.0648,1138.0572,,,1138.5574,1138.8074,,96,96,,,,,,,,,,,,,,,,bars/045.png,bars/mask006.png,,,,,,,,,,,,3,1,,,,,,,2,4,3,3,,,,,,,,,,,1138.0572,1138.5573,1138.8074,1140.1246,space,1.3122,,1140.1246,4,86,1141.1241,1141.1241,1141.1312,,,,0,12,12,12,1,100,10,,,,,,,,
,,5c52df0c445f1d000137c6b8,65af54fcac09f8926668b55c,2024-01-23_06h07.57.090,bars,2023.2.3,Win32,59.88023952,657b66ea316d21385b68909f,,,,,,,,,,,1141.1313,1142.1239,,,1142.6241,1142.8741,,55,55,,,,,,,,,,,,,,,,bars/048.png,bars/mask004.png,,,,,,,,,,,,2,1,,,,,,,4,6,2,5,,,,,,,,,,,1142.1239,1142.6241,1142.8741,1146.5577,space,3.6669,,1146.5577,5,60,1147.5574,1147.5575,1147.5646,,,,0,13,13,13,1,50,175,,,,,,,,
,,5c52df0c445f1d000137c6b8,65af54fcac09f8926668b55c,2024-01-23_06h07.57.090,bars,2023.2.3,Win32,59.88023952,657b66ea316d21385b68909f,,,,,,,,,,,1147.5646,1148.5578,,,1149.0575,1149.3077,,159,-21,,,,,,,,,,,,,,,,bars/039.png,bars/mask001.png,,,,,,,,,,,,1,1,,,,,,,2,8,2,10,,,,,,,,,,,1148.5578,1149.0574,1149.3077,1154.3078,space,4.984,,1154.3078,16,54,1155.3079,1155.3079,1155.315,,,,0,14,14,14,1,175,105,,,,,,,,
,,5c52df0c445f1d000137c6b8,65af54fcac09f8926668b55c,2024-01-23_06h07.57.090,bars,2023.2.3,Win32,59.88023952,657b66ea316d21385b68909f,,,,,,,,,,,1155.3152,1156.3078,,,1156.8077,1157.058,,87,87,,,,,,,,,,,,,,,,bars/013.png,bars/mask004.png,,,,,,,,,,,,0,1,,,,,,,0,6,0,5,,,,,,,,,,,1156.3078,1156.8077,1157.058,1160.0247,space,2.9546,,1160.0247,12,77,1161.0246,1161.0246,1161.0318,,,,0,15,15,15,1,75,10,,,,,,,,
,,5c52df0c445f1d000137c6b8,65af54fcac09f8926668b55c,2024-01-23_06h07.57.090,bars,2023.2.3,Win32,59.88023952,657b66ea316d21385b68909f,,,,,,,,,,,1161.0318,1162.0246,,,1162.5247,1162.7747,,17,197,,,,,,,,,,,,,,,,bars/033.png,bars/mask007.png,,,,,,,,,,,,1,1,,,,,,,2,4,1,3,,,,,,,,,,,1162.0247,1162.5247,1162.7748,1170.0083,space,7.2277,,1170.0084,8,42,1171.0083,1171.0083,1171.0158,,,,0,16,16,16,1,25,155,,,,,,,,
,,5c52df0c445f1d000137c6b8,65af54fcac09f8926668b55c,2024-01-23_06h07.57.090,bars,2023.2.3,Win32,59.88023952,657b66ea316d21385b68909f,,,,,,,,,,,1171.016,1172.0084,,,1172.5084,1172.7582,,128,128,,,,,,,,,,,,,,,,bars/002.png,bars/mask007.png,,,,,,,,,,,,3,1,,,,,,,4,6,3,5,,,,,,,,,,,1172.0084,1172.5084,1172.7582,1174.692,space,1.9177,,1174.692,2,43,1175.6917,1175.6918,1175.6988,,,,0,17,17,17,1,130,85,,,,,,,,
,,5c52df0c445f1d000137c6b8,65af54fcac09f8926668b55c,2024-01-23_06h07.57.090,bars,2023.2.3,Win32,59.88023952,657b66ea316d21385b68909f,,,,,,,,,,,1175.6989,1176.6918,,,1177.1917,1177.4419,,119,119,,,,,,,,,,,,,,,,bars/008.png,bars/mask009.png,,,,,,,,,,,,1,1,,,,,,,2,4,2,3,,,,,,,,,,,1176.6918,1177.1916,1177.442,1178.8586,space,1.3992,,1178.8586,9,61,1179.8585,1179.8585,1179.8595,,,,0,18,18,18,1,110,0,,,,,,,,
,,5c52df0c445f1d000137c6b8,65af54fcac09f8926668b55c,2024-01-23_06h07.57.090,bars,2023.2.3,Win32,59.88023952,657b66ea316d21385b68909f,,,,,,,,,,,1179.8598,1180.8585,,,1181.3585,1181.6085,,165,-15,,,,,,,,,,,,,,,,bars/011.png,bars/mask006.png,,,,,,,,,,,,0,1,,,,,,,0,2,0,1,,,,,,,,,,,1180.8585,1181.3585,1181.6086,1184.9755,space,3.3502,,1184.9756,5,80,1185.9751,1185.9751,1185.9826,,,,0,19,19,19,1,160,85,,,,,,,,
,,5c52df0c445f1d000137c6b8,65af54fcac09f8926668b55c,2024-01-23_06h07.57.090,bars,2023.2.3,Win32,59.88023952,657b66ea316d21385b68909f,,,,,,,,,,,1185.9828,1186.9753,,,1187.4754,1187.7254,,42,222,,,,,,,,,,,,,,,,bars/027.png,bars/mask002.png,,,,,,,,,,,,0,2,,,,,,,2,0,1,0,,,,,,,,,,,1186.9754,1187.4754,1187.7254,1194.359,space,6.6189,,1194.3591,68,8,1195.3587,1195.3587,1195.3678,,,,0,20,20,20,1,110,50,,,,,,,,
,,5c52df0c445f1d000137c6b8,65af54fcac09f8926668b55c,2024-01-23_06h07.57.090,bars,2023.2.3,Win32,59.88023952,657b66ea316d21385b68909f,,,,,,,,,,,1195.368,1196.3591,,,1196.859,1197.1089,,100,100,,,,,,,,,,,,,,,,bars/042.png,bars/mask009.png,,,,,,,,,,,,0,2,,,,,,,0,2,0,3,,,,,,,,,,,1196.3591,1196.859,1197.1089,1202.7257,space,5.6082,,1202.7258,45,25,1203.7257,1203.7257,1203.7335,,,,0,21,21,21,1,145,75,,,,,,,,
,,5c52df0c445f1d000137c6b8,65af54fcac09f8926668b55c,2024-01-23_06h07.57.090,bars,2023.2.3,Win32,59.88023952,657b66ea316d21385b68909f,,,,,,,,,,,1203.7337,1204.7257,,,1205.2259,1205.4759,,90,90,,,,,,,,,,,,,,,,bars/001.png,bars/mask002.png,,,,,,,,,,,,2,2,,,,,,,0,0,0,2,,,,,,,,,,,1204.7257,1205.2259,1205.476,1210.5928,space,5.1055,,1210.5928,40,5,1211.5927,1211.5927,1211.5999,,,,0,22,22,22,1,130,85,,,,,,,,
,,5c52df0c445f1d000137c6b8,65af54fcac09f8926668b55c,2024-01-23_06h07.57.090,bars,2023.2.3,Win32,59.88023952,657b66ea316d21385b68909f,,,,,,,,,,,1211.6,1212.5927,,,1213.0925,1213.3425,,6,186,,,,,,,,,,,,,,,,bars/014.png,bars/mask001.png,,,,,,,,,,,,1,2,,,,,,,0,0,2,1,,,,,,,,,,,1212.5927,1213.0925,1213.3426,1219.943,space,6.5837,,1219.9431,74,6,1220.9427,1220.9428,1220.9506,,,,0,23,23,23,1,80,0,,,,,,,,
,,5c52df0c445f1d000137c6b8,65af54fcac09f8926668b55c,2024-01-23_06h07.57.090,bars,2023.2.3,Win32,59.88023952,657b66ea316d21385b68909f,,,,,,,,,,,1220.9508,1221.943,,,1222.443,1222.693,,22,202,,,,,,,,,,,,,,,,bars/025.png,bars/mask002.png,,,,,,,,,,,,1,2,,,,,,,0,0,0,2,,,,,,,,,,,1221.9431,1222.443,1222.693,1226.0431,space,3.3337,,1226.0432,83,18,1227.0431,1227.0431,1227.0502,,,,0,24,24,24,1,105,40,,,,,,,,
,,5c52df0c445f1d000137c6b8,65af54fcac09f8926668b55c,2024-01-23_06h07.57.090,bars,2023.2.3,Win32,59.88023952,657b66ea316d21385b68909f,,,,,,,,,,,1227.0503,1228.0432,,,1228.5432,1228.793,,179,-1,,,,,,,,,,,,,,,,bars/014.png,bars/mask002.png,,,,,,,,,,,,0,2,,,,,,,0,0,0,0,,,,,,,,,,,1228.0432,1228.5431,1228.793,1232.1101,space,3.2999,,1232.1101,81,1,1233.1099,1233.11,1233.1171,,,,0,25,25,25,1,80,0,,,,,,,,
,,5c52df0c445f1d000137c6b8,65af54fcac09f8926668b55c,2024-01-23_06h07.57.090,bars,2023.2.3,Win32,59.88023952,657b66ea316d21385b68909f,,,,,,,,,,,1233.1172,1234.1097,,,1234.6098,1234.86,,18,198,,,,,,,,,,,,,,,,bars/036.png,bars/mask001.png,,,,,,,,,,,,0,2,,,,,,,2,0,3,0,,,,,,,,,,,1234.1097,1234.6098,1234.8601,1238.4933,space,3.6227,,1238.4934,53,2,1239.4932,1239.4933,1239.5003,,,,0,26,26,26,1,145,20,,,,,,,,
,,5c52df0c445f1d000137c6b8,65af54fcac09f8926668b55c,2024-01-23_06h07.57.090,bars,2023.2.3,Win32,59.88023952,657b66ea316d21385b68909f,,,,,,,,,,,1239.5004,1240.4934,,,1240.9935,1241.2433,,81,81,,,,,,,,,,,,,,,,bars/014.png,bars/mask004.png,,,,,,,,,,,,5,1,,,,,,,4,2,5,1,,,,,,,,,,,1240.4934,1240.9935,1241.2433,1244.0437,space,2.7898,,1244.0437,1,81,1245.0436,1245.0436,1245.0512,,,,0,27,27,27,1,80,0,,,,,,,,
,,5c52df0c445f1d000137c6b8,65af54fcac09f8926668b55c,2024-01-23_06h07.57.090,bars,2023.2.3,Win32,59.88023952,657b66ea316d21385b68909f,,,,,,,,,,,1245.0514,1246.0437,,,1246.5436,1246.7936,,1,1,,,,,,,,,,,,,,,,bars/009.png,bars/mask004.png,,,,,,,,,,,,4,1,,,,,,,6,4,7,4,,,,,,,,,,,1246.0437,1246.5435,1246.7937,1251.7604,space,4.9586,,1251.7604,14,76,1252.7604,1252.7604,1252.7677,,,,0,28,28,28,1,15,105,,,,,,,,
,,5c52df0c445f1d000137c6b8,65af54fcac09f8926668b55c,2024-01-23_06h07.57.090,bars,2023.2.3,Win32,59.88023952,657b66ea316d21385b68909f,,,,,,,,,,,1252.7678,1253.7605,,,1254.2605,1254.5107,,167,-13,,,,,,,,,,,,,,,,bars/049.png,bars/mask005.png,,,,,,,,,,,,3,1,,,,,,,4,2,4,3,,,,,,,,,,,1253.7605,1254.2604,1254.5107,1259.1606,space,4.636,,1259.1606,7,52,1260.1607,1260.1607,1260.1676,,,,0,29,29,29,1,160,115,,,,,,,,
,,5c52df0c445f1d000137c6b8,65af54fcac09f8926668b55c,2024-01-23_06h07.57.090,bars,2023.2.3,Win32,59.88023952,657b66ea316d21385b68909f,,,,,,,,,,,1260.1678,1261.1606,,,1261.6607,1261.9107,,102,102,,,,,,,,,,,,,,,,bars/015.png,bars/mask002.png,,,,,,,,,,,,6,1,,,,,,,6,0,8,0,,,,,,,,,,,1261.1607,1261.6606,1261.9108,1266.0609,space,4.14,,1266.0609,8,58,1267.0609,1267.0609,1267.0682,,,,0,30,30,30,1,110,160,,,,,,,,
,,5c52df0c445f1d000137c6b8,65af54fcac09f8926668b55c,2024-01-23_06h07.57.090,bars,2023.2.3,Win32,59.88023952,657b66ea316d21385b68909f,,,,,,,,,,,1267.0683,1268.0609,,,1268.561,1268.8109,,143,143,,,,,,,,,,,,,,,,bars/046.png,bars/mask008.png,,,,,,,,,,,,3,1,,,,,,,4,2,5,3,,,,,,,,,,,1268.061,1268.561,1268.8109,1270.2776,space,1.4528,,1270.2776,12,58,1271.2776,1271.2777,1271.2847,,,,0,31,31,31,1,155,85,,,,,,,,
,,5c52df0c445f1d000137c6b8,65af54fcac09f8926668b55c,2024-01-23_06h07.57.090,bars,2023.2.3,Win32,59.88023952,657b66ea316d21385b68909f,,,,,,,,,,,1271.2848,1272.2775,,,1272.7777,1273.0277,,133,133,,,,,,,,,,,,,,,,bars/017.png,bars/mask000.png,,,,,,,,,,,,1,1,,,,,,,2,4,1,4,,,,,,,,,,,1272.2776,1272.7777,1273.0278,1276.3276,space,3.2893,,1276.3277,12,88,1277.3277,1277.3278,1277.3349,,,,0,32,32,32,1,145,45,,,,,,,,
,,5c52df0c445f1d000137c6b8,65af54fcac09f8926668b55c,2024-01-23_06h07.57.090,bars,2023.2.3,Win32,59.88023952,657b66ea316d21385b68909f,,,,,,,,,,,1277.3351,1278.3278,,,1278.8276,1279.0778,,127,127,,,,,,,,,,,,,,,,bars/038.png,bars/mask009.png,,,,,,,,,,,,0,1,,,,,,,4,2,4,1,,,,,,,,,,,1278.3279,1278.8276,1279.0778,1280.4784,space,1.3962,,1280.4784,38,57,1281.4777,1281.4777,1281.4849,,,,0,33,33,33,1,165,70,,,,,,,,
,,5c52df0c445f1d000137c6b8,65af54fcac09f8926668b55c,2024-01-23_06h07.57.090,bars,2023.2.3,Win32,59.88023952,657b66ea316d21385b68909f,,,,,,,,,,,1281.485,1282.4779,,,1282.9779,1283.2277,,26,206,,,,,,,,,,,,,,,,bars/000.png,bars/mask000.png,,,,,,,,,,,,2,1,,,,,,,2,4,4,5,,,,,,,,,,,1282.4779,1282.9778,1283.2277,1285.8946,space,2.655,,1285.8947,14,61,1286.8947,1286.8947,1286.9022,,,,0,34,34,34,1,40,145,,,,,,,,
,,5c52df0c445f1d000137c6b8,65af54fcac09f8926668b55c,2024-01-23_06h07.57.090,bars,2023.2.3,Win32,59.88023952,657b66ea316d21385b68909f,,,,,,,,,,,1286.9023,1287.8947,,,1288.3946,1288.6448,,164,164,,,,,,,,,,,,,,,,bars/049.png,bars/mask008.png,,,,,,,,,,,,4,1,,,,,,,4,6,5,6,,,,,,,,,,,1287.8947,1288.3946,1288.6449,1290.6616,space,2.0058,,1290.6616,4,49,1291.6612,1291.6612,1291.6685,,,,0,35,35,35,1,160,115,,,,,,,,
,,5c52df0c445f1d000137c6b8,65af54fcac09f8926668b55c,2024-01-23_06h07.57.090,bars,2023.2.3,Win32,59.88023952,657b66ea316d21385b68909f,,,,,,,,,,,1291.6686,1292.6616,,,1293.1616,1293.4114,,125,125,,,,,,,,,,,,,,,,bars/037.png,bars/mask008.png,,,,,,,,,,,,1,2,,,,,,,6,4,6,4,,,,,,,,,,,1292.6616,1293.1616,1293.4114,1295.5448,space,2.1269,,1295.5448,25,20,1296.5447,1296.5448,1296.546,,,,0,36,36,36,1,150,105,,,,,,,,
,,5c52df0c445f1d000137c6b8,65af54fcac09f8926668b55c,2024-01-23_06h07.57.090,bars,2023.2.3,Win32,59.88023952,657b66ea316d21385b68909f,,,,,,,,,,,1296.5462,1297.545,,,1298.045,1298.2949,,108,108,,,,,,,,,,,,,,,,bars/020.png,bars/mask002.png,,,,,,,,,,,,7,1,,,,,,,8,2,9,2,,,,,,,,,,,1297.545,1298.045,1298.2949,1300.6617,space,2.362,,1300.6617,7,62,1301.6618,1301.6618,1301.6697,,,,0,37,37,37,1,115,170,,,,,,,,
,,5c52df0c445f1d000137c6b8,65af54fcac09f8926668b55c,2024-01-23_06h07.57.090,bars,2023.2.3,Win32,59.88023952,657b66ea316d21385b68909f,,,,,,,,,,,1301.6698,1302.6617,,,1303.1618,1303.4118,,20,20,,,,,,,,,,,,,,,,bars/016.png,bars/mask009.png,,,,,,,,,,,,2,1,,,,,,,10,4,7,4,,,,,,,,,,,1302.6617,1303.1618,1303.4118,1307.0619,space,3.6363,,1307.0621,20,35,1308.0617,1308.0617,1308.0686,,,,0,38,38,38,1,40,165,,,,,,,,
,,5c52df0c445f1d000137c6b8,65af54fcac09f8926668b55c,2024-01-23_06h07.57.090,bars,2023.2.3,Win32,59.88023952,657b66ea316d21385b68909f,,,,,,,,,,,1308.0687,1309.0619,,,1309.5617,1309.8121,,96,96,,,,,,,,,,,,,,,,bars/045.png,bars/mask006.png,,,,,,,,,,,,9,1,,,,,,,10,6,10,5,,,,,,,,,,,1309.0619,1309.5617,1309.8121,1313.0455,space,3.2191,,1313.0455,4,86,1314.0455,1314.0455,1314.0529,,,,0,39,39,39,1,100,10,,,,,,,,
,,5c52df0c445f1d000137c6b8,65af54fcac09f8926668b55c,2024-01-23_06h07.57.090,bars,2023.2.3,Win32,59.88023952,657b66ea316d21385b68909f,,,,,,,,,,,1314.053,1315.0455,,,1315.5455,1315.7954,,49,49,,,,,,,,,,,,,,,,bars/016.png,bars/mask000.png,,,,,,,,,,,,7,1,,,,,,,8,4,10,4,,,,,,,,,,,1315.0455,1315.5455,1315.7954,1317.6455,space,1.8322,,1317.6455,9,64,1318.6455,1318.6455,1318.6461,,,,0,40,40,40,1,40,165,,,,,,,,
,,5c52df0c445f1d000137c6b8,65af54fcac09f8926668b55c,2024-01-23_06h07.57.090,bars,2023.2.3,Win32,59.88023952,657b66ea316d21385b68909f,,,,,,,,,,,1318.6464,1319.6455,,,1320.1457,1320.3956,,13,193,,,,,,,,,,,,,,,,bars/005.png,bars/mask001.png,,,,,,,,,,,,9,1,,,,,,,10,2,10,2,,,,,,,,,,,1319.6455,1320.1457,1320.3956,1325.6458,space,5.2356,,1325.6459,3,53,1326.6458,1326.6458,1326.653,,,,0,41,41,41,1,10,140,,,,,,,,
,,5c52df0c445f1d000137c6b8,65af54fcac09f8926668b55c,2024-01-23_06h07.57.090,bars,2023.2.3,Win32,59.88023952,657b66ea316d21385b68909f,,,,,,,,,,,1326.6531,1327.6458,,,1328.1457,1328.3958,,54,54,,,,,,,,,,,,,,,,bars/016.png,bars/mask003.png,,,,,,,,,,,,5,1,,,,,,,10,0,10,0,,,,,,,,,,,1327.6459,1328.1457,1328.3958,1333.1626,space,4.7588,,1333.1627,14,69,1334.1624,1334.1624,1334.1703,,,,0,42,42,42,1,40,165,,,,,,,,
,,5c52df0c445f1d000137c6b8,65af54fcac09f8926668b55c,2024-01-23_06h07.57.090,bars,2023.2.3,Win32,59.88023952,657b66ea316d21385b68909f,,,,,,,,,,,1334.1705,1335.1627,,,1335.6627,1335.9127,,126,126,,,,,,,,,,,,,,,,bars/037.png,bars/mask000.png,,,,,,,,,,,,0,2,,,,,,,8,0,8,1,,,,,,,,,,,1335.1627,1335.6627,1335.9127,1340.8628,space,4.9335,,1340.8628,24,21,1341.8628,1341.8629,1341.8709,,,,0,43,43,43,1,150,105,,,,,,,,
,,5c52df0c445f1d000137c6b8,65af54fcac09f8926668b55c,2024-01-23_06h07.57.090,bars,2023.2.3,Win32,59.88023952,657b66ea316d21385b68909f,,,,,,,,,,,1341.8711,1342.8629,,,1343.3629,1343.6128,,43,43,,,,,,,,,,,,,,,,bars/000.png,bars/mask004.png,,,,,,,,,,,,9,1,,,,,,,10,2,10,0,,,,,,,,,,,1342.8629,1343.3628,1343.6128,1347.8965,space,4.2677,,1347.8965,3,78,1348.8964,1348.8964,1348.9044,,,,0,44,44,44,1,40,145,,,,,,,,
,,5c52df0c445f1d000137c6b8,65af54fcac09f8926668b55c,2024-01-23_06h07.57.090,bars,2023.2.3,Win32,59.88023952,657b66ea316d21385b68909f,,,,,,,,,,,1348.9045,1349.8961,,,1350.3965,1350.6464,,105,105,,,,,,,,,,,,,,,,bars/049.png,bars/mask004.png,,,,,,,,,,,,3,2,,,,,,,10,4,10,4,,,,,,,,,,,1349.8961,1350.3963,1350.6464,1353.88,space,3.2234,,1353.88,55,10,1354.8799,1354.8799,1354.8877,,,,0,45,45,45,1,160,115,,,,,,,,
,,5c52df0c445f1d000137c6b8,65af54fcac09f8926668b55c,2024-01-23_06h07.57.090,bars,2023.2.3,Win32,59.88023952,657b66ea316d21385b68909f,,,,,,,,,,,1354.8877,1355.8798,,,1356.3799,1356.6299,,121,121,,,,,,,,,,,,,,,,bars/030.png,bars/mask000.png,,,,,,,,,,,,3,1,,,,,,,8,6,9,5,,,,,,,,,,,1355.8798,1356.3798,1356.6299,1359.0132,space,2.3673,,1359.0132,19,56,1360.0131,1360.0132,1360.0216,,,,0,46,46,46,1,140,65,,,,,,,,
,,5c52df0c445f1d000137c6b8,65af54fcac09f8926668b55c,2024-01-23_06h07.57.090,bars,2023.2.3,Win32,59.88023952,657b66ea316d21385b68909f,,,,,,,,,,,1360.0219,1361.0134,,,1361.5134,1361.7634,,30,30,,,,,,,,,,,,,,,,bars/048.png,bars/mask001.png,,,,,,,,,,,,3,1,,,,,,,10,8,9,8,,,,,,,,,,,1361.0134,1361.5134,1361.7634,1363.8967,space,2.1258,,1363.8968,20,35,1364.8967,1364.8967,1364.8974,,,,0,47,47,47,1,50,175,,,,,,,,
,,5c52df0c445f1d000137c6b8,65af54fcac09f8926668b55c,2024-01-23_06h07.57.090,bars,2023.2.3,Win32,59.88023952,657b66ea316d21385b68909f,,,,,,,,,,,1364.8976,1365.8968,,,1366.397,1366.6468,,130,130,,,,,,,,,,,,,,,,bars/025.png,bars/mask000.png,,,,,,,,,,,,2,1,,,,,,,10,6,10,7,,,,,,,,,,,1365.8969,1366.3969,1366.6468,1369.6805,space,3.0188,,1369.6805,25,90,1370.6802,1370.6802,1370.6873,,,,0,48,48,48,1,105,40,,,,,,,,
,,5c52df0c445f1d000137c6b8,65af54fcac09f8926668b55c,2024-01-23_06h07.57.090,bars,2023.2.3,Win32,59.88023952,657b66ea316d21385b68909f,,,,,,,,,,,1370.6873,1371.6803,,,1372.1802,1372.4302,,162,162,,,,,,,,,,,,,,,,bars/011.png,bars/mask009.png,,,,,,,,,,,,8,1,,,,,,,8,8,9,9,,,,,,,,,,,1371.6803,1372.1802,1372.4302,1374.4137,space,1.9708,,1374.4137,2,77,1375.4136,1375.4136,1375.4212,,,,0,49,49,49,1,160,85,,,,,,,,
,,5c52df0c445f1d000137c6b8,65af54fcac09f8926668b55c,2024-01-23_06h07.57.090,bars,2023.2.3,Win32,59.88023952,657b66ea316d21385b68909f,,,,,,,,,,,,,,,,,,,,,,,,,,,,,,,,,,,,,,,,,,,,,,,,,,,,,,,,,,,,,,,,,,,,,,,,,,,,,,,,,,,,,,,,,,,,,1375.4212,1435.4153,0,1,1,0,1,sequence_tables/blk038.csv
,,5c52df0c445f1d000137c6b8,65af54fcac09f8926668b55c,2024-01-23_06h07.57.090,bars,2023.2.3,Win32,59.88023952,657b66ea316d21385b68909f,,,,,,,,,,,1457.16,1458.1492,,,1458.6491,1458.8993,,124,124,,,,,,,,,,,,,,,,bars/015.png,bars/mask003.png,,,,,,,,,,,,4,1,,,,,,,7,3,7,3,,,,,,1435.4231,1457.1491,space,21.7117,,1458.1492,1458.649,1458.8994,1460.6993,space,1.7917,,1460.6993,14,36,1461.6993,1461.6993,1461.7062,,,,0,0,0,0,1,110,160,,,,,,,,
,,5c52df0c445f1d000137c6b8,65af54fcac09f8926668b55c,2024-01-23_06h07.57.090,bars,2023.2.3,Win32,59.88023952,657b66ea316d21385b68909f,,,,,,,,,,,1461.7063,1462.6993,,,1463.1995,1463.4494,,33,33,,,,,,,,,,,,,,,,bars/007.png,bars/mask006.png,,,,,,,,,,,,0,2,,,,,,,5,1,7,0,,,,,,,,,,,1462.6993,1463.1993,1463.4494,1465.5329,space,2.0702,,1465.5329,38,22,1466.5328,1466.5328,1466.5343,,,,0,1,1,1,1,175,55,,,,,,,,
,,5c52df0c445f1d000137c6b8,65af54fcac09f8926668b55c,2024-01-23_06h07.57.090,bars,2023.2.3,Win32,59.88023952,657b66ea316d21385b68909f,,,,,,,,,,,1466.5343,1467.5329,,,1468.033,1468.2829,,62,62,,,,,,,,,,,,,,,,bars/034.png,bars/mask005.png,,,,,,,,,,,,2,2,,,,,,,7,3,4,2,,,,,,,,,,,1467.5329,1468.0329,1468.283,1471.5332,space,3.2339,,1471.5332,63,3,1472.5331,1472.5331,1472.5407,,,,0,2,2,2,1,125,65,,,,,,,,
,,5c52df0c445f1d000137c6b8,65af54fcac09f8926668b55c,2024-01-23_06h07.57.090,bars,2023.2.3,Win32,59.88023952,657b66ea316d21385b68909f,,,,,,,,,,,1472.5409,1473.533,,,1474.0331,1474.2829,,136,136,,,,,,,,,,,,,,,,bars/001.png,bars/mask000.png,,,,,,,,,,,,8,1,,,,,,,9,5,10,5,,,,,,,,,,,1473.533,1474.0331,1474.2829,1475.8831,space,1.584,,1475.8832,6,51,1476.8831,1476.8832,1476.8845,,,,0,3,3,3,1,130,85,,,,,,,,
,,5c52df0c445f1d000137c6b8,65af54fcac09f8926668b55c,2024-01-23_06h07.57.090,bars,2023.2.3,Win32,59.88023952,657b66ea316d21385b68909f,,,,,,,,,,,1476.8846,1477.8831,,,1478.3831,1478.6331,,179,-1,,,,,,,,,,,,,,,,bars/035.png,bars/mask006.png,,,,,,,,,,,,9,1,,,,,,,10,7,10,6,,,,,,,,,,,1477.8832,1478.3831,1478.6331,1481.1832,space,2.5459,,1481.1832,4,61,1482.1833,1482.1833,1482.1904,,,,0,4,4,4,1,175,60,,,,,,,,
,,5c52df0c445f1d000137c6b8,65af54fcac09f8926668b55c,2024-01-23_06h07.57.090,bars,2023.2.3,Win32,59.88023952,657b66ea316d21385b68909f,,,,,,,,,,,1482.1905,1483.1832,,,1483.6833,1483.9332,,170,170,,,,,,,,,,,,,,,,bars/035.png,bars/mask001.png,,,,,,,,,,,,8,1,,,,,,,10,5,10,5,,,,,,,,,,,1483.1832,1483.6833,1483.9332,1485.5168,space,1.5745,,1485.5168,5,70,1486.5167,1486.5168,1486.5172,,,,0,5,5,5,1,175,60,,,,,,,,
,,5c52df0c445f1d000137c6b8,65af54fcac09f8926668b55c,2024-01-23_06h07.57.090,bars,2023.2.3,Win32,59.88023952,657b66ea316d21385b68909f,,,,,,,,,,,1486.5175,1487.5168,,,1488.0167,1488.2666,,10,10,,,,,,,,,,,,,,,,bars/041.png,bars/mask000.png,,,,,,,,,,,,7,1,,,,,,,10,7,10,7,,,,,,,,,,,1487.5168,1488.0167,1488.2666,1494.1504,space,5.8702,,1494.1504,10,75,1495.1499,1495.1501,1495.1572,,,,0,6,6,6,1,20,85,,,,,,,,
,,5c52df0c445f1d000137c6b8,65af54fcac09f8926668b55c,2024-01-23_06h07.57.090,bars,2023.2.3,Win32,59.88023952,657b66ea316d21385b68909f,,,,,,,,,,,1495.1573,1496.15,,,1496.6502,1496.9003,,51,51,,,,,,,,,,,,,,,,bars/026.png,bars/mask002.png,,,,,,,,,,,,4,1,,,,,,,8,5,8,6,,,,,,,,,,,1496.15,1496.6502,1496.9004,1499.3337,space,2.4176,,1499.3337,16,34,1500.3337,1500.3338,1500.341,,,,0,7,7,7,1,35,85,,,,,,,,
,,5c52df0c445f1d000137c6b8,65af54fcac09f8926668b55c,2024-01-23_06h07.57.090,bars,2023.2.3,Win32,59.88023952,657b66ea316d21385b68909f,,,,,,,,,,,1500.3411,1501.3335,,,1501.8335,1502.0835,,7,187,,,,,,,,,,,,,,,,bars/004.png,bars/mask002.png,,,,,,,,,,,,2,1,,,,,,,6,7,4,7,,,,,,,,,,,1501.3336,1501.8335,1502.0835,1506.7506,space,4.6601,,1506.7507,18,62,1507.7506,1507.7506,1507.7576,,,,0,8,8,8,1,25,125,,,,,,,,
,,5c52df0c445f1d000137c6b8,65af54fcac09f8926668b55c,2024-01-23_06h07.57.090,bars,2023.2.3,Win32,59.88023952,657b66ea316d21385b68909f,,,,,,,,,,,1507.7576,1508.7506,,,1509.2503,1509.5006,,18,198,,,,,,,,,,,,,,,,bars/004.png,bars/mask007.png,,,,,,,,,,,,3,1,,,,,,,4,9,4,9,,,,,,,,,,,1508.7507,1509.2503,1509.5006,1511.6174,space,2.1125,,1511.6175,7,73,1512.6173,1512.6173,1512.6178,,,,0,9,9,9,1,25,125,,,,,,,,
,,5c52df0c445f1d000137c6b8,65af54fcac09f8926668b55c,2024-01-23_06h07.57.090,bars,2023.2.3,Win32,59.88023952,657b66ea316d21385b68909f,,,,,,,,,,,1512.6181,1513.6174,,,1514.1175,1514.3675,,30,30,,,,,,,,,,,,,,,,bars/026.png,bars/mask001.png,,,,,,,,,,,,3,1,,,,,,,2,7,3,5,,,,,,,,,,,1513.6174,1514.1175,1514.3675,1515.9176,space,1.5341,,1515.9177,5,55,1516.9173,1516.9174,1516.9179,,,,0,10,10,10,1,35,85,,,,,,,,
,,5c52df0c445f1d000137c6b8,65af54fcac09f8926668b55c,2024-01-23_06h07.57.090,bars,2023.2.3,Win32,59.88023952,657b66ea316d21385b68909f,,,,,,,,,,,1516.9181,1517.9176,,,1518.4175,1518.6675,,160,-20,,,,,,,,,,,,,,,,bars/049.png,bars/mask001.png,,,,,,,,,,,,0,1,,,,,,,0,5,0,6,,,,,,,,,,,1517.9176,1518.4174,1518.6675,1521.7011,space,3.0166,,1521.7011,0,45,1522.7009,1522.7009,1522.708,,,,0,11,11,11,1,160,115,,,,,,,,
,,5c52df0c445f1d000137c6b8,65af54fcac09f8926668b55c,2024-01-23_06h07.57.090,bars,2023.2.3,Win32,59.88023952,657b66ea316d21385b68909f,,,,,,,,,,,1522.708,1523.7011,,,1524.201,1524.4509,,166,-14,,,,,,,,,,,,,,,,bars/011.png,bars/mask007.png,,,,,,,,,,,,1,1,,,,,,,0,3,1,2,,,,,,,,,,,1523.7011,1524.201,1524.4509,1527.4845,space,3.0173,,1527.4845,6,81,1528.4843,1528.4843,1528.4915,,,,0,12,12,12,1,160,85,,,,,,,,
,,5c52df0c445f1d000137c6b8,65af54fcac09f8926668b55c,2024-01-23_06h07.57.090,bars,2023.2.3,Win32,59.88023952,657b66ea316d21385b68909f,,,,,,,,,,,1528.4915,1529.4844,,,1529.9844,1530.2343,,72,72,,,,,,,,,,,,,,,,bars/002.png,bars/mask002.png,,,,,,,,,,,,1,2,,,,,,,0,1,0,1,,,,,,,,,,,1529.4844,1529.9844,1530.2343,1534.1181,space,3.8658,,1534.1181,58,13,1535.1178,1535.1179,1535.1259,,,,0,13,13,13,1,130,85,,,,,,,,
,,5c52df0c445f1d000137c6b8,65af54fcac09f8926668b55c,2024-01-23_06h07.57.090,bars,2023.2.3,Win32,59.88023952,657b66ea316d21385b68909f,,,,,,,,,,,1535.1261,1536.118,,,1536.6181,1536.8679,,175,175,,,,,,,,,,,,,,,,bars/013.png,bars/mask003.png,,,,,,,,,,,,2,2,,,,,,,2,3,4,4,,,,,,,,,,,1536.118,1536.618,1536.8679,1538.668,space,1.7843,,1538.6681,80,15,1539.6681,1539.6682,1539.6752,,,,0,14,14,14,1,75,10,,,,,,,,
,,5c52df0c445f1d000137c6b8,65af54fcac09f8926668b55c,2024-01-23_06h07.57.090,bars,2023.2.3,Win32,59.88023952,657b66ea316d21385b68909f,,,,,,,,,,,1539.6753,1540.6681,,,1541.1682,1541.418,,177,-3,,,,,,,,,,,,,,,,bars/045.png,bars/mask003.png,,,,,,,,,,,,3,2,,,,,,,4,5,4,5,,,,,,,,,,,1540.6681,1541.1681,1541.418,1545.9852,space,4.5497,,1545.9852,77,13,1546.9849,1546.9849,1546.9923,,,,0,15,15,15,1,100,10,,,,,,,,
,,5c52df0c445f1d000137c6b8,65af54fcac09f8926668b55c,2024-01-23_06h07.57.090,bars,2023.2.3,Win32,59.88023952,657b66ea316d21385b68909f,,,,,,,,,,,1546.9923,1547.9849,,,1548.485,1548.735,,42,42,,,,,,,,,,,,,,,,bars/010.png,bars/mask001.png,,,,,,,,,,,,3,2,,,,,,,6,7,4,6,,,,,,,,,,,1547.985,1548.4849,1548.7351,1550.1851,space,1.4345,,1550.1851,57,13,1551.1848,1551.1848,1551.1855,,,,0,16,16,16,1,165,55,,,,,,,,
,,5c52df0c445f1d000137c6b8,65af54fcac09f8926668b55c,2024-01-23_06h07.57.090,bars,2023.2.3,Win32,59.88023952,657b66ea316d21385b68909f,,,,,,,,,,,1551.1856,1552.1851,,,1552.6852,1552.935,,96,96,,,,,,,,,,,,,,,,bars/021.png,bars/mask001.png,,,,,,,,,,,,1,2,,,,,,,4,5,5,5,,,,,,,,,,,1552.1852,1552.6852,1552.9351,1554.7019,space,1.7601,,1554.702,59,26,1555.7018,1555.7019,1555.7092,,,,0,17,17,17,1,155,70,,,,,,,,
,,5c52df0c445f1d000137c6b8,65af54fcac09f8926668b55c,2024-01-23_06h07.57.090,bars,2023.2.3,Win32,59.88023952,657b66ea316d21385b68909f,,,,,,,,,,,1555.7092,1556.7019,,,1557.2019,1557.4519,,105,105,,,,,,,,,,,,,,,,bars/019.png,bars/mask009.png,,,,,,,,,,,,3,2,,,,,,,6,3,5,3,,,,,,,,,,,1556.7019,1557.2019,1557.4519,1558.9687,space,1.5027,,1558.9688,60,0,1559.9686,1559.9687,1559.9762,,,,0,18,18,18,1,45,105,,,,,,,,
,,5c52df0c445f1d000137c6b8,65af54fcac09f8926668b55c,2024-01-23_06h07.57.090,bars,2023.2.3,Win32,59.88023952,657b66ea316d21385b68909f,,,,,,,,,,,1559.9764,1560.9687,,,1561.4688,1561.7187,,178,-2,,,,,,,,,,,,,,,,bars/008.png,bars/mask007.png,,,,,,,,,,,,0,2,,,,,,,4,1,5,0,,,,,,,,,,,1560.9687,1561.4687,1561.7187,1564.4355,space,2.7093,,1564.4356,68,2,1565.4353,1565.4353,1565.443,,,,0,19,19,19,1,110,0,,,,,,,,
,,5c52df0c445f1d000137c6b8,65af54fcac09f8926668b55c,2024-01-23_06h07.57.090,bars,2023.2.3,Win32,59.88023952,657b66ea316d21385b68909f,,,,,,,,,,,1565.4431,1566.4354,,,1566.9354,1567.1855,,0,0,,,,,,,,,,,,,,,,bars/012.png,bars/mask005.png,,,,,,,,,,,,2,2,,,,,,,2,3,2,3,,,,,,,,,,,1566.4355,1566.9354,1567.1855,1568.0024,space,0.8006,,1568.0024,90,15,1569.0022,1569.0023,1569.003,,,,0,20,20,20,1,90,15,,,,,,,,
,,5c52df0c445f1d000137c6b8,65af54fcac09f8926668b55c,2024-01-23_06h07.57.090,bars,2023.2.3,Win32,59.88023952,657b66ea316d21385b68909f,,,,,,,,,,,1569.0031,1570.0022,,,1570.5023,1570.7523,,2,2,,,,,,,,,,,,,,,,bars/039.png,bars/mask002.png,,,,,,,,,,,,3,1,,,,,,,4,5,4,4,,,,,,,,,,,1570.0022,1570.5023,1570.7523,1574.619,space,3.8498,,1574.619,7,77,1575.6189,1575.619,1575.6268,,,,0,21,21,21,1,175,105,,,,,,,,
,,5c52df0c445f1d000137c6b8,65af54fcac09f8926668b55c,2024-01-23_06h07.57.090,bars,2023.2.3,Win32,59.88023952,657b66ea316d21385b68909f,,,,,,,,,,,1575.6269,1576.6189,,,1577.1192,1577.3691,,97,97,,,,,,,,,,,,,,,,bars/008.png,bars/mask007.png,,,,,,,,,,,,2,1,,,,,,,2,3,3,2,,,,,,,,,,,1576.6189,1577.1191,1577.3691,1580.5357,space,3.1548,,1580.5358,13,83,1581.5355,1581.5355,1581.543,,,,0,22,22,22,1,110,0,,,,,,,,
,,5c52df0c445f1d000137c6b8,65af54fcac09f8926668b55c,2024-01-23_06h07.57.090,bars,2023.2.3,Win32,59.88023952,657b66ea316d21385b68909f,,,,,,,,,,,1581.5431,1582.5359,,,1583.036,1583.2859,,100,100,,,,,,,,,,,,,,,,bars/013.png,bars/mask001.png,,,,,,,,,,,,0,1,,,,,,,0,1,1,0,,,,,,,,,,,1582.5359,1583.036,1583.286,1584.6194,space,1.3232,,1584.6194,25,90,1585.6192,1585.6192,1585.6268,,,,0,23,23,23,1,75,10,,,,,,,,
,,5c52df0c445f1d000137c6b8,65af54fcac09f8926668b55c,2024-01-23_06h07.57.090,bars,2023.2.3,Win32,59.88023952,657b66ea316d21385b68909f,,,,,,,,,,,1585.6269,1586.6193,,,1587.1193,1587.3695,,176,176,,,,,,,,,,,,,,,,bars/021.png,bars/mask002.png,,,,,,,,,,,,0,1,,,,,,,0,0,0,1,,,,,,,,,,,1586.6193,1587.1193,1587.3695,1588.3694,space,0.9868,,1588.3695,21,74,1589.3694,1589.3694,1589.3773,,,,0,24,24,24,1,155,70,,,,,,,,
,,5c52df0c445f1d000137c6b8,65af54fcac09f8926668b55c,2024-01-23_06h07.57.090,bars,2023.2.3,Win32,59.88023952,657b66ea316d21385b68909f,,,,,,,,,,,1589.3774,1590.3693,,,1590.8694,1591.1196,,89,89,,,,,,,,,,,,,,,,bars/022.png,bars/mask000.png,,,,,,,,,,,,0,1,,,,,,,0,0,0,1,,,,,,,,,,,1590.3694,1590.8694,1591.1196,1594.486,space,3.3613,,1594.486,6,69,1595.4863,1595.4863,1595.4936,,,,0,25,25,25,1,95,20,,,,,,,,
,,5c52df0c445f1d000137c6b8,65af54fcac09f8926668b55c,2024-01-23_06h07.57.090,bars,2023.2.3,Win32,59.88023952,657b66ea316d21385b68909f,,,,,,,,,,,1595.4937,1596.4863,,,1596.9864,1597.2362,,108,108,,,,,,,,,,,,,,,,bars/015.png,bars/mask003.png,,,,,,,,,,,,1,1,,,,,,,0,0,1,0,,,,,,,,,,,1596.4864,1596.9864,1597.2362,1600.6532,space,3.4075,,1600.6532,2,52,1601.6528,1601.6529,1601.6601,,,,0,26,26,26,1,110,160,,,,,,,,
,,5c52df0c445f1d000137c6b8,65af54fcac09f8926668b55c,2024-01-23_06h07.57.090,bars,2023.2.3,Win32,59.88023952,657b66ea316d21385b68909f,,,,,,,,,,,1601.6602,1602.653,,,1603.153,1603.4032,,49,49,,,,,,,,,,,,,,,,bars/003.png,bars/mask008.png,,,,,,,,,,,,0,1,,,,,,,0,2,1,2,,,,,,,,,,,1602.653,1603.153,1603.4032,1605.4533,space,2.0347,,1605.4533,24,89,1606.4531,1606.4531,1606.4608,,,,0,27,27,27,1,25,140,,,,,,,,
,,5c52df0c445f1d000137c6b8,65af54fcac09f8926668b55c,2024-01-23_06h07.57.090,bars,2023.2.3,Win32,59.88023952,657b66ea316d21385b68909f,,,,,,,,,,,1606.4609,1607.4532,,,1607.9534,1608.2029,,141,141,,,,,,,,,,,,,,,,bars/030.png,bars/mask002.png,,,,,,,,,,,,1,1,,,,,,,2,4,1,6,,,,,,,,,,,1607.4532,1607.9533,1608.2029,1609.42,space,1.2011,,1609.42,1,76,1610.4199,1610.4199,1610.4207,,,,0,28,28,28,1,140,65,,,,,,,,
,,5c52df0c445f1d000137c6b8,65af54fcac09f8926668b55c,2024-01-23_06h07.57.090,bars,2023.2.3,Win32,59.88023952,657b66ea316d21385b68909f,,,,,,,,,,,1610.4209,1611.42,,,1611.92,1612.1699,,178,178,,,,,,,,,,,,,,,,bars/039.png,bars/mask002.png,,,,,,,,,,,,0,1,,,,,,,0,2,0,2,,,,,,,,,,,1611.42,1611.92,1612.17,1617.2868,space,5.1078,,1617.287,3,73,1618.2866,1618.2867,1618.2946,,,,0,29,29,29,1,175,105,,,,,,,,
,,5c52df0c445f1d000137c6b8,65af54fcac09f8926668b55c,2024-01-23_06h07.57.090,bars,2023.2.3,Win32,59.88023952,657b66ea316d21385b68909f,,,,,,,,,,,1618.2948,1619.2868,,,1619.7868,1620.0369,,58,58,,,,,,,,,,,,,,,,bars/000.png,bars/mask008.png,,,,,,,,,,,,0,1,,,,,,,0,4,1,6,,,,,,,,,,,1619.2868,1619.7868,1620.0369,1622.637,space,2.5864,,1622.6371,18,87,1623.6369,1623.6369,1623.6443,,,,0,30,30,30,1,40,145,,,,,,,,
,,5c52df0c445f1d000137c6b8,65af54fcac09f8926668b55c,2024-01-23_06h07.57.090,bars,2023.2.3,Win32,59.88023952,657b66ea316d21385b68909f,,,,,,,,,,,1623.6444,1624.6369,,,1625.1368,1625.3868,,42,42,,,,,,,,,,,,,,,,bars/043.png,bars/mask005.png,,,,,,,,,,,,1,1,,,,,,,2,2,2,2,,,,,,,,,,,1624.637,1625.1368,1625.3868,1629.6539,space,4.2571,,1629.6539,12,88,1630.6535,1630.6536,1630.6609,,,,0,31,31,31,1,30,130,,,,,,,,
,,5c52df0c445f1d000137c6b8,65af54fcac09f8926668b55c,2024-01-23_06h07.57.090,bars,2023.2.3,Win32,59.88023952,657b66ea316d21385b68909f,,,,,,,,,,,1630.6609,1631.6538,,,1632.1537,1632.4039,,87,267,,,,,,,,,,,,,,,,bars/012.png,bars/mask007.png,,,,,,,,,,,,4,1,,,,,,,4,4,4,3,,,,,,,,,,,1631.6538,1632.1537,1632.4039,1637.4873,space,5.0715,,1637.4873,3,72,1638.4874,1638.4874,1638.4946,,,,0,32,32,32,1,90,15,,,,,,,,
,,5c52df0c445f1d000137c6b8,65af54fcac09f8926668b55c,2024-01-23_06h07.57.090,bars,2023.2.3,Win32,59.88023952,657b66ea316d21385b68909f,,,,,,,,,,,1638.4948,1639.4872,,,1639.9874,1640.2373,,113,113,,,,,,,,,,,,,,,,bars/034.png,bars/mask007.png,,,,,,,,,,,,4,1,,,,,,,6,6,6,5,,,,,,,,,,,1639.4873,1639.9873,1640.2374,1642.2208,space,1.9779,,1642.2208,12,48,1643.2207,1643.2207,1643.2214,,,,0,33,33,33,1,125,65,,,,,,,,
,,5c52df0c445f1d000137c6b8,65af54fcac09f8926668b55c,2024-01-23_06h07.57.090,bars,2023.2.3,Win32,59.88023952,657b66ea316d21385b68909f,,,,,,,,,,,1643.2216,1644.2206,,,1644.7208,1644.9708,,32,32,,,,,,,,,,,,,,,,bars/006.png,bars/mask009.png,,,,,,,,,,,,6,1,,,,,,,8,8,7,7,,,,,,,,,,,1644.2206,1644.7208,1644.9708,1647.1042,space,2.1212,,1647.1043,3,68,1648.1041,1648.1041,1648.1112,,,,0,34,34,34,1,35,100,,,,,,,,
,,5c52df0c445f1d000137c6b8,65af54fcac09f8926668b55c,2024-01-23_06h07.57.090,bars,2023.2.3,Win32,59.88023952,657b66ea316d21385b68909f,,,,,,,,,,,1648.1113,1649.1044,,,1649.6045,1649.8542,,96,96,,,,,,,,,,,,,,,,bars/025.png,bars/mask008.png,,,,,,,,,,,,4,1,,,,,,,6,10,6,10,,,,,,,,,,,1649.1044,1649.6045,1649.8542,1651.7545,space,1.8844,,1651.7545,9,56,1652.7542,1652.7543,1652.755,,,,0,35,35,35,1,105,40,,,,,,,,
,,5c52df0c445f1d000137c6b8,65af54fcac09f8926668b55c,2024-01-23_06h07.57.090,bars,2023.2.3,Win32,59.88023952,657b66ea316d21385b68909f,,,,,,,,,,,1652.7552,1653.7545,,,1654.2542,1654.5046,,133,133,,,,,,,,,,,,,,,,bars/018.png,bars/mask006.png,,,,,,,,,,,,3,1,,,,,,,8,10,7,8,,,,,,,,,,,1653.7545,1654.2542,1654.5047,1658.4045,space,3.883,,1658.4045,17,43,1659.4047,1659.4047,1659.4119,,,,0,36,36,36,1,150,90,,,,,,,,
,,5c52df0c445f1d000137c6b8,65af54fcac09f8926668b55c,2024-01-23_06h07.57.090,bars,2023.2.3,Win32,59.88023952,657b66ea316d21385b68909f,,,,,,,,,,,1659.4121,1660.4047,,,1660.9047,1661.1547,,32,32,,,,,,,,,,,,,,,,bars/028.png,bars/mask008.png,,,,,,,,,,,,3,1,,,,,,,6,10,6,10,,,,,,,,,,,1660.4047,1660.9046,1661.1548,1662.9547,space,1.7938,,1662.9548,13,88,1663.9547,1663.9547,1663.9616,,,,0,37,37,37,1,45,120,,,,,,,,
,,5c52df0c445f1d000137c6b8,65af54fcac09f8926668b55c,2024-01-23_06h07.57.090,bars,2023.2.3,Win32,59.88023952,657b66ea316d21385b68909f,,,,,,,,,,,1663.9617,1664.9547,,,1665.4549,1665.7047,,13,13,,,,,,,,,,,,,,,,bars/004.png,bars/mask001.png,,,,,,,,,,,,4,1,,,,,,,8,10,7,10,,,,,,,,,,,1664.9547,1665.4549,1665.7048,1669.0215,space,3.2999,,1669.0215,12,68,1670.0214,1670.0214,1670.0284,,,,0,38,38,38,1,25,125,,,,,,,,
,,5c52df0c445f1d000137c6b8,65af54fcac09f8926668b55c,2024-01-23_06h07.57.090,bars,2023.2.3,Win32,59.88023952,657b66ea316d21385b68909f,,,,,,,,,,,1670.0285,1671.0213,,,1671.5217,1671.7716,,165,165,,,,,,,,,,,,,,,,bars/020.png,bars/mask004.png,,,,,,,,,,,,8,2,,,,,,,6,10,6,10,,,,,,,,,,,1671.0213,1671.5216,1671.7717,1672.7217,space,0.9331,,1672.7218,50,5,1673.7217,1673.7217,1673.7231,,,,0,39,39,39,1,115,170,,,,,,,,
,,5c52df0c445f1d000137c6b8,65af54fcac09f8926668b55c,2024-01-23_06h07.57.090,bars,2023.2.3,Win32,59.88023952,657b66ea316d21385b68909f,,,,,,,,,,,1673.7232,1674.7217,,,1675.2214,1675.4718,,82,82,,,,,,,,,,,,,,,,bars/002.png,bars/mask009.png,,,,,,,,,,,,9,2,,,,,,,8,10,9,10,,,,,,,,,,,1674.7217,1675.2214,1675.4718,1679.0551,space,3.5725,,1679.0551,48,3,1680.0552,1680.0552,1680.0622,,,,0,40,40,40,1,130,85,,,,,,,,
,,5c52df0c445f1d000137c6b8,65af54fcac09f8926668b55c,2024-01-23_06h07.57.090,bars,2023.2.3,Win32,59.88023952,657b66ea316d21385b68909f,,,,,,,,,,,1680.0622,1681.0552,,,1681.555,1681.8052,,178,178,,,,,,,,,,,,,,,,bars/040.png,bars/mask009.png,,,,,,,,,,,,5,2,,,,,,,6,8,5,7,,,,,,,,,,,1681.0553,1681.5549,1681.8053,1683.8227,space,2.0133,,1683.8227,38,7,1684.8219,1684.8219,1684.8225,,,,0,41,41,41,1,140,5,,,,,,,,
,,5c52df0c445f1d000137c6b8,65af54fcac09f8926668b55c,2024-01-23_06h07.57.090,bars,2023.2.3,Win32,59.88023952,657b66ea316d21385b68909f,,,,,,,,,,,1684.8227,1685.822,,,1686.322,1686.5717,,153,-27,,,,,,,,,,,,,,,,bars/003.png,bars/mask007.png,,,,,,,,,,,,5,2,,,,,,,8,10,9,8,,,,,,,,,,,1685.822,1686.322,1686.5717,1688.8887,space,2.3003,,1688.8888,52,13,1689.8887,1689.8888,1689.8958,,,,0,42,42,42,1,25,140,,,,,,,,
,,5c52df0c445f1d000137c6b8,65af54fcac09f8926668b55c,2024-01-23_06h07.57.090,bars,2023.2.3,Win32,59.88023952,657b66ea316d21385b68909f,,,,,,,,,,,1689.8959,1690.8888,,,1691.3888,1691.6388,,65,65,,,,,,,,,,,,,,,,bars/038.png,bars/mask000.png,,,,,,,,,,,,7,2,,,,,,,10,8,8,8,,,,,,,,,,,1690.8888,1691.3887,1691.6388,1694.1556,space,2.5053,,1694.1556,80,5,1695.1556,1695.1556,1695.1564,,,,0,43,43,43,1,165,70,,,,,,,,
,,5c52df0c445f1d000137c6b8,65af54fcac09f8926668b55c,2024-01-23_06h07.57.090,bars,2023.2.3,Win32,59.88023952,657b66ea316d21385b68909f,,,,,,,,,,,1695.1565,1696.1554,,,1696.6554,1696.9055,,162,-18,,,,,,,,,,,,,,,,bars/044.png,bars/mask001.png,,,,,,,,,,,,6,2,,,,,,,10,6,9,8,,,,,,,,,,,1696.1554,1696.6554,1696.9056,1699.6391,space,2.723,,1699.6391,87,7,1700.639,1700.639,1700.6459,,,,0,44,44,44,1,75,155,,,,,,,,
,,5c52df0c445f1d000137c6b8,65af54fcac09f8926668b55c,2024-01-23_06h07.57.090,bars,2023.2.3,Win32,59.88023952,657b66ea316d21385b68909f,,,,,,,,,,,1700.646,1701.6391,,,1702.1391,1702.3891,,9,189,,,,,,,,,,,,,,,,bars/048.png,bars/mask000.png,,,,,,,,,,,,4,2,,,,,,,10,4,10,7,,,,,,,,,,,1701.6392,1702.1391,1702.3891,1704.6891,space,2.2936,,1704.6891,41,14,1705.6892,1705.6892,1705.6964,,,,0,45,45,45,1,50,175,,,,,,,,
,,5c52df0c445f1d000137c6b8,65af54fcac09f8926668b55c,2024-01-23_06h07.57.090,bars,2023.2.3,Win32,59.88023952,657b66ea316d21385b68909f,,,,,,,,,,,1705.6965,1706.689,,,1707.1893,1707.4393,,134,134,,,,,,,,,,,,,,,,bars/049.png,bars/mask000.png,,,,,,,,,,,,0,2,,,,,,,8,2,9,1,,,,,,,,,,,1706.689,1707.1893,1707.4393,1709.206,space,1.7544,,1709.206,26,19,1710.2057,1710.2057,1710.2127,,,,0,46,46,46,1,160,115,,,,,,,,
,,5c52df0c445f1d000137c6b8,65af54fcac09f8926668b55c,2024-01-23_06h07.57.090,bars,2023.2.3,Win32,59.88023952,657b66ea316d21385b68909f,,,,,,,,,,,1710.2128,1711.2059,,,1711.7062,1711.9562,,112,112,,,,,,,,,,,,,,,,bars/039.png,bars/mask008.png,,,,,,,,,,,,4,2,,,,,,,6,4,7,5,,,,,,,,,,,1711.2061,1711.706,1711.9562,1713.8561,space,1.8866,,1713.8562,63,7,1714.856,1714.856,1714.8568,,,,0,47,47,47,1,175,105,,,,,,,,
,,5c52df0c445f1d000137c6b8,65af54fcac09f8926668b55c,2024-01-23_06h07.57.090,bars,2023.2.3,Win32,59.88023952,657b66ea316d21385b68909f,,,,,,,,,,,1714.857,1715.8562,,,1716.3561,1716.6063,,6,186,,,,,,,,,,,,,,,,bars/048.png,bars/mask006.png,,,,,,,,,,,,1,2,,,,,,,4,2,1,2,,,,,,,,,,,1715.8563,1716.356,1716.6063,1719.8896,space,3.2734,,1719.8897,44,11,1720.8895,1720.8897,1720.8968,,,,0,48,48,48,1,50,175,,,,,,,,
,,5c52df0c445f1d000137c6b8,65af54fcac09f8926668b55c,2024-01-23_06h07.57.090,bars,2023.2.3,Win32,59.88023952,657b66ea316d21385b68909f,,,,,,,,,,,1720.897,1721.8896,,,1722.3896,1722.6394,,113,-67,,,,,,,,,,,,,,,,bars/046.png,bars/mask000.png,,,,,,,,,,,,0,2,,,,,,,6,0,5,0,,,,,,,,,,,1721.8897,1722.3895,1722.6394,1726.8396,space,4.1834,,1726.8396,42,28,1727.8396,1727.8396,1727.847,,,,0,49,49,49,1,155,85,,,,,,,,
,,5c52df0c445f1d000137c6b8,65af54fcac09f8926668b55c,2024-01-23_06h07.57.090,bars,2023.2.3,Win32,59.88023952,657b66ea316d21385b68909f,,,,,,,,,,,,,,,,,,,,,,,,,,,,,,,,,,,,,,,,,,,,,,,,,,,,,,,,,,,,,,,,,,,,,,,,,,,,,,,,,,,,,,,,,,,,,1727.8471,1787.8414,0,2,2,3,1,sequence_tables/blk021.csv
,,5c52df0c445f1d000137c6b8,65af54fcac09f8926668b55c,2024-01-23_06h07.57.090,bars,2023.2.3,Win32,59.88023952,657b66ea316d21385b68909f,,,,,,,,,,,1828.1367,1829.1258,,,1829.6257,1829.8758,,54,54,,,,,,,,,,,,,,,,bars/010.png,bars/mask007.png,,,,,,,,,,,,10,2,,,,,,,9,9,7,10,,,,,,1787.8488,1828.1258,space,40.2727,,1829.1259,1829.6257,1829.8759,1832.6424,space,2.761,,1832.6425,69,1,1833.6425,1833.6425,1833.6499,,,,0,0,0,0,1,165,55,,,,,,,,
,,5c52df0c445f1d000137c6b8,65af54fcac09f8926668b55c,2024-01-23_06h07.57.090,bars,2023.2.3,Win32,59.88023952,657b66ea316d21385b68909f,,,,,,,,,,,1833.65,1834.6425,,,1835.1426,1835.3927,,171,171,,,,,,,,,,,,,,,,bars/033.png,bars/mask007.png,,,,,,,,,,,,5,2,,,,,,,7,10,7,10,,,,,,,,,,,1834.6425,1835.1426,1835.3927,1838.4427,space,3.0404,,1838.4427,34,16,1839.4428,1839.4429,1839.4501,,,,0,1,1,1,1,25,155,,,,,,,,
,,5c52df0c445f1d000137c6b8,65af54fcac09f8926668b55c,2024-01-23_06h07.57.090,bars,2023.2.3,Win32,59.88023952,657b66ea316d21385b68909f,,,,,,,,,,,1839.4503,1840.4427,,,1840.9425,1841.1926,,3,3,,,,,,,,,,,,,,,,bars/032.png,bars/mask006.png,,,,,,,,,,,,3,2,,,,,,,9,8,9,8,,,,,,,,,,,1840.4427,1840.9425,1841.1926,1845.0763,space,3.8704,,1845.0764,58,17,1846.0763,1846.0763,1846.0836,,,,0,2,2,2,1,125,20,,,,,,,,
,,5c52df0c445f1d000137c6b8,65af54fcac09f8926668b55c,2024-01-23_06h07.57.090,bars,2023.2.3,Win32,59.88023952,657b66ea316d21385b68909f,,,,,,,,,,,1846.0838,1847.0762,,,1847.5763,1847.8262,,46,46,,,,,,,,,,,,,,,,bars/035.png,bars/mask000.png,,,,,,,,,,,,4,2,,,,,,,10,6,8,7,,,,,,,,,,,1847.0762,1847.5763,1847.8262,1850.4263,space,2.5874,,1850.4263,51,14,1851.4264,1851.4265,1851.4334,,,,0,3,3,3,1,175,60,,,,,,,,
,,5c52df0c445f1d000137c6b8,65af54fcac09f8926668b55c,2024-01-23_06h07.57.090,bars,2023.2.3,Win32,59.88023952,657b66ea316d21385b68909f,,,,,,,,,,,1851.4335,1852.4263,,,1852.9264,1853.1764,,161,161,,,,,,,,,,,,,,,,bars/044.png,bars/mask003.png,,,,,,,,,,,,3,2,,,,,,,10,4,9,4,,,,,,,,,,,1852.4264,1852.9264,1853.1765,1855.0282,space,1.8332,,1855.0282,86,6,1856.0264,1856.0266,1856.027,,,,0,4,4,4,1,75,155,,,,,,,,
,,5c52df0c445f1d000137c6b8,65af54fcac09f8926668b55c,2024-01-23_06h07.57.090,bars,2023.2.3,Win32,59.88023952,657b66ea316d21385b68909f,,,,,,,,,,,1856.0273,1857.0265,,,1857.5266,1857.7764,,33,33,,,,,,,,,,,,,,,,bars/041.png,bars/mask004.png,,,,,,,,,,,,5,1,,,,,,,8,2,8,3,,,,,,,,,,,1857.0265,1857.5266,1857.7764,1859.2769,space,1.4864,,1859.2769,13,52,1860.2766,1860.2766,1860.2843,,,,0,5,5,5,1,20,85,,,,,,,,
,,5c52df0c445f1d000137c6b8,65af54fcac09f8926668b55c,2024-01-23_06h07.57.090,bars,2023.2.3,Win32,59.88023952,657b66ea316d21385b68909f,,,,,,,,,,,1860.2844,1861.2766,,,1861.7767,1862.0265,,168,-12,,,,,,,,,,,,,,,,bars/011.png,bars/mask007.png,,,,,,,,,,,,4,1,,,,,,,6,4,6,4,,,,,,,,,,,1861.2766,1861.7765,1862.0266,1864.4268,space,2.384,,1864.4268,8,83,1865.4267,1865.4267,1865.4342,,,,0,6,6,6,1,160,85,,,,,,,,
,,5c52df0c445f1d000137c6b8,65af54fcac09f8926668b55c,2024-01-23_06h07.57.090,bars,2023.2.3,Win32,59.88023952,657b66ea316d21385b68909f,,,,,,,,,,,1865.4343,1866.4267,,,1866.9266,1867.1767,,26,206,,,,,,,,,,,,,,,,bars/048.png,bars/mask000.png,,,,,,,,,,,,2,1,,,,,,,8,6,9,6,,,,,,,,,,,1866.4267,1866.9265,1867.1767,1871.6937,space,4.5079,,1871.6937,24,31,1872.6936,1872.6937,1872.7014,,,,0,7,7,7,1,50,175,,,,,,,,
,,5c52df0c445f1d000137c6b8,65af54fcac09f8926668b55c,2024-01-23_06h07.57.090,bars,2023.2.3,Win32,59.88023952,657b66ea316d21385b68909f,,,,,,,,,,,1872.7017,1873.6938,,,1874.1937,1874.4434,,130,130,,,,,,,,,,,,,,,,bars/034.png,bars/mask005.png,,,,,,,,,,,,8,1,,,,,,,10,8,10,8,,,,,,,,,,,1873.6938,1874.1937,1874.4434,1875.9938,space,1.5431,,1875.9939,5,65,1876.9937,1876.9937,1876.9944,,,,0,8,8,8,1,125,65,,,,,,,,
,,5c52df0c445f1d000137c6b8,65af54fcac09f8926668b55c,2024-01-23_06h07.57.090,bars,2023.2.3,Win32,59.88023952,657b66ea316d21385b68909f,,,,,,,,,,,1876.9945,1877.9936,,,1878.4937,1878.7437,,176,-4,,,,,,,,,,,,,,,,bars/007.png,bars/mask003.png,,,,,,,,,,,,6,1,,,,,,,8,10,6,10,,,,,,,,,,,1877.9936,1878.4937,1878.7438,1883.1272,space,4.3737,,1883.1272,1,59,1884.1271,1884.1271,1884.1341,,,,0,9,9,9,1,175,55,,,,,,,,
,,5c52df0c445f1d000137c6b8,65af54fcac09f8926668b55c,2024-01-23_06h07.57.090,bars,2023.2.3,Win32,59.88023952,657b66ea316d21385b68909f,,,,,,,,,,,1884.1343,1885.1273,,,1885.6273,1885.8772,,59,59,,,,,,,,,,,,,,,,bars/019.png,bars/mask006.png,,,,,,,,,,,,5,1,,,,,,,10,10,10,10,,,,,,,,,,,1885.1274,1885.6273,1885.8773,1887.9605,space,2.072,,1887.9606,14,46,1888.9606,1888.9607,1888.9678,,,,0,10,10,10,1,45,105,,,,,,,,
,,5c52df0c445f1d000137c6b8,65af54fcac09f8926668b55c,2024-01-23_06h07.57.090,bars,2023.2.3,Win32,59.88023952,657b66ea316d21385b68909f,,,,,,,,,,,1888.9679,1889.9606,,,1890.4608,1890.7105,,102,102,,,,,,,,,,,,,,,,bars/014.png,bars/mask002.png,,,,,,,,,,,,2,1,,,,,,,8,10,9,10,,,,,,,,,,,1889.9606,1890.4608,1890.7106,1895.0275,space,4.3054,,1895.0275,22,78,1896.0276,1896.0276,1896.0346,,,,0,11,11,11,1,80,0,,,,,,,,
,,5c52df0c445f1d000137c6b8,65af54fcac09f8926668b55c,2024-01-23_06h07.57.090,bars,2023.2.3,Win32,59.88023952,657b66ea316d21385b68909f,,,,,,,,,,,1896.0347,1897.0274,,,1897.5276,1897.7775,,141,141,,,,,,,,,,,,,,,,bars/046.png,bars/mask008.png,,,,,,,,,,,,4,1,,,,,,,10,8,8,7,,,,,,,,,,,1897.0275,1897.5276,1897.7775,1900.7277,space,2.9333,,1900.7277,14,56,1901.7277,1901.7277,1901.7347,,,,0,12,12,12,1,155,85,,,,,,,,
,,5c52df0c445f1d000137c6b8,65af54fcac09f8926668b55c,2024-01-23_06h07.57.090,bars,2023.2.3,Win32,59.88023952,657b66ea316d21385b68909f,,,,,,,,,,,1901.7348,1902.7276,,,1903.2276,1903.4777,,81,81,,,,,,,,,,,,,,,,bars/044.png,bars/mask000.png,,,,,,,,,,,,8,1,,,,,,,10,6,10,6,,,,,,,,,,,1902.7277,1903.2276,1903.4777,1905.8278,space,2.3348,,1905.8278,6,74,1906.8277,1906.8277,1906.8345,,,,0,13,13,13,1,75,155,,,,,,,,
,,5c52df0c445f1d000137c6b8,65af54fcac09f8926668b55c,2024-01-23_06h07.57.090,bars,2023.2.3,Win32,59.88023952,657b66ea316d21385b68909f,,,,,,,,,,,1906.8346,1907.8277,,,1908.3277,1908.5778,,175,175,,,,,,,,,,,,,,,,bars/009.png,bars/mask008.png,,,,,,,,,,,,3,1,,,,,,,8,4,9,4,,,,,,,,,,,1907.8277,1908.3276,1908.5778,1911.1129,space,2.5277,,1911.1129,20,70,1912.1112,1912.1112,1912.1118,,,,0,14,14,14,1,15,105,,,,,,,,
,,5c52df0c445f1d000137c6b8,65af54fcac09f8926668b55c,2024-01-23_06h07.57.090,bars,2023.2.3,Win32,59.88023952,657b66ea316d21385b68909f,,,,,,,,,,,1912.112,1913.1113,,,1913.6113,1913.8615,,135,135,,,,,,,,,,,,,,,,bars/001.png,bars/mask008.png,,,,,,,,,,,,8,1,,,,,,,10,2,10,2,,,,,,,,,,,1913.1113,1913.6113,1913.8615,1915.5283,space,1.6599,,1915.5283,5,50,1916.5279,1916.5279,1916.5349,,,,0,15,15,15,1,130,85,,,,,,,,
,,5c52df0c445f1d000137c6b8,65af54fcac09f8926668b55c,2024-01-23_06h07.57.090,bars,2023.2.3,Win32,59.88023952,657b66ea316d21385b68909f,,,,,,,,,,,1916.535,1917.5282,,,1918.0283,1918.2779,,67,67,,,,,,,,,,,,,,,,bars/019.png,bars/mask005.png,,,,,,,,,,,,2,1,,,,,,,8,0,9,1,,,,,,,,,,,1917.5282,1918.0282,1918.2779,1921.895,space,3.6095,,1921.895,22,38,1922.8949,1922.8949,1922.9018,,,,0,16,16,16,1,45,105,,,,,,,,
,,5c52df0c445f1d000137c6b8,65af54fcac09f8926668b55c,2024-01-23_06h07.57.090,bars,2023.2.3,Win32,59.88023952,657b66ea316d21385b68909f,,,,,,,,,,,1922.902,1923.8949,,,1924.395,1924.645,,133,133,,,,,,,,,,,,,,,,bars/031.png,bars/mask002.png,,,,,,,,,,,,6,1,,,,,,,10,0,10,0,,,,,,,,,,,1923.8949,1924.395,1924.645,1926.2619,space,1.5999,,1926.2619,13,82,1927.2616,1927.2617,1927.2624,,,,0,17,17,17,1,120,35,,,,,,,,
,,5c52df0c445f1d000137c6b8,65af54fcac09f8926668b55c,2024-01-23_06h07.57.090,bars,2023.2.3,Win32,59.88023952,657b66ea316d21385b68909f,,,,,,,,,,,1927.2626,1928.2618,,,1928.7618,1929.0116,,33,33,,,,,,,,,,,,,,,,bars/048.png,bars/mask007.png,,,,,,,,,,,,4,1,,,,,,,10,2,10,4,,,,,,,,,,,1928.2618,1928.7618,1929.0117,1931.2619,space,2.2397,,1931.262,17,38,1932.2617,1932.2618,1932.269,,,,0,18,18,18,1,50,175,,,,,,,,
,,5c52df0c445f1d000137c6b8,65af54fcac09f8926668b55c,2024-01-23_06h07.57.090,bars,2023.2.3,Win32,59.88023952,657b66ea316d21385b68909f,,,,,,,,,,,1932.269,1933.2619,,,1933.7619,1934.0119,,152,152,,,,,,,,,,,,,,,,bars/021.png,bars/mask007.png,,,,,,,,,,,,7,1,,,,,,,8,4,8,4,,,,,,,,,,,1933.2619,1933.7619,1934.0119,1935.8454,space,1.8165,,1935.8454,3,82,1936.8453,1936.8453,1936.8522,,,,0,19,19,19,1,155,70,,,,,,,,
,,5c52df0c445f1d000137c6b8,65af54fcac09f8926668b55c,2024-01-23_06h07.57.090,bars,2023.2.3,Win32,59.88023952,657b66ea316d21385b68909f,,,,,,,,,,,1936.8523,1937.8454,,,1938.3456,1938.5954,,162,-18,,,,,,,,,,,,,,,,bars/036.png,bars/mask008.png,,,,,,,,,,,,4,1,,,,,,,10,6,9,5,,,,,,,,,,,1937.8454,1938.3455,1938.5954,1941.0288,space,2.4173,,1941.0288,17,38,1942.0288,1942.0289,1942.0295,,,,0,20,20,20,1,145,20,,,,,,,,
,,5c52df0c445f1d000137c6b8,65af54fcac09f8926668b55c,2024-01-23_06h07.57.090,bars,2023.2.3,Win32,59.88023952,657b66ea316d21385b68909f,,,,,,,,,,,1942.0297,1943.0288,,,1943.5289,1943.7785,,21,21,,,,,,,,,,,,,,,,bars/004.png,bars/mask001.png,,,,,,,,,,,,8,1,,,,,,,8,4,9,4,,,,,,,,,,,1943.0288,1943.5289,1943.7785,1946.4124,space,2.6243,,1946.4124,4,76,1947.4122,1947.4123,1947.4193,,,,0,21,21,21,1,25,125,,,,,,,,
,,5c52df0c445f1d000137c6b8,65af54fcac09f8926668b55c,2024-01-23_06h07.57.090,bars,2023.2.3,Win32,59.88023952,657b66ea316d21385b68909f,,,,,,,,,,,1947.4193,1948.4123,,,1948.9124,1949.162,,148,-32,,,,,,,,,,,,,,,,bars/042.png,bars/mask002.png,,,,,,,,,,,,7,1,,,,,,,6,6,8,5,,,,,,,,,,,1948.4124,1948.9123,1949.1621,1952.2125,space,3.0333,,1952.2125,3,73,1953.2124,1953.2124,1953.2196,,,,0,22,22,22,1,145,75,,,,,,,,
,,5c52df0c445f1d000137c6b8,65af54fcac09f8926668b55c,2024-01-23_06h07.57.090,bars,2023.2.3,Win32,59.88023952,657b66ea316d21385b68909f,,,,,,,,,,,1953.2197,1954.2125,,,1954.7124,1954.9624,,143,-37,,,,,,,,,,,,,,,,bars/040.png,bars/mask007.png,,,,,,,,,,,,7,1,,,,,,,8,4,8,2,,,,,,,,,,,1954.2125,1954.7124,1954.9625,1958.3295,space,3.362,,1958.3295,3,42,1959.3291,1959.3292,1959.3365,,,,0,23,23,23,1,140,5,,,,,,,,
,,5c52df0c445f1d000137c6b8,65af54fcac09f8926668b55c,2024-01-23_06h07.57.090,bars,2023.2.3,Win32,59.88023952,657b66ea316d21385b68909f,,,,,,,,,,,1959.3366,1960.3292,,,1960.8293,1961.079,,143,-37,,,,,,,,,,,,,,,,bars/040.png,bars/mask003.png,,,,,,,,,,,,9,1,,,,,,,10,6,10,6,,,,,,,,,,,1960.3293,1960.8293,1961.079,1964.1626,space,3.0769,,1964.1627,3,42,1965.1627,1965.1627,1965.1703,,,,0,24,24,24,1,140,5,,,,,,,,
,,5c52df0c445f1d000137c6b8,65af54fcac09f8926668b55c,2024-01-23_06h07.57.090,bars,2023.2.3,Win32,59.88023952,657b66ea316d21385b68909f,,,,,,,,,,,1965.1705,1966.1629,,,1966.6629,1966.9126,,62,62,,,,,,,,,,,,,,,,bars/019.png,bars/mask006.png,,,,,,,,,,,,3,1,,,,,,,8,4,7,4,,,,,,,,,,,1966.163,1966.6628,1966.9127,1968.8461,space,1.9237,,1968.8462,17,43,1969.8461,1969.8462,1969.8467,,,,0,25,25,25,1,45,105,,,,,,,,
,,5c52df0c445f1d000137c6b8,65af54fcac09f8926668b55c,2024-01-23_06h07.57.090,bars,2023.2.3,Win32,59.88023952,657b66ea316d21385b68909f,,,,,,,,,,,1969.8469,1970.8462,,,1971.3463,1971.5963,,4,4,,,,,,,,,,,,,,,,bars/003.png,bars/mask003.png,,,,,,,,,,,,3,1,,,,,,,10,6,9,6,,,,,,,,,,,1970.8462,1971.3463,1971.5963,1974.013,space,2.401,,1974.0131,21,44,1975.0131,1975.0131,1975.0204,,,,0,26,26,26,1,25,140,,,,,,,,
,,5c52df0c445f1d000137c6b8,65af54fcac09f8926668b55c,2024-01-23_06h07.57.090,bars,2023.2.3,Win32,59.88023952,657b66ea316d21385b68909f,,,,,,,,,,,1975.0205,1976.013,,,1976.5131,1976.763,,10,190,,,,,,,,,,,,,,,,bars/003.png,bars/mask008.png,,,,,,,,,,,,5,1,,,,,,,8,4,9,4,,,,,,,,,,,1976.0131,1976.5131,1976.763,1978.7631,space,1.9843,,1978.7631,15,50,1979.7634,1979.7634,1979.7639,,,,0,27,27,27,1,25,140,,,,,,,,
,,5c52df0c445f1d000137c6b8,65af54fcac09f8926668b55c,2024-01-23_06h07.57.090,bars,2023.2.3,Win32,59.88023952,657b66ea316d21385b68909f,,,,,,,,,,,1979.7641,1980.7632,,,1981.2631,1981.5131,,91,-89,,,,,,,,,,,,,,,,bars/022.png,bars/mask000.png,,,,,,,,,,,,5,1,,,,,,,6,6,6,6,,,,,,,,,,,1980.7632,1981.2631,1981.5132,1985.6133,space,4.0902,,1985.6133,4,71,1986.6134,1986.6135,1986.6208,,,,0,28,28,28,1,95,20,,,,,,,,
,,5c52df0c445f1d000137c6b8,65af54fcac09f8926668b55c,2024-01-23_06h07.57.090,bars,2023.2.3,Win32,59.88023952,657b66ea316d21385b68909f,,,,,,,,,,,1986.6208,1987.6133,,,1988.1136,1988.3635,,36,216,,,,,,,,,,,,,,,,bars/028.png,bars/mask003.png,,,,,,,,,,,,2,1,,,,,,,4,4,3,5,,,,,,,,,,,1987.6133,1988.1135,1988.3635,1991.1467,space,2.7681,,1991.1468,9,84,1992.1467,1992.1467,1992.1538,,,,0,29,29,29,1,45,120,,,,,,,,
,,5c52df0c445f1d000137c6b8,65af54fcac09f8926668b55c,2024-01-23_06h07.57.090,bars,2023.2.3,Win32,59.88023952,657b66ea316d21385b68909f,,,,,,,,,,,1992.1539,1993.1469,,,1993.6469,1993.8969,,125,125,,,,,,,,,,,,,,,,bars/037.png,bars/mask004.png,,,,,,,,,,,,1,2,,,,,,,2,2,1,2,,,,,,,,,,,1993.147,1993.6469,1993.8969,1996.4469,space,2.5366,,1996.447,25,20,1997.4469,1997.4469,1997.4548,,,,0,30,30,30,1,150,105,,,,,,,,
,,5c52df0c445f1d000137c6b8,65af54fcac09f8926668b55c,2024-01-23_06h07.57.090,bars,2023.2.3,Win32,59.88023952,657b66ea316d21385b68909f,,,,,,,,,,,1997.455,1998.4468,,,1998.9471,1999.1971,,179,-1,,,,,,,,,,,,,,,,bars/033.png,bars/mask001.png,,,,,,,,,,,,1,2,,,,,,,4,4,4,3,,,,,,,,,,,1998.4468,1998.9471,1999.1971,2003.7972,space,4.5934,,2003.7973,26,24,2004.7971,2004.7972,2004.8042,,,,0,31,31,31,1,25,155,,,,,,,,
,,5c52df0c445f1d000137c6b8,65af54fcac09f8926668b55c,2024-01-23_06h07.57.090,bars,2023.2.3,Win32,59.88023952,657b66ea316d21385b68909f,,,,,,,,,,,2004.8043,2005.7972,,,2006.2972,2006.5473,,22,202,,,,,,,,,,,,,,,,bars/048.png,bars/mask003.png,,,,,,,,,,,,0,2,,,,,,,2,2,2,1,,,,,,,,,,,2005.7972,2006.2972,2006.5473,2009.6641,space,3.1006,,2009.6641,28,27,2010.6638,2010.6639,2010.6709,,,,0,32,32,32,1,50,175,,,,,,,,
,,5c52df0c445f1d000137c6b8,65af54fcac09f8926668b55c,2024-01-23_06h07.57.090,bars,2023.2.3,Win32,59.88023952,657b66ea316d21385b68909f,,,,,,,,,,,2010.6711,2011.6638,,,2012.164,2012.414,,3,3,,,,,,,,,,,,,,,,bars/013.png,bars/mask009.png,,,,,,,,,,,,3,2,,,,,,,4,4,4,4,,,,,,,,,,,2011.6639,2012.164,2012.4141,2013.4473,space,1.0237,,2013.4474,72,7,2014.4471,2014.4471,2014.4546,,,,0,33,33,33,1,75,10,,,,,,,,
,,5c52df0c445f1d000137c6b8,65af54fcac09f8926668b55c,2024-01-23_06h07.57.090,bars,2023.2.3,Win32,59.88023952,657b66ea316d21385b68909f,,,,,,,,,,,2014.4546,2015.4473,,,2015.9472,2016.1975,,83,83,,,,,,,,,,,,,,,,bars/038.png,bars/mask002.png,,,,,,,,,,,,2,2,,,,,,,6,6,5,4,,,,,,,,,,,2015.4473,2015.9471,2016.1975,2018.431,space,2.2174,,2018.431,82,13,2019.4308,2019.4309,2019.4379,,,,0,34,34,34,1,165,70,,,,,,,,
,,5c52df0c445f1d000137c6b8,65af54fcac09f8926668b55c,2024-01-23_06h07.57.090,bars,2023.2.3,Win32,59.88023952,657b66ea316d21385b68909f,,,,,,,,,,,2019.4382,2020.4306,,,2020.9309,2021.1807,,55,55,,,,,,,,,,,,,,,,bars/047.png,bars/mask001.png,,,,,,,,,,,,2,2,,,,,,,4,4,5,3,,,,,,,,,,,2020.4306,2020.9309,2021.1807,2023.9144,space,2.7174,,2023.9144,40,15,2024.9143,2024.9143,2024.9213,,,,0,35,35,35,1,15,70,,,,,,,,
,,5c52df0c445f1d000137c6b8,65af54fcac09f8926668b55c,2024-01-23_06h07.57.090,bars,2023.2.3,Win32,59.88023952,657b66ea316d21385b68909f,,,,,,,,,,,2024.9214,2025.9143,,,2026.4145,2026.6645,,177,-3,,,,,,,,,,,,,,,,bars/024.png,bars/mask001.png,,,,,,,,,,,,2,2,,,,,,,2,2,3,2,,,,,,,,,,,2025.9144,2026.4143,2026.6645,2028.9144,space,2.2421,,2028.9145,57,7,2029.9142,2029.9142,2029.9148,,,,0,36,36,36,1,120,170,,,,,,,,
,,5c52df0c445f1d000137c6b8,65af54fcac09f8926668b55c,2024-01-23_06h07.57.090,bars,2023.2.3,Win32,59.88023952,657b66ea316d21385b68909f,,,,,,,,,,,2029.915,2030.9145,,,2031.4146,2031.6645,,146,146,,,,,,,,,,,,,,,,bars/005.png,bars/mask005.png,,,,,,,,,,,,0,2,,,,,,,0,0,0,0,,,,,,,,,,,2030.9145,2031.4146,2031.6645,2033.1144,space,1.4368,,2033.1146,44,6,2034.1146,2034.1146,2034.1152,,,,0,37,37,37,1,10,140,,,,,,,,
,,5c52df0c445f1d000137c6b8,65af54fcac09f8926668b55c,2024-01-23_06h07.57.090,bars,2023.2.3,Win32,59.88023952,657b66ea316d21385b68909f,,,,,,,,,,,2034.1154,2035.1143,,,2035.6147,2035.8646,,160,-20,,,,,,,,,,,,,,,,bars/015.png,bars/mask003.png,,,,,,,,,,,,2,2,,,,,,,2,2,2,2,,,,,,,,,,,2035.1144,2035.6146,2035.8646,2039.0815,space,3.2,,2039.0815,50,0,2040.0813,2040.0813,2040.0891,,,,0,38,38,38,1,110,160,,,,,,,,
,,5c52df0c445f1d000137c6b8,65af54fcac09f8926668b55c,2024-01-23_06h07.57.090,bars,2023.2.3,Win32,59.88023952,657b66ea316d21385b68909f,,,,,,,,,,,2040.0893,2041.0815,,,2041.5815,2041.8315,,177,-3,,,,,,,,,,,,,,,,bars/013.png,bars/mask001.png,,,,,,,,,,,,3,2,,,,,,,4,4,6,5,,,,,,,,,,,2041.0815,2041.5815,2041.8315,2044.7981,space,2.9557,,2044.7982,78,13,2045.7982,2045.7982,2045.8056,,,,0,39,39,39,1,75,10,,,,,,,,
,,5c52df0c445f1d000137c6b8,65af54fcac09f8926668b55c,2024-01-23_06h07.57.090,bars,2023.2.3,Win32,59.88023952,657b66ea316d21385b68909f,,,,,,,,,,,2045.8058,2046.7983,,,2047.2983,2047.5483,,171,-9,,,,,,,,,,,,,,,,bars/014.png,bars/mask000.png,,,,,,,,,,,,1,2,,,,,,,2,2,2,2,,,,,,,,,,,2046.7984,2047.2983,2047.5484,2049.9651,space,2.4045,,2049.9652,89,9,2050.965,2050.965,2050.972,,,,0,40,40,40,1,80,0,,,,,,,,
,,5c52df0c445f1d000137c6b8,65af54fcac09f8926668b55c,2024-01-23_06h07.57.090,bars,2023.2.3,Win32,59.88023952,657b66ea316d21385b68909f,,,,,,,,,,,2050.9722,2051.9651,,,2052.465,2052.7153,,69,69,,,,,,,,,,,,,,,,bars/030.png,bars/mask005.png,,,,,,,,,,,,2,2,,,,,,,4,4,2,2,,,,,,,,,,,2051.9652,2052.465,2052.7153,2054.3651,space,1.6357,,2054.3651,71,4,2055.3652,2055.3652,2055.3659,,,,0,41,41,41,1,140,65,,,,,,,,
,,5c52df0c445f1d000137c6b8,65af54fcac09f8926668b55c,2024-01-23_06h07.57.090,bars,2023.2.3,Win32,59.88023952,657b66ea316d21385b68909f,,,,,,,,,,,2055.366,2056.3652,,,2056.8652,2057.1151,,177,-3,,,,,,,,,,,,,,,,bars/013.png,bars/mask000.png,,,,,,,,,,,,4,2,,,,,,,2,6,1,7,,,,,,,,,,,2056.3652,2056.8652,2057.1151,2058.7318,space,1.6005,,2058.7318,78,13,2059.7319,2059.7319,2059.7325,,,,0,42,42,42,1,75,10,,,,,,,,
,,5c52df0c445f1d000137c6b8,65af54fcac09f8926668b55c,2024-01-23_06h07.57.090,bars,2023.2.3,Win32,59.88023952,657b66ea316d21385b68909f,,,,,,,,,,,2059.7328,2060.7319,,,2061.2318,2061.4819,,103,103,,,,,,,,,,,,,,,,bars/037.png,bars/mask008.png,,,,,,,,,,,,7,2,,,,,,,0,8,0,8,,,,,,,,,,,2060.732,2061.2317,2061.482,2064.7154,space,3.2169,,2064.7155,47,2,2065.7154,2065.7154,2065.7226,,,,0,43,43,43,1,150,105,,,,,,,,
,,5c52df0c445f1d000137c6b8,65af54fcac09f8926668b55c,2024-01-23_06h07.57.090,bars,2023.2.3,Win32,59.88023952,657b66ea316d21385b68909f,,,,,,,,,,,2065.7228,2066.7155,,,2067.2156,2067.4652,,7,187,,,,,,,,,,,,,,,,bars/032.png,bars/mask000.png,,,,,,,,,,,,3,2,,,,,,,0,6,1,5,,,,,,,,,,,2066.7155,2067.2156,2067.4652,2070.7323,space,3.2564,,2070.7323,62,13,2071.7322,2071.7323,2071.7397,,,,0,44,44,44,1,125,20,,,,,,,,
,,5c52df0c445f1d000137c6b8,65af54fcac09f8926668b55c,2024-01-23_06h07.57.090,bars,2023.2.3,Win32,59.88023952,657b66ea316d21385b68909f,,,,,,,,,,,2071.7398,2072.7321,,,2073.2324,2073.4823,,47,47,,,,,,,,,,,,,,,,bars/035.png,bars/mask003.png,,,,,,,,,,,,3,2,,,,,,,2,4,1,5,,,,,,,,,,,2072.7321,2073.2324,2073.4823,2076.2824,space,2.7942,,2076.2824,52,13,2077.2826,2077.2826,2077.2895,,,,0,45,45,45,1,175,60,,,,,,,,
,,5c52df0c445f1d000137c6b8,65af54fcac09f8926668b55c,2024-01-23_06h07.57.090,bars,2023.2.3,Win32,59.88023952,657b66ea316d21385b68909f,,,,,,,,,,,2077.2896,2078.2823,,,2078.7825,2079.0323,,47,227,,,,,,,,,,,,,,,,bars/035.png,bars/mask008.png,,,,,,,,,,,,2,2,,,,,,,4,2,3,3,,,,,,,,,,,2078.2823,2078.7825,2079.0324,2083.1159,space,4.0711,,2083.116,52,13,2084.1157,2084.1157,2084.1228,,,,0,46,46,46,1,175,60,,,,,,,,
,,5c52df0c445f1d000137c6b8,65af54fcac09f8926668b55c,2024-01-23_06h07.57.090,bars,2023.2.3,Win32,59.88023952,657b66ea316d21385b68909f,,,,,,,,,,,2084.123,2085.1159,,,2085.6161,2085.8661,,68,68,,,,,,,,,,,,,,,,bars/028.png,bars/mask006.png,,,,,,,,,,,,2,1,,,,,,,6,4,7,4,,,,,,,,,,,2085.1159,2085.6161,2085.8661,2087.2491,space,1.3758,,2087.2492,23,52,2088.2493,2088.2493,2088.2508,,,,0,47,47,47,1,45,120,,,,,,,,
,,5c52df0c445f1d000137c6b8,65af54fcac09f8926668b55c,2024-01-23_06h07.57.090,bars,2023.2.3,Win32,59.88023952,657b66ea316d21385b68909f,,,,,,,,,,,2088.251,2089.2494,,,2089.7493,2089.9995,,67,67,,,,,,,,,,,,,,,,bars/029.png,bars/mask009.png,,,,,,,,,,,,1,2,,,,,,,4,2,4,2,,,,,,,,,,,2089.2494,2089.7493,2089.9995,2092.4828,space,2.4724,,2092.4828,23,22,2093.4825,2093.4825,2093.4905,,,,0,48,48,48,1,90,45,,,,,,,,
,,5c52df0c445f1d000137c6b8,65af54fcac09f8926668b55c,2024-01-23_06h07.57.090,bars,2023.2.3,Win32,59.88023952,657b66ea316d21385b68909f,,,,,,,,,,,2093.4906,2094.483,,,2094.9829,2095.2328,,113,113,,,,,,,,,,,,,,,,bars/015.png,bars/mask008.png,,,,,,,,,,,,5,1,,,,,,,6,4,6,5,,,,,,,,,,,2094.483,2094.9829,2095.2329,2098.8996,space,3.6507,,2098.8997,3,47,2099.8997,2099.8997,2099.9077,,,,0,49,49,49,1,110,160,,,,,,,,
,,5c52df0c445f1d000137c6b8,65af54fcac09f8926668b55c,2024-01-23_06h07.57.090,bars,2023.2.3,Win32,59.88023952,657b66ea316d21385b68909f,,,,,,,,,,,,,,,,,,,,,,,,,,,,,,,,,,,,,,,,,,,,,,,,,,,,,,,,,,,,,,,,,,,,,,,,,,,,,,,,,,,,,,,,,,,,,2099.9078,2159.9013,0,3,3,1,1,sequence_tables/blk048.csv
,,5c52df0c445f1d000137c6b8,65af54fcac09f8926668b55c,2024-01-23_06h07.57.090,bars,2023.2.3,Win32,59.88023952,657b66ea316d21385b68909f,,,,,,,,,,,2179.029,2180.0186,,,2180.5185,2180.7686,,82,82,,,,,,,,,,,,,,,,bars/002.png,bars/mask008.png,,,,,,,,,,,,0,2,,,,,,,4,1,3,0,,,,,,2159.9083,2179.0184,space,19.1035,,2180.0186,2180.5185,2180.7686,2183.6853,space,2.8998,,2183.6854,48,3,2184.6851,2184.6851,2184.6928,,,,0,0,0,0,1,130,85,,,,,,,,
,,5c52df0c445f1d000137c6b8,65af54fcac09f8926668b55c,2024-01-23_06h07.57.090,bars,2023.2.3,Win32,59.88023952,657b66ea316d21385b68909f,,,,,,,,,,,2184.6931,2185.6853,,,2186.1852,2186.4352,,55,55,,,,,,,,,,,,,,,,bars/034.png,bars/mask002.png,,,,,,,,,,,,0,2,,,,,,,6,0,5,0,,,,,,,,,,,2185.6854,2186.1852,2186.4353,2188.3189,space,1.8742,,2188.3189,70,10,2189.3189,2189.3189,2189.3256,,,,0,1,1,1,1,125,65,,,,,,,,
,,5c52df0c445f1d000137c6b8,65af54fcac09f8926668b55c,2024-01-23_06h07.57.090,bars,2023.2.3,Win32,59.88023952,657b66ea316d21385b68909f,,,,,,,,,,,2189.3258,2190.3186,,,2190.8189,2191.0689,,167,-13,,,,,,,,,,,,,,,,bars/007.png,bars/mask004.png,,,,,,,,,,,,3,1,,,,,,,4,0,4,3,,,,,,,,,,,2190.3186,2190.8188,2191.0689,2192.4529,space,1.3793,,2192.4529,8,68,2193.4526,2193.4526,2193.461,,,,0,2,2,2,1,175,55,,,,,,,,
,,5c52df0c445f1d000137c6b8,65af54fcac09f8926668b55c,2024-01-23_06h07.57.090,bars,2023.2.3,Win32,59.88023952,657b66ea316d21385b68909f,,,,,,,,,,,2193.4612,2194.4523,,,2194.9526,2195.2023,,122,122,,,,,,,,,,,,,,,,bars/030.png,bars/mask009.png,,,,,,,,,,,,1,1,,,,,,,2,2,3,1,,,,,,,,,,,2194.4523,2194.9525,2195.2024,2197.1522,space,1.9406,,2197.1522,18,57,2198.1523,2198.1524,2198.1593,,,,0,3,3,3,1,140,65,,,,,,,,
,,5c52df0c445f1d000137c6b8,65af54fcac09f8926668b55c,2024-01-23_06h07.57.090,bars,2023.2.3,Win32,59.88023952,657b66ea316d21385b68909f,,,,,,,,,,,2198.1594,2199.1524,,,2199.6527,2199.9025,,41,41,,,,,,,,,,,,,,,,bars/028.png,bars/mask006.png,,,,,,,,,,,,3,1,,,,,,,4,4,4,4,,,,,,,,,,,2199.1524,2199.6526,2199.9025,2200.886,space,0.9677,,2200.8861,4,79,2201.8856,2201.8856,2201.8861,,,,0,4,4,4,1,45,120,,,,,,,,
,,5c52df0c445f1d000137c6b8,65af54fcac09f8926668b55c,2024-01-23_06h07.57.090,bars,2023.2.3,Win32,59.88023952,657b66ea316d21385b68909f,,,,,,,,,,,2201.8862,2202.8858,,,2203.3856,2203.6359,,5,5,,,,,,,,,,,,,,,,bars/009.png,bars/mask004.png,,,,,,,,,,,,1,1,,,,,,,2,6,2,6,,,,,,,,,,,2202.8858,2203.3856,2203.6359,2206.7694,space,3.1167,,2206.7694,10,80,2207.7693,2207.7693,2207.7765,,,,0,5,5,5,1,15,105,,,,,,,,
,,5c52df0c445f1d000137c6b8,65af54fcac09f8926668b55c,2024-01-23_06h07.57.090,bars,2023.2.3,Win32,59.88023952,657b66ea316d21385b68909f,,,,,,,,,,,2207.7765,2208.7692,,,2209.2695,2209.5193,,4,4,,,,,,,,,,,,,,,,bars/009.png,bars/mask009.png,,,,,,,,,,,,3,1,,,,,,,4,4,5,4,,,,,,,,,,,2208.7692,2209.2695,2209.5194,2211.2028,space,1.6776,,2211.2029,11,79,2212.2028,2212.2028,2212.2031,,,,0,6,6,6,1,15,105,,,,,,,,
,,5c52df0c445f1d000137c6b8,65af54fcac09f8926668b55c,2024-01-23_06h07.57.090,bars,2023.2.3,Win32,59.88023952,657b66ea316d21385b68909f,,,,,,,,,,,2212.2032,2213.2028,,,2213.703,2213.9527,,19,19,,,,,,,,,,,,,,,,bars/016.png,bars/mask002.png,,,,,,,,,,,,0,1,,,,,,,2,6,1,5,,,,,,,,,,,2213.2029,2213.703,2213.9527,2217.5698,space,3.6003,,2217.5698,21,34,2218.5693,2218.5693,2218.5766,,,,0,7,7,7,1,40,165,,,,,,,,
,,5c52df0c445f1d000137c6b8,65af54fcac09f8926668b55c,2024-01-23_06h07.57.090,bars,2023.2.3,Win32,59.88023952,657b66ea316d21385b68909f,,,,,,,,,,,2218.5768,2219.57,,,2220.0694,2220.3196,,135,135,,,,,,,,,,,,,,,,bars/002.png,bars/mask000.png,,,,,,,,,,,,0,1,,,,,,,0,4,0,5,,,,,,,,,,,2219.57,2220.0694,2220.3196,2221.3364,space,1.0098,,2221.3365,5,50,2222.3363,2222.3364,2222.3369,,,,0,8,8,8,1,130,85,,,,,,,,
,,5c52df0c445f1d000137c6b8,65af54fcac09f8926668b55c,2024-01-23_06h07.57.090,bars,2023.2.3,Win32,59.88023952,657b66ea316d21385b68909f,,,,,,,,,,,2222.337,2223.3362,,,2223.8363,2224.0865,,112,112,,,,,,,,,,,,,,,,bars/039.png,bars/mask009.png,,,,,,,,,,,,4,2,,,,,,,2,6,3,5,,,,,,,,,,,2223.3362,2223.8363,2224.0865,2227.5201,space,3.4243,,2227.5201,63,7,2228.5197,2228.5197,2228.5279,,,,0,9,9,9,1,175,105,,,,,,,,
,,5c52df0c445f1d000137c6b8,65af54fcac09f8926668b55c,2024-01-23_06h07.57.090,bars,2023.2.3,Win32,59.88023952,657b66ea316d21385b68909f,,,,,,,,,,,2228.5281,2229.5196,,,2230.0199,2230.2699,,6,6,,,,,,,,,,,,,,,,bars/016.png,bars/mask008.png,,,,,,,,,,,,2,2,,,,,,,4,8,7,8,,,,,,,,,,,2229.5197,2230.0199,2230.2699,2233.0533,space,2.7788,,2233.0533,34,21,2234.0533,2234.0533,2234.0606,,,,0,10,10,10,1,40,165,,,,,,,,
