init_variables.started,init_variables.stopped,participant,session,date,expName,psychopyVersion,OS,frameRate,study_id,instruction_exp.started,instruction_exp.stopped,key_resp_8.keys,key_resp_8.rt,key_resp_8.duration,instruction_single.started,instruction_single.stopped,key_resp_2.keys,key_resp_2.rt,key_resp_2.duration,interval.started,interval.stopped,cue_single.started,cue_single.stopped,mask.started,mask.stopped,ori_response_single.started,res_ori,res,ori_response_single.stopped,key_resp_single.keys,key_resp_single.rt,key_resp_single.duration,disp_single.started,disp_single.stopped,key_resp.keys,key_resp.rt,key_resp.duration,single.thisRepN,single.thisTrialN,single.thisN,single.thisIndex,single.ran,ori,path,mask_path,instruction_bandit.started,instruction_bandit.stopped,key_resp_6.keys,key_resp_6.rt,key_resp_6.duration,cue_bandit.started,cue_bandit.stopped,bandit_res.keys,bandit_res.rt,bandit_res.duration,outcome_bandit.started,rew,action,outcome_bandit.stopped,bandit.thisRepN,bandit.thisTrialN,bandit.thisN,bandit.thisIndex,bandit.ran,actual_rew1,actual_rew2,rew1,rew2,instruction_task.started,instruction_task.stopped,key_resp_7.keys,key_resp_7.rt,key_resp_7.duration,wait_ready.started,wait_ready.stopped,key_resp_3.keys,key_resp_3.rt,key_resp_3.duration,cue.started,cue.stopped,ori_response.started,ori_response.stopped,key_resp_5.keys,key_resp_5.rt,key_resp_5.duration,outcome.started,diff1,diff2,outcome.stopped,disp_outcome_practice.started,disp_outcome_practice.stopped,key_resp_4.keys,key_resp_4.rt,key_resp_4.duration,trials.thisRepN,trials.thisTrialN,trials.thisN,trials.thisIndex,trials.ran,ori1,ori2,break_blk.started,break_blk.stopped,block.thisRepN,block.thisTrialN,block.thisN,block.thisIndex,block.ran,condition_file
0.004,0.0042,65207c22fa9502e61424d55e,65af56a8ba3c4b3e693170ce,2024-01-23_19h05.46.770,bars,2023.2.3,MacIntel,59.88023952,657b66ea316d21385b68909f,,,,,,,,,,,,,,,,,,,,,,,,,,,,,,,,,,,,,,,,,,,,,,,,,,,,,,,,,,,,,,,,,,,,,,,,,,,,,,,,,,,,,,,,,,,,,,,,,,,,
,,65207c22fa9502e61424d55e,65af56a8ba3c4b3e693170ce,2024-01-23_19h05.46.770,bars,2023.2.3,MacIntel,59.88023952,657b66ea316d21385b68909f,0.0044,6.9494,y,6.9255,,,,,,,,,,,,,,,,,,,,,,,,,,,,,,,,,,,,,,,,,,,,,,,,,,,,,,,,,,,,,,,,,,,,,,,,,,,,,,,,,,,,,,,,,,,,,,,,
,,65207c22fa9502e61424d55e,65af56a8ba3c4b3e693170ce,2024-01-23_19h05.46.770,bars,2023.2.3,MacIntel,59.88023952,657b66ea316d21385b68909f,,,,,,6.9496,25.5839,space,18.6242,,,,,,,,,,,,,,,,,,,,,,,,,,,,,,,,,,,,,,,,,,,,,,,,,,,,,,,,,,,,,,,,,,,,,,,,,,,,,,,,,,,,,,,,,,,
,,65207c22fa9502e61424d55e,65af56a8ba3c4b3e693170ce,2024-01-23_19h05.46.770,bars,2023.2.3,MacIntel,59.88023952,657b66ea316d21385b68909f,,,,,,,,,,,25.589,26.5807,26.5809,27.0805,27.0807,27.3307,27.331,170,170,60.5496,space,33.1887,,60.5497,75.518,space,14.9441,,0,0,0,1,1,20,bars/single001.png,bars/mask006.png,,,,,,,,,,,,,,,,,,,,,,,,,,,,,,,,,,,,,,,,,,,,,,,,,,,,,,,,,,,,,,,,
,,65207c22fa9502e61424d55e,65af56a8ba3c4b3e693170ce,2024-01-23_19h05.46.770,bars,2023.2.3,MacIntel,59.88023952,657b66ea316d21385b68909f,,,,,,,,,,,75.5275,76.5161,76.5162,77.0185,77.0186,77.2662,77.2663,165,-15,88.3335,space,11.0536,,88.3335,98.9534,space,10.5929,,0,1,1,9,1,20,bars/single009.png,bars/mask006.png,,,,,,,,,,,,,,,,,,,,,,,,,,,,,,,,,,,,,,,,,,,,,,,,,,,,,,,,,,,,,,,,
,,65207c22fa9502e61424d55e,65af56a8ba3c4b3e693170ce,2024-01-23_19h05.46.770,bars,2023.2.3,MacIntel,59.88023952,657b66ea316d21385b68909f,,,,,,,,,,,98.9634,99.9517,99.9518,100.4532,100.4532,100.7039,100.7039,15,195,111.9198,space,11.2074,,111.9199,121.9705,space,10.0265,,0,2,2,7,1,45,bars/single007.png,bars/mask009.png,,,,,,,,,,,,,,,,,,,,,,,,,,,,,,,,,,,,,,,,,,,,,,,,,,,,,,,,,,,,,,,,
,,65207c22fa9502e61424d55e,65af56a8ba3c4b3e693170ce,2024-01-23_19h05.46.770,bars,2023.2.3,MacIntel,59.88023952,657b66ea316d21385b68909f,,,,,,,,,,,121.9801,122.9719,122.9719,123.4695,123.4696,123.7201,123.7201,16,16,134.2564,space,10.5282,,134.2564,142.8062,space,8.5234,,0,3,3,3,1,20,bars/single003.png,bars/mask005.png,,,,,,,,,,,,,,,,,,,,,,,,,,,,,,,,,,,,,,,,,,,,,,,,,,,,,,,,,,,,,,,,
,,65207c22fa9502e61424d55e,65af56a8ba3c4b3e693170ce,2024-01-23_19h05.46.770,bars,2023.2.3,MacIntel,59.88023952,657b66ea316d21385b68909f,,,,,,,,,,,142.8206,143.8065,143.8065,144.3047,144.3048,144.5567,144.5567,18,18,155.1569,space,10.5852,,155.1571,164.1078,space,8.9254,,0,4,4,2,1,145,bars/single002.png,bars/mask003.png,,,,,,,,,,,,,,,,,,,,,,,,,,,,,,,,,,,,,,,,,,,,,,,,,,,,,,,,,,,,,,,,
,,65207c22fa9502e61424d55e,65af56a8ba3c4b3e693170ce,2024-01-23_19h05.46.770,bars,2023.2.3,MacIntel,59.88023952,657b66ea316d21385b68909f,,,,,,,,,,,164.1211,165.1224,165.1225,165.6235,165.6235,165.8583,165.8584,23,23,173.3559,space,7.486,,173.356,184.5596,space,11.1772,,0,5,5,6,1,175,bars/single006.png,bars/mask005.png,,,,,,,,,,,,,,,,,,,,,,,,,,,,,,,,,,,,,,,,,,,,,,,,,,,,,,,,,,,,,,,,
,,65207c22fa9502e61424d55e,65af56a8ba3c4b3e693170ce,2024-01-23_19h05.46.770,bars,2023.2.3,MacIntel,59.88023952,657b66ea316d21385b68909f,,,,,,,,,,,184.5731,185.5756,185.5756,186.0746,186.0746,186.3247,186.3248,162,162,193.6594,space,7.3213,,193.6596,206.4595,space,12.7718,,0,6,6,5,1,55,bars/single005.png,bars/mask008.png,,,,,,,,,,,,,,,,,,,,,,,,,,,,,,,,,,,,,,,,,,,,,,,,,,,,,,,,,,,,,,,,
,,65207c22fa9502e61424d55e,65af56a8ba3c4b3e693170ce,2024-01-23_19h05.46.770,bars,2023.2.3,MacIntel,59.88023952,657b66ea316d21385b68909f,,,,,,,,,,,206.4688,207.4587,207.4588,207.9586,207.9587,208.2088,208.2088,40,40,209.9609,space,1.7426,,209.9611,214.5097,space,4.5335,,0,7,7,8,1,160,bars/single008.png,bars/mask004.png,,,,,,,,,,,,,,,,,,,,,,,,,,,,,,,,,,,,,,,,,,,,,,,,,,,,,,,,,,,,,,,,
,,65207c22fa9502e61424d55e,65af56a8ba3c4b3e693170ce,2024-01-23_19h05.46.770,bars,2023.2.3,MacIntel,59.88023952,657b66ea316d21385b68909f,,,,,,,,,,,214.5202,215.5114,215.5114,216.011,216.011,216.26,216.2601,144,-36,226.3108,space,10.0417,,226.3108,232.0097,space,5.6758,,0,8,8,0,1,150,bars/single000.png,bars/mask006.png,,,,,,,,,,,,,,,,,,,,,,,,,,,,,,,,,,,,,,,,,,,,,,,,,,,,,,,,,,,,,,,,
,,65207c22fa9502e61424d55e,65af56a8ba3c4b3e693170ce,2024-01-23_19h05.46.770,bars,2023.2.3,MacIntel,59.88023952,657b66ea316d21385b68909f,,,,,,,,,,,232.01,233.0103,233.0104,233.5103,233.5103,233.7603,233.7603,157,-23,241.6774,space,7.9028,,241.6774,243.7607,space,2.061,,0,9,9,4,1,95,bars/single004.png,bars/mask004.png,,,,,,,,,,,,,,,,,,,,,,,,,,,,,,,,,,,,,,,,,,,,,,,,,,,,,,,,,,,,,,,,
,,65207c22fa9502e61424d55e,65af56a8ba3c4b3e693170ce,2024-01-23_19h05.46.770,bars,2023.2.3,MacIntel,59.88023952,657b66ea316d21385b68909f,,,,,,,,,,,,,,,,,,,,,,,,,,,,,,,,,,,,,243.7617,257.3141,space,13.535,,,,,,,,,,,,,,,,,,,,,,,,,,,,,,,,,,,,,,,,,,,,,,,,,,,,,,,,,,,,
,,65207c22fa9502e61424d55e,65af56a8ba3c4b3e693170ce,2024-01-23_19h05.46.770,bars,2023.2.3,MacIntel,59.88023952,657b66ea316d21385b68909f,,,,,,,,,,,,,,,,,,,,,,,,,,,,,,,,,,,,,,,,,,257.3257,260.3142,right,2.9639,,260.3145,2,2,261.312,0,0,0,0,1,9,1,9,2,,,,,,,,,,,,,,,,,,,,,,,,,,,,,,,,,,,,,,,,,
,,65207c22fa9502e61424d55e,65af56a8ba3c4b3e693170ce,2024-01-23_19h05.46.770,bars,2023.2.3,MacIntel,59.88023952,657b66ea316d21385b68909f,,,,,,,,,,,,,,,,,,,,,,,,,,,,,,,,,,,,,,,,,,261.3128,263.1113,left,1.7882,,263.1113,10,1,264.1128,0,1,1,1,1,10,0,10,1,,,,,,,,,,,,,,,,,,,,,,,,,,,,,,,,,,,,,,,,,
,,65207c22fa9502e61424d55e,65af56a8ba3c4b3e693170ce,2024-01-23_19h05.46.770,bars,2023.2.3,MacIntel,59.88023952,657b66ea316d21385b68909f,,,,,,,,,,,,,,,,,,,,,,,,,,,,,,,,,,,,,,,,,,264.1262,264.7961,left,0.6601,,264.7962,10,1,265.7964,0,2,2,2,1,10,2,10,2,,,,,,,,,,,,,,,,,,,,,,,,,,,,,,,,,,,,,,,,,
,,65207c22fa9502e61424d55e,65af56a8ba3c4b3e693170ce,2024-01-23_19h05.46.770,bars,2023.2.3,MacIntel,59.88023952,657b66ea316d21385b68909f,,,,,,,,,,,,,,,,,,,,,,,,,,,,,,,,,,,,,,,,,,265.7973,266.4461,left,0.6385,,266.4462,7,1,267.446,0,3,3,3,1,8,4,7,3,,,,,,,,,,,,,,,,,,,,,,,,,,,,,,,,,,,,,,,,,
,,65207c22fa9502e61424d55e,65af56a8ba3c4b3e693170ce,2024-01-23_19h05.46.770,bars,2023.2.3,MacIntel,59.88023952,657b66ea316d21385b68909f,,,,,,,,,,,,,,,,,,,,,,,,,,,,,,,,,,,,,,,,,,267.4466,268.1305,right,0.6735,,268.1305,1,2,269.1296,0,4,4,4,1,6,2,5,1,,,,,,,,,,,,,,,,,,,,,,,,,,,,,,,,,,,,,,,,,
,,65207c22fa9502e61424d55e,65af56a8ba3c4b3e693170ce,2024-01-23_19h05.46.770,bars,2023.2.3,MacIntel,59.88023952,657b66ea316d21385b68909f,,,,,,,,,,,,,,,,,,,,,,,,,,,,,,,,,,,,,,,,,,269.1304,269.481,left,0.3352,,269.4811,4,1,270.4798,0,5,5,5,1,4,4,4,4,,,,,,,,,,,,,,,,,,,,,,,,,,,,,,,,,,,,,,,,,
,,65207c22fa9502e61424d55e,65af56a8ba3c4b3e693170ce,2024-01-23_19h05.46.770,bars,2023.2.3,MacIntel,59.88023952,657b66ea316d21385b68909f,,,,,,,,,,,,,,,,,,,,,,,,,,,,,,,,,,,,,,,,,,270.4803,270.8628,left,0.367,,270.8628,1,1,271.8628,0,6,6,6,1,2,2,1,2,,,,,,,,,,,,,,,,,,,,,,,,,,,,,,,,,,,,,,,,,
,,65207c22fa9502e61424d55e,65af56a8ba3c4b3e693170ce,2024-01-23_19h05.46.770,bars,2023.2.3,MacIntel,59.88023952,657b66ea316d21385b68909f,,,,,,,,,,,,,,,,,,,,,,,,,,,,,,,,,,,,,,,,,,271.8632,272.1623,right,0.2859,,272.1623,1,2,273.1623,0,7,7,7,1,0,0,0,1,,,,,,,,,,,,,,,,,,,,,,,,,,,,,,,,,,,,,,,,,
,,65207c22fa9502e61424d55e,65af56a8ba3c4b3e693170ce,2024-01-23_19h05.46.770,bars,2023.2.3,MacIntel,59.88023952,657b66ea316d21385b68909f,,,,,,,,,,,,,,,,,,,,,,,,,,,,,,,,,,,,,,,,,,273.1626,273.6975,right,0.5225,,273.6976,0,2,274.6964,0,8,8,8,1,0,2,1,0,,,,,,,,,,,,,,,,,,,,,,,,,,,,,,,,,,,,,,,,,
,,65207c22fa9502e61424d55e,65af56a8ba3c4b3e693170ce,2024-01-23_19h05.46.770,bars,2023.2.3,MacIntel,59.88023952,657b66ea316d21385b68909f,,,,,,,,,,,,,,,,,,,,,,,,,,,,,,,,,,,,,,,,,,274.6973,275.2471,left,0.5337,,275.2472,2,1,276.2484,0,9,9,9,1,2,4,2,3,,,,,,,,,,,,,,,,,,,,,,,,,,,,,,,,,,,,,,,,,
,,65207c22fa9502e61424d55e,65af56a8ba3c4b3e693170ce,2024-01-23_19h05.46.770,bars,2023.2.3,MacIntel,59.88023952,657b66ea316d21385b68909f,,,,,,,,,,,,,,,,,,,,,,,,,,,,,,,,,,,,,,,,,,276.2488,278.9135,left,2.6504,,278.9135,0,1,279.9148,0,10,10,10,1,0,2,0,3,,,,,,,,,,,,,,,,,,,,,,,,,,,,,,,,,,,,,,,,,
,,65207c22fa9502e61424d55e,65af56a8ba3c4b3e693170ce,2024-01-23_19h05.46.770,bars,2023.2.3,MacIntel,59.88023952,657b66ea316d21385b68909f,,,,,,,,,,,,,,,,,,,,,,,,,,,,,,,,,,,,,,,,,,279.9289,280.9135,left,0.9755,,280.9136,0,1,281.9136,0,11,11,11,1,0,4,0,3,,,,,,,,,,,,,,,,,,,,,,,,,,,,,,,,,,,,,,,,,
,,65207c22fa9502e61424d55e,65af56a8ba3c4b3e693170ce,2024-01-23_19h05.46.770,bars,2023.2.3,MacIntel,59.88023952,657b66ea316d21385b68909f,,,,,,,,,,,,,,,,,,,,,,,,,,,,,,,,,,,,,,,,,,281.9163,282.2804,right,0.354,,282.2804,6,2,283.2804,0,12,12,12,1,2,6,1,6,,,,,,,,,,,,,,,,,,,,,,,,,,,,,,,,,,,,,,,,,
,,65207c22fa9502e61424d55e,65af56a8ba3c4b3e693170ce,2024-01-23_19h05.46.770,bars,2023.2.3,MacIntel,59.88023952,657b66ea316d21385b68909f,,,,,,,,,,,,,,,,,,,,,,,,,,,,,,,,,,,,,,,,,,283.2809,283.664,right,0.3654,,283.6641,3,2,284.6638,0,13,13,13,1,0,4,1,3,,,,,,,,,,,,,,,,,,,,,,,,,,,,,,,,,,,,,,,,,
,,65207c22fa9502e61424d55e,65af56a8ba3c4b3e693170ce,2024-01-23_19h05.46.770,bars,2023.2.3,MacIntel,59.88023952,657b66ea316d21385b68909f,,,,,,,,,,,,,,,,,,,,,,,,,,,,,,,,,,,,,,,,,,284.6644,285.1807,right,0.4976,,285.1807,7,2,286.1807,0,14,14,14,1,2,6,2,7,,,,,,,,,,,,,,,,,,,,,,,,,,,,,,,,,,,,,,,,,
,,65207c22fa9502e61424d55e,65af56a8ba3c4b3e693170ce,2024-01-23_19h05.46.770,bars,2023.2.3,MacIntel,59.88023952,657b66ea316d21385b68909f,,,,,,,,,,,,,,,,,,,,,,,,,,,,,,,,,,,,,,,,,,286.1819,286.8984,right,0.7022,,286.8985,9,2,287.8975,0,15,15,15,1,4,8,3,9,,,,,,,,,,,,,,,,,,,,,,,,,,,,,,,,,,,,,,,,,
,,65207c22fa9502e61424d55e,65af56a8ba3c4b3e693170ce,2024-01-23_19h05.46.770,bars,2023.2.3,MacIntel,59.88023952,657b66ea316d21385b68909f,,,,,,,,,,,,,,,,,,,,,,,,,,,,,,,,,,,,,,,,,,287.8981,288.1808,right,0.2671,,288.1809,7,2,289.1808,0,16,16,16,1,6,6,7,7,,,,,,,,,,,,,,,,,,,,,,,,,,,,,,,,,,,,,,,,,
,,65207c22fa9502e61424d55e,65af56a8ba3c4b3e693170ce,2024-01-23_19h05.46.770,bars,2023.2.3,MacIntel,59.88023952,657b66ea316d21385b68909f,,,,,,,,,,,,,,,,,,,,,,,,,,,,,,,,,,,,,,,,,,289.1814,289.5312,right,0.3407,,289.5312,5,2,290.5311,0,17,17,17,1,8,4,9,5,,,,,,,,,,,,,,,,,,,,,,,,,,,,,,,,,,,,,,,,,
,,65207c22fa9502e61424d55e,65af56a8ba3c4b3e693170ce,2024-01-23_19h05.46.770,bars,2023.2.3,MacIntel,59.88023952,657b66ea316d21385b68909f,,,,,,,,,,,,,,,,,,,,,,,,,,,,,,,,,,,,,,,,,,290.5319,290.8808,right,0.3348,,290.8809,1,2,291.8808,0,18,18,18,1,6,2,5,1,,,,,,,,,,,,,,,,,,,,,,,,,,,,,,,,,,,,,,,,,
,,65207c22fa9502e61424d55e,65af56a8ba3c4b3e693170ce,2024-01-23_19h05.46.770,bars,2023.2.3,MacIntel,59.88023952,657b66ea316d21385b68909f,,,,,,,,,,,,,,,,,,,,,,,,,,,,,,,,,,,,,,,,,,291.8812,292.1983,left,0.3093,,292.1984,7,1,293.1989,0,19,19,19,1,8,0,7,0,,,,,,,,,,,,,,,,,,,,,,,,,,,,,,,,,,,,,,,,,
,,65207c22fa9502e61424d55e,65af56a8ba3c4b3e693170ce,2024-01-23_19h05.46.770,bars,2023.2.3,MacIntel,59.88023952,657b66ea316d21385b68909f,,,,,,,,,,,,,,,,,,,,,,,,,,,,,,,,,,,,,,,,,,,,,,,,,,,,,,,,,,,,293.1992,316.2333,space,23.0223,,,,,,,,,,,,,,,,,,,,,,,,,,,,,,,,,,,,,
,,65207c22fa9502e61424d55e,65af56a8ba3c4b3e693170ce,2024-01-23_19h05.46.770,bars,2023.2.3,MacIntel,59.88023952,657b66ea316d21385b68909f,,,,,,,,,,,317.4575,318.4517,,,318.9501,319.1996,,147,147,,,,,,,,,,,,,,,,bars/042.png,bars/mask000.png,,,,,,,,,,,,5,1,,,,,,,5,5,5,2,,,,,,316.2448,317.4515,space,1.188,,318.4519,318.95,319.1999,329.5182,space,10.2976,,329.5186,2,72,330.5173,330.5176,358.6375,space,28.0945,,0,0,0,0,1,145,75,,,,,,,,
,,65207c22fa9502e61424d55e,65af56a8ba3c4b3e693170ce,2024-01-23_19h05.46.770,bars,2023.2.3,MacIntel,59.88023952,657b66ea316d21385b68909f,,,,,,,,,,,358.6466,359.6376,,,360.1364,360.3882,,140,140,,,,,,,,,,,,,,,,bars/034.png,bars/mask005.png,,,,,,,,,,,,4,1,,,,,,,7,3,8,4,,,,,,,,,,,359.6376,360.1363,360.3883,366.8688,space,6.4709,,366.8692,15,75,367.8698,367.8699,380.0545,space,12.1565,,0,1,1,1,1,125,65,,,,,,,,
,,65207c22fa9502e61424d55e,65af56a8ba3c4b3e693170ce,2024-01-23_19h05.46.770,bars,2023.2.3,MacIntel,59.88023952,657b66ea316d21385b68909f,,,,,,,,,,,380.0634,381.0544,,,381.5539,381.8063,,161,161,,,,,,,,,,,,,,,,bars/031.png,bars/mask006.png,,,,,,,,,,,,0,1,,,,,,,5,5,4,6,,,,,,,,,,,381.0545,381.5538,381.8063,386.3397,space,4.5231,,386.34,41,54,387.3401,387.3402,397.3551,space,9.9911,,0,2,2,2,1,120,35,,,,,,,,
,,65207c22fa9502e61424d55e,65af56a8ba3c4b3e693170ce,2024-01-23_19h05.46.770,bars,2023.2.3,MacIntel,59.88023952,657b66ea316d21385b68909f,,,,,,,,,,,397.3652,398.3575,,,398.8559,399.1074,,37,37,,,,,,,,,,,,,,,,bars/028.png,bars/mask001.png,,,,,,,,,,,,5,1,,,,,,,7,7,7,7,,,,,,,,,,,398.3575,398.8558,399.1075,410.4734,space,11.3511,,410.4735,8,83,411.4726,411.4727,420.5907,space,9.0941,,0,3,3,3,1,45,120,,,,,,,,
,,65207c22fa9502e61424d55e,65af56a8ba3c4b3e693170ce,2024-01-23_19h05.46.770,bars,2023.2.3,MacIntel,59.88023952,657b66ea316d21385b68909f,,,,,,,,,,,420.6,421.5899,,,422.0913,422.34,,28,28,,,,,,,,,,,,,,,,bars/007.png,bars/mask004.png,,,,,,,,,,,,0,2,,,,,,,5,5,6,4,,,,,,,,,,,421.5899,422.0912,422.3401,425.7577,space,3.4077,,425.7578,33,27,426.7569,426.757,437.1575,space,10.3645,,0,4,4,4,1,175,55,,,,,,,,
,,65207c22fa9502e61424d55e,65af56a8ba3c4b3e693170ce,2024-01-23_19h05.46.770,bars,2023.2.3,MacIntel,59.88023952,657b66ea316d21385b68909f,,,,,,,,,,,437.1674,438.1577,,,438.6579,438.9077,,157,157,,,,,,,,,,,,,,,,bars/012.png,bars/mask009.png,,,,,,,,,,,,0,2,,,,,,,7,7,8,8,,,,,,,,,,,438.1578,438.6579,438.9078,444.3764,space,5.4529,,444.3764,67,38,445.3751,445.3751,457.7264,space,12.3199,,0,5,5,5,1,90,15,,,,,,,,
,,65207c22fa9502e61424d55e,65af56a8ba3c4b3e693170ce,2024-01-23_19h05.46.770,bars,2023.2.3,MacIntel,59.88023952,657b66ea316d21385b68909f,,,,,,,,,,,457.7381,458.7424,,,459.2424,459.4925,,55,55,,,,,,,,,,,,,,,,bars/026.png,bars/mask002.png,,,,,,,,,,,,2,1,,,,,,,9,9,7,9,,,,,,,,,,,458.7425,459.2423,459.4926,464.7603,space,5.2613,,464.7603,20,30,465.7596,465.7597,469.5449,space,3.7544,,0,6,6,6,1,35,85,,,,,,,,
,,65207c22fa9502e61424d55e,65af56a8ba3c4b3e693170ce,2024-01-23_19h05.46.770,bars,2023.2.3,MacIntel,59.88023952,657b66ea316d21385b68909f,,,,,,,,,,,469.5455,470.5427,,,471.0432,471.2936,,156,156,,,,,,,,,,,,,,,,bars/038.png,bars/mask004.png,,,,,,,,,,,,7,1,,,,,,,10,10,10,8,,,,,,,,,,,470.5428,471.0431,471.2937,474.4438,space,3.1337,,474.4438,9,86,475.4427,475.4428,483.5608,space,8.0996,,0,7,7,7,1,165,70,,,,,,,,
,,65207c22fa9502e61424d55e,65af56a8ba3c4b3e693170ce,2024-01-23_19h05.46.770,bars,2023.2.3,MacIntel,59.88023952,657b66ea316d21385b68909f,,,,,,,,,,,483.5703,484.5617,,,485.061,485.3111,,149,-31,,,,,,,,,,,,,,,,bars/032.png,bars/mask007.png,,,,,,,,,,,,2,1,,,,,,,10,10,10,10,,,,,,,,,,,484.5618,485.0609,485.3111,493.0451,space,7.7192,,493.0452,24,51,494.0449,494.045,496.1107,space,2.0404,,0,8,8,8,1,125,20,,,,,,,,
,,65207c22fa9502e61424d55e,65af56a8ba3c4b3e693170ce,2024-01-23_19h05.46.770,bars,2023.2.3,MacIntel,59.88023952,657b66ea316d21385b68909f,,,,,,,,,,,496.111,497.1116,,,497.612,497.8618,,23,203,,,,,,,,,,,,,,,,bars/035.png,bars/mask005.png,,,,,,,,,,,,1,1,,,,,,,8,10,9,10,,,,,,,,,,,497.1116,497.612,497.8618,506.5618,space,8.6893,,506.5618,28,37,507.5627,507.5627,543.531,space,35.9427,,0,9,9,9,1,175,60,,,,,,,,
,,65207c22fa9502e61424d55e,65af56a8ba3c4b3e693170ce,2024-01-23_19h05.46.770,bars,2023.2.3,MacIntel,59.88023952,657b66ea316d21385b68909f,,,,,,,,,,,543.5404,544.5313,,,545.0345,545.2822,,26,206,,,,,,,,,,,,,,,,bars/026.png,bars/mask002.png,,,,,,,,,,,,5,1,,,,,,,6,8,7,7,,,,,,,,,,,544.5316,545.0344,545.2823,553.7164,space,8.4181,,553.7165,9,59,554.7183,554.7183,562.1989,space,7.453,,0,10,10,10,1,35,85,,,,,,,,
,,65207c22fa9502e61424d55e,65af56a8ba3c4b3e693170ce,2024-01-23_19h05.46.770,bars,2023.2.3,MacIntel,59.88023952,657b66ea316d21385b68909f,,,,,,,,,,,562.2081,563.1997,,,563.7,563.9498,,154,154,,,,,,,,,,,,,,,,bars/049.png,bars/mask005.png,,,,,,,,,,,,4,1,,,,,,,4,6,5,5,,,,,,,,,,,563.1998,563.7,563.9498,568.6835,space,4.7195,,568.6835,6,39,569.6835,569.6835,578.1344,space,8.4269,,0,11,11,11,1,160,115,,,,,,,,
,,65207c22fa9502e61424d55e,65af56a8ba3c4b3e693170ce,2024-01-23_19h05.46.770,bars,2023.2.3,MacIntel,59.88023952,657b66ea316d21385b68909f,,,,,,,,,,,578.1454,579.1341,,,579.6342,579.8844,,116,116,,,,,,,,,,,,,,,,bars/025.png,bars/mask004.png,,,,,,,,,,,,4,1,,,,,,,6,4,6,3,,,,,,,,,,,579.1341,579.6342,579.8844,583.3006,space,3.4037,,583.3007,11,76,584.2997,584.2997,588.3007,space,3.9835,,0,12,12,12,1,105,40,,,,,,,,
,,65207c22fa9502e61424d55e,65af56a8ba3c4b3e693170ce,2024-01-23_19h05.46.770,bars,2023.2.3,MacIntel,59.88023952,657b66ea316d21385b68909f,,,,,,,,,,,588.3102,589.3016,,,589.8014,590.0515,,156,156,,,,,,,,,,,,,,,,bars/004.png,bars/mask003.png,,,,,,,,,,,,0,2,,,,,,,8,6,6,6,,,,,,,,,,,589.3017,589.8012,590.0516,593.1524,space,3.0851,,593.1525,49,31,594.1521,594.1522,599.1521,space,4.9645,,0,13,13,13,1,25,125,,,,,,,,
,,65207c22fa9502e61424d55e,65af56a8ba3c4b3e693170ce,2024-01-23_19h05.46.770,bars,2023.2.3,MacIntel,59.88023952,657b66ea316d21385b68909f,,,,,,,,,,,599.1615,600.1525,,,600.6524,600.9023,,159,-21,,,,,,,,,,,,,,,,bars/042.png,bars/mask003.png,,,,,,,,,,,,3,1,,,,,,,6,4,5,4,,,,,,,,,,,600.1525,600.6524,600.9023,607.6693,space,6.7572,,607.6694,14,84,608.6696,608.6697,610.8036,space,2.1037,,0,14,14,14,1,145,75,,,,,,,,
,,65207c22fa9502e61424d55e,65af56a8ba3c4b3e693170ce,2024-01-23_19h05.46.770,bars,2023.2.3,MacIntel,59.88023952,657b66ea316d21385b68909f,,,,,,,,,,,610.8041,611.8031,,,612.3023,612.5531,,167,167,,,,,,,,,,,,,,,,bars/039.png,bars/mask005.png,,,,,,,,,,,,2,1,,,,,,,4,2,3,2,,,,,,,,,,,611.8031,612.3022,612.5531,621.4866,space,8.9205,,621.4868,8,62,622.4871,622.4871,623.7356,space,1.2238,,0,15,15,15,1,175,105,,,,,,,,
,,65207c22fa9502e61424d55e,65af56a8ba3c4b3e693170ce,2024-01-23_19h05.46.770,bars,2023.2.3,MacIntel,59.88023952,657b66ea316d21385b68909f,,,,,,,,,,,623.7364,624.7373,,,625.238,625.4873,,137,-43,,,,,,,,,,,,,,,,bars/031.png,bars/mask008.png,,,,,,,,,,,,1,1,,,,,,,2,4,3,5,,,,,,,,,,,624.7373,625.238,625.4874,634.5212,space,9.0235,,634.5212,17,78,635.5213,635.5215,637.7715,space,2.2184,,0,16,16,16,1,120,35,,,,,,,,
,,65207c22fa9502e61424d55e,65af56a8ba3c4b3e693170ce,2024-01-23_19h05.46.770,bars,2023.2.3,MacIntel,59.88023952,657b66ea316d21385b68909f,,,,,,,,,,,637.7719,638.7708,,,639.2715,639.5217,,100,100,,,,,,,,,,,,,,,,bars/019.png,bars/mask009.png,,,,,,,,,,,,3,2,,,,,,,0,2,0,4,,,,,,,,,,,638.7709,639.2715,639.5218,643.8721,space,4.3354,,643.8721,55,5,644.8722,644.8722,647.3731,space,2.4648,,0,17,17,17,1,45,105,,,,,,,,
,,65207c22fa9502e61424d55e,65af56a8ba3c4b3e693170ce,2024-01-23_19h05.46.770,bars,2023.2.3,MacIntel,59.88023952,657b66ea316d21385b68909f,,,,,,,,,,,647.3737,648.3722,,,648.8713,649.1223,,50,230,,,,,,,,,,,,,,,,bars/042.png,bars/mask003.png,,,,,,,,,,,,0,2,,,,,,,0,0,2,1,,,,,,,,,,,648.3722,648.8713,649.1223,657.1226,space,7.9887,,657.1226,85,25,658.1229,658.1229,661.2752,space,3.1266,,0,18,18,18,1,145,75,,,,,,,,
,,65207c22fa9502e61424d55e,65af56a8ba3c4b3e693170ce,2024-01-23_19h05.46.770,bars,2023.2.3,MacIntel,59.88023952,657b66ea316d21385b68909f,,,,,,,,,,,661.2854,662.2923,,,662.7905,663.0414,,30,30,,,,,,,,,,,,,,,,bars/041.png,bars/mask004.png,,,,,,,,,,,,1,1,,,,,,,0,0,1,0,,,,,,,,,,,662.2924,662.7904,663.0414,666.3403,space,3.2889,,666.3405,10,55,667.3401,667.3401,669.7077,space,2.3319,,0,19,19,19,1,20,85,,,,,,,,
,,65207c22fa9502e61424d55e,65af56a8ba3c4b3e693170ce,2024-01-23_19h05.46.770,bars,2023.2.3,MacIntel,59.88023952,657b66ea316d21385b68909f,,,,,,,,,,,669.7084,670.7069,,,671.207,671.4572,,17,17,,,,,,,,,,,,,,,,bars/041.png,bars/mask008.png,,,,,,,,,,,,3,1,,,,,,,2,2,3,2,,,,,,,,,,,670.7071,671.207,671.4572,678.2245,space,6.7521,,678.2246,3,68,679.2244,679.2244,685.7405,space,6.4871,,0,20,20,20,1,20,85,,,,,,,,
,,65207c22fa9502e61424d55e,65af56a8ba3c4b3e693170ce,2024-01-23_19h05.46.770,bars,2023.2.3,MacIntel,59.88023952,657b66ea316d21385b68909f,,,,,,,,,,,685.7494,686.7416,,,687.2407,687.4919,,165,165,,,,,,,,,,,,,,,,bars/021.png,bars/mask006.png,,,,,,,,,,,,0,1,,,,,,,0,0,0,0,,,,,,,,,,,686.7417,687.2406,687.4919,695.4252,space,7.9242,,695.4252,10,85,696.4254,696.4255,698.575,space,2.1241,,0,21,21,21,1,155,70,,,,,,,,
,,65207c22fa9502e61424d55e,65af56a8ba3c4b3e693170ce,2024-01-23_19h05.46.770,bars,2023.2.3,MacIntel,59.88023952,657b66ea316d21385b68909f,,,,,,,,,,,698.5754,699.5757,,,700.0759,700.326,,157,157,,,,,,,,,,,,,,,,bars/015.png,bars/mask009.png,,,,,,,,,,,,2,2,,,,,,,0,2,0,2,,,,,,,,,,,699.5757,700.0759,700.3261,704.859,space,4.5265,,704.859,47,3,705.8597,705.8597,707.5433,space,1.6486,,0,22,22,22,1,110,160,,,,,,,,
,,65207c22fa9502e61424d55e,65af56a8ba3c4b3e693170ce,2024-01-23_19h05.46.770,bars,2023.2.3,MacIntel,59.88023952,657b66ea316d21385b68909f,,,,,,,,,,,707.5441,708.543,,,709.0431,709.293,,158,-22,,,,,,,,,,,,,,,,bars/005.png,bars/mask007.png,,,,,,,,,,,,2,2,,,,,,,2,4,2,6,,,,,,,,,,,708.5431,709.0431,709.2931,717.0265,space,7.7207,,717.0266,32,18,718.0279,718.0279,749.645,space,31.5892,,0,23,23,23,1,10,140,,,,,,,,
,,65207c22fa9502e61424d55e,65af56a8ba3c4b3e693170ce,2024-01-23_19h05.46.770,bars,2023.2.3,MacIntel,59.88023952,657b66ea316d21385b68909f,,,,,,,,,,,749.6546,750.6458,,,751.1459,751.3959,,31,211,,,,,,,,,,,,,,,,bars/026.png,bars/mask000.png,,,,,,,,,,,,4,1,,,,,,,4,2,5,3,,,,,,,,,,,750.6459,751.1457,751.3959,760.3473,space,8.9422,,760.3474,4,54,761.3466,761.3466,762.2977,space,0.922,,0,24,24,24,1,35,85,,,,,,,,
,,65207c22fa9502e61424d55e,65af56a8ba3c4b3e693170ce,2024-01-23_19h05.46.770,bars,2023.2.3,MacIntel,59.88023952,657b66ea316d21385b68909f,,,,,,,,,,,762.2982,763.2967,,,763.7967,764.0466,,161,-19,,,,,,,,,,,,,,,,bars/040.png,bars/mask000.png,,,,,,,,,,,,1,1,,,,,,,2,4,2,4,,,,,,,,,,,763.2968,763.7966,764.0467,771.5304,space,7.4709,,771.5304,21,24,772.5308,772.5309,773.3641,space,0.8084,,0,25,25,25,1,140,5,,,,,,,,
,,65207c22fa9502e61424d55e,65af56a8ba3c4b3e693170ce,2024-01-23_19h05.46.770,bars,2023.2.3,MacIntel,59.88023952,657b66ea316d21385b68909f,,,,,,,,,,,773.3646,774.3635,,,774.8644,775.1143,,145,145,,,,,,,,,,,,,,,,bars/034.png,bars/mask004.png,,,,,,,,,,,,0,1,,,,,,,0,6,0,7,,,,,,,,,,,774.3637,774.8643,775.1145,779.2472,space,4.1212,,779.2473,20,80,780.248,780.2481,780.3145,space,0.0342,,0,26,26,26,1,125,65,,,,,,,,
,,65207c22fa9502e61424d55e,65af56a8ba3c4b3e693170ce,2024-01-23_19h05.46.770,bars,2023.2.3,MacIntel,59.88023952,657b66ea316d21385b68909f,,,,,,,,,,,780.315,781.315,,,781.8148,782.0648,,142,-38,,,,,,,,,,,,,,,,bars/038.png,bars/mask000.png,,,,,,,,,,,,0,1,,,,,,,2,8,2,9,,,,,,,,,,,781.315,781.8147,782.0648,789.5656,space,7.4856,,789.5657,23,72,790.5654,790.5654,793.0979,space,2.5069,,0,27,27,27,1,165,70,,,,,,,,
,,65207c22fa9502e61424d55e,65af56a8ba3c4b3e693170ce,2024-01-23_19h05.46.770,bars,2023.2.3,MacIntel,59.88023952,657b66ea316d21385b68909f,,,,,,,,,,,793.0982,794.0981,,,794.5979,794.8491,,18,18,,,,,,,,,,,,,,,,bars/004.png,bars/mask006.png,,,,,,,,,,,,0,1,,,,,,,0,6,0,5,,,,,,,,,,,794.0981,794.5978,794.8492,801.4823,space,6.6177,,801.4823,7,73,802.483,802.483,811.4494,space,8.9352,,0,28,28,28,1,25,125,,,,,,,,
,,65207c22fa9502e61424d55e,65af56a8ba3c4b3e693170ce,2024-01-23_19h05.46.770,bars,2023.2.3,MacIntel,59.88023952,657b66ea316d21385b68909f,,,,,,,,,,,811.4587,812.4503,,,812.95,813.1998,,97,97,,,,,,,,,,,,,,,,bars/018.png,bars/mask008.png,,,,,,,,,,,,3,2,,,,,,,0,4,0,4,,,,,,,,,,,812.4504,812.9498,813.1999,819.4353,space,6.2254,,819.4354,53,7,820.4342,820.4342,821.2179,space,0.7485,,0,29,29,29,1,150,90,,,,,,,,
,,65207c22fa9502e61424d55e,65af56a8ba3c4b3e693170ce,2024-01-23_19h05.46.770,bars,2023.2.3,MacIntel,59.88023952,657b66ea316d21385b68909f,,,,,,,,,,,821.2189,822.2192,,,822.7197,822.9679,,13,13,,,,,,,,,,,,,,,,bars/032.png,bars/mask007.png,,,,,,,,,,,,5,2,,,,,,,2,6,2,7,,,,,,,,,,,822.2193,822.7195,822.9679,841.9853,space,19.006,,841.9853,68,7,842.9853,842.9854,848.6361,space,5.6261,,0,30,30,30,1,125,20,,,,,,,,
,,65207c22fa9502e61424d55e,65af56a8ba3c4b3e693170ce,2024-01-23_19h05.46.770,bars,2023.2.3,MacIntel,59.88023952,657b66ea316d21385b68909f,,,,,,,,,,,848.6454,849.6372,,,850.1369,850.3865,,28,208,,,,,,,,,,,,,,,,bars/031.png,bars/mask002.png,,,,,,,,,,,,3,2,,,,,,,0,4,0,4,,,,,,,,,,,849.6372,850.1368,850.3865,857.9361,space,7.5356,,857.9363,88,7,858.9371,858.9371,859.5719,space,0.6026,,0,31,31,31,1,120,35,,,,,,,,
,,65207c22fa9502e61424d55e,65af56a8ba3c4b3e693170ce,2024-01-23_19h05.46.770,bars,2023.2.3,MacIntel,59.88023952,657b66ea316d21385b68909f,,,,,,,,,,,859.5724,860.5701,,,861.0706,861.3204,,54,54,,,,,,,,,,,,,,,,bars/021.png,bars/mask001.png,,,,,,,,,,,,2,2,,,,,,,2,6,2,5,,,,,,,,,,,860.5701,861.0705,861.3204,867.2035,space,5.872,,867.2036,79,16,868.2059,868.2059,877.1041,space,8.8703,,0,32,32,32,1,155,70,,,,,,,,
,,65207c22fa9502e61424d55e,65af56a8ba3c4b3e693170ce,2024-01-23_19h05.46.770,bars,2023.2.3,MacIntel,59.88023952,657b66ea316d21385b68909f,,,,,,,,,,,877.1136,878.1048,,,878.6055,878.8549,,136,136,,,,,,,,,,,,,,,,bars/009.png,bars/mask001.png,,,,,,,,,,,,0,2,,,,,,,4,4,4,5,,,,,,,,,,,878.1048,878.6054,878.855,882.9213,space,4.0532,,882.9215,59,31,883.9224,883.9225,885.7391,space,1.7877,,0,33,33,33,1,15,105,,,,,,,,
,,65207c22fa9502e61424d55e,65af56a8ba3c4b3e693170ce,2024-01-23_19h05.46.770,bars,2023.2.3,MacIntel,59.88023952,657b66ea316d21385b68909f,,,,,,,,,,,885.7402,886.74,,,887.2382,887.489,,104,104,,,,,,,,,,,,,,,,bars/029.png,bars/mask000.png,,,,,,,,,,,,1,1,,,,,,,2,2,2,2,,,,,,,,,,,886.74,887.2382,887.4892,891.2057,space,3.7013,,891.2058,14,59,892.2059,892.2059,896.0052,space,3.7708,,0,34,34,34,1,90,45,,,,,,,,
,,65207c22fa9502e61424d55e,65af56a8ba3c4b3e693170ce,2024-01-23_19h05.46.770,bars,2023.2.3,MacIntel,59.88023952,657b66ea316d21385b68909f,,,,,,,,,,,896.0057,897.0061,,,897.5047,897.756,,149,149,,,,,,,,,,,,,,,,bars/017.png,bars/mask000.png,,,,,,,,,,,,0,1,,,,,,,0,0,0,0,,,,,,,,,,,897.0061,897.5047,897.756,900.2718,space,2.5022,,900.2718,4,76,901.2728,901.2728,902.8557,space,1.5538,,0,35,35,35,1,145,45,,,,,,,,
,,65207c22fa9502e61424d55e,65af56a8ba3c4b3e693170ce,2024-01-23_19h05.46.770,bars,2023.2.3,MacIntel,59.88023952,657b66ea316d21385b68909f,,,,,,,,,,,902.8561,903.856,,,904.3566,904.6063,,176,176,,,,,,,,,,,,,,,,bars/011.png,bars/mask006.png,,,,,,,,,,,,1,1,,,,,,,2,2,3,2,,,,,,,,,,,903.8563,904.3566,904.6064,905.6401,space,1.0187,,905.6402,16,89,906.6401,906.6401,907.6397,space,0.987,,0,36,36,36,1,160,85,,,,,,,,
,,65207c22fa9502e61424d55e,65af56a8ba3c4b3e693170ce,2024-01-23_19h05.46.770,bars,2023.2.3,MacIntel,59.88023952,657b66ea316d21385b68909f,,,,,,,,,,,907.6401,908.6402,,,909.1407,909.3902,,75,75,,,,,,,,,,,,,,,,bars/018.png,bars/mask000.png,,,,,,,,,,,,0,2,,,,,,,4,0,3,0,,,,,,,,,,,908.6402,909.1407,909.3902,913.2901,space,3.8854,,913.2901,75,15,914.2905,914.2905,915.5396,space,1.2168,,0,37,37,37,1,150,90,,,,,,,,
,,65207c22fa9502e61424d55e,65af56a8ba3c4b3e693170ce,2024-01-23_19h05.46.770,bars,2023.2.3,MacIntel,59.88023952,657b66ea316d21385b68909f,,,,,,,,,,,915.54,916.5396,,,917.0398,917.2906,,3,3,,,,,,,,,,,,,,,,bars/015.png,bars/mask008.png,,,,,,,,,,,,1,2,,,,,,,2,2,2,3,,,,,,,,,,,916.5398,917.0397,917.2906,920.7902,space,3.4899,,920.7903,73,23,921.7917,921.7917,923.24,space,1.4186,,0,38,38,38,1,110,160,,,,,,,,
,,65207c22fa9502e61424d55e,65af56a8ba3c4b3e693170ce,2024-01-23_19h05.46.770,bars,2023.2.3,MacIntel,59.88023952,657b66ea316d21385b68909f,,,,,,,,,,,923.2403,924.2413,,,924.7414,924.9598,,40,220,,,,,,,,,,,,,,,,bars/025.png,bars/mask001.png,,,,,,,,,,,,5,2,,,,,,,4,4,5,5,,,,,,,,,,,924.2414,924.7414,924.9598,931.4084,space,6.4341,,931.4084,65,0,932.4105,932.4105,936.4102,space,3.9693,,0,39,39,39,1,105,40,,,,,,,,
,,65207c22fa9502e61424d55e,65af56a8ba3c4b3e693170ce,2024-01-23_19h05.46.770,bars,2023.2.3,MacIntel,59.88023952,657b66ea316d21385b68909f,,,,,,,,,,,936.42,937.411,,,937.9097,938.159,,135,-45,,,,,,,,,,,,,,,,bars/028.png,bars/mask000.png,,,,,,,,,,,,1,2,,,,,,,6,2,6,1,,,,,,,,,,,937.4111,937.9096,938.159,943.2936,space,5.1185,,943.2938,90,15,944.2933,944.2934,945.4773,space,1.153,,0,40,40,40,1,45,120,,,,,,,,
,,65207c22fa9502e61424d55e,65af56a8ba3c4b3e693170ce,2024-01-23_19h05.46.770,bars,2023.2.3,MacIntel,59.88023952,657b66ea316d21385b68909f,,,,,,,,,,,945.4783,946.4769,,,946.9762,947.2283,,171,-9,,,,,,,,,,,,,,,,bars/040.png,bars/mask008.png,,,,,,,,,,,,2,2,,,,,,,4,4,3,4,,,,,,,,,,,946.477,946.9762,947.2283,952.1764,space,4.9335,,952.1766,31,14,953.1758,953.1761,954.2927,space,1.088,,0,41,41,41,1,140,5,,,,,,,,
,,65207c22fa9502e61424d55e,65af56a8ba3c4b3e693170ce,2024-01-23_19h05.46.770,bars,2023.2.3,MacIntel,59.88023952,657b66ea316d21385b68909f,,,,,,,,,,,954.2931,955.2931,,,955.7937,956.0429,,85,85,,,,,,,,,,,,,,,,bars/047.png,bars/mask009.png,,,,,,,,,,,,1,2,,,,,,,6,2,5,1,,,,,,,,,,,955.2932,955.7937,956.0429,960.194,space,4.1363,,960.194,70,15,961.1939,961.1939,962.0798,space,0.8545,,0,42,42,42,1,15,70,,,,,,,,
,,65207c22fa9502e61424d55e,65af56a8ba3c4b3e693170ce,2024-01-23_19h05.46.770,bars,2023.2.3,MacIntel,59.88023952,657b66ea316d21385b68909f,,,,,,,,,,,962.0803,963.077,,,963.5788,963.8283,,157,157,,,,,,,,,,,,,,,,bars/035.png,bars/mask004.png,,,,,,,,,,,,3,1,,,,,,,8,0,8,0,,,,,,,,,,,963.0771,963.5787,963.8283,969.5265,space,5.6875,,969.5266,18,83,970.5284,970.5284,971.5435,space,0.9798,,0,43,43,43,1,175,60,,,,,,,,
,,65207c22fa9502e61424d55e,65af56a8ba3c4b3e693170ce,2024-01-23_19h05.46.770,bars,2023.2.3,MacIntel,59.88023952,657b66ea316d21385b68909f,,,,,,,,,,,971.5441,972.5432,,,973.0445,973.2947,,56,56,,,,,,,,,,,,,,,,bars/011.png,bars/mask005.png,,,,,,,,,,,,0,2,,,,,,,6,2,7,0,,,,,,,,,,,972.5432,973.0444,973.2947,977.7456,space,4.4405,,977.7457,76,29,978.7437,978.7437,979.5282,space,0.7517,,0,44,44,44,1,160,85,,,,,,,,
,,65207c22fa9502e61424d55e,65af56a8ba3c4b3e693170ce,2024-01-23_19h05.46.770,bars,2023.2.3,MacIntel,59.88023952,657b66ea316d21385b68909f,,,,,,,,,,,979.5288,980.5276,,,981.0271,981.2786,,117,117,,,,,,,,,,,,,,,,bars/007.png,bars/mask004.png,,,,,,,,,,,,0,1,,,,,,,4,4,5,5,,,,,,,,,,,980.5276,981.0271,981.2786,982.2616,space,0.9689,,982.2617,58,62,983.2619,983.2619,984.5125,space,1.2189,,0,45,45,45,1,175,55,,,,,,,,
,,65207c22fa9502e61424d55e,65af56a8ba3c4b3e693170ce,2024-01-23_19h05.46.770,bars,2023.2.3,MacIntel,59.88023952,657b66ea316d21385b68909f,,,,,,,,,,,984.5133,985.5112,,,986.0108,986.2622,,151,151,,,,,,,,,,,,,,,,bars/014.png,bars/mask004.png,,,,,,,,,,,,0,2,,,,,,,6,6,7,4,,,,,,,,,,,985.5112,986.0108,986.2623,992.396,space,6.1199,,992.396,71,29,993.3945,993.3946,996.5795,space,3.1527,,0,46,46,46,1,80,0,,,,,,,,
,,65207c22fa9502e61424d55e,65af56a8ba3c4b3e693170ce,2024-01-23_19h05.46.770,bars,2023.2.3,MacIntel,59.88023952,657b66ea316d21385b68909f,,,,,,,,,,,996.5891,997.5795,,,998.0798,998.3296,,108,108,,,,,,,,,,,,,,,,bars/028.png,bars/mask006.png,,,,,,,,,,,,4,2,,,,,,,4,8,3,6,,,,,,,,,,,997.5795,998.0797,998.3296,1004.2473,space,5.9013,,1004.2475,63,12,1005.2469,1005.2469,1006.4465,space,1.1713,,0,47,47,47,1,45,120,,,,,,,,
,,65207c22fa9502e61424d55e,65af56a8ba3c4b3e693170ce,2024-01-23_19h05.46.770,bars,2023.2.3,MacIntel,59.88023952,657b66ea316d21385b68909f,,,,,,,,,,,1006.4469,1007.447,,,1007.947,1008.1968,,47,47,,,,,,,,,,,,,,,,bars/046.png,bars/mask007.png,,,,,,,,,,,,0,2,,,,,,,6,10,7,10,,,,,,,,,,,1007.447,1007.9469,1008.1969,1012.6979,space,4.4858,,1012.698,72,38,1013.6982,1013.6984,1014.9966,space,1.2692,,0,48,48,48,1,155,85,,,,,,,,
,,65207c22fa9502e61424d55e,65af56a8ba3c4b3e693170ce,2024-01-23_19h05.46.770,bars,2023.2.3,MacIntel,59.88023952,657b66ea316d21385b68909f,,,,,,,,,,,1014.997,1015.9975,,,1016.4966,1016.7463,,69,69,,,,,,,,,,,,,,,,bars/007.png,bars/mask001.png,,,,,,,,,,,,5,2,,,,,,,8,10,8,10,,,,,,,,,,,1015.9976,1016.4966,1016.7463,1017.5315,space,0.7693,,1017.5318,74,14,1018.5309,1018.5309,1020.2151,space,1.666,,0,49,49,49,1,175,55,,,,,,,,
,,65207c22fa9502e61424d55e,65af56a8ba3c4b3e693170ce,2024-01-23_19h05.46.770,bars,2023.2.3,MacIntel,59.88023952,657b66ea316d21385b68909f,,,,,,,,,,,,,,,,,,,,,,,,,,,,,,,,,,,,,,,,,,,,,,,,,,,,,,,,,,,,,,,,,,,,,,,,,,,,,,,,,,,,,,,,,,,,,1020.2161,1080.2195,0,0,0,2,1,sequence_tables/blk011.csv
,,65207c22fa9502e61424d55e,65af56a8ba3c4b3e693170ce,2024-01-23_19h05.46.770,bars,2023.2.3,MacIntel,59.88023952,657b66ea316d21385b68909f,,,,,,,,,,,1084.4687,1085.4688,,,1085.9695,1086.219,,26,26,,,,,,,,,,,,,,,,bars/018.png,bars/mask001.png,,,,,,,,,,,,0,1,,,,,,,7,5,7,6,,,,,,1080.233,1084.4542,space,4.213,,1085.4688,1085.9694,1086.219,1096.6695,space,10.4375,,1096.6695,56,64,1097.6696,1097.6696,1097.6887,,,,0,0,0,0,1,150,90,,,,,,,,
,,65207c22fa9502e61424d55e,65af56a8ba3c4b3e693170ce,2024-01-23_19h05.46.770,bars,2023.2.3,MacIntel,59.88023952,657b66ea316d21385b68909f,,,,,,,,,,,1097.6891,1098.6866,,,1099.1867,1099.4354,,63,63,,,,,,,,,,,,,,,,bars/010.png,bars/mask009.png,,,,,,,,,,,,5,2,,,,,,,5,7,5,7,,,,,,,,,,,1098.6867,1099.1866,1099.4354,1100.703,space,1.252,,1100.703,78,8,1101.7037,1101.7037,1101.712,,,,0,1,1,1,1,165,55,,,,,,,,
,,65207c22fa9502e61424d55e,65af56a8ba3c4b3e693170ce,2024-01-23_19h05.46.770,bars,2023.2.3,MacIntel,59.88023952,657b66ea316d21385b68909f,,,,,,,,,,,1101.7123,1102.7034,,,1103.2032,1103.4539,,39,39,,,,,,,,,,,,,,,,bars/034.png,bars/mask002.png,,,,,,,,,,,,1,2,,,,,,,3,5,4,4,,,,,,,,,,,1102.7035,1103.2031,1103.4539,1107.0034,space,3.5361,,1107.0035,86,26,1108.0039,1108.0039,1108.0176,,,,0,2,2,2,1,125,65,,,,,,,,
,,65207c22fa9502e61424d55e,65af56a8ba3c4b3e693170ce,2024-01-23_19h05.46.770,bars,2023.2.3,MacIntel,59.88023952,657b66ea316d21385b68909f,,,,,,,,,,,1108.0178,1109.0204,,,1109.5209,1109.7702,,127,127,,,,,,,,,,,,,,,,bars/040.png,bars/mask003.png,,,,,,,,,,,,1,1,,,,,,,1,3,2,3,,,,,,,,,,,1109.0204,1109.5208,1109.7705,1114.7536,space,4.9715,,1114.7536,13,58,1115.754,1115.754,1115.7706,,,,0,3,3,3,1,140,5,,,,,,,,
,,65207c22fa9502e61424d55e,65af56a8ba3c4b3e693170ce,2024-01-23_19h05.46.770,bars,2023.2.3,MacIntel,59.88023952,657b66ea316d21385b68909f,,,,,,,,,,,1115.7711,1116.7711,,,1117.2704,1117.5199,,33,33,,,,,,,,,,,,,,,,bars/029.png,bars/mask002.png,,,,,,,,,,,,4,2,,,,,,,3,5,2,6,,,,,,,,,,,1116.7711,1117.2704,1117.5202,1121.3051,space,3.7674,,1121.3052,57,12,1122.3049,1122.3049,1122.324,,,,0,4,4,4,1,90,45,,,,,,,,
,,65207c22fa9502e61424d55e,65af56a8ba3c4b3e693170ce,2024-01-23_19h05.46.770,bars,2023.2.3,MacIntel,59.88023952,657b66ea316d21385b68909f,,,,,,,,,,,1122.3241,1123.3217,,,1123.8216,1124.0702,,37,217,,,,,,,,,,,,,,,,bars/030.png,bars/mask005.png,,,,,,,,,,,,0,2,,,,,,,1,3,3,2,,,,,,,,,,,1123.3217,1123.8216,1124.0703,1131.305,space,7.2215,,1131.3051,77,28,1132.3044,1132.3044,1132.3055,,,,0,5,5,5,1,140,65,,,,,,,,
,,65207c22fa9502e61424d55e,65af56a8ba3c4b3e693170ce,2024-01-23_19h05.46.770,bars,2023.2.3,MacIntel,59.88023952,657b66ea316d21385b68909f,,,,,,,,,,,1132.3058,1133.3075,,,1133.8064,1134.0563,,176,176,,,,,,,,,,,,,,,,bars/010.png,bars/mask008.png,,,,,,,,,,,,1,1,,,,,,,3,1,2,1,,,,,,,,,,,1133.3075,1133.8064,1134.0564,1136.7388,space,2.6661,,1136.7388,11,59,1137.7324,1137.7324,1137.7601,,,,0,6,6,6,1,165,55,,,,,,,,
,,65207c22fa9502e61424d55e,65af56a8ba3c4b3e693170ce,2024-01-23_19h05.46.770,bars,2023.2.3,MacIntel,59.88023952,657b66ea316d21385b68909f,,,,,,,,,,,1137.7604,1138.7549,,,1139.2553,1139.5062,,173,173,,,,,,,,,,,,,,,,bars/022.png,bars/mask007.png,,,,,,,,,,,,0,2,,,,,,,5,0,6,0,,,,,,,,,,,1138.7549,1139.2553,1139.5062,1144.4407,space,4.9266,,1144.4409,78,27,1145.4398,1145.4398,1145.4594,,,,0,7,7,7,1,95,20,,,,,,,,
,,65207c22fa9502e61424d55e,65af56a8ba3c4b3e693170ce,2024-01-23_19h05.46.770,bars,2023.2.3,MacIntel,59.88023952,657b66ea316d21385b68909f,,,,,,,,,,,1145.4597,1146.4562,,,1146.9568,1147.206,,143,143,,,,,,,,,,,,,,,,bars/035.png,bars/mask001.png,,,,,,,,,,,,0,1,,,,,,,7,0,7,0,,,,,,,,,,,1146.4563,1146.9568,1147.206,1151.5566,space,4.3428,,1151.5566,32,83,1152.5571,1152.5573,1152.5758,,,,0,8,8,8,1,175,60,,,,,,,,
,,65207c22fa9502e61424d55e,65af56a8ba3c4b3e693170ce,2024-01-23_19h05.46.770,bars,2023.2.3,MacIntel,59.88023952,657b66ea316d21385b68909f,,,,,,,,,,,1152.5761,1153.5743,,,1154.0751,1154.3238,,7,187,,,,,,,,,,,,,,,,bars/005.png,bars/mask004.png,,,,,,,,,,,,8,1,,,,,,,9,0,9,1,,,,,,,,,,,1153.5744,1154.0748,1154.3239,1162.7905,space,8.4526,,1162.7906,3,47,1163.7914,1163.7915,1163.8056,,,,0,9,9,9,1,10,140,,,,,,,,
,,65207c22fa9502e61424d55e,65af56a8ba3c4b3e693170ce,2024-01-23_19h05.46.770,bars,2023.2.3,MacIntel,59.88023952,657b66ea316d21385b68909f,,,,,,,,,,,1163.806,1164.8084,,,1165.3081,1165.5577,,31,211,,,,,,,,,,,,,,,,bars/002.png,bars/mask001.png,,,,,,,,,,,,0,2,,,,,,,10,2,9,1,,,,,,,,,,,1164.8085,1165.308,1165.5577,1181.5903,space,16.022,,1181.5903,81,54,1182.592,1182.5921,1182.6124,,,,0,10,10,10,1,130,85,,,,,,,,
,,65207c22fa9502e61424d55e,65af56a8ba3c4b3e693170ce,2024-01-23_19h05.46.770,bars,2023.2.3,MacIntel,59.88023952,657b66ea316d21385b68909f,,,,,,,,,,,1182.6127,1183.6106,,,1184.1094,1184.3596,,160,-20,,,,,,,,,,,,,,,,bars/047.png,bars/mask002.png,,,,,,,,,,,,0,1,,,,,,,8,4,8,4,,,,,,,,,,,1183.6106,1184.1094,1184.3596,1190.126,space,5.7568,,1190.126,35,90,1191.1269,1191.1269,1191.1467,,,,0,11,11,11,1,15,70,,,,,,,,
,,65207c22fa9502e61424d55e,65af56a8ba3c4b3e693170ce,2024-01-23_19h05.46.770,bars,2023.2.3,MacIntel,59.88023952,657b66ea316d21385b68909f,,,,,,,,,,,1191.147,1192.1431,,,1192.6432,1192.893,,35,35,,,,,,,,,,,,,,,,bars/003.png,bars/mask006.png,,,,,,,,,,,,4,1,,,,,,,6,6,6,7,,,,,,,,,,,1192.1432,1192.6431,1192.8931,1197.6776,space,4.77,,1197.6777,10,75,1198.6767,1198.6768,1198.6907,,,,0,12,12,12,1,25,140,,,,,,,,
,,65207c22fa9502e61424d55e,65af56a8ba3c4b3e693170ce,2024-01-23_19h05.46.770,bars,2023.2.3,MacIntel,59.88023952,657b66ea316d21385b68909f,,,,,,,,,,,1198.6916,1199.6935,,,1200.1932,1200.4435,,147,147,,,,,,,,,,,,,,,,bars/007.png,bars/mask005.png,,,,,,,,,,,,1,1,,,,,,,8,8,8,9,,,,,,,,,,,1199.6936,1200.1931,1200.4435,1203.8427,space,3.3851,,1203.8427,28,88,1204.8442,1204.8443,1204.8533,,,,0,13,13,13,1,175,55,,,,,,,,
,,65207c22fa9502e61424d55e,65af56a8ba3c4b3e693170ce,2024-01-23_19h05.46.770,bars,2023.2.3,MacIntel,59.88023952,657b66ea316d21385b68909f,,,,,,,,,,,1204.8535,1205.8428,,,1206.3432,1206.5934,,165,-15,,,,,,,,,,,,,,,,bars/045.png,bars/mask005.png,,,,,,,,,,,,1,2,,,,,,,10,6,9,6,,,,,,,,,,,1205.8428,1206.3432,1206.5935,1210.5283,space,3.9187,,1210.5283,65,25,1211.5292,1211.5292,1211.5505,,,,0,14,14,14,1,100,10,,,,,,,,
,,65207c22fa9502e61424d55e,65af56a8ba3c4b3e693170ce,2024-01-23_19h05.46.770,bars,2023.2.3,MacIntel,59.88023952,657b66ea316d21385b68909f,,,,,,,,,,,1211.5508,1212.5441,,,1213.044,1213.2943,,121,121,,,,,,,,,,,,,,,,bars/027.png,bars/mask002.png,,,,,,,,,,,,6,1,,,,,,,10,4,10,3,,,,,,,,,,,1212.5442,1213.044,1213.2943,1218.0442,space,4.7341,,1218.0442,11,71,1219.0441,1219.0441,1219.0635,,,,0,15,15,15,1,110,50,,,,,,,,
,,65207c22fa9502e61424d55e,65af56a8ba3c4b3e693170ce,2024-01-23_19h05.46.770,bars,2023.2.3,MacIntel,59.88023952,657b66ea316d21385b68909f,,,,,,,,,,,1219.0637,1220.0611,,,1220.5608,1220.8113,,17,17,,,,,,,,,,,,,,,,bars/047.png,bars/mask000.png,,,,,,,,,,,,9,1,,,,,,,10,6,10,5,,,,,,,,,,,1220.0611,1220.5608,1220.8114,1228.1279,space,7.304,,1228.1279,2,53,1229.1281,1229.1282,1229.1427,,,,0,16,16,16,1,15,70,,,,,,,,
,,65207c22fa9502e61424d55e,65af56a8ba3c4b3e693170ce,2024-01-23_19h05.46.770,bars,2023.2.3,MacIntel,59.88023952,657b66ea316d21385b68909f,,,,,,,,,,,1229.1436,1230.1445,,,1230.6448,1230.8947,,51,51,,,,,,,,,,,,,,,,bars/010.png,bars/mask002.png,,,,,,,,,,,,4,2,,,,,,,10,4,10,5,,,,,,,,,,,1230.1446,1230.6448,1230.8948,1235.829,space,4.9194,,1235.8291,66,4,1236.8294,1236.8294,1236.8488,,,,0,17,17,17,1,165,55,,,,,,,,
,,65207c22fa9502e61424d55e,65af56a8ba3c4b3e693170ce,2024-01-23_19h05.46.770,bars,2023.2.3,MacIntel,59.88023952,657b66ea316d21385b68909f,,,,,,,,,,,1236.8491,1237.8454,,,1238.3479,1238.5956,,120,120,,,,,,,,,,,,,,,,bars/013.png,bars/mask004.png,,,,,,,,,,,,0,1,,,,,,,10,6,10,7,,,,,,,,,,,1237.8454,1238.3479,1238.5957,1243.0962,space,4.4863,,1243.0963,45,70,1244.0957,1244.0958,1244.1151,,,,0,18,18,18,1,75,10,,,,,,,,
,,65207c22fa9502e61424d55e,65af56a8ba3c4b3e693170ce,2024-01-23_19h05.46.770,bars,2023.2.3,MacIntel,59.88023952,657b66ea316d21385b68909f,,,,,,,,,,,1244.1153,1245.1134,,,1245.6125,1245.8627,,155,155,,,,,,,,,,,,,,,,bars/005.png,bars/mask000.png,,,,,,,,,,,,5,2,,,,,,,10,8,10,9,,,,,,,,,,,1245.1134,1245.6125,1245.8627,1247.8792,space,2.0035,,1247.8793,35,15,1248.8793,1248.8793,1248.8991,,,,0,19,19,19,1,10,140,,,,,,,,
,,65207c22fa9502e61424d55e,65af56a8ba3c4b3e693170ce,2024-01-23_19h05.46.770,bars,2023.2.3,MacIntel,59.88023952,657b66ea316d21385b68909f,,,,,,,,,,,1248.8994,1249.897,,,1250.3961,1250.6461,,60,60,,,,,,,,,,,,,,,,bars/006.png,bars/mask004.png,,,,,,,,,,,,1,1,,,,,,,8,10,6,9,,,,,,,,,,,1249.897,1250.3961,1250.6461,1254.7634,space,4.1032,,1254.7634,25,40,1255.7634,1255.7634,1255.7826,,,,0,20,20,20,1,35,100,,,,,,,,
,,65207c22fa9502e61424d55e,65af56a8ba3c4b3e693170ce,2024-01-23_19h05.46.770,bars,2023.2.3,MacIntel,59.88023952,657b66ea316d21385b68909f,,,,,,,,,,,1255.7828,1256.78,,,1257.2803,1257.53,,64,64,,,,,,,,,,,,,,,,bars/006.png,bars/mask003.png,,,,,,,,,,,,0,1,,,,,,,6,10,6,9,,,,,,,,,,,1256.78,1257.2802,1257.53,1263.9791,space,6.4387,,1263.9793,29,36,1264.9804,1264.9804,1264.994,,,,0,21,21,21,1,35,100,,,,,,,,
,,65207c22fa9502e61424d55e,65af56a8ba3c4b3e693170ce,2024-01-23_19h05.46.770,bars,2023.2.3,MacIntel,59.88023952,657b66ea316d21385b68909f,,,,,,,,,,,1264.9944,1265.9975,,,1266.4973,1266.7476,,151,-29,,,,,,,,,,,,,,,,bars/038.png,bars/mask005.png,,,,,,,,,,,,2,1,,,,,,,4,8,3,9,,,,,,,,,,,1265.9975,1266.4973,1266.7476,1274.8658,space,8.1108,,1274.8658,14,81,1275.8647,1275.8647,1275.8794,,,,0,22,22,22,1,165,70,,,,,,,,
,,65207c22fa9502e61424d55e,65af56a8ba3c4b3e693170ce,2024-01-23_19h05.46.770,bars,2023.2.3,MacIntel,59.88023952,657b66ea316d21385b68909f,,,,,,,,,,,1275.8803,1276.8815,,,1277.382,1277.6313,,51,51,,,,,,,,,,,,,,,,bars/029.png,bars/mask000.png,,,,,,,,,,,,8,2,,,,,,,6,10,5,10,,,,,,,,,,,1276.8815,1277.382,1277.6313,1281.5644,space,3.9209,,1281.5644,39,6,1282.5652,1282.5652,1282.5844,,,,0,23,23,23,1,90,45,,,,,,,,
,,65207c22fa9502e61424d55e,65af56a8ba3c4b3e693170ce,2024-01-23_19h05.46.770,bars,2023.2.3,MacIntel,59.88023952,657b66ea316d21385b68909f,,,,,,,,,,,1282.5847,1283.5817,,,1284.0821,1284.332,,29,29,,,,,,,,,,,,,,,,bars/012.png,bars/mask009.png,,,,,,,,,,,,5,2,,,,,,,8,10,8,10,,,,,,,,,,,1283.5818,1284.082,1284.332,1289.417,space,5.0777,,1289.417,61,14,1290.4157,1290.4157,1290.43,,,,0,24,24,24,1,90,15,,,,,,,,
,,65207c22fa9502e61424d55e,65af56a8ba3c4b3e693170ce,2024-01-23_19h05.46.770,bars,2023.2.3,MacIntel,59.88023952,657b66ea316d21385b68909f,,,,,,,,,,,1290.4303,1291.431,,,1291.9325,1292.1825,,64,64,,,,,,,,,,,,,,,,bars/018.png,bars/mask009.png,,,,,,,,,,,,1,2,,,,,,,6,8,7,7,,,,,,,,,,,1291.4311,1291.9324,1292.1825,1295.933,space,3.7388,,1295.933,86,26,1296.9326,1296.9328,1296.947,,,,0,25,25,25,1,150,90,,,,,,,,
,,65207c22fa9502e61424d55e,65af56a8ba3c4b3e693170ce,2024-01-23_19h05.46.770,bars,2023.2.3,MacIntel,59.88023952,657b66ea316d21385b68909f,,,,,,,,,,,1296.9473,1297.9495,,,1298.4497,1298.6994,,106,106,,,,,,,,,,,,,,,,bars/013.png,bars/mask007.png,,,,,,,,,,,,0,1,,,,,,,4,6,4,6,,,,,,,,,,,1297.9495,1298.4497,1298.6994,1304.1152,space,5.4082,,1304.1152,31,84,1305.1168,1305.1169,1305.1358,,,,0,26,26,26,1,75,10,,,,,,,,
,,65207c22fa9502e61424d55e,65af56a8ba3c4b3e693170ce,2024-01-23_19h05.46.770,bars,2023.2.3,MacIntel,59.88023952,657b66ea316d21385b68909f,,,,,,,,,,,1305.1363,1306.1316,,,1306.6333,1306.8837,,7,7,,,,,,,,,,,,,,,,bars/008.png,bars/mask000.png,,,,,,,,,,,,5,2,,,,,,,2,8,3,7,,,,,,,,,,,1306.1316,1306.6333,1306.8837,1307.6835,space,0.787,,1307.6835,77,7,1308.6834,1308.6835,1308.6923,,,,0,27,27,27,1,110,0,,,,,,,,
,,65207c22fa9502e61424d55e,65af56a8ba3c4b3e693170ce,2024-01-23_19h05.46.770,bars,2023.2.3,MacIntel,59.88023952,657b66ea316d21385b68909f,,,,,,,,,,,1308.6926,1309.6833,,,1310.1837,1310.4326,,0,180,,,,,,,,,,,,,,,,bars/034.png,bars/mask002.png,,,,,,,,,,,,0,1,,,,,,,0,10,0,10,,,,,,,,,,,1309.6834,1310.1837,1310.4326,1313.3847,space,2.9434,,1313.3848,55,65,1314.3842,1314.3842,1314.403,,,,0,28,28,28,1,125,65,,,,,,,,
,,65207c22fa9502e61424d55e,65af56a8ba3c4b3e693170ce,2024-01-23_19h05.46.770,bars,2023.2.3,MacIntel,59.88023952,657b66ea316d21385b68909f,,,,,,,,,,,1314.4032,1315.3997,,,1315.8999,1316.1499,,145,145,,,,,,,,,,,,,,,,bars/036.png,bars/mask009.png,,,,,,,,,,,,1,1,,,,,,,0,8,1,9,,,,,,,,,,,1315.3997,1315.8999,1316.1499,1321.2676,space,5.1088,,1321.2676,0,55,1322.268,1322.268,1322.2825,,,,0,29,29,29,1,145,20,,,,,,,,
,,65207c22fa9502e61424d55e,65af56a8ba3c4b3e693170ce,2024-01-23_19h05.46.770,bars,2023.2.3,MacIntel,59.88023952,657b66ea316d21385b68909f,,,,,,,,,,,1322.2827,1323.2856,,,1323.7846,1324.0345,,8,8,,,,,,,,,,,,,,,,bars/017.png,bars/mask001.png,,,,,,,,,,,,0,2,,,,,,,0,6,0,5,,,,,,,,,,,1323.2856,1323.7846,1324.0346,1327.7349,space,3.6858,,1327.7349,43,37,1328.7356,1328.7357,1328.7551,,,,0,30,30,30,1,145,45,,,,,,,,
,,65207c22fa9502e61424d55e,65af56a8ba3c4b3e693170ce,2024-01-23_19h05.46.770,bars,2023.2.3,MacIntel,59.88023952,657b66ea316d21385b68909f,,,,,,,,,,,1328.7554,1329.7519,,,1330.252,1330.5019,,129,129,,,,,,,,,,,,,,,,bars/049.png,bars/mask006.png,,,,,,,,,,,,5,2,,,,,,,2,8,3,9,,,,,,,,,,,1329.7519,1330.252,1330.5019,1337.8564,space,7.3475,1E-04,1337.8564,31,14,1338.8522,1338.8522,1338.8668,,,,0,31,31,31,1,160,115,,,,,,,,
,,65207c22fa9502e61424d55e,65af56a8ba3c4b3e693170ce,2024-01-23_19h05.46.770,bars,2023.2.3,MacIntel,59.88023952,657b66ea316d21385b68909f,,,,,,,,,,,1338.8671,1339.8695,,,1340.3692,1340.6191,,32,32,,,,,,,,,,,,,,,,bars/045.png,bars/mask009.png,,,,,,,,,,,,2,2,,,,,,,0,10,0,9,,,,,,,,,,,1339.8696,1340.3691,1340.6191,1346.12,space,5.4858,,1346.12,68,22,1347.1196,1347.1197,1347.1321,,,,0,32,32,32,1,100,10,,,,,,,,
,,65207c22fa9502e61424d55e,65af56a8ba3c4b3e693170ce,2024-01-23_19h05.46.770,bars,2023.2.3,MacIntel,59.88023952,657b66ea316d21385b68909f,,,,,,,,,,,1347.1323,1348.1362,,,1348.6365,1348.8864,,83,83,,,,,,,,,,,,,,,,bars/014.png,bars/mask007.png,,,,,,,,,,,,3,1,,,,,,,2,10,3,10,,,,,,,,,,,1348.1363,1348.6365,1348.8864,1355.4193,space,6.5226,,1355.4193,3,83,1356.4201,1356.4201,1356.44,,,,0,33,33,33,1,80,0,,,,,,,,
,,65207c22fa9502e61424d55e,65af56a8ba3c4b3e693170ce,2024-01-23_19h05.46.770,bars,2023.2.3,MacIntel,59.88023952,657b66ea316d21385b68909f,,,,,,,,,,,1356.4402,1357.4369,,,1357.937,1358.1869,,163,163,,,,,,,,,,,,,,,,bars/047.png,bars/mask009.png,,,,,,,,,,,,0,1,,,,,,,0,10,0,10,,,,,,,,,,,1357.437,1357.9369,1358.1869,1364.0711,space,5.8692,,1364.0712,32,87,1365.0709,1365.0709,1365.0853,,,,0,34,34,34,1,15,70,,,,,,,,
,,65207c22fa9502e61424d55e,65af56a8ba3c4b3e693170ce,2024-01-23_19h05.46.770,bars,2023.2.3,MacIntel,59.88023952,657b66ea316d21385b68909f,,,,,,,,,,,1365.0856,1366.0882,,,1366.5875,1366.8381,,44,224,,,,,,,,,,,,,,,,bars/000.png,bars/mask004.png,,,,,,,,,,,,2,1,,,,,,,2,10,2,10,,,,,,,,,,,1366.0882,1366.5875,1366.8381,1371.9545,space,5.1018,,1371.9545,4,79,1372.9548,1372.9548,1372.9694,,,,0,35,35,35,1,40,145,,,,,,,,
,,65207c22fa9502e61424d55e,65af56a8ba3c4b3e693170ce,2024-01-23_19h05.46.770,bars,2023.2.3,MacIntel,59.88023952,657b66ea316d21385b68909f,,,,,,,,,,,1372.9698,1373.9709,,,1374.4697,1374.7214,,55,55,,,,,,,,,,,,,,,,bars/022.png,bars/mask008.png,,,,,,,,,,,,0,2,,,,,,,0,10,0,10,,,,,,,,,,,1373.971,1374.4697,1374.7214,1379.4214,space,4.6885,,1379.4215,40,35,1380.422,1380.422,1380.4414,,,,0,36,36,36,1,95,20,,,,,,,,
,,65207c22fa9502e61424d55e,65af56a8ba3c4b3e693170ce,2024-01-23_19h05.46.770,bars,2023.2.3,MacIntel,59.88023952,657b66ea316d21385b68909f,,,,,,,,,,,1380.4416,1381.4387,,,1381.9384,1382.1885,,114,114,,,,,,,,,,,,,,,,bars/036.png,bars/mask001.png,,,,,,,,,,,,0,1,,,,,,,0,10,1,10,,,,,,,,,,,1381.4387,1381.9384,1382.1885,1382.9724,space,0.774,,1382.9724,31,86,1383.972,1383.9721,1383.9822,,,,0,37,37,37,1,145,20,,,,,,,,
,,65207c22fa9502e61424d55e,65af56a8ba3c4b3e693170ce,2024-01-23_19h05.46.770,bars,2023.2.3,MacIntel,59.88023952,657b66ea316d21385b68909f,,,,,,,,,,,1383.9824,1384.9714,,,1385.4704,1385.7222,,36,36,,,,,,,,,,,,,,,,bars/003.png,bars/mask000.png,,,,,,,,,,,,1,1,,,,,,,2,8,1,9,,,,,,,,,,,1384.9714,1385.4704,1385.7223,1394.1728,space,8.4363,,1394.1729,11,76,1395.1716,1395.1716,1395.1872,,,,0,38,38,38,1,25,140,,,,,,,,
,,65207c22fa9502e61424d55e,65af56a8ba3c4b3e693170ce,2024-01-23_19h05.46.770,bars,2023.2.3,MacIntel,59.88023952,657b66ea316d21385b68909f,,,,,,,,,,,1395.1875,1396.1895,,,1396.6896,1396.9395,,111,111,,,,,,,,,,,,,,,,bars/030.png,bars/mask006.png,,,,,,,,,,,,0,1,,,,,,,4,10,4,10,,,,,,,,,,,1396.1895,1396.6895,1396.9395,1402.5397,space,5.5859,,1402.5397,29,46,1403.54,1403.54,1403.5544,,,,0,39,39,39,1,140,65,,,,,,,,
,,65207c22fa9502e61424d55e,65af56a8ba3c4b3e693170ce,2024-01-23_19h05.46.770,bars,2023.2.3,MacIntel,59.88023952,657b66ea316d21385b68909f,,,,,,,,,,,1403.5547,1404.5569,,,1405.057,1405.3052,,110,110,,,,,,,,,,,,,,,,bars/042.png,bars/mask008.png,,,,,,,,,,,,0,2,,,,,,,6,10,6,10,,,,,,,,,,,1404.5569,1405.0569,1405.3052,1408.0402,space,2.7203,,1408.0402,35,35,1409.0405,1409.0406,1409.059,,,,0,40,40,40,1,145,75,,,,,,,,
,,65207c22fa9502e61424d55e,65af56a8ba3c4b3e693170ce,2024-01-23_19h05.46.770,bars,2023.2.3,MacIntel,59.88023952,657b66ea316d21385b68909f,,,,,,,,,,,1409.0594,1410.0572,,,1410.5577,1410.8071,,47,47,,,,,,,,,,,,,,,,bars/019.png,bars/mask004.png,,,,,,,,,,,,8,1,,,,,,,8,10,9,10,,,,,,,,,,,1410.0572,1410.5576,1410.8071,1413.0906,space,2.2689,,1413.0907,2,58,1414.0907,1414.0908,1414.0994,,,,0,41,41,41,1,45,105,,,,,,,,
,,65207c22fa9502e61424d55e,65af56a8ba3c4b3e693170ce,2024-01-23_19h05.46.770,bars,2023.2.3,MacIntel,59.88023952,657b66ea316d21385b68909f,,,,,,,,,,,1414.0998,1415.0906,,,1415.59,1415.8409,,32,32,,,,,,,,,,,,,,,,bars/031.png,bars/mask008.png,,,,,,,,,,,,9,2,,,,,,,6,10,4,10,,,,,,,,,,,1415.0906,1415.5899,1415.841,1418.2589,space,2.4048,,1418.2591,88,3,1419.2577,1419.2579,1419.2773,,,,0,42,42,42,1,120,35,,,,,,,,
,,65207c22fa9502e61424d55e,65af56a8ba3c4b3e693170ce,2024-01-23_19h05.46.770,bars,2023.2.3,MacIntel,59.88023952,657b66ea316d21385b68909f,,,,,,,,,,,1419.2777,1420.2732,,,1420.7746,1421.0248,,174,174,,,,,,,,,,,,,,,,bars/028.png,bars/mask004.png,,,,,,,,,,,,0,1,,,,,,,8,8,6,8,,,,,,,,,,,1420.2733,1420.7746,1421.0248,1425.2581,space,4.2177,,1425.2581,51,54,1426.2568,1426.2569,1426.2774,,,,0,43,43,43,1,45,120,,,,,,,,
,,65207c22fa9502e61424d55e,65af56a8ba3c4b3e693170ce,2024-01-23_19h05.46.770,bars,2023.2.3,MacIntel,59.88023952,657b66ea316d21385b68909f,,,,,,,,,,,1426.2776,1427.2749,,,1427.775,1428.0252,,77,77,,,,,,,,,,,,,,,,bars/044.png,bars/mask006.png,,,,,,,,,,,,5,1,,,,,,,6,10,5,9,,,,,,,,,,,1427.2749,1427.775,1428.0253,1431.9599,space,3.9253,,1431.9599,2,78,1432.9589,1432.9589,1432.9736,,,,0,44,44,44,1,75,155,,,,,,,,
,,65207c22fa9502e61424d55e,65af56a8ba3c4b3e693170ce,2024-01-23_19h05.46.770,bars,2023.2.3,MacIntel,59.88023952,657b66ea316d21385b68909f,,,,,,,,,,,1432.9743,1433.974,,,1434.4755,1434.7239,,8,8,,,,,,,,,,,,,,,,bars/014.png,bars/mask007.png,,,,,,,,,,,,6,2,,,,,,,4,8,3,8,,,,,,,,,,,1433.9741,1434.4755,1434.7239,1442.4437,space,7.7113,,1442.4437,72,8,1443.4429,1443.4429,1443.4629,,,,0,45,45,45,1,80,0,,,,,,,,
,,65207c22fa9502e61424d55e,65af56a8ba3c4b3e693170ce,2024-01-23_19h05.46.770,bars,2023.2.3,MacIntel,59.88023952,657b66ea316d21385b68909f,,,,,,,,,,,1443.4631,1444.4595,,,1444.9617,1445.2098,,35,35,,,,,,,,,,,,,,,,bars/048.png,bars/mask005.png,,,,,,,,,,,,2,1,,,,,,,2,6,3,7,,,,,,,,,,,1444.4597,1444.9617,1445.2098,1452.5084,space,7.2862,,1452.5084,15,40,1453.51,1453.51,1453.5293,,,,0,46,46,46,1,50,175,,,,,,,,
,,65207c22fa9502e61424d55e,65af56a8ba3c4b3e693170ce,2024-01-23_19h05.46.770,bars,2023.2.3,MacIntel,59.88023952,657b66ea316d21385b68909f,,,,,,,,,,,1453.5295,1454.5267,,,1455.0267,1455.2756,,139,-41,,,,,,,,,,,,,,,,bars/039.png,bars/mask003.png,,,,,,,,,,,,0,2,,,,,,,4,4,4,4,,,,,,,,,,,1454.5267,1455.0267,1455.2756,1469.1274,space,13.8418,,1469.1275,36,34,1470.1264,1470.1264,1470.1474,,,,0,47,47,47,1,175,105,,,,,,,,
,,65207c22fa9502e61424d55e,65af56a8ba3c4b3e693170ce,2024-01-23_19h05.46.770,bars,2023.2.3,MacIntel,59.88023952,657b66ea316d21385b68909f,,,,,,,,,,,1470.1476,1471.1447,,,1471.6448,1471.895,,56,56,,,,,,,,,,,,,,,,bars/023.png,bars/mask005.png,,,,,,,,,,,,0,1,,,,,,,2,2,3,3,,,,,,,,,,,1471.1448,1471.6448,1471.895,1474.0123,space,2.1014,,1474.0124,36,59,1475.0115,1475.0116,1475.0216,,,,0,48,48,48,1,20,115,,,,,,,,
,,65207c22fa9502e61424d55e,65af56a8ba3c4b3e693170ce,2024-01-23_19h05.46.770,bars,2023.2.3,MacIntel,59.88023952,657b66ea316d21385b68909f,,,,,,,,,,,1475.022,1476.012,,,1476.5119,1476.7618,,70,70,,,,,,,,,,,,,,,,bars/012.png,bars/mask003.png,,,,,,,,,,,,1,1,,,,,,,4,0,3,0,,,,,,,,,,,1476.012,1476.5119,1476.7618,1484.2456,space,7.4741,,1484.2456,20,55,1485.2467,1485.2467,1485.2618,,,,0,49,49,49,1,90,15,,,,,,,,
,,65207c22fa9502e61424d55e,65af56a8ba3c4b3e693170ce,2024-01-23_19h05.46.770,bars,2023.2.3,MacIntel,59.88023952,657b66ea316d21385b68909f,,,,,,,,,,,,,,,,,,,,,,,,,,,,,,,,,,,,,,,,,,,,,,,,,,,,,,,,,,,,,,,,,,,,,,,,,,,,,,,,,,,,,,,,,,,,,1485.2619,1545.2502,0,1,1,0,1,sequence_tables/blk007.csv
,,65207c22fa9502e61424d55e,65af56a8ba3c4b3e693170ce,2024-01-23_19h05.46.770,bars,2023.2.3,MacIntel,59.88023952,657b66ea316d21385b68909f,,,,,,,,,,,1559.8129,1560.801,,,1561.3012,1561.551,,97,97,,,,,,,,,,,,,,,,bars/018.png,bars/mask003.png,,,,,,,,,,,,2,2,,,,,,,8,3,7,2,,,,,,1545.2643,1559.7995,space,14.5242,,1560.8011,1561.3011,1561.551,1566.4165,space,4.8519,,1566.4166,53,7,1567.4181,1567.4181,1567.4373,,,,0,0,0,0,1,150,90,,,,,,,,
,,65207c22fa9502e61424d55e,65af56a8ba3c4b3e693170ce,2024-01-23_19h05.46.770,bars,2023.2.3,MacIntel,59.88023952,657b66ea316d21385b68909f,,,,,,,,,,,1567.4375,1568.4348,,,1568.9353,1569.1848,,70,70,,,,,,,,,,,,,,,,bars/006.png,bars/mask001.png,,,,,,,,,,,,0,2,,,,,,,6,5,6,4,,,,,,,,,,,1568.4348,1568.9352,1569.1848,1575.5185,space,6.3177,,1575.5187,35,30,1576.5185,1576.5185,1576.5331,,,,0,1,1,1,1,35,100,,,,,,,,
,,65207c22fa9502e61424d55e,65af56a8ba3c4b3e693170ce,2024-01-23_19h05.46.770,bars,2023.2.3,MacIntel,59.88023952,657b66ea316d21385b68909f,,,,,,,,,,,1576.5333,1577.5353,,,1578.0354,1578.2854,,157,-23,,,,,,,,,,,,,,,,bars/010.png,bars/mask007.png,,,,,,,,,,,,6,1,,,,,,,8,3,8,3,,,,,,,,,,,1577.5353,1578.0354,1578.2854,1582.8687,space,4.5699,,1582.8687,8,78,1583.8696,1583.8697,1583.8889,,,,0,2,2,2,1,165,55,,,,,,,,
,,65207c22fa9502e61424d55e,65af56a8ba3c4b3e693170ce,2024-01-23_19h05.46.770,bars,2023.2.3,MacIntel,59.88023952,657b66ea316d21385b68909f,,,,,,,,,,,1583.8893,1584.8861,,,1585.3857,1585.636,,110,110,,,,,,,,,,,,,,,,bars/004.png,bars/mask009.png,,,,,,,,,,,,3,2,,,,,,,6,5,5,5,,,,,,,,,,,1584.8861,1585.3857,1585.636,1593.0204,space,7.3731,,1593.0205,85,15,1594.0182,1594.0182,1594.0325,,,,0,3,3,3,1,25,125,,,,,,,,
,,65207c22fa9502e61424d55e,65af56a8ba3c4b3e693170ce,2024-01-23_19h05.46.770,bars,2023.2.3,MacIntel,59.88023952,657b66ea316d21385b68909f,,,,,,,,,,,1594.0328,1595.0364,,,1595.5356,1595.7849,,30,210,,,,,,,,,,,,,,,,bars/031.png,bars/mask006.png,,,,,,,,,,,,3,2,,,,,,,8,3,9,3,,,,,,,,,,,1595.0365,1595.5356,1595.785,1602.2053,space,6.4092,,1602.2053,90,5,1603.2041,1603.2041,1603.2192,,,,0,4,4,4,1,120,35,,,,,,,,
,,65207c22fa9502e61424d55e,65af56a8ba3c4b3e693170ce,2024-01-23_19h05.46.770,bars,2023.2.3,MacIntel,59.88023952,657b66ea316d21385b68909f,,,,,,,,,,,1603.2198,1604.2203,,,1604.7206,1604.9705,,108,108,,,,,,,,,,,,,,,,bars/003.png,bars/mask003.png,,,,,,,,,,,,0,2,,,,,,,6,1,6,2,,,,,,,,,,,1604.2203,1604.7205,1604.9705,1609.8709,space,4.8879,,1609.8709,83,32,1610.8712,1610.8712,1610.8854,,,,0,5,5,5,1,25,140,,,,,,,,
,,65207c22fa9502e61424d55e,65af56a8ba3c4b3e693170ce,2024-01-23_19h05.46.770,bars,2023.2.3,MacIntel,59.88023952,657b66ea316d21385b68909f,,,,,,,,,,,1610.8857,1611.8864,,,1612.3862,1612.638,,24,24,,,,,,,,,,,,,,,,bars/044.png,bars/mask000.png,,,,,,,,,,,,0,2,,,,,,,4,3,3,3,,,,,,,,,,,1611.8865,1612.3861,1612.638,1617.2709,space,4.6215,,1617.2709,51,49,1618.2716,1618.2717,1618.2857,,,,0,6,6,6,1,75,155,,,,,,,,
,,65207c22fa9502e61424d55e,65af56a8ba3c4b3e693170ce,2024-01-23_19h05.46.770,bars,2023.2.3,MacIntel,59.88023952,657b66ea316d21385b68909f,,,,,,,,,,,1618.286,1619.289,,,1619.7889,1620.0387,,119,119,,,,,,,,,,,,,,,,bars/027.png,bars/mask008.png,,,,,,,,,,,,5,1,,,,,,,6,1,7,1,,,,,,,,,,,1619.2891,1619.7889,1620.0388,1625.4539,space,5.404,,1625.454,9,69,1626.4553,1626.4553,1626.4694,,,,0,7,7,7,1,110,50,,,,,,,,
,,65207c22fa9502e61424d55e,65af56a8ba3c4b3e693170ce,2024-01-23_19h05.46.770,bars,2023.2.3,MacIntel,59.88023952,657b66ea316d21385b68909f,,,,,,,,,,,1626.4697,1627.4722,,,1627.9728,1628.2388,,67,67,,,,,,,,,,,,,,,,bars/032.png,bars/mask003.png,,,,,,,,,,,,0,2,,,,,,,8,3,9,4,,,,,,,,,,,1627.4722,1627.9728,1628.2388,1633.5571,space,5.3106,,1633.5571,58,47,1634.5561,1634.5561,1634.5753,,,,0,8,8,8,1,125,20,,,,,,,,
,,65207c22fa9502e61424d55e,65af56a8ba3c4b3e693170ce,2024-01-23_19h05.46.770,bars,2023.2.3,MacIntel,59.88023952,657b66ea316d21385b68909f,,,,,,,,,,,1634.5757,1635.5724,,,1636.0714,1636.3207,,9,9,,,,,,,,,,,,,,,,bars/009.png,bars/mask005.png,,,,,,,,,,,,6,1,,,,,,,10,1,8,1,,,,,,,,,,,1635.5725,1636.0713,1636.3207,1642.8887,space,6.5547,,1642.8889,6,84,1643.8886,1643.8886,1643.9088,,,,0,9,9,9,1,15,105,,,,,,,,
,,65207c22fa9502e61424d55e,65af56a8ba3c4b3e693170ce,2024-01-23_19h05.46.770,bars,2023.2.3,MacIntel,59.88023952,657b66ea316d21385b68909f,,,,,,,,,,,1643.909,1644.905,,,1645.4068,1645.6551,,151,151,,,,,,,,,,,,,,,,bars/044.png,bars/mask007.png,,,,,,,,,,,,1,2,,,,,,,8,3,7,1,,,,,,,,,,,1644.9051,1645.4068,1645.6552,1651.9242,space,6.2524,,1651.9242,76,4,1652.9238,1652.9239,1652.9454,,,,0,10,10,10,1,75,155,,,,,,,,
,,65207c22fa9502e61424d55e,65af56a8ba3c4b3e693170ce,2024-01-23_19h05.46.770,bars,2023.2.3,MacIntel,59.88023952,657b66ea316d21385b68909f,,,,,,,,,,,1652.9458,1653.941,,,1654.441,1654.6884,,85,85,,,,,,,,,,,,,,,,bars/041.png,bars/mask000.png,,,,,,,,,,,,2,2,,,,,,,10,1,8,2,,,,,,,,,,,1653.941,1654.441,1654.6885,1661.1896,space,6.4845,,1661.1896,65,0,1662.1899,1662.19,1662.2054,,,,0,11,11,11,1,20,85,,,,,,,,
,,65207c22fa9502e61424d55e,65af56a8ba3c4b3e693170ce,2024-01-23_19h05.46.770,bars,2023.2.3,MacIntel,59.88023952,657b66ea316d21385b68909f,,,,,,,,,,,1662.2055,1663.2061,,,1663.7081,1663.9583,,0,180,,,,,,,,,,,,,,,,bars/015.png,bars/mask002.png,,,,,,,,,,,,0,2,,,,,,,10,0,10,0,,,,,,,,,,,1663.2062,1663.708,1663.9583,1668.5422,space,4.5744,,1668.5423,70,20,1669.5411,1669.5412,1669.5505,,,,0,12,12,12,1,110,160,,,,,,,,
,,65207c22fa9502e61424d55e,65af56a8ba3c4b3e693170ce,2024-01-23_19h05.46.770,bars,2023.2.3,MacIntel,59.88023952,657b66ea316d21385b68909f,,,,,,,,,,,1669.5507,1670.5408,,,1671.042,1671.2917,,49,49,,,,,,,,,,,,,,,,bars/018.png,bars/mask000.png,,,,,,,,,,,,0,2,,,,,,,8,2,9,2,,,,,,,,,,,1670.5409,1671.042,1671.2917,1674.5739,space,3.2678,,1674.5739,79,41,1675.5754,1675.5754,1675.5897,,,,0,13,13,13,1,150,90,,,,,,,,
,,65207c22fa9502e61424d55e,65af56a8ba3c4b3e693170ce,2024-01-23_19h05.46.770,bars,2023.2.3,MacIntel,59.88023952,657b66ea316d21385b68909f,,,,,,,,,,,1675.5899,1676.5905,,,1677.0929,1677.3409,,61,61,,,,,,,,,,,,,,,,bars/029.png,bars/mask005.png,,,,,,,,,,,,3,2,,,,,,,10,4,8,6,,,,,,,,,,,1676.5905,1677.0927,1677.3409,1687.4599,space,10.1028,,1687.4601,29,16,1688.4595,1688.4596,1688.4743,,,,0,14,14,14,1,90,45,,,,,,,,
,,65207c22fa9502e61424d55e,65af56a8ba3c4b3e693170ce,2024-01-23_19h05.46.770,bars,2023.2.3,MacIntel,59.88023952,657b66ea316d21385b68909f,,,,,,,,,,,1688.4747,1689.4762,,,1689.9745,1690.2263,,67,67,,,,,,,,,,,,,,,,bars/032.png,bars/mask003.png,,,,,,,,,,,,0,2,,,,,,,8,6,8,6,,,,,,,,,,,1689.4762,1689.9744,1690.2263,1693.2599,space,3.0241,,1693.2599,58,47,1694.2592,1694.2594,1694.2736,,,,0,15,15,15,1,125,20,,,,,,,,
,,65207c22fa9502e61424d55e,65af56a8ba3c4b3e693170ce,2024-01-23_19h05.46.770,bars,2023.2.3,MacIntel,59.88023952,657b66ea316d21385b68909f,,,,,,,,,,,1694.2739,1695.2771,,,1695.7773,1696.0271,,41,41,,,,,,,,,,,,,,,,bars/022.png,bars/mask004.png,,,,,,,,,,,,3,2,,,,,,,10,8,10,9,,,,,,,,,,,1695.2772,1695.7773,1696.0272,1701.9946,space,5.957,,1701.9947,54,21,1702.9957,1702.9958,1703.0088,,,,0,16,16,16,1,95,20,,,,,,,,
,,65207c22fa9502e61424d55e,65af56a8ba3c4b3e693170ce,2024-01-23_19h05.46.770,bars,2023.2.3,MacIntel,59.88023952,657b66ea316d21385b68909f,,,,,,,,,,,1703.009,1704.011,,,1704.5111,1704.7611,,49,49,,,,,,,,,,,,,,,,bars/033.png,bars/mask002.png,,,,,,,,,,,,2,1,,,,,,,10,10,10,10,,,,,,,,,,,1704.0111,1704.5111,1704.7611,1708.3274,space,3.5557,,1708.3288,24,74,1709.328,1709.328,1709.3473,,,,0,17,17,17,1,25,155,,,,,,,,
,,65207c22fa9502e61424d55e,65af56a8ba3c4b3e693170ce,2024-01-23_19h05.46.770,bars,2023.2.3,MacIntel,59.88023952,657b66ea316d21385b68909f,,,,,,,,,,,1709.3476,1710.3448,,,1710.8451,1711.0949,,142,-38,,,,,,,,,,,,,,,,bars/044.png,bars/mask007.png,,,,,,,,,,,,5,2,,,,,,,8,8,9,9,,,,,,,,,,,1710.3448,1710.845,1711.0949,1718.9949,space,7.8875,,1718.9949,67,13,1719.9953,1719.9953,1720.0152,,,,0,18,18,18,1,75,155,,,,,,,,
,,65207c22fa9502e61424d55e,65af56a8ba3c4b3e693170ce,2024-01-23_19h05.46.770,bars,2023.2.3,MacIntel,59.88023952,657b66ea316d21385b68909f,,,,,,,,,,,1720.0154,1721.0121,,,1721.512,1721.7604,,54,54,,,,,,,,,,,,,,,,bars/044.png,bars/mask004.png,,,,,,,,,,,,2,1,,,,,,,6,10,5,10,,,,,,,,,,,1721.0121,1721.512,1721.7604,1727.6774,space,5.9075,,1727.6774,21,79,1728.6791,1728.6791,1728.6983,,,,0,19,19,19,1,75,155,,,,,,,,
,,65207c22fa9502e61424d55e,65af56a8ba3c4b3e693170ce,2024-01-23_19h05.46.770,bars,2023.2.3,MacIntel,59.88023952,657b66ea316d21385b68909f,,,,,,,,,,,1728.6985,1729.6959,,,1730.1943,1730.4459,,134,-46,,,,,,,,,,,,,,,,bars/042.png,bars/mask008.png,,,,,,,,,,,,4,1,,,,,,,8,10,7,8,,,,,,,,,,,1729.696,1730.1942,1730.4459,1739.2284,space,8.7673,,1739.2285,11,59,1740.2298,1740.2298,1740.2442,,,,0,20,20,20,1,145,75,,,,,,,,
,,65207c22fa9502e61424d55e,65af56a8ba3c4b3e693170ce,2024-01-23_19h05.46.770,bars,2023.2.3,MacIntel,59.88023952,657b66ea316d21385b68909f,,,,,,,,,,,1740.2444,1741.2465,,,1741.7451,1741.9947,,61,61,,,,,,,,,,,,,,,,bars/031.png,bars/mask005.png,,,,,,,,,,,,1,2,,,,,,,6,8,5,8,,,,,,,,,,,1741.2465,1741.745,1741.9947,1747.0953,space,5.0897,,1747.0954,59,26,1748.0952,1748.0954,1748.1155,,,,0,21,21,21,1,120,35,,,,,,,,
,,65207c22fa9502e61424d55e,65af56a8ba3c4b3e693170ce,2024-01-23_19h05.46.770,bars,2023.2.3,MacIntel,59.88023952,657b66ea316d21385b68909f,,,,,,,,,,,1748.1158,1749.1142,,,1749.614,1749.864,,178,-2,,,,,,,,,,,,,,,,bars/009.png,bars/mask005.png,,,,,,,,,,,,1,1,,,,,,,4,10,3,10,,,,,,,,,,,1749.1142,1749.6139,1749.864,1755.064,space,5.19,,1755.0641,17,73,1756.063,1756.0631,1756.084,,,,0,22,22,22,1,15,105,,,,,,,,
,,65207c22fa9502e61424d55e,65af56a8ba3c4b3e693170ce,2024-01-23_19h05.46.770,bars,2023.2.3,MacIntel,59.88023952,657b66ea316d21385b68909f,,,,,,,,,,,1756.0842,1757.0795,,,1757.5802,1757.8298,,116,-64,,,,,,,,,,,,,,,,bars/007.png,bars/mask008.png,,,,,,,,,,,,0,1,,,,,,,2,10,2,10,,,,,,,,,,,1757.0795,1757.5801,1757.8299,1765.6811,space,7.8343,,1765.6811,59,61,1766.68,1766.68,1766.6957,,,,0,23,23,23,1,175,55,,,,,,,,
,,65207c22fa9502e61424d55e,65af56a8ba3c4b3e693170ce,2024-01-23_19h05.46.770,bars,2023.2.3,MacIntel,59.88023952,657b66ea316d21385b68909f,,,,,,,,,,,1766.6965,1767.697,,,1768.1967,1768.4465,,95,95,,,,,,,,,,,,,,,,bars/010.png,bars/mask001.png,,,,,,,,,,,,0,2,,,,,,,0,8,0,8,,,,,,,,,,,1767.697,1768.1967,1768.4465,1774.8152,space,6.3543,,1774.8152,70,40,1775.8158,1775.8158,1775.8365,,,,0,24,24,24,1,165,55,,,,,,,,
,,65207c22fa9502e61424d55e,65af56a8ba3c4b3e693170ce,2024-01-23_19h05.46.770,bars,2023.2.3,MacIntel,59.88023952,657b66ea316d21385b68909f,,,,,,,,,,,1775.8369,1776.8307,,,1777.3306,1777.5817,,44,224,,,,,,,,,,,,,,,,bars/001.png,bars/mask000.png,,,,,,,,,,,,0,2,,,,,,,2,6,3,4,,,,,,,,,,,1776.8308,1777.3306,1777.5819,1786.1484,space,8.5565,,1786.1484,86,41,1787.1482,1787.1484,1787.1639,,,,0,25,25,25,1,130,85,,,,,,,,
,,65207c22fa9502e61424d55e,65af56a8ba3c4b3e693170ce,2024-01-23_19h05.46.770,bars,2023.2.3,MacIntel,59.88023952,657b66ea316d21385b68909f,,,,,,,,,,,1787.1643,1788.1643,,,1788.665,1788.9152,,150,150,,,,,,,,,,,,,,,,bars/012.png,bars/mask008.png,,,,,,,,,,,,0,2,,,,,,,0,8,0,6,,,,,,,,,,,1788.1643,1788.665,1788.9152,1796.0989,space,7.1735,,1796.0989,60,45,1797.1035,1797.1035,1797.1129,,,,0,26,26,26,1,90,15,,,,,,,,
,,65207c22fa9502e61424d55e,65af56a8ba3c4b3e693170ce,2024-01-23_19h05.46.770,bars,2023.2.3,MacIntel,59.88023952,657b66ea316d21385b68909f,,,,,,,,,,,1797.1131,1798.1007,,,1798.5987,1798.8495,,84,84,,,,,,,,,,,,,,,,bars/013.png,bars/mask000.png,,,,,,,,,,,,3,1,,,,,,,2,10,4,9,,,,,,,,,,,1798.1007,1798.5987,1798.8495,1803.3846,space,4.5195,,1803.3846,9,74,1804.3843,1804.3844,1804.4035,,,,0,27,27,27,1,75,10,,,,,,,,
,,65207c22fa9502e61424d55e,65af56a8ba3c4b3e693170ce,2024-01-23_19h05.46.770,bars,2023.2.3,MacIntel,59.88023952,657b66ea316d21385b68909f,,,,,,,,,,,1804.4037,1805.4011,,,1805.8996,1806.1489,,123,-57,,,,,,,,,,,,,,,,bars/044.png,bars/mask005.png,,,,,,,,,,,,0,2,,,,,,,0,8,0,9,,,,,,,,,,,1805.4011,1805.8995,1806.1489,1814.6182,space,8.4551,,1814.6182,48,32,1815.6186,1815.6186,1815.6347,,,,0,28,28,28,1,75,155,,,,,,,,
,,65207c22fa9502e61424d55e,65af56a8ba3c4b3e693170ce,2024-01-23_19h05.46.770,bars,2023.2.3,MacIntel,59.88023952,657b66ea316d21385b68909f,,,,,,,,,,,1815.6351,1816.6335,,,1817.1339,1817.3861,,118,-62,,,,,,,,,,,,,,,,bars/005.png,bars/mask008.png,,,,,,,,,,,,3,2,,,,,,,0,10,0,10,,,,,,,,,,,1816.6336,1817.1338,1817.3861,1826.9846,space,9.5862,,1826.9847,72,22,1827.9852,1827.9853,1828.0007,,,,0,29,29,29,1,10,140,,,,,,,,
,,65207c22fa9502e61424d55e,65af56a8ba3c4b3e693170ce,2024-01-23_19h05.46.770,bars,2023.2.3,MacIntel,59.88023952,657b66ea316d21385b68909f,,,,,,,,,,,1828.001,1829.0014,,,1829.5029,1829.752,,4,4,,,,,,,,,,,,,,,,bars/046.png,bars/mask007.png,,,,,,,,,,,,0,1,,,,,,,2,8,0,9,,,,,,,,,,,1829.0014,1829.5029,1829.7521,1839.6543,space,9.8856,,1839.6543,29,81,1840.6536,1840.6537,1840.6738,,,,0,30,30,30,1,155,85,,,,,,,,
,,65207c22fa9502e61424d55e,65af56a8ba3c4b3e693170ce,2024-01-23_19h05.46.770,bars,2023.2.3,MacIntel,59.88023952,657b66ea316d21385b68909f,,,,,,,,,,,1840.6739,1841.6706,,,1842.173,1842.4205,,12,12,,,,,,,,,,,,,,,,bars/036.png,bars/mask002.png,,,,,,,,,,,,4,2,,,,,,,0,6,1,5,,,,,,,,,,,1841.6706,1842.1728,1842.4205,1848.5047,space,6.0678,,1848.5048,47,8,1849.5053,1849.5054,1849.5252,,,,0,31,31,31,1,145,20,,,,,,,,
,,65207c22fa9502e61424d55e,65af56a8ba3c4b3e693170ce,2024-01-23_19h05.46.770,bars,2023.2.3,MacIntel,59.88023952,657b66ea316d21385b68909f,,,,,,,,,,,1849.5255,1850.521,,,1851.021,1851.2689,,163,-17,,,,,,,,,,,,,,,,bars/005.png,bars/mask008.png,,,,,,,,,,,,1,2,,,,,,,2,4,2,3,,,,,,,,,,,1850.521,1851.021,1851.2689,1854.5226,space,3.2363,,1854.5226,27,23,1855.519,1855.519,1855.5345,,,,0,32,32,32,1,10,140,,,,,,,,
,,65207c22fa9502e61424d55e,65af56a8ba3c4b3e693170ce,2024-01-23_19h05.46.770,bars,2023.2.3,MacIntel,59.88023952,657b66ea316d21385b68909f,,,,,,,,,,,1855.5347,1856.5364,,,1857.0354,1857.2855,,41,41,,,,,,,,,,,,,,,,bars/025.png,bars/mask005.png,,,,,,,,,,,,2,2,,,,,,,4,2,4,2,,,,,,,,,,,1856.5365,1857.0354,1857.2855,1863.1728,space,5.8729,,1863.1729,64,1,1864.1704,1864.1704,1864.1859,,,,0,33,33,33,1,105,40,,,,,,,,
,,65207c22fa9502e61424d55e,65af56a8ba3c4b3e693170ce,2024-01-23_19h05.46.770,bars,2023.2.3,MacIntel,59.88023952,657b66ea316d21385b68909f,,,,,,,,,,,1864.1861,1865.1869,,,1865.6864,1865.937,,65,65,,,,,,,,,,,,,,,,bars/039.png,bars/mask003.png,,,,,,,,,,,,0,2,,,,,,,6,0,5,1,,,,,,,,,,,1865.1869,1865.6864,1865.937,1871.8038,space,5.8554,,1871.8039,70,40,1872.8057,1872.8057,1872.8205,,,,0,34,34,34,1,175,105,,,,,,,,
,,65207c22fa9502e61424d55e,65af56a8ba3c4b3e693170ce,2024-01-23_19h05.46.770,bars,2023.2.3,MacIntel,59.88023952,657b66ea316d21385b68909f,,,,,,,,,,,1872.821,1873.8203,,,1874.3214,1874.571,,120,-60,,,,,,,,,,,,,,,,bars/016.png,bars/mask009.png,,,,,,,,,,,,0,2,,,,,,,4,2,2,4,,,,,,,,,,,1873.8204,1874.3213,1874.571,1882.0221,space,7.4371,,1882.0222,80,45,1883.0236,1883.0236,1883.0388,,,,0,35,35,35,1,40,165,,,,,,,,
,,65207c22fa9502e61424d55e,65af56a8ba3c4b3e693170ce,2024-01-23_19h05.46.770,bars,2023.2.3,MacIntel,59.88023952,657b66ea316d21385b68909f,,,,,,,,,,,1883.0391,1884.0402,,,1884.5385,1884.7891,,90,90,,,,,,,,,,,,,,,,bars/000.png,bars/mask003.png,,,,,,,,,,,,0,1,,,,,,,2,4,2,4,,,,,,,,,,,1884.0402,1884.5384,1884.7891,1888.9744,space,4.175,,1888.9744,50,55,1889.9738,1889.9738,1889.9935,,,,0,36,36,36,1,40,145,,,,,,,,
,,65207c22fa9502e61424d55e,65af56a8ba3c4b3e693170ce,2024-01-23_19h05.46.770,bars,2023.2.3,MacIntel,59.88023952,657b66ea316d21385b68909f,,,,,,,,,,,1889.9937,1890.9887,,,1891.4887,1891.7403,,138,-42,,,,,,,,,,,,,,,,bars/008.png,bars/mask009.png,,,,,,,,,,,,0,1,,,,,,,4,2,4,3,,,,,,,,,,,1890.9888,1891.4886,1891.7404,1898.5394,space,6.789,,1898.5394,28,42,1899.5395,1899.5395,1899.5549,,,,0,37,37,37,1,110,0,,,,,,,,
,,65207c22fa9502e61424d55e,65af56a8ba3c4b3e693170ce,2024-01-23_19h05.46.770,bars,2023.2.3,MacIntel,59.88023952,657b66ea316d21385b68909f,,,,,,,,,,,1899.5551,1900.5576,,,1901.0563,1901.3058,,60,60,,,,,,,,,,,,,,,,bars/018.png,bars/mask007.png,,,,,,,,,,,,0,2,,,,,,,6,4,6,5,,,,,,,,,,,1900.5576,1901.0563,1901.3058,1902.4728,space,1.1557,,1902.4728,90,30,1903.4736,1903.4737,1903.483,,,,0,38,38,38,1,150,90,,,,,,,,
,,65207c22fa9502e61424d55e,65af56a8ba3c4b3e693170ce,2024-01-23_19h05.46.770,bars,2023.2.3,MacIntel,59.88023952,657b66ea316d21385b68909f,,,,,,,,,,,1903.4833,1904.4748,,,1904.9729,1905.2229,,96,96,,,,,,,,,,,,,,,,bars/009.png,bars/mask001.png,,,,,,,,,,,,5,2,,,,,,,4,6,6,7,,,,,,,,,,,1904.4748,1904.9728,1905.223,1906.0403,space,0.8035,,1906.0404,81,9,1907.0414,1907.0414,1907.0426,,,,0,39,39,39,1,15,105,,,,,,,,
,,65207c22fa9502e61424d55e,65af56a8ba3c4b3e693170ce,2024-01-23_19h05.46.770,bars,2023.2.3,MacIntel,59.88023952,657b66ea316d21385b68909f,,,,,,,,,,,1907.0432,1908.0412,,,1908.5393,1908.7898,,73,73,,,,,,,,,,,,,,,,bars/014.png,bars/mask005.png,,,,,,,,,,,,5,1,,,,,,,6,4,7,4,,,,,,,,,,,1908.0413,1908.5392,1908.7898,1912.7236,space,3.9202,,1912.7236,7,73,1913.7238,1913.7238,1913.745,,,,0,40,40,40,1,80,0,,,,,,,,
,,65207c22fa9502e61424d55e,65af56a8ba3c4b3e693170ce,2024-01-23_19h05.46.770,bars,2023.2.3,MacIntel,59.88023952,657b66ea316d21385b68909f,,,,,,,,,,,1913.7453,1914.7411,,,1915.2561,1915.5099,,164,164,,,,,,,,,,,,,,,,bars/003.png,bars/mask003.png,,,,,,,,,,,,0,2,,,,,,,4,2,5,1,,,,,,,,,,,1914.7412,1915.2561,1915.5099,1916.8404,space,1.3197,,1916.8406,41,24,1917.8406,1917.8407,1917.8605,,,,0,41,41,41,1,25,140,,,,,,,,
,,65207c22fa9502e61424d55e,65af56a8ba3c4b3e693170ce,2024-01-23_19h05.46.770,bars,2023.2.3,MacIntel,59.88023952,657b66ea316d21385b68909f,,,,,,,,,,,1917.8608,1918.8589,,,1919.3573,1919.6076,,100,100,,,,,,,,,,,,,,,,bars/025.png,bars/mask006.png,,,,,,,,,,,,3,1,,,,,,,2,4,3,4,,,,,,,,,,,1918.8589,1919.3573,1919.6076,1925.9241,space,6.3073,,1925.9242,5,60,1926.9263,1926.9263,1926.9462,,,,0,42,42,42,1,105,40,,,,,,,,
,,65207c22fa9502e61424d55e,65af56a8ba3c4b3e693170ce,2024-01-23_19h05.46.770,bars,2023.2.3,MacIntel,59.88023952,657b66ea316d21385b68909f,,,,,,,,,,,1926.9464,1927.9422,,,1928.4407,1928.6915,,123,123,,,,,,,,,,,,,,,,bars/047.png,bars/mask007.png,,,,,,,,,,,,0,2,,,,,,,4,2,5,1,,,,,,,,,,,1927.9422,1928.4407,1928.6915,1938.8415,space,10.1366,,1938.8415,72,53,1939.8421,1939.8421,1939.8625,,,,0,43,43,43,1,15,70,,,,,,,,
,,65207c22fa9502e61424d55e,65af56a8ba3c4b3e693170ce,2024-01-23_19h05.46.770,bars,2023.2.3,MacIntel,59.88023952,657b66ea316d21385b68909f,,,,,,,,,,,1939.8627,1940.8607,,,1941.3592,1941.6082,,171,-9,,,,,,,,,,,,,,,,bars/007.png,bars/mask004.png,,,,,,,,,,,,4,1,,,,,,,6,0,5,0,,,,,,,,,,,1940.8607,1941.3592,1941.6082,1948.5277,space,6.9044,,1948.5278,4,64,1949.5289,1949.5289,1949.5474,,,,0,44,44,44,1,175,55,,,,,,,,
,,65207c22fa9502e61424d55e,65af56a8ba3c4b3e693170ce,2024-01-23_19h05.46.770,bars,2023.2.3,MacIntel,59.88023952,657b66ea316d21385b68909f,,,,,,,,,,,1949.5477,1950.5446,,,1951.0437,1951.2938,,19,199,,,,,,,,,,,,,,,,bars/002.png,bars/mask007.png,,,,,,,,,,,,0,2,,,,,,,8,0,9,0,,,,,,,,,,,1950.5446,1951.0432,1951.2938,1954.6612,space,3.3533,,1954.6613,69,66,1955.6618,1955.6618,1955.6814,,,,0,45,45,45,1,130,85,,,,,,,,
,,65207c22fa9502e61424d55e,65af56a8ba3c4b3e693170ce,2024-01-23_19h05.46.770,bars,2023.2.3,MacIntel,59.88023952,657b66ea316d21385b68909f,,,,,,,,,,,1955.6816,1956.6771,,,1957.1762,1957.428,,94,94,,,,,,,,,,,,,,,,bars/045.png,bars/mask009.png,,,,,,,,,,,,6,1,,,,,,,6,0,8,0,,,,,,,,,,,1956.6771,1957.1762,1957.4281,1962.2606,space,4.8242,,1962.2606,6,84,1963.2623,1963.2623,1963.2818,,,,0,46,46,46,1,100,10,,,,,,,,
,,65207c22fa9502e61424d55e,65af56a8ba3c4b3e693170ce,2024-01-23_19h05.46.770,bars,2023.2.3,MacIntel,59.88023952,657b66ea316d21385b68909f,,,,,,,,,,,1963.2821,1964.2792,,,1964.7793,1965.0273,,139,139,,,,,,,,,,,,,,,,bars/015.png,bars/mask005.png,,,,,,,,,,,,1,2,,,,,,,8,2,8,3,,,,,,,,,,,1964.2793,1964.7793,1965.0273,1969.0127,space,3.97,,1969.0127,29,21,1970.0109,1970.0109,1970.0314,,,,0,47,47,47,1,110,160,,,,,,,,
,,65207c22fa9502e61424d55e,65af56a8ba3c4b3e693170ce,2024-01-23_19h05.46.770,bars,2023.2.3,MacIntel,59.88023952,657b66ea316d21385b68909f,,,,,,,,,,,1970.0318,1971.0276,,,1971.5278,1971.7793,,169,-11,,,,,,,,,,,,,,,,bars/033.png,bars/mask003.png,,,,,,,,,,,,2,2,,,,,,,10,4,10,3,,,,,,,,,,,1971.0277,1971.5278,1971.7793,1975.3613,space,3.5666,,1975.3613,36,14,1976.3611,1976.3611,1976.3763,,,,0,48,48,48,1,25,155,,,,,,,,
,,65207c22fa9502e61424d55e,65af56a8ba3c4b3e693170ce,2024-01-23_19h05.46.770,bars,2023.2.3,MacIntel,59.88023952,657b66ea316d21385b68909f,,,,,,,,,,,1976.3765,1977.378,,,1977.8779,1978.1281,,166,-14,,,,,,,,,,,,,,,,bars/029.png,bars/mask002.png,,,,,,,,,,,,0,2,,,,,,,10,2,10,2,,,,,,,,,,,1977.378,1977.8779,1978.1282,1983.2287,space,5.0849,,1983.2287,76,59,1984.228,1984.228,1984.2427,,,,0,49,49,49,1,90,45,,,,,,,,
,,65207c22fa9502e61424d55e,65af56a8ba3c4b3e693170ce,2024-01-23_19h05.46.770,bars,2023.2.3,MacIntel,59.88023952,657b66ea316d21385b68909f,,,,,,,,,,,,,,,,,,,,,,,,,,,,,,,,,,,,,,,,,,,,,,,,,,,,,,,,,,,,,,,,,,,,,,,,,,,,,,,,,,,,,,,,,,,,,1984.2427,2044.2327,0,2,2,4,1,sequence_tables/blk046.csv
,,65207c22fa9502e61424d55e,65af56a8ba3c4b3e693170ce,2024-01-23_19h05.46.770,bars,2023.2.3,MacIntel,59.88023952,657b66ea316d21385b68909f,,,,,,,,,,,2045.7554,2046.7489,,,2047.249,2047.4996,,134,134,,,,,,,,,,,,,,,,bars/001.png,bars/mask001.png,,,,,,,,,,,,1,1,,,,,,,1,9,1,9,,,,,,2044.2482,2045.749,space,1.4842,,2046.749,2047.249,2047.4997,2051.9871,space,4.4798,,2051.9871,4,49,2052.9832,2052.9832,2053.0033,,,,0,0,0,0,1,130,85,,,,,,,,
,,65207c22fa9502e61424d55e,65af56a8ba3c4b3e693170ce,2024-01-23_19h05.46.770,bars,2023.2.3,MacIntel,59.88023952,657b66ea316d21385b68909f,,,,,,,,,,,2053.0036,2054,,,2054.5002,2054.7493,,70,70,,,,,,,,,,,,,,,,bars/004.png,bars/mask006.png,,,,,,,,,,,,0,1,,,,,,,0,10,1,10,,,,,,,,,,,2054.0001,2054.5001,2054.7493,2060.3349,space,5.5727,,2060.335,45,55,2061.3337,2061.3337,2061.349,,,,0,1,1,1,1,25,125,,,,,,,,
,,65207c22fa9502e61424d55e,65af56a8ba3c4b3e693170ce,2024-01-23_19h05.46.770,bars,2023.2.3,MacIntel,59.88023952,657b66ea316d21385b68909f,,,,,,,,,,,2061.3493,2062.3505,,,2062.8501,2063.1022,,26,206,,,,,,,,,,,,,,,,bars/030.png,bars/mask002.png,,,,,,,,,,,,0,2,,,,,,,0,8,0,8,,,,,,,,,,,2062.3505,2062.8501,2063.1023,2069.1691,space,6.0537,,2069.1692,66,39,2070.1679,2070.168,2070.1889,,,,0,2,2,2,1,140,65,,,,,,,,
,,65207c22fa9502e61424d55e,65af56a8ba3c4b3e693170ce,2024-01-23_19h05.46.770,bars,2023.2.3,MacIntel,59.88023952,657b66ea316d21385b68909f,,,,,,,,,,,2070.1892,2071.1863,,,2071.6845,2071.9366,,177,177,,,,,,,,,,,,,,,,bars/011.png,bars/mask006.png,,,,,,,,,,,,0,1,,,,,,,2,10,1,9,,,,,,,,,,,2071.1864,2071.6845,2071.9366,2078.9017,space,6.9565,,2078.9017,17,88,2079.9034,2079.9034,2079.9245,,,,0,3,3,3,1,160,85,,,,,,,,
,,65207c22fa9502e61424d55e,65af56a8ba3c4b3e693170ce,2024-01-23_19h05.46.770,bars,2023.2.3,MacIntel,59.88023952,657b66ea316d21385b68909f,,,,,,,,,,,2079.9248,2080.9186,,,2081.4185,2081.6682,,19,19,,,,,,,,,,,,,,,,bars/044.png,bars/mask007.png,,,,,,,,,,,,0,2,,,,,,,0,10,0,10,,,,,,,,,,,2080.9186,2081.4185,2081.6682,2090.2875,space,8.6067,,2090.2875,56,44,2091.2856,2091.2856,2091.3071,,,,0,4,4,4,1,75,155,,,,,,,,
,,65207c22fa9502e61424d55e,65af56a8ba3c4b3e693170ce,2024-01-23_19h05.46.770,bars,2023.2.3,MacIntel,59.88023952,657b66ea316d21385b68909f,,,,,,,,,,,2091.3073,2092.3031,,,2092.8048,2093.0552,,137,137,,,,,,,,,,,,,,,,bars/041.png,bars/mask007.png,,,,,,,,,,,,0,2,,,,,,,0,10,1,9,,,,,,,,,,,2092.3035,2092.8047,2093.0559,2096.8212,space,3.7558,,2096.8213,63,52,2097.8205,2097.8205,2097.8302,,,,0,5,5,5,1,20,85,,,,,,,,
,,65207c22fa9502e61424d55e,65af56a8ba3c4b3e693170ce,2024-01-23_19h05.46.770,bars,2023.2.3,MacIntel,59.88023952,657b66ea316d21385b68909f,,,,,,,,,,,2097.8305,2098.8207,,,2099.3207,2099.5705,,90,90,,,,,,,,,,,,,,,,bars/015.png,bars/mask009.png,,,,,,,,,,,,1,1,,,,,,,2,10,2,9,,,,,,,,,,,2098.8207,2099.3207,2099.5706,2106.4045,space,6.8197,,2106.4046,20,70,2107.4044,2107.4044,2107.4252,,,,0,6,6,6,1,110,160,,,,,,,,
,,65207c22fa9502e61424d55e,65af56a8ba3c4b3e693170ce,2024-01-23_19h05.46.770,bars,2023.2.3,MacIntel,59.88023952,657b66ea316d21385b68909f,,,,,,,,,,,2107.4254,2108.4222,,,2108.9204,2109.1708,,91,91,,,,,,,,,,,,,,,,bars/015.png,bars/mask004.png,,,,,,,,,,,,0,1,,,,,,,0,8,0,8,,,,,,,,,,,2108.4223,2108.9204,2109.1708,2112.0716,space,2.8863,,2112.0719,19,69,2113.0726,2113.0726,2113.0868,,,,0,7,7,7,1,110,160,,,,,,,,
,,65207c22fa9502e61424d55e,65af56a8ba3c4b3e693170ce,2024-01-23_19h05.46.770,bars,2023.2.3,MacIntel,59.88023952,657b66ea316d21385b68909f,,,,,,,,,,,2113.087,2114.0899,,,2114.5893,2114.8398,,173,-7,,,,,,,,,,,,,,,,bars/031.png,bars/mask006.png,,,,,,,,,,,,0,2,,,,,,,0,10,0,9,,,,,,,,,,,2114.0899,2114.5893,2114.8399,2117.3556,space,2.4994,,2117.3559,53,42,2118.3547,2118.3548,2118.3753,,,,0,8,8,8,1,120,35,,,,,,,,
,,65207c22fa9502e61424d55e,65af56a8ba3c4b3e693170ce,2024-01-23_19h05.46.770,bars,2023.2.3,MacIntel,59.88023952,657b66ea316d21385b68909f,,,,,,,,,,,2118.3757,2119.374,,,2119.871,2120.1235,,46,46,,,,,,,,,,,,,,,,bars/037.png,bars/mask008.png,,,,,,,,,,,,0,2,,,,,,,2,10,3,10,,,,,,,,,,,2119.374,2119.8709,2120.1236,2125.8397,space,5.7062,,2125.8397,76,59,2126.8387,2126.8388,2126.854,,,,0,9,9,9,1,150,105,,,,,,,,
,,65207c22fa9502e61424d55e,65af56a8ba3c4b3e693170ce,2024-01-23_19h05.46.770,bars,2023.2.3,MacIntel,59.88023952,657b66ea316d21385b68909f,,,,,,,,,,,2126.8541,2127.8554,,,2128.3569,2128.6068,,178,-2,,,,,,,,,,,,,,,,bars/011.png,bars/mask009.png,,,,,,,,,,,,2,1,,,,,,,4,10,4,10,,,,,,,,,,,2127.8556,2128.3569,2128.6069,2131.257,space,2.6385,,2131.257,18,87,2132.2559,2132.256,2132.2756,,,,0,10,10,10,1,160,85,,,,,,,,
,,65207c22fa9502e61424d55e,65af56a8ba3c4b3e693170ce,2024-01-23_19h05.46.770,bars,2023.2.3,MacIntel,59.88023952,657b66ea316d21385b68909f,,,,,,,,,,,2132.2759,2133.2732,,,2133.7726,2134.0244,,103,103,,,,,,,,,,,,,,,,bars/018.png,bars/mask001.png,,,,,,,,,,,,6,2,,,,,,,2,10,3,10,,,,,,,,,,,2133.2733,2133.7725,2134.0244,2134.9563,space,0.9211,,2134.9564,47,13,2135.9554,2135.9555,2135.9654,,,,0,11,11,11,1,150,90,,,,,,,,
,,65207c22fa9502e61424d55e,65af56a8ba3c4b3e693170ce,2024-01-23_19h05.46.770,bars,2023.2.3,MacIntel,59.88023952,657b66ea316d21385b68909f,,,,,,,,,,,2135.9658,2136.9574,,,2137.4577,2137.7075,,177,-3,,,,,,,,,,,,,,,,bars/047.png,bars/mask004.png,,,,,,,,,,,,2,1,,,,,,,4,8,4,8,,,,,,,,,,,2136.9574,2137.4577,2137.7075,2142.308,space,4.5913,,2142.308,18,73,2143.3086,2143.3087,2143.3274,,,,0,12,12,12,1,15,70,,,,,,,,
,,65207c22fa9502e61424d55e,65af56a8ba3c4b3e693170ce,2024-01-23_19h05.46.770,bars,2023.2.3,MacIntel,59.88023952,657b66ea316d21385b68909f,,,,,,,,,,,2143.3278,2144.3231,,,2144.8235,2145.0738,,150,150,,,,,,,,,,,,,,,,bars/004.png,bars/mask008.png,,,,,,,,,,,,1,2,,,,,,,2,10,2,9,,,,,,,,,,,2144.3232,2144.8235,2145.074,2148.5403,space,3.4531,,2148.5404,55,25,2149.5404,2149.5408,2149.5597,,,,0,13,13,13,1,25,125,,,,,,,,
,,65207c22fa9502e61424d55e,65af56a8ba3c4b3e693170ce,2024-01-23_19h05.46.770,bars,2023.2.3,MacIntel,59.88023952,657b66ea316d21385b68909f,,,,,,,,,,,2149.5601,2150.5585,,,2151.0588,2151.3076,,124,124,,,,,,,,,,,,,,,,bars/009.png,bars/mask007.png,,,,,,,,,,,,4,2,,,,,,,4,10,5,10,,,,,,,,,,,2150.5586,2151.0588,2151.3077,2153.8917,space,2.5722,,2153.8917,71,19,2154.892,2154.892,2154.9061,,,,0,14,14,14,1,15,105,,,,,,,,
,,65207c22fa9502e61424d55e,65af56a8ba3c4b3e693170ce,2024-01-23_19h05.46.770,bars,2023.2.3,MacIntel,59.88023952,657b66ea316d21385b68909f,,,,,,,,,,,2154.9064,2155.9078,,,2156.4092,2156.6579,,0,180,,,,,,,,,,,,,,,,bars/021.png,bars/mask002.png,,,,,,,,,,,,1,1,,,,,,,6,8,6,9,,,,,,,,,,,2155.9079,2156.4092,2156.658,2160.1573,space,3.488,,2160.1573,25,70,2161.1589,2161.1589,2161.1784,,,,0,15,15,15,1,155,70,,,,,,,,
,,65207c22fa9502e61424d55e,65af56a8ba3c4b3e693170ce,2024-01-23_19h05.46.770,bars,2023.2.3,MacIntel,59.88023952,657b66ea316d21385b68909f,,,,,,,,,,,2161.1787,2162.1824,,,2162.6761,2162.9242,,46,226,,,,,,,,,,,,,,,,bars/028.png,bars/mask000.png,,,,,,,,,,,,3,1,,,,,,,4,6,3,7,,,,,,,,,,,2162.1824,2162.676,2162.9242,2168.4911,space,5.5549,,2168.4913,1,74,2169.4906,2169.4906,2169.5067,,,,0,16,16,16,1,45,120,,,,,,,,
,,65207c22fa9502e61424d55e,65af56a8ba3c4b3e693170ce,2024-01-23_19h05.46.770,bars,2023.2.3,MacIntel,59.88023952,657b66ea316d21385b68909f,,,,,,,,,,,2169.5071,2170.508,,,2171.0077,2171.2581,,151,151,,,,,,,,,,,,,,,,bars/040.png,bars/mask003.png,,,,,,,,,,,,4,1,,,,,,,6,4,7,6,,,,,,,,,,,2170.508,2171.0077,2171.2582,2176.1416,space,4.8727,,2176.1417,11,34,2177.1419,2177.1419,2177.1569,,,,0,17,17,17,1,140,5,,,,,,,,
,,65207c22fa9502e61424d55e,65af56a8ba3c4b3e693170ce,2024-01-23_19h05.46.770,bars,2023.2.3,MacIntel,59.88023952,657b66ea316d21385b68909f,,,,,,,,,,,2177.1575,2178.1578,,,2178.658,2178.9085,,98,98,,,,,,,,,,,,,,,,bars/018.png,bars/mask005.png,,,,,,,,,,,,1,2,,,,,,,8,2,8,2,,,,,,,,,,,2178.1579,2178.658,2178.9086,2181.5584,space,2.6388,,2181.5585,52,8,2182.5605,2182.5605,2182.5794,,,,0,18,18,18,1,150,90,,,,,,,,
,,65207c22fa9502e61424d55e,65af56a8ba3c4b3e693170ce,2024-01-23_19h05.46.770,bars,2023.2.3,MacIntel,59.88023952,657b66ea316d21385b68909f,,,,,,,,,,,2182.5797,2183.5755,,,2184.0758,2184.3258,,139,139,,,,,,,,,,,,,,,,bars/048.png,bars/mask004.png,,,,,,,,,,,,0,2,,,,,,,10,4,10,3,,,,,,,,,,,2183.5755,2184.0757,2184.3258,2188.8761,space,4.5345,,2188.8761,89,36,2189.8761,2189.8761,2189.8905,,,,0,19,19,19,1,50,175,,,,,,,,
,,65207c22fa9502e61424d55e,65af56a8ba3c4b3e693170ce,2024-01-23_19h05.46.770,bars,2023.2.3,MacIntel,59.88023952,657b66ea316d21385b68909f,,,,,,,,,,,2189.8906,2190.8929,,,2191.393,2191.6428,,92,92,,,,,,,,,,,,,,,,bars/015.png,bars/mask008.png,,,,,,,,,,,,4,1,,,,,,,10,6,10,6,,,,,,,,,,,2190.893,2191.393,2191.6428,2195.143,space,3.4858,,2195.143,18,68,2196.1429,2196.143,2196.1636,,,,0,20,20,20,1,110,160,,,,,,,,
,,65207c22fa9502e61424d55e,65af56a8ba3c4b3e693170ce,2024-01-23_19h05.46.770,bars,2023.2.3,MacIntel,59.88023952,657b66ea316d21385b68909f,,,,,,,,,,,2196.1638,2197.16,,,2197.6594,2197.9101,,97,97,,,,,,,,,,,,,,,,bars/001.png,bars/mask007.png,,,,,,,,,,,,2,2,,,,,,,10,4,9,4,,,,,,,,,,,2197.16,2197.6593,2197.9101,2199.8775,space,1.9588,,2199.8776,33,12,2200.8767,2200.8767,2200.8865,,,,0,21,21,21,1,130,85,,,,,,,,
,,65207c22fa9502e61424d55e,65af56a8ba3c4b3e693170ce,2024-01-23_19h05.46.770,bars,2023.2.3,MacIntel,59.88023952,657b66ea316d21385b68909f,,,,,,,,,,,2200.8868,2201.8767,,,2202.3772,2202.6264,,113,113,,,,,,,,,,,,,,,,bars/023.png,bars/mask008.png,,,,,,,,,,,,7,2,,,,,,,10,6,10,7,,,,,,,,,,,2201.8768,2202.3772,2202.6264,2203.8437,space,1.2027,,2203.8437,87,2,2204.8437,2204.8437,2204.8453,,,,0,22,22,22,1,20,115,,,,,,,,
,,65207c22fa9502e61424d55e,65af56a8ba3c4b3e693170ce,2024-01-23_19h05.46.770,bars,2023.2.3,MacIntel,59.88023952,657b66ea316d21385b68909f,,,,,,,,,,,2204.8457,2205.8434,,,2206.344,2206.5939,,9,9,,,,,,,,,,,,,,,,bars/048.png,bars/mask006.png,,,,,,,,,,,,2,2,,,,,,,8,4,7,4,,,,,,,,,,,2205.8434,2206.3439,2206.594,2211.1477,space,4.542,,2211.1477,41,14,2212.1459,2212.1459,2212.16,,,,0,23,23,23,1,50,175,,,,,,,,
,,65207c22fa9502e61424d55e,65af56a8ba3c4b3e693170ce,2024-01-23_19h05.46.770,bars,2023.2.3,MacIntel,59.88023952,657b66ea316d21385b68909f,,,,,,,,,,,2212.1608,2213.1609,,,2213.6606,2213.9109,,158,-22,,,,,,,,,,,,,,,,bars/010.png,bars/mask000.png,,,,,,,,,,,,5,1,,,,,,,6,6,6,6,,,,,,,,,,,2213.1609,2213.6605,2213.9109,2219.4635,space,5.5432,,2219.4636,7,77,2220.4616,2220.4617,2220.4821,,,,0,24,24,24,1,165,55,,,,,,,,
,,65207c22fa9502e61424d55e,65af56a8ba3c4b3e693170ce,2024-01-23_19h05.46.770,bars,2023.2.3,MacIntel,59.88023952,657b66ea316d21385b68909f,,,,,,,,,,,2220.4823,2221.4782,,,2221.9785,2222.2298,,34,34,,,,,,,,,,,,,,,,bars/006.png,bars/mask007.png,,,,,,,,,,,,4,1,,,,,,,4,8,4,8,,,,,,,,,,,2221.4782,2221.9785,2222.2299,2227.4287,space,5.1906,,2227.4287,1,66,2228.4286,2228.4287,2228.4438,,,,0,25,25,25,1,35,100,,,,,,,,
,,65207c22fa9502e61424d55e,65af56a8ba3c4b3e693170ce,2024-01-23_19h05.46.770,bars,2023.2.3,MacIntel,59.88023952,657b66ea316d21385b68909f,,,,,,,,,,,2228.4442,2229.4151,,,2229.9123,2230.162,,85,85,,,,,,,,,,,,,,,,bars/042.png,bars/mask002.png,,,,,,,,,,,,4,2,,,,,,,6,6,4,6,,,,,,,,,,,2229.4151,2229.9122,2230.1621,2235.8954,space,5.7178,,2235.8954,60,10,2236.8957,2236.8957,2236.9169,,,,0,26,26,26,1,145,75,,,,,,,,
,,65207c22fa9502e61424d55e,65af56a8ba3c4b3e693170ce,2024-01-23_19h05.46.770,bars,2023.2.3,MacIntel,59.88023952,657b66ea316d21385b68909f,,,,,,,,,,,2236.9173,2237.9121,,,2238.4131,2238.6628,,167,-13,,,,,,,,,,,,,,,,bars/028.png,bars/mask002.png,,,,,,,,,,,,0,2,,,,,,,4,8,3,8,,,,,,,,,,,2237.9121,2238.4131,2238.6628,2243.6968,space,5.0212,,2243.6968,58,47,2244.6964,2244.6964,2244.7118,,,,0,27,27,27,1,45,120,,,,,,,,
,,65207c22fa9502e61424d55e,65af56a8ba3c4b3e693170ce,2024-01-23_19h05.46.770,bars,2023.2.3,MacIntel,59.88023952,657b66ea316d21385b68909f,,,,,,,,,,,2244.7121,2245.7133,,,2246.2129,2246.4633,,22,22,,,,,,,,,,,,,,,,bars/015.png,bars/mask008.png,,,,,,,,,,,,0,2,,,,,,,6,6,7,5,,,,,,,,,,,2245.7133,2246.2128,2246.4633,2250.3303,space,3.8543,,2250.3304,88,42,2251.3302,2251.3302,2251.3455,,,,0,28,28,28,1,110,160,,,,,,,,
,,65207c22fa9502e61424d55e,65af56a8ba3c4b3e693170ce,2024-01-23_19h05.46.770,bars,2023.2.3,MacIntel,59.88023952,657b66ea316d21385b68909f,,,,,,,,,,,2251.3458,2252.3467,,,2252.8471,2253.097,,55,55,,,,,,,,,,,,,,,,bars/024.png,bars/mask001.png,,,,,,,,,,,,0,2,,,,,,,4,8,5,9,,,,,,,,,,,2252.3467,2252.8471,2253.0972,2257.314,space,4.2047,,2257.314,65,65,2258.315,2258.315,2258.3245,,,,0,29,29,29,1,120,170,,,,,,,,
,,65207c22fa9502e61424d55e,65af56a8ba3c4b3e693170ce,2024-01-23_19h05.46.770,bars,2023.2.3,MacIntel,59.88023952,657b66ea316d21385b68909f,,,,,,,,,,,2258.3247,2259.3144,,,2259.8142,2260.0641,,63,63,,,,,,,,,,,,,,,,bars/025.png,bars/mask007.png,,,,,,,,,,,,1,2,,,,,,,6,6,5,5,,,,,,,,,,,2259.3144,2259.8141,2260.0641,2264.3139,space,4.2342,,2264.314,42,23,2265.3166,2265.3166,2265.3312,,,,0,30,30,30,1,105,40,,,,,,,,
,,65207c22fa9502e61424d55e,65af56a8ba3c4b3e693170ce,2024-01-23_19h05.46.770,bars,2023.2.3,MacIntel,59.88023952,657b66ea316d21385b68909f,,,,,,,,,,,2265.3321,2266.333,,,2266.8317,2267.082,,67,67,,,,,,,,,,,,,,,,bars/027.png,bars/mask003.png,,,,,,,,,,,,4,2,,,,,,,4,8,3,10,,,,,,,,,,,2266.333,2266.8317,2267.0821,2272.7343,space,5.6424,,2272.7344,43,17,2273.7315,2273.7315,2273.7469,,,,0,31,31,31,1,110,50,,,,,,,,
,,65207c22fa9502e61424d55e,65af56a8ba3c4b3e693170ce,2024-01-23_19h05.46.770,bars,2023.2.3,MacIntel,59.88023952,657b66ea316d21385b68909f,,,,,,,,,,,2273.7472,2274.7482,,,2275.2489,2275.5006,,89,89,,,,,,,,,,,,,,,,bars/028.png,bars/mask008.png,,,,,,,,,,,,0,2,,,,,,,2,6,4,7,,,,,,,,,,,2274.7484,2275.2489,2275.5006,2279.8835,space,4.3681,,2279.8836,44,31,2280.8828,2280.8833,2280.898,,,,0,32,32,32,1,45,120,,,,,,,,
,,65207c22fa9502e61424d55e,65af56a8ba3c4b3e693170ce,2024-01-23_19h05.46.770,bars,2023.2.3,MacIntel,59.88023952,657b66ea316d21385b68909f,,,,,,,,,,,2280.8982,2281.8994,,,2282.401,2282.6495,,69,69,,,,,,,,,,,,,,,,bars/046.png,bars/mask002.png,,,,,,,,,,,,4,2,,,,,,,0,8,0,8,,,,,,,,,,,2281.8994,2282.401,2282.6495,2286.4694,space,3.8075,,2286.4694,86,16,2287.4685,2287.4686,2287.4825,,,,0,33,33,33,1,155,85,,,,,,,,
,,65207c22fa9502e61424d55e,65af56a8ba3c4b3e693170ce,2024-01-23_19h05.46.770,bars,2023.2.3,MacIntel,59.88023952,657b66ea316d21385b68909f,,,,,,,,,,,2287.4827,2288.4832,,,2288.9832,2289.2331,,15,15,,,,,,,,,,,,,,,,bars/014.png,bars/mask009.png,,,,,,,,,,,,4,2,,,,,,,2,6,2,7,,,,,,,,,,,2288.4832,2288.9832,2289.2332,2294.0355,space,4.7882,,2294.0355,65,15,2295.035,2295.035,2295.0509,,,,0,34,34,34,1,80,0,,,,,,,,
,,65207c22fa9502e61424d55e,65af56a8ba3c4b3e693170ce,2024-01-23_19h05.46.770,bars,2023.2.3,MacIntel,59.88023952,657b66ea316d21385b68909f,,,,,,,,,,,2295.0514,2296.0536,,,2296.5533,2296.802,,12,12,,,,,,,,,,,,,,,,bars/002.png,bars/mask004.png,,,,,,,,,,,,0,1,,,,,,,0,4,1,4,,,,,,,,,,,2296.0537,2296.5532,2296.802,2297.3504,space,0.5335,,2297.3504,62,73,2298.3499,2298.35,2298.36,,,,0,35,35,35,1,130,85,,,,,,,,
,,65207c22fa9502e61424d55e,65af56a8ba3c4b3e693170ce,2024-01-23_19h05.46.770,bars,2023.2.3,MacIntel,59.88023952,657b66ea316d21385b68909f,,,,,,,,,,,2298.3603,2299.3499,,,2299.8503,2300.1002,,25,25,,,,,,,,,,,,,,,,bars/046.png,bars/mask008.png,,,,,,,,,,,,0,1,,,,,,,0,6,0,4,,,,,,,,,,,2299.3499,2299.8503,2300.1002,2301.82,space,1.7094,,2301.8201,50,60,2302.8173,2302.8173,2302.8191,,,,0,36,36,36,1,155,85,,,,,,,,
,,65207c22fa9502e61424d55e,65af56a8ba3c4b3e693170ce,2024-01-23_19h05.46.770,bars,2023.2.3,MacIntel,59.88023952,657b66ea316d21385b68909f,,,,,,,,,,,2302.8197,2303.8187,,,2304.319,2304.5667,,47,47,,,,,,,,,,,,,,,,bars/044.png,bars/mask001.png,,,,,,,,,,,,0,1,,,,,,,2,4,2,5,,,,,,,,,,,2303.8187,2304.319,2304.5668,2308.5176,space,3.9405,,2308.5177,28,72,2309.5176,2309.5176,2309.5328,,,,0,37,37,37,1,75,155,,,,,,,,
,,65207c22fa9502e61424d55e,65af56a8ba3c4b3e693170ce,2024-01-23_19h05.46.770,bars,2023.2.3,MacIntel,59.88023952,657b66ea316d21385b68909f,,,,,,,,,,,2309.5333,2310.5338,,,2311.0343,2311.2843,,160,160,,,,,,,,,,,,,,,,bars/038.png,bars/mask007.png,,,,,,,,,,,,4,1,,,,,,,4,6,5,6,,,,,,,,,,,2310.5339,2311.0343,2311.2844,2314.1514,space,2.8551,,2314.1514,5,90,2315.1515,2315.1515,2315.1668,,,,0,38,38,38,1,165,70,,,,,,,,
,,65207c22fa9502e61424d55e,65af56a8ba3c4b3e693170ce,2024-01-23_19h05.46.770,bars,2023.2.3,MacIntel,59.88023952,657b66ea316d21385b68909f,,,,,,,,,,,2315.1671,2316.1674,,,2316.6677,2316.918,,83,83,,,,,,,,,,,,,,,,bars/006.png,bars/mask003.png,,,,,,,,,,,,3,2,,,,,,,2,8,1,8,,,,,,,,,,,2316.1675,2316.6677,2316.918,2321.6518,space,4.7191,,2321.6519,48,17,2322.6534,2322.6534,2322.6722,,,,0,39,39,39,1,35,100,,,,,,,,
,,65207c22fa9502e61424d55e,65af56a8ba3c4b3e693170ce,2024-01-23_19h05.46.770,bars,2023.2.3,MacIntel,59.88023952,657b66ea316d21385b68909f,,,,,,,,,,,2322.6725,2323.6687,,,2324.1684,2324.4188,,177,177,,,,,,,,,,,,,,,,bars/004.png,bars/mask003.png,,,,,,,,,,,,0,1,,,,,,,0,10,0,10,,,,,,,,,,,2323.6687,2324.1684,2324.4188,2326.6521,space,2.2208,,2326.6522,28,52,2327.6524,2327.6524,2327.673,,,,0,40,40,40,1,25,125,,,,,,,,
,,65207c22fa9502e61424d55e,65af56a8ba3c4b3e693170ce,2024-01-23_19h05.46.770,bars,2023.2.3,MacIntel,59.88023952,657b66ea316d21385b68909f,,,,,,,,,,,2327.6733,2328.6688,,,2329.1689,2329.4189,,1,181,,,,,,,,,,,,,,,,bars/028.png,bars/mask009.png,,,,,,,,,,,,0,1,,,,,,,0,8,1,10,,,,,,,,,,,2328.6688,2329.1689,2329.4189,2331.1022,space,1.6704,,2331.1023,44,61,2332.1023,2332.1024,2332.1174,,,,0,41,41,41,1,45,120,,,,,,,,
,,65207c22fa9502e61424d55e,65af56a8ba3c4b3e693170ce,2024-01-23_19h05.46.770,bars,2023.2.3,MacIntel,59.88023952,657b66ea316d21385b68909f,,,,,,,,,,,2332.1175,2333.1192,,,2333.6187,2333.8695,,1,181,,,,,,,,,,,,,,,,bars/012.png,bars/mask008.png,,,,,,,,,,,,5,2,,,,,,,0,10,0,10,,,,,,,,,,,2333.1193,2333.6187,2333.8695,2338.0862,space,4.2064,,2338.0863,89,14,2339.088,2339.088,2339.1068,,,,0,42,42,42,1,90,15,,,,,,,,
,,65207c22fa9502e61424d55e,65af56a8ba3c4b3e693170ce,2024-01-23_19h05.46.770,bars,2023.2.3,MacIntel,59.88023952,657b66ea316d21385b68909f,,,,,,,,,,,2339.1071,2340.1023,,,2340.6032,2340.8553,,0,180,,,,,,,,,,,,,,,,bars/019.png,bars/mask002.png,,,,,,,,,,,,0,1,,,,,,,2,10,2,10,,,,,,,,,,,2340.1023,2340.6031,2340.8554,2345.9203,space,5.0512,,2345.9204,45,75,2346.9215,2346.9216,2346.9405,,,,0,43,43,43,1,45,105,,,,,,,,
,,65207c22fa9502e61424d55e,65af56a8ba3c4b3e693170ce,2024-01-23_19h05.46.770,bars,2023.2.3,MacIntel,59.88023952,657b66ea316d21385b68909f,,,,,,,,,,,2346.9407,2347.9387,,,2348.4364,2348.6938,,130,130,,,,,,,,,,,,,,,,bars/009.png,bars/mask008.png,,,,,,,,,,,,1,2,,,,,,,0,8,1,9,,,,,,,,,,,2347.9388,2348.4363,2348.6939,2352.7537,space,4.0399,,2352.7537,65,25,2353.7538,2353.7538,2353.774,,,,0,44,44,44,1,15,105,,,,,,,,
,,65207c22fa9502e61424d55e,65af56a8ba3c4b3e693170ce,2024-01-23_19h05.46.770,bars,2023.2.3,MacIntel,59.88023952,657b66ea316d21385b68909f,,,,,,,,,,,2353.7742,2354.77,,,2355.2706,2355.5222,,17,197,,,,,,,,,,,,,,,,bars/045.png,bars/mask006.png,,,,,,,,,,,,8,2,,,,,,,0,10,0,10,,,,,,,,,,,2354.7701,2355.2706,2355.5223,2358.721,space,3.1853,,2358.721,83,7,2359.7208,2359.7209,2359.7361,,,,0,45,45,45,1,100,10,,,,,,,,
,,65207c22fa9502e61424d55e,65af56a8ba3c4b3e693170ce,2024-01-23_19h05.46.770,bars,2023.2.3,MacIntel,59.88023952,657b66ea316d21385b68909f,,,,,,,,,,,2359.7365,2360.7376,,,2361.2373,2361.4881,,165,165,,,,,,,,,,,,,,,,bars/025.png,bars/mask005.png,,,,,,,,,,,,0,2,,,,,,,0,10,0,10,,,,,,,,,,,2360.7377,2361.2372,2361.4881,2363.0214,space,1.5187,,2363.0215,60,55,2364.0213,2364.0213,2364.0366,,,,0,46,46,46,1,105,40,,,,,,,,
,,65207c22fa9502e61424d55e,65af56a8ba3c4b3e693170ce,2024-01-23_19h05.46.770,bars,2023.2.3,MacIntel,59.88023952,657b66ea316d21385b68909f,,,,,,,,,,,2364.0369,2365.0399,,,2365.5401,2365.7886,,111,111,,,,,,,,,,,,,,,,bars/011.png,bars/mask004.png,,,,,,,,,,,,1,2,,,,,,,0,8,0,8,,,,,,,,,,,2365.0401,2365.54,2365.7886,2366.8393,space,1.0419,,2366.8393,49,26,2367.8382,2367.8382,2367.8534,,,,0,47,47,47,1,160,85,,,,,,,,
,,65207c22fa9502e61424d55e,65af56a8ba3c4b3e693170ce,2024-01-23_19h05.46.770,bars,2023.2.3,MacIntel,59.88023952,657b66ea316d21385b68909f,,,,,,,,,,,2367.8538,2368.855,,,2369.3561,2369.605,,171,-9,,,,,,,,,,,,,,,,bars/028.png,bars/mask004.png,,,,,,,,,,,,0,2,,,,,,,0,6,0,7,,,,,,,,,,,2368.855,2369.3559,2369.6051,2375.1225,space,5.5011,,2375.1226,54,51,2376.1222,2376.1222,2376.1375,,,,0,48,48,48,1,45,120,,,,,,,,
,,65207c22fa9502e61424d55e,65af56a8ba3c4b3e693170ce,2024-01-23_19h05.46.770,bars,2023.2.3,MacIntel,59.88023952,657b66ea316d21385b68909f,,,,,,,,,,,2376.1378,2377.1385,,,2377.6383,2377.8873,,62,62,,,,,,,,,,,,,,,,bars/046.png,bars/mask006.png,,,,,,,,,,,,1,2,,,,,,,2,4,3,5,,,,,,,,,,,2377.1385,2377.6383,2377.8874,2381.4894,space,3.5879,,2381.4894,87,23,2382.4895,2382.4895,2382.5051,,,,0,49,49,49,1,155,85,,,,,,,,
,,65207c22fa9502e61424d55e,65af56a8ba3c4b3e693170ce,2024-01-23_19h05.46.770,bars,2023.2.3,MacIntel,59.88023952,657b66ea316d21385b68909f,,,,,,,,,,,,,,,,,,,,,,,,,,,,,,,,,,,,,,,,,,,,,,,,,,,,,,,,,,,,,,,,,,,,,,,,,,,,,,,,,,,,,,,,,,,,,2382.5053,2442.4938,0,3,3,3,1,sequence_tables/blk003.csv
,,65207c22fa9502e61424d55e,65af56a8ba3c4b3e693170ce,2024-01-23_19h05.46.770,bars,2023.2.3,MacIntel,59.88023952,657b66ea316d21385b68909f,,,,,,,,,,,2443.4983,2444.4938,,,2444.9931,2445.2435,,101,101,,,,,,,,,,,,,,,,bars/047.png,bars/mask000.png,,,,,,,,,,,,0,2,,,,,,,5,5,5,6,,,,,,2442.5086,2443.4924,space,0.9747,,2444.4938,2444.993,2445.2435,2449.1938,space,3.9344,,2449.1939,86,31,2450.1938,2450.1938,2450.209,,,,0,0,0,0,1,15,70,,,,,,,,
,,65207c22fa9502e61424d55e,65af56a8ba3c4b3e693170ce,2024-01-23_19h05.46.770,bars,2023.2.3,MacIntel,59.88023952,657b66ea316d21385b68909f,,,,,,,,,,,2450.2091,2451.2108,,,2451.7108,2451.9608,,57,57,,,,,,,,,,,,,,,,bars/008.png,bars/mask006.png,,,,,,,,,,,,0,1,,,,,,,3,3,1,3,,,,,,,,,,,2451.2108,2451.7108,2451.9608,2455.0128,space,3.0361,,2455.0129,53,57,2456.0109,2456.0109,2456.0328,,,,0,1,1,1,1,110,0,,,,,,,,
,,65207c22fa9502e61424d55e,65af56a8ba3c4b3e693170ce,2024-01-23_19h05.46.770,bars,2023.2.3,MacIntel,59.88023952,657b66ea316d21385b68909f,,,,,,,,,,,2456.0332,2457.0272,,,2457.528,2457.7771,,27,27,,,,,,,,,,,,,,,,bars/034.png,bars/mask007.png,,,,,,,,,,,,0,2,,,,,,,1,5,2,7,,,,,,,,,,,2457.0272,2457.5279,2457.7772,2459.3949,space,1.5993,,2459.395,82,38,2460.394,2460.3941,2460.4053,,,,0,2,2,2,1,125,65,,,,,,,,
,,65207c22fa9502e61424d55e,65af56a8ba3c4b3e693170ce,2024-01-23_19h05.46.770,bars,2023.2.3,MacIntel,59.88023952,657b66ea316d21385b68909f,,,,,,,,,,,2460.4055,2461.3948,,,2461.8942,2462.1447,,78,78,,,,,,,,,,,,,,,,bars/000.png,bars/mask008.png,,,,,,,,,,,,0,1,,,,,,,0,7,0,9,,,,,,,,,,,2461.3948,2461.8942,2462.1448,2467.7605,space,5.6033,,2467.7606,38,67,2468.7667,2468.7668,2468.7837,,,,0,3,3,3,1,40,145,,,,,,,,
,,65207c22fa9502e61424d55e,65af56a8ba3c4b3e693170ce,2024-01-23_19h05.46.770,bars,2023.2.3,MacIntel,59.88023952,657b66ea316d21385b68909f,,,,,,,,,,,2468.7839,2469.7782,,,2470.2782,2470.5282,,141,141,,,,,,,,,,,,,,,,bars/041.png,bars/mask005.png,,,,,,,,,,,,0,2,,,,,,,0,5,2,4,,,,,,,,,,,2469.7783,2470.2782,2470.5282,2473.7624,space,3.2183,,2473.7625,59,56,2474.7617,2474.7618,2474.7823,,,,0,4,4,4,1,20,85,,,,,,,,
,,65207c22fa9502e61424d55e,65af56a8ba3c4b3e693170ce,2024-01-23_19h05.46.770,bars,2023.2.3,MacIntel,59.88023952,657b66ea316d21385b68909f,,,,,,,,,,,2474.7826,2475.7791,,,2476.2796,2476.5281,,30,210,,,,,,,,,,,,,,,,bars/022.png,bars/mask006.png,,,,,,,,,,,,5,2,,,,,,,2,7,3,8,,,,,,,,,,,2475.7791,2476.2795,2476.5281,2482.0955,space,5.5596,,2482.0956,65,10,2483.0963,2483.0964,2483.1117,,,,0,5,5,5,1,95,20,,,,,,,,
,,65207c22fa9502e61424d55e,65af56a8ba3c4b3e693170ce,2024-01-23_19h05.46.770,bars,2023.2.3,MacIntel,59.88023952,657b66ea316d21385b68909f,,,,,,,,,,,2483.1119,2484.1129,,,2484.6131,2484.8619,,88,88,,,,,,,,,,,,,,,,bars/041.png,bars/mask005.png,,,,,,,,,,,,9,2,,,,,,,4,9,4,10,,,,,,,,,,,2484.113,2484.613,2484.862,2489.413,space,4.5352,,2489.4131,68,3,2490.413,2490.413,2490.4281,,,,0,6,6,6,1,20,85,,,,,,,,
,,65207c22fa9502e61424d55e,65af56a8ba3c4b3e693170ce,2024-01-23_19h05.46.770,bars,2023.2.3,MacIntel,59.88023952,657b66ea316d21385b68909f,,,,,,,,,,,2490.4284,2491.4303,,,2491.9296,2492.1801,,121,121,,,,,,,,,,,,,,,,bars/043.png,bars/mask003.png,,,,,,,,,,,,6,2,,,,,,,2,10,1,9,,,,,,,,,,,2491.4304,2491.9296,2492.1802,2497.3634,space,5.1689,,2497.3635,89,9,2498.3634,2498.3634,2498.3789,,,,0,7,7,7,1,30,130,,,,,,,,
,,65207c22fa9502e61424d55e,65af56a8ba3c4b3e693170ce,2024-01-23_19h05.46.770,bars,2023.2.3,MacIntel,59.88023952,657b66ea316d21385b68909f,,,,,,,,,,,2498.3791,2499.3806,,,2499.8803,2500.1307,,106,106,,,,,,,,,,,,,,,,bars/013.png,bars/mask002.png,,,,,,,,,,,,0,1,,,,,,,4,8,2,8,,,,,,,,,,,2499.3807,2499.8802,2500.1307,2504.8319,space,4.6872,,2504.832,31,84,2505.8291,2505.8292,2505.8477,,,,0,8,8,8,1,75,10,,,,,,,,
