init_variables.started,init_variables.stopped,participant,session,date,expName,psychopyVersion,OS,frameRate,study_id,instruction_exp.started,instruction_exp.stopped,key_resp_8.keys,key_resp_8.rt,key_resp_8.duration,instruction_single.started,instruction_single.stopped,key_resp_2.keys,key_resp_2.rt,key_resp_2.duration,interval.started,interval.stopped,cue_single.started,cue_single.stopped,mask.started,mask.stopped,ori_response_single.started,res_ori,res,ori_response_single.stopped,key_resp_single.keys,key_resp_single.rt,key_resp_single.duration,disp_single.started,disp_single.stopped,key_resp.keys,key_resp.rt,key_resp.duration,single.thisRepN,single.thisTrialN,single.thisN,single.thisIndex,single.ran,ori,path,mask_path,instruction_bandit.started,instruction_bandit.stopped,key_resp_6.keys,key_resp_6.rt,key_resp_6.duration,cue_bandit.started,cue_bandit.stopped,bandit_res.keys,bandit_res.rt,bandit_res.duration,outcome_bandit.started,rew,action,outcome_bandit.stopped,bandit.thisRepN,bandit.thisTrialN,bandit.thisN,bandit.thisIndex,bandit.ran,actual_rew1,actual_rew2,rew1,rew2,instruction_task.started,instruction_task.stopped,key_resp_7.keys,key_resp_7.rt,key_resp_7.duration,wait_ready.started,wait_ready.stopped,key_resp_3.keys,key_resp_3.rt,key_resp_3.duration,cue.started,cue.stopped,ori_response.started,ori_response.stopped,key_resp_5.keys,key_resp_5.rt,key_resp_5.duration,outcome.started,diff1,diff2,outcome.stopped,disp_outcome_practice.started,disp_outcome_practice.stopped,key_resp_4.keys,key_resp_4.rt,key_resp_4.duration,trials.thisRepN,trials.thisTrialN,trials.thisN,trials.thisIndex,trials.ran,ori1,ori2,break_blk.started,break_blk.stopped,block.thisRepN,block.thisTrialN,block.thisN,block.thisIndex,block.ran,condition_file
0.0003,0.0006,612e964f739d5a3c47126397,65af539e91bb652b9495ba62,2024-01-23_07h53.12.582,bars,2023.2.3,Win32,3.750150006,657b66ea316d21385b68909f,,,,,,,,,,,,,,,,,,,,,,,,,,,,,,,,,,,,,,,,,,,,,,,,,,,,,,,,,,,,,,,,,,,,,,,,,,,,,,,,,,,,,,,,,,,,,,,,,,,,
,,612e964f739d5a3c47126397,65af539e91bb652b9495ba62,2024-01-23_07h53.12.582,bars,2023.2.3,Win32,3.750150006,657b66ea316d21385b68909f,0.0009,11.8676,y,11.5184,0.0005,,,,,,,,,,,,,,,,,,,,,,,,,,,,,,,,,,,,,,,,,,,,,,,,,,,,,,,,,,,,,,,,,,,,,,,,,,,,,,,,,,,,,,,,,,,,,,,
,,612e964f739d5a3c47126397,65af539e91bb652b9495ba62,2024-01-23_07h53.12.582,bars,2023.2.3,Win32,3.750150006,657b66ea316d21385b68909f,,,,,,11.8678,15.1067,space,2.9352,0.0004,,,,,,,,,,,,,,,,,,,,,,,,,,,,,,,,,,,,,,,,,,,,,,,,,,,,,,,,,,,,,,,,,,,,,,,,,,,,,,,,,,,,,,,,,,
,,612e964f739d5a3c47126397,65af539e91bb652b9495ba62,2024-01-23_07h53.12.582,bars,2023.2.3,Win32,3.750150006,657b66ea316d21385b68909f,,,,,,,,,,,15.1139,15.9832,15.9833,16.3076,16.3077,16.6245,16.6247,179,-1,80.7731,space,63.8291,0.0004,80.7732,96.8203,space,15.7296,,0,0,0,4,1,95,bars/single004.png,bars/mask004.png,,,,,,,,,,,,,,,,,,,,,,,,,,,,,,,,,,,,,,,,,,,,,,,,,,,,,,,,,,,,,,,,
,,612e964f739d5a3c47126397,65af539e91bb652b9495ba62,2024-01-23_07h53.12.582,bars,2023.2.3,Win32,3.750150006,657b66ea316d21385b68909f,,,,,,,,,,,96.8318,97.7008,97.7009,98.0139,98.0139,98.3331,98.3332,4,184,135.3321,space,36.7039,0.0009,135.3322,144.5107,space,8.866,,0,1,1,3,1,20,bars/single003.png,bars/mask005.png,,,,,,,,,,,,,,,,,,,,,,,,,,,,,,,,,,,,,,,,,,,,,,,,,,,,,,,,,,,,,,,,
,,612e964f739d5a3c47126397,65af539e91bb652b9495ba62,2024-01-23_07h53.12.582,bars,2023.2.3,Win32,3.750150006,657b66ea316d21385b68909f,,,,,,,,,,,144.5216,145.3773,145.3773,145.6777,145.6778,145.9833,145.9833,7,187,158.2117,space,11.932,0.0004,158.2118,164.2354,space,5.7094,0.0004,0,2,2,2,1,145,bars/single002.png,bars/mask003.png,,,,,,,,,,,,,,,,,,,,,,,,,,,,,,,,,,,,,,,,,,,,,,,,,,,,,,,,,,,,,,,,
,,612e964f739d5a3c47126397,65af539e91bb652b9495ba62,2024-01-23_07h53.12.582,bars,2023.2.3,Win32,3.750150006,657b66ea316d21385b68909f,,,,,,,,,,,164.2463,165.0988,165.0989,165.4048,165.4049,165.7058,165.7059,17,197,180.0765,space,14.0766,0.0004,180.0766,215.2259,space,34.8366,0.0005,0,3,3,0,1,150,bars/single000.png,bars/mask006.png,,,,,,,,,,,,,,,,,,,,,,,,,,,,,,,,,,,,,,,,,,,,,,,,,,,,,,,,,,,,,,,,
,,612e964f739d5a3c47126397,65af539e91bb652b9495ba62,2024-01-23_07h53.12.582,bars,2023.2.3,Win32,3.750150006,657b66ea316d21385b68909f,,,,,,,,,,,215.2372,216.0896,216.0897,216.3947,216.3947,216.695,216.6952,26,206,250.9441,space,33.9549,0.0003,250.9442,260.1786,space,8.924,0.0004,0,4,4,7,1,45,bars/single007.png,bars/mask009.png,,,,,,,,,,,,,,,,,,,,,,,,,,,,,,,,,,,,,,,,,,,,,,,,,,,,,,,,,,,,,,,,
,,612e964f739d5a3c47126397,65af539e91bb652b9495ba62,2024-01-23_07h53.12.582,bars,2023.2.3,Win32,3.750150006,657b66ea316d21385b68909f,,,,,,,,,,,260.1891,261.0425,261.0425,261.3444,261.3444,261.6453,261.6454,29,29,278.7841,space,16.845,0.0002,278.7842,284.784,space,5.6518,0.0004,0,5,5,5,1,55,bars/single005.png,bars/mask008.png,,,,,,,,,,,,,,,,,,,,,,,,,,,,,,,,,,,,,,,,,,,,,,,,,,,,,,,,,,,,,,,,
,,612e964f739d5a3c47126397,65af539e91bb652b9495ba62,2024-01-23_07h53.12.582,bars,2023.2.3,Win32,3.750150006,657b66ea316d21385b68909f,,,,,,,,,,,284.7948,285.6574,285.6574,285.9653,285.9654,286.2684,286.2685,40,220,316.3329,space,29.7658,0.0004,316.3329,318.8697,space,2.2243,0.0011,0,6,6,1,1,20,bars/single001.png,bars/mask006.png,,,,,,,,,,,,,,,,,,,,,,,,,,,,,,,,,,,,,,,,,,,,,,,,,,,,,,,,,,,,,,,,
,,612e964f739d5a3c47126397,65af539e91bb652b9495ba62,2024-01-23_07h53.12.582,bars,2023.2.3,Win32,3.750150006,657b66ea316d21385b68909f,,,,,,,,,,,318.8702,319.7386,319.7387,320.0405,320.0405,320.3418,320.342,32,212,402.7996,space,82.1654,0.0002,402.7997,436.472,space,33.3588,0.0002,0,7,7,6,1,175,bars/single006.png,bars/mask005.png,,,,,,,,,,,,,,,,,,,,,,,,,,,,,,,,,,,,,,,,,,,,,,,,,,,,,,,,,,,,,,,,
,,612e964f739d5a3c47126397,65af539e91bb652b9495ba62,2024-01-23_07h53.12.582,bars,2023.2.3,Win32,3.750150006,657b66ea316d21385b68909f,,,,,,,,,,,436.4851,437.0517,437.0518,437.6346,437.6347,437.6353,437.6353,39,39,465.1492,space,26.9477,0.0002,465.1493,472.263,space,6.7733,0.0002,0,8,8,9,1,20,bars/single009.png,bars/mask006.png,,,,,,,,,,,,,,,,,,,,,,,,,,,,,,,,,,,,,,,,,,,,,,,,,,,,,,,,,,,,,,,,
,,612e964f739d5a3c47126397,65af539e91bb652b9495ba62,2024-01-23_07h53.12.582,bars,2023.2.3,Win32,3.750150006,657b66ea316d21385b68909f,,,,,,,,,,,472.2731,473.1663,473.1666,473.4778,473.4778,473.8092,473.8092,39,39,481.9718,space,7.8404,0.0003,481.9718,486.2551,space,3.9328,,0,9,9,8,1,160,bars/single008.png,bars/mask004.png,,,,,,,,,,,,,,,,,,,,,,,,,,,,,,,,,,,,,,,,,,,,,,,,,,,,,,,,,,,,,,,,
,,612e964f739d5a3c47126397,65af539e91bb652b9495ba62,2024-01-23_07h53.12.582,bars,2023.2.3,Win32,3.750150006,657b66ea316d21385b68909f,,,,,,,,,,,,,,,,,,,,,,,,,,,,,,,,,,,,,486.2561,754.2494,space,267.6502,0.0004,,,,,,,,,,,,,,,,,,,,,,,,,,,,,,,,,,,,,,,,,,,,,,,,,,,,,,,,,,,
,,612e964f739d5a3c47126397,65af539e91bb652b9495ba62,2024-01-23_07h53.12.582,bars,2023.2.3,Win32,3.750150006,657b66ea316d21385b68909f,,,,,,,,,,,,,,,,,,,,,,,,,,,,,,,,,,,,,,,,,,754.2625,760.4643,left,5.9058,0.0003,760.4644,9,1,761.3305,0,0,0,0,1,9,1,9,2,,,,,,,,,,,,,,,,,,,,,,,,,,,,,,,,,,,,,,,,,
,,612e964f739d5a3c47126397,65af539e91bb652b9495ba62,2024-01-23_07h53.12.582,bars,2023.2.3,Win32,3.750150006,657b66ea316d21385b68909f,,,,,,,,,,,,,,,,,,,,,,,,,,,,,,,,,,,,,,,,,,761.3312,764.1084,left,2.4797,,764.1086,10,1,764.9767,0,1,1,1,1,10,0,10,1,,,,,,,,,,,,,,,,,,,,,,,,,,,,,,,,,,,,,,,,,
,,612e964f739d5a3c47126397,65af539e91bb652b9495ba62,2024-01-23_07h53.12.582,bars,2023.2.3,Win32,3.750150006,657b66ea316d21385b68909f,,,,,,,,,,,,,,,,,,,,,,,,,,,,,,,,,,,,,,,,,,764.987,768.7023,left,3.424,0.0006,768.7023,10,1,769.5672,0,2,2,2,1,10,2,10,2,,,,,,,,,,,,,,,,,,,,,,,,,,,,,,,,,,,,,,,,,
,,612e964f739d5a3c47126397,65af539e91bb652b9495ba62,2024-01-23_07h53.12.582,bars,2023.2.3,Win32,3.750150006,657b66ea316d21385b68909f,,,,,,,,,,,,,,,,,,,,,,,,,,,,,,,,,,,,,,,,,,769.5779,773.587,left,3.7187,,773.5871,7,1,774.4557,0,3,3,3,1,8,4,7,3,,,,,,,,,,,,,,,,,,,,,,,,,,,,,,,,,,,,,,,,,
,,612e964f739d5a3c47126397,65af539e91bb652b9495ba62,2024-01-23_07h53.12.582,bars,2023.2.3,Win32,3.750150006,657b66ea316d21385b68909f,,,,,,,,,,,,,,,,,,,,,,,,,,,,,,,,,,,,,,,,,,774.4666,775.3861,right,0.6279,0.0004,775.3861,1,2,776.2498,0,4,4,4,1,6,2,5,1,,,,,,,,,,,,,,,,,,,,,,,,,,,,,,,,,,,,,,,,,
,,612e964f739d5a3c47126397,65af539e91bb652b9495ba62,2024-01-23_07h53.12.582,bars,2023.2.3,Win32,3.750150006,657b66ea316d21385b68909f,,,,,,,,,,,,,,,,,,,,,,,,,,,,,,,,,,,,,,,,,,776.2508,777.1743,left,0.6293,0.0004,777.1743,4,1,778.0346,0,5,5,5,1,4,4,4,4,,,,,,,,,,,,,,,,,,,,,,,,,,,,,,,,,,,,,,,,,
,,612e964f739d5a3c47126397,65af539e91bb652b9495ba62,2024-01-23_07h53.12.582,bars,2023.2.3,Win32,3.750150006,657b66ea316d21385b68909f,,,,,,,,,,,,,,,,,,,,,,,,,,,,,,,,,,,,,,,,,,778.0357,779.2713,left,0.9373,,779.2713,1,1,780.1323,0,6,6,6,1,2,2,1,2,,,,,,,,,,,,,,,,,,,,,,,,,,,,,,,,,,,,,,,,,
,,612e964f739d5a3c47126397,65af539e91bb652b9495ba62,2024-01-23_07h53.12.582,bars,2023.2.3,Win32,3.750150006,657b66ea316d21385b68909f,,,,,,,,,,,,,,,,,,,,,,,,,,,,,,,,,,,,,,,,,,780.133,781.6746,left,1.2436,0.0004,781.6746,0,1,782.5431,0,7,7,7,1,0,0,0,1,,,,,,,,,,,,,,,,,,,,,,,,,,,,,,,,,,,,,,,,,
,,612e964f739d5a3c47126397,65af539e91bb652b9495ba62,2024-01-23_07h53.12.582,bars,2023.2.3,Win32,3.750150006,657b66ea316d21385b68909f,,,,,,,,,,,,,,,,,,,,,,,,,,,,,,,,,,,,,,,,,,782.5441,783.4692,right,0.6272,0.0005,783.4692,0,2,784.3344,0,8,8,8,1,0,2,1,0,,,,,,,,,,,,,,,,,,,,,,,,,,,,,,,,,,,,,,,,,
,,612e964f739d5a3c47126397,65af539e91bb652b9495ba62,2024-01-23_07h53.12.582,bars,2023.2.3,Win32,3.750150006,657b66ea316d21385b68909f,,,,,,,,,,,,,,,,,,,,,,,,,,,,,,,,,,,,,,,,,,784.3354,786.1862,left,1.5523,0.0004,786.1862,2,1,787.0537,0,9,9,9,1,2,4,2,3,,,,,,,,,,,,,,,,,,,,,,,,,,,,,,,,,,,,,,,,,
,,612e964f739d5a3c47126397,65af539e91bb652b9495ba62,2024-01-23_07h53.12.582,bars,2023.2.3,Win32,3.750150006,657b66ea316d21385b68909f,,,,,,,,,,,,,,,,,,,,,,,,,,,,,,,,,,,,,,,,,,787.0641,788.3904,left,0.9369,,788.3905,0,1,789.2517,0,10,10,10,1,0,2,0,3,,,,,,,,,,,,,,,,,,,,,,,,,,,,,,,,,,,,,,,,,
,,612e964f739d5a3c47126397,65af539e91bb652b9495ba62,2024-01-23_07h53.12.582,bars,2023.2.3,Win32,3.750150006,657b66ea316d21385b68909f,,,,,,,,,,,,,,,,,,,,,,,,,,,,,,,,,,,,,,,,,,789.2527,790.1801,right,0.6283,0.0002,790.1802,3,2,791.0401,0,11,11,11,1,0,4,0,3,,,,,,,,,,,,,,,,,,,,,,,,,,,,,,,,,,,,,,,,,
,,612e964f739d5a3c47126397,65af539e91bb652b9495ba62,2024-01-23_07h53.12.582,bars,2023.2.3,Win32,3.750150006,657b66ea316d21385b68909f,,,,,,,,,,,,,,,,,,,,,,,,,,,,,,,,,,,,,,,,,,791.041,792.2755,right,0.9356,,792.2756,6,2,793.1365,0,12,12,12,1,2,6,1,6,,,,,,,,,,,,,,,,,,,,,,,,,,,,,,,,,,,,,,,,,
,,612e964f739d5a3c47126397,65af539e91bb652b9495ba62,2024-01-23_07h53.12.582,bars,2023.2.3,Win32,3.750150006,657b66ea316d21385b68909f,,,,,,,,,,,,,,,,,,,,,,,,,,,,,,,,,,,,,,,,,,793.1375,794.3771,right,0.937,0.0004,794.3771,3,2,795.2381,0,13,13,13,1,0,4,1,3,,,,,,,,,,,,,,,,,,,,,,,,,,,,,,,,,,,,,,,,,
,,612e964f739d5a3c47126397,65af539e91bb652b9495ba62,2024-01-23_07h53.12.582,bars,2023.2.3,Win32,3.750150006,657b66ea316d21385b68909f,,,,,,,,,,,,,,,,,,,,,,,,,,,,,,,,,,,,,,,,,,795.2391,796.1678,left,0.6313,0.0002,796.1678,2,1,797.0346,0,14,14,14,1,2,6,2,7,,,,,,,,,,,,,,,,,,,,,,,,,,,,,,,,,,,,,,,,,
,,612e964f739d5a3c47126397,65af539e91bb652b9495ba62,2024-01-23_07h53.12.582,bars,2023.2.3,Win32,3.750150006,657b66ea316d21385b68909f,,,,,,,,,,,,,,,,,,,,,,,,,,,,,,,,,,,,,,,,,,797.0353,797.9625,right,0.6275,,797.9625,9,2,798.8248,0,15,15,15,1,4,8,3,9,,,,,,,,,,,,,,,,,,,,,,,,,,,,,,,,,,,,,,,,,
,,612e964f739d5a3c47126397,65af539e91bb652b9495ba62,2024-01-23_07h53.12.582,bars,2023.2.3,Win32,3.750150006,657b66ea316d21385b68909f,,,,,,,,,,,,,,,,,,,,,,,,,,,,,,,,,,,,,,,,,,798.8253,799.7542,right,0.6299,0.0006,799.7542,7,2,800.619,0,16,16,16,1,6,6,7,7,,,,,,,,,,,,,,,,,,,,,,,,,,,,,,,,,,,,,,,,,
,,612e964f739d5a3c47126397,65af539e91bb652b9495ba62,2024-01-23_07h53.12.582,bars,2023.2.3,Win32,3.750150006,657b66ea316d21385b68909f,,,,,,,,,,,,,,,,,,,,,,,,,,,,,,,,,,,,,,,,,,800.62,801.548,right,0.6294,0.0003,801.548,5,2,802.4101,0,17,17,17,1,8,4,9,5,,,,,,,,,,,,,,,,,,,,,,,,,,,,,,,,,,,,,,,,,
,,612e964f739d5a3c47126397,65af539e91bb652b9495ba62,2024-01-23_07h53.12.582,bars,2023.2.3,Win32,3.750150006,657b66ea316d21385b68909f,,,,,,,,,,,,,,,,,,,,,,,,,,,,,,,,,,,,,,,,,,802.4112,803.6477,right,0.9382,0.0004,803.6477,1,2,804.5112,0,18,18,18,1,6,2,5,1,,,,,,,,,,,,,,,,,,,,,,,,,,,,,,,,,,,,,,,,,
,,612e964f739d5a3c47126397,65af539e91bb652b9495ba62,2024-01-23_07h53.12.582,bars,2023.2.3,Win32,3.750150006,657b66ea316d21385b68909f,,,,,,,,,,,,,,,,,,,,,,,,,,,,,,,,,,,,,,,,,,804.512,805.1288,left,0.3189,,805.1289,7,1,805.9901,0,19,19,19,1,8,0,7,0,,,,,,,,,,,,,,,,,,,,,,,,,,,,,,,,,,,,,,,,,
,,612e964f739d5a3c47126397,65af539e91bb652b9495ba62,2024-01-23_07h53.12.582,bars,2023.2.3,Win32,3.750150006,657b66ea316d21385b68909f,,,,,,,,,,,,,,,,,,,,,,,,,,,,,,,,,,,,,,,,,,,,,,,,,,,,,,,,,,,,805.991,825.3247,space,19.0251,,,,,,,,,,,,,,,,,,,,,,,,,,,,,,,,,,,,,
,,612e964f739d5a3c47126397,65af539e91bb652b9495ba62,2024-01-23_07h53.12.582,bars,2023.2.3,Win32,3.750150006,657b66ea316d21385b68909f,,,,,,,,,,,827.3817,828.2455,,,828.5482,828.8616,,37,37,,,,,,,,,,,,,,,,bars/028.png,bars/mask003.png,,,,,,,,,,,,7,1,,,,,,,10,2,9,2,,,,,,825.3379,827.3773,space,1.7631,,828.2456,828.5482,828.8618,844.1607,space,15.0032,,844.1609,8,83,845.0549,845.0551,853.2304,space,7.8521,,0,0,0,0,1,45,120,,,,,,,,
,,612e964f739d5a3c47126397,65af539e91bb652b9495ba62,2024-01-23_07h53.12.582,bars,2023.2.3,Win32,3.750150006,657b66ea316d21385b68909f,,,,,,,,,,,853.241,854.0938,,,854.4078,854.7085,,114,114,,,,,,,,,,,,,,,,bars/002.png,bars/mask000.png,,,,,,,,,,,,4,1,,,,,,,8,0,8,0,,,,,,,,,,,854.0939,854.4076,854.7086,882.5878,space,27.5853,,882.5879,16,29,883.4516,883.4518,887.3619,space,3.5897,,0,1,1,1,1,130,85,,,,,,,,
,,612e964f739d5a3c47126397,65af539e91bb652b9495ba62,2024-01-23_07h53.12.582,bars,2023.2.3,Win32,3.750150006,657b66ea316d21385b68909f,,,,,,,,,,,887.3623,888.2267,,,888.528,888.8285,,29,209,,,,,,,,,,,,,,,,bars/027.png,bars/mask003.png,,,,,,,,,,,,1,2,,,,,,,6,2,4,2,,,,,,,,,,,888.2267,888.5278,888.8286,914.6161,space,25.4916,,914.6162,81,21,915.4875,915.4876,918.1859,space,2.3773,0.0006,0,2,2,2,1,110,50,,,,,,,,
,,612e964f739d5a3c47126397,65af539e91bb652b9495ba62,2024-01-23_07h53.12.582,bars,2023.2.3,Win32,3.750150006,657b66ea316d21385b68909f,,,,,,,,,,,918.1863,919.05,,,919.3535,919.6584,,44,44,,,,,,,,,,,,,,,,bars/031.png,bars/mask001.png,,,,,,,,,,,,1,2,,,,,,,8,0,6,1,,,,,,,,,,,919.0501,919.3535,919.6584,927.3055,space,7.3524,0.0004,927.3055,76,9,928.1709,928.171,931.4333,space,2.9468,0.0004,0,3,3,3,1,120,35,,,,,,,,
,,612e964f739d5a3c47126397,65af539e91bb652b9495ba62,2024-01-23_07h53.12.582,bars,2023.2.3,Win32,3.750150006,657b66ea316d21385b68909f,,,,,,,,,,,931.4338,932.2943,,,932.5948,932.8942,,23,23,,,,,,,,,,,,,,,,bars/003.png,bars/mask001.png,,,,,,,,,,,,7,1,,,,,,,6,2,8,1,,,,,,,,,,,932.2944,932.5947,932.8943,935.6335,space,2.4448,0.0004,935.6336,2,63,936.4962,936.4963,953.1215,space,16.3038,0.0008,0,4,4,4,1,25,140,,,,,,,,
,,612e964f739d5a3c47126397,65af539e91bb652b9495ba62,2024-01-23_07h53.12.582,bars,2023.2.3,Win32,3.750150006,657b66ea316d21385b68909f,,,,,,,,,,,953.1328,953.9756,,,954.3426,954.3432,,69,69,,,,,,,,,,,,,,,,bars/008.png,bars/mask008.png,,,,,,,,,,,,0,1,,,,,,,4,0,6,0,,,,,,,,,,,953.9756,954.3425,954.3433,961.5415,space,6.8502,,961.5415,41,69,962.4118,962.4119,964.377,space,1.6429,0.0006,0,5,5,5,1,110,0,,,,,,,,
,,612e964f739d5a3c47126397,65af539e91bb652b9495ba62,2024-01-23_07h53.12.582,bars,2023.2.3,Win32,3.750150006,657b66ea316d21385b68909f,,,,,,,,,,,964.3774,965.2369,,,965.5378,965.8376,,177,177,,,,,,,,,,,,,,,,bars/035.png,bars/mask003.png,,,,,,,,,,,,2,1,,,,,,,2,0,2,1,,,,,,,,,,,965.2369,965.5377,965.8377,967.663,space,1.5293,0.0007,967.663,2,63,968.527,968.5271,970.8054,space,1.9611,0.0005,0,6,6,6,1,175,60,,,,,,,,
,,612e964f739d5a3c47126397,65af539e91bb652b9495ba62,2024-01-23_07h53.12.582,bars,2023.2.3,Win32,3.750150006,657b66ea316d21385b68909f,,,,,,,,,,,970.8059,971.6656,,,971.9672,972.2683,,95,95,,,,,,,,,,,,,,,,bars/028.png,bars/mask006.png,,,,,,,,,,,,0,2,,,,,,,4,2,4,1,,,,,,,,,,,971.6658,971.9671,972.2684,974.0951,space,1.5324,0.0007,974.0952,50,25,974.9559,974.956,976.2594,space,0.9875,,0,7,7,7,1,45,120,,,,,,,,
,,612e964f739d5a3c47126397,65af539e91bb652b9495ba62,2024-01-23_07h53.12.582,bars,2023.2.3,Win32,3.750150006,657b66ea316d21385b68909f,,,,,,,,,,,976.26,977.1191,,,977.4197,977.7214,,145,145,,,,,,,,,,,,,,,,bars/025.png,bars/mask000.png,,,,,,,,,,,,0,1,,,,,,,6,0,6,1,,,,,,,,,,,977.1192,977.4197,977.7215,992.1312,space,14.1153,0.0002,992.1312,40,75,993.0271,993.0272,994.8334,space,1.4308,,0,8,8,8,1,105,40,,,,,,,,
,,612e964f739d5a3c47126397,65af539e91bb652b9495ba62,2024-01-23_07h53.12.582,bars,2023.2.3,Win32,3.750150006,657b66ea316d21385b68909f,,,,,,,,,,,994.8337,995.7589,,,996.0626,996.3854,,31,31,,,,,,,,,,,,,,,,bars/044.png,bars/mask001.png,,,,,,,,,,,,0,1,,,,,,,4,2,5,2,,,,,,,,,,,995.759,996.0626,996.3856,1001.022,space,4.3429,,1001.0221,44,56,1001.8838,1001.8838,1003.1922,space,0.9867,0.0004,0,9,9,9,1,75,155,,,,,,,,
,,612e964f739d5a3c47126397,65af539e91bb652b9495ba62,2024-01-23_07h53.12.582,bars,2023.2.3,Win32,3.750150006,657b66ea316d21385b68909f,,,,,,,,,,,1003.1926,1004.0526,,,1004.3544,1004.6543,,44,44,,,,,,,,,,,,,,,,bars/010.png,bars/mask008.png,,,,,,,,,,,,0,2,,,,,,,2,0,2,0,,,,,,,,,,,1004.0527,1004.3543,1004.6543,1006.1758,space,1.2268,0.0006,1006.1759,59,11,1007.0458,1007.0459,1008.4322,space,1.0678,,0,10,10,10,1,165,55,,,,,,,,
,,612e964f739d5a3c47126397,65af539e91bb652b9495ba62,2024-01-23_07h53.12.582,bars,2023.2.3,Win32,3.750150006,657b66ea316d21385b68909f,,,,,,,,,,,1008.4325,1009.3527,,,1009.6691,1009.9806,,34,34,,,,,,,,,,,,,,,,bars/004.png,bars/mask002.png,,,,,,,,,,,,1,1,,,,,,,0,2,1,4,,,,,,,,,,,1009.3528,1009.6691,1009.9808,1034.2979,space,24.0109,0.0003,1034.298,9,89,1035.1604,1035.1606,1038.4261,space,2.9434,0.0004,0,11,11,11,1,25,125,,,,,,,,
,,612e964f739d5a3c47126397,65af539e91bb652b9495ba62,2024-01-23_07h53.12.582,bars,2023.2.3,Win32,3.750150006,657b66ea316d21385b68909f,,,,,,,,,,,1038.4266,1039.2888,,,1039.5897,1039.8896,,31,31,,,,,,,,,,,,,,,,bars/001.png,bars/mask002.png,,,,,,,,,,,,0,2,,,,,,,2,0,2,0,,,,,,,,,,,1039.2889,1039.5896,1039.8897,1078.4508,space,38.2669,,1078.4509,81,54,1079.3104,1079.3104,1080.6195,space,0.987,,0,12,12,12,1,130,85,,,,,,,,
,,612e964f739d5a3c47126397,65af539e91bb652b9495ba62,2024-01-23_07h53.12.582,bars,2023.2.3,Win32,3.750150006,657b66ea316d21385b68909f,,,,,,,,,,,1080.6201,1081.4828,,,1081.7832,1082.0841,,155,155,,,,,,,,,,,,,,,,bars/023.png,bars/mask001.png,,,,,,,,,,,,0,2,,,,,,,0,2,1,1,,,,,,,,,,,1081.4829,1081.7831,1082.0843,1083.6053,space,1.2262,,1083.6053,45,40,1084.4692,1084.4693,1084.7967,space,0.0106,,0,13,13,13,1,20,115,,,,,,,,
,,612e964f739d5a3c47126397,65af539e91bb652b9495ba62,2024-01-23_07h53.12.582,bars,2023.2.3,Win32,3.750150006,657b66ea316d21385b68909f,,,,,,,,,,,1084.7972,1085.6569,,,1085.9588,1086.2607,,29,29,,,,,,,,,,,,,,,,bars/019.png,bars/mask003.png,,,,,,,,,,,,0,1,,,,,,,2,0,1,0,,,,,,,,,,,1085.6571,1085.9586,1086.2607,1098.4848,space,11.9298,,1098.4848,16,76,1099.3462,1099.3463,1100.003,space,0.3351,,0,14,14,14,1,45,105,,,,,,,,
,,612e964f739d5a3c47126397,65af539e91bb652b9495ba62,2024-01-23_07h53.12.582,bars,2023.2.3,Win32,3.750150006,657b66ea316d21385b68909f,,,,,,,,,,,1100.0035,1100.8638,,,1101.165,1101.4661,,93,93,,,,,,,,,,,,,,,,bars/036.png,bars/mask004.png,,,,,,,,,,,,0,1,,,,,,,4,2,4,3,,,,,,,,,,,1100.8639,1101.1649,1101.4662,1122.894,space,21.1336,,1122.894,52,73,1123.7573,1123.7573,1124.0892,space,0.0102,0.0004,0,15,15,15,1,145,20,,,,,,,,
,,612e964f739d5a3c47126397,65af539e91bb652b9495ba62,2024-01-23_07h53.12.582,bars,2023.2.3,Win32,3.750150006,657b66ea316d21385b68909f,,,,,,,,,,,1124.0897,1124.9544,,,1125.2569,1125.5556,,7,187,,,,,,,,,,,,,,,,bars/037.png,bars/mask004.png,,,,,,,,,,,,0,1,,,,,,,2,4,2,3,,,,,,,,,,,1124.9544,1125.2568,1125.5557,1132.9065,space,7.0566,,1132.9066,37,82,1133.7692,1133.7692,1135.0823,space,0.9868,,0,16,16,16,1,150,105,,,,,,,,
,,612e964f739d5a3c47126397,65af539e91bb652b9495ba62,2024-01-23_07h53.12.582,bars,2023.2.3,Win32,3.750150006,657b66ea316d21385b68909f,,,,,,,,,,,1135.0828,1135.9416,,,1136.2473,1136.5504,,151,151,,,,,,,,,,,,,,,,bars/031.png,bars/mask006.png,,,,,,,,,,,,0,1,,,,,,,4,2,7,4,,,,,,,,,,,1135.9417,1136.2472,1136.5504,1141.449,space,4.6068,,1141.449,31,64,1142.3154,1142.3155,1143.6199,space,0.9882,,0,17,17,17,1,120,35,,,,,,,,
,,612e964f739d5a3c47126397,65af539e91bb652b9495ba62,2024-01-23_07h53.12.582,bars,2023.2.3,Win32,3.750150006,657b66ea316d21385b68909f,,,,,,,,,,,1143.6204,1144.4812,,,1144.7824,1145.0849,,178,-2,,,,,,,,,,,,,,,,bars/036.png,bars/mask006.png,,,,,,,,,,,,1,2,,,,,,,6,4,6,4,,,,,,,,,,,1144.4812,1144.7823,1145.085,1154.5955,space,9.216,,1154.5956,33,22,1155.4547,1155.4553,1156.1072,space,0.3365,0.0003,0,18,18,18,1,145,20,,,,,,,,
,,612e964f739d5a3c47126397,65af539e91bb652b9495ba62,2024-01-23_07h53.12.582,bars,2023.2.3,Win32,3.750150006,657b66ea316d21385b68909f,,,,,,,,,,,1156.1077,1156.974,,,1157.2761,1157.576,,136,136,,,,,,,,,,,,,,,,bars/008.png,bars/mask000.png,,,,,,,,,,,,0,1,,,,,,,4,6,1,6,,,,,,,,,,,1156.9741,1157.2761,1157.576,1162.4389,space,4.5691,,1162.439,26,44,1163.2996,1163.2998,1163.6329,space,0.0104,0.0004,0,19,19,19,1,110,0,,,,,,,,
,,612e964f739d5a3c47126397,65af539e91bb652b9495ba62,2024-01-23_07h53.12.582,bars,2023.2.3,Win32,3.750150006,657b66ea316d21385b68909f,,,,,,,,,,,1163.6334,1164.4884,,,1164.79,1165.0898,,6,6,,,,,,,,,,,,,,,,bars/042.png,bars/mask008.png,,,,,,,,,,,,0,1,,,,,,,6,4,5,5,,,,,,,,,,,1164.4885,1164.7899,1165.0899,1192.6424,space,27.2571,,1192.6425,41,69,1193.5053,1193.5053,1195.1391,space,1.3127,,0,20,20,20,1,145,75,,,,,,,,
,,612e964f739d5a3c47126397,65af539e91bb652b9495ba62,2024-01-23_07h53.12.582,bars,2023.2.3,Win32,3.750150006,657b66ea316d21385b68909f,,,,,,,,,,,1195.1394,1195.9986,,,1196.299,1196.6005,,36,36,,,,,,,,,,,,,,,,bars/046.png,bars/mask007.png,,,,,,,,,,,,0,2,,,,,,,8,2,8,3,,,,,,,,,,,1195.9988,1196.2989,1196.6005,1201.1797,space,4.285,,1201.1797,61,49,1202.0428,1202.0428,1203.6769,space,1.3114,0.0004,0,21,21,21,1,155,85,,,,,,,,
,,612e964f739d5a3c47126397,65af539e91bb652b9495ba62,2024-01-23_07h53.12.582,bars,2023.2.3,Win32,3.750150006,657b66ea316d21385b68909f,,,,,,,,,,,1203.6774,1204.5381,,,1204.8392,1205.1415,,104,104,,,,,,,,,,,,,,,,bars/049.png,bars/mask008.png,,,,,,,,,,,,3,2,,,,,,,6,4,6,5,,,,,,,,,,,1204.5382,1204.8391,1205.1415,1230.0108,space,24.5735,,1230.0109,56,11,1230.8962,1230.8962,1233.5154,space,2.2976,,0,22,22,22,1,160,115,,,,,,,,
,,612e964f739d5a3c47126397,65af539e91bb652b9495ba62,2024-01-23_07h53.12.582,bars,2023.2.3,Win32,3.750150006,657b66ea316d21385b68909f,,,,,,,,,,,1233.5159,1234.378,,,1234.6788,1234.9805,,175,175,,,,,,,,,,,,,,,,bars/042.png,bars/mask003.png,,,,,,,,,,,,0,1,,,,,,,8,2,7,0,,,,,,,,,,,1234.3781,1234.6787,1234.9805,1247.5331,space,12.2589,,1247.5331,30,80,1248.4051,1248.4053,1250.3622,space,1.6367,0.0003,0,23,23,23,1,145,75,,,,,,,,
,,612e964f739d5a3c47126397,65af539e91bb652b9495ba62,2024-01-23_07h53.12.582,bars,2023.2.3,Win32,3.750150006,657b66ea316d21385b68909f,,,,,,,,,,,1250.3627,1251.2234,,,1251.5242,1251.8249,,37,37,,,,,,,,,,,,,,,,bars/040.png,bars/mask009.png,,,,,,,,,,,,0,2,,,,,,,6,0,7,0,,,,,,,,,,,1251.2235,1251.5241,1251.8251,1253.6509,space,1.5293,,1253.651,77,32,1254.5121,1254.5122,1255.1638,space,0.336,0.0004,0,24,24,24,1,140,5,,,,,,,,
,,612e964f739d5a3c47126397,65af539e91bb652b9495ba62,2024-01-23_07h53.12.582,bars,2023.2.3,Win32,3.750150006,657b66ea316d21385b68909f,,,,,,,,,,,1255.1643,1256.0294,,,1256.3305,1256.6311,,157,-23,,,,,,,,,,,,,,,,bars/008.png,bars/mask002.png,,,,,,,,,,,,0,2,,,,,,,4,0,5,1,,,,,,,,,,,1256.0295,1256.3303,1256.6313,1279.547,space,22.621,,1279.5471,47,23,1280.4104,1280.4104,1282.3703,space,1.638,0.0004,0,25,25,25,1,110,0,,,,,,,,
,,612e964f739d5a3c47126397,65af539e91bb652b9495ba62,2024-01-23_07h53.12.582,bars,2023.2.3,Win32,3.750150006,657b66ea316d21385b68909f,,,,,,,,,,,1282.3708,1283.2295,,,1283.5302,1283.8304,,35,35,,,,,,,,,,,,,,,,bars/025.png,bars/mask005.png,,,,,,,,,,,,2,2,,,,,,,6,2,7,2,,,,,,,,,,,1283.2296,1283.5301,1283.8305,1300.1927,space,16.0665,,1300.1929,70,5,1301.0535,1301.0536,1301.3852,space,0.0105,,0,26,26,26,1,105,40,,,,,,,,
,,612e964f739d5a3c47126397,65af539e91bb652b9495ba62,2024-01-23_07h53.12.582,bars,2023.2.3,Win32,3.750150006,657b66ea316d21385b68909f,,,,,,,,,,,1301.3857,1302.2463,,,1302.547,1302.8495,,17,17,,,,,,,,,,,,,,,,bars/012.png,bars/mask000.png,,,,,,,,,,,,0,2,,,,,,,8,0,8,0,,,,,,,,,,,1302.2464,1302.5469,1302.8495,1317.0323,space,13.8876,,1317.0323,73,2,1318.0289,1318.0289,1321.4178,space,2.9912,0.0003,0,27,27,27,1,90,15,,,,,,,,
,,612e964f739d5a3c47126397,65af539e91bb652b9495ba62,2024-01-23_07h53.12.582,bars,2023.2.3,Win32,3.750150006,657b66ea316d21385b68909f,,,,,,,,,,,1321.4181,1322.365,,,1322.7188,1322.7194,,11,191,,,,,,,,,,,,,,,,bars/003.png,bars/mask006.png,,,,,,,,,,,,4,1,,,,,,,6,2,7,0,,,,,,,,,,,1322.3651,1322.7187,1322.7194,1341.6297,space,18.6024,0.0005,1341.6298,14,51,1342.4929,1342.493,1344.4587,space,1.6422,,0,28,28,28,1,25,140,,,,,,,,
,,612e964f739d5a3c47126397,65af539e91bb652b9495ba62,2024-01-23_07h53.12.582,bars,2023.2.3,Win32,3.750150006,657b66ea316d21385b68909f,,,,,,,,,,,1344.4591,1345.3239,,,1345.6257,1345.9256,,5,185,,,,,,,,,,,,,,,,bars/023.png,bars/mask002.png,,,,,,,,,,,,4,1,,,,,,,8,4,7,4,,,,,,,,,,,1345.3239,1345.6256,1345.9257,1360.6448,space,14.4237,,1360.6448,15,70,1361.5089,1361.509,1362.8157,space,0.987,,0,29,29,29,1,20,115,,,,,,,,
,,612e964f739d5a3c47126397,65af539e91bb652b9495ba62,2024-01-23_07h53.12.582,bars,2023.2.3,Win32,3.750150006,657b66ea316d21385b68909f,,,,,,,,,,,1362.8162,1363.678,,,1363.9789,1364.2813,,23,203,,,,,,,,,,,,,,,,bars/044.png,bars/mask003.png,,,,,,,,,,,,0,2,,,,,,,10,6,10,6,,,,,,,,,,,1363.6781,1363.9788,1364.2814,1373.177,space,8.6003,,1373.1771,52,48,1374.0371,1374.0371,1374.3697,space,0.0106,0.0004,0,30,30,30,1,75,155,,,,,,,,
,,612e964f739d5a3c47126397,65af539e91bb652b9495ba62,2024-01-23_07h53.12.582,bars,2023.2.3,Win32,3.750150006,657b66ea316d21385b68909f,,,,,,,,,,,1374.3701,1375.2291,,,1375.5297,1375.8296,,169,169,,,,,,,,,,,,,,,,bars/008.png,bars/mask002.png,,,,,,,,,,,,6,2,,,,,,,10,8,10,9,,,,,,,,,,,1375.2293,1375.5296,1375.8297,1377.3552,space,1.2303,0.0007,1377.3552,59,11,1378.2233,1378.2234,1379.8524,space,1.3137,0.0004,0,31,31,31,1,110,0,,,,,,,,
,,612e964f739d5a3c47126397,65af539e91bb652b9495ba62,2024-01-23_07h53.12.582,bars,2023.2.3,Win32,3.750150006,657b66ea316d21385b68909f,,,,,,,,,,,1379.8528,1380.7136,,,1381.0171,1381.322,,166,-14,,,,,,,,,,,,,,,,bars/027.png,bars/mask006.png,,,,,,,,,,,,0,1,,,,,,,10,10,9,9,,,,,,,,,,,1380.7137,1381.017,1381.322,1389.9065,space,8.2902,,1389.9065,56,64,1390.7758,1390.776,1392.0878,space,0.9892,,0,32,32,32,1,110,50,,,,,,,,
,,612e964f739d5a3c47126397,65af539e91bb652b9495ba62,2024-01-23_07h53.12.582,bars,2023.2.3,Win32,3.750150006,657b66ea316d21385b68909f,,,,,,,,,,,1392.0884,1392.9547,,,1393.2582,1393.5581,,13,13,,,,,,,,,,,,,,,,bars/035.png,bars/mask001.png,,,,,,,,,,,,4,1,,,,,,,8,10,9,10,,,,,,,,,,,1392.9549,1393.2582,1393.5582,1395.4049,space,1.5526,0.0003,1395.405,18,47,1396.2657,1396.2658,1397.5855,space,0.9865,,0,33,33,33,1,175,60,,,,,,,,
,,612e964f739d5a3c47126397,65af539e91bb652b9495ba62,2024-01-23_07h53.12.582,bars,2023.2.3,Win32,3.750150006,657b66ea316d21385b68909f,,,,,,,,,,,1397.5862,1398.4532,,,1398.7535,1399.0548,,175,-5,,,,,,,,,,,,,,,,bars/007.png,bars/mask007.png,,,,,,,,,,,,10,1,,,,,,,10,8,10,8,,,,,,,,,,,1398.4532,1398.7533,1399.0549,1411.0236,space,11.6758,,1411.0236,0,60,1411.8885,1411.8886,1413.5287,space,1.3127,,0,34,34,34,1,175,55,,,,,,,,
,,612e964f739d5a3c47126397,65af539e91bb652b9495ba62,2024-01-23_07h53.12.582,bars,2023.2.3,Win32,3.750150006,657b66ea316d21385b68909f,,,,,,,,,,,1413.5292,1414.3973,,,1414.6997,1415.0014,,18,198,,,,,,,,,,,,,,,,bars/022.png,bars/mask007.png,,,,,,,,,,,,7,2,,,,,,,10,6,10,7,,,,,,,,,,,1414.3974,1414.6997,1415.0014,1487.7618,space,72.4663,0.0002,1487.7619,77,2,1488.6259,1488.6261,1491.5653,space,2.6163,,0,35,35,35,1,95,20,,,,,,,,
,,612e964f739d5a3c47126397,65af539e91bb652b9495ba62,2024-01-23_07h53.12.582,bars,2023.2.3,Win32,3.750150006,657b66ea316d21385b68909f,,,,,,,,,,,1491.5658,1492.4255,,,1492.7273,1493.0292,,97,97,,,,,,,,,,,,,,,,bars/009.png,bars/mask006.png,,,,,,,,,,,,4,2,,,,,,,8,8,8,6,,,,,,,,,,,1492.4256,1492.7272,1493.0292,1501.2909,space,7.9652,,1501.2909,82,8,1502.1561,1502.1563,1504.1103,space,1.6343,,0,36,36,36,1,15,105,,,,,,,,
,,612e964f739d5a3c47126397,65af539e91bb652b9495ba62,2024-01-23_07h53.12.582,bars,2023.2.3,Win32,3.750150006,657b66ea316d21385b68909f,,,,,,,,,,,1504.1107,1504.9767,,,1505.2777,1505.5782,,112,112,,,,,,,,,,,,,,,,bars/025.png,bars/mask003.png,,,,,,,,,,,,7,1,,,,,,,10,10,9,10,,,,,,,,,,,1504.9768,1505.2777,1505.5782,1512.9196,space,7.0473,0.0006,1512.9196,7,72,1513.7853,1513.7854,1515.422,space,1.3146,,0,37,37,37,1,105,40,,,,,,,,
,,612e964f739d5a3c47126397,65af539e91bb652b9495ba62,2024-01-23_07h53.12.582,bars,2023.2.3,Win32,3.750150006,657b66ea316d21385b68909f,,,,,,,,,,,1515.4224,1516.2865,,,1516.5879,1516.8882,,38,38,,,,,,,,,,,,,,,,bars/035.png,bars/mask005.png,,,,,,,,,,,,3,2,,,,,,,10,10,8,10,,,,,,,,,,,1516.2867,1516.5879,1516.8884,1529.136,space,11.953,,1529.136,43,22,1530.0077,1530.0077,1531.0101,space,0.6641,,0,38,38,38,1,175,60,,,,,,,,
,,612e964f739d5a3c47126397,65af539e91bb652b9495ba62,2024-01-23_07h53.12.582,bars,2023.2.3,Win32,3.750150006,657b66ea316d21385b68909f,,,,,,,,,,,1531.0106,1531.8734,,,1532.1771,1532.4801,,177,177,,,,,,,,,,,,,,,,bars/017.png,bars/mask007.png,,,,,,,,,,,,0,1,,,,,,,10,10,8,9,,,,,,,,,,,1531.8735,1532.1769,1532.4802,1542.274,space,9.4958,,1542.274,32,48,1543.1385,1543.1386,1544.4478,space,0.9869,,0,39,39,39,1,145,45,,,,,,,,
,,612e964f739d5a3c47126397,65af539e91bb652b9495ba62,2024-01-23_07h53.12.582,bars,2023.2.3,Win32,3.750150006,657b66ea316d21385b68909f,,,,,,,,,,,1544.4482,1545.3092,,,1545.6108,1545.9114,,159,159,,,,,,,,,,,,,,,,bars/002.png,bars/mask001.png,,,,,,,,,,,,0,1,,,,,,,8,10,10,10,,,,,,,,,,,1545.3094,1545.6107,1545.9115,1552.3205,space,6.1144,0.0004,1552.3206,29,74,1553.1824,1553.1825,1554.1714,space,0.6688,,0,40,40,40,1,130,85,,,,,,,,
,,612e964f739d5a3c47126397,65af539e91bb652b9495ba62,2024-01-23_07h53.12.582,bars,2023.2.3,Win32,3.750150006,657b66ea316d21385b68909f,,,,,,,,,,,1554.1718,1555.0997,,,1555.4061,1555.9068,,18,198,,,,,,,,,,,,,,,,bars/043.png,bars/mask003.png,,,,,,,,,,,,6,1,,,,,,,10,10,10,10,,,,,,,,,,,1555.0998,1555.4061,1555.9069,1566.0091,space,9.8074,,1566.0092,12,68,1566.8711,1566.8711,1568.1907,space,0.9982,,0,41,41,41,1,30,130,,,,,,,,
,,612e964f739d5a3c47126397,65af539e91bb652b9495ba62,2024-01-23_07h53.12.582,bars,2023.2.3,Win32,3.750150006,657b66ea316d21385b68909f,,,,,,,,,,,1568.1911,1569.0495,,,1569.3529,1569.6523,,45,45,,,,,,,,,,,,,,,,bars/031.png,bars/mask003.png,,,,,,,,,,,,7,2,,,,,,,10,10,9,10,,,,,,,,,,,1569.0496,1569.3529,1569.6523,1578.5578,space,8.6102,,1578.5578,75,10,1579.4196,1579.4197,1581.0495,space,1.3097,0.0016,0,42,42,42,1,120,35,,,,,,,,
,,612e964f739d5a3c47126397,65af539e91bb652b9495ba62,2024-01-23_07h53.12.582,bars,2023.2.3,Win32,3.750150006,657b66ea316d21385b68909f,,,,,,,,,,,1581.0499,1581.907,,,1582.2113,1582.5113,,113,113,,,,,,,,,,,,,,,,bars/046.png,bars/mask002.png,,,,,,,,,,,,1,2,,,,,,,8,10,8,10,,,,,,,,,,,1581.907,1582.2112,1582.5113,1588.0046,space,5.1979,0.0004,1588.0047,42,28,1588.8676,1588.8677,1589.8493,space,0.6613,,0,43,43,43,1,155,85,,,,,,,,
,,612e964f739d5a3c47126397,65af539e91bb652b9495ba62,2024-01-23_07h53.12.582,bars,2023.2.3,Win32,3.750150006,657b66ea316d21385b68909f,,,,,,,,,,,1589.8498,1590.7095,,,1591.0105,1591.3117,,108,108,,,,,,,,,,,,,,,,bars/044.png,bars/mask001.png,,,,,,,,,,,,0,1,,,,,,,6,8,6,9,,,,,,,,,,,1590.7096,1591.0104,1591.3117,1601.761,space,10.1542,,1601.7611,33,47,1602.6235,1602.6235,1602.9584,space,0.0111,0.0005,0,44,44,44,1,75,155,,,,,,,,
,,612e964f739d5a3c47126397,65af539e91bb652b9495ba62,2024-01-23_07h53.12.582,bars,2023.2.3,Win32,3.750150006,657b66ea316d21385b68909f,,,,,,,,,,,1602.9589,1603.82,,,1604.1232,1604.4229,,76,76,,,,,,,,,,,,,,,,bars/007.png,bars/mask004.png,,,,,,,,,,,,2,2,,,,,,,4,6,3,7,,,,,,,,,,,1603.8201,1604.1232,1604.4229,1613.5888,space,8.8719,0.0005,1613.5889,81,21,1614.5734,1614.5734,1616.8167,space,1.7306,,0,45,45,45,1,175,55,,,,,,,,
,,612e964f739d5a3c47126397,65af539e91bb652b9495ba62,2024-01-23_07h53.12.582,bars,2023.2.3,Win32,3.750150006,657b66ea316d21385b68909f,,,,,,,,,,,1616.8172,1617.7902,,,1618.1127,1618.4476,,66,66,,,,,,,,,,,,,,,,bars/028.png,bars/mask000.png,,,,,,,,,,,,2,1,,,,,,,6,4,5,4,,,,,,,,,,,1617.7902,1618.1127,1618.4476,1681.4937,space,62.7474,0.0005,1681.4937,21,54,1682.3589,1682.3589,1683.6676,space,0.9876,0.0003,0,46,46,46,1,45,120,,,,,,,,
,,612e964f739d5a3c47126397,65af539e91bb652b9495ba62,2024-01-23_07h53.12.582,bars,2023.2.3,Win32,3.750150006,657b66ea316d21385b68909f,,,,,,,,,,,1683.6681,1684.528,,,1684.8287,1685.1288,,118,118,,,,,,,,,,,,,,,,bars/019.png,bars/mask005.png,,,,,,,,,,,,1,2,,,,,,,8,2,7,1,,,,,,,,,,,1684.5281,1684.8286,1685.1289,1693.3817,space,7.9585,0.0007,1693.3818,73,13,1694.2446,1694.2447,1694.5761,space,0.0103,,0,47,47,47,1,45,105,,,,,,,,
,,612e964f739d5a3c47126397,65af539e91bb652b9495ba62,2024-01-23_07h53.12.582,bars,2023.2.3,Win32,3.750150006,657b66ea316d21385b68909f,,,,,,,,,,,1694.5766,1695.4376,,,1695.7386,1696.0391,,33,33,,,,,,,,,,,,,,,,bars/024.png,bars/mask002.png,,,,,,,,,,,,0,2,,,,,,,6,4,6,4,,,,,,,,,,,1695.4378,1695.7385,1696.0391,1705.8333,space,9.4965,,1705.8334,87,43,1706.6947,1706.6948,1707.0298,space,0.0105,0.0004,0,48,48,48,1,120,170,,,,,,,,
,,612e964f739d5a3c47126397,65af539e91bb652b9495ba62,2024-01-23_07h53.12.582,bars,2023.2.3,Win32,3.750150006,657b66ea316d21385b68909f,,,,,,,,,,,1707.0303,1707.889,,,1708.1906,1708.4932,,41,41,,,,,,,,,,,,,,,,bars/049.png,bars/mask005.png,,,,,,,,,,,,0,1,,,,,,,4,6,4,5,,,,,,,,,,,1707.8891,1708.1905,1708.4932,1710.0153,space,1.2267,0.0007,1710.0154,61,74,1710.8763,1710.8765,1711.855,space,0.6616,,0,49,49,49,1,160,115,,,,,,,,
,,612e964f739d5a3c47126397,65af539e91bb652b9495ba62,2024-01-23_07h53.12.582,bars,2023.2.3,Win32,3.750150006,657b66ea316d21385b68909f,,,,,,,,,,,,,,,,,,,,,,,,,,,,,,,,,,,,,,,,,,,,,,,,,,,,,,,,,,,,,,,,,,,,,,,,,,,,,,,,,,,,,,,,,,,,,1711.8556,1771.9061,0,0,0,2,1,sequence_tables/blk033.csv
,,612e964f739d5a3c47126397,65af539e91bb652b9495ba62,2024-01-23_07h53.12.582,bars,2023.2.3,Win32,3.750150006,657b66ea316d21385b68909f,,,,,,,,,,,1773.7349,1774.6169,,,1774.9199,1775.2207,,135,135,,,,,,,,,,,,,,,,bars/002.png,bars/mask008.png,,,,,,,,,,,,3,1,,,,,,,4,1,3,0,,,,,,1771.9185,1773.7306,space,1.5367,,1774.617,1774.9197,1775.2208,1784.4783,space,8.9802,,1784.4784,5,50,1785.3393,1785.3395,1785.3505,,,,0,0,0,0,1,130,85,,,,,,,,
,,612e964f739d5a3c47126397,65af539e91bb652b9495ba62,2024-01-23_07h53.12.582,bars,2023.2.3,Win32,3.750150006,657b66ea316d21385b68909f,,,,,,,,,,,1785.3507,1786.2053,,,1786.5092,1786.8096,,13,193,,,,,,,,,,,,,,,,bars/034.png,bars/mask002.png,,,,,,,,,,,,0,2,,,,,,,6,0,5,0,,,,,,,,,,,1786.2054,1786.5091,1786.8096,1794.9072,space,7.82,0.0004,1794.9073,68,52,1795.77,1795.7701,1795.7821,,,,0,1,1,1,1,125,65,,,,,,,,
,,612e964f739d5a3c47126397,65af539e91bb652b9495ba62,2024-01-23_07h53.12.582,bars,2023.2.3,Win32,3.750150006,657b66ea316d21385b68909f,,,,,,,,,,,1795.7824,1796.6367,,,1796.9387,1797.2388,,71,71,,,,,,,,,,,,,,,,bars/007.png,bars/mask004.png,,,,,,,,,,,,1,2,,,,,,,4,0,4,3,,,,,,,,,,,1796.6368,1796.9385,1797.2388,1804.1849,space,6.6685,0.0004,1804.185,76,16,1805.0473,1805.0474,1805.0584,,,,0,2,2,2,1,175,55,,,,,,,,
,,612e964f739d5a3c47126397,65af539e91bb652b9495ba62,2024-01-23_07h53.12.582,bars,2023.2.3,Win32,3.750150006,657b66ea316d21385b68909f,,,,,,,,,,,1805.0587,1805.9127,,,1806.2145,1806.5151,,165,165,,,,,,,,,,,,,,,,bars/030.png,bars/mask009.png,,,,,,,,,,,,0,1,,,,,,,2,2,3,1,,,,,,,,,,,1805.9127,1806.2144,1806.5152,1811.7225,space,4.9286,,1811.7226,25,80,1812.5841,1812.5842,1812.5962,,,,0,3,3,3,1,140,65,,,,,,,,
,,612e964f739d5a3c47126397,65af539e91bb652b9495ba62,2024-01-23_07h53.12.582,bars,2023.2.3,Win32,3.750150006,657b66ea316d21385b68909f,,,,,,,,,,,1812.5964,1813.5612,,,1813.9031,1813.9044,,40,40,,,,,,,,,,,,,,,,bars/028.png,bars/mask006.png,,,,,,,,,,,,3,1,,,,,,,4,4,4,4,,,,,,,,,,,1813.5612,1813.903,1813.9045,1815.3771,space,1.1791,,1815.3772,5,80,1816.2488,1816.2489,1816.2501,,,,0,4,4,4,1,45,120,,,,,,,,
,,612e964f739d5a3c47126397,65af539e91bb652b9495ba62,2024-01-23_07h53.12.582,bars,2023.2.3,Win32,3.750150006,657b66ea316d21385b68909f,,,,,,,,,,,1816.2503,1817.1146,,,1817.4162,1817.7165,,172,172,,,,,,,,,,,,,,,,bars/009.png,bars/mask004.png,,,,,,,,,,,,0,1,,,,,,,2,6,2,6,,,,,,,,,,,1817.1147,1817.4161,1817.7165,1826.9951,space,8.9993,,1826.9952,23,67,1827.8562,1827.8563,1827.8675,,,,0,5,5,5,1,15,105,,,,,,,,
,,612e964f739d5a3c47126397,65af539e91bb652b9495ba62,2024-01-23_07h53.12.582,bars,2023.2.3,Win32,3.750150006,657b66ea316d21385b68909f,,,,,,,,,,,1827.8677,1828.7224,,,1829.023,1829.3235,,53,53,,,,,,,,,,,,,,,,bars/009.png,bars/mask009.png,,,,,,,,,,,,0,1,,,,,,,4,4,5,4,,,,,,,,,,,1828.7225,1829.023,1829.3235,1830.1881,space,0.5862,0.0004,1830.1882,38,52,1831.0516,1831.0517,1831.0523,,,,0,6,6,6,1,15,105,,,,,,,,
,,612e964f739d5a3c47126397,65af539e91bb652b9495ba62,2024-01-23_07h53.12.582,bars,2023.2.3,Win32,3.750150006,657b66ea316d21385b68909f,,,,,,,,,,,1831.0526,1831.9193,,,1832.2199,1832.5208,,153,153,,,,,,,,,,,,,,,,bars/016.png,bars/mask002.png,,,,,,,,,,,,3,2,,,,,,,2,6,1,5,,,,,,,,,,,1831.9194,1832.2199,1832.5208,1838.9493,space,6.1504,,1838.9493,67,12,1839.8138,1839.8139,1839.8262,,,,0,7,7,7,1,40,165,,,,,,,,
,,612e964f739d5a3c47126397,65af539e91bb652b9495ba62,2024-01-23_07h53.12.582,bars,2023.2.3,Win32,3.750150006,657b66ea316d21385b68909f,,,,,,,,,,,1839.8265,1840.6935,,,1840.9976,1841.2982,,160,160,,,,,,,,,,,,,,,,bars/002.png,bars/mask000.png,,,,,,,,,,,,0,1,,,,,,,0,4,0,5,,,,,,,,,,,1840.6936,1840.9976,1841.2982,1846.8433,space,5.2658,,1846.8434,30,75,1847.7062,1847.7062,1847.7089,,,,0,8,8,8,1,130,85,,,,,,,,
,,612e964f739d5a3c47126397,65af539e91bb652b9495ba62,2024-01-23_07h53.12.582,bars,2023.2.3,Win32,3.750150006,657b66ea316d21385b68909f,,,,,,,,,,,1847.7093,1848.5712,,,1848.8721,1849.1726,,43,43,,,,,,,,,,,,,,,,bars/039.png,bars/mask009.png,,,,,,,,,,,,0,1,,,,,,,2,6,3,5,,,,,,,,,,,1848.5713,1848.872,1849.1727,1857.2754,space,7.8248,,1857.2754,48,62,1858.1386,1858.1386,1858.1498,,,,0,9,9,9,1,175,105,,,,,,,,
,,612e964f739d5a3c47126397,65af539e91bb652b9495ba62,2024-01-23_07h53.12.582,bars,2023.2.3,Win32,3.750150006,657b66ea316d21385b68909f,,,,,,,,,,,1858.1501,1859.0047,,,1859.3062,1859.606,,171,171,,,,,,,,,,,,,,,,bars/016.png,bars/mask008.png,,,,,,,,,,,,6,2,,,,,,,4,8,7,8,,,,,,,,,,,1859.0048,1859.3061,1859.6061,1861.6261,space,1.7414,0.0004,1861.6261,49,6,1862.4901,1862.4901,1862.4922,,,,0,10,10,10,1,40,165,,,,,,,,
,,612e964f739d5a3c47126397,65af539e91bb652b9495ba62,2024-01-23_07h53.12.582,bars,2023.2.3,Win32,3.750150006,657b66ea316d21385b68909f,,,,,,,,,,,1862.4925,1863.3538,,,1863.6545,1863.9551,,117,117,,,,,,,,,,,,,,,,bars/002.png,bars/mask001.png,,,,,,,,,,,,2,1,,,,,,,2,10,3,8,,,,,,,,,,,1863.3538,1863.6544,1863.9552,1864.8201,space,0.5864,,1864.8202,13,32,1865.6805,1865.6806,1865.6832,,,,0,11,11,11,1,130,85,,,,,,,,
,,612e964f739d5a3c47126397,65af539e91bb652b9495ba62,2024-01-23_07h53.12.582,bars,2023.2.3,Win32,3.750150006,657b66ea316d21385b68909f,,,,,,,,,,,1865.6836,1866.542,,,1866.843,1867.1454,,31,31,,,,,,,,,,,,,,,,bars/015.png,bars/mask006.png,,,,,,,,,,,,0,2,,,,,,,0,10,2,10,,,,,,,,,,,1866.5422,1866.843,1867.1454,1871.1947,space,3.7709,,1871.1947,79,51,1872.0553,1872.0553,1872.0673,,,,0,12,12,12,1,110,160,,,,,,,,
,,612e964f739d5a3c47126397,65af539e91bb652b9495ba62,2024-01-23_07h53.12.582,bars,2023.2.3,Win32,3.750150006,657b66ea316d21385b68909f,,,,,,,,,,,1872.0676,1872.9253,,,1873.2274,1873.5292,,8,8,,,,,,,,,,,,,,,,bars/019.png,bars/mask002.png,,,,,,,,,,,,0,1,,,,,,,2,8,2,8,,,,,,,,,,,1872.9253,1873.2273,1873.5293,1875.5479,space,1.7402,0.0003,1875.5479,37,83,1876.4125,1876.4126,1876.4144,,,,0,13,13,13,1,45,105,,,,,,,,
,,612e964f739d5a3c47126397,65af539e91bb652b9495ba62,2024-01-23_07h53.12.582,bars,2023.2.3,Win32,3.750150006,657b66ea316d21385b68909f,,,,,,,,,,,1876.4147,1877.2738,,,1877.5755,1877.8745,,0,180,,,,,,,,,,,,,,,,bars/020.png,bars/mask008.png,,,,,,,,,,,,3,2,,,,,,,4,6,5,5,,,,,,,,,,,1877.2739,1877.5754,1877.8745,1885.9813,space,7.8289,,1885.9813,65,10,1886.8476,1886.8476,1886.859,,,,0,14,14,14,1,115,170,,,,,,,,
,,612e964f739d5a3c47126397,65af539e91bb652b9495ba62,2024-01-23_07h53.12.582,bars,2023.2.3,Win32,3.750150006,657b66ea316d21385b68909f,,,,,,,,,,,1886.8592,1887.7147,,,1888.0163,1888.3175,,76,76,,,,,,,,,,,,,,,,bars/001.png,bars/mask008.png,,,,,,,,,,,,6,2,,,,,,,6,8,5,8,,,,,,,,,,,1887.7147,1888.0162,1888.3177,1892.9336,space,4.3382,,1892.9337,54,9,1893.7943,1893.7943,1893.7957,,,,0,15,15,15,1,130,85,,,,,,,,
,,612e964f739d5a3c47126397,65af539e91bb652b9495ba62,2024-01-23_07h53.12.582,bars,2023.2.3,Win32,3.750150006,657b66ea316d21385b68909f,,,,,,,,,,,1893.7961,1894.6571,,,1894.9593,1895.2597,,32,32,,,,,,,,,,,,,,,,bars/049.png,bars/mask001.png,,,,,,,,,,,,0,1,,,,,,,8,6,8,7,,,,,,,,,,,1894.6572,1894.9592,1895.2598,1902.214,space,6.6767,0.0004,1902.214,52,83,1903.076,1903.0761,1903.088,,,,0,16,16,16,1,160,115,,,,,,,,
,,612e964f739d5a3c47126397,65af539e91bb652b9495ba62,2024-01-23_07h53.12.582,bars,2023.2.3,Win32,3.750150006,657b66ea316d21385b68909f,,,,,,,,,,,1903.0882,1903.9451,,,1904.2461,1904.5463,,48,48,,,,,,,,,,,,,,,,bars/023.png,bars/mask002.png,,,,,,,,,,,,1,1,,,,,,,10,4,10,3,,,,,,,,,,,1903.9452,1904.246,1904.5464,1909.597,space,4.7723,0.0007,1909.5971,28,67,1910.5056,1910.5057,1910.5167,,,,0,17,17,17,1,20,115,,,,,,,,
,,612e964f739d5a3c47126397,65af539e91bb652b9495ba62,2024-01-23_07h53.12.582,bars,2023.2.3,Win32,3.750150006,657b66ea316d21385b68909f,,,,,,,,,,,1910.517,1911.711,,,1912.2083,1912.2091,,51,51,,,,,,,,,,,,,,,,bars/044.png,bars/mask001.png,,,,,,,,,,,,2,1,,,,,,,10,2,10,2,,,,,,,,,,,1911.7111,1912.2083,1912.2091,1914.434,space,1.9305,0.0001,1914.4341,24,76,1915.3118,1915.3119,1915.3227,,,,0,18,18,18,1,75,155,,,,,,,,
,,612e964f739d5a3c47126397,65af539e91bb652b9495ba62,2024-01-23_07h53.12.582,bars,2023.2.3,Win32,3.750150006,657b66ea316d21385b68909f,,,,,,,,,,,1915.323,1916.3367,,,1916.731,1917.0413,,98,98,,,,,,,,,,,,,,,,bars/027.png,bars/mask005.png,,,,,,,,,,,,5,1,,,,,,,8,4,9,4,,,,,,,,,,,1916.3367,1916.7309,1917.0413,1920.7584,space,3.4316,0.0001,1920.7584,12,48,1921.7416,1921.7416,1921.7528,,,,0,19,19,19,1,110,50,,,,,,,,
,,612e964f739d5a3c47126397,65af539e91bb652b9495ba62,2024-01-23_07h53.12.582,bars,2023.2.3,Win32,3.750150006,657b66ea316d21385b68909f,,,,,,,,,,,1921.7529,1922.723,,,1923.0455,1923.046,,85,85,,,,,,,,,,,,,,,,bars/041.png,bars/mask001.png,,,,,,,,,,,,3,2,,,,,,,10,2,10,3,,,,,,,,,,,1922.723,1923.0454,1923.046,1930.0149,space,6.6724,,1930.015,65,0,1930.8767,1930.8767,1930.8793,,,,0,20,20,20,1,20,85,,,,,,,,
,,612e964f739d5a3c47126397,65af539e91bb652b9495ba62,2024-01-23_07h53.12.582,bars,2023.2.3,Win32,3.750150006,657b66ea316d21385b68909f,,,,,,,,,,,1930.8797,1931.7546,,,1932.0605,1932.3707,,178,-2,,,,,,,,,,,,,,,,bars/017.png,bars/mask001.png,,,,,,,,,,,,0,1,,,,,,,10,0,9,0,,,,,,,,,,,1931.7546,1932.0604,1932.3707,1940.4842,space,7.835,,1940.4842,33,47,1941.3579,1941.3579,1941.3703,,,,0,21,21,21,1,145,45,,,,,,,,
,,612e964f739d5a3c47126397,65af539e91bb652b9495ba62,2024-01-23_07h53.12.582,bars,2023.2.3,Win32,3.750150006,657b66ea316d21385b68909f,,,,,,,,,,,1941.3705,1942.2283,,,1942.5296,1942.8303,,164,-16,,,,,,,,,,,,,,,,bars/043.png,bars/mask007.png,,,,,,,,,,,,0,2,,,,,,,8,0,7,0,,,,,,,,,,,1942.2284,1942.5295,1942.8304,1947.7689,space,4.6598,0.0002,1947.7689,46,34,1948.6306,1948.6307,1948.6427,,,,0,22,22,22,1,30,130,,,,,,,,
,,612e964f739d5a3c47126397,65af539e91bb652b9495ba62,2024-01-23_07h53.12.582,bars,2023.2.3,Win32,3.750150006,657b66ea316d21385b68909f,,,,,,,,,,,1948.643,1949.4999,,,1949.7992,1950.0998,,118,118,,,,,,,,,,,,,,,,bars/012.png,bars/mask003.png,,,,,,,,,,,,0,1,,,,,,,6,0,4,0,,,,,,,,,,,1949.4999,1949.7991,1950.0999,1958.2076,space,7.8276,0.0003,1958.2077,28,77,1959.0655,1959.0655,1959.0775,,,,0,23,23,23,1,90,15,,,,,,,,
,,612e964f739d5a3c47126397,65af539e91bb652b9495ba62,2024-01-23_07h53.12.582,bars,2023.2.3,Win32,3.750150006,657b66ea316d21385b68909f,,,,,,,,,,,1959.0777,1959.9341,,,1960.2356,1960.5366,,54,54,,,,,,,,,,,,,,,,bars/039.png,bars/mask004.png,,,,,,,,,,,,0,2,,,,,,,8,0,8,0,,,,,,,,,,,1959.9342,1960.2356,1960.5367,1962.2684,space,1.4523,0.0001,1962.2684,59,51,1963.135,1963.135,1963.1371,,,,0,24,24,24,1,175,105,,,,,,,,
,,612e964f739d5a3c47126397,65af539e91bb652b9495ba62,2024-01-23_07h53.12.582,bars,2023.2.3,Win32,3.750150006,657b66ea316d21385b68909f,,,,,,,,,,,1963.1374,1963.9988,,,1964.3152,1964.6271,,36,36,,,,,,,,,,,,,,,,bars/032.png,bars/mask007.png,,,,,,,,,,,,0,2,,,,,,,6,0,5,0,,,,,,,,,,,1963.9988,1964.315,1964.6272,1965.8467,space,0.9418,,1965.8467,89,16,1966.7942,1966.7943,1966.7949,,,,0,25,25,25,1,125,20,,,,,,,,
,,612e964f739d5a3c47126397,65af539e91bb652b9495ba62,2024-01-23_07h53.12.582,bars,2023.2.3,Win32,3.750150006,657b66ea316d21385b68909f,,,,,,,,,,,1966.7951,1967.7133,,,1968.0511,1968.3682,,95,95,,,,,,,,,,,,,,,,bars/008.png,bars/mask001.png,,,,,,,,,,,,4,1,,,,,,,8,2,7,4,,,,,,,,,,,1967.7134,1968.051,1968.3682,1968.6581,space,0.0105,0.0008,1968.6582,15,85,1969.5338,1969.5338,1969.5359,,,,0,26,26,26,1,110,0,,,,,,,,
,,612e964f739d5a3c47126397,65af539e91bb652b9495ba62,2024-01-23_07h53.12.582,bars,2023.2.3,Win32,3.750150006,657b66ea316d21385b68909f,,,,,,,,,,,1969.5364,1970.4303,,,1970.7308,1971.0335,,108,108,,,,,,,,,,,,,,,,bars/036.png,bars/mask002.png,,,,,,,,,,,,0,1,,,,,,,6,0,6,1,,,,,,,,,,,1970.4304,1970.7307,1971.0336,1971.3255,space,0.0105,,1971.3255,37,88,1972.1867,1972.1867,1972.1883,,,,0,27,27,27,1,145,20,,,,,,,,
,,612e964f739d5a3c47126397,65af539e91bb652b9495ba62,2024-01-23_07h53.12.582,bars,2023.2.3,Win32,3.750150006,657b66ea316d21385b68909f,,,,,,,,,,,1972.1886,1973.0522,,,1973.3505,1973.6513,,109,109,,,,,,,,,,,,,,,,bars/012.png,bars/mask003.png,,,,,,,,,,,,1,1,,,,,,,4,2,4,3,,,,,,,,,,,1973.0522,1973.3505,1973.6514,1976.8357,space,2.9069,,1976.8358,19,86,1977.697,1977.6971,1977.708,,,,0,28,28,28,1,90,15,,,,,,,,
,,612e964f739d5a3c47126397,65af539e91bb652b9495ba62,2024-01-23_07h53.12.582,bars,2023.2.3,Win32,3.750150006,657b66ea316d21385b68909f,,,,,,,,,,,1977.7082,1978.5612,,,1978.8627,1979.1642,,81,81,,,,,,,,,,,,,,,,bars/040.png,bars/mask009.png,,,,,,,,,,,,0,1,,,,,,,2,0,2,0,,,,,,,,,,,1978.5614,1978.8626,1979.1643,1983.7998,space,4.3587,,1983.7999,59,76,1984.6644,1984.6644,1984.6753,,,,0,29,29,29,1,140,5,,,,,,,,
,,612e964f739d5a3c47126397,65af539e91bb652b9495ba62,2024-01-23_07h53.12.582,bars,2023.2.3,Win32,3.750150006,657b66ea316d21385b68909f,,,,,,,,,,,1984.6756,1985.5348,,,1985.8395,1986.1433,,145,145,,,,,,,,,,,,,,,,bars/047.png,bars/mask007.png,,,,,,,,,,,,0,1,,,,,,,4,0,4,0,,,,,,,,,,,1985.5348,1985.8394,1986.1433,1988.7581,space,2.3385,,1988.7581,50,75,1989.62,1989.62,1989.6214,,,,0,30,30,30,1,15,70,,,,,,,,
,,612e964f739d5a3c47126397,65af539e91bb652b9495ba62,2024-01-23_07h53.12.582,bars,2023.2.3,Win32,3.750150006,657b66ea316d21385b68909f,,,,,,,,,,,1989.6217,1990.4848,,,1990.7863,1991.087,,95,95,,,,,,,,,,,,,,,,bars/035.png,bars/mask005.png,,,,,,,,,,,,0,2,,,,,,,2,0,0,0,,,,,,,,,,,1990.485,1990.7863,1991.0871,1991.3755,space,0.0102,,1991.3756,80,35,1992.2481,1992.2481,1992.25,,,,0,31,31,31,1,175,60,,,,,,,,
,,612e964f739d5a3c47126397,65af539e91bb652b9495ba62,2024-01-23_07h53.12.582,bars,2023.2.3,Win32,3.750150006,657b66ea316d21385b68909f,,,,,,,,,,,1992.2504,1993.1077,,,1993.4105,1993.7114,,161,161,,,,,,,,,,,,,,,,bars/026.png,bars/mask009.png,,,,,,,,,,,,0,1,,,,,,,0,0,0,0,,,,,,,,,,,1993.1078,1993.4104,1993.7115,2003.5755,space,9.586,0.0004,2003.5756,54,76,2004.4341,2004.4341,2004.4464,,,,0,32,32,32,1,35,85,,,,,,,,
,,612e964f739d5a3c47126397,65af539e91bb652b9495ba62,2024-01-23_07h53.12.582,bars,2023.2.3,Win32,3.750150006,657b66ea316d21385b68909f,,,,,,,,,,,2004.4467,2005.3059,,,2005.6069,2005.9068,,16,16,,,,,,,,,,,,,,,,bars/000.png,bars/mask004.png,,,,,,,,,,,,0,1,,,,,,,0,2,0,3,,,,,,,,,,,2005.3059,2005.6069,2005.9069,2010.2513,space,4.0646,,2010.2513,24,51,2011.1132,2011.1133,2011.1144,,,,0,33,33,33,1,40,145,,,,,,,,
,,612e964f739d5a3c47126397,65af539e91bb652b9495ba62,2024-01-23_07h53.12.582,bars,2023.2.3,Win32,3.750150006,657b66ea316d21385b68909f,,,,,,,,,,,2011.1147,2011.9825,,,2012.2925,2012.5978,,9,9,,,,,,,,,,,,,,,,bars/010.png,bars/mask003.png,,,,,,,,,,,,0,1,,,,,,,2,4,0,4,,,,,,,,,,,2011.9825,2012.2925,2012.5978,2012.8858,space,0.0108,,2012.8859,24,46,2013.7846,2013.7846,2013.7855,,,,0,34,34,34,1,165,55,,,,,,,,
,,612e964f739d5a3c47126397,65af539e91bb652b9495ba62,2024-01-23_07h53.12.582,bars,2023.2.3,Win32,3.750150006,657b66ea316d21385b68909f,,,,,,,,,,,2013.7859,2014.6869,,,2014.9848,2015.2899,,169,-11,,,,,,,,,,,,,,,,bars/012.png,bars/mask003.png,,,,,,,,,,,,1,2,,,,,,,4,6,5,5,,,,,,,,,,,2014.6869,2014.9848,2015.2899,2021.0982,space,5.5308,,2021.0982,79,26,2021.9845,2021.9845,2021.9883,,,,0,35,35,35,1,90,15,,,,,,,,
,,612e964f739d5a3c47126397,65af539e91bb652b9495ba62,2024-01-23_07h53.12.582,bars,2023.2.3,Win32,3.750150006,657b66ea316d21385b68909f,,,,,,,,,,,2021.9886,2022.8516,,,2023.1568,2023.4553,,126,126,,,,,,,,,,,,,,,,bars/032.png,bars/mask003.png,,,,,,,,,,,,6,1,,,,,,,6,4,6,3,,,,,,,,,,,2022.8517,2023.1568,2023.4554,2028.6688,space,4.9336,0.0007,2028.669,1,74,2029.5307,2029.5308,2029.5333,,,,0,36,36,36,1,125,20,,,,,,,,
,,612e964f739d5a3c47126397,65af539e91bb652b9495ba62,2024-01-23_07h53.12.582,bars,2023.2.3,Win32,3.750150006,657b66ea316d21385b68909f,,,,,,,,,,,2029.5337,2030.4001,,,2030.701,2031.002,,91,91,,,,,,,,,,,,,,,,bars/023.png,bars/mask005.png,,,,,,,,,,,,1,2,,,,,,,4,6,4,6,,,,,,,,,,,2030.4003,2030.701,2031.002,2035.9334,space,4.6522,,2035.9334,71,24,2036.794,2036.7941,2036.8061,,,,0,37,37,37,1,20,115,,,,,,,,
,,612e964f739d5a3c47126397,65af539e91bb652b9495ba62,2024-01-23_07h53.12.582,bars,2023.2.3,Win32,3.750150006,657b66ea316d21385b68909f,,,,,,,,,,,2036.8064,2037.6635,,,2037.9642,2038.2683,,117,117,,,,,,,,,,,,,,,,bars/025.png,bars/mask002.png,,,,,,,,,,,,1,1,,,,,,,2,8,2,8,,,,,,,,,,,2037.6636,2037.9642,2038.2683,2040.5805,space,2.0337,0.0004,2040.5806,12,77,2041.4378,2041.4378,2041.4398,,,,0,38,38,38,1,105,40,,,,,,,,
,,612e964f739d5a3c47126397,65af539e91bb652b9495ba62,2024-01-23_07h53.12.582,bars,2023.2.3,Win32,3.750150006,657b66ea316d21385b68909f,,,,,,,,,,,2041.4402,2042.2977,,,2042.5972,2042.8983,,62,62,,,,,,,,,,,,,,,,bars/049.png,bars/mask009.png,,,,,,,,,,,,0,2,,,,,,,4,10,4,10,,,,,,,,,,,2042.2978,2042.5972,2042.8983,2045.4924,space,2.3181,,2045.4925,82,53,2046.3503,2046.3503,2046.3523,,,,0,39,39,39,1,160,115,,,,,,,,
,,612e964f739d5a3c47126397,65af539e91bb652b9495ba62,2024-01-23_07h53.12.582,bars,2023.2.3,Win32,3.750150006,657b66ea316d21385b68909f,,,,,,,,,,,2046.3527,2047.2072,,,2047.5061,2047.8042,,115,115,,,,,,,,,,,,,,,,bars/047.png,bars/mask007.png,,,,,,,,,,,,0,2,,,,,,,2,8,3,8,,,,,,,,,,,2047.2073,2047.506,2047.8042,2048.3801,space,0.2981,0.0009,2048.3801,80,45,2049.2368,2049.237,2049.2382,,,,0,40,40,40,1,15,70,,,,,,,,
,,612e964f739d5a3c47126397,65af539e91bb652b9495ba62,2024-01-23_07h53.12.582,bars,2023.2.3,Win32,3.750150006,657b66ea316d21385b68909f,,,,,,,,,,,2049.2386,2050.0965,,,2050.4095,2050.7086,,145,145,,,,,,,,,,,,,,,,bars/048.png,bars/mask005.png,,,,,,,,,,,,0,2,,,,,,,4,6,4,6,,,,,,,,,,,2050.0965,2050.4095,2050.7087,2058.2463,space,7.2516,0.0007,2058.2464,85,30,2059.1149,2059.1149,2059.1259,,,,0,41,41,41,1,50,175,,,,,,,,
,,612e964f739d5a3c47126397,65af539e91bb652b9495ba62,2024-01-23_07h53.12.582,bars,2023.2.3,Win32,3.750150006,657b66ea316d21385b68909f,,,,,,,,,,,2059.1262,2059.976,,,2060.2764,2060.5738,,129,129,,,,,,,,,,,,,,,,bars/003.png,bars/mask008.png,,,,,,,,,,,,6,2,,,,,,,6,8,4,10,,,,,,,,,,,2059.9761,2060.2764,2060.5739,2067.7825,space,6.9316,0.0007,2067.7826,76,11,2068.6395,2068.6397,2068.6507,,,,0,42,42,42,1,25,140,,,,,,,,
,,612e964f739d5a3c47126397,65af539e91bb652b9495ba62,2024-01-23_07h53.12.582,bars,2023.2.3,Win32,3.750150006,657b66ea316d21385b68909f,,,,,,,,,,,2068.6509,2069.5003,,,2069.8009,2070.1,,57,57,,,,,,,,,,,,,,,,bars/037.png,bars/mask004.png,,,,,,,,,,,,0,2,,,,,,,8,10,8,10,,,,,,,,,,,2069.5004,2069.8008,2070.1,2074.1288,space,3.7514,0.0005,2074.1288,87,48,2074.9838,2074.9838,2074.9853,,,,0,43,43,43,1,150,105,,,,,,,,
,,612e964f739d5a3c47126397,65af539e91bb652b9495ba62,2024-01-23_07h53.12.582,bars,2023.2.3,Win32,3.750150006,657b66ea316d21385b68909f,,,,,,,,,,,2074.9857,2075.8414,,,2076.1435,2076.4442,,37,37,,,,,,,,,,,,,,,,bars/038.png,bars/mask000.png,,,,,,,,,,,,0,2,,,,,,,6,10,5,10,,,,,,,,,,,2075.8415,2076.1434,2076.4442,2080.7697,space,4.0503,,2080.7697,52,33,2081.6324,2081.6325,2081.6436,,,,0,44,44,44,1,165,70,,,,,,,,
,,612e964f739d5a3c47126397,65af539e91bb652b9495ba62,2024-01-23_07h53.12.582,bars,2023.2.3,Win32,3.750150006,657b66ea316d21385b68909f,,,,,,,,,,,2081.6439,2082.4988,,,2082.7962,2083.0981,,62,62,,,,,,,,,,,,,,,,bars/041.png,bars/mask008.png,,,,,,,,,,,,2,2,,,,,,,4,10,4,10,,,,,,,,,,,2082.4988,2082.7962,2083.0981,2086.2692,space,2.8946,0.0002,2086.2693,42,23,2087.1302,2087.1302,2087.1309,,,,0,45,45,45,1,20,85,,,,,,,,
,,612e964f739d5a3c47126397,65af539e91bb652b9495ba62,2024-01-23_07h53.12.582,bars,2023.2.3,Win32,3.750150006,657b66ea316d21385b68909f,,,,,,,,,,,2087.1313,2087.9873,,,2088.2882,2088.589,,26,26,,,,,,,,,,,,,,,,bars/017.png,bars/mask001.png,,,,,,,,,,,,3,2,,,,,,,6,10,6,9,,,,,,,,,,,2087.9874,2088.2882,2088.5891,2092.6194,space,3.7537,0.0008,2092.6194,61,19,2093.4757,2093.4758,2093.4766,,,,0,46,46,46,1,145,45,,,,,,,,
,,612e964f739d5a3c47126397,65af539e91bb652b9495ba62,2024-01-23_07h53.12.582,bars,2023.2.3,Win32,3.750150006,657b66ea316d21385b68909f,,,,,,,,,,,2093.4769,2094.3313,,,2094.6301,2094.935,,57,57,,,,,,,,,,,,,,,,bars/004.png,bars/mask006.png,,,,,,,,,,,,0,1,,,,,,,4,8,2,8,,,,,,,,,,,2094.3314,2094.63,2094.935,2099.5421,space,4.3312,0.0006,2099.5422,32,68,2100.4035,2100.4035,2100.4152,,,,0,47,47,47,1,25,125,,,,,,,,
,,612e964f739d5a3c47126397,65af539e91bb652b9495ba62,2024-01-23_07h53.12.582,bars,2023.2.3,Win32,3.750150006,657b66ea316d21385b68909f,,,,,,,,,,,2100.4154,2101.2704,,,2101.5731,2101.8743,,138,138,,,,,,,,,,,,,,,,bars/029.png,bars/mask002.png,,,,,,,,,,,,0,1,,,,,,,6,10,6,10,,,,,,,,,,,2101.2705,2101.5731,2101.8744,2105.62,space,3.4685,,2105.6201,48,87,2106.4767,2106.4767,2106.478,,,,0,48,48,48,1,90,45,,,,,,,,
,,612e964f739d5a3c47126397,65af539e91bb652b9495ba62,2024-01-23_07h53.12.582,bars,2023.2.3,Win32,3.750150006,657b66ea316d21385b68909f,,,,,,,,,,,2106.4784,2107.3413,,,2107.6406,2107.945,,14,194,,,,,,,,,,,,,,,,bars/034.png,bars/mask001.png,,,,,,,,,,,,0,2,,,,,,,4,10,6,10,,,,,,,,,,,2107.3414,2107.6406,2107.945,2111.9755,space,3.754,0.0004,2111.9755,69,51,2112.838,2112.838,2112.84,,,,0,49,49,49,1,125,65,,,,,,,,
,,612e964f739d5a3c47126397,65af539e91bb652b9495ba62,2024-01-23_07h53.12.582,bars,2023.2.3,Win32,3.750150006,657b66ea316d21385b68909f,,,,,,,,,,,,,,,,,,,,,,,,,,,,,,,,,,,,,,,,,,,,,,,,,,,,,,,,,,,,,,,,,,,,,,,,,,,,,,,,,,,,,,,,,,,,,2112.84,2172.7854,0,1,1,4,1,sequence_tables/blk008.csv
,,612e964f739d5a3c47126397,65af539e91bb652b9495ba62,2024-01-23_07h53.12.582,bars,2023.2.3,Win32,3.750150006,657b66ea316d21385b68909f,,,,,,,,,,,2179.5454,2180.4029,,,2180.7034,2181.0046,,31,31,,,,,,,,,,,,,,,,bars/025.png,bars/mask008.png,,,,,,,,,,,,6,2,,,,,,,5,7,6,8,,,,,,2172.7971,2179.531,space,6.4599,,2180.4031,2180.7033,2181.0047,2185.9162,space,4.6345,,2185.9162,74,9,2186.8084,2186.8085,2186.8209,,,,0,0,0,0,1,105,40,,,,,,,,
,,612e964f739d5a3c47126397,65af539e91bb652b9495ba62,2024-01-23_07h53.12.582,bars,2023.2.3,Win32,3.750150006,657b66ea316d21385b68909f,,,,,,,,,,,2186.8212,2187.706,,,2188.0063,2188.3167,,15,195,,,,,,,,,,,,,,,,bars/007.png,bars/mask000.png,,,,,,,,,,,,2,1,,,,,,,7,9,5,8,,,,,,,,,,,2187.7061,2188.0062,2188.3168,2203.3543,space,14.7599,,2203.3545,20,40,2204.2169,2204.2169,2204.2297,,,,0,1,1,1,1,175,55,,,,,,,,
,,612e964f739d5a3c47126397,65af539e91bb652b9495ba62,2024-01-23_07h53.12.582,bars,2023.2.3,Win32,3.750150006,657b66ea316d21385b68909f,,,,,,,,,,,2204.2299,2205.0843,,,2205.385,2205.6848,,89,89,,,,,,,,,,,,,,,,bars/010.png,bars/mask001.png,,,,,,,,,,,,0,2,,,,,,,5,10,4,10,,,,,,,,,,,2205.0844,2205.3849,2205.6848,2218.6446,space,12.6818,,2218.6446,76,34,2219.5401,2219.5401,2219.5523,,,,0,2,2,2,1,165,55,,,,,,,,
,,612e964f739d5a3c47126397,65af539e91bb652b9495ba62,2024-01-23_07h53.12.582,bars,2023.2.3,Win32,3.750150006,657b66ea316d21385b68909f,,,,,,,,,,,2219.5526,2220.5886,,,2220.9226,2220.9231,,13,13,,,,,,,,,,,,,,,,bars/019.png,bars/mask006.png,,,,,,,,,,,,0,1,,,,,,,3,10,2,9,,,,,,,,,,,2220.5886,2220.9226,2220.9232,2240.7976,space,19.5675,,2240.7976,32,88,2241.6681,2241.6681,2241.6807,,,,0,3,3,3,1,45,105,,,,,,,,
,,612e964f739d5a3c47126397,65af539e91bb652b9495ba62,2024-01-23_07h53.12.582,bars,2023.2.3,Win32,3.750150006,657b66ea316d21385b68909f,,,,,,,,,,,2241.6811,2242.5383,,,2242.8387,2243.1407,,37,37,,,,,,,,,,,,,,,,bars/039.png,bars/mask007.png,,,,,,,,,,,,0,1,,,,,,,1,10,0,10,,,,,,,,,,,2242.5384,2242.8386,2243.1409,2244.8682,space,1.4496,,2244.8682,42,68,2245.7297,2245.7297,2245.7305,,,,0,4,4,4,1,175,105,,,,,,,,
,,612e964f739d5a3c47126397,65af539e91bb652b9495ba62,2024-01-23_07h53.12.582,bars,2023.2.3,Win32,3.750150006,657b66ea316d21385b68909f,,,,,,,,,,,2245.7308,2246.5912,,,2246.8983,2247.2073,,53,53,,,,,,,,,,,,,,,,bars/049.png,bars/mask004.png,,,,,,,,,,,,0,2,,,,,,,0,10,1,10,,,,,,,,,,,2246.5913,2246.8983,2247.2073,2252.1481,space,4.6666,,2252.1481,73,62,2253.0083,2253.0084,2253.0104,,,,0,5,5,5,1,160,115,,,,,,,,
,,612e964f739d5a3c47126397,65af539e91bb652b9495ba62,2024-01-23_07h53.12.582,bars,2023.2.3,Win32,3.750150006,657b66ea316d21385b68909f,,,,,,,,,,,2253.0107,2253.8683,,,2254.1742,2254.4745,,8,188,,,,,,,,,,,,,,,,bars/032.png,bars/mask009.png,,,,,,,,,,,,6,2,,,,,,,2,8,1,10,,,,,,,,,,,2253.8684,2254.174,2254.4745,2259.6957,space,4.9429,,2259.6957,63,12,2260.5581,2260.5581,2260.5694,,,,0,6,6,6,1,125,20,,,,,,,,
,,612e964f739d5a3c47126397,65af539e91bb652b9495ba62,2024-01-23_07h53.12.582,bars,2023.2.3,Win32,3.750150006,657b66ea316d21385b68909f,,,,,,,,,,,2260.5695,2261.4224,,,2261.723,2262.0233,,169,169,,,,,,,,,,,,,,,,bars/036.png,bars/mask004.png,,,,,,,,,,,,0,1,,,,,,,0,6,0,5,,,,,,,,,,,2261.4225,2261.7229,2262.0233,2266.768,space,4.467,,2266.768,24,31,2267.6794,2267.6794,2267.6917,,,,0,7,7,7,1,145,20,,,,,,,,
,,612e964f739d5a3c47126397,65af539e91bb652b9495ba62,2024-01-23_07h53.12.582,bars,2023.2.3,Win32,3.750150006,657b66ea316d21385b68909f,,,,,,,,,,,2267.692,2268.5991,,,2268.914,2269.2351,,147,147,,,,,,,,,,,,,,,,bars/016.png,bars/mask009.png,,,,,,,,,,,,3,2,,,,,,,0,8,1,7,,,,,,,,,,,2268.5993,2268.9139,2269.2351,2271.3652,space,1.8497,0.0002,2271.3652,73,18,2272.244,2272.244,2272.2457,,,,0,8,8,8,1,40,165,,,,,,,,
,,612e964f739d5a3c47126397,65af539e91bb652b9495ba62,2024-01-23_07h53.12.582,bars,2023.2.3,Win32,3.750150006,657b66ea316d21385b68909f,,,,,,,,,,,2272.2459,2273.1098,,,2273.4141,2273.7169,,178,178,,,,,,,,,,,,,,,,bars/045.png,bars/mask003.png,,,,,,,,,,,,3,2,,,,,,,0,6,0,5,,,,,,,,,,,2273.1099,2273.4141,2273.7169,2274.8705,space,0.8756,,2274.8706,78,12,2275.7355,2275.7355,2275.7362,,,,0,9,9,9,1,100,10,,,,,,,,
,,612e964f739d5a3c47126397,65af539e91bb652b9495ba62,2024-01-23_07h53.12.582,bars,2023.2.3,Win32,3.750150006,657b66ea316d21385b68909f,,,,,,,,,,,2275.7365,2276.5978,,,2276.8992,2277.2032,,133,133,,,,,,,,,,,,,,,,bars/003.png,bars/mask009.png,,,,,,,,,,,,6,2,,,,,,,0,8,1,8,,,,,,,,,,,2276.598,2276.8992,2277.2032,2278.9431,space,1.4622,0.0002,2278.9431,72,7,2279.8025,2279.8026,2279.8041,,,,0,10,10,10,1,25,140,,,,,,,,
,,612e964f739d5a3c47126397,65af539e91bb652b9495ba62,2024-01-23_07h53.12.582,bars,2023.2.3,Win32,3.750150006,657b66ea316d21385b68909f,,,,,,,,,,,2279.8045,2280.6642,,,2280.9652,2281.2686,,167,167,,,,,,,,,,,,,,,,bars/013.png,bars/mask009.png,,,,,,,,,,,,2,2,,,,,,,0,10,0,10,,,,,,,,,,,2280.6642,2280.9652,2281.2687,2282.1356,space,0.5881,,2282.1356,88,23,2282.9966,2282.9966,2282.998,,,,0,11,11,11,1,75,10,,,,,,,,
,,612e964f739d5a3c47126397,65af539e91bb652b9495ba62,2024-01-23_07h53.12.582,bars,2023.2.3,Win32,3.750150006,657b66ea316d21385b68909f,,,,,,,,,,,2282.9984,2283.858,,,2284.1627,2284.4613,,170,170,,,,,,,,,,,,,,,,bars/023.png,bars/mask005.png,,,,,,,,,,,,0,1,,,,,,,0,8,0,8,,,,,,,,,,,2283.858,2284.1627,2284.4614,2287.3419,space,2.6037,,2287.3419,30,55,2288.2084,2288.2084,2288.2104,,,,0,12,12,12,1,20,115,,,,,,,,
,,612e964f739d5a3c47126397,65af539e91bb652b9495ba62,2024-01-23_07h53.12.582,bars,2023.2.3,Win32,3.750150006,657b66ea316d21385b68909f,,,,,,,,,,,2288.2108,2289.0728,,,2289.373,2289.6735,,80,80,,,,,,,,,,,,,,,,bars/023.png,bars/mask009.png,,,,,,,,,,,,0,2,,,,,,,2,6,2,5,,,,,,,,,,,2289.0729,2289.3729,2289.6737,2295.7326,space,5.7799,,2295.7327,60,35,2296.5957,2296.5958,2296.6084,,,,0,13,13,13,1,20,115,,,,,,,,
,,612e964f739d5a3c47126397,65af539e91bb652b9495ba62,2024-01-23_07h53.12.582,bars,2023.2.3,Win32,3.750150006,657b66ea316d21385b68909f,,,,,,,,,,,2296.6087,2297.4608,,,2297.7648,2298.0665,,55,55,,,,,,,,,,,,,,,,bars/036.png,bars/mask009.png,,,,,,,,,,,,0,2,,,,,,,0,8,1,8,,,,,,,,,,,2297.4609,2297.7648,2298.0666,2301.2871,space,2.9413,0.0003,2301.2872,90,35,2302.1536,2302.1536,2302.165,,,,0,14,14,14,1,145,20,,,,,,,,
,,612e964f739d5a3c47126397,65af539e91bb652b9495ba62,2024-01-23_07h53.12.582,bars,2023.2.3,Win32,3.750150006,657b66ea316d21385b68909f,,,,,,,,,,,2302.1652,2303.0254,,,2303.3305,2303.631,,111,111,,,,,,,,,,,,,,,,bars/013.png,bars/mask002.png,,,,,,,,,,,,0,1,,,,,,,2,10,0,10,,,,,,,,,,,2303.0254,2303.3305,2303.631,2306.8381,space,2.9283,0.0004,2306.8381,36,79,2307.6987,2307.6987,2307.7108,,,,0,15,15,15,1,75,10,,,,,,,,
,,612e964f739d5a3c47126397,65af539e91bb652b9495ba62,2024-01-23_07h53.12.582,bars,2023.2.3,Win32,3.750150006,657b66ea316d21385b68909f,,,,,,,,,,,2307.7111,2308.5691,,,2308.8724,2309.1745,,24,24,,,,,,,,,,,,,,,,bars/012.png,bars/mask004.png,,,,,,,,,,,,7,2,,,,,,,4,10,2,10,,,,,,,,,,,2308.5692,2308.8724,2309.1745,2312.4726,space,3.0179,0.0002,2312.4726,66,9,2313.352,2313.352,2313.3642,,,,0,16,16,16,1,90,15,,,,,,,,
,,612e964f739d5a3c47126397,65af539e91bb652b9495ba62,2024-01-23_07h53.12.582,bars,2023.2.3,Win32,3.750150006,657b66ea316d21385b68909f,,,,,,,,,,,2313.3644,2314.218,,,2314.5197,2314.8196,,93,93,,,,,,,,,,,,,,,,bars/037.png,bars/mask001.png,,,,,,,,,,,,5,2,,,,,,,2,8,2,9,,,,,,,,,,,2314.2181,2314.5197,2314.8196,2316.8641,space,1.758,0.0003,2316.8641,57,12,2317.7257,2317.7258,2317.7265,,,,0,17,17,17,1,150,105,,,,,,,,
,,612e964f739d5a3c47126397,65af539e91bb652b9495ba62,2024-01-23_07h53.12.582,bars,2023.2.3,Win32,3.750150006,657b66ea316d21385b68909f,,,,,,,,,,,2317.7269,2318.5971,,,2318.8978,2319.2037,,164,164,,,,,,,,,,,,,,,,bars/037.png,bars/mask004.png,,,,,,,,,,,,0,1,,,,,,,0,6,0,7,,,,,,,,,,,2318.5972,2318.8977,2319.2037,2321.5213,space,2.0397,0.0005,2321.5214,14,59,2322.3808,2322.3808,2322.3827,,,,0,18,18,18,1,150,105,,,,,,,,
,,612e964f739d5a3c47126397,65af539e91bb652b9495ba62,2024-01-23_07h53.12.582,bars,2023.2.3,Win32,3.750150006,657b66ea316d21385b68909f,,,,,,,,,,,2322.3831,2323.2443,,,2323.5505,2323.8576,,95,95,,,,,,,,,,,,,,,,bars/046.png,bars/mask009.png,,,,,,,,,,,,2,2,,,,,,,0,4,2,3,,,,,,,,,,,2323.2443,2323.5505,2323.8577,2327.2852,space,3.1161,,2327.2852,60,10,2328.152,2328.152,2328.154,,,,0,19,19,19,1,155,85,,,,,,,,
,,612e964f739d5a3c47126397,65af539e91bb652b9495ba62,2024-01-23_07h53.12.582,bars,2023.2.3,Win32,3.750150006,657b66ea316d21385b68909f,,,,,,,,,,,2328.1543,2329.0164,,,2329.3186,2329.6174,,125,125,,,,,,,,,,,,,,,,bars/019.png,bars/mask005.png,,,,,,,,,,,,0,2,,,,,,,2,2,1,1,,,,,,,,,,,2329.0165,2329.3186,2329.6174,2332.8025,space,2.9082,,2332.8025,80,20,2333.6652,2333.6652,2333.666,,,,0,20,20,20,1,45,105,,,,,,,,
,,612e964f739d5a3c47126397,65af539e91bb652b9495ba62,2024-01-23_07h53.12.582,bars,2023.2.3,Win32,3.750150006,657b66ea316d21385b68909f,,,,,,,,,,,2333.6664,2334.5308,,,2334.8309,2335.131,,23,23,,,,,,,,,,,,,,,,bars/027.png,bars/mask006.png,,,,,,,,,,,,0,2,,,,,,,4,0,4,0,,,,,,,,,,,2334.5308,2334.8308,2335.1311,2340.9148,space,5.5066,,2340.9149,87,27,2341.7739,2341.774,2341.7851,,,,0,21,21,21,1,110,50,,,,,,,,
,,612e964f739d5a3c47126397,65af539e91bb652b9495ba62,2024-01-23_07h53.12.582,bars,2023.2.3,Win32,3.750150006,657b66ea316d21385b68909f,,,,,,,,,,,2341.7854,2342.6428,,,2342.9442,2343.2448,,73,73,,,,,,,,,,,,,,,,bars/035.png,bars/mask009.png,,,,,,,,,,,,0,2,,,,,,,2,0,3,0,,,,,,,,,,,2342.643,2342.944,2343.2448,2347.2922,space,3.7699,0.0009,2347.2922,78,13,2348.1555,2348.1556,2348.1563,,,,0,22,22,22,1,175,60,,,,,,,,
,,612e964f739d5a3c47126397,65af539e91bb652b9495ba62,2024-01-23_07h53.12.582,bars,2023.2.3,Win32,3.750150006,657b66ea316d21385b68909f,,,,,,,,,,,2348.1567,2349.0181,,,2349.3196,2349.6229,,170,170,,,,,,,,,,,,,,,,bars/013.png,bars/mask008.png,,,,,,,,,,,,0,2,,,,,,,0,0,1,0,,,,,,,,,,,2349.0181,2349.3196,2349.6229,2353.673,space,3.7743,0.0004,2353.673,85,20,2354.5375,2354.5375,2354.5487,,,,0,23,23,23,1,75,10,,,,,,,,
,,612e964f739d5a3c47126397,65af539e91bb652b9495ba62,2024-01-23_07h53.12.582,bars,2023.2.3,Win32,3.750150006,657b66ea316d21385b68909f,,,,,,,,,,,2354.5489,2355.4071,,,2355.7152,2356.0147,,172,172,,,,,,,,,,,,,,,,bars/026.png,bars/mask009.png,,,,,,,,,,,,0,1,,,,,,,2,2,2,1,,,,,,,,,,,2355.4071,2355.7152,2356.0147,2359.4813,space,3.1889,0.0005,2359.4813,43,87,2360.3473,2360.3474,2360.3593,,,,0,24,24,24,1,35,85,,,,,,,,
,,612e964f739d5a3c47126397,65af539e91bb652b9495ba62,2024-01-23_07h53.12.582,bars,2023.2.3,Win32,3.750150006,657b66ea316d21385b68909f,,,,,,,,,,,2360.3596,2361.2127,,,2361.5129,2361.8137,,123,123,,,,,,,,,,,,,,,,bars/006.png,bars/mask000.png,,,,,,,,,,,,0,2,,,,,,,0,0,0,0,,,,,,,,,,,2361.2128,2361.5128,2361.8138,2366.1564,space,4.0648,,2366.1564,88,23,2367.0234,2367.0234,2367.0356,,,,0,25,25,25,1,35,100,,,,,,,,
,,612e964f739d5a3c47126397,65af539e91bb652b9495ba62,2024-01-23_07h53.12.582,bars,2023.2.3,Win32,3.750150006,657b66ea316d21385b68909f,,,,,,,,,,,2367.036,2367.8966,,,2368.201,2368.5007,,149,149,,,,,,,,,,,,,,,,bars/018.png,bars/mask002.png,,,,,,,,,,,,0,1,,,,,,,0,0,0,0,,,,,,,,,,,2367.8968,2368.201,2368.5008,2370.8074,space,2.0295,,2370.8074,1,59,2371.6783,2371.6783,2371.6802,,,,0,26,26,26,1,150,90,,,,,,,,
,,612e964f739d5a3c47126397,65af539e91bb652b9495ba62,2024-01-23_07h53.12.582,bars,2023.2.3,Win32,3.750150006,657b66ea316d21385b68909f,,,,,,,,,,,2371.6806,2372.5419,,,2372.8423,2373.1473,,119,119,,,,,,,,,,,,,,,,bars/009.png,bars/mask006.png,,,,,,,,,,,,1,2,,,,,,,2,0,2,1,,,,,,,,,,,2372.5419,2372.8423,2373.1473,2374.01,space,0.5865,,2374.0101,76,14,2374.8714,2374.8714,2374.8735,,,,0,27,27,27,1,15,105,,,,,,,,
,,612e964f739d5a3c47126397,65af539e91bb652b9495ba62,2024-01-23_07h53.12.582,bars,2023.2.3,Win32,3.750150006,657b66ea316d21385b68909f,,,,,,,,,,,2374.8739,2375.735,,,2376.0349,2376.338,,170,170,,,,,,,,,,,,,,,,bars/016.png,bars/mask006.png,,,,,,,,,,,,2,2,,,,,,,0,2,2,2,,,,,,,,,,,2375.7351,2376.0348,2376.3381,2379.2239,space,2.6085,,2379.2239,50,5,2380.0879,2380.088,2380.0888,,,,0,28,28,28,1,40,165,,,,,,,,
,,612e964f739d5a3c47126397,65af539e91bb652b9495ba62,2024-01-23_07h53.12.582,bars,2023.2.3,Win32,3.750150006,657b66ea316d21385b68909f,,,,,,,,,,,2380.0891,2380.9517,,,2381.2518,2381.553,,122,122,,,,,,,,,,,,,,,,bars/039.png,bars/mask007.png,,,,,,,,,,,,0,2,,,,,,,2,0,1,0,,,,,,,,,,,2380.9517,2381.2518,2381.553,2383.5786,space,1.7483,0.0002,2383.5787,53,17,2384.4383,2384.4384,2384.4393,,,,0,29,29,29,1,175,105,,,,,,,,
,,612e964f739d5a3c47126397,65af539e91bb652b9495ba62,2024-01-23_07h53.12.582,bars,2023.2.3,Win32,3.750150006,657b66ea316d21385b68909f,,,,,,,,,,,2384.4396,2385.2967,,,2385.5972,2385.8981,,69,69,,,,,,,,,,,,,,,,bars/024.png,bars/mask006.png,,,,,,,,,,,,0,1,,,,,,,0,2,1,3,,,,,,,,,,,2385.2968,2385.5971,2385.8981,2394.8713,space,8.6923,,2394.8713,51,79,2395.7542,2395.7542,2395.7664,,,,0,30,30,30,1,120,170,,,,,,,,
,,612e964f739d5a3c47126397,65af539e91bb652b9495ba62,2024-01-23_07h53.12.582,bars,2023.2.3,Win32,3.750150006,657b66ea316d21385b68909f,,,,,,,,,,,2395.7672,2396.6253,,,2396.9338,2397.2367,,16,16,,,,,,,,,,,,,,,,bars/035.png,bars/mask000.png,,,,,,,,,,,,0,1,,,,,,,0,0,0,1,,,,,,,,,,,2396.6253,2396.9338,2397.2367,2403.6315,space,6.1157,0.0001,2403.6316,21,44,2404.4936,2404.4936,2404.4945,,,,0,31,31,31,1,175,60,,,,,,,,
,,612e964f739d5a3c47126397,65af539e91bb652b9495ba62,2024-01-23_07h53.12.582,bars,2023.2.3,Win32,3.750150006,657b66ea316d21385b68909f,,,,,,,,,,,2404.4948,2405.3539,,,2405.6544,2405.9556,,31,31,,,,,,,,,,,,,,,,bars/012.png,bars/mask005.png,,,,,,,,,,,,1,2,,,,,,,2,2,2,2,,,,,,,,,,,2405.3539,2405.6544,2405.9557,2414.0648,space,7.8319,,2414.0648,59,16,2414.9286,2414.9287,2414.9406,,,,0,32,32,32,1,90,15,,,,,,,,
,,612e964f739d5a3c47126397,65af539e91bb652b9495ba62,2024-01-23_07h53.12.582,bars,2023.2.3,Win32,3.750150006,657b66ea316d21385b68909f,,,,,,,,,,,2414.9408,2415.7943,,,2416.096,2416.3983,,81,81,,,,,,,,,,,,,,,,bars/004.png,bars/mask003.png,,,,,,,,,,,,0,2,,,,,,,4,4,4,6,,,,,,,,,,,2415.7944,2416.096,2416.3983,2418.7158,space,2.0378,0.0004,2418.7158,56,44,2419.5791,2419.5792,2419.58,,,,0,33,33,33,1,25,125,,,,,,,,
,,612e964f739d5a3c47126397,65af539e91bb652b9495ba62,2024-01-23_07h53.12.582,bars,2023.2.3,Win32,3.750150006,657b66ea316d21385b68909f,,,,,,,,,,,2419.5804,2420.4413,,,2420.7413,2421.0439,,135,135,,,,,,,,,,,,,,,,bars/025.png,bars/mask006.png,,,,,,,,,,,,0,1,,,,,,,6,2,7,2,,,,,,,,,,,2420.4414,2420.7413,2421.0439,2427.1245,space,5.8022,0.0004,2427.1245,30,85,2427.9874,2427.9874,2427.99,,,,0,34,34,34,1,105,40,,,,,,,,
,,612e964f739d5a3c47126397,65af539e91bb652b9495ba62,2024-01-23_07h53.12.582,bars,2023.2.3,Win32,3.750150006,657b66ea316d21385b68909f,,,,,,,,,,,2427.9904,2428.8498,,,2429.1512,2429.4551,,94,94,,,,,,,,,,,,,,,,bars/035.png,bars/mask002.png,,,,,,,,,,,,0,2,,,,,,,4,4,4,4,,,,,,,,,,,2428.8498,2429.1511,2429.4551,2431.1944,space,1.46,0.0004,2431.1944,81,34,2432.065,2432.0651,2432.0669,,,,0,35,35,35,1,175,60,,,,,,,,
,,612e964f739d5a3c47126397,65af539e91bb652b9495ba62,2024-01-23_07h53.12.582,bars,2023.2.3,Win32,3.750150006,657b66ea316d21385b68909f,,,,,,,,,,,2432.0673,2432.9308,,,2433.2313,2433.5307,,131,131,,,,,,,,,,,,,,,,bars/012.png,bars/mask009.png,,,,,,,,,,,,0,1,,,,,,,2,6,3,5,,,,,,,,,,,2432.9309,2433.2312,2433.5308,2437.5826,space,3.7739,,2437.5826,41,64,2438.4547,2438.4548,2438.4568,,,,0,36,36,36,1,90,15,,,,,,,,
,,612e964f739d5a3c47126397,65af539e91bb652b9495ba62,2024-01-23_07h53.12.582,bars,2023.2.3,Win32,3.750150006,657b66ea316d21385b68909f,,,,,,,,,,,2438.4572,2439.3187,,,2439.6195,2439.9189,,143,143,,,,,,,,,,,,,,,,bars/026.png,bars/mask000.png,,,,,,,,,,,,0,2,,,,,,,4,8,4,7,,,,,,,,,,,2439.3188,2439.6194,2439.9191,2447.6113,space,7.4145,,2447.6114,72,58,2448.4807,2448.4807,2448.4928,,,,0,37,37,37,1,35,85,,,,,,,,
,,612e964f739d5a3c47126397,65af539e91bb652b9495ba62,2024-01-23_07h53.12.582,bars,2023.2.3,Win32,3.750150006,657b66ea316d21385b68909f,,,,,,,,,,,2448.4931,2449.3547,,,2449.6548,2449.9566,,67,67,,,,,,,,,,,,,,,,bars/033.png,bars/mask006.png,,,,,,,,,,,,0,1,,,,,,,6,10,7,10,,,,,,,,,,,2449.3548,2449.6548,2449.9567,2452.6105,space,2.3748,0.0004,2452.6105,42,88,2453.4822,2453.4822,2453.484,,,,0,38,38,38,1,25,155,,,,,,,,
,,612e964f739d5a3c47126397,65af539e91bb652b9495ba62,2024-01-23_07h53.12.582,bars,2023.2.3,Win32,3.750150006,657b66ea316d21385b68909f,,,,,,,,,,,2453.4844,2454.3594,,,2454.6738,2454.989,,60,60,,,,,,,,,,,,,,,,bars/015.png,bars/mask005.png,,,,,,,,,,,,0,1,,,,,,,8,8,8,8,,,,,,,,,,,2454.3595,2454.6738,2454.9891,2455.5664,space,0.2995,0.0004,2455.5664,50,80,2456.4412,2456.4413,2456.4421,,,,0,39,39,39,1,110,160,,,,,,,,
,,612e964f739d5a3c47126397,65af539e91bb652b9495ba62,2024-01-23_07h53.12.582,bars,2023.2.3,Win32,3.750150006,657b66ea316d21385b68909f,,,,,,,,,,,2456.4432,2457.3026,,,2457.6057,2457.9071,,13,13,,,,,,,,,,,,,,,,bars/023.png,bars/mask006.png,,,,,,,,,,,,8,1,,,,,,,10,6,10,5,,,,,,,,,,,2457.3027,2457.6057,2457.9071,2459.6646,space,1.4708,,2459.6646,7,78,2460.5271,2460.5271,2460.5382,,,,0,40,40,40,1,20,115,,,,,,,,
,,612e964f739d5a3c47126397,65af539e91bb652b9495ba62,2024-01-23_07h53.12.582,bars,2023.2.3,Win32,3.750150006,657b66ea316d21385b68909f,,,,,,,,,,,2460.5384,2461.405,,,2461.7167,2462.0195,,81,81,,,,,,,,,,,,,,,,bars/005.png,bars/mask003.png,,,,,,,,,,,,0,2,,,,,,,8,8,7,7,,,,,,,,,,,2461.4051,2461.7166,2462.0195,2466.3652,space,4.061,,2466.3652,71,59,2467.2279,2467.228,2467.2397,,,,0,41,41,41,1,10,140,,,,,,,,
,,612e964f739d5a3c47126397,65af539e91bb652b9495ba62,2024-01-23_07h53.12.582,bars,2023.2.3,Win32,3.750150006,657b66ea316d21385b68909f,,,,,,,,,,,2467.2399,2468.0943,,,2468.3985,2468.7014,,91,91,,,,,,,,,,,,,,,,bars/016.png,bars/mask002.png,,,,,,,,,,,,0,1,,,,,,,10,10,10,10,,,,,,,,,,,2468.0943,2468.3984,2468.7014,2471.0212,space,2.0415,,2471.0212,51,74,2471.8819,2471.8821,2471.8943,,,,0,42,42,42,1,40,165,,,,,,,,
,,612e964f739d5a3c47126397,65af539e91bb652b9495ba62,2024-01-23_07h53.12.582,bars,2023.2.3,Win32,3.750150006,657b66ea316d21385b68909f,,,,,,,,,,,2471.8945,2472.7508,,,2473.0508,2473.3615,,145,145,,,,,,,,,,,,,,,,bars/008.png,bars/mask005.png,,,,,,,,,,,,0,2,,,,,,,10,10,9,10,,,,,,,,,,,2472.7509,2473.0507,2473.3615,2477.7634,space,4.1284,,2477.7634,35,35,2478.6267,2478.6268,2478.64,,,,0,43,43,43,1,110,0,,,,,,,,
,,612e964f739d5a3c47126397,65af539e91bb652b9495ba62,2024-01-23_07h53.12.582,bars,2023.2.3,Win32,3.750150006,657b66ea316d21385b68909f,,,,,,,,,,,2478.6403,2479.4952,,,2479.7965,2480.0975,,151,151,,,,,,,,,,,,,,,,bars/035.png,bars/mask000.png,,,,,,,,,,,,2,1,,,,,,,10,10,10,10,,,,,,,,,,,2479.4952,2479.7964,2480.0975,2485.0248,space,4.6483,0.0004,2485.0248,24,89,2485.8861,2485.8861,2485.8984,,,,0,44,44,44,1,175,60,,,,,,,,
,,612e964f739d5a3c47126397,65af539e91bb652b9495ba62,2024-01-23_07h53.12.582,bars,2023.2.3,Win32,3.750150006,657b66ea316d21385b68909f,,,,,,,,,,,2485.8988,2486.7556,,,2487.0572,2487.3584,,166,-14,,,,,,,,,,,,,,,,bars/048.png,bars/mask006.png,,,,,,,,,,,,4,2,,,,,,,10,8,10,6,,,,,,,,,,,2486.7557,2487.0571,2487.3584,2494.326,space,6.6903,,2494.3261,64,9,2495.1895,2495.1895,2495.2015,,,,0,45,45,45,1,50,175,,,,,,,,
,,612e964f739d5a3c47126397,65af539e91bb652b9495ba62,2024-01-23_07h53.12.582,bars,2023.2.3,Win32,3.750150006,657b66ea316d21385b68909f,,,,,,,,,,,2495.2018,2496.0546,,,2496.3589,2496.6589,,161,-19,,,,,,,,,,,,,,,,bars/000.png,bars/mask001.png,,,,,,,,,,,,3,2,,,,,,,8,6,6,6,,,,,,,,,,,2496.0547,2496.3589,2496.659,2503.0709,space,6.1341,0,2503.0709,59,16,2503.942,2503.942,2503.9535,,,,0,46,46,46,1,40,145,,,,,,,,
,,612e964f739d5a3c47126397,65af539e91bb652b9495ba62,2024-01-23_07h53.12.582,bars,2023.2.3,Win32,3.750150006,657b66ea316d21385b68909f,,,,,,,,,,,2503.9537,2504.8106,,,2505.1114,2505.4145,,9,9,,,,,,,,,,,,,,,,bars/005.png,bars/mask002.png,,,,,,,,,,,,10,1,,,,,,,10,4,10,4,,,,,,,,,,,2504.8106,2505.1114,2505.4145,2510.2668,space,4.5746,0.0003,2510.2668,1,49,2511.16,2511.1601,2511.162,,,,0,47,47,47,1,10,140,,,,,,,,
,,612e964f739d5a3c47126397,65af539e91bb652b9495ba62,2024-01-23_07h53.12.582,bars,2023.2.3,Win32,3.750150006,657b66ea316d21385b68909f,,,,,,,,,,,2511.1623,2512.0885,,,2512.3979,2512.726,,14,14,,,,,,,,,,,,,,,,bars/003.png,bars/mask006.png,,,,,,,,,,,,4,1,,,,,,,8,2,7,2,,,,,,,,,,,2512.0885,2512.3979,2512.7261,2515.2223,space,2.2255,0.0001,2515.2223,11,54,2516.1252,2516.1252,2516.1356,,,,0,48,48,48,1,25,140,,,,,,,,
,,612e964f739d5a3c47126397,65af539e91bb652b9495ba62,2024-01-23_07h53.12.582,bars,2023.2.3,Win32,3.750150006,657b66ea316d21385b68909f,,,,,,,,,,,2516.1358,2517.0957,,,2517.4822,2517.4828,,174,174,,,,,,,,,,,,,,,,bars/024.png,bars/mask002.png,,,,,,,,,,,,0,2,,,,,,,10,0,10,0,,,,,,,,,,,2517.0958,2517.4822,2517.4828,2520.0796,space,2.3239,0.0002,2520.0796,54,4,2521.0515,2521.0515,2521.0631,,,,0,49,49,49,1,120,170,,,,,,,,
,,612e964f739d5a3c47126397,65af539e91bb652b9495ba62,2024-01-23_07h53.12.582,bars,2023.2.3,Win32,3.750150006,657b66ea316d21385b68909f,,,,,,,,,,,,,,,,,,,,,,,,,,,,,,,,,,,,,,,,,,,,,,,,,,,,,,,,,,,,,,,,,,,,,,,,,,,,,,,,,,,,,,,,,,,,,2521.0632,2580.9912,0,2,2,1,1,sequence_tables/blk002.csv
,,612e964f739d5a3c47126397,65af539e91bb652b9495ba62,2024-01-23_07h53.12.582,bars,2023.2.3,Win32,3.750150006,657b66ea316d21385b68909f,,,,,,,,,,,2616.8558,2617.7088,,,2618.0151,2618.3234,,144,144,,,,,,,,,,,,,,,,bars/032.png,bars/mask004.png,,,,,,,,,,,,3,1,,,,,,,9,8,9,9,,,,,,2581.0028,2616.8413,space,35.5641,,2617.7089,2618.0149,2618.3235,2620.6198,space,2.0189,,2620.6198,19,56,2621.4831,2621.4831,2621.495,,,,0,0,0,0,1,125,20,,,,,,,,
,,612e964f739d5a3c47126397,65af539e91bb652b9495ba62,2024-01-23_07h53.12.582,bars,2023.2.3,Win32,3.750150006,657b66ea316d21385b68909f,,,,,,,,,,,2621.4953,2622.3492,,,2622.6503,2622.9536,,43,43,,,,,,,,,,,,,,,,bars/049.png,bars/mask000.png,,,,,,,,,,,,0,1,,,,,,,7,10,7,10,,,,,,,,,,,2622.3493,2622.6503,2622.9536,2623.244,space,0.0129,0.0003,2623.2441,63,72,2624.1089,2624.1089,2624.1097,,,,0,1,1,1,1,160,115,,,,,,,,
,,612e964f739d5a3c47126397,65af539e91bb652b9495ba62,2024-01-23_07h53.12.582,bars,2023.2.3,Win32,3.750150006,657b66ea316d21385b68909f,,,,,,,,,,,2624.11,2624.9722,,,2625.2748,2625.5744,,100,100,,,,,,,,,,,,,,,,bars/020.png,bars/mask006.png,,,,,,,,,,,,5,1,,,,,,,9,10,9,10,,,,,,,,,,,2624.9723,2625.2747,2625.5745,2625.8612,space,0.0104,,2625.8612,15,70,2626.7257,2626.7257,2626.7263,,,,0,2,2,2,1,115,170,,,,,,,,
,,612e964f739d5a3c47126397,65af539e91bb652b9495ba62,2024-01-23_07h53.12.582,bars,2023.2.3,Win32,3.750150006,657b66ea316d21385b68909f,,,,,,,,,,,2626.7267,2627.5897,,,2627.8903,2628.1931,,83,83,,,,,,,,,,,,,,,,bars/009.png,bars/mask006.png,,,,,,,,,,,,2,2,,,,,,,7,8,8,6,,,,,,,,,,,2627.5897,2627.8902,2628.1932,2628.482,space,0.0109,0.0004,2628.482,68,22,2629.3415,2629.3415,2629.3435,,,,0,3,3,3,1,15,105,,,,,,,,
,,612e964f739d5a3c47126397,65af539e91bb652b9495ba62,2024-01-23_07h53.12.582,bars,2023.2.3,Win32,3.750150006,657b66ea316d21385b68909f,,,,,,,,,,,2629.3439,2630.202,,,2630.5052,2630.8055,,26,26,,,,,,,,,,,,,,,,bars/047.png,bars/mask003.png,,,,,,,,,,,,4,1,,,,,,,5,10,6,10,,,,,,,,,,,2630.202,2630.5051,2630.8056,2631.0938,space,0.0104,,2631.0938,11,44,2631.9572,2631.9572,2631.9592,,,,0,4,4,4,1,15,70,,,,,,,,
,,612e964f739d5a3c47126397,65af539e91bb652b9495ba62,2024-01-23_07h53.12.582,bars,2023.2.3,Win32,3.750150006,657b66ea316d21385b68909f,,,,,,,,,,,2631.9594,2632.818,,,2633.1188,2633.4198,,77,77,,,,,,,,,,,,,,,,bars/020.png,bars/mask006.png,,,,,,,,,,,,0,1,,,,,,,7,8,7,8,,,,,,,,,,,2632.8181,2633.1187,2633.4198,2634.2822,space,0.5845,0.0004,2634.2822,38,87,2635.1439,2635.144,2635.1448,,,,0,5,5,5,1,115,170,,,,,,,,
,,612e964f739d5a3c47126397,65af539e91bb652b9495ba62,2024-01-23_07h53.12.582,bars,2023.2.3,Win32,3.750150006,657b66ea316d21385b68909f,,,,,,,,,,,2635.145,2636.0035,,,2636.305,2636.6053,,166,166,,,,,,,,,,,,,,,,bars/006.png,bars/mask007.png,,,,,,,,,,,,0,1,,,,,,,9,6,9,5,,,,,,,,,,,2636.0035,2636.305,2636.6053,2636.8944,space,0.01,0.0004,2636.8944,49,66,2637.7573,2637.7573,2637.758,,,,0,6,6,6,1,35,100,,,,,,,,
,,612e964f739d5a3c47126397,65af539e91bb652b9495ba62,2024-01-23_07h53.12.582,bars,2023.2.3,Win32,3.750150006,657b66ea316d21385b68909f,,,,,,,,,,,2637.7585,2638.62,,,2638.9223,2639.2203,,35,35,,,,,,,,,,,,,,,,bars/031.png,bars/mask007.png,,,,,,,,,,,,2,2,,,,,,,7,4,7,2,,,,,,,,,,,2638.6201,2638.9222,2639.2204,2639.5099,space,0.0103,0.0004,2639.5099,85,0,2640.3713,2640.3713,2640.3732,,,,0,7,7,7,1,120,35,,,,,,,,
,,612e964f739d5a3c47126397,65af539e91bb652b9495ba62,2024-01-23_07h53.12.582,bars,2023.2.3,Win32,3.750150006,657b66ea316d21385b68909f,,,,,,,,,,,2640.3736,2641.2311,,,2641.5332,2641.8342,,78,78,,,,,,,,,,,,,,,,bars/047.png,bars/mask000.png,,,,,,,,,,,,2,2,,,,,,,5,2,6,3,,,,,,,,,,,2641.2311,2641.5332,2641.8343,2642.1233,space,0.0109,0.0004,2642.1233,63,8,2642.983,2642.983,2642.9837,,,,0,8,8,8,1,15,70,,,,,,,,
,,612e964f739d5a3c47126397,65af539e91bb652b9495ba62,2024-01-23_07h53.12.582,bars,2023.2.3,Win32,3.750150006,657b66ea316d21385b68909f,,,,,,,,,,,2642.9841,2643.8426,,,2644.1453,2644.445,,174,174,,,,,,,,,,,,,,,,bars/039.png,bars/mask002.png,,,,,,,,,,,,8,1,,,,,,,7,4,8,4,,,,,,,,,,,2643.8428,2644.1453,2644.445,2644.7335,space,0.0105,,2644.7336,1,69,2645.5946,2645.5947,2645.5967,,,,0,9,9,9,1,175,105,,,,,,,,
,,612e964f739d5a3c47126397,65af539e91bb652b9495ba62,2024-01-23_07h53.12.582,bars,2023.2.3,Win32,3.750150006,657b66ea316d21385b68909f,,,,,,,,,,,2645.597,2646.4541,,,2646.754,2647.0544,,167,167,,,,,,,,,,,,,,,,bars/046.png,bars/mask004.png,,,,,,,,,,,,6,1,,,,,,,9,2,10,2,,,,,,,,,,,2646.4541,2646.7539,2647.0544,2647.3438,space,0.01,0.001,2647.3438,12,82,2648.2076,2648.2076,2648.2084,,,,0,10,10,10,1,155,85,,,,,,,,
,,612e964f739d5a3c47126397,65af539e91bb652b9495ba62,2024-01-23_07h53.12.582,bars,2023.2.3,Win32,3.750150006,657b66ea316d21385b68909f,,,,,,,,,,,2648.2087,2649.0683,,,2649.3689,2649.6691,,71,71,,,,,,,,,,,,,,,,bars/003.png,bars/mask009.png,,,,,,,,,,,,0,1,,,,,,,7,0,7,0,,,,,,,,,,,2649.0684,2649.3689,2649.6691,2650.244,space,0.2969,,2650.244,46,69,2651.1068,2651.1068,2651.1076,,,,0,11,11,11,1,25,140,,,,,,,,
,,612e964f739d5a3c47126397,65af539e91bb652b9495ba62,2024-01-23_07h53.12.582,bars,2023.2.3,Win32,3.750150006,657b66ea316d21385b68909f,,,,,,,,,,,2651.108,2651.9653,,,2652.2654,2652.5661,,160,160,,,,,,,,,,,,,,,,bars/022.png,bars/mask008.png,,,,,,,,,,,,0,2,,,,,,,9,0,9,0,,,,,,,,,,,2651.9654,2652.2652,2652.5661,2652.855,space,0.0115,0.0004,2652.855,65,40,2653.7175,2653.7177,2653.7197,,,,0,12,12,12,1,95,20,,,,,,,,
,,612e964f739d5a3c47126397,65af539e91bb652b9495ba62,2024-01-23_07h53.12.582,bars,2023.2.3,Win32,3.750150006,657b66ea316d21385b68909f,,,,,,,,,,,2653.7201,2654.5794,,,2654.8808,2655.1828,,5,5,,,,,,,,,,,,,,,,bars/037.png,bars/mask002.png,,,,,,,,,,,,0,1,,,,,,,10,0,10,2,,,,,,,,,,,2654.5794,2654.8808,2655.1828,2655.4711,space,0.0112,0.0006,2655.4712,35,80,2656.3367,2656.3367,2656.3386,,,,0,13,13,13,1,150,105,,,,,,,,
,,612e964f739d5a3c47126397,65af539e91bb652b9495ba62,2024-01-23_07h53.12.582,bars,2023.2.3,Win32,3.750150006,657b66ea316d21385b68909f,,,,,,,,,,,2656.339,2657.1964,,,2657.4959,2657.7947,,16,16,,,,,,,,,,,,,,,,bars/028.png,bars/mask005.png,,,,,,,,,,,,0,1,,,,,,,10,2,8,0,,,,,,,,,,,2657.1964,2657.4959,2657.7948,2659.2556,space,1.183,,2659.2556,29,76,2660.1168,2660.1169,2660.1184,,,,0,14,14,14,1,45,120,,,,,,,,
,,612e964f739d5a3c47126397,65af539e91bb652b9495ba62,2024-01-23_07h53.12.582,bars,2023.2.3,Win32,3.750150006,657b66ea316d21385b68909f,,,,,,,,,,,2660.1188,2660.976,,,2661.2775,2661.5771,,134,134,,,,,,,,,,,,,,,,bars/018.png,bars/mask004.png,,,,,,,,,,,,4,1,,,,,,,8,4,8,4,,,,,,,,,,,2660.976,2661.2775,2661.5772,2662.4394,space,0.5857,,2662.4395,16,44,2663.2993,2663.2994,2663.3004,,,,0,15,15,15,1,150,90,,,,,,,,
,,612e964f739d5a3c47126397,65af539e91bb652b9495ba62,2024-01-23_07h53.12.582,bars,2023.2.3,Win32,3.750150006,657b66ea316d21385b68909f,,,,,,,,,,,2663.3008,2664.1583,,,2664.4581,2664.7563,,166,166,,,,,,,,,,,,,,,,bars/039.png,bars/mask002.png,,,,,,,,,,,,7,1,,,,,,,10,2,10,2,,,,,,,,,,,2664.1583,2664.458,2664.7564,2665.3319,space,0.2976,,2665.332,9,61,2666.1929,2666.1929,2666.1938,,,,0,16,16,16,1,175,105,,,,,,,,
,,612e964f739d5a3c47126397,65af539e91bb652b9495ba62,2024-01-23_07h53.12.582,bars,2023.2.3,Win32,3.750150006,657b66ea316d21385b68909f,,,,,,,,,,,2666.1941,2667.0531,,,2667.3528,2667.6529,,52,52,,,,,,,,,,,,,,,,bars/021.png,bars/mask003.png,,,,,,,,,,,,0,2,,,,,,,8,0,8,1,,,,,,,,,,,2667.0532,2667.3527,2667.653,2668.5164,space,0.5873,,2668.5164,77,18,2669.3797,2669.3797,2669.3816,,,,0,17,17,17,1,155,70,,,,,,,,
,,612e964f739d5a3c47126397,65af539e91bb652b9495ba62,2024-01-23_07h53.12.582,bars,2023.2.3,Win32,3.750150006,657b66ea316d21385b68909f,,,,,,,,,,,2669.382,2670.2381,,,2670.5385,2670.8393,,133,133,,,,,,,,,,,,,,,,bars/002.png,bars/mask002.png,,,,,,,,,,,,5,1,,,,,,,6,0,5,0,,,,,,,,,,,2670.2381,2670.5385,2670.8394,2671.4145,space,0.2977,,2671.4146,3,48,2672.2805,2672.2805,2672.2835,,,,0,18,18,18,1,130,85,,,,,,,,
,,612e964f739d5a3c47126397,65af539e91bb652b9495ba62,2024-01-23_07h53.12.582,bars,2023.2.3,Win32,3.750150006,657b66ea316d21385b68909f,,,,,,,,,,,2672.2839,2673.1406,,,2673.4402,2673.74,,144,144,,,,,,,,,,,,,,,,bars/000.png,bars/mask000.png,,,,,,,,,,,,0,2,,,,,,,8,0,9,0,,,,,,,,,,,2673.1406,2673.4401,2673.7402,2674.0291,space,0.0105,,2674.0291,76,1,2674.8877,2674.8878,2674.8902,,,,0,19,19,19,1,40,145,,,,,,,,
,,612e964f739d5a3c47126397,65af539e91bb652b9495ba62,2024-01-23_07h53.12.582,bars,2023.2.3,Win32,3.750150006,657b66ea316d21385b68909f,,,,,,,,,,,2674.8906,2675.751,,,2676.0513,2676.352,,16,16,,,,,,,,,,,,,,,,bars/008.png,bars/mask002.png,,,,,,,,,,,,0,2,,,,,,,6,2,5,1,,,,,,,,,,,2675.7511,2676.0512,2676.352,2680.0988,space,3.4706,0.0003,2680.0989,86,16,2680.9555,2680.9556,2680.9667,,,,0,20,20,20,1,110,0,,,,,,,,
,,612e964f739d5a3c47126397,65af539e91bb652b9495ba62,2024-01-23_07h53.12.582,bars,2023.2.3,Win32,3.750150006,657b66ea316d21385b68909f,,,,,,,,,,,2680.967,2681.8171,,,2682.1176,2682.4169,,8,8,,,,,,,,,,,,,,,,bars/028.png,bars/mask001.png,,,,,,,,,,,,0,1,,,,,,,4,0,4,0,,,,,,,,,,,2681.8172,2682.1175,2682.417,2683.8548,space,1.1607,,2683.8549,37,68,2684.7143,2684.7143,2684.7168,,,,0,21,21,21,1,45,120,,,,,,,,
,,612e964f739d5a3c47126397,65af539e91bb652b9495ba62,2024-01-23_07h53.12.582,bars,2023.2.3,Win32,3.750150006,657b66ea316d21385b68909f,,,,,,,,,,,2684.7173,2685.5746,,,2685.8759,2686.183,,135,135,,,,,,,,,,,,,,,,bars/029.png,bars/mask000.png,,,,,,,,,,,,0,1,,,,,,,6,0,5,0,,,,,,,,,,,2685.5746,2685.8759,2686.1831,2686.7617,space,0.301,,2686.7617,45,90,2687.6282,2687.6282,2687.6292,,,,0,22,22,22,1,90,45,,,,,,,,
,,612e964f739d5a3c47126397,65af539e91bb652b9495ba62,2024-01-23_07h53.12.582,bars,2023.2.3,Win32,3.750150006,657b66ea316d21385b68909f,,,,,,,,,,,2687.6295,2688.4913,,,2688.7923,2689.0932,,35,35,,,,,,,,,,,,,,,,bars/040.png,bars/mask009.png,,,,,,,,,,,,0,2,,,,,,,4,0,4,0,,,,,,,,,,,2688.4914,2688.7923,2689.0932,2689.6703,space,0.2975,,2689.6703,75,30,2690.5349,2690.535,2690.5368,,,,0,23,23,23,1,140,5,,,,,,,,
,,612e964f739d5a3c47126397,65af539e91bb652b9495ba62,2024-01-23_07h53.12.582,bars,2023.2.3,Win32,3.750150006,657b66ea316d21385b68909f,,,,,,,,,,,2690.5372,2691.4015,,,2691.7052,2692.0061,,31,31,,,,,,,,,,,,,,,,bars/038.png,bars/mask008.png,,,,,,,,,,,,0,2,,,,,,,6,0,5,0,,,,,,,,,,,2691.4015,2691.7051,2692.0061,2692.2926,space,0.0104,,2692.2926,46,39,2693.1539,2693.154,2693.1546,,,,0,24,24,24,1,165,70,,,,,,,,
,,612e964f739d5a3c47126397,65af539e91bb652b9495ba62,2024-01-23_07h53.12.582,bars,2023.2.3,Win32,3.750150006,657b66ea316d21385b68909f,,,,,,,,,,,2693.155,2694.0123,,,2694.3136,2694.6134,,166,166,,,,,,,,,,,,,,,,bars/038.png,bars/mask000.png,,,,,,,,,,,,7,1,,,,,,,8,2,7,2,,,,,,,,,,,2694.0124,2694.3135,2694.6135,2695.1886,space,0.2992,0.0004,2695.1887,1,84,2696.0471,2696.0472,2696.0498,,,,0,25,25,25,1,165,70,,,,,,,,
,,612e964f739d5a3c47126397,65af539e91bb652b9495ba62,2024-01-23_07h53.12.582,bars,2023.2.3,Win32,3.750150006,657b66ea316d21385b68909f,,,,,,,,,,,2696.0501,2696.9057,,,2697.2062,2697.5056,,90,90,,,,,,,,,,,,,,,,bars/028.png,bars/mask008.png,,,,,,,,,,,,0,2,,,,,,,10,4,10,4,,,,,,,,,,,2696.9058,2697.206,2697.5056,2703.818,space,6.0355,,2703.818,45,30,2704.6772,2704.6772,2704.689,,,,0,26,26,26,1,45,120,,,,,,,,
,,612e964f739d5a3c47126397,65af539e91bb652b9495ba62,2024-01-23_07h53.12.582,bars,2023.2.3,Win32,3.750150006,657b66ea316d21385b68909f,,,,,,,,,,,2704.6892,2705.5452,,,2705.8436,2706.1452,,85,85,,,,,,,,,,,,,,,,bars/021.png,bars/mask003.png,,,,,,,,,,,,4,2,,,,,,,10,6,9,8,,,,,,,,,,,2705.5452,2705.8435,2706.1452,2707.2942,space,0.8729,0.0007,2707.2942,70,15,2708.1568,2708.1569,2708.1582,,,,0,27,27,27,1,155,70,,,,,,,,
,,612e964f739d5a3c47126397,65af539e91bb652b9495ba62,2024-01-23_07h53.12.582,bars,2023.2.3,Win32,3.750150006,657b66ea316d21385b68909f,,,,,,,,,,,2708.1587,2709.0263,,,2709.328,2709.6276,,13,13,,,,,,,,,,,,,,,,bars/041.png,bars/mask009.png,,,,,,,,,,,,5,1,,,,,,,8,4,6,5,,,,,,,,,,,2709.0263,2709.328,2709.6276,2709.9161,space,0.0115,,2709.9161,7,72,2710.7754,2710.7755,2710.7774,,,,0,28,28,28,1,20,85,,,,,,,,
,,612e964f739d5a3c47126397,65af539e91bb652b9495ba62,2024-01-23_07h53.12.582,bars,2023.2.3,Win32,3.750150006,657b66ea316d21385b68909f,,,,,,,,,,,2710.7778,2711.6345,,,2711.936,2712.2346,,168,168,,,,,,,,,,,,,,,,bars/045.png,bars/mask005.png,,,,,,,,,,,,1,2,,,,,,,10,2,10,2,,,,,,,,,,,2711.6347,2711.936,2712.2347,2712.5228,space,0.0103,0.0004,2712.5229,68,22,2713.3837,2713.3837,2713.3863,,,,0,29,29,29,1,100,10,,,,,,,,
,,612e964f739d5a3c47126397,65af539e91bb652b9495ba62,2024-01-23_07h53.12.582,bars,2023.2.3,Win32,3.750150006,657b66ea316d21385b68909f,,,,,,,,,,,2713.3867,2714.2465,,,2714.548,2714.8475,,117,117,,,,,,,,,,,,,,,,bars/031.png,bars/mask008.png,,,,,,,,,,,,9,1,,,,,,,10,0,10,0,,,,,,,,,,,2714.2466,2714.5479,2714.8475,2715.422,space,0.2967,,2715.4221,3,82,2716.2832,2716.2832,2716.2852,,,,0,30,30,30,1,120,35,,,,,,,,
,,612e964f739d5a3c47126397,65af539e91bb652b9495ba62,2024-01-23_07h53.12.582,bars,2023.2.3,Win32,3.750150006,657b66ea316d21385b68909f,,,,,,,,,,,2716.2857,2717.1488,,,2717.4517,2717.7558,,153,153,,,,,,,,,,,,,,,,bars/029.png,bars/mask009.png,,,,,,,,,,,,0,1,,,,,,,8,0,7,0,,,,,,,,,,,2717.1488,2717.4517,2717.756,2718.0437,space,0.011,,2718.0437,63,72,2718.9085,2718.9086,2718.9099,,,,0,31,31,31,1,90,45,,,,,,,,
,,612e964f739d5a3c47126397,65af539e91bb652b9495ba62,2024-01-23_07h53.12.582,bars,2023.2.3,Win32,3.750150006,657b66ea316d21385b68909f,,,,,,,,,,,2718.9103,2719.7693,,,2720.0703,2720.3692,,0,0,,,,,,,,,,,,,,,,bars/039.png,bars/mask007.png,,,,,,,,,,,,5,1,,,,,,,6,2,6,4,,,,,,,,,,,2719.7694,2720.0703,2720.3693,2720.6578,space,0.0104,0.0005,2720.6579,5,75,2721.5185,2721.5186,2721.5199,,,,0,32,32,32,1,175,105,,,,,,,,
,,612e964f739d5a3c47126397,65af539e91bb652b9495ba62,2024-01-23_07h53.12.582,bars,2023.2.3,Win32,3.750150006,657b66ea316d21385b68909f,,,,,,,,,,,2721.5203,2722.3799,,,2722.678,2722.98,,46,46,,,,,,,,,,,,,,,,bars/040.png,bars/mask005.png,,,,,,,,,,,,0,2,,,,,,,4,4,5,5,,,,,,,,,,,2722.3799,2722.678,2722.98,2724.1298,space,0.873,0.0004,2724.1298,86,41,2724.9885,2724.9885,2724.9912,,,,0,33,33,33,1,140,5,,,,,,,,
,,612e964f739d5a3c47126397,65af539e91bb652b9495ba62,2024-01-23_07h53.12.582,bars,2023.2.3,Win32,3.750150006,657b66ea316d21385b68909f,,,,,,,,,,,2724.9915,2725.8472,,,2726.1499,2726.4506,,131,131,,,,,,,,,,,,,,,,bars/006.png,bars/mask005.png,,,,,,,,,,,,0,2,,,,,,,6,2,7,3,,,,,,,,,,,2725.8472,2726.1498,2726.4507,2726.7375,space,0.0103,,2726.7376,84,31,2727.5967,2727.5967,2727.5975,,,,0,34,34,34,1,35,100,,,,,,,,
,,612e964f739d5a3c47126397,65af539e91bb652b9495ba62,2024-01-23_07h53.12.582,bars,2023.2.3,Win32,3.750150006,657b66ea316d21385b68909f,,,,,,,,,,,2727.5978,2728.4571,,,2728.7568,2729.0576,,84,84,,,,,,,,,,,,,,,,bars/028.png,bars/mask008.png,,,,,,,,,,,,0,2,,,,,,,4,0,3,0,,,,,,,,,,,2728.4571,2728.7567,2729.0577,2729.9219,space,0.5858,0.0006,2729.9219,39,36,2730.7785,2730.7786,2730.7794,,,,0,35,35,35,1,45,120,,,,,,,,
,,612e964f739d5a3c47126397,65af539e91bb652b9495ba62,2024-01-23_07h53.12.582,bars,2023.2.3,Win32,3.750150006,657b66ea316d21385b68909f,,,,,,,,,,,2730.7798,2731.6403,,,2731.9413,2732.241,,143,143,,,,,,,,,,,,,,,,bars/004.png,bars/mask000.png,,,,,,,,,,,,0,2,,,,,,,6,0,6,1,,,,,,,,,,,2731.6403,2731.9412,2732.241,2732.529,space,0.0104,0.0003,2732.529,62,18,2733.3886,2733.3886,2733.3894,,,,0,36,36,36,1,25,125,,,,,,,,
,,612e964f739d5a3c47126397,65af539e91bb652b9495ba62,2024-01-23_07h53.12.582,bars,2023.2.3,Win32,3.750150006,657b66ea316d21385b68909f,,,,,,,,,,,2733.3897,2734.2484,,,2734.549,2734.8486,,162,162,,,,,,,,,,,,,,,,bars/015.png,bars/mask001.png,,,,,,,,,,,,4,2,,,,,,,4,2,3,4,,,,,,,,,,,2734.2485,2734.5489,2734.8486,2735.424,space,0.2973,0.0008,2735.424,52,2,2736.2874,2736.2875,2736.2881,,,,0,37,37,37,1,110,160,,,,,,,,
,,612e964f739d5a3c47126397,65af539e91bb652b9495ba62,2024-01-23_07h53.12.582,bars,2023.2.3,Win32,3.750150006,657b66ea316d21385b68909f,,,,,,,,,,,2736.2885,2737.1491,,,2737.4489,2737.7538,,76,76,,,,,,,,,,,,,,,,bars/030.png,bars/mask008.png,,,,,,,,,,,,3,2,,,,,,,2,4,2,4,,,,,,,,,,,2737.1491,2737.4488,2737.7538,2738.0448,space,0.0117,0.0002,2738.0448,64,11,2738.9124,2738.9125,2738.9139,,,,0,38,38,38,1,140,65,,,,,,,,
,,612e964f739d5a3c47126397,65af539e91bb652b9495ba62,2024-01-23_07h53.12.582,bars,2023.2.3,Win32,3.750150006,657b66ea316d21385b68909f,,,,,,,,,,,2738.9143,2739.7727,,,2740.0732,2740.3726,,31,31,,,,,,,,,,,,,,,,bars/023.png,bars/mask004.png,,,,,,,,,,,,0,1,,,,,,,0,2,0,2,,,,,,,,,,,2739.7727,2740.0732,2740.3727,2740.66,space,0.0109,,2740.6601,11,84,2741.5202,2741.5204,2741.5223,,,,0,39,39,39,1,20,115,,,,,,,,
,,612e964f739d5a3c47126397,65af539e91bb652b9495ba62,2024-01-23_07h53.12.582,bars,2023.2.3,Win32,3.750150006,657b66ea316d21385b68909f,,,,,,,,,,,2741.5227,2742.3823,,,2742.6802,2742.9827,,67,67,,,,,,,,,,,,,,,,bars/024.png,bars/mask002.png,,,,,,,,,,,,0,1,,,,,,,2,4,3,5,,,,,,,,,,,2742.3823,2742.6802,2742.9827,2743.8465,space,0.5844,0.0006,2743.8466,53,77,2744.7058,2744.7059,2744.7073,,,,0,40,40,40,1,120,170,,,,,,,,
,,612e964f739d5a3c47126397,65af539e91bb652b9495ba62,2024-01-23_07h53.12.582,bars,2023.2.3,Win32,3.750150006,657b66ea316d21385b68909f,,,,,,,,,,,2744.7076,2745.5666,,,2745.8672,2746.1702,,49,49,,,,,,,,,,,,,,,,bars/047.png,bars/mask008.png,,,,,,,,,,,,1,2,,,,,,,4,2,2,2,,,,,,,,,,,2745.5666,2745.8671,2746.1703,2746.4584,space,0.0111,,2746.4585,34,21,2747.3195,2747.3196,2747.3214,,,,0,41,41,41,1,15,70,,,,,,,,
,,612e964f739d5a3c47126397,65af539e91bb652b9495ba62,2024-01-23_07h53.12.582,bars,2023.2.3,Win32,3.750150006,657b66ea316d21385b68909f,,,,,,,,,,,2747.3218,2748.1811,,,2748.4843,2748.79,,162,162,,,,,,,,,,,,,,,,bars/020.png,bars/mask006.png,,,,,,,,,,,,0,2,,,,,,,6,0,5,0,,,,,,,,,,,2748.1811,2748.4843,2748.79,2749.0789,space,0.011,,2749.0789,47,8,2749.948,2749.9481,2749.9489,,,,0,42,42,42,1,115,170,,,,,,,,
,,612e964f739d5a3c47126397,65af539e91bb652b9495ba62,2024-01-23_07h53.12.582,bars,2023.2.3,Win32,3.750150006,657b66ea316d21385b68909f,,,,,,,,,,,2749.9493,2750.8109,,,2751.1131,2751.4119,,41,41,,,,,,,,,,,,,,,,bars/045.png,bars/mask009.png,,,,,,,,,,,,0,2,,,,,,,8,0,8,0,,,,,,,,,,,2750.8109,2751.113,2751.412,2751.6982,space,0.0102,,2751.6984,59,31,2752.636,2752.6361,2752.6368,,,,0,43,43,43,1,100,10,,,,,,,,
,,612e964f739d5a3c47126397,65af539e91bb652b9495ba62,2024-01-23_07h53.12.582,bars,2023.2.3,Win32,3.750150006,657b66ea316d21385b68909f,,,,,,,,,,,2752.637,2753.4968,,,2753.7982,2754.0988,,12,12,,,,,,,,,,,,,,,,bars/043.png,bars/mask007.png,,,,,,,,,,,,3,1,,,,,,,6,0,7,0,,,,,,,,,,,2753.497,2753.7982,2754.099,2754.6751,space,0.2981,,2754.6752,18,62,2755.5379,2755.5379,2755.5398,,,,0,44,44,44,1,30,130,,,,,,,,
,,612e964f739d5a3c47126397,65af539e91bb652b9495ba62,2024-01-23_07h53.12.582,bars,2023.2.3,Win32,3.750150006,657b66ea316d21385b68909f,,,,,,,,,,,2755.5402,2756.3997,,,2756.6982,2756.9997,,158,158,,,,,,,,,,,,,,,,bars/041.png,bars/mask001.png,,,,,,,,,,,,0,1,,,,,,,8,0,9,0,,,,,,,,,,,2756.3998,2756.6981,2756.9998,2757.2877,space,0.0102,,2757.2877,42,73,2758.1602,2758.1602,2758.1608,,,,0,45,45,45,1,20,85,,,,,,,,
,,612e964f739d5a3c47126397,65af539e91bb652b9495ba62,2024-01-23_07h53.12.582,bars,2023.2.3,Win32,3.750150006,657b66ea316d21385b68909f,,,,,,,,,,,2758.1611,2758.8655,,,2759.4398,2759.7707,,68,68,,,,,,,,,,,,,,,,bars/039.png,bars/mask001.png,,,,,,,,,,,,0,2,,,,,,,10,2,8,2,,,,,,,,,,,2758.8656,2759.4398,2759.7707,2760.3511,space,0.303,0.0004,2760.3511,73,37,2761.2219,2761.2219,2761.2238,,,,0,46,46,46,1,175,105,,,,,,,,
,,612e964f739d5a3c47126397,65af539e91bb652b9495ba62,2024-01-23_07h53.12.582,bars,2023.2.3,Win32,3.750150006,657b66ea316d21385b68909f,,,,,,,,,,,2761.2241,2762.1049,,,2762.4073,2762.7105,,94,94,,,,,,,,,,,,,,,,bars/005.png,bars/mask008.png,,,,,,,,,,,,0,2,,,,,,,8,4,7,4,,,,,,,,,,,2762.1049,2762.4073,2762.7105,2763.0007,space,0.013,,2763.0008,84,46,2763.8969,2763.8969,2763.8976,,,,0,47,47,47,1,10,140,,,,,,,,
,,612e964f739d5a3c47126397,65af539e91bb652b9495ba62,2024-01-23_07h53.12.582,bars,2023.2.3,Win32,3.750150006,657b66ea316d21385b68909f,,,,,,,,,,,2763.8979,2764.7694,,,2765.0714,2765.3816,,106,106,,,,,,,,,,,,,,,,bars/023.png,bars/mask002.png,,,,,,,,,,,,4,2,,,,,,,6,6,5,5,,,,,,,,,,,2764.7694,2765.0714,2765.3816,2765.9616,space,0.3035,0.0003,2765.9616,86,9,2766.8302,2766.8303,2766.8311,,,,0,48,48,48,1,20,115,,,,,,,,
,,612e964f739d5a3c47126397,65af539e91bb652b9495ba62,2024-01-23_07h53.12.582,bars,2023.2.3,Win32,3.750150006,657b66ea316d21385b68909f,,,,,,,,,,,2766.8315,2767.692,,,2767.9935,2768.2947,,61,61,,,,,,,,,,,,,,,,bars/021.png,bars/mask005.png,,,,,,,,,,,,4,2,,,,,,,4,4,4,5,,,,,,,,,,,2767.6921,2767.9933,2768.2947,2768.5828,space,0.0101,0.0004,2768.5828,86,9,2769.4464,2769.4466,2769.4474,,,,0,49,49,49,1,155,70,,,,,,,,
,,612e964f739d5a3c47126397,65af539e91bb652b9495ba62,2024-01-23_07h53.12.582,bars,2023.2.3,Win32,3.750150006,657b66ea316d21385b68909f,,,,,,,,,,,,,,,,,,,,,,,,,,,,,,,,,,,,,,,,,,,,,,,,,,,,,,,,,,,,,,,,,,,,,,,,,,,,,,,,,,,,,,,,,,,,,2769.4475,2829.3467,0,3,3,0,1,sequence_tables/blk000.csv
,,612e964f739d5a3c47126397,65af539e91bb652b9495ba62,2024-01-23_07h53.12.582,bars,2023.2.3,Win32,3.750150006,657b66ea316d21385b68909f,,,,,,,,,,,2831.2904,2832.3051,,,2832.636,2833.2213,,145,145,,,,,,,,,,,,,,,,bars/002.png,bars/mask000.png,,,,,,,,,,,,4,1,,,,,,,10,1,8,0,,,,,,2829.3576,2831.2872,space,1.6347,0.0002,2832.3051,2832.6359,2833.2215,2836.4812,space,2.8585,,2836.4813,15,60,2837.4843,2837.4843,2837.498,,,,0,0,0,0,1,130,85,,,,,,,,
,,612e964f739d5a3c47126397,65af539e91bb652b9495ba62,2024-01-23_07h53.12.582,bars,2023.2.3,Win32,3.750150006,657b66ea316d21385b68909f,,,,,,,,,,,2837.4984,2838.4167,,,2838.7169,2839.0202,,152,152,,,,,,,,,,,,,,,,bars/024.png,bars/mask000.png,,,,,,,,,,,,0,2,,,,,,,8,0,8,0,,,,,,,,,,,2838.4169,2838.7168,2839.0203,2839.3094,space,0.0111,0.0005,2839.3095,32,18,2840.1835,2840.1836,2840.1862,,,,0,1,1,1,1,120,170,,,,,,,,
,,612e964f739d5a3c47126397,65af539e91bb652b9495ba62,2024-01-23_07h53.12.582,bars,2023.2.3,Win32,3.750150006,657b66ea316d21385b68909f,,,,,,,,,,,2840.1866,2841.0454,,,2841.3454,2841.6466,,120,120,,,,,,,,,,,,,,,,bars/043.png,bars/mask006.png,,,,,,,,,,,,0,2,,,,,,,6,0,5,0,,,,,,,,,,,2841.0455,2841.3454,2841.6467,2842.225,space,0.3002,,2842.2252,90,10,2843.0877,2843.0877,2843.0884,,,,0,2,2,2,1,30,130,,,,,,,,
,,612e964f739d5a3c47126397,65af539e91bb652b9495ba62,2024-01-23_07h53.12.582,bars,2023.2.3,Win32,3.750150006,657b66ea316d21385b68909f,,,,,,,,,,,2843.0887,2843.953,,,2844.2546,2844.5557,,102,102,,,,,,,,,,,,,,,,bars/031.png,bars/mask003.png,,,,,,,,,,,,1,1,,,,,,,4,2,3,0,,,,,,,,,,,2843.9531,2844.2545,2844.5557,2844.842,space,0.0105,,2844.842,18,67,2845.7039,2845.7039,2845.7059,,,,0,3,3,3,1,120,35,,,,,,,,
,,612e964f739d5a3c47126397,65af539e91bb652b9495ba62,2024-01-23_07h53.12.582,bars,2023.2.3,Win32,3.750150006,657b66ea316d21385b68909f,,,,,,,,,,,2845.7063,2846.5699,,,2846.8698,2847.17,,26,26,,,,,,,,,,,,,,,,bars/024.png,bars/mask000.png,,,,,,,,,,,,0,2,,,,,,,6,0,5,0,,,,,,,,,,,2846.5699,2846.8697,2847.1701,2847.7451,space,0.2974,,2847.7451,86,36,2848.6082,2848.6083,2848.6102,,,,0,4,4,4,1,120,170,,,,,,,,
,,612e964f739d5a3c47126397,65af539e91bb652b9495ba62,2024-01-23_07h53.12.582,bars,2023.2.3,Win32,3.750150006,657b66ea316d21385b68909f,,,,,,,,,,,2848.6106,2849.4766,,,2849.7766,2850.0752,,167,167,,,,,,,,,,,,,,,,bars/024.png,bars/mask001.png,,,,,,,,,,,,5,2,,,,,,,8,2,10,5,,,,,,,,,,,2849.4766,2849.7766,2850.0754,2850.365,space,0.0102,,2850.3651,47,3,2851.225,2851.225,2851.2262,,,,0,5,5,5,1,120,170,,,,,,,,
,,612e964f739d5a3c47126397,65af539e91bb652b9495ba62,2024-01-23_07h53.12.582,bars,2023.2.3,Win32,3.750150006,657b66ea316d21385b68909f,,,,,,,,,,,2851.2265,2852.0868,,,2852.3901,2852.6885,,34,34,,,,,,,,,,,,,,,,bars/028.png,bars/mask000.png,,,,,,,,,,,,6,1,,,,,,,10,0,10,1,,,,,,,,,,,2852.087,2852.39,2852.6886,2853.2656,space,0.2984,0.0008,2853.2656,11,86,2854.1271,2854.1272,2854.1291,,,,0,6,6,6,1,45,120,,,,,,,,
,,612e964f739d5a3c47126397,65af539e91bb652b9495ba62,2024-01-23_07h53.12.582,bars,2023.2.3,Win32,3.750150006,657b66ea316d21385b68909f,,,,,,,,,,,2854.1295,2854.9876,,,2855.289,2855.5868,,153,153,,,,,,,,,,,,,,,,bars/033.png,bars/mask000.png,,,,,,,,,,,,0,2,,,,,,,10,0,10,0,,,,,,,,,,,2854.9877,2855.2889,2855.587,2856.1639,space,0.2991,,2856.1639,52,2,2857.0273,2857.0273,2857.0294,,,,0,7,7,7,1,25,155,,,,,,,,
