init_variables.started,init_variables.stopped,participant,session,date,expName,psychopyVersion,OS,frameRate,study_id,instruction_exp.started,instruction_exp.stopped,key_resp_8.keys,key_resp_8.rt,key_resp_8.duration,instruction_single.started,instruction_single.stopped,key_resp_2.keys,key_resp_2.rt,key_resp_2.duration,interval.started,interval.stopped,cue_single.started,cue_single.stopped,mask.started,mask.stopped,ori_response_single.started,res_ori,res,ori_response_single.stopped,key_resp_single.keys,key_resp_single.rt,key_resp_single.duration,disp_single.started,disp_single.stopped,key_resp.keys,key_resp.rt,key_resp.duration,single.thisRepN,single.thisTrialN,single.thisN,single.thisIndex,single.ran,ori,path,mask_path,instruction_bandit.started,instruction_bandit.stopped,key_resp_6.keys,key_resp_6.rt,key_resp_6.duration,cue_bandit.started,cue_bandit.stopped,bandit_res.keys,bandit_res.rt,bandit_res.duration,outcome_bandit.started,rew,action,outcome_bandit.stopped,bandit.thisRepN,bandit.thisTrialN,bandit.thisN,bandit.thisIndex,bandit.ran,actual_rew1,actual_rew2,rew1,rew2,instruction_task.started,instruction_task.stopped,key_resp_7.keys,key_resp_7.rt,key_resp_7.duration,wait_ready.started,wait_ready.stopped,key_resp_3.keys,key_resp_3.rt,key_resp_3.duration,cue.started,cue.stopped,ori_response.started,ori_response.stopped,key_resp_5.keys,key_resp_5.rt,key_resp_5.duration,outcome.started,diff1,diff2,outcome.stopped,disp_outcome_practice.started,disp_outcome_practice.stopped,key_resp_4.keys,key_resp_4.rt,key_resp_4.duration,trials.thisRepN,trials.thisTrialN,trials.thisN,trials.thisIndex,trials.ran,ori1,ori2,break_blk.started,break_blk.stopped,block.thisRepN,block.thisTrialN,block.thisN,block.thisIndex,block.ran,condition_file
0.0002,0.0002,5f1b768bba959b371da3e65f,65af54f991bb652b9495ba90,2024-01-23_03h36.59.269,bars,2023.2.3,Win32,119.047619,657b66ea316d21385b68909f,,,,,,,,,,,,,,,,,,,,,,,,,,,,,,,,,,,,,,,,,,,,,,,,,,,,,,,,,,,,,,,,,,,,,,,,,,,,,,,,,,,,,,,,,,,,,,,,,,,,
,,5f1b768bba959b371da3e65f,65af54f991bb652b9495ba90,2024-01-23_03h36.59.269,bars,2023.2.3,Win32,119.047619,657b66ea316d21385b68909f,0.0004,3.7969,y,3.7842,,,,,,,,,,,,,,,,,,,,,,,,,,,,,,,,,,,,,,,,,,,,,,,,,,,,,,,,,,,,,,,,,,,,,,,,,,,,,,,,,,,,,,,,,,,,,,,,
,,5f1b768bba959b371da3e65f,65af54f991bb652b9495ba90,2024-01-23_03h36.59.269,bars,2023.2.3,Win32,119.047619,657b66ea316d21385b68909f,,,,,,3.7971,6.9058,space,3.0965,,,,,,,,,,,,,,,,,,,,,,,,,,,,,,,,,,,,,,,,,,,,,,,,,,,,,,,,,,,,,,,,,,,,,,,,,,,,,,,,,,,,,,,,,,,
,,5f1b768bba959b371da3e65f,65af54f991bb652b9495ba90,2024-01-23_03h36.59.269,bars,2023.2.3,Win32,119.047619,657b66ea316d21385b68909f,,,,,,,,,,,6.9089,7.9052,7.9054,8.4055,8.4056,8.6574,8.6575,0,0,14.8716,space,6.1956,,14.8716,17.0047,space,2.116,,0,0,0,3,1,20,bars/single003.png,bars/mask005.png,,,,,,,,,,,,,,,,,,,,,,,,,,,,,,,,,,,,,,,,,,,,,,,,,,,,,,,,,,,,,,,,
,,5f1b768bba959b371da3e65f,65af54f991bb652b9495ba90,2024-01-23_03h36.59.269,bars,2023.2.3,Win32,119.047619,657b66ea316d21385b68909f,,,,,,,,,,,17.005,18.0046,18.0047,18.5046,18.5046,18.7546,18.7546,30,210,23.1712,space,4.4079,,23.1713,24.2045,space,1.0212,,0,1,1,5,1,55,bars/single005.png,bars/mask008.png,,,,,,,,,,,,,,,,,,,,,,,,,,,,,,,,,,,,,,,,,,,,,,,,,,,,,,,,,,,,,,,,
,,5f1b768bba959b371da3e65f,65af54f991bb652b9495ba90,2024-01-23_03h36.59.269,bars,2023.2.3,Win32,119.047619,657b66ea316d21385b68909f,,,,,,,,,,,24.2047,25.2044,25.2044,25.7045,25.7046,25.9544,25.9544,160,-20,30.1877,space,4.2243,,30.1877,31.8293,space,1.6325,,0,2,2,0,1,150,bars/single000.png,bars/mask006.png,,,,,,,,,,,,,,,,,,,,,,,,,,,,,,,,,,,,,,,,,,,,,,,,,,,,,,,,,,,,,,,,
,,5f1b768bba959b371da3e65f,65af54f991bb652b9495ba90,2024-01-23_03h36.59.269,bars,2023.2.3,Win32,119.047619,657b66ea316d21385b68909f,,,,,,,,,,,31.8295,32.8293,32.8293,33.3293,33.3293,33.5791,33.5792,51,51,35.6292,space,2.0428,,35.6293,36.6876,space,1.0509,,0,3,3,7,1,45,bars/single007.png,bars/mask009.png,,,,,,,,,,,,,,,,,,,,,,,,,,,,,,,,,,,,,,,,,,,,,,,,,,,,,,,,,,,,,,,,
,,5f1b768bba959b371da3e65f,65af54f991bb652b9495ba90,2024-01-23_03h36.59.269,bars,2023.2.3,Win32,119.047619,657b66ea316d21385b68909f,,,,,,,,,,,36.6877,37.6876,37.6876,38.1875,38.1875,38.4374,38.4374,143,143,39.1626,space,0.7161,,39.1626,40.0709,space,0.8985,,0,4,4,2,1,145,bars/single002.png,bars/mask003.png,,,,,,,,,,,,,,,,,,,,,,,,,,,,,,,,,,,,,,,,,,,,,,,,,,,,,,,,,,,,,,,,
,,5f1b768bba959b371da3e65f,65af54f991bb652b9495ba90,2024-01-23_03h36.59.269,bars,2023.2.3,Win32,119.047619,657b66ea316d21385b68909f,,,,,,,,,,,40.0711,41.0708,41.0708,41.5708,41.5708,41.8208,41.8208,157,157,43.8708,space,2.0423,,43.8709,44.7458,space,0.8663,,0,5,5,8,1,160,bars/single008.png,bars/mask004.png,,,,,,,,,,,,,,,,,,,,,,,,,,,,,,,,,,,,,,,,,,,,,,,,,,,,,,,,,,,,,,,,
,,5f1b768bba959b371da3e65f,65af54f991bb652b9495ba90,2024-01-23_03h36.59.269,bars,2023.2.3,Win32,119.047619,657b66ea316d21385b68909f,,,,,,,,,,,44.7459,45.7458,45.7458,46.2457,46.2457,46.4958,46.4958,90,90,51.0206,space,4.5208,,51.0206,51.9123,space,0.8775,,0,6,6,4,1,95,bars/single004.png,bars/mask004.png,,,,,,,,,,,,,,,,,,,,,,,,,,,,,,,,,,,,,,,,,,,,,,,,,,,,,,,,,,,,,,,,
,,5f1b768bba959b371da3e65f,65af54f991bb652b9495ba90,2024-01-23_03h36.59.269,bars,2023.2.3,Win32,119.047619,657b66ea316d21385b68909f,,,,,,,,,,,51.9124,52.9122,52.9123,53.4122,53.4123,53.6622,53.6622,23,23,57.0621,space,3.3961,,57.0621,57.7288,space,0.6568,,0,7,7,1,1,20,bars/single001.png,bars/mask006.png,,,,,,,,,,,,,,,,,,,,,,,,,,,,,,,,,,,,,,,,,,,,,,,,,,,,,,,,,,,,,,,,
,,5f1b768bba959b371da3e65f,65af54f991bb652b9495ba90,2024-01-23_03h36.59.269,bars,2023.2.3,Win32,119.047619,657b66ea316d21385b68909f,,,,,,,,,,,57.729,58.7289,58.729,59.2289,59.2289,59.479,59.479,179,179,61.0704,space,1.5879,,61.0704,61.7955,space,0.7168,,0,8,8,6,1,175,bars/single006.png,bars/mask005.png,,,,,,,,,,,,,,,,,,,,,,,,,,,,,,,,,,,,,,,,,,,,,,,,,,,,,,,,,,,,,,,,
,,5f1b768bba959b371da3e65f,65af54f991bb652b9495ba90,2024-01-23_03h36.59.269,bars,2023.2.3,Win32,119.047619,657b66ea316d21385b68909f,,,,,,,,,,,61.7956,62.7954,62.7954,63.2954,63.2955,63.5454,63.5454,52,52,67.3036,space,3.7531,,67.3036,68.037,space,0.7215,,0,9,9,9,1,20,bars/single009.png,bars/mask006.png,,,,,,,,,,,,,,,,,,,,,,,,,,,,,,,,,,,,,,,,,,,,,,,,,,,,,,,,,,,,,,,,
,,5f1b768bba959b371da3e65f,65af54f991bb652b9495ba90,2024-01-23_03h36.59.269,bars,2023.2.3,Win32,119.047619,657b66ea316d21385b68909f,,,,,,,,,,,,,,,,,,,,,,,,,,,,,,,,,,,,,68.0372,72.1122,space,4.0632,,,,,,,,,,,,,,,,,,,,,,,,,,,,,,,,,,,,,,,,,,,,,,,,,,,,,,,,,,,,
,,5f1b768bba959b371da3e65f,65af54f991bb652b9495ba90,2024-01-23_03h36.59.269,bars,2023.2.3,Win32,119.047619,657b66ea316d21385b68909f,,,,,,,,,,,,,,,,,,,,,,,,,,,,,,,,,,,,,,,,,,72.1186,73.8288,right,1.6985,,73.8289,2,2,74.8285,0,0,0,0,1,9,1,9,2,,,,,,,,,,,,,,,,,,,,,,,,,,,,,,,,,,,,,,,,,
,,5f1b768bba959b371da3e65f,65af54f991bb652b9495ba90,2024-01-23_03h36.59.269,bars,2023.2.3,Win32,119.047619,657b66ea316d21385b68909f,,,,,,,,,,,,,,,,,,,,,,,,,,,,,,,,,,,,,,,,,,74.8288,76.0953,left,1.2583,,76.0953,10,1,77.0951,0,1,1,1,1,10,0,10,1,,,,,,,,,,,,,,,,,,,,,,,,,,,,,,,,,,,,,,,,,
,,5f1b768bba959b371da3e65f,65af54f991bb652b9495ba90,2024-01-23_03h36.59.269,bars,2023.2.3,Win32,119.047619,657b66ea316d21385b68909f,,,,,,,,,,,,,,,,,,,,,,,,,,,,,,,,,,,,,,,,,,77.0954,77.8786,left,0.776,,77.8786,10,1,78.8785,0,2,2,2,1,10,2,10,2,,,,,,,,,,,,,,,,,,,,,,,,,,,,,,,,,,,,,,,,,
,,5f1b768bba959b371da3e65f,65af54f991bb652b9495ba90,2024-01-23_03h36.59.269,bars,2023.2.3,Win32,119.047619,657b66ea316d21385b68909f,,,,,,,,,,,,,,,,,,,,,,,,,,,,,,,,,,,,,,,,,,78.8787,79.3618,left,0.4743,,79.3618,7,1,80.3617,0,3,3,3,1,8,4,7,3,,,,,,,,,,,,,,,,,,,,,,,,,,,,,,,,,,,,,,,,,
,,5f1b768bba959b371da3e65f,65af54f991bb652b9495ba90,2024-01-23_03h36.59.269,bars,2023.2.3,Win32,119.047619,657b66ea316d21385b68909f,,,,,,,,,,,,,,,,,,,,,,,,,,,,,,,,,,,,,,,,,,80.3619,80.9286,right,0.5583,,80.9286,1,2,81.9284,0,4,4,4,1,6,2,5,1,,,,,,,,,,,,,,,,,,,,,,,,,,,,,,,,,,,,,,,,,
,,5f1b768bba959b371da3e65f,65af54f991bb652b9495ba90,2024-01-23_03h36.59.269,bars,2023.2.3,Win32,119.047619,657b66ea316d21385b68909f,,,,,,,,,,,,,,,,,,,,,,,,,,,,,,,,,,,,,,,,,,81.9286,82.3617,left,0.4265,,82.3618,4,1,83.3618,0,5,5,5,1,4,4,4,4,,,,,,,,,,,,,,,,,,,,,,,,,,,,,,,,,,,,,,,,,
,,5f1b768bba959b371da3e65f,65af54f991bb652b9495ba90,2024-01-23_03h36.59.269,bars,2023.2.3,Win32,119.047619,657b66ea316d21385b68909f,,,,,,,,,,,,,,,,,,,,,,,,,,,,,,,,,,,,,,,,,,83.3621,83.7784,right,0.4083,,83.7784,2,2,84.7784,0,6,6,6,1,2,2,1,2,,,,,,,,,,,,,,,,,,,,,,,,,,,,,,,,,,,,,,,,,
,,5f1b768bba959b371da3e65f,65af54f991bb652b9495ba90,2024-01-23_03h36.59.269,bars,2023.2.3,Win32,119.047619,657b66ea316d21385b68909f,,,,,,,,,,,,,,,,,,,,,,,,,,,,,,,,,,,,,,,,,,84.7786,84.8117,left,0.0237,,84.8118,0,1,85.8117,0,7,7,7,1,0,0,0,1,,,,,,,,,,,,,,,,,,,,,,,,,,,,,,,,,,,,,,,,,
,,5f1b768bba959b371da3e65f,65af54f991bb652b9495ba90,2024-01-23_03h36.59.269,bars,2023.2.3,Win32,119.047619,657b66ea316d21385b68909f,,,,,,,,,,,,,,,,,,,,,,,,,,,,,,,,,,,,,,,,,,85.8118,86.12,right,0.3017,,86.12,0,2,87.1199,0,8,8,8,1,0,2,1,0,,,,,,,,,,,,,,,,,,,,,,,,,,,,,,,,,,,,,,,,,
,,5f1b768bba959b371da3e65f,65af54f991bb652b9495ba90,2024-01-23_03h36.59.269,bars,2023.2.3,Win32,119.047619,657b66ea316d21385b68909f,,,,,,,,,,,,,,,,,,,,,,,,,,,,,,,,,,,,,,,,,,87.1202,87.1701,left,0.0403,,87.1701,2,1,88.1702,0,9,9,9,1,2,4,2,3,,,,,,,,,,,,,,,,,,,,,,,,,,,,,,,,,,,,,,,,,
,,5f1b768bba959b371da3e65f,65af54f991bb652b9495ba90,2024-01-23_03h36.59.269,bars,2023.2.3,Win32,119.047619,657b66ea316d21385b68909f,,,,,,,,,,,,,,,,,,,,,,,,,,,,,,,,,,,,,,,,,,88.1705,88.4451,left,0.268,,88.4451,0,1,89.4477,0,10,10,10,1,0,2,0,3,,,,,,,,,,,,,,,,,,,,,,,,,,,,,,,,,,,,,,,,,
,,5f1b768bba959b371da3e65f,65af54f991bb652b9495ba90,2024-01-23_03h36.59.269,bars,2023.2.3,Win32,119.047619,657b66ea316d21385b68909f,,,,,,,,,,,,,,,,,,,,,,,,,,,,,,,,,,,,,,,,,,89.448,89.8867,left,0.4258,,89.8868,0,1,90.8866,0,11,11,11,1,0,4,0,3,,,,,,,,,,,,,,,,,,,,,,,,,,,,,,,,,,,,,,,,,
,,5f1b768bba959b371da3e65f,65af54f991bb652b9495ba90,2024-01-23_03h36.59.269,bars,2023.2.3,Win32,119.047619,657b66ea316d21385b68909f,,,,,,,,,,,,,,,,,,,,,,,,,,,,,,,,,,,,,,,,,,90.887,91.0699,left,0.1706,,91.07,1,1,92.0699,0,12,12,12,1,2,6,1,6,,,,,,,,,,,,,,,,,,,,,,,,,,,,,,,,,,,,,,,,,
,,5f1b768bba959b371da3e65f,65af54f991bb652b9495ba90,2024-01-23_03h36.59.269,bars,2023.2.3,Win32,119.047619,657b66ea316d21385b68909f,,,,,,,,,,,,,,,,,,,,,,,,,,,,,,,,,,,,,,,,,,92.0704,92.095,right,0.0089,,92.095,3,2,93.0948,0,13,13,13,1,0,4,1,3,,,,,,,,,,,,,,,,,,,,,,,,,,,,,,,,,,,,,,,,,
,,5f1b768bba959b371da3e65f,65af54f991bb652b9495ba90,2024-01-23_03h36.59.269,bars,2023.2.3,Win32,119.047619,657b66ea316d21385b68909f,,,,,,,,,,,,,,,,,,,,,,,,,,,,,,,,,,,,,,,,,,93.0953,93.1281,left,0.0179,,93.1283,2,1,94.1282,0,14,14,14,1,2,6,2,7,,,,,,,,,,,,,,,,,,,,,,,,,,,,,,,,,,,,,,,,,
,,5f1b768bba959b371da3e65f,65af54f991bb652b9495ba90,2024-01-23_03h36.59.269,bars,2023.2.3,Win32,119.047619,657b66ea316d21385b68909f,,,,,,,,,,,,,,,,,,,,,,,,,,,,,,,,,,,,,,,,,,94.1285,94.2782,right,0.1343,,94.2783,9,2,95.2781,0,15,15,15,1,4,8,3,9,,,,,,,,,,,,,,,,,,,,,,,,,,,,,,,,,,,,,,,,,
,,5f1b768bba959b371da3e65f,65af54f991bb652b9495ba90,2024-01-23_03h36.59.269,bars,2023.2.3,Win32,119.047619,657b66ea316d21385b68909f,,,,,,,,,,,,,,,,,,,,,,,,,,,,,,,,,,,,,,,,,,95.2785,95.515,right,0.2255,,95.515,7,2,96.5115,0,16,16,16,1,6,6,7,7,,,,,,,,,,,,,,,,,,,,,,,,,,,,,,,,,,,,,,,,,
,,5f1b768bba959b371da3e65f,65af54f991bb652b9495ba90,2024-01-23_03h36.59.269,bars,2023.2.3,Win32,119.047619,657b66ea316d21385b68909f,,,,,,,,,,,,,,,,,,,,,,,,,,,,,,,,,,,,,,,,,,96.5119,96.5229,left,0.0003,,96.5229,9,1,97.5199,0,17,17,17,1,8,4,9,5,,,,,,,,,,,,,,,,,,,,,,,,,,,,,,,,,,,,,,,,,
,,5f1b768bba959b371da3e65f,65af54f991bb652b9495ba90,2024-01-23_03h36.59.269,bars,2023.2.3,Win32,119.047619,657b66ea316d21385b68909f,,,,,,,,,,,,,,,,,,,,,,,,,,,,,,,,,,,,,,,,,,97.5203,97.745,right,0.2088,,97.745,1,2,98.7446,0,18,18,18,1,6,2,5,1,,,,,,,,,,,,,,,,,,,,,,,,,,,,,,,,,,,,,,,,,
,,5f1b768bba959b371da3e65f,65af54f991bb652b9495ba90,2024-01-23_03h36.59.269,bars,2023.2.3,Win32,119.047619,657b66ea316d21385b68909f,,,,,,,,,,,,,,,,,,,,,,,,,,,,,,,,,,,,,,,,,,98.7451,98.9618,left,0.2015,,98.9619,7,1,99.9614,0,19,19,19,1,8,0,7,0,,,,,,,,,,,,,,,,,,,,,,,,,,,,,,,,,,,,,,,,,
,,5f1b768bba959b371da3e65f,65af54f991bb652b9495ba90,2024-01-23_03h36.59.269,bars,2023.2.3,Win32,119.047619,657b66ea316d21385b68909f,,,,,,,,,,,,,,,,,,,,,,,,,,,,,,,,,,,,,,,,,,,,,,,,,,,,,,,,,,,,99.9618,105.254,space,5.2797,,,,,,,,,,,,,,,,,,,,,,,,,,,,,,,,,,,,,
,,5f1b768bba959b371da3e65f,65af54f991bb652b9495ba90,2024-01-23_03h36.59.269,bars,2023.2.3,Win32,119.047619,657b66ea316d21385b68909f,,,,,,,,,,,106.1561,107.1531,,,107.6532,107.9033,,99,99,,,,,,,,,,,,,,,,bars/002.png,bars/mask000.png,,,,,,,,,,,,0,2,,,,,,,10,1,8,0,,,,,,105.2604,106.1532,space,0.8826,,107.1534,107.6532,107.9035,111.9449,space,4.0277,,111.9452,31,14,112.9449,112.945,114.2977,space,1.3417,,0,0,0,0,1,130,85,,,,,,,,
,,5f1b768bba959b371da3e65f,65af54f991bb652b9495ba90,2024-01-23_03h36.59.269,bars,2023.2.3,Win32,119.047619,657b66ea316d21385b68909f,,,,,,,,,,,114.2979,115.2944,,,115.7946,116.0446,,167,-13,,,,,,,,,,,,,,,,bars/024.png,bars/mask000.png,,,,,,,,,,,,0,2,,,,,,,8,0,8,0,,,,,,,,,,,115.2944,115.7945,116.0446,119.8392,space,3.7831,,119.8392,47,3,120.8361,120.8362,121.7194,space,0.8717,,0,1,1,1,1,120,170,,,,,,,,
,,5f1b768bba959b371da3e65f,65af54f991bb652b9495ba90,2024-01-23_03h36.59.269,bars,2023.2.3,Win32,119.047619,657b66ea316d21385b68909f,,,,,,,,,,,121.7199,122.7193,,,123.2196,123.4694,,143,143,,,,,,,,,,,,,,,,bars/043.png,bars/mask006.png,,,,,,,,,,,,0,2,,,,,,,6,0,5,0,,,,,,,,,,,122.7193,123.2195,123.4695,126.9461,space,3.4667,,126.9461,67,13,127.9442,127.9442,128.011,space,0.0512,,0,2,2,2,1,30,130,,,,,,,,
,,5f1b768bba959b371da3e65f,65af54f991bb652b9495ba90,2024-01-23_03h36.59.269,bars,2023.2.3,Win32,119.047619,657b66ea316d21385b68909f,,,,,,,,,,,128.0115,129.0112,,,129.5114,129.7611,,52,232,,,,,,,,,,,,,,,,bars/031.png,bars/mask003.png,,,,,,,,,,,,0,2,,,,,,,4,2,3,0,,,,,,,,,,,129.0113,129.5113,129.7611,132.8941,space,3.1183,,132.8942,68,17,133.8943,133.8944,134.5441,space,0.637,,0,3,3,3,1,120,35,,,,,,,,
,,5f1b768bba959b371da3e65f,65af54f991bb652b9495ba90,2024-01-23_03h36.59.269,bars,2023.2.3,Win32,119.047619,657b66ea316d21385b68909f,,,,,,,,,,,134.5446,135.5441,,,136.0441,136.2941,,167,167,,,,,,,,,,,,,,,,bars/024.png,bars/mask000.png,,,,,,,,,,,,0,2,,,,,,,6,0,5,0,,,,,,,,,,,135.5441,136.044,136.2941,138.0941,space,1.784,,138.0942,47,3,139.0942,139.0943,139.2108,space,0.1019,,0,4,4,4,1,120,170,,,,,,,,
,,5f1b768bba959b371da3e65f,65af54f991bb652b9495ba90,2024-01-23_03h36.59.269,bars,2023.2.3,Win32,119.047619,657b66ea316d21385b68909f,,,,,,,,,,,139.2113,140.2106,,,140.7111,140.9607,,124,-56,,,,,,,,,,,,,,,,bars/024.png,bars/mask001.png,,,,,,,,,,,,9,1,,,,,,,8,2,10,5,,,,,,,,,,,140.2106,140.7111,140.9607,144.7856,space,3.8094,,144.7857,4,46,145.7856,145.7856,146.569,space,0.7687,,0,5,5,5,1,120,170,,,,,,,,
,,5f1b768bba959b371da3e65f,65af54f991bb652b9495ba90,2024-01-23_03h36.59.269,bars,2023.2.3,Win32,119.047619,657b66ea316d21385b68909f,,,,,,,,,,,146.5695,147.5689,,,148.069,148.3189,,55,55,,,,,,,,,,,,,,,,bars/028.png,bars/mask000.png,,,,,,,,,,,,7,1,,,,,,,10,0,10,1,,,,,,,,,,,147.569,148.0689,148.3189,150.7355,space,2.4044,,150.7355,10,65,151.7354,151.7354,151.9854,space,0.2379,,0,6,6,6,1,45,120,,,,,,,,
,,5f1b768bba959b371da3e65f,65af54f991bb652b9495ba90,2024-01-23_03h36.59.269,bars,2023.2.3,Win32,119.047619,657b66ea316d21385b68909f,,,,,,,,,,,151.9859,152.9856,,,153.4854,153.7355,,39,39,,,,,,,,,,,,,,,,bars/033.png,bars/mask000.png,,,,,,,,,,,,5,1,,,,,,,10,0,10,0,,,,,,,,,,,152.9857,153.4854,153.7355,156.1354,space,2.3926,,156.1355,14,64,157.1354,157.1355,157.7437,space,0.5929,,0,7,7,7,1,25,155,,,,,,,,
,,5f1b768bba959b371da3e65f,65af54f991bb652b9495ba90,2024-01-23_03h36.59.269,bars,2023.2.3,Win32,119.047619,657b66ea316d21385b68909f,,,,,,,,,,,157.7442,158.7438,,,159.2437,159.4883,,56,56,,,,,,,,,,,,,,,,bars/044.png,bars/mask002.png,,,,,,,,,,,,3,1,,,,,,,10,0,8,0,,,,,,,,,,,158.7438,159.2437,159.4883,161.0937,space,1.5941,,161.0938,19,81,162.0936,162.0937,162.2854,space,0.1754,,0,8,8,8,1,75,155,,,,,,,,
,,5f1b768bba959b371da3e65f,65af54f991bb652b9495ba90,2024-01-23_03h36.59.269,bars,2023.2.3,Win32,119.047619,657b66ea316d21385b68909f,,,,,,,,,,,162.2861,163.2853,,,163.7857,164.0352,,178,-2,,,,,,,,,,,,,,,,bars/007.png,bars/mask005.png,,,,,,,,,,,,8,1,,,,,,,8,0,9,0,,,,,,,,,,,163.2853,163.7856,164.0352,167.7632,space,3.7248,,167.7632,3,57,168.7602,168.7602,169.0852,space,0.3099,,0,9,9,9,1,175,55,,,,,,,,
,,5f1b768bba959b371da3e65f,65af54f991bb652b9495ba90,2024-01-23_03h36.59.269,bars,2023.2.3,Win32,119.047619,657b66ea316d21385b68909f,,,,,,,,,,,169.086,170.0855,,,170.5854,170.835,,23,23,,,,,,,,,,,,,,,,bars/035.png,bars/mask005.png,,,,,,,,,,,,0,1,,,,,,,10,2,7,4,,,,,,,,,,,170.0856,170.5853,170.835,173.1101,space,2.261,,173.1101,28,37,174.1101,174.1101,179.0518,space,4.9253,,0,10,10,10,1,175,60,,,,,,,,
,,5f1b768bba959b371da3e65f,65af54f991bb652b9495ba90,2024-01-23_03h36.59.269,bars,2023.2.3,Win32,119.047619,657b66ea316d21385b68909f,,,,,,,,,,,179.0575,180.0518,,,180.5519,180.7959,,176,176,,,,,,,,,,,,,,,,bars/049.png,bars/mask000.png,,,,,,,,,,,,5,1,,,,,,,10,4,10,4,,,,,,,,,,,180.0518,180.5518,180.796,182.5765,space,1.7676,,182.5766,16,61,183.5767,183.5767,183.9767,space,0.3862,,0,11,11,11,1,160,115,,,,,,,,
,,5f1b768bba959b371da3e65f,65af54f991bb652b9495ba90,2024-01-23_03h36.59.269,bars,2023.2.3,Win32,119.047619,657b66ea316d21385b68909f,,,,,,,,,,,183.9774,184.9765,,,185.4769,185.7265,,148,-32,,,,,,,,,,,,,,,,bars/017.png,bars/mask008.png,,,,,,,,,,,,6,1,,,,,,,8,6,7,8,,,,,,,,,,,184.9765,185.4769,185.7265,188.2951,space,2.5576,,188.2951,3,77,189.2934,189.2934,191.5015,space,2.1941,,0,12,12,12,1,145,45,,,,,,,,
,,5f1b768bba959b371da3e65f,65af54f991bb652b9495ba90,2024-01-23_03h36.59.269,bars,2023.2.3,Win32,119.047619,657b66ea316d21385b68909f,,,,,,,,,,,191.502,192.5017,,,193.0015,193.2515,,93,93,,,,,,,,,,,,,,,,bars/022.png,bars/mask007.png,,,,,,,,,,,,6,1,,,,,,,6,4,6,2,,,,,,,,,,,192.5018,193.0015,193.2516,196.6291,space,3.3665,,196.6291,2,73,197.6268,197.6269,198.5347,space,0.8921,,0,13,13,13,1,95,20,,,,,,,,
,,5f1b768bba959b371da3e65f,65af54f991bb652b9495ba90,2024-01-23_03h36.59.269,bars,2023.2.3,Win32,119.047619,657b66ea316d21385b68909f,,,,,,,,,,,198.5353,199.5346,,,200.0347,200.2847,,5,5,,,,,,,,,,,,,,,,bars/005.png,bars/mask006.png,,,,,,,,,,,,3,1,,,,,,,4,6,4,6,,,,,,,,,,,199.5346,200.0347,200.2848,202.5679,space,2.2672,,202.5679,5,45,203.5679,203.5679,204.0429,space,0.458,,0,14,14,14,1,10,140,,,,,,,,
,,5f1b768bba959b371da3e65f,65af54f991bb652b9495ba90,2024-01-23_03h36.59.269,bars,2023.2.3,Win32,119.047619,657b66ea316d21385b68909f,,,,,,,,,,,204.0434,205.043,,,205.5431,205.7931,,165,165,,,,,,,,,,,,,,,,bars/010.png,bars/mask006.png,,,,,,,,,,,,5,1,,,,,,,6,4,5,3,,,,,,,,,,,205.043,205.543,205.7931,207.5179,space,1.7088,,207.5179,0,70,208.5178,208.5178,209.9678,space,1.434,,0,15,15,15,1,165,55,,,,,,,,
,,5f1b768bba959b371da3e65f,65af54f991bb652b9495ba90,2024-01-23_03h36.59.269,bars,2023.2.3,Win32,119.047619,657b66ea316d21385b68909f,,,,,,,,,,,209.9685,210.968,,,211.468,211.7179,,42,222,,,,,,,,,,,,,,,,bars/016.png,bars/mask003.png,,,,,,,,,,,,3,1,,,,,,,4,2,3,3,,,,,,,,,,,210.9681,211.4679,211.718,213.926,space,2.2014,,213.9261,2,57,214.9262,214.9262,215.3544,space,0.4168,,0,16,16,16,1,40,165,,,,,,,,
,,5f1b768bba959b371da3e65f,65af54f991bb652b9495ba90,2024-01-23_03h36.59.269,bars,2023.2.3,Win32,119.047619,657b66ea316d21385b68909f,,,,,,,,,,,215.3546,216.3509,,,216.8512,217.101,,102,-78,,,,,,,,,,,,,,,,bars/002.png,bars/mask002.png,,,,,,,,,,,,2,2,,,,,,,2,4,2,4,,,,,,,,,,,216.351,216.8512,217.101,223.0945,space,5.9903,,223.0945,28,17,224.0925,224.0925,224.8927,space,0.7888,,0,17,17,17,1,130,85,,,,,,,,
,,5f1b768bba959b371da3e65f,65af54f991bb652b9495ba90,2024-01-23_03h36.59.269,bars,2023.2.3,Win32,119.047619,657b66ea316d21385b68909f,,,,,,,,,,,224.8935,225.8926,,,226.3927,226.6426,,24,204,,,,,,,,,,,,,,,,bars/016.png,bars/mask004.png,,,,,,,,,,,,0,1,,,,,,,0,2,0,2,,,,,,,,,,,225.8926,226.3926,226.6426,228.8757,space,2.2184,,228.8758,16,39,229.876,229.876,229.9258,space,0.0359,,0,18,18,18,1,40,165,,,,,,,,
,,5f1b768bba959b371da3e65f,65af54f991bb652b9495ba90,2024-01-23_03h36.59.269,bars,2023.2.3,Win32,119.047619,657b66ea316d21385b68909f,,,,,,,,,,,229.9264,230.9284,,,231.4289,231.6756,,162,-18,,,,,,,,,,,,,,,,bars/011.png,bars/mask007.png,,,,,,,,,,,,0,1,,,,,,,0,4,0,4,,,,,,,,,,,230.9284,231.4289,231.6756,234.1507,space,2.4623,,234.1508,2,77,235.1508,235.1508,260.3836,space,25.2148,,0,19,19,19,1,160,85,,,,,,,,
,,5f1b768bba959b371da3e65f,65af54f991bb652b9495ba90,2024-01-23_03h36.59.269,bars,2023.2.3,Win32,119.047619,657b66ea316d21385b68909f,,,,,,,,,,,260.3846,261.3838,,,261.8838,262.1335,,33,33,,,,,,,,,,,,,,,,bars/047.png,bars/mask000.png,,,,,,,,,,,,0,1,,,,,,,2,2,1,3,,,,,,,,,,,261.3839,261.8837,262.1336,264.9089,space,2.7594,,264.909,18,37,265.9084,265.9084,266.4004,space,0.4757,,0,20,20,20,1,15,70,,,,,,,,
,,5f1b768bba959b371da3e65f,65af54f991bb652b9495ba90,2024-01-23_03h36.59.269,bars,2023.2.3,Win32,119.047619,657b66ea316d21385b68909f,,,,,,,,,,,266.4011,267.4001,,,267.904,268.1501,,130,130,,,,,,,,,,,,,,,,bars/032.png,bars/mask007.png,,,,,,,,,,,,0,1,,,,,,,0,4,0,5,,,,,,,,,,,267.4001,267.904,268.1501,271.9,space,3.7443,,271.9,5,70,272.9001,272.9001,273.1749,space,0.2638,,0,21,21,21,1,125,20,,,,,,,,
,,5f1b768bba959b371da3e65f,65af54f991bb652b9495ba90,2024-01-23_03h36.59.269,bars,2023.2.3,Win32,119.047619,657b66ea316d21385b68909f,,,,,,,,,,,273.1755,274.1752,,,274.6749,274.9249,,109,109,,,,,,,,,,,,,,,,bars/001.png,bars/mask003.png,,,,,,,,,,,,1,1,,,,,,,2,2,2,2,,,,,,,,,,,274.1752,274.6749,274.9249,277.2336,space,2.3047,,277.2337,21,24,278.2333,278.2333,279.0768,space,0.8326,,0,22,22,22,1,130,85,,,,,,,,
,,5f1b768bba959b371da3e65f,65af54f991bb652b9495ba90,2024-01-23_03h36.59.269,bars,2023.2.3,Win32,119.047619,657b66ea316d21385b68909f,,,,,,,,,,,279.077,280.0749,,,280.5748,280.8249,,165,165,,,,,,,,,,,,,,,,bars/021.png,bars/mask007.png,,,,,,,,,,,,0,1,,,,,,,0,4,0,2,,,,,,,,,,,280.0749,280.5748,280.8249,282.6916,space,1.8579,,282.6917,10,85,283.6913,283.6914,283.8418,space,0.1392,,0,23,23,23,1,155,70,,,,,,,,
,,5f1b768bba959b371da3e65f,65af54f991bb652b9495ba90,2024-01-23_03h36.59.269,bars,2023.2.3,Win32,119.047619,657b66ea316d21385b68909f,,,,,,,,,,,283.8425,284.8415,,,285.3416,285.5915,,90,90,,,,,,,,,,,,,,,,bars/014.png,bars/mask002.png,,,,,,,,,,,,1,1,,,,,,,2,2,2,1,,,,,,,,,,,284.8415,285.3415,285.5915,289.1589,space,3.558,,289.159,10,90,290.1582,290.1582,290.2915,space,0.1175,,0,24,24,24,1,80,0,,,,,,,,
,,5f1b768bba959b371da3e65f,65af54f991bb652b9495ba90,2024-01-23_03h36.59.269,bars,2023.2.3,Win32,119.047619,657b66ea316d21385b68909f,,,,,,,,,,,290.2921,291.2915,,,291.7915,292.0413,,2,182,,,,,,,,,,,,,,,,bars/010.png,bars/mask001.png,,,,,,,,,,,,1,1,,,,,,,4,4,3,5,,,,,,,,,,,291.2916,291.7915,292.0413,292.6913,space,0.6452,,292.6914,17,53,293.6914,293.6915,294.0746,space,0.3715,,0,25,25,25,1,165,55,,,,,,,,
,,5f1b768bba959b371da3e65f,65af54f991bb652b9495ba90,2024-01-23_03h36.59.269,bars,2023.2.3,Win32,119.047619,657b66ea316d21385b68909f,,,,,,,,,,,294.0752,295.0747,,,295.5746,295.8246,,147,147,,,,,,,,,,,,,,,,bars/036.png,bars/mask002.png,,,,,,,,,,,,6,1,,,,,,,6,2,6,3,,,,,,,,,,,295.0747,295.5746,295.8246,296.583,space,0.7461,,296.5831,2,53,297.583,297.583,297.8496,space,0.2521,,0,26,26,26,1,145,20,,,,,,,,
,,5f1b768bba959b371da3e65f,65af54f991bb652b9495ba90,2024-01-23_03h36.59.269,bars,2023.2.3,Win32,119.047619,657b66ea316d21385b68909f,,,,,,,,,,,297.8501,298.8495,,,299.3495,299.5995,,179,-1,,,,,,,,,,,,,,,,bars/035.png,bars/mask005.png,,,,,,,,,,,,6,1,,,,,,,8,4,7,4,,,,,,,,,,,298.8495,299.3495,299.5995,302.4442,space,2.842,,302.4442,4,61,303.441,303.441,304.4414,space,0.9892,,0,27,27,27,1,175,60,,,,,,,,
,,5f1b768bba959b371da3e65f,65af54f991bb652b9495ba90,2024-01-23_03h36.59.269,bars,2023.2.3,Win32,119.047619,657b66ea316d21385b68909f,,,,,,,,,,,304.4421,305.4412,,,305.9411,306.1913,,100,100,,,,,,,,,,,,,,,,bars/027.png,bars/mask008.png,,,,,,,,,,,,7,1,,,,,,,10,6,10,5,,,,,,,,,,,305.4412,305.9411,306.1913,309.1159,space,2.9166,,309.116,10,50,310.1159,310.1159,310.9326,space,0.8047,,0,28,28,28,1,110,50,,,,,,,,
,,5f1b768bba959b371da3e65f,65af54f991bb652b9495ba90,2024-01-23_03h36.59.269,bars,2023.2.3,Win32,119.047619,657b66ea316d21385b68909f,,,,,,,,,,,310.9333,311.9326,,,312.4326,312.6825,,120,120,,,,,,,,,,,,,,,,bars/031.png,bars/mask000.png,,,,,,,,,,,,10,1,,,,,,,10,4,10,4,,,,,,,,,,,311.9326,312.4326,312.6826,315.4076,space,2.7171,,315.4077,0,85,316.4075,316.4075,317.3409,space,0.9204,,0,29,29,29,1,120,35,,,,,,,,
,,5f1b768bba959b371da3e65f,65af54f991bb652b9495ba90,2024-01-23_03h36.59.269,bars,2023.2.3,Win32,119.047619,657b66ea316d21385b68909f,,,,,,,,,,,317.3415,318.3408,,,318.8407,319.0908,,84,84,,,,,,,,,,,,,,,,bars/013.png,bars/mask008.png,,,,,,,,,,,,5,1,,,,,,,8,6,7,5,,,,,,,,,,,318.3408,318.8407,319.0908,321.7657,space,2.6625,,321.7659,9,74,322.7659,322.7659,323.0158,space,0.234,,0,30,30,30,1,75,10,,,,,,,,
,,5f1b768bba959b371da3e65f,65af54f991bb652b9495ba90,2024-01-23_03h36.59.269,bars,2023.2.3,Win32,119.047619,657b66ea316d21385b68909f,,,,,,,,,,,323.0163,324.0156,,,324.5157,324.7657,,2,182,,,,,,,,,,,,,,,,bars/039.png,bars/mask001.png,,,,,,,,,,,,5,1,,,,,,,6,8,6,10,,,,,,,,,,,324.0156,324.5157,324.7658,326.8657,space,2.0849,,326.8657,7,77,327.8656,327.8656,328.1245,space,0.2427,,0,31,31,31,1,175,105,,,,,,,,
,,5f1b768bba959b371da3e65f,65af54f991bb652b9495ba90,2024-01-23_03h36.59.269,bars,2023.2.3,Win32,119.047619,657b66ea316d21385b68909f,,,,,,,,,,,328.1251,329.124,,,329.6239,329.8739,,98,98,,,,,,,,,,,,,,,,bars/008.png,bars/mask002.png,,,,,,,,,,,,2,1,,,,,,,4,10,4,10,,,,,,,,,,,329.124,329.6239,329.874,331.5324,space,1.6524,,331.5324,12,82,332.5324,332.5325,341.4156,space,8.8655,,0,32,32,32,1,110,0,,,,,,,,
,,5f1b768bba959b371da3e65f,65af54f991bb652b9495ba90,2024-01-23_03h36.59.269,bars,2023.2.3,Win32,119.047619,657b66ea316d21385b68909f,,,,,,,,,,,341.4215,342.4157,,,342.9156,343.1654,,66,66,,,,,,,,,,,,,,,,bars/019.png,bars/mask007.png,,,,,,,,,,,,1,1,,,,,,,2,10,2,9,,,,,,,,,,,342.4157,342.9156,343.1654,345.1654,space,1.9919,,345.1655,21,39,346.1655,346.1655,346.2903,space,0.1111,,0,33,33,33,1,45,105,,,,,,,,
,,5f1b768bba959b371da3e65f,65af54f991bb652b9495ba90,2024-01-23_03h36.59.269,bars,2023.2.3,Win32,119.047619,657b66ea316d21385b68909f,,,,,,,,,,,346.2909,347.2902,,,347.7905,348.0403,,119,119,,,,,,,,,,,,,,,,bars/045.png,bars/mask005.png,,,,,,,,,,,,0,1,,,,,,,0,8,1,7,,,,,,,,,,,347.2902,347.7905,348.0403,349.6152,space,1.568,,349.6152,19,71,350.6152,350.6152,350.9403,space,0.313,,0,34,34,34,1,100,10,,,,,,,,
,,5f1b768bba959b371da3e65f,65af54f991bb652b9495ba90,2024-01-23_03h36.59.269,bars,2023.2.3,Win32,119.047619,657b66ea316d21385b68909f,,,,,,,,,,,350.9409,351.9404,,,352.4404,352.6902,,1,1,,,,,,,,,,,,,,,,bars/035.png,bars/mask009.png,,,,,,,,,,,,0,1,,,,,,,0,10,0,9,,,,,,,,,,,351.9405,352.4404,352.6902,354.7819,space,2.0839,,354.7821,6,59,355.7818,355.7818,363.7234,space,7.936,,0,35,35,35,1,175,60,,,,,,,,
,,5f1b768bba959b371da3e65f,65af54f991bb652b9495ba90,2024-01-23_03h36.59.269,bars,2023.2.3,Win32,119.047619,657b66ea316d21385b68909f,,,,,,,,,,,363.7309,364.7234,,,365.2233,365.4733,,170,-10,,,,,,,,,,,,,,,,bars/033.png,bars/mask008.png,,,,,,,,,,,,4,2,,,,,,,2,8,4,7,,,,,,,,,,,364.7234,365.2233,365.4733,369.0677,space,3.5834,,369.0677,35,15,370.065,370.0651,370.94,space,0.8586,,0,36,36,36,1,25,155,,,,,,,,
,,5f1b768bba959b371da3e65f,65af54f991bb652b9495ba90,2024-01-23_03h36.59.269,bars,2023.2.3,Win32,119.047619,657b66ea316d21385b68909f,,,,,,,,,,,370.9406,371.9399,,,372.4399,372.6901,,107,107,,,,,,,,,,,,,,,,bars/008.png,bars/mask009.png,,,,,,,,,,,,0,1,,,,,,,0,6,0,5,,,,,,,,,,,371.9399,372.4399,372.6902,375.4565,space,2.7538,,375.4565,3,73,376.4566,376.4566,376.7899,space,0.3161,,0,37,37,37,1,110,0,,,,,,,,
,,5f1b768bba959b371da3e65f,65af54f991bb652b9495ba90,2024-01-23_03h36.59.269,bars,2023.2.3,Win32,119.047619,657b66ea316d21385b68909f,,,,,,,,,,,376.7904,377.7925,,,378.2898,378.5397,,108,108,,,,,,,,,,,,,,,,bars/001.png,bars/mask002.png,,,,,,,,,,,,1,1,,,,,,,2,8,2,8,,,,,,,,,,,377.7925,378.2898,378.5397,380.1596,space,1.609,,380.1597,22,23,381.1563,381.1563,486.563,space,105.3971,,0,38,38,38,1,130,85,,,,,,,,
,,5f1b768bba959b371da3e65f,65af54f991bb652b9495ba90,2024-01-23_03h36.59.269,bars,2023.2.3,Win32,119.047619,657b66ea316d21385b68909f,,,,,,,,,,,486.5691,487.5631,,,488.0628,488.3128,,143,143,,,,,,,,,,,,,,,,bars/038.png,bars/mask003.png,,,,,,,,,,,,1,1,,,,,,,4,10,5,10,,,,,,,,,,,487.5631,488.0628,488.3129,491.6127,space,3.2878,,491.6127,22,73,492.613,492.6131,492.8044,space,0.1792,,0,39,39,39,1,165,70,,,,,,,,
,,5f1b768bba959b371da3e65f,65af54f991bb652b9495ba90,2024-01-23_03h36.59.269,bars,2023.2.3,Win32,119.047619,657b66ea316d21385b68909f,,,,,,,,,,,492.8049,493.8044,,,494.3044,494.5544,,153,153,,,,,,,,,,,,,,,,bars/042.png,bars/mask008.png,,,,,,,,,,,,4,1,,,,,,,6,10,5,10,,,,,,,,,,,493.8044,494.3043,494.5544,496.5876,space,2.0204,,496.5876,8,78,497.5878,497.5879,498.0209,space,0.4174,,0,40,40,40,1,145,75,,,,,,,,
,,5f1b768bba959b371da3e65f,65af54f991bb652b9495ba90,2024-01-23_03h36.59.269,bars,2023.2.3,Win32,119.047619,657b66ea316d21385b68909f,,,,,,,,,,,498.0213,499.0211,,,499.5212,499.7716,,85,85,,,,,,,,,,,,,,,,bars/002.png,bars/mask008.png,,,,,,,,,,,,6,2,,,,,,,8,8,8,6,,,,,,,,,,,499.0212,499.5211,499.7716,503.0792,space,3.295,,503.0792,45,0,504.0791,504.0792,504.6375,space,0.5425,,0,41,41,41,1,130,85,,,,,,,,
,,5f1b768bba959b371da3e65f,65af54f991bb652b9495ba90,2024-01-23_03h36.59.269,bars,2023.2.3,Win32,119.047619,657b66ea316d21385b68909f,,,,,,,,,,,504.6381,505.6375,,,506.1374,506.3875,,47,47,,,,,,,,,,,,,,,,bars/021.png,bars/mask001.png,,,,,,,,,,,,2,2,,,,,,,6,10,5,10,,,,,,,,,,,505.6375,506.1374,506.3875,508.3375,space,1.9418,,508.3375,72,23,509.3373,509.3373,509.9291,space,0.5763,,0,42,42,42,1,155,70,,,,,,,,
,,5f1b768bba959b371da3e65f,65af54f991bb652b9495ba90,2024-01-23_03h36.59.269,bars,2023.2.3,Win32,119.047619,657b66ea316d21385b68909f,,,,,,,,,,,509.9296,510.9291,,,511.4293,511.679,,77,77,,,,,,,,,,,,,,,,bars/019.png,bars/mask005.png,,,,,,,,,,,,1,2,,,,,,,8,10,9,10,,,,,,,,,,,510.9291,511.4292,511.679,513.2623,space,1.5755,,513.2623,32,28,514.2623,514.2623,514.4789,space,0.2028,,0,43,43,43,1,45,105,,,,,,,,
,,5f1b768bba959b371da3e65f,65af54f991bb652b9495ba90,2024-01-23_03h36.59.269,bars,2023.2.3,Win32,119.047619,657b66ea316d21385b68909f,,,,,,,,,,,514.4794,515.4793,,,515.9793,516.2289,,1,181,,,,,,,,,,,,,,,,bars/033.png,bars/mask001.png,,,,,,,,,,,,2,1,,,,,,,10,10,10,10,,,,,,,,,,,515.4793,515.9793,516.229,520.4982,space,4.2586,,520.4982,24,26,521.4955,521.4957,521.8123,space,0.3024,,0,44,44,44,1,25,155,,,,,,,,
,,5f1b768bba959b371da3e65f,65af54f991bb652b9495ba90,2024-01-23_03h36.59.269,bars,2023.2.3,Win32,119.047619,657b66ea316d21385b68909f,,,,,,,,,,,521.8129,522.812,,,523.3125,523.5622,,105,105,,,,,,,,,,,,,,,,bars/023.png,bars/mask003.png,,,,,,,,,,,,5,2,,,,,,,10,8,10,8,,,,,,,,,,,522.8121,523.3124,523.5622,525.5704,space,1.9995,,525.5705,85,10,526.5704,526.5704,594.2194,space,67.6364,,0,45,45,45,1,20,115,,,,,,,,
,,5f1b768bba959b371da3e65f,65af54f991bb652b9495ba90,2024-01-23_03h36.59.269,bars,2023.2.3,Win32,119.047619,657b66ea316d21385b68909f,,,,,,,,,,,594.2203,595.2195,,,595.7195,595.9693,,55,55,,,,,,,,,,,,,,,,bars/010.png,bars/mask001.png,,,,,,,,,,,,10,2,,,,,,,10,10,10,10,,,,,,,,,,,595.2196,595.7194,595.9694,597.4193,space,1.4343,,597.4195,70,0,598.4192,598.4193,599.2359,space,0.8034,,0,46,46,46,1,165,55,,,,,,,,
,,5f1b768bba959b371da3e65f,65af54f991bb652b9495ba90,2024-01-23_03h36.59.269,bars,2023.2.3,Win32,119.047619,657b66ea316d21385b68909f,,,,,,,,,,,599.2366,600.2358,,,600.7361,600.9859,,70,250,,,,,,,,,,,,,,,,bars/029.png,bars/mask009.png,,,,,,,,,,,,3,1,,,,,,,10,10,10,10,,,,,,,,,,,600.2359,600.736,600.986,604.5692,space,3.5766,,604.5692,20,25,605.5692,605.5692,611.6439,space,6.0615,,0,47,47,47,1,90,45,,,,,,,,
,,5f1b768bba959b371da3e65f,65af54f991bb652b9495ba90,2024-01-23_03h36.59.269,bars,2023.2.3,Win32,119.047619,657b66ea316d21385b68909f,,,,,,,,,,,611.6515,612.645,,,613.1442,613.394,,60,240,,,,,,,,,,,,,,,,bars/029.png,bars/mask004.png,,,,,,,,,,,,5,2,,,,,,,10,10,10,10,,,,,,,,,,,612.6451,613.1442,613.394,616.7107,space,3.3009,,616.7107,30,15,617.7105,617.7105,637.7518,space,20.0291,,0,48,48,48,1,90,45,,,,,,,,
,,5f1b768bba959b371da3e65f,65af54f991bb652b9495ba90,2024-01-23_03h36.59.269,bars,2023.2.3,Win32,119.047619,657b66ea316d21385b68909f,,,,,,,,,,,637.758,638.7519,,,639.2518,639.5019,,172,172,,,,,,,,,,,,,,,,bars/030.png,bars/mask009.png,,,,,,,,,,,,0,1,,,,,,,8,8,6,6,,,,,,,,,,,638.752,639.2518,639.5019,713.4588,space,73.9491,,713.4588,32,73,714.4531,714.4531,716.2004,space,1.7357,,0,49,49,49,1,140,65,,,,,,,,
,,5f1b768bba959b371da3e65f,65af54f991bb652b9495ba90,2024-01-23_03h36.59.269,bars,2023.2.3,Win32,119.047619,657b66ea316d21385b68909f,,,,,,,,,,,,,,,,,,,,,,,,,,,,,,,,,,,,,,,,,,,,,,,,,,,,,,,,,,,,,,,,,,,,,,,,,,,,,,,,,,,,,,,,,,,,,716.201,776.1997,0,0,0,2,1,sequence_tables/blk041.csv
,,5f1b768bba959b371da3e65f,65af54f991bb652b9495ba90,2024-01-23_03h36.59.269,bars,2023.2.3,Win32,119.047619,657b66ea316d21385b68909f,,,,,,,,,,,900.9734,901.9721,,,902.4721,902.722,,140,140,,,,,,,,,,,,,,,,bars/004.png,bars/mask007.png,,,,,,,,,,,,4,2,,,,,,,1,9,1,7,,,,,,776.2058,900.964,space,124.7485,,901.9722,902.472,902.722,903.3222,space,0.5922,,903.3222,65,15,904.3221,904.3221,904.3241,,,,0,0,0,0,1,25,125,,,,,,,,
,,5f1b768bba959b371da3e65f,65af54f991bb652b9495ba90,2024-01-23_03h36.59.269,bars,2023.2.3,Win32,119.047619,657b66ea316d21385b68909f,,,,,,,,,,,904.3244,905.322,,,905.822,906.072,,7,187,,,,,,,,,,,,,,,,bars/008.png,bars/mask004.png,,,,,,,,,,,,5,2,,,,,,,3,7,5,6,,,,,,,,,,,905.322,905.8219,906.072,908.8829,space,2.8002,,908.8829,77,7,909.8805,909.8806,909.8863,,,,0,1,1,1,1,110,0,,,,,,,,
,,5f1b768bba959b371da3e65f,65af54f991bb652b9495ba90,2024-01-23_03h36.59.269,bars,2023.2.3,Win32,119.047619,657b66ea316d21385b68909f,,,,,,,,,,,909.8865,910.8804,,,911.3803,911.6304,,4,184,,,,,,,,,,,,,,,,bars/032.png,bars/mask001.png,,,,,,,,,,,,4,2,,,,,,,5,9,4,9,,,,,,,,,,,910.8804,911.3802,911.6304,913.2244,space,1.591,,913.2244,59,16,914.222,914.222,914.2232,,,,0,2,2,2,1,125,20,,,,,,,,
,,5f1b768bba959b371da3e65f,65af54f991bb652b9495ba90,2024-01-23_03h36.59.269,bars,2023.2.3,Win32,119.047619,657b66ea316d21385b68909f,,,,,,,,,,,914.2233,915.2217,,,915.7222,915.9717,,24,24,,,,,,,,,,,,,,,,bars/036.png,bars/mask007.png,,,,,,,,,,,,9,2,,,,,,,3,7,5,10,,,,,,,,,,,915.2218,915.7221,915.9717,917.5077,space,1.5247,,917.5077,59,4,918.5052,918.5052,918.5063,,,,0,3,3,3,1,145,20,,,,,,,,
,,5f1b768bba959b371da3e65f,65af54f991bb652b9495ba90,2024-01-23_03h36.59.269,bars,2023.2.3,Win32,119.047619,657b66ea316d21385b68909f,,,,,,,,,,,918.5065,919.5051,,,920.0054,920.255,,87,87,,,,,,,,,,,,,,,,bars/034.png,bars/mask007.png,,,,,,,,,,,,1,2,,,,,,,1,5,1,4,,,,,,,,,,,919.5051,920.0053,920.255,921.9993,space,1.7416,,921.9993,38,22,922.9966,922.9966,923.0026,,,,0,4,4,4,1,125,65,,,,,,,,
,,5f1b768bba959b371da3e65f,65af54f991bb652b9495ba90,2024-01-23_03h36.59.269,bars,2023.2.3,Win32,119.047619,657b66ea316d21385b68909f,,,,,,,,,,,923.0028,923.9968,,,924.4966,924.7466,,116,116,,,,,,,,,,,,,,,,bars/023.png,bars/mask000.png,,,,,,,,,,,,1,2,,,,,,,3,3,5,1,,,,,,,,,,,923.9968,924.4966,924.7466,925.4383,space,0.6851,,925.4383,84,1,926.4384,926.4384,926.4394,,,,0,5,5,5,1,20,115,,,,,,,,
,,5f1b768bba959b371da3e65f,65af54f991bb652b9495ba90,2024-01-23_03h36.59.269,bars,2023.2.3,Win32,119.047619,657b66ea316d21385b68909f,,,,,,,,,,,926.4396,927.4383,,,927.9384,928.1884,,142,-38,,,,,,,,,,,,,,,,bars/001.png,bars/mask002.png,,,,,,,,,,,,4,1,,,,,,,5,1,7,2,,,,,,,,,,,927.4383,927.9384,928.1885,930.4382,space,2.2452,,930.4382,12,57,931.4383,931.4384,931.4445,,,,0,6,6,6,1,130,85,,,,,,,,
,,5f1b768bba959b371da3e65f,65af54f991bb652b9495ba90,2024-01-23_03h36.59.269,bars,2023.2.3,Win32,119.047619,657b66ea316d21385b68909f,,,,,,,,,,,931.4447,932.4469,,,932.9465,933.1965,,160,-20,,,,,,,,,,,,,,,,bars/003.png,bars/mask004.png,,,,,,,,,,,,1,2,,,,,,,3,3,3,3,,,,,,,,,,,932.4469,932.9465,933.1965,935.0577,space,1.8582,,935.0578,45,20,936.0547,936.0547,936.0609,,,,0,7,7,7,1,25,140,,,,,,,,
,,5f1b768bba959b371da3e65f,65af54f991bb652b9495ba90,2024-01-23_03h36.59.269,bars,2023.2.3,Win32,119.047619,657b66ea316d21385b68909f,,,,,,,,,,,936.0611,937.0549,,,937.5548,937.8047,,42,222,,,,,,,,,,,,,,,,bars/007.png,bars/mask008.png,,,,,,,,,,,,1,2,,,,,,,5,1,3,1,,,,,,,,,,,937.0549,937.5548,937.8047,940.8483,space,3.026,,940.8483,47,13,941.8487,941.8488,941.8542,,,,0,8,8,8,1,175,55,,,,,,,,
,,5f1b768bba959b371da3e65f,65af54f991bb652b9495ba90,2024-01-23_03h36.59.269,bars,2023.2.3,Win32,119.047619,657b66ea316d21385b68909f,,,,,,,,,,,941.8544,942.8546,,,943.3547,943.5994,,38,38,,,,,,,,,,,,,,,,bars/020.png,bars/mask001.png,,,,,,,,,,,,0,2,,,,,,,3,3,2,5,,,,,,,,,,,942.8546,943.3547,943.5995,944.7658,space,1.1585,,944.7659,77,48,945.763,945.763,945.7643,,,,0,9,9,9,1,115,170,,,,,,,,
,,5f1b768bba959b371da3e65f,65af54f991bb652b9495ba90,2024-01-23_03h36.59.269,bars,2023.2.3,Win32,119.047619,657b66ea316d21385b68909f,,,,,,,,,,,945.7645,946.7587,,,947.2545,947.5047,,140,140,,,,,,,,,,,,,,,,bars/005.png,bars/mask004.png,,,,,,,,,,,,0,2,,,,,,,1,1,0,0,,,,,,,,,,,946.7587,947.2545,947.5047,964.2877,space,16.767,,964.2877,50,0,965.2876,965.2876,965.2945,,,,0,10,10,10,1,10,140,,,,,,,,
,,5f1b768bba959b371da3e65f,65af54f991bb652b9495ba90,2024-01-23_03h36.59.269,bars,2023.2.3,Win32,119.047619,657b66ea316d21385b68909f,,,,,,,,,,,965.2946,966.296,,,966.796,967.0459,,136,136,,,,,,,,,,,,,,,,bars/000.png,bars/mask003.png,,,,,,,,,,,,0,2,,,,,,,3,0,3,0,,,,,,,,,,,966.296,966.7959,967.0459,968.8625,space,1.8083,,968.8625,84,9,969.8625,969.8625,969.8683,,,,0,11,11,11,1,40,145,,,,,,,,
,,5f1b768bba959b371da3e65f,65af54f991bb652b9495ba90,2024-01-23_03h36.59.269,bars,2023.2.3,Win32,119.047619,657b66ea316d21385b68909f,,,,,,,,,,,969.8684,970.8625,,,971.3627,971.6125,,60,60,,,,,,,,,,,,,,,,bars/007.png,bars/mask009.png,,,,,,,,,,,,0,2,,,,,,,5,0,6,0,,,,,,,,,,,970.8625,971.3627,971.6125,974.3875,space,2.7587,,974.3875,65,5,975.3816,975.3816,975.3868,,,,0,12,12,12,1,175,55,,,,,,,,
,,5f1b768bba959b371da3e65f,65af54f991bb652b9495ba90,2024-01-23_03h36.59.269,bars,2023.2.3,Win32,119.047619,657b66ea316d21385b68909f,,,,,,,,,,,975.387,976.3875,,,976.8875,977.1373,,10,190,,,,,,,,,,,,,,,,bars/048.png,bars/mask009.png,,,,,,,,,,,,1,2,,,,,,,7,2,7,2,,,,,,,,,,,976.3876,976.8875,977.1373,979.6236,space,2.4834,,979.6237,40,15,980.6208,980.6208,980.6266,,,,0,13,13,13,1,50,175,,,,,,,,
,,5f1b768bba959b371da3e65f,65af54f991bb652b9495ba90,2024-01-23_03h36.59.269,bars,2023.2.3,Win32,119.047619,657b66ea316d21385b68909f,,,,,,,,,,,980.6267,981.6208,,,982.1206,982.3706,,91,91,,,,,,,,,,,,,,,,bars/001.png,bars/mask004.png,,,,,,,,,,,,4,2,,,,,,,5,4,6,5,,,,,,,,,,,981.6208,982.1206,982.3706,984.8288,space,2.4535,,984.8289,39,6,985.8289,985.8289,985.835,,,,0,14,14,14,1,130,85,,,,,,,,
,,5f1b768bba959b371da3e65f,65af54f991bb652b9495ba90,2024-01-23_03h36.59.269,bars,2023.2.3,Win32,119.047619,657b66ea316d21385b68909f,,,,,,,,,,,985.8351,986.8291,,,987.3288,987.5789,,10,190,,,,,,,,,,,,,,,,bars/014.png,bars/mask002.png,,,,,,,,,,,,1,2,,,,,,,3,2,3,1,,,,,,,,,,,986.8291,987.3288,987.5789,988.504,space,0.9092,,988.504,70,10,989.5038,989.5038,989.5048,,,,0,15,15,15,1,80,0,,,,,,,,
,,5f1b768bba959b371da3e65f,65af54f991bb652b9495ba90,2024-01-23_03h36.59.269,bars,2023.2.3,Win32,119.047619,657b66ea316d21385b68909f,,,,,,,,,,,989.5051,990.5038,,,991.0041,991.2537,,71,71,,,,,,,,,,,,,,,,bars/027.png,bars/mask000.png,,,,,,,,,,,,0,2,,,,,,,1,0,3,0,,,,,,,,,,,990.5038,991.0041,991.2537,993.9537,space,2.6925,,993.9537,39,21,994.9537,994.9537,994.9594,,,,0,16,16,16,1,110,50,,,,,,,,
,,5f1b768bba959b371da3e65f,65af54f991bb652b9495ba90,2024-01-23_03h36.59.269,bars,2023.2.3,Win32,119.047619,657b66ea316d21385b68909f,,,,,,,,,,,994.9595,995.9536,,,996.4539,996.7039,,130,130,,,,,,,,,,,,,,,,bars/006.png,bars/mask006.png,,,,,,,,,,,,0,2,,,,,,,0,2,0,1,,,,,,,,,,,995.9537,996.4539,996.7039,998.862,space,2.1527,,998.862,85,30,999.8622,999.8622,999.8679,,,,0,17,17,17,1,35,100,,,,,,,,
,,5f1b768bba959b371da3e65f,65af54f991bb652b9495ba90,2024-01-23_03h36.59.269,bars,2023.2.3,Win32,119.047619,657b66ea316d21385b68909f,,,,,,,,,,,999.8681,1000.8703,,,1001.3706,1001.6202,,90,90,,,,,,,,,,,,,,,,bars/011.png,bars/mask006.png,,,,,,,,,,,,4,2,,,,,,,2,4,2,5,,,,,,,,,,,1000.8703,1001.3705,1001.6202,1003.6288,space,2.0003,,1003.6289,70,5,1004.6288,1004.6288,1004.6298,,,,0,18,18,18,1,160,85,,,,,,,,
,,5f1b768bba959b371da3e65f,65af54f991bb652b9495ba90,2024-01-23_03h36.59.269,bars,2023.2.3,Win32,119.047619,657b66ea316d21385b68909f,,,,,,,,,,,1004.63,1005.6285,,,1006.1286,1006.3785,,109,109,,,,,,,,,,,,,,,,bars/026.png,bars/mask001.png,,,,,,,,,,,,0,2,,,,,,,0,2,0,2,,,,,,,,,,,1005.6285,1006.1285,1006.3785,1009.5201,space,3.1375,,1009.5201,74,24,1010.5201,1010.5201,1010.5263,,,,0,19,19,19,1,35,85,,,,,,,,
,,5f1b768bba959b371da3e65f,65af54f991bb652b9495ba90,2024-01-23_03h36.59.269,bars,2023.2.3,Win32,119.047619,657b66ea316d21385b68909f,,,,,,,,,,,1010.5264,1011.5203,,,1012.0201,1012.2701,,44,44,,,,,,,,,,,,,,,,bars/029.png,bars/mask004.png,,,,,,,,,,,,4,2,,,,,,,0,4,0,4,,,,,,,,,,,1011.5204,1012.02,1012.2701,1015.9201,space,3.6423,,1015.9202,46,1,1016.9199,1016.92,1016.9256,,,,0,20,20,20,1,90,45,,,,,,,,
,,5f1b768bba959b371da3e65f,65af54f991bb652b9495ba90,2024-01-23_03h36.59.269,bars,2023.2.3,Win32,119.047619,657b66ea316d21385b68909f,,,,,,,,,,,1016.9257,1017.92,,,1018.4202,1018.6702,,179,179,,,,,,,,,,,,,,,,bars/012.png,bars/mask003.png,,,,,,,,,,,,3,2,,,,,,,0,6,1,7,,,,,,,,,,,1017.9201,1018.4201,1018.6702,1020.72,space,2.0455,,1020.7201,89,16,1021.7201,1021.7201,1021.7258,,,,0,21,21,21,1,90,15,,,,,,,,
,,5f1b768bba959b371da3e65f,65af54f991bb652b9495ba90,2024-01-23_03h36.59.269,bars,2023.2.3,Win32,119.047619,657b66ea316d21385b68909f,,,,,,,,,,,1021.7259,1022.7201,,,1023.2202,1023.4699,,91,91,,,,,,,,,,,,,,,,bars/019.png,bars/mask004.png,,,,,,,,,,,,3,2,,,,,,,0,4,0,5,,,,,,,,,,,1022.7201,1023.2202,1023.47,1026.5783,space,3.0969,,1026.5784,46,14,1027.5724,1027.5724,1027.5777,,,,0,22,22,22,1,45,105,,,,,,,,
,,5f1b768bba959b371da3e65f,65af54f991bb652b9495ba90,2024-01-23_03h36.59.269,bars,2023.2.3,Win32,119.047619,657b66ea316d21385b68909f,,,,,,,,,,,1027.5778,1028.5781,,,1029.0781,1029.3227,,137,137,,,,,,,,,,,,,,,,bars/000.png,bars/mask002.png,,,,,,,,,,,,4,2,,,,,,,0,6,1,6,,,,,,,,,,,1028.5781,1029.078,1029.3227,1031.2115,space,1.878,,1031.2116,83,8,1032.2114,1032.2115,1032.2173,,,,0,23,23,23,1,40,145,,,,,,,,
,,5f1b768bba959b371da3e65f,65af54f991bb652b9495ba90,2024-01-23_03h36.59.269,bars,2023.2.3,Win32,119.047619,657b66ea316d21385b68909f,,,,,,,,,,,1032.2175,1033.2113,,,1033.7115,1033.9614,,175,175,,,,,,,,,,,,,,,,bars/005.png,bars/mask008.png,,,,,,,,,,,,1,1,,,,,,,0,4,1,6,,,,,,,,,,,1033.2114,1033.7114,1033.9615,1043.0477,space,9.075,,1043.0477,15,35,1044.0474,1044.0475,1044.0558,,,,0,24,24,24,1,10,140,,,,,,,,
,,5f1b768bba959b371da3e65f,65af54f991bb652b9495ba90,2024-01-23_03h36.59.269,bars,2023.2.3,Win32,119.047619,657b66ea316d21385b68909f,,,,,,,,,,,1044.056,1045.0532,,,1045.5533,1045.8033,,120,120,,,,,,,,,,,,,,,,bars/020.png,bars/mask002.png,,,,,,,,,,,,0,1,,,,,,,0,2,0,1,,,,,,,,,,,1045.0532,1045.5532,1045.8034,1061.2026,space,15.3869,,1061.2027,5,50,1062.1971,1062.1971,1062.2035,,,,0,25,25,25,1,115,170,,,,,,,,
,,5f1b768bba959b371da3e65f,65af54f991bb652b9495ba90,2024-01-23_03h36.59.269,bars,2023.2.3,Win32,119.047619,657b66ea316d21385b68909f,,,,,,,,,,,1062.2037,1063.2024,,,1063.7029,1063.9524,,172,172,,,,,,,,,,,,,,,,bars/001.png,bars/mask009.png,,,,,,,,,,,,0,1,,,,,,,2,4,4,4,,,,,,,,,,,1063.2024,1063.7028,1063.9524,1076.6606,space,12.6999,,1076.6606,42,87,1077.6605,1077.6605,1077.6669,,,,0,26,26,26,1,130,85,,,,,,,,
,,5f1b768bba959b371da3e65f,65af54f991bb652b9495ba90,2024-01-23_03h36.59.269,bars,2023.2.3,Win32,119.047619,657b66ea316d21385b68909f,,,,,,,,,,,1077.667,1078.669,,,1079.169,1079.4189,,150,-30,,,,,,,,,,,,,,,,bars/000.png,bars/mask009.png,,,,,,,,,,,,4,2,,,,,,,0,2,0,5,,,,,,,,,,,1078.669,1079.169,1079.4189,1082.1881,space,2.7583,,1082.1881,70,5,1083.1855,1083.1855,1083.1917,,,,0,27,27,27,1,40,145,,,,,,,,
,,5f1b768bba959b371da3e65f,65af54f991bb652b9495ba90,2024-01-23_03h36.59.269,bars,2023.2.3,Win32,119.047619,657b66ea316d21385b68909f,,,,,,,,,,,1083.1918,1084.1939,,,1084.6941,1084.9439,,55,55,,,,,,,,,,,,,,,,bars/004.png,bars/mask008.png,,,,,,,,,,,,0,1,,,,,,,2,4,1,4,,,,,,,,,,,1084.194,1084.694,1084.944,1086.8356,space,1.8768,,1086.8356,30,70,1087.8381,1087.8381,1087.8449,,,,0,28,28,28,1,25,125,,,,,,,,
,,5f1b768bba959b371da3e65f,65af54f991bb652b9495ba90,2024-01-23_03h36.59.269,bars,2023.2.3,Win32,119.047619,657b66ea316d21385b68909f,,,,,,,,,,,1087.8451,1088.8437,,,1089.3437,1089.5937,,64,64,,,,,,,,,,,,,,,,bars/024.png,bars/mask000.png,,,,,,,,,,,,0,1,,,,,,,0,2,0,3,,,,,,,,,,,1088.8437,1089.3437,1089.5937,1094.0353,space,4.43,,1094.0353,56,74,1095.0294,1095.0295,1095.0348,,,,0,29,29,29,1,120,170,,,,,,,,
,,5f1b768bba959b371da3e65f,65af54f991bb652b9495ba90,2024-01-23_03h36.59.269,bars,2023.2.3,Win32,119.047619,657b66ea316d21385b68909f,,,,,,,,,,,1095.035,1096.0353,,,1096.5352,1096.7852,,35,35,,,,,,,,,,,,,,,,bars/040.png,bars/mask001.png,,,,,,,,,,,,0,2,,,,,,,0,4,0,6,,,,,,,,,,,1096.0354,1096.5352,1096.7852,1112.1215,space,15.3255,,1112.1215,75,30,1113.1208,1113.1209,1113.1286,,,,0,30,30,30,1,140,5,,,,,,,,
,,5f1b768bba959b371da3e65f,65af54f991bb652b9495ba90,2024-01-23_03h36.59.269,bars,2023.2.3,Win32,119.047619,657b66ea316d21385b68909f,,,,,,,,,,,1113.1288,1114.1276,,,1114.6267,1114.8768,,106,106,,,,,,,,,,,,,,,,bars/046.png,bars/mask003.png,,,,,,,,,,,,0,2,,,,,,,0,2,1,1,,,,,,,,,,,1114.1276,1114.6266,1114.8769,1118.6848,space,3.7965,,1118.6848,49,21,1119.6848,1119.6848,1119.6904,,,,0,31,31,31,1,155,85,,,,,,,,
,,5f1b768bba959b371da3e65f,65af54f991bb652b9495ba90,2024-01-23_03h36.59.269,bars,2023.2.3,Win32,119.047619,657b66ea316d21385b68909f,,,,,,,,,,,1119.6905,1120.6849,,,1121.1851,1121.4351,,157,157,,,,,,,,,,,,,,,,bars/045.png,bars/mask003.png,,,,,,,,,,,,0,2,,,,,,,2,4,1,5,,,,,,,,,,,1120.685,1121.185,1121.4351,1132.693,space,11.2455,,1132.693,57,33,1133.693,1133.6931,1133.6995,,,,0,32,32,32,1,100,10,,,,,,,,
,,5f1b768bba959b371da3e65f,65af54f991bb652b9495ba90,2024-01-23_03h36.59.269,bars,2023.2.3,Win32,119.047619,657b66ea316d21385b68909f,,,,,,,,,,,1133.6997,1134.7012,,,1135.2095,1135.4511,,145,-35,,,,,,,,,,,,,,,,bars/047.png,bars/mask009.png,,,,,,,,,,,,0,1,,,,,,,4,2,2,4,,,,,,,,,,,1134.7013,1135.2094,1135.4511,1139.8039,space,4.3499,,1139.804,50,75,1140.8041,1140.8041,1140.8136,,,,0,33,33,33,1,15,70,,,,,,,,
,,5f1b768bba959b371da3e65f,65af54f991bb652b9495ba90,2024-01-23_03h36.59.269,bars,2023.2.3,Win32,119.047619,657b66ea316d21385b68909f,,,,,,,,,,,1140.8139,1141.8094,,,1142.3094,1142.5595,,165,165,,,,,,,,,,,,,,,,bars/012.png,bars/mask002.png,,,,,,,,,,,,0,2,,,,,,,2,4,0,3,,,,,,,,,,,1141.8094,1142.3094,1142.5595,1146.7011,space,4.1336,,1146.7012,75,30,1147.7011,1147.7011,1147.7072,,,,0,34,34,34,1,90,15,,,,,,,,
,,5f1b768bba959b371da3e65f,65af54f991bb652b9495ba90,2024-01-23_03h36.59.269,bars,2023.2.3,Win32,119.047619,657b66ea316d21385b68909f,,,,,,,,,,,1147.7074,1148.7095,,,1149.2034,1149.4511,,11,191,,,,,,,,,,,,,,,,bars/014.png,bars/mask004.png,,,,,,,,,,,,4,2,,,,,,,0,6,0,6,,,,,,,,,,,1148.7096,1149.2033,1149.4512,1151.9011,space,2.4445,,1151.9011,69,11,1152.901,1152.901,1152.9068,,,,0,35,35,35,1,80,0,,,,,,,,
,,5f1b768bba959b371da3e65f,65af54f991bb652b9495ba90,2024-01-23_03h36.59.269,bars,2023.2.3,Win32,119.047619,657b66ea316d21385b68909f,,,,,,,,,,,1152.9069,1153.9012,,,1154.4011,1154.6509,,158,158,,,,,,,,,,,,,,,,bars/000.png,bars/mask001.png,,,,,,,,,,,,2,2,,,,,,,0,4,0,3,,,,,,,,,,,1153.9013,1154.401,1154.651,1159.8258,space,5.1693,,1159.8258,62,13,1160.8257,1160.8257,1160.8313,,,,0,36,36,36,1,40,145,,,,,,,,
,,5f1b768bba959b371da3e65f,65af54f991bb652b9495ba90,2024-01-23_03h36.59.269,bars,2023.2.3,Win32,119.047619,657b66ea316d21385b68909f,,,,,,,,,,,1160.8314,1161.8256,,,1162.3261,1162.5757,,22,202,,,,,,,,,,,,,,,,bars/037.png,bars/mask001.png,,,,,,,,,,,,0,1,,,,,,,0,6,0,5,,,,,,,,,,,1161.8257,1162.3261,1162.5757,1168.8173,space,6.2339,,1168.8173,52,83,1169.8113,1169.8113,1169.8175,,,,0,37,37,37,1,150,105,,,,,,,,
,,5f1b768bba959b371da3e65f,65af54f991bb652b9495ba90,2024-01-23_03h36.59.269,bars,2023.2.3,Win32,119.047619,657b66ea316d21385b68909f,,,,,,,,,,,1169.8179,1170.8173,,,1171.3173,1171.5672,,47,47,,,,,,,,,,,,,,,,bars/036.png,bars/mask008.png,,,,,,,,,,,,1,2,,,,,,,0,4,0,6,,,,,,,,,,,1170.8173,1171.3172,1171.5672,1173.8605,space,2.2906,,1173.8605,82,27,1174.8615,1174.8615,1174.8678,,,,0,38,38,38,1,145,20,,,,,,,,
,,5f1b768bba959b371da3e65f,65af54f991bb652b9495ba90,2024-01-23_03h36.59.269,bars,2023.2.3,Win32,119.047619,657b66ea316d21385b68909f,,,,,,,,,,,1174.868,1175.8699,,,1176.368,1176.6171,,75,75,,,,,,,,,,,,,,,,bars/030.png,bars/mask005.png,,,,,,,,,,,,1,2,,,,,,,2,2,1,2,,,,,,,,,,,1175.8699,1176.3679,1176.6171,1180.0505,space,3.4249,,1180.0505,65,10,1181.045,1181.045,1181.0519,,,,0,39,39,39,1,140,65,,,,,,,,
,,5f1b768bba959b371da3e65f,65af54f991bb652b9495ba90,2024-01-23_03h36.59.269,bars,2023.2.3,Win32,119.047619,657b66ea316d21385b68909f,,,,,,,,,,,1181.0521,1182.0535,,,1182.5504,1182.8006,,67,67,,,,,,,,,,,,,,,,bars/014.png,bars/mask009.png,,,,,,,,,,,,2,1,,,,,,,4,4,4,3,,,,,,,,,,,1182.0535,1182.5504,1182.8006,1191.3419,space,8.526,,1191.342,13,67,1192.3359,1192.3359,1192.3448,,,,0,40,40,40,1,80,0,,,,,,,,
,,5f1b768bba959b371da3e65f,65af54f991bb652b9495ba90,2024-01-23_03h36.59.269,bars,2023.2.3,Win32,119.047619,657b66ea316d21385b68909f,,,,,,,,,,,1192.345,1193.3421,,,1193.8418,1194.092,,123,123,,,,,,,,,,,,,,,,bars/035.png,bars/mask001.png,,,,,,,,,,,,0,1,,,,,,,6,2,5,3,,,,,,,,,,,1193.3422,1193.8418,1194.092,1199.8084,space,5.7005,,1199.8086,52,63,1200.8082,1200.8082,1200.8144,,,,0,41,41,41,1,175,60,,,,,,,,
,,5f1b768bba959b371da3e65f,65af54f991bb652b9495ba90,2024-01-23_03h36.59.269,bars,2023.2.3,Win32,119.047619,657b66ea316d21385b68909f,,,,,,,,,,,1200.8145,1201.8084,,,1202.3085,1202.5607,,175,-5,,,,,,,,,,,,,,,,bars/024.png,bars/mask005.png,,,,,,,,,,,,3,2,,,,,,,4,4,4,3,,,,,,,,,,,1201.8084,1202.3085,1202.5608,1205.0251,space,2.4569,,1205.0252,55,5,1206.0251,1206.0252,1206.0315,,,,0,42,42,42,1,120,170,,,,,,,,
,,5f1b768bba959b371da3e65f,65af54f991bb652b9495ba90,2024-01-23_03h36.59.269,bars,2023.2.3,Win32,119.047619,657b66ea316d21385b68909f,,,,,,,,,,,1206.0316,1207.0264,,,1207.5249,1207.7749,,175,175,,,,,,,,,,,,,,,,bars/015.png,bars/mask008.png,,,,,,,,,,,,3,2,,,,,,,2,6,4,6,,,,,,,,,,,1207.0264,1207.5249,1207.7749,1213.1331,space,5.3432,,1213.1331,65,15,1214.1295,1214.1295,1214.1352,,,,0,43,43,43,1,110,160,,,,,,,,
,,5f1b768bba959b371da3e65f,65af54f991bb652b9495ba90,2024-01-23_03h36.59.269,bars,2023.2.3,Win32,119.047619,657b66ea316d21385b68909f,,,,,,,,,,,1214.1353,1215.1358,,,1215.6331,1215.8831,,176,-4,,,,,,,,,,,,,,,,bars/007.png,bars/mask000.png,,,,,,,,,,,,5,1,,,,,,,4,4,5,3,,,,,,,,,,,1215.1359,1215.6331,1215.8832,1218.883,space,2.9865,,1218.8832,1,59,1219.883,1219.883,1219.8897,,,,0,44,44,44,1,175,55,,,,,,,,
,,5f1b768bba959b371da3e65f,65af54f991bb652b9495ba90,2024-01-23_03h36.59.269,bars,2023.2.3,Win32,119.047619,657b66ea316d21385b68909f,,,,,,,,,,,1219.8898,1220.8914,,,1221.3939,1221.6415,,171,-9,,,,,,,,,,,,,,,,bars/047.png,bars/mask008.png,,,,,,,,,,,,1,1,,,,,,,6,6,5,6,,,,,,,,,,,1220.8914,1221.3939,1221.6416,1235.0931,space,13.4412,,1235.0931,24,79,1236.0912,1236.0912,1236.0975,,,,0,45,45,45,1,15,70,,,,,,,,
,,5f1b768bba959b371da3e65f,65af54f991bb652b9495ba90,2024-01-23_03h36.59.269,bars,2023.2.3,Win32,119.047619,657b66ea316d21385b68909f,,,,,,,,,,,1236.0977,1237.0995,,,1237.5996,1237.8498,,30,210,,,,,,,,,,,,,,,,bars/048.png,bars/mask007.png,,,,,,,,,,,,1,1,,,,,,,4,4,3,5,,,,,,,,,,,1237.0996,1237.5996,1237.8498,1245.0826,space,7.2193,,1245.0827,20,35,1246.0827,1246.0828,1246.0891,,,,0,46,46,46,1,50,175,,,,,,,,
,,5f1b768bba959b371da3e65f,65af54f991bb652b9495ba90,2024-01-23_03h36.59.269,bars,2023.2.3,Win32,119.047619,657b66ea316d21385b68909f,,,,,,,,,,,1246.0891,1247.0851,,,1247.5825,1247.8325,,176,-4,,,,,,,,,,,,,,,,bars/024.png,bars/mask006.png,,,,,,,,,,,,4,2,,,,,,,6,6,6,5,,,,,,,,,,,1247.0851,1247.5825,1247.8326,1251.6741,space,3.8349,,1251.6741,56,6,1252.6742,1252.6742,1252.6835,,,,0,47,47,47,1,120,170,,,,,,,,
,,5f1b768bba959b371da3e65f,65af54f991bb652b9495ba90,2024-01-23_03h36.59.269,bars,2023.2.3,Win32,119.047619,657b66ea316d21385b68909f,,,,,,,,,,,1252.6837,1253.6825,,,1254.1826,1254.4326,,11,191,,,,,,,,,,,,,,,,bars/042.png,bars/mask006.png,,,,,,,,,,,,0,1,,,,,,,4,8,5,9,,,,,,,,,,,1253.6827,1254.1825,1254.4326,1275.568,space,21.1323,,1275.568,46,64,1276.5659,1276.5659,1276.5725,,,,0,48,48,48,1,145,75,,,,,,,,
,,5f1b768bba959b371da3e65f,65af54f991bb652b9495ba90,2024-01-23_03h36.59.269,bars,2023.2.3,Win32,119.047619,657b66ea316d21385b68909f,,,,,,,,,,,1276.5727,1277.5738,,,1278.0739,1278.3238,,176,-4,,,,,,,,,,,,,,,,bars/040.png,bars/mask007.png,,,,,,,,,,,,7,2,,,,,,,2,10,2,10,,,,,,,,,,,1277.5739,1278.0738,1278.3238,1281.0182,space,2.6918,,1281.0183,36,9,1282.0151,1282.0151,1282.0214,,,,0,49,49,49,1,140,5,,,,,,,,
,,5f1b768bba959b371da3e65f,65af54f991bb652b9495ba90,2024-01-23_03h36.59.269,bars,2023.2.3,Win32,119.047619,657b66ea316d21385b68909f,,,,,,,,,,,,,,,,,,,,,,,,,,,,,,,,,,,,,,,,,,,,,,,,,,,,,,,,,,,,,,,,,,,,,,,,,,,,,,,,,,,,,,,,,,,,,1282.0215,1342.0225,0,1,1,0,1,sequence_tables/blk022.csv
,,5f1b768bba959b371da3e65f,65af54f991bb652b9495ba90,2024-01-23_03h36.59.269,bars,2023.2.3,Win32,119.047619,657b66ea316d21385b68909f,,,,,,,,,,,1516.2876,1517.2862,,,1517.7778,1518.0277,,106,106,,,,,,,,,,,,,,,,bars/030.png,bars/mask007.png,,,,,,,,,,,,0,1,,,,,,,3,6,4,4,,,,,,1342.0291,1516.2777,space,174.2424,,1517.2862,1517.7778,1518.0278,1520.5694,space,2.5274,,1520.5694,34,41,1521.5692,1521.5692,1521.5755,,,,0,0,0,0,1,140,65,,,,,,,,
,,5f1b768bba959b371da3e65f,65af54f991bb652b9495ba90,2024-01-23_03h36.59.269,bars,2023.2.3,Win32,119.047619,657b66ea316d21385b68909f,,,,,,,,,,,1521.5757,1522.5777,,,1523.0778,1523.3276,,75,75,,,,,,,,,,,,,,,,bars/034.png,bars/mask005.png,,,,,,,,,,,,1,2,,,,,,,1,4,1,2,,,,,,,,,,,1522.5777,1523.0778,1523.3277,1525.6276,space,2.2842,,1525.6276,50,10,1526.6275,1526.6275,1526.6336,,,,0,1,1,1,1,125,65,,,,,,,,
,,5f1b768bba959b371da3e65f,65af54f991bb652b9495ba90,2024-01-23_03h36.59.269,bars,2023.2.3,Win32,119.047619,657b66ea316d21385b68909f,,,,,,,,,,,1526.6338,1527.6279,,,1528.1277,1528.3777,,110,110,,,,,,,,,,,,,,,,bars/039.png,bars/mask003.png,,,,,,,,,,,,3,2,,,,,,,0,2,0,3,,,,,,,,,,,1527.6279,1528.1277,1528.3778,1546.6439,space,18.2528,,1546.644,65,5,1547.6438,1547.6438,1547.6505,,,,0,2,2,2,1,175,105,,,,,,,,
,,5f1b768bba959b371da3e65f,65af54f991bb652b9495ba90,2024-01-23_03h36.59.269,bars,2023.2.3,Win32,119.047619,657b66ea316d21385b68909f,,,,,,,,,,,1547.6506,1548.6521,,,1549.1522,1549.4022,,5,5,,,,,,,,,,,,,,,,bars/012.png,bars/mask001.png,,,,,,,,,,,,1,2,,,,,,,2,0,1,1,,,,,,,,,,,1548.6521,1549.1522,1549.4022,1552.7604,space,3.3521,,1552.7604,85,10,1553.7605,1553.7605,1553.7664,,,,0,3,3,3,1,90,15,,,,,,,,
,,5f1b768bba959b371da3e65f,65af54f991bb652b9495ba90,2024-01-23_03h36.59.269,bars,2023.2.3,Win32,119.047619,657b66ea316d21385b68909f,,,,,,,,,,,1553.7665,1554.7604,,,1555.2604,1555.5104,,174,174,,,,,,,,,,,,,,,,bars/048.png,bars/mask001.png,,,,,,,,,,,,1,2,,,,,,,0,0,0,1,,,,,,,,,,,1554.7604,1555.2604,1555.5105,1557.0965,space,1.5829,,1557.0965,56,1,1558.0936,1558.0936,1558.0993,,,,0,4,4,4,1,50,175,,,,,,,,
,,5f1b768bba959b371da3e65f,65af54f991bb652b9495ba90,2024-01-23_03h36.59.269,bars,2023.2.3,Win32,119.047619,657b66ea316d21385b68909f,,,,,,,,,,,1558.0995,1559.0935,,,1559.5895,1559.8354,,120,-60,,,,,,,,,,,,,,,,bars/037.png,bars/mask005.png,,,,,,,,,,,,0,2,,,,,,,0,0,0,0,,,,,,,,,,,1559.0935,1559.5895,1559.8354,1563.752,space,3.912,,1563.7521,30,15,1564.7518,1564.7519,1564.7575,,,,0,5,5,5,1,150,105,,,,,,,,
,,5f1b768bba959b371da3e65f,65af54f991bb652b9495ba90,2024-01-23_03h36.59.269,bars,2023.2.3,Win32,119.047619,657b66ea316d21385b68909f,,,,,,,,,,,1564.7577,1565.7517,,,1566.2518,1566.5018,,171,171,,,,,,,,,,,,,,,,bars/020.png,bars/mask007.png,,,,,,,,,,,,3,2,,,,,,,0,2,2,3,,,,,,,,,,,1565.7518,1566.2518,1566.5018,1567.0685,space,0.5517,,1567.0685,56,1,1568.0686,1568.0686,1568.0696,,,,0,6,6,6,1,115,170,,,,,,,,
,,5f1b768bba959b371da3e65f,65af54f991bb652b9495ba90,2024-01-23_03h36.59.269,bars,2023.2.3,Win32,119.047619,657b66ea316d21385b68909f,,,,,,,,,,,1568.0698,1569.0685,,,1569.5684,1569.8184,,71,71,,,,,,,,,,,,,,,,bars/010.png,bars/mask006.png,,,,,,,,,,,,0,2,,,,,,,2,0,1,0,,,,,,,,,,,1569.0685,1569.5684,1569.8184,1572.5017,space,2.6797,,1572.5017,86,16,1573.496,1573.4961,1573.5014,,,,0,7,7,7,1,165,55,,,,,,,,
,,5f1b768bba959b371da3e65f,65af54f991bb652b9495ba90,2024-01-23_03h36.59.269,bars,2023.2.3,Win32,119.047619,657b66ea316d21385b68909f,,,,,,,,,,,1573.5015,1574.5018,,,1575.0017,1575.2519,,63,63,,,,,,,,,,,,,,,,bars/037.png,bars/mask000.png,,,,,,,,,,,,0,2,,,,,,,4,2,4,1,,,,,,,,,,,1574.5018,1575.0017,1575.2519,1593.5848,space,18.3166,,1593.5849,87,42,1594.5848,1594.5848,1594.5911,,,,0,8,8,8,1,150,105,,,,,,,,
,,5f1b768bba959b371da3e65f,65af54f991bb652b9495ba90,2024-01-23_03h36.59.269,bars,2023.2.3,Win32,119.047619,657b66ea316d21385b68909f,,,,,,,,,,,1594.5913,1595.5934,,,1596.0932,1596.3432,,149,149,,,,,,,,,,,,,,,,bars/034.png,bars/mask003.png,,,,,,,,,,,,0,1,,,,,,,2,0,2,0,,,,,,,,,,,1595.5934,1596.0931,1596.3432,1598.9266,space,2.5678,,1598.9267,24,84,1599.9262,1599.9262,1599.9327,,,,0,9,9,9,1,125,65,,,,,,,,
,,5f1b768bba959b371da3e65f,65af54f991bb652b9495ba90,2024-01-23_03h36.59.269,bars,2023.2.3,Win32,119.047619,657b66ea316d21385b68909f,,,,,,,,,,,1599.9329,1600.9347,,,1601.4347,1601.6847,,46,46,,,,,,,,,,,,,,,,bars/017.png,bars/mask008.png,,,,,,,,,,,,0,2,,,,,,,4,0,4,0,,,,,,,,,,,1600.9347,1601.4346,1601.6848,1607.4846,space,5.795,,1607.4846,81,1,1608.4844,1608.4844,1608.4908,,,,0,10,10,10,1,145,45,,,,,,,,
,,5f1b768bba959b371da3e65f,65af54f991bb652b9495ba90,2024-01-23_03h36.59.269,bars,2023.2.3,Win32,119.047619,657b66ea316d21385b68909f,,,,,,,,,,,1608.4909,1609.4927,,,1609.9932,1610.2427,,102,102,,,,,,,,,,,,,,,,bars/027.png,bars/mask008.png,,,,,,,,,,,,4,1,,,,,,,6,0,6,0,,,,,,,,,,,1609.4927,1609.9929,1610.2427,1621.9758,space,11.7197,,1621.9759,8,52,1622.9771,1622.9771,1622.9832,,,,0,11,11,11,1,110,50,,,,,,,,
,,5f1b768bba959b371da3e65f,65af54f991bb652b9495ba90,2024-01-23_03h36.59.269,bars,2023.2.3,Win32,119.047619,657b66ea316d21385b68909f,,,,,,,,,,,1622.9833,1623.9843,,,1624.4842,1624.7343,,55,55,,,,,,,,,,,,,,,,bars/017.png,bars/mask007.png,,,,,,,,,,,,1,2,,,,,,,4,0,5,1,,,,,,,,,,,1623.9844,1624.4841,1624.7343,1627.2341,space,2.4913,,1627.2342,90,10,1628.2283,1628.2283,1628.2352,,,,0,12,12,12,1,145,45,,,,,,,,
,,5f1b768bba959b371da3e65f,65af54f991bb652b9495ba90,2024-01-23_03h36.59.269,bars,2023.2.3,Win32,119.047619,657b66ea316d21385b68909f,,,,,,,,,,,1628.2354,1629.2342,,,1629.7342,1629.9842,,81,81,,,,,,,,,,,,,,,,bars/048.png,bars/mask004.png,,,,,,,,,,,,0,1,,,,,,,6,0,6,0,,,,,,,,,,,1629.2342,1629.7341,1629.9843,1642.4421,space,12.4473,,1642.4421,31,86,1643.4421,1643.4421,1643.4496,,,,0,13,13,13,1,50,175,,,,,,,,
,,5f1b768bba959b371da3e65f,65af54f991bb652b9495ba90,2024-01-23_03h36.59.269,bars,2023.2.3,Win32,119.047619,657b66ea316d21385b68909f,,,,,,,,,,,1643.4497,1644.4447,,,1644.9424,1645.1921,,162,162,,,,,,,,,,,,,,,,bars/014.png,bars/mask004.png,,,,,,,,,,,,0,2,,,,,,,4,0,4,0,,,,,,,,,,,1644.4447,1644.9423,1645.1922,1647.634,space,2.4243,,1647.6341,82,18,1648.6336,1648.6337,1648.6398,,,,0,14,14,14,1,80,0,,,,,,,,
,,5f1b768bba959b371da3e65f,65af54f991bb652b9495ba90,2024-01-23_03h36.59.269,bars,2023.2.3,Win32,119.047619,657b66ea316d21385b68909f,,,,,,,,,,,1648.6399,1649.6364,,,1650.1336,1650.3837,,64,64,,,,,,,,,,,,,,,,bars/014.png,bars/mask007.png,,,,,,,,,,,,0,1,,,,,,,2,2,1,3,,,,,,,,,,,1649.6364,1650.1336,1650.3837,1667.8501,space,17.4584,,1667.8502,16,64,1668.8454,1668.8454,1668.8525,,,,0,15,15,15,1,80,0,,,,,,,,
,,5f1b768bba959b371da3e65f,65af54f991bb652b9495ba90,2024-01-23_03h36.59.269,bars,2023.2.3,Win32,119.047619,657b66ea316d21385b68909f,,,,,,,,,,,1668.8527,1669.8499,,,1670.3501,1670.5999,,107,107,,,,,,,,,,,,,,,,bars/042.png,bars/mask005.png,,,,,,,,,,,,0,2,,,,,,,4,4,5,5,,,,,,,,,,,1669.85,1670.3499,1670.5999,1673.3166,space,2.7112,,1673.3166,38,32,1674.3165,1674.3165,1674.3228,,,,0,16,16,16,1,145,75,,,,,,,,
,,5f1b768bba959b371da3e65f,65af54f991bb652b9495ba90,2024-01-23_03h36.59.269,bars,2023.2.3,Win32,119.047619,657b66ea316d21385b68909f,,,,,,,,,,,1674.3229,1675.3248,,,1675.825,1676.0748,,89,89,,,,,,,,,,,,,,,,bars/046.png,bars/mask006.png,,,,,,,,,,,,5,2,,,,,,,6,6,4,6,,,,,,,,,,,1675.3248,1675.8249,1676.0749,1676.7165,space,0.6341,,1676.7166,66,4,1677.7127,1677.7127,1677.7131,,,,0,17,17,17,1,155,85,,,,,,,,
,,5f1b768bba959b371da3e65f,65af54f991bb652b9495ba90,2024-01-23_03h36.59.269,bars,2023.2.3,Win32,119.047619,657b66ea316d21385b68909f,,,,,,,,,,,1677.7132,1678.7083,,,1679.2082,1679.4585,,74,74,,,,,,,,,,,,,,,,bars/046.png,bars/mask009.png,,,,,,,,,,,,3,2,,,,,,,8,4,9,4,,,,,,,,,,,1678.7084,1679.2082,1679.4585,1691.558,space,12.0868,,1691.558,81,11,1692.5579,1692.5579,1692.5647,,,,0,18,18,18,1,155,85,,,,,,,,
,,5f1b768bba959b371da3e65f,65af54f991bb652b9495ba90,2024-01-23_03h36.59.269,bars,2023.2.3,Win32,119.047619,657b66ea316d21385b68909f,,,,,,,,,,,1692.5647,1693.5662,,,1694.0665,1694.3105,,91,91,,,,,,,,,,,,,,,,bars/019.png,bars/mask008.png,,,,,,,,,,,,4,2,,,,,,,6,6,6,7,,,,,,,,,,,1693.5662,1694.0664,1694.3105,1696.2579,space,1.9344,,1696.258,46,14,1697.2578,1697.2578,1697.2635,,,,0,19,19,19,1,45,105,,,,,,,,
,,5f1b768bba959b371da3e65f,65af54f991bb652b9495ba90,2024-01-23_03h36.59.269,bars,2023.2.3,Win32,119.047619,657b66ea316d21385b68909f,,,,,,,,,,,1697.2637,1698.2609,,,1698.7611,1699.0109,,120,120,,,,,,,,,,,,,,,,bars/007.png,bars/mask003.png,,,,,,,,,,,,0,1,,,,,,,4,8,4,6,,,,,,,,,,,1698.2609,1698.761,1699.0109,1702.6523,space,3.633,,1702.6523,55,65,1703.6523,1703.6523,1703.6592,,,,0,20,20,20,1,175,55,,,,,,,,
,,5f1b768bba959b371da3e65f,65af54f991bb652b9495ba90,2024-01-23_03h36.59.269,bars,2023.2.3,Win32,119.047619,657b66ea316d21385b68909f,,,,,,,,,,,1703.6594,1704.6603,,,1705.1606,1705.4078,,115,115,,,,,,,,,,,,,,,,bars/020.png,bars/mask008.png,,,,,,,,,,,,2,1,,,,,,,2,10,2,10,,,,,,,,,,,1704.6603,1705.1605,1705.4079,1709.7185,space,4.2999,,1709.7185,0,55,1710.716,1710.7161,1710.7221,,,,0,21,21,21,1,115,170,,,,,,,,
,,5f1b768bba959b371da3e65f,65af54f991bb652b9495ba90,2024-01-23_03h36.59.269,bars,2023.2.3,Win32,119.047619,657b66ea316d21385b68909f,,,,,,,,,,,1710.7224,1711.7243,,,1712.2244,1712.4745,,115,115,,,,,,,,,,,,,,,,bars/024.png,bars/mask007.png,,,,,,,,,,,,0,1,,,,,,,0,8,0,8,,,,,,,,,,,1711.7243,1712.2244,1712.4746,1720.4491,space,7.9588,,1720.4491,5,55,1721.4436,1721.4437,1721.4504,,,,0,22,22,22,1,120,170,,,,,,,,
,,5f1b768bba959b371da3e65f,65af54f991bb652b9495ba90,2024-01-23_03h36.59.269,bars,2023.2.3,Win32,119.047619,657b66ea316d21385b68909f,,,,,,,,,,,1721.4505,1722.449,,,1722.9493,1723.199,,134,134,,,,,,,,,,,,,,,,bars/037.png,bars/mask005.png,,,,,,,,,,,,0,1,,,,,,,0,10,0,10,,,,,,,,,,,1722.4491,1722.9493,1723.199,1725.1007,space,1.891,,1725.1007,16,29,1726.0991,1726.0991,1726.1049,,,,0,23,23,23,1,150,105,,,,,,,,
,,5f1b768bba959b371da3e65f,65af54f991bb652b9495ba90,2024-01-23_03h36.59.269,bars,2023.2.3,Win32,119.047619,657b66ea316d21385b68909f,,,,,,,,,,,1726.1049,1727.0989,,,1727.5992,1727.849,,64,64,,,,,,,,,,,,,,,,bars/023.png,bars/mask001.png,,,,,,,,,,,,0,1,,,,,,,0,10,0,10,,,,,,,,,,,1727.0989,1727.5991,1727.849,1733.7822,space,5.9174,,1733.7823,44,51,1734.782,1734.7821,1734.7884,,,,0,24,24,24,1,20,115,,,,,,,,
,,5f1b768bba959b371da3e65f,65af54f991bb652b9495ba90,2024-01-23_03h36.59.269,bars,2023.2.3,Win32,119.047619,657b66ea316d21385b68909f,,,,,,,,,,,1734.7886,1735.7909,,,1736.2905,1736.5405,,86,86,,,,,,,,,,,,,,,,bars/030.png,bars/mask002.png,,,,,,,,,,,,2,2,,,,,,,2,8,3,7,,,,,,,,,,,1735.791,1736.2904,1736.5405,1789.9147,space,53.3588,,1789.9147,54,21,1790.9144,1790.9144,1790.923,,,,0,25,25,25,1,140,65,,,,,,,,
,,5f1b768bba959b371da3e65f,65af54f991bb652b9495ba90,2024-01-23_03h36.59.269,bars,2023.2.3,Win32,119.047619,657b66ea316d21385b68909f,,,,,,,,,,,1790.9239,1791.9177,,,1792.4146,1792.6645,,40,40,,,,,,,,,,,,,,,,bars/025.png,bars/mask006.png,,,,,,,,,,,,6,2,,,,,,,0,6,0,6,,,,,,,,,,,1791.9178,1792.4146,1792.6645,1794.4736,space,1.7921,,1794.4738,65,0,1795.4728,1795.4729,1795.4791,,,,0,26,26,26,1,105,40,,,,,,,,
,,5f1b768bba959b371da3e65f,65af54f991bb652b9495ba90,2024-01-23_03h36.59.269,bars,2023.2.3,Win32,119.047619,657b66ea316d21385b68909f,,,,,,,,,,,1795.4792,1796.4811,,,1796.9811,1797.231,,13,13,,,,,,,,,,,,,,,,bars/012.png,bars/mask003.png,,,,,,,,,,,,6,2,,,,,,,2,8,1,6,,,,,,,,,,,1796.4812,1796.9811,1797.2311,1863.2408,space,66.0065,,1863.2408,77,2,1864.2411,1864.2411,1864.2476,,,,0,27,27,27,1,90,15,,,,,,,,
,,5f1b768bba959b371da3e65f,65af54f991bb652b9495ba90,2024-01-23_03h36.59.269,bars,2023.2.3,Win32,119.047619,657b66ea316d21385b68909f,,,,,,,,,,,1864.2478,1865.2466,,,1865.7465,1865.9964,,125,125,,,,,,,,,,,,,,,,bars/001.png,bars/mask000.png,,,,,,,,,,,,3,1,,,,,,,4,6,3,5,,,,,,,,,,,1865.2467,1865.7465,1865.9964,1895.7072,space,29.7076,,1895.7072,5,40,1896.7069,1896.707,1896.7141,,,,0,28,28,28,1,130,85,,,,,,,,
,,5f1b768bba959b371da3e65f,65af54f991bb652b9495ba90,2024-01-23_03h36.59.269,bars,2023.2.3,Win32,119.047619,657b66ea316d21385b68909f,,,,,,,,,,,1896.7142,1897.7126,,,1898.2127,1898.4581,,64,64,,,,,,,,,,,,,,,,bars/029.png,bars/mask004.png,,,,,,,,,,,,3,2,,,,,,,2,8,2,7,,,,,,,,,,,1897.7126,1898.2126,1898.4581,1901.8625,space,3.3904,,1901.8626,26,19,1902.8625,1902.8625,1902.8691,,,,0,29,29,29,1,90,45,,,,,,,,
,,5f1b768bba959b371da3e65f,65af54f991bb652b9495ba90,2024-01-23_03h36.59.269,bars,2023.2.3,Win32,119.047619,657b66ea316d21385b68909f,,,,,,,,,,,1902.8693,1903.8707,,,1904.3708,1904.621,,113,113,,,,,,,,,,,,,,,,bars/007.png,bars/mask009.png,,,,,,,,,,,,0,2,,,,,,,0,10,1,10,,,,,,,,,,,1903.8707,1904.3708,1904.621,1958.1537,space,53.5238,,1958.1537,62,58,1959.1532,1959.1533,1959.1598,,,,0,30,30,30,1,175,55,,,,,,,,
,,5f1b768bba959b371da3e65f,65af54f991bb652b9495ba90,2024-01-23_03h36.59.269,bars,2023.2.3,Win32,119.047619,657b66ea316d21385b68909f,,,,,,,,,,,1959.1599,1960.1615,,,1960.6617,1960.9117,,59,59,,,,,,,,,,,,,,,,bars/010.png,bars/mask005.png,,,,,,,,,,,,6,2,,,,,,,2,8,1,7,,,,,,,,,,,1960.1615,1960.6615,1960.9118,1965.3446,space,4.4261,,1965.3447,74,4,1966.3472,1966.3472,1966.3525,,,,0,31,31,31,1,165,55,,,,,,,,
,,5f1b768bba959b371da3e65f,65af54f991bb652b9495ba90,2024-01-23_03h36.59.269,bars,2023.2.3,Win32,119.047619,657b66ea316d21385b68909f,,,,,,,,,,,1966.3526,1967.353,,,1967.853,1968.0963,,61,61,,,,,,,,,,,,,,,,bars/027.png,bars/mask000.png,,,,,,,,,,,,4,2,,,,,,,0,6,0,6,,,,,,,,,,,1967.3531,1967.853,1968.0964,2002.5719,space,34.4657,,2002.5719,49,11,2003.5722,2003.5722,2003.5799,,,,0,32,32,32,1,110,50,,,,,,,,
,,5f1b768bba959b371da3e65f,65af54f991bb652b9495ba90,2024-01-23_03h36.59.269,bars,2023.2.3,Win32,119.047619,657b66ea316d21385b68909f,,,,,,,,,,,2003.5801,2004.5773,,,2005.0774,2005.3274,,28,208,,,,,,,,,,,,,,,,bars/032.png,bars/mask000.png,,,,,,,,,,,,6,2,,,,,,,2,8,4,8,,,,,,,,,,,2004.5773,2005.0774,2005.3274,2020.9188,space,15.5774,,2020.9189,83,8,2021.9187,2021.9187,2021.9251,,,,0,33,33,33,1,125,20,,,,,,,,
,,5f1b768bba959b371da3e65f,65af54f991bb652b9495ba90,2024-01-23_03h36.59.269,bars,2023.2.3,Win32,119.047619,657b66ea316d21385b68909f,,,,,,,,,,,2021.9253,2022.9271,,,2023.4272,2023.6769,,168,-12,,,,,,,,,,,,,,,,bars/035.png,bars/mask004.png,,,,,,,,,,,,0,1,,,,,,,0,10,0,10,,,,,,,,,,,2022.9271,2023.427,2023.6769,2025.1685,space,1.4883,,2025.1686,7,72,2026.1686,2026.1686,2026.1747,,,,0,34,34,34,1,175,60,,,,,,,,
,,5f1b768bba959b371da3e65f,65af54f991bb652b9495ba90,2024-01-23_03h36.59.269,bars,2023.2.3,Win32,119.047619,657b66ea316d21385b68909f,,,,,,,,,,,2026.1748,2027.1685,,,2027.6685,2027.9185,,11,11,,,,,,,,,,,,,,,,bars/013.png,bars/mask009.png,,,,,,,,,,,,8,2,,,,,,,0,10,0,8,,,,,,,,,,,2027.1686,2027.6685,2027.9185,2030.9631,space,3.0338,,2030.9632,64,1,2031.9601,2031.9602,2031.9667,,,,0,35,35,35,1,75,10,,,,,,,,
,,5f1b768bba959b371da3e65f,65af54f991bb652b9495ba90,2024-01-23_03h36.59.269,bars,2023.2.3,Win32,119.047619,657b66ea316d21385b68909f,,,,,,,,,,,2031.9668,2032.9687,,,2033.4685,2033.7187,,50,50,,,,,,,,,,,,,,,,bars/048.png,bars/mask000.png,,,,,,,,,,,,0,1,,,,,,,0,10,0,9,,,,,,,,,,,2032.9687,2033.4685,2033.7187,2035.813,space,2.0917,,2035.813,0,55,2036.8101,2036.8101,2036.8165,,,,0,36,36,36,1,50,175,,,,,,,,
,,5f1b768bba959b371da3e65f,65af54f991bb652b9495ba90,2024-01-23_03h36.59.269,bars,2023.2.3,Win32,119.047619,657b66ea316d21385b68909f,,,,,,,,,,,2036.8166,2037.8184,,,2038.3186,2038.5685,,173,173,,,,,,,,,,,,,,,,bars/032.png,bars/mask006.png,,,,,,,,,,,,1,2,,,,,,,2,8,2,8,,,,,,,,,,,2037.8184,2038.3186,2038.5686,2041.5766,space,2.992,,2041.5766,48,27,2042.5766,2042.5766,2042.5829,,,,0,37,37,37,1,125,20,,,,,,,,
,,5f1b768bba959b371da3e65f,65af54f991bb652b9495ba90,2024-01-23_03h36.59.269,bars,2023.2.3,Win32,119.047619,657b66ea316d21385b68909f,,,,,,,,,,,2042.583,2043.585,,,2044.0851,2044.3351,,26,26,,,,,,,,,,,,,,,,bars/048.png,bars/mask000.png,,,,,,,,,,,,0,1,,,,,,,0,6,0,7,,,,,,,,,,,2043.585,2044.085,2044.3351,2047.2516,space,2.9128,,2047.2517,24,31,2048.2514,2048.2515,2048.2576,,,,0,38,38,38,1,50,175,,,,,,,,
,,5f1b768bba959b371da3e65f,65af54f991bb652b9495ba90,2024-01-23_03h36.59.269,bars,2023.2.3,Win32,119.047619,657b66ea316d21385b68909f,,,,,,,,,,,2048.2577,2049.2518,,,2049.7517,2050.0015,,175,-5,,,,,,,,,,,,,,,,bars/046.png,bars/mask006.png,,,,,,,,,,,,0,1,,,,,,,0,4,1,3,,,,,,,,,,,2049.2518,2049.7517,2050.0015,2052.5597,space,2.5509,,2052.5598,20,90,2053.5598,2053.5598,2053.5659,,,,0,39,39,39,1,155,85,,,,,,,,
,,5f1b768bba959b371da3e65f,65af54f991bb652b9495ba90,2024-01-23_03h36.59.269,bars,2023.2.3,Win32,119.047619,657b66ea316d21385b68909f,,,,,,,,,,,2053.566,2054.5681,,,2055.0683,2055.3181,,20,20,,,,,,,,,,,,,,,,bars/009.png,bars/mask009.png,,,,,,,,,,,,1,1,,,,,,,0,6,1,6,,,,,,,,,,,2054.5683,2055.0683,2055.3182,2092.3177,space,36.9839,,2092.3178,5,85,2093.3174,2093.3174,2093.3239,,,,0,40,40,40,1,15,105,,,,,,,,
,,5f1b768bba959b371da3e65f,65af54f991bb652b9495ba90,2024-01-23_03h36.59.269,bars,2023.2.3,Win32,119.047619,657b66ea316d21385b68909f,,,,,,,,,,,2093.324,2094.3273,,,2094.8257,2095.0757,,12,12,,,,,,,,,,,,,,,,bars/040.png,bars/mask001.png,,,,,,,,,,,,2,2,,,,,,,2,4,2,3,,,,,,,,,,,2094.3273,2094.8257,2095.0757,2096.8007,space,1.713,,2096.8007,52,7,2097.8006,2097.8006,2097.807,,,,0,41,41,41,1,140,5,,,,,,,,
,,5f1b768bba959b371da3e65f,65af54f991bb652b9495ba90,2024-01-23_03h36.59.269,bars,2023.2.3,Win32,119.047619,657b66ea316d21385b68909f,,,,,,,,,,,2097.8071,2098.809,,,2099.309,2099.5592,,10,190,,,,,,,,,,,,,,,,bars/014.png,bars/mask006.png,,,,,,,,,,,,5,2,,,,,,,4,6,3,7,,,,,,,,,,,2098.809,2099.309,2099.5592,2101.0506,space,1.4791,,2101.0506,70,10,2102.0506,2102.0506,2102.0563,,,,0,42,42,42,1,80,0,,,,,,,,
,,5f1b768bba959b371da3e65f,65af54f991bb652b9495ba90,2024-01-23_03h36.59.269,bars,2023.2.3,Win32,119.047619,657b66ea316d21385b68909f,,,,,,,,,,,2102.0563,2103.0506,,,2103.5506,2103.8005,,56,56,,,,,,,,,,,,,,,,bars/010.png,bars/mask007.png,,,,,,,,,,,,4,2,,,,,,,2,4,3,4,,,,,,,,,,,2103.0507,2103.5505,2103.8006,2105.7755,space,1.9683,,2105.7755,71,1,2106.7755,2106.7755,2106.7759,,,,0,43,43,43,1,165,55,,,,,,,,
,,5f1b768bba959b371da3e65f,65af54f991bb652b9495ba90,2024-01-23_03h36.59.269,bars,2023.2.3,Win32,119.047619,657b66ea316d21385b68909f,,,,,,,,,,,2106.776,2107.7756,,,2108.2757,2108.5256,,8,188,,,,,,,,,,,,,,,,bars/028.png,bars/mask001.png,,,,,,,,,,,,0,1,,,,,,,0,2,0,0,,,,,,,,,,,2107.7757,2108.2757,2108.5256,2137.4774,space,28.9492,,2137.4775,37,68,2138.4773,2138.4773,2138.4854,,,,0,44,44,44,1,45,120,,,,,,,,
,,5f1b768bba959b371da3e65f,65af54f991bb652b9495ba90,2024-01-23_03h36.59.269,bars,2023.2.3,Win32,119.047619,657b66ea316d21385b68909f,,,,,,,,,,,2138.4856,2139.4832,,,2139.9832,2140.2332,,12,12,,,,,,,,,,,,,,,,bars/018.png,bars/mask004.png,,,,,,,,,,,,0,1,,,,,,,2,4,2,3,,,,,,,,,,,2139.4833,2139.9832,2140.2332,2158.425,space,18.1772,,2158.4251,42,78,2159.4272,2159.4273,2159.4349,,,,0,45,45,45,1,150,90,,,,,,,,
,,5f1b768bba959b371da3e65f,65af54f991bb652b9495ba90,2024-01-23_03h36.59.269,bars,2023.2.3,Win32,119.047619,657b66ea316d21385b68909f,,,,,,,,,,,2159.4351,2160.433,,,2160.933,2161.1845,,166,-14,,,,,,,,,,,,,,,,bars/045.png,bars/mask009.png,,,,,,,,,,,,1,2,,,,,,,4,6,4,6,,,,,,,,,,,2160.433,2160.9329,2161.1845,2201.1321,space,39.9349,,2201.1322,66,24,2202.1321,2202.1322,2202.1394,,,,0,46,46,46,1,100,10,,,,,,,,
,,5f1b768bba959b371da3e65f,65af54f991bb652b9495ba90,2024-01-23_03h36.59.269,bars,2023.2.3,Win32,119.047619,657b66ea316d21385b68909f,,,,,,,,,,,2202.1395,2832.3053,,,2832.3227,2832.323,,100,100,,,,,,,,,,,,,,,,bars/001.png,bars/mask005.png,,,,,,,,,,,,4,2,,,,,,,2,8,2,7,,,,,,,,,,,2832.3053,2832.3226,2832.323,2836.1125,space,3.7754,,2836.1126,30,15,2837.1124,2837.1124,2837.1183,,,,0,47,47,47,1,130,85,,,,,,,,
,,5f1b768bba959b371da3e65f,65af54f991bb652b9495ba90,2024-01-23_03h36.59.269,bars,2023.2.3,Win32,119.047619,657b66ea316d21385b68909f,,,,,,,,,,,2837.1185,2838.1123,,,2838.6126,2838.8623,,178,-2,,,,,,,,,,,,,,,,bars/012.png,bars/mask002.png,,,,,,,,,,,,2,2,,,,,,,4,6,2,5,,,,,,,,,,,2838.1123,2838.6126,2838.8623,2840.7808,space,1.9149,,2840.7808,88,17,2841.779,2841.7791,2841.7802,,,,0,48,48,48,1,90,15,,,,,,,,
,,5f1b768bba959b371da3e65f,65af54f991bb652b9495ba90,2024-01-23_03h36.59.269,bars,2023.2.3,Win32,119.047619,657b66ea316d21385b68909f,,,,,,,,,,,2841.7806,2842.779,,,2843.2788,2843.5236,,156,156,,,,,,,,,,,,,,,,bars/007.png,bars/mask004.png,,,,,,,,,,,,0,1,,,,,,,2,8,1,8,,,,,,,,,,,2842.779,2843.2788,2843.5237,2845.6149,space,2.0833,,2845.6149,19,79,2846.615,2846.615,2846.6219,,,,0,49,49,49,1,175,55,,,,,,,,
,,5f1b768bba959b371da3e65f,65af54f991bb652b9495ba90,2024-01-23_03h36.59.269,bars,2023.2.3,Win32,119.047619,657b66ea316d21385b68909f,,,,,,,,,,,,,,,,,,,,,,,,,,,,,,,,,,,,,,,,,,,,,,,,,,,,,,,,,,,,,,,,,,,,,,,,,,,,,,,,,,,,,,,,,,,,,2846.6221,3071.1065,0,2,2,1,1,sequence_tables/blk042.csv
,,5f1b768bba959b371da3e65f,65af54f991bb652b9495ba90,2024-01-23_03h36.59.269,bars,2023.2.3,Win32,119.047619,657b66ea316d21385b68909f,,,,,,,,,,,3177.7657,3178.7647,,,3179.2646,3179.5065,,92,92,,,,,,,,,,,,,,,,bars/021.png,bars/mask007.png,,,,,,,,,,,,0,2,,,,,,,6,1,6,0,,,,,,3071.1129,3177.7563,space,106.6383,,3178.7647,3179.2646,3179.5065,3182.2315,space,2.7141,,3182.2316,63,22,3183.2313,3183.2313,3183.2377,,,,0,0,0,0,1,155,70,,,,,,,,
,,5f1b768bba959b371da3e65f,65af54f991bb652b9495ba90,2024-01-23_03h36.59.269,bars,2023.2.3,Win32,119.047619,657b66ea316d21385b68909f,,,,,,,,,,,3183.2379,3184.2395,,,3184.7395,3184.9895,,55,55,,,,,,,,,,,,,,,,bars/010.png,bars/mask006.png,,,,,,,,,,,,3,2,,,,,,,8,3,8,3,,,,,,,,,,,3184.2396,3184.7395,3184.9895,3186.2978,space,1.3001,,3186.2979,70,0,3187.2978,3187.2979,3187.2989,,,,0,1,1,1,1,165,55,,,,,,,,
,,5f1b768bba959b371da3e65f,65af54f991bb652b9495ba90,2024-01-23_03h36.59.269,bars,2023.2.3,Win32,119.047619,657b66ea316d21385b68909f,,,,,,,,,,,3187.2991,3188.2977,,,3188.7977,3189.0478,,98,98,,,,,,,,,,,,,,,,bars/018.png,bars/mask005.png,,,,,,,,,,,,4,2,,,,,,,10,5,10,6,,,,,,,,,,,3188.2977,3188.7977,3189.0478,3189.8477,space,0.7859,,3189.8478,52,8,3190.8477,3190.8477,3190.8488,,,,0,2,2,2,1,150,90,,,,,,,,
,,5f1b768bba959b371da3e65f,65af54f991bb652b9495ba90,2024-01-23_03h36.59.269,bars,2023.2.3,Win32,119.047619,657b66ea316d21385b68909f,,,,,,,,,,,3190.8491,3191.8477,,,3192.3477,3192.5977,,116,-64,,,,,,,,,,,,,,,,bars/006.png,bars/mask006.png,,,,,,,,,,,,1,2,,,,,,,10,3,9,2,,,,,,,,,,,3191.8477,3192.3476,3192.5977,3195.5226,space,2.9123,,3195.5227,81,16,3196.523,3196.523,3196.5289,,,,0,3,3,3,1,35,100,,,,,,,,
,,5f1b768bba959b371da3e65f,65af54f991bb652b9495ba90,2024-01-23_03h36.59.269,bars,2023.2.3,Win32,119.047619,657b66ea316d21385b68909f,,,,,,,,,,,3196.529,3197.5311,,,3198.0315,3198.281,,45,45,,,,,,,,,,,,,,,,bars/029.png,bars/mask002.png,,,,,,,,,,,,1,2,,,,,,,8,1,7,1,,,,,,,,,,,3197.5311,3198.0314,3198.281,3200.6504,space,2.3666,,3200.6504,45,0,3201.6475,3201.6475,3201.6484,,,,0,4,4,4,1,90,45,,,,,,,,
,,5f1b768bba959b371da3e65f,65af54f991bb652b9495ba90,2024-01-23_03h36.59.269,bars,2023.2.3,Win32,119.047619,657b66ea316d21385b68909f,,,,,,,,,,,3201.6487,3202.6478,,,3203.1476,3203.3974,,29,29,,,,,,,,,,,,,,,,bars/024.png,bars/mask006.png,,,,,,,,,,,,0,2,,,,,,,6,0,6,0,,,,,,,,,,,3202.6479,3203.1476,3203.3975,3204.0836,space,0.6755,,3204.0836,89,39,3205.0836,3205.0836,3205.084,,,,0,5,5,5,1,120,170,,,,,,,,
,,5f1b768bba959b371da3e65f,65af54f991bb652b9495ba90,2024-01-23_03h36.59.269,bars,2023.2.3,Win32,119.047619,657b66ea316d21385b68909f,,,,,,,,,,,3205.084,3206.0808,,,3206.5818,3206.8307,,155,155,,,,,,,,,,,,,,,,bars/009.png,bars/mask007.png,,,,,,,,,,,,0,1,,,,,,,8,0,7,1,,,,,,,,,,,3206.0808,3206.5818,3206.8307,3218.3638,space,11.5208,,3218.3638,40,50,3219.3584,3219.3584,3219.3655,,,,0,6,6,6,1,15,105,,,,,,,,
,,5f1b768bba959b371da3e65f,65af54f991bb652b9495ba90,2024-01-23_03h36.59.269,bars,2023.2.3,Win32,119.047619,657b66ea316d21385b68909f,,,,,,,,,,,3219.3656,3220.3638,,,3220.8671,3221.1142,,13,13,,,,,,,,,,,,,,,,bars/021.png,bars/mask000.png,,,,,,,,,,,,0,1,,,,,,,10,2,10,3,,,,,,,,,,,3220.3638,3220.867,3221.1142,3224.0306,space,2.9011,,3224.0307,38,57,3225.0329,3225.0329,3225.0384,,,,0,7,7,7,1,155,70,,,,,,,,
,,5f1b768bba959b371da3e65f,65af54f991bb652b9495ba90,2024-01-23_03h36.59.269,bars,2023.2.3,Win32,119.047619,657b66ea316d21385b68909f,,,,,,,,,,,3225.0385,3226.0388,,,3226.539,3226.7887,,2,2,,,,,,,,,,,,,,,,bars/049.png,bars/mask000.png,,,,,,,,,,,,2,1,,,,,,,8,0,9,0,,,,,,,,,,,3226.0388,3226.5389,3226.7887,3233.6154,space,6.824,,3233.6154,22,67,3234.6136,3234.6137,3234.6202,,,,0,8,8,8,1,160,115,,,,,,,,
,,5f1b768bba959b371da3e65f,65af54f991bb652b9495ba90,2024-01-23_03h36.59.269,bars,2023.2.3,Win32,119.047619,657b66ea316d21385b68909f,,,,,,,,,,,3234.6203,3235.6219,,,3236.1221,3236.3721,,130,130,,,,,,,,,,,,,,,,bars/020.png,bars/mask004.png,,,,,,,,,,,,4,1,,,,,,,6,0,8,0,,,,,,,,,,,3235.6219,3236.122,3236.3722,3238.8469,space,2.4678,,3238.8469,15,40,3239.8468,3239.8468,3239.8526,,,,0,9,9,9,1,115,170,,,,,,,,
,,5f1b768bba959b371da3e65f,65af54f991bb652b9495ba90,2024-01-23_03h36.59.269,bars,2023.2.3,Win32,119.047619,657b66ea316d21385b68909f,,,,,,,,,,,3239.8528,3240.8469,,,3241.3468,3241.5968,,125,125,,,,,,,,,,,,,,,,bars/035.png,bars/mask006.png,,,,,,,,,,,,0,1,,,,,,,4,2,3,0,,,,,,,,,,,3240.8469,3241.3468,3241.5968,3245.8134,space,4.2026,,3245.8134,50,65,3246.8135,3246.8136,3246.8192,,,,0,10,10,10,1,175,60,,,,,,,,
,,5f1b768bba959b371da3e65f,65af54f991bb652b9495ba90,2024-01-23_03h36.59.269,bars,2023.2.3,Win32,119.047619,657b66ea316d21385b68909f,,,,,,,,,,,3246.8194,3247.8134,,,3248.3136,3248.5634,,177,-3,,,,,,,,,,,,,,,,bars/014.png,bars/mask003.png,,,,,,,,,,,,1,2,,,,,,,2,0,2,1,,,,,,,,,,,3247.8134,3248.3135,3248.5634,3251.1719,space,2.6002,,3251.172,83,3,3252.1715,3252.1715,3252.1777,,,,0,11,11,11,1,80,0,,,,,,,,
,,5f1b768bba959b371da3e65f,65af54f991bb652b9495ba90,2024-01-23_03h36.59.269,bars,2023.2.3,Win32,119.047619,657b66ea316d21385b68909f,,,,,,,,,,,3252.1779,3253.18,,,3253.68,3253.9302,,30,210,,,,,,,,,,,,,,,,bars/015.png,bars/mask001.png,,,,,,,,,,,,0,2,,,,,,,4,2,6,2,,,,,,,,,,,3253.18,3253.68,3253.9303,3264.7964,space,10.8609,,3264.7964,80,50,3265.7963,3265.7964,3265.8028,,,,0,12,12,12,1,110,160,,,,,,,,
,,5f1b768bba959b371da3e65f,65af54f991bb652b9495ba90,2024-01-23_03h36.59.269,bars,2023.2.3,Win32,119.047619,657b66ea316d21385b68909f,,,,,,,,,,,3265.8031,3266.8047,,,3267.3049,3267.5548,,109,-71,,,,,,,,,,,,,,,,bars/037.png,bars/mask002.png,,,,,,,,,,,,2,2,,,,,,,2,0,2,2,,,,,,,,,,,3266.8047,3267.3049,3267.5548,3271.1713,space,3.6134,,3271.1713,41,4,3272.1655,3272.1655,3272.171,,,,0,13,13,13,1,150,105,,,,,,,,
,,5f1b768bba959b371da3e65f,65af54f991bb652b9495ba90,2024-01-23_03h36.59.269,bars,2023.2.3,Win32,119.047619,657b66ea316d21385b68909f,,,,,,,,,,,3272.1711,3273.1714,,,3273.6714,3273.9238,,18,18,,,,,,,,,,,,,,,,bars/030.png,bars/mask006.png,,,,,,,,,,,,0,2,,,,,,,4,0,6,0,,,,,,,,,,,3273.1714,3273.6714,3273.9238,3391.5691,space,117.6326,,3391.5692,58,47,3392.5632,3392.5632,3392.569,,,,0,14,14,14,1,140,65,,,,,,,,
,,5f1b768bba959b371da3e65f,65af54f991bb652b9495ba90,2024-01-23_03h36.59.269,bars,2023.2.3,Win32,119.047619,657b66ea316d21385b68909f,,,,,,,,,,,3392.5692,3393.5691,,,3394.0691,3394.3191,,43,43,,,,,,,,,,,,,,,,bars/048.png,bars/mask009.png,,,,,,,,,,,,5,1,,,,,,,6,2,6,3,,,,,,,,,,,3393.5691,3394.0691,3394.3191,3395.844,space,1.5137,,3395.844,7,48,3396.844,3396.844,3396.8504,,,,0,15,15,15,1,50,175,,,,,,,,
,,5f1b768bba959b371da3e65f,65af54f991bb652b9495ba90,2024-01-23_03h36.59.269,bars,2023.2.3,Win32,119.047619,657b66ea316d21385b68909f,,,,,,,,,,,3396.8505,3397.8523,,,3398.3523,3398.6024,,57,57,,,,,,,,,,,,,,,,bars/007.png,bars/mask006.png,,,,,,,,,,,,2,2,,,,,,,8,4,9,2,,,,,,,,,,,3397.8523,3398.3523,3398.6024,3399.5522,space,0.9385,,3399.5523,62,2,3400.5523,3400.5523,3400.5542,,,,0,16,16,16,1,175,55,,,,,,,,
,,5f1b768bba959b371da3e65f,65af54f991bb652b9495ba90,2024-01-23_03h36.59.269,bars,2023.2.3,Win32,119.047619,657b66ea316d21385b68909f,,,,,,,,,,,3400.5543,3401.5524,,,3402.0524,3402.3024,,32,32,,,,,,,,,,,,,,,,bars/009.png,bars/mask004.png,,,,,,,,,,,,2,1,,,,,,,6,2,5,1,,,,,,,,,,,3401.5524,3402.0524,3402.3024,3414.1631,space,11.8578,,3414.1632,17,73,3415.1632,3415.1632,3415.1706,,,,0,17,17,17,1,15,105,,,,,,,,
,,5f1b768bba959b371da3e65f,65af54f991bb652b9495ba90,2024-01-23_03h36.59.269,bars,2023.2.3,Win32,119.047619,657b66ea316d21385b68909f,,,,,,,,,,,3415.1708,3416.1693,,,3416.6686,3416.9186,,2,2,,,,,,,,,,,,,,,,bars/007.png,bars/mask004.png,,,,,,,,,,,,3,1,,,,,,,4,0,4,0,,,,,,,,,,,3416.1694,3416.6686,3416.9186,3419.527,space,2.603,,3419.5271,7,53,3420.5271,3420.5272,3420.5329,,,,0,18,18,18,1,175,55,,,,,,,,
,,5f1b768bba959b371da3e65f,65af54f991bb652b9495ba90,2024-01-23_03h36.59.269,bars,2023.2.3,Win32,119.047619,657b66ea316d21385b68909f,,,,,,,,,,,3420.533,3421.527,,,3422.0282,3422.2769,,175,175,,,,,,,,,,,,,,,,bars/026.png,bars/mask005.png,,,,,,,,,,,,0,1,,,,,,,6,2,6,2,,,,,,,,,,,3421.527,3422.027,3422.2769,3433.835,space,11.5444,,3433.8351,40,90,3434.835,3434.835,3434.8415,,,,0,19,19,19,1,35,85,,,,,,,,
,,5f1b768bba959b371da3e65f,65af54f991bb652b9495ba90,2024-01-23_03h36.59.269,bars,2023.2.3,Win32,119.047619,657b66ea316d21385b68909f,,,,,,,,,,,3434.8416,3435.8433,,,3436.3433,3436.596,,104,104,,,,,,,,,,,,,,,,bars/018.png,bars/mask007.png,,,,,,,,,,,,3,2,,,,,,,8,4,7,6,,,,,,,,,,,3435.8433,3436.3433,3436.596,3438.6958,space,2.0915,,3438.6959,46,14,3439.6956,3439.6956,3439.7016,,,,0,20,20,20,1,150,90,,,,,,,,
,,5f1b768bba959b371da3e65f,65af54f991bb652b9495ba90,2024-01-23_03h36.59.269,bars,2023.2.3,Win32,119.047619,657b66ea316d21385b68909f,,,,,,,,,,,3439.7017,3440.7017,,,3441.2018,3441.4519,,134,134,,,,,,,,,,,,,,,,bars/018.png,bars/mask003.png,,,,,,,,,,,,4,1,,,,,,,10,6,9,8,,,,,,,,,,,3440.7017,3441.2018,3441.4519,3457.9455,space,16.491,,3457.9455,16,44,3458.9431,3458.9432,3458.9499,,,,0,21,21,21,1,150,90,,,,,,,,
,,5f1b768bba959b371da3e65f,65af54f991bb652b9495ba90,2024-01-23_03h36.59.269,bars,2023.2.3,Win32,119.047619,657b66ea316d21385b68909f,,,,,,,,,,,3458.9501,3459.9512,,,3460.4512,3460.7012,,138,138,,,,,,,,,,,,,,,,bars/041.png,bars/mask006.png,,,,,,,,,,,,0,2,,,,,,,8,4,8,4,,,,,,,,,,,3459.9512,3460.4512,3460.7012,3557.4495,space,96.7356,,3557.4495,62,53,3558.4496,3558.4496,3558.4568,,,,0,22,22,22,1,20,85,,,,,,,,
,,5f1b768bba959b371da3e65f,65af54f991bb652b9495ba90,2024-01-23_03h36.59.269,bars,2023.2.3,Win32,119.047619,657b66ea316d21385b68909f,,,,,,,,,,,3558.4569,3559.458,,,3559.9577,3560.2081,,158,-22,,,,,,,,,,,,,,,,bars/016.png,bars/mask006.png,,,,,,,,,,,,1,2,,,,,,,10,2,10,1,,,,,,,,,,,3559.4581,3559.9577,3560.2082,3636.5925,space,76.3741,,3636.5925,62,7,3637.5898,3637.5898,3637.5965,,,,0,23,23,23,1,40,165,,,,,,,,
,,5f1b768bba959b371da3e65f,65af54f991bb652b9495ba90,2024-01-23_03h36.59.269,bars,2023.2.3,Win32,119.047619,657b66ea316d21385b68909f,,,,,,,,,,,3637.5966,3638.5981,,,3639.0924,3639.3397,,178,178,,,,,,,,,,,,,,,,bars/011.png,bars/mask002.png,,,,,,,,,,,,4,1,,,,,,,10,4,10,4,,,,,,,,,,,3638.5982,3639.0923,3639.3397,3655.2145,space,15.8635,,3655.2145,18,87,3656.2146,3656.2146,3656.2218,,,,0,24,24,24,1,160,85,,,,,,,,
,,5f1b768bba959b371da3e65f,65af54f991bb652b9495ba90,2024-01-23_03h36.59.269,bars,2023.2.3,Win32,119.047619,657b66ea316d21385b68909f,,,,,,,,,,,3656.2219,3657.2229,,,3657.7227,3657.9728,,162,-18,,,,,,,,,,,,,,,,bars/007.png,bars/mask009.png,,,,,,,,,,,,5,1,,,,,,,10,6,9,5,,,,,,,,,,,3657.2229,3657.7226,3657.9728,3678.1723,space,20.1963,,3678.1723,13,73,3679.167,3679.1671,3679.1729,,,,0,25,25,25,1,175,55,,,,,,,,
,,5f1b768bba959b371da3e65f,65af54f991bb652b9495ba90,2024-01-23_03h36.59.269,bars,2023.2.3,Win32,119.047619,657b66ea316d21385b68909f,,,,,,,,,,,3679.1731,3680.1673,,,3680.664,3680.914,,10,190,,,,,,,,,,,,,,,,bars/002.png,bars/mask008.png,,,,,,,,,,,,0,1,,,,,,,10,8,10,9,,,,,,,,,,,3680.1673,3680.664,3680.914,3687.7152,space,6.7991,,3687.7152,60,75,3688.7137,3688.7137,3688.7202,,,,0,26,26,26,1,130,85,,,,,,,,
,,5f1b768bba959b371da3e65f,65af54f991bb652b9495ba90,2024-01-23_03h36.59.269,bars,2023.2.3,Win32,119.047619,657b66ea316d21385b68909f,,,,,,,,,,,3688.7203,3689.7222,,,3690.2223,3690.4724,,164,164,,,,,,,,,,,,,,,,bars/008.png,bars/mask002.png,,,,,,,,,,,,5,2,,,,,,,10,10,10,10,,,,,,,,,,,3689.7224,3690.2222,3690.4724,3711.3634,space,20.8866,,3711.3635,54,16,3712.3633,3712.3633,3712.3702,,,,0,27,27,27,1,110,0,,,,,,,,
,,5f1b768bba959b371da3e65f,65af54f991bb652b9495ba90,2024-01-23_03h36.59.269,bars,2023.2.3,Win32,119.047619,657b66ea316d21385b68909f,,,,,,,,,,,3712.3704,3713.3716,,,3713.8717,3715.3647,,42,42,,,,,,,,,,,,,,,,bars/024.png,bars/mask000.png,,,,,,,,,,,,0,2,,,,,,,8,10,8,9,,,,,,,,,,,3713.3717,3713.8716,3715.3647,3716.7716,space,1.3957,,3716.7716,78,52,3717.7718,3717.7719,3717.7775,,,,0,28,28,28,1,120,170,,,,,,,,
,,5f1b768bba959b371da3e65f,65af54f991bb652b9495ba90,2024-01-23_03h36.59.269,bars,2023.2.3,Win32,119.047619,657b66ea316d21385b68909f,,,,,,,,,,,3717.7776,3718.7718,,,3719.2719,3719.5215,,167,-13,,,,,,,,,,,,,,,,bars/033.png,bars/mask009.png,,,,,,,,,,,,5,2,,,,,,,6,8,5,8,,,,,,,,,,,3718.7718,3719.2719,3719.5216,3720.6133,space,1.0837,,3720.6133,38,12,3721.6133,3721.6133,3721.6137,,,,0,29,29,29,1,25,155,,,,,,,,
,,5f1b768bba959b371da3e65f,65af54f991bb652b9495ba90,2024-01-23_03h36.59.269,bars,2023.2.3,Win32,119.047619,657b66ea316d21385b68909f,,,,,,,,,,,3721.6137,3722.6134,,,3723.1134,3723.3632,,52,232,,,,,,,,,,,,,,,,bars/004.png,bars/mask004.png,,,,,,,,,,,,0,1,,,,,,,4,10,5,10,,,,,,,,,,,3722.6134,3723.1134,3723.3633,3726.0631,space,2.6921,,3726.0631,27,73,3727.065,3727.0651,3727.0721,,,,0,30,30,30,1,25,125,,,,,,,,
,,5f1b768bba959b371da3e65f,65af54f991bb652b9495ba90,2024-01-23_03h36.59.269,bars,2023.2.3,Win32,119.047619,657b66ea316d21385b68909f,,,,,,,,,,,3727.0723,3728.0742,,,3728.5717,3728.8216,,9,189,,,,,,,,,,,,,,,,bars/012.png,bars/mask004.png,,,,,,,,,,,,7,2,,,,,,,2,8,1,9,,,,,,,,,,,3728.0742,3728.5716,3728.8216,3742.6794,space,13.8446,,3742.6796,81,6,3743.6742,3743.6742,3743.6825,,,,0,31,31,31,1,90,15,,,,,,,,
,,5f1b768bba959b371da3e65f,65af54f991bb652b9495ba90,2024-01-23_03h36.59.269,bars,2023.2.3,Win32,119.047619,657b66ea316d21385b68909f,,,,,,,,,,,3743.6827,3744.6796,,,3745.1795,3745.4296,,4,4,,,,,,,,,,,,,,,,bars/033.png,bars/mask008.png,,,,,,,,,,,,0,1,,,,,,,0,10,0,7,,,,,,,,,,,3744.6797,3745.1795,3745.4296,3770.4457,space,25.0036,,3770.4458,21,29,3771.4457,3771.4457,3771.4528,,,,0,32,32,32,1,25,155,,,,,,,,
,,5f1b768bba959b371da3e65f,65af54f991bb652b9495ba90,2024-01-23_03h36.59.269,bars,2023.2.3,Win32,119.047619,657b66ea316d21385b68909f,,,,,,,,,,,3771.4529,3772.4541,,,3772.9541,3773.1984,,86,86,,,,,,,,,,,,,,,,bars/026.png,bars/mask003.png,,,,,,,,,,,,7,2,,,,,,,2,8,2,7,,,,,,,,,,,3772.4541,3772.9541,3773.1984,3775.5481,space,2.3473,,3775.5481,51,1,3776.5455,3776.5455,3776.5524,,,,0,33,33,33,1,35,85,,,,,,,,
,,5f1b768bba959b371da3e65f,65af54f991bb652b9495ba90,2024-01-23_03h36.59.269,bars,2023.2.3,Win32,119.047619,657b66ea316d21385b68909f,,,,,,,,,,,3776.5526,3777.5539,,,3778.0541,3778.3038,,14,194,,,,,,,,,,,,,,,,bars/009.png,bars/mask007.png,,,,,,,,,,,,1,1,,,,,,,0,10,1,10,,,,,,,,,,,3777.5539,3778.054,3778.304,3798.2064,space,19.8915,,3798.2064,1,89,3799.2035,3799.2035,3799.2107,,,,0,34,34,34,1,15,105,,,,,,,,
,,5f1b768bba959b371da3e65f,65af54f991bb652b9495ba90,2024-01-23_03h36.59.269,bars,2023.2.3,Win32,119.047619,657b66ea316d21385b68909f,,,,,,,,,,,3799.2109,3800.2064,,,3800.7036,3800.9536,,176,176,,,,,,,,,,,,,,,,bars/005.png,bars/mask006.png,,,,,,,,,,,,1,1,,,,,,,2,10,1,10,,,,,,,,,,,3800.2064,3800.7035,3800.9536,3809.8032,space,8.8454,,3809.8032,14,36,3810.8032,3810.8032,3810.8098,,,,0,35,35,35,1,10,140,,,,,,,,
,,5f1b768bba959b371da3e65f,65af54f991bb652b9495ba90,2024-01-23_03h36.59.269,bars,2023.2.3,Win32,119.047619,657b66ea316d21385b68909f,,,,,,,,,,,3810.81,3811.8116,,,3812.312,3812.5618,,176,176,,,,,,,,,,,,,,,,bars/013.png,bars/mask005.png,,,,,,,,,,,,5,2,,,,,,,4,10,4,9,,,,,,,,,,,3811.8118,3812.3119,3812.5618,3825.6315,space,13.0595,,3825.6316,79,14,3826.6308,3826.6308,3826.6377,,,,0,36,36,36,1,75,10,,,,,,,,
,,5f1b768bba959b371da3e65f,65af54f991bb652b9495ba90,2024-01-23_03h36.59.269,bars,2023.2.3,Win32,119.047619,657b66ea316d21385b68909f,,,,,,,,,,,3826.6379,3827.6369,,,3828.1364,3828.3863,,178,178,,,,,,,,,,,,,,,,bars/028.png,bars/mask007.png,,,,,,,,,,,,0,1,,,,,,,6,10,6,9,,,,,,,,,,,3827.637,3828.1364,3828.3863,3833.6195,space,5.226,,3833.6196,47,58,3834.6195,3834.6196,3834.6258,,,,0,37,37,37,1,45,120,,,,,,,,
,,5f1b768bba959b371da3e65f,65af54f991bb652b9495ba90,2024-01-23_03h36.59.269,bars,2023.2.3,Win32,119.047619,657b66ea316d21385b68909f,,,,,,,,,,,3834.626,3835.6278,,,3836.1278,3836.3779,,172,172,,,,,,,,,,,,,,,,bars/024.png,bars/mask004.png,,,,,,,,,,,,7,2,,,,,,,8,10,9,8,,,,,,,,,,,3835.6278,3836.1278,3836.3779,3839.3862,space,3.0006,,3839.3863,52,2,3840.3861,3840.3861,3840.3922,,,,0,38,38,38,1,120,170,,,,,,,,
,,5f1b768bba959b371da3e65f,65af54f991bb652b9495ba90,2024-01-23_03h36.59.269,bars,2023.2.3,Win32,119.047619,657b66ea316d21385b68909f,,,,,,,,,,,3840.3923,3841.3863,,,3841.8863,3842.1361,,144,144,,,,,,,,,,,,,,,,bars/001.png,bars/mask006.png,,,,,,,,,,,,4,1,,,,,,,6,8,7,9,,,,,,,,,,,3841.3863,3841.8863,3842.1362,3852.9694,space,10.8169,,3852.9695,14,59,3853.9633,3853.9634,3853.9705,,,,0,39,39,39,1,130,85,,,,,,,,
,,5f1b768bba959b371da3e65f,65af54f991bb652b9495ba90,2024-01-23_03h36.59.269,bars,2023.2.3,Win32,119.047619,657b66ea316d21385b68909f,,,,,,,,,,,3853.9707,3854.9692,,,3855.4692,3855.7191,,135,135,,,,,,,,,,,,,,,,bars/039.png,bars/mask009.png,,,,,,,,,,,,0,2,,,,,,,4,6,4,6,,,,,,,,,,,3854.9692,3855.4691,3855.7191,3952.501,space,96.7659,,3952.5011,40,30,3953.5007,3953.5007,3953.508,,,,0,40,40,40,1,175,105,,,,,,,,
,,5f1b768bba959b371da3e65f,65af54f991bb652b9495ba90,2024-01-23_03h36.59.269,bars,2023.2.3,Win32,119.047619,657b66ea316d21385b68909f,,,,,,,,,,,3953.5081,3954.5092,,,3955.009,3955.2591,,155,155,,,,,,,,,,,,,,,,bars/036.png,bars/mask008.png,,,,,,,,,,,,4,1,,,,,,,6,8,6,9,,,,,,,,,,,3954.5093,3955.009,3955.2591,3959.3422,space,4.0767,,3959.3422,10,45,3960.3364,3960.3364,3960.3425,,,,0,41,41,41,1,145,20,,,,,,,,
,,5f1b768bba959b371da3e65f,65af54f991bb652b9495ba90,2024-01-23_03h36.59.269,bars,2023.2.3,Win32,119.047619,657b66ea316d21385b68909f,,,,,,,,,,,3960.3427,3961.345,,,3961.8423,3962.0953,,138,138,,,,,,,,,,,,,,,,bars/020.png,bars/mask003.png,,,,,,,,,,,,1,1,,,,,,,4,10,3,10,,,,,,,,,,,3961.3451,3961.8423,3962.0954,3963.4701,space,1.3662,,3963.4701,23,32,3964.4671,3964.4671,3964.4682,,,,0,42,42,42,1,115,170,,,,,,,,
,,5f1b768bba959b371da3e65f,65af54f991bb652b9495ba90,2024-01-23_03h36.59.269,bars,2023.2.3,Win32,119.047619,657b66ea316d21385b68909f,,,,,,,,,,,3964.4685,3965.4673,,,3965.9673,3966.2171,,4,184,,,,,,,,,,,,,,,,bars/007.png,bars/mask003.png,,,,,,,,,,,,1,1,,,,,,,2,10,2,10,,,,,,,,,,,3965.4674,3965.9673,3966.2171,3974.917,space,8.6836,,3974.9171,9,51,3975.917,3975.917,3975.9232,,,,0,43,43,43,1,175,55,,,,,,,,
,,5f1b768bba959b371da3e65f,65af54f991bb652b9495ba90,2024-01-23_03h36.59.269,bars,2023.2.3,Win32,119.047619,657b66ea316d21385b68909f,,,,,,,,,,,3975.9233,3976.9279,,,3977.4253,3977.6752,,163,163,,,,,,,,,,,,,,,,bars/044.png,bars/mask002.png,,,,,,,,,,,,7,2,,,,,,,0,10,1,10,,,,,,,,,,,3976.9279,3977.4253,3977.6752,3988.5003,space,10.809,,3988.5004,88,8,3989.5004,3989.5005,3989.5074,,,,0,44,44,44,1,75,155,,,,,,,,
,,5f1b768bba959b371da3e65f,65af54f991bb652b9495ba90,2024-01-23_03h36.59.269,bars,2023.2.3,Win32,119.047619,657b66ea316d21385b68909f,,,,,,,,,,,3989.5075,3990.5087,,,3991.0085,3991.2584,,151,151,,,,,,,,,,,,,,,,bars/000.png,bars/mask009.png,,,,,,,,,,,,7,2,,,,,,,2,10,1,9,,,,,,,,,,,3990.5088,3991.0085,3991.2585,4002.7583,space,11.4912,,4002.7583,69,6,4003.7584,4003.7584,4003.7648,,,,0,45,45,45,1,40,145,,,,,,,,
,,5f1b768bba959b371da3e65f,65af54f991bb652b9495ba90,2024-01-23_03h36.59.269,bars,2023.2.3,Win32,119.047619,657b66ea316d21385b68909f,,,,,,,,,,,4003.7649,4004.7664,,,4005.2667,4005.5105,,153,153,,,,,,,,,,,,,,,,bars/024.png,bars/mask009.png,,,,,,,,,,,,4,2,,,,,,,0,10,0,10,,,,,,,,,,,4004.7664,4005.2667,4005.5106,4022.2247,space,16.7017,,4022.2248,33,17,4023.2245,4023.2245,4023.2312,,,,0,46,46,46,1,120,170,,,,,,,,
,,5f1b768bba959b371da3e65f,65af54f991bb652b9495ba90,2024-01-23_03h36.59.269,bars,2023.2.3,Win32,119.047619,657b66ea316d21385b68909f,,,,,,,,,,,4023.2313,4024.2328,,,4024.7328,4024.9831,,174,-6,,,,,,,,,,,,,,,,bars/016.png,bars/mask002.png,,,,,,,,,,,,5,2,,,,,,,2,8,3,7,,,,,,,,,,,4024.2328,4024.7328,4024.9831,4027.0244,space,2.0277,,4027.0244,46,9,4028.0245,4028.0246,4028.0304,,,,0,47,47,47,1,40,165,,,,,,,,
,,5f1b768bba959b371da3e65f,65af54f991bb652b9495ba90,2024-01-23_03h36.59.269,bars,2023.2.3,Win32,119.047619,657b66ea316d21385b68909f,,,,,,,,,,,4028.0305,4029.0243,,,4029.5244,4029.7744,,30,30,,,,,,,,,,,,,,,,bars/032.png,bars/mask007.png,,,,,,,,,,,,5,2,,,,,,,4,10,5,8,,,,,,,,,,,4029.0243,4029.5243,4029.7744,4032.802,space,3.0167,,4032.802,85,10,4033.8017,4033.8017,4033.8071,,,,0,48,48,48,1,125,20,,,,,,,,
,,5f1b768bba959b371da3e65f,65af54f991bb652b9495ba90,2024-01-23_03h36.59.269,bars,2023.2.3,Win32,119.047619,657b66ea316d21385b68909f,,,,,,,,,,,4033.8072,4034.8077,,,4035.3083,4035.5577,,2,2,,,,,,,,,,,,,,,,bars/024.png,bars/mask007.png,,,,,,,,,,,,6,2,,,,,,,6,8,6,10,,,,,,,,,,,4034.8078,4035.3082,4035.5577,4039.1575,space,3.5856,,4039.1575,62,12,4040.1574,4040.1575,4040.1635,,,,0,49,49,49,1,120,170,,,,,,,,
,,5f1b768bba959b371da3e65f,65af54f991bb652b9495ba90,2024-01-23_03h36.59.269,bars,2023.2.3,Win32,119.047619,657b66ea316d21385b68909f,,,,,,,,,,,,,,,,,,,,,,,,,,,,,,,,,,,,,,,,,,,,,,,,,,,,,,,,,,,,,,,,,,,,,,,,,,,,,,,,,,,,,,,,,,,,,4040.1636,4106.3906,0,3,3,3,1,sequence_tables/blk045.csv
,,5f1b768bba959b371da3e65f,65af54f991bb652b9495ba90,2024-01-23_03h36.59.269,bars,2023.2.3,Win32,119.047619,657b66ea316d21385b68909f,,,,,,,,,,,4107.276,4108.273,,,4108.7733,4109.0229,,62,62,,,,,,,,,,,,,,,,bars/041.png,bars/mask001.png,,,,,,,,,,,,0,2,,,,,,,4,2,4,1,,,,,,4106.3994,4107.273,space,0.8637,,4108.273,4108.7733,4109.0229,4110.7395,space,1.703,,4110.7396,42,23,4111.7398,4111.7398,4111.7406,,,,0,0,0,0,1,20,85,,,,,,,,
,,5f1b768bba959b371da3e65f,65af54f991bb652b9495ba90,2024-01-23_03h36.59.269,bars,2023.2.3,Win32,119.047619,657b66ea316d21385b68909f,,,,,,,,,,,4111.7408,4112.7397,,,4113.2399,4113.4897,,100,100,,,,,,,,,,,,,,,,bars/029.png,bars/mask005.png,,,,,,,,,,,,2,1,,,,,,,2,4,3,3,,,,,,,,,,,4112.7398,4113.2399,4113.4897,4115.8503,space,2.3503,,4115.8503,10,55,4116.8478,4116.8479,4116.8543,,,,0,1,1,1,1,90,45,,,,,,,,
,,5f1b768bba959b371da3e65f,65af54f991bb652b9495ba90,2024-01-23_03h36.59.269,bars,2023.2.3,Win32,119.047619,657b66ea316d21385b68909f,,,,,,,,,,,4116.8543,4117.8563,,,4118.3564,4118.6061,,70,70,,,,,,,,,,,,,,,,bars/031.png,bars/mask005.png,,,,,,,,,,,,0,2,,,,,,,0,6,0,6,,,,,,,,,,,4117.8563,4118.3564,4118.6062,4121.1644,space,2.5432,,4121.1644,50,35,4122.1645,4122.1646,4122.1707,,,,0,2,2,2,1,120,35,,,,,,,,
,,5f1b768bba959b371da3e65f,65af54f991bb652b9495ba90,2024-01-23_03h36.59.269,bars,2023.2.3,Win32,119.047619,657b66ea316d21385b68909f,,,,,,,,,,,4122.1708,4123.1647,,,4123.6659,4123.9146,,179,179,,,,,,,,,,,,,,,,bars/035.png,bars/mask006.png,,,,,,,,,,,,0,1,,,,,,,2,4,0,5,,,,,,,,,,,4123.1647,4123.6658,4123.9146,4124.7065,space,0.7811,,4124.7066,4,61,4125.706,4125.706,4125.7076,,,,0,3,3,3,1,175,60,,,,,,,,
,,5f1b768bba959b371da3e65f,65af54f991bb652b9495ba90,2024-01-23_03h36.59.269,bars,2023.2.3,Win32,119.047619,657b66ea316d21385b68909f,,,,,,,,,,,4125.7078,4126.7059,,,4127.2062,4127.456,,66,66,,,,,,,,,,,,,,,,bars/036.png,bars/mask005.png,,,,,,,,,,,,0,2,,,,,,,0,2,0,3,,,,,,,,,,,4126.706,4127.2062,4127.4561,4128.8894,space,1.4179,,4128.8894,79,46,4129.8891,4129.8892,4129.8909,,,,0,4,4,4,1,145,20,,,,,,,,
,,5f1b768bba959b371da3e65f,65af54f991bb652b9495ba90,2024-01-23_03h36.59.269,bars,2023.2.3,Win32,119.047619,657b66ea316d21385b68909f,,,,,,,,,,,4129.8911,4130.8893,,,4131.3894,4131.6393,,161,-19,,,,,,,,,,,,,,,,bars/005.png,bars/mask008.png,,,,,,,,,,,,2,2,,,,,,,0,4,0,5,,,,,,,,,,,4130.8893,4131.3893,4131.6393,4136.6974,space,5.0439,,4136.6974,29,21,4137.6974,4137.6974,4137.7032,,,,0,5,5,5,1,10,140,,,,,,,,
,,5f1b768bba959b371da3e65f,65af54f991bb652b9495ba90,2024-01-23_03h36.59.269,bars,2023.2.3,Win32,119.047619,657b66ea316d21385b68909f,,,,,,,,,,,4137.7033,4138.6977,,,4139.1975,4139.4475,,47,227,,,,,,,,,,,,,,,,bars/039.png,bars/mask008.png,,,,,,,,,,,,0,1,,,,,,,0,2,0,1,,,,,,,,,,,4138.6977,4139.1974,4139.4475,4142.6474,space,3.1855,,4142.6475,52,58,4143.6473,4143.6473,4143.6536,,,,0,6,6,6,1,175,105,,,,,,,,
,,5f1b768bba959b371da3e65f,65af54f991bb652b9495ba90,2024-01-23_03h36.59.269,bars,2023.2.3,Win32,119.047619,657b66ea316d21385b68909f,,,,,,,,,,,4143.6538,4144.6556,,,4145.1556,4145.4056,,17,17,,,,,,,,,,,,,,,,bars/037.png,bars/mask009.png,,,,,,,,,,,,0,1,,,,,,,0,0,1,1,,,,,,,,,,,4144.6556,4145.1556,4145.4056,4148.8085,space,3.3921,,4148.8086,47,88,4149.8055,4149.8055,4149.8113,,,,0,7,7,7,1,150,105,,,,,,,,
,,5f1b768bba959b371da3e65f,65af54f991bb652b9495ba90,2024-01-23_03h36.59.269,bars,2023.2.3,Win32,119.047619,657b66ea316d21385b68909f,,,,,,,,,,,4149.8114,4150.8056,,,4151.3056,4151.558,,18,18,,,,,,,,,,,,,,,,bars/049.png,bars/mask001.png,,,,,,,,,,,,0,1,,,,,,,0,2,0,2,,,,,,,,,,,4150.8056,4151.3055,4151.5581,4161.6331,space,10.073,,4161.6331,38,83,4162.6303,4162.6303,4162.6367,,,,0,8,8,8,1,160,115,,,,,,,,
,,5f1b768bba959b371da3e65f,65af54f991bb652b9495ba90,2024-01-23_03h36.59.269,bars,2023.2.3,Win32,119.047619,657b66ea316d21385b68909f,,,,,,,,,,,4162.6368,4163.6386,,,4164.1385,4164.3885,,72,72,,,,,,,,,,,,,,,,bars/011.png,bars/mask003.png,,,,,,,,,,,,1,2,,,,,,,2,0,1,1,,,,,,,,,,,4163.6387,4164.1385,4164.3885,4165.9052,space,1.502,,4165.9052,88,13,4166.9052,4166.9053,4166.9117,,,,0,9,9,9,1,160,85,,,,,,,,
,,5f1b768bba959b371da3e65f,65af54f991bb652b9495ba90,2024-01-23_03h36.59.269,bars,2023.2.3,Win32,119.047619,657b66ea316d21385b68909f,,,,,,,,,,,4166.9118,4167.9135,,,4168.4136,4168.6635,,130,130,,,,,,,,,,,,,,,,bars/040.png,bars/mask003.png,,,,,,,,,,,,0,1,,,,,,,0,0,0,0,,,,,,,,,,,4167.9136,4168.4136,4168.6635,4179.1383,space,10.4665,,4179.1383,10,55,4180.1383,4180.1384,4180.1452,,,,0,10,10,10,1,140,5,,,,,,,,
,,5f1b768bba959b371da3e65f,65af54f991bb652b9495ba90,2024-01-23_03h36.59.269,bars,2023.2.3,Win32,119.047619,657b66ea316d21385b68909f,,,,,,,,,,,4180.1454,4181.1466,,,4181.6466,4181.8967,,51,51,,,,,,,,,,,,,,,,bars/033.png,bars/mask004.png,,,,,,,,,,,,0,1,,,,,,,2,2,3,3,,,,,,,,,,,4181.1466,4181.6466,4181.8967,4184.7798,space,2.8755,,4184.7799,26,76,4185.7799,4185.7799,4185.7856,,,,0,11,11,11,1,25,155,,,,,,,,
,,5f1b768bba959b371da3e65f,65af54f991bb652b9495ba90,2024-01-23_03h36.59.269,bars,2023.2.3,Win32,119.047619,657b66ea316d21385b68909f,,,,,,,,,,,4185.7858,4186.7799,,,4187.2799,4187.5298,,85,85,,,,,,,,,,,,,,,,bars/019.png,bars/mask001.png,,,,,,,,,,,,0,2,,,,,,,0,0,0,0,,,,,,,,,,,4186.78,4187.2798,4187.5298,4189.4215,space,1.8843,,4189.4215,40,20,4190.4215,4190.4215,4190.4277,,,,0,12,12,12,1,45,105,,,,,,,,
