init_variables.started,init_variables.stopped,participant,session,date,expName,psychopyVersion,OS,frameRate,study_id,instruction_exp.started,instruction_exp.stopped,key_resp_8.keys,key_resp_8.rt,key_resp_8.duration,instruction_single.started,instruction_single.stopped,key_resp_2.keys,key_resp_2.rt,key_resp_2.duration,interval.started,interval.stopped,cue_single.started,cue_single.stopped,mask.started,mask.stopped,ori_response_single.started,res_ori,res,ori_response_single.stopped,key_resp_single.keys,key_resp_single.rt,key_resp_single.duration,disp_single.started,disp_single.stopped,key_resp.keys,key_resp.rt,key_resp.duration,single.thisRepN,single.thisTrialN,single.thisN,single.thisIndex,single.ran,ori,path,mask_path,instruction_bandit.started,instruction_bandit.stopped,key_resp_6.keys,key_resp_6.rt,key_resp_6.duration,cue_bandit.started,cue_bandit.stopped,bandit_res.keys,bandit_res.rt,bandit_res.duration,outcome_bandit.started,rew,action,outcome_bandit.stopped,bandit.thisRepN,bandit.thisTrialN,bandit.thisN,bandit.thisIndex,bandit.ran,actual_rew1,actual_rew2,rew1,rew2,instruction_task.started,instruction_task.stopped,key_resp_7.keys,key_resp_7.rt,key_resp_7.duration,wait_ready.started,wait_ready.stopped,key_resp_3.keys,key_resp_3.rt,key_resp_3.duration,cue.started,cue.stopped,ori_response.started,ori_response.stopped,key_resp_5.keys,key_resp_5.rt,key_resp_5.duration,outcome.started,diff1,diff2,outcome.stopped,disp_outcome_practice.started,disp_outcome_practice.stopped,key_resp_4.keys,key_resp_4.rt,key_resp_4.duration,trials.thisRepN,trials.thisTrialN,trials.thisN,trials.thisIndex,trials.ran,ori1,ori2,break_blk.started,break_blk.stopped,block.thisRepN,block.thisTrialN,block.thisN,block.thisIndex,block.ran,condition_file
0.0004,0.0004,656e0220772443817238eba8,65af56a6be6af047326a9909,2024-01-23_07h04.42.655,bars,2023.2.3,Win32,144.9275362,657b66ea316d21385b68909f,,,,,,,,,,,,,,,,,,,,,,,,,,,,,,,,,,,,,,,,,,,,,,,,,,,,,,,,,,,,,,,,,,,,,,,,,,,,,,,,,,,,,,,,,,,,,,,,,,,,
,,656e0220772443817238eba8,65af56a6be6af047326a9909,2024-01-23_07h04.42.655,bars,2023.2.3,Win32,144.9275362,657b66ea316d21385b68909f,0.0006,6.864,y,6.854,,,,,,,,,,,,,,,,,,,,,,,,,,,,,,,,,,,,,,,,,,,,,,,,,,,,,,,,,,,,,,,,,,,,,,,,,,,,,,,,,,,,,,,,,,,,,,,,
,,656e0220772443817238eba8,65af56a6be6af047326a9909,2024-01-23_07h04.42.655,bars,2023.2.3,Win32,144.9275362,657b66ea316d21385b68909f,,,,,,6.864,19.184,space,12.3119,,,,,,,,,,,,,,,,,,,,,,,,,,,,,,,,,,,,,,,,,,,,,,,,,,,,,,,,,,,,,,,,,,,,,,,,,,,,,,,,,,,,,,,,,,,
,,656e0220772443817238eba8,65af56a6be6af047326a9909,2024-01-23_07h04.42.655,bars,2023.2.3,Win32,144.9275362,657b66ea316d21385b68909f,,,,,,,,,,,19.1867,20.1839,20.1839,20.684,20.6841,20.934,20.934,101,-79,29.3583,space,8.4184,,29.3585,35.7265,space,6.3571,,0,0,0,6,1,175,bars/single006.png,bars/mask005.png,,,,,,,,,,,,,,,,,,,,,,,,,,,,,,,,,,,,,,,,,,,,,,,,,,,,,,,,,,,,,,,,
,,656e0220772443817238eba8,65af56a6be6af047326a9909,2024-01-23_07h04.42.655,bars,2023.2.3,Win32,144.9275362,657b66ea316d21385b68909f,,,,,,,,,,,35.7268,36.7262,36.7263,37.2263,37.2264,37.4763,37.4764,46,226,40.4001,space,2.918,,40.4002,41.8724,space,1.4611,,0,1,1,9,1,20,bars/single009.png,bars/mask006.png,,,,,,,,,,,,,,,,,,,,,,,,,,,,,,,,,,,,,,,,,,,,,,,,,,,,,,,,,,,,,,,,
,,656e0220772443817238eba8,65af56a6be6af047326a9909,2024-01-23_07h04.42.655,bars,2023.2.3,Win32,144.9275362,657b66ea316d21385b68909f,,,,,,,,,,,41.8725,42.8723,42.8724,43.3724,43.3724,43.6224,43.6224,150,-30,48.2685,space,4.6399,,48.2685,49.9838,space,1.7012,,0,2,2,8,1,160,bars/single008.png,bars/mask004.png,,,,,,,,,,,,,,,,,,,,,,,,,,,,,,,,,,,,,,,,,,,,,,,,,,,,,,,,,,,,,,,,
,,656e0220772443817238eba8,65af56a6be6af047326a9909,2024-01-23_07h04.42.655,bars,2023.2.3,Win32,144.9275362,657b66ea316d21385b68909f,,,,,,,,,,,49.9841,50.9838,50.9838,51.4838,51.4838,51.7338,51.7338,92,92,53.0674,space,1.3285,,53.0674,54.5604,space,1.4901,,0,3,3,4,1,95,bars/single004.png,bars/mask004.png,,,,,,,,,,,,,,,,,,,,,,,,,,,,,,,,,,,,,,,,,,,,,,,,,,,,,,,,,,,,,,,,
,,656e0220772443817238eba8,65af56a6be6af047326a9909,2024-01-23_07h04.42.655,bars,2023.2.3,Win32,144.9275362,657b66ea316d21385b68909f,,,,,,,,,,,54.5607,55.5604,55.5604,56.0604,56.0604,56.3105,56.3105,5,5,60.1232,space,3.8065,,60.1232,63.2067,space,3.0722,,0,4,4,1,1,20,bars/single001.png,bars/mask006.png,,,,,,,,,,,,,,,,,,,,,,,,,,,,,,,,,,,,,,,,,,,,,,,,,,,,,,,,,,,,,,,,
,,656e0220772443817238eba8,65af56a6be6af047326a9909,2024-01-23_07h04.42.655,bars,2023.2.3,Win32,144.9275362,657b66ea316d21385b68909f,,,,,,,,,,,63.2069,64.2067,64.2067,64.7068,64.7068,64.9567,64.9568,34,34,68.089,space,3.1303,,68.089,70.8391,space,2.7356,,0,5,5,3,1,20,bars/single003.png,bars/mask005.png,,,,,,,,,,,,,,,,,,,,,,,,,,,,,,,,,,,,,,,,,,,,,,,,,,,,,,,,,,,,,,,,
,,656e0220772443817238eba8,65af56a6be6af047326a9909,2024-01-23_07h04.42.655,bars,2023.2.3,Win32,144.9275362,657b66ea316d21385b68909f,,,,,,,,,,,70.8393,71.8391,71.8391,72.339,72.3391,72.5892,72.5892,90,270,77.152,space,4.5567,,77.1521,91.5831,space,14.4203,,0,6,6,5,1,55,bars/single005.png,bars/mask008.png,,,,,,,,,,,,,,,,,,,,,,,,,,,,,,,,,,,,,,,,,,,,,,,,,,,,,,,,,,,,,,,,
,,656e0220772443817238eba8,65af56a6be6af047326a9909,2024-01-23_07h04.42.655,bars,2023.2.3,Win32,144.9275362,657b66ea316d21385b68909f,,,,,,,,,,,91.5895,92.5831,92.5831,93.0831,93.0831,93.3331,93.3331,134,134,97.9584,space,4.6192,,97.9584,98.9587,space,0.9858,,0,7,7,2,1,145,bars/single002.png,bars/mask003.png,,,,,,,,,,,,,,,,,,,,,,,,,,,,,,,,,,,,,,,,,,,,,,,,,,,,,,,,,,,,,,,,
,,656e0220772443817238eba8,65af56a6be6af047326a9909,2024-01-23_07h04.42.655,bars,2023.2.3,Win32,144.9275362,657b66ea316d21385b68909f,,,,,,,,,,,98.9589,99.9583,99.9584,100.4585,100.4585,100.7085,100.7085,165,-15,103.7016,space,2.9889,,103.7017,104.5913,space,0.8792,,0,8,8,0,1,150,bars/single000.png,bars/mask006.png,,,,,,,,,,,,,,,,,,,,,,,,,,,,,,,,,,,,,,,,,,,,,,,,,,,,,,,,,,,,,,,,
,,656e0220772443817238eba8,65af56a6be6af047326a9909,2024-01-23_07h04.42.655,bars,2023.2.3,Win32,144.9275362,657b66ea316d21385b68909f,,,,,,,,,,,104.5915,105.5907,105.5907,106.0906,106.0906,106.3406,106.3407,62,242,109.5287,space,3.1867,,109.5288,110.5007,space,0.9651,,0,9,9,7,1,45,bars/single007.png,bars/mask009.png,,,,,,,,,,,,,,,,,,,,,,,,,,,,,,,,,,,,,,,,,,,,,,,,,,,,,,,,,,,,,,,,
,,656e0220772443817238eba8,65af56a6be6af047326a9909,2024-01-23_07h04.42.655,bars,2023.2.3,Win32,144.9275362,657b66ea316d21385b68909f,,,,,,,,,,,,,,,,,,,,,,,,,,,,,,,,,,,,,110.5014,166.2261,space,55.7181,,,,,,,,,,,,,,,,,,,,,,,,,,,,,,,,,,,,,,,,,,,,,,,,,,,,,,,,,,,,
,,656e0220772443817238eba8,65af56a6be6af047326a9909,2024-01-23_07h04.42.655,bars,2023.2.3,Win32,144.9275362,657b66ea316d21385b68909f,,,,,,,,,,,,,,,,,,,,,,,,,,,,,,,,,,,,,,,,,,166.2335,174.1708,right,7.9252,,174.171,2,2,175.1702,0,0,0,0,1,9,1,9,2,,,,,,,,,,,,,,,,,,,,,,,,,,,,,,,,,,,,,,,,,
,,656e0220772443817238eba8,65af56a6be6af047326a9909,2024-01-23_07h04.42.655,bars,2023.2.3,Win32,144.9275362,657b66ea316d21385b68909f,,,,,,,,,,,,,,,,,,,,,,,,,,,,,,,,,,,,,,,,,,175.1705,178.3369,right,3.1632,,178.337,1,2,179.337,0,1,1,1,1,10,0,10,1,,,,,,,,,,,,,,,,,,,,,,,,,,,,,,,,,,,,,,,,,
,,656e0220772443817238eba8,65af56a6be6af047326a9909,2024-01-23_07h04.42.655,bars,2023.2.3,Win32,144.9275362,657b66ea316d21385b68909f,,,,,,,,,,,,,,,,,,,,,,,,,,,,,,,,,,,,,,,,,,179.3375,179.9969,right,0.6534,,179.997,2,2,180.9969,0,2,2,2,1,10,2,10,2,,,,,,,,,,,,,,,,,,,,,,,,,,,,,,,,,,,,,,,,,
,,656e0220772443817238eba8,65af56a6be6af047326a9909,2024-01-23_07h04.42.655,bars,2023.2.3,Win32,144.9275362,657b66ea316d21385b68909f,,,,,,,,,,,,,,,,,,,,,,,,,,,,,,,,,,,,,,,,,,180.9972,181.6914,right,0.6883,,181.6914,3,2,182.6916,0,3,3,3,1,8,4,7,3,,,,,,,,,,,,,,,,,,,,,,,,,,,,,,,,,,,,,,,,,
,,656e0220772443817238eba8,65af56a6be6af047326a9909,2024-01-23_07h04.42.655,bars,2023.2.3,Win32,144.9275362,657b66ea316d21385b68909f,,,,,,,,,,,,,,,,,,,,,,,,,,,,,,,,,,,,,,,,,,182.6921,183.7957,right,1.0984,,183.7957,1,2,184.7956,0,4,4,4,1,6,2,5,1,,,,,,,,,,,,,,,,,,,,,,,,,,,,,,,,,,,,,,,,,
,,656e0220772443817238eba8,65af56a6be6af047326a9909,2024-01-23_07h04.42.655,bars,2023.2.3,Win32,144.9275362,657b66ea316d21385b68909f,,,,,,,,,,,,,,,,,,,,,,,,,,,,,,,,,,,,,,,,,,184.7959,188.0672,left,3.2658,,188.0672,4,1,189.0668,0,5,5,5,1,4,4,4,4,,,,,,,,,,,,,,,,,,,,,,,,,,,,,,,,,,,,,,,,,
,,656e0220772443817238eba8,65af56a6be6af047326a9909,2024-01-23_07h04.42.655,bars,2023.2.3,Win32,144.9275362,657b66ea316d21385b68909f,,,,,,,,,,,,,,,,,,,,,,,,,,,,,,,,,,,,,,,,,,189.073,190.0532,left,0.9772,,190.0533,1,1,191.0528,0,6,6,6,1,2,2,1,2,,,,,,,,,,,,,,,,,,,,,,,,,,,,,,,,,,,,,,,,,
,,656e0220772443817238eba8,65af56a6be6af047326a9909,2024-01-23_07h04.42.655,bars,2023.2.3,Win32,144.9275362,657b66ea316d21385b68909f,,,,,,,,,,,,,,,,,,,,,,,,,,,,,,,,,,,,,,,,,,191.053,191.3168,right,0.262,,191.3168,1,2,192.3168,0,7,7,7,1,0,0,0,1,,,,,,,,,,,,,,,,,,,,,,,,,,,,,,,,,,,,,,,,,
,,656e0220772443817238eba8,65af56a6be6af047326a9909,2024-01-23_07h04.42.655,bars,2023.2.3,Win32,144.9275362,657b66ea316d21385b68909f,,,,,,,,,,,,,,,,,,,,,,,,,,,,,,,,,,,,,,,,,,192.317,192.5598,right,0.2415,,192.5599,0,2,193.5597,0,8,8,8,1,0,2,1,0,,,,,,,,,,,,,,,,,,,,,,,,,,,,,,,,,,,,,,,,,
,,656e0220772443817238eba8,65af56a6be6af047326a9909,2024-01-23_07h04.42.655,bars,2023.2.3,Win32,144.9275362,657b66ea316d21385b68909f,,,,,,,,,,,,,,,,,,,,,,,,,,,,,,,,,,,,,,,,,,193.5599,194.5323,left,0.9679,,194.5323,2,1,195.5325,0,9,9,9,1,2,4,2,3,,,,,,,,,,,,,,,,,,,,,,,,,,,,,,,,,,,,,,,,,
,,656e0220772443817238eba8,65af56a6be6af047326a9909,2024-01-23_07h04.42.655,bars,2023.2.3,Win32,144.9275362,657b66ea316d21385b68909f,,,,,,,,,,,,,,,,,,,,,,,,,,,,,,,,,,,,,,,,,,195.5332,195.7686,left,0.2323,,195.7686,0,1,196.7683,0,10,10,10,1,0,2,0,3,,,,,,,,,,,,,,,,,,,,,,,,,,,,,,,,,,,,,,,,,
,,656e0220772443817238eba8,65af56a6be6af047326a9909,2024-01-23_07h04.42.655,bars,2023.2.3,Win32,144.9275362,657b66ea316d21385b68909f,,,,,,,,,,,,,,,,,,,,,,,,,,,,,,,,,,,,,,,,,,196.7686,197.2892,left,0.5136,,197.2892,0,1,198.2892,0,11,11,11,1,0,4,0,3,,,,,,,,,,,,,,,,,,,,,,,,,,,,,,,,,,,,,,,,,
,,656e0220772443817238eba8,65af56a6be6af047326a9909,2024-01-23_07h04.42.655,bars,2023.2.3,Win32,144.9275362,657b66ea316d21385b68909f,,,,,,,,,,,,,,,,,,,,,,,,,,,,,,,,,,,,,,,,,,198.2894,198.4977,left,0.2011,,198.4977,1,1,199.4975,0,12,12,12,1,2,6,1,6,,,,,,,,,,,,,,,,,,,,,,,,,,,,,,,,,,,,,,,,,
,,656e0220772443817238eba8,65af56a6be6af047326a9909,2024-01-23_07h04.42.655,bars,2023.2.3,Win32,144.9275362,657b66ea316d21385b68909f,,,,,,,,,,,,,,,,,,,,,,,,,,,,,,,,,,,,,,,,,,199.4979,199.7062,right,0.2017,,199.7062,3,2,200.713,0,13,13,13,1,0,4,1,3,,,,,,,,,,,,,,,,,,,,,,,,,,,,,,,,,,,,,,,,,
,,656e0220772443817238eba8,65af56a6be6af047326a9909,2024-01-23_07h04.42.655,bars,2023.2.3,Win32,144.9275362,657b66ea316d21385b68909f,,,,,,,,,,,,,,,,,,,,,,,,,,,,,,,,,,,,,,,,,,200.7133,200.9283,right,0.2083,,200.9284,7,2,201.9283,0,14,14,14,1,2,6,2,7,,,,,,,,,,,,,,,,,,,,,,,,,,,,,,,,,,,,,,,,,
,,656e0220772443817238eba8,65af56a6be6af047326a9909,2024-01-23_07h04.42.655,bars,2023.2.3,Win32,144.9275362,657b66ea316d21385b68909f,,,,,,,,,,,,,,,,,,,,,,,,,,,,,,,,,,,,,,,,,,201.9286,202.3798,left,0.4482,,202.3799,3,1,203.3797,0,15,15,15,1,4,8,3,9,,,,,,,,,,,,,,,,,,,,,,,,,,,,,,,,,,,,,,,,,
,,656e0220772443817238eba8,65af56a6be6af047326a9909,2024-01-23_07h04.42.655,bars,2023.2.3,Win32,144.9275362,657b66ea316d21385b68909f,,,,,,,,,,,,,,,,,,,,,,,,,,,,,,,,,,,,,,,,,,203.38,203.616,right,0.2294,,203.616,7,2,204.6159,0,16,16,16,1,6,6,7,7,,,,,,,,,,,,,,,,,,,,,,,,,,,,,,,,,,,,,,,,,
,,656e0220772443817238eba8,65af56a6be6af047326a9909,2024-01-23_07h04.42.655,bars,2023.2.3,Win32,144.9275362,657b66ea316d21385b68909f,,,,,,,,,,,,,,,,,,,,,,,,,,,,,,,,,,,,,,,,,,204.6161,204.6716,right,0.0508,,204.6716,5,2,205.6715,0,17,17,17,1,8,4,9,5,,,,,,,,,,,,,,,,,,,,,,,,,,,,,,,,,,,,,,,,,
,,656e0220772443817238eba8,65af56a6be6af047326a9909,2024-01-23_07h04.42.655,bars,2023.2.3,Win32,144.9275362,657b66ea316d21385b68909f,,,,,,,,,,,,,,,,,,,,,,,,,,,,,,,,,,,,,,,,,,205.6718,206.0049,left,0.3305,,206.005,5,1,207.0049,0,18,18,18,1,6,2,5,1,,,,,,,,,,,,,,,,,,,,,,,,,,,,,,,,,,,,,,,,,
,,656e0220772443817238eba8,65af56a6be6af047326a9909,2024-01-23_07h04.42.655,bars,2023.2.3,Win32,144.9275362,657b66ea316d21385b68909f,,,,,,,,,,,,,,,,,,,,,,,,,,,,,,,,,,,,,,,,,,207.0051,207.2342,right,0.2247,,207.2342,0,2,208.2411,0,19,19,19,1,8,0,7,0,,,,,,,,,,,,,,,,,,,,,,,,,,,,,,,,,,,,,,,,,
,,656e0220772443817238eba8,65af56a6be6af047326a9909,2024-01-23_07h04.42.655,bars,2023.2.3,Win32,144.9275362,657b66ea316d21385b68909f,,,,,,,,,,,,,,,,,,,,,,,,,,,,,,,,,,,,,,,,,,,,,,,,,,,,,,,,,,,,208.2418,218.9087,space,10.6593,,,,,,,,,,,,,,,,,,,,,,,,,,,,,,,,,,,,,
,,656e0220772443817238eba8,65af56a6be6af047326a9909,2024-01-23_07h04.42.655,bars,2023.2.3,Win32,144.9275362,657b66ea316d21385b68909f,,,,,,,,,,,219.7862,220.7834,,,221.2836,221.5334,,33,33,,,,,,,,,,,,,,,,bars/028.png,bars/mask003.png,,,,,,,,,,,,2,1,,,,,,,2,7,4,8,,,,,,218.916,219.7836,space,0.8584,,220.7836,221.2836,221.5336,224.9645,space,3.4221,,224.9645,12,87,225.9642,225.9644,231.6176,space,5.6441,,0,0,0,0,1,45,120,,,,,,,,
,,656e0220772443817238eba8,65af56a6be6af047326a9909,2024-01-23_07h04.42.655,bars,2023.2.3,Win32,144.9275362,657b66ea316d21385b68909f,,,,,,,,,,,231.6238,232.6243,,,233.1243,233.3743,,133,133,,,,,,,,,,,,,,,,bars/044.png,bars/mask000.png,,,,,,,,,,,,1,2,,,,,,,4,5,3,5,,,,,,,,,,,232.6243,233.1242,233.3744,234.3812,space,1.0033,,234.3814,58,22,235.3812,235.3812,237.7982,space,2.4076,,0,1,1,1,1,75,155,,,,,,,,
,,656e0220772443817238eba8,65af56a6be6af047326a9909,2024-01-23_07h04.42.655,bars,2023.2.3,Win32,144.9275362,657b66ea316d21385b68909f,,,,,,,,,,,237.7984,238.7981,,,239.2981,239.548,,177,-3,,,,,,,,,,,,,,,,bars/020.png,bars/mask003.png,,,,,,,,,,,,6,2,,,,,,,6,7,7,8,,,,,,,,,,,238.7981,239.2981,239.548,241.5205,space,1.9678,,241.5206,62,7,242.5205,242.5205,243.7499,space,1.2255,,0,2,2,2,1,115,170,,,,,,,,
,,656e0220772443817238eba8,65af56a6be6af047326a9909,2024-01-23_07h04.42.655,bars,2023.2.3,Win32,144.9275362,657b66ea316d21385b68909f,,,,,,,,,,,243.7502,244.7498,,,245.2513,245.4997,,66,66,,,,,,,,,,,,,,,,bars/026.png,bars/mask002.png,,,,,,,,,,,,2,2,,,,,,,8,5,7,5,,,,,,,,,,,244.7499,245.2513,245.4998,246.9652,space,1.4586,,246.9653,31,19,247.9651,247.9651,248.3615,space,0.3867,,0,3,3,3,1,35,85,,,,,,,,
,,656e0220772443817238eba8,65af56a6be6af047326a9909,2024-01-23_07h04.42.655,bars,2023.2.3,Win32,144.9275362,657b66ea316d21385b68909f,,,,,,,,,,,248.3618,249.361,,,249.8613,250.1113,,68,68,,,,,,,,,,,,,,,,bars/002.png,bars/mask009.png,,,,,,,,,,,,1,2,,,,,,,6,3,6,2,,,,,,,,,,,249.361,249.8613,250.1113,252.4584,space,2.345,,252.4585,62,17,253.4584,253.4585,254.3336,space,0.863,,0,4,4,4,1,130,85,,,,,,,,
,,656e0220772443817238eba8,65af56a6be6af047326a9909,2024-01-23_07h04.42.655,bars,2023.2.3,Win32,144.9275362,657b66ea316d21385b68909f,,,,,,,,,,,254.3339,255.3335,,,255.8337,256.0835,,12,12,,,,,,,,,,,,,,,,bars/036.png,bars/mask009.png,,,,,,,,,,,,4,2,,,,,,,4,5,4,6,,,,,,,,,,,255.3336,255.8337,256.0835,257.6322,space,1.5383,,257.6323,47,8,258.6323,258.6323,259.5005,space,0.8585,,0,5,5,5,1,145,20,,,,,,,,
,,656e0220772443817238eba8,65af56a6be6af047326a9909,2024-01-23_07h04.42.655,bars,2023.2.3,Win32,144.9275362,657b66ea316d21385b68909f,,,,,,,,,,,259.5008,260.5003,,,261.0005,261.2505,,19,199,,,,,,,,,,,,,,,,bars/013.png,bars/mask007.png,,,,,,,,,,,,2,2,,,,,,,2,3,3,3,,,,,,,,,,,260.5004,261.0004,261.2505,264.5979,space,3.3429,,264.598,56,9,265.5978,265.5979,266.1883,space,0.5763,,0,6,6,6,1,75,10,,,,,,,,
,,656e0220772443817238eba8,65af56a6be6af047326a9909,2024-01-23_07h04.42.655,bars,2023.2.3,Win32,144.9275362,657b66ea316d21385b68909f,,,,,,,,,,,266.1886,267.1882,,,267.6883,267.9383,,21,21,,,,,,,,,,,,,,,,bars/014.png,bars/mask002.png,,,,,,,,,,,,1,2,,,,,,,4,1,6,2,,,,,,,,,,,267.1882,267.6882,267.9383,272.2025,space,4.2574,,272.2025,59,21,273.2025,273.2025,273.7861,space,0.5711,,0,7,7,7,1,80,0,,,,,,,,
,,656e0220772443817238eba8,65af56a6be6af047326a9909,2024-01-23_07h04.42.655,bars,2023.2.3,Win32,144.9275362,657b66ea316d21385b68909f,,,,,,,,,,,273.7863,274.7857,,,275.286,275.5359,,3,3,,,,,,,,,,,,,,,,bars/022.png,bars/mask005.png,,,,,,,,,,,,2,2,,,,,,,6,3,5,4,,,,,,,,,,,274.7858,275.286,275.5359,278.9597,space,3.415,,278.9597,88,17,279.9596,279.9596,281.5154,space,1.5422,,0,8,8,8,1,95,20,,,,,,,,
,,656e0220772443817238eba8,65af56a6be6af047326a9909,2024-01-23_07h04.42.655,bars,2023.2.3,Win32,144.9275362,657b66ea316d21385b68909f,,,,,,,,,,,281.5157,282.5155,,,283.0153,283.2653,,73,73,,,,,,,,,,,,,,,,bars/047.png,bars/mask007.png,,,,,,,,,,,,5,2,,,,,,,8,5,7,5,,,,,,,,,,,282.5156,283.0153,283.2654,286.9741,space,3.703,,286.9741,58,3,287.9739,287.9739,290.0366,space,2.048,,0,9,9,9,1,15,70,,,,,,,,
,,656e0220772443817238eba8,65af56a6be6af047326a9909,2024-01-23_07h04.42.655,bars,2023.2.3,Win32,144.9275362,657b66ea316d21385b68909f,,,,,,,,,,,290.037,291.0371,,,291.5365,291.7865,,179,179,,,,,,,,,,,,,,,,bars/014.png,bars/mask001.png,,,,,,,,,,,,4,2,,,,,,,10,3,10,4,,,,,,,,,,,291.0371,291.5365,291.7866,294.7312,space,2.9355,,294.7312,81,1,295.7313,295.7315,297.4259,space,1.6795,,0,10,10,10,1,80,0,,,,,,,,
,,656e0220772443817238eba8,65af56a6be6af047326a9909,2024-01-23_07h04.42.655,bars,2023.2.3,Win32,144.9275362,657b66ea316d21385b68909f,,,,,,,,,,,297.4263,298.426,,,298.9263,299.1761,,91,91,,,,,,,,,,,,,,,,bars/021.png,bars/mask006.png,,,,,,,,,,,,1,2,,,,,,,10,1,10,4,,,,,,,,,,,298.4261,298.9263,299.1761,301.6004,space,2.4175,,301.6004,64,21,302.5997,302.5998,303.2805,space,0.6664,,0,11,11,11,1,155,70,,,,,,,,
,,656e0220772443817238eba8,65af56a6be6af047326a9909,2024-01-23_07h04.42.655,bars,2023.2.3,Win32,144.9275362,657b66ea316d21385b68909f,,,,,,,,,,,303.2809,304.2806,,,304.7802,305.0305,,117,117,,,,,,,,,,,,,,,,bars/006.png,bars/mask001.png,,,,,,,,,,,,1,2,,,,,,,10,3,10,3,,,,,,,,,,,304.2807,304.7802,305.0305,306.4331,space,1.3961,,306.4332,82,17,307.4333,307.4333,308.3363,space,0.8893,,0,12,12,12,1,35,100,,,,,,,,
,,656e0220772443817238eba8,65af56a6be6af047326a9909,2024-01-23_07h04.42.655,bars,2023.2.3,Win32,144.9275362,657b66ea316d21385b68909f,,,,,,,,,,,308.3365,309.3359,,,309.8361,310.0859,,21,21,,,,,,,,,,,,,,,,bars/025.png,bars/mask001.png,,,,,,,,,,,,1,2,,,,,,,8,5,6,3,,,,,,,,,,,309.3359,309.836,310.0859,311.8152,space,1.7265,,311.8152,84,19,312.8154,312.8155,313.642,space,0.8201,,0,13,13,13,1,105,40,,,,,,,,
,,656e0220772443817238eba8,65af56a6be6af047326a9909,2024-01-23_07h04.42.655,bars,2023.2.3,Win32,144.9275362,657b66ea316d21385b68909f,,,,,,,,,,,313.6423,314.6418,,,315.1418,315.392,,175,175,,,,,,,,,,,,,,,,bars/042.png,bars/mask009.png,,,,,,,,,,,,0,1,,,,,,,10,7,10,8,,,,,,,,,,,314.6418,315.1417,315.392,316.3433,space,0.9449,,316.3434,30,80,317.3433,317.3433,318.017,space,0.664,,0,14,14,14,1,145,75,,,,,,,,
,,656e0220772443817238eba8,65af56a6be6af047326a9909,2024-01-23_07h04.42.655,bars,2023.2.3,Win32,144.9275362,657b66ea316d21385b68909f,,,,,,,,,,,318.0172,319.0172,,,319.5172,319.7672,,175,175,,,,,,,,,,,,,,,,bars/024.png,bars/mask005.png,,,,,,,,,,,,3,2,,,,,,,8,5,7,4,,,,,,,,,,,319.0173,319.5172,319.7673,322.9199,space,3.1482,,322.92,55,5,323.9199,323.9199,397.2081,space,73.2761,,0,15,15,15,1,120,170,,,,,,,,
,,656e0220772443817238eba8,65af56a6be6af047326a9909,2024-01-23_07h04.42.655,bars,2023.2.3,Win32,144.9275362,657b66ea316d21385b68909f,,,,,,,,,,,397.2145,398.2149,,,398.7082,398.9586,,29,209,,,,,,,,,,,,,,,,bars/013.png,bars/mask008.png,,,,,,,,,,,,2,2,,,,,,,6,3,5,5,,,,,,,,,,,398.215,398.7082,398.9586,402.2291,space,3.2636,,402.2292,46,19,403.2293,403.2293,403.5625,space,0.3195,,0,16,16,16,1,75,10,,,,,,,,
,,656e0220772443817238eba8,65af56a6be6af047326a9909,2024-01-23_07h04.42.655,bars,2023.2.3,Win32,144.9275362,657b66ea316d21385b68909f,,,,,,,,,,,403.5627,404.5628,,,405.0624,405.3131,,146,146,,,,,,,,,,,,,,,,bars/015.png,bars/mask001.png,,,,,,,,,,,,3,2,,,,,,,8,5,8,5,,,,,,,,,,,404.5629,405.0624,405.3131,406.4237,space,1.1054,,406.4238,36,14,407.4239,407.424,452.1273,space,44.6917,,0,17,17,17,1,110,160,,,,,,,,
,,656e0220772443817238eba8,65af56a6be6af047326a9909,2024-01-23_07h04.42.655,bars,2023.2.3,Win32,144.9275362,657b66ea316d21385b68909f,,,,,,,,,,,452.1336,453.1341,,,453.6342,453.8842,,75,255,,,,,,,,,,,,,,,,bars/042.png,bars/mask006.png,,,,,,,,,,,,3,2,,,,,,,6,3,7,3,,,,,,,,,,,453.1342,453.6341,453.8842,457.9262,space,4.0372,,457.9263,70,0,458.9262,458.9262,459.9402,space,1.0017,,0,18,18,18,1,145,75,,,,,,,,
,,656e0220772443817238eba8,65af56a6be6af047326a9909,2024-01-23_07h04.42.655,bars,2023.2.3,Win32,144.9275362,657b66ea316d21385b68909f,,,,,,,,,,,459.9406,460.9404,,,461.4402,461.6901,,159,-21,,,,,,,,,,,,,,,,bars/016.png,bars/mask009.png,,,,,,,,,,,,1,2,,,,,,,8,1,9,1,,,,,,,,,,,460.9404,461.4401,461.6903,465.0308,space,3.339,,465.0308,61,6,466.0308,466.0308,488.1985,space,22.1548,,0,19,19,19,1,40,165,,,,,,,,
,,656e0220772443817238eba8,65af56a6be6af047326a9909,2024-01-23_07h04.42.655,bars,2023.2.3,Win32,144.9275362,657b66ea316d21385b68909f,,,,,,,,,,,488.2048,489.2053,,,489.7053,489.9559,,142,142,,,,,,,,,,,,,,,,bars/043.png,bars/mask004.png,,,,,,,,,,,,0,2,,,,,,,10,0,10,0,,,,,,,,,,,489.2053,489.7053,489.9559,493.9904,space,4.0318,,493.9904,68,12,494.991,494.991,505.1024,space,10.1029,,0,20,20,20,1,30,130,,,,,,,,
,,656e0220772443817238eba8,65af56a6be6af047326a9909,2024-01-23_07h04.42.655,bars,2023.2.3,Win32,144.9275362,657b66ea316d21385b68909f,,,,,,,,,,,505.1085,506.1088,,,506.6089,506.8589,,155,155,,,,,,,,,,,,,,,,bars/043.png,bars/mask002.png,,,,,,,,,,,,0,2,,,,,,,8,0,6,0,,,,,,,,,,,506.1088,506.6089,506.8589,509.234,space,2.3693,,509.234,55,25,510.2342,510.2342,513.3313,space,3.088,,0,21,21,21,1,30,130,,,,,,,,
,,656e0220772443817238eba8,65af56a6be6af047326a9909,2024-01-23_07h04.42.655,bars,2023.2.3,Win32,144.9275362,657b66ea316d21385b68909f,,,,,,,,,,,513.3373,514.3315,,,514.8314,515.0817,,18,198,,,,,,,,,,,,,,,,bars/045.png,bars/mask004.png,,,,,,,,,,,,0,2,,,,,,,6,0,7,0,,,,,,,,,,,514.3315,514.8314,515.0818,518.4222,space,3.3352,,518.4222,82,8,519.422,519.4222,585.8141,space,66.3781,,0,22,22,22,1,100,10,,,,,,,,
,,656e0220772443817238eba8,65af56a6be6af047326a9909,2024-01-23_07h04.42.655,bars,2023.2.3,Win32,144.9275362,657b66ea316d21385b68909f,,,,,,,,,,,585.82,586.8208,,,587.3208,587.5708,,19,19,,,,,,,,,,,,,,,,bars/021.png,bars/mask001.png,,,,,,,,,,,,0,1,,,,,,,4,2,2,1,,,,,,,,,,,586.8208,587.3208,587.5709,591.6891,space,4.1102,,591.6892,44,51,592.6892,592.6894,597.9394,space,5.237,,0,23,23,23,1,155,70,,,,,,,,
,,656e0220772443817238eba8,65af56a6be6af047326a9909,2024-01-23_07h04.42.655,bars,2023.2.3,Win32,144.9275362,657b66ea316d21385b68909f,,,,,,,,,,,597.9451,598.9463,,,599.4464,599.6894,,85,85,,,,,,,,,,,,,,,,bars/018.png,bars/mask008.png,,,,,,,,,,,,3,2,,,,,,,2,4,0,4,,,,,,,,,,,598.9463,599.4464,599.6894,601.0577,space,1.3586,,601.0577,65,5,602.044,602.0441,625.8503,space,23.7922,,0,24,24,24,1,150,90,,,,,,,,
,,656e0220772443817238eba8,65af56a6be6af047326a9909,2024-01-23_07h04.42.655,bars,2023.2.3,Win32,144.9275362,657b66ea316d21385b68909f,,,,,,,,,,,625.8554,626.8572,,,627.3573,627.6003,,27,27,,,,,,,,,,,,,,,,bars/048.png,bars/mask004.png,,,,,,,,,,,,0,1,,,,,,,0,6,0,6,,,,,,,,,,,626.8573,627.3573,627.6004,631.1355,space,3.5331,,631.1355,23,32,632.1357,632.1358,695.6175,space,63.4664,,0,25,25,25,1,50,175,,,,,,,,
,,656e0220772443817238eba8,65af56a6be6af047326a9909,2024-01-23_07h04.42.655,bars,2023.2.3,Win32,144.9275362,657b66ea316d21385b68909f,,,,,,,,,,,695.6239,696.6246,,,697.1244,697.3677,,12,192,,,,,,,,,,,,,,,,bars/000.png,bars/mask006.png,,,,,,,,,,,,0,1,,,,,,,2,8,3,8,,,,,,,,,,,696.6247,697.1244,697.3678,702.708,space,5.3359,,702.7081,28,47,703.7083,703.7083,750.8422,space,47.1249,,0,26,26,26,1,40,145,,,,,,,,
,,656e0220772443817238eba8,65af56a6be6af047326a9909,2024-01-23_07h04.42.655,bars,2023.2.3,Win32,144.9275362,657b66ea316d21385b68909f,,,,,,,,,,,750.8479,751.8423,,,752.3427,752.5922,,166,166,,,,,,,,,,,,,,,,bars/011.png,bars/mask001.png,,,,,,,,,,,,0,1,,,,,,,0,6,0,6,,,,,,,,,,,751.8423,752.3426,752.5922,755.6903,space,3.0917,,755.6903,6,81,756.6903,756.6903,761.6622,space,4.9608,,0,27,27,27,1,160,85,,,,,,,,
,,656e0220772443817238eba8,65af56a6be6af047326a9909,2024-01-23_07h04.42.655,bars,2023.2.3,Win32,144.9275362,657b66ea316d21385b68909f,,,,,,,,,,,761.6681,762.6692,,,763.1627,763.4122,,147,147,,,,,,,,,,,,,,,,bars/042.png,bars/mask005.png,,,,,,,,,,,,0,1,,,,,,,0,8,0,8,,,,,,,,,,,762.6692,763.1627,763.4122,766.954,space,3.5377,,766.954,2,72,767.9543,767.9544,773.6696,space,5.704,,0,28,28,28,1,145,75,,,,,,,,
,,656e0220772443817238eba8,65af56a6be6af047326a9909,2024-01-23_07h04.42.655,bars,2023.2.3,Win32,144.9275362,657b66ea316d21385b68909f,,,,,,,,,,,773.6752,774.67,,,775.1696,775.4198,,125,125,,,,,,,,,,,,,,,,bars/018.png,bars/mask008.png,,,,,,,,,,,,0,1,,,,,,,2,6,2,7,,,,,,,,,,,774.67,775.1696,775.4198,779.0658,space,3.6406,,779.0658,25,35,780.0657,780.0657,781.1839,space,1.108,,0,29,29,29,1,150,90,,,,,,,,
,,656e0220772443817238eba8,65af56a6be6af047326a9909,2024-01-23_07h04.42.655,bars,2023.2.3,Win32,144.9275362,657b66ea316d21385b68909f,,,,,,,,,,,781.1842,782.1838,,,782.684,782.9339,,31,31,,,,,,,,,,,,,,,,bars/023.png,bars/mask002.png,,,,,,,,,,,,0,1,,,,,,,0,8,0,10,,,,,,,,,,,782.1839,782.6839,782.9339,786.2956,space,3.3567,,786.2956,11,84,787.2953,787.2953,826.7554,space,39.4476,,0,30,30,30,1,20,115,,,,,,,,
,,656e0220772443817238eba8,65af56a6be6af047326a9909,2024-01-23_07h04.42.655,bars,2023.2.3,Win32,144.9275362,657b66ea316d21385b68909f,,,,,,,,,,,826.7557,827.7555,,,828.2554,828.5053,,26,26,,,,,,,,,,,,,,,,bars/045.png,bars/mask005.png,,,,,,,,,,,,3,2,,,,,,,0,6,0,6,,,,,,,,,,,827.7557,828.2554,828.5054,831.6727,space,3.163,,831.6728,74,16,832.6723,832.6723,834.7766,space,2.0907,,0,31,31,31,1,100,10,,,,,,,,
,,656e0220772443817238eba8,65af56a6be6af047326a9909,2024-01-23_07h04.42.655,bars,2023.2.3,Win32,144.9275362,657b66ea316d21385b68909f,,,,,,,,,,,834.7768,835.7765,,,836.2765,836.5266,,173,-7,,,,,,,,,,,,,,,,bars/033.png,bars/mask008.png,,,,,,,,,,,,3,2,,,,,,,2,8,3,7,,,,,,,,,,,835.7765,836.2765,836.5267,840.4297,space,3.9007,,840.4298,32,18,841.4298,841.4298,875.0771,space,33.6372,,0,32,32,32,1,25,155,,,,,,,,
,,656e0220772443817238eba8,65af56a6be6af047326a9909,2024-01-23_07h04.42.655,bars,2023.2.3,Win32,144.9275362,657b66ea316d21385b68909f,,,,,,,,,,,875.0828,876.0771,,,876.577,876.8272,,29,29,,,,,,,,,,,,,,,,bars/017.png,bars/mask003.png,,,,,,,,,,,,5,2,,,,,,,4,10,2,10,,,,,,,,,,,876.0771,876.577,876.8272,880.2925,space,3.4568,,880.2925,64,16,881.2934,881.2934,883.8205,space,2.5137,,0,33,33,33,1,145,45,,,,,,,,
,,656e0220772443817238eba8,65af56a6be6af047326a9909,2024-01-23_07h04.42.655,bars,2023.2.3,Win32,144.9275362,657b66ea316d21385b68909f,,,,,,,,,,,883.8208,884.8206,,,885.3205,885.5704,,7,7,,,,,,,,,,,,,,,,bars/014.png,bars/mask000.png,,,,,,,,,,,,6,2,,,,,,,6,10,7,8,,,,,,,,,,,884.8207,885.3205,885.5705,889.7791,space,4.2037,,889.7792,73,7,890.7791,890.7791,918.3223,space,27.5329,,0,34,34,34,1,80,0,,,,,,,,
,,656e0220772443817238eba8,65af56a6be6af047326a9909,2024-01-23_07h04.42.655,bars,2023.2.3,Win32,144.9275362,657b66ea316d21385b68909f,,,,,,,,,,,918.3287,919.329,,,919.8289,920.0789,,164,-16,,,,,,,,,,,,,,,,bars/046.png,bars/mask005.png,,,,,,,,,,,,6,1,,,,,,,8,8,9,9,,,,,,,,,,,919.329,919.8289,920.079,924.1073,space,4.0225,,924.1074,9,79,925.107,925.107,969.38,space,44.2574,,0,35,35,35,1,155,85,,,,,,,,
,,656e0220772443817238eba8,65af56a6be6af047326a9909,2024-01-23_07h04.42.655,bars,2023.2.3,Win32,144.9275362,657b66ea316d21385b68909f,,,,,,,,,,,969.3864,970.3869,,,970.8872,971.137,,50,50,,,,,,,,,,,,,,,,bars/027.png,bars/mask001.png,,,,,,,,,,,,10,2,,,,,,,6,10,7,10,,,,,,,,,,,970.387,970.887,971.137,972.3245,space,1.182,,972.3245,60,0,973.3247,973.3247,979.8872,space,6.5579,,0,36,36,36,1,110,50,,,,,,,,
,,656e0220772443817238eba8,65af56a6be6af047326a9909,2024-01-23_07h04.42.655,bars,2023.2.3,Win32,144.9275362,657b66ea316d21385b68909f,,,,,,,,,,,979.8936,980.8875,,,981.3875,981.6374,,78,78,,,,,,,,,,,,,,,,bars/001.png,bars/mask004.png,,,,,,,,,,,,6,2,,,,,,,8,8,9,8,,,,,,,,,,,980.8876,981.3875,981.6375,984.5264,space,2.8845,,984.5264,52,7,985.5267,985.5267,986.7697,space,1.2293,,0,37,37,37,1,130,85,,,,,,,,
,,656e0220772443817238eba8,65af56a6be6af047326a9909,2024-01-23_07h04.42.655,bars,2023.2.3,Win32,144.9275362,657b66ea316d21385b68909f,,,,,,,,,,,986.77,987.7699,,,988.2696,988.52,,85,85,,,,,,,,,,,,,,,,bars/006.png,bars/mask007.png,,,,,,,,,,,,5,2,,,,,,,10,10,10,10,,,,,,,,,,,987.7699,988.2696,988.5201,991.3885,space,2.8663,,991.3885,50,15,992.3884,992.3884,1052.3699,space,59.9701,,0,38,38,38,1,35,100,,,,,,,,
,,656e0220772443817238eba8,65af56a6be6af047326a9909,2024-01-23_07h04.42.655,bars,2023.2.3,Win32,144.9275362,657b66ea316d21385b68909f,,,,,,,,,,,1052.376,1053.3702,,,1053.8699,1054.1199,,143,143,,,,,,,,,,,,,,,,bars/002.png,bars/mask005.png,,,,,,,,,,,,6,1,,,,,,,10,10,10,10,,,,,,,,,,,1053.3703,1053.8699,1054.1199,1057.7242,space,3.5972,,1057.7243,13,58,1058.7243,1058.7243,1068.8706,space,10.1322,,0,39,39,39,1,130,85,,,,,,,,
,,656e0220772443817238eba8,65af56a6be6af047326a9909,2024-01-23_07h04.42.655,bars,2023.2.3,Win32,144.9275362,657b66ea316d21385b68909f,,,,,,,,,,,1068.8766,1069.8776,,,1070.3708,1070.6205,,1,181,,,,,,,,,,,,,,,,bars/020.png,bars/mask000.png,,,,,,,,,,,,4,2,,,,,,,8,8,7,7,,,,,,,,,,,1069.8776,1070.3708,1070.6206,1074.607,space,3.9808,,1074.6071,66,11,1075.6069,1075.6069,1078.9335,space,3.3116,,0,40,40,40,1,115,170,,,,,,,,
,,656e0220772443817238eba8,65af56a6be6af047326a9909,2024-01-23_07h04.42.655,bars,2023.2.3,Win32,144.9275362,657b66ea316d21385b68909f,,,,,,,,,,,1078.9392,1079.9403,,,1080.4405,1080.6905,,121,121,,,,,,,,,,,,,,,,bars/037.png,bars/mask007.png,,,,,,,,,,,,2,2,,,,,,,10,6,10,5,,,,,,,,,,,1079.9404,1080.4405,1080.6905,1083.9617,space,3.2684,,1083.9617,29,16,1084.9615,1084.9615,1087.0033,space,2.0273,,0,41,41,41,1,150,105,,,,,,,,
,,656e0220772443817238eba8,65af56a6be6af047326a9909,2024-01-23_07h04.42.655,bars,2023.2.3,Win32,144.9275362,657b66ea316d21385b68909f,,,,,,,,,,,1087.0036,1088.0032,,,1088.5033,1088.7533,,102,102,,,,,,,,,,,,,,,,bars/039.png,bars/mask002.png,,,,,,,,,,,,6,2,,,,,,,8,8,7,7,,,,,,,,,,,1088.0032,1088.5033,1088.7534,1092.6772,space,3.9168,,1092.6773,73,3,1093.6771,1093.6771,1094.8023,space,1.1145,,0,42,42,42,1,175,105,,,,,,,,
,,656e0220772443817238eba8,65af56a6be6af047326a9909,2024-01-23_07h04.42.655,bars,2023.2.3,Win32,144.9275362,657b66ea316d21385b68909f,,,,,,,,,,,1094.8026,1095.8022,,,1096.3023,1096.5524,,51,51,,,,,,,,,,,,,,,,bars/035.png,bars/mask005.png,,,,,,,,,,,,4,2,,,,,,,6,6,4,5,,,,,,,,,,,1095.8022,1096.3023,1096.5524,1099.4482,space,2.8927,,1099.4483,56,9,1100.4483,1100.4483,1143.8395,space,43.3793,,0,43,43,43,1,175,60,,,,,,,,
,,656e0220772443817238eba8,65af56a6be6af047326a9909,2024-01-23_07h04.42.655,bars,2023.2.3,Win32,144.9275362,657b66ea316d21385b68909f,,,,,,,,,,,1143.8462,1144.8461,,,1145.3463,1145.5964,,113,113,,,,,,,,,,,,,,,,bars/009.png,bars/mask003.png,,,,,,,,,,,,3,2,,,,,,,8,4,7,4,,,,,,,,,,,1144.8462,1145.3462,1145.5964,1147.0684,space,1.4656,,1147.0685,82,8,1148.0685,1148.0686,1241.1353,space,93.0509,,0,44,44,44,1,15,105,,,,,,,,
,,656e0220772443817238eba8,65af56a6be6af047326a9909,2024-01-23_07h04.42.655,bars,2023.2.3,Win32,144.9275362,657b66ea316d21385b68909f,,,,,,,,,,,1241.1415,1242.1355,,,1242.6357,1242.8853,,171,171,,,,,,,,,,,,,,,,bars/016.png,bars/mask002.png,,,,,,,,,,,,5,2,,,,,,,10,6,10,6,,,,,,,,,,,1242.1355,1242.6355,1242.8853,1245.9623,space,3.0713,,1245.9623,49,6,1246.9618,1246.9619,1247.6633,space,0.6897,,0,45,45,45,1,40,165,,,,,,,,
,,656e0220772443817238eba8,65af56a6be6af047326a9909,2024-01-23_07h04.42.655,bars,2023.2.3,Win32,144.9275362,657b66ea316d21385b68909f,,,,,,,,,,,1247.6636,1248.6638,,,1249.1636,1249.4135,,12,192,,,,,,,,,,,,,,,,bars/014.png,bars/mask001.png,,,,,,,,,,,,3,2,,,,,,,8,4,7,5,,,,,,,,,,,1248.6639,1249.1636,1249.4136,1252.49,space,3.0725,,1252.4901,68,12,1253.4901,1253.4901,1275.8038,space,22.3032,,0,46,46,46,1,80,0,,,,,,,,
,,656e0220772443817238eba8,65af56a6be6af047326a9909,2024-01-23_07h04.42.655,bars,2023.2.3,Win32,144.9275362,657b66ea316d21385b68909f,,,,,,,,,,,1275.8119,1276.8105,,,1277.3106,1277.5606,,153,153,,,,,,,,,,,,,,,,bars/015.png,bars/mask008.png,,,,,,,,,,,,4,2,,,,,,,10,6,10,5,,,,,,,,,,,1276.8106,1277.3106,1277.5606,1279.4565,space,1.8917,,1279.4566,43,7,1280.4566,1280.4566,1280.9287,space,0.4589,,0,47,47,47,1,110,160,,,,,,,,
,,656e0220772443817238eba8,65af56a6be6af047326a9909,2024-01-23_07h04.42.655,bars,2023.2.3,Win32,144.9275362,657b66ea316d21385b68909f,,,,,,,,,,,1280.929,1281.929,,,1282.4288,1282.6788,,91,91,,,,,,,,,,,,,,,,bars/037.png,bars/mask009.png,,,,,,,,,,,,4,2,,,,,,,8,8,7,8,,,,,,,,,,,1281.929,1282.4288,1282.6788,1284.0123,space,1.3269,,1284.0124,59,14,1285.0122,1285.0122,1285.7347,space,0.7146,,0,48,48,48,1,150,105,,,,,,,,
,,656e0220772443817238eba8,65af56a6be6af047326a9909,2024-01-23_07h04.42.655,bars,2023.2.3,Win32,144.9275362,657b66ea316d21385b68909f,,,,,,,,,,,1285.7352,1286.7345,,,1287.2346,1287.4848,,152,152,,,,,,,,,,,,,,,,bars/044.png,bars/mask009.png,,,,,,,,,,,,9,2,,,,,,,6,10,7,10,,,,,,,,,,,1286.7345,1287.2346,1287.4849,1289.8736,space,2.3864,,1289.8736,77,3,1290.8741,1290.8741,1340.2789,space,49.3916,,0,49,49,49,1,75,155,,,,,,,,
,,656e0220772443817238eba8,65af56a6be6af047326a9909,2024-01-23_07h04.42.655,bars,2023.2.3,Win32,144.9275362,657b66ea316d21385b68909f,,,,,,,,,,,,,,,,,,,,,,,,,,,,,,,,,,,,,,,,,,,,,,,,,,,,,,,,,,,,,,,,,,,,,,,,,,,,,,,,,,,,,,,,,,,,,1340.2857,1400.2817,0,0,0,2,1,sequence_tables/blk009.csv
,,656e0220772443817238eba8,65af56a6be6af047326a9909,2024-01-23_07h04.42.655,bars,2023.2.3,Win32,144.9275362,657b66ea316d21385b68909f,,,,,,,,,,,1507.6357,1508.6339,,,1509.1336,1509.384,,71,71,,,,,,,,,,,,,,,,bars/002.png,bars/mask008.png,,,,,,,,,,,,0,2,,,,,,,4,1,3,0,,,,,,1400.2889,1507.6268,space,107.3254,,1508.6339,1509.1336,1509.384,1512.2036,space,2.8136,,1512.2036,59,14,1513.2031,1513.2032,1513.2093,,,,0,0,0,0,1,130,85,,,,,,,,
,,656e0220772443817238eba8,65af56a6be6af047326a9909,2024-01-23_07h04.42.655,bars,2023.2.3,Win32,144.9275362,657b66ea316d21385b68909f,,,,,,,,,,,1513.2097,1514.2101,,,1514.7101,1514.9601,,75,75,,,,,,,,,,,,,,,,bars/034.png,bars/mask002.png,,,,,,,,,,,,0,2,,,,,,,6,0,5,0,,,,,,,,,,,1514.2101,1514.7101,1514.9603,1517.2172,space,2.2502,,1517.2174,50,10,1518.2177,1518.2177,1518.2237,,,,0,1,1,1,1,125,65,,,,,,,,
,,656e0220772443817238eba8,65af56a6be6af047326a9909,2024-01-23_07h04.42.655,bars,2023.2.3,Win32,144.9275362,657b66ea316d21385b68909f,,,,,,,,,,,1518.2238,1519.2242,,,1519.7243,1519.9743,,18,18,,,,,,,,,,,,,,,,bars/007.png,bars/mask004.png,,,,,,,,,,,,1,1,,,,,,,4,0,4,3,,,,,,,,,,,1519.2242,1519.7243,1519.9744,1522.1967,space,2.2172,,1522.1968,23,37,1523.1968,1523.1968,1523.1984,,,,0,2,2,2,1,175,55,,,,,,,,
,,656e0220772443817238eba8,65af56a6be6af047326a9909,2024-01-23_07h04.42.655,bars,2023.2.3,Win32,144.9275362,657b66ea316d21385b68909f,,,,,,,,,,,1523.1986,1524.1967,,,1524.6967,1524.9467,,69,249,,,,,,,,,,,,,,,,bars/030.png,bars/mask009.png,,,,,,,,,,,,1,2,,,,,,,2,2,3,1,,,,,,,,,,,1524.1967,1524.6967,1524.9468,1528.4267,space,3.4739,,1528.4267,71,4,1529.4263,1529.4263,1529.4326,,,,0,3,3,3,1,140,65,,,,,,,,
,,656e0220772443817238eba8,65af56a6be6af047326a9909,2024-01-23_07h04.42.655,bars,2023.2.3,Win32,144.9275362,657b66ea316d21385b68909f,,,,,,,,,,,1529.4327,1530.433,,,1530.9333,1531.1834,,132,132,,,,,,,,,,,,,,,,bars/028.png,bars/mask006.png,,,,,,,,,,,,2,2,,,,,,,4,4,4,4,,,,,,,,,,,1530.4331,1530.9333,1531.1834,1533.2042,space,2.0136,,1533.2043,87,12,1534.2044,1534.2044,1534.21,,,,0,4,4,4,1,45,120,,,,,,,,
,,656e0220772443817238eba8,65af56a6be6af047326a9909,2024-01-23_07h04.42.655,bars,2023.2.3,Win32,144.9275362,657b66ea316d21385b68909f,,,,,,,,,,,1534.2101,1535.2111,,,1535.7116,1535.9613,,33,213,,,,,,,,,,,,,,,,bars/009.png,bars/mask004.png,,,,,,,,,,,,1,1,,,,,,,2,6,2,6,,,,,,,,,,,1535.2111,1535.7115,1535.9613,1538.6557,space,2.6887,,1538.6558,18,72,1539.6558,1539.6558,1539.6626,,,,0,5,5,5,1,15,105,,,,,,,,
,,656e0220772443817238eba8,65af56a6be6af047326a9909,2024-01-23_07h04.42.655,bars,2023.2.3,Win32,144.9275362,657b66ea316d21385b68909f,,,,,,,,,,,1539.6628,1540.6629,,,1541.1627,1541.4128,,15,15,,,,,,,,,,,,,,,,bars/009.png,bars/mask009.png,,,,,,,,,,,,5,1,,,,,,,4,4,5,4,,,,,,,,,,,1540.6629,1541.1627,1541.4128,1544.3853,space,2.9671,,1544.3854,0,90,1545.3852,1545.3852,1545.391,,,,0,6,6,6,1,15,105,,,,,,,,
,,656e0220772443817238eba8,65af56a6be6af047326a9909,2024-01-23_07h04.42.655,bars,2023.2.3,Win32,144.9275362,657b66ea316d21385b68909f,,,,,,,,,,,1545.3912,1546.3922,,,1546.8922,1547.1422,,6,186,,,,,,,,,,,,,,,,bars/016.png,bars/mask002.png,,,,,,,,,,,,2,2,,,,,,,2,6,1,5,,,,,,,,,,,1546.3923,1546.8922,1547.1422,1551.3786,space,4.2338,,1551.3786,34,21,1552.3787,1552.3787,1552.3853,,,,0,7,7,7,1,40,165,,,,,,,,
,,656e0220772443817238eba8,65af56a6be6af047326a9909,2024-01-23_07h04.42.655,bars,2023.2.3,Win32,144.9275362,657b66ea316d21385b68909f,,,,,,,,,,,1552.3855,1553.3856,,,1553.8856,1554.1357,,72,72,,,,,,,,,,,,,,,,bars/002.png,bars/mask000.png,,,,,,,,,,,,3,2,,,,,,,0,4,0,5,,,,,,,,,,,1553.3857,1553.8856,1554.1357,1634.445,space,80.3075,,1634.445,58,13,1635.4447,1635.4448,1635.4514,,,,0,8,8,8,1,130,85,,,,,,,,
,,656e0220772443817238eba8,65af56a6be6af047326a9909,2024-01-23_07h04.42.655,bars,2023.2.3,Win32,144.9275362,657b66ea316d21385b68909f,,,,,,,,,,,1635.4515,1636.4518,,,1636.9519,1637.2021,,25,25,,,,,,,,,,,,,,,,bars/039.png,bars/mask009.png,,,,,,,,,,,,0,1,,,,,,,2,6,3,5,,,,,,,,,,,1636.4518,1636.9518,1637.2022,1645.0771,space,7.8729,,1645.0772,30,80,1646.0773,1646.0773,1646.0845,,,,0,9,9,9,1,175,105,,,,,,,,
,,656e0220772443817238eba8,65af56a6be6af047326a9909,2024-01-23_07h04.42.655,bars,2023.2.3,Win32,144.9275362,657b66ea316d21385b68909f,,,,,,,,,,,1646.0847,1647.0842,,,1647.5845,1647.8342,,28,28,,,,,,,,,,,,,,,,bars/016.png,bars/mask008.png,,,,,,,,,,,,4,1,,,,,,,4,8,7,8,,,,,,,,,,,1647.0843,1647.5845,1647.8343,1652.2099,space,4.3702,,1652.21,12,43,1653.2095,1653.2096,1653.2158,,,,0,10,10,10,1,40,165,,,,,,,,
,,656e0220772443817238eba8,65af56a6be6af047326a9909,2024-01-23_07h04.42.655,bars,2023.2.3,Win32,144.9275362,657b66ea316d21385b68909f,,,,,,,,,,,1653.216,1654.2166,,,1654.7171,1654.9667,,123,123,,,,,,,,,,,,,,,,bars/002.png,bars/mask001.png,,,,,,,,,,,,2,1,,,,,,,2,10,3,8,,,,,,,,,,,1654.2167,1654.7171,1654.9667,1668.752,space,13.7835,,1668.752,7,38,1669.752,1669.752,1669.7588,,,,0,11,11,11,1,130,85,,,,,,,,
,,656e0220772443817238eba8,65af56a6be6af047326a9909,2024-01-23_07h04.42.655,bars,2023.2.3,Win32,144.9275362,657b66ea316d21385b68909f,,,,,,,,,,,1669.759,1670.7594,,,1671.2591,1671.5089,,91,91,,,,,,,,,,,,,,,,bars/015.png,bars/mask006.png,,,,,,,,,,,,1,1,,,,,,,0,10,2,10,,,,,,,,,,,1670.7594,1671.2591,1671.509,1696.0587,space,24.5472,,1696.0587,19,69,1697.0592,1697.0592,1697.0662,,,,0,12,12,12,1,110,160,,,,,,,,
,,656e0220772443817238eba8,65af56a6be6af047326a9909,2024-01-23_07h04.42.655,bars,2023.2.3,Win32,144.9275362,657b66ea316d21385b68909f,,,,,,,,,,,1697.0665,1698.0657,,,1698.566,1698.8164,,51,51,,,,,,,,,,,,,,,,bars/019.png,bars/mask002.png,,,,,,,,,,,,2,1,,,,,,,2,8,2,8,,,,,,,,,,,1698.0657,1698.5659,1698.8164,1699.8163,space,0.9961,,1699.8164,6,54,1700.8159,1700.8159,1700.8163,,,,0,13,13,13,1,45,105,,,,,,,,
,,656e0220772443817238eba8,65af56a6be6af047326a9909,2024-01-23_07h04.42.655,bars,2023.2.3,Win32,144.9275362,657b66ea316d21385b68909f,,,,,,,,,,,1700.8165,1701.8162,,,1702.3158,1702.566,,94,94,,,,,,,,,,,,,,,,bars/020.png,bars/mask008.png,,,,,,,,,,,,2,1,,,,,,,4,6,5,5,,,,,,,,,,,1701.8162,1702.3158,1702.5661,1725.7409,space,23.1699,,1725.7409,21,76,1726.7408,1726.7408,1726.7472,,,,0,14,14,14,1,115,170,,,,,,,,
,,656e0220772443817238eba8,65af56a6be6af047326a9909,2024-01-23_07h04.42.655,bars,2023.2.3,Win32,144.9275362,657b66ea316d21385b68909f,,,,,,,,,,,1726.7473,1727.7476,,,1728.2476,1728.4977,,60,60,,,,,,,,,,,,,,,,bars/001.png,bars/mask008.png,,,,,,,,,,,,1,2,,,,,,,6,8,5,8,,,,,,,,,,,1727.7476,1728.2476,1728.4977,1731.6645,space,3.1609,,1731.6645,70,25,1732.6645,1732.6645,1732.6714,,,,0,15,15,15,1,130,85,,,,,,,,
,,656e0220772443817238eba8,65af56a6be6af047326a9909,2024-01-23_07h04.42.655,bars,2023.2.3,Win32,144.9275362,657b66ea316d21385b68909f,,,,,,,,,,,1732.6716,1733.6716,,,1734.1719,1734.4217,,119,119,,,,,,,,,,,,,,,,bars/049.png,bars/mask001.png,,,,,,,,,,,,6,2,,,,,,,8,6,8,7,,,,,,,,,,,1733.6717,1734.1718,1734.4217,1738.6093,space,4.1797,,1738.6094,41,4,1739.6093,1739.6093,1739.6154,,,,0,16,16,16,1,160,115,,,,,,,,
,,656e0220772443817238eba8,65af56a6be6af047326a9909,2024-01-23_07h04.42.655,bars,2023.2.3,Win32,144.9275362,657b66ea316d21385b68909f,,,,,,,,,,,1739.6156,1740.6167,,,1741.1164,1741.3663,,128,128,,,,,,,,,,,,,,,,bars/023.png,bars/mask002.png,,,,,,,,,,,,2,2,,,,,,,10,4,10,3,,,,,,,,,,,1740.6167,1741.1164,1741.3665,1746.7069,space,5.3341,,1746.7069,72,13,1747.7068,1747.7068,1747.7132,,,,0,17,17,17,1,20,115,,,,,,,,
,,656e0220772443817238eba8,65af56a6be6af047326a9909,2024-01-23_07h04.42.655,bars,2023.2.3,Win32,144.9275362,657b66ea316d21385b68909f,,,,,,,,,,,1747.7133,1748.7139,,,1749.2139,1749.464,,0,0,,,,,,,,,,,,,,,,bars/044.png,bars/mask001.png,,,,,,,,,,,,0,2,,,,,,,10,2,10,2,,,,,,,,,,,1748.714,1749.2139,1749.464,1751.742,space,2.2742,,1751.742,75,25,1752.7418,1752.7419,1752.7423,,,,0,18,18,18,1,75,155,,,,,,,,
,,656e0220772443817238eba8,65af56a6be6af047326a9909,2024-01-23_07h04.42.655,bars,2023.2.3,Win32,144.9275362,657b66ea316d21385b68909f,,,,,,,,,,,1752.7425,1753.7419,,,1754.2419,1754.4922,,143,143,,,,,,,,,,,,,,,,bars/027.png,bars/mask005.png,,,,,,,,,,,,0,1,,,,,,,8,4,9,4,,,,,,,,,,,1753.7419,1754.2419,1754.4922,1756.624,space,2.1254,,1756.6241,33,87,1757.6239,1757.6239,1757.6309,,,,0,19,19,19,1,110,50,,,,,,,,
,,656e0220772443817238eba8,65af56a6be6af047326a9909,2024-01-23_07h04.42.655,bars,2023.2.3,Win32,144.9275362,657b66ea316d21385b68909f,,,,,,,,,,,1757.6312,1758.6311,,,1759.1313,1759.3811,,64,64,,,,,,,,,,,,,,,,bars/041.png,bars/mask001.png,,,,,,,,,,,,1,2,,,,,,,10,2,10,3,,,,,,,,,,,1758.6312,1759.1313,1759.3811,1763.215,space,3.8294,,1763.215,44,21,1764.2147,1764.2148,1764.2223,,,,0,20,20,20,1,20,85,,,,,,,,
,,656e0220772443817238eba8,65af56a6be6af047326a9909,2024-01-23_07h04.42.655,bars,2023.2.3,Win32,144.9275362,657b66ea316d21385b68909f,,,,,,,,,,,1764.2224,1765.2217,,,1765.7217,1765.9717,,21,21,,,,,,,,,,,,,,,,bars/017.png,bars/mask001.png,,,,,,,,,,,,0,2,,,,,,,10,0,9,0,,,,,,,,,,,1765.2217,1765.7216,1765.9717,1827.6691,space,61.6916,,1827.6691,56,24,1828.6692,1828.6692,1828.6767,,,,0,21,21,21,1,145,45,,,,,,,,
,,656e0220772443817238eba8,65af56a6be6af047326a9909,2024-01-23_07h04.42.655,bars,2023.2.3,Win32,144.9275362,657b66ea316d21385b68909f,,,,,,,,,,,1828.6772,1829.6759,,,1830.1759,1830.4259,,150,150,,,,,,,,,,,,,,,,bars/043.png,bars/mask007.png,,,,,,,,,,,,0,2,,,,,,,8,0,7,0,,,,,,,,,,,1829.6759,1830.1759,1830.426,1833.3499,space,2.9201,,1833.3499,60,20,1834.3498,1834.3498,1834.3557,,,,0,22,22,22,1,30,130,,,,,,,,
,,656e0220772443817238eba8,65af56a6be6af047326a9909,2024-01-23_07h04.42.655,bars,2023.2.3,Win32,144.9275362,657b66ea316d21385b68909f,,,,,,,,,,,1834.3558,1835.3566,,,1835.8567,1836.1071,,71,71,,,,,,,,,,,,,,,,bars/012.png,bars/mask003.png,,,,,,,,,,,,1,1,,,,,,,6,0,4,0,,,,,,,,,,,1835.3567,1835.8567,1836.1071,1838.857,space,2.7465,,1838.857,19,56,1839.8572,1839.8572,1839.8638,,,,0,23,23,23,1,90,15,,,,,,,,
,,656e0220772443817238eba8,65af56a6be6af047326a9909,2024-01-23_07h04.42.655,bars,2023.2.3,Win32,144.9275362,657b66ea316d21385b68909f,,,,,,,,,,,1839.8641,1840.8642,,,1841.3639,1841.6139,,115,115,,,,,,,,,,,,,,,,bars/039.png,bars/mask004.png,,,,,,,,,,,,0,2,,,,,,,8,0,8,0,,,,,,,,,,,1840.8642,1841.3638,1841.6139,1844.5516,space,2.9344,,1844.5516,60,10,1845.552,1845.5521,1845.5584,,,,0,24,24,24,1,175,105,,,,,,,,
,,656e0220772443817238eba8,65af56a6be6af047326a9909,2024-01-23_07h04.42.655,bars,2023.2.3,Win32,144.9275362,657b66ea316d21385b68909f,,,,,,,,,,,1845.5587,1846.5585,,,1847.0585,1847.3087,,14,194,,,,,,,,,,,,,,,,bars/032.png,bars/mask007.png,,,,,,,,,,,,0,2,,,,,,,6,0,5,0,,,,,,,,,,,1846.5585,1847.0585,1847.3087,1914.2215,space,66.9071,,1914.2215,69,6,1915.2215,1915.2215,1915.2282,,,,0,25,25,25,1,125,20,,,,,,,,
,,656e0220772443817238eba8,65af56a6be6af047326a9909,2024-01-23_07h04.42.655,bars,2023.2.3,Win32,144.9275362,657b66ea316d21385b68909f,,,,,,,,,,,1915.2285,1916.2283,,,1916.7285,1916.9784,,2,2,,,,,,,,,,,,,,,,bars/008.png,bars/mask001.png,,,,,,,,,,,,4,2,,,,,,,8,2,7,4,,,,,,,,,,,1916.2283,1916.7285,1916.9784,1919.7425,space,2.7581,,1919.7425,72,2,1920.7424,1920.7424,1920.7486,,,,0,26,26,26,1,110,0,,,,,,,,
,,656e0220772443817238eba8,65af56a6be6af047326a9909,2024-01-23_07h04.42.655,bars,2023.2.3,Win32,144.9275362,657b66ea316d21385b68909f,,,,,,,,,,,1920.7488,1921.7497,,,1922.2496,1922.4997,,16,16,,,,,,,,,,,,,,,,bars/036.png,bars/mask002.png,,,,,,,,,,,,1,2,,,,,,,6,0,6,1,,,,,,,,,,,1921.7497,1922.2496,1922.4998,1926.1666,space,3.662,,1926.1667,51,4,1927.1667,1927.1667,1927.1722,,,,0,27,27,27,1,145,20,,,,,,,,
,,656e0220772443817238eba8,65af56a6be6af047326a9909,2024-01-23_07h04.42.655,bars,2023.2.3,Win32,144.9275362,657b66ea316d21385b68909f,,,,,,,,,,,1927.1723,1928.1734,,,1928.6736,1928.9234,,13,13,,,,,,,,,,,,,,,,bars/012.png,bars/mask003.png,,,,,,,,,,,,3,2,,,,,,,4,2,4,3,,,,,,,,,,,1928.1734,1928.6736,1928.9234,1934.4588,space,5.5326,,1934.4588,77,2,1935.4584,1935.4584,1935.4647,,,,0,28,28,28,1,90,15,,,,,,,,
,,656e0220772443817238eba8,65af56a6be6af047326a9909,2024-01-23_07h04.42.655,bars,2023.2.3,Win32,144.9275362,657b66ea316d21385b68909f,,,,,,,,,,,1935.4649,1936.4662,,,1936.9661,1937.216,,33,33,,,,,,,,,,,,,,,,bars/040.png,bars/mask009.png,,,,,,,,,,,,0,2,,,,,,,2,0,2,0,,,,,,,,,,,1936.4663,1936.966,1937.216,1970.8076,space,33.5853,,1970.8077,73,28,1971.8073,1971.8073,1971.8137,,,,0,29,29,29,1,140,5,,,,,,,,
,,656e0220772443817238eba8,65af56a6be6af047326a9909,2024-01-23_07h04.42.655,bars,2023.2.3,Win32,144.9275362,657b66ea316d21385b68909f,,,,,,,,,,,1971.8139,1972.8146,,,1973.3147,1973.5643,,65,65,,,,,,,,,,,,,,,,bars/047.png,bars/mask007.png,,,,,,,,,,,,0,2,,,,,,,4,0,4,0,,,,,,,,,,,1972.8147,1973.3147,1973.5644,1975.579,space,2.0073,,1975.579,50,5,1976.5787,1976.5787,1976.5858,,,,0,30,30,30,1,15,70,,,,,,,,
,,656e0220772443817238eba8,65af56a6be6af047326a9909,2024-01-23_07h04.42.655,bars,2023.2.3,Win32,144.9275362,657b66ea316d21385b68909f,,,,,,,,,,,1976.5861,1977.5856,,,1978.0854,1978.3356,,42,42,,,,,,,,,,,,,,,,bars/035.png,bars/mask005.png,,,,,,,,,,,,0,2,,,,,,,2,0,0,0,,,,,,,,,,,1977.5856,1978.0854,1978.3356,1979.28,space,0.937,,1979.28,47,18,1980.2799,1980.2799,1980.2804,,,,0,31,31,31,1,175,60,,,,,,,,
,,656e0220772443817238eba8,65af56a6be6af047326a9909,2024-01-23_07h04.42.655,bars,2023.2.3,Win32,144.9275362,657b66ea316d21385b68909f,,,,,,,,,,,1980.2806,1981.28,,,1981.7801,1982.0303,,66,66,,,,,,,,,,,,,,,,bars/026.png,bars/mask009.png,,,,,,,,,,,,0,2,,,,,,,0,0,0,0,,,,,,,,,,,1981.28,1981.7801,1982.0303,1984.5933,space,2.5558,,1984.5933,31,19,1985.5929,1985.5929,1985.5994,,,,0,32,32,32,1,35,85,,,,,,,,
,,656e0220772443817238eba8,65af56a6be6af047326a9909,2024-01-23_07h04.42.655,bars,2023.2.3,Win32,144.9275362,657b66ea316d21385b68909f,,,,,,,,,,,1985.5996,1986.6,,,1987.0999,1987.3502,,152,152,,,,,,,,,,,,,,,,bars/000.png,bars/mask004.png,,,,,,,,,,,,2,2,,,,,,,0,2,0,3,,,,,,,,,,,1986.6,1987.0999,1987.3502,1989.0236,space,1.6694,,1989.0237,68,7,1990.0234,1990.0234,1990.0294,,,,0,33,33,33,1,40,145,,,,,,,,
,,656e0220772443817238eba8,65af56a6be6af047326a9909,2024-01-23_07h04.42.655,bars,2023.2.3,Win32,144.9275362,657b66ea316d21385b68909f,,,,,,,,,,,1990.0296,1991.0305,,,1991.5306,1991.7805,,61,61,,,,,,,,,,,,,,,,bars/010.png,bars/mask003.png,,,,,,,,,,,,3,2,,,,,,,2,4,0,4,,,,,,,,,,,1991.0305,1991.5305,1991.7805,1995.7252,space,3.9388,,1995.7252,76,6,1996.7252,1996.7252,1996.7319,,,,0,34,34,34,1,165,55,,,,,,,,
,,656e0220772443817238eba8,65af56a6be6af047326a9909,2024-01-23_07h04.42.655,bars,2023.2.3,Win32,144.9275362,657b66ea316d21385b68909f,,,,,,,,,,,1996.7321,1997.7321,,,1998.2325,1998.4824,,23,23,,,,,,,,,,,,,,,,bars/012.png,bars/mask003.png,,,,,,,,,,,,4,2,,,,,,,4,6,5,5,,,,,,,,,,,1997.7321,1998.2325,1998.4824,2002.6006,space,4.1115,,2002.6006,67,8,2003.6004,2003.6004,2003.6065,,,,0,35,35,35,1,90,15,,,,,,,,
,,656e0220772443817238eba8,65af56a6be6af047326a9909,2024-01-23_07h04.42.655,bars,2023.2.3,Win32,144.9275362,657b66ea316d21385b68909f,,,,,,,,,,,2003.6066,2004.6077,,,2005.1078,2005.3581,,10,10,,,,,,,,,,,,,,,,bars/032.png,bars/mask003.png,,,,,,,,,,,,2,2,,,,,,,6,4,6,3,,,,,,,,,,,2004.6077,2005.1077,2005.3581,2008.8302,space,3.4694,,2008.8302,65,10,2009.8299,2009.8299,2009.8361,,,,0,36,36,36,1,125,20,,,,,,,,
,,656e0220772443817238eba8,65af56a6be6af047326a9909,2024-01-23_07h04.42.655,bars,2023.2.3,Win32,144.9275362,657b66ea316d21385b68909f,,,,,,,,,,,2009.8362,2010.8372,,,2011.3373,2011.587,,14,14,,,,,,,,,,,,,,,,bars/023.png,bars/mask005.png,,,,,,,,,,,,3,1,,,,,,,4,6,4,6,,,,,,,,,,,2010.8372,2011.337,2011.587,2015.1149,space,3.525,,2015.115,6,79,2016.115,2016.115,2016.1224,,,,0,37,37,37,1,20,115,,,,,,,,
,,656e0220772443817238eba8,65af56a6be6af047326a9909,2024-01-23_07h04.42.655,bars,2023.2.3,Win32,144.9275362,657b66ea316d21385b68909f,,,,,,,,,,,2016.1226,2017.1218,,,2017.622,2017.8723,,47,47,,,,,,,,,,,,,,,,bars/025.png,bars/mask002.png,,,,,,,,,,,,6,2,,,,,,,2,8,2,8,,,,,,,,,,,2017.1219,2017.622,2017.8724,2019.5949,space,1.7178,,2019.5949,58,7,2020.5943,2020.5943,2020.6007,,,,0,38,38,38,1,105,40,,,,,,,,
,,656e0220772443817238eba8,65af56a6be6af047326a9909,2024-01-23_07h04.42.655,bars,2023.2.3,Win32,144.9275362,657b66ea316d21385b68909f,,,,,,,,,,,2020.6009,2021.6014,,,2022.1014,2022.3514,,126,126,,,,,,,,,,,,,,,,bars/049.png,bars/mask009.png,,,,,,,,,,,,6,2,,,,,,,4,10,4,10,,,,,,,,,,,2021.6014,2022.1013,2022.3515,2023.282,space,0.9245,,2023.282,34,11,2024.2819,2024.2819,2024.2824,,,,0,39,39,39,1,160,115,,,,,,,,
,,656e0220772443817238eba8,65af56a6be6af047326a9909,2024-01-23_07h04.42.655,bars,2023.2.3,Win32,144.9275362,657b66ea316d21385b68909f,,,,,,,,,,,2024.2826,2025.2822,,,2025.7823,2026.0321,,59,59,,,,,,,,,,,,,,,,bars/047.png,bars/mask007.png,,,,,,,,,,,,5,2,,,,,,,2,8,3,8,,,,,,,,,,,2025.2822,2025.7823,2026.0321,2027.9489,space,1.91,,2027.9489,44,11,2028.9491,2028.9491,2028.9552,,,,0,40,40,40,1,15,70,,,,,,,,
,,656e0220772443817238eba8,65af56a6be6af047326a9909,2024-01-23_07h04.42.655,bars,2023.2.3,Win32,144.9275362,657b66ea316d21385b68909f,,,,,,,,,,,2028.9553,2029.9557,,,2030.4558,2030.7059,,13,13,,,,,,,,,,,,,,,,bars/048.png,bars/mask005.png,,,,,,,,,,,,2,2,,,,,,,4,6,4,6,,,,,,,,,,,2029.9558,2030.4558,2030.7059,2181.178,space,150.467,,2181.1781,37,18,2182.1784,2182.1784,2182.1848,,,,0,41,41,41,1,50,175,,,,,,,,
,,656e0220772443817238eba8,65af56a6be6af047326a9909,2024-01-23_07h04.42.655,bars,2023.2.3,Win32,144.9275362,657b66ea316d21385b68909f,,,,,,,,,,,2182.1851,2183.1859,,,2183.6851,2183.9351,,163,163,,,,,,,,,,,,,,,,bars/003.png,bars/mask008.png,,,,,,,,,,,,2,2,,,,,,,6,8,4,10,,,,,,,,,,,2183.1859,2183.6851,2183.9351,2185.7481,space,1.8102,,2185.7481,42,23,2186.7476,2186.7476,2186.7537,,,,0,42,42,42,1,25,140,,,,,,,,
,,656e0220772443817238eba8,65af56a6be6af047326a9909,2024-01-23_07h04.42.655,bars,2023.2.3,Win32,144.9275362,657b66ea316d21385b68909f,,,,,,,,,,,2186.7538,2187.7547,,,2188.2548,2188.5047,,110,110,,,,,,,,,,,,,,,,bars/037.png,bars/mask004.png,,,,,,,,,,,,8,2,,,,,,,8,10,8,10,,,,,,,,,,,2187.7547,2188.2548,2188.5048,2189.8802,space,1.3677,,2189.8803,40,5,2190.8802,2190.8802,2190.8808,,,,0,43,43,43,1,150,105,,,,,,,,
,,656e0220772443817238eba8,65af56a6be6af047326a9909,2024-01-23_07h04.42.655,bars,2023.2.3,Win32,144.9275362,657b66ea316d21385b68909f,,,,,,,,,,,2190.8811,2191.8798,,,2192.3799,2192.63,,65,245,,,,,,,,,,,,,,,,bars/038.png,bars/mask000.png,,,,,,,,,,,,8,2,,,,,,,6,10,5,10,,,,,,,,,,,2191.8798,2192.3799,2192.63,2196.5886,space,3.9509,,2196.5887,80,5,2197.5887,2197.5887,2197.5949,,,,0,44,44,44,1,165,70,,,,,,,,
,,656e0220772443817238eba8,65af56a6be6af047326a9909,2024-01-23_07h04.42.655,bars,2023.2.3,Win32,144.9275362,657b66ea316d21385b68909f,,,,,,,,,,,2197.5951,2198.5954,,,2199.0956,2199.3461,,71,71,,,,,,,,,,,,,,,,bars/041.png,bars/mask008.png,,,,,,,,,,,,5,2,,,,,,,4,10,4,10,,,,,,,,,,,2198.5954,2199.0955,2199.3462,2201.1928,space,1.8421,,2201.1928,51,14,2202.1933,2202.1933,2202.199,,,,0,45,45,45,1,20,85,,,,,,,,
,,656e0220772443817238eba8,65af56a6be6af047326a9909,2024-01-23_07h04.42.655,bars,2023.2.3,Win32,144.9275362,657b66ea316d21385b68909f,,,,,,,,,,,2202.1992,2203.1998,,,2203.6999,2203.9499,,33,33,,,,,,,,,,,,,,,,bars/017.png,bars/mask001.png,,,,,,,,,,,,5,2,,,,,,,6,10,6,9,,,,,,,,,,,2203.1999,2203.6999,2203.9499,2206.9779,space,3.0233,,2206.9779,68,12,2207.9777,2207.9777,2207.9837,,,,0,46,46,46,1,145,45,,,,,,,,
,,656e0220772443817238eba8,65af56a6be6af047326a9909,2024-01-23_07h04.42.655,bars,2023.2.3,Win32,144.9275362,657b66ea316d21385b68909f,,,,,,,,,,,2207.9838,2208.9847,,,2209.4849,2209.7355,,126,-54,,,,,,,,,,,,,,,,bars/004.png,bars/mask006.png,,,,,,,,,,,,8,2,,,,,,,4,8,2,8,,,,,,,,,,,2208.9847,2209.4848,2209.7355,2258.2859,space,48.5454,,2258.2859,79,1,2259.2856,2259.2856,2259.2922,,,,0,47,47,47,1,25,125,,,,,,,,
,,656e0220772443817238eba8,65af56a6be6af047326a9909,2024-01-23_07h04.42.655,bars,2023.2.3,Win32,144.9275362,657b66ea316d21385b68909f,,,,,,,,,,,2259.2924,2260.2927,,,2260.7926,2261.0433,,178,-2,,,,,,,,,,,,,,,,bars/029.png,bars/mask002.png,,,,,,,,,,,,0,2,,,,,,,6,10,6,10,,,,,,,,,,,2260.2928,2260.7926,2261.0434,2263.064,space,2.0136,,2263.064,88,47,2264.0637,2264.0637,2264.0696,,,,0,48,48,48,1,90,45,,,,,,,,
,,656e0220772443817238eba8,65af56a6be6af047326a9909,2024-01-23_07h04.42.655,bars,2023.2.3,Win32,144.9275362,657b66ea316d21385b68909f,,,,,,,,,,,2264.0698,2265.0709,,,2265.5707,2265.822,,59,59,,,,,,,,,,,,,,,,bars/034.png,bars/mask001.png,,,,,,,,,,,,8,2,,,,,,,4,10,6,10,,,,,,,,,,,2265.071,2265.5707,2265.822,2267.3416,space,1.515,,2267.3417,66,6,2268.3417,2268.3417,2268.3426,,,,0,49,49,49,1,125,65,,,,,,,,
,,656e0220772443817238eba8,65af56a6be6af047326a9909,2024-01-23_07h04.42.655,bars,2023.2.3,Win32,144.9275362,657b66ea316d21385b68909f,,,,,,,,,,,,,,,,,,,,,,,,,,,,,,,,,,,,,,,,,,,,,,,,,,,,,,,,,,,,,,,,,,,,,,,,,,,,,,,,,,,,,,,,,,,,,2268.3427,2328.345,0,1,1,1,1,sequence_tables/blk008.csv
,,656e0220772443817238eba8,65af56a6be6af047326a9909,2024-01-23_07h04.42.655,bars,2023.2.3,Win32,144.9275362,657b66ea316d21385b68909f,,,,,,,,,,,2644.2519,2645.2478,,,2645.7477,2645.9977,,172,-8,,,,,,,,,,,,,,,,bars/024.png,bars/mask003.png,,,,,,,,,,,,3,2,,,,,,,1,3,2,3,,,,,,2328.3519,2644.2477,space,315.8927,,2645.2478,2645.7477,2645.9977,2648.498,space,2.4962,,2648.498,52,2,2649.498,2649.498,2649.506,,,,0,0,0,0,1,120,170,,,,,,,,
,,656e0220772443817238eba8,65af56a6be6af047326a9909,2024-01-23_07h04.42.655,bars,2023.2.3,Win32,144.9275362,657b66ea316d21385b68909f,,,,,,,,,,,2649.5063,2650.5049,,,2651.0057,2651.2548,,55,55,,,,,,,,,,,,,,,,bars/047.png,bars/mask000.png,,,,,,,,,,,,3,2,,,,,,,3,5,4,6,,,,,,,,,,,2650.505,2651.0056,2651.2549,3016.8689,space,365.6069,,3016.8689,40,15,3017.8688,3017.8688,3017.8761,,,,0,1,1,1,1,15,70,,,,,,,,
,,656e0220772443817238eba8,65af56a6be6af047326a9909,2024-01-23_07h04.42.655,bars,2023.2.3,Win32,144.9275362,657b66ea316d21385b68909f,,,,,,,,,,,3017.8763,3018.876,,,3019.3761,3019.6257,,0,0,,,,,,,,,,,,,,,,bars/046.png,bars/mask000.png,,,,,,,,,,,,0,1,,,,,,,1,3,2,3,,,,,,,,,,,3018.876,3019.376,3019.6257,3024.1676,space,4.5391,,3024.1676,25,85,3025.168,3025.1681,3025.1746,,,,0,2,2,2,1,155,85,,,,,,,,
,,656e0220772443817238eba8,65af56a6be6af047326a9909,2024-01-23_07h04.42.655,bars,2023.2.3,Win32,144.9275362,657b66ea316d21385b68909f,,,,,,,,,,,3025.1748,3026.1752,,,3026.6748,3026.9248,,109,109,,,,,,,,,,,,,,,,bars/032.png,bars/mask001.png,,,,,,,,,,,,0,1,,,,,,,0,1,1,1,,,,,,,,,,,3026.1752,3026.6748,3026.9248,3028.7514,space,1.822,,3028.7514,16,89,3029.7514,3029.7514,3029.7519,,,,0,3,3,3,1,125,20,,,,,,,,
,,656e0220772443817238eba8,65af56a6be6af047326a9909,2024-01-23_07h04.42.655,bars,2023.2.3,Win32,144.9275362,657b66ea316d21385b68909f,,,,,,,,,,,3029.752,3030.7519,,,3031.2514,3031.5014,,176,176,,,,,,,,,,,,,,,,bars/007.png,bars/mask002.png,,,,,,,,,,,,1,1,,,,,,,2,3,1,3,,,,,,,,,,,3030.7519,3031.2514,3031.5014,3032.3488,space,0.8396,,3032.3488,1,59,3033.3487,3033.3487,3033.3493,,,,0,4,4,4,1,175,55,,,,,,,,
,,656e0220772443817238eba8,65af56a6be6af047326a9909,2024-01-23_07h04.42.655,bars,2023.2.3,Win32,144.9275362,657b66ea316d21385b68909f,,,,,,,,,,,3033.3495,3034.3488,,,3034.8488,3035.0992,,78,78,,,,,,,,,,,,,,,,bars/001.png,bars/mask001.png,,,,,,,,,,,,1,2,,,,,,,4,1,3,1,,,,,,,,,,,3034.3488,3034.8487,3035.0993,3038.0086,space,2.9048,,3038.0086,52,7,3039.0088,3039.0088,3039.0149,,,,0,5,5,5,1,130,85,,,,,,,,
,,656e0220772443817238eba8,65af56a6be6af047326a9909,2024-01-23_07h04.42.655,bars,2023.2.3,Win32,144.9275362,657b66ea316d21385b68909f,,,,,,,,,,,3039.015,3040.0156,,,3040.5159,3040.7656,,7,7,,,,,,,,,,,,,,,,bars/038.png,bars/mask004.png,,,,,,,,,,,,1,1,,,,,,,6,3,5,2,,,,,,,,,,,3040.0156,3040.5158,3040.7656,3042.7976,space,2.0248,,3042.7976,22,63,3043.7935,3043.7936,3043.7946,,,,0,6,6,6,1,165,70,,,,,,,,
,,656e0220772443817238eba8,65af56a6be6af047326a9909,2024-01-23_07h04.42.655,bars,2023.2.3,Win32,144.9275362,657b66ea316d21385b68909f,,,,,,,,,,,3043.7947,3044.7937,,,3045.2936,3045.5437,,4,184,,,,,,,,,,,,,,,,bars/048.png,bars/mask007.png,,,,,,,,,,,,3,2,,,,,,,4,5,5,4,,,,,,,,,,,3044.7937,3045.2935,3045.5437,3048.273,space,2.7237,,3048.273,46,9,3049.273,3049.273,3049.2799,,,,0,7,7,7,1,50,175,,,,,,,,
,,656e0220772443817238eba8,65af56a6be6af047326a9909,2024-01-23_07h04.42.655,bars,2023.2.3,Win32,144.9275362,657b66ea316d21385b68909f,,,,,,,,,,,3049.2802,3050.28,,,3050.7801,3051.0301,,59,59,,,,,,,,,,,,,,,,bars/031.png,bars/mask004.png,,,,,,,,,,,,2,2,,,,,,,6,7,7,8,,,,,,,,,,,3050.28,3050.7801,3051.0301,3052.9816,space,1.9435,,3052.9816,61,24,3053.9814,3053.9815,3053.987,,,,0,8,8,8,1,120,35,,,,,,,,
,,656e0220772443817238eba8,65af56a6be6af047326a9909,2024-01-23_07h04.42.655,bars,2023.2.3,Win32,144.9275362,657b66ea316d21385b68909f,,,,,,,,,,,3053.9871,3054.9884,,,3055.4886,3055.7389,,55,235,,,,,,,,,,,,,,,,bars/026.png,bars/mask003.png,,,,,,,,,,,,2,1,,,,,,,4,9,5,8,,,,,,,,,,,3054.9884,3055.4886,3055.7389,3059.6591,space,3.9189,,3059.6591,20,30,3060.6601,3060.6601,3060.6666,,,,0,9,9,9,1,35,85,,,,,,,,
,,656e0220772443817238eba8,65af56a6be6af047326a9909,2024-01-23_07h04.42.655,bars,2023.2.3,Win32,144.9275362,657b66ea316d21385b68909f,,,,,,,,,,,3060.6668,3061.6629,,,3062.1624,3062.4125,,51,51,,,,,,,,,,,,,,,,bars/042.png,bars/mask006.png,,,,,,,,,,,,2,2,,,,,,,6,10,6,10,,,,,,,,,,,3061.6629,3062.1624,3062.4125,3083.2328,space,20.8138,,3083.2331,86,24,3084.2329,3084.2329,3084.2406,,,,0,10,10,10,1,145,75,,,,,,,,
,,656e0220772443817238eba8,65af56a6be6af047326a9909,2024-01-23_07h04.42.655,bars,2023.2.3,Win32,144.9275362,657b66ea316d21385b68909f,,,,,,,,,,,3084.2408,3085.2405,,,3085.7404,3085.9899,,173,-7,,,,,,,,,,,,,,,,bars/040.png,bars/mask007.png,,,,,,,,,,,,5,2,,,,,,,8,8,9,9,,,,,,,,,,,3085.2405,3085.7404,3085.9899,3087.733,space,1.7365,,3087.733,33,12,3088.7331,3088.7331,3088.7383,,,,0,11,11,11,1,140,5,,,,,,,,
,,656e0220772443817238eba8,65af56a6be6af047326a9909,2024-01-23_07h04.42.655,bars,2023.2.3,Win32,144.9275362,657b66ea316d21385b68909f,,,,,,,,,,,3088.7384,3089.7402,,,3090.2402,3090.4931,,50,230,,,,,,,,,,,,,,,,bars/029.png,bars/mask004.png,,,,,,,,,,,,7,2,,,,,,,6,6,5,8,,,,,,,,,,,3089.7403,3090.2402,3090.4931,3093.685,space,3.1789,,3093.685,40,5,3094.685,3094.6852,3094.6913,,,,0,12,12,12,1,90,45,,,,,,,,
,,656e0220772443817238eba8,65af56a6be6af047326a9909,2024-01-23_07h04.42.655,bars,2023.2.3,Win32,144.9275362,657b66ea316d21385b68909f,,,,,,,,,,,3094.6915,3095.6932,,,3096.1919,3096.4417,,173,173,,,,,,,,,,,,,,,,bars/045.png,bars/mask001.png,,,,,,,,,,,,2,2,,,,,,,4,4,4,5,,,,,,,,,,,3095.6932,3096.1918,3096.4418,3101.6159,space,5.1644,,3101.6159,73,17,3102.6156,3102.6156,3102.6227,,,,0,13,13,13,1,100,10,,,,,,,,
,,656e0220772443817238eba8,65af56a6be6af047326a9909,2024-01-23_07h04.42.655,bars,2023.2.3,Win32,144.9275362,657b66ea316d21385b68909f,,,,,,,,,,,3102.623,3103.6226,,,3104.1228,3104.3692,,39,219,,,,,,,,,,,,,,,,bars/028.png,bars/mask008.png,,,,,,,,,,,,5,1,,,,,,,6,6,6,7,,,,,,,,,,,3103.6226,3104.1228,3104.3692,3106.7964,space,2.4214,,3106.7965,6,81,3107.7926,3107.7926,3107.7994,,,,0,14,14,14,1,45,120,,,,,,,,
,,656e0220772443817238eba8,65af56a6be6af047326a9909,2024-01-23_07h04.42.655,bars,2023.2.3,Win32,144.9275362,657b66ea316d21385b68909f,,,,,,,,,,,3107.7996,3108.7999,,,3109.2965,3109.5467,,4,184,,,,,,,,,,,,,,,,bars/047.png,bars/mask008.png,,,,,,,,,,,,5,1,,,,,,,8,4,8,3,,,,,,,,,,,3108.7999,3109.2965,3109.5467,3112.4358,space,2.8828,,3112.4359,11,66,3113.4358,3113.4358,3113.4416,,,,0,15,15,15,1,15,70,,,,,,,,
,,656e0220772443817238eba8,65af56a6be6af047326a9909,2024-01-23_07h04.42.655,bars,2023.2.3,Win32,144.9275362,657b66ea316d21385b68909f,,,,,,,,,,,3113.4416,3114.4426,,,3114.9428,3115.1926,,140,-40,,,,,,,,,,,,,,,,bars/010.png,bars/mask006.png,,,,,,,,,,,,2,1,,,,,,,10,6,10,4,,,,,,,,,,,3114.4426,3114.9427,3115.1926,3118.1235,space,2.9269,,3118.1236,25,85,3119.124,3119.124,3119.1309,,,,0,16,16,16,1,165,55,,,,,,,,
,,656e0220772443817238eba8,65af56a6be6af047326a9909,2024-01-23_07h04.42.655,bars,2023.2.3,Win32,144.9275362,657b66ea316d21385b68909f,,,,,,,,,,,3119.1312,3120.1304,,,3120.6304,3120.8805,,40,40,,,,,,,,,,,,,,,,bars/027.png,bars/mask004.png,,,,,,,,,,,,3,2,,,,,,,10,4,10,5,,,,,,,,,,,3120.1304,3120.6304,3120.8805,3125.367,space,4.4736,,3125.367,70,10,3126.3668,3126.3669,3126.3734,,,,0,17,17,17,1,110,50,,,,,,,,
,,656e0220772443817238eba8,65af56a6be6af047326a9909,2024-01-23_07h04.42.655,bars,2023.2.3,Win32,144.9275362,657b66ea316d21385b68909f,,,,,,,,,,,3126.3737,3127.3745,,,3127.8744,3128.1239,,71,71,,,,,,,,,,,,,,,,bars/002.png,bars/mask008.png,,,,,,,,,,,,4,2,,,,,,,10,6,9,8,,,,,,,,,,,3127.3745,3127.8744,3128.1239,3131.6177,space,3.4865,,3131.6178,59,14,3132.6171,3132.6171,3132.6232,,,,0,18,18,18,1,130,85,,,,,,,,
,,656e0220772443817238eba8,65af56a6be6af047326a9909,2024-01-23_07h04.42.655,bars,2023.2.3,Win32,144.9275362,657b66ea316d21385b68909f,,,,,,,,,,,3132.6233,3133.6205,,,3134.1172,3134.3672,,113,113,,,,,,,,,,,,,,,,bars/006.png,bars/mask009.png,,,,,,,,,,,,5,2,,,,,,,10,8,10,8,,,,,,,,,,,3133.6205,3134.1172,3134.3673,3137.9994,space,3.6236,,3137.9995,78,13,3138.9995,3138.9996,3139.0052,,,,0,19,19,19,1,35,100,,,,,,,,
,,656e0220772443817238eba8,65af56a6be6af047326a9909,2024-01-23_07h04.42.655,bars,2023.2.3,Win32,144.9275362,657b66ea316d21385b68909f,,,,,,,,,,,3139.0053,3140.0065,,,3140.5065,3140.7563,,12,12,,,,,,,,,,,,,,,,bars/022.png,bars/mask004.png,,,,,,,,,,,,4,2,,,,,,,10,6,10,6,,,,,,,,,,,3140.0065,3140.5065,3140.7563,3144.4718,space,3.706,,3144.4719,83,8,3145.4718,3145.4718,3145.4779,,,,0,20,20,20,1,95,20,,,,,,,,
,,656e0220772443817238eba8,65af56a6be6af047326a9909,2024-01-23_07h04.42.655,bars,2023.2.3,Win32,144.9275362,657b66ea316d21385b68909f,,,,,,,,,,,3145.478,3146.4789,,,3146.9789,3147.2289,,20,20,,,,,,,,,,,,,,,,bars/014.png,bars/mask004.png,,,,,,,,,,,,2,2,,,,,,,8,4,7,7,,,,,,,,,,,3146.4789,3146.9789,3147.2289,3149.7221,space,2.4856,,3149.7221,60,20,3150.722,3150.7221,3150.7277,,,,0,21,21,21,1,80,0,,,,,,,,
,,656e0220772443817238eba8,65af56a6be6af047326a9909,2024-01-23_07h04.42.655,bars,2023.2.3,Win32,144.9275362,657b66ea316d21385b68909f,,,,,,,,,,,3150.7279,3151.7228,,,3152.2221,3152.4721,,170,170,,,,,,,,,,,,,,,,bars/021.png,bars/mask001.png,,,,,,,,,,,,5,1,,,,,,,10,2,10,2,,,,,,,,,,,3151.7228,3152.2221,3152.4721,3153.0559,space,0.5785,,3153.0559,15,80,3154.056,3154.056,3154.0568,,,,0,22,22,22,1,155,70,,,,,,,,
,,656e0220772443817238eba8,65af56a6be6af047326a9909,2024-01-23_07h04.42.655,bars,2023.2.3,Win32,144.9275362,657b66ea316d21385b68909f,,,,,,,,,,,3154.057,3155.0557,,,3155.5558,3155.8058,,159,159,,,,,,,,,,,,,,,,bars/039.png,bars/mask000.png,,,,,,,,,,,,4,1,,,,,,,10,0,9,0,,,,,,,,,,,3155.0557,3155.5557,3155.8058,3156.0419,space,0.2304,,3156.042,16,54,3157.042,3157.042,3157.0425,,,,0,23,23,23,1,175,105,,,,,,,,
,,656e0220772443817238eba8,65af56a6be6af047326a9909,2024-01-23_07h04.42.655,bars,2023.2.3,Win32,144.9275362,657b66ea316d21385b68909f,,,,,,,,,,,3157.0426,3158.0419,,,3158.5454,3158.7925,,36,36,,,,,,,,,,,,,,,,bars/019.png,bars/mask009.png,,,,,,,,,,,,6,1,,,,,,,8,2,8,2,,,,,,,,,,,3158.0419,3158.5454,3158.7925,3163.7088,space,4.9059,,3163.7089,9,69,3164.7089,3164.709,3164.7158,,,,0,24,24,24,1,45,105,,,,,,,,
,,656e0220772443817238eba8,65af56a6be6af047326a9909,2024-01-23_07h04.42.655,bars,2023.2.3,Win32,144.9275362,657b66ea316d21385b68909f,,,,,,,,,,,3164.716,3165.7169,,,3166.2162,3166.4661,,42,42,,,,,,,,,,,,,,,,bars/019.png,bars/mask007.png,,,,,,,,,,,,9,1,,,,,,,10,4,10,3,,,,,,,,,,,3165.7169,3166.2162,3166.4661,3168.6952,space,2.2218,,3168.6953,3,63,3169.6951,3169.6952,3169.7011,,,,0,25,25,25,1,45,105,,,,,,,,
,,656e0220772443817238eba8,65af56a6be6af047326a9909,2024-01-23_07h04.42.655,bars,2023.2.3,Win32,144.9275362,657b66ea316d21385b68909f,,,,,,,,,,,3169.7012,3170.7022,,,3171.2023,3171.4452,,108,-72,,,,,,,,,,,,,,,,bars/018.png,bars/mask000.png,,,,,,,,,,,,2,2,,,,,,,8,6,8,6,,,,,,,,,,,3170.7023,3171.2022,3171.4452,3176.3623,space,4.9062,,3176.3623,42,18,3177.3622,3177.3622,3177.3685,,,,0,26,26,26,1,150,90,,,,,,,,
,,656e0220772443817238eba8,65af56a6be6af047326a9909,2024-01-23_07h04.42.655,bars,2023.2.3,Win32,144.9275362,657b66ea316d21385b68909f,,,,,,,,,,,3177.3687,3178.3693,,,3178.8694,3179.1192,,165,165,,,,,,,,,,,,,,,,bars/030.png,bars/mask000.png,,,,,,,,,,,,1,1,,,,,,,6,4,7,4,,,,,,,,,,,3178.3693,3178.8694,3179.1192,3444.9855,space,265.8569,,3444.9855,25,80,3445.9856,3445.9856,3445.9936,,,,0,27,27,27,1,140,65,,,,,,,,
,,656e0220772443817238eba8,65af56a6be6af047326a9909,2024-01-23_07h04.42.655,bars,2023.2.3,Win32,144.9275362,657b66ea316d21385b68909f,,,,,,,,,,,3445.9938,3447.0065,,,3447.4996,3447.7495,,171,-9,,,,,,,,,,,,,,,,bars/015.png,bars/mask000.png,,,,,,,,,,,,4,2,,,,,,,8,6,7,7,,,,,,,,,,,3447.0065,3447.4996,3447.7495,3449.4649,space,1.7131,,3449.465,61,11,3450.4649,3450.4649,3450.4729,,,,0,28,28,28,1,110,160,,,,,,,,
,,656e0220772443817238eba8,65af56a6be6af047326a9909,2024-01-23_07h04.42.655,bars,2023.2.3,Win32,144.9275362,657b66ea316d21385b68909f,,,,,,,,,,,3450.473,3451.4719,,,3451.9719,3452.2224,,168,168,,,,,,,,,,,,,,,,bars/017.png,bars/mask008.png,,,,,,,,,,,,2,1,,,,,,,10,4,9,5,,,,,,,,,,,3451.4719,3451.9719,3452.2225,3454.0703,space,1.8441,,3454.0703,23,57,3455.0695,3455.0695,3455.0788,,,,0,29,29,29,1,145,45,,,,,,,,
,,656e0220772443817238eba8,65af56a6be6af047326a9909,2024-01-23_07h04.42.655,bars,2023.2.3,Win32,144.9275362,657b66ea316d21385b68909f,,,,,,,,,,,3455.079,3456.0767,,,3456.5765,3456.8267,,125,125,,,,,,,,,,,,,,,,bars/005.png,bars/mask001.png,,,,,,,,,,,,0,2,,,,,,,8,2,8,0,,,,,,,,,,,3456.0767,3456.5764,3456.8268,3457.257,space,0.4264,,3457.2571,65,15,3458.257,3458.2571,3458.2589,,,,0,30,30,30,1,10,140,,,,,,,,
,,656e0220772443817238eba8,65af56a6be6af047326a9909,2024-01-23_07h04.42.655,bars,2023.2.3,Win32,144.9275362,657b66ea316d21385b68909f,,,,,,,,,,,3458.259,3459.2571,,,3459.757,3460.0209,,72,72,,,,,,,,,,,,,,,,bars/034.png,bars/mask004.png,,,,,,,,,,,,3,2,,,,,,,10,4,10,4,,,,,,,,,,,3459.2572,3459.757,3460.0209,3463.2781,space,3.2508,,3463.2781,53,7,3464.278,3464.278,3464.2852,,,,0,31,31,31,1,125,65,,,,,,,,
,,656e0220772443817238eba8,65af56a6be6af047326a9909,2024-01-23_07h04.42.655,bars,2023.2.3,Win32,144.9275362,657b66ea316d21385b68909f,,,,,,,,,,,3464.2855,3465.2851,,,3465.7853,3466.0356,,77,77,,,,,,,,,,,,,,,,bars/003.png,bars/mask002.png,,,,,,,,,,,,0,1,,,,,,,8,2,7,2,,,,,,,,,,,3465.2852,3465.7852,3466.0356,3469.5358,space,3.4937,,3469.5358,52,63,3470.5352,3470.5352,3470.5435,,,,0,32,32,32,1,25,140,,,,,,,,
,,656e0220772443817238eba8,65af56a6be6af047326a9909,2024-01-23_07h04.42.655,bars,2023.2.3,Win32,144.9275362,657b66ea316d21385b68909f,,,,,,,,,,,3470.5436,3471.5422,,,3472.0422,3472.2925,,82,82,,,,,,,,,,,,,,,,bars/030.png,bars/mask005.png,,,,,,,,,,,,0,2,,,,,,,10,0,10,1,,,,,,,,,,,3471.5422,3472.0422,3472.2925,3474.6395,space,2.342,,3474.6396,58,17,3475.6398,3475.6398,3475.6415,,,,0,33,33,33,1,140,65,,,,,,,,
,,656e0220772443817238eba8,65af56a6be6af047326a9909,2024-01-23_07h04.42.655,bars,2023.2.3,Win32,144.9275362,657b66ea316d21385b68909f,,,,,,,,,,,3475.6416,3476.64,,,3477.1397,3477.3897,,162,-18,,,,,,,,,,,,,,,,bars/016.png,bars/mask002.png,,,,,,,,,,,,1,2,,,,,,,10,0,10,1,,,,,,,,,,,3476.64,3477.1396,3477.3897,3481.6265,space,4.2284,,3481.6265,58,3,3482.626,3482.6261,3482.6325,,,,0,34,34,34,1,40,165,,,,,,,,
,,656e0220772443817238eba8,65af56a6be6af047326a9909,2024-01-23_07h04.42.655,bars,2023.2.3,Win32,144.9275362,657b66ea316d21385b68909f,,,,,,,,,,,3482.6329,3483.633,,,3484.1331,3484.383,,80,80,,,,,,,,,,,,,,,,bars/001.png,bars/mask000.png,,,,,,,,,,,,2,2,,,,,,,8,2,8,2,,,,,,,,,,,3483.633,3484.1331,3484.3831,3487.5013,space,3.1129,,3487.5013,50,5,3488.5013,3488.5013,3488.5071,,,,0,35,35,35,1,130,85,,,,,,,,
,,656e0220772443817238eba8,65af56a6be6af047326a9909,2024-01-23_07h04.42.655,bars,2023.2.3,Win32,144.9275362,657b66ea316d21385b68909f,,,,,,,,,,,3488.5072,3489.5083,,,3490.0085,3490.2583,,153,153,,,,,,,,,,,,,,,,bars/005.png,bars/mask002.png,,,,,,,,,,,,1,2,,,,,,,6,0,6,1,,,,,,,,,,,3489.5084,3490.0084,3490.2583,3493.4183,space,3.1533,,3493.4183,37,13,3494.4182,3494.4182,3494.4241,,,,0,36,36,36,1,10,140,,,,,,,,
,,656e0220772443817238eba8,65af56a6be6af047326a9909,2024-01-23_07h04.42.655,bars,2023.2.3,Win32,144.9275362,657b66ea316d21385b68909f,,,,,,,,,,,3494.4243,3495.4258,,,3495.9253,3496.1752,,17,17,,,,,,,,,,,,,,,,bars/036.png,bars/mask007.png,,,,,,,,,,,,2,2,,,,,,,8,2,9,2,,,,,,,,,,,3495.4258,3495.9252,3496.1752,3496.8211,space,0.6423,,3496.8212,52,3,3497.822,3497.822,3497.8224,,,,0,37,37,37,1,145,20,,,,,,,,
,,656e0220772443817238eba8,65af56a6be6af047326a9909,2024-01-23_07h04.42.655,bars,2023.2.3,Win32,144.9275362,657b66ea316d21385b68909f,,,,,,,,,,,3497.8226,3498.8213,,,3499.3213,3499.5715,,158,158,,,,,,,,,,,,,,,,bars/044.png,bars/mask005.png,,,,,,,,,,,,5,2,,,,,,,10,4,10,6,,,,,,,,,,,3498.8213,3499.3213,3499.5715,3508.4467,space,8.8711,,3508.4468,83,3,3509.4467,3509.4467,3509.4527,,,,0,38,38,38,1,75,155,,,,,,,,
,,656e0220772443817238eba8,65af56a6be6af047326a9909,2024-01-23_07h04.42.655,bars,2023.2.3,Win32,144.9275362,657b66ea316d21385b68909f,,,,,,,,,,,3509.4528,3510.454,,,3510.9538,3511.2042,,169,169,,,,,,,,,,,,,,,,bars/012.png,bars/mask002.png,,,,,,,,,,,,1,2,,,,,,,10,6,9,5,,,,,,,,,,,3510.454,3510.9538,3511.2042,3529.3159,space,18.1078,,3529.3159,79,26,3530.3158,3530.3158,3530.3231,,,,0,39,39,39,1,90,15,,,,,,,,
,,656e0220772443817238eba8,65af56a6be6af047326a9909,2024-01-23_07h04.42.655,bars,2023.2.3,Win32,144.9275362,657b66ea316d21385b68909f,,,,,,,,,,,3530.3233,3531.3227,,,3531.8232,3532.0727,,102,102,,,,,,,,,,,,,,,,bars/018.png,bars/mask005.png,,,,,,,,,,,,2,2,,,,,,,10,4,10,3,,,,,,,,,,,3531.3227,3531.8232,3532.0727,3537.8858,space,5.8091,,3537.8859,48,12,3538.8859,3538.8859,3538.8949,,,,0,40,40,40,1,150,90,,,,,,,,
,,656e0220772443817238eba8,65af56a6be6af047326a9909,2024-01-23_07h04.42.655,bars,2023.2.3,Win32,144.9275362,657b66ea316d21385b68909f,,,,,,,,,,,3538.8952,3539.894,,,3540.3927,3540.6426,,99,99,,,,,,,,,,,,,,,,bars/039.png,bars/mask000.png,,,,,,,,,,,,2,2,,,,,,,10,2,10,2,,,,,,,,,,,3539.894,3540.3927,3540.6426,3545.0043,space,4.3522,,3545.0043,76,6,3546.004,3546.004,3546.0113,,,,0,41,41,41,1,175,105,,,,,,,,
,,656e0220772443817238eba8,65af56a6be6af047326a9909,2024-01-23_07h04.42.655,bars,2023.2.3,Win32,144.9275362,657b66ea316d21385b68909f,,,,,,,,,,,3546.0114,3547.0111,,,3547.511,3547.761,,37,37,,,,,,,,,,,,,,,,bars/038.png,bars/mask003.png,,,,,,,,,,,,0,2,,,,,,,8,0,7,0,,,,,,,,,,,3547.0111,3547.5109,3547.761,3603.7011,space,55.9361,,3603.7011,52,33,3604.701,3604.7011,3604.7075,,,,0,42,42,42,1,165,70,,,,,,,,
,,656e0220772443817238eba8,65af56a6be6af047326a9909,2024-01-23_07h04.42.655,bars,2023.2.3,Win32,144.9275362,657b66ea316d21385b68909f,,,,,,,,,,,3604.7076,3605.7083,,,3606.2081,3606.4581,,154,154,,,,,,,,,,,,,,,,bars/037.png,bars/mask005.png,,,,,,,,,,,,4,1,,,,,,,6,0,5,1,,,,,,,,,,,3605.7083,3606.2081,3606.4581,3609.9583,space,3.4949,,3609.9583,4,49,3610.9583,3610.9584,3610.9652,,,,0,43,43,43,1,150,105,,,,,,,,
,,656e0220772443817238eba8,65af56a6be6af047326a9909,2024-01-23_07h04.42.655,bars,2023.2.3,Win32,144.9275362,657b66ea316d21385b68909f,,,,,,,,,,,3610.9653,3611.9658,,,3612.4656,3612.7154,,95,95,,,,,,,,,,,,,,,,bars/043.png,bars/mask008.png,,,,,,,,,,,,0,2,,,,,,,8,0,9,0,,,,,,,,,,,3611.9658,3612.4656,3612.7156,3631.0219,space,18.3012,,3631.0219,65,35,3632.0217,3632.0218,3632.0305,,,,0,44,44,44,1,30,130,,,,,,,,
,,656e0220772443817238eba8,65af56a6be6af047326a9909,2024-01-23_07h04.42.655,bars,2023.2.3,Win32,144.9275362,657b66ea316d21385b68909f,,,,,,,,,,,3632.0307,3633.0288,,,3633.5292,3633.7789,,3,183,,,,,,,,,,,,,,,,bars/048.png,bars/mask004.png,,,,,,,,,,,,0,2,,,,,,,10,0,10,0,,,,,,,,,,,3633.0289,3633.529,3633.779,3637.2028,space,3.418,,3637.2029,47,8,3638.2028,3638.2029,3638.2091,,,,0,45,45,45,1,50,175,,,,,,,,
,,656e0220772443817238eba8,65af56a6be6af047326a9909,2024-01-23_07h04.42.655,bars,2023.2.3,Win32,144.9275362,657b66ea316d21385b68909f,,,,,,,,,,,3638.2092,3639.1959,,,3639.6959,3639.9459,,93,93,,,,,,,,,,,,,,,,bars/011.png,bars/mask007.png,,,,,,,,,,,,2,2,,,,,,,8,2,7,3,,,,,,,,,,,3639.1959,3639.6958,3639.9459,3641.8834,space,1.9343,,3641.8834,67,8,3642.8834,3642.8834,3642.8893,,,,0,46,46,46,1,160,85,,,,,,,,
,,656e0220772443817238eba8,65af56a6be6af047326a9909,2024-01-23_07h04.42.655,bars,2023.2.3,Win32,144.9275362,657b66ea316d21385b68909f,,,,,,,,,,,3642.8895,3643.8903,,,3644.3907,3644.6405,,162,162,,,,,,,,,,,,,,,,bars/041.png,bars/mask002.png,,,,,,,,,,,,0,1,,,,,,,10,0,10,0,,,,,,,,,,,3643.8904,3644.3906,3644.6405,3739.7422,space,95.0968,,3739.7422,38,77,3740.742,3740.742,3740.7495,,,,0,47,47,47,1,20,85,,,,,,,,
,,656e0220772443817238eba8,65af56a6be6af047326a9909,2024-01-23_07h04.42.655,bars,2023.2.3,Win32,144.9275362,657b66ea316d21385b68909f,,,,,,,,,,,3740.7498,3741.749,,,3742.2491,3742.499,,93,93,,,,,,,,,,,,,,,,bars/001.png,bars/mask000.png,,,,,,,,,,,,1,2,,,,,,,8,2,6,2,,,,,,,,,,,3741.7491,3742.249,3742.4991,3867.9146,space,125.4085,,3867.9146,37,8,3868.9145,3868.9147,3868.9223,,,,0,48,48,48,1,130,85,,,,,,,,
,,656e0220772443817238eba8,65af56a6be6af047326a9909,2024-01-23_07h04.42.655,bars,2023.2.3,Win32,144.9275362,657b66ea316d21385b68909f,,,,,,,,,,,3868.9224,3869.9218,,,3870.4216,3870.6715,,22,22,,,,,,,,,,,,,,,,bars/046.png,bars/mask004.png,,,,,,,,,,,,0,1,,,,,,,10,4,9,4,,,,,,,,,,,3869.9218,3870.4215,3870.6716,3871.6651,space,0.9858,,3871.6652,47,63,3872.6652,3872.6652,3872.6663,,,,0,49,49,49,1,155,85,,,,,,,,
,,656e0220772443817238eba8,65af56a6be6af047326a9909,2024-01-23_07h04.42.655,bars,2023.2.3,Win32,144.9275362,657b66ea316d21385b68909f,,,,,,,,,,,,,,,,,,,,,,,,,,,,,,,,,,,,,,,,,,,,,,,,,,,,,,,,,,,,,,,,,,,,,,,,,,,,,,,,,,,,,,,,,,,,,3872.6663,3932.6676,0,2,2,0,1,sequence_tables/blk036.csv
,,656e0220772443817238eba8,65af56a6be6af047326a9909,2024-01-23_07h04.42.655,bars,2023.2.3,Win32,144.9275362,657b66ea316d21385b68909f,,,,,,,,,,,3957.1366,3958.1271,,,3958.6275,3958.8769,,15,15,,,,,,,,,,,,,,,,bars/013.png,bars/mask001.png,,,,,,,,,,,,0,2,,,,,,,10,2,10,0,,,,,,3932.6757,3957.1269,space,24.4437,,3958.1272,3958.6275,3958.877,3962.1762,space,3.2969,,3962.1763,60,5,3963.1757,3963.1757,3963.1831,,,,0,0,0,0,1,75,10,,,,,,,,
,,656e0220772443817238eba8,65af56a6be6af047326a9909,2024-01-23_07h04.42.655,bars,2023.2.3,Win32,144.9275362,657b66ea316d21385b68909f,,,,,,,,,,,3963.1833,3964.1827,,,3964.6829,3964.9327,,51,51,,,,,,,,,,,,,,,,bars/028.png,bars/mask002.png,,,,,,,,,,,,8,1,,,,,,,10,0,10,1,,,,,,,,,,,3964.1827,3964.6829,3964.9328,3969.308,space,4.3708,,3969.3081,6,69,3970.308,3970.308,3970.3153,,,,0,1,1,1,1,45,120,,,,,,,,
,,656e0220772443817238eba8,65af56a6be6af047326a9909,2024-01-23_07h04.42.655,bars,2023.2.3,Win32,144.9275362,657b66ea316d21385b68909f,,,,,,,,,,,3970.3155,3971.3149,,,3971.8149,3972.0649,,98,98,,,,,,,,,,,,,,,,bars/010.png,bars/mask006.png,,,,,,,,,,,,0,2,,,,,,,8,2,8,0,,,,,,,,,,,3971.3149,3971.8149,3972.0649,3973.6485,space,1.5791,,3973.6485,67,43,3974.6485,3974.6485,3974.6496,,,,0,2,2,2,1,165,55,,,,,,,,
,,656e0220772443817238eba8,65af56a6be6af047326a9909,2024-01-23_07h04.42.655,bars,2023.2.3,Win32,144.9275362,657b66ea316d21385b68909f,,,,,,,,,,,3974.6498,3975.6484,,,3976.1494,3976.3987,,106,106,,,,,,,,,,,,,,,,bars/003.png,bars/mask003.png,,,,,,,,,,,,0,2,,,,,,,6,0,6,0,,,,,,,,,,,3975.6484,3976.1493,3976.3987,4101.6473,space,125.243,,4101.6473,81,34,4102.6473,4102.6473,4102.654,,,,0,3,3,3,1,25,140,,,,,,,,
,,656e0220772443817238eba8,65af56a6be6af047326a9909,2024-01-23_07h04.42.655,bars,2023.2.3,Win32,144.9275362,657b66ea316d21385b68909f,,,,,,,,,,,4102.6542,4103.6544,,,4104.1543,4104.4044,,139,139,,,,,,,,,,,,,,,,bars/040.png,bars/mask006.png,,,,,,,,,,,,8,1,,,,,,,8,0,8,0,,,,,,,,,,,4103.6544,4104.1543,4104.4044,4105.3493,space,0.9383,,4105.3493,1,46,4106.3489,4106.349,4106.35,,,,0,4,4,4,1,140,5,,,,,,,,
,,656e0220772443817238eba8,65af56a6be6af047326a9909,2024-01-23_07h04.42.655,bars,2023.2.3,Win32,144.9275362,657b66ea316d21385b68909f,,,,,,,,,,,4106.3501,4107.3493,,,4107.849,4108.099,,157,-23,,,,,,,,,,,,,,,,bars/049.png,bars/mask006.png,,,,,,,,,,,,6,1,,,,,,,6,2,7,3,,,,,,,,,,,4107.3494,4107.849,4108.099,4130.4958,space,22.3866,,4130.4958,3,42,4131.4959,4131.4959,4131.5033,,,,0,5,5,5,1,160,115,,,,,,,,
,,656e0220772443817238eba8,65af56a6be6af047326a9909,2024-01-23_07h04.42.655,bars,2023.2.3,Win32,144.9275362,657b66ea316d21385b68909f,,,,,,,,,,,4131.5035,4132.5033,,,4133.0029,4133.2531,,108,108,,,,,,,,,,,,,,,,bars/008.png,bars/mask002.png,,,,,,,,,,,,6,1,,,,,,,8,4,6,3,,,,,,,,,,,4132.5033,4133.0029,4133.2531,4135.3502,space,2.0909,,4135.3502,2,72,4136.3505,4136.3505,4136.3579,,,,0,6,6,6,1,110,0,,,,,,,,
,,656e0220772443817238eba8,65af56a6be6af047326a9909,2024-01-23_07h04.42.655,bars,2023.2.3,Win32,144.9275362,657b66ea316d21385b68909f,,,,,,,,,,,4136.3582,4137.3573,,,4137.8573,4138.1081,,31,211,,,,,,,,,,,,,,,,bars/007.png,bars/mask008.png,,,,,,,,,,,,1,2,,,,,,,6,2,6,3,,,,,,,,,,,4137.3573,4137.8573,4138.1082,4141.1909,space,3.0748,,4141.1909,36,24,4142.191,4142.191,4142.1982,,,,0,7,7,7,1,175,55,,,,,,,,
,,656e0220772443817238eba8,65af56a6be6af047326a9909,2024-01-23_07h04.42.655,bars,2023.2.3,Win32,144.9275362,657b66ea316d21385b68909f,,,,,,,,,,,4142.1984,4143.1977,,,4143.6979,4143.9477,,3,183,,,,,,,,,,,,,,,,bars/023.png,bars/mask004.png,,,,,,,,,,,,3,1,,,,,,,8,0,8,0,,,,,,,,,,,4143.1977,4143.6978,4143.9477,4146.3786,space,2.4247,,4146.3786,17,68,4148.0406,4148.0407,4148.0488,,,,0,8,8,8,1,20,115,,,,,,,,
,,656e0220772443817238eba8,65af56a6be6af047326a9909,2024-01-23_07h04.42.655,bars,2023.2.3,Win32,144.9275362,657b66ea316d21385b68909f,,,,,,,,,,,4148.0489,4149.0452,,,4149.5454,4149.7953,,96,96,,,,,,,,,,,,,,,,bars/022.png,bars/mask003.png,,,,,,,,,,,,7,1,,,,,,,6,0,7,0,,,,,,,,,,,4149.0452,4149.5454,4149.7954,4150.8371,space,1.0321,,4150.8371,1,76,4151.8371,4151.8371,4151.8376,,,,0,9,9,9,1,95,20,,,,,,,,
,,656e0220772443817238eba8,65af56a6be6af047326a9909,2024-01-23_07h04.42.655,bars,2023.2.3,Win32,144.9275362,657b66ea316d21385b68909f,,,,,,,,,,,4151.838,4152.8376,,,4153.3371,4153.5871,,46,46,,,,,,,,,,,,,,,,bars/015.png,bars/mask004.png,,,,,,,,,,,,0,1,,,,,,,8,2,7,2,,,,,,,,,,,4152.8377,4153.337,4153.5872,4154.3581,space,0.7679,,4154.3581,64,66,4155.3581,4155.3582,4155.3586,,,,0,10,10,10,1,110,160,,,,,,,,
,,656e0220772443817238eba8,65af56a6be6af047326a9909,2024-01-23_07h04.42.655,bars,2023.2.3,Win32,144.9275362,657b66ea316d21385b68909f,,,,,,,,,,,4155.3588,4156.3581,,,4156.8581,4157.1081,,7,7,,,,,,,,,,,,,,,,bars/036.png,bars/mask008.png,,,,,,,,,,,,2,2,,,,,,,6,4,6,3,,,,,,,,,,,4156.3581,4156.8581,4157.1081,4159.8861,space,2.7698,,4159.8862,42,13,4160.886,4160.8861,4160.8923,,,,0,11,11,11,1,145,20,,,,,,,,
,,656e0220772443817238eba8,65af56a6be6af047326a9909,2024-01-23_07h04.42.655,bars,2023.2.3,Win32,144.9275362,657b66ea316d21385b68909f,,,,,,,,,,,4160.8924,4161.8933,,,4162.3931,4162.6433,,172,172,,,,,,,,,,,,,,,,bars/021.png,bars/mask000.png,,,,,,,,,,,,2,1,,,,,,,4,2,4,0,,,,,,,,,,,4161.8933,4162.3931,4162.6433,4163.171,space,0.5227,,4163.171,17,78,4164.1709,4164.171,4164.1723,,,,0,12,12,12,1,155,70,,,,,,,,
,,656e0220772443817238eba8,65af56a6be6af047326a9909,2024-01-23_07h04.42.655,bars,2023.2.3,Win32,144.9275362,657b66ea316d21385b68909f,,,,,,,,,,,4164.1724,4165.1712,,,4165.671,4165.921,,51,51,,,,,,,,,,,,,,,,bars/012.png,bars/mask000.png,,,,,,,,,,,,0,2,,,,,,,2,4,2,4,,,,,,,,,,,4165.1712,4165.671,4165.921,4166.8034,space,0.8763,,4166.8034,39,36,4167.803,4167.803,4167.8043,,,,0,13,13,13,1,90,15,,,,,,,,
,,656e0220772443817238eba8,65af56a6be6af047326a9909,2024-01-23_07h04.42.655,bars,2023.2.3,Win32,144.9275362,657b66ea316d21385b68909f,,,,,,,,,,,4167.8046,4168.8032,,,4169.3033,4169.5534,,142,-38,,,,,,,,,,,,,,,,bars/049.png,bars/mask004.png,,,,,,,,,,,,0,1,,,,,,,0,2,0,0,,,,,,,,,,,4168.8033,4169.3033,4169.5534,4172.7824,space,3.2259,,4172.7824,18,27,4173.7826,4173.7826,4173.7896,,,,0,14,14,14,1,160,115,,,,,,,,
,,656e0220772443817238eba8,65af56a6be6af047326a9909,2024-01-23_07h04.42.655,bars,2023.2.3,Win32,144.9275362,657b66ea316d21385b68909f,,,,,,,,,,,4173.7899,4174.7898,,,4175.2896,4175.5396,,20,20,,,,,,,,,,,,,,,,bars/031.png,bars/mask004.png,,,,,,,,,,,,2,2,,,,,,,0,4,0,3,,,,,,,,,,,4174.7899,4175.2895,4175.5396,4176.1649,space,0.6179,,4176.1649,80,15,4177.1646,4177.1646,4177.1658,,,,0,15,15,15,1,120,35,,,,,,,,
,,656e0220772443817238eba8,65af56a6be6af047326a9909,2024-01-23_07h04.42.655,bars,2023.2.3,Win32,144.9275362,657b66ea316d21385b68909f,,,,,,,,,,,4177.166,4178.1654,,,4178.6647,4178.9148,,73,73,,,,,,,,,,,,,,,,bars/005.png,bars/mask002.png,,,,,,,,,,,,0,1,,,,,,,2,2,3,3,,,,,,,,,,,4178.1654,4178.6647,4178.9149,4232.1464,space,53.2257,,4232.1464,63,67,4233.1475,4233.1475,4233.1552,,,,0,16,16,16,1,10,140,,,,,,,,
,,656e0220772443817238eba8,65af56a6be6af047326a9909,2024-01-23_07h04.42.655,bars,2023.2.3,Win32,144.9275362,657b66ea316d21385b68909f,,,,,,,,,,,4233.1554,4234.1539,,,4234.6533,4234.9036,,173,173,,,,,,,,,,,,,,,,bars/049.png,bars/mask006.png,,,,,,,,,,,,1,1,,,,,,,4,4,2,4,,,,,,,,,,,4234.1539,4234.6533,4234.9036,4341.6307,space,106.7255,,4341.6307,13,58,4342.6304,4342.6305,4342.6369,,,,0,17,17,17,1,160,115,,,,,,,,
,,656e0220772443817238eba8,65af56a6be6af047326a9909,2024-01-23_07h04.42.655,bars,2023.2.3,Win32,144.9275362,657b66ea316d21385b68909f,,,,,,,,,,,4342.637,4343.6376,,,4344.1374,4344.388,,82,82,,,,,,,,,,,,,,,,bars/038.png,bars/mask000.png,,,,,,,,,,,,2,2,,,,,,,6,2,7,3,,,,,,,,,,,4343.6377,4344.1374,4344.388,4346.6446,space,2.251,,4346.6446,83,12,4347.6447,4347.6447,4347.6508,,,,0,18,18,18,1,165,70,,,,,,,,
,,656e0220772443817238eba8,65af56a6be6af047326a9909,2024-01-23_07h04.42.655,bars,2023.2.3,Win32,144.9275362,657b66ea316d21385b68909f,,,,,,,,,,,4347.6509,4348.6515,,,4349.152,4349.4016,,78,78,,,,,,,,,,,,,,,,bars/020.png,bars/mask002.png,,,,,,,,,,,,0,1,,,,,,,4,4,3,6,,,,,,,,,,,4348.6515,4349.152,4349.4016,4352.6522,space,3.2456,,4352.6522,37,88,4353.6524,4353.6524,4353.6598,,,,0,19,19,19,1,115,170,,,,,,,,
,,656e0220772443817238eba8,65af56a6be6af047326a9909,2024-01-23_07h04.42.655,bars,2023.2.3,Win32,144.9275362,657b66ea316d21385b68909f,,,,,,,,,,,4353.66,4354.6587,,,4355.1588,4355.4089,,43,43,,,,,,,,,,,,,,,,bars/025.png,bars/mask004.png,,,,,,,,,,,,2,2,,,,,,,6,2,6,2,,,,,,,,,,,4354.6587,4355.1588,4355.4089,4356.7839,space,1.3719,,4356.7839,62,3,4357.784,4357.784,4357.7861,,,,0,20,20,20,1,105,40,,,,,,,,
,,656e0220772443817238eba8,65af56a6be6af047326a9909,2024-01-23_07h04.42.655,bars,2023.2.3,Win32,144.9275362,657b66ea316d21385b68909f,,,,,,,,,,,4357.7863,4358.784,,,4359.2841,4359.534,,136,136,,,,,,,,,,,,,,,,bars/019.png,bars/mask009.png,,,,,,,,,,,,0,2,,,,,,,8,4,10,7,,,,,,,,,,,4358.784,4359.284,4359.534,4397.6748,space,38.1349,,4397.6748,89,31,4398.6755,4398.6755,4398.6824,,,,0,21,21,21,1,45,105,,,,,,,,
,,656e0220772443817238eba8,65af56a6be6af047326a9909,2024-01-23_07h04.42.655,bars,2023.2.3,Win32,144.9275362,657b66ea316d21385b68909f,,,,,,,,,,,4398.6825,4399.6823,,,4400.1817,4400.4317,,174,174,,,,,,,,,,,,,,,,bars/040.png,bars/mask007.png,,,,,,,,,,,,4,2,,,,,,,10,6,10,6,,,,,,,,,,,4399.6824,4400.1817,4400.4317,4400.9041,space,0.4644,,4400.9042,34,11,4401.904,4401.904,4401.9045,,,,0,22,22,22,1,140,5,,,,,,,,
,,656e0220772443817238eba8,65af56a6be6af047326a9909,2024-01-23_07h04.42.655,bars,2023.2.3,Win32,144.9275362,657b66ea316d21385b68909f,,,,,,,,,,,4401.9047,4402.9041,,,4403.4041,4403.6542,,45,45,,,,,,,,,,,,,,,,bars/000.png,bars/mask009.png,,,,,,,,,,,,7,1,,,,,,,8,4,8,3,,,,,,,,,,,4402.9041,4403.4041,4403.6542,4405.426,space,1.7646,,4405.426,5,80,4406.4251,4406.4251,4406.4263,,,,0,23,23,23,1,40,145,,,,,,,,
,,656e0220772443817238eba8,65af56a6be6af047326a9909,2024-01-23_07h04.42.655,bars,2023.2.3,Win32,144.9275362,657b66ea316d21385b68909f,,,,,,,,,,,4406.4264,4407.4251,,,4407.9258,4408.1758,,36,36,,,,,,,,,,,,,,,,bars/043.png,bars/mask001.png,,,,,,,,,,,,5,1,,,,,,,6,6,6,8,,,,,,,,,,,4407.4251,4407.9257,4408.1758,4409.9668,space,1.7893,,4409.9668,6,86,4410.9668,4410.9669,4410.9728,,,,0,24,24,24,1,30,130,,,,,,,,
,,656e0220772443817238eba8,65af56a6be6af047326a9909,2024-01-23_07h04.42.655,bars,2023.2.3,Win32,144.9275362,657b66ea316d21385b68909f,,,,,,,,,,,4410.9728,4411.9739,,,4412.4742,4412.7172,,38,38,,,,,,,,,,,,,,,,bars/011.png,bars/mask005.png,,,,,,,,,,,,0,2,,,,,,,4,8,5,8,,,,,,,,,,,4411.9739,4412.4741,4412.7172,4413.6478,space,0.9229,,4413.648,58,47,4414.6483,4414.6483,4414.6499,,,,0,25,25,25,1,160,85,,,,,,,,
,,656e0220772443817238eba8,65af56a6be6af047326a9909,2024-01-23_07h04.42.655,bars,2023.2.3,Win32,144.9275362,657b66ea316d21385b68909f,,,,,,,,,,,4414.65,4415.6477,,,4416.1477,4416.3977,,7,7,,,,,,,,,,,,,,,,bars/048.png,bars/mask004.png,,,,,,,,,,,,6,2,,,,,,,6,10,6,10,,,,,,,,,,,4415.6477,4416.1477,4416.3977,4417.8877,space,1.4863,,4417.8877,43,12,4418.884,4418.884,4418.8918,,,,0,26,26,26,1,50,175,,,,,,,,
,,656e0220772443817238eba8,65af56a6be6af047326a9909,2024-01-23_07h04.42.655,bars,2023.2.3,Win32,144.9275362,657b66ea316d21385b68909f,,,,,,,,,,,4418.892,4419.891,,,4420.3931,4420.634,,122,122,,,,,,,,,,,,,,,,bars/043.png,bars/mask002.png,,,,,,,,,,,,5,2,,,,,,,4,8,2,7,,,,,,,,,,,4419.8911,4420.393,4420.634,4421.5928,space,0.9519,,4421.5928,88,8,4422.5928,4422.5928,4422.5939,,,,0,27,27,27,1,30,130,,,,,,,,
,,656e0220772443817238eba8,65af56a6be6af047326a9909,2024-01-23_07h04.42.655,bars,2023.2.3,Win32,144.9275362,657b66ea316d21385b68909f,,,,,,,,,,,4422.594,4423.5926,,,4424.0911,4424.3427,,51,51,,,,,,,,,,,,,,,,bars/008.png,bars/mask008.png,,,,,,,,,,,,0,2,,,,,,,6,10,8,10,,,,,,,,,,,4423.5926,4424.0911,4424.3427,4425.2384,space,0.8914,,4425.2385,59,51,4426.2393,4426.2393,4426.2396,,,,0,28,28,28,1,110,0,,,,,,,,
,,656e0220772443817238eba8,65af56a6be6af047326a9909,2024-01-23_07h04.42.655,bars,2023.2.3,Win32,144.9275362,657b66ea316d21385b68909f,,,,,,,,,,,4426.2397,4427.2391,,,4427.7382,4427.9885,,151,151,,,,,,,,,,,,,,,,bars/014.png,bars/mask002.png,,,,,,,,,,,,0,2,,,,,,,8,10,7,10,,,,,,,,,,,4427.2392,4427.7381,4427.9885,4429.7143,space,1.7153,,4429.7143,71,29,4430.7113,4430.7113,4430.7174,,,,0,29,29,29,1,80,0,,,,,,,,
,,656e0220772443817238eba8,65af56a6be6af047326a9909,2024-01-23_07h04.42.655,bars,2023.2.3,Win32,144.9275362,657b66ea316d21385b68909f,,,,,,,,,,,4430.7176,4431.7179,,,4432.2179,4432.468,,46,46,,,,,,,,,,,,,,,,bars/049.png,bars/mask007.png,,,,,,,,,,,,0,1,,,,,,,6,10,6,10,,,,,,,,,,,4431.7179,4432.2178,4432.468,4434.4561,space,1.9816,,4434.4562,66,69,4435.4546,4435.4546,4435.4608,,,,0,30,30,30,1,160,115,,,,,,,,
,,656e0220772443817238eba8,65af56a6be6af047326a9909,2024-01-23_07h04.42.655,bars,2023.2.3,Win32,144.9275362,657b66ea316d21385b68909f,,,,,,,,,,,4435.461,4436.4473,,,4436.9528,4437.2066,,11,11,,,,,,,,,,,,,,,,bars/033.png,bars/mask009.png,,,,,,,,,,,,5,1,,,,,,,8,8,10,9,,,,,,,,,,,4436.4474,4436.9528,4437.2066,4438.1448,space,0.9358,,4438.1448,14,36,4439.1419,4439.1419,4439.1424,,,,0,31,31,31,1,25,155,,,,,,,,
,,656e0220772443817238eba8,65af56a6be6af047326a9909,2024-01-23_07h04.42.655,bars,2023.2.3,Win32,144.9275362,657b66ea316d21385b68909f,,,,,,,,,,,4439.1425,4440.1417,,,4440.6418,4440.8917,,158,158,,,,,,,,,,,,,,,,bars/048.png,bars/mask000.png,,,,,,,,,,,,3,2,,,,,,,10,6,10,6,,,,,,,,,,,4440.1417,4440.6418,4440.8918,4443.7049,space,2.8065,,4443.7049,72,17,4444.705,4444.705,4444.7124,,,,0,32,32,32,1,50,175,,,,,,,,
,,656e0220772443817238eba8,65af56a6be6af047326a9909,2024-01-23_07h04.42.655,bars,2023.2.3,Win32,144.9275362,657b66ea316d21385b68909f,,,,,,,,,,,4444.7126,4445.7115,,,4446.2115,4446.4627,,0,0,,,,,,,,,,,,,,,,bars/009.png,bars/mask000.png,,,,,,,,,,,,5,1,,,,,,,10,8,10,7,,,,,,,,,,,4445.7115,4446.2115,4446.4627,4447.5252,space,1.0531,,4447.5252,15,75,4448.5241,4448.5241,4448.5253,,,,0,33,33,33,1,15,105,,,,,,,,
,,656e0220772443817238eba8,65af56a6be6af047326a9909,2024-01-23_07h04.42.655,bars,2023.2.3,Win32,144.9275362,657b66ea316d21385b68909f,,,,,,,,,,,4448.5254,4449.5241,,,4450.0249,4450.2742,,49,49,,,,,,,,,,,,,,,,bars/007.png,bars/mask001.png,,,,,,,,,,,,5,2,,,,,,,8,6,7,6,,,,,,,,,,,4449.5241,4450.0249,4450.2743,4452.5593,space,2.2806,,4452.5593,54,6,4453.5594,4453.5595,4453.5668,,,,0,34,34,34,1,175,55,,,,,,,,
,,656e0220772443817238eba8,65af56a6be6af047326a9909,2024-01-23_07h04.42.655,bars,2023.2.3,Win32,144.9275362,657b66ea316d21385b68909f,,,,,,,,,,,4453.5668,4454.5663,,,4455.0661,4455.3161,,62,62,,,,,,,,,,,,,,,,bars/017.png,bars/mask004.png,,,,,,,,,,,,2,2,,,,,,,10,4,10,5,,,,,,,,,,,4454.5663,4455.0661,4455.3161,4457.5664,space,2.2388,,4457.5664,83,17,4458.5666,4458.5667,4458.5678,,,,0,35,35,35,1,145,45,,,,,,,,
,,656e0220772443817238eba8,65af56a6be6af047326a9909,2024-01-23_07h04.42.655,bars,2023.2.3,Win32,144.9275362,657b66ea316d21385b68909f,,,,,,,,,,,4458.5679,4459.5664,,,4460.0664,4460.3164,,44,44,,,,,,,,,,,,,,,,bars/001.png,bars/mask004.png,,,,,,,,,,,,0,2,,,,,,,10,6,10,8,,,,,,,,,,,4459.5665,4460.0663,4460.3164,4461.4349,space,1.1097,,4461.435,86,41,4462.4345,4462.4346,4462.435,,,,0,36,36,36,1,130,85,,,,,,,,
,,656e0220772443817238eba8,65af56a6be6af047326a9909,2024-01-23_07h04.42.655,bars,2023.2.3,Win32,144.9275362,657b66ea316d21385b68909f,,,,,,,,,,,4462.4352,4463.435,,,4463.9355,4464.1845,,23,23,,,,,,,,,,,,,,,,bars/002.png,bars/mask002.png,,,,,,,,,,,,0,2,,,,,,,10,4,10,3,,,,,,,,,,,4463.435,4463.9355,4464.1845,4481.4146,space,17.2232,,4481.4147,73,62,4482.4146,4482.4146,4482.4214,,,,0,37,37,37,1,130,85,,,,,,,,
,,656e0220772443817238eba8,65af56a6be6af047326a9909,2024-01-23_07h04.42.655,bars,2023.2.3,Win32,144.9275362,657b66ea316d21385b68909f,,,,,,,,,,,4482.4215,4483.4217,,,4483.9217,4484.1716,,85,85,,,,,,,,,,,,,,,,bars/038.png,bars/mask005.png,,,,,,,,,,,,2,2,,,,,,,8,2,7,3,,,,,,,,,,,4483.4217,4483.9216,4484.1716,4486.9848,space,2.801,,4486.9848,80,15,4487.9843,4487.9843,4487.9914,,,,0,38,38,38,1,165,70,,,,,,,,
,,656e0220772443817238eba8,65af56a6be6af047326a9909,2024-01-23_07h04.42.655,bars,2023.2.3,Win32,144.9275362,657b66ea316d21385b68909f,,,,,,,,,,,4487.9916,4488.9983,,,4489.4984,4489.7415,,144,144,,,,,,,,,,,,,,,,bars/019.png,bars/mask006.png,,,,,,,,,,,,0,2,,,,,,,10,4,8,4,,,,,,,,,,,4488.9983,4489.4983,4489.7415,4511.131,space,21.3877,,4511.1311,81,39,4512.1366,4512.1366,4512.1438,,,,0,39,39,39,1,45,105,,,,,,,,
,,656e0220772443817238eba8,65af56a6be6af047326a9909,2024-01-23_07h04.42.655,bars,2023.2.3,Win32,144.9275362,657b66ea316d21385b68909f,,,,,,,,,,,4512.144,4513.1445,,,4513.6453,4513.8882,,10,190,,,,,,,,,,,,,,,,bars/014.png,bars/mask007.png,,,,,,,,,,,,2,2,,,,,,,8,2,7,3,,,,,,,,,,,4513.1446,4513.6453,4513.8882,4516.2466,space,2.3525,,4516.2466,70,10,4517.2425,4517.2425,4517.2486,,,,0,40,40,40,1,80,0,,,,,,,,
,,656e0220772443817238eba8,65af56a6be6af047326a9909,2024-01-23_07h04.42.655,bars,2023.2.3,Win32,144.9275362,657b66ea316d21385b68909f,,,,,,,,,,,4517.2487,4518.2495,,,4518.7497,4518.9996,,77,77,,,,,,,,,,,,,,,,bars/029.png,bars/mask009.png,,,,,,,,,,,,3,1,,,,,,,6,4,6,4,,,,,,,,,,,4518.2495,4518.7496,4518.9996,4521.216,space,2.208,,4521.216,13,32,4522.215,4522.215,4522.222,,,,0,41,41,41,1,90,45,,,,,,,,
,,656e0220772443817238eba8,65af56a6be6af047326a9909,2024-01-23_07h04.42.655,bars,2023.2.3,Win32,144.9275362,657b66ea316d21385b68909f,,,,,,,,,,,4522.2222,4523.2224,,,4523.7221,4523.9721,,15,15,,,,,,,,,,,,,,,,bars/045.png,bars/mask007.png,,,,,,,,,,,,4,2,,,,,,,4,6,5,5,,,,,,,,,,,4523.2224,4523.722,4523.9721,4524.7985,space,0.8222,,4524.7986,85,5,4525.7985,4525.7985,4525.7995,,,,0,42,42,42,1,100,10,,,,,,,,
,,656e0220772443817238eba8,65af56a6be6af047326a9909,2024-01-23_07h04.42.655,bars,2023.2.3,Win32,144.9275362,657b66ea316d21385b68909f,,,,,,,,,,,4525.7997,4526.7986,,,4527.2985,4527.5485,,29,29,,,,,,,,,,,,,,,,bars/007.png,bars/mask004.png,,,,,,,,,,,,0,2,,,,,,,2,4,1,3,,,,,,,,,,,4526.7986,4527.2985,4527.5485,4529.2433,space,1.6845,,4529.2433,34,26,4530.2508,4530.2509,4530.2568,,,,0,43,43,43,1,175,55,,,,,,,,
,,656e0220772443817238eba8,65af56a6be6af047326a9909,2024-01-23_07h04.42.655,bars,2023.2.3,Win32,144.9275362,657b66ea316d21385b68909f,,,,,,,,,,,4530.257,4531.2574,,,4531.7575,4532.0075,,9,9,,,,,,,,,,,,,,,,bars/048.png,bars/mask005.png,,,,,,,,,,,,4,2,,,,,,,0,6,0,7,,,,,,,,,,,4531.2574,4531.7575,4532.0075,4535.5212,space,3.5091,,4535.5213,41,14,4536.5212,4536.5213,4536.5274,,,,0,44,44,44,1,50,175,,,,,,,,
,,656e0220772443817238eba8,65af56a6be6af047326a9909,2024-01-23_07h04.42.655,bars,2023.2.3,Win32,144.9275362,657b66ea316d21385b68909f,,,,,,,,,,,4536.5275,4537.5282,,,4538.0282,4538.2782,,168,168,,,,,,,,,,,,,,,,bars/032.png,bars/mask000.png,,,,,,,,,,,,0,2,,,,,,,0,8,0,9,,,,,,,,,,,4537.5282,4538.0281,4538.2782,4538.9729,space,0.6882,,4538.9729,43,32,4539.9733,4539.9734,4539.9739,,,,0,45,45,45,1,125,20,,,,,,,,
,,656e0220772443817238eba8,65af56a6be6af047326a9909,2024-01-23_07h04.42.655,bars,2023.2.3,Win32,144.9275362,657b66ea316d21385b68909f,,,,,,,,,,,4539.974,4540.9729,,,4541.4732,4541.7227,,10,10,,,,,,,,,,,,,,,,bars/038.png,bars/mask001.png,,,,,,,,,,,,0,1,,,,,,,0,6,0,7,,,,,,,,,,,4540.9729,4541.473,4541.7228,4553.0236,space,11.2967,,4553.0236,25,60,4554.0219,4554.0219,4554.0283,,,,0,46,46,46,1,165,70,,,,,,,,
,,656e0220772443817238eba8,65af56a6be6af047326a9909,2024-01-23_07h04.42.655,bars,2023.2.3,Win32,144.9275362,657b66ea316d21385b68909f,,,,,,,,,,,4554.0285,4555.0289,,,4555.5325,4555.7791,,72,72,,,,,,,,,,,,,,,,bars/035.png,bars/mask008.png,,,,,,,,,,,,4,2,,,,,,,2,8,3,7,,,,,,,,,,,4555.0289,4555.5324,4555.7791,4556.5644,space,0.7736,,4556.5644,77,12,4557.5637,4557.5637,4557.5651,,,,0,47,47,47,1,175,60,,,,,,,,
,,656e0220772443817238eba8,65af56a6be6af047326a9909,2024-01-23_07h04.42.655,bars,2023.2.3,Win32,144.9275362,657b66ea316d21385b68909f,,,,,,,,,,,4557.5652,4558.5639,,,4559.0643,4559.3139,,48,48,,,,,,,,,,,,,,,,bars/024.png,bars/mask003.png,,,,,,,,,,,,0,2,,,,,,,0,6,0,5,,,,,,,,,,,4558.5639,4559.0643,4559.3139,4641.5433,space,82.2266,,4641.5433,72,58,4642.5435,4642.5435,4642.5503,,,,0,48,48,48,1,120,170,,,,,,,,
,,656e0220772443817238eba8,65af56a6be6af047326a9909,2024-01-23_07h04.42.655,bars,2023.2.3,Win32,144.9275362,657b66ea316d21385b68909f,,,,,,,,,,,4642.5505,4643.5469,,,4644.0469,4644.2971,,179,179,,,,,,,,,,,,,,,,bars/023.png,bars/mask006.png,,,,,,,,,,,,0,1,,,,,,,0,8,1,7,,,,,,,,,,,4643.5469,4644.0469,4644.2972,4645.1582,space,0.8588,,4645.1582,21,64,4646.1581,4646.1582,4646.1592,,,,0,49,49,49,1,20,115,,,,,,,,
,,656e0220772443817238eba8,65af56a6be6af047326a9909,2024-01-23_07h04.42.655,bars,2023.2.3,Win32,144.9275362,657b66ea316d21385b68909f,,,,,,,,,,,,,,,,,,,,,,,,,,,,,,,,,,,,,,,,,,,,,,,,,,,,,,,,,,,,,,,,,,,,,,,,,,,,,,,,,,,,,,,,,,,,,4646.1593,4706.1609,0,3,3,4,1,sequence_tables/blk013.csv
,,656e0220772443817238eba8,65af56a6be6af047326a9909,2024-01-23_07h04.42.655,bars,2023.2.3,Win32,144.9275362,657b66ea316d21385b68909f,,,,,,,,,,,4753.9453,4754.9412,,,4755.4409,4755.691,,28,208,,,,,,,,,,,,,,,,bars/007.png,bars/mask006.png,,,,,,,,,,,,0,2,,,,,,,0,3,0,3,,,,,,4706.1661,4753.9349,space,47.753,,4754.9412,4755.4409,4755.6911,4759.1496,space,3.4472,,4759.1496,33,27,4760.1494,4760.1494,4760.1559,,,,0,0,0,0,1,175,55,,,,,,,,
,,656e0220772443817238eba8,65af56a6be6af047326a9909,2024-01-23_07h04.42.655,bars,2023.2.3,Win32,144.9275362,657b66ea316d21385b68909f,,,,,,,,,,,4760.1562,4761.1626,,,4761.6574,4761.9064,,99,99,,,,,,,,,,,,,,,,bars/028.png,bars/mask004.png,,,,,,,,,,,,2,2,,,,,,,2,5,0,6,,,,,,,,,,,4761.1626,4761.6573,4761.9064,4762.2737,space,0.3599,,4762.2738,54,21,4763.2753,4763.2754,4763.2757,,,,0,1,1,1,1,45,120,,,,,,,,
,,656e0220772443817238eba8,65af56a6be6af047326a9909,2024-01-23_07h04.42.655,bars,2023.2.3,Win32,144.9275362,657b66ea316d21385b68909f,,,,,,,,,,,4763.2758,4764.2745,,,4764.7714,4765.0176,,51,51,,,,,,,,,,,,,,,,bars/024.png,bars/mask003.png,,,,,,,,,,,,0,2,,,,,,,0,7,0,6,,,,,,,,,,,4764.2746,4764.7714,4765.0176,4765.6082,space,0.5822,,4765.6083,69,61,4766.6103,4766.6104,4766.6108,,,,0,2,2,2,1,120,170,,,,,,,,
,,656e0220772443817238eba8,65af56a6be6af047326a9909,2024-01-23_07h04.42.655,bars,2023.2.3,Win32,144.9275362,657b66ea316d21385b68909f,,,,,,,,,,,4766.6108,4767.608,,,4768.1071,4768.3584,,73,73,,,,,,,,,,,,,,,,bars/026.png,bars/mask005.png,,,,,,,,,,,,3,2,,,,,,,2,5,2,5,,,,,,,,,,,4767.608,4768.1071,4768.3585,4769.606,space,1.241,,4769.606,38,12,4770.6017,4770.6018,4770.6023,,,,0,3,3,3,1,35,85,,,,,,,,
,,656e0220772443817238eba8,65af56a6be6af047326a9909,2024-01-23_07h04.42.655,bars,2023.2.3,Win32,144.9275362,657b66ea316d21385b68909f,,,,,,,,,,,4770.6024,4771.6013,,,4772.1019,4772.3513,,123,123,,,,,,,,,,,,,,,,bars/005.png,bars/mask006.png,,,,,,,,,,,,3,2,,,,,,,0,7,0,7,,,,,,,,,,,4771.6013,4772.1019,4772.3514,4773.2555,space,0.9016,,4773.2555,67,17,4774.2612,4774.2612,4774.262,,,,0,4,4,4,1,10,140,,,,,,,,
,,656e0220772443817238eba8,65af56a6be6af047326a9909,2024-01-23_07h04.42.655,bars,2023.2.3,Win32,144.9275362,657b66ea316d21385b68909f,,,,,,,,,,,4774.2622,4775.2612,,,4775.7543,4776.0054,,51,51,,,,,,,,,,,,,,,,bars/029.png,bars/mask007.png,,,,,,,,,,,,4,2,,,,,,,2,5,3,5,,,,,,,,,,,4775.2612,4775.7543,4776.0054,4776.4002,space,0.3873,,4776.4002,39,6,4777.4004,4777.4004,4777.4009,,,,0,5,5,5,1,90,45,,,,,,,,
,,656e0220772443817238eba8,65af56a6be6af047326a9909,2024-01-23_07h04.42.655,bars,2023.2.3,Win32,144.9275362,657b66ea316d21385b68909f,,,,,,,,,,,4777.4011,4778.4002,,,4778.9003,4779.1503,,170,170,,,,,,,,,,,,,,,,bars/033.png,bars/mask003.png,,,,,,,,,,,,1,2,,,,,,,0,3,0,2,,,,,,,,,,,4778.4003,4778.9003,4779.1503,4779.6367,space,0.4762,,4779.6369,35,15,4780.6365,4780.6365,4780.6374,,,,0,6,6,6,1,25,155,,,,,,,,
,,656e0220772443817238eba8,65af56a6be6af047326a9909,2024-01-23_07h04.42.655,bars,2023.2.3,Win32,144.9275362,657b66ea316d21385b68909f,,,,,,,,,,,4780.6375,4781.6365,,,4782.1369,4782.3867,,94,94,,,,,,,,,,,,,,,,bars/028.png,bars/mask006.png,,,,,,,,,,,,1,2,,,,,,,2,5,3,5,,,,,,,,,,,4781.6365,4782.1369,4782.3868,4783.0949,space,0.7051,,4783.0949,49,26,4784.0964,4784.0964,4784.097,,,,0,7,7,7,1,45,120,,,,,,,,
,,656e0220772443817238eba8,65af56a6be6af047326a9909,2024-01-23_07h04.42.655,bars,2023.2.3,Win32,144.9275362,657b66ea316d21385b68909f,,,,,,,,,,,4784.0971,4785.0954,,,4785.595,4785.8451,,90,90,,,,,,,,,,,,,,,,bars/021.png,bars/mask005.png,,,,,,,,,,,,3,2,,,,,,,0,7,0,8,,,,,,,,,,,4785.0954,4785.5949,4785.8451,4786.8034,space,0.9486,,4786.8034,65,20,4787.7966,4787.7967,4787.7973,,,,0,8,8,8,1,155,70,,,,,,,,
,,656e0220772443817238eba8,65af56a6be6af047326a9909,2024-01-23_07h04.42.655,bars,2023.2.3,Win32,144.9275362,657b66ea316d21385b68909f,,,,,,,,,,,4787.7976,4788.7966,,,4789.2966,4789.5469,,174,174,,,,,,,,,,,,,,,,bars/033.png,bars/mask003.png,,,,,,,,,,,,2,2,,,,,,,2,5,3,5,,,,,,,,,,,4788.7966,4789.2965,4789.5469,4792.7974,space,3.2393,,4792.7974,31,19,4793.7969,4793.7969,4793.8032,,,,0,9,9,9,1,25,155,,,,,,,,
,,656e0220772443817238eba8,65af56a6be6af047326a9909,2024-01-23_07h04.42.655,bars,2023.2.3,Win32,144.9275362,657b66ea316d21385b68909f,,,,,,,,,,,4793.8033,4794.8038,,,4795.3037,4795.5539,,158,158,,,,,,,,,,,,,,,,bars/034.png,bars/mask002.png,,,,,,,,,,,,0,1,,,,,,,0,7,1,7,,,,,,,,,,,4794.8038,4795.3037,4795.554,4795.9982,space,0.4329,,4795.9982,33,87,4796.9992,4796.9992,4797.0001,,,,0,10,10,10,1,125,65,,,,,,,,
