init_variables.started,init_variables.stopped,participant,session,date,expName,psychopyVersion,OS,frameRate,study_id,instruction_exp.started,instruction_exp.stopped,key_resp_8.keys,key_resp_8.rt,key_resp_8.duration,instruction_single.started,instruction_single.stopped,key_resp_2.keys,key_resp_2.rt,key_resp_2.duration,interval.started,interval.stopped,cue_single.started,cue_single.stopped,mask.started,mask.stopped,ori_response_single.started,res_ori,res,ori_response_single.stopped,key_resp_single.keys,key_resp_single.rt,key_resp_single.duration,disp_single.started,disp_single.stopped,key_resp.keys,key_resp.rt,key_resp.duration,single.thisRepN,single.thisTrialN,single.thisN,single.thisIndex,single.ran,ori,path,mask_path,instruction_bandit.started,instruction_bandit.stopped,key_resp_6.keys,key_resp_6.rt,key_resp_6.duration,cue_bandit.started,cue_bandit.stopped,bandit_res.keys,bandit_res.rt,bandit_res.duration,outcome_bandit.started,rew,action,outcome_bandit.stopped,bandit.thisRepN,bandit.thisTrialN,bandit.thisN,bandit.thisIndex,bandit.ran,actual_rew1,actual_rew2,rew1,rew2,instruction_task.started,instruction_task.stopped,key_resp_7.keys,key_resp_7.rt,key_resp_7.duration,wait_ready.started,wait_ready.stopped,key_resp_3.keys,key_resp_3.rt,key_resp_3.duration,cue.started,cue.stopped,ori_response.started,ori_response.stopped,key_resp_5.keys,key_resp_5.rt,key_resp_5.duration,outcome.started,diff1,diff2,outcome.stopped,disp_outcome_practice.started,disp_outcome_practice.stopped,key_resp_4.keys,key_resp_4.rt,key_resp_4.duration,trials.thisRepN,trials.thisTrialN,trials.thisN,trials.thisIndex,trials.ran,ori1,ori2,break_blk.started,break_blk.stopped,block.thisRepN,block.thisTrialN,block.thisN,block.thisIndex,block.ran,condition_file
0.0013,0.0018,6145f19d669f7dfef751d076,65af55b48ebdf7e17d6d5749,2024-01-23_08h13.33.304,bars,2023.2.3,Win32,3.158559697,657b66ea316d21385b68909f,,,,,,,,,,,,,,,,,,,,,,,,,,,,,,,,,,,,,,,,,,,,,,,,,,,,,,,,,,,,,,,,,,,,,,,,,,,,,,,,,,,,,,,,,,,,,,,,,,,,
,,6145f19d669f7dfef751d076,65af55b48ebdf7e17d6d5749,2024-01-23_08h13.33.304,bars,2023.2.3,Win32,3.158559697,657b66ea316d21385b68909f,0.0026,25.0217,y,24.5094,,,,,,,,,,,,,,,,,,,,,,,,,,,,,,,,,,,,,,,,,,,,,,,,,,,,,,,,,,,,,,,,,,,,,,,,,,,,,,,,,,,,,,,,,,,,,,,,
,,6145f19d669f7dfef751d076,65af55b48ebdf7e17d6d5749,2024-01-23_08h13.33.304,bars,2023.2.3,Win32,3.158559697,657b66ea316d21385b68909f,,,,,,25.0221,82.4597,space,57.1006,0.0009,,,,,,,,,,,,,,,,,,,,,,,,,,,,,,,,,,,,,,,,,,,,,,,,,,,,,,,,,,,,,,,,,,,,,,,,,,,,,,,,,,,,,,,,,,
,,6145f19d669f7dfef751d076,65af55b48ebdf7e17d6d5749,2024-01-23_08h13.33.304,bars,2023.2.3,Win32,3.158559697,657b66ea316d21385b68909f,,,,,,,,,,,82.4666,83.3932,83.3933,83.9043,83.9045,84.1971,84.1972,0,180,139.6942,space,55.2085,,139.6944,279.7782,space,139.7704,,0,0,0,5,1,55,bars/single005.png,bars/mask008.png,,,,,,,,,,,,,,,,,,,,,,,,,,,,,,,,,,,,,,,,,,,,,,,,,,,,,,,,,,,,,,,,
,,6145f19d669f7dfef751d076,65af55b48ebdf7e17d6d5749,2024-01-23_08h13.33.304,bars,2023.2.3,Win32,3.158559697,657b66ea316d21385b68909f,,,,,,,,,,,279.7914,280.8247,280.8248,281.1732,281.1732,281.1744,281.1744,68,68,333.5403,space,52.0261,,333.5404,344.3418,space,10.4527,,0,1,1,1,1,20,bars/single001.png,bars/mask006.png,,,,,,,,,,,,,,,,,,,,,,,,,,,,,,,,,,,,,,,,,,,,,,,,,,,,,,,,,,,,,,,,
,,6145f19d669f7dfef751d076,65af55b48ebdf7e17d6d5749,2024-01-23_08h13.33.304,bars,2023.2.3,Win32,3.158559697,657b66ea316d21385b68909f,,,,,,,,,,,344.3551,345.3374,345.3375,345.6772,345.6772,346.0629,346.063,53,53,361.8922,space,15.4958,,361.8923,377.7267,space,15.4552,,0,2,2,2,1,145,bars/single002.png,bars/mask003.png,,,,,,,,,,,,,,,,,,,,,,,,,,,,,,,,,,,,,,,,,,,,,,,,,,,,,,,,,,,,,,,,
,,6145f19d669f7dfef751d076,65af55b48ebdf7e17d6d5749,2024-01-23_08h13.33.304,bars,2023.2.3,Win32,3.158559697,657b66ea316d21385b68909f,,,,,,,,,,,377.7398,378.7462,378.7463,379.0942,379.0943,379.441,379.4411,61,61,396.7589,space,16.9736,,396.759,416.7708,space,19.7116,,0,3,3,0,1,150,bars/single000.png,bars/mask006.png,,,,,,,,,,,,,,,,,,,,,,,,,,,,,,,,,,,,,,,,,,,,,,,,,,,,,,,,,,,,,,,,
,,6145f19d669f7dfef751d076,65af55b48ebdf7e17d6d5749,2024-01-23_08h13.33.304,bars,2023.2.3,Win32,3.158559697,657b66ea316d21385b68909f,,,,,,,,,,,416.7846,417.7366,417.7366,418.0651,418.0652,418.405,418.405,16,16,481.5661,space,62.819,,481.5662,489.6069,space,7.6957,,0,4,4,6,1,175,bars/single006.png,bars/mask005.png,,,,,,,,,,,,,,,,,,,,,,,,,,,,,,,,,,,,,,,,,,,,,,,,,,,,,,,,,,,,,,,,
,,6145f19d669f7dfef751d076,65af55b48ebdf7e17d6d5749,2024-01-23_08h13.33.304,bars,2023.2.3,Win32,3.158559697,657b66ea316d21385b68909f,,,,,,,,,,,489.6199,490.6678,490.6679,491.0227,491.0228,491.0241,491.0241,14,14,502.2675,space,10.9085,,502.2675,527.4616,space,24.7656,0.0004,0,5,5,7,1,45,bars/single007.png,bars/mask009.png,,,,,,,,,,,,,,,,,,,,,,,,,,,,,,,,,,,,,,,,,,,,,,,,,,,,,,,,,,,,,,,,
,,6145f19d669f7dfef751d076,65af55b48ebdf7e17d6d5749,2024-01-23_08h13.33.304,bars,2023.2.3,Win32,3.158559697,657b66ea316d21385b68909f,,,,,,,,,,,527.4784,528.5102,528.5102,528.8796,528.8796,528.8803,528.8803,52,52,543.3561,space,14.1312,,543.3562,571.4848,space,27.8016,,0,6,6,9,1,20,bars/single009.png,bars/mask006.png,,,,,,,,,,,,,,,,,,,,,,,,,,,,,,,,,,,,,,,,,,,,,,,,,,,,,,,,,,,,,,,,
,,6145f19d669f7dfef751d076,65af55b48ebdf7e17d6d5749,2024-01-23_08h13.33.304,bars,2023.2.3,Win32,3.158559697,657b66ea316d21385b68909f,,,,,,,,,,,571.4981,572.4303,572.4304,572.752,572.752,573.0755,573.0755,24,24,645.6255,space,72.2431,0.0006,645.6255,666.9227,space,20.9197,0.0005,0,7,7,3,1,20,bars/single003.png,bars/mask005.png,,,,,,,,,,,,,,,,,,,,,,,,,,,,,,,,,,,,,,,,,,,,,,,,,,,,,,,,,,,,,,,,
,,6145f19d669f7dfef751d076,65af55b48ebdf7e17d6d5749,2024-01-23_08h13.33.304,bars,2023.2.3,Win32,3.158559697,657b66ea316d21385b68909f,,,,,,,,,,,666.9368,667.8783,667.8783,668.1756,668.1757,668.1775,668.1775,18,18,753.5276,space,85.0549,,753.5277,759.3206,space,5.4593,,0,8,8,8,1,160,bars/single008.png,bars/mask004.png,,,,,,,,,,,,,,,,,,,,,,,,,,,,,,,,,,,,,,,,,,,,,,,,,,,,,,,,,,,,,,,,
,,6145f19d669f7dfef751d076,65af55b48ebdf7e17d6d5749,2024-01-23_08h13.33.304,bars,2023.2.3,Win32,3.158559697,657b66ea316d21385b68909f,,,,,,,,,,,759.3332,760.2596,760.2597,760.5676,760.5677,760.8923,760.8923,16,16,775.4942,space,14.2981,1E-04,775.4942,783.1668,space,7.3199,,0,9,9,4,1,95,bars/single004.png,bars/mask004.png,,,,,,,,,,,,,,,,,,,,,,,,,,,,,,,,,,,,,,,,,,,,,,,,,,,,,,,,,,,,,,,,
,,6145f19d669f7dfef751d076,65af55b48ebdf7e17d6d5749,2024-01-23_08h13.33.304,bars,2023.2.3,Win32,3.158559697,657b66ea316d21385b68909f,,,,,,,,,,,,,,,,,,,,,,,,,,,,,,,,,,,,,783.1796,813.0288,space,29.513,,,,,,,,,,,,,,,,,,,,,,,,,,,,,,,,,,,,,,,,,,,,,,,,,,,,,,,,,,,,
,,6145f19d669f7dfef751d076,65af55b48ebdf7e17d6d5749,2024-01-23_08h13.33.304,bars,2023.2.3,Win32,3.158559697,657b66ea316d21385b68909f,,,,,,,,,,,,,,,,,,,,,,,,,,,,,,,,,,,,,,,,,,813.046,816.3025,left,2.8735,,816.3027,9,1,817.1433,0,0,0,0,1,9,1,9,2,,,,,,,,,,,,,,,,,,,,,,,,,,,,,,,,,,,,,,,,,
,,6145f19d669f7dfef751d076,65af55b48ebdf7e17d6d5749,2024-01-23_08h13.33.304,bars,2023.2.3,Win32,3.158559697,657b66ea316d21385b68909f,,,,,,,,,,,,,,,,,,,,,,,,,,,,,,,,,,,,,,,,,,817.1444,819.2888,left,1.7384,0.0002,819.2889,10,1,820.1162,0,1,1,1,1,10,0,10,1,,,,,,,,,,,,,,,,,,,,,,,,,,,,,,,,,,,,,,,,,
,,6145f19d669f7dfef751d076,65af55b48ebdf7e17d6d5749,2024-01-23_08h13.33.304,bars,2023.2.3,Win32,3.158559697,657b66ea316d21385b68909f,,,,,,,,,,,,,,,,,,,,,,,,,,,,,,,,,,,,,,,,,,820.1172,821.8343,left,1.3121,,821.8343,10,1,822.6578,0,2,2,2,1,10,2,10,2,,,,,,,,,,,,,,,,,,,,,,,,,,,,,,,,,,,,,,,,,
,,6145f19d669f7dfef751d076,65af55b48ebdf7e17d6d5749,2024-01-23_08h13.33.304,bars,2023.2.3,Win32,3.158559697,657b66ea316d21385b68909f,,,,,,,,,,,,,,,,,,,,,,,,,,,,,,,,,,,,,,,,,,822.6582,824.4579,left,1.3612,,824.458,7,1,825.2542,0,3,3,3,1,8,4,7,3,,,,,,,,,,,,,,,,,,,,,,,,,,,,,,,,,,,,,,,,,
,,6145f19d669f7dfef751d076,65af55b48ebdf7e17d6d5749,2024-01-23_08h13.33.304,bars,2023.2.3,Win32,3.158559697,657b66ea316d21385b68909f,,,,,,,,,,,,,,,,,,,,,,,,,,,,,,,,,,,,,,,,,,825.2548,827.0858,left,1.4802,0.0003,827.0861,5,1,828.1496,0,4,4,4,1,6,2,5,1,,,,,,,,,,,,,,,,,,,,,,,,,,,,,,,,,,,,,,,,,
,,6145f19d669f7dfef751d076,65af55b48ebdf7e17d6d5749,2024-01-23_08h13.33.304,bars,2023.2.3,Win32,3.158559697,657b66ea316d21385b68909f,,,,,,,,,,,,,,,,,,,,,,,,,,,,,,,,,,,,,,,,,,828.1505,829.6288,left,1.1216,,829.6288,4,1,830.6783,0,5,5,5,1,4,4,4,4,,,,,,,,,,,,,,,,,,,,,,,,,,,,,,,,,,,,,,,,,
,,6145f19d669f7dfef751d076,65af55b48ebdf7e17d6d5749,2024-01-23_08h13.33.304,bars,2023.2.3,Win32,3.158559697,657b66ea316d21385b68909f,,,,,,,,,,,,,,,,,,,,,,,,,,,,,,,,,,,,,,,,,,830.6791,832.5278,right,1.4861,,832.5279,2,2,833.575,0,6,6,6,1,2,2,1,2,,,,,,,,,,,,,,,,,,,,,,,,,,,,,,,,,,,,,,,,,
,,6145f19d669f7dfef751d076,65af55b48ebdf7e17d6d5749,2024-01-23_08h13.33.304,bars,2023.2.3,Win32,3.158559697,657b66ea316d21385b68909f,,,,,,,,,,,,,,,,,,,,,,,,,,,,,,,,,,,,,,,,,,833.5759,835.0744,left,1.1262,,835.0746,0,1,836.042,0,7,7,7,1,0,0,0,1,,,,,,,,,,,,,,,,,,,,,,,,,,,,,,,,,,,,,,,,,
,,6145f19d669f7dfef751d076,65af55b48ebdf7e17d6d5749,2024-01-23_08h13.33.304,bars,2023.2.3,Win32,3.158559697,657b66ea316d21385b68909f,,,,,,,,,,,,,,,,,,,,,,,,,,,,,,,,,,,,,,,,,,836.0428,837.7177,left,1.3629,,837.7177,1,1,838.9915,0,8,8,8,1,0,2,1,0,,,,,,,,,,,,,,,,,,,,,,,,,,,,,,,,,,,,,,,,,
,,6145f19d669f7dfef751d076,65af55b48ebdf7e17d6d5749,2024-01-23_08h13.33.304,bars,2023.2.3,Win32,3.158559697,657b66ea316d21385b68909f,,,,,,,,,,,,,,,,,,,,,,,,,,,,,,,,,,,,,,,,,,838.9921,840.3181,left,1.0142,,840.3181,2,1,841.2691,0,9,9,9,1,2,4,2,3,,,,,,,,,,,,,,,,,,,,,,,,,,,,,,,,,,,,,,,,,
,,6145f19d669f7dfef751d076,65af55b48ebdf7e17d6d5749,2024-01-23_08h13.33.304,bars,2023.2.3,Win32,3.158559697,657b66ea316d21385b68909f,,,,,,,,,,,,,,,,,,,,,,,,,,,,,,,,,,,,,,,,,,841.2698,842.9336,left,1.349,0.0002,842.9337,0,1,843.8625,0,10,10,10,1,0,2,0,3,,,,,,,,,,,,,,,,,,,,,,,,,,,,,,,,,,,,,,,,,
,,6145f19d669f7dfef751d076,65af55b48ebdf7e17d6d5749,2024-01-23_08h13.33.304,bars,2023.2.3,Win32,3.158559697,657b66ea316d21385b68909f,,,,,,,,,,,,,,,,,,,,,,,,,,,,,,,,,,,,,,,,,,843.8633,845.4989,left,1.3095,,845.4989,0,1,846.3676,0,11,11,11,1,0,4,0,3,,,,,,,,,,,,,,,,,,,,,,,,,,,,,,,,,,,,,,,,,
,,6145f19d669f7dfef751d076,65af55b48ebdf7e17d6d5749,2024-01-23_08h13.33.304,bars,2023.2.3,Win32,3.158559697,657b66ea316d21385b68909f,,,,,,,,,,,,,,,,,,,,,,,,,,,,,,,,,,,,,,,,,,846.3685,848.1989,right,1.5399,,848.199,6,2,849.0946,0,12,12,12,1,2,6,1,6,,,,,,,,,,,,,,,,,,,,,,,,,,,,,,,,,,,,,,,,,
,,6145f19d669f7dfef751d076,65af55b48ebdf7e17d6d5749,2024-01-23_08h13.33.304,bars,2023.2.3,Win32,3.158559697,657b66ea316d21385b68909f,,,,,,,,,,,,,,,,,,,,,,,,,,,,,,,,,,,,,,,,,,849.0954,850.6659,right,1.2738,,850.6659,3,2,851.5896,0,13,13,13,1,0,4,1,3,,,,,,,,,,,,,,,,,,,,,,,,,,,,,,,,,,,,,,,,,
,,6145f19d669f7dfef751d076,65af55b48ebdf7e17d6d5749,2024-01-23_08h13.33.304,bars,2023.2.3,Win32,3.158559697,657b66ea316d21385b68909f,,,,,,,,,,,,,,,,,,,,,,,,,,,,,,,,,,,,,,,,,,851.5901,852.8171,right,0.9317,0.0003,852.8171,7,2,853.6924,0,14,14,14,1,2,6,2,7,,,,,,,,,,,,,,,,,,,,,,,,,,,,,,,,,,,,,,,,,
,,6145f19d669f7dfef751d076,65af55b48ebdf7e17d6d5749,2024-01-23_08h13.33.304,bars,2023.2.3,Win32,3.158559697,657b66ea316d21385b68909f,,,,,,,,,,,,,,,,,,,,,,,,,,,,,,,,,,,,,,,,,,853.6929,854.6506,right,0.6488,0.0003,854.6506,9,2,855.5463,0,15,15,15,1,4,8,3,9,,,,,,,,,,,,,,,,,,,,,,,,,,,,,,,,,,,,,,,,,
,,6145f19d669f7dfef751d076,65af55b48ebdf7e17d6d5749,2024-01-23_08h13.33.304,bars,2023.2.3,Win32,3.158559697,657b66ea316d21385b68909f,,,,,,,,,,,,,,,,,,,,,,,,,,,,,,,,,,,,,,,,,,855.547,856.5376,right,0.649,,856.5376,7,2,857.4442,0,16,16,16,1,6,6,7,7,,,,,,,,,,,,,,,,,,,,,,,,,,,,,,,,,,,,,,,,,
,,6145f19d669f7dfef751d076,65af55b48ebdf7e17d6d5749,2024-01-23_08h13.33.304,bars,2023.2.3,Win32,3.158559697,657b66ea316d21385b68909f,,,,,,,,,,,,,,,,,,,,,,,,,,,,,,,,,,,,,,,,,,857.4451,858.7069,right,0.9578,,858.7069,5,2,859.614,0,17,17,17,1,8,4,9,5,,,,,,,,,,,,,,,,,,,,,,,,,,,,,,,,,,,,,,,,,
,,6145f19d669f7dfef751d076,65af55b48ebdf7e17d6d5749,2024-01-23_08h13.33.304,bars,2023.2.3,Win32,3.158559697,657b66ea316d21385b68909f,,,,,,,,,,,,,,,,,,,,,,,,,,,,,,,,,,,,,,,,,,859.6148,860.6107,right,0.6798,,860.6107,1,2,861.5442,0,18,18,18,1,6,2,5,1,,,,,,,,,,,,,,,,,,,,,,,,,,,,,,,,,,,,,,,,,
,,6145f19d669f7dfef751d076,65af55b48ebdf7e17d6d5749,2024-01-23_08h13.33.304,bars,2023.2.3,Win32,3.158559697,657b66ea316d21385b68909f,,,,,,,,,,,,,,,,,,,,,,,,,,,,,,,,,,,,,,,,,,861.5451,862.8444,left,0.9938,,862.8445,7,1,863.7659,0,19,19,19,1,8,0,7,0,,,,,,,,,,,,,,,,,,,,,,,,,,,,,,,,,,,,,,,,,
,,6145f19d669f7dfef751d076,65af55b48ebdf7e17d6d5749,2024-01-23_08h13.33.304,bars,2023.2.3,Win32,3.158559697,657b66ea316d21385b68909f,,,,,,,,,,,,,,,,,,,,,,,,,,,,,,,,,,,,,,,,,,,,,,,,,,,,,,,,,,,,863.7666,882.8244,space,18.7456,0.0002,,,,,,,,,,,,,,,,,,,,,,,,,,,,,,,,,,,,
,,6145f19d669f7dfef751d076,65af55b48ebdf7e17d6d5749,2024-01-23_08h13.33.304,bars,2023.2.3,Win32,3.158559697,657b66ea316d21385b68909f,,,,,,,,,,,912.4026,913.1957,,,913.6084,913.6097,,34,34,,,,,,,,,,,,,,,,bars/047.png,bars/mask008.png,,,,,,,,,,,,0,1,,,,,,,1,6,1,7,,,,,,882.8443,912.3775,space,29.2202,0.0003,913.1961,913.6084,913.6099,932.2513,space,18.2351,,932.2515,19,36,933.22,933.2202,938.5214,space,4.9738,,0,0,0,0,1,15,70,,,,,,,,
,,6145f19d669f7dfef751d076,65af55b48ebdf7e17d6d5749,2024-01-23_08h13.33.304,bars,2023.2.3,Win32,3.158559697,657b66ea316d21385b68909f,,,,,,,,,,,938.5362,939.3968,,,939.7214,940.0227,,131,131,,,,,,,,,,,,,,,,bars/028.png,bars/mask009.png,,,,,,,,,,,,3,2,,,,,,,3,4,2,5,,,,,,,,,,,939.3969,939.7213,940.0227,998.816,space,58.5042,,998.8163,86,11,999.6205,999.6206,1007.7713,space,7.6886,,0,1,1,1,1,45,120,,,,,,,,
,,6145f19d669f7dfef751d076,65af55b48ebdf7e17d6d5749,2024-01-23_08h13.33.304,bars,2023.2.3,Win32,3.158559697,657b66ea316d21385b68909f,,,,,,,,,,,1007.7845,1008.8327,,,1009.1922,1009.1934,,138,138,,,,,,,,,,,,,,,,bars/031.png,bars/mask001.png,,,,,,,,,,,,1,1,,,,,,,1,6,2,5,,,,,,,,,,,1008.8327,1009.1922,1009.1934,1064.8277,space,55.2863,,1064.8279,18,77,1065.8811,1065.8812,1084.9124,space,18.6545,,0,2,2,2,1,120,35,,,,,,,,
,,6145f19d669f7dfef751d076,65af55b48ebdf7e17d6d5749,2024-01-23_08h13.33.304,bars,2023.2.3,Win32,3.158559697,657b66ea316d21385b68909f,,,,,,,,,,,1084.9281,1085.7111,,,1086.1411,1086.1423,,147,-33,,,,,,,,,,,,,,,,bars/036.png,bars/mask004.png,,,,,,,,,,,,3,1,,,,,,,3,4,3,5,,,,,,,,,,,1085.7112,1086.141,1086.1423,1162.5631,space,76.012,0.0002,1162.5631,2,53,1163.4594,1163.4594,1171.0197,space,7.2234,0.0001,0,3,3,3,1,145,20,,,,,,,,
,,6145f19d669f7dfef751d076,65af55b48ebdf7e17d6d5749,2024-01-23_08h13.33.304,bars,2023.2.3,Win32,3.158559697,657b66ea316d21385b68909f,,,,,,,,,,,1171.0201,1171.9857,,,1172.3055,1172.3067,,98,98,,,,,,,,,,,,,,,,bars/029.png,bars/mask003.png,,,,,,,,,,,,1,1,,,,,,,1,6,1,6,,,,,,,,,,,1171.9858,1172.3054,1172.3068,1176.0383,space,3.4145,0.0003,1176.0384,8,53,1177.0308,1177.0308,1182.1382,space,4.7632,0.0001,0,4,4,4,1,90,45,,,,,,,,
,,6145f19d669f7dfef751d076,65af55b48ebdf7e17d6d5749,2024-01-23_08h13.33.304,bars,2023.2.3,Win32,3.158559697,657b66ea316d21385b68909f,,,,,,,,,,,1182.1388,1183.1514,,,1183.496,1183.4965,,120,120,,,,,,,,,,,,,,,,bars/021.png,bars/mask003.png,,,,,,,,,,,,0,1,,,,,,,3,4,4,4,,,,,,,,,,,1183.1514,1183.496,1183.4966,1199.7821,space,15.9523,0.0003,1199.7822,35,50,1200.5174,1200.5175,1205.8892,space,4.9624,0.0004,0,5,5,5,1,155,70,,,,,,,,
,,6145f19d669f7dfef751d076,65af55b48ebdf7e17d6d5749,2024-01-23_08h13.33.304,bars,2023.2.3,Win32,3.158559697,657b66ea316d21385b68909f,,,,,,,,,,,1205.9045,1206.7124,,,1207.1354,1207.1362,,43,43,,,,,,,,,,,,,,,,bars/032.png,bars/mask005.png,,,,,,,,,,,,1,2,,,,,,,5,6,4,6,,,,,,,,,,,1206.7124,1207.1353,1207.1363,1233.47,space,25.9284,,1233.4701,82,23,1234.4704,1234.4704,1238.3953,space,3.5762,,0,6,6,6,1,125,20,,,,,,,,
,,6145f19d669f7dfef751d076,65af55b48ebdf7e17d6d5749,2024-01-23_08h13.33.304,bars,2023.2.3,Win32,3.158559697,657b66ea316d21385b68909f,,,,,,,,,,,1238.396,1239.3035,,,1239.6125,1239.9124,,149,149,,,,,,,,,,,,,,,,bars/010.png,bars/mask009.png,,,,,,,,,,,,4,1,,,,,,,7,4,9,4,,,,,,,,,,,1239.3035,1239.6124,1239.9125,1245.9253,space,5.7282,,1245.9254,16,86,1246.8267,1246.8267,1253.5364,space,6.39,0.0003,0,7,7,7,1,165,55,,,,,,,,
,,6145f19d669f7dfef751d076,65af55b48ebdf7e17d6d5749,2024-01-23_08h13.33.304,bars,2023.2.3,Win32,3.158559697,657b66ea316d21385b68909f,,,,,,,,,,,1253.5476,1254.4771,,,1254.7952,1255.1033,,132,132,,,,,,,,,,,,,,,,bars/017.png,bars/mask008.png,,,,,,,,,,,,5,1,,,,,,,9,6,9,7,,,,,,,,,,,1254.4771,1254.7951,1255.1033,1264.2199,space,8.8079,,1264.22,13,87,1265.1556,1265.1557,1271.9825,space,6.4887,,0,8,8,8,1,145,45,,,,,,,,
,,6145f19d669f7dfef751d076,65af55b48ebdf7e17d6d5749,2024-01-23_08h13.33.304,bars,2023.2.3,Win32,3.158559697,657b66ea316d21385b68909f,,,,,,,,,,,1271.9962,1272.9694,,,1273.3036,1273.3045,,33,33,,,,,,,,,,,,,,,,bars/030.png,bars/mask000.png,,,,,,,,,,,,0,2,,,,,,,10,4,10,5,,,,,,,,,,,1272.9695,1273.3036,1273.3045,1284.5159,space,10.8862,0.0002,1284.5159,73,32,1285.5496,1285.5497,1294.0482,space,8.0823,0.0004,0,9,9,9,1,140,65,,,,,,,,
,,6145f19d669f7dfef751d076,65af55b48ebdf7e17d6d5749,2024-01-23_08h13.33.304,bars,2023.2.3,Win32,3.158559697,657b66ea316d21385b68909f,,,,,,,,,,,1294.0624,1294.8042,,,1295.1814,1295.1826,,156,156,,,,,,,,,,,,,,,,bars/031.png,bars/mask002.png,,,,,,,,,,,,0,1,,,,,,,8,2,9,3,,,,,,,,,,,1294.8042,1295.1813,1295.1826,1312.71,space,17.1512,0.0003,1312.71,36,59,1313.6112,1313.6114,1318.3649,space,4.2612,,0,10,10,10,1,120,35,,,,,,,,
,,6145f19d669f7dfef751d076,65af55b48ebdf7e17d6d5749,2024-01-23_08h13.33.304,bars,2023.2.3,Win32,3.158559697,657b66ea316d21385b68909f,,,,,,,,,,,1318.3658,1319.0966,,,1319.4732,1319.4743,,38,38,,,,,,,,,,,,,,,,bars/012.png,bars/mask007.png,,,,,,,,,,,,1,2,,,,,,,6,4,6,5,,,,,,,,,,,1319.0966,1319.4731,1319.4743,1335.1422,space,15.2988,0.0005,1335.1423,52,23,1336.0576,1336.0577,1342.5401,space,6.1602,,0,11,11,11,1,90,15,,,,,,,,
,,6145f19d669f7dfef751d076,65af55b48ebdf7e17d6d5749,2024-01-23_08h13.33.304,bars,2023.2.3,Win32,3.158559697,657b66ea316d21385b68909f,,,,,,,,,,,1342.5523,1343.4746,,,1343.7902,1344.0964,,139,139,,,,,,,,,,,,,,,,bars/011.png,bars/mask000.png,,,,,,,,,,,,2,1,,,,,,,8,6,8,5,,,,,,,,,,,1343.4753,1343.7901,1344.0964,1363.7775,space,19.3776,,1363.7776,21,54,1364.7477,1364.7477,1367.0096,space,1.9034,,0,12,12,12,1,160,85,,,,,,,,
,,6145f19d669f7dfef751d076,65af55b48ebdf7e17d6d5749,2024-01-23_08h13.33.304,bars,2023.2.3,Win32,3.158559697,657b66ea316d21385b68909f,,,,,,,,,,,1367.0101,1368.0568,,,1368.4093,1368.4106,,22,22,,,,,,,,,,,,,,,,bars/002.png,bars/mask006.png,,,,,,,,,,,,0,2,,,,,,,6,4,5,4,,,,,,,,,,,1368.0569,1368.4093,1368.4106,1375.9874,space,7.2299,,1375.9874,72,63,1376.726,1376.7261,1382.0665,space,4.9349,0.0003,0,13,13,13,1,130,85,,,,,,,,
,,6145f19d669f7dfef751d076,65af55b48ebdf7e17d6d5749,2024-01-23_08h13.33.304,bars,2023.2.3,Win32,3.158559697,657b66ea316d21385b68909f,,,,,,,,,,,1382.0821,1382.8385,,,1383.2199,1383.221,,90,90,,,,,,,,,,,,,,,,bars/045.png,bars/mask004.png,,,,,,,,,,,,5,1,,,,,,,8,6,7,5,,,,,,,,,,,1382.8385,1383.2198,1383.2211,1398.1272,space,14.5396,,1398.1273,10,80,1399.1655,1399.1656,1403.7244,space,4.1801,0.0004,0,14,14,14,1,100,10,,,,,,,,
,,6145f19d669f7dfef751d076,65af55b48ebdf7e17d6d5749,2024-01-23_08h13.33.304,bars,2023.2.3,Win32,3.158559697,657b66ea316d21385b68909f,,,,,,,,,,,1403.7376,1404.7811,,,1405.1395,1405.1405,,85,85,,,,,,,,,,,,,,,,bars/041.png,bars/mask008.png,,,,,,,,,,,,9,2,,,,,,,6,8,6,9,,,,,,,,,,,1404.7811,1405.1394,1405.1405,1408.1205,space,2.6285,,1408.1205,65,0,1409.0538,1409.0539,1412.126,space,2.7349,0.0002,0,15,15,15,1,20,85,,,,,,,,
,,6145f19d669f7dfef751d076,65af55b48ebdf7e17d6d5749,2024-01-23_08h13.33.304,bars,2023.2.3,Win32,3.158559697,657b66ea316d21385b68909f,,,,,,,,,,,1412.1268,1413.0501,,,1413.3693,1413.693,,57,57,,,,,,,,,,,,,,,,bars/038.png,bars/mask006.png,,,,,,,,,,,,6,2,,,,,,,8,10,9,10,,,,,,,,,,,1413.0502,1413.3693,1413.6932,1425.5884,space,11.5809,0.0003,1425.5884,72,13,1426.6198,1426.6198,1429.2415,space,2.2381,,0,16,16,16,1,165,70,,,,,,,,
,,6145f19d669f7dfef751d076,65af55b48ebdf7e17d6d5749,2024-01-23_08h13.33.304,bars,2023.2.3,Win32,3.158559697,657b66ea316d21385b68909f,,,,,,,,,,,1429.2424,1430.2648,,,1430.6163,1430.6171,,71,251,,,,,,,,,,,,,,,,bars/012.png,bars/mask001.png,,,,,,,,,,,,2,1,,,,,,,6,10,5,8,,,,,,,,,,,1430.2649,1430.6163,1430.6171,1464.3267,space,33.3582,0.0002,1464.3268,19,56,1465.4059,1465.4059,1468.2863,space,2.4585,0.0004,0,17,17,17,1,90,15,,,,,,,,
,,6145f19d669f7dfef751d076,65af55b48ebdf7e17d6d5749,2024-01-23_08h13.33.304,bars,2023.2.3,Win32,3.158559697,657b66ea316d21385b68909f,,,,,,,,,,,1468.2873,1469.0173,,,1469.3953,1469.3965,,77,77,,,,,,,,,,,,,,,,bars/015.png,bars/mask009.png,,,,,,,,,,,,0,1,,,,,,,4,10,4,10,,,,,,,,,,,1469.0174,1469.3952,1469.3965,1489.5975,space,19.8313,,1489.5975,33,83,1490.4856,1490.4856,1492.8138,space,2.0041,0.0004,0,18,18,18,1,110,160,,,,,,,,
,,6145f19d669f7dfef751d076,65af55b48ebdf7e17d6d5749,2024-01-23_08h13.33.304,bars,2023.2.3,Win32,3.158559697,657b66ea316d21385b68909f,,,,,,,,,,,1492.8146,1493.7467,,,1494.062,1494.3682,,110,110,,,,,,,,,,,,,,,,bars/004.png,bars/mask007.png,,,,,,,,,,,,4,2,,,,,,,6,8,6,8,,,,,,,,,,,1493.7468,1494.0619,1494.3683,1516.9798,space,22.3123,,1516.9799,85,15,1518.0468,1518.0469,1519.9385,space,1.5234,0.0003,0,19,19,19,1,25,125,,,,,,,,
,,6145f19d669f7dfef751d076,65af55b48ebdf7e17d6d5749,2024-01-23_08h13.33.304,bars,2023.2.3,Win32,3.158559697,657b66ea316d21385b68909f,,,,,,,,,,,1519.9393,1520.9804,,,1521.3308,1521.3324,,76,76,,,,,,,,,,,,,,,,bars/032.png,bars/mask002.png,,,,,,,,,,,,0,1,,,,,,,4,6,4,6,,,,,,,,,,,1520.9805,1521.3308,1521.3324,1530.0173,space,8.3396,0.0003,1530.0174,49,56,1530.7711,1530.7712,1532.7974,space,1.624,0.0004,0,20,20,20,1,125,20,,,,,,,,
,,6145f19d669f7dfef751d076,65af55b48ebdf7e17d6d5749,2024-01-23_08h13.33.304,bars,2023.2.3,Win32,3.158559697,657b66ea316d21385b68909f,,,,,,,,,,,1532.7982,1533.5259,,,1533.914,1533.9153,,15,15,,,,,,,,,,,,,,,,bars/045.png,bars/mask009.png,,,,,,,,,,,,7,2,,,,,,,2,8,3,8,,,,,,,,,,,1533.526,1533.9139,1533.9153,1548.1297,space,13.8485,0.0004,1548.1297,85,5,1549.1661,1549.1662,1552.9523,space,3.4076,,0,21,21,21,1,100,10,,,,,,,,
,,6145f19d669f7dfef751d076,65af55b48ebdf7e17d6d5749,2024-01-23_08h13.33.304,bars,2023.2.3,Win32,3.158559697,657b66ea316d21385b68909f,,,,,,,,,,,1552.953,1553.976,,,1554.3289,1554.3301,,135,135,,,,,,,,,,,,,,,,bars/007.png,bars/mask000.png,,,,,,,,,,,,0,1,,,,,,,4,6,5,8,,,,,,,,,,,1553.976,1554.3288,1554.3301,1571.3768,space,16.7063,,1571.3769,40,80,1572.3451,1572.3451,1574.4721,space,1.7813,0.0002,0,22,22,22,1,175,55,,,,,,,,
,,6145f19d669f7dfef751d076,65af55b48ebdf7e17d6d5749,2024-01-23_08h13.33.304,bars,2023.2.3,Win32,3.158559697,657b66ea316d21385b68909f,,,,,,,,,,,1574.4728,1575.4527,,,1575.7993,1576.1497,,173,173,,,,,,,,,,,,,,,,bars/023.png,bars/mask001.png,,,,,,,,,,,,0,1,,,,,,,6,8,4,9,,,,,,,,,,,1575.4528,1575.7991,1576.1498,1600.6354,space,24.1425,0.0007,1600.6354,27,58,1601.4294,1601.4295,1607.3041,space,5.441,0.0008,0,23,23,23,1,20,115,,,,,,,,
,,6145f19d669f7dfef751d076,65af55b48ebdf7e17d6d5749,2024-01-23_08h13.33.304,bars,2023.2.3,Win32,3.158559697,657b66ea316d21385b68909f,,,,,,,,,,,1607.3048,1608.3674,,,1608.7211,1608.7219,,31,31,,,,,,,,,,,,,,,,bars/025.png,bars/mask001.png,,,,,,,,,,,,6,2,,,,,,,8,6,8,8,,,,,,,,,,,1608.3674,1608.7211,1608.7219,1627.3777,space,18.3101,,1627.3778,74,9,1628.2378,1628.2379,1635.6879,space,7.1422,,0,24,24,24,1,105,40,,,,,,,,
,,6145f19d669f7dfef751d076,65af55b48ebdf7e17d6d5749,2024-01-23_08h13.33.304,bars,2023.2.3,Win32,3.158559697,657b66ea316d21385b68909f,,,,,,,,,,,1635.6996,1636.5818,,,1636.8905,1637.1969,,52,52,,,,,,,,,,,,,,,,bars/035.png,bars/mask000.png,,,,,,,,,,,,6,2,,,,,,,6,8,7,8,,,,,,,,,,,1636.5818,1636.8904,1637.197,1644.3142,space,6.8198,0.0002,1644.3143,57,8,1645.2284,1645.2284,1647.247,space,1.695,0.0003,0,25,25,25,1,175,60,,,,,,,,
,,6145f19d669f7dfef751d076,65af55b48ebdf7e17d6d5749,2024-01-23_08h13.33.304,bars,2023.2.3,Win32,3.158559697,657b66ea316d21385b68909f,,,,,,,,,,,1647.2477,1648.1728,,,1648.491,1648.8165,,58,58,,,,,,,,,,,,,,,,bars/012.png,bars/mask001.png,,,,,,,,,,,,0,1,,,,,,,4,6,5,5,,,,,,,,,,,1648.1728,1648.4909,1648.8165,1664.2342,space,15.1095,0.0003,1664.2343,32,43,1665.2184,1665.2184,1671.27,space,5.6991,,0,26,26,26,1,90,15,,,,,,,,
,,6145f19d669f7dfef751d076,65af55b48ebdf7e17d6d5749,2024-01-23_08h13.33.304,bars,2023.2.3,Win32,3.158559697,657b66ea316d21385b68909f,,,,,,,,,,,1671.2837,1672.3094,,,1672.6608,1672.662,,19,199,,,,,,,,,,,,,,,,bars/017.png,bars/mask007.png,,,,,,,,,,,,0,2,,,,,,,6,4,6,3,,,,,,,,,,,1672.3094,1672.6607,1672.662,1693.2671,space,20.2495,0.0004,1693.2672,54,26,1694.0714,1694.0715,1703.0807,space,8.5821,,0,27,27,27,1,145,45,,,,,,,,
,,6145f19d669f7dfef751d076,65af55b48ebdf7e17d6d5749,2024-01-23_08h13.33.304,bars,2023.2.3,Win32,3.158559697,657b66ea316d21385b68909f,,,,,,,,,,,1703.0968,1703.9871,,,1704.4435,1704.4449,,76,76,,,,,,,,,,,,,,,,bars/001.png,bars/mask005.png,,,,,,,,,,,,1,2,,,,,,,8,2,6,2,,,,,,,,,,,1703.9872,1704.4434,1704.4449,1711.9682,space,7.0713,0.0003,1711.9682,54,9,1712.695,1712.695,1715.8911,space,2.7978,,0,28,28,28,1,130,85,,,,,,,,
,,6145f19d669f7dfef751d076,65af55b48ebdf7e17d6d5749,2024-01-23_08h13.33.304,bars,2023.2.3,Win32,3.158559697,657b66ea316d21385b68909f,,,,,,,,,,,1715.9028,1716.8664,,,1717.2027,1717.2042,,127,127,,,,,,,,,,,,,,,,bars/015.png,bars/mask004.png,,,,,,,,,,,,3,1,,,,,,,6,0,7,0,,,,,,,,,,,1716.8664,1717.2027,1717.2042,1730.3493,space,12.8254,0.0003,1730.3494,17,33,1731.2383,1731.2383,1734.8045,space,3.2444,0.0005,0,29,29,29,1,110,160,,,,,,,,
,,6145f19d669f7dfef751d076,65af55b48ebdf7e17d6d5749,2024-01-23_08h13.33.304,bars,2023.2.3,Win32,3.158559697,657b66ea316d21385b68909f,,,,,,,,,,,1734.8052,1735.693,,,1736.0186,1736.3352,,3,3,,,,,,,,,,,,,,,,bars/004.png,bars/mask009.png,,,,,,,,,,,,2,1,,,,,,,8,0,9,0,,,,,,,,,,,1735.693,1736.0186,1736.3352,1759.3875,space,22.7451,0.0003,1759.3876,22,58,1760.4187,1760.4188,1766.4981,space,5.7044,0.0004,0,30,30,30,1,25,125,,,,,,,,
,,6145f19d669f7dfef751d076,65af55b48ebdf7e17d6d5749,2024-01-23_08h13.33.304,bars,2023.2.3,Win32,3.158559697,657b66ea316d21385b68909f,,,,,,,,,,,1766.5116,1767.2446,,,1767.6298,1767.6309,,5,5,,,,,,,,,,,,,,,,bars/043.png,bars/mask003.png,,,,,,,,,,,,2,1,,,,,,,10,0,10,2,,,,,,,,,,,1767.2447,1767.6296,1767.631,1782.1765,space,14.1641,0.0004,1782.1765,25,55,1782.9982,1782.9982,1791.7134,space,8.2873,0.0003,0,31,31,31,1,30,130,,,,,,,,
,,6145f19d669f7dfef751d076,65af55b48ebdf7e17d6d5749,2024-01-23_08h13.33.304,bars,2023.2.3,Win32,3.158559697,657b66ea316d21385b68909f,,,,,,,,,,,1791.7279,1792.7653,,,1793.123,1793.1238,,142,142,,,,,,,,,,,,,,,,bars/044.png,bars/mask002.png,,,,,,,,,,,,0,2,,,,,,,10,0,9,0,,,,,,,,,,,1792.7654,1793.123,1793.1239,1802.1484,space,8.6813,,1802.1484,67,13,1803.0883,1803.0884,1806.9391,space,3.5152,0.0003,0,32,32,32,1,75,155,,,,,,,,
,,6145f19d669f7dfef751d076,65af55b48ebdf7e17d6d5749,2024-01-23_08h13.33.304,bars,2023.2.3,Win32,3.158559697,657b66ea316d21385b68909f,,,,,,,,,,,1806.9511,1807.9182,,,1808.2515,1808.2524,,11,11,,,,,,,,,,,,,,,,bars/020.png,bars/mask000.png,,,,,,,,,,,,0,2,,,,,,,10,0,10,1,,,,,,,,,,,1807.9184,1808.2515,1808.2524,1815.1515,space,6.5685,0.0003,1815.1515,76,21,1816.1434,1816.1435,1818.781,space,2.2641,0.0002,0,33,33,33,1,115,170,,,,,,,,
,,6145f19d669f7dfef751d076,65af55b48ebdf7e17d6d5749,2024-01-23_08h13.33.304,bars,2023.2.3,Win32,3.158559697,657b66ea316d21385b68909f,,,,,,,,,,,1818.7817,1819.8153,,,1820.1631,1820.164,,51,51,,,,,,,,,,,,,,,,bars/000.png,bars/mask005.png,,,,,,,,,,,,6,1,,,,,,,8,2,9,2,,,,,,,,,,,1819.8153,1820.163,1820.1641,1826.3608,space,5.8519,0.0002,1826.3609,11,86,1827.1316,1827.1316,1830.3875,space,2.8537,0.0006,0,34,34,34,1,40,145,,,,,,,,
,,6145f19d669f7dfef751d076,65af55b48ebdf7e17d6d5749,2024-01-23_08h13.33.304,bars,2023.2.3,Win32,3.158559697,657b66ea316d21385b68909f,,,,,,,,,,,1830.3885,1831.1252,,,1831.5094,1831.5107,,25,25,,,,,,,,,,,,,,,,bars/045.png,bars/mask002.png,,,,,,,,,,,,3,2,,,,,,,10,4,10,5,,,,,,,,,,,1831.1252,1831.5094,1831.5107,1833.4188,space,1.5313,,1833.4188,75,15,1834.1799,1834.18,1834.9796,space,0.414,0.0004,0,35,35,35,1,100,10,,,,,,,,
,,6145f19d669f7dfef751d076,65af55b48ebdf7e17d6d5749,2024-01-23_08h13.33.304,bars,2023.2.3,Win32,3.158559697,657b66ea316d21385b68909f,,,,,,,,,,,1834.9804,1835.7093,,,1836.1101,1836.1109,,30,30,,,,,,,,,,,,,,,,bars/011.png,bars/mask004.png,,,,,,,,,,,,0,1,,,,,,,8,6,7,5,,,,,,,,,,,1835.7093,1836.1101,1836.111,1843.3508,space,6.827,0.0003,1843.3509,50,55,1844.1575,1844.1575,1844.613,space,0.0152,,0,36,36,36,1,160,85,,,,,,,,
,,6145f19d669f7dfef751d076,65af55b48ebdf7e17d6d5749,2024-01-23_08h13.33.304,bars,2023.2.3,Win32,3.158559697,657b66ea316d21385b68909f,,,,,,,,,,,1844.6137,1845.4095,,,1845.8287,1845.8298,,132,132,,,,,,,,,,,,,,,,bars/034.png,bars/mask006.png,,,,,,,,,,,,5,1,,,,,,,6,8,7,9,,,,,,,,,,,1845.4096,1845.8286,1845.8299,1854.1672,space,7.9612,0.0007,1854.1672,7,67,1855.1992,1855.1993,1857.9553,space,2.3901,0.0002,0,37,37,37,1,125,65,,,,,,,,
,,6145f19d669f7dfef751d076,65af55b48ebdf7e17d6d5749,2024-01-23_08h13.33.304,bars,2023.2.3,Win32,3.158559697,657b66ea316d21385b68909f,,,,,,,,,,,1857.9561,1858.8792,,,1859.1957,1859.5109,,18,18,,,,,,,,,,,,,,,,bars/025.png,bars/mask000.png,,,,,,,,,,,,2,2,,,,,,,8,6,8,7,,,,,,,,,,,1858.8793,1859.1956,1859.5109,1874.4375,space,14.6112,0.0003,1874.4375,87,22,1875.4115,1875.4115,1876.1448,space,0.3858,,0,38,38,38,1,105,40,,,,,,,,
,,6145f19d669f7dfef751d076,65af55b48ebdf7e17d6d5749,2024-01-23_08h13.33.304,bars,2023.2.3,Win32,3.158559697,657b66ea316d21385b68909f,,,,,,,,,,,1876.1458,1877.1802,,,1877.5347,1877.5362,,29,29,,,,,,,,,,,,,,,,bars/012.png,bars/mask005.png,,,,,,,,,,,,2,2,,,,,,,10,4,9,3,,,,,,,,,,,1877.1803,1877.5346,1877.5363,1894.6971,space,16.8104,,1894.6971,61,14,1895.4376,1895.4376,1897.6268,space,1.7849,,0,39,39,39,1,90,15,,,,,,,,
,,6145f19d669f7dfef751d076,65af55b48ebdf7e17d6d5749,2024-01-23_08h13.33.304,bars,2023.2.3,Win32,3.158559697,657b66ea316d21385b68909f,,,,,,,,,,,1897.6274,1898.61,,,1898.9512,1899.2851,,91,91,,,,,,,,,,,,,,,,bars/038.png,bars/mask002.png,,,,,,,,,,,,1,2,,,,,,,10,2,10,3,,,,,,,,,,,1898.6101,1898.9511,1899.2852,1913.9576,space,14.3468,0.0003,1913.9576,74,21,1914.9977,1914.9977,1919.3584,space,3.994,0.0003,0,40,40,40,1,165,70,,,,,,,,
,,6145f19d669f7dfef751d076,65af55b48ebdf7e17d6d5749,2024-01-23_08h13.33.304,bars,2023.2.3,Win32,3.158559697,657b66ea316d21385b68909f,,,,,,,,,,,1919.3725,1920.4644,,,1920.8488,1920.85,,170,170,,,,,,,,,,,,,,,,bars/028.png,bars/mask003.png,,,,,,,,,,,,0,2,,,,,,,10,0,10,0,,,,,,,,,,,1920.4645,1920.8488,1920.85,1930.5871,space,9.3567,,1930.5871,55,50,1931.5572,1931.5572,1935.1233,space,3.2083,,0,41,41,41,1,45,120,,,,,,,,
,,6145f19d669f7dfef751d076,65af55b48ebdf7e17d6d5749,2024-01-23_08h13.33.304,bars,2023.2.3,Win32,3.158559697,657b66ea316d21385b68909f,,,,,,,,,,,1935.1247,1936.1002,,,1936.4546,1936.4556,,15,195,,,,,,,,,,,,,,,,bars/014.png,bars/mask004.png,,,,,,,,,,,,1,2,,,,,,,10,2,10,2,,,,,,,,,,,1936.1003,1936.4545,1936.4556,1947.4663,space,10.6636,0.0003,1947.4663,65,15,1948.2243,1948.2243,1951.882,space,3.2652,0.0003,0,42,42,42,1,80,0,,,,,,,,
,,6145f19d669f7dfef751d076,65af55b48ebdf7e17d6d5749,2024-01-23_08h13.33.304,bars,2023.2.3,Win32,3.158559697,657b66ea316d21385b68909f,,,,,,,,,,,1951.8958,1952.6207,,,1953.021,1953.0219,,53,53,,,,,,,,,,,,,,,,bars/017.png,bars/mask008.png,,,,,,,,,,,,0,2,,,,,,,8,0,8,0,,,,,,,,,,,1952.6207,1953.021,1953.0219,1972.9988,space,19.6136,0.0002,1972.999,88,8,1973.9006,1973.9006,1977.542,space,3.3246,,0,43,43,43,1,145,45,,,,,,,,
,,6145f19d669f7dfef751d076,65af55b48ebdf7e17d6d5749,2024-01-23_08h13.33.304,bars,2023.2.3,Win32,3.158559697,657b66ea316d21385b68909f,,,,,,,,,,,1977.5429,1978.483,,,1978.8101,1979.1598,,116,116,,,,,,,,,,,,,,,,bars/031.png,bars/mask008.png,,,,,,,,,,,,5,1,,,,,,,6,0,6,0,,,,,,,,,,,1978.483,1978.81,1979.1598,2002.5574,space,23.0827,0.0003,2002.5575,4,81,2003.5777,2003.5778,2008.2459,space,4.2959,,0,44,44,44,1,120,35,,,,,,,,
,,6145f19d669f7dfef751d076,65af55b48ebdf7e17d6d5749,2024-01-23_08h13.33.304,bars,2023.2.3,Win32,3.158559697,657b66ea316d21385b68909f,,,,,,,,,,,2008.2468,2008.9791,,,2009.3767,2009.3778,,131,131,,,,,,,,,,,,,,,,bars/032.png,bars/mask001.png,,,,,,,,,,,,3,1,,,,,,,4,0,4,0,,,,,,,,,,,2008.9797,2009.3766,2009.3779,2019.3879,space,9.6395,0.0003,2019.388,6,69,2020.1971,2020.1971,2024.9651,space,4.3413,0.0003,0,45,45,45,1,125,20,,,,,,,,
,,6145f19d669f7dfef751d076,65af55b48ebdf7e17d6d5749,2024-01-23_08h13.33.304,bars,2023.2.3,Win32,3.158559697,657b66ea316d21385b68909f,,,,,,,,,,,2024.9802,2025.7608,,,2026.1456,2026.1467,,145,145,,,,,,,,,,,,,,,,bars/040.png,bars/mask000.png,,,,,,,,,,,,3,1,,,,,,,6,2,4,2,,,,,,,,,,,2025.7609,2026.1455,2026.1467,2032.5925,space,6.1002,0.0003,2032.5926,5,40,2033.6239,2033.6239,2036.8965,space,2.8978,0.0004,0,46,46,46,1,140,5,,,,,,,,
,,6145f19d669f7dfef751d076,65af55b48ebdf7e17d6d5749,2024-01-23_08h13.33.304,bars,2023.2.3,Win32,3.158559697,657b66ea316d21385b68909f,,,,,,,,,,,2036.9082,2037.8415,,,2038.1562,2038.4725,,119,119,,,,,,,,,,,,,,,,bars/027.png,bars/mask008.png,,,,,,,,,,,,3,1,,,,,,,4,4,4,4,,,,,,,,,,,2037.8415,2038.1562,2038.4725,2047.263,space,8.4715,0.0003,2047.2631,9,69,2048.2319,2048.2319,2050.3504,space,1.7721,,0,47,47,47,1,110,50,,,,,,,,
,,6145f19d669f7dfef751d076,65af55b48ebdf7e17d6d5749,2024-01-23_08h13.33.304,bars,2023.2.3,Win32,3.158559697,657b66ea316d21385b68909f,,,,,,,,,,,2050.3513,2051.3202,,,2051.6517,2051.9914,,116,116,,,,,,,,,,,,,,,,bars/031.png,bars/mask001.png,,,,,,,,,,,,6,1,,,,,,,6,6,7,5,,,,,,,,,,,2051.3203,2051.6517,2051.9914,2058.6076,space,6.2909,0.0003,2058.6077,4,81,2059.6337,2059.6338,2066.0263,space,6.0203,0.0004,0,48,48,48,1,120,35,,,,,,,,
,,6145f19d669f7dfef751d076,65af55b48ebdf7e17d6d5749,2024-01-23_08h13.33.304,bars,2023.2.3,Win32,3.158559697,657b66ea316d21385b68909f,,,,,,,,,,,2066.041,2067.1328,,,2067.5116,2067.5124,,126,126,,,,,,,,,,,,,,,,bars/016.png,bars/mask000.png,,,,,,,,,,,,0,2,,,,,,,8,8,9,8,,,,,,,,,,,2067.1329,2067.5115,2067.5125,2080.6245,space,12.7331,,2080.6245,86,39,2081.4339,2081.434,2089.7174,space,7.8449,,0,49,49,49,1,40,165,,,,,,,,
,,6145f19d669f7dfef751d076,65af55b48ebdf7e17d6d5749,2024-01-23_08h13.33.304,bars,2023.2.3,Win32,3.158559697,657b66ea316d21385b68909f,,,,,,,,,,,,,,,,,,,,,,,,,,,,,,,,,,,,,,,,,,,,,,,,,,,,,,,,,,,,,,,,,,,,,,,,,,,,,,,,,,,,,,,,,,,,,2089.7181,2149.4611,0,0,0,0,1,sequence_tables/blk034.csv
,,6145f19d669f7dfef751d076,65af55b48ebdf7e17d6d5749,2024-01-23_08h13.33.304,bars,2023.2.3,Win32,3.158559697,657b66ea316d21385b68909f,,,,,,,,,,,2181.9649,2182.9862,,,2183.3358,2183.3369,,63,63,,,,,,,,,,,,,,,,bars/025.png,bars/mask008.png,,,,,,,,,,,,2,2,,,,,,,5,7,6,8,,,,,,2149.4755,2181.9449,space,32.1325,0.0003,2182.9863,2183.3358,2183.3369,2194.5091,space,10.8456,0.0003,2194.5091,42,23,2195.2507,2195.2508,2195.2646,,,,0,0,0,0,1,105,40,,,,,,,,
,,6145f19d669f7dfef751d076,65af55b48ebdf7e17d6d5749,2024-01-23_08h13.33.304,bars,2023.2.3,Win32,3.158559697,657b66ea316d21385b68909f,,,,,,,,,,,2195.2655,2195.9958,,,2196.4057,2196.4067,,90,90,,,,,,,,,,,,,,,,bars/007.png,bars/mask000.png,,,,,,,,,,,,0,2,,,,,,,7,9,5,8,,,,,,,,,,,2195.9958,2196.4056,2196.4067,2229.9286,space,33.1296,,2229.9287,85,35,2230.9045,2230.9046,2230.9176,,,,0,1,1,1,1,175,55,,,,,,,,
,,6145f19d669f7dfef751d076,65af55b48ebdf7e17d6d5749,2024-01-23_08h13.33.304,bars,2023.2.3,Win32,3.158559697,657b66ea316d21385b68909f,,,,,,,,,,,2230.9179,2231.8792,,,2232.2125,2232.5463,,146,146,,,,,,,,,,,,,,,,bars/010.png,bars/mask001.png,,,,,,,,,,,,1,1,,,,,,,5,10,4,10,,,,,,,,,,,2231.8792,2232.2125,2232.5464,2242.3999,space,9.5369,,2242.4,19,89,2243.4189,2243.4189,2243.4336,,,,0,2,2,2,1,165,55,,,,,,,,
,,6145f19d669f7dfef751d076,65af55b48ebdf7e17d6d5749,2024-01-23_08h13.33.304,bars,2023.2.3,Win32,3.158559697,657b66ea316d21385b68909f,,,,,,,,,,,2243.434,2244.4523,,,2244.8166,2244.8178,,19,199,,,,,,,,,,,,,,,,bars/019.png,bars/mask006.png,,,,,,,,,,,,0,1,,,,,,,3,10,2,9,,,,,,,,,,,2244.4524,2244.8166,2244.8178,2259.695,space,14.5469,0.0008,2259.695,26,86,2260.4959,2260.4959,2260.5114,,,,0,3,3,3,1,45,105,,,,,,,,
,,6145f19d669f7dfef751d076,65af55b48ebdf7e17d6d5749,2024-01-23_08h13.33.304,bars,2023.2.3,Win32,3.158559697,657b66ea316d21385b68909f,,,,,,,,,,,2260.5118,2261.2991,,,2261.7073,2261.708,,85,85,,,,,,,,,,,,,,,,bars/039.png,bars/mask007.png,,,,,,,,,,,,3,2,,,,,,,1,10,0,10,,,,,,,,,,,2261.2992,2261.7072,2261.7081,2267.5319,space,5.4312,0.0002,2267.5319,90,20,2268.5652,2268.5652,2268.5796,,,,0,4,4,4,1,175,105,,,,,,,,
,,6145f19d669f7dfef751d076,65af55b48ebdf7e17d6d5749,2024-01-23_08h13.33.304,bars,2023.2.3,Win32,3.158559697,657b66ea316d21385b68909f,,,,,,,,,,,2268.58,2269.6026,,,2269.9669,2269.9681,,102,102,,,,,,,,,,,,,,,,bars/049.png,bars/mask004.png,,,,,,,,,,,,6,2,,,,,,,0,10,1,10,,,,,,,,,,,2269.6027,2269.9668,2269.9681,2286.3473,space,16.0184,0.0003,2286.3473,58,13,2287.3259,2287.326,2287.3384,,,,0,5,5,5,1,160,115,,,,,,,,
,,6145f19d669f7dfef751d076,65af55b48ebdf7e17d6d5749,2024-01-23_08h13.33.304,bars,2023.2.3,Win32,3.158559697,657b66ea316d21385b68909f,,,,,,,,,,,2287.3389,2288.3074,,,2288.6411,2288.979,,114,114,,,,,,,,,,,,,,,,bars/032.png,bars/mask009.png,,,,,,,,,,,,1,1,,,,,,,2,8,1,10,,,,,,,,,,,2288.3074,2288.6411,2288.9791,2301.6063,space,12.305,,2301.6064,11,86,2302.6343,2302.6343,2302.6492,,,,0,6,6,6,1,125,20,,,,,,,,
,,6145f19d669f7dfef751d076,65af55b48ebdf7e17d6d5749,2024-01-23_08h13.33.304,bars,2023.2.3,Win32,3.158559697,657b66ea316d21385b68909f,,,,,,,,,,,2302.6496,2303.6799,,,2304.0397,2304.041,,65,65,,,,,,,,,,,,,,,,bars/036.png,bars/mask004.png,,,,,,,,,,,,0,2,,,,,,,0,6,0,5,,,,,,,,,,,2303.6799,2304.0396,2304.0411,2311.7342,space,7.362,0.0002,2311.7343,80,45,2312.5056,2312.5057,2312.5215,,,,0,7,7,7,1,145,20,,,,,,,,
,,6145f19d669f7dfef751d076,65af55b48ebdf7e17d6d5749,2024-01-23_08h13.33.304,bars,2023.2.3,Win32,3.158559697,657b66ea316d21385b68909f,,,,,,,,,,,2312.5219,2313.2555,,,2313.6324,2313.6333,,103,103,,,,,,,,,,,,,,,,bars/016.png,bars/mask009.png,,,,,,,,,,,,0,2,,,,,,,0,8,1,7,,,,,,,,,,,2313.2555,2313.6324,2313.6333,2339.907,space,25.916,0.0004,2339.9071,63,62,2340.8388,2340.839,2340.8518,,,,0,8,8,8,1,40,165,,,,,,,,
,,6145f19d669f7dfef751d076,65af55b48ebdf7e17d6d5749,2024-01-23_08h13.33.304,bars,2023.2.3,Win32,3.158559697,657b66ea316d21385b68909f,,,,,,,,,,,2340.852,2341.7685,,,2342.09,2342.4083,,165,165,,,,,,,,,,,,,,,,bars/045.png,bars/mask003.png,,,,,,,,,,,,1,2,,,,,,,0,6,0,5,,,,,,,,,,,2341.7685,2342.09,2342.4083,2346.4717,space,3.7629,0.0003,2346.4717,65,25,2347.4526,2347.4526,2347.4656,,,,0,9,9,9,1,100,10,,,,,,,,
,,6145f19d669f7dfef751d076,65af55b48ebdf7e17d6d5749,2024-01-23_08h13.33.304,bars,2023.2.3,Win32,3.158559697,657b66ea316d21385b68909f,,,,,,,,,,,2347.4659,2348.4286,,,2348.768,2349.1056,,160,160,,,,,,,,,,,,,,,,bars/003.png,bars/mask009.png,,,,,,,,,,,,3,2,,,,,,,0,8,1,8,,,,,,,,,,,2348.4286,2348.7679,2349.1057,2379.8423,space,30.4157,0.0003,2379.8424,45,20,2380.6284,2380.6284,2380.6439,,,,0,10,10,10,1,25,140,,,,,,,,
,,6145f19d669f7dfef751d076,65af55b48ebdf7e17d6d5749,2024-01-23_08h13.33.304,bars,2023.2.3,Win32,3.158559697,657b66ea316d21385b68909f,,,,,,,,,,,2380.6442,2381.4364,,,2381.8538,2381.8547,,18,18,,,,,,,,,,,,,,,,bars/013.png,bars/mask009.png,,,,,,,,,,,,7,2,,,,,,,0,10,0,10,,,,,,,,,,,2381.4365,2381.8538,2381.8547,2399.7088,space,17.4764,0.0003,2399.7088,57,8,2400.6339,2400.6339,2400.6463,,,,0,11,11,11,1,75,10,,,,,,,,
,,6145f19d669f7dfef751d076,65af55b48ebdf7e17d6d5749,2024-01-23_08h13.33.304,bars,2023.2.3,Win32,3.158559697,657b66ea316d21385b68909f,,,,,,,,,,,2400.6467,2401.5612,,,2401.8837,2402.2003,,144,144,,,,,,,,,,,,,,,,bars/023.png,bars/mask005.png,,,,,,,,,,,,0,2,,,,,,,0,8,0,8,,,,,,,,,,,2401.5612,2401.8837,2402.2003,2423.6763,space,21.172,,2423.6763,56,29,2424.7068,2424.7068,2424.7208,,,,0,12,12,12,1,20,115,,,,,,,,
,,6145f19d669f7dfef751d076,65af55b48ebdf7e17d6d5749,2024-01-23_08h13.33.304,bars,2023.2.3,Win32,3.158559697,657b66ea316d21385b68909f,,,,,,,,,,,2424.7212,2425.7821,,,2426.1335,2426.1347,,171,171,,,,,,,,,,,,,,,,bars/023.png,bars/mask009.png,,,,,,,,,,,,0,1,,,,,,,2,6,2,5,,,,,,,,,,,2425.7821,2426.1335,2426.1347,2438.7403,space,12.2682,0.0004,2438.7403,29,56,2439.5487,2439.5488,2439.5663,,,,0,13,13,13,1,20,115,,,,,,,,
,,6145f19d669f7dfef751d076,65af55b48ebdf7e17d6d5749,2024-01-23_08h13.33.304,bars,2023.2.3,Win32,3.158559697,657b66ea316d21385b68909f,,,,,,,,,,,2439.5666,2440.3929,,,2440.8139,2440.8147,,23,23,,,,,,,,,,,,,,,,bars/036.png,bars/mask009.png,,,,,,,,,,,,7,2,,,,,,,0,8,1,8,,,,,,,,,,,2440.393,2440.8139,2440.8147,2449.0208,space,7.791,0.0004,2449.0208,58,3,2450.0417,2450.0417,2450.0445,,,,0,14,14,14,1,145,20,,,,,,,,
,,6145f19d669f7dfef751d076,65af55b48ebdf7e17d6d5749,2024-01-23_08h13.33.304,bars,2023.2.3,Win32,3.158559697,657b66ea316d21385b68909f,,,,,,,,,,,2450.0451,2451.0669,,,2451.4225,2451.4233,,133,133,,,,,,,,,,,,,,,,bars/013.png,bars/mask002.png,,,,,,,,,,,,0,2,,,,,,,2,10,0,10,,,,,,,,,,,2451.0669,2451.4223,2451.4234,2454.8453,space,3.0937,0.0003,2454.8454,58,57,2455.8726,2455.8727,2455.8849,,,,0,15,15,15,1,75,10,,,,,,,,
,,6145f19d669f7dfef751d076,65af55b48ebdf7e17d6d5749,2024-01-23_08h13.33.304,bars,2023.2.3,Win32,3.158559697,657b66ea316d21385b68909f,,,,,,,,,,,2455.887,2456.8463,,,2457.1606,2457.4797,,33,33,,,,,,,,,,,,,,,,bars/012.png,bars/mask004.png,,,,,,,,,,,,4,2,,,,,,,4,10,2,10,,,,,,,,,,,2456.8463,2457.1605,2457.4797,2490.1242,space,32.3374,0.0003,2490.1243,57,18,2490.8673,2490.8673,2490.8807,,,,0,16,16,16,1,90,15,,,,,,,,
,,6145f19d669f7dfef751d076,65af55b48ebdf7e17d6d5749,2024-01-23_08h13.33.304,bars,2023.2.3,Win32,3.158559697,657b66ea316d21385b68909f,,,,,,,,,,,2490.881,2491.6121,,,2491.9969,2491.9976,,40,40,,,,,,,,,,,,,,,,bars/037.png,bars/mask001.png,,,,,,,,,,,,0,2,,,,,,,2,8,2,9,,,,,,,,,,,2491.6121,2491.9968,2491.9976,2534.6639,space,42.3135,0.0004,2534.664,70,65,2535.639,2535.639,2535.6524,,,,0,17,17,17,1,150,105,,,,,,,,
,,6145f19d669f7dfef751d076,65af55b48ebdf7e17d6d5749,2024-01-23_08h13.33.304,bars,2023.2.3,Win32,3.158559697,657b66ea316d21385b68909f,,,,,,,,,,,2535.6527,2536.6283,,,2536.9855,2537.334,,150,150,,,,,,,,,,,,,,,,bars/037.png,bars/mask004.png,,,,,,,,,,,,0,1,,,,,,,0,6,0,7,,,,,,,,,,,2536.6284,2536.9854,2537.334,2560.7295,space,23.0631,0.0003,2560.7295,0,45,2561.5296,2561.5297,2561.5472,,,,0,18,18,18,1,150,105,,,,,,,,
,,6145f19d669f7dfef751d076,65af55b48ebdf7e17d6d5749,2024-01-23_08h13.33.304,bars,2023.2.3,Win32,3.158559697,657b66ea316d21385b68909f,,,,,,,,,,,2561.5477,2562.353,,,2562.7598,2562.761,,168,168,,,,,,,,,,,,,,,,bars/046.png,bars/mask009.png,,,,,,,,,,,,1,1,,,,,,,0,4,2,3,,,,,,,,,,,2562.3531,2562.7597,2562.761,2592.0106,space,28.8635,0.0003,2592.0107,13,83,2592.9822,2592.9823,2592.9958,,,,0,19,19,19,1,155,85,,,,,,,,
,,6145f19d669f7dfef751d076,65af55b48ebdf7e17d6d5749,2024-01-23_08h13.33.304,bars,2023.2.3,Win32,3.158559697,657b66ea316d21385b68909f,,,,,,,,,,,2592.9963,2593.9839,,,2594.3153,2594.3165,,172,172,,,,,,,,,,,,,,,,bars/019.png,bars/mask005.png,,,,,,,,,,,,0,1,,,,,,,2,2,1,1,,,,,,,,,,,2593.984,2594.3153,2594.3165,2605.7772,space,11.1505,,2605.7773,53,67,2606.8587,2606.8587,2606.8731,,,,0,20,20,20,1,45,105,,,,,,,,
,,6145f19d669f7dfef751d076,65af55b48ebdf7e17d6d5749,2024-01-23_08h13.33.304,bars,2023.2.3,Win32,3.158559697,657b66ea316d21385b68909f,,,,,,,,,,,2606.8734,2607.634,,,2608.0316,2608.033,,120,120,,,,,,,,,,,,,,,,bars/027.png,bars/mask006.png,,,,,,,,,,,,3,1,,,,,,,4,0,4,0,,,,,,,,,,,2607.6341,2608.0316,2608.033,2614.1057,space,5.7157,0.0001,2614.1058,10,70,2614.9012,2614.9012,2614.9022,,,,0,21,21,21,1,110,50,,,,,,,,
,,6145f19d669f7dfef751d076,65af55b48ebdf7e17d6d5749,2024-01-23_08h13.33.304,bars,2023.2.3,Win32,3.158559697,657b66ea316d21385b68909f,,,,,,,,,,,2614.9025,2615.6326,,,2616.0231,2616.0246,,33,33,,,,,,,,,,,,,,,,bars/035.png,bars/mask009.png,,,,,,,,,,,,0,2,,,,,,,2,0,3,0,,,,,,,,,,,2615.6326,2616.023,2616.0246,2641.0037,space,24.6268,0.0002,2641.0038,38,27,2641.9469,2641.9469,2641.9606,,,,0,22,22,22,1,175,60,,,,,,,,
,,6145f19d669f7dfef751d076,65af55b48ebdf7e17d6d5749,2024-01-23_08h13.33.304,bars,2023.2.3,Win32,3.158559697,657b66ea316d21385b68909f,,,,,,,,,,,2641.9613,2642.8749,,,2643.1956,2643.5121,,119,119,,,,,,,,,,,,,,,,bars/013.png,bars/mask008.png,,,,,,,,,,,,0,1,,,,,,,0,0,1,0,,,,,,,,,,,2642.8749,2643.1956,2643.5122,2646.332,space,2.512,,2646.3321,44,71,2647.2994,2647.2996,2647.3025,,,,0,23,23,23,1,75,10,,,,,,,,
,,6145f19d669f7dfef751d076,65af55b48ebdf7e17d6d5749,2024-01-23_08h13.33.304,bars,2023.2.3,Win32,3.158559697,657b66ea316d21385b68909f,,,,,,,,,,,2647.303,2648.2801,,,2648.6151,2648.9573,,92,92,,,,,,,,,,,,,,,,bars/026.png,bars/mask009.png,,,,,,,,,,,,1,2,,,,,,,2,2,2,1,,,,,,,,,,,2648.2801,2648.615,2648.9573,2656.1824,space,6.9115,,2656.1824,57,7,2657.1979,2657.1979,2657.2139,,,,0,24,24,24,1,35,85,,,,,,,,
,,6145f19d669f7dfef751d076,65af55b48ebdf7e17d6d5749,2024-01-23_08h13.33.304,bars,2023.2.3,Win32,3.158559697,657b66ea316d21385b68909f,,,,,,,,,,,2657.2149,2657.921,,,2658.2703,2658.2712,,80,80,,,,,,,,,,,,,,,,bars/006.png,bars/mask000.png,,,,,,,,,,,,0,2,,,,,,,0,0,0,0,,,,,,,,,,,2657.921,2658.2703,2658.2714,2680.226,space,21.6264,,2680.2261,45,20,2681.0352,2681.0352,2681.0506,,,,0,25,25,25,1,35,100,,,,,,,,
,,6145f19d669f7dfef751d076,65af55b48ebdf7e17d6d5749,2024-01-23_08h13.33.304,bars,2023.2.3,Win32,3.158559697,657b66ea316d21385b68909f,,,,,,,,,,,2681.0514,2681.8404,,,2682.248,2682.2491,,93,93,,,,,,,,,,,,,,,,bars/018.png,bars/mask002.png,,,,,,,,,,,,0,2,,,,,,,0,0,0,0,,,,,,,,,,,2681.8404,2682.248,2682.2492,2690.264,space,7.6273,0.0004,2690.264,57,3,2691.2935,2691.2936,2691.3062,,,,0,26,26,26,1,150,90,,,,,,,,
,,6145f19d669f7dfef751d076,65af55b48ebdf7e17d6d5749,2024-01-23_08h13.33.304,bars,2023.2.3,Win32,3.158559697,657b66ea316d21385b68909f,,,,,,,,,,,2691.3065,2692.0223,,,2692.3801,2692.381,,12,12,,,,,,,,,,,,,,,,bars/009.png,bars/mask006.png,,,,,,,,,,,,2,1,,,,,,,2,0,2,1,,,,,,,,,,,2692.0223,2692.3801,2692.381,2694.7758,space,2.0682,0.0001,2694.7759,3,87,2695.8193,2695.8194,2695.8225,,,,0,27,27,27,1,15,105,,,,,,,,
,,6145f19d669f7dfef751d076,65af55b48ebdf7e17d6d5749,2024-01-23_08h13.33.304,bars,2023.2.3,Win32,3.158559697,657b66ea316d21385b68909f,,,,,,,,,,,2695.8232,2696.9156,,,2697.2269,2697.2277,,31,31,,,,,,,,,,,,,,,,bars/016.png,bars/mask006.png,,,,,,,,,,,,1,1,,,,,,,0,2,2,2,,,,,,,,,,,2696.9157,2697.2268,2697.2277,2699.0769,space,1.5563,,2699.0769,9,46,2700.0358,2700.0359,2700.0372,,,,0,28,28,28,1,40,165,,,,,,,,
,,6145f19d669f7dfef751d076,65af55b48ebdf7e17d6d5749,2024-01-23_08h13.33.304,bars,2023.2.3,Win32,3.158559697,657b66ea316d21385b68909f,,,,,,,,,,,2700.0377,2700.9668,,,2701.2835,2701.6025,,153,153,,,,,,,,,,,,,,,,bars/039.png,bars/mask007.png,,,,,,,,,,,,0,1,,,,,,,2,0,1,0,,,,,,,,,,,2700.9668,2701.2835,2701.6025,2703.1495,space,1.2466,,2703.1495,22,48,2704.0812,2704.0813,2704.0927,,,,0,29,29,29,1,175,105,,,,,,,,
,,6145f19d669f7dfef751d076,65af55b48ebdf7e17d6d5749,2024-01-23_08h13.33.304,bars,2023.2.3,Win32,3.158559697,657b66ea316d21385b68909f,,,,,,,,,,,2704.093,2705.0232,,,2705.3391,2705.6574,,162,162,,,,,,,,,,,,,,,,bars/024.png,bars/mask006.png,,,,,,,,,,,,2,2,,,,,,,0,2,1,3,,,,,,,,,,,2705.0232,2705.3391,2705.6574,2706.9198,space,0.9603,,2706.9199,42,8,2707.8856,2707.8857,2707.8884,,,,0,30,30,30,1,120,170,,,,,,,,
,,6145f19d669f7dfef751d076,65af55b48ebdf7e17d6d5749,2024-01-23_08h13.33.304,bars,2023.2.3,Win32,3.158559697,657b66ea316d21385b68909f,,,,,,,,,,,2707.8889,2708.8583,,,2709.193,2709.5273,,120,120,,,,,,,,,,,,,,,,bars/035.png,bars/mask000.png,,,,,,,,,,,,0,1,,,,,,,0,0,0,1,,,,,,,,,,,2708.8584,2709.193,2709.5273,2710.8383,space,0.9976,,2710.8384,55,60,2711.815,2711.815,2711.8175,,,,0,31,31,31,1,175,60,,,,,,,,
,,6145f19d669f7dfef751d076,65af55b48ebdf7e17d6d5749,2024-01-23_08h13.33.304,bars,2023.2.3,Win32,3.158559697,657b66ea316d21385b68909f,,,,,,,,,,,2711.8178,2712.785,,,2713.1189,2713.4515,,66,66,,,,,,,,,,,,,,,,bars/012.png,bars/mask005.png,,,,,,,,,,,,0,1,,,,,,,2,2,2,2,,,,,,,,,,,2712.785,2713.1188,2713.4516,2714.7372,space,0.9769,,2714.7372,24,51,2715.7037,2715.7039,2715.705,,,,0,32,32,32,1,90,15,,,,,,,,
,,6145f19d669f7dfef751d076,65af55b48ebdf7e17d6d5749,2024-01-23_08h13.33.304,bars,2023.2.3,Win32,3.158559697,657b66ea316d21385b68909f,,,,,,,,,,,2715.7055,2716.7046,,,2717.0589,2717.0603,,98,98,,,,,,,,,,,,,,,,bars/004.png,bars/mask003.png,,,,,,,,,,,,1,2,,,,,,,4,4,4,6,,,,,,,,,,,2716.7046,2717.0588,2717.0604,2718.4471,space,1.0311,0.0004,2718.4472,73,27,2719.4808,2719.4809,2719.4837,,,,0,33,33,33,1,25,125,,,,,,,,
,,6145f19d669f7dfef751d076,65af55b48ebdf7e17d6d5749,2024-01-23_08h13.33.304,bars,2023.2.3,Win32,3.158559697,657b66ea316d21385b68909f,,,,,,,,,,,2719.4842,2720.5159,,,2720.8709,2720.8721,,97,97,,,,,,,,,,,,,,,,bars/025.png,bars/mask006.png,,,,,,,,,,,,5,1,,,,,,,6,2,7,2,,,,,,,,,,,2720.5159,2720.8708,2720.8721,2722.2518,space,1.0453,,2722.2518,8,57,2723.274,2723.274,2723.2769,,,,0,34,34,34,1,105,40,,,,,,,,
,,6145f19d669f7dfef751d076,65af55b48ebdf7e17d6d5749,2024-01-23_08h13.33.304,bars,2023.2.3,Win32,3.158559697,657b66ea316d21385b68909f,,,,,,,,,,,2723.2775,2724.2963,,,2724.6483,2724.6494,,81,81,,,,,,,,,,,,,,,,bars/035.png,bars/mask002.png,,,,,,,,,,,,1,2,,,,,,,4,4,4,4,,,,,,,,,,,2724.2964,2724.6482,2724.6494,2726.0377,space,1.056,,2726.0378,86,21,2727.0942,2727.0942,2727.0972,,,,0,35,35,35,1,175,60,,,,,,,,
,,6145f19d669f7dfef751d076,65af55b48ebdf7e17d6d5749,2024-01-23_08h13.33.304,bars,2023.2.3,Win32,3.158559697,657b66ea316d21385b68909f,,,,,,,,,,,2727.0978,2728.1971,,,2728.5799,2728.581,,126,126,,,,,,,,,,,,,,,,bars/012.png,bars/mask009.png,,,,,,,,,,,,0,1,,,,,,,2,6,3,5,,,,,,,,,,,2728.1971,2728.5798,2728.5811,2728.9627,space,0.0111,,2728.9629,36,69,2729.7005,2729.7005,2729.7034,,,,0,36,36,36,1,90,15,,,,,,,,
,,6145f19d669f7dfef751d076,65af55b48ebdf7e17d6d5749,2024-01-23_08h13.33.304,bars,2023.2.3,Win32,3.158559697,657b66ea316d21385b68909f,,,,,,,,,,,2729.7043,2730.4395,,,2730.824,2730.825,,56,56,,,,,,,,,,,,,,,,bars/026.png,bars/mask000.png,,,,,,,,,,,,1,1,,,,,,,4,8,4,7,,,,,,,,,,,2730.4396,2730.8239,2730.825,2731.5599,space,0.3795,,2731.5601,21,29,2732.3053,2732.3054,2732.3066,,,,0,37,37,37,1,35,85,,,,,,,,
,,6145f19d669f7dfef751d076,65af55b48ebdf7e17d6d5749,2024-01-23_08h13.33.304,bars,2023.2.3,Win32,3.158559697,657b66ea316d21385b68909f,,,,,,,,,,,2732.3071,2733.0488,,,2733.4243,2733.4258,,2,2,,,,,,,,,,,,,,,,bars/033.png,bars/mask006.png,,,,,,,,,,,,2,1,,,,,,,6,10,7,10,,,,,,,,,,,2733.0488,2733.4243,2733.4258,2734.5387,space,0.7535,,2734.5388,23,27,2735.2774,2735.2775,2735.2787,,,,0,38,38,38,1,25,155,,,,,,,,
,,6145f19d669f7dfef751d076,65af55b48ebdf7e17d6d5749,2024-01-23_08h13.33.304,bars,2023.2.3,Win32,3.158559697,657b66ea316d21385b68909f,,,,,,,,,,,2735.2792,2736.0185,,,2736.3926,2736.3937,,44,44,,,,,,,,,,,,,,,,bars/015.png,bars/mask005.png,,,,,,,,,,,,0,2,,,,,,,8,8,8,8,,,,,,,,,,,2736.0185,2736.3926,2736.3937,2737.1831,space,0.4135,,2737.1833,66,64,2737.9818,2737.9819,2737.9851,,,,0,39,39,39,1,110,160,,,,,,,,
,,6145f19d669f7dfef751d076,65af55b48ebdf7e17d6d5749,2024-01-23_08h13.33.304,bars,2023.2.3,Win32,3.158559697,657b66ea316d21385b68909f,,,,,,,,,,,2737.9857,2738.7665,,,2739.1805,2739.1816,,6,6,,,,,,,,,,,,,,,,bars/023.png,bars/mask006.png,,,,,,,,,,,,5,1,,,,,,,10,6,10,5,,,,,,,,,,,2738.7665,2739.1804,2739.1817,2740.3777,space,0.8117,,2740.3777,14,71,2741.2062,2741.2063,2741.2095,,,,0,40,40,40,1,20,115,,,,,,,,
,,6145f19d669f7dfef751d076,65af55b48ebdf7e17d6d5749,2024-01-23_08h13.33.304,bars,2023.2.3,Win32,3.158559697,657b66ea316d21385b68909f,,,,,,,,,,,2741.2111,2742.0004,,,2742.4076,2742.4087,,51,51,,,,,,,,,,,,,,,,bars/005.png,bars/mask003.png,,,,,,,,,,,,0,1,,,,,,,8,8,7,7,,,,,,,,,,,2742.0004,2742.4076,2742.4088,2743.2073,space,0.4054,,2743.2073,41,89,2744.0136,2744.0137,2744.0148,,,,0,41,41,41,1,10,140,,,,,,,,
,,6145f19d669f7dfef751d076,65af55b48ebdf7e17d6d5749,2024-01-23_08h13.33.304,bars,2023.2.3,Win32,3.158559697,657b66ea316d21385b68909f,,,,,,,,,,,2744.0154,2744.8207,,,2745.2238,2745.2249,,72,72,,,,,,,,,,,,,,,,bars/016.png,bars/mask002.png,,,,,,,,,,,,0,1,,,,,,,10,10,10,10,,,,,,,,,,,2744.8208,2745.2238,2745.2249,2747.1206,space,1.5161,,2747.1208,32,87,2748.1504,2748.1505,2748.1516,,,,0,42,42,42,1,40,165,,,,,,,,
,,6145f19d669f7dfef751d076,65af55b48ebdf7e17d6d5749,2024-01-23_08h13.33.304,bars,2023.2.3,Win32,3.158559697,657b66ea316d21385b68909f,,,,,,,,,,,2748.1521,2749.1936,,,2749.547,2749.5481,,34,34,,,,,,,,,,,,,,,,bars/008.png,bars/mask005.png,,,,,,,,,,,,0,2,,,,,,,10,10,9,10,,,,,,,,,,,2749.1936,2749.547,2749.5481,2750.2332,space,0.3531,,2750.2333,76,34,2751.2583,2751.2584,2751.2663,,,,0,43,43,43,1,110,0,,,,,,,,
,,6145f19d669f7dfef751d076,65af55b48ebdf7e17d6d5749,2024-01-23_08h13.33.304,bars,2023.2.3,Win32,3.158559697,657b66ea316d21385b68909f,,,,,,,,,,,2751.267,2752.2921,,,2752.6474,2752.6484,,106,106,,,,,,,,,,,,,,,,bars/035.png,bars/mask000.png,,,,,,,,,,,,0,2,,,,,,,10,10,10,10,,,,,,,,,,,2752.2922,2752.6473,2752.6484,2754.3844,space,1.3965,0.0003,2754.3845,69,46,2755.4178,2755.4179,2755.4191,,,,0,44,44,44,1,175,60,,,,,,,,
,,6145f19d669f7dfef751d076,65af55b48ebdf7e17d6d5749,2024-01-23_08h13.33.304,bars,2023.2.3,Win32,3.158559697,657b66ea316d21385b68909f,,,,,,,,,,,2755.4198,2756.451,,,2756.8008,2756.8019,,20,20,,,,,,,,,,,,,,,,bars/048.png,bars/mask006.png,,,,,,,,,,,,1,2,,,,,,,10,8,10,6,,,,,,,,,,,2756.4511,2756.8008,2756.802,2758.7049,space,1.6071,,2758.705,30,25,2759.6596,2759.6596,2759.6606,,,,0,45,45,45,1,50,175,,,,,,,,
,,6145f19d669f7dfef751d076,65af55b48ebdf7e17d6d5749,2024-01-23_08h13.33.304,bars,2023.2.3,Win32,3.158559697,657b66ea316d21385b68909f,,,,,,,,,,,2759.6608,2760.6376,,,2760.9802,2760.9809,,53,53,,,,,,,,,,,,,,,,bars/000.png,bars/mask001.png,,,,,,,,,,,,3,1,,,,,,,8,6,6,6,,,,,,,,,,,2760.6376,2760.9801,2760.9809,2762.5782,space,1.2904,0.0002,2762.5783,13,88,2763.5356,2763.5356,2763.5381,,,,0,46,46,46,1,40,145,,,,,,,,
,,6145f19d669f7dfef751d076,65af55b48ebdf7e17d6d5749,2024-01-23_08h13.33.304,bars,2023.2.3,Win32,3.158559697,657b66ea316d21385b68909f,,,,,,,,,,,2763.5383,2764.486,,,2764.8227,2765.1477,,76,76,,,,,,,,,,,,,,,,bars/005.png,bars/mask002.png,,,,,,,,,,,,0,2,,,,,,,10,4,10,4,,,,,,,,,,,2764.486,2764.8226,2765.1479,2766.4056,space,0.9551,,2766.4057,66,64,2767.3867,2767.3868,2767.3894,,,,0,47,47,47,1,10,140,,,,,,,,
,,6145f19d669f7dfef751d076,65af55b48ebdf7e17d6d5749,2024-01-23_08h13.33.304,bars,2023.2.3,Win32,3.158559697,657b66ea316d21385b68909f,,,,,,,,,,,2767.3896,2768.3684,,,2768.709,2769.0565,,97,97,,,,,,,,,,,,,,,,bars/003.png,bars/mask006.png,,,,,,,,,,,,0,2,,,,,,,8,2,7,2,,,,,,,,,,,2768.3685,2768.7089,2769.0566,2770.6928,space,1.3191,,2770.693,72,43,2771.6828,2771.6828,2771.6839,,,,0,48,48,48,1,25,140,,,,,,,,
,,6145f19d669f7dfef751d076,65af55b48ebdf7e17d6d5749,2024-01-23_08h13.33.304,bars,2023.2.3,Win32,3.158559697,657b66ea316d21385b68909f,,,,,,,,,,,2771.6844,2772.6951,,,2773.0376,2773.0386,,163,163,,,,,,,,,,,,,,,,bars/024.png,bars/mask002.png,,,,,,,,,,,,0,2,,,,,,,10,0,10,0,,,,,,,,,,,2772.6951,2773.0375,2773.0386,2774.3567,space,1.0011,,2774.3568,43,7,2775.3429,2775.343,2775.3439,,,,0,49,49,49,1,120,170,,,,,,,,
,,6145f19d669f7dfef751d076,65af55b48ebdf7e17d6d5749,2024-01-23_08h13.33.304,bars,2023.2.3,Win32,3.158559697,657b66ea316d21385b68909f,,,,,,,,,,,,,,,,,,,,,,,,,,,,,,,,,,,,,,,,,,,,,,,,,,,,,,,,,,,,,,,,,,,,,,,,,,,,,,,,,,,,,,,,,,,,,2775.344,2835.3234,0,1,1,4,1,sequence_tables/blk002.csv
,,6145f19d669f7dfef751d076,65af55b48ebdf7e17d6d5749,2024-01-23_08h13.33.304,bars,2023.2.3,Win32,3.158559697,657b66ea316d21385b68909f,,,,,,,,,,,2849.4313,2850.2163,,,2850.6102,2850.6115,,177,177,,,,,,,,,,,,,,,,bars/038.png,bars/mask001.png,,,,,,,,,,,,2,1,,,,,,,3,6,4,7,,,,,,2835.3372,2849.4066,space,13.754,0.0003,2850.2164,2850.6102,2850.6115,2853.3937,space,2.3967,,2853.3937,12,73,2854.2351,2854.2351,2854.2387,,,,0,0,0,0,1,165,70,,,,,,,,
,,6145f19d669f7dfef751d076,65af55b48ebdf7e17d6d5749,2024-01-23_08h13.33.304,bars,2023.2.3,Win32,3.158559697,657b66ea316d21385b68909f,,,,,,,,,,,2854.2393,2855.0498,,,2855.5149,2855.5161,,141,141,,,,,,,,,,,,,,,,bars/042.png,bars/mask005.png,,,,,,,,,,,,3,1,,,,,,,5,8,3,7,,,,,,,,,,,2855.0499,2855.5149,2855.5161,2857.5025,space,1.6129,0.0003,2857.5025,4,66,2858.3041,2858.3041,2858.3054,,,,0,1,1,1,1,145,75,,,,,,,,
,,6145f19d669f7dfef751d076,65af55b48ebdf7e17d6d5749,2024-01-23_08h13.33.304,bars,2023.2.3,Win32,3.158559697,657b66ea316d21385b68909f,,,,,,,,,,,2858.3059,2859.1309,,,2859.557,2859.5579,,87,87,,,,,,,,,,,,,,,,bars/014.png,bars/mask007.png,,,,,,,,,,,,6,1,,,,,,,7,10,8,10,,,,,,,,,,,2859.1309,2859.557,2859.5579,2860.8101,space,0.8358,,2860.8101,7,87,2861.6118,2861.6119,2861.6138,,,,0,2,2,2,1,80,0,,,,,,,,
,,6145f19d669f7dfef751d076,65af55b48ebdf7e17d6d5749,2024-01-23_08h13.33.304,bars,2023.2.3,Win32,3.158559697,657b66ea316d21385b68909f,,,,,,,,,,,2861.6142,2862.4123,,,2862.8353,2862.837,,148,148,,,,,,,,,,,,,,,,bars/049.png,bars/mask003.png,,,,,,,,,,,,3,1,,,,,,,5,10,5,10,,,,,,,,,,,2862.4123,2862.8353,2862.8371,2864.4421,space,1.2183,,2864.4422,12,33,2865.2698,2865.2698,2865.271,,,,0,3,3,3,1,160,115,,,,,,,,
,,6145f19d669f7dfef751d076,65af55b48ebdf7e17d6d5749,2024-01-23_08h13.33.304,bars,2023.2.3,Win32,3.158559697,657b66ea316d21385b68909f,,,,,,,,,,,2865.2715,2866.0899,,,2866.5233,2866.5245,,65,65,,,,,,,,,,,,,,,,bars/008.png,bars/mask008.png,,,,,,,,,,,,0,1,,,,,,,3,10,2,8,,,,,,,,,,,2866.09,2866.5232,2866.5245,2868.7837,space,1.8285,,2868.7837,45,65,2869.7007,2869.7008,2869.7021,,,,0,4,4,4,1,110,0,,,,,,,,
,,6145f19d669f7dfef751d076,65af55b48ebdf7e17d6d5749,2024-01-23_08h13.33.304,bars,2023.2.3,Win32,3.158559697,657b66ea316d21385b68909f,,,,,,,,,,,2869.7047,2870.6035,,,2871.0743,2871.075,,90,90,,,,,,,,,,,,,,,,bars/007.png,bars/mask004.png,,,,,,,,,,,,0,2,,,,,,,1,10,1,9,,,,,,,,,,,2870.6035,2871.0742,2871.0751,2872.9238,space,1.4161,0.0004,2872.9238,85,35,2873.8969,2873.897,2873.9001,,,,0,5,5,5,1,175,55,,,,,,,,
,,6145f19d669f7dfef751d076,65af55b48ebdf7e17d6d5749,2024-01-23_08h13.33.304,bars,2023.2.3,Win32,3.158559697,657b66ea316d21385b68909f,,,,,,,,,,,2873.9008,2874.8666,,,2875.3278,2875.3289,,54,54,,,,,,,,,,,,,,,,bars/044.png,bars/mask000.png,,,,,,,,,,,,0,1,,,,,,,3,10,1,10,,,,,,,,,,,2874.8667,2875.3277,2875.329,2877.4634,space,1.7045,,2877.4634,21,79,2878.2404,2878.2405,2878.2459,,,,0,6,6,6,1,75,155,,,,,,,,
,,6145f19d669f7dfef751d076,65af55b48ebdf7e17d6d5749,2024-01-23_08h13.33.304,bars,2023.2.3,Win32,3.158559697,657b66ea316d21385b68909f,,,,,,,,,,,2878.2467,2879.0172,,,2879.4501,2879.4514,,144,144,,,,,,,,,,,,,,,,bars/018.png,bars/mask007.png,,,,,,,,,,,,4,1,,,,,,,5,10,5,10,,,,,,,,,,,2879.0174,2879.4501,2879.4516,2881.4633,space,1.6093,,2881.4633,6,54,2882.2706,2882.2706,2882.2718,,,,0,7,7,7,1,150,90,,,,,,,,
,,6145f19d669f7dfef751d076,65af55b48ebdf7e17d6d5749,2024-01-23_08h13.33.304,bars,2023.2.3,Win32,3.158559697,657b66ea316d21385b68909f,,,,,,,,,,,2882.2723,2883.0623,,,2883.4606,2883.4615,,31,31,,,,,,,,,,,,,,,,bars/038.png,bars/mask000.png,,,,,,,,,,,,0,2,,,,,,,7,8,7,9,,,,,,,,,,,2883.0623,2883.4606,2883.4616,2885.1823,space,1.2942,,2885.1823,46,39,2886.0001,2886.0001,2886.0031,,,,0,8,8,8,1,165,70,,,,,,,,
,,6145f19d669f7dfef751d076,65af55b48ebdf7e17d6d5749,2024-01-23_08h13.33.304,bars,2023.2.3,Win32,3.158559697,657b66ea316d21385b68909f,,,,,,,,,,,2886.0037,2886.8213,,,2887.191,2887.1919,,38,38,,,,,,,,,,,,,,,,bars/023.png,bars/mask008.png,,,,,,,,,,,,3,1,,,,,,,5,6,7,5,,,,,,,,,,,2886.8214,2887.1909,2887.1919,2889.2526,space,1.7418,,2889.2527,18,77,2889.9992,2889.9992,2890.0019,,,,0,9,9,9,1,20,115,,,,,,,,
,,6145f19d669f7dfef751d076,65af55b48ebdf7e17d6d5749,2024-01-23_08h13.33.304,bars,2023.2.3,Win32,3.158559697,657b66ea316d21385b68909f,,,,,,,,,,,2890.0024,2891.0356,,,2891.3805,2891.3815,,95,95,,,,,,,,,,,,,,,,bars/020.png,bars/mask004.png,,,,,,,,,,,,2,1,,,,,,,7,8,7,10,,,,,,,,,,,2891.0356,2891.3804,2891.3815,2892.7795,space,1.0774,,2892.7797,20,75,2893.5139,2893.5139,2893.5147,,,,0,10,10,10,1,115,170,,,,,,,,
,,6145f19d669f7dfef751d076,65af55b48ebdf7e17d6d5749,2024-01-23_08h13.33.304,bars,2023.2.3,Win32,3.158559697,657b66ea316d21385b68909f,,,,,,,,,,,2893.515,2894.5266,,,2894.9286,2895.2774,,59,59,,,,,,,,,,,,,,,,bars/023.png,bars/mask000.png,,,,,,,,,,,,0,1,,,,,,,9,10,8,9,,,,,,,,,,,2894.5266,2894.9286,2895.2774,2896.6541,space,1.0261,,2896.6542,39,56,2897.5619,2897.562,2897.5629,,,,0,11,11,11,1,20,115,,,,,,,,
,,6145f19d669f7dfef751d076,65af55b48ebdf7e17d6d5749,2024-01-23_08h13.33.304,bars,2023.2.3,Win32,3.158559697,657b66ea316d21385b68909f,,,,,,,,,,,2897.5631,2898.4602,,,2898.7763,2899.0783,,70,70,,,,,,,,,,,,,,,,bars/043.png,bars/mask008.png,,,,,,,,,,,,0,1,,,,,,,10,10,9,10,,,,,,,,,,,2898.4602,2898.7762,2899.0783,2900.3251,space,0.9596,,2900.3251,40,60,2901.2615,2901.2615,2901.2625,,,,0,12,12,12,1,30,130,,,,,,,,
,,6145f19d669f7dfef751d076,65af55b48ebdf7e17d6d5749,2024-01-23_08h13.33.304,bars,2023.2.3,Win32,3.158559697,657b66ea316d21385b68909f,,,,,,,,,,,2901.263,2902.1755,,,2902.483,2902.7955,,88,88,,,,,,,,,,,,,,,,bars/039.png,bars/mask005.png,,,,,,,,,,,,3,2,,,,,,,8,8,8,8,,,,,,,,,,,2902.1756,2902.4829,2902.7955,2903.4283,space,0.3146,,2903.4284,87,17,2904.3501,2904.3502,2904.353,,,,0,13,13,13,1,175,105,,,,,,,,
,,6145f19d669f7dfef751d076,65af55b48ebdf7e17d6d5749,2024-01-23_08h13.33.304,bars,2023.2.3,Win32,3.158559697,657b66ea316d21385b68909f,,,,,,,,,,,2904.3537,2905.2645,,,2905.6031,2905.936,,93,93,,,,,,,,,,,,,,,,bars/004.png,bars/mask006.png,,,,,,,,,,,,0,2,,,,,,,10,10,10,10,,,,,,,,,,,2905.2646,2905.6028,2905.9361,2907.1802,space,0.95,,2907.1802,68,32,2908.1154,2908.1154,2908.1167,,,,0,14,14,14,1,25,125,,,,,,,,
,,6145f19d669f7dfef751d076,65af55b48ebdf7e17d6d5749,2024-01-23_08h13.33.304,bars,2023.2.3,Win32,3.158559697,657b66ea316d21385b68909f,,,,,,,,,,,2908.1172,2909.1419,,,2909.472,2909.4729,,130,130,,,,,,,,,,,,,,,,bars/045.png,bars/mask001.png,,,,,,,,,,,,0,1,,,,,,,8,10,6,10,,,,,,,,,,,2909.1421,2909.472,2909.4729,2910.1001,space,0.3247,,2910.1002,30,60,2911.1498,2911.1498,2911.1524,,,,0,15,15,15,1,100,10,,,,,,,,
,,6145f19d669f7dfef751d076,65af55b48ebdf7e17d6d5749,2024-01-23_08h13.33.304,bars,2023.2.3,Win32,3.158559697,657b66ea316d21385b68909f,,,,,,,,,,,2911.153,2912.1347,,,2912.4588,2912.795,,176,176,,,,,,,,,,,,,,,,bars/012.png,bars/mask009.png,,,,,,,,,,,,3,2,,,,,,,10,10,10,9,,,,,,,,,,,2912.1348,2912.4587,2912.795,2915.9584,space,2.8604,,2915.9585,86,19,2916.6957,2916.6958,2916.7108,,,,0,16,16,16,1,90,15,,,,,,,,
,,6145f19d669f7dfef751d076,65af55b48ebdf7e17d6d5749,2024-01-23_08h13.33.304,bars,2023.2.3,Win32,3.158559697,657b66ea316d21385b68909f,,,,,,,,,,,2916.7111,2917.7089,,,2918.048,2918.0488,,141,141,,,,,,,,,,,,,,,,bars/042.png,bars/mask004.png,,,,,,,,,,,,9,1,,,,,,,10,10,10,10,,,,,,,,,,,2917.7089,2918.0479,2918.0488,2919.8652,space,1.4955,,2919.8653,4,66,2920.9608,2920.9609,2920.9656,,,,0,17,17,17,1,145,75,,,,,,,,
,,6145f19d669f7dfef751d076,65af55b48ebdf7e17d6d5749,2024-01-23_08h13.33.304,bars,2023.2.3,Win32,3.158559697,657b66ea316d21385b68909f,,,,,,,,,,,2920.9664,2921.9626,,,2922.3687,2922.3703,,139,139,,,,,,,,,,,,,,,,bars/021.png,bars/mask000.png,,,,,,,,,,,,4,1,,,,,,,10,10,9,10,,,,,,,,,,,2921.9626,2922.3687,2922.3703,2956.6678,space,33.984,,2956.6679,16,69,2957.5864,2957.5864,2957.6047,,,,0,18,18,18,1,155,70,,,,,,,,
,,6145f19d669f7dfef751d076,65af55b48ebdf7e17d6d5749,2024-01-23_08h13.33.304,bars,2023.2.3,Win32,3.158559697,657b66ea316d21385b68909f,,,,,,,,,,,2957.605,2958.5345,,,2959.0051,2959.0063,,94,94,,,,,,,,,,,,,,,,bars/014.png,bars/mask001.png,,,,,,,,,,,,5,1,,,,,,,8,8,10,8,,,,,,,,,,,2958.5345,2959.0051,2959.0063,2963.5498,space,4.1161,,2963.5499,14,86,2964.463,2964.4631,2964.4818,,,,0,19,19,19,1,80,0,,,,,,,,
,,6145f19d669f7dfef751d076,65af55b48ebdf7e17d6d5749,2024-01-23_08h13.33.304,bars,2023.2.3,Win32,3.158559697,657b66ea316d21385b68909f,,,,,,,,,,,2964.4823,2965.3924,,,2965.9064,2965.9077,,129,129,,,,,,,,,,,,,,,,bars/005.png,bars/mask003.png,,,,,,,,,,,,3,2,,,,,,,10,6,10,5,,,,,,,,,,,2965.3926,2965.9063,2965.9077,2979.183,space,12.8208,0.0003,2979.1831,61,11,2980.1733,2980.1734,2980.2059,,,,0,20,20,20,1,10,140,,,,,,,,
,,6145f19d669f7dfef751d076,65af55b48ebdf7e17d6d5749,2024-01-23_08h13.33.304,bars,2023.2.3,Win32,3.158559697,657b66ea316d21385b68909f,,,,,,,,,,,2980.2065,2981.2254,,,2981.5911,2981.5923,,6,6,,,,,,,,,,,,,,,,bars/006.png,bars/mask008.png,,,,,,,,,,,,0,1,,,,,,,10,4,10,5,,,,,,,,,,,2981.2254,2981.5911,2981.5923,2989.6367,space,7.729,,2989.6368,29,86,2990.533,2990.5331,2990.5459,,,,0,21,21,21,1,35,100,,,,,,,,
,,6145f19d669f7dfef751d076,65af55b48ebdf7e17d6d5749,2024-01-23_08h13.33.304,bars,2023.2.3,Win32,3.158559697,657b66ea316d21385b68909f,,,,,,,,,,,2990.5464,2991.4355,,,2991.7405,2992.0541,,150,150,,,,,,,,,,,,,,,,bars/042.png,bars/mask003.png,,,,,,,,,,,,8,1,,,,,,,8,2,9,0,,,,,,,,,,,2991.4355,2991.7405,2992.0542,2993.8367,space,1.4975,,2993.8367,5,75,2994.7296,2994.7297,2994.7306,,,,0,22,22,22,1,145,75,,,,,,,,
,,6145f19d669f7dfef751d076,65af55b48ebdf7e17d6d5749,2024-01-23_08h13.33.304,bars,2023.2.3,Win32,3.158559697,657b66ea316d21385b68909f,,,,,,,,,,,2994.731,2995.6234,,,2995.9376,2996.2496,,174,174,,,,,,,,,,,,,,,,bars/013.png,bars/mask005.png,,,,,,,,,,,,1,2,,,,,,,6,4,6,3,,,,,,,,,,,2995.6234,2995.9376,2996.2496,2997.4649,space,0.9299,,2997.465,81,16,2998.4165,2998.4166,2998.4193,,,,0,23,23,23,1,75,10,,,,,,,,
,,6145f19d669f7dfef751d076,65af55b48ebdf7e17d6d5749,2024-01-23_08h13.33.304,bars,2023.2.3,Win32,3.158559697,657b66ea316d21385b68909f,,,,,,,,,,,2998.4199,2999.3604,,,2999.6767,2999.9998,,19,19,,,,,,,,,,,,,,,,bars/044.png,bars/mask008.png,,,,,,,,,,,,0,2,,,,,,,8,6,8,6,,,,,,,,,,,2999.3604,2999.6767,2999.9999,3001.9065,space,1.5815,,3001.9065,56,44,3002.8695,3002.8695,3002.8708,,,,0,24,24,24,1,75,155,,,,,,,,
,,6145f19d669f7dfef751d076,65af55b48ebdf7e17d6d5749,2024-01-23_08h13.33.304,bars,2023.2.3,Win32,3.158559697,657b66ea316d21385b68909f,,,,,,,,,,,3002.8712,3003.8088,,,3004.1226,3004.4414,,132,132,,,,,,,,,,,,,,,,bars/039.png,bars/mask001.png,,,,,,,,,,,,0,2,,,,,,,10,4,10,5,,,,,,,,,,,3003.8088,3004.1226,3004.4414,3005.7345,space,0.9931,0.0002,3005.7345,43,27,3006.716,3006.7161,3006.7173,,,,0,25,25,25,1,175,105,,,,,,,,
,,6145f19d669f7dfef751d076,65af55b48ebdf7e17d6d5749,2024-01-23_08h13.33.304,bars,2023.2.3,Win32,3.158559697,657b66ea316d21385b68909f,,,,,,,,,,,3006.7178,3007.7234,,,3008.0649,3008.4003,,149,149,,,,,,,,,,,,,,,,bars/044.png,bars/mask008.png,,,,,,,,,,,,2,2,,,,,,,10,2,10,2,,,,,,,,,,,3007.7234,3008.0649,3008.4004,3009.3801,space,0.6637,0.0003,3009.3801,74,6,3010.3687,3010.3687,3010.3697,,,,0,26,26,26,1,75,155,,,,,,,,
,,6145f19d669f7dfef751d076,65af55b48ebdf7e17d6d5749,2024-01-23_08h13.33.304,bars,2023.2.3,Win32,3.158559697,657b66ea316d21385b68909f,,,,,,,,,,,3010.37,3011.3526,,,3011.6939,3011.6948,,142,142,,,,,,,,,,,,,,,,bars/029.png,bars/mask004.png,,,,,,,,,,,,0,1,,,,,,,8,4,7,4,,,,,,,,,,,3011.3527,3011.6938,3011.6948,3012.7163,space,0.6927,,3012.7163,52,83,3013.7109,3013.7109,3013.7134,,,,0,27,27,27,1,90,45,,,,,,,,
,,6145f19d669f7dfef751d076,65af55b48ebdf7e17d6d5749,2024-01-23_08h13.33.304,bars,2023.2.3,Win32,3.158559697,657b66ea316d21385b68909f,,,,,,,,,,,3013.7142,3014.6865,,,3015.0357,3015.0367,,66,66,,,,,,,,,,,,,,,,bars/029.png,bars/mask000.png,,,,,,,,,,,,2,2,,,,,,,6,6,4,7,,,,,,,,,,,3014.6865,3015.0357,3015.0367,3016.0665,space,0.7063,0.0003,3016.0665,24,21,3017.1166,3017.1166,3017.1196,,,,0,28,28,28,1,90,45,,,,,,,,
,,6145f19d669f7dfef751d076,65af55b48ebdf7e17d6d5749,2024-01-23_08h13.33.304,bars,2023.2.3,Win32,3.158559697,657b66ea316d21385b68909f,,,,,,,,,,,3017.1202,3018.2015,,,3018.561,3018.562,,114,114,,,,,,,,,,,,,,,,bars/014.png,bars/mask004.png,,,,,,,,,,,,0,1,,,,,,,4,4,3,4,,,,,,,,,,,3018.2015,3018.5609,3018.562,3019.5959,space,0.7012,0.0003,3019.5959,34,66,3020.6231,3020.6232,3020.6271,,,,0,29,29,29,1,80,0,,,,,,,,
,,6145f19d669f7dfef751d076,65af55b48ebdf7e17d6d5749,2024-01-23_08h13.33.304,bars,2023.2.3,Win32,3.158559697,657b66ea316d21385b68909f,,,,,,,,,,,3020.6278,3021.6513,,,3022.0243,3022.0252,,168,168,,,,,,,,,,,,,,,,bars/044.png,bars/mask001.png,,,,,,,,,,,,2,2,,,,,,,6,2,6,3,,,,,,,,,,,3021.6514,3022.0242,3022.0252,3023.814,space,1.4544,,3023.814,87,13,3024.8734,3024.8735,3024.8773,,,,0,30,30,30,1,75,155,,,,,,,,
,,6145f19d669f7dfef751d076,65af55b48ebdf7e17d6d5749,2024-01-23_08h13.33.304,bars,2023.2.3,Win32,3.158559697,657b66ea316d21385b68909f,,,,,,,,,,,3024.8779,3025.6239,,,3026.0123,3026.0134,,43,43,,,,,,,,,,,,,,,,bars/043.png,bars/mask000.png,,,,,,,,,,,,3,1,,,,,,,4,0,5,0,,,,,,,,,,,3025.6239,3026.0122,3026.0134,3027.8447,space,1.481,0.0002,3027.8447,13,87,3028.6229,3028.623,3028.6259,,,,0,31,31,31,1,30,130,,,,,,,,
,,6145f19d669f7dfef751d076,65af55b48ebdf7e17d6d5749,2024-01-23_08h13.33.304,bars,2023.2.3,Win32,3.158559697,657b66ea316d21385b68909f,,,,,,,,,,,3028.6265,3029.3805,,,3029.7633,3029.764,,60,60,,,,,,,,,,,,,,,,bars/007.png,bars/mask001.png,,,,,,,,,,,,2,2,,,,,,,6,2,6,2,,,,,,,,,,,3029.3806,3029.7631,3029.764,3031.681,space,1.5294,,3031.681,65,5,3032.4536,3032.4536,3032.4564,,,,0,32,32,32,1,175,55,,,,,,,,
,,6145f19d669f7dfef751d076,65af55b48ebdf7e17d6d5749,2024-01-23_08h13.33.304,bars,2023.2.3,Win32,3.158559697,657b66ea316d21385b68909f,,,,,,,,,,,3032.457,3033.2176,,,3033.6291,3033.6389,,173,173,,,,,,,,,,,,,,,,bars/036.png,bars/mask004.png,,,,,,,,,,,,0,2,,,,,,,8,4,10,5,,,,,,,,,,,3033.2177,3033.6291,3033.639,3035.5819,space,1.5558,0.0003,3035.5819,28,27,3036.3314,3036.3315,3036.3324,,,,0,33,33,33,1,145,20,,,,,,,,
,,6145f19d669f7dfef751d076,65af55b48ebdf7e17d6d5749,2024-01-23_08h13.33.304,bars,2023.2.3,Win32,3.158559697,657b66ea316d21385b68909f,,,,,,,,,,,3036.3327,3037.0967,,,3037.5452,3037.5463,,161,161,,,,,,,,,,,,,,,,bars/030.png,bars/mask000.png,,,,,,,,,,,,2,1,,,,,,,10,6,8,5,,,,,,,,,,,3037.0968,3037.5451,3037.5463,3039.2593,space,1.3103,,3039.2593,21,84,3040.1677,3040.1677,3040.1706,,,,0,34,34,34,1,140,65,,,,,,,,
,,6145f19d669f7dfef751d076,65af55b48ebdf7e17d6d5749,2024-01-23_08h13.33.304,bars,2023.2.3,Win32,3.158559697,657b66ea316d21385b68909f,,,,,,,,,,,3040.1712,3041.0312,,,3041.4804,3041.4829,,149,149,,,,,,,,,,,,,,,,bars/042.png,bars/mask000.png,,,,,,,,,,,,9,1,,,,,,,10,8,10,8,,,,,,,,,,,3041.0312,3041.4804,3041.483,3043.1084,space,1.2208,0.0021,3043.1085,4,74,3043.9198,3043.9198,3043.9214,,,,0,35,35,35,1,145,75,,,,,,,,
,,6145f19d669f7dfef751d076,65af55b48ebdf7e17d6d5749,2024-01-23_08h13.33.304,bars,2023.2.3,Win32,3.158559697,657b66ea316d21385b68909f,,,,,,,,,,,3043.9219,3044.725,,,3045.1483,3045.1491,,121,121,,,,,,,,,,,,,,,,bars/040.png,bars/mask005.png,,,,,,,,,,,,3,1,,,,,,,8,10,8,10,,,,,,,,,,,3044.725,3045.1483,3045.1491,3046.8145,space,1.2766,0.0007,3046.8145,19,64,3047.7313,3047.7313,3047.7329,,,,0,36,36,36,1,140,5,,,,,,,,
,,6145f19d669f7dfef751d076,65af55b48ebdf7e17d6d5749,2024-01-23_08h13.33.304,bars,2023.2.3,Win32,3.158559697,657b66ea316d21385b68909f,,,,,,,,,,,3047.7337,3048.6305,,,3049.0951,3049.0962,,106,106,,,,,,,,,,,,,,,,bars/005.png,bars/mask002.png,,,,,,,,,,,,0,2,,,,,,,6,10,5,9,,,,,,,,,,,3048.6305,3049.0951,3049.0962,3051.3428,space,1.8192,,3051.3428,84,34,3052.2285,3052.2286,3052.2318,,,,0,37,37,37,1,10,140,,,,,,,,
,,6145f19d669f7dfef751d076,65af55b48ebdf7e17d6d5749,2024-01-23_08h13.33.304,bars,2023.2.3,Win32,3.158559697,657b66ea316d21385b68909f,,,,,,,,,,,3052.2321,3053.1262,,,3053.5815,3053.5828,,173,173,,,,,,,,,,,,,,,,bars/019.png,bars/mask007.png,,,,,,,,,,,,0,1,,,,,,,4,8,4,8,,,,,,,,,,,3053.1263,3053.5814,3053.5829,3055.3862,space,1.3559,,3055.3862,52,68,3056.2853,3056.2853,3056.2888,,,,0,38,38,38,1,45,105,,,,,,,,
,,6145f19d669f7dfef751d076,65af55b48ebdf7e17d6d5749,2024-01-23_08h13.33.304,bars,2023.2.3,Win32,3.158559697,657b66ea316d21385b68909f,,,,,,,,,,,3056.2895,3057.1587,,,3057.5392,3057.5402,,109,109,,,,,,,,,,,,,,,,bars/024.png,bars/mask008.png,,,,,,,,,,,,1,1,,,,,,,2,6,2,5,,,,,,,,,,,3057.1588,3057.5391,3057.5402,3059.4012,space,1.5039,0.0004,3059.4013,11,61,3060.1446,3060.1446,3060.1458,,,,0,39,39,39,1,120,170,,,,,,,,
,,6145f19d669f7dfef751d076,65af55b48ebdf7e17d6d5749,2024-01-23_08h13.33.304,bars,2023.2.3,Win32,3.158559697,657b66ea316d21385b68909f,,,,,,,,,,,3060.1463,3060.895,,,3061.2743,3061.2765,,9,9,,,,,,,,,,,,,,,,bars/029.png,bars/mask003.png,,,,,,,,,,,,0,2,,,,,,,4,8,5,7,,,,,,,,,,,3060.8951,3061.2742,3061.2765,3063.1594,space,1.5283,0.0004,3063.1594,81,36,3063.9075,3063.9075,3063.9105,,,,0,40,40,40,1,90,45,,,,,,,,
,,6145f19d669f7dfef751d076,65af55b48ebdf7e17d6d5749,2024-01-23_08h13.33.304,bars,2023.2.3,Win32,3.158559697,657b66ea316d21385b68909f,,,,,,,,,,,3063.9111,3064.9997,,,3065.3732,3065.374,,93,93,,,,,,,,,,,,,,,,bars/011.png,bars/mask006.png,,,,,,,,,,,,4,2,,,,,,,2,6,2,5,,,,,,,,,,,3064.9997,3065.3732,3065.374,3066.8476,space,1.1187,0.0004,3066.8477,67,8,3067.8301,3067.8301,3067.8311,,,,0,41,41,41,1,160,85,,,,,,,,
,,6145f19d669f7dfef751d076,65af55b48ebdf7e17d6d5749,2024-01-23_08h13.33.304,bars,2023.2.3,Win32,3.158559697,657b66ea316d21385b68909f,,,,,,,,,,,3067.8313,3068.8102,,,3069.1478,3069.1487,,160,160,,,,,,,,,,,,,,,,bars/048.png,bars/mask005.png,,,,,,,,,,,,2,2,,,,,,,0,4,0,3,,,,,,,,,,,3068.8102,3069.1477,3069.1488,3070.7835,space,1.3216,0.0003,3070.7835,70,15,3071.7452,3071.7453,3071.7462,,,,0,42,42,42,1,50,175,,,,,,,,
,,6145f19d669f7dfef751d076,65af55b48ebdf7e17d6d5749,2024-01-23_08h13.33.304,bars,2023.2.3,Win32,3.158559697,657b66ea316d21385b68909f,,,,,,,,,,,3071.7464,3072.7074,,,3073.0501,3073.3836,,80,80,,,,,,,,,,,,,,,,bars/017.png,bars/mask006.png,,,,,,,,,,,,0,2,,,,,,,2,2,1,3,,,,,,,,,,,3072.7075,3073.05,3073.3836,3074.6918,space,0.9974,,3074.6919,65,35,3075.6651,3075.6652,3075.6662,,,,0,43,43,43,1,145,45,,,,,,,,
,,6145f19d669f7dfef751d076,65af55b48ebdf7e17d6d5749,2024-01-23_08h13.33.304,bars,2023.2.3,Win32,3.158559697,657b66ea316d21385b68909f,,,,,,,,,,,3075.6664,3076.6273,,,3076.9638,3077.2693,,45,45,,,,,,,,,,,,,,,,bars/038.png,bars/mask004.png,,,,,,,,,,,,1,2,,,,,,,4,4,5,4,,,,,,,,,,,3076.6274,3076.9637,3077.2693,3078.4579,space,0.9014,,3078.4579,60,25,3079.3445,3079.3445,3079.3457,,,,0,44,44,44,1,165,70,,,,,,,,
,,6145f19d669f7dfef751d076,65af55b48ebdf7e17d6d5749,2024-01-23_08h13.33.304,bars,2023.2.3,Win32,3.158559697,657b66ea316d21385b68909f,,,,,,,,,,,3079.3461,3080.2331,,,3080.5377,3080.8465,,27,27,,,,,,,,,,,,,,,,bars/017.png,bars/mask004.png,,,,,,,,,,,,1,2,,,,,,,6,2,5,2,,,,,,,,,,,3080.2331,3080.5376,3080.8465,3082.3228,space,1.1915,0.0003,3082.3229,62,18,3083.2069,3083.207,3083.208,,,,0,45,45,45,1,145,45,,,,,,,,
,,6145f19d669f7dfef751d076,65af55b48ebdf7e17d6d5749,2024-01-23_08h13.33.304,bars,2023.2.3,Win32,3.158559697,657b66ea316d21385b68909f,,,,,,,,,,,3083.2084,3084.0919,,,3084.3989,3084.7023,,145,145,,,,,,,,,,,,,,,,bars/043.png,bars/mask006.png,,,,,,,,,,,,1,2,,,,,,,4,4,5,2,,,,,,,,,,,3084.092,3084.3988,3084.7023,3086.2182,space,1.2244,0.0002,3086.2182,65,15,3087.1155,3087.1155,3087.1165,,,,0,46,46,46,1,30,130,,,,,,,,
,,6145f19d669f7dfef751d076,65af55b48ebdf7e17d6d5749,2024-01-23_08h13.33.304,bars,2023.2.3,Win32,3.158559697,657b66ea316d21385b68909f,,,,,,,,,,,3087.117,3088.0381,,,3088.3613,3088.6766,,91,91,,,,,,,,,,,,,,,,bars/009.png,bars/mask006.png,,,,,,,,,,,,1,2,,,,,,,6,2,7,2,,,,,,,,,,,3088.0382,3088.3613,3088.6768,3090.2562,space,1.2697,0.0002,3090.2562,76,14,3091.1936,3091.1936,3091.1948,,,,0,47,47,47,1,15,105,,,,,,,,
,,6145f19d669f7dfef751d076,65af55b48ebdf7e17d6d5749,2024-01-23_08h13.33.304,bars,2023.2.3,Win32,3.158559697,657b66ea316d21385b68909f,,,,,,,,,,,3091.1952,3092.1296,,,3092.4587,3092.7812,,48,48,,,,,,,,,,,,,,,,bars/033.png,bars/mask009.png,,,,,,,,,,,,1,1,,,,,,,4,4,3,3,,,,,,,,,,,3092.1296,3092.4586,3092.7813,3094.3554,space,1.2762,,3094.3555,23,73,3095.2916,3095.2917,3095.294,,,,0,48,48,48,1,25,155,,,,,,,,
,,6145f19d669f7dfef751d076,65af55b48ebdf7e17d6d5749,2024-01-23_08h13.33.304,bars,2023.2.3,Win32,3.158559697,657b66ea316d21385b68909f,,,,,,,,,,,3095.2944,3096.2231,,,3096.5408,3096.8611,,78,78,,,,,,,,,,,,,,,,bars/017.png,bars/mask008.png,,,,,,,,,,,,0,2,,,,,,,2,2,1,2,,,,,,,,,,,3096.2233,3096.5406,3096.8611,3098.4862,space,1.3175,0.0003,3098.4863,67,33,3099.46,3099.4601,3099.4628,,,,0,49,49,49,1,145,45,,,,,,,,
,,6145f19d669f7dfef751d076,65af55b48ebdf7e17d6d5749,2024-01-23_08h13.33.304,bars,2023.2.3,Win32,3.158559697,657b66ea316d21385b68909f,,,,,,,,,,,,,,,,,,,,,,,,,,,,,,,,,,,,,,,,,,,,,,,,,,,,,,,,,,,,,,,,,,,,,,,,,,,,,,,,,,,,,,,,,,,,,3099.4629,3159.349,0,2,2,2,1,sequence_tables/blk020.csv
,,6145f19d669f7dfef751d076,65af55b48ebdf7e17d6d5749,2024-01-23_08h13.33.304,bars,2023.2.3,Win32,3.158559697,657b66ea316d21385b68909f,,,,,,,,,,,3162.2957,3163.2661,,,3163.5981,3163.5992,,0,0,,,,,,,,,,,,,,,,bars/048.png,bars/mask003.png,,,,,,,,,,,,7,2,,,,,,,8,7,10,8,,,,,,3159.3617,3162.2863,space,2.6199,,3163.2662,3163.5981,3163.5992,3165.5501,space,1.6366,0.0004,3165.5502,50,5,3166.5291,3166.5292,3166.5304,,,,0,0,0,0,1,50,175,,,,,,,,
,,6145f19d669f7dfef751d076,65af55b48ebdf7e17d6d5749,2024-01-23_08h13.33.304,bars,2023.2.3,Win32,3.158559697,657b66ea316d21385b68909f,,,,,,,,,,,3166.5309,3167.4491,,,3167.7523,3168.0599,,125,125,,,,,,,,,,,,,,,,bars/038.png,bars/mask006.png,,,,,,,,,,,,0,1,,,,,,,6,5,6,4,,,,,,,,,,,3167.4491,3167.7522,3168.0599,3169.2504,space,0.9004,,3169.2505,40,55,3170.1377,3170.1378,3170.1404,,,,0,1,1,1,1,165,70,,,,,,,,
,,6145f19d669f7dfef751d076,65af55b48ebdf7e17d6d5749,2024-01-23_08h13.33.304,bars,2023.2.3,Win32,3.158559697,657b66ea316d21385b68909f,,,,,,,,,,,3170.141,3171.0304,,,3171.3357,3171.6402,,45,45,,,,,,,,,,,,,,,,bars/000.png,bars/mask008.png,,,,,,,,,,,,7,1,,,,,,,8,7,8,9,,,,,,,,,,,3171.0305,3171.3356,3171.6403,3172.5354,space,0.5988,0.0002,3172.5354,5,80,3173.4257,3173.4258,3173.4271,,,,0,2,2,2,1,40,145,,,,,,,,
,,6145f19d669f7dfef751d076,65af55b48ebdf7e17d6d5749,2024-01-23_08h13.33.304,bars,2023.2.3,Win32,3.158559697,657b66ea316d21385b68909f,,,,,,,,,,,3173.4272,3174.3132,,,3174.6242,3174.9367,,151,151,,,,,,,,,,,,,,,,bars/004.png,bars/mask005.png,,,,,,,,,,,,1,2,,,,,,,10,5,9,4,,,,,,,,,,,3174.3134,3174.6242,3174.9368,3176.1308,space,0.9058,0.0002,3176.1308,54,26,3177.0345,3177.0346,3177.0371,,,,0,3,3,3,1,25,125,,,,,,,,
,,6145f19d669f7dfef751d076,65af55b48ebdf7e17d6d5749,2024-01-23_08h13.33.304,bars,2023.2.3,Win32,3.158559697,657b66ea316d21385b68909f,,,,,,,,,,,3177.0377,3177.9577,,,3178.2742,3178.5962,,161,161,,,,,,,,,,,,,,,,bars/020.png,bars/mask008.png,,,,,,,,,,,,6,2,,,,,,,10,7,10,8,,,,,,,,,,,3177.9578,3178.2742,3178.5963,3180.1624,space,1.2593,0.0003,3180.1625,46,9,3181.086,3181.0861,3181.0872,,,,0,4,4,4,1,115,170,,,,,,,,
,,6145f19d669f7dfef751d076,65af55b48ebdf7e17d6d5749,2024-01-23_08h13.33.304,bars,2023.2.3,Win32,3.158559697,657b66ea316d21385b68909f,,,,,,,,,,,3181.0878,3182.0108,,,3182.3278,3182.6517,,42,42,,,,,,,,,,,,,,,,bars/016.png,bars/mask005.png,,,,,,,,,,,,9,1,,,,,,,10,5,10,6,,,,,,,,,,,3182.0109,3182.3277,3182.6517,3183.9341,space,0.9802,0.0002,3183.9341,2,57,3184.857,3184.857,3184.8599,,,,0,5,5,5,1,40,165,,,,,,,,
,,6145f19d669f7dfef751d076,65af55b48ebdf7e17d6d5749,2024-01-23_08h13.33.304,bars,2023.2.3,Win32,3.158559697,657b66ea316d21385b68909f,,,,,,,,,,,3184.8606,3185.7846,,,3186.1002,3186.4171,,177,177,,,,,,,,,,,,,,,,bars/003.png,bars/mask002.png,,,,,,,,,,,,1,1,,,,,,,10,7,10,7,,,,,,,,,,,3185.7847,3186.1002,3186.4172,3187.7027,space,0.979,0.0002,3187.7027,28,37,3188.675,3188.6751,3188.6762,,,,0,6,6,6,1,25,140,,,,,,,,
,,6145f19d669f7dfef751d076,65af55b48ebdf7e17d6d5749,2024-01-23_08h13.33.304,bars,2023.2.3,Win32,3.158559697,657b66ea316d21385b68909f,,,,,,,,,,,3188.6767,3189.6585,,,3189.9925,3190.3274,,30,30,,,,,,,,,,,,,,,,bars/011.png,bars/mask005.png,,,,,,,,,,,,0,1,,,,,,,10,5,9,7,,,,,,,,,,,3189.6585,3189.9924,3190.3275,3191.6423,space,0.9965,0.0004,3191.6423,50,55,3192.6098,3192.6098,3192.611,,,,0,7,7,7,1,160,85,,,,,,,,
,,6145f19d669f7dfef751d076,65af55b48ebdf7e17d6d5749,2024-01-23_08h13.33.304,bars,2023.2.3,Win32,3.158559697,657b66ea316d21385b68909f,,,,,,,,,,,3192.6114,3193.5791,,,3193.9172,3194.2487,,135,135,,,,,,,,,,,,,,,,bars/023.png,bars/mask009.png,,,,,,,,,,,,1,2,,,,,,,8,3,9,3,,,,,,,,,,,3193.5792,3193.9171,3194.2487,3195.2348,space,0.6654,0.0002,3195.2348,65,20,3196.2,3196.2,3196.2028,,,,0,8,8,8,1,20,115,,,,,,,,
,,6145f19d669f7dfef751d076,65af55b48ebdf7e17d6d5749,2024-01-23_08h13.33.304,bars,2023.2.3,Win32,3.158559697,657b66ea316d21385b68909f,,,,,,,,,,,3196.2034,3197.2188,,,3197.5804,3197.5814,,3,3,,,,,,,,,,,,,,,,bars/022.png,bars/mask000.png,,,,,,,,,,,,0,2,,,,,,,6,1,7,0,,,,,,,,,,,3197.2188,3197.5803,3197.5814,3198.6109,space,0.6979,,3198.6109,88,17,3199.6613,3199.6613,3199.6626,,,,0,9,9,9,1,95,20,,,,,,,,
,,6145f19d669f7dfef751d076,65af55b48ebdf7e17d6d5749,2024-01-23_08h13.33.304,bars,2023.2.3,Win32,3.158559697,657b66ea316d21385b68909f,,,,,,,,,,,3199.663,3200.692,,,3201.0512,3201.3976,,120,120,,,,,,,,,,,,,,,,bars/006.png,bars/mask002.png,,,,,,,,,,,,1,2,,,,,,,4,3,5,4,,,,,,,,,,,3200.692,3201.0511,3201.3976,3202.7651,space,1.0379,0.0002,3202.7652,85,20,3203.8132,3203.8132,3203.8143,,,,0,10,10,10,1,35,100,,,,,,,,
,,6145f19d669f7dfef751d076,65af55b48ebdf7e17d6d5749,2024-01-23_08h13.33.304,bars,2023.2.3,Win32,3.158559697,657b66ea316d21385b68909f,,,,,,,,,,,3203.8148,3204.8595,,,3205.2259,3205.2271,,85,85,,,,,,,,,,,,,,,,bars/031.png,bars/mask001.png,,,,,,,,,,,,0,1,,,,,,,6,1,5,0,,,,,,,,,,,3204.8596,3205.2258,3205.2271,3206.2719,space,0.7075,,3206.272,35,50,3207.3337,3207.3337,3207.3366,,,,0,11,11,11,1,120,35,,,,,,,,
,,6145f19d669f7dfef751d076,65af55b48ebdf7e17d6d5749,2024-01-23_08h13.33.304,bars,2023.2.3,Win32,3.158559697,657b66ea316d21385b68909f,,,,,,,,,,,3207.3372,3208.0962,,,3208.4822,3208.483,,175,175,,,,,,,,,,,,,,,,bars/006.png,bars/mask000.png,,,,,,,,,,,,0,1,,,,,,,8,0,9,1,,,,,,,,,,,3208.0963,3208.4822,3208.483,3209.6386,space,0.7788,,3209.6386,40,75,3210.4033,3210.4034,3210.4044,,,,0,12,12,12,1,35,100,,,,,,,,
,,6145f19d669f7dfef751d076,65af55b48ebdf7e17d6d5749,2024-01-23_08h13.33.304,bars,2023.2.3,Win32,3.158559697,657b66ea316d21385b68909f,,,,,,,,,,,3210.4049,3211.174,,,3211.5577,3211.5592,,130,130,,,,,,,,,,,,,,,,bars/002.png,bars/mask002.png,,,,,,,,,,,,8,1,,,,,,,10,0,8,0,,,,,,,,,,,3211.1741,3211.5577,3211.5593,3212.6951,space,0.7674,0.0003,3212.6951,0,45,3213.4397,3213.4397,3213.4407,,,,0,13,13,13,1,130,85,,,,,,,,
,,6145f19d669f7dfef751d076,65af55b48ebdf7e17d6d5749,2024-01-23_08h13.33.304,bars,2023.2.3,Win32,3.158559697,657b66ea316d21385b68909f,,,,,,,,,,,3213.441,3214.1879,,,3214.5722,3214.5729,,92,92,,,,,,,,,,,,,,,,bars/006.png,bars/mask000.png,,,,,,,,,,,,0,2,,,,,,,8,0,9,0,,,,,,,,,,,3214.188,3214.5721,3214.573,3216.8201,space,1.8758,0.0004,3216.8201,57,8,3217.5933,3217.5933,3217.5974,,,,0,14,14,14,1,35,100,,,,,,,,
,,6145f19d669f7dfef751d076,65af55b48ebdf7e17d6d5749,2024-01-23_08h13.33.304,bars,2023.2.3,Win32,3.158559697,657b66ea316d21385b68909f,,,,,,,,,,,3217.5982,3218.3897,,,3218.8214,3218.8258,,134,134,,,,,,,,,,,,,,,,bars/032.png,bars/mask006.png,,,,,,,,,,,,4,1,,,,,,,6,0,5,1,,,,,,,,,,,3218.3897,3218.8214,3218.8258,3220.4281,space,1.2181,0.0007,3220.4281,9,66,3221.2335,3221.2337,3221.2365,,,,0,15,15,15,1,125,20,,,,,,,,
,,6145f19d669f7dfef751d076,65af55b48ebdf7e17d6d5749,2024-01-23_08h13.33.304,bars,2023.2.3,Win32,3.158559697,657b66ea316d21385b68909f,,,,,,,,,,,3221.2371,3222.0321,,,3222.442,3222.4432,,24,24,,,,,,,,,,,,,,,,bars/026.png,bars/mask005.png,,,,,,,,,,,,2,1,,,,,,,4,2,3,2,,,,,,,,,,,3222.0321,3222.442,3222.4433,3224.0553,space,1.2024,0.0003,3224.0553,11,61,3224.8601,3224.8601,3224.8616,,,,0,16,16,16,1,35,85,,,,,,,,
,,6145f19d669f7dfef751d076,65af55b48ebdf7e17d6d5749,2024-01-23_08h13.33.304,bars,2023.2.3,Win32,3.158559697,657b66ea316d21385b68909f,,,,,,,,,,,3224.8621,3225.6607,,,3226.0737,3226.0745,,134,134,,,,,,,,,,,,,,,,bars/037.png,bars/mask005.png,,,,,,,,,,,,2,1,,,,,,,2,0,4,1,,,,,,,,,,,3225.6608,3226.0737,3226.0746,3227.3084,space,0.8469,0.0004,3227.3084,16,29,3228.2365,3228.2365,3228.2382,,,,0,17,17,17,1,150,105,,,,,,,,
,,6145f19d669f7dfef751d076,65af55b48ebdf7e17d6d5749,2024-01-23_08h13.33.304,bars,2023.2.3,Win32,3.158559697,657b66ea316d21385b68909f,,,,,,,,,,,3228.2387,3229.1349,,,3229.5885,3229.5898,,26,26,,,,,,,,,,,,,,,,bars/004.png,bars/mask004.png,,,,,,,,,,,,1,1,,,,,,,0,0,1,1,,,,,,,,,,,3229.1349,3229.5884,3229.5898,3231.3773,space,1.3553,,3231.3774,1,81,3232.2667,3232.2667,3232.268,,,,0,18,18,18,1,25,125,,,,,,,,
,,6145f19d669f7dfef751d076,65af55b48ebdf7e17d6d5749,2024-01-23_08h13.33.304,bars,2023.2.3,Win32,3.158559697,657b66ea316d21385b68909f,,,,,,,,,,,3232.2686,3233.1592,,,3233.6142,3233.6154,,85,85,,,,,,,,,,,,,,,,bars/017.png,bars/mask008.png,,,,,,,,,,,,0,2,,,,,,,2,0,3,0,,,,,,,,,,,3233.1593,3233.6142,3233.6154,3235.4271,space,1.3677,,3235.4271,60,40,3236.3198,3236.3199,3236.3229,,,,0,19,19,19,1,145,45,,,,,,,,
,,6145f19d669f7dfef751d076,65af55b48ebdf7e17d6d5749,2024-01-23_08h13.33.304,bars,2023.2.3,Win32,3.158559697,657b66ea316d21385b68909f,,,,,,,,,,,3236.3238,3237.1907,,,3237.5655,3237.5665,,132,132,,,,,,,,,,,,,,,,bars/000.png,bars/mask003.png,,,,,,,,,,,,1,2,,,,,,,4,2,2,1,,,,,,,,,,,3237.1907,3237.5655,3237.5665,3239.0565,space,1.1271,,3239.0565,88,13,3239.8095,3239.8095,3239.8105,,,,0,20,20,20,1,40,145,,,,,,,,
,,6145f19d669f7dfef751d076,65af55b48ebdf7e17d6d5749,2024-01-23_08h13.33.304,bars,2023.2.3,Win32,3.158559697,657b66ea316d21385b68909f,,,,,,,,,,,3239.8111,3240.5342,,,3240.9195,3240.9204,,0,0,,,,,,,,,,,,,,,,bars/049.png,bars/mask004.png,,,,,,,,,,,,1,1,,,,,,,2,4,4,4,,,,,,,,,,,3240.5343,3240.9194,3240.9204,3242.4207,space,1.1479,0.0003,3242.4208,20,65,3243.19,3243.1901,3243.193,,,,0,21,21,21,1,160,115,,,,,,,,
,,6145f19d669f7dfef751d076,65af55b48ebdf7e17d6d5749,2024-01-23_08h13.33.304,bars,2023.2.3,Win32,3.158559697,657b66ea316d21385b68909f,,,,,,,,,,,3243.1936,3243.9386,,,3244.3102,3244.3114,,33,33,,,,,,,,,,,,,,,,bars/008.png,bars/mask008.png,,,,,,,,,,,,0,2,,,,,,,0,2,0,2,,,,,,,,,,,3243.9387,3244.3102,3244.3115,3245.7797,space,1.1123,0.0001,3245.7798,77,33,3246.5047,3246.5048,3246.5077,,,,0,22,22,22,1,110,0,,,,,,,,
,,6145f19d669f7dfef751d076,65af55b48ebdf7e17d6d5749,2024-01-23_08h13.33.304,bars,2023.2.3,Win32,3.158559697,657b66ea316d21385b68909f,,,,,,,,,,,3246.5084,3247.5349,,,3247.8765,3247.8774,,136,136,,,,,,,,,,,,,,,,bars/045.png,bars/mask009.png,,,,,,,,,,,,0,1,,,,,,,2,0,3,0,,,,,,,,,,,3247.5349,3247.8765,3247.8775,3249.5003,space,1.3124,0.0003,3249.5004,36,54,3250.4772,3250.4773,3250.4799,,,,0,23,23,23,1,100,10,,,,,,,,
,,6145f19d669f7dfef751d076,65af55b48ebdf7e17d6d5749,2024-01-23_08h13.33.304,bars,2023.2.3,Win32,3.158559697,657b66ea316d21385b68909f,,,,,,,,,,,3250.4804,3251.4614,,,3251.8045,3252.1465,,88,88,,,,,,,,,,,,,,,,bars/028.png,bars/mask007.png,,,,,,,,,,,,0,2,,,,,,,0,2,0,3,,,,,,,,,,,3251.4614,3251.8045,3252.1465,3253.1339,space,0.6708,,3253.1339,43,32,3254.0989,3254.0989,3254.1015,,,,0,24,24,24,1,45,120,,,,,,,,
,,6145f19d669f7dfef751d076,65af55b48ebdf7e17d6d5749,2024-01-23_08h13.33.304,bars,2023.2.3,Win32,3.158559697,657b66ea316d21385b68909f,,,,,,,,,,,3254.1021,3255.0849,,,3255.4152,3255.7539,,91,91,,,,,,,,,,,,,,,,bars/034.png,bars/mask008.png,,,,,,,,,,,,1,2,,,,,,,0,4,0,4,,,,,,,,,,,3255.085,3255.4151,3255.7539,3257.0568,space,0.9826,0.0003,3257.0568,34,26,3257.9431,3257.9432,3257.9444,,,,0,25,25,25,1,125,65,,,,,,,,
,,6145f19d669f7dfef751d076,65af55b48ebdf7e17d6d5749,2024-01-23_08h13.33.304,bars,2023.2.3,Win32,3.158559697,657b66ea316d21385b68909f,,,,,,,,,,,3257.9448,3258.8368,,,3259.1466,3259.4545,,146,146,,,,,,,,,,,,,,,,bars/027.png,bars/mask002.png,,,,,,,,,,,,0,1,,,,,,,2,2,4,1,,,,,,,,,,,3258.8369,3259.1465,3259.4545,3261.253,space,1.5109,,3261.253,36,84,3262.1611,3262.1611,3262.1638,,,,0,26,26,26,1,110,50,,,,,,,,
,,6145f19d669f7dfef751d076,65af55b48ebdf7e17d6d5749,2024-01-23_08h13.33.304,bars,2023.2.3,Win32,3.158559697,657b66ea316d21385b68909f,,,,,,,,,,,3262.1645,3263.0601,,,3263.3668,3263.6721,,54,54,,,,,,,,,,,,,,,,bars/032.png,bars/mask008.png,,,,,,,,,,,,0,2,,,,,,,0,4,0,4,,,,,,,,,,,3263.0602,3263.3668,3263.6722,3264.8656,space,0.9,0.0003,3264.8657,71,34,3265.7887,3265.7887,3265.7915,,,,0,27,27,27,1,125,20,,,,,,,,
,,6145f19d669f7dfef751d076,65af55b48ebdf7e17d6d5749,2024-01-23_08h13.33.304,bars,2023.2.3,Win32,3.158559697,657b66ea316d21385b68909f,,,,,,,,,,,3265.7922,3266.6738,,,3266.9841,3267.2996,,122,122,,,,,,,,,,,,,,,,bars/034.png,bars/mask001.png,,,,,,,,,,,,0,1,,,,,,,0,6,0,4,,,,,,,,,,,3266.6738,3266.984,3267.2996,3268.2295,space,0.6301,,3268.2296,3,57,3269.1544,3269.1544,3269.1568,,,,0,28,28,28,1,125,65,,,,,,,,
,,6145f19d669f7dfef751d076,65af55b48ebdf7e17d6d5749,2024-01-23_08h13.33.304,bars,2023.2.3,Win32,3.158559697,657b66ea316d21385b68909f,,,,,,,,,,,3269.1574,3270.082,,,3270.3985,3270.7155,,12,12,,,,,,,,,,,,,,,,bars/032.png,bars/mask001.png,,,,,,,,,,,,6,2,,,,,,,2,8,2,8,,,,,,,,,,,3270.0821,3270.3985,3270.7155,3272.2993,space,1.2658,0.0002,3272.2994,67,8,3273.2323,3273.2324,3273.2349,,,,0,29,29,29,1,125,20,,,,,,,,
,,6145f19d669f7dfef751d076,65af55b48ebdf7e17d6d5749,2024-01-23_08h13.33.304,bars,2023.2.3,Win32,3.158559697,657b66ea316d21385b68909f,,,,,,,,,,,3273.2352,3274.1705,,,3274.4902,3274.8167,,176,176,,,,,,,,,,,,,,,,bars/011.png,bars/mask004.png,,,,,,,,,,,,2,1,,,,,,,4,10,5,9,,,,,,,,,,,3274.1705,3274.4902,3274.8168,3276.0722,space,0.9536,0.0002,3276.0723,16,89,3277.0211,3277.0211,3277.0237,,,,0,30,30,30,1,160,85,,,,,,,,
,,6145f19d669f7dfef751d076,65af55b48ebdf7e17d6d5749,2024-01-23_08h13.33.304,bars,2023.2.3,Win32,3.158559697,657b66ea316d21385b68909f,,,,,,,,,,,3277.0243,3278.0141,,,3278.3541,3278.3553,,120,120,,,,,,,,,,,,,,,,bars/038.png,bars/mask000.png,,,,,,,,,,,,0,1,,,,,,,2,10,3,10,,,,,,,,,,,3278.0142,3278.3541,3278.3553,3279.7315,space,1.0598,,3279.7315,45,50,3280.7262,3280.7263,3280.7274,,,,0,31,31,31,1,165,70,,,,,,,,
,,6145f19d669f7dfef751d076,65af55b48ebdf7e17d6d5749,2024-01-23_08h13.33.304,bars,2023.2.3,Win32,3.158559697,657b66ea316d21385b68909f,,,,,,,,,,,3280.7279,3281.7281,,,3282.0675,3282.0684,,133,133,,,,,,,,,,,,,,,,bars/020.png,bars/mask000.png,,,,,,,,,,,,2,1,,,,,,,4,8,4,7,,,,,,,,,,,3281.7281,3282.0674,3282.0685,3283.3878,space,1.004,0.0004,3283.3878,18,37,3284.3677,3284.3677,3284.3687,,,,0,32,32,32,1,115,170,,,,,,,,
,,6145f19d669f7dfef751d076,65af55b48ebdf7e17d6d5749,2024-01-23_08h13.33.304,bars,2023.2.3,Win32,3.158559697,657b66ea316d21385b68909f,,,,,,,,,,,3284.3692,3285.3522,,,3285.6893,3285.6903,,26,26,,,,,,,,,,,,,,,,bars/019.png,bars/mask005.png,,,,,,,,,,,,1,1,,,,,,,2,6,2,6,,,,,,,,,,,3285.3523,3285.6892,3285.6903,3287.0183,space,1.0063,,3287.0183,19,79,3288.0838,3288.0838,3288.085,,,,0,33,33,33,1,45,105,,,,,,,,
,,6145f19d669f7dfef751d076,65af55b48ebdf7e17d6d5749,2024-01-23_08h13.33.304,bars,2023.2.3,Win32,3.158559697,657b66ea316d21385b68909f,,,,,,,,,,,3288.0855,3289.1258,,,3289.4848,3289.4856,,98,98,,,,,,,,,,,,,,,,bars/037.png,bars/mask005.png,,,,,,,,,,,,1,2,,,,,,,0,4,0,1,,,,,,,,,,,3289.1259,3289.4847,3289.4856,3291.2039,space,1.3799,0.0004,3291.204,52,7,3292.2313,3292.2313,3292.2341,,,,0,34,34,34,1,150,105,,,,,,,,
,,6145f19d669f7dfef751d076,65af55b48ebdf7e17d6d5749,2024-01-23_08h13.33.304,bars,2023.2.3,Win32,3.158559697,657b66ea316d21385b68909f,,,,,,,,,,,3292.2347,3293.2619,,,3293.6189,3293.62,,98,98,,,,,,,,,,,,,,,,bars/028.png,bars/mask004.png,,,,,,,,,,,,1,2,,,,,,,2,2,2,2,,,,,,,,,,,3293.262,3293.6188,3293.62,3294.6569,space,0.6975,0.0004,3294.6569,53,22,3295.6985,3295.6986,3295.6998,,,,0,35,35,35,1,45,120,,,,,,,,
,,6145f19d669f7dfef751d076,65af55b48ebdf7e17d6d5749,2024-01-23_08h13.33.304,bars,2023.2.3,Win32,3.158559697,657b66ea316d21385b68909f,,,,,,,,,,,3295.7003,3296.7303,,,3297.0892,3297.464,,80,80,,,,,,,,,,,,,,,,bars/046.png,bars/mask002.png,,,,,,,,,,,,1,2,,,,,,,0,0,0,1,,,,,,,,,,,3296.7303,3297.0892,3297.464,3297.8497,space,0.0111,,3297.8497,75,5,3298.9586,3298.9586,3298.9598,,,,0,36,36,36,1,155,85,,,,,,,,
,,6145f19d669f7dfef751d076,65af55b48ebdf7e17d6d5749,2024-01-23_08h13.33.304,bars,2023.2.3,Win32,3.158559697,657b66ea316d21385b68909f,,,,,,,,,,,3298.9604,3299.6967,,,3300.0805,3300.0815,,116,116,,,,,,,,,,,,,,,,bars/035.png,bars/mask006.png,,,,,,,,,,,,0,2,,,,,,,2,2,2,1,,,,,,,,,,,3299.6968,3300.0804,3300.0816,3302.6571,space,2.2158,0.0003,3302.6571,59,56,3303.4075,3303.4075,3303.4088,,,,0,37,37,37,1,175,60,,,,,,,,
,,6145f19d669f7dfef751d076,65af55b48ebdf7e17d6d5749,2024-01-23_08h13.33.304,bars,2023.2.3,Win32,3.158559697,657b66ea316d21385b68909f,,,,,,,,,,,3303.4093,3304.1498,,,3304.5266,3304.5277,,20,20,,,,,,,,,,,,,,,,bars/036.png,bars/mask000.png,,,,,,,,,,,,0,2,,,,,,,4,0,3,0,,,,,,,,,,,3304.1498,3304.5266,3304.5277,3306.3696,space,1.4765,0.0003,3306.3696,55,0,3307.1195,3307.1195,3307.1207,,,,0,38,38,38,1,145,20,,,,,,,,
,,6145f19d669f7dfef751d076,65af55b48ebdf7e17d6d5749,2024-01-23_08h13.33.304,bars,2023.2.3,Win32,3.158559697,657b66ea316d21385b68909f,,,,,,,,,,,3307.1212,3307.9155,,,3308.3282,3308.3295,,44,44,,,,,,,,,,,,,,,,bars/031.png,bars/mask008.png,,,,,,,,,,,,1,2,,,,,,,2,2,3,1,,,,,,,,,,,3307.9156,3308.3282,3308.3295,3309.9262,space,1.2135,0.0003,3309.9263,76,9,3310.7178,3310.7179,3310.7191,,,,0,39,39,39,1,120,35,,,,,,,,
,,6145f19d669f7dfef751d076,65af55b48ebdf7e17d6d5749,2024-01-23_08h13.33.304,bars,2023.2.3,Win32,3.158559697,657b66ea316d21385b68909f,,,,,,,,,,,3310.7199,3311.521,,,3311.9397,3311.9403,,158,158,,,,,,,,,,,,,,,,bars/006.png,bars/mask007.png,,,,,,,,,,,,0,1,,,,,,,0,0,0,0,,,,,,,,,,,3311.5214,3311.9396,3311.9403,3313.1433,space,0.8148,0.0003,3313.1434,57,58,3313.9332,3313.9333,3313.9363,,,,0,40,40,40,1,35,100,,,,,,,,
,,6145f19d669f7dfef751d076,65af55b48ebdf7e17d6d5749,2024-01-23_08h13.33.304,bars,2023.2.3,Win32,3.158559697,657b66ea316d21385b68909f,,,,,,,,,,,3313.937,3314.7204,,,3315.137,3315.1381,,115,115,,,,,,,,,,,,,,,,bars/008.png,bars/mask000.png,,,,,,,,,,,,2,1,,,,,,,2,0,2,0,,,,,,,,,,,3314.7204,3315.137,3315.1381,3316.3508,space,0.8315,0.0003,3316.3509,5,65,3317.1552,3317.1552,3317.1564,,,,0,41,41,41,1,110,0,,,,,,,,
,,6145f19d669f7dfef751d076,65af55b48ebdf7e17d6d5749,2024-01-23_08h13.33.304,bars,2023.2.3,Win32,3.158559697,657b66ea316d21385b68909f,,,,,,,,,,,3317.157,3318.0674,,,3318.539,3318.5398,,170,170,,,,,,,,,,,,,,,,bars/005.png,bars/mask003.png,,,,,,,,,,,,0,1,,,,,,,0,2,1,0,,,,,,,,,,,3318.0674,3318.5389,3318.5398,3319.4685,space,0.4828,,3319.4686,20,30,3320.3714,3320.3714,3320.3727,,,,0,42,42,42,1,10,140,,,,,,,,
,,6145f19d669f7dfef751d076,65af55b48ebdf7e17d6d5749,2024-01-23_08h13.33.304,bars,2023.2.3,Win32,3.158559697,657b66ea316d21385b68909f,,,,,,,,,,,3320.3731,3321.2682,,,3321.7227,3321.7234,,63,63,,,,,,,,,,,,,,,,bars/018.png,bars/mask008.png,,,,,,,,,,,,0,2,,,,,,,0,0,0,0,,,,,,,,,,,3321.2682,3321.7226,3321.7234,3323.068,space,0.9084,0.0005,3323.068,87,27,3323.9648,3323.9648,3323.9682,,,,0,43,43,43,1,150,90,,,,,,,,
,,6145f19d669f7dfef751d076,65af55b48ebdf7e17d6d5749,2024-01-23_08h13.33.304,bars,2023.2.3,Win32,3.158559697,657b66ea316d21385b68909f,,,,,,,,,,,3323.9689,3324.8642,,,3325.3344,3325.3372,,143,143,,,,,,,,,,,,,,,,bars/026.png,bars/mask006.png,,,,,,,,,,,,0,2,,,,,,,2,0,0,1,,,,,,,,,,,3324.8643,3325.3343,3325.3373,3326.6973,space,0.9049,0.0003,3326.6974,72,58,3327.501,3327.5011,3327.5021,,,,0,44,44,44,1,35,85,,,,,,,,
,,6145f19d669f7dfef751d076,65af55b48ebdf7e17d6d5749,2024-01-23_08h13.33.304,bars,2023.2.3,Win32,3.158559697,657b66ea316d21385b68909f,,,,,,,,,,,3327.5024,3328.2403,,,3328.6182,3328.6193,,80,80,,,,,,,,,,,,,,,,bars/025.png,bars/mask003.png,,,,,,,,,,,,0,1,,,,,,,0,2,1,2,,,,,,,,,,,3328.2404,3328.6182,3328.6193,3328.9916,space,0.0105,,3328.9916,25,40,3329.731,3329.7311,3329.7338,,,,0,45,45,45,1,105,40,,,,,,,,
,,6145f19d669f7dfef751d076,65af55b48ebdf7e17d6d5749,2024-01-23_08h13.33.304,bars,2023.2.3,Win32,3.158559697,657b66ea316d21385b68909f,,,,,,,,,,,3329.7345,3330.4672,,,3330.8537,3330.8544,,43,43,,,,,,,,,,,,,,,,bars/022.png,bars/mask003.png,,,,,,,,,,,,1,2,,,,,,,0,4,1,5,,,,,,,,,,,3330.4672,3330.8536,3330.8544,3331.9631,space,0.7476,0.0004,3331.9632,52,23,3332.6971,3332.6972,3332.7074,,,,0,46,46,46,1,95,20,,,,,,,,
,,6145f19d669f7dfef751d076,65af55b48ebdf7e17d6d5749,2024-01-23_08h13.33.304,bars,2023.2.3,Win32,3.158559697,657b66ea316d21385b68909f,,,,,,,,,,,3332.708,3333.4396,,,3333.8534,3333.8542,,117,117,,,,,,,,,,,,,,,,bars/017.png,bars/mask001.png,,,,,,,,,,,,0,1,,,,,,,0,2,0,2,,,,,,,,,,,3333.4396,3333.8534,3333.8542,3334.5808,space,0.3766,0.0003,3334.5808,28,72,3335.3327,3335.3328,3335.3359,,,,0,47,47,47,1,145,45,,,,,,,,
,,6145f19d669f7dfef751d076,65af55b48ebdf7e17d6d5749,2024-01-23_08h13.33.304,bars,2023.2.3,Win32,3.158559697,657b66ea316d21385b68909f,,,,,,,,,,,3335.3365,3336.0737,,,3336.4788,3336.4798,,43,43,,,,,,,,,,,,,,,,bars/044.png,bars/mask009.png,,,,,,,,,,,,0,1,,,,,,,0,0,1,0,,,,,,,,,,,3336.0738,3336.4787,3336.4798,3337.2077,space,0.367,0.0002,3337.2077,32,68,3338.1692,3338.1692,3338.1701,,,,0,48,48,48,1,75,155,,,,,,,,
,,6145f19d669f7dfef751d076,65af55b48ebdf7e17d6d5749,2024-01-23_08h13.33.304,bars,2023.2.3,Win32,3.158559697,657b66ea316d21385b68909f,,,,,,,,,,,3338.1704,3339.1441,,,3339.4853,3339.8258,,139,139,,,,,,,,,,,,,,,,bars/032.png,bars/mask001.png,,,,,,,,,,,,2,1,,,,,,,2,2,4,1,,,,,,,,,,,3339.1441,3339.4852,3339.8258,3347.6326,space,7.4896,0.0003,3347.6326,14,61,3348.5263,3348.5264,3348.5275,,,,0,49,49,49,1,125,20,,,,,,,,
,,6145f19d669f7dfef751d076,65af55b48ebdf7e17d6d5749,2024-01-23_08h13.33.304,bars,2023.2.3,Win32,3.158559697,657b66ea316d21385b68909f,,,,,,,,,,,,,,,,,,,,,,,,,,,,,,,,,,,,,,,,,,,,,,,,,,,,,,,,,,,,,,,,,,,,,,,,,,,,,,,,,,,,,,,,,,,,,3348.5277,3408.5116,0,3,3,3,1,sequence_tables/blk044.csv
,,6145f19d669f7dfef751d076,65af55b48ebdf7e17d6d5749,2024-01-23_08h13.33.304,bars,2023.2.3,Win32,3.158559697,657b66ea316d21385b68909f,,,,,,,,,,,3412.5842,3413.4693,,,3413.9303,3413.9315,,53,53,,,,,,,,,,,,,,,,bars/028.png,bars/mask008.png,,,,,,,,,,,,7,1,,,,,,,9,4,9,4,,,,,,3408.5289,3412.5758,space,3.6049,0.0004,3413.4693,3413.9303,3413.9315,3421.858,space,7.4954,,3421.858,8,67,3422.5909,3422.591,3422.6058,,,,0,0,0,0,1,45,120,,,,,,,,
,,6145f19d669f7dfef751d076,65af55b48ebdf7e17d6d5749,2024-01-23_08h13.33.304,bars,2023.2.3,Win32,3.158559697,657b66ea316d21385b68909f,,,,,,,,,,,3422.6061,3423.3365,,,3423.7127,3423.7138,,56,56,,,,,,,,,,,,,,,,bars/034.png,bars/mask000.png,,,,,,,,,,,,0,2,,,,,,,7,2,7,0,,,,,,,,,,,3423.3366,3423.7127,3423.7138,3425.1817,space,1.1126,0.0004,3425.1818,69,9,3425.9233,3425.9235,3425.9265,,,,0,1,1,1,1,125,65,,,,,,,,
,,6145f19d669f7dfef751d076,65af55b48ebdf7e17d6d5749,2024-01-23_08h13.33.304,bars,2023.2.3,Win32,3.158559697,657b66ea316d21385b68909f,,,,,,,,,,,3425.9271,3426.6524,,,3427.039,3427.0402,,103,103,,,,,,,,,,,,,,,,bars/012.png,bars/mask005.png,,,,,,,,,,,,5,1,,,,,,,9,0,8,1,,,,,,,,,,,3426.6526,3427.0389,3427.0403,3429.0122,space,1.6423,,3429.0122,13,88,3429.9803,3429.9803,3429.983,,,,0,2,2,2,1,90,15,,,,,,,,
,,6145f19d669f7dfef751d076,65af55b48ebdf7e17d6d5749,2024-01-23_08h13.33.304,bars,2023.2.3,Win32,3.158559697,657b66ea316d21385b68909f,,,,,,,,,,,3429.9836,3430.9564,,,3431.2864,3431.6295,,44,44,,,,,,,,,,,,,,,,bars/018.png,bars/mask003.png,,,,,,,,,,,,0,2,,,,,,,7,2,8,2,,,,,,,,,,,3430.9565,3431.2863,3431.6296,3433.9794,space,2.0315,,3433.9795,74,46,3434.9614,3434.9615,3434.9646,,,,0,3,3,3,1,150,90,,,,,,,,
,,6145f19d669f7dfef751d076,65af55b48ebdf7e17d6d5749,2024-01-23_08h13.33.304,bars,2023.2.3,Win32,3.158559697,657b66ea316d21385b68909f,,,,,,,,,,,3434.9651,3435.9451,,,3436.2746,3436.6239,,127,127,,,,,,,,,,,,,,,,bars/003.png,bars/mask005.png,,,,,,,,,,,,2,2,,,,,,,9,4,9,4,,,,,,,,,,,3435.9451,3436.2745,3436.624,3437.8542,space,0.9187,,3437.8542,78,13,3438.7311,3438.7312,3438.7322,,,,0,4,4,4,1,25,140,,,,,,,,
,,6145f19d669f7dfef751d076,65af55b48ebdf7e17d6d5749,2024-01-23_08h13.33.304,bars,2023.2.3,Win32,3.158559697,657b66ea316d21385b68909f,,,,,,,,,,,3438.7325,3439.6187,,,3439.9229,3440.232,,13,13,,,,,,,,,,,,,,,,bars/037.png,bars/mask007.png,,,,,,,,,,,,0,1,,,,,,,10,6,10,6,,,,,,,,,,,3439.6188,3439.9229,3440.232,3441.1278,space,0.6077,0.0003,3441.1279,43,88,3442.0218,3442.0218,3442.0242,,,,0,5,5,5,1,150,105,,,,,,,,
,,6145f19d669f7dfef751d076,65af55b48ebdf7e17d6d5749,2024-01-23_08h13.33.304,bars,2023.2.3,Win32,3.158559697,657b66ea316d21385b68909f,,,,,,,,,,,3442.0248,3442.9171,,,3443.2212,3443.5271,,164,164,,,,,,,,,,,,,,,,bars/022.png,bars/mask005.png,,,,,,,,,,,,0,2,,,,,,,8,4,9,6,,,,,,,,,,,3442.9171,3443.2211,3443.5272,3443.842,space,0.0106,,3443.8421,69,36,3444.7357,3444.7357,3444.738,,,,0,6,6,6,1,95,20,,,,,,,,
