init_variables.started,init_variables.stopped,participant,session,date,expName,psychopyVersion,OS,frameRate,study_id,instruction_exp.started,instruction_exp.stopped,key_resp_8.keys,key_resp_8.rt,key_resp_8.duration,instruction_single.started,instruction_single.stopped,key_resp_2.keys,key_resp_2.rt,key_resp_2.duration,interval.started,interval.stopped,cue_single.started,cue_single.stopped,mask.started,mask.stopped,ori_response_single.started,res_ori,res,ori_response_single.stopped,key_resp_single.keys,key_resp_single.rt,key_resp_single.duration,disp_single.started,disp_single.stopped,key_resp.keys,key_resp.rt,key_resp.duration,single.thisRepN,single.thisTrialN,single.thisN,single.thisIndex,single.ran,ori,path,mask_path,instruction_bandit.started,instruction_bandit.stopped,key_resp_6.keys,key_resp_6.rt,key_resp_6.duration,cue_bandit.started,cue_bandit.stopped,bandit_res.keys,bandit_res.rt,bandit_res.duration,outcome_bandit.started,rew,action,outcome_bandit.stopped,bandit.thisRepN,bandit.thisTrialN,bandit.thisN,bandit.thisIndex,bandit.ran,actual_rew1,actual_rew2,rew1,rew2,instruction_task.started,instruction_task.stopped,key_resp_7.keys,key_resp_7.rt,key_resp_7.duration,wait_ready.started,wait_ready.stopped,key_resp_3.keys,key_resp_3.rt,key_resp_3.duration,cue.started,cue.stopped,ori_response.started,ori_response.stopped,key_resp_5.keys,key_resp_5.rt,key_resp_5.duration,outcome.started,diff1,diff2,outcome.stopped,disp_outcome_practice.started,disp_outcome_practice.stopped,key_resp_4.keys,key_resp_4.rt,key_resp_4.duration,trials.thisRepN,trials.thisTrialN,trials.thisN,trials.thisIndex,trials.ran,ori1,ori2,break_blk.started,break_blk.stopped,block.thisRepN,block.thisTrialN,block.thisN,block.thisIndex,block.ran,condition_file
0.0009,0.0014,655f5b9a4b521ef46a13b82a,65af538691bb652b9495ba5f,2024-01-23_07h56.42.227,bars,2023.2.3,Win32,62.11180124,657b66ea316d21385b68909f,,,,,,,,,,,,,,,,,,,,,,,,,,,,,,,,,,,,,,,,,,,,,,,,,,,,,,,,,,,,,,,,,,,,,,,,,,,,,,,,,,,,,,,,,,,,,,,,,,,,
,,655f5b9a4b521ef46a13b82a,65af538691bb652b9495ba5f,2024-01-23_07h56.42.227,bars,2023.2.3,Win32,62.11180124,657b66ea316d21385b68909f,0.0021,7.1823,y,7.151,,,,,,,,,,,,,,,,,,,,,,,,,,,,,,,,,,,,,,,,,,,,,,,,,,,,,,,,,,,,,,,,,,,,,,,,,,,,,,,,,,,,,,,,,,,,,,,,
,,655f5b9a4b521ef46a13b82a,65af538691bb652b9495ba5f,2024-01-23_07h56.42.227,bars,2023.2.3,Win32,62.11180124,657b66ea316d21385b68909f,,,,,,7.1827,27.6198,space,20.4124,,,,,,,,,,,,,,,,,,,,,,,,,,,,,,,,,,,,,,,,,,,,,,,,,,,,,,,,,,,,,,,,,,,,,,,,,,,,,,,,,,,,,,,,,,,
,,655f5b9a4b521ef46a13b82a,65af538691bb652b9495ba5f,2024-01-23_07h56.42.227,bars,2023.2.3,Win32,62.11180124,657b66ea316d21385b68909f,,,,,,,,,,,27.6366,28.6312,28.6316,29.122,29.1226,29.3714,29.3717,90,90,38.9384,space,9.5188,,38.9393,47.3336,space,8.3514,,0,0,0,8,1,160,bars/single008.png,bars/mask004.png,,,,,,,,,,,,,,,,,,,,,,,,,,,,,,,,,,,,,,,,,,,,,,,,,,,,,,,,,,,,,,,,
,,655f5b9a4b521ef46a13b82a,65af538691bb652b9495ba5f,2024-01-23_07h56.42.227,bars,2023.2.3,Win32,62.11180124,657b66ea316d21385b68909f,,,,,,,,,,,47.35,48.336,48.3362,48.8361,48.8363,49.0858,49.086,0,180,53.6028,space,4.5027,,53.6029,56.7874,space,3.1518,,0,1,1,9,1,20,bars/single009.png,bars/mask006.png,,,,,,,,,,,,,,,,,,,,,,,,,,,,,,,,,,,,,,,,,,,,,,,,,,,,,,,,,,,,,,,,
,,655f5b9a4b521ef46a13b82a,65af538691bb652b9495ba5f,2024-01-23_07h56.42.227,bars,2023.2.3,Win32,62.11180124,657b66ea316d21385b68909f,,,,,,,,,,,56.7883,57.7868,57.7869,58.287,58.2873,58.537,58.5371,22,22,62.7865,space,4.2338,,62.7866,65.2032,space,2.3832,,0,2,2,7,1,45,bars/single007.png,bars/mask009.png,,,,,,,,,,,,,,,,,,,,,,,,,,,,,,,,,,,,,,,,,,,,,,,,,,,,,,,,,,,,,,,,
,,655f5b9a4b521ef46a13b82a,65af538691bb652b9495ba5f,2024-01-23_07h56.42.227,bars,2023.2.3,Win32,62.11180124,657b66ea316d21385b68909f,,,,,,,,,,,65.2163,66.2034,66.2034,66.7029,66.703,66.9534,66.9534,164,-16,70.2873,space,3.3214,,70.2875,73.7367,space,3.4164,,0,3,3,6,1,175,bars/single006.png,bars/mask005.png,,,,,,,,,,,,,,,,,,,,,,,,,,,,,,,,,,,,,,,,,,,,,,,,,,,,,,,,,,,,,,,,
,,655f5b9a4b521ef46a13b82a,65af538691bb652b9495ba5f,2024-01-23_07h56.42.227,bars,2023.2.3,Win32,62.11180124,657b66ea316d21385b68909f,,,,,,,,,,,73.7496,74.7521,74.7522,75.2527,75.2528,75.5026,75.5027,125,-55,79.6037,space,4.0868,,79.6038,82.4846,space,2.8498,,0,4,4,2,1,145,bars/single002.png,bars/mask003.png,,,,,,,,,,,,,,,,,,,,,,,,,,,,,,,,,,,,,,,,,,,,,,,,,,,,,,,,,,,,,,,,
,,655f5b9a4b521ef46a13b82a,65af538691bb652b9495ba5f,2024-01-23_07h56.42.227,bars,2023.2.3,Win32,62.11180124,657b66ea316d21385b68909f,,,,,,,,,,,82.4864,83.484,83.4841,83.9847,83.9849,84.234,84.234,156,-24,88.4341,space,4.1852,,88.4343,90.0861,space,1.6154,,0,5,5,0,1,150,bars/single000.png,bars/mask006.png,,,,,,,,,,,,,,,,,,,,,,,,,,,,,,,,,,,,,,,,,,,,,,,,,,,,,,,,,,,,,,,,
,,655f5b9a4b521ef46a13b82a,65af538691bb652b9495ba5f,2024-01-23_07h56.42.227,bars,2023.2.3,Win32,62.11180124,657b66ea316d21385b68909f,,,,,,,,,,,90.0872,91.0848,91.0848,91.5848,91.5849,91.8346,91.8346,33,213,94.7861,space,2.9361,,94.7863,96.2015,space,1.3974,,0,6,6,3,1,20,bars/single003.png,bars/mask005.png,,,,,,,,,,,,,,,,,,,,,,,,,,,,,,,,,,,,,,,,,,,,,,,,,,,,,,,,,,,,,,,,
,,655f5b9a4b521ef46a13b82a,65af538691bb652b9495ba5f,2024-01-23_07h56.42.227,bars,2023.2.3,Win32,62.11180124,657b66ea316d21385b68909f,,,,,,,,,,,96.2021,97.202,97.2021,97.7016,97.7019,97.9511,97.9512,19,19,100.8519,space,2.887,,100.852,102.871,space,2.0032,,0,7,7,5,1,55,bars/single005.png,bars/mask008.png,,,,,,,,,,,,,,,,,,,,,,,,,,,,,,,,,,,,,,,,,,,,,,,,,,,,,,,,,,,,,,,,
,,655f5b9a4b521ef46a13b82a,65af538691bb652b9495ba5f,2024-01-23_07h56.42.227,bars,2023.2.3,Win32,62.11180124,657b66ea316d21385b68909f,,,,,,,,,,,102.8718,103.8679,103.868,104.3678,104.3679,104.6178,104.6179,174,174,107.4674,space,2.8332,,107.4677,109.368,space,1.868,,0,8,8,1,1,20,bars/single001.png,bars/mask006.png,,,,,,,,,,,,,,,,,,,,,,,,,,,,,,,,,,,,,,,,,,,,,,,,,,,,,,,,,,,,,,,,
,,655f5b9a4b521ef46a13b82a,65af538691bb652b9495ba5f,2024-01-23_07h56.42.227,bars,2023.2.3,Win32,62.11180124,657b66ea316d21385b68909f,,,,,,,,,,,109.3687,110.3675,110.3676,110.8674,110.8675,111.1178,111.1178,76,76,113.6346,space,2.5031,,113.6347,115.4173,space,1.7516,,0,9,9,4,1,95,bars/single004.png,bars/mask004.png,,,,,,,,,,,,,,,,,,,,,,,,,,,,,,,,,,,,,,,,,,,,,,,,,,,,,,,,,,,,,,,,
,,655f5b9a4b521ef46a13b82a,65af538691bb652b9495ba5f,2024-01-23_07h56.42.227,bars,2023.2.3,Win32,62.11180124,657b66ea316d21385b68909f,,,,,,,,,,,,,,,,,,,,,,,,,,,,,,,,,,,,,115.4188,135.4503,space,20.0041,,,,,,,,,,,,,,,,,,,,,,,,,,,,,,,,,,,,,,,,,,,,,,,,,,,,,,,,,,,,
,,655f5b9a4b521ef46a13b82a,65af538691bb652b9495ba5f,2024-01-23_07h56.42.227,bars,2023.2.3,Win32,62.11180124,657b66ea316d21385b68909f,,,,,,,,,,,,,,,,,,,,,,,,,,,,,,,,,,,,,,,,,,135.4563,140.5172,right,5.0248,,140.5176,2,2,141.5153,0,0,0,0,1,9,1,9,2,,,,,,,,,,,,,,,,,,,,,,,,,,,,,,,,,,,,,,,,,
,,655f5b9a4b521ef46a13b82a,65af538691bb652b9495ba5f,2024-01-23_07h56.42.227,bars,2023.2.3,Win32,62.11180124,657b66ea316d21385b68909f,,,,,,,,,,,,,,,,,,,,,,,,,,,,,,,,,,,,,,,,,,141.5175,142.8176,left,1.2886,,142.8177,10,1,143.8154,0,1,1,1,1,10,0,10,1,,,,,,,,,,,,,,,,,,,,,,,,,,,,,,,,,,,,,,,,,
,,655f5b9a4b521ef46a13b82a,65af538691bb652b9495ba5f,2024-01-23_07h56.42.227,bars,2023.2.3,Win32,62.11180124,657b66ea316d21385b68909f,,,,,,,,,,,,,,,,,,,,,,,,,,,,,,,,,,,,,,,,,,143.8317,144.6935,left,0.8508,,144.6935,10,1,145.692,0,2,2,2,1,10,2,10,2,,,,,,,,,,,,,,,,,,,,,,,,,,,,,,,,,,,,,,,,,
,,655f5b9a4b521ef46a13b82a,65af538691bb652b9495ba5f,2024-01-23_07h56.42.227,bars,2023.2.3,Win32,62.11180124,657b66ea316d21385b68909f,,,,,,,,,,,,,,,,,,,,,,,,,,,,,,,,,,,,,,,,,,145.6936,146.3608,right,0.6529,,146.3608,3,2,147.3647,0,3,3,3,1,8,4,7,3,,,,,,,,,,,,,,,,,,,,,,,,,,,,,,,,,,,,,,,,,
,,655f5b9a4b521ef46a13b82a,65af538691bb652b9495ba5f,2024-01-23_07h56.42.227,bars,2023.2.3,Win32,62.11180124,657b66ea316d21385b68909f,,,,,,,,,,,,,,,,,,,,,,,,,,,,,,,,,,,,,,,,,,147.3664,147.8651,left,0.4853,,147.8655,5,1,148.8643,0,4,4,4,1,6,2,5,1,,,,,,,,,,,,,,,,,,,,,,,,,,,,,,,,,,,,,,,,,
,,655f5b9a4b521ef46a13b82a,65af538691bb652b9495ba5f,2024-01-23_07h56.42.227,bars,2023.2.3,Win32,62.11180124,657b66ea316d21385b68909f,,,,,,,,,,,,,,,,,,,,,,,,,,,,,,,,,,,,,,,,,,148.8661,149.5815,right,0.7034,,149.5816,4,2,150.581,0,5,5,5,1,4,4,4,4,,,,,,,,,,,,,,,,,,,,,,,,,,,,,,,,,,,,,,,,,
,,655f5b9a4b521ef46a13b82a,65af538691bb652b9495ba5f,2024-01-23_07h56.42.227,bars,2023.2.3,Win32,62.11180124,657b66ea316d21385b68909f,,,,,,,,,,,,,,,,,,,,,,,,,,,,,,,,,,,,,,,,,,150.5826,151.2155,right,0.6196,,151.2155,2,2,152.2145,0,6,6,6,1,2,2,1,2,,,,,,,,,,,,,,,,,,,,,,,,,,,,,,,,,,,,,,,,,
,,655f5b9a4b521ef46a13b82a,65af538691bb652b9495ba5f,2024-01-23_07h56.42.227,bars,2023.2.3,Win32,62.11180124,657b66ea316d21385b68909f,,,,,,,,,,,,,,,,,,,,,,,,,,,,,,,,,,,,,,,,,,152.216,152.7152,left,0.4841,,152.7154,0,1,153.7152,0,7,7,7,1,0,0,0,1,,,,,,,,,,,,,,,,,,,,,,,,,,,,,,,,,,,,,,,,,
,,655f5b9a4b521ef46a13b82a,65af538691bb652b9495ba5f,2024-01-23_07h56.42.227,bars,2023.2.3,Win32,62.11180124,657b66ea316d21385b68909f,,,,,,,,,,,,,,,,,,,,,,,,,,,,,,,,,,,,,,,,,,153.7166,154.2985,right,0.5715,,154.2987,0,2,155.2975,0,8,8,8,1,0,2,1,0,,,,,,,,,,,,,,,,,,,,,,,,,,,,,,,,,,,,,,,,,
,,655f5b9a4b521ef46a13b82a,65af538691bb652b9495ba5f,2024-01-23_07h56.42.227,bars,2023.2.3,Win32,62.11180124,657b66ea316d21385b68909f,,,,,,,,,,,,,,,,,,,,,,,,,,,,,,,,,,,,,,,,,,155.2989,156.1812,right,0.8685,,156.1812,3,2,157.1809,0,9,9,9,1,2,4,2,3,,,,,,,,,,,,,,,,,,,,,,,,,,,,,,,,,,,,,,,,,
,,655f5b9a4b521ef46a13b82a,65af538691bb652b9495ba5f,2024-01-23_07h56.42.227,bars,2023.2.3,Win32,62.11180124,657b66ea316d21385b68909f,,,,,,,,,,,,,,,,,,,,,,,,,,,,,,,,,,,,,,,,,,157.1828,157.6645,left,0.4676,,157.6647,0,1,158.6637,0,10,10,10,1,0,2,0,3,,,,,,,,,,,,,,,,,,,,,,,,,,,,,,,,,,,,,,,,,
,,655f5b9a4b521ef46a13b82a,65af538691bb652b9495ba5f,2024-01-23_07h56.42.227,bars,2023.2.3,Win32,62.11180124,657b66ea316d21385b68909f,,,,,,,,,,,,,,,,,,,,,,,,,,,,,,,,,,,,,,,,,,158.6653,159.0495,left,0.3733,,159.0496,0,1,160.047,0,11,11,11,1,0,4,0,3,,,,,,,,,,,,,,,,,,,,,,,,,,,,,,,,,,,,,,,,,
,,655f5b9a4b521ef46a13b82a,65af538691bb652b9495ba5f,2024-01-23_07h56.42.227,bars,2023.2.3,Win32,62.11180124,657b66ea316d21385b68909f,,,,,,,,,,,,,,,,,,,,,,,,,,,,,,,,,,,,,,,,,,160.0487,160.5308,right,0.4683,,160.531,6,2,161.531,0,12,12,12,1,2,6,1,6,,,,,,,,,,,,,,,,,,,,,,,,,,,,,,,,,,,,,,,,,
,,655f5b9a4b521ef46a13b82a,65af538691bb652b9495ba5f,2024-01-23_07h56.42.227,bars,2023.2.3,Win32,62.11180124,657b66ea316d21385b68909f,,,,,,,,,,,,,,,,,,,,,,,,,,,,,,,,,,,,,,,,,,161.5325,162.0491,right,0.5041,,162.0493,3,2,163.0475,0,13,13,13,1,0,4,1,3,,,,,,,,,,,,,,,,,,,,,,,,,,,,,,,,,,,,,,,,,
,,655f5b9a4b521ef46a13b82a,65af538691bb652b9495ba5f,2024-01-23_07h56.42.227,bars,2023.2.3,Win32,62.11180124,657b66ea316d21385b68909f,,,,,,,,,,,,,,,,,,,,,,,,,,,,,,,,,,,,,,,,,,163.0493,163.6322,left,0.5716,,163.6322,2,1,164.6303,0,14,14,14,1,2,6,2,7,,,,,,,,,,,,,,,,,,,,,,,,,,,,,,,,,,,,,,,,,
,,655f5b9a4b521ef46a13b82a,65af538691bb652b9495ba5f,2024-01-23_07h56.42.227,bars,2023.2.3,Win32,62.11180124,657b66ea316d21385b68909f,,,,,,,,,,,,,,,,,,,,,,,,,,,,,,,,,,,,,,,,,,164.6319,165.2976,left,0.6525,,165.2977,3,1,166.2972,0,15,15,15,1,4,8,3,9,,,,,,,,,,,,,,,,,,,,,,,,,,,,,,,,,,,,,,,,,
,,655f5b9a4b521ef46a13b82a,65af538691bb652b9495ba5f,2024-01-23_07h56.42.227,bars,2023.2.3,Win32,62.11180124,657b66ea316d21385b68909f,,,,,,,,,,,,,,,,,,,,,,,,,,,,,,,,,,,,,,,,,,166.2989,166.8146,right,0.5007,,166.8147,7,2,167.8138,0,16,16,16,1,6,6,7,7,,,,,,,,,,,,,,,,,,,,,,,,,,,,,,,,,,,,,,,,,
,,655f5b9a4b521ef46a13b82a,65af538691bb652b9495ba5f,2024-01-23_07h56.42.227,bars,2023.2.3,Win32,62.11180124,657b66ea316d21385b68909f,,,,,,,,,,,,,,,,,,,,,,,,,,,,,,,,,,,,,,,,,,167.8158,168.3162,right,0.4896,,168.3163,5,2,169.3136,0,17,17,17,1,8,4,9,5,,,,,,,,,,,,,,,,,,,,,,,,,,,,,,,,,,,,,,,,,
,,655f5b9a4b521ef46a13b82a,65af538691bb652b9495ba5f,2024-01-23_07h56.42.227,bars,2023.2.3,Win32,62.11180124,657b66ea316d21385b68909f,,,,,,,,,,,,,,,,,,,,,,,,,,,,,,,,,,,,,,,,,,169.3157,169.9812,left,0.6505,,169.9814,5,1,170.9801,0,18,18,18,1,6,2,5,1,,,,,,,,,,,,,,,,,,,,,,,,,,,,,,,,,,,,,,,,,
,,655f5b9a4b521ef46a13b82a,65af538691bb652b9495ba5f,2024-01-23_07h56.42.227,bars,2023.2.3,Win32,62.11180124,657b66ea316d21385b68909f,,,,,,,,,,,,,,,,,,,,,,,,,,,,,,,,,,,,,,,,,,170.9819,171.6971,left,0.7021,,171.6972,7,1,172.697,0,19,19,19,1,8,0,7,0,,,,,,,,,,,,,,,,,,,,,,,,,,,,,,,,,,,,,,,,,
,,655f5b9a4b521ef46a13b82a,65af538691bb652b9495ba5f,2024-01-23_07h56.42.227,bars,2023.2.3,Win32,62.11180124,657b66ea316d21385b68909f,,,,,,,,,,,,,,,,,,,,,,,,,,,,,,,,,,,,,,,,,,,,,,,,,,,,,,,,,,,,172.6988,183.0813,space,10.3573,,,,,,,,,,,,,,,,,,,,,,,,,,,,,,,,,,,,,
,,655f5b9a4b521ef46a13b82a,65af538691bb652b9495ba5f,2024-01-23_07h56.42.227,bars,2023.2.3,Win32,62.11180124,657b66ea316d21385b68909f,,,,,,,,,,,184.6408,185.6289,,,186.1242,186.3627,,50,50,,,,,,,,,,,,,,,,bars/034.png,bars/mask002.png,,,,,,,,,,,,2,2,,,,,,,7,2,8,3,,,,,,183.1036,184.6301,space,1.5057,,185.6296,186.1241,186.3632,189.3302,space,2.9438,,189.3307,75,15,190.3231,190.3234,194.6641,space,4.3145,,0,0,0,0,1,125,65,,,,,,,,
,,655f5b9a4b521ef46a13b82a,65af538691bb652b9495ba5f,2024-01-23_07h56.42.227,bars,2023.2.3,Win32,62.11180124,657b66ea316d21385b68909f,,,,,,,,,,,194.6799,195.6736,,,196.1624,196.4116,,156,-24,,,,,,,,,,,,,,,,bars/033.png,bars/mask008.png,,,,,,,,,,,,5,2,,,,,,,9,4,8,5,,,,,,,,,,,195.6736,196.1622,196.4118,201.912,space,5.4851,,201.9126,49,1,202.9117,202.9118,205.8415,space,2.9011,,0,1,1,1,1,25,155,,,,,,,,
,,655f5b9a4b521ef46a13b82a,65af538691bb652b9495ba5f,2024-01-23_07h56.42.227,bars,2023.2.3,Win32,62.11180124,657b66ea316d21385b68909f,,,,,,,,,,,205.8575,206.845,,,207.3452,207.5953,,17,17,,,,,,,,,,,,,,,,bars/032.png,bars/mask009.png,,,,,,,,,,,,5,2,,,,,,,7,6,6,6,,,,,,,,,,,206.8452,207.345,207.5955,209.097,space,1.4891,,209.0971,72,3,210.0958,210.0961,211.2792,space,1.1653,,0,2,2,2,1,125,20,,,,,,,,
,,655f5b9a4b521ef46a13b82a,65af538691bb652b9495ba5f,2024-01-23_07h56.42.227,bars,2023.2.3,Win32,62.11180124,657b66ea316d21385b68909f,,,,,,,,,,,211.2802,212.2781,,,212.7787,213.0285,,36,216,,,,,,,,,,,,,,,,bars/030.png,bars/mask004.png,,,,,,,,,,,,0,2,,,,,,,5,8,6,9,,,,,,,,,,,212.2782,212.7786,213.0287,217.7463,space,4.7005,,217.7463,76,29,218.7455,218.7455,221.1402,space,2.367,,0,3,3,3,1,140,65,,,,,,,,
,,655f5b9a4b521ef46a13b82a,65af538691bb652b9495ba5f,2024-01-23_07h56.42.227,bars,2023.2.3,Win32,62.11180124,657b66ea316d21385b68909f,,,,,,,,,,,221.1411,222.1352,,,222.6336,222.8866,,5,5,,,,,,,,,,,,,,,,bars/012.png,bars/mask003.png,,,,,,,,,,,,4,2,,,,,,,3,6,2,6,,,,,,,,,,,222.1354,222.6335,222.8868,227.4902,space,4.5868,,227.4903,85,10,228.4947,228.4949,230.0204,space,1.4965,,0,4,4,4,1,90,15,,,,,,,,
,,655f5b9a4b521ef46a13b82a,65af538691bb652b9495ba5f,2024-01-23_07h56.42.227,bars,2023.2.3,Win32,62.11180124,657b66ea316d21385b68909f,,,,,,,,,,,230.0211,231.0219,,,231.5222,231.7616,,14,194,,,,,,,,,,,,,,,,bars/015.png,bars/mask007.png,,,,,,,,,,,,0,2,,,,,,,5,4,4,5,,,,,,,,,,,231.0221,231.5222,231.7617,234.4619,space,2.6846,,234.4619,84,34,235.4614,235.4616,238.0288,space,2.5345,,0,5,5,5,1,110,160,,,,,,,,
,,655f5b9a4b521ef46a13b82a,65af538691bb652b9495ba5f,2024-01-23_07h56.42.227,bars,2023.2.3,Win32,62.11180124,657b66ea316d21385b68909f,,,,,,,,,,,238.0297,239.028,,,239.528,239.7777,,177,177,,,,,,,,,,,,,,,,bars/012.png,bars/mask003.png,,,,,,,,,,,,1,2,,,,,,,3,2,3,3,,,,,,,,,,,239.0281,239.5279,239.7778,242.7805,space,2.9911,,242.7806,87,18,243.7777,243.7778,245.1117,space,1.2998,,0,6,6,6,1,90,15,,,,,,,,
,,655f5b9a4b521ef46a13b82a,65af538691bb652b9495ba5f,2024-01-23_07h56.42.227,bars,2023.2.3,Win32,62.11180124,657b66ea316d21385b68909f,,,,,,,,,,,245.1123,246.1104,,,246.6108,246.8609,,13,193,,,,,,,,,,,,,,,,bars/014.png,bars/mask006.png,,,,,,,,,,,,2,2,,,,,,,1,4,2,3,,,,,,,,,,,246.1105,246.6106,246.8612,248.9769,space,2.1022,,248.9772,67,13,249.9775,249.9776,251.4272,space,1.4148,,0,7,7,7,1,80,0,,,,,,,,
,,655f5b9a4b521ef46a13b82a,65af538691bb652b9495ba5f,2024-01-23_07h56.42.227,bars,2023.2.3,Win32,62.11180124,657b66ea316d21385b68909f,,,,,,,,,,,251.4279,252.4275,,,252.9273,253.1772,,46,226,,,,,,,,,,,,,,,,bars/035.png,bars/mask000.png,,,,,,,,,,,,2,2,,,,,,,0,2,0,3,,,,,,,,,,,252.4275,252.9272,253.1773,259.7935,space,6.5994,,259.7936,51,14,260.7931,260.7932,261.9454,space,1.1162,,0,8,8,8,1,175,60,,,,,,,,
,,655f5b9a4b521ef46a13b82a,65af538691bb652b9495ba5f,2024-01-23_07h56.42.227,bars,2023.2.3,Win32,62.11180124,657b66ea316d21385b68909f,,,,,,,,,,,261.9463,262.9416,,,263.4433,263.6926,,110,110,,,,,,,,,,,,,,,,bars/021.png,bars/mask000.png,,,,,,,,,,,,0,2,,,,,,,0,4,0,5,,,,,,,,,,,262.9418,263.4431,263.6928,267.0595,space,3.3519,,267.0596,45,40,268.0581,268.0584,269.3601,space,1.2664,,0,9,9,9,1,155,70,,,,,,,,
,,655f5b9a4b521ef46a13b82a,65af538691bb652b9495ba5f,2024-01-23_07h56.42.227,bars,2023.2.3,Win32,62.11180124,657b66ea316d21385b68909f,,,,,,,,,,,269.3609,270.3593,,,270.859,271.1094,,58,58,,,,,,,,,,,,,,,,bars/001.png,bars/mask001.png,,,,,,,,,,,,1,2,,,,,,,0,6,0,6,,,,,,,,,,,270.3594,270.8589,271.1094,276.4435,space,5.3183,,276.4436,72,27,277.4426,277.4427,278.3782,space,0.9002,,0,10,10,10,1,130,85,,,,,,,,
,,655f5b9a4b521ef46a13b82a,65af538691bb652b9495ba5f,2024-01-23_07h56.42.227,bars,2023.2.3,Win32,62.11180124,657b66ea316d21385b68909f,,,,,,,,,,,278.3806,279.3748,,,279.8753,280.1242,,95,95,,,,,,,,,,,,,,,,bars/018.png,bars/mask006.png,,,,,,,,,,,,7,2,,,,,,,2,8,2,8,,,,,,,,,,,279.3749,279.8752,280.1244,283.208,space,3.0693,,283.2082,55,5,284.2075,284.2076,285.2375,space,1.0009,,0,11,11,11,1,150,90,,,,,,,,
,,655f5b9a4b521ef46a13b82a,65af538691bb652b9495ba5f,2024-01-23_07h56.42.227,bars,2023.2.3,Win32,62.11180124,657b66ea316d21385b68909f,,,,,,,,,,,285.2386,286.2353,,,286.7319,286.9855,,176,176,,,,,,,,,,,,,,,,bars/033.png,bars/mask003.png,,,,,,,,,,,,2,2,,,,,,,4,6,5,6,,,,,,,,,,,286.2354,286.7318,286.9858,291.0702,space,4.0691,,291.0704,29,21,292.0587,292.0588,292.6454,space,0.5567,,0,12,12,12,1,25,155,,,,,,,,
,,655f5b9a4b521ef46a13b82a,65af538691bb652b9495ba5f,2024-01-23_07h56.42.227,bars,2023.2.3,Win32,62.11180124,657b66ea316d21385b68909f,,,,,,,,,,,292.6459,293.642,,,294.1421,294.3914,,18,198,,,,,,,,,,,,,,,,bars/015.png,bars/mask009.png,,,,,,,,,,,,0,2,,,,,,,2,8,1,8,,,,,,,,,,,293.642,294.142,294.3915,299.9589,space,5.5517,,299.959,88,38,300.9582,300.9582,301.6089,space,0.6173,,0,13,13,13,1,110,160,,,,,,,,
,,655f5b9a4b521ef46a13b82a,65af538691bb652b9495ba5f,2024-01-23_07h56.42.227,bars,2023.2.3,Win32,62.11180124,657b66ea316d21385b68909f,,,,,,,,,,,301.6096,302.6082,,,303.1083,303.3577,,125,-55,,,,,,,,,,,,,,,,bars/006.png,bars/mask005.png,,,,,,,,,,,,2,2,,,,,,,4,10,3,10,,,,,,,,,,,302.6083,303.1083,303.3578,307.0915,space,3.719,,307.0916,90,25,308.0915,308.0917,308.5771,space,0.4557,,0,14,14,14,1,35,100,,,,,,,,
,,655f5b9a4b521ef46a13b82a,65af538691bb652b9495ba5f,2024-01-23_07h56.42.227,bars,2023.2.3,Win32,62.11180124,657b66ea316d21385b68909f,,,,,,,,,,,308.5778,309.575,,,310.0746,310.3246,,177,-3,,,,,,,,,,,,,,,,bars/024.png,bars/mask009.png,,,,,,,,,,,,7,2,,,,,,,2,10,3,9,,,,,,,,,,,309.575,310.0746,310.3246,313.4605,space,3.1249,,313.4605,57,7,314.4578,314.4579,315.0746,space,0.5828,,0,15,15,15,1,120,170,,,,,,,,
,,655f5b9a4b521ef46a13b82a,65af538691bb652b9495ba5f,2024-01-23_07h56.42.227,bars,2023.2.3,Win32,62.11180124,657b66ea316d21385b68909f,,,,,,,,,,,315.0755,316.0742,,,316.5741,316.8243,,53,233,,,,,,,,,,,,,,,,bars/026.png,bars/mask002.png,,,,,,,,,,,,0,1,,,,,,,0,10,0,8,,,,,,,,,,,316.0742,316.574,316.8244,321.0604,space,4.2249,,321.0605,18,32,322.0574,322.0575,322.6572,space,0.5606,,0,16,16,16,1,35,85,,,,,,,,
,,655f5b9a4b521ef46a13b82a,65af538691bb652b9495ba5f,2024-01-23_07h56.42.227,bars,2023.2.3,Win32,62.11180124,657b66ea316d21385b68909f,,,,,,,,,,,322.6584,323.6558,,,324.156,324.4063,,179,179,,,,,,,,,,,,,,,,bars/040.png,bars/mask004.png,,,,,,,,,,,,8,2,,,,,,,2,8,2,10,,,,,,,,,,,323.6559,324.1559,324.4064,327.4891,space,3.0687,,327.4893,39,6,328.4892,328.4893,329.1069,space,0.5823,,0,17,17,17,1,140,5,,,,,,,,
,,655f5b9a4b521ef46a13b82a,65af538691bb652b9495ba5f,2024-01-23_07h56.42.227,bars,2023.2.3,Win32,62.11180124,657b66ea316d21385b68909f,,,,,,,,,,,329.1079,330.106,,,330.6061,330.8559,,5,185,,,,,,,,,,,,,,,,bars/016.png,bars/mask004.png,,,,,,,,,,,,3,2,,,,,,,4,10,5,10,,,,,,,,,,,330.1061,330.6059,330.8561,335.0729,space,4.2048,,335.0732,35,20,336.0719,336.0721,336.6347,space,0.5342,,0,18,18,18,1,40,165,,,,,,,,
,,655f5b9a4b521ef46a13b82a,65af538691bb652b9495ba5f,2024-01-23_07h56.42.227,bars,2023.2.3,Win32,62.11180124,657b66ea316d21385b68909f,,,,,,,,,,,336.6358,337.6326,,,338.1232,338.3735,,75,75,,,,,,,,,,,,,,,,bars/011.png,bars/mask009.png,,,,,,,,,,,,7,2,,,,,,,6,10,5,10,,,,,,,,,,,337.6326,338.1231,338.3736,341.507,space,3.119,,341.5072,85,10,342.5072,342.5074,343.0388,space,0.4998,,0,19,19,19,1,160,85,,,,,,,,
,,655f5b9a4b521ef46a13b82a,65af538691bb652b9495ba5f,2024-01-23_07h56.42.227,bars,2023.2.3,Win32,62.11180124,657b66ea316d21385b68909f,,,,,,,,,,,343.0405,344.0386,,,344.5386,344.7879,,108,108,,,,,,,,,,,,,,,,bars/009.png,bars/mask002.png,,,,,,,,,,,,9,2,,,,,,,8,10,9,10,,,,,,,,,,,344.0386,344.5384,344.7881,347.039,space,2.2353,,347.0391,87,3,348.0385,348.0387,348.6344,space,0.5682,,0,20,20,20,1,15,105,,,,,,,,
,,655f5b9a4b521ef46a13b82a,65af538691bb652b9495ba5f,2024-01-23_07h56.42.227,bars,2023.2.3,Win32,62.11180124,657b66ea316d21385b68909f,,,,,,,,,,,348.6355,349.6326,,,350.1326,350.3825,,22,202,,,,,,,,,,,,,,,,bars/040.png,bars/mask002.png,,,,,,,,,,,,4,2,,,,,,,6,8,6,10,,,,,,,,,,,349.6326,350.1324,350.3826,353.8835,space,3.4852,,353.8835,62,17,354.8816,354.8817,355.3727,space,0.4633,,0,21,21,21,1,140,5,,,,,,,,
,,655f5b9a4b521ef46a13b82a,65af538691bb652b9495ba5f,2024-01-23_07h56.42.227,bars,2023.2.3,Win32,62.11180124,657b66ea316d21385b68909f,,,,,,,,,,,355.3742,356.3652,,,356.8649,357.1155,,61,61,,,,,,,,,,,,,,,,bars/011.png,bars/mask001.png,,,,,,,,,,,,1,2,,,,,,,4,6,6,5,,,,,,,,,,,356.3653,356.8649,357.1157,359.483,space,2.3515,,359.483,81,24,360.4814,360.4814,361.0216,space,0.5107,,0,22,22,22,1,160,85,,,,,,,,
,,655f5b9a4b521ef46a13b82a,65af538691bb652b9495ba5f,2024-01-23_07h56.42.227,bars,2023.2.3,Win32,62.11180124,657b66ea316d21385b68909f,,,,,,,,,,,361.0233,362.0211,,,362.5209,362.7705,,172,-8,,,,,,,,,,,,,,,,bars/040.png,bars/mask008.png,,,,,,,,,,,,5,2,,,,,,,2,8,2,8,,,,,,,,,,,362.0212,362.5208,362.7706,366.4384,space,3.6486,,366.4386,32,13,367.438,367.4381,368.1576,space,0.6888,,0,23,23,23,1,140,5,,,,,,,,
,,655f5b9a4b521ef46a13b82a,65af538691bb652b9495ba5f,2024-01-23_07h56.42.227,bars,2023.2.3,Win32,62.11180124,657b66ea316d21385b68909f,,,,,,,,,,,368.1584,369.1547,,,369.6549,369.9049,,57,237,,,,,,,,,,,,,,,,bars/039.png,bars/mask008.png,,,,,,,,,,,,0,2,,,,,,,4,10,4,10,,,,,,,,,,,369.1548,369.6547,369.905,374.9226,space,5.0013,,374.9226,62,48,375.9213,375.9215,376.4571,space,0.5052,,0,24,24,24,1,175,105,,,,,,,,
,,655f5b9a4b521ef46a13b82a,65af538691bb652b9495ba5f,2024-01-23_07h56.42.227,bars,2023.2.3,Win32,62.11180124,657b66ea316d21385b68909f,,,,,,,,,,,376.4579,377.4528,,,377.954,378.2028,,63,63,,,,,,,,,,,,,,,,bars/035.png,bars/mask003.png,,,,,,,,,,,,6,2,,,,,,,2,8,3,7,,,,,,,,,,,377.453,377.9539,378.2028,379.9532,space,1.7346,,379.9533,68,3,380.9534,380.9536,381.6713,space,0.6834,,0,25,25,25,1,175,60,,,,,,,,
,,655f5b9a4b521ef46a13b82a,65af538691bb652b9495ba5f,2024-01-23_07h56.42.227,bars,2023.2.3,Win32,62.11180124,657b66ea316d21385b68909f,,,,,,,,,,,381.672,382.6705,,,383.1706,383.4204,,68,68,,,,,,,,,,,,,,,,bars/026.png,bars/mask000.png,,,,,,,,,,,,4,2,,,,,,,0,10,0,10,,,,,,,,,,,382.6706,383.1704,383.4205,386.3215,space,2.8848,,386.3216,33,17,387.3204,387.3205,388.1037,space,0.7519,,0,26,26,26,1,35,85,,,,,,,,
,,655f5b9a4b521ef46a13b82a,65af538691bb652b9495ba5f,2024-01-23_07h56.42.227,bars,2023.2.3,Win32,62.11180124,657b66ea316d21385b68909f,,,,,,,,,,,388.1049,389.103,,,389.6032,389.8521,,160,-20,,,,,,,,,,,,,,,,bars/020.png,bars/mask007.png,,,,,,,,,,,,7,2,,,,,,,2,10,2,10,,,,,,,,,,,389.1031,389.6031,389.8523,392.2565,space,2.3905,,392.2566,45,10,393.253,393.2532,393.8025,space,0.5116,,0,27,27,27,1,115,170,,,,,,,,
,,655f5b9a4b521ef46a13b82a,65af538691bb652b9495ba5f,2024-01-23_07h56.42.227,bars,2023.2.3,Win32,62.11180124,657b66ea316d21385b68909f,,,,,,,,,,,393.8044,394.8025,,,395.3024,395.5529,,116,116,,,,,,,,,,,,,,,,bars/009.png,bars/mask009.png,,,,,,,,,,,,6,2,,,,,,,0,10,1,10,,,,,,,,,,,394.8027,395.3023,395.553,398.4024,space,2.8347,,398.4024,79,11,399.4027,399.4027,399.9317,space,0.5009,,0,28,28,28,1,15,105,,,,,,,,
,,655f5b9a4b521ef46a13b82a,65af538691bb652b9495ba5f,2024-01-23_07h56.42.227,bars,2023.2.3,Win32,62.11180124,657b66ea316d21385b68909f,,,,,,,,,,,399.9329,400.9298,,,401.4292,401.6796,,52,52,,,,,,,,,,,,,,,,bars/026.png,bars/mask002.png,,,,,,,,,,,,1,1,,,,,,,0,8,2,8,,,,,,,,,,,400.9298,401.4292,401.6796,405.9313,space,4.2349,,405.9315,17,33,406.928,406.9283,407.4142,space,0.4514,,0,29,29,29,1,35,85,,,,,,,,
,,655f5b9a4b521ef46a13b82a,65af538691bb652b9495ba5f,2024-01-23_07h56.42.227,bars,2023.2.3,Win32,62.11180124,657b66ea316d21385b68909f,,,,,,,,,,,407.415,408.4131,,,408.9029,409.1531,,80,80,,,,,,,,,,,,,,,,bars/042.png,bars/mask000.png,,,,,,,,,,,,8,2,,,,,,,0,10,0,10,,,,,,,,,,,408.4132,408.9028,409.1532,410.6861,space,1.516,,410.6861,65,5,411.6863,411.6865,412.9548,space,1.2476,,0,30,30,30,1,145,75,,,,,,,,
,,655f5b9a4b521ef46a13b82a,65af538691bb652b9495ba5f,2024-01-23_07h56.42.227,bars,2023.2.3,Win32,62.11180124,657b66ea316d21385b68909f,,,,,,,,,,,412.9559,413.9529,,,414.4531,414.7028,,53,53,,,,,,,,,,,,,,,,bars/029.png,bars/mask006.png,,,,,,,,,,,,7,2,,,,,,,0,10,0,9,,,,,,,,,,,413.9529,414.453,414.7028,417.1858,space,2.47,,417.1859,37,8,418.186,418.186,418.6717,space,0.4717,,0,31,31,31,1,90,45,,,,,,,,
,,655f5b9a4b521ef46a13b82a,65af538691bb652b9495ba5f,2024-01-23_07h56.42.227,bars,2023.2.3,Win32,62.11180124,657b66ea316d21385b68909f,,,,,,,,,,,418.6723,419.6688,,,420.17,420.419,,41,41,,,,,,,,,,,,,,,,bars/031.png,bars/mask001.png,,,,,,,,,,,,6,2,,,,,,,0,8,0,8,,,,,,,,,,,419.6688,420.1698,420.4191,423.2864,space,2.8551,,423.2865,79,6,424.2856,424.2857,424.7856,space,0.4682,,0,32,32,32,1,120,35,,,,,,,,
,,655f5b9a4b521ef46a13b82a,65af538691bb652b9495ba5f,2024-01-23_07h56.42.227,bars,2023.2.3,Win32,62.11180124,657b66ea316d21385b68909f,,,,,,,,,,,424.7862,425.7856,,,426.2858,426.5355,,41,221,,,,,,,,,,,,,,,,bars/030.png,bars/mask004.png,,,,,,,,,,,,1,2,,,,,,,0,6,0,6,,,,,,,,,,,425.7857,426.2857,426.5355,430.352,space,3.8016,,430.3521,81,24,431.3519,431.352,431.8398,space,0.4574,,0,33,33,33,1,140,65,,,,,,,,
,,655f5b9a4b521ef46a13b82a,65af538691bb652b9495ba5f,2024-01-23_07h56.42.227,bars,2023.2.3,Win32,62.11180124,657b66ea316d21385b68909f,,,,,,,,,,,431.8408,432.8351,,,433.3354,433.5855,,92,92,,,,,,,,,,,,,,,,bars/047.png,bars/mask002.png,,,,,,,,,,,,1,2,,,,,,,0,4,0,3,,,,,,,,,,,432.8352,433.3352,433.5856,435.2544,space,1.6576,,435.2544,77,22,436.2517,436.2517,436.7379,space,0.4716,,0,34,34,34,1,15,70,,,,,,,,
,,655f5b9a4b521ef46a13b82a,65af538691bb652b9495ba5f,2024-01-23_07h56.42.227,bars,2023.2.3,Win32,62.11180124,657b66ea316d21385b68909f,,,,,,,,,,,436.7385,437.7348,,,438.235,438.4855,,49,49,,,,,,,,,,,,,,,,bars/007.png,bars/mask002.png,,,,,,,,,,,,1,2,,,,,,,2,2,4,1,,,,,,,,,,,437.7349,438.2349,438.4856,441.0013,space,2.5017,,441.0015,54,6,442.0014,442.0014,442.5858,space,0.5512,,0,35,35,35,1,175,55,,,,,,,,
,,655f5b9a4b521ef46a13b82a,65af538691bb652b9495ba5f,2024-01-23_07h56.42.227,bars,2023.2.3,Win32,62.11180124,657b66ea316d21385b68909f,,,,,,,,,,,442.5872,443.5848,,,444.0843,444.3345,,24,24,,,,,,,,,,,,,,,,bars/025.png,bars/mask001.png,,,,,,,,,,,,0,2,,,,,,,0,0,2,0,,,,,,,,,,,443.585,444.0842,444.3346,446.4683,space,2.1188,,446.4684,81,16,447.4679,447.468,450.0203,space,2.5234,,0,36,36,36,1,105,40,,,,,,,,
,,655f5b9a4b521ef46a13b82a,65af538691bb652b9495ba5f,2024-01-23_07h56.42.227,bars,2023.2.3,Win32,62.11180124,657b66ea316d21385b68909f,,,,,,,,,,,450.0212,451.0176,,,451.5176,451.7698,,108,108,,,,,,,,,,,,,,,,bars/026.png,bars/mask000.png,,,,,,,,,,,,0,2,,,,,,,0,2,0,1,,,,,,,,,,,451.0176,451.5174,451.7699,454.3175,space,2.5334,,454.3178,73,23,455.3177,455.3179,455.8995,space,0.5486,,0,37,37,37,1,35,85,,,,,,,,
,,655f5b9a4b521ef46a13b82a,65af538691bb652b9495ba5f,2024-01-23_07h56.42.227,bars,2023.2.3,Win32,62.11180124,657b66ea316d21385b68909f,,,,,,,,,,,455.9015,456.8993,,,457.3997,457.6491,,109,109,,,,,,,,,,,,,,,,bars/041.png,bars/mask009.png,,,,,,,,,,,,0,2,,,,,,,2,4,3,2,,,,,,,,,,,456.8996,457.3996,457.6492,460.8822,space,3.218,,460.8824,89,24,461.8829,461.883,462.3783,space,0.468,,0,38,38,38,1,20,85,,,,,,,,
,,655f5b9a4b521ef46a13b82a,65af538691bb652b9495ba5f,2024-01-23_07h56.42.227,bars,2023.2.3,Win32,62.11180124,657b66ea316d21385b68909f,,,,,,,,,,,462.3792,463.377,,,463.8762,464.1271,,154,154,,,,,,,,,,,,,,,,bars/037.png,bars/mask000.png,,,,,,,,,,,,3,1,,,,,,,4,2,3,1,,,,,,,,,,,463.3771,463.8762,464.1271,467.2953,space,3.153,,467.2954,4,49,468.2835,468.2836,468.8659,space,0.544,,0,39,39,39,1,150,105,,,,,,,,
,,655f5b9a4b521ef46a13b82a,65af538691bb652b9495ba5f,2024-01-23_07h56.42.227,bars,2023.2.3,Win32,62.11180124,657b66ea316d21385b68909f,,,,,,,,,,,468.8677,469.8656,,,470.366,470.6155,,113,113,,,,,,,,,,,,,,,,bars/005.png,bars/mask004.png,,,,,,,,,,,,0,2,,,,,,,6,0,5,0,,,,,,,,,,,469.8657,470.3659,470.6156,472.2016,space,1.5722,,472.2017,77,27,473.1987,473.1988,473.6654,space,0.4294,,0,40,40,40,1,10,140,,,,,,,,
,,655f5b9a4b521ef46a13b82a,65af538691bb652b9495ba5f,2024-01-23_07h56.42.227,bars,2023.2.3,Win32,62.11180124,657b66ea316d21385b68909f,,,,,,,,,,,473.6674,474.6655,,,475.1656,475.4155,,6,186,,,,,,,,,,,,,,,,bars/040.png,bars/mask009.png,,,,,,,,,,,,3,2,,,,,,,8,2,10,3,,,,,,,,,,,474.6657,475.1656,475.4155,478.7347,space,3.306,,478.7348,46,1,479.7311,479.7312,480.3894,space,0.6303,,0,41,41,41,1,140,5,,,,,,,,
,,655f5b9a4b521ef46a13b82a,65af538691bb652b9495ba5f,2024-01-23_07h56.42.227,bars,2023.2.3,Win32,62.11180124,657b66ea316d21385b68909f,,,,,,,,,,,480.3909,481.3874,,,481.8891,482.1405,,113,113,,,,,,,,,,,,,,,,bars/045.png,bars/mask005.png,,,,,,,,,,,,4,1,,,,,,,6,4,7,4,,,,,,,,,,,481.3875,481.889,482.1406,485.7596,space,3.6021,,485.7597,13,77,486.7478,486.7478,488.1438,space,1.3521,,0,42,42,42,1,100,10,,,,,,,,
,,655f5b9a4b521ef46a13b82a,65af538691bb652b9495ba5f,2024-01-23_07h56.42.227,bars,2023.2.3,Win32,62.11180124,657b66ea316d21385b68909f,,,,,,,,,,,488.145,489.1423,,,489.6425,489.893,,41,41,,,,,,,,,,,,,,,,bars/028.png,bars/mask008.png,,,,,,,,,,,,3,1,,,,,,,4,6,4,6,,,,,,,,,,,489.1424,489.6425,489.893,491.0991,space,1.1908,,491.0992,4,79,492.0995,492.0996,492.8319,space,0.7143,,0,43,43,43,1,45,120,,,,,,,,
,,655f5b9a4b521ef46a13b82a,65af538691bb652b9495ba5f,2024-01-23_07h56.42.227,bars,2023.2.3,Win32,62.11180124,657b66ea316d21385b68909f,,,,,,,,,,,492.833,493.8307,,,494.3312,494.5811,,156,156,,,,,,,,,,,,,,,,bars/023.png,bars/mask002.png,,,,,,,,,,,,0,2,,,,,,,6,8,5,9,,,,,,,,,,,493.8308,494.3311,494.5813,496.6482,space,2.0511,,496.6483,44,41,497.6472,497.6474,499.047,space,1.3593,,0,44,44,44,1,20,115,,,,,,,,
,,655f5b9a4b521ef46a13b82a,65af538691bb652b9495ba5f,2024-01-23_07h56.42.227,bars,2023.2.3,Win32,62.11180124,657b66ea316d21385b68909f,,,,,,,,,,,499.0475,500.0473,,,500.5474,500.7976,,23,23,,,,,,,,,,,,,,,,bars/032.png,bars/mask006.png,,,,,,,,,,,,9,2,,,,,,,8,10,7,10,,,,,,,,,,,500.0475,500.5473,500.7977,503.1973,space,2.3835,,503.1976,78,3,504.1973,504.1973,504.7106,space,0.4824,,0,45,45,45,1,125,20,,,,,,,,
,,655f5b9a4b521ef46a13b82a,65af538691bb652b9495ba5f,2024-01-23_07h56.42.227,bars,2023.2.3,Win32,62.11180124,657b66ea316d21385b68909f,,,,,,,,,,,504.7118,505.7077,,,506.2089,506.4582,,15,195,,,,,,,,,,,,,,,,bars/015.png,bars/mask009.png,,,,,,,,,,,,0,2,,,,,,,6,8,5,9,,,,,,,,,,,505.7079,506.2089,506.4583,508.7769,space,2.3009,,508.777,85,35,509.7805,509.7806,512.4985,space,2.6831,,0,46,46,46,1,110,160,,,,,,,,
,,655f5b9a4b521ef46a13b82a,65af538691bb652b9495ba5f,2024-01-23_07h56.42.227,bars,2023.2.3,Win32,62.11180124,657b66ea316d21385b68909f,,,,,,,,,,,512.4995,513.4978,,,513.9982,514.2474,,27,27,,,,,,,,,,,,,,,,bars/029.png,bars/mask008.png,,,,,,,,,,,,3,2,,,,,,,4,6,3,7,,,,,,,,,,,513.4978,513.9982,514.2475,515.5339,space,1.276,,515.5339,63,18,516.5307,516.5307,517.5165,space,0.9716,,0,47,47,47,1,90,45,,,,,,,,
,,655f5b9a4b521ef46a13b82a,65af538691bb652b9495ba5f,2024-01-23_07h56.42.227,bars,2023.2.3,Win32,62.11180124,657b66ea316d21385b68909f,,,,,,,,,,,517.5172,518.5144,,,519.0143,519.2644,,33,33,,,,,,,,,,,,,,,,bars/027.png,bars/mask001.png,,,,,,,,,,,,3,2,,,,,,,6,8,3,8,,,,,,,,,,,518.5144,519.0143,519.2644,521.4148,space,2.1346,,521.4148,77,17,522.4143,522.4144,523.1482,space,0.7147,,0,48,48,48,1,110,50,,,,,,,,
,,655f5b9a4b521ef46a13b82a,65af538691bb652b9495ba5f,2024-01-23_07h56.42.227,bars,2023.2.3,Win32,62.11180124,657b66ea316d21385b68909f,,,,,,,,,,,523.1489,524.1476,,,524.6474,524.8974,,28,208,,,,,,,,,,,,,,,,bars/029.png,bars/mask006.png,,,,,,,,,,,,4,2,,,,,,,4,10,4,10,,,,,,,,,,,524.1478,524.6473,524.8974,528.2144,space,3.3018,,528.2145,62,17,529.2138,529.2138,530.1977,space,0.947,,0,49,49,49,1,90,45,,,,,,,,
,,655f5b9a4b521ef46a13b82a,65af538691bb652b9495ba5f,2024-01-23_07h56.42.227,bars,2023.2.3,Win32,62.11180124,657b66ea316d21385b68909f,,,,,,,,,,,,,,,,,,,,,,,,,,,,,,,,,,,,,,,,,,,,,,,,,,,,,,,,,,,,,,,,,,,,,,,,,,,,,,,,,,,,,,,,,,,,,530.1989,590.1952,0,0,0,1,1,sequence_tables/blk010.csv
,,655f5b9a4b521ef46a13b82a,65af538691bb652b9495ba5f,2024-01-23_07h56.42.227,bars,2023.2.3,Win32,62.11180124,657b66ea316d21385b68909f,,,,,,,,,,,593.4237,594.4273,,,594.9274,595.1773,,109,109,,,,,,,,,,,,,,,,bars/028.png,bars/mask003.png,,,,,,,,,,,,1,2,,,,,,,10,2,9,2,,,,,,590.2105,593.4106,space,3.1855,,594.4274,594.9273,595.1775,598.511,space,3.3183,,598.5111,64,11,599.51,599.5101,599.5249,,,,0,0,0,0,1,45,120,,,,,,,,
,,655f5b9a4b521ef46a13b82a,65af538691bb652b9495ba5f,2024-01-23_07h56.42.227,bars,2023.2.3,Win32,62.11180124,657b66ea316d21385b68909f,,,,,,,,,,,599.5265,600.5275,,,601.0271,601.2764,,65,65,,,,,,,,,,,,,,,,bars/002.png,bars/mask000.png,,,,,,,,,,,,0,2,,,,,,,8,0,8,0,,,,,,,,,,,600.5276,601.027,601.2765,604.0944,space,2.8065,,604.0947,65,20,605.0937,605.0938,605.1102,,,,0,1,1,1,1,130,85,,,,,,,,
,,655f5b9a4b521ef46a13b82a,65af538691bb652b9495ba5f,2024-01-23_07h56.42.227,bars,2023.2.3,Win32,62.11180124,657b66ea316d21385b68909f,,,,,,,,,,,605.1108,606.1103,,,606.6095,606.8597,,47,47,,,,,,,,,,,,,,,,bars/027.png,bars/mask003.png,,,,,,,,,,,,2,2,,,,,,,6,2,4,2,,,,,,,,,,,606.1104,606.6095,606.8597,609.9955,space,3.1258,,609.9955,63,3,610.9931,610.9932,611.0094,,,,0,2,2,2,1,110,50,,,,,,,,
,,655f5b9a4b521ef46a13b82a,65af538691bb652b9495ba5f,2024-01-23_07h56.42.227,bars,2023.2.3,Win32,62.11180124,657b66ea316d21385b68909f,,,,,,,,,,,611.0101,612.0102,,,612.5096,612.7598,,40,40,,,,,,,,,,,,,,,,bars/031.png,bars/mask001.png,,,,,,,,,,,,1,2,,,,,,,8,0,6,1,,,,,,,,,,,612.0102,612.5096,612.7599,616.1269,space,3.3518,,616.127,80,5,617.1263,617.1264,617.1417,,,,0,3,3,3,1,120,35,,,,,,,,
,,655f5b9a4b521ef46a13b82a,65af538691bb652b9495ba5f,2024-01-23_07h56.42.227,bars,2023.2.3,Win32,62.11180124,657b66ea316d21385b68909f,,,,,,,,,,,617.1425,618.144,,,618.643,618.8929,,125,125,,,,,,,,,,,,,,,,bars/003.png,bars/mask001.png,,,,,,,,,,,,1,2,,,,,,,6,2,8,1,,,,,,,,,,,618.144,618.6429,618.893,621.3267,space,2.4186,,621.3268,80,15,622.3256,622.3256,622.3396,,,,0,4,4,4,1,25,140,,,,,,,,
,,655f5b9a4b521ef46a13b82a,65af538691bb652b9495ba5f,2024-01-23_07h56.42.227,bars,2023.2.3,Win32,62.11180124,657b66ea316d21385b68909f,,,,,,,,,,,622.342,623.3428,,,623.8447,624.0926,,28,208,,,,,,,,,,,,,,,,bars/008.png,bars/mask008.png,,,,,,,,,,,,0,2,,,,,,,4,0,6,0,,,,,,,,,,,623.3429,623.8446,624.0926,627.7927,space,3.6851,,627.7927,82,28,628.7925,628.7926,628.8075,,,,0,5,5,5,1,110,0,,,,,,,,
,,655f5b9a4b521ef46a13b82a,65af538691bb652b9495ba5f,2024-01-23_07h56.42.227,bars,2023.2.3,Win32,62.11180124,657b66ea316d21385b68909f,,,,,,,,,,,628.8085,629.8094,,,630.3091,630.5587,,143,143,,,,,,,,,,,,,,,,bars/035.png,bars/mask003.png,,,,,,,,,,,,0,1,,,,,,,2,0,2,1,,,,,,,,,,,629.8096,630.3091,630.559,635.4429,space,4.8683,,635.443,32,83,636.4423,636.4424,636.4605,,,,0,6,6,6,1,175,60,,,,,,,,
,,655f5b9a4b521ef46a13b82a,65af538691bb652b9495ba5f,2024-01-23_07h56.42.227,bars,2023.2.3,Win32,62.11180124,657b66ea316d21385b68909f,,,,,,,,,,,636.4611,637.4586,,,637.9587,638.2081,,73,73,,,,,,,,,,,,,,,,bars/028.png,bars/mask006.png,,,,,,,,,,,,0,1,,,,,,,4,2,4,1,,,,,,,,,,,637.4587,637.9586,638.2082,641.2422,space,3.0183,,641.2424,28,47,642.2419,642.2419,642.2584,,,,0,7,7,7,1,45,120,,,,,,,,
,,655f5b9a4b521ef46a13b82a,65af538691bb652b9495ba5f,2024-01-23_07h56.42.227,bars,2023.2.3,Win32,62.11180124,657b66ea316d21385b68909f,,,,,,,,,,,642.259,643.2583,,,643.7582,644.0085,,47,47,,,,,,,,,,,,,,,,bars/025.png,bars/mask000.png,,,,,,,,,,,,1,2,,,,,,,6,0,6,1,,,,,,,,,,,643.2585,643.7581,644.0086,645.1586,space,1.1357,,645.1586,58,7,646.1581,646.1583,646.1643,,,,0,8,8,8,1,105,40,,,,,,,,
,,655f5b9a4b521ef46a13b82a,65af538691bb652b9495ba5f,2024-01-23_07h56.42.227,bars,2023.2.3,Win32,62.11180124,657b66ea316d21385b68909f,,,,,,,,,,,646.1649,647.1571,,,647.6583,647.9081,,169,169,,,,,,,,,,,,,,,,bars/044.png,bars/mask001.png,,,,,,,,,,,,1,2,,,,,,,4,2,5,2,,,,,,,,,,,647.1572,647.6582,647.9083,650.3085,space,2.3861,,650.3086,86,14,651.3079,651.3079,651.3228,,,,0,9,9,9,1,75,155,,,,,,,,
,,655f5b9a4b521ef46a13b82a,65af538691bb652b9495ba5f,2024-01-23_07h56.42.227,bars,2023.2.3,Win32,62.11180124,657b66ea316d21385b68909f,,,,,,,,,,,651.3242,652.3245,,,652.824,653.074,,23,203,,,,,,,,,,,,,,,,bars/010.png,bars/mask008.png,,,,,,,,,,,,0,2,,,,,,,2,0,2,0,,,,,,,,,,,652.3246,652.824,653.0742,657.7928,space,4.7079,,657.7929,38,32,658.7905,658.7905,658.8044,,,,0,10,10,10,1,165,55,,,,,,,,
,,655f5b9a4b521ef46a13b82a,65af538691bb652b9495ba5f,2024-01-23_07h56.42.227,bars,2023.2.3,Win32,62.11180124,657b66ea316d21385b68909f,,,,,,,,,,,658.807,659.808,,,660.3079,660.5575,,28,28,,,,,,,,,,,,,,,,bars/004.png,bars/mask002.png,,,,,,,,,,,,1,1,,,,,,,0,2,1,4,,,,,,,,,,,659.808,660.3079,660.5575,663.7252,space,3.1548,,663.7252,3,83,664.7238,664.7238,664.7445,,,,0,11,11,11,1,25,125,,,,,,,,
,,655f5b9a4b521ef46a13b82a,65af538691bb652b9495ba5f,2024-01-23_07h56.42.227,bars,2023.2.3,Win32,62.11180124,657b66ea316d21385b68909f,,,,,,,,,,,664.7454,665.74,,,666.2405,666.4901,,156,156,,,,,,,,,,,,,,,,bars/001.png,bars/mask002.png,,,,,,,,,,,,0,1,,,,,,,2,0,2,0,,,,,,,,,,,665.7401,666.2404,666.4901,667.4238,space,0.919,,667.4239,26,71,668.4235,668.4235,668.4419,,,,0,12,12,12,1,130,85,,,,,,,,
,,655f5b9a4b521ef46a13b82a,65af538691bb652b9495ba5f,2024-01-23_07h56.42.227,bars,2023.2.3,Win32,62.11180124,657b66ea316d21385b68909f,,,,,,,,,,,668.4428,669.4401,,,669.9399,670.1901,,29,29,,,,,,,,,,,,,,,,bars/023.png,bars/mask001.png,,,,,,,,,,,,1,1,,,,,,,0,2,1,1,,,,,,,,,,,669.4401,669.9399,670.1902,672.9908,space,2.787,,672.9909,9,86,673.99,673.9901,674.0061,,,,0,13,13,13,1,20,115,,,,,,,,
,,655f5b9a4b521ef46a13b82a,65af538691bb652b9495ba5f,2024-01-23_07h56.42.227,bars,2023.2.3,Win32,62.11180124,657b66ea316d21385b68909f,,,,,,,,,,,674.0068,675.0074,,,675.5061,675.7567,,26,206,,,,,,,,,,,,,,,,bars/019.png,bars/mask003.png,,,,,,,,,,,,0,1,,,,,,,2,0,1,0,,,,,,,,,,,675.0074,675.5059,675.7569,679.6766,space,3.9086,,679.6767,19,79,680.6731,680.6732,680.689,,,,0,14,14,14,1,45,105,,,,,,,,
,,655f5b9a4b521ef46a13b82a,65af538691bb652b9495ba5f,2024-01-23_07h56.42.227,bars,2023.2.3,Win32,62.11180124,657b66ea316d21385b68909f,,,,,,,,,,,680.6897,681.6898,,,682.1896,682.4394,,34,34,,,,,,,,,,,,,,,,bars/036.png,bars/mask004.png,,,,,,,,,,,,2,2,,,,,,,4,2,4,3,,,,,,,,,,,681.6899,682.1896,682.4394,684.4404,space,1.9875,,684.4405,69,14,685.4396,685.4397,685.4608,,,,0,15,15,15,1,145,20,,,,,,,,
,,655f5b9a4b521ef46a13b82a,65af538691bb652b9495ba5f,2024-01-23_07h56.42.227,bars,2023.2.3,Win32,62.11180124,657b66ea316d21385b68909f,,,,,,,,,,,685.4615,686.4562,,,686.9563,687.2063,,76,76,,,,,,,,,,,,,,,,bars/037.png,bars/mask004.png,,,,,,,,,,,,0,2,,,,,,,2,4,2,3,,,,,,,,,,,686.4562,686.9562,687.2063,689.3731,space,2.1514,,689.3732,74,29,690.3726,690.3728,690.3746,,,,0,16,16,16,1,150,105,,,,,,,,
,,655f5b9a4b521ef46a13b82a,65af538691bb652b9495ba5f,2024-01-23_07h56.42.227,bars,2023.2.3,Win32,62.11180124,657b66ea316d21385b68909f,,,,,,,,,,,690.3753,691.3727,,,691.8721,692.1226,,123,123,,,,,,,,,,,,,,,,bars/031.png,bars/mask006.png,,,,,,,,,,,,6,1,,,,,,,4,2,7,4,,,,,,,,,,,691.3728,691.872,692.1227,694.5408,space,2.4072,,694.5409,3,88,695.539,695.539,695.5585,,,,0,17,17,17,1,120,35,,,,,,,,
,,655f5b9a4b521ef46a13b82a,65af538691bb652b9495ba5f,2024-01-23_07h56.42.227,bars,2023.2.3,Win32,62.11180124,657b66ea316d21385b68909f,,,,,,,,,,,695.5591,696.5552,,,697.0559,697.3059,,129,129,,,,,,,,,,,,,,,,bars/036.png,bars/mask006.png,,,,,,,,,,,,3,1,,,,,,,6,4,6,4,,,,,,,,,,,696.5552,697.0557,697.3059,701.3014,space,3.9848,,701.3015,16,71,702.3044,702.3047,702.3199,,,,0,18,18,18,1,145,20,,,,,,,,
,,655f5b9a4b521ef46a13b82a,65af538691bb652b9495ba5f,2024-01-23_07h56.42.227,bars,2023.2.3,Win32,62.11180124,657b66ea316d21385b68909f,,,,,,,,,,,702.3205,703.3148,,,703.8158,704.0658,,156,-24,,,,,,,,,,,,,,,,bars/008.png,bars/mask000.png,,,,,,,,,,,,1,2,,,,,,,4,6,1,6,,,,,,,,,,,703.3149,703.8156,704.066,707.7824,space,3.7018,,707.7825,46,24,708.7808,708.7808,708.7993,,,,0,19,19,19,1,110,0,,,,,,,,
,,655f5b9a4b521ef46a13b82a,65af538691bb652b9495ba5f,2024-01-23_07h56.42.227,bars,2023.2.3,Win32,62.11180124,657b66ea316d21385b68909f,,,,,,,,,,,708.7999,709.8045,,,710.3051,710.554,,139,-41,,,,,,,,,,,,,,,,bars/042.png,bars/mask008.png,,,,,,,,,,,,4,1,,,,,,,6,4,5,5,,,,,,,,,,,709.8051,710.3048,710.5541,715.1569,space,4.5893,,715.157,6,64,716.1529,716.1531,716.1746,,,,0,20,20,20,1,145,75,,,,,,,,
,,655f5b9a4b521ef46a13b82a,65af538691bb652b9495ba5f,2024-01-23_07h56.42.227,bars,2023.2.3,Win32,62.11180124,657b66ea316d21385b68909f,,,,,,,,,,,716.1762,717.1466,,,717.6766,717.9363,,155,-25,,,,,,,,,,,,,,,,bars/046.png,bars/mask007.png,,,,,,,,,,,,8,1,,,,,,,8,2,8,3,,,,,,,,,,,717.1467,717.6766,717.9364,721.9548,space,4.0096,,721.9548,0,70,722.9546,722.9547,722.981,,,,0,21,21,21,1,155,85,,,,,,,,
,,655f5b9a4b521ef46a13b82a,65af538691bb652b9495ba5f,2024-01-23_07h56.42.227,bars,2023.2.3,Win32,62.11180124,657b66ea316d21385b68909f,,,,,,,,,,,722.9823,723.9795,,,724.4747,724.7207,,161,-19,,,,,,,,,,,,,,,,bars/049.png,bars/mask008.png,,,,,,,,,,,,6,1,,,,,,,6,4,6,5,,,,,,,,,,,723.9796,724.4746,724.7207,727.7378,space,3.0039,,727.7379,1,46,728.7373,728.7375,728.7571,,,,0,22,22,22,1,160,115,,,,,,,,
,,655f5b9a4b521ef46a13b82a,65af538691bb652b9495ba5f,2024-01-23_07h56.42.227,bars,2023.2.3,Win32,62.11180124,657b66ea316d21385b68909f,,,,,,,,,,,728.7577,729.7543,,,730.2536,730.5035,,159,-21,,,,,,,,,,,,,,,,bars/042.png,bars/mask003.png,,,,,,,,,,,,4,1,,,,,,,8,2,7,0,,,,,,,,,,,729.7544,730.2535,730.5036,733.4766,space,2.9514,,733.4767,14,84,734.4701,734.4702,734.4889,,,,0,23,23,23,1,145,75,,,,,,,,
,,655f5b9a4b521ef46a13b82a,65af538691bb652b9495ba5f,2024-01-23_07h56.42.227,bars,2023.2.3,Win32,62.11180124,657b66ea316d21385b68909f,,,,,,,,,,,734.4895,735.4875,,,735.9892,736.2365,,135,-45,,,,,,,,,,,,,,,,bars/040.png,bars/mask009.png,,,,,,,,,,,,6,1,,,,,,,6,0,7,0,,,,,,,,,,,735.4875,735.9892,736.2366,741.1895,space,4.9427,,741.1896,5,50,742.1863,742.1864,742.2057,,,,0,24,24,24,1,140,5,,,,,,,,
,,655f5b9a4b521ef46a13b82a,65af538691bb652b9495ba5f,2024-01-23_07h56.42.227,bars,2023.2.3,Win32,62.11180124,657b66ea316d21385b68909f,,,,,,,,,,,742.2071,743.2035,,,743.703,743.9542,,139,139,,,,,,,,,,,,,,,,bars/008.png,bars/mask002.png,,,,,,,,,,,,0,1,,,,,,,4,0,5,1,,,,,,,,,,,743.2035,743.7029,743.9542,746.9204,space,2.9499,,746.9204,29,41,747.9198,747.9199,747.9415,,,,0,25,25,25,1,110,0,,,,,,,,
,,655f5b9a4b521ef46a13b82a,65af538691bb652b9495ba5f,2024-01-23_07h56.42.227,bars,2023.2.3,Win32,62.11180124,657b66ea316d21385b68909f,,,,,,,,,,,747.9421,748.9359,,,749.4361,749.6859,,72,72,,,,,,,,,,,,,,,,bars/025.png,bars/mask005.png,,,,,,,,,,,,0,2,,,,,,,6,2,7,2,,,,,,,,,,,748.936,749.436,749.686,752.6202,space,2.92,,752.6204,33,32,753.6194,753.6194,753.6413,,,,0,26,26,26,1,105,40,,,,,,,,
,,655f5b9a4b521ef46a13b82a,65af538691bb652b9495ba5f,2024-01-23_07h56.42.227,bars,2023.2.3,Win32,62.11180124,657b66ea316d21385b68909f,,,,,,,,,,,753.6419,754.6357,,,755.1359,755.3858,,163,163,,,,,,,,,,,,,,,,bars/012.png,bars/mask000.png,,,,,,,,,,,,0,2,,,,,,,8,0,8,0,,,,,,,,,,,754.636,755.1358,755.3858,760.3055,space,4.9095,,760.3056,73,32,761.3022,761.3023,761.3244,,,,0,27,27,27,1,90,15,,,,,,,,
,,655f5b9a4b521ef46a13b82a,65af538691bb652b9495ba5f,2024-01-23_07h56.42.227,bars,2023.2.3,Win32,62.11180124,657b66ea316d21385b68909f,,,,,,,,,,,761.3251,762.3195,,,762.8194,763.0693,,19,19,,,,,,,,,,,,,,,,bars/003.png,bars/mask006.png,,,,,,,,,,,,6,1,,,,,,,6,2,7,0,,,,,,,,,,,762.3196,762.8193,763.0694,764.0551,space,0.9748,,764.0552,6,59,765.0524,765.0526,765.0584,,,,0,28,28,28,1,25,140,,,,,,,,
,,655f5b9a4b521ef46a13b82a,65af538691bb652b9495ba5f,2024-01-23_07h56.42.227,bars,2023.2.3,Win32,62.11180124,657b66ea316d21385b68909f,,,,,,,,,,,765.059,766.0518,,,766.5523,766.8023,,26,26,,,,,,,,,,,,,,,,bars/023.png,bars/mask002.png,,,,,,,,,,,,6,1,,,,,,,8,4,7,4,,,,,,,,,,,766.0518,766.5523,766.8023,770.636,space,3.8192,,770.6361,6,89,771.6353,771.6355,771.6522,,,,0,29,29,29,1,20,115,,,,,,,,
,,655f5b9a4b521ef46a13b82a,65af538691bb652b9495ba5f,2024-01-23_07h56.42.227,bars,2023.2.3,Win32,62.11180124,657b66ea316d21385b68909f,,,,,,,,,,,771.6528,772.6522,,,773.1525,773.402,,34,34,,,,,,,,,,,,,,,,bars/044.png,bars/mask003.png,,,,,,,,,,,,0,1,,,,,,,10,6,10,6,,,,,,,,,,,772.6523,773.1524,773.4021,774.3852,space,0.9666,,774.3853,41,59,775.3855,775.3856,775.3872,,,,0,30,30,30,1,75,155,,,,,,,,
,,655f5b9a4b521ef46a13b82a,65af538691bb652b9495ba5f,2024-01-23_07h56.42.227,bars,2023.2.3,Win32,62.11180124,657b66ea316d21385b68909f,,,,,,,,,,,775.3881,776.3853,,,776.8848,777.1353,,149,-31,,,,,,,,,,,,,,,,bars/008.png,bars/mask002.png,,,,,,,,,,,,0,2,,,,,,,10,8,10,9,,,,,,,,,,,776.3854,776.8848,777.1354,782.4529,space,5.3038,,782.453,39,31,783.4518,783.4519,783.4714,,,,0,31,31,31,1,110,0,,,,,,,,
,,655f5b9a4b521ef46a13b82a,65af538691bb652b9495ba5f,2024-01-23_07h56.42.227,bars,2023.2.3,Win32,62.11180124,657b66ea316d21385b68909f,,,,,,,,,,,783.4724,784.4688,,,784.9684,785.2188,,102,102,,,,,,,,,,,,,,,,bars/027.png,bars/mask006.png,,,,,,,,,,,,7,1,,,,,,,10,10,9,9,,,,,,,,,,,784.4691,784.9682,785.2188,786.2353,space,1.0022,,786.2354,8,52,787.2345,787.2347,787.2401,,,,0,32,32,32,1,110,50,,,,,,,,
,,655f5b9a4b521ef46a13b82a,65af538691bb652b9495ba5f,2024-01-23_07h56.42.227,bars,2023.2.3,Win32,62.11180124,657b66ea316d21385b68909f,,,,,,,,,,,787.2408,788.2347,,,788.7347,788.9844,,169,169,,,,,,,,,,,,,,,,bars/035.png,bars/mask001.png,,,,,,,,,,,,7,1,,,,,,,8,10,9,10,,,,,,,,,,,788.2348,788.7346,788.9845,790.1353,space,1.1352,,790.1353,6,71,791.1337,791.1339,791.1499,,,,0,33,33,33,1,175,60,,,,,,,,
,,655f5b9a4b521ef46a13b82a,65af538691bb652b9495ba5f,2024-01-23_07h56.42.227,bars,2023.2.3,Win32,62.11180124,657b66ea316d21385b68909f,,,,,,,,,,,791.1505,792.1506,,,792.6497,792.9008,,24,24,,,,,,,,,,,,,,,,bars/007.png,bars/mask007.png,,,,,,,,,,,,0,1,,,,,,,10,8,10,8,,,,,,,,,,,792.1507,792.6496,792.9009,793.8209,space,0.9093,,793.821,29,31,794.8171,794.8172,794.831,,,,0,34,34,34,1,175,55,,,,,,,,
,,655f5b9a4b521ef46a13b82a,65af538691bb652b9495ba5f,2024-01-23_07h56.42.227,bars,2023.2.3,Win32,62.11180124,657b66ea316d21385b68909f,,,,,,,,,,,794.8335,795.8348,,,796.3343,796.5842,,87,87,,,,,,,,,,,,,,,,bars/022.png,bars/mask007.png,,,,,,,,,,,,7,1,,,,,,,10,6,10,7,,,,,,,,,,,795.8349,796.3342,796.5843,799.011,space,2.4148,,799.0111,8,67,800.0087,800.0088,800.0241,,,,0,35,35,35,1,95,20,,,,,,,,
,,655f5b9a4b521ef46a13b82a,65af538691bb652b9495ba5f,2024-01-23_07h56.42.227,bars,2023.2.3,Win32,62.11180124,657b66ea316d21385b68909f,,,,,,,,,,,800.0259,801.0166,,,801.5165,801.7662,,156,156,,,,,,,,,,,,,,,,bars/009.png,bars/mask006.png,,,,,,,,,,,,0,1,,,,,,,8,8,8,6,,,,,,,,,,,801.0167,801.5164,801.7662,804.0171,space,2.238,,804.0173,39,51,805.0162,805.0162,805.0306,,,,0,36,36,36,1,15,105,,,,,,,,
,,655f5b9a4b521ef46a13b82a,65af538691bb652b9495ba5f,2024-01-23_07h56.42.227,bars,2023.2.3,Win32,62.11180124,657b66ea316d21385b68909f,,,,,,,,,,,805.0321,806.0261,,,806.5267,806.7755,,68,68,,,,,,,,,,,,,,,,bars/025.png,bars/mask003.png,,,,,,,,,,,,1,2,,,,,,,10,10,9,10,,,,,,,,,,,806.0262,806.5266,806.7756,810.2784,space,3.4863,,810.2786,37,28,811.2673,811.2674,811.2884,,,,0,37,37,37,1,105,40,,,,,,,,
,,655f5b9a4b521ef46a13b82a,65af538691bb652b9495ba5f,2024-01-23_07h56.42.227,bars,2023.2.3,Win32,62.11180124,657b66ea316d21385b68909f,,,,,,,,,,,811.289,812.2826,,,812.7825,813.0325,,156,156,,,,,,,,,,,,,,,,bars/035.png,bars/mask005.png,,,,,,,,,,,,3,1,,,,,,,10,10,8,10,,,,,,,,,,,812.2827,812.7824,813.0326,817.7662,space,4.7201,,817.7664,19,84,818.7655,818.7656,818.7845,,,,0,38,38,38,1,175,60,,,,,,,,
,,655f5b9a4b521ef46a13b82a,65af538691bb652b9495ba5f,2024-01-23_07h56.42.227,bars,2023.2.3,Win32,62.11180124,657b66ea316d21385b68909f,,,,,,,,,,,818.7851,819.7761,,,820.2775,820.5261,,1,1,,,,,,,,,,,,,,,,bars/017.png,bars/mask007.png,,,,,,,,,,,,0,1,,,,,,,10,10,8,9,,,,,,,,,,,819.7762,820.2774,820.5261,823.5605,space,3.0183,,823.5606,36,44,824.5483,824.5483,824.5646,,,,0,39,39,39,1,145,45,,,,,,,,
,,655f5b9a4b521ef46a13b82a,65af538691bb652b9495ba5f,2024-01-23_07h56.42.227,bars,2023.2.3,Win32,62.11180124,657b66ea316d21385b68909f,,,,,,,,,,,824.5659,825.5581,,,826.0588,826.3104,,103,103,,,,,,,,,,,,,,,,bars/002.png,bars/mask001.png,,,,,,,,,,,,4,2,,,,,,,8,10,10,10,,,,,,,,,,,825.5582,826.0584,826.3104,828.7936,space,2.4694,,828.7936,27,18,829.7817,829.7818,829.8017,,,,0,40,40,40,1,130,85,,,,,,,,
,,655f5b9a4b521ef46a13b82a,65af538691bb652b9495ba5f,2024-01-23_07h56.42.227,bars,2023.2.3,Win32,62.11180124,657b66ea316d21385b68909f,,,,,,,,,,,829.8025,830.7921,,,831.2927,831.5415,,23,203,,,,,,,,,,,,,,,,bars/043.png,bars/mask003.png,,,,,,,,,,,,8,1,,,,,,,10,10,10,10,,,,,,,,,,,830.7921,831.2926,831.5415,835.1422,space,3.5839,,835.1423,7,73,836.142,836.1421,836.1605,,,,0,41,41,41,1,30,130,,,,,,,,
,,655f5b9a4b521ef46a13b82a,65af538691bb652b9495ba5f,2024-01-23_07h56.42.227,bars,2023.2.3,Win32,62.11180124,657b66ea316d21385b68909f,,,,,,,,,,,836.1611,837.1646,,,837.665,837.915,,65,65,,,,,,,,,,,,,,,,bars/031.png,bars/mask003.png,,,,,,,,,,,,0,2,,,,,,,10,10,9,10,,,,,,,,,,,837.1647,837.6649,837.9151,839.3924,space,1.465,,839.3924,55,30,840.3808,840.3809,840.3869,,,,0,42,42,42,1,120,35,,,,,,,,
,,655f5b9a4b521ef46a13b82a,65af538691bb652b9495ba5f,2024-01-23_07h56.42.227,bars,2023.2.3,Win32,62.11180124,657b66ea316d21385b68909f,,,,,,,,,,,840.3883,841.3813,,,841.8811,842.1315,,174,-6,,,,,,,,,,,,,,,,bars/046.png,bars/mask002.png,,,,,,,,,,,,3,1,,,,,,,8,10,8,10,,,,,,,,,,,841.3814,841.881,842.1316,846.6657,space,4.516,,846.6658,19,89,847.664,847.665,847.6833,,,,0,43,43,43,1,155,85,,,,,,,,
,,655f5b9a4b521ef46a13b82a,65af538691bb652b9495ba5f,2024-01-23_07h56.42.227,bars,2023.2.3,Win32,62.11180124,657b66ea316d21385b68909f,,,,,,,,,,,847.684,848.6799,,,849.1811,849.4305,,110,110,,,,,,,,,,,,,,,,bars/044.png,bars/mask001.png,,,,,,,,,,,,0,1,,,,,,,6,8,6,9,,,,,,,,,,,848.68,849.181,849.4307,852.1639,space,2.719,,852.1641,35,45,853.1635,853.1637,853.1794,,,,0,44,44,44,1,75,155,,,,,,,,
,,655f5b9a4b521ef46a13b82a,65af538691bb652b9495ba5f,2024-01-23_07h56.42.227,bars,2023.2.3,Win32,62.11180124,657b66ea316d21385b68909f,,,,,,,,,,,853.1801,854.174,,,854.6746,854.9228,,168,168,,,,,,,,,,,,,,,,bars/007.png,bars/mask004.png,,,,,,,,,,,,2,1,,,,,,,4,6,3,7,,,,,,,,,,,854.174,854.6746,854.9229,858.0243,space,3.0852,,858.0244,7,67,859.0231,859.0231,859.0398,,,,0,45,45,45,1,175,55,,,,,,,,
,,655f5b9a4b521ef46a13b82a,65af538691bb652b9495ba5f,2024-01-23_07h56.42.227,bars,2023.2.3,Win32,62.11180124,657b66ea316d21385b68909f,,,,,,,,,,,859.0408,860.0294,,,860.5299,860.7793,,50,50,,,,,,,,,,,,,,,,bars/028.png,bars/mask000.png,,,,,,,,,,,,4,1,,,,,,,6,4,5,4,,,,,,,,,,,860.0294,860.5297,860.7793,863.23,space,2.4368,,863.2301,5,70,864.2295,864.2295,864.2434,,,,0,46,46,46,1,45,120,,,,,,,,
,,655f5b9a4b521ef46a13b82a,65af538691bb652b9495ba5f,2024-01-23_07h56.42.227,bars,2023.2.3,Win32,62.11180124,657b66ea316d21385b68909f,,,,,,,,,,,864.2441,865.2464,,,865.7465,865.9968,,41,41,,,,,,,,,,,,,,,,bars/019.png,bars/mask005.png,,,,,,,,,,,,6,1,,,,,,,8,2,7,1,,,,,,,,,,,865.2464,865.7464,865.9968,868.513,space,2.5021,,868.513,4,64,869.5133,869.5133,869.5288,,,,0,47,47,47,1,45,105,,,,,,,,
,,655f5b9a4b521ef46a13b82a,65af538691bb652b9495ba5f,2024-01-23_07h56.42.227,bars,2023.2.3,Win32,62.11180124,657b66ea316d21385b68909f,,,,,,,,,,,869.5294,870.5235,,,871.0232,871.2738,,135,135,,,,,,,,,,,,,,,,bars/024.png,bars/mask002.png,,,,,,,,,,,,3,1,,,,,,,6,4,6,4,,,,,,,,,,,870.5235,871.0231,871.2739,874.3252,space,3.0353,,874.3252,15,35,875.3137,875.3138,875.3273,,,,0,48,48,48,1,120,170,,,,,,,,
,,655f5b9a4b521ef46a13b82a,65af538691bb652b9495ba5f,2024-01-23_07h56.42.227,bars,2023.2.3,Win32,62.11180124,657b66ea316d21385b68909f,,,,,,,,,,,875.3296,876.3295,,,876.8298,877.0803,,169,169,,,,,,,,,,,,,,,,bars/049.png,bars/mask005.png,,,,,,,,,,,,3,1,,,,,,,4,6,4,5,,,,,,,,,,,876.3295,876.8297,877.0803,878.2978,space,1.2017,,878.2979,9,54,879.2968,879.2969,879.2986,,,,0,49,49,49,1,160,115,,,,,,,,
,,655f5b9a4b521ef46a13b82a,65af538691bb652b9495ba5f,2024-01-23_07h56.42.227,bars,2023.2.3,Win32,62.11180124,657b66ea316d21385b68909f,,,,,,,,,,,,,,,,,,,,,,,,,,,,,,,,,,,,,,,,,,,,,,,,,,,,,,,,,,,,,,,,,,,,,,,,,,,,,,,,,,,,,,,,,,,,,879.299,939.295,0,1,1,4,1,sequence_tables/blk033.csv
,,655f5b9a4b521ef46a13b82a,65af538691bb652b9495ba5f,2024-01-23_07h56.42.227,bars,2023.2.3,Win32,62.11180124,657b66ea316d21385b68909f,,,,,,,,,,,989.2527,990.2398,,,990.74,990.9895,,159,-21,,,,,,,,,,,,,,,,bars/008.png,bars/mask004.png,,,,,,,,,,,,3,2,,,,,,,2,8,2,9,,,,,,939.3122,989.2253,space,49.8981,,990.2398,990.7398,990.9897,994.8903,space,3.8846,,994.8904,49,21,995.8897,995.8897,995.9099,,,,0,0,0,0,1,110,0,,,,,,,,
,,655f5b9a4b521ef46a13b82a,65af538691bb652b9495ba5f,2024-01-23_07h56.42.227,bars,2023.2.3,Win32,62.11180124,657b66ea316d21385b68909f,,,,,,,,,,,995.9109,996.9002,,,997.3913,997.6331,,73,73,,,,,,,,,,,,,,,,bars/031.png,bars/mask006.png,,,,,,,,,,,,0,2,,,,,,,4,10,5,10,,,,,,,,,,,996.9005,997.3913,997.6332,999.6528,space,2.0033,,999.6529,47,38,1000.6565,1000.6566,1000.6594,,,,0,1,1,1,1,120,35,,,,,,,,
,,655f5b9a4b521ef46a13b82a,65af538691bb652b9495ba5f,2024-01-23_07h56.42.227,bars,2023.2.3,Win32,62.11180124,657b66ea316d21385b68909f,,,,,,,,,,,1000.6603,1001.6568,,,1002.1567,1002.4068,,168,168,,,,,,,,,,,,,,,,bars/011.png,bars/mask003.png,,,,,,,,,,,,5,1,,,,,,,6,8,7,7,,,,,,,,,,,1001.6568,1002.1565,1002.4068,1005.3894,space,2.9688,,1005.3895,8,83,1006.3898,1006.3899,1006.4098,,,,0,2,2,2,1,160,85,,,,,,,,
,,655f5b9a4b521ef46a13b82a,65af538691bb652b9495ba5f,2024-01-23_07h56.42.227,bars,2023.2.3,Win32,62.11180124,657b66ea316d21385b68909f,,,,,,,,,,,1006.4103,1007.3997,,,1007.8998,1008.15,,59,59,,,,,,,,,,,,,,,,bars/006.png,bars/mask001.png,,,,,,,,,,,,1,1,,,,,,,8,10,7,9,,,,,,,,,,,1007.3998,1007.8997,1008.15,1009.4678,space,1.3015,,1009.468,24,41,1010.473,1010.4731,1010.4761,,,,0,3,3,3,1,35,100,,,,,,,,
,,655f5b9a4b521ef46a13b82a,65af538691bb652b9495ba5f,2024-01-23_07h56.42.227,bars,2023.2.3,Win32,62.11180124,657b66ea316d21385b68909f,,,,,,,,,,,1010.4766,1011.4724,,,1011.9731,1012.2223,,43,223,,,,,,,,,,,,,,,,bars/043.png,bars/mask005.png,,,,,,,,,,,,6,1,,,,,,,10,8,10,7,,,,,,,,,,,1011.4727,1011.9729,1012.2224,1016.9057,space,4.6678,,1016.9058,13,87,1017.9057,1017.9059,1017.9243,,,,0,4,4,4,1,30,130,,,,,,,,
,,655f5b9a4b521ef46a13b82a,65af538691bb652b9495ba5f,2024-01-23_07h56.42.227,bars,2023.2.3,Win32,62.11180124,657b66ea316d21385b68909f,,,,,,,,,,,1017.9249,1018.9151,,,1019.4184,1019.6655,,28,28,,,,,,,,,,,,,,,,bars/019.png,bars/mask006.png,,,,,,,,,,,,4,1,,,,,,,8,6,9,5,,,,,,,,,,,1018.9152,1019.4184,1019.6656,1022.4837,space,2.803,,1022.4839,17,77,1023.4733,1023.4734,1023.49,,,,0,5,5,5,1,45,105,,,,,,,,
,,655f5b9a4b521ef46a13b82a,65af538691bb652b9495ba5f,2024-01-23_07h56.42.227,bars,2023.2.3,Win32,62.11180124,657b66ea316d21385b68909f,,,,,,,,,,,1023.4907,1024.4897,,,1024.9911,1025.2399,,19,19,,,,,,,,,,,,,,,,bars/007.png,bars/mask009.png,,,,,,,,,,,,1,1,,,,,,,6,4,5,5,,,,,,,,,,,1024.4898,1024.991,1025.2399,1027.6904,space,2.435,,1027.6905,24,36,1028.69,1028.69,1028.7065,,,,0,6,6,6,1,175,55,,,,,,,,
,,655f5b9a4b521ef46a13b82a,65af538691bb652b9495ba5f,2024-01-23_07h56.42.227,bars,2023.2.3,Win32,62.11180124,657b66ea316d21385b68909f,,,,,,,,,,,1028.7074,1029.7068,,,1030.2066,1030.4561,,58,58,,,,,,,,,,,,,,,,bars/006.png,bars/mask006.png,,,,,,,,,,,,2,1,,,,,,,8,2,7,1,,,,,,,,,,,1029.7068,1030.2065,1030.4561,1033.1065,space,2.6366,,1033.1066,23,42,1034.1061,1034.1061,1034.1221,,,,0,7,7,7,1,35,100,,,,,,,,
,,655f5b9a4b521ef46a13b82a,65af538691bb652b9495ba5f,2024-01-23_07h56.42.227,bars,2023.2.3,Win32,62.11180124,657b66ea316d21385b68909f,,,,,,,,,,,1034.1227,1035.1229,,,1035.6224,1035.8726,,28,208,,,,,,,,,,,,,,,,bars/007.png,bars/mask007.png,,,,,,,,,,,,0,2,,,,,,,6,0,6,0,,,,,,,,,,,1035.1229,1035.6224,1035.8727,1041.3553,space,5.4667,,1041.3555,33,27,1042.3557,1042.3557,1042.3744,,,,0,8,8,8,1,175,55,,,,,,,,
,,655f5b9a4b521ef46a13b82a,65af538691bb652b9495ba5f,2024-01-23_07h56.42.227,bars,2023.2.3,Win32,62.11180124,657b66ea316d21385b68909f,,,,,,,,,,,1042.3751,1043.3723,,,1043.8724,1044.1224,,31,31,,,,,,,,,,,,,,,,bars/047.png,bars/mask000.png,,,,,,,,,,,,2,1,,,,,,,4,2,4,0,,,,,,,,,,,1043.3724,1043.8722,1044.1224,1047.0386,space,2.9013,,1047.0388,16,39,1048.0377,1048.0379,1048.0581,,,,0,9,9,9,1,15,70,,,,,,,,
,,655f5b9a4b521ef46a13b82a,65af538691bb652b9495ba5f,2024-01-23_07h56.42.227,bars,2023.2.3,Win32,62.11180124,657b66ea316d21385b68909f,,,,,,,,,,,1048.0597,1049.0556,,,1049.5553,1049.8052,,114,114,,,,,,,,,,,,,,,,bars/032.png,bars/mask009.png,,,,,,,,,,,,2,1,,,,,,,2,4,3,4,,,,,,,,,,,1049.0557,1049.5553,1049.8053,1052.8084,space,2.9923,,1052.8084,11,86,1053.8057,1053.8058,1053.8213,,,,0,10,10,10,1,125,20,,,,,,,,
,,655f5b9a4b521ef46a13b82a,65af538691bb652b9495ba5f,2024-01-23_07h56.42.227,bars,2023.2.3,Win32,62.11180124,657b66ea316d21385b68909f,,,,,,,,,,,1053.8218,1054.8219,,,1055.3219,1055.5721,,113,-67,,,,,,,,,,,,,,,,bars/036.png,bars/mask005.png,,,,,,,,,,,,0,1,,,,,,,4,6,5,6,,,,,,,,,,,1054.822,1055.3218,1055.5722,1061.2714,space,5.6855,,1061.2714,32,87,1062.271,1062.2711,1062.2874,,,,0,11,11,11,1,145,20,,,,,,,,
,,655f5b9a4b521ef46a13b82a,65af538691bb652b9495ba5f,2024-01-23_07h56.42.227,bars,2023.2.3,Win32,62.11180124,657b66ea316d21385b68909f,,,,,,,,,,,1062.288,1063.2879,,,1063.7881,1064.0375,,101,-79,,,,,,,,,,,,,,,,bars/045.png,bars/mask006.png,,,,,,,,,,,,3,1,,,,,,,2,4,3,3,,,,,,,,,,,1063.2879,1063.788,1064.0375,1069.091,space,5.0425,,1069.091,1,89,1070.0871,1070.0871,1070.1025,,,,0,12,12,12,1,100,10,,,,,,,,
,,655f5b9a4b521ef46a13b82a,65af538691bb652b9495ba5f,2024-01-23_07h56.42.227,bars,2023.2.3,Win32,62.11180124,657b66ea316d21385b68909f,,,,,,,,,,,1070.1034,1071.105,,,1071.6042,1071.854,,61,61,,,,,,,,,,,,,,,,bars/048.png,bars/mask004.png,,,,,,,,,,,,1,1,,,,,,,4,6,2,5,,,,,,,,,,,1071.105,1071.6042,1071.8541,1075.0885,space,3.218,,1075.0886,11,66,1076.0873,1076.0873,1076.104,,,,0,13,13,13,1,50,175,,,,,,,,
,,655f5b9a4b521ef46a13b82a,65af538691bb652b9495ba5f,2024-01-23_07h56.42.227,bars,2023.2.3,Win32,62.11180124,657b66ea316d21385b68909f,,,,,,,,,,,1076.1046,1077.1041,,,1077.604,1077.8539,,152,152,,,,,,,,,,,,,,,,bars/039.png,bars/mask001.png,,,,,,,,,,,,0,1,,,,,,,2,8,2,10,,,,,,,,,,,1077.1043,1077.6038,1077.854,1080.3398,space,2.4754,,1080.34,23,47,1081.337,1081.3371,1081.3389,,,,0,14,14,14,1,175,105,,,,,,,,
,,655f5b9a4b521ef46a13b82a,65af538691bb652b9495ba5f,2024-01-23_07h56.42.227,bars,2023.2.3,Win32,62.11180124,657b66ea316d21385b68909f,,,,,,,,,,,1081.3395,1082.3372,,,1082.8371,1083.0868,,51,51,,,,,,,,,,,,,,,,bars/013.png,bars/mask004.png,,,,,,,,,,,,0,1,,,,,,,0,6,0,5,,,,,,,,,,,1082.3373,1082.8369,1083.0868,1084.0871,space,0.9866,,1084.0872,24,41,1085.0861,1085.0862,1085.0877,,,,0,15,15,15,1,75,10,,,,,,,,
,,655f5b9a4b521ef46a13b82a,65af538691bb652b9495ba5f,2024-01-23_07h56.42.227,bars,2023.2.3,Win32,62.11180124,657b66ea316d21385b68909f,,,,,,,,,,,1085.0883,1086.0866,,,1086.5862,1086.8362,,38,218,,,,,,,,,,,,,,,,bars/033.png,bars/mask007.png,,,,,,,,,,,,1,1,,,,,,,2,4,1,3,,,,,,,,,,,1086.0866,1086.5861,1086.8363,1092.3196,space,5.4682,,1092.3198,13,63,1093.3193,1093.3193,1093.3381,,,,0,16,16,16,1,25,155,,,,,,,,
,,655f5b9a4b521ef46a13b82a,65af538691bb652b9495ba5f,2024-01-23_07h56.42.227,bars,2023.2.3,Win32,62.11180124,657b66ea316d21385b68909f,,,,,,,,,,,1093.3387,1094.3363,,,1094.8361,1095.0859,,138,138,,,,,,,,,,,,,,,,bars/002.png,bars/mask007.png,,,,,,,,,,,,2,1,,,,,,,4,6,3,5,,,,,,,,,,,1094.3364,1094.836,1095.086,1098.4027,space,3.3003,,1098.4028,8,53,1099.4023,1099.4024,1099.4199,,,,0,17,17,17,1,130,85,,,,,,,,
,,655f5b9a4b521ef46a13b82a,65af538691bb652b9495ba5f,2024-01-23_07h56.42.227,bars,2023.2.3,Win32,62.11180124,657b66ea316d21385b68909f,,,,,,,,,,,1099.4206,1100.4179,,,1100.9184,1101.1682,,117,117,,,,,,,,,,,,,,,,bars/008.png,bars/mask009.png,,,,,,,,,,,,2,1,,,,,,,2,4,2,3,,,,,,,,,,,1100.418,1100.9184,1101.1682,1104.263,space,3.0805,,1104.2631,7,63,1105.2571,1105.2572,1105.2744,,,,0,18,18,18,1,110,0,,,,,,,,
,,655f5b9a4b521ef46a13b82a,65af538691bb652b9495ba5f,2024-01-23_07h56.42.227,bars,2023.2.3,Win32,62.11180124,657b66ea316d21385b68909f,,,,,,,,,,,1105.2751,1106.2694,,,1106.7655,1107.0193,,9,9,,,,,,,,,,,,,,,,bars/011.png,bars/mask006.png,,,,,,,,,,,,0,1,,,,,,,0,2,0,1,,,,,,,,,,,1106.2695,1106.7655,1107.0193,1108.9196,space,1.8865,,1108.9196,29,76,1109.919,1109.9191,1109.9384,,,,0,19,19,19,1,160,85,,,,,,,,
,,655f5b9a4b521ef46a13b82a,65af538691bb652b9495ba5f,2024-01-23_07h56.42.227,bars,2023.2.3,Win32,62.11180124,657b66ea316d21385b68909f,,,,,,,,,,,1109.9391,1110.9357,,,1111.4357,1111.6858,,122,122,,,,,,,,,,,,,,,,bars/027.png,bars/mask002.png,,,,,,,,,,,,1,1,,,,,,,2,0,1,0,,,,,,,,,,,1110.9358,1111.4356,1111.6858,1115.0358,space,3.3359,,1115.0359,12,72,1116.0355,1116.0356,1116.0562,,,,0,20,20,20,1,110,50,,,,,,,,
,,655f5b9a4b521ef46a13b82a,65af538691bb652b9495ba5f,2024-01-23_07h56.42.227,bars,2023.2.3,Win32,62.11180124,657b66ea316d21385b68909f,,,,,,,,,,,1116.0571,1117.0518,,,1117.5523,1117.8018,,143,-37,,,,,,,,,,,,,,,,bars/042.png,bars/mask009.png,,,,,,,,,,,,0,1,,,,,,,0,2,0,3,,,,,,,,,,,1117.0519,1117.5522,1117.802,1120.9024,space,3.0857,,1120.9025,2,68,1121.9015,1121.9015,1121.9216,,,,0,21,21,21,1,145,75,,,,,,,,
,,655f5b9a4b521ef46a13b82a,65af538691bb652b9495ba5f,2024-01-23_07h56.42.227,bars,2023.2.3,Win32,62.11180124,657b66ea316d21385b68909f,,,,,,,,,,,1121.9229,1122.9185,,,1123.4179,1123.6682,,102,102,,,,,,,,,,,,,,,,bars/001.png,bars/mask002.png,,,,,,,,,,,,1,2,,,,,,,0,0,0,2,,,,,,,,,,,1122.9185,1123.4179,1123.6682,1124.7207,space,1.0421,,1124.721,28,17,1125.7185,1125.7186,1125.7239,,,,0,22,22,22,1,130,85,,,,,,,,
,,655f5b9a4b521ef46a13b82a,65af538691bb652b9495ba5f,2024-01-23_07h56.42.227,bars,2023.2.3,Win32,62.11180124,657b66ea316d21385b68909f,,,,,,,,,,,1125.7244,1126.7179,,,1127.2179,1127.4679,,66,66,,,,,,,,,,,,,,,,bars/014.png,bars/mask001.png,,,,,,,,,,,,1,1,,,,,,,0,0,2,1,,,,,,,,,,,1126.7179,1127.2178,1127.4679,1130.2013,space,2.7185,,1130.2015,14,66,1131.2007,1131.2008,1131.2205,,,,0,23,23,23,1,80,0,,,,,,,,
,,655f5b9a4b521ef46a13b82a,65af538691bb652b9495ba5f,2024-01-23_07h56.42.227,bars,2023.2.3,Win32,62.11180124,657b66ea316d21385b68909f,,,,,,,,,,,1131.2211,1132.217,,,1132.7175,1132.9674,,82,82,,,,,,,,,,,,,,,,bars/025.png,bars/mask002.png,,,,,,,,,,,,0,1,,,,,,,0,0,0,2,,,,,,,,,,,1132.2172,1132.7174,1132.9675,1134.8183,space,1.8329,,1134.8184,23,42,1135.8172,1135.8173,1135.8365,,,,0,24,24,24,1,105,40,,,,,,,,
,,655f5b9a4b521ef46a13b82a,65af538691bb652b9495ba5f,2024-01-23_07h56.42.227,bars,2023.2.3,Win32,62.11180124,657b66ea316d21385b68909f,,,,,,,,,,,1135.8371,1136.835,,,1137.3339,1137.5843,,78,78,,,,,,,,,,,,,,,,bars/014.png,bars/mask002.png,,,,,,,,,,,,0,1,,,,,,,0,0,0,0,,,,,,,,,,,1136.8351,1137.3338,1137.5843,1139.7848,space,2.1862,,1139.7848,2,78,1140.7841,1140.7841,1140.7994,,,,0,25,25,25,1,80,0,,,,,,,,
,,655f5b9a4b521ef46a13b82a,65af538691bb652b9495ba5f,2024-01-23_07h56.42.227,bars,2023.2.3,Win32,62.11180124,657b66ea316d21385b68909f,,,,,,,,,,,1140.8003,1141.8008,,,1142.3003,1142.551,,138,138,,,,,,,,,,,,,,,,bars/036.png,bars/mask001.png,,,,,,,,,,,,2,1,,,,,,,2,0,3,0,,,,,,,,,,,1141.8009,1142.3003,1142.5511,1145.6004,space,3.036,,1145.6005,7,62,1146.5999,1146.6001,1146.6195,,,,0,26,26,26,1,145,20,,,,,,,,
,,655f5b9a4b521ef46a13b82a,65af538691bb652b9495ba5f,2024-01-23_07h56.42.227,bars,2023.2.3,Win32,62.11180124,657b66ea316d21385b68909f,,,,,,,,,,,1146.6201,1147.6179,,,1148.1171,1148.3671,,72,252,,,,,,,,,,,,,,,,bars/014.png,bars/mask004.png,,,,,,,,,,,,4,1,,,,,,,4,2,5,1,,,,,,,,,,,1147.618,1148.1171,1148.3671,1153.4339,space,5.0556,,1153.4341,8,72,1154.4348,1154.4349,1154.4551,,,,0,27,27,27,1,80,0,,,,,,,,
,,655f5b9a4b521ef46a13b82a,65af538691bb652b9495ba5f,2024-01-23_07h56.42.227,bars,2023.2.3,Win32,62.11180124,657b66ea316d21385b68909f,,,,,,,,,,,1154.4557,1155.4507,,,1155.9499,1156.2006,,16,16,,,,,,,,,,,,,,,,bars/009.png,bars/mask004.png,,,,,,,,,,,,7,1,,,,,,,6,4,7,4,,,,,,,,,,,1155.452,1155.9497,1156.2007,1159.4428,space,3.232,,1159.4429,1,89,1160.4364,1160.4364,1160.4571,,,,0,28,28,28,1,15,105,,,,,,,,
,,655f5b9a4b521ef46a13b82a,65af538691bb652b9495ba5f,2024-01-23_07h56.42.227,bars,2023.2.3,Win32,62.11180124,657b66ea316d21385b68909f,,,,,,,,,,,1160.4582,1161.442,,,1161.9388,1162.1797,,143,143,,,,,,,,,,,,,,,,bars/049.png,bars/mask005.png,,,,,,,,,,,,2,1,,,,,,,4,2,4,3,,,,,,,,,,,1161.4421,1161.9387,1162.1798,1163.6852,space,1.486,,1163.6853,17,28,1164.6927,1164.6927,1164.6943,,,,0,29,29,29,1,160,115,,,,,,,,
,,655f5b9a4b521ef46a13b82a,65af538691bb652b9495ba5f,2024-01-23_07h56.42.227,bars,2023.2.3,Win32,62.11180124,657b66ea316d21385b68909f,,,,,,,,,,,1164.6949,1165.6917,,,1166.1858,1166.4329,,132,132,,,,,,,,,,,,,,,,bars/015.png,bars/mask002.png,,,,,,,,,,,,2,1,,,,,,,6,0,8,0,,,,,,,,,,,1165.6918,1166.1857,1166.433,1171.2436,space,4.7936,,1171.2437,22,28,1172.2415,1172.2416,1172.2584,,,,0,30,30,30,1,110,160,,,,,,,,
,,655f5b9a4b521ef46a13b82a,65af538691bb652b9495ba5f,2024-01-23_07h56.42.227,bars,2023.2.3,Win32,62.11180124,657b66ea316d21385b68909f,,,,,,,,,,,1172.259,1173.2481,,,1173.7478,1173.9987,,172,172,,,,,,,,,,,,,,,,bars/046.png,bars/mask008.png,,,,,,,,,,,,2,1,,,,,,,4,2,5,3,,,,,,,,,,,1173.2482,1173.7476,1173.9988,1178.5921,space,4.5808,,1178.5922,17,87,1179.5914,1179.5915,1179.6096,,,,0,31,31,31,1,155,85,,,,,,,,
,,655f5b9a4b521ef46a13b82a,65af538691bb652b9495ba5f,2024-01-23_07h56.42.227,bars,2023.2.3,Win32,62.11180124,657b66ea316d21385b68909f,,,,,,,,,,,1179.6111,1180.6142,,,1181.1081,1181.3578,,140,140,,,,,,,,,,,,,,,,bars/017.png,bars/mask000.png,,,,,,,,,,,,1,1,,,,,,,2,4,1,4,,,,,,,,,,,1180.6143,1181.108,1181.3578,1183.826,space,2.4512,,1183.8262,5,85,1184.8243,1184.8243,1184.844,,,,0,32,32,32,1,145,45,,,,,,,,
,,655f5b9a4b521ef46a13b82a,65af538691bb652b9495ba5f,2024-01-23_07h56.42.227,bars,2023.2.3,Win32,62.11180124,657b66ea316d21385b68909f,,,,,,,,,,,1184.8446,1185.8475,,,1186.3476,1186.5978,,160,160,,,,,,,,,,,,,,,,bars/038.png,bars/mask009.png,,,,,,,,,,,,3,1,,,,,,,4,2,4,1,,,,,,,,,,,1185.8475,1186.3475,1186.5979,1191.2485,space,4.6367,,1191.2486,5,90,1192.2472,1192.2473,1192.2637,,,,0,33,33,33,1,165,70,,,,,,,,
,,655f5b9a4b521ef46a13b82a,65af538691bb652b9495ba5f,2024-01-23_07h56.42.227,bars,2023.2.3,Win32,62.11180124,657b66ea316d21385b68909f,,,,,,,,,,,1192.2651,1193.2579,,,1193.7471,1193.9967,,21,21,,,,,,,,,,,,,,,,bars/000.png,bars/mask000.png,,,,,,,,,,,,1,1,,,,,,,2,4,4,5,,,,,,,,,,,1193.258,1193.747,1193.9969,1197.1747,space,3.166,,1197.1748,19,56,1198.1736,1198.1737,1198.1886,,,,0,34,34,34,1,40,145,,,,,,,,
,,655f5b9a4b521ef46a13b82a,65af538691bb652b9495ba5f,2024-01-23_07h56.42.227,bars,2023.2.3,Win32,62.11180124,657b66ea316d21385b68909f,,,,,,,,,,,1198.1892,1199.1798,,,1199.6686,1199.9068,,13,193,,,,,,,,,,,,,,,,bars/049.png,bars/mask008.png,,,,,,,,,,,,0,1,,,,,,,4,6,5,6,,,,,,,,,,,1199.1798,1199.6681,1199.9068,1202.8406,space,2.9175,,1202.8406,33,78,1203.8401,1203.8402,1203.8549,,,,0,35,35,35,1,160,115,,,,,,,,
,,655f5b9a4b521ef46a13b82a,65af538691bb652b9495ba5f,2024-01-23_07h56.42.227,bars,2023.2.3,Win32,62.11180124,657b66ea316d21385b68909f,,,,,,,,,,,1203.8555,1204.8465,,,1205.3467,1205.5961,,154,154,,,,,,,,,,,,,,,,bars/037.png,bars/mask008.png,,,,,,,,,,,,5,1,,,,,,,6,4,6,4,,,,,,,,,,,1204.8466,1205.3466,1205.5962,1208.996,space,3.3843,,1208.9962,4,49,1209.9968,1209.9969,1210.0109,,,,0,36,36,36,1,150,105,,,,,,,,
,,655f5b9a4b521ef46a13b82a,65af538691bb652b9495ba5f,2024-01-23_07h56.42.227,bars,2023.2.3,Win32,62.11180124,657b66ea316d21385b68909f,,,,,,,,,,,1210.0124,1211.005,,,1211.4975,1211.7473,,97,97,,,,,,,,,,,,,,,,bars/020.png,bars/mask002.png,,,,,,,,,,,,4,1,,,,,,,8,2,9,2,,,,,,,,,,,1211.005,1211.4973,1211.7474,1215.2804,space,3.5183,,1215.2805,18,73,1216.2801,1216.2802,1216.2954,,,,0,37,37,37,1,115,170,,,,,,,,
,,655f5b9a4b521ef46a13b82a,65af538691bb652b9495ba5f,2024-01-23_07h56.42.227,bars,2023.2.3,Win32,62.11180124,657b66ea316d21385b68909f,,,,,,,,,,,1216.2964,1217.2977,,,1217.7966,1218.047,,65,65,,,,,,,,,,,,,,,,bars/016.png,bars/mask009.png,,,,,,,,,,,,1,1,,,,,,,10,4,7,4,,,,,,,,,,,1217.2978,1217.7964,1218.047,1221.3469,space,3.2843,,1221.3469,25,80,1222.3472,1222.3472,1222.3635,,,,0,38,38,38,1,40,165,,,,,,,,
,,655f5b9a4b521ef46a13b82a,65af538691bb652b9495ba5f,2024-01-23_07h56.42.227,bars,2023.2.3,Win32,62.11180124,657b66ea316d21385b68909f,,,,,,,,,,,1222.3642,1223.3643,,,1223.8636,1224.1135,,116,116,,,,,,,,,,,,,,,,bars/045.png,bars/mask006.png,,,,,,,,,,,,5,1,,,,,,,10,6,10,5,,,,,,,,,,,1223.3644,1223.8636,1224.1136,1226.7136,space,2.5857,,1226.7136,16,74,1227.7127,1227.7128,1227.7279,,,,0,39,39,39,1,100,10,,,,,,,,
,,655f5b9a4b521ef46a13b82a,65af538691bb652b9495ba5f,2024-01-23_07h56.42.227,bars,2023.2.3,Win32,62.11180124,657b66ea316d21385b68909f,,,,,,,,,,,1227.7291,1228.7294,,,1229.2301,1229.4801,,56,56,,,,,,,,,,,,,,,,bars/016.png,bars/mask000.png,,,,,,,,,,,,5,1,,,,,,,8,4,10,4,,,,,,,,,,,1228.7294,1229.2301,1229.4802,1232.4819,space,2.9909,,1232.482,16,71,1233.4799,1233.48,1233.4949,,,,0,40,40,40,1,40,165,,,,,,,,
,,655f5b9a4b521ef46a13b82a,65af538691bb652b9495ba5f,2024-01-23_07h56.42.227,bars,2023.2.3,Win32,62.11180124,657b66ea316d21385b68909f,,,,,,,,,,,1233.4966,1234.4963,,,1234.9966,1235.2461,,31,31,,,,,,,,,,,,,,,,bars/005.png,bars/mask001.png,,,,,,,,,,,,3,1,,,,,,,10,2,10,2,,,,,,,,,,,1234.4963,1234.9965,1235.2462,1238.8125,space,3.553,,1238.8126,21,71,1239.8133,1239.8134,1239.8303,,,,0,41,41,41,1,10,140,,,,,,,,
,,655f5b9a4b521ef46a13b82a,65af538691bb652b9495ba5f,2024-01-23_07h56.42.227,bars,2023.2.3,Win32,62.11180124,657b66ea316d21385b68909f,,,,,,,,,,,1239.8315,1240.8303,,,1241.3292,1241.5794,,67,247,,,,,,,,,,,,,,,,bars/016.png,bars/mask003.png,,,,,,,,,,,,1,1,,,,,,,10,0,10,0,,,,,,,,,,,1240.8303,1241.3291,1241.5794,1246.4954,space,4.903,,1246.4955,27,82,1247.4946,1247.4947,1247.5104,,,,0,42,42,42,1,40,165,,,,,,,,
,,655f5b9a4b521ef46a13b82a,65af538691bb652b9495ba5f,2024-01-23_07h56.42.227,bars,2023.2.3,Win32,62.11180124,657b66ea316d21385b68909f,,,,,,,,,,,1247.5111,1248.5058,,,1249.0055,1249.2578,,137,137,,,,,,,,,,,,,,,,bars/037.png,bars/mask000.png,,,,,,,,,,,,5,1,,,,,,,8,0,8,1,,,,,,,,,,,1248.5058,1249.0055,1249.2579,1252.0891,space,2.8183,,1252.0892,13,32,1253.0886,1253.0887,1253.1044,,,,0,43,43,43,1,150,105,,,,,,,,
,,655f5b9a4b521ef46a13b82a,65af538691bb652b9495ba5f,2024-01-23_07h56.42.227,bars,2023.2.3,Win32,62.11180124,657b66ea316d21385b68909f,,,,,,,,,,,1253.1049,1254.0935,,,1254.5949,1254.8443,,50,230,,,,,,,,,,,,,,,,bars/000.png,bars/mask004.png,,,,,,,,,,,,7,1,,,,,,,10,2,10,0,,,,,,,,,,,1254.0935,1254.5948,1254.8446,1257.9441,space,3.0845,,1257.9445,10,85,1258.944,1258.9442,1258.9594,,,,0,44,44,44,1,40,145,,,,,,,,
,,655f5b9a4b521ef46a13b82a,65af538691bb652b9495ba5f,2024-01-23_07h56.42.227,bars,2023.2.3,Win32,62.11180124,657b66ea316d21385b68909f,,,,,,,,,,,1258.9603,1259.9546,,,1260.4539,1260.7036,,158,158,,,,,,,,,,,,,,,,bars/049.png,bars/mask004.png,,,,,,,,,,,,9,1,,,,,,,10,4,10,4,,,,,,,,,,,1259.9547,1260.4539,1260.7037,1264.154,space,3.4348,,1264.154,2,43,1265.1454,1265.1454,1265.1619,,,,0,45,45,45,1,160,115,,,,,,,,
,,655f5b9a4b521ef46a13b82a,65af538691bb652b9495ba5f,2024-01-23_07h56.42.227,bars,2023.2.3,Win32,62.11180124,657b66ea316d21385b68909f,,,,,,,,,,,1265.1626,1266.1524,,,1266.653,1266.9032,,158,-22,,,,,,,,,,,,,,,,bars/030.png,bars/mask000.png,,,,,,,,,,,,4,1,,,,,,,8,6,9,5,,,,,,,,,,,1266.1525,1266.6527,1266.9033,1269.837,space,2.9179,,1269.8374,18,87,1270.828,1270.828,1270.849,,,,0,46,46,46,1,140,65,,,,,,,,
,,655f5b9a4b521ef46a13b82a,65af538691bb652b9495ba5f,2024-01-23_07h56.42.227,bars,2023.2.3,Win32,62.11180124,657b66ea316d21385b68909f,,,,,,,,,,,1270.8497,1271.8445,,,1272.3438,1272.5941,,58,238,,,,,,,,,,,,,,,,bars/048.png,bars/mask001.png,,,,,,,,,,,,7,1,,,,,,,10,8,9,8,,,,,,,,,,,1271.8446,1272.3438,1272.5942,1277.695,space,5.0864,,1277.6951,8,63,1278.6936,1278.6936,1278.7118,,,,0,47,47,47,1,50,175,,,,,,,,
,,655f5b9a4b521ef46a13b82a,65af538691bb652b9495ba5f,2024-01-23_07h56.42.227,bars,2023.2.3,Win32,62.11180124,657b66ea316d21385b68909f,,,,,,,,,,,1278.7123,1279.7111,,,1280.2105,1280.4604,,110,110,,,,,,,,,,,,,,,,bars/025.png,bars/mask000.png,,,,,,,,,,,,8,1,,,,,,,10,6,10,7,,,,,,,,,,,1279.7111,1280.2104,1280.4606,1281.9108,space,1.4371,,1281.9109,5,70,1282.9101,1282.9101,1282.926,,,,0,48,48,48,1,105,40,,,,,,,,
,,655f5b9a4b521ef46a13b82a,65af538691bb652b9495ba5f,2024-01-23_07h56.42.227,bars,2023.2.3,Win32,62.11180124,657b66ea316d21385b68909f,,,,,,,,,,,1282.9269,1283.927,,,1284.4272,1284.677,,151,151,,,,,,,,,,,,,,,,bars/011.png,bars/mask009.png,,,,,,,,,,,,6,1,,,,,,,8,8,9,9,,,,,,,,,,,1283.9271,1284.4272,1284.6771,1287.8766,space,3.1832,,1287.8768,9,66,1288.8772,1288.8772,1288.8937,,,,0,49,49,49,1,160,85,,,,,,,,
,,655f5b9a4b521ef46a13b82a,65af538691bb652b9495ba5f,2024-01-23_07h56.42.227,bars,2023.2.3,Win32,62.11180124,657b66ea316d21385b68909f,,,,,,,,,,,,,,,,,,,,,,,,,,,,,,,,,,,,,,,,,,,,,,,,,,,,,,,,,,,,,,,,,,,,,,,,,,,,,,,,,,,,,,,,,,,,,1288.8941,1348.8906,0,2,2,3,1,sequence_tables/blk038.csv
,,655f5b9a4b521ef46a13b82a,65af538691bb652b9495ba5f,2024-01-23_07h56.42.227,bars,2023.2.3,Win32,62.11180124,657b66ea316d21385b68909f,,,,,,,,,,,1350.3923,1351.3896,,,1351.8913,1352.1402,,27,207,,,,,,,,,,,,,,,,bars/047.png,bars/mask008.png,,,,,,,,,,,,1,1,,,,,,,1,6,1,7,,,,,,1348.9094,1350.375,space,1.4539,,1351.3898,1351.8912,1352.1402,1356.8253,space,4.6749,,1356.8254,12,43,1357.8232,1357.8233,1357.8405,,,,0,0,0,0,1,15,70,,,,,,,,
,,655f5b9a4b521ef46a13b82a,65af538691bb652b9495ba5f,2024-01-23_07h56.42.227,bars,2023.2.3,Win32,62.11180124,657b66ea316d21385b68909f,,,,,,,,,,,1357.8411,1358.841,,,1359.3403,1359.5904,,73,73,,,,,,,,,,,,,,,,bars/028.png,bars/mask009.png,,,,,,,,,,,,0,1,,,,,,,3,4,2,5,,,,,,,,,,,1358.841,1359.3403,1359.5906,1362.7913,space,3.1872,,1362.7914,28,47,1363.7897,1363.7899,1363.8111,,,,0,1,1,1,1,45,120,,,,,,,,
,,655f5b9a4b521ef46a13b82a,65af538691bb652b9495ba5f,2024-01-23_07h56.42.227,bars,2023.2.3,Win32,62.11180124,657b66ea316d21385b68909f,,,,,,,,,,,1363.8118,1364.806,,,1365.3055,1365.5553,,141,141,,,,,,,,,,,,,,,,bars/031.png,bars/mask001.png,,,,,,,,,,,,1,1,,,,,,,1,6,2,5,,,,,,,,,,,1364.8061,1365.3053,1365.5554,1366.5065,space,0.9351,,1366.5066,21,74,1367.5053,1367.5054,1367.5081,,,,0,2,2,2,1,120,35,,,,,,,,
,,655f5b9a4b521ef46a13b82a,65af538691bb652b9495ba5f,2024-01-23_07h56.42.227,bars,2023.2.3,Win32,62.11180124,657b66ea316d21385b68909f,,,,,,,,,,,1367.5087,1368.5052,,,1369.0056,1369.2556,,121,121,,,,,,,,,,,,,,,,bars/036.png,bars/mask004.png,,,,,,,,,,,,1,1,,,,,,,3,4,3,5,,,,,,,,,,,1368.5053,1369.0055,1369.2557,1372.7555,space,3.4797,,1372.7556,24,79,1373.7546,1373.7547,1373.7722,,,,0,3,3,3,1,145,20,,,,,,,,
,,655f5b9a4b521ef46a13b82a,65af538691bb652b9495ba5f,2024-01-23_07h56.42.227,bars,2023.2.3,Win32,62.11180124,657b66ea316d21385b68909f,,,,,,,,,,,1373.7729,1374.7653,,,1375.2562,1375.5058,,66,66,,,,,,,,,,,,,,,,bars/029.png,bars/mask003.png,,,,,,,,,,,,2,2,,,,,,,1,6,1,6,,,,,,,,,,,1374.7653,1375.2561,1375.5058,1376.4067,space,0.8862,,1376.4068,24,21,1377.4071,1377.4071,1377.4137,,,,0,4,4,4,1,90,45,,,,,,,,
,,655f5b9a4b521ef46a13b82a,65af538691bb652b9495ba5f,2024-01-23_07h56.42.227,bars,2023.2.3,Win32,62.11180124,657b66ea316d21385b68909f,,,,,,,,,,,1377.4143,1378.4063,,,1378.9055,1379.156,,148,-32,,,,,,,,,,,,,,,,bars/021.png,bars/mask003.png,,,,,,,,,,,,3,1,,,,,,,3,4,4,4,,,,,,,,,,,1378.4063,1378.9054,1379.156,1382.0061,space,2.8351,,1382.0062,7,78,1383.0053,1383.0054,1383.0247,,,,0,5,5,5,1,155,70,,,,,,,,
,,655f5b9a4b521ef46a13b82a,65af538691bb652b9495ba5f,2024-01-23_07h56.42.227,bars,2023.2.3,Win32,62.11180124,657b66ea316d21385b68909f,,,,,,,,,,,1383.0254,1384.0234,,,1384.5264,1384.7579,,124,124,,,,,,,,,,,,,,,,bars/032.png,bars/mask005.png,,,,,,,,,,,,4,1,,,,,,,5,6,4,6,,,,,,,,,,,1384.0235,1384.5264,1384.7581,1388.1488,space,3.3704,,1388.1489,1,76,1389.142,1389.1421,1389.1634,,,,0,6,6,6,1,125,20,,,,,,,,
,,655f5b9a4b521ef46a13b82a,65af538691bb652b9495ba5f,2024-01-23_07h56.42.227,bars,2023.2.3,Win32,62.11180124,657b66ea316d21385b68909f,,,,,,,,,,,1389.1645,1390.1662,,,1390.6547,1390.9039,,141,141,,,,,,,,,,,,,,,,bars/010.png,bars/mask009.png,,,,,,,,,,,,2,1,,,,,,,7,4,9,4,,,,,,,,,,,1390.1662,1390.6546,1390.904,1393.854,space,2.9342,,1393.854,24,86,1394.854,1394.8541,1394.8727,,,,0,7,7,7,1,165,55,,,,,,,,
,,655f5b9a4b521ef46a13b82a,65af538691bb652b9495ba5f,2024-01-23_07h56.42.227,bars,2023.2.3,Win32,62.11180124,657b66ea316d21385b68909f,,,,,,,,,,,1394.8733,1395.8639,,,1396.3647,1396.6142,,120,120,,,,,,,,,,,,,,,,bars/017.png,bars/mask008.png,,,,,,,,,,,,1,1,,,,,,,9,6,9,7,,,,,,,,,,,1395.864,1396.3647,1396.6142,1400.5653,space,3.9345,,1400.5654,25,75,1401.5633,1401.5634,1401.5816,,,,0,8,8,8,1,145,45,,,,,,,,
,,655f5b9a4b521ef46a13b82a,65af538691bb652b9495ba5f,2024-01-23_07h56.42.227,bars,2023.2.3,Win32,62.11180124,657b66ea316d21385b68909f,,,,,,,,,,,1401.5822,1402.5702,,,1403.0708,1403.3207,,133,133,,,,,,,,,,,,,,,,bars/030.png,bars/mask000.png,,,,,,,,,,,,8,1,,,,,,,10,4,10,5,,,,,,,,,,,1402.5702,1403.0707,1403.3208,1408.2369,space,4.9019,,1408.237,7,68,1409.2366,1409.2366,1409.2523,,,,0,9,9,9,1,140,65,,,,,,,,
,,655f5b9a4b521ef46a13b82a,65af538691bb652b9495ba5f,2024-01-23_07h56.42.227,bars,2023.2.3,Win32,62.11180124,657b66ea316d21385b68909f,,,,,,,,,,,1409.2529,1410.2476,,,1410.7469,1410.9973,,65,65,,,,,,,,,,,,,,,,bars/031.png,bars/mask002.png,,,,,,,,,,,,0,2,,,,,,,8,2,9,3,,,,,,,,,,,1410.2478,1410.7468,1410.9974,1414.3567,space,3.3436,,1414.3567,55,30,1415.3546,1415.3547,1415.3746,,,,0,10,10,10,1,120,35,,,,,,,,
,,655f5b9a4b521ef46a13b82a,65af538691bb652b9495ba5f,2024-01-23_07h56.42.227,bars,2023.2.3,Win32,62.11180124,657b66ea316d21385b68909f,,,,,,,,,,,1415.3753,1416.3701,,,1416.8707,1417.1209,,120,120,,,,,,,,,,,,,,,,bars/012.png,bars/mask007.png,,,,,,,,,,,,0,1,,,,,,,6,4,6,5,,,,,,,,,,,1416.3702,1416.8706,1417.121,1420.9876,space,3.8513,,1420.9878,30,75,1421.9868,1421.9869,1422.0054,,,,0,11,11,11,1,90,15,,,,,,,,
,,655f5b9a4b521ef46a13b82a,65af538691bb652b9495ba5f,2024-01-23_07h56.42.227,bars,2023.2.3,Win32,62.11180124,657b66ea316d21385b68909f,,,,,,,,,,,1422.0061,1423.002,,,1423.5021,1423.7519,,21,201,,,,,,,,,,,,,,,,bars/011.png,bars/mask000.png,,,,,,,,,,,,0,1,,,,,,,8,6,8,5,,,,,,,,,,,1423.002,1423.502,1423.752,1426.4041,space,2.6394,,1426.4042,41,64,1427.4025,1427.4025,1427.405,,,,0,12,12,12,1,160,85,,,,,,,,
,,655f5b9a4b521ef46a13b82a,65af538691bb652b9495ba5f,2024-01-23_07h56.42.227,bars,2023.2.3,Win32,62.11180124,657b66ea316d21385b68909f,,,,,,,,,,,1427.4057,1428.4024,,,1428.9026,1429.1529,,118,118,,,,,,,,,,,,,,,,bars/002.png,bars/mask006.png,,,,,,,,,,,,3,1,,,,,,,6,4,5,4,,,,,,,,,,,1428.4024,1428.9026,1429.1529,1431.9186,space,2.7512,,1431.9187,12,33,1432.9184,1432.9184,1432.9329,,,,0,13,13,13,1,130,85,,,,,,,,
,,655f5b9a4b521ef46a13b82a,65af538691bb652b9495ba5f,2024-01-23_07h56.42.227,bars,2023.2.3,Win32,62.11180124,657b66ea316d21385b68909f,,,,,,,,,,,1432.9335,1433.9296,,,1434.4283,1434.6799,,83,83,,,,,,,,,,,,,,,,bars/045.png,bars/mask004.png,,,,,,,,,,,,3,1,,,,,,,8,6,7,5,,,,,,,,,,,1433.9297,1434.4282,1434.6801,1437.4182,space,2.7217,,1437.4192,17,73,1438.4179,1438.418,1438.4326,,,,0,14,14,14,1,100,10,,,,,,,,
,,655f5b9a4b521ef46a13b82a,65af538691bb652b9495ba5f,2024-01-23_07h56.42.227,bars,2023.2.3,Win32,62.11180124,657b66ea316d21385b68909f,,,,,,,,,,,1438.434,1439.4299,,,1439.9179,1440.1685,,20,200,,,,,,,,,,,,,,,,bars/041.png,bars/mask008.png,,,,,,,,,,,,6,1,,,,,,,6,8,6,9,,,,,,,,,,,1439.4299,1439.9179,1440.1689,1443.1039,space,2.9182,,1443.104,0,65,1444.1019,1444.1021,1444.12,,,,0,15,15,15,1,20,85,,,,,,,,
,,655f5b9a4b521ef46a13b82a,65af538691bb652b9495ba5f,2024-01-23_07h56.42.227,bars,2023.2.3,Win32,62.11180124,657b66ea316d21385b68909f,,,,,,,,,,,1444.1206,1445.1125,,,1445.6125,1445.8619,,154,-26,,,,,,,,,,,,,,,,bars/038.png,bars/mask006.png,,,,,,,,,,,,6,1,,,,,,,8,10,9,10,,,,,,,,,,,1445.1125,1445.6124,1445.8619,1449.8959,space,4.0177,,1449.8959,11,84,1450.8956,1450.896,1450.911,,,,0,16,16,16,1,165,70,,,,,,,,
,,655f5b9a4b521ef46a13b82a,65af538691bb652b9495ba5f,2024-01-23_07h56.42.227,bars,2023.2.3,Win32,62.11180124,657b66ea316d21385b68909f,,,,,,,,,,,1450.9116,1451.9011,,,1452.4018,1452.6514,,106,106,,,,,,,,,,,,,,,,bars/012.png,bars/mask001.png,,,,,,,,,,,,2,1,,,,,,,6,10,5,8,,,,,,,,,,,1451.9013,1452.4018,1452.6514,1456.5511,space,3.8849,,1456.5512,16,89,1457.5537,1457.5538,1457.5686,,,,0,17,17,17,1,90,15,,,,,,,,
,,655f5b9a4b521ef46a13b82a,65af538691bb652b9495ba5f,2024-01-23_07h56.42.227,bars,2023.2.3,Win32,62.11180124,657b66ea316d21385b68909f,,,,,,,,,,,1457.5691,1458.5669,,,1459.0675,1459.3174,,117,117,,,,,,,,,,,,,,,,bars/015.png,bars/mask009.png,,,,,,,,,,,,3,1,,,,,,,4,10,4,10,,,,,,,,,,,1458.5669,1459.0674,1459.3175,1462.6349,space,3.3025,,1462.6351,7,43,1463.6332,1463.6333,1463.653,,,,0,18,18,18,1,110,160,,,,,,,,
,,655f5b9a4b521ef46a13b82a,65af538691bb652b9495ba5f,2024-01-23_07h56.42.227,bars,2023.2.3,Win32,62.11180124,657b66ea316d21385b68909f,,,,,,,,,,,1463.6536,1464.643,,,1465.1341,1465.3832,,30,210,,,,,,,,,,,,,,,,bars/004.png,bars/mask007.png,,,,,,,,,,,,5,1,,,,,,,6,8,6,8,,,,,,,,,,,1464.6431,1465.134,1465.3832,1469.0514,space,3.6554,,1469.0516,5,85,1470.0429,1470.043,1470.0599,,,,0,19,19,19,1,25,125,,,,,,,,
,,655f5b9a4b521ef46a13b82a,65af538691bb652b9495ba5f,2024-01-23_07h56.42.227,bars,2023.2.3,Win32,62.11180124,657b66ea316d21385b68909f,,,,,,,,,,,1470.0606,1471.05,,,1471.5497,1471.7998,,150,-30,,,,,,,,,,,,,,,,bars/032.png,bars/mask002.png,,,,,,,,,,,,1,1,,,,,,,4,6,4,6,,,,,,,,,,,1471.05,1471.5495,1471.7999,1477.5834,space,5.7705,,1477.5836,25,50,1478.5834,1478.5834,1478.6011,,,,0,20,20,20,1,125,20,,,,,,,,
,,655f5b9a4b521ef46a13b82a,65af538691bb652b9495ba5f,2024-01-23_07h56.42.227,bars,2023.2.3,Win32,62.11180124,657b66ea316d21385b68909f,,,,,,,,,,,1478.6019,1479.592,,,1480.094,1480.3445,,110,110,,,,,,,,,,,,,,,,bars/045.png,bars/mask009.png,,,,,,,,,,,,2,1,,,,,,,2,8,3,8,,,,,,,,,,,1479.5921,1480.094,1480.3448,1483.0522,space,2.6898,,1483.0522,10,80,1484.0503,1484.0505,1484.0701,,,,0,21,21,21,1,100,10,,,,,,,,
,,655f5b9a4b521ef46a13b82a,65af538691bb652b9495ba5f,2024-01-23_07h56.42.227,bars,2023.2.3,Win32,62.11180124,657b66ea316d21385b68909f,,,,,,,,,,,1484.0718,1485.068,,,1485.5675,1485.8173,,21,21,,,,,,,,,,,,,,,,bars/007.png,bars/mask000.png,,,,,,,,,,,,1,1,,,,,,,4,6,5,8,,,,,,,,,,,1485.0681,1485.5675,1485.8174,1487.1004,space,1.2685,,1487.1006,26,34,1488.1002,1488.1004,1488.1178,,,,0,22,22,22,1,175,55,,,,,,,,
,,655f5b9a4b521ef46a13b82a,65af538691bb652b9495ba5f,2024-01-23_07h56.42.227,bars,2023.2.3,Win32,62.11180124,657b66ea316d21385b68909f,,,,,,,,,,,1488.1189,1489.118,,,1489.6178,1489.8671,,24,24,,,,,,,,,,,,,,,,bars/023.png,bars/mask001.png,,,,,,,,,,,,3,1,,,,,,,6,8,4,9,,,,,,,,,,,1489.1182,1489.6177,1489.8671,1492.1011,space,2.2191,,1492.1012,4,89,1493.1003,1493.1004,1493.1202,,,,0,23,23,23,1,20,115,,,,,,,,
,,655f5b9a4b521ef46a13b82a,65af538691bb652b9495ba5f,2024-01-23_07h56.42.227,bars,2023.2.3,Win32,62.11180124,657b66ea316d21385b68909f,,,,,,,,,,,1493.1213,1494.1169,,,1494.6171,1494.8669,,4,4,,,,,,,,,,,,,,,,bars/025.png,bars/mask001.png,,,,,,,,,,,,0,2,,,,,,,8,6,8,8,,,,,,,,,,,1494.1169,1494.6171,1494.867,1500.2672,space,5.3852,,1500.2672,79,36,1501.267,1501.267,1501.2854,,,,0,24,24,24,1,105,40,,,,,,,,
,,655f5b9a4b521ef46a13b82a,65af538691bb652b9495ba5f,2024-01-23_07h56.42.227,bars,2023.2.3,Win32,62.11180124,657b66ea316d21385b68909f,,,,,,,,,,,1501.286,1502.2833,,,1502.7838,1503.0326,,148,148,,,,,,,,,,,,,,,,bars/035.png,bars/mask000.png,,,,,,,,,,,,1,1,,,,,,,6,8,7,8,,,,,,,,,,,1502.2834,1502.7837,1503.0326,1524.4829,space,21.4376,,1524.483,27,88,1525.4821,1525.4821,1525.5022,,,,0,25,25,25,1,175,60,,,,,,,,
,,655f5b9a4b521ef46a13b82a,65af538691bb652b9495ba5f,2024-01-23_07h56.42.227,bars,2023.2.3,Win32,62.11180124,657b66ea316d21385b68909f,,,,,,,,,,,1525.5029,1526.4984,,,1526.9986,1527.2486,,178,178,,,,,,,,,,,,,,,,bars/012.png,bars/mask001.png,,,,,,,,,,,,2,2,,,,,,,4,6,5,5,,,,,,,,,,,1526.4985,1526.9985,1527.2486,1532.4651,space,5.2018,,1532.4652,88,17,1533.4655,1533.4655,1533.4835,,,,0,26,26,26,1,90,15,,,,,,,,
,,655f5b9a4b521ef46a13b82a,65af538691bb652b9495ba5f,2024-01-23_07h56.42.227,bars,2023.2.3,Win32,62.11180124,657b66ea316d21385b68909f,,,,,,,,,,,1533.4841,1534.482,,,1534.9817,1535.2311,,0,0,,,,,,,,,,,,,,,,bars/017.png,bars/mask007.png,,,,,,,,,,,,0,1,,,,,,,6,4,6,3,,,,,,,,,,,1534.4822,1534.9817,1535.2312,1538.5812,space,3.3352,,1538.5814,35,45,1539.5814,1539.5815,1539.6001,,,,0,27,27,27,1,145,45,,,,,,,,
,,655f5b9a4b521ef46a13b82a,65af538691bb652b9495ba5f,2024-01-23_07h56.42.227,bars,2023.2.3,Win32,62.11180124,657b66ea316d21385b68909f,,,,,,,,,,,1539.6007,1540.5981,,,1541.0979,1541.3476,,136,136,,,,,,,,,,,,,,,,bars/001.png,bars/mask005.png,,,,,,,,,,,,5,1,,,,,,,8,2,6,2,,,,,,,,,,,1540.5982,1541.0978,1541.3477,1545.1645,space,3.8025,,1545.1645,6,51,1546.1647,1546.1648,1546.1796,,,,0,28,28,28,1,130,85,,,,,,,,
,,655f5b9a4b521ef46a13b82a,65af538691bb652b9495ba5f,2024-01-23_07h56.42.227,bars,2023.2.3,Win32,62.11180124,657b66ea316d21385b68909f,,,,,,,,,,,1546.1806,1547.1807,,,1547.6808,1547.9317,,110,110,,,,,,,,,,,,,,,,bars/015.png,bars/mask004.png,,,,,,,,,,,,7,1,,,,,,,6,0,7,0,,,,,,,,,,,1547.1807,1547.6808,1547.9318,1551.3807,space,3.4356,,1551.3807,0,50,1552.3804,1552.3807,1552.3958,,,,0,29,29,29,1,110,160,,,,,,,,
,,655f5b9a4b521ef46a13b82a,65af538691bb652b9495ba5f,2024-01-23_07h56.42.227,bars,2023.2.3,Win32,62.11180124,657b66ea316d21385b68909f,,,,,,,,,,,1552.3966,1553.3981,,,1553.8974,1554.1475,,176,176,,,,,,,,,,,,,,,,bars/004.png,bars/mask009.png,,,,,,,,,,,,0,1,,,,,,,8,0,9,0,,,,,,,,,,,1553.3982,1553.8973,1554.1476,1575.1081,space,20.9492,,1575.1082,29,51,1576.1123,1576.1127,1576.1153,,,,0,30,30,30,1,25,125,,,,,,,,
,,655f5b9a4b521ef46a13b82a,65af538691bb652b9495ba5f,2024-01-23_07h56.42.227,bars,2023.2.3,Win32,62.11180124,657b66ea316d21385b68909f,,,,,,,,,,,1576.1159,1577.1125,,,1577.6115,1577.8616,,46,226,,,,,,,,,,,,,,,,bars/043.png,bars/mask003.png,,,,,,,,,,,,5,1,,,,,,,10,0,10,2,,,,,,,,,,,1577.1125,1577.6114,1577.8618,1581.378,space,3.5026,,1581.3782,16,84,1582.3776,1582.3777,1582.3923,,,,0,31,31,31,1,30,130,,,,,,,,
,,655f5b9a4b521ef46a13b82a,65af538691bb652b9495ba5f,2024-01-23_07h56.42.227,bars,2023.2.3,Win32,62.11180124,657b66ea316d21385b68909f,,,,,,,,,,,1582.3938,1583.3892,,,1583.8782,1584.1278,,106,106,,,,,,,,,,,,,,,,bars/044.png,bars/mask002.png,,,,,,,,,,,,0,1,,,,,,,10,0,9,0,,,,,,,,,,,1583.3893,1583.878,1584.128,1585.5278,space,1.386,,1585.5279,31,49,1586.5278,1586.5279,1586.5313,,,,0,32,32,32,1,75,155,,,,,,,,
,,655f5b9a4b521ef46a13b82a,65af538691bb652b9495ba5f,2024-01-23_07h56.42.227,bars,2023.2.3,Win32,62.11180124,657b66ea316d21385b68909f,,,,,,,,,,,1586.5319,1587.5286,,,1588.028,1588.278,,135,135,,,,,,,,,,,,,,,,bars/020.png,bars/mask000.png,,,,,,,,,,,,3,1,,,,,,,10,0,10,1,,,,,,,,,,,1587.5286,1588.0279,1588.2781,1590.9111,space,2.6172,,1590.9112,20,35,1591.911,1591.911,1591.9284,,,,0,33,33,33,1,115,170,,,,,,,,
,,655f5b9a4b521ef46a13b82a,65af538691bb652b9495ba5f,2024-01-23_07h56.42.227,bars,2023.2.3,Win32,62.11180124,657b66ea316d21385b68909f,,,,,,,,,,,1591.9291,1592.9227,,,1593.4222,1593.6698,,35,35,,,,,,,,,,,,,,,,bars/000.png,bars/mask005.png,,,,,,,,,,,,8,1,,,,,,,8,2,9,2,,,,,,,,,,,1592.9227,1593.4222,1593.6698,1595.0054,space,1.3174,,1595.0054,5,70,1596.0036,1596.0037,1596.006,,,,0,34,34,34,1,40,145,,,,,,,,
,,655f5b9a4b521ef46a13b82a,65af538691bb652b9495ba5f,2024-01-23_07h56.42.227,bars,2023.2.3,Win32,62.11180124,657b66ea316d21385b68909f,,,,,,,,,,,1596.0067,1597.0052,,,1597.5035,1597.7552,,110,110,,,,,,,,,,,,,,,,bars/045.png,bars/mask002.png,,,,,,,,,,,,7,1,,,,,,,10,4,10,5,,,,,,,,,,,1597.0053,1597.5034,1597.7554,1600.873,space,3.1019,,1600.8731,10,80,1601.8616,1601.8616,1601.8775,,,,0,35,35,35,1,100,10,,,,,,,,
,,655f5b9a4b521ef46a13b82a,65af538691bb652b9495ba5f,2024-01-23_07h56.42.227,bars,2023.2.3,Win32,62.11180124,657b66ea316d21385b68909f,,,,,,,,,,,1601.8781,1602.8785,,,1603.378,1603.6279,,161,-19,,,,,,,,,,,,,,,,bars/011.png,bars/mask004.png,,,,,,,,,,,,7,1,,,,,,,8,6,7,5,,,,,,,,,,,1602.8785,1603.3778,1603.6281,1607.7788,space,4.1363,,1607.7789,1,76,1608.7781,1608.7783,1608.7928,,,,0,36,36,36,1,160,85,,,,,,,,
,,655f5b9a4b521ef46a13b82a,65af538691bb652b9495ba5f,2024-01-23_07h56.42.227,bars,2023.2.3,Win32,62.11180124,657b66ea316d21385b68909f,,,,,,,,,,,1608.7946,1609.7947,,,1610.2947,1610.5441,,83,83,,,,,,,,,,,,,,,,bars/034.png,bars/mask006.png,,,,,,,,,,,,4,2,,,,,,,6,8,7,9,,,,,,,,,,,1609.7948,1610.2947,1610.5441,1612.9109,space,2.3516,,1612.911,42,18,1613.9111,1613.9111,1613.9299,,,,0,37,37,37,1,125,65,,,,,,,,
,,655f5b9a4b521ef46a13b82a,65af538691bb652b9495ba5f,2024-01-23_07h56.42.227,bars,2023.2.3,Win32,62.11180124,657b66ea316d21385b68909f,,,,,,,,,,,1613.9307,1614.928,,,1615.4283,1615.6777,,125,125,,,,,,,,,,,,,,,,bars/025.png,bars/mask000.png,,,,,,,,,,,,3,1,,,,,,,8,6,8,7,,,,,,,,,,,1614.9281,1615.4283,1615.6777,1618.6124,space,2.9248,,1618.6125,20,85,1619.6102,1619.6103,1619.6303,,,,0,38,38,38,1,105,40,,,,,,,,
,,655f5b9a4b521ef46a13b82a,65af538691bb652b9495ba5f,2024-01-23_07h56.42.227,bars,2023.2.3,Win32,62.11180124,657b66ea316d21385b68909f,,,,,,,,,,,1619.631,1620.6275,,,1621.1279,1621.377,,75,75,,,,,,,,,,,,,,,,bars/012.png,bars/mask005.png,,,,,,,,,,,,5,1,,,,,,,10,4,9,3,,,,,,,,,,,1620.6276,1621.1277,1621.377,1623.3439,space,1.9533,,1623.3441,15,60,1624.3435,1624.3436,1624.3451,,,,0,39,39,39,1,90,15,,,,,,,,
,,655f5b9a4b521ef46a13b82a,65af538691bb652b9495ba5f,2024-01-23_07h56.42.227,bars,2023.2.3,Win32,62.11180124,657b66ea316d21385b68909f,,,,,,,,,,,1624.3458,1625.3437,,,1625.8438,1626.0935,,26,206,,,,,,,,,,,,,,,,bars/038.png,bars/mask002.png,,,,,,,,,,,,0,1,,,,,,,10,2,10,3,,,,,,,,,,,1625.3438,1625.8438,1626.0935,1631.5471,space,5.4408,,1631.5472,41,44,1632.5391,1632.5392,1632.5621,,,,0,40,40,40,1,165,70,,,,,,,,
,,655f5b9a4b521ef46a13b82a,65af538691bb652b9495ba5f,2024-01-23_07h56.42.227,bars,2023.2.3,Win32,62.11180124,657b66ea316d21385b68909f,,,,,,,,,,,1632.5636,1633.5749,,,1634.0632,1634.3095,,18,18,,,,,,,,,,,,,,,,bars/028.png,bars/mask003.png,,,,,,,,,,,,1,1,,,,,,,10,0,10,0,,,,,,,,,,,1633.575,1634.0632,1634.3095,1638.6199,space,4.2935,,1638.62,27,78,1639.6185,1639.6185,1639.6356,,,,0,41,41,41,1,45,120,,,,,,,,
,,655f5b9a4b521ef46a13b82a,65af538691bb652b9495ba5f,2024-01-23_07h56.42.227,bars,2023.2.3,Win32,62.11180124,657b66ea316d21385b68909f,,,,,,,,,,,1639.6362,1640.6259,,,1641.1256,1641.3756,,112,112,,,,,,,,,,,,,,,,bars/014.png,bars/mask004.png,,,,,,,,,,,,0,1,,,,,,,10,2,10,2,,,,,,,,,,,1640.626,1641.1254,1641.3756,1642.6423,space,1.2534,,1642.6424,32,68,1643.6373,1643.6374,1643.6396,,,,0,42,42,42,1,80,0,,,,,,,,
,,655f5b9a4b521ef46a13b82a,65af538691bb652b9495ba5f,2024-01-23_07h56.42.227,bars,2023.2.3,Win32,62.11180124,657b66ea316d21385b68909f,,,,,,,,,,,1643.6412,1644.6353,,,1645.1359,1645.3846,,132,132,,,,,,,,,,,,,,,,bars/017.png,bars/mask008.png,,,,,,,,,,,,5,1,,,,,,,8,0,8,0,,,,,,,,,,,1644.6355,1645.1357,1645.3846,1650.8626,space,5.4611,,1650.8627,13,87,1651.8519,1651.852,1651.8744,,,,0,43,43,43,1,145,45,,,,,,,,
,,655f5b9a4b521ef46a13b82a,65af538691bb652b9495ba5f,2024-01-23_07h56.42.227,bars,2023.2.3,Win32,62.11180124,657b66ea316d21385b68909f,,,,,,,,,,,1651.8751,1652.868,,,1653.3684,1653.6186,,149,-31,,,,,,,,,,,,,,,,bars/031.png,bars/mask008.png,,,,,,,,,,,,0,1,,,,,,,6,0,6,0,,,,,,,,,,,1652.8684,1653.3683,1653.6186,1656.5023,space,2.8679,,1656.5023,29,66,1657.4929,1657.493,1657.5136,,,,0,44,44,44,1,120,35,,,,,,,,
,,655f5b9a4b521ef46a13b82a,65af538691bb652b9495ba5f,2024-01-23_07h56.42.227,bars,2023.2.3,Win32,62.11180124,657b66ea316d21385b68909f,,,,,,,,,,,1657.5142,1658.513,,,1659.0103,1659.242,,159,-21,,,,,,,,,,,,,,,,bars/032.png,bars/mask001.png,,,,,,,,,,,,0,1,,,,,,,4,0,4,0,,,,,,,,,,,1658.5131,1659.0103,1659.2421,1662.6044,space,3.3451,,1662.6045,34,41,1663.602,1663.6021,1663.6204,,,,0,45,45,45,1,125,20,,,,,,,,
,,655f5b9a4b521ef46a13b82a,65af538691bb652b9495ba5f,2024-01-23_07h56.42.227,bars,2023.2.3,Win32,62.11180124,657b66ea316d21385b68909f,,,,,,,,,,,1663.6213,1664.6178,,,1665.1087,1665.3591,,117,117,,,,,,,,,,,,,,,,bars/040.png,bars/mask000.png,,,,,,,,,,,,1,1,,,,,,,6,2,4,2,,,,,,,,,,,1664.6179,1665.1085,1665.3591,1669.1782,space,3.8094,,1669.1783,23,68,1670.1751,1670.1752,1670.1933,,,,0,46,46,46,1,140,5,,,,,,,,
,,655f5b9a4b521ef46a13b82a,65af538691bb652b9495ba5f,2024-01-23_07h56.42.227,bars,2023.2.3,Win32,62.11180124,657b66ea316d21385b68909f,,,,,,,,,,,1670.1948,1671.1916,,,1671.6924,1671.9427,,137,137,,,,,,,,,,,,,,,,bars/027.png,bars/mask008.png,,,,,,,,,,,,0,1,,,,,,,4,4,4,4,,,,,,,,,,,1671.1917,1671.6923,1671.9427,1674.8282,space,2.8704,,1674.8283,27,87,1675.8185,1675.8187,1675.8375,,,,0,47,47,47,1,110,50,,,,,,,,
,,655f5b9a4b521ef46a13b82a,65af538691bb652b9495ba5f,2024-01-23_07h56.42.227,bars,2023.2.3,Win32,62.11180124,657b66ea316d21385b68909f,,,,,,,,,,,1675.8381,1676.8395,,,1677.3401,1677.5908,,144,144,,,,,,,,,,,,,,,,bars/031.png,bars/mask001.png,,,,,,,,,,,,1,1,,,,,,,6,6,7,5,,,,,,,,,,,1676.8396,1677.34,1677.5909,1745.7532,space,68.1471,,1745.7536,24,71,1746.7535,1746.7537,1746.7705,,,,0,48,48,48,1,120,35,,,,,,,,
,,655f5b9a4b521ef46a13b82a,65af538691bb652b9495ba5f,2024-01-23_07h56.42.227,bars,2023.2.3,Win32,62.11180124,657b66ea316d21385b68909f,,,,,,,,,,,1746.7712,1747.7636,,,1748.2541,1748.5046,,61,61,,,,,,,,,,,,,,,,bars/016.png,bars/mask000.png,,,,,,,,,,,,3,1,,,,,,,8,8,9,8,,,,,,,,,,,1747.7636,1748.254,1748.5047,1752.3379,space,3.8188,,1752.338,21,76,1753.3382,1753.3382,1753.3544,,,,0,49,49,49,1,40,165,,,,,,,,
,,655f5b9a4b521ef46a13b82a,65af538691bb652b9495ba5f,2024-01-23_07h56.42.227,bars,2023.2.3,Win32,62.11180124,657b66ea316d21385b68909f,,,,,,,,,,,,,,,,,,,,,,,,,,,,,,,,,,,,,,,,,,,,,,,,,,,,,,,,,,,,,,,,,,,,,,,,,,,,,,,,,,,,,,,,,,,,,1753.3547,1813.3515,0,3,3,0,1,sequence_tables/blk034.csv
,,655f5b9a4b521ef46a13b82a,65af538691bb652b9495ba5f,2024-01-23_07h56.42.227,bars,2023.2.3,Win32,62.11180124,657b66ea316d21385b68909f,,,,,,,,,,,1847.41,1848.3986,,,1848.8988,1849.1484,,38,218,,,,,,,,,,,,,,,,bars/019.png,bars/mask002.png,,,,,,,,,,,,8,1,,,,,,,10,7,10,8,,,,,,1813.3674,1847.3836,space,34.0007,,1848.3986,1848.8985,1849.1486,1853.1152,space,3.9525,,1853.1153,7,67,1854.1153,1854.1154,1854.1315,,,,0,0,0,0,1,45,105,,,,,,,,
,,655f5b9a4b521ef46a13b82a,65af538691bb652b9495ba5f,2024-01-23_07h56.42.227,bars,2023.2.3,Win32,62.11180124,657b66ea316d21385b68909f,,,,,,,,,,,1854.1327,1855.1251,,,1855.6256,1855.8734,,161,161,,,,,,,,,,,,,,,,bars/039.png,bars/mask008.png,,,,,,,,,,,,5,1,,,,,,,10,5,10,6,,,,,,,,,,,1855.1252,1855.6254,1855.8735,1858.0164,space,2.1202,,1858.0165,14,56,1859.0159,1859.016,1859.0175,,,,0,1,1,1,1,175,105,,,,,,,,
,,655f5b9a4b521ef46a13b82a,65af538691bb652b9495ba5f,2024-01-23_07h56.42.227,bars,2023.2.3,Win32,62.11180124,657b66ea316d21385b68909f,,,,,,,,,,,1859.0181,1860.0158,,,1860.516,1860.7658,,111,111,,,,,,,,,,,,,,,,bars/009.png,bars/mask009.png,,,,,,,,,,,,2,2,,,,,,,10,3,9,3,,,,,,,,,,,1860.0159,1860.5159,1860.7659,1870.8656,space,10.0852,,1870.8657,84,6,1871.8647,1871.8647,1871.8846,,,,0,2,2,2,1,15,105,,,,,,,,
,,655f5b9a4b521ef46a13b82a,65af538691bb652b9495ba5f,2024-01-23_07h56.42.227,bars,2023.2.3,Win32,62.11180124,657b66ea316d21385b68909f,,,,,,,,,,,1871.8852,1872.8818,,,1873.382,1873.6316,,125,125,,,,,,,,,,,,,,,,bars/034.png,bars/mask009.png,,,,,,,,,,,,6,1,,,,,,,8,1,6,0,,,,,,,,,,,1872.882,1873.382,1873.6317,1876.1652,space,2.5207,,1876.1653,0,60,1877.165,1877.1651,1877.1846,,,,0,3,3,3,1,125,65,,,,,,,,
,,655f5b9a4b521ef46a13b82a,65af538691bb652b9495ba5f,2024-01-23_07h56.42.227,bars,2023.2.3,Win32,62.11180124,657b66ea316d21385b68909f,,,,,,,,,,,1877.1854,1878.1813,,,1878.6818,1878.9317,,68,68,,,,,,,,,,,,,,,,bars/013.png,bars/mask005.png,,,,,,,,,,,,8,1,,,,,,,10,0,10,1,,,,,,,,,,,1878.1814,1878.6816,1878.9317,1881.4149,space,2.4678,,1881.415,7,58,1882.4148,1882.415,1882.4317,,,,0,4,4,4,1,75,10,,,,,,,,
,,655f5b9a4b521ef46a13b82a,65af538691bb652b9495ba5f,2024-01-23_07h56.42.227,bars,2023.2.3,Win32,62.11180124,657b66ea316d21385b68909f,,,,,,,,,,,1882.4333,1883.4308,,,1883.9309,1884.1818,,126,126,,,,,,,,,,,,,,,,bars/018.png,bars/mask008.png,,,,,,,,,,,,2,1,,,,,,,8,0,9,1,,,,,,,,,,,1883.4308,1883.9309,1884.1818,1886.8813,space,2.6846,,1886.8814,24,36,1887.8807,1887.8807,1887.8822,,,,0,5,5,5,1,150,90,,,,,,,,
,,655f5b9a4b521ef46a13b82a,65af538691bb652b9495ba5f,2024-01-23_07h56.42.227,bars,2023.2.3,Win32,62.11180124,657b66ea316d21385b68909f,,,,,,,,,,,1887.8828,1888.8806,,,1889.3811,1889.6308,,160,160,,,,,,,,,,,,,,,,bars/003.png,bars/mask005.png,,,,,,,,,,,,1,2,,,,,,,6,2,7,2,,,,,,,,,,,1888.8807,1889.381,1889.6308,1893.8478,space,4.2021,,1893.8479,45,20,1894.8471,1894.8471,1894.866,,,,0,6,6,6,1,25,140,,,,,,,,
,,655f5b9a4b521ef46a13b82a,65af538691bb652b9495ba5f,2024-01-23_07h56.42.227,bars,2023.2.3,Win32,62.11180124,657b66ea316d21385b68909f,,,,,,,,,,,1894.8666,1895.8643,,,1896.3639,1896.6143,,126,-54,,,,,,,,,,,,,,,,bars/021.png,bars/mask003.png,,,,,,,,,,,,0,1,,,,,,,8,0,9,0,,,,,,,,,,,1895.8643,1896.3637,1896.6144,1899.9473,space,3.3201,,1899.9474,29,56,1900.9473,1900.9474,1900.9659,,,,0,7,7,7,1,155,70,,,,,,,,
,,655f5b9a4b521ef46a13b82a,65af538691bb652b9495ba5f,2024-01-23_07h56.42.227,bars,2023.2.3,Win32,62.11180124,657b66ea316d21385b68909f,,,,,,,,,,,1900.9665,1901.964,,,1902.4633,1902.7138,,128,128,,,,,,,,,,,,,,,,bars/044.png,bars/mask008.png,,,,,,,,,,,,0,2,,,,,,,6,2,6,2,,,,,,,,,,,1901.964,1902.4633,1902.7139,1907.3639,space,4.6349,,1907.3641,53,27,1908.3635,1908.3637,1908.3824,,,,0,8,8,8,1,75,155,,,,,,,,
,,655f5b9a4b521ef46a13b82a,65af538691bb652b9495ba5f,2024-01-23_07h56.42.227,bars,2023.2.3,Win32,62.11180124,657b66ea316d21385b68909f,,,,,,,,,,,1908.3831,1909.3788,,,1909.8783,1910.1292,,105,105,,,,,,,,,,,,,,,,bars/014.png,bars/mask001.png,,,,,,,,,,,,1,1,,,,,,,8,0,6,0,,,,,,,,,,,1909.3789,1909.8782,1910.1295,1913.4293,space,3.2861,,1913.4294,25,75,1914.4285,1914.4286,1914.4471,,,,0,9,9,9,1,80,0,,,,,,,,
,,655f5b9a4b521ef46a13b82a,65af538691bb652b9495ba5f,2024-01-23_07h56.42.227,bars,2023.2.3,Win32,62.11180124,657b66ea316d21385b68909f,,,,,,,,,,,1914.4477,1915.4388,,,1915.9397,1916.189,,131,131,,,,,,,,,,,,,,,,bars/001.png,bars/mask006.png,,,,,,,,,,,,10,1,,,,,,,10,2,10,1,,,,,,,,,,,1915.439,1915.9396,1916.1891,1918.1636,space,1.9539,,1918.1638,1,46,1919.1631,1919.1632,1919.1782,,,,0,10,10,10,1,130,85,,,,,,,,
,,655f5b9a4b521ef46a13b82a,65af538691bb652b9495ba5f,2024-01-23_07h56.42.227,bars,2023.2.3,Win32,62.11180124,657b66ea316d21385b68909f,,,,,,,,,,,1919.1791,1920.1805,,,1920.6798,1920.9298,,25,25,,,,,,,,,,,,,,,,bars/007.png,bars/mask006.png,,,,,,,,,,,,0,2,,,,,,,10,4,10,4,,,,,,,,,,,1920.1805,1920.6798,1920.9299,1923.4238,space,2.484,,1923.4238,30,30,1924.4233,1924.4234,1924.4515,,,,0,11,11,11,1,175,55,,,,,,,,
,,655f5b9a4b521ef46a13b82a,65af538691bb652b9495ba5f,2024-01-23_07h56.42.227,bars,2023.2.3,Win32,62.11180124,657b66ea316d21385b68909f,,,,,,,,,,,1924.4525,1925.4571,,,1925.9564,1926.2066,,87,87,,,,,,,,,,,,,,,,bars/044.png,bars/mask006.png,,,,,,,,,,,,5,1,,,,,,,10,2,8,2,,,,,,,,,,,1925.4573,1925.9563,1926.2067,1928.0042,space,1.7813,,1928.0043,12,68,1929.0072,1929.0074,1929.0137,,,,0,12,12,12,1,75,155,,,,,,,,
